counterbalancing_condition,consent_prescreening.block_1/declare_consent,consent_prescreening.block_1/age_years,consent_prescreening.block_1/gender,consent_prescreening.block_1/language_disorder,consent_prescreening.block_1/first_language,PROLIFIC_PID,STUDY_ID,SESSION_ID,date,expName,psychopyVersion,OS,frameRate,check_prescreening_answers.started,check_prescreening_answers.stopped,Instructions.started,Instructions.stopped,instr_done_keyboard.keys,instr_done_touch.x,instr_done_touch.y,instr_done_touch.leftButton,instr_done_touch.midButton,instr_done_touch.rightButton,instr_done_touch.clicked_name,instruction_pages.thisRepN,instruction_pages.thisTrialN,instruction_pages.thisN,instruction_pages.thisIndex,instruction_pages.ran,pageN,phase,instruct_text,has_image,instruct_image,presentTrial.started,presentTrial.stopped,response.keys,response.corr,touch_resp.x,touch_resp.y,touch_resp.leftButton,touch_resp.midButton,touch_resp.rightButton,touch_resp.time,touch_resp.clicked_name,rt,corr,feedback.started,feedback.stopped,practice_trials.thisRepN,practice_trials.thisTrialN,practice_trials.thisN,practice_trials.thisIndex,practice_trials.ran,TrialID,StimulusType,Condition,PrimeDuration,Prime,Flanker,corrAns,response.rt,response.duration,instr_done_keyboard.rt,instr_done_keyboard.duration,Break.started,Break.stopped,break_done_touch.x,break_done_touch.y,break_done_touch.leftButton,break_done_touch.midButton,break_done_touch.rightButton,break_done_keyboard.keys,experiment_trials.thisRepN,experiment_trials.thisTrialN,experiment_trials.thisN,experiment_trials.thisIndex,experiment_trials.ran,break_done_keyboard.rt,break_done_keyboard.duration,End.started,End.stopped
0,"[""comfortable"",""over_18"",""read_info"",""consent_given""]",30,M,"[""none""]","[""spanish""]",010063256c19267ccc7ba307,66a626ef09d4e21e1a8894ec,67373fb6f09efe182c4096c0,2024-11-15_13h50.46.121,Tarea de género gramatical,2024.2.2,Win32,74.62686567,,,,,,,,,,,,,,,,,,,,,,,,,,,,,,,,,,,,,,,,,,,,,,,,,,,,,,,,,,,,,,,,,,,,,
,,,,,,010063256c19267ccc7ba307,66a626ef09d4e21e1a8894ec,67373fb6f09efe182c4096c0,2024-11-15_13h50.46.121,Tarea de género gramatical,2024.2.2,Win32,74.62686567,13.0514,13.0514,,,,,,,,,,,,,,,,,,,,,,,,,,,,,,,,,,,,,,,,,,,,,,,,,,,,,,,,,,,,,,,,,,,
,,,,,,010063256c19267ccc7ba307,66a626ef09d4e21e1a8894ec,67373fb6f09efe182c4096c0,2024-11-15_13h50.46.121,Tarea de género gramatical,2024.2.2,Win32,74.62686567,,,13.0637,14.1836,,0.016666667,-0.391666667,1,0,0,instr_done_button,0,0,0,0,1,1,instructions,"INSTRUCCIONES
Va a realizar una prueba de selección gramatical. Desde el comienzo de la prueba mire siempre al centro de la pantalla. Al cabo de un momento, aparecerán palabras. La tarea consiste en determinar si la palabra del centro (siempre será un sustantivo), pertenece al género masculino o femenino.

Pulse la tecla ESPACIO o toque el botón de abajo para continuar.",0,keyboardresponseFM.png,,,,,,,,,,,,,,,,,,,,,,,,,,,,,,,,,,,,,,,,,,,,,,,,
,,,,,,010063256c19267ccc7ba307,66a626ef09d4e21e1a8894ec,67373fb6f09efe182c4096c0,2024-11-15_13h50.46.121,Tarea de género gramatical,2024.2.2,Win32,74.62686567,,,14.1849,14.77,,0.016666667,-0.391666667,1,0,0,instr_done_button,0,1,1,1,1,2,instructions,"Si su dispositivo tiene teclado, pulse la tecla ""A"" para las palabras en femenino (por ejemplo: ""mano"") y la tecla ""L"" para las palabras en masculino(por ejemplo: ""arroz"").
Pulse la tecla ESPACIO o toque el botón de abajo para continuar.",1,keyboardresponseFM.png,,,,,,,,,,,,,,,,,,,,,,,,,,,,,,,,,,,,,,,,,,,,,,,,
,,,,,,010063256c19267ccc7ba307,66a626ef09d4e21e1a8894ec,67373fb6f09efe182c4096c0,2024-11-15_13h50.46.121,Tarea de género gramatical,2024.2.2,Win32,74.62686567,,,14.7712,15.4537,,0.1,-0.413888889,1,0,0,instr_done_button,0,2,2,2,1,3,instructions,"Si utiliza un dispositivo sólo táctil, colóquelo en horizontal y utilice los botones de la pantalla. No utilice el ratón.
Pulse la tecla ESPACIO o toque el botón de abajo para continuar.",2,touchresponseFM.png,,,,,,,,,,,,,,,,,,,,,,,,,,,,,,,,,,,,,,,,,,,,,,,,
,,,,,,010063256c19267ccc7ba307,66a626ef09d4e21e1a8894ec,67373fb6f09efe182c4096c0,2024-11-15_13h50.46.121,Tarea de género gramatical,2024.2.2,Win32,74.62686567,,,15.4552,15.8936,,0.1,-0.413888889,1,0,0,instr_done_button,0,3,3,3,1,4,instructions,"Es muy importante que responda con la mayor rapidez y precisión posibles, ya que cada cadena de letras sólo estará en pantalla durante un instante. Si no responde en ese tiempo, aparecerá el mensaje ""Muy lento"" y el experimento pasará a la siguiente palabra. Los primeros 15 intentos serán de práctica y habrá dos descansos durante la prueba.
Pulse la tecla ESPACIO o toque el botón de abajo para iniciar la parte de práctica.",0,keyboardresponseFM.png,,,,,,,,,,,,,,,,,,,,,,,,,,,,,,,,,,,,,,,,,,,,,,,,
,,,,,,010063256c19267ccc7ba307,66a626ef09d4e21e1a8894ec,67373fb6f09efe182c4096c0,2024-11-15_13h50.46.121,Tarea de género gramatical,2024.2.2,Win32,74.62686567,,,,,,,,,,,,,,,,,,,,,,15.9019,18.5478,,0,[],[],[],[],[],[],[],,-1,18.548,19.0413,0,0,0,6,1,2007,FEM,AGR,150,navaja,la,a,,,,,,,,,,,,,,,,,,,,,
,,,,,,010063256c19267ccc7ba307,66a626ef09d4e21e1a8894ec,67373fb6f09efe182c4096c0,2024-11-15_13h50.46.121,Tarea de género gramatical,2024.2.2,Win32,74.62686567,,,,,,,,,,,,,,,,,,,,,,19.0421,20.2555,a,1,[],[],[],[],[],[],[],0.5585,1,20.2592,20.7487,0,1,1,1,1,2002,FEM,CON,150,pala,,a,0.5585,,,,,,,,,,,,,,,,,,,,
,,,,,,010063256c19267ccc7ba307,66a626ef09d4e21e1a8894ec,67373fb6f09efe182c4096c0,2024-11-15_13h50.46.121,Tarea de género gramatical,2024.2.2,Win32,74.62686567,,,,,,,,,,,,,,,,,,,,,,20.7498,21.8657,l,1,[],[],[],[],[],[],[],0.4453,1,21.8658,22.3625,0,2,2,14,1,2015,MAS,DIS,150,robot,la,l,0.4453,,,,,,,,,,,,,,,,,,,,
,,,,,,010063256c19267ccc7ba307,66a626ef09d4e21e1a8894ec,67373fb6f09efe182c4096c0,2024-11-15_13h50.46.121,Tarea de género gramatical,2024.2.2,Win32,74.62686567,,,,,,,,,,,,,,,,,,,,,,22.3634,23.683,a,1,[],[],[],[],[],[],[],0.6539,1,23.683,24.1764,0,3,3,5,1,2006,FEM,DIS,150,serie,el,a,0.6539,,,,,,,,,,,,,,,,,,,,
,,,,,,010063256c19267ccc7ba307,66a626ef09d4e21e1a8894ec,67373fb6f09efe182c4096c0,2024-11-15_13h50.46.121,Tarea de género gramatical,2024.2.2,Win32,74.62686567,,,,,,,,,,,,,,,,,,,,,,24.1773,25.377,l,1,[],[],[],[],[],[],[],0.534,1,25.3771,25.8671,0,4,4,11,1,2012,MAS,DIS,150,clima,la,l,0.534,,,,,,,,,,,,,,,,,,,,
,,,,,,010063256c19267ccc7ba307,66a626ef09d4e21e1a8894ec,67373fb6f09efe182c4096c0,2024-11-15_13h50.46.121,Tarea de género gramatical,2024.2.2,Win32,74.62686567,,,,,,,,,,,,,,,,,,,,,,25.868,26.8707,a,1,[],[],[],[],[],[],[],0.3335,1,26.8707,27.3643,0,5,5,2,1,2003,FEM,DIS,150,daga,el,a,0.3335,,,,,,,,,,,,,,,,,,,,
,,,,,,010063256c19267ccc7ba307,66a626ef09d4e21e1a8894ec,67373fb6f09efe182c4096c0,2024-11-15_13h50.46.121,Tarea de género gramatical,2024.2.2,Win32,74.62686567,,,,,,,,,,,,,,,,,,,,,,27.3648,28.4182,l,1,[],[],[],[],[],[],[],0.3873,1,28.4183,28.9113,0,6,6,9,1,2010,MAS,AGR,150,vecino,el,l,0.3873,,,,,,,,,,,,,,,,,,,,
,,,,,,010063256c19267ccc7ba307,66a626ef09d4e21e1a8894ec,67373fb6f09efe182c4096c0,2024-11-15_13h50.46.121,Tarea de género gramatical,2024.2.2,Win32,74.62686567,,,,,,,,,,,,,,,,,,,,,,28.912,29.952,a,1,[],[],[],[],[],[],[],0.374,1,29.9521,30.4454,0,7,7,0,1,2001,FEM,AGR,150,nuca,la,a,0.374,,,,,,,,,,,,,,,,,,,,
,,,,,,010063256c19267ccc7ba307,66a626ef09d4e21e1a8894ec,67373fb6f09efe182c4096c0,2024-11-15_13h50.46.121,Tarea de género gramatical,2024.2.2,Win32,74.62686567,,,,,,,,,,,,,,,,,,,,,,30.446,31.4593,a,1,[],[],[],[],[],[],[],0.3472,1,31.4593,31.9526,0,8,8,3,1,2004,FEM,AGR,150,venta,la,a,0.3472,,,,,,,,,,,,,,,,,,,,
,,,,,,010063256c19267ccc7ba307,66a626ef09d4e21e1a8894ec,67373fb6f09efe182c4096c0,2024-11-15_13h50.46.121,Tarea de género gramatical,2024.2.2,Win32,74.62686567,,,,,,,,,,,,,,,,,,,,,,31.9531,33.3,a,1,[],[],[],[],[],[],[],0.6807,1,33.3,33.7901,0,9,9,4,1,2005,FEM,CON,150,placa,,a,0.6807,,,,,,,,,,,,,,,,,,,,
,,,,,,010063256c19267ccc7ba307,66a626ef09d4e21e1a8894ec,67373fb6f09efe182c4096c0,2024-11-15_13h50.46.121,Tarea de género gramatical,2024.2.2,Win32,74.62686567,,,,,,,,,,,,,,,,,,,,,,33.7907,34.927,a,1,[],[],[],[],[],[],[],0.467,1,34.927,35.4205,0,10,10,7,1,2008,FEM,CON,150,siesta,,a,0.467,,,,,,,,,,,,,,,,,,,,
,,,,,,010063256c19267ccc7ba307,66a626ef09d4e21e1a8894ec,67373fb6f09efe182c4096c0,2024-11-15_13h50.46.121,Tarea de género gramatical,2024.2.2,Win32,74.62686567,,,,,,,,,,,,,,,,,,,,,,35.4211,36.5945,l,1,[],[],[],[],[],[],[],0.5074,1,36.5945,37.0877,0,11,11,10,1,2011,MAS,CON,150,canal,,l,0.5074,,,,,,,,,,,,,,,,,,,,
,,,,,,010063256c19267ccc7ba307,66a626ef09d4e21e1a8894ec,67373fb6f09efe182c4096c0,2024-11-15_13h50.46.121,Tarea de género gramatical,2024.2.2,Win32,74.62686567,,,,,,,,,,,,,,,,,,,,,,37.0882,38.435,a,0,[],[],[],[],[],[],[],0.6804,0,38.4357,38.9283,0,12,12,13,1,2014,MAS,CON,150,siglo,,l,0.6804,,,,,,,,,,,,,,,,,,,,
,,,,,,010063256c19267ccc7ba307,66a626ef09d4e21e1a8894ec,67373fb6f09efe182c4096c0,2024-11-15_13h50.46.121,Tarea de género gramatical,2024.2.2,Win32,74.62686567,,,,,,,,,,,,,,,,,,,,,,38.9288,40.1556,a,0,[],[],[],[],[],[],[],0.5604,0,40.1557,40.6491,0,13,13,12,1,2013,MAS,AGR,150,acero,el,l,0.5604,,,,,,,,,,,,,,,,,,,,
,,,,,,010063256c19267ccc7ba307,66a626ef09d4e21e1a8894ec,67373fb6f09efe182c4096c0,2024-11-15_13h50.46.121,Tarea de género gramatical,2024.2.2,Win32,74.62686567,,,,,,,,,,,,,,,,,,,,,,40.6497,41.9163,l,1,[],[],[],[],[],[],[],0.6005,1,41.9168,42.4067,0,14,14,8,1,2009,MAS,DIS,150,puerto,la,l,0.6005,,,,,,,,,,,,,,,,,,,,
,,,,,,010063256c19267ccc7ba307,66a626ef09d4e21e1a8894ec,67373fb6f09efe182c4096c0,2024-11-15_13h50.46.121,Tarea de género gramatical,2024.2.2,Win32,74.62686567,,,43.5718,44.154,space,0.887962963,0.021296296,0,0,0,,,,,,,,,,,,44.1795,45.1678,a,1,[],[],[],[],[],[],[],0.3273,1,45.1678,45.6612,,,,,,278,FEM,CON,150,presa,,a,0.3273,,0.5661,,45.6613,45.6632,0.887962963,0.021296296,0,0,0,,0,0,0,277,1,,,,
,,,,,,010063256c19267ccc7ba307,66a626ef09d4e21e1a8894ec,67373fb6f09efe182c4096c0,2024-11-15_13h50.46.121,Tarea de género gramatical,2024.2.2,Win32,74.62686567,,,,,,,,,,,,,,,,,,,,,,45.6639,46.7817,a,1,[],[],[],[],[],[],[],0.4547,1,46.7817,47.2751,,,,,,429,FEM,DIS,150,fianza,el,a,0.4547,,,,47.2753,47.2753,0.887962963,0.021296296,0,0,0,,0,1,1,428,1,,,,
,,,,,,010063256c19267ccc7ba307,66a626ef09d4e21e1a8894ec,67373fb6f09efe182c4096c0,2024-11-15_13h50.46.121,Tarea de género gramatical,2024.2.2,Win32,74.62686567,,,,,,,,,,,,,,,,,,,,,,47.276,48.5823,l,1,[],[],[],[],[],[],[],0.6488,1,48.5824,49.076,,,,,,160,MAS,AGR,150,señor,el,l,0.6488,,,,49.0767,49.0772,0.887962963,0.021296296,0,0,0,,0,2,2,159,1,,,,
,,,,,,010063256c19267ccc7ba307,66a626ef09d4e21e1a8894ec,67373fb6f09efe182c4096c0,2024-11-15_13h50.46.121,Tarea de género gramatical,2024.2.2,Win32,74.62686567,,,,,,,,,,,,,,,,,,,,,,49.0779,50.263,l,1,[],[],[],[],[],[],[],0.5293,1,50.2631,50.7566,,,,,,420,MAS,DIS,150,helado,la,l,0.5293,,,,50.7566,50.7567,0.887962963,0.021296296,0,0,0,,0,3,3,419,1,,,,
,,,,,,010063256c19267ccc7ba307,66a626ef09d4e21e1a8894ec,67373fb6f09efe182c4096c0,2024-11-15_13h50.46.121,Tarea de género gramatical,2024.2.2,Win32,74.62686567,,,,,,,,,,,,,,,,,,,,,,50.7572,51.7436,a,1,[],[],[],[],[],[],[],0.3201,1,51.7436,52.237,,,,,,151,FEM,AGR,150,noche,la,a,0.3201,,,,52.2371,52.2371,0.887962963,0.021296296,0,0,0,,0,4,4,150,1,,,,
,,,,,,010063256c19267ccc7ba307,66a626ef09d4e21e1a8894ec,67373fb6f09efe182c4096c0,2024-11-15_13h50.46.121,Tarea de género gramatical,2024.2.2,Win32,74.62686567,,,,,,,,,,,,,,,,,,,,,,52.2376,53.2507,l,1,[],[],[],[],[],[],[],0.352,1,53.2507,53.7442,,,,,,366,MAS,DIS,150,riesgo,la,l,0.352,,,,53.7443,53.7443,0.887962963,0.021296296,0,0,0,,0,5,5,365,1,,,,
,,,,,,010063256c19267ccc7ba307,66a626ef09d4e21e1a8894ec,67373fb6f09efe182c4096c0,2024-11-15_13h50.46.121,Tarea de género gramatical,2024.2.2,Win32,74.62686567,,,,,,,,,,,,,,,,,,,,,,53.745,54.8646,l,1,[],[],[],[],[],[],[],0.46,1,54.8647,55.3581,,,,,,432,MAS,DIS,150,océano,la,l,0.46,,,,55.3589,55.3595,0.887962963,0.021296296,0,0,0,,0,6,6,431,1,,,,
,,,,,,010063256c19267ccc7ba307,66a626ef09d4e21e1a8894ec,67373fb6f09efe182c4096c0,2024-11-15_13h50.46.121,Tarea de género gramatical,2024.2.2,Win32,74.62686567,,,,,,,,,,,,,,,,,,,,,,55.3599,56.3586,a,1,[],[],[],[],[],[],[],0.3347,1,56.3587,56.8521,,,,,,440,FEM,CON,150,patada,,a,0.3347,,,,56.8521,56.8522,0.887962963,0.021296296,0,0,0,,0,7,7,439,1,,,,
,,,,,,010063256c19267ccc7ba307,66a626ef09d4e21e1a8894ec,67373fb6f09efe182c4096c0,2024-11-15_13h50.46.121,Tarea de género gramatical,2024.2.2,Win32,74.62686567,,,,,,,,,,,,,,,,,,,,,,56.8526,58.1058,l,1,[],[],[],[],[],[],[],0.5864,1,58.1059,58.5995,,,,,,353,MAS,CON,150,verano,,l,0.5864,,,,58.5995,58.5995,0.887962963,0.021296296,0,0,0,,0,8,8,352,1,,,,
,,,,,,010063256c19267ccc7ba307,66a626ef09d4e21e1a8894ec,67373fb6f09efe182c4096c0,2024-11-15_13h50.46.121,Tarea de género gramatical,2024.2.2,Win32,74.62686567,,,,,,,,,,,,,,,,,,,,,,58.6001,59.7866,l,1,[],[],[],[],[],[],[],0.5251,1,59.7868,60.2802,,,,,,360,MAS,DIS,150,puente,la,l,0.5251,,,,60.2802,60.2803,0.887962963,0.021296296,0,0,0,,0,9,9,359,1,,,,
,,,,,,010063256c19267ccc7ba307,66a626ef09d4e21e1a8894ec,67373fb6f09efe182c4096c0,2024-11-15_13h50.46.121,Tarea de género gramatical,2024.2.2,Win32,74.62686567,,,,,,,,,,,,,,,,,,,,,,60.281,61.2936,a,1,[],[],[],[],[],[],[],0.3561,1,61.2936,61.7874,,,,,,157,FEM,AGR,150,madre,la,a,0.3561,,,,61.7874,61.7874,0.887962963,0.021296296,0,0,0,,0,10,10,156,1,,,,
,,,,,,010063256c19267ccc7ba307,66a626ef09d4e21e1a8894ec,67373fb6f09efe182c4096c0,2024-11-15_13h50.46.121,Tarea de género gramatical,2024.2.2,Win32,74.62686567,,,,,,,,,,,,,,,,,,,,,,61.7881,63.2811,a,1,[],[],[],[],[],[],[],0.8335,1,63.2811,63.7745,,,,,,145,FEM,AGR,150,bota,la,a,0.8335,,,,63.7752,63.7758,0.887962963,0.021296296,0,0,0,,0,11,11,144,1,,,,
,,,,,,010063256c19267ccc7ba307,66a626ef09d4e21e1a8894ec,67373fb6f09efe182c4096c0,2024-11-15_13h50.46.121,Tarea de género gramatical,2024.2.2,Win32,74.62686567,,,,,,,,,,,,,,,,,,,,,,63.7764,64.9218,a,1,[],[],[],[],[],[],[],0.4811,1,64.9218,65.4154,,,,,,133,FEM,AGR,150,joya,la,a,0.4811,,,,65.4154,65.4155,0.887962963,0.021296296,0,0,0,,0,12,12,132,1,,,,
,,,,,,010063256c19267ccc7ba307,66a626ef09d4e21e1a8894ec,67373fb6f09efe182c4096c0,2024-11-15_13h50.46.121,Tarea de género gramatical,2024.2.2,Win32,74.62686567,,,,,,,,,,,,,,,,,,,,,,65.4162,66.5222,a,1,[],[],[],[],[],[],[],0.445,1,66.5223,67.0159,,,,,,361,FEM,AGR,150,oferta,la,a,0.445,,,,67.016,67.016,0.887962963,0.021296296,0,0,0,,0,13,13,360,1,,,,
,,,,,,010063256c19267ccc7ba307,66a626ef09d4e21e1a8894ec,67373fb6f09efe182c4096c0,2024-11-15_13h50.46.121,Tarea de género gramatical,2024.2.2,Win32,74.62686567,,,,,,,,,,,,,,,,,,,,,,67.0166,68.0561,l,1,[],[],[],[],[],[],[],0.3812,1,68.0561,68.5498,,,,,,268,MAS,AGR,150,truco,el,l,0.3812,,,,68.5498,68.5498,0.887962963,0.021296296,0,0,0,,0,14,14,267,1,,,,
,,,,,,010063256c19267ccc7ba307,66a626ef09d4e21e1a8894ec,67373fb6f09efe182c4096c0,2024-11-15_13h50.46.121,Tarea de género gramatical,2024.2.2,Win32,74.62686567,,,,,,,,,,,,,,,,,,,,,,68.5505,69.6168,a,1,[],[],[],[],[],[],[],0.4066,1,69.6169,70.1105,,,,,,284,FEM,CON,150,fruta,,a,0.4066,,,,70.1113,70.1119,0.887962963,0.021296296,0,0,0,,0,15,15,283,1,,,,
,,,,,,010063256c19267ccc7ba307,66a626ef09d4e21e1a8894ec,67373fb6f09efe182c4096c0,2024-11-15_13h50.46.121,Tarea de género gramatical,2024.2.2,Win32,74.62686567,,,,,,,,,,,,,,,,,,,,,,70.1125,71.4307,l,1,[],[],[],[],[],[],[],0.654,1,71.4307,71.9246,,,,,,365,MAS,CON,150,código,,l,0.654,,,,71.9246,71.9246,0.887962963,0.021296296,0,0,0,,0,16,16,364,1,,,,
,,,,,,010063256c19267ccc7ba307,66a626ef09d4e21e1a8894ec,67373fb6f09efe182c4096c0,2024-11-15_13h50.46.121,Tarea de género gramatical,2024.2.2,Win32,74.62686567,,,,,,,,,,,,,,,,,,,,,,71.9253,73.0983,l,1,[],[],[],[],[],[],[],0.5071,1,73.0984,73.5916,,,,,,256,MAS,AGR,150,techo,el,l,0.5071,,,,73.5917,73.5917,0.887962963,0.021296296,0,0,0,,0,17,17,255,1,,,,
,,,,,,010063256c19267ccc7ba307,66a626ef09d4e21e1a8894ec,67373fb6f09efe182c4096c0,2024-11-15_13h50.46.121,Tarea de género gramatical,2024.2.2,Win32,74.62686567,,,,,,,,,,,,,,,,,,,,,,73.5923,74.7923,l,1,[],[],[],[],[],[],[],0.5337,1,74.7923,75.2854,,,,,,220,MAS,AGR,150,huevo,el,l,0.5337,,,,75.2854,75.2855,0.887962963,0.021296296,0,0,0,,0,18,18,219,1,,,,
,,,,,,010063256c19267ccc7ba307,66a626ef09d4e21e1a8894ec,67373fb6f09efe182c4096c0,2024-11-15_13h50.46.121,Tarea de género gramatical,2024.2.2,Win32,74.62686567,,,,,,,,,,,,,,,,,,,,,,75.286,76.3524,a,1,[],[],[],[],[],[],[],0.4064,1,76.3526,76.8461,,,,,,416,FEM,CON,150,colina,,a,0.4064,,,,76.8461,76.8461,0.887962963,0.021296296,0,0,0,,0,19,19,415,1,,,,
,,,,,,010063256c19267ccc7ba307,66a626ef09d4e21e1a8894ec,67373fb6f09efe182c4096c0,2024-11-15_13h50.46.121,Tarea de género gramatical,2024.2.2,Win32,74.62686567,,,,,,,,,,,,,,,,,,,,,,76.8467,77.9664,a,1,[],[],[],[],[],[],[],0.4537,1,77.9665,78.46,,,,,,283,FEM,AGR,150,pluma,la,a,0.4537,,,,78.4608,78.4613,0.887962963,0.021296296,0,0,0,,0,20,20,282,1,,,,
,,,,,,010063256c19267ccc7ba307,66a626ef09d4e21e1a8894ec,67373fb6f09efe182c4096c0,2024-11-15_13h50.46.121,Tarea de género gramatical,2024.2.2,Win32,74.62686567,,,,,,,,,,,,,,,,,,,,,,78.4617,79.6604,a,1,[],[],[],[],[],[],[],0.5359,1,79.6604,80.154,,,,,,61,FEM,AGR,150,ruta,la,a,0.5359,,,,80.154,80.154,0.887962963,0.021296296,0,0,0,,0,21,21,60,1,,,,
,,,,,,010063256c19267ccc7ba307,66a626ef09d4e21e1a8894ec,67373fb6f09efe182c4096c0,2024-11-15_13h50.46.121,Tarea de género gramatical,2024.2.2,Win32,74.62686567,,,,,,,,,,,,,,,,,,,,,,80.1546,81.301,a,1,[],[],[],[],[],[],[],0.4827,1,81.3011,81.7948,,,,,,410,FEM,CON,150,piedad,,a,0.4827,,,,81.7949,81.7949,0.887962963,0.021296296,0,0,0,,0,22,22,409,1,,,,
,,,,,,010063256c19267ccc7ba307,66a626ef09d4e21e1a8894ec,67373fb6f09efe182c4096c0,2024-11-15_13h50.46.121,Tarea de género gramatical,2024.2.2,Win32,74.62686567,,,,,,,,,,,,,,,,,,,,,,81.7957,82.8483,a,1,[],[],[],[],[],[],[],0.3873,1,82.8483,83.3417,,,,,,50,FEM,CON,150,dama,,a,0.3873,,,,83.3418,83.3419,0.887962963,0.021296296,0,0,0,,0,23,23,49,1,,,,
,,,,,,010063256c19267ccc7ba307,66a626ef09d4e21e1a8894ec,67373fb6f09efe182c4096c0,2024-11-15_13h50.46.121,Tarea de género gramatical,2024.2.2,Win32,74.62686567,,,,,,,,,,,,,,,,,,,,,,83.3425,84.5021,a,1,[],[],[],[],[],[],[],0.5024,1,84.5022,84.9957,,,,,,33,FEM,DIS,150,boda,el,a,0.5024,,,,84.9965,84.9971,0.887962963,0.021296296,0,0,0,,0,24,24,32,1,,,,
,,,,,,010063256c19267ccc7ba307,66a626ef09d4e21e1a8894ec,67373fb6f09efe182c4096c0,2024-11-15_13h50.46.121,Tarea de género gramatical,2024.2.2,Win32,74.62686567,,,,,,,,,,,,,,,,,,,,,,84.9974,86.0898,a,1,[],[],[],[],[],[],[],0.427,1,86.0898,86.5833,,,,,,297,FEM,DIS,150,manta,el,a,0.427,,,,86.5833,86.5833,0.887962963,0.021296296,0,0,0,,0,25,25,296,1,,,,
,,,,,,010063256c19267ccc7ba307,66a626ef09d4e21e1a8894ec,67373fb6f09efe182c4096c0,2024-11-15_13h50.46.121,Tarea de género gramatical,2024.2.2,Win32,74.62686567,,,,,,,,,,,,,,,,,,,,,,86.584,87.6101,a,1,[],[],[],[],[],[],[],0.3652,1,87.6101,88.1037,,,,,,439,FEM,AGR,150,toalla,la,a,0.3652,,,,88.1037,88.1038,0.887962963,0.021296296,0,0,0,,0,26,26,438,1,,,,
,,,,,,010063256c19267ccc7ba307,66a626ef09d4e21e1a8894ec,67373fb6f09efe182c4096c0,2024-11-15_13h50.46.121,Tarea de género gramatical,2024.2.2,Win32,74.62686567,,,,,,,,,,,,,,,,,,,,,,88.1045,89.2506,l,1,[],[],[],[],[],[],[],0.4847,1,89.2507,89.7444,,,,,,70,MAS,AGR,150,palo,el,l,0.4847,,,,89.7445,89.7445,0.887962963,0.021296296,0,0,0,,0,27,27,69,1,,,,
,,,,,,010063256c19267ccc7ba307,66a626ef09d4e21e1a8894ec,67373fb6f09efe182c4096c0,2024-11-15_13h50.46.121,Tarea de género gramatical,2024.2.2,Win32,74.62686567,,,,,,,,,,,,,,,,,,,,,,89.7452,90.8913,l,1,[],[],[],[],[],[],[],0.4847,1,90.8913,91.385,,,,,,90,MAS,DIS,150,león,la,l,0.4847,,,,91.3851,91.3851,0.887962963,0.021296296,0,0,0,,0,28,28,89,1,,,,
,,,,,,010063256c19267ccc7ba307,66a626ef09d4e21e1a8894ec,67373fb6f09efe182c4096c0,2024-11-15_13h50.46.121,Tarea de género gramatical,2024.2.2,Win32,74.62686567,,,,,,,,,,,,,,,,,,,,,,91.3857,92.5184,a,1,[],[],[],[],[],[],[],0.4671,1,92.5185,93.0122,,,,,,224,FEM,CON,150,arena,,a,0.4671,,,,93.0131,93.0137,0.887962963,0.021296296,0,0,0,,0,29,29,223,1,,,,
,,,,,,010063256c19267ccc7ba307,66a626ef09d4e21e1a8894ec,67373fb6f09efe182c4096c0,2024-11-15_13h50.46.121,Tarea de género gramatical,2024.2.2,Win32,74.62686567,,,,,,,,,,,,,,,,,,,,,,93.0141,94.1058,l,1,[],[],[],[],[],[],[],0.433,1,94.1058,94.5991,,,,,,402,MAS,DIS,150,ladrón,la,l,0.433,,,,94.5992,94.5992,0.887962963,0.021296296,0,0,0,,0,30,30,401,1,,,,
,,,,,,010063256c19267ccc7ba307,66a626ef09d4e21e1a8894ec,67373fb6f09efe182c4096c0,2024-11-15_13h50.46.121,Tarea de género gramatical,2024.2.2,Win32,74.62686567,,,,,,,,,,,,,,,,,,,,,,94.5998,95.7997,a,1,[],[],[],[],[],[],[],0.5419,1,95.7997,96.2933,,,,,,255,FEM,DIS,150,tribu,el,a,0.5419,,,,96.2933,96.2934,0.887962963,0.021296296,0,0,0,,0,31,31,254,1,,,,
,,,,,,010063256c19267ccc7ba307,66a626ef09d4e21e1a8894ec,67373fb6f09efe182c4096c0,2024-11-15_13h50.46.121,Tarea de género gramatical,2024.2.2,Win32,74.62686567,,,,,,,,,,,,,,,,,,,,,,96.2939,97.427,l,1,[],[],[],[],[],[],[],0.4722,1,97.4271,97.9204,,,,,,204,MAS,DIS,150,papel,la,l,0.4722,,,,97.9205,97.9205,0.887962963,0.021296296,0,0,0,,0,32,32,203,1,,,,
,,,,,,010063256c19267ccc7ba307,66a626ef09d4e21e1a8894ec,67373fb6f09efe182c4096c0,2024-11-15_13h50.46.121,Tarea de género gramatical,2024.2.2,Win32,74.62686567,,,,,,,,,,,,,,,,,,,,,,97.921,98.9608,a,1,[],[],[],[],[],[],[],0.3795,1,98.9609,99.4546,,,,,,319,FEM,AGR,150,sangre,la,a,0.3795,,,,99.4554,99.4561,0.887962963,0.021296296,0,0,0,,0,33,33,318,1,,,,
,,,,,,010063256c19267ccc7ba307,66a626ef09d4e21e1a8894ec,67373fb6f09efe182c4096c0,2024-11-15_13h50.46.121,Tarea de género gramatical,2024.2.2,Win32,74.62686567,,,,,,,,,,,,,,,,,,,,,,99.4564,100.4948,l,1,[],[],[],[],[],[],[],0.3819,1,100.4948,100.9885,,,,,,240,MAS,DIS,150,ruido,la,l,0.3819,,,,100.9885,100.9885,0.887962963,0.021296296,0,0,0,,0,34,34,239,1,,,,
,,,,,,010063256c19267ccc7ba307,66a626ef09d4e21e1a8894ec,67373fb6f09efe182c4096c0,2024-11-15_13h50.46.121,Tarea de género gramatical,2024.2.2,Win32,74.62686567,,,,,,,,,,,,,,,,,,,,,,100.9892,102.202,l,1,[],[],[],[],[],[],[],0.548,1,102.2021,102.6957,,,,,,155,MAS,CON,150,mundo,,l,0.548,,,,102.6957,102.6957,0.887962963,0.021296296,0,0,0,,0,35,35,154,1,,,,
,,,,,,010063256c19267ccc7ba307,66a626ef09d4e21e1a8894ec,67373fb6f09efe182c4096c0,2024-11-15_13h50.46.121,Tarea de género gramatical,2024.2.2,Win32,74.62686567,,,,,,,,,,,,,,,,,,,,,,102.6963,103.8028,a,1,[],[],[],[],[],[],[],0.4444,1,103.8028,104.2961,,,,,,67,FEM,AGR,150,miel,la,a,0.4444,,,,104.2962,104.2962,0.887962963,0.021296296,0,0,0,,0,36,36,66,1,,,,
,,,,,,010063256c19267ccc7ba307,66a626ef09d4e21e1a8894ec,67373fb6f09efe182c4096c0,2024-11-15_13h50.46.121,Tarea de género gramatical,2024.2.2,Win32,74.62686567,,,,,,,,,,,,,,,,,,,,,,104.2967,105.4566,l,0,[],[],[],[],[],[],[],0.4999,0,105.457,105.9502,,,,,,212,FEM,CON,150,cinta,,a,0.4999,,,,105.9502,105.9502,0.887962963,0.021296296,0,0,0,,0,37,37,211,1,,,,
,,,,,,010063256c19267ccc7ba307,66a626ef09d4e21e1a8894ec,67373fb6f09efe182c4096c0,2024-11-15_13h50.46.121,Tarea de género gramatical,2024.2.2,Win32,74.62686567,,,,,,,,,,,,,,,,,,,,,,105.9508,107.2839,a,1,[],[],[],[],[],[],[],0.6701,1,107.2844,107.7777,,,,,,8,FEM,CON,150,idea,,a,0.6701,,,,107.7785,107.7791,0.887962963,0.021296296,0,0,0,,0,38,38,7,1,,,,
,,,,,,010063256c19267ccc7ba307,66a626ef09d4e21e1a8894ec,67373fb6f09efe182c4096c0,2024-11-15_13h50.46.121,Tarea de género gramatical,2024.2.2,Win32,74.62686567,,,,,,,,,,,,,,,,,,,,,,107.7795,108.7912,a,1,[],[],[],[],[],[],[],0.3559,1,108.7912,109.285,,,,,,326,FEM,CON,150,música,,a,0.3559,,,,109.285,109.285,0.887962963,0.021296296,0,0,0,,0,39,39,325,1,,,,
,,,,,,010063256c19267ccc7ba307,66a626ef09d4e21e1a8894ec,67373fb6f09efe182c4096c0,2024-11-15_13h50.46.121,Tarea de género gramatical,2024.2.2,Win32,74.62686567,,,,,,,,,,,,,,,,,,,,,,109.2856,110.405,a,1,[],[],[],[],[],[],[],0.4553,1,110.4051,110.8986,,,,,,139,FEM,AGR,150,pipa,la,a,0.4553,,,,110.8987,110.8987,0.887962963,0.021296296,0,0,0,,0,40,40,138,1,,,,
,,,,,,010063256c19267ccc7ba307,66a626ef09d4e21e1a8894ec,67373fb6f09efe182c4096c0,2024-11-15_13h50.46.121,Tarea de género gramatical,2024.2.2,Win32,74.62686567,,,,,,,,,,,,,,,,,,,,,,110.8993,111.9389,l,1,[],[],[],[],[],[],[],0.3779,1,111.939,112.4325,,,,,,156,MAS,DIS,150,amigo,la,l,0.3779,,,,112.4325,112.4325,0.887962963,0.021296296,0,0,0,,0,41,41,155,1,,,,
,,,,,,010063256c19267ccc7ba307,66a626ef09d4e21e1a8894ec,67373fb6f09efe182c4096c0,2024-11-15_13h50.46.121,Tarea de género gramatical,2024.2.2,Win32,74.62686567,,,,,,,,,,,,,,,,,,,,,,112.4329,113.6864,l,1,[],[],[],[],[],[],[],0.5881,1,113.6864,114.18,,,,,,348,MAS,DIS,150,anillo,la,l,0.5881,,,,114.1806,114.1813,0.887962963,0.021296296,0,0,0,,0,42,42,347,1,,,,
,,,,,,010063256c19267ccc7ba307,66a626ef09d4e21e1a8894ec,67373fb6f09efe182c4096c0,2024-11-15_13h50.46.121,Tarea de género gramatical,2024.2.2,Win32,74.62686567,,,,,,,,,,,,,,,,,,,,,,114.1816,115.4604,l,1,[],[],[],[],[],[],[],0.6164,1,115.4604,115.9538,,,,,,53,MAS,CON,150,vaso,,l,0.6164,,,,115.9538,115.9539,0.887962963,0.021296296,0,0,0,,0,43,43,52,1,,,,
,,,,,,010063256c19267ccc7ba307,66a626ef09d4e21e1a8894ec,67373fb6f09efe182c4096c0,2024-11-15_13h50.46.121,Tarea de género gramatical,2024.2.2,Win32,74.62686567,,,,,,,,,,,,,,,,,,,,,,115.9543,117.0875,a,1,[],[],[],[],[],[],[],0.474,1,117.0875,117.581,,,,,,308,FEM,CON,150,semana,,a,0.474,,,,117.581,117.581,0.887962963,0.021296296,0,0,0,,0,44,44,307,1,,,,
,,,,,,010063256c19267ccc7ba307,66a626ef09d4e21e1a8894ec,67373fb6f09efe182c4096c0,2024-11-15_13h50.46.121,Tarea de género gramatical,2024.2.2,Win32,74.62686567,,,,,,,,,,,,,,,,,,,,,,117.5815,118.688,a,1,[],[],[],[],[],[],[],0.447,1,118.6881,119.1819,,,,,,333,FEM,DIS,150,locura,el,a,0.447,,,,119.182,119.182,0.887962963,0.021296296,0,0,0,,0,45,45,332,1,,,,
,,,,,,010063256c19267ccc7ba307,66a626ef09d4e21e1a8894ec,67373fb6f09efe182c4096c0,2024-11-15_13h50.46.121,Tarea de género gramatical,2024.2.2,Win32,74.62686567,,,,,,,,,,,,,,,,,,,,,,119.1826,120.5287,l,1,[],[],[],[],[],[],[],0.6877,1,120.5288,121.0224,,,,,,329,MAS,CON,150,futuro,,l,0.6877,,,,121.0224,121.0225,0.887962963,0.021296296,0,0,0,,0,46,46,328,1,,,,
,,,,,,010063256c19267ccc7ba307,66a626ef09d4e21e1a8894ec,67373fb6f09efe182c4096c0,2024-11-15_13h50.46.121,Tarea de género gramatical,2024.2.2,Win32,74.62686567,,,,,,,,,,,,,,,,,,,,,,121.0231,122.0226,a,1,[],[],[],[],[],[],[],0.3419,1,122.0226,122.5162,,,,,,272,FEM,CON,150,oreja,,a,0.3419,,,,122.5169,122.5175,0.887962963,0.021296296,0,0,0,,0,47,47,271,1,,,,
,,,,,,010063256c19267ccc7ba307,66a626ef09d4e21e1a8894ec,67373fb6f09efe182c4096c0,2024-11-15_13h50.46.121,Tarea de género gramatical,2024.2.2,Win32,74.62686567,,,,,,,,,,,,,,,,,,,,,,122.5177,123.6899,l,1,[],[],[],[],[],[],[],0.5121,1,123.6899,124.1835,,,,,,372,MAS,DIS,150,delito,la,l,0.5121,,,,124.1835,124.1836,0.887962963,0.021296296,0,0,0,,0,48,48,371,1,,,,
,,,,,,010063256c19267ccc7ba307,66a626ef09d4e21e1a8894ec,67373fb6f09efe182c4096c0,2024-11-15_13h50.46.121,Tarea de género gramatical,2024.2.2,Win32,74.62686567,,,,,,,,,,,,,,,,,,,,,,124.1841,125.3308,l,1,[],[],[],[],[],[],[],0.4844,1,125.3309,125.824,,,,,,125,MAS,CON,150,bate,,l,0.4844,,,,125.824,125.824,0.887962963,0.021296296,0,0,0,,0,49,49,124,1,,,,
,,,,,,010063256c19267ccc7ba307,66a626ef09d4e21e1a8894ec,67373fb6f09efe182c4096c0,2024-11-15_13h50.46.121,Tarea de género gramatical,2024.2.2,Win32,74.62686567,,,,,,,,,,,,,,,,,,,,,,125.8245,127.1045,a,0,[],[],[],[],[],[],[],0.6136,0,127.105,127.5983,,,,,,10,MAS,AGR,150,niño,el,l,0.6136,,,,127.5984,127.5984,0.887962963,0.021296296,0,0,0,,0,50,50,9,1,,,,
,,,,,,010063256c19267ccc7ba307,66a626ef09d4e21e1a8894ec,67373fb6f09efe182c4096c0,2024-11-15_13h50.46.121,Tarea de género gramatical,2024.2.2,Win32,74.62686567,,,,,,,,,,,,,,,,,,,,,,127.599,128.7453,a,1,[],[],[],[],[],[],[],0.4815,1,128.746,129.2387,,,,,,152,FEM,CON,150,gente,,a,0.4815,,,,129.2394,129.2399,0.887962963,0.021296296,0,0,0,,0,51,51,151,1,,,,
,,,,,,010063256c19267ccc7ba307,66a626ef09d4e21e1a8894ec,67373fb6f09efe182c4096c0,2024-11-15_13h50.46.121,Tarea de género gramatical,2024.2.2,Win32,74.62686567,,,,,,,,,,,,,,,,,,,,,,129.2402,130.4125,l,1,[],[],[],[],[],[],[],0.51,1,130.4125,130.9062,,,,,,215,MAS,CON,150,hueso,,l,0.51,,,,130.9062,130.9063,0.887962963,0.021296296,0,0,0,,0,52,52,214,1,,,,
,,,,,,010063256c19267ccc7ba307,66a626ef09d4e21e1a8894ec,67373fb6f09efe182c4096c0,2024-11-15_13h50.46.121,Tarea de género gramatical,2024.2.2,Win32,74.62686567,,,,,,,,,,,,,,,,,,,,,,130.9069,131.9329,a,1,[],[],[],[],[],[],[],0.3628,1,131.9329,132.4265,,,,,,253,FEM,AGR,150,aldea,la,a,0.3628,,,,132.4266,132.4266,0.887962963,0.021296296,0,0,0,,0,53,53,252,1,,,,
,,,,,,010063256c19267ccc7ba307,66a626ef09d4e21e1a8894ec,67373fb6f09efe182c4096c0,2024-11-15_13h50.46.121,Tarea de género gramatical,2024.2.2,Win32,74.62686567,,,,,,,,,,,,,,,,,,,,,,132.4271,133.6003,l,1,[],[],[],[],[],[],[],0.514,1,133.6004,134.0938,,,,,,6,MAS,DIS,150,lado,la,l,0.514,,,,134.0938,134.0939,0.887962963,0.021296296,0,0,0,,0,54,54,5,1,,,,
,,,,,,010063256c19267ccc7ba307,66a626ef09d4e21e1a8894ec,67373fb6f09efe182c4096c0,2024-11-15_13h50.46.121,Tarea de género gramatical,2024.2.2,Win32,74.62686567,,,,,,,,,,,,,,,,,,,,,,134.0945,135.3744,a,0,[],[],[],[],[],[],[],0.6228,0,135.3749,135.8678,,,,,,96,MAS,DIS,150,pato,la,l,0.6228,,,,135.8678,135.8679,0.887962963,0.021296296,0,0,0,,0,55,55,95,1,,,,
,,,,,,010063256c19267ccc7ba307,66a626ef09d4e21e1a8894ec,67373fb6f09efe182c4096c0,2024-11-15_13h50.46.121,Tarea de género gramatical,2024.2.2,Win32,74.62686567,,,,,,,,,,,,,,,,,,,,,,135.8684,136.9215,a,1,[],[],[],[],[],[],[],0.393,1,136.9219,137.4152,,,,,,327,FEM,DIS,150,tienda,el,a,0.393,,,,137.4159,137.4164,0.887962963,0.021296296,0,0,0,,0,56,56,326,1,,,,
,,,,,,010063256c19267ccc7ba307,66a626ef09d4e21e1a8894ec,67373fb6f09efe182c4096c0,2024-11-15_13h50.46.121,Tarea de género gramatical,2024.2.2,Win32,74.62686567,,,,,,,,,,,,,,,,,,,,,,137.4167,138.4687,a,1,[],[],[],[],[],[],[],0.3888,1,138.4688,138.9622,,,,,,128,FEM,CON,150,leña,,a,0.3888,,,,138.9622,138.9622,0.887962963,0.021296296,0,0,0,,0,57,57,127,1,,,,
,,,,,,010063256c19267ccc7ba307,66a626ef09d4e21e1a8894ec,67373fb6f09efe182c4096c0,2024-11-15_13h50.46.121,Tarea de género gramatical,2024.2.2,Win32,74.62686567,,,,,,,,,,,,,,,,,,,,,,138.9628,140.0292,a,1,[],[],[],[],[],[],[],0.4016,1,140.0293,140.5229,,,,,,109,FEM,AGR,150,gota,la,a,0.4016,,,,140.5229,140.5229,0.887962963,0.021296296,0,0,0,,0,58,58,108,1,,,,
,,,,,,010063256c19267ccc7ba307,66a626ef09d4e21e1a8894ec,67373fb6f09efe182c4096c0,2024-11-15_13h50.46.121,Tarea de género gramatical,2024.2.2,Win32,74.62686567,,,,,,,,,,,,,,,,,,,,,,140.5234,141.6699,l,1,[],[],[],[],[],[],[],0.482,1,141.67,142.1633,,,,,,77,MAS,CON,150,pico,,l,0.482,,,,142.1633,142.1633,0.887962963,0.021296296,0,0,0,,0,59,59,76,1,,,,
,,,,,,010063256c19267ccc7ba307,66a626ef09d4e21e1a8894ec,67373fb6f09efe182c4096c0,2024-11-15_13h50.46.121,Tarea de género gramatical,2024.2.2,Win32,74.62686567,,,,,,,,,,,,,,,,,,,,,,142.1639,143.6706,l,1,[],[],[],[],[],[],[],0.8414,1,143.6707,144.1644,,,,,,144,MAS,DIS,150,amor,la,l,0.8414,,,,144.165,144.1658,0.887962963,0.021296296,0,0,0,,0,60,60,143,1,,,,
,,,,,,010063256c19267ccc7ba307,66a626ef09d4e21e1a8894ec,67373fb6f09efe182c4096c0,2024-11-15_13h50.46.121,Tarea de género gramatical,2024.2.2,Win32,74.62686567,,,,,,,,,,,,,,,,,,,,,,144.1662,145.6712,a,1,[],[],[],[],[],[],[],0.8475,1,145.6713,146.1647,,,,,,409,FEM,AGR,150,moneda,la,a,0.8475,,,,146.1648,146.1648,0.887962963,0.021296296,0,0,0,,0,61,61,408,1,,,,
,,,,,,010063256c19267ccc7ba307,66a626ef09d4e21e1a8894ec,67373fb6f09efe182c4096c0,2024-11-15_13h50.46.121,Tarea de género gramatical,2024.2.2,Win32,74.62686567,,,,,,,,,,,,,,,,,,,,,,146.1653,147.4054,a,1,[],[],[],[],[],[],[],0.5749,1,147.4054,147.8991,,,,,,181,FEM,AGR,150,tarde,la,a,0.5749,,,,147.8991,147.8992,0.887962963,0.021296296,0,0,0,,0,62,62,180,1,,,,
,,,,,,010063256c19267ccc7ba307,66a626ef09d4e21e1a8894ec,67373fb6f09efe182c4096c0,2024-11-15_13h50.46.121,Tarea de género gramatical,2024.2.2,Win32,74.62686567,,,,,,,,,,,,,,,,,,,,,,147.8998,149.5127,l,1,[],[],[],[],[],[],[],0.9473,1,149.5128,150.0064,,,,,,54,MAS,DIS,150,humo,la,l,0.9473,,,,150.0064,150.0065,0.887962963,0.021296296,0,0,0,,0,63,63,53,1,,,,
,,,,,,010063256c19267ccc7ba307,66a626ef09d4e21e1a8894ec,67373fb6f09efe182c4096c0,2024-11-15_13h50.46.121,Tarea de género gramatical,2024.2.2,Win32,74.62686567,,,,,,,,,,,,,,,,,,,,,,150.0071,151.0467,a,1,[],[],[],[],[],[],[],0.3828,1,151.0468,151.54,,,,,,163,FEM,AGR,150,calle,la,a,0.3828,,,,151.5401,151.5401,0.887962963,0.021296296,0,0,0,,0,64,64,162,1,,,,
,,,,,,010063256c19267ccc7ba307,66a626ef09d4e21e1a8894ec,67373fb6f09efe182c4096c0,2024-11-15_13h50.46.121,Tarea de género gramatical,2024.2.2,Win32,74.62686567,,,,,,,,,,,,,,,,,,,,,,151.5406,152.5942,a,1,[],[],[],[],[],[],[],0.3874,1,152.5942,153.0877,,,,,,44,FEM,CON,150,zona,,a,0.3874,,,,153.0884,153.089,0.887962963,0.021296296,0,0,0,,0,65,65,43,1,,,,
,,,,,,010063256c19267ccc7ba307,66a626ef09d4e21e1a8894ec,67373fb6f09efe182c4096c0,2024-11-15_13h50.46.121,Tarea de género gramatical,2024.2.2,Win32,74.62686567,,,,,,,,,,,,,,,,,,,,,,153.0893,154.2212,l,1,[],[],[],[],[],[],[],0.4695,1,154.2212,154.7148,,,,,,305,MAS,CON,150,hombre,,l,0.4695,,,,154.7148,154.7149,0.887962963,0.021296296,0,0,0,,0,66,66,304,1,,,,
,,,,,,010063256c19267ccc7ba307,66a626ef09d4e21e1a8894ec,67373fb6f09efe182c4096c0,2024-11-15_13h50.46.121,Tarea de género gramatical,2024.2.2,Win32,74.62686567,,,,,,,,,,,,,,,,,,,,,,154.7155,155.7017,a,1,[],[],[],[],[],[],[],0.3293,1,155.7017,156.1953,,,,,,104,FEM,CON,150,vela,,a,0.3293,,,,156.1953,156.1954,0.887962963,0.021296296,0,0,0,,0,67,67,103,1,,,,
,,,,,,010063256c19267ccc7ba307,66a626ef09d4e21e1a8894ec,67373fb6f09efe182c4096c0,2024-11-15_13h50.46.121,Tarea de género gramatical,2024.2.2,Win32,74.62686567,,,,,,,,,,,,,,,,,,,,,,156.196,157.329,l,1,[],[],[],[],[],[],[],0.4736,1,157.329,157.8227,,,,,,126,MAS,DIS,150,lazo,la,l,0.4736,,,,157.8227,157.8228,0.887962963,0.021296296,0,0,0,,0,68,68,125,1,,,,
,,,,,,010063256c19267ccc7ba307,66a626ef09d4e21e1a8894ec,67373fb6f09efe182c4096c0,2024-11-15_13h50.46.121,Tarea de género gramatical,2024.2.2,Win32,74.62686567,,,,,,,,,,,,,,,,,,,,,,157.8234,158.9695,l,1,[],[],[],[],[],[],[],0.4854,1,158.9695,159.4631,,,,,,425,MAS,CON,150,chiste,,l,0.4854,,,,159.464,159.4646,0.887962963,0.021296296,0,0,0,,0,69,69,424,1,,,,
,,,,,,010063256c19267ccc7ba307,66a626ef09d4e21e1a8894ec,67373fb6f09efe182c4096c0,2024-11-15_13h50.46.121,Tarea de género gramatical,2024.2.2,Win32,74.62686567,,,,,,,,,,,,,,,,,,,,,,159.465,160.5035,a,1,[],[],[],[],[],[],[],0.3805,1,160.5035,160.997,,,,,,379,FEM,AGR,150,granja,la,a,0.3805,,,,160.9971,160.9971,0.887962963,0.021296296,0,0,0,,0,70,70,378,1,,,,
,,,,,,010063256c19267ccc7ba307,66a626ef09d4e21e1a8894ec,67373fb6f09efe182c4096c0,2024-11-15_13h50.46.121,Tarea de género gramatical,2024.2.2,Win32,74.62686567,,,,,,,,,,,,,,,,,,,,,,160.9978,162.0639,a,0,[],[],[],[],[],[],[],0.4071,0,162.0643,162.5574,,,,,,412,MAS,AGR,150,espejo,el,l,0.4071,,,,162.5575,162.5575,0.887962963,0.021296296,0,0,0,,0,71,71,411,1,,,,
,,,,,,010063256c19267ccc7ba307,66a626ef09d4e21e1a8894ec,67373fb6f09efe182c4096c0,2024-11-15_13h50.46.121,Tarea de género gramatical,2024.2.2,Win32,74.62686567,,,,,,,,,,,,,,,,,,,,,,162.5582,163.6513,a,1,[],[],[],[],[],[],[],0.4303,1,163.6517,164.1449,,,,,,387,FEM,DIS,150,página,el,a,0.4303,,,,164.145,164.1451,0.887962963,0.021296296,0,0,0,,0,72,72,386,1,,,,
,,,,,,010063256c19267ccc7ba307,66a626ef09d4e21e1a8894ec,67373fb6f09efe182c4096c0,2024-11-15_13h50.46.121,Tarea de género gramatical,2024.2.2,Win32,74.62686567,,,,,,,,,,,,,,,,,,,,,,164.1456,165.2254,a,1,[],[],[],[],[],[],[],0.4132,1,165.2255,165.719,,,,,,368,FEM,CON,150,gracia,,a,0.4132,,,,165.719,165.7191,0.887962963,0.021296296,0,0,0,,0,73,73,367,1,,,,
,,,,,,010063256c19267ccc7ba307,66a626ef09d4e21e1a8894ec,67373fb6f09efe182c4096c0,2024-11-15_13h50.46.121,Tarea de género gramatical,2024.2.2,Win32,74.62686567,,,,,,,,,,,,,,,,,,,,,,165.7196,166.7861,a,1,[],[],[],[],[],[],[],0.4012,1,166.7861,167.2795,,,,,,153,FEM,DIS,150,mujer,el,a,0.4012,,,,167.2802,167.2808,0.887962963,0.021296296,0,0,0,,0,74,74,152,1,,,,
,,,,,,010063256c19267ccc7ba307,66a626ef09d4e21e1a8894ec,67373fb6f09efe182c4096c0,2024-11-15_13h50.46.121,Tarea de género gramatical,2024.2.2,Win32,74.62686567,,,,,,,,,,,,,,,,,,,,,,167.2812,168.5063,a,1,[],[],[],[],[],[],[],0.5667,1,168.5063,168.9998,,,,,,315,FEM,DIS,150,manera,el,a,0.5667,,,,168.9998,168.9999,0.887962963,0.021296296,0,0,0,,0,75,75,314,1,,,,
,,,,,,010063256c19267ccc7ba307,66a626ef09d4e21e1a8894ec,67373fb6f09efe182c4096c0,2024-11-15_13h50.46.121,Tarea de género gramatical,2024.2.2,Win32,74.62686567,,,,,,,,,,,,,,,,,,,,,,169.0005,170.2537,l,0,[],[],[],[],[],[],[],0.5945,0,170.2541,170.7471,,,,,,177,FEM,DIS,150,broma,el,a,0.5945,,,,170.7472,170.7472,0.887962963,0.021296296,0,0,0,,0,76,76,176,1,,,,
,,,,,,010063256c19267ccc7ba307,66a626ef09d4e21e1a8894ec,67373fb6f09efe182c4096c0,2024-11-15_13h50.46.121,Tarea de género gramatical,2024.2.2,Win32,74.62686567,,,,,,,,,,,,,,,,,,,,,,170.7478,171.8146,a,0,[],[],[],[],[],[],[],0.4065,0,171.8146,172.3077,,,,,,137,MAS,CON,150,coco,,l,0.4065,,,,172.3077,172.3077,0.887962963,0.021296296,0,0,0,,0,77,77,136,1,,,,
,,,,,,010063256c19267ccc7ba307,66a626ef09d4e21e1a8894ec,67373fb6f09efe182c4096c0,2024-11-15_13h50.46.121,Tarea de género gramatical,2024.2.2,Win32,74.62686567,,,,,,,,,,,,,,,,,,,,,,172.3083,173.4017,a,1,[],[],[],[],[],[],[],0.4273,1,173.4023,173.895,,,,,,43,FEM,AGR,150,nena,la,a,0.4273,,,,173.8956,173.8961,0.887962963,0.021296296,0,0,0,,0,78,78,42,1,,,,
,,,,,,010063256c19267ccc7ba307,66a626ef09d4e21e1a8894ec,67373fb6f09efe182c4096c0,2024-11-15_13h50.46.121,Tarea de género gramatical,2024.2.2,Win32,74.62686567,,,,,,,,,,,,,,,,,,,,,,173.8965,174.9887,a,1,[],[],[],[],[],[],[],0.4262,1,174.9888,175.4823,,,,,,417,FEM,DIS,150,cabaña,el,a,0.4262,,,,175.4823,175.4824,0.887962963,0.021296296,0,0,0,,0,79,79,416,1,,,,
,,,,,,010063256c19267ccc7ba307,66a626ef09d4e21e1a8894ec,67373fb6f09efe182c4096c0,2024-11-15_13h50.46.121,Tarea de género gramatical,2024.2.2,Win32,74.62686567,,,,,,,,,,,,,,,,,,,,,,175.4828,176.523,l,1,[],[],[],[],[],[],[],0.3785,1,176.5231,177.0161,,,,,,358,MAS,AGR,150,motivo,el,l,0.3785,,,,177.0162,177.0162,0.887962963,0.021296296,0,0,0,,0,80,80,357,1,,,,
,,,,,,010063256c19267ccc7ba307,66a626ef09d4e21e1a8894ec,67373fb6f09efe182c4096c0,2024-11-15_13h50.46.121,Tarea de género gramatical,2024.2.2,Win32,74.62686567,,,,,,,,,,,,,,,,,,,,,,177.0167,178.0698,a,1,[],[],[],[],[],[],[],0.3879,1,178.0698,178.5636,,,,,,381,FEM,DIS,150,bebida,el,a,0.3879,,,,178.5637,178.5637,0.887962963,0.021296296,0,0,0,,0,81,81,380,1,,,,
,,,,,,010063256c19267ccc7ba307,66a626ef09d4e21e1a8894ec,67373fb6f09efe182c4096c0,2024-11-15_13h50.46.121,Tarea de género gramatical,2024.2.2,Win32,74.62686567,,,,,,,,,,,,,,,,,,,,,,178.5642,179.577,a,1,[],[],[],[],[],[],[],0.353,1,179.577,180.0707,,,,,,267,FEM,DIS,150,barba,el,a,0.353,,,,180.0707,180.0707,0.887962963,0.021296296,0,0,0,,0,82,82,266,1,,,,
,,,,,,010063256c19267ccc7ba307,66a626ef09d4e21e1a8894ec,67373fb6f09efe182c4096c0,2024-11-15_13h50.46.121,Tarea de género gramatical,2024.2.2,Win32,74.62686567,,,,,,,,,,,,,,,,,,,,,,180.0713,181.1243,a,1,[],[],[],[],[],[],[],0.3906,1,181.1243,181.6181,,,,,,441,FEM,DIS,150,medida,el,a,0.3906,,,,181.6188,181.6194,0.887962963,0.021296296,0,0,0,,0,83,83,440,1,,,,
,,,,,,010063256c19267ccc7ba307,66a626ef09d4e21e1a8894ec,67373fb6f09efe182c4096c0,2024-11-15_13h50.46.121,Tarea de género gramatical,2024.2.2,Win32,74.62686567,,,,,,,,,,,,,,,,,,,,,,181.6197,182.8582,l,1,[],[],[],[],[],[],[],0.5783,1,182.8583,183.3519,,,,,,102,MAS,DIS,150,coro,la,l,0.5783,,,,183.3519,183.3519,0.887962963,0.021296296,0,0,0,,0,84,84,101,1,,,,
,,,,,,010063256c19267ccc7ba307,66a626ef09d4e21e1a8894ec,67373fb6f09efe182c4096c0,2024-11-15_13h50.46.121,Tarea de género gramatical,2024.2.2,Win32,74.62686567,,,,,,,,,,,,,,,,,,,,,,183.3524,184.4054,a,1,[],[],[],[],[],[],[],0.3966,1,184.4054,184.8993,,,,,,147,FEM,DIS,150,grúa,el,a,0.3966,,,,184.8993,184.8994,0.887962963,0.021296296,0,0,0,,0,85,85,146,1,,,,
,,,,,,010063256c19267ccc7ba307,66a626ef09d4e21e1a8894ec,67373fb6f09efe182c4096c0,2024-11-15_13h50.46.121,Tarea de género gramatical,2024.2.2,Win32,74.62686567,,,,,,,,,,,,,,,,,,,,,,184.8999,185.9663,a,1,[],[],[],[],[],[],[],0.4106,1,185.9663,186.4594,,,,,,74,FEM,CON,150,flor,,a,0.4106,,,,186.4595,186.4595,0.887962963,0.021296296,0,0,0,,0,86,86,73,1,,,,
,,,,,,010063256c19267ccc7ba307,66a626ef09d4e21e1a8894ec,67373fb6f09efe182c4096c0,2024-11-15_13h50.46.121,Tarea de género gramatical,2024.2.2,Win32,74.62686567,,,,,,,,,,,,,,,,,,,,,,186.46,187.5269,a,1,[],[],[],[],[],[],[],0.4015,1,187.527,188.0205,,,,,,27,FEM,DIS,150,mesa,el,a,0.4015,,,,188.0211,188.0217,0.887962963,0.021296296,0,0,0,,0,87,87,26,1,,,,
,,,,,,010063256c19267ccc7ba307,66a626ef09d4e21e1a8894ec,67373fb6f09efe182c4096c0,2024-11-15_13h50.46.121,Tarea de género gramatical,2024.2.2,Win32,74.62686567,,,,,,,,,,,,,,,,,,,,,,188.0221,189.0341,a,1,[],[],[],[],[],[],[],0.3464,1,189.0342,189.5274,,,,,,45,FEM,DIS,150,isla,el,a,0.3464,,,,189.5274,189.5274,0.887962963,0.021296296,0,0,0,,0,88,88,44,1,,,,
,,,,,,010063256c19267ccc7ba307,66a626ef09d4e21e1a8894ec,67373fb6f09efe182c4096c0,2024-11-15_13h50.46.121,Tarea de género gramatical,2024.2.2,Win32,74.62686567,,,,,,,,,,,,,,,,,,,,,,189.5279,190.6477,l,1,[],[],[],[],[],[],[],0.4535,1,190.6478,191.1414,,,,,,228,MAS,DIS,150,nivel,la,l,0.4535,,,,191.1414,191.1414,0.887962963,0.021296296,0,0,0,,0,89,89,227,1,,,,
,,,,,,010063256c19267ccc7ba307,66a626ef09d4e21e1a8894ec,67373fb6f09efe182c4096c0,2024-11-15_13h50.46.121,Tarea de género gramatical,2024.2.2,Win32,74.62686567,,,,,,,,,,,,,,,,,,,,,,191.1419,192.2883,l,1,[],[],[],[],[],[],[],0.4803,1,192.2883,192.7818,,,,,,210,MAS,DIS,150,baile,la,l,0.4803,,,,192.7819,192.7819,0.887962963,0.021296296,0,0,0,,0,90,90,209,1,,,,
,,,,,,010063256c19267ccc7ba307,66a626ef09d4e21e1a8894ec,67373fb6f09efe182c4096c0,2024-11-15_13h50.46.121,Tarea de género gramatical,2024.2.2,Win32,74.62686567,,,,,,,,,,,,,,,,,,,,,,192.7824,194.2224,l,1,[],[],[],[],[],[],[],0.7823,1,194.2224,194.7161,,,,,,288,MAS,DIS,150,grado,la,l,0.7823,,,,194.7161,194.7161,0.887962963,0.021296296,0,0,0,,0,91,91,287,1,,,,
,,,,,,010063256c19267ccc7ba307,66a626ef09d4e21e1a8894ec,67373fb6f09efe182c4096c0,2024-11-15_13h50.46.121,Tarea de género gramatical,2024.2.2,Win32,74.62686567,,,,,,,,,,,,,,,,,,,,,,194.7168,195.9567,a,1,[],[],[],[],[],[],[],0.576,1,195.9568,196.4502,,,,,,135,FEM,DIS,150,raíz,el,a,0.576,,,,196.451,196.4515,0.887962963,0.021296296,0,0,0,,0,92,92,134,1,,,,
,,,,,,010063256c19267ccc7ba307,66a626ef09d4e21e1a8894ec,67373fb6f09efe182c4096c0,2024-11-15_13h50.46.121,Tarea de género gramatical,2024.2.2,Win32,74.62686567,,,,,,,,,,,,,,,,,,,,,,196.4519,197.8107,l,1,[],[],[],[],[],[],[],0.6934,1,197.8107,198.304,,,,,,293,MAS,CON,150,patio,,l,0.6934,,,,198.304,198.304,0.887962963,0.021296296,0,0,0,,0,93,93,292,1,,,,
,,,,,,010063256c19267ccc7ba307,66a626ef09d4e21e1a8894ec,67373fb6f09efe182c4096c0,2024-11-15_13h50.46.121,Tarea de género gramatical,2024.2.2,Win32,74.62686567,,,,,,,,,,,,,,,,,,,,,,198.3046,199.3443,a,1,[],[],[],[],[],[],[],0.3803,1,199.3443,199.8382,,,,,,37,FEM,AGR,150,sala,la,a,0.3803,,,,199.8382,199.8382,0.887962963,0.021296296,0,0,0,,0,94,94,36,1,,,,
,,,,,,010063256c19267ccc7ba307,66a626ef09d4e21e1a8894ec,67373fb6f09efe182c4096c0,2024-11-15_13h50.46.121,Tarea de género gramatical,2024.2.2,Win32,74.62686567,,,,,,,,,,,,,,,,,,,,,,199.8389,200.9182,l,1,[],[],[],[],[],[],[],0.422,1,200.9182,201.4116,,,,,,22,MAS,AGR,150,pelo,el,l,0.422,,,,201.4117,201.4117,0.887962963,0.021296296,0,0,0,,0,95,95,21,1,,,,
,,,,,,010063256c19267ccc7ba307,66a626ef09d4e21e1a8894ec,67373fb6f09efe182c4096c0,2024-11-15_13h50.46.121,Tarea de género gramatical,2024.2.2,Win32,74.62686567,,,,,,,,,,,,,,,,,,,,,,201.4122,202.5855,l,1,[],[],[],[],[],[],[],0.5069,1,202.5855,203.0793,,,,,,65,MAS,CON,150,rayo,,l,0.5069,,,,203.08,203.0811,0.887962963,0.021296296,0,0,0,,0,96,96,64,1,,,,
,,,,,,010063256c19267ccc7ba307,66a626ef09d4e21e1a8894ec,67373fb6f09efe182c4096c0,2024-11-15_13h50.46.121,Tarea de género gramatical,2024.2.2,Win32,74.62686567,,,,,,,,,,,,,,,,,,,,,,203.0817,204.0663,a,1,[],[],[],[],[],[],[],0.3204,1,204.0664,204.5596,,,,,,295,FEM,AGR,150,grasa,la,a,0.3204,,,,204.5596,204.5597,0.887962963,0.021296296,0,0,0,,0,97,97,294,1,,,,
,,,,,,010063256c19267ccc7ba307,66a626ef09d4e21e1a8894ec,67373fb6f09efe182c4096c0,2024-11-15_13h50.46.121,Tarea de género gramatical,2024.2.2,Win32,74.62686567,,,,,,,,,,,,,,,,,,,,,,204.5601,205.6,a,1,[],[],[],[],[],[],[],0.3736,1,205.6,206.0934,,,,,,266,FEM,CON,150,jaula,,a,0.3736,,,,206.0934,206.0935,0.887962963,0.021296296,0,0,0,,0,98,98,265,1,,,,
,,,,,,010063256c19267ccc7ba307,66a626ef09d4e21e1a8894ec,67373fb6f09efe182c4096c0,2024-11-15_13h50.46.121,Tarea de género gramatical,2024.2.2,Win32,74.62686567,,,,,,,,,,,,,,,,,,,,,,206.094,207.3611,l,1,[],[],[],[],[],[],[],0.6067,1,207.3611,207.8542,,,,,,388,MAS,AGR,150,empleo,el,l,0.6067,,,,207.8542,207.8542,0.887962963,0.021296296,0,0,0,,0,99,99,387,1,,,,
,,,,,,010063256c19267ccc7ba307,66a626ef09d4e21e1a8894ec,67373fb6f09efe182c4096c0,2024-11-15_13h50.46.121,Tarea de género gramatical,2024.2.2,Win32,74.62686567,,,,,,,,,,,,,,,,,,,,,,207.8548,209.0412,l,1,[],[],[],[],[],[],[],0.5265,1,209.0412,209.5348,,,,,,342,MAS,DIS,150,abuelo,la,l,0.5265,,,,209.5348,209.5348,0.887962963,0.021296296,0,0,0,,0,100,100,341,1,,,,
,,,,,,010063256c19267ccc7ba307,66a626ef09d4e21e1a8894ec,67373fb6f09efe182c4096c0,2024-11-15_13h50.46.121,Tarea de género gramatical,2024.2.2,Win32,74.62686567,,,,,,,,,,,,,,,,,,,,,,209.5355,210.6021,a,1,[],[],[],[],[],[],[],0.4002,1,210.6021,211.0955,,,,,,325,FEM,AGR,150,tierra,la,a,0.4002,,,,211.0962,211.0969,0.887962963,0.021296296,0,0,0,,0,101,101,324,1,,,,
,,,,,,010063256c19267ccc7ba307,66a626ef09d4e21e1a8894ec,67373fb6f09efe182c4096c0,2024-11-15_13h50.46.121,Tarea de género gramatical,2024.2.2,Win32,74.62686567,,,,,,,,,,,,,,,,,,,,,,211.0972,212.0957,a,1,[],[],[],[],[],[],[],0.3332,1,212.0958,212.5895,,,,,,391,FEM,AGR,150,altura,la,a,0.3332,,,,212.5895,212.5895,0.887962963,0.021296296,0,0,0,,0,102,102,390,1,,,,
,,,,,,010063256c19267ccc7ba307,66a626ef09d4e21e1a8894ec,67373fb6f09efe182c4096c0,2024-11-15_13h50.46.121,Tarea de género gramatical,2024.2.2,Win32,74.62686567,,,,,,,,,,,,,,,,,,,,,,212.5901,213.6162,a,1,[],[],[],[],[],[],[],0.3666,1,213.6163,214.1098,,,,,,435,FEM,DIS,150,niebla,el,a,0.3666,,,,214.1098,214.11,0.887962963,0.021296296,0,0,0,,0,103,103,434,1,,,,
,,,,,,010063256c19267ccc7ba307,66a626ef09d4e21e1a8894ec,67373fb6f09efe182c4096c0,2024-11-15_13h50.46.121,Tarea de género gramatical,2024.2.2,Win32,74.62686567,,,,,,,,,,,,,,,,,,,,,,214.1106,215.0567,a,1,[],[],[],[],[],[],[],0.2815,1,215.0568,215.5504,,,,,,3,FEM,DIS,150,cosa,el,a,0.2815,,,,215.5504,215.5504,0.887962963,0.021296296,0,0,0,,0,104,104,2,1,,,,
,,,,,,010063256c19267ccc7ba307,66a626ef09d4e21e1a8894ec,67373fb6f09efe182c4096c0,2024-11-15_13h50.46.121,Tarea de género gramatical,2024.2.2,Win32,74.62686567,,,,,,,,,,,,,,,,,,,,,,215.551,216.5373,a,1,[],[],[],[],[],[],[],0.3251,1,216.5373,217.0309,,,,,,32,FEM,CON,150,caja,,a,0.3251,,,,217.0317,217.0322,0.887962963,0.021296296,0,0,0,,0,105,105,31,1,,,,
,,,,,,010063256c19267ccc7ba307,66a626ef09d4e21e1a8894ec,67373fb6f09efe182c4096c0,2024-11-15_13h50.46.121,Tarea de género gramatical,2024.2.2,Win32,74.62686567,,,,,,,,,,,,,,,,,,,,,,217.0325,218.0982,l,1,[],[],[],[],[],[],[],0.3999,1,218.0983,218.5917,,,,,,395,MAS,CON,150,correo,,l,0.3999,,,,218.5917,218.5918,0.887962963,0.021296296,0,0,0,,0,106,106,394,1,,,,
,,,,,,010063256c19267ccc7ba307,66a626ef09d4e21e1a8894ec,67373fb6f09efe182c4096c0,2024-11-15_13h50.46.121,Tarea de género gramatical,2024.2.2,Win32,74.62686567,,,,,,,,,,,,,,,,,,,,,,218.5923,219.6055,a,1,[],[],[],[],[],[],[],0.3499,1,219.6055,220.0986,,,,,,399,FEM,DIS,150,charla,el,a,0.3499,,,,220.0987,220.0987,0.887962963,0.021296296,0,0,0,,0,107,107,398,1,,,,
,,,,,,010063256c19267ccc7ba307,66a626ef09d4e21e1a8894ec,67373fb6f09efe182c4096c0,2024-11-15_13h50.46.121,Tarea de género gramatical,2024.2.2,Win32,74.62686567,,,,,,,,,,,,,,,,,,,,,,220.0993,221.1259,a,1,[],[],[],[],[],[],[],0.3611,1,221.126,221.6194,,,,,,403,FEM,AGR,150,paliza,la,a,0.3611,,,,221.6194,221.6194,0.887962963,0.021296296,0,0,0,,0,108,108,402,1,,,,
,,,,,,010063256c19267ccc7ba307,66a626ef09d4e21e1a8894ec,67373fb6f09efe182c4096c0,2024-11-15_13h50.46.121,Tarea de género gramatical,2024.2.2,Win32,74.62686567,,,,,,,,,,,,,,,,,,,,,,221.6201,222.7662,a,1,[],[],[],[],[],[],[],0.4802,1,222.7663,223.2601,,,,,,171,FEM,DIS,150,mitad,el,a,0.4802,,,,223.2601,223.2601,0.887962963,0.021296296,0,0,0,,0,109,109,170,1,,,,
,,,,,,010063256c19267ccc7ba307,66a626ef09d4e21e1a8894ec,67373fb6f09efe182c4096c0,2024-11-15_13h50.46.121,Tarea de género gramatical,2024.2.2,Win32,74.62686567,,,,,,,,,,,,,,,,,,,,,,223.2608,224.3272,l,1,[],[],[],[],[],[],[],0.3998,1,224.3272,224.8207,,,,,,346,MAS,AGR,150,juicio,el,l,0.3998,,,,224.8213,224.822,0.887962963,0.021296296,0,0,0,,0,110,110,345,1,,,,
,,,,,,010063256c19267ccc7ba307,66a626ef09d4e21e1a8894ec,67373fb6f09efe182c4096c0,2024-11-15_13h50.46.121,Tarea de género gramatical,2024.2.2,Win32,74.62686567,,,,,,,,,,,,,,,,,,,,,,224.8224,225.9545,l,0,[],[],[],[],[],[],[],0.4721,0,225.955,226.4479,,,,,,369,FEM,DIS,150,camisa,el,a,0.4721,,,,226.4479,226.448,0.887962963,0.021296296,0,0,0,,0,111,111,368,1,,,,
,,,,,,010063256c19267ccc7ba307,66a626ef09d4e21e1a8894ec,67373fb6f09efe182c4096c0,2024-11-15_13h50.46.121,Tarea de género gramatical,2024.2.2,Win32,74.62686567,,,,,,,,,,,,,,,,,,,,,,226.4486,227.5685,l,1,[],[],[],[],[],[],[],0.4553,1,227.5689,228.0615,,,,,,196,MAS,AGR,150,barco,el,l,0.4553,,,,228.0615,228.0615,0.887962963,0.021296296,0,0,0,,0,112,112,195,1,,,,
,,,,,,010063256c19267ccc7ba307,66a626ef09d4e21e1a8894ec,67373fb6f09efe182c4096c0,2024-11-15_13h50.46.121,Tarea de género gramatical,2024.2.2,Win32,74.62686567,,,,,,,,,,,,,,,,,,,,,,228.0621,229.0888,l,1,[],[],[],[],[],[],[],0.3606,1,229.0889,229.5822,,,,,,4,MAS,AGR,150,hijo,el,l,0.3606,,,,229.5822,229.5822,0.887962963,0.021296296,0,0,0,,0,113,113,3,1,,,,
,,,,,,010063256c19267ccc7ba307,66a626ef09d4e21e1a8894ec,67373fb6f09efe182c4096c0,2024-11-15_13h50.46.121,Tarea de género gramatical,2024.2.2,Win32,74.62686567,,,,,,,,,,,,,,,,,,,,,,229.5827,230.7959,l,1,[],[],[],[],[],[],[],0.5505,1,230.796,231.2895,,,,,,48,MAS,DIS,150,loco,la,l,0.5505,,,,231.29,231.2906,0.887962963,0.021296296,0,0,0,,0,114,114,47,1,,,,
,,,,,,010063256c19267ccc7ba307,66a626ef09d4e21e1a8894ec,67373fb6f09efe182c4096c0,2024-11-15_13h50.46.121,Tarea de género gramatical,2024.2.2,Win32,74.62686567,,,,,,,,,,,,,,,,,,,,,,231.2909,232.3832,l,1,[],[],[],[],[],[],[],0.4355,1,232.3833,232.8766,,,,,,306,MAS,DIS,150,dinero,la,l,0.4355,,,,232.8767,232.8767,0.887962963,0.021296296,0,0,0,,0,115,115,305,1,,,,
,,,,,,010063256c19267ccc7ba307,66a626ef09d4e21e1a8894ec,67373fb6f09efe182c4096c0,2024-11-15_13h50.46.121,Tarea de género gramatical,2024.2.2,Win32,74.62686567,,,,,,,,,,,,,,,,,,,,,,232.8773,233.9972,l,1,[],[],[],[],[],[],[],0.4637,1,233.9972,234.4907,,,,,,347,MAS,CON,150,cuello,,l,0.4637,,,,234.4907,234.4908,0.887962963,0.021296296,0,0,0,,0,116,116,346,1,,,,
,,,,,,010063256c19267ccc7ba307,66a626ef09d4e21e1a8894ec,67373fb6f09efe182c4096c0,2024-11-15_13h50.46.121,Tarea de género gramatical,2024.2.2,Win32,74.62686567,,,,,,,,,,,,,,,,,,,,,,234.4914,235.6245,l,1,[],[],[],[],[],[],[],0.4739,1,235.6245,236.1181,,,,,,448,MAS,AGR,150,aceite,el,l,0.4739,,,,236.1181,236.1181,0.887962963,0.021296296,0,0,0,,0,117,117,447,1,,,,
,,,,,,010063256c19267ccc7ba307,66a626ef09d4e21e1a8894ec,67373fb6f09efe182c4096c0,2024-11-15_13h50.46.121,Tarea de género gramatical,2024.2.2,Win32,74.62686567,,,,,,,,,,,,,,,,,,,,,,236.1187,237.5453,a,0,[],[],[],[],[],[],[],0.7614,0,237.5459,238.0385,,,,,,282,MAS,DIS,150,bolso,la,l,0.7614,,,,238.0386,238.0386,0.887962963,0.021296296,0,0,0,,0,118,118,281,1,,,,
,,,,,,010063256c19267ccc7ba307,66a626ef09d4e21e1a8894ec,67373fb6f09efe182c4096c0,2024-11-15_13h50.46.121,Tarea de género gramatical,2024.2.2,Win32,74.62686567,,,,,,,,,,,,,,,,,,,,,,238.0391,239.4124,a,1,[],[],[],[],[],[],[],0.71,1,239.4128,239.9061,,,,,,141,FEM,DIS,150,cera,el,a,0.71,,,,239.9068,239.9073,0.887962963,0.021296296,0,0,0,,0,119,119,140,1,,,,
,,,,,,010063256c19267ccc7ba307,66a626ef09d4e21e1a8894ec,67373fb6f09efe182c4096c0,2024-11-15_13h50.46.121,Tarea de género gramatical,2024.2.2,Win32,74.62686567,,,,,,,,,,,,,,,,,,,,,,239.9076,241.1597,a,1,[],[],[],[],[],[],[],0.5957,1,241.1598,241.6535,,,,,,62,FEM,CON,150,sopa,,a,0.5957,,,,241.6536,241.6536,0.887962963,0.021296296,0,0,0,,0,120,120,61,1,,,,
,,,,,,010063256c19267ccc7ba307,66a626ef09d4e21e1a8894ec,67373fb6f09efe182c4096c0,2024-11-15_13h50.46.121,Tarea de género gramatical,2024.2.2,Win32,74.62686567,,,,,,,,,,,,,,,,,,,,,,241.6542,242.7604,a,1,[],[],[],[],[],[],[],0.4461,1,242.7604,243.2539,,,,,,296,FEM,CON,150,feria,,a,0.4461,,,,243.254,243.254,0.887962963,0.021296296,0,0,0,,0,121,121,295,1,,,,
,,,,,,010063256c19267ccc7ba307,66a626ef09d4e21e1a8894ec,67373fb6f09efe182c4096c0,2024-11-15_13h50.46.121,Tarea de género gramatical,2024.2.2,Win32,74.62686567,,,,,,,,,,,,,,,,,,,,,,243.2546,244.7346,l,1,[],[],[],[],[],[],[],0.8225,1,244.7346,245.2281,,,,,,281,MAS,CON,150,actor,,l,0.8225,,,,245.2281,245.2282,0.887962963,0.021296296,0,0,0,,0,122,122,280,1,,,,
,,,,,,010063256c19267ccc7ba307,66a626ef09d4e21e1a8894ec,67373fb6f09efe182c4096c0,2024-11-15_13h50.46.121,Tarea de género gramatical,2024.2.2,Win32,74.62686567,,,,,,,,,,,,,,,,,,,,,,245.2288,246.535,a,1,[],[],[],[],[],[],[],0.6406,1,246.5351,247.0287,,,,,,188,FEM,CON,150,bomba,,a,0.6406,,,,247.0294,247.0299,0.887962963,0.021296296,0,0,0,,0,123,123,187,1,,,,
,,,,,,010063256c19267ccc7ba307,66a626ef09d4e21e1a8894ec,67373fb6f09efe182c4096c0,2024-11-15_13h50.46.121,Tarea de género gramatical,2024.2.2,Win32,74.62686567,,,,,,,,,,,,,,,,,,,,,,247.0303,248.349,l,1,[],[],[],[],[],[],[],0.6548,1,248.3491,248.8428,,,,,,30,MAS,DIS,150,cine,la,l,0.6548,,,,248.8428,248.8429,0.887962963,0.021296296,0,0,0,,0,124,124,29,1,,,,
,,,,,,010063256c19267ccc7ba307,66a626ef09d4e21e1a8894ec,67373fb6f09efe182c4096c0,2024-11-15_13h50.46.121,Tarea de género gramatical,2024.2.2,Win32,74.62686567,,,,,,,,,,,,,,,,,,,,,,248.8435,250.1497,l,1,[],[],[],[],[],[],[],0.6409,1,250.1497,250.6434,,,,,,364,MAS,AGR,150,viento,el,l,0.6409,,,,250.6434,250.6435,0.887962963,0.021296296,0,0,0,,0,125,125,363,1,,,,
,,,,,,010063256c19267ccc7ba307,66a626ef09d4e21e1a8894ec,67373fb6f09efe182c4096c0,2024-11-15_13h50.46.121,Tarea de género gramatical,2024.2.2,Win32,74.62686567,,,,,,,,,,,,,,,,,,,,,,250.6441,252.0038,a,0,[],[],[],[],[],[],[],0.6977,0,252.0042,252.4973,,,,,,275,MAS,CON,150,disco,,l,0.6977,,,,252.4973,252.4973,0.887962963,0.021296296,0,0,0,,0,126,126,274,1,,,,
,,,,,,010063256c19267ccc7ba307,66a626ef09d4e21e1a8894ec,67373fb6f09efe182c4096c0,2024-11-15_13h50.46.121,Tarea de género gramatical,2024.2.2,Win32,74.62686567,,,,,,,,,,,,,,,,,,,,,,252.4978,253.5512,a,1,[],[],[],[],[],[],[],0.3879,1,253.5517,254.0444,,,,,,55,FEM,AGR,150,taza,la,a,0.3879,,,,254.0444,254.0445,0.887962963,0.021296296,0,0,0,,0,127,127,54,1,,,,
,,,,,,010063256c19267ccc7ba307,66a626ef09d4e21e1a8894ec,67373fb6f09efe182c4096c0,2024-11-15_13h50.46.121,Tarea de género gramatical,2024.2.2,Win32,74.62686567,,,,,,,,,,,,,,,,,,,,,,254.0451,255.2714,l,1,[],[],[],[],[],[],[],0.5604,1,255.2715,255.7652,,,,,,120,MAS,DIS,150,puño,la,l,0.5604,,,,255.7657,255.7662,0.887962963,0.021296296,0,0,0,,0,128,128,119,1,,,,
,,,,,,010063256c19267ccc7ba307,66a626ef09d4e21e1a8894ec,67373fb6f09efe182c4096c0,2024-11-15_13h50.46.121,Tarea de género gramatical,2024.2.2,Win32,74.62686567,,,,,,,,,,,,,,,,,,,,,,255.7666,256.9788,l,1,[],[],[],[],[],[],[],0.5507,1,256.9788,257.4723,,,,,,238,MAS,AGR,150,norte,el,l,0.5507,,,,257.4723,257.4724,0.887962963,0.021296296,0,0,0,,0,129,129,237,1,,,,
,,,,,,010063256c19267ccc7ba307,66a626ef09d4e21e1a8894ec,67373fb6f09efe182c4096c0,2024-11-15_13h50.46.121,Tarea de género gramatical,2024.2.2,Win32,74.62686567,,,,,,,,,,,,,,,,,,,,,,257.4729,258.5528,a,1,[],[],[],[],[],[],[],0.4136,1,258.5528,259.0466,,,,,,357,FEM,DIS,150,lengua,el,a,0.4136,,,,259.0466,259.0467,0.887962963,0.021296296,0,0,0,,0,130,130,356,1,,,,
,,,,,,010063256c19267ccc7ba307,66a626ef09d4e21e1a8894ec,67373fb6f09efe182c4096c0,2024-11-15_13h50.46.121,Tarea de género gramatical,2024.2.2,Win32,74.62686567,,,,,,,,,,,,,,,,,,,,,,259.0472,260.0867,a,1,[],[],[],[],[],[],[],0.374,1,260.0867,260.5801,,,,,,229,FEM,AGR,150,celda,la,a,0.374,,,,260.5801,260.5802,0.887962963,0.021296296,0,0,0,,0,131,131,228,1,,,,
,,,,,,010063256c19267ccc7ba307,66a626ef09d4e21e1a8894ec,67373fb6f09efe182c4096c0,2024-11-15_13h50.46.121,Tarea de género gramatical,2024.2.2,Win32,74.62686567,,,,,,,,,,,,,,,,,,,,,,260.5807,261.5672,l,1,[],[],[],[],[],[],[],0.3204,1,261.5673,262.0608,,,,,,304,MAS,AGR,150,tiempo,el,l,0.3204,,,,262.0614,262.062,0.887962963,0.021296296,0,0,0,,0,132,132,303,1,,,,
,,,,,,010063256c19267ccc7ba307,66a626ef09d4e21e1a8894ec,67373fb6f09efe182c4096c0,2024-11-15_13h50.46.121,Tarea de género gramatical,2024.2.2,Win32,74.62686567,,,,,,,,,,,,,,,,,,,,,,262.0623,263.7146,a,1,[],[],[],[],[],[],[],0.987,1,263.7147,264.2082,,,,,,321,FEM,DIS,150,comida,el,a,0.987,,,,264.2082,264.2083,0.887962963,0.021296296,0,0,0,,0,133,133,320,1,,,,
,,,,,,010063256c19267ccc7ba307,66a626ef09d4e21e1a8894ec,67373fb6f09efe182c4096c0,2024-11-15_13h50.46.121,Tarea de género gramatical,2024.2.2,Win32,74.62686567,,,,,,,,,,,,,,,,,,,,,,264.2088,265.5019,l,0,[],[],[],[],[],[],[],0.6279,0,265.5023,265.9956,,,,,,211,FEM,AGR,150,salud,la,a,0.6279,,,,265.9956,265.9957,0.887962963,0.021296296,0,0,0,,0,134,134,210,1,,,,
,,,,,,010063256c19267ccc7ba307,66a626ef09d4e21e1a8894ec,67373fb6f09efe182c4096c0,2024-11-15_13h50.46.121,Tarea de género gramatical,2024.2.2,Win32,74.62686567,,,,,,,,,,,,,,,,,,,,,,265.9962,267.2096,a,0,[],[],[],[],[],[],[],0.5521,0,267.2096,267.703,,,,,,430,MAS,AGR,150,título,el,l,0.5521,,,,267.703,267.7031,0.887962963,0.021296296,0,0,0,,0,135,135,429,1,,,,
,,,,,,010063256c19267ccc7ba307,66a626ef09d4e21e1a8894ec,67373fb6f09efe182c4096c0,2024-11-15_13h50.46.121,Tarea de género gramatical,2024.2.2,Win32,74.62686567,,,,,,,,,,,,,,,,,,,,,,267.7037,268.7968,a,1,[],[],[],[],[],[],[],0.4289,1,268.7973,269.2903,,,,,,20,FEM,CON,150,ropa,,a,0.4289,,,,269.2904,269.2904,0.887962963,0.021296296,0,0,0,,0,136,136,19,1,,,,
,,,,,,010063256c19267ccc7ba307,66a626ef09d4e21e1a8894ec,67373fb6f09efe182c4096c0,2024-11-15_13h50.46.121,Tarea de género gramatical,2024.2.2,Win32,74.62686567,,,,,,,,,,,,,,,,,,,,,,269.291,270.3571,a,1,[],[],[],[],[],[],[],0.4013,1,270.3571,270.8508,,,,,,158,FEM,CON,150,chica,,a,0.4013,,,,270.8515,270.8521,0.887962963,0.021296296,0,0,0,,0,137,137,157,1,,,,
,,,,,,010063256c19267ccc7ba307,66a626ef09d4e21e1a8894ec,67373fb6f09efe182c4096c0,2024-11-15_13h50.46.121,Tarea de género gramatical,2024.2.2,Win32,74.62686567,,,,,,,,,,,,,,,,,,,,,,270.8525,271.9577,a,1,[],[],[],[],[],[],[],0.4488,1,271.9578,272.4511,,,,,,57,FEM,DIS,150,moda,el,a,0.4488,,,,272.4512,272.4512,0.887962963,0.021296296,0,0,0,,0,138,138,56,1,,,,
,,,,,,010063256c19267ccc7ba307,66a626ef09d4e21e1a8894ec,67373fb6f09efe182c4096c0,2024-11-15_13h50.46.121,Tarea de género gramatical,2024.2.2,Win32,74.62686567,,,,,,,,,,,,,,,,,,,,,,272.4517,273.5182,l,1,[],[],[],[],[],[],[],0.4083,1,273.5184,274.012,,,,,,113,MAS,CON,150,toro,,l,0.4083,,,,274.0121,274.0121,0.887962963,0.021296296,0,0,0,,0,139,139,112,1,,,,
,,,,,,010063256c19267ccc7ba307,66a626ef09d4e21e1a8894ec,67373fb6f09efe182c4096c0,2024-11-15_13h50.46.121,Tarea de género gramatical,2024.2.2,Win32,74.62686567,,,,,,,,,,,,,,,,,,,,,,274.0128,275.3056,a,0,[],[],[],[],[],[],[],0.6333,0,275.3061,275.7992,,,,,,60,MAS,DIS,150,tono,la,l,0.6333,,,,275.7992,275.7992,0.887962963,0.021296296,0,0,0,,0,140,140,59,1,,,,
,,,,,,010063256c19267ccc7ba307,66a626ef09d4e21e1a8894ec,67373fb6f09efe182c4096c0,2024-11-15_13h50.46.121,Tarea de género gramatical,2024.2.2,Win32,74.62686567,,,,,,,,,,,,,,,,,,,,,,275.7997,277.2129,a,1,[],[],[],[],[],[],[],0.7501,1,277.2133,277.7068,,,,,,393,FEM,DIS,150,alarma,el,a,0.7501,,,,277.7075,277.7079,0.887962963,0.021296296,0,0,0,,0,141,141,392,1,,,,
,,,,,,010063256c19267ccc7ba307,66a626ef09d4e21e1a8894ec,67373fb6f09efe182c4096c0,2024-11-15_13h50.46.121,Tarea de género gramatical,2024.2.2,Win32,74.62686567,,,,,,,,,,,,,,,,,,,,,,277.7083,278.7602,a,1,[],[],[],[],[],[],[],0.393,1,278.7602,279.2538,,,,,,116,FEM,CON,150,nube,,a,0.393,,,,279.2539,279.2539,0.887962963,0.021296296,0,0,0,,0,142,142,115,1,,,,
,,,,,,010063256c19267ccc7ba307,66a626ef09d4e21e1a8894ec,67373fb6f09efe182c4096c0,2024-11-15_13h50.46.121,Tarea de género gramatical,2024.2.2,Win32,74.62686567,,,,,,,,,,,,,,,,,,,,,,279.2545,280.6811,a,1,[],[],[],[],[],[],[],0.7606,1,280.6812,281.1744,,,,,,213,FEM,DIS,150,magia,el,a,0.7606,,,,281.1744,281.1744,0.887962963,0.021296296,0,0,0,,0,143,143,212,1,,,,
,,,,,,010063256c19267ccc7ba307,66a626ef09d4e21e1a8894ec,67373fb6f09efe182c4096c0,2024-11-15_13h50.46.121,Tarea de género gramatical,2024.2.2,Win32,74.62686567,,,,,,,,,,,,,,,,,,,,,,281.175,282.2547,l,1,[],[],[],[],[],[],[],0.4138,1,282.2548,282.7487,,,,,,292,MAS,AGR,150,piano,el,l,0.4138,,,,282.7487,282.7487,0.887962963,0.021296296,0,0,0,,0,144,144,291,1,,,,
,,,,,,010063256c19267ccc7ba307,66a626ef09d4e21e1a8894ec,67373fb6f09efe182c4096c0,2024-11-15_13h50.46.121,Tarea de género gramatical,2024.2.2,Win32,74.62686567,,,,,,,,,,,,,,,,,,,,,,282.7493,284.269,l,1,[],[],[],[],[],[],[],0.8633,1,284.269,284.7625,,,,,,162,MAS,DIS,150,miedo,la,l,0.8633,,,,284.7625,284.7625,0.887962963,0.021296296,0,0,0,,0,145,145,161,1,,,,
,,,,,,010063256c19267ccc7ba307,66a626ef09d4e21e1a8894ec,67373fb6f09efe182c4096c0,2024-11-15_13h50.46.121,Tarea de género gramatical,2024.2.2,Win32,74.62686567,,,,,,,,,,,,,,,,,,,,,,284.7629,285.9098,l,1,[],[],[],[],[],[],[],0.4822,1,285.9098,286.4033,,,,,,335,MAS,CON,150,montón,,l,0.4822,,,,286.404,286.4045,0.887962963,0.021296296,0,0,0,,0,146,146,334,1,,,,
,,,,,,010063256c19267ccc7ba307,66a626ef09d4e21e1a8894ec,67373fb6f09efe182c4096c0,2024-11-15_13h50.46.121,Tarea de género gramatical,2024.2.2,Win32,74.62686567,,,,,,,,,,,,,,,,,,,,,,286.4049,287.6571,l,1,[],[],[],[],[],[],[],0.5873,1,287.6571,288.1503,,,,,,334,MAS,AGR,150,ataque,el,l,0.5873,,,,288.1504,288.1504,0.887962963,0.021296296,0,0,0,,0,147,147,333,1,,,,
,,,,,,010063256c19267ccc7ba307,66a626ef09d4e21e1a8894ec,67373fb6f09efe182c4096c0,2024-11-15_13h50.46.121,Tarea de género gramatical,2024.2.2,Win32,74.62686567,,,,,,,,,,,,,,,,,,,,,,288.1509,289.2575,l,1,[],[],[],[],[],[],[],0.4448,1,289.2575,289.7512,,,,,,36,MAS,DIS,150,dedo,la,l,0.4448,,,,289.7512,289.7512,0.887962963,0.021296296,0,0,0,,0,148,148,35,1,,,,
,,,,,,010063256c19267ccc7ba307,66a626ef09d4e21e1a8894ec,67373fb6f09efe182c4096c0,2024-11-15_13h50.46.121,Tarea de género gramatical,2024.2.2,Win32,74.62686567,,,,,,,,,,,,,,,,,,,,,,289.7519,290.9246,l,1,[],[],[],[],[],[],[],0.5089,1,290.9246,291.4182,,,,,,101,MAS,CON,150,giro,,l,0.5089,,,,291.4182,291.4183,0.887962963,0.021296296,0,0,0,,0,149,149,100,1,,,,
,,,,,,010063256c19267ccc7ba307,66a626ef09d4e21e1a8894ec,67373fb6f09efe182c4096c0,2024-11-15_13h50.46.121,Tarea de género gramatical,2024.2.2,Win32,74.62686567,,,,,,,,,,,,,,,,,,,,,,291.4189,292.5519,l,1,[],[],[],[],[],[],[],0.4739,1,292.5519,293.0456,,,,,,382,MAS,AGR,150,teatro,el,l,0.4739,,,,293.0462,293.8458,0.887962963,0.021296296,0,0,0,space,0,150,150,381,1,0.7934,,,
,,,,,,010063256c19267ccc7ba307,66a626ef09d4e21e1a8894ec,67373fb6f09efe182c4096c0,2024-11-15_13h50.46.121,Tarea de género gramatical,2024.2.2,Win32,74.62686567,,,,,,,,,,,,,,,,,,,,,,293.8462,294.8193,a,1,[],[],[],[],[],[],[],0.3097,1,294.8194,295.3131,,,,,,200,FEM,CON,150,silla,,a,0.3097,,,,295.3131,295.3131,0.887962963,0.021296296,0,0,0,,0,151,151,199,1,,,,
,,,,,,010063256c19267ccc7ba307,66a626ef09d4e21e1a8894ec,67373fb6f09efe182c4096c0,2024-11-15_13h50.46.121,Tarea de género gramatical,2024.2.2,Win32,74.62686567,,,,,,,,,,,,,,,,,,,,,,295.3138,296.3267,a,1,[],[],[],[],[],[],[],0.3471,1,296.3268,296.8201,,,,,,314,FEM,CON,150,señora,,a,0.3471,,,,296.8202,296.8202,0.887962963,0.021296296,0,0,0,,0,152,152,313,1,,,,
,,,,,,010063256c19267ccc7ba307,66a626ef09d4e21e1a8894ec,67373fb6f09efe182c4096c0,2024-11-15_13h50.46.121,Tarea de género gramatical,2024.2.2,Win32,74.62686567,,,,,,,,,,,,,,,,,,,,,,296.8207,297.8739,l,1,[],[],[],[],[],[],[],0.3912,1,297.8739,298.3677,,,,,,352,MAS,AGR,150,estilo,el,l,0.3912,,,,298.3678,298.3678,0.887962963,0.021296296,0,0,0,,0,153,153,351,1,,,,
,,,,,,010063256c19267ccc7ba307,66a626ef09d4e21e1a8894ec,67373fb6f09efe182c4096c0,2024-11-15_13h50.46.121,Tarea de género gramatical,2024.2.2,Win32,74.62686567,,,,,,,,,,,,,,,,,,,,,,298.3684,299.4744,a,1,[],[],[],[],[],[],[],0.4438,1,299.4744,299.9683,,,,,,225,FEM,DIS,150,pieza,el,a,0.4438,,,,299.9683,299.9683,0.887962963,0.021296296,0,0,0,,0,154,154,224,1,,,,
,,,,,,010063256c19267ccc7ba307,66a626ef09d4e21e1a8894ec,67373fb6f09efe182c4096c0,2024-11-15_13h50.46.121,Tarea de género gramatical,2024.2.2,Win32,74.62686567,,,,,,,,,,,,,,,,,,,,,,299.9689,301.4085,l,1,[],[],[],[],[],[],[],0.774,1,301.4085,301.902,,,,,,16,MAS,AGR,150,baño,el,l,0.774,,,,301.9026,301.9033,0.887962963,0.021296296,0,0,0,,0,155,155,15,1,,,,
,,,,,,010063256c19267ccc7ba307,66a626ef09d4e21e1a8894ec,67373fb6f09efe182c4096c0,2024-11-15_13h50.46.121,Tarea de género gramatical,2024.2.2,Win32,74.62686567,,,,,,,,,,,,,,,,,,,,,,301.9037,302.9691,l,1,[],[],[],[],[],[],[],0.4058,1,302.9692,303.4628,,,,,,310,MAS,AGR,150,nombre,el,l,0.4058,,,,303.4628,303.4629,0.887962963,0.021296296,0,0,0,,0,156,156,309,1,,,,
,,,,,,010063256c19267ccc7ba307,66a626ef09d4e21e1a8894ec,67373fb6f09efe182c4096c0,2024-11-15_13h50.46.121,Tarea de género gramatical,2024.2.2,Win32,74.62686567,,,,,,,,,,,,,,,,,,,,,,303.4634,304.4365,l,1,[],[],[],[],[],[],[],0.3088,1,304.4366,304.9297,,,,,,437,MAS,CON,150,hombro,,l,0.3088,,,,304.9297,304.9298,0.887962963,0.021296296,0,0,0,,0,157,157,436,1,,,,
,,,,,,010063256c19267ccc7ba307,66a626ef09d4e21e1a8894ec,67373fb6f09efe182c4096c0,2024-11-15_13h50.46.121,Tarea de género gramatical,2024.2.2,Win32,74.62686567,,,,,,,,,,,,,,,,,,,,,,304.9303,305.89,l,1,[],[],[],[],[],[],[],0.2975,1,305.8901,306.3837,,,,,,172,MAS,AGR,150,poder,el,l,0.2975,,,,306.3838,306.3838,0.887962963,0.021296296,0,0,0,,0,158,158,171,1,,,,
,,,,,,010063256c19267ccc7ba307,66a626ef09d4e21e1a8894ec,67373fb6f09efe182c4096c0,2024-11-15_13h50.46.121,Tarea de género gramatical,2024.2.2,Win32,74.62686567,,,,,,,,,,,,,,,,,,,,,,306.3842,307.5309,l,1,[],[],[],[],[],[],[],0.4849,1,307.531,308.0246,,,,,,340,MAS,AGR,150,pasado,el,l,0.4849,,,,308.0253,308.0259,0.887962963,0.021296296,0,0,0,,0,159,159,339,1,,,,
,,,,,,010063256c19267ccc7ba307,66a626ef09d4e21e1a8894ec,67373fb6f09efe182c4096c0,2024-11-15_13h50.46.121,Tarea de género gramatical,2024.2.2,Win32,74.62686567,,,,,,,,,,,,,,,,,,,,,,308.0263,309.078,l,1,[],[],[],[],[],[],[],0.3951,1,309.078,309.5717,,,,,,202,MAS,AGR,150,honor,el,l,0.3951,,,,309.5717,309.5717,0.887962963,0.021296296,0,0,0,,0,160,160,201,1,,,,
,,,,,,010063256c19267ccc7ba307,66a626ef09d4e21e1a8894ec,67373fb6f09efe182c4096c0,2024-11-15_13h50.46.121,Tarea de género gramatical,2024.2.2,Win32,74.62686567,,,,,,,,,,,,,,,,,,,,,,309.5724,310.5186,l,1,[],[],[],[],[],[],[],0.2877,1,310.5187,311.0121,,,,,,190,MAS,AGR,150,campo,el,l,0.2877,,,,311.0121,311.0122,0.887962963,0.021296296,0,0,0,,0,161,161,189,1,,,,
,,,,,,010063256c19267ccc7ba307,66a626ef09d4e21e1a8894ec,67373fb6f09efe182c4096c0,2024-11-15_13h50.46.121,Tarea de género gramatical,2024.2.2,Win32,74.62686567,,,,,,,,,,,,,,,,,,,,,,311.0127,312.1861,a,1,[],[],[],[],[],[],[],0.5074,1,312.1862,312.6795,,,,,,260,FEM,CON,150,barra,,a,0.5074,,,,312.6795,312.6795,0.887962963,0.021296296,0,0,0,,0,162,162,259,1,,,,
,,,,,,010063256c19267ccc7ba307,66a626ef09d4e21e1a8894ec,67373fb6f09efe182c4096c0,2024-11-15_13h50.46.121,Tarea de género gramatical,2024.2.2,Win32,74.62686567,,,,,,,,,,,,,,,,,,,,,,312.6801,313.7465,a,1,[],[],[],[],[],[],[],0.4006,1,313.7465,314.2401,,,,,,21,FEM,DIS,150,boca,el,a,0.4006,,,,314.2401,314.2401,0.887962963,0.021296296,0,0,0,,0,163,163,20,1,,,,
,,,,,,010063256c19267ccc7ba307,66a626ef09d4e21e1a8894ec,67373fb6f09efe182c4096c0,2024-11-15_13h50.46.121,Tarea de género gramatical,2024.2.2,Win32,74.62686567,,,,,,,,,,,,,,,,,,,,,,314.2408,315.4804,l,1,[],[],[],[],[],[],[],0.5799,1,315.4805,315.9738,,,,,,317,MAS,CON,150,número,,l,0.5799,,,,315.9745,315.9751,0.887962963,0.021296296,0,0,0,,0,164,164,316,1,,,,
,,,,,,010063256c19267ccc7ba307,66a626ef09d4e21e1a8894ec,67373fb6f09efe182c4096c0,2024-11-15_13h50.46.121,Tarea de género gramatical,2024.2.2,Win32,74.62686567,,,,,,,,,,,,,,,,,,,,,,315.9755,317.1609,a,1,[],[],[],[],[],[],[],0.5257,1,317.161,317.6546,,,,,,309,FEM,DIS,150,esposa,el,a,0.5257,,,,317.6546,317.6546,0.887962963,0.021296296,0,0,0,,0,165,165,308,1,,,,
,,,,,,010063256c19267ccc7ba307,66a626ef09d4e21e1a8894ec,67373fb6f09efe182c4096c0,2024-11-15_13h50.46.121,Tarea de género gramatical,2024.2.2,Win32,74.62686567,,,,,,,,,,,,,,,,,,,,,,317.6551,318.6682,a,1,[],[],[],[],[],[],[],0.3507,1,318.6683,319.162,,,,,,187,FEM,AGR,150,lista,la,a,0.3507,,,,319.162,319.162,0.887962963,0.021296296,0,0,0,,0,166,166,186,1,,,,
,,,,,,010063256c19267ccc7ba307,66a626ef09d4e21e1a8894ec,67373fb6f09efe182c4096c0,2024-11-15_13h50.46.121,Tarea de género gramatical,2024.2.2,Win32,74.62686567,,,,,,,,,,,,,,,,,,,,,,319.1627,320.2954,a,1,[],[],[],[],[],[],[],0.4735,1,320.2955,320.789,,,,,,434,FEM,CON,150,corona,,a,0.4735,,,,320.789,320.789,0.887962963,0.021296296,0,0,0,,0,167,167,433,1,,,,
,,,,,,010063256c19267ccc7ba307,66a626ef09d4e21e1a8894ec,67373fb6f09efe182c4096c0,2024-11-15_13h50.46.121,Tarea de género gramatical,2024.2.2,Win32,74.62686567,,,,,,,,,,,,,,,,,,,,,,320.7896,321.8293,a,1,[],[],[],[],[],[],[],0.383,1,321.8294,322.323,,,,,,273,FEM,DIS,150,tarta,el,a,0.383,,,,322.3235,322.324,0.887962963,0.021296296,0,0,0,,0,168,168,272,1,,,,
,,,,,,010063256c19267ccc7ba307,66a626ef09d4e21e1a8894ec,67373fb6f09efe182c4096c0,2024-11-15_13h50.46.121,Tarea de género gramatical,2024.2.2,Win32,74.62686567,,,,,,,,,,,,,,,,,,,,,,322.3244,323.3903,l,1,[],[],[],[],[],[],[],0.4091,1,323.3903,323.8837,,,,,,221,MAS,CON,150,brazo,,l,0.4091,,,,323.8837,323.8838,0.887962963,0.021296296,0,0,0,,0,169,169,220,1,,,,
,,,,,,010063256c19267ccc7ba307,66a626ef09d4e21e1a8894ec,67373fb6f09efe182c4096c0,2024-11-15_13h50.46.121,Tarea de género gramatical,2024.2.2,Win32,74.62686567,,,,,,,,,,,,,,,,,,,,,,323.8844,325.4711,a,1,[],[],[],[],[],[],[],0.9208,1,325.4711,325.9642,,,,,,182,FEM,CON,150,prisa,,a,0.9208,,,,325.9642,325.9642,0.887962963,0.021296296,0,0,0,,0,170,170,181,1,,,,
,,,,,,010063256c19267ccc7ba307,66a626ef09d4e21e1a8894ec,67373fb6f09efe182c4096c0,2024-11-15_13h50.46.121,Tarea de género gramatical,2024.2.2,Win32,74.62686567,,,,,,,,,,,,,,,,,,,,,,325.9648,327.0712,l,1,[],[],[],[],[],[],[],0.4407,1,327.0713,327.565,,,,,,323,MAS,CON,150,marido,,l,0.4407,,,,327.5651,327.5651,0.887962963,0.021296296,0,0,0,,0,171,171,322,1,,,,
,,,,,,010063256c19267ccc7ba307,66a626ef09d4e21e1a8894ec,67373fb6f09efe182c4096c0,2024-11-15_13h50.46.121,Tarea de género gramatical,2024.2.2,Win32,74.62686567,,,,,,,,,,,,,,,,,,,,,,327.5657,328.8185,a,1,[],[],[],[],[],[],[],0.5922,1,328.8186,329.3119,,,,,,339,FEM,DIS,150,salida,el,a,0.5922,,,,329.312,329.312,0.887962963,0.021296296,0,0,0,,0,172,172,338,1,,,,
,,,,,,010063256c19267ccc7ba307,66a626ef09d4e21e1a8894ec,67373fb6f09efe182c4096c0,2024-11-15_13h50.46.121,Tarea de género gramatical,2024.2.2,Win32,74.62686567,,,,,,,,,,,,,,,,,,,,,,329.3125,330.3257,l,1,[],[],[],[],[],[],[],0.3553,1,330.3258,330.8196,,,,,,246,MAS,DIS,150,humor,la,l,0.3553,,,,330.8203,330.8209,0.887962963,0.021296296,0,0,0,,0,173,173,245,1,,,,
,,,,,,010063256c19267ccc7ba307,66a626ef09d4e21e1a8894ec,67373fb6f09efe182c4096c0,2024-11-15_13h50.46.121,Tarea de género gramatical,2024.2.2,Win32,74.62686567,,,,,,,,,,,,,,,,,,,,,,330.8213,331.8463,a,1,[],[],[],[],[],[],[],0.3608,1,331.8463,332.3398,,,,,,332,FEM,CON,150,basura,,a,0.3608,,,,332.3399,332.3399,0.887962963,0.021296296,0,0,0,,0,174,174,331,1,,,,
,,,,,,010063256c19267ccc7ba307,66a626ef09d4e21e1a8894ec,67373fb6f09efe182c4096c0,2024-11-15_13h50.46.121,Tarea de género gramatical,2024.2.2,Win32,74.62686567,,,,,,,,,,,,,,,,,,,,,,332.3403,333.4071,l,1,[],[],[],[],[],[],[],0.4009,1,333.4072,333.9005,,,,,,244,MAS,AGR,150,hielo,el,l,0.4009,,,,333.9005,333.9005,0.887962963,0.021296296,0,0,0,,0,175,175,243,1,,,,
,,,,,,010063256c19267ccc7ba307,66a626ef09d4e21e1a8894ec,67373fb6f09efe182c4096c0,2024-11-15_13h50.46.121,Tarea de género gramatical,2024.2.2,Win32,74.62686567,,,,,,,,,,,,,,,,,,,,,,333.9011,335.0742,l,1,[],[],[],[],[],[],[],0.5118,1,335.0742,335.5678,,,,,,12,MAS,DIS,150,plan,la,l,0.5118,,,,335.5678,335.5678,0.887962963,0.021296296,0,0,0,,0,176,176,11,1,,,,
,,,,,,010063256c19267ccc7ba307,66a626ef09d4e21e1a8894ec,67373fb6f09efe182c4096c0,2024-11-15_13h50.46.121,Tarea de género gramatical,2024.2.2,Win32,74.62686567,,,,,,,,,,,,,,,,,,,,,,335.5683,336.6215,a,1,[],[],[],[],[],[],[],0.3958,1,336.6215,337.1153,,,,,,241,FEM,AGR,150,pasta,la,a,0.3958,,,,337.116,337.1167,0.887962963,0.021296296,0,0,0,,0,177,177,240,1,,,,
,,,,,,010063256c19267ccc7ba307,66a626ef09d4e21e1a8894ec,67373fb6f09efe182c4096c0,2024-11-15_13h50.46.121,Tarea de género gramatical,2024.2.2,Win32,74.62686567,,,,,,,,,,,,,,,,,,,,,,337.117,338.2488,l,1,[],[],[],[],[],[],[],0.4661,1,338.2488,338.7423,,,,,,154,MAS,AGR,150,padre,el,l,0.4661,,,,338.7423,338.7424,0.887962963,0.021296296,0,0,0,,0,178,178,153,1,,,,
,,,,,,010063256c19267ccc7ba307,66a626ef09d4e21e1a8894ec,67373fb6f09efe182c4096c0,2024-11-15_13h50.46.121,Tarea de género gramatical,2024.2.2,Win32,74.62686567,,,,,,,,,,,,,,,,,,,,,,338.743,339.7693,a,1,[],[],[],[],[],[],[],0.3666,1,339.7694,340.2628,,,,,,91,FEM,AGR,150,hoja,la,a,0.3666,,,,340.2628,340.2629,0.887962963,0.021296296,0,0,0,,0,179,179,90,1,,,,
,,,,,,010063256c19267ccc7ba307,66a626ef09d4e21e1a8894ec,67373fb6f09efe182c4096c0,2024-11-15_13h50.46.121,Tarea de género gramatical,2024.2.2,Win32,74.62686567,,,,,,,,,,,,,,,,,,,,,,340.2634,341.3967,a,1,[],[],[],[],[],[],[],0.4766,1,341.3967,341.8903,,,,,,279,FEM,DIS,150,selva,el,a,0.4766,,,,341.8903,341.8903,0.887962963,0.021296296,0,0,0,,0,180,180,278,1,,,,
,,,,,,010063256c19267ccc7ba307,66a626ef09d4e21e1a8894ec,67373fb6f09efe182c4096c0,2024-11-15_13h50.46.121,Tarea de género gramatical,2024.2.2,Win32,74.62686567,,,,,,,,,,,,,,,,,,,,,,341.891,342.8638,l,1,[],[],[],[],[],[],[],0.3073,1,342.8638,343.3572,,,,,,173,MAS,CON,150,libro,,l,0.3073,,,,343.3573,343.3573,0.887962963,0.021296296,0,0,0,,0,181,181,172,1,,,,
,,,,,,010063256c19267ccc7ba307,66a626ef09d4e21e1a8894ec,67373fb6f09efe182c4096c0,2024-11-15_13h50.46.121,Tarea de género gramatical,2024.2.2,Win32,74.62686567,,,,,,,,,,,,,,,,,,,,,,343.3577,344.4644,a,1,[],[],[],[],[],[],[],0.4466,1,344.4644,344.9579,,,,,,86,FEM,CON,150,cruz,,a,0.4466,,,,344.9585,344.9591,0.887962963,0.021296296,0,0,0,,0,182,182,85,1,,,,
,,,,,,010063256c19267ccc7ba307,66a626ef09d4e21e1a8894ec,67373fb6f09efe182c4096c0,2024-11-15_13h50.46.121,Tarea de género gramatical,2024.2.2,Win32,74.62686567,,,,,,,,,,,,,,,,,,,,,,344.9595,346.0384,a,0,[],[],[],[],[],[],[],0.4222,0,346.039,346.5319,,,,,,78,MAS,DIS,150,oído,la,l,0.4222,,,,346.5319,346.5319,0.887962963,0.021296296,0,0,0,,0,183,183,77,1,,,,
,,,,,,010063256c19267ccc7ba307,66a626ef09d4e21e1a8894ec,67373fb6f09efe182c4096c0,2024-11-15_13h50.46.121,Tarea de género gramatical,2024.2.2,Win32,74.62686567,,,,,,,,,,,,,,,,,,,,,,346.5325,347.7054,a,1,[],[],[],[],[],[],[],0.507,1,347.7058,348.199,,,,,,99,FEM,DIS,150,fase,el,a,0.507,,,,348.199,348.1991,0.887962963,0.021296296,0,0,0,,0,184,184,98,1,,,,
,,,,,,010063256c19267ccc7ba307,66a626ef09d4e21e1a8894ec,67373fb6f09efe182c4096c0,2024-11-15_13h50.46.121,Tarea de género gramatical,2024.2.2,Win32,74.62686567,,,,,,,,,,,,,,,,,,,,,,348.1996,349.5996,l,1,[],[],[],[],[],[],[],0.7404,1,349.5996,350.0934,,,,,,52,MAS,AGR,150,lago,el,l,0.7404,,,,350.0934,350.0934,0.887962963,0.021296296,0,0,0,,0,185,185,51,1,,,,
,,,,,,010063256c19267ccc7ba307,66a626ef09d4e21e1a8894ec,67373fb6f09efe182c4096c0,2024-11-15_13h50.46.121,Tarea de género gramatical,2024.2.2,Win32,74.62686567,,,,,,,,,,,,,,,,,,,,,,350.0941,351.4402,l,1,[],[],[],[],[],[],[],0.6806,1,351.4402,351.9337,,,,,,226,MAS,AGR,150,color,el,l,0.6806,,,,351.9343,351.9348,0.887962963,0.021296296,0,0,0,,0,186,186,225,1,,,,
,,,,,,010063256c19267ccc7ba307,66a626ef09d4e21e1a8894ec,67373fb6f09efe182c4096c0,2024-11-15_13h50.46.121,Tarea de género gramatical,2024.2.2,Win32,74.62686567,,,,,,,,,,,,,,,,,,,,,,351.9353,353.1342,l,1,[],[],[],[],[],[],[],0.5343,1,353.1342,353.6277,,,,,,166,MAS,AGR,150,coche,el,l,0.5343,,,,353.6278,353.6278,0.887962963,0.021296296,0,0,0,,0,187,187,165,1,,,,
,,,,,,010063256c19267ccc7ba307,66a626ef09d4e21e1a8894ec,67373fb6f09efe182c4096c0,2024-11-15_13h50.46.121,Tarea de género gramatical,2024.2.2,Win32,74.62686567,,,,,,,,,,,,,,,,,,,,,,353.6282,354.708,l,1,[],[],[],[],[],[],[],0.4162,1,354.7081,355.2017,,,,,,311,MAS,CON,150,camino,,l,0.4162,,,,355.2017,355.2017,0.887962963,0.021296296,0,0,0,,0,188,188,310,1,,,,
,,,,,,010063256c19267ccc7ba307,66a626ef09d4e21e1a8894ec,67373fb6f09efe182c4096c0,2024-11-15_13h50.46.121,Tarea de género gramatical,2024.2.2,Win32,74.62686567,,,,,,,,,,,,,,,,,,,,,,355.2023,356.4554,a,1,[],[],[],[],[],[],[],0.5868,1,356.4555,356.9489,,,,,,301,FEM,AGR,150,verdad,la,a,0.5868,,,,356.9489,356.9489,0.887962963,0.021296296,0,0,0,,0,189,189,300,1,,,,
,,,,,,010063256c19267ccc7ba307,66a626ef09d4e21e1a8894ec,67373fb6f09efe182c4096c0,2024-11-15_13h50.46.121,Tarea de género gramatical,2024.2.2,Win32,74.62686567,,,,,,,,,,,,,,,,,,,,,,356.9495,358.0562,l,1,[],[],[],[],[],[],[],0.4407,1,358.0564,358.5497,,,,,,214,MAS,AGR,150,fondo,el,l,0.4407,,,,358.5498,358.5498,0.887962963,0.021296296,0,0,0,,0,190,190,213,1,,,,
,,,,,,010063256c19267ccc7ba307,66a626ef09d4e21e1a8894ec,67373fb6f09efe182c4096c0,2024-11-15_13h50.46.121,Tarea de género gramatical,2024.2.2,Win32,74.62686567,,,,,,,,,,,,,,,,,,,,,,358.5505,359.7367,l,1,[],[],[],[],[],[],[],0.5268,1,359.7367,360.2304,,,,,,174,MAS,DIS,150,perro,la,l,0.5268,,,,360.231,360.2316,0.887962963,0.021296296,0,0,0,,0,191,191,173,1,,,,
,,,,,,010063256c19267ccc7ba307,66a626ef09d4e21e1a8894ec,67373fb6f09efe182c4096c0,2024-11-15_13h50.46.121,Tarea de género gramatical,2024.2.2,Win32,74.62686567,,,,,,,,,,,,,,,,,,,,,,360.232,361.524,a,1,[],[],[],[],[],[],[],0.6301,1,361.524,362.0177,,,,,,421,FEM,AGR,150,novela,la,a,0.6301,,,,362.0177,362.0177,0.887962963,0.021296296,0,0,0,,0,192,192,420,1,,,,
,,,,,,010063256c19267ccc7ba307,66a626ef09d4e21e1a8894ec,67373fb6f09efe182c4096c0,2024-11-15_13h50.46.121,Tarea de género gramatical,2024.2.2,Win32,74.62686567,,,,,,,,,,,,,,,,,,,,,,362.0184,363.1779,l,1,[],[],[],[],[],[],[],0.4981,1,363.1779,363.6717,,,,,,114,MAS,DIS,150,menú,la,l,0.4981,,,,363.6717,363.6718,0.887962963,0.021296296,0,0,0,,0,193,193,113,1,,,,
,,,,,,010063256c19267ccc7ba307,66a626ef09d4e21e1a8894ec,67373fb6f09efe182c4096c0,2024-11-15_13h50.46.121,Tarea de género gramatical,2024.2.2,Win32,74.62686567,,,,,,,,,,,,,,,,,,,,,,363.6723,364.7652,a,1,[],[],[],[],[],[],[],0.4361,1,364.7652,365.2587,,,,,,93,FEM,DIS,150,lata,el,a,0.4361,,,,365.2587,365.2587,0.887962963,0.021296296,0,0,0,,0,194,194,92,1,,,,
,,,,,,010063256c19267ccc7ba307,66a626ef09d4e21e1a8894ec,67373fb6f09efe182c4096c0,2024-11-15_13h50.46.121,Tarea de género gramatical,2024.2.2,Win32,74.62686567,,,,,,,,,,,,,,,,,,,,,,365.2592,366.4061,a,1,[],[],[],[],[],[],[],0.4888,1,366.4061,366.8994,,,,,,236,FEM,CON,150,deuda,,a,0.4888,,,,366.8999,366.9004,0.887962963,0.021296296,0,0,0,,0,195,195,235,1,,,,
,,,,,,010063256c19267ccc7ba307,66a626ef09d4e21e1a8894ec,67373fb6f09efe182c4096c0,2024-11-15_13h50.46.121,Tarea de género gramatical,2024.2.2,Win32,74.62686567,,,,,,,,,,,,,,,,,,,,,,366.9008,368.2466,l,0,[],[],[],[],[],[],[],0.6885,0,368.2469,368.7402,,,,,,15,FEM,DIS,150,cama,el,a,0.6885,,,,368.7402,368.7403,0.887962963,0.021296296,0,0,0,,0,196,196,14,1,,,,
,,,,,,010063256c19267ccc7ba307,66a626ef09d4e21e1a8894ec,67373fb6f09efe182c4096c0,2024-11-15_13h50.46.121,Tarea de género gramatical,2024.2.2,Win32,74.62686567,,,,,,,,,,,,,,,,,,,,,,368.7409,369.927,a,1,[],[],[],[],[],[],[],0.5194,1,369.9273,370.4206,,,,,,363,FEM,DIS,150,unidad,el,a,0.5194,,,,370.4206,370.4206,0.887962963,0.021296296,0,0,0,,0,197,197,362,1,,,,
,,,,,,010063256c19267ccc7ba307,66a626ef09d4e21e1a8894ec,67373fb6f09efe182c4096c0,2024-11-15_13h50.46.121,Tarea de género gramatical,2024.2.2,Win32,74.62686567,,,,,,,,,,,,,,,,,,,,,,370.4211,371.6079,l,1,[],[],[],[],[],[],[],0.5204,1,371.6079,372.1015,,,,,,72,MAS,DIS,150,hoyo,la,l,0.5204,,,,372.1015,372.1015,0.887962963,0.021296296,0,0,0,,0,198,198,71,1,,,,
,,,,,,010063256c19267ccc7ba307,66a626ef09d4e21e1a8894ec,67373fb6f09efe182c4096c0,2024-11-15_13h50.46.121,Tarea de género gramatical,2024.2.2,Win32,74.62686567,,,,,,,,,,,,,,,,,,,,,,372.1022,373.2215,a,1,[],[],[],[],[],[],[],0.462,1,373.2216,373.715,,,,,,134,FEM,CON,150,rama,,a,0.462,,,,373.715,373.7151,0.887962963,0.021296296,0,0,0,,0,199,199,133,1,,,,
,,,,,,010063256c19267ccc7ba307,66a626ef09d4e21e1a8894ec,67373fb6f09efe182c4096c0,2024-11-15_13h50.46.121,Tarea de género gramatical,2024.2.2,Win32,74.62686567,,,,,,,,,,,,,,,,,,,,,,373.7155,374.8088,l,1,[],[],[],[],[],[],[],0.4323,1,374.8089,375.3025,,,,,,168,MAS,DIS,150,sitio,la,l,0.4323,,,,375.3033,375.3039,0.887962963,0.021296296,0,0,0,,0,200,200,167,1,,,,
,,,,,,010063256c19267ccc7ba307,66a626ef09d4e21e1a8894ec,67373fb6f09efe182c4096c0,2024-11-15_13h50.46.121,Tarea de género gramatical,2024.2.2,Win32,74.62686567,,,,,,,,,,,,,,,,,,,,,,375.3043,376.4094,a,1,[],[],[],[],[],[],[],0.4408,1,376.4095,376.9029,,,,,,49,FEM,AGR,150,piel,la,a,0.4408,,,,376.903,376.9031,0.887962963,0.021296296,0,0,0,,0,201,201,48,1,,,,
,,,,,,010063256c19267ccc7ba307,66a626ef09d4e21e1a8894ec,67373fb6f09efe182c4096c0,2024-11-15_13h50.46.121,Tarea de género gramatical,2024.2.2,Win32,74.62686567,,,,,,,,,,,,,,,,,,,,,,376.9035,378.0234,l,1,[],[],[],[],[],[],[],0.4612,1,378.0235,378.517,,,,,,318,MAS,DIS,150,pueblo,la,l,0.4612,,,,378.517,378.517,0.887962963,0.021296296,0,0,0,,0,202,202,317,1,,,,
,,,,,,010063256c19267ccc7ba307,66a626ef09d4e21e1a8894ec,67373fb6f09efe182c4096c0,2024-11-15_13h50.46.121,Tarea de género gramatical,2024.2.2,Win32,74.62686567,,,,,,,,,,,,,,,,,,,,,,378.5176,379.5304,a,1,[],[],[],[],[],[],[],0.3508,1,379.5305,380.0241,,,,,,85,FEM,AGR,150,gira,la,a,0.3508,,,,380.0241,380.0242,0.887962963,0.021296296,0,0,0,,0,203,203,84,1,,,,
,,,,,,010063256c19267ccc7ba307,66a626ef09d4e21e1a8894ec,67373fb6f09efe182c4096c0,2024-11-15_13h50.46.121,Tarea de género gramatical,2024.2.2,Win32,74.62686567,,,,,,,,,,,,,,,,,,,,,,380.0246,381.1844,a,1,[],[],[],[],[],[],[],0.5001,1,381.1845,381.678,,,,,,446,FEM,CON,150,bañera,,a,0.5001,,,,381.6785,381.679,0.887962963,0.021296296,0,0,0,,0,204,204,445,1,,,,
,,,,,,010063256c19267ccc7ba307,66a626ef09d4e21e1a8894ec,67373fb6f09efe182c4096c0,2024-11-15_13h50.46.121,Tarea de género gramatical,2024.2.2,Win32,74.62686567,,,,,,,,,,,,,,,,,,,,,,381.6794,382.745,l,1,[],[],[],[],[],[],[],0.4012,1,382.7451,383.2386,,,,,,442,MAS,AGR,150,cuadro,el,l,0.4012,,,,383.2386,383.2386,0.887962963,0.021296296,0,0,0,,0,205,205,441,1,,,,
,,,,,,010063256c19267ccc7ba307,66a626ef09d4e21e1a8894ec,67373fb6f09efe182c4096c0,2024-11-15_13h50.46.121,Tarea de género gramatical,2024.2.2,Win32,74.62686567,,,,,,,,,,,,,,,,,,,,,,383.2391,384.2789,a,1,[],[],[],[],[],[],[],0.3725,1,384.2789,384.7725,,,,,,386,FEM,CON,150,sombra,,a,0.3725,,,,384.7725,384.7726,0.887962963,0.021296296,0,0,0,,0,206,206,385,1,,,,
,,,,,,010063256c19267ccc7ba307,66a626ef09d4e21e1a8894ec,67373fb6f09efe182c4096c0,2024-11-15_13h50.46.121,Tarea de género gramatical,2024.2.2,Win32,74.62686567,,,,,,,,,,,,,,,,,,,,,,384.7732,385.7862,a,1,[],[],[],[],[],[],[],0.3511,1,385.7863,386.2797,,,,,,398,FEM,CON,150,hierba,,a,0.3511,,,,386.2797,386.2797,0.887962963,0.021296296,0,0,0,,0,207,207,397,1,,,,
,,,,,,010063256c19267ccc7ba307,66a626ef09d4e21e1a8894ec,67373fb6f09efe182c4096c0,2024-11-15_13h50.46.121,Tarea de género gramatical,2024.2.2,Win32,74.62686567,,,,,,,,,,,,,,,,,,,,,,386.2803,387.2266,l,1,[],[],[],[],[],[],[],0.2855,1,387.2267,387.7203,,,,,,178,MAS,AGR,150,punto,el,l,0.2855,,,,387.7204,387.7205,0.887962963,0.021296296,0,0,0,,0,208,208,177,1,,,,
,,,,,,010063256c19267ccc7ba307,66a626ef09d4e21e1a8894ec,67373fb6f09efe182c4096c0,2024-11-15_13h50.46.121,Tarea de género gramatical,2024.2.2,Win32,74.62686567,,,,,,,,,,,,,,,,,,,,,,387.721,388.8406,a,0,[],[],[],[],[],[],[],0.4595,0,388.841,389.3343,,,,,,132,MAS,DIS,150,velo,la,l,0.4595,,,,389.335,389.3355,0.887962963,0.021296296,0,0,0,,0,209,209,131,1,,,,
,,,,,,010063256c19267ccc7ba307,66a626ef09d4e21e1a8894ec,67373fb6f09efe182c4096c0,2024-11-15_13h50.46.121,Tarea de género gramatical,2024.2.2,Win32,74.62686567,,,,,,,,,,,,,,,,,,,,,,389.3359,390.3612,a,1,[],[],[],[],[],[],[],0.3656,1,390.3615,390.8546,,,,,,19,FEM,AGR,150,niña,la,a,0.3656,,,,390.8547,390.8547,0.887962963,0.021296296,0,0,0,,0,210,210,18,1,,,,
,,,,,,010063256c19267ccc7ba307,66a626ef09d4e21e1a8894ec,67373fb6f09efe182c4096c0,2024-11-15_13h50.46.121,Tarea de género gramatical,2024.2.2,Win32,74.62686567,,,,,,,,,,,,,,,,,,,,,,390.8553,391.8952,l,1,[],[],[],[],[],[],[],0.3728,1,391.8952,392.3884,,,,,,100,MAS,AGR,150,nido,el,l,0.3728,,,,392.3885,392.3886,0.887962963,0.021296296,0,0,0,,0,211,211,99,1,,,,
,,,,,,010063256c19267ccc7ba307,66a626ef09d4e21e1a8894ec,67373fb6f09efe182c4096c0,2024-11-15_13h50.46.121,Tarea de género gramatical,2024.2.2,Win32,74.62686567,,,,,,,,,,,,,,,,,,,,,,392.389,393.4424,a,1,[],[],[],[],[],[],[],0.3919,1,393.4424,393.9358,,,,,,248,FEM,CON,150,letra,,a,0.3919,,,,393.9358,393.9359,0.887962963,0.021296296,0,0,0,,0,212,212,247,1,,,,
,,,,,,010063256c19267ccc7ba307,66a626ef09d4e21e1a8894ec,67373fb6f09efe182c4096c0,2024-11-15_13h50.46.121,Tarea de género gramatical,2024.2.2,Win32,74.62686567,,,,,,,,,,,,,,,,,,,,,,393.9366,395.0028,a,1,[],[],[],[],[],[],[],0.4037,1,395.0029,395.4965,,,,,,320,FEM,CON,150,fiesta,,a,0.4037,,,,395.4973,395.4978,0.887962963,0.021296296,0,0,0,,0,213,213,319,1,,,,
,,,,,,010063256c19267ccc7ba307,66a626ef09d4e21e1a8894ec,67373fb6f09efe182c4096c0,2024-11-15_13h50.46.121,Tarea de género gramatical,2024.2.2,Win32,74.62686567,,,,,,,,,,,,,,,,,,,,,,395.4982,396.4967,l,1,[],[],[],[],[],[],[],0.3336,1,396.4967,396.9902,,,,,,336,MAS,DIS,150,crimen,la,l,0.3336,,,,396.9902,396.9904,0.887962963,0.021296296,0,0,0,,0,214,214,335,1,,,,
,,,,,,010063256c19267ccc7ba307,66a626ef09d4e21e1a8894ec,67373fb6f09efe182c4096c0,2024-11-15_13h50.46.121,Tarea de género gramatical,2024.2.2,Win32,74.62686567,,,,,,,,,,,,,,,,,,,,,,396.9908,398.1373,l,1,[],[],[],[],[],[],[],0.4805,1,398.1374,398.6309,,,,,,414,MAS,DIS,150,sótano,la,l,0.4805,,,,398.6309,398.6309,0.887962963,0.021296296,0,0,0,,0,215,215,413,1,,,,
,,,,,,010063256c19267ccc7ba307,66a626ef09d4e21e1a8894ec,67373fb6f09efe182c4096c0,2024-11-15_13h50.46.121,Tarea de género gramatical,2024.2.2,Win32,74.62686567,,,,,,,,,,,,,,,,,,,,,,398.6314,399.6446,l,1,[],[],[],[],[],[],[],0.3563,1,399.6447,400.1383,,,,,,316,MAS,AGR,150,cuerpo,el,l,0.3563,,,,400.1383,400.1383,0.887962963,0.021296296,0,0,0,,0,216,216,315,1,,,,
,,,,,,010063256c19267ccc7ba307,66a626ef09d4e21e1a8894ec,67373fb6f09efe182c4096c0,2024-11-15_13h50.46.121,Tarea de género gramatical,2024.2.2,Win32,74.62686567,,,,,,,,,,,,,,,,,,,,,,400.139,401.3118,a,1,[],[],[],[],[],[],[],0.5129,1,401.3119,401.8056,,,,,,175,FEM,AGR,150,señal,la,a,0.5129,,,,401.8056,401.8057,0.887962963,0.021296296,0,0,0,,0,217,217,174,1,,,,
,,,,,,010063256c19267ccc7ba307,66a626ef09d4e21e1a8894ec,67373fb6f09efe182c4096c0,2024-11-15_13h50.46.121,Tarea de género gramatical,2024.2.2,Win32,74.62686567,,,,,,,,,,,,,,,,,,,,,,401.8064,402.8591,l,0,[],[],[],[],[],[],[],0.3898,0,402.8595,403.3527,,,,,,351,FEM,DIS,150,espada,el,a,0.3898,,,,403.3532,403.3536,0.887962963,0.021296296,0,0,0,,0,218,218,350,1,,,,
,,,,,,010063256c19267ccc7ba307,66a626ef09d4e21e1a8894ec,67373fb6f09efe182c4096c0,2024-11-15_13h50.46.121,Tarea de género gramatical,2024.2.2,Win32,74.62686567,,,,,,,,,,,,,,,,,,,,,,403.354,404.6331,l,1,[],[],[],[],[],[],[],0.6145,1,404.6336,405.1269,,,,,,17,MAS,CON,150,modo,,l,0.6145,,,,405.1269,405.127,0.887962963,0.021296296,0,0,0,,0,219,219,16,1,,,,
,,,,,,010063256c19267ccc7ba307,66a626ef09d4e21e1a8894ec,67373fb6f09efe182c4096c0,2024-11-15_13h50.46.121,Tarea de género gramatical,2024.2.2,Win32,74.62686567,,,,,,,,,,,,,,,,,,,,,,405.1276,406.2336,l,1,[],[],[],[],[],[],[],0.44,1,406.2337,406.7272,,,,,,118,MAS,AGR,150,baúl,el,l,0.44,,,,406.7272,406.7273,0.887962963,0.021296296,0,0,0,,0,220,220,117,1,,,,
,,,,,,010063256c19267ccc7ba307,66a626ef09d4e21e1a8894ec,67373fb6f09efe182c4096c0,2024-11-15_13h50.46.121,Tarea de género gramatical,2024.2.2,Win32,74.62686567,,,,,,,,,,,,,,,,,,,,,,406.7278,407.7275,l,1,[],[],[],[],[],[],[],0.341,1,407.7276,408.2211,,,,,,286,MAS,AGR,150,reino,el,l,0.341,,,,408.2211,408.2211,0.887962963,0.021296296,0,0,0,,0,221,221,285,1,,,,
,,,,,,010063256c19267ccc7ba307,66a626ef09d4e21e1a8894ec,67373fb6f09efe182c4096c0,2024-11-15_13h50.46.121,Tarea de género gramatical,2024.2.2,Win32,74.62686567,,,,,,,,,,,,,,,,,,,,,,408.2217,409.2482,a,1,[],[],[],[],[],[],[],0.3663,1,409.2483,409.7418,,,,,,165,FEM,DIS,150,amiga,el,a,0.3663,,,,409.7425,409.7431,0.887962963,0.021296296,0,0,0,,0,222,222,164,1,,,,
,,,,,,010063256c19267ccc7ba307,66a626ef09d4e21e1a8894ec,67373fb6f09efe182c4096c0,2024-11-15_13h50.46.121,Tarea de género gramatical,2024.2.2,Win32,74.62686567,,,,,,,,,,,,,,,,,,,,,,409.7434,410.902,a,1,[],[],[],[],[],[],[],0.5016,1,410.9021,411.3959,,,,,,362,FEM,CON,150,fuente,,a,0.5016,,,,411.3959,411.3959,0.887962963,0.021296296,0,0,0,,0,223,223,361,1,,,,
,,,,,,010063256c19267ccc7ba307,66a626ef09d4e21e1a8894ec,67373fb6f09efe182c4096c0,2024-11-15_13h50.46.121,Tarea de género gramatical,2024.2.2,Win32,74.62686567,,,,,,,,,,,,,,,,,,,,,,411.3965,412.4758,a,1,[],[],[],[],[],[],[],0.4155,1,412.4759,412.9696,,,,,,73,FEM,AGR,150,roca,la,a,0.4155,,,,412.9696,412.9697,0.887962963,0.021296296,0,0,0,,0,224,224,72,1,,,,
,,,,,,010063256c19267ccc7ba307,66a626ef09d4e21e1a8894ec,67373fb6f09efe182c4096c0,2024-11-15_13h50.46.121,Tarea de género gramatical,2024.2.2,Win32,74.62686567,,,,,,,,,,,,,,,,,,,,,,412.9702,414.0366,l,1,[],[],[],[],[],[],[],0.4097,1,414.0367,414.5301,,,,,,252,MAS,DIS,150,viejo,la,l,0.4097,,,,414.5302,414.5302,0.887962963,0.021296296,0,0,0,,0,225,225,251,1,,,,
,,,,,,010063256c19267ccc7ba307,66a626ef09d4e21e1a8894ec,67373fb6f09efe182c4096c0,2024-11-15_13h50.46.121,Tarea de género gramatical,2024.2.2,Win32,74.62686567,,,,,,,,,,,,,,,,,,,,,,414.5308,415.6372,a,1,[],[],[],[],[],[],[],0.4501,1,415.6372,416.1307,,,,,,356,FEM,CON,150,piedra,,a,0.4501,,,,416.1307,416.1307,0.887962963,0.021296296,0,0,0,,0,226,226,355,1,,,,
,,,,,,010063256c19267ccc7ba307,66a626ef09d4e21e1a8894ec,67373fb6f09efe182c4096c0,2024-11-15_13h50.46.121,Tarea de género gramatical,2024.2.2,Win32,74.62686567,,,,,,,,,,,,,,,,,,,,,,416.1314,417.4377,l,1,[],[],[],[],[],[],[],0.6404,1,417.4378,417.9313,,,,,,378,MAS,DIS,150,pastel,la,l,0.6404,,,,417.9319,417.9324,0.887962963,0.021296296,0,0,0,,0,227,227,377,1,,,,
,,,,,,010063256c19267ccc7ba307,66a626ef09d4e21e1a8894ec,67373fb6f09efe182c4096c0,2024-11-15_13h50.46.121,Tarea de género gramatical,2024.2.2,Win32,74.62686567,,,,,,,,,,,,,,,,,,,,,,417.9327,418.9184,a,1,[],[],[],[],[],[],[],0.3207,1,418.9184,419.4119,,,,,,261,FEM,DIS,150,cueva,el,a,0.3207,,,,419.412,419.412,0.887962963,0.021296296,0,0,0,,0,228,228,260,1,,,,
,,,,,,010063256c19267ccc7ba307,66a626ef09d4e21e1a8894ec,67373fb6f09efe182c4096c0,2024-11-15_13h50.46.121,Tarea de género gramatical,2024.2.2,Win32,74.62686567,,,,,,,,,,,,,,,,,,,,,,419.4125,420.479,a,1,[],[],[],[],[],[],[],0.4078,1,420.479,420.9724,,,,,,427,FEM,AGR,150,agenda,la,a,0.4078,,,,420.9724,420.9724,0.887962963,0.021296296,0,0,0,,0,229,229,426,1,,,,
,,,,,,010063256c19267ccc7ba307,66a626ef09d4e21e1a8894ec,67373fb6f09efe182c4096c0,2024-11-15_13h50.46.121,Tarea de género gramatical,2024.2.2,Win32,74.62686567,,,,,,,,,,,,,,,,,,,,,,420.973,422.1195,a,1,[],[],[],[],[],[],[],0.4803,1,422.1195,422.6133,,,,,,122,FEM,CON,150,loca,,a,0.4803,,,,422.6133,422.6133,0.887962963,0.021296296,0,0,0,,0,230,230,121,1,,,,
,,,,,,010063256c19267ccc7ba307,66a626ef09d4e21e1a8894ec,67373fb6f09efe182c4096c0,2024-11-15_13h50.46.121,Tarea de género gramatical,2024.2.2,Win32,74.62686567,,,,,,,,,,,,,,,,,,,,,,422.614,423.7335,l,1,[],[],[],[],[],[],[],0.4625,1,423.7335,424.2272,,,,,,450,MAS,DIS,150,conejo,la,l,0.4625,,,,424.2278,424.2284,0.887962963,0.021296296,0,0,0,,0,231,231,449,1,,,,
,,,,,,010063256c19267ccc7ba307,66a626ef09d4e21e1a8894ec,67373fb6f09efe182c4096c0,2024-11-15_13h50.46.121,Tarea de género gramatical,2024.2.2,Win32,74.62686567,,,,,,,,,,,,,,,,,,,,,,424.2288,425.3207,l,1,[],[],[],[],[],[],[],0.4273,1,425.3207,425.8144,,,,,,112,MAS,AGR,150,reto,el,l,0.4273,,,,425.8145,425.8145,0.887962963,0.021296296,0,0,0,,0,232,232,111,1,,,,
,,,,,,010063256c19267ccc7ba307,66a626ef09d4e21e1a8894ec,67373fb6f09efe182c4096c0,2024-11-15_13h50.46.121,Tarea de género gramatical,2024.2.2,Win32,74.62686567,,,,,,,,,,,,,,,,,,,,,,425.8153,426.8145,a,1,[],[],[],[],[],[],[],0.3415,1,426.8146,427.3083,,,,,,230,FEM,CON,150,regla,,a,0.3415,,,,427.3083,427.3084,0.887962963,0.021296296,0,0,0,,0,233,233,229,1,,,,
,,,,,,010063256c19267ccc7ba307,66a626ef09d4e21e1a8894ec,67373fb6f09efe182c4096c0,2024-11-15_13h50.46.121,Tarea de género gramatical,2024.2.2,Win32,74.62686567,,,,,,,,,,,,,,,,,,,,,,427.309,428.3486,l,1,[],[],[],[],[],[],[],0.3755,1,428.3486,428.842,,,,,,426,MAS,DIS,150,pánico,la,l,0.3755,,,,428.842,428.8421,0.887962963,0.021296296,0,0,0,,0,234,234,425,1,,,,
,,,,,,010063256c19267ccc7ba307,66a626ef09d4e21e1a8894ec,67373fb6f09efe182c4096c0,2024-11-15_13h50.46.121,Tarea de género gramatical,2024.2.2,Win32,74.62686567,,,,,,,,,,,,,,,,,,,,,,428.8426,430.2692,a,0,[],[],[],[],[],[],[],0.7615,0,430.2696,430.763,,,,,,263,MAS,CON,150,carro,,l,0.7615,,,,430.763,430.7631,0.887962963,0.021296296,0,0,0,,0,235,235,262,1,,,,
,,,,,,010063256c19267ccc7ba307,66a626ef09d4e21e1a8894ec,67373fb6f09efe182c4096c0,2024-11-15_13h50.46.121,Tarea de género gramatical,2024.2.2,Win32,74.62686567,,,,,,,,,,,,,,,,,,,,,,430.7636,431.9101,l,0,[],[],[],[],[],[],[],0.4803,0,431.9101,432.4033,,,,,,183,FEM,DIS,150,llave,el,a,0.4803,,,,432.4038,432.4044,0.887962963,0.021296296,0,0,0,,0,236,236,182,1,,,,
,,,,,,010063256c19267ccc7ba307,66a626ef09d4e21e1a8894ec,67373fb6f09efe182c4096c0,2024-11-15_13h50.46.121,Tarea de género gramatical,2024.2.2,Win32,74.62686567,,,,,,,,,,,,,,,,,,,,,,432.4048,433.457,l,1,[],[],[],[],[],[],[],0.3916,1,433.4573,433.9505,,,,,,5,MAS,CON,150,tipo,,l,0.3916,,,,433.9505,433.9505,0.887962963,0.021296296,0,0,0,,0,237,237,4,1,,,,
,,,,,,010063256c19267ccc7ba307,66a626ef09d4e21e1a8894ec,67373fb6f09efe182c4096c0,2024-11-15_13h50.46.121,Tarea de género gramatical,2024.2.2,Win32,74.62686567,,,,,,,,,,,,,,,,,,,,,,433.9511,435.0309,a,1,[],[],[],[],[],[],[],0.4134,1,435.0309,435.5246,,,,,,345,FEM,DIS,150,pierna,el,a,0.4134,,,,435.5246,435.5246,0.887962963,0.021296296,0,0,0,,0,238,238,344,1,,,,
,,,,,,010063256c19267ccc7ba307,66a626ef09d4e21e1a8894ec,67373fb6f09efe182c4096c0,2024-11-15_13h50.46.121,Tarea de género gramatical,2024.2.2,Win32,74.62686567,,,,,,,,,,,,,,,,,,,,,,435.5252,436.685,l,1,[],[],[],[],[],[],[],0.4944,1,436.685,437.1784,,,,,,94,MAS,AGR,150,cabo,el,l,0.4944,,,,437.1784,437.1785,0.887962963,0.021296296,0,0,0,,0,239,239,93,1,,,,
,,,,,,010063256c19267ccc7ba307,66a626ef09d4e21e1a8894ec,67373fb6f09efe182c4096c0,2024-11-15_13h50.46.121,Tarea de género gramatical,2024.2.2,Win32,74.62686567,,,,,,,,,,,,,,,,,,,,,,437.179,438.2321,a,0,[],[],[],[],[],[],[],0.394,0,438.2325,438.7259,,,,,,59,MAS,CON,150,lobo,,l,0.394,,,,438.7266,438.727,0.887962963,0.021296296,0,0,0,,0,240,240,58,1,,,,
,,,,,,010063256c19267ccc7ba307,66a626ef09d4e21e1a8894ec,67373fb6f09efe182c4096c0,2024-11-15_13h50.46.121,Tarea de género gramatical,2024.2.2,Win32,74.62686567,,,,,,,,,,,,,,,,,,,,,,438.7274,439.7659,l,1,[],[],[],[],[],[],[],0.375,1,439.7663,440.2595,,,,,,270,MAS,DIS,150,queso,la,l,0.375,,,,440.2595,440.2595,0.887962963,0.021296296,0,0,0,,0,241,241,269,1,,,,
,,,,,,010063256c19267ccc7ba307,66a626ef09d4e21e1a8894ec,67373fb6f09efe182c4096c0,2024-11-15_13h50.46.121,Tarea de género gramatical,2024.2.2,Win32,74.62686567,,,,,,,,,,,,,,,,,,,,,,440.2601,441.4067,a,1,[],[],[],[],[],[],[],0.4804,1,441.4067,441.9003,,,,,,129,FEM,DIS,150,rana,el,a,0.4804,,,,441.9003,441.9004,0.887962963,0.021296296,0,0,0,,0,242,242,128,1,,,,
,,,,,,010063256c19267ccc7ba307,66a626ef09d4e21e1a8894ec,67373fb6f09efe182c4096c0,2024-11-15_13h50.46.121,Tarea de género gramatical,2024.2.2,Win32,74.62686567,,,,,,,,,,,,,,,,,,,,,,441.901,442.9406,l,1,[],[],[],[],[],[],[],0.3839,1,442.9406,443.4342,,,,,,324,MAS,DIS,150,cuarto,la,l,0.3839,,,,443.4342,443.4343,0.887962963,0.021296296,0,0,0,,0,243,243,323,1,,,,
,,,,,,010063256c19267ccc7ba307,66a626ef09d4e21e1a8894ec,67373fb6f09efe182c4096c0,2024-11-15_13h50.46.121,Tarea de género gramatical,2024.2.2,Win32,74.62686567,,,,,,,,,,,,,,,,,,,,,,443.435,444.4477,a,1,[],[],[],[],[],[],[],0.3533,1,444.4477,444.9415,,,,,,237,FEM,DIS,150,ducha,el,a,0.3533,,,,444.9415,444.9416,0.887962963,0.021296296,0,0,0,,0,244,244,236,1,,,,
,,,,,,010063256c19267ccc7ba307,66a626ef09d4e21e1a8894ec,67373fb6f09efe182c4096c0,2024-11-15_13h50.46.121,Tarea de género gramatical,2024.2.2,Win32,74.62686567,,,,,,,,,,,,,,,,,,,,,,444.9422,446.0216,l,1,[],[],[],[],[],[],[],0.4142,1,446.0216,446.5155,,,,,,66,MAS,DIS,150,muro,la,l,0.4142,,,,446.5161,446.5167,0.887962963,0.021296296,0,0,0,,0,245,245,65,1,,,,
,,,,,,010063256c19267ccc7ba307,66a626ef09d4e21e1a8894ec,67373fb6f09efe182c4096c0,2024-11-15_13h50.46.121,Tarea de género gramatical,2024.2.2,Win32,74.62686567,,,,,,,,,,,,,,,,,,,,,,446.517,447.6624,l,1,[],[],[],[],[],[],[],0.488,1,447.6625,448.1558,,,,,,209,MAS,CON,150,banco,,l,0.488,,,,448.1559,448.1559,0.887962963,0.021296296,0,0,0,,0,246,246,208,1,,,,
,,,,,,010063256c19267ccc7ba307,66a626ef09d4e21e1a8894ec,67373fb6f09efe182c4096c0,2024-11-15_13h50.46.121,Tarea de género gramatical,2024.2.2,Win32,74.62686567,,,,,,,,,,,,,,,,,,,,,,448.1565,449.1961,l,1,[],[],[],[],[],[],[],0.376,1,449.1961,449.6897,,,,,,407,MAS,CON,150,jurado,,l,0.376,,,,449.6897,449.6897,0.887962963,0.021296296,0,0,0,,0,247,247,406,1,,,,
,,,,,,010063256c19267ccc7ba307,66a626ef09d4e21e1a8894ec,67373fb6f09efe182c4096c0,2024-11-15_13h50.46.121,Tarea de género gramatical,2024.2.2,Win32,74.62686567,,,,,,,,,,,,,,,,,,,,,,449.6903,450.6367,l,0,[],[],[],[],[],[],[],0.2898,0,450.6371,451.1302,,,,,,195,FEM,DIS,150,pared,el,a,0.2898,,,,451.1302,451.1303,0.887962963,0.021296296,0,0,0,,0,248,248,194,1,,,,
,,,,,,010063256c19267ccc7ba307,66a626ef09d4e21e1a8894ec,67373fb6f09efe182c4096c0,2024-11-15_13h50.46.121,Tarea de género gramatical,2024.2.2,Win32,74.62686567,,,,,,,,,,,,,,,,,,,,,,451.1308,452.3173,l,1,[],[],[],[],[],[],[],0.529,1,452.3177,452.8111,,,,,,150,MAS,DIS,150,mozo,la,l,0.529,,,,452.8118,452.8122,0.887962963,0.021296296,0,0,0,,0,249,249,149,1,,,,
,,,,,,010063256c19267ccc7ba307,66a626ef09d4e21e1a8894ec,67373fb6f09efe182c4096c0,2024-11-15_13h50.46.121,Tarea de género gramatical,2024.2.2,Win32,74.62686567,,,,,,,,,,,,,,,,,,,,,,452.8126,453.8778,l,1,[],[],[],[],[],[],[],0.408,1,453.8779,454.3713,,,,,,449,MAS,CON,150,payaso,,l,0.408,,,,454.3714,454.3714,0.887962963,0.021296296,0,0,0,,0,250,250,448,1,,,,
,,,,,,010063256c19267ccc7ba307,66a626ef09d4e21e1a8894ec,67373fb6f09efe182c4096c0,2024-11-15_13h50.46.121,Tarea de género gramatical,2024.2.2,Win32,74.62686567,,,,,,,,,,,,,,,,,,,,,,454.372,455.5584,l,1,[],[],[],[],[],[],[],0.5277,1,455.5585,456.0522,,,,,,179,MAS,CON,150,viaje,,l,0.5277,,,,456.0523,456.0523,0.887962963,0.021296296,0,0,0,,0,251,251,178,1,,,,
,,,,,,010063256c19267ccc7ba307,66a626ef09d4e21e1a8894ec,67373fb6f09efe182c4096c0,2024-11-15_13h50.46.121,Tarea de género gramatical,2024.2.2,Win32,74.62686567,,,,,,,,,,,,,,,,,,,,,,456.0529,457.0657,a,1,[],[],[],[],[],[],[],0.3512,1,457.0657,457.5592,,,,,,242,FEM,CON,150,pizza,,a,0.3512,,,,457.5592,457.5592,0.887962963,0.021296296,0,0,0,,0,252,252,241,1,,,,
