counterbalancing_condition,consent_prescreening.block_1/declare_consent,consent_prescreening.block_1/age_years,consent_prescreening.block_1/gender,consent_prescreening.block_1/language_disorder,consent_prescreening.block_1/first_language,PROLIFIC_PID,STUDY_ID,SESSION_ID,date,expName,psychopyVersion,OS,frameRate,check_prescreening_answers.started,check_prescreening_answers.stopped,Instructions.started,Instructions.stopped,instr_done_keyboard.keys,instr_done_touch.x,instr_done_touch.y,instr_done_touch.leftButton,instr_done_touch.midButton,instr_done_touch.rightButton,instr_done_touch.clicked_name,instruction_pages.thisRepN,instruction_pages.thisTrialN,instruction_pages.thisN,instruction_pages.thisIndex,instruction_pages.ran,pageN,phase,instruct_text,has_image,instruct_image,presentTrial.started,presentTrial.stopped,response.keys,response.corr,touch_resp.x,touch_resp.y,touch_resp.leftButton,touch_resp.midButton,touch_resp.rightButton,touch_resp.time,touch_resp.clicked_name,rt,corr,feedback.started,feedback.stopped,practice_trials.thisRepN,practice_trials.thisTrialN,practice_trials.thisN,practice_trials.thisIndex,practice_trials.ran,TrialID,StimulusType,Condition,PrimeDuration,Prime,Flanker,corrAns,response.rt,response.duration,Break.started,Break.stopped,break_done_touch.x,break_done_touch.y,break_done_touch.leftButton,break_done_touch.midButton,break_done_touch.rightButton,break_done_keyboard.keys,experiment_trials.thisRepN,experiment_trials.thisTrialN,experiment_trials.thisN,experiment_trials.thisIndex,experiment_trials.ran,break_done_touch.clicked_name,End.started,End.stopped
2,"[""over_18"",""comfortable"",""read_info"",""consent_given""]",27,F,"[""none""]","[""spanish"",""english""]",0209798cfa4d4c8a9a80edc0,66a626ef09d4e21e1a8894ec,673497e7c4c3bab08113cbf1,2024-11-13_13h13.47.513,Tarea de género gramatical,2024.2.2,Win32,59.88023952,,,,,,,,,,,,,,,,,,,,,,,,,,,,,,,,,,,,,,,,,,,,,,,,,,,,,,,,,,,,,,,,,,
,,,,,,0209798cfa4d4c8a9a80edc0,66a626ef09d4e21e1a8894ec,673497e7c4c3bab08113cbf1,2024-11-13_13h13.47.513,Tarea de género gramatical,2024.2.2,Win32,59.88023952,19.9756,19.9757,,,,,,,,,,,,,,,,,,,,,,,,,,,,,,,,,,,,,,,,,,,,,,,,,,,,,,,,,,,,,,,,
,,,,,,0209798cfa4d4c8a9a80edc0,66a626ef09d4e21e1a8894ec,673497e7c4c3bab08113cbf1,2024-11-13_13h13.47.513,Tarea de género gramatical,2024.2.2,Win32,59.88023952,,,19.986,29.3501,,-0.01597219,-0.387500021,1,0,0,instr_done_button,0,0,0,0,1,1,instructions,"INSTRUCCIONES
Va a realizar una prueba de selección gramatical. Desde el comienzo de la prueba mire siempre al centro de la pantalla. Al cabo de un momento, aparecerán palabras. La tarea consiste en determinar si la palabra del centro (siempre será un sustantivo), pertenece al género masculino o femenino.

Pulse la tecla ESPACIO o toque el botón de abajo para continuar.",0,keyboardresponseMF.png,,,,,,,,,,,,,,,,,,,,,,,,,,,,,,,,,,,,,,,,,,,,,
,,,,,,0209798cfa4d4c8a9a80edc0,66a626ef09d4e21e1a8894ec,673497e7c4c3bab08113cbf1,2024-11-13_13h13.47.513,Tarea de género gramatical,2024.2.2,Win32,59.88023952,,,29.3514,40.1087,,0.059027778,-0.402777778,1,0,0,instr_done_button,0,1,1,1,1,2,instructions,"Si su dispositivo tiene teclado, pulse la tecla ""A"" para las palabras en masculino (por ejemplo: ""arroz"") y la tecla ""L"" para las palabras en femenino (por ejemplo: ""mano"").
Pulse la tecla ESPACIO o toque el botón de abajo para continuar.",1,keyboardresponseMF.png,,,,,,,,,,,,,,,,,,,,,,,,,,,,,,,,,,,,,,,,,,,,,
,,,,,,0209798cfa4d4c8a9a80edc0,66a626ef09d4e21e1a8894ec,673497e7c4c3bab08113cbf1,2024-11-13_13h13.47.513,Tarea de género gramatical,2024.2.2,Win32,59.88023952,,,40.1098,44.6125,,0.065972222,-0.381250011,1,0,0,instr_done_button,0,2,2,2,1,3,instructions,"Si utiliza un dispositivo sólo táctil, colóquelo en horizontal y utilice los botones de la pantalla. No utilice el ratón.
Pulse la tecla ESPACIO o toque el botón de abajo para continuar.",2,touchresponseMF.png,,,,,,,,,,,,,,,,,,,,,,,,,,,,,,,,,,,,,,,,,,,,,
,,,,,,0209798cfa4d4c8a9a80edc0,66a626ef09d4e21e1a8894ec,673497e7c4c3bab08113cbf1,2024-11-13_13h13.47.513,Tarea de género gramatical,2024.2.2,Win32,59.88023952,,,44.6138,52.9861,,0.060416645,-0.397222201,1,0,0,instr_done_button,0,3,3,3,1,4,instructions,"Es muy importante que responda con la mayor rapidez y precisión posibles, ya que cada cadena de letras sólo estará en pantalla durante un instante. Si no responde en ese tiempo, aparecerá el mensaje ""Muy lento"" y el experimento pasará a la siguiente palabra. Los primeros 15 intentos serán de práctica y habrá dos descansos durante la prueba.
Pulse la tecla ESPACIO o toque el botón de abajo para iniciar la parte de práctica.",0,keyboardresponseMF.png,,,,,,,,,,,,,,,,,,,,,,,,,,,,,,,,,,,,,,,,,,,,,
,,,,,,0209798cfa4d4c8a9a80edc0,66a626ef09d4e21e1a8894ec,673497e7c4c3bab08113cbf1,2024-11-13_13h13.47.513,Tarea de género gramatical,2024.2.2,Win32,59.88023952,,,,,,,,,,,,,,,,,,,,,,52.994,55.6385,,0,[],[],[],[],[],[],[],,-1,55.6387,56.1387,0,0,0,1,1,2002,FEM,CON,150,pala,,a,,,,,,,,,,,,,,,,,,
,,,,,,0209798cfa4d4c8a9a80edc0,66a626ef09d4e21e1a8894ec,673497e7c4c3bab08113cbf1,2024-11-13_13h13.47.513,Tarea de género gramatical,2024.2.2,Win32,59.88023952,,,,,,,,,,,,,,,,,,,,,,56.1397,58.7908,,0,[],[],[],[],[],[],[],,-1,58.7909,59.2914,0,1,1,12,1,2013,MAS,AGR,150,acero,el,l,,,,,,,,,,,,,,,,,,
,,,,,,0209798cfa4d4c8a9a80edc0,66a626ef09d4e21e1a8894ec,673497e7c4c3bab08113cbf1,2024-11-13_13h13.47.513,Tarea de género gramatical,2024.2.2,Win32,59.88023952,,,,,,,,,,,,,,,,,,,,,,59.2924,60.8092,a,1,[],[],[],[],[],[],[],0.8631,1,60.8119,61.3095,0,2,2,13,1,2014,MAS,CON,150,siglo,,l,0.8631,,,,,,,,,,,,,,,,,
,,,,,,0209798cfa4d4c8a9a80edc0,66a626ef09d4e21e1a8894ec,673497e7c4c3bab08113cbf1,2024-11-13_13h13.47.513,Tarea de género gramatical,2024.2.2,Win32,59.88023952,,,,,,,,,,,,,,,,,,,,,,61.3103,62.5439,l,0,[],[],[],[],[],[],[],0.5707,0,62.5446,63.0445,0,3,3,8,1,2009,MAS,DIS,150,puerto,la,l,0.5707,,,,,,,,,,,,,,,,,
,,,,,,0209798cfa4d4c8a9a80edc0,66a626ef09d4e21e1a8894ec,673497e7c4c3bab08113cbf1,2024-11-13_13h13.47.513,Tarea de género gramatical,2024.2.2,Win32,59.88023952,,,,,,,,,,,,,,,,,,,,,,63.0453,64.6123,l,1,[],[],[],[],[],[],[],0.901,1,64.6127,65.1127,0,4,4,0,1,2001,FEM,AGR,150,nuca,la,a,0.901,,,,,,,,,,,,,,,,,
,,,,,,0209798cfa4d4c8a9a80edc0,66a626ef09d4e21e1a8894ec,673497e7c4c3bab08113cbf1,2024-11-13_13h13.47.513,Tarea de género gramatical,2024.2.2,Win32,59.88023952,,,,,,,,,,,,,,,,,,,,,,65.1134,66.5305,a,1,[],[],[],[],[],[],[],0.7599,1,66.5307,67.031,0,5,5,11,1,2012,MAS,DIS,150,clima,la,l,0.7599,,,,,,,,,,,,,,,,,
,,,,,,0209798cfa4d4c8a9a80edc0,66a626ef09d4e21e1a8894ec,673497e7c4c3bab08113cbf1,2024-11-13_13h13.47.513,Tarea de género gramatical,2024.2.2,Win32,59.88023952,,,,,,,,,,,,,,,,,,,,,,67.0316,68.2153,l,1,[],[],[],[],[],[],[],0.516,1,68.2154,68.7157,0,6,6,4,1,2005,FEM,CON,150,placa,,a,0.516,,,,,,,,,,,,,,,,,
,,,,,,0209798cfa4d4c8a9a80edc0,66a626ef09d4e21e1a8894ec,673497e7c4c3bab08113cbf1,2024-11-13_13h13.47.513,Tarea de género gramatical,2024.2.2,Win32,59.88023952,,,,,,,,,,,,,,,,,,,,,,68.7163,69.9667,l,1,[],[],[],[],[],[],[],0.5947,1,69.9668,70.4671,0,7,7,2,1,2003,FEM,DIS,150,daga,el,a,0.5947,,,,,,,,,,,,,,,,,
,,,,,,0209798cfa4d4c8a9a80edc0,66a626ef09d4e21e1a8894ec,673497e7c4c3bab08113cbf1,2024-11-13_13h13.47.513,Tarea de género gramatical,2024.2.2,Win32,59.88023952,,,,,,,,,,,,,,,,,,,,,,70.4676,71.5347,l,0,[],[],[],[],[],[],[],0.4132,0,71.535,72.0351,0,8,8,10,1,2011,MAS,CON,150,canal,,l,0.4132,,,,,,,,,,,,,,,,,
,,,,,,0209798cfa4d4c8a9a80edc0,66a626ef09d4e21e1a8894ec,673497e7c4c3bab08113cbf1,2024-11-13_13h13.47.513,Tarea de género gramatical,2024.2.2,Win32,59.88023952,,,,,,,,,,,,,,,,,,,,,,72.0358,73.4029,a,1,[],[],[],[],[],[],[],0.702,1,73.4033,73.9034,0,9,9,14,1,2015,MAS,DIS,150,robot,la,l,0.702,,,,,,,,,,,,,,,,,
,,,,,,0209798cfa4d4c8a9a80edc0,66a626ef09d4e21e1a8894ec,673497e7c4c3bab08113cbf1,2024-11-13_13h13.47.513,Tarea de género gramatical,2024.2.2,Win32,59.88023952,,,,,,,,,,,,,,,,,,,,,,73.904,75.0543,l,1,[],[],[],[],[],[],[],0.4838,1,75.0543,75.5547,0,10,10,3,1,2004,FEM,AGR,150,venta,la,a,0.4838,,,,,,,,,,,,,,,,,
,,,,,,0209798cfa4d4c8a9a80edc0,66a626ef09d4e21e1a8894ec,673497e7c4c3bab08113cbf1,2024-11-13_13h13.47.513,Tarea de género gramatical,2024.2.2,Win32,59.88023952,,,,,,,,,,,,,,,,,,,,,,75.5551,76.7724,l,1,[],[],[],[],[],[],[],0.5545,1,76.7725,77.273,0,11,11,7,1,2008,FEM,CON,150,siesta,,a,0.5545,,,,,,,,,,,,,,,,,
,,,,,,0209798cfa4d4c8a9a80edc0,66a626ef09d4e21e1a8894ec,673497e7c4c3bab08113cbf1,2024-11-13_13h13.47.513,Tarea de género gramatical,2024.2.2,Win32,59.88023952,,,,,,,,,,,,,,,,,,,,,,77.2735,78.5571,l,1,[],[],[],[],[],[],[],0.6006,1,78.5572,79.0577,0,12,12,5,1,2006,FEM,DIS,150,serie,el,a,0.6006,,,,,,,,,,,,,,,,,
,,,,,,0209798cfa4d4c8a9a80edc0,66a626ef09d4e21e1a8894ec,673497e7c4c3bab08113cbf1,2024-11-13_13h13.47.513,Tarea de género gramatical,2024.2.2,Win32,59.88023952,,,,,,,,,,,,,,,,,,,,,,79.0583,80.1586,a,1,[],[],[],[],[],[],[],0.44,1,80.1586,80.659,0,13,13,9,1,2010,MAS,AGR,150,vecino,el,l,0.44,,,,,,,,,,,,,,,,,
,,,,,,0209798cfa4d4c8a9a80edc0,66a626ef09d4e21e1a8894ec,673497e7c4c3bab08113cbf1,2024-11-13_13h13.47.513,Tarea de género gramatical,2024.2.2,Win32,59.88023952,,,,,,,,,,,,,,,,,,,,,,80.6596,82.0768,l,1,[],[],[],[],[],[],[],0.7585,1,82.0768,82.5771,0,14,14,6,1,2007,FEM,AGR,150,navaja,la,a,0.7585,,,,,,,,,,,,,,,,,
,,,,,,0209798cfa4d4c8a9a80edc0,66a626ef09d4e21e1a8894ec,673497e7c4c3bab08113cbf1,2024-11-13_13h13.47.513,Tarea de género gramatical,2024.2.2,Win32,59.88023952,,,88.1332,91.4513,,0.095138868,-0.393055598,1,0,0,instr_done_button,,,,,,,,,,,91.4721,94.1202,,0,[],[],[],[],[],[],[],0.7585,-1,94.1207,94.6205,,,,,,1110,MAS,CON,150,baile,,l,,,94.6207,94.6227,0.75486109,-0.359722243,0,0,0,,0,0,0,209,1,,,
,,,,,,0209798cfa4d4c8a9a80edc0,66a626ef09d4e21e1a8894ec,673497e7c4c3bab08113cbf1,2024-11-13_13h13.47.513,Tarea de género gramatical,2024.2.2,Win32,59.88023952,,,,,,,,,,,,,,,,,,,,,,94.6232,96.1551,l,1,[],[],[],[],[],[],[],0.8546,1,96.1556,96.6556,,,,,,1093,FEM,DIS,150,bolsa,el,a,0.8546,,96.6557,96.6557,0.75486109,-0.359722243,0,0,0,,0,1,1,192,1,,,
,,,,,,0209798cfa4d4c8a9a80edc0,66a626ef09d4e21e1a8894ec,673497e7c4c3bab08113cbf1,2024-11-13_13h13.47.513,Tarea de género gramatical,2024.2.2,Win32,59.88023952,,,,,,,,,,,,,,,,,,,,,,96.6562,97.7731,a,1,[],[],[],[],[],[],[],0.4375,1,97.7731,98.2735,,,,,,1182,MAS,CON,150,bolso,,l,0.4375,,98.2741,98.2745,0.75486109,-0.359722243,0,0,0,,0,2,2,281,1,,,
,,,,,,0209798cfa4d4c8a9a80edc0,66a626ef09d4e21e1a8894ec,673497e7c4c3bab08113cbf1,2024-11-13_13h13.47.513,Tarea de género gramatical,2024.2.2,Win32,59.88023952,,,,,,,,,,,,,,,,,,,,,,98.2748,99.3411,l,1,[],[],[],[],[],[],[],0.3857,1,99.3411,99.8415,,,,,,1148,FEM,AGR,150,letra,la,a,0.3857,,99.8415,99.8416,0.75486109,-0.359722243,0,0,0,,0,3,3,247,1,,,
,,,,,,0209798cfa4d4c8a9a80edc0,66a626ef09d4e21e1a8894ec,673497e7c4c3bab08113cbf1,2024-11-13_13h13.47.513,Tarea de género gramatical,2024.2.2,Win32,59.88023952,,,,,,,,,,,,,,,,,,,,,,99.8421,101.0762,l,1,[],[],[],[],[],[],[],0.5694,1,101.0762,101.5763,,,,,,1315,FEM,DIS,150,cabina,el,a,0.5694,,101.5763,101.5764,0.75486109,-0.359722243,0,0,0,,0,4,4,414,1,,,
,,,,,,0209798cfa4d4c8a9a80edc0,66a626ef09d4e21e1a8894ec,673497e7c4c3bab08113cbf1,2024-11-13_13h13.47.513,Tarea de género gramatical,2024.2.2,Win32,59.88023952,,,,,,,,,,,,,,,,,,,,,,101.5768,102.6272,l,1,[],[],[],[],[],[],[],0.3965,1,102.6272,103.1277,,,,,,1166,FEM,AGR,150,jaula,la,a,0.3965,,103.1277,103.1278,0.75486109,-0.359722243,0,0,0,,0,5,5,265,1,,,
,,,,,,0209798cfa4d4c8a9a80edc0,66a626ef09d4e21e1a8894ec,673497e7c4c3bab08113cbf1,2024-11-13_13h13.47.513,Tarea de género gramatical,2024.2.2,Win32,59.88023952,,,,,,,,,,,,,,,,,,,,,,103.1284,104.3286,a,1,[],[],[],[],[],[],[],0.5464,1,104.3286,104.829,,,,,,1044,MAS,CON,150,amor,,l,0.5464,,104.8297,104.8302,0.75486109,-0.359722243,0,0,0,,0,6,6,143,1,,,
,,,,,,0209798cfa4d4c8a9a80edc0,66a626ef09d4e21e1a8894ec,673497e7c4c3bab08113cbf1,2024-11-13_13h13.47.513,Tarea de género gramatical,2024.2.2,Win32,59.88023952,,,,,,,,,,,,,,,,,,,,,,104.8304,105.9134,a,1,[],[],[],[],[],[],[],0.4122,1,105.9135,106.4138,,,,,,935,MAS,AGR,150,taxi,el,l,0.4122,,106.4138,106.4139,0.75486109,-0.359722243,0,0,0,,0,7,7,34,1,,,
,,,,,,0209798cfa4d4c8a9a80edc0,66a626ef09d4e21e1a8894ec,673497e7c4c3bab08113cbf1,2024-11-13_13h13.47.513,Tarea de género gramatical,2024.2.2,Win32,59.88023952,,,,,,,,,,,,,,,,,,,,,,106.4144,107.698,a,1,[],[],[],[],[],[],[],0.621,1,107.698,108.1984,,,,,,1264,MAS,DIS,150,viento,la,l,0.621,,108.1984,108.1985,0.75486109,-0.359722243,0,0,0,,0,8,8,363,1,,,
,,,,,,0209798cfa4d4c8a9a80edc0,66a626ef09d4e21e1a8894ec,673497e7c4c3bab08113cbf1,2024-11-13_13h13.47.513,Tarea de género gramatical,2024.2.2,Win32,59.88023952,,,,,,,,,,,,,,,,,,,,,,108.199,109.1658,l,1,[],[],[],[],[],[],[],0.3092,1,109.1659,109.6663,,,,,,939,FEM,CON,150,luna,,a,0.3092,,109.6663,109.6664,0.75486109,-0.359722243,0,0,0,,0,9,9,38,1,,,
,,,,,,0209798cfa4d4c8a9a80edc0,66a626ef09d4e21e1a8894ec,673497e7c4c3bab08113cbf1,2024-11-13_13h13.47.513,Tarea de género gramatical,2024.2.2,Win32,59.88023952,,,,,,,,,,,,,,,,,,,,,,109.6669,110.8339,a,1,[],[],[],[],[],[],[],0.4998,1,110.834,111.3344,,,,,,1186,MAS,DIS,150,reino,la,l,0.4998,,111.3344,111.3344,0.75486109,-0.359722243,0,0,0,,0,10,10,285,1,,,
,,,,,,0209798cfa4d4c8a9a80edc0,66a626ef09d4e21e1a8894ec,673497e7c4c3bab08113cbf1,2024-11-13_13h13.47.513,Tarea de género gramatical,2024.2.2,Win32,59.88023952,,,,,,,,,,,,,,,,,,,,,,111.3349,112.4187,l,1,[],[],[],[],[],[],[],0.4159,1,112.4187,112.919,,,,,,1309,FEM,DIS,150,moneda,el,a,0.4159,,112.9197,112.9201,0.75486109,-0.359722243,0,0,0,,0,11,11,408,1,,,
,,,,,,0209798cfa4d4c8a9a80edc0,66a626ef09d4e21e1a8894ec,673497e7c4c3bab08113cbf1,2024-11-13_13h13.47.513,Tarea de género gramatical,2024.2.2,Win32,59.88023952,,,,,,,,,,,,,,,,,,,,,,112.9203,113.9031,l,1,[],[],[],[],[],[],[],0.3083,1,113.9032,114.4037,,,,,,1059,FEM,CON,150,clase,,a,0.3083,,114.4037,114.4038,0.75486109,-0.359722243,0,0,0,,0,12,12,158,1,,,
,,,,,,0209798cfa4d4c8a9a80edc0,66a626ef09d4e21e1a8894ec,673497e7c4c3bab08113cbf1,2024-11-13_13h13.47.513,Tarea de género gramatical,2024.2.2,Win32,59.88023952,,,,,,,,,,,,,,,,,,,,,,114.4044,115.4213,a,1,[],[],[],[],[],[],[],0.3493,1,115.4214,115.9215,,,,,,1200,MAS,CON,150,túnel,,l,0.3493,,115.9215,115.9215,0.75486109,-0.359722243,0,0,0,,0,13,13,299,1,,,
,,,,,,0209798cfa4d4c8a9a80edc0,66a626ef09d4e21e1a8894ec,673497e7c4c3bab08113cbf1,2024-11-13_13h13.47.513,Tarea de género gramatical,2024.2.2,Win32,59.88023952,,,,,,,,,,,,,,,,,,,,,,115.922,117.1558,l,1,[],[],[],[],[],[],[],0.5769,1,117.1559,117.6562,,,,,,967,FEM,DIS,150,miel,el,a,0.5769,,117.6563,117.6563,0.75486109,-0.359722243,0,0,0,,0,14,14,66,1,,,
,,,,,,0209798cfa4d4c8a9a80edc0,66a626ef09d4e21e1a8894ec,673497e7c4c3bab08113cbf1,2024-11-13_13h13.47.513,Tarea de género gramatical,2024.2.2,Win32,59.88023952,,,,,,,,,,,,,,,,,,,,,,117.6568,119.0241,a,1,[],[],[],[],[],[],[],0.7065,1,119.0241,119.5245,,,,,,1019,MAS,AGR,150,mito,el,l,0.7065,,119.5252,119.5255,0.75486109,-0.359722243,0,0,0,,0,15,15,118,1,,,
,,,,,,0209798cfa4d4c8a9a80edc0,66a626ef09d4e21e1a8894ec,673497e7c4c3bab08113cbf1,2024-11-13_13h13.47.513,Tarea de género gramatical,2024.2.2,Win32,59.88023952,,,,,,,,,,,,,,,,,,,,,,119.5259,120.6921,a,1,[],[],[],[],[],[],[],0.4878,1,120.6921,121.1927,,,,,,1308,MAS,CON,150,cheque,,l,0.4878,,121.1927,121.1927,0.75486109,-0.359722243,0,0,0,,0,16,16,407,1,,,
,,,,,,0209798cfa4d4c8a9a80edc0,66a626ef09d4e21e1a8894ec,673497e7c4c3bab08113cbf1,2024-11-13_13h13.47.513,Tarea de género gramatical,2024.2.2,Win32,59.88023952,,,,,,,,,,,,,,,,,,,,,,121.1931,122.6937,a,1,[],[],[],[],[],[],[],0.8405,1,122.6938,123.1942,,,,,,1038,MAS,CON,150,luto,,l,0.8405,,123.1942,123.1942,0.75486109,-0.359722243,0,0,0,,0,17,17,137,1,,,
,,,,,,0209798cfa4d4c8a9a80edc0,66a626ef09d4e21e1a8894ec,673497e7c4c3bab08113cbf1,2024-11-13_13h13.47.513,Tarea de género gramatical,2024.2.2,Win32,59.88023952,,,,,,,,,,,,,,,,,,,,,,123.1947,124.4452,a,1,[],[],[],[],[],[],[],0.5847,1,124.4453,124.9459,,,,,,1174,MAS,DIS,150,motor,la,l,0.5847,,124.9459,124.9459,0.75486109,-0.359722243,0,0,0,,0,18,18,273,1,,,
,,,,,,0209798cfa4d4c8a9a80edc0,66a626ef09d4e21e1a8894ec,673497e7c4c3bab08113cbf1,2024-11-13_13h13.47.513,Tarea de género gramatical,2024.2.2,Win32,59.88023952,,,,,,,,,,,,,,,,,,,,,,124.9466,126.13,a,1,[],[],[],[],[],[],[],0.5076,1,126.13,126.6303,,,,,,1031,MAS,AGR,150,kilo,el,l,0.5076,,126.6303,126.6304,0.75486109,-0.359722243,0,0,0,,0,19,19,130,1,,,
,,,,,,0209798cfa4d4c8a9a80edc0,66a626ef09d4e21e1a8894ec,673497e7c4c3bab08113cbf1,2024-11-13_13h13.47.513,Tarea de género gramatical,2024.2.2,Win32,59.88023952,,,,,,,,,,,,,,,,,,,,,,126.6308,127.6312,l,1,[],[],[],[],[],[],[],0.3406,1,127.6312,128.1316,,,,,,1197,FEM,CON,150,manta,,a,0.3406,,128.1322,128.1326,0.75486109,-0.359722243,0,0,0,,0,20,20,296,1,,,
,,,,,,0209798cfa4d4c8a9a80edc0,66a626ef09d4e21e1a8894ec,673497e7c4c3bab08113cbf1,2024-11-13_13h13.47.513,Tarea de género gramatical,2024.2.2,Win32,59.88023952,,,,,,,,,,,,,,,,,,,,,,128.1328,129.1491,a,1,[],[],[],[],[],[],[],0.3407,1,129.1492,129.6495,,,,,,1098,MAS,CON,150,hotel,,l,0.3407,,129.6496,129.6496,0.75486109,-0.359722243,0,0,0,,0,21,21,197,1,,,
,,,,,,0209798cfa4d4c8a9a80edc0,66a626ef09d4e21e1a8894ec,673497e7c4c3bab08113cbf1,2024-11-13_13h13.47.513,Tarea de género gramatical,2024.2.2,Win32,59.88023952,,,,,,,,,,,,,,,,,,,,,,129.6501,130.7171,a,1,[],[],[],[],[],[],[],0.4005,1,130.7171,131.2176,,,,,,917,MAS,AGR,150,modo,el,l,0.4005,,131.2176,131.2177,0.75486109,-0.359722243,0,0,0,,0,22,22,16,1,,,
,,,,,,0209798cfa4d4c8a9a80edc0,66a626ef09d4e21e1a8894ec,673497e7c4c3bab08113cbf1,2024-11-13_13h13.47.513,Tarea de género gramatical,2024.2.2,Win32,59.88023952,,,,,,,,,,,,,,,,,,,,,,131.2182,132.3184,l,1,[],[],[],[],[],[],[],0.4328,1,132.3184,132.819,,,,,,1045,FEM,DIS,150,bota,el,a,0.4328,,132.819,132.819,0.75486109,-0.359722243,0,0,0,,0,23,23,144,1,,,
,,,,,,0209798cfa4d4c8a9a80edc0,66a626ef09d4e21e1a8894ec,673497e7c4c3bab08113cbf1,2024-11-13_13h13.47.513,Tarea de género gramatical,2024.2.2,Win32,59.88023952,,,,,,,,,,,,,,,,,,,,,,132.8196,133.8697,l,1,[],[],[],[],[],[],[],0.3837,1,133.8697,134.3712,,,,,,1304,FEM,AGR,150,gloria,la,a,0.3837,,134.3719,134.3722,0.75486109,-0.359722243,0,0,0,,0,24,24,403,1,,,
,,,,,,0209798cfa4d4c8a9a80edc0,66a626ef09d4e21e1a8894ec,673497e7c4c3bab08113cbf1,2024-11-13_13h13.47.513,Tarea de género gramatical,2024.2.2,Win32,59.88023952,,,,,,,,,,,,,,,,,,,,,,134.3726,135.5711,a,0,[],[],[],[],[],[],[],0.519,0,135.5715,136.0714,,,,,,1099,FEM,DIS,150,nariz,el,a,0.519,,136.0715,136.0715,0.75486109,-0.359722243,0,0,0,,0,25,25,198,1,,,
,,,,,,0209798cfa4d4c8a9a80edc0,66a626ef09d4e21e1a8894ec,673497e7c4c3bab08113cbf1,2024-11-13_13h13.47.513,Tarea de género gramatical,2024.2.2,Win32,59.88023952,,,,,,,,,,,,,,,,,,,,,,136.072,137.4061,l,1,[],[],[],[],[],[],[],0.6751,1,137.4065,137.9063,,,,,,1160,FEM,AGR,150,barra,la,a,0.6751,,137.9064,137.9064,0.75486109,-0.359722243,0,0,0,,0,26,26,259,1,,,
,,,,,,0209798cfa4d4c8a9a80edc0,66a626ef09d4e21e1a8894ec,673497e7c4c3bab08113cbf1,2024-11-13_13h13.47.513,Tarea de género gramatical,2024.2.2,Win32,59.88023952,,,,,,,,,,,,,,,,,,,,,,137.9069,139.074,l,1,[],[],[],[],[],[],[],0.5016,1,139.074,139.5744,,,,,,1089,FEM,CON,150,pista,,a,0.5016,,139.5744,139.5745,0.75486109,-0.359722243,0,0,0,,0,27,27,188,1,,,
,,,,,,0209798cfa4d4c8a9a80edc0,66a626ef09d4e21e1a8894ec,673497e7c4c3bab08113cbf1,2024-11-13_13h13.47.513,Tarea de género gramatical,2024.2.2,Win32,59.88023952,,,,,,,,,,,,,,,,,,,,,,139.5751,140.7086,a,1,[],[],[],[],[],[],[],0.4732,1,140.7087,141.2091,,,,,,978,MAS,CON,150,oído,,l,0.4732,,141.2091,141.2091,0.75486109,-0.359722243,0,0,0,,0,28,28,77,1,,,
,,,,,,0209798cfa4d4c8a9a80edc0,66a626ef09d4e21e1a8894ec,673497e7c4c3bab08113cbf1,2024-11-13_13h13.47.513,Tarea de género gramatical,2024.2.2,Win32,59.88023952,,,,,,,,,,,,,,,,,,,,,,141.2096,142.5102,l,1,[],[],[],[],[],[],[],0.6387,1,142.5102,143.0106,,,,,,1327,FEM,DIS,150,agenda,el,a,0.6387,,143.0113,143.0116,0.75486109,-0.359722243,0,0,0,,0,29,29,426,1,,,
,,,,,,0209798cfa4d4c8a9a80edc0,66a626ef09d4e21e1a8894ec,673497e7c4c3bab08113cbf1,2024-11-13_13h13.47.513,Tarea de género gramatical,2024.2.2,Win32,59.88023952,,,,,,,,,,,,,,,,,,,,,,143.0119,144.2283,l,1,[],[],[],[],[],[],[],0.5349,1,144.2284,144.7291,,,,,,1015,FEM,DIS,150,seda,el,a,0.5349,,144.7292,144.7293,0.75486109,-0.359722243,0,0,0,,0,30,30,114,1,,,
,,,,,,0209798cfa4d4c8a9a80edc0,66a626ef09d4e21e1a8894ec,673497e7c4c3bab08113cbf1,2024-11-13_13h13.47.513,Tarea de género gramatical,2024.2.2,Win32,59.88023952,,,,,,,,,,,,,,,,,,,,,,144.7302,145.7962,l,1,[],[],[],[],[],[],[],0.3967,1,145.7962,146.2968,,,,,,1286,FEM,AGR,150,sombra,la,a,0.3967,,146.2968,146.2969,0.75486109,-0.359722243,0,0,0,,0,31,31,385,1,,,
,,,,,,0209798cfa4d4c8a9a80edc0,66a626ef09d4e21e1a8894ec,673497e7c4c3bab08113cbf1,2024-11-13_13h13.47.513,Tarea de género gramatical,2024.2.2,Win32,59.88023952,,,,,,,,,,,,,,,,,,,,,,146.2975,147.3475,a,1,[],[],[],[],[],[],[],0.3904,1,147.3475,147.848,,,,,,1032,MAS,CON,150,velo,,l,0.3904,,147.848,147.8481,0.75486109,-0.359722243,0,0,0,,0,32,32,131,1,,,
,,,,,,0209798cfa4d4c8a9a80edc0,66a626ef09d4e21e1a8894ec,673497e7c4c3bab08113cbf1,2024-11-13_13h13.47.513,Tarea de género gramatical,2024.2.2,Win32,59.88023952,,,,,,,,,,,,,,,,,,,,,,147.8487,149.0656,a,1,[],[],[],[],[],[],[],0.56,1,149.0656,149.566,,,,,,1140,MAS,CON,150,ruido,,l,0.56,,149.5667,149.567,0.75486109,-0.359722243,0,0,0,,0,33,33,239,1,,,
,,,,,,0209798cfa4d4c8a9a80edc0,66a626ef09d4e21e1a8894ec,673497e7c4c3bab08113cbf1,2024-11-13_13h13.47.513,Tarea de género gramatical,2024.2.2,Win32,59.88023952,,,,,,,,,,,,,,,,,,,,,,149.5673,150.5669,l,1,[],[],[],[],[],[],[],0.3195,1,150.5669,151.0673,,,,,,1040,FEM,AGR,150,mula,la,a,0.3195,,151.0673,151.0673,0.75486109,-0.359722243,0,0,0,,0,34,34,139,1,,,
,,,,,,0209798cfa4d4c8a9a80edc0,66a626ef09d4e21e1a8894ec,673497e7c4c3bab08113cbf1,2024-11-13_13h13.47.513,Tarea de género gramatical,2024.2.2,Win32,59.88023952,,,,,,,,,,,,,,,,,,,,,,151.0678,152.1348,a,1,[],[],[],[],[],[],[],0.4006,1,152.1349,152.6352,,,,,,1206,MAS,CON,150,dinero,,l,0.4006,,152.6353,152.6353,0.75486109,-0.359722243,0,0,0,,0,35,35,305,1,,,
,,,,,,0209798cfa4d4c8a9a80edc0,66a626ef09d4e21e1a8894ec,673497e7c4c3bab08113cbf1,2024-11-13_13h13.47.513,Tarea de género gramatical,2024.2.2,Win32,59.88023952,,,,,,,,,,,,,,,,,,,,,,152.6357,153.7694,a,1,[],[],[],[],[],[],[],0.4756,1,153.7695,154.2699,,,,,,953,MAS,AGR,150,vaso,el,l,0.4756,,154.2699,154.27,0.75486109,-0.359722243,0,0,0,,0,36,36,52,1,,,
,,,,,,0209798cfa4d4c8a9a80edc0,66a626ef09d4e21e1a8894ec,673497e7c4c3bab08113cbf1,2024-11-13_13h13.47.513,Tarea de género gramatical,2024.2.2,Win32,59.88023952,,,,,,,,,,,,,,,,,,,,,,154.2705,155.3708,a,0,[],[],[],[],[],[],[],0.4353,0,155.3713,155.8712,,,,,,986,FEM,AGR,150,cruz,la,a,0.4353,,155.8712,155.8713,0.75486109,-0.359722243,0,0,0,,0,37,37,85,1,,,
,,,,,,0209798cfa4d4c8a9a80edc0,66a626ef09d4e21e1a8894ec,673497e7c4c3bab08113cbf1,2024-11-13_13h13.47.513,Tarea de género gramatical,2024.2.2,Win32,59.88023952,,,,,,,,,,,,,,,,,,,,,,155.8719,157.0055,a,1,[],[],[],[],[],[],[],0.4789,1,157.0059,157.5061,,,,,,966,MAS,CON,150,muro,,l,0.4789,,157.5067,157.5071,0.75486109,-0.359722243,0,0,0,,0,38,38,65,1,,,
,,,,,,0209798cfa4d4c8a9a80edc0,66a626ef09d4e21e1a8894ec,673497e7c4c3bab08113cbf1,2024-11-13_13h13.47.513,Tarea de género gramatical,2024.2.2,Win32,59.88023952,,,,,,,,,,,,,,,,,,,,,,157.5073,158.5401,l,1,[],[],[],[],[],[],[],0.3585,1,158.5401,159.0405,,,,,,1238,FEM,AGR,150,abuela,la,a,0.3585,,159.0406,159.0406,0.75486109,-0.359722243,0,0,0,,0,39,39,337,1,,,
,,,,,,0209798cfa4d4c8a9a80edc0,66a626ef09d4e21e1a8894ec,673497e7c4c3bab08113cbf1,2024-11-13_13h13.47.513,Tarea de género gramatical,2024.2.2,Win32,59.88023952,,,,,,,,,,,,,,,,,,,,,,159.0411,160.0747,a,1,[],[],[],[],[],[],[],0.3763,1,160.0748,160.5751,,,,,,912,MAS,CON,150,plan,,l,0.3763,,160.5752,160.5752,0.75486109,-0.359722243,0,0,0,,0,40,40,11,1,,,
,,,,,,0209798cfa4d4c8a9a80edc0,66a626ef09d4e21e1a8894ec,673497e7c4c3bab08113cbf1,2024-11-13_13h13.47.513,Tarea de género gramatical,2024.2.2,Win32,59.88023952,,,,,,,,,,,,,,,,,,,,,,160.5757,161.7094,a,1,[],[],[],[],[],[],[],0.481,1,161.7095,162.2098,,,,,,964,MAS,DIS,150,saco,la,l,0.481,,162.2098,162.2099,0.75486109,-0.359722243,0,0,0,,0,41,41,63,1,,,
,,,,,,0209798cfa4d4c8a9a80edc0,66a626ef09d4e21e1a8894ec,673497e7c4c3bab08113cbf1,2024-11-13_13h13.47.513,Tarea de género gramatical,2024.2.2,Win32,59.88023952,,,,,,,,,,,,,,,,,,,,,,162.2104,163.2275,l,1,[],[],[],[],[],[],[],0.3543,1,163.2275,163.7277,,,,,,1233,FEM,CON,150,locura,,a,0.3543,,163.7282,163.7286,0.75486109,-0.359722243,0,0,0,,0,42,42,332,1,,,
,,,,,,0209798cfa4d4c8a9a80edc0,66a626ef09d4e21e1a8894ec,673497e7c4c3bab08113cbf1,2024-11-13_13h13.47.513,Tarea de género gramatical,2024.2.2,Win32,59.88023952,,,,,,,,,,,,,,,,,,,,,,163.7289,165.0121,l,1,[],[],[],[],[],[],[],0.6148,1,165.0121,165.5125,,,,,,1311,FEM,CON,150,actriz,,a,0.6148,,165.5125,165.5126,0.75486109,-0.359722243,0,0,0,,0,43,43,410,1,,,
,,,,,,0209798cfa4d4c8a9a80edc0,66a626ef09d4e21e1a8894ec,673497e7c4c3bab08113cbf1,2024-11-13_13h13.47.513,Tarea de género gramatical,2024.2.2,Win32,59.88023952,,,,,,,,,,,,,,,,,,,,,,165.5131,166.6802,l,1,[],[],[],[],[],[],[],0.5108,1,166.6802,167.1806,,,,,,980,FEM,AGR,150,vaca,la,a,0.5108,,167.1806,167.1807,0.75486109,-0.359722243,0,0,0,,0,44,44,79,1,,,
,,,,,,0209798cfa4d4c8a9a80edc0,66a626ef09d4e21e1a8894ec,673497e7c4c3bab08113cbf1,2024-11-13_13h13.47.513,Tarea de género gramatical,2024.2.2,Win32,59.88023952,,,,,,,,,,,,,,,,,,,,,,167.1812,168.2982,a,0,[],[],[],[],[],[],[],0.4557,0,168.2986,168.7988,,,,,,955,FEM,DIS,150,taza,el,a,0.4557,,168.7988,168.7989,0.75486109,-0.359722243,0,0,0,,0,45,45,54,1,,,
,,,,,,0209798cfa4d4c8a9a80edc0,66a626ef09d4e21e1a8894ec,673497e7c4c3bab08113cbf1,2024-11-13_13h13.47.513,Tarea de género gramatical,2024.2.2,Win32,59.88023952,,,,,,,,,,,,,,,,,,,,,,168.7993,169.9996,a,0,[],[],[],[],[],[],[],0.5209,0,169.9996,170.5,,,,,,1034,FEM,AGR,150,rama,la,a,0.5209,,170.5,170.5,0.75486109,-0.359722243,0,0,0,,0,46,46,133,1,,,
,,,,,,0209798cfa4d4c8a9a80edc0,66a626ef09d4e21e1a8894ec,673497e7c4c3bab08113cbf1,2024-11-13_13h13.47.513,Tarea de género gramatical,2024.2.2,Win32,59.88023952,,,,,,,,,,,,,,,,,,,,,,170.5005,171.5342,l,1,[],[],[],[],[],[],[],0.373,1,171.5346,172.0347,,,,,,945,FEM,CON,150,isla,,a,0.373,,172.0351,172.0355,0.75486109,-0.359722243,0,0,0,,0,47,47,44,1,,,
,,,,,,0209798cfa4d4c8a9a80edc0,66a626ef09d4e21e1a8894ec,673497e7c4c3bab08113cbf1,2024-11-13_13h13.47.513,Tarea de género gramatical,2024.2.2,Win32,59.88023952,,,,,,,,,,,,,,,,,,,,,,172.0358,173.1189,a,1,[],[],[],[],[],[],[],0.4019,1,173.1189,173.6192,,,,,,1338,MAS,CON,150,tanque,,l,0.4019,,173.6192,173.6193,0.75486109,-0.359722243,0,0,0,,0,48,48,437,1,,,
,,,,,,0209798cfa4d4c8a9a80edc0,66a626ef09d4e21e1a8894ec,673497e7c4c3bab08113cbf1,2024-11-13_13h13.47.513,Tarea de género gramatical,2024.2.2,Win32,59.88023952,,,,,,,,,,,,,,,,,,,,,,173.62,174.7037,l,1,[],[],[],[],[],[],[],0.4219,1,174.7038,175.2041,,,,,,1033,FEM,DIS,150,joya,el,a,0.4219,,175.2041,175.2042,0.75486109,-0.359722243,0,0,0,,0,49,49,132,1,,,
,,,,,,0209798cfa4d4c8a9a80edc0,66a626ef09d4e21e1a8894ec,673497e7c4c3bab08113cbf1,2024-11-13_13h13.47.513,Tarea de género gramatical,2024.2.2,Win32,59.88023952,,,,,,,,,,,,,,,,,,,,,,175.2047,176.2048,l,1,[],[],[],[],[],[],[],0.336,1,176.2048,176.7052,,,,,,1107,FEM,CON,150,playa,,a,0.336,,176.7052,176.7052,0.75486109,-0.359722243,0,0,0,,0,50,50,206,1,,,
,,,,,,0209798cfa4d4c8a9a80edc0,66a626ef09d4e21e1a8894ec,673497e7c4c3bab08113cbf1,2024-11-13_13h13.47.513,Tarea de género gramatical,2024.2.2,Win32,59.88023952,,,,,,,,,,,,,,,,,,,,,,176.7057,177.8729,l,1,[],[],[],[],[],[],[],0.5005,1,177.8729,178.3732,,,,,,1203,FEM,CON,150,maldad,,a,0.5005,,178.3737,178.3741,0.75486109,-0.359722243,0,0,0,,0,51,51,302,1,,,
,,,,,,0209798cfa4d4c8a9a80edc0,66a626ef09d4e21e1a8894ec,673497e7c4c3bab08113cbf1,2024-11-13_13h13.47.513,Tarea de género gramatical,2024.2.2,Win32,59.88023952,,,,,,,,,,,,,,,,,,,,,,178.3745,179.4741,l,1,[],[],[],[],[],[],[],0.4275,1,179.4741,179.9745,,,,,,998,FEM,AGR,150,fuga,la,a,0.4275,,179.9746,179.9746,0.75486109,-0.359722243,0,0,0,,0,52,52,97,1,,,
,,,,,,0209798cfa4d4c8a9a80edc0,66a626ef09d4e21e1a8894ec,673497e7c4c3bab08113cbf1,2024-11-13_13h13.47.513,Tarea de género gramatical,2024.2.2,Win32,59.88023952,,,,,,,,,,,,,,,,,,,,,,179.975,181.1089,a,1,[],[],[],[],[],[],[],0.4671,1,181.1089,181.6092,,,,,,1252,MAS,DIS,150,estilo,la,l,0.4671,,181.6093,181.6093,0.75486109,-0.359722243,0,0,0,,0,53,53,351,1,,,
,,,,,,0209798cfa4d4c8a9a80edc0,66a626ef09d4e21e1a8894ec,673497e7c4c3bab08113cbf1,2024-11-13_13h13.47.513,Tarea de género gramatical,2024.2.2,Win32,59.88023952,,,,,,,,,,,,,,,,,,,,,,181.6098,182.6269,l,1,[],[],[],[],[],[],[],0.3511,1,182.627,183.1271,,,,,,1201,FEM,DIS,150,verdad,el,a,0.3511,,183.1272,183.1272,0.75486109,-0.359722243,0,0,0,,0,54,54,300,1,,,
,,,,,,0209798cfa4d4c8a9a80edc0,66a626ef09d4e21e1a8894ec,673497e7c4c3bab08113cbf1,2024-11-13_13h13.47.513,Tarea de género gramatical,2024.2.2,Win32,59.88023952,,,,,,,,,,,,,,,,,,,,,,183.1277,184.1613,l,1,[],[],[],[],[],[],[],0.3718,1,184.1614,184.6618,,,,,,1124,FEM,AGR,150,arena,la,a,0.3718,,184.6618,184.6619,0.75486109,-0.359722243,0,0,0,,0,55,55,223,1,,,
,,,,,,0209798cfa4d4c8a9a80edc0,66a626ef09d4e21e1a8894ec,673497e7c4c3bab08113cbf1,2024-11-13_13h13.47.513,Tarea de género gramatical,2024.2.2,Win32,59.88023952,,,,,,,,,,,,,,,,,,,,,,184.6623,186.1963,l,1,[],[],[],[],[],[],[],0.8686,1,186.1964,186.6968,,,,,,913,FEM,DIS,150,hija,el,a,0.8686,,186.6972,186.6977,0.75486109,-0.359722243,0,0,0,,0,56,56,12,1,,,
,,,,,,0209798cfa4d4c8a9a80edc0,66a626ef09d4e21e1a8894ec,673497e7c4c3bab08113cbf1,2024-11-13_13h13.47.513,Tarea de género gramatical,2024.2.2,Win32,59.88023952,,,,,,,,,,,,,,,,,,,,,,186.6979,187.7644,l,1,[],[],[],[],[],[],[],0.3914,1,187.7644,188.2647,,,,,,1281,FEM,CON,150,bebida,,a,0.3914,,188.2647,188.2648,0.75486109,-0.359722243,0,0,0,,0,57,57,380,1,,,
,,,,,,0209798cfa4d4c8a9a80edc0,66a626ef09d4e21e1a8894ec,673497e7c4c3bab08113cbf1,2024-11-13_13h13.47.513,Tarea de género gramatical,2024.2.2,Win32,59.88023952,,,,,,,,,,,,,,,,,,,,,,188.2654,189.3156,a,1,[],[],[],[],[],[],[],0.3895,1,189.3157,189.8161,,,,,,1325,MAS,AGR,150,chiste,el,l,0.3895,,189.8162,189.8163,0.75486109,-0.359722243,0,0,0,,0,58,58,424,1,,,
,,,,,,0209798cfa4d4c8a9a80edc0,66a626ef09d4e21e1a8894ec,673497e7c4c3bab08113cbf1,2024-11-13_13h13.47.513,Tarea de género gramatical,2024.2.2,Win32,59.88023952,,,,,,,,,,,,,,,,,,,,,,189.8168,190.9336,a,1,[],[],[],[],[],[],[],0.4543,1,190.9336,191.4343,,,,,,918,MAS,CON,150,tren,,l,0.4543,,191.4343,191.4343,0.75486109,-0.359722243,0,0,0,,0,59,59,17,1,,,
,,,,,,0209798cfa4d4c8a9a80edc0,66a626ef09d4e21e1a8894ec,673497e7c4c3bab08113cbf1,2024-11-13_13h13.47.513,Tarea de género gramatical,2024.2.2,Win32,59.88023952,,,,,,,,,,,,,,,,,,,,,,191.4349,192.8185,l,0,[],[],[],[],[],[],[],0.718,0,192.8188,193.3189,,,,,,1006,MAS,DIS,150,test,la,l,0.718,,193.3195,193.3199,0.75486109,-0.359722243,0,0,0,,0,60,60,105,1,,,
,,,,,,0209798cfa4d4c8a9a80edc0,66a626ef09d4e21e1a8894ec,673497e7c4c3bab08113cbf1,2024-11-13_13h13.47.513,Tarea de género gramatical,2024.2.2,Win32,59.88023952,,,,,,,,,,,,,,,,,,,,,,193.3204,194.6533,l,1,[],[],[],[],[],[],[],0.6547,1,194.6538,195.1538,,,,,,1285,FEM,DIS,150,muñeca,el,a,0.6547,,195.1538,195.1538,0.75486109,-0.359722243,0,0,0,,0,61,61,384,1,,,
,,,,,,0209798cfa4d4c8a9a80edc0,66a626ef09d4e21e1a8894ec,673497e7c4c3bab08113cbf1,2024-11-13_13h13.47.513,Tarea de género gramatical,2024.2.2,Win32,59.88023952,,,,,,,,,,,,,,,,,,,,,,195.1543,196.3214,l,1,[],[],[],[],[],[],[],0.5106,1,196.3214,196.8219,,,,,,938,FEM,AGR,150,obra,la,a,0.5106,,196.8219,196.8219,0.75486109,-0.359722243,0,0,0,,0,62,62,37,1,,,
,,,,,,0209798cfa4d4c8a9a80edc0,66a626ef09d4e21e1a8894ec,673497e7c4c3bab08113cbf1,2024-11-13_13h13.47.513,Tarea de género gramatical,2024.2.2,Win32,59.88023952,,,,,,,,,,,,,,,,,,,,,,196.8224,197.9727,a,1,[],[],[],[],[],[],[],0.4852,1,197.9729,198.4732,,,,,,1085,MAS,AGR,150,sueño,el,l,0.4852,,198.4732,198.4732,0.75486109,-0.359722243,0,0,0,,0,63,63,184,1,,,
,,,,,,0209798cfa4d4c8a9a80edc0,66a626ef09d4e21e1a8894ec,673497e7c4c3bab08113cbf1,2024-11-13_13h13.47.513,Tarea de género gramatical,2024.2.2,Win32,59.88023952,,,,,,,,,,,,,,,,,,,,,,198.4737,199.5908,a,1,[],[],[],[],[],[],[],0.4511,1,199.5908,200.0912,,,,,,1068,MAS,CON,150,sitio,,l,0.4511,,200.0912,200.0913,0.75486109,-0.359722243,0,0,0,,0,64,64,167,1,,,
,,,,,,0209798cfa4d4c8a9a80edc0,66a626ef09d4e21e1a8894ec,673497e7c4c3bab08113cbf1,2024-11-13_13h13.47.513,Tarea de género gramatical,2024.2.2,Win32,59.88023952,,,,,,,,,,,,,,,,,,,,,,200.0918,201.1924,l,1,[],[],[],[],[],[],[],0.4338,1,201.1925,201.6928,,,,,,1111,FEM,DIS,150,salud,el,a,0.4338,,201.6933,201.6938,0.75486109,-0.359722243,0,0,0,,0,65,65,210,1,,,
,,,,,,0209798cfa4d4c8a9a80edc0,66a626ef09d4e21e1a8894ec,673497e7c4c3bab08113cbf1,2024-11-13_13h13.47.513,Tarea de género gramatical,2024.2.2,Win32,59.88023952,,,,,,,,,,,,,,,,,,,,,,201.6941,202.7267,l,1,[],[],[],[],[],[],[],0.3575,1,202.7268,203.2272,,,,,,987,FEM,CON,150,risa,,a,0.3575,,203.2273,203.2273,0.75486109,-0.359722243,0,0,0,,0,66,66,86,1,,,
,,,,,,0209798cfa4d4c8a9a80edc0,66a626ef09d4e21e1a8894ec,673497e7c4c3bab08113cbf1,2024-11-13_13h13.47.513,Tarea de género gramatical,2024.2.2,Win32,59.88023952,,,,,,,,,,,,,,,,,,,,,,203.2277,204.1612,l,1,[],[],[],[],[],[],[],0.2781,1,204.1612,204.6616,,,,,,969,FEM,CON,150,rata,,a,0.2781,,204.6616,204.6617,0.75486109,-0.359722243,0,0,0,,0,67,67,68,1,,,
,,,,,,0209798cfa4d4c8a9a80edc0,66a626ef09d4e21e1a8894ec,673497e7c4c3bab08113cbf1,2024-11-13_13h13.47.513,Tarea de género gramatical,2024.2.2,Win32,59.88023952,,,,,,,,,,,,,,,,,,,,,,204.6622,205.696,l,0,[],[],[],[],[],[],[],0.3704,0,205.6964,206.1962,,,,,,1266,MAS,CON,150,riesgo,,l,0.3704,,206.1963,206.1964,0.75486109,-0.359722243,0,0,0,,0,68,68,365,1,,,
,,,,,,0209798cfa4d4c8a9a80edc0,66a626ef09d4e21e1a8894ec,673497e7c4c3bab08113cbf1,2024-11-13_13h13.47.513,Tarea de género gramatical,2024.2.2,Win32,59.88023952,,,,,,,,,,,,,,,,,,,,,,206.1968,207.2471,l,0,[],[],[],[],[],[],[],0.3858,0,207.2471,207.7475,,,,,,1175,MAS,AGR,150,disco,el,l,0.3858,,207.748,207.7484,0.75486109,-0.359722243,0,0,0,,0,69,69,274,1,,,
,,,,,,0209798cfa4d4c8a9a80edc0,66a626ef09d4e21e1a8894ec,673497e7c4c3bab08113cbf1,2024-11-13_13h13.47.513,Tarea de género gramatical,2024.2.2,Win32,59.88023952,,,,,,,,,,,,,,,,,,,,,,207.7486,208.9486,a,0,[],[],[],[],[],[],[],0.5245,0,208.9486,209.4491,,,,,,951,FEM,CON,150,bala,,a,0.5245,,209.4492,209.4492,0.75486109,-0.359722243,0,0,0,,0,70,70,50,1,,,
,,,,,,0209798cfa4d4c8a9a80edc0,66a626ef09d4e21e1a8894ec,673497e7c4c3bab08113cbf1,2024-11-13_13h13.47.513,Tarea de género gramatical,2024.2.2,Win32,59.88023952,,,,,,,,,,,,,,,,,,,,,,209.4497,210.4498,l,1,[],[],[],[],[],[],[],0.3326,1,210.4502,210.9505,,,,,,957,FEM,CON,150,moda,,a,0.3326,,210.9505,210.9506,0.75486109,-0.359722243,0,0,0,,0,71,71,56,1,,,
,,,,,,0209798cfa4d4c8a9a80edc0,66a626ef09d4e21e1a8894ec,673497e7c4c3bab08113cbf1,2024-11-13_13h13.47.513,Tarea de género gramatical,2024.2.2,Win32,59.88023952,,,,,,,,,,,,,,,,,,,,,,210.951,212.0177,l,1,[],[],[],[],[],[],[],0.412,1,212.0177,212.5181,,,,,,915,FEM,CON,150,cama,,a,0.412,,212.5182,212.5182,0.75486109,-0.359722243,0,0,0,,0,72,72,14,1,,,
,,,,,,0209798cfa4d4c8a9a80edc0,66a626ef09d4e21e1a8894ec,673497e7c4c3bab08113cbf1,2024-11-13_13h13.47.513,Tarea de género gramatical,2024.2.2,Win32,59.88023952,,,,,,,,,,,,,,,,,,,,,,212.5187,213.8026,a,1,[],[],[],[],[],[],[],0.6183,1,213.8027,214.3029,,,,,,1187,MAS,AGR,150,plato,el,l,0.6183,,214.3029,214.303,0.75486109,-0.359722243,0,0,0,,0,73,73,286,1,,,
,,,,,,0209798cfa4d4c8a9a80edc0,66a626ef09d4e21e1a8894ec,673497e7c4c3bab08113cbf1,2024-11-13_13h13.47.513,Tarea de género gramatical,2024.2.2,Win32,59.88023952,,,,,,,,,,,,,,,,,,,,,,214.3034,215.4373,l,1,[],[],[],[],[],[],[],0.4782,1,215.4373,215.9377,,,,,,1005,FEM,CON,150,jefa,,a,0.4782,,215.9382,215.9386,0.75486109,-0.359722243,0,0,0,,0,74,74,104,1,,,
,,,,,,0209798cfa4d4c8a9a80edc0,66a626ef09d4e21e1a8894ec,673497e7c4c3bab08113cbf1,2024-11-13_13h13.47.513,Tarea de género gramatical,2024.2.2,Win32,59.88023952,,,,,,,,,,,,,,,,,,,,,,215.9388,217.1386,l,1,[],[],[],[],[],[],[],0.5282,1,217.1387,217.639,,,,,,1261,FEM,DIS,150,oferta,el,a,0.5282,,217.639,217.6391,0.75486109,-0.359722243,0,0,0,,0,75,75,360,1,,,
,,,,,,0209798cfa4d4c8a9a80edc0,66a626ef09d4e21e1a8894ec,673497e7c4c3bab08113cbf1,2024-11-13_13h13.47.513,Tarea de género gramatical,2024.2.2,Win32,59.88023952,,,,,,,,,,,,,,,,,,,,,,217.6396,218.6399,l,1,[],[],[],[],[],[],[],0.3336,1,218.6399,219.1403,,,,,,932,FEM,AGR,150,caja,la,a,0.3336,,219.1403,219.1404,0.75486109,-0.359722243,0,0,0,,0,76,76,31,1,,,
,,,,,,0209798cfa4d4c8a9a80edc0,66a626ef09d4e21e1a8894ec,673497e7c4c3bab08113cbf1,2024-11-13_13h13.47.513,Tarea de género gramatical,2024.2.2,Win32,59.88023952,,,,,,,,,,,,,,,,,,,,,,219.1409,220.408,a,0,[],[],[],[],[],[],[],0.6019,0,220.4084,220.9084,,,,,,981,FEM,CON,150,cima,,a,0.6019,,220.9085,220.9086,0.75486109,-0.359722243,0,0,0,,0,77,77,80,1,,,
,,,,,,0209798cfa4d4c8a9a80edc0,66a626ef09d4e21e1a8894ec,673497e7c4c3bab08113cbf1,2024-11-13_13h13.47.513,Tarea de género gramatical,2024.2.2,Win32,59.88023952,,,,,,,,,,,,,,,,,,,,,,220.909,222.1762,a,1,[],[],[],[],[],[],[],0.6084,1,222.1765,222.6766,,,,,,1079,MAS,AGR,150,viaje,el,l,0.6084,,222.6771,222.6775,0.75486109,-0.359722243,0,0,0,,0,78,78,178,1,,,
,,,,,,0209798cfa4d4c8a9a80edc0,66a626ef09d4e21e1a8894ec,673497e7c4c3bab08113cbf1,2024-11-13_13h13.47.513,Tarea de género gramatical,2024.2.2,Win32,59.88023952,,,,,,,,,,,,,,,,,,,,,,222.6777,223.8109,l,1,[],[],[],[],[],[],[],0.4504,1,223.8109,224.3113,,,,,,968,FEM,AGR,150,pata,la,a,0.4504,,224.3113,224.3113,0.75486109,-0.359722243,0,0,0,,0,79,79,67,1,,,
,,,,,,0209798cfa4d4c8a9a80edc0,66a626ef09d4e21e1a8894ec,673497e7c4c3bab08113cbf1,2024-11-13_13h13.47.513,Tarea de género gramatical,2024.2.2,Win32,59.88023952,,,,,,,,,,,,,,,,,,,,,,224.3118,225.7792,l,1,[],[],[],[],[],[],[],0.811,1,225.7793,226.2797,,,,,,1141,FEM,DIS,150,pasta,el,a,0.811,,226.2798,226.2798,0.75486109,-0.359722243,0,0,0,,0,80,80,240,1,,,
,,,,,,0209798cfa4d4c8a9a80edc0,66a626ef09d4e21e1a8894ec,673497e7c4c3bab08113cbf1,2024-11-13_13h13.47.513,Tarea de género gramatical,2024.2.2,Win32,59.88023952,,,,,,,,,,,,,,,,,,,,,,226.2803,227.3471,a,1,[],[],[],[],[],[],[],0.3838,1,227.3472,227.8477,,,,,,1066,MAS,DIS,150,coche,la,l,0.3838,,227.8477,227.8477,0.75486109,-0.359722243,0,0,0,,0,81,81,165,1,,,
,,,,,,0209798cfa4d4c8a9a80edc0,66a626ef09d4e21e1a8894ec,673497e7c4c3bab08113cbf1,2024-11-13_13h13.47.513,Tarea de género gramatical,2024.2.2,Win32,59.88023952,,,,,,,,,,,,,,,,,,,,,,227.8482,229.1319,a,1,[],[],[],[],[],[],[],0.6201,1,229.132,229.6323,,,,,,922,MAS,DIS,150,pelo,la,l,0.6201,,229.6323,229.6324,0.75486109,-0.359722243,0,0,0,,0,82,82,21,1,,,
,,,,,,0209798cfa4d4c8a9a80edc0,66a626ef09d4e21e1a8894ec,673497e7c4c3bab08113cbf1,2024-11-13_13h13.47.513,Tarea de género gramatical,2024.2.2,Win32,59.88023952,,,,,,,,,,,,,,,,,,,,,,229.6329,230.9668,l,1,[],[],[],[],[],[],[],0.666,1,230.9668,231.4674,,,,,,1303,FEM,DIS,150,paliza,el,a,0.666,,231.468,231.4683,0.75486109,-0.359722243,0,0,0,,0,83,83,402,1,,,
,,,,,,0209798cfa4d4c8a9a80edc0,66a626ef09d4e21e1a8894ec,673497e7c4c3bab08113cbf1,2024-11-13_13h13.47.513,Tarea de género gramatical,2024.2.2,Win32,59.88023952,,,,,,,,,,,,,,,,,,,,,,231.4686,232.6016,a,1,[],[],[],[],[],[],[],0.464,1,232.6016,233.1019,,,,,,1247,MAS,AGR,150,cuello,el,l,0.464,,233.1019,233.102,0.75486109,-0.359722243,0,0,0,,0,84,84,346,1,,,
,,,,,,0209798cfa4d4c8a9a80edc0,66a626ef09d4e21e1a8894ec,673497e7c4c3bab08113cbf1,2024-11-13_13h13.47.513,Tarea de género gramatical,2024.2.2,Win32,59.88023952,,,,,,,,,,,,,,,,,,,,,,233.1025,234.1362,l,1,[],[],[],[],[],[],[],0.3705,1,234.1363,234.6365,,,,,,962,FEM,AGR,150,sopa,la,a,0.3705,,234.6366,234.6366,0.75486109,-0.359722243,0,0,0,,0,85,85,61,1,,,
,,,,,,0209798cfa4d4c8a9a80edc0,66a626ef09d4e21e1a8894ec,673497e7c4c3bab08113cbf1,2024-11-13_13h13.47.513,Tarea de género gramatical,2024.2.2,Win32,59.88023952,,,,,,,,,,,,,,,,,,,,,,234.637,235.6874,a,1,[],[],[],[],[],[],[],0.3901,1,235.6875,236.1877,,,,,,1121,MAS,AGR,150,brazo,el,l,0.3901,,236.1877,236.1878,0.75486109,-0.359722243,0,0,0,,0,86,86,220,1,,,
,,,,,,0209798cfa4d4c8a9a80edc0,66a626ef09d4e21e1a8894ec,673497e7c4c3bab08113cbf1,2024-11-13_13h13.47.513,Tarea de género gramatical,2024.2.2,Win32,59.88023952,,,,,,,,,,,,,,,,,,,,,,236.1883,237.4555,l,1,[],[],[],[],[],[],[],0.6059,1,237.4556,237.9562,,,,,,1267,FEM,DIS,150,teoría,el,a,0.6059,,237.9566,237.957,0.75486109,-0.359722243,0,0,0,,0,87,87,366,1,,,
,,,,,,0209798cfa4d4c8a9a80edc0,66a626ef09d4e21e1a8894ec,673497e7c4c3bab08113cbf1,2024-11-13_13h13.47.513,Tarea de género gramatical,2024.2.2,Win32,59.88023952,,,,,,,,,,,,,,,,,,,,,,237.9573,239.0238,l,0,[],[],[],[],[],[],[],0.386,0,239.0242,239.524,,,,,,1253,MAS,AGR,150,verano,el,l,0.386,,239.5241,239.5241,0.75486109,-0.359722243,0,0,0,,0,88,88,352,1,,,
,,,,,,0209798cfa4d4c8a9a80edc0,66a626ef09d4e21e1a8894ec,673497e7c4c3bab08113cbf1,2024-11-13_13h13.47.513,Tarea de género gramatical,2024.2.2,Win32,59.88023952,,,,,,,,,,,,,,,,,,,,,,239.525,240.7082,a,1,[],[],[],[],[],[],[],0.5159,1,240.7085,241.2086,,,,,,971,MAS,AGR,150,pozo,el,l,0.5159,,241.2086,241.2087,0.75486109,-0.359722243,0,0,0,,0,89,89,70,1,,,
,,,,,,0209798cfa4d4c8a9a80edc0,66a626ef09d4e21e1a8894ec,673497e7c4c3bab08113cbf1,2024-11-13_13h13.47.513,Tarea de género gramatical,2024.2.2,Win32,59.88023952,,,,,,,,,,,,,,,,,,,,,,241.2091,242.3929,a,1,[],[],[],[],[],[],[],0.5211,1,242.393,242.8934,,,,,,1289,MAS,AGR,150,tamaño,el,l,0.5211,,242.8934,242.8934,0.75486109,-0.359722243,0,0,0,,0,90,90,388,1,,,
,,,,,,0209798cfa4d4c8a9a80edc0,66a626ef09d4e21e1a8894ec,673497e7c4c3bab08113cbf1,2024-11-13_13h13.47.513,Tarea de género gramatical,2024.2.2,Win32,59.88023952,,,,,,,,,,,,,,,,,,,,,,242.8939,243.9109,l,1,[],[],[],[],[],[],[],0.3614,1,243.9109,244.4113,,,,,,1196,FEM,AGR,150,feria,la,a,0.3614,,244.4113,244.4113,0.75486109,-0.359722243,0,0,0,,0,91,91,295,1,,,
,,,,,,0209798cfa4d4c8a9a80edc0,66a626ef09d4e21e1a8894ec,673497e7c4c3bab08113cbf1,2024-11-13_13h13.47.513,Tarea de género gramatical,2024.2.2,Win32,59.88023952,,,,,,,,,,,,,,,,,,,,,,244.4118,245.6123,l,1,[],[],[],[],[],[],[],0.5401,1,245.6123,246.1128,,,,,,991,FEM,DIS,150,hoja,el,a,0.5401,,246.1134,246.1137,0.75486109,-0.359722243,0,0,0,,0,92,92,90,1,,,
,,,,,,0209798cfa4d4c8a9a80edc0,66a626ef09d4e21e1a8894ec,673497e7c4c3bab08113cbf1,2024-11-13_13h13.47.513,Tarea de género gramatical,2024.2.2,Win32,59.88023952,,,,,,,,,,,,,,,,,,,,,,246.114,247.1969,a,1,[],[],[],[],[],[],[],0.4034,1,247.197,247.6974,,,,,,1132,MAS,DIS,150,calor,la,l,0.4034,,247.6974,247.6975,0.75486109,-0.359722243,0,0,0,,0,93,93,231,1,,,
,,,,,,0209798cfa4d4c8a9a80edc0,66a626ef09d4e21e1a8894ec,673497e7c4c3bab08113cbf1,2024-11-13_13h13.47.513,Tarea de género gramatical,2024.2.2,Win32,59.88023952,,,,,,,,,,,,,,,,,,,,,,247.6979,248.7148,l,1,[],[],[],[],[],[],[],0.3586,1,248.7149,249.2152,,,,,,903,FEM,CON,150,cosa,,a,0.3586,,249.2153,249.2153,0.75486109,-0.359722243,0,0,0,,0,94,94,2,1,,,
,,,,,,0209798cfa4d4c8a9a80edc0,66a626ef09d4e21e1a8894ec,673497e7c4c3bab08113cbf1,2024-11-13_13h13.47.513,Tarea de género gramatical,2024.2.2,Win32,59.88023952,,,,,,,,,,,,,,,,,,,,,,249.2157,250.7999,l,1,[],[],[],[],[],[],[],0.9255,1,250.7999,251.3003,,,,,,1159,FEM,DIS,150,prima,el,a,0.9255,,251.3003,251.3003,0.75486109,-0.359722243,0,0,0,,0,95,95,258,1,,,
,,,,,,0209798cfa4d4c8a9a80edc0,66a626ef09d4e21e1a8894ec,673497e7c4c3bab08113cbf1,2024-11-13_13h13.47.513,Tarea de género gramatical,2024.2.2,Win32,59.88023952,,,,,,,,,,,,,,,,,,,,,,251.3008,252.4012,l,1,[],[],[],[],[],[],[],0.4434,1,252.4012,252.9016,,,,,,1208,FEM,AGR,150,semana,la,a,0.4434,,252.9021,252.9025,0.75486109,-0.359722243,0,0,0,,0,96,96,307,1,,,
,,,,,,0209798cfa4d4c8a9a80edc0,66a626ef09d4e21e1a8894ec,673497e7c4c3bab08113cbf1,2024-11-13_13h13.47.513,Tarea de género gramatical,2024.2.2,Win32,59.88023952,,,,,,,,,,,,,,,,,,,,,,252.9027,253.9692,a,1,[],[],[],[],[],[],[],0.3845,1,253.9692,254.4696,,,,,,1108,MAS,DIS,150,suelo,la,l,0.3845,,254.4696,254.4697,0.75486109,-0.359722243,0,0,0,,0,97,97,207,1,,,
,,,,,,0209798cfa4d4c8a9a80edc0,66a626ef09d4e21e1a8894ec,673497e7c4c3bab08113cbf1,2024-11-13_13h13.47.513,Tarea de género gramatical,2024.2.2,Win32,59.88023952,,,,,,,,,,,,,,,,,,,,,,254.4701,255.5538,l,1,[],[],[],[],[],[],[],0.4249,1,255.5538,256.0544,,,,,,1245,FEM,CON,150,pierna,,a,0.4249,,256.0545,256.0545,0.75486109,-0.359722243,0,0,0,,0,98,98,344,1,,,
,,,,,,0209798cfa4d4c8a9a80edc0,66a626ef09d4e21e1a8894ec,673497e7c4c3bab08113cbf1,2024-11-13_13h13.47.513,Tarea de género gramatical,2024.2.2,Win32,59.88023952,,,,,,,,,,,,,,,,,,,,,,256.055,257.2553,a,1,[],[],[],[],[],[],[],0.5433,1,257.2553,257.7556,,,,,,1211,MAS,AGR,150,camino,el,l,0.5433,,257.7556,257.7557,0.75486109,-0.359722243,0,0,0,,0,99,99,310,1,,,
,,,,,,0209798cfa4d4c8a9a80edc0,66a626ef09d4e21e1a8894ec,673497e7c4c3bab08113cbf1,2024-11-13_13h13.47.513,Tarea de género gramatical,2024.2.2,Win32,59.88023952,,,,,,,,,,,,,,,,,,,,,,257.7562,258.7732,l,1,[],[],[],[],[],[],[],0.3593,1,258.7732,259.2737,,,,,,1112,FEM,AGR,150,cinta,la,a,0.3593,,259.2737,259.2737,0.75486109,-0.359722243,0,0,0,,0,100,100,211,1,,,
,,,,,,0209798cfa4d4c8a9a80edc0,66a626ef09d4e21e1a8894ec,673497e7c4c3bab08113cbf1,2024-11-13_13h13.47.513,Tarea de género gramatical,2024.2.2,Win32,59.88023952,,,,,,,,,,,,,,,,,,,,,,259.2745,260.4245,a,1,[],[],[],[],[],[],[],0.4973,1,260.4246,260.9251,,,,,,1198,MAS,DIS,150,botón,la,l,0.4973,,260.9257,260.926,0.75486109,-0.359722243,0,0,0,,0,101,101,297,1,,,
,,,,,,0209798cfa4d4c8a9a80edc0,66a626ef09d4e21e1a8894ec,673497e7c4c3bab08113cbf1,2024-11-13_13h13.47.513,Tarea de género gramatical,2024.2.2,Win32,59.88023952,,,,,,,,,,,,,,,,,,,,,,260.9263,262.0592,a,1,[],[],[],[],[],[],[],0.4612,1,262.0592,262.5596,,,,,,1246,MAS,DIS,150,juicio,la,l,0.4612,,262.5596,262.5597,0.75486109,-0.359722243,0,0,0,,0,102,102,345,1,,,
,,,,,,0209798cfa4d4c8a9a80edc0,66a626ef09d4e21e1a8894ec,673497e7c4c3bab08113cbf1,2024-11-13_13h13.47.513,Tarea de género gramatical,2024.2.2,Win32,59.88023952,,,,,,,,,,,,,,,,,,,,,,262.5601,263.7272,a,1,[],[],[],[],[],[],[],0.5005,1,263.7273,264.2278,,,,,,1314,MAS,CON,150,sótano,,l,0.5005,,264.2279,264.2279,0.75486109,-0.359722243,0,0,0,,0,103,103,413,1,,,
,,,,,,0209798cfa4d4c8a9a80edc0,66a626ef09d4e21e1a8894ec,673497e7c4c3bab08113cbf1,2024-11-13_13h13.47.513,Tarea de género gramatical,2024.2.2,Win32,59.88023952,,,,,,,,,,,,,,,,,,,,,,264.2284,265.3619,a,1,[],[],[],[],[],[],[],0.4794,1,265.362,265.8623,,,,,,1241,MAS,AGR,150,precio,el,l,0.4794,,265.8623,265.8625,0.75486109,-0.359722243,0,0,0,,0,104,104,340,1,,,
,,,,,,0209798cfa4d4c8a9a80edc0,66a626ef09d4e21e1a8894ec,673497e7c4c3bab08113cbf1,2024-11-13_13h13.47.513,Tarea de género gramatical,2024.2.2,Win32,59.88023952,,,,,,,,,,,,,,,,,,,,,,265.8628,266.9132,l,0,[],[],[],[],[],[],[],0.3827,0,266.9136,267.4136,,,,,,1210,MAS,DIS,150,nombre,la,l,0.3827,,267.4141,267.4145,0.75486109,-0.359722243,0,0,0,,0,105,105,309,1,,,
,,,,,,0209798cfa4d4c8a9a80edc0,66a626ef09d4e21e1a8894ec,673497e7c4c3bab08113cbf1,2024-11-13_13h13.47.513,Tarea de género gramatical,2024.2.2,Win32,59.88023952,,,,,,,,,,,,,,,,,,,,,,267.4148,268.7147,a,1,[],[],[],[],[],[],[],0.6297,1,268.715,269.2151,,,,,,1277,MAS,AGR,150,jardín,el,l,0.6297,,269.2152,269.2152,0.75486109,-0.359722243,0,0,0,,0,106,106,376,1,,,
,,,,,,0209798cfa4d4c8a9a80edc0,66a626ef09d4e21e1a8894ec,673497e7c4c3bab08113cbf1,2024-11-13_13h13.47.513,Tarea de género gramatical,2024.2.2,Win32,59.88023952,,,,,,,,,,,,,,,,,,,,,,269.2157,270.2827,l,1,[],[],[],[],[],[],[],0.4136,1,270.2827,270.7832,,,,,,1088,FEM,AGR,150,bomba,la,a,0.4136,,270.7832,270.7833,0.75486109,-0.359722243,0,0,0,,0,107,107,187,1,,,
,,,,,,0209798cfa4d4c8a9a80edc0,66a626ef09d4e21e1a8894ec,673497e7c4c3bab08113cbf1,2024-11-13_13h13.47.513,Tarea de género gramatical,2024.2.2,Win32,59.88023952,,,,,,,,,,,,,,,,,,,,,,270.7837,271.9507,a,1,[],[],[],[],[],[],[],0.5025,1,271.9508,272.4513,,,,,,996,MAS,CON,150,pato,,l,0.5025,,272.4513,272.4513,0.75486109,-0.359722243,0,0,0,,0,108,108,95,1,,,
,,,,,,0209798cfa4d4c8a9a80edc0,66a626ef09d4e21e1a8894ec,673497e7c4c3bab08113cbf1,2024-11-13_13h13.47.513,Tarea de género gramatical,2024.2.2,Win32,59.88023952,,,,,,,,,,,,,,,,,,,,,,272.4518,273.5687,a,1,[],[],[],[],[],[],[],0.4565,1,273.5688,274.0692,,,,,,1012,MAS,DIS,150,reto,la,l,0.4565,,274.0692,274.0692,0.75486109,-0.359722243,0,0,0,,0,109,109,111,1,,,
,,,,,,0209798cfa4d4c8a9a80edc0,66a626ef09d4e21e1a8894ec,673497e7c4c3bab08113cbf1,2024-11-13_13h13.47.513,Tarea de género gramatical,2024.2.2,Win32,59.88023952,,,,,,,,,,,,,,,,,,,,,,274.0697,275.1534,a,1,[],[],[],[],[],[],[],0.4265,1,275.1534,275.6538,,,,,,1337,MAS,AGR,150,hombro,el,l,0.4265,,275.6544,275.6547,0.75486109,-0.359722243,0,0,0,,0,110,110,436,1,,,
,,,,,,0209798cfa4d4c8a9a80edc0,66a626ef09d4e21e1a8894ec,673497e7c4c3bab08113cbf1,2024-11-13_13h13.47.513,Tarea de género gramatical,2024.2.2,Win32,59.88023952,,,,,,,,,,,,,,,,,,,,,,275.655,276.8047,a,1,[],[],[],[],[],[],[],0.4758,1,276.8048,277.3051,,,,,,1025,MAS,AGR,150,bate,el,l,0.4758,,277.3051,277.3052,0.75486109,-0.359722243,0,0,0,,0,111,111,124,1,,,
,,,,,,0209798cfa4d4c8a9a80edc0,66a626ef09d4e21e1a8894ec,673497e7c4c3bab08113cbf1,2024-11-13_13h13.47.513,Tarea de género gramatical,2024.2.2,Win32,59.88023952,,,,,,,,,,,,,,,,,,,,,,277.3058,278.3227,a,1,[],[],[],[],[],[],[],0.363,1,278.3227,278.8231,,,,,,947,MAS,AGR,150,olor,el,l,0.363,,278.8231,278.8231,0.75486109,-0.359722243,0,0,0,,0,112,112,46,1,,,
,,,,,,0209798cfa4d4c8a9a80edc0,66a626ef09d4e21e1a8894ec,673497e7c4c3bab08113cbf1,2024-11-13_13h13.47.513,Tarea de género gramatical,2024.2.2,Win32,59.88023952,,,,,,,,,,,,,,,,,,,,,,278.8237,279.8906,a,1,[],[],[],[],[],[],[],0.3992,1,279.8907,280.3911,,,,,,1163,MAS,AGR,150,carro,el,l,0.3992,,280.3911,280.3911,0.75486109,-0.359722243,0,0,0,,0,113,113,262,1,,,
,,,,,,0209798cfa4d4c8a9a80edc0,66a626ef09d4e21e1a8894ec,673497e7c4c3bab08113cbf1,2024-11-13_13h13.47.513,Tarea de género gramatical,2024.2.2,Win32,59.88023952,,,,,,,,,,,,,,,,,,,,,,280.3916,281.5087,a,1,[],[],[],[],[],[],[],0.4609,1,281.5087,282.009,,,,,,1146,MAS,CON,150,humor,,l,0.4609,,282.0096,282.01,0.75486109,-0.359722243,0,0,0,,0,114,114,245,1,,,
,,,,,,0209798cfa4d4c8a9a80edc0,66a626ef09d4e21e1a8894ec,673497e7c4c3bab08113cbf1,2024-11-13_13h13.47.513,Tarea de género gramatical,2024.2.2,Win32,59.88023952,,,,,,,,,,,,,,,,,,,,,,282.0102,283.16,l,1,[],[],[],[],[],[],[],0.4733,1,283.1601,283.6604,,,,,,1279,FEM,DIS,150,granja,el,a,0.4733,,283.6604,283.6605,0.75486109,-0.359722243,0,0,0,,0,115,115,378,1,,,
,,,,,,0209798cfa4d4c8a9a80edc0,66a626ef09d4e21e1a8894ec,673497e7c4c3bab08113cbf1,2024-11-13_13h13.47.513,Tarea de género gramatical,2024.2.2,Win32,59.88023952,,,,,,,,,,,,,,,,,,,,,,283.6609,284.7614,a,1,[],[],[],[],[],[],[],0.4468,1,284.7614,285.2618,,,,,,1217,MAS,AGR,150,número,el,l,0.4468,,285.2618,285.2618,0.75486109,-0.359722243,0,0,0,,0,116,116,316,1,,,
,,,,,,0209798cfa4d4c8a9a80edc0,66a626ef09d4e21e1a8894ec,673497e7c4c3bab08113cbf1,2024-11-13_13h13.47.513,Tarea de género gramatical,2024.2.2,Win32,59.88023952,,,,,,,,,,,,,,,,,,,,,,285.2622,286.4794,a,1,[],[],[],[],[],[],[],0.5613,1,286.4794,286.98,,,,,,1090,MAS,DIS,150,campo,la,l,0.5613,,286.9801,286.9801,0.75486109,-0.359722243,0,0,0,,0,117,117,189,1,,,
,,,,,,0209798cfa4d4c8a9a80edc0,66a626ef09d4e21e1a8894ec,673497e7c4c3bab08113cbf1,2024-11-13_13h13.47.513,Tarea de género gramatical,2024.2.2,Win32,59.88023952,,,,,,,,,,,,,,,,,,,,,,286.9805,288.0641,a,0,[],[],[],[],[],[],[],0.4169,0,288.0644,288.5644,,,,,,949,FEM,DIS,150,piel,el,a,0.4169,,288.5645,288.5645,0.75486109,-0.359722243,0,0,0,,0,118,118,48,1,,,
,,,,,,0209798cfa4d4c8a9a80edc0,66a626ef09d4e21e1a8894ec,673497e7c4c3bab08113cbf1,2024-11-13_13h13.47.513,Tarea de género gramatical,2024.2.2,Win32,59.88023952,,,,,,,,,,,,,,,,,,,,,,288.565,289.7654,a,1,[],[],[],[],[],[],[],0.5404,1,289.7658,290.2659,,,,,,1194,MAS,CON,150,cable,,l,0.5404,,290.2663,290.2667,0.75486109,-0.359722243,0,0,0,,0,119,119,293,1,,,
,,,,,,0209798cfa4d4c8a9a80edc0,66a626ef09d4e21e1a8894ec,673497e7c4c3bab08113cbf1,2024-11-13_13h13.47.513,Tarea de género gramatical,2024.2.2,Win32,59.88023952,,,,,,,,,,,,,,,,,,,,,,290.2671,291.5337,a,1,[],[],[],[],[],[],[],0.5945,1,291.5337,292.034,,,,,,983,MAS,AGR,150,nene,el,l,0.5945,,292.0341,292.0341,0.75486109,-0.359722243,0,0,0,,0,120,120,82,1,,,
,,,,,,0209798cfa4d4c8a9a80edc0,66a626ef09d4e21e1a8894ec,673497e7c4c3bab08113cbf1,2024-11-13_13h13.47.513,Tarea de género gramatical,2024.2.2,Win32,59.88023952,,,,,,,,,,,,,,,,,,,,,,292.0346,293.302,a,1,[],[],[],[],[],[],[],0.6037,1,293.302,293.8023,,,,,,1120,MAS,DIS,150,huevo,la,l,0.6037,,293.8023,293.8024,0.75486109,-0.359722243,0,0,0,,0,121,121,219,1,,,
,,,,,,0209798cfa4d4c8a9a80edc0,66a626ef09d4e21e1a8894ec,673497e7c4c3bab08113cbf1,2024-11-13_13h13.47.513,Tarea de género gramatical,2024.2.2,Win32,59.88023952,,,,,,,,,,,,,,,,,,,,,,293.8028,294.9364,a,1,[],[],[],[],[],[],[],0.4771,1,294.9365,295.4369,,,,,,1228,MAS,DIS,150,asunto,la,l,0.4771,,295.4369,295.4369,0.75486109,-0.359722243,0,0,0,,0,122,122,327,1,,,
,,,,,,0209798cfa4d4c8a9a80edc0,66a626ef09d4e21e1a8894ec,673497e7c4c3bab08113cbf1,2024-11-13_13h13.47.513,Tarea de género gramatical,2024.2.2,Win32,59.88023952,,,,,,,,,,,,,,,,,,,,,,295.4374,296.421,l,1,[],[],[],[],[],[],[],0.3282,1,296.421,296.9216,,,,,,937,FEM,DIS,150,sala,el,a,0.3282,,296.9221,296.9224,0.75486109,-0.359722243,0,0,0,,0,123,123,36,1,,,
,,,,,,0209798cfa4d4c8a9a80edc0,66a626ef09d4e21e1a8894ec,673497e7c4c3bab08113cbf1,2024-11-13_13h13.47.513,Tarea de género gramatical,2024.2.2,Win32,59.88023952,,,,,,,,,,,,,,,,,,,,,,296.9227,298.1558,a,1,[],[],[],[],[],[],[],0.5506,1,298.1558,298.6562,,,,,,1086,MAS,CON,150,error,,l,0.5506,,298.6562,298.6563,0.75486109,-0.359722243,0,0,0,,0,124,124,185,1,,,
,,,,,,0209798cfa4d4c8a9a80edc0,66a626ef09d4e21e1a8894ec,673497e7c4c3bab08113cbf1,2024-11-13_13h13.47.513,Tarea de género gramatical,2024.2.2,Win32,59.88023952,,,,,,,,,,,,,,,,,,,,,,298.6568,299.6571,l,1,[],[],[],[],[],[],[],0.3438,1,299.6571,300.1576,,,,,,1070,FEM,AGR,150,carta,la,a,0.3438,,300.1576,300.1576,0.75486109,-0.359722243,0,0,0,,0,125,125,169,1,,,
,,,,,,0209798cfa4d4c8a9a80edc0,66a626ef09d4e21e1a8894ec,673497e7c4c3bab08113cbf1,2024-11-13_13h13.47.513,Tarea de género gramatical,2024.2.2,Win32,59.88023952,,,,,,,,,,,,,,,,,,,,,,300.1582,301.275,a,1,[],[],[],[],[],[],[],0.4508,1,301.2751,301.7754,,,,,,1302,MAS,CON,150,ladrón,,l,0.4508,,301.7754,301.7755,0.75486109,-0.359722243,0,0,0,,0,126,126,401,1,,,
,,,,,,0209798cfa4d4c8a9a80edc0,66a626ef09d4e21e1a8894ec,673497e7c4c3bab08113cbf1,2024-11-13_13h13.47.513,Tarea de género gramatical,2024.2.2,Win32,59.88023952,,,,,,,,,,,,,,,,,,,,,,301.776,302.8264,a,1,[],[],[],[],[],[],[],0.3839,1,302.8264,303.3269,,,,,,1043,MAS,AGR,150,faro,el,l,0.3839,,303.3269,303.3269,0.75486109,-0.359722243,0,0,0,,0,127,127,142,1,,,
,,,,,,0209798cfa4d4c8a9a80edc0,66a626ef09d4e21e1a8894ec,673497e7c4c3bab08113cbf1,2024-11-13_13h13.47.513,Tarea de género gramatical,2024.2.2,Win32,59.88023952,,,,,,,,,,,,,,,,,,,,,,303.3275,304.3609,a,1,[],[],[],[],[],[],[],0.3564,1,304.361,304.8613,,,,,,1002,MAS,CON,150,coro,,l,0.3564,,304.8618,304.8622,0.75486109,-0.359722243,0,0,0,,0,128,128,101,1,,,
,,,,,,0209798cfa4d4c8a9a80edc0,66a626ef09d4e21e1a8894ec,673497e7c4c3bab08113cbf1,2024-11-13_13h13.47.513,Tarea de género gramatical,2024.2.2,Win32,59.88023952,,,,,,,,,,,,,,,,,,,,,,304.8624,306.0123,a,1,[],[],[],[],[],[],[],0.4749,1,306.0123,306.5129,,,,,,910,MAS,DIS,150,niño,la,l,0.4749,,306.513,306.513,0.75486109,-0.359722243,0,0,0,,0,129,129,9,1,,,
,,,,,,0209798cfa4d4c8a9a80edc0,66a626ef09d4e21e1a8894ec,673497e7c4c3bab08113cbf1,2024-11-13_13h13.47.513,Tarea de género gramatical,2024.2.2,Win32,59.88023952,,,,,,,,,,,,,,,,,,,,,,306.5134,307.5635,l,1,[],[],[],[],[],[],[],0.3833,1,307.5637,308.064,,,,,,975,FEM,CON,150,caza,,a,0.3833,,308.064,308.0641,0.75486109,-0.359722243,0,0,0,,0,130,130,74,1,,,
,,,,,,0209798cfa4d4c8a9a80edc0,66a626ef09d4e21e1a8894ec,673497e7c4c3bab08113cbf1,2024-11-13_13h13.47.513,Tarea de género gramatical,2024.2.2,Win32,59.88023952,,,,,,,,,,,,,,,,,,,,,,308.0646,309.1148,a,1,[],[],[],[],[],[],[],0.3946,1,309.1148,309.6152,,,,,,1284,MAS,CON,150,pedazo,,l,0.3946,,309.6152,309.6153,0.75486109,-0.359722243,0,0,0,,0,131,131,383,1,,,
,,,,,,0209798cfa4d4c8a9a80edc0,66a626ef09d4e21e1a8894ec,673497e7c4c3bab08113cbf1,2024-11-13_13h13.47.513,Tarea de género gramatical,2024.2.2,Win32,59.88023952,,,,,,,,,,,,,,,,,,,,,,309.6158,310.7495,a,1,[],[],[],[],[],[],[],0.4754,1,310.7496,311.2499,,,,,,1162,MAS,DIS,150,video,la,l,0.4754,,311.2505,311.2507,0.75486109,-0.359722243,0,0,0,,0,132,132,261,1,,,
,,,,,,0209798cfa4d4c8a9a80edc0,66a626ef09d4e21e1a8894ec,673497e7c4c3bab08113cbf1,2024-11-13_13h13.47.513,Tarea de género gramatical,2024.2.2,Win32,59.88023952,,,,,,,,,,,,,,,,,,,,,,311.2511,312.3343,a,1,[],[],[],[],[],[],[],0.4071,1,312.3343,312.8348,,,,,,1205,MAS,AGR,150,hombre,el,l,0.4071,,312.8348,312.8349,0.75486109,-0.359722243,0,0,0,,0,133,133,304,1,,,
,,,,,,0209798cfa4d4c8a9a80edc0,66a626ef09d4e21e1a8894ec,673497e7c4c3bab08113cbf1,2024-11-13_13h13.47.513,Tarea de género gramatical,2024.2.2,Win32,59.88023952,,,,,,,,,,,,,,,,,,,,,,312.8354,314.0189,a,1,[],[],[],[],[],[],[],0.5149,1,314.019,314.5196,,,,,,1242,MAS,CON,150,abuelo,,l,0.5149,,314.5196,314.5196,0.75486109,-0.359722243,0,0,0,,0,134,134,341,1,,,
,,,,,,0209798cfa4d4c8a9a80edc0,66a626ef09d4e21e1a8894ec,673497e7c4c3bab08113cbf1,2024-11-13_13h13.47.513,Tarea de género gramatical,2024.2.2,Win32,59.88023952,,,,,,,,,,,,,,,,,,,,,,314.5201,315.6036,l,1,[],[],[],[],[],[],[],0.4052,1,315.6036,316.1041,,,,,,1225,FEM,DIS,150,tierra,el,a,0.4052,,316.1041,316.1041,0.75486109,-0.359722243,0,0,0,,0,135,135,324,1,,,
,,,,,,0209798cfa4d4c8a9a80edc0,66a626ef09d4e21e1a8894ec,673497e7c4c3bab08113cbf1,2024-11-13_13h13.47.513,Tarea de género gramatical,2024.2.2,Win32,59.88023952,,,,,,,,,,,,,,,,,,,,,,316.1046,317.1048,a,1,[],[],[],[],[],[],[],0.3329,1,317.1048,317.6052,,,,,,1037,MAS,AGR,150,coco,el,l,0.3329,,317.6052,317.6053,0.75486109,-0.359722243,0,0,0,,0,136,136,136,1,,,
,,,,,,0209798cfa4d4c8a9a80edc0,66a626ef09d4e21e1a8894ec,673497e7c4c3bab08113cbf1,2024-11-13_13h13.47.513,Tarea de género gramatical,2024.2.2,Win32,59.88023952,,,,,,,,,,,,,,,,,,,,,,317.6058,318.7561,a,1,[],[],[],[],[],[],[],0.4835,1,318.7562,319.2568,,,,,,976,MAS,DIS,150,lujo,la,l,0.4835,,319.2573,319.2576,0.75486109,-0.359722243,0,0,0,,0,137,137,75,1,,,
,,,,,,0209798cfa4d4c8a9a80edc0,66a626ef09d4e21e1a8894ec,673497e7c4c3bab08113cbf1,2024-11-13_13h13.47.513,Tarea de género gramatical,2024.2.2,Win32,59.88023952,,,,,,,,,,,,,,,,,,,,,,319.2578,320.4075,l,1,[],[],[],[],[],[],[],0.4811,1,320.4075,320.9081,,,,,,907,FEM,DIS,150,hora,el,a,0.4811,,320.9082,320.9082,0.75486109,-0.359722243,0,0,0,,0,138,138,6,1,,,
,,,,,,0209798cfa4d4c8a9a80edc0,66a626ef09d4e21e1a8894ec,673497e7c4c3bab08113cbf1,2024-11-13_13h13.47.513,Tarea de género gramatical,2024.2.2,Win32,59.88023952,,,,,,,,,,,,,,,,,,,,,,320.9086,322.1924,l,1,[],[],[],[],[],[],[],0.6144,1,322.1924,322.693,,,,,,1341,FEM,CON,150,medida,,a,0.6144,,322.693,322.6931,0.75486109,-0.359722243,0,0,0,,0,139,139,440,1,,,
,,,,,,0209798cfa4d4c8a9a80edc0,66a626ef09d4e21e1a8894ec,673497e7c4c3bab08113cbf1,2024-11-13_13h13.47.513,Tarea de género gramatical,2024.2.2,Win32,59.88023952,,,,,,,,,,,,,,,,,,,,,,322.6935,324.0438,l,1,[],[],[],[],[],[],[],0.6746,1,324.0439,324.5444,,,,,,931,FEM,DIS,150,edad,el,a,0.6746,,324.5445,324.5445,0.75486109,-0.359722243,0,0,0,,0,140,140,30,1,,,
,,,,,,0209798cfa4d4c8a9a80edc0,66a626ef09d4e21e1a8894ec,673497e7c4c3bab08113cbf1,2024-11-13_13h13.47.513,Tarea de género gramatical,2024.2.2,Win32,59.88023952,,,,,,,,,,,,,,,,,,,,,,324.545,325.5618,l,1,[],[],[],[],[],[],[],0.3609,1,325.5618,326.0622,,,,,,1292,FEM,AGR,150,maleta,la,a,0.3609,,326.0627,326.0631,0.75486109,-0.359722243,0,0,0,,0,141,141,391,1,,,
,,,,,,0209798cfa4d4c8a9a80edc0,66a626ef09d4e21e1a8894ec,673497e7c4c3bab08113cbf1,2024-11-13_13h13.47.513,Tarea de género gramatical,2024.2.2,Win32,59.88023952,,,,,,,,,,,,,,,,,,,,,,326.0634,327.2799,l,1,[],[],[],[],[],[],[],0.5453,1,327.28,327.7803,,,,,,1117,FEM,DIS,150,tarea,el,a,0.5453,,327.7803,327.7804,0.75486109,-0.359722243,0,0,0,,0,142,142,216,1,,,
,,,,,,0209798cfa4d4c8a9a80edc0,66a626ef09d4e21e1a8894ec,673497e7c4c3bab08113cbf1,2024-11-13_13h13.47.513,Tarea de género gramatical,2024.2.2,Win32,59.88023952,,,,,,,,,,,,,,,,,,,,,,327.7808,328.8812,a,1,[],[],[],[],[],[],[],0.448,1,328.8813,329.3818,,,,,,989,MAS,AGR,150,maíz,el,l,0.448,,329.3819,329.3819,0.75486109,-0.359722243,0,0,0,,0,143,143,88,1,,,
,,,,,,0209798cfa4d4c8a9a80edc0,66a626ef09d4e21e1a8894ec,673497e7c4c3bab08113cbf1,2024-11-13_13h13.47.513,Tarea de género gramatical,2024.2.2,Win32,59.88023952,,,,,,,,,,,,,,,,,,,,,,329.3824,330.4992,l,1,[],[],[],[],[],[],[],0.4614,1,330.4993,330.9997,,,,,,1178,FEM,AGR,150,presa,la,a,0.4614,,330.9997,330.9997,0.75486109,-0.359722243,0,0,0,,0,144,144,277,1,,,
,,,,,,0209798cfa4d4c8a9a80edc0,66a626ef09d4e21e1a8894ec,673497e7c4c3bab08113cbf1,2024-11-13_13h13.47.513,Tarea de género gramatical,2024.2.2,Win32,59.88023952,,,,,,,,,,,,,,,,,,,,,,331.0002,331.9504,l,1,[],[],[],[],[],[],[],0.2908,1,331.9505,332.451,,,,,,1010,FEM,AGR,150,rosa,la,a,0.2908,,332.4511,332.4511,0.75486109,-0.359722243,0,0,0,,0,145,145,109,1,,,
,,,,,,0209798cfa4d4c8a9a80edc0,66a626ef09d4e21e1a8894ec,673497e7c4c3bab08113cbf1,2024-11-13_13h13.47.513,Tarea de género gramatical,2024.2.2,Win32,59.88023952,,,,,,,,,,,,,,,,,,,,,,332.4516,333.5517,a,1,[],[],[],[],[],[],[],0.4414,1,333.5518,334.0522,,,,,,1030,MAS,DIS,150,yate,la,l,0.4414,,334.0528,334.0531,0.75486109,-0.359722243,0,0,0,,0,146,146,129,1,,,
,,,,,,0209798cfa4d4c8a9a80edc0,66a626ef09d4e21e1a8894ec,673497e7c4c3bab08113cbf1,2024-11-13_13h13.47.513,Tarea de género gramatical,2024.2.2,Win32,59.88023952,,,,,,,,,,,,,,,,,,,,,,334.0535,335.0864,l,1,[],[],[],[],[],[],[],0.3515,1,335.0864,335.5868,,,,,,1280,FEM,AGR,150,madera,la,a,0.3515,,335.5868,335.5869,0.75486109,-0.359722243,0,0,0,,0,147,147,379,1,,,
,,,,,,0209798cfa4d4c8a9a80edc0,66a626ef09d4e21e1a8894ec,673497e7c4c3bab08113cbf1,2024-11-13_13h13.47.513,Tarea de género gramatical,2024.2.2,Win32,59.88023952,,,,,,,,,,,,,,,,,,,,,,335.5875,336.7211,a,1,[],[],[],[],[],[],[],0.4677,1,336.7211,337.2217,,,,,,1055,MAS,AGR,150,mundo,el,l,0.4677,,337.2217,337.2218,0.75486109,-0.359722243,0,0,0,,0,148,148,154,1,,,
,,,,,,0209798cfa4d4c8a9a80edc0,66a626ef09d4e21e1a8894ec,673497e7c4c3bab08113cbf1,2024-11-13_13h13.47.513,Tarea de género gramatical,2024.2.2,Win32,59.88023952,,,,,,,,,,,,,,,,,,,,,,337.2222,338.3892,l,1,[],[],[],[],[],[],[],0.5018,1,338.3892,338.8896,,,,,,1244,FEM,AGR,150,pareja,la,a,0.5018,,338.8896,338.8896,0.75486109,-0.359722243,0,0,0,,0,149,149,343,1,,,
,,,,,,0209798cfa4d4c8a9a80edc0,66a626ef09d4e21e1a8894ec,673497e7c4c3bab08113cbf1,2024-11-13_13h13.47.513,Tarea de género gramatical,2024.2.2,Win32,59.88023952,,,,,,,,,,,,,,,,,,,,,,338.8901,339.9404,a,1,[],[],[],[],[],[],[],0.396,1,339.9405,340.4408,,,,,,1122,MAS,CON,150,valor,,l,0.396,,340.4413,354.4193,0.114583333,-0.413888931,1,0,0,,0,150,150,221,1,break_done_button,,
,,,,,,0209798cfa4d4c8a9a80edc0,66a626ef09d4e21e1a8894ec,673497e7c4c3bab08113cbf1,2024-11-13_13h13.47.513,Tarea de género gramatical,2024.2.2,Win32,59.88023952,,,,,,,,,,,,,,,,,,,,,,354.4198,357.0713,,0,[],[],[],[],[],[],[],0.396,-1,357.0716,357.5716,,,,,,1123,FEM,DIS,150,plata,el,a,,,357.5717,357.5718,0.880555577,-0.227777799,0,0,0,,0,151,151,222,1,,,
,,,,,,0209798cfa4d4c8a9a80edc0,66a626ef09d4e21e1a8894ec,673497e7c4c3bab08113cbf1,2024-11-13_13h13.47.513,Tarea de género gramatical,2024.2.2,Win32,59.88023952,,,,,,,,,,,,,,,,,,,,,,357.5723,359.1065,a,1,[],[],[],[],[],[],[],0.8798,1,359.1069,359.6067,,,,,,1324,MAS,DIS,150,rastro,la,l,0.8798,,359.6067,359.6068,0.880555577,-0.227777799,0,0,0,,0,152,152,423,1,,,
,,,,,,0209798cfa4d4c8a9a80edc0,66a626ef09d4e21e1a8894ec,673497e7c4c3bab08113cbf1,2024-11-13_13h13.47.513,Tarea de género gramatical,2024.2.2,Win32,59.88023952,,,,,,,,,,,,,,,,,,,,,,359.6072,360.841,l,1,[],[],[],[],[],[],[],0.5795,1,360.8411,361.3414,,,,,,1219,FEM,DIS,150,sangre,el,a,0.5795,,361.3415,361.3415,0.880555577,-0.227777799,0,0,0,,0,153,153,318,1,,,
,,,,,,0209798cfa4d4c8a9a80edc0,66a626ef09d4e21e1a8894ec,673497e7c4c3bab08113cbf1,2024-11-13_13h13.47.513,Tarea de género gramatical,2024.2.2,Win32,59.88023952,,,,,,,,,,,,,,,,,,,,,,361.342,362.5091,a,1,[],[],[],[],[],[],[],0.4987,1,362.5091,363.0095,,,,,,1133,MAS,AGR,150,golpe,el,l,0.4987,,363.0096,363.0096,0.880555577,-0.227777799,0,0,0,,0,154,154,232,1,,,
,,,,,,0209798cfa4d4c8a9a80edc0,66a626ef09d4e21e1a8894ec,673497e7c4c3bab08113cbf1,2024-11-13_13h13.47.513,Tarea de género gramatical,2024.2.2,Win32,59.88023952,,,,,,,,,,,,,,,,,,,,,,363.01,363.9771,l,1,[],[],[],[],[],[],[],0.2985,1,363.9772,364.4774,,,,,,963,FEM,CON,150,fila,,a,0.2985,,364.4779,364.4782,0.880555577,-0.227777799,0,0,0,,0,155,155,62,1,,,
,,,,,,0209798cfa4d4c8a9a80edc0,66a626ef09d4e21e1a8894ec,673497e7c4c3bab08113cbf1,2024-11-13_13h13.47.513,Tarea de género gramatical,2024.2.2,Win32,59.88023952,,,,,,,,,,,,,,,,,,,,,,364.4785,365.4782,a,1,[],[],[],[],[],[],[],0.3235,1,365.4782,365.9788,,,,,,1013,MAS,AGR,150,toro,el,l,0.3235,,365.9788,365.9788,0.880555577,-0.227777799,0,0,0,,0,156,156,112,1,,,
,,,,,,0209798cfa4d4c8a9a80edc0,66a626ef09d4e21e1a8894ec,673497e7c4c3bab08113cbf1,2024-11-13_13h13.47.513,Tarea de género gramatical,2024.2.2,Win32,59.88023952,,,,,,,,,,,,,,,,,,,,,,365.9793,366.9962,l,0,[],[],[],[],[],[],[],0.3411,0,366.9965,367.4965,,,,,,1024,MAS,DIS,150,clan,la,l,0.3411,,367.4966,367.4967,0.880555577,-0.227777799,0,0,0,,0,157,157,123,1,,,
,,,,,,0209798cfa4d4c8a9a80edc0,66a626ef09d4e21e1a8894ec,673497e7c4c3bab08113cbf1,2024-11-13_13h13.47.513,Tarea de género gramatical,2024.2.2,Win32,59.88023952,,,,,,,,,,,,,,,,,,,,,,367.497,368.5808,l,0,[],[],[],[],[],[],[],0.428,0,368.5808,369.0812,,,,,,965,MAS,AGR,150,rayo,el,l,0.428,,369.0813,369.0813,0.880555577,-0.227777799,0,0,0,,0,158,158,64,1,,,
,,,,,,0209798cfa4d4c8a9a80edc0,66a626ef09d4e21e1a8894ec,673497e7c4c3bab08113cbf1,2024-11-13_13h13.47.513,Tarea de género gramatical,2024.2.2,Win32,59.88023952,,,,,,,,,,,,,,,,,,,,,,369.0818,370.3989,a,1,[],[],[],[],[],[],[],0.6584,1,370.3993,370.8995,,,,,,1260,MAS,CON,150,puente,,l,0.6584,,370.9001,370.9003,0.880555577,-0.227777799,0,0,0,,0,159,159,359,1,,,
,,,,,,0209798cfa4d4c8a9a80edc0,66a626ef09d4e21e1a8894ec,673497e7c4c3bab08113cbf1,2024-11-13_13h13.47.513,Tarea de género gramatical,2024.2.2,Win32,59.88023952,,,,,,,,,,,,,,,,,,,,,,370.9006,372.1504,l,0,[],[],[],[],[],[],[],0.5725,0,372.1507,372.6508,,,,,,984,MAS,CON,150,mago,,l,0.5725,,372.6509,372.6509,0.880555577,-0.227777799,0,0,0,,0,160,160,83,1,,,
,,,,,,0209798cfa4d4c8a9a80edc0,66a626ef09d4e21e1a8894ec,673497e7c4c3bab08113cbf1,2024-11-13_13h13.47.513,Tarea de género gramatical,2024.2.2,Win32,59.88023952,,,,,,,,,,,,,,,,,,,,,,372.6514,373.6183,l,1,[],[],[],[],[],[],[],0.3135,1,373.6186,374.1187,,,,,,1017,FEM,CON,150,raya,,a,0.3135,,374.1187,374.1188,0.880555577,-0.227777799,0,0,0,,0,161,161,116,1,,,
,,,,,,0209798cfa4d4c8a9a80edc0,66a626ef09d4e21e1a8894ec,673497e7c4c3bab08113cbf1,2024-11-13_13h13.47.513,Tarea de género gramatical,2024.2.2,Win32,59.88023952,,,,,,,,,,,,,,,,,,,,,,374.1192,375.1862,l,1,[],[],[],[],[],[],[],0.4139,1,375.1863,375.6867,,,,,,944,FEM,AGR,150,zona,la,a,0.4139,,375.6867,375.6867,0.880555577,-0.227777799,0,0,0,,0,162,162,43,1,,,
,,,,,,0209798cfa4d4c8a9a80edc0,66a626ef09d4e21e1a8894ec,673497e7c4c3bab08113cbf1,2024-11-13_13h13.47.513,Tarea de género gramatical,2024.2.2,Win32,59.88023952,,,,,,,,,,,,,,,,,,,,,,375.6872,376.7042,a,0,[],[],[],[],[],[],[],0.3579,0,376.7045,377.2046,,,,,,1113,FEM,CON,150,magia,,a,0.3579,,377.2047,377.2047,0.880555577,-0.227777799,0,0,0,,0,163,163,212,1,,,
,,,,,,0209798cfa4d4c8a9a80edc0,66a626ef09d4e21e1a8894ec,673497e7c4c3bab08113cbf1,2024-11-13_13h13.47.513,Tarea de género gramatical,2024.2.2,Win32,59.88023952,,,,,,,,,,,,,,,,,,,,,,377.2051,378.2221,l,1,[],[],[],[],[],[],[],0.3526,1,378.2225,378.7225,,,,,,1130,FEM,AGR,150,regla,la,a,0.3526,,378.723,378.7232,0.880555577,-0.227777799,0,0,0,,0,164,164,229,1,,,
,,,,,,0209798cfa4d4c8a9a80edc0,66a626ef09d4e21e1a8894ec,673497e7c4c3bab08113cbf1,2024-11-13_13h13.47.513,Tarea de género gramatical,2024.2.2,Win32,59.88023952,,,,,,,,,,,,,,,,,,,,,,378.7235,379.8902,a,0,[],[],[],[],[],[],[],0.4821,0,379.8905,380.3908,,,,,,919,FEM,DIS,150,niña,el,a,0.4821,,380.3908,380.3908,0.880555577,-0.227777799,0,0,0,,0,165,165,18,1,,,
,,,,,,0209798cfa4d4c8a9a80edc0,66a626ef09d4e21e1a8894ec,673497e7c4c3bab08113cbf1,2024-11-13_13h13.47.513,Tarea de género gramatical,2024.2.2,Win32,59.88023952,,,,,,,,,,,,,,,,,,,,,,380.3913,381.5749,a,1,[],[],[],[],[],[],[],0.5219,1,381.5752,382.0752,,,,,,1097,MAS,AGR,150,avión,el,l,0.5219,,382.0753,382.0753,0.880555577,-0.227777799,0,0,0,,0,166,166,196,1,,,
,,,,,,0209798cfa4d4c8a9a80edc0,66a626ef09d4e21e1a8894ec,673497e7c4c3bab08113cbf1,2024-11-13_13h13.47.513,Tarea de género gramatical,2024.2.2,Win32,59.88023952,,,,,,,,,,,,,,,,,,,,,,382.0758,383.1429,a,1,[],[],[],[],[],[],[],0.4114,1,383.1429,383.6434,,,,,,1265,MAS,AGR,150,código,el,l,0.4114,,383.6434,383.6434,0.880555577,-0.227777799,0,0,0,,0,167,167,364,1,,,
,,,,,,0209798cfa4d4c8a9a80edc0,66a626ef09d4e21e1a8894ec,673497e7c4c3bab08113cbf1,2024-11-13_13h13.47.513,Tarea de género gramatical,2024.2.2,Win32,59.88023952,,,,,,,,,,,,,,,,,,,,,,383.644,384.7274,a,1,[],[],[],[],[],[],[],0.4215,1,384.7275,385.228,,,,,,1092,MAS,CON,150,grupo,,l,0.4215,,385.2284,385.2287,0.880555577,-0.227777799,0,0,0,,0,168,168,191,1,,,
,,,,,,0209798cfa4d4c8a9a80edc0,66a626ef09d4e21e1a8894ec,673497e7c4c3bab08113cbf1,2024-11-13_13h13.47.513,Tarea de género gramatical,2024.2.2,Win32,59.88023952,,,,,,,,,,,,,,,,,,,,,,385.2291,386.2454,l,1,[],[],[],[],[],[],[],0.3472,1,386.2454,386.746,,,,,,921,FEM,CON,150,boca,,a,0.3472,,386.746,386.7461,0.880555577,-0.227777799,0,0,0,,0,169,169,20,1,,,
,,,,,,0209798cfa4d4c8a9a80edc0,66a626ef09d4e21e1a8894ec,673497e7c4c3bab08113cbf1,2024-11-13_13h13.47.513,Tarea de género gramatical,2024.2.2,Win32,59.88023952,,,,,,,,,,,,,,,,,,,,,,386.7466,387.7635,l,1,[],[],[],[],[],[],[],0.3556,1,387.7635,388.2638,,,,,,1173,FEM,CON,150,tarta,,a,0.3556,,388.2638,388.2638,0.880555577,-0.227777799,0,0,0,,0,170,170,272,1,,,
,,,,,,0209798cfa4d4c8a9a80edc0,66a626ef09d4e21e1a8894ec,673497e7c4c3bab08113cbf1,2024-11-13_13h13.47.513,Tarea de género gramatical,2024.2.2,Win32,59.88023952,,,,,,,,,,,,,,,,,,,,,,388.2642,389.4314,a,1,[],[],[],[],[],[],[],0.5098,1,389.4314,389.9318,,,,,,1320,MAS,CON,150,helado,,l,0.5098,,389.9318,389.9318,0.880555577,-0.227777799,0,0,0,,0,171,171,419,1,,,
,,,,,,0209798cfa4d4c8a9a80edc0,66a626ef09d4e21e1a8894ec,673497e7c4c3bab08113cbf1,2024-11-13_13h13.47.513,Tarea de género gramatical,2024.2.2,Win32,59.88023952,,,,,,,,,,,,,,,,,,,,,,389.9323,391.0994,l,1,[],[],[],[],[],[],[],0.5045,1,391.0995,391.6,,,,,,1345,FEM,DIS,150,bondad,el,a,0.5045,,391.6,391.6,0.880555577,-0.227777799,0,0,0,,0,172,172,444,1,,,
,,,,,,0209798cfa4d4c8a9a80edc0,66a626ef09d4e21e1a8894ec,673497e7c4c3bab08113cbf1,2024-11-13_13h13.47.513,Tarea de género gramatical,2024.2.2,Win32,59.88023952,,,,,,,,,,,,,,,,,,,,,,391.6005,393.0176,l,1,[],[],[],[],[],[],[],0.7575,1,393.0177,393.5182,,,,,,1293,FEM,CON,150,alarma,,a,0.7575,,393.5187,393.519,0.880555577,-0.227777799,0,0,0,,0,173,173,392,1,,,
,,,,,,0209798cfa4d4c8a9a80edc0,66a626ef09d4e21e1a8894ec,673497e7c4c3bab08113cbf1,2024-11-13_13h13.47.513,Tarea de género gramatical,2024.2.2,Win32,59.88023952,,,,,,,,,,,,,,,,,,,,,,393.5193,394.7191,a,1,[],[],[],[],[],[],[],0.5231,1,394.7192,395.2197,,,,,,936,MAS,CON,150,dedo,,l,0.5231,,395.2197,395.2198,0.880555577,-0.227777799,0,0,0,,0,174,174,35,1,,,
,,,,,,0209798cfa4d4c8a9a80edc0,66a626ef09d4e21e1a8894ec,673497e7c4c3bab08113cbf1,2024-11-13_13h13.47.513,Tarea de género gramatical,2024.2.2,Win32,59.88023952,,,,,,,,,,,,,,,,,,,,,,395.2202,396.4038,l,1,[],[],[],[],[],[],[],0.5174,1,396.4039,396.9043,,,,,,1310,FEM,AGR,150,piedad,la,a,0.5174,,396.9043,396.9044,0.880555577,-0.227777799,0,0,0,,0,175,175,409,1,,,
,,,,,,0209798cfa4d4c8a9a80edc0,66a626ef09d4e21e1a8894ec,673497e7c4c3bab08113cbf1,2024-11-13_13h13.47.513,Tarea de género gramatical,2024.2.2,Win32,59.88023952,,,,,,,,,,,,,,,,,,,,,,396.9048,398.0886,a,1,[],[],[],[],[],[],[],0.5247,1,398.0886,398.5889,,,,,,1138,MAS,DIS,150,norte,la,l,0.5247,,398.5889,398.5891,0.880555577,-0.227777799,0,0,0,,0,176,176,237,1,,,
,,,,,,0209798cfa4d4c8a9a80edc0,66a626ef09d4e21e1a8894ec,673497e7c4c3bab08113cbf1,2024-11-13_13h13.47.513,Tarea de género gramatical,2024.2.2,Win32,59.88023952,,,,,,,,,,,,,,,,,,,,,,398.5895,399.6731,a,1,[],[],[],[],[],[],[],0.4238,1,399.6732,400.1738,,,,,,1127,MAS,AGR,150,vuelo,el,l,0.4238,,400.1743,400.1746,0.880555577,-0.227777799,0,0,0,,0,177,177,226,1,,,
,,,,,,0209798cfa4d4c8a9a80edc0,66a626ef09d4e21e1a8894ec,673497e7c4c3bab08113cbf1,2024-11-13_13h13.47.513,Tarea de género gramatical,2024.2.2,Win32,59.88023952,,,,,,,,,,,,,,,,,,,,,,400.175,401.2913,a,1,[],[],[],[],[],[],[],0.4354,1,401.2913,401.7918,,,,,,1151,MAS,AGR,150,dueño,el,l,0.4354,,401.7918,401.7919,0.880555577,-0.227777799,0,0,0,,0,178,178,250,1,,,
,,,,,,0209798cfa4d4c8a9a80edc0,66a626ef09d4e21e1a8894ec,673497e7c4c3bab08113cbf1,2024-11-13_13h13.47.513,Tarea de género gramatical,2024.2.2,Win32,59.88023952,,,,,,,,,,,,,,,,,,,,,,401.7923,403.2095,a,1,[],[],[],[],[],[],[],0.7465,1,403.2095,403.7099,,,,,,988,MAS,DIS,150,pavo,la,l,0.7465,,403.7099,403.7099,0.880555577,-0.227777799,0,0,0,,0,179,179,87,1,,,
,,,,,,0209798cfa4d4c8a9a80edc0,66a626ef09d4e21e1a8894ec,673497e7c4c3bab08113cbf1,2024-11-13_13h13.47.513,Tarea de género gramatical,2024.2.2,Win32,59.88023952,,,,,,,,,,,,,,,,,,,,,,403.7104,404.961,l,1,[],[],[],[],[],[],[],0.5929,1,404.961,405.4613,,,,,,1183,FEM,DIS,150,pluma,el,a,0.5929,,405.4614,405.4614,0.880555577,-0.227777799,0,0,0,,0,180,180,282,1,,,
,,,,,,0209798cfa4d4c8a9a80edc0,66a626ef09d4e21e1a8894ec,673497e7c4c3bab08113cbf1,2024-11-13_13h13.47.513,Tarea de género gramatical,2024.2.2,Win32,59.88023952,,,,,,,,,,,,,,,,,,,,,,405.4618,406.5455,l,1,[],[],[],[],[],[],[],0.4274,1,406.5456,407.0461,,,,,,1268,FEM,AGR,150,gracia,la,a,0.4274,,407.0461,407.0462,0.880555577,-0.227777799,0,0,0,,0,181,181,367,1,,,
,,,,,,0209798cfa4d4c8a9a80edc0,66a626ef09d4e21e1a8894ec,673497e7c4c3bab08113cbf1,2024-11-13_13h13.47.513,Tarea de género gramatical,2024.2.2,Win32,59.88023952,,,,,,,,,,,,,,,,,,,,,,407.0467,408.5138,l,1,[],[],[],[],[],[],[],0.809,1,408.5139,409.0145,,,,,,1255,FEM,DIS,150,mirada,el,a,0.809,,409.015,409.0154,0.880555577,-0.227777799,0,0,0,,0,182,182,354,1,,,
,,,,,,0209798cfa4d4c8a9a80edc0,66a626ef09d4e21e1a8894ec,673497e7c4c3bab08113cbf1,2024-11-13_13h13.47.513,Tarea de género gramatical,2024.2.2,Win32,59.88023952,,,,,,,,,,,,,,,,,,,,,,409.0156,410.2989,a,1,[],[],[],[],[],[],[],0.6007,1,410.2989,410.7992,,,,,,929,MAS,AGR,150,frío,el,l,0.6007,,410.7992,410.7992,0.880555577,-0.227777799,0,0,0,,0,183,183,28,1,,,
,,,,,,0209798cfa4d4c8a9a80edc0,66a626ef09d4e21e1a8894ec,673497e7c4c3bab08113cbf1,2024-11-13_13h13.47.513,Tarea de género gramatical,2024.2.2,Win32,59.88023952,,,,,,,,,,,,,,,,,,,,,,410.7999,412.0668,a,1,[],[],[],[],[],[],[],0.6017,1,412.0668,412.5674,,,,,,1116,MAS,CON,150,éxito,,l,0.6017,,412.5675,412.5675,0.880555577,-0.227777799,0,0,0,,0,184,184,215,1,,,
,,,,,,0209798cfa4d4c8a9a80edc0,66a626ef09d4e21e1a8894ec,673497e7c4c3bab08113cbf1,2024-11-13_13h13.47.513,Tarea de género gramatical,2024.2.2,Win32,59.88023952,,,,,,,,,,,,,,,,,,,,,,412.5681,413.6515,l,1,[],[],[],[],[],[],[],0.4206,1,413.6515,414.1521,,,,,,1221,FEM,CON,150,comida,,a,0.4206,,414.1521,414.1521,0.880555577,-0.227777799,0,0,0,,0,185,185,320,1,,,
,,,,,,0209798cfa4d4c8a9a80edc0,66a626ef09d4e21e1a8894ec,673497e7c4c3bab08113cbf1,2024-11-13_13h13.47.513,Tarea de género gramatical,2024.2.2,Win32,59.88023952,,,,,,,,,,,,,,,,,,,,,,414.1526,415.3195,l,1,[],[],[],[],[],[],[],0.5077,1,415.3196,415.82,,,,,,943,FEM,DIS,150,nena,el,a,0.5077,,415.8205,415.8208,0.880555577,-0.227777799,0,0,0,,0,186,186,42,1,,,
,,,,,,0209798cfa4d4c8a9a80edc0,66a626ef09d4e21e1a8894ec,673497e7c4c3bab08113cbf1,2024-11-13_13h13.47.513,Tarea de género gramatical,2024.2.2,Win32,59.88023952,,,,,,,,,,,,,,,,,,,,,,415.8211,417.0709,a,1,[],[],[],[],[],[],[],0.5682,1,417.071,417.5714,,,,,,1007,MAS,AGR,150,cubo,el,l,0.5682,,417.5714,417.5714,0.880555577,-0.227777799,0,0,0,,0,187,187,106,1,,,
,,,,,,0209798cfa4d4c8a9a80edc0,66a626ef09d4e21e1a8894ec,673497e7c4c3bab08113cbf1,2024-11-13_13h13.47.513,Tarea de género gramatical,2024.2.2,Win32,59.88023952,,,,,,,,,,,,,,,,,,,,,,417.5719,418.756,l,1,[],[],[],[],[],[],[],0.53,1,418.756,419.2561,,,,,,1171,FEM,DIS,150,viuda,el,a,0.53,,419.2561,419.2562,0.880555577,-0.227777799,0,0,0,,0,188,188,270,1,,,
,,,,,,0209798cfa4d4c8a9a80edc0,66a626ef09d4e21e1a8894ec,673497e7c4c3bab08113cbf1,2024-11-13_13h13.47.513,Tarea de género gramatical,2024.2.2,Win32,59.88023952,,,,,,,,,,,,,,,,,,,,,,419.2567,420.3236,l,1,[],[],[],[],[],[],[],0.4075,1,420.3237,420.8241,,,,,,1298,FEM,AGR,150,hierba,la,a,0.4075,,420.8241,420.8241,0.880555577,-0.227777799,0,0,0,,0,189,189,397,1,,,
,,,,,,0209798cfa4d4c8a9a80edc0,66a626ef09d4e21e1a8894ec,673497e7c4c3bab08113cbf1,2024-11-13_13h13.47.513,Tarea de género gramatical,2024.2.2,Win32,59.88023952,,,,,,,,,,,,,,,,,,,,,,420.8246,422.4421,l,1,[],[],[],[],[],[],[],0.9515,1,422.4422,422.9424,,,,,,973,FEM,DIS,150,roca,el,a,0.9515,,422.9424,422.9425,0.880555577,-0.227777799,0,0,0,,0,190,190,72,1,,,
,,,,,,0209798cfa4d4c8a9a80edc0,66a626ef09d4e21e1a8894ec,673497e7c4c3bab08113cbf1,2024-11-13_13h13.47.513,Tarea de género gramatical,2024.2.2,Win32,59.88023952,,,,,,,,,,,,,,,,,,,,,,422.943,424.1268,a,1,[],[],[],[],[],[],[],0.5274,1,424.1268,424.6272,,,,,,1229,MAS,AGR,150,futuro,el,l,0.5274,,424.6277,424.628,0.880555577,-0.227777799,0,0,0,,0,191,191,328,1,,,
,,,,,,0209798cfa4d4c8a9a80edc0,66a626ef09d4e21e1a8894ec,673497e7c4c3bab08113cbf1,2024-11-13_13h13.47.513,Tarea de género gramatical,2024.2.2,Win32,59.88023952,,,,,,,,,,,,,,,,,,,,,,424.6284,425.6615,l,1,[],[],[],[],[],[],[],0.353,1,425.6616,426.162,,,,,,999,FEM,CON,150,fase,,a,0.353,,426.162,426.1621,0.880555577,-0.227777799,0,0,0,,0,192,192,98,1,,,
,,,,,,0209798cfa4d4c8a9a80edc0,66a626ef09d4e21e1a8894ec,673497e7c4c3bab08113cbf1,2024-11-13_13h13.47.513,Tarea de género gramatical,2024.2.2,Win32,59.88023952,,,,,,,,,,,,,,,,,,,,,,426.1626,427.1627,l,1,[],[],[],[],[],[],[],0.3324,1,427.1627,427.6631,,,,,,933,FEM,CON,150,boda,,a,0.3324,,427.6631,427.6631,0.880555577,-0.227777799,0,0,0,,0,193,193,32,1,,,
,,,,,,0209798cfa4d4c8a9a80edc0,66a626ef09d4e21e1a8894ec,673497e7c4c3bab08113cbf1,2024-11-13_13h13.47.513,Tarea de género gramatical,2024.2.2,Win32,59.88023952,,,,,,,,,,,,,,,,,,,,,,427.6636,428.7306,a,1,[],[],[],[],[],[],[],0.4108,1,428.7307,429.231,,,,,,1036,MAS,DIS,150,vago,la,l,0.4108,,429.2311,429.2312,0.880555577,-0.227777799,0,0,0,,0,194,194,135,1,,,
,,,,,,0209798cfa4d4c8a9a80edc0,66a626ef09d4e21e1a8894ec,673497e7c4c3bab08113cbf1,2024-11-13_13h13.47.513,Tarea de género gramatical,2024.2.2,Win32,59.88023952,,,,,,,,,,,,,,,,,,,,,,429.2316,430.799,a,1,[],[],[],[],[],[],[],0.9011,1,430.799,431.2994,,,,,,916,MAS,DIS,150,baño,la,l,0.9011,,431.2999,431.3002,0.880555577,-0.227777799,0,0,0,,0,195,195,15,1,,,
,,,,,,0209798cfa4d4c8a9a80edc0,66a626ef09d4e21e1a8894ec,673497e7c4c3bab08113cbf1,2024-11-13_13h13.47.513,Tarea de género gramatical,2024.2.2,Win32,59.88023952,,,,,,,,,,,,,,,,,,,,,,431.3006,432.4003,l,1,[],[],[],[],[],[],[],0.4245,1,432.4004,432.9008,,,,,,1057,FEM,DIS,150,madre,el,a,0.4245,,432.9008,432.9009,0.880555577,-0.227777799,0,0,0,,0,196,196,156,1,,,
,,,,,,0209798cfa4d4c8a9a80edc0,66a626ef09d4e21e1a8894ec,673497e7c4c3bab08113cbf1,2024-11-13_13h13.47.513,Tarea de género gramatical,2024.2.2,Win32,59.88023952,,,,,,,,,,,,,,,,,,,,,,432.9013,433.9351,l,0,[],[],[],[],[],[],[],0.3699,0,433.9355,434.4355,,,,,,1254,MAS,CON,150,camión,,l,0.3699,,434.4355,434.4355,0.880555577,-0.227777799,0,0,0,,0,197,197,353,1,,,
,,,,,,0209798cfa4d4c8a9a80edc0,66a626ef09d4e21e1a8894ec,673497e7c4c3bab08113cbf1,2024-11-13_13h13.47.513,Tarea de género gramatical,2024.2.2,Win32,59.88023952,,,,,,,,,,,,,,,,,,,,,,434.436,435.5196,l,1,[],[],[],[],[],[],[],0.4206,1,435.5199,436.0201,,,,,,1095,FEM,CON,150,pared,,a,0.4206,,436.0201,436.0201,0.880555577,-0.227777799,0,0,0,,0,198,198,194,1,,,
,,,,,,0209798cfa4d4c8a9a80edc0,66a626ef09d4e21e1a8894ec,673497e7c4c3bab08113cbf1,2024-11-13_13h13.47.513,Tarea de género gramatical,2024.2.2,Win32,59.88023952,,,,,,,,,,,,,,,,,,,,,,436.0206,437.3544,l,1,[],[],[],[],[],[],[],0.6667,1,437.3545,437.8548,,,,,,1165,FEM,DIS,150,rueda,el,a,0.6667,,437.8548,437.8549,0.880555577,-0.227777799,0,0,0,,0,199,199,264,1,,,
,,,,,,0209798cfa4d4c8a9a80edc0,66a626ef09d4e21e1a8894ec,673497e7c4c3bab08113cbf1,2024-11-13_13h13.47.513,Tarea de género gramatical,2024.2.2,Win32,59.88023952,,,,,,,,,,,,,,,,,,,,,,437.8554,439.0227,a,1,[],[],[],[],[],[],[],0.5061,1,439.0227,439.5229,,,,,,1307,MAS,AGR,150,jurado,el,l,0.5061,,439.5234,439.5237,0.880555577,-0.227777799,0,0,0,,0,200,200,406,1,,,
,,,,,,0209798cfa4d4c8a9a80edc0,66a626ef09d4e21e1a8894ec,673497e7c4c3bab08113cbf1,2024-11-13_13h13.47.513,Tarea de género gramatical,2024.2.2,Win32,59.88023952,,,,,,,,,,,,,,,,,,,,,,439.5239,440.6238,l,1,[],[],[],[],[],[],[],0.4274,1,440.6239,441.1242,,,,,,901,FEM,DIS,150,casa,el,a,0.4274,,441.1242,441.1243,0.880555577,-0.227777799,0,0,0,,0,201,201,0,1,,,
,,,,,,0209798cfa4d4c8a9a80edc0,66a626ef09d4e21e1a8894ec,673497e7c4c3bab08113cbf1,2024-11-13_13h13.47.513,Tarea de género gramatical,2024.2.2,Win32,59.88023952,,,,,,,,,,,,,,,,,,,,,,441.1248,442.2751,a,1,[],[],[],[],[],[],[],0.4939,1,442.2752,442.7755,,,,,,1067,MAS,AGR,150,juego,el,l,0.4939,,442.7756,442.7757,0.880555577,-0.227777799,0,0,0,,0,202,202,166,1,,,
,,,,,,0209798cfa4d4c8a9a80edc0,66a626ef09d4e21e1a8894ec,673497e7c4c3bab08113cbf1,2024-11-13_13h13.47.513,Tarea de género gramatical,2024.2.2,Win32,59.88023952,,,,,,,,,,,,,,,,,,,,,,442.7761,444.0266,a,1,[],[],[],[],[],[],[],0.5836,1,444.0266,444.5272,,,,,,1056,MAS,CON,150,amigo,,l,0.5836,,444.5272,444.5272,0.880555577,-0.227777799,0,0,0,,0,203,203,155,1,,,
,,,,,,0209798cfa4d4c8a9a80edc0,66a626ef09d4e21e1a8894ec,673497e7c4c3bab08113cbf1,2024-11-13_13h13.47.513,Tarea de género gramatical,2024.2.2,Win32,59.88023952,,,,,,,,,,,,,,,,,,,,,,444.5277,445.7113,a,1,[],[],[],[],[],[],[],0.5287,1,445.7114,446.2121,,,,,,1014,MAS,CON,150,menú,,l,0.5287,,446.2127,446.213,0.880555577,-0.227777799,0,0,0,,0,204,204,113,1,,,
,,,,,,0209798cfa4d4c8a9a80edc0,66a626ef09d4e21e1a8894ec,673497e7c4c3bab08113cbf1,2024-11-13_13h13.47.513,Tarea de género gramatical,2024.2.2,Win32,59.88023952,,,,,,,,,,,,,,,,,,,,,,446.2132,447.2626,l,1,[],[],[],[],[],[],[],0.3705,1,447.2627,447.7631,,,,,,1058,FEM,AGR,150,chica,la,a,0.3705,,447.7631,447.7631,0.880555577,-0.227777799,0,0,0,,0,205,205,157,1,,,
,,,,,,0209798cfa4d4c8a9a80edc0,66a626ef09d4e21e1a8894ec,673497e7c4c3bab08113cbf1,2024-11-13_13h13.47.513,Tarea de género gramatical,2024.2.2,Win32,59.88023952,,,,,,,,,,,,,,,,,,,,,,447.7636,448.9807,a,1,[],[],[],[],[],[],[],0.5559,1,448.9808,449.4811,,,,,,1102,MAS,DIS,150,honor,la,l,0.5559,,449.4811,449.4812,0.880555577,-0.227777799,0,0,0,,0,206,206,201,1,,,
,,,,,,0209798cfa4d4c8a9a80edc0,66a626ef09d4e21e1a8894ec,673497e7c4c3bab08113cbf1,2024-11-13_13h13.47.513,Tarea de género gramatical,2024.2.2,Win32,59.88023952,,,,,,,,,,,,,,,,,,,,,,449.4817,450.5821,a,1,[],[],[],[],[],[],[],0.4416,1,450.5821,451.0824,,,,,,1103,MAS,AGR,150,novio,el,l,0.4416,,451.0825,451.0825,0.880555577,-0.227777799,0,0,0,,0,207,207,202,1,,,
,,,,,,0209798cfa4d4c8a9a80edc0,66a626ef09d4e21e1a8894ec,673497e7c4c3bab08113cbf1,2024-11-13_13h13.47.513,Tarea de género gramatical,2024.2.2,Win32,59.88023952,,,,,,,,,,,,,,,,,,,,,,451.0829,452.2001,a,1,[],[],[],[],[],[],[],0.4509,1,452.2001,452.7004,,,,,,1350,MAS,CON,150,conejo,,l,0.4509,,452.7005,452.7005,0.880555577,-0.227777799,0,0,0,,0,208,208,449,1,,,
,,,,,,0209798cfa4d4c8a9a80edc0,66a626ef09d4e21e1a8894ec,673497e7c4c3bab08113cbf1,2024-11-13_13h13.47.513,Tarea de género gramatical,2024.2.2,Win32,59.88023952,,,,,,,,,,,,,,,,,,,,,,452.701,453.8016,l,1,[],[],[],[],[],[],[],0.4326,1,453.8016,454.3018,,,,,,1023,FEM,CON,150,tela,,a,0.4326,,454.3023,454.3026,0.880555577,-0.227777799,0,0,0,,0,209,209,122,1,,,
,,,,,,0209798cfa4d4c8a9a80edc0,66a626ef09d4e21e1a8894ec,673497e7c4c3bab08113cbf1,2024-11-13_13h13.47.513,Tarea de género gramatical,2024.2.2,Win32,59.88023952,,,,,,,,,,,,,,,,,,,,,,454.3032,455.4371,a,0,[],[],[],[],[],[],[],0.4594,0,455.4375,455.9365,,,,,,1231,FEM,DIS,150,cárcel,el,a,0.4594,,455.9365,455.9365,0.880555577,-0.227777799,0,0,0,,0,210,210,330,1,,,
,,,,,,0209798cfa4d4c8a9a80edc0,66a626ef09d4e21e1a8894ec,673497e7c4c3bab08113cbf1,2024-11-13_13h13.47.513,Tarea de género gramatical,2024.2.2,Win32,59.88023952,,,,,,,,,,,,,,,,,,,,,,455.937,457.2208,a,1,[],[],[],[],[],[],[],0.6234,1,457.2213,457.7212,,,,,,1248,MAS,CON,150,anillo,,l,0.6234,,457.7213,457.7213,0.880555577,-0.227777799,0,0,0,,0,211,211,347,1,,,
,,,,,,0209798cfa4d4c8a9a80edc0,66a626ef09d4e21e1a8894ec,673497e7c4c3bab08113cbf1,2024-11-13_13h13.47.513,Tarea de género gramatical,2024.2.2,Win32,59.88023952,,,,,,,,,,,,,,,,,,,,,,457.7218,458.8222,l,1,[],[],[],[],[],[],[],0.4386,1,458.8222,459.3226,,,,,,1213,FEM,DIS,150,ciudad,el,a,0.4386,,459.3226,459.3227,0.880555577,-0.227777799,0,0,0,,0,212,212,312,1,,,
,,,,,,0209798cfa4d4c8a9a80edc0,66a626ef09d4e21e1a8894ec,673497e7c4c3bab08113cbf1,2024-11-13_13h13.47.513,Tarea de género gramatical,2024.2.2,Win32,59.88023952,,,,,,,,,,,,,,,,,,,,,,459.3231,460.5736,l,0,[],[],[],[],[],[],[],0.5885,0,460.574,461.074,,,,,,1192,MAS,DIS,150,piano,la,l,0.5885,,461.0746,461.0748,0.880555577,-0.227777799,0,0,0,,0,213,213,291,1,,,
,,,,,,0209798cfa4d4c8a9a80edc0,66a626ef09d4e21e1a8894ec,673497e7c4c3bab08113cbf1,2024-11-13_13h13.47.513,Tarea de género gramatical,2024.2.2,Win32,59.88023952,,,,,,,,,,,,,,,,,,,,,,461.0751,462.3084,a,1,[],[],[],[],[],[],[],0.5584,1,462.3087,462.8088,,,,,,1061,MAS,AGR,150,chico,el,l,0.5584,,462.8088,462.8089,0.880555577,-0.227777799,0,0,0,,0,214,214,160,1,,,
,,,,,,0209798cfa4d4c8a9a80edc0,66a626ef09d4e21e1a8894ec,673497e7c4c3bab08113cbf1,2024-11-13_13h13.47.513,Tarea de género gramatical,2024.2.2,Win32,59.88023952,,,,,,,,,,,,,,,,,,,,,,462.8094,464.0933,a,1,[],[],[],[],[],[],[],0.6162,1,464.0933,464.5937,,,,,,1018,MAS,DIS,150,baúl,la,l,0.6162,,464.5937,464.5937,0.880555577,-0.227777799,0,0,0,,0,215,215,117,1,,,
,,,,,,0209798cfa4d4c8a9a80edc0,66a626ef09d4e21e1a8894ec,673497e7c4c3bab08113cbf1,2024-11-13_13h13.47.513,Tarea de género gramatical,2024.2.2,Win32,59.88023952,,,,,,,,,,,,,,,,,,,,,,464.5941,465.878,l,1,[],[],[],[],[],[],[],0.6202,1,465.8781,466.3785,,,,,,1022,FEM,AGR,150,loca,la,a,0.6202,,466.3785,466.3786,0.880555577,-0.227777799,0,0,0,,0,216,216,121,1,,,
,,,,,,0209798cfa4d4c8a9a80edc0,66a626ef09d4e21e1a8894ec,673497e7c4c3bab08113cbf1,2024-11-13_13h13.47.513,Tarea de género gramatical,2024.2.2,Win32,59.88023952,,,,,,,,,,,,,,,,,,,,,,466.379,467.4961,l,1,[],[],[],[],[],[],[],0.4537,1,467.4961,467.9967,,,,,,1287,FEM,CON,150,página,,a,0.4537,,467.9967,467.9968,0.880555577,-0.227777799,0,0,0,,0,217,217,386,1,,,
,,,,,,0209798cfa4d4c8a9a80edc0,66a626ef09d4e21e1a8894ec,673497e7c4c3bab08113cbf1,2024-11-13_13h13.47.513,Tarea de género gramatical,2024.2.2,Win32,59.88023952,,,,,,,,,,,,,,,,,,,,,,467.9973,469.1141,l,1,[],[],[],[],[],[],[],0.4563,1,469.1141,469.6146,,,,,,908,FEM,AGR,150,idea,la,a,0.4563,,469.6151,469.6155,0.880555577,-0.227777799,0,0,0,,0,218,218,7,1,,,
,,,,,,0209798cfa4d4c8a9a80edc0,66a626ef09d4e21e1a8894ec,673497e7c4c3bab08113cbf1,2024-11-13_13h13.47.513,Tarea de género gramatical,2024.2.2,Win32,59.88023952,,,,,,,,,,,,,,,,,,,,,,469.6157,470.949,l,1,[],[],[],[],[],[],[],0.6611,1,470.949,471.4494,,,,,,1069,FEM,DIS,150,vista,el,a,0.6611,,471.4495,471.4495,0.880555577,-0.227777799,0,0,0,,0,219,219,168,1,,,
,,,,,,0209798cfa4d4c8a9a80edc0,66a626ef09d4e21e1a8894ec,673497e7c4c3bab08113cbf1,2024-11-13_13h13.47.513,Tarea de género gramatical,2024.2.2,Win32,59.88023952,,,,,,,,,,,,,,,,,,,,,,471.4499,472.617,l,1,[],[],[],[],[],[],[],0.5099,1,472.617,473.1176,,,,,,1179,FEM,CON,150,selva,,a,0.5099,,473.1176,473.1176,0.880555577,-0.227777799,0,0,0,,0,220,220,278,1,,,
,,,,,,0209798cfa4d4c8a9a80edc0,66a626ef09d4e21e1a8894ec,673497e7c4c3bab08113cbf1,2024-11-13_13h13.47.513,Tarea de género gramatical,2024.2.2,Win32,59.88023952,,,,,,,,,,,,,,,,,,,,,,473.1182,474.3851,l,1,[],[],[],[],[],[],[],0.606,1,474.3851,474.8855,,,,,,1106,FEM,AGR,150,época,la,a,0.606,,474.8855,474.8856,0.880555577,-0.227777799,0,0,0,,0,221,221,205,1,,,
,,,,,,0209798cfa4d4c8a9a80edc0,66a626ef09d4e21e1a8894ec,673497e7c4c3bab08113cbf1,2024-11-13_13h13.47.513,Tarea de género gramatical,2024.2.2,Win32,59.88023952,,,,,,,,,,,,,,,,,,,,,,474.8861,476.07,a,1,[],[],[],[],[],[],[],0.5161,1,476.0701,476.5705,,,,,,1344,MAS,CON,150,límite,,l,0.5161,,476.571,476.5713,0.880555577,-0.227777799,0,0,0,,0,222,222,443,1,,,
,,,,,,0209798cfa4d4c8a9a80edc0,66a626ef09d4e21e1a8894ec,673497e7c4c3bab08113cbf1,2024-11-13_13h13.47.513,Tarea de género gramatical,2024.2.2,Win32,59.88023952,,,,,,,,,,,,,,,,,,,,,,476.5716,477.7545,l,1,[],[],[],[],[],[],[],0.5005,1,477.7545,478.255,,,,,,1136,FEM,AGR,150,deuda,la,a,0.5005,,478.255,478.255,0.880555577,-0.227777799,0,0,0,,0,223,223,235,1,,,
,,,,,,0209798cfa4d4c8a9a80edc0,66a626ef09d4e21e1a8894ec,673497e7c4c3bab08113cbf1,2024-11-13_13h13.47.513,Tarea de género gramatical,2024.2.2,Win32,59.88023952,,,,,,,,,,,,,,,,,,,,,,478.2555,479.4395,a,1,[],[],[],[],[],[],[],0.5253,1,479.4396,479.9396,,,,,,1212,MAS,CON,150,equipo,,l,0.5253,,479.9397,479.9398,0.880555577,-0.227777799,0,0,0,,0,224,224,311,1,,,
,,,,,,0209798cfa4d4c8a9a80edc0,66a626ef09d4e21e1a8894ec,673497e7c4c3bab08113cbf1,2024-11-13_13h13.47.513,Tarea de género gramatical,2024.2.2,Win32,59.88023952,,,,,,,,,,,,,,,,,,,,,,479.9402,481.1407,l,0,[],[],[],[],[],[],[],0.5337,0,481.1411,481.6412,,,,,,1072,MAS,DIS,150,poder,la,l,0.5337,,481.6412,481.6412,0.880555577,-0.227777799,0,0,0,,0,225,225,171,1,,,
,,,,,,0209798cfa4d4c8a9a80edc0,66a626ef09d4e21e1a8894ec,673497e7c4c3bab08113cbf1,2024-11-13_13h13.47.513,Tarea de género gramatical,2024.2.2,Win32,59.88023952,,,,,,,,,,,,,,,,,,,,,,481.6417,482.6919,l,1,[],[],[],[],[],[],[],0.3878,1,482.6923,483.1925,,,,,,1064,FEM,AGR,150,novia,la,a,0.3878,,483.1925,483.1926,0.880555577,-0.227777799,0,0,0,,0,226,226,163,1,,,
,,,,,,0209798cfa4d4c8a9a80edc0,66a626ef09d4e21e1a8894ec,673497e7c4c3bab08113cbf1,2024-11-13_13h13.47.513,Tarea de género gramatical,2024.2.2,Win32,59.88023952,,,,,,,,,,,,,,,,,,,,,,483.193,484.2766,l,1,[],[],[],[],[],[],[],0.4181,1,484.2767,484.7771,,,,,,1004,FEM,AGR,150,vela,la,a,0.4181,,484.7775,484.7779,0.880555577,-0.227777799,0,0,0,,0,227,227,103,1,,,
,,,,,,0209798cfa4d4c8a9a80edc0,66a626ef09d4e21e1a8894ec,673497e7c4c3bab08113cbf1,2024-11-13_13h13.47.513,Tarea de género gramatical,2024.2.2,Win32,59.88023952,,,,,,,,,,,,,,,,,,,,,,484.7782,485.9782,a,1,[],[],[],[],[],[],[],0.5172,1,485.9782,486.4784,,,,,,1235,MAS,AGR,150,montón,el,l,0.5172,,486.4785,486.4786,0.880555577,-0.227777799,0,0,0,,0,228,228,334,1,,,
,,,,,,0209798cfa4d4c8a9a80edc0,66a626ef09d4e21e1a8894ec,673497e7c4c3bab08113cbf1,2024-11-13_13h13.47.513,Tarea de género gramatical,2024.2.2,Win32,59.88023952,,,,,,,,,,,,,,,,,,,,,,486.479,487.6961,l,1,[],[],[],[],[],[],[],0.5588,1,487.6962,488.1965,,,,,,1316,FEM,AGR,150,colina,la,a,0.5588,,488.1966,488.1966,0.880555577,-0.227777799,0,0,0,,0,229,229,415,1,,,
,,,,,,0209798cfa4d4c8a9a80edc0,66a626ef09d4e21e1a8894ec,673497e7c4c3bab08113cbf1,2024-11-13_13h13.47.513,Tarea de género gramatical,2024.2.2,Win32,59.88023952,,,,,,,,,,,,,,,,,,,,,,488.1971,489.4476,a,1,[],[],[],[],[],[],[],0.5827,1,489.4477,489.948,,,,,,1348,MAS,DIS,150,aceite,la,l,0.5827,,489.948,489.948,0.880555577,-0.227777799,0,0,0,,0,230,230,447,1,,,
,,,,,,0209798cfa4d4c8a9a80edc0,66a626ef09d4e21e1a8894ec,673497e7c4c3bab08113cbf1,2024-11-13_13h13.47.513,Tarea de género gramatical,2024.2.2,Win32,59.88023952,,,,,,,,,,,,,,,,,,,,,,489.9485,491.0155,l,1,[],[],[],[],[],[],[],0.4124,1,491.0155,491.5161,,,,,,1305,FEM,CON,150,parada,,a,0.4124,,491.5167,491.517,0.880555577,-0.227777799,0,0,0,,0,231,231,404,1,,,
,,,,,,0209798cfa4d4c8a9a80edc0,66a626ef09d4e21e1a8894ec,673497e7c4c3bab08113cbf1,2024-11-13_13h13.47.513,Tarea de género gramatical,2024.2.2,Win32,59.88023952,,,,,,,,,,,,,,,,,,,,,,491.5173,492.8671,a,0,[],[],[],[],[],[],[],0.6718,0,492.8675,493.3677,,,,,,1251,FEM,CON,150,espada,,a,0.6718,,493.3677,493.3678,0.880555577,-0.227777799,0,0,0,,0,232,232,350,1,,,
,,,,,,0209798cfa4d4c8a9a80edc0,66a626ef09d4e21e1a8894ec,673497e7c4c3bab08113cbf1,2024-11-13_13h13.47.513,Tarea de género gramatical,2024.2.2,Win32,59.88023952,,,,,,,,,,,,,,,,,,,,,,493.3682,494.4017,l,1,[],[],[],[],[],[],[],0.3719,1,494.4021,494.902,,,,,,1076,FEM,AGR,150,línea,la,a,0.3719,,494.9021,494.9022,0.880555577,-0.227777799,0,0,0,,0,233,233,175,1,,,
,,,,,,0209798cfa4d4c8a9a80edc0,66a626ef09d4e21e1a8894ec,673497e7c4c3bab08113cbf1,2024-11-13_13h13.47.513,Tarea de género gramatical,2024.2.2,Win32,59.88023952,,,,,,,,,,,,,,,,,,,,,,494.9026,496.0199,a,1,[],[],[],[],[],[],[],0.46,1,496.0199,496.52,,,,,,1319,MAS,AGR,150,cuento,el,l,0.46,,496.5201,496.5201,0.880555577,-0.227777799,0,0,0,,0,234,234,418,1,,,
,,,,,,0209798cfa4d4c8a9a80edc0,66a626ef09d4e21e1a8894ec,673497e7c4c3bab08113cbf1,2024-11-13_13h13.47.513,Tarea de género gramatical,2024.2.2,Win32,59.88023952,,,,,,,,,,,,,,,,,,,,,,496.5207,497.621,a,1,[],[],[],[],[],[],[],0.4349,1,497.621,498.1214,,,,,,995,MAS,AGR,150,tomo,el,l,0.4349,,498.1214,498.1215,0.880555577,-0.227777799,0,0,0,,0,235,235,94,1,,,
,,,,,,0209798cfa4d4c8a9a80edc0,66a626ef09d4e21e1a8894ec,673497e7c4c3bab08113cbf1,2024-11-13_13h13.47.513,Tarea de género gramatical,2024.2.2,Win32,59.88023952,,,,,,,,,,,,,,,,,,,,,,498.122,499.2891,l,0,[],[],[],[],[],[],[],0.5006,0,499.2894,499.7895,,,,,,1222,MAS,DIS,150,minuto,la,l,0.5006,,499.7899,499.7904,0.880555577,-0.227777799,0,0,0,,0,236,236,321,1,,,
,,,,,,0209798cfa4d4c8a9a80edc0,66a626ef09d4e21e1a8894ec,673497e7c4c3bab08113cbf1,2024-11-13_13h13.47.513,Tarea de género gramatical,2024.2.2,Win32,59.88023952,,,,,,,,,,,,,,,,,,,,,,499.7906,501.0572,a,1,[],[],[],[],[],[],[],0.5952,1,501.0575,501.5576,,,,,,1049,MAS,AGR,150,nudo,el,l,0.5952,,501.5576,501.5578,0.880555577,-0.227777799,0,0,0,,0,237,237,148,1,,,
,,,,,,0209798cfa4d4c8a9a80edc0,66a626ef09d4e21e1a8894ec,673497e7c4c3bab08113cbf1,2024-11-13_13h13.47.513,Tarea de género gramatical,2024.2.2,Win32,59.88023952,,,,,,,,,,,,,,,,,,,,,,501.5582,502.8587,a,1,[],[],[],[],[],[],[],0.6329,1,502.8587,503.3591,,,,,,1283,MAS,AGR,150,parque,el,l,0.6329,,503.3591,503.3591,0.880555577,-0.227777799,0,0,0,,0,238,238,382,1,,,
,,,,,,0209798cfa4d4c8a9a80edc0,66a626ef09d4e21e1a8894ec,673497e7c4c3bab08113cbf1,2024-11-13_13h13.47.513,Tarea de género gramatical,2024.2.2,Win32,59.88023952,,,,,,,,,,,,,,,,,,,,,,503.3596,504.5434,l,1,[],[],[],[],[],[],[],0.5172,1,504.5435,505.0437,,,,,,1339,FEM,DIS,150,toalla,el,a,0.5172,,505.0438,505.0438,0.880555577,-0.227777799,0,0,0,,0,239,239,438,1,,,
,,,,,,0209798cfa4d4c8a9a80edc0,66a626ef09d4e21e1a8894ec,673497e7c4c3bab08113cbf1,2024-11-13_13h13.47.513,Tarea de género gramatical,2024.2.2,Win32,59.88023952,,,,,,,,,,,,,,,,,,,,,,505.0443,506.3615,l,1,[],[],[],[],[],[],[],0.6495,1,506.3617,506.8619,,,,,,1249,FEM,DIS,150,prensa,el,a,0.6495,,506.8625,506.8628,0.880555577,-0.227777799,0,0,0,,0,240,240,348,1,,,
,,,,,,0209798cfa4d4c8a9a80edc0,66a626ef09d4e21e1a8894ec,673497e7c4c3bab08113cbf1,2024-11-13_13h13.47.513,Tarea de género gramatical,2024.2.2,Win32,59.88023952,,,,,,,,,,,,,,,,,,,,,,506.8631,508.4633,a,1,[],[],[],[],[],[],[],0.9267,1,508.4634,508.9639,,,,,,1288,MAS,DIS,150,empleo,la,l,0.9267,,508.9639,508.9639,0.880555577,-0.227777799,0,0,0,,0,241,241,387,1,,,
,,,,,,0209798cfa4d4c8a9a80edc0,66a626ef09d4e21e1a8894ec,673497e7c4c3bab08113cbf1,2024-11-13_13h13.47.513,Tarea de género gramatical,2024.2.2,Win32,59.88023952,,,,,,,,,,,,,,,,,,,,,,508.9644,510.0646,a,1,[],[],[],[],[],[],[],0.4446,1,510.0646,510.5651,,,,,,1115,MAS,AGR,150,hueso,el,l,0.4446,,510.5651,510.5651,0.880555577,-0.227777799,0,0,0,,0,242,242,214,1,,,
,,,,,,0209798cfa4d4c8a9a80edc0,66a626ef09d4e21e1a8894ec,673497e7c4c3bab08113cbf1,2024-11-13_13h13.47.513,Tarea de género gramatical,2024.2.2,Win32,59.88023952,,,,,,,,,,,,,,,,,,,,,,510.5656,511.7828,l,1,[],[],[],[],[],[],[],0.5577,1,511.7828,512.2832,,,,,,1135,FEM,DIS,150,torre,el,a,0.5577,,512.2832,512.2833,0.880555577,-0.227777799,0,0,0,,0,243,243,234,1,,,
,,,,,,0209798cfa4d4c8a9a80edc0,66a626ef09d4e21e1a8894ec,673497e7c4c3bab08113cbf1,2024-11-13_13h13.47.513,Tarea de género gramatical,2024.2.2,Win32,59.88023952,,,,,,,,,,,,,,,,,,,,,,512.2837,513.5675,a,1,[],[],[],[],[],[],[],0.6173,1,513.5677,514.0682,,,,,,954,MAS,CON,150,humo,,l,0.6173,,514.0682,514.0682,0.880555577,-0.227777799,0,0,0,,0,244,244,53,1,,,
,,,,,,0209798cfa4d4c8a9a80edc0,66a626ef09d4e21e1a8894ec,673497e7c4c3bab08113cbf1,2024-11-13_13h13.47.513,Tarea de género gramatical,2024.2.2,Win32,59.88023952,,,,,,,,,,,,,,,,,,,,,,514.0687,515.1855,a,1,[],[],[],[],[],[],[],0.4506,1,515.1856,515.6859,,,,,,1326,MAS,CON,150,pánico,,l,0.4506,,515.6864,515.6868,0.880555577,-0.227777799,0,0,0,,0,245,245,425,1,,,
,,,,,,0209798cfa4d4c8a9a80edc0,66a626ef09d4e21e1a8894ec,673497e7c4c3bab08113cbf1,2024-11-13_13h13.47.513,Tarea de género gramatical,2024.2.2,Win32,59.88023952,,,,,,,,,,,,,,,,,,,,,,515.6871,516.8369,l,1,[],[],[],[],[],[],[],0.4752,1,516.837,517.3373,,,,,,1009,FEM,DIS,150,gota,el,a,0.4752,,517.3373,517.3374,0.880555577,-0.227777799,0,0,0,,0,246,246,108,1,,,
,,,,,,0209798cfa4d4c8a9a80edc0,66a626ef09d4e21e1a8894ec,673497e7c4c3bab08113cbf1,2024-11-13_13h13.47.513,Tarea de género gramatical,2024.2.2,Win32,59.88023952,,,,,,,,,,,,,,,,,,,,,,517.3378,518.4049,l,1,[],[],[],[],[],[],[],0.4072,1,518.4049,518.9053,,,,,,1016,FEM,AGR,150,nube,la,a,0.4072,,518.9054,518.9054,0.880555577,-0.227777799,0,0,0,,0,247,247,115,1,,,
,,,,,,0209798cfa4d4c8a9a80edc0,66a626ef09d4e21e1a8894ec,673497e7c4c3bab08113cbf1,2024-11-13_13h13.47.513,Tarea de género gramatical,2024.2.2,Win32,59.88023952,,,,,,,,,,,,,,,,,,,,,,518.9058,520.1565,l,1,[],[],[],[],[],[],[],0.5885,1,520.1567,520.6569,,,,,,1237,FEM,DIS,150,escena,el,a,0.5885,,520.6569,520.657,0.880555577,-0.227777799,0,0,0,,0,248,248,336,1,,,
,,,,,,0209798cfa4d4c8a9a80edc0,66a626ef09d4e21e1a8894ec,673497e7c4c3bab08113cbf1,2024-11-13_13h13.47.513,Tarea de género gramatical,2024.2.2,Win32,59.88023952,,,,,,,,,,,,,,,,,,,,,,520.6574,521.9244,a,1,[],[],[],[],[],[],[],0.6036,1,521.9246,522.4249,,,,,,1296,MAS,CON,150,tesoro,,l,0.6036,,522.4254,522.4257,0.880555577,-0.227777799,0,0,0,,0,249,249,395,1,,,
,,,,,,0209798cfa4d4c8a9a80edc0,66a626ef09d4e21e1a8894ec,673497e7c4c3bab08113cbf1,2024-11-13_13h13.47.513,Tarea de género gramatical,2024.2.2,Win32,59.88023952,,,,,,,,,,,,,,,,,,,,,,522.4261,523.6425,a,1,[],[],[],[],[],[],[],0.541,1,523.6426,524.1431,,,,,,1096,MAS,DIS,150,barco,la,l,0.541,,524.1431,524.1432,0.880555577,-0.227777799,0,0,0,,0,250,250,195,1,,,
,,,,,,0209798cfa4d4c8a9a80edc0,66a626ef09d4e21e1a8894ec,673497e7c4c3bab08113cbf1,2024-11-13_13h13.47.513,Tarea de género gramatical,2024.2.2,Win32,59.88023952,,,,,,,,,,,,,,,,,,,,,,524.1437,525.1938,a,1,[],[],[],[],[],[],[],0.3953,1,525.1938,525.6942,,,,,,959,MAS,AGR,150,lobo,el,l,0.3953,,525.6943,525.6943,0.880555577,-0.227777799,0,0,0,,0,251,251,58,1,,,
,,,,,,0209798cfa4d4c8a9a80edc0,66a626ef09d4e21e1a8894ec,673497e7c4c3bab08113cbf1,2024-11-13_13h13.47.513,Tarea de género gramatical,2024.2.2,Win32,59.88023952,,,,,,,,,,,,,,,,,,,,,,525.6948,526.8119,l,1,[],[],[],[],[],[],[],0.4612,1,526.8119,527.3122,,,,,,1328,FEM,AGR,150,jugada,la,a,0.4612,,527.3122,527.3123,0.880555577,-0.227777799,0,0,0,,0,252,252,427,1,,,
,,,,,,0209798cfa4d4c8a9a80edc0,66a626ef09d4e21e1a8894ec,673497e7c4c3bab08113cbf1,2024-11-13_13h13.47.513,Tarea de género gramatical,2024.2.2,Win32,59.88023952,,,,,,,,,,,,,,,,,,,,,,527.3128,528.4132,l,1,[],[],[],[],[],[],[],0.4339,1,528.4133,528.9138,,,,,,1094,FEM,AGR,150,banda,la,a,0.4339,,528.9138,528.9138,0.880555577,-0.227777799,0,0,0,,0,253,253,193,1,,,
