counterbalancing_condition,consent_prescreening.block_1/declare_consent,consent_prescreening.block_1/age_years,consent_prescreening.block_1/gender,consent_prescreening.block_1/language_disorder,consent_prescreening.block_1/first_language,PROLIFIC_PID,STUDY_ID,SESSION_ID,date,expName,psychopyVersion,OS,frameRate,check_prescreening_answers.started,check_prescreening_answers.stopped,Instructions.started,Instructions.stopped,instr_done_keyboard.keys,instr_done_keyboard.rt,instr_done_keyboard.duration,instr_done_touch.x,instr_done_touch.y,instr_done_touch.leftButton,instr_done_touch.midButton,instr_done_touch.rightButton,instruction_pages.thisRepN,instruction_pages.thisTrialN,instruction_pages.thisN,instruction_pages.thisIndex,instruction_pages.ran,pageN,phase,instruct_text,has_image,instruct_image,presentTrial.started,presentTrial.stopped,response.keys,response.corr,response.rt,response.duration,touch_resp.x,touch_resp.y,touch_resp.leftButton,touch_resp.midButton,touch_resp.rightButton,touch_resp.time,touch_resp.clicked_name,rt,corr,feedback.started,feedback.stopped,practice_trials.thisRepN,practice_trials.thisTrialN,practice_trials.thisN,practice_trials.thisIndex,practice_trials.ran,TrialID,StimulusType,Condition,PrimeDuration,Prime,Flanker,corrAns,Break.started,Break.stopped,break_done_touch.x,break_done_touch.y,break_done_touch.leftButton,break_done_touch.midButton,break_done_touch.rightButton,break_done_keyboard.keys,experiment_trials.thisRepN,experiment_trials.thisTrialN,experiment_trials.thisN,experiment_trials.thisIndex,experiment_trials.ran,break_done_keyboard.rt,break_done_keyboard.duration,End.started,End.stopped
2,"[""over_18"",""comfortable"",""read_info"",""consent_given""]",24,M,"[""none""]","[""spanish""]",0902329151de276b4b6c65c3,66a626ef09d4e21e1a8894ec,6737680adfcb7c91a6d833cf,2024-11-15_09h27.17.795,Tarea de género gramatical,2024.2.2,Win32,243.902439,,,,,,,,,,,,,,,,,,,,,,,,,,,,,,,,,,,,,,,,,,,,,,,,,,,,,,,,,,,,,,,,,,,,
,,,,,,0902329151de276b4b6c65c3,66a626ef09d4e21e1a8894ec,6737680adfcb7c91a6d833cf,2024-11-15_09h27.17.795,Tarea de género gramatical,2024.2.2,Win32,243.902439,23.4772,23.4777,,,,,,,,,,,,,,,,,,,,,,,,,,,,,,,,,,,,,,,,,,,,,,,,,,,,,,,,,,,,,,,,,,
,,,,,,0902329151de276b4b6c65c3,66a626ef09d4e21e1a8894ec,6737680adfcb7c91a6d833cf,2024-11-15_09h27.17.795,Tarea de género gramatical,2024.2.2,Win32,243.902439,,,23.4928,36.1864,space,12.681,,0.101851852,-0.171296296,0,0,0,0,0,0,0,1,1,instructions,"INSTRUCCIONES
Va a realizar una prueba de selección gramatical. Desde el comienzo de la prueba mire siempre al centro de la pantalla. Al cabo de un momento, aparecerán palabras. La tarea consiste en determinar si la palabra del centro (siempre será un sustantivo), pertenece al género masculino o femenino.

Pulse la tecla ESPACIO o toque el botón de abajo para continuar.",0,keyboardresponseMF.png,,,,,,,,,,,,,,,,,,,,,,,,,,,,,,,,,,,,,,,,,,,,,,
,,,,,,0902329151de276b4b6c65c3,66a626ef09d4e21e1a8894ec,6737680adfcb7c91a6d833cf,2024-11-15_09h27.17.795,Tarea de género gramatical,2024.2.2,Win32,243.902439,,,36.1896,46.2457,space,10.0293,,0.185185185,0.176851852,0,0,0,0,1,1,1,1,2,instructions,"Si su dispositivo tiene teclado, pulse la tecla ""A"" para las palabras en masculino (por ejemplo: ""arroz"") y la tecla ""L"" para las palabras en femenino (por ejemplo: ""mano"").
Pulse la tecla ESPACIO o toque el botón de abajo para continuar.",1,keyboardresponseMF.png,,,,,,,,,,,,,,,,,,,,,,,,,,,,,,,,,,,,,,,,,,,,,,
,,,,,,0902329151de276b4b6c65c3,66a626ef09d4e21e1a8894ec,6737680adfcb7c91a6d833cf,2024-11-15_09h27.17.795,Tarea de género gramatical,2024.2.2,Win32,243.902439,,,46.2474,48.9527,space,2.6858,,0.185185185,0.176851852,0,0,0,0,2,2,2,1,3,instructions,"Si utiliza un dispositivo sólo táctil, colóquelo en horizontal y utilice los botones de la pantalla. No utilice el ratón.
Pulse la tecla ESPACIO o toque el botón de abajo para continuar.",2,touchresponseMF.png,,,,,,,,,,,,,,,,,,,,,,,,,,,,,,,,,,,,,,,,,,,,,,
,,,,,,0902329151de276b4b6c65c3,66a626ef09d4e21e1a8894ec,6737680adfcb7c91a6d833cf,2024-11-15_09h27.17.795,Tarea de género gramatical,2024.2.2,Win32,243.902439,,,48.9543,110.2794,space,61.3189,,0.185185185,0.176851852,0,0,0,0,3,3,3,1,4,instructions,"Es muy importante que responda con la mayor rapidez y precisión posibles, ya que cada cadena de letras sólo estará en pantalla durante un instante. Si no responde en ese tiempo, aparecerá el mensaje ""Muy lento"" y el experimento pasará a la siguiente palabra. Los primeros 15 intentos serán de práctica y habrá dos descansos durante la prueba.
Pulse la tecla ESPACIO o toque el botón de abajo para iniciar la parte de práctica.",0,keyboardresponseMF.png,,,,,,,,,,,,,,,,,,,,,,,,,,,,,,,,,,,,,,,,,,,,,,
,,,,,,0902329151de276b4b6c65c3,66a626ef09d4e21e1a8894ec,6737680adfcb7c91a6d833cf,2024-11-15_09h27.17.795,Tarea de género gramatical,2024.2.2,Win32,243.902439,,,,,,,,,,,,,,,,,,,,,,,110.2907,112.1687,a,0,1.2244,,[],[],[],[],[],[],[],1.2244,0,112.1688,112.6695,0,0,0,3,1,2004,FEM,AGR,150,venta,la,a,,,,,,,,,,,,,,,,,
,,,,,,0902329151de276b4b6c65c3,66a626ef09d4e21e1a8894ec,6737680adfcb7c91a6d833cf,2024-11-15_09h27.17.795,Tarea de género gramatical,2024.2.2,Win32,243.902439,,,,,,,,,,,,,,,,,,,,,,,112.6712,115.3177,,0,,,[],[],[],[],[],[],[],1.2244,-1,115.3184,115.8182,0,1,1,11,1,2012,MAS,DIS,150,clima,la,l,,,,,,,,,,,,,,,,,
,,,,,,0902329151de276b4b6c65c3,66a626ef09d4e21e1a8894ec,6737680adfcb7c91a6d833cf,2024-11-15_09h27.17.795,Tarea de género gramatical,2024.2.2,Win32,243.902439,,,,,,,,,,,,,,,,,,,,,,,115.819,118.1247,a,1,1.6547,,[],[],[],[],[],[],[],1.6547,1,118.1256,118.6251,0,2,2,10,1,2011,MAS,CON,150,canal,,l,,,,,,,,,,,,,,,,,
,,,,,,0902329151de276b4b6c65c3,66a626ef09d4e21e1a8894ec,6737680adfcb7c91a6d833cf,2024-11-15_09h27.17.795,Tarea de género gramatical,2024.2.2,Win32,243.902439,,,,,,,,,,,,,,,,,,,,,,,118.6265,120.3185,l,1,1.0411,,[],[],[],[],[],[],[],1.0411,1,120.3186,120.8188,0,3,3,0,1,2001,FEM,AGR,150,nuca,la,a,,,,,,,,,,,,,,,,,
,,,,,,0902329151de276b4b6c65c3,66a626ef09d4e21e1a8894ec,6737680adfcb7c91a6d833cf,2024-11-15_09h27.17.795,Tarea de género gramatical,2024.2.2,Win32,243.902439,,,,,,,,,,,,,,,,,,,,,,,120.8192,122.5081,l,1,1.0372,,[],[],[],[],[],[],[],1.0372,1,122.5082,123.0084,0,4,4,7,1,2008,FEM,CON,150,siesta,,a,,,,,,,,,,,,,,,,,
,,,,,,0902329151de276b4b6c65c3,66a626ef09d4e21e1a8894ec,6737680adfcb7c91a6d833cf,2024-11-15_09h27.17.795,Tarea de género gramatical,2024.2.2,Win32,243.902439,,,,,,,,,,,,,,,,,,,,,,,123.0092,124.1722,l,0,0.5098,,[],[],[],[],[],[],[],0.5098,0,124.1729,124.6728,0,5,5,8,1,2009,MAS,DIS,150,puerto,la,l,,,,,,,,,,,,,,,,,
,,,,,,0902329151de276b4b6c65c3,66a626ef09d4e21e1a8894ec,6737680adfcb7c91a6d833cf,2024-11-15_09h27.17.795,Tarea de género gramatical,2024.2.2,Win32,243.902439,,,,,,,,,,,,,,,,,,,,,,,124.674,126.4161,a,1,1.0901,,[],[],[],[],[],[],[],1.0901,1,126.4168,126.9166,0,6,6,13,1,2014,MAS,CON,150,siglo,,l,,,,,,,,,,,,,,,,,
,,,,,,0902329151de276b4b6c65c3,66a626ef09d4e21e1a8894ec,6737680adfcb7c91a6d833cf,2024-11-15_09h27.17.795,Tarea de género gramatical,2024.2.2,Win32,243.902439,,,,,,,,,,,,,,,,,,,,,,,126.9177,128.3389,a,1,0.7702,,[],[],[],[],[],[],[],0.7702,1,128.3389,128.8393,0,7,7,12,1,2013,MAS,AGR,150,acero,el,l,,,,,,,,,,,,,,,,,
,,,,,,0902329151de276b4b6c65c3,66a626ef09d4e21e1a8894ec,6737680adfcb7c91a6d833cf,2024-11-15_09h27.17.795,Tarea de género gramatical,2024.2.2,Win32,243.902439,,,,,,,,,,,,,,,,,,,,,,,128.8407,130.4867,a,1,0.9936,,[],[],[],[],[],[],[],0.9936,1,130.4867,130.9873,0,8,8,14,1,2015,MAS,DIS,150,robot,la,l,,,,,,,,,,,,,,,,,
,,,,,,0902329151de276b4b6c65c3,66a626ef09d4e21e1a8894ec,6737680adfcb7c91a6d833cf,2024-11-15_09h27.17.795,Tarea de género gramatical,2024.2.2,Win32,243.902439,,,,,,,,,,,,,,,,,,,,,,,130.9884,132.8892,l,1,1.2497,,[],[],[],[],[],[],[],1.2497,1,132.8893,133.3896,0,9,9,2,1,2003,FEM,DIS,150,daga,el,a,,,,,,,,,,,,,,,,,
,,,,,,0902329151de276b4b6c65c3,66a626ef09d4e21e1a8894ec,6737680adfcb7c91a6d833cf,2024-11-15_09h27.17.795,Tarea de género gramatical,2024.2.2,Win32,243.902439,,,,,,,,,,,,,,,,,,,,,,,133.3904,134.7118,a,1,0.6676,,[],[],[],[],[],[],[],0.6676,1,134.7118,135.2122,0,10,10,9,1,2010,MAS,AGR,150,vecino,el,l,,,,,,,,,,,,,,,,,
,,,,,,0902329151de276b4b6c65c3,66a626ef09d4e21e1a8894ec,6737680adfcb7c91a6d833cf,2024-11-15_09h27.17.795,Tarea de género gramatical,2024.2.2,Win32,243.902439,,,,,,,,,,,,,,,,,,,,,,,135.2132,136.3342,l,1,0.4676,,[],[],[],[],[],[],[],0.4676,1,136.3343,136.8345,0,11,11,4,1,2005,FEM,CON,150,placa,,a,,,,,,,,,,,,,,,,,
,,,,,,0902329151de276b4b6c65c3,66a626ef09d4e21e1a8894ec,6737680adfcb7c91a6d833cf,2024-11-15_09h27.17.795,Tarea de género gramatical,2024.2.2,Win32,243.902439,,,,,,,,,,,,,,,,,,,,,,,136.8354,137.8356,l,1,0.3483,,[],[],[],[],[],[],[],0.3483,1,137.8357,138.3362,0,12,12,1,1,2002,FEM,CON,150,pala,,a,,,,,,,,,,,,,,,,,
,,,,,,0902329151de276b4b6c65c3,66a626ef09d4e21e1a8894ec,6737680adfcb7c91a6d833cf,2024-11-15_09h27.17.795,Tarea de género gramatical,2024.2.2,Win32,243.902439,,,,,,,,,,,,,,,,,,,,,,,138.3371,139.6749,l,1,0.6848,,[],[],[],[],[],[],[],0.6848,1,139.6749,140.1755,0,13,13,5,1,2006,FEM,DIS,150,serie,el,a,,,,,,,,,,,,,,,,,
,,,,,,0902329151de276b4b6c65c3,66a626ef09d4e21e1a8894ec,6737680adfcb7c91a6d833cf,2024-11-15_09h27.17.795,Tarea de género gramatical,2024.2.2,Win32,243.902439,,,,,,,,,,,,,,,,,,,,,,,140.1765,141.3599,l,1,0.5305,,[],[],[],[],[],[],[],0.5305,1,141.36,141.8604,0,14,14,6,1,2007,FEM,AGR,150,navaja,la,a,,,,,,,,,,,,,,,,,
,,,,,,0902329151de276b4b6c65c3,66a626ef09d4e21e1a8894ec,6737680adfcb7c91a6d833cf,2024-11-15_09h27.17.795,Tarea de género gramatical,2024.2.2,Win32,243.902439,,,145.9709,152.771,space,6.7946,,0.185185185,0.176851852,0,0,0,,,,,,,,,,,152.7853,153.8805,l,1,0.4409,,[],[],[],[],[],[],[],0.4409,1,153.8806,154.381,,,,,,1184,FEM,AGR,150,fruta,la,a,154.3813,154.3846,0.185185185,0.176851852,0,0,0,,0,0,0,283,1,,,,
,,,,,,0902329151de276b4b6c65c3,66a626ef09d4e21e1a8894ec,6737680adfcb7c91a6d833cf,2024-11-15_09h27.17.795,Tarea de género gramatical,2024.2.2,Win32,243.902439,,,,,,,,,,,,,,,,,,,,,,,154.3852,155.4988,a,1,0.4597,,[],[],[],[],[],[],[],0.4597,1,155.4989,155.9993,,,,,,1336,MAS,DIS,150,objeto,la,l,155.9994,155.9995,0.185185185,0.176851852,0,0,0,,0,1,1,435,1,,,,
,,,,,,0902329151de276b4b6c65c3,66a626ef09d4e21e1a8894ec,6737680adfcb7c91a6d833cf,2024-11-15_09h27.17.795,Tarea de género gramatical,2024.2.2,Win32,243.902439,,,,,,,,,,,,,,,,,,,,,,,156.0004,157.2422,a,1,0.5907,,[],[],[],[],[],[],[],0.5907,1,157.2424,157.7427,,,,,,1266,MAS,CON,150,riesgo,,l,157.7438,157.7443,0.185185185,0.176851852,0,0,0,,0,2,2,365,1,,,,
,,,,,,0902329151de276b4b6c65c3,66a626ef09d4e21e1a8894ec,6737680adfcb7c91a6d833cf,2024-11-15_09h27.17.795,Tarea de género gramatical,2024.2.2,Win32,243.902439,,,,,,,,,,,,,,,,,,,,,,,157.7448,158.8103,a,1,0.4086,,[],[],[],[],[],[],[],0.4086,1,158.8103,159.3108,,,,,,923,MAS,AGR,150,rato,el,l,159.3109,159.311,0.185185185,0.176851852,0,0,0,,0,3,3,22,1,,,,
,,,,,,0902329151de276b4b6c65c3,66a626ef09d4e21e1a8894ec,6737680adfcb7c91a6d833cf,2024-11-15_09h27.17.795,Tarea de género gramatical,2024.2.2,Win32,243.902439,,,,,,,,,,,,,,,,,,,,,,,159.3122,160.4912,l,0,0.5259,,[],[],[],[],[],[],[],0.5259,0,160.4918,160.9918,,,,,,1144,MAS,DIS,150,hielo,la,l,160.9918,160.9919,0.185185185,0.176851852,0,0,0,,0,4,4,243,1,,,,
,,,,,,0902329151de276b4b6c65c3,66a626ef09d4e21e1a8894ec,6737680adfcb7c91a6d833cf,2024-11-15_09h27.17.795,Tarea de género gramatical,2024.2.2,Win32,243.902439,,,,,,,,,,,,,,,,,,,,,,,160.993,162.2889,a,1,0.6429,,[],[],[],[],[],[],[],0.6429,1,162.2896,162.7893,,,,,,1006,MAS,DIS,150,test,la,l,162.7894,162.7895,0.185185185,0.176851852,0,0,0,,0,5,5,105,1,,,,
,,,,,,0902329151de276b4b6c65c3,66a626ef09d4e21e1a8894ec,6737680adfcb7c91a6d833cf,2024-11-15_09h27.17.795,Tarea de género gramatical,2024.2.2,Win32,243.902439,,,,,,,,,,,,,,,,,,,,,,,162.7904,163.7736,l,1,0.327,,[],[],[],[],[],[],[],0.327,1,163.7738,164.2742,,,,,,1011,FEM,CON,150,goma,,a,164.2755,164.2761,0.185185185,0.176851852,0,0,0,,0,6,6,110,1,,,,
,,,,,,0902329151de276b4b6c65c3,66a626ef09d4e21e1a8894ec,6737680adfcb7c91a6d833cf,2024-11-15_09h27.17.795,Tarea de género gramatical,2024.2.2,Win32,243.902439,,,,,,,,,,,,,,,,,,,,,,,164.2767,165.4711,l,1,0.5385,,[],[],[],[],[],[],[],0.5385,1,165.4711,165.9716,,,,,,1207,FEM,DIS,150,suerte,el,a,165.9716,165.9718,0.185185185,0.176851852,0,0,0,,0,7,7,306,1,,,,
,,,,,,0902329151de276b4b6c65c3,66a626ef09d4e21e1a8894ec,6737680adfcb7c91a6d833cf,2024-11-15_09h27.17.795,Tarea de género gramatical,2024.2.2,Win32,243.902439,,,,,,,,,,,,,,,,,,,,,,,165.9726,167.4939,a,1,0.8683,,[],[],[],[],[],[],[],0.8683,1,167.494,167.9944,,,,,,917,MAS,AGR,150,modo,el,l,167.9946,167.9947,0.185185185,0.176851852,0,0,0,,0,8,8,16,1,,,,
,,,,,,0902329151de276b4b6c65c3,66a626ef09d4e21e1a8894ec,6737680adfcb7c91a6d833cf,2024-11-15_09h27.17.795,Tarea de género gramatical,2024.2.2,Win32,243.902439,,,,,,,,,,,,,,,,,,,,,,,167.9956,169.4625,a,1,0.816,,[],[],[],[],[],[],[],0.816,1,169.4625,169.9629,,,,,,988,MAS,DIS,150,pavo,la,l,169.963,169.9631,0.185185185,0.176851852,0,0,0,,0,9,9,87,1,,,,
,,,,,,0902329151de276b4b6c65c3,66a626ef09d4e21e1a8894ec,6737680adfcb7c91a6d833cf,2024-11-15_09h27.17.795,Tarea de género gramatical,2024.2.2,Win32,243.902439,,,,,,,,,,,,,,,,,,,,,,,169.9638,171.1684,a,1,0.5504,,[],[],[],[],[],[],[],0.5504,1,171.1685,171.6688,,,,,,984,MAS,CON,150,mago,,l,171.6689,171.669,0.185185185,0.176851852,0,0,0,,0,10,10,83,1,,,,
,,,,,,0902329151de276b4b6c65c3,66a626ef09d4e21e1a8894ec,6737680adfcb7c91a6d833cf,2024-11-15_09h27.17.795,Tarea de género gramatical,2024.2.2,Win32,243.902439,,,,,,,,,,,,,,,,,,,,,,,171.6704,172.6615,a,1,0.3347,,[],[],[],[],[],[],[],0.3347,1,172.6615,173.162,,,,,,1235,MAS,AGR,150,montón,el,l,173.1631,173.1635,0.185185185,0.176851852,0,0,0,,0,11,11,334,1,,,,
,,,,,,0902329151de276b4b6c65c3,66a626ef09d4e21e1a8894ec,6737680adfcb7c91a6d833cf,2024-11-15_09h27.17.795,Tarea de género gramatical,2024.2.2,Win32,243.902439,,,,,,,,,,,,,,,,,,,,,,,173.1641,174.0921,a,1,0.2732,,[],[],[],[],[],[],[],0.2732,1,174.0921,174.5925,,,,,,1230,MAS,CON,150,estado,,l,174.5925,174.5927,0.185185185,0.176851852,0,0,0,,0,12,12,329,1,,,,
,,,,,,0902329151de276b4b6c65c3,66a626ef09d4e21e1a8894ec,6737680adfcb7c91a6d833cf,2024-11-15_09h27.17.795,Tarea de género gramatical,2024.2.2,Win32,243.902439,,,,,,,,,,,,,,,,,,,,,,,174.5933,175.5686,l,1,0.3218,,[],[],[],[],[],[],[],0.3218,1,175.5687,176.0691,,,,,,939,FEM,CON,150,luna,,a,176.0692,176.0692,0.185185185,0.176851852,0,0,0,,0,13,13,38,1,,,,
,,,,,,0902329151de276b4b6c65c3,66a626ef09d4e21e1a8894ec,6737680adfcb7c91a6d833cf,2024-11-15_09h27.17.795,Tarea de género gramatical,2024.2.2,Win32,243.902439,,,,,,,,,,,,,,,,,,,,,,,176.0703,177.0158,l,1,0.2893,,[],[],[],[],[],[],[],0.2893,1,177.0158,177.5163,,,,,,1190,FEM,AGR,150,cabra,la,a,177.5163,177.5164,0.185185185,0.176851852,0,0,0,,0,14,14,289,1,,,,
,,,,,,0902329151de276b4b6c65c3,66a626ef09d4e21e1a8894ec,6737680adfcb7c91a6d833cf,2024-11-15_09h27.17.795,Tarea de género gramatical,2024.2.2,Win32,243.902439,,,,,,,,,,,,,,,,,,,,,,,177.5173,178.6715,a,1,0.5007,,[],[],[],[],[],[],[],0.5007,1,178.6716,179.1721,,,,,,1288,MAS,DIS,150,empleo,la,l,179.1733,179.1738,0.185185185,0.176851852,0,0,0,,0,15,15,387,1,,,,
,,,,,,0902329151de276b4b6c65c3,66a626ef09d4e21e1a8894ec,6737680adfcb7c91a6d833cf,2024-11-15_09h27.17.795,Tarea de género gramatical,2024.2.2,Win32,243.902439,,,,,,,,,,,,,,,,,,,,,,,179.1747,180.1355,a,1,0.3058,,[],[],[],[],[],[],[],0.3058,1,180.1356,180.636,,,,,,972,MAS,CON,150,hoyo,,l,180.636,180.6362,0.185185185,0.176851852,0,0,0,,0,16,16,71,1,,,,
,,,,,,0902329151de276b4b6c65c3,66a626ef09d4e21e1a8894ec,6737680adfcb7c91a6d833cf,2024-11-15_09h27.17.795,Tarea de género gramatical,2024.2.2,Win32,243.902439,,,,,,,,,,,,,,,,,,,,,,,180.6372,181.5703,a,1,0.2798,,[],[],[],[],[],[],[],0.2798,1,181.5704,182.0708,,,,,,929,MAS,AGR,150,frío,el,l,182.0708,182.071,0.185185185,0.176851852,0,0,0,,0,17,17,28,1,,,,
,,,,,,0902329151de276b4b6c65c3,66a626ef09d4e21e1a8894ec,6737680adfcb7c91a6d833cf,2024-11-15_09h27.17.795,Tarea de género gramatical,2024.2.2,Win32,243.902439,,,,,,,,,,,,,,,,,,,,,,,182.0721,183.0924,l,0,0.364,,[],[],[],[],[],[],[],0.364,0,183.0928,183.5931,,,,,,940,MAS,DIS,150,dios,la,l,183.5931,183.5932,0.185185185,0.176851852,0,0,0,,0,18,18,39,1,,,,
,,,,,,0902329151de276b4b6c65c3,66a626ef09d4e21e1a8894ec,6737680adfcb7c91a6d833cf,2024-11-15_09h27.17.795,Tarea de género gramatical,2024.2.2,Win32,243.902439,,,,,,,,,,,,,,,,,,,,,,,183.5939,184.9068,l,1,0.6599,,[],[],[],[],[],[],[],0.6599,1,184.9075,185.4072,,,,,,999,FEM,CON,150,fase,,a,185.4072,185.4072,0.185185185,0.176851852,0,0,0,,0,19,19,98,1,,,,
,,,,,,0902329151de276b4b6c65c3,66a626ef09d4e21e1a8894ec,6737680adfcb7c91a6d833cf,2024-11-15_09h27.17.795,Tarea de género gramatical,2024.2.2,Win32,243.902439,,,,,,,,,,,,,,,,,,,,,,,185.4077,186.3917,a,1,0.3302,,[],[],[],[],[],[],[],0.3302,1,186.3917,186.8922,,,,,,1152,MAS,CON,150,viejo,,l,186.8936,186.8943,0.185185185,0.176851852,0,0,0,,0,20,20,251,1,,,,
,,,,,,0902329151de276b4b6c65c3,66a626ef09d4e21e1a8894ec,6737680adfcb7c91a6d833cf,2024-11-15_09h27.17.795,Tarea de género gramatical,2024.2.2,Win32,243.902439,,,,,,,,,,,,,,,,,,,,,,,186.8952,187.8931,l,1,0.3426,,[],[],[],[],[],[],[],0.3426,1,187.8932,188.3936,,,,,,909,FEM,CON,150,mamá,,a,188.3936,188.3938,0.185185185,0.176851852,0,0,0,,0,21,21,8,1,,,,
,,,,,,0902329151de276b4b6c65c3,66a626ef09d4e21e1a8894ec,6737680adfcb7c91a6d833cf,2024-11-15_09h27.17.795,Tarea de género gramatical,2024.2.2,Win32,243.902439,,,,,,,,,,,,,,,,,,,,,,,188.3949,189.3987,l,1,0.3508,,[],[],[],[],[],[],[],0.3508,1,189.3987,189.8992,,,,,,1311,FEM,CON,150,actriz,,a,189.8992,189.8993,0.185185185,0.176851852,0,0,0,,0,22,22,410,1,,,,
,,,,,,0902329151de276b4b6c65c3,66a626ef09d4e21e1a8894ec,6737680adfcb7c91a6d833cf,2024-11-15_09h27.17.795,Tarea de género gramatical,2024.2.2,Win32,243.902439,,,,,,,,,,,,,,,,,,,,,,,189.9001,190.8668,l,1,0.3143,,[],[],[],[],[],[],[],0.3143,1,190.8669,191.3673,,,,,,1327,FEM,DIS,150,agenda,el,a,191.3673,191.3673,0.185185185,0.176851852,0,0,0,,0,23,23,426,1,,,,
,,,,,,0902329151de276b4b6c65c3,66a626ef09d4e21e1a8894ec,6737680adfcb7c91a6d833cf,2024-11-15_09h27.17.795,Tarea de género gramatical,2024.2.2,Win32,243.902439,,,,,,,,,,,,,,,,,,,,,,,191.3676,192.4476,a,1,0.4285,,[],[],[],[],[],[],[],0.4285,1,192.4476,192.9481,,,,,,1253,MAS,AGR,150,verano,el,l,192.9494,192.95,0.185185185,0.176851852,0,0,0,,0,24,24,352,1,,,,
,,,,,,0902329151de276b4b6c65c3,66a626ef09d4e21e1a8894ec,6737680adfcb7c91a6d833cf,2024-11-15_09h27.17.795,Tarea de género gramatical,2024.2.2,Win32,243.902439,,,,,,,,,,,,,,,,,,,,,,,192.9506,193.8781,a,1,0.2726,,[],[],[],[],[],[],[],0.2726,1,193.8782,194.3786,,,,,,1175,MAS,AGR,150,disco,el,l,194.3787,194.3787,0.185185185,0.176851852,0,0,0,,0,25,25,274,1,,,,
,,,,,,0902329151de276b4b6c65c3,66a626ef09d4e21e1a8894ec,6737680adfcb7c91a6d833cf,2024-11-15_09h27.17.795,Tarea de género gramatical,2024.2.2,Win32,243.902439,,,,,,,,,,,,,,,,,,,,,,,194.3798,195.4881,l,1,0.4527,,[],[],[],[],[],[],[],0.4527,1,195.4882,195.9886,,,,,,937,FEM,DIS,150,sala,el,a,195.9886,195.9886,0.185185185,0.176851852,0,0,0,,0,26,26,36,1,,,,
,,,,,,0902329151de276b4b6c65c3,66a626ef09d4e21e1a8894ec,6737680adfcb7c91a6d833cf,2024-11-15_09h27.17.795,Tarea de género gramatical,2024.2.2,Win32,243.902439,,,,,,,,,,,,,,,,,,,,,,,195.9897,196.9895,a,1,0.3479,,[],[],[],[],[],[],[],0.3479,1,196.9896,197.49,,,,,,942,MAS,CON,150,show,,l,197.4901,197.4902,0.185185185,0.176851852,0,0,0,,0,27,27,41,1,,,,
,,,,,,0902329151de276b4b6c65c3,66a626ef09d4e21e1a8894ec,6737680adfcb7c91a6d833cf,2024-11-15_09h27.17.795,Tarea de género gramatical,2024.2.2,Win32,243.902439,,,,,,,,,,,,,,,,,,,,,,,197.4912,198.4159,l,1,0.2677,,[],[],[],[],[],[],[],0.2677,1,198.416,198.9163,,,,,,1143,FEM,CON,150,salsa,,a,198.9163,198.9163,0.185185185,0.176851852,0,0,0,,0,28,28,242,1,,,,
,,,,,,0902329151de276b4b6c65c3,66a626ef09d4e21e1a8894ec,6737680adfcb7c91a6d833cf,2024-11-15_09h27.17.795,Tarea de género gramatical,2024.2.2,Win32,243.902439,,,,,,,,,,,,,,,,,,,,,,,198.9168,199.9632,a,1,0.3932,,[],[],[],[],[],[],[],0.3932,1,199.9632,200.4638,,,,,,1260,MAS,CON,150,puente,,l,200.4651,200.4658,0.185185185,0.176851852,0,0,0,,0,29,29,359,1,,,,
,,,,,,0902329151de276b4b6c65c3,66a626ef09d4e21e1a8894ec,6737680adfcb7c91a6d833cf,2024-11-15_09h27.17.795,Tarea de género gramatical,2024.2.2,Win32,243.902439,,,,,,,,,,,,,,,,,,,,,,,200.4663,201.6066,a,1,0.4862,,[],[],[],[],[],[],[],0.4862,1,201.6066,202.107,,,,,,906,MAS,CON,150,lado,,l,202.107,202.1071,0.185185185,0.176851852,0,0,0,,0,30,30,5,1,,,,
,,,,,,0902329151de276b4b6c65c3,66a626ef09d4e21e1a8894ec,6737680adfcb7c91a6d833cf,2024-11-15_09h27.17.795,Tarea de género gramatical,2024.2.2,Win32,243.902439,,,,,,,,,,,,,,,,,,,,,,,202.1079,203.083,l,1,0.3215,,[],[],[],[],[],[],[],0.3215,1,203.0831,203.5835,,,,,,986,FEM,AGR,150,cruz,la,a,203.5836,203.5836,0.185185185,0.176851852,0,0,0,,0,31,31,85,1,,,,
,,,,,,0902329151de276b4b6c65c3,66a626ef09d4e21e1a8894ec,6737680adfcb7c91a6d833cf,2024-11-15_09h27.17.795,Tarea de género gramatical,2024.2.2,Win32,243.902439,,,,,,,,,,,,,,,,,,,,,,,203.5845,204.5428,l,1,0.3063,,[],[],[],[],[],[],[],0.3063,1,204.5429,205.0433,,,,,,1118,FEM,AGR,150,nieve,la,a,205.0433,205.0434,0.185185185,0.176851852,0,0,0,,0,32,32,217,1,,,,
,,,,,,0902329151de276b4b6c65c3,66a626ef09d4e21e1a8894ec,6737680adfcb7c91a6d833cf,2024-11-15_09h27.17.795,Tarea de género gramatical,2024.2.2,Win32,243.902439,,,,,,,,,,,,,,,,,,,,,,,205.0441,205.9441,l,1,0.2478,,[],[],[],[],[],[],[],0.2478,1,205.9442,206.4447,,,,,,915,FEM,CON,150,cama,,a,206.4461,206.4467,0.185185185,0.176851852,0,0,0,,0,33,33,14,1,,,,
,,,,,,0902329151de276b4b6c65c3,66a626ef09d4e21e1a8894ec,6737680adfcb7c91a6d833cf,2024-11-15_09h27.17.795,Tarea de género gramatical,2024.2.2,Win32,243.902439,,,,,,,,,,,,,,,,,,,,,,,206.4471,207.3537,l,1,0.2502,,[],[],[],[],[],[],[],0.2502,1,207.3538,207.8545,,,,,,1094,FEM,AGR,150,banda,la,a,207.8545,207.8545,0.185185185,0.176851852,0,0,0,,0,34,34,193,1,,,,
,,,,,,0902329151de276b4b6c65c3,66a626ef09d4e21e1a8894ec,6737680adfcb7c91a6d833cf,2024-11-15_09h27.17.795,Tarea de género gramatical,2024.2.2,Win32,243.902439,,,,,,,,,,,,,,,,,,,,,,,207.8556,208.822,a,1,0.3145,,[],[],[],[],[],[],[],0.3145,1,208.8221,209.3224,,,,,,1007,MAS,AGR,150,cubo,el,l,209.3225,209.3225,0.185185185,0.176851852,0,0,0,,0,35,35,106,1,,,,
,,,,,,0902329151de276b4b6c65c3,66a626ef09d4e21e1a8894ec,6737680adfcb7c91a6d833cf,2024-11-15_09h27.17.795,Tarea de género gramatical,2024.2.2,Win32,243.902439,,,,,,,,,,,,,,,,,,,,,,,209.3232,210.4153,a,1,0.4402,,[],[],[],[],[],[],[],0.4402,1,210.4154,210.9158,,,,,,1302,MAS,CON,150,ladrón,,l,210.9158,210.9159,0.185185185,0.176851852,0,0,0,,0,36,36,401,1,,,,
,,,,,,0902329151de276b4b6c65c3,66a626ef09d4e21e1a8894ec,6737680adfcb7c91a6d833cf,2024-11-15_09h27.17.795,Tarea de género gramatical,2024.2.2,Win32,243.902439,,,,,,,,,,,,,,,,,,,,,,,210.9168,211.9835,a,1,0.416,,[],[],[],[],[],[],[],0.416,1,211.9836,212.484,,,,,,1330,MAS,DIS,150,título,la,l,212.4841,212.4841,0.185185185,0.176851852,0,0,0,,0,37,37,429,1,,,,
,,,,,,0902329151de276b4b6c65c3,66a626ef09d4e21e1a8894ec,6737680adfcb7c91a6d833cf,2024-11-15_09h27.17.795,Tarea de género gramatical,2024.2.2,Win32,243.902439,,,,,,,,,,,,,,,,,,,,,,,212.4851,213.7142,a,1,0.5762,,[],[],[],[],[],[],[],0.5762,1,213.7142,214.2149,,,,,,1168,MAS,DIS,150,truco,la,l,214.2164,214.217,0.185185185,0.176851852,0,0,0,,0,38,38,267,1,,,,
,,,,,,0902329151de276b4b6c65c3,66a626ef09d4e21e1a8894ec,6737680adfcb7c91a6d833cf,2024-11-15_09h27.17.795,Tarea de género gramatical,2024.2.2,Win32,243.902439,,,,,,,,,,,,,,,,,,,,,,,214.2176,215.2158,l,1,0.345,,[],[],[],[],[],[],[],0.345,1,215.2159,215.7161,,,,,,1137,FEM,CON,150,ducha,,a,215.7161,215.7161,0.185185185,0.176851852,0,0,0,,0,39,39,236,1,,,,
,,,,,,0902329151de276b4b6c65c3,66a626ef09d4e21e1a8894ec,6737680adfcb7c91a6d833cf,2024-11-15_09h27.17.795,Tarea de género gramatical,2024.2.2,Win32,243.902439,,,,,,,,,,,,,,,,,,,,,,,215.7165,216.7131,l,1,0.3442,,[],[],[],[],[],[],[],0.3442,1,216.7132,217.2136,,,,,,925,FEM,DIS,150,nave,el,a,217.2136,217.2136,0.185185185,0.176851852,0,0,0,,0,40,40,24,1,,,,
,,,,,,0902329151de276b4b6c65c3,66a626ef09d4e21e1a8894ec,6737680adfcb7c91a6d833cf,2024-11-15_09h27.17.795,Tarea de género gramatical,2024.2.2,Win32,243.902439,,,,,,,,,,,,,,,,,,,,,,,217.2144,218.3731,a,1,0.5076,,[],[],[],[],[],[],[],0.5076,1,218.3731,218.8736,,,,,,1001,MAS,AGR,150,giro,el,l,218.8736,218.8737,0.185185185,0.176851852,0,0,0,,0,41,41,100,1,,,,
,,,,,,0902329151de276b4b6c65c3,66a626ef09d4e21e1a8894ec,6737680adfcb7c91a6d833cf,2024-11-15_09h27.17.795,Tarea de género gramatical,2024.2.2,Win32,243.902439,,,,,,,,,,,,,,,,,,,,,,,218.8747,219.8121,l,1,0.2804,,[],[],[],[],[],[],[],0.2804,1,219.8122,220.3125,,,,,,1292,FEM,AGR,150,maleta,la,a,220.3132,220.3137,0.185185185,0.176851852,0,0,0,,0,42,42,391,1,,,,
,,,,,,0902329151de276b4b6c65c3,66a626ef09d4e21e1a8894ec,6737680adfcb7c91a6d833cf,2024-11-15_09h27.17.795,Tarea de género gramatical,2024.2.2,Win32,243.902439,,,,,,,,,,,,,,,,,,,,,,,220.3141,221.2008,l,1,0.2312,,[],[],[],[],[],[],[],0.2312,1,221.2008,221.7013,,,,,,1035,FEM,CON,150,raíz,,a,221.7014,221.7014,0.185185185,0.176851852,0,0,0,,0,43,43,134,1,,,,
,,,,,,0902329151de276b4b6c65c3,66a626ef09d4e21e1a8894ec,6737680adfcb7c91a6d833cf,2024-11-15_09h27.17.795,Tarea de género gramatical,2024.2.2,Win32,243.902439,,,,,,,,,,,,,,,,,,,,,,,221.7023,222.6397,a,1,0.2854,,[],[],[],[],[],[],[],0.2854,1,222.6398,223.1402,,,,,,1259,MAS,AGR,150,bosque,el,l,223.1403,223.1404,0.185185185,0.176851852,0,0,0,,0,44,44,358,1,,,,
,,,,,,0902329151de276b4b6c65c3,66a626ef09d4e21e1a8894ec,6737680adfcb7c91a6d833cf,2024-11-15_09h27.17.795,Tarea de género gramatical,2024.2.2,Win32,243.902439,,,,,,,,,,,,,,,,,,,,,,,223.1412,224.0328,a,1,0.2403,,[],[],[],[],[],[],[],0.2403,1,224.0328,224.5332,,,,,,1170,MAS,CON,150,queso,,l,224.5333,224.5333,0.185185185,0.176851852,0,0,0,,0,45,45,269,1,,,,
,,,,,,0902329151de276b4b6c65c3,66a626ef09d4e21e1a8894ec,6737680adfcb7c91a6d833cf,2024-11-15_09h27.17.795,Tarea de género gramatical,2024.2.2,Win32,243.902439,,,,,,,,,,,,,,,,,,,,,,,224.5343,225.6677,a,1,0.4817,,[],[],[],[],[],[],[],0.4817,1,225.6678,226.1682,,,,,,1060,MAS,DIS,150,señor,la,l,226.1683,226.1684,0.185185185,0.176851852,0,0,0,,0,46,46,159,1,,,,
,,,,,,0902329151de276b4b6c65c3,66a626ef09d4e21e1a8894ec,6737680adfcb7c91a6d833cf,2024-11-15_09h27.17.795,Tarea de género gramatical,2024.2.2,Win32,243.902439,,,,,,,,,,,,,,,,,,,,,,,226.1693,227.2275,a,1,0.4052,,[],[],[],[],[],[],[],0.4052,1,227.2276,227.728,,,,,,1247,MAS,AGR,150,cuello,el,l,227.7291,227.7297,0.185185185,0.176851852,0,0,0,,0,47,47,346,1,,,,
,,,,,,0902329151de276b4b6c65c3,66a626ef09d4e21e1a8894ec,6737680adfcb7c91a6d833cf,2024-11-15_09h27.17.795,Tarea de género gramatical,2024.2.2,Win32,243.902439,,,,,,,,,,,,,,,,,,,,,,,227.7301,228.679,l,1,0.2932,,[],[],[],[],[],[],[],0.2932,1,228.679,229.1794,,,,,,1244,FEM,AGR,150,pareja,la,a,229.1795,229.1795,0.185185185,0.176851852,0,0,0,,0,48,48,343,1,,,,
,,,,,,0902329151de276b4b6c65c3,66a626ef09d4e21e1a8894ec,6737680adfcb7c91a6d833cf,2024-11-15_09h27.17.795,Tarea de género gramatical,2024.2.2,Win32,243.902439,,,,,,,,,,,,,,,,,,,,,,,229.1804,230.072,l,1,0.2386,,[],[],[],[],[],[],[],0.2386,1,230.0721,230.5724,,,,,,1100,FEM,AGR,150,silla,la,a,230.5724,230.5725,0.185185185,0.176851852,0,0,0,,0,49,49,199,1,,,,
,,,,,,0902329151de276b4b6c65c3,66a626ef09d4e21e1a8894ec,6737680adfcb7c91a6d833cf,2024-11-15_09h27.17.795,Tarea de género gramatical,2024.2.2,Win32,243.902439,,,,,,,,,,,,,,,,,,,,,,,230.5728,231.5817,a,1,0.3559,,[],[],[],[],[],[],[],0.3559,1,231.5817,232.0823,,,,,,1092,MAS,CON,150,grupo,,l,232.0824,232.0824,0.185185185,0.176851852,0,0,0,,0,50,50,191,1,,,,
,,,,,,0902329151de276b4b6c65c3,66a626ef09d4e21e1a8894ec,6737680adfcb7c91a6d833cf,2024-11-15_09h27.17.795,Tarea de género gramatical,2024.2.2,Win32,243.902439,,,,,,,,,,,,,,,,,,,,,,,232.0834,233.0666,l,1,0.3315,,[],[],[],[],[],[],[],0.3315,1,233.0666,233.5671,,,,,,914,FEM,AGR,150,cara,la,a,233.568,233.5685,0.185185185,0.176851852,0,0,0,,0,51,51,13,1,,,,
,,,,,,0902329151de276b4b6c65c3,66a626ef09d4e21e1a8894ec,6737680adfcb7c91a6d833cf,2024-11-15_09h27.17.795,Tarea de género gramatical,2024.2.2,Win32,243.902439,,,,,,,,,,,,,,,,,,,,,,,233.5689,234.6181,l,0,0.3937,,[],[],[],[],[],[],[],0.3937,0,234.6186,235.1192,,,,,,1272,MAS,CON,150,delito,,l,235.1192,235.1193,0.185185185,0.176851852,0,0,0,,0,52,52,371,1,,,,
,,,,,,0902329151de276b4b6c65c3,66a626ef09d4e21e1a8894ec,6737680adfcb7c91a6d833cf,2024-11-15_09h27.17.795,Tarea de género gramatical,2024.2.2,Win32,243.902439,,,,,,,,,,,,,,,,,,,,,,,235.1198,236.3824,a,1,0.6057,,[],[],[],[],[],[],[],0.6057,1,236.3829,236.8827,,,,,,928,MAS,DIS,150,club,la,l,236.8827,236.8828,0.185185185,0.176851852,0,0,0,,0,53,53,27,1,,,,
,,,,,,0902329151de276b4b6c65c3,66a626ef09d4e21e1a8894ec,6737680adfcb7c91a6d833cf,2024-11-15_09h27.17.795,Tarea de género gramatical,2024.2.2,Win32,243.902439,,,,,,,,,,,,,,,,,,,,,,,236.8832,237.8964,l,1,0.3591,,[],[],[],[],[],[],[],0.3591,1,237.8964,238.3968,,,,,,985,FEM,DIS,150,gira,el,a,238.3969,238.397,0.185185185,0.176851852,0,0,0,,0,54,54,84,1,,,,
,,,,,,0902329151de276b4b6c65c3,66a626ef09d4e21e1a8894ec,6737680adfcb7c91a6d833cf,2024-11-15_09h27.17.795,Tarea de género gramatical,2024.2.2,Win32,243.902439,,,,,,,,,,,,,,,,,,,,,,,238.3977,239.3896,a,1,0.3385,,[],[],[],[],[],[],[],0.3385,1,239.3896,239.89,,,,,,1062,MAS,CON,150,miedo,,l,239.8901,239.8901,0.185185185,0.176851852,0,0,0,,0,55,55,161,1,,,,
,,,,,,0902329151de276b4b6c65c3,66a626ef09d4e21e1a8894ec,6737680adfcb7c91a6d833cf,2024-11-15_09h27.17.795,Tarea de género gramatical,2024.2.2,Win32,243.902439,,,,,,,,,,,,,,,,,,,,,,,239.891,240.8785,l,1,0.3346,,[],[],[],[],[],[],[],0.3346,1,240.8786,241.379,,,,,,992,FEM,AGR,150,masa,la,a,241.3797,241.3803,0.185185185,0.176851852,0,0,0,,0,56,56,91,1,,,,
,,,,,,0902329151de276b4b6c65c3,66a626ef09d4e21e1a8894ec,6737680adfcb7c91a6d833cf,2024-11-15_09h27.17.795,Tarea de género gramatical,2024.2.2,Win32,243.902439,,,,,,,,,,,,,,,,,,,,,,,241.3807,242.3799,a,1,0.3425,,[],[],[],[],[],[],[],0.3425,1,242.38,242.8806,,,,,,1163,MAS,AGR,150,carro,el,l,242.8806,242.8807,0.185185185,0.176851852,0,0,0,,0,57,57,262,1,,,,
,,,,,,0902329151de276b4b6c65c3,66a626ef09d4e21e1a8894ec,6737680adfcb7c91a6d833cf,2024-11-15_09h27.17.795,Tarea de género gramatical,2024.2.2,Win32,243.902439,,,,,,,,,,,,,,,,,,,,,,,242.8818,243.8856,l,1,0.3486,,[],[],[],[],[],[],[],0.3486,1,243.8856,244.3861,,,,,,975,FEM,CON,150,caza,,a,244.3861,244.3862,0.185185185,0.176851852,0,0,0,,0,58,58,74,1,,,,
,,,,,,0902329151de276b4b6c65c3,66a626ef09d4e21e1a8894ec,6737680adfcb7c91a6d833cf,2024-11-15_09h27.17.795,Tarea de género gramatical,2024.2.2,Win32,243.902439,,,,,,,,,,,,,,,,,,,,,,,244.3872,245.6247,l,1,0.5831,,[],[],[],[],[],[],[],0.5831,1,245.6247,246.1253,,,,,,1052,FEM,AGR,150,gente,la,a,246.1255,246.1255,0.185185185,0.176851852,0,0,0,,0,59,59,151,1,,,,
,,,,,,0902329151de276b4b6c65c3,66a626ef09d4e21e1a8894ec,6737680adfcb7c91a6d833cf,2024-11-15_09h27.17.795,Tarea de género gramatical,2024.2.2,Win32,243.902439,,,,,,,,,,,,,,,,,,,,,,,246.1266,247.289,l,1,0.5096,,[],[],[],[],[],[],[],0.5096,1,247.2891,247.7895,,,,,,1076,FEM,AGR,150,línea,la,a,247.7908,247.7916,0.185185185,0.176851852,0,0,0,,0,60,60,175,1,,,,
,,,,,,0902329151de276b4b6c65c3,66a626ef09d4e21e1a8894ec,6737680adfcb7c91a6d833cf,2024-11-15_09h27.17.795,Tarea de género gramatical,2024.2.2,Win32,243.902439,,,,,,,,,,,,,,,,,,,,,,,247.7922,248.8489,a,1,0.4023,,[],[],[],[],[],[],[],0.4023,1,248.849,249.3494,,,,,,1036,MAS,DIS,150,vago,la,l,249.3494,249.3495,0.185185185,0.176851852,0,0,0,,0,61,61,135,1,,,,
,,,,,,0902329151de276b4b6c65c3,66a626ef09d4e21e1a8894ec,6737680adfcb7c91a6d833cf,2024-11-15_09h27.17.795,Tarea de género gramatical,2024.2.2,Win32,243.902439,,,,,,,,,,,,,,,,,,,,,,,249.3507,250.3211,l,1,0.317,,[],[],[],[],[],[],[],0.317,1,250.3212,250.8217,,,,,,1291,FEM,DIS,150,altura,el,a,250.8217,250.8218,0.185185185,0.176851852,0,0,0,,0,62,62,390,1,,,,
,,,,,,0902329151de276b4b6c65c3,66a626ef09d4e21e1a8894ec,6737680adfcb7c91a6d833cf,2024-11-15_09h27.17.795,Tarea de género gramatical,2024.2.2,Win32,243.902439,,,,,,,,,,,,,,,,,,,,,,,250.8225,251.9269,l,1,0.4482,,[],[],[],[],[],[],[],0.4482,1,251.9269,252.4274,,,,,,1166,FEM,AGR,150,jaula,la,a,252.4275,252.4275,0.185185185,0.176851852,0,0,0,,0,63,63,265,1,,,,
,,,,,,0902329151de276b4b6c65c3,66a626ef09d4e21e1a8894ec,6737680adfcb7c91a6d833cf,2024-11-15_09h27.17.795,Tarea de género gramatical,2024.2.2,Win32,243.902439,,,,,,,,,,,,,,,,,,,,,,,252.4288,253.7162,l,1,0.6349,,[],[],[],[],[],[],[],0.6349,1,253.7163,254.2166,,,,,,907,FEM,DIS,150,hora,el,a,254.2167,254.2168,0.185185185,0.176851852,0,0,0,,0,64,64,6,1,,,,
,,,,,,0902329151de276b4b6c65c3,66a626ef09d4e21e1a8894ec,6737680adfcb7c91a6d833cf,2024-11-15_09h27.17.795,Tarea de género gramatical,2024.2.2,Win32,243.902439,,,,,,,,,,,,,,,,,,,,,,,254.2179,255.3427,a,1,0.474,,[],[],[],[],[],[],[],0.474,1,255.3428,255.8431,,,,,,1013,MAS,AGR,150,toro,el,l,255.8437,255.8441,0.185185185,0.176851852,0,0,0,,0,65,65,112,1,,,,
,,,,,,0902329151de276b4b6c65c3,66a626ef09d4e21e1a8894ec,6737680adfcb7c91a6d833cf,2024-11-15_09h27.17.795,Tarea de género gramatical,2024.2.2,Win32,243.902439,,,,,,,,,,,,,,,,,,,,,,,255.8444,256.8566,l,1,0.3574,,[],[],[],[],[],[],[],0.3574,1,256.8566,257.3572,,,,,,1219,FEM,DIS,150,sangre,el,a,257.3572,257.3573,0.185185185,0.176851852,0,0,0,,0,66,66,318,1,,,,
,,,,,,0902329151de276b4b6c65c3,66a626ef09d4e21e1a8894ec,6737680adfcb7c91a6d833cf,2024-11-15_09h27.17.795,Tarea de género gramatical,2024.2.2,Win32,243.902439,,,,,,,,,,,,,,,,,,,,,,,257.3584,258.9128,l,0,0.8978,,[],[],[],[],[],[],[],0.8978,0,258.913,259.4134,,,,,,1294,MAS,DIS,150,examen,la,l,259.4134,259.4135,0.185185185,0.176851852,0,0,0,,0,67,67,393,1,,,,
,,,,,,0902329151de276b4b6c65c3,66a626ef09d4e21e1a8894ec,6737680adfcb7c91a6d833cf,2024-11-15_09h27.17.795,Tarea de género gramatical,2024.2.2,Win32,243.902439,,,,,,,,,,,,,,,,,,,,,,,259.4148,260.4059,l,1,0.3338,,[],[],[],[],[],[],[],0.3338,1,260.4062,260.9065,,,,,,1239,FEM,CON,150,salida,,a,260.9066,260.9066,0.185185185,0.176851852,0,0,0,,0,68,68,338,1,,,,
,,,,,,0902329151de276b4b6c65c3,66a626ef09d4e21e1a8894ec,6737680adfcb7c91a6d833cf,2024-11-15_09h27.17.795,Tarea de género gramatical,2024.2.2,Win32,243.902439,,,,,,,,,,,,,,,,,,,,,,,260.9076,261.9826,a,1,0.4192,,[],[],[],[],[],[],[],0.4192,1,261.9827,262.4832,,,,,,1188,MAS,CON,150,grado,,l,262.4844,262.4853,0.185185185,0.176851852,0,0,0,,0,69,69,287,1,,,,
,,,,,,0902329151de276b4b6c65c3,66a626ef09d4e21e1a8894ec,6737680adfcb7c91a6d833cf,2024-11-15_09h27.17.795,Tarea de género gramatical,2024.2.2,Win32,243.902439,,,,,,,,,,,,,,,,,,,,,,,262.486,263.8094,a,1,0.6696,,[],[],[],[],[],[],[],0.6696,1,263.8094,264.31,,,,,,1282,MAS,DIS,150,teatro,la,l,264.31,264.3101,0.185185185,0.176851852,0,0,0,,0,70,70,381,1,,,,
,,,,,,0902329151de276b4b6c65c3,66a626ef09d4e21e1a8894ec,6737680adfcb7c91a6d833cf,2024-11-15_09h27.17.795,Tarea de género gramatical,2024.2.2,Win32,243.902439,,,,,,,,,,,,,,,,,,,,,,,264.3111,265.4527,a,1,0.4863,,[],[],[],[],[],[],[],0.4863,1,265.4527,265.9532,,,,,,1072,MAS,DIS,150,poder,la,l,265.9532,265.9533,0.185185185,0.176851852,0,0,0,,0,71,71,171,1,,,,
,,,,,,0902329151de276b4b6c65c3,66a626ef09d4e21e1a8894ec,6737680adfcb7c91a6d833cf,2024-11-15_09h27.17.795,Tarea de género gramatical,2024.2.2,Win32,243.902439,,,,,,,,,,,,,,,,,,,,,,,265.9544,267.0459,a,1,0.4394,,[],[],[],[],[],[],[],0.4394,1,267.046,267.5464,,,,,,1002,MAS,CON,150,coro,,l,267.5464,267.5466,0.185185185,0.176851852,0,0,0,,0,72,72,101,1,,,,
,,,,,,0902329151de276b4b6c65c3,66a626ef09d4e21e1a8894ec,6737680adfcb7c91a6d833cf,2024-11-15_09h27.17.795,Tarea de género gramatical,2024.2.2,Win32,243.902439,,,,,,,,,,,,,,,,,,,,,,,267.5474,268.6016,l,1,0.4009,,[],[],[],[],[],[],[],0.4009,1,268.6016,269.102,,,,,,919,FEM,DIS,150,niña,el,a,269.1021,269.1021,0.185185185,0.176851852,0,0,0,,0,73,73,18,1,,,,
,,,,,,0902329151de276b4b6c65c3,66a626ef09d4e21e1a8894ec,6737680adfcb7c91a6d833cf,2024-11-15_09h27.17.795,Tarea de género gramatical,2024.2.2,Win32,243.902439,,,,,,,,,,,,,,,,,,,,,,,269.1024,270.0906,l,1,0.3339,,[],[],[],[],[],[],[],0.3339,1,270.0906,270.591,,,,,,1178,FEM,AGR,150,presa,la,a,270.592,270.5926,0.185185185,0.176851852,0,0,0,,0,74,74,277,1,,,,
,,,,,,0902329151de276b4b6c65c3,66a626ef09d4e21e1a8894ec,6737680adfcb7c91a6d833cf,2024-11-15_09h27.17.795,Tarea de género gramatical,2024.2.2,Win32,243.902439,,,,,,,,,,,,,,,,,,,,,,,270.5931,271.7839,a,1,0.5351,,[],[],[],[],[],[],[],0.5351,1,271.784,272.2844,,,,,,1337,MAS,AGR,150,hombro,el,l,272.2844,272.2845,0.185185185,0.176851852,0,0,0,,0,75,75,436,1,,,,
,,,,,,0902329151de276b4b6c65c3,66a626ef09d4e21e1a8894ec,6737680adfcb7c91a6d833cf,2024-11-15_09h27.17.795,Tarea de género gramatical,2024.2.2,Win32,243.902439,,,,,,,,,,,,,,,,,,,,,,,272.2854,273.3563,a,1,0.4186,,[],[],[],[],[],[],[],0.4186,1,273.3563,273.8568,,,,,,1325,MAS,AGR,150,chiste,el,l,273.8568,273.8569,0.185185185,0.176851852,0,0,0,,0,76,76,424,1,,,,
,,,,,,0902329151de276b4b6c65c3,66a626ef09d4e21e1a8894ec,6737680adfcb7c91a6d833cf,2024-11-15_09h27.17.795,Tarea de género gramatical,2024.2.2,Win32,243.902439,,,,,,,,,,,,,,,,,,,,,,,273.8579,274.8785,a,1,0.3693,,[],[],[],[],[],[],[],0.3693,1,274.8787,275.3791,,,,,,958,MAS,DIS,150,mono,la,l,275.3791,275.3792,0.185185185,0.176851852,0,0,0,,0,77,77,57,1,,,,
,,,,,,0902329151de276b4b6c65c3,66a626ef09d4e21e1a8894ec,6737680adfcb7c91a6d833cf,2024-11-15_09h27.17.795,Tarea de género gramatical,2024.2.2,Win32,243.902439,,,,,,,,,,,,,,,,,,,,,,,275.3798,276.3884,a,1,0.3551,,[],[],[],[],[],[],[],0.3551,1,276.3884,276.8889,,,,,,1278,MAS,CON,150,pastel,,l,276.8899,276.8904,0.185185185,0.176851852,0,0,0,,0,78,78,377,1,,,,
,,,,,,0902329151de276b4b6c65c3,66a626ef09d4e21e1a8894ec,6737680adfcb7c91a6d833cf,2024-11-15_09h27.17.795,Tarea de género gramatical,2024.2.2,Win32,243.902439,,,,,,,,,,,,,,,,,,,,,,,276.8909,278.211,l,0,0.664,,[],[],[],[],[],[],[],0.664,0,278.2117,278.7115,,,,,,1048,MAS,DIS,150,surf,la,l,278.7116,278.7117,0.185185185,0.176851852,0,0,0,,0,79,79,147,1,,,,
,,,,,,0902329151de276b4b6c65c3,66a626ef09d4e21e1a8894ec,6737680adfcb7c91a6d833cf,2024-11-15_09h27.17.795,Tarea de género gramatical,2024.2.2,Win32,243.902439,,,,,,,,,,,,,,,,,,,,,,,278.7128,279.6791,l,1,0.3152,,[],[],[],[],[],[],[],0.3152,1,279.6797,280.1796,,,,,,1293,FEM,CON,150,alarma,,a,280.1796,280.1797,0.185185185,0.176851852,0,0,0,,0,80,80,392,1,,,,
,,,,,,0902329151de276b4b6c65c3,66a626ef09d4e21e1a8894ec,6737680adfcb7c91a6d833cf,2024-11-15_09h27.17.795,Tarea de género gramatical,2024.2.2,Win32,243.902439,,,,,,,,,,,,,,,,,,,,,,,280.1808,281.1764,l,1,0.3442,,[],[],[],[],[],[],[],0.3442,1,281.1765,281.6769,,,,,,961,FEM,DIS,150,ruta,el,a,281.6769,281.677,0.185185185,0.176851852,0,0,0,,0,81,81,60,1,,,,
,,,,,,0902329151de276b4b6c65c3,66a626ef09d4e21e1a8894ec,6737680adfcb7c91a6d833cf,2024-11-15_09h27.17.795,Tarea de género gramatical,2024.2.2,Win32,243.902439,,,,,,,,,,,,,,,,,,,,,,,281.678,282.903,l,1,0.5718,,[],[],[],[],[],[],[],0.5718,1,282.9031,283.4036,,,,,,1173,FEM,CON,150,tarta,,a,283.4037,283.4038,0.185185185,0.176851852,0,0,0,,0,82,82,272,1,,,,
,,,,,,0902329151de276b4b6c65c3,66a626ef09d4e21e1a8894ec,6737680adfcb7c91a6d833cf,2024-11-15_09h27.17.795,Tarea de género gramatical,2024.2.2,Win32,243.902439,,,,,,,,,,,,,,,,,,,,,,,283.4047,284.4171,a,1,0.3605,,[],[],[],[],[],[],[],0.3605,1,284.4172,284.9175,,,,,,930,MAS,CON,150,cine,,l,284.9183,284.9187,0.185185185,0.176851852,0,0,0,,0,83,83,29,1,,,,
,,,,,,0902329151de276b4b6c65c3,66a626ef09d4e21e1a8894ec,6737680adfcb7c91a6d833cf,2024-11-15_09h27.17.795,Tarea de género gramatical,2024.2.2,Win32,243.902439,,,,,,,,,,,,,,,,,,,,,,,284.9193,286.1355,a,1,0.5614,,[],[],[],[],[],[],[],0.5614,1,286.1355,286.636,,,,,,978,MAS,CON,150,oído,,l,286.636,286.6361,0.185185185,0.176851852,0,0,0,,0,84,84,77,1,,,,
,,,,,,0902329151de276b4b6c65c3,66a626ef09d4e21e1a8894ec,6737680adfcb7c91a6d833cf,2024-11-15_09h27.17.795,Tarea de género gramatical,2024.2.2,Win32,243.902439,,,,,,,,,,,,,,,,,,,,,,,286.6369,287.8914,l,0,0.5985,,[],[],[],[],[],[],[],0.5985,0,287.8919,288.3919,,,,,,1079,MAS,AGR,150,viaje,el,l,288.392,288.392,0.185185185,0.176851852,0,0,0,,0,85,85,178,1,,,,
,,,,,,0902329151de276b4b6c65c3,66a626ef09d4e21e1a8894ec,6737680adfcb7c91a6d833cf,2024-11-15_09h27.17.795,Tarea de género gramatical,2024.2.2,Win32,243.902439,,,,,,,,,,,,,,,,,,,,,,,288.3931,289.5262,l,1,0.4759,,[],[],[],[],[],[],[],0.4759,1,289.5268,290.0267,,,,,,1225,FEM,DIS,150,tierra,el,a,290.0268,290.0268,0.185185185,0.176851852,0,0,0,,0,86,86,324,1,,,,
,,,,,,0902329151de276b4b6c65c3,66a626ef09d4e21e1a8894ec,6737680adfcb7c91a6d833cf,2024-11-15_09h27.17.795,Tarea de género gramatical,2024.2.2,Win32,243.902439,,,,,,,,,,,,,,,,,,,,,,,290.0276,291.3906,l,1,0.709,,[],[],[],[],[],[],[],0.709,1,291.3906,291.8911,,,,,,1161,FEM,CON,150,cueva,,a,291.8924,291.8929,0.185185185,0.176851852,0,0,0,,0,87,87,260,1,,,,
,,,,,,0902329151de276b4b6c65c3,66a626ef09d4e21e1a8894ec,6737680adfcb7c91a6d833cf,2024-11-15_09h27.17.795,Tarea de género gramatical,2024.2.2,Win32,243.902439,,,,,,,,,,,,,,,,,,,,,,,291.8935,292.867,l,0,0.3172,,[],[],[],[],[],[],[],0.3172,0,292.8678,293.3675,,,,,,1206,MAS,CON,150,dinero,,l,293.3675,293.3676,0.185185185,0.176851852,0,0,0,,0,88,88,305,1,,,,
,,,,,,0902329151de276b4b6c65c3,66a626ef09d4e21e1a8894ec,6737680adfcb7c91a6d833cf,2024-11-15_09h27.17.795,Tarea de género gramatical,2024.2.2,Win32,243.902439,,,,,,,,,,,,,,,,,,,,,,,293.3684,294.3643,l,1,0.3423,,[],[],[],[],[],[],[],0.3423,1,294.3648,294.8648,,,,,,1243,FEM,DIS,150,trampa,el,a,294.8649,294.8649,0.185185185,0.176851852,0,0,0,,0,89,89,342,1,,,,
,,,,,,0902329151de276b4b6c65c3,66a626ef09d4e21e1a8894ec,6737680adfcb7c91a6d833cf,2024-11-15_09h27.17.795,Tarea de género gramatical,2024.2.2,Win32,243.902439,,,,,,,,,,,,,,,,,,,,,,,294.8661,296.0493,a,1,0.5307,,[],[],[],[],[],[],[],0.5307,1,296.0494,296.5499,,,,,,1018,MAS,DIS,150,baúl,la,l,296.5499,296.5499,0.185185185,0.176851852,0,0,0,,0,90,90,117,1,,,,
,,,,,,0902329151de276b4b6c65c3,66a626ef09d4e21e1a8894ec,6737680adfcb7c91a6d833cf,2024-11-15_09h27.17.795,Tarea de género gramatical,2024.2.2,Win32,243.902439,,,,,,,,,,,,,,,,,,,,,,,296.5509,297.8177,a,1,0.6133,,[],[],[],[],[],[],[],0.6133,1,297.8179,298.3183,,,,,,1176,MAS,CON,150,ritmo,,l,298.3183,298.3184,0.185185185,0.176851852,0,0,0,,0,91,91,275,1,,,,
,,,,,,0902329151de276b4b6c65c3,66a626ef09d4e21e1a8894ec,6737680adfcb7c91a6d833cf,2024-11-15_09h27.17.795,Tarea de género gramatical,2024.2.2,Win32,243.902439,,,,,,,,,,,,,,,,,,,,,,,298.3198,299.2817,a,1,0.3063,,[],[],[],[],[],[],[],0.3063,1,299.2817,299.7822,,,,,,996,MAS,CON,150,pato,,l,299.7833,299.7839,0.185185185,0.176851852,0,0,0,,0,92,92,95,1,,,,
,,,,,,0902329151de276b4b6c65c3,66a626ef09d4e21e1a8894ec,6737680adfcb7c91a6d833cf,2024-11-15_09h27.17.795,Tarea de género gramatical,2024.2.2,Win32,243.902439,,,,,,,,,,,,,,,,,,,,,,,299.7845,300.9082,l,1,0.4705,,[],[],[],[],[],[],[],0.4705,1,300.9083,301.4089,,,,,,1087,FEM,DIS,150,lista,el,a,301.4089,301.409,0.185185185,0.176851852,0,0,0,,0,93,93,186,1,,,,
,,,,,,0902329151de276b4b6c65c3,66a626ef09d4e21e1a8894ec,6737680adfcb7c91a6d833cf,2024-11-15_09h27.17.795,Tarea de género gramatical,2024.2.2,Win32,243.902439,,,,,,,,,,,,,,,,,,,,,,,301.4101,302.8559,a,1,0.7937,,[],[],[],[],[],[],[],0.7937,1,302.8559,303.3563,,,,,,1186,MAS,DIS,150,reino,la,l,303.3563,303.3565,0.185185185,0.176851852,0,0,0,,0,94,94,285,1,,,,
,,,,,,0902329151de276b4b6c65c3,66a626ef09d4e21e1a8894ec,6737680adfcb7c91a6d833cf,2024-11-15_09h27.17.795,Tarea de género gramatical,2024.2.2,Win32,243.902439,,,,,,,,,,,,,,,,,,,,,,,303.3567,304.4243,l,1,0.415,,[],[],[],[],[],[],[],0.415,1,304.4243,304.9248,,,,,,1305,FEM,CON,150,parada,,a,304.9248,304.9248,0.185185185,0.176851852,0,0,0,,0,95,95,404,1,,,,
,,,,,,0902329151de276b4b6c65c3,66a626ef09d4e21e1a8894ec,6737680adfcb7c91a6d833cf,2024-11-15_09h27.17.795,Tarea de género gramatical,2024.2.2,Win32,243.902439,,,,,,,,,,,,,,,,,,,,,,,304.9255,305.9798,l,1,0.4014,,[],[],[],[],[],[],[],0.4014,1,305.9799,306.4805,,,,,,1201,FEM,DIS,150,verdad,el,a,306.4816,306.4821,0.185185185,0.176851852,0,0,0,,0,96,96,300,1,,,,
,,,,,,0902329151de276b4b6c65c3,66a626ef09d4e21e1a8894ec,6737680adfcb7c91a6d833cf,2024-11-15_09h27.17.795,Tarea de género gramatical,2024.2.2,Win32,243.902439,,,,,,,,,,,,,,,,,,,,,,,306.4826,307.7108,l,1,0.5725,,[],[],[],[],[],[],[],0.5725,1,307.711,308.2114,,,,,,1323,FEM,CON,150,poesía,,a,308.2115,308.2115,0.185185185,0.176851852,0,0,0,,0,97,97,422,1,,,,
,,,,,,0902329151de276b4b6c65c3,66a626ef09d4e21e1a8894ec,6737680adfcb7c91a6d833cf,2024-11-15_09h27.17.795,Tarea de género gramatical,2024.2.2,Win32,243.902439,,,,,,,,,,,,,,,,,,,,,,,308.2126,309.3916,a,1,0.5223,,[],[],[],[],[],[],[],0.5223,1,309.3917,309.8921,,,,,,1068,MAS,CON,150,sitio,,l,309.8922,309.8922,0.185185185,0.176851852,0,0,0,,0,98,98,167,1,,,,
,,,,,,0902329151de276b4b6c65c3,66a626ef09d4e21e1a8894ec,6737680adfcb7c91a6d833cf,2024-11-15_09h27.17.795,Tarea de género gramatical,2024.2.2,Win32,243.902439,,,,,,,,,,,,,,,,,,,,,,,309.893,311.1434,a,1,0.5976,,[],[],[],[],[],[],[],0.5976,1,311.1434,311.6437,,,,,,1158,MAS,CON,150,polvo,,l,311.6437,311.6437,0.185185185,0.176851852,0,0,0,,0,99,99,257,1,,,,
,,,,,,0902329151de276b4b6c65c3,66a626ef09d4e21e1a8894ec,6737680adfcb7c91a6d833cf,2024-11-15_09h27.17.795,Tarea de género gramatical,2024.2.2,Win32,243.902439,,,,,,,,,,,,,,,,,,,,,,,311.6442,312.7951,a,1,0.4974,,[],[],[],[],[],[],[],0.4974,1,312.7952,313.2955,,,,,,1037,MAS,AGR,150,coco,el,l,313.2956,313.2956,0.185185185,0.176851852,0,0,0,,0,100,100,136,1,,,,
,,,,,,0902329151de276b4b6c65c3,66a626ef09d4e21e1a8894ec,6737680adfcb7c91a6d833cf,2024-11-15_09h27.17.795,Tarea de género gramatical,2024.2.2,Win32,243.902439,,,,,,,,,,,,,,,,,,,,,,,313.2966,314.2965,l,1,0.3426,,[],[],[],[],[],[],[],0.3426,1,314.2966,314.7968,,,,,,1064,FEM,AGR,150,novia,la,a,314.7973,314.7977,0.185185185,0.176851852,0,0,0,,0,101,101,163,1,,,,
,,,,,,0902329151de276b4b6c65c3,66a626ef09d4e21e1a8894ec,6737680adfcb7c91a6d833cf,2024-11-15_09h27.17.795,Tarea de género gramatical,2024.2.2,Win32,243.902439,,,,,,,,,,,,,,,,,,,,,,,314.798,315.8436,a,1,0.3901,,[],[],[],[],[],[],[],0.3901,1,315.8437,316.3443,,,,,,1042,MAS,DIS,150,lodo,la,l,316.3443,316.3445,0.185185185,0.176851852,0,0,0,,0,102,102,141,1,,,,
,,,,,,0902329151de276b4b6c65c3,66a626ef09d4e21e1a8894ec,6737680adfcb7c91a6d833cf,2024-11-15_09h27.17.795,Tarea de género gramatical,2024.2.2,Win32,243.902439,,,,,,,,,,,,,,,,,,,,,,,316.3455,317.2993,l,1,0.2999,,[],[],[],[],[],[],[],0.2999,1,317.2994,317.7999,,,,,,1160,FEM,AGR,150,barra,la,a,317.8,317.8,0.185185185,0.176851852,0,0,0,,0,103,103,259,1,,,,
,,,,,,0902329151de276b4b6c65c3,66a626ef09d4e21e1a8894ec,6737680adfcb7c91a6d833cf,2024-11-15_09h27.17.795,Tarea de género gramatical,2024.2.2,Win32,243.902439,,,,,,,,,,,,,,,,,,,,,,,317.801,318.9843,l,1,0.5315,,[],[],[],[],[],[],[],0.5315,1,318.9843,319.485,,,,,,1179,FEM,CON,150,selva,,a,319.4851,319.4852,0.185185185,0.176851852,0,0,0,,0,104,104,278,1,,,,
,,,,,,0902329151de276b4b6c65c3,66a626ef09d4e21e1a8894ec,6737680adfcb7c91a6d833cf,2024-11-15_09h27.17.795,Tarea de género gramatical,2024.2.2,Win32,243.902439,,,,,,,,,,,,,,,,,,,,,,,319.4863,320.8196,a,1,0.6759,,[],[],[],[],[],[],[],0.6759,1,320.8196,321.32,,,,,,1044,MAS,CON,150,amor,,l,321.321,321.3217,0.185185185,0.176851852,0,0,0,,0,105,105,143,1,,,,
,,,,,,0902329151de276b4b6c65c3,66a626ef09d4e21e1a8894ec,6737680adfcb7c91a6d833cf,2024-11-15_09h27.17.795,Tarea de género gramatical,2024.2.2,Win32,243.902439,,,,,,,,,,,,,,,,,,,,,,,321.3222,322.4086,a,1,0.4306,,[],[],[],[],[],[],[],0.4306,1,322.4087,322.9091,,,,,,995,MAS,AGR,150,tomo,el,l,322.9091,322.9092,0.185185185,0.176851852,0,0,0,,0,106,106,94,1,,,,
,,,,,,0902329151de276b4b6c65c3,66a626ef09d4e21e1a8894ec,6737680adfcb7c91a6d833cf,2024-11-15_09h27.17.795,Tarea de género gramatical,2024.2.2,Win32,243.902439,,,,,,,,,,,,,,,,,,,,,,,322.9101,324.0102,a,1,0.4481,,[],[],[],[],[],[],[],0.4481,1,324.0102,324.5107,,,,,,1344,MAS,CON,150,límite,,l,324.5107,324.5108,0.185185185,0.176851852,0,0,0,,0,107,107,443,1,,,,
,,,,,,0902329151de276b4b6c65c3,66a626ef09d4e21e1a8894ec,6737680adfcb7c91a6d833cf,2024-11-15_09h27.17.795,Tarea de género gramatical,2024.2.2,Win32,243.902439,,,,,,,,,,,,,,,,,,,,,,,324.5116,325.424,a,1,0.2595,,[],[],[],[],[],[],[],0.2595,1,325.4241,325.9246,,,,,,1182,MAS,CON,150,bolso,,l,325.9246,325.9246,0.185185185,0.176851852,0,0,0,,0,108,108,281,1,,,,
,,,,,,0902329151de276b4b6c65c3,66a626ef09d4e21e1a8894ec,6737680adfcb7c91a6d833cf,2024-11-15_09h27.17.795,Tarea de género gramatical,2024.2.2,Win32,243.902439,,,,,,,,,,,,,,,,,,,,,,,325.9256,326.8296,l,1,0.2519,,[],[],[],[],[],[],[],0.2519,1,326.8296,327.3301,,,,,,1215,FEM,CON,150,manera,,a,327.3302,327.3302,0.185185185,0.176851852,0,0,0,,0,109,109,314,1,,,,
,,,,,,0902329151de276b4b6c65c3,66a626ef09d4e21e1a8894ec,6737680adfcb7c91a6d833cf,2024-11-15_09h27.17.795,Tarea de género gramatical,2024.2.2,Win32,243.902439,,,,,,,,,,,,,,,,,,,,,,,327.3312,328.2684,l,1,0.2848,,[],[],[],[],[],[],[],0.2848,1,328.2685,328.769,,,,,,998,FEM,AGR,150,fuga,la,a,328.77,328.7705,0.185185185,0.176851852,0,0,0,,0,110,110,97,1,,,,
,,,,,,0902329151de276b4b6c65c3,66a626ef09d4e21e1a8894ec,6737680adfcb7c91a6d833cf,2024-11-15_09h27.17.795,Tarea de género gramatical,2024.2.2,Win32,243.902439,,,,,,,,,,,,,,,,,,,,,,,328.7711,329.6158,l,1,0.1915,,[],[],[],[],[],[],[],0.1915,1,329.6158,330.1162,,,,,,1070,FEM,AGR,150,carta,la,a,330.1163,330.1163,0.185185185,0.176851852,0,0,0,,0,111,111,169,1,,,,
,,,,,,0902329151de276b4b6c65c3,66a626ef09d4e21e1a8894ec,6737680adfcb7c91a6d833cf,2024-11-15_09h27.17.795,Tarea de género gramatical,2024.2.2,Win32,243.902439,,,,,,,,,,,,,,,,,,,,,,,330.1176,331.0421,a,1,0.2715,,[],[],[],[],[],[],[],0.2715,1,331.0421,331.5425,,,,,,954,MAS,CON,150,humo,,l,331.5426,331.5427,0.185185185,0.176851852,0,0,0,,0,112,112,53,1,,,,
,,,,,,0902329151de276b4b6c65c3,66a626ef09d4e21e1a8894ec,6737680adfcb7c91a6d833cf,2024-11-15_09h27.17.795,Tarea de género gramatical,2024.2.2,Win32,243.902439,,,,,,,,,,,,,,,,,,,,,,,331.5438,332.4101,a,1,0.2136,,[],[],[],[],[],[],[],0.2136,1,332.4102,332.9106,,,,,,1312,MAS,DIS,150,espejo,la,l,332.9106,332.9107,0.185185185,0.176851852,0,0,0,,0,113,113,411,1,,,,
,,,,,,0902329151de276b4b6c65c3,66a626ef09d4e21e1a8894ec,6737680adfcb7c91a6d833cf,2024-11-15_09h27.17.795,Tarea de género gramatical,2024.2.2,Win32,243.902439,,,,,,,,,,,,,,,,,,,,,,,332.9113,333.7237,a,1,0.1579,,[],[],[],[],[],[],[],0.1579,1,333.7237,334.2243,,,,,,1056,MAS,CON,150,amigo,,l,334.2254,334.2259,0.185185185,0.176851852,0,0,0,,0,114,114,155,1,,,,
,,,,,,0902329151de276b4b6c65c3,66a626ef09d4e21e1a8894ec,6737680adfcb7c91a6d833cf,2024-11-15_09h27.17.795,Tarea de género gramatical,2024.2.2,Win32,243.902439,,,,,,,,,,,,,,,,,,,,,,,334.2265,335.0376,a,1,0.1564,,[],[],[],[],[],[],[],0.1564,1,335.0377,335.5382,,,,,,1194,MAS,CON,150,cable,,l,335.5382,335.5382,0.185185185,0.176851852,0,0,0,,0,115,115,293,1,,,,
,,,,,,0902329151de276b4b6c65c3,66a626ef09d4e21e1a8894ec,6737680adfcb7c91a6d833cf,2024-11-15_09h27.17.795,Tarea de género gramatical,2024.2.2,Win32,243.902439,,,,,,,,,,,,,,,,,,,,,,,335.539,336.3932,a,1,0.2012,,[],[],[],[],[],[],[],0.2012,1,336.3933,336.8935,,,,,,1306,MAS,DIS,150,premio,la,l,336.8935,336.8936,0.185185185,0.176851852,0,0,0,,0,116,116,405,1,,,,
,,,,,,0902329151de276b4b6c65c3,66a626ef09d4e21e1a8894ec,6737680adfcb7c91a6d833cf,2024-11-15_09h27.17.795,Tarea de género gramatical,2024.2.2,Win32,243.902439,,,,,,,,,,,,,,,,,,,,,,,336.8943,337.6819,a,1,0.135,,[],[],[],[],[],[],[],0.135,1,337.682,338.1824,,,,,,1012,MAS,DIS,150,reto,la,l,338.1825,338.1826,0.185185185,0.176851852,0,0,0,,0,117,117,111,1,,,,
,,,,,,0902329151de276b4b6c65c3,66a626ef09d4e21e1a8894ec,6737680adfcb7c91a6d833cf,2024-11-15_09h27.17.795,Tarea de género gramatical,2024.2.2,Win32,243.902439,,,,,,,,,,,,,,,,,,,,,,,338.1835,339.0039,a,0,0.1643,,[],[],[],[],[],[],[],0.1643,0,339.0045,339.5044,,,,,,969,FEM,CON,150,rata,,a,339.5044,339.5045,0.185185185,0.176851852,0,0,0,,0,118,118,68,1,,,,
,,,,,,0902329151de276b4b6c65c3,66a626ef09d4e21e1a8894ec,6737680adfcb7c91a6d833cf,2024-11-15_09h27.17.795,Tarea de género gramatical,2024.2.2,Win32,243.902439,,,,,,,,,,,,,,,,,,,,,,,339.5052,340.3387,a,1,0.1812,,[],[],[],[],[],[],[],0.1812,1,340.3391,340.8392,,,,,,922,MAS,DIS,150,pelo,la,l,340.8402,340.8407,0.185185185,0.176851852,0,0,0,,0,119,119,21,1,,,,
,,,,,,0902329151de276b4b6c65c3,66a626ef09d4e21e1a8894ec,6737680adfcb7c91a6d833cf,2024-11-15_09h27.17.795,Tarea de género gramatical,2024.2.2,Win32,243.902439,,,,,,,,,,,,,,,,,,,,,,,340.8412,341.6649,l,1,0.1675,,[],[],[],[],[],[],[],0.1675,1,341.6651,342.1654,,,,,,1316,FEM,AGR,150,colina,la,a,342.1654,342.1654,0.185185185,0.176851852,0,0,0,,0,120,120,415,1,,,,
,,,,,,0902329151de276b4b6c65c3,66a626ef09d4e21e1a8894ec,6737680adfcb7c91a6d833cf,2024-11-15_09h27.17.795,Tarea de género gramatical,2024.2.2,Win32,243.902439,,,,,,,,,,,,,,,,,,,,,,,342.1658,343.0038,a,1,0.1837,,[],[],[],[],[],[],[],0.1837,1,343.0039,343.5043,,,,,,1127,MAS,AGR,150,vuelo,el,l,343.5043,343.5045,0.185185185,0.176851852,0,0,0,,0,121,121,226,1,,,,
,,,,,,0902329151de276b4b6c65c3,66a626ef09d4e21e1a8894ec,6737680adfcb7c91a6d833cf,2024-11-15_09h27.17.795,Tarea de género gramatical,2024.2.2,Win32,243.902439,,,,,,,,,,,,,,,,,,,,,,,343.5052,344.3301,a,0,0.1717,,[],[],[],[],[],[],[],0.1717,0,344.3307,344.8306,,,,,,949,FEM,DIS,150,piel,el,a,344.8306,344.8307,0.185185185,0.176851852,0,0,0,,0,122,122,48,1,,,,
,,,,,,0902329151de276b4b6c65c3,66a626ef09d4e21e1a8894ec,6737680adfcb7c91a6d833cf,2024-11-15_09h27.17.795,Tarea de género gramatical,2024.2.2,Win32,243.902439,,,,,,,,,,,,,,,,,,,,,,,344.8315,346.1449,a,1,0.6623,,[],[],[],[],[],[],[],0.6623,1,346.1455,346.6449,,,,,,1091,MAS,AGR,150,dolor,el,l,346.6456,346.6462,0.185185185,0.176851852,0,0,0,,0,123,123,190,1,,,,
,,,,,,0902329151de276b4b6c65c3,66a626ef09d4e21e1a8894ec,6737680adfcb7c91a6d833cf,2024-11-15_09h27.17.795,Tarea de género gramatical,2024.2.2,Win32,243.902439,,,,,,,,,,,,,,,,,,,,,,,346.6467,347.6375,l,1,0.3357,,[],[],[],[],[],[],[],0.3357,1,347.6376,348.1379,,,,,,1045,FEM,DIS,150,bota,el,a,348.1379,348.138,0.185185185,0.176851852,0,0,0,,0,124,124,144,1,,,,
,,,,,,0902329151de276b4b6c65c3,66a626ef09d4e21e1a8894ec,6737680adfcb7c91a6d833cf,2024-11-15_09h27.17.795,Tarea de género gramatical,2024.2.2,Win32,243.902439,,,,,,,,,,,,,,,,,,,,,,,348.1383,349.0263,a,1,0.2362,,[],[],[],[],[],[],[],0.2362,1,349.0263,349.5267,,,,,,1217,MAS,AGR,150,número,el,l,349.5267,349.5268,0.185185185,0.176851852,0,0,0,,0,125,125,316,1,,,,
,,,,,,0902329151de276b4b6c65c3,66a626ef09d4e21e1a8894ec,6737680adfcb7c91a6d833cf,2024-11-15_09h27.17.795,Tarea de género gramatical,2024.2.2,Win32,243.902439,,,,,,,,,,,,,,,,,,,,,,,349.5273,350.4902,a,1,0.3113,,[],[],[],[],[],[],[],0.3113,1,350.4902,350.9909,,,,,,1067,MAS,AGR,150,juego,el,l,350.9909,350.991,0.185185185,0.176851852,0,0,0,,0,126,126,166,1,,,,
,,,,,,0902329151de276b4b6c65c3,66a626ef09d4e21e1a8894ec,6737680adfcb7c91a6d833cf,2024-11-15_09h27.17.795,Tarea de género gramatical,2024.2.2,Win32,243.902439,,,,,,,,,,,,,,,,,,,,,,,350.9916,351.8667,a,1,0.2225,,[],[],[],[],[],[],[],0.2225,1,351.8667,352.3672,,,,,,948,MAS,CON,150,loco,,l,352.3672,352.3673,0.185185185,0.176851852,0,0,0,,0,127,127,47,1,,,,
,,,,,,0902329151de276b4b6c65c3,66a626ef09d4e21e1a8894ec,6737680adfcb7c91a6d833cf,2024-11-15_09h27.17.795,Tarea de género gramatical,2024.2.2,Win32,243.902439,,,,,,,,,,,,,,,,,,,,,,,352.3683,353.3348,a,1,0.3156,,[],[],[],[],[],[],[],0.3156,1,353.3349,353.8353,,,,,,1258,MAS,DIS,150,motivo,la,l,353.8362,353.8367,0.185185185,0.176851852,0,0,0,,0,128,128,357,1,,,,
,,,,,,0902329151de276b4b6c65c3,66a626ef09d4e21e1a8894ec,6737680adfcb7c91a6d833cf,2024-11-15_09h27.17.795,Tarea de género gramatical,2024.2.2,Win32,243.902439,,,,,,,,,,,,,,,,,,,,,,,353.8372,354.7527,a,1,0.2588,,[],[],[],[],[],[],[],0.2588,1,354.7527,355.2534,,,,,,1265,MAS,AGR,150,código,el,l,355.2534,355.2535,0.185185185,0.176851852,0,0,0,,0,129,129,364,1,,,,
,,,,,,0902329151de276b4b6c65c3,66a626ef09d4e21e1a8894ec,6737680adfcb7c91a6d833cf,2024-11-15_09h27.17.795,Tarea de género gramatical,2024.2.2,Win32,243.902439,,,,,,,,,,,,,,,,,,,,,,,355.2544,356.1459,l,1,0.2385,,[],[],[],[],[],[],[],0.2385,1,356.146,356.6464,,,,,,1027,FEM,DIS,150,cuna,el,a,356.6465,356.6465,0.185185185,0.176851852,0,0,0,,0,130,130,126,1,,,,
,,,,,,0902329151de276b4b6c65c3,66a626ef09d4e21e1a8894ec,6737680adfcb7c91a6d833cf,2024-11-15_09h27.17.795,Tarea de género gramatical,2024.2.2,Win32,243.902439,,,,,,,,,,,,,,,,,,,,,,,356.6473,357.6014,a,1,0.3022,,[],[],[],[],[],[],[],0.3022,1,357.6015,358.102,,,,,,1050,MAS,CON,150,mozo,,l,358.1021,358.1022,0.185185185,0.176851852,0,0,0,,0,131,131,149,1,,,,
,,,,,,0902329151de276b4b6c65c3,66a626ef09d4e21e1a8894ec,6737680adfcb7c91a6d833cf,2024-11-15_09h27.17.795,Tarea de género gramatical,2024.2.2,Win32,243.902439,,,,,,,,,,,,,,,,,,,,,,,358.103,358.9735,a,1,0.2184,,[],[],[],[],[],[],[],0.2184,1,358.9735,359.4742,,,,,,1313,MAS,AGR,150,diario,el,l,359.4753,359.4758,0.185185185,0.176851852,0,0,0,,0,132,132,412,1,,,,
,,,,,,0902329151de276b4b6c65c3,66a626ef09d4e21e1a8894ec,6737680adfcb7c91a6d833cf,2024-11-15_09h27.17.795,Tarea de género gramatical,2024.2.2,Win32,243.902439,,,,,,,,,,,,,,,,,,,,,,,359.4764,360.3208,a,0,0.1879,,[],[],[],[],[],[],[],0.1879,0,360.3213,360.8214,,,,,,956,FEM,AGR,150,bola,la,a,360.8215,360.8216,0.185185185,0.176851852,0,0,0,,0,133,133,55,1,,,,
,,,,,,0902329151de276b4b6c65c3,66a626ef09d4e21e1a8894ec,6737680adfcb7c91a6d833cf,2024-11-15_09h27.17.795,Tarea de género gramatical,2024.2.2,Win32,243.902439,,,,,,,,,,,,,,,,,,,,,,,360.8226,361.8015,l,1,0.3218,,[],[],[],[],[],[],[],0.3218,1,361.8022,362.302,,,,,,920,FEM,AGR,150,ropa,la,a,362.302,362.3021,0.185185185,0.176851852,0,0,0,,0,134,134,19,1,,,,
,,,,,,0902329151de276b4b6c65c3,66a626ef09d4e21e1a8894ec,6737680adfcb7c91a6d833cf,2024-11-15_09h27.17.795,Tarea de género gramatical,2024.2.2,Win32,243.902439,,,,,,,,,,,,,,,,,,,,,,,362.303,363.186,l,1,0.2295,,[],[],[],[],[],[],[],0.2295,1,363.186,363.6867,,,,,,1131,FEM,CON,150,bruja,,a,363.6867,363.6867,0.185185185,0.176851852,0,0,0,,0,135,135,230,1,,,,
,,,,,,0902329151de276b4b6c65c3,66a626ef09d4e21e1a8894ec,6737680adfcb7c91a6d833cf,2024-11-15_09h27.17.795,Tarea de género gramatical,2024.2.2,Win32,243.902439,,,,,,,,,,,,,,,,,,,,,,,363.6877,364.6501,a,1,0.3099,,[],[],[],[],[],[],[],0.3099,1,364.6501,365.1507,,,,,,1289,MAS,AGR,150,tamaño,el,l,365.1507,365.1508,0.185185185,0.176851852,0,0,0,,0,136,136,388,1,,,,
,,,,,,0902329151de276b4b6c65c3,66a626ef09d4e21e1a8894ec,6737680adfcb7c91a6d833cf,2024-11-15_09h27.17.795,Tarea de género gramatical,2024.2.2,Win32,243.902439,,,,,,,,,,,,,,,,,,,,,,,365.1518,366.0472,l,1,0.2385,,[],[],[],[],[],[],[],0.2385,1,366.0472,366.5478,,,,,,1129,FEM,DIS,150,celda,el,a,366.5489,366.5496,0.185185185,0.176851852,0,0,0,,0,137,137,228,1,,,,
,,,,,,0902329151de276b4b6c65c3,66a626ef09d4e21e1a8894ec,6737680adfcb7c91a6d833cf,2024-11-15_09h27.17.795,Tarea de género gramatical,2024.2.2,Win32,243.902439,,,,,,,,,,,,,,,,,,,,,,,366.5502,367.4862,l,1,0.2799,,[],[],[],[],[],[],[],0.2799,1,367.4863,367.9867,,,,,,1065,FEM,CON,150,amiga,,a,367.9868,367.9869,0.185185185,0.176851852,0,0,0,,0,138,138,164,1,,,,
,,,,,,0902329151de276b4b6c65c3,66a626ef09d4e21e1a8894ec,6737680adfcb7c91a6d833cf,2024-11-15_09h27.17.795,Tarea de género gramatical,2024.2.2,Win32,243.902439,,,,,,,,,,,,,,,,,,,,,,,367.9879,368.9043,l,1,0.2625,,[],[],[],[],[],[],[],0.2625,1,368.9044,369.4048,,,,,,1028,FEM,AGR,150,leña,la,a,369.4048,369.405,0.185185185,0.176851852,0,0,0,,0,139,139,127,1,,,,
,,,,,,0902329151de276b4b6c65c3,66a626ef09d4e21e1a8894ec,6737680adfcb7c91a6d833cf,2024-11-15_09h27.17.795,Tarea de género gramatical,2024.2.2,Win32,243.902439,,,,,,,,,,,,,,,,,,,,,,,369.4057,370.3265,l,1,0.2674,,[],[],[],[],[],[],[],0.2674,1,370.3266,370.8271,,,,,,1251,FEM,CON,150,espada,,a,370.8271,370.8272,0.185185185,0.176851852,0,0,0,,0,140,140,350,1,,,,
,,,,,,0902329151de276b4b6c65c3,66a626ef09d4e21e1a8894ec,6737680adfcb7c91a6d833cf,2024-11-15_09h27.17.795,Tarea de género gramatical,2024.2.2,Win32,243.902439,,,,,,,,,,,,,,,,,,,,,,,370.828,371.828,a,1,0.3426,,[],[],[],[],[],[],[],0.3426,1,371.828,372.3285,,,,,,1096,MAS,DIS,150,barco,la,l,372.3294,372.33,0.185185185,0.176851852,0,0,0,,0,141,141,195,1,,,,
,,,,,,0902329151de276b4b6c65c3,66a626ef09d4e21e1a8894ec,6737680adfcb7c91a6d833cf,2024-11-15_09h27.17.795,Tarea de género gramatical,2024.2.2,Win32,243.902439,,,,,,,,,,,,,,,,,,,,,,,372.3305,373.2586,a,1,0.2722,,[],[],[],[],[],[],[],0.2722,1,373.2586,373.759,,,,,,1331,MAS,AGR,150,veneno,el,l,373.759,373.7591,0.185185185,0.176851852,0,0,0,,0,142,142,430,1,,,,
,,,,,,0902329151de276b4b6c65c3,66a626ef09d4e21e1a8894ec,6737680adfcb7c91a6d833cf,2024-11-15_09h27.17.795,Tarea de género gramatical,2024.2.2,Win32,243.902439,,,,,,,,,,,,,,,,,,,,,,,373.7601,374.6683,l,1,0.2553,,[],[],[],[],[],[],[],0.2553,1,374.6683,375.1687,,,,,,1279,FEM,DIS,150,granja,el,a,375.1688,375.1689,0.185185185,0.176851852,0,0,0,,0,143,143,378,1,,,,
,,,,,,0902329151de276b4b6c65c3,66a626ef09d4e21e1a8894ec,6737680adfcb7c91a6d833cf,2024-11-15_09h27.17.795,Tarea de género gramatical,2024.2.2,Win32,243.902439,,,,,,,,,,,,,,,,,,,,,,,375.1698,376.1364,a,1,0.31,,[],[],[],[],[],[],[],0.31,1,376.1365,376.6369,,,,,,935,MAS,AGR,150,taxi,el,l,376.6369,376.6371,0.185185185,0.176851852,0,0,0,,0,144,144,34,1,,,,
,,,,,,0902329151de276b4b6c65c3,66a626ef09d4e21e1a8894ec,6737680adfcb7c91a6d833cf,2024-11-15_09h27.17.795,Tarea de género gramatical,2024.2.2,Win32,243.902439,,,,,,,,,,,,,,,,,,,,,,,376.6379,377.5502,a,0,0.2553,,[],[],[],[],[],[],[],0.2553,0,377.5506,378.0508,,,,,,1051,FEM,DIS,150,noche,el,a,378.0508,378.0509,0.185185185,0.176851852,0,0,0,,0,145,145,150,1,,,,
,,,,,,0902329151de276b4b6c65c3,66a626ef09d4e21e1a8894ec,6737680adfcb7c91a6d833cf,2024-11-15_09h27.17.795,Tarea de género gramatical,2024.2.2,Win32,243.902439,,,,,,,,,,,,,,,,,,,,,,,378.0519,379.0434,l,1,0.334,,[],[],[],[],[],[],[],0.334,1,379.044,379.5439,,,,,,901,FEM,DIS,150,casa,el,a,379.5451,379.5457,0.185185185,0.176851852,0,0,0,,0,146,146,0,1,,,,
,,,,,,0902329151de276b4b6c65c3,66a626ef09d4e21e1a8894ec,6737680adfcb7c91a6d833cf,2024-11-15_09h27.17.795,Tarea de género gramatical,2024.2.2,Win32,243.902439,,,,,,,,,,,,,,,,,,,,,,,379.5464,380.5573,a,0,0.3548,,[],[],[],[],[],[],[],0.3548,0,380.558,381.0579,,,,,,1147,FEM,DIS,150,frase,el,a,381.0579,381.0579,0.185185185,0.176851852,0,0,0,,0,147,147,246,1,,,,
,,,,,,0902329151de276b4b6c65c3,66a626ef09d4e21e1a8894ec,6737680adfcb7c91a6d833cf,2024-11-15_09h27.17.795,Tarea de género gramatical,2024.2.2,Win32,243.902439,,,,,,,,,,,,,,,,,,,,,,,381.0587,382.0087,l,1,0.2986,,[],[],[],[],[],[],[],0.2986,1,382.0089,382.5093,,,,,,1124,FEM,AGR,150,arena,la,a,382.5093,382.5094,0.185185185,0.176851852,0,0,0,,0,148,148,223,1,,,,
,,,,,,0902329151de276b4b6c65c3,66a626ef09d4e21e1a8894ec,6737680adfcb7c91a6d833cf,2024-11-15_09h27.17.795,Tarea de género gramatical,2024.2.2,Win32,243.902439,,,,,,,,,,,,,,,,,,,,,,,382.5106,383.4394,a,1,0.2758,,[],[],[],[],[],[],[],0.2758,1,383.4394,383.9399,,,,,,1019,MAS,AGR,150,mito,el,l,383.9399,383.94,0.185185185,0.176851852,0,0,0,,0,149,149,118,1,,,,
,,,,,,0902329151de276b4b6c65c3,66a626ef09d4e21e1a8894ec,6737680adfcb7c91a6d833cf,2024-11-15_09h27.17.795,Tarea de género gramatical,2024.2.2,Win32,243.902439,,,,,,,,,,,,,,,,,,,,,,,383.9407,384.9367,a,1,0.3427,,[],[],[],[],[],[],[],0.3427,1,384.9368,385.4372,,,,,,1236,MAS,CON,150,crimen,,l,385.4382,433.8221,0.077777778,-0.405555556,0,0,0,space,0,150,150,335,1,48.3785,,,
,,,,,,0902329151de276b4b6c65c3,66a626ef09d4e21e1a8894ec,6737680adfcb7c91a6d833cf,2024-11-15_09h27.17.795,Tarea de género gramatical,2024.2.2,Win32,243.902439,,,,,,,,,,,,,,,,,,,,,,,433.8225,435.2361,a,1,0.7606,,[],[],[],[],[],[],[],0.7606,1,435.2362,435.7365,,,,,,1073,MAS,AGR,150,libro,el,l,435.7365,435.7366,0.077777778,-0.405555556,0,0,0,,0,151,151,172,1,,,,
,,,,,,0902329151de276b4b6c65c3,66a626ef09d4e21e1a8894ec,6737680adfcb7c91a6d833cf,2024-11-15_09h27.17.795,Tarea de género gramatical,2024.2.2,Win32,243.902439,,,,,,,,,,,,,,,,,,,,,,,435.7374,436.8293,a,1,0.4403,,[],[],[],[],[],[],[],0.4403,1,436.8294,437.3298,,,,,,1115,MAS,AGR,150,hueso,el,l,437.3298,437.3299,0.077777778,-0.405555556,0,0,0,,0,152,152,214,1,,,,
,,,,,,0902329151de276b4b6c65c3,66a626ef09d4e21e1a8894ec,6737680adfcb7c91a6d833cf,2024-11-15_09h27.17.795,Tarea de género gramatical,2024.2.2,Win32,243.902439,,,,,,,,,,,,,,,,,,,,,,,437.3307,438.3349,l,1,0.3481,,[],[],[],[],[],[],[],0.3481,1,438.3349,438.8352,,,,,,1185,FEM,CON,150,mafia,,a,438.8352,438.8353,0.077777778,-0.405555556,0,0,0,,0,153,153,284,1,,,,
,,,,,,0902329151de276b4b6c65c3,66a626ef09d4e21e1a8894ec,6737680adfcb7c91a6d833cf,2024-11-15_09h27.17.795,Tarea de género gramatical,2024.2.2,Win32,243.902439,,,,,,,,,,,,,,,,,,,,,,,438.8357,439.7614,l,1,0.2718,,[],[],[],[],[],[],[],0.2718,1,439.7615,440.2617,,,,,,932,FEM,AGR,150,caja,la,a,440.2618,440.2618,0.077777778,-0.405555556,0,0,0,,0,154,154,31,1,,,,
,,,,,,0902329151de276b4b6c65c3,66a626ef09d4e21e1a8894ec,6737680adfcb7c91a6d833cf,2024-11-15_09h27.17.795,Tarea de género gramatical,2024.2.2,Win32,243.902439,,,,,,,,,,,,,,,,,,,,,,,440.262,441.463,a,1,0.5472,,[],[],[],[],[],[],[],0.5472,1,441.4631,441.9636,,,,,,1102,MAS,DIS,150,honor,la,l,441.9645,441.9653,0.077777778,-0.405555556,0,0,0,,0,155,155,201,1,,,,
,,,,,,0902329151de276b4b6c65c3,66a626ef09d4e21e1a8894ec,6737680adfcb7c91a6d833cf,2024-11-15_09h27.17.795,Tarea de género gramatical,2024.2.2,Win32,243.902439,,,,,,,,,,,,,,,,,,,,,,,441.9658,443.048,l,1,0.4269,,[],[],[],[],[],[],[],0.4269,1,443.048,443.5484,,,,,,1298,FEM,AGR,150,hierba,la,a,443.5485,443.5485,0.077777778,-0.405555556,0,0,0,,0,156,156,397,1,,,,
,,,,,,0902329151de276b4b6c65c3,66a626ef09d4e21e1a8894ec,6737680adfcb7c91a6d833cf,2024-11-15_09h27.17.795,Tarea de género gramatical,2024.2.2,Win32,243.902439,,,,,,,,,,,,,,,,,,,,,,,443.5494,445.1667,a,1,0.9669,,[],[],[],[],[],[],[],0.9669,1,445.1667,445.6673,,,,,,964,MAS,DIS,150,saco,la,l,445.6674,445.6674,0.077777778,-0.405555556,0,0,0,,0,157,157,63,1,,,,
,,,,,,0902329151de276b4b6c65c3,66a626ef09d4e21e1a8894ec,6737680adfcb7c91a6d833cf,2024-11-15_09h27.17.795,Tarea de género gramatical,2024.2.2,Win32,243.902439,,,,,,,,,,,,,,,,,,,,,,,445.6684,446.6599,l,1,0.3404,,[],[],[],[],[],[],[],0.3404,1,446.66,447.1603,,,,,,1250,FEM,AGR,150,imagen,la,a,447.1603,447.1604,0.077777778,-0.405555556,0,0,0,,0,158,158,349,1,,,,
,,,,,,0902329151de276b4b6c65c3,66a626ef09d4e21e1a8894ec,6737680adfcb7c91a6d833cf,2024-11-15_09h27.17.795,Tarea de género gramatical,2024.2.2,Win32,243.902439,,,,,,,,,,,,,,,,,,,,,,,447.1612,448.1989,l,0,0.3863,,[],[],[],[],[],[],[],0.3863,0,448.1994,448.6992,,,,,,1320,MAS,CON,150,helado,,l,448.7,448.7004,0.077777778,-0.405555556,0,0,0,,0,159,159,419,1,,,,
,,,,,,0902329151de276b4b6c65c3,66a626ef09d4e21e1a8894ec,6737680adfcb7c91a6d833cf,2024-11-15_09h27.17.795,Tarea de género gramatical,2024.2.2,Win32,243.902439,,,,,,,,,,,,,,,,,,,,,,,448.7008,449.6878,l,0,0.3301,,[],[],[],[],[],[],[],0.3301,0,449.6878,450.1883,,,,,,1139,MAS,AGR,150,reloj,el,l,450.1883,450.1884,0.077777778,-0.405555556,0,0,0,,0,160,160,238,1,,,,
,,,,,,0902329151de276b4b6c65c3,66a626ef09d4e21e1a8894ec,6737680adfcb7c91a6d833cf,2024-11-15_09h27.17.795,Tarea de género gramatical,2024.2.2,Win32,243.902439,,,,,,,,,,,,,,,,,,,,,,,450.1893,451.6606,a,1,0.8189,,[],[],[],[],[],[],[],0.8189,1,451.6612,452.161,,,,,,1301,MAS,AGR,150,abrigo,el,l,452.1611,452.1611,0.077777778,-0.405555556,0,0,0,,0,161,161,400,1,,,,
,,,,,,0902329151de276b4b6c65c3,66a626ef09d4e21e1a8894ec,6737680adfcb7c91a6d833cf,2024-11-15_09h27.17.795,Tarea de género gramatical,2024.2.2,Win32,243.902439,,,,,,,,,,,,,,,,,,,,,,,452.162,453.1705,l,1,0.3565,,[],[],[],[],[],[],[],0.3565,1,453.1705,453.6709,,,,,,1333,FEM,DIS,150,huella,el,a,453.671,453.671,0.077777778,-0.405555556,0,0,0,,0,162,162,432,1,,,,
,,,,,,0902329151de276b4b6c65c3,66a626ef09d4e21e1a8894ec,6737680adfcb7c91a6d833cf,2024-11-15_09h27.17.795,Tarea de género gramatical,2024.2.2,Win32,243.902439,,,,,,,,,,,,,,,,,,,,,,,453.6721,454.9803,a,1,0.6544,,[],[],[],[],[],[],[],0.6544,1,454.9804,455.4809,,,,,,1283,MAS,AGR,150,parque,el,l,455.4809,455.481,0.077777778,-0.405555556,0,0,0,,0,163,163,382,1,,,,
,,,,,,0902329151de276b4b6c65c3,66a626ef09d4e21e1a8894ec,6737680adfcb7c91a6d833cf,2024-11-15_09h27.17.795,Tarea de género gramatical,2024.2.2,Win32,243.902439,,,,,,,,,,,,,,,,,,,,,,,455.4818,456.5028,l,1,0.3681,,[],[],[],[],[],[],[],0.3681,1,456.5029,457.0032,,,,,,1297,FEM,DIS,150,cuerda,el,a,457.0041,457.0043,0.077777778,-0.405555556,0,0,0,,0,164,164,396,1,,,,
,,,,,,0902329151de276b4b6c65c3,66a626ef09d4e21e1a8894ec,6737680adfcb7c91a6d833cf,2024-11-15_09h27.17.795,Tarea de género gramatical,2024.2.2,Win32,243.902439,,,,,,,,,,,,,,,,,,,,,,,457.0046,458.1711,a,1,0.511,,[],[],[],[],[],[],[],0.511,1,458.1712,458.6716,,,,,,1204,MAS,DIS,150,tiempo,la,l,458.6716,458.6717,0.077777778,-0.405555556,0,0,0,,0,165,165,303,1,,,,
,,,,,,0902329151de276b4b6c65c3,66a626ef09d4e21e1a8894ec,6737680adfcb7c91a6d833cf,2024-11-15_09h27.17.795,Tarea de género gramatical,2024.2.2,Win32,243.902439,,,,,,,,,,,,,,,,,,,,,,,458.6724,459.7267,l,1,0.4013,,[],[],[],[],[],[],[],0.4013,1,459.7268,460.2271,,,,,,1148,FEM,AGR,150,letra,la,a,460.2271,460.2272,0.077777778,-0.405555556,0,0,0,,0,166,166,247,1,,,,
,,,,,,0902329151de276b4b6c65c3,66a626ef09d4e21e1a8894ec,6737680adfcb7c91a6d833cf,2024-11-15_09h27.17.795,Tarea de género gramatical,2024.2.2,Win32,243.902439,,,,,,,,,,,,,,,,,,,,,,,460.2275,461.5869,a,0,0.7084,,[],[],[],[],[],[],[],0.7084,0,461.5874,462.0874,,,,,,1101,FEM,CON,150,leche,,a,462.0875,462.0875,0.077777778,-0.405555556,0,0,0,,0,167,167,200,1,,,,
,,,,,,0902329151de276b4b6c65c3,66a626ef09d4e21e1a8894ec,6737680adfcb7c91a6d833cf,2024-11-15_09h27.17.795,Tarea de género gramatical,2024.2.2,Win32,243.902439,,,,,,,,,,,,,,,,,,,,,,,462.0883,463.2219,a,0,0.4812,,[],[],[],[],[],[],[],0.4812,0,463.222,463.7224,,,,,,1304,FEM,AGR,150,gloria,la,a,463.7232,463.7237,0.077777778,-0.405555556,0,0,0,,0,168,168,403,1,,,,
,,,,,,0902329151de276b4b6c65c3,66a626ef09d4e21e1a8894ec,6737680adfcb7c91a6d833cf,2024-11-15_09h27.17.795,Tarea de género gramatical,2024.2.2,Win32,243.902439,,,,,,,,,,,,,,,,,,,,,,,463.7243,465.0321,l,1,0.653,,[],[],[],[],[],[],[],0.653,1,465.0327,465.5323,,,,,,1004,FEM,AGR,150,vela,la,a,465.5324,465.5324,0.077777778,-0.405555556,0,0,0,,0,169,169,103,1,,,,
,,,,,,0902329151de276b4b6c65c3,66a626ef09d4e21e1a8894ec,6737680adfcb7c91a6d833cf,2024-11-15_09h27.17.795,Tarea de género gramatical,2024.2.2,Win32,243.902439,,,,,,,,,,,,,,,,,,,,,,,465.5326,466.5167,l,1,0.33,,[],[],[],[],[],[],[],0.33,1,466.5168,467.0172,,,,,,1321,FEM,DIS,150,novela,el,a,467.0172,467.0172,0.077777778,-0.405555556,0,0,0,,0,170,170,420,1,,,,
,,,,,,0902329151de276b4b6c65c3,66a626ef09d4e21e1a8894ec,6737680adfcb7c91a6d833cf,2024-11-15_09h27.17.795,Tarea de género gramatical,2024.2.2,Win32,243.902439,,,,,,,,,,,,,,,,,,,,,,,467.0178,467.9432,l,1,0.2718,,[],[],[],[],[],[],[],0.2718,1,467.9433,468.4437,,,,,,1226,FEM,AGR,150,música,la,a,468.4437,468.4438,0.077777778,-0.405555556,0,0,0,,0,171,171,325,1,,,,
,,,,,,0902329151de276b4b6c65c3,66a626ef09d4e21e1a8894ec,6737680adfcb7c91a6d833cf,2024-11-15_09h27.17.795,Tarea de género gramatical,2024.2.2,Win32,243.902439,,,,,,,,,,,,,,,,,,,,,,,468.4444,469.7784,l,1,0.6824,,[],[],[],[],[],[],[],0.6824,1,469.7786,470.2788,,,,,,1111,FEM,DIS,150,salud,el,a,470.2788,470.279,0.077777778,-0.405555556,0,0,0,,0,172,172,210,1,,,,
,,,,,,0902329151de276b4b6c65c3,66a626ef09d4e21e1a8894ec,6737680adfcb7c91a6d833cf,2024-11-15_09h27.17.795,Tarea de género gramatical,2024.2.2,Win32,243.902439,,,,,,,,,,,,,,,,,,,,,,,470.2798,471.3633,a,1,0.4311,,[],[],[],[],[],[],[],0.4311,1,471.3633,471.8636,,,,,,1307,MAS,AGR,150,jurado,el,l,471.8639,471.8642,0.077777778,-0.405555556,0,0,0,,0,173,173,406,1,,,,
,,,,,,0902329151de276b4b6c65c3,66a626ef09d4e21e1a8894ec,6737680adfcb7c91a6d833cf,2024-11-15_09h27.17.795,Tarea de género gramatical,2024.2.2,Win32,243.902439,,,,,,,,,,,,,,,,,,,,,,,471.8644,473.0315,l,1,0.5113,,[],[],[],[],[],[],[],0.5113,1,473.0316,473.532,,,,,,1263,FEM,CON,150,unidad,,a,473.532,473.5321,0.077777778,-0.405555556,0,0,0,,0,174,174,362,1,,,,
,,,,,,0902329151de276b4b6c65c3,66a626ef09d4e21e1a8894ec,6737680adfcb7c91a6d833cf,2024-11-15_09h27.17.795,Tarea de género gramatical,2024.2.2,Win32,243.902439,,,,,,,,,,,,,,,,,,,,,,,473.5327,474.7499,l,1,0.5648,,[],[],[],[],[],[],[],0.5648,1,474.7499,475.2503,,,,,,1119,FEM,CON,150,costa,,a,475.2504,475.2505,0.077777778,-0.405555556,0,0,0,,0,175,175,218,1,,,,
,,,,,,0902329151de276b4b6c65c3,66a626ef09d4e21e1a8894ec,6737680adfcb7c91a6d833cf,2024-11-15_09h27.17.795,Tarea de género gramatical,2024.2.2,Win32,243.902439,,,,,,,,,,,,,,,,,,,,,,,475.2512,476.2806,l,1,0.3758,,[],[],[],[],[],[],[],0.3758,1,476.2806,476.781,,,,,,902,FEM,AGR,150,vida,la,a,476.7811,476.7812,0.077777778,-0.405555556,0,0,0,,0,176,176,1,1,,,,
,,,,,,0902329151de276b4b6c65c3,66a626ef09d4e21e1a8894ec,6737680adfcb7c91a6d833cf,2024-11-15_09h27.17.795,Tarea de género gramatical,2024.2.2,Win32,243.902439,,,,,,,,,,,,,,,,,,,,,,,476.7819,477.8571,a,1,0.4212,,[],[],[],[],[],[],[],0.4212,1,477.8571,478.3575,,,,,,936,MAS,CON,150,dedo,,l,478.3586,478.3592,0.077777778,-0.405555556,0,0,0,,0,177,177,35,1,,,,
,,,,,,0902329151de276b4b6c65c3,66a626ef09d4e21e1a8894ec,6737680adfcb7c91a6d833cf,2024-11-15_09h27.17.795,Tarea de género gramatical,2024.2.2,Win32,243.902439,,,,,,,,,,,,,,,,,,,,,,,478.3596,479.542,a,1,0.5259,,[],[],[],[],[],[],[],0.5259,1,479.5422,480.0426,,,,,,1025,MAS,AGR,150,bate,el,l,480.0426,480.0427,0.077777778,-0.405555556,0,0,0,,0,178,178,124,1,,,,
,,,,,,0902329151de276b4b6c65c3,66a626ef09d4e21e1a8894ec,6737680adfcb7c91a6d833cf,2024-11-15_09h27.17.795,Tarea de género gramatical,2024.2.2,Win32,243.902439,,,,,,,,,,,,,,,,,,,,,,,480.0435,480.9601,a,1,0.2638,,[],[],[],[],[],[],[],0.2638,1,480.9602,481.4606,,,,,,1038,MAS,CON,150,luto,,l,481.4607,481.4607,0.077777778,-0.405555556,0,0,0,,0,179,179,137,1,,,,
,,,,,,0902329151de276b4b6c65c3,66a626ef09d4e21e1a8894ec,6737680adfcb7c91a6d833cf,2024-11-15_09h27.17.795,Tarea de género gramatical,2024.2.2,Win32,243.902439,,,,,,,,,,,,,,,,,,,,,,,481.4616,482.3949,a,1,0.2803,,[],[],[],[],[],[],[],0.2803,1,482.395,482.8954,,,,,,918,MAS,CON,150,tren,,l,482.8954,482.8955,0.077777778,-0.405555556,0,0,0,,0,180,180,17,1,,,,
,,,,,,0902329151de276b4b6c65c3,66a626ef09d4e21e1a8894ec,6737680adfcb7c91a6d833cf,2024-11-15_09h27.17.795,Tarea de género gramatical,2024.2.2,Win32,243.902439,,,,,,,,,,,,,,,,,,,,,,,482.8965,483.913,a,1,0.3644,,[],[],[],[],[],[],[],0.3644,1,483.9131,484.4135,,,,,,1103,MAS,AGR,150,novio,el,l,484.4136,484.4136,0.077777778,-0.405555556,0,0,0,,0,181,181,202,1,,,,
,,,,,,0902329151de276b4b6c65c3,66a626ef09d4e21e1a8894ec,6737680adfcb7c91a6d833cf,2024-11-15_09h27.17.795,Tarea de género gramatical,2024.2.2,Win32,243.902439,,,,,,,,,,,,,,,,,,,,,,,484.4144,485.5647,a,0,0.4981,,[],[],[],[],[],[],[],0.4981,0,485.5655,486.0652,,,,,,1095,FEM,CON,150,pared,,a,486.066,486.0666,0.077777778,-0.405555556,0,0,0,,0,182,182,194,1,,,,
,,,,,,0902329151de276b4b6c65c3,66a626ef09d4e21e1a8894ec,6737680adfcb7c91a6d833cf,2024-11-15_09h27.17.795,Tarea de género gramatical,2024.2.2,Win32,243.902439,,,,,,,,,,,,,,,,,,,,,,,486.067,487.0702,a,1,0.3466,,[],[],[],[],[],[],[],0.3466,1,487.0709,487.5709,,,,,,1086,MAS,CON,150,error,,l,487.5709,487.571,0.077777778,-0.405555556,0,0,0,,0,183,183,185,1,,,,
,,,,,,0902329151de276b4b6c65c3,66a626ef09d4e21e1a8894ec,6737680adfcb7c91a6d833cf,2024-11-15_09h27.17.795,Tarea de género gramatical,2024.2.2,Win32,243.902439,,,,,,,,,,,,,,,,,,,,,,,487.5718,488.726,a,1,0.5015,,[],[],[],[],[],[],[],0.5015,1,488.726,489.2266,,,,,,1246,MAS,DIS,150,juicio,la,l,489.2268,489.2268,0.077777778,-0.405555556,0,0,0,,0,184,184,345,1,,,,
,,,,,,0902329151de276b4b6c65c3,66a626ef09d4e21e1a8894ec,6737680adfcb7c91a6d833cf,2024-11-15_09h27.17.795,Tarea de género gramatical,2024.2.2,Win32,243.902439,,,,,,,,,,,,,,,,,,,,,,,489.2279,490.2775,a,1,0.3928,,[],[],[],[],[],[],[],0.3928,1,490.2776,490.778,,,,,,1157,MAS,AGR,150,pecho,el,l,490.778,490.778,0.077777778,-0.405555556,0,0,0,,0,185,185,256,1,,,,
,,,,,,0902329151de276b4b6c65c3,66a626ef09d4e21e1a8894ec,6737680adfcb7c91a6d833cf,2024-11-15_09h27.17.795,Tarea de género gramatical,2024.2.2,Win32,243.902439,,,,,,,,,,,,,,,,,,,,,,,490.7784,491.75,l,1,0.3179,,[],[],[],[],[],[],[],0.3179,1,491.75,492.2505,,,,,,1040,FEM,AGR,150,mula,la,a,492.2515,492.2522,0.077777778,-0.405555556,0,0,0,,0,186,186,139,1,,,,
,,,,,,0902329151de276b4b6c65c3,66a626ef09d4e21e1a8894ec,6737680adfcb7c91a6d833cf,2024-11-15_09h27.17.795,Tarea de género gramatical,2024.2.2,Win32,243.902439,,,,,,,,,,,,,,,,,,,,,,,492.2526,493.5016,a,0,0.594,,[],[],[],[],[],[],[],0.594,0,493.502,494.0022,,,,,,1165,FEM,DIS,150,rueda,el,a,494.0022,494.0022,0.077777778,-0.405555556,0,0,0,,0,187,187,264,1,,,,
,,,,,,0902329151de276b4b6c65c3,66a626ef09d4e21e1a8894ec,6737680adfcb7c91a6d833cf,2024-11-15_09h27.17.795,Tarea de género gramatical,2024.2.2,Win32,243.902439,,,,,,,,,,,,,,,,,,,,,,,494.003,495.12,l,0,0.4627,,[],[],[],[],[],[],[],0.4627,0,495.12,495.6204,,,,,,1349,MAS,AGR,150,payaso,el,l,495.6205,495.6206,0.077777778,-0.405555556,0,0,0,,0,188,188,448,1,,,,
,,,,,,0902329151de276b4b6c65c3,66a626ef09d4e21e1a8894ec,6737680adfcb7c91a6d833cf,2024-11-15_09h27.17.795,Tarea de género gramatical,2024.2.2,Win32,243.902439,,,,,,,,,,,,,,,,,,,,,,,495.6216,497.1637,a,1,0.8877,,[],[],[],[],[],[],[],0.8877,1,497.1642,497.6641,,,,,,1348,MAS,DIS,150,aceite,la,l,497.6642,497.6642,0.077777778,-0.405555556,0,0,0,,0,189,189,447,1,,,,
,,,,,,0902329151de276b4b6c65c3,66a626ef09d4e21e1a8894ec,6737680adfcb7c91a6d833cf,2024-11-15_09h27.17.795,Tarea de género gramatical,2024.2.2,Win32,243.902439,,,,,,,,,,,,,,,,,,,,,,,497.6652,498.6442,a,1,0.3275,,[],[],[],[],[],[],[],0.3275,1,498.6442,499.1446,,,,,,1343,MAS,AGR,150,templo,el,l,499.1447,499.1447,0.077777778,-0.405555556,0,0,0,,0,190,190,442,1,,,,
,,,,,,0902329151de276b4b6c65c3,66a626ef09d4e21e1a8894ec,6737680adfcb7c91a6d833cf,2024-11-15_09h27.17.795,Tarea de género gramatical,2024.2.2,Win32,243.902439,,,,,,,,,,,,,,,,,,,,,,,499.1455,500.0915,l,1,0.2932,,[],[],[],[],[],[],[],0.2932,1,500.0916,500.5919,,,,,,1269,FEM,CON,150,camisa,,a,500.5926,500.5931,0.077777778,-0.405555556,0,0,0,,0,191,191,368,1,,,,
,,,,,,0902329151de276b4b6c65c3,66a626ef09d4e21e1a8894ec,6737680adfcb7c91a6d833cf,2024-11-15_09h27.17.795,Tarea de género gramatical,2024.2.2,Win32,243.902439,,,,,,,,,,,,,,,,,,,,,,,500.5936,501.5345,l,1,0.2849,,[],[],[],[],[],[],[],0.2849,1,501.5346,502.035,,,,,,1034,FEM,AGR,150,rama,la,a,502.035,502.0351,0.077777778,-0.405555556,0,0,0,,0,192,192,133,1,,,,
,,,,,,0902329151de276b4b6c65c3,66a626ef09d4e21e1a8894ec,6737680adfcb7c91a6d833cf,2024-11-15_09h27.17.795,Tarea de género gramatical,2024.2.2,Win32,243.902439,,,,,,,,,,,,,,,,,,,,,,,502.0357,503.0234,l,1,0.3355,,[],[],[],[],[],[],[],0.3355,1,503.0235,503.5239,,,,,,1203,FEM,CON,150,maldad,,a,503.5239,503.524,0.077777778,-0.405555556,0,0,0,,0,193,193,302,1,,,,
,,,,,,0902329151de276b4b6c65c3,66a626ef09d4e21e1a8894ec,6737680adfcb7c91a6d833cf,2024-11-15_09h27.17.795,Tarea de género gramatical,2024.2.2,Win32,243.902439,,,,,,,,,,,,,,,,,,,,,,,503.525,504.5667,a,1,0.3888,,[],[],[],[],[],[],[],0.3888,1,504.5668,505.0672,,,,,,965,MAS,AGR,150,rayo,el,l,505.0672,505.0672,0.077777778,-0.405555556,0,0,0,,0,194,194,64,1,,,,
,,,,,,0902329151de276b4b6c65c3,66a626ef09d4e21e1a8894ec,6737680adfcb7c91a6d833cf,2024-11-15_09h27.17.795,Tarea de género gramatical,2024.2.2,Win32,243.902439,,,,,,,,,,,,,,,,,,,,,,,505.068,506.2183,a,1,0.497,,[],[],[],[],[],[],[],0.497,1,506.2184,506.7188,,,,,,1228,MAS,DIS,150,asunto,la,l,506.7197,506.7201,0.077777778,-0.405555556,0,0,0,,0,195,195,327,1,,,,
,,,,,,0902329151de276b4b6c65c3,66a626ef09d4e21e1a8894ec,6737680adfcb7c91a6d833cf,2024-11-15_09h27.17.795,Tarea de género gramatical,2024.2.2,Win32,243.902439,,,,,,,,,,,,,,,,,,,,,,,506.7207,507.7281,l,1,0.3506,,[],[],[],[],[],[],[],0.3506,1,507.7282,508.2286,,,,,,903,FEM,CON,150,cosa,,a,508.2286,508.2287,0.077777778,-0.405555556,0,0,0,,0,196,196,2,1,,,,
,,,,,,0902329151de276b4b6c65c3,66a626ef09d4e21e1a8894ec,6737680adfcb7c91a6d833cf,2024-11-15_09h27.17.795,Tarea de género gramatical,2024.2.2,Win32,243.902439,,,,,,,,,,,,,,,,,,,,,,,508.2295,509.167,l,1,0.2854,,[],[],[],[],[],[],[],0.2854,1,509.167,509.6675,,,,,,1149,FEM,CON,150,crema,,a,509.6675,509.6676,0.077777778,-0.405555556,0,0,0,,0,197,197,248,1,,,,
,,,,,,0902329151de276b4b6c65c3,66a626ef09d4e21e1a8894ec,6737680adfcb7c91a6d833cf,2024-11-15_09h27.17.795,Tarea de género gramatical,2024.2.2,Win32,243.902439,,,,,,,,,,,,,,,,,,,,,,,509.6682,510.6519,a,1,0.3307,,[],[],[],[],[],[],[],0.3307,1,510.652,511.1523,,,,,,1290,MAS,CON,150,rostro,,l,511.1523,511.1524,0.077777778,-0.405555556,0,0,0,,0,198,198,389,1,,,,
,,,,,,0902329151de276b4b6c65c3,66a626ef09d4e21e1a8894ec,6737680adfcb7c91a6d833cf,2024-11-15_09h27.17.795,Tarea de género gramatical,2024.2.2,Win32,243.902439,,,,,,,,,,,,,,,,,,,,,,,511.1532,512.2784,l,1,0.4719,,[],[],[],[],[],[],[],0.4719,1,512.2785,512.7789,,,,,,1334,FEM,AGR,150,corona,la,a,512.7789,512.7791,0.077777778,-0.405555556,0,0,0,,0,199,199,433,1,,,,
,,,,,,0902329151de276b4b6c65c3,66a626ef09d4e21e1a8894ec,6737680adfcb7c91a6d833cf,2024-11-15_09h27.17.795,Tarea de género gramatical,2024.2.2,Win32,243.902439,,,,,,,,,,,,,,,,,,,,,,,512.7799,513.8008,a,1,0.37,,[],[],[],[],[],[],[],0.37,1,513.801,514.3013,,,,,,966,MAS,CON,150,muro,,l,514.3024,514.303,0.077777778,-0.405555556,0,0,0,,0,200,200,65,1,,,,
,,,,,,0902329151de276b4b6c65c3,66a626ef09d4e21e1a8894ec,6737680adfcb7c91a6d833cf,2024-11-15_09h27.17.795,Tarea de género gramatical,2024.2.2,Win32,243.902439,,,,,,,,,,,,,,,,,,,,,,,514.3035,515.3439,l,1,0.3842,,[],[],[],[],[],[],[],0.3842,1,515.3439,515.8444,,,,,,957,FEM,CON,150,moda,,a,515.8445,515.8446,0.077777778,-0.405555556,0,0,0,,0,201,201,56,1,,,,
,,,,,,0902329151de276b4b6c65c3,66a626ef09d4e21e1a8894ec,6737680adfcb7c91a6d833cf,2024-11-15_09h27.17.795,Tarea de género gramatical,2024.2.2,Win32,243.902439,,,,,,,,,,,,,,,,,,,,,,,515.8455,517.0748,a,1,0.5719,,[],[],[],[],[],[],[],0.5719,1,517.0749,517.5752,,,,,,1132,MAS,DIS,150,calor,la,l,517.5753,517.5754,0.077777778,-0.405555556,0,0,0,,0,202,202,231,1,,,,
,,,,,,0902329151de276b4b6c65c3,66a626ef09d4e21e1a8894ec,6737680adfcb7c91a6d833cf,2024-11-15_09h27.17.795,Tarea de género gramatical,2024.2.2,Win32,243.902439,,,,,,,,,,,,,,,,,,,,,,,517.5762,518.7472,a,1,0.5191,,[],[],[],[],[],[],[],0.5191,1,518.7473,519.2478,,,,,,1252,MAS,DIS,150,estilo,la,l,519.2478,519.2478,0.077777778,-0.405555556,0,0,0,,0,203,203,351,1,,,,
,,,,,,0902329151de276b4b6c65c3,66a626ef09d4e21e1a8894ec,6737680adfcb7c91a6d833cf,2024-11-15_09h27.17.795,Tarea de género gramatical,2024.2.2,Win32,243.902439,,,,,,,,,,,,,,,,,,,,,,,519.2489,520.4573,a,1,0.5548,,[],[],[],[],[],[],[],0.5548,1,520.4573,520.9578,,,,,,1108,MAS,DIS,150,suelo,la,l,520.9585,520.9589,0.077777778,-0.405555556,0,0,0,,0,204,204,207,1,,,,
,,,,,,0902329151de276b4b6c65c3,66a626ef09d4e21e1a8894ec,6737680adfcb7c91a6d833cf,2024-11-15_09h27.17.795,Tarea de género gramatical,2024.2.2,Win32,243.902439,,,,,,,,,,,,,,,,,,,,,,,520.9594,522.0923,l,1,0.4773,,[],[],[],[],[],[],[],0.4773,1,522.0923,522.5927,,,,,,1238,FEM,AGR,150,abuela,la,a,522.5927,522.5927,0.077777778,-0.405555556,0,0,0,,0,205,205,337,1,,,,
,,,,,,0902329151de276b4b6c65c3,66a626ef09d4e21e1a8894ec,6737680adfcb7c91a6d833cf,2024-11-15_09h27.17.795,Tarea de género gramatical,2024.2.2,Win32,243.902439,,,,,,,,,,,,,,,,,,,,,,,522.5936,523.5268,l,1,0.2819,,[],[],[],[],[],[],[],0.2819,1,523.5269,524.0274,,,,,,1088,FEM,AGR,150,bomba,la,a,524.0274,524.0275,0.077777778,-0.405555556,0,0,0,,0,206,206,187,1,,,,
,,,,,,0902329151de276b4b6c65c3,66a626ef09d4e21e1a8894ec,6737680adfcb7c91a6d833cf,2024-11-15_09h27.17.795,Tarea de género gramatical,2024.2.2,Win32,243.902439,,,,,,,,,,,,,,,,,,,,,,,524.0282,525.0951,a,1,0.4144,,[],[],[],[],[],[],[],0.4144,1,525.0952,525.5956,,,,,,1326,MAS,CON,150,pánico,,l,525.5956,525.5957,0.077777778,-0.405555556,0,0,0,,0,207,207,425,1,,,,
,,,,,,0902329151de276b4b6c65c3,66a626ef09d4e21e1a8894ec,6737680adfcb7c91a6d833cf,2024-11-15_09h27.17.795,Tarea de género gramatical,2024.2.2,Win32,243.902439,,,,,,,,,,,,,,,,,,,,,,,525.5965,526.534,l,1,0.2848,,[],[],[],[],[],[],[],0.2848,1,526.534,527.0345,,,,,,1167,FEM,CON,150,barba,,a,527.0346,527.0346,0.077777778,-0.405555556,0,0,0,,0,208,208,266,1,,,,
,,,,,,0902329151de276b4b6c65c3,66a626ef09d4e21e1a8894ec,6737680adfcb7c91a6d833cf,2024-11-15_09h27.17.795,Tarea de género gramatical,2024.2.2,Win32,243.902439,,,,,,,,,,,,,,,,,,,,,,,527.0354,527.9313,l,1,0.2422,,[],[],[],[],[],[],[],0.2422,1,527.9313,528.4318,,,,,,1197,FEM,CON,150,manta,,a,528.4327,528.4332,0.077777778,-0.405555556,0,0,0,,0,209,209,296,1,,,,
,,,,,,0902329151de276b4b6c65c3,66a626ef09d4e21e1a8894ec,6737680adfcb7c91a6d833cf,2024-11-15_09h27.17.795,Tarea de género gramatical,2024.2.2,Win32,243.902439,,,,,,,,,,,,,,,,,,,,,,,528.4336,529.5787,a,1,0.4891,,[],[],[],[],[],[],[],0.4891,1,529.5787,530.0793,,,,,,1211,MAS,AGR,150,camino,el,l,530.0793,530.0794,0.077777778,-0.405555556,0,0,0,,0,210,210,310,1,,,,
,,,,,,0902329151de276b4b6c65c3,66a626ef09d4e21e1a8894ec,6737680adfcb7c91a6d833cf,2024-11-15_09h27.17.795,Tarea de género gramatical,2024.2.2,Win32,243.902439,,,,,,,,,,,,,,,,,,,,,,,530.0801,531.0843,l,1,0.3513,,[],[],[],[],[],[],[],0.3513,1,531.0844,531.5849,,,,,,955,FEM,DIS,150,taza,el,a,531.5849,531.585,0.077777778,-0.405555556,0,0,0,,0,211,211,54,1,,,,
,,,,,,0902329151de276b4b6c65c3,66a626ef09d4e21e1a8894ec,6737680adfcb7c91a6d833cf,2024-11-15_09h27.17.795,Tarea de género gramatical,2024.2.2,Win32,243.902439,,,,,,,,,,,,,,,,,,,,,,,531.586,532.6609,l,1,0.4229,,[],[],[],[],[],[],[],0.4229,1,532.6609,533.1614,,,,,,1208,FEM,AGR,150,semana,la,a,533.1614,533.1615,0.077777778,-0.405555556,0,0,0,,0,212,212,307,1,,,,
,,,,,,0902329151de276b4b6c65c3,66a626ef09d4e21e1a8894ec,6737680adfcb7c91a6d833cf,2024-11-15_09h27.17.795,Tarea de género gramatical,2024.2.2,Win32,243.902439,,,,,,,,,,,,,,,,,,,,,,,533.1621,534.2166,l,1,0.4011,,[],[],[],[],[],[],[],0.4011,1,534.2166,534.7171,,,,,,1233,FEM,CON,150,locura,,a,534.7181,534.7186,0.077777778,-0.405555556,0,0,0,,0,213,213,332,1,,,,
,,,,,,0902329151de276b4b6c65c3,66a626ef09d4e21e1a8894ec,6737680adfcb7c91a6d833cf,2024-11-15_09h27.17.795,Tarea de género gramatical,2024.2.2,Win32,243.902439,,,,,,,,,,,,,,,,,,,,,,,534.7191,535.9225,a,1,0.5479,,[],[],[],[],[],[],[],0.5479,1,535.9226,536.4229,,,,,,1187,MAS,AGR,150,plato,el,l,536.423,536.4231,0.077777778,-0.405555556,0,0,0,,0,214,214,286,1,,,,
,,,,,,0902329151de276b4b6c65c3,66a626ef09d4e21e1a8894ec,6737680adfcb7c91a6d833cf,2024-11-15_09h27.17.795,Tarea de género gramatical,2024.2.2,Win32,243.902439,,,,,,,,,,,,,,,,,,,,,,,536.4237,537.4448,l,0,0.3676,,[],[],[],[],[],[],[],0.3676,0,537.4453,537.9454,,,,,,1174,MAS,DIS,150,motor,la,l,537.9454,537.9454,0.077777778,-0.405555556,0,0,0,,0,215,215,273,1,,,,
,,,,,,0902329151de276b4b6c65c3,66a626ef09d4e21e1a8894ec,6737680adfcb7c91a6d833cf,2024-11-15_09h27.17.795,Tarea de género gramatical,2024.2.2,Win32,243.902439,,,,,,,,,,,,,,,,,,,,,,,537.9462,539.038,l,1,0.4387,,[],[],[],[],[],[],[],0.4387,1,539.0386,539.5386,,,,,,1340,FEM,AGR,150,patada,la,a,539.5386,539.5386,0.077777778,-0.405555556,0,0,0,,0,216,216,439,1,,,,
,,,,,,0902329151de276b4b6c65c3,66a626ef09d4e21e1a8894ec,6737680adfcb7c91a6d833cf,2024-11-15_09h27.17.795,Tarea de género gramatical,2024.2.2,Win32,243.902439,,,,,,,,,,,,,,,,,,,,,,,539.5395,540.5687,a,1,0.3763,,[],[],[],[],[],[],[],0.3763,1,540.5687,541.0691,,,,,,982,MAS,DIS,150,tubo,la,l,541.0691,541.0692,0.077777778,-0.405555556,0,0,0,,0,217,217,81,1,,,,
,,,,,,0902329151de276b4b6c65c3,66a626ef09d4e21e1a8894ec,6737680adfcb7c91a6d833cf,2024-11-15_09h27.17.795,Tarea de género gramatical,2024.2.2,Win32,243.902439,,,,,,,,,,,,,,,,,,,,,,,541.07,542.3621,l,1,0.6389,,[],[],[],[],[],[],[],0.6389,1,542.3622,542.8626,,,,,,950,FEM,AGR,150,dama,la,a,542.8633,542.8638,0.077777778,-0.405555556,0,0,0,,0,218,218,49,1,,,,
,,,,,,0902329151de276b4b6c65c3,66a626ef09d4e21e1a8894ec,6737680adfcb7c91a6d833cf,2024-11-15_09h27.17.795,Tarea de género gramatical,2024.2.2,Win32,243.902439,,,,,,,,,,,,,,,,,,,,,,,542.8643,543.9303,a,1,0.4093,,[],[],[],[],[],[],[],0.4093,1,543.9304,544.4309,,,,,,1210,MAS,DIS,150,nombre,la,l,544.4309,544.4309,0.077777778,-0.405555556,0,0,0,,0,219,219,309,1,,,,
,,,,,,0902329151de276b4b6c65c3,66a626ef09d4e21e1a8894ec,6737680adfcb7c91a6d833cf,2024-11-15_09h27.17.795,Tarea de género gramatical,2024.2.2,Win32,243.902439,,,,,,,,,,,,,,,,,,,,,,,544.4318,545.3567,l,1,0.2717,,[],[],[],[],[],[],[],0.2717,1,545.3568,545.8574,,,,,,1107,FEM,CON,150,playa,,a,545.8574,545.8575,0.077777778,-0.405555556,0,0,0,,0,220,220,206,1,,,,
,,,,,,0902329151de276b4b6c65c3,66a626ef09d4e21e1a8894ec,6737680adfcb7c91a6d833cf,2024-11-15_09h27.17.795,Tarea de género gramatical,2024.2.2,Win32,243.902439,,,,,,,,,,,,,,,,,,,,,,,545.8584,547.0125,a,1,0.496,,[],[],[],[],[],[],[],0.496,1,547.0125,547.5131,,,,,,971,MAS,AGR,150,pozo,el,l,547.5131,547.5131,0.077777778,-0.405555556,0,0,0,,0,221,221,70,1,,,,
,,,,,,0902329151de276b4b6c65c3,66a626ef09d4e21e1a8894ec,6737680adfcb7c91a6d833cf,2024-11-15_09h27.17.795,Tarea de género gramatical,2024.2.2,Win32,243.902439,,,,,,,,,,,,,,,,,,,,,,,547.5138,548.4558,l,1,0.2911,,[],[],[],[],[],[],[],0.2911,1,548.4558,548.9561,,,,,,1221,FEM,CON,150,comida,,a,548.9571,548.9575,0.077777778,-0.405555556,0,0,0,,0,222,222,320,1,,,,
,,,,,,0902329151de276b4b6c65c3,66a626ef09d4e21e1a8894ec,6737680adfcb7c91a6d833cf,2024-11-15_09h27.17.795,Tarea de género gramatical,2024.2.2,Win32,243.902439,,,,,,,,,,,,,,,,,,,,,,,548.958,550.3033,a,1,0.6898,,[],[],[],[],[],[],[],0.6898,1,550.3033,550.8037,,,,,,989,MAS,AGR,150,maíz,el,l,550.8038,550.8038,0.077777778,-0.405555556,0,0,0,,0,223,223,88,1,,,,
,,,,,,0902329151de276b4b6c65c3,66a626ef09d4e21e1a8894ec,6737680adfcb7c91a6d833cf,2024-11-15_09h27.17.795,Tarea de género gramatical,2024.2.2,Win32,243.902439,,,,,,,,,,,,,,,,,,,,,,,550.8046,551.8089,a,1,0.3513,,[],[],[],[],[],[],[],0.3513,1,551.809,552.3094,,,,,,941,MAS,AGR,150,bote,el,l,552.3094,552.3095,0.077777778,-0.405555556,0,0,0,,0,224,224,40,1,,,,
,,,,,,0902329151de276b4b6c65c3,66a626ef09d4e21e1a8894ec,6737680adfcb7c91a6d833cf,2024-11-15_09h27.17.795,Tarea de género gramatical,2024.2.2,Win32,243.902439,,,,,,,,,,,,,,,,,,,,,,,552.3103,553.7734,a,0,0.8114,,[],[],[],[],[],[],[],0.8114,0,553.774,554.2739,,,,,,1171,FEM,DIS,150,viuda,el,a,554.2739,554.2739,0.077777778,-0.405555556,0,0,0,,0,225,225,270,1,,,,
,,,,,,0902329151de276b4b6c65c3,66a626ef09d4e21e1a8894ec,6737680adfcb7c91a6d833cf,2024-11-15_09h27.17.795,Tarea de género gramatical,2024.2.2,Win32,243.902439,,,,,,,,,,,,,,,,,,,,,,,554.2748,555.3874,l,1,0.4615,,[],[],[],[],[],[],[],0.4615,1,555.3879,555.8879,,,,,,1183,FEM,DIS,150,pluma,el,a,555.8879,555.888,0.077777778,-0.405555556,0,0,0,,0,226,226,282,1,,,,
,,,,,,0902329151de276b4b6c65c3,66a626ef09d4e21e1a8894ec,6737680adfcb7c91a6d833cf,2024-11-15_09h27.17.795,Tarea de género gramatical,2024.2.2,Win32,243.902439,,,,,,,,,,,,,,,,,,,,,,,555.889,557.3227,a,1,0.7823,,[],[],[],[],[],[],[],0.7823,1,557.3228,557.8232,,,,,,1277,MAS,AGR,150,jardín,el,l,557.8241,557.8247,0.077777778,-0.405555556,0,0,0,,0,227,227,376,1,,,,
,,,,,,0902329151de276b4b6c65c3,66a626ef09d4e21e1a8894ec,6737680adfcb7c91a6d833cf,2024-11-15_09h27.17.795,Tarea de género gramatical,2024.2.2,Win32,243.902439,,,,,,,,,,,,,,,,,,,,,,,557.8253,559.0285,a,1,0.547,,[],[],[],[],[],[],[],0.547,1,559.0285,559.5291,,,,,,1248,MAS,CON,150,anillo,,l,559.5291,559.5292,0.077777778,-0.405555556,0,0,0,,0,228,228,347,1,,,,
,,,,,,0902329151de276b4b6c65c3,66a626ef09d4e21e1a8894ec,6737680adfcb7c91a6d833cf,2024-11-15_09h27.17.795,Tarea de género gramatical,2024.2.2,Win32,243.902439,,,,,,,,,,,,,,,,,,,,,,,559.5299,560.53,a,1,0.3439,,[],[],[],[],[],[],[],0.3439,1,560.53,561.0306,,,,,,1164,MAS,CON,150,pollo,,l,561.0306,561.0307,0.077777778,-0.405555556,0,0,0,,0,229,229,263,1,,,,
,,,,,,0902329151de276b4b6c65c3,66a626ef09d4e21e1a8894ec,6737680adfcb7c91a6d833cf,2024-11-15_09h27.17.795,Tarea de género gramatical,2024.2.2,Win32,243.902439,,,,,,,,,,,,,,,,,,,,,,,561.0314,561.9731,l,1,0.2881,,[],[],[],[],[],[],[],0.2881,1,561.9731,562.4735,,,,,,1202,FEM,AGR,150,cabeza,la,a,562.4736,562.4736,0.077777778,-0.405555556,0,0,0,,0,230,230,301,1,,,,
,,,,,,0902329151de276b4b6c65c3,66a626ef09d4e21e1a8894ec,6737680adfcb7c91a6d833cf,2024-11-15_09h27.17.795,Tarea de género gramatical,2024.2.2,Win32,243.902439,,,,,,,,,,,,,,,,,,,,,,,562.4747,563.4871,a,1,0.3591,,[],[],[],[],[],[],[],0.3591,1,563.4872,563.9876,,,,,,1193,MAS,AGR,150,patio,el,l,563.9886,563.9891,0.077777778,-0.405555556,0,0,0,,0,231,231,292,1,,,,
,,,,,,0902329151de276b4b6c65c3,66a626ef09d4e21e1a8894ec,6737680adfcb7c91a6d833cf,2024-11-15_09h27.17.795,Tarea de género gramatical,2024.2.2,Win32,243.902439,,,,,,,,,,,,,,,,,,,,,,,563.9895,565.3514,a,1,0.7078,,[],[],[],[],[],[],[],0.7078,1,565.3514,565.8519,,,,,,970,MAS,DIS,150,palo,la,l,565.8519,565.852,0.077777778,-0.405555556,0,0,0,,0,232,232,69,1,,,,
,,,,,,0902329151de276b4b6c65c3,66a626ef09d4e21e1a8894ec,6737680adfcb7c91a6d833cf,2024-11-15_09h27.17.795,Tarea de género gramatical,2024.2.2,Win32,243.902439,,,,,,,,,,,,,,,,,,,,,,,565.8531,567.1126,l,1,0.6051,,[],[],[],[],[],[],[],0.6051,1,567.1128,567.6119,,,,,,1021,FEM,DIS,150,pila,el,a,567.6119,567.612,0.077777778,-0.405555556,0,0,0,,0,233,233,120,1,,,,
,,,,,,0902329151de276b4b6c65c3,66a626ef09d4e21e1a8894ec,6737680adfcb7c91a6d833cf,2024-11-15_09h27.17.795,Tarea de género gramatical,2024.2.2,Win32,243.902439,,,,,,,,,,,,,,,,,,,,,,,567.6127,568.6088,a,1,0.343,,[],[],[],[],[],[],[],0.343,1,568.6088,569.1092,,,,,,1026,MAS,CON,150,lazo,,l,569.1092,569.1093,0.077777778,-0.405555556,0,0,0,,0,234,234,125,1,,,,
,,,,,,0902329151de276b4b6c65c3,66a626ef09d4e21e1a8894ec,6737680adfcb7c91a6d833cf,2024-11-15_09h27.17.795,Tarea de género gramatical,2024.2.2,Win32,243.902439,,,,,,,,,,,,,,,,,,,,,,,569.1104,570.1185,a,1,0.3527,,[],[],[],[],[],[],[],0.3527,1,570.1185,570.619,,,,,,1116,MAS,CON,150,éxito,,l,570.6191,570.6191,0.077777778,-0.405555556,0,0,0,,0,235,235,215,1,,,,
,,,,,,0902329151de276b4b6c65c3,66a626ef09d4e21e1a8894ec,6737680adfcb7c91a6d833cf,2024-11-15_09h27.17.795,Tarea de género gramatical,2024.2.2,Win32,243.902439,,,,,,,,,,,,,,,,,,,,,,,570.62,571.5741,a,1,0.302,,[],[],[],[],[],[],[],0.302,1,571.5742,572.0747,,,,,,1121,MAS,AGR,150,brazo,el,l,572.0759,572.0765,0.077777778,-0.405555556,0,0,0,,0,236,236,220,1,,,,
,,,,,,0902329151de276b4b6c65c3,66a626ef09d4e21e1a8894ec,6737680adfcb7c91a6d833cf,2024-11-15_09h27.17.795,Tarea de género gramatical,2024.2.2,Win32,243.902439,,,,,,,,,,,,,,,,,,,,,,,572.0771,573.0256,a,1,0.2928,,[],[],[],[],[],[],[],0.2928,1,573.0257,573.5261,,,,,,1199,MAS,AGR,150,rumbo,el,l,573.5262,573.5262,0.077777778,-0.405555556,0,0,0,,0,237,237,298,1,,,,
,,,,,,0902329151de276b4b6c65c3,66a626ef09d4e21e1a8894ec,6737680adfcb7c91a6d833cf,2024-11-15_09h27.17.795,Tarea de género gramatical,2024.2.2,Win32,243.902439,,,,,,,,,,,,,,,,,,,,,,,573.5269,574.4562,l,1,0.2757,,[],[],[],[],[],[],[],0.2757,1,574.4563,574.9566,,,,,,921,FEM,CON,150,boca,,a,574.9566,574.9568,0.077777778,-0.405555556,0,0,0,,0,238,238,20,1,,,,
,,,,,,0902329151de276b4b6c65c3,66a626ef09d4e21e1a8894ec,6737680adfcb7c91a6d833cf,2024-11-15_09h27.17.795,Tarea de género gramatical,2024.2.2,Win32,243.902439,,,,,,,,,,,,,,,,,,,,,,,574.9576,575.9659,l,1,0.3569,,[],[],[],[],[],[],[],0.3569,1,575.966,576.4664,,,,,,1010,FEM,AGR,150,rosa,la,a,576.4664,576.4665,0.077777778,-0.405555556,0,0,0,,0,239,239,109,1,,,,
,,,,,,0902329151de276b4b6c65c3,66a626ef09d4e21e1a8894ec,6737680adfcb7c91a6d833cf,2024-11-15_09h27.17.795,Tarea de género gramatical,2024.2.2,Win32,243.902439,,,,,,,,,,,,,,,,,,,,,,,576.4675,577.4007,a,1,0.2801,,[],[],[],[],[],[],[],0.2801,1,577.4007,577.9012,,,,,,1229,MAS,AGR,150,futuro,el,l,577.902,577.9025,0.077777778,-0.405555556,0,0,0,,0,240,240,328,1,,,,
,,,,,,0902329151de276b4b6c65c3,66a626ef09d4e21e1a8894ec,6737680adfcb7c91a6d833cf,2024-11-15_09h27.17.795,Tarea de género gramatical,2024.2.2,Win32,243.902439,,,,,,,,,,,,,,,,,,,,,,,577.9032,578.9021,a,1,0.3435,,[],[],[],[],[],[],[],0.3435,1,578.9022,579.4027,,,,,,904,MAS,DIS,150,hijo,la,l,579.4028,579.4028,0.077777778,-0.405555556,0,0,0,,0,241,241,3,1,,,,
,,,,,,0902329151de276b4b6c65c3,66a626ef09d4e21e1a8894ec,6737680adfcb7c91a6d833cf,2024-11-15_09h27.17.795,Tarea de género gramatical,2024.2.2,Win32,243.902439,,,,,,,,,,,,,,,,,,,,,,,579.4036,580.3077,a,1,0.2504,,[],[],[],[],[],[],[],0.2504,1,580.3078,580.8082,,,,,,990,MAS,CON,150,león,,l,580.8082,580.8083,0.077777778,-0.405555556,0,0,0,,0,242,242,89,1,,,,
,,,,,,0902329151de276b4b6c65c3,66a626ef09d4e21e1a8894ec,6737680adfcb7c91a6d833cf,2024-11-15_09h27.17.795,Tarea de género gramatical,2024.2.2,Win32,243.902439,,,,,,,,,,,,,,,,,,,,,,,580.809,581.7883,a,0,0.3283,,[],[],[],[],[],[],[],0.3283,0,581.789,582.2888,,,,,,1257,FEM,CON,150,lengua,,a,582.2888,582.2889,0.077777778,-0.405555556,0,0,0,,0,243,243,356,1,,,,
,,,,,,0902329151de276b4b6c65c3,66a626ef09d4e21e1a8894ec,6737680adfcb7c91a6d833cf,2024-11-15_09h27.17.795,Tarea de género gramatical,2024.2.2,Win32,243.902439,,,,,,,,,,,,,,,,,,,,,,,582.2897,583.3065,l,1,0.3636,,[],[],[],[],[],[],[],0.3636,1,583.307,583.807,,,,,,1003,FEM,DIS,150,fama,el,a,583.807,583.8071,0.077777778,-0.405555556,0,0,0,,0,244,244,102,1,,,,
,,,,,,0902329151de276b4b6c65c3,66a626ef09d4e21e1a8894ec,6737680adfcb7c91a6d833cf,2024-11-15_09h27.17.795,Tarea de género gramatical,2024.2.2,Win32,243.902439,,,,,,,,,,,,,,,,,,,,,,,583.8078,584.8079,l,1,0.3478,,[],[],[],[],[],[],[],0.3478,1,584.808,585.3085,,,,,,1281,FEM,CON,150,bebida,,a,585.3095,585.31,0.077777778,-0.405555556,0,0,0,,0,245,245,380,1,,,,
,,,,,,0902329151de276b4b6c65c3,66a626ef09d4e21e1a8894ec,6737680adfcb7c91a6d833cf,2024-11-15_09h27.17.795,Tarea de género gramatical,2024.2.2,Win32,243.902439,,,,,,,,,,,,,,,,,,,,,,,585.3107,586.2678,a,1,0.3036,,[],[],[],[],[],[],[],0.3036,1,586.2679,586.7682,,,,,,1080,MAS,CON,150,fuego,,l,586.7682,586.7683,0.077777778,-0.405555556,0,0,0,,0,246,246,179,1,,,,
,,,,,,0902329151de276b4b6c65c3,66a626ef09d4e21e1a8894ec,6737680adfcb7c91a6d833cf,2024-11-15_09h27.17.795,Tarea de género gramatical,2024.2.2,Win32,243.902439,,,,,,,,,,,,,,,,,,,,,,,586.7692,587.836,l,1,0.4134,,[],[],[],[],[],[],[],0.4134,1,587.8361,588.3364,,,,,,1057,FEM,DIS,150,madre,el,a,588.3365,588.3365,0.077777778,-0.405555556,0,0,0,,0,247,247,156,1,,,,
,,,,,,0902329151de276b4b6c65c3,66a626ef09d4e21e1a8894ec,6737680adfcb7c91a6d833cf,2024-11-15_09h27.17.795,Tarea de género gramatical,2024.2.2,Win32,243.902439,,,,,,,,,,,,,,,,,,,,,,,588.3374,589.3082,a,1,0.3176,,[],[],[],[],[],[],[],0.3176,1,589.3083,589.8086,,,,,,946,MAS,DIS,150,odio,la,l,589.8088,589.8088,0.077777778,-0.405555556,0,0,0,,0,248,248,45,1,,,,
,,,,,,0902329151de276b4b6c65c3,66a626ef09d4e21e1a8894ec,6737680adfcb7c91a6d833cf,2024-11-15_09h27.17.795,Tarea de género gramatical,2024.2.2,Win32,243.902439,,,,,,,,,,,,,,,,,,,,,,,589.8094,590.9598,a,1,0.4985,,[],[],[],[],[],[],[],0.4985,1,590.9598,591.4603,,,,,,1200,MAS,CON,150,túnel,,l,591.4613,591.4619,0.077777778,-0.405555556,0,0,0,,0,249,249,299,1,,,,
,,,,,,0902329151de276b4b6c65c3,66a626ef09d4e21e1a8894ec,6737680adfcb7c91a6d833cf,2024-11-15_09h27.17.795,Tarea de género gramatical,2024.2.2,Win32,243.902439,,,,,,,,,,,,,,,,,,,,,,,591.4625,592.5072,a,1,0.3898,,[],[],[],[],[],[],[],0.3898,1,592.5073,593.0077,,,,,,1120,MAS,DIS,150,huevo,la,l,593.0077,593.0078,0.077777778,-0.405555556,0,0,0,,0,250,250,219,1,,,,
,,,,,,0902329151de276b4b6c65c3,66a626ef09d4e21e1a8894ec,6737680adfcb7c91a6d833cf,2024-11-15_09h27.17.795,Tarea de género gramatical,2024.2.2,Win32,243.902439,,,,,,,,,,,,,,,,,,,,,,,593.0085,594.309,a,1,0.6494,,[],[],[],[],[],[],[],0.6494,1,594.3091,594.8094,,,,,,1008,MAS,CON,150,hilo,,l,594.8096,594.8096,0.077777778,-0.405555556,0,0,0,,0,251,251,107,1,,,,
,,,,,,0902329151de276b4b6c65c3,66a626ef09d4e21e1a8894ec,6737680adfcb7c91a6d833cf,2024-11-15_09h27.17.795,Tarea de género gramatical,2024.2.2,Win32,243.902439,,,,,,,,,,,,,,,,,,,,,,,594.8106,595.8105,l,1,0.3428,,[],[],[],[],[],[],[],0.3428,1,595.8105,596.3108,,,,,,1220,FEM,AGR,150,fiesta,la,a,596.3109,596.3109,0.077777778,-0.405555556,0,0,0,,0,252,252,319,1,,,,
