counterbalancing_condition,consent_prescreening.block_1/declare_consent,consent_prescreening.block_1/age_years,consent_prescreening.block_1/gender,consent_prescreening.block_1/language_disorder,consent_prescreening.block_1/first_language,Prolific_PID,Study_ID,Session_ID,date,expName,psychopyVersion,OS,frameRate,PROLIFIC_PID,STUDY_ID,SESSION_ID,check_prescreening_answers.started,check_prescreening_answers.stopped,Instructions.started,Instructions.stopped,instr_done_keyboard.keys,instr_done_touch.x,instr_done_touch.y,instr_done_touch.leftButton,instr_done_touch.midButton,instr_done_touch.rightButton,instr_done_touch.clicked_name,instruction_pages.thisRepN,instruction_pages.thisTrialN,instruction_pages.thisN,instruction_pages.thisIndex,instruction_pages.ran,pageN,phase,instruct_text,has_image,instruct_image,instr_done_keyboard.rt,instr_done_keyboard.duration,presentTrial.started,presentTrial.stopped,response.keys,response.corr,touch_resp.x,touch_resp.y,touch_resp.leftButton,touch_resp.midButton,touch_resp.rightButton,touch_resp.time,touch_resp.clicked_name,rt,corr,feedback.started,feedback.stopped,practice_trials.thisRepN,practice_trials.thisTrialN,practice_trials.thisN,practice_trials.thisIndex,practice_trials.ran,TrialID,StimulusType,Condition,PrimeDuration,Prime,Flanker,corrAns,response.rt,response.duration,Break.started,Break.stopped,break_done_touch.x,break_done_touch.y,break_done_touch.leftButton,break_done_touch.midButton,break_done_touch.rightButton,break_done_keyboard.keys,experiment_trials.thisRepN,experiment_trials.thisTrialN,experiment_trials.thisN,experiment_trials.thisIndex,experiment_trials.ran,break_done_keyboard.rt,break_done_keyboard.duration,End.started,End.stopped
0,"[""over_18"",""comfortable"",""read_info"",""consent_given""]",12,F,"[""none""]","[""spanish""]",,,,2024-10-08_11h40.17.420,Tarea de género gramatical,2024.2.1,MacIntel,60.24096386,0d828a45ab54823a65f9fca4,66a626ef09d4e21e1a8894ec,670567828e5c092145df8062,,,,,,,,,,,,,,,,,,,,,,,,,,,,,,,,,,,,,,,,,,,,,,,,,,,,,,,,,,,,,,,,,,,,,
,,,,,,,,,2024-10-08_11h40.17.420,Tarea de género gramatical,2024.2.1,MacIntel,60.24096386,0d828a45ab54823a65f9fca4,66a626ef09d4e21e1a8894ec,670567828e5c092145df8062,57.1002,57.1004,,,,,,,,,,,,,,,,,,,,,,,,,,,,,,,,,,,,,,,,,,,,,,,,,,,,,,,,,,,,,,,,,,,
,,,,,,,,,2024-10-08_11h40.17.420,Tarea de género gramatical,2024.2.1,MacIntel,60.24096386,0d828a45ab54823a65f9fca4,66a626ef09d4e21e1a8894ec,670567828e5c092145df8062,,,57.1232,72.9943,,-0.078392493,-0.422821841,1,0,0,instr_done_button,0,0,0,0,1,1,instructions,"INSTRUCCIONES
Va a realizar una prueba de selección gramatical. Desde el comienzo de la prueba mire siempre al centro de la pantalla. Al cabo de un momento, aparecerán palabras. La tarea consiste en determinar si la palabra del centro (siempre será un sustantivo), pertenece al género masculino o femenino.

Pulse la tecla ESPACIO o toque el botón de abajo para continuar.",0,keyboardresponseFM.png,,,,,,,,,,,,,,,,,,,,,,,,,,,,,,,,,,,,,,,,,,,,,,,,
,,,,,,,,,2024-10-08_11h40.17.420,Tarea de género gramatical,2024.2.1,MacIntel,60.24096386,0d828a45ab54823a65f9fca4,66a626ef09d4e21e1a8894ec,670567828e5c092145df8062,,,72.9971,85.1107,space,-0.003961447,-0.369306216,0,0,0,,0,1,1,1,1,2,instructions,"Si su dispositivo tiene teclado, pulse la tecla ""A"" para las palabras en femenino (por ejemplo: ""mano"") y la tecla ""L"" para las palabras en masculino(por ejemplo: ""arroz"").
Pulse la tecla ESPACIO o toque el botón de abajo para continuar.",1,keyboardresponseFM.png,12.0598,,,,,,,,,,,,,,,,,,,,,,,,,,,,,,,,,,,,,,,,,,,,,,,
,,,,,,,,,2024-10-08_11h40.17.420,Tarea de género gramatical,2024.2.1,MacIntel,60.24096386,0d828a45ab54823a65f9fca4,66a626ef09d4e21e1a8894ec,670567828e5c092145df8062,,,85.1135,87.9598,,-0.003961447,-0.369306216,0,0,1,instr_done_button,0,2,2,2,1,3,instructions,"Si utiliza un dispositivo sólo táctil, colóquelo en horizontal y utilice los botones de la pantalla. No utilice el ratón.
Pulse la tecla ESPACIO o toque el botón de abajo para continuar.",2,touchresponseFM.png,,,,,,,,,,,,,,,,,,,,,,,,,,,,,,,,,,,,,,,,,,,,,,,,
,,,,,,,,,2024-10-08_11h40.17.420,Tarea de género gramatical,2024.2.1,MacIntel,60.24096386,0d828a45ab54823a65f9fca4,66a626ef09d4e21e1a8894ec,670567828e5c092145df8062,,,87.962,92.2435,,-0.006173573,-0.395940897,1,0,1,instr_done_button,0,3,3,3,1,4,instructions,"Es muy importante que responda con la mayor rapidez y precisión posibles, ya que cada cadena de letras sólo estará en pantalla durante un instante. Si no responde en ese tiempo, aparecerá el mensaje ""Muy lento"" y el experimento pasará a la siguiente palabra. Los primeros 15 intentos serán de práctica y habrá dos descansos durante la prueba.
Pulse la tecla ESPACIO o toque el botón de abajo para iniciar la parte de práctica.",0,keyboardresponseFM.png,,,,,,,,,,,,,,,,,,,,,,,,,,,,,,,,,,,,,,,,,,,,,,,,
,,,,,,,,,2024-10-08_11h40.17.420,Tarea de género gramatical,2024.2.1,MacIntel,60.24096386,0d828a45ab54823a65f9fca4,66a626ef09d4e21e1a8894ec,670567828e5c092145df8062,,,,,,,,,,,,,,,,,,,,,,,,92.2632,94.9106,,0,[],[],[],[],[],[],[],,-1,94.9113,95.4104,0,0,0,6,1,2007,FEM,AGR,150,navaja,la,a,,,,,,,,,,,,,,,,,,,
,,,,,,,,,2024-10-08_11h40.17.420,Tarea de género gramatical,2024.2.1,MacIntel,60.24096386,0d828a45ab54823a65f9fca4,66a626ef09d4e21e1a8894ec,670567828e5c092145df8062,,,,,,,,,,,,,,,,,,,,,,,,95.4123,97.1432,a,0,[],[],[],[],[],[],[],1.0608,0,97.1705,97.6434,0,1,1,8,1,2009,MAS,DIS,150,puerto,la,l,1.0608,,,,,,,,,,,,,,,,,,
,,,,,,,,,2024-10-08_11h40.17.420,Tarea de género gramatical,2024.2.1,MacIntel,60.24096386,0d828a45ab54823a65f9fca4,66a626ef09d4e21e1a8894ec,670567828e5c092145df8062,,,,,,,,,,,,,,,,,,,,,,,,97.645,99.2093,l,0,[],[],[],[],[],[],[],0.8828,0,99.2095,99.7099,0,2,2,2,1,2003,FEM,DIS,150,daga,el,a,0.8828,,,,,,,,,,,,,,,,,,
,,,,,,,,,2024-10-08_11h40.17.420,Tarea de género gramatical,2024.2.1,MacIntel,60.24096386,0d828a45ab54823a65f9fca4,66a626ef09d4e21e1a8894ec,670567828e5c092145df8062,,,,,,,,,,,,,,,,,,,,,,,,99.7111,101.9932,l,1,[],[],[],[],[],[],[],1.6044,1,101.9944,102.4932,0,3,3,10,1,2011,MAS,CON,150,canal,,l,1.6044,,,,,,,,,,,,,,,,,,
,,,,,,,,,2024-10-08_11h40.17.420,Tarea de género gramatical,2024.2.1,MacIntel,60.24096386,0d828a45ab54823a65f9fca4,66a626ef09d4e21e1a8894ec,670567828e5c092145df8062,,,,,,,,,,,,,,,,,,,,,,,,102.495,103.86,l,0,[],[],[],[],[],[],[],0.6884,0,103.8612,104.36,0,4,4,5,1,2006,FEM,DIS,150,serie,el,a,0.6884,,,,,,,,,,,,,,,,,,
,,,,,,,,,2024-10-08_11h40.17.420,Tarea de género gramatical,2024.2.1,MacIntel,60.24096386,0d828a45ab54823a65f9fca4,66a626ef09d4e21e1a8894ec,670567828e5c092145df8062,,,,,,,,,,,,,,,,,,,,,,,,104.3616,105.8093,l,0,[],[],[],[],[],[],[],0.7669,0,105.8094,106.31,0,5,5,0,1,2001,FEM,AGR,150,nuca,la,a,0.7669,,,,,,,,,,,,,,,,,,
,,,,,,,,,2024-10-08_11h40.17.420,Tarea de género gramatical,2024.2.1,MacIntel,60.24096386,0d828a45ab54823a65f9fca4,66a626ef09d4e21e1a8894ec,670567828e5c092145df8062,,,,,,,,,,,,,,,,,,,,,,,,106.3115,107.4934,a,1,[],[],[],[],[],[],[],0.5004,1,107.4947,107.9933,0,6,6,1,1,2002,FEM,CON,150,pala,,a,0.5004,,,,,,,,,,,,,,,,,,
,,,,,,,,,2024-10-08_11h40.17.420,Tarea de género gramatical,2024.2.1,MacIntel,60.24096386,0d828a45ab54823a65f9fca4,66a626ef09d4e21e1a8894ec,670567828e5c092145df8062,,,,,,,,,,,,,,,,,,,,,,,,107.9947,109.1433,a,1,[],[],[],[],[],[],[],0.4692,1,109.1434,109.6432,0,7,7,4,1,2005,FEM,CON,150,placa,,a,0.4692,,,,,,,,,,,,,,,,,,
,,,,,,,,,2024-10-08_11h40.17.420,Tarea de género gramatical,2024.2.1,MacIntel,60.24096386,0d828a45ab54823a65f9fca4,66a626ef09d4e21e1a8894ec,670567828e5c092145df8062,,,,,,,,,,,,,,,,,,,,,,,,109.6443,110.8767,l,1,[],[],[],[],[],[],[],0.553,1,110.8768,111.3767,0,8,8,9,1,2010,MAS,AGR,150,vecino,el,l,0.553,,,,,,,,,,,,,,,,,,
,,,,,,,,,2024-10-08_11h40.17.420,Tarea de género gramatical,2024.2.1,MacIntel,60.24096386,0d828a45ab54823a65f9fca4,66a626ef09d4e21e1a8894ec,670567828e5c092145df8062,,,,,,,,,,,,,,,,,,,,,,,,111.3783,112.56,a,1,[],[],[],[],[],[],[],0.5026,1,112.5602,113.06,0,9,9,7,1,2008,FEM,CON,150,siesta,,a,0.5026,,,,,,,,,,,,,,,,,,
,,,,,,,,,2024-10-08_11h40.17.420,Tarea de género gramatical,2024.2.1,MacIntel,60.24096386,0d828a45ab54823a65f9fca4,66a626ef09d4e21e1a8894ec,670567828e5c092145df8062,,,,,,,,,,,,,,,,,,,,,,,,113.0616,114.2932,l,1,[],[],[],[],[],[],[],0.5548,1,114.2934,114.7934,0,10,10,12,1,2013,MAS,AGR,150,acero,el,l,0.5548,,,,,,,,,,,,,,,,,,
,,,,,,,,,2024-10-08_11h40.17.420,Tarea de género gramatical,2024.2.1,MacIntel,60.24096386,0d828a45ab54823a65f9fca4,66a626ef09d4e21e1a8894ec,670567828e5c092145df8062,,,,,,,,,,,,,,,,,,,,,,,,114.7951,115.9763,l,1,[],[],[],[],[],[],[],0.5114,1,115.9765,116.4766,0,11,11,14,1,2015,MAS,DIS,150,robot,la,l,0.5114,,,,,,,,,,,,,,,,,,
,,,,,,,,,2024-10-08_11h40.17.420,Tarea de género gramatical,2024.2.1,MacIntel,60.24096386,0d828a45ab54823a65f9fca4,66a626ef09d4e21e1a8894ec,670567828e5c092145df8062,,,,,,,,,,,,,,,,,,,,,,,,116.478,117.6432,l,1,[],[],[],[],[],[],[],0.4831,1,117.6434,118.1433,0,12,12,13,1,2014,MAS,CON,150,siglo,,l,0.4831,,,,,,,,,,,,,,,,,,
,,,,,,,,,2024-10-08_11h40.17.420,Tarea de género gramatical,2024.2.1,MacIntel,60.24096386,0d828a45ab54823a65f9fca4,66a626ef09d4e21e1a8894ec,670567828e5c092145df8062,,,,,,,,,,,,,,,,,,,,,,,,118.1449,119.3767,a,0,[],[],[],[],[],[],[],0.5504,0,119.3781,119.8767,0,13,13,11,1,2012,MAS,DIS,150,clima,la,l,0.5504,,,,,,,,,,,,,,,,,,
,,,,,,,,,2024-10-08_11h40.17.420,Tarea de género gramatical,2024.2.1,MacIntel,60.24096386,0d828a45ab54823a65f9fca4,66a626ef09d4e21e1a8894ec,670567828e5c092145df8062,,,,,,,,,,,,,,,,,,,,,,,,119.8785,121.2931,a,1,[],[],[],[],[],[],[],0.7364,1,121.2942,121.793,0,14,14,3,1,2004,FEM,AGR,150,venta,la,a,0.7364,,,,,,,,,,,,,,,,,,
,,,,,,,,,2024-10-08_11h40.17.420,Tarea de género gramatical,2024.2.1,MacIntel,60.24096386,0d828a45ab54823a65f9fca4,66a626ef09d4e21e1a8894ec,670567828e5c092145df8062,,,132.4301,132.6102,,-0.006173573,-0.395940897,0,0,1,instr_done_button,,,,,,,,,,,,,132.6479,135.2931,,0,[],[],[],[],[],[],[],0.7364,-1,135.2945,135.7933,,,,,,336,MAS,DIS,150,crimen,la,l,,,135.7939,135.7977,-0.00670856,-0.394059952,0,0,1,,0,0,0,335,1,,,,
,,,,,,,,,2024-10-08_11h40.17.420,Tarea de género gramatical,2024.2.1,MacIntel,60.24096386,0d828a45ab54823a65f9fca4,66a626ef09d4e21e1a8894ec,670567828e5c092145df8062,,,,,,,,,,,,,,,,,,,,,,,,135.7999,137.3097,a,1,[],[],[],[],[],[],[],0.8452,1,137.3109,137.8097,,,,,,277,FEM,AGR,150,plaza,la,a,0.8452,,137.8098,137.81,-0.00670856,-0.394059952,0,0,1,,0,1,1,276,1,,,,
,,,,,,,,,2024-10-08_11h40.17.420,Tarea de género gramatical,2024.2.1,MacIntel,60.24096386,0d828a45ab54823a65f9fca4,66a626ef09d4e21e1a8894ec,670567828e5c092145df8062,,,,,,,,,,,,,,,,,,,,,,,,137.8114,138.9264,a,1,[],[],[],[],[],[],[],0.4335,1,138.9265,139.4264,,,,,,241,FEM,AGR,150,pasta,la,a,0.4335,,139.4282,139.4296,-0.00670856,-0.394059952,0,0,1,,0,2,2,240,1,,,,
,,,,,,,,,2024-10-08_11h40.17.420,Tarea de género gramatical,2024.2.1,MacIntel,60.24096386,0d828a45ab54823a65f9fca4,66a626ef09d4e21e1a8894ec,670567828e5c092145df8062,,,,,,,,,,,,,,,,,,,,,,,,139.4305,140.5098,l,1,[],[],[],[],[],[],[],0.411,1,140.5099,141.0096,,,,,,310,MAS,AGR,150,nombre,el,l,0.411,,141.0097,141.0098,-0.00670856,-0.394059952,0,0,1,,0,3,3,309,1,,,,
,,,,,,,,,2024-10-08_11h40.17.420,Tarea de género gramatical,2024.2.1,MacIntel,60.24096386,0d828a45ab54823a65f9fca4,66a626ef09d4e21e1a8894ec,670567828e5c092145df8062,,,,,,,,,,,,,,,,,,,,,,,,141.0115,142.0763,l,1,[],[],[],[],[],[],[],0.3957,1,142.0764,142.5765,,,,,,30,MAS,DIS,150,cine,la,l,0.3957,,142.5767,142.5769,-0.00670856,-0.394059952,0,0,1,,0,4,4,29,1,,,,
,,,,,,,,,2024-10-08_11h40.17.420,Tarea de género gramatical,2024.2.1,MacIntel,60.24096386,0d828a45ab54823a65f9fca4,66a626ef09d4e21e1a8894ec,670567828e5c092145df8062,,,,,,,,,,,,,,,,,,,,,,,,142.5786,143.8261,l,1,[],[],[],[],[],[],[],0.5763,1,143.8262,144.3265,,,,,,138,MAS,DIS,150,luto,la,l,0.5763,,144.3266,144.3268,-0.00670856,-0.394059952,0,0,1,,0,5,5,137,1,,,,
,,,,,,,,,2024-10-08_11h40.17.420,Tarea de género gramatical,2024.2.1,MacIntel,60.24096386,0d828a45ab54823a65f9fca4,66a626ef09d4e21e1a8894ec,670567828e5c092145df8062,,,,,,,,,,,,,,,,,,,,,,,,144.3283,145.4089,l,1,[],[],[],[],[],[],[],0.4004,1,145.409,145.9099,,,,,,100,MAS,AGR,150,nido,el,l,0.4004,,145.9121,145.9133,-0.00670856,-0.394059952,0,0,1,,0,6,6,99,1,,,,
,,,,,,,,,2024-10-08_11h40.17.420,Tarea de género gramatical,2024.2.1,MacIntel,60.24096386,0d828a45ab54823a65f9fca4,66a626ef09d4e21e1a8894ec,670567828e5c092145df8062,,,,,,,,,,,,,,,,,,,,,,,,145.9141,147.0594,l,1,[],[],[],[],[],[],[],0.4782,1,147.0595,147.5585,,,,,,288,MAS,DIS,150,grado,la,l,0.4782,,147.5586,147.5587,-0.00670856,-0.394059952,0,0,1,,0,7,7,287,1,,,,
,,,,,,,,,2024-10-08_11h40.17.420,Tarea de género gramatical,2024.2.1,MacIntel,60.24096386,0d828a45ab54823a65f9fca4,66a626ef09d4e21e1a8894ec,670567828e5c092145df8062,,,,,,,,,,,,,,,,,,,,,,,,147.5595,148.71,a,1,[],[],[],[],[],[],[],0.4844,1,148.7101,149.2089,,,,,,103,FEM,AGR,150,fama,la,a,0.4844,,149.209,149.2093,-0.00670856,-0.394059952,0,0,1,,0,8,8,102,1,,,,
,,,,,,,,,2024-10-08_11h40.17.420,Tarea de género gramatical,2024.2.1,MacIntel,60.24096386,0d828a45ab54823a65f9fca4,66a626ef09d4e21e1a8894ec,670567828e5c092145df8062,,,,,,,,,,,,,,,,,,,,,,,,149.2108,150.4587,a,1,[],[],[],[],[],[],[],0.5677,1,150.4591,150.9598,,,,,,236,FEM,CON,150,deuda,,a,0.5677,,150.96,150.9602,-0.00670856,-0.394059952,0,0,1,,0,9,9,235,1,,,,
,,,,,,,,,2024-10-08_11h40.17.420,Tarea de género gramatical,2024.2.1,MacIntel,60.24096386,0d828a45ab54823a65f9fca4,66a626ef09d4e21e1a8894ec,670567828e5c092145df8062,,,,,,,,,,,,,,,,,,,,,,,,150.9619,152.0597,a,1,[],[],[],[],[],[],[],0.4172,1,152.0598,152.5588,,,,,,147,FEM,DIS,150,grúa,el,a,0.4172,,152.5589,152.5592,-0.00670856,-0.394059952,0,0,1,,0,10,10,146,1,,,,
,,,,,,,,,2024-10-08_11h40.17.420,Tarea de género gramatical,2024.2.1,MacIntel,60.24096386,0d828a45ab54823a65f9fca4,66a626ef09d4e21e1a8894ec,670567828e5c092145df8062,,,,,,,,,,,,,,,,,,,,,,,,152.5607,153.6099,a,1,[],[],[],[],[],[],[],0.3655,1,153.61,154.1098,,,,,,284,FEM,CON,150,fruta,,a,0.3655,,154.1118,154.113,-0.00670856,-0.394059952,0,0,1,,0,11,11,283,1,,,,
,,,,,,,,,2024-10-08_11h40.17.420,Tarea de género gramatical,2024.2.1,MacIntel,60.24096386,0d828a45ab54823a65f9fca4,66a626ef09d4e21e1a8894ec,670567828e5c092145df8062,,,,,,,,,,,,,,,,,,,,,,,,154.1138,155.193,l,1,[],[],[],[],[],[],[],0.403,1,155.1932,155.6931,,,,,,191,MAS,CON,150,dolor,,l,0.403,,155.6932,155.6933,-0.00670856,-0.394059952,0,0,1,,0,12,12,190,1,,,,
,,,,,,,,,2024-10-08_11h40.17.420,Tarea de género gramatical,2024.2.1,MacIntel,60.24096386,0d828a45ab54823a65f9fca4,66a626ef09d4e21e1a8894ec,670567828e5c092145df8062,,,,,,,,,,,,,,,,,,,,,,,,155.6951,157.1264,l,1,[],[],[],[],[],[],[],0.7493,1,157.1264,157.6254,,,,,,198,MAS,DIS,150,hotel,la,l,0.7493,,157.6255,157.6256,-0.00670856,-0.394059952,0,0,1,,0,13,13,197,1,,,,
,,,,,,,,,2024-10-08_11h40.17.420,Tarea de género gramatical,2024.2.1,MacIntel,60.24096386,0d828a45ab54823a65f9fca4,66a626ef09d4e21e1a8894ec,670567828e5c092145df8062,,,,,,,,,,,,,,,,,,,,,,,,157.6271,158.7764,l,1,[],[],[],[],[],[],[],0.47,1,158.7766,159.2757,,,,,,431,MAS,CON,150,veneno,,l,0.47,,159.2759,159.2761,-0.00670856,-0.394059952,0,0,1,,0,14,14,430,1,,,,
,,,,,,,,,2024-10-08_11h40.17.420,Tarea de género gramatical,2024.2.1,MacIntel,60.24096386,0d828a45ab54823a65f9fca4,66a626ef09d4e21e1a8894ec,670567828e5c092145df8062,,,,,,,,,,,,,,,,,,,,,,,,159.2775,160.3592,l,1,[],[],[],[],[],[],[],0.4008,1,160.3593,160.8598,,,,,,330,MAS,DIS,150,estado,la,l,0.4008,,160.8617,160.8629,-0.00670856,-0.394059952,0,0,1,,0,15,15,329,1,,,,
,,,,,,,,,2024-10-08_11h40.17.420,Tarea de género gramatical,2024.2.1,MacIntel,60.24096386,0d828a45ab54823a65f9fca4,66a626ef09d4e21e1a8894ec,670567828e5c092145df8062,,,,,,,,,,,,,,,,,,,,,,,,160.8638,161.8095,l,1,[],[],[],[],[],[],[],0.2707,1,161.8097,162.3099,,,,,,227,MAS,CON,150,vuelo,,l,0.2707,,162.3099,162.3101,-0.00670856,-0.394059952,0,0,1,,0,16,16,226,1,,,,
,,,,,,,,,2024-10-08_11h40.17.420,Tarea de género gramatical,2024.2.1,MacIntel,60.24096386,0d828a45ab54823a65f9fca4,66a626ef09d4e21e1a8894ec,670567828e5c092145df8062,,,,,,,,,,,,,,,,,,,,,,,,162.312,163.4098,l,1,[],[],[],[],[],[],[],0.417,1,163.41,163.9098,,,,,,322,MAS,AGR,150,minuto,el,l,0.417,,163.9099,163.91,-0.00670856,-0.394059952,0,0,1,,0,17,17,321,1,,,,
,,,,,,,,,2024-10-08_11h40.17.420,Tarea de género gramatical,2024.2.1,MacIntel,60.24096386,0d828a45ab54823a65f9fca4,66a626ef09d4e21e1a8894ec,670567828e5c092145df8062,,,,,,,,,,,,,,,,,,,,,,,,163.9119,165.0432,a,1,[],[],[],[],[],[],[],0.4619,1,165.0435,165.5422,,,,,,2,FEM,CON,150,vida,,a,0.4619,,165.5422,165.5425,-0.00670856,-0.394059952,0,0,1,,0,18,18,1,1,,,,
,,,,,,,,,2024-10-08_11h40.17.420,Tarea de género gramatical,2024.2.1,MacIntel,60.24096386,0d828a45ab54823a65f9fca4,66a626ef09d4e21e1a8894ec,670567828e5c092145df8062,,,,,,,,,,,,,,,,,,,,,,,,165.5439,166.8264,l,0,[],[],[],[],[],[],[],0.6001,0,166.8275,167.3254,,,,,,199,FEM,AGR,150,nariz,la,a,0.6001,,167.3255,167.3257,-0.00670856,-0.394059952,0,0,1,,0,19,19,198,1,,,,
,,,,,,,,,2024-10-08_11h40.17.420,Tarea de género gramatical,2024.2.1,MacIntel,60.24096386,0d828a45ab54823a65f9fca4,66a626ef09d4e21e1a8894ec,670567828e5c092145df8062,,,,,,,,,,,,,,,,,,,,,,,,167.3272,168.6431,l,1,[],[],[],[],[],[],[],0.6338,1,168.6445,169.143,,,,,,96,MAS,DIS,150,pato,la,l,0.6338,,169.1449,169.1461,-0.00670856,-0.394059952,0,0,1,,0,20,20,95,1,,,,
,,,,,,,,,2024-10-08_11h40.17.420,Tarea de género gramatical,2024.2.1,MacIntel,60.24096386,0d828a45ab54823a65f9fca4,66a626ef09d4e21e1a8894ec,670567828e5c092145df8062,,,,,,,,,,,,,,,,,,,,,,,,169.147,170.2586,l,1,[],[],[],[],[],[],[],0.4345,1,170.2588,170.7597,,,,,,222,MAS,DIS,150,valor,la,l,0.4345,,170.7598,170.7599,-0.00670856,-0.394059952,0,0,1,,0,21,21,221,1,,,,
,,,,,,,,,2024-10-08_11h40.17.420,Tarea de género gramatical,2024.2.1,MacIntel,60.24096386,0d828a45ab54823a65f9fca4,66a626ef09d4e21e1a8894ec,670567828e5c092145df8062,,,,,,,,,,,,,,,,,,,,,,,,170.7615,171.843,l,1,[],[],[],[],[],[],[],0.4018,1,171.8431,172.343,,,,,,88,MAS,AGR,150,pavo,el,l,0.4018,,172.3431,172.3432,-0.00670856,-0.394059952,0,0,1,,0,22,22,87,1,,,,
,,,,,,,,,2024-10-08_11h40.17.420,Tarea de género gramatical,2024.2.1,MacIntel,60.24096386,0d828a45ab54823a65f9fca4,66a626ef09d4e21e1a8894ec,670567828e5c092145df8062,,,,,,,,,,,,,,,,,,,,,,,,172.3451,173.4095,a,1,[],[],[],[],[],[],[],0.3945,1,173.4097,173.9097,,,,,,253,FEM,AGR,150,aldea,la,a,0.3945,,173.9098,173.91,-0.00670856,-0.394059952,0,0,1,,0,23,23,252,1,,,,
,,,,,,,,,2024-10-08_11h40.17.420,Tarea de género gramatical,2024.2.1,MacIntel,60.24096386,0d828a45ab54823a65f9fca4,66a626ef09d4e21e1a8894ec,670567828e5c092145df8062,,,,,,,,,,,,,,,,,,,,,,,,173.9116,175.0925,l,0,[],[],[],[],[],[],[],0.5007,0,175.0938,175.5926,,,,,,86,FEM,CON,150,cruz,,a,0.5007,,175.5939,175.595,-0.00670856,-0.394059952,0,0,1,,0,24,24,85,1,,,,
,,,,,,,,,2024-10-08_11h40.17.420,Tarea de género gramatical,2024.2.1,MacIntel,60.24096386,0d828a45ab54823a65f9fca4,66a626ef09d4e21e1a8894ec,670567828e5c092145df8062,,,,,,,,,,,,,,,,,,,,,,,,175.5959,176.8587,l,0,[],[],[],[],[],[],[],0.5853,0,176.8589,177.3597,,,,,,177,FEM,DIS,150,broma,el,a,0.5853,,177.3599,177.36,-0.00670856,-0.394059952,0,0,1,,0,25,25,176,1,,,,
,,,,,,,,,2024-10-08_11h40.17.420,Tarea de género gramatical,2024.2.1,MacIntel,60.24096386,0d828a45ab54823a65f9fca4,66a626ef09d4e21e1a8894ec,670567828e5c092145df8062,,,,,,,,,,,,,,,,,,,,,,,,177.3616,178.8598,l,1,[],[],[],[],[],[],[],0.8292,1,178.8611,179.3597,,,,,,299,MAS,CON,150,rumbo,,l,0.8292,,179.3598,179.36,-0.00670856,-0.394059952,0,0,1,,0,26,26,298,1,,,,
,,,,,,,,,2024-10-08_11h40.17.420,Tarea de género gramatical,2024.2.1,MacIntel,60.24096386,0d828a45ab54823a65f9fca4,66a626ef09d4e21e1a8894ec,670567828e5c092145df8062,,,,,,,,,,,,,,,,,,,,,,,,179.3616,180.4099,l,1,[],[],[],[],[],[],[],0.3672,1,180.4101,180.9098,,,,,,22,MAS,AGR,150,pelo,el,l,0.3672,,180.9099,180.9101,-0.00670856,-0.394059952,0,0,1,,0,27,27,21,1,,,,
,,,,,,,,,2024-10-08_11h40.17.420,Tarea de género gramatical,2024.2.1,MacIntel,60.24096386,0d828a45ab54823a65f9fca4,66a626ef09d4e21e1a8894ec,670567828e5c092145df8062,,,,,,,,,,,,,,,,,,,,,,,,180.9117,182.1097,a,1,[],[],[],[],[],[],[],0.5161,1,182.1099,182.6098,,,,,,261,FEM,DIS,150,cueva,el,a,0.5161,,182.6099,182.6101,-0.00670856,-0.394059952,0,0,1,,0,28,28,260,1,,,,
,,,,,,,,,2024-10-08_11h40.17.420,Tarea de género gramatical,2024.2.1,MacIntel,60.24096386,0d828a45ab54823a65f9fca4,66a626ef09d4e21e1a8894ec,670567828e5c092145df8062,,,,,,,,,,,,,,,,,,,,,,,,182.6121,183.8097,a,1,[],[],[],[],[],[],[],0.5161,1,183.8098,184.3085,,,,,,320,FEM,CON,150,fiesta,,a,0.5161,,184.3102,184.3113,-0.00670856,-0.394059952,0,0,1,,0,29,29,319,1,,,,
,,,,,,,,,2024-10-08_11h40.17.420,Tarea de género gramatical,2024.2.1,MacIntel,60.24096386,0d828a45ab54823a65f9fca4,66a626ef09d4e21e1a8894ec,670567828e5c092145df8062,,,,,,,,,,,,,,,,,,,,,,,,184.3122,185.5426,l,1,[],[],[],[],[],[],[],0.5496,1,185.5427,186.043,,,,,,412,MAS,AGR,150,espejo,el,l,0.5496,,186.0431,186.0433,-0.00670856,-0.394059952,0,0,1,,0,30,30,411,1,,,,
,,,,,,,,,2024-10-08_11h40.17.420,Tarea de género gramatical,2024.2.1,MacIntel,60.24096386,0d828a45ab54823a65f9fca4,66a626ef09d4e21e1a8894ec,670567828e5c092145df8062,,,,,,,,,,,,,,,,,,,,,,,,186.0448,187.2431,l,1,[],[],[],[],[],[],[],0.517,1,187.2431,187.7429,,,,,,413,MAS,CON,150,diario,,l,0.517,,187.7431,187.7432,-0.00670856,-0.394059952,0,0,1,,0,31,31,412,1,,,,
,,,,,,,,,2024-10-08_11h40.17.420,Tarea de género gramatical,2024.2.1,MacIntel,60.24096386,0d828a45ab54823a65f9fca4,66a626ef09d4e21e1a8894ec,670567828e5c092145df8062,,,,,,,,,,,,,,,,,,,,,,,,187.7448,188.8092,l,1,[],[],[],[],[],[],[],0.3948,1,188.8094,189.3087,,,,,,214,MAS,AGR,150,fondo,el,l,0.3948,,189.3089,189.309,-0.00670856,-0.394059952,0,0,1,,0,32,32,213,1,,,,
,,,,,,,,,2024-10-08_11h40.17.420,Tarea de género gramatical,2024.2.1,MacIntel,60.24096386,0d828a45ab54823a65f9fca4,66a626ef09d4e21e1a8894ec,670567828e5c092145df8062,,,,,,,,,,,,,,,,,,,,,,,,189.3106,190.342,l,1,[],[],[],[],[],[],[],0.3502,1,190.3421,190.843,,,,,,250,MAS,AGR,150,cerdo,el,l,0.3502,,190.845,190.8463,-0.00670856,-0.394059952,0,0,1,,0,33,33,249,1,,,,
,,,,,,,,,2024-10-08_11h40.17.420,Tarea de género gramatical,2024.2.1,MacIntel,60.24096386,0d828a45ab54823a65f9fca4,66a626ef09d4e21e1a8894ec,670567828e5c092145df8062,,,,,,,,,,,,,,,,,,,,,,,,190.8472,191.9094,l,1,[],[],[],[],[],[],[],0.3844,1,191.9096,192.4097,,,,,,432,MAS,DIS,150,océano,la,l,0.3844,,192.4098,192.4101,-0.00670856,-0.394059952,0,0,1,,0,34,34,431,1,,,,
,,,,,,,,,2024-10-08_11h40.17.420,Tarea de género gramatical,2024.2.1,MacIntel,60.24096386,0d828a45ab54823a65f9fca4,66a626ef09d4e21e1a8894ec,670567828e5c092145df8062,,,,,,,,,,,,,,,,,,,,,,,,192.412,193.6928,a,1,[],[],[],[],[],[],[],0.6118,1,193.6929,194.1929,,,,,,175,FEM,AGR,150,señal,la,a,0.6118,,194.193,194.1931,-0.00670856,-0.394059952,0,0,1,,0,35,35,174,1,,,,
,,,,,,,,,2024-10-08_11h40.17.420,Tarea de género gramatical,2024.2.1,MacIntel,60.24096386,0d828a45ab54823a65f9fca4,66a626ef09d4e21e1a8894ec,670567828e5c092145df8062,,,,,,,,,,,,,,,,,,,,,,,,194.1946,195.343,a,1,[],[],[],[],[],[],[],0.4673,1,195.3433,195.8429,,,,,,141,FEM,DIS,150,cera,el,a,0.4673,,195.843,195.8432,-0.00670856,-0.394059952,0,0,1,,0,36,36,140,1,,,,
,,,,,,,,,2024-10-08_11h40.17.420,Tarea de género gramatical,2024.2.1,MacIntel,60.24096386,0d828a45ab54823a65f9fca4,66a626ef09d4e21e1a8894ec,670567828e5c092145df8062,,,,,,,,,,,,,,,,,,,,,,,,195.8449,196.8604,a,1,[],[],[],[],[],[],[],0.3331,1,196.8605,197.3595,,,,,,391,FEM,AGR,150,altura,la,a,0.3331,,197.3596,197.3597,-0.00670856,-0.394059952,0,0,1,,0,37,37,390,1,,,,
,,,,,,,,,2024-10-08_11h40.17.420,Tarea de género gramatical,2024.2.1,MacIntel,60.24096386,0d828a45ab54823a65f9fca4,66a626ef09d4e21e1a8894ec,670567828e5c092145df8062,,,,,,,,,,,,,,,,,,,,,,,,197.3611,198.9929,l,0,[],[],[],[],[],[],[],0.9622,0,198.9939,199.4931,,,,,,67,FEM,AGR,150,miel,la,a,0.9622,,199.4948,199.4959,-0.00670856,-0.394059952,0,0,1,,0,38,38,66,1,,,,
,,,,,,,,,2024-10-08_11h40.17.420,Tarea de género gramatical,2024.2.1,MacIntel,60.24096386,0d828a45ab54823a65f9fca4,66a626ef09d4e21e1a8894ec,670567828e5c092145df8062,,,,,,,,,,,,,,,,,,,,,,,,199.4968,200.6587,l,1,[],[],[],[],[],[],[],0.4864,1,200.6596,201.1594,,,,,,112,MAS,AGR,150,reto,el,l,0.4864,,201.1595,201.1597,-0.00670856,-0.394059952,0,0,1,,0,39,39,111,1,,,,
,,,,,,,,,2024-10-08_11h40.17.420,Tarea de género gramatical,2024.2.1,MacIntel,60.24096386,0d828a45ab54823a65f9fca4,66a626ef09d4e21e1a8894ec,670567828e5c092145df8062,,,,,,,,,,,,,,,,,,,,,,,,201.161,202.3431,l,0,[],[],[],[],[],[],[],0.501,0,202.3446,202.8429,,,,,,171,FEM,DIS,150,mitad,el,a,0.501,,202.843,202.843,-0.00670856,-0.394059952,0,0,1,,0,40,40,170,1,,,,
,,,,,,,,,2024-10-08_11h40.17.420,Tarea de género gramatical,2024.2.1,MacIntel,60.24096386,0d828a45ab54823a65f9fca4,66a626ef09d4e21e1a8894ec,670567828e5c092145df8062,,,,,,,,,,,,,,,,,,,,,,,,202.8444,204.0762,l,1,[],[],[],[],[],[],[],0.5525,1,204.0774,204.5763,,,,,,274,MAS,AGR,150,motor,el,l,0.5525,,204.5764,204.5765,-0.00670856,-0.394059952,0,0,1,,0,41,41,273,1,,,,
,,,,,,,,,2024-10-08_11h40.17.420,Tarea de género gramatical,2024.2.1,MacIntel,60.24096386,0d828a45ab54823a65f9fca4,66a626ef09d4e21e1a8894ec,670567828e5c092145df8062,,,,,,,,,,,,,,,,,,,,,,,,204.5783,205.8432,l,1,[],[],[],[],[],[],[],0.5967,1,205.8435,206.3429,,,,,,382,MAS,AGR,150,teatro,el,l,0.5967,,206.3449,206.3459,-0.00670856,-0.394059952,0,0,1,,0,42,42,381,1,,,,
,,,,,,,,,2024-10-08_11h40.17.420,Tarea de género gramatical,2024.2.1,MacIntel,60.24096386,0d828a45ab54823a65f9fca4,66a626ef09d4e21e1a8894ec,670567828e5c092145df8062,,,,,,,,,,,,,,,,,,,,,,,,206.3468,207.5428,a,1,[],[],[],[],[],[],[],0.5175,1,207.543,208.0429,,,,,,21,FEM,DIS,150,boca,el,a,0.5175,,208.0431,208.0432,-0.00670856,-0.394059952,0,0,1,,0,43,43,20,1,,,,
,,,,,,,,,2024-10-08_11h40.17.420,Tarea de género gramatical,2024.2.1,MacIntel,60.24096386,0d828a45ab54823a65f9fca4,66a626ef09d4e21e1a8894ec,670567828e5c092145df8062,,,,,,,,,,,,,,,,,,,,,,,,208.0449,209.4253,a,0,[],[],[],[],[],[],[],0.699,0,209.4264,209.9262,,,,,,210,MAS,DIS,150,baile,la,l,0.699,,209.9262,209.9265,-0.00670856,-0.394059952,0,0,1,,0,44,44,209,1,,,,
,,,,,,,,,2024-10-08_11h40.17.420,Tarea de género gramatical,2024.2.1,MacIntel,60.24096386,0d828a45ab54823a65f9fca4,66a626ef09d4e21e1a8894ec,670567828e5c092145df8062,,,,,,,,,,,,,,,,,,,,,,,,209.9283,211.4262,l,1,[],[],[],[],[],[],[],0.8178,1,211.4275,211.9262,,,,,,256,MAS,AGR,150,techo,el,l,0.8178,,211.9263,211.9264,-0.00670856,-0.394059952,0,0,1,,0,45,45,255,1,,,,
,,,,,,,,,2024-10-08_11h40.17.420,Tarea de género gramatical,2024.2.1,MacIntel,60.24096386,0d828a45ab54823a65f9fca4,66a626ef09d4e21e1a8894ec,670567828e5c092145df8062,,,,,,,,,,,,,,,,,,,,,,,,211.9279,213.492,a,1,[],[],[],[],[],[],[],0.8837,1,213.4923,213.9928,,,,,,157,FEM,AGR,150,madre,la,a,0.8837,,213.9929,213.993,-0.00670856,-0.394059952,0,0,1,,0,46,46,156,1,,,,
,,,,,,,,,2024-10-08_11h40.17.420,Tarea de género gramatical,2024.2.1,MacIntel,60.24096386,0d828a45ab54823a65f9fca4,66a626ef09d4e21e1a8894ec,670567828e5c092145df8062,,,,,,,,,,,,,,,,,,,,,,,,213.9944,215.3421,l,1,[],[],[],[],[],[],[],0.6763,1,215.3422,215.8419,,,,,,293,MAS,CON,150,patio,,l,0.6763,,215.8432,215.8444,-0.00670856,-0.394059952,0,0,1,,0,47,47,292,1,,,,
,,,,,,,,,2024-10-08_11h40.17.420,Tarea de género gramatical,2024.2.1,MacIntel,60.24096386,0d828a45ab54823a65f9fca4,66a626ef09d4e21e1a8894ec,670567828e5c092145df8062,,,,,,,,,,,,,,,,,,,,,,,,215.8453,217.0096,a,1,[],[],[],[],[],[],[],0.4829,1,217.0099,217.5095,,,,,,417,FEM,DIS,150,cabaña,el,a,0.4829,,217.5096,217.5097,-0.00670856,-0.394059952,0,0,1,,0,48,48,416,1,,,,
,,,,,,,,,2024-10-08_11h40.17.420,Tarea de género gramatical,2024.2.1,MacIntel,60.24096386,0d828a45ab54823a65f9fca4,66a626ef09d4e21e1a8894ec,670567828e5c092145df8062,,,,,,,,,,,,,,,,,,,,,,,,217.5111,218.7098,a,1,[],[],[],[],[],[],[],0.5176,1,218.71,219.2087,,,,,,79,FEM,AGR,150,mina,la,a,0.5176,,219.2088,219.2089,-0.00670856,-0.394059952,0,0,1,,0,49,49,78,1,,,,
,,,,,,,,,2024-10-08_11h40.17.420,Tarea de género gramatical,2024.2.1,MacIntel,60.24096386,0d828a45ab54823a65f9fca4,66a626ef09d4e21e1a8894ec,670567828e5c092145df8062,,,,,,,,,,,,,,,,,,,,,,,,219.2102,220.243,l,1,[],[],[],[],[],[],[],0.3499,1,220.2432,220.743,,,,,,244,MAS,AGR,150,hielo,el,l,0.3499,,220.7431,220.7433,-0.00670856,-0.394059952,0,0,1,,0,50,50,243,1,,,,
,,,,,,,,,2024-10-08_11h40.17.420,Tarea de género gramatical,2024.2.1,MacIntel,60.24096386,0d828a45ab54823a65f9fca4,66a626ef09d4e21e1a8894ec,670567828e5c092145df8062,,,,,,,,,,,,,,,,,,,,,,,,220.7449,222.0587,l,0,[],[],[],[],[],[],[],0.6453,0,222.0591,222.5588,,,,,,201,FEM,DIS,150,leche,el,a,0.6453,,222.56,222.5608,-0.00670856,-0.394059952,0,0,1,,0,51,51,200,1,,,,
,,,,,,,,,2024-10-08_11h40.17.420,Tarea de género gramatical,2024.2.1,MacIntel,60.24096386,0d828a45ab54823a65f9fca4,66a626ef09d4e21e1a8894ec,670567828e5c092145df8062,,,,,,,,,,,,,,,,,,,,,,,,222.5617,223.7585,l,1,[],[],[],[],[],[],[],0.5172,1,223.7595,224.2585,,,,,,395,MAS,CON,150,correo,,l,0.5172,,224.2586,224.2588,-0.00670856,-0.394059952,0,0,1,,0,52,52,394,1,,,,
,,,,,,,,,2024-10-08_11h40.17.420,Tarea de género gramatical,2024.2.1,MacIntel,60.24096386,0d828a45ab54823a65f9fca4,66a626ef09d4e21e1a8894ec,670567828e5c092145df8062,,,,,,,,,,,,,,,,,,,,,,,,224.26,225.3088,l,1,[],[],[],[],[],[],[],0.3784,1,225.3088,225.8094,,,,,,238,MAS,AGR,150,norte,el,l,0.3784,,225.8095,225.8096,-0.00670856,-0.394059952,0,0,1,,0,53,53,237,1,,,,
,,,,,,,,,2024-10-08_11h40.17.420,Tarea de género gramatical,2024.2.1,MacIntel,60.24096386,0d828a45ab54823a65f9fca4,66a626ef09d4e21e1a8894ec,670567828e5c092145df8062,,,,,,,,,,,,,,,,,,,,,,,,225.8109,226.7927,l,0,[],[],[],[],[],[],[],0.3122,0,226.7938,227.2928,,,,,,374,FEM,CON,150,herida,,a,0.3122,,227.2929,227.293,-0.00670856,-0.394059952,0,0,1,,0,54,54,373,1,,,,
,,,,,,,,,2024-10-08_11h40.17.420,Tarea de género gramatical,2024.2.1,MacIntel,60.24096386,0d828a45ab54823a65f9fca4,66a626ef09d4e21e1a8894ec,670567828e5c092145df8062,,,,,,,,,,,,,,,,,,,,,,,,227.2947,228.3592,l,1,[],[],[],[],[],[],[],0.3881,1,228.3603,228.8596,,,,,,150,MAS,DIS,150,mozo,la,l,0.3881,,228.8597,228.8598,-0.00670856,-0.394059952,0,0,1,,0,55,55,149,1,,,,
,,,,,,,,,2024-10-08_11h40.17.420,Tarea de género gramatical,2024.2.1,MacIntel,60.24096386,0d828a45ab54823a65f9fca4,66a626ef09d4e21e1a8894ec,670567828e5c092145df8062,,,,,,,,,,,,,,,,,,,,,,,,228.8616,229.8591,a,1,[],[],[],[],[],[],[],0.3152,1,229.8592,230.3584,,,,,,19,FEM,AGR,150,niña,la,a,0.3152,,230.3595,230.3605,-0.00670856,-0.394059952,0,0,1,,0,56,56,18,1,,,,
,,,,,,,,,2024-10-08_11h40.17.420,Tarea de género gramatical,2024.2.1,MacIntel,60.24096386,0d828a45ab54823a65f9fca4,66a626ef09d4e21e1a8894ec,670567828e5c092145df8062,,,,,,,,,,,,,,,,,,,,,,,,230.3613,231.7596,l,0,[],[],[],[],[],[],[],0.7293,0,231.7607,232.2595,,,,,,368,FEM,CON,150,gracia,,a,0.7293,,232.2595,232.2598,-0.00670856,-0.394059952,0,0,1,,0,57,57,367,1,,,,
,,,,,,,,,2024-10-08_11h40.17.420,Tarea de género gramatical,2024.2.1,MacIntel,60.24096386,0d828a45ab54823a65f9fca4,66a626ef09d4e21e1a8894ec,670567828e5c092145df8062,,,,,,,,,,,,,,,,,,,,,,,,232.2613,233.3927,a,1,[],[],[],[],[],[],[],0.4622,1,233.3941,233.8929,,,,,,69,FEM,DIS,150,rata,el,a,0.4622,,233.8929,233.8931,-0.00670856,-0.394059952,0,0,1,,0,58,58,68,1,,,,
,,,,,,,,,2024-10-08_11h40.17.420,Tarea de género gramatical,2024.2.1,MacIntel,60.24096386,0d828a45ab54823a65f9fca4,66a626ef09d4e21e1a8894ec,670567828e5c092145df8062,,,,,,,,,,,,,,,,,,,,,,,,233.8948,235.2595,l,1,[],[],[],[],[],[],[],0.6835,1,235.2597,235.759,,,,,,276,MAS,DIS,150,ritmo,la,l,0.6835,,235.7591,235.7592,-0.00670856,-0.394059952,0,0,1,,0,59,59,275,1,,,,
,,,,,,,,,2024-10-08_11h40.17.420,Tarea de género gramatical,2024.2.1,MacIntel,60.24096386,0d828a45ab54823a65f9fca4,66a626ef09d4e21e1a8894ec,670567828e5c092145df8062,,,,,,,,,,,,,,,,,,,,,,,,235.7607,236.8761,a,0,[],[],[],[],[],[],[],0.4346,0,236.8774,237.3761,,,,,,389,MAS,CON,150,tamaño,,l,0.4346,,237.378,237.3792,-0.00670856,-0.394059952,0,0,1,,0,60,60,388,1,,,,
,,,,,,,,,2024-10-08_11h40.17.420,Tarea de género gramatical,2024.2.1,MacIntel,60.24096386,0d828a45ab54823a65f9fca4,66a626ef09d4e21e1a8894ec,670567828e5c092145df8062,,,,,,,,,,,,,,,,,,,,,,,,237.3801,238.8092,a,1,[],[],[],[],[],[],[],0.75,1,238.8105,239.3095,,,,,,87,FEM,DIS,150,risa,el,a,0.75,,239.3096,239.3097,-0.00670856,-0.394059952,0,0,1,,0,61,61,86,1,,,,
,,,,,,,,,2024-10-08_11h40.17.420,Tarea de género gramatical,2024.2.1,MacIntel,60.24096386,0d828a45ab54823a65f9fca4,66a626ef09d4e21e1a8894ec,670567828e5c092145df8062,,,,,,,,,,,,,,,,,,,,,,,,239.3113,240.5427,a,1,[],[],[],[],[],[],[],0.5509,1,240.5429,241.0427,,,,,,248,FEM,CON,150,letra,,a,0.5509,,241.0429,241.0431,-0.00670856,-0.394059952,0,0,1,,0,62,62,247,1,,,,
,,,,,,,,,2024-10-08_11h40.17.420,Tarea de género gramatical,2024.2.1,MacIntel,60.24096386,0d828a45ab54823a65f9fca4,66a626ef09d4e21e1a8894ec,670567828e5c092145df8062,,,,,,,,,,,,,,,,,,,,,,,,241.0447,242.192,l,1,[],[],[],[],[],[],[],0.471,1,242.1922,242.6928,,,,,,66,MAS,DIS,150,muro,la,l,0.471,,242.6929,242.693,-0.00670856,-0.394059952,0,0,1,,0,63,63,65,1,,,,
,,,,,,,,,2024-10-08_11h40.17.420,Tarea de género gramatical,2024.2.1,MacIntel,60.24096386,0d828a45ab54823a65f9fca4,66a626ef09d4e21e1a8894ec,670567828e5c092145df8062,,,,,,,,,,,,,,,,,,,,,,,,242.6947,243.9595,l,0,[],[],[],[],[],[],[],0.5849,0,243.9611,244.4595,,,,,,411,FEM,DIS,150,actriz,el,a,0.5849,,244.4596,244.4597,-0.00670856,-0.394059952,0,0,1,,0,64,64,410,1,,,,
,,,,,,,,,2024-10-08_11h40.17.420,Tarea de género gramatical,2024.2.1,MacIntel,60.24096386,0d828a45ab54823a65f9fca4,66a626ef09d4e21e1a8894ec,670567828e5c092145df8062,,,,,,,,,,,,,,,,,,,,,,,,244.4615,246.026,l,1,[],[],[],[],[],[],[],0.8853,1,246.0273,246.5261,,,,,,378,MAS,DIS,150,pastel,la,l,0.8853,,246.5281,246.5292,-0.00670856,-0.394059952,0,0,1,,0,65,65,377,1,,,,
,,,,,,,,,2024-10-08_11h40.17.420,Tarea de género gramatical,2024.2.1,MacIntel,60.24096386,0d828a45ab54823a65f9fca4,66a626ef09d4e21e1a8894ec,670567828e5c092145df8062,,,,,,,,,,,,,,,,,,,,,,,,246.5302,247.7928,l,1,[],[],[],[],[],[],[],0.5838,1,247.793,248.2928,,,,,,377,MAS,CON,150,jardín,,l,0.5838,,248.2928,248.293,-0.00670856,-0.394059952,0,0,1,,0,66,66,376,1,,,,
,,,,,,,,,2024-10-08_11h40.17.420,Tarea de género gramatical,2024.2.1,MacIntel,60.24096386,0d828a45ab54823a65f9fca4,66a626ef09d4e21e1a8894ec,670567828e5c092145df8062,,,,,,,,,,,,,,,,,,,,,,,,248.2947,249.6427,a,0,[],[],[],[],[],[],[],0.6769,0,249.6438,250.1423,,,,,,436,MAS,AGR,150,objeto,el,l,0.6769,,250.1423,250.1425,-0.00670856,-0.394059952,0,0,1,,0,67,67,435,1,,,,
,,,,,,,,,2024-10-08_11h40.17.420,Tarea de género gramatical,2024.2.1,MacIntel,60.24096386,0d828a45ab54823a65f9fca4,66a626ef09d4e21e1a8894ec,670567828e5c092145df8062,,,,,,,,,,,,,,,,,,,,,,,,250.1441,251.3425,l,1,[],[],[],[],[],[],[],0.5267,1,251.3436,251.8427,,,,,,179,MAS,CON,150,viaje,,l,0.5267,,251.8428,251.843,-0.00670856,-0.394059952,0,0,1,,0,68,68,178,1,,,,
,,,,,,,,,2024-10-08_11h40.17.420,Tarea de género gramatical,2024.2.1,MacIntel,60.24096386,0d828a45ab54823a65f9fca4,66a626ef09d4e21e1a8894ec,670567828e5c092145df8062,,,,,,,,,,,,,,,,,,,,,,,,251.8445,253.1761,a,1,[],[],[],[],[],[],[],0.652,1,253.1762,253.6761,,,,,,105,FEM,DIS,150,jefa,el,a,0.652,,253.6778,253.6789,-0.00670856,-0.394059952,0,0,1,,0,69,69,104,1,,,,
,,,,,,,,,2024-10-08_11h40.17.420,Tarea de género gramatical,2024.2.1,MacIntel,60.24096386,0d828a45ab54823a65f9fca4,66a626ef09d4e21e1a8894ec,670567828e5c092145df8062,,,,,,,,,,,,,,,,,,,,,,,,253.6797,254.9926,a,1,[],[],[],[],[],[],[],0.6452,1,254.9927,255.4927,,,,,,57,FEM,DIS,150,moda,el,a,0.6452,,255.4928,255.4931,-0.00670856,-0.394059952,0,0,1,,0,70,70,56,1,,,,
,,,,,,,,,2024-10-08_11h40.17.420,Tarea de género gramatical,2024.2.1,MacIntel,60.24096386,0d828a45ab54823a65f9fca4,66a626ef09d4e21e1a8894ec,670567828e5c092145df8062,,,,,,,,,,,,,,,,,,,,,,,,255.4947,257.2427,a,1,[],[],[],[],[],[],[],1.0665,1,257.2428,257.7419,,,,,,85,FEM,AGR,150,gira,la,a,1.0665,,257.7419,257.742,-0.00670856,-0.394059952,0,0,1,,0,71,71,84,1,,,,
,,,,,,,,,2024-10-08_11h40.17.420,Tarea de género gramatical,2024.2.1,MacIntel,60.24096386,0d828a45ab54823a65f9fca4,66a626ef09d4e21e1a8894ec,670567828e5c092145df8062,,,,,,,,,,,,,,,,,,,,,,,,257.7436,258.9594,l,0,[],[],[],[],[],[],[],0.5341,0,258.9607,259.4593,,,,,,247,FEM,AGR,150,frase,la,a,0.5341,,259.4594,259.4596,-0.00670856,-0.394059952,0,0,1,,0,72,72,246,1,,,,
,,,,,,,,,2024-10-08_11h40.17.420,Tarea de género gramatical,2024.2.1,MacIntel,60.24096386,0d828a45ab54823a65f9fca4,66a626ef09d4e21e1a8894ec,670567828e5c092145df8062,,,,,,,,,,,,,,,,,,,,,,,,259.4609,260.9254,a,1,[],[],[],[],[],[],[],0.7858,1,260.9266,261.4261,,,,,,115,FEM,AGR,150,seda,la,a,0.7858,,261.4261,261.4263,-0.00670856,-0.394059952,0,0,1,,0,73,73,114,1,,,,
,,,,,,,,,2024-10-08_11h40.17.420,Tarea de género gramatical,2024.2.1,MacIntel,60.24096386,0d828a45ab54823a65f9fca4,66a626ef09d4e21e1a8894ec,670567828e5c092145df8062,,,,,,,,,,,,,,,,,,,,,,,,261.4279,262.5426,a,1,[],[],[],[],[],[],[],0.4361,1,262.5427,263.0427,,,,,,434,FEM,CON,150,corona,,a,0.4361,,263.0445,263.0458,-0.00670856,-0.394059952,0,0,1,,0,74,74,433,1,,,,
,,,,,,,,,2024-10-08_11h40.17.420,Tarea de género gramatical,2024.2.1,MacIntel,60.24096386,0d828a45ab54823a65f9fca4,66a626ef09d4e21e1a8894ec,670567828e5c092145df8062,,,,,,,,,,,,,,,,,,,,,,,,263.0468,264.7255,l,0,[],[],[],[],[],[],[],1.0021,0,264.7271,265.2258,,,,,,163,FEM,AGR,150,calle,la,a,1.0021,,265.226,265.2261,-0.00670856,-0.394059952,0,0,1,,0,75,75,162,1,,,,
,,,,,,,,,2024-10-08_11h40.17.420,Tarea de género gramatical,2024.2.1,MacIntel,60.24096386,0d828a45ab54823a65f9fca4,66a626ef09d4e21e1a8894ec,670567828e5c092145df8062,,,,,,,,,,,,,,,,,,,,,,,,265.2275,266.5758,l,1,[],[],[],[],[],[],[],0.6707,1,266.5769,267.076,,,,,,47,MAS,CON,150,olor,,l,0.6707,,267.0761,267.0763,-0.00670856,-0.394059952,0,0,1,,0,76,76,46,1,,,,
,,,,,,,,,2024-10-08_11h40.17.420,Tarea de género gramatical,2024.2.1,MacIntel,60.24096386,0d828a45ab54823a65f9fca4,66a626ef09d4e21e1a8894ec,670567828e5c092145df8062,,,,,,,,,,,,,,,,,,,,,,,,267.0778,268.4427,l,1,[],[],[],[],[],[],[],0.6831,1,268.4429,268.9426,,,,,,348,MAS,DIS,150,anillo,la,l,0.6831,,268.9428,268.9429,-0.00670856,-0.394059952,0,0,1,,0,77,77,347,1,,,,
,,,,,,,,,2024-10-08_11h40.17.420,Tarea de género gramatical,2024.2.1,MacIntel,60.24096386,0d828a45ab54823a65f9fca4,66a626ef09d4e21e1a8894ec,670567828e5c092145df8062,,,,,,,,,,,,,,,,,,,,,,,,268.9443,270.4423,l,1,[],[],[],[],[],[],[],0.8279,1,270.4424,270.9427,,,,,,239,MAS,CON,150,reloj,,l,0.8279,,270.9444,270.9457,-0.00670856,-0.394059952,0,0,1,,0,78,78,238,1,,,,
,,,,,,,,,2024-10-08_11h40.17.420,Tarea de género gramatical,2024.2.1,MacIntel,60.24096386,0d828a45ab54823a65f9fca4,66a626ef09d4e21e1a8894ec,670567828e5c092145df8062,,,,,,,,,,,,,,,,,,,,,,,,270.9466,272.1093,a,1,[],[],[],[],[],[],[],0.4823,1,272.1094,272.6093,,,,,,429,FEM,DIS,150,fianza,el,a,0.4823,,272.6095,272.6097,-0.00670856,-0.394059952,0,0,1,,0,79,79,428,1,,,,
,,,,,,,,,2024-10-08_11h40.17.420,Tarea de género gramatical,2024.2.1,MacIntel,60.24096386,0d828a45ab54823a65f9fca4,66a626ef09d4e21e1a8894ec,670567828e5c092145df8062,,,,,,,,,,,,,,,,,,,,,,,,272.6113,273.9926,l,1,[],[],[],[],[],[],[],0.7121,1,273.9929,274.4927,,,,,,450,MAS,DIS,150,conejo,la,l,0.7121,,274.4929,274.4931,-0.00670856,-0.394059952,0,0,1,,0,80,80,449,1,,,,
,,,,,,,,,2024-10-08_11h40.17.420,Tarea de género gramatical,2024.2.1,MacIntel,60.24096386,0d828a45ab54823a65f9fca4,66a626ef09d4e21e1a8894ec,670567828e5c092145df8062,,,,,,,,,,,,,,,,,,,,,,,,274.4945,275.609,l,1,[],[],[],[],[],[],[],0.4453,1,275.6092,276.1092,,,,,,18,MAS,DIS,150,tren,la,l,0.4453,,276.1093,276.1095,-0.00670856,-0.394059952,0,0,1,,0,81,81,17,1,,,,
,,,,,,,,,2024-10-08_11h40.17.420,Tarea de género gramatical,2024.2.1,MacIntel,60.24096386,0d828a45ab54823a65f9fca4,66a626ef09d4e21e1a8894ec,670567828e5c092145df8062,,,,,,,,,,,,,,,,,,,,,,,,276.111,277.2926,l,1,[],[],[],[],[],[],[],0.5004,1,277.2928,277.7927,,,,,,305,MAS,CON,150,hombre,,l,0.5004,,277.7928,277.793,-0.00670856,-0.394059952,0,0,1,,0,82,82,304,1,,,,
,,,,,,,,,2024-10-08_11h40.17.420,Tarea de género gramatical,2024.2.1,MacIntel,60.24096386,0d828a45ab54823a65f9fca4,66a626ef09d4e21e1a8894ec,670567828e5c092145df8062,,,,,,,,,,,,,,,,,,,,,,,,277.7944,279.0255,l,1,[],[],[],[],[],[],[],0.55,1,279.0257,279.526,,,,,,203,MAS,CON,150,novio,,l,0.55,,279.5277,279.529,-0.00670856,-0.394059952,0,0,1,,0,83,83,202,1,,,,
,,,,,,,,,2024-10-08_11h40.17.420,Tarea de género gramatical,2024.2.1,MacIntel,60.24096386,0d828a45ab54823a65f9fca4,66a626ef09d4e21e1a8894ec,670567828e5c092145df8062,,,,,,,,,,,,,,,,,,,,,,,,279.5299,280.676,a,1,[],[],[],[],[],[],[],0.4672,1,280.6761,281.1759,,,,,,187,FEM,AGR,150,lista,la,a,0.4672,,281.1761,281.1762,-0.00670856,-0.394059952,0,0,1,,0,84,84,186,1,,,,
,,,,,,,,,2024-10-08_11h40.17.420,Tarea de género gramatical,2024.2.1,MacIntel,60.24096386,0d828a45ab54823a65f9fca4,66a626ef09d4e21e1a8894ec,670567828e5c092145df8062,,,,,,,,,,,,,,,,,,,,,,,,281.1778,282.5096,l,0,[],[],[],[],[],[],[],0.6631,0,282.5103,283.0092,,,,,,211,FEM,AGR,150,salud,la,a,0.6631,,283.0093,283.0094,-0.00670856,-0.394059952,0,0,1,,0,85,85,210,1,,,,
,,,,,,,,,2024-10-08_11h40.17.420,Tarea de género gramatical,2024.2.1,MacIntel,60.24096386,0d828a45ab54823a65f9fca4,66a626ef09d4e21e1a8894ec,670567828e5c092145df8062,,,,,,,,,,,,,,,,,,,,,,,,283.0107,284.1759,a,1,[],[],[],[],[],[],[],0.4873,1,284.1768,284.6752,,,,,,98,FEM,CON,150,fuga,,a,0.4873,,284.6753,284.6756,-0.00670856,-0.394059952,0,0,1,,0,86,86,97,1,,,,
,,,,,,,,,2024-10-08_11h40.17.420,Tarea de género gramatical,2024.2.1,MacIntel,60.24096386,0d828a45ab54823a65f9fca4,66a626ef09d4e21e1a8894ec,670567828e5c092145df8062,,,,,,,,,,,,,,,,,,,,,,,,284.6766,285.7752,l,0,[],[],[],[],[],[],[],0.4284,0,285.776,286.2759,,,,,,25,FEM,AGR,150,nave,la,a,0.4284,,286.2777,286.2789,-0.00670856,-0.394059952,0,0,1,,0,87,87,24,1,,,,
,,,,,,,,,2024-10-08_11h40.17.420,Tarea de género gramatical,2024.2.1,MacIntel,60.24096386,0d828a45ab54823a65f9fca4,66a626ef09d4e21e1a8894ec,670567828e5c092145df8062,,,,,,,,,,,,,,,,,,,,,,,,286.2799,287.7425,l,1,[],[],[],[],[],[],[],0.7961,1,287.744,288.2426,,,,,,341,MAS,CON,150,precio,,l,0.7961,,288.2426,288.2428,-0.00670856,-0.394059952,0,0,1,,0,88,88,340,1,,,,
,,,,,,,,,2024-10-08_11h40.17.420,Tarea de género gramatical,2024.2.1,MacIntel,60.24096386,0d828a45ab54823a65f9fca4,66a626ef09d4e21e1a8894ec,670567828e5c092145df8062,,,,,,,,,,,,,,,,,,,,,,,,288.2446,289.6759,a,1,[],[],[],[],[],[],[],0.7503,1,289.6761,290.1759,,,,,,386,FEM,CON,150,sombra,,a,0.7503,,290.1759,290.1761,-0.00670856,-0.394059952,0,0,1,,0,89,89,385,1,,,,
,,,,,,,,,2024-10-08_11h40.17.420,Tarea de género gramatical,2024.2.1,MacIntel,60.24096386,0d828a45ab54823a65f9fca4,66a626ef09d4e21e1a8894ec,670567828e5c092145df8062,,,,,,,,,,,,,,,,,,,,,,,,290.1778,291.5094,a,1,[],[],[],[],[],[],[],0.6503,1,291.5095,292.0092,,,,,,313,FEM,AGR,150,ciudad,la,a,0.6503,,292.0093,292.0095,-0.00670856,-0.394059952,0,0,1,,0,90,90,312,1,,,,
,,,,,,,,,2024-10-08_11h40.17.420,Tarea de género gramatical,2024.2.1,MacIntel,60.24096386,0d828a45ab54823a65f9fca4,66a626ef09d4e21e1a8894ec,670567828e5c092145df8062,,,,,,,,,,,,,,,,,,,,,,,,292.0113,293.1926,a,1,[],[],[],[],[],[],[],0.5003,1,293.1927,293.6925,,,,,,381,FEM,DIS,150,bebida,el,a,0.5003,,293.6926,293.6928,-0.00670856,-0.394059952,0,0,1,,0,91,91,380,1,,,,
,,,,,,,,,2024-10-08_11h40.17.420,Tarea de género gramatical,2024.2.1,MacIntel,60.24096386,0d828a45ab54823a65f9fca4,66a626ef09d4e21e1a8894ec,670567828e5c092145df8062,,,,,,,,,,,,,,,,,,,,,,,,293.6943,294.9594,a,1,[],[],[],[],[],[],[],0.5839,1,294.9595,295.4592,,,,,,45,FEM,DIS,150,isla,el,a,0.5839,,295.461,295.4623,-0.00670856,-0.394059952,0,0,1,,0,92,92,44,1,,,,
,,,,,,,,,2024-10-08_11h40.17.420,Tarea de género gramatical,2024.2.1,MacIntel,60.24096386,0d828a45ab54823a65f9fca4,66a626ef09d4e21e1a8894ec,670567828e5c092145df8062,,,,,,,,,,,,,,,,,,,,,,,,295.4631,296.6592,a,1,[],[],[],[],[],[],[],0.5194,1,296.6595,297.1593,,,,,,393,FEM,DIS,150,alarma,el,a,0.5194,,297.1593,297.1594,-0.00670856,-0.394059952,0,0,1,,0,93,93,392,1,,,,
,,,,,,,,,2024-10-08_11h40.17.420,Tarea de género gramatical,2024.2.1,MacIntel,60.24096386,0d828a45ab54823a65f9fca4,66a626ef09d4e21e1a8894ec,670567828e5c092145df8062,,,,,,,,,,,,,,,,,,,,,,,,297.1613,298.326,l,0,[],[],[],[],[],[],[],0.4836,0,298.3274,298.8259,,,,,,151,FEM,AGR,150,noche,la,a,0.4836,,298.826,298.8262,-0.00670856,-0.394059952,0,0,1,,0,94,94,150,1,,,,
,,,,,,,,,2024-10-08_11h40.17.420,Tarea de género gramatical,2024.2.1,MacIntel,60.24096386,0d828a45ab54823a65f9fca4,66a626ef09d4e21e1a8894ec,670567828e5c092145df8062,,,,,,,,,,,,,,,,,,,,,,,,298.8275,300.0427,a,1,[],[],[],[],[],[],[],0.5337,1,300.0441,300.5426,,,,,,237,FEM,DIS,150,ducha,el,a,0.5337,,300.5427,300.5429,-0.00670856,-0.394059952,0,0,1,,0,95,95,236,1,,,,
,,,,,,,,,2024-10-08_11h40.17.420,Tarea de género gramatical,2024.2.1,MacIntel,60.24096386,0d828a45ab54823a65f9fca4,66a626ef09d4e21e1a8894ec,670567828e5c092145df8062,,,,,,,,,,,,,,,,,,,,,,,,300.5447,301.8259,a,1,[],[],[],[],[],[],[],0.601,1,301.8261,302.3259,,,,,,345,FEM,DIS,150,pierna,el,a,0.601,,302.3278,302.3289,-0.00670856,-0.394059952,0,0,1,,0,96,96,344,1,,,,
,,,,,,,,,2024-10-08_11h40.17.420,Tarea de género gramatical,2024.2.1,MacIntel,60.24096386,0d828a45ab54823a65f9fca4,66a626ef09d4e21e1a8894ec,670567828e5c092145df8062,,,,,,,,,,,,,,,,,,,,,,,,302.3298,303.6259,l,1,[],[],[],[],[],[],[],0.6176,1,303.6261,304.125,,,,,,136,MAS,AGR,150,vago,el,l,0.6176,,304.1251,304.1254,-0.00670856,-0.394059952,0,0,1,,0,97,97,135,1,,,,
,,,,,,,,,2024-10-08_11h40.17.420,Tarea de género gramatical,2024.2.1,MacIntel,60.24096386,0d828a45ab54823a65f9fca4,66a626ef09d4e21e1a8894ec,670567828e5c092145df8062,,,,,,,,,,,,,,,,,,,,,,,,304.1266,305.2758,l,1,[],[],[],[],[],[],[],0.4709,1,305.276,305.7758,,,,,,119,MAS,CON,150,mito,,l,0.4709,,305.7758,305.776,-0.00670856,-0.394059952,0,0,1,,0,98,98,118,1,,,,
,,,,,,,,,2024-10-08_11h40.17.420,Tarea de género gramatical,2024.2.1,MacIntel,60.24096386,0d828a45ab54823a65f9fca4,66a626ef09d4e21e1a8894ec,670567828e5c092145df8062,,,,,,,,,,,,,,,,,,,,,,,,305.7776,307.0758,a,1,[],[],[],[],[],[],[],0.6171,1,307.0759,307.5759,,,,,,321,FEM,DIS,150,comida,el,a,0.6171,,307.576,307.5762,-0.00670856,-0.394059952,0,0,1,,0,99,99,320,1,,,,
,,,,,,,,,2024-10-08_11h40.17.420,Tarea de género gramatical,2024.2.1,MacIntel,60.24096386,0d828a45ab54823a65f9fca4,66a626ef09d4e21e1a8894ec,670567828e5c092145df8062,,,,,,,,,,,,,,,,,,,,,,,,307.5777,308.776,a,1,[],[],[],[],[],[],[],0.5166,1,308.7762,309.2759,,,,,,129,FEM,DIS,150,rana,el,a,0.5166,,309.276,309.2761,-0.00670856,-0.394059952,0,0,1,,0,100,100,128,1,,,,
,,,,,,,,,2024-10-08_11h40.17.420,Tarea de género gramatical,2024.2.1,MacIntel,60.24096386,0d828a45ab54823a65f9fca4,66a626ef09d4e21e1a8894ec,670567828e5c092145df8062,,,,,,,,,,,,,,,,,,,,,,,,309.2778,310.3091,l,1,[],[],[],[],[],[],[],0.3547,1,310.3093,310.8083,,,,,,304,MAS,AGR,150,tiempo,el,l,0.3547,,310.8099,310.8113,-0.00670856,-0.394059952,0,0,1,,0,101,101,303,1,,,,
,,,,,,,,,2024-10-08_11h40.17.420,Tarea de género gramatical,2024.2.1,MacIntel,60.24096386,0d828a45ab54823a65f9fca4,66a626ef09d4e21e1a8894ec,670567828e5c092145df8062,,,,,,,,,,,,,,,,,,,,,,,,310.8122,312.1088,a,1,[],[],[],[],[],[],[],0.6285,1,312.1089,312.6091,,,,,,403,FEM,AGR,150,paliza,la,a,0.6285,,312.6092,312.6094,-0.00670856,-0.394059952,0,0,1,,0,102,102,402,1,,,,
,,,,,,,,,2024-10-08_11h40.17.420,Tarea de género gramatical,2024.2.1,MacIntel,60.24096386,0d828a45ab54823a65f9fca4,66a626ef09d4e21e1a8894ec,670567828e5c092145df8062,,,,,,,,,,,,,,,,,,,,,,,,312.611,314.0925,a,1,[],[],[],[],[],[],[],0.8012,1,314.0927,314.5926,,,,,,27,FEM,DIS,150,mesa,el,a,0.8012,,314.5927,314.5928,-0.00670856,-0.394059952,0,0,1,,0,103,103,26,1,,,,
,,,,,,,,,2024-10-08_11h40.17.420,Tarea de género gramatical,2024.2.1,MacIntel,60.24096386,0d828a45ab54823a65f9fca4,66a626ef09d4e21e1a8894ec,670567828e5c092145df8062,,,,,,,,,,,,,,,,,,,,,,,,314.5948,315.8751,a,0,[],[],[],[],[],[],[],0.6002,0,315.8761,316.3758,,,,,,35,MAS,CON,150,taxi,,l,0.6002,,316.3759,316.3761,-0.00670856,-0.394059952,0,0,1,,0,104,104,34,1,,,,
,,,,,,,,,2024-10-08_11h40.17.420,Tarea de género gramatical,2024.2.1,MacIntel,60.24096386,0d828a45ab54823a65f9fca4,66a626ef09d4e21e1a8894ec,670567828e5c092145df8062,,,,,,,,,,,,,,,,,,,,,,,,316.3779,317.7423,a,1,[],[],[],[],[],[],[],0.6929,1,317.7435,318.2423,,,,,,428,FEM,CON,150,jugada,,a,0.6929,,318.2441,318.2451,-0.00670856,-0.394059952,0,0,1,,0,105,105,427,1,,,,
,,,,,,,,,2024-10-08_11h40.17.420,Tarea de género gramatical,2024.2.1,MacIntel,60.24096386,0d828a45ab54823a65f9fca4,66a626ef09d4e21e1a8894ec,670567828e5c092145df8062,,,,,,,,,,,,,,,,,,,,,,,,318.2459,319.3757,l,1,[],[],[],[],[],[],[],0.4522,1,319.376,319.8755,,,,,,300,MAS,DIS,150,túnel,la,l,0.4522,,319.8756,319.8758,-0.00670856,-0.394059952,0,0,1,,0,106,106,299,1,,,,
,,,,,,,,,2024-10-08_11h40.17.420,Tarea de género gramatical,2024.2.1,MacIntel,60.24096386,0d828a45ab54823a65f9fca4,66a626ef09d4e21e1a8894ec,670567828e5c092145df8062,,,,,,,,,,,,,,,,,,,,,,,,319.8772,321.1592,a,1,[],[],[],[],[],[],[],0.6009,1,321.1594,321.6592,,,,,,49,FEM,AGR,150,piel,la,a,0.6009,,321.6593,321.6594,-0.00670856,-0.394059952,0,0,1,,0,107,107,48,1,,,,
,,,,,,,,,2024-10-08_11h40.17.420,Tarea de género gramatical,2024.2.1,MacIntel,60.24096386,0d828a45ab54823a65f9fca4,66a626ef09d4e21e1a8894ec,670567828e5c092145df8062,,,,,,,,,,,,,,,,,,,,,,,,321.6611,322.859,a,1,[],[],[],[],[],[],[],0.5212,1,322.8592,323.3591,,,,,,1,FEM,AGR,150,casa,la,a,0.5212,,323.3591,323.3593,-0.00670856,-0.394059952,0,0,1,,0,108,108,0,1,,,,
,,,,,,,,,2024-10-08_11h40.17.420,Tarea de género gramatical,2024.2.1,MacIntel,60.24096386,0d828a45ab54823a65f9fca4,66a626ef09d4e21e1a8894ec,670567828e5c092145df8062,,,,,,,,,,,,,,,,,,,,,,,,323.3609,324.558,a,1,[],[],[],[],[],[],[],0.5166,1,324.5582,325.059,,,,,,3,FEM,DIS,150,cosa,el,a,0.5166,,325.059,325.0592,-0.00670856,-0.394059952,0,0,1,,0,109,109,2,1,,,,
,,,,,,,,,2024-10-08_11h40.17.420,Tarea de género gramatical,2024.2.1,MacIntel,60.24096386,0d828a45ab54823a65f9fca4,66a626ef09d4e21e1a8894ec,670567828e5c092145df8062,,,,,,,,,,,,,,,,,,,,,,,,325.0606,326.3256,l,1,[],[],[],[],[],[],[],0.5842,1,326.3259,326.8257,,,,,,335,MAS,CON,150,montón,,l,0.5842,,326.8278,326.829,-0.00670856,-0.394059952,0,0,1,,0,110,110,334,1,,,,
,,,,,,,,,2024-10-08_11h40.17.420,Tarea de género gramatical,2024.2.1,MacIntel,60.24096386,0d828a45ab54823a65f9fca4,66a626ef09d4e21e1a8894ec,670567828e5c092145df8062,,,,,,,,,,,,,,,,,,,,,,,,326.83,328.0426,l,1,[],[],[],[],[],[],[],0.546,1,328.0428,328.5423,,,,,,281,MAS,CON,150,actor,,l,0.546,,328.5424,328.5425,-0.00670856,-0.394059952,0,0,1,,0,111,111,280,1,,,,
,,,,,,,,,2024-10-08_11h40.17.420,Tarea de género gramatical,2024.2.1,MacIntel,60.24096386,0d828a45ab54823a65f9fca4,66a626ef09d4e21e1a8894ec,670567828e5c092145df8062,,,,,,,,,,,,,,,,,,,,,,,,328.5438,329.7256,a,0,[],[],[],[],[],[],[],0.5105,0,329.7267,330.2257,,,,,,118,MAS,AGR,150,baúl,el,l,0.5105,,330.2258,330.2259,-0.00670856,-0.394059952,0,0,1,,0,112,112,117,1,,,,
,,,,,,,,,2024-10-08_11h40.17.420,Tarea de género gramatical,2024.2.1,MacIntel,60.24096386,0d828a45ab54823a65f9fca4,66a626ef09d4e21e1a8894ec,670567828e5c092145df8062,,,,,,,,,,,,,,,,,,,,,,,,330.2275,331.2923,l,0,[],[],[],[],[],[],[],0.3885,0,331.2924,331.7924,,,,,,427,FEM,AGR,150,agenda,la,a,0.3885,,331.7926,331.7927,-0.00670856,-0.394059952,0,0,1,,0,113,113,426,1,,,,
,,,,,,,,,2024-10-08_11h40.17.420,Tarea de género gramatical,2024.2.1,MacIntel,60.24096386,0d828a45ab54823a65f9fca4,66a626ef09d4e21e1a8894ec,670567828e5c092145df8062,,,,,,,,,,,,,,,,,,,,,,,,331.7943,332.9758,a,0,[],[],[],[],[],[],[],0.501,0,332.9759,333.4758,,,,,,54,MAS,DIS,150,humo,la,l,0.501,,333.4777,333.4788,-0.00670856,-0.394059952,0,0,1,,0,114,114,53,1,,,,
,,,,,,,,,2024-10-08_11h40.17.420,Tarea de género gramatical,2024.2.1,MacIntel,60.24096386,0d828a45ab54823a65f9fca4,66a626ef09d4e21e1a8894ec,670567828e5c092145df8062,,,,,,,,,,,,,,,,,,,,,,,,333.4796,334.7591,l,1,[],[],[],[],[],[],[],0.6014,1,334.7604,335.2591,,,,,,402,MAS,DIS,150,ladrón,la,l,0.6014,,335.2592,335.2593,-0.00670856,-0.394059952,0,0,1,,0,115,115,401,1,,,,
,,,,,,,,,2024-10-08_11h40.17.420,Tarea de género gramatical,2024.2.1,MacIntel,60.24096386,0d828a45ab54823a65f9fca4,66a626ef09d4e21e1a8894ec,670567828e5c092145df8062,,,,,,,,,,,,,,,,,,,,,,,,335.2609,336.5423,l,0,[],[],[],[],[],[],[],0.611,0,336.5434,337.0423,,,,,,319,FEM,AGR,150,sangre,la,a,0.611,,337.0425,337.0426,-0.00670856,-0.394059952,0,0,1,,0,116,116,318,1,,,,
,,,,,,,,,2024-10-08_11h40.17.420,Tarea de género gramatical,2024.2.1,MacIntel,60.24096386,0d828a45ab54823a65f9fca4,66a626ef09d4e21e1a8894ec,670567828e5c092145df8062,,,,,,,,,,,,,,,,,,,,,,,,337.0441,338.2258,l,1,[],[],[],[],[],[],[],0.5125,1,338.227,338.7258,,,,,,29,MAS,CON,150,frío,,l,0.5125,,338.7259,338.7261,-0.00670856,-0.394059952,0,0,1,,0,117,117,28,1,,,,
,,,,,,,,,2024-10-08_11h40.17.420,Tarea de género gramatical,2024.2.1,MacIntel,60.24096386,0d828a45ab54823a65f9fca4,66a626ef09d4e21e1a8894ec,670567828e5c092145df8062,,,,,,,,,,,,,,,,,,,,,,,,338.7277,339.7255,l,1,[],[],[],[],[],[],[],0.3282,1,339.7256,340.2257,,,,,,233,MAS,CON,150,golpe,,l,0.3282,,340.2257,340.2259,-0.00670856,-0.394059952,0,0,1,,0,118,118,232,1,,,,
,,,,,,,,,2024-10-08_11h40.17.420,Tarea de género gramatical,2024.2.1,MacIntel,60.24096386,0d828a45ab54823a65f9fca4,66a626ef09d4e21e1a8894ec,670567828e5c092145df8062,,,,,,,,,,,,,,,,,,,,,,,,340.2273,341.3081,l,1,[],[],[],[],[],[],[],0.4106,1,341.3082,341.8091,,,,,,94,MAS,AGR,150,cabo,el,l,0.4106,,341.8109,341.8121,-0.00670856,-0.394059952,0,0,1,,0,119,119,93,1,,,,
,,,,,,,,,2024-10-08_11h40.17.420,Tarea de género gramatical,2024.2.1,MacIntel,60.24096386,0d828a45ab54823a65f9fca4,66a626ef09d4e21e1a8894ec,670567828e5c092145df8062,,,,,,,,,,,,,,,,,,,,,,,,341.813,342.9091,l,1,[],[],[],[],[],[],[],0.4191,1,342.9092,343.4092,,,,,,172,MAS,AGR,150,poder,el,l,0.4191,,343.4093,343.4095,-0.00670856,-0.394059952,0,0,1,,0,120,120,171,1,,,,
,,,,,,,,,2024-10-08_11h40.17.420,Tarea de género gramatical,2024.2.1,MacIntel,60.24096386,0d828a45ab54823a65f9fca4,66a626ef09d4e21e1a8894ec,670567828e5c092145df8062,,,,,,,,,,,,,,,,,,,,,,,,343.4112,344.4923,l,1,[],[],[],[],[],[],[],0.4033,1,344.4925,344.9922,,,,,,36,MAS,DIS,150,dedo,la,l,0.4033,,344.9924,344.9926,-0.00670856,-0.394059952,0,0,1,,0,121,121,35,1,,,,
,,,,,,,,,2024-10-08_11h40.17.420,Tarea de género gramatical,2024.2.1,MacIntel,60.24096386,0d828a45ab54823a65f9fca4,66a626ef09d4e21e1a8894ec,670567828e5c092145df8062,,,,,,,,,,,,,,,,,,,,,,,,344.994,345.9924,l,0,[],[],[],[],[],[],[],0.317,0,345.9937,346.4924,,,,,,309,FEM,DIS,150,esposa,el,a,0.317,,346.4926,346.4926,-0.00670856,-0.394059952,0,0,1,,0,122,122,308,1,,,,
,,,,,,,,,2024-10-08_11h40.17.420,Tarea de género gramatical,2024.2.1,MacIntel,60.24096386,0d828a45ab54823a65f9fca4,66a626ef09d4e21e1a8894ec,670567828e5c092145df8062,,,,,,,,,,,,,,,,,,,,,,,,346.4945,347.7425,l,1,[],[],[],[],[],[],[],0.5671,1,347.7439,348.2423,,,,,,282,MAS,DIS,150,bolso,la,l,0.5671,,348.2438,348.245,-0.00670856,-0.394059952,0,0,1,,0,123,123,281,1,,,,
,,,,,,,,,2024-10-08_11h40.17.420,Tarea de género gramatical,2024.2.1,MacIntel,60.24096386,0d828a45ab54823a65f9fca4,66a626ef09d4e21e1a8894ec,670567828e5c092145df8062,,,,,,,,,,,,,,,,,,,,,,,,348.2458,349.5589,a,1,[],[],[],[],[],[],[],0.6336,1,349.5591,350.059,,,,,,51,FEM,DIS,150,bala,el,a,0.6336,,350.0591,350.0592,-0.00670856,-0.394059952,0,0,1,,0,124,124,50,1,,,,
,,,,,,,,,2024-10-08_11h40.17.420,Tarea de género gramatical,2024.2.1,MacIntel,60.24096386,0d828a45ab54823a65f9fca4,66a626ef09d4e21e1a8894ec,670567828e5c092145df8062,,,,,,,,,,,,,,,,,,,,,,,,350.0609,351.3091,l,0,[],[],[],[],[],[],[],0.5686,0,351.3104,351.8091,,,,,,267,FEM,DIS,150,barba,el,a,0.5686,,351.8092,351.8093,-0.00670856,-0.394059952,0,0,1,,0,125,125,266,1,,,,
,,,,,,,,,2024-10-08_11h40.17.420,Tarea de género gramatical,2024.2.1,MacIntel,60.24096386,0d828a45ab54823a65f9fca4,66a626ef09d4e21e1a8894ec,670567828e5c092145df8062,,,,,,,,,,,,,,,,,,,,,,,,351.8109,353.0257,a,1,[],[],[],[],[],[],[],0.5363,1,353.0269,353.5257,,,,,,351,FEM,DIS,150,espada,el,a,0.5363,,353.5257,353.5259,-0.00670856,-0.394059952,0,0,1,,0,126,126,350,1,,,,
,,,,,,,,,2024-10-08_11h40.17.420,Tarea de género gramatical,2024.2.1,MacIntel,60.24096386,0d828a45ab54823a65f9fca4,66a626ef09d4e21e1a8894ec,670567828e5c092145df8062,,,,,,,,,,,,,,,,,,,,,,,,353.5274,354.5757,l,1,[],[],[],[],[],[],[],0.3665,1,354.5758,355.0756,,,,,,149,MAS,CON,150,nudo,,l,0.3665,,355.0757,355.0759,-0.00670856,-0.394059952,0,0,1,,0,127,127,148,1,,,,
,,,,,,,,,2024-10-08_11h40.17.420,Tarea de género gramatical,2024.2.1,MacIntel,60.24096386,0d828a45ab54823a65f9fca4,66a626ef09d4e21e1a8894ec,670567828e5c092145df8062,,,,,,,,,,,,,,,,,,,,,,,,355.0774,356.1921,a,1,[],[],[],[],[],[],[],0.4447,1,356.1922,356.6924,,,,,,361,FEM,AGR,150,oferta,la,a,0.4447,,356.6942,356.6953,-0.00670856,-0.394059952,0,0,1,,0,128,128,360,1,,,,
,,,,,,,,,2024-10-08_11h40.17.420,Tarea de género gramatical,2024.2.1,MacIntel,60.24096386,0d828a45ab54823a65f9fca4,66a626ef09d4e21e1a8894ec,670567828e5c092145df8062,,,,,,,,,,,,,,,,,,,,,,,,356.6961,357.9423,l,1,[],[],[],[],[],[],[],0.568,1,357.9424,358.4422,,,,,,390,MAS,DIS,150,rostro,la,l,0.568,,358.4423,358.4424,-0.00670856,-0.394059952,0,0,1,,0,129,129,389,1,,,,
,,,,,,,,,2024-10-08_11h40.17.420,Tarea de género gramatical,2024.2.1,MacIntel,60.24096386,0d828a45ab54823a65f9fca4,66a626ef09d4e21e1a8894ec,670567828e5c092145df8062,,,,,,,,,,,,,,,,,,,,,,,,358.4438,359.7422,a,1,[],[],[],[],[],[],[],0.6261,1,359.7425,360.2424,,,,,,355,FEM,AGR,150,mirada,la,a,0.6261,,360.2424,360.2426,-0.00670856,-0.394059952,0,0,1,,0,130,130,354,1,,,,
,,,,,,,,,2024-10-08_11h40.17.420,Tarea de género gramatical,2024.2.1,MacIntel,60.24096386,0d828a45ab54823a65f9fca4,66a626ef09d4e21e1a8894ec,670567828e5c092145df8062,,,,,,,,,,,,,,,,,,,,,,,,360.2445,361.3921,l,0,[],[],[],[],[],[],[],0.4789,0,361.3932,361.8924,,,,,,231,FEM,DIS,150,bruja,el,a,0.4789,,361.8924,361.8926,-0.00670856,-0.394059952,0,0,1,,0,131,131,230,1,,,,
,,,,,,,,,2024-10-08_11h40.17.420,Tarea de género gramatical,2024.2.1,MacIntel,60.24096386,0d828a45ab54823a65f9fca4,66a626ef09d4e21e1a8894ec,670567828e5c092145df8062,,,,,,,,,,,,,,,,,,,,,,,,361.8943,363.159,a,0,[],[],[],[],[],[],[],0.5844,0,363.1592,363.659,,,,,,162,MAS,DIS,150,miedo,la,l,0.5844,,363.6608,363.6618,-0.00670856,-0.394059952,0,0,1,,0,132,132,161,1,,,,
,,,,,,,,,2024-10-08_11h40.17.420,Tarea de género gramatical,2024.2.1,MacIntel,60.24096386,0d828a45ab54823a65f9fca4,66a626ef09d4e21e1a8894ec,670567828e5c092145df8062,,,,,,,,,,,,,,,,,,,,,,,,363.6627,364.8254,l,1,[],[],[],[],[],[],[],0.4947,1,364.8265,365.3256,,,,,,180,MAS,DIS,150,fuego,la,l,0.4947,,365.3257,365.3259,-0.00670856,-0.394059952,0,0,1,,0,133,133,179,1,,,,
,,,,,,,,,2024-10-08_11h40.17.420,Tarea de género gramatical,2024.2.1,MacIntel,60.24096386,0d828a45ab54823a65f9fca4,66a626ef09d4e21e1a8894ec,670567828e5c092145df8062,,,,,,,,,,,,,,,,,,,,,,,,365.3276,366.6917,l,0,[],[],[],[],[],[],[],0.6838,0,366.693,367.1924,,,,,,333,FEM,DIS,150,locura,el,a,0.6838,,367.1924,367.1925,-0.00670856,-0.394059952,0,0,1,,0,134,134,332,1,,,,
,,,,,,,,,2024-10-08_11h40.17.420,Tarea de género gramatical,2024.2.1,MacIntel,60.24096386,0d828a45ab54823a65f9fca4,66a626ef09d4e21e1a8894ec,670567828e5c092145df8062,,,,,,,,,,,,,,,,,,,,,,,,367.1942,368.5091,a,1,[],[],[],[],[],[],[],0.6326,1,368.5105,369.0089,,,,,,91,FEM,AGR,150,hoja,la,a,0.6326,,369.009,369.0092,-0.00670856,-0.394059952,0,0,1,,0,135,135,90,1,,,,
,,,,,,,,,2024-10-08_11h40.17.420,Tarea de género gramatical,2024.2.1,MacIntel,60.24096386,0d828a45ab54823a65f9fca4,66a626ef09d4e21e1a8894ec,670567828e5c092145df8062,,,,,,,,,,,,,,,,,,,,,,,,369.0108,370.4757,l,1,[],[],[],[],[],[],[],0.7958,1,370.4758,370.9754,,,,,,340,MAS,AGR,150,pasado,el,l,0.7958,,370.9755,370.9756,-0.00670856,-0.394059952,0,0,1,,0,136,136,339,1,,,,
,,,,,,,,,2024-10-08_11h40.17.420,Tarea de género gramatical,2024.2.1,MacIntel,60.24096386,0d828a45ab54823a65f9fca4,66a626ef09d4e21e1a8894ec,670567828e5c092145df8062,,,,,,,,,,,,,,,,,,,,,,,,370.9774,372.5588,a,1,[],[],[],[],[],[],[],0.9047,1,372.559,373.0589,,,,,,249,FEM,DIS,150,crema,el,a,0.9047,,373.0607,373.0618,-0.00670856,-0.394059952,0,0,1,,0,137,137,248,1,,,,
,,,,,,,,,2024-10-08_11h40.17.420,Tarea de género gramatical,2024.2.1,MacIntel,60.24096386,0d828a45ab54823a65f9fca4,66a626ef09d4e21e1a8894ec,670567828e5c092145df8062,,,,,,,,,,,,,,,,,,,,,,,,373.0626,374.3422,l,1,[],[],[],[],[],[],[],0.6006,1,374.3424,374.8411,,,,,,16,MAS,AGR,150,baño,el,l,0.6006,,374.8412,374.8413,-0.00670856,-0.394059952,0,0,1,,0,138,138,15,1,,,,
,,,,,,,,,2024-10-08_11h40.17.420,Tarea de género gramatical,2024.2.1,MacIntel,60.24096386,0d828a45ab54823a65f9fca4,66a626ef09d4e21e1a8894ec,670567828e5c092145df8062,,,,,,,,,,,,,,,,,,,,,,,,374.8427,376.0256,a,1,[],[],[],[],[],[],[],0.5157,1,376.0258,376.5245,,,,,,8,FEM,CON,150,idea,,a,0.5157,,376.5246,376.5248,-0.00670856,-0.394059952,0,0,1,,0,139,139,7,1,,,,
,,,,,,,,,2024-10-08_11h40.17.420,Tarea de género gramatical,2024.2.1,MacIntel,60.24096386,0d828a45ab54823a65f9fca4,66a626ef09d4e21e1a8894ec,670567828e5c092145df8062,,,,,,,,,,,,,,,,,,,,,,,,376.5264,377.8424,l,1,[],[],[],[],[],[],[],0.6513,1,377.8426,378.3422,,,,,,216,MAS,DIS,150,éxito,la,l,0.6513,,378.3423,378.3424,-0.00670856,-0.394059952,0,0,1,,0,140,140,215,1,,,,
,,,,,,,,,2024-10-08_11h40.17.420,Tarea de género gramatical,2024.2.1,MacIntel,60.24096386,0d828a45ab54823a65f9fca4,66a626ef09d4e21e1a8894ec,670567828e5c092145df8062,,,,,,,,,,,,,,,,,,,,,,,,378.3441,379.7088,a,1,[],[],[],[],[],[],[],0.6911,1,379.7089,380.2079,,,,,,117,FEM,DIS,150,raya,el,a,0.6911,,380.2094,380.2106,-0.00670856,-0.394059952,0,0,1,,0,141,141,116,1,,,,
,,,,,,,,,2024-10-08_11h40.17.420,Tarea de género gramatical,2024.2.1,MacIntel,60.24096386,0d828a45ab54823a65f9fca4,66a626ef09d4e21e1a8894ec,670567828e5c092145df8062,,,,,,,,,,,,,,,,,,,,,,,,380.2115,381.509,a,1,[],[],[],[],[],[],[],0.6171,1,381.5092,382.0089,,,,,,387,FEM,DIS,150,página,el,a,0.6171,,382.009,382.0091,-0.00670856,-0.394059952,0,0,1,,0,142,142,386,1,,,,
,,,,,,,,,2024-10-08_11h40.17.420,Tarea de género gramatical,2024.2.1,MacIntel,60.24096386,0d828a45ab54823a65f9fca4,66a626ef09d4e21e1a8894ec,670567828e5c092145df8062,,,,,,,,,,,,,,,,,,,,,,,,382.0105,383.1089,l,1,[],[],[],[],[],[],[],0.4166,1,383.109,383.6078,,,,,,82,MAS,AGR,150,tubo,el,l,0.4166,,383.6079,383.608,-0.00670856,-0.394059952,0,0,1,,0,143,143,81,1,,,,
,,,,,,,,,2024-10-08_11h40.17.420,Tarea de género gramatical,2024.2.1,MacIntel,60.24096386,0d828a45ab54823a65f9fca4,66a626ef09d4e21e1a8894ec,670567828e5c092145df8062,,,,,,,,,,,,,,,,,,,,,,,,383.6095,384.7921,a,1,[],[],[],[],[],[],[],0.5058,1,384.7922,385.291,,,,,,219,FEM,DIS,150,costa,el,a,0.5058,,385.2911,385.2911,-0.00670856,-0.394059952,0,0,1,,0,144,144,218,1,,,,
,,,,,,,,,2024-10-08_11h40.17.420,Tarea de género gramatical,2024.2.1,MacIntel,60.24096386,0d828a45ab54823a65f9fca4,66a626ef09d4e21e1a8894ec,670567828e5c092145df8062,,,,,,,,,,,,,,,,,,,,,,,,385.2925,386.4411,a,1,[],[],[],[],[],[],[],0.4717,1,386.4412,386.9412,,,,,,223,FEM,AGR,150,plata,la,a,0.4717,,386.9414,386.9415,-0.00670856,-0.394059952,0,0,1,,0,145,145,222,1,,,,
,,,,,,,,,2024-10-08_11h40.17.420,Tarea de género gramatical,2024.2.1,MacIntel,60.24096386,0d828a45ab54823a65f9fca4,66a626ef09d4e21e1a8894ec,670567828e5c092145df8062,,,,,,,,,,,,,,,,,,,,,,,,386.9431,388.1091,a,1,[],[],[],[],[],[],[],0.495,1,388.1092,388.6089,,,,,,260,FEM,CON,150,barra,,a,0.495,,388.6109,388.612,-0.00670856,-0.394059952,0,0,1,,0,146,146,259,1,,,,
,,,,,,,,,2024-10-08_11h40.17.420,Tarea de género gramatical,2024.2.1,MacIntel,60.24096386,0d828a45ab54823a65f9fca4,66a626ef09d4e21e1a8894ec,670567828e5c092145df8062,,,,,,,,,,,,,,,,,,,,,,,,388.613,389.7758,l,1,[],[],[],[],[],[],[],0.4958,1,389.7759,390.2756,,,,,,28,MAS,AGR,150,club,el,l,0.4958,,390.2757,390.2758,-0.00670856,-0.394059952,0,0,1,,0,147,147,27,1,,,,
,,,,,,,,,2024-10-08_11h40.17.420,Tarea de género gramatical,2024.2.1,MacIntel,60.24096386,0d828a45ab54823a65f9fca4,66a626ef09d4e21e1a8894ec,670567828e5c092145df8062,,,,,,,,,,,,,,,,,,,,,,,,390.2775,391.4254,a,1,[],[],[],[],[],[],[],0.4674,1,391.4256,391.9247,,,,,,43,FEM,AGR,150,nena,la,a,0.4674,,391.9248,391.925,-0.00670856,-0.394059952,0,0,1,,0,148,148,42,1,,,,
,,,,,,,,,2024-10-08_11h40.17.420,Tarea de género gramatical,2024.2.1,MacIntel,60.24096386,0d828a45ab54823a65f9fca4,66a626ef09d4e21e1a8894ec,670567828e5c092145df8062,,,,,,,,,,,,,,,,,,,,,,,,391.9265,392.9588,l,1,[],[],[],[],[],[],[],0.3508,1,392.959,393.4589,,,,,,353,MAS,CON,150,verano,,l,0.3508,,393.459,393.4591,-0.00670856,-0.394059952,0,0,1,,0,149,149,352,1,,,,
,,,,,,,,,2024-10-08_11h40.17.420,Tarea de género gramatical,2024.2.1,MacIntel,60.24096386,0d828a45ab54823a65f9fca4,66a626ef09d4e21e1a8894ec,670567828e5c092145df8062,,,,,,,,,,,,,,,,,,,,,,,,393.4609,394.7077,a,1,[],[],[],[],[],[],[],0.5659,1,394.7079,395.2089,,,,,,295,FEM,AGR,150,grasa,la,a,0.5659,,395.2105,400.709,-0.00670856,-0.394059952,0,0,1,space,0,150,150,294,1,5.4711,,,
,,,,,,,,,2024-10-08_11h40.17.420,Tarea de género gramatical,2024.2.1,MacIntel,60.24096386,0d828a45ab54823a65f9fca4,66a626ef09d4e21e1a8894ec,670567828e5c092145df8062,,,,,,,,,,,,,,,,,,,,,,,,400.7106,403.358,,0,[],[],[],[],[],[],[],0.5659,-1,403.3591,403.8592,,,,,,401,MAS,CON,150,abrigo,,l,,,403.8593,403.8596,-0.00670856,-0.394059952,0,0,1,,0,151,151,400,1,,,,
,,,,,,,,,2024-10-08_11h40.17.420,Tarea de género gramatical,2024.2.1,MacIntel,60.24096386,0d828a45ab54823a65f9fca4,66a626ef09d4e21e1a8894ec,670567828e5c092145df8062,,,,,,,,,,,,,,,,,,,,,,,,403.8611,406.509,,0,[],[],[],[],[],[],[],0.5659,-1,406.5091,407.0082,,,,,,197,MAS,CON,150,avión,,l,,,407.0082,407.0084,-0.00670856,-0.394059952,0,0,1,,0,152,152,196,1,,,,
,,,,,,,,,2024-10-08_11h40.17.420,Tarea de género gramatical,2024.2.1,MacIntel,60.24096386,0d828a45ab54823a65f9fca4,66a626ef09d4e21e1a8894ec,670567828e5c092145df8062,,,,,,,,,,,,,,,,,,,,,,,,407.0099,408.2423,l,1,[],[],[],[],[],[],[],0.5511,1,408.2438,408.7421,,,,,,185,MAS,CON,150,sueño,,l,0.5511,,408.7421,408.7423,-0.00670856,-0.394059952,0,0,1,,0,153,153,184,1,,,,
,,,,,,,,,2024-10-08_11h40.17.420,Tarea de género gramatical,2024.2.1,MacIntel,60.24096386,0d828a45ab54823a65f9fca4,66a626ef09d4e21e1a8894ec,670567828e5c092145df8062,,,,,,,,,,,,,,,,,,,,,,,,408.744,409.8256,a,1,[],[],[],[],[],[],[],0.4008,1,409.8258,410.3254,,,,,,92,FEM,CON,150,masa,,a,0.4008,,410.3254,410.3256,-0.00670856,-0.394059952,0,0,1,,0,154,154,91,1,,,,
,,,,,,,,,2024-10-08_11h40.17.420,Tarea de género gramatical,2024.2.1,MacIntel,60.24096386,0d828a45ab54823a65f9fca4,66a626ef09d4e21e1a8894ec,670567828e5c092145df8062,,,,,,,,,,,,,,,,,,,,,,,,410.3272,411.591,l,1,[],[],[],[],[],[],[],0.5947,1,411.5912,412.0911,,,,,,376,MAS,AGR,150,efecto,el,l,0.5947,,412.0922,412.0933,-0.00670856,-0.394059952,0,0,1,,0,155,155,375,1,,,,
,,,,,,,,,2024-10-08_11h40.17.420,Tarea de género gramatical,2024.2.1,MacIntel,60.24096386,0d828a45ab54823a65f9fca4,66a626ef09d4e21e1a8894ec,670567828e5c092145df8062,,,,,,,,,,,,,,,,,,,,,,,,412.0941,413.1587,l,1,[],[],[],[],[],[],[],0.3859,1,413.1589,413.6588,,,,,,269,MAS,CON,150,primo,,l,0.3859,,413.6588,413.6589,-0.00670856,-0.394059952,0,0,1,,0,156,156,268,1,,,,
,,,,,,,,,2024-10-08_11h40.17.420,Tarea de género gramatical,2024.2.1,MacIntel,60.24096386,0d828a45ab54823a65f9fca4,66a626ef09d4e21e1a8894ec,670567828e5c092145df8062,,,,,,,,,,,,,,,,,,,,,,,,413.6602,414.6244,l,0,[],[],[],[],[],[],[],0.2852,0,414.6252,415.1244,,,,,,213,FEM,DIS,150,magia,el,a,0.2852,,415.1244,415.1246,-0.00670856,-0.394059952,0,0,1,,0,157,157,212,1,,,,
,,,,,,,,,2024-10-08_11h40.17.420,Tarea de género gramatical,2024.2.1,MacIntel,60.24096386,0d828a45ab54823a65f9fca4,66a626ef09d4e21e1a8894ec,670567828e5c092145df8062,,,,,,,,,,,,,,,,,,,,,,,,415.1258,416.1587,l,1,[],[],[],[],[],[],[],0.3659,1,416.1596,416.658,,,,,,394,MAS,AGR,150,examen,el,l,0.3659,,416.6581,416.6582,-0.00670856,-0.394059952,0,0,1,,0,158,158,393,1,,,,
,,,,,,,,,2024-10-08_11h40.17.420,Tarea de género gramatical,2024.2.1,MacIntel,60.24096386,0d828a45ab54823a65f9fca4,66a626ef09d4e21e1a8894ec,670567828e5c092145df8062,,,,,,,,,,,,,,,,,,,,,,,,416.6596,417.791,l,1,[],[],[],[],[],[],[],0.4502,1,417.7911,418.2921,,,,,,168,MAS,DIS,150,sitio,la,l,0.4502,,418.2935,418.2944,-0.00670856,-0.394059952,0,0,1,,0,159,159,167,1,,,,
,,,,,,,,,2024-10-08_11h40.17.420,Tarea de género gramatical,2024.2.1,MacIntel,60.24096386,0d828a45ab54823a65f9fca4,66a626ef09d4e21e1a8894ec,670567828e5c092145df8062,,,,,,,,,,,,,,,,,,,,,,,,418.2953,419.3586,a,1,[],[],[],[],[],[],[],0.3821,1,419.3588,419.8586,,,,,,7,FEM,AGR,150,hora,la,a,0.3821,,419.8587,419.8588,-0.00670856,-0.394059952,0,0,1,,0,160,160,6,1,,,,
,,,,,,,,,2024-10-08_11h40.17.420,Tarea de género gramatical,2024.2.1,MacIntel,60.24096386,0d828a45ab54823a65f9fca4,66a626ef09d4e21e1a8894ec,670567828e5c092145df8062,,,,,,,,,,,,,,,,,,,,,,,,419.8601,420.8754,a,1,[],[],[],[],[],[],[],0.3336,1,420.8755,421.3753,,,,,,242,FEM,CON,150,pizza,,a,0.3336,,421.3754,421.3756,-0.00670856,-0.394059952,0,0,1,,0,161,161,241,1,,,,
,,,,,,,,,2024-10-08_11h40.17.420,Tarea de género gramatical,2024.2.1,MacIntel,60.24096386,0d828a45ab54823a65f9fca4,66a626ef09d4e21e1a8894ec,670567828e5c092145df8062,,,,,,,,,,,,,,,,,,,,,,,,421.3769,422.3746,l,1,[],[],[],[],[],[],[],0.3164,1,422.3747,422.8752,,,,,,298,MAS,AGR,150,botón,el,l,0.3164,,422.8753,422.8755,-0.00670856,-0.394059952,0,0,1,,0,162,162,297,1,,,,
,,,,,,,,,2024-10-08_11h40.17.420,Tarea de género gramatical,2024.2.1,MacIntel,60.24096386,0d828a45ab54823a65f9fca4,66a626ef09d4e21e1a8894ec,670567828e5c092145df8062,,,,,,,,,,,,,,,,,,,,,,,,422.8767,424.0753,l,1,[],[],[],[],[],[],[],0.5166,1,424.0755,424.5744,,,,,,424,MAS,AGR,150,rastro,el,l,0.5166,,424.5745,424.5746,-0.00670856,-0.394059952,0,0,1,,0,163,163,423,1,,,,
,,,,,,,,,2024-10-08_11h40.17.420,Tarea de género gramatical,2024.2.1,MacIntel,60.24096386,0d828a45ab54823a65f9fca4,66a626ef09d4e21e1a8894ec,670567828e5c092145df8062,,,,,,,,,,,,,,,,,,,,,,,,424.5758,425.6411,l,1,[],[],[],[],[],[],[],0.3852,1,425.6412,426.142,,,,,,372,MAS,DIS,150,delito,la,l,0.3852,,426.1435,426.1445,-0.00670856,-0.394059952,0,0,1,,0,164,164,371,1,,,,
,,,,,,,,,2024-10-08_11h40.17.420,Tarea de género gramatical,2024.2.1,MacIntel,60.24096386,0d828a45ab54823a65f9fca4,66a626ef09d4e21e1a8894ec,670567828e5c092145df8062,,,,,,,,,,,,,,,,,,,,,,,,426.1454,427.6252,l,0,[],[],[],[],[],[],[],0.8122,0,427.6261,428.1251,,,,,,218,FEM,CON,150,nieve,,a,0.8122,,428.1251,428.1253,-0.00670856,-0.394059952,0,0,1,,0,165,165,217,1,,,,
,,,,,,,,,2024-10-08_11h40.17.420,Tarea de género gramatical,2024.2.1,MacIntel,60.24096386,0d828a45ab54823a65f9fca4,66a626ef09d4e21e1a8894ec,670567828e5c092145df8062,,,,,,,,,,,,,,,,,,,,,,,,428.1266,429.2753,l,1,[],[],[],[],[],[],[],0.466,1,429.2763,429.7742,,,,,,46,MAS,AGR,150,odio,el,l,0.466,,429.7743,429.7743,-0.00670856,-0.394059952,0,0,1,,0,166,166,45,1,,,,
,,,,,,,,,2024-10-08_11h40.17.420,Tarea de género gramatical,2024.2.1,MacIntel,60.24096386,0d828a45ab54823a65f9fca4,66a626ef09d4e21e1a8894ec,670567828e5c092145df8062,,,,,,,,,,,,,,,,,,,,,,,,429.7757,430.9585,a,1,[],[],[],[],[],[],[],0.5118,1,430.9586,431.4586,,,,,,266,FEM,CON,150,jaula,,a,0.5118,,431.4587,431.4589,-0.00670856,-0.394059952,0,0,1,,0,167,167,265,1,,,,
,,,,,,,,,2024-10-08_11h40.17.420,Tarea de género gramatical,2024.2.1,MacIntel,60.24096386,0d828a45ab54823a65f9fca4,66a626ef09d4e21e1a8894ec,670567828e5c092145df8062,,,,,,,,,,,,,,,,,,,,,,,,431.4603,432.6752,l,1,[],[],[],[],[],[],[],0.5373,1,432.6754,433.1746,,,,,,40,MAS,AGR,150,dios,el,l,0.5373,,433.1761,433.1771,-0.00670856,-0.394059952,0,0,1,,0,168,168,39,1,,,,
,,,,,,,,,2024-10-08_11h40.17.420,Tarea de género gramatical,2024.2.1,MacIntel,60.24096386,0d828a45ab54823a65f9fca4,66a626ef09d4e21e1a8894ec,670567828e5c092145df8062,,,,,,,,,,,,,,,,,,,,,,,,433.178,434.6249,a,1,[],[],[],[],[],[],[],0.7695,1,434.625,435.1253,,,,,,259,FEM,AGR,150,prima,la,a,0.7695,,435.1253,435.1255,-0.00670856,-0.394059952,0,0,1,,0,169,169,258,1,,,,
,,,,,,,,,2024-10-08_11h40.17.420,Tarea de género gramatical,2024.2.1,MacIntel,60.24096386,0d828a45ab54823a65f9fca4,66a626ef09d4e21e1a8894ec,670567828e5c092145df8062,,,,,,,,,,,,,,,,,,,,,,,,435.1272,436.2419,l,1,[],[],[],[],[],[],[],0.4336,1,436.242,436.7421,,,,,,430,MAS,AGR,150,título,el,l,0.4336,,436.7421,436.7423,-0.00670856,-0.394059952,0,0,1,,0,170,170,429,1,,,,
,,,,,,,,,2024-10-08_11h40.17.420,Tarea de género gramatical,2024.2.1,MacIntel,60.24096386,0d828a45ab54823a65f9fca4,66a626ef09d4e21e1a8894ec,670567828e5c092145df8062,,,,,,,,,,,,,,,,,,,,,,,,436.7437,437.9585,a,1,[],[],[],[],[],[],[],0.5337,1,437.9586,438.4586,,,,,,325,FEM,AGR,150,tierra,la,a,0.5337,,438.4587,438.4589,-0.00670856,-0.394059952,0,0,1,,0,171,171,324,1,,,,
,,,,,,,,,2024-10-08_11h40.17.420,Tarea de género gramatical,2024.2.1,MacIntel,60.24096386,0d828a45ab54823a65f9fca4,66a626ef09d4e21e1a8894ec,670567828e5c092145df8062,,,,,,,,,,,,,,,,,,,,,,,,438.4602,439.7252,l,1,[],[],[],[],[],[],[],0.5858,1,439.7253,440.2254,,,,,,53,MAS,CON,150,vaso,,l,0.5858,,440.2255,440.2256,-0.00670856,-0.394059952,0,0,1,,0,172,172,52,1,,,,
,,,,,,,,,2024-10-08_11h40.17.420,Tarea de género gramatical,2024.2.1,MacIntel,60.24096386,0d828a45ab54823a65f9fca4,66a626ef09d4e21e1a8894ec,670567828e5c092145df8062,,,,,,,,,,,,,,,,,,,,,,,,440.2275,441.3243,l,1,[],[],[],[],[],[],[],0.4189,1,441.3244,441.8246,,,,,,6,MAS,DIS,150,lado,la,l,0.4189,,441.8261,441.8271,-0.00670856,-0.394059952,0,0,1,,0,173,173,5,1,,,,
,,,,,,,,,2024-10-08_11h40.17.420,Tarea de género gramatical,2024.2.1,MacIntel,60.24096386,0d828a45ab54823a65f9fca4,66a626ef09d4e21e1a8894ec,670567828e5c092145df8062,,,,,,,,,,,,,,,,,,,,,,,,441.828,442.9743,l,1,[],[],[],[],[],[],[],0.4726,1,442.9745,443.4744,,,,,,72,MAS,DIS,150,hoyo,la,l,0.4726,,443.4744,443.4745,-0.00670856,-0.394059952,0,0,1,,0,174,174,71,1,,,,
,,,,,,,,,2024-10-08_11h40.17.420,Tarea de género gramatical,2024.2.1,MacIntel,60.24096386,0d828a45ab54823a65f9fca4,66a626ef09d4e21e1a8894ec,670567828e5c092145df8062,,,,,,,,,,,,,,,,,,,,,,,,443.4761,444.6578,l,1,[],[],[],[],[],[],[],0.5004,1,444.6579,445.1587,,,,,,342,MAS,DIS,150,abuelo,la,l,0.5004,,445.1587,445.1589,-0.00670856,-0.394059952,0,0,1,,0,175,175,341,1,,,,
,,,,,,,,,2024-10-08_11h40.17.420,Tarea de género gramatical,2024.2.1,MacIntel,60.24096386,0d828a45ab54823a65f9fca4,66a626ef09d4e21e1a8894ec,670567828e5c092145df8062,,,,,,,,,,,,,,,,,,,,,,,,445.1606,446.191,l,1,[],[],[],[],[],[],[],0.3502,1,446.191,446.6919,,,,,,396,MAS,DIS,150,tesoro,la,l,0.3502,,446.6919,446.6921,-0.00670856,-0.394059952,0,0,1,,0,176,176,395,1,,,,
,,,,,,,,,2024-10-08_11h40.17.420,Tarea de género gramatical,2024.2.1,MacIntel,60.24096386,0d828a45ab54823a65f9fca4,66a626ef09d4e21e1a8894ec,670567828e5c092145df8062,,,,,,,,,,,,,,,,,,,,,,,,446.6934,447.8586,l,1,[],[],[],[],[],[],[],0.4935,1,447.8587,448.3587,,,,,,11,MAS,CON,150,país,,l,0.4935,,448.3603,448.3613,-0.00670856,-0.394059952,0,0,1,,0,177,177,10,1,,,,
,,,,,,,,,2024-10-08_11h40.17.420,Tarea de género gramatical,2024.2.1,MacIntel,60.24096386,0d828a45ab54823a65f9fca4,66a626ef09d4e21e1a8894ec,670567828e5c092145df8062,,,,,,,,,,,,,,,,,,,,,,,,448.3622,449.5086,a,1,[],[],[],[],[],[],[],0.4789,1,449.5087,450.0086,,,,,,212,FEM,CON,150,cinta,,a,0.4789,,450.0087,450.0088,-0.00670856,-0.394059952,0,0,1,,0,178,178,211,1,,,,
,,,,,,,,,2024-10-08_11h40.17.420,Tarea de género gramatical,2024.2.1,MacIntel,60.24096386,0d828a45ab54823a65f9fca4,66a626ef09d4e21e1a8894ec,670567828e5c092145df8062,,,,,,,,,,,,,,,,,,,,,,,,450.0104,450.8914,l,0,[],[],[],[],[],[],[],0.2034,0,450.8926,451.3918,,,,,,356,FEM,CON,150,piedra,,a,0.2034,,451.3919,451.392,-0.00670856,-0.394059952,0,0,1,,0,179,179,355,1,,,,
,,,,,,,,,2024-10-08_11h40.17.420,Tarea de género gramatical,2024.2.1,MacIntel,60.24096386,0d828a45ab54823a65f9fca4,66a626ef09d4e21e1a8894ec,670567828e5c092145df8062,,,,,,,,,,,,,,,,,,,,,,,,451.3933,452.8252,l,1,[],[],[],[],[],[],[],0.7504,1,452.8263,453.3252,,,,,,167,MAS,CON,150,juego,,l,0.7504,,453.3253,453.3254,-0.00670856,-0.394059952,0,0,1,,0,180,180,166,1,,,,
,,,,,,,,,2024-10-08_11h40.17.420,Tarea de género gramatical,2024.2.1,MacIntel,60.24096386,0d828a45ab54823a65f9fca4,66a626ef09d4e21e1a8894ec,670567828e5c092145df8062,,,,,,,,,,,,,,,,,,,,,,,,453.3272,454.4253,a,1,[],[],[],[],[],[],[],0.4167,1,454.4254,454.9251,,,,,,205,FEM,AGR,150,reina,la,a,0.4167,,454.9252,454.9254,-0.00670856,-0.394059952,0,0,1,,0,181,181,204,1,,,,
,,,,,,,,,2024-10-08_11h40.17.420,Tarea de género gramatical,2024.2.1,MacIntel,60.24096386,0d828a45ab54823a65f9fca4,66a626ef09d4e21e1a8894ec,670567828e5c092145df8062,,,,,,,,,,,,,,,,,,,,,,,,454.9269,456.0084,l,1,[],[],[],[],[],[],[],0.4003,1,456.0085,456.5082,,,,,,144,MAS,DIS,150,amor,la,l,0.4003,,456.5101,456.5114,-0.00670856,-0.394059952,0,0,1,,0,182,182,143,1,,,,
,,,,,,,,,2024-10-08_11h40.17.420,Tarea de género gramatical,2024.2.1,MacIntel,60.24096386,0d828a45ab54823a65f9fca4,66a626ef09d4e21e1a8894ec,670567828e5c092145df8062,,,,,,,,,,,,,,,,,,,,,,,,456.5122,457.6754,l,1,[],[],[],[],[],[],[],0.484,1,457.6756,458.1753,,,,,,384,MAS,DIS,150,pedazo,la,l,0.484,,458.1754,458.1755,-0.00670856,-0.394059952,0,0,1,,0,183,183,383,1,,,,
,,,,,,,,,2024-10-08_11h40.17.420,Tarea de género gramatical,2024.2.1,MacIntel,60.24096386,0d828a45ab54823a65f9fca4,66a626ef09d4e21e1a8894ec,670567828e5c092145df8062,,,,,,,,,,,,,,,,,,,,,,,,458.1772,459.2575,l,0,[],[],[],[],[],[],[],0.4,0,459.2586,459.7584,,,,,,123,FEM,DIS,150,tela,el,a,0.4,,459.7585,459.7586,-0.00670856,-0.394059952,0,0,1,,0,184,184,122,1,,,,
,,,,,,,,,2024-10-08_11h40.17.420,Tarea de género gramatical,2024.2.1,MacIntel,60.24096386,0d828a45ab54823a65f9fca4,66a626ef09d4e21e1a8894ec,670567828e5c092145df8062,,,,,,,,,,,,,,,,,,,,,,,,459.7601,460.7414,a,1,[],[],[],[],[],[],[],0.3015,1,460.7426,461.2419,,,,,,399,FEM,DIS,150,charla,el,a,0.3015,,461.242,461.2422,-0.00670856,-0.394059952,0,0,1,,0,185,185,398,1,,,,
,,,,,,,,,2024-10-08_11h40.17.420,Tarea de género gramatical,2024.2.1,MacIntel,60.24096386,0d828a45ab54823a65f9fca4,66a626ef09d4e21e1a8894ec,670567828e5c092145df8062,,,,,,,,,,,,,,,,,,,,,,,,461.2436,462.3417,l,1,[],[],[],[],[],[],[],0.4286,1,462.3418,462.841,,,,,,209,MAS,CON,150,banco,,l,0.4286,,462.8427,462.8438,-0.00670856,-0.394059952,0,0,1,,0,186,186,208,1,,,,
,,,,,,,,,2024-10-08_11h40.17.420,Tarea de género gramatical,2024.2.1,MacIntel,60.24096386,0d828a45ab54823a65f9fca4,66a626ef09d4e21e1a8894ec,670567828e5c092145df8062,,,,,,,,,,,,,,,,,,,,,,,,462.8446,463.942,l,1,[],[],[],[],[],[],[],0.4162,1,463.9422,464.4419,,,,,,65,MAS,CON,150,rayo,,l,0.4162,,464.4421,464.4422,-0.00670856,-0.394059952,0,0,1,,0,187,187,64,1,,,,
,,,,,,,,,2024-10-08_11h40.17.420,Tarea de género gramatical,2024.2.1,MacIntel,60.24096386,0d828a45ab54823a65f9fca4,66a626ef09d4e21e1a8894ec,670567828e5c092145df8062,,,,,,,,,,,,,,,,,,,,,,,,464.4438,465.4418,l,0,[],[],[],[],[],[],[],0.3286,0,465.4429,465.9419,,,,,,14,FEM,CON,150,cara,,a,0.3286,,465.9419,465.9421,-0.00670856,-0.394059952,0,0,1,,0,188,188,13,1,,,,
,,,,,,,,,2024-10-08_11h40.17.420,Tarea de género gramatical,2024.2.1,MacIntel,60.24096386,0d828a45ab54823a65f9fca4,66a626ef09d4e21e1a8894ec,670567828e5c092145df8062,,,,,,,,,,,,,,,,,,,,,,,,465.944,467.142,l,1,[],[],[],[],[],[],[],0.5168,1,467.1436,467.6419,,,,,,83,MAS,CON,150,nene,,l,0.5168,,467.642,467.6422,-0.00670856,-0.394059952,0,0,1,,0,189,189,82,1,,,,
,,,,,,,,,2024-10-08_11h40.17.420,Tarea de género gramatical,2024.2.1,MacIntel,60.24096386,0d828a45ab54823a65f9fca4,66a626ef09d4e21e1a8894ec,670567828e5c092145df8062,,,,,,,,,,,,,,,,,,,,,,,,467.6435,468.6752,l,0,[],[],[],[],[],[],[],0.355,0,468.6764,469.1751,,,,,,224,FEM,CON,150,arena,,a,0.355,,469.1752,469.1754,-0.00670856,-0.394059952,0,0,1,,0,190,190,223,1,,,,
,,,,,,,,,2024-10-08_11h40.17.420,Tarea de género gramatical,2024.2.1,MacIntel,60.24096386,0d828a45ab54823a65f9fca4,66a626ef09d4e21e1a8894ec,670567828e5c092145df8062,,,,,,,,,,,,,,,,,,,,,,,,469.1769,470.3085,l,0,[],[],[],[],[],[],[],0.4504,0,470.3087,470.8083,,,,,,93,FEM,DIS,150,lata,el,a,0.4504,,470.8097,470.8108,-0.00670856,-0.394059952,0,0,1,,0,191,191,92,1,,,,
,,,,,,,,,2024-10-08_11h40.17.420,Tarea de género gramatical,2024.2.1,MacIntel,60.24096386,0d828a45ab54823a65f9fca4,66a626ef09d4e21e1a8894ec,670567828e5c092145df8062,,,,,,,,,,,,,,,,,,,,,,,,470.8116,471.9919,l,1,[],[],[],[],[],[],[],0.5006,1,471.9932,472.4917,,,,,,292,MAS,AGR,150,piano,el,l,0.5006,,472.4918,472.4919,-0.00670856,-0.394059952,0,0,1,,0,192,192,291,1,,,,
,,,,,,,,,2024-10-08_11h40.17.420,Tarea de género gramatical,2024.2.1,MacIntel,60.24096386,0d828a45ab54823a65f9fca4,66a626ef09d4e21e1a8894ec,670567828e5c092145df8062,,,,,,,,,,,,,,,,,,,,,,,,472.4936,473.4915,l,0,[],[],[],[],[],[],[],0.322,0,473.4926,473.9909,,,,,,332,FEM,CON,150,basura,,a,0.322,,473.991,473.9911,-0.00670856,-0.394059952,0,0,1,,0,193,193,331,1,,,,
,,,,,,,,,2024-10-08_11h40.17.420,Tarea de género gramatical,2024.2.1,MacIntel,60.24096386,0d828a45ab54823a65f9fca4,66a626ef09d4e21e1a8894ec,670567828e5c092145df8062,,,,,,,,,,,,,,,,,,,,,,,,473.9923,475.4919,l,1,[],[],[],[],[],[],[],0.817,1,475.493,475.9917,,,,,,155,MAS,CON,150,mundo,,l,0.817,,475.9918,475.992,-0.00670856,-0.394059952,0,0,1,,0,194,194,154,1,,,,
,,,,,,,,,2024-10-08_11h40.17.420,Tarea de género gramatical,2024.2.1,MacIntel,60.24096386,0d828a45ab54823a65f9fca4,66a626ef09d4e21e1a8894ec,670567828e5c092145df8062,,,,,,,,,,,,,,,,,,,,,,,,475.9934,477.0409,l,1,[],[],[],[],[],[],[],0.3673,1,477.041,477.5419,,,,,,48,MAS,DIS,150,loco,la,l,0.3673,,477.5436,477.5448,-0.00670856,-0.394059952,0,0,1,,0,195,195,47,1,,,,
,,,,,,,,,2024-10-08_11h40.17.420,Tarea de género gramatical,2024.2.1,MacIntel,60.24096386,0d828a45ab54823a65f9fca4,66a626ef09d4e21e1a8894ec,670567828e5c092145df8062,,,,,,,,,,,,,,,,,,,,,,,,477.5456,478.6419,l,1,[],[],[],[],[],[],[],0.4171,1,478.642,479.1418,,,,,,106,MAS,AGR,150,test,el,l,0.4171,,479.1418,479.1421,-0.00670856,-0.394059952,0,0,1,,0,196,196,105,1,,,,
,,,,,,,,,2024-10-08_11h40.17.420,Tarea de género gramatical,2024.2.1,MacIntel,60.24096386,0d828a45ab54823a65f9fca4,66a626ef09d4e21e1a8894ec,670567828e5c092145df8062,,,,,,,,,,,,,,,,,,,,,,,,479.1436,480.3086,a,1,[],[],[],[],[],[],[],0.4852,1,480.3087,480.8081,,,,,,164,FEM,CON,150,novia,,a,0.4852,,480.8081,480.8083,-0.00670856,-0.394059952,0,0,1,,0,197,197,163,1,,,,
,,,,,,,,,2024-10-08_11h40.17.420,Tarea de género gramatical,2024.2.1,MacIntel,60.24096386,0d828a45ab54823a65f9fca4,66a626ef09d4e21e1a8894ec,670567828e5c092145df8062,,,,,,,,,,,,,,,,,,,,,,,,480.8097,481.8415,l,1,[],[],[],[],[],[],[],0.3504,1,481.8416,482.3416,,,,,,221,MAS,CON,150,brazo,,l,0.3504,,482.3417,482.3418,-0.00670856,-0.394059952,0,0,1,,0,198,198,220,1,,,,
,,,,,,,,,2024-10-08_11h40.17.420,Tarea de género gramatical,2024.2.1,MacIntel,60.24096386,0d828a45ab54823a65f9fca4,66a626ef09d4e21e1a8894ec,670567828e5c092145df8062,,,,,,,,,,,,,,,,,,,,,,,,482.3434,483.5085,l,1,[],[],[],[],[],[],[],0.4833,1,483.5087,484.0085,,,,,,204,MAS,DIS,150,papel,la,l,0.4833,,484.0086,484.0088,-0.00670856,-0.394059952,0,0,1,,0,199,199,203,1,,,,
,,,,,,,,,2024-10-08_11h40.17.420,Tarea de género gramatical,2024.2.1,MacIntel,60.24096386,0d828a45ab54823a65f9fca4,66a626ef09d4e21e1a8894ec,670567828e5c092145df8062,,,,,,,,,,,,,,,,,,,,,,,,484.0104,485.4585,l,1,[],[],[],[],[],[],[],0.768,1,485.4587,485.9584,,,,,,420,MAS,DIS,150,helado,la,l,0.768,,485.9602,485.9612,-0.00670856,-0.394059952,0,0,1,,0,200,200,419,1,,,,
,,,,,,,,,2024-10-08_11h40.17.420,Tarea de género gramatical,2024.2.1,MacIntel,60.24096386,0d828a45ab54823a65f9fca4,66a626ef09d4e21e1a8894ec,670567828e5c092145df8062,,,,,,,,,,,,,,,,,,,,,,,,485.9621,487.1249,a,1,[],[],[],[],[],[],[],0.4945,1,487.125,487.6251,,,,,,441,FEM,DIS,150,medida,el,a,0.4945,,487.6251,487.6253,-0.00670856,-0.394059952,0,0,1,,0,201,201,440,1,,,,
,,,,,,,,,2024-10-08_11h40.17.420,Tarea de género gramatical,2024.2.1,MacIntel,60.24096386,0d828a45ab54823a65f9fca4,66a626ef09d4e21e1a8894ec,670567828e5c092145df8062,,,,,,,,,,,,,,,,,,,,,,,,487.6268,488.7752,a,0,[],[],[],[],[],[],[],0.4671,0,488.7764,489.2751,,,,,,124,MAS,AGR,150,clan,el,l,0.4671,,489.2752,489.2753,-0.00670856,-0.394059952,0,0,1,,0,202,202,123,1,,,,
,,,,,,,,,2024-10-08_11h40.17.420,Tarea de género gramatical,2024.2.1,MacIntel,60.24096386,0d828a45ab54823a65f9fca4,66a626ef09d4e21e1a8894ec,670567828e5c092145df8062,,,,,,,,,,,,,,,,,,,,,,,,489.2769,490.7252,a,1,[],[],[],[],[],[],[],0.7669,1,490.7264,491.2251,,,,,,423,FEM,DIS,150,poesía,el,a,0.7669,,491.2252,491.2253,-0.00670856,-0.394059952,0,0,1,,0,203,203,422,1,,,,
,,,,,,,,,2024-10-08_11h40.17.420,Tarea de género gramatical,2024.2.1,MacIntel,60.24096386,0d828a45ab54823a65f9fca4,66a626ef09d4e21e1a8894ec,670567828e5c092145df8062,,,,,,,,,,,,,,,,,,,,,,,,491.2269,492.3252,l,1,[],[],[],[],[],[],[],0.4205,1,492.3253,492.825,,,,,,160,MAS,AGR,150,señor,el,l,0.4205,,492.8266,492.8276,-0.00670856,-0.394059952,0,0,1,,0,204,204,159,1,,,,
,,,,,,,,,2024-10-08_11h40.17.420,Tarea de género gramatical,2024.2.1,MacIntel,60.24096386,0d828a45ab54823a65f9fca4,66a626ef09d4e21e1a8894ec,670567828e5c092145df8062,,,,,,,,,,,,,,,,,,,,,,,,492.8286,493.941,l,1,[],[],[],[],[],[],[],0.4339,1,493.9412,494.4417,,,,,,329,MAS,CON,150,futuro,,l,0.4339,,494.4418,494.4419,-0.00670856,-0.394059952,0,0,1,,0,205,205,328,1,,,,
,,,,,,,,,2024-10-08_11h40.17.420,Tarea de género gramatical,2024.2.1,MacIntel,60.24096386,0d828a45ab54823a65f9fca4,66a626ef09d4e21e1a8894ec,670567828e5c092145df8062,,,,,,,,,,,,,,,,,,,,,,,,494.4434,495.4412,l,0,[],[],[],[],[],[],[],0.3165,0,495.4423,495.9416,,,,,,128,FEM,CON,150,leña,,a,0.3165,,495.9416,495.9418,-0.00670856,-0.394059952,0,0,1,,0,206,206,127,1,,,,
,,,,,,,,,2024-10-08_11h40.17.420,Tarea de género gramatical,2024.2.1,MacIntel,60.24096386,0d828a45ab54823a65f9fca4,66a626ef09d4e21e1a8894ec,670567828e5c092145df8062,,,,,,,,,,,,,,,,,,,,,,,,495.9432,497.0084,l,0,[],[],[],[],[],[],[],0.384,0,497.0086,497.5084,,,,,,159,FEM,DIS,150,clase,el,a,0.384,,497.5085,497.5087,-0.00670856,-0.394059952,0,0,1,,0,207,207,158,1,,,,
,,,,,,,,,2024-10-08_11h40.17.420,Tarea de género gramatical,2024.2.1,MacIntel,60.24096386,0d828a45ab54823a65f9fca4,66a626ef09d4e21e1a8894ec,670567828e5c092145df8062,,,,,,,,,,,,,,,,,,,,,,,,497.5103,498.7084,a,0,[],[],[],[],[],[],[],0.5207,0,498.7086,499.2084,,,,,,10,MAS,AGR,150,niño,el,l,0.5207,,499.2085,499.2087,-0.00670856,-0.394059952,0,0,1,,0,208,208,9,1,,,,
,,,,,,,,,2024-10-08_11h40.17.420,Tarea de género gramatical,2024.2.1,MacIntel,60.24096386,0d828a45ab54823a65f9fca4,66a626ef09d4e21e1a8894ec,670567828e5c092145df8062,,,,,,,,,,,,,,,,,,,,,,,,499.2104,500.3916,a,0,[],[],[],[],[],[],[],0.5099,0,500.3917,500.8913,,,,,,154,MAS,AGR,150,padre,el,l,0.5099,,500.8931,500.8944,-0.00670856,-0.394059952,0,0,1,,0,209,209,153,1,,,,
,,,,,,,,,2024-10-08_11h40.17.420,Tarea de género gramatical,2024.2.1,MacIntel,60.24096386,0d828a45ab54823a65f9fca4,66a626ef09d4e21e1a8894ec,670567828e5c092145df8062,,,,,,,,,,,,,,,,,,,,,,,,500.8953,502.1751,l,1,[],[],[],[],[],[],[],0.5998,1,502.1764,502.6745,,,,,,268,MAS,AGR,150,truco,el,l,0.5998,,502.6746,502.6748,-0.00670856,-0.394059952,0,0,1,,0,210,210,267,1,,,,
,,,,,,,,,2024-10-08_11h40.17.420,Tarea de género gramatical,2024.2.1,MacIntel,60.24096386,0d828a45ab54823a65f9fca4,66a626ef09d4e21e1a8894ec,670567828e5c092145df8062,,,,,,,,,,,,,,,,,,,,,,,,502.6765,503.8417,l,0,[],[],[],[],[],[],[],0.488,0,503.8429,504.3417,,,,,,331,FEM,AGR,150,cárcel,la,a,0.488,,504.3419,504.342,-0.00670856,-0.394059952,0,0,1,,0,211,211,330,1,,,,
,,,,,,,,,2024-10-08_11h40.17.420,Tarea de género gramatical,2024.2.1,MacIntel,60.24096386,0d828a45ab54823a65f9fca4,66a626ef09d4e21e1a8894ec,670567828e5c092145df8062,,,,,,,,,,,,,,,,,,,,,,,,504.344,505.6412,l,1,[],[],[],[],[],[],[],0.6202,1,505.6424,506.1418,,,,,,358,MAS,AGR,150,motivo,el,l,0.6202,,506.1418,506.1421,-0.00670856,-0.394059952,0,0,1,,0,212,212,357,1,,,,
,,,,,,,,,2024-10-08_11h40.17.420,Tarea de género gramatical,2024.2.1,MacIntel,60.24096386,0d828a45ab54823a65f9fca4,66a626ef09d4e21e1a8894ec,670567828e5c092145df8062,,,,,,,,,,,,,,,,,,,,,,,,506.1442,507.2417,l,1,[],[],[],[],[],[],[],0.4161,1,507.2418,507.7417,,,,,,107,MAS,CON,150,cubo,,l,0.4161,,507.7435,507.7447,-0.00670856,-0.394059952,0,0,1,,0,213,213,106,1,,,,
,,,,,,,,,2024-10-08_11h40.17.420,Tarea de género gramatical,2024.2.1,MacIntel,60.24096386,0d828a45ab54823a65f9fca4,66a626ef09d4e21e1a8894ec,670567828e5c092145df8062,,,,,,,,,,,,,,,,,,,,,,,,507.7456,508.7911,a,1,[],[],[],[],[],[],[],0.37,1,508.7913,509.2918,,,,,,193,FEM,AGR,150,bolsa,la,a,0.37,,509.2919,509.2921,-0.00670856,-0.394059952,0,0,1,,0,214,214,192,1,,,,
,,,,,,,,,2024-10-08_11h40.17.420,Tarea de género gramatical,2024.2.1,MacIntel,60.24096386,0d828a45ab54823a65f9fca4,66a626ef09d4e21e1a8894ec,670567828e5c092145df8062,,,,,,,,,,,,,,,,,,,,,,,,509.2939,510.3418,l,0,[],[],[],[],[],[],[],0.3708,0,510.3433,510.8417,,,,,,195,FEM,DIS,150,pared,el,a,0.3708,,510.8417,510.8419,-0.00670856,-0.394059952,0,0,1,,0,215,215,194,1,,,,
,,,,,,,,,2024-10-08_11h40.17.420,Tarea de género gramatical,2024.2.1,MacIntel,60.24096386,0d828a45ab54823a65f9fca4,66a626ef09d4e21e1a8894ec,670567828e5c092145df8062,,,,,,,,,,,,,,,,,,,,,,,,510.8435,512.3584,a,1,[],[],[],[],[],[],[],0.8335,1,512.3598,512.8583,,,,,,285,FEM,DIS,150,mafia,el,a,0.8335,,512.8584,512.8586,-0.00670856,-0.394059952,0,0,1,,0,216,216,284,1,,,,
,,,,,,,,,2024-10-08_11h40.17.420,Tarea de género gramatical,2024.2.1,MacIntel,60.24096386,0d828a45ab54823a65f9fca4,66a626ef09d4e21e1a8894ec,670567828e5c092145df8062,,,,,,,,,,,,,,,,,,,,,,,,512.8601,514.2244,l,1,[],[],[],[],[],[],[],0.6848,1,514.2245,514.7244,,,,,,161,MAS,CON,150,chico,,l,0.6848,,514.7245,514.7247,-0.00670856,-0.394059952,0,0,1,,0,217,217,160,1,,,,
,,,,,,,,,2024-10-08_11h40.17.420,Tarea de género gramatical,2024.2.1,MacIntel,60.24096386,0d828a45ab54823a65f9fca4,66a626ef09d4e21e1a8894ec,670567828e5c092145df8062,,,,,,,,,,,,,,,,,,,,,,,,514.7263,515.7918,l,1,[],[],[],[],[],[],[],0.3836,1,515.7918,516.2917,,,,,,58,MAS,AGR,150,mono,el,l,0.3836,,516.2935,516.2944,-0.00670856,-0.394059952,0,0,1,,0,218,218,57,1,,,,
,,,,,,,,,2024-10-08_11h40.17.420,Tarea de género gramatical,2024.2.1,MacIntel,60.24096386,0d828a45ab54823a65f9fca4,66a626ef09d4e21e1a8894ec,670567828e5c092145df8062,,,,,,,,,,,,,,,,,,,,,,,,516.2952,517.475,a,1,[],[],[],[],[],[],[],0.5012,1,517.4752,517.975,,,,,,367,FEM,AGR,150,teoría,la,a,0.5012,,517.9752,517.9753,-0.00670856,-0.394059952,0,0,1,,0,219,219,366,1,,,,
,,,,,,,,,2024-10-08_11h40.17.420,Tarea de género gramatical,2024.2.1,MacIntel,60.24096386,0d828a45ab54823a65f9fca4,66a626ef09d4e21e1a8894ec,670567828e5c092145df8062,,,,,,,,,,,,,,,,,,,,,,,,517.977,519.0414,a,1,[],[],[],[],[],[],[],0.384,1,519.0415,519.5416,,,,,,140,FEM,CON,150,mula,,a,0.384,,519.5417,519.5418,-0.00670856,-0.394059952,0,0,1,,0,220,220,139,1,,,,
,,,,,,,,,2024-10-08_11h40.17.420,Tarea de género gramatical,2024.2.1,MacIntel,60.24096386,0d828a45ab54823a65f9fca4,66a626ef09d4e21e1a8894ec,670567828e5c092145df8062,,,,,,,,,,,,,,,,,,,,,,,,519.5432,520.4583,a,1,[],[],[],[],[],[],[],0.2366,1,520.4585,520.9583,,,,,,182,FEM,CON,150,prisa,,a,0.2366,,520.9584,520.9585,-0.00670856,-0.394059952,0,0,1,,0,221,221,181,1,,,,
,,,,,,,,,2024-10-08_11h40.17.420,Tarea de género gramatical,2024.2.1,MacIntel,60.24096386,0d828a45ab54823a65f9fca4,66a626ef09d4e21e1a8894ec,670567828e5c092145df8062,,,,,,,,,,,,,,,,,,,,,,,,520.9602,522.0078,l,1,[],[],[],[],[],[],[],0.3654,1,522.0078,522.5082,,,,,,76,MAS,AGR,150,lujo,el,l,0.3654,,522.5093,522.5104,-0.00670856,-0.394059952,0,0,1,,0,222,222,75,1,,,,
,,,,,,,,,2024-10-08_11h40.17.420,Tarea de género gramatical,2024.2.1,MacIntel,60.24096386,0d828a45ab54823a65f9fca4,66a626ef09d4e21e1a8894ec,670567828e5c092145df8062,,,,,,,,,,,,,,,,,,,,,,,,522.5112,523.7584,a,1,[],[],[],[],[],[],[],0.5663,1,523.7585,524.2578,,,,,,189,FEM,DIS,150,pista,el,a,0.5663,,524.2578,524.2579,-0.00670856,-0.394059952,0,0,1,,0,223,223,188,1,,,,
,,,,,,,,,2024-10-08_11h40.17.420,Tarea de género gramatical,2024.2.1,MacIntel,60.24096386,0d828a45ab54823a65f9fca4,66a626ef09d4e21e1a8894ec,670567828e5c092145df8062,,,,,,,,,,,,,,,,,,,,,,,,524.2583,525.3749,l,1,[],[],[],[],[],[],[],0.4366,1,525.375,525.8742,,,,,,366,MAS,DIS,150,riesgo,la,l,0.4366,,525.8744,525.8746,-0.00670856,-0.394059952,0,0,1,,0,224,224,365,1,,,,
,,,,,,,,,2024-10-08_11h40.17.420,Tarea de género gramatical,2024.2.1,MacIntel,60.24096386,0d828a45ab54823a65f9fca4,66a626ef09d4e21e1a8894ec,670567828e5c092145df8062,,,,,,,,,,,,,,,,,,,,,,,,525.8759,527.0583,l,1,[],[],[],[],[],[],[],0.4994,1,527.0584,527.5583,,,,,,113,MAS,CON,150,toro,,l,0.4994,,527.5584,527.5586,-0.00670856,-0.394059952,0,0,1,,0,225,225,112,1,,,,
,,,,,,,,,2024-10-08_11h40.17.420,Tarea de género gramatical,2024.2.1,MacIntel,60.24096386,0d828a45ab54823a65f9fca4,66a626ef09d4e21e1a8894ec,670567828e5c092145df8062,,,,,,,,,,,,,,,,,,,,,,,,527.5599,528.5748,l,1,[],[],[],[],[],[],[],0.3373,1,528.575,529.0739,,,,,,132,MAS,DIS,150,velo,la,l,0.3373,,529.0739,529.0741,-0.00670856,-0.394059952,0,0,1,,0,226,226,131,1,,,,
,,,,,,,,,2024-10-08_11h40.17.420,Tarea de género gramatical,2024.2.1,MacIntel,60.24096386,0d828a45ab54823a65f9fca4,66a626ef09d4e21e1a8894ec,670567828e5c092145df8062,,,,,,,,,,,,,,,,,,,,,,,,529.0753,530.0751,l,1,[],[],[],[],[],[],[],0.3339,1,530.0752,530.575,,,,,,328,MAS,AGR,150,asunto,el,l,0.3339,,530.5767,530.5776,-0.00670856,-0.394059952,0,0,1,,0,227,227,327,1,,,,
,,,,,,,,,2024-10-08_11h40.17.420,Tarea de género gramatical,2024.2.1,MacIntel,60.24096386,0d828a45ab54823a65f9fca4,66a626ef09d4e21e1a8894ec,670567828e5c092145df8062,,,,,,,,,,,,,,,,,,,,,,,,530.5785,531.8583,l,1,[],[],[],[],[],[],[],0.601,1,531.8584,532.3582,,,,,,334,MAS,AGR,150,ataque,el,l,0.601,,532.3583,532.3583,-0.00670856,-0.394059952,0,0,1,,0,228,228,333,1,,,,
,,,,,,,,,2024-10-08_11h40.17.420,Tarea de género gramatical,2024.2.1,MacIntel,60.24096386,0d828a45ab54823a65f9fca4,66a626ef09d4e21e1a8894ec,670567828e5c092145df8062,,,,,,,,,,,,,,,,,,,,,,,,532.3602,533.3083,l,0,[],[],[],[],[],[],[],0.266,0,533.3095,533.8083,,,,,,121,FEM,AGR,150,pila,la,a,0.266,,533.8084,533.8085,-0.00670856,-0.394059952,0,0,1,,0,229,229,120,1,,,,
,,,,,,,,,2024-10-08_11h40.17.420,Tarea de género gramatical,2024.2.1,MacIntel,60.24096386,0d828a45ab54823a65f9fca4,66a626ef09d4e21e1a8894ec,670567828e5c092145df8062,,,,,,,,,,,,,,,,,,,,,,,,533.8101,534.875,a,1,[],[],[],[],[],[],[],0.3838,1,534.8762,535.3749,,,,,,278,FEM,CON,150,presa,,a,0.3838,,535.375,535.3752,-0.00670856,-0.394059952,0,0,1,,0,230,230,277,1,,,,
,,,,,,,,,2024-10-08_11h40.17.420,Tarea de género gramatical,2024.2.1,MacIntel,60.24096386,0d828a45ab54823a65f9fca4,66a626ef09d4e21e1a8894ec,670567828e5c092145df8062,,,,,,,,,,,,,,,,,,,,,,,,535.3769,536.3916,a,1,[],[],[],[],[],[],[],0.3325,1,536.3917,536.8916,,,,,,296,FEM,CON,150,feria,,a,0.3325,,536.8934,536.8944,-0.00670856,-0.394059952,0,0,1,,0,231,231,295,1,,,,
,,,,,,,,,2024-10-08_11h40.17.420,Tarea de género gramatical,2024.2.1,MacIntel,60.24096386,0d828a45ab54823a65f9fca4,66a626ef09d4e21e1a8894ec,670567828e5c092145df8062,,,,,,,,,,,,,,,,,,,,,,,,536.8953,537.9415,l,1,[],[],[],[],[],[],[],0.3673,1,537.9416,538.4415,,,,,,125,MAS,CON,150,bate,,l,0.3673,,538.4416,538.4417,-0.00670856,-0.394059952,0,0,1,,0,232,232,124,1,,,,
,,,,,,,,,2024-10-08_11h40.17.420,Tarea de género gramatical,2024.2.1,MacIntel,60.24096386,0d828a45ab54823a65f9fca4,66a626ef09d4e21e1a8894ec,670567828e5c092145df8062,,,,,,,,,,,,,,,,,,,,,,,,538.4431,539.5749,l,1,[],[],[],[],[],[],[],0.4492,1,539.575,540.0746,,,,,,196,MAS,AGR,150,barco,el,l,0.4492,,540.0748,540.0749,-0.00670856,-0.394059952,0,0,1,,0,233,233,195,1,,,,
,,,,,,,,,2024-10-08_11h40.17.420,Tarea de género gramatical,2024.2.1,MacIntel,60.24096386,0d828a45ab54823a65f9fca4,66a626ef09d4e21e1a8894ec,670567828e5c092145df8062,,,,,,,,,,,,,,,,,,,,,,,,540.0764,541.075,l,0,[],[],[],[],[],[],[],0.3177,0,541.0764,541.5751,,,,,,337,FEM,AGR,150,escena,la,a,0.3177,,541.5752,541.5754,-0.00670856,-0.394059952,0,0,1,,0,234,234,336,1,,,,
,,,,,,,,,2024-10-08_11h40.17.420,Tarea de género gramatical,2024.2.1,MacIntel,60.24096386,0d828a45ab54823a65f9fca4,66a626ef09d4e21e1a8894ec,670567828e5c092145df8062,,,,,,,,,,,,,,,,,,,,,,,,541.577,542.8249,a,1,[],[],[],[],[],[],[],0.5677,1,542.8261,543.3249,,,,,,75,FEM,DIS,150,caza,el,a,0.5677,,543.325,543.3253,-0.00670856,-0.394059952,0,0,1,,0,235,235,74,1,,,,
,,,,,,,,,2024-10-08_11h40.17.420,Tarea de género gramatical,2024.2.1,MacIntel,60.24096386,0d828a45ab54823a65f9fca4,66a626ef09d4e21e1a8894ec,670567828e5c092145df8062,,,,,,,,,,,,,,,,,,,,,,,,543.3268,544.4416,a,1,[],[],[],[],[],[],[],0.437,1,544.4419,544.9415,,,,,,158,FEM,CON,150,chica,,a,0.437,,544.9433,544.9444,-0.00670856,-0.394059952,0,0,1,,0,236,236,157,1,,,,
,,,,,,,,,2024-10-08_11h40.17.420,Tarea de género gramatical,2024.2.1,MacIntel,60.24096386,0d828a45ab54823a65f9fca4,66a626ef09d4e21e1a8894ec,670567828e5c092145df8062,,,,,,,,,,,,,,,,,,,,,,,,544.9454,546.0748,l,0,[],[],[],[],[],[],[],0.4517,0,546.0759,546.5749,,,,,,139,FEM,AGR,150,pipa,la,a,0.4517,,546.575,546.5752,-0.00670856,-0.394059952,0,0,1,,0,237,237,138,1,,,,
,,,,,,,,,2024-10-08_11h40.17.420,Tarea de género gramatical,2024.2.1,MacIntel,60.24096386,0d828a45ab54823a65f9fca4,66a626ef09d4e21e1a8894ec,670567828e5c092145df8062,,,,,,,,,,,,,,,,,,,,,,,,546.5768,547.3415,a,0,[],[],[],[],[],[],[],0.0942,0,547.3416,547.8416,,,,,,262,MAS,AGR,150,video,el,l,0.0942,,547.8417,547.8418,-0.00670856,-0.394059952,0,0,1,,0,238,238,261,1,,,,
,,,,,,,,,2024-10-08_11h40.17.420,Tarea de género gramatical,2024.2.1,MacIntel,60.24096386,0d828a45ab54823a65f9fca4,66a626ef09d4e21e1a8894ec,670567828e5c092145df8062,,,,,,,,,,,,,,,,,,,,,,,,547.8434,548.6416,l,1,[],[],[],[],[],[],[],0.1191,1,548.6431,549.1414,,,,,,323,MAS,CON,150,marido,,l,0.1191,,549.1415,549.1416,-0.00670856,-0.394059952,0,0,1,,0,239,239,322,1,,,,
,,,,,,,,,2024-10-08_11h40.17.420,Tarea de género gramatical,2024.2.1,MacIntel,60.24096386,0d828a45ab54823a65f9fca4,66a626ef09d4e21e1a8894ec,670567828e5c092145df8062,,,,,,,,,,,,,,,,,,,,,,,,549.1428,550.2249,l,1,[],[],[],[],[],[],[],0.4015,1,550.225,550.7248,,,,,,317,MAS,CON,150,número,,l,0.4015,,550.7266,550.7278,-0.00670856,-0.394059952,0,0,1,,0,240,240,316,1,,,,
,,,,,,,,,2024-10-08_11h40.17.420,Tarea de género gramatical,2024.2.1,MacIntel,60.24096386,0d828a45ab54823a65f9fca4,66a626ef09d4e21e1a8894ec,670567828e5c092145df8062,,,,,,,,,,,,,,,,,,,,,,,,550.7287,552.0576,l,1,[],[],[],[],[],[],[],0.651,1,552.0577,552.5582,,,,,,324,MAS,DIS,150,cuarto,la,l,0.651,,552.5582,552.5584,-0.00670856,-0.394059952,0,0,1,,0,241,241,323,1,,,,
,,,,,,,,,2024-10-08_11h40.17.420,Tarea de género gramatical,2024.2.1,MacIntel,60.24096386,0d828a45ab54823a65f9fca4,66a626ef09d4e21e1a8894ec,670567828e5c092145df8062,,,,,,,,,,,,,,,,,,,,,,,,552.5598,553.8082,a,1,[],[],[],[],[],[],[],0.5688,1,553.8084,554.3081,,,,,,392,FEM,CON,150,maleta,,a,0.5688,,554.3082,554.3083,-0.00670856,-0.394059952,0,0,1,,0,242,242,391,1,,,,
,,,,,,,,,2024-10-08_11h40.17.420,Tarea de género gramatical,2024.2.1,MacIntel,60.24096386,0d828a45ab54823a65f9fca4,66a626ef09d4e21e1a8894ec,670567828e5c092145df8062,,,,,,,,,,,,,,,,,,,,,,,,554.3099,555.5079,l,1,[],[],[],[],[],[],[],0.52,1,555.5081,556.0081,,,,,,84,MAS,DIS,150,mago,la,l,0.52,,556.0082,556.0083,-0.00670856,-0.394059952,0,0,1,,0,243,243,83,1,,,,
,,,,,,,,,2024-10-08_11h40.17.420,Tarea de género gramatical,2024.2.1,MacIntel,60.24096386,0d828a45ab54823a65f9fca4,66a626ef09d4e21e1a8894ec,670567828e5c092145df8062,,,,,,,,,,,,,,,,,,,,,,,,556.0099,557.5581,l,1,[],[],[],[],[],[],[],0.8664,1,557.5582,558.0581,,,,,,42,MAS,DIS,150,show,la,l,0.8664,,558.0583,558.0583,-0.00670856,-0.394059952,0,0,1,,0,244,244,41,1,,,,
,,,,,,,,,2024-10-08_11h40.17.420,Tarea de género gramatical,2024.2.1,MacIntel,60.24096386,0d828a45ab54823a65f9fca4,66a626ef09d4e21e1a8894ec,670567828e5c092145df8062,,,,,,,,,,,,,,,,,,,,,,,,558.0599,559.4082,a,1,[],[],[],[],[],[],[],0.6674,1,559.4084,559.9075,,,,,,110,FEM,CON,150,rosa,,a,0.6674,,559.9093,559.9105,-0.00670856,-0.394059952,0,0,1,,0,245,245,109,1,,,,
,,,,,,,,,2024-10-08_11h40.17.420,Tarea de género gramatical,2024.2.1,MacIntel,60.24096386,0d828a45ab54823a65f9fca4,66a626ef09d4e21e1a8894ec,670567828e5c092145df8062,,,,,,,,,,,,,,,,,,,,,,,,559.9114,561.0582,l,0,[],[],[],[],[],[],[],0.4666,0,561.0593,561.558,,,,,,297,FEM,DIS,150,manta,el,a,0.4666,,561.5581,561.5583,-0.00670856,-0.394059952,0,0,1,,0,246,246,296,1,,,,
