counterbalancing_condition,consent_prescreening.block_1/declare_consent,consent_prescreening.block_1/age_years,consent_prescreening.block_1/gender,consent_prescreening.block_1/language_disorder,consent_prescreening.block_1/first_language,PROLIFIC_PID,STUDY_ID,SESSION_ID,date,expName,psychopyVersion,OS,frameRate,check_prescreening_answers.started,check_prescreening_answers.stopped,Instructions.started,Instructions.stopped,instr_done_keyboard.keys,instr_done_touch.x,instr_done_touch.y,instr_done_touch.leftButton,instr_done_touch.midButton,instr_done_touch.rightButton,instr_done_touch.clicked_name,instruction_pages.thisRepN,instruction_pages.thisTrialN,instruction_pages.thisN,instruction_pages.thisIndex,instruction_pages.ran,pageN,phase,instruct_text,has_image,instruct_image,instr_done_keyboard.rt,instr_done_keyboard.duration,presentTrial.started,presentTrial.stopped,response.keys,response.corr,touch_resp.x,touch_resp.y,touch_resp.leftButton,touch_resp.midButton,touch_resp.rightButton,touch_resp.time,touch_resp.clicked_name,rt,corr,feedback.started,feedback.stopped,practice_trials.thisRepN,practice_trials.thisTrialN,practice_trials.thisN,practice_trials.thisIndex,practice_trials.ran,TrialID,StimulusType,Condition,PrimeDuration,Prime,Flanker,corrAns,response.rt,response.duration,Break.started,Break.stopped,break_done_touch.x,break_done_touch.y,break_done_touch.leftButton,break_done_touch.midButton,break_done_touch.rightButton,break_done_keyboard.keys,experiment_trials.thisRepN,experiment_trials.thisTrialN,experiment_trials.thisN,experiment_trials.thisIndex,experiment_trials.ran,break_done_keyboard.rt,break_done_keyboard.duration,End.started,End.stopped
2,"[""over_18"",""comfortable"",""read_info"",""consent_given""]",47,M,"[""none""]","[""spanish""]",0e5f4fb4bc650ade2db46a1e,66a626ef09d4e21e1a8894ec,67377f52f01bb5a37e177469,2024-11-15_18h05.50.611,Tarea de género gramatical,2024.2.2,Win32,59.88023952,,,,,,,,,,,,,,,,,,,,,,,,,,,,,,,,,,,,,,,,,,,,,,,,,,,,,,,,,,,,,,,,,,,,,
,,,,,,0e5f4fb4bc650ade2db46a1e,66a626ef09d4e21e1a8894ec,67377f52f01bb5a37e177469,2024-11-15_18h05.50.611,Tarea de género gramatical,2024.2.2,Win32,59.88023952,27.4962,27.4966,,,,,,,,,,,,,,,,,,,,,,,,,,,,,,,,,,,,,,,,,,,,,,,,,,,,,,,,,,,,,,,,,,,
,,,,,,0e5f4fb4bc650ade2db46a1e,66a626ef09d4e21e1a8894ec,67377f52f01bb5a37e177469,2024-11-15_18h05.50.611,Tarea de género gramatical,2024.2.2,Win32,59.88023952,,,27.5454,64.3528,,0.061197917,-0.40234375,1,0,0,instr_done_button,0,0,0,0,1,1,instructions,"INSTRUCCIONES
Va a realizar una prueba de selección gramatical. Desde el comienzo de la prueba mire siempre al centro de la pantalla. Al cabo de un momento, aparecerán palabras. La tarea consiste en determinar si la palabra del centro (siempre será un sustantivo), pertenece al género masculino o femenino.

Pulse la tecla ESPACIO o toque el botón de abajo para continuar.",0,keyboardresponseFM.png,,,,,,,,,,,,,,,,,,,,,,,,,,,,,,,,,,,,,,,,,,,,,,,,
,,,,,,0e5f4fb4bc650ade2db46a1e,66a626ef09d4e21e1a8894ec,67377f52f01bb5a37e177469,2024-11-15_18h05.50.611,Tarea de género gramatical,2024.2.2,Win32,59.88023952,,,64.3635,105.5636,space,-0.010416667,-0.18359375,0,0,0,,0,1,1,1,1,2,instructions,"Si su dispositivo tiene teclado, pulse la tecla ""A"" para las palabras en femenino (por ejemplo: ""mano"") y la tecla ""L"" para las palabras en masculino(por ejemplo: ""arroz"").
Pulse la tecla ESPACIO o toque el botón de abajo para continuar.",1,keyboardresponseFM.png,41.0986,,,,,,,,,,,,,,,,,,,,,,,,,,,,,,,,,,,,,,,,,,,,,,,
,,,,,,0e5f4fb4bc650ade2db46a1e,66a626ef09d4e21e1a8894ec,67377f52f01bb5a37e177469,2024-11-15_18h05.50.611,Tarea de género gramatical,2024.2.2,Win32,59.88023952,,,105.5671,110.9829,space,-0.010416667,-0.18359375,0,0,0,,0,2,2,2,1,3,instructions,"Si utiliza un dispositivo sólo táctil, colóquelo en horizontal y utilice los botones de la pantalla. No utilice el ratón.
Pulse la tecla ESPACIO o toque el botón de abajo para continuar.",2,touchresponseFM.png,5.3554,,,,,,,,,,,,,,,,,,,,,,,,,,,,,,,,,,,,,,,,,,,,,,,
,,,,,,0e5f4fb4bc650ade2db46a1e,66a626ef09d4e21e1a8894ec,67377f52f01bb5a37e177469,2024-11-15_18h05.50.611,Tarea de género gramatical,2024.2.2,Win32,59.88023952,,,110.9906,123.8498,space,-0.010416667,-0.18359375,0,0,0,,0,3,3,3,1,4,instructions,"Es muy importante que responda con la mayor rapidez y precisión posibles, ya que cada cadena de letras sólo estará en pantalla durante un instante. Si no responde en ese tiempo, aparecerá el mensaje ""Muy lento"" y el experimento pasará a la siguiente palabra. Los primeros 15 intentos serán de práctica y habrá dos descansos durante la prueba.
Pulse la tecla ESPACIO o toque el botón de abajo para iniciar la parte de práctica.",0,keyboardresponseFM.png,12.8432,,,,,,,,,,,,,,,,,,,,,,,,,,,,,,,,,,,,,,,,,,,,,,,
,,,,,,0e5f4fb4bc650ade2db46a1e,66a626ef09d4e21e1a8894ec,67377f52f01bb5a37e177469,2024-11-15_18h05.50.611,Tarea de género gramatical,2024.2.2,Win32,59.88023952,,,,,,,,,,,,,,,,,,,,,,,,123.9147,126.5546,,0,[],[],[],[],[],[],[],,-1,126.5555,127.0562,0,0,0,10,1,2011,MAS,CON,150,canal,,l,,,,,,,,,,,,,,,,,,,
,,,,,,0e5f4fb4bc650ade2db46a1e,66a626ef09d4e21e1a8894ec,67377f52f01bb5a37e177469,2024-11-15_18h05.50.611,Tarea de género gramatical,2024.2.2,Win32,59.88023952,,,,,,,,,,,,,,,,,,,,,,,,127.0606,128.9627,a,1,[],[],[],[],[],[],[],1.2402,1,128.9819,129.4672,0,1,1,7,1,2008,FEM,CON,150,siesta,,a,1.2402,,,,,,,,,,,,,,,,,,
,,,,,,0e5f4fb4bc650ade2db46a1e,66a626ef09d4e21e1a8894ec,67377f52f01bb5a37e177469,2024-11-15_18h05.50.611,Tarea de género gramatical,2024.2.2,Win32,59.88023952,,,,,,,,,,,,,,,,,,,,,,,,129.4686,130.7855,a,1,[],[],[],[],[],[],[],0.654,1,130.7857,131.2754,0,2,2,6,1,2007,FEM,AGR,150,navaja,la,a,0.654,,,,,,,,,,,,,,,,,,
,,,,,,0e5f4fb4bc650ade2db46a1e,66a626ef09d4e21e1a8894ec,67377f52f01bb5a37e177469,2024-11-15_18h05.50.611,Tarea de género gramatical,2024.2.2,Win32,59.88023952,,,,,,,,,,,,,,,,,,,,,,,,131.2764,132.4748,a,1,[],[],[],[],[],[],[],0.5222,1,132.4751,132.9626,0,3,3,3,1,2004,FEM,AGR,150,venta,la,a,0.5222,,,,,,,,,,,,,,,,,,
,,,,,,0e5f4fb4bc650ade2db46a1e,66a626ef09d4e21e1a8894ec,67377f52f01bb5a37e177469,2024-11-15_18h05.50.611,Tarea de género gramatical,2024.2.2,Win32,59.88023952,,,,,,,,,,,,,,,,,,,,,,,,132.964,134.1194,l,0,[],[],[],[],[],[],[],0.4881,0,134.1208,134.6205,0,4,4,2,1,2003,FEM,DIS,150,daga,el,a,0.4881,,,,,,,,,,,,,,,,,,
,,,,,,0e5f4fb4bc650ade2db46a1e,66a626ef09d4e21e1a8894ec,67377f52f01bb5a37e177469,2024-11-15_18h05.50.611,Tarea de género gramatical,2024.2.2,Win32,59.88023952,,,,,,,,,,,,,,,,,,,,,,,,134.6221,135.892,l,1,[],[],[],[],[],[],[],0.6191,1,135.8925,136.3913,0,5,5,12,1,2013,MAS,AGR,150,acero,el,l,0.6191,,,,,,,,,,,,,,,,,,
,,,,,,0e5f4fb4bc650ade2db46a1e,66a626ef09d4e21e1a8894ec,67377f52f01bb5a37e177469,2024-11-15_18h05.50.611,Tarea de género gramatical,2024.2.2,Win32,59.88023952,,,,,,,,,,,,,,,,,,,,,,,,136.3926,138.0679,a,0,[],[],[],[],[],[],[],1.0084,0,138.0684,138.566,0,6,6,14,1,2015,MAS,DIS,150,robot,la,l,1.0084,,,,,,,,,,,,,,,,,,
,,,,,,0e5f4fb4bc650ade2db46a1e,66a626ef09d4e21e1a8894ec,67377f52f01bb5a37e177469,2024-11-15_18h05.50.611,Tarea de género gramatical,2024.2.2,Win32,59.88023952,,,,,,,,,,,,,,,,,,,,,,,,138.5681,140.1227,l,1,[],[],[],[],[],[],[],0.8715,1,140.1233,140.62,0,7,7,8,1,2009,MAS,DIS,150,puerto,la,l,0.8715,,,,,,,,,,,,,,,,,,
,,,,,,0e5f4fb4bc650ade2db46a1e,66a626ef09d4e21e1a8894ec,67377f52f01bb5a37e177469,2024-11-15_18h05.50.611,Tarea de género gramatical,2024.2.2,Win32,59.88023952,,,,,,,,,,,,,,,,,,,,,,,,140.6212,141.9965,a,1,[],[],[],[],[],[],[],0.7038,1,141.9966,142.4962,0,8,8,0,1,2001,FEM,AGR,150,nuca,la,a,0.7038,,,,,,,,,,,,,,,,,,
,,,,,,0e5f4fb4bc650ade2db46a1e,66a626ef09d4e21e1a8894ec,67377f52f01bb5a37e177469,2024-11-15_18h05.50.611,Tarea de género gramatical,2024.2.2,Win32,59.88023952,,,,,,,,,,,,,,,,,,,,,,,,142.4972,143.7867,l,0,[],[],[],[],[],[],[],0.6197,0,143.7872,144.2881,0,9,9,5,1,2006,FEM,DIS,150,serie,el,a,0.6197,,,,,,,,,,,,,,,,,,
,,,,,,0e5f4fb4bc650ade2db46a1e,66a626ef09d4e21e1a8894ec,67377f52f01bb5a37e177469,2024-11-15_18h05.50.611,Tarea de género gramatical,2024.2.2,Win32,59.88023952,,,,,,,,,,,,,,,,,,,,,,,,144.2894,145.9786,a,1,[],[],[],[],[],[],[],1.0062,1,145.9793,146.4742,0,10,10,1,1,2002,FEM,CON,150,pala,,a,1.0062,,,,,,,,,,,,,,,,,,
,,,,,,0e5f4fb4bc650ade2db46a1e,66a626ef09d4e21e1a8894ec,67377f52f01bb5a37e177469,2024-11-15_18h05.50.611,Tarea de género gramatical,2024.2.2,Win32,59.88023952,,,,,,,,,,,,,,,,,,,,,,,,146.4753,147.9125,l,1,[],[],[],[],[],[],[],0.766,1,147.9126,148.4007,0,11,11,9,1,2010,MAS,AGR,150,vecino,el,l,0.766,,,,,,,,,,,,,,,,,,
,,,,,,0e5f4fb4bc650ade2db46a1e,66a626ef09d4e21e1a8894ec,67377f52f01bb5a37e177469,2024-11-15_18h05.50.611,Tarea de género gramatical,2024.2.2,Win32,59.88023952,,,,,,,,,,,,,,,,,,,,,,,,148.4017,149.7573,a,1,[],[],[],[],[],[],[],0.6882,1,149.7574,150.2541,0,12,12,4,1,2005,FEM,CON,150,placa,,a,0.6882,,,,,,,,,,,,,,,,,,
,,,,,,0e5f4fb4bc650ade2db46a1e,66a626ef09d4e21e1a8894ec,67377f52f01bb5a37e177469,2024-11-15_18h05.50.611,Tarea de género gramatical,2024.2.2,Win32,59.88023952,,,,,,,,,,,,,,,,,,,,,,,,150.2557,151.6982,l,1,[],[],[],[],[],[],[],0.7723,1,151.6982,152.1971,0,13,13,13,1,2014,MAS,CON,150,siglo,,l,0.7723,,,,,,,,,,,,,,,,,,
,,,,,,0e5f4fb4bc650ade2db46a1e,66a626ef09d4e21e1a8894ec,67377f52f01bb5a37e177469,2024-11-15_18h05.50.611,Tarea de género gramatical,2024.2.2,Win32,59.88023952,,,,,,,,,,,,,,,,,,,,,,,,152.1984,153.654,a,0,[],[],[],[],[],[],[],0.8028,0,153.6546,154.1508,0,14,14,11,1,2012,MAS,DIS,150,clima,la,l,0.8028,,,,,,,,,,,,,,,,,,
,,,,,,0e5f4fb4bc650ade2db46a1e,66a626ef09d4e21e1a8894ec,67377f52f01bb5a37e177469,2024-11-15_18h05.50.611,Tarea de género gramatical,2024.2.2,Win32,59.88023952,,,158.71,162.854,space,-0.010416667,-0.18359375,0,0,0,,,,,,,,,,,,4.1342,,162.9645,164.421,l,1,[],[],[],[],[],[],[],0.7915,1,164.4232,164.9227,,,,,,1140,MAS,CON,150,ruido,,l,0.7915,,164.9234,164.9327,-0.010416667,-0.18359375,0,0,0,,0,0,0,239,1,,,,
,,,,,,0e5f4fb4bc650ade2db46a1e,66a626ef09d4e21e1a8894ec,67377f52f01bb5a37e177469,2024-11-15_18h05.50.611,Tarea de género gramatical,2024.2.2,Win32,59.88023952,,,,,,,,,,,,,,,,,,,,,,,,164.9347,166.1271,a,1,[],[],[],[],[],[],[],0.5311,1,166.1272,166.6288,,,,,,1335,FEM,CON,150,niebla,,a,0.5311,,166.629,166.6295,-0.010416667,-0.18359375,0,0,0,,0,1,1,434,1,,,,
,,,,,,0e5f4fb4bc650ade2db46a1e,66a626ef09d4e21e1a8894ec,67377f52f01bb5a37e177469,2024-11-15_18h05.50.611,Tarea de género gramatical,2024.2.2,Win32,59.88023952,,,,,,,,,,,,,,,,,,,,,,,,166.6325,167.9362,l,1,[],[],[],[],[],[],[],0.6514,1,167.9363,168.4349,,,,,,1151,MAS,AGR,150,dueño,el,l,0.6514,,168.4363,168.437,-0.010416667,-0.18359375,0,0,0,,0,2,2,250,1,,,,
,,,,,,0e5f4fb4bc650ade2db46a1e,66a626ef09d4e21e1a8894ec,67377f52f01bb5a37e177469,2024-11-15_18h05.50.611,Tarea de género gramatical,2024.2.2,Win32,59.88023952,,,,,,,,,,,,,,,,,,,,,,,,168.4378,169.7063,a,1,[],[],[],[],[],[],[],0.5971,1,169.7067,170.2082,,,,,,993,FEM,CON,150,lata,,a,0.5971,,170.2085,170.2089,-0.010416667,-0.18359375,0,0,0,,0,3,3,92,1,,,,
,,,,,,0e5f4fb4bc650ade2db46a1e,66a626ef09d4e21e1a8894ec,67377f52f01bb5a37e177469,2024-11-15_18h05.50.611,Tarea de género gramatical,2024.2.2,Win32,59.88023952,,,,,,,,,,,,,,,,,,,,,,,,170.2118,171.4671,a,1,[],[],[],[],[],[],[],0.6024,1,171.4672,171.9643,,,,,,944,FEM,AGR,150,zona,la,a,0.6024,,171.9645,171.9647,-0.010416667,-0.18359375,0,0,0,,0,4,4,43,1,,,,
,,,,,,0e5f4fb4bc650ade2db46a1e,66a626ef09d4e21e1a8894ec,67377f52f01bb5a37e177469,2024-11-15_18h05.50.611,Tarea de género gramatical,2024.2.2,Win32,59.88023952,,,,,,,,,,,,,,,,,,,,,,,,171.9667,173.168,a,1,[],[],[],[],[],[],[],0.5415,1,173.1683,173.6702,,,,,,1100,FEM,AGR,150,silla,la,a,0.5415,,173.6703,173.6707,-0.010416667,-0.18359375,0,0,0,,0,5,5,199,1,,,,
,,,,,,0e5f4fb4bc650ade2db46a1e,66a626ef09d4e21e1a8894ec,67377f52f01bb5a37e177469,2024-11-15_18h05.50.611,Tarea de género gramatical,2024.2.2,Win32,59.88023952,,,,,,,,,,,,,,,,,,,,,,,,173.673,174.8747,l,1,[],[],[],[],[],[],[],0.541,1,174.8749,175.3766,,,,,,1092,MAS,CON,150,grupo,,l,0.541,,175.3797,175.3814,-0.010416667,-0.18359375,0,0,0,,0,6,6,191,1,,,,
,,,,,,0e5f4fb4bc650ade2db46a1e,66a626ef09d4e21e1a8894ec,67377f52f01bb5a37e177469,2024-11-15_18h05.50.611,Tarea de género gramatical,2024.2.2,Win32,59.88023952,,,,,,,,,,,,,,,,,,,,,,,,175.3831,176.6823,l,1,[],[],[],[],[],[],[],0.6322,1,176.6825,177.1828,,,,,,1343,MAS,AGR,150,templo,el,l,0.6322,,177.183,177.1834,-0.010416667,-0.18359375,0,0,0,,0,7,7,442,1,,,,
,,,,,,0e5f4fb4bc650ade2db46a1e,66a626ef09d4e21e1a8894ec,67377f52f01bb5a37e177469,2024-11-15_18h05.50.611,Tarea de género gramatical,2024.2.2,Win32,59.88023952,,,,,,,,,,,,,,,,,,,,,,,,177.1856,178.5208,l,1,[],[],[],[],[],[],[],0.6719,1,178.521,179.0225,,,,,,1037,MAS,AGR,150,coco,el,l,0.6719,,179.0226,179.0229,-0.010416667,-0.18359375,0,0,0,,0,8,8,136,1,,,,
,,,,,,0e5f4fb4bc650ade2db46a1e,66a626ef09d4e21e1a8894ec,67377f52f01bb5a37e177469,2024-11-15_18h05.50.611,Tarea de género gramatical,2024.2.2,Win32,59.88023952,,,,,,,,,,,,,,,,,,,,,,,,179.025,180.076,l,1,[],[],[],[],[],[],[],0.3897,1,180.0764,180.5777,,,,,,930,MAS,CON,150,cine,,l,0.3897,,180.5778,180.5782,-0.010416667,-0.18359375,0,0,0,,0,9,9,29,1,,,,
,,,,,,0e5f4fb4bc650ade2db46a1e,66a626ef09d4e21e1a8894ec,67377f52f01bb5a37e177469,2024-11-15_18h05.50.611,Tarea de género gramatical,2024.2.2,Win32,59.88023952,,,,,,,,,,,,,,,,,,,,,,,,180.5799,181.7319,a,1,[],[],[],[],[],[],[],0.4925,1,181.732,182.2335,,,,,,1329,FEM,CON,150,fianza,,a,0.4925,,182.2335,182.2337,-0.010416667,-0.18359375,0,0,0,,0,10,10,428,1,,,,
,,,,,,0e5f4fb4bc650ade2db46a1e,66a626ef09d4e21e1a8894ec,67377f52f01bb5a37e177469,2024-11-15_18h05.50.611,Tarea de género gramatical,2024.2.2,Win32,59.88023952,,,,,,,,,,,,,,,,,,,,,,,,182.2352,183.6071,a,1,[],[],[],[],[],[],[],0.7175,1,183.6072,184.107,,,,,,1291,FEM,DIS,150,altura,el,a,0.7175,,184.11,184.1119,-0.010416667,-0.18359375,0,0,0,,0,11,11,390,1,,,,
,,,,,,0e5f4fb4bc650ade2db46a1e,66a626ef09d4e21e1a8894ec,67377f52f01bb5a37e177469,2024-11-15_18h05.50.611,Tarea de género gramatical,2024.2.2,Win32,59.88023952,,,,,,,,,,,,,,,,,,,,,,,,184.1135,185.4786,a,1,[],[],[],[],[],[],[],0.6874,1,185.4789,185.9804,,,,,,1285,FEM,DIS,150,muñeca,el,a,0.6874,,185.9805,185.9806,-0.010416667,-0.18359375,0,0,0,,0,12,12,384,1,,,,
,,,,,,0e5f4fb4bc650ade2db46a1e,66a626ef09d4e21e1a8894ec,67377f52f01bb5a37e177469,2024-11-15_18h05.50.611,Tarea de género gramatical,2024.2.2,Win32,59.88023952,,,,,,,,,,,,,,,,,,,,,,,,185.9838,187.3853,l,1,[],[],[],[],[],[],[],0.7471,1,187.3856,187.8872,,,,,,1115,MAS,AGR,150,hueso,el,l,0.7471,,187.8872,187.8874,-0.010416667,-0.18359375,0,0,0,,0,13,13,214,1,,,,
,,,,,,0e5f4fb4bc650ade2db46a1e,66a626ef09d4e21e1a8894ec,67377f52f01bb5a37e177469,2024-11-15_18h05.50.611,Tarea de género gramatical,2024.2.2,Win32,59.88023952,,,,,,,,,,,,,,,,,,,,,,,,187.8896,189.1584,l,1,[],[],[],[],[],[],[],0.613,1,189.1585,189.6595,,,,,,1288,MAS,DIS,150,empleo,la,l,0.613,,189.6596,189.6598,-0.010416667,-0.18359375,0,0,0,,0,14,14,387,1,,,,
,,,,,,0e5f4fb4bc650ade2db46a1e,66a626ef09d4e21e1a8894ec,67377f52f01bb5a37e177469,2024-11-15_18h05.50.611,Tarea de género gramatical,2024.2.2,Win32,59.88023952,,,,,,,,,,,,,,,,,,,,,,,,189.6611,191.132,a,1,[],[],[],[],[],[],[],0.8071,1,191.1322,191.6338,,,,,,1231,FEM,DIS,150,cárcel,el,a,0.8071,,191.6367,191.6385,-0.010416667,-0.18359375,0,0,0,,0,15,15,330,1,,,,
,,,,,,0e5f4fb4bc650ade2db46a1e,66a626ef09d4e21e1a8894ec,67377f52f01bb5a37e177469,2024-11-15_18h05.50.611,Tarea de género gramatical,2024.2.2,Win32,59.88023952,,,,,,,,,,,,,,,,,,,,,,,,191.6403,192.9714,a,1,[],[],[],[],[],[],[],0.6578,1,192.9716,193.4733,,,,,,1184,FEM,AGR,150,fruta,la,a,0.6578,,193.4734,193.4735,-0.010416667,-0.18359375,0,0,0,,0,16,16,283,1,,,,
,,,,,,0e5f4fb4bc650ade2db46a1e,66a626ef09d4e21e1a8894ec,67377f52f01bb5a37e177469,2024-11-15_18h05.50.611,Tarea de género gramatical,2024.2.2,Win32,59.88023952,,,,,,,,,,,,,,,,,,,,,,,,193.4748,194.8317,a,1,[],[],[],[],[],[],[],0.7016,1,194.8318,195.3294,,,,,,1021,FEM,DIS,150,pila,el,a,0.7016,,195.3294,195.3295,-0.010416667,-0.18359375,0,0,0,,0,17,17,120,1,,,,
,,,,,,0e5f4fb4bc650ade2db46a1e,66a626ef09d4e21e1a8894ec,67377f52f01bb5a37e177469,2024-11-15_18h05.50.611,Tarea de género gramatical,2024.2.2,Win32,59.88023952,,,,,,,,,,,,,,,,,,,,,,,,195.3305,196.8354,a,1,[],[],[],[],[],[],[],0.8409,1,196.8357,197.3373,,,,,,967,FEM,DIS,150,miel,el,a,0.8409,,197.3374,197.3377,-0.010416667,-0.18359375,0,0,0,,0,18,18,66,1,,,,
,,,,,,0e5f4fb4bc650ade2db46a1e,66a626ef09d4e21e1a8894ec,67377f52f01bb5a37e177469,2024-11-15_18h05.50.611,Tarea de género gramatical,2024.2.2,Win32,59.88023952,,,,,,,,,,,,,,,,,,,,,,,,197.3398,198.8257,l,1,[],[],[],[],[],[],[],0.828,1,198.826,199.3275,,,,,,960,MAS,CON,150,tono,,l,0.828,,199.3276,199.3278,-0.010416667,-0.18359375,0,0,0,,0,19,19,59,1,,,,
,,,,,,0e5f4fb4bc650ade2db46a1e,66a626ef09d4e21e1a8894ec,67377f52f01bb5a37e177469,2024-11-15_18h05.50.611,Tarea de género gramatical,2024.2.2,Win32,59.88023952,,,,,,,,,,,,,,,,,,,,,,,,199.3299,200.6151,l,1,[],[],[],[],[],[],[],0.6294,1,200.6152,201.1167,,,,,,1222,MAS,DIS,150,minuto,la,l,0.6294,,201.1186,201.1198,-0.010416667,-0.18359375,0,0,0,,0,20,20,321,1,,,,
,,,,,,0e5f4fb4bc650ade2db46a1e,66a626ef09d4e21e1a8894ec,67377f52f01bb5a37e177469,2024-11-15_18h05.50.611,Tarea de género gramatical,2024.2.2,Win32,59.88023952,,,,,,,,,,,,,,,,,,,,,,,,201.1208,202.3048,a,1,[],[],[],[],[],[],[],0.5078,1,202.3049,202.8066,,,,,,1058,FEM,AGR,150,chica,la,a,0.5078,,202.8066,202.8068,-0.010416667,-0.18359375,0,0,0,,0,21,21,157,1,,,,
,,,,,,0e5f4fb4bc650ade2db46a1e,66a626ef09d4e21e1a8894ec,67377f52f01bb5a37e177469,2024-11-15_18h05.50.611,Tarea de género gramatical,2024.2.2,Win32,59.88023952,,,,,,,,,,,,,,,,,,,,,,,,202.8093,204.0608,l,1,[],[],[],[],[],[],[],0.5926,1,204.061,204.5626,,,,,,1146,MAS,CON,150,humor,,l,0.5926,,204.5626,204.5628,-0.010416667,-0.18359375,0,0,0,,0,22,22,245,1,,,,
,,,,,,0e5f4fb4bc650ade2db46a1e,66a626ef09d4e21e1a8894ec,67377f52f01bb5a37e177469,2024-11-15_18h05.50.611,Tarea de género gramatical,2024.2.2,Win32,59.88023952,,,,,,,,,,,,,,,,,,,,,,,,204.565,205.666,a,1,[],[],[],[],[],[],[],0.4452,1,205.666,206.1682,,,,,,933,FEM,CON,150,boda,,a,0.4452,,206.1683,206.1685,-0.010416667,-0.18359375,0,0,0,,0,23,23,32,1,,,,
,,,,,,0e5f4fb4bc650ade2db46a1e,66a626ef09d4e21e1a8894ec,67377f52f01bb5a37e177469,2024-11-15_18h05.50.611,Tarea de género gramatical,2024.2.2,Win32,59.88023952,,,,,,,,,,,,,,,,,,,,,,,,206.1709,207.389,l,1,[],[],[],[],[],[],[],0.5598,1,207.3892,207.891,,,,,,1000,MAS,DIS,150,nido,la,l,0.5598,,207.8943,207.8961,-0.010416667,-0.18359375,0,0,0,,0,24,24,99,1,,,,
,,,,,,0e5f4fb4bc650ade2db46a1e,66a626ef09d4e21e1a8894ec,67377f52f01bb5a37e177469,2024-11-15_18h05.50.611,Tarea de género gramatical,2024.2.2,Win32,59.88023952,,,,,,,,,,,,,,,,,,,,,,,,207.898,209.1624,a,1,[],[],[],[],[],[],[],0.5912,1,209.1626,209.6639,,,,,,937,FEM,DIS,150,sala,el,a,0.5912,,209.6641,209.6642,-0.010416667,-0.18359375,0,0,0,,0,25,25,36,1,,,,
,,,,,,0e5f4fb4bc650ade2db46a1e,66a626ef09d4e21e1a8894ec,67377f52f01bb5a37e177469,2024-11-15_18h05.50.611,Tarea de género gramatical,2024.2.2,Win32,59.88023952,,,,,,,,,,,,,,,,,,,,,,,,209.6675,210.8181,a,1,[],[],[],[],[],[],[],0.4899,1,210.8182,211.3197,,,,,,1166,FEM,AGR,150,jaula,la,a,0.4899,,211.3198,211.32,-0.010416667,-0.18359375,0,0,0,,0,26,26,265,1,,,,
,,,,,,0e5f4fb4bc650ade2db46a1e,66a626ef09d4e21e1a8894ec,67377f52f01bb5a37e177469,2024-11-15_18h05.50.611,Tarea de género gramatical,2024.2.2,Win32,59.88023952,,,,,,,,,,,,,,,,,,,,,,,,211.3227,212.4758,l,1,[],[],[],[],[],[],[],0.4988,1,212.4759,212.9757,,,,,,1313,MAS,AGR,150,diario,el,l,0.4988,,212.9758,212.976,-0.010416667,-0.18359375,0,0,0,,0,27,27,412,1,,,,
,,,,,,0e5f4fb4bc650ade2db46a1e,66a626ef09d4e21e1a8894ec,67377f52f01bb5a37e177469,2024-11-15_18h05.50.611,Tarea de género gramatical,2024.2.2,Win32,59.88023952,,,,,,,,,,,,,,,,,,,,,,,,212.9784,214.0839,l,1,[],[],[],[],[],[],[],0.4497,1,214.084,214.5812,,,,,,1103,MAS,AGR,150,novio,el,l,0.4497,,214.5812,214.5813,-0.010416667,-0.18359375,0,0,0,,0,28,28,202,1,,,,
,,,,,,0e5f4fb4bc650ade2db46a1e,66a626ef09d4e21e1a8894ec,67377f52f01bb5a37e177469,2024-11-15_18h05.50.611,Tarea de género gramatical,2024.2.2,Win32,59.88023952,,,,,,,,,,,,,,,,,,,,,,,,214.5824,215.6851,l,1,[],[],[],[],[],[],[],0.4393,1,215.6853,216.1871,,,,,,1127,MAS,AGR,150,vuelo,el,l,0.4393,,216.1901,216.1916,-0.010416667,-0.18359375,0,0,0,,0,29,29,226,1,,,,
,,,,,,0e5f4fb4bc650ade2db46a1e,66a626ef09d4e21e1a8894ec,67377f52f01bb5a37e177469,2024-11-15_18h05.50.611,Tarea de género gramatical,2024.2.2,Win32,59.88023952,,,,,,,,,,,,,,,,,,,,,,,,216.1933,217.3923,l,1,[],[],[],[],[],[],[],0.5317,1,217.3925,217.8933,,,,,,947,MAS,AGR,150,olor,el,l,0.5317,,217.8933,217.8935,-0.010416667,-0.18359375,0,0,0,,0,30,30,46,1,,,,
,,,,,,0e5f4fb4bc650ade2db46a1e,66a626ef09d4e21e1a8894ec,67377f52f01bb5a37e177469,2024-11-15_18h05.50.611,Tarea de género gramatical,2024.2.2,Win32,59.88023952,,,,,,,,,,,,,,,,,,,,,,,,217.896,219.1323,l,1,[],[],[],[],[],[],[],0.5824,1,219.1324,219.6322,,,,,,1204,MAS,DIS,150,tiempo,la,l,0.5824,,219.6323,219.6326,-0.010416667,-0.18359375,0,0,0,,0,31,31,303,1,,,,
,,,,,,0e5f4fb4bc650ade2db46a1e,66a626ef09d4e21e1a8894ec,67377f52f01bb5a37e177469,2024-11-15_18h05.50.611,Tarea de género gramatical,2024.2.2,Win32,59.88023952,,,,,,,,,,,,,,,,,,,,,,,,219.6362,220.8364,l,1,[],[],[],[],[],[],[],0.5432,1,220.8366,221.338,,,,,,971,MAS,AGR,150,pozo,el,l,0.5432,,221.3381,221.3382,-0.010416667,-0.18359375,0,0,0,,0,32,32,70,1,,,,
,,,,,,0e5f4fb4bc650ade2db46a1e,66a626ef09d4e21e1a8894ec,67377f52f01bb5a37e177469,2024-11-15_18h05.50.611,Tarea de género gramatical,2024.2.2,Win32,59.88023952,,,,,,,,,,,,,,,,,,,,,,,,221.3397,222.5593,a,1,[],[],[],[],[],[],[],0.5589,1,222.5594,223.0611,,,,,,1237,FEM,DIS,150,escena,el,a,0.5589,,223.0643,223.0659,-0.010416667,-0.18359375,0,0,0,,0,33,33,336,1,,,,
,,,,,,0e5f4fb4bc650ade2db46a1e,66a626ef09d4e21e1a8894ec,67377f52f01bb5a37e177469,2024-11-15_18h05.50.611,Tarea de género gramatical,2024.2.2,Win32,59.88023952,,,,,,,,,,,,,,,,,,,,,,,,223.068,224.2677,l,1,[],[],[],[],[],[],[],0.5312,1,224.2679,224.7674,,,,,,1314,MAS,CON,150,sótano,,l,0.5312,,224.7674,224.7676,-0.010416667,-0.18359375,0,0,0,,0,34,34,413,1,,,,
,,,,,,0e5f4fb4bc650ade2db46a1e,66a626ef09d4e21e1a8894ec,67377f52f01bb5a37e177469,2024-11-15_18h05.50.611,Tarea de género gramatical,2024.2.2,Win32,59.88023952,,,,,,,,,,,,,,,,,,,,,,,,224.7701,225.8207,l,1,[],[],[],[],[],[],[],0.3877,1,225.8208,226.3228,,,,,,922,MAS,DIS,150,pelo,la,l,0.3877,,226.323,226.3231,-0.010416667,-0.18359375,0,0,0,,0,35,35,21,1,,,,
,,,,,,0e5f4fb4bc650ade2db46a1e,66a626ef09d4e21e1a8894ec,67377f52f01bb5a37e177469,2024-11-15_18h05.50.611,Tarea de género gramatical,2024.2.2,Win32,59.88023952,,,,,,,,,,,,,,,,,,,,,,,,226.3256,227.4434,l,1,[],[],[],[],[],[],[],0.4565,1,227.4435,227.9452,,,,,,1144,MAS,DIS,150,hielo,la,l,0.4565,,227.9452,227.9453,-0.010416667,-0.18359375,0,0,0,,0,36,36,243,1,,,,
,,,,,,0e5f4fb4bc650ade2db46a1e,66a626ef09d4e21e1a8894ec,67377f52f01bb5a37e177469,2024-11-15_18h05.50.611,Tarea de género gramatical,2024.2.2,Win32,59.88023952,,,,,,,,,,,,,,,,,,,,,,,,227.9474,228.9988,l,1,[],[],[],[],[],[],[],0.3894,1,228.999,229.5002,,,,,,1272,MAS,CON,150,delito,,l,0.3894,,229.5002,229.5004,-0.010416667,-0.18359375,0,0,0,,0,37,37,371,1,,,,
,,,,,,0e5f4fb4bc650ade2db46a1e,66a626ef09d4e21e1a8894ec,67377f52f01bb5a37e177469,2024-11-15_18h05.50.611,Tarea de género gramatical,2024.2.2,Win32,59.88023952,,,,,,,,,,,,,,,,,,,,,,,,229.5017,230.5911,l,1,[],[],[],[],[],[],[],0.4338,1,230.5912,231.0893,,,,,,923,MAS,AGR,150,rato,el,l,0.4338,,231.0928,231.095,-0.010416667,-0.18359375,0,0,0,,0,38,38,22,1,,,,
,,,,,,0e5f4fb4bc650ade2db46a1e,66a626ef09d4e21e1a8894ec,67377f52f01bb5a37e177469,2024-11-15_18h05.50.611,Tarea de género gramatical,2024.2.2,Win32,59.88023952,,,,,,,,,,,,,,,,,,,,,,,,231.097,232.2139,a,1,[],[],[],[],[],[],[],0.4521,1,232.2141,232.7118,,,,,,1311,FEM,CON,150,actriz,,a,0.4521,,232.712,232.7122,-0.010416667,-0.18359375,0,0,0,,0,39,39,410,1,,,,
,,,,,,0e5f4fb4bc650ade2db46a1e,66a626ef09d4e21e1a8894ec,67377f52f01bb5a37e177469,2024-11-15_18h05.50.611,Tarea de género gramatical,2024.2.2,Win32,59.88023952,,,,,,,,,,,,,,,,,,,,,,,,232.7142,233.7822,l,1,[],[],[],[],[],[],[],0.4094,1,233.7824,234.2841,,,,,,1164,MAS,CON,150,pollo,,l,0.4094,,234.2842,234.2844,-0.010416667,-0.18359375,0,0,0,,0,40,40,263,1,,,,
,,,,,,0e5f4fb4bc650ade2db46a1e,66a626ef09d4e21e1a8894ec,67377f52f01bb5a37e177469,2024-11-15_18h05.50.611,Tarea de género gramatical,2024.2.2,Win32,59.88023952,,,,,,,,,,,,,,,,,,,,,,,,234.2875,235.6224,l,1,[],[],[],[],[],[],[],0.6768,1,235.6226,236.1239,,,,,,1344,MAS,CON,150,límite,,l,0.6768,,236.124,236.1243,-0.010416667,-0.18359375,0,0,0,,0,41,41,443,1,,,,
,,,,,,0e5f4fb4bc650ade2db46a1e,66a626ef09d4e21e1a8894ec,67377f52f01bb5a37e177469,2024-11-15_18h05.50.611,Tarea de género gramatical,2024.2.2,Win32,59.88023952,,,,,,,,,,,,,,,,,,,,,,,,236.1268,237.4639,l,1,[],[],[],[],[],[],[],0.6829,1,237.464,237.9637,,,,,,1132,MAS,DIS,150,calor,la,l,0.6829,,237.9665,237.968,-0.010416667,-0.18359375,0,0,0,,0,42,42,231,1,,,,
,,,,,,0e5f4fb4bc650ade2db46a1e,66a626ef09d4e21e1a8894ec,67377f52f01bb5a37e177469,2024-11-15_18h05.50.611,Tarea de género gramatical,2024.2.2,Win32,59.88023952,,,,,,,,,,,,,,,,,,,,,,,,237.9696,239.4017,a,1,[],[],[],[],[],[],[],0.7595,1,239.4018,239.9035,,,,,,1202,FEM,AGR,150,cabeza,la,a,0.7595,,239.9036,239.9038,-0.010416667,-0.18359375,0,0,0,,0,43,43,301,1,,,,
,,,,,,0e5f4fb4bc650ade2db46a1e,66a626ef09d4e21e1a8894ec,67377f52f01bb5a37e177469,2024-11-15_18h05.50.611,Tarea de género gramatical,2024.2.2,Win32,59.88023952,,,,,,,,,,,,,,,,,,,,,,,,239.9048,241.1755,l,1,[],[],[],[],[],[],[],0.6146,1,241.1757,241.677,,,,,,1180,MAS,DIS,150,salón,la,l,0.6146,,241.6772,241.6773,-0.010416667,-0.18359375,0,0,0,,0,44,44,279,1,,,,
,,,,,,0e5f4fb4bc650ade2db46a1e,66a626ef09d4e21e1a8894ec,67377f52f01bb5a37e177469,2024-11-15_18h05.50.611,Tarea de género gramatical,2024.2.2,Win32,59.88023952,,,,,,,,,,,,,,,,,,,,,,,,241.6801,242.8979,l,1,[],[],[],[],[],[],[],0.561,1,242.8981,243.3995,,,,,,1097,MAS,AGR,150,avión,el,l,0.561,,243.3996,243.3997,-0.010416667,-0.18359375,0,0,0,,0,45,45,196,1,,,,
,,,,,,0e5f4fb4bc650ade2db46a1e,66a626ef09d4e21e1a8894ec,67377f52f01bb5a37e177469,2024-11-15_18h05.50.611,Tarea de género gramatical,2024.2.2,Win32,59.88023952,,,,,,,,,,,,,,,,,,,,,,,,243.402,244.62,a,1,[],[],[],[],[],[],[],0.5631,1,244.6202,245.1225,,,,,,1255,FEM,DIS,150,mirada,el,a,0.5631,,245.1226,245.1227,-0.010416667,-0.18359375,0,0,0,,0,46,46,354,1,,,,
,,,,,,0e5f4fb4bc650ade2db46a1e,66a626ef09d4e21e1a8894ec,67377f52f01bb5a37e177469,2024-11-15_18h05.50.611,Tarea de género gramatical,2024.2.2,Win32,59.88023952,,,,,,,,,,,,,,,,,,,,,,,,245.1248,246.3124,l,1,[],[],[],[],[],[],[],0.5321,1,246.3125,246.8115,,,,,,1247,MAS,AGR,150,cuello,el,l,0.5321,,246.8141,246.8156,-0.010416667,-0.18359375,0,0,0,,0,47,47,346,1,,,,
,,,,,,0e5f4fb4bc650ade2db46a1e,66a626ef09d4e21e1a8894ec,67377f52f01bb5a37e177469,2024-11-15_18h05.50.611,Tarea de género gramatical,2024.2.2,Win32,59.88023952,,,,,,,,,,,,,,,,,,,,,,,,246.8174,247.9825,a,1,[],[],[],[],[],[],[],0.4919,1,247.9827,248.4845,,,,,,1154,FEM,AGR,150,caída,la,a,0.4919,,248.4846,248.4847,-0.010416667,-0.18359375,0,0,0,,0,48,48,253,1,,,,
,,,,,,0e5f4fb4bc650ade2db46a1e,66a626ef09d4e21e1a8894ec,67377f52f01bb5a37e177469,2024-11-15_18h05.50.611,Tarea de género gramatical,2024.2.2,Win32,59.88023952,,,,,,,,,,,,,,,,,,,,,,,,248.4877,249.5207,l,1,[],[],[],[],[],[],[],0.3692,1,249.5208,250.0228,,,,,,1332,MAS,CON,150,océano,,l,0.3692,,250.0229,250.0231,-0.010416667,-0.18359375,0,0,0,,0,49,49,431,1,,,,
,,,,,,0e5f4fb4bc650ade2db46a1e,66a626ef09d4e21e1a8894ec,67377f52f01bb5a37e177469,2024-11-15_18h05.50.611,Tarea de género gramatical,2024.2.2,Win32,59.88023952,,,,,,,,,,,,,,,,,,,,,,,,250.0253,251.0781,l,1,[],[],[],[],[],[],[],0.3987,1,251.0783,251.5785,,,,,,1301,MAS,AGR,150,abrigo,el,l,0.3987,,251.5786,251.5788,-0.010416667,-0.18359375,0,0,0,,0,50,50,400,1,,,,
,,,,,,0e5f4fb4bc650ade2db46a1e,66a626ef09d4e21e1a8894ec,67377f52f01bb5a37e177469,2024-11-15_18h05.50.611,Tarea de género gramatical,2024.2.2,Win32,59.88023952,,,,,,,,,,,,,,,,,,,,,,,,251.5811,252.6152,l,0,[],[],[],[],[],[],[],0.3761,0,252.6165,253.1166,,,,,,1063,FEM,DIS,150,calle,el,a,0.3761,,253.1178,253.1186,-0.010416667,-0.18359375,0,0,0,,0,51,51,162,1,,,,
,,,,,,0e5f4fb4bc650ade2db46a1e,66a626ef09d4e21e1a8894ec,67377f52f01bb5a37e177469,2024-11-15_18h05.50.611,Tarea de género gramatical,2024.2.2,Win32,59.88023952,,,,,,,,,,,,,,,,,,,,,,,,253.1194,254.5388,a,1,[],[],[],[],[],[],[],0.7577,1,254.5404,255.0406,,,,,,974,FEM,AGR,150,flor,la,a,0.7577,,255.0408,255.041,-0.010416667,-0.18359375,0,0,0,,0,52,52,73,1,,,,
,,,,,,0e5f4fb4bc650ade2db46a1e,66a626ef09d4e21e1a8894ec,67377f52f01bb5a37e177469,2024-11-15_18h05.50.611,Tarea de género gramatical,2024.2.2,Win32,59.88023952,,,,,,,,,,,,,,,,,,,,,,,,255.0435,256.2282,a,1,[],[],[],[],[],[],[],0.5233,1,256.2284,256.7295,,,,,,1016,FEM,AGR,150,nube,la,a,0.5233,,256.7296,256.7297,-0.010416667,-0.18359375,0,0,0,,0,53,53,115,1,,,,
,,,,,,0e5f4fb4bc650ade2db46a1e,66a626ef09d4e21e1a8894ec,67377f52f01bb5a37e177469,2024-11-15_18h05.50.611,Tarea de género gramatical,2024.2.2,Win32,59.88023952,,,,,,,,,,,,,,,,,,,,,,,,256.731,257.8837,a,1,[],[],[],[],[],[],[],0.4949,1,257.8838,258.3857,,,,,,1179,FEM,CON,150,selva,,a,0.4949,,258.3859,258.3862,-0.010416667,-0.18359375,0,0,0,,0,54,54,278,1,,,,
,,,,,,0e5f4fb4bc650ade2db46a1e,66a626ef09d4e21e1a8894ec,67377f52f01bb5a37e177469,2024-11-15_18h05.50.611,Tarea de género gramatical,2024.2.2,Win32,59.88023952,,,,,,,,,,,,,,,,,,,,,,,,258.3882,259.5064,l,1,[],[],[],[],[],[],[],0.4575,1,259.5067,260.0084,,,,,,1073,MAS,AGR,150,libro,el,l,0.4575,,260.0085,260.0087,-0.010416667,-0.18359375,0,0,0,,0,55,55,172,1,,,,
,,,,,,0e5f4fb4bc650ade2db46a1e,66a626ef09d4e21e1a8894ec,67377f52f01bb5a37e177469,2024-11-15_18h05.50.611,Tarea de género gramatical,2024.2.2,Win32,59.88023952,,,,,,,,,,,,,,,,,,,,,,,,260.0106,261.1456,a,1,[],[],[],[],[],[],[],0.4723,1,261.1458,261.6468,,,,,,1089,FEM,CON,150,pista,,a,0.4723,,261.6489,261.65,-0.010416667,-0.18359375,0,0,0,,0,56,56,188,1,,,,
,,,,,,0e5f4fb4bc650ade2db46a1e,66a626ef09d4e21e1a8894ec,67377f52f01bb5a37e177469,2024-11-15_18h05.50.611,Tarea de género gramatical,2024.2.2,Win32,59.88023952,,,,,,,,,,,,,,,,,,,,,,,,261.6509,262.8683,a,1,[],[],[],[],[],[],[],0.5483,1,262.8686,263.3699,,,,,,1286,FEM,AGR,150,sombra,la,a,0.5483,,263.37,263.3701,-0.010416667,-0.18359375,0,0,0,,0,57,57,385,1,,,,
,,,,,,0e5f4fb4bc650ade2db46a1e,66a626ef09d4e21e1a8894ec,67377f52f01bb5a37e177469,2024-11-15_18h05.50.611,Tarea de género gramatical,2024.2.2,Win32,59.88023952,,,,,,,,,,,,,,,,,,,,,,,,263.3729,264.5959,l,1,[],[],[],[],[],[],[],0.5691,1,264.596,265.0927,,,,,,1030,MAS,DIS,150,yate,la,l,0.5691,,265.0929,265.0932,-0.010416667,-0.18359375,0,0,0,,0,58,58,129,1,,,,
,,,,,,0e5f4fb4bc650ade2db46a1e,66a626ef09d4e21e1a8894ec,67377f52f01bb5a37e177469,2024-11-15_18h05.50.611,Tarea de género gramatical,2024.2.2,Win32,59.88023952,,,,,,,,,,,,,,,,,,,,,,,,265.0953,266.4306,l,1,[],[],[],[],[],[],[],0.6733,1,266.4308,266.9325,,,,,,1128,MAS,CON,150,nivel,,l,0.6733,,266.9326,266.9328,-0.010416667,-0.18359375,0,0,0,,0,59,59,227,1,,,,
,,,,,,0e5f4fb4bc650ade2db46a1e,66a626ef09d4e21e1a8894ec,67377f52f01bb5a37e177469,2024-11-15_18h05.50.611,Tarea de género gramatical,2024.2.2,Win32,59.88023952,,,,,,,,,,,,,,,,,,,,,,,,266.9348,268.3558,a,1,[],[],[],[],[],[],[],0.7676,1,268.3558,268.8561,,,,,,1297,FEM,DIS,150,cuerda,el,a,0.7676,,268.8597,268.8613,-0.010416667,-0.18359375,0,0,0,,0,60,60,396,1,,,,
,,,,,,0e5f4fb4bc650ade2db46a1e,66a626ef09d4e21e1a8894ec,67377f52f01bb5a37e177469,2024-11-15_18h05.50.611,Tarea de género gramatical,2024.2.2,Win32,59.88023952,,,,,,,,,,,,,,,,,,,,,,,,268.8629,269.9601,a,1,[],[],[],[],[],[],[],0.4238,1,269.9603,270.4615,,,,,,914,FEM,AGR,150,cara,la,a,0.4238,,270.4616,270.4616,-0.010416667,-0.18359375,0,0,0,,0,61,61,13,1,,,,
,,,,,,0e5f4fb4bc650ade2db46a1e,66a626ef09d4e21e1a8894ec,67377f52f01bb5a37e177469,2024-11-15_18h05.50.611,Tarea de género gramatical,2024.2.2,Win32,59.88023952,,,,,,,,,,,,,,,,,,,,,,,,270.463,271.5349,a,1,[],[],[],[],[],[],[],0.4165,1,271.5351,272.0339,,,,,,915,FEM,CON,150,cama,,a,0.4165,,272.034,272.0342,-0.010416667,-0.18359375,0,0,0,,0,62,62,14,1,,,,
,,,,,,0e5f4fb4bc650ade2db46a1e,66a626ef09d4e21e1a8894ec,67377f52f01bb5a37e177469,2024-11-15_18h05.50.611,Tarea de género gramatical,2024.2.2,Win32,59.88023952,,,,,,,,,,,,,,,,,,,,,,,,272.0365,273.1581,a,1,[],[],[],[],[],[],[],0.4676,1,273.1582,273.6563,,,,,,1105,FEM,DIS,150,reina,el,a,0.4676,,273.6566,273.6567,-0.010416667,-0.18359375,0,0,0,,0,63,63,204,1,,,,
,,,,,,0e5f4fb4bc650ade2db46a1e,66a626ef09d4e21e1a8894ec,67377f52f01bb5a37e177469,2024-11-15_18h05.50.611,Tarea de género gramatical,2024.2.2,Win32,59.88023952,,,,,,,,,,,,,,,,,,,,,,,,273.6595,274.6932,a,1,[],[],[],[],[],[],[],0.3756,1,274.6933,275.1951,,,,,,1257,FEM,CON,150,lengua,,a,0.3756,,275.1953,275.1955,-0.010416667,-0.18359375,0,0,0,,0,64,64,356,1,,,,
,,,,,,0e5f4fb4bc650ade2db46a1e,66a626ef09d4e21e1a8894ec,67377f52f01bb5a37e177469,2024-11-15_18h05.50.611,Tarea de género gramatical,2024.2.2,Win32,59.88023952,,,,,,,,,,,,,,,,,,,,,,,,275.1974,276.2382,a,1,[],[],[],[],[],[],[],0.3853,1,276.2383,276.7338,,,,,,1149,FEM,CON,150,crema,,a,0.3853,,276.7363,276.7379,-0.010416667,-0.18359375,0,0,0,,0,65,65,248,1,,,,
,,,,,,0e5f4fb4bc650ade2db46a1e,66a626ef09d4e21e1a8894ec,67377f52f01bb5a37e177469,2024-11-15_18h05.50.611,Tarea de género gramatical,2024.2.2,Win32,59.88023952,,,,,,,,,,,,,,,,,,,,,,,,276.7394,277.9214,a,1,[],[],[],[],[],[],[],0.5084,1,277.9217,278.4233,,,,,,1039,FEM,DIS,150,pipa,el,a,0.5084,,278.4234,278.4235,-0.010416667,-0.18359375,0,0,0,,0,66,66,138,1,,,,
,,,,,,0e5f4fb4bc650ade2db46a1e,66a626ef09d4e21e1a8894ec,67377f52f01bb5a37e177469,2024-11-15_18h05.50.611,Tarea de género gramatical,2024.2.2,Win32,59.88023952,,,,,,,,,,,,,,,,,,,,,,,,278.4258,279.51,l,0,[],[],[],[],[],[],[],0.4235,0,279.5122,280.0117,,,,,,949,FEM,DIS,150,piel,el,a,0.4235,,280.0117,280.0118,-0.010416667,-0.18359375,0,0,0,,0,67,67,48,1,,,,
,,,,,,0e5f4fb4bc650ade2db46a1e,66a626ef09d4e21e1a8894ec,67377f52f01bb5a37e177469,2024-11-15_18h05.50.611,Tarea de género gramatical,2024.2.2,Win32,59.88023952,,,,,,,,,,,,,,,,,,,,,,,,280.0131,281.6173,l,1,[],[],[],[],[],[],[],0.9445,1,281.6182,282.119,,,,,,994,MAS,DIS,150,cabo,la,l,0.9445,,282.1191,282.1193,-0.010416667,-0.18359375,0,0,0,,0,68,68,93,1,,,,
,,,,,,0e5f4fb4bc650ade2db46a1e,66a626ef09d4e21e1a8894ec,67377f52f01bb5a37e177469,2024-11-15_18h05.50.611,Tarea de género gramatical,2024.2.2,Win32,59.88023952,,,,,,,,,,,,,,,,,,,,,,,,282.121,283.3595,l,1,[],[],[],[],[],[],[],0.5817,1,283.3597,283.8591,,,,,,942,MAS,CON,150,show,,l,0.5817,,283.862,283.8637,-0.010416667,-0.18359375,0,0,0,,0,69,69,41,1,,,,
,,,,,,0e5f4fb4bc650ade2db46a1e,66a626ef09d4e21e1a8894ec,67377f52f01bb5a37e177469,2024-11-15_18h05.50.611,Tarea de género gramatical,2024.2.2,Win32,59.88023952,,,,,,,,,,,,,,,,,,,,,,,,283.8655,285.1652,a,1,[],[],[],[],[],[],[],0.6314,1,285.1654,285.6653,,,,,,1333,FEM,DIS,150,huella,el,a,0.6314,,285.6658,285.6661,-0.010416667,-0.18359375,0,0,0,,0,70,70,432,1,,,,
,,,,,,0e5f4fb4bc650ade2db46a1e,66a626ef09d4e21e1a8894ec,67377f52f01bb5a37e177469,2024-11-15_18h05.50.611,Tarea de género gramatical,2024.2.2,Win32,59.88023952,,,,,,,,,,,,,,,,,,,,,,,,285.6687,286.9532,a,1,[],[],[],[],[],[],[],0.629,1,286.9535,287.4547,,,,,,1250,FEM,AGR,150,imagen,la,a,0.629,,287.4549,287.4551,-0.010416667,-0.18359375,0,0,0,,0,71,71,349,1,,,,
,,,,,,0e5f4fb4bc650ade2db46a1e,66a626ef09d4e21e1a8894ec,67377f52f01bb5a37e177469,2024-11-15_18h05.50.611,Tarea de género gramatical,2024.2.2,Win32,59.88023952,,,,,,,,,,,,,,,,,,,,,,,,287.4565,288.8097,l,1,[],[],[],[],[],[],[],0.6896,1,288.8098,289.3116,,,,,,1223,MAS,AGR,150,marido,el,l,0.6896,,289.3118,289.312,-0.010416667,-0.18359375,0,0,0,,0,72,72,322,1,,,,
,,,,,,0e5f4fb4bc650ade2db46a1e,66a626ef09d4e21e1a8894ec,67377f52f01bb5a37e177469,2024-11-15_18h05.50.611,Tarea de género gramatical,2024.2.2,Win32,59.88023952,,,,,,,,,,,,,,,,,,,,,,,,289.3145,290.3996,a,1,[],[],[],[],[],[],[],0.4314,1,290.3997,290.9006,,,,,,991,FEM,DIS,150,hoja,el,a,0.4314,,290.9008,290.901,-0.010416667,-0.18359375,0,0,0,,0,73,73,90,1,,,,
,,,,,,0e5f4fb4bc650ade2db46a1e,66a626ef09d4e21e1a8894ec,67377f52f01bb5a37e177469,2024-11-15_18h05.50.611,Tarea de género gramatical,2024.2.2,Win32,59.88023952,,,,,,,,,,,,,,,,,,,,,,,,290.9043,292.0881,l,1,[],[],[],[],[],[],[],0.5291,1,292.0882,292.5896,,,,,,1336,MAS,DIS,150,objeto,la,l,0.5291,,292.5924,292.5941,-0.010416667,-0.18359375,0,0,0,,0,74,74,435,1,,,,
,,,,,,0e5f4fb4bc650ade2db46a1e,66a626ef09d4e21e1a8894ec,67377f52f01bb5a37e177469,2024-11-15_18h05.50.611,Tarea de género gramatical,2024.2.2,Win32,59.88023952,,,,,,,,,,,,,,,,,,,,,,,,292.5957,293.744,l,1,[],[],[],[],[],[],[],0.4744,1,293.7442,294.2457,,,,,,959,MAS,AGR,150,lobo,el,l,0.4744,,294.2459,294.2462,-0.010416667,-0.18359375,0,0,0,,0,75,75,58,1,,,,
,,,,,,0e5f4fb4bc650ade2db46a1e,66a626ef09d4e21e1a8894ec,67377f52f01bb5a37e177469,2024-11-15_18h05.50.611,Tarea de género gramatical,2024.2.2,Win32,59.88023952,,,,,,,,,,,,,,,,,,,,,,,,294.2488,295.349,a,1,[],[],[],[],[],[],[],0.4454,1,295.3491,295.8512,,,,,,1035,FEM,CON,150,raíz,,a,0.4454,,295.8514,295.8517,-0.010416667,-0.18359375,0,0,0,,0,76,76,134,1,,,,
,,,,,,0e5f4fb4bc650ade2db46a1e,66a626ef09d4e21e1a8894ec,67377f52f01bb5a37e177469,2024-11-15_18h05.50.611,Tarea de género gramatical,2024.2.2,Win32,59.88023952,,,,,,,,,,,,,,,,,,,,,,,,295.854,296.9889,l,1,[],[],[],[],[],[],[],0.4743,1,296.9892,297.4904,,,,,,1150,MAS,DIS,150,cerdo,la,l,0.4743,,297.4905,297.4907,-0.010416667,-0.18359375,0,0,0,,0,77,77,249,1,,,,
,,,,,,0e5f4fb4bc650ade2db46a1e,66a626ef09d4e21e1a8894ec,67377f52f01bb5a37e177469,2024-11-15_18h05.50.611,Tarea de género gramatical,2024.2.2,Win32,59.88023952,,,,,,,,,,,,,,,,,,,,,,,,297.4933,298.6649,l,1,[],[],[],[],[],[],[],0.5175,1,298.665,299.1623,,,,,,1054,MAS,DIS,150,padre,la,l,0.5175,,299.1633,299.1641,-0.010416667,-0.18359375,0,0,0,,0,78,78,153,1,,,,
,,,,,,0e5f4fb4bc650ade2db46a1e,66a626ef09d4e21e1a8894ec,67377f52f01bb5a37e177469,2024-11-15_18h05.50.611,Tarea de género gramatical,2024.2.2,Win32,59.88023952,,,,,,,,,,,,,,,,,,,,,,,,299.1649,300.3506,l,1,[],[],[],[],[],[],[],0.5236,1,300.3507,300.8524,,,,,,1122,MAS,CON,150,valor,,l,0.5236,,300.8526,300.8528,-0.010416667,-0.18359375,0,0,0,,0,79,79,221,1,,,,
,,,,,,0e5f4fb4bc650ade2db46a1e,66a626ef09d4e21e1a8894ec,67377f52f01bb5a37e177469,2024-11-15_18h05.50.611,Tarea de género gramatical,2024.2.2,Win32,59.88023952,,,,,,,,,,,,,,,,,,,,,,,,300.8556,302.0396,a,1,[],[],[],[],[],[],[],0.5239,1,302.0398,302.5416,,,,,,961,FEM,DIS,150,ruta,el,a,0.5239,,302.5416,302.5419,-0.010416667,-0.18359375,0,0,0,,0,80,80,60,1,,,,
,,,,,,0e5f4fb4bc650ade2db46a1e,66a626ef09d4e21e1a8894ec,67377f52f01bb5a37e177469,2024-11-15_18h05.50.611,Tarea de género gramatical,2024.2.2,Win32,59.88023952,,,,,,,,,,,,,,,,,,,,,,,,302.5442,303.7123,a,1,[],[],[],[],[],[],[],0.5078,1,303.7124,304.2142,,,,,,1317,FEM,CON,150,cabaña,,a,0.5078,,304.2144,304.2148,-0.010416667,-0.18359375,0,0,0,,0,81,81,416,1,,,,
,,,,,,0e5f4fb4bc650ade2db46a1e,66a626ef09d4e21e1a8894ec,67377f52f01bb5a37e177469,2024-11-15_18h05.50.611,Tarea de género gramatical,2024.2.2,Win32,59.88023952,,,,,,,,,,,,,,,,,,,,,,,,304.2171,305.3682,l,1,[],[],[],[],[],[],[],0.4897,1,305.3684,305.87,,,,,,1230,MAS,CON,150,estado,,l,0.4897,,305.8701,305.8704,-0.010416667,-0.18359375,0,0,0,,0,82,82,329,1,,,,
,,,,,,0e5f4fb4bc650ade2db46a1e,66a626ef09d4e21e1a8894ec,67377f52f01bb5a37e177469,2024-11-15_18h05.50.611,Tarea de género gramatical,2024.2.2,Win32,59.88023952,,,,,,,,,,,,,,,,,,,,,,,,305.8732,307.1084,a,1,[],[],[],[],[],[],[],0.5819,1,307.1086,307.609,,,,,,1123,FEM,DIS,150,plata,el,a,0.5819,,307.6107,307.6117,-0.010416667,-0.18359375,0,0,0,,0,83,83,222,1,,,,
,,,,,,0e5f4fb4bc650ade2db46a1e,66a626ef09d4e21e1a8894ec,67377f52f01bb5a37e177469,2024-11-15_18h05.50.611,Tarea de género gramatical,2024.2.2,Win32,59.88023952,,,,,,,,,,,,,,,,,,,,,,,,307.6127,308.9808,a,1,[],[],[],[],[],[],[],0.6932,1,308.9809,309.4828,,,,,,1155,FEM,CON,150,tribu,,a,0.6932,,309.483,309.4831,-0.010416667,-0.18359375,0,0,0,,0,84,84,254,1,,,,
,,,,,,0e5f4fb4bc650ade2db46a1e,66a626ef09d4e21e1a8894ec,67377f52f01bb5a37e177469,2024-11-15_18h05.50.611,Tarea de género gramatical,2024.2.2,Win32,59.88023952,,,,,,,,,,,,,,,,,,,,,,,,309.4851,310.7034,a,1,[],[],[],[],[],[],[],0.5577,1,310.7036,311.2055,,,,,,1099,FEM,DIS,150,nariz,el,a,0.5577,,311.2057,311.2059,-0.010416667,-0.18359375,0,0,0,,0,85,85,198,1,,,,
,,,,,,0e5f4fb4bc650ade2db46a1e,66a626ef09d4e21e1a8894ec,67377f52f01bb5a37e177469,2024-11-15_18h05.50.611,Tarea de género gramatical,2024.2.2,Win32,59.88023952,,,,,,,,,,,,,,,,,,,,,,,,311.208,312.2428,a,1,[],[],[],[],[],[],[],0.3802,1,312.243,312.7442,,,,,,1244,FEM,AGR,150,pareja,la,a,0.3802,,312.7443,312.7446,-0.010416667,-0.18359375,0,0,0,,0,86,86,343,1,,,,
,,,,,,0e5f4fb4bc650ade2db46a1e,66a626ef09d4e21e1a8894ec,67377f52f01bb5a37e177469,2024-11-15_18h05.50.611,Tarea de género gramatical,2024.2.2,Win32,59.88023952,,,,,,,,,,,,,,,,,,,,,,,,312.7471,314.1994,l,1,[],[],[],[],[],[],[],0.797,1,314.1996,314.7011,,,,,,978,MAS,CON,150,oído,,l,0.797,,314.7035,314.7049,-0.010416667,-0.18359375,0,0,0,,0,87,87,77,1,,,,
,,,,,,0e5f4fb4bc650ade2db46a1e,66a626ef09d4e21e1a8894ec,67377f52f01bb5a37e177469,2024-11-15_18h05.50.611,Tarea de género gramatical,2024.2.2,Win32,59.88023952,,,,,,,,,,,,,,,,,,,,,,,,314.7062,315.8386,l,1,[],[],[],[],[],[],[],0.4591,1,315.8387,316.3402,,,,,,1008,MAS,CON,150,hilo,,l,0.4591,,316.3403,316.3405,-0.010416667,-0.18359375,0,0,0,,0,88,88,107,1,,,,
,,,,,,0e5f4fb4bc650ade2db46a1e,66a626ef09d4e21e1a8894ec,67377f52f01bb5a37e177469,2024-11-15_18h05.50.611,Tarea de género gramatical,2024.2.2,Win32,59.88023952,,,,,,,,,,,,,,,,,,,,,,,,316.3427,317.4817,a,1,[],[],[],[],[],[],[],0.4845,1,317.4819,317.9794,,,,,,1160,FEM,AGR,150,barra,la,a,0.4845,,317.9796,317.9798,-0.010416667,-0.18359375,0,0,0,,0,89,89,259,1,,,,
,,,,,,0e5f4fb4bc650ade2db46a1e,66a626ef09d4e21e1a8894ec,67377f52f01bb5a37e177469,2024-11-15_18h05.50.611,Tarea de género gramatical,2024.2.2,Win32,59.88023952,,,,,,,,,,,,,,,,,,,,,,,,317.9822,319.1332,l,1,[],[],[],[],[],[],[],0.4915,1,319.1333,319.6352,,,,,,1048,MAS,DIS,150,surf,la,l,0.4915,,319.6353,319.6356,-0.010416667,-0.18359375,0,0,0,,0,90,90,147,1,,,,
,,,,,,0e5f4fb4bc650ade2db46a1e,66a626ef09d4e21e1a8894ec,67377f52f01bb5a37e177469,2024-11-15_18h05.50.611,Tarea de género gramatical,2024.2.2,Win32,59.88023952,,,,,,,,,,,,,,,,,,,,,,,,319.6382,320.7426,l,1,[],[],[],[],[],[],[],0.4526,1,320.7428,321.2407,,,,,,1242,MAS,CON,150,abuelo,,l,0.4526,,321.2408,321.2409,-0.010416667,-0.18359375,0,0,0,,0,91,91,341,1,,,,
,,,,,,0e5f4fb4bc650ade2db46a1e,66a626ef09d4e21e1a8894ec,67377f52f01bb5a37e177469,2024-11-15_18h05.50.611,Tarea de género gramatical,2024.2.2,Win32,59.88023952,,,,,,,,,,,,,,,,,,,,,,,,321.2433,322.4298,a,1,[],[],[],[],[],[],[],0.5319,1,322.43,322.9302,,,,,,1316,FEM,AGR,150,colina,la,a,0.5319,,322.9328,322.9347,-0.010416667,-0.18359375,0,0,0,,0,92,92,415,1,,,,
,,,,,,0e5f4fb4bc650ade2db46a1e,66a626ef09d4e21e1a8894ec,67377f52f01bb5a37e177469,2024-11-15_18h05.50.611,Tarea de género gramatical,2024.2.2,Win32,59.88023952,,,,,,,,,,,,,,,,,,,,,,,,322.9366,323.9838,a,1,[],[],[],[],[],[],[],0.3744,1,323.9842,324.4856,,,,,,1185,FEM,CON,150,mafia,,a,0.3744,,324.4857,324.4859,-0.010416667,-0.18359375,0,0,0,,0,93,93,284,1,,,,
,,,,,,0e5f4fb4bc650ade2db46a1e,66a626ef09d4e21e1a8894ec,67377f52f01bb5a37e177469,2024-11-15_18h05.50.611,Tarea de género gramatical,2024.2.2,Win32,59.88023952,,,,,,,,,,,,,,,,,,,,,,,,324.4884,325.6064,l,1,[],[],[],[],[],[],[],0.4627,1,325.6065,326.108,,,,,,1284,MAS,CON,150,pedazo,,l,0.4627,,326.1082,326.1085,-0.010416667,-0.18359375,0,0,0,,0,94,94,383,1,,,,
,,,,,,0e5f4fb4bc650ade2db46a1e,66a626ef09d4e21e1a8894ec,67377f52f01bb5a37e177469,2024-11-15_18h05.50.611,Tarea de género gramatical,2024.2.2,Win32,59.88023952,,,,,,,,,,,,,,,,,,,,,,,,326.1108,327.1948,a,1,[],[],[],[],[],[],[],0.4241,1,327.1949,327.6971,,,,,,1267,FEM,DIS,150,teoría,el,a,0.4241,,327.6972,327.6974,-0.010416667,-0.18359375,0,0,0,,0,95,95,366,1,,,,
,,,,,,0e5f4fb4bc650ade2db46a1e,66a626ef09d4e21e1a8894ec,67377f52f01bb5a37e177469,2024-11-15_18h05.50.611,Tarea de género gramatical,2024.2.2,Win32,59.88023952,,,,,,,,,,,,,,,,,,,,,,,,327.7009,328.8199,a,1,[],[],[],[],[],[],[],0.4664,1,328.8201,329.3192,,,,,,1070,FEM,AGR,150,carta,la,a,0.4664,,329.3217,329.326,-0.010416667,-0.18359375,0,0,0,,0,96,96,169,1,,,,
,,,,,,0e5f4fb4bc650ade2db46a1e,66a626ef09d4e21e1a8894ec,67377f52f01bb5a37e177469,2024-11-15_18h05.50.611,Tarea de género gramatical,2024.2.2,Win32,59.88023952,,,,,,,,,,,,,,,,,,,,,,,,329.3279,330.49,a,1,[],[],[],[],[],[],[],0.4957,1,330.4901,330.9921,,,,,,1083,FEM,CON,150,llave,,a,0.4957,,330.9922,330.9923,-0.010416667,-0.18359375,0,0,0,,0,97,97,182,1,,,,
,,,,,,0e5f4fb4bc650ade2db46a1e,66a626ef09d4e21e1a8894ec,67377f52f01bb5a37e177469,2024-11-15_18h05.50.611,Tarea de género gramatical,2024.2.2,Win32,59.88023952,,,,,,,,,,,,,,,,,,,,,,,,330.9946,332.1296,a,1,[],[],[],[],[],[],[],0.4791,1,332.1298,332.6314,,,,,,1171,FEM,DIS,150,viuda,el,a,0.4791,,332.6315,332.6319,-0.010416667,-0.18359375,0,0,0,,0,98,98,270,1,,,,
,,,,,,0e5f4fb4bc650ade2db46a1e,66a626ef09d4e21e1a8894ec,67377f52f01bb5a37e177469,2024-11-15_18h05.50.611,Tarea de género gramatical,2024.2.2,Win32,59.88023952,,,,,,,,,,,,,,,,,,,,,,,,332.6341,333.7184,l,1,[],[],[],[],[],[],[],0.4244,1,333.7188,334.2192,,,,,,1139,MAS,AGR,150,reloj,el,l,0.4244,,334.2192,334.2193,-0.010416667,-0.18359375,0,0,0,,0,99,99,238,1,,,,
,,,,,,0e5f4fb4bc650ade2db46a1e,66a626ef09d4e21e1a8894ec,67377f52f01bb5a37e177469,2024-11-15_18h05.50.611,Tarea de género gramatical,2024.2.2,Win32,59.88023952,,,,,,,,,,,,,,,,,,,,,,,,334.2202,335.3573,a,1,[],[],[],[],[],[],[],0.4726,1,335.3575,335.8589,,,,,,1045,FEM,DIS,150,bota,el,a,0.4726,,335.859,335.8592,-0.010416667,-0.18359375,0,0,0,,0,100,100,144,1,,,,
,,,,,,0e5f4fb4bc650ade2db46a1e,66a626ef09d4e21e1a8894ec,67377f52f01bb5a37e177469,2024-11-15_18h05.50.611,Tarea de género gramatical,2024.2.2,Win32,59.88023952,,,,,,,,,,,,,,,,,,,,,,,,335.8612,337.0977,a,1,[],[],[],[],[],[],[],0.5804,1,337.0978,337.5986,,,,,,1263,FEM,CON,150,unidad,,a,0.5804,,337.6014,337.6033,-0.010416667,-0.18359375,0,0,0,,0,101,101,362,1,,,,
,,,,,,0e5f4fb4bc650ade2db46a1e,66a626ef09d4e21e1a8894ec,67377f52f01bb5a37e177469,2024-11-15_18h05.50.611,Tarea de género gramatical,2024.2.2,Win32,59.88023952,,,,,,,,,,,,,,,,,,,,,,,,337.6048,338.7357,l,1,[],[],[],[],[],[],[],0.456,1,338.7359,339.2375,,,,,,1090,MAS,DIS,150,campo,la,l,0.456,,339.2377,339.2378,-0.010416667,-0.18359375,0,0,0,,0,102,102,189,1,,,,
,,,,,,0e5f4fb4bc650ade2db46a1e,66a626ef09d4e21e1a8894ec,67377f52f01bb5a37e177469,2024-11-15_18h05.50.611,Tarea de género gramatical,2024.2.2,Win32,59.88023952,,,,,,,,,,,,,,,,,,,,,,,,339.2399,340.2748,l,1,[],[],[],[],[],[],[],0.3736,1,340.2749,340.7764,,,,,,936,MAS,CON,150,dedo,,l,0.3736,,340.7764,340.7767,-0.010416667,-0.18359375,0,0,0,,0,103,103,35,1,,,,
,,,,,,0e5f4fb4bc650ade2db46a1e,66a626ef09d4e21e1a8894ec,67377f52f01bb5a37e177469,2024-11-15_18h05.50.611,Tarea de género gramatical,2024.2.2,Win32,59.88023952,,,,,,,,,,,,,,,,,,,,,,,,340.7793,341.8132,l,1,[],[],[],[],[],[],[],0.3789,1,341.8134,342.3153,,,,,,918,MAS,CON,150,tren,,l,0.3789,,342.3154,342.3156,-0.010416667,-0.18359375,0,0,0,,0,104,104,17,1,,,,
,,,,,,0e5f4fb4bc650ade2db46a1e,66a626ef09d4e21e1a8894ec,67377f52f01bb5a37e177469,2024-11-15_18h05.50.611,Tarea de género gramatical,2024.2.2,Win32,59.88023952,,,,,,,,,,,,,,,,,,,,,,,,342.3179,343.5027,l,1,[],[],[],[],[],[],[],0.5221,1,343.503,344.0046,,,,,,1186,MAS,DIS,150,reino,la,l,0.5221,,344.0071,344.0089,-0.010416667,-0.18359375,0,0,0,,0,105,105,285,1,,,,
,,,,,,0e5f4fb4bc650ade2db46a1e,66a626ef09d4e21e1a8894ec,67377f52f01bb5a37e177469,2024-11-15_18h05.50.611,Tarea de género gramatical,2024.2.2,Win32,59.88023952,,,,,,,,,,,,,,,,,,,,,,,,344.0104,345.0914,l,1,[],[],[],[],[],[],[],0.408,1,345.0916,345.5936,,,,,,1056,MAS,CON,150,amigo,,l,0.408,,345.5937,345.5939,-0.010416667,-0.18359375,0,0,0,,0,106,106,155,1,,,,
,,,,,,0e5f4fb4bc650ade2db46a1e,66a626ef09d4e21e1a8894ec,67377f52f01bb5a37e177469,2024-11-15_18h05.50.611,Tarea de género gramatical,2024.2.2,Win32,59.88023952,,,,,,,,,,,,,,,,,,,,,,,,345.5961,346.6805,l,1,[],[],[],[],[],[],[],0.4244,1,346.6807,347.1825,,,,,,946,MAS,DIS,150,odio,la,l,0.4244,,347.1826,347.1828,-0.010416667,-0.18359375,0,0,0,,0,107,107,45,1,,,,
,,,,,,0e5f4fb4bc650ade2db46a1e,66a626ef09d4e21e1a8894ec,67377f52f01bb5a37e177469,2024-11-15_18h05.50.611,Tarea de género gramatical,2024.2.2,Win32,59.88023952,,,,,,,,,,,,,,,,,,,,,,,,347.185,348.7544,l,0,[],[],[],[],[],[],[],0.9049,0,348.756,349.2563,,,,,,1281,FEM,CON,150,bebida,,a,0.9049,,349.2564,349.2566,-0.010416667,-0.18359375,0,0,0,,0,108,108,380,1,,,,
,,,,,,0e5f4fb4bc650ade2db46a1e,66a626ef09d4e21e1a8894ec,67377f52f01bb5a37e177469,2024-11-15_18h05.50.611,Tarea de género gramatical,2024.2.2,Win32,59.88023952,,,,,,,,,,,,,,,,,,,,,,,,349.2583,350.4941,a,1,[],[],[],[],[],[],[],0.5774,1,350.496,350.9959,,,,,,1239,FEM,CON,150,salida,,a,0.5774,,350.996,350.9962,-0.010416667,-0.18359375,0,0,0,,0,109,109,338,1,,,,
,,,,,,0e5f4fb4bc650ade2db46a1e,66a626ef09d4e21e1a8894ec,67377f52f01bb5a37e177469,2024-11-15_18h05.50.611,Tarea de género gramatical,2024.2.2,Win32,59.88023952,,,,,,,,,,,,,,,,,,,,,,,,350.9984,352.0159,a,1,[],[],[],[],[],[],[],0.3566,1,352.0161,352.5178,,,,,,1022,FEM,AGR,150,loca,la,a,0.3566,,352.5204,352.5219,-0.010416667,-0.18359375,0,0,0,,0,110,110,121,1,,,,
,,,,,,0e5f4fb4bc650ade2db46a1e,66a626ef09d4e21e1a8894ec,67377f52f01bb5a37e177469,2024-11-15_18h05.50.611,Tarea de género gramatical,2024.2.2,Win32,59.88023952,,,,,,,,,,,,,,,,,,,,,,,,352.5233,353.524,a,1,[],[],[],[],[],[],[],0.3335,1,353.5241,354.0231,,,,,,1227,FEM,CON,150,tienda,,a,0.3335,,354.0233,354.0234,-0.010416667,-0.18359375,0,0,0,,0,111,111,326,1,,,,
,,,,,,0e5f4fb4bc650ade2db46a1e,66a626ef09d4e21e1a8894ec,67377f52f01bb5a37e177469,2024-11-15_18h05.50.611,Tarea de género gramatical,2024.2.2,Win32,59.88023952,,,,,,,,,,,,,,,,,,,,,,,,354.0259,355.0933,l,1,[],[],[],[],[],[],[],0.4114,1,355.0934,355.5953,,,,,,1121,MAS,AGR,150,brazo,el,l,0.4114,,355.5956,355.5957,-0.010416667,-0.18359375,0,0,0,,0,112,112,220,1,,,,
,,,,,,0e5f4fb4bc650ade2db46a1e,66a626ef09d4e21e1a8894ec,67377f52f01bb5a37e177469,2024-11-15_18h05.50.611,Tarea de género gramatical,2024.2.2,Win32,59.88023952,,,,,,,,,,,,,,,,,,,,,,,,355.5981,356.8021,a,1,[],[],[],[],[],[],[],0.5502,1,356.8023,357.3014,,,,,,943,FEM,DIS,150,nena,el,a,0.5502,,357.3015,357.3017,-0.010416667,-0.18359375,0,0,0,,0,113,113,42,1,,,,
,,,,,,0e5f4fb4bc650ade2db46a1e,66a626ef09d4e21e1a8894ec,67377f52f01bb5a37e177469,2024-11-15_18h05.50.611,Tarea de género gramatical,2024.2.2,Win32,59.88023952,,,,,,,,,,,,,,,,,,,,,,,,357.3037,358.3551,a,1,[],[],[],[],[],[],[],0.395,1,358.3554,358.857,,,,,,1334,FEM,AGR,150,corona,la,a,0.395,,358.86,358.8615,-0.010416667,-0.18359375,0,0,0,,0,114,114,433,1,,,,
,,,,,,0e5f4fb4bc650ade2db46a1e,66a626ef09d4e21e1a8894ec,67377f52f01bb5a37e177469,2024-11-15_18h05.50.611,Tarea de género gramatical,2024.2.2,Win32,59.88023952,,,,,,,,,,,,,,,,,,,,,,,,358.8631,359.9273,l,1,[],[],[],[],[],[],[],0.3907,1,359.9275,360.4288,,,,,,983,MAS,AGR,150,nene,el,l,0.3907,,360.4289,360.429,-0.010416667,-0.18359375,0,0,0,,0,115,115,82,1,,,,
,,,,,,0e5f4fb4bc650ade2db46a1e,66a626ef09d4e21e1a8894ec,67377f52f01bb5a37e177469,2024-11-15_18h05.50.611,Tarea de género gramatical,2024.2.2,Win32,59.88023952,,,,,,,,,,,,,,,,,,,,,,,,360.4304,361.5162,a,1,[],[],[],[],[],[],[],0.4235,1,361.5165,362.0182,,,,,,1178,FEM,AGR,150,presa,la,a,0.4235,,362.0182,362.0185,-0.010416667,-0.18359375,0,0,0,,0,116,116,277,1,,,,
,,,,,,0e5f4fb4bc650ade2db46a1e,66a626ef09d4e21e1a8894ec,67377f52f01bb5a37e177469,2024-11-15_18h05.50.611,Tarea de género gramatical,2024.2.2,Win32,59.88023952,,,,,,,,,,,,,,,,,,,,,,,,362.0206,362.9916,l,1,[],[],[],[],[],[],[],0.3167,1,362.9916,363.4895,,,,,,905,MAS,AGR,150,tipo,el,l,0.3167,,363.4895,363.4897,-0.010416667,-0.18359375,0,0,0,,0,117,117,4,1,,,,
,,,,,,0e5f4fb4bc650ade2db46a1e,66a626ef09d4e21e1a8894ec,67377f52f01bb5a37e177469,2024-11-15_18h05.50.611,Tarea de género gramatical,2024.2.2,Win32,59.88023952,,,,,,,,,,,,,,,,,,,,,,,,363.4913,364.4935,l,1,[],[],[],[],[],[],[],0.341,1,364.4937,364.9953,,,,,,1193,MAS,AGR,150,patio,el,l,0.341,,364.9954,364.9955,-0.010416667,-0.18359375,0,0,0,,0,118,118,292,1,,,,
,,,,,,0e5f4fb4bc650ade2db46a1e,66a626ef09d4e21e1a8894ec,67377f52f01bb5a37e177469,2024-11-15_18h05.50.611,Tarea de género gramatical,2024.2.2,Win32,59.88023952,,,,,,,,,,,,,,,,,,,,,,,,364.998,366.0529,a,1,[],[],[],[],[],[],[],0.4014,1,366.0531,366.5505,,,,,,1106,FEM,AGR,150,época,la,a,0.4014,,366.5525,366.5537,-0.010416667,-0.18359375,0,0,0,,0,119,119,205,1,,,,
,,,,,,0e5f4fb4bc650ade2db46a1e,66a626ef09d4e21e1a8894ec,67377f52f01bb5a37e177469,2024-11-15_18h05.50.611,Tarea de género gramatical,2024.2.2,Win32,59.88023952,,,,,,,,,,,,,,,,,,,,,,,,366.555,367.6892,l,1,[],[],[],[],[],[],[],0.4639,1,367.6893,368.1897,,,,,,964,MAS,DIS,150,saco,la,l,0.4639,,368.1897,368.1898,-0.010416667,-0.18359375,0,0,0,,0,120,120,63,1,,,,
,,,,,,0e5f4fb4bc650ade2db46a1e,66a626ef09d4e21e1a8894ec,67377f52f01bb5a37e177469,2024-11-15_18h05.50.611,Tarea de género gramatical,2024.2.2,Win32,59.88023952,,,,,,,,,,,,,,,,,,,,,,,,368.1917,369.3458,a,1,[],[],[],[],[],[],[],0.4997,1,369.346,369.8456,,,,,,980,FEM,AGR,150,vaca,la,a,0.4997,,369.8457,369.8458,-0.010416667,-0.18359375,0,0,0,,0,121,121,79,1,,,,
,,,,,,0e5f4fb4bc650ade2db46a1e,66a626ef09d4e21e1a8894ec,67377f52f01bb5a37e177469,2024-11-15_18h05.50.611,Tarea de género gramatical,2024.2.2,Win32,59.88023952,,,,,,,,,,,,,,,,,,,,,,,,369.8477,371.0164,l,1,[],[],[],[],[],[],[],0.512,1,371.0167,371.5182,,,,,,1102,MAS,DIS,150,honor,la,l,0.512,,371.5183,371.5186,-0.010416667,-0.18359375,0,0,0,,0,122,122,201,1,,,,
,,,,,,0e5f4fb4bc650ade2db46a1e,66a626ef09d4e21e1a8894ec,67377f52f01bb5a37e177469,2024-11-15_18h05.50.611,Tarea de género gramatical,2024.2.2,Win32,59.88023952,,,,,,,,,,,,,,,,,,,,,,,,371.5206,372.5379,l,1,[],[],[],[],[],[],[],0.3614,1,372.538,373.0403,,,,,,1116,MAS,CON,150,éxito,,l,0.3614,,373.043,373.0447,-0.010416667,-0.18359375,0,0,0,,0,123,123,215,1,,,,
,,,,,,0e5f4fb4bc650ade2db46a1e,66a626ef09d4e21e1a8894ec,67377f52f01bb5a37e177469,2024-11-15_18h05.50.611,Tarea de género gramatical,2024.2.2,Win32,59.88023952,,,,,,,,,,,,,,,,,,,,,,,,373.0463,374.2946,l,1,[],[],[],[],[],[],[],0.5754,1,374.2948,374.7961,,,,,,1187,MAS,AGR,150,plato,el,l,0.5754,,374.7961,374.7962,-0.010416667,-0.18359375,0,0,0,,0,124,124,286,1,,,,
,,,,,,0e5f4fb4bc650ade2db46a1e,66a626ef09d4e21e1a8894ec,67377f52f01bb5a37e177469,2024-11-15_18h05.50.611,Tarea de género gramatical,2024.2.2,Win32,59.88023952,,,,,,,,,,,,,,,,,,,,,,,,374.7975,375.8837,l,1,[],[],[],[],[],[],[],0.4241,1,375.8839,376.3853,,,,,,1338,MAS,CON,150,tanque,,l,0.4241,,376.3855,376.3856,-0.010416667,-0.18359375,0,0,0,,0,125,125,437,1,,,,
,,,,,,0e5f4fb4bc650ade2db46a1e,66a626ef09d4e21e1a8894ec,67377f52f01bb5a37e177469,2024-11-15_18h05.50.611,Tarea de género gramatical,2024.2.2,Win32,59.88023952,,,,,,,,,,,,,,,,,,,,,,,,376.3879,377.5228,l,1,[],[],[],[],[],[],[],0.474,1,377.5229,378.0244,,,,,,1210,MAS,DIS,150,nombre,la,l,0.474,,378.0245,378.0249,-0.010416667,-0.18359375,0,0,0,,0,126,126,309,1,,,,
,,,,,,0e5f4fb4bc650ade2db46a1e,66a626ef09d4e21e1a8894ec,67377f52f01bb5a37e177469,2024-11-15_18h05.50.611,Tarea de género gramatical,2024.2.2,Win32,59.88023952,,,,,,,,,,,,,,,,,,,,,,,,378.0271,379.0949,a,1,[],[],[],[],[],[],[],0.4059,1,379.0952,379.597,,,,,,1269,FEM,CON,150,camisa,,a,0.4059,,379.5971,379.5973,-0.010416667,-0.18359375,0,0,0,,0,127,127,368,1,,,,
,,,,,,0e5f4fb4bc650ade2db46a1e,66a626ef09d4e21e1a8894ec,67377f52f01bb5a37e177469,2024-11-15_18h05.50.611,Tarea de género gramatical,2024.2.2,Win32,59.88023952,,,,,,,,,,,,,,,,,,,,,,,,379.6002,380.6842,a,1,[],[],[],[],[],[],[],0.4158,1,380.6844,381.1858,,,,,,926,FEM,AGR,150,pena,la,a,0.4158,,381.1888,381.1905,-0.010416667,-0.18359375,0,0,0,,0,128,128,25,1,,,,
,,,,,,0e5f4fb4bc650ade2db46a1e,66a626ef09d4e21e1a8894ec,67377f52f01bb5a37e177469,2024-11-15_18h05.50.611,Tarea de género gramatical,2024.2.2,Win32,59.88023952,,,,,,,,,,,,,,,,,,,,,,,,381.1919,382.256,a,1,[],[],[],[],[],[],[],0.3924,1,382.2562,382.7575,,,,,,1275,FEM,CON,150,cadena,,a,0.3924,,382.7576,382.7578,-0.010416667,-0.18359375,0,0,0,,0,129,129,374,1,,,,
,,,,,,0e5f4fb4bc650ade2db46a1e,66a626ef09d4e21e1a8894ec,67377f52f01bb5a37e177469,2024-11-15_18h05.50.611,Tarea de género gramatical,2024.2.2,Win32,59.88023952,,,,,,,,,,,,,,,,,,,,,,,,382.7592,383.7611,l,0,[],[],[],[],[],[],[],0.3438,0,383.7622,384.2633,,,,,,1249,FEM,DIS,150,prensa,el,a,0.3438,,384.2634,384.2636,-0.010416667,-0.18359375,0,0,0,,0,130,130,348,1,,,,
,,,,,,0e5f4fb4bc650ade2db46a1e,66a626ef09d4e21e1a8894ec,67377f52f01bb5a37e177469,2024-11-15_18h05.50.611,Tarea de género gramatical,2024.2.2,Win32,59.88023952,,,,,,,,,,,,,,,,,,,,,,,,384.2659,385.3502,l,1,[],[],[],[],[],[],[],0.4208,1,385.3516,385.8517,,,,,,1182,MAS,CON,150,bolso,,l,0.4208,,385.8519,385.852,-0.010416667,-0.18359375,0,0,0,,0,131,131,281,1,,,,
,,,,,,0e5f4fb4bc650ade2db46a1e,66a626ef09d4e21e1a8894ec,67377f52f01bb5a37e177469,2024-11-15_18h05.50.611,Tarea de género gramatical,2024.2.2,Win32,59.88023952,,,,,,,,,,,,,,,,,,,,,,,,385.8533,387.1062,a,1,[],[],[],[],[],[],[],0.594,1,387.1062,387.6079,,,,,,1051,FEM,DIS,150,noche,el,a,0.594,,387.6101,387.6113,-0.010416667,-0.18359375,0,0,0,,0,132,132,150,1,,,,
,,,,,,0e5f4fb4bc650ade2db46a1e,66a626ef09d4e21e1a8894ec,67377f52f01bb5a37e177469,2024-11-15_18h05.50.611,Tarea de género gramatical,2024.2.2,Win32,59.88023952,,,,,,,,,,,,,,,,,,,,,,,,387.6126,388.7455,a,1,[],[],[],[],[],[],[],0.4557,1,388.7456,389.2475,,,,,,951,FEM,CON,150,bala,,a,0.4557,,389.2476,389.2479,-0.010416667,-0.18359375,0,0,0,,0,133,133,50,1,,,,
,,,,,,0e5f4fb4bc650ade2db46a1e,66a626ef09d4e21e1a8894ec,67377f52f01bb5a37e177469,2024-11-15_18h05.50.611,Tarea de género gramatical,2024.2.2,Win32,59.88023952,,,,,,,,,,,,,,,,,,,,,,,,389.2503,390.3508,l,1,[],[],[],[],[],[],[],0.4456,1,390.3509,390.8531,,,,,,1169,MAS,AGR,150,primo,el,l,0.4456,,390.8531,390.8532,-0.010416667,-0.18359375,0,0,0,,0,134,134,268,1,,,,
,,,,,,0e5f4fb4bc650ade2db46a1e,66a626ef09d4e21e1a8894ec,67377f52f01bb5a37e177469,2024-11-15_18h05.50.611,Tarea de género gramatical,2024.2.2,Win32,59.88023952,,,,,,,,,,,,,,,,,,,,,,,,390.8555,391.9236,l,1,[],[],[],[],[],[],[],0.4042,1,391.9237,392.4254,,,,,,1282,MAS,DIS,150,teatro,la,l,0.4042,,392.4256,392.4258,-0.010416667,-0.18359375,0,0,0,,0,135,135,381,1,,,,
,,,,,,0e5f4fb4bc650ade2db46a1e,66a626ef09d4e21e1a8894ec,67377f52f01bb5a37e177469,2024-11-15_18h05.50.611,Tarea de género gramatical,2024.2.2,Win32,59.88023952,,,,,,,,,,,,,,,,,,,,,,,,392.4289,393.4285,l,1,[],[],[],[],[],[],[],0.3386,1,393.4286,393.9304,,,,,,966,MAS,CON,150,muro,,l,0.3386,,393.9305,393.9307,-0.010416667,-0.18359375,0,0,0,,0,136,136,65,1,,,,
,,,,,,0e5f4fb4bc650ade2db46a1e,66a626ef09d4e21e1a8894ec,67377f52f01bb5a37e177469,2024-11-15_18h05.50.611,Tarea de género gramatical,2024.2.2,Win32,59.88023952,,,,,,,,,,,,,,,,,,,,,,,,393.9331,395.554,a,1,[],[],[],[],[],[],[],0.9669,1,395.5542,396.0549,,,,,,1053,FEM,CON,150,mujer,,a,0.9669,,396.0575,396.0599,-0.010416667,-0.18359375,0,0,0,,0,137,137,152,1,,,,
,,,,,,0e5f4fb4bc650ade2db46a1e,66a626ef09d4e21e1a8894ec,67377f52f01bb5a37e177469,2024-11-15_18h05.50.611,Tarea de género gramatical,2024.2.2,Win32,59.88023952,,,,,,,,,,,,,,,,,,,,,,,,396.0617,397.1749,a,1,[],[],[],[],[],[],[],0.436,1,397.175,397.6767,,,,,,981,FEM,CON,150,cima,,a,0.436,,397.6768,397.6769,-0.010416667,-0.18359375,0,0,0,,0,138,138,80,1,,,,
,,,,,,0e5f4fb4bc650ade2db46a1e,66a626ef09d4e21e1a8894ec,67377f52f01bb5a37e177469,2024-11-15_18h05.50.611,Tarea de género gramatical,2024.2.2,Win32,59.88023952,,,,,,,,,,,,,,,,,,,,,,,,397.6785,398.7824,l,1,[],[],[],[],[],[],[],0.4501,1,398.7825,399.283,,,,,,1098,MAS,CON,150,hotel,,l,0.4501,,399.2831,399.2833,-0.010416667,-0.18359375,0,0,0,,0,139,139,197,1,,,,
,,,,,,0e5f4fb4bc650ade2db46a1e,66a626ef09d4e21e1a8894ec,67377f52f01bb5a37e177469,2024-11-15_18h05.50.611,Tarea de género gramatical,2024.2.2,Win32,59.88023952,,,,,,,,,,,,,,,,,,,,,,,,399.2856,400.4391,a,1,[],[],[],[],[],[],[],0.4992,1,400.4393,400.9386,,,,,,992,FEM,AGR,150,masa,la,a,0.4992,,400.9387,400.939,-0.010416667,-0.18359375,0,0,0,,0,140,140,91,1,,,,
,,,,,,0e5f4fb4bc650ade2db46a1e,66a626ef09d4e21e1a8894ec,67377f52f01bb5a37e177469,2024-11-15_18h05.50.611,Tarea de género gramatical,2024.2.2,Win32,59.88023952,,,,,,,,,,,,,,,,,,,,,,,,400.9422,402.0588,l,1,[],[],[],[],[],[],[],0.4641,1,402.059,402.5608,,,,,,1258,MAS,DIS,150,motivo,la,l,0.4641,,402.5628,402.5642,-0.010416667,-0.18359375,0,0,0,,0,141,141,357,1,,,,
,,,,,,0e5f4fb4bc650ade2db46a1e,66a626ef09d4e21e1a8894ec,67377f52f01bb5a37e177469,2024-11-15_18h05.50.611,Tarea de género gramatical,2024.2.2,Win32,59.88023952,,,,,,,,,,,,,,,,,,,,,,,,402.5654,403.6309,l,1,[],[],[],[],[],[],[],0.396,1,403.6311,404.1327,,,,,,1152,MAS,CON,150,viejo,,l,0.396,,404.1328,404.1329,-0.010416667,-0.18359375,0,0,0,,0,142,142,251,1,,,,
,,,,,,0e5f4fb4bc650ade2db46a1e,66a626ef09d4e21e1a8894ec,67377f52f01bb5a37e177469,2024-11-15_18h05.50.611,Tarea de género gramatical,2024.2.2,Win32,59.88023952,,,,,,,,,,,,,,,,,,,,,,,,404.134,405.2706,l,1,[],[],[],[],[],[],[],0.4745,1,405.2708,405.7725,,,,,,912,MAS,CON,150,plan,,l,0.4745,,405.7725,405.7726,-0.010416667,-0.18359375,0,0,0,,0,143,143,11,1,,,,
,,,,,,0e5f4fb4bc650ade2db46a1e,66a626ef09d4e21e1a8894ec,67377f52f01bb5a37e177469,2024-11-15_18h05.50.611,Tarea de género gramatical,2024.2.2,Win32,59.88023952,,,,,,,,,,,,,,,,,,,,,,,,405.7746,406.7592,l,1,[],[],[],[],[],[],[],0.3287,1,406.7594,407.2609,,,,,,948,MAS,CON,150,loco,,l,0.3287,,407.261,407.2613,-0.010416667,-0.18359375,0,0,0,,0,144,144,47,1,,,,
,,,,,,0e5f4fb4bc650ade2db46a1e,66a626ef09d4e21e1a8894ec,67377f52f01bb5a37e177469,2024-11-15_18h05.50.611,Tarea de género gramatical,2024.2.2,Win32,59.88023952,,,,,,,,,,,,,,,,,,,,,,,,407.2632,408.3813,a,1,[],[],[],[],[],[],[],0.4544,1,408.3815,408.8834,,,,,,1196,FEM,AGR,150,feria,la,a,0.4544,,408.8836,408.8838,-0.010416667,-0.18359375,0,0,0,,0,145,145,295,1,,,,
,,,,,,0e5f4fb4bc650ade2db46a1e,66a626ef09d4e21e1a8894ec,67377f52f01bb5a37e177469,2024-11-15_18h05.50.611,Tarea de género gramatical,2024.2.2,Win32,59.88023952,,,,,,,,,,,,,,,,,,,,,,,,408.8859,409.8869,a,1,[],[],[],[],[],[],[],0.3389,1,409.887,410.3886,,,,,,902,FEM,AGR,150,vida,la,a,0.3389,,410.3912,410.393,-0.010416667,-0.18359375,0,0,0,,0,146,146,1,1,,,,
,,,,,,0e5f4fb4bc650ade2db46a1e,66a626ef09d4e21e1a8894ec,67377f52f01bb5a37e177469,2024-11-15_18h05.50.611,Tarea de género gramatical,2024.2.2,Win32,59.88023952,,,,,,,,,,,,,,,,,,,,,,,,410.3945,411.5091,l,1,[],[],[],[],[],[],[],0.4458,1,411.5094,412.0108,,,,,,1211,MAS,AGR,150,camino,el,l,0.4458,,412.0109,412.0112,-0.010416667,-0.18359375,0,0,0,,0,147,147,310,1,,,,
,,,,,,0e5f4fb4bc650ade2db46a1e,66a626ef09d4e21e1a8894ec,67377f52f01bb5a37e177469,2024-11-15_18h05.50.611,Tarea de género gramatical,2024.2.2,Win32,59.88023952,,,,,,,,,,,,,,,,,,,,,,,,412.0134,413.0847,l,1,[],[],[],[],[],[],[],0.4166,1,413.0849,413.583,,,,,,1079,MAS,AGR,150,viaje,el,l,0.4166,,413.5831,413.5832,-0.010416667,-0.18359375,0,0,0,,0,148,148,178,1,,,,
,,,,,,0e5f4fb4bc650ade2db46a1e,66a626ef09d4e21e1a8894ec,67377f52f01bb5a37e177469,2024-11-15_18h05.50.611,Tarea de género gramatical,2024.2.2,Win32,59.88023952,,,,,,,,,,,,,,,,,,,,,,,,413.5846,414.7374,a,1,[],[],[],[],[],[],[],0.4882,1,414.7375,415.2385,,,,,,1009,FEM,DIS,150,gota,el,a,0.4882,,415.2385,415.2386,-0.010416667,-0.18359375,0,0,0,,0,149,149,108,1,,,,
,,,,,,0e5f4fb4bc650ade2db46a1e,66a626ef09d4e21e1a8894ec,67377f52f01bb5a37e177469,2024-11-15_18h05.50.611,Tarea de género gramatical,2024.2.2,Win32,59.88023952,,,,,,,,,,,,,,,,,,,,,,,,415.2394,416.3596,l,1,[],[],[],[],[],[],[],0.4555,1,416.3599,416.8616,,,,,,1176,MAS,CON,150,ritmo,,l,0.4555,,416.8642,592.7882,0.166666667,-0.209635417,0,0,0,space,0,150,150,275,1,175.9118,,,
,,,,,,0e5f4fb4bc650ade2db46a1e,66a626ef09d4e21e1a8894ec,67377f52f01bb5a37e177469,2024-11-15_18h05.50.611,Tarea de género gramatical,2024.2.2,Win32,59.88023952,,,,,,,,,,,,,,,,,,,,,,,,592.7893,594.193,a,1,[],[],[],[],[],[],[],0.7223,1,594.1931,594.6924,,,,,,1029,FEM,CON,150,rana,,a,0.7223,,594.6924,594.6926,0.166666667,-0.209635417,0,0,0,,0,151,151,128,1,,,,
,,,,,,0e5f4fb4bc650ade2db46a1e,66a626ef09d4e21e1a8894ec,67377f52f01bb5a37e177469,2024-11-15_18h05.50.611,Tarea de género gramatical,2024.2.2,Win32,59.88023952,,,,,,,,,,,,,,,,,,,,,,,,594.6935,595.966,l,1,[],[],[],[],[],[],[],0.605,1,595.966,596.4662,,,,,,1108,MAS,DIS,150,suelo,la,l,0.605,,596.4663,596.4664,0.166666667,-0.209635417,0,0,0,,0,152,152,207,1,,,,
,,,,,,0e5f4fb4bc650ade2db46a1e,66a626ef09d4e21e1a8894ec,67377f52f01bb5a37e177469,2024-11-15_18h05.50.611,Tarea de género gramatical,2024.2.2,Win32,59.88023952,,,,,,,,,,,,,,,,,,,,,,,,596.4676,597.6221,l,1,[],[],[],[],[],[],[],0.489,1,597.6221,598.1208,,,,,,1270,MAS,DIS,150,seguro,la,l,0.489,,598.1209,598.1209,0.166666667,-0.209635417,0,0,0,,0,153,153,369,1,,,,
,,,,,,0e5f4fb4bc650ade2db46a1e,66a626ef09d4e21e1a8894ec,67377f52f01bb5a37e177469,2024-11-15_18h05.50.611,Tarea de género gramatical,2024.2.2,Win32,59.88023952,,,,,,,,,,,,,,,,,,,,,,,,598.1219,599.2114,a,1,[],[],[],[],[],[],[],0.4217,1,599.2115,599.7101,,,,,,1107,FEM,CON,150,playa,,a,0.4217,,599.7102,599.7103,0.166666667,-0.209635417,0,0,0,,0,154,154,206,1,,,,
,,,,,,0e5f4fb4bc650ade2db46a1e,66a626ef09d4e21e1a8894ec,67377f52f01bb5a37e177469,2024-11-15_18h05.50.611,Tarea de género gramatical,2024.2.2,Win32,59.88023952,,,,,,,,,,,,,,,,,,,,,,,,599.7113,600.866,l,1,[],[],[],[],[],[],[],0.5017,1,600.8661,601.3656,,,,,,1007,MAS,AGR,150,cubo,el,l,0.5017,,601.3666,601.3673,0.166666667,-0.209635417,0,0,0,,0,155,155,106,1,,,,
,,,,,,0e5f4fb4bc650ade2db46a1e,66a626ef09d4e21e1a8894ec,67377f52f01bb5a37e177469,2024-11-15_18h05.50.611,Tarea de género gramatical,2024.2.2,Win32,59.88023952,,,,,,,,,,,,,,,,,,,,,,,,601.3678,602.5223,l,1,[],[],[],[],[],[],[],0.4856,1,602.5223,603.0226,,,,,,1224,MAS,CON,150,cuarto,,l,0.4856,,603.0227,603.0227,0.166666667,-0.209635417,0,0,0,,0,156,156,323,1,,,,
,,,,,,0e5f4fb4bc650ade2db46a1e,66a626ef09d4e21e1a8894ec,67377f52f01bb5a37e177469,2024-11-15_18h05.50.611,Tarea de género gramatical,2024.2.2,Win32,59.88023952,,,,,,,,,,,,,,,,,,,,,,,,603.0237,604.162,a,1,[],[],[],[],[],[],[],0.4534,1,604.162,604.6608,,,,,,1088,FEM,AGR,150,bomba,la,a,0.4534,,604.6608,604.6609,0.166666667,-0.209635417,0,0,0,,0,157,157,187,1,,,,
,,,,,,0e5f4fb4bc650ade2db46a1e,66a626ef09d4e21e1a8894ec,67377f52f01bb5a37e177469,2024-11-15_18h05.50.611,Tarea de género gramatical,2024.2.2,Win32,59.88023952,,,,,,,,,,,,,,,,,,,,,,,,604.662,606.0344,a,1,[],[],[],[],[],[],[],0.7049,1,606.0344,606.5303,,,,,,1147,FEM,DIS,150,frase,el,a,0.7049,,606.5303,606.5305,0.166666667,-0.209635417,0,0,0,,0,158,158,246,1,,,,
,,,,,,0e5f4fb4bc650ade2db46a1e,66a626ef09d4e21e1a8894ec,67377f52f01bb5a37e177469,2024-11-15_18h05.50.611,Tarea de género gramatical,2024.2.2,Win32,59.88023952,,,,,,,,,,,,,,,,,,,,,,,,606.5319,607.7414,l,1,[],[],[],[],[],[],[],0.5378,1,607.7414,608.2401,,,,,,1174,MAS,DIS,150,motor,la,l,0.5378,,608.2412,608.242,0.166666667,-0.209635417,0,0,0,,0,159,159,273,1,,,,
,,,,,,0e5f4fb4bc650ade2db46a1e,66a626ef09d4e21e1a8894ec,67377f52f01bb5a37e177469,2024-11-15_18h05.50.611,Tarea de género gramatical,2024.2.2,Win32,59.88023952,,,,,,,,,,,,,,,,,,,,,,,,608.2426,609.296,l,1,[],[],[],[],[],[],[],0.3871,1,609.2961,609.7967,,,,,,1026,MAS,CON,150,lazo,,l,0.3871,,609.7967,609.7968,0.166666667,-0.209635417,0,0,0,,0,160,160,125,1,,,,
,,,,,,0e5f4fb4bc650ade2db46a1e,66a626ef09d4e21e1a8894ec,67377f52f01bb5a37e177469,2024-11-15_18h05.50.611,Tarea de género gramatical,2024.2.2,Win32,59.88023952,,,,,,,,,,,,,,,,,,,,,,,,609.7977,610.9361,a,1,[],[],[],[],[],[],[],0.4718,1,610.9362,611.4347,,,,,,945,FEM,CON,150,isla,,a,0.4718,,611.4348,611.4348,0.166666667,-0.209635417,0,0,0,,0,161,161,44,1,,,,
,,,,,,0e5f4fb4bc650ade2db46a1e,66a626ef09d4e21e1a8894ec,67377f52f01bb5a37e177469,2024-11-15_18h05.50.611,Tarea de género gramatical,2024.2.2,Win32,59.88023952,,,,,,,,,,,,,,,,,,,,,,,,611.4358,612.4739,a,1,[],[],[],[],[],[],[],0.3702,1,612.4739,612.9735,,,,,,975,FEM,CON,150,caza,,a,0.3702,,612.9735,612.9737,0.166666667,-0.209635417,0,0,0,,0,162,162,74,1,,,,
,,,,,,0e5f4fb4bc650ade2db46a1e,66a626ef09d4e21e1a8894ec,67377f52f01bb5a37e177469,2024-11-15_18h05.50.611,Tarea de género gramatical,2024.2.2,Win32,59.88023952,,,,,,,,,,,,,,,,,,,,,,,,612.9747,614.0641,l,1,[],[],[],[],[],[],[],0.4219,1,614.0642,614.5625,,,,,,1350,MAS,CON,150,conejo,,l,0.4219,,614.5626,614.5626,0.166666667,-0.209635417,0,0,0,,0,163,163,449,1,,,,
,,,,,,0e5f4fb4bc650ade2db46a1e,66a626ef09d4e21e1a8894ec,67377f52f01bb5a37e177469,2024-11-15_18h05.50.611,Tarea de género gramatical,2024.2.2,Win32,59.88023952,,,,,,,,,,,,,,,,,,,,,,,,614.5636,615.7626,a,1,[],[],[],[],[],[],[],0.525,1,615.7627,616.2698,,,,,,1327,FEM,DIS,150,agenda,el,a,0.525,,616.2708,616.2714,0.166666667,-0.209635417,0,0,0,,0,164,164,426,1,,,,
,,,,,,0e5f4fb4bc650ade2db46a1e,66a626ef09d4e21e1a8894ec,67377f52f01bb5a37e177469,2024-11-15_18h05.50.611,Tarea de género gramatical,2024.2.2,Win32,59.88023952,,,,,,,,,,,,,,,,,,,,,,,,616.272,617.7102,a,1,[],[],[],[],[],[],[],0.7554,1,617.7103,618.2087,,,,,,1082,FEM,AGR,150,prisa,la,a,0.7554,,618.2087,618.2087,0.166666667,-0.209635417,0,0,0,,0,165,165,181,1,,,,
,,,,,,0e5f4fb4bc650ade2db46a1e,66a626ef09d4e21e1a8894ec,67377f52f01bb5a37e177469,2024-11-15_18h05.50.611,Tarea de género gramatical,2024.2.2,Win32,59.88023952,,,,,,,,,,,,,,,,,,,,,,,,618.2097,619.5989,l,1,[],[],[],[],[],[],[],0.7218,1,619.599,620.0983,,,,,,1234,MAS,DIS,150,ataque,la,l,0.7218,,620.0983,620.0983,0.166666667,-0.209635417,0,0,0,,0,166,166,333,1,,,,
,,,,,,0e5f4fb4bc650ade2db46a1e,66a626ef09d4e21e1a8894ec,67377f52f01bb5a37e177469,2024-11-15_18h05.50.611,Tarea de género gramatical,2024.2.2,Win32,59.88023952,,,,,,,,,,,,,,,,,,,,,,,,620.0994,621.4402,a,1,[],[],[],[],[],[],[],0.673,1,621.4402,621.9392,,,,,,1071,FEM,CON,150,mitad,,a,0.673,,621.9392,621.9393,0.166666667,-0.209635417,0,0,0,,0,167,167,170,1,,,,
,,,,,,0e5f4fb4bc650ade2db46a1e,66a626ef09d4e21e1a8894ec,67377f52f01bb5a37e177469,2024-11-15_18h05.50.611,Tarea de género gramatical,2024.2.2,Win32,59.88023952,,,,,,,,,,,,,,,,,,,,,,,,621.9402,623.1117,a,1,[],[],[],[],[],[],[],0.5044,1,623.1118,623.6104,,,,,,1209,FEM,CON,150,esposa,,a,0.5044,,623.6115,623.6121,0.166666667,-0.209635417,0,0,0,,0,168,168,308,1,,,,
,,,,,,0e5f4fb4bc650ade2db46a1e,66a626ef09d4e21e1a8894ec,67377f52f01bb5a37e177469,2024-11-15_18h05.50.611,Tarea de género gramatical,2024.2.2,Win32,59.88023952,,,,,,,,,,,,,,,,,,,,,,,,623.6128,624.864,a,1,[],[],[],[],[],[],[],0.585,1,624.8641,625.3672,,,,,,1069,FEM,DIS,150,vista,el,a,0.585,,625.3672,625.3673,0.166666667,-0.209635417,0,0,0,,0,169,169,168,1,,,,
,,,,,,0e5f4fb4bc650ade2db46a1e,66a626ef09d4e21e1a8894ec,67377f52f01bb5a37e177469,2024-11-15_18h05.50.611,Tarea de género gramatical,2024.2.2,Win32,59.88023952,,,,,,,,,,,,,,,,,,,,,,,,625.3683,626.4732,a,1,[],[],[],[],[],[],[],0.4372,1,626.4733,626.973,,,,,,1215,FEM,CON,150,manera,,a,0.4372,,626.973,626.9731,0.166666667,-0.209635417,0,0,0,,0,170,170,314,1,,,,
,,,,,,0e5f4fb4bc650ade2db46a1e,66a626ef09d4e21e1a8894ec,67377f52f01bb5a37e177469,2024-11-15_18h05.50.611,Tarea de género gramatical,2024.2.2,Win32,59.88023952,,,,,,,,,,,,,,,,,,,,,,,,626.9741,628.3633,a,1,[],[],[],[],[],[],[],0.7217,1,628.3633,628.8627,,,,,,1177,FEM,DIS,150,plaza,el,a,0.7217,,628.8627,628.8628,0.166666667,-0.209635417,0,0,0,,0,171,171,276,1,,,,
,,,,,,0e5f4fb4bc650ade2db46a1e,66a626ef09d4e21e1a8894ec,67377f52f01bb5a37e177469,2024-11-15_18h05.50.611,Tarea de género gramatical,2024.2.2,Win32,59.88023952,,,,,,,,,,,,,,,,,,,,,,,,628.8639,630.0197,l,1,[],[],[],[],[],[],[],0.4884,1,630.0197,630.5182,,,,,,1036,MAS,DIS,150,vago,la,l,0.4884,,630.5184,630.5184,0.166666667,-0.209635417,0,0,0,,0,172,172,135,1,,,,
,,,,,,0e5f4fb4bc650ade2db46a1e,66a626ef09d4e21e1a8894ec,67377f52f01bb5a37e177469,2024-11-15_18h05.50.611,Tarea de género gramatical,2024.2.2,Win32,59.88023952,,,,,,,,,,,,,,,,,,,,,,,,630.5195,631.6415,l,1,[],[],[],[],[],[],[],0.4546,1,631.6415,632.137,,,,,,1319,MAS,AGR,150,cuento,el,l,0.4546,,632.1383,632.139,0.166666667,-0.209635417,0,0,0,,0,173,173,418,1,,,,
,,,,,,0e5f4fb4bc650ade2db46a1e,66a626ef09d4e21e1a8894ec,67377f52f01bb5a37e177469,2024-11-15_18h05.50.611,Tarea de género gramatical,2024.2.2,Win32,59.88023952,,,,,,,,,,,,,,,,,,,,,,,,632.1398,633.2976,a,1,[],[],[],[],[],[],[],0.47,1,633.2976,633.7967,,,,,,1346,FEM,AGR,150,bañera,la,a,0.47,,633.7967,633.7967,0.166666667,-0.209635417,0,0,0,,0,174,174,445,1,,,,
,,,,,,0e5f4fb4bc650ade2db46a1e,66a626ef09d4e21e1a8894ec,67377f52f01bb5a37e177469,2024-11-15_18h05.50.611,Tarea de género gramatical,2024.2.2,Win32,59.88023952,,,,,,,,,,,,,,,,,,,,,,,,633.7977,634.9365,a,1,[],[],[],[],[],[],[],0.4714,1,634.9365,635.4359,,,,,,1339,FEM,DIS,150,toalla,el,a,0.4714,,635.4359,635.436,0.166666667,-0.209635417,0,0,0,,0,175,175,438,1,,,,
,,,,,,0e5f4fb4bc650ade2db46a1e,66a626ef09d4e21e1a8894ec,67377f52f01bb5a37e177469,2024-11-15_18h05.50.611,Tarea de género gramatical,2024.2.2,Win32,59.88023952,,,,,,,,,,,,,,,,,,,,,,,,635.437,636.4928,a,1,[],[],[],[],[],[],[],0.3867,1,636.4929,636.9876,,,,,,1173,FEM,CON,150,tarta,,a,0.3867,,636.9876,636.9877,0.166666667,-0.209635417,0,0,0,,0,176,176,272,1,,,,
,,,,,,0e5f4fb4bc650ade2db46a1e,66a626ef09d4e21e1a8894ec,67377f52f01bb5a37e177469,2024-11-15_18h05.50.611,Tarea de género gramatical,2024.2.2,Win32,59.88023952,,,,,,,,,,,,,,,,,,,,,,,,636.9892,638.0474,a,1,[],[],[],[],[],[],[],0.3871,1,638.0474,638.5472,,,,,,1220,FEM,AGR,150,fiesta,la,a,0.3871,,638.5482,638.5489,0.166666667,-0.209635417,0,0,0,,0,177,177,319,1,,,,
,,,,,,0e5f4fb4bc650ade2db46a1e,66a626ef09d4e21e1a8894ec,67377f52f01bb5a37e177469,2024-11-15_18h05.50.611,Tarea de género gramatical,2024.2.2,Win32,59.88023952,,,,,,,,,,,,,,,,,,,,,,,,638.5496,639.5522,a,1,[],[],[],[],[],[],[],0.3197,1,639.5522,640.0532,,,,,,1081,FEM,DIS,150,tarde,el,a,0.3197,,640.0532,640.0532,0.166666667,-0.209635417,0,0,0,,0,178,178,180,1,,,,
,,,,,,0e5f4fb4bc650ade2db46a1e,66a626ef09d4e21e1a8894ec,67377f52f01bb5a37e177469,2024-11-15_18h05.50.611,Tarea de género gramatical,2024.2.2,Win32,59.88023952,,,,,,,,,,,,,,,,,,,,,,,,640.0543,641.2255,l,1,[],[],[],[],[],[],[],0.5038,1,641.2256,641.7261,,,,,,1175,MAS,AGR,150,disco,el,l,0.5038,,641.7261,641.7262,0.166666667,-0.209635417,0,0,0,,0,179,179,274,1,,,,
,,,,,,0e5f4fb4bc650ade2db46a1e,66a626ef09d4e21e1a8894ec,67377f52f01bb5a37e177469,2024-11-15_18h05.50.611,Tarea de género gramatical,2024.2.2,Win32,59.88023952,,,,,,,,,,,,,,,,,,,,,,,,641.7272,643.0834,a,1,[],[],[],[],[],[],[],0.6897,1,643.0835,643.5815,,,,,,1303,FEM,DIS,150,paliza,el,a,0.6897,,643.5816,643.5817,0.166666667,-0.209635417,0,0,0,,0,180,180,402,1,,,,
,,,,,,0e5f4fb4bc650ade2db46a1e,66a626ef09d4e21e1a8894ec,67377f52f01bb5a37e177469,2024-11-15_18h05.50.611,Tarea de género gramatical,2024.2.2,Win32,59.88023952,,,,,,,,,,,,,,,,,,,,,,,,643.5827,644.8718,a,1,[],[],[],[],[],[],[],0.6216,1,644.8719,645.3726,,,,,,973,FEM,DIS,150,roca,el,a,0.6216,,645.3727,645.3728,0.166666667,-0.209635417,0,0,0,,0,181,181,72,1,,,,
,,,,,,0e5f4fb4bc650ade2db46a1e,66a626ef09d4e21e1a8894ec,67377f52f01bb5a37e177469,2024-11-15_18h05.50.611,Tarea de género gramatical,2024.2.2,Win32,59.88023952,,,,,,,,,,,,,,,,,,,,,,,,645.3738,646.5954,a,1,[],[],[],[],[],[],[],0.5379,1,646.5955,647.0933,,,,,,1340,FEM,AGR,150,patada,la,a,0.5379,,647.0946,647.0953,0.166666667,-0.209635417,0,0,0,,0,182,182,439,1,,,,
,,,,,,0e5f4fb4bc650ade2db46a1e,66a626ef09d4e21e1a8894ec,67377f52f01bb5a37e177469,2024-11-15_18h05.50.611,Tarea de género gramatical,2024.2.2,Win32,59.88023952,,,,,,,,,,,,,,,,,,,,,,,,647.096,648.3107,l,1,[],[],[],[],[],[],[],0.5613,1,648.3108,648.8009,,,,,,1091,MAS,AGR,150,dolor,el,l,0.5613,,648.8009,648.801,0.166666667,-0.209635417,0,0,0,,0,183,183,190,1,,,,
,,,,,,0e5f4fb4bc650ade2db46a1e,66a626ef09d4e21e1a8894ec,67377f52f01bb5a37e177469,2024-11-15_18h05.50.611,Tarea de género gramatical,2024.2.2,Win32,59.88023952,,,,,,,,,,,,,,,,,,,,,,,,648.8019,649.8557,l,1,[],[],[],[],[],[],[],0.3865,1,649.8558,650.3553,,,,,,1032,MAS,CON,150,velo,,l,0.3865,,650.3554,650.3555,0.166666667,-0.209635417,0,0,0,,0,184,184,131,1,,,,
,,,,,,0e5f4fb4bc650ade2db46a1e,66a626ef09d4e21e1a8894ec,67377f52f01bb5a37e177469,2024-11-15_18h05.50.611,Tarea de género gramatical,2024.2.2,Win32,59.88023952,,,,,,,,,,,,,,,,,,,,,,,,650.3565,651.4282,l,1,[],[],[],[],[],[],[],0.4044,1,651.4282,651.9274,,,,,,1337,MAS,AGR,150,hombro,el,l,0.4044,,651.9275,651.9276,0.166666667,-0.209635417,0,0,0,,0,185,185,436,1,,,,
,,,,,,0e5f4fb4bc650ade2db46a1e,66a626ef09d4e21e1a8894ec,67377f52f01bb5a37e177469,2024-11-15_18h05.50.611,Tarea de género gramatical,2024.2.2,Win32,59.88023952,,,,,,,,,,,,,,,,,,,,,,,,651.9285,652.9772,a,1,[],[],[],[],[],[],[],0.3587,1,652.9774,653.4663,,,,,,1017,FEM,CON,150,raya,,a,0.3587,,653.4672,653.4678,0.166666667,-0.209635417,0,0,0,,0,186,186,116,1,,,,
,,,,,,0e5f4fb4bc650ade2db46a1e,66a626ef09d4e21e1a8894ec,67377f52f01bb5a37e177469,2024-11-15_18h05.50.611,Tarea de género gramatical,2024.2.2,Win32,59.88023952,,,,,,,,,,,,,,,,,,,,,,,,653.4684,654.5058,a,1,[],[],[],[],[],[],[],0.3708,1,654.5058,655.005,,,,,,963,FEM,CON,150,fila,,a,0.3708,,655.0051,655.0052,0.166666667,-0.209635417,0,0,0,,0,187,187,62,1,,,,
,,,,,,0e5f4fb4bc650ade2db46a1e,66a626ef09d4e21e1a8894ec,67377f52f01bb5a37e177469,2024-11-15_18h05.50.611,Tarea de género gramatical,2024.2.2,Win32,59.88023952,,,,,,,,,,,,,,,,,,,,,,,,655.0061,656.0121,a,1,[],[],[],[],[],[],[],0.3217,1,656.0122,656.5105,,,,,,1221,FEM,CON,150,comida,,a,0.3217,,656.5106,656.5106,0.166666667,-0.209635417,0,0,0,,0,188,188,320,1,,,,
,,,,,,0e5f4fb4bc650ade2db46a1e,66a626ef09d4e21e1a8894ec,67377f52f01bb5a37e177469,2024-11-15_18h05.50.611,Tarea de género gramatical,2024.2.2,Win32,59.88023952,,,,,,,,,,,,,,,,,,,,,,,,656.5115,657.6334,l,1,[],[],[],[],[],[],[],0.4542,1,657.6334,658.1333,,,,,,1324,MAS,DIS,150,rastro,la,l,0.4542,,658.1333,658.1334,0.166666667,-0.209635417,0,0,0,,0,189,189,423,1,,,,
,,,,,,0e5f4fb4bc650ade2db46a1e,66a626ef09d4e21e1a8894ec,67377f52f01bb5a37e177469,2024-11-15_18h05.50.611,Tarea de género gramatical,2024.2.2,Win32,59.88023952,,,,,,,,,,,,,,,,,,,,,,,,658.1345,659.1704,a,1,[],[],[],[],[],[],[],0.3688,1,659.1704,659.6715,,,,,,1093,FEM,DIS,150,bolsa,el,a,0.3688,,659.6715,659.6718,0.166666667,-0.209635417,0,0,0,,0,190,190,192,1,,,,
,,,,,,0e5f4fb4bc650ade2db46a1e,66a626ef09d4e21e1a8894ec,67377f52f01bb5a37e177469,2024-11-15_18h05.50.611,Tarea de género gramatical,2024.2.2,Win32,59.88023952,,,,,,,,,,,,,,,,,,,,,,,,659.6728,660.6611,a,1,[],[],[],[],[],[],[],0.3199,1,660.6611,661.1604,,,,,,1118,FEM,AGR,150,nieve,la,a,0.3199,,661.1616,661.1622,0.166666667,-0.209635417,0,0,0,,0,191,191,217,1,,,,
,,,,,,0e5f4fb4bc650ade2db46a1e,66a626ef09d4e21e1a8894ec,67377f52f01bb5a37e177469,2024-11-15_18h05.50.611,Tarea de género gramatical,2024.2.2,Win32,59.88023952,,,,,,,,,,,,,,,,,,,,,,,,661.1629,662.1991,a,1,[],[],[],[],[],[],[],0.3532,1,662.1991,662.7008,,,,,,1057,FEM,DIS,150,madre,el,a,0.3532,,662.7008,662.701,0.166666667,-0.209635417,0,0,0,,0,192,192,156,1,,,,
,,,,,,0e5f4fb4bc650ade2db46a1e,66a626ef09d4e21e1a8894ec,67377f52f01bb5a37e177469,2024-11-15_18h05.50.611,Tarea de género gramatical,2024.2.2,Win32,59.88023952,,,,,,,,,,,,,,,,,,,,,,,,662.7019,663.7549,l,1,[],[],[],[],[],[],[],0.3706,1,663.7549,664.254,,,,,,1248,MAS,CON,150,anillo,,l,0.3706,,664.2541,664.2542,0.166666667,-0.209635417,0,0,0,,0,193,193,347,1,,,,
,,,,,,0e5f4fb4bc650ade2db46a1e,66a626ef09d4e21e1a8894ec,67377f52f01bb5a37e177469,2024-11-15_18h05.50.611,Tarea de género gramatical,2024.2.2,Win32,59.88023952,,,,,,,,,,,,,,,,,,,,,,,,664.2552,665.3111,l,1,[],[],[],[],[],[],[],0.388,1,665.3111,665.8102,,,,,,1277,MAS,AGR,150,jardín,el,l,0.388,,665.8103,665.8103,0.166666667,-0.209635417,0,0,0,,0,194,194,376,1,,,,
,,,,,,0e5f4fb4bc650ade2db46a1e,66a626ef09d4e21e1a8894ec,67377f52f01bb5a37e177469,2024-11-15_18h05.50.611,Tarea de género gramatical,2024.2.2,Win32,59.88023952,,,,,,,,,,,,,,,,,,,,,,,,665.8114,666.8322,l,1,[],[],[],[],[],[],[],0.3538,1,666.8323,667.3282,,,,,,1192,MAS,DIS,150,piano,la,l,0.3538,,667.3295,667.3303,0.166666667,-0.209635417,0,0,0,,0,195,195,291,1,,,,
,,,,,,0e5f4fb4bc650ade2db46a1e,66a626ef09d4e21e1a8894ec,67377f52f01bb5a37e177469,2024-11-15_18h05.50.611,Tarea de género gramatical,2024.2.2,Win32,59.88023952,,,,,,,,,,,,,,,,,,,,,,,,667.3309,668.5193,a,1,[],[],[],[],[],[],[],0.5186,1,668.5193,669.0224,,,,,,1213,FEM,DIS,150,ciudad,el,a,0.5186,,669.0225,669.0225,0.166666667,-0.209635417,0,0,0,,0,196,196,312,1,,,,
,,,,,,0e5f4fb4bc650ade2db46a1e,66a626ef09d4e21e1a8894ec,67377f52f01bb5a37e177469,2024-11-15_18h05.50.611,Tarea de género gramatical,2024.2.2,Win32,59.88023952,,,,,,,,,,,,,,,,,,,,,,,,669.0235,669.9933,a,1,[],[],[],[],[],[],[],0.3034,1,669.9934,670.493,,,,,,1292,FEM,AGR,150,maleta,la,a,0.3034,,670.493,670.493,0.166666667,-0.209635417,0,0,0,,0,197,197,391,1,,,,
,,,,,,0e5f4fb4bc650ade2db46a1e,66a626ef09d4e21e1a8894ec,67377f52f01bb5a37e177469,2024-11-15_18h05.50.611,Tarea de género gramatical,2024.2.2,Win32,59.88023952,,,,,,,,,,,,,,,,,,,,,,,,670.4941,671.5335,l,1,[],[],[],[],[],[],[],0.3723,1,671.5335,672.028,,,,,,1331,MAS,AGR,150,veneno,el,l,0.3723,,672.0281,672.0283,0.166666667,-0.209635417,0,0,0,,0,198,198,430,1,,,,
,,,,,,0e5f4fb4bc650ade2db46a1e,66a626ef09d4e21e1a8894ec,67377f52f01bb5a37e177469,2024-11-15_18h05.50.611,Tarea de género gramatical,2024.2.2,Win32,59.88023952,,,,,,,,,,,,,,,,,,,,,,,,672.0297,673.1819,l,1,[],[],[],[],[],[],[],0.4715,1,673.1819,673.6714,,,,,,1198,MAS,DIS,150,botón,la,l,0.4715,,673.6715,673.6715,0.166666667,-0.209635417,0,0,0,,0,199,199,297,1,,,,
,,,,,,0e5f4fb4bc650ade2db46a1e,66a626ef09d4e21e1a8894ec,67377f52f01bb5a37e177469,2024-11-15_18h05.50.611,Tarea de género gramatical,2024.2.2,Win32,59.88023952,,,,,,,,,,,,,,,,,,,,,,,,673.6725,674.8605,a,1,[],[],[],[],[],[],[],0.5195,1,674.8605,675.3565,,,,,,1141,FEM,DIS,150,pasta,el,a,0.5195,,675.3579,675.3585,0.166666667,-0.209635417,0,0,0,,0,200,200,240,1,,,,
,,,,,,0e5f4fb4bc650ade2db46a1e,66a626ef09d4e21e1a8894ec,67377f52f01bb5a37e177469,2024-11-15_18h05.50.611,Tarea de género gramatical,2024.2.2,Win32,59.88023952,,,,,,,,,,,,,,,,,,,,,,,,675.3591,676.3828,a,1,[],[],[],[],[],[],[],0.3538,1,676.3828,676.8784,,,,,,1003,FEM,DIS,150,fama,el,a,0.3538,,676.8784,676.8786,0.166666667,-0.209635417,0,0,0,,0,201,201,102,1,,,,
,,,,,,0e5f4fb4bc650ade2db46a1e,66a626ef09d4e21e1a8894ec,67377f52f01bb5a37e177469,2024-11-15_18h05.50.611,Tarea de género gramatical,2024.2.2,Win32,59.88023952,,,,,,,,,,,,,,,,,,,,,,,,676.88,677.9489,l,1,[],[],[],[],[],[],[],0.3964,1,677.949,678.4387,,,,,,917,MAS,AGR,150,modo,el,l,0.3964,,678.4388,678.4388,0.166666667,-0.209635417,0,0,0,,0,202,202,16,1,,,,
,,,,,,0e5f4fb4bc650ade2db46a1e,66a626ef09d4e21e1a8894ec,67377f52f01bb5a37e177469,2024-11-15_18h05.50.611,Tarea de género gramatical,2024.2.2,Win32,59.88023952,,,,,,,,,,,,,,,,,,,,,,,,678.4399,679.5878,a,1,[],[],[],[],[],[],[],0.4734,1,679.5879,680.0931,,,,,,1027,FEM,DIS,150,cuna,el,a,0.4734,,680.0932,680.0932,0.166666667,-0.209635417,0,0,0,,0,203,203,126,1,,,,
,,,,,,0e5f4fb4bc650ade2db46a1e,66a626ef09d4e21e1a8894ec,67377f52f01bb5a37e177469,2024-11-15_18h05.50.611,Tarea de género gramatical,2024.2.2,Win32,59.88023952,,,,,,,,,,,,,,,,,,,,,,,,680.0941,681.5175,l,1,[],[],[],[],[],[],[],0.7552,1,681.5175,682.0171,,,,,,982,MAS,DIS,150,tubo,la,l,0.7552,,682.0181,682.0186,0.166666667,-0.209635417,0,0,0,,0,204,204,81,1,,,,
,,,,,,0e5f4fb4bc650ade2db46a1e,66a626ef09d4e21e1a8894ec,67377f52f01bb5a37e177469,2024-11-15_18h05.50.611,Tarea de género gramatical,2024.2.2,Win32,59.88023952,,,,,,,,,,,,,,,,,,,,,,,,682.0192,683.1565,l,1,[],[],[],[],[],[],[],0.4705,1,683.1565,683.6524,,,,,,1228,MAS,DIS,150,asunto,la,l,0.4705,,683.6525,683.6527,0.166666667,-0.209635417,0,0,0,,0,205,205,327,1,,,,
,,,,,,0e5f4fb4bc650ade2db46a1e,66a626ef09d4e21e1a8894ec,67377f52f01bb5a37e177469,2024-11-15_18h05.50.611,Tarea de género gramatical,2024.2.2,Win32,59.88023952,,,,,,,,,,,,,,,,,,,,,,,,683.654,684.9125,l,1,[],[],[],[],[],[],[],0.6004,1,684.9126,685.4086,,,,,,952,MAS,DIS,150,lago,la,l,0.6004,,685.4087,685.4089,0.166666667,-0.209635417,0,0,0,,0,206,206,51,1,,,,
,,,,,,0e5f4fb4bc650ade2db46a1e,66a626ef09d4e21e1a8894ec,67377f52f01bb5a37e177469,2024-11-15_18h05.50.611,Tarea de género gramatical,2024.2.2,Win32,59.88023952,,,,,,,,,,,,,,,,,,,,,,,,685.4101,686.4623,l,1,[],[],[],[],[],[],[],0.3756,1,686.4624,686.9692,,,,,,984,MAS,CON,150,mago,,l,0.3756,,686.9692,686.9693,0.166666667,-0.209635417,0,0,0,,0,207,207,83,1,,,,
,,,,,,0e5f4fb4bc650ade2db46a1e,66a626ef09d4e21e1a8894ec,67377f52f01bb5a37e177469,2024-11-15_18h05.50.611,Tarea de género gramatical,2024.2.2,Win32,59.88023952,,,,,,,,,,,,,,,,,,,,,,,,686.9704,688.0415,l,1,[],[],[],[],[],[],[],0.404,1,688.0415,688.5363,,,,,,1326,MAS,CON,150,pánico,,l,0.404,,688.5363,688.5365,0.166666667,-0.209635417,0,0,0,,0,208,208,425,1,,,,
,,,,,,0e5f4fb4bc650ade2db46a1e,66a626ef09d4e21e1a8894ec,67377f52f01bb5a37e177469,2024-11-15_18h05.50.611,Tarea de género gramatical,2024.2.2,Win32,59.88023952,,,,,,,,,,,,,,,,,,,,,,,,688.5377,689.6125,a,1,[],[],[],[],[],[],[],0.4171,1,689.6125,690.1083,,,,,,1214,FEM,AGR,150,señora,la,a,0.4171,,690.1095,690.1103,0.166666667,-0.209635417,0,0,0,,0,209,209,313,1,,,,
,,,,,,0e5f4fb4bc650ade2db46a1e,66a626ef09d4e21e1a8894ec,67377f52f01bb5a37e177469,2024-11-15_18h05.50.611,Tarea de género gramatical,2024.2.2,Win32,59.88023952,,,,,,,,,,,,,,,,,,,,,,,,690.1109,691.3844,l,1,[],[],[],[],[],[],[],0.6021,1,691.3845,691.8853,,,,,,1062,MAS,CON,150,miedo,,l,0.6021,,691.8853,691.8854,0.166666667,-0.209635417,0,0,0,,0,210,210,161,1,,,,
,,,,,,0e5f4fb4bc650ade2db46a1e,66a626ef09d4e21e1a8894ec,67377f52f01bb5a37e177469,2024-11-15_18h05.50.611,Tarea de género gramatical,2024.2.2,Win32,59.88023952,,,,,,,,,,,,,,,,,,,,,,,,691.8864,693.0415,a,1,[],[],[],[],[],[],[],0.4877,1,693.0415,693.5411,,,,,,913,FEM,DIS,150,hija,el,a,0.4877,,693.5412,693.5413,0.166666667,-0.209635417,0,0,0,,0,211,211,12,1,,,,
,,,,,,0e5f4fb4bc650ade2db46a1e,66a626ef09d4e21e1a8894ec,67377f52f01bb5a37e177469,2024-11-15_18h05.50.611,Tarea de género gramatical,2024.2.2,Win32,59.88023952,,,,,,,,,,,,,,,,,,,,,,,,693.5422,694.6576,l,1,[],[],[],[],[],[],[],0.4453,1,694.6577,695.1468,,,,,,1170,MAS,CON,150,queso,,l,0.4453,,695.1468,695.147,0.166666667,-0.209635417,0,0,0,,0,212,212,269,1,,,,
,,,,,,0e5f4fb4bc650ade2db46a1e,66a626ef09d4e21e1a8894ec,67377f52f01bb5a37e177469,2024-11-15_18h05.50.611,Tarea de género gramatical,2024.2.2,Win32,59.88023952,,,,,,,,,,,,,,,,,,,,,,,,695.1478,696.2365,a,1,[],[],[],[],[],[],[],0.4213,1,696.2365,696.7321,,,,,,1195,FEM,DIS,150,grasa,el,a,0.4213,,696.7335,696.7341,0.166666667,-0.209635417,0,0,0,,0,213,213,294,1,,,,
,,,,,,0e5f4fb4bc650ade2db46a1e,66a626ef09d4e21e1a8894ec,67377f52f01bb5a37e177469,2024-11-15_18h05.50.611,Tarea de género gramatical,2024.2.2,Win32,59.88023952,,,,,,,,,,,,,,,,,,,,,,,,696.7348,697.9921,l,1,[],[],[],[],[],[],[],0.5881,1,697.9922,698.4918,,,,,,958,MAS,DIS,150,mono,la,l,0.5881,,698.4919,698.492,0.166666667,-0.209635417,0,0,0,,0,214,214,57,1,,,,
,,,,,,0e5f4fb4bc650ade2db46a1e,66a626ef09d4e21e1a8894ec,67377f52f01bb5a37e177469,2024-11-15_18h05.50.611,Tarea de género gramatical,2024.2.2,Win32,59.88023952,,,,,,,,,,,,,,,,,,,,,,,,698.4927,699.5251,l,1,[],[],[],[],[],[],[],0.357,1,699.5252,700.014,,,,,,1019,MAS,AGR,150,mito,el,l,0.357,,700.014,700.0141,0.166666667,-0.209635417,0,0,0,,0,215,215,118,1,,,,
,,,,,,0e5f4fb4bc650ade2db46a1e,66a626ef09d4e21e1a8894ec,67377f52f01bb5a37e177469,2024-11-15_18h05.50.611,Tarea de género gramatical,2024.2.2,Win32,59.88023952,,,,,,,,,,,,,,,,,,,,,,,,700.0152,701.1844,a,1,[],[],[],[],[],[],[],0.5021,1,701.1844,701.6823,,,,,,950,FEM,AGR,150,dama,la,a,0.5021,,701.6824,701.6824,0.166666667,-0.209635417,0,0,0,,0,216,216,49,1,,,,
,,,,,,0e5f4fb4bc650ade2db46a1e,66a626ef09d4e21e1a8894ec,67377f52f01bb5a37e177469,2024-11-15_18h05.50.611,Tarea de género gramatical,2024.2.2,Win32,59.88023952,,,,,,,,,,,,,,,,,,,,,,,,701.6836,702.6368,l,1,[],[],[],[],[],[],[],0.2816,1,702.637,703.1267,,,,,,1043,MAS,AGR,150,faro,el,l,0.2816,,703.1267,703.1267,0.166666667,-0.209635417,0,0,0,,0,217,217,142,1,,,,
,,,,,,0e5f4fb4bc650ade2db46a1e,66a626ef09d4e21e1a8894ec,67377f52f01bb5a37e177469,2024-11-15_18h05.50.611,Tarea de género gramatical,2024.2.2,Win32,59.88023952,,,,,,,,,,,,,,,,,,,,,,,,703.1274,704.1969,a,1,[],[],[],[],[],[],[],0.4035,1,704.197,704.6976,,,,,,998,FEM,AGR,150,fuga,la,a,0.4035,,704.6988,704.6995,0.166666667,-0.209635417,0,0,0,,0,218,218,97,1,,,,
,,,,,,0e5f4fb4bc650ade2db46a1e,66a626ef09d4e21e1a8894ec,67377f52f01bb5a37e177469,2024-11-15_18h05.50.611,Tarea de género gramatical,2024.2.2,Win32,59.88023952,,,,,,,,,,,,,,,,,,,,,,,,704.7001,705.7315,l,1,[],[],[],[],[],[],[],0.3482,1,705.7315,706.2205,,,,,,1134,MAS,CON,150,héroe,,l,0.3482,,706.2205,706.2206,0.166666667,-0.209635417,0,0,0,,0,219,219,233,1,,,,
,,,,,,0e5f4fb4bc650ade2db46a1e,66a626ef09d4e21e1a8894ec,67377f52f01bb5a37e177469,2024-11-15_18h05.50.611,Tarea de género gramatical,2024.2.2,Win32,59.88023952,,,,,,,,,,,,,,,,,,,,,,,,706.2215,707.2928,a,1,[],[],[],[],[],[],[],0.4032,1,707.2929,707.7909,,,,,,986,FEM,AGR,150,cruz,la,a,0.4032,,707.7909,707.7911,0.166666667,-0.209635417,0,0,0,,0,220,220,85,1,,,,
,,,,,,0e5f4fb4bc650ade2db46a1e,66a626ef09d4e21e1a8894ec,67377f52f01bb5a37e177469,2024-11-15_18h05.50.611,Tarea de género gramatical,2024.2.2,Win32,59.88023952,,,,,,,,,,,,,,,,,,,,,,,,707.7919,708.8306,a,1,[],[],[],[],[],[],[],0.3538,1,708.8306,709.3305,,,,,,1113,FEM,CON,150,magia,,a,0.3538,,709.3305,709.3306,0.166666667,-0.209635417,0,0,0,,0,221,221,212,1,,,,
,,,,,,0e5f4fb4bc650ade2db46a1e,66a626ef09d4e21e1a8894ec,67377f52f01bb5a37e177469,2024-11-15_18h05.50.611,Tarea de género gramatical,2024.2.2,Win32,59.88023952,,,,,,,,,,,,,,,,,,,,,,,,709.3316,710.3858,a,1,[],[],[],[],[],[],[],0.3868,1,710.3858,710.8819,,,,,,1148,FEM,AGR,150,letra,la,a,0.3868,,710.8833,710.884,0.166666667,-0.209635417,0,0,0,,0,222,222,247,1,,,,
,,,,,,0e5f4fb4bc650ade2db46a1e,66a626ef09d4e21e1a8894ec,67377f52f01bb5a37e177469,2024-11-15_18h05.50.611,Tarea de género gramatical,2024.2.2,Win32,59.88023952,,,,,,,,,,,,,,,,,,,,,,,,710.8846,712.0249,l,1,[],[],[],[],[],[],[],0.4713,1,712.025,712.5257,,,,,,1012,MAS,DIS,150,reto,la,l,0.4713,,712.5257,712.5258,0.166666667,-0.209635417,0,0,0,,0,223,223,111,1,,,,
,,,,,,0e5f4fb4bc650ade2db46a1e,66a626ef09d4e21e1a8894ec,67377f52f01bb5a37e177469,2024-11-15_18h05.50.611,Tarea de género gramatical,2024.2.2,Win32,59.88023952,,,,,,,,,,,,,,,,,,,,,,,,712.5268,713.5306,l,1,[],[],[],[],[],[],[],0.3372,1,713.5306,714.026,,,,,,1300,MAS,DIS,150,barrio,la,l,0.3372,,714.0261,714.0262,0.166666667,-0.209635417,0,0,0,,0,224,224,399,1,,,,
,,,,,,0e5f4fb4bc650ade2db46a1e,66a626ef09d4e21e1a8894ec,67377f52f01bb5a37e177469,2024-11-15_18h05.50.611,Tarea de género gramatical,2024.2.2,Win32,59.88023952,,,,,,,,,,,,,,,,,,,,,,,,714.0277,715.0999,a,1,[],[],[],[],[],[],[],0.4158,1,715.1,715.6016,,,,,,1226,FEM,AGR,150,música,la,a,0.4158,,715.6016,715.6018,0.166666667,-0.209635417,0,0,0,,0,225,225,325,1,,,,
,,,,,,0e5f4fb4bc650ade2db46a1e,66a626ef09d4e21e1a8894ec,67377f52f01bb5a37e177469,2024-11-15_18h05.50.611,Tarea de género gramatical,2024.2.2,Win32,59.88023952,,,,,,,,,,,,,,,,,,,,,,,,715.6027,716.6414,l,1,[],[],[],[],[],[],[],0.3706,1,716.6414,717.1408,,,,,,1265,MAS,AGR,150,código,el,l,0.3706,,717.1409,717.1409,0.166666667,-0.209635417,0,0,0,,0,226,226,364,1,,,,
,,,,,,0e5f4fb4bc650ade2db46a1e,66a626ef09d4e21e1a8894ec,67377f52f01bb5a37e177469,2024-11-15_18h05.50.611,Tarea de género gramatical,2024.2.2,Win32,59.88023952,,,,,,,,,,,,,,,,,,,,,,,,717.1419,718.1631,l,1,[],[],[],[],[],[],[],0.3534,1,718.1631,718.663,,,,,,996,MAS,CON,150,pato,,l,0.3534,,718.6641,718.6646,0.166666667,-0.209635417,0,0,0,,0,227,227,95,1,,,,
,,,,,,0e5f4fb4bc650ade2db46a1e,66a626ef09d4e21e1a8894ec,67377f52f01bb5a37e177469,2024-11-15_18h05.50.611,Tarea de género gramatical,2024.2.2,Win32,59.88023952,,,,,,,,,,,,,,,,,,,,,,,,718.6654,719.7865,a,1,[],[],[],[],[],[],[],0.4549,1,719.7865,720.2815,,,,,,1233,FEM,CON,150,locura,,a,0.4549,,720.2816,720.2818,0.166666667,-0.209635417,0,0,0,,0,228,228,332,1,,,,
,,,,,,0e5f4fb4bc650ade2db46a1e,66a626ef09d4e21e1a8894ec,67377f52f01bb5a37e177469,2024-11-15_18h05.50.611,Tarea de género gramatical,2024.2.2,Win32,59.88023952,,,,,,,,,,,,,,,,,,,,,,,,720.283,721.3245,l,1,[],[],[],[],[],[],[],0.3691,1,721.3245,721.8244,,,,,,988,MAS,DIS,150,pavo,la,l,0.3691,,721.8245,721.8246,0.166666667,-0.209635417,0,0,0,,0,229,229,87,1,,,,
,,,,,,0e5f4fb4bc650ade2db46a1e,66a626ef09d4e21e1a8894ec,67377f52f01bb5a37e177469,2024-11-15_18h05.50.611,Tarea de género gramatical,2024.2.2,Win32,59.88023952,,,,,,,,,,,,,,,,,,,,,,,,721.8259,722.8295,l,1,[],[],[],[],[],[],[],0.3207,1,722.8296,723.3291,,,,,,1031,MAS,AGR,150,kilo,el,l,0.3207,,723.3292,723.3293,0.166666667,-0.209635417,0,0,0,,0,230,230,130,1,,,,
,,,,,,0e5f4fb4bc650ade2db46a1e,66a626ef09d4e21e1a8894ec,67377f52f01bb5a37e177469,2024-11-15_18h05.50.611,Tarea de género gramatical,2024.2.2,Win32,59.88023952,,,,,,,,,,,,,,,,,,,,,,,,723.3302,724.3033,l,1,[],[],[],[],[],[],[],0.3195,1,724.3034,724.8015,,,,,,1295,MAS,AGR,150,correo,el,l,0.3195,,724.8027,724.8034,0.166666667,-0.209635417,0,0,0,,0,231,231,394,1,,,,
,,,,,,0e5f4fb4bc650ade2db46a1e,66a626ef09d4e21e1a8894ec,67377f52f01bb5a37e177469,2024-11-15_18h05.50.611,Tarea de género gramatical,2024.2.2,Win32,59.88023952,,,,,,,,,,,,,,,,,,,,,,,,724.804,725.7566,l,0,[],[],[],[],[],[],[],0.285,0,725.7571,726.2527,,,,,,1225,FEM,DIS,150,tierra,el,a,0.285,,726.2527,726.2529,0.166666667,-0.209635417,0,0,0,,0,232,232,324,1,,,,
,,,,,,0e5f4fb4bc650ade2db46a1e,66a626ef09d4e21e1a8894ec,67377f52f01bb5a37e177469,2024-11-15_18h05.50.611,Tarea de género gramatical,2024.2.2,Win32,59.88023952,,,,,,,,,,,,,,,,,,,,,,,,726.2541,727.4296,a,1,[],[],[],[],[],[],[],0.5053,1,727.4301,727.9288,,,,,,1137,FEM,CON,150,ducha,,a,0.5053,,727.9289,727.929,0.166666667,-0.209635417,0,0,0,,0,233,233,236,1,,,,
,,,,,,0e5f4fb4bc650ade2db46a1e,66a626ef09d4e21e1a8894ec,67377f52f01bb5a37e177469,2024-11-15_18h05.50.611,Tarea de género gramatical,2024.2.2,Win32,59.88023952,,,,,,,,,,,,,,,,,,,,,,,,727.9299,728.9178,a,1,[],[],[],[],[],[],[],0.3201,1,728.9178,729.4139,,,,,,1047,FEM,CON,150,grúa,,a,0.3201,,729.414,729.4142,0.166666667,-0.209635417,0,0,0,,0,234,234,146,1,,,,
,,,,,,0e5f4fb4bc650ade2db46a1e,66a626ef09d4e21e1a8894ec,67377f52f01bb5a37e177469,2024-11-15_18h05.50.611,Tarea de género gramatical,2024.2.2,Win32,59.88023952,,,,,,,,,,,,,,,,,,,,,,,,729.4156,730.4401,l,1,[],[],[],[],[],[],[],0.3539,1,730.4401,730.9392,,,,,,1168,MAS,DIS,150,truco,la,l,0.3539,,730.9393,730.9394,0.166666667,-0.209635417,0,0,0,,0,235,235,267,1,,,,
,,,,,,0e5f4fb4bc650ade2db46a1e,66a626ef09d4e21e1a8894ec,67377f52f01bb5a37e177469,2024-11-15_18h05.50.611,Tarea de género gramatical,2024.2.2,Win32,59.88023952,,,,,,,,,,,,,,,,,,,,,,,,730.9403,731.98,l,1,[],[],[],[],[],[],[],0.3719,1,731.9801,732.4787,,,,,,976,MAS,DIS,150,lujo,la,l,0.3719,,732.4797,732.4803,0.166666667,-0.209635417,0,0,0,,0,236,236,75,1,,,,
,,,,,,0e5f4fb4bc650ade2db46a1e,66a626ef09d4e21e1a8894ec,67377f52f01bb5a37e177469,2024-11-15_18h05.50.611,Tarea de género gramatical,2024.2.2,Win32,59.88023952,,,,,,,,,,,,,,,,,,,,,,,,732.4809,733.5019,a,1,[],[],[],[],[],[],[],0.3538,1,733.5019,734.0005,,,,,,1028,FEM,AGR,150,leña,la,a,0.3538,,734.0005,734.0006,0.166666667,-0.209635417,0,0,0,,0,237,237,127,1,,,,
,,,,,,0e5f4fb4bc650ade2db46a1e,66a626ef09d4e21e1a8894ec,67377f52f01bb5a37e177469,2024-11-15_18h05.50.611,Tarea de género gramatical,2024.2.2,Win32,59.88023952,,,,,,,,,,,,,,,,,,,,,,,,734.0017,735.1903,l,1,[],[],[],[],[],[],[],0.5218,1,735.1904,735.6899,,,,,,1024,MAS,DIS,150,clan,la,l,0.5218,,735.69,735.6901,0.166666667,-0.209635417,0,0,0,,0,238,238,123,1,,,,
,,,,,,0e5f4fb4bc650ade2db46a1e,66a626ef09d4e21e1a8894ec,67377f52f01bb5a37e177469,2024-11-15_18h05.50.611,Tarea de género gramatical,2024.2.2,Win32,59.88023952,,,,,,,,,,,,,,,,,,,,,,,,735.6911,736.823,a,1,[],[],[],[],[],[],[],0.4566,1,736.8231,737.3115,,,,,,1040,FEM,AGR,150,mula,la,a,0.4566,,737.3116,737.3116,0.166666667,-0.209635417,0,0,0,,0,239,239,139,1,,,,
,,,,,,0e5f4fb4bc650ade2db46a1e,66a626ef09d4e21e1a8894ec,67377f52f01bb5a37e177469,2024-11-15_18h05.50.611,Tarea de género gramatical,2024.2.2,Win32,59.88023952,,,,,,,,,,,,,,,,,,,,,,,,737.3127,738.449,a,1,[],[],[],[],[],[],[],0.4682,1,738.449,738.947,,,,,,1136,FEM,AGR,150,deuda,la,a,0.4682,,738.9482,738.9489,0.166666667,-0.209635417,0,0,0,,0,240,240,235,1,,,,
,,,,,,0e5f4fb4bc650ade2db46a1e,66a626ef09d4e21e1a8894ec,67377f52f01bb5a37e177469,2024-11-15_18h05.50.611,Tarea de género gramatical,2024.2.2,Win32,59.88023952,,,,,,,,,,,,,,,,,,,,,,,,738.9494,739.9563,a,1,[],[],[],[],[],[],[],0.3374,1,739.9564,740.4523,,,,,,969,FEM,CON,150,rata,,a,0.3374,,740.4523,740.4525,0.166666667,-0.209635417,0,0,0,,0,241,241,68,1,,,,
,,,,,,0e5f4fb4bc650ade2db46a1e,66a626ef09d4e21e1a8894ec,67377f52f01bb5a37e177469,2024-11-15_18h05.50.611,Tarea de género gramatical,2024.2.2,Win32,59.88023952,,,,,,,,,,,,,,,,,,,,,,,,740.4535,741.4786,l,1,[],[],[],[],[],[],[],0.3541,1,741.4786,741.9743,,,,,,1110,MAS,CON,150,baile,,l,0.3541,,741.9743,741.9745,0.166666667,-0.209635417,0,0,0,,0,242,242,209,1,,,,
,,,,,,0e5f4fb4bc650ade2db46a1e,66a626ef09d4e21e1a8894ec,67377f52f01bb5a37e177469,2024-11-15_18h05.50.611,Tarea de género gramatical,2024.2.2,Win32,59.88023952,,,,,,,,,,,,,,,,,,,,,,,,741.9758,743.0172,a,1,[],[],[],[],[],[],[],0.37,1,743.0173,743.5174,,,,,,979,FEM,DIS,150,mina,el,a,0.37,,743.5175,743.5175,0.166666667,-0.209635417,0,0,0,,0,243,243,78,1,,,,
,,,,,,0e5f4fb4bc650ade2db46a1e,66a626ef09d4e21e1a8894ec,67377f52f01bb5a37e177469,2024-11-15_18h05.50.611,Tarea de género gramatical,2024.2.2,Win32,59.88023952,,,,,,,,,,,,,,,,,,,,,,,,743.5186,744.5889,a,1,[],[],[],[],[],[],[],0.386,1,744.5889,745.0892,,,,,,962,FEM,AGR,150,sopa,la,a,0.386,,745.0892,745.0892,0.166666667,-0.209635417,0,0,0,,0,244,244,61,1,,,,
,,,,,,0e5f4fb4bc650ade2db46a1e,66a626ef09d4e21e1a8894ec,67377f52f01bb5a37e177469,2024-11-15_18h05.50.611,Tarea de género gramatical,2024.2.2,Win32,59.88023952,,,,,,,,,,,,,,,,,,,,,,,,745.0903,746.1131,l,1,[],[],[],[],[],[],[],0.3546,1,746.1132,746.6117,,,,,,1216,MAS,DIS,150,cuerpo,la,l,0.3546,,746.6129,746.6136,0.166666667,-0.209635417,0,0,0,,0,245,245,315,1,,,,
,,,,,,0e5f4fb4bc650ade2db46a1e,66a626ef09d4e21e1a8894ec,67377f52f01bb5a37e177469,2024-11-15_18h05.50.611,Tarea de género gramatical,2024.2.2,Win32,59.88023952,,,,,,,,,,,,,,,,,,,,,,,,746.6141,747.5684,a,1,[],[],[],[],[],[],[],0.2884,1,747.5685,748.0667,,,,,,1201,FEM,DIS,150,verdad,el,a,0.2884,,748.0668,748.0668,0.166666667,-0.209635417,0,0,0,,0,246,246,300,1,,,,
,,,,,,0e5f4fb4bc650ade2db46a1e,66a626ef09d4e21e1a8894ec,67377f52f01bb5a37e177469,2024-11-15_18h05.50.611,Tarea de género gramatical,2024.2.2,Win32,59.88023952,,,,,,,,,,,,,,,,,,,,,,,,748.0678,749.0502,a,1,[],[],[],[],[],[],[],0.3153,1,749.0503,749.5386,,,,,,931,FEM,DIS,150,edad,el,a,0.3153,,749.5387,749.5388,0.166666667,-0.209635417,0,0,0,,0,247,247,30,1,,,,
,,,,,,0e5f4fb4bc650ade2db46a1e,66a626ef09d4e21e1a8894ec,67377f52f01bb5a37e177469,2024-11-15_18h05.50.611,Tarea de género gramatical,2024.2.2,Win32,59.88023952,,,,,,,,,,,,,,,,,,,,,,,,749.5398,750.6954,l,1,[],[],[],[],[],[],[],0.4714,1,750.6954,751.1944,,,,,,1044,MAS,CON,150,amor,,l,0.4714,,751.1945,751.1946,0.166666667,-0.209635417,0,0,0,,0,248,248,143,1,,,,
,,,,,,0e5f4fb4bc650ade2db46a1e,66a626ef09d4e21e1a8894ec,67377f52f01bb5a37e177469,2024-11-15_18h05.50.611,Tarea de género gramatical,2024.2.2,Win32,59.88023952,,,,,,,,,,,,,,,,,,,,,,,,751.1957,752.4827,l,1,[],[],[],[],[],[],[],0.6204,1,752.4829,752.9845,,,,,,1236,MAS,CON,150,crimen,,l,0.6204,,752.9856,752.9863,0.166666667,-0.209635417,0,0,0,,0,249,249,335,1,,,,
,,,,,,0e5f4fb4bc650ade2db46a1e,66a626ef09d4e21e1a8894ec,67377f52f01bb5a37e177469,2024-11-15_18h05.50.611,Tarea de género gramatical,2024.2.2,Win32,59.88023952,,,,,,,,,,,,,,,,,,,,,,,,752.9872,753.9671,l,1,[],[],[],[],[],[],[],0.3033,1,753.9673,754.4556,,,,,,1086,MAS,CON,150,error,,l,0.3033,,754.4557,754.4558,0.166666667,-0.209635417,0,0,0,,0,250,250,185,1,,,,
