counterbalancing_condition,consent_prescreening.block_1/declare_consent,consent_prescreening.block_1/age_years,consent_prescreening.block_1/gender,consent_prescreening.block_1/language_disorder,consent_prescreening.block_1/first_language,PROLIFIC_PID,STUDY_ID,SESSION_ID,date,expName,psychopyVersion,OS,frameRate,check_prescreening_answers.started,check_prescreening_answers.stopped,Instructions.started,Instructions.stopped,instr_done_keyboard.keys,instr_done_keyboard.rt,instr_done_keyboard.duration,instr_done_touch.x,instr_done_touch.y,instr_done_touch.leftButton,instr_done_touch.midButton,instr_done_touch.rightButton,instruction_pages.thisRepN,instruction_pages.thisTrialN,instruction_pages.thisN,instruction_pages.thisIndex,instruction_pages.ran,pageN,phase,instruct_text,has_image,instruct_image,presentTrial.started,presentTrial.stopped,response.keys,response.corr,touch_resp.x,touch_resp.y,touch_resp.leftButton,touch_resp.midButton,touch_resp.rightButton,touch_resp.time,touch_resp.clicked_name,rt,corr,feedback.started,feedback.stopped,practice_trials.thisRepN,practice_trials.thisTrialN,practice_trials.thisN,practice_trials.thisIndex,practice_trials.ran,TrialID,StimulusType,Condition,PrimeDuration,Prime,Flanker,corrAns,response.rt,response.duration,Break.started,Break.stopped,break_done_touch.x,break_done_touch.y,break_done_touch.leftButton,break_done_touch.midButton,break_done_touch.rightButton,break_done_keyboard.keys,experiment_trials.thisRepN,experiment_trials.thisTrialN,experiment_trials.thisN,experiment_trials.thisIndex,experiment_trials.ran,break_done_keyboard.rt,break_done_keyboard.duration,End.started,End.stopped
2,"[""over_18"",""comfortable"",""read_info"",""consent_given""]",53,M,"[""none""]","[""spanish"",""english""]",0feda8bf7762d0a5039b6475,66a626ef09d4e21e1a8894ec,673497d09c2f4e932246753a,2024-11-13_13h14.05.088,Tarea de género gramatical,2024.2.2,Win32,60.24096386,,,,,,,,,,,,,,,,,,,,,,,,,,,,,,,,,,,,,,,,,,,,,,,,,,,,,,,,,,,,,,,,,,,,
,,,,,,0feda8bf7762d0a5039b6475,66a626ef09d4e21e1a8894ec,673497d09c2f4e932246753a,2024-11-13_13h14.05.088,Tarea de género gramatical,2024.2.2,Win32,60.24096386,78.8195,78.8198,,,,,,,,,,,,,,,,,,,,,,,,,,,,,,,,,,,,,,,,,,,,,,,,,,,,,,,,,,,,,,,,,,
,,,,,,0feda8bf7762d0a5039b6475,66a626ef09d4e21e1a8894ec,673497d09c2f4e932246753a,2024-11-13_13h14.05.088,Tarea de género gramatical,2024.2.2,Win32,60.24096386,,,78.8543,99.443,space,20.5615,,-0.427083333,-0.40625,0,0,0,0,0,0,0,1,1,instructions,"INSTRUCCIONES
Va a realizar una prueba de selección gramatical. Desde el comienzo de la prueba mire siempre al centro de la pantalla. Al cabo de un momento, aparecerán palabras. La tarea consiste en determinar si la palabra del centro (siempre será un sustantivo), pertenece al género masculino o femenino.

Pulse la tecla ESPACIO o toque el botón de abajo para continuar.",0,keyboardresponseFM.png,,,,,,,,,,,,,,,,,,,,,,,,,,,,,,,,,,,,,,,,,,,,,,
,,,,,,0feda8bf7762d0a5039b6475,66a626ef09d4e21e1a8894ec,673497d09c2f4e932246753a,2024-11-13_13h14.05.088,Tarea de género gramatical,2024.2.2,Win32,60.24096386,,,99.4478,125.9438,space,26.4328,,-0.427083333,-0.408854167,0,0,0,0,1,1,1,1,2,instructions,"Si su dispositivo tiene teclado, pulse la tecla ""A"" para las palabras en femenino (por ejemplo: ""mano"") y la tecla ""L"" para las palabras en masculino(por ejemplo: ""arroz"").
Pulse la tecla ESPACIO o toque el botón de abajo para continuar.",1,keyboardresponseFM.png,,,,,,,,,,,,,,,,,,,,,,,,,,,,,,,,,,,,,,,,,,,,,,
,,,,,,0feda8bf7762d0a5039b6475,66a626ef09d4e21e1a8894ec,673497d09c2f4e932246753a,2024-11-13_13h14.05.088,Tarea de género gramatical,2024.2.2,Win32,60.24096386,,,125.948,131.8774,space,5.8805,,-0.427083333,-0.408854167,0,0,0,0,2,2,2,1,3,instructions,"Si utiliza un dispositivo sólo táctil, colóquelo en horizontal y utilice los botones de la pantalla. No utilice el ratón.
Pulse la tecla ESPACIO o toque el botón de abajo para continuar.",2,touchresponseFM.png,,,,,,,,,,,,,,,,,,,,,,,,,,,,,,,,,,,,,,,,,,,,,,
,,,,,,0feda8bf7762d0a5039b6475,66a626ef09d4e21e1a8894ec,673497d09c2f4e932246753a,2024-11-13_13h14.05.088,Tarea de género gramatical,2024.2.2,Win32,60.24096386,,,131.8827,148.777,space,16.8813,,-0.427083333,-0.408854167,0,0,0,0,3,3,3,1,4,instructions,"Es muy importante que responda con la mayor rapidez y precisión posibles, ya que cada cadena de letras sólo estará en pantalla durante un instante. Si no responde en ese tiempo, aparecerá el mensaje ""Muy lento"" y el experimento pasará a la siguiente palabra. Los primeros 15 intentos serán de práctica y habrá dos descansos durante la prueba.
Pulse la tecla ESPACIO o toque el botón de abajo para iniciar la parte de práctica.",0,keyboardresponseFM.png,,,,,,,,,,,,,,,,,,,,,,,,,,,,,,,,,,,,,,,,,,,,,,
,,,,,,0feda8bf7762d0a5039b6475,66a626ef09d4e21e1a8894ec,673497d09c2f4e932246753a,2024-11-13_13h14.05.088,Tarea de género gramatical,2024.2.2,Win32,60.24096386,,,,,,,,,,,,,,,,,,,,,,,148.799,151.4446,,0,[],[],[],[],[],[],[],,-1,151.4452,151.9443,0,0,0,13,1,2014,MAS,CON,150,siglo,,l,,,,,,,,,,,,,,,,,,,
,,,,,,0feda8bf7762d0a5039b6475,66a626ef09d4e21e1a8894ec,673497d09c2f4e932246753a,2024-11-13_13h14.05.088,Tarea de género gramatical,2024.2.2,Win32,60.24096386,,,,,,,,,,,,,,,,,,,,,,,151.9474,154.0101,a,1,[],[],[],[],[],[],[],1.3908,1,154.0155,154.5107,0,1,1,1,1,2002,FEM,CON,150,pala,,a,1.3908,,,,,,,,,,,,,,,,,,
,,,,,,0feda8bf7762d0a5039b6475,66a626ef09d4e21e1a8894ec,673497d09c2f4e932246753a,2024-11-13_13h14.05.088,Tarea de género gramatical,2024.2.2,Win32,60.24096386,,,,,,,,,,,,,,,,,,,,,,,154.5141,155.9439,l,1,[],[],[],[],[],[],[],0.7572,1,155.9442,156.4433,0,2,2,12,1,2013,MAS,AGR,150,acero,el,l,0.7572,,,,,,,,,,,,,,,,,,
,,,,,,0feda8bf7762d0a5039b6475,66a626ef09d4e21e1a8894ec,673497d09c2f4e932246753a,2024-11-13_13h14.05.088,Tarea de género gramatical,2024.2.2,Win32,60.24096386,,,,,,,,,,,,,,,,,,,,,,,156.4462,157.7105,l,1,[],[],[],[],[],[],[],0.6007,1,157.7107,158.2103,0,3,3,9,1,2010,MAS,AGR,150,vecino,el,l,0.6007,,,,,,,,,,,,,,,,,,
,,,,,,0feda8bf7762d0a5039b6475,66a626ef09d4e21e1a8894ec,673497d09c2f4e932246753a,2024-11-13_13h14.05.088,Tarea de género gramatical,2024.2.2,Win32,60.24096386,,,,,,,,,,,,,,,,,,,,,,,158.2133,159.2944,a,0,[],[],[],[],[],[],[],0.4013,0,159.2971,159.7939,0,4,4,11,1,2012,MAS,DIS,150,clima,la,l,0.4013,,,,,,,,,,,,,,,,,,
,,,,,,0feda8bf7762d0a5039b6475,66a626ef09d4e21e1a8894ec,673497d09c2f4e932246753a,2024-11-13_13h14.05.088,Tarea de género gramatical,2024.2.2,Win32,60.24096386,,,,,,,,,,,,,,,,,,,,,,,159.797,161.0107,a,1,[],[],[],[],[],[],[],0.5341,1,161.0125,161.5102,0,5,5,3,1,2004,FEM,AGR,150,venta,la,a,0.5341,,,,,,,,,,,,,,,,,,
,,,,,,0feda8bf7762d0a5039b6475,66a626ef09d4e21e1a8894ec,673497d09c2f4e932246753a,2024-11-13_13h14.05.088,Tarea de género gramatical,2024.2.2,Win32,60.24096386,,,,,,,,,,,,,,,,,,,,,,,161.5129,162.6112,a,1,[],[],[],[],[],[],[],0.4178,1,162.6115,163.111,0,6,6,6,1,2007,FEM,AGR,150,navaja,la,a,0.4178,,,,,,,,,,,,,,,,,,
,,,,,,0feda8bf7762d0a5039b6475,66a626ef09d4e21e1a8894ec,673497d09c2f4e932246753a,2024-11-13_13h14.05.088,Tarea de género gramatical,2024.2.2,Win32,60.24096386,,,,,,,,,,,,,,,,,,,,,,,163.1139,164.0611,a,1,[],[],[],[],[],[],[],0.2741,1,164.0613,164.5611,0,7,7,0,1,2001,FEM,AGR,150,nuca,la,a,0.2741,,,,,,,,,,,,,,,,,,
,,,,,,0feda8bf7762d0a5039b6475,66a626ef09d4e21e1a8894ec,673497d09c2f4e932246753a,2024-11-13_13h14.05.088,Tarea de género gramatical,2024.2.2,Win32,60.24096386,,,,,,,,,,,,,,,,,,,,,,,164.5642,165.511,a,0,[],[],[],[],[],[],[],0.2689,0,165.5127,166.011,0,8,8,14,1,2015,MAS,DIS,150,robot,la,l,0.2689,,,,,,,,,,,,,,,,,,
,,,,,,0feda8bf7762d0a5039b6475,66a626ef09d4e21e1a8894ec,673497d09c2f4e932246753a,2024-11-13_13h14.05.088,Tarea de género gramatical,2024.2.2,Win32,60.24096386,,,,,,,,,,,,,,,,,,,,,,,166.0127,167.3772,a,1,[],[],[],[],[],[],[],0.6846,1,167.3788,167.8774,0,9,9,4,1,2005,FEM,CON,150,placa,,a,0.6846,,,,,,,,,,,,,,,,,,
,,,,,,0feda8bf7762d0a5039b6475,66a626ef09d4e21e1a8894ec,673497d09c2f4e932246753a,2024-11-13_13h14.05.088,Tarea de género gramatical,2024.2.2,Win32,60.24096386,,,,,,,,,,,,,,,,,,,,,,,167.8791,169.1599,l,0,[],[],[],[],[],[],[],0.604,0,169.161,169.66,0,10,10,5,1,2006,FEM,DIS,150,serie,el,a,0.604,,,,,,,,,,,,,,,,,,
,,,,,,0feda8bf7762d0a5039b6475,66a626ef09d4e21e1a8894ec,673497d09c2f4e932246753a,2024-11-13_13h14.05.088,Tarea de género gramatical,2024.2.2,Win32,60.24096386,,,,,,,,,,,,,,,,,,,,,,,169.6612,170.911,a,0,[],[],[],[],[],[],[],0.5845,0,170.9114,171.4112,0,11,11,8,1,2009,MAS,DIS,150,puerto,la,l,0.5845,,,,,,,,,,,,,,,,,,
,,,,,,0feda8bf7762d0a5039b6475,66a626ef09d4e21e1a8894ec,673497d09c2f4e932246753a,2024-11-13_13h14.05.088,Tarea de género gramatical,2024.2.2,Win32,60.24096386,,,,,,,,,,,,,,,,,,,,,,,171.4129,172.9444,l,0,[],[],[],[],[],[],[],0.8516,0,172.9446,173.4443,0,12,12,7,1,2008,FEM,CON,150,siesta,,a,0.8516,,,,,,,,,,,,,,,,,,
,,,,,,0feda8bf7762d0a5039b6475,66a626ef09d4e21e1a8894ec,673497d09c2f4e932246753a,2024-11-13_13h14.05.088,Tarea de género gramatical,2024.2.2,Win32,60.24096386,,,,,,,,,,,,,,,,,,,,,,,173.4476,176.0942,,0,[],[],[],[],[],[],[],0.8516,-1,176.0956,176.5949,0,13,13,2,1,2003,FEM,DIS,150,daga,el,a,,,,,,,,,,,,,,,,,,,
,,,,,,0feda8bf7762d0a5039b6475,66a626ef09d4e21e1a8894ec,673497d09c2f4e932246753a,2024-11-13_13h14.05.088,Tarea de género gramatical,2024.2.2,Win32,60.24096386,,,,,,,,,,,,,,,,,,,,,,,176.5968,178.294,l,1,[],[],[],[],[],[],[],1.0197,1,178.2952,178.7937,0,14,14,10,1,2011,MAS,CON,150,canal,,l,1.0197,,,,,,,,,,,,,,,,,,
,,,,,,0feda8bf7762d0a5039b6475,66a626ef09d4e21e1a8894ec,673497d09c2f4e932246753a,2024-11-13_13h14.05.088,Tarea de género gramatical,2024.2.2,Win32,60.24096386,,,186.5647,189.6438,space,3.0644,,-0.444010417,-0.3828125,0,0,0,,,,,,,,,,,189.6912,191.4274,a,1,[],[],[],[],[],[],[],1.072,1,191.4278,191.9276,,,,,,1190,FEM,AGR,150,cabra,la,a,1.072,,191.9283,191.9356,-0.444010417,-0.3828125,0,0,0,,0,0,0,289,1,,,,
,,,,,,0feda8bf7762d0a5039b6475,66a626ef09d4e21e1a8894ec,673497d09c2f4e932246753a,2024-11-13_13h14.05.088,Tarea de género gramatical,2024.2.2,Win32,60.24096386,,,,,,,,,,,,,,,,,,,,,,,191.9369,193.1274,l,1,[],[],[],[],[],[],[],0.5212,1,193.1278,193.6275,,,,,,1175,MAS,AGR,150,disco,el,l,0.5212,,193.6277,193.628,-0.444010417,-0.3828125,0,0,0,,0,1,1,274,1,,,,
,,,,,,0feda8bf7762d0a5039b6475,66a626ef09d4e21e1a8894ec,673497d09c2f4e932246753a,2024-11-13_13h14.05.088,Tarea de género gramatical,2024.2.2,Win32,60.24096386,,,,,,,,,,,,,,,,,,,,,,,193.6302,195.2612,l,0,[],[],[],[],[],[],[],0.952,0,195.2628,195.7613,,,,,,1167,FEM,CON,150,barba,,a,0.952,,195.7646,195.7658,-0.444010417,-0.3828125,0,0,0,,0,2,2,266,1,,,,
,,,,,,0feda8bf7762d0a5039b6475,66a626ef09d4e21e1a8894ec,673497d09c2f4e932246753a,2024-11-13_13h14.05.088,Tarea de género gramatical,2024.2.2,Win32,60.24096386,,,,,,,,,,,,,,,,,,,,,,,195.7668,197.5609,l,1,[],[],[],[],[],[],[],1.1239,1,197.5626,198.0613,,,,,,1110,MAS,CON,150,baile,,l,1.1239,,198.0614,198.0618,-0.444010417,-0.3828125,0,0,0,,0,3,3,209,1,,,,
,,,,,,0feda8bf7762d0a5039b6475,66a626ef09d4e21e1a8894ec,673497d09c2f4e932246753a,2024-11-13_13h14.05.088,Tarea de género gramatical,2024.2.2,Win32,60.24096386,,,,,,,,,,,,,,,,,,,,,,,198.0643,199.5615,a,0,[],[],[],[],[],[],[],0.8229,0,199.5631,200.0608,,,,,,1096,MAS,DIS,150,barco,la,l,0.8229,,200.0609,200.0613,-0.444010417,-0.3828125,0,0,0,,0,4,4,195,1,,,,
,,,,,,0feda8bf7762d0a5039b6475,66a626ef09d4e21e1a8894ec,673497d09c2f4e932246753a,2024-11-13_13h14.05.088,Tarea de género gramatical,2024.2.2,Win32,60.24096386,,,,,,,,,,,,,,,,,,,,,,,200.0641,201.5779,l,1,[],[],[],[],[],[],[],0.8446,1,201.5792,202.0776,,,,,,1235,MAS,AGR,150,montón,el,l,0.8446,,202.0778,202.0782,-0.444010417,-0.3828125,0,0,0,,0,5,5,334,1,,,,
,,,,,,0feda8bf7762d0a5039b6475,66a626ef09d4e21e1a8894ec,673497d09c2f4e932246753a,2024-11-13_13h14.05.088,Tarea de género gramatical,2024.2.2,Win32,60.24096386,,,,,,,,,,,,,,,,,,,,,,,202.0808,203.5116,a,1,[],[],[],[],[],[],[],0.7511,1,203.5118,204.0116,,,,,,1178,FEM,AGR,150,presa,la,a,0.7511,,204.0147,204.0159,-0.444010417,-0.3828125,0,0,0,,0,6,6,277,1,,,,
,,,,,,0feda8bf7762d0a5039b6475,66a626ef09d4e21e1a8894ec,673497d09c2f4e932246753a,2024-11-13_13h14.05.088,Tarea de género gramatical,2024.2.2,Win32,60.24096386,,,,,,,,,,,,,,,,,,,,,,,204.0171,205.4607,a,1,[],[],[],[],[],[],[],0.7771,1,205.4609,205.9613,,,,,,1113,FEM,CON,150,magia,,a,0.7771,,205.9615,205.9618,-0.444010417,-0.3828125,0,0,0,,0,7,7,212,1,,,,
,,,,,,0feda8bf7762d0a5039b6475,66a626ef09d4e21e1a8894ec,673497d09c2f4e932246753a,2024-11-13_13h14.05.088,Tarea de género gramatical,2024.2.2,Win32,60.24096386,,,,,,,,,,,,,,,,,,,,,,,205.9637,207.2106,l,1,[],[],[],[],[],[],[],0.5716,1,207.2107,207.7115,,,,,,1182,MAS,CON,150,bolso,,l,0.5716,,207.7117,207.712,-0.444010417,-0.3828125,0,0,0,,0,8,8,281,1,,,,
,,,,,,0feda8bf7762d0a5039b6475,66a626ef09d4e21e1a8894ec,673497d09c2f4e932246753a,2024-11-13_13h14.05.088,Tarea de género gramatical,2024.2.2,Win32,60.24096386,,,,,,,,,,,,,,,,,,,,,,,207.7145,208.9942,l,1,[],[],[],[],[],[],[],0.6029,1,208.9945,209.4943,,,,,,1271,MAS,AGR,150,sonido,el,l,0.6029,,209.4944,209.4948,-0.444010417,-0.3828125,0,0,0,,0,9,9,370,1,,,,
,,,,,,0feda8bf7762d0a5039b6475,66a626ef09d4e21e1a8894ec,673497d09c2f4e932246753a,2024-11-13_13h14.05.088,Tarea de género gramatical,2024.2.2,Win32,60.24096386,,,,,,,,,,,,,,,,,,,,,,,209.4973,211.2617,l,1,[],[],[],[],[],[],[],1.0888,1,211.2619,211.7605,,,,,,976,MAS,DIS,150,lujo,la,l,1.0888,,211.7606,211.7609,-0.444010417,-0.3828125,0,0,0,,0,10,10,75,1,,,,
,,,,,,0feda8bf7762d0a5039b6475,66a626ef09d4e21e1a8894ec,673497d09c2f4e932246753a,2024-11-13_13h14.05.088,Tarea de género gramatical,2024.2.2,Win32,60.24096386,,,,,,,,,,,,,,,,,,,,,,,211.7634,213.5944,l,1,[],[],[],[],[],[],[],1.1674,1,213.5947,214.0943,,,,,,1098,MAS,CON,150,hotel,,l,1.1674,,214.097,214.0981,-0.444010417,-0.3828125,0,0,0,,0,11,11,197,1,,,,
,,,,,,0feda8bf7762d0a5039b6475,66a626ef09d4e21e1a8894ec,673497d09c2f4e932246753a,2024-11-13_13h14.05.088,Tarea de género gramatical,2024.2.2,Win32,60.24096386,,,,,,,,,,,,,,,,,,,,,,,214.0991,215.9615,a,1,[],[],[],[],[],[],[],1.1871,1,215.9618,216.4618,,,,,,1093,FEM,DIS,150,bolsa,el,a,1.1871,,216.4619,216.4621,-0.444010417,-0.3828125,0,0,0,,0,12,12,192,1,,,,
,,,,,,0feda8bf7762d0a5039b6475,66a626ef09d4e21e1a8894ec,673497d09c2f4e932246753a,2024-11-13_13h14.05.088,Tarea de género gramatical,2024.2.2,Win32,60.24096386,,,,,,,,,,,,,,,,,,,,,,,216.4642,218.1116,l,1,[],[],[],[],[],[],[],0.9718,1,218.1119,218.6116,,,,,,996,MAS,CON,150,pato,,l,0.9718,,218.6118,218.612,-0.444010417,-0.3828125,0,0,0,,0,13,13,95,1,,,,
,,,,,,0feda8bf7762d0a5039b6475,66a626ef09d4e21e1a8894ec,673497d09c2f4e932246753a,2024-11-13_13h14.05.088,Tarea de género gramatical,2024.2.2,Win32,60.24096386,,,,,,,,,,,,,,,,,,,,,,,218.6137,220.6783,a,1,[],[],[],[],[],[],[],1.3964,1,220.6785,221.1777,,,,,,1201,FEM,DIS,150,verdad,el,a,1.3964,,221.1778,221.178,-0.444010417,-0.3828125,0,0,0,,0,14,14,300,1,,,,
,,,,,,0feda8bf7762d0a5039b6475,66a626ef09d4e21e1a8894ec,673497d09c2f4e932246753a,2024-11-13_13h14.05.088,Tarea de género gramatical,2024.2.2,Win32,60.24096386,,,,,,,,,,,,,,,,,,,,,,,221.1804,223.1947,a,0,[],[],[],[],[],[],[],1.3334,0,223.1961,223.6944,,,,,,1144,MAS,DIS,150,hielo,la,l,1.3334,,223.6975,223.6988,-0.444010417,-0.3828125,0,0,0,,0,15,15,243,1,,,,
,,,,,,0feda8bf7762d0a5039b6475,66a626ef09d4e21e1a8894ec,673497d09c2f4e932246753a,2024-11-13_13h14.05.088,Tarea de género gramatical,2024.2.2,Win32,60.24096386,,,,,,,,,,,,,,,,,,,,,,,223.7,225.5616,l,0,[],[],[],[],[],[],[],1.1838,0,225.5619,226.0618,,,,,,1021,FEM,DIS,150,pila,el,a,1.1838,,226.062,226.0622,-0.444010417,-0.3828125,0,0,0,,0,16,16,120,1,,,,
,,,,,,0feda8bf7762d0a5039b6475,66a626ef09d4e21e1a8894ec,673497d09c2f4e932246753a,2024-11-13_13h14.05.088,Tarea de género gramatical,2024.2.2,Win32,60.24096386,,,,,,,,,,,,,,,,,,,,,,,226.0652,227.6275,l,0,[],[],[],[],[],[],[],0.8829,0,227.6275,228.1279,,,,,,1269,FEM,CON,150,camisa,,a,0.8829,,228.128,228.1281,-0.444010417,-0.3828125,0,0,0,,0,17,17,368,1,,,,
,,,,,,0feda8bf7762d0a5039b6475,66a626ef09d4e21e1a8894ec,673497d09c2f4e932246753a,2024-11-13_13h14.05.088,Tarea de género gramatical,2024.2.2,Win32,60.24096386,,,,,,,,,,,,,,,,,,,,,,,228.131,229.9282,l,1,[],[],[],[],[],[],[],1.1181,1,229.9297,230.4281,,,,,,1318,MAS,DIS,150,pájaro,la,l,1.1181,,230.4282,230.4285,-0.444010417,-0.3828125,0,0,0,,0,18,18,417,1,,,,
,,,,,,0feda8bf7762d0a5039b6475,66a626ef09d4e21e1a8894ec,673497d09c2f4e932246753a,2024-11-13_13h14.05.088,Tarea de género gramatical,2024.2.2,Win32,60.24096386,,,,,,,,,,,,,,,,,,,,,,,230.4307,232.0945,a,0,[],[],[],[],[],[],[],0.9908,0,232.096,232.5949,,,,,,1090,MAS,DIS,150,campo,la,l,0.9908,,232.595,232.5953,-0.444010417,-0.3828125,0,0,0,,0,19,19,189,1,,,,
,,,,,,0feda8bf7762d0a5039b6475,66a626ef09d4e21e1a8894ec,673497d09c2f4e932246753a,2024-11-13_13h14.05.088,Tarea de género gramatical,2024.2.2,Win32,60.24096386,,,,,,,,,,,,,,,,,,,,,,,232.5985,234.5446,l,0,[],[],[],[],[],[],[],1.2685,0,234.5447,235.0442,,,,,,1106,FEM,AGR,150,época,la,a,1.2685,,235.0453,235.047,-0.444010417,-0.3828125,0,0,0,,0,20,20,205,1,,,,
,,,,,,0feda8bf7762d0a5039b6475,66a626ef09d4e21e1a8894ec,673497d09c2f4e932246753a,2024-11-13_13h14.05.088,Tarea de género gramatical,2024.2.2,Win32,60.24096386,,,,,,,,,,,,,,,,,,,,,,,235.0477,236.9782,a,1,[],[],[],[],[],[],[],1.2502,1,236.9796,237.4779,,,,,,1159,FEM,DIS,150,prima,el,a,1.2502,,237.478,237.4782,-0.444010417,-0.3828125,0,0,0,,0,21,21,258,1,,,,
,,,,,,0feda8bf7762d0a5039b6475,66a626ef09d4e21e1a8894ec,673497d09c2f4e932246753a,2024-11-13_13h14.05.088,Tarea de género gramatical,2024.2.2,Win32,60.24096386,,,,,,,,,,,,,,,,,,,,,,,237.4802,239.0116,a,1,[],[],[],[],[],[],[],0.854,1,239.0119,239.5119,,,,,,1112,FEM,AGR,150,cinta,la,a,0.854,,239.512,239.5123,-0.444010417,-0.3828125,0,0,0,,0,22,22,211,1,,,,
,,,,,,0feda8bf7762d0a5039b6475,66a626ef09d4e21e1a8894ec,673497d09c2f4e932246753a,2024-11-13_13h14.05.088,Tarea de género gramatical,2024.2.2,Win32,60.24096386,,,,,,,,,,,,,,,,,,,,,,,239.5139,241.0614,l,1,[],[],[],[],[],[],[],0.8673,1,241.0616,241.5617,,,,,,1348,MAS,DIS,150,aceite,la,l,0.8673,,241.5618,241.5621,-0.444010417,-0.3828125,0,0,0,,0,23,23,447,1,,,,
,,,,,,0feda8bf7762d0a5039b6475,66a626ef09d4e21e1a8894ec,673497d09c2f4e932246753a,2024-11-13_13h14.05.088,Tarea de género gramatical,2024.2.2,Win32,60.24096386,,,,,,,,,,,,,,,,,,,,,,,241.5651,243.1445,a,1,[],[],[],[],[],[],[],0.9092,1,243.1446,243.6446,,,,,,1256,FEM,AGR,150,piedra,la,a,0.9092,,243.6477,243.6489,-0.444010417,-0.3828125,0,0,0,,0,24,24,355,1,,,,
,,,,,,0feda8bf7762d0a5039b6475,66a626ef09d4e21e1a8894ec,673497d09c2f4e932246753a,2024-11-13_13h14.05.088,Tarea de género gramatical,2024.2.2,Win32,60.24096386,,,,,,,,,,,,,,,,,,,,,,,243.6499,245.0783,a,1,[],[],[],[],[],[],[],0.7513,1,245.0785,245.5784,,,,,,1149,FEM,CON,150,crema,,a,0.7513,,245.5785,245.5787,-0.444010417,-0.3828125,0,0,0,,0,25,25,248,1,,,,
,,,,,,0feda8bf7762d0a5039b6475,66a626ef09d4e21e1a8894ec,673497d09c2f4e932246753a,2024-11-13_13h14.05.088,Tarea de género gramatical,2024.2.2,Win32,60.24096386,,,,,,,,,,,,,,,,,,,,,,,245.5804,247.1945,a,1,[],[],[],[],[],[],[],0.9432,1,247.1947,247.6943,,,,,,1051,FEM,DIS,150,noche,el,a,0.9432,,247.6944,247.6945,-0.444010417,-0.3828125,0,0,0,,0,26,26,150,1,,,,
,,,,,,0feda8bf7762d0a5039b6475,66a626ef09d4e21e1a8894ec,673497d09c2f4e932246753a,2024-11-13_13h14.05.088,Tarea de género gramatical,2024.2.2,Win32,60.24096386,,,,,,,,,,,,,,,,,,,,,,,247.6959,249.0785,a,1,[],[],[],[],[],[],[],0.7034,1,249.0787,249.5784,,,,,,1280,FEM,AGR,150,madera,la,a,0.7034,,249.5785,249.5787,-0.444010417,-0.3828125,0,0,0,,0,27,27,379,1,,,,
,,,,,,0feda8bf7762d0a5039b6475,66a626ef09d4e21e1a8894ec,673497d09c2f4e932246753a,2024-11-13_13h14.05.088,Tarea de género gramatical,2024.2.2,Win32,60.24096386,,,,,,,,,,,,,,,,,,,,,,,249.5811,250.8449,l,1,[],[],[],[],[],[],[],0.5841,1,250.8451,251.345,,,,,,1236,MAS,CON,150,crimen,,l,0.5841,,251.3452,251.3453,-0.444010417,-0.3828125,0,0,0,,0,28,28,335,1,,,,
,,,,,,0feda8bf7762d0a5039b6475,66a626ef09d4e21e1a8894ec,673497d09c2f4e932246753a,2024-11-13_13h14.05.088,Tarea de género gramatical,2024.2.2,Win32,60.24096386,,,,,,,,,,,,,,,,,,,,,,,251.3471,252.8448,l,1,[],[],[],[],[],[],[],0.8175,1,252.8451,253.3448,,,,,,1054,MAS,DIS,150,padre,la,l,0.8175,,253.3478,253.349,-0.444010417,-0.3828125,0,0,0,,0,29,29,153,1,,,,
,,,,,,0feda8bf7762d0a5039b6475,66a626ef09d4e21e1a8894ec,673497d09c2f4e932246753a,2024-11-13_13h14.05.088,Tarea de género gramatical,2024.2.2,Win32,60.24096386,,,,,,,,,,,,,,,,,,,,,,,253.3502,255.4448,l,0,[],[],[],[],[],[],[],1.4205,0,255.4461,255.9451,,,,,,992,FEM,AGR,150,masa,la,a,1.4205,,255.9453,255.9455,-0.444010417,-0.3828125,0,0,0,,0,30,30,91,1,,,,
,,,,,,0feda8bf7762d0a5039b6475,66a626ef09d4e21e1a8894ec,673497d09c2f4e932246753a,2024-11-13_13h14.05.088,Tarea de género gramatical,2024.2.2,Win32,60.24096386,,,,,,,,,,,,,,,,,,,,,,,255.9477,257.4443,a,0,[],[],[],[],[],[],[],0.8191,0,257.4444,257.945,,,,,,1294,MAS,DIS,150,examen,la,l,0.8191,,257.9451,257.9453,-0.444010417,-0.3828125,0,0,0,,0,31,31,393,1,,,,
,,,,,,0feda8bf7762d0a5039b6475,66a626ef09d4e21e1a8894ec,673497d09c2f4e932246753a,2024-11-13_13h14.05.088,Tarea de género gramatical,2024.2.2,Win32,60.24096386,,,,,,,,,,,,,,,,,,,,,,,257.9467,259.8621,l,1,[],[],[],[],[],[],[],1.2436,1,259.8637,260.3619,,,,,,1012,MAS,DIS,150,reto,la,l,1.2436,,260.362,260.3623,-0.444010417,-0.3828125,0,0,0,,0,32,32,111,1,,,,
,,,,,,0feda8bf7762d0a5039b6475,66a626ef09d4e21e1a8894ec,673497d09c2f4e932246753a,2024-11-13_13h14.05.088,Tarea de género gramatical,2024.2.2,Win32,60.24096386,,,,,,,,,,,,,,,,,,,,,,,260.3654,261.8452,a,1,[],[],[],[],[],[],[],0.8111,1,261.8454,262.3451,,,,,,1329,FEM,CON,150,fianza,,a,0.8111,,262.3479,262.3491,-0.444010417,-0.3828125,0,0,0,,0,33,33,428,1,,,,
,,,,,,0feda8bf7762d0a5039b6475,66a626ef09d4e21e1a8894ec,673497d09c2f4e932246753a,2024-11-13_13h14.05.088,Tarea de género gramatical,2024.2.2,Win32,60.24096386,,,,,,,,,,,,,,,,,,,,,,,262.3502,264.2285,l,1,[],[],[],[],[],[],[],1.2081,1,264.2288,264.7286,,,,,,1049,MAS,AGR,150,nudo,el,l,1.2081,,264.7288,264.729,-0.444010417,-0.3828125,0,0,0,,0,34,34,148,1,,,,
,,,,,,0feda8bf7762d0a5039b6475,66a626ef09d4e21e1a8894ec,673497d09c2f4e932246753a,2024-11-13_13h14.05.088,Tarea de género gramatical,2024.2.2,Win32,60.24096386,,,,,,,,,,,,,,,,,,,,,,,264.7307,266.7289,a,1,[],[],[],[],[],[],[],1.3182,1,266.7292,267.2283,,,,,,985,FEM,DIS,150,gira,el,a,1.3182,,267.2285,267.2288,-0.444010417,-0.3828125,0,0,0,,0,35,35,84,1,,,,
,,,,,,0feda8bf7762d0a5039b6475,66a626ef09d4e21e1a8894ec,673497d09c2f4e932246753a,2024-11-13_13h14.05.088,Tarea de género gramatical,2024.2.2,Win32,60.24096386,,,,,,,,,,,,,,,,,,,,,,,267.2307,268.9619,l,0,[],[],[],[],[],[],[],1.0514,0,268.9636,269.4628,,,,,,1303,FEM,DIS,150,paliza,el,a,1.0514,,269.4629,269.463,-0.444010417,-0.3828125,0,0,0,,0,36,36,402,1,,,,
,,,,,,0feda8bf7762d0a5039b6475,66a626ef09d4e21e1a8894ec,673497d09c2f4e932246753a,2024-11-13_13h14.05.088,Tarea de género gramatical,2024.2.2,Win32,60.24096386,,,,,,,,,,,,,,,,,,,,,,,269.4656,271.7622,a,1,[],[],[],[],[],[],[],1.618,1,271.7637,272.2621,,,,,,925,FEM,DIS,150,nave,el,a,1.618,,272.2624,272.2625,-0.444010417,-0.3828125,0,0,0,,0,37,37,24,1,,,,
,,,,,,0feda8bf7762d0a5039b6475,66a626ef09d4e21e1a8894ec,673497d09c2f4e932246753a,2024-11-13_13h14.05.088,Tarea de género gramatical,2024.2.2,Win32,60.24096386,,,,,,,,,,,,,,,,,,,,,,,272.2648,273.8779,l,1,[],[],[],[],[],[],[],0.9422,1,273.878,274.379,,,,,,1133,MAS,AGR,150,golpe,el,l,0.9422,,274.3821,274.3832,-0.444010417,-0.3828125,0,0,0,,0,38,38,232,1,,,,
,,,,,,0feda8bf7762d0a5039b6475,66a626ef09d4e21e1a8894ec,673497d09c2f4e932246753a,2024-11-13_13h14.05.088,Tarea de género gramatical,2024.2.2,Win32,60.24096386,,,,,,,,,,,,,,,,,,,,,,,274.3844,276.295,a,1,[],[],[],[],[],[],[],1.2349,1,276.2953,276.7955,,,,,,1003,FEM,DIS,150,fama,el,a,1.2349,,276.7956,276.796,-0.444010417,-0.3828125,0,0,0,,0,39,39,102,1,,,,
,,,,,,0feda8bf7762d0a5039b6475,66a626ef09d4e21e1a8894ec,673497d09c2f4e932246753a,2024-11-13_13h14.05.088,Tarea de género gramatical,2024.2.2,Win32,60.24096386,,,,,,,,,,,,,,,,,,,,,,,276.7978,278.4452,l,1,[],[],[],[],[],[],[],0.9714,1,278.4454,278.9452,,,,,,946,MAS,DIS,150,odio,la,l,0.9714,,278.9453,278.9456,-0.444010417,-0.3828125,0,0,0,,0,40,40,45,1,,,,
,,,,,,0feda8bf7762d0a5039b6475,66a626ef09d4e21e1a8894ec,673497d09c2f4e932246753a,2024-11-13_13h14.05.088,Tarea de género gramatical,2024.2.2,Win32,60.24096386,,,,,,,,,,,,,,,,,,,,,,,278.9475,280.3951,a,1,[],[],[],[],[],[],[],0.7686,1,280.3954,280.8953,,,,,,975,FEM,CON,150,caza,,a,0.7686,,280.8954,280.8957,-0.444010417,-0.3828125,0,0,0,,0,41,41,74,1,,,,
,,,,,,0feda8bf7762d0a5039b6475,66a626ef09d4e21e1a8894ec,673497d09c2f4e932246753a,2024-11-13_13h14.05.088,Tarea de género gramatical,2024.2.2,Win32,60.24096386,,,,,,,,,,,,,,,,,,,,,,,280.8976,282.8121,l,1,[],[],[],[],[],[],[],1.2341,1,282.8123,283.3128,,,,,,1084,MAS,DIS,150,cielo,la,l,1.2341,,283.3153,283.3167,-0.444010417,-0.3828125,0,0,0,,0,42,42,183,1,,,,
,,,,,,0feda8bf7762d0a5039b6475,66a626ef09d4e21e1a8894ec,673497d09c2f4e932246753a,2024-11-13_13h14.05.088,Tarea de género gramatical,2024.2.2,Win32,60.24096386,,,,,,,,,,,,,,,,,,,,,,,283.3181,284.8125,l,1,[],[],[],[],[],[],[],0.8275,1,284.8127,285.3123,,,,,,1168,MAS,DIS,150,truco,la,l,0.8275,,285.3124,285.3127,-0.444010417,-0.3828125,0,0,0,,0,43,43,267,1,,,,
,,,,,,0feda8bf7762d0a5039b6475,66a626ef09d4e21e1a8894ec,673497d09c2f4e932246753a,2024-11-13_13h14.05.088,Tarea de género gramatical,2024.2.2,Win32,60.24096386,,,,,,,,,,,,,,,,,,,,,,,285.3148,286.9626,a,1,[],[],[],[],[],[],[],0.9719,1,286.9628,287.4626,,,,,,1340,FEM,AGR,150,patada,la,a,0.9719,,287.4627,287.463,-0.444010417,-0.3828125,0,0,0,,0,44,44,439,1,,,,
,,,,,,0feda8bf7762d0a5039b6475,66a626ef09d4e21e1a8894ec,673497d09c2f4e932246753a,2024-11-13_13h14.05.088,Tarea de género gramatical,2024.2.2,Win32,60.24096386,,,,,,,,,,,,,,,,,,,,,,,287.466,288.7125,a,1,[],[],[],[],[],[],[],0.5733,1,288.7125,289.2113,,,,,,969,FEM,CON,150,rata,,a,0.5733,,289.2114,289.2115,-0.444010417,-0.3828125,0,0,0,,0,45,45,68,1,,,,
,,,,,,0feda8bf7762d0a5039b6475,66a626ef09d4e21e1a8894ec,673497d09c2f4e932246753a,2024-11-13_13h14.05.088,Tarea de género gramatical,2024.2.2,Win32,60.24096386,,,,,,,,,,,,,,,,,,,,,,,289.2124,290.4954,l,1,[],[],[],[],[],[],[],0.6108,1,290.4956,290.9984,,,,,,1272,MAS,CON,150,delito,,l,0.6108,,290.9985,290.9985,-0.444010417,-0.3828125,0,0,0,,0,46,46,371,1,,,,
,,,,,,0feda8bf7762d0a5039b6475,66a626ef09d4e21e1a8894ec,673497d09c2f4e932246753a,2024-11-13_13h14.05.088,Tarea de género gramatical,2024.2.2,Win32,60.24096386,,,,,,,,,,,,,,,,,,,,,,,291.0005,293.2288,l,1,[],[],[],[],[],[],[],1.5536,1,293.229,293.7292,,,,,,1222,MAS,DIS,150,minuto,la,l,1.5536,,293.7318,293.7336,-0.444010417,-0.3828125,0,0,0,,0,47,47,321,1,,,,
,,,,,,0feda8bf7762d0a5039b6475,66a626ef09d4e21e1a8894ec,673497d09c2f4e932246753a,2024-11-13_13h14.05.088,Tarea de género gramatical,2024.2.2,Win32,60.24096386,,,,,,,,,,,,,,,,,,,,,,,293.7348,295.2621,a,1,[],[],[],[],[],[],[],0.8567,1,295.2623,295.7627,,,,,,1322,FEM,AGR,150,rutina,la,a,0.8567,,295.7628,295.763,-0.444010417,-0.3828125,0,0,0,,0,48,48,421,1,,,,
,,,,,,0feda8bf7762d0a5039b6475,66a626ef09d4e21e1a8894ec,673497d09c2f4e932246753a,2024-11-13_13h14.05.088,Tarea de género gramatical,2024.2.2,Win32,60.24096386,,,,,,,,,,,,,,,,,,,,,,,295.7647,297.2284,l,0,[],[],[],[],[],[],[],0.7845,0,297.2296,297.7289,,,,,,973,FEM,DIS,150,roca,el,a,0.7845,,297.729,297.7293,-0.444010417,-0.3828125,0,0,0,,0,49,49,72,1,,,,
,,,,,,0feda8bf7762d0a5039b6475,66a626ef09d4e21e1a8894ec,673497d09c2f4e932246753a,2024-11-13_13h14.05.088,Tarea de género gramatical,2024.2.2,Win32,60.24096386,,,,,,,,,,,,,,,,,,,,,,,297.7319,299.4293,l,1,[],[],[],[],[],[],[],1.0182,1,299.4305,299.9284,,,,,,929,MAS,AGR,150,frío,el,l,1.0182,,299.9285,299.9287,-0.444010417,-0.3828125,0,0,0,,0,50,50,28,1,,,,
,,,,,,0feda8bf7762d0a5039b6475,66a626ef09d4e21e1a8894ec,673497d09c2f4e932246753a,2024-11-13_13h14.05.088,Tarea de género gramatical,2024.2.2,Win32,60.24096386,,,,,,,,,,,,,,,,,,,,,,,299.9302,301.362,l,1,[],[],[],[],[],[],[],0.758,1,301.3624,301.8627,,,,,,1284,MAS,CON,150,pedazo,,l,0.758,,301.865,301.8666,-0.444010417,-0.3828125,0,0,0,,0,51,51,383,1,,,,
,,,,,,0feda8bf7762d0a5039b6475,66a626ef09d4e21e1a8894ec,673497d09c2f4e932246753a,2024-11-13_13h14.05.088,Tarea de género gramatical,2024.2.2,Win32,60.24096386,,,,,,,,,,,,,,,,,,,,,,,301.8681,303.3456,a,1,[],[],[],[],[],[],[],0.8024,1,303.3459,303.8457,,,,,,1017,FEM,CON,150,raya,,a,0.8024,,303.8458,303.8461,-0.444010417,-0.3828125,0,0,0,,0,52,52,116,1,,,,
,,,,,,0feda8bf7762d0a5039b6475,66a626ef09d4e21e1a8894ec,673497d09c2f4e932246753a,2024-11-13_13h14.05.088,Tarea de género gramatical,2024.2.2,Win32,60.24096386,,,,,,,,,,,,,,,,,,,,,,,303.8491,305.6787,l,0,[],[],[],[],[],[],[],1.1555,0,305.6804,306.1788,,,,,,1285,FEM,DIS,150,muñeca,el,a,1.1555,,306.179,306.1793,-0.444010417,-0.3828125,0,0,0,,0,53,53,384,1,,,,
,,,,,,0feda8bf7762d0a5039b6475,66a626ef09d4e21e1a8894ec,673497d09c2f4e932246753a,2024-11-13_13h14.05.088,Tarea de género gramatical,2024.2.2,Win32,60.24096386,,,,,,,,,,,,,,,,,,,,,,,306.181,308.0455,l,1,[],[],[],[],[],[],[],1.1847,1,308.0471,308.5463,,,,,,1313,MAS,AGR,150,diario,el,l,1.1847,,308.5464,308.5467,-0.444010417,-0.3828125,0,0,0,,0,54,54,412,1,,,,
,,,,,,0feda8bf7762d0a5039b6475,66a626ef09d4e21e1a8894ec,673497d09c2f4e932246753a,2024-11-13_13h14.05.088,Tarea de género gramatical,2024.2.2,Win32,60.24096386,,,,,,,,,,,,,,,,,,,,,,,308.5486,309.7795,a,1,[],[],[],[],[],[],[],0.5569,1,309.7799,310.2791,,,,,,1191,FEM,CON,150,aguja,,a,0.5569,,310.2793,310.2795,-0.444010417,-0.3828125,0,0,0,,0,55,55,290,1,,,,
,,,,,,0feda8bf7762d0a5039b6475,66a626ef09d4e21e1a8894ec,673497d09c2f4e932246753a,2024-11-13_13h14.05.088,Tarea de género gramatical,2024.2.2,Win32,60.24096386,,,,,,,,,,,,,,,,,,,,,,,310.2814,312.0461,l,1,[],[],[],[],[],[],[],1.0856,1,312.0463,312.5452,,,,,,911,MAS,AGR,150,país,el,l,1.0856,,312.5465,312.5481,-0.444010417,-0.3828125,0,0,0,,0,56,56,10,1,,,,
,,,,,,0feda8bf7762d0a5039b6475,66a626ef09d4e21e1a8894ec,673497d09c2f4e932246753a,2024-11-13_13h14.05.088,Tarea de género gramatical,2024.2.2,Win32,60.24096386,,,,,,,,,,,,,,,,,,,,,,,312.5488,313.8292,a,1,[],[],[],[],[],[],[],0.6018,1,313.8293,314.3293,,,,,,1203,FEM,CON,150,maldad,,a,0.6018,,314.3295,314.3297,-0.444010417,-0.3828125,0,0,0,,0,57,57,302,1,,,,
,,,,,,0feda8bf7762d0a5039b6475,66a626ef09d4e21e1a8894ec,673497d09c2f4e932246753a,2024-11-13_13h14.05.088,Tarea de género gramatical,2024.2.2,Win32,60.24096386,,,,,,,,,,,,,,,,,,,,,,,314.3319,315.7295,l,1,[],[],[],[],[],[],[],0.7184,1,315.7297,316.2293,,,,,,1115,MAS,AGR,150,hueso,el,l,0.7184,,316.2295,316.2297,-0.444010417,-0.3828125,0,0,0,,0,58,58,214,1,,,,
,,,,,,0feda8bf7762d0a5039b6475,66a626ef09d4e21e1a8894ec,673497d09c2f4e932246753a,2024-11-13_13h14.05.088,Tarea de género gramatical,2024.2.2,Win32,60.24096386,,,,,,,,,,,,,,,,,,,,,,,316.2314,317.5793,a,1,[],[],[],[],[],[],[],0.6674,1,317.5796,318.0795,,,,,,1130,FEM,AGR,150,regla,la,a,0.6674,,318.0797,318.0799,-0.444010417,-0.3828125,0,0,0,,0,59,59,229,1,,,,
,,,,,,0feda8bf7762d0a5039b6475,66a626ef09d4e21e1a8894ec,673497d09c2f4e932246753a,2024-11-13_13h14.05.088,Tarea de género gramatical,2024.2.2,Win32,60.24096386,,,,,,,,,,,,,,,,,,,,,,,318.0821,319.463,l,1,[],[],[],[],[],[],[],0.7066,1,319.4632,319.9629,,,,,,1162,MAS,DIS,150,video,la,l,0.7066,,319.9654,319.9672,-0.444010417,-0.3828125,0,0,0,,0,60,60,261,1,,,,
,,,,,,0feda8bf7762d0a5039b6475,66a626ef09d4e21e1a8894ec,673497d09c2f4e932246753a,2024-11-13_13h14.05.088,Tarea de género gramatical,2024.2.2,Win32,60.24096386,,,,,,,,,,,,,,,,,,,,,,,319.9683,321.3962,l,1,[],[],[],[],[],[],[],0.7577,1,321.3965,321.896,,,,,,1218,MAS,CON,150,pueblo,,l,0.7577,,321.8961,321.8964,-0.444010417,-0.3828125,0,0,0,,0,61,61,317,1,,,,
,,,,,,0feda8bf7762d0a5039b6475,66a626ef09d4e21e1a8894ec,673497d09c2f4e932246753a,2024-11-13_13h14.05.088,Tarea de género gramatical,2024.2.2,Win32,60.24096386,,,,,,,,,,,,,,,,,,,,,,,321.8985,323.3125,a,1,[],[],[],[],[],[],[],0.7346,1,323.3127,323.8129,,,,,,1015,FEM,DIS,150,seda,el,a,0.7346,,323.813,323.8133,-0.444010417,-0.3828125,0,0,0,,0,62,62,114,1,,,,
,,,,,,0feda8bf7762d0a5039b6475,66a626ef09d4e21e1a8894ec,673497d09c2f4e932246753a,2024-11-13_13h14.05.088,Tarea de género gramatical,2024.2.2,Win32,60.24096386,,,,,,,,,,,,,,,,,,,,,,,323.8153,325.2297,a,1,[],[],[],[],[],[],[],0.7341,1,325.2299,325.7293,,,,,,950,FEM,AGR,150,dama,la,a,0.7341,,325.7294,325.7297,-0.444010417,-0.3828125,0,0,0,,0,63,63,49,1,,,,
,,,,,,0feda8bf7762d0a5039b6475,66a626ef09d4e21e1a8894ec,673497d09c2f4e932246753a,2024-11-13_13h14.05.088,Tarea de género gramatical,2024.2.2,Win32,60.24096386,,,,,,,,,,,,,,,,,,,,,,,325.7317,327.0296,l,1,[],[],[],[],[],[],[],0.6232,1,327.0298,327.5291,,,,,,1246,MAS,DIS,150,juicio,la,l,0.6232,,327.5293,327.5295,-0.444010417,-0.3828125,0,0,0,,0,64,64,345,1,,,,
,,,,,,0feda8bf7762d0a5039b6475,66a626ef09d4e21e1a8894ec,673497d09c2f4e932246753a,2024-11-13_13h14.05.088,Tarea de género gramatical,2024.2.2,Win32,60.24096386,,,,,,,,,,,,,,,,,,,,,,,327.5314,329.0131,l,1,[],[],[],[],[],[],[],0.8087,1,329.0134,329.5125,,,,,,1349,MAS,AGR,150,payaso,el,l,0.8087,,329.5154,329.5165,-0.444010417,-0.3828125,0,0,0,,0,65,65,448,1,,,,
,,,,,,0feda8bf7762d0a5039b6475,66a626ef09d4e21e1a8894ec,673497d09c2f4e932246753a,2024-11-13_13h14.05.088,Tarea de género gramatical,2024.2.2,Win32,60.24096386,,,,,,,,,,,,,,,,,,,,,,,329.5177,330.7631,l,1,[],[],[],[],[],[],[],0.5677,1,330.7634,331.2631,,,,,,1326,MAS,CON,150,pánico,,l,0.5677,,331.2632,331.2634,-0.444010417,-0.3828125,0,0,0,,0,66,66,425,1,,,,
,,,,,,0feda8bf7762d0a5039b6475,66a626ef09d4e21e1a8894ec,673497d09c2f4e932246753a,2024-11-13_13h14.05.088,Tarea de género gramatical,2024.2.2,Win32,60.24096386,,,,,,,,,,,,,,,,,,,,,,,331.265,332.613,a,1,[],[],[],[],[],[],[],0.6683,1,332.6132,333.1131,,,,,,909,FEM,CON,150,mamá,,a,0.6683,,333.1132,333.1134,-0.444010417,-0.3828125,0,0,0,,0,67,67,8,1,,,,
,,,,,,0feda8bf7762d0a5039b6475,66a626ef09d4e21e1a8894ec,673497d09c2f4e932246753a,2024-11-13_13h14.05.088,Tarea de género gramatical,2024.2.2,Win32,60.24096386,,,,,,,,,,,,,,,,,,,,,,,333.1151,334.4795,l,1,[],[],[],[],[],[],[],0.6941,1,334.4797,334.9793,,,,,,1134,MAS,CON,150,héroe,,l,0.6941,,334.9794,334.9797,-0.444010417,-0.3828125,0,0,0,,0,68,68,233,1,,,,
,,,,,,0feda8bf7762d0a5039b6475,66a626ef09d4e21e1a8894ec,673497d09c2f4e932246753a,2024-11-13_13h14.05.088,Tarea de género gramatical,2024.2.2,Win32,60.24096386,,,,,,,,,,,,,,,,,,,,,,,334.9816,336.3457,a,1,[],[],[],[],[],[],[],0.6919,1,336.346,336.8459,,,,,,1063,FEM,DIS,150,calle,el,a,0.6919,,336.8479,336.8496,-0.444010417,-0.3828125,0,0,0,,0,69,69,162,1,,,,
,,,,,,0feda8bf7762d0a5039b6475,66a626ef09d4e21e1a8894ec,673497d09c2f4e932246753a,2024-11-13_13h14.05.088,Tarea de género gramatical,2024.2.2,Win32,60.24096386,,,,,,,,,,,,,,,,,,,,,,,336.8507,338.3298,l,1,[],[],[],[],[],[],[],0.8009,1,338.33,338.83,,,,,,1120,MAS,DIS,150,huevo,la,l,0.8009,,338.8301,338.8304,-0.444010417,-0.3828125,0,0,0,,0,70,70,219,1,,,,
,,,,,,0feda8bf7762d0a5039b6475,66a626ef09d4e21e1a8894ec,673497d09c2f4e932246753a,2024-11-13_13h14.05.088,Tarea de género gramatical,2024.2.2,Win32,60.24096386,,,,,,,,,,,,,,,,,,,,,,,338.8321,341.0288,l,1,[],[],[],[],[],[],[],1.5152,1,341.0289,341.5298,,,,,,917,MAS,AGR,150,modo,el,l,1.5152,,341.5299,341.5302,-0.444010417,-0.3828125,0,0,0,,0,71,71,16,1,,,,
,,,,,,0feda8bf7762d0a5039b6475,66a626ef09d4e21e1a8894ec,673497d09c2f4e932246753a,2024-11-13_13h14.05.088,Tarea de género gramatical,2024.2.2,Win32,60.24096386,,,,,,,,,,,,,,,,,,,,,,,341.5322,343.1465,l,1,[],[],[],[],[],[],[],0.9384,1,343.1466,343.6463,,,,,,1032,MAS,CON,150,velo,,l,0.9384,,343.6465,343.6468,-0.444010417,-0.3828125,0,0,0,,0,72,72,131,1,,,,
,,,,,,0feda8bf7762d0a5039b6475,66a626ef09d4e21e1a8894ec,673497d09c2f4e932246753a,2024-11-13_13h14.05.088,Tarea de género gramatical,2024.2.2,Win32,60.24096386,,,,,,,,,,,,,,,,,,,,,,,343.6487,344.996,a,1,[],[],[],[],[],[],[],0.6683,1,344.9962,345.4964,,,,,,1333,FEM,DIS,150,huella,el,a,0.6683,,345.4965,345.4969,-0.444010417,-0.3828125,0,0,0,,0,73,73,432,1,,,,
,,,,,,0feda8bf7762d0a5039b6475,66a626ef09d4e21e1a8894ec,673497d09c2f4e932246753a,2024-11-13_13h14.05.088,Tarea de género gramatical,2024.2.2,Win32,60.24096386,,,,,,,,,,,,,,,,,,,,,,,345.4986,347.0299,l,1,[],[],[],[],[],[],[],0.8513,1,347.0302,347.5298,,,,,,1295,MAS,AGR,150,correo,el,l,0.8513,,347.5318,347.5337,-0.444010417,-0.3828125,0,0,0,,0,74,74,394,1,,,,
,,,,,,0feda8bf7762d0a5039b6475,66a626ef09d4e21e1a8894ec,673497d09c2f4e932246753a,2024-11-13_13h14.05.088,Tarea de género gramatical,2024.2.2,Win32,60.24096386,,,,,,,,,,,,,,,,,,,,,,,347.5347,348.8467,l,1,[],[],[],[],[],[],[],0.6385,1,348.8471,349.3467,,,,,,965,MAS,AGR,150,rayo,el,l,0.6385,,349.3468,349.3473,-0.444010417,-0.3828125,0,0,0,,0,75,75,64,1,,,,
,,,,,,0feda8bf7762d0a5039b6475,66a626ef09d4e21e1a8894ec,673497d09c2f4e932246753a,2024-11-13_13h14.05.088,Tarea de género gramatical,2024.2.2,Win32,60.24096386,,,,,,,,,,,,,,,,,,,,,,,349.3495,350.7799,a,1,[],[],[],[],[],[],[],0.7518,1,350.7802,351.2803,,,,,,1339,FEM,DIS,150,toalla,el,a,0.7518,,351.2805,351.2806,-0.444010417,-0.3828125,0,0,0,,0,76,76,438,1,,,,
,,,,,,0feda8bf7762d0a5039b6475,66a626ef09d4e21e1a8894ec,673497d09c2f4e932246753a,2024-11-13_13h14.05.088,Tarea de género gramatical,2024.2.2,Win32,60.24096386,,,,,,,,,,,,,,,,,,,,,,,351.2824,352.6624,l,1,[],[],[],[],[],[],[],0.7103,1,352.6625,353.1628,,,,,,1176,MAS,CON,150,ritmo,,l,0.7103,,353.1629,353.1631,-0.444010417,-0.3828125,0,0,0,,0,77,77,275,1,,,,
,,,,,,0feda8bf7762d0a5039b6475,66a626ef09d4e21e1a8894ec,673497d09c2f4e932246753a,2024-11-13_13h14.05.088,Tarea de género gramatical,2024.2.2,Win32,60.24096386,,,,,,,,,,,,,,,,,,,,,,,353.1651,354.5624,a,1,[],[],[],[],[],[],[],0.7256,1,354.5626,355.0625,,,,,,1215,FEM,CON,150,manera,,a,0.7256,,355.0649,355.0661,-0.444010417,-0.3828125,0,0,0,,0,78,78,314,1,,,,
,,,,,,0feda8bf7762d0a5039b6475,66a626ef09d4e21e1a8894ec,673497d09c2f4e932246753a,2024-11-13_13h14.05.088,Tarea de género gramatical,2024.2.2,Win32,60.24096386,,,,,,,,,,,,,,,,,,,,,,,355.0671,356.3634,l,1,[],[],[],[],[],[],[],0.6176,1,356.3637,356.8635,,,,,,928,MAS,DIS,150,club,la,l,0.6176,,356.8637,356.8639,-0.444010417,-0.3828125,0,0,0,,0,79,79,27,1,,,,
,,,,,,0feda8bf7762d0a5039b6475,66a626ef09d4e21e1a8894ec,673497d09c2f4e932246753a,2024-11-13_13h14.05.088,Tarea de género gramatical,2024.2.2,Win32,60.24096386,,,,,,,,,,,,,,,,,,,,,,,356.8659,358.3628,a,1,[],[],[],[],[],[],[],0.8214,1,358.3632,358.8629,,,,,,1141,FEM,DIS,150,pasta,el,a,0.8214,,358.8631,358.8634,-0.444010417,-0.3828125,0,0,0,,0,80,80,240,1,,,,
,,,,,,0feda8bf7762d0a5039b6475,66a626ef09d4e21e1a8894ec,673497d09c2f4e932246753a,2024-11-13_13h14.05.088,Tarea de género gramatical,2024.2.2,Win32,60.24096386,,,,,,,,,,,,,,,,,,,,,,,358.8653,360.3132,l,1,[],[],[],[],[],[],[],0.7692,1,360.3134,360.8124,,,,,,953,MAS,AGR,150,vaso,el,l,0.7692,,360.8126,360.8128,-0.444010417,-0.3828125,0,0,0,,0,81,81,52,1,,,,
,,,,,,0feda8bf7762d0a5039b6475,66a626ef09d4e21e1a8894ec,673497d09c2f4e932246753a,2024-11-13_13h14.05.088,Tarea de género gramatical,2024.2.2,Win32,60.24096386,,,,,,,,,,,,,,,,,,,,,,,360.8145,362.1627,l,1,[],[],[],[],[],[],[],0.6685,1,362.1628,362.6633,,,,,,1229,MAS,AGR,150,futuro,el,l,0.6685,,362.6635,362.6639,-0.444010417,-0.3828125,0,0,0,,0,82,82,328,1,,,,
,,,,,,0feda8bf7762d0a5039b6475,66a626ef09d4e21e1a8894ec,673497d09c2f4e932246753a,2024-11-13_13h14.05.088,Tarea de género gramatical,2024.2.2,Win32,60.24096386,,,,,,,,,,,,,,,,,,,,,,,362.6659,364.0294,l,1,[],[],[],[],[],[],[],0.6835,1,364.0295,364.5292,,,,,,1109,MAS,AGR,150,banco,el,l,0.6835,,364.531,364.5327,-0.444010417,-0.3828125,0,0,0,,0,83,83,208,1,,,,
,,,,,,0feda8bf7762d0a5039b6475,66a626ef09d4e21e1a8894ec,673497d09c2f4e932246753a,2024-11-13_13h14.05.088,Tarea de género gramatical,2024.2.2,Win32,60.24096386,,,,,,,,,,,,,,,,,,,,,,,364.5336,365.8131,a,1,[],[],[],[],[],[],[],0.6025,1,365.8134,366.3131,,,,,,1111,FEM,DIS,150,salud,el,a,0.6025,,366.3132,366.3135,-0.444010417,-0.3828125,0,0,0,,0,84,84,210,1,,,,
,,,,,,0feda8bf7762d0a5039b6475,66a626ef09d4e21e1a8894ec,673497d09c2f4e932246753a,2024-11-13_13h14.05.088,Tarea de género gramatical,2024.2.2,Win32,60.24096386,,,,,,,,,,,,,,,,,,,,,,,366.3174,368.1627,a,1,[],[],[],[],[],[],[],1.1761,1,368.1629,368.6633,,,,,,1184,FEM,AGR,150,fruta,la,a,1.1761,,368.6634,368.6636,-0.444010417,-0.3828125,0,0,0,,0,85,85,283,1,,,,
,,,,,,0feda8bf7762d0a5039b6475,66a626ef09d4e21e1a8894ec,673497d09c2f4e932246753a,2024-11-13_13h14.05.088,Tarea de género gramatical,2024.2.2,Win32,60.24096386,,,,,,,,,,,,,,,,,,,,,,,368.6655,369.9302,l,1,[],[],[],[],[],[],[],0.5948,1,369.9304,370.4293,,,,,,1066,MAS,DIS,150,coche,la,l,0.5948,,370.4294,370.4295,-0.444010417,-0.3828125,0,0,0,,0,86,86,165,1,,,,
,,,,,,0feda8bf7762d0a5039b6475,66a626ef09d4e21e1a8894ec,673497d09c2f4e932246753a,2024-11-13_13h14.05.088,Tarea de género gramatical,2024.2.2,Win32,60.24096386,,,,,,,,,,,,,,,,,,,,,,,370.4308,371.9302,a,1,[],[],[],[],[],[],[],0.8337,1,371.9304,372.43,,,,,,1016,FEM,AGR,150,nube,la,a,0.8337,,372.4321,372.4339,-0.444010417,-0.3828125,0,0,0,,0,87,87,115,1,,,,
,,,,,,0feda8bf7762d0a5039b6475,66a626ef09d4e21e1a8894ec,673497d09c2f4e932246753a,2024-11-13_13h14.05.088,Tarea de género gramatical,2024.2.2,Win32,60.24096386,,,,,,,,,,,,,,,,,,,,,,,372.435,373.6798,l,1,[],[],[],[],[],[],[],0.5676,1,373.68,374.1803,,,,,,906,MAS,CON,150,lado,,l,0.5676,,374.1804,374.1807,-0.444010417,-0.3828125,0,0,0,,0,88,88,5,1,,,,
,,,,,,0feda8bf7762d0a5039b6475,66a626ef09d4e21e1a8894ec,673497d09c2f4e932246753a,2024-11-13_13h14.05.088,Tarea de género gramatical,2024.2.2,Win32,60.24096386,,,,,,,,,,,,,,,,,,,,,,,374.1827,375.4964,l,1,[],[],[],[],[],[],[],0.6366,1,375.4969,375.9964,,,,,,1194,MAS,CON,150,cable,,l,0.6366,,375.9965,375.9967,-0.444010417,-0.3828125,0,0,0,,0,89,89,293,1,,,,
,,,,,,0feda8bf7762d0a5039b6475,66a626ef09d4e21e1a8894ec,673497d09c2f4e932246753a,2024-11-13_13h14.05.088,Tarea de género gramatical,2024.2.2,Win32,60.24096386,,,,,,,,,,,,,,,,,,,,,,,375.9985,377.3301,l,1,[],[],[],[],[],[],[],0.6512,1,377.3303,377.8302,,,,,,1002,MAS,CON,150,coro,,l,0.6512,,377.8303,377.8304,-0.444010417,-0.3828125,0,0,0,,0,90,90,101,1,,,,
,,,,,,0feda8bf7762d0a5039b6475,66a626ef09d4e21e1a8894ec,673497d09c2f4e932246753a,2024-11-13_13h14.05.088,Tarea de género gramatical,2024.2.2,Win32,60.24096386,,,,,,,,,,,,,,,,,,,,,,,377.8322,379.0465,a,1,[],[],[],[],[],[],[],0.535,1,379.0467,379.5472,,,,,,1143,FEM,CON,150,salsa,,a,0.535,,379.5473,379.5475,-0.444010417,-0.3828125,0,0,0,,0,91,91,242,1,,,,
,,,,,,0feda8bf7762d0a5039b6475,66a626ef09d4e21e1a8894ec,673497d09c2f4e932246753a,2024-11-13_13h14.05.088,Tarea de género gramatical,2024.2.2,Win32,60.24096386,,,,,,,,,,,,,,,,,,,,,,,379.5495,381.2131,a,1,[],[],[],[],[],[],[],0.984,1,381.2133,381.713,,,,,,1076,FEM,AGR,150,línea,la,a,0.984,,381.715,381.7169,-0.444010417,-0.3828125,0,0,0,,0,92,92,175,1,,,,
,,,,,,0feda8bf7762d0a5039b6475,66a626ef09d4e21e1a8894ec,673497d09c2f4e932246753a,2024-11-13_13h14.05.088,Tarea de género gramatical,2024.2.2,Win32,60.24096386,,,,,,,,,,,,,,,,,,,,,,,381.7179,383.1134,a,1,[],[],[],[],[],[],[],0.7178,1,383.1137,383.6133,,,,,,1195,FEM,DIS,150,grasa,el,a,0.7178,,383.6135,383.6138,-0.444010417,-0.3828125,0,0,0,,0,93,93,294,1,,,,
,,,,,,0feda8bf7762d0a5039b6475,66a626ef09d4e21e1a8894ec,673497d09c2f4e932246753a,2024-11-13_13h14.05.088,Tarea de género gramatical,2024.2.2,Win32,60.24096386,,,,,,,,,,,,,,,,,,,,,,,383.6153,385.2634,a,1,[],[],[],[],[],[],[],0.973,1,385.2636,385.7634,,,,,,1316,FEM,AGR,150,colina,la,a,0.973,,385.7635,385.7638,-0.444010417,-0.3828125,0,0,0,,0,94,94,415,1,,,,
,,,,,,0feda8bf7762d0a5039b6475,66a626ef09d4e21e1a8894ec,673497d09c2f4e932246753a,2024-11-13_13h14.05.088,Tarea de género gramatical,2024.2.2,Win32,60.24096386,,,,,,,,,,,,,,,,,,,,,,,385.766,387.1466,a,1,[],[],[],[],[],[],[],0.7009,1,387.1467,387.6465,,,,,,1255,FEM,DIS,150,mirada,el,a,0.7009,,387.6466,387.647,-0.444010417,-0.3828125,0,0,0,,0,95,95,354,1,,,,
,,,,,,0feda8bf7762d0a5039b6475,66a626ef09d4e21e1a8894ec,673497d09c2f4e932246753a,2024-11-13_13h14.05.088,Tarea de género gramatical,2024.2.2,Win32,60.24096386,,,,,,,,,,,,,,,,,,,,,,,387.6486,388.9967,a,1,[],[],[],[],[],[],[],0.6726,1,388.9968,389.4966,,,,,,1147,FEM,DIS,150,frase,el,a,0.6726,,389.4987,389.5005,-0.444010417,-0.3828125,0,0,0,,0,96,96,246,1,,,,
,,,,,,0feda8bf7762d0a5039b6475,66a626ef09d4e21e1a8894ec,673497d09c2f4e932246753a,2024-11-13_13h14.05.088,Tarea de género gramatical,2024.2.2,Win32,60.24096386,,,,,,,,,,,,,,,,,,,,,,,389.5017,391.3466,l,1,[],[],[],[],[],[],[],1.1669,1,391.347,391.8471,,,,,,1302,MAS,CON,150,ladrón,,l,1.1669,,391.8472,391.8476,-0.444010417,-0.3828125,0,0,0,,0,97,97,401,1,,,,
,,,,,,0feda8bf7762d0a5039b6475,66a626ef09d4e21e1a8894ec,673497d09c2f4e932246753a,2024-11-13_13h14.05.088,Tarea de género gramatical,2024.2.2,Win32,60.24096386,,,,,,,,,,,,,,,,,,,,,,,391.8497,393.3304,a,1,[],[],[],[],[],[],[],0.8008,1,393.3306,393.8304,,,,,,1028,FEM,AGR,150,leña,la,a,0.8008,,393.8304,393.8306,-0.444010417,-0.3828125,0,0,0,,0,98,98,127,1,,,,
,,,,,,0feda8bf7762d0a5039b6475,66a626ef09d4e21e1a8894ec,673497d09c2f4e932246753a,2024-11-13_13h14.05.088,Tarea de género gramatical,2024.2.2,Win32,60.24096386,,,,,,,,,,,,,,,,,,,,,,,393.8326,395.3804,l,1,[],[],[],[],[],[],[],0.8686,1,395.3806,395.8806,,,,,,990,MAS,CON,150,león,,l,0.8686,,395.8807,395.881,-0.444010417,-0.3828125,0,0,0,,0,99,99,89,1,,,,
,,,,,,0feda8bf7762d0a5039b6475,66a626ef09d4e21e1a8894ec,673497d09c2f4e932246753a,2024-11-13_13h14.05.088,Tarea de género gramatical,2024.2.2,Win32,60.24096386,,,,,,,,,,,,,,,,,,,,,,,395.8829,397.3136,a,1,[],[],[],[],[],[],[],0.7501,1,397.3137,397.8135,,,,,,1053,FEM,CON,150,mujer,,a,0.7501,,397.8136,397.8139,-0.444010417,-0.3828125,0,0,0,,0,100,100,152,1,,,,
,,,,,,0feda8bf7762d0a5039b6475,66a626ef09d4e21e1a8894ec,673497d09c2f4e932246753a,2024-11-13_13h14.05.088,Tarea de género gramatical,2024.2.2,Win32,60.24096386,,,,,,,,,,,,,,,,,,,,,,,397.8157,399.43,l,1,[],[],[],[],[],[],[],0.9425,1,399.4302,399.93,,,,,,1282,MAS,DIS,150,teatro,la,l,0.9425,,399.9324,399.934,-0.444010417,-0.3828125,0,0,0,,0,101,101,381,1,,,,
,,,,,,0feda8bf7762d0a5039b6475,66a626ef09d4e21e1a8894ec,673497d09c2f4e932246753a,2024-11-13_13h14.05.088,Tarea de género gramatical,2024.2.2,Win32,60.24096386,,,,,,,,,,,,,,,,,,,,,,,399.9351,401.2133,l,1,[],[],[],[],[],[],[],0.5997,1,401.2134,401.7139,,,,,,1230,MAS,CON,150,estado,,l,0.5997,,401.714,401.7143,-0.444010417,-0.3828125,0,0,0,,0,102,102,329,1,,,,
,,,,,,0feda8bf7762d0a5039b6475,66a626ef09d4e21e1a8894ec,673497d09c2f4e932246753a,2024-11-13_13h14.05.088,Tarea de género gramatical,2024.2.2,Win32,60.24096386,,,,,,,,,,,,,,,,,,,,,,,401.716,403.5808,l,1,[],[],[],[],[],[],[],1.1923,1,403.5809,404.0801,,,,,,1102,MAS,DIS,150,honor,la,l,1.1923,,404.0803,404.0805,-0.444010417,-0.3828125,0,0,0,,0,103,103,201,1,,,,
,,,,,,0feda8bf7762d0a5039b6475,66a626ef09d4e21e1a8894ec,673497d09c2f4e932246753a,2024-11-13_13h14.05.088,Tarea de género gramatical,2024.2.2,Win32,60.24096386,,,,,,,,,,,,,,,,,,,,,,,404.0828,405.431,l,1,[],[],[],[],[],[],[],0.6693,1,405.4311,405.9305,,,,,,1043,MAS,AGR,150,faro,el,l,0.6693,,405.9306,405.9308,-0.444010417,-0.3828125,0,0,0,,0,104,104,142,1,,,,
,,,,,,0feda8bf7762d0a5039b6475,66a626ef09d4e21e1a8894ec,673497d09c2f4e932246753a,2024-11-13_13h14.05.088,Tarea de género gramatical,2024.2.2,Win32,60.24096386,,,,,,,,,,,,,,,,,,,,,,,405.9328,407.247,a,1,[],[],[],[],[],[],[],0.6404,1,407.2472,407.7471,,,,,,1075,FEM,DIS,150,señal,el,a,0.6404,,407.7491,407.7509,-0.444010417,-0.3828125,0,0,0,,0,105,105,174,1,,,,
,,,,,,0feda8bf7762d0a5039b6475,66a626ef09d4e21e1a8894ec,673497d09c2f4e932246753a,2024-11-13_13h14.05.088,Tarea de género gramatical,2024.2.2,Win32,60.24096386,,,,,,,,,,,,,,,,,,,,,,,407.7522,409.28,a,1,[],[],[],[],[],[],[],0.8506,1,409.2803,409.7807,,,,,,1292,FEM,AGR,150,maleta,la,a,0.8506,,409.7808,409.7811,-0.444010417,-0.3828125,0,0,0,,0,106,106,391,1,,,,
,,,,,,0feda8bf7762d0a5039b6475,66a626ef09d4e21e1a8894ec,673497d09c2f4e932246753a,2024-11-13_13h14.05.088,Tarea de género gramatical,2024.2.2,Win32,60.24096386,,,,,,,,,,,,,,,,,,,,,,,409.7832,411.1304,l,1,[],[],[],[],[],[],[],0.6672,1,411.1306,411.6307,,,,,,1247,MAS,AGR,150,cuello,el,l,0.6672,,411.6308,411.631,-0.444010417,-0.3828125,0,0,0,,0,107,107,346,1,,,,
,,,,,,0feda8bf7762d0a5039b6475,66a626ef09d4e21e1a8894ec,673497d09c2f4e932246753a,2024-11-13_13h14.05.088,Tarea de género gramatical,2024.2.2,Win32,60.24096386,,,,,,,,,,,,,,,,,,,,,,,411.6329,412.997,l,1,[],[],[],[],[],[],[],0.6837,1,412.9972,413.4967,,,,,,1278,MAS,CON,150,pastel,,l,0.6837,,413.4968,413.4972,-0.444010417,-0.3828125,0,0,0,,0,108,108,377,1,,,,
,,,,,,0feda8bf7762d0a5039b6475,66a626ef09d4e21e1a8894ec,673497d09c2f4e932246753a,2024-11-13_13h14.05.088,Tarea de género gramatical,2024.2.2,Win32,60.24096386,,,,,,,,,,,,,,,,,,,,,,,413.4987,414.7805,l,1,[],[],[],[],[],[],[],0.6059,1,414.7808,415.2807,,,,,,1157,MAS,AGR,150,pecho,el,l,0.6059,,415.2807,415.2808,-0.444010417,-0.3828125,0,0,0,,0,109,109,256,1,,,,
,,,,,,0feda8bf7762d0a5039b6475,66a626ef09d4e21e1a8894ec,673497d09c2f4e932246753a,2024-11-13_13h14.05.088,Tarea de género gramatical,2024.2.2,Win32,60.24096386,,,,,,,,,,,,,,,,,,,,,,,415.2827,416.5468,a,1,[],[],[],[],[],[],[],0.5848,1,416.547,417.0471,,,,,,1286,FEM,AGR,150,sombra,la,a,0.5848,,417.0489,417.0507,-0.444010417,-0.3828125,0,0,0,,0,110,110,385,1,,,,
,,,,,,0feda8bf7762d0a5039b6475,66a626ef09d4e21e1a8894ec,673497d09c2f4e932246753a,2024-11-13_13h14.05.088,Tarea de género gramatical,2024.2.2,Win32,60.24096386,,,,,,,,,,,,,,,,,,,,,,,417.0519,418.4964,l,1,[],[],[],[],[],[],[],0.7734,1,418.4965,418.9964,,,,,,1055,MAS,AGR,150,mundo,el,l,0.7734,,418.9964,418.9965,-0.444010417,-0.3828125,0,0,0,,0,111,111,154,1,,,,
,,,,,,0feda8bf7762d0a5039b6475,66a626ef09d4e21e1a8894ec,673497d09c2f4e932246753a,2024-11-13_13h14.05.088,Tarea de género gramatical,2024.2.2,Win32,60.24096386,,,,,,,,,,,,,,,,,,,,,,,418.9977,420.4135,l,1,[],[],[],[],[],[],[],0.7403,1,420.4138,420.9144,,,,,,1037,MAS,AGR,150,coco,el,l,0.7403,,420.9144,420.9145,-0.444010417,-0.3828125,0,0,0,,0,112,112,136,1,,,,
,,,,,,0feda8bf7762d0a5039b6475,66a626ef09d4e21e1a8894ec,673497d09c2f4e932246753a,2024-11-13_13h14.05.088,Tarea de género gramatical,2024.2.2,Win32,60.24096386,,,,,,,,,,,,,,,,,,,,,,,420.9162,422.0309,l,1,[],[],[],[],[],[],[],0.4359,1,422.0311,422.5304,,,,,,930,MAS,CON,150,cine,,l,0.4359,,422.5306,422.531,-0.444010417,-0.3828125,0,0,0,,0,113,113,29,1,,,,
,,,,,,0feda8bf7762d0a5039b6475,66a626ef09d4e21e1a8894ec,673497d09c2f4e932246753a,2024-11-13_13h14.05.088,Tarea de género gramatical,2024.2.2,Win32,60.24096386,,,,,,,,,,,,,,,,,,,,,,,422.5327,423.7633,a,0,[],[],[],[],[],[],[],0.5602,0,423.7648,424.264,,,,,,1186,MAS,DIS,150,reino,la,l,0.5602,,424.266,424.2679,-0.444010417,-0.3828125,0,0,0,,0,114,114,285,1,,,,
,,,,,,0feda8bf7762d0a5039b6475,66a626ef09d4e21e1a8894ec,673497d09c2f4e932246753a,2024-11-13_13h14.05.088,Tarea de género gramatical,2024.2.2,Win32,60.24096386,,,,,,,,,,,,,,,,,,,,,,,424.2689,425.814,a,0,[],[],[],[],[],[],[],0.8775,0,425.8141,426.3141,,,,,,1146,MAS,CON,150,humor,,l,0.8775,,426.3142,426.3145,-0.444010417,-0.3828125,0,0,0,,0,115,115,245,1,,,,
,,,,,,0feda8bf7762d0a5039b6475,66a626ef09d4e21e1a8894ec,673497d09c2f4e932246753a,2024-11-13_13h14.05.088,Tarea de género gramatical,2024.2.2,Win32,60.24096386,,,,,,,,,,,,,,,,,,,,,,,426.316,427.8638,a,1,[],[],[],[],[],[],[],0.8725,1,427.8652,428.3639,,,,,,1155,FEM,CON,150,tribu,,a,0.8725,,428.3641,428.3643,-0.444010417,-0.3828125,0,0,0,,0,116,116,254,1,,,,
,,,,,,0feda8bf7762d0a5039b6475,66a626ef09d4e21e1a8894ec,673497d09c2f4e932246753a,2024-11-13_13h14.05.088,Tarea de género gramatical,2024.2.2,Win32,60.24096386,,,,,,,,,,,,,,,,,,,,,,,428.3666,429.647,a,1,[],[],[],[],[],[],[],0.6005,1,429.6472,430.1476,,,,,,933,FEM,CON,150,boda,,a,0.6005,,430.1477,430.148,-0.444010417,-0.3828125,0,0,0,,0,117,117,32,1,,,,
,,,,,,0feda8bf7762d0a5039b6475,66a626ef09d4e21e1a8894ec,673497d09c2f4e932246753a,2024-11-13_13h14.05.088,Tarea de género gramatical,2024.2.2,Win32,60.24096386,,,,,,,,,,,,,,,,,,,,,,,430.1499,431.4133,l,0,[],[],[],[],[],[],[],0.5868,0,431.4142,431.9144,,,,,,1298,FEM,AGR,150,hierba,la,a,0.5868,,431.9145,431.9147,-0.444010417,-0.3828125,0,0,0,,0,118,118,397,1,,,,
,,,,,,0feda8bf7762d0a5039b6475,66a626ef09d4e21e1a8894ec,673497d09c2f4e932246753a,2024-11-13_13h14.05.088,Tarea de género gramatical,2024.2.2,Win32,60.24096386,,,,,,,,,,,,,,,,,,,,,,,431.9169,433.3304,a,1,[],[],[],[],[],[],[],0.7375,1,433.3316,433.83,,,,,,1233,FEM,CON,150,locura,,a,0.7375,,433.832,433.8334,-0.444010417,-0.3828125,0,0,0,,0,119,119,332,1,,,,
,,,,,,0feda8bf7762d0a5039b6475,66a626ef09d4e21e1a8894ec,673497d09c2f4e932246753a,2024-11-13_13h14.05.088,Tarea de género gramatical,2024.2.2,Win32,60.24096386,,,,,,,,,,,,,,,,,,,,,,,433.8344,435.2641,a,1,[],[],[],[],[],[],[],0.7513,1,435.2643,435.7643,,,,,,1345,FEM,DIS,150,bondad,el,a,0.7513,,435.7643,435.7646,-0.444010417,-0.3828125,0,0,0,,0,120,120,444,1,,,,
,,,,,,0feda8bf7762d0a5039b6475,66a626ef09d4e21e1a8894ec,673497d09c2f4e932246753a,2024-11-13_13h14.05.088,Tarea de género gramatical,2024.2.2,Win32,60.24096386,,,,,,,,,,,,,,,,,,,,,,,435.7666,437.0472,l,1,[],[],[],[],[],[],[],0.6016,1,437.0474,437.547,,,,,,1193,MAS,AGR,150,patio,el,l,0.6016,,437.5472,437.5473,-0.444010417,-0.3828125,0,0,0,,0,121,121,292,1,,,,
,,,,,,0feda8bf7762d0a5039b6475,66a626ef09d4e21e1a8894ec,673497d09c2f4e932246753a,2024-11-13_13h14.05.088,Tarea de género gramatical,2024.2.2,Win32,60.24096386,,,,,,,,,,,,,,,,,,,,,,,437.5494,439.0472,a,1,[],[],[],[],[],[],[],0.8177,1,439.0473,439.5471,,,,,,955,FEM,DIS,150,taza,el,a,0.8177,,439.5473,439.5475,-0.444010417,-0.3828125,0,0,0,,0,122,122,54,1,,,,
,,,,,,0feda8bf7762d0a5039b6475,66a626ef09d4e21e1a8894ec,673497d09c2f4e932246753a,2024-11-13_13h14.05.088,Tarea de género gramatical,2024.2.2,Win32,60.24096386,,,,,,,,,,,,,,,,,,,,,,,439.5494,441.1143,l,1,[],[],[],[],[],[],[],0.8847,1,441.1145,441.6138,,,,,,916,MAS,DIS,150,baño,la,l,0.8847,,441.616,441.6177,-0.444010417,-0.3828125,0,0,0,,0,123,123,15,1,,,,
,,,,,,0feda8bf7762d0a5039b6475,66a626ef09d4e21e1a8894ec,673497d09c2f4e932246753a,2024-11-13_13h14.05.088,Tarea de género gramatical,2024.2.2,Win32,60.24096386,,,,,,,,,,,,,,,,,,,,,,,441.6189,443.0311,l,1,[],[],[],[],[],[],[],0.7343,1,443.0314,443.531,,,,,,1204,MAS,DIS,150,tiempo,la,l,0.7343,,443.5311,443.5315,-0.444010417,-0.3828125,0,0,0,,0,124,124,303,1,,,,
,,,,,,0feda8bf7762d0a5039b6475,66a626ef09d4e21e1a8894ec,673497d09c2f4e932246753a,2024-11-13_13h14.05.088,Tarea de género gramatical,2024.2.2,Win32,60.24096386,,,,,,,,,,,,,,,,,,,,,,,443.5335,445.4642,a,1,[],[],[],[],[],[],[],1.2609,1,445.4644,445.9641,,,,,,1052,FEM,AGR,150,gente,la,a,1.2609,,445.9642,445.9645,-0.444010417,-0.3828125,0,0,0,,0,125,125,151,1,,,,
,,,,,,0feda8bf7762d0a5039b6475,66a626ef09d4e21e1a8894ec,673497d09c2f4e932246753a,2024-11-13_13h14.05.088,Tarea de género gramatical,2024.2.2,Win32,60.24096386,,,,,,,,,,,,,,,,,,,,,,,445.966,447.1973,a,1,[],[],[],[],[],[],[],0.5511,1,447.1975,447.6968,,,,,,1305,FEM,CON,150,parada,,a,0.5511,,447.6969,447.697,-0.444010417,-0.3828125,0,0,0,,0,126,126,404,1,,,,
,,,,,,0feda8bf7762d0a5039b6475,66a626ef09d4e21e1a8894ec,673497d09c2f4e932246753a,2024-11-13_13h14.05.088,Tarea de género gramatical,2024.2.2,Win32,60.24096386,,,,,,,,,,,,,,,,,,,,,,,447.6984,449.0145,l,1,[],[],[],[],[],[],[],0.6341,1,449.0147,449.5142,,,,,,1188,MAS,CON,150,grado,,l,0.6341,,449.5143,449.5145,-0.444010417,-0.3828125,0,0,0,,0,127,127,287,1,,,,
,,,,,,0feda8bf7762d0a5039b6475,66a626ef09d4e21e1a8894ec,673497d09c2f4e932246753a,2024-11-13_13h14.05.088,Tarea de género gramatical,2024.2.2,Win32,60.24096386,,,,,,,,,,,,,,,,,,,,,,,449.5163,450.8977,l,1,[],[],[],[],[],[],[],0.7008,1,450.8978,451.3972,,,,,,1253,MAS,AGR,150,verano,el,l,0.7008,,451.399,451.401,-0.444010417,-0.3828125,0,0,0,,0,128,128,352,1,,,,
,,,,,,0feda8bf7762d0a5039b6475,66a626ef09d4e21e1a8894ec,673497d09c2f4e932246753a,2024-11-13_13h14.05.088,Tarea de género gramatical,2024.2.2,Win32,60.24096386,,,,,,,,,,,,,,,,,,,,,,,451.4022,453.197,l,1,[],[],[],[],[],[],[],1.1267,1,453.1972,453.6971,,,,,,1145,MAS,AGR,150,turno,el,l,1.1267,,453.6971,453.6973,-0.444010417,-0.3828125,0,0,0,,0,129,129,244,1,,,,
,,,,,,0feda8bf7762d0a5039b6475,66a626ef09d4e21e1a8894ec,673497d09c2f4e932246753a,2024-11-13_13h14.05.088,Tarea de género gramatical,2024.2.2,Win32,60.24096386,,,,,,,,,,,,,,,,,,,,,,,453.6989,454.9136,a,1,[],[],[],[],[],[],[],0.544,1,454.9138,455.4142,,,,,,957,FEM,CON,150,moda,,a,0.544,,455.4144,455.4147,-0.444010417,-0.3828125,0,0,0,,0,130,130,56,1,,,,
,,,,,,0feda8bf7762d0a5039b6475,66a626ef09d4e21e1a8894ec,673497d09c2f4e932246753a,2024-11-13_13h14.05.088,Tarea de género gramatical,2024.2.2,Win32,60.24096386,,,,,,,,,,,,,,,,,,,,,,,455.4165,456.7973,a,1,[],[],[],[],[],[],[],0.7074,1,456.7975,457.2973,,,,,,926,FEM,AGR,150,pena,la,a,0.7074,,457.2975,457.2978,-0.444010417,-0.3828125,0,0,0,,0,131,131,25,1,,,,
,,,,,,0feda8bf7762d0a5039b6475,66a626ef09d4e21e1a8894ec,673497d09c2f4e932246753a,2024-11-13_13h14.05.088,Tarea de género gramatical,2024.2.2,Win32,60.24096386,,,,,,,,,,,,,,,,,,,,,,,457.2993,458.5473,a,1,[],[],[],[],[],[],[],0.5709,1,458.5475,459.0473,,,,,,1291,FEM,DIS,150,altura,el,a,0.5709,,459.0493,459.0512,-0.444010417,-0.3828125,0,0,0,,0,132,132,390,1,,,,
,,,,,,0feda8bf7762d0a5039b6475,66a626ef09d4e21e1a8894ec,673497d09c2f4e932246753a,2024-11-13_13h14.05.088,Tarea de género gramatical,2024.2.2,Win32,60.24096386,,,,,,,,,,,,,,,,,,,,,,,459.0523,460.2971,a,1,[],[],[],[],[],[],[],0.5767,1,460.2972,460.7974,,,,,,1040,FEM,AGR,150,mula,la,a,0.5767,,460.7975,460.7977,-0.444010417,-0.3828125,0,0,0,,0,133,133,139,1,,,,
,,,,,,0feda8bf7762d0a5039b6475,66a626ef09d4e21e1a8894ec,673497d09c2f4e932246753a,2024-11-13_13h14.05.088,Tarea de género gramatical,2024.2.2,Win32,60.24096386,,,,,,,,,,,,,,,,,,,,,,,460.7992,461.9976,l,1,[],[],[],[],[],[],[],0.5224,1,461.9978,462.4972,,,,,,1062,MAS,CON,150,miedo,,l,0.5224,,462.4973,462.4975,-0.444010417,-0.3828125,0,0,0,,0,134,134,161,1,,,,
,,,,,,0feda8bf7762d0a5039b6475,66a626ef09d4e21e1a8894ec,673497d09c2f4e932246753a,2024-11-13_13h14.05.088,Tarea de género gramatical,2024.2.2,Win32,60.24096386,,,,,,,,,,,,,,,,,,,,,,,462.4991,464.6644,a,1,[],[],[],[],[],[],[],1.4924,1,464.6646,465.164,,,,,,1249,FEM,DIS,150,prensa,el,a,1.4924,,465.1641,465.1642,-0.444010417,-0.3828125,0,0,0,,0,135,135,348,1,,,,
,,,,,,0feda8bf7762d0a5039b6475,66a626ef09d4e21e1a8894ec,673497d09c2f4e932246753a,2024-11-13_13h14.05.088,Tarea de género gramatical,2024.2.2,Win32,60.24096386,,,,,,,,,,,,,,,,,,,,,,,465.1659,466.7481,l,0,[],[],[],[],[],[],[],0.9013,0,466.7493,467.2474,,,,,,1238,FEM,AGR,150,abuela,la,a,0.9013,,467.2475,467.2477,-0.444010417,-0.3828125,0,0,0,,0,136,136,337,1,,,,
,,,,,,0feda8bf7762d0a5039b6475,66a626ef09d4e21e1a8894ec,673497d09c2f4e932246753a,2024-11-13_13h14.05.088,Tarea de género gramatical,2024.2.2,Win32,60.24096386,,,,,,,,,,,,,,,,,,,,,,,467.2492,468.7141,a,0,[],[],[],[],[],[],[],0.7836,0,468.7143,469.2147,,,,,,941,MAS,AGR,150,bote,el,l,0.7836,,469.2168,469.2188,-0.444010417,-0.3828125,0,0,0,,0,137,137,40,1,,,,
,,,,,,0feda8bf7762d0a5039b6475,66a626ef09d4e21e1a8894ec,673497d09c2f4e932246753a,2024-11-13_13h14.05.088,Tarea de género gramatical,2024.2.2,Win32,60.24096386,,,,,,,,,,,,,,,,,,,,,,,469.2198,470.7303,a,1,[],[],[],[],[],[],[],0.8317,1,470.731,471.231,,,,,,1131,FEM,CON,150,bruja,,a,0.8317,,471.2311,471.2313,-0.444010417,-0.3828125,0,0,0,,0,138,138,230,1,,,,
,,,,,,0feda8bf7762d0a5039b6475,66a626ef09d4e21e1a8894ec,673497d09c2f4e932246753a,2024-11-13_13h14.05.088,Tarea de género gramatical,2024.2.2,Win32,60.24096386,,,,,,,,,,,,,,,,,,,,,,,471.2332,472.6149,l,1,[],[],[],[],[],[],[],0.708,1,472.6151,473.1144,,,,,,1337,MAS,AGR,150,hombro,el,l,0.708,,473.1145,473.1148,-0.444010417,-0.3828125,0,0,0,,0,139,139,436,1,,,,
,,,,,,0feda8bf7762d0a5039b6475,66a626ef09d4e21e1a8894ec,673497d09c2f4e932246753a,2024-11-13_13h14.05.088,Tarea de género gramatical,2024.2.2,Win32,60.24096386,,,,,,,,,,,,,,,,,,,,,,,473.1164,474.5476,a,1,[],[],[],[],[],[],[],0.7515,1,474.5476,475.0471,,,,,,913,FEM,DIS,150,hija,el,a,0.7515,,475.0472,475.0472,-0.444010417,-0.3828125,0,0,0,,0,140,140,12,1,,,,
,,,,,,0feda8bf7762d0a5039b6475,66a626ef09d4e21e1a8894ec,673497d09c2f4e932246753a,2024-11-13_13h14.05.088,Tarea de género gramatical,2024.2.2,Win32,60.24096386,,,,,,,,,,,,,,,,,,,,,,,475.0489,476.6148,a,1,[],[],[],[],[],[],[],0.8847,1,476.615,477.114,,,,,,979,FEM,DIS,150,mina,el,a,0.8847,,477.1155,477.117,-0.444010417,-0.3828125,0,0,0,,0,141,141,78,1,,,,
,,,,,,0feda8bf7762d0a5039b6475,66a626ef09d4e21e1a8894ec,673497d09c2f4e932246753a,2024-11-13_13h14.05.088,Tarea de género gramatical,2024.2.2,Win32,60.24096386,,,,,,,,,,,,,,,,,,,,,,,477.1178,478.4641,l,1,[],[],[],[],[],[],[],0.6674,1,478.4643,478.9649,,,,,,1308,MAS,CON,150,cheque,,l,0.6674,,478.965,478.9653,-0.444010417,-0.3828125,0,0,0,,0,142,142,407,1,,,,
,,,,,,0feda8bf7762d0a5039b6475,66a626ef09d4e21e1a8894ec,673497d09c2f4e932246753a,2024-11-13_13h14.05.088,Tarea de género gramatical,2024.2.2,Win32,60.24096386,,,,,,,,,,,,,,,,,,,,,,,478.9676,480.7473,l,1,[],[],[],[],[],[],[],1.0993,1,480.7475,481.2478,,,,,,904,MAS,DIS,150,hijo,la,l,1.0993,,481.2478,481.248,-0.444010417,-0.3828125,0,0,0,,0,143,143,3,1,,,,
,,,,,,0feda8bf7762d0a5039b6475,66a626ef09d4e21e1a8894ec,673497d09c2f4e932246753a,2024-11-13_13h14.05.088,Tarea de género gramatical,2024.2.2,Win32,60.24096386,,,,,,,,,,,,,,,,,,,,,,,481.2495,482.5813,l,1,[],[],[],[],[],[],[],0.6516,1,482.5816,483.0813,,,,,,1026,MAS,CON,150,lazo,,l,0.6516,,483.0813,483.0816,-0.444010417,-0.3828125,0,0,0,,0,144,144,125,1,,,,
,,,,,,0feda8bf7762d0a5039b6475,66a626ef09d4e21e1a8894ec,673497d09c2f4e932246753a,2024-11-13_13h14.05.088,Tarea de género gramatical,2024.2.2,Win32,60.24096386,,,,,,,,,,,,,,,,,,,,,,,483.0837,484.4477,a,1,[],[],[],[],[],[],[],0.6853,1,484.448,484.9478,,,,,,901,FEM,DIS,150,casa,el,a,0.6853,,484.9479,484.9481,-0.444010417,-0.3828125,0,0,0,,0,145,145,0,1,,,,
,,,,,,0feda8bf7762d0a5039b6475,66a626ef09d4e21e1a8894ec,673497d09c2f4e932246753a,2024-11-13_13h14.05.088,Tarea de género gramatical,2024.2.2,Win32,60.24096386,,,,,,,,,,,,,,,,,,,,,,,484.9499,486.4817,a,1,[],[],[],[],[],[],[],0.8509,1,486.4819,486.9818,,,,,,1119,FEM,CON,150,costa,,a,0.8509,,486.9841,486.9855,-0.444010417,-0.3828125,0,0,0,,0,146,146,218,1,,,,
,,,,,,0feda8bf7762d0a5039b6475,66a626ef09d4e21e1a8894ec,673497d09c2f4e932246753a,2024-11-13_13h14.05.088,Tarea de género gramatical,2024.2.2,Win32,60.24096386,,,,,,,,,,,,,,,,,,,,,,,486.9867,488.415,l,1,[],[],[],[],[],[],[],0.751,1,488.4152,488.9149,,,,,,982,MAS,DIS,150,tubo,la,l,0.751,,488.915,488.9153,-0.444010417,-0.3828125,0,0,0,,0,147,147,81,1,,,,
,,,,,,0feda8bf7762d0a5039b6475,66a626ef09d4e21e1a8894ec,673497d09c2f4e932246753a,2024-11-13_13h14.05.088,Tarea de género gramatical,2024.2.2,Win32,60.24096386,,,,,,,,,,,,,,,,,,,,,,,488.9171,490.3642,a,1,[],[],[],[],[],[],[],0.777,1,490.3643,490.8644,,,,,,1202,FEM,AGR,150,cabeza,la,a,0.777,,490.8645,490.8648,-0.444010417,-0.3828125,0,0,0,,0,148,148,301,1,,,,
,,,,,,0feda8bf7762d0a5039b6475,66a626ef09d4e21e1a8894ec,673497d09c2f4e932246753a,2024-11-13_13h14.05.088,Tarea de género gramatical,2024.2.2,Win32,60.24096386,,,,,,,,,,,,,,,,,,,,,,,490.8664,492.1979,a,0,[],[],[],[],[],[],[],0.6509,0,492.1989,492.6979,,,,,,1074,MAS,CON,150,perro,,l,0.6509,,492.698,492.6981,-0.444010417,-0.3828125,0,0,0,,0,149,149,173,1,,,,
,,,,,,0feda8bf7762d0a5039b6475,66a626ef09d4e21e1a8894ec,673497d09c2f4e932246753a,2024-11-13_13h14.05.088,Tarea de género gramatical,2024.2.2,Win32,60.24096386,,,,,,,,,,,,,,,,,,,,,,,492.6998,494.0479,a,0,[],[],[],[],[],[],[],0.6674,0,494.0481,494.5485,,,,,,960,MAS,CON,150,tono,,l,0.6674,,494.5506,522.1658,-0.444010417,-0.3828125,0,0,0,space,0,150,150,59,1,27.5932,,,
,,,,,,0feda8bf7762d0a5039b6475,66a626ef09d4e21e1a8894ec,673497d09c2f4e932246753a,2024-11-13_13h14.05.088,Tarea de género gramatical,2024.2.2,Win32,60.24096386,,,,,,,,,,,,,,,,,,,,,,,522.1682,523.782,a,1,[],[],[],[],[],[],[],0.939,1,523.783,524.2822,,,,,,920,FEM,AGR,150,ropa,la,a,0.939,,524.2823,524.2825,-0.444010417,-0.3828125,0,0,0,,0,151,151,19,1,,,,
,,,,,,0feda8bf7762d0a5039b6475,66a626ef09d4e21e1a8894ec,673497d09c2f4e932246753a,2024-11-13_13h14.05.088,Tarea de género gramatical,2024.2.2,Win32,60.24096386,,,,,,,,,,,,,,,,,,,,,,,524.2841,525.6156,l,0,[],[],[],[],[],[],[],0.6558,0,525.6162,526.1149,,,,,,1251,FEM,CON,150,espada,,a,0.6558,,526.115,526.1151,-0.444010417,-0.3828125,0,0,0,,0,152,152,350,1,,,,
,,,,,,0feda8bf7762d0a5039b6475,66a626ef09d4e21e1a8894ec,673497d09c2f4e932246753a,2024-11-13_13h14.05.088,Tarea de género gramatical,2024.2.2,Win32,60.24096386,,,,,,,,,,,,,,,,,,,,,,,526.1163,527.681,l,1,[],[],[],[],[],[],[],0.8818,1,527.682,528.1818,,,,,,1056,MAS,CON,150,amigo,,l,0.8818,,528.1819,528.1822,-0.444010417,-0.3828125,0,0,0,,0,153,153,155,1,,,,
,,,,,,0feda8bf7762d0a5039b6475,66a626ef09d4e21e1a8894ec,673497d09c2f4e932246753a,2024-11-13_13h14.05.088,Tarea de género gramatical,2024.2.2,Win32,60.24096386,,,,,,,,,,,,,,,,,,,,,,,528.1833,529.5481,l,1,[],[],[],[],[],[],[],0.6888,1,529.5483,530.0489,,,,,,1091,MAS,AGR,150,dolor,el,l,0.6888,,530.0491,530.0493,-0.444010417,-0.3828125,0,0,0,,0,154,154,190,1,,,,
,,,,,,0feda8bf7762d0a5039b6475,66a626ef09d4e21e1a8894ec,673497d09c2f4e932246753a,2024-11-13_13h14.05.088,Tarea de género gramatical,2024.2.2,Win32,60.24096386,,,,,,,,,,,,,,,,,,,,,,,530.0514,531.7815,l,1,[],[],[],[],[],[],[],1.0568,1,531.7816,532.2822,,,,,,1290,MAS,CON,150,rostro,,l,1.0568,,532.2845,532.2863,-0.444010417,-0.3828125,0,0,0,,0,155,155,389,1,,,,
,,,,,,0feda8bf7762d0a5039b6475,66a626ef09d4e21e1a8894ec,673497d09c2f4e932246753a,2024-11-13_13h14.05.088,Tarea de género gramatical,2024.2.2,Win32,60.24096386,,,,,,,,,,,,,,,,,,,,,,,532.2873,533.5814,l,1,[],[],[],[],[],[],[],0.6157,1,533.5815,534.0816,,,,,,970,MAS,DIS,150,palo,la,l,0.6157,,534.0817,534.0821,-0.444010417,-0.3828125,0,0,0,,0,156,156,69,1,,,,
,,,,,,0feda8bf7762d0a5039b6475,66a626ef09d4e21e1a8894ec,673497d09c2f4e932246753a,2024-11-13_13h14.05.088,Tarea de género gramatical,2024.2.2,Win32,60.24096386,,,,,,,,,,,,,,,,,,,,,,,534.0842,535.3314,a,1,[],[],[],[],[],[],[],0.5664,1,535.3315,535.8314,,,,,,914,FEM,AGR,150,cara,la,a,0.5664,,535.8315,535.8318,-0.444010417,-0.3828125,0,0,0,,0,157,157,13,1,,,,
,,,,,,0feda8bf7762d0a5039b6475,66a626ef09d4e21e1a8894ec,673497d09c2f4e932246753a,2024-11-13_13h14.05.088,Tarea de género gramatical,2024.2.2,Win32,60.24096386,,,,,,,,,,,,,,,,,,,,,,,535.8335,537.4323,a,1,[],[],[],[],[],[],[],0.9333,1,537.4325,537.9325,,,,,,1088,FEM,AGR,150,bomba,la,a,0.9333,,537.9326,537.9328,-0.444010417,-0.3828125,0,0,0,,0,158,158,187,1,,,,
,,,,,,0feda8bf7762d0a5039b6475,66a626ef09d4e21e1a8894ec,673497d09c2f4e932246753a,2024-11-13_13h14.05.088,Tarea de género gramatical,2024.2.2,Win32,60.24096386,,,,,,,,,,,,,,,,,,,,,,,537.9344,539.2649,a,1,[],[],[],[],[],[],[],0.6524,1,539.265,539.7649,,,,,,1220,FEM,AGR,150,fiesta,la,a,0.6524,,539.7672,539.7686,-0.444010417,-0.3828125,0,0,0,,0,159,159,319,1,,,,
,,,,,,0feda8bf7762d0a5039b6475,66a626ef09d4e21e1a8894ec,673497d09c2f4e932246753a,2024-11-13_13h14.05.088,Tarea de género gramatical,2024.2.2,Win32,60.24096386,,,,,,,,,,,,,,,,,,,,,,,539.7695,541.1647,l,1,[],[],[],[],[],[],[],0.7237,1,541.1648,541.6655,,,,,,1314,MAS,CON,150,sótano,,l,0.7237,,541.6656,541.6658,-0.444010417,-0.3828125,0,0,0,,0,160,160,413,1,,,,
,,,,,,0feda8bf7762d0a5039b6475,66a626ef09d4e21e1a8894ec,673497d09c2f4e932246753a,2024-11-13_13h14.05.088,Tarea de género gramatical,2024.2.2,Win32,60.24096386,,,,,,,,,,,,,,,,,,,,,,,541.6677,543.3656,l,1,[],[],[],[],[],[],[],1.0264,1,543.3657,543.8652,,,,,,1228,MAS,DIS,150,asunto,la,l,1.0264,,543.8653,543.8654,-0.444010417,-0.3828125,0,0,0,,0,161,161,327,1,,,,
,,,,,,0feda8bf7762d0a5039b6475,66a626ef09d4e21e1a8894ec,673497d09c2f4e932246753a,2024-11-13_13h14.05.088,Tarea de género gramatical,2024.2.2,Win32,60.24096386,,,,,,,,,,,,,,,,,,,,,,,543.8663,545.3653,l,1,[],[],[],[],[],[],[],0.8193,1,545.3655,545.8652,,,,,,954,MAS,CON,150,humo,,l,0.8193,,545.8653,545.8656,-0.444010417,-0.3828125,0,0,0,,0,162,162,53,1,,,,
,,,,,,0feda8bf7762d0a5039b6475,66a626ef09d4e21e1a8894ec,673497d09c2f4e932246753a,2024-11-13_13h14.05.088,Tarea de género gramatical,2024.2.2,Win32,60.24096386,,,,,,,,,,,,,,,,,,,,,,,545.8675,547.2322,a,1,[],[],[],[],[],[],[],0.6874,1,547.2323,547.7314,,,,,,1125,FEM,CON,150,pieza,,a,0.6874,,547.7314,547.7316,-0.444010417,-0.3828125,0,0,0,,0,163,163,224,1,,,,
,,,,,,0feda8bf7762d0a5039b6475,66a626ef09d4e21e1a8894ec,673497d09c2f4e932246753a,2024-11-13_13h14.05.088,Tarea de género gramatical,2024.2.2,Win32,60.24096386,,,,,,,,,,,,,,,,,,,,,,,547.7326,549.4489,l,0,[],[],[],[],[],[],[],1.0337,0,549.45,549.9484,,,,,,1327,FEM,DIS,150,agenda,el,a,1.0337,,549.95,549.9515,-0.444010417,-0.3828125,0,0,0,,0,164,164,426,1,,,,
,,,,,,0feda8bf7762d0a5039b6475,66a626ef09d4e21e1a8894ec,673497d09c2f4e932246753a,2024-11-13_13h14.05.088,Tarea de género gramatical,2024.2.2,Win32,60.24096386,,,,,,,,,,,,,,,,,,,,,,,549.9521,551.2489,a,1,[],[],[],[],[],[],[],0.6273,1,551.2506,551.748,,,,,,1173,FEM,CON,150,tarta,,a,0.6273,,551.748,551.7482,-0.444010417,-0.3828125,0,0,0,,0,165,165,272,1,,,,
,,,,,,0feda8bf7762d0a5039b6475,66a626ef09d4e21e1a8894ec,673497d09c2f4e932246753a,2024-11-13_13h14.05.088,Tarea de género gramatical,2024.2.2,Win32,60.24096386,,,,,,,,,,,,,,,,,,,,,,,551.7503,553.0483,a,1,[],[],[],[],[],[],[],0.6241,1,553.0484,553.5484,,,,,,1148,FEM,AGR,150,letra,la,a,0.6241,,553.5485,553.5486,-0.444010417,-0.3828125,0,0,0,,0,166,166,247,1,,,,
,,,,,,0feda8bf7762d0a5039b6475,66a626ef09d4e21e1a8894ec,673497d09c2f4e932246753a,2024-11-13_13h14.05.088,Tarea de género gramatical,2024.2.2,Win32,60.24096386,,,,,,,,,,,,,,,,,,,,,,,553.55,554.9487,l,0,[],[],[],[],[],[],[],0.718,0,554.9499,555.4485,,,,,,1321,FEM,DIS,150,novela,el,a,0.718,,555.4487,555.4492,-0.444010417,-0.3828125,0,0,0,,0,167,167,420,1,,,,
,,,,,,0feda8bf7762d0a5039b6475,66a626ef09d4e21e1a8894ec,673497d09c2f4e932246753a,2024-11-13_13h14.05.088,Tarea de género gramatical,2024.2.2,Win32,60.24096386,,,,,,,,,,,,,,,,,,,,,,,555.4508,557.3157,a,0,[],[],[],[],[],[],[],1.1839,0,557.3159,557.8154,,,,,,1030,MAS,DIS,150,yate,la,l,1.1839,,557.8173,557.8189,-0.444010417,-0.3828125,0,0,0,,0,168,168,129,1,,,,
,,,,,,0feda8bf7762d0a5039b6475,66a626ef09d4e21e1a8894ec,673497d09c2f4e932246753a,2024-11-13_13h14.05.088,Tarea de género gramatical,2024.2.2,Win32,60.24096386,,,,,,,,,,,,,,,,,,,,,,,557.8197,559.4987,l,0,[],[],[],[],[],[],[],1.0008,0,559.4988,559.9982,,,,,,907,FEM,DIS,150,hora,el,a,1.0008,,559.9983,559.9984,-0.444010417,-0.3828125,0,0,0,,0,169,169,6,1,,,,
,,,,,,0feda8bf7762d0a5039b6475,66a626ef09d4e21e1a8894ec,673497d09c2f4e932246753a,2024-11-13_13h14.05.088,Tarea de género gramatical,2024.2.2,Win32,60.24096386,,,,,,,,,,,,,,,,,,,,,,,560.001,561.7989,a,0,[],[],[],[],[],[],[],1.1287,0,561.7991,562.2994,,,,,,1217,MAS,AGR,150,número,el,l,1.1287,,562.2996,562.2998,-0.444010417,-0.3828125,0,0,0,,0,170,170,316,1,,,,
,,,,,,0feda8bf7762d0a5039b6475,66a626ef09d4e21e1a8894ec,673497d09c2f4e932246753a,2024-11-13_13h14.05.088,Tarea de género gramatical,2024.2.2,Win32,60.24096386,,,,,,,,,,,,,,,,,,,,,,,562.301,564.0817,l,0,[],[],[],[],[],[],[],1.1087,0,564.0819,564.582,,,,,,999,FEM,CON,150,fase,,a,1.1087,,564.5821,564.5824,-0.444010417,-0.3828125,0,0,0,,0,171,171,98,1,,,,
,,,,,,0feda8bf7762d0a5039b6475,66a626ef09d4e21e1a8894ec,673497d09c2f4e932246753a,2024-11-13_13h14.05.088,Tarea de género gramatical,2024.2.2,Win32,60.24096386,,,,,,,,,,,,,,,,,,,,,,,564.5844,566.849,a,1,[],[],[],[],[],[],[],1.5923,1,566.8499,567.3485,,,,,,1279,FEM,DIS,150,granja,el,a,1.5923,,567.3485,567.3486,-0.444010417,-0.3828125,0,0,0,,0,172,172,378,1,,,,
,,,,,,0feda8bf7762d0a5039b6475,66a626ef09d4e21e1a8894ec,673497d09c2f4e932246753a,2024-11-13_13h14.05.088,Tarea de género gramatical,2024.2.2,Win32,60.24096386,,,,,,,,,,,,,,,,,,,,,,,567.3499,568.7487,a,1,[],[],[],[],[],[],[],0.7238,1,568.7488,569.2483,,,,,,1035,FEM,CON,150,raíz,,a,0.7238,,569.2498,569.2513,-0.444010417,-0.3828125,0,0,0,,0,173,173,134,1,,,,
,,,,,,0feda8bf7762d0a5039b6475,66a626ef09d4e21e1a8894ec,673497d09c2f4e932246753a,2024-11-13_13h14.05.088,Tarea de género gramatical,2024.2.2,Win32,60.24096386,,,,,,,,,,,,,,,,,,,,,,,569.252,571.2154,l,1,[],[],[],[],[],[],[],1.285,1,571.2156,571.7157,,,,,,1252,MAS,DIS,150,estilo,la,l,1.285,,571.7158,571.7162,-0.444010417,-0.3828125,0,0,0,,0,174,174,351,1,,,,
,,,,,,0feda8bf7762d0a5039b6475,66a626ef09d4e21e1a8894ec,673497d09c2f4e932246753a,2024-11-13_13h14.05.088,Tarea de género gramatical,2024.2.2,Win32,60.24096386,,,,,,,,,,,,,,,,,,,,,,,571.7178,573.166,a,1,[],[],[],[],[],[],[],0.7679,1,573.1662,573.6658,,,,,,1207,FEM,DIS,150,suerte,el,a,0.7679,,573.666,573.666,-0.444010417,-0.3828125,0,0,0,,0,175,175,306,1,,,,
,,,,,,0feda8bf7762d0a5039b6475,66a626ef09d4e21e1a8894ec,673497d09c2f4e932246753a,2024-11-13_13h14.05.088,Tarea de género gramatical,2024.2.2,Win32,60.24096386,,,,,,,,,,,,,,,,,,,,,,,573.6675,575.0162,a,1,[],[],[],[],[],[],[],0.6678,1,575.0164,575.5157,,,,,,968,FEM,AGR,150,pata,la,a,0.6678,,575.5157,575.5159,-0.444010417,-0.3828125,0,0,0,,0,176,176,67,1,,,,
,,,,,,0feda8bf7762d0a5039b6475,66a626ef09d4e21e1a8894ec,673497d09c2f4e932246753a,2024-11-13_13h14.05.088,Tarea de género gramatical,2024.2.2,Win32,60.24096386,,,,,,,,,,,,,,,,,,,,,,,575.5175,576.749,l,0,[],[],[],[],[],[],[],0.5499,0,576.7499,577.2496,,,,,,945,FEM,CON,150,isla,,a,0.5499,,577.2512,577.2526,-0.444010417,-0.3828125,0,0,0,,0,177,177,44,1,,,,
,,,,,,0feda8bf7762d0a5039b6475,66a626ef09d4e21e1a8894ec,673497d09c2f4e932246753a,2024-11-13_13h14.05.088,Tarea de género gramatical,2024.2.2,Win32,60.24096386,,,,,,,,,,,,,,,,,,,,,,,577.2533,578.8993,l,1,[],[],[],[],[],[],[],0.9676,1,578.9003,579.3995,,,,,,1018,MAS,DIS,150,baúl,la,l,0.9676,,579.3997,579.3999,-0.444010417,-0.3828125,0,0,0,,0,178,178,117,1,,,,
,,,,,,0feda8bf7762d0a5039b6475,66a626ef09d4e21e1a8894ec,673497d09c2f4e932246753a,2024-11-13_13h14.05.088,Tarea de género gramatical,2024.2.2,Win32,60.24096386,,,,,,,,,,,,,,,,,,,,,,,579.4014,580.8987,l,1,[],[],[],[],[],[],[],0.8244,1,580.8988,581.3996,,,,,,984,MAS,CON,150,mago,,l,0.8244,,581.3997,581.3998,-0.444010417,-0.3828125,0,0,0,,0,179,179,83,1,,,,
,,,,,,0feda8bf7762d0a5039b6475,66a626ef09d4e21e1a8894ec,673497d09c2f4e932246753a,2024-11-13_13h14.05.088,Tarea de género gramatical,2024.2.2,Win32,60.24096386,,,,,,,,,,,,,,,,,,,,,,,581.4014,582.7487,l,1,[],[],[],[],[],[],[],0.6786,1,582.7488,583.2489,,,,,,1210,MAS,DIS,150,nombre,la,l,0.6786,,583.249,583.2492,-0.444010417,-0.3828125,0,0,0,,0,180,180,309,1,,,,
,,,,,,0feda8bf7762d0a5039b6475,66a626ef09d4e21e1a8894ec,673497d09c2f4e932246753a,2024-11-13_13h14.05.088,Tarea de género gramatical,2024.2.2,Win32,60.24096386,,,,,,,,,,,,,,,,,,,,,,,583.2505,584.7991,a,0,[],[],[],[],[],[],[],0.8739,0,584.8004,585.2995,,,,,,1156,MAS,DIS,150,techo,la,l,0.8739,,585.2997,585.3,-0.444010417,-0.3828125,0,0,0,,0,181,181,255,1,,,,
,,,,,,0feda8bf7762d0a5039b6475,66a626ef09d4e21e1a8894ec,673497d09c2f4e932246753a,2024-11-13_13h14.05.088,Tarea de género gramatical,2024.2.2,Win32,60.24096386,,,,,,,,,,,,,,,,,,,,,,,585.3015,586.8994,l,1,[],[],[],[],[],[],[],0.9167,1,586.9005,587.3993,,,,,,1126,MAS,DIS,150,color,la,l,0.9167,,587.4013,587.4026,-0.444010417,-0.3828125,0,0,0,,0,182,182,225,1,,,,
,,,,,,0feda8bf7762d0a5039b6475,66a626ef09d4e21e1a8894ec,673497d09c2f4e932246753a,2024-11-13_13h14.05.088,Tarea de género gramatical,2024.2.2,Win32,60.24096386,,,,,,,,,,,,,,,,,,,,,,,587.4037,588.8496,a,1,[],[],[],[],[],[],[],0.7677,1,588.8499,589.3497,,,,,,931,FEM,DIS,150,edad,el,a,0.7677,,589.3498,589.3501,-0.444010417,-0.3828125,0,0,0,,0,183,183,30,1,,,,
,,,,,,0feda8bf7762d0a5039b6475,66a626ef09d4e21e1a8894ec,673497d09c2f4e932246753a,2024-11-13_13h14.05.088,Tarea de género gramatical,2024.2.2,Win32,60.24096386,,,,,,,,,,,,,,,,,,,,,,,589.3524,590.8491,l,1,[],[],[],[],[],[],[],0.8175,1,590.8494,591.3496,,,,,,912,MAS,CON,150,plan,,l,0.8175,,591.3497,591.35,-0.444010417,-0.3828125,0,0,0,,0,184,184,11,1,,,,
,,,,,,0feda8bf7762d0a5039b6475,66a626ef09d4e21e1a8894ec,673497d09c2f4e932246753a,2024-11-13_13h14.05.088,Tarea de género gramatical,2024.2.2,Win32,60.24096386,,,,,,,,,,,,,,,,,,,,,,,591.3517,592.8495,l,1,[],[],[],[],[],[],[],0.8228,1,592.8496,593.3496,,,,,,1127,MAS,AGR,150,vuelo,el,l,0.8228,,593.3497,593.3501,-0.444010417,-0.3828125,0,0,0,,0,185,185,226,1,,,,
,,,,,,0feda8bf7762d0a5039b6475,66a626ef09d4e21e1a8894ec,673497d09c2f4e932246753a,2024-11-13_13h14.05.088,Tarea de género gramatical,2024.2.2,Win32,60.24096386,,,,,,,,,,,,,,,,,,,,,,,593.3518,594.6663,a,1,[],[],[],[],[],[],[],0.6344,1,594.6666,595.166,,,,,,1323,FEM,CON,150,poesía,,a,0.6344,,595.1679,595.1694,-0.444010417,-0.3828125,0,0,0,,0,186,186,422,1,,,,
,,,,,,0feda8bf7762d0a5039b6475,66a626ef09d4e21e1a8894ec,673497d09c2f4e932246753a,2024-11-13_13h14.05.088,Tarea de género gramatical,2024.2.2,Win32,60.24096386,,,,,,,,,,,,,,,,,,,,,,,595.1703,596.9665,a,1,[],[],[],[],[],[],[],1.1185,1,596.9667,597.4662,,,,,,961,FEM,DIS,150,ruta,el,a,1.1185,,597.4662,597.4666,-0.444010417,-0.3828125,0,0,0,,0,187,187,60,1,,,,
,,,,,,0feda8bf7762d0a5039b6475,66a626ef09d4e21e1a8894ec,673497d09c2f4e932246753a,2024-11-13_13h14.05.088,Tarea de género gramatical,2024.2.2,Win32,60.24096386,,,,,,,,,,,,,,,,,,,,,,,597.4681,598.8831,l,1,[],[],[],[],[],[],[],0.7344,1,598.8833,599.3828,,,,,,1169,MAS,AGR,150,primo,el,l,0.7344,,599.3829,599.3832,-0.444010417,-0.3828125,0,0,0,,0,188,188,268,1,,,,
,,,,,,0feda8bf7762d0a5039b6475,66a626ef09d4e21e1a8894ec,673497d09c2f4e932246753a,2024-11-13_13h14.05.088,Tarea de género gramatical,2024.2.2,Win32,60.24096386,,,,,,,,,,,,,,,,,,,,,,,599.3847,600.8832,l,1,[],[],[],[],[],[],[],0.818,1,600.8834,601.3828,,,,,,1114,MAS,DIS,150,fondo,la,l,0.818,,601.383,601.3833,-0.444010417,-0.3828125,0,0,0,,0,189,189,213,1,,,,
,,,,,,0feda8bf7762d0a5039b6475,66a626ef09d4e21e1a8894ec,673497d09c2f4e932246753a,2024-11-13_13h14.05.088,Tarea de género gramatical,2024.2.2,Win32,60.24096386,,,,,,,,,,,,,,,,,,,,,,,601.3854,602.6824,a,1,[],[],[],[],[],[],[],0.6176,1,602.6826,603.183,,,,,,1297,FEM,DIS,150,cuerda,el,a,0.6176,,603.1831,603.1835,-0.444010417,-0.3828125,0,0,0,,0,190,190,396,1,,,,
,,,,,,0feda8bf7762d0a5039b6475,66a626ef09d4e21e1a8894ec,673497d09c2f4e932246753a,2024-11-13_13h14.05.088,Tarea de género gramatical,2024.2.2,Win32,60.24096386,,,,,,,,,,,,,,,,,,,,,,,603.1852,604.6665,a,1,[],[],[],[],[],[],[],0.8062,1,604.6667,605.1668,,,,,,1341,FEM,CON,150,medida,,a,0.8062,,605.1687,605.1703,-0.444010417,-0.3828125,0,0,0,,0,191,191,440,1,,,,
,,,,,,0feda8bf7762d0a5039b6475,66a626ef09d4e21e1a8894ec,673497d09c2f4e932246753a,2024-11-13_13h14.05.088,Tarea de género gramatical,2024.2.2,Win32,60.24096386,,,,,,,,,,,,,,,,,,,,,,,605.1714,606.5998,l,1,[],[],[],[],[],[],[],0.753,1,606.6001,607.0993,,,,,,983,MAS,AGR,150,nene,el,l,0.753,,607.0994,607.0996,-0.444010417,-0.3828125,0,0,0,,0,192,192,82,1,,,,
,,,,,,0feda8bf7762d0a5039b6475,66a626ef09d4e21e1a8894ec,673497d09c2f4e932246753a,2024-11-13_13h14.05.088,Tarea de género gramatical,2024.2.2,Win32,60.24096386,,,,,,,,,,,,,,,,,,,,,,,607.1006,608.4828,a,1,[],[],[],[],[],[],[],0.7053,1,608.483,608.983,,,,,,1231,FEM,DIS,150,cárcel,el,a,0.7053,,608.9831,608.9834,-0.444010417,-0.3828125,0,0,0,,0,193,193,330,1,,,,
,,,,,,0feda8bf7762d0a5039b6475,66a626ef09d4e21e1a8894ec,673497d09c2f4e932246753a,2024-11-13_13h14.05.088,Tarea de género gramatical,2024.2.2,Win32,60.24096386,,,,,,,,,,,,,,,,,,,,,,,608.9852,610.2498,a,1,[],[],[],[],[],[],[],0.5895,1,610.25,610.7498,,,,,,1346,FEM,AGR,150,bañera,la,a,0.5895,,610.75,610.7503,-0.444010417,-0.3828125,0,0,0,,0,194,194,445,1,,,,
,,,,,,0feda8bf7762d0a5039b6475,66a626ef09d4e21e1a8894ec,673497d09c2f4e932246753a,2024-11-13_13h14.05.088,Tarea de género gramatical,2024.2.2,Win32,60.24096386,,,,,,,,,,,,,,,,,,,,,,,610.7518,611.9992,a,1,[],[],[],[],[],[],[],0.5688,1,611.9994,612.4995,,,,,,951,FEM,CON,150,bala,,a,0.5688,,612.5014,612.5032,-0.444010417,-0.3828125,0,0,0,,0,195,195,50,1,,,,
,,,,,,0feda8bf7762d0a5039b6475,66a626ef09d4e21e1a8894ec,673497d09c2f4e932246753a,2024-11-13_13h14.05.088,Tarea de género gramatical,2024.2.2,Win32,60.24096386,,,,,,,,,,,,,,,,,,,,,,,612.5042,613.9829,l,0,[],[],[],[],[],[],[],0.806,0,613.9843,614.4827,,,,,,1261,FEM,DIS,150,oferta,el,a,0.806,,614.4829,614.4833,-0.444010417,-0.3828125,0,0,0,,0,196,196,360,1,,,,
,,,,,,0feda8bf7762d0a5039b6475,66a626ef09d4e21e1a8894ec,673497d09c2f4e932246753a,2024-11-13_13h14.05.088,Tarea de género gramatical,2024.2.2,Win32,60.24096386,,,,,,,,,,,,,,,,,,,,,,,614.4848,616.1493,l,1,[],[],[],[],[],[],[],0.9884,1,616.1505,616.65,,,,,,922,MAS,DIS,150,pelo,la,l,0.9884,,616.6501,616.6504,-0.444010417,-0.3828125,0,0,0,,0,197,197,21,1,,,,
,,,,,,0feda8bf7762d0a5039b6475,66a626ef09d4e21e1a8894ec,673497d09c2f4e932246753a,2024-11-13_13h14.05.088,Tarea de género gramatical,2024.2.2,Win32,60.24096386,,,,,,,,,,,,,,,,,,,,,,,616.6521,617.9496,a,1,[],[],[],[],[],[],[],0.6221,1,617.9498,618.45,,,,,,987,FEM,CON,150,risa,,a,0.6221,,618.4501,618.4504,-0.444010417,-0.3828125,0,0,0,,0,198,198,86,1,,,,
,,,,,,0feda8bf7762d0a5039b6475,66a626ef09d4e21e1a8894ec,673497d09c2f4e932246753a,2024-11-13_13h14.05.088,Tarea de género gramatical,2024.2.2,Win32,60.24096386,,,,,,,,,,,,,,,,,,,,,,,618.4524,620.2166,a,1,[],[],[],[],[],[],[],1.0844,1,620.2168,620.7166,,,,,,938,FEM,AGR,150,obra,la,a,1.0844,,620.7168,620.7171,-0.444010417,-0.3828125,0,0,0,,0,199,199,37,1,,,,
,,,,,,0feda8bf7762d0a5039b6475,66a626ef09d4e21e1a8894ec,673497d09c2f4e932246753a,2024-11-13_13h14.05.088,Tarea de género gramatical,2024.2.2,Win32,60.24096386,,,,,,,,,,,,,,,,,,,,,,,620.719,622.0165,l,1,[],[],[],[],[],[],[],0.6219,1,622.0167,622.5167,,,,,,977,MAS,AGR,150,pico,el,l,0.6219,,622.519,622.5204,-0.444010417,-0.3828125,0,0,0,,0,200,200,76,1,,,,
,,,,,,0feda8bf7762d0a5039b6475,66a626ef09d4e21e1a8894ec,673497d09c2f4e932246753a,2024-11-13_13h14.05.088,Tarea de género gramatical,2024.2.2,Win32,60.24096386,,,,,,,,,,,,,,,,,,,,,,,622.5215,624.2008,l,1,[],[],[],[],[],[],[],1.0026,1,624.2009,624.7001,,,,,,1312,MAS,DIS,150,espejo,la,l,1.0026,,624.7002,624.7005,-0.444010417,-0.3828125,0,0,0,,0,201,201,411,1,,,,
,,,,,,0feda8bf7762d0a5039b6475,66a626ef09d4e21e1a8894ec,673497d09c2f4e932246753a,2024-11-13_13h14.05.088,Tarea de género gramatical,2024.2.2,Win32,60.24096386,,,,,,,,,,,,,,,,,,,,,,,624.7021,626.0992,l,1,[],[],[],[],[],[],[],0.7267,1,626.0993,626.5996,,,,,,1000,MAS,DIS,150,nido,la,l,0.7267,,626.5996,626.5999,-0.444010417,-0.3828125,0,0,0,,0,202,202,99,1,,,,
,,,,,,0feda8bf7762d0a5039b6475,66a626ef09d4e21e1a8894ec,673497d09c2f4e932246753a,2024-11-13_13h14.05.088,Tarea de género gramatical,2024.2.2,Win32,60.24096386,,,,,,,,,,,,,,,,,,,,,,,626.6013,627.9666,a,1,[],[],[],[],[],[],[],0.6849,1,627.9668,628.4667,,,,,,1237,FEM,DIS,150,escena,el,a,0.6849,,628.4669,628.4672,-0.444010417,-0.3828125,0,0,0,,0,203,203,336,1,,,,
,,,,,,0feda8bf7762d0a5039b6475,66a626ef09d4e21e1a8894ec,673497d09c2f4e932246753a,2024-11-13_13h14.05.088,Tarea de género gramatical,2024.2.2,Win32,60.24096386,,,,,,,,,,,,,,,,,,,,,,,628.4687,629.933,a,1,[],[],[],[],[],[],[],0.7844,1,629.9332,630.4333,,,,,,1087,FEM,DIS,150,lista,el,a,0.7844,,630.4353,630.437,-0.444010417,-0.3828125,0,0,0,,0,204,204,186,1,,,,
,,,,,,0feda8bf7762d0a5039b6475,66a626ef09d4e21e1a8894ec,673497d09c2f4e932246753a,2024-11-13_13h14.05.088,Tarea de género gramatical,2024.2.2,Win32,60.24096386,,,,,,,,,,,,,,,,,,,,,,,630.4381,631.8663,l,1,[],[],[],[],[],[],[],0.7509,1,631.8665,632.3668,,,,,,948,MAS,CON,150,loco,,l,0.7509,,632.3669,632.3673,-0.444010417,-0.3828125,0,0,0,,0,205,205,47,1,,,,
,,,,,,0feda8bf7762d0a5039b6475,66a626ef09d4e21e1a8894ec,673497d09c2f4e932246753a,2024-11-13_13h14.05.088,Tarea de género gramatical,2024.2.2,Win32,60.24096386,,,,,,,,,,,,,,,,,,,,,,,632.3694,634.1831,l,1,[],[],[],[],[],[],[],1.1428,1,634.1833,634.6832,,,,,,1199,MAS,AGR,150,rumbo,el,l,1.1428,,634.6833,634.6837,-0.444010417,-0.3828125,0,0,0,,0,206,206,298,1,,,,
,,,,,,0feda8bf7762d0a5039b6475,66a626ef09d4e21e1a8894ec,673497d09c2f4e932246753a,2024-11-13_13h14.05.088,Tarea de género gramatical,2024.2.2,Win32,60.24096386,,,,,,,,,,,,,,,,,,,,,,,634.6852,636.2003,l,1,[],[],[],[],[],[],[],0.8382,1,636.2005,636.6996,,,,,,1181,MAS,AGR,150,actor,el,l,0.8382,,636.6997,636.6999,-0.444010417,-0.3828125,0,0,0,,0,207,207,280,1,,,,
,,,,,,0feda8bf7762d0a5039b6475,66a626ef09d4e21e1a8894ec,673497d09c2f4e932246753a,2024-11-13_13h14.05.088,Tarea de género gramatical,2024.2.2,Win32,60.24096386,,,,,,,,,,,,,,,,,,,,,,,636.7016,638.2501,l,1,[],[],[],[],[],[],[],0.8713,1,638.2502,638.7501,,,,,,1301,MAS,AGR,150,abrigo,el,l,0.8713,,638.7503,638.7506,-0.444010417,-0.3828125,0,0,0,,0,208,208,400,1,,,,
,,,,,,0feda8bf7762d0a5039b6475,66a626ef09d4e21e1a8894ec,673497d09c2f4e932246753a,2024-11-13_13h14.05.088,Tarea de género gramatical,2024.2.2,Win32,60.24096386,,,,,,,,,,,,,,,,,,,,,,,638.7523,640.1832,l,1,[],[],[],[],[],[],[],0.7582,1,640.1832,640.683,,,,,,1174,MAS,DIS,150,motor,la,l,0.7582,,640.6854,640.6872,-0.444010417,-0.3828125,0,0,0,,0,209,209,273,1,,,,
,,,,,,0feda8bf7762d0a5039b6475,66a626ef09d4e21e1a8894ec,673497d09c2f4e932246753a,2024-11-13_13h14.05.088,Tarea de género gramatical,2024.2.2,Win32,60.24096386,,,,,,,,,,,,,,,,,,,,,,,640.6885,641.983,l,1,[],[],[],[],[],[],[],0.6174,1,641.9832,642.4829,,,,,,1007,MAS,AGR,150,cubo,el,l,0.6174,,642.4831,642.4833,-0.444010417,-0.3828125,0,0,0,,0,210,210,106,1,,,,
,,,,,,0feda8bf7762d0a5039b6475,66a626ef09d4e21e1a8894ec,673497d09c2f4e932246753a,2024-11-13_13h14.05.088,Tarea de género gramatical,2024.2.2,Win32,60.24096386,,,,,,,,,,,,,,,,,,,,,,,642.4847,643.7502,a,1,[],[],[],[],[],[],[],0.5858,1,643.7505,644.2495,,,,,,1041,FEM,CON,150,cera,,a,0.5858,,644.2496,644.2498,-0.444010417,-0.3828125,0,0,0,,0,211,211,140,1,,,,
,,,,,,0feda8bf7762d0a5039b6475,66a626ef09d4e21e1a8894ec,673497d09c2f4e932246753a,2024-11-13_13h14.05.088,Tarea de género gramatical,2024.2.2,Win32,60.24096386,,,,,,,,,,,,,,,,,,,,,,,644.2525,645.6329,a,1,[],[],[],[],[],[],[],0.7107,1,645.6331,646.133,,,,,,1065,FEM,CON,150,amiga,,a,0.7107,,646.1331,646.1333,-0.444010417,-0.3828125,0,0,0,,0,212,212,164,1,,,,
,,,,,,0feda8bf7762d0a5039b6475,66a626ef09d4e21e1a8894ec,673497d09c2f4e932246753a,2024-11-13_13h14.05.088,Tarea de género gramatical,2024.2.2,Win32,60.24096386,,,,,,,,,,,,,,,,,,,,,,,646.1348,647.384,l,1,[],[],[],[],[],[],[],0.5777,1,647.3841,647.883,,,,,,1092,MAS,CON,150,grupo,,l,0.5777,,647.8848,647.8865,-0.444010417,-0.3828125,0,0,0,,0,213,213,191,1,,,,
,,,,,,0feda8bf7762d0a5039b6475,66a626ef09d4e21e1a8894ec,673497d09c2f4e932246753a,2024-11-13_13h14.05.088,Tarea de género gramatical,2024.2.2,Win32,60.24096386,,,,,,,,,,,,,,,,,,,,,,,647.8876,649.5832,a,0,[],[],[],[],[],[],[],1.0225,0,649.585,650.0834,,,,,,1260,MAS,CON,150,puente,,l,1.0225,,650.0835,650.0837,-0.444010417,-0.3828125,0,0,0,,0,214,214,359,1,,,,
,,,,,,0feda8bf7762d0a5039b6475,66a626ef09d4e21e1a8894ec,673497d09c2f4e932246753a,2024-11-13_13h14.05.088,Tarea de género gramatical,2024.2.2,Win32,60.24096386,,,,,,,,,,,,,,,,,,,,,,,650.0857,651.8332,a,1,[],[],[],[],[],[],[],1.0672,1,651.8342,652.3331,,,,,,1197,FEM,CON,150,manta,,a,1.0672,,652.3332,652.3334,-0.444010417,-0.3828125,0,0,0,,0,215,215,296,1,,,,
,,,,,,0feda8bf7762d0a5039b6475,66a626ef09d4e21e1a8894ec,673497d09c2f4e932246753a,2024-11-13_13h14.05.088,Tarea de género gramatical,2024.2.2,Win32,60.24096386,,,,,,,,,,,,,,,,,,,,,,,652.3353,653.5837,l,1,[],[],[],[],[],[],[],0.5757,1,653.5838,654.0832,,,,,,1044,MAS,CON,150,amor,,l,0.5757,,654.0833,654.0834,-0.444010417,-0.3828125,0,0,0,,0,216,216,143,1,,,,
,,,,,,0feda8bf7762d0a5039b6475,66a626ef09d4e21e1a8894ec,673497d09c2f4e932246753a,2024-11-13_13h14.05.088,Tarea de género gramatical,2024.2.2,Win32,60.24096386,,,,,,,,,,,,,,,,,,,,,,,654.0851,655.4502,l,0,[],[],[],[],[],[],[],0.6929,0,655.4513,655.9499,,,,,,1309,FEM,DIS,150,moneda,el,a,0.6929,,655.95,655.9503,-0.444010417,-0.3828125,0,0,0,,0,217,217,408,1,,,,
,,,,,,0feda8bf7762d0a5039b6475,66a626ef09d4e21e1a8894ec,673497d09c2f4e932246753a,2024-11-13_13h14.05.088,Tarea de género gramatical,2024.2.2,Win32,60.24096386,,,,,,,,,,,,,,,,,,,,,,,655.952,657.783,a,1,[],[],[],[],[],[],[],1.1604,1,657.7841,658.2834,,,,,,1334,FEM,AGR,150,corona,la,a,1.1604,,658.2856,658.2874,-0.444010417,-0.3828125,0,0,0,,0,218,218,433,1,,,,
,,,,,,0feda8bf7762d0a5039b6475,66a626ef09d4e21e1a8894ec,673497d09c2f4e932246753a,2024-11-13_13h14.05.088,Tarea de género gramatical,2024.2.2,Win32,60.24096386,,,,,,,,,,,,,,,,,,,,,,,658.2885,659.75,l,1,[],[],[],[],[],[],[],0.7902,1,659.7502,660.2501,,,,,,1001,MAS,AGR,150,giro,el,l,0.7902,,660.2502,660.2505,-0.444010417,-0.3828125,0,0,0,,0,219,219,100,1,,,,
,,,,,,0feda8bf7762d0a5039b6475,66a626ef09d4e21e1a8894ec,673497d09c2f4e932246753a,2024-11-13_13h14.05.088,Tarea de género gramatical,2024.2.2,Win32,60.24096386,,,,,,,,,,,,,,,,,,,,,,,660.252,661.6334,l,1,[],[],[],[],[],[],[],0.7007,1,661.6336,662.1334,,,,,,1320,MAS,CON,150,helado,,l,0.7007,,662.1335,662.1338,-0.444010417,-0.3828125,0,0,0,,0,220,220,419,1,,,,
,,,,,,0feda8bf7762d0a5039b6475,66a626ef09d4e21e1a8894ec,673497d09c2f4e932246753a,2024-11-13_13h14.05.088,Tarea de género gramatical,2024.2.2,Win32,60.24096386,,,,,,,,,,,,,,,,,,,,,,,662.1366,663.401,l,1,[],[],[],[],[],[],[],0.5942,1,663.4012,663.9001,,,,,,1211,MAS,AGR,150,camino,el,l,0.5942,,663.9002,663.9005,-0.444010417,-0.3828125,0,0,0,,0,221,221,310,1,,,,
,,,,,,0feda8bf7762d0a5039b6475,66a626ef09d4e21e1a8894ec,673497d09c2f4e932246753a,2024-11-13_13h14.05.088,Tarea de género gramatical,2024.2.2,Win32,60.24096386,,,,,,,,,,,,,,,,,,,,,,,663.9021,665.2506,l,1,[],[],[],[],[],[],[],0.6704,1,665.2508,665.7506,,,,,,1170,MAS,CON,150,queso,,l,0.6704,,665.7527,665.7544,-0.444010417,-0.3828125,0,0,0,,0,222,222,269,1,,,,
,,,,,,0feda8bf7762d0a5039b6475,66a626ef09d4e21e1a8894ec,673497d09c2f4e932246753a,2024-11-13_13h14.05.088,Tarea de género gramatical,2024.2.2,Win32,60.24096386,,,,,,,,,,,,,,,,,,,,,,,665.7556,667.0665,a,1,[],[],[],[],[],[],[],0.6431,1,667.0666,667.5671,,,,,,1317,FEM,CON,150,cabaña,,a,0.6431,,667.5673,667.5676,-0.444010417,-0.3828125,0,0,0,,0,223,223,416,1,,,,
,,,,,,0feda8bf7762d0a5039b6475,66a626ef09d4e21e1a8894ec,673497d09c2f4e932246753a,2024-11-13_13h14.05.088,Tarea de género gramatical,2024.2.2,Win32,60.24096386,,,,,,,,,,,,,,,,,,,,,,,667.5694,668.9006,l,1,[],[],[],[],[],[],[],0.6557,1,668.9008,669.4005,,,,,,1254,MAS,CON,150,camión,,l,0.6557,,669.4007,669.401,-0.444010417,-0.3828125,0,0,0,,0,224,224,353,1,,,,
,,,,,,0feda8bf7762d0a5039b6475,66a626ef09d4e21e1a8894ec,673497d09c2f4e932246753a,2024-11-13_13h14.05.088,Tarea de género gramatical,2024.2.2,Win32,60.24096386,,,,,,,,,,,,,,,,,,,,,,,669.4029,670.7832,l,1,[],[],[],[],[],[],[],0.7112,1,670.7834,671.2836,,,,,,1296,MAS,CON,150,tesoro,,l,0.7112,,671.2838,671.2841,-0.444010417,-0.3828125,0,0,0,,0,225,225,395,1,,,,
,,,,,,0feda8bf7762d0a5039b6475,66a626ef09d4e21e1a8894ec,673497d09c2f4e932246753a,2024-11-13_13h14.05.088,Tarea de género gramatical,2024.2.2,Win32,60.24096386,,,,,,,,,,,,,,,,,,,,,,,671.286,672.65,a,1,[],[],[],[],[],[],[],0.683,1,672.6503,673.15,,,,,,1196,FEM,AGR,150,feria,la,a,0.683,,673.1502,673.1505,-0.444010417,-0.3828125,0,0,0,,0,226,226,295,1,,,,
,,,,,,0feda8bf7762d0a5039b6475,66a626ef09d4e21e1a8894ec,673497d09c2f4e932246753a,2024-11-13_13h14.05.088,Tarea de género gramatical,2024.2.2,Win32,60.24096386,,,,,,,,,,,,,,,,,,,,,,,673.1521,674.3835,a,1,[],[],[],[],[],[],[],0.5559,1,674.3837,674.8834,,,,,,921,FEM,CON,150,boca,,a,0.5559,,674.8853,674.8871,-0.444010417,-0.3828125,0,0,0,,0,227,227,20,1,,,,
,,,,,,0feda8bf7762d0a5039b6475,66a626ef09d4e21e1a8894ec,673497d09c2f4e932246753a,2024-11-13_13h14.05.088,Tarea de género gramatical,2024.2.2,Win32,60.24096386,,,,,,,,,,,,,,,,,,,,,,,674.8881,676.2003,l,1,[],[],[],[],[],[],[],0.6411,1,676.2006,676.7003,,,,,,995,MAS,AGR,150,tomo,el,l,0.6411,,676.7004,676.7008,-0.444010417,-0.3828125,0,0,0,,0,228,228,94,1,,,,
,,,,,,0feda8bf7762d0a5039b6475,66a626ef09d4e21e1a8894ec,673497d09c2f4e932246753a,2024-11-13_13h14.05.088,Tarea de género gramatical,2024.2.2,Win32,60.24096386,,,,,,,,,,,,,,,,,,,,,,,676.7025,678.434,a,1,[],[],[],[],[],[],[],1.0517,1,678.4342,678.934,,,,,,943,FEM,DIS,150,nena,el,a,1.0517,,678.9342,678.9345,-0.444010417,-0.3828125,0,0,0,,0,229,229,42,1,,,,
,,,,,,0feda8bf7762d0a5039b6475,66a626ef09d4e21e1a8894ec,673497d09c2f4e932246753a,2024-11-13_13h14.05.088,Tarea de género gramatical,2024.2.2,Win32,60.24096386,,,,,,,,,,,,,,,,,,,,,,,678.9359,680.5005,a,1,[],[],[],[],[],[],[],0.8907,1,680.5007,681.0007,,,,,,974,FEM,AGR,150,flor,la,a,0.8907,,681.0008,681.0011,-0.444010417,-0.3828125,0,0,0,,0,230,230,73,1,,,,
,,,,,,0feda8bf7762d0a5039b6475,66a626ef09d4e21e1a8894ec,673497d09c2f4e932246753a,2024-11-13_13h14.05.088,Tarea de género gramatical,2024.2.2,Win32,60.24096386,,,,,,,,,,,,,,,,,,,,,,,681.0029,682.2009,a,1,[],[],[],[],[],[],[],0.5188,1,682.2011,682.7005,,,,,,1239,FEM,CON,150,salida,,a,0.5188,,682.7027,682.7043,-0.444010417,-0.3828125,0,0,0,,0,231,231,338,1,,,,
,,,,,,0feda8bf7762d0a5039b6475,66a626ef09d4e21e1a8894ec,673497d09c2f4e932246753a,2024-11-13_13h14.05.088,Tarea de género gramatical,2024.2.2,Win32,60.24096386,,,,,,,,,,,,,,,,,,,,,,,682.7055,683.9676,a,1,[],[],[],[],[],[],[],0.5878,1,683.9678,684.4669,,,,,,1172,FEM,AGR,150,oreja,la,a,0.5878,,684.467,684.4671,-0.444010417,-0.3828125,0,0,0,,0,232,232,271,1,,,,
,,,,,,0feda8bf7762d0a5039b6475,66a626ef09d4e21e1a8894ec,673497d09c2f4e932246753a,2024-11-13_13h14.05.088,Tarea de género gramatical,2024.2.2,Win32,60.24096386,,,,,,,,,,,,,,,,,,,,,,,684.4688,685.8006,l,1,[],[],[],[],[],[],[],0.6529,1,685.8008,686.3,,,,,,1332,MAS,CON,150,océano,,l,0.6529,,686.3,686.3002,-0.444010417,-0.3828125,0,0,0,,0,233,233,431,1,,,,
,,,,,,0feda8bf7762d0a5039b6475,66a626ef09d4e21e1a8894ec,673497d09c2f4e932246753a,2024-11-13_13h14.05.088,Tarea de género gramatical,2024.2.2,Win32,60.24096386,,,,,,,,,,,,,,,,,,,,,,,686.3028,687.8004,a,1,[],[],[],[],[],[],[],0.8245,1,687.8005,688.3005,,,,,,1189,FEM,DIS,150,tabla,el,a,0.8245,,688.3006,688.3009,-0.444010417,-0.3828125,0,0,0,,0,234,234,288,1,,,,
,,,,,,0feda8bf7762d0a5039b6475,66a626ef09d4e21e1a8894ec,673497d09c2f4e932246753a,2024-11-13_13h14.05.088,Tarea de género gramatical,2024.2.2,Win32,60.24096386,,,,,,,,,,,,,,,,,,,,,,,688.3031,689.7671,l,1,[],[],[],[],[],[],[],0.7808,1,689.7672,690.2666,,,,,,935,MAS,AGR,150,taxi,el,l,0.7808,,690.2666,690.2668,-0.444010417,-0.3828125,0,0,0,,0,235,235,34,1,,,,
,,,,,,0feda8bf7762d0a5039b6475,66a626ef09d4e21e1a8894ec,673497d09c2f4e932246753a,2024-11-13_13h14.05.088,Tarea de género gramatical,2024.2.2,Win32,60.24096386,,,,,,,,,,,,,,,,,,,,,,,690.268,691.5671,l,1,[],[],[],[],[],[],[],0.6189,1,691.5672,692.0667,,,,,,1270,MAS,DIS,150,seguro,la,l,0.6189,,692.0684,692.0701,-0.444010417,-0.3828125,0,0,0,,0,236,236,369,1,,,,
,,,,,,0feda8bf7762d0a5039b6475,66a626ef09d4e21e1a8894ec,673497d09c2f4e932246753a,2024-11-13_13h14.05.088,Tarea de género gramatical,2024.2.2,Win32,60.24096386,,,,,,,,,,,,,,,,,,,,,,,692.0711,693.5343,a,0,[],[],[],[],[],[],[],0.7846,0,693.5357,694.034,,,,,,1240,MAS,DIS,150,pasado,la,l,0.7846,,694.0342,694.0344,-0.444010417,-0.3828125,0,0,0,,0,237,237,339,1,,,,
,,,,,,0feda8bf7762d0a5039b6475,66a626ef09d4e21e1a8894ec,673497d09c2f4e932246753a,2024-11-13_13h14.05.088,Tarea de género gramatical,2024.2.2,Win32,60.24096386,,,,,,,,,,,,,,,,,,,,,,,694.0363,695.367,l,1,[],[],[],[],[],[],[],0.6507,1,695.3683,695.8672,,,,,,1050,MAS,CON,150,mozo,,l,0.6507,,695.8672,695.8674,-0.444010417,-0.3828125,0,0,0,,0,238,238,149,1,,,,
,,,,,,0feda8bf7762d0a5039b6475,66a626ef09d4e21e1a8894ec,673497d09c2f4e932246753a,2024-11-13_13h14.05.088,Tarea de género gramatical,2024.2.2,Win32,60.24096386,,,,,,,,,,,,,,,,,,,,,,,695.8692,697.3009,a,1,[],[],[],[],[],[],[],0.7515,1,697.3011,697.8009,,,,,,1221,FEM,CON,150,comida,,a,0.7515,,697.801,697.8013,-0.444010417,-0.3828125,0,0,0,,0,239,239,320,1,,,,
,,,,,,0feda8bf7762d0a5039b6475,66a626ef09d4e21e1a8894ec,673497d09c2f4e932246753a,2024-11-13_13h14.05.088,Tarea de género gramatical,2024.2.2,Win32,60.24096386,,,,,,,,,,,,,,,,,,,,,,,697.8032,699.2672,l,1,[],[],[],[],[],[],[],0.7889,1,699.2674,699.7671,,,,,,910,MAS,DIS,150,niño,la,l,0.7889,,699.769,699.7705,-0.444010417,-0.3828125,0,0,0,,0,240,240,9,1,,,,
,,,,,,0feda8bf7762d0a5039b6475,66a626ef09d4e21e1a8894ec,673497d09c2f4e932246753a,2024-11-13_13h14.05.088,Tarea de género gramatical,2024.2.2,Win32,60.24096386,,,,,,,,,,,,,,,,,,,,,,,699.7716,701.5343,a,1,[],[],[],[],[],[],[],1.0843,1,701.5345,702.034,,,,,,956,FEM,AGR,150,bola,la,a,1.0843,,702.0341,702.0345,-0.444010417,-0.3828125,0,0,0,,0,241,241,55,1,,,,
,,,,,,0feda8bf7762d0a5039b6475,66a626ef09d4e21e1a8894ec,673497d09c2f4e932246753a,2024-11-13_13h14.05.088,Tarea de género gramatical,2024.2.2,Win32,60.24096386,,,,,,,,,,,,,,,,,,,,,,,702.0361,704.1672,a,1,[],[],[],[],[],[],[],1.4514,1,704.1674,704.6672,,,,,,1154,FEM,AGR,150,caída,la,a,1.4514,,704.6673,704.6681,-0.444010417,-0.3828125,0,0,0,,0,242,242,253,1,,,,
,,,,,,0feda8bf7762d0a5039b6475,66a626ef09d4e21e1a8894ec,673497d09c2f4e932246753a,2024-11-13_13h14.05.088,Tarea de género gramatical,2024.2.2,Win32,60.24096386,,,,,,,,,,,,,,,,,,,,,,,704.6702,705.9339,l,1,[],[],[],[],[],[],[],0.5839,1,705.9341,706.434,,,,,,1042,MAS,DIS,150,lodo,la,l,0.5839,,706.434,706.4343,-0.444010417,-0.3828125,0,0,0,,0,243,243,141,1,,,,
,,,,,,0feda8bf7762d0a5039b6475,66a626ef09d4e21e1a8894ec,673497d09c2f4e932246753a,2024-11-13_13h14.05.088,Tarea de género gramatical,2024.2.2,Win32,60.24096386,,,,,,,,,,,,,,,,,,,,,,,706.4363,707.8008,l,1,[],[],[],[],[],[],[],0.6915,1,707.801,708.301,,,,,,1024,MAS,DIS,150,clan,la,l,0.6915,,708.3012,708.3014,-0.444010417,-0.3828125,0,0,0,,0,244,244,123,1,,,,
,,,,,,0feda8bf7762d0a5039b6475,66a626ef09d4e21e1a8894ec,673497d09c2f4e932246753a,2024-11-13_13h14.05.088,Tarea de género gramatical,2024.2.2,Win32,60.24096386,,,,,,,,,,,,,,,,,,,,,,,708.3037,709.6833,l,1,[],[],[],[],[],[],[],0.7013,1,709.6833,710.1834,,,,,,958,MAS,DIS,150,mono,la,l,0.7013,,710.1845,710.186,-0.444010417,-0.3828125,0,0,0,,0,245,245,57,1,,,,
,,,,,,0feda8bf7762d0a5039b6475,66a626ef09d4e21e1a8894ec,673497d09c2f4e932246753a,2024-11-13_13h14.05.088,Tarea de género gramatical,2024.2.2,Win32,60.24096386,,,,,,,,,,,,,,,,,,,,,,,710.1865,711.4174,l,1,[],[],[],[],[],[],[],0.557,1,711.4177,711.9172,,,,,,1061,MAS,AGR,150,chico,el,l,0.557,,711.9172,711.9174,-0.444010417,-0.3828125,0,0,0,,0,246,246,160,1,,,,
,,,,,,0feda8bf7762d0a5039b6475,66a626ef09d4e21e1a8894ec,673497d09c2f4e932246753a,2024-11-13_13h14.05.088,Tarea de género gramatical,2024.2.2,Win32,60.24096386,,,,,,,,,,,,,,,,,,,,,,,711.919,713.201,a,1,[],[],[],[],[],[],[],0.6006,1,713.2012,713.701,,,,,,1046,FEM,AGR,150,lana,la,a,0.6006,,713.7012,713.7014,-0.444010417,-0.3828125,0,0,0,,0,247,247,145,1,,,,
,,,,,,0feda8bf7762d0a5039b6475,66a626ef09d4e21e1a8894ec,673497d09c2f4e932246753a,2024-11-13_13h14.05.088,Tarea de género gramatical,2024.2.2,Win32,60.24096386,,,,,,,,,,,,,,,,,,,,,,,713.7032,715.1001,a,1,[],[],[],[],[],[],[],0.7168,1,715.1003,715.6013,,,,,,1299,FEM,CON,150,charla,,a,0.7168,,715.6014,715.6017,-0.444010417,-0.3828125,0,0,0,,0,248,248,398,1,,,,
,,,,,,0feda8bf7762d0a5039b6475,66a626ef09d4e21e1a8894ec,673497d09c2f4e932246753a,2024-11-13_13h14.05.088,Tarea de género gramatical,2024.2.2,Win32,60.24096386,,,,,,,,,,,,,,,,,,,,,,,715.6033,716.8677,l,1,[],[],[],[],[],[],[],0.5858,1,716.8679,717.3678,,,,,,1277,MAS,AGR,150,jardín,el,l,0.5858,,717.3698,717.3713,-0.444010417,-0.3828125,0,0,0,,0,249,249,376,1,,,,
,,,,,,0feda8bf7762d0a5039b6475,66a626ef09d4e21e1a8894ec,673497d09c2f4e932246753a,2024-11-13_13h14.05.088,Tarea de género gramatical,2024.2.2,Win32,60.24096386,,,,,,,,,,,,,,,,,,,,,,,717.3727,718.6006,l,1,[],[],[],[],[],[],[],0.5566,1,718.6009,719.1009,,,,,,1073,MAS,AGR,150,libro,el,l,0.5566,,719.101,719.1015,-0.444010417,-0.3828125,0,0,0,,0,250,250,172,1,,,,
,,,,,,0feda8bf7762d0a5039b6475,66a626ef09d4e21e1a8894ec,673497d09c2f4e932246753a,2024-11-13_13h14.05.088,Tarea de género gramatical,2024.2.2,Win32,60.24096386,,,,,,,,,,,,,,,,,,,,,,,719.1032,720.4841,a,1,[],[],[],[],[],[],[],0.7013,1,720.4843,720.9846,,,,,,1335,FEM,CON,150,niebla,,a,0.7013,,720.9847,720.985,-0.444010417,-0.3828125,0,0,0,,0,251,251,434,1,,,,
