counterbalancing_condition,consent_prescreening.block_1/declare_consent,consent_prescreening.block_1/age_years,consent_prescreening.block_1/gender,consent_prescreening.block_1/language_disorder,consent_prescreening.block_1/first_language,consent_prescreening.block_1/first_language-Comment,PROLIFIC_PID,STUDY_ID,SESSION_ID,date,expName,psychopyVersion,OS,frameRate,check_prescreening_answers.started,check_prescreening_answers.stopped,Instructions.started,Instructions.stopped,instr_done_keyboard.keys,instr_done_keyboard.rt,instr_done_keyboard.duration,instr_done_touch.x,instr_done_touch.y,instr_done_touch.leftButton,instr_done_touch.midButton,instr_done_touch.rightButton,instruction_pages.thisRepN,instruction_pages.thisTrialN,instruction_pages.thisN,instruction_pages.thisIndex,instruction_pages.ran,pageN,phase,instruct_text,has_image,instruct_image,presentTrial.started,presentTrial.stopped,response.keys,response.corr,response.rt,response.duration,touch_resp.x,touch_resp.y,touch_resp.leftButton,touch_resp.midButton,touch_resp.rightButton,touch_resp.time,touch_resp.clicked_name,rt,corr,feedback.started,feedback.stopped,practice_trials.thisRepN,practice_trials.thisTrialN,practice_trials.thisN,practice_trials.thisIndex,practice_trials.ran,TrialID,StimulusType,Condition,PrimeDuration,Prime,Flanker,corrAns,Break.started,Break.stopped,break_done_touch.x,break_done_touch.y,break_done_touch.leftButton,break_done_touch.midButton,break_done_touch.rightButton,break_done_keyboard.keys,experiment_trials.thisRepN,experiment_trials.thisTrialN,experiment_trials.thisN,experiment_trials.thisIndex,experiment_trials.ran,break_done_keyboard.rt,break_done_keyboard.duration,break_done_touch.clicked_name,End.started,End.stopped
0,"[""over_18"",""comfortable"",""read_info"",""consent_given""]",44,F,"[""none""]","[""spanish"",""other""]",Holandes,15400e5201bad12de12eab93,66a626ef09d4e21e1a8894ec,67373fc98fdcff78025e0fa1,2024-11-15_12h34.45.027,Tarea de género gramatical,2024.2.2,Win32,59.88023952,,,,,,,,,,,,,,,,,,,,,,,,,,,,,,,,,,,,,,,,,,,,,,,,,,,,,,,,,,,,,,,,,,,,,
,,,,,,,15400e5201bad12de12eab93,66a626ef09d4e21e1a8894ec,67373fc98fdcff78025e0fa1,2024-11-15_12h34.45.027,Tarea de género gramatical,2024.2.2,Win32,59.88023952,35.1508,35.151,,,,,,,,,,,,,,,,,,,,,,,,,,,,,,,,,,,,,,,,,,,,,,,,,,,,,,,,,,,,,,,,,,,
,,,,,,,15400e5201bad12de12eab93,66a626ef09d4e21e1a8894ec,67373fc98fdcff78025e0fa1,2024-11-15_12h34.45.027,Tarea de género gramatical,2024.2.2,Win32,59.88023952,,,35.1789,50.77,space,15.5445,,-0.067592536,-0.393518575,0,0,0,0,0,0,0,1,1,instructions,"INSTRUCCIONES
Va a realizar una prueba de selección gramatical. Desde el comienzo de la prueba mire siempre al centro de la pantalla. Al cabo de un momento, aparecerán palabras. La tarea consiste en determinar si la palabra del centro (siempre será un sustantivo), pertenece al género masculino o femenino.

Pulse la tecla ESPACIO o toque el botón de abajo para continuar.",0,keyboardresponseFM.png,,,,,,,,,,,,,,,,,,,,,,,,,,,,,,,,,,,,,,,,,,,,,,,
,,,,,,,15400e5201bad12de12eab93,66a626ef09d4e21e1a8894ec,67373fc98fdcff78025e0fa1,2024-11-15_12h34.45.027,Tarea de género gramatical,2024.2.2,Win32,59.88023952,,,50.7734,61.298,space,10.4554,,0.515740797,-0.188888889,0,0,0,0,1,1,1,1,2,instructions,"Si su dispositivo tiene teclado, pulse la tecla ""A"" para las palabras en femenino (por ejemplo: ""mano"") y la tecla ""L"" para las palabras en masculino(por ejemplo: ""arroz"").
Pulse la tecla ESPACIO o toque el botón de abajo para continuar.",1,keyboardresponseFM.png,,,,,,,,,,,,,,,,,,,,,,,,,,,,,,,,,,,,,,,,,,,,,,,
,,,,,,,15400e5201bad12de12eab93,66a626ef09d4e21e1a8894ec,67373fc98fdcff78025e0fa1,2024-11-15_12h34.45.027,Tarea de género gramatical,2024.2.2,Win32,59.88023952,,,61.3025,65.4643,space,4.1054,,0.515740797,-0.188888889,0,0,0,0,2,2,2,1,3,instructions,"Si utiliza un dispositivo sólo táctil, colóquelo en horizontal y utilice los botones de la pantalla. No utilice el ratón.
Pulse la tecla ESPACIO o toque el botón de abajo para continuar.",2,touchresponseFM.png,,,,,,,,,,,,,,,,,,,,,,,,,,,,,,,,,,,,,,,,,,,,,,,
,,,,,,,15400e5201bad12de12eab93,66a626ef09d4e21e1a8894ec,67373fc98fdcff78025e0fa1,2024-11-15_12h34.45.027,Tarea de género gramatical,2024.2.2,Win32,59.88023952,,,65.4717,80.3914,space,14.9023,,0.515740797,-0.188888889,0,0,0,0,3,3,3,1,4,instructions,"Es muy importante que responda con la mayor rapidez y precisión posibles, ya que cada cadena de letras sólo estará en pantalla durante un instante. Si no responde en ese tiempo, aparecerá el mensaje ""Muy lento"" y el experimento pasará a la siguiente palabra. Los primeros 15 intentos serán de práctica y habrá dos descansos durante la prueba.
Pulse la tecla ESPACIO o toque el botón de abajo para iniciar la parte de práctica.",0,keyboardresponseFM.png,,,,,,,,,,,,,,,,,,,,,,,,,,,,,,,,,,,,,,,,,,,,,,,
,,,,,,,15400e5201bad12de12eab93,66a626ef09d4e21e1a8894ec,67373fc98fdcff78025e0fa1,2024-11-15_12h34.45.027,Tarea de género gramatical,2024.2.2,Win32,59.88023952,,,,,,,,,,,,,,,,,,,,,,,80.415,82.6738,a,0,1.5843,,[],[],[],[],[],[],[],1.5843,0,82.6744,83.1744,0,0,0,11,1,2012,MAS,DIS,150,clima,la,l,,,,,,,,,,,,,,,,,,
,,,,,,,15400e5201bad12de12eab93,66a626ef09d4e21e1a8894ec,67373fc98fdcff78025e0fa1,2024-11-15_12h34.45.027,Tarea de género gramatical,2024.2.2,Win32,59.88023952,,,,,,,,,,,,,,,,,,,,,,,83.179,84.5725,a,1,0.7219,,[],[],[],[],[],[],[],0.7219,1,84.5737,85.0724,0,1,1,1,1,2002,FEM,CON,150,pala,,a,,,,,,,,,,,,,,,,,,
,,,,,,,15400e5201bad12de12eab93,66a626ef09d4e21e1a8894ec,67373fc98fdcff78025e0fa1,2024-11-15_12h34.45.027,Tarea de género gramatical,2024.2.2,Win32,59.88023952,,,,,,,,,,,,,,,,,,,,,,,85.0754,87.1385,a,1,1.4007,,[],[],[],[],[],[],[],1.4007,1,87.1387,87.6394,0,2,2,3,1,2004,FEM,AGR,150,venta,la,a,,,,,,,,,,,,,,,,,,
,,,,,,,15400e5201bad12de12eab93,66a626ef09d4e21e1a8894ec,67373fc98fdcff78025e0fa1,2024-11-15_12h34.45.027,Tarea de género gramatical,2024.2.2,Win32,59.88023952,,,,,,,,,,,,,,,,,,,,,,,87.6417,89.1054,a,1,0.7878,,[],[],[],[],[],[],[],0.7878,1,89.1056,89.6049,0,3,3,4,1,2005,FEM,CON,150,placa,,a,,,,,,,,,,,,,,,,,,
,,,,,,,15400e5201bad12de12eab93,66a626ef09d4e21e1a8894ec,67373fc98fdcff78025e0fa1,2024-11-15_12h34.45.027,Tarea de género gramatical,2024.2.2,Win32,59.88023952,,,,,,,,,,,,,,,,,,,,,,,89.6092,91.0047,l,0,0.717,,[],[],[],[],[],[],[],0.717,0,91.0063,91.5041,0,4,4,2,1,2003,FEM,DIS,150,daga,el,a,,,,,,,,,,,,,,,,,,
,,,,,,,15400e5201bad12de12eab93,66a626ef09d4e21e1a8894ec,67373fc98fdcff78025e0fa1,2024-11-15_12h34.45.027,Tarea de género gramatical,2024.2.2,Win32,59.88023952,,,,,,,,,,,,,,,,,,,,,,,91.5072,93.1863,a,1,1.009,,[],[],[],[],[],[],[],1.009,1,93.1869,93.6869,0,5,5,7,1,2008,FEM,CON,150,siesta,,a,,,,,,,,,,,,,,,,,,
,,,,,,,15400e5201bad12de12eab93,66a626ef09d4e21e1a8894ec,67373fc98fdcff78025e0fa1,2024-11-15_12h34.45.027,Tarea de género gramatical,2024.2.2,Win32,59.88023952,,,,,,,,,,,,,,,,,,,,,,,93.6881,95.169,l,1,0.7971,,[],[],[],[],[],[],[],0.7971,1,95.1691,95.6688,0,6,6,10,1,2011,MAS,CON,150,canal,,l,,,,,,,,,,,,,,,,,,
,,,,,,,15400e5201bad12de12eab93,66a626ef09d4e21e1a8894ec,67373fc98fdcff78025e0fa1,2024-11-15_12h34.45.027,Tarea de género gramatical,2024.2.2,Win32,59.88023952,,,,,,,,,,,,,,,,,,,,,,,95.6709,97.019,l,1,0.6853,,[],[],[],[],[],[],[],0.6853,1,97.0191,97.5193,0,7,7,12,1,2013,MAS,AGR,150,acero,el,l,,,,,,,,,,,,,,,,,,
,,,,,,,15400e5201bad12de12eab93,66a626ef09d4e21e1a8894ec,67373fc98fdcff78025e0fa1,2024-11-15_12h34.45.027,Tarea de género gramatical,2024.2.2,Win32,59.88023952,,,,,,,,,,,,,,,,,,,,,,,97.5211,99.1519,a,1,0.954,,[],[],[],[],[],[],[],0.954,1,99.1521,99.6512,0,8,8,5,1,2006,FEM,DIS,150,serie,el,a,,,,,,,,,,,,,,,,,,
,,,,,,,15400e5201bad12de12eab93,66a626ef09d4e21e1a8894ec,67373fc98fdcff78025e0fa1,2024-11-15_12h34.45.027,Tarea de género gramatical,2024.2.2,Win32,59.88023952,,,,,,,,,,,,,,,,,,,,,,,99.6542,100.9169,a,1,0.5903,,[],[],[],[],[],[],[],0.5903,1,100.917,101.4173,0,9,9,0,1,2001,FEM,AGR,150,nuca,la,a,,,,,,,,,,,,,,,,,,
,,,,,,,15400e5201bad12de12eab93,66a626ef09d4e21e1a8894ec,67373fc98fdcff78025e0fa1,2024-11-15_12h34.45.027,Tarea de género gramatical,2024.2.2,Win32,59.88023952,,,,,,,,,,,,,,,,,,,,,,,101.4189,102.7004,l,1,0.6011,,[],[],[],[],[],[],[],0.6011,1,102.7006,103.2007,0,10,10,14,1,2015,MAS,DIS,150,robot,la,l,,,,,,,,,,,,,,,,,,
,,,,,,,15400e5201bad12de12eab93,66a626ef09d4e21e1a8894ec,67373fc98fdcff78025e0fa1,2024-11-15_12h34.45.027,Tarea de género gramatical,2024.2.2,Win32,59.88023952,,,,,,,,,,,,,,,,,,,,,,,103.2026,104.5162,l,1,0.6324,,[],[],[],[],[],[],[],0.6324,1,104.5163,105.0166,0,11,11,13,1,2014,MAS,CON,150,siglo,,l,,,,,,,,,,,,,,,,,,
,,,,,,,15400e5201bad12de12eab93,66a626ef09d4e21e1a8894ec,67373fc98fdcff78025e0fa1,2024-11-15_12h34.45.027,Tarea de género gramatical,2024.2.2,Win32,59.88023952,,,,,,,,,,,,,,,,,,,,,,,105.0188,106.282,l,1,0.5837,,[],[],[],[],[],[],[],0.5837,1,106.2821,106.7818,0,12,12,8,1,2009,MAS,DIS,150,puerto,la,l,,,,,,,,,,,,,,,,,,
,,,,,,,15400e5201bad12de12eab93,66a626ef09d4e21e1a8894ec,67373fc98fdcff78025e0fa1,2024-11-15_12h34.45.027,Tarea de género gramatical,2024.2.2,Win32,59.88023952,,,,,,,,,,,,,,,,,,,,,,,106.7826,107.9479,l,1,0.4898,,[],[],[],[],[],[],[],0.4898,1,107.948,108.4479,0,13,13,9,1,2010,MAS,AGR,150,vecino,el,l,,,,,,,,,,,,,,,,,,
,,,,,,,15400e5201bad12de12eab93,66a626ef09d4e21e1a8894ec,67373fc98fdcff78025e0fa1,2024-11-15_12h34.45.027,Tarea de género gramatical,2024.2.2,Win32,59.88023952,,,,,,,,,,,,,,,,,,,,,,,108.4491,109.5981,a,1,0.483,,[],[],[],[],[],[],[],0.483,1,109.5982,110.0981,0,14,14,6,1,2007,FEM,AGR,150,navaja,la,a,,,,,,,,,,,,,,,,,,
,,,,,,,15400e5201bad12de12eab93,66a626ef09d4e21e1a8894ec,67373fc98fdcff78025e0fa1,2024-11-15_12h34.45.027,Tarea de género gramatical,2024.2.2,Win32,59.88023952,,,115.0666,124.959,space,9.8764,,0.515740797,-0.188888889,0,0,0,,,,,,,,,,,124.9963,126.1585,l,1,0.487,,[],[],[],[],[],[],[],0.487,1,126.1586,126.6583,,,,,,238,MAS,AGR,150,norte,el,l,126.6585,126.6641,0.515740797,-0.188888889,0,0,0,,0,0,0,237,1,,,,,
,,,,,,,15400e5201bad12de12eab93,66a626ef09d4e21e1a8894ec,67373fc98fdcff78025e0fa1,2024-11-15_12h34.45.027,Tarea de género gramatical,2024.2.2,Win32,59.88023952,,,,,,,,,,,,,,,,,,,,,,,126.6649,127.7913,l,0,0.4509,,[],[],[],[],[],[],[],0.4509,0,127.7921,128.2913,,,,,,218,FEM,CON,150,nieve,,a,128.2915,128.2916,0.515740797,-0.188888889,0,0,0,,0,1,1,217,1,,,,,
,,,,,,,15400e5201bad12de12eab93,66a626ef09d4e21e1a8894ec,67373fc98fdcff78025e0fa1,2024-11-15_12h34.45.027,Tarea de género gramatical,2024.2.2,Win32,59.88023952,,,,,,,,,,,,,,,,,,,,,,,128.2933,129.7239,a,1,0.7552,,[],[],[],[],[],[],[],0.7552,1,129.7245,130.2237,,,,,,363,FEM,DIS,150,unidad,el,a,130.2248,130.2275,0.515740797,-0.188888889,0,0,0,,0,2,2,362,1,,,,,
,,,,,,,15400e5201bad12de12eab93,66a626ef09d4e21e1a8894ec,67373fc98fdcff78025e0fa1,2024-11-15_12h34.45.027,Tarea de género gramatical,2024.2.2,Win32,59.88023952,,,,,,,,,,,,,,,,,,,,,,,130.2283,131.3566,l,1,0.4508,,[],[],[],[],[],[],[],0.4508,1,131.3567,131.8566,,,,,,66,MAS,DIS,150,muro,la,l,131.8566,131.8568,0.515740797,-0.188888889,0,0,0,,0,3,3,65,1,,,,,
,,,,,,,15400e5201bad12de12eab93,66a626ef09d4e21e1a8894ec,67373fc98fdcff78025e0fa1,2024-11-15_12h34.45.027,Tarea de género gramatical,2024.2.2,Win32,59.88023952,,,,,,,,,,,,,,,,,,,,,,,131.8577,132.9561,a,1,0.4171,,[],[],[],[],[],[],[],0.4171,1,132.9562,133.456,,,,,,405,FEM,DIS,150,parada,el,a,133.456,133.4561,0.515740797,-0.188888889,0,0,0,,0,4,4,404,1,,,,,
,,,,,,,15400e5201bad12de12eab93,66a626ef09d4e21e1a8894ec,67373fc98fdcff78025e0fa1,2024-11-15_12h34.45.027,Tarea de género gramatical,2024.2.2,Win32,59.88023952,,,,,,,,,,,,,,,,,,,,,,,133.4569,134.6889,l,1,0.5533,,[],[],[],[],[],[],[],0.5533,1,134.6889,135.1885,,,,,,233,MAS,CON,150,golpe,,l,135.1886,135.1887,0.515740797,-0.188888889,0,0,0,,0,5,5,232,1,,,,,
,,,,,,,15400e5201bad12de12eab93,66a626ef09d4e21e1a8894ec,67373fc98fdcff78025e0fa1,2024-11-15_12h34.45.027,Tarea de género gramatical,2024.2.2,Win32,59.88023952,,,,,,,,,,,,,,,,,,,,,,,135.1899,136.7882,a,1,0.9246,,[],[],[],[],[],[],[],0.9246,1,136.7883,137.288,,,,,,224,FEM,CON,150,arena,,a,137.2896,137.2922,0.515740797,-0.188888889,0,0,0,,0,6,6,223,1,,,,,
,,,,,,,15400e5201bad12de12eab93,66a626ef09d4e21e1a8894ec,67373fc98fdcff78025e0fa1,2024-11-15_12h34.45.027,Tarea de género gramatical,2024.2.2,Win32,59.88023952,,,,,,,,,,,,,,,,,,,,,,,137.2928,138.4877,l,1,0.5141,,[],[],[],[],[],[],[],0.5141,1,138.4877,138.9875,,,,,,222,MAS,DIS,150,valor,la,l,138.9876,138.9876,0.515740797,-0.188888889,0,0,0,,0,7,7,221,1,,,,,
,,,,,,,15400e5201bad12de12eab93,66a626ef09d4e21e1a8894ec,67373fc98fdcff78025e0fa1,2024-11-15_12h34.45.027,Tarea de género gramatical,2024.2.2,Win32,59.88023952,,,,,,,,,,,,,,,,,,,,,,,138.9887,140.1203,a,1,0.4618,,[],[],[],[],[],[],[],0.4618,1,140.1204,140.6202,,,,,,194,FEM,CON,150,banda,,a,140.6203,140.6204,0.515740797,-0.188888889,0,0,0,,0,8,8,193,1,,,,,
,,,,,,,15400e5201bad12de12eab93,66a626ef09d4e21e1a8894ec,67373fc98fdcff78025e0fa1,2024-11-15_12h34.45.027,Tarea de género gramatical,2024.2.2,Win32,59.88023952,,,,,,,,,,,,,,,,,,,,,,,140.6213,141.8198,l,1,0.5171,,[],[],[],[],[],[],[],0.5171,1,141.8199,142.3196,,,,,,137,MAS,CON,150,coco,,l,142.3196,142.3197,0.515740797,-0.188888889,0,0,0,,0,9,9,136,1,,,,,
,,,,,,,15400e5201bad12de12eab93,66a626ef09d4e21e1a8894ec,67373fc98fdcff78025e0fa1,2024-11-15_12h34.45.027,Tarea de género gramatical,2024.2.2,Win32,59.88023952,,,,,,,,,,,,,,,,,,,,,,,142.3207,143.5191,a,1,0.5184,,[],[],[],[],[],[],[],0.5184,1,143.5192,144.0194,,,,,,417,FEM,DIS,150,cabaña,el,a,144.0195,144.0196,0.515740797,-0.188888889,0,0,0,,0,10,10,416,1,,,,,
,,,,,,,15400e5201bad12de12eab93,66a626ef09d4e21e1a8894ec,67373fc98fdcff78025e0fa1,2024-11-15_12h34.45.027,Tarea de género gramatical,2024.2.2,Win32,59.88023952,,,,,,,,,,,,,,,,,,,,,,,144.0205,145.086,a,1,0.3862,,[],[],[],[],[],[],[],0.3862,1,145.0862,145.5853,,,,,,193,FEM,AGR,150,bolsa,la,a,145.5878,145.5908,0.515740797,-0.188888889,0,0,0,,0,11,11,192,1,,,,,
,,,,,,,15400e5201bad12de12eab93,66a626ef09d4e21e1a8894ec,67373fc98fdcff78025e0fa1,2024-11-15_12h34.45.027,Tarea de género gramatical,2024.2.2,Win32,59.88023952,,,,,,,,,,,,,,,,,,,,,,,145.5918,146.8352,l,1,0.57,,[],[],[],[],[],[],[],0.57,1,146.8354,147.3357,,,,,,360,MAS,DIS,150,puente,la,l,147.3358,147.336,0.515740797,-0.188888889,0,0,0,,0,12,12,359,1,,,,,
,,,,,,,15400e5201bad12de12eab93,66a626ef09d4e21e1a8894ec,67373fc98fdcff78025e0fa1,2024-11-15_12h34.45.027,Tarea de género gramatical,2024.2.2,Win32,59.88023952,,,,,,,,,,,,,,,,,,,,,,,147.3382,148.4175,l,1,0.4089,,[],[],[],[],[],[],[],0.4089,1,148.4176,148.9174,,,,,,48,MAS,DIS,150,loco,la,l,148.9174,148.9175,0.515740797,-0.188888889,0,0,0,,0,13,13,47,1,,,,,
,,,,,,,15400e5201bad12de12eab93,66a626ef09d4e21e1a8894ec,67373fc98fdcff78025e0fa1,2024-11-15_12h34.45.027,Tarea de género gramatical,2024.2.2,Win32,59.88023952,,,,,,,,,,,,,,,,,,,,,,,148.9183,150.0183,a,1,0.4334,,[],[],[],[],[],[],[],0.4334,1,150.0185,150.5173,,,,,,332,FEM,CON,150,basura,,a,150.5174,150.5176,0.515740797,-0.188888889,0,0,0,,0,14,14,331,1,,,,,
,,,,,,,15400e5201bad12de12eab93,66a626ef09d4e21e1a8894ec,67373fc98fdcff78025e0fa1,2024-11-15_12h34.45.027,Tarea de género gramatical,2024.2.2,Win32,59.88023952,,,,,,,,,,,,,,,,,,,,,,,150.5188,151.6498,a,1,0.4518,,[],[],[],[],[],[],[],0.4518,1,151.65,152.1504,,,,,,386,FEM,CON,150,sombra,,a,152.1528,152.1551,0.515740797,-0.188888889,0,0,0,,0,15,15,385,1,,,,,
,,,,,,,15400e5201bad12de12eab93,66a626ef09d4e21e1a8894ec,67373fc98fdcff78025e0fa1,2024-11-15_12h34.45.027,Tarea de género gramatical,2024.2.2,Win32,59.88023952,,,,,,,,,,,,,,,,,,,,,,,152.1567,153.3167,l,1,0.4891,,[],[],[],[],[],[],[],0.4891,1,153.3168,153.817,,,,,,54,MAS,DIS,150,humo,la,l,153.8171,153.8173,0.515740797,-0.188888889,0,0,0,,0,16,16,53,1,,,,,
,,,,,,,15400e5201bad12de12eab93,66a626ef09d4e21e1a8894ec,67373fc98fdcff78025e0fa1,2024-11-15_12h34.45.027,Tarea de género gramatical,2024.2.2,Win32,59.88023952,,,,,,,,,,,,,,,,,,,,,,,153.8194,154.982,l,1,0.4848,,[],[],[],[],[],[],[],0.4848,1,154.9821,155.4831,,,,,,84,MAS,DIS,150,mago,la,l,155.4835,155.4838,0.515740797,-0.188888889,0,0,0,,0,17,17,83,1,,,,,
,,,,,,,15400e5201bad12de12eab93,66a626ef09d4e21e1a8894ec,67373fc98fdcff78025e0fa1,2024-11-15_12h34.45.027,Tarea de género gramatical,2024.2.2,Win32,59.88023952,,,,,,,,,,,,,,,,,,,,,,,155.4865,156.6154,l,1,0.4571,,[],[],[],[],[],[],[],0.4571,1,156.6156,157.1157,,,,,,292,MAS,AGR,150,piano,el,l,157.1159,157.1161,0.515740797,-0.188888889,0,0,0,,0,18,18,291,1,,,,,
,,,,,,,15400e5201bad12de12eab93,66a626ef09d4e21e1a8894ec,67373fc98fdcff78025e0fa1,2024-11-15_12h34.45.027,Tarea de género gramatical,2024.2.2,Win32,59.88023952,,,,,,,,,,,,,,,,,,,,,,,157.118,158.181,a,1,0.387,,[],[],[],[],[],[],[],0.387,1,158.1811,158.6811,,,,,,79,FEM,AGR,150,mina,la,a,158.6813,158.6814,0.515740797,-0.188888889,0,0,0,,0,19,19,78,1,,,,,
,,,,,,,15400e5201bad12de12eab93,66a626ef09d4e21e1a8894ec,67373fc98fdcff78025e0fa1,2024-11-15_12h34.45.027,Tarea de género gramatical,2024.2.2,Win32,59.88023952,,,,,,,,,,,,,,,,,,,,,,,158.6829,159.7969,l,1,0.4369,,[],[],[],[],[],[],[],0.4369,1,159.797,160.298,,,,,,388,MAS,AGR,150,empleo,el,l,160.3026,160.3057,0.515740797,-0.188888889,0,0,0,,0,20,20,387,1,,,,,
,,,,,,,15400e5201bad12de12eab93,66a626ef09d4e21e1a8894ec,67373fc98fdcff78025e0fa1,2024-11-15_12h34.45.027,Tarea de género gramatical,2024.2.2,Win32,59.88023952,,,,,,,,,,,,,,,,,,,,,,,160.3085,161.4637,a,1,0.4911,,[],[],[],[],[],[],[],0.4911,1,161.4638,161.963,,,,,,75,FEM,DIS,150,caza,el,a,161.963,161.9632,0.515740797,-0.188888889,0,0,0,,0,21,21,74,1,,,,,
,,,,,,,15400e5201bad12de12eab93,66a626ef09d4e21e1a8894ec,67373fc98fdcff78025e0fa1,2024-11-15_12h34.45.027,Tarea de género gramatical,2024.2.2,Win32,59.88023952,,,,,,,,,,,,,,,,,,,,,,,161.9639,163.0803,a,1,0.4377,,[],[],[],[],[],[],[],0.4377,1,163.0806,163.5796,,,,,,374,FEM,CON,150,herida,,a,163.5796,163.5798,0.515740797,-0.188888889,0,0,0,,0,22,22,373,1,,,,,
,,,,,,,15400e5201bad12de12eab93,66a626ef09d4e21e1a8894ec,67373fc98fdcff78025e0fa1,2024-11-15_12h34.45.027,Tarea de género gramatical,2024.2.2,Win32,59.88023952,,,,,,,,,,,,,,,,,,,,,,,163.5828,164.6125,a,1,0.3518,,[],[],[],[],[],[],[],0.3518,1,164.6127,165.1129,,,,,,367,FEM,AGR,150,teoría,la,a,165.113,165.1133,0.515740797,-0.188888889,0,0,0,,0,23,23,366,1,,,,,
,,,,,,,15400e5201bad12de12eab93,66a626ef09d4e21e1a8894ec,67373fc98fdcff78025e0fa1,2024-11-15_12h34.45.027,Tarea de género gramatical,2024.2.2,Win32,59.88023952,,,,,,,,,,,,,,,,,,,,,,,165.117,166.2956,l,1,0.4994,,[],[],[],[],[],[],[],0.4994,1,166.2959,166.7957,,,,,,426,MAS,DIS,150,pánico,la,l,166.8006,166.8031,0.515740797,-0.188888889,0,0,0,,0,24,24,425,1,,,,,
,,,,,,,15400e5201bad12de12eab93,66a626ef09d4e21e1a8894ec,67373fc98fdcff78025e0fa1,2024-11-15_12h34.45.027,Tarea de género gramatical,2024.2.2,Win32,59.88023952,,,,,,,,,,,,,,,,,,,,,,,166.8043,167.8448,a,1,0.3646,,[],[],[],[],[],[],[],0.3646,1,167.845,168.3445,,,,,,93,FEM,DIS,150,lata,el,a,168.3446,168.3447,0.515740797,-0.188888889,0,0,0,,0,25,25,92,1,,,,,
,,,,,,,15400e5201bad12de12eab93,66a626ef09d4e21e1a8894ec,67373fc98fdcff78025e0fa1,2024-11-15_12h34.45.027,Tarea de género gramatical,2024.2.2,Win32,59.88023952,,,,,,,,,,,,,,,,,,,,,,,168.3457,169.3606,a,1,0.3359,,[],[],[],[],[],[],[],0.3359,1,169.3607,169.8608,,,,,,169,FEM,AGR,150,vista,la,a,169.8608,169.8611,0.515740797,-0.188888889,0,0,0,,0,26,26,168,1,,,,,
,,,,,,,15400e5201bad12de12eab93,66a626ef09d4e21e1a8894ec,67373fc98fdcff78025e0fa1,2024-11-15_12h34.45.027,Tarea de género gramatical,2024.2.2,Win32,59.88023952,,,,,,,,,,,,,,,,,,,,,,,169.8638,170.91,l,1,0.3648,,[],[],[],[],[],[],[],0.3648,1,170.91,171.41,,,,,,401,MAS,CON,150,abrigo,,l,171.4101,171.4101,0.515740797,-0.188888889,0,0,0,,0,27,27,400,1,,,,,
,,,,,,,15400e5201bad12de12eab93,66a626ef09d4e21e1a8894ec,67373fc98fdcff78025e0fa1,2024-11-15_12h34.45.027,Tarea de género gramatical,2024.2.2,Win32,59.88023952,,,,,,,,,,,,,,,,,,,,,,,171.4119,172.4428,a,1,0.3496,,[],[],[],[],[],[],[],0.3496,1,172.4429,172.9429,,,,,,301,FEM,AGR,150,verdad,la,a,172.943,172.9431,0.515740797,-0.188888889,0,0,0,,0,28,28,300,1,,,,,
,,,,,,,15400e5201bad12de12eab93,66a626ef09d4e21e1a8894ec,67373fc98fdcff78025e0fa1,2024-11-15_12h34.45.027,Tarea de género gramatical,2024.2.2,Win32,59.88023952,,,,,,,,,,,,,,,,,,,,,,,172.9448,174.0421,l,1,0.4244,,[],[],[],[],[],[],[],0.4244,1,174.0422,174.5419,,,,,,341,MAS,CON,150,precio,,l,174.5431,174.5457,0.515740797,-0.188888889,0,0,0,,0,29,29,340,1,,,,,
,,,,,,,15400e5201bad12de12eab93,66a626ef09d4e21e1a8894ec,67373fc98fdcff78025e0fa1,2024-11-15_12h34.45.027,Tarea de género gramatical,2024.2.2,Win32,59.88023952,,,,,,,,,,,,,,,,,,,,,,,174.5471,175.7249,a,1,0.497,,[],[],[],[],[],[],[],0.497,1,175.7249,176.2248,,,,,,217,FEM,AGR,150,tarea,la,a,176.2248,176.2249,0.515740797,-0.188888889,0,0,0,,0,30,30,216,1,,,,,
,,,,,,,15400e5201bad12de12eab93,66a626ef09d4e21e1a8894ec,67373fc98fdcff78025e0fa1,2024-11-15_12h34.45.027,Tarea de género gramatical,2024.2.2,Win32,59.88023952,,,,,,,,,,,,,,,,,,,,,,,176.2256,177.2411,a,1,0.3413,,[],[],[],[],[],[],[],0.3413,1,177.2412,177.7408,,,,,,385,FEM,AGR,150,muñeca,la,a,177.7408,177.7408,0.515740797,-0.188888889,0,0,0,,0,31,31,384,1,,,,,
,,,,,,,15400e5201bad12de12eab93,66a626ef09d4e21e1a8894ec,67373fc98fdcff78025e0fa1,2024-11-15_12h34.45.027,Tarea de género gramatical,2024.2.2,Win32,59.88023952,,,,,,,,,,,,,,,,,,,,,,,177.7416,178.9237,l,1,0.5027,,[],[],[],[],[],[],[],0.5027,1,178.9238,179.4237,,,,,,28,MAS,AGR,150,club,el,l,179.4237,179.4237,0.515740797,-0.188888889,0,0,0,,0,32,32,27,1,,,,,
,,,,,,,15400e5201bad12de12eab93,66a626ef09d4e21e1a8894ec,67373fc98fdcff78025e0fa1,2024-11-15_12h34.45.027,Tarea de género gramatical,2024.2.2,Win32,59.88023952,,,,,,,,,,,,,,,,,,,,,,,179.4244,180.4401,a,1,0.3459,,[],[],[],[],[],[],[],0.3459,1,180.4402,180.9397,,,,,,25,FEM,AGR,150,nave,la,a,180.9414,180.9437,0.515740797,-0.188888889,0,0,0,,0,33,33,24,1,,,,,
,,,,,,,15400e5201bad12de12eab93,66a626ef09d4e21e1a8894ec,67373fc98fdcff78025e0fa1,2024-11-15_12h34.45.027,Tarea de género gramatical,2024.2.2,Win32,59.88023952,,,,,,,,,,,,,,,,,,,,,,,180.9444,181.9064,a,1,0.2871,,[],[],[],[],[],[],[],0.2871,1,181.9065,182.406,,,,,,129,FEM,DIS,150,rana,el,a,182.406,182.4061,0.515740797,-0.188888889,0,0,0,,0,34,34,128,1,,,,,
,,,,,,,15400e5201bad12de12eab93,66a626ef09d4e21e1a8894ec,67373fc98fdcff78025e0fa1,2024-11-15_12h34.45.027,Tarea de género gramatical,2024.2.2,Win32,59.88023952,,,,,,,,,,,,,,,,,,,,,,,182.4074,183.4555,a,1,0.3755,,[],[],[],[],[],[],[],0.3755,1,183.4555,183.9554,,,,,,207,FEM,DIS,150,playa,el,a,183.9555,183.9556,0.515740797,-0.188888889,0,0,0,,0,35,35,206,1,,,,,
,,,,,,,15400e5201bad12de12eab93,66a626ef09d4e21e1a8894ec,67373fc98fdcff78025e0fa1,2024-11-15_12h34.45.027,Tarea de género gramatical,2024.2.2,Win32,59.88023952,,,,,,,,,,,,,,,,,,,,,,,183.9597,185.0386,a,1,0.4007,,[],[],[],[],[],[],[],0.4007,1,185.0387,185.5384,,,,,,296,FEM,CON,150,feria,,a,185.5385,185.5385,0.515740797,-0.188888889,0,0,0,,0,36,36,295,1,,,,,
,,,,,,,15400e5201bad12de12eab93,66a626ef09d4e21e1a8894ec,67373fc98fdcff78025e0fa1,2024-11-15_12h34.45.027,Tarea de género gramatical,2024.2.2,Win32,59.88023952,,,,,,,,,,,,,,,,,,,,,,,185.5394,186.5546,l,1,0.3335,,[],[],[],[],[],[],[],0.3335,1,186.5547,187.1713,,,,,,77,MAS,CON,150,pico,,l,187.1714,187.1715,0.515740797,-0.188888889,0,0,0,,0,37,37,76,1,,,,,
,,,,,,,15400e5201bad12de12eab93,66a626ef09d4e21e1a8894ec,67373fc98fdcff78025e0fa1,2024-11-15_12h34.45.027,Tarea de género gramatical,2024.2.2,Win32,59.88023952,,,,,,,,,,,,,,,,,,,,,,,187.1754,188.3206,a,1,0.476,,[],[],[],[],[],[],[],0.476,1,188.3208,188.8275,,,,,,313,FEM,AGR,150,ciudad,la,a,188.8286,188.8291,0.515740797,-0.188888889,0,0,0,,0,38,38,312,1,,,,,
,,,,,,,15400e5201bad12de12eab93,66a626ef09d4e21e1a8894ec,67373fc98fdcff78025e0fa1,2024-11-15_12h34.45.027,Tarea de género gramatical,2024.2.2,Win32,59.88023952,,,,,,,,,,,,,,,,,,,,,,,188.8296,189.9594,l,1,0.4617,,[],[],[],[],[],[],[],0.4617,1,189.9595,190.4592,,,,,,306,MAS,DIS,150,dinero,la,l,190.4593,190.4594,0.515740797,-0.188888889,0,0,0,,0,39,39,305,1,,,,,
,,,,,,,15400e5201bad12de12eab93,66a626ef09d4e21e1a8894ec,67373fc98fdcff78025e0fa1,2024-11-15_12h34.45.027,Tarea de género gramatical,2024.2.2,Win32,59.88023952,,,,,,,,,,,,,,,,,,,,,,,190.4601,191.5437,l,1,0.404,,[],[],[],[],[],[],[],0.404,1,191.5439,192.0362,,,,,,12,MAS,DIS,150,plan,la,l,192.0364,192.0368,0.515740797,-0.188888889,0,0,0,,0,40,40,11,1,,,,,
,,,,,,,15400e5201bad12de12eab93,66a626ef09d4e21e1a8894ec,67373fc98fdcff78025e0fa1,2024-11-15_12h34.45.027,Tarea de género gramatical,2024.2.2,Win32,59.88023952,,,,,,,,,,,,,,,,,,,,,,,192.0396,193.0929,l,1,0.3671,,[],[],[],[],[],[],[],0.3671,1,193.093,193.5916,,,,,,276,MAS,DIS,150,ritmo,la,l,193.5916,193.5916,0.515740797,-0.188888889,0,0,0,,0,41,41,275,1,,,,,
,,,,,,,15400e5201bad12de12eab93,66a626ef09d4e21e1a8894ec,67373fc98fdcff78025e0fa1,2024-11-15_12h34.45.027,Tarea de género gramatical,2024.2.2,Win32,59.88023952,,,,,,,,,,,,,,,,,,,,,,,193.5924,194.6351,a,1,0.3566,,[],[],[],[],[],[],[],0.3566,1,194.6353,195.1242,,,,,,271,FEM,AGR,150,viuda,la,a,195.1256,195.1265,0.515740797,-0.188888889,0,0,0,,0,42,42,270,1,,,,,
,,,,,,,15400e5201bad12de12eab93,66a626ef09d4e21e1a8894ec,67373fc98fdcff78025e0fa1,2024-11-15_12h34.45.027,Tarea de género gramatical,2024.2.2,Win32,59.88023952,,,,,,,,,,,,,,,,,,,,,,,195.1274,196.2846,l,1,0.4724,,[],[],[],[],[],[],[],0.4724,1,196.2846,196.7745,,,,,,161,MAS,CON,150,chico,,l,196.7746,196.7747,0.515740797,-0.188888889,0,0,0,,0,43,43,160,1,,,,,
,,,,,,,15400e5201bad12de12eab93,66a626ef09d4e21e1a8894ec,67373fc98fdcff78025e0fa1,2024-11-15_12h34.45.027,Tarea de género gramatical,2024.2.2,Win32,59.88023952,,,,,,,,,,,,,,,,,,,,,,,196.7757,197.9736,a,1,0.5319,,[],[],[],[],[],[],[],0.5319,1,197.9737,198.4675,,,,,,49,FEM,AGR,150,piel,la,a,198.4678,198.4683,0.515740797,-0.188888889,0,0,0,,0,44,44,48,1,,,,,
,,,,,,,15400e5201bad12de12eab93,66a626ef09d4e21e1a8894ec,67373fc98fdcff78025e0fa1,2024-11-15_12h34.45.027,Tarea de género gramatical,2024.2.2,Win32,59.88023952,,,,,,,,,,,,,,,,,,,,,,,198.4712,199.6334,l,1,0.4777,,[],[],[],[],[],[],[],0.4777,1,199.6337,200.1228,,,,,,192,MAS,DIS,150,grupo,la,l,200.1228,200.1229,0.515740797,-0.188888889,0,0,0,,0,45,45,191,1,,,,,
,,,,,,,15400e5201bad12de12eab93,66a626ef09d4e21e1a8894ec,67373fc98fdcff78025e0fa1,2024-11-15_12h34.45.027,Tarea de género gramatical,2024.2.2,Win32,59.88023952,,,,,,,,,,,,,,,,,,,,,,,200.1235,201.4329,a,1,0.6209,,[],[],[],[],[],[],[],0.6209,1,201.4332,201.9389,,,,,,92,FEM,CON,150,masa,,a,201.9389,201.9391,0.515740797,-0.188888889,0,0,0,,0,46,46,91,1,,,,,
,,,,,,,15400e5201bad12de12eab93,66a626ef09d4e21e1a8894ec,67373fc98fdcff78025e0fa1,2024-11-15_12h34.45.027,Tarea de género gramatical,2024.2.2,Win32,59.88023952,,,,,,,,,,,,,,,,,,,,,,,201.94,203.0389,a,1,0.4175,,[],[],[],[],[],[],[],0.4175,1,203.0389,203.532,,,,,,345,FEM,DIS,150,pierna,el,a,203.5349,203.5358,0.515740797,-0.188888889,0,0,0,,0,47,47,344,1,,,,,
,,,,,,,15400e5201bad12de12eab93,66a626ef09d4e21e1a8894ec,67373fc98fdcff78025e0fa1,2024-11-15_12h34.45.027,Tarea de género gramatical,2024.2.2,Win32,59.88023952,,,,,,,,,,,,,,,,,,,,,,,203.5363,204.5157,a,1,0.2955,,[],[],[],[],[],[],[],0.2955,1,204.5161,205.0214,,,,,,355,FEM,AGR,150,mirada,la,a,205.0215,205.0215,0.515740797,-0.188888889,0,0,0,,0,48,48,354,1,,,,,
,,,,,,,15400e5201bad12de12eab93,66a626ef09d4e21e1a8894ec,67373fc98fdcff78025e0fa1,2024-11-15_12h34.45.027,Tarea de género gramatical,2024.2.2,Win32,59.88023952,,,,,,,,,,,,,,,,,,,,,,,205.0224,206.0885,l,1,0.3849,,[],[],[],[],[],[],[],0.3849,1,206.0887,206.5813,,,,,,293,MAS,CON,150,patio,,l,206.5815,206.5817,0.515740797,-0.188888889,0,0,0,,0,49,49,292,1,,,,,
,,,,,,,15400e5201bad12de12eab93,66a626ef09d4e21e1a8894ec,67373fc98fdcff78025e0fa1,2024-11-15_12h34.45.027,Tarea de género gramatical,2024.2.2,Win32,59.88023952,,,,,,,,,,,,,,,,,,,,,,,206.5846,207.64,l,1,0.3847,,[],[],[],[],[],[],[],0.3847,1,207.6402,208.135,,,,,,257,MAS,CON,150,pecho,,l,208.1351,208.1351,0.515740797,-0.188888889,0,0,0,,0,50,50,256,1,,,,,
,,,,,,,15400e5201bad12de12eab93,66a626ef09d4e21e1a8894ec,67373fc98fdcff78025e0fa1,2024-11-15_12h34.45.027,Tarea de género gramatical,2024.2.2,Win32,59.88023952,,,,,,,,,,,,,,,,,,,,,,,208.1365,209.1886,a,1,0.3815,,[],[],[],[],[],[],[],0.3815,1,209.1888,209.6884,,,,,,211,FEM,AGR,150,salud,la,a,209.6909,209.6927,0.515740797,-0.188888889,0,0,0,,0,51,51,210,1,,,,,
,,,,,,,15400e5201bad12de12eab93,66a626ef09d4e21e1a8894ec,67373fc98fdcff78025e0fa1,2024-11-15_12h34.45.027,Tarea de género gramatical,2024.2.2,Win32,59.88023952,,,,,,,,,,,,,,,,,,,,,,,209.6943,210.8035,l,1,0.4335,,[],[],[],[],[],[],[],0.4335,1,210.8036,211.2981,,,,,,166,MAS,AGR,150,coche,el,l,211.2982,211.2987,0.515740797,-0.188888889,0,0,0,,0,52,52,165,1,,,,,
,,,,,,,15400e5201bad12de12eab93,66a626ef09d4e21e1a8894ec,67373fc98fdcff78025e0fa1,2024-11-15_12h34.45.027,Tarea de género gramatical,2024.2.2,Win32,59.88023952,,,,,,,,,,,,,,,,,,,,,,,211.3007,212.386,a,1,0.4004,,[],[],[],[],[],[],[],0.4004,1,212.3861,212.8854,,,,,,433,FEM,AGR,150,huella,la,a,212.8855,212.8857,0.515740797,-0.188888889,0,0,0,,0,53,53,432,1,,,,,
,,,,,,,15400e5201bad12de12eab93,66a626ef09d4e21e1a8894ec,67373fc98fdcff78025e0fa1,2024-11-15_12h34.45.027,Tarea de género gramatical,2024.2.2,Win32,59.88023952,,,,,,,,,,,,,,,,,,,,,,,212.8869,213.9003,a,1,0.357,,[],[],[],[],[],[],[],0.357,1,213.9005,214.4022,,,,,,361,FEM,AGR,150,oferta,la,a,214.4022,214.4023,0.515740797,-0.188888889,0,0,0,,0,54,54,360,1,,,,,
,,,,,,,15400e5201bad12de12eab93,66a626ef09d4e21e1a8894ec,67373fc98fdcff78025e0fa1,2024-11-15_12h34.45.027,Tarea de género gramatical,2024.2.2,Win32,59.88023952,,,,,,,,,,,,,,,,,,,,,,,214.4032,215.4012,l,1,0.3171,,[],[],[],[],[],[],[],0.3171,1,215.4012,215.9018,,,,,,5,MAS,CON,150,tipo,,l,215.9018,215.9019,0.515740797,-0.188888889,0,0,0,,0,55,55,4,1,,,,,
,,,,,,,15400e5201bad12de12eab93,66a626ef09d4e21e1a8894ec,67373fc98fdcff78025e0fa1,2024-11-15_12h34.45.027,Tarea de género gramatical,2024.2.2,Win32,59.88023952,,,,,,,,,,,,,,,,,,,,,,,215.9029,216.9944,l,1,0.404,,[],[],[],[],[],[],[],0.404,1,216.9946,217.5113,,,,,,282,MAS,DIS,150,bolso,la,l,217.5133,217.5139,0.515740797,-0.188888889,0,0,0,,0,56,56,281,1,,,,,
,,,,,,,15400e5201bad12de12eab93,66a626ef09d4e21e1a8894ec,67373fc98fdcff78025e0fa1,2024-11-15_12h34.45.027,Tarea de género gramatical,2024.2.2,Win32,59.88023952,,,,,,,,,,,,,,,,,,,,,,,217.5146,218.5343,l,1,0.3511,,[],[],[],[],[],[],[],0.3511,1,218.5343,219.0278,,,,,,436,MAS,AGR,150,objeto,el,l,219.0282,219.0288,0.515740797,-0.188888889,0,0,0,,0,57,57,435,1,,,,,
,,,,,,,15400e5201bad12de12eab93,66a626ef09d4e21e1a8894ec,67373fc98fdcff78025e0fa1,2024-11-15_12h34.45.027,Tarea de género gramatical,2024.2.2,Win32,59.88023952,,,,,,,,,,,,,,,,,,,,,,,219.0309,220.1024,a,1,0.4052,,[],[],[],[],[],[],[],0.4052,1,220.1026,220.5933,,,,,,266,FEM,CON,150,jaula,,a,220.5936,220.5937,0.515740797,-0.188888889,0,0,0,,0,58,58,265,1,,,,,
,,,,,,,15400e5201bad12de12eab93,66a626ef09d4e21e1a8894ec,67373fc98fdcff78025e0fa1,2024-11-15_12h34.45.027,Tarea de género gramatical,2024.2.2,Win32,59.88023952,,,,,,,,,,,,,,,,,,,,,,,220.5962,221.7105,l,1,0.4262,,[],[],[],[],[],[],[],0.4262,1,221.7107,222.2169,,,,,,353,MAS,CON,150,verano,,l,222.217,222.2171,0.515740797,-0.188888889,0,0,0,,0,59,59,352,1,,,,,
,,,,,,,15400e5201bad12de12eab93,66a626ef09d4e21e1a8894ec,67373fc98fdcff78025e0fa1,2024-11-15_12h34.45.027,Tarea de género gramatical,2024.2.2,Win32,59.88023952,,,,,,,,,,,,,,,,,,,,,,,222.2188,223.3098,a,1,0.4101,,[],[],[],[],[],[],[],0.4101,1,223.3102,223.7992,,,,,,446,FEM,CON,150,bañera,,a,223.8011,223.8022,0.515740797,-0.188888889,0,0,0,,0,60,60,445,1,,,,,
,,,,,,,15400e5201bad12de12eab93,66a626ef09d4e21e1a8894ec,67373fc98fdcff78025e0fa1,2024-11-15_12h34.45.027,Tarea de género gramatical,2024.2.2,Win32,59.88023952,,,,,,,,,,,,,,,,,,,,,,,223.8036,224.8996,l,1,0.4276,,[],[],[],[],[],[],[],0.4276,1,224.8998,225.3928,,,,,,113,MAS,CON,150,toro,,l,225.393,225.3932,0.515740797,-0.188888889,0,0,0,,0,61,61,112,1,,,,,
,,,,,,,15400e5201bad12de12eab93,66a626ef09d4e21e1a8894ec,67373fc98fdcff78025e0fa1,2024-11-15_12h34.45.027,Tarea de género gramatical,2024.2.2,Win32,59.88023952,,,,,,,,,,,,,,,,,,,,,,,225.3956,226.675,l,1,0.6085,,[],[],[],[],[],[],[],0.6085,1,226.6755,227.1742,,,,,,420,MAS,DIS,150,helado,la,l,227.1745,227.1748,0.515740797,-0.188888889,0,0,0,,0,62,62,419,1,,,,,
,,,,,,,15400e5201bad12de12eab93,66a626ef09d4e21e1a8894ec,67373fc98fdcff78025e0fa1,2024-11-15_12h34.45.027,Tarea de género gramatical,2024.2.2,Win32,59.88023952,,,,,,,,,,,,,,,,,,,,,,,227.1774,228.2981,l,1,0.4457,,[],[],[],[],[],[],[],0.4457,1,228.2982,228.7975,,,,,,372,MAS,DIS,150,delito,la,l,228.7975,228.7976,0.515740797,-0.188888889,0,0,0,,0,63,63,371,1,,,,,
,,,,,,,15400e5201bad12de12eab93,66a626ef09d4e21e1a8894ec,67373fc98fdcff78025e0fa1,2024-11-15_12h34.45.027,Tarea de género gramatical,2024.2.2,Win32,59.88023952,,,,,,,,,,,,,,,,,,,,,,,228.7983,229.8244,l,0,0.3395,,[],[],[],[],[],[],[],0.3395,0,229.8268,230.3311,,,,,,200,FEM,CON,150,silla,,a,230.3312,230.3314,0.515740797,-0.188888889,0,0,0,,0,64,64,199,1,,,,,
,,,,,,,15400e5201bad12de12eab93,66a626ef09d4e21e1a8894ec,67373fc98fdcff78025e0fa1,2024-11-15_12h34.45.027,Tarea de género gramatical,2024.2.2,Win32,59.88023952,,,,,,,,,,,,,,,,,,,,,,,230.3335,231.4966,l,1,0.4949,,[],[],[],[],[],[],[],0.4949,1,231.4976,231.9901,,,,,,112,MAS,AGR,150,reto,el,l,231.9927,231.9938,0.515740797,-0.188888889,0,0,0,,0,65,65,111,1,,,,,
,,,,,,,15400e5201bad12de12eab93,66a626ef09d4e21e1a8894ec,67373fc98fdcff78025e0fa1,2024-11-15_12h34.45.027,Tarea de género gramatical,2024.2.2,Win32,59.88023952,,,,,,,,,,,,,,,,,,,,,,,231.9988,233.1889,a,1,0.5045,,[],[],[],[],[],[],[],0.5045,1,233.1893,233.6897,,,,,,147,FEM,DIS,150,grúa,el,a,233.6899,233.6901,0.515740797,-0.188888889,0,0,0,,0,66,66,146,1,,,,,
,,,,,,,15400e5201bad12de12eab93,66a626ef09d4e21e1a8894ec,67373fc98fdcff78025e0fa1,2024-11-15_12h34.45.027,Tarea de género gramatical,2024.2.2,Win32,59.88023952,,,,,,,,,,,,,,,,,,,,,,,233.6924,234.8563,a,1,0.4838,,[],[],[],[],[],[],[],0.4838,1,234.8566,235.3638,,,,,,97,FEM,AGR,150,capa,la,a,235.3639,235.3641,0.515740797,-0.188888889,0,0,0,,0,67,67,96,1,,,,,
,,,,,,,15400e5201bad12de12eab93,66a626ef09d4e21e1a8894ec,67373fc98fdcff78025e0fa1,2024-11-15_12h34.45.027,Tarea de género gramatical,2024.2.2,Win32,59.88023952,,,,,,,,,,,,,,,,,,,,,,,235.3663,236.5452,a,1,0.5178,,[],[],[],[],[],[],[],0.5178,1,236.5454,237.0442,,,,,,349,FEM,AGR,150,prensa,la,a,237.0442,237.0443,0.515740797,-0.188888889,0,0,0,,0,68,68,348,1,,,,,
,,,,,,,15400e5201bad12de12eab93,66a626ef09d4e21e1a8894ec,67373fc98fdcff78025e0fa1,2024-11-15_12h34.45.027,Tarea de género gramatical,2024.2.2,Win32,59.88023952,,,,,,,,,,,,,,,,,,,,,,,237.0453,238.3268,a,1,0.6113,,[],[],[],[],[],[],[],0.6113,1,238.3268,238.825,,,,,,152,FEM,CON,150,gente,,a,238.8258,238.8264,0.515740797,-0.188888889,0,0,0,,0,69,69,151,1,,,,,
,,,,,,,15400e5201bad12de12eab93,66a626ef09d4e21e1a8894ec,67373fc98fdcff78025e0fa1,2024-11-15_12h34.45.027,Tarea de género gramatical,2024.2.2,Win32,59.88023952,,,,,,,,,,,,,,,,,,,,,,,238.8271,239.9105,a,1,0.4176,,[],[],[],[],[],[],[],0.4176,1,239.9106,240.4043,,,,,,195,FEM,DIS,150,pared,el,a,240.4045,240.4048,0.515740797,-0.188888889,0,0,0,,0,70,70,194,1,,,,,
,,,,,,,15400e5201bad12de12eab93,66a626ef09d4e21e1a8894ec,67373fc98fdcff78025e0fa1,2024-11-15_12h34.45.027,Tarea de género gramatical,2024.2.2,Win32,59.88023952,,,,,,,,,,,,,,,,,,,,,,,240.4077,241.4611,a,1,0.3703,,[],[],[],[],[],[],[],0.3703,1,241.4613,241.9597,,,,,,116,FEM,CON,150,nube,,a,241.9597,241.9598,0.515740797,-0.188888889,0,0,0,,0,71,71,115,1,,,,,
,,,,,,,15400e5201bad12de12eab93,66a626ef09d4e21e1a8894ec,67373fc98fdcff78025e0fa1,2024-11-15_12h34.45.027,Tarea de género gramatical,2024.2.2,Win32,59.88023952,,,,,,,,,,,,,,,,,,,,,,,241.961,242.9583,a,1,0.3277,,[],[],[],[],[],[],[],0.3277,1,242.9583,243.4594,,,,,,206,FEM,CON,150,época,,a,243.4594,243.4595,0.515740797,-0.188888889,0,0,0,,0,72,72,205,1,,,,,
,,,,,,,15400e5201bad12de12eab93,66a626ef09d4e21e1a8894ec,67373fc98fdcff78025e0fa1,2024-11-15_12h34.45.027,Tarea de género gramatical,2024.2.2,Win32,59.88023952,,,,,,,,,,,,,,,,,,,,,,,243.461,244.5735,a,1,0.4442,,[],[],[],[],[],[],[],0.4442,1,244.5736,245.0687,,,,,,237,FEM,DIS,150,ducha,el,a,245.069,245.0693,0.515740797,-0.188888889,0,0,0,,0,73,73,236,1,,,,,
,,,,,,,15400e5201bad12de12eab93,66a626ef09d4e21e1a8894ec,67373fc98fdcff78025e0fa1,2024-11-15_12h34.45.027,Tarea de género gramatical,2024.2.2,Win32,59.88023952,,,,,,,,,,,,,,,,,,,,,,,245.0717,246.0912,a,1,0.3501,,[],[],[],[],[],[],[],0.3501,1,246.0913,246.5844,,,,,,260,FEM,CON,150,barra,,a,246.5874,246.5883,0.515740797,-0.188888889,0,0,0,,0,74,74,259,1,,,,,
,,,,,,,15400e5201bad12de12eab93,66a626ef09d4e21e1a8894ec,67373fc98fdcff78025e0fa1,2024-11-15_12h34.45.027,Tarea de género gramatical,2024.2.2,Win32,59.88023952,,,,,,,,,,,,,,,,,,,,,,,246.5889,247.6688,l,1,0.4036,,[],[],[],[],[],[],[],0.4036,1,247.6693,248.174,,,,,,408,MAS,DIS,150,cheque,la,l,248.174,248.1742,0.515740797,-0.188888889,0,0,0,,0,75,75,407,1,,,,,
,,,,,,,15400e5201bad12de12eab93,66a626ef09d4e21e1a8894ec,67373fc98fdcff78025e0fa1,2024-11-15_12h34.45.027,Tarea de género gramatical,2024.2.2,Win32,59.88023952,,,,,,,,,,,,,,,,,,,,,,,248.1752,249.2741,a,1,0.418,,[],[],[],[],[],[],[],0.418,1,249.2741,249.7737,,,,,,403,FEM,AGR,150,paliza,la,a,249.7738,249.774,0.515740797,-0.188888889,0,0,0,,0,76,76,402,1,,,,,
,,,,,,,15400e5201bad12de12eab93,66a626ef09d4e21e1a8894ec,67373fc98fdcff78025e0fa1,2024-11-15_12h34.45.027,Tarea de género gramatical,2024.2.2,Win32,59.88023952,,,,,,,,,,,,,,,,,,,,,,,249.7751,250.8828,a,0,0.4255,,[],[],[],[],[],[],[],0.4255,0,250.8859,251.3725,,,,,,334,MAS,AGR,150,ataque,el,l,251.3725,251.3727,0.515740797,-0.188888889,0,0,0,,0,77,77,333,1,,,,,
,,,,,,,15400e5201bad12de12eab93,66a626ef09d4e21e1a8894ec,67373fc98fdcff78025e0fa1,2024-11-15_12h34.45.027,Tarea de género gramatical,2024.2.2,Win32,59.88023952,,,,,,,,,,,,,,,,,,,,,,,251.3742,252.7494,a,1,0.6912,,[],[],[],[],[],[],[],0.6912,1,252.7519,253.2391,,,,,,273,FEM,DIS,150,tarta,el,a,253.2404,253.2413,0.515740797,-0.188888889,0,0,0,,0,78,78,272,1,,,,,
,,,,,,,15400e5201bad12de12eab93,66a626ef09d4e21e1a8894ec,67373fc98fdcff78025e0fa1,2024-11-15_12h34.45.027,Tarea de género gramatical,2024.2.2,Win32,59.88023952,,,,,,,,,,,,,,,,,,,,,,,253.2421,254.7042,a,1,0.7823,,[],[],[],[],[],[],[],0.7823,1,254.7042,255.1985,,,,,,393,FEM,DIS,150,alarma,el,a,255.1986,255.1992,0.515740797,-0.188888889,0,0,0,,0,79,79,392,1,,,,,
,,,,,,,15400e5201bad12de12eab93,66a626ef09d4e21e1a8894ec,67373fc98fdcff78025e0fa1,2024-11-15_12h34.45.027,Tarea de género gramatical,2024.2.2,Win32,59.88023952,,,,,,,,,,,,,,,,,,,,,,,255.2016,256.3484,l,1,0.4763,,[],[],[],[],[],[],[],0.4763,1,256.3486,256.8479,,,,,,438,MAS,DIS,150,tanque,la,l,256.8481,256.8485,0.515740797,-0.188888889,0,0,0,,0,80,80,437,1,,,,,
,,,,,,,15400e5201bad12de12eab93,66a626ef09d4e21e1a8894ec,67373fc98fdcff78025e0fa1,2024-11-15_12h34.45.027,Tarea de género gramatical,2024.2.2,Win32,59.88023952,,,,,,,,,,,,,,,,,,,,,,,256.8508,257.9513,a,1,0.4308,,[],[],[],[],[],[],[],0.4308,1,257.9515,258.4533,,,,,,2,FEM,CON,150,vida,,a,258.4533,258.4534,0.515740797,-0.188888889,0,0,0,,0,81,81,1,1,,,,,
,,,,,,,15400e5201bad12de12eab93,66a626ef09d4e21e1a8894ec,67373fc98fdcff78025e0fa1,2024-11-15_12h34.45.027,Tarea de género gramatical,2024.2.2,Win32,59.88023952,,,,,,,,,,,,,,,,,,,,,,,258.4544,259.4866,a,1,0.3665,,[],[],[],[],[],[],[],0.3665,1,259.4867,259.9847,,,,,,321,FEM,DIS,150,comida,el,a,259.9848,259.9849,0.515740797,-0.188888889,0,0,0,,0,82,82,320,1,,,,,
,,,,,,,15400e5201bad12de12eab93,66a626ef09d4e21e1a8894ec,67373fc98fdcff78025e0fa1,2024-11-15_12h34.45.027,Tarea de género gramatical,2024.2.2,Win32,59.88023952,,,,,,,,,,,,,,,,,,,,,,,259.9861,261.0701,l,1,0.4111,,[],[],[],[],[],[],[],0.4111,1,261.0703,261.5695,,,,,,150,MAS,DIS,150,mozo,la,l,261.5703,261.5709,0.515740797,-0.188888889,0,0,0,,0,83,83,149,1,,,,,
,,,,,,,15400e5201bad12de12eab93,66a626ef09d4e21e1a8894ec,67373fc98fdcff78025e0fa1,2024-11-15_12h34.45.027,Tarea de género gramatical,2024.2.2,Win32,59.88023952,,,,,,,,,,,,,,,,,,,,,,,261.5713,262.6131,a,1,0.3581,,[],[],[],[],[],[],[],0.3581,1,262.6133,263.1045,,,,,,39,FEM,DIS,150,luna,el,a,263.1046,263.1048,0.515740797,-0.188888889,0,0,0,,0,84,84,38,1,,,,,
,,,,,,,15400e5201bad12de12eab93,66a626ef09d4e21e1a8894ec,67373fc98fdcff78025e0fa1,2024-11-15_12h34.45.027,Tarea de género gramatical,2024.2.2,Win32,59.88023952,,,,,,,,,,,,,,,,,,,,,,,263.107,264.2522,a,1,0.4664,,[],[],[],[],[],[],[],0.4664,1,264.2524,264.7526,,,,,,428,FEM,CON,150,jugada,,a,264.7526,264.7529,0.515740797,-0.188888889,0,0,0,,0,85,85,427,1,,,,,
,,,,,,,15400e5201bad12de12eab93,66a626ef09d4e21e1a8894ec,67373fc98fdcff78025e0fa1,2024-11-15_12h34.45.027,Tarea de género gramatical,2024.2.2,Win32,59.88023952,,,,,,,,,,,,,,,,,,,,,,,264.7549,265.9025,l,1,0.4703,,[],[],[],[],[],[],[],0.4703,1,265.9028,266.3942,,,,,,108,MAS,DIS,150,hilo,la,l,266.3942,266.3943,0.515740797,-0.188888889,0,0,0,,0,86,86,107,1,,,,,
,,,,,,,15400e5201bad12de12eab93,66a626ef09d4e21e1a8894ec,67373fc98fdcff78025e0fa1,2024-11-15_12h34.45.027,Tarea de género gramatical,2024.2.2,Win32,59.88023952,,,,,,,,,,,,,,,,,,,,,,,266.3972,267.5118,l,1,0.441,,[],[],[],[],[],[],[],0.441,1,267.5121,268.0105,,,,,,22,MAS,AGR,150,pelo,el,l,268.0146,268.0153,0.515740797,-0.188888889,0,0,0,,0,87,87,21,1,,,,,
,,,,,,,15400e5201bad12de12eab93,66a626ef09d4e21e1a8894ec,67373fc98fdcff78025e0fa1,2024-11-15_12h34.45.027,Tarea de género gramatical,2024.2.2,Win32,59.88023952,,,,,,,,,,,,,,,,,,,,,,,268.0159,269.0668,a,1,0.3837,,[],[],[],[],[],[],[],0.3837,1,269.067,269.5671,,,,,,225,FEM,DIS,150,pieza,el,a,269.5671,269.5672,0.515740797,-0.188888889,0,0,0,,0,88,88,224,1,,,,,
,,,,,,,15400e5201bad12de12eab93,66a626ef09d4e21e1a8894ec,67373fc98fdcff78025e0fa1,2024-11-15_12h34.45.027,Tarea de género gramatical,2024.2.2,Win32,59.88023952,,,,,,,,,,,,,,,,,,,,,,,269.5681,270.7602,l,1,0.5052,,[],[],[],[],[],[],[],0.5052,1,270.7608,271.2598,,,,,,138,MAS,DIS,150,luto,la,l,271.26,271.2604,0.515740797,-0.188888889,0,0,0,,0,89,89,137,1,,,,,
,,,,,,,15400e5201bad12de12eab93,66a626ef09d4e21e1a8894ec,67373fc98fdcff78025e0fa1,2024-11-15_12h34.45.027,Tarea de género gramatical,2024.2.2,Win32,59.88023952,,,,,,,,,,,,,,,,,,,,,,,271.263,272.4259,a,1,0.4842,,[],[],[],[],[],[],[],0.4842,1,272.4262,272.9148,,,,,,279,FEM,DIS,150,selva,el,a,272.9148,272.9149,0.515740797,-0.188888889,0,0,0,,0,90,90,278,1,,,,,
,,,,,,,15400e5201bad12de12eab93,66a626ef09d4e21e1a8894ec,67373fc98fdcff78025e0fa1,2024-11-15_12h34.45.027,Tarea de género gramatical,2024.2.2,Win32,59.88023952,,,,,,,,,,,,,,,,,,,,,,,272.916,274.1347,l,1,0.5615,,[],[],[],[],[],[],[],0.5615,1,274.135,274.6313,,,,,,312,MAS,DIS,150,equipo,la,l,274.6313,274.6314,0.515740797,-0.188888889,0,0,0,,0,91,91,311,1,,,,,
,,,,,,,15400e5201bad12de12eab93,66a626ef09d4e21e1a8894ec,67373fc98fdcff78025e0fa1,2024-11-15_12h34.45.027,Tarea de género gramatical,2024.2.2,Win32,59.88023952,,,,,,,,,,,,,,,,,,,,,,,274.6323,275.7821,l,1,0.4769,,[],[],[],[],[],[],[],0.4769,1,275.7822,276.2747,,,,,,174,MAS,DIS,150,perro,la,l,276.2776,276.2782,0.515740797,-0.188888889,0,0,0,,0,92,92,173,1,,,,,
,,,,,,,15400e5201bad12de12eab93,66a626ef09d4e21e1a8894ec,67373fc98fdcff78025e0fa1,2024-11-15_12h34.45.027,Tarea de género gramatical,2024.2.2,Win32,59.88023952,,,,,,,,,,,,,,,,,,,,,,,276.2789,277.5086,l,1,0.5402,,[],[],[],[],[],[],[],0.5402,1,277.5091,277.9984,,,,,,346,MAS,AGR,150,juicio,el,l,277.9985,277.9988,0.515740797,-0.188888889,0,0,0,,0,93,93,345,1,,,,,
,,,,,,,15400e5201bad12de12eab93,66a626ef09d4e21e1a8894ec,67373fc98fdcff78025e0fa1,2024-11-15_12h34.45.027,Tarea de género gramatical,2024.2.2,Win32,59.88023952,,,,,,,,,,,,,,,,,,,,,,,278.0011,279.1411,a,1,0.4576,,[],[],[],[],[],[],[],0.4576,1,279.1412,279.6301,,,,,,297,FEM,DIS,150,manta,el,a,279.6302,279.6303,0.515740797,-0.188888889,0,0,0,,0,94,94,296,1,,,,,
,,,,,,,15400e5201bad12de12eab93,66a626ef09d4e21e1a8894ec,67373fc98fdcff78025e0fa1,2024-11-15_12h34.45.027,Tarea de género gramatical,2024.2.2,Win32,59.88023952,,,,,,,,,,,,,,,,,,,,,,,279.6317,280.6906,a,0,0.3701,,[],[],[],[],[],[],[],0.3701,0,280.6929,281.1909,,,,,,210,MAS,DIS,150,baile,la,l,281.191,281.1914,0.515740797,-0.188888889,0,0,0,,0,95,95,209,1,,,,,
,,,,,,,15400e5201bad12de12eab93,66a626ef09d4e21e1a8894ec,67373fc98fdcff78025e0fa1,2024-11-15_12h34.45.027,Tarea de género gramatical,2024.2.2,Win32,59.88023952,,,,,,,,,,,,,,,,,,,,,,,281.1941,282.796,l,1,0.9283,,[],[],[],[],[],[],[],0.9283,1,282.7967,283.2956,,,,,,287,MAS,CON,150,plato,,l,283.2968,283.2976,0.515740797,-0.188888889,0,0,0,,0,96,96,286,1,,,,,
,,,,,,,15400e5201bad12de12eab93,66a626ef09d4e21e1a8894ec,67373fc98fdcff78025e0fa1,2024-11-15_12h34.45.027,Tarea de género gramatical,2024.2.2,Win32,59.88023952,,,,,,,,,,,,,,,,,,,,,,,283.2984,284.4454,a,1,0.4804,,[],[],[],[],[],[],[],0.4804,1,284.4456,284.938,,,,,,411,FEM,DIS,150,actriz,el,a,284.938,284.9384,0.515740797,-0.188888889,0,0,0,,0,97,97,410,1,,,,,
,,,,,,,15400e5201bad12de12eab93,66a626ef09d4e21e1a8894ec,67373fc98fdcff78025e0fa1,2024-11-15_12h34.45.027,Tarea de género gramatical,2024.2.2,Win32,59.88023952,,,,,,,,,,,,,,,,,,,,,,,284.9427,286.2887,l,1,0.6855,,[],[],[],[],[],[],[],0.6855,1,286.289,286.7783,,,,,,120,MAS,DIS,150,puño,la,l,286.7785,286.7787,0.515740797,-0.188888889,0,0,0,,0,98,98,119,1,,,,,
,,,,,,,15400e5201bad12de12eab93,66a626ef09d4e21e1a8894ec,67373fc98fdcff78025e0fa1,2024-11-15_12h34.45.027,Tarea de género gramatical,2024.2.2,Win32,59.88023952,,,,,,,,,,,,,,,,,,,,,,,286.7838,287.9786,l,1,0.5288,,[],[],[],[],[],[],[],0.5288,1,287.9788,288.4703,,,,,,95,MAS,CON,150,tomo,,l,288.4705,288.4708,0.515740797,-0.188888889,0,0,0,,0,99,99,94,1,,,,,
,,,,,,,15400e5201bad12de12eab93,66a626ef09d4e21e1a8894ec,67373fc98fdcff78025e0fa1,2024-11-15_12h34.45.027,Tarea de género gramatical,2024.2.2,Win32,59.88023952,,,,,,,,,,,,,,,,,,,,,,,288.4735,289.5269,l,1,0.3836,,[],[],[],[],[],[],[],0.3836,1,289.527,290.0242,,,,,,216,MAS,DIS,150,éxito,la,l,290.0243,290.0245,0.515740797,-0.188888889,0,0,0,,0,100,100,215,1,,,,,
,,,,,,,15400e5201bad12de12eab93,66a626ef09d4e21e1a8894ec,67373fc98fdcff78025e0fa1,2024-11-15_12h34.45.027,Tarea de género gramatical,2024.2.2,Win32,59.88023952,,,,,,,,,,,,,,,,,,,,,,,290.026,291.1288,l,1,0.4445,,[],[],[],[],[],[],[],0.4445,1,291.1289,291.6263,,,,,,268,MAS,AGR,150,truco,el,l,291.6279,291.629,0.515740797,-0.188888889,0,0,0,,0,101,101,267,1,,,,,
,,,,,,,15400e5201bad12de12eab93,66a626ef09d4e21e1a8894ec,67373fc98fdcff78025e0fa1,2024-11-15_12h34.45.027,Tarea de género gramatical,2024.2.2,Win32,59.88023952,,,,,,,,,,,,,,,,,,,,,,,291.6302,292.7427,l,1,0.4435,,[],[],[],[],[],[],[],0.4435,1,292.7428,293.2411,,,,,,118,MAS,AGR,150,baúl,el,l,293.2412,293.2414,0.515740797,-0.188888889,0,0,0,,0,102,102,117,1,,,,,
,,,,,,,15400e5201bad12de12eab93,66a626ef09d4e21e1a8894ec,67373fc98fdcff78025e0fa1,2024-11-15_12h34.45.027,Tarea de género gramatical,2024.2.2,Win32,59.88023952,,,,,,,,,,,,,,,,,,,,,,,293.2422,294.4351,l,1,0.508,,[],[],[],[],[],[],[],0.508,1,294.4353,294.9403,,,,,,432,MAS,DIS,150,océano,la,l,294.9404,294.9405,0.515740797,-0.188888889,0,0,0,,0,103,103,431,1,,,,,
,,,,,,,15400e5201bad12de12eab93,66a626ef09d4e21e1a8894ec,67373fc98fdcff78025e0fa1,2024-11-15_12h34.45.027,Tarea de género gramatical,2024.2.2,Win32,59.88023952,,,,,,,,,,,,,,,,,,,,,,,294.9414,296.0592,a,1,0.4606,,[],[],[],[],[],[],[],0.4606,1,296.0593,296.5598,,,,,,440,FEM,CON,150,patada,,a,296.56,296.5603,0.515740797,-0.188888889,0,0,0,,0,104,104,439,1,,,,,
,,,,,,,15400e5201bad12de12eab93,66a626ef09d4e21e1a8894ec,67373fc98fdcff78025e0fa1,2024-11-15_12h34.45.027,Tarea de género gramatical,2024.2.2,Win32,59.88023952,,,,,,,,,,,,,,,,,,,,,,,296.5624,297.7728,l,1,0.5336,,[],[],[],[],[],[],[],0.5336,1,297.7729,298.268,,,,,,126,MAS,DIS,150,lazo,la,l,298.271,298.2721,0.515740797,-0.188888889,0,0,0,,0,105,105,125,1,,,,,
,,,,,,,15400e5201bad12de12eab93,66a626ef09d4e21e1a8894ec,67373fc98fdcff78025e0fa1,2024-11-15_12h34.45.027,Tarea de género gramatical,2024.2.2,Win32,59.88023952,,,,,,,,,,,,,,,,,,,,,,,298.2733,299.5398,a,1,0.5923,,[],[],[],[],[],[],[],0.5923,1,299.5398,300.0331,,,,,,255,FEM,DIS,150,tribu,el,a,300.0333,300.0337,0.515740797,-0.188888889,0,0,0,,0,106,106,254,1,,,,,
,,,,,,,15400e5201bad12de12eab93,66a626ef09d4e21e1a8894ec,67373fc98fdcff78025e0fa1,2024-11-15_12h34.45.027,Tarea de género gramatical,2024.2.2,Win32,59.88023952,,,,,,,,,,,,,,,,,,,,,,,300.0363,301.1002,a,1,0.3799,,[],[],[],[],[],[],[],0.3799,1,301.1006,301.6073,,,,,,55,FEM,AGR,150,taza,la,a,301.6074,301.6077,0.515740797,-0.188888889,0,0,0,,0,107,107,54,1,,,,,
,,,,,,,15400e5201bad12de12eab93,66a626ef09d4e21e1a8894ec,67373fc98fdcff78025e0fa1,2024-11-15_12h34.45.027,Tarea de género gramatical,2024.2.2,Win32,59.88023952,,,,,,,,,,,,,,,,,,,,,,,301.6097,302.6725,l,1,0.3981,,[],[],[],[],[],[],[],0.3981,1,302.6725,303.1658,,,,,,329,MAS,CON,150,futuro,,l,303.166,303.1663,0.515740797,-0.188888889,0,0,0,,0,108,108,328,1,,,,,
,,,,,,,15400e5201bad12de12eab93,66a626ef09d4e21e1a8894ec,67373fc98fdcff78025e0fa1,2024-11-15_12h34.45.027,Tarea de género gramatical,2024.2.2,Win32,59.88023952,,,,,,,,,,,,,,,,,,,,,,,303.169,304.2482,l,1,0.4007,,[],[],[],[],[],[],[],0.4007,1,304.2484,304.7551,,,,,,239,MAS,CON,150,reloj,,l,304.7551,304.7551,0.515740797,-0.188888889,0,0,0,,0,109,109,238,1,,,,,
,,,,,,,15400e5201bad12de12eab93,66a626ef09d4e21e1a8894ec,67373fc98fdcff78025e0fa1,2024-11-15_12h34.45.027,Tarea de género gramatical,2024.2.2,Win32,59.88023952,,,,,,,,,,,,,,,,,,,,,,,304.756,305.8712,l,1,0.4492,,[],[],[],[],[],[],[],0.4492,1,305.8712,306.3643,,,,,,396,MAS,DIS,150,tesoro,la,l,306.3672,306.3679,0.515740797,-0.188888889,0,0,0,,0,110,110,395,1,,,,,
,,,,,,,15400e5201bad12de12eab93,66a626ef09d4e21e1a8894ec,67373fc98fdcff78025e0fa1,2024-11-15_12h34.45.027,Tarea de género gramatical,2024.2.2,Win32,59.88023952,,,,,,,,,,,,,,,,,,,,,,,306.3685,307.4389,a,1,0.4116,,[],[],[],[],[],[],[],0.4116,1,307.4391,307.932,,,,,,344,FEM,CON,150,pareja,,a,307.9322,307.9327,0.515740797,-0.188888889,0,0,0,,0,111,111,343,1,,,,,
,,,,,,,15400e5201bad12de12eab93,66a626ef09d4e21e1a8894ec,67373fc98fdcff78025e0fa1,2024-11-15_12h34.45.027,Tarea de género gramatical,2024.2.2,Win32,59.88023952,,,,,,,,,,,,,,,,,,,,,,,307.9358,309.0138,l,1,0.4187,,[],[],[],[],[],[],[],0.4187,1,309.0141,309.5035,,,,,,76,MAS,AGR,150,lujo,el,l,309.5037,309.504,0.515740797,-0.188888889,0,0,0,,0,112,112,75,1,,,,,
,,,,,,,15400e5201bad12de12eab93,66a626ef09d4e21e1a8894ec,67373fc98fdcff78025e0fa1,2024-11-15_12h34.45.027,Tarea de género gramatical,2024.2.2,Win32,59.88023952,,,,,,,,,,,,,,,,,,,,,,,309.5066,310.6202,a,0,0.4368,,[],[],[],[],[],[],[],0.4368,0,310.6209,311.1141,,,,,,281,MAS,CON,150,actor,,l,311.1143,311.1146,0.515740797,-0.188888889,0,0,0,,0,113,113,280,1,,,,,
,,,,,,,15400e5201bad12de12eab93,66a626ef09d4e21e1a8894ec,67373fc98fdcff78025e0fa1,2024-11-15_12h34.45.027,Tarea de género gramatical,2024.2.2,Win32,59.88023952,,,,,,,,,,,,,,,,,,,,,,,311.1169,312.5342,a,1,0.7563,,[],[],[],[],[],[],[],0.7563,1,312.5357,313.0298,,,,,,159,FEM,DIS,150,clase,el,a,313.0332,313.035,0.515740797,-0.188888889,0,0,0,,0,114,114,158,1,,,,,
,,,,,,,15400e5201bad12de12eab93,66a626ef09d4e21e1a8894ec,67373fc98fdcff78025e0fa1,2024-11-15_12h34.45.027,Tarea de género gramatical,2024.2.2,Win32,59.88023952,,,,,,,,,,,,,,,,,,,,,,,313.0368,314.3794,l,1,0.6696,,[],[],[],[],[],[],[],0.6696,1,314.3797,314.8681,,,,,,34,MAS,AGR,150,gato,el,l,314.8681,314.8682,0.515740797,-0.188888889,0,0,0,,0,115,115,33,1,,,,,
,,,,,,,15400e5201bad12de12eab93,66a626ef09d4e21e1a8894ec,67373fc98fdcff78025e0fa1,2024-11-15_12h34.45.027,Tarea de género gramatical,2024.2.2,Win32,59.88023952,,,,,,,,,,,,,,,,,,,,,,,314.8693,316.3843,a,1,0.8456,,[],[],[],[],[],[],[],0.8456,1,316.3844,316.8776,,,,,,87,FEM,DIS,150,risa,el,a,316.8777,316.878,0.515740797,-0.188888889,0,0,0,,0,116,116,86,1,,,,,
,,,,,,,15400e5201bad12de12eab93,66a626ef09d4e21e1a8894ec,67373fc98fdcff78025e0fa1,2024-11-15_12h34.45.027,Tarea de género gramatical,2024.2.2,Win32,59.88023952,,,,,,,,,,,,,,,,,,,,,,,316.8805,318.2457,a,1,0.6952,,[],[],[],[],[],[],[],0.6952,1,318.2461,318.7339,,,,,,158,FEM,CON,150,chica,,a,318.734,318.7342,0.515740797,-0.188888889,0,0,0,,0,117,117,157,1,,,,,
,,,,,,,15400e5201bad12de12eab93,66a626ef09d4e21e1a8894ec,67373fc98fdcff78025e0fa1,2024-11-15_12h34.45.027,Tarea de género gramatical,2024.2.2,Win32,59.88023952,,,,,,,,,,,,,,,,,,,,,,,318.7357,319.7941,a,1,0.3736,,[],[],[],[],[],[],[],0.3736,1,319.7944,320.283,,,,,,33,FEM,DIS,150,boda,el,a,320.283,320.2831,0.515740797,-0.188888889,0,0,0,,0,118,118,32,1,,,,,
,,,,,,,15400e5201bad12de12eab93,66a626ef09d4e21e1a8894ec,67373fc98fdcff78025e0fa1,2024-11-15_12h34.45.027,Tarea de género gramatical,2024.2.2,Win32,59.88023952,,,,,,,,,,,,,,,,,,,,,,,320.2848,321.4842,l,1,0.5278,,[],[],[],[],[],[],[],0.5278,1,321.4844,321.982,,,,,,448,MAS,AGR,150,aceite,el,l,321.9828,321.9835,0.515740797,-0.188888889,0,0,0,,0,119,119,447,1,,,,,
,,,,,,,15400e5201bad12de12eab93,66a626ef09d4e21e1a8894ec,67373fc98fdcff78025e0fa1,2024-11-15_12h34.45.027,Tarea de género gramatical,2024.2.2,Win32,59.88023952,,,,,,,,,,,,,,,,,,,,,,,321.9841,323.0763,l,1,0.4193,,[],[],[],[],[],[],[],0.4193,1,323.0765,323.5825,,,,,,154,MAS,AGR,150,padre,el,l,323.5826,323.5828,0.515740797,-0.188888889,0,0,0,,0,120,120,153,1,,,,,
,,,,,,,15400e5201bad12de12eab93,66a626ef09d4e21e1a8894ec,67373fc98fdcff78025e0fa1,2024-11-15_12h34.45.027,Tarea de género gramatical,2024.2.2,Win32,59.88023952,,,,,,,,,,,,,,,,,,,,,,,323.5849,324.7514,a,1,0.4856,,[],[],[],[],[],[],[],0.4856,1,324.7516,325.2486,,,,,,99,FEM,DIS,150,fase,el,a,325.2486,325.2487,0.515740797,-0.188888889,0,0,0,,0,121,121,98,1,,,,,
,,,,,,,15400e5201bad12de12eab93,66a626ef09d4e21e1a8894ec,67373fc98fdcff78025e0fa1,2024-11-15_12h34.45.027,Tarea de género gramatical,2024.2.2,Win32,59.88023952,,,,,,,,,,,,,,,,,,,,,,,325.2504,326.3813,a,1,0.4599,,[],[],[],[],[],[],[],0.4599,1,326.3815,326.881,,,,,,229,FEM,AGR,150,celda,la,a,326.881,326.881,0.515740797,-0.188888889,0,0,0,,0,122,122,228,1,,,,,
,,,,,,,15400e5201bad12de12eab93,66a626ef09d4e21e1a8894ec,67373fc98fdcff78025e0fa1,2024-11-15_12h34.45.027,Tarea de género gramatical,2024.2.2,Win32,59.88023952,,,,,,,,,,,,,,,,,,,,,,,326.882,327.9472,l,1,0.3929,,[],[],[],[],[],[],[],0.3929,1,327.9473,328.4399,,,,,,347,MAS,CON,150,cuello,,l,328.4441,328.4448,0.515740797,-0.188888889,0,0,0,,0,123,123,346,1,,,,,
,,,,,,,15400e5201bad12de12eab93,66a626ef09d4e21e1a8894ec,67373fc98fdcff78025e0fa1,2024-11-15_12h34.45.027,Tarea de género gramatical,2024.2.2,Win32,59.88023952,,,,,,,,,,,,,,,,,,,,,,,328.4455,329.4912,l,1,0.3685,,[],[],[],[],[],[],[],0.3685,1,329.4915,329.9973,,,,,,443,MAS,CON,150,templo,,l,329.9975,329.9977,0.515740797,-0.188888889,0,0,0,,0,124,124,442,1,,,,,
,,,,,,,15400e5201bad12de12eab93,66a626ef09d4e21e1a8894ec,67373fc98fdcff78025e0fa1,2024-11-15_12h34.45.027,Tarea de género gramatical,2024.2.2,Win32,59.88023952,,,,,,,,,,,,,,,,,,,,,,,329.9998,331.04,l,1,0.3584,,[],[],[],[],[],[],[],0.3584,1,331.0402,331.5398,,,,,,419,MAS,CON,150,cuento,,l,331.5399,331.5401,0.515740797,-0.188888889,0,0,0,,0,125,125,418,1,,,,,
,,,,,,,15400e5201bad12de12eab93,66a626ef09d4e21e1a8894ec,67373fc98fdcff78025e0fa1,2024-11-15_12h34.45.027,Tarea de género gramatical,2024.2.2,Win32,59.88023952,,,,,,,,,,,,,,,,,,,,,,,331.5423,332.6551,l,1,0.4315,,[],[],[],[],[],[],[],0.4315,1,332.6552,333.1445,,,,,,269,MAS,CON,150,primo,,l,333.1446,333.1446,0.515740797,-0.188888889,0,0,0,,0,126,126,268,1,,,,,
,,,,,,,15400e5201bad12de12eab93,66a626ef09d4e21e1a8894ec,67373fc98fdcff78025e0fa1,2024-11-15_12h34.45.027,Tarea de género gramatical,2024.2.2,Win32,59.88023952,,,,,,,,,,,,,,,,,,,,,,,333.1455,334.1634,a,1,0.3615,,[],[],[],[],[],[],[],0.3615,1,334.1635,334.6553,,,,,,117,FEM,DIS,150,raya,el,a,334.6553,334.6556,0.515740797,-0.188888889,0,0,0,,0,127,127,116,1,,,,,
,,,,,,,15400e5201bad12de12eab93,66a626ef09d4e21e1a8894ec,67373fc98fdcff78025e0fa1,2024-11-15_12h34.45.027,Tarea de género gramatical,2024.2.2,Win32,59.88023952,,,,,,,,,,,,,,,,,,,,,,,334.6578,336.2624,l,1,0.9439,,[],[],[],[],[],[],[],0.9439,1,336.2625,336.7551,,,,,,149,MAS,CON,150,nudo,,l,336.7583,336.7596,0.515740797,-0.188888889,0,0,0,,0,128,128,148,1,,,,,
,,,,,,,15400e5201bad12de12eab93,66a626ef09d4e21e1a8894ec,67373fc98fdcff78025e0fa1,2024-11-15_12h34.45.027,Tarea de género gramatical,2024.2.2,Win32,59.88023952,,,,,,,,,,,,,,,,,,,,,,,336.7608,338.2573,l,1,0.8427,,[],[],[],[],[],[],[],0.8427,1,338.2574,338.7533,,,,,,390,MAS,DIS,150,rostro,la,l,338.7535,338.7537,0.515740797,-0.188888889,0,0,0,,0,129,129,389,1,,,,,
,,,,,,,15400e5201bad12de12eab93,66a626ef09d4e21e1a8894ec,67373fc98fdcff78025e0fa1,2024-11-15_12h34.45.027,Tarea de género gramatical,2024.2.2,Win32,59.88023952,,,,,,,,,,,,,,,,,,,,,,,338.7566,339.887,l,1,0.4577,,[],[],[],[],[],[],[],0.4577,1,339.8874,340.3767,,,,,,442,MAS,AGR,150,cuadro,el,l,340.3768,340.3769,0.515740797,-0.188888889,0,0,0,,0,130,130,441,1,,,,,
,,,,,,,15400e5201bad12de12eab93,66a626ef09d4e21e1a8894ec,67373fc98fdcff78025e0fa1,2024-11-15_12h34.45.027,Tarea de género gramatical,2024.2.2,Win32,59.88023952,,,,,,,,,,,,,,,,,,,,,,,340.3789,341.5278,l,1,0.4791,,[],[],[],[],[],[],[],0.4791,1,341.528,342.0197,,,,,,364,MAS,AGR,150,viento,el,l,342.0199,342.0203,0.515740797,-0.188888889,0,0,0,,0,131,131,363,1,,,,,
,,,,,,,15400e5201bad12de12eab93,66a626ef09d4e21e1a8894ec,67373fc98fdcff78025e0fa1,2024-11-15_12h34.45.027,Tarea de género gramatical,2024.2.2,Win32,59.88023952,,,,,,,,,,,,,,,,,,,,,,,342.0228,343.1928,a,1,0.5016,,[],[],[],[],[],[],[],0.5016,1,343.193,343.6934,,,,,,91,FEM,AGR,150,hoja,la,a,343.6953,343.6966,0.515740797,-0.188888889,0,0,0,,0,132,132,90,1,,,,,
,,,,,,,15400e5201bad12de12eab93,66a626ef09d4e21e1a8894ec,67373fc98fdcff78025e0fa1,2024-11-15_12h34.45.027,Tarea de género gramatical,2024.2.2,Win32,59.88023952,,,,,,,,,,,,,,,,,,,,,,,343.698,344.8354,l,1,0.4592,,[],[],[],[],[],[],[],0.4592,1,344.8358,345.3432,,,,,,444,MAS,DIS,150,límite,la,l,345.3433,345.3437,0.515740797,-0.188888889,0,0,0,,0,133,133,443,1,,,,,
,,,,,,,15400e5201bad12de12eab93,66a626ef09d4e21e1a8894ec,67373fc98fdcff78025e0fa1,2024-11-15_12h34.45.027,Tarea de género gramatical,2024.2.2,Win32,59.88023952,,,,,,,,,,,,,,,,,,,,,,,345.3458,346.4901,l,1,0.4741,,[],[],[],[],[],[],[],0.4741,1,346.4902,346.9916,,,,,,60,MAS,DIS,150,tono,la,l,346.9916,346.9919,0.515740797,-0.188888889,0,0,0,,0,134,134,59,1,,,,,
,,,,,,,15400e5201bad12de12eab93,66a626ef09d4e21e1a8894ec,67373fc98fdcff78025e0fa1,2024-11-15_12h34.45.027,Tarea de género gramatical,2024.2.2,Win32,59.88023952,,,,,,,,,,,,,,,,,,,,,,,346.994,348.0896,l,1,0.4274,,[],[],[],[],[],[],[],0.4274,1,348.0897,348.5898,,,,,,258,MAS,DIS,150,polvo,la,l,348.5899,348.5901,0.515740797,-0.188888889,0,0,0,,0,135,135,257,1,,,,,
,,,,,,,15400e5201bad12de12eab93,66a626ef09d4e21e1a8894ec,67373fc98fdcff78025e0fa1,2024-11-15_12h34.45.027,Tarea de género gramatical,2024.2.2,Win32,59.88023952,,,,,,,,,,,,,,,,,,,,,,,348.5913,349.6,a,1,0.3385,,[],[],[],[],[],[],[],0.3385,1,349.6003,350.1062,,,,,,9,FEM,DIS,150,mamá,el,a,350.1063,350.1063,0.515740797,-0.188888889,0,0,0,,0,136,136,8,1,,,,,
,,,,,,,15400e5201bad12de12eab93,66a626ef09d4e21e1a8894ec,67373fc98fdcff78025e0fa1,2024-11-15_12h34.45.027,Tarea de género gramatical,2024.2.2,Win32,59.88023952,,,,,,,,,,,,,,,,,,,,,,,350.1072,351.4566,l,1,0.6807,,[],[],[],[],[],[],[],0.6807,1,351.4569,351.9505,,,,,,173,MAS,CON,150,libro,,l,351.9541,351.9556,0.515740797,-0.188888889,0,0,0,,0,137,137,172,1,,,,,
,,,,,,,15400e5201bad12de12eab93,66a626ef09d4e21e1a8894ec,67373fc98fdcff78025e0fa1,2024-11-15_12h34.45.027,Tarea de género gramatical,2024.2.2,Win32,59.88023952,,,,,,,,,,,,,,,,,,,,,,,351.9567,353.0217,l,1,0.3999,,[],[],[],[],[],[],[],0.3999,1,353.0218,353.5206,,,,,,29,MAS,CON,150,frío,,l,353.5207,353.5209,0.515740797,-0.188888889,0,0,0,,0,138,138,28,1,,,,,
,,,,,,,15400e5201bad12de12eab93,66a626ef09d4e21e1a8894ec,67373fc98fdcff78025e0fa1,2024-11-15_12h34.45.027,Tarea de género gramatical,2024.2.2,Win32,59.88023952,,,,,,,,,,,,,,,,,,,,,,,353.523,354.5217,l,1,0.3171,,[],[],[],[],[],[],[],0.3171,1,354.5218,355.0154,,,,,,234,MAS,DIS,150,héroe,la,l,355.0156,355.0159,0.515740797,-0.188888889,0,0,0,,0,139,139,233,1,,,,,
,,,,,,,15400e5201bad12de12eab93,66a626ef09d4e21e1a8894ec,67373fc98fdcff78025e0fa1,2024-11-15_12h34.45.027,Tarea de género gramatical,2024.2.2,Win32,59.88023952,,,,,,,,,,,,,,,,,,,,,,,355.0179,356.1557,a,1,0.468,,[],[],[],[],[],[],[],0.468,1,356.1557,356.6479,,,,,,249,FEM,DIS,150,crema,el,a,356.6481,356.6483,0.515740797,-0.188888889,0,0,0,,0,140,140,248,1,,,,,
,,,,,,,15400e5201bad12de12eab93,66a626ef09d4e21e1a8894ec,67373fc98fdcff78025e0fa1,2024-11-15_12h34.45.027,Tarea de género gramatical,2024.2.2,Win32,59.88023952,,,,,,,,,,,,,,,,,,,,,,,356.6506,357.6808,a,1,0.3528,,[],[],[],[],[],[],[],0.3528,1,357.6812,358.1711,,,,,,31,FEM,AGR,150,edad,la,a,358.1736,358.1753,0.515740797,-0.188888889,0,0,0,,0,141,141,30,1,,,,,
,,,,,,,15400e5201bad12de12eab93,66a626ef09d4e21e1a8894ec,67373fc98fdcff78025e0fa1,2024-11-15_12h34.45.027,Tarea de género gramatical,2024.2.2,Win32,59.88023952,,,,,,,,,,,,,,,,,,,,,,,358.1773,359.2136,l,1,0.3728,,[],[],[],[],[],[],[],0.3728,1,359.2139,359.7029,,,,,,180,MAS,DIS,150,fuego,la,l,359.703,359.7031,0.515740797,-0.188888889,0,0,0,,0,142,142,179,1,,,,,
,,,,,,,15400e5201bad12de12eab93,66a626ef09d4e21e1a8894ec,67373fc98fdcff78025e0fa1,2024-11-15_12h34.45.027,Tarea de género gramatical,2024.2.2,Win32,59.88023952,,,,,,,,,,,,,,,,,,,,,,,359.7039,360.837,a,1,0.4678,,[],[],[],[],[],[],[],0.4678,1,360.837,361.3287,,,,,,134,FEM,CON,150,rama,,a,361.3288,361.329,0.515740797,-0.188888889,0,0,0,,0,143,143,133,1,,,,,
,,,,,,,15400e5201bad12de12eab93,66a626ef09d4e21e1a8894ec,67373fc98fdcff78025e0fa1,2024-11-15_12h34.45.027,Tarea de género gramatical,2024.2.2,Win32,59.88023952,,,,,,,,,,,,,,,,,,,,,,,361.3321,362.3847,a,1,0.3921,,[],[],[],[],[],[],[],0.3921,1,362.3848,362.8864,,,,,,183,FEM,DIS,150,llave,el,a,362.8865,362.8867,0.515740797,-0.188888889,0,0,0,,0,144,144,182,1,,,,,
,,,,,,,15400e5201bad12de12eab93,66a626ef09d4e21e1a8894ec,67373fc98fdcff78025e0fa1,2024-11-15_12h34.45.027,Tarea de género gramatical,2024.2.2,Win32,59.88023952,,,,,,,,,,,,,,,,,,,,,,,362.8889,363.9449,l,1,0.3681,,[],[],[],[],[],[],[],0.3681,1,363.9451,364.4358,,,,,,64,MAS,AGR,150,saco,el,l,364.4359,364.4362,0.515740797,-0.188888889,0,0,0,,0,145,145,63,1,,,,,
,,,,,,,15400e5201bad12de12eab93,66a626ef09d4e21e1a8894ec,67373fc98fdcff78025e0fa1,2024-11-15_12h34.45.027,Tarea de género gramatical,2024.2.2,Win32,59.88023952,,,,,,,,,,,,,,,,,,,,,,,364.4383,365.6024,a,1,0.4929,,[],[],[],[],[],[],[],0.4929,1,365.6025,366.1016,,,,,,291,FEM,DIS,150,aguja,el,a,366.1047,366.1064,0.515740797,-0.188888889,0,0,0,,0,146,146,290,1,,,,,
,,,,,,,15400e5201bad12de12eab93,66a626ef09d4e21e1a8894ec,67373fc98fdcff78025e0fa1,2024-11-15_12h34.45.027,Tarea de género gramatical,2024.2.2,Win32,59.88023952,,,,,,,,,,,,,,,,,,,,,,,366.1078,367.1767,l,1,0.3872,,[],[],[],[],[],[],[],0.3872,1,367.1769,367.6851,,,,,,72,MAS,DIS,150,hoyo,la,l,367.6853,367.6853,0.515740797,-0.188888889,0,0,0,,0,147,147,71,1,,,,,
,,,,,,,15400e5201bad12de12eab93,66a626ef09d4e21e1a8894ec,67373fc98fdcff78025e0fa1,2024-11-15_12h34.45.027,Tarea de género gramatical,2024.2.2,Win32,59.88023952,,,,,,,,,,,,,,,,,,,,,,,367.6865,368.7493,l,1,0.3958,,[],[],[],[],[],[],[],0.3958,1,368.7494,369.2467,,,,,,70,MAS,AGR,150,palo,el,l,369.2467,369.2468,0.515740797,-0.188888889,0,0,0,,0,148,148,69,1,,,,,
,,,,,,,15400e5201bad12de12eab93,66a626ef09d4e21e1a8894ec,67373fc98fdcff78025e0fa1,2024-11-15_12h34.45.027,Tarea de género gramatical,2024.2.2,Win32,59.88023952,,,,,,,,,,,,,,,,,,,,,,,369.2478,370.2595,a,1,0.3479,,[],[],[],[],[],[],[],0.3479,1,370.2598,370.7593,,,,,,230,FEM,CON,150,regla,,a,370.7595,370.7598,0.515740797,-0.188888889,0,0,0,,0,149,149,229,1,,,,,
,,,,,,,15400e5201bad12de12eab93,66a626ef09d4e21e1a8894ec,67373fc98fdcff78025e0fa1,2024-11-15_12h34.45.027,Tarea de género gramatical,2024.2.2,Win32,59.88023952,,,,,,,,,,,,,,,,,,,,,,,370.7623,371.8997,a,1,0.4669,,[],[],[],[],[],[],[],0.4669,1,371.8998,372.3977,,,,,,141,FEM,DIS,150,cera,el,a,372.3989,389.8944,0.515740797,-0.188888889,0,0,0,space,0,150,150,140,1,17.4787,,,,
,,,,,,,15400e5201bad12de12eab93,66a626ef09d4e21e1a8894ec,67373fc98fdcff78025e0fa1,2024-11-15_12h34.45.027,Tarea de género gramatical,2024.2.2,Win32,59.88023952,,,,,,,,,,,,,,,,,,,,,,,389.896,391.4863,l,1,0.9018,,[],[],[],[],[],[],[],0.9018,1,391.4865,391.9764,,,,,,78,MAS,DIS,150,oído,la,l,391.9765,391.9767,0.515740797,-0.188888889,0,0,0,,0,151,151,77,1,,,,,
,,,,,,,15400e5201bad12de12eab93,66a626ef09d4e21e1a8894ec,67373fc98fdcff78025e0fa1,2024-11-15_12h34.45.027,Tarea de género gramatical,2024.2.2,Win32,59.88023952,,,,,,,,,,,,,,,,,,,,,,,391.9787,392.9845,a,1,0.3372,,[],[],[],[],[],[],[],0.3372,1,392.9847,393.4913,,,,,,32,FEM,CON,150,caja,,a,393.4914,393.4914,0.515740797,-0.188888889,0,0,0,,0,152,152,31,1,,,,,
,,,,,,,15400e5201bad12de12eab93,66a626ef09d4e21e1a8894ec,67373fc98fdcff78025e0fa1,2024-11-15_12h34.45.027,Tarea de género gramatical,2024.2.2,Win32,59.88023952,,,,,,,,,,,,,,,,,,,,,,,393.4923,394.5577,l,1,0.3961,,[],[],[],[],[],[],[],0.3961,1,394.5578,395.0567,,,,,,10,MAS,AGR,150,niño,el,l,395.0567,395.0568,0.515740797,-0.188888889,0,0,0,,0,153,153,9,1,,,,,
,,,,,,,15400e5201bad12de12eab93,66a626ef09d4e21e1a8894ec,67373fc98fdcff78025e0fa1,2024-11-15_12h34.45.027,Tarea de género gramatical,2024.2.2,Win32,59.88023952,,,,,,,,,,,,,,,,,,,,,,,395.0578,396.4187,a,0,0.6861,,[],[],[],[],[],[],[],0.6861,0,396.4215,396.9093,,,,,,65,MAS,CON,150,rayo,,l,396.9094,396.9097,0.515740797,-0.188888889,0,0,0,,0,154,154,64,1,,,,,
,,,,,,,15400e5201bad12de12eab93,66a626ef09d4e21e1a8894ec,67373fc98fdcff78025e0fa1,2024-11-15_12h34.45.027,Tarea de género gramatical,2024.2.2,Win32,59.88023952,,,,,,,,,,,,,,,,,,,,,,,396.9118,398.6005,a,1,1.0037,,[],[],[],[],[],[],[],1.0037,1,398.6027,399.1084,,,,,,338,FEM,CON,150,abuela,,a,399.1109,399.113,0.515740797,-0.188888889,0,0,0,,0,155,155,337,1,,,,,
,,,,,,,15400e5201bad12de12eab93,66a626ef09d4e21e1a8894ec,67373fc98fdcff78025e0fa1,2024-11-15_12h34.45.027,Tarea de género gramatical,2024.2.2,Win32,59.88023952,,,,,,,,,,,,,,,,,,,,,,,399.1142,400.49,l,1,0.7008,,[],[],[],[],[],[],[],0.7008,1,400.4902,400.9893,,,,,,17,MAS,CON,150,modo,,l,400.9894,400.9896,0.515740797,-0.188888889,0,0,0,,0,156,156,16,1,,,,,
,,,,,,,15400e5201bad12de12eab93,66a626ef09d4e21e1a8894ec,67373fc98fdcff78025e0fa1,2024-11-15_12h34.45.027,Tarea de género gramatical,2024.2.2,Win32,59.88023952,,,,,,,,,,,,,,,,,,,,,,,400.9915,402.1071,l,1,0.4374,,[],[],[],[],[],[],[],0.4374,1,402.1072,402.6024,,,,,,311,MAS,CON,150,camino,,l,402.6024,402.6026,0.515740797,-0.188888889,0,0,0,,0,157,157,310,1,,,,,
,,,,,,,15400e5201bad12de12eab93,66a626ef09d4e21e1a8894ec,67373fc98fdcff78025e0fa1,2024-11-15_12h34.45.027,Tarea de género gramatical,2024.2.2,Win32,59.88023952,,,,,,,,,,,,,,,,,,,,,,,402.6039,403.7311,a,1,0.4493,,[],[],[],[],[],[],[],0.4493,1,403.7316,404.2379,,,,,,163,FEM,AGR,150,calle,la,a,404.238,404.2381,0.515740797,-0.188888889,0,0,0,,0,158,158,162,1,,,,,
,,,,,,,15400e5201bad12de12eab93,66a626ef09d4e21e1a8894ec,67373fc98fdcff78025e0fa1,2024-11-15_12h34.45.027,Tarea de género gramatical,2024.2.2,Win32,59.88023952,,,,,,,,,,,,,,,,,,,,,,,404.239,405.9142,a,1,1.0036,,[],[],[],[],[],[],[],1.0036,1,405.9146,406.4205,,,,,,3,FEM,DIS,150,cosa,el,a,406.4216,406.4223,0.515740797,-0.188888889,0,0,0,,0,159,159,2,1,,,,,
,,,,,,,15400e5201bad12de12eab93,66a626ef09d4e21e1a8894ec,67373fc98fdcff78025e0fa1,2024-11-15_12h34.45.027,Tarea de género gramatical,2024.2.2,Win32,59.88023952,,,,,,,,,,,,,,,,,,,,,,,406.4231,407.4535,a,1,0.3599,,[],[],[],[],[],[],[],0.3599,1,407.4536,407.9473,,,,,,7,FEM,AGR,150,hora,la,a,407.9474,407.9476,0.515740797,-0.188888889,0,0,0,,0,160,160,6,1,,,,,
,,,,,,,15400e5201bad12de12eab93,66a626ef09d4e21e1a8894ec,67373fc98fdcff78025e0fa1,2024-11-15_12h34.45.027,Tarea de género gramatical,2024.2.2,Win32,59.88023952,,,,,,,,,,,,,,,,,,,,,,,407.9498,408.9689,a,1,0.3452,,[],[],[],[],[],[],[],0.3452,1,408.969,409.4707,,,,,,21,FEM,DIS,150,boca,el,a,409.4708,409.4711,0.515740797,-0.188888889,0,0,0,,0,161,161,20,1,,,,,
,,,,,,,15400e5201bad12de12eab93,66a626ef09d4e21e1a8894ec,67373fc98fdcff78025e0fa1,2024-11-15_12h34.45.027,Tarea de género gramatical,2024.2.2,Win32,59.88023952,,,,,,,,,,,,,,,,,,,,,,,409.4737,410.6199,l,1,0.4805,,[],[],[],[],[],[],[],0.4805,1,410.6199,411.1204,,,,,,130,MAS,AGR,150,yate,el,l,411.1204,411.1207,0.515740797,-0.188888889,0,0,0,,0,162,162,129,1,,,,,
,,,,,,,15400e5201bad12de12eab93,66a626ef09d4e21e1a8894ec,67373fc98fdcff78025e0fa1,2024-11-15_12h34.45.027,Tarea de género gramatical,2024.2.2,Win32,59.88023952,,,,,,,,,,,,,,,,,,,,,,,411.1228,412.1788,a,1,0.3786,,[],[],[],[],[],[],[],0.3786,1,412.179,412.6682,,,,,,80,FEM,CON,150,vaca,,a,412.6683,412.6684,0.515740797,-0.188888889,0,0,0,,0,163,163,79,1,,,,,
,,,,,,,15400e5201bad12de12eab93,66a626ef09d4e21e1a8894ec,67373fc98fdcff78025e0fa1,2024-11-15_12h34.45.027,Tarea de género gramatical,2024.2.2,Win32,59.88023952,,,,,,,,,,,,,,,,,,,,,,,412.6693,413.7775,a,1,0.4296,,[],[],[],[],[],[],[],0.4296,1,413.7777,414.2844,,,,,,8,FEM,CON,150,idea,,a,414.2857,414.2865,0.515740797,-0.188888889,0,0,0,,0,164,164,7,1,,,,,
,,,,,,,15400e5201bad12de12eab93,66a626ef09d4e21e1a8894ec,67373fc98fdcff78025e0fa1,2024-11-15_12h34.45.027,Tarea de género gramatical,2024.2.2,Win32,59.88023952,,,,,,,,,,,,,,,,,,,,,,,414.2872,415.3603,a,1,0.4095,,[],[],[],[],[],[],[],0.4095,1,415.3605,415.8606,,,,,,429,FEM,DIS,150,fianza,el,a,415.8606,415.8608,0.515740797,-0.188888889,0,0,0,,0,165,165,428,1,,,,,
,,,,,,,15400e5201bad12de12eab93,66a626ef09d4e21e1a8894ec,67373fc98fdcff78025e0fa1,2024-11-15_12h34.45.027,Tarea de género gramatical,2024.2.2,Win32,59.88023952,,,,,,,,,,,,,,,,,,,,,,,415.8618,417.1098,l,1,0.5671,,[],[],[],[],[],[],[],0.5671,1,417.1098,417.6102,,,,,,102,MAS,DIS,150,coro,la,l,417.6104,417.6106,0.515740797,-0.188888889,0,0,0,,0,166,166,101,1,,,,,
,,,,,,,15400e5201bad12de12eab93,66a626ef09d4e21e1a8894ec,67373fc98fdcff78025e0fa1,2024-11-15_12h34.45.027,Tarea de género gramatical,2024.2.2,Win32,59.88023952,,,,,,,,,,,,,,,,,,,,,,,417.6118,418.7435,a,1,0.4525,,[],[],[],[],[],[],[],0.4525,1,418.7436,419.2437,,,,,,303,FEM,DIS,150,maldad,el,a,419.2439,419.2441,0.515740797,-0.188888889,0,0,0,,0,167,167,302,1,,,,,
,,,,,,,15400e5201bad12de12eab93,66a626ef09d4e21e1a8894ec,67373fc98fdcff78025e0fa1,2024-11-15_12h34.45.027,Tarea de género gramatical,2024.2.2,Win32,59.88023952,,,,,,,,,,,,,,,,,,,,,,,419.2463,420.3754,l,1,0.4519,,[],[],[],[],[],[],[],0.4519,1,420.3754,420.8754,,,,,,89,MAS,CON,150,maíz,,l,420.8763,420.8782,0.515740797,-0.188888889,0,0,0,,0,168,168,88,1,,,,,
,,,,,,,15400e5201bad12de12eab93,66a626ef09d4e21e1a8894ec,67373fc98fdcff78025e0fa1,2024-11-15_12h34.45.027,Tarea de género gramatical,2024.2.2,Win32,59.88023952,,,,,,,,,,,,,,,,,,,,,,,420.8797,421.9929,a,1,0.433,,[],[],[],[],[],[],[],0.433,1,421.993,422.492,,,,,,177,FEM,DIS,150,broma,el,a,422.4921,422.4923,0.515740797,-0.188888889,0,0,0,,0,169,169,176,1,,,,,
,,,,,,,15400e5201bad12de12eab93,66a626ef09d4e21e1a8894ec,67373fc98fdcff78025e0fa1,2024-11-15_12h34.45.027,Tarea de género gramatical,2024.2.2,Win32,59.88023952,,,,,,,,,,,,,,,,,,,,,,,422.4936,423.5748,l,1,0.4038,,[],[],[],[],[],[],[],0.4038,1,423.5748,424.0753,,,,,,232,MAS,AGR,150,calor,el,l,424.0754,424.0756,0.515740797,-0.188888889,0,0,0,,0,170,170,231,1,,,,,
,,,,,,,15400e5201bad12de12eab93,66a626ef09d4e21e1a8894ec,67373fc98fdcff78025e0fa1,2024-11-15_12h34.45.027,Tarea de género gramatical,2024.2.2,Win32,59.88023952,,,,,,,,,,,,,,,,,,,,,,,424.0778,425.1577,a,1,0.4005,,[],[],[],[],[],[],[],0.4005,1,425.1578,425.6584,,,,,,157,FEM,AGR,150,madre,la,a,425.6585,425.6588,0.515740797,-0.188888889,0,0,0,,0,171,171,156,1,,,,,
,,,,,,,15400e5201bad12de12eab93,66a626ef09d4e21e1a8894ec,67373fc98fdcff78025e0fa1,2024-11-15_12h34.45.027,Tarea de género gramatical,2024.2.2,Win32,59.88023952,,,,,,,,,,,,,,,,,,,,,,,425.661,426.7232,l,1,0.3923,,[],[],[],[],[],[],[],0.3923,1,426.7233,427.2237,,,,,,101,MAS,CON,150,giro,,l,427.2238,427.2239,0.515740797,-0.188888889,0,0,0,,0,172,172,100,1,,,,,
,,,,,,,15400e5201bad12de12eab93,66a626ef09d4e21e1a8894ec,67373fc98fdcff78025e0fa1,2024-11-15_12h34.45.027,Tarea de género gramatical,2024.2.2,Win32,59.88023952,,,,,,,,,,,,,,,,,,,,,,,427.2259,428.3228,l,1,0.4202,,[],[],[],[],[],[],[],0.4202,1,428.3229,428.8236,,,,,,371,MAS,CON,150,sonido,,l,428.8261,428.8285,0.515740797,-0.188888889,0,0,0,,0,173,173,370,1,,,,,
,,,,,,,15400e5201bad12de12eab93,66a626ef09d4e21e1a8894ec,67373fc98fdcff78025e0fa1,2024-11-15_12h34.45.027,Tarea de género gramatical,2024.2.2,Win32,59.88023952,,,,,,,,,,,,,,,,,,,,,,,428.8302,429.8896,a,1,0.3821,,[],[],[],[],[],[],[],0.3821,1,429.8897,430.3891,,,,,,164,FEM,CON,150,novia,,a,430.3892,430.3894,0.515740797,-0.188888889,0,0,0,,0,174,174,163,1,,,,,
,,,,,,,15400e5201bad12de12eab93,66a626ef09d4e21e1a8894ec,67373fc98fdcff78025e0fa1,2024-11-15_12h34.45.027,Tarea de género gramatical,2024.2.2,Win32,59.88023952,,,,,,,,,,,,,,,,,,,,,,,430.3906,431.5889,a,1,0.5191,,[],[],[],[],[],[],[],0.5191,1,431.5891,432.0893,,,,,,135,FEM,DIS,150,raíz,el,a,432.0893,432.0895,0.515740797,-0.188888889,0,0,0,,0,175,175,134,1,,,,,
,,,,,,,15400e5201bad12de12eab93,66a626ef09d4e21e1a8894ec,67373fc98fdcff78025e0fa1,2024-11-15_12h34.45.027,Tarea de género gramatical,2024.2.2,Win32,59.88023952,,,,,,,,,,,,,,,,,,,,,,,432.0914,433.1717,l,1,0.4017,,[],[],[],[],[],[],[],0.4017,1,433.1719,433.672,,,,,,400,MAS,AGR,150,barrio,el,l,433.6721,433.6723,0.515740797,-0.188888889,0,0,0,,0,176,176,399,1,,,,,
,,,,,,,15400e5201bad12de12eab93,66a626ef09d4e21e1a8894ec,67373fc98fdcff78025e0fa1,2024-11-15_12h34.45.027,Tarea de género gramatical,2024.2.2,Win32,59.88023952,,,,,,,,,,,,,,,,,,,,,,,433.6745,434.7384,a,1,0.3834,,[],[],[],[],[],[],[],0.3834,1,434.7385,435.2381,,,,,,50,FEM,CON,150,dama,,a,435.2409,435.2433,0.515740797,-0.188888889,0,0,0,,0,177,177,49,1,,,,,
,,,,,,,15400e5201bad12de12eab93,66a626ef09d4e21e1a8894ec,67373fc98fdcff78025e0fa1,2024-11-15_12h34.45.027,Tarea de género gramatical,2024.2.2,Win32,59.88023952,,,,,,,,,,,,,,,,,,,,,,,435.2446,436.2704,a,1,0.3496,,[],[],[],[],[],[],[],0.3496,1,436.2706,436.771,,,,,,146,FEM,CON,150,lana,,a,436.7711,436.7713,0.515740797,-0.188888889,0,0,0,,0,178,178,145,1,,,,,
,,,,,,,15400e5201bad12de12eab93,66a626ef09d4e21e1a8894ec,67373fc98fdcff78025e0fa1,2024-11-15_12h34.45.027,Tarea de género gramatical,2024.2.2,Win32,59.88023952,,,,,,,,,,,,,,,,,,,,,,,436.7735,437.8028,l,1,0.3533,,[],[],[],[],[],[],[],0.3533,1,437.8029,438.303,,,,,,407,MAS,CON,150,jurado,,l,438.3031,438.3032,0.515740797,-0.188888889,0,0,0,,0,179,179,406,1,,,,,
,,,,,,,15400e5201bad12de12eab93,66a626ef09d4e21e1a8894ec,67373fc98fdcff78025e0fa1,2024-11-15_12h34.45.027,Tarea de género gramatical,2024.2.2,Win32,59.88023952,,,,,,,,,,,,,,,,,,,,,,,438.3042,439.319,l,1,0.3392,,[],[],[],[],[],[],[],0.3392,1,439.319,439.8191,,,,,,190,MAS,AGR,150,campo,el,l,439.8191,439.8192,0.515740797,-0.188888889,0,0,0,,0,180,180,189,1,,,,,
,,,,,,,15400e5201bad12de12eab93,66a626ef09d4e21e1a8894ec,67373fc98fdcff78025e0fa1,2024-11-15_12h34.45.027,Tarea de género gramatical,2024.2.2,Win32,59.88023952,,,,,,,,,,,,,,,,,,,,,,,439.8201,440.8695,a,1,0.3756,,[],[],[],[],[],[],[],0.3756,1,440.8696,441.3695,,,,,,56,FEM,CON,150,bola,,a,441.3696,441.3698,0.515740797,-0.188888889,0,0,0,,0,181,181,55,1,,,,,
,,,,,,,15400e5201bad12de12eab93,66a626ef09d4e21e1a8894ec,67373fc98fdcff78025e0fa1,2024-11-15_12h34.45.027,Tarea de género gramatical,2024.2.2,Win32,59.88023952,,,,,,,,,,,,,,,,,,,,,,,441.3728,442.3844,a,1,0.3408,,[],[],[],[],[],[],[],0.3408,1,442.3845,442.8855,,,,,,387,FEM,DIS,150,página,el,a,442.888,442.8917,0.515740797,-0.188888889,0,0,0,,0,182,182,386,1,,,,,
,,,,,,,15400e5201bad12de12eab93,66a626ef09d4e21e1a8894ec,67373fc98fdcff78025e0fa1,2024-11-15_12h34.45.027,Tarea de género gramatical,2024.2.2,Win32,59.88023952,,,,,,,,,,,,,,,,,,,,,,,442.8929,444.0015,l,1,0.4341,,[],[],[],[],[],[],[],0.4341,1,444.0017,444.5011,,,,,,196,MAS,AGR,150,barco,el,l,444.5012,444.5013,0.515740797,-0.188888889,0,0,0,,0,183,183,195,1,,,,,
,,,,,,,15400e5201bad12de12eab93,66a626ef09d4e21e1a8894ec,67373fc98fdcff78025e0fa1,2024-11-15_12h34.45.027,Tarea de género gramatical,2024.2.2,Win32,59.88023952,,,,,,,,,,,,,,,,,,,,,,,444.5025,445.5007,l,1,0.3201,,[],[],[],[],[],[],[],0.3201,1,445.5008,446.0011,,,,,,23,MAS,CON,150,rato,,l,446.0012,446.0015,0.515740797,-0.188888889,0,0,0,,0,184,184,22,1,,,,,
,,,,,,,15400e5201bad12de12eab93,66a626ef09d4e21e1a8894ec,67373fc98fdcff78025e0fa1,2024-11-15_12h34.45.027,Tarea de género gramatical,2024.2.2,Win32,59.88023952,,,,,,,,,,,,,,,,,,,,,,,446.0036,446.9675,l,1,0.2838,,[],[],[],[],[],[],[],0.2838,1,446.9676,447.4671,,,,,,96,MAS,DIS,150,pato,la,l,447.4671,447.4673,0.515740797,-0.188888889,0,0,0,,0,185,185,95,1,,,,,
,,,,,,,15400e5201bad12de12eab93,66a626ef09d4e21e1a8894ec,67373fc98fdcff78025e0fa1,2024-11-15_12h34.45.027,Tarea de género gramatical,2024.2.2,Win32,59.88023952,,,,,,,,,,,,,,,,,,,,,,,447.4687,448.4326,l,1,0.2837,,[],[],[],[],[],[],[],0.2837,1,448.4327,448.9325,,,,,,204,MAS,DIS,150,papel,la,l,448.9335,448.9351,0.515740797,-0.188888889,0,0,0,,0,186,186,203,1,,,,,
,,,,,,,15400e5201bad12de12eab93,66a626ef09d4e21e1a8894ec,67373fc98fdcff78025e0fa1,2024-11-15_12h34.45.027,Tarea de género gramatical,2024.2.2,Win32,59.88023952,,,,,,,,,,,,,,,,,,,,,,,448.937,449.9154,a,1,0.3048,,[],[],[],[],[],[],[],0.3048,1,449.9155,450.4152,,,,,,284,FEM,CON,150,fruta,,a,450.4153,450.4154,0.515740797,-0.188888889,0,0,0,,0,187,187,283,1,,,,,
,,,,,,,15400e5201bad12de12eab93,66a626ef09d4e21e1a8894ec,67373fc98fdcff78025e0fa1,2024-11-15_12h34.45.027,Tarea de género gramatical,2024.2.2,Win32,59.88023952,,,,,,,,,,,,,,,,,,,,,,,450.4164,451.3816,a,1,0.2837,,[],[],[],[],[],[],[],0.2837,1,451.3816,451.8815,,,,,,375,FEM,DIS,150,cadena,el,a,451.8815,451.8816,0.515740797,-0.188888889,0,0,0,,0,188,188,374,1,,,,,
,,,,,,,15400e5201bad12de12eab93,66a626ef09d4e21e1a8894ec,67373fc98fdcff78025e0fa1,2024-11-15_12h34.45.027,Tarea de género gramatical,2024.2.2,Win32,59.88023952,,,,,,,,,,,,,,,,,,,,,,,451.8823,452.898,a,1,0.3337,,[],[],[],[],[],[],[],0.3337,1,452.8982,453.3985,,,,,,62,FEM,CON,150,sopa,,a,453.3985,453.3987,0.515740797,-0.188888889,0,0,0,,0,189,189,61,1,,,,,
,,,,,,,15400e5201bad12de12eab93,66a626ef09d4e21e1a8894ec,67373fc98fdcff78025e0fa1,2024-11-15_12h34.45.027,Tarea de género gramatical,2024.2.2,Win32,59.88023952,,,,,,,,,,,,,,,,,,,,,,,453.4,454.398,a,1,0.3165,,[],[],[],[],[],[],[],0.3165,1,454.3981,454.8975,,,,,,140,FEM,CON,150,mula,,a,454.8975,454.8977,0.515740797,-0.188888889,0,0,0,,0,190,190,139,1,,,,,
,,,,,,,15400e5201bad12de12eab93,66a626ef09d4e21e1a8894ec,67373fc98fdcff78025e0fa1,2024-11-15_12h34.45.027,Tarea de género gramatical,2024.2.2,Win32,59.88023952,,,,,,,,,,,,,,,,,,,,,,,454.8993,456.0637,a,1,0.4882,,[],[],[],[],[],[],[],0.4882,1,456.0638,456.5634,,,,,,285,FEM,DIS,150,mafia,el,a,456.5654,456.5682,0.515740797,-0.188888889,0,0,0,,0,191,191,284,1,,,,,
,,,,,,,15400e5201bad12de12eab93,66a626ef09d4e21e1a8894ec,67373fc98fdcff78025e0fa1,2024-11-15_12h34.45.027,Tarea de género gramatical,2024.2.2,Win32,59.88023952,,,,,,,,,,,,,,,,,,,,,,,456.5692,457.6637,a,1,0.4231,,[],[],[],[],[],[],[],0.4231,1,457.6638,458.1627,,,,,,319,FEM,AGR,150,sangre,la,a,458.1628,458.1629,0.515740797,-0.188888889,0,0,0,,0,192,192,318,1,,,,,
,,,,,,,15400e5201bad12de12eab93,66a626ef09d4e21e1a8894ec,67373fc98fdcff78025e0fa1,2024-11-15_12h34.45.027,Tarea de género gramatical,2024.2.2,Win32,59.88023952,,,,,,,,,,,,,,,,,,,,,,,458.1643,459.2789,l,1,0.4499,,[],[],[],[],[],[],[],0.4499,1,459.279,459.7789,,,,,,335,MAS,CON,150,montón,,l,459.7789,459.779,0.515740797,-0.188888889,0,0,0,,0,193,193,334,1,,,,,
,,,,,,,15400e5201bad12de12eab93,66a626ef09d4e21e1a8894ec,67373fc98fdcff78025e0fa1,2024-11-15_12h34.45.027,Tarea de género gramatical,2024.2.2,Win32,59.88023952,,,,,,,,,,,,,,,,,,,,,,,459.7798,460.8788,l,1,0.4186,,[],[],[],[],[],[],[],0.4186,1,460.879,461.3782,,,,,,244,MAS,AGR,150,hielo,el,l,461.3783,461.3783,0.515740797,-0.188888889,0,0,0,,0,194,194,243,1,,,,,
,,,,,,,15400e5201bad12de12eab93,66a626ef09d4e21e1a8894ec,67373fc98fdcff78025e0fa1,2024-11-15_12h34.45.027,Tarea de género gramatical,2024.2.2,Win32,59.88023952,,,,,,,,,,,,,,,,,,,,,,,461.3791,462.4115,a,1,0.3727,,[],[],[],[],[],[],[],0.3727,1,462.4116,462.9119,,,,,,415,FEM,AGR,150,cabina,la,a,462.9148,462.918,0.515740797,-0.188888889,0,0,0,,0,195,195,414,1,,,,,
,,,,,,,15400e5201bad12de12eab93,66a626ef09d4e21e1a8894ec,67373fc98fdcff78025e0fa1,2024-11-15_12h34.45.027,Tarea de género gramatical,2024.2.2,Win32,59.88023952,,,,,,,,,,,,,,,,,,,,,,,462.9194,463.9612,a,1,0.3705,,[],[],[],[],[],[],[],0.3705,1,463.9613,464.4618,,,,,,327,FEM,DIS,150,tienda,el,a,464.4619,464.4621,0.515740797,-0.188888889,0,0,0,,0,196,196,326,1,,,,,
,,,,,,,15400e5201bad12de12eab93,66a626ef09d4e21e1a8894ec,67373fc98fdcff78025e0fa1,2024-11-15_12h34.45.027,Tarea de género gramatical,2024.2.2,Win32,59.88023952,,,,,,,,,,,,,,,,,,,,,,,464.465,465.561,l,1,0.4128,,[],[],[],[],[],[],[],0.4128,1,465.5611,466.0611,,,,,,430,MAS,AGR,150,título,el,l,466.0611,466.0613,0.515740797,-0.188888889,0,0,0,,0,197,197,429,1,,,,,
,,,,,,,15400e5201bad12de12eab93,66a626ef09d4e21e1a8894ec,67373fc98fdcff78025e0fa1,2024-11-15_12h34.45.027,Tarea de género gramatical,2024.2.2,Win32,59.88023952,,,,,,,,,,,,,,,,,,,,,,,466.0636,467.1936,a,1,0.4514,,[],[],[],[],[],[],[],0.4514,1,467.1938,467.6933,,,,,,289,FEM,AGR,150,tabla,la,a,467.6934,467.6936,0.515740797,-0.188888889,0,0,0,,0,198,198,288,1,,,,,
,,,,,,,15400e5201bad12de12eab93,66a626ef09d4e21e1a8894ec,67373fc98fdcff78025e0fa1,2024-11-15_12h34.45.027,Tarea de género gramatical,2024.2.2,Win32,59.88023952,,,,,,,,,,,,,,,,,,,,,,,467.6951,468.7928,l,1,0.4164,,[],[],[],[],[],[],[],0.4164,1,468.793,469.2936,,,,,,186,MAS,DIS,150,error,la,l,469.2937,469.294,0.515740797,-0.188888889,0,0,0,,0,199,199,185,1,,,,,
,,,,,,,15400e5201bad12de12eab93,66a626ef09d4e21e1a8894ec,67373fc98fdcff78025e0fa1,2024-11-15_12h34.45.027,Tarea de género gramatical,2024.2.2,Win32,59.88023952,,,,,,,,,,,,,,,,,,,,,,,469.2962,470.2751,l,1,0.3065,,[],[],[],[],[],[],[],0.3065,1,470.2752,470.7751,,,,,,370,MAS,AGR,150,seguro,el,l,470.7761,470.7778,0.515740797,-0.188888889,0,0,0,,0,200,200,369,1,,,,,
,,,,,,,15400e5201bad12de12eab93,66a626ef09d4e21e1a8894ec,67373fc98fdcff78025e0fa1,2024-11-15_12h34.45.027,Tarea de género gramatical,2024.2.2,Win32,59.88023952,,,,,,,,,,,,,,,,,,,,,,,470.7795,471.8581,l,1,0.4019,,[],[],[],[],[],[],[],0.4019,1,471.8583,472.3578,,,,,,178,MAS,AGR,150,punto,el,l,472.3579,472.3579,0.515740797,-0.188888889,0,0,0,,0,201,201,177,1,,,,,
,,,,,,,15400e5201bad12de12eab93,66a626ef09d4e21e1a8894ec,67373fc98fdcff78025e0fa1,2024-11-15_12h34.45.027,Tarea de género gramatical,2024.2.2,Win32,59.88023952,,,,,,,,,,,,,,,,,,,,,,,472.3588,473.3578,l,1,0.3192,,[],[],[],[],[],[],[],0.3192,1,473.358,473.8581,,,,,,413,MAS,CON,150,diario,,l,473.8581,473.8583,0.515740797,-0.188888889,0,0,0,,0,202,202,412,1,,,,,
,,,,,,,15400e5201bad12de12eab93,66a626ef09d4e21e1a8894ec,67373fc98fdcff78025e0fa1,2024-11-15_12h34.45.027,Tarea de género gramatical,2024.2.2,Win32,59.88023952,,,,,,,,,,,,,,,,,,,,,,,473.8599,474.8412,l,1,0.2978,,[],[],[],[],[],[],[],0.2978,1,474.8413,475.3409,,,,,,144,MAS,DIS,150,amor,la,l,475.341,475.3414,0.515740797,-0.188888889,0,0,0,,0,203,203,143,1,,,,,
,,,,,,,15400e5201bad12de12eab93,66a626ef09d4e21e1a8894ec,67373fc98fdcff78025e0fa1,2024-11-15_12h34.45.027,Tarea de género gramatical,2024.2.2,Win32,59.88023952,,,,,,,,,,,,,,,,,,,,,,,475.3442,476.3736,l,1,0.3505,,[],[],[],[],[],[],[],0.3505,1,476.3737,476.8735,,,,,,24,MAS,DIS,150,voto,la,l,476.8756,476.8781,0.515740797,-0.188888889,0,0,0,,0,204,204,23,1,,,,,
,,,,,,,15400e5201bad12de12eab93,66a626ef09d4e21e1a8894ec,67373fc98fdcff78025e0fa1,2024-11-15_12h34.45.027,Tarea de género gramatical,2024.2.2,Win32,59.88023952,,,,,,,,,,,,,,,,,,,,,,,476.8795,477.8741,l,1,0.3205,,[],[],[],[],[],[],[],0.3205,1,477.8743,478.3733,,,,,,16,MAS,AGR,150,baño,el,l,478.3734,478.3736,0.515740797,-0.188888889,0,0,0,,0,205,205,15,1,,,,,
,,,,,,,15400e5201bad12de12eab93,66a626ef09d4e21e1a8894ec,67373fc98fdcff78025e0fa1,2024-11-15_12h34.45.027,Tarea de género gramatical,2024.2.2,Win32,59.88023952,,,,,,,,,,,,,,,,,,,,,,,478.3757,479.3722,a,1,0.3279,,[],[],[],[],[],[],[],0.3279,1,479.3724,479.8719,,,,,,85,FEM,AGR,150,gira,la,a,479.872,479.872,0.515740797,-0.188888889,0,0,0,,0,206,206,84,1,,,,,
,,,,,,,15400e5201bad12de12eab93,66a626ef09d4e21e1a8894ec,67373fc98fdcff78025e0fa1,2024-11-15_12h34.45.027,Tarea de género gramatical,2024.2.2,Win32,59.88023952,,,,,,,,,,,,,,,,,,,,,,,479.8729,480.8384,a,1,0.3004,,[],[],[],[],[],[],[],0.3004,1,480.8385,481.3382,,,,,,392,FEM,CON,150,maleta,,a,481.3382,481.3383,0.515740797,-0.188888889,0,0,0,,0,207,207,391,1,,,,,
,,,,,,,15400e5201bad12de12eab93,66a626ef09d4e21e1a8894ec,67373fc98fdcff78025e0fa1,2024-11-15_12h34.45.027,Tarea de género gramatical,2024.2.2,Win32,59.88023952,,,,,,,,,,,,,,,,,,,,,,,481.3392,482.371,l,1,0.3576,,[],[],[],[],[],[],[],0.3576,1,482.3711,482.8712,,,,,,47,MAS,CON,150,olor,,l,482.8712,482.8714,0.515740797,-0.188888889,0,0,0,,0,208,208,46,1,,,,,
,,,,,,,15400e5201bad12de12eab93,66a626ef09d4e21e1a8894ec,67373fc98fdcff78025e0fa1,2024-11-15_12h34.45.027,Tarea de género gramatical,2024.2.2,Win32,59.88023952,,,,,,,,,,,,,,,,,,,,,,,482.8722,483.8539,l,1,0.2976,,[],[],[],[],[],[],[],0.2976,1,483.854,484.3544,,,,,,119,MAS,CON,150,mito,,l,484.3566,484.3592,0.515740797,-0.188888889,0,0,0,,0,209,209,118,1,,,,,
,,,,,,,15400e5201bad12de12eab93,66a626ef09d4e21e1a8894ec,67373fc98fdcff78025e0fa1,2024-11-15_12h34.45.027,Tarea de género gramatical,2024.2.2,Win32,59.88023952,,,,,,,,,,,,,,,,,,,,,,,484.3608,485.2537,l,1,0.2225,,[],[],[],[],[],[],[],0.2225,1,485.2539,485.7544,,,,,,41,MAS,CON,150,bote,,l,485.7545,485.7547,0.515740797,-0.188888889,0,0,0,,0,210,210,40,1,,,,,
,,,,,,,15400e5201bad12de12eab93,66a626ef09d4e21e1a8894ec,67373fc98fdcff78025e0fa1,2024-11-15_12h34.45.027,Tarea de género gramatical,2024.2.2,Win32,59.88023952,,,,,,,,,,,,,,,,,,,,,,,485.7571,486.8195,a,1,0.3926,,[],[],[],[],[],[],[],0.3926,1,486.8196,487.3194,,,,,,295,FEM,AGR,150,grasa,la,a,487.3195,487.3195,0.515740797,-0.188888889,0,0,0,,0,211,211,294,1,,,,,
,,,,,,,15400e5201bad12de12eab93,66a626ef09d4e21e1a8894ec,67373fc98fdcff78025e0fa1,2024-11-15_12h34.45.027,Tarea de género gramatical,2024.2.2,Win32,59.88023952,,,,,,,,,,,,,,,,,,,,,,,487.3204,488.4358,l,1,0.439,,[],[],[],[],[],[],[],0.439,1,488.4359,488.9365,,,,,,328,MAS,AGR,150,asunto,el,l,488.9365,488.9367,0.515740797,-0.188888889,0,0,0,,0,212,212,327,1,,,,,
,,,,,,,15400e5201bad12de12eab93,66a626ef09d4e21e1a8894ec,67373fc98fdcff78025e0fa1,2024-11-15_12h34.45.027,Tarea de género gramatical,2024.2.2,Win32,59.88023952,,,,,,,,,,,,,,,,,,,,,,,488.9383,489.9694,l,1,0.3528,,[],[],[],[],[],[],[],0.3528,1,489.9695,490.4697,,,,,,246,MAS,DIS,150,humor,la,l,490.4724,490.475,0.515740797,-0.188888889,0,0,0,,0,213,213,245,1,,,,,
,,,,,,,15400e5201bad12de12eab93,66a626ef09d4e21e1a8894ec,67373fc98fdcff78025e0fa1,2024-11-15_12h34.45.027,Tarea de género gramatical,2024.2.2,Win32,59.88023952,,,,,,,,,,,,,,,,,,,,,,,490.4769,491.5693,l,1,0.4183,,[],[],[],[],[],[],[],0.4183,1,491.5694,492.0678,,,,,,83,MAS,CON,150,nene,,l,492.0679,492.068,0.515740797,-0.188888889,0,0,0,,0,214,214,82,1,,,,,
,,,,,,,15400e5201bad12de12eab93,66a626ef09d4e21e1a8894ec,67373fc98fdcff78025e0fa1,2024-11-15_12h34.45.027,Tarea de género gramatical,2024.2.2,Win32,59.88023952,,,,,,,,,,,,,,,,,,,,,,,492.0687,493.2008,l,1,0.451,,[],[],[],[],[],[],[],0.451,1,493.2009,493.7013,,,,,,71,MAS,CON,150,pozo,,l,493.7014,493.7016,0.515740797,-0.188888889,0,0,0,,0,215,215,70,1,,,,,
,,,,,,,15400e5201bad12de12eab93,66a626ef09d4e21e1a8894ec,67373fc98fdcff78025e0fa1,2024-11-15_12h34.45.027,Tarea de género gramatical,2024.2.2,Win32,59.88023952,,,,,,,,,,,,,,,,,,,,,,,493.7044,494.6503,l,1,0.2747,,[],[],[],[],[],[],[],0.2747,1,494.6504,495.1503,,,,,,191,MAS,CON,150,dolor,,l,495.1504,495.1506,0.515740797,-0.188888889,0,0,0,,0,216,216,190,1,,,,,
,,,,,,,15400e5201bad12de12eab93,66a626ef09d4e21e1a8894ec,67373fc98fdcff78025e0fa1,2024-11-15_12h34.45.027,Tarea de género gramatical,2024.2.2,Win32,59.88023952,,,,,,,,,,,,,,,,,,,,,,,495.152,496.5999,l,1,0.7678,,[],[],[],[],[],[],[],0.7678,1,496.5999,497.1003,,,,,,330,MAS,DIS,150,estado,la,l,497.1004,497.1006,0.515740797,-0.188888889,0,0,0,,0,217,217,329,1,,,,,
,,,,,,,15400e5201bad12de12eab93,66a626ef09d4e21e1a8894ec,67373fc98fdcff78025e0fa1,2024-11-15_12h34.45.027,Tarea de género gramatical,2024.2.2,Win32,59.88023952,,,,,,,,,,,,,,,,,,,,,,,497.1024,498.3327,a,1,0.5547,,[],[],[],[],[],[],[],0.5547,1,498.3329,498.8326,,,,,,213,FEM,DIS,150,magia,el,a,498.8368,498.8384,0.515740797,-0.188888889,0,0,0,,0,218,218,212,1,,,,,
,,,,,,,15400e5201bad12de12eab93,66a626ef09d4e21e1a8894ec,67373fc98fdcff78025e0fa1,2024-11-15_12h34.45.027,Tarea de género gramatical,2024.2.2,Win32,59.88023952,,,,,,,,,,,,,,,,,,,,,,,498.8395,500.5317,a,1,1.0188,,[],[],[],[],[],[],[],1.0188,1,500.5319,501.032,,,,,,399,FEM,DIS,150,charla,el,a,501.032,501.0322,0.515740797,-0.188888889,0,0,0,,0,219,219,398,1,,,,,
,,,,,,,15400e5201bad12de12eab93,66a626ef09d4e21e1a8894ec,67373fc98fdcff78025e0fa1,2024-11-15_12h34.45.027,Tarea de género gramatical,2024.2.2,Win32,59.88023952,,,,,,,,,,,,,,,,,,,,,,,501.0344,501.9814,a,1,0.269,,[],[],[],[],[],[],[],0.269,1,501.9816,502.4822,,,,,,139,FEM,AGR,150,pipa,la,a,502.4823,502.483,0.515740797,-0.188888889,0,0,0,,0,220,220,138,1,,,,,
,,,,,,,15400e5201bad12de12eab93,66a626ef09d4e21e1a8894ec,67373fc98fdcff78025e0fa1,2024-11-15_12h34.45.027,Tarea de género gramatical,2024.2.2,Win32,59.88023952,,,,,,,,,,,,,,,,,,,,,,,502.4863,503.4809,a,1,0.3241,,[],[],[],[],[],[],[],0.3241,1,503.4811,503.9806,,,,,,86,FEM,CON,150,cruz,,a,503.9806,503.9807,0.515740797,-0.188888889,0,0,0,,0,221,221,85,1,,,,,
,,,,,,,15400e5201bad12de12eab93,66a626ef09d4e21e1a8894ec,67373fc98fdcff78025e0fa1,2024-11-15_12h34.45.027,Tarea de género gramatical,2024.2.2,Win32,59.88023952,,,,,,,,,,,,,,,,,,,,,,,503.9821,505.2802,a,1,0.6177,,[],[],[],[],[],[],[],0.6177,1,505.2804,505.78,,,,,,19,FEM,AGR,150,niña,la,a,505.7824,505.7846,0.515740797,-0.188888889,0,0,0,,0,222,222,18,1,,,,,
,,,,,,,15400e5201bad12de12eab93,66a626ef09d4e21e1a8894ec,67373fc98fdcff78025e0fa1,2024-11-15_12h34.45.027,Tarea de género gramatical,2024.2.2,Win32,59.88023952,,,,,,,,,,,,,,,,,,,,,,,505.7864,506.7635,a,1,0.3003,,[],[],[],[],[],[],[],0.3003,1,506.7636,507.2634,,,,,,243,FEM,DIS,150,salsa,el,a,507.2634,507.2637,0.515740797,-0.188888889,0,0,0,,0,223,223,242,1,,,,,
,,,,,,,15400e5201bad12de12eab93,66a626ef09d4e21e1a8894ec,67373fc98fdcff78025e0fa1,2024-11-15_12h34.45.027,Tarea de género gramatical,2024.2.2,Win32,59.88023952,,,,,,,,,,,,,,,,,,,,,,,507.265,508.3296,a,1,0.3845,,[],[],[],[],[],[],[],0.3845,1,508.3296,508.829,,,,,,434,FEM,CON,150,corona,,a,508.829,508.829,0.515740797,-0.188888889,0,0,0,,0,224,224,433,1,,,,,
,,,,,,,15400e5201bad12de12eab93,66a626ef09d4e21e1a8894ec,67373fc98fdcff78025e0fa1,2024-11-15_12h34.45.027,Tarea de género gramatical,2024.2.2,Win32,59.88023952,,,,,,,,,,,,,,,,,,,,,,,508.8301,509.8622,l,1,0.3551,,[],[],[],[],[],[],[],0.3551,1,509.8623,510.3632,,,,,,437,MAS,CON,150,hombro,,l,510.3634,510.3638,0.515740797,-0.188888889,0,0,0,,0,225,225,436,1,,,,,
,,,,,,,15400e5201bad12de12eab93,66a626ef09d4e21e1a8894ec,67373fc98fdcff78025e0fa1,2024-11-15_12h34.45.027,Tarea de género gramatical,2024.2.2,Win32,59.88023952,,,,,,,,,,,,,,,,,,,,,,,510.366,511.4121,l,1,0.366,,[],[],[],[],[],[],[],0.366,1,511.4122,511.9114,,,,,,317,MAS,CON,150,número,,l,511.9115,511.9115,0.515740797,-0.188888889,0,0,0,,0,226,226,316,1,,,,,
,,,,,,,15400e5201bad12de12eab93,66a626ef09d4e21e1a8894ec,67373fc98fdcff78025e0fa1,2024-11-15_12h34.45.027,Tarea de género gramatical,2024.2.2,Win32,59.88023952,,,,,,,,,,,,,,,,,,,,,,,511.9125,512.7609,l,0,0.1654,,[],[],[],[],[],[],[],0.1654,0,512.7618,513.2607,,,,,,38,FEM,CON,150,obra,,a,513.2618,513.2635,0.515740797,-0.188888889,0,0,0,,0,227,227,37,1,,,,,
,,,,,,,15400e5201bad12de12eab93,66a626ef09d4e21e1a8894ec,67373fc98fdcff78025e0fa1,2024-11-15_12h34.45.027,Tarea de género gramatical,2024.2.2,Win32,59.88023952,,,,,,,,,,,,,,,,,,,,,,,513.2655,514.3441,a,1,0.407,,[],[],[],[],[],[],[],0.407,1,514.3453,514.8436,,,,,,309,FEM,DIS,150,esposa,el,a,514.8436,514.8438,0.515740797,-0.188888889,0,0,0,,0,228,228,308,1,,,,,
,,,,,,,15400e5201bad12de12eab93,66a626ef09d4e21e1a8894ec,67373fc98fdcff78025e0fa1,2024-11-15_12h34.45.027,Tarea de género gramatical,2024.2.2,Win32,59.88023952,,,,,,,,,,,,,,,,,,,,,,,514.8449,515.7767,a,1,0.2579,,[],[],[],[],[],[],[],0.2579,1,515.7768,516.2777,,,,,,15,FEM,DIS,150,cama,el,a,516.2778,516.278,0.515740797,-0.188888889,0,0,0,,0,229,229,14,1,,,,,
,,,,,,,15400e5201bad12de12eab93,66a626ef09d4e21e1a8894ec,67373fc98fdcff78025e0fa1,2024-11-15_12h34.45.027,Tarea de género gramatical,2024.2.2,Win32,59.88023952,,,,,,,,,,,,,,,,,,,,,,,516.2807,517.3427,a,1,0.384,,[],[],[],[],[],[],[],0.384,1,517.3428,517.8431,,,,,,115,FEM,AGR,150,seda,la,a,517.8432,517.8433,0.515740797,-0.188888889,0,0,0,,0,230,230,114,1,,,,,
,,,,,,,15400e5201bad12de12eab93,66a626ef09d4e21e1a8894ec,67373fc98fdcff78025e0fa1,2024-11-15_12h34.45.027,Tarea de género gramatical,2024.2.2,Win32,59.88023952,,,,,,,,,,,,,,,,,,,,,,,517.8447,518.8755,a,1,0.3507,,[],[],[],[],[],[],[],0.3507,1,518.8756,519.3753,,,,,,68,FEM,CON,150,pata,,a,519.3765,519.3778,0.515740797,-0.188888889,0,0,0,,0,231,231,67,1,,,,,
,,,,,,,15400e5201bad12de12eab93,66a626ef09d4e21e1a8894ec,67373fc98fdcff78025e0fa1,2024-11-15_12h34.45.027,Tarea de género gramatical,2024.2.2,Win32,59.88023952,,,,,,,,,,,,,,,,,,,,,,,519.38,520.4416,l,1,0.3807,,[],[],[],[],[],[],[],0.3807,1,520.4417,520.9423,,,,,,106,MAS,AGR,150,test,el,l,520.9425,520.9426,0.515740797,-0.188888889,0,0,0,,0,232,232,105,1,,,,,
,,,,,,,15400e5201bad12de12eab93,66a626ef09d4e21e1a8894ec,67373fc98fdcff78025e0fa1,2024-11-15_12h34.45.027,Tarea de género gramatical,2024.2.2,Win32,59.88023952,,,,,,,,,,,,,,,,,,,,,,,520.9442,521.9089,l,1,0.2876,,[],[],[],[],[],[],[],0.2876,1,521.9091,522.4079,,,,,,305,MAS,CON,150,hombre,,l,522.4079,522.408,0.515740797,-0.188888889,0,0,0,,0,233,233,304,1,,,,,
,,,,,,,15400e5201bad12de12eab93,66a626ef09d4e21e1a8894ec,67373fc98fdcff78025e0fa1,2024-11-15_12h34.45.027,Tarea de género gramatical,2024.2.2,Win32,59.88023952,,,,,,,,,,,,,,,,,,,,,,,522.4092,523.3912,l,1,0.2977,,[],[],[],[],[],[],[],0.2977,1,523.3913,523.8911,,,,,,220,MAS,AGR,150,huevo,el,l,523.8911,523.8914,0.515740797,-0.188888889,0,0,0,,0,234,234,219,1,,,,,
,,,,,,,15400e5201bad12de12eab93,66a626ef09d4e21e1a8894ec,67373fc98fdcff78025e0fa1,2024-11-15_12h34.45.027,Tarea de género gramatical,2024.2.2,Win32,59.88023952,,,,,,,,,,,,,,,,,,,,,,,523.8931,524.8908,l,1,0.3174,,[],[],[],[],[],[],[],0.3174,1,524.8909,525.391,,,,,,132,MAS,DIS,150,velo,la,l,525.3911,525.3915,0.515740797,-0.188888889,0,0,0,,0,235,235,131,1,,,,,
,,,,,,,15400e5201bad12de12eab93,66a626ef09d4e21e1a8894ec,67373fc98fdcff78025e0fa1,2024-11-15_12h34.45.027,Tarea de género gramatical,2024.2.2,Win32,59.88023952,,,,,,,,,,,,,,,,,,,,,,,525.394,526.4062,l,1,0.335,,[],[],[],[],[],[],[],0.335,1,526.4062,526.9061,,,,,,114,MAS,DIS,150,menú,la,l,526.9072,526.9088,0.515740797,-0.188888889,0,0,0,,0,236,236,113,1,,,,,
,,,,,,,15400e5201bad12de12eab93,66a626ef09d4e21e1a8894ec,67373fc98fdcff78025e0fa1,2024-11-15_12h34.45.027,Tarea de género gramatical,2024.2.2,Win32,59.88023952,,,,,,,,,,,,,,,,,,,,,,,526.9107,527.889,l,1,0.305,,[],[],[],[],[],[],[],0.305,1,527.889,528.3889,,,,,,4,MAS,AGR,150,hijo,el,l,528.389,528.3891,0.515740797,-0.188888889,0,0,0,,0,237,237,3,1,,,,,
,,,,,,,15400e5201bad12de12eab93,66a626ef09d4e21e1a8894ec,67373fc98fdcff78025e0fa1,2024-11-15_12h34.45.027,Tarea de género gramatical,2024.2.2,Win32,59.88023952,,,,,,,,,,,,,,,,,,,,,,,528.3902,529.3388,l,0,0.2679,,[],[],[],[],[],[],[],0.2679,0,529.34,529.8389,,,,,,261,FEM,DIS,150,cueva,el,a,529.8391,529.8393,0.515740797,-0.188888889,0,0,0,,0,238,238,260,1,,,,,
,,,,,,,15400e5201bad12de12eab93,66a626ef09d4e21e1a8894ec,67373fc98fdcff78025e0fa1,2024-11-15_12h34.45.027,Tarea de género gramatical,2024.2.2,Win32,59.88023952,,,,,,,,,,,,,,,,,,,,,,,529.8411,531.539,a,1,1.021,,[],[],[],[],[],[],[],1.021,1,531.5402,532.038,,,,,,283,FEM,AGR,150,pluma,la,a,532.0381,532.0382,0.515740797,-0.188888889,0,0,0,,0,239,239,282,1,,,,,
,,,,,,,15400e5201bad12de12eab93,66a626ef09d4e21e1a8894ec,67373fc98fdcff78025e0fa1,2024-11-15_12h34.45.027,Tarea de género gramatical,2024.2.2,Win32,59.88023952,,,,,,,,,,,,,,,,,,,,,,,532.0394,533.1714,l,1,0.4527,,[],[],[],[],[],[],[],0.4527,1,533.1715,533.671,,,,,,215,MAS,CON,150,hueso,,l,533.6729,533.6748,0.515740797,-0.188888889,0,0,0,,0,240,240,214,1,,,,,
,,,,,,,15400e5201bad12de12eab93,66a626ef09d4e21e1a8894ec,67373fc98fdcff78025e0fa1,2024-11-15_12h34.45.027,Tarea de género gramatical,2024.2.2,Win32,59.88023952,,,,,,,,,,,,,,,,,,,,,,,533.6774,535.0039,l,1,0.6501,,[],[],[],[],[],[],[],0.6501,1,535.004,535.5036,,,,,,58,MAS,AGR,150,mono,el,l,535.5037,535.5038,0.515740797,-0.188888889,0,0,0,,0,241,241,57,1,,,,,
,,,,,,,15400e5201bad12de12eab93,66a626ef09d4e21e1a8894ec,67373fc98fdcff78025e0fa1,2024-11-15_12h34.45.027,Tarea de género gramatical,2024.2.2,Win32,59.88023952,,,,,,,,,,,,,,,,,,,,,,,535.505,536.6532,a,1,0.4759,,[],[],[],[],[],[],[],0.4759,1,536.6533,537.1526,,,,,,187,FEM,AGR,150,lista,la,a,537.1527,537.1528,0.515740797,-0.188888889,0,0,0,,0,242,242,186,1,,,,,
,,,,,,,15400e5201bad12de12eab93,66a626ef09d4e21e1a8894ec,67373fc98fdcff78025e0fa1,2024-11-15_12h34.45.027,Tarea de género gramatical,2024.2.2,Win32,59.88023952,,,,,,,,,,,,,,,,,,,,,,,537.1538,538.2188,a,1,0.3834,,[],[],[],[],[],[],[],0.3834,1,538.2189,538.7193,,,,,,373,FEM,AGR,150,lluvia,la,a,538.7194,538.7197,0.515740797,-0.188888889,0,0,0,,0,243,243,372,1,,,,,
,,,,,,,15400e5201bad12de12eab93,66a626ef09d4e21e1a8894ec,67373fc98fdcff78025e0fa1,2024-11-15_12h34.45.027,Tarea de género gramatical,2024.2.2,Win32,59.88023952,,,,,,,,,,,,,,,,,,,,,,,538.7213,539.8183,l,1,0.4172,,[],[],[],[],[],[],[],0.4172,1,539.8184,540.3196,,,,,,294,MAS,DIS,150,cable,la,l,540.3196,540.32,0.515740797,-0.188888889,0,0,0,,0,244,244,293,1,,,,,
,,,,,,,15400e5201bad12de12eab93,66a626ef09d4e21e1a8894ec,67373fc98fdcff78025e0fa1,2024-11-15_12h34.45.027,Tarea de género gramatical,2024.2.2,Win32,59.88023952,,,,,,,,,,,,,,,,,,,,,,,540.3222,541.3348,l,1,0.3352,,[],[],[],[],[],[],[],0.3352,1,541.335,541.8353,,,,,,53,MAS,CON,150,vaso,,l,541.8381,541.8407,0.515740797,-0.188888889,0,0,0,,0,245,245,52,1,,,,,
,,,,,,,15400e5201bad12de12eab93,66a626ef09d4e21e1a8894ec,67373fc98fdcff78025e0fa1,2024-11-15_12h34.45.027,Tarea de género gramatical,2024.2.2,Win32,59.88023952,,,,,,,,,,,,,,,,,,,,,,,541.8429,542.901,a,1,0.3838,,[],[],[],[],[],[],[],0.3838,1,542.9011,543.4009,,,,,,320,FEM,CON,150,fiesta,,a,543.4009,543.4013,0.515740797,-0.188888889,0,0,0,,0,246,246,319,1,,,,,
,,,,,,,15400e5201bad12de12eab93,66a626ef09d4e21e1a8894ec,67373fc98fdcff78025e0fa1,2024-11-15_12h34.45.027,Tarea de género gramatical,2024.2.2,Win32,59.88023952,,,,,,,,,,,,,,,,,,,,,,,543.4025,544.517,l,1,0.4345,,[],[],[],[],[],[],[],0.4345,1,544.5171,545.017,,,,,,208,MAS,AGR,150,suelo,el,l,545.017,545.0172,0.515740797,-0.188888889,0,0,0,,0,247,247,207,1,,,,,
,,,,,,,15400e5201bad12de12eab93,66a626ef09d4e21e1a8894ec,67373fc98fdcff78025e0fa1,2024-11-15_12h34.45.027,Tarea de género gramatical,2024.2.2,Win32,59.88023952,,,,,,,,,,,,,,,,,,,,,,,545.0184,546.0501,l,0,0.3573,,[],[],[],[],[],[],[],0.3573,0,546.0511,546.5499,,,,,,241,FEM,AGR,150,pasta,la,a,546.5499,546.5502,0.515740797,-0.188888889,0,0,0,,0,248,248,240,1,,,,,
,,,,,,,15400e5201bad12de12eab93,66a626ef09d4e21e1a8894ec,67373fc98fdcff78025e0fa1,2024-11-15_12h34.45.027,Tarea de género gramatical,2024.2.2,Win32,59.88023952,,,,,,,,,,,,,,,,,,,,,,,546.5514,548.2323,l,1,0.9985,,[],[],[],[],[],[],[],0.9985,1,548.2332,548.7321,,,,,,209,MAS,CON,150,banco,,l,548.7331,548.7346,0.515740797,-0.188888889,0,0,0,,0,249,249,208,1,,,,,
,,,,,,,15400e5201bad12de12eab93,66a626ef09d4e21e1a8894ec,67373fc98fdcff78025e0fa1,2024-11-15_12h34.45.027,Tarea de género gramatical,2024.2.2,Win32,59.88023952,,,,,,,,,,,,,,,,,,,,,,,548.7371,549.7651,a,1,0.3545,,[],[],[],[],[],[],[],0.3545,1,549.7652,550.2648,,,,,,188,FEM,CON,150,bomba,,a,550.2648,550.2648,0.515740797,-0.188888889,0,0,0,,0,250,250,187,1,,,,,
