counterbalancing_condition,consent_prescreening.block_1/declare_consent,consent_prescreening.block_1/age_years,consent_prescreening.block_1/gender,consent_prescreening.block_1/language_disorder,consent_prescreening.block_1/first_language,PROLIFIC_PID,STUDY_ID,SESSION_ID,date,expName,psychopyVersion,OS,frameRate,check_prescreening_answers.started,check_prescreening_answers.stopped,Instructions.started,Instructions.stopped,instr_done_keyboard.keys,instr_done_keyboard.rt,instr_done_keyboard.duration,instr_done_touch.x,instr_done_touch.y,instr_done_touch.leftButton,instr_done_touch.midButton,instr_done_touch.rightButton,instruction_pages.thisRepN,instruction_pages.thisTrialN,instruction_pages.thisN,instruction_pages.thisIndex,instruction_pages.ran,pageN,phase,instruct_text,has_image,instruct_image,presentTrial.started,presentTrial.stopped,response.keys,response.corr,response.rt,response.duration,touch_resp.x,touch_resp.y,touch_resp.leftButton,touch_resp.midButton,touch_resp.rightButton,touch_resp.time,touch_resp.clicked_name,rt,corr,feedback.started,feedback.stopped,practice_trials.thisRepN,practice_trials.thisTrialN,practice_trials.thisN,practice_trials.thisIndex,practice_trials.ran,TrialID,StimulusType,Condition,PrimeDuration,Prime,Flanker,corrAns,Break.started,Break.stopped,break_done_touch.x,break_done_touch.y,break_done_touch.leftButton,break_done_touch.midButton,break_done_touch.rightButton,break_done_keyboard.keys,experiment_trials.thisRepN,experiment_trials.thisTrialN,experiment_trials.thisN,experiment_trials.thisIndex,experiment_trials.ran,break_done_keyboard.rt,break_done_keyboard.duration,End.started,End.stopped
1,"[""over_18"",""comfortable"",""consent_given"",""read_info""]",30,F,"[""none""]","[""spanish""]",162e1fe998e2c0360cc96b2b,66a626ef09d4e21e1a8894ec,6734d68dd830863667c73a7b,2024-11-13_11h16.07.859,Tarea de género gramatical,2024.2.2,Win32,119.047619,,,,,,,,,,,,,,,,,,,,,,,,,,,,,,,,,,,,,,,,,,,,,,,,,,,,,,,,,,,,,,,,,,,,
,,,,,,162e1fe998e2c0360cc96b2b,66a626ef09d4e21e1a8894ec,6734d68dd830863667c73a7b,2024-11-13_11h16.07.859,Tarea de género gramatical,2024.2.2,Win32,119.047619,35.5827,35.5828,,,,,,,,,,,,,,,,,,,,,,,,,,,,,,,,,,,,,,,,,,,,,,,,,,,,,,,,,,,,,,,,,,
,,,,,,162e1fe998e2c0360cc96b2b,66a626ef09d4e21e1a8894ec,6734d68dd830863667c73a7b,2024-11-13_11h16.07.859,Tarea de género gramatical,2024.2.2,Win32,119.047619,,,35.5951,55.0037,space,19.3811,,-0.162962949,-0.076851845,0,0,0,0,0,0,0,1,1,instructions,"INSTRUCCIONES
Va a realizar una prueba de selección gramatical. Desde el comienzo de la prueba mire siempre al centro de la pantalla. Al cabo de un momento, aparecerán palabras. La tarea consiste en determinar si la palabra del centro (siempre será un sustantivo), pertenece al género masculino o femenino.

Pulse la tecla ESPACIO o toque el botón de abajo para continuar.",0,keyboardresponseFM.png,,,,,,,,,,,,,,,,,,,,,,,,,,,,,,,,,,,,,,,,,,,,,,
,,,,,,162e1fe998e2c0360cc96b2b,66a626ef09d4e21e1a8894ec,6734d68dd830863667c73a7b,2024-11-13_11h16.07.859,Tarea de género gramatical,2024.2.2,Win32,119.047619,,,55.0052,99.3639,space,44.3185,,-0.162962949,-0.076851845,0,0,0,0,1,1,1,1,2,instructions,"Si su dispositivo tiene teclado, pulse la tecla ""A"" para las palabras en femenino (por ejemplo: ""mano"") y la tecla ""L"" para las palabras en masculino(por ejemplo: ""arroz"").
Pulse la tecla ESPACIO o toque el botón de abajo para continuar.",1,keyboardresponseFM.png,,,,,,,,,,,,,,,,,,,,,,,,,,,,,,,,,,,,,,,,,,,,,,
,,,,,,162e1fe998e2c0360cc96b2b,66a626ef09d4e21e1a8894ec,6734d68dd830863667c73a7b,2024-11-13_11h16.07.859,Tarea de género gramatical,2024.2.2,Win32,119.047619,,,99.3653,105.7227,space,6.3296,,-0.162962949,-0.076851845,0,0,0,0,2,2,2,1,3,instructions,"Si utiliza un dispositivo sólo táctil, colóquelo en horizontal y utilice los botones de la pantalla. No utilice el ratón.
Pulse la tecla ESPACIO o toque el botón de abajo para continuar.",2,touchresponseFM.png,,,,,,,,,,,,,,,,,,,,,,,,,,,,,,,,,,,,,,,,,,,,,,
,,,,,,162e1fe998e2c0360cc96b2b,66a626ef09d4e21e1a8894ec,6734d68dd830863667c73a7b,2024-11-13_11h16.07.859,Tarea de género gramatical,2024.2.2,Win32,119.047619,,,105.7241,171.7635,space,66.0302,,-0.162962949,-0.076851845,0,0,0,0,3,3,3,1,4,instructions,"Es muy importante que responda con la mayor rapidez y precisión posibles, ya que cada cadena de letras sólo estará en pantalla durante un instante. Si no responde en ese tiempo, aparecerá el mensaje ""Muy lento"" y el experimento pasará a la siguiente palabra. Los primeros 15 intentos serán de práctica y habrá dos descansos durante la prueba.
Pulse la tecla ESPACIO o toque el botón de abajo para iniciar la parte de práctica.",0,keyboardresponseFM.png,,,,,,,,,,,,,,,,,,,,,,,,,,,,,,,,,,,,,,,,,,,,,,
,,,,,,162e1fe998e2c0360cc96b2b,66a626ef09d4e21e1a8894ec,6734d68dd830863667c73a7b,2024-11-13_11h16.07.859,Tarea de género gramatical,2024.2.2,Win32,119.047619,,,,,,,,,,,,,,,,,,,,,,,171.7731,173.303,a,1,0.8659,,[],[],[],[],[],[],[],0.8659,1,173.3032,173.8051,0,0,0,3,1,2004,FEM,AGR,150,venta,la,a,,,,,,,,,,,,,,,,,
,,,,,,162e1fe998e2c0360cc96b2b,66a626ef09d4e21e1a8894ec,6734d68dd830863667c73a7b,2024-11-13_11h16.07.859,Tarea de género gramatical,2024.2.2,Win32,119.047619,,,,,,,,,,,,,,,,,,,,,,,173.8071,174.8084,a,1,0.3362,,[],[],[],[],[],[],[],0.3362,1,174.8085,175.3045,0,1,1,1,1,2002,FEM,CON,150,pala,,a,,,,,,,,,,,,,,,,,
,,,,,,162e1fe998e2c0360cc96b2b,66a626ef09d4e21e1a8894ec,6734d68dd830863667c73a7b,2024-11-13_11h16.07.859,Tarea de género gramatical,2024.2.2,Win32,119.047619,,,,,,,,,,,,,,,,,,,,,,,175.3061,176.389,a,1,0.4202,,[],[],[],[],[],[],[],0.4202,1,176.389,176.8852,0,2,2,0,1,2001,FEM,AGR,150,nuca,la,a,,,,,,,,,,,,,,,,,
,,,,,,162e1fe998e2c0360cc96b2b,66a626ef09d4e21e1a8894ec,6734d68dd830863667c73a7b,2024-11-13_11h16.07.859,Tarea de género gramatical,2024.2.2,Win32,119.047619,,,,,,,,,,,,,,,,,,,,,,,176.8868,177.9193,l,0,0.3698,,[],[],[],[],[],[],[],0.3698,0,177.92,178.416,0,3,3,5,1,2006,FEM,DIS,150,serie,el,a,,,,,,,,,,,,,,,,,
,,,,,,162e1fe998e2c0360cc96b2b,66a626ef09d4e21e1a8894ec,6734d68dd830863667c73a7b,2024-11-13_11h16.07.859,Tarea de género gramatical,2024.2.2,Win32,119.047619,,,,,,,,,,,,,,,,,,,,,,,178.4177,179.5082,a,1,0.4279,,[],[],[],[],[],[],[],0.4279,1,179.5088,180.0071,0,4,4,6,1,2007,FEM,AGR,150,navaja,la,a,,,,,,,,,,,,,,,,,
,,,,,,162e1fe998e2c0360cc96b2b,66a626ef09d4e21e1a8894ec,6734d68dd830863667c73a7b,2024-11-13_11h16.07.859,Tarea de género gramatical,2024.2.2,Win32,119.047619,,,,,,,,,,,,,,,,,,,,,,,180.0079,181.7408,l,1,1.0695,,[],[],[],[],[],[],[],1.0695,1,181.7411,182.2458,0,5,5,10,1,2011,MAS,CON,150,canal,,l,,,,,,,,,,,,,,,,,
,,,,,,162e1fe998e2c0360cc96b2b,66a626ef09d4e21e1a8894ec,6734d68dd830863667c73a7b,2024-11-13_11h16.07.859,Tarea de género gramatical,2024.2.2,Win32,119.047619,,,,,,,,,,,,,,,,,,,,,,,182.2468,183.7429,l,1,0.833,,[],[],[],[],[],[],[],0.833,1,183.743,184.2395,0,6,6,14,1,2015,MAS,DIS,150,robot,la,l,,,,,,,,,,,,,,,,,
,,,,,,162e1fe998e2c0360cc96b2b,66a626ef09d4e21e1a8894ec,6734d68dd830863667c73a7b,2024-11-13_11h16.07.859,Tarea de género gramatical,2024.2.2,Win32,119.047619,,,,,,,,,,,,,,,,,,,,,,,184.2401,186.0041,l,1,1.1056,,[],[],[],[],[],[],[],1.1056,1,186.0041,186.5039,0,7,7,12,1,2013,MAS,AGR,150,acero,el,l,,,,,,,,,,,,,,,,,
,,,,,,162e1fe998e2c0360cc96b2b,66a626ef09d4e21e1a8894ec,6734d68dd830863667c73a7b,2024-11-13_11h16.07.859,Tarea de género gramatical,2024.2.2,Win32,119.047619,,,,,,,,,,,,,,,,,,,,,,,186.5046,187.8326,l,1,0.6631,,[],[],[],[],[],[],[],0.6631,1,187.8328,188.3294,0,8,8,8,1,2009,MAS,DIS,150,puerto,la,l,,,,,,,,,,,,,,,,,
,,,,,,162e1fe998e2c0360cc96b2b,66a626ef09d4e21e1a8894ec,6734d68dd830863667c73a7b,2024-11-13_11h16.07.859,Tarea de género gramatical,2024.2.2,Win32,119.047619,,,,,,,,,,,,,,,,,,,,,,,188.3309,189.3575,l,1,0.3666,,[],[],[],[],[],[],[],0.3666,1,189.3576,189.8561,0,9,9,9,1,2010,MAS,AGR,150,vecino,el,l,,,,,,,,,,,,,,,,,
,,,,,,162e1fe998e2c0360cc96b2b,66a626ef09d4e21e1a8894ec,6734d68dd830863667c73a7b,2024-11-13_11h16.07.859,Tarea de género gramatical,2024.2.2,Win32,119.047619,,,,,,,,,,,,,,,,,,,,,,,189.8568,190.9298,a,1,0.4122,,[],[],[],[],[],[],[],0.4122,1,190.9299,191.4319,0,10,10,4,1,2005,FEM,CON,150,placa,,a,,,,,,,,,,,,,,,,,
,,,,,,162e1fe998e2c0360cc96b2b,66a626ef09d4e21e1a8894ec,6734d68dd830863667c73a7b,2024-11-13_11h16.07.859,Tarea de género gramatical,2024.2.2,Win32,119.047619,,,,,,,,,,,,,,,,,,,,,,,191.4332,192.5048,l,1,0.4089,,[],[],[],[],[],[],[],0.4089,1,192.5048,193.0038,0,11,11,13,1,2014,MAS,CON,150,siglo,,l,,,,,,,,,,,,,,,,,
,,,,,,162e1fe998e2c0360cc96b2b,66a626ef09d4e21e1a8894ec,6734d68dd830863667c73a7b,2024-11-13_11h16.07.859,Tarea de género gramatical,2024.2.2,Win32,119.047619,,,,,,,,,,,,,,,,,,,,,,,193.0054,194.5093,l,1,0.8407,,[],[],[],[],[],[],[],0.8407,1,194.5094,195.0086,0,12,12,11,1,2012,MAS,DIS,150,clima,la,l,,,,,,,,,,,,,,,,,
,,,,,,162e1fe998e2c0360cc96b2b,66a626ef09d4e21e1a8894ec,6734d68dd830863667c73a7b,2024-11-13_11h16.07.859,Tarea de género gramatical,2024.2.2,Win32,119.047619,,,,,,,,,,,,,,,,,,,,,,,195.0093,196.1067,a,1,0.433,,[],[],[],[],[],[],[],0.433,1,196.1068,196.606,0,13,13,7,1,2008,FEM,CON,150,siesta,,a,,,,,,,,,,,,,,,,,
,,,,,,162e1fe998e2c0360cc96b2b,66a626ef09d4e21e1a8894ec,6734d68dd830863667c73a7b,2024-11-13_11h16.07.859,Tarea de género gramatical,2024.2.2,Win32,119.047619,,,,,,,,,,,,,,,,,,,,,,,196.6074,197.7869,a,1,0.5166,,[],[],[],[],[],[],[],0.5166,1,197.787,198.286,0,14,14,2,1,2003,FEM,DIS,150,daga,el,a,,,,,,,,,,,,,,,,,
,,,,,,162e1fe998e2c0360cc96b2b,66a626ef09d4e21e1a8894ec,6734d68dd830863667c73a7b,2024-11-13_11h16.07.859,Tarea de género gramatical,2024.2.2,Win32,119.047619,,,220.283,233.2362,space,12.9414,,-0.162962949,-0.076851845,0,0,0,,,,,,,,,,,233.2601,234.5525,l,1,0.6284,,[],[],[],[],[],[],[],0.6284,1,234.5526,235.0547,,,,,,874,MAS,CON,150,rastro,,l,235.0553,235.0578,-0.162962949,-0.076851845,0,0,0,,0,0,0,423,1,,,,
,,,,,,162e1fe998e2c0360cc96b2b,66a626ef09d4e21e1a8894ec,6734d68dd830863667c73a7b,2024-11-13_11h16.07.859,Tarea de género gramatical,2024.2.2,Win32,119.047619,,,,,,,,,,,,,,,,,,,,,,,235.0583,236.0471,l,1,0.3253,,[],[],[],[],[],[],[],0.3253,1,236.0472,236.5433,,,,,,892,MAS,CON,150,cuadro,,l,236.5434,236.5437,-0.162962949,-0.076851845,0,0,0,,0,1,1,441,1,,,,
,,,,,,162e1fe998e2c0360cc96b2b,66a626ef09d4e21e1a8894ec,6734d68dd830863667c73a7b,2024-11-13_11h16.07.859,Tarea de género gramatical,2024.2.2,Win32,119.047619,,,,,,,,,,,,,,,,,,,,,,,236.5449,237.7627,l,1,0.5567,,[],[],[],[],[],[],[],0.5567,1,237.7629,238.2585,,,,,,623,MAS,DIS,150,libro,la,l,238.26,238.2605,-0.162962949,-0.076851845,0,0,0,,0,2,2,172,1,,,,
,,,,,,162e1fe998e2c0360cc96b2b,66a626ef09d4e21e1a8894ec,6734d68dd830863667c73a7b,2024-11-13_11h16.07.859,Tarea de género gramatical,2024.2.2,Win32,119.047619,,,,,,,,,,,,,,,,,,,,,,,238.2611,239.2949,l,1,0.3761,,[],[],[],[],[],[],[],0.3761,1,239.295,239.7934,,,,,,899,MAS,DIS,150,payaso,la,l,239.7934,239.7935,-0.162962949,-0.076851845,0,0,0,,0,3,3,448,1,,,,
,,,,,,162e1fe998e2c0360cc96b2b,66a626ef09d4e21e1a8894ec,6734d68dd830863667c73a7b,2024-11-13_11h16.07.859,Tarea de género gramatical,2024.2.2,Win32,119.047619,,,,,,,,,,,,,,,,,,,,,,,239.7943,240.8001,a,1,0.3423,,[],[],[],[],[],[],[],0.3423,1,240.8003,241.2991,,,,,,505,FEM,CON,150,taza,,a,241.2992,241.2992,-0.162962949,-0.076851845,0,0,0,,0,4,4,54,1,,,,
,,,,,,162e1fe998e2c0360cc96b2b,66a626ef09d4e21e1a8894ec,6734d68dd830863667c73a7b,2024-11-13_11h16.07.859,Tarea de género gramatical,2024.2.2,Win32,119.047619,,,,,,,,,,,,,,,,,,,,,,,241.2999,242.2565,l,1,0.2919,,[],[],[],[],[],[],[],0.2919,1,242.2566,242.7546,,,,,,826,MAS,CON,150,efecto,,l,242.7546,242.7548,-0.162962949,-0.076851845,0,0,0,,0,5,5,375,1,,,,
,,,,,,162e1fe998e2c0360cc96b2b,66a626ef09d4e21e1a8894ec,6734d68dd830863667c73a7b,2024-11-13_11h16.07.859,Tarea de género gramatical,2024.2.2,Win32,119.047619,,,,,,,,,,,,,,,,,,,,,,,242.7553,243.7369,a,1,0.3176,,[],[],[],[],[],[],[],0.3176,1,243.737,244.2349,,,,,,553,FEM,CON,150,fama,,a,244.2357,244.2362,-0.162962949,-0.076851845,0,0,0,,0,6,6,102,1,,,,
,,,,,,162e1fe998e2c0360cc96b2b,66a626ef09d4e21e1a8894ec,6734d68dd830863667c73a7b,2024-11-13_11h16.07.859,Tarea de género gramatical,2024.2.2,Win32,119.047619,,,,,,,,,,,,,,,,,,,,,,,244.2367,245.4087,a,1,0.5086,,[],[],[],[],[],[],[],0.5086,1,245.4088,245.9074,,,,,,897,FEM,AGR,150,lógica,la,a,245.9075,245.9076,-0.162962949,-0.076851845,0,0,0,,0,7,7,446,1,,,,
,,,,,,162e1fe998e2c0360cc96b2b,66a626ef09d4e21e1a8894ec,6734d68dd830863667c73a7b,2024-11-13_11h16.07.859,Tarea de género gramatical,2024.2.2,Win32,119.047619,,,,,,,,,,,,,,,,,,,,,,,245.9082,246.956,l,1,0.3836,,[],[],[],[],[],[],[],0.3836,1,246.9561,247.4546,,,,,,838,MAS,CON,150,empleo,,l,247.4547,247.4547,-0.162962949,-0.076851845,0,0,0,,0,8,8,387,1,,,,
,,,,,,162e1fe998e2c0360cc96b2b,66a626ef09d4e21e1a8894ec,6734d68dd830863667c73a7b,2024-11-13_11h16.07.859,Tarea de género gramatical,2024.2.2,Win32,119.047619,,,,,,,,,,,,,,,,,,,,,,,247.4552,248.8026,l,0,0.6828,,[],[],[],[],[],[],[],0.6828,0,248.803,249.3017,,,,,,655,FEM,CON,150,reina,,a,249.3018,249.302,-0.162962949,-0.076851845,0,0,0,,0,9,9,204,1,,,,
,,,,,,162e1fe998e2c0360cc96b2b,66a626ef09d4e21e1a8894ec,6734d68dd830863667c73a7b,2024-11-13_11h16.07.859,Tarea de género gramatical,2024.2.2,Win32,119.047619,,,,,,,,,,,,,,,,,,,,,,,249.3026,250.4996,l,1,0.5332,,[],[],[],[],[],[],[],0.5332,1,250.5,250.9985,,,,,,496,MAS,CON,150,odio,,l,250.9985,250.9986,-0.162962949,-0.076851845,0,0,0,,0,10,10,45,1,,,,
,,,,,,162e1fe998e2c0360cc96b2b,66a626ef09d4e21e1a8894ec,6734d68dd830863667c73a7b,2024-11-13_11h16.07.859,Tarea de género gramatical,2024.2.2,Win32,119.047619,,,,,,,,,,,,,,,,,,,,,,,250.9993,252.5123,a,1,0.8488,,[],[],[],[],[],[],[],0.8488,1,252.5124,253.0117,,,,,,872,FEM,DIS,150,rutina,el,a,253.0125,253.0129,-0.162962949,-0.076851845,0,0,0,,0,11,11,421,1,,,,
,,,,,,162e1fe998e2c0360cc96b2b,66a626ef09d4e21e1a8894ec,6734d68dd830863667c73a7b,2024-11-13_11h16.07.859,Tarea de género gramatical,2024.2.2,Win32,119.047619,,,,,,,,,,,,,,,,,,,,,,,253.0134,254.0838,a,1,0.4021,,[],[],[],[],[],[],[],0.4021,1,254.0838,254.5787,,,,,,783,FEM,AGR,150,locura,la,a,254.5789,254.5791,-0.162962949,-0.076851845,0,0,0,,0,12,12,332,1,,,,
,,,,,,162e1fe998e2c0360cc96b2b,66a626ef09d4e21e1a8894ec,6734d68dd830863667c73a7b,2024-11-13_11h16.07.859,Tarea de género gramatical,2024.2.2,Win32,119.047619,,,,,,,,,,,,,,,,,,,,,,,254.5803,255.7566,a,1,0.5166,,[],[],[],[],[],[],[],0.5166,1,255.7566,256.2587,,,,,,788,FEM,DIS,150,abuela,el,a,256.2589,256.2591,-0.162962949,-0.076851845,0,0,0,,0,13,13,337,1,,,,
,,,,,,162e1fe998e2c0360cc96b2b,66a626ef09d4e21e1a8894ec,6734d68dd830863667c73a7b,2024-11-13_11h16.07.859,Tarea de género gramatical,2024.2.2,Win32,119.047619,,,,,,,,,,,,,,,,,,,,,,,256.2606,257.2351,l,1,0.3078,,[],[],[],[],[],[],[],0.3078,1,257.2354,257.7308,,,,,,510,MAS,AGR,150,tono,el,l,257.731,257.7311,-0.162962949,-0.076851845,0,0,0,,0,14,14,59,1,,,,
,,,,,,162e1fe998e2c0360cc96b2b,66a626ef09d4e21e1a8894ec,6734d68dd830863667c73a7b,2024-11-13_11h16.07.859,Tarea de género gramatical,2024.2.2,Win32,119.047619,,,,,,,,,,,,,,,,,,,,,,,257.7325,258.8173,a,1,0.4277,,[],[],[],[],[],[],[],0.4277,1,258.8174,259.3125,,,,,,489,FEM,AGR,150,luna,la,a,259.3143,259.3147,-0.162962949,-0.076851845,0,0,0,,0,15,15,38,1,,,,
,,,,,,162e1fe998e2c0360cc96b2b,66a626ef09d4e21e1a8894ec,6734d68dd830863667c73a7b,2024-11-13_11h16.07.859,Tarea de género gramatical,2024.2.2,Win32,119.047619,,,,,,,,,,,,,,,,,,,,,,,259.3154,260.5394,l,1,0.5652,,[],[],[],[],[],[],[],0.5652,1,260.5394,261.0336,,,,,,568,MAS,CON,150,baúl,,l,261.0337,261.0337,-0.162962949,-0.076851845,0,0,0,,0,16,16,117,1,,,,
,,,,,,162e1fe998e2c0360cc96b2b,66a626ef09d4e21e1a8894ec,6734d68dd830863667c73a7b,2024-11-13_11h16.07.859,Tarea de género gramatical,2024.2.2,Win32,119.047619,,,,,,,,,,,,,,,,,,,,,,,261.0352,262.1375,a,1,0.4421,,[],[],[],[],[],[],[],0.4421,1,262.1375,262.6431,,,,,,518,FEM,DIS,150,pata,el,a,262.6433,262.6433,-0.162962949,-0.076851845,0,0,0,,0,17,17,67,1,,,,
,,,,,,162e1fe998e2c0360cc96b2b,66a626ef09d4e21e1a8894ec,6734d68dd830863667c73a7b,2024-11-13_11h16.07.859,Tarea de género gramatical,2024.2.2,Win32,119.047619,,,,,,,,,,,,,,,,,,,,,,,262.6439,263.6372,a,1,0.3273,,[],[],[],[],[],[],[],0.3273,1,263.6374,264.1329,,,,,,519,FEM,AGR,150,rata,la,a,264.1329,264.133,-0.162962949,-0.076851845,0,0,0,,0,18,18,68,1,,,,
,,,,,,162e1fe998e2c0360cc96b2b,66a626ef09d4e21e1a8894ec,6734d68dd830863667c73a7b,2024-11-13_11h16.07.859,Tarea de género gramatical,2024.2.2,Win32,119.047619,,,,,,,,,,,,,,,,,,,,,,,264.1336,265.2589,l,0,0.4612,,[],[],[],[],[],[],[],0.4612,0,265.2601,265.7549,,,,,,776,FEM,DIS,150,música,el,a,265.755,265.755,-0.162962949,-0.076851845,0,0,0,,0,19,19,325,1,,,,
,,,,,,162e1fe998e2c0360cc96b2b,66a626ef09d4e21e1a8894ec,6734d68dd830863667c73a7b,2024-11-13_11h16.07.859,Tarea de género gramatical,2024.2.2,Win32,119.047619,,,,,,,,,,,,,,,,,,,,,,,265.7558,267.2143,a,1,0.7992,,[],[],[],[],[],[],[],0.7992,1,267.2154,267.7179,,,,,,571,FEM,CON,150,pila,,a,267.7187,267.7192,-0.162962949,-0.076851845,0,0,0,,0,20,20,120,1,,,,
,,,,,,162e1fe998e2c0360cc96b2b,66a626ef09d4e21e1a8894ec,6734d68dd830863667c73a7b,2024-11-13_11h16.07.859,Tarea de género gramatical,2024.2.2,Win32,119.047619,,,,,,,,,,,,,,,,,,,,,,,267.7195,268.8722,a,1,0.4921,,[],[],[],[],[],[],[],0.4921,1,268.8724,269.3716,,,,,,721,FEM,CON,150,viuda,,a,269.3716,269.3716,-0.162962949,-0.076851845,0,0,0,,0,21,21,270,1,,,,
,,,,,,162e1fe998e2c0360cc96b2b,66a626ef09d4e21e1a8894ec,6734d68dd830863667c73a7b,2024-11-13_11h16.07.859,Tarea de género gramatical,2024.2.2,Win32,119.047619,,,,,,,,,,,,,,,,,,,,,,,269.3724,270.5747,a,1,0.5411,,[],[],[],[],[],[],[],0.5411,1,270.575,271.0748,,,,,,578,FEM,DIS,150,leña,el,a,271.075,271.0751,-0.162962949,-0.076851845,0,0,0,,0,22,22,127,1,,,,
,,,,,,162e1fe998e2c0360cc96b2b,66a626ef09d4e21e1a8894ec,6734d68dd830863667c73a7b,2024-11-13_11h16.07.859,Tarea de género gramatical,2024.2.2,Win32,119.047619,,,,,,,,,,,,,,,,,,,,,,,271.0763,272.1272,a,1,0.3841,,[],[],[],[],[],[],[],0.3841,1,272.1274,272.6224,,,,,,823,FEM,CON,150,lluvia,,a,272.6226,272.6227,-0.162962949,-0.076851845,0,0,0,,0,23,23,372,1,,,,
,,,,,,162e1fe998e2c0360cc96b2b,66a626ef09d4e21e1a8894ec,6734d68dd830863667c73a7b,2024-11-13_11h16.07.859,Tarea de género gramatical,2024.2.2,Win32,119.047619,,,,,,,,,,,,,,,,,,,,,,,272.6239,273.6249,a,1,0.3336,,[],[],[],[],[],[],[],0.3336,1,273.625,274.1268,,,,,,549,FEM,AGR,150,fase,la,a,274.1285,274.1289,-0.162962949,-0.076851845,0,0,0,,0,24,24,98,1,,,,
,,,,,,162e1fe998e2c0360cc96b2b,66a626ef09d4e21e1a8894ec,6734d68dd830863667c73a7b,2024-11-13_11h16.07.859,Tarea de género gramatical,2024.2.2,Win32,119.047619,,,,,,,,,,,,,,,,,,,,,,,274.1293,275.1971,l,1,0.4025,,[],[],[],[],[],[],[],0.4025,1,275.1972,275.6958,,,,,,586,MAS,CON,150,vago,,l,275.6958,275.6958,-0.162962949,-0.076851845,0,0,0,,0,25,25,135,1,,,,
,,,,,,162e1fe998e2c0360cc96b2b,66a626ef09d4e21e1a8894ec,6734d68dd830863667c73a7b,2024-11-13_11h16.07.859,Tarea de género gramatical,2024.2.2,Win32,119.047619,,,,,,,,,,,,,,,,,,,,,,,275.6965,276.9384,l,1,0.5761,,[],[],[],[],[],[],[],0.5761,1,276.9386,277.4377,,,,,,803,MAS,DIS,150,verano,la,l,277.4378,277.438,-0.162962949,-0.076851845,0,0,0,,0,26,26,352,1,,,,
,,,,,,162e1fe998e2c0360cc96b2b,66a626ef09d4e21e1a8894ec,6734d68dd830863667c73a7b,2024-11-13_11h16.07.859,Tarea de género gramatical,2024.2.2,Win32,119.047619,,,,,,,,,,,,,,,,,,,,,,,277.4394,278.5744,l,1,0.4749,,[],[],[],[],[],[],[],0.4749,1,278.5745,279.0705,,,,,,834,MAS,AGR,150,pedazo,el,l,279.0707,279.0708,-0.162962949,-0.076851845,0,0,0,,0,27,27,383,1,,,,
,,,,,,162e1fe998e2c0360cc96b2b,66a626ef09d4e21e1a8894ec,6734d68dd830863667c73a7b,2024-11-13_11h16.07.859,Tarea de género gramatical,2024.2.2,Win32,119.047619,,,,,,,,,,,,,,,,,,,,,,,279.0722,280.1466,l,1,0.4121,,[],[],[],[],[],[],[],0.4121,1,280.1466,280.6486,,,,,,610,MAS,CON,150,señor,,l,280.6487,280.649,-0.162962949,-0.076851845,0,0,0,,0,28,28,159,1,,,,
,,,,,,162e1fe998e2c0360cc96b2b,66a626ef09d4e21e1a8894ec,6734d68dd830863667c73a7b,2024-11-13_11h16.07.859,Tarea de género gramatical,2024.2.2,Win32,119.047619,,,,,,,,,,,,,,,,,,,,,,,280.6504,281.7308,l,1,0.412,,[],[],[],[],[],[],[],0.412,1,281.731,282.2339,,,,,,594,MAS,AGR,150,amor,el,l,282.2347,282.2352,-0.162962949,-0.076851845,0,0,0,,0,29,29,143,1,,,,
,,,,,,162e1fe998e2c0360cc96b2b,66a626ef09d4e21e1a8894ec,6734d68dd830863667c73a7b,2024-11-13_11h16.07.859,Tarea de género gramatical,2024.2.2,Win32,119.047619,,,,,,,,,,,,,,,,,,,,,,,282.2355,283.6607,l,1,0.7689,,[],[],[],[],[],[],[],0.7689,1,283.661,284.1559,,,,,,863,MAS,DIS,150,diario,la,l,284.1559,284.1559,-0.162962949,-0.076851845,0,0,0,,0,30,30,412,1,,,,
,,,,,,162e1fe998e2c0360cc96b2b,66a626ef09d4e21e1a8894ec,6734d68dd830863667c73a7b,2024-11-13_11h16.07.859,Tarea de género gramatical,2024.2.2,Win32,119.047619,,,,,,,,,,,,,,,,,,,,,,,284.1565,285.5538,a,1,0.7331,,[],[],[],[],[],[],[],0.7331,1,285.5538,286.0605,,,,,,896,FEM,DIS,150,bañera,el,a,286.0606,286.0607,-0.162962949,-0.076851845,0,0,0,,0,31,31,445,1,,,,
,,,,,,162e1fe998e2c0360cc96b2b,66a626ef09d4e21e1a8894ec,6734d68dd830863667c73a7b,2024-11-13_11h16.07.859,Tarea de género gramatical,2024.2.2,Win32,119.047619,,,,,,,,,,,,,,,,,,,,,,,286.0615,287.0911,l,1,0.3652,,[],[],[],[],[],[],[],0.3652,1,287.0911,287.5864,,,,,,706,MAS,CON,150,techo,,l,287.5866,287.5866,-0.162962949,-0.076851845,0,0,0,,0,32,32,255,1,,,,
,,,,,,162e1fe998e2c0360cc96b2b,66a626ef09d4e21e1a8894ec,6734d68dd830863667c73a7b,2024-11-13_11h16.07.859,Tarea de género gramatical,2024.2.2,Win32,119.047619,,,,,,,,,,,,,,,,,,,,,,,287.5879,288.9468,l,1,0.6907,,[],[],[],[],[],[],[],0.6907,1,288.9468,289.4415,,,,,,695,MAS,DIS,150,turno,la,l,289.4432,289.4436,-0.162962949,-0.076851845,0,0,0,,0,33,33,244,1,,,,
,,,,,,162e1fe998e2c0360cc96b2b,66a626ef09d4e21e1a8894ec,6734d68dd830863667c73a7b,2024-11-13_11h16.07.859,Tarea de género gramatical,2024.2.2,Win32,119.047619,,,,,,,,,,,,,,,,,,,,,,,289.444,290.7805,a,1,0.6753,,[],[],[],[],[],[],[],0.6753,1,290.7807,291.2847,,,,,,722,FEM,DIS,150,oreja,el,a,291.2848,291.2848,-0.162962949,-0.076851845,0,0,0,,0,34,34,271,1,,,,
,,,,,,162e1fe998e2c0360cc96b2b,66a626ef09d4e21e1a8894ec,6734d68dd830863667c73a7b,2024-11-13_11h16.07.859,Tarea de género gramatical,2024.2.2,Win32,119.047619,,,,,,,,,,,,,,,,,,,,,,,291.2856,292.4248,a,1,0.4828,,[],[],[],[],[],[],[],0.4828,1,292.4248,292.9269,,,,,,487,FEM,CON,150,sala,,a,292.927,292.9271,-0.162962949,-0.076851845,0,0,0,,0,35,35,36,1,,,,
,,,,,,162e1fe998e2c0360cc96b2b,66a626ef09d4e21e1a8894ec,6734d68dd830863667c73a7b,2024-11-13_11h16.07.859,Tarea de género gramatical,2024.2.2,Win32,119.047619,,,,,,,,,,,,,,,,,,,,,,,292.9286,294.0547,l,1,0.4685,,[],[],[],[],[],[],[],0.4685,1,294.0547,294.5513,,,,,,546,MAS,AGR,150,pato,el,l,294.5515,294.5516,-0.162962949,-0.076851845,0,0,0,,0,36,36,95,1,,,,
,,,,,,162e1fe998e2c0360cc96b2b,66a626ef09d4e21e1a8894ec,6734d68dd830863667c73a7b,2024-11-13_11h16.07.859,Tarea de género gramatical,2024.2.2,Win32,119.047619,,,,,,,,,,,,,,,,,,,,,,,294.5529,295.6052,l,1,0.3839,,[],[],[],[],[],[],[],0.3839,1,295.6054,296.1098,,,,,,516,MAS,AGR,150,muro,el,l,296.1098,296.1098,-0.162962949,-0.076851845,0,0,0,,0,37,37,65,1,,,,
,,,,,,162e1fe998e2c0360cc96b2b,66a626ef09d4e21e1a8894ec,6734d68dd830863667c73a7b,2024-11-13_11h16.07.859,Tarea de género gramatical,2024.2.2,Win32,119.047619,,,,,,,,,,,,,,,,,,,,,,,296.1105,297.0943,l,1,0.3177,,[],[],[],[],[],[],[],0.3177,1,297.0945,297.59,,,,,,629,MAS,DIS,150,viaje,la,l,297.5908,297.5913,-0.162962949,-0.076851845,0,0,0,,0,38,38,178,1,,,,
,,,,,,162e1fe998e2c0360cc96b2b,66a626ef09d4e21e1a8894ec,6734d68dd830863667c73a7b,2024-11-13_11h16.07.859,Tarea de género gramatical,2024.2.2,Win32,119.047619,,,,,,,,,,,,,,,,,,,,,,,297.5917,298.8175,a,1,0.565,,[],[],[],[],[],[],[],0.565,1,298.8177,299.3206,,,,,,692,FEM,DIS,150,pizza,el,a,299.3206,299.3207,-0.162962949,-0.076851845,0,0,0,,0,39,39,241,1,,,,
,,,,,,162e1fe998e2c0360cc96b2b,66a626ef09d4e21e1a8894ec,6734d68dd830863667c73a7b,2024-11-13_11h16.07.859,Tarea de género gramatical,2024.2.2,Win32,119.047619,,,,,,,,,,,,,,,,,,,,,,,299.3213,300.2806,l,1,0.2947,,[],[],[],[],[],[],[],0.2947,1,300.2807,300.7763,,,,,,682,MAS,CON,150,calor,,l,300.7763,300.7764,-0.162962949,-0.076851845,0,0,0,,0,40,40,231,1,,,,
,,,,,,162e1fe998e2c0360cc96b2b,66a626ef09d4e21e1a8894ec,6734d68dd830863667c73a7b,2024-11-13_11h16.07.859,Tarea de género gramatical,2024.2.2,Win32,119.047619,,,,,,,,,,,,,,,,,,,,,,,300.7769,301.9817,l,0,0.5438,,[],[],[],[],[],[],[],0.5438,0,301.9827,302.4777,,,,,,824,FEM,DIS,150,herida,el,a,302.4779,302.4781,-0.162962949,-0.076851845,0,0,0,,0,41,41,373,1,,,,
,,,,,,162e1fe998e2c0360cc96b2b,66a626ef09d4e21e1a8894ec,6734d68dd830863667c73a7b,2024-11-13_11h16.07.859,Tarea de género gramatical,2024.2.2,Win32,119.047619,,,,,,,,,,,,,,,,,,,,,,,302.4795,303.7711,l,1,0.6329,,[],[],[],[],[],[],[],0.6329,1,303.7716,304.2651,,,,,,574,MAS,CON,150,clan,,l,304.2665,304.267,-0.162962949,-0.076851845,0,0,0,,0,42,42,123,1,,,,
,,,,,,162e1fe998e2c0360cc96b2b,66a626ef09d4e21e1a8894ec,6734d68dd830863667c73a7b,2024-11-13_11h16.07.859,Tarea de género gramatical,2024.2.2,Win32,119.047619,,,,,,,,,,,,,,,,,,,,,,,304.2674,305.3019,l,1,0.3669,,[],[],[],[],[],[],[],0.3669,1,305.3019,305.7976,,,,,,773,MAS,DIS,150,marido,la,l,305.7977,305.7979,-0.162962949,-0.076851845,0,0,0,,0,43,43,322,1,,,,
,,,,,,162e1fe998e2c0360cc96b2b,66a626ef09d4e21e1a8894ec,6734d68dd830863667c73a7b,2024-11-13_11h16.07.859,Tarea de género gramatical,2024.2.2,Win32,119.047619,,,,,,,,,,,,,,,,,,,,,,,305.7992,306.7772,l,1,0.3169,,[],[],[],[],[],[],[],0.3169,1,306.7774,307.276,,,,,,634,MAS,CON,150,cielo,,l,307.276,307.2762,-0.162962949,-0.076851845,0,0,0,,0,44,44,183,1,,,,
,,,,,,162e1fe998e2c0360cc96b2b,66a626ef09d4e21e1a8894ec,6734d68dd830863667c73a7b,2024-11-13_11h16.07.859,Tarea de género gramatical,2024.2.2,Win32,119.047619,,,,,,,,,,,,,,,,,,,,,,,307.2779,308.4993,a,1,0.5512,,[],[],[],[],[],[],[],0.5512,1,308.4995,308.9947,,,,,,877,FEM,CON,150,agenda,,a,308.9948,308.9948,-0.162962949,-0.076851845,0,0,0,,0,45,45,426,1,,,,
,,,,,,162e1fe998e2c0360cc96b2b,66a626ef09d4e21e1a8894ec,6734d68dd830863667c73a7b,2024-11-13_11h16.07.859,Tarea de género gramatical,2024.2.2,Win32,119.047619,,,,,,,,,,,,,,,,,,,,,,,308.9953,310.1213,a,1,0.4621,,[],[],[],[],[],[],[],0.4621,1,310.1214,310.6203,,,,,,697,FEM,CON,150,frase,,a,310.6205,310.6207,-0.162962949,-0.076851845,0,0,0,,0,46,46,246,1,,,,
,,,,,,162e1fe998e2c0360cc96b2b,66a626ef09d4e21e1a8894ec,6734d68dd830863667c73a7b,2024-11-13_11h16.07.859,Tarea de género gramatical,2024.2.2,Win32,119.047619,,,,,,,,,,,,,,,,,,,,,,,310.6221,311.6152,l,1,0.3362,,[],[],[],[],[],[],[],0.3362,1,311.6154,312.1118,,,,,,658,MAS,CON,150,suelo,,l,312.113,312.1134,-0.162962949,-0.076851845,0,0,0,,0,47,47,207,1,,,,
,,,,,,162e1fe998e2c0360cc96b2b,66a626ef09d4e21e1a8894ec,6734d68dd830863667c73a7b,2024-11-13_11h16.07.859,Tarea de género gramatical,2024.2.2,Win32,119.047619,,,,,,,,,,,,,,,,,,,,,,,312.1138,313.3154,l,1,0.54,,[],[],[],[],[],[],[],0.54,1,313.3155,313.8144,,,,,,532,MAS,CON,150,tubo,,l,313.8145,313.8146,-0.162962949,-0.076851845,0,0,0,,0,48,48,81,1,,,,
,,,,,,162e1fe998e2c0360cc96b2b,66a626ef09d4e21e1a8894ec,6734d68dd830863667c73a7b,2024-11-13_11h16.07.859,Tarea de género gramatical,2024.2.2,Win32,119.047619,,,,,,,,,,,,,,,,,,,,,,,313.8155,314.8126,l,0,0.3339,,[],[],[],[],[],[],[],0.3339,0,314.813,315.3117,,,,,,686,FEM,DIS,150,deuda,el,a,315.3117,315.3118,-0.162962949,-0.076851845,0,0,0,,0,49,49,235,1,,,,
,,,,,,162e1fe998e2c0360cc96b2b,66a626ef09d4e21e1a8894ec,6734d68dd830863667c73a7b,2024-11-13_11h16.07.859,Tarea de género gramatical,2024.2.2,Win32,119.047619,,,,,,,,,,,,,,,,,,,,,,,315.3126,316.493,a,1,0.5167,,[],[],[],[],[],[],[],0.5167,1,316.4934,316.9922,,,,,,583,FEM,CON,150,joya,,a,316.9923,316.9923,-0.162962949,-0.076851845,0,0,0,,0,50,50,132,1,,,,
,,,,,,162e1fe998e2c0360cc96b2b,66a626ef09d4e21e1a8894ec,6734d68dd830863667c73a7b,2024-11-13_11h16.07.859,Tarea de género gramatical,2024.2.2,Win32,119.047619,,,,,,,,,,,,,,,,,,,,,,,316.9929,317.9993,l,1,0.3413,,[],[],[],[],[],[],[],0.3413,1,317.9994,318.498,,,,,,820,MAS,CON,150,seguro,,l,318.4992,318.5001,-0.162962949,-0.076851845,0,0,0,,0,51,51,369,1,,,,
,,,,,,162e1fe998e2c0360cc96b2b,66a626ef09d4e21e1a8894ec,6734d68dd830863667c73a7b,2024-11-13_11h16.07.859,Tarea de género gramatical,2024.2.2,Win32,119.047619,,,,,,,,,,,,,,,,,,,,,,,318.501,319.5045,l,1,0.3431,,[],[],[],[],[],[],[],0.3431,1,319.5046,320.0034,,,,,,846,MAS,AGR,150,tesoro,el,l,320.0034,320.0035,-0.162962949,-0.076851845,0,0,0,,0,52,52,395,1,,,,
,,,,,,162e1fe998e2c0360cc96b2b,66a626ef09d4e21e1a8894ec,6734d68dd830863667c73a7b,2024-11-13_11h16.07.859,Tarea de género gramatical,2024.2.2,Win32,119.047619,,,,,,,,,,,,,,,,,,,,,,,320.0042,321.0765,l,1,0.4087,,[],[],[],[],[],[],[],0.4087,1,321.0766,321.5757,,,,,,582,MAS,AGR,150,velo,el,l,321.5757,321.5758,-0.162962949,-0.076851845,0,0,0,,0,53,53,131,1,,,,
,,,,,,162e1fe998e2c0360cc96b2b,66a626ef09d4e21e1a8894ec,6734d68dd830863667c73a7b,2024-11-13_11h16.07.859,Tarea de género gramatical,2024.2.2,Win32,119.047619,,,,,,,,,,,,,,,,,,,,,,,321.5763,322.7735,a,1,0.5336,,[],[],[],[],[],[],[],0.5336,1,322.7735,323.2727,,,,,,537,FEM,AGR,150,risa,la,a,323.2727,323.2728,-0.162962949,-0.076851845,0,0,0,,0,54,54,86,1,,,,
,,,,,,162e1fe998e2c0360cc96b2b,66a626ef09d4e21e1a8894ec,6734d68dd830863667c73a7b,2024-11-13_11h16.07.859,Tarea de género gramatical,2024.2.2,Win32,119.047619,,,,,,,,,,,,,,,,,,,,,,,323.2734,324.2376,l,1,0.3003,,[],[],[],[],[],[],[],0.3003,1,324.2377,324.7367,,,,,,670,MAS,CON,150,huevo,,l,324.7367,324.7367,-0.162962949,-0.076851845,0,0,0,,0,55,55,219,1,,,,
,,,,,,162e1fe998e2c0360cc96b2b,66a626ef09d4e21e1a8894ec,6734d68dd830863667c73a7b,2024-11-13_11h16.07.859,Tarea de género gramatical,2024.2.2,Win32,119.047619,,,,,,,,,,,,,,,,,,,,,,,324.7373,325.7848,l,0,0.3835,,[],[],[],[],[],[],[],0.3835,0,325.7853,326.2838,,,,,,667,FEM,CON,150,tarea,,a,326.2844,326.2853,-0.162962949,-0.076851845,0,0,0,,0,56,56,216,1,,,,
,,,,,,162e1fe998e2c0360cc96b2b,66a626ef09d4e21e1a8894ec,6734d68dd830863667c73a7b,2024-11-13_11h16.07.859,Tarea de género gramatical,2024.2.2,Win32,119.047619,,,,,,,,,,,,,,,,,,,,,,,326.2862,327.2904,l,0,0.3419,,[],[],[],[],[],[],[],0.3419,0,327.2905,327.7896,,,,,,836,FEM,DIS,150,sombra,el,a,327.7896,327.7897,-0.162962949,-0.076851845,0,0,0,,0,57,57,385,1,,,,
,,,,,,162e1fe998e2c0360cc96b2b,66a626ef09d4e21e1a8894ec,6734d68dd830863667c73a7b,2024-11-13_11h16.07.859,Tarea de género gramatical,2024.2.2,Win32,119.047619,,,,,,,,,,,,,,,,,,,,,,,327.7903,329.212,a,1,0.7581,,[],[],[],[],[],[],[],0.7581,1,329.2126,329.7114,,,,,,638,FEM,DIS,150,bomba,el,a,329.7115,329.7115,-0.162962949,-0.076851845,0,0,0,,0,58,58,187,1,,,,
,,,,,,162e1fe998e2c0360cc96b2b,66a626ef09d4e21e1a8894ec,6734d68dd830863667c73a7b,2024-11-13_11h16.07.859,Tarea de género gramatical,2024.2.2,Win32,119.047619,,,,,,,,,,,,,,,,,,,,,,,329.7128,330.7842,a,1,0.408,,[],[],[],[],[],[],[],0.408,1,330.7843,331.2835,,,,,,573,FEM,AGR,150,tela,la,a,331.2836,331.2836,-0.162962949,-0.076851845,0,0,0,,0,59,59,122,1,,,,
,,,,,,162e1fe998e2c0360cc96b2b,66a626ef09d4e21e1a8894ec,6734d68dd830863667c73a7b,2024-11-13_11h16.07.859,Tarea de género gramatical,2024.2.2,Win32,119.047619,,,,,,,,,,,,,,,,,,,,,,,331.2841,332.3315,a,1,0.3832,,[],[],[],[],[],[],[],0.3832,1,332.3316,332.8307,,,,,,565,FEM,CON,150,seda,,a,332.8313,332.8325,-0.162962949,-0.076851845,0,0,0,,0,60,60,114,1,,,,
,,,,,,162e1fe998e2c0360cc96b2b,66a626ef09d4e21e1a8894ec,6734d68dd830863667c73a7b,2024-11-13_11h16.07.859,Tarea de género gramatical,2024.2.2,Win32,119.047619,,,,,,,,,,,,,,,,,,,,,,,332.8332,333.8621,l,1,0.3668,,[],[],[],[],[],[],[],0.3668,1,333.8622,334.3614,,,,,,844,MAS,CON,150,examen,,l,334.3614,334.3615,-0.162962949,-0.076851845,0,0,0,,0,61,61,393,1,,,,
,,,,,,162e1fe998e2c0360cc96b2b,66a626ef09d4e21e1a8894ec,6734d68dd830863667c73a7b,2024-11-13_11h16.07.859,Tarea de género gramatical,2024.2.2,Win32,119.047619,,,,,,,,,,,,,,,,,,,,,,,334.3621,335.8335,a,1,0.8074,,[],[],[],[],[],[],[],0.8074,1,335.8335,336.3329,,,,,,471,FEM,AGR,150,boca,la,a,336.3329,336.3329,-0.162962949,-0.076851845,0,0,0,,0,62,62,20,1,,,,
,,,,,,162e1fe998e2c0360cc96b2b,66a626ef09d4e21e1a8894ec,6734d68dd830863667c73a7b,2024-11-13_11h16.07.859,Tarea de género gramatical,2024.2.2,Win32,119.047619,,,,,,,,,,,,,,,,,,,,,,,336.3335,337.3392,l,1,0.3419,,[],[],[],[],[],[],[],0.3419,1,337.3393,337.8384,,,,,,802,MAS,CON,150,estilo,,l,337.8384,337.8385,-0.162962949,-0.076851845,0,0,0,,0,63,63,351,1,,,,
,,,,,,162e1fe998e2c0360cc96b2b,66a626ef09d4e21e1a8894ec,6734d68dd830863667c73a7b,2024-11-13_11h16.07.859,Tarea de género gramatical,2024.2.2,Win32,119.047619,,,,,,,,,,,,,,,,,,,,,,,337.8392,339.5274,l,1,1.0253,,[],[],[],[],[],[],[],1.0253,1,339.5274,340.0264,,,,,,598,MAS,CON,150,surf,,l,340.0264,340.0265,-0.162962949,-0.076851845,0,0,0,,0,64,64,147,1,,,,
,,,,,,162e1fe998e2c0360cc96b2b,66a626ef09d4e21e1a8894ec,6734d68dd830863667c73a7b,2024-11-13_11h16.07.859,Tarea de género gramatical,2024.2.2,Win32,119.047619,,,,,,,,,,,,,,,,,,,,,,,340.0271,341.1908,a,1,0.5007,,[],[],[],[],[],[],[],0.5007,1,341.1909,341.69,,,,,,687,FEM,AGR,150,ducha,la,a,341.6911,341.6922,-0.162962949,-0.076851845,0,0,0,,0,65,65,236,1,,,,
,,,,,,162e1fe998e2c0360cc96b2b,66a626ef09d4e21e1a8894ec,6734d68dd830863667c73a7b,2024-11-13_11h16.07.859,Tarea de género gramatical,2024.2.2,Win32,119.047619,,,,,,,,,,,,,,,,,,,,,,,341.6929,342.9628,l,1,0.608,,[],[],[],[],[],[],[],0.608,1,342.9629,343.4584,,,,,,707,MAS,DIS,150,pecho,la,l,343.4585,343.4585,-0.162962949,-0.076851845,0,0,0,,0,66,66,256,1,,,,
,,,,,,162e1fe998e2c0360cc96b2b,66a626ef09d4e21e1a8894ec,6734d68dd830863667c73a7b,2024-11-13_11h16.07.859,Tarea de género gramatical,2024.2.2,Win32,119.047619,,,,,,,,,,,,,,,,,,,,,,,343.4591,344.5156,l,1,0.392,,[],[],[],[],[],[],[],0.392,1,344.5157,345.0223,,,,,,850,MAS,CON,150,barrio,,l,345.0225,345.0227,-0.162962949,-0.076851845,0,0,0,,0,67,67,399,1,,,,
,,,,,,162e1fe998e2c0360cc96b2b,66a626ef09d4e21e1a8894ec,6734d68dd830863667c73a7b,2024-11-13_11h16.07.859,Tarea de género gramatical,2024.2.2,Win32,119.047619,,,,,,,,,,,,,,,,,,,,,,,345.0245,346.2906,l,1,0.6099,,[],[],[],[],[],[],[],0.6099,1,346.2907,346.7949,,,,,,880,MAS,CON,150,título,,l,346.7949,346.7949,-0.162962949,-0.076851845,0,0,0,,0,68,68,429,1,,,,
,,,,,,162e1fe998e2c0360cc96b2b,66a626ef09d4e21e1a8894ec,6734d68dd830863667c73a7b,2024-11-13_11h16.07.859,Tarea de género gramatical,2024.2.2,Win32,119.047619,,,,,,,,,,,,,,,,,,,,,,,346.7955,348.0042,a,1,0.546,,[],[],[],[],[],[],[],0.546,1,348.0044,348.5028,,,,,,614,FEM,DIS,150,novia,el,a,348.504,348.5048,-0.162962949,-0.076851845,0,0,0,,0,69,69,163,1,,,,
,,,,,,162e1fe998e2c0360cc96b2b,66a626ef09d4e21e1a8894ec,6734d68dd830863667c73a7b,2024-11-13_11h16.07.859,Tarea de género gramatical,2024.2.2,Win32,119.047619,,,,,,,,,,,,,,,,,,,,,,,348.5053,349.5483,l,1,0.3832,,[],[],[],[],[],[],[],0.3832,1,349.5484,350.0473,,,,,,628,MAS,CON,150,punto,,l,350.0473,350.0474,-0.162962949,-0.076851845,0,0,0,,0,70,70,177,1,,,,
,,,,,,162e1fe998e2c0360cc96b2b,66a626ef09d4e21e1a8894ec,6734d68dd830863667c73a7b,2024-11-13_11h16.07.859,Tarea de género gramatical,2024.2.2,Win32,119.047619,,,,,,,,,,,,,,,,,,,,,,,350.048,351.564,a,1,0.8581,,[],[],[],[],[],[],[],0.8581,1,351.5642,352.0689,,,,,,764,FEM,DIS,150,señora,el,a,352.069,352.0691,-0.162962949,-0.076851845,0,0,0,,0,71,71,313,1,,,,
,,,,,,162e1fe998e2c0360cc96b2b,66a626ef09d4e21e1a8894ec,6734d68dd830863667c73a7b,2024-11-13_11h16.07.859,Tarea de género gramatical,2024.2.2,Win32,119.047619,,,,,,,,,,,,,,,,,,,,,,,352.0696,353.2675,l,0,0.537,,[],[],[],[],[],[],[],0.537,0,353.2683,353.7738,,,,,,495,FEM,AGR,150,isla,la,a,353.7738,353.7738,-0.162962949,-0.076851845,0,0,0,,0,72,72,44,1,,,,
,,,,,,162e1fe998e2c0360cc96b2b,66a626ef09d4e21e1a8894ec,6734d68dd830863667c73a7b,2024-11-13_11h16.07.859,Tarea de género gramatical,2024.2.2,Win32,119.047619,,,,,,,,,,,,,,,,,,,,,,,353.7745,354.7531,l,0,0.3138,,[],[],[],[],[],[],[],0.3138,0,354.7533,355.2495,,,,,,733,FEM,CON,150,pluma,,a,355.2496,355.2497,-0.162962949,-0.076851845,0,0,0,,0,73,73,282,1,,,,
,,,,,,162e1fe998e2c0360cc96b2b,66a626ef09d4e21e1a8894ec,6734d68dd830863667c73a7b,2024-11-13_11h16.07.859,Tarea de género gramatical,2024.2.2,Win32,119.047619,,,,,,,,,,,,,,,,,,,,,,,355.2514,356.3505,a,1,0.442,,[],[],[],[],[],[],[],0.442,1,356.3509,356.8514,,,,,,459,FEM,AGR,150,mamá,la,a,356.852,356.8525,-0.162962949,-0.076851845,0,0,0,,0,74,74,8,1,,,,
,,,,,,162e1fe998e2c0360cc96b2b,66a626ef09d4e21e1a8894ec,6734d68dd830863667c73a7b,2024-11-13_11h16.07.859,Tarea de género gramatical,2024.2.2,Win32,119.047619,,,,,,,,,,,,,,,,,,,,,,,356.8529,357.8652,l,1,0.3484,,[],[],[],[],[],[],[],0.3484,1,357.8655,358.3633,,,,,,894,MAS,AGR,150,límite,el,l,358.3634,358.3637,-0.162962949,-0.076851845,0,0,0,,0,75,75,443,1,,,,
,,,,,,162e1fe998e2c0360cc96b2b,66a626ef09d4e21e1a8894ec,6734d68dd830863667c73a7b,2024-11-13_11h16.07.859,Tarea de género gramatical,2024.2.2,Win32,119.047619,,,,,,,,,,,,,,,,,,,,,,,358.3648,359.525,a,1,0.494,,[],[],[],[],[],[],[],0.494,1,359.5253,360.0303,,,,,,879,FEM,AGR,150,fianza,la,a,360.0305,360.0307,-0.162962949,-0.076851845,0,0,0,,0,76,76,428,1,,,,
,,,,,,162e1fe998e2c0360cc96b2b,66a626ef09d4e21e1a8894ec,6734d68dd830863667c73a7b,2024-11-13_11h16.07.859,Tarea de género gramatical,2024.2.2,Win32,119.047619,,,,,,,,,,,,,,,,,,,,,,,360.0327,360.9973,l,1,0.3005,,[],[],[],[],[],[],[],0.3005,1,360.9975,361.4972,,,,,,730,MAS,CON,150,salón,,l,361.4973,361.4974,-0.162962949,-0.076851845,0,0,0,,0,77,77,279,1,,,,
,,,,,,162e1fe998e2c0360cc96b2b,66a626ef09d4e21e1a8894ec,6734d68dd830863667c73a7b,2024-11-13_11h16.07.859,Tarea de género gramatical,2024.2.2,Win32,119.047619,,,,,,,,,,,,,,,,,,,,,,,361.4979,363.1433,a,1,0.9817,,[],[],[],[],[],[],[],0.9817,1,363.1434,363.6428,,,,,,884,FEM,DIS,150,corona,el,a,363.6435,363.6443,-0.162962949,-0.076851845,0,0,0,,0,78,78,433,1,,,,
,,,,,,162e1fe998e2c0360cc96b2b,66a626ef09d4e21e1a8894ec,6734d68dd830863667c73a7b,2024-11-13_11h16.07.859,Tarea de género gramatical,2024.2.2,Win32,119.047619,,,,,,,,,,,,,,,,,,,,,,,363.6451,364.8487,a,1,0.5419,,[],[],[],[],[],[],[],0.5419,1,364.8488,365.348,,,,,,631,FEM,CON,150,tarde,,a,365.348,365.348,-0.162962949,-0.076851845,0,0,0,,0,79,79,180,1,,,,
,,,,,,162e1fe998e2c0360cc96b2b,66a626ef09d4e21e1a8894ec,6734d68dd830863667c73a7b,2024-11-13_11h16.07.859,Tarea de género gramatical,2024.2.2,Win32,119.047619,,,,,,,,,,,,,,,,,,,,,,,365.3491,366.5623,l,1,0.5499,,[],[],[],[],[],[],[],0.5499,1,366.5625,367.0615,,,,,,581,MAS,DIS,150,kilo,la,l,367.0615,367.0615,-0.162962949,-0.076851845,0,0,0,,0,80,80,130,1,,,,
,,,,,,162e1fe998e2c0360cc96b2b,66a626ef09d4e21e1a8894ec,6734d68dd830863667c73a7b,2024-11-13_11h16.07.859,Tarea de género gramatical,2024.2.2,Win32,119.047619,,,,,,,,,,,,,,,,,,,,,,,367.062,368.1762,a,1,0.4507,,[],[],[],[],[],[],[],0.4507,1,368.1762,368.6754,,,,,,763,FEM,CON,150,ciudad,,a,368.6756,368.6756,-0.162962949,-0.076851845,0,0,0,,0,81,81,312,1,,,,
,,,,,,162e1fe998e2c0360cc96b2b,66a626ef09d4e21e1a8894ec,6734d68dd830863667c73a7b,2024-11-13_11h16.07.859,Tarea de género gramatical,2024.2.2,Win32,119.047619,,,,,,,,,,,,,,,,,,,,,,,368.6762,370.0893,a,1,0.7495,,[],[],[],[],[],[],[],0.7495,1,370.0894,370.5888,,,,,,481,FEM,CON,150,edad,,a,370.5889,370.5889,-0.162962949,-0.076851845,0,0,0,,0,82,82,30,1,,,,
,,,,,,162e1fe998e2c0360cc96b2b,66a626ef09d4e21e1a8894ec,6734d68dd830863667c73a7b,2024-11-13_11h16.07.859,Tarea de género gramatical,2024.2.2,Win32,119.047619,,,,,,,,,,,,,,,,,,,,,,,370.5895,371.7866,a,1,0.5332,,[],[],[],[],[],[],[],0.5332,1,371.7866,372.2855,,,,,,757,FEM,CON,150,suerte,,a,372.2862,372.287,-0.162962949,-0.076851845,0,0,0,,0,83,83,306,1,,,,
,,,,,,162e1fe998e2c0360cc96b2b,66a626ef09d4e21e1a8894ec,6734d68dd830863667c73a7b,2024-11-13_11h16.07.859,Tarea de género gramatical,2024.2.2,Win32,119.047619,,,,,,,,,,,,,,,,,,,,,,,372.2878,373.5917,l,1,0.6413,,[],[],[],[],[],[],[],0.6413,1,373.5918,374.091,,,,,,774,MAS,AGR,150,cuarto,el,l,374.0911,374.0911,-0.162962949,-0.076851845,0,0,0,,0,84,84,323,1,,,,
,,,,,,162e1fe998e2c0360cc96b2b,66a626ef09d4e21e1a8894ec,6734d68dd830863667c73a7b,2024-11-13_11h16.07.859,Tarea de género gramatical,2024.2.2,Win32,119.047619,,,,,,,,,,,,,,,,,,,,,,,374.0927,375.7294,l,1,0.9733,,[],[],[],[],[],[],[],0.9733,1,375.7295,376.2285,,,,,,605,MAS,DIS,150,mundo,la,l,376.2286,376.2287,-0.162962949,-0.076851845,0,0,0,,0,85,85,154,1,,,,
,,,,,,162e1fe998e2c0360cc96b2b,66a626ef09d4e21e1a8894ec,6734d68dd830863667c73a7b,2024-11-13_11h16.07.859,Tarea de género gramatical,2024.2.2,Win32,119.047619,,,,,,,,,,,,,,,,,,,,,,,376.2293,378.4086,l,1,1.5152,,[],[],[],[],[],[],[],1.5152,1,378.4088,378.9046,,,,,,545,MAS,DIS,150,tomo,la,l,378.9046,378.9047,-0.162962949,-0.076851845,0,0,0,,0,86,86,94,1,,,,
,,,,,,162e1fe998e2c0360cc96b2b,66a626ef09d4e21e1a8894ec,6734d68dd830863667c73a7b,2024-11-13_11h16.07.859,Tarea de género gramatical,2024.2.2,Win32,119.047619,,,,,,,,,,,,,,,,,,,,,,,378.9052,380.1139,l,1,0.5439,,[],[],[],[],[],[],[],0.5439,1,380.1141,380.6094,,,,,,798,MAS,AGR,150,anillo,el,l,380.61,380.6104,-0.162962949,-0.076851845,0,0,0,,0,87,87,347,1,,,,
,,,,,,162e1fe998e2c0360cc96b2b,66a626ef09d4e21e1a8894ec,6734d68dd830863667c73a7b,2024-11-13_11h16.07.859,Tarea de género gramatical,2024.2.2,Win32,119.047619,,,,,,,,,,,,,,,,,,,,,,,380.6108,381.8142,a,1,0.5443,,[],[],[],[],[],[],[],0.5443,1,381.8144,382.3095,,,,,,620,FEM,DIS,150,carta,el,a,382.3095,382.3097,-0.162962949,-0.076851845,0,0,0,,0,88,88,169,1,,,,
,,,,,,162e1fe998e2c0360cc96b2b,66a626ef09d4e21e1a8894ec,6734d68dd830863667c73a7b,2024-11-13_11h16.07.859,Tarea de género gramatical,2024.2.2,Win32,119.047619,,,,,,,,,,,,,,,,,,,,,,,382.3112,383.7436,a,1,0.7777,,[],[],[],[],[],[],[],0.7777,1,383.744,384.2394,,,,,,626,FEM,DIS,150,línea,el,a,384.2395,384.2396,-0.162962949,-0.076851845,0,0,0,,0,89,89,175,1,,,,
,,,,,,162e1fe998e2c0360cc96b2b,66a626ef09d4e21e1a8894ec,6734d68dd830863667c73a7b,2024-11-13_11h16.07.859,Tarea de género gramatical,2024.2.2,Win32,119.047619,,,,,,,,,,,,,,,,,,,,,,,384.2412,385.3885,l,1,0.4861,,[],[],[],[],[],[],[],0.4861,1,385.3887,385.883,,,,,,466,MAS,CON,150,baño,,l,385.8831,385.8832,-0.162962949,-0.076851845,0,0,0,,0,90,90,15,1,,,,
,,,,,,162e1fe998e2c0360cc96b2b,66a626ef09d4e21e1a8894ec,6734d68dd830863667c73a7b,2024-11-13_11h16.07.859,Tarea de género gramatical,2024.2.2,Win32,119.047619,,,,,,,,,,,,,,,,,,,,,,,385.8837,386.8947,a,1,0.3463,,[],[],[],[],[],[],[],0.3463,1,386.8949,387.3973,,,,,,717,FEM,AGR,150,barba,la,a,387.3974,387.3974,-0.162962949,-0.076851845,0,0,0,,0,91,91,266,1,,,,
,,,,,,162e1fe998e2c0360cc96b2b,66a626ef09d4e21e1a8894ec,6734d68dd830863667c73a7b,2024-11-13_11h16.07.859,Tarea de género gramatical,2024.2.2,Win32,119.047619,,,,,,,,,,,,,,,,,,,,,,,387.398,388.5957,l,1,0.5375,,[],[],[],[],[],[],[],0.5375,1,388.5958,389.0978,,,,,,467,MAS,DIS,150,modo,la,l,389.0992,389.0998,-0.162962949,-0.076851845,0,0,0,,0,92,92,16,1,,,,
,,,,,,162e1fe998e2c0360cc96b2b,66a626ef09d4e21e1a8894ec,6734d68dd830863667c73a7b,2024-11-13_11h16.07.859,Tarea de género gramatical,2024.2.2,Win32,119.047619,,,,,,,,,,,,,,,,,,,,,,,389.1001,390.3091,a,1,0.5525,,[],[],[],[],[],[],[],0.5525,1,390.3092,390.8046,,,,,,811,FEM,CON,150,oferta,,a,390.8047,390.8049,-0.162962949,-0.076851845,0,0,0,,0,93,93,360,1,,,,
,,,,,,162e1fe998e2c0360cc96b2b,66a626ef09d4e21e1a8894ec,6734d68dd830863667c73a7b,2024-11-13_11h16.07.859,Tarea de género gramatical,2024.2.2,Win32,119.047619,,,,,,,,,,,,,,,,,,,,,,,390.8061,391.7874,l,1,0.326,,[],[],[],[],[],[],[],0.326,1,391.7876,392.2837,,,,,,700,MAS,CON,150,cerdo,,l,392.2837,392.2839,-0.162962949,-0.076851845,0,0,0,,0,94,94,249,1,,,,
,,,,,,162e1fe998e2c0360cc96b2b,66a626ef09d4e21e1a8894ec,6734d68dd830863667c73a7b,2024-11-13_11h16.07.859,Tarea de género gramatical,2024.2.2,Win32,119.047619,,,,,,,,,,,,,,,,,,,,,,,392.2854,393.6796,a,1,0.7291,,[],[],[],[],[],[],[],0.7291,1,393.6797,394.1778,,,,,,825,FEM,AGR,150,cadena,la,a,394.1778,394.1779,-0.162962949,-0.076851845,0,0,0,,0,95,95,374,1,,,,
,,,,,,162e1fe998e2c0360cc96b2b,66a626ef09d4e21e1a8894ec,6734d68dd830863667c73a7b,2024-11-13_11h16.07.859,Tarea de género gramatical,2024.2.2,Win32,119.047619,,,,,,,,,,,,,,,,,,,,,,,394.1789,395.2765,l,1,0.4337,,[],[],[],[],[],[],[],0.4337,1,395.2766,395.775,,,,,,665,MAS,DIS,150,hueso,la,l,395.7755,395.7758,-0.162962949,-0.076851845,0,0,0,,0,96,96,214,1,,,,
,,,,,,162e1fe998e2c0360cc96b2b,66a626ef09d4e21e1a8894ec,6734d68dd830863667c73a7b,2024-11-13_11h16.07.859,Tarea de género gramatical,2024.2.2,Win32,119.047619,,,,,,,,,,,,,,,,,,,,,,,395.7762,396.8478,l,1,0.4082,,[],[],[],[],[],[],[],0.4082,1,396.8479,397.3469,,,,,,736,MAS,CON,150,reino,,l,397.347,397.3471,-0.162962949,-0.076851845,0,0,0,,0,97,97,285,1,,,,
,,,,,,162e1fe998e2c0360cc96b2b,66a626ef09d4e21e1a8894ec,6734d68dd830863667c73a7b,2024-11-13_11h16.07.859,Tarea de género gramatical,2024.2.2,Win32,119.047619,,,,,,,,,,,,,,,,,,,,,,,397.3476,398.4122,l,1,0.4001,,[],[],[],[],[],[],[],0.4001,1,398.4123,398.9109,,,,,,454,MAS,CON,150,hijo,,l,398.9109,398.911,-0.162962949,-0.076851845,0,0,0,,0,98,98,3,1,,,,
,,,,,,162e1fe998e2c0360cc96b2b,66a626ef09d4e21e1a8894ec,6734d68dd830863667c73a7b,2024-11-13_11h16.07.859,Tarea de género gramatical,2024.2.2,Win32,119.047619,,,,,,,,,,,,,,,,,,,,,,,398.9115,400.1086,a,1,0.5329,,[],[],[],[],[],[],[],0.5329,1,400.1086,400.6077,,,,,,889,FEM,CON,150,toalla,,a,400.6077,400.6078,-0.162962949,-0.076851845,0,0,0,,0,99,99,438,1,,,,
,,,,,,162e1fe998e2c0360cc96b2b,66a626ef09d4e21e1a8894ec,6734d68dd830863667c73a7b,2024-11-13_11h16.07.859,Tarea de género gramatical,2024.2.2,Win32,119.047619,,,,,,,,,,,,,,,,,,,,,,,400.6083,401.6645,l,1,0.3915,,[],[],[],[],[],[],[],0.3915,1,401.6646,402.1662,,,,,,630,MAS,AGR,150,fuego,el,l,402.1663,402.1666,-0.162962949,-0.076851845,0,0,0,,0,100,100,179,1,,,,
,,,,,,162e1fe998e2c0360cc96b2b,66a626ef09d4e21e1a8894ec,6734d68dd830863667c73a7b,2024-11-13_11h16.07.859,Tarea de género gramatical,2024.2.2,Win32,119.047619,,,,,,,,,,,,,,,,,,,,,,,402.1679,403.2728,l,1,0.4346,,[],[],[],[],[],[],[],0.4346,1,403.273,403.7719,,,,,,677,MAS,DIS,150,vuelo,la,l,403.7733,403.7737,-0.162962949,-0.076851845,0,0,0,,0,101,101,226,1,,,,
,,,,,,162e1fe998e2c0360cc96b2b,66a626ef09d4e21e1a8894ec,6734d68dd830863667c73a7b,2024-11-13_11h16.07.859,Tarea de género gramatical,2024.2.2,Win32,119.047619,,,,,,,,,,,,,,,,,,,,,,,403.7741,404.8954,a,1,0.4569,,[],[],[],[],[],[],[],0.4569,1,404.8956,405.3906,,,,,,465,FEM,AGR,150,cama,la,a,405.3906,405.3907,-0.162962949,-0.076851845,0,0,0,,0,102,102,14,1,,,,
,,,,,,162e1fe998e2c0360cc96b2b,66a626ef09d4e21e1a8894ec,6734d68dd830863667c73a7b,2024-11-13_11h16.07.859,Tarea de género gramatical,2024.2.2,Win32,119.047619,,,,,,,,,,,,,,,,,,,,,,,405.3913,406.9048,l,1,0.852,,[],[],[],[],[],[],[],0.852,1,406.9049,407.4036,,,,,,780,MAS,AGR,150,estado,el,l,407.4036,407.4037,-0.162962949,-0.076851845,0,0,0,,0,103,103,329,1,,,,
,,,,,,162e1fe998e2c0360cc96b2b,66a626ef09d4e21e1a8894ec,6734d68dd830863667c73a7b,2024-11-13_11h16.07.859,Tarea de género gramatical,2024.2.2,Win32,119.047619,,,,,,,,,,,,,,,,,,,,,,,407.4043,408.4934,a,1,0.4274,,[],[],[],[],[],[],[],0.4274,1,408.4934,408.992,,,,,,727,FEM,CON,150,plaza,,a,408.992,408.992,-0.162962949,-0.076851845,0,0,0,,0,104,104,276,1,,,,
,,,,,,162e1fe998e2c0360cc96b2b,66a626ef09d4e21e1a8894ec,6734d68dd830863667c73a7b,2024-11-13_11h16.07.859,Tarea de género gramatical,2024.2.2,Win32,119.047619,,,,,,,,,,,,,,,,,,,,,,,408.9927,410.1074,l,1,0.4534,,[],[],[],[],[],[],[],0.4534,1,410.1075,410.6146,,,,,,652,MAS,CON,150,honor,,l,410.6153,410.6156,-0.162962949,-0.076851845,0,0,0,,0,105,105,201,1,,,,
,,,,,,162e1fe998e2c0360cc96b2b,66a626ef09d4e21e1a8894ec,6734d68dd830863667c73a7b,2024-11-13_11h16.07.859,Tarea de género gramatical,2024.2.2,Win32,119.047619,,,,,,,,,,,,,,,,,,,,,,,410.616,411.7159,a,1,0.4414,,[],[],[],[],[],[],[],0.4414,1,411.7161,412.2147,,,,,,494,FEM,DIS,150,zona,el,a,412.2148,412.2149,-0.162962949,-0.076851845,0,0,0,,0,106,106,43,1,,,,
,,,,,,162e1fe998e2c0360cc96b2b,66a626ef09d4e21e1a8894ec,6734d68dd830863667c73a7b,2024-11-13_11h16.07.859,Tarea de género gramatical,2024.2.2,Win32,119.047619,,,,,,,,,,,,,,,,,,,,,,,412.2164,413.3047,l,1,0.4206,,[],[],[],[],[],[],[],0.4206,1,413.3048,413.804,,,,,,616,MAS,CON,150,coche,,l,413.8041,413.8043,-0.162962949,-0.076851845,0,0,0,,0,107,107,165,1,,,,
,,,,,,162e1fe998e2c0360cc96b2b,66a626ef09d4e21e1a8894ec,6734d68dd830863667c73a7b,2024-11-13_11h16.07.859,Tarea de género gramatical,2024.2.2,Win32,119.047619,,,,,,,,,,,,,,,,,,,,,,,413.8056,414.7805,a,1,0.314,,[],[],[],[],[],[],[],0.314,1,414.7807,415.2818,,,,,,464,FEM,DIS,150,cara,el,a,415.2818,415.2819,-0.162962949,-0.076851845,0,0,0,,0,108,108,13,1,,,,
,,,,,,162e1fe998e2c0360cc96b2b,66a626ef09d4e21e1a8894ec,6734d68dd830863667c73a7b,2024-11-13_11h16.07.859,Tarea de género gramatical,2024.2.2,Win32,119.047619,,,,,,,,,,,,,,,,,,,,,,,415.2826,416.299,l,1,0.3591,,[],[],[],[],[],[],[],0.3591,1,416.2991,416.7985,,,,,,856,MAS,CON,150,premio,,l,416.7985,416.7986,-0.162962949,-0.076851845,0,0,0,,0,109,109,405,1,,,,
,,,,,,162e1fe998e2c0360cc96b2b,66a626ef09d4e21e1a8894ec,6734d68dd830863667c73a7b,2024-11-13_11h16.07.859,Tarea de género gramatical,2024.2.2,Win32,119.047619,,,,,,,,,,,,,,,,,,,,,,,416.7992,417.8058,l,1,0.3431,,[],[],[],[],[],[],[],0.3431,1,417.8059,418.3039,,,,,,688,MAS,CON,150,norte,,l,418.3044,418.305,-0.162962949,-0.076851845,0,0,0,,0,110,110,237,1,,,,
,,,,,,162e1fe998e2c0360cc96b2b,66a626ef09d4e21e1a8894ec,6734d68dd830863667c73a7b,2024-11-13_11h16.07.859,Tarea de género gramatical,2024.2.2,Win32,119.047619,,,,,,,,,,,,,,,,,,,,,,,418.3057,419.2854,l,1,0.317,,[],[],[],[],[],[],[],0.317,1,419.2854,419.7848,,,,,,646,MAS,CON,150,barco,,l,419.7848,419.7849,-0.162962949,-0.076851845,0,0,0,,0,111,111,195,1,,,,
,,,,,,162e1fe998e2c0360cc96b2b,66a626ef09d4e21e1a8894ec,6734d68dd830863667c73a7b,2024-11-13_11h16.07.859,Tarea de género gramatical,2024.2.2,Win32,119.047619,,,,,,,,,,,,,,,,,,,,,,,419.7863,420.8087,a,1,0.3595,,[],[],[],[],[],[],[],0.3595,1,420.8088,421.3082,,,,,,709,FEM,CON,150,prima,,a,421.3082,421.3083,-0.162962949,-0.076851845,0,0,0,,0,112,112,258,1,,,,
,,,,,,162e1fe998e2c0360cc96b2b,66a626ef09d4e21e1a8894ec,6734d68dd830863667c73a7b,2024-11-13_11h16.07.859,Tarea de género gramatical,2024.2.2,Win32,119.047619,,,,,,,,,,,,,,,,,,,,,,,421.3095,422.3719,l,1,0.4001,,[],[],[],[],[],[],[],0.4001,1,422.3719,422.8709,,,,,,520,MAS,CON,150,palo,,l,422.8709,422.871,-0.162962949,-0.076851845,0,0,0,,0,113,113,69,1,,,,
,,,,,,162e1fe998e2c0360cc96b2b,66a626ef09d4e21e1a8894ec,6734d68dd830863667c73a7b,2024-11-13_11h16.07.859,Tarea de género gramatical,2024.2.2,Win32,119.047619,,,,,,,,,,,,,,,,,,,,,,,422.8717,423.9023,l,1,0.367,,[],[],[],[],[],[],[],0.367,1,423.9024,424.4015,,,,,,635,MAS,DIS,150,sueño,la,l,424.4021,424.4029,-0.162962949,-0.076851845,0,0,0,,0,114,114,184,1,,,,
,,,,,,162e1fe998e2c0360cc96b2b,66a626ef09d4e21e1a8894ec,6734d68dd830863667c73a7b,2024-11-13_11h16.07.859,Tarea de género gramatical,2024.2.2,Win32,119.047619,,,,,,,,,,,,,,,,,,,,,,,424.4037,425.3998,l,1,0.3335,,[],[],[],[],[],[],[],0.3335,1,425.3998,425.899,,,,,,509,MAS,DIS,150,lobo,la,l,425.899,425.8991,-0.162962949,-0.076851845,0,0,0,,0,115,115,58,1,,,,
,,,,,,162e1fe998e2c0360cc96b2b,66a626ef09d4e21e1a8894ec,6734d68dd830863667c73a7b,2024-11-13_11h16.07.859,Tarea de género gramatical,2024.2.2,Win32,119.047619,,,,,,,,,,,,,,,,,,,,,,,425.9002,426.9054,a,1,0.3417,,[],[],[],[],[],[],[],0.3417,1,426.9056,427.4044,,,,,,867,FEM,AGR,150,cabaña,la,a,427.4045,427.4046,-0.162962949,-0.076851845,0,0,0,,0,116,116,416,1,,,,
,,,,,,162e1fe998e2c0360cc96b2b,66a626ef09d4e21e1a8894ec,6734d68dd830863667c73a7b,2024-11-13_11h16.07.859,Tarea de género gramatical,2024.2.2,Win32,119.047619,,,,,,,,,,,,,,,,,,,,,,,427.4052,428.5442,a,1,0.4749,,[],[],[],[],[],[],[],0.4749,1,428.5442,429.0433,,,,,,675,FEM,AGR,150,pieza,la,a,429.0433,429.0433,-0.162962949,-0.076851845,0,0,0,,0,117,117,224,1,,,,
,,,,,,162e1fe998e2c0360cc96b2b,66a626ef09d4e21e1a8894ec,6734d68dd830863667c73a7b,2024-11-13_11h16.07.859,Tarea de género gramatical,2024.2.2,Win32,119.047619,,,,,,,,,,,,,,,,,,,,,,,429.0439,430.1578,a,1,0.4499,,[],[],[],[],[],[],[],0.4499,1,430.1579,430.6571,,,,,,531,FEM,AGR,150,cima,la,a,430.6571,430.6572,-0.162962949,-0.076851845,0,0,0,,0,118,118,80,1,,,,
,,,,,,162e1fe998e2c0360cc96b2b,66a626ef09d4e21e1a8894ec,6734d68dd830863667c73a7b,2024-11-13_11h16.07.859,Tarea de género gramatical,2024.2.2,Win32,119.047619,,,,,,,,,,,,,,,,,,,,,,,430.6579,431.7219,l,1,0.4001,,[],[],[],[],[],[],[],0.4001,1,431.7219,432.221,,,,,,599,MAS,DIS,150,nudo,la,l,432.2223,432.2231,-0.162962949,-0.076851845,0,0,0,,0,119,119,148,1,,,,
,,,,,,162e1fe998e2c0360cc96b2b,66a626ef09d4e21e1a8894ec,6734d68dd830863667c73a7b,2024-11-13_11h16.07.859,Tarea de género gramatical,2024.2.2,Win32,119.047619,,,,,,,,,,,,,,,,,,,,,,,432.2238,433.211,a,1,0.3248,,[],[],[],[],[],[],[],0.3248,1,433.211,433.7099,,,,,,747,FEM,AGR,150,manta,la,a,433.7099,433.71,-0.162962949,-0.076851845,0,0,0,,0,120,120,296,1,,,,
,,,,,,162e1fe998e2c0360cc96b2b,66a626ef09d4e21e1a8894ec,6734d68dd830863667c73a7b,2024-11-13_11h16.07.859,Tarea de género gramatical,2024.2.2,Win32,119.047619,,,,,,,,,,,,,,,,,,,,,,,433.7105,434.7332,l,1,0.3588,,[],[],[],[],[],[],[],0.3588,1,434.7332,435.2323,,,,,,455,MAS,DIS,150,tipo,la,l,435.2324,435.2324,-0.162962949,-0.076851845,0,0,0,,0,121,121,4,1,,,,
,,,,,,162e1fe998e2c0360cc96b2b,66a626ef09d4e21e1a8894ec,6734d68dd830863667c73a7b,2024-11-13_11h16.07.859,Tarea de género gramatical,2024.2.2,Win32,119.047619,,,,,,,,,,,,,,,,,,,,,,,435.2335,436.1971,a,1,0.3007,,[],[],[],[],[],[],[],0.3007,1,436.1971,436.6963,,,,,,728,FEM,DIS,150,presa,el,a,436.6963,436.6964,-0.162962949,-0.076851845,0,0,0,,0,122,122,277,1,,,,
,,,,,,162e1fe998e2c0360cc96b2b,66a626ef09d4e21e1a8894ec,6734d68dd830863667c73a7b,2024-11-13_11h16.07.859,Tarea de género gramatical,2024.2.2,Win32,119.047619,,,,,,,,,,,,,,,,,,,,,,,436.697,437.7027,l,1,0.3419,,[],[],[],[],[],[],[],0.3419,1,437.7028,438.202,,,,,,491,MAS,DIS,150,bote,la,l,438.2026,438.2032,-0.162962949,-0.076851845,0,0,0,,0,123,123,40,1,,,,
,,,,,,162e1fe998e2c0360cc96b2b,66a626ef09d4e21e1a8894ec,6734d68dd830863667c73a7b,2024-11-13_11h16.07.859,Tarea de género gramatical,2024.2.2,Win32,119.047619,,,,,,,,,,,,,,,,,,,,,,,438.2039,439.1752,a,1,0.3088,,[],[],[],[],[],[],[],0.3088,1,439.1753,439.6744,,,,,,597,FEM,AGR,150,grúa,la,a,439.6745,439.6745,-0.162962949,-0.076851845,0,0,0,,0,124,124,146,1,,,,
,,,,,,162e1fe998e2c0360cc96b2b,66a626ef09d4e21e1a8894ec,6734d68dd830863667c73a7b,2024-11-13_11h16.07.859,Tarea de género gramatical,2024.2.2,Win32,119.047619,,,,,,,,,,,,,,,,,,,,,,,439.6751,440.6394,a,0,0.3003,,[],[],[],[],[],[],[],0.3003,0,440.6398,441.1385,,,,,,648,MAS,AGR,150,hotel,el,l,441.1385,441.1386,-0.162962949,-0.076851845,0,0,0,,0,125,125,197,1,,,,
,,,,,,162e1fe998e2c0360cc96b2b,66a626ef09d4e21e1a8894ec,6734d68dd830863667c73a7b,2024-11-13_11h16.07.859,Tarea de género gramatical,2024.2.2,Win32,119.047619,,,,,,,,,,,,,,,,,,,,,,,441.1392,442.2281,a,1,0.4249,,[],[],[],[],[],[],[],0.4249,1,442.2286,442.7272,,,,,,769,FEM,CON,150,sangre,,a,442.7272,442.7273,-0.162962949,-0.076851845,0,0,0,,0,126,126,318,1,,,,
,,,,,,162e1fe998e2c0360cc96b2b,66a626ef09d4e21e1a8894ec,6734d68dd830863667c73a7b,2024-11-13_11h16.07.859,Tarea de género gramatical,2024.2.2,Win32,119.047619,,,,,,,,,,,,,,,,,,,,,,,442.7279,443.7754,a,1,0.383,,[],[],[],[],[],[],[],0.383,1,443.7754,444.2747,,,,,,819,FEM,AGR,150,camisa,la,a,444.2747,444.2748,-0.162962949,-0.076851845,0,0,0,,0,127,127,368,1,,,,
,,,,,,162e1fe998e2c0360cc96b2b,66a626ef09d4e21e1a8894ec,6734d68dd830863667c73a7b,2024-11-13_11h16.07.859,Tarea de género gramatical,2024.2.2,Win32,119.047619,,,,,,,,,,,,,,,,,,,,,,,444.2756,445.306,a,1,0.3667,,[],[],[],[],[],[],[],0.3667,1,445.3061,445.8052,,,,,,861,FEM,AGR,150,actriz,la,a,445.8058,445.8065,-0.162962949,-0.076851845,0,0,0,,0,128,128,410,1,,,,
,,,,,,162e1fe998e2c0360cc96b2b,66a626ef09d4e21e1a8894ec,6734d68dd830863667c73a7b,2024-11-13_11h16.07.859,Tarea de género gramatical,2024.2.2,Win32,119.047619,,,,,,,,,,,,,,,,,,,,,,,445.8073,446.8866,l,1,0.4165,,[],[],[],[],[],[],[],0.4165,1,446.8867,447.3858,,,,,,456,MAS,AGR,150,lado,el,l,447.3859,447.3859,-0.162962949,-0.076851845,0,0,0,,0,129,129,5,1,,,,
,,,,,,162e1fe998e2c0360cc96b2b,66a626ef09d4e21e1a8894ec,6734d68dd830863667c73a7b,2024-11-13_11h16.07.859,Tarea de género gramatical,2024.2.2,Win32,119.047619,,,,,,,,,,,,,,,,,,,,,,,447.3871,448.4587,l,1,0.4087,,[],[],[],[],[],[],[],0.4087,1,448.4588,448.9579,,,,,,461,MAS,DIS,150,país,la,l,448.958,448.958,-0.162962949,-0.076851845,0,0,0,,0,130,130,10,1,,,,
,,,,,,162e1fe998e2c0360cc96b2b,66a626ef09d4e21e1a8894ec,6734d68dd830863667c73a7b,2024-11-13_11h16.07.859,Tarea de género gramatical,2024.2.2,Win32,119.047619,,,,,,,,,,,,,,,,,,,,,,,448.9585,450.0226,a,1,0.4001,,[],[],[],[],[],[],[],0.4001,1,450.0226,450.5219,,,,,,603,FEM,AGR,150,mujer,la,a,450.5219,450.522,-0.162962949,-0.076851845,0,0,0,,0,131,131,152,1,,,,
,,,,,,162e1fe998e2c0360cc96b2b,66a626ef09d4e21e1a8894ec,6734d68dd830863667c73a7b,2024-11-13_11h16.07.859,Tarea de género gramatical,2024.2.2,Win32,119.047619,,,,,,,,,,,,,,,,,,,,,,,450.5227,451.5118,l,1,0.3265,,[],[],[],[],[],[],[],0.3265,1,451.5118,452.011,,,,,,761,MAS,DIS,150,camino,la,l,452.0122,452.0132,-0.162962949,-0.076851845,0,0,0,,0,132,132,310,1,,,,
,,,,,,162e1fe998e2c0360cc96b2b,66a626ef09d4e21e1a8894ec,6734d68dd830863667c73a7b,2024-11-13_11h16.07.859,Tarea de género gramatical,2024.2.2,Win32,119.047619,,,,,,,,,,,,,,,,,,,,,,,452.0138,453.4916,a,1,0.8172,,[],[],[],[],[],[],[],0.8172,1,453.4917,453.9908,,,,,,710,FEM,DIS,150,barra,el,a,453.9909,453.9909,-0.162962949,-0.076851845,0,0,0,,0,133,133,259,1,,,,
,,,,,,162e1fe998e2c0360cc96b2b,66a626ef09d4e21e1a8894ec,6734d68dd830863667c73a7b,2024-11-13_11h16.07.859,Tarea de género gramatical,2024.2.2,Win32,119.047619,,,,,,,,,,,,,,,,,,,,,,,453.9915,455.0554,l,1,0.3999,,[],[],[],[],[],[],[],0.3999,1,455.0554,455.5545,,,,,,538,MAS,CON,150,pavo,,l,455.5545,455.5545,-0.162962949,-0.076851845,0,0,0,,0,134,134,87,1,,,,
,,,,,,162e1fe998e2c0360cc96b2b,66a626ef09d4e21e1a8894ec,6734d68dd830863667c73a7b,2024-11-13_11h16.07.859,Tarea de género gramatical,2024.2.2,Win32,119.047619,,,,,,,,,,,,,,,,,,,,,,,455.5551,456.5777,l,0,0.3584,,[],[],[],[],[],[],[],0.3584,0,456.5785,457.0769,,,,,,859,FEM,CON,150,moneda,,a,457.077,457.077,-0.162962949,-0.076851845,0,0,0,,0,135,135,408,1,,,,
,,,,,,162e1fe998e2c0360cc96b2b,66a626ef09d4e21e1a8894ec,6734d68dd830863667c73a7b,2024-11-13_11h16.07.859,Tarea de género gramatical,2024.2.2,Win32,119.047619,,,,,,,,,,,,,,,,,,,,,,,457.0777,458.1165,l,1,0.3754,,[],[],[],[],[],[],[],0.3754,1,458.1169,458.6158,,,,,,654,MAS,AGR,150,papel,el,l,458.6158,458.6159,-0.162962949,-0.076851845,0,0,0,,0,136,136,203,1,,,,
,,,,,,162e1fe998e2c0360cc96b2b,66a626ef09d4e21e1a8894ec,6734d68dd830863667c73a7b,2024-11-13_11h16.07.859,Tarea de género gramatical,2024.2.2,Win32,119.047619,,,,,,,,,,,,,,,,,,,,,,,458.6166,459.7222,a,1,0.4418,,[],[],[],[],[],[],[],0.4418,1,459.7223,460.2212,,,,,,607,FEM,CON,150,madre,,a,460.2218,460.2226,-0.162962949,-0.076851845,0,0,0,,0,137,137,156,1,,,,
,,,,,,162e1fe998e2c0360cc96b2b,66a626ef09d4e21e1a8894ec,6734d68dd830863667c73a7b,2024-11-13_11h16.07.859,Tarea de género gramatical,2024.2.2,Win32,119.047619,,,,,,,,,,,,,,,,,,,,,,,460.2233,461.2194,a,1,0.3338,,[],[],[],[],[],[],[],0.3338,1,461.2194,461.7189,,,,,,595,FEM,CON,150,bota,,a,461.719,461.719,-0.162962949,-0.076851845,0,0,0,,0,138,138,144,1,,,,
,,,,,,162e1fe998e2c0360cc96b2b,66a626ef09d4e21e1a8894ec,6734d68dd830863667c73a7b,2024-11-13_11h16.07.859,Tarea de género gramatical,2024.2.2,Win32,119.047619,,,,,,,,,,,,,,,,,,,,,,,461.7202,462.7166,a,1,0.3337,,[],[],[],[],[],[],[],0.3337,1,462.7167,463.2205,,,,,,681,FEM,AGR,150,bruja,la,a,463.2205,463.2207,-0.162962949,-0.076851845,0,0,0,,0,139,139,230,1,,,,
,,,,,,162e1fe998e2c0360cc96b2b,66a626ef09d4e21e1a8894ec,6734d68dd830863667c73a7b,2024-11-13_11h16.07.859,Tarea de género gramatical,2024.2.2,Win32,119.047619,,,,,,,,,,,,,,,,,,,,,,,463.2213,464.2812,l,1,0.4013,,[],[],[],[],[],[],[],0.4013,1,464.2814,464.7774,,,,,,786,MAS,AGR,150,crimen,el,l,464.7775,464.7776,-0.162962949,-0.076851845,0,0,0,,0,140,140,335,1,,,,
,,,,,,162e1fe998e2c0360cc96b2b,66a626ef09d4e21e1a8894ec,6734d68dd830863667c73a7b,2024-11-13_11h16.07.859,Tarea de género gramatical,2024.2.2,Win32,119.047619,,,,,,,,,,,,,,,,,,,,,,,464.7785,465.8174,l,1,0.3758,,[],[],[],[],[],[],[],0.3758,1,465.8175,466.3244,,,,,,498,MAS,AGR,150,loco,el,l,466.3249,466.3253,-0.162962949,-0.076851845,0,0,0,,0,141,141,47,1,,,,
,,,,,,162e1fe998e2c0360cc96b2b,66a626ef09d4e21e1a8894ec,6734d68dd830863667c73a7b,2024-11-13_11h16.07.859,Tarea de género gramatical,2024.2.2,Win32,119.047619,,,,,,,,,,,,,,,,,,,,,,,466.3258,468.9729,,0,,,[],[],[],[],[],[],[],0.3758,-1,468.9744,469.4721,,,,,,777,FEM,AGR,150,tienda,la,a,469.4722,469.4723,-0.162962949,-0.076851845,0,0,0,,0,142,142,326,1,,,,
,,,,,,162e1fe998e2c0360cc96b2b,66a626ef09d4e21e1a8894ec,6734d68dd830863667c73a7b,2024-11-13_11h16.07.859,Tarea de género gramatical,2024.2.2,Win32,119.047619,,,,,,,,,,,,,,,,,,,,,,,469.4738,470.9827,a,1,0.8407,,[],[],[],[],[],[],[],0.8407,1,470.9831,471.4896,,,,,,476,FEM,DIS,150,pena,el,a,471.4898,471.4898,-0.162962949,-0.076851845,0,0,0,,0,143,143,25,1,,,,
,,,,,,162e1fe998e2c0360cc96b2b,66a626ef09d4e21e1a8894ec,6734d68dd830863667c73a7b,2024-11-13_11h16.07.859,Tarea de género gramatical,2024.2.2,Win32,119.047619,,,,,,,,,,,,,,,,,,,,,,,471.4904,472.6362,l,0,0.4832,,[],[],[],[],[],[],[],0.4832,0,472.6371,473.1358,,,,,,807,FEM,AGR,150,lengua,la,a,473.1359,473.1359,-0.162962949,-0.076851845,0,0,0,,0,144,144,356,1,,,,
,,,,,,162e1fe998e2c0360cc96b2b,66a626ef09d4e21e1a8894ec,6734d68dd830863667c73a7b,2024-11-13_11h16.07.859,Tarea de género gramatical,2024.2.2,Win32,119.047619,,,,,,,,,,,,,,,,,,,,,,,473.1365,474.2831,l,1,0.4843,,[],[],[],[],[],[],[],0.4843,1,474.2839,474.7792,,,,,,790,MAS,CON,150,pasado,,l,474.7793,474.7795,-0.162962949,-0.076851845,0,0,0,,0,145,145,339,1,,,,
,,,,,,162e1fe998e2c0360cc96b2b,66a626ef09d4e21e1a8894ec,6734d68dd830863667c73a7b,2024-11-13_11h16.07.859,Tarea de género gramatical,2024.2.2,Win32,119.047619,,,,,,,,,,,,,,,,,,,,,,,474.7808,475.7741,a,1,0.3328,,[],[],[],[],[],[],[],0.3328,1,475.7742,476.2809,,,,,,547,FEM,CON,150,capa,,a,476.2815,476.2819,-0.162962949,-0.076851845,0,0,0,,0,146,146,96,1,,,,
,,,,,,162e1fe998e2c0360cc96b2b,66a626ef09d4e21e1a8894ec,6734d68dd830863667c73a7b,2024-11-13_11h16.07.859,Tarea de género gramatical,2024.2.2,Win32,119.047619,,,,,,,,,,,,,,,,,,,,,,,476.2823,477.9983,a,1,1.0493,,[],[],[],[],[],[],[],1.0493,1,477.9984,478.503,,,,,,493,FEM,CON,150,nena,,a,478.5031,478.5031,-0.162962949,-0.076851845,0,0,0,,0,147,147,42,1,,,,
,,,,,,162e1fe998e2c0360cc96b2b,66a626ef09d4e21e1a8894ec,6734d68dd830863667c73a7b,2024-11-13_11h16.07.859,Tarea de género gramatical,2024.2.2,Win32,119.047619,,,,,,,,,,,,,,,,,,,,,,,478.5038,480.1892,l,1,1.0211,,[],[],[],[],[],[],[],1.0211,1,480.1894,480.6878,,,,,,533,MAS,DIS,150,nene,la,l,480.6879,480.6881,-0.162962949,-0.076851845,0,0,0,,0,148,148,82,1,,,,
,,,,,,162e1fe998e2c0360cc96b2b,66a626ef09d4e21e1a8894ec,6734d68dd830863667c73a7b,2024-11-13_11h16.07.859,Tarea de género gramatical,2024.2.2,Win32,119.047619,,,,,,,,,,,,,,,,,,,,,,,480.6894,481.9633,a,1,0.6113,,[],[],[],[],[],[],[],0.6113,1,481.9634,482.4624,,,,,,559,FEM,CON,150,gota,,a,482.4624,482.4624,-0.162962949,-0.076851845,0,0,0,,0,149,149,108,1,,,,
,,,,,,162e1fe998e2c0360cc96b2b,66a626ef09d4e21e1a8894ec,6734d68dd830863667c73a7b,2024-11-13_11h16.07.859,Tarea de género gramatical,2024.2.2,Win32,119.047619,,,,,,,,,,,,,,,,,,,,,,,482.4631,483.5109,a,1,0.384,,[],[],[],[],[],[],[],0.384,1,483.511,484.009,,,,,,501,FEM,AGR,150,bala,la,a,484.0095,835.5111,-0.162962949,-0.076851845,0,0,0,space,0,150,150,50,1,351.4891,,,
,,,,,,162e1fe998e2c0360cc96b2b,66a626ef09d4e21e1a8894ec,6734d68dd830863667c73a7b,2024-11-13_11h16.07.859,Tarea de género gramatical,2024.2.2,Win32,119.047619,,,,,,,,,,,,,,,,,,,,,,,835.5125,836.9243,l,1,0.7484,,[],[],[],[],[],[],[],0.7484,1,836.9244,837.4188,,,,,,490,MAS,CON,150,dios,,l,837.419,837.4191,-0.162962949,-0.076851845,0,0,0,,0,151,151,39,1,,,,
,,,,,,162e1fe998e2c0360cc96b2b,66a626ef09d4e21e1a8894ec,6734d68dd830863667c73a7b,2024-11-13_11h16.07.859,Tarea de género gramatical,2024.2.2,Win32,119.047619,,,,,,,,,,,,,,,,,,,,,,,837.4205,838.3892,l,1,0.3042,,[],[],[],[],[],[],[],0.3042,1,838.3892,838.8879,,,,,,814,MAS,CON,150,viento,,l,838.8879,838.888,-0.162962949,-0.076851845,0,0,0,,0,152,152,363,1,,,,
,,,,,,162e1fe998e2c0360cc96b2b,66a626ef09d4e21e1a8894ec,6734d68dd830863667c73a7b,2024-11-13_11h16.07.859,Tarea de género gramatical,2024.2.2,Win32,119.047619,,,,,,,,,,,,,,,,,,,,,,,838.8886,840.3167,a,1,0.7687,,[],[],[],[],[],[],[],0.7687,1,840.3168,840.8136,,,,,,711,FEM,AGR,150,cueva,la,a,840.8138,840.8139,-0.162962949,-0.076851845,0,0,0,,0,153,153,260,1,,,,
,,,,,,162e1fe998e2c0360cc96b2b,66a626ef09d4e21e1a8894ec,6734d68dd830863667c73a7b,2024-11-13_11h16.07.859,Tarea de género gramatical,2024.2.2,Win32,119.047619,,,,,,,,,,,,,,,,,,,,,,,840.8152,843.4599,,0,,,[],[],[],[],[],[],[],0.7687,-1,843.4612,843.9624,,,,,,529,FEM,CON,150,mina,,a,843.9624,843.9625,-0.162962949,-0.076851845,0,0,0,,0,154,154,78,1,,,,
,,,,,,162e1fe998e2c0360cc96b2b,66a626ef09d4e21e1a8894ec,6734d68dd830863667c73a7b,2024-11-13_11h16.07.859,Tarea de género gramatical,2024.2.2,Win32,119.047619,,,,,,,,,,,,,,,,,,,,,,,843.9631,845.5428,a,1,0.921,,[],[],[],[],[],[],[],0.921,1,845.5433,846.042,,,,,,483,FEM,AGR,150,boda,la,a,846.0426,846.043,-0.162962949,-0.076851845,0,0,0,,0,155,155,32,1,,,,
,,,,,,162e1fe998e2c0360cc96b2b,66a626ef09d4e21e1a8894ec,6734d68dd830863667c73a7b,2024-11-13_11h16.07.859,Tarea de género gramatical,2024.2.2,Win32,119.047619,,,,,,,,,,,,,,,,,,,,,,,846.0433,847.2729,l,1,0.5694,,[],[],[],[],[],[],[],0.5694,1,847.2731,847.7802,,,,,,468,MAS,AGR,150,tren,el,l,847.7802,847.7803,-0.162962949,-0.076851845,0,0,0,,0,156,156,17,1,,,,
,,,,,,162e1fe998e2c0360cc96b2b,66a626ef09d4e21e1a8894ec,6734d68dd830863667c73a7b,2024-11-13_11h16.07.859,Tarea de género gramatical,2024.2.2,Win32,119.047619,,,,,,,,,,,,,,,,,,,,,,,847.7808,849.078,a,1,0.6327,,[],[],[],[],[],[],[],0.6327,1,849.0781,849.5773,,,,,,662,FEM,DIS,150,cinta,el,a,849.5773,849.5773,-0.162962949,-0.076851845,0,0,0,,0,157,157,211,1,,,,
,,,,,,162e1fe998e2c0360cc96b2b,66a626ef09d4e21e1a8894ec,6734d68dd830863667c73a7b,2024-11-13_11h16.07.859,Tarea de género gramatical,2024.2.2,Win32,119.047619,,,,,,,,,,,,,,,,,,,,,,,849.5779,850.8961,a,1,0.6536,,[],[],[],[],[],[],[],0.6536,1,850.8963,851.3905,,,,,,789,FEM,AGR,150,salida,la,a,851.3905,851.3906,-0.162962949,-0.076851845,0,0,0,,0,158,158,338,1,,,,
,,,,,,162e1fe998e2c0360cc96b2b,66a626ef09d4e21e1a8894ec,6734d68dd830863667c73a7b,2024-11-13_11h16.07.859,Tarea de género gramatical,2024.2.2,Win32,119.047619,,,,,,,,,,,,,,,,,,,,,,,851.3912,852.93,a,1,0.878,,[],[],[],[],[],[],[],0.878,1,852.9301,853.4244,,,,,,705,FEM,AGR,150,tribu,la,a,853.4255,853.426,-0.162962949,-0.076851845,0,0,0,,0,159,159,254,1,,,,
,,,,,,162e1fe998e2c0360cc96b2b,66a626ef09d4e21e1a8894ec,6734d68dd830863667c73a7b,2024-11-13_11h16.07.859,Tarea de género gramatical,2024.2.2,Win32,119.047619,,,,,,,,,,,,,,,,,,,,,,,853.4265,854.9208,l,1,0.8279,,[],[],[],[],[],[],[],0.8279,1,854.921,855.4204,,,,,,827,MAS,DIS,150,jardín,la,l,855.4204,855.4206,-0.162962949,-0.076851845,0,0,0,,0,160,160,376,1,,,,
,,,,,,162e1fe998e2c0360cc96b2b,66a626ef09d4e21e1a8894ec,6734d68dd830863667c73a7b,2024-11-13_11h16.07.859,Tarea de género gramatical,2024.2.2,Win32,119.047619,,,,,,,,,,,,,,,,,,,,,,,855.4218,856.5817,l,1,0.5031,,[],[],[],[],[],[],[],0.5031,1,856.5819,857.0762,,,,,,508,MAS,CON,150,mono,,l,857.0764,857.0765,-0.162962949,-0.076851845,0,0,0,,0,161,161,57,1,,,,
,,,,,,162e1fe998e2c0360cc96b2b,66a626ef09d4e21e1a8894ec,6734d68dd830863667c73a7b,2024-11-13_11h16.07.859,Tarea de género gramatical,2024.2.2,Win32,119.047619,,,,,,,,,,,,,,,,,,,,,,,857.0778,858.3933,l,1,0.654,,[],[],[],[],[],[],[],0.654,1,858.3933,858.8951,,,,,,900,MAS,AGR,150,conejo,el,l,858.8951,858.8951,-0.162962949,-0.076851845,0,0,0,,0,162,162,449,1,,,,
,,,,,,162e1fe998e2c0360cc96b2b,66a626ef09d4e21e1a8894ec,6734d68dd830863667c73a7b,2024-11-13_11h16.07.859,Tarea de género gramatical,2024.2.2,Win32,119.047619,,,,,,,,,,,,,,,,,,,,,,,858.8958,860.4165,a,1,0.8575,,[],[],[],[],[],[],[],0.8575,1,860.4166,860.9143,,,,,,577,FEM,CON,150,cuna,,a,860.9144,860.9144,-0.162962949,-0.076851845,0,0,0,,0,163,163,126,1,,,,
,,,,,,162e1fe998e2c0360cc96b2b,66a626ef09d4e21e1a8894ec,6734d68dd830863667c73a7b,2024-11-13_11h16.07.859,Tarea de género gramatical,2024.2.2,Win32,119.047619,,,,,,,,,,,,,,,,,,,,,,,860.915,862.7377,l,1,1.1653,,[],[],[],[],[],[],[],1.1653,1,862.7378,863.2367,,,,,,792,MAS,AGR,150,abuelo,el,l,863.2374,863.2379,-0.162962949,-0.076851845,0,0,0,,0,164,164,341,1,,,,
,,,,,,162e1fe998e2c0360cc96b2b,66a626ef09d4e21e1a8894ec,6734d68dd830863667c73a7b,2024-11-13_11h16.07.859,Tarea de género gramatical,2024.2.2,Win32,119.047619,,,,,,,,,,,,,,,,,,,,,,,863.2383,864.8174,a,1,0.9153,,[],[],[],[],[],[],[],0.9153,1,864.8175,865.3116,,,,,,854,FEM,DIS,150,gloria,el,a,865.3118,865.312,-0.162962949,-0.076851845,0,0,0,,0,165,165,403,1,,,,
,,,,,,162e1fe998e2c0360cc96b2b,66a626ef09d4e21e1a8894ec,6734d68dd830863667c73a7b,2024-11-13_11h16.07.859,Tarea de género gramatical,2024.2.2,Win32,119.047619,,,,,,,,,,,,,,,,,,,,,,,865.3133,866.8919,l,1,0.9104,,[],[],[],[],[],[],[],0.9104,1,866.8922,867.3906,,,,,,562,MAS,CON,150,reto,,l,867.3906,867.3908,-0.162962949,-0.076851845,0,0,0,,0,166,166,111,1,,,,
,,,,,,162e1fe998e2c0360cc96b2b,66a626ef09d4e21e1a8894ec,6734d68dd830863667c73a7b,2024-11-13_11h16.07.859,Tarea de género gramatical,2024.2.2,Win32,119.047619,,,,,,,,,,,,,,,,,,,,,,,867.3923,869.0155,l,1,0.962,,[],[],[],[],[],[],[],0.962,1,869.0157,869.5143,,,,,,612,MAS,AGR,150,miedo,el,l,869.5145,869.5146,-0.162962949,-0.076851845,0,0,0,,0,167,167,161,1,,,,
,,,,,,162e1fe998e2c0360cc96b2b,66a626ef09d4e21e1a8894ec,6734d68dd830863667c73a7b,2024-11-13_11h16.07.859,Tarea de género gramatical,2024.2.2,Win32,119.047619,,,,,,,,,,,,,,,,,,,,,,,869.5159,872.1625,,0,,,[],[],[],[],[],[],[],0.962,-1,872.163,872.6571,,,,,,525,FEM,AGR,150,caza,la,a,872.6584,872.6588,-0.162962949,-0.076851845,0,0,0,,0,168,168,74,1,,,,
,,,,,,162e1fe998e2c0360cc96b2b,66a626ef09d4e21e1a8894ec,6734d68dd830863667c73a7b,2024-11-13_11h16.07.859,Tarea de género gramatical,2024.2.2,Win32,119.047619,,,,,,,,,,,,,,,,,,,,,,,872.6593,874.0846,a,1,0.7582,,[],[],[],[],[],[],[],0.7582,1,874.0851,874.5915,,,,,,771,FEM,AGR,150,comida,la,a,874.5915,874.5916,-0.162962949,-0.076851845,0,0,0,,0,169,169,320,1,,,,
,,,,,,162e1fe998e2c0360cc96b2b,66a626ef09d4e21e1a8894ec,6734d68dd830863667c73a7b,2024-11-13_11h16.07.859,Tarea de género gramatical,2024.2.2,Win32,119.047619,,,,,,,,,,,,,,,,,,,,,,,874.5923,876.2634,l,1,1.007,,[],[],[],[],[],[],[],1.007,1,876.2635,876.7601,,,,,,503,MAS,DIS,150,vaso,la,l,876.7602,876.7604,-0.162962949,-0.076851845,0,0,0,,0,170,170,52,1,,,,
,,,,,,162e1fe998e2c0360cc96b2b,66a626ef09d4e21e1a8894ec,6734d68dd830863667c73a7b,2024-11-13_11h16.07.859,Tarea de género gramatical,2024.2.2,Win32,119.047619,,,,,,,,,,,,,,,,,,,,,,,876.7615,878.413,l,1,0.9885,,[],[],[],[],[],[],[],0.9885,1,878.4132,878.9082,,,,,,563,MAS,DIS,150,toro,la,l,878.9082,878.9082,-0.162962949,-0.076851845,0,0,0,,0,171,171,112,1,,,,
,,,,,,162e1fe998e2c0360cc96b2b,66a626ef09d4e21e1a8894ec,6734d68dd830863667c73a7b,2024-11-13_11h16.07.859,Tarea de género gramatical,2024.2.2,Win32,119.047619,,,,,,,,,,,,,,,,,,,,,,,878.9089,880.3185,a,1,0.7444,,[],[],[],[],[],[],[],0.7444,1,880.3187,880.8133,,,,,,584,FEM,DIS,150,rama,el,a,880.8134,880.8134,-0.162962949,-0.076851845,0,0,0,,0,172,172,133,1,,,,
,,,,,,162e1fe998e2c0360cc96b2b,66a626ef09d4e21e1a8894ec,6734d68dd830863667c73a7b,2024-11-13_11h16.07.859,Tarea de género gramatical,2024.2.2,Win32,119.047619,,,,,,,,,,,,,,,,,,,,,,,880.814,882.283,a,1,0.8038,,[],[],[],[],[],[],[],0.8038,1,882.2832,882.7804,,,,,,451,FEM,CON,150,casa,,a,882.7817,882.782,-0.162962949,-0.076851845,0,0,0,,0,173,173,0,1,,,,
,,,,,,162e1fe998e2c0360cc96b2b,66a626ef09d4e21e1a8894ec,6734d68dd830863667c73a7b,2024-11-13_11h16.07.859,Tarea de género gramatical,2024.2.2,Win32,119.047619,,,,,,,,,,,,,,,,,,,,,,,882.7826,884.0364,l,1,0.5922,,[],[],[],[],[],[],[],0.5922,1,884.0366,884.5321,,,,,,587,MAS,DIS,150,coco,la,l,884.5322,884.5323,-0.162962949,-0.076851845,0,0,0,,0,174,174,136,1,,,,
,,,,,,162e1fe998e2c0360cc96b2b,66a626ef09d4e21e1a8894ec,6734d68dd830863667c73a7b,2024-11-13_11h16.07.859,Tarea de género gramatical,2024.2.2,Win32,119.047619,,,,,,,,,,,,,,,,,,,,,,,884.5329,886.035,a,1,0.8393,,[],[],[],[],[],[],[],0.8393,1,886.0352,886.5367,,,,,,751,FEM,CON,150,verdad,,a,886.5367,886.5368,-0.162962949,-0.076851845,0,0,0,,0,175,175,300,1,,,,
,,,,,,162e1fe998e2c0360cc96b2b,66a626ef09d4e21e1a8894ec,6734d68dd830863667c73a7b,2024-11-13_11h16.07.859,Tarea de género gramatical,2024.2.2,Win32,119.047619,,,,,,,,,,,,,,,,,,,,,,,886.5375,887.9719,a,1,0.7745,,[],[],[],[],[],[],[],0.7745,1,887.9721,888.4702,,,,,,657,FEM,AGR,150,playa,la,a,888.4704,888.4705,-0.162962949,-0.076851845,0,0,0,,0,176,176,206,1,,,,
,,,,,,162e1fe998e2c0360cc96b2b,66a626ef09d4e21e1a8894ec,6734d68dd830863667c73a7b,2024-11-13_11h16.07.859,Tarea de género gramatical,2024.2.2,Win32,119.047619,,,,,,,,,,,,,,,,,,,,,,,888.4718,890.089,a,1,0.9599,,[],[],[],[],[],[],[],0.9599,1,890.0891,890.5963,,,,,,752,FEM,DIS,150,cabeza,el,a,890.5969,890.5973,-0.162962949,-0.076851845,0,0,0,,0,177,177,301,1,,,,
,,,,,,162e1fe998e2c0360cc96b2b,66a626ef09d4e21e1a8894ec,6734d68dd830863667c73a7b,2024-11-13_11h16.07.859,Tarea de género gramatical,2024.2.2,Win32,119.047619,,,,,,,,,,,,,,,,,,,,,,,890.5977,891.9254,a,1,0.6633,,[],[],[],[],[],[],[],0.6633,1,891.9256,892.4209,,,,,,715,FEM,CON,150,rueda,,a,892.421,892.421,-0.162962949,-0.076851845,0,0,0,,0,178,178,264,1,,,,
,,,,,,162e1fe998e2c0360cc96b2b,66a626ef09d4e21e1a8894ec,6734d68dd830863667c73a7b,2024-11-13_11h16.07.859,Tarea de género gramatical,2024.2.2,Win32,119.047619,,,,,,,,,,,,,,,,,,,,,,,892.4219,893.6436,l,1,0.5586,,[],[],[],[],[],[],[],0.5586,1,893.6437,894.1431,,,,,,762,MAS,AGR,150,equipo,el,l,894.1431,894.1432,-0.162962949,-0.076851845,0,0,0,,0,179,179,311,1,,,,
,,,,,,162e1fe998e2c0360cc96b2b,66a626ef09d4e21e1a8894ec,6734d68dd830863667c73a7b,2024-11-13_11h16.07.859,Tarea de género gramatical,2024.2.2,Win32,119.047619,,,,,,,,,,,,,,,,,,,,,,,894.1438,895.266,l,1,0.4583,,[],[],[],[],[],[],[],0.4583,1,895.266,895.765,,,,,,750,MAS,AGR,150,túnel,el,l,895.765,895.7651,-0.162962949,-0.076851845,0,0,0,,0,180,180,299,1,,,,
,,,,,,162e1fe998e2c0360cc96b2b,66a626ef09d4e21e1a8894ec,6734d68dd830863667c73a7b,2024-11-13_11h16.07.859,Tarea de género gramatical,2024.2.2,Win32,119.047619,,,,,,,,,,,,,,,,,,,,,,,895.7656,897.3788,a,1,0.9493,,[],[],[],[],[],[],[],0.9493,1,897.3789,897.8782,,,,,,866,FEM,DIS,150,colina,el,a,897.8782,897.8782,-0.162962949,-0.076851845,0,0,0,,0,181,181,415,1,,,,
,,,,,,162e1fe998e2c0360cc96b2b,66a626ef09d4e21e1a8894ec,6734d68dd830863667c73a7b,2024-11-13_11h16.07.859,Tarea de género gramatical,2024.2.2,Win32,119.047619,,,,,,,,,,,,,,,,,,,,,,,897.879,899.1672,l,1,0.6245,,[],[],[],[],[],[],[],0.6245,1,899.1672,899.6665,,,,,,480,MAS,AGR,150,cine,el,l,899.6672,899.6679,-0.162962949,-0.076851845,0,0,0,,0,182,182,29,1,,,,
,,,,,,162e1fe998e2c0360cc96b2b,66a626ef09d4e21e1a8894ec,6734d68dd830863667c73a7b,2024-11-13_11h16.07.859,Tarea de género gramatical,2024.2.2,Win32,119.047619,,,,,,,,,,,,,,,,,,,,,,,899.6688,900.8228,l,1,0.4926,,[],[],[],[],[],[],[],0.4926,1,900.8228,901.3217,,,,,,664,MAS,CON,150,fondo,,l,901.3217,901.3218,-0.162962949,-0.076851845,0,0,0,,0,183,183,213,1,,,,
,,,,,,162e1fe998e2c0360cc96b2b,66a626ef09d4e21e1a8894ec,6734d68dd830863667c73a7b,2024-11-13_11h16.07.859,Tarea de género gramatical,2024.2.2,Win32,119.047619,,,,,,,,,,,,,,,,,,,,,,,901.3224,903.9671,,0,,,[],[],[],[],[],[],[],0.4926,-1,903.9676,904.4662,,,,,,693,FEM,AGR,150,salsa,la,a,904.4664,904.4664,-0.162962949,-0.076851845,0,0,0,,0,184,184,242,1,,,,
,,,,,,162e1fe998e2c0360cc96b2b,66a626ef09d4e21e1a8894ec,6734d68dd830863667c73a7b,2024-11-13_11h16.07.859,Tarea de género gramatical,2024.2.2,Win32,119.047619,,,,,,,,,,,,,,,,,,,,,,,904.467,905.7558,l,1,0.6246,,[],[],[],[],[],[],[],0.6246,1,905.7562,906.2549,,,,,,618,MAS,AGR,150,sitio,el,l,906.2549,906.255,-0.162962949,-0.076851845,0,0,0,,0,185,185,167,1,,,,
,,,,,,162e1fe998e2c0360cc96b2b,66a626ef09d4e21e1a8894ec,6734d68dd830863667c73a7b,2024-11-13_11h16.07.859,Tarea de género gramatical,2024.2.2,Win32,119.047619,,,,,,,,,,,,,,,,,,,,,,,906.2563,907.8186,l,1,0.898,,[],[],[],[],[],[],[],0.898,1,907.8186,908.3175,,,,,,767,MAS,DIS,150,número,la,l,908.3181,908.3189,-0.162962949,-0.076851845,0,0,0,,0,186,186,316,1,,,,
,,,,,,162e1fe998e2c0360cc96b2b,66a626ef09d4e21e1a8894ec,6734d68dd830863667c73a7b,2024-11-13_11h16.07.859,Tarea de género gramatical,2024.2.2,Win32,119.047619,,,,,,,,,,,,,,,,,,,,,,,908.3196,909.449,l,1,0.4676,,[],[],[],[],[],[],[],0.4676,1,909.4491,909.9482,,,,,,647,MAS,DIS,150,avión,la,l,909.9483,909.9484,-0.162962949,-0.076851845,0,0,0,,0,187,187,196,1,,,,
,,,,,,162e1fe998e2c0360cc96b2b,66a626ef09d4e21e1a8894ec,6734d68dd830863667c73a7b,2024-11-13_11h16.07.859,Tarea de género gramatical,2024.2.2,Win32,119.047619,,,,,,,,,,,,,,,,,,,,,,,909.9498,911.4205,a,1,0.8077,,[],[],[],[],[],[],[],0.8077,1,911.4206,911.9198,,,,,,699,FEM,AGR,150,crema,la,a,911.9198,911.9199,-0.162962949,-0.076851845,0,0,0,,0,188,188,248,1,,,,
,,,,,,162e1fe998e2c0360cc96b2b,66a626ef09d4e21e1a8894ec,6734d68dd830863667c73a7b,2024-11-13_11h16.07.859,Tarea de género gramatical,2024.2.2,Win32,119.047619,,,,,,,,,,,,,,,,,,,,,,,911.9205,913.1755,l,1,0.5899,,[],[],[],[],[],[],[],0.5899,1,913.1757,913.675,,,,,,869,MAS,DIS,150,cuento,la,l,913.675,913.6752,-0.162962949,-0.076851845,0,0,0,,0,189,189,418,1,,,,
,,,,,,162e1fe998e2c0360cc96b2b,66a626ef09d4e21e1a8894ec,6734d68dd830863667c73a7b,2024-11-13_11h16.07.859,Tarea de género gramatical,2024.2.2,Win32,119.047619,,,,,,,,,,,,,,,,,,,,,,,913.6768,914.9559,l,1,0.6168,,[],[],[],[],[],[],[],0.6168,1,914.9559,915.4552,,,,,,816,MAS,AGR,150,riesgo,el,l,915.4552,915.4553,-0.162962949,-0.076851845,0,0,0,,0,190,190,365,1,,,,
,,,,,,162e1fe998e2c0360cc96b2b,66a626ef09d4e21e1a8894ec,6734d68dd830863667c73a7b,2024-11-13_11h16.07.859,Tarea de género gramatical,2024.2.2,Win32,119.047619,,,,,,,,,,,,,,,,,,,,,,,915.4559,916.9024,l,1,0.7826,,[],[],[],[],[],[],[],0.7826,1,916.9024,917.4017,,,,,,851,MAS,DIS,150,abrigo,la,l,917.4023,917.4032,-0.162962949,-0.076851845,0,0,0,,0,191,191,400,1,,,,
,,,,,,162e1fe998e2c0360cc96b2b,66a626ef09d4e21e1a8894ec,6734d68dd830863667c73a7b,2024-11-13_11h16.07.859,Tarea de género gramatical,2024.2.2,Win32,119.047619,,,,,,,,,,,,,,,,,,,,,,,917.4041,918.949,a,1,0.8821,,[],[],[],[],[],[],[],0.8821,1,918.9491,919.4478,,,,,,813,FEM,AGR,150,unidad,la,a,919.4479,919.4479,-0.162962949,-0.076851845,0,0,0,,0,192,192,362,1,,,,
,,,,,,162e1fe998e2c0360cc96b2b,66a626ef09d4e21e1a8894ec,6734d68dd830863667c73a7b,2024-11-13_11h16.07.859,Tarea de género gramatical,2024.2.2,Win32,119.047619,,,,,,,,,,,,,,,,,,,,,,,919.4485,920.9372,a,1,0.8251,,[],[],[],[],[],[],[],0.8251,1,920.9373,921.4364,,,,,,512,FEM,DIS,150,sopa,el,a,921.4364,921.4364,-0.162962949,-0.076851845,0,0,0,,0,193,193,61,1,,,,
,,,,,,162e1fe998e2c0360cc96b2b,66a626ef09d4e21e1a8894ec,6734d68dd830863667c73a7b,2024-11-13_11h16.07.859,Tarea de género gramatical,2024.2.2,Win32,119.047619,,,,,,,,,,,,,,,,,,,,,,,921.4375,922.8833,a,1,0.7828,,[],[],[],[],[],[],[],0.7828,1,922.8834,923.3825,,,,,,739,FEM,CON,150,tabla,,a,923.3826,923.3826,-0.162962949,-0.076851845,0,0,0,,0,194,194,288,1,,,,
,,,,,,162e1fe998e2c0360cc96b2b,66a626ef09d4e21e1a8894ec,6734d68dd830863667c73a7b,2024-11-13_11h16.07.859,Tarea de género gramatical,2024.2.2,Win32,119.047619,,,,,,,,,,,,,,,,,,,,,,,923.3833,924.7219,a,1,0.6735,,[],[],[],[],[],[],[],0.6735,1,924.7219,925.2211,,,,,,500,FEM,DIS,150,dama,el,a,925.222,925.2229,-0.162962949,-0.076851845,0,0,0,,0,195,195,49,1,,,,
,,,,,,162e1fe998e2c0360cc96b2b,66a626ef09d4e21e1a8894ec,6734d68dd830863667c73a7b,2024-11-13_11h16.07.859,Tarea de género gramatical,2024.2.2,Win32,119.047619,,,,,,,,,,,,,,,,,,,,,,,925.2238,926.7265,l,1,0.8408,,[],[],[],[],[],[],[],0.8408,1,926.7266,927.226,,,,,,522,MAS,AGR,150,hoyo,el,l,927.226,927.2261,-0.162962949,-0.076851845,0,0,0,,0,196,196,71,1,,,,
,,,,,,162e1fe998e2c0360cc96b2b,66a626ef09d4e21e1a8894ec,6734d68dd830863667c73a7b,2024-11-13_11h16.07.859,Tarea de género gramatical,2024.2.2,Win32,119.047619,,,,,,,,,,,,,,,,,,,,,,,927.2267,928.3573,l,1,0.4665,,[],[],[],[],[],[],[],0.4665,1,928.3574,928.8563,,,,,,676,MAS,CON,150,color,,l,928.8563,928.8563,-0.162962949,-0.076851845,0,0,0,,0,197,197,225,1,,,,
,,,,,,162e1fe998e2c0360cc96b2b,66a626ef09d4e21e1a8894ec,6734d68dd830863667c73a7b,2024-11-13_11h16.07.859,Tarea de género gramatical,2024.2.2,Win32,119.047619,,,,,,,,,,,,,,,,,,,,,,,928.8577,930.47,l,1,0.9488,,[],[],[],[],[],[],[],0.9488,1,930.4701,930.9693,,,,,,684,MAS,AGR,150,héroe,el,l,930.9693,930.9694,-0.162962949,-0.076851845,0,0,0,,0,198,198,233,1,,,,
,,,,,,162e1fe998e2c0360cc96b2b,66a626ef09d4e21e1a8894ec,6734d68dd830863667c73a7b,2024-11-13_11h16.07.859,Tarea de género gramatical,2024.2.2,Win32,119.047619,,,,,,,,,,,,,,,,,,,,,,,930.97,932.5914,l,1,0.9576,,[],[],[],[],[],[],[],0.9576,1,932.5915,933.0904,,,,,,659,MAS,DIS,150,banco,la,l,933.0905,933.0905,-0.162962949,-0.076851845,0,0,0,,0,199,199,208,1,,,,
,,,,,,162e1fe998e2c0360cc96b2b,66a626ef09d4e21e1a8894ec,6734d68dd830863667c73a7b,2024-11-13_11h16.07.859,Tarea de género gramatical,2024.2.2,Win32,119.047619,,,,,,,,,,,,,,,,,,,,,,,933.0911,934.7123,l,1,0.9583,,[],[],[],[],[],[],[],0.9583,1,934.7124,935.2116,,,,,,636,MAS,AGR,150,error,el,l,935.2127,935.2138,-0.162962949,-0.076851845,0,0,0,,0,200,200,185,1,,,,
,,,,,,162e1fe998e2c0360cc96b2b,66a626ef09d4e21e1a8894ec,6734d68dd830863667c73a7b,2024-11-13_11h16.07.859,Tarea de género gramatical,2024.2.2,Win32,119.047619,,,,,,,,,,,,,,,,,,,,,,,935.2147,936.8671,l,1,0.9916,,[],[],[],[],[],[],[],0.9916,1,936.8672,937.3665,,,,,,737,MAS,DIS,150,plato,la,l,937.3665,937.3665,-0.162962949,-0.076851845,0,0,0,,0,201,201,286,1,,,,
,,,,,,162e1fe998e2c0360cc96b2b,66a626ef09d4e21e1a8894ec,6734d68dd830863667c73a7b,2024-11-13_11h16.07.859,Tarea de género gramatical,2024.2.2,Win32,119.047619,,,,,,,,,,,,,,,,,,,,,,,937.3675,939.2629,a,1,1.233,,[],[],[],[],[],[],[],1.233,1,939.2629,939.7619,,,,,,499,FEM,CON,150,piel,,a,939.762,939.762,-0.162962949,-0.076851845,0,0,0,,0,202,202,48,1,,,,
,,,,,,162e1fe998e2c0360cc96b2b,66a626ef09d4e21e1a8894ec,6734d68dd830863667c73a7b,2024-11-13_11h16.07.859,Tarea de género gramatical,2024.2.2,Win32,119.047619,,,,,,,,,,,,,,,,,,,,,,,939.7627,941.4675,a,1,1.0404,,[],[],[],[],[],[],[],1.0404,1,941.4675,941.9666,,,,,,488,FEM,DIS,150,obra,el,a,941.9666,941.9667,-0.162962949,-0.076851845,0,0,0,,0,203,203,37,1,,,,
,,,,,,162e1fe998e2c0360cc96b2b,66a626ef09d4e21e1a8894ec,6734d68dd830863667c73a7b,2024-11-13_11h16.07.859,Tarea de género gramatical,2024.2.2,Win32,119.047619,,,,,,,,,,,,,,,,,,,,,,,941.9676,943.4434,l,1,0.814,,[],[],[],[],[],[],[],0.814,1,943.4435,943.9396,,,,,,785,MAS,DIS,150,montón,la,l,943.9411,943.9415,-0.162962949,-0.076851845,0,0,0,,0,204,204,334,1,,,,
,,,,,,162e1fe998e2c0360cc96b2b,66a626ef09d4e21e1a8894ec,6734d68dd830863667c73a7b,2024-11-13_11h16.07.859,Tarea de género gramatical,2024.2.2,Win32,119.047619,,,,,,,,,,,,,,,,,,,,,,,943.9418,945.4304,l,1,0.8214,,[],[],[],[],[],[],[],0.8214,1,945.4307,945.9266,,,,,,689,MAS,DIS,150,reloj,la,l,945.9268,945.9269,-0.162962949,-0.076851845,0,0,0,,0,205,205,238,1,,,,
,,,,,,162e1fe998e2c0360cc96b2b,66a626ef09d4e21e1a8894ec,6734d68dd830863667c73a7b,2024-11-13_11h16.07.859,Tarea de género gramatical,2024.2.2,Win32,119.047619,,,,,,,,,,,,,,,,,,,,,,,945.9283,947.7898,a,1,1.2008,,[],[],[],[],[],[],[],1.2008,1,947.7901,948.2853,,,,,,477,FEM,AGR,150,mesa,la,a,948.2854,948.2855,-0.162962949,-0.076851845,0,0,0,,0,206,206,26,1,,,,
,,,,,,162e1fe998e2c0360cc96b2b,66a626ef09d4e21e1a8894ec,6734d68dd830863667c73a7b,2024-11-13_11h16.07.859,Tarea de género gramatical,2024.2.2,Win32,119.047619,,,,,,,,,,,,,,,,,,,,,,,948.286,949.9778,a,1,1.0287,,[],[],[],[],[],[],[],1.0287,1,949.978,950.4816,,,,,,668,FEM,DIS,150,nieve,el,a,950.4816,950.4817,-0.162962949,-0.076851845,0,0,0,,0,207,207,217,1,,,,
,,,,,,162e1fe998e2c0360cc96b2b,66a626ef09d4e21e1a8894ec,6734d68dd830863667c73a7b,2024-11-13_11h16.07.859,Tarea de género gramatical,2024.2.2,Win32,119.047619,,,,,,,,,,,,,,,,,,,,,,,950.4823,952.1779,l,1,1.0342,,[],[],[],[],[],[],[],1.0342,1,952.178,952.6737,,,,,,719,MAS,DIS,150,primo,la,l,952.6739,952.6741,-0.162962949,-0.076851845,0,0,0,,0,208,208,268,1,,,,
,,,,,,162e1fe998e2c0360cc96b2b,66a626ef09d4e21e1a8894ec,6734d68dd830863667c73a7b,2024-11-13_11h16.07.859,Tarea de género gramatical,2024.2.2,Win32,119.047619,,,,,,,,,,,,,,,,,,,,,,,952.6754,954.1839,a,1,0.8525,,[],[],[],[],[],[],[],0.8525,1,954.184,954.6799,,,,,,632,FEM,DIS,150,prisa,el,a,954.6814,954.6819,-0.162962949,-0.076851845,0,0,0,,0,209,209,181,1,,,,
,,,,,,162e1fe998e2c0360cc96b2b,66a626ef09d4e21e1a8894ec,6734d68dd830863667c73a7b,2024-11-13_11h16.07.859,Tarea de género gramatical,2024.2.2,Win32,119.047619,,,,,,,,,,,,,,,,,,,,,,,954.6822,956.2617,a,1,0.9165,,[],[],[],[],[],[],[],0.9165,1,956.262,956.7601,,,,,,794,FEM,DIS,150,pareja,el,a,956.7602,956.7604,-0.162962949,-0.076851845,0,0,0,,0,210,210,343,1,,,,
,,,,,,162e1fe998e2c0360cc96b2b,66a626ef09d4e21e1a8894ec,6734d68dd830863667c73a7b,2024-11-13_11h16.07.859,Tarea de género gramatical,2024.2.2,Win32,119.047619,,,,,,,,,,,,,,,,,,,,,,,956.7617,958.1892,a,1,0.7698,,[],[],[],[],[],[],[],0.7698,1,958.1893,958.6873,,,,,,679,FEM,CON,150,celda,,a,958.6875,958.6876,-0.162962949,-0.076851845,0,0,0,,0,211,211,228,1,,,,
,,,,,,162e1fe998e2c0360cc96b2b,66a626ef09d4e21e1a8894ec,6734d68dd830863667c73a7b,2024-11-13_11h16.07.859,Tarea de género gramatical,2024.2.2,Win32,119.047619,,,,,,,,,,,,,,,,,,,,,,,958.6891,960.1544,a,1,0.8002,,[],[],[],[],[],[],[],0.8002,1,960.1546,960.6552,,,,,,873,FEM,AGR,150,poesía,la,a,960.6552,960.6553,-0.162962949,-0.076851845,0,0,0,,0,212,212,422,1,,,,
,,,,,,162e1fe998e2c0360cc96b2b,66a626ef09d4e21e1a8894ec,6734d68dd830863667c73a7b,2024-11-13_11h16.07.859,Tarea de género gramatical,2024.2.2,Win32,119.047619,,,,,,,,,,,,,,,,,,,,,,,960.6559,961.9283,a,1,0.6135,,[],[],[],[],[],[],[],0.6135,1,961.9284,962.4237,,,,,,673,FEM,CON,150,plata,,a,962.4252,962.4256,-0.162962949,-0.076851845,0,0,0,,0,213,213,222,1,,,,
,,,,,,162e1fe998e2c0360cc96b2b,66a626ef09d4e21e1a8894ec,6734d68dd830863667c73a7b,2024-11-13_11h16.07.859,Tarea de género gramatical,2024.2.2,Win32,119.047619,,,,,,,,,,,,,,,,,,,,,,,962.426,963.6916,a,1,0.6023,,[],[],[],[],[],[],[],0.6023,1,963.6917,964.189,,,,,,735,FEM,AGR,150,mafia,la,a,964.1891,964.1893,-0.162962949,-0.076851845,0,0,0,,0,214,214,284,1,,,,
,,,,,,162e1fe998e2c0360cc96b2b,66a626ef09d4e21e1a8894ec,6734d68dd830863667c73a7b,2024-11-13_11h16.07.859,Tarea de género gramatical,2024.2.2,Win32,119.047619,,,,,,,,,,,,,,,,,,,,,,,964.1904,965.3583,a,1,0.5018,,[],[],[],[],[],[],[],0.5018,1,965.3585,965.8628,,,,,,613,FEM,CON,150,calle,,a,965.8629,965.8629,-0.162962949,-0.076851845,0,0,0,,0,215,215,162,1,,,,
,,,,,,162e1fe998e2c0360cc96b2b,66a626ef09d4e21e1a8894ec,6734d68dd830863667c73a7b,2024-11-13_11h16.07.859,Tarea de género gramatical,2024.2.2,Win32,119.047619,,,,,,,,,,,,,,,,,,,,,,,965.8635,967.3851,l,1,0.8622,,[],[],[],[],[],[],[],0.8622,1,967.3851,967.8877,,,,,,534,MAS,AGR,150,mago,el,l,967.8879,967.888,-0.162962949,-0.076851845,0,0,0,,0,216,216,83,1,,,,
,,,,,,162e1fe998e2c0360cc96b2b,66a626ef09d4e21e1a8894ec,6734d68dd830863667c73a7b,2024-11-13_11h16.07.859,Tarea de género gramatical,2024.2.2,Win32,119.047619,,,,,,,,,,,,,,,,,,,,,,,967.8893,969.5692,l,1,1.0112,,[],[],[],[],[],[],[],1.0112,1,969.5693,970.0708,,,,,,540,MAS,AGR,150,león,el,l,970.0708,970.0709,-0.162962949,-0.076851845,0,0,0,,0,217,217,89,1,,,,
,,,,,,162e1fe998e2c0360cc96b2b,66a626ef09d4e21e1a8894ec,6734d68dd830863667c73a7b,2024-11-13_11h16.07.859,Tarea de género gramatical,2024.2.2,Win32,119.047619,,,,,,,,,,,,,,,,,,,,,,,970.0715,971.4444,l,1,0.7084,,[],[],[],[],[],[],[],0.7084,1,971.4446,971.9433,,,,,,875,MAS,DIS,150,chiste,la,l,971.9439,971.9444,-0.162962949,-0.076851845,0,0,0,,0,218,218,424,1,,,,
,,,,,,162e1fe998e2c0360cc96b2b,66a626ef09d4e21e1a8894ec,6734d68dd830863667c73a7b,2024-11-13_11h16.07.859,Tarea de género gramatical,2024.2.2,Win32,119.047619,,,,,,,,,,,,,,,,,,,,,,,971.9448,973.6271,l,1,1.017,,[],[],[],[],[],[],[],1.017,1,973.6274,974.1265,,,,,,743,MAS,DIS,150,patio,la,l,974.1266,974.1267,-0.162962949,-0.076851845,0,0,0,,0,219,219,292,1,,,,
,,,,,,162e1fe998e2c0360cc96b2b,66a626ef09d4e21e1a8894ec,6734d68dd830863667c73a7b,2024-11-13_11h16.07.859,Tarea de género gramatical,2024.2.2,Win32,119.047619,,,,,,,,,,,,,,,,,,,,,,,974.1281,975.3328,l,1,0.5439,,[],[],[],[],[],[],[],0.5439,1,975.3329,975.8315,,,,,,778,MAS,CON,150,asunto,,l,975.8317,975.8319,-0.162962949,-0.076851845,0,0,0,,0,220,220,327,1,,,,
,,,,,,162e1fe998e2c0360cc96b2b,66a626ef09d4e21e1a8894ec,6734d68dd830863667c73a7b,2024-11-13_11h16.07.859,Tarea de género gramatical,2024.2.2,Win32,119.047619,,,,,,,,,,,,,,,,,,,,,,,975.8334,977.2262,l,1,0.7363,,[],[],[],[],[],[],[],0.7363,1,977.2263,977.7216,,,,,,888,MAS,AGR,150,tanque,el,l,977.7217,977.7219,-0.162962949,-0.076851845,0,0,0,,0,221,221,437,1,,,,
,,,,,,162e1fe998e2c0360cc96b2b,66a626ef09d4e21e1a8894ec,6734d68dd830863667c73a7b,2024-11-13_11h16.07.859,Tarea de género gramatical,2024.2.2,Win32,119.047619,,,,,,,,,,,,,,,,,,,,,,,977.7234,979.2721,a,1,0.8911,,[],[],[],[],[],[],[],0.8911,1,979.2722,979.7715,,,,,,661,FEM,CON,150,salud,,a,979.7722,979.7726,-0.162962949,-0.076851845,0,0,0,,0,222,222,210,1,,,,
,,,,,,162e1fe998e2c0360cc96b2b,66a626ef09d4e21e1a8894ec,6734d68dd830863667c73a7b,2024-11-13_11h16.07.859,Tarea de género gramatical,2024.2.2,Win32,119.047619,,,,,,,,,,,,,,,,,,,,,,,979.7729,981.3352,a,1,0.8996,,[],[],[],[],[],[],[],0.8996,1,981.3353,981.8333,,,,,,463,FEM,CON,150,hija,,a,981.8334,981.8334,-0.162962949,-0.076851845,0,0,0,,0,223,223,12,1,,,,
,,,,,,162e1fe998e2c0360cc96b2b,66a626ef09d4e21e1a8894ec,6734d68dd830863667c73a7b,2024-11-13_11h16.07.859,Tarea de género gramatical,2024.2.2,Win32,119.047619,,,,,,,,,,,,,,,,,,,,,,,981.8341,983.3984,a,1,0.903,,[],[],[],[],[],[],[],0.903,1,983.3986,983.9003,,,,,,855,FEM,AGR,150,parada,la,a,983.9004,983.9005,-0.162962949,-0.076851845,0,0,0,,0,224,224,404,1,,,,
,,,,,,162e1fe998e2c0360cc96b2b,66a626ef09d4e21e1a8894ec,6734d68dd830863667c73a7b,2024-11-13_11h16.07.859,Tarea de género gramatical,2024.2.2,Win32,119.047619,,,,,,,,,,,,,,,,,,,,,,,983.9016,985.6056,l,1,1.0405,,[],[],[],[],[],[],[],1.0405,1,985.6056,986.1049,,,,,,551,MAS,DIS,150,giro,la,l,986.1049,986.1049,-0.162962949,-0.076851845,0,0,0,,0,225,225,100,1,,,,
,,,,,,162e1fe998e2c0360cc96b2b,66a626ef09d4e21e1a8894ec,6734d68dd830863667c73a7b,2024-11-13_11h16.07.859,Tarea de género gramatical,2024.2.2,Win32,119.047619,,,,,,,,,,,,,,,,,,,,,,,986.1054,987.5356,a,1,0.7665,,[],[],[],[],[],[],[],0.7665,1,987.5358,988.0345,,,,,,579,FEM,AGR,150,rana,la,a,988.0346,988.0347,-0.162962949,-0.076851845,0,0,0,,0,226,226,128,1,,,,
,,,,,,162e1fe998e2c0360cc96b2b,66a626ef09d4e21e1a8894ec,6734d68dd830863667c73a7b,2024-11-13_11h16.07.859,Tarea de género gramatical,2024.2.2,Win32,119.047619,,,,,,,,,,,,,,,,,,,,,,,988.0355,989.4652,l,1,0.7659,,[],[],[],[],[],[],[],0.7659,1,989.4652,989.9649,,,,,,462,MAS,AGR,150,plan,el,l,989.9667,989.9678,-0.162962949,-0.076851845,0,0,0,,0,227,227,11,1,,,,
,,,,,,162e1fe998e2c0360cc96b2b,66a626ef09d4e21e1a8894ec,6734d68dd830863667c73a7b,2024-11-13_11h16.07.859,Tarea de género gramatical,2024.2.2,Win32,119.047619,,,,,,,,,,,,,,,,,,,,,,,989.9684,991.6782,a,1,1.0488,,[],[],[],[],[],[],[],1.0488,1,991.6782,992.1769,,,,,,548,FEM,DIS,150,fuga,el,a,992.177,992.1771,-0.162962949,-0.076851845,0,0,0,,0,228,228,97,1,,,,
,,,,,,162e1fe998e2c0360cc96b2b,66a626ef09d4e21e1a8894ec,6734d68dd830863667c73a7b,2024-11-13_11h16.07.859,Tarea de género gramatical,2024.2.2,Win32,119.047619,,,,,,,,,,,,,,,,,,,,,,,992.1776,993.4829,l,1,0.6429,,[],[],[],[],[],[],[],0.6429,1,993.4831,993.9822,,,,,,672,MAS,AGR,150,valor,el,l,993.9823,993.9823,-0.162962949,-0.076851845,0,0,0,,0,229,229,221,1,,,,
,,,,,,162e1fe998e2c0360cc96b2b,66a626ef09d4e21e1a8894ec,6734d68dd830863667c73a7b,2024-11-13_11h16.07.859,Tarea de género gramatical,2024.2.2,Win32,119.047619,,,,,,,,,,,,,,,,,,,,,,,993.9832,995.8708,a,1,1.2233,,[],[],[],[],[],[],[],1.2233,1,995.8709,996.3696,,,,,,543,FEM,AGR,150,lata,la,a,996.3696,996.3697,-0.162962949,-0.076851845,0,0,0,,0,230,230,92,1,,,,
,,,,,,162e1fe998e2c0360cc96b2b,66a626ef09d4e21e1a8894ec,6734d68dd830863667c73a7b,2024-11-13_11h16.07.859,Tarea de género gramatical,2024.2.2,Win32,119.047619,,,,,,,,,,,,,,,,,,,,,,,996.3704,997.7508,a,1,0.7164,,[],[],[],[],[],[],[],0.7164,1,997.7509,998.2499,,,,,,663,FEM,AGR,150,magia,la,a,998.2512,998.2521,-0.162962949,-0.076851845,0,0,0,,0,231,231,212,1,,,,
,,,,,,162e1fe998e2c0360cc96b2b,66a626ef09d4e21e1a8894ec,6734d68dd830863667c73a7b,2024-11-13_11h16.07.859,Tarea de género gramatical,2024.2.2,Win32,119.047619,,,,,,,,,,,,,,,,,,,,,,,998.2528,999.7144,a,1,0.8004,,[],[],[],[],[],[],[],0.8004,1,999.7144,1000.213,,,,,,470,FEM,DIS,150,ropa,el,a,1000.2131,1000.2131,-0.162962949,-0.076851845,0,0,0,,0,232,232,19,1,,,,
,,,,,,162e1fe998e2c0360cc96b2b,66a626ef09d4e21e1a8894ec,6734d68dd830863667c73a7b,2024-11-13_11h16.07.859,Tarea de género gramatical,2024.2.2,Win32,119.047619,,,,,,,,,,,,,,,,,,,,,,,1000.2142,1001.9101,l,1,1.0328,,[],[],[],[],[],[],[],1.0328,1,1001.9103,1002.4093,,,,,,754,MAS,CON,150,tiempo,,l,1002.4093,1002.4094,-0.162962949,-0.076851845,0,0,0,,0,233,233,303,1,,,,
,,,,,,162e1fe998e2c0360cc96b2b,66a626ef09d4e21e1a8894ec,6734d68dd830863667c73a7b,2024-11-13_11h16.07.859,Tarea de género gramatical,2024.2.2,Win32,119.047619,,,,,,,,,,,,,,,,,,,,,,,1002.4102,1004.4028,a,1,1.3275,,[],[],[],[],[],[],[],1.3275,1,1004.403,1004.9099,,,,,,830,FEM,DIS,150,madera,el,a,1004.9099,1004.9101,-0.162962949,-0.076851845,0,0,0,,0,234,234,379,1,,,,
,,,,,,162e1fe998e2c0360cc96b2b,66a626ef09d4e21e1a8894ec,6734d68dd830863667c73a7b,2024-11-13_11h16.07.859,Tarea de género gramatical,2024.2.2,Win32,119.047619,,,,,,,,,,,,,,,,,,,,,,,1004.9108,1006.2578,a,1,0.6832,,[],[],[],[],[],[],[],0.6832,1,1006.2578,1006.7648,,,,,,890,FEM,DIS,150,patada,el,a,1006.7649,1006.765,-0.162962949,-0.076851845,0,0,0,,0,235,235,439,1,,,,
,,,,,,162e1fe998e2c0360cc96b2b,66a626ef09d4e21e1a8894ec,6734d68dd830863667c73a7b,2024-11-13_11h16.07.859,Tarea de género gramatical,2024.2.2,Win32,119.047619,,,,,,,,,,,,,,,,,,,,,,,1006.7656,1008.504,a,1,1.0798,,[],[],[],[],[],[],[],1.0798,1,1008.504,1008.9991,,,,,,475,FEM,CON,150,nave,,a,1009.0005,1009.001,-0.162962949,-0.076851845,0,0,0,,0,236,236,24,1,,,,
,,,,,,162e1fe998e2c0360cc96b2b,66a626ef09d4e21e1a8894ec,6734d68dd830863667c73a7b,2024-11-13_11h16.07.859,Tarea de género gramatical,2024.2.2,Win32,119.047619,,,,,,,,,,,,,,,,,,,,,,,1009.0014,1011.6477,,0,,,[],[],[],[],[],[],[],1.0798,-1,1011.6482,1012.1469,,,,,,831,FEM,AGR,150,bebida,la,a,1012.147,1012.147,-0.162962949,-0.076851845,0,0,0,,0,237,237,380,1,,,,
,,,,,,162e1fe998e2c0360cc96b2b,66a626ef09d4e21e1a8894ec,6734d68dd830863667c73a7b,2024-11-13_11h16.07.859,Tarea de género gramatical,2024.2.2,Win32,119.047619,,,,,,,,,,,,,,,,,,,,,,,1012.1477,1014.7927,,0,,,[],[],[],[],[],[],[],1.0798,-1,1014.7929,1015.2908,,,,,,766,MAS,CON,150,cuerpo,,l,1015.2908,1015.2909,-0.162962949,-0.076851845,0,0,0,,0,238,238,315,1,,,,
,,,,,,162e1fe998e2c0360cc96b2b,66a626ef09d4e21e1a8894ec,6734d68dd830863667c73a7b,2024-11-13_11h16.07.859,Tarea de género gramatical,2024.2.2,Win32,119.047619,,,,,,,,,,,,,,,,,,,,,,,1015.2919,1016.7856,l,1,0.8292,,[],[],[],[],[],[],[],0.8292,1,1016.7867,1017.2877,,,,,,460,MAS,CON,150,niño,,l,1017.2877,1017.2877,-0.162962949,-0.076851845,0,0,0,,0,239,239,9,1,,,,
,,,,,,162e1fe998e2c0360cc96b2b,66a626ef09d4e21e1a8894ec,6734d68dd830863667c73a7b,2024-11-13_11h16.07.859,Tarea de género gramatical,2024.2.2,Win32,119.047619,,,,,,,,,,,,,,,,,,,,,,,1017.2883,1018.644,a,1,0.6954,,[],[],[],[],[],[],[],0.6954,1,1018.6441,1019.1392,,,,,,734,FEM,DIS,150,fruta,el,a,1019.1405,1019.141,-0.162962949,-0.076851845,0,0,0,,0,240,240,283,1,,,,
,,,,,,162e1fe998e2c0360cc96b2b,66a626ef09d4e21e1a8894ec,6734d68dd830863667c73a7b,2024-11-13_11h16.07.859,Tarea de género gramatical,2024.2.2,Win32,119.047619,,,,,,,,,,,,,,,,,,,,,,,1019.1414,1021.7902,,0,,,[],[],[],[],[],[],[],0.6954,-1,1021.791,1022.2938,,,,,,457,FEM,CON,150,hora,,a,1022.2938,1022.2938,-0.162962949,-0.076851845,0,0,0,,0,241,241,6,1,,,,
,,,,,,162e1fe998e2c0360cc96b2b,66a626ef09d4e21e1a8894ec,6734d68dd830863667c73a7b,2024-11-13_11h16.07.859,Tarea de género gramatical,2024.2.2,Win32,119.047619,,,,,,,,,,,,,,,,,,,,,,,1022.2944,1023.8348,l,1,0.8738,,[],[],[],[],[],[],[],0.8738,1,1023.8352,1024.3311,,,,,,641,MAS,DIS,150,dolor,la,l,1024.3312,1024.3312,-0.162962949,-0.076851845,0,0,0,,0,242,242,190,1,,,,
,,,,,,162e1fe998e2c0360cc96b2b,66a626ef09d4e21e1a8894ec,6734d68dd830863667c73a7b,2024-11-13_11h16.07.859,Tarea de género gramatical,2024.2.2,Win32,119.047619,,,,,,,,,,,,,,,,,,,,,,,1024.3318,1025.9135,a,1,0.923,,[],[],[],[],[],[],[],0.923,1,1025.9136,1026.4082,,,,,,482,FEM,DIS,150,caja,el,a,1026.4084,1026.4085,-0.162962949,-0.076851845,0,0,0,,0,243,243,31,1,,,,
,,,,,,162e1fe998e2c0360cc96b2b,66a626ef09d4e21e1a8894ec,6734d68dd830863667c73a7b,2024-11-13_11h16.07.859,Tarea de género gramatical,2024.2.2,Win32,119.047619,,,,,,,,,,,,,,,,,,,,,,,1026.4098,1028.1189,a,1,1.0549,,[],[],[],[],[],[],[],1.0549,1,1028.119,1028.6175,,,,,,674,FEM,DIS,150,arena,el,a,1028.6176,1028.6176,-0.162962949,-0.076851845,0,0,0,,0,244,244,223,1,,,,
,,,,,,162e1fe998e2c0360cc96b2b,66a626ef09d4e21e1a8894ec,6734d68dd830863667c73a7b,2024-11-13_11h16.07.859,Tarea de género gramatical,2024.2.2,Win32,119.047619,,,,,,,,,,,,,,,,,,,,,,,1028.6184,1031.2712,,0,,,[],[],[],[],[],[],[],1.0549,-1,1031.2716,1031.7737,,,,,,698,FEM,DIS,150,letra,el,a,1031.7754,1031.776,-0.162962949,-0.076851845,0,0,0,,0,245,245,247,1,,,,
,,,,,,162e1fe998e2c0360cc96b2b,66a626ef09d4e21e1a8894ec,6734d68dd830863667c73a7b,2024-11-13_11h16.07.859,Tarea de género gramatical,2024.2.2,Win32,119.047619,,,,,,,,,,,,,,,,,,,,,,,1031.7767,1033.476,l,1,1.0361,,[],[],[],[],[],[],[],1.0361,1,1033.4764,1033.9782,,,,,,683,MAS,DIS,150,golpe,la,l,1033.9783,1033.9785,-0.162962949,-0.076851845,0,0,0,,0,246,246,232,1,,,,
,,,,,,162e1fe998e2c0360cc96b2b,66a626ef09d4e21e1a8894ec,6734d68dd830863667c73a7b,2024-11-13_11h16.07.859,Tarea de género gramatical,2024.2.2,Win32,119.047619,,,,,,,,,,,,,,,,,,,,,,,1033.9798,1035.6304,a,1,0.9821,,[],[],[],[],[],[],[],0.9821,1,1035.6305,1036.1296,,,,,,691,FEM,CON,150,pasta,,a,1036.1296,1036.1297,-0.162962949,-0.076851845,0,0,0,,0,247,247,240,1,,,,
,,,,,,162e1fe998e2c0360cc96b2b,66a626ef09d4e21e1a8894ec,6734d68dd830863667c73a7b,2024-11-13_11h16.07.859,Tarea de género gramatical,2024.2.2,Win32,119.047619,,,,,,,,,,,,,,,,,,,,,,,1036.1303,1037.4472,l,1,0.6513,,[],[],[],[],[],[],[],0.6513,1,1037.4473,1037.9514,,,,,,893,MAS,DIS,150,templo,la,l,1037.9514,1037.9515,-0.162962949,-0.076851845,0,0,0,,0,248,248,442,1,,,,
,,,,,,162e1fe998e2c0360cc96b2b,66a626ef09d4e21e1a8894ec,6734d68dd830863667c73a7b,2024-11-13_11h16.07.859,Tarea de género gramatical,2024.2.2,Win32,119.047619,,,,,,,,,,,,,,,,,,,,,,,1037.952,1039.5949,l,1,0.9784,,[],[],[],[],[],[],[],0.9784,1,1039.5952,1040.092,,,,,,748,MAS,CON,150,botón,,l,1040.0935,1040.0941,-0.162962949,-0.076851845,0,0,0,,0,249,249,297,1,,,,
,,,,,,162e1fe998e2c0360cc96b2b,66a626ef09d4e21e1a8894ec,6734d68dd830863667c73a7b,2024-11-13_11h16.07.859,Tarea de género gramatical,2024.2.2,Win32,119.047619,,,,,,,,,,,,,,,,,,,,,,,1040.0945,1041.3206,l,1,0.5704,,[],[],[],[],[],[],[],0.5704,1,1041.3207,1041.8196,,,,,,497,MAS,DIS,150,olor,la,l,1041.8196,1041.8197,-0.162962949,-0.076851845,0,0,0,,0,250,250,46,1,,,,
,,,,,,162e1fe998e2c0360cc96b2b,66a626ef09d4e21e1a8894ec,6734d68dd830863667c73a7b,2024-11-13_11h16.07.859,Tarea de género gramatical,2024.2.2,Win32,119.047619,,,,,,,,,,,,,,,,,,,,,,,1041.8202,1043.3419,a,1,0.8637,,[],[],[],[],[],[],[],0.8637,1,1043.342,1043.8405,,,,,,453,FEM,AGR,150,cosa,la,a,1043.8405,1043.8405,-0.162962949,-0.076851845,0,0,0,,0,251,251,2,1,,,,
