counterbalancing_condition,consent_prescreening.block_1/declare_consent,consent_prescreening.block_1/age_years,consent_prescreening.block_1/gender,consent_prescreening.block_1/language_disorder,consent_prescreening.block_1/first_language,PROLIFIC_PID,STUDY_ID,SESSION_ID,date,expName,psychopyVersion,OS,frameRate,check_prescreening_answers.started,check_prescreening_answers.stopped,Instructions.started,Instructions.stopped,instr_done_keyboard.keys,instr_done_touch.x,instr_done_touch.y,instr_done_touch.leftButton,instr_done_touch.midButton,instr_done_touch.rightButton,instr_done_touch.clicked_name,instruction_pages.thisRepN,instruction_pages.thisTrialN,instruction_pages.thisN,instruction_pages.thisIndex,instruction_pages.ran,pageN,phase,instruct_text,has_image,instruct_image,instr_done_keyboard.rt,instr_done_keyboard.duration,presentTrial.started,presentTrial.stopped,response.keys,response.corr,response.rt,response.duration,touch_resp.x,touch_resp.y,touch_resp.leftButton,touch_resp.midButton,touch_resp.rightButton,touch_resp.time,touch_resp.clicked_name,rt,corr,feedback.started,feedback.stopped,practice_trials.thisRepN,practice_trials.thisTrialN,practice_trials.thisN,practice_trials.thisIndex,practice_trials.ran,TrialID,StimulusType,Condition,PrimeDuration,Prime,Flanker,corrAns,Break.started,Break.stopped,break_done_touch.x,break_done_touch.y,break_done_touch.leftButton,break_done_touch.midButton,break_done_touch.rightButton,break_done_keyboard.keys,experiment_trials.thisRepN,experiment_trials.thisTrialN,experiment_trials.thisN,experiment_trials.thisIndex,experiment_trials.ran,break_done_touch.clicked_name,break_done_keyboard.rt,break_done_keyboard.duration,End.started,End.stopped
0,"[""over_18"",""comfortable"",""read_info"",""consent_given""]",32,M,"[""none""]","[""spanish""]",17149d29075fd2eda914f35d,66a626ef09d4e21e1a8894ec,6735c41d3fd570a29fc0016e,2024-11-14_10h34.47.820,Tarea de género gramatical,2024.2.2,Win32,59.52380952,,,,,,,,,,,,,,,,,,,,,,,,,,,,,,,,,,,,,,,,,,,,,,,,,,,,,,,,,,,,,,,,,,,,,,
,,,,,,17149d29075fd2eda914f35d,66a626ef09d4e21e1a8894ec,6735c41d3fd570a29fc0016e,2024-11-14_10h34.47.820,Tarea de género gramatical,2024.2.2,Win32,59.52380952,25.843,25.8433,,,,,,,,,,,,,,,,,,,,,,,,,,,,,,,,,,,,,,,,,,,,,,,,,,,,,,,,,,,,,,,,,,,,
,,,,,,17149d29075fd2eda914f35d,66a626ef09d4e21e1a8894ec,6735c41d3fd570a29fc0016e,2024-11-14_10h34.47.820,Tarea de género gramatical,2024.2.2,Win32,59.52380952,,,25.8864,292.3868,,-0.037037037,-0.409259302,1,0,0,instr_done_button,0,0,0,0,1,1,instructions,"INSTRUCCIONES
Va a realizar una prueba de selección gramatical. Desde el comienzo de la prueba mire siempre al centro de la pantalla. Al cabo de un momento, aparecerán palabras. La tarea consiste en determinar si la palabra del centro (siempre será un sustantivo), pertenece al género masculino o femenino.

Pulse la tecla ESPACIO o toque el botón de abajo para continuar.",0,keyboardresponseFM.png,,,,,,,,,,,,,,,,,,,,,,,,,,,,,,,,,,,,,,,,,,,,,,,,,
,,,,,,17149d29075fd2eda914f35d,66a626ef09d4e21e1a8894ec,6735c41d3fd570a29fc0016e,2024-11-14_10h34.47.820,Tarea de género gramatical,2024.2.2,Win32,59.52380952,,,292.3955,514.277,space,-0.451851845,-0.272222236,0,0,0,,0,1,1,1,1,2,instructions,"Si su dispositivo tiene teclado, pulse la tecla ""A"" para las palabras en femenino (por ejemplo: ""mano"") y la tecla ""L"" para las palabras en masculino(por ejemplo: ""arroz"").
Pulse la tecla ESPACIO o toque el botón de abajo para continuar.",1,keyboardresponseFM.png,221.7977,,,,,,,,,,,,,,,,,,,,,,,,,,,,,,,,,,,,,,,,,,,,,,,,
,,,,,,17149d29075fd2eda914f35d,66a626ef09d4e21e1a8894ec,6735c41d3fd570a29fc0016e,2024-11-14_10h34.47.820,Tarea de género gramatical,2024.2.2,Win32,59.52380952,,,514.2837,855.043,,-0.053703661,-0.417592578,1,0,0,instr_done_button,0,2,2,2,1,3,instructions,"Si utiliza un dispositivo sólo táctil, colóquelo en horizontal y utilice los botones de la pantalla. No utilice el ratón.
Pulse la tecla ESPACIO o toque el botón de abajo para continuar.",2,touchresponseFM.png,,,,,,,,,,,,,,,,,,,,,,,,,,,,,,,,,,,,,,,,,,,,,,,,,
,,,,,,17149d29075fd2eda914f35d,66a626ef09d4e21e1a8894ec,6735c41d3fd570a29fc0016e,2024-11-14_10h34.47.820,Tarea de género gramatical,2024.2.2,Win32,59.52380952,,,855.0514,860.8558,,-0.053703661,-0.417592578,1,0,0,instr_done_button,0,3,3,3,1,4,instructions,"Es muy importante que responda con la mayor rapidez y precisión posibles, ya que cada cadena de letras sólo estará en pantalla durante un instante. Si no responde en ese tiempo, aparecerá el mensaje ""Muy lento"" y el experimento pasará a la siguiente palabra. Los primeros 15 intentos serán de práctica y habrá dos descansos durante la prueba.
Pulse la tecla ESPACIO o toque el botón de abajo para iniciar la parte de práctica.",0,keyboardresponseFM.png,,,,,,,,,,,,,,,,,,,,,,,,,,,,,,,,,,,,,,,,,,,,,,,,,
,,,,,,17149d29075fd2eda914f35d,66a626ef09d4e21e1a8894ec,6735c41d3fd570a29fc0016e,2024-11-14_10h34.47.820,Tarea de género gramatical,2024.2.2,Win32,59.52380952,,,,,,,,,,,,,,,,,,,,,,,,860.8986,862.7215,a,1,1.1555,,[],[],[],[],[],[],[],1.1555,1,862.7221,863.2214,0,0,0,2,1,2003,FEM,DIS,150,daga,el,a,,,,,,,,,,,,,,,,,,
,,,,,,17149d29075fd2eda914f35d,66a626ef09d4e21e1a8894ec,6735c41d3fd570a29fc0016e,2024-11-14_10h34.47.820,Tarea de género gramatical,2024.2.2,Win32,59.52380952,,,,,,,,,,,,,,,,,,,,,,,,863.2251,864.8931,a,1,0.9838,,[],[],[],[],[],[],[],0.9838,1,864.8933,865.3869,0,1,1,5,1,2006,FEM,DIS,150,serie,el,a,,,,,,,,,,,,,,,,,,
,,,,,,17149d29075fd2eda914f35d,66a626ef09d4e21e1a8894ec,6735c41d3fd570a29fc0016e,2024-11-14_10h34.47.820,Tarea de género gramatical,2024.2.2,Win32,59.52380952,,,,,,,,,,,,,,,,,,,,,,,,865.3901,866.6195,l,1,0.5542,,[],[],[],[],[],[],[],0.5542,1,866.6197,867.1082,0,2,2,10,1,2011,MAS,CON,150,canal,,l,,,,,,,,,,,,,,,,,,
,,,,,,17149d29075fd2eda914f35d,66a626ef09d4e21e1a8894ec,6735c41d3fd570a29fc0016e,2024-11-14_10h34.47.820,Tarea de género gramatical,2024.2.2,Win32,59.52380952,,,,,,,,,,,,,,,,,,,,,,,,867.1105,868.3082,l,1,0.528,,[],[],[],[],[],[],[],0.528,1,868.3083,868.8075,0,3,3,13,1,2014,MAS,CON,150,siglo,,l,,,,,,,,,,,,,,,,,,
,,,,,,17149d29075fd2eda914f35d,66a626ef09d4e21e1a8894ec,6735c41d3fd570a29fc0016e,2024-11-14_10h34.47.820,Tarea de género gramatical,2024.2.2,Win32,59.52380952,,,,,,,,,,,,,,,,,,,,,,,,868.8108,870.3238,l,1,0.8445,,[],[],[],[],[],[],[],0.8445,1,870.324,870.8176,0,4,4,14,1,2015,MAS,DIS,150,robot,la,l,,,,,,,,,,,,,,,,,,
,,,,,,17149d29075fd2eda914f35d,66a626ef09d4e21e1a8894ec,6735c41d3fd570a29fc0016e,2024-11-14_10h34.47.820,Tarea de género gramatical,2024.2.2,Win32,59.52380952,,,,,,,,,,,,,,,,,,,,,,,,870.8207,872.2229,a,1,0.7281,,[],[],[],[],[],[],[],0.7281,1,872.2231,872.7167,0,5,5,3,1,2004,FEM,AGR,150,venta,la,a,,,,,,,,,,,,,,,,,,
,,,,,,17149d29075fd2eda914f35d,66a626ef09d4e21e1a8894ec,6735c41d3fd570a29fc0016e,2024-11-14_10h34.47.820,Tarea de género gramatical,2024.2.2,Win32,59.52380952,,,,,,,,,,,,,,,,,,,,,,,,872.7196,873.8555,a,1,0.4508,,[],[],[],[],[],[],[],0.4508,1,873.8557,874.3492,0,6,6,6,1,2007,FEM,AGR,150,navaja,la,a,,,,,,,,,,,,,,,,,,
,,,,,,17149d29075fd2eda914f35d,66a626ef09d4e21e1a8894ec,6735c41d3fd570a29fc0016e,2024-11-14_10h34.47.820,Tarea de género gramatical,2024.2.2,Win32,59.52380952,,,,,,,,,,,,,,,,,,,,,,,,874.3513,875.4484,a,1,0.4214,,[],[],[],[],[],[],[],0.4214,1,875.4487,875.9539,0,7,7,7,1,2008,FEM,CON,150,siesta,,a,,,,,,,,,,,,,,,,,,
,,,,,,17149d29075fd2eda914f35d,66a626ef09d4e21e1a8894ec,6735c41d3fd570a29fc0016e,2024-11-14_10h34.47.820,Tarea de género gramatical,2024.2.2,Win32,59.52380952,,,,,,,,,,,,,,,,,,,,,,,,875.9564,877.198,a,1,0.5726,,[],[],[],[],[],[],[],0.5726,1,877.1982,877.7031,0,8,8,0,1,2001,FEM,AGR,150,nuca,la,a,,,,,,,,,,,,,,,,,,
,,,,,,17149d29075fd2eda914f35d,66a626ef09d4e21e1a8894ec,6735c41d3fd570a29fc0016e,2024-11-14_10h34.47.820,Tarea de género gramatical,2024.2.2,Win32,59.52380952,,,,,,,,,,,,,,,,,,,,,,,,877.7049,878.77,l,1,0.3843,,[],[],[],[],[],[],[],0.3843,1,878.7702,879.2689,0,9,9,12,1,2013,MAS,AGR,150,acero,el,l,,,,,,,,,,,,,,,,,,
,,,,,,17149d29075fd2eda914f35d,66a626ef09d4e21e1a8894ec,6735c41d3fd570a29fc0016e,2024-11-14_10h34.47.820,Tarea de género gramatical,2024.2.2,Win32,59.52380952,,,,,,,,,,,,,,,,,,,,,,,,879.2714,880.3961,l,0,0.4443,,[],[],[],[],[],[],[],0.4443,0,880.3989,880.8961,0,10,10,4,1,2005,FEM,CON,150,placa,,a,,,,,,,,,,,,,,,,,,
,,,,,,17149d29075fd2eda914f35d,66a626ef09d4e21e1a8894ec,6735c41d3fd570a29fc0016e,2024-11-14_10h34.47.820,Tarea de género gramatical,2024.2.2,Win32,59.52380952,,,,,,,,,,,,,,,,,,,,,,,,880.8982,882.8509,l,1,1.2671,,[],[],[],[],[],[],[],1.2671,1,882.8523,883.3448,0,11,11,8,1,2009,MAS,DIS,150,puerto,la,l,,,,,,,,,,,,,,,,,,
,,,,,,17149d29075fd2eda914f35d,66a626ef09d4e21e1a8894ec,6735c41d3fd570a29fc0016e,2024-11-14_10h34.47.820,Tarea de género gramatical,2024.2.2,Win32,59.52380952,,,,,,,,,,,,,,,,,,,,,,,,883.3476,884.6169,a,0,0.5947,,[],[],[],[],[],[],[],0.5947,0,884.6184,885.1107,0,12,12,11,1,2012,MAS,DIS,150,clima,la,l,,,,,,,,,,,,,,,,,,
,,,,,,17149d29075fd2eda914f35d,66a626ef09d4e21e1a8894ec,6735c41d3fd570a29fc0016e,2024-11-14_10h34.47.820,Tarea de género gramatical,2024.2.2,Win32,59.52380952,,,,,,,,,,,,,,,,,,,,,,,,885.1127,886.6822,a,1,0.9108,,[],[],[],[],[],[],[],0.9108,1,886.6836,887.1762,0,13,13,1,1,2002,FEM,CON,150,pala,,a,,,,,,,,,,,,,,,,,,
,,,,,,17149d29075fd2eda914f35d,66a626ef09d4e21e1a8894ec,6735c41d3fd570a29fc0016e,2024-11-14_10h34.47.820,Tarea de género gramatical,2024.2.2,Win32,59.52380952,,,,,,,,,,,,,,,,,,,,,,,,887.1783,888.5591,l,1,0.6958,,[],[],[],[],[],[],[],0.6958,1,888.5593,889.0471,0,14,14,9,1,2010,MAS,AGR,150,vecino,el,l,,,,,,,,,,,,,,,,,,
,,,,,,17149d29075fd2eda914f35d,66a626ef09d4e21e1a8894ec,6735c41d3fd570a29fc0016e,2024-11-14_10h34.47.820,Tarea de género gramatical,2024.2.2,Win32,59.52380952,,,901.2431,903.2354,,-0.006481453,-0.416666667,1,0,0,instr_done_button,,,,,,,,,,,,,903.3129,904.6838,l,1,0.7047,,[],[],[],[],[],[],[],0.7047,1,904.6841,905.1837,,,,,,420,MAS,DIS,150,helado,la,l,905.1841,905.1943,-0.006481453,-0.416666667,0,0,0,,0,0,0,419,1,,,,,
,,,,,,17149d29075fd2eda914f35d,66a626ef09d4e21e1a8894ec,6735c41d3fd570a29fc0016e,2024-11-14_10h34.47.820,Tarea de género gramatical,2024.2.2,Win32,59.52380952,,,,,,,,,,,,,,,,,,,,,,,,905.1976,906.2665,l,1,0.4072,,[],[],[],[],[],[],[],0.4072,1,906.2666,906.7662,,,,,,203,MAS,CON,150,novio,,l,906.7662,906.7665,-0.006481453,-0.416666667,0,0,0,,0,1,1,202,1,,,,,
,,,,,,17149d29075fd2eda914f35d,66a626ef09d4e21e1a8894ec,6735c41d3fd570a29fc0016e,2024-11-14_10h34.47.820,Tarea de género gramatical,2024.2.2,Win32,59.52380952,,,,,,,,,,,,,,,,,,,,,,,,906.7681,907.849,l,1,0.4008,,[],[],[],[],[],[],[],0.4008,1,907.8491,908.3487,,,,,,172,MAS,AGR,150,poder,el,l,908.3514,908.3529,-0.006481453,-0.416666667,0,0,0,,0,2,2,171,1,,,,,
,,,,,,17149d29075fd2eda914f35d,66a626ef09d4e21e1a8894ec,6735c41d3fd570a29fc0016e,2024-11-14_10h34.47.820,Tarea de género gramatical,2024.2.2,Win32,59.52380952,,,,,,,,,,,,,,,,,,,,,,,,908.3543,909.4815,a,1,0.4524,,[],[],[],[],[],[],[],0.4524,1,909.4817,909.9815,,,,,,7,FEM,AGR,150,hora,la,a,909.9816,909.9818,-0.006481453,-0.416666667,0,0,0,,0,3,3,6,1,,,,,
,,,,,,17149d29075fd2eda914f35d,66a626ef09d4e21e1a8894ec,6735c41d3fd570a29fc0016e,2024-11-14_10h34.47.820,Tarea de género gramatical,2024.2.2,Win32,59.52380952,,,,,,,,,,,,,,,,,,,,,,,,909.9834,911.114,a,1,0.4572,,[],[],[],[],[],[],[],0.4572,1,911.1141,911.6138,,,,,,271,FEM,AGR,150,viuda,la,a,911.6139,911.6141,-0.006481453,-0.416666667,0,0,0,,0,4,4,270,1,,,,,
,,,,,,17149d29075fd2eda914f35d,66a626ef09d4e21e1a8894ec,6735c41d3fd570a29fc0016e,2024-11-14_10h34.47.820,Tarea de género gramatical,2024.2.2,Win32,59.52380952,,,,,,,,,,,,,,,,,,,,,,,,911.6157,912.7462,a,1,0.4514,,[],[],[],[],[],[],[],0.4514,1,912.7463,913.2464,,,,,,379,FEM,AGR,150,granja,la,a,913.2464,913.2467,-0.006481453,-0.416666667,0,0,0,,0,5,5,378,1,,,,,
,,,,,,17149d29075fd2eda914f35d,66a626ef09d4e21e1a8894ec,6735c41d3fd570a29fc0016e,2024-11-14_10h34.47.820,Tarea de género gramatical,2024.2.2,Win32,59.52380952,,,,,,,,,,,,,,,,,,,,,,,,913.2482,914.4124,l,1,0.4839,,[],[],[],[],[],[],[],0.4839,1,914.4126,914.9123,,,,,,196,MAS,AGR,150,barco,el,l,914.9149,914.9164,-0.006481453,-0.416666667,0,0,0,,0,6,6,195,1,,,,,
,,,,,,17149d29075fd2eda914f35d,66a626ef09d4e21e1a8894ec,6735c41d3fd570a29fc0016e,2024-11-14_10h34.47.820,Tarea de género gramatical,2024.2.2,Win32,59.52380952,,,,,,,,,,,,,,,,,,,,,,,,914.9176,916.1283,l,1,0.5341,,[],[],[],[],[],[],[],0.5341,1,916.1285,916.6282,,,,,,54,MAS,DIS,150,humo,la,l,916.6283,916.6285,-0.006481453,-0.416666667,0,0,0,,0,7,7,53,1,,,,,
,,,,,,17149d29075fd2eda914f35d,66a626ef09d4e21e1a8894ec,6735c41d3fd570a29fc0016e,2024-11-14_10h34.47.820,Tarea de género gramatical,2024.2.2,Win32,59.52380952,,,,,,,,,,,,,,,,,,,,,,,,916.6302,917.7275,l,1,0.4209,,[],[],[],[],[],[],[],0.4209,1,917.7276,918.2272,,,,,,348,MAS,DIS,150,anillo,la,l,918.2274,918.2276,-0.006481453,-0.416666667,0,0,0,,0,8,8,347,1,,,,,
,,,,,,17149d29075fd2eda914f35d,66a626ef09d4e21e1a8894ec,6735c41d3fd570a29fc0016e,2024-11-14_10h34.47.820,Tarea de género gramatical,2024.2.2,Win32,59.52380952,,,,,,,,,,,,,,,,,,,,,,,,918.2292,919.4933,l,1,0.5858,,[],[],[],[],[],[],[],0.5858,1,919.4936,919.9931,,,,,,340,MAS,AGR,150,pasado,el,l,919.9932,919.9935,-0.006481453,-0.416666667,0,0,0,,0,9,9,339,1,,,,,
,,,,,,17149d29075fd2eda914f35d,66a626ef09d4e21e1a8894ec,6735c41d3fd570a29fc0016e,2024-11-14_10h34.47.820,Tarea de género gramatical,2024.2.2,Win32,59.52380952,,,,,,,,,,,,,,,,,,,,,,,,919.9959,921.1425,l,1,0.4746,,[],[],[],[],[],[],[],0.4746,1,921.1427,921.6422,,,,,,214,MAS,AGR,150,fondo,el,l,921.6424,921.6426,-0.006481453,-0.416666667,0,0,0,,0,10,10,213,1,,,,,
,,,,,,17149d29075fd2eda914f35d,66a626ef09d4e21e1a8894ec,6735c41d3fd570a29fc0016e,2024-11-14_10h34.47.820,Tarea de género gramatical,2024.2.2,Win32,59.52380952,,,,,,,,,,,,,,,,,,,,,,,,921.6443,922.925,l,1,0.6006,,[],[],[],[],[],[],[],0.6006,1,922.9252,923.4247,,,,,,84,MAS,DIS,150,mago,la,l,923.4277,923.4293,-0.006481453,-0.416666667,0,0,0,,0,11,11,83,1,,,,,
,,,,,,17149d29075fd2eda914f35d,66a626ef09d4e21e1a8894ec,6735c41d3fd570a29fc0016e,2024-11-14_10h34.47.820,Tarea de género gramatical,2024.2.2,Win32,59.52380952,,,,,,,,,,,,,,,,,,,,,,,,923.4307,924.7076,l,1,0.6114,,[],[],[],[],[],[],[],0.6114,1,924.7078,925.2071,,,,,,347,MAS,CON,150,cuello,,l,925.2071,925.2073,-0.006481453,-0.416666667,0,0,0,,0,12,12,346,1,,,,,
,,,,,,17149d29075fd2eda914f35d,66a626ef09d4e21e1a8894ec,6735c41d3fd570a29fc0016e,2024-11-14_10h34.47.820,Tarea de género gramatical,2024.2.2,Win32,59.52380952,,,,,,,,,,,,,,,,,,,,,,,,925.2089,926.257,a,1,0.3734,,[],[],[],[],[],[],[],0.3734,1,926.2572,926.7567,,,,,,241,FEM,AGR,150,pasta,la,a,926.7568,926.757,-0.006481453,-0.416666667,0,0,0,,0,13,13,240,1,,,,,
,,,,,,17149d29075fd2eda914f35d,66a626ef09d4e21e1a8894ec,6735c41d3fd570a29fc0016e,2024-11-14_10h34.47.820,Tarea de género gramatical,2024.2.2,Win32,59.52380952,,,,,,,,,,,,,,,,,,,,,,,,926.7598,927.8396,a,1,0.4022,,[],[],[],[],[],[],[],0.4022,1,927.8398,928.3283,,,,,,147,FEM,DIS,150,grúa,el,a,928.3284,928.3285,-0.006481453,-0.416666667,0,0,0,,0,14,14,146,1,,,,,
,,,,,,17149d29075fd2eda914f35d,66a626ef09d4e21e1a8894ec,6735c41d3fd570a29fc0016e,2024-11-14_10h34.47.820,Tarea de género gramatical,2024.2.2,Win32,59.52380952,,,,,,,,,,,,,,,,,,,,,,,,928.3305,929.5448,a,1,0.5446,,[],[],[],[],[],[],[],0.5446,1,929.5449,930.0387,,,,,,165,FEM,DIS,150,amiga,el,a,930.0419,930.0434,-0.006481453,-0.416666667,0,0,0,,0,15,15,164,1,,,,,
,,,,,,17149d29075fd2eda914f35d,66a626ef09d4e21e1a8894ec,6735c41d3fd570a29fc0016e,2024-11-14_10h34.47.820,Tarea de género gramatical,2024.2.2,Win32,59.52380952,,,,,,,,,,,,,,,,,,,,,,,,930.0449,931.1713,l,1,0.4512,,[],[],[],[],[],[],[],0.4512,1,931.1716,931.6602,,,,,,287,MAS,CON,150,plato,,l,931.6602,931.6604,-0.006481453,-0.416666667,0,0,0,,0,16,16,286,1,,,,,
,,,,,,17149d29075fd2eda914f35d,66a626ef09d4e21e1a8894ec,6735c41d3fd570a29fc0016e,2024-11-14_10h34.47.820,Tarea de género gramatical,2024.2.2,Win32,59.52380952,,,,,,,,,,,,,,,,,,,,,,,,931.6622,932.7597,l,1,0.428,,[],[],[],[],[],[],[],0.428,1,932.7599,933.259,,,,,,178,MAS,AGR,150,punto,el,l,933.2591,933.2593,-0.006481453,-0.416666667,0,0,0,,0,17,17,177,1,,,,,
,,,,,,17149d29075fd2eda914f35d,66a626ef09d4e21e1a8894ec,6735c41d3fd570a29fc0016e,2024-11-14_10h34.47.820,Tarea de género gramatical,2024.2.2,Win32,59.52380952,,,,,,,,,,,,,,,,,,,,,,,,933.261,934.359,a,1,0.428,,[],[],[],[],[],[],[],0.428,1,934.3593,934.8581,,,,,,218,FEM,CON,150,nieve,,a,934.8583,934.8585,-0.006481453,-0.416666667,0,0,0,,0,18,18,217,1,,,,,
,,,,,,17149d29075fd2eda914f35d,66a626ef09d4e21e1a8894ec,6735c41d3fd570a29fc0016e,2024-11-14_10h34.47.820,Tarea de género gramatical,2024.2.2,Win32,59.52380952,,,,,,,,,,,,,,,,,,,,,,,,934.8608,936.0856,a,1,0.5509,,[],[],[],[],[],[],[],0.5509,1,936.0858,936.5904,,,,,,403,FEM,AGR,150,paliza,la,a,936.5905,936.5906,-0.006481453,-0.416666667,0,0,0,,0,19,19,402,1,,,,,
,,,,,,17149d29075fd2eda914f35d,66a626ef09d4e21e1a8894ec,6735c41d3fd570a29fc0016e,2024-11-14_10h34.47.820,Tarea de género gramatical,2024.2.2,Win32,59.52380952,,,,,,,,,,,,,,,,,,,,,,,,936.592,937.7381,l,1,0.476,,[],[],[],[],[],[],[],0.476,1,937.7382,938.2344,,,,,,22,MAS,AGR,150,pelo,el,l,938.2376,938.2392,-0.006481453,-0.416666667,0,0,0,,0,20,20,21,1,,,,,
,,,,,,17149d29075fd2eda914f35d,66a626ef09d4e21e1a8894ec,6735c41d3fd570a29fc0016e,2024-11-14_10h34.47.820,Tarea de género gramatical,2024.2.2,Win32,59.52380952,,,,,,,,,,,,,,,,,,,,,,,,938.2407,939.4066,a,1,0.4946,,[],[],[],[],[],[],[],0.4946,1,939.4068,939.9005,,,,,,357,FEM,DIS,150,lengua,el,a,939.9006,939.9008,-0.006481453,-0.416666667,0,0,0,,0,21,21,356,1,,,,,
,,,,,,17149d29075fd2eda914f35d,66a626ef09d4e21e1a8894ec,6735c41d3fd570a29fc0016e,2024-11-14_10h34.47.820,Tarea de género gramatical,2024.2.2,Win32,59.52380952,,,,,,,,,,,,,,,,,,,,,,,,939.9029,941.0997,a,1,0.529,,[],[],[],[],[],[],[],0.529,1,941.0999,941.5995,,,,,,429,FEM,DIS,150,fianza,el,a,941.5995,941.5997,-0.006481453,-0.416666667,0,0,0,,0,22,22,428,1,,,,,
,,,,,,17149d29075fd2eda914f35d,66a626ef09d4e21e1a8894ec,6735c41d3fd570a29fc0016e,2024-11-14_10h34.47.820,Tarea de género gramatical,2024.2.2,Win32,59.52380952,,,,,,,,,,,,,,,,,,,,,,,,941.6018,942.738,a,1,0.463,,[],[],[],[],[],[],[],0.463,1,942.7382,943.232,,,,,,3,FEM,DIS,150,cosa,el,a,943.2322,943.2324,-0.006481453,-0.416666667,0,0,0,,0,23,23,2,1,,,,,
,,,,,,17149d29075fd2eda914f35d,66a626ef09d4e21e1a8894ec,6735c41d3fd570a29fc0016e,2024-11-14_10h34.47.820,Tarea de género gramatical,2024.2.2,Win32,59.52380952,,,,,,,,,,,,,,,,,,,,,,,,943.2344,944.3375,a,1,0.4342,,[],[],[],[],[],[],[],0.4342,1,944.3377,944.8368,,,,,,91,FEM,AGR,150,hoja,la,a,944.8397,944.8412,-0.006481453,-0.416666667,0,0,0,,0,24,24,90,1,,,,,
,,,,,,17149d29075fd2eda914f35d,66a626ef09d4e21e1a8894ec,6735c41d3fd570a29fc0016e,2024-11-14_10h34.47.820,Tarea de género gramatical,2024.2.2,Win32,59.52380952,,,,,,,,,,,,,,,,,,,,,,,,944.8433,946.064,l,1,0.5508,,[],[],[],[],[],[],[],0.5508,1,946.0643,946.5525,,,,,,430,MAS,AGR,150,título,el,l,946.5526,946.5527,-0.006481453,-0.416666667,0,0,0,,0,25,25,429,1,,,,,
,,,,,,17149d29075fd2eda914f35d,66a626ef09d4e21e1a8894ec,6735c41d3fd570a29fc0016e,2024-11-14_10h34.47.820,Tarea de género gramatical,2024.2.2,Win32,59.52380952,,,,,,,,,,,,,,,,,,,,,,,,946.5545,947.6524,a,1,0.4175,,[],[],[],[],[],[],[],0.4175,1,947.6526,948.1517,,,,,,295,FEM,AGR,150,grasa,la,a,948.1518,948.152,-0.006481453,-0.416666667,0,0,0,,0,26,26,294,1,,,,,
,,,,,,17149d29075fd2eda914f35d,66a626ef09d4e21e1a8894ec,6735c41d3fd570a29fc0016e,2024-11-14_10h34.47.820,Tarea de género gramatical,2024.2.2,Win32,59.52380952,,,,,,,,,,,,,,,,,,,,,,,,948.1538,949.3124,l,0,0.4689,,[],[],[],[],[],[],[],0.4689,0,949.3142,949.8121,,,,,,181,FEM,AGR,150,tarde,la,a,949.8123,949.8125,-0.006481453,-0.416666667,0,0,0,,0,27,27,180,1,,,,,
,,,,,,17149d29075fd2eda914f35d,66a626ef09d4e21e1a8894ec,6735c41d3fd570a29fc0016e,2024-11-14_10h34.47.820,Tarea de género gramatical,2024.2.2,Win32,59.52380952,,,,,,,,,,,,,,,,,,,,,,,,949.8147,951.0283,a,1,0.5342,,[],[],[],[],[],[],[],0.5342,1,951.03,951.5307,,,,,,98,FEM,CON,150,fuga,,a,951.5308,951.5309,-0.006481453,-0.416666667,0,0,0,,0,28,28,97,1,,,,,
,,,,,,17149d29075fd2eda914f35d,66a626ef09d4e21e1a8894ec,6735c41d3fd570a29fc0016e,2024-11-14_10h34.47.820,Tarea de género gramatical,2024.2.2,Win32,59.52380952,,,,,,,,,,,,,,,,,,,,,,,,951.5324,952.7941,l,1,0.5823,,[],[],[],[],[],[],[],0.5823,1,952.7944,953.2938,,,,,,299,MAS,CON,150,rumbo,,l,953.297,953.2985,-0.006481453,-0.416666667,0,0,0,,0,29,29,298,1,,,,,
,,,,,,17149d29075fd2eda914f35d,66a626ef09d4e21e1a8894ec,6735c41d3fd570a29fc0016e,2024-11-14_10h34.47.820,Tarea de género gramatical,2024.2.2,Win32,59.52380952,,,,,,,,,,,,,,,,,,,,,,,,953.3001,954.4266,a,0,0.4453,,[],[],[],[],[],[],[],0.4453,0,954.4282,954.9152,,,,,,328,MAS,AGR,150,asunto,el,l,954.9152,954.9154,-0.006481453,-0.416666667,0,0,0,,0,30,30,327,1,,,,,
,,,,,,17149d29075fd2eda914f35d,66a626ef09d4e21e1a8894ec,6735c41d3fd570a29fc0016e,2024-11-14_10h34.47.820,Tarea de género gramatical,2024.2.2,Win32,59.52380952,,,,,,,,,,,,,,,,,,,,,,,,954.9173,956.1923,l,1,0.5918,,[],[],[],[],[],[],[],0.5918,1,956.1943,956.6976,,,,,,274,MAS,AGR,150,motor,el,l,956.6976,956.6977,-0.006481453,-0.416666667,0,0,0,,0,31,31,273,1,,,,,
,,,,,,17149d29075fd2eda914f35d,66a626ef09d4e21e1a8894ec,6735c41d3fd570a29fc0016e,2024-11-14_10h34.47.820,Tarea de género gramatical,2024.2.2,Win32,59.52380952,,,,,,,,,,,,,,,,,,,,,,,,956.6996,958.064,l,1,0.6946,,[],[],[],[],[],[],[],0.6946,1,958.0641,958.5578,,,,,,60,MAS,DIS,150,tono,la,l,958.5579,958.558,-0.006481453,-0.416666667,0,0,0,,0,32,32,59,1,,,,,
,,,,,,17149d29075fd2eda914f35d,66a626ef09d4e21e1a8894ec,6735c41d3fd570a29fc0016e,2024-11-14_10h34.47.820,Tarea de género gramatical,2024.2.2,Win32,59.52380952,,,,,,,,,,,,,,,,,,,,,,,,958.5608,959.6406,a,1,0.4174,,[],[],[],[],[],[],[],0.4174,1,959.6408,960.1403,,,,,,374,FEM,CON,150,herida,,a,960.1437,960.145,-0.006481453,-0.416666667,0,0,0,,0,33,33,373,1,,,,,
,,,,,,17149d29075fd2eda914f35d,66a626ef09d4e21e1a8894ec,6735c41d3fd570a29fc0016e,2024-11-14_10h34.47.820,Tarea de género gramatical,2024.2.2,Win32,59.52380952,,,,,,,,,,,,,,,,,,,,,,,,960.1466,961.3124,l,1,0.5,,[],[],[],[],[],[],[],0.5,1,961.3126,961.8091,,,,,,286,MAS,AGR,150,reino,el,l,961.8092,961.8093,-0.006481453,-0.416666667,0,0,0,,0,34,34,285,1,,,,,
,,,,,,17149d29075fd2eda914f35d,66a626ef09d4e21e1a8894ec,6735c41d3fd570a29fc0016e,2024-11-14_10h34.47.820,Tarea de género gramatical,2024.2.2,Win32,59.52380952,,,,,,,,,,,,,,,,,,,,,,,,961.811,962.905,a,1,0.4312,,[],[],[],[],[],[],[],0.4312,1,962.9052,963.4104,,,,,,176,FEM,CON,150,línea,,a,963.4106,963.4106,-0.006481453,-0.416666667,0,0,0,,0,35,35,175,1,,,,,
,,,,,,17149d29075fd2eda914f35d,66a626ef09d4e21e1a8894ec,6735c41d3fd570a29fc0016e,2024-11-14_10h34.47.820,Tarea de género gramatical,2024.2.2,Win32,59.52380952,,,,,,,,,,,,,,,,,,,,,,,,963.4118,964.8773,a,1,0.7944,,[],[],[],[],[],[],[],0.7944,1,964.8776,965.3711,,,,,,265,FEM,AGR,150,rueda,la,a,965.3712,965.3714,-0.006481453,-0.416666667,0,0,0,,0,36,36,264,1,,,,,
,,,,,,17149d29075fd2eda914f35d,66a626ef09d4e21e1a8894ec,6735c41d3fd570a29fc0016e,2024-11-14_10h34.47.820,Tarea de género gramatical,2024.2.2,Win32,59.52380952,,,,,,,,,,,,,,,,,,,,,,,,965.3736,966.493,a,1,0.4508,,[],[],[],[],[],[],[],0.4508,1,966.4932,966.987,,,,,,195,FEM,DIS,150,pared,el,a,966.9871,966.9874,-0.006481453,-0.416666667,0,0,0,,0,37,37,194,1,,,,,
,,,,,,17149d29075fd2eda914f35d,66a626ef09d4e21e1a8894ec,6735c41d3fd570a29fc0016e,2024-11-14_10h34.47.820,Tarea de género gramatical,2024.2.2,Win32,59.52380952,,,,,,,,,,,,,,,,,,,,,,,,966.9894,968.0419,l,0,0.3786,,[],[],[],[],[],[],[],0.3786,0,968.043,968.5362,,,,,,188,FEM,CON,150,bomba,,a,968.5395,968.541,-0.006481453,-0.416666667,0,0,0,,0,38,38,187,1,,,,,
,,,,,,17149d29075fd2eda914f35d,66a626ef09d4e21e1a8894ec,6735c41d3fd570a29fc0016e,2024-11-14_10h34.47.820,Tarea de género gramatical,2024.2.2,Win32,59.52380952,,,,,,,,,,,,,,,,,,,,,,,,968.5425,969.8249,a,1,0.6007,,[],[],[],[],[],[],[],0.6007,1,969.8264,970.3242,,,,,,75,FEM,DIS,150,caza,el,a,970.3242,970.3244,-0.006481453,-0.416666667,0,0,0,,0,39,39,74,1,,,,,
,,,,,,17149d29075fd2eda914f35d,66a626ef09d4e21e1a8894ec,6735c41d3fd570a29fc0016e,2024-11-14_10h34.47.820,Tarea de género gramatical,2024.2.2,Win32,59.52380952,,,,,,,,,,,,,,,,,,,,,,,,970.3262,971.5739,l,1,0.5673,,[],[],[],[],[],[],[],0.5673,1,971.574,972.0733,,,,,,312,MAS,DIS,150,equipo,la,l,972.0734,972.0736,-0.006481453,-0.416666667,0,0,0,,0,40,40,311,1,,,,,
,,,,,,17149d29075fd2eda914f35d,66a626ef09d4e21e1a8894ec,6735c41d3fd570a29fc0016e,2024-11-14_10h34.47.820,Tarea de género gramatical,2024.2.2,Win32,59.52380952,,,,,,,,,,,,,,,,,,,,,,,,972.0753,973.3398,l,1,0.5841,,[],[],[],[],[],[],[],0.5841,1,973.3399,973.8391,,,,,,208,MAS,AGR,150,suelo,el,l,973.8392,973.8394,-0.006481453,-0.416666667,0,0,0,,0,41,41,207,1,,,,,
,,,,,,17149d29075fd2eda914f35d,66a626ef09d4e21e1a8894ec,6735c41d3fd570a29fc0016e,2024-11-14_10h34.47.820,Tarea de género gramatical,2024.2.2,Win32,59.52380952,,,,,,,,,,,,,,,,,,,,,,,,973.841,975.053,a,1,0.5315,,[],[],[],[],[],[],[],0.5315,1,975.0532,975.5494,,,,,,50,FEM,CON,150,dama,,a,975.552,975.5536,-0.006481453,-0.416666667,0,0,0,,0,42,42,49,1,,,,,
,,,,,,17149d29075fd2eda914f35d,66a626ef09d4e21e1a8894ec,6735c41d3fd570a29fc0016e,2024-11-14_10h34.47.820,Tarea de género gramatical,2024.2.2,Win32,59.52380952,,,,,,,,,,,,,,,,,,,,,,,,975.5551,977.0379,a,1,0.8277,,[],[],[],[],[],[],[],0.8277,1,977.0381,977.5318,,,,,,423,FEM,DIS,150,poesía,el,a,977.5319,977.5322,-0.006481453,-0.416666667,0,0,0,,0,43,43,422,1,,,,,
,,,,,,17149d29075fd2eda914f35d,66a626ef09d4e21e1a8894ec,6735c41d3fd570a29fc0016e,2024-11-14_10h34.47.820,Tarea de género gramatical,2024.2.2,Win32,59.52380952,,,,,,,,,,,,,,,,,,,,,,,,977.5343,978.8372,a,1,0.6278,,[],[],[],[],[],[],[],0.6278,1,978.8374,979.331,,,,,,249,FEM,DIS,150,crema,el,a,979.3311,979.3313,-0.006481453,-0.416666667,0,0,0,,0,44,44,248,1,,,,,
,,,,,,17149d29075fd2eda914f35d,66a626ef09d4e21e1a8894ec,6735c41d3fd570a29fc0016e,2024-11-14_10h34.47.820,Tarea de género gramatical,2024.2.2,Win32,59.52380952,,,,,,,,,,,,,,,,,,,,,,,,979.3332,980.4136,l,1,0.4051,,[],[],[],[],[],[],[],0.4051,1,980.4139,980.9022,,,,,,173,MAS,CON,150,libro,,l,980.9023,980.9026,-0.006481453,-0.416666667,0,0,0,,0,45,45,172,1,,,,,
,,,,,,17149d29075fd2eda914f35d,66a626ef09d4e21e1a8894ec,6735c41d3fd570a29fc0016e,2024-11-14_10h34.47.820,Tarea de género gramatical,2024.2.2,Win32,59.52380952,,,,,,,,,,,,,,,,,,,,,,,,980.9051,982.2356,l,1,0.6614,,[],[],[],[],[],[],[],0.6614,1,982.2357,982.7321,,,,,,16,MAS,AGR,150,baño,el,l,982.7321,982.7323,-0.006481453,-0.416666667,0,0,0,,0,46,46,15,1,,,,,
,,,,,,17149d29075fd2eda914f35d,66a626ef09d4e21e1a8894ec,6735c41d3fd570a29fc0016e,2024-11-14_10h34.47.820,Tarea de género gramatical,2024.2.2,Win32,59.52380952,,,,,,,,,,,,,,,,,,,,,,,,982.7341,984.012,l,1,0.5961,,[],[],[],[],[],[],[],0.5961,1,984.0121,984.5171,,,,,,180,MAS,DIS,150,fuego,la,l,984.5195,984.521,-0.006481453,-0.416666667,0,0,0,,0,47,47,179,1,,,,,
,,,,,,17149d29075fd2eda914f35d,66a626ef09d4e21e1a8894ec,6735c41d3fd570a29fc0016e,2024-11-14_10h34.47.820,Tarea de género gramatical,2024.2.2,Win32,59.52380952,,,,,,,,,,,,,,,,,,,,,,,,984.5225,985.7005,a,1,0.5015,,[],[],[],[],[],[],[],0.5015,1,985.7006,986.1941,,,,,,157,FEM,AGR,150,madre,la,a,986.1943,986.1944,-0.006481453,-0.416666667,0,0,0,,0,48,48,156,1,,,,,
,,,,,,17149d29075fd2eda914f35d,66a626ef09d4e21e1a8894ec,6735c41d3fd570a29fc0016e,2024-11-14_10h34.47.820,Tarea de género gramatical,2024.2.2,Win32,59.52380952,,,,,,,,,,,,,,,,,,,,,,,,986.1965,987.4495,l,1,0.578,,[],[],[],[],[],[],[],0.578,1,987.4498,987.9433,,,,,,64,MAS,AGR,150,saco,el,l,987.9434,987.9435,-0.006481453,-0.416666667,0,0,0,,0,49,49,63,1,,,,,
,,,,,,17149d29075fd2eda914f35d,66a626ef09d4e21e1a8894ec,6735c41d3fd570a29fc0016e,2024-11-14_10h34.47.820,Tarea de género gramatical,2024.2.2,Win32,59.52380952,,,,,,,,,,,,,,,,,,,,,,,,987.9455,989.2261,l,1,0.6073,,[],[],[],[],[],[],[],0.6073,1,989.2263,989.7146,,,,,,378,MAS,DIS,150,pastel,la,l,989.7147,989.7149,-0.006481453,-0.416666667,0,0,0,,0,50,50,377,1,,,,,
,,,,,,17149d29075fd2eda914f35d,66a626ef09d4e21e1a8894ec,6735c41d3fd570a29fc0016e,2024-11-14_10h34.47.820,Tarea de género gramatical,2024.2.2,Win32,59.52380952,,,,,,,,,,,,,,,,,,,,,,,,989.7167,990.8419,l,1,0.4507,,[],[],[],[],[],[],[],0.4507,1,990.8421,991.3472,,,,,,160,MAS,AGR,150,señor,el,l,991.3494,991.3509,-0.006481453,-0.416666667,0,0,0,,0,51,51,159,1,,,,,
,,,,,,17149d29075fd2eda914f35d,66a626ef09d4e21e1a8894ec,6735c41d3fd570a29fc0016e,2024-11-14_10h34.47.820,Tarea de género gramatical,2024.2.2,Win32,59.52380952,,,,,,,,,,,,,,,,,,,,,,,,991.3524,992.4804,l,1,0.4507,,[],[],[],[],[],[],[],0.4507,1,992.4807,992.9742,,,,,,185,MAS,CON,150,sueño,,l,992.9744,992.9746,-0.006481453,-0.416666667,0,0,0,,0,52,52,184,1,,,,,
,,,,,,17149d29075fd2eda914f35d,66a626ef09d4e21e1a8894ec,6735c41d3fd570a29fc0016e,2024-11-14_10h34.47.820,Tarea de género gramatical,2024.2.2,Win32,59.52380952,,,,,,,,,,,,,,,,,,,,,,,,992.9765,993.9964,a,1,0.3499,,[],[],[],[],[],[],[],0.3499,1,993.9966,994.4902,,,,,,367,FEM,AGR,150,teoría,la,a,994.4903,994.4905,-0.006481453,-0.416666667,0,0,0,,0,53,53,366,1,,,,,
,,,,,,17149d29075fd2eda914f35d,66a626ef09d4e21e1a8894ec,6735c41d3fd570a29fc0016e,2024-11-14_10h34.47.820,Tarea de género gramatical,2024.2.2,Win32,59.52380952,,,,,,,,,,,,,,,,,,,,,,,,994.4926,995.573,a,1,0.396,,[],[],[],[],[],[],[],0.396,1,995.5733,996.073,,,,,,247,FEM,AGR,150,frase,la,a,996.0731,996.0733,-0.006481453,-0.416666667,0,0,0,,0,54,54,246,1,,,,,
,,,,,,17149d29075fd2eda914f35d,66a626ef09d4e21e1a8894ec,6735c41d3fd570a29fc0016e,2024-11-14_10h34.47.820,Tarea de género gramatical,2024.2.2,Win32,59.52380952,,,,,,,,,,,,,,,,,,,,,,,,996.0751,997.3555,l,1,0.6006,,[],[],[],[],[],[],[],0.6006,1,997.3557,997.8436,,,,,,293,MAS,CON,150,patio,,l,997.8438,997.8439,-0.006481453,-0.416666667,0,0,0,,0,55,55,292,1,,,,,
,,,,,,17149d29075fd2eda914f35d,66a626ef09d4e21e1a8894ec,6735c41d3fd570a29fc0016e,2024-11-14_10h34.47.820,Tarea de género gramatical,2024.2.2,Win32,59.52380952,,,,,,,,,,,,,,,,,,,,,,,,997.8453,998.9434,l,1,0.4283,,[],[],[],[],[],[],[],0.4283,1,998.9435,999.4376,,,,,,300,MAS,DIS,150,túnel,la,l,999.4396,999.4408,-0.006481453,-0.416666667,0,0,0,,0,56,56,299,1,,,,,
,,,,,,17149d29075fd2eda914f35d,66a626ef09d4e21e1a8894ec,6735c41d3fd570a29fc0016e,2024-11-14_10h34.47.820,Tarea de género gramatical,2024.2.2,Win32,59.52380952,,,,,,,,,,,,,,,,,,,,,,,,999.4426,1000.6094,l,1,0.4951,,[],[],[],[],[],[],[],0.4951,1,1000.6094,1001.1033,,,,,,216,MAS,DIS,150,éxito,la,l,1001.1035,1001.1037,-0.006481453,-0.416666667,0,0,0,,0,57,57,215,1,,,,,
,,,,,,17149d29075fd2eda914f35d,66a626ef09d4e21e1a8894ec,6735c41d3fd570a29fc0016e,2024-11-14_10h34.47.820,Tarea de género gramatical,2024.2.2,Win32,59.52380952,,,,,,,,,,,,,,,,,,,,,,,,1001.1054,1002.2756,a,1,0.4947,,[],[],[],[],[],[],[],0.4947,1,1002.2757,1002.7724,,,,,,69,FEM,DIS,150,rata,el,a,1002.7725,1002.7726,-0.006481453,-0.416666667,0,0,0,,0,58,58,68,1,,,,,
,,,,,,17149d29075fd2eda914f35d,66a626ef09d4e21e1a8894ec,6735c41d3fd570a29fc0016e,2024-11-14_10h34.47.820,Tarea de género gramatical,2024.2.2,Win32,59.52380952,,,,,,,,,,,,,,,,,,,,,,,,1002.7744,1004.0749,l,1,0.6279,,[],[],[],[],[],[],[],0.6279,1,1004.075,1004.574,,,,,,406,MAS,AGR,150,premio,el,l,1004.5741,1004.5743,-0.006481453,-0.416666667,0,0,0,,0,59,59,405,1,,,,,
,,,,,,17149d29075fd2eda914f35d,66a626ef09d4e21e1a8894ec,6735c41d3fd570a29fc0016e,2024-11-14_10h34.47.820,Tarea de género gramatical,2024.2.2,Win32,59.52380952,,,,,,,,,,,,,,,,,,,,,,,,1004.576,1005.718,a,0,0.4686,,[],[],[],[],[],[],[],0.4686,0,1005.7197,1006.2065,,,,,,184,MAS,AGR,150,cielo,el,l,1006.2088,1006.2101,-0.006481453,-0.416666667,0,0,0,,0,60,60,183,1,,,,,
,,,,,,17149d29075fd2eda914f35d,66a626ef09d4e21e1a8894ec,6735c41d3fd570a29fc0016e,2024-11-14_10h34.47.820,Tarea de género gramatical,2024.2.2,Win32,59.52380952,,,,,,,,,,,,,,,,,,,,,,,,1006.2114,1007.4228,l,1,0.5342,,[],[],[],[],[],[],[],0.5342,1,1007.424,1007.9222,,,,,,118,MAS,AGR,150,baúl,el,l,1007.9223,1007.9225,-0.006481453,-0.416666667,0,0,0,,0,61,61,117,1,,,,,
,,,,,,17149d29075fd2eda914f35d,66a626ef09d4e21e1a8894ec,6735c41d3fd570a29fc0016e,2024-11-14_10h34.47.820,Tarea de género gramatical,2024.2.2,Win32,59.52380952,,,,,,,,,,,,,,,,,,,,,,,,1007.924,1009.1042,a,1,0.5106,,[],[],[],[],[],[],[],0.5106,1,1009.1043,1009.5993,,,,,,309,FEM,DIS,150,esposa,el,a,1009.5994,1009.5996,-0.006481453,-0.416666667,0,0,0,,0,62,62,308,1,,,,,
,,,,,,17149d29075fd2eda914f35d,66a626ef09d4e21e1a8894ec,6735c41d3fd570a29fc0016e,2024-11-14_10h34.47.820,Tarea de género gramatical,2024.2.2,Win32,59.52380952,,,,,,,,,,,,,,,,,,,,,,,,1009.6013,1011.0319,l,1,0.7504,,[],[],[],[],[],[],[],0.7504,1,1011.0321,1011.5204,,,,,,294,MAS,DIS,150,cable,la,l,1011.5204,1011.5206,-0.006481453,-0.416666667,0,0,0,,0,63,63,293,1,,,,,
,,,,,,17149d29075fd2eda914f35d,66a626ef09d4e21e1a8894ec,6735c41d3fd570a29fc0016e,2024-11-14_10h34.47.820,Tarea de género gramatical,2024.2.2,Win32,59.52380952,,,,,,,,,,,,,,,,,,,,,,,,1011.5221,1012.7537,a,1,0.5612,,[],[],[],[],[],[],[],0.5612,1,1012.7538,1013.2476,,,,,,248,FEM,CON,150,letra,,a,1013.2477,1013.2479,-0.006481453,-0.416666667,0,0,0,,0,64,64,247,1,,,,,
,,,,,,17149d29075fd2eda914f35d,66a626ef09d4e21e1a8894ec,6735c41d3fd570a29fc0016e,2024-11-14_10h34.47.820,Tarea de género gramatical,2024.2.2,Win32,59.52380952,,,,,,,,,,,,,,,,,,,,,,,,1013.2498,1014.435,a,1,0.512,,[],[],[],[],[],[],[],0.512,1,1014.4351,1014.9342,,,,,,85,FEM,AGR,150,gira,la,a,1014.9349,1014.9353,-0.006481453,-0.416666667,0,0,0,,0,65,65,84,1,,,,,
,,,,,,17149d29075fd2eda914f35d,66a626ef09d4e21e1a8894ec,6735c41d3fd570a29fc0016e,2024-11-14_10h34.47.820,Tarea de género gramatical,2024.2.2,Win32,59.52380952,,,,,,,,,,,,,,,,,,,,,,,,1014.9356,1016.1009,l,1,0.4832,,[],[],[],[],[],[],[],0.4832,1,1016.1009,1016.5988,,,,,,144,MAS,DIS,150,amor,la,l,1016.5988,1016.599,-0.006481453,-0.416666667,0,0,0,,0,66,66,143,1,,,,,
,,,,,,17149d29075fd2eda914f35d,66a626ef09d4e21e1a8894ec,6735c41d3fd570a29fc0016e,2024-11-14_10h34.47.820,Tarea de género gramatical,2024.2.2,Win32,59.52380952,,,,,,,,,,,,,,,,,,,,,,,,1016.6008,1017.8454,a,1,0.5842,,[],[],[],[],[],[],[],0.5842,1,1017.8456,1018.3339,,,,,,236,FEM,CON,150,deuda,,a,1018.334,1018.3342,-0.006481453,-0.416666667,0,0,0,,0,67,67,235,1,,,,,
,,,,,,17149d29075fd2eda914f35d,66a626ef09d4e21e1a8894ec,6735c41d3fd570a29fc0016e,2024-11-14_10h34.47.820,Tarea de género gramatical,2024.2.2,Win32,59.52380952,,,,,,,,,,,,,,,,,,,,,,,,1018.3359,1019.5612,a,1,0.5509,,[],[],[],[],[],[],[],0.5509,1,1019.5613,1020.0609,,,,,,79,FEM,AGR,150,mina,la,a,1020.061,1020.0612,-0.006481453,-0.416666667,0,0,0,,0,68,68,78,1,,,,,
,,,,,,17149d29075fd2eda914f35d,66a626ef09d4e21e1a8894ec,6735c41d3fd570a29fc0016e,2024-11-14_10h34.47.820,Tarea de género gramatical,2024.2.2,Win32,59.52380952,,,,,,,,,,,,,,,,,,,,,,,,1020.0632,1021.1771,l,0,0.4507,,[],[],[],[],[],[],[],0.4507,0,1021.1787,1021.6652,,,,,,183,FEM,DIS,150,llave,el,a,1021.6668,1021.6679,-0.006481453,-0.416666667,0,0,0,,0,69,69,182,1,,,,,
,,,,,,17149d29075fd2eda914f35d,66a626ef09d4e21e1a8894ec,6735c41d3fd570a29fc0016e,2024-11-14_10h34.47.820,Tarea de género gramatical,2024.2.2,Win32,59.52380952,,,,,,,,,,,,,,,,,,,,,,,,1021.669,1022.9316,l,1,0.5951,,[],[],[],[],[],[],[],0.5951,1,1022.9327,1023.4309,,,,,,108,MAS,DIS,150,hilo,la,l,1023.431,1023.4311,-0.006481453,-0.416666667,0,0,0,,0,70,70,107,1,,,,,
,,,,,,17149d29075fd2eda914f35d,66a626ef09d4e21e1a8894ec,6735c41d3fd570a29fc0016e,2024-11-14_10h34.47.820,Tarea de género gramatical,2024.2.2,Win32,59.52380952,,,,,,,,,,,,,,,,,,,,,,,,1023.4324,1024.6813,a,1,0.5676,,[],[],[],[],[],[],[],0.5676,1,1024.6815,1025.175,,,,,,235,FEM,AGR,150,torre,la,a,1025.1751,1025.1753,-0.006481453,-0.416666667,0,0,0,,0,71,71,234,1,,,,,
,,,,,,17149d29075fd2eda914f35d,66a626ef09d4e21e1a8894ec,6735c41d3fd570a29fc0016e,2024-11-14_10h34.47.820,Tarea de género gramatical,2024.2.2,Win32,59.52380952,,,,,,,,,,,,,,,,,,,,,,,,1025.1773,1026.4802,a,1,0.6279,,[],[],[],[],[],[],[],0.6279,1,1026.4804,1026.9796,,,,,,277,FEM,AGR,150,plaza,la,a,1026.9797,1026.9799,-0.006481453,-0.416666667,0,0,0,,0,72,72,276,1,,,,,
,,,,,,17149d29075fd2eda914f35d,66a626ef09d4e21e1a8894ec,6735c41d3fd570a29fc0016e,2024-11-14_10h34.47.820,Tarea de género gramatical,2024.2.2,Win32,59.52380952,,,,,,,,,,,,,,,,,,,,,,,,1026.9817,1028.176,a,1,0.517,,[],[],[],[],[],[],[],0.517,1,1028.1761,1028.6733,,,,,,193,FEM,AGR,150,bolsa,la,a,1028.6734,1028.6736,-0.006481453,-0.416666667,0,0,0,,0,73,73,192,1,,,,,
,,,,,,17149d29075fd2eda914f35d,66a626ef09d4e21e1a8894ec,6735c41d3fd570a29fc0016e,2024-11-14_10h34.47.820,Tarea de género gramatical,2024.2.2,Win32,59.52380952,,,,,,,,,,,,,,,,,,,,,,,,1028.6756,1029.806,l,1,0.4508,,[],[],[],[],[],[],[],0.4508,1,1029.8062,1030.2947,,,,,,18,MAS,DIS,150,tren,la,l,1030.297,1030.2985,-0.006481453,-0.416666667,0,0,0,,0,74,74,17,1,,,,,
,,,,,,17149d29075fd2eda914f35d,66a626ef09d4e21e1a8894ec,6735c41d3fd570a29fc0016e,2024-11-14_10h34.47.820,Tarea de género gramatical,2024.2.2,Win32,59.52380952,,,,,,,,,,,,,,,,,,,,,,,,1030.3001,1031.6885,l,1,0.7223,,[],[],[],[],[],[],[],0.7223,1,1031.6887,1032.177,,,,,,270,MAS,DIS,150,queso,la,l,1032.1771,1032.1773,-0.006481453,-0.416666667,0,0,0,,0,75,75,269,1,,,,,
,,,,,,17149d29075fd2eda914f35d,66a626ef09d4e21e1a8894ec,6735c41d3fd570a29fc0016e,2024-11-14_10h34.47.820,Tarea de género gramatical,2024.2.2,Win32,59.52380952,,,,,,,,,,,,,,,,,,,,,,,,1032.179,1033.2877,a,1,0.4194,,[],[],[],[],[],[],[],0.4194,1,1033.2879,1033.7875,,,,,,333,FEM,DIS,150,locura,el,a,1033.7877,1033.788,-0.006481453,-0.416666667,0,0,0,,0,76,76,332,1,,,,,
,,,,,,17149d29075fd2eda914f35d,66a626ef09d4e21e1a8894ec,6735c41d3fd570a29fc0016e,2024-11-14_10h34.47.820,Tarea de género gramatical,2024.2.2,Win32,59.52380952,,,,,,,,,,,,,,,,,,,,,,,,1033.79,1035.0926,l,1,0.6174,,[],[],[],[],[],[],[],0.6174,1,1035.0928,1035.5866,,,,,,413,MAS,CON,150,diario,,l,1035.5867,1035.5869,-0.006481453,-0.416666667,0,0,0,,0,77,77,412,1,,,,,
,,,,,,17149d29075fd2eda914f35d,66a626ef09d4e21e1a8894ec,6735c41d3fd570a29fc0016e,2024-11-14_10h34.47.820,Tarea de género gramatical,2024.2.2,Win32,59.52380952,,,,,,,,,,,,,,,,,,,,,,,,1035.5889,1036.7416,a,1,0.4949,,[],[],[],[],[],[],[],0.4949,1,1036.7417,1037.241,,,,,,81,FEM,DIS,150,cima,el,a,1037.2427,1037.244,-0.006481453,-0.416666667,0,0,0,,0,78,78,80,1,,,,,
,,,,,,17149d29075fd2eda914f35d,66a626ef09d4e21e1a8894ec,6735c41d3fd570a29fc0016e,2024-11-14_10h34.47.820,Tarea de género gramatical,2024.2.2,Win32,59.52380952,,,,,,,,,,,,,,,,,,,,,,,,1037.2452,1038.7515,a,0,0.8257,,[],[],[],[],[],[],[],0.8257,0,1038.7534,1039.2569,,,,,,156,MAS,DIS,150,amigo,la,l,1039.257,1039.2572,-0.006481453,-0.416666667,0,0,0,,0,79,79,155,1,,,,,
,,,,,,17149d29075fd2eda914f35d,66a626ef09d4e21e1a8894ec,6735c41d3fd570a29fc0016e,2024-11-14_10h34.47.820,Tarea de género gramatical,2024.2.2,Win32,59.52380952,,,,,,,,,,,,,,,,,,,,,,,,1039.2588,1040.5175,l,1,0.5845,,[],[],[],[],[],[],[],0.5845,1,1040.5193,1041.0172,,,,,,443,MAS,CON,150,templo,,l,1041.0173,1041.0175,-0.006481453,-0.416666667,0,0,0,,0,80,80,442,1,,,,,
,,,,,,17149d29075fd2eda914f35d,66a626ef09d4e21e1a8894ec,6735c41d3fd570a29fc0016e,2024-11-14_10h34.47.820,Tarea de género gramatical,2024.2.2,Win32,59.52380952,,,,,,,,,,,,,,,,,,,,,,,,1041.0194,1042.2665,a,1,0.5617,,[],[],[],[],[],[],[],0.5617,1,1042.2667,1042.7553,,,,,,404,FEM,CON,150,gloria,,a,1042.7553,1042.7555,-0.006481453,-0.416666667,0,0,0,,0,81,81,403,1,,,,,
,,,,,,17149d29075fd2eda914f35d,66a626ef09d4e21e1a8894ec,6735c41d3fd570a29fc0016e,2024-11-14_10h34.47.820,Tarea de género gramatical,2024.2.2,Win32,59.52380952,,,,,,,,,,,,,,,,,,,,,,,,1042.7573,1044.1217,l,1,0.6998,,[],[],[],[],[],[],[],0.6998,1,1044.1218,1044.6148,,,,,,78,MAS,DIS,150,oído,la,l,1044.615,1044.6151,-0.006481453,-0.416666667,0,0,0,,0,82,82,77,1,,,,,
,,,,,,17149d29075fd2eda914f35d,66a626ef09d4e21e1a8894ec,6735c41d3fd570a29fc0016e,2024-11-14_10h34.47.820,Tarea de género gramatical,2024.2.2,Win32,59.52380952,,,,,,,,,,,,,,,,,,,,,,,,1044.617,1046.0145,l,1,0.7245,,[],[],[],[],[],[],[],0.7245,1,1046.0147,1046.5143,,,,,,424,MAS,AGR,150,rastro,el,l,1046.5168,1046.5185,-0.006481453,-0.416666667,0,0,0,,0,83,83,423,1,,,,,
,,,,,,17149d29075fd2eda914f35d,66a626ef09d4e21e1a8894ec,6735c41d3fd570a29fc0016e,2024-11-14_10h34.47.820,Tarea de género gramatical,2024.2.2,Win32,59.52380952,,,,,,,,,,,,,,,,,,,,,,,,1046.5201,1047.7137,l,1,0.5206,,[],[],[],[],[],[],[],0.5206,1,1047.7139,1048.2134,,,,,,71,MAS,CON,150,pozo,,l,1048.2135,1048.2136,-0.006481453,-0.416666667,0,0,0,,0,84,84,70,1,,,,,
,,,,,,17149d29075fd2eda914f35d,66a626ef09d4e21e1a8894ec,6735c41d3fd570a29fc0016e,2024-11-14_10h34.47.820,Tarea de género gramatical,2024.2.2,Win32,59.52380952,,,,,,,,,,,,,,,,,,,,,,,,1048.2154,1049.4461,l,1,0.5509,,[],[],[],[],[],[],[],0.5509,1,1049.4463,1049.9459,,,,,,419,MAS,CON,150,cuento,,l,1049.946,1049.9462,-0.006481453,-0.416666667,0,0,0,,0,85,85,418,1,,,,,
,,,,,,17149d29075fd2eda914f35d,66a626ef09d4e21e1a8894ec,6735c41d3fd570a29fc0016e,2024-11-14_10h34.47.820,Tarea de género gramatical,2024.2.2,Win32,59.52380952,,,,,,,,,,,,,,,,,,,,,,,,1049.9479,1051.0625,l,1,0.4372,,[],[],[],[],[],[],[],0.4372,1,1051.0628,1051.551,,,,,,275,MAS,CON,150,disco,,l,1051.551,1051.5512,-0.006481453,-0.416666667,0,0,0,,0,86,86,274,1,,,,,
,,,,,,17149d29075fd2eda914f35d,66a626ef09d4e21e1a8894ec,6735c41d3fd570a29fc0016e,2024-11-14_10h34.47.820,Tarea de género gramatical,2024.2.2,Win32,59.52380952,,,,,,,,,,,,,,,,,,,,,,,,1051.553,1052.6616,l,1,0.4304,,[],[],[],[],[],[],[],0.4304,1,1052.6618,1053.15,,,,,,358,MAS,AGR,150,motivo,el,l,1053.1522,1053.1537,-0.006481453,-0.416666667,0,0,0,,0,87,87,357,1,,,,,
,,,,,,17149d29075fd2eda914f35d,66a626ef09d4e21e1a8894ec,6735c41d3fd570a29fc0016e,2024-11-14_10h34.47.820,Tarea de género gramatical,2024.2.2,Win32,59.52380952,,,,,,,,,,,,,,,,,,,,,,,,1053.1552,1054.2272,a,1,0.3935,,[],[],[],[],[],[],[],0.3935,1,1054.2274,1054.7326,,,,,,217,FEM,AGR,150,tarea,la,a,1054.7328,1054.733,-0.006481453,-0.416666667,0,0,0,,0,88,88,216,1,,,,,
,,,,,,17149d29075fd2eda914f35d,66a626ef09d4e21e1a8894ec,6735c41d3fd570a29fc0016e,2024-11-14_10h34.47.820,Tarea de género gramatical,2024.2.2,Win32,59.52380952,,,,,,,,,,,,,,,,,,,,,,,,1054.7355,1056.0931,l,1,0.6861,,[],[],[],[],[],[],[],0.6861,1,1056.0934,1056.5928,,,,,,426,MAS,DIS,150,pánico,la,l,1056.5929,1056.5931,-0.006481453,-0.416666667,0,0,0,,0,89,89,425,1,,,,,
,,,,,,17149d29075fd2eda914f35d,66a626ef09d4e21e1a8894ec,6735c41d3fd570a29fc0016e,2024-11-14_10h34.47.820,Tarea de género gramatical,2024.2.2,Win32,59.52380952,,,,,,,,,,,,,,,,,,,,,,,,1056.595,1057.7649,l,1,0.4946,,[],[],[],[],[],[],[],0.4946,1,1057.7651,1058.2588,,,,,,437,MAS,CON,150,hombro,,l,1058.2589,1058.2591,-0.006481453,-0.416666667,0,0,0,,0,90,90,436,1,,,,,
,,,,,,17149d29075fd2eda914f35d,66a626ef09d4e21e1a8894ec,6735c41d3fd570a29fc0016e,2024-11-14_10h34.47.820,Tarea de género gramatical,2024.2.2,Win32,59.52380952,,,,,,,,,,,,,,,,,,,,,,,,1058.2611,1059.4306,l,1,0.5111,,[],[],[],[],[],[],[],0.5111,1,1059.4307,1059.93,,,,,,412,MAS,AGR,150,espejo,el,l,1059.93,1059.9302,-0.006481453,-0.416666667,0,0,0,,0,91,91,411,1,,,,,
,,,,,,17149d29075fd2eda914f35d,66a626ef09d4e21e1a8894ec,6735c41d3fd570a29fc0016e,2024-11-14_10h34.47.820,Tarea de género gramatical,2024.2.2,Win32,59.52380952,,,,,,,,,,,,,,,,,,,,,,,,1059.9318,1061.4073,l,1,0.801,,[],[],[],[],[],[],[],0.801,1,1061.4075,1061.9072,,,,,,444,MAS,DIS,150,límite,la,l,1061.9097,1061.9114,-0.006481453,-0.416666667,0,0,0,,0,92,92,443,1,,,,,
,,,,,,17149d29075fd2eda914f35d,66a626ef09d4e21e1a8894ec,6735c41d3fd570a29fc0016e,2024-11-14_10h34.47.820,Tarea de género gramatical,2024.2.2,Win32,59.52380952,,,,,,,,,,,,,,,,,,,,,,,,1061.9128,1063.0953,a,1,0.5117,,[],[],[],[],[],[],[],0.5117,1,1063.0955,1063.5949,,,,,,278,FEM,CON,150,presa,,a,1063.595,1063.5952,-0.006481453,-0.416666667,0,0,0,,0,93,93,277,1,,,,,
,,,,,,17149d29075fd2eda914f35d,66a626ef09d4e21e1a8894ec,6735c41d3fd570a29fc0016e,2024-11-14_10h34.47.820,Tarea de género gramatical,2024.2.2,Win32,59.52380952,,,,,,,,,,,,,,,,,,,,,,,,1063.5969,1065.0556,l,1,0.7843,,[],[],[],[],[],[],[],0.7843,1,1065.0558,1065.5606,,,,,,390,MAS,DIS,150,rostro,la,l,1065.5608,1065.5609,-0.006481453,-0.416666667,0,0,0,,0,94,94,389,1,,,,,
,,,,,,17149d29075fd2eda914f35d,66a626ef09d4e21e1a8894ec,6735c41d3fd570a29fc0016e,2024-11-14_10h34.47.820,Tarea de género gramatical,2024.2.2,Win32,59.52380952,,,,,,,,,,,,,,,,,,,,,,,,1065.5627,1066.9379,l,1,0.7009,,[],[],[],[],[],[],[],0.7009,1,1066.9382,1067.4376,,,,,,432,MAS,DIS,150,océano,la,l,1067.4377,1067.4379,-0.006481453,-0.416666667,0,0,0,,0,95,95,431,1,,,,,
,,,,,,17149d29075fd2eda914f35d,66a626ef09d4e21e1a8894ec,6735c41d3fd570a29fc0016e,2024-11-14_10h34.47.820,Tarea de género gramatical,2024.2.2,Win32,59.52380952,,,,,,,,,,,,,,,,,,,,,,,,1067.4399,1068.7095,a,1,0.6113,,[],[],[],[],[],[],[],0.6113,1,1068.7096,1069.2034,,,,,,415,FEM,AGR,150,cabina,la,a,1069.2058,1069.2073,-0.006481453,-0.416666667,0,0,0,,0,96,96,414,1,,,,,
,,,,,,17149d29075fd2eda914f35d,66a626ef09d4e21e1a8894ec,6735c41d3fd570a29fc0016e,2024-11-14_10h34.47.820,Tarea de género gramatical,2024.2.2,Win32,59.52380952,,,,,,,,,,,,,,,,,,,,,,,,1069.2087,1070.3528,a,1,0.4631,,[],[],[],[],[],[],[],0.4631,1,1070.353,1070.8526,,,,,,433,FEM,AGR,150,huella,la,a,1070.8527,1070.8528,-0.006481453,-0.416666667,0,0,0,,0,97,97,432,1,,,,,
,,,,,,17149d29075fd2eda914f35d,66a626ef09d4e21e1a8894ec,6735c41d3fd570a29fc0016e,2024-11-14_10h34.47.820,Tarea de género gramatical,2024.2.2,Win32,59.52380952,,,,,,,,,,,,,,,,,,,,,,,,1070.8547,1071.9854,a,1,0.4528,,[],[],[],[],[],[],[],0.4528,1,1071.9856,1072.4851,,,,,,158,FEM,CON,150,chica,,a,1072.4852,1072.4854,-0.006481453,-0.416666667,0,0,0,,0,98,98,157,1,,,,,
,,,,,,17149d29075fd2eda914f35d,66a626ef09d4e21e1a8894ec,6735c41d3fd570a29fc0016e,2024-11-14_10h34.47.820,Tarea de género gramatical,2024.2.2,Win32,59.52380952,,,,,,,,,,,,,,,,,,,,,,,,1072.4873,1073.6738,l,1,0.5175,,[],[],[],[],[],[],[],0.5175,1,1073.674,1074.1674,,,,,,125,MAS,CON,150,bate,,l,1074.1675,1074.1677,-0.006481453,-0.416666667,0,0,0,,0,99,99,124,1,,,,,
,,,,,,17149d29075fd2eda914f35d,66a626ef09d4e21e1a8894ec,6735c41d3fd570a29fc0016e,2024-11-14_10h34.47.820,Tarea de género gramatical,2024.2.2,Win32,59.52380952,,,,,,,,,,,,,,,,,,,,,,,,1074.1698,1075.3232,l,1,0.495,,[],[],[],[],[],[],[],0.495,1,1075.3234,1075.8168,,,,,,137,MAS,CON,150,coco,,l,1075.8169,1075.8172,-0.006481453,-0.416666667,0,0,0,,0,100,100,136,1,,,,,
,,,,,,17149d29075fd2eda914f35d,66a626ef09d4e21e1a8894ec,6735c41d3fd570a29fc0016e,2024-11-14_10h34.47.820,Tarea de género gramatical,2024.2.2,Win32,59.52380952,,,,,,,,,,,,,,,,,,,,,,,,1075.8191,1076.9996,a,1,0.5189,,[],[],[],[],[],[],[],0.5189,1,1076.9998,1077.5048,,,,,,55,FEM,AGR,150,taza,la,a,1077.507,1077.5084,-0.006481453,-0.416666667,0,0,0,,0,101,101,54,1,,,,,
,,,,,,17149d29075fd2eda914f35d,66a626ef09d4e21e1a8894ec,6735c41d3fd570a29fc0016e,2024-11-14_10h34.47.820,Tarea de género gramatical,2024.2.2,Win32,59.52380952,,,,,,,,,,,,,,,,,,,,,,,,1077.5098,1078.832,l,1,0.6515,,[],[],[],[],[],[],[],0.6515,1,1078.8322,1079.3208,,,,,,306,MAS,DIS,150,dinero,la,l,1079.3209,1079.321,-0.006481453,-0.416666667,0,0,0,,0,102,102,305,1,,,,,
,,,,,,17149d29075fd2eda914f35d,66a626ef09d4e21e1a8894ec,6735c41d3fd570a29fc0016e,2024-11-14_10h34.47.820,Tarea de género gramatical,2024.2.2,Win32,59.52380952,,,,,,,,,,,,,,,,,,,,,,,,1079.3227,1080.6311,l,1,0.6248,,[],[],[],[],[],[],[],0.6248,1,1080.6313,1081.1195,,,,,,30,MAS,DIS,150,cine,la,l,1081.1197,1081.1198,-0.006481453,-0.416666667,0,0,0,,0,103,103,29,1,,,,,
,,,,,,17149d29075fd2eda914f35d,66a626ef09d4e21e1a8894ec,6735c41d3fd570a29fc0016e,2024-11-14_10h34.47.820,Tarea de género gramatical,2024.2.2,Win32,59.52380952,,,,,,,,,,,,,,,,,,,,,,,,1081.1214,1082.3362,l,1,0.5342,,[],[],[],[],[],[],[],0.5342,1,1082.3363,1082.8301,,,,,,384,MAS,DIS,150,pedazo,la,l,1082.8302,1082.8304,-0.006481453,-0.416666667,0,0,0,,0,104,104,383,1,,,,,
,,,,,,17149d29075fd2eda914f35d,66a626ef09d4e21e1a8894ec,6735c41d3fd570a29fc0016e,2024-11-14_10h34.47.820,Tarea de género gramatical,2024.2.2,Win32,59.52380952,,,,,,,,,,,,,,,,,,,,,,,,1082.8326,1083.9353,l,1,0.4445,,[],[],[],[],[],[],[],0.4445,1,1083.9354,1084.4293,,,,,,120,MAS,DIS,150,puño,la,l,1084.4318,1084.4334,-0.006481453,-0.416666667,0,0,0,,0,105,105,119,1,,,,,
,,,,,,17149d29075fd2eda914f35d,66a626ef09d4e21e1a8894ec,6735c41d3fd570a29fc0016e,2024-11-14_10h34.47.820,Tarea de género gramatical,2024.2.2,Win32,59.52380952,,,,,,,,,,,,,,,,,,,,,,,,1084.4348,1085.7952,a,1,0.6954,,[],[],[],[],[],[],[],0.6954,1,1085.7954,1086.3003,,,,,,73,FEM,AGR,150,roca,la,a,1086.3004,1086.3005,-0.006481453,-0.416666667,0,0,0,,0,106,106,72,1,,,,,
,,,,,,17149d29075fd2eda914f35d,66a626ef09d4e21e1a8894ec,6735c41d3fd570a29fc0016e,2024-11-14_10h34.47.820,Tarea de género gramatical,2024.2.2,Win32,59.52380952,,,,,,,,,,,,,,,,,,,,,,,,1086.302,1087.4942,a,1,0.5067,,[],[],[],[],[],[],[],0.5067,1,1087.4944,1087.9995,,,,,,2,FEM,CON,150,vida,,a,1087.9996,1087.9997,-0.006481453,-0.416666667,0,0,0,,0,107,107,1,1,,,,,
,,,,,,17149d29075fd2eda914f35d,66a626ef09d4e21e1a8894ec,6735c41d3fd570a29fc0016e,2024-11-14_10h34.47.820,Tarea de género gramatical,2024.2.2,Win32,59.52380952,,,,,,,,,,,,,,,,,,,,,,,,1088.0012,1089.2825,l,1,0.6114,,[],[],[],[],[],[],[],0.6114,1,1089.2826,1089.7766,,,,,,371,MAS,CON,150,sonido,,l,1089.7766,1089.7769,-0.006481453,-0.416666667,0,0,0,,0,108,108,370,1,,,,,
,,,,,,17149d29075fd2eda914f35d,66a626ef09d4e21e1a8894ec,6735c41d3fd570a29fc0016e,2024-11-14_10h34.47.820,Tarea de género gramatical,2024.2.2,Win32,59.52380952,,,,,,,,,,,,,,,,,,,,,,,,1089.7788,1090.8757,l,1,0.4236,,[],[],[],[],[],[],[],0.4236,1,1090.876,1091.3646,,,,,,238,MAS,AGR,150,norte,el,l,1091.3647,1091.3649,-0.006481453,-0.416666667,0,0,0,,0,109,109,237,1,,,,,
,,,,,,17149d29075fd2eda914f35d,66a626ef09d4e21e1a8894ec,6735c41d3fd570a29fc0016e,2024-11-14_10h34.47.820,Tarea de género gramatical,2024.2.2,Win32,59.52380952,,,,,,,,,,,,,,,,,,,,,,,,1091.3666,1092.5311,a,1,0.4998,,[],[],[],[],[],[],[],0.4998,1,1092.5313,1093.0249,,,,,,351,FEM,DIS,150,espada,el,a,1093.0275,1093.029,-0.006481453,-0.416666667,0,0,0,,0,110,110,350,1,,,,,
,,,,,,17149d29075fd2eda914f35d,66a626ef09d4e21e1a8894ec,6735c41d3fd570a29fc0016e,2024-11-14_10h34.47.820,Tarea de género gramatical,2024.2.2,Win32,59.52380952,,,,,,,,,,,,,,,,,,,,,,,,1093.0313,1094.2134,l,1,0.5277,,[],[],[],[],[],[],[],0.5277,1,1094.2136,1094.7131,,,,,,130,MAS,AGR,150,yate,el,l,1094.7131,1094.7133,-0.006481453,-0.416666667,0,0,0,,0,111,111,129,1,,,,,
,,,,,,17149d29075fd2eda914f35d,66a626ef09d4e21e1a8894ec,6735c41d3fd570a29fc0016e,2024-11-14_10h34.47.820,Tarea de género gramatical,2024.2.2,Win32,59.52380952,,,,,,,,,,,,,,,,,,,,,,,,1094.715,1095.9232,l,1,0.5381,,[],[],[],[],[],[],[],0.5381,1,1095.9235,1096.4288,,,,,,82,MAS,AGR,150,tubo,el,l,1096.4289,1096.429,-0.006481453,-0.416666667,0,0,0,,0,112,112,81,1,,,,,
,,,,,,17149d29075fd2eda914f35d,66a626ef09d4e21e1a8894ec,6735c41d3fd570a29fc0016e,2024-11-14_10h34.47.820,Tarea de género gramatical,2024.2.2,Win32,59.52380952,,,,,,,,,,,,,,,,,,,,,,,,1096.4308,1097.5953,l,1,0.4947,,[],[],[],[],[],[],[],0.4947,1,1097.5954,1098.0939,,,,,,250,MAS,AGR,150,cerdo,el,l,1098.094,1098.094,-0.006481453,-0.416666667,0,0,0,,0,113,113,249,1,,,,,
,,,,,,17149d29075fd2eda914f35d,66a626ef09d4e21e1a8894ec,6735c41d3fd570a29fc0016e,2024-11-14_10h34.47.820,Tarea de género gramatical,2024.2.2,Win32,59.52380952,,,,,,,,,,,,,,,,,,,,,,,,1098.095,1099.255,l,1,0.4879,,[],[],[],[],[],[],[],0.4879,1,1099.2552,1099.755,,,,,,448,MAS,AGR,150,aceite,el,l,1099.7575,1099.7589,-0.006481453,-0.416666667,0,0,0,,0,114,114,447,1,,,,,
,,,,,,17149d29075fd2eda914f35d,66a626ef09d4e21e1a8894ec,6735c41d3fd570a29fc0016e,2024-11-14_10h34.47.820,Tarea de género gramatical,2024.2.2,Win32,59.52380952,,,,,,,,,,,,,,,,,,,,,,,,1099.7604,1101.0104,a,1,0.5782,,[],[],[],[],[],[],[],0.5782,1,1101.0107,1101.5042,,,,,,129,FEM,DIS,150,rana,el,a,1101.5044,1101.5045,-0.006481453,-0.416666667,0,0,0,,0,115,115,128,1,,,,,
,,,,,,17149d29075fd2eda914f35d,66a626ef09d4e21e1a8894ec,6735c41d3fd570a29fc0016e,2024-11-14_10h34.47.820,Tarea de género gramatical,2024.2.2,Win32,59.52380952,,,,,,,,,,,,,,,,,,,,,,,,1101.5064,1102.7596,a,1,0.5674,,[],[],[],[],[],[],[],0.5674,1,1102.7597,1103.2532,,,,,,273,FEM,DIS,150,tarta,el,a,1103.2533,1103.2536,-0.006481453,-0.416666667,0,0,0,,0,116,116,272,1,,,,,
,,,,,,17149d29075fd2eda914f35d,66a626ef09d4e21e1a8894ec,6735c41d3fd570a29fc0016e,2024-11-14_10h34.47.820,Tarea de género gramatical,2024.2.2,Win32,59.52380952,,,,,,,,,,,,,,,,,,,,,,,,1103.2556,1104.4027,a,1,0.465,,[],[],[],[],[],[],[],0.465,1,1104.4029,1104.8912,,,,,,199,FEM,AGR,150,nariz,la,a,1104.8913,1104.8915,-0.006481453,-0.416666667,0,0,0,,0,117,117,198,1,,,,,
,,,,,,17149d29075fd2eda914f35d,66a626ef09d4e21e1a8894ec,6735c41d3fd570a29fc0016e,2024-11-14_10h34.47.820,Tarea de género gramatical,2024.2.2,Win32,59.52380952,,,,,,,,,,,,,,,,,,,,,,,,1104.8931,1106.1075,a,1,0.5339,,[],[],[],[],[],[],[],0.5339,1,1106.1076,1106.607,,,,,,116,FEM,CON,150,nube,,a,1106.607,1106.6072,-0.006481453,-0.416666667,0,0,0,,0,118,118,115,1,,,,,
,,,,,,17149d29075fd2eda914f35d,66a626ef09d4e21e1a8894ec,6735c41d3fd570a29fc0016e,2024-11-14_10h34.47.820,Tarea de género gramatical,2024.2.2,Win32,59.52380952,,,,,,,,,,,,,,,,,,,,,,,,1106.6089,1107.7177,l,1,0.4234,,[],[],[],[],[],[],[],0.4234,1,1107.7179,1108.2062,,,,,,382,MAS,AGR,150,teatro,el,l,1108.2083,1108.2096,-0.006481453,-0.416666667,0,0,0,,0,119,119,381,1,,,,,
,,,,,,17149d29075fd2eda914f35d,66a626ef09d4e21e1a8894ec,6735c41d3fd570a29fc0016e,2024-11-14_10h34.47.820,Tarea de género gramatical,2024.2.2,Win32,59.52380952,,,,,,,,,,,,,,,,,,,,,,,,1108.211,1109.4003,a,1,0.5067,,[],[],[],[],[],[],[],0.5067,1,1109.4005,1109.8888,,,,,,25,FEM,AGR,150,nave,la,a,1109.8888,1109.8889,-0.006481453,-0.416666667,0,0,0,,0,120,120,24,1,,,,,
,,,,,,17149d29075fd2eda914f35d,66a626ef09d4e21e1a8894ec,6735c41d3fd570a29fc0016e,2024-11-14_10h34.47.820,Tarea de género gramatical,2024.2.2,Win32,59.52380952,,,,,,,,,,,,,,,,,,,,,,,,1109.8913,1111.0052,l,1,0.4447,,[],[],[],[],[],[],[],0.4447,1,1111.0053,1111.5048,,,,,,90,MAS,DIS,150,león,la,l,1111.5049,1111.5051,-0.006481453,-0.416666667,0,0,0,,0,121,121,89,1,,,,,
,,,,,,17149d29075fd2eda914f35d,66a626ef09d4e21e1a8894ec,6735c41d3fd570a29fc0016e,2024-11-14_10h34.47.820,Tarea de género gramatical,2024.2.2,Win32,59.52380952,,,,,,,,,,,,,,,,,,,,,,,,1111.5067,1112.6048,a,1,0.4328,,[],[],[],[],[],[],[],0.4328,1,1112.6049,1113.0977,,,,,,283,FEM,AGR,150,pluma,la,a,1113.0979,1113.098,-0.006481453,-0.416666667,0,0,0,,0,122,122,282,1,,,,,
,,,,,,17149d29075fd2eda914f35d,66a626ef09d4e21e1a8894ec,6735c41d3fd570a29fc0016e,2024-11-14_10h34.47.820,Tarea de género gramatical,2024.2.2,Win32,59.52380952,,,,,,,,,,,,,,,,,,,,,,,,1113.0999,1114.1979,l,1,0.4177,,[],[],[],[],[],[],[],0.4177,1,1114.1981,1114.7031,,,,,,335,MAS,CON,150,montón,,l,1114.7054,1114.7067,-0.006481453,-0.416666667,0,0,0,,0,123,123,334,1,,,,,
,,,,,,17149d29075fd2eda914f35d,66a626ef09d4e21e1a8894ec,6735c41d3fd570a29fc0016e,2024-11-14_10h34.47.820,Tarea de género gramatical,2024.2.2,Win32,59.52380952,,,,,,,,,,,,,,,,,,,,,,,,1114.7081,1115.8134,a,1,0.4271,,[],[],[],[],[],[],[],0.4271,1,1115.8137,1116.3185,,,,,,164,FEM,CON,150,novia,,a,1116.3185,1116.3186,-0.006481453,-0.416666667,0,0,0,,0,124,124,163,1,,,,,
,,,,,,17149d29075fd2eda914f35d,66a626ef09d4e21e1a8894ec,6735c41d3fd570a29fc0016e,2024-11-14_10h34.47.820,Tarea de género gramatical,2024.2.2,Win32,59.52380952,,,,,,,,,,,,,,,,,,,,,,,,1116.3197,1117.4688,a,1,0.4676,,[],[],[],[],[],[],[],0.4676,1,1117.469,1117.9627,,,,,,314,FEM,CON,150,señora,,a,1117.9628,1117.963,-0.006481453,-0.416666667,0,0,0,,0,125,125,313,1,,,,,
,,,,,,17149d29075fd2eda914f35d,66a626ef09d4e21e1a8894ec,6735c41d3fd570a29fc0016e,2024-11-14_10h34.47.820,Tarea de género gramatical,2024.2.2,Win32,59.52380952,,,,,,,,,,,,,,,,,,,,,,,,1117.9651,1119.1118,a,1,0.487,,[],[],[],[],[],[],[],0.487,1,1119.112,1119.6007,,,,,,397,FEM,AGR,150,cuerda,la,a,1119.6008,1119.601,-0.006481453,-0.416666667,0,0,0,,0,126,126,396,1,,,,,
,,,,,,17149d29075fd2eda914f35d,66a626ef09d4e21e1a8894ec,6735c41d3fd570a29fc0016e,2024-11-14_10h34.47.820,Tarea de género gramatical,2024.2.2,Win32,59.52380952,,,,,,,,,,,,,,,,,,,,,,,,1119.6027,1120.6781,a,1,0.4006,,[],[],[],[],[],[],[],0.4006,1,1120.6783,1121.1834,,,,,,434,FEM,CON,150,corona,,a,1121.1834,1121.1835,-0.006481453,-0.416666667,0,0,0,,0,127,127,433,1,,,,,
,,,,,,17149d29075fd2eda914f35d,66a626ef09d4e21e1a8894ec,6735c41d3fd570a29fc0016e,2024-11-14_10h34.47.820,Tarea de género gramatical,2024.2.2,Win32,59.52380952,,,,,,,,,,,,,,,,,,,,,,,,1121.1853,1122.3105,l,1,0.4552,,[],[],[],[],[],[],[],0.4552,1,1122.3107,1122.8103,,,,,,34,MAS,AGR,150,gato,el,l,1122.8128,1122.8142,-0.006481453,-0.416666667,0,0,0,,0,128,128,33,1,,,,,
,,,,,,17149d29075fd2eda914f35d,66a626ef09d4e21e1a8894ec,6735c41d3fd570a29fc0016e,2024-11-14_10h34.47.820,Tarea de género gramatical,2024.2.2,Win32,59.52380952,,,,,,,,,,,,,,,,,,,,,,,,1122.8156,1124.1824,a,1,0.711,,[],[],[],[],[],[],[],0.711,1,1124.1825,1124.6815,,,,,,49,FEM,AGR,150,piel,la,a,1124.6816,1124.6817,-0.006481453,-0.416666667,0,0,0,,0,129,129,48,1,,,,,
,,,,,,17149d29075fd2eda914f35d,66a626ef09d4e21e1a8894ec,6735c41d3fd570a29fc0016e,2024-11-14_10h34.47.820,Tarea de género gramatical,2024.2.2,Win32,59.52380952,,,,,,,,,,,,,,,,,,,,,,,,1124.6832,1125.8252,l,1,0.4605,,[],[],[],[],[],[],[],0.4605,1,1125.8256,1126.3308,,,,,,281,MAS,CON,150,actor,,l,1126.3309,1126.331,-0.006481453,-0.416666667,0,0,0,,0,130,130,280,1,,,,,
,,,,,,17149d29075fd2eda914f35d,66a626ef09d4e21e1a8894ec,6735c41d3fd570a29fc0016e,2024-11-14_10h34.47.820,Tarea de género gramatical,2024.2.2,Win32,59.52380952,,,,,,,,,,,,,,,,,,,,,,,,1126.3328,1127.4973,a,0,0.4947,,[],[],[],[],[],[],[],0.4947,0,1127.4987,1127.9912,,,,,,220,MAS,AGR,150,huevo,el,l,1127.9912,1127.9915,-0.006481453,-0.416666667,0,0,0,,0,131,131,219,1,,,,,
,,,,,,17149d29075fd2eda914f35d,66a626ef09d4e21e1a8894ec,6735c41d3fd570a29fc0016e,2024-11-14_10h34.47.820,Tarea de género gramatical,2024.2.2,Win32,59.52380952,,,,,,,,,,,,,,,,,,,,,,,,1127.9934,1129.1798,l,1,0.5118,,[],[],[],[],[],[],[],0.5118,1,1129.181,1129.6735,,,,,,418,MAS,AGR,150,pájaro,el,l,1129.6758,1129.6771,-0.006481453,-0.416666667,0,0,0,,0,132,132,417,1,,,,,
,,,,,,17149d29075fd2eda914f35d,66a626ef09d4e21e1a8894ec,6735c41d3fd570a29fc0016e,2024-11-14_10h34.47.820,Tarea de género gramatical,2024.2.2,Win32,59.52380952,,,,,,,,,,,,,,,,,,,,,,,,1129.6783,1130.8455,a,1,0.5116,,[],[],[],[],[],[],[],0.5116,1,1130.8456,1131.3394,,,,,,110,FEM,CON,150,rosa,,a,1131.3396,1131.3398,-0.006481453,-0.416666667,0,0,0,,0,133,133,109,1,,,,,
,,,,,,17149d29075fd2eda914f35d,66a626ef09d4e21e1a8894ec,6735c41d3fd570a29fc0016e,2024-11-14_10h34.47.820,Tarea de género gramatical,2024.2.2,Win32,59.52380952,,,,,,,,,,,,,,,,,,,,,,,,1131.3417,1132.5447,a,0,0.5281,,[],[],[],[],[],[],[],0.5281,0,1132.5461,1133.044,,,,,,124,MAS,AGR,150,clan,el,l,1133.0441,1133.0443,-0.006481453,-0.416666667,0,0,0,,0,134,134,123,1,,,,,
,,,,,,17149d29075fd2eda914f35d,66a626ef09d4e21e1a8894ec,6735c41d3fd570a29fc0016e,2024-11-14_10h34.47.820,Tarea de género gramatical,2024.2.2,Win32,59.52380952,,,,,,,,,,,,,,,,,,,,,,,,1133.0457,1134.3603,a,1,0.6448,,[],[],[],[],[],[],[],0.6448,1,1134.3615,1134.8545,,,,,,242,FEM,CON,150,pizza,,a,1134.8546,1134.8548,-0.006481453,-0.416666667,0,0,0,,0,135,135,241,1,,,,,
,,,,,,17149d29075fd2eda914f35d,66a626ef09d4e21e1a8894ec,6735c41d3fd570a29fc0016e,2024-11-14_10h34.47.820,Tarea de género gramatical,2024.2.2,Win32,59.52380952,,,,,,,,,,,,,,,,,,,,,,,,1134.8565,1136.0595,a,1,0.534,,[],[],[],[],[],[],[],0.534,1,1136.0597,1136.5534,,,,,,134,FEM,CON,150,rama,,a,1136.5536,1136.5538,-0.006481453,-0.416666667,0,0,0,,0,136,136,133,1,,,,,
,,,,,,17149d29075fd2eda914f35d,66a626ef09d4e21e1a8894ec,6735c41d3fd570a29fc0016e,2024-11-14_10h34.47.820,Tarea de género gramatical,2024.2.2,Win32,59.52380952,,,,,,,,,,,,,,,,,,,,,,,,1136.5557,1137.7755,l,1,0.5508,,[],[],[],[],[],[],[],0.5508,1,1137.7756,1138.2749,,,,,,76,MAS,AGR,150,lujo,el,l,1138.277,1138.2783,-0.006481453,-0.416666667,0,0,0,,0,137,137,75,1,,,,,
,,,,,,17149d29075fd2eda914f35d,66a626ef09d4e21e1a8894ec,6735c41d3fd570a29fc0016e,2024-11-14_10h34.47.820,Tarea de género gramatical,2024.2.2,Win32,59.52380952,,,,,,,,,,,,,,,,,,,,,,,,1138.2795,1139.4023,l,0,0.4514,,[],[],[],[],[],[],[],0.4514,0,1139.4039,1139.9019,,,,,,74,FEM,CON,150,flor,,a,1139.9021,1139.9022,-0.006481453,-0.416666667,0,0,0,,0,138,138,73,1,,,,,
,,,,,,17149d29075fd2eda914f35d,66a626ef09d4e21e1a8894ec,6735c41d3fd570a29fc0016e,2024-11-14_10h34.47.820,Tarea de género gramatical,2024.2.2,Win32,59.52380952,,,,,,,,,,,,,,,,,,,,,,,,1139.9042,1141.0511,l,1,0.4873,,[],[],[],[],[],[],[],0.4873,1,1141.0527,1141.5564,,,,,,234,MAS,DIS,150,héroe,la,l,1141.5565,1141.5567,-0.006481453,-0.416666667,0,0,0,,0,139,139,233,1,,,,,
,,,,,,17149d29075fd2eda914f35d,66a626ef09d4e21e1a8894ec,6735c41d3fd570a29fc0016e,2024-11-14_10h34.47.820,Tarea de género gramatical,2024.2.2,Win32,59.52380952,,,,,,,,,,,,,,,,,,,,,,,,1141.5582,1142.6839,l,1,0.4507,,[],[],[],[],[],[],[],0.4507,1,1142.684,1143.1724,,,,,,174,MAS,DIS,150,perro,la,l,1143.1724,1143.1727,-0.006481453,-0.416666667,0,0,0,,0,140,140,173,1,,,,,
,,,,,,17149d29075fd2eda914f35d,66a626ef09d4e21e1a8894ec,6735c41d3fd570a29fc0016e,2024-11-14_10h34.47.820,Tarea de género gramatical,2024.2.2,Win32,59.52380952,,,,,,,,,,,,,,,,,,,,,,,,1143.1743,1144.4057,l,1,0.5615,,[],[],[],[],[],[],[],0.5615,1,1144.4058,1144.9048,,,,,,324,MAS,DIS,150,cuarto,la,l,1144.9069,1144.9081,-0.006481453,-0.416666667,0,0,0,,0,141,141,323,1,,,,,
,,,,,,17149d29075fd2eda914f35d,66a626ef09d4e21e1a8894ec,6735c41d3fd570a29fc0016e,2024-11-14_10h34.47.820,Tarea de género gramatical,2024.2.2,Win32,59.52380952,,,,,,,,,,,,,,,,,,,,,,,,1144.9094,1146.1156,l,1,0.5346,,[],[],[],[],[],[],[],0.5346,1,1146.1158,1146.6208,,,,,,232,MAS,AGR,150,calor,el,l,1146.6209,1146.6211,-0.006481453,-0.416666667,0,0,0,,0,142,142,231,1,,,,,
,,,,,,17149d29075fd2eda914f35d,66a626ef09d4e21e1a8894ec,6735c41d3fd570a29fc0016e,2024-11-14_10h34.47.820,Tarea de género gramatical,2024.2.2,Win32,59.52380952,,,,,,,,,,,,,,,,,,,,,,,,1146.6227,1147.9812,l,1,0.6756,,[],[],[],[],[],[],[],0.6756,1,1147.9814,1148.4865,,,,,,126,MAS,DIS,150,lazo,la,l,1148.4865,1148.4866,-0.006481453,-0.416666667,0,0,0,,0,143,143,125,1,,,,,
,,,,,,17149d29075fd2eda914f35d,66a626ef09d4e21e1a8894ec,6735c41d3fd570a29fc0016e,2024-11-14_10h34.47.820,Tarea de género gramatical,2024.2.2,Win32,59.52380952,,,,,,,,,,,,,,,,,,,,,,,,1148.4884,1149.697,l,0,0.5343,,[],[],[],[],[],[],[],0.5343,0,1149.6987,1150.2022,,,,,,213,FEM,DIS,150,magia,el,a,1150.2023,1150.2025,-0.006481453,-0.416666667,0,0,0,,0,144,144,212,1,,,,,
,,,,,,17149d29075fd2eda914f35d,66a626ef09d4e21e1a8894ec,6735c41d3fd570a29fc0016e,2024-11-14_10h34.47.820,Tarea de género gramatical,2024.2.2,Win32,59.52380952,,,,,,,,,,,,,,,,,,,,,,,,1150.204,1151.352,l,1,0.4675,,[],[],[],[],[],[],[],0.4675,1,1151.3532,1151.8461,,,,,,202,MAS,AGR,150,honor,el,l,1151.8462,1151.8464,-0.006481453,-0.416666667,0,0,0,,0,145,145,201,1,,,,,
,,,,,,17149d29075fd2eda914f35d,66a626ef09d4e21e1a8894ec,6735c41d3fd570a29fc0016e,2024-11-14_10h34.47.820,Tarea de género gramatical,2024.2.2,Win32,59.52380952,,,,,,,,,,,,,,,,,,,,,,,,1151.8484,1153.5177,l,1,1.011,,[],[],[],[],[],[],[],1.011,1,1153.5178,1154.0172,,,,,,210,MAS,DIS,150,baile,la,l,1154.0193,1154.0206,-0.006481453,-0.416666667,0,0,0,,0,146,146,209,1,,,,,
,,,,,,17149d29075fd2eda914f35d,66a626ef09d4e21e1a8894ec,6735c41d3fd570a29fc0016e,2024-11-14_10h34.47.820,Tarea de género gramatical,2024.2.2,Win32,59.52380952,,,,,,,,,,,,,,,,,,,,,,,,1154.0219,1155.2336,a,1,0.5342,,[],[],[],[],[],[],[],0.5342,1,1155.2338,1155.7329,,,,,,9,FEM,DIS,150,mamá,el,a,1155.7331,1155.7333,-0.006481453,-0.416666667,0,0,0,,0,147,147,8,1,,,,,
,,,,,,17149d29075fd2eda914f35d,66a626ef09d4e21e1a8894ec,6735c41d3fd570a29fc0016e,2024-11-14_10h34.47.820,Tarea de género gramatical,2024.2.2,Win32,59.52380952,,,,,,,,,,,,,,,,,,,,,,,,1155.735,1156.9767,a,1,0.5582,,[],[],[],[],[],[],[],0.5582,1,1156.9769,1157.4821,,,,,,1,FEM,AGR,150,casa,la,a,1157.4822,1157.4824,-0.006481453,-0.416666667,0,0,0,,0,148,148,0,1,,,,,
,,,,,,17149d29075fd2eda914f35d,66a626ef09d4e21e1a8894ec,6735c41d3fd570a29fc0016e,2024-11-14_10h34.47.820,Tarea de género gramatical,2024.2.2,Win32,59.52380952,,,,,,,,,,,,,,,,,,,,,,,,1157.4839,1158.6485,a,1,0.4946,,[],[],[],[],[],[],[],0.4946,1,1158.6487,1159.1452,,,,,,290,FEM,CON,150,cabra,,a,1159.1452,1159.1454,-0.006481453,-0.416666667,0,0,0,,0,149,149,289,1,,,,,
,,,,,,17149d29075fd2eda914f35d,66a626ef09d4e21e1a8894ec,6735c41d3fd570a29fc0016e,2024-11-14_10h34.47.820,Tarea de género gramatical,2024.2.2,Win32,59.52380952,,,,,,,,,,,,,,,,,,,,,,,,1159.147,1160.6092,a,1,0.7788,,[],[],[],[],[],[],[],0.7788,1,1160.6094,1161.1135,,,,,,391,FEM,AGR,150,altura,la,a,1161.1156,1179.2836,-0.006481453,-0.416666667,1,0,0,,0,150,150,390,1,break_done_button,,,,
,,,,,,17149d29075fd2eda914f35d,66a626ef09d4e21e1a8894ec,6735c41d3fd570a29fc0016e,2024-11-14_10h34.47.820,Tarea de género gramatical,2024.2.2,Win32,59.52380952,,,,,,,,,,,,,,,,,,,,,,,,1179.2856,1180.7207,l,0,0.7672,,[],[],[],[],[],[],[],0.7672,0,1180.7214,1181.215,,,,,,135,FEM,DIS,150,raíz,el,a,1181.215,1181.2153,-0.006481453,-0.416666667,0,0,0,,0,151,151,134,1,,,,,
,,,,,,17149d29075fd2eda914f35d,66a626ef09d4e21e1a8894ec,6735c41d3fd570a29fc0016e,2024-11-14_10h34.47.820,Tarea de género gramatical,2024.2.2,Win32,59.52380952,,,,,,,,,,,,,,,,,,,,,,,,1181.2172,1182.6535,a,1,0.7779,,[],[],[],[],[],[],[],0.7779,1,1182.6548,1183.1472,,,,,,219,FEM,DIS,150,costa,el,a,1183.1472,1183.1474,-0.006481453,-0.416666667,0,0,0,,0,152,152,218,1,,,,,
,,,,,,17149d29075fd2eda914f35d,66a626ef09d4e21e1a8894ec,6735c41d3fd570a29fc0016e,2024-11-14_10h34.47.820,Tarea de género gramatical,2024.2.2,Win32,59.52380952,,,,,,,,,,,,,,,,,,,,,,,,1183.1494,1184.4,a,1,0.5752,,[],[],[],[],[],[],[],0.5752,1,1184.4001,1184.9013,,,,,,223,FEM,AGR,150,plata,la,a,1184.9013,1184.9015,-0.006481453,-0.416666667,0,0,0,,0,153,153,222,1,,,,,
,,,,,,17149d29075fd2eda914f35d,66a626ef09d4e21e1a8894ec,6735c41d3fd570a29fc0016e,2024-11-14_10h34.47.820,Tarea de género gramatical,2024.2.2,Win32,59.52380952,,,,,,,,,,,,,,,,,,,,,,,,1184.903,1186.046,a,1,0.457,,[],[],[],[],[],[],[],0.457,1,1186.0462,1186.5344,,,,,,128,FEM,CON,150,leña,,a,1186.5344,1186.5346,-0.006481453,-0.416666667,0,0,0,,0,154,154,127,1,,,,,
,,,,,,17149d29075fd2eda914f35d,66a626ef09d4e21e1a8894ec,6735c41d3fd570a29fc0016e,2024-11-14_10h34.47.820,Tarea de género gramatical,2024.2.2,Win32,59.52380952,,,,,,,,,,,,,,,,,,,,,,,,1186.5363,1187.6178,a,1,0.4166,,[],[],[],[],[],[],[],0.4166,1,1187.6179,1188.117,,,,,,416,FEM,CON,150,colina,,a,1188.1193,1188.1208,-0.006481453,-0.416666667,0,0,0,,0,155,155,415,1,,,,,
,,,,,,17149d29075fd2eda914f35d,66a626ef09d4e21e1a8894ec,6735c41d3fd570a29fc0016e,2024-11-14_10h34.47.820,Tarea de género gramatical,2024.2.2,Win32,59.52380952,,,,,,,,,,,,,,,,,,,,,,,,1188.1222,1189.3667,a,1,0.5675,,[],[],[],[],[],[],[],0.5675,1,1189.3668,1189.866,,,,,,291,FEM,DIS,150,aguja,el,a,1189.8662,1189.8663,-0.006481453,-0.416666667,0,0,0,,0,156,156,290,1,,,,,
,,,,,,17149d29075fd2eda914f35d,66a626ef09d4e21e1a8894ec,6735c41d3fd570a29fc0016e,2024-11-14_10h34.47.820,Tarea de género gramatical,2024.2.2,Win32,59.52380952,,,,,,,,,,,,,,,,,,,,,,,,1189.8679,1190.9658,l,1,0.4281,,[],[],[],[],[],[],[],0.4281,1,1190.966,1191.4599,,,,,,304,MAS,AGR,150,tiempo,el,l,1191.4601,1191.4602,-0.006481453,-0.416666667,0,0,0,,0,157,157,303,1,,,,,
,,,,,,17149d29075fd2eda914f35d,66a626ef09d4e21e1a8894ec,6735c41d3fd570a29fc0016e,2024-11-14_10h34.47.820,Tarea de género gramatical,2024.2.2,Win32,59.52380952,,,,,,,,,,,,,,,,,,,,,,,,1191.4621,1192.6152,l,1,0.4783,,[],[],[],[],[],[],[],0.4783,1,1192.6153,1193.1146,,,,,,17,MAS,CON,150,modo,,l,1193.1147,1193.1148,-0.006481453,-0.416666667,0,0,0,,0,158,158,16,1,,,,,
,,,,,,17149d29075fd2eda914f35d,66a626ef09d4e21e1a8894ec,6735c41d3fd570a29fc0016e,2024-11-14_10h34.47.820,Tarea de género gramatical,2024.2.2,Win32,59.52380952,,,,,,,,,,,,,,,,,,,,,,,,1193.1165,1194.3143,a,1,0.5281,,[],[],[],[],[],[],[],0.5281,1,1194.3145,1194.8082,,,,,,285,FEM,DIS,150,mafia,el,a,1194.8107,1194.8123,-0.006481453,-0.416666667,0,0,0,,0,159,159,284,1,,,,,
,,,,,,17149d29075fd2eda914f35d,66a626ef09d4e21e1a8894ec,6735c41d3fd570a29fc0016e,2024-11-14_10h34.47.820,Tarea de género gramatical,2024.2.2,Win32,59.52380952,,,,,,,,,,,,,,,,,,,,,,,,1194.8137,1196.3073,a,0,0.8196,,[],[],[],[],[],[],[],0.8196,0,1196.309,1196.8125,,,,,,132,MAS,DIS,150,velo,la,l,1196.8126,1196.8128,-0.006481453,-0.416666667,0,0,0,,0,160,160,131,1,,,,,
,,,,,,17149d29075fd2eda914f35d,66a626ef09d4e21e1a8894ec,6735c41d3fd570a29fc0016e,2024-11-14_10h34.47.820,Tarea de género gramatical,2024.2.2,Win32,59.52380952,,,,,,,,,,,,,,,,,,,,,,,,1196.8142,1197.9289,a,1,0.445,,[],[],[],[],[],[],[],0.445,1,1197.93,1198.4283,,,,,,260,FEM,CON,150,barra,,a,1198.4284,1198.4285,-0.006481453,-0.416666667,0,0,0,,0,161,161,259,1,,,,,
,,,,,,17149d29075fd2eda914f35d,66a626ef09d4e21e1a8894ec,6735c41d3fd570a29fc0016e,2024-11-14_10h34.47.820,Tarea de género gramatical,2024.2.2,Win32,59.52380952,,,,,,,,,,,,,,,,,,,,,,,,1198.4299,1199.6617,l,1,0.5508,,[],[],[],[],[],[],[],0.5508,1,1199.6618,1200.1611,,,,,,89,MAS,CON,150,maíz,,l,1200.1612,1200.1613,-0.006481453,-0.416666667,0,0,0,,0,162,162,88,1,,,,,
,,,,,,17149d29075fd2eda914f35d,66a626ef09d4e21e1a8894ec,6735c41d3fd570a29fc0016e,2024-11-14_10h34.47.820,Tarea de género gramatical,2024.2.2,Win32,59.52380952,,,,,,,,,,,,,,,,,,,,,,,,1200.163,1201.3608,a,1,0.5174,,[],[],[],[],[],[],[],0.5174,1,1201.361,1201.8548,,,,,,175,FEM,AGR,150,señal,la,a,1201.855,1201.8552,-0.006481453,-0.416666667,0,0,0,,0,163,163,174,1,,,,,
,,,,,,17149d29075fd2eda914f35d,66a626ef09d4e21e1a8894ec,6735c41d3fd570a29fc0016e,2024-11-14_10h34.47.820,Tarea de género gramatical,2024.2.2,Win32,59.52380952,,,,,,,,,,,,,,,,,,,,,,,,1201.8571,1203.0764,a,1,0.5446,,[],[],[],[],[],[],[],0.5446,1,1203.0767,1203.5705,,,,,,411,FEM,DIS,150,actriz,el,a,1203.5728,1203.5741,-0.006481453,-0.416666667,0,0,0,,0,164,164,410,1,,,,,
,,,,,,17149d29075fd2eda914f35d,66a626ef09d4e21e1a8894ec,6735c41d3fd570a29fc0016e,2024-11-14_10h34.47.820,Tarea de género gramatical,2024.2.2,Win32,59.52380952,,,,,,,,,,,,,,,,,,,,,,,,1203.5754,1204.7866,l,1,0.5336,,[],[],[],[],[],[],[],0.5336,1,1204.7868,1205.2752,,,,,,360,MAS,DIS,150,puente,la,l,1205.2754,1205.2755,-0.006481453,-0.416666667,0,0,0,,0,165,165,359,1,,,,,
,,,,,,17149d29075fd2eda914f35d,66a626ef09d4e21e1a8894ec,6735c41d3fd570a29fc0016e,2024-11-14_10h34.47.820,Tarea de género gramatical,2024.2.2,Win32,59.52380952,,,,,,,,,,,,,,,,,,,,,,,,1205.2772,1206.5252,a,1,0.5675,,[],[],[],[],[],[],[],0.5675,1,1206.5253,1207.0245,,,,,,86,FEM,CON,150,cruz,,a,1207.0245,1207.0246,-0.006481453,-0.416666667,0,0,0,,0,166,166,85,1,,,,,
,,,,,,17149d29075fd2eda914f35d,66a626ef09d4e21e1a8894ec,6735c41d3fd570a29fc0016e,2024-11-14_10h34.47.820,Tarea de género gramatical,2024.2.2,Win32,59.52380952,,,,,,,,,,,,,,,,,,,,,,,,1207.0263,1208.2516,l,1,0.54,,[],[],[],[],[],[],[],0.54,1,1208.2518,1208.7569,,,,,,330,MAS,DIS,150,estado,la,l,1208.7569,1208.7571,-0.006481453,-0.416666667,0,0,0,,0,167,167,329,1,,,,,
,,,,,,17149d29075fd2eda914f35d,66a626ef09d4e21e1a8894ec,6735c41d3fd570a29fc0016e,2024-11-14_10h34.47.820,Tarea de género gramatical,2024.2.2,Win32,59.52380952,,,,,,,,,,,,,,,,,,,,,,,,1208.7587,1209.8901,l,1,0.4613,,[],[],[],[],[],[],[],0.4613,1,1209.8903,1210.3839,,,,,,341,MAS,CON,150,precio,,l,1210.3863,1210.3877,-0.006481453,-0.416666667,0,0,0,,0,168,168,340,1,,,,,
,,,,,,17149d29075fd2eda914f35d,66a626ef09d4e21e1a8894ec,6735c41d3fd570a29fc0016e,2024-11-14_10h34.47.820,Tarea de género gramatical,2024.2.2,Win32,59.52380952,,,,,,,,,,,,,,,,,,,,,,,,1210.3891,1211.5833,l,1,0.534,,[],[],[],[],[],[],[],0.534,1,1211.5834,1212.0884,,,,,,4,MAS,AGR,150,hijo,el,l,1212.0884,1212.0887,-0.006481453,-0.416666667,0,0,0,,0,169,169,3,1,,,,,
,,,,,,17149d29075fd2eda914f35d,66a626ef09d4e21e1a8894ec,6735c41d3fd570a29fc0016e,2024-11-14_10h34.47.820,Tarea de género gramatical,2024.2.2,Win32,59.52380952,,,,,,,,,,,,,,,,,,,,,,,,1212.0901,1213.2992,a,1,0.524,,[],[],[],[],[],[],[],0.524,1,1213.2993,1213.7877,,,,,,68,FEM,CON,150,pata,,a,1213.7878,1213.7879,-0.006481453,-0.416666667,0,0,0,,0,170,170,67,1,,,,,
,,,,,,17149d29075fd2eda914f35d,66a626ef09d4e21e1a8894ec,6735c41d3fd570a29fc0016e,2024-11-14_10h34.47.820,Tarea de género gramatical,2024.2.2,Win32,59.52380952,,,,,,,,,,,,,,,,,,,,,,,,1213.7894,1214.9376,a,1,0.4781,,[],[],[],[],[],[],[],0.4781,1,1214.9377,1215.4369,,,,,,200,FEM,CON,150,silla,,a,1215.437,1215.4372,-0.006481453,-0.416666667,0,0,0,,0,171,171,199,1,,,,,
,,,,,,17149d29075fd2eda914f35d,66a626ef09d4e21e1a8894ec,6735c41d3fd570a29fc0016e,2024-11-14_10h34.47.820,Tarea de género gramatical,2024.2.2,Win32,59.52380952,,,,,,,,,,,,,,,,,,,,,,,,1215.4389,1216.6034,a,1,0.4947,,[],[],[],[],[],[],[],0.4947,1,1216.6036,1217.0973,,,,,,289,FEM,AGR,150,tabla,la,a,1217.0974,1217.0976,-0.006481453,-0.416666667,0,0,0,,0,172,172,288,1,,,,,
,,,,,,17149d29075fd2eda914f35d,66a626ef09d4e21e1a8894ec,6735c41d3fd570a29fc0016e,2024-11-14_10h34.47.820,Tarea de género gramatical,2024.2.2,Win32,59.52380952,,,,,,,,,,,,,,,,,,,,,,,,1217.0996,1218.2859,a,1,0.5111,,[],[],[],[],[],[],[],0.5111,1,1218.2861,1218.7851,,,,,,87,FEM,DIS,150,risa,el,a,1218.7871,1218.7884,-0.006481453,-0.416666667,0,0,0,,0,173,173,86,1,,,,,
,,,,,,17149d29075fd2eda914f35d,66a626ef09d4e21e1a8894ec,6735c41d3fd570a29fc0016e,2024-11-14_10h34.47.820,Tarea de género gramatical,2024.2.2,Win32,59.52380952,,,,,,,,,,,,,,,,,,,,,,,,1218.7897,1220.2349,l,1,0.7782,,[],[],[],[],[],[],[],0.7782,1,1220.235,1220.7342,,,,,,83,MAS,CON,150,nene,,l,1220.7343,1220.7344,-0.006481453,-0.416666667,0,0,0,,0,174,174,82,1,,,,,
,,,,,,17149d29075fd2eda914f35d,66a626ef09d4e21e1a8894ec,6735c41d3fd570a29fc0016e,2024-11-14_10h34.47.820,Tarea de género gramatical,2024.2.2,Win32,59.52380952,,,,,,,,,,,,,,,,,,,,,,,,1220.7361,1221.8839,a,1,0.4673,,[],[],[],[],[],[],[],0.4673,1,1221.884,1222.3834,,,,,,387,FEM,DIS,150,página,el,a,1222.3835,1222.3836,-0.006481453,-0.416666667,0,0,0,,0,175,175,386,1,,,,,
,,,,,,17149d29075fd2eda914f35d,66a626ef09d4e21e1a8894ec,6735c41d3fd570a29fc0016e,2024-11-14_10h34.47.820,Tarea de género gramatical,2024.2.2,Win32,59.52380952,,,,,,,,,,,,,,,,,,,,,,,,1222.3851,1223.7487,l,0,0.6832,,[],[],[],[],[],[],[],0.6832,0,1223.7494,1224.2438,,,,,,380,FEM,CON,150,madera,,a,1224.2438,1224.244,-0.006481453,-0.416666667,0,0,0,,0,176,176,379,1,,,,,
,,,,,,17149d29075fd2eda914f35d,66a626ef09d4e21e1a8894ec,6735c41d3fd570a29fc0016e,2024-11-14_10h34.47.820,Tarea de género gramatical,2024.2.2,Win32,59.52380952,,,,,,,,,,,,,,,,,,,,,,,,1224.2458,1225.3992,l,1,0.4949,,[],[],[],[],[],[],[],0.4949,1,1225.4005,1225.8982,,,,,,395,MAS,CON,150,correo,,l,1225.9004,1225.9015,-0.006481453,-0.416666667,0,0,0,,0,177,177,394,1,,,,,
,,,,,,17149d29075fd2eda914f35d,66a626ef09d4e21e1a8894ec,6735c41d3fd570a29fc0016e,2024-11-14_10h34.47.820,Tarea de género gramatical,2024.2.2,Win32,59.52380952,,,,,,,,,,,,,,,,,,,,,,,,1225.9028,1227.2789,l,1,0.7086,,[],[],[],[],[],[],[],0.7086,1,1227.279,1227.7755,,,,,,438,MAS,DIS,150,tanque,la,l,1227.7755,1227.7758,-0.006481453,-0.416666667,0,0,0,,0,178,178,437,1,,,,,
,,,,,,17149d29075fd2eda914f35d,66a626ef09d4e21e1a8894ec,6735c41d3fd570a29fc0016e,2024-11-14_10h34.47.820,Tarea de género gramatical,2024.2.2,Win32,59.52380952,,,,,,,,,,,,,,,,,,,,,,,,1227.7777,1229.1111,a,1,0.6506,,[],[],[],[],[],[],[],0.6506,1,1229.1112,1229.6077,,,,,,67,FEM,AGR,150,miel,la,a,1229.6078,1229.608,-0.006481453,-0.416666667,0,0,0,,0,179,179,66,1,,,,,
,,,,,,17149d29075fd2eda914f35d,66a626ef09d4e21e1a8894ec,6735c41d3fd570a29fc0016e,2024-11-14_10h34.47.820,Tarea de género gramatical,2024.2.2,Win32,59.52380952,,,,,,,,,,,,,,,,,,,,,,,,1229.6098,1230.7128,a,1,0.4279,,[],[],[],[],[],[],[],0.4279,1,1230.713,1231.207,,,,,,350,FEM,CON,150,imagen,,a,1231.2071,1231.2074,-0.006481453,-0.416666667,0,0,0,,0,180,180,349,1,,,,,
,,,,,,17149d29075fd2eda914f35d,66a626ef09d4e21e1a8894ec,6735c41d3fd570a29fc0016e,2024-11-14_10h34.47.820,Tarea de género gramatical,2024.2.2,Win32,59.52380952,,,,,,,,,,,,,,,,,,,,,,,,1231.2093,1232.4458,l,1,0.5674,,[],[],[],[],[],[],[],0.5674,1,1232.4461,1232.945,,,,,,215,MAS,CON,150,hueso,,l,1232.945,1232.9452,-0.006481453,-0.416666667,0,0,0,,0,181,181,214,1,,,,,
,,,,,,17149d29075fd2eda914f35d,66a626ef09d4e21e1a8894ec,6735c41d3fd570a29fc0016e,2024-11-14_10h34.47.820,Tarea de género gramatical,2024.2.2,Win32,59.52380952,,,,,,,,,,,,,,,,,,,,,,,,1232.9468,1234.2446,l,1,0.633,,[],[],[],[],[],[],[],0.633,1,1234.2448,1234.7441,,,,,,23,MAS,CON,150,rato,,l,1234.7463,1234.7477,-0.006481453,-0.416666667,0,0,0,,0,182,182,22,1,,,,,
,,,,,,17149d29075fd2eda914f35d,66a626ef09d4e21e1a8894ec,6735c41d3fd570a29fc0016e,2024-11-14_10h34.47.820,Tarea de género gramatical,2024.2.2,Win32,59.52380952,,,,,,,,,,,,,,,,,,,,,,,,1234.7489,1236.0212,l,1,0.6049,,[],[],[],[],[],[],[],0.6049,1,1236.0214,1236.5261,,,,,,35,MAS,CON,150,taxi,,l,1236.5261,1236.5263,-0.006481453,-0.416666667,0,0,0,,0,183,183,34,1,,,,,
,,,,,,17149d29075fd2eda914f35d,66a626ef09d4e21e1a8894ec,6735c41d3fd570a29fc0016e,2024-11-14_10h34.47.820,Tarea de género gramatical,2024.2.2,Win32,59.52380952,,,,,,,,,,,,,,,,,,,,,,,,1236.5274,1237.7091,a,1,0.512,,[],[],[],[],[],[],[],0.512,1,1237.7092,1238.2086,,,,,,8,FEM,CON,150,idea,,a,1238.2086,1238.2088,-0.006481453,-0.416666667,0,0,0,,0,184,184,7,1,,,,,
,,,,,,17149d29075fd2eda914f35d,66a626ef09d4e21e1a8894ec,6735c41d3fd570a29fc0016e,2024-11-14_10h34.47.820,Tarea de género gramatical,2024.2.2,Win32,59.52380952,,,,,,,,,,,,,,,,,,,,,,,,1238.2099,1239.5081,l,1,0.6171,,[],[],[],[],[],[],[],0.6171,1,1239.5083,1240.0029,,,,,,257,MAS,CON,150,pecho,,l,1240.0031,1240.0032,-0.006481453,-0.416666667,0,0,0,,0,185,185,256,1,,,,,
,,,,,,17149d29075fd2eda914f35d,66a626ef09d4e21e1a8894ec,6735c41d3fd570a29fc0016e,2024-11-14_10h34.47.820,Tarea de género gramatical,2024.2.2,Win32,59.52380952,,,,,,,,,,,,,,,,,,,,,,,,1240.0051,1241.1852,a,1,0.5043,,[],[],[],[],[],[],[],0.5043,1,1241.1853,1241.6906,,,,,,27,FEM,DIS,150,mesa,el,a,1241.6928,1241.6942,-0.006481453,-0.416666667,0,0,0,,0,186,186,26,1,,,,,
,,,,,,17149d29075fd2eda914f35d,66a626ef09d4e21e1a8894ec,6735c41d3fd570a29fc0016e,2024-11-14_10h34.47.820,Tarea de género gramatical,2024.2.2,Win32,59.52380952,,,,,,,,,,,,,,,,,,,,,,,,1241.6956,1242.9071,a,1,0.5342,,[],[],[],[],[],[],[],0.5342,1,1242.9073,1243.4065,,,,,,189,FEM,DIS,150,pista,el,a,1243.4066,1243.4068,-0.006481453,-0.416666667,0,0,0,,0,187,187,188,1,,,,,
,,,,,,17149d29075fd2eda914f35d,66a626ef09d4e21e1a8894ec,6735c41d3fd570a29fc0016e,2024-11-14_10h34.47.820,Tarea de género gramatical,2024.2.2,Win32,59.52380952,,,,,,,,,,,,,,,,,,,,,,,,1243.4085,1244.673,l,1,0.5949,,[],[],[],[],[],[],[],0.5949,1,1244.6731,1245.1723,,,,,,244,MAS,AGR,150,hielo,el,l,1245.1723,1245.1725,-0.006481453,-0.416666667,0,0,0,,0,188,188,243,1,,,,,
,,,,,,17149d29075fd2eda914f35d,66a626ef09d4e21e1a8894ec,6735c41d3fd570a29fc0016e,2024-11-14_10h34.47.820,Tarea de género gramatical,2024.2.2,Win32,59.52380952,,,,,,,,,,,,,,,,,,,,,,,,1245.1741,1246.333,a,1,0.4737,,[],[],[],[],[],[],[],0.4737,1,1246.3331,1246.8214,,,,,,302,FEM,CON,150,cabeza,,a,1246.8215,1246.8216,-0.006481453,-0.416666667,0,0,0,,0,189,189,301,1,,,,,
,,,,,,17149d29075fd2eda914f35d,66a626ef09d4e21e1a8894ec,6735c41d3fd570a29fc0016e,2024-11-14_10h34.47.820,Tarea de género gramatical,2024.2.2,Win32,59.52380952,,,,,,,,,,,,,,,,,,,,,,,,1246.8233,1248.0044,l,1,0.5113,,[],[],[],[],[],[],[],0.5113,1,1248.0046,1248.4984,,,,,,336,MAS,DIS,150,crimen,la,l,1248.4986,1248.4987,-0.006481453,-0.416666667,0,0,0,,0,190,190,335,1,,,,,
,,,,,,17149d29075fd2eda914f35d,66a626ef09d4e21e1a8894ec,6735c41d3fd570a29fc0016e,2024-11-14_10h34.47.820,Tarea de género gramatical,2024.2.2,Win32,59.52380952,,,,,,,,,,,,,,,,,,,,,,,,1248.5006,1249.737,a,1,0.5615,,[],[],[],[],[],[],[],0.5615,1,1249.7372,1250.2365,,,,,,272,FEM,CON,150,oreja,,a,1250.2385,1250.2398,-0.006481453,-0.416666667,0,0,0,,0,191,191,271,1,,,,,
,,,,,,17149d29075fd2eda914f35d,66a626ef09d4e21e1a8894ec,6735c41d3fd570a29fc0016e,2024-11-14_10h34.47.820,Tarea de género gramatical,2024.2.2,Win32,59.52380952,,,,,,,,,,,,,,,,,,,,,,,,1250.2412,1251.5169,l,1,0.6089,,[],[],[],[],[],[],[],0.6089,1,1251.517,1252.0132,,,,,,226,MAS,AGR,150,color,el,l,1252.0133,1252.0136,-0.006481453,-0.416666667,0,0,0,,0,192,192,225,1,,,,,
,,,,,,17149d29075fd2eda914f35d,66a626ef09d4e21e1a8894ec,6735c41d3fd570a29fc0016e,2024-11-14_10h34.47.820,Tarea de género gramatical,2024.2.2,Win32,59.52380952,,,,,,,,,,,,,,,,,,,,,,,,1252.0158,1253.2356,l,1,0.5618,,[],[],[],[],[],[],[],0.5618,1,1253.2357,1253.7292,,,,,,298,MAS,AGR,150,botón,el,l,1253.7294,1253.7296,-0.006481453,-0.416666667,0,0,0,,0,193,193,297,1,,,,,
,,,,,,17149d29075fd2eda914f35d,66a626ef09d4e21e1a8894ec,6735c41d3fd570a29fc0016e,2024-11-14_10h34.47.820,Tarea de género gramatical,2024.2.2,Win32,59.52380952,,,,,,,,,,,,,,,,,,,,,,,,1253.7316,1254.9482,l,1,0.5485,,[],[],[],[],[],[],[],0.5485,1,1254.9484,1255.4449,,,,,,402,MAS,DIS,150,ladrón,la,l,1255.4451,1255.4453,-0.006481453,-0.416666667,0,0,0,,0,194,194,401,1,,,,,
,,,,,,17149d29075fd2eda914f35d,66a626ef09d4e21e1a8894ec,6735c41d3fd570a29fc0016e,2024-11-14_10h34.47.820,Tarea de género gramatical,2024.2.2,Win32,59.52380952,,,,,,,,,,,,,,,,,,,,,,,,1255.4469,1256.5946,l,1,0.468,,[],[],[],[],[],[],[],0.468,1,1256.5948,1257.0831,,,,,,329,MAS,CON,150,futuro,,l,1257.0854,1257.0866,-0.006481453,-0.416666667,0,0,0,,0,195,195,328,1,,,,,
,,,,,,17149d29075fd2eda914f35d,66a626ef09d4e21e1a8894ec,6735c41d3fd570a29fc0016e,2024-11-14_10h34.47.820,Tarea de género gramatical,2024.2.2,Win32,59.52380952,,,,,,,,,,,,,,,,,,,,,,,,1257.0881,1258.3937,a,1,0.6261,,[],[],[],[],[],[],[],0.6261,1,1258.3938,1258.8987,,,,,,259,FEM,AGR,150,prima,la,a,1258.8988,1258.899,-0.006481453,-0.416666667,0,0,0,,0,196,196,258,1,,,,,
,,,,,,17149d29075fd2eda914f35d,66a626ef09d4e21e1a8894ec,6735c41d3fd570a29fc0016e,2024-11-14_10h34.47.820,Tarea de género gramatical,2024.2.2,Win32,59.52380952,,,,,,,,,,,,,,,,,,,,,,,,1258.9006,1260.1428,l,1,0.5658,,[],[],[],[],[],[],[],0.5658,1,1260.143,1260.648,,,,,,10,MAS,AGR,150,niño,el,l,1260.6481,1260.6482,-0.006481453,-0.416666667,0,0,0,,0,197,197,9,1,,,,,
,,,,,,17149d29075fd2eda914f35d,66a626ef09d4e21e1a8894ec,6735c41d3fd570a29fc0016e,2024-11-14_10h34.47.820,Tarea de género gramatical,2024.2.2,Win32,59.52380952,,,,,,,,,,,,,,,,,,,,,,,,1260.6499,1261.8647,a,1,0.5341,,[],[],[],[],[],[],[],0.5341,1,1261.8648,1262.3582,,,,,,243,FEM,DIS,150,salsa,el,a,1262.3583,1262.3586,-0.006481453,-0.416666667,0,0,0,,0,198,198,242,1,,,,,
,,,,,,17149d29075fd2eda914f35d,66a626ef09d4e21e1a8894ec,6735c41d3fd570a29fc0016e,2024-11-14_10h34.47.820,Tarea de género gramatical,2024.2.2,Win32,59.52380952,,,,,,,,,,,,,,,,,,,,,,,,1262.3606,1263.8574,a,1,0.8164,,[],[],[],[],[],[],[],0.8164,1,1263.8576,1264.3625,,,,,,381,FEM,DIS,150,bebida,el,a,1264.3625,1264.3626,-0.006481453,-0.416666667,0,0,0,,0,199,199,380,1,,,,,
,,,,,,17149d29075fd2eda914f35d,66a626ef09d4e21e1a8894ec,6735c41d3fd570a29fc0016e,2024-11-14_10h34.47.820,Tarea de género gramatical,2024.2.2,Win32,59.52380952,,,,,,,,,,,,,,,,,,,,,,,,1264.3638,1265.5568,a,1,0.5077,,[],[],[],[],[],[],[],0.5077,1,1265.557,1266.0618,,,,,,80,FEM,CON,150,vaca,,a,1266.0638,1266.065,-0.006481453,-0.416666667,0,0,0,,0,200,200,79,1,,,,,
,,,,,,17149d29075fd2eda914f35d,66a626ef09d4e21e1a8894ec,6735c41d3fd570a29fc0016e,2024-11-14_10h34.47.820,Tarea de género gramatical,2024.2.2,Win32,59.52380952,,,,,,,,,,,,,,,,,,,,,,,,1266.0663,1267.4451,l,1,0.7115,,[],[],[],[],[],[],[],0.7115,1,1267.4453,1267.9444,,,,,,6,MAS,DIS,150,lado,la,l,1267.9444,1267.9445,-0.006481453,-0.416666667,0,0,0,,0,201,201,5,1,,,,,
,,,,,,17149d29075fd2eda914f35d,66a626ef09d4e21e1a8894ec,6735c41d3fd570a29fc0016e,2024-11-14_10h34.47.820,Tarea de género gramatical,2024.2.2,Win32,59.52380952,,,,,,,,,,,,,,,,,,,,,,,,1267.9461,1269.3892,a,1,0.7673,,[],[],[],[],[],[],[],0.7673,1,1269.3896,1269.8882,,,,,,152,FEM,CON,150,gente,,a,1269.8883,1269.8886,-0.006481453,-0.416666667,0,0,0,,0,202,202,151,1,,,,,
,,,,,,17149d29075fd2eda914f35d,66a626ef09d4e21e1a8894ec,6735c41d3fd570a29fc0016e,2024-11-14_10h34.47.820,Tarea de género gramatical,2024.2.2,Win32,59.52380952,,,,,,,,,,,,,,,,,,,,,,,,1269.8904,1271.1708,a,1,0.5908,,[],[],[],[],[],[],[],0.5908,1,1271.171,1271.6758,,,,,,356,FEM,CON,150,piedra,,a,1271.6759,1271.6761,-0.006481453,-0.416666667,0,0,0,,0,203,203,355,1,,,,,
,,,,,,17149d29075fd2eda914f35d,66a626ef09d4e21e1a8894ec,6735c41d3fd570a29fc0016e,2024-11-14_10h34.47.820,Tarea de género gramatical,2024.2.2,Win32,59.52380952,,,,,,,,,,,,,,,,,,,,,,,,1271.6778,1272.8259,a,1,0.4781,,[],[],[],[],[],[],[],0.4781,1,1272.8261,1273.3196,,,,,,332,FEM,CON,150,basura,,a,1273.3219,1273.3231,-0.006481453,-0.416666667,0,0,0,,0,204,204,331,1,,,,,
,,,,,,17149d29075fd2eda914f35d,66a626ef09d4e21e1a8894ec,6735c41d3fd570a29fc0016e,2024-11-14_10h34.47.820,Tarea de género gramatical,2024.2.2,Win32,59.52380952,,,,,,,,,,,,,,,,,,,,,,,,1273.3244,1274.4523,l,1,0.4354,,[],[],[],[],[],[],[],0.4354,1,1274.4525,1274.9564,,,,,,305,MAS,CON,150,hombre,,l,1274.9565,1274.9565,-0.006481453,-0.416666667,0,0,0,,0,205,205,304,1,,,,,
,,,,,,17149d29075fd2eda914f35d,66a626ef09d4e21e1a8894ec,6735c41d3fd570a29fc0016e,2024-11-14_10h34.47.820,Tarea de género gramatical,2024.2.2,Win32,59.52380952,,,,,,,,,,,,,,,,,,,,,,,,1274.9574,1276.2405,l,1,0.6173,,[],[],[],[],[],[],[],0.6173,1,1276.2406,1276.7399,,,,,,246,MAS,DIS,150,humor,la,l,1276.74,1276.7401,-0.006481453,-0.416666667,0,0,0,,0,206,206,245,1,,,,,
,,,,,,17149d29075fd2eda914f35d,66a626ef09d4e21e1a8894ec,6735c41d3fd570a29fc0016e,2024-11-14_10h34.47.820,Tarea de género gramatical,2024.2.2,Win32,59.52380952,,,,,,,,,,,,,,,,,,,,,,,,1276.7417,1277.873,l,1,0.4506,,[],[],[],[],[],[],[],0.4506,1,1277.8732,1278.3723,,,,,,334,MAS,AGR,150,ataque,el,l,1278.3725,1278.3726,-0.006481453,-0.416666667,0,0,0,,0,207,207,333,1,,,,,
,,,,,,17149d29075fd2eda914f35d,66a626ef09d4e21e1a8894ec,6735c41d3fd570a29fc0016e,2024-11-14_10h34.47.820,Tarea de género gramatical,2024.2.2,Win32,59.52380952,,,,,,,,,,,,,,,,,,,,,,,,1278.3741,1279.5726,a,1,0.5283,,[],[],[],[],[],[],[],0.5283,1,1279.5726,1280.0661,,,,,,230,FEM,CON,150,regla,,a,1280.0663,1280.0664,-0.006481453,-0.416666667,0,0,0,,0,208,208,229,1,,,,,
,,,,,,17149d29075fd2eda914f35d,66a626ef09d4e21e1a8894ec,6735c41d3fd570a29fc0016e,2024-11-14_10h34.47.820,Tarea de género gramatical,2024.2.2,Win32,59.52380952,,,,,,,,,,,,,,,,,,,,,,,,1280.0684,1281.4383,l,1,0.7116,,[],[],[],[],[],[],[],0.7116,1,1281.4384,1281.9321,,,,,,310,MAS,AGR,150,nombre,el,l,1281.9346,1281.9359,-0.006481453,-0.416666667,0,0,0,,0,209,209,309,1,,,,,
,,,,,,17149d29075fd2eda914f35d,66a626ef09d4e21e1a8894ec,6735c41d3fd570a29fc0016e,2024-11-14_10h34.47.820,Tarea de género gramatical,2024.2.2,Win32,59.52380952,,,,,,,,,,,,,,,,,,,,,,,,1281.9373,1283.1314,a,1,0.5339,,[],[],[],[],[],[],[],0.5339,1,1283.1316,1283.6201,,,,,,307,FEM,AGR,150,suerte,la,a,1283.6201,1283.6203,-0.006481453,-0.416666667,0,0,0,,0,210,210,306,1,,,,,
,,,,,,17149d29075fd2eda914f35d,66a626ef09d4e21e1a8894ec,6735c41d3fd570a29fc0016e,2024-11-14_10h34.47.820,Tarea de género gramatical,2024.2.2,Win32,59.52380952,,,,,,,,,,,,,,,,,,,,,,,,1283.622,1284.8197,a,1,0.5171,,[],[],[],[],[],[],[],0.5171,1,1284.8199,1285.3191,,,,,,62,FEM,CON,150,sopa,,a,1285.3192,1285.3193,-0.006481453,-0.416666667,0,0,0,,0,211,211,61,1,,,,,
,,,,,,17149d29075fd2eda914f35d,66a626ef09d4e21e1a8894ec,6735c41d3fd570a29fc0016e,2024-11-14_10h34.47.820,Tarea de género gramatical,2024.2.2,Win32,59.52380952,,,,,,,,,,,,,,,,,,,,,,,,1285.3209,1286.6022,a,1,0.6112,,[],[],[],[],[],[],[],0.6112,1,1286.6023,1287.0963,,,,,,51,FEM,DIS,150,bala,el,a,1287.0964,1287.0967,-0.006481453,-0.416666667,0,0,0,,0,212,212,50,1,,,,,
,,,,,,17149d29075fd2eda914f35d,66a626ef09d4e21e1a8894ec,6735c41d3fd570a29fc0016e,2024-11-14_10h34.47.820,Tarea de género gramatical,2024.2.2,Win32,59.52380952,,,,,,,,,,,,,,,,,,,,,,,,1287.0984,1288.6621,l,0,0.8926,,[],[],[],[],[],[],[],0.8926,0,1288.6637,1289.1505,,,,,,105,FEM,DIS,150,jefa,el,a,1289.1525,1289.1537,-0.006481453,-0.416666667,0,0,0,,0,213,213,104,1,,,,,
,,,,,,17149d29075fd2eda914f35d,66a626ef09d4e21e1a8894ec,6735c41d3fd570a29fc0016e,2024-11-14_10h34.47.820,Tarea de género gramatical,2024.2.2,Win32,59.52380952,,,,,,,,,,,,,,,,,,,,,,,,1289.155,1290.4447,l,1,0.6177,,[],[],[],[],[],[],[],0.6177,1,1290.4463,1290.9497,,,,,,166,MAS,AGR,150,coche,el,l,1290.9497,1290.95,-0.006481453,-0.416666667,0,0,0,,0,214,214,165,1,,,,,
,,,,,,17149d29075fd2eda914f35d,66a626ef09d4e21e1a8894ec,6735c41d3fd570a29fc0016e,2024-11-14_10h34.47.820,Tarea de género gramatical,2024.2.2,Win32,59.52380952,,,,,,,,,,,,,,,,,,,,,,,,1290.9517,1292.6493,a,1,1.0282,,[],[],[],[],[],[],[],1.0282,1,1292.6495,1293.1432,,,,,,127,FEM,AGR,150,cuna,la,a,1293.1433,1293.1436,-0.006481453,-0.416666667,0,0,0,,0,215,215,126,1,,,,,
,,,,,,17149d29075fd2eda914f35d,66a626ef09d4e21e1a8894ec,6735c41d3fd570a29fc0016e,2024-11-14_10h34.47.820,Tarea de género gramatical,2024.2.2,Win32,59.52380952,,,,,,,,,,,,,,,,,,,,,,,,1293.1454,1294.7425,a,1,0.9339,,[],[],[],[],[],[],[],0.9339,1,1294.7428,1295.2422,,,,,,104,FEM,CON,150,vela,,a,1295.2423,1295.2425,-0.006481453,-0.416666667,0,0,0,,0,216,216,103,1,,,,,
,,,,,,17149d29075fd2eda914f35d,66a626ef09d4e21e1a8894ec,6735c41d3fd570a29fc0016e,2024-11-14_10h34.47.820,Tarea de género gramatical,2024.2.2,Win32,59.52380952,,,,,,,,,,,,,,,,,,,,,,,,1295.2446,1296.8079,a,1,0.89,,[],[],[],[],[],[],[],0.89,1,1296.8081,1297.2962,,,,,,141,FEM,DIS,150,cera,el,a,1297.2962,1297.2964,-0.006481453,-0.416666667,0,0,0,,0,217,217,140,1,,,,,
,,,,,,17149d29075fd2eda914f35d,66a626ef09d4e21e1a8894ec,6735c41d3fd570a29fc0016e,2024-11-14_10h34.47.820,Tarea de género gramatical,2024.2.2,Win32,59.52380952,,,,,,,,,,,,,,,,,,,,,,,,1297.2976,1298.6958,a,1,0.7171,,[],[],[],[],[],[],[],0.7171,1,1298.6959,1299.1953,,,,,,422,FEM,CON,150,rutina,,a,1299.1969,1299.1979,-0.006481453,-0.416666667,0,0,0,,0,218,218,421,1,,,,,
,,,,,,17149d29075fd2eda914f35d,66a626ef09d4e21e1a8894ec,6735c41d3fd570a29fc0016e,2024-11-14_10h34.47.820,Tarea de género gramatical,2024.2.2,Win32,59.52380952,,,,,,,,,,,,,,,,,,,,,,,,1299.199,1300.5282,a,1,0.6616,,[],[],[],[],[],[],[],0.6616,1,1300.5282,1301.0224,,,,,,151,FEM,AGR,150,noche,la,a,1301.0226,1301.0228,-0.006481453,-0.416666667,0,0,0,,0,219,219,150,1,,,,,
,,,,,,17149d29075fd2eda914f35d,66a626ef09d4e21e1a8894ec,6735c41d3fd570a29fc0016e,2024-11-14_10h34.47.820,Tarea de género gramatical,2024.2.2,Win32,59.52380952,,,,,,,,,,,,,,,,,,,,,,,,1301.0245,1302.372,a,1,0.6798,,[],[],[],[],[],[],[],0.6798,1,1302.3722,1302.8774,,,,,,117,FEM,DIS,150,raya,el,a,1302.8775,1302.8777,-0.006481453,-0.416666667,0,0,0,,0,220,220,116,1,,,,,
,,,,,,17149d29075fd2eda914f35d,66a626ef09d4e21e1a8894ec,6735c41d3fd570a29fc0016e,2024-11-14_10h34.47.820,Tarea de género gramatical,2024.2.2,Win32,59.52380952,,,,,,,,,,,,,,,,,,,,,,,,1302.8793,1304.2045,l,1,0.6513,,[],[],[],[],[],[],[],0.6513,1,1304.2047,1304.7095,,,,,,119,MAS,CON,150,mito,,l,1304.7096,1304.7097,-0.006481453,-0.416666667,0,0,0,,0,221,221,118,1,,,,,
,,,,,,17149d29075fd2eda914f35d,66a626ef09d4e21e1a8894ec,6735c41d3fd570a29fc0016e,2024-11-14_10h34.47.820,Tarea de género gramatical,2024.2.2,Win32,59.52380952,,,,,,,,,,,,,,,,,,,,,,,,1304.7114,1305.943,a,1,0.5615,,[],[],[],[],[],[],[],0.5615,1,1305.9431,1306.442,,,,,,325,FEM,AGR,150,tierra,la,a,1306.4441,1306.4453,-0.006481453,-0.416666667,0,0,0,,0,222,222,324,1,,,,,
,,,,,,17149d29075fd2eda914f35d,66a626ef09d4e21e1a8894ec,6735c41d3fd570a29fc0016e,2024-11-14_10h34.47.820,Tarea de género gramatical,2024.2.2,Win32,59.52380952,,,,,,,,,,,,,,,,,,,,,,,,1306.4466,1307.7026,l,1,0.5734,,[],[],[],[],[],[],[],0.5734,1,1307.7028,1308.2028,,,,,,53,MAS,CON,150,vaso,,l,1308.2029,1308.2031,-0.006481453,-0.416666667,0,0,0,,0,223,223,52,1,,,,,
,,,,,,17149d29075fd2eda914f35d,66a626ef09d4e21e1a8894ec,6735c41d3fd570a29fc0016e,2024-11-14_10h34.47.820,Tarea de género gramatical,2024.2.2,Win32,59.52380952,,,,,,,,,,,,,,,,,,,,,,,,1308.2048,1309.341,a,1,0.4507,,[],[],[],[],[],[],[],0.4507,1,1309.3411,1309.8349,,,,,,254,FEM,CON,150,caída,,a,1309.8351,1309.8353,-0.006481453,-0.416666667,0,0,0,,0,224,224,253,1,,,,,
,,,,,,17149d29075fd2eda914f35d,66a626ef09d4e21e1a8894ec,6735c41d3fd570a29fc0016e,2024-11-14_10h34.47.820,Tarea de género gramatical,2024.2.2,Win32,59.52380952,,,,,,,,,,,,,,,,,,,,,,,,1309.8372,1311.1512,l,1,0.6509,,[],[],[],[],[],[],[],0.6509,1,1311.1514,1311.6506,,,,,,12,MAS,DIS,150,plan,la,l,1311.6508,1311.651,-0.006481453,-0.416666667,0,0,0,,0,225,225,11,1,,,,,
,,,,,,17149d29075fd2eda914f35d,66a626ef09d4e21e1a8894ec,6735c41d3fd570a29fc0016e,2024-11-14_10h34.47.820,Tarea de género gramatical,2024.2.2,Win32,59.52380952,,,,,,,,,,,,,,,,,,,,,,,,1311.6526,1312.8555,a,1,0.5339,,[],[],[],[],[],[],[],0.5339,1,1312.8556,1313.3549,,,,,,355,FEM,AGR,150,mirada,la,a,1313.355,1313.3551,-0.006481453,-0.416666667,0,0,0,,0,226,226,354,1,,,,,
,,,,,,17149d29075fd2eda914f35d,66a626ef09d4e21e1a8894ec,6735c41d3fd570a29fc0016e,2024-11-14_10h34.47.820,Tarea de género gramatical,2024.2.2,Win32,59.52380952,,,,,,,,,,,,,,,,,,,,,,,,1313.3563,1314.5716,l,0,0.5339,,[],[],[],[],[],[],[],0.5339,0,1314.5727,1315.0708,,,,,,146,FEM,CON,150,lana,,a,1315.0723,1315.0734,-0.006481453,-0.416666667,0,0,0,,0,227,227,145,1,,,,,
,,,,,,17149d29075fd2eda914f35d,66a626ef09d4e21e1a8894ec,6735c41d3fd570a29fc0016e,2024-11-14_10h34.47.820,Tarea de género gramatical,2024.2.2,Win32,59.52380952,,,,,,,,,,,,,,,,,,,,,,,,1315.0744,1316.3213,a,1,0.5781,,[],[],[],[],[],[],[],0.5781,1,1316.3224,1316.8149,,,,,,301,FEM,AGR,150,verdad,la,a,1316.8151,1316.8152,-0.006481453,-0.416666667,0,0,0,,0,228,228,300,1,,,,,
,,,,,,17149d29075fd2eda914f35d,66a626ef09d4e21e1a8894ec,6735c41d3fd570a29fc0016e,2024-11-14_10h34.47.820,Tarea de género gramatical,2024.2.2,Win32,59.52380952,,,,,,,,,,,,,,,,,,,,,,,,1316.8172,1318.1523,a,1,0.6664,,[],[],[],[],[],[],[],0.6664,1,1318.1524,1318.6473,,,,,,15,FEM,DIS,150,cama,el,a,1318.6473,1318.6475,-0.006481453,-0.416666667,0,0,0,,0,229,229,14,1,,,,,
,,,,,,17149d29075fd2eda914f35d,66a626ef09d4e21e1a8894ec,6735c41d3fd570a29fc0016e,2024-11-14_10h34.47.820,Tarea de género gramatical,2024.2.2,Win32,59.52380952,,,,,,,,,,,,,,,,,,,,,,,,1318.6493,1319.8358,a,1,0.5115,,[],[],[],[],[],[],[],0.5115,1,1319.8359,1320.3351,,,,,,428,FEM,CON,150,jugada,,a,1320.3351,1320.3353,-0.006481453,-0.416666667,0,0,0,,0,230,230,427,1,,,,,
,,,,,,17149d29075fd2eda914f35d,66a626ef09d4e21e1a8894ec,6735c41d3fd570a29fc0016e,2024-11-14_10h34.47.820,Tarea de género gramatical,2024.2.2,Win32,59.52380952,,,,,,,,,,,,,,,,,,,,,,,,1320.337,1321.5018,a,1,0.4947,,[],[],[],[],[],[],[],0.4947,1,1321.5019,1322.001,,,,,,103,FEM,AGR,150,fama,la,a,1322.003,1322.0043,-0.006481453,-0.416666667,0,0,0,,0,231,231,102,1,,,,,
,,,,,,17149d29075fd2eda914f35d,66a626ef09d4e21e1a8894ec,6735c41d3fd570a29fc0016e,2024-11-14_10h34.47.820,Tarea de género gramatical,2024.2.2,Win32,59.52380952,,,,,,,,,,,,,,,,,,,,,,,,1322.0056,1323.4674,a,1,0.7839,,[],[],[],[],[],[],[],0.7839,1,1323.4675,1323.9613,,,,,,393,FEM,DIS,150,alarma,el,a,1323.9614,1323.9616,-0.006481453,-0.416666667,0,0,0,,0,232,232,392,1,,,,,
,,,,,,17149d29075fd2eda914f35d,66a626ef09d4e21e1a8894ec,6735c41d3fd570a29fc0016e,2024-11-14_10h34.47.820,Tarea de género gramatical,2024.2.2,Win32,59.52380952,,,,,,,,,,,,,,,,,,,,,,,,1323.9636,1325.3138,a,1,0.6814,,[],[],[],[],[],[],[],0.6814,1,1325.3139,1325.8105,,,,,,315,FEM,DIS,150,manera,el,a,1325.8106,1325.8108,-0.006481453,-0.416666667,0,0,0,,0,233,233,314,1,,,,,
,,,,,,17149d29075fd2eda914f35d,66a626ef09d4e21e1a8894ec,6735c41d3fd570a29fc0016e,2024-11-14_10h34.47.820,Tarea de género gramatical,2024.2.2,Win32,59.52380952,,,,,,,,,,,,,,,,,,,,,,,,1325.8126,1327.0435,l,1,0.5445,,[],[],[],[],[],[],[],0.5445,1,1327.0437,1327.5484,,,,,,46,MAS,AGR,150,odio,el,l,1327.5484,1327.5486,-0.006481453,-0.416666667,0,0,0,,0,234,234,45,1,,,,,
,,,,,,17149d29075fd2eda914f35d,66a626ef09d4e21e1a8894ec,6735c41d3fd570a29fc0016e,2024-11-14_10h34.47.820,Tarea de género gramatical,2024.2.2,Win32,59.52380952,,,,,,,,,,,,,,,,,,,,,,,,1327.5502,1328.8813,a,1,0.6613,,[],[],[],[],[],[],[],0.6613,1,1328.8815,1329.3756,,,,,,363,FEM,DIS,150,unidad,el,a,1329.3756,1329.3758,-0.006481453,-0.416666667,0,0,0,,0,235,235,362,1,,,,,
,,,,,,17149d29075fd2eda914f35d,66a626ef09d4e21e1a8894ec,6735c41d3fd570a29fc0016e,2024-11-14_10h34.47.820,Tarea de género gramatical,2024.2.2,Win32,59.52380952,,,,,,,,,,,,,,,,,,,,,,,,1329.3777,1330.5973,a,1,0.5609,,[],[],[],[],[],[],[],0.5609,1,1330.5975,1331.0967,,,,,,26,FEM,CON,150,pena,,a,1331.0989,1331.1003,-0.006481453,-0.416666667,0,0,0,,0,236,236,25,1,,,,,
,,,,,,17149d29075fd2eda914f35d,66a626ef09d4e21e1a8894ec,6735c41d3fd570a29fc0016e,2024-11-14_10h34.47.820,Tarea de género gramatical,2024.2.2,Win32,59.52380952,,,,,,,,,,,,,,,,,,,,,,,,1331.1018,1332.3073,a,0,0.534,,[],[],[],[],[],[],[],0.534,0,1332.309,1332.7958,,,,,,138,MAS,DIS,150,luto,la,l,1332.7958,1332.796,-0.006481453,-0.416666667,0,0,0,,0,237,237,137,1,,,,,
,,,,,,17149d29075fd2eda914f35d,66a626ef09d4e21e1a8894ec,6735c41d3fd570a29fc0016e,2024-11-14_10h34.47.820,Tarea de género gramatical,2024.2.2,Win32,59.52380952,,,,,,,,,,,,,,,,,,,,,,,,1332.7975,1334.106,l,1,0.632,,[],[],[],[],[],[],[],0.632,1,1334.1072,1334.5949,,,,,,389,MAS,CON,150,tamaño,,l,1334.595,1334.5951,-0.006481453,-0.416666667,0,0,0,,0,238,238,388,1,,,,,
,,,,,,17149d29075fd2eda914f35d,66a626ef09d4e21e1a8894ec,6735c41d3fd570a29fc0016e,2024-11-14_10h34.47.820,Tarea de género gramatical,2024.2.2,Win32,59.52380952,,,,,,,,,,,,,,,,,,,,,,,,1334.5966,1335.7554,a,1,0.477,,[],[],[],[],[],[],[],0.477,1,1335.7556,1336.2443,,,,,,224,FEM,CON,150,arena,,a,1336.2443,1336.2445,-0.006481453,-0.416666667,0,0,0,,0,239,239,223,1,,,,,
,,,,,,17149d29075fd2eda914f35d,66a626ef09d4e21e1a8894ec,6735c41d3fd570a29fc0016e,2024-11-14_10h34.47.820,Tarea de género gramatical,2024.2.2,Win32,59.52380952,,,,,,,,,,,,,,,,,,,,,,,,1336.2462,1337.6438,a,1,0.7278,,[],[],[],[],[],[],[],0.7278,1,1337.644,1338.1431,,,,,,21,FEM,DIS,150,boca,el,a,1338.1452,1338.1464,-0.006481453,-0.416666667,0,0,0,,0,240,240,20,1,,,,,
,,,,,,17149d29075fd2eda914f35d,66a626ef09d4e21e1a8894ec,6735c41d3fd570a29fc0016e,2024-11-14_10h34.47.820,Tarea de género gramatical,2024.2.2,Win32,59.52380952,,,,,,,,,,,,,,,,,,,,,,,,1338.1476,1339.7595,a,1,0.9339,,[],[],[],[],[],[],[],0.9339,1,1339.7596,1340.2578,,,,,,39,FEM,DIS,150,luna,el,a,1340.2578,1340.2578,-0.006481453,-0.416666667,0,0,0,,0,241,241,38,1,,,,,
,,,,,,17149d29075fd2eda914f35d,66a626ef09d4e21e1a8894ec,6735c41d3fd570a29fc0016e,2024-11-14_10h34.47.820,Tarea de género gramatical,2024.2.2,Win32,59.52380952,,,,,,,,,,,,,,,,,,,,,,,,1340.2586,1341.4919,a,1,0.5673,,[],[],[],[],[],[],[],0.5673,1,1341.492,1341.9859,,,,,,159,FEM,DIS,150,clase,el,a,1341.986,1341.9862,-0.006481453,-0.416666667,0,0,0,,0,242,242,158,1,,,,,
,,,,,,17149d29075fd2eda914f35d,66a626ef09d4e21e1a8894ec,6735c41d3fd570a29fc0016e,2024-11-14_10h34.47.820,Tarea de género gramatical,2024.2.2,Win32,59.52380952,,,,,,,,,,,,,,,,,,,,,,,,1341.9881,1343.3577,l,1,0.6949,,[],[],[],[],[],[],[],0.6949,1,1343.3578,1343.8518,,,,,,40,MAS,AGR,150,dios,el,l,1343.8518,1343.8522,-0.006481453,-0.416666667,0,0,0,,0,243,243,39,1,,,,,
,,,,,,17149d29075fd2eda914f35d,66a626ef09d4e21e1a8894ec,6735c41d3fd570a29fc0016e,2024-11-14_10h34.47.820,Tarea de género gramatical,2024.2.2,Win32,59.52380952,,,,,,,,,,,,,,,,,,,,,,,,1343.8541,1345.1401,l,1,0.6281,,[],[],[],[],[],[],[],0.6281,1,1345.1402,1345.6341,,,,,,280,MAS,AGR,150,salón,el,l,1345.6341,1345.6344,-0.006481453,-0.416666667,0,0,0,,0,244,244,279,1,,,,,
,,,,,,17149d29075fd2eda914f35d,66a626ef09d4e21e1a8894ec,6735c41d3fd570a29fc0016e,2024-11-14_10h34.47.820,Tarea de género gramatical,2024.2.2,Win32,59.52380952,,,,,,,,,,,,,,,,,,,,,,,,1345.6363,1346.8063,l,1,0.495,,[],[],[],[],[],[],[],0.495,1,1346.8065,1347.2999,,,,,,70,MAS,AGR,150,palo,el,l,1347.3021,1347.3034,-0.006481453,-0.416666667,0,0,0,,0,245,245,69,1,,,,,
,,,,,,17149d29075fd2eda914f35d,66a626ef09d4e21e1a8894ec,6735c41d3fd570a29fc0016e,2024-11-14_10h34.47.820,Tarea de género gramatical,2024.2.2,Win32,59.52380952,,,,,,,,,,,,,,,,,,,,,,,,1347.3047,1348.6549,l,1,0.6945,,[],[],[],[],[],[],[],0.6945,1,1348.655,1349.1543,,,,,,154,MAS,AGR,150,padre,el,l,1349.1545,1349.1546,-0.006481453,-0.416666667,0,0,0,,0,246,246,153,1,,,,,
