counterbalancing_condition,consent_prescreening.block_1/declare_consent,consent_prescreening.block_1/age_years,consent_prescreening.block_1/language_disorder,consent_prescreening.block_1/first_language,consent_prescreening.block_1/gender,PROLIFIC_PID,STUDY_ID,SESSION_ID,date,expName,psychopyVersion,OS,frameRate,check_prescreening_answers.started,check_prescreening_answers.stopped,Instructions.started,Instructions.stopped,instr_done_keyboard.keys,instr_done_touch.x,instr_done_touch.y,instr_done_touch.leftButton,instr_done_touch.midButton,instr_done_touch.rightButton,instr_done_touch.clicked_name,instruction_pages.thisRepN,instruction_pages.thisTrialN,instruction_pages.thisN,instruction_pages.thisIndex,instruction_pages.ran,pageN,phase,instruct_text,has_image,instruct_image,instr_done_keyboard.rt,instr_done_keyboard.duration,presentTrial.started,presentTrial.stopped,response.keys,response.corr,touch_resp.x,touch_resp.y,touch_resp.leftButton,touch_resp.midButton,touch_resp.rightButton,touch_resp.time,touch_resp.clicked_name,rt,corr,feedback.started,feedback.stopped,practice_trials.thisRepN,practice_trials.thisTrialN,practice_trials.thisN,practice_trials.thisIndex,practice_trials.ran,TrialID,StimulusType,Condition,PrimeDuration,Prime,Flanker,corrAns,response.rt,response.duration,Break.started,Break.stopped,break_done_touch.x,break_done_touch.y,break_done_touch.leftButton,break_done_touch.midButton,break_done_touch.rightButton,break_done_keyboard.keys,experiment_trials.thisRepN,experiment_trials.thisTrialN,experiment_trials.thisN,experiment_trials.thisIndex,experiment_trials.ran,break_done_keyboard.rt,break_done_keyboard.duration,End.started,End.stopped
0,"[""read_info"",""comfortable"",""consent_given"",""over_18""]",48,"[""none""]","[""spanish""]",M,189ef00a035c0a119e679d77,66a626ef09d4e21e1a8894ec,6734a026b1e79a11308b491c,2024-11-13_13h49.40.190,Tarea de género gramatical,2024.2.2,Win32,60.0240096,,,,,,,,,,,,,,,,,,,,,,,,,,,,,,,,,,,,,,,,,,,,,,,,,,,,,,,,,,,,,,,,,,,,,
,,,,,,189ef00a035c0a119e679d77,66a626ef09d4e21e1a8894ec,6734a026b1e79a11308b491c,2024-11-13_13h49.40.190,Tarea de género gramatical,2024.2.2,Win32,60.0240096,46.18,46.18,,,,,,,,,,,,,,,,,,,,,,,,,,,,,,,,,,,,,,,,,,,,,,,,,,,,,,,,,,,,,,,,,,,
,,,,,,189ef00a035c0a119e679d77,66a626ef09d4e21e1a8894ec,6734a026b1e79a11308b491c,2024-11-13_13h49.40.190,Tarea de género gramatical,2024.2.2,Win32,60.0240096,,,46.204,51.66,,0.013888889,-0.424768519,1,0,0,instr_done_button,0,0,0,0,1,1,instructions,"INSTRUCCIONES
Va a realizar una prueba de selección gramatical. Desde el comienzo de la prueba mire siempre al centro de la pantalla. Al cabo de un momento, aparecerán palabras. La tarea consiste en determinar si la palabra del centro (siempre será un sustantivo), pertenece al género masculino o femenino.

Pulse la tecla ESPACIO o toque el botón de abajo para continuar.",0,keyboardresponseMF.png,,,,,,,,,,,,,,,,,,,,,,,,,,,,,,,,,,,,,,,,,,,,,,,,
,,,,,,189ef00a035c0a119e679d77,66a626ef09d4e21e1a8894ec,6734a026b1e79a11308b491c,2024-11-13_13h49.40.190,Tarea de género gramatical,2024.2.2,Win32,60.0240096,,,51.667,55.597,space,0.015046296,-0.362268519,0,0,0,,0,1,1,1,1,2,instructions,"Si su dispositivo tiene teclado, pulse la tecla ""A"" para las palabras en masculino (por ejemplo: ""arroz"") y la tecla ""L"" para las palabras en femenino (por ejemplo: ""mano"").
Pulse la tecla ESPACIO o toque el botón de abajo para continuar.",1,keyboardresponseMF.png,3.805,,,,,,,,,,,,,,,,,,,,,,,,,,,,,,,,,,,,,,,,,,,,,,,
,,,,,,189ef00a035c0a119e679d77,66a626ef09d4e21e1a8894ec,6734a026b1e79a11308b491c,2024-11-13_13h49.40.190,Tarea de género gramatical,2024.2.2,Win32,60.0240096,,,55.602,58.876,space,0.015046296,-0.362268519,0,0,0,,0,2,2,2,1,3,instructions,"Si utiliza un dispositivo sólo táctil, colóquelo en horizontal y utilice los botones de la pantalla. No utilice el ratón.
Pulse la tecla ESPACIO o toque el botón de abajo para continuar.",2,touchresponseMF.png,3.201,,,,,,,,,,,,,,,,,,,,,,,,,,,,,,,,,,,,,,,,,,,,,,,
,,,,,,189ef00a035c0a119e679d77,66a626ef09d4e21e1a8894ec,6734a026b1e79a11308b491c,2024-11-13_13h49.40.190,Tarea de género gramatical,2024.2.2,Win32,60.0240096,,,58.879,61.809,space,0.015046296,-0.362268519,0,0,0,,0,3,3,3,1,4,instructions,"Es muy importante que responda con la mayor rapidez y precisión posibles, ya que cada cadena de letras sólo estará en pantalla durante un instante. Si no responde en ese tiempo, aparecerá el mensaje ""Muy lento"" y el experimento pasará a la siguiente palabra. Los primeros 15 intentos serán de práctica y habrá dos descansos durante la prueba.
Pulse la tecla ESPACIO o toque el botón de abajo para iniciar la parte de práctica.",0,keyboardresponseMF.png,2.76,,,,,,,,,,,,,,,,,,,,,,,,,,,,,,,,,,,,,,,,,,,,,,,
,,,,,,189ef00a035c0a119e679d77,66a626ef09d4e21e1a8894ec,6734a026b1e79a11308b491c,2024-11-13_13h49.40.190,Tarea de género gramatical,2024.2.2,Win32,60.0240096,,,,,,,,,,,,,,,,,,,,,,,,61.836,64.476,,0,[],[],[],[],[],[],[],,-1,64.477,64.975,0,0,0,14,1,2015,MAS,DIS,150,robot,la,l,,,,,,,,,,,,,,,,,,,
,,,,,,189ef00a035c0a119e679d77,66a626ef09d4e21e1a8894ec,6734a026b1e79a11308b491c,2024-11-13_13h49.40.190,Tarea de género gramatical,2024.2.2,Win32,60.0240096,,,,,,,,,,,,,,,,,,,,,,,,64.976,67.625,,0,[],[],[],[],[],[],[],,-1,67.625,68.125,0,1,1,3,1,2004,FEM,AGR,150,venta,la,a,,,,,,,,,,,,,,,,,,,
,,,,,,189ef00a035c0a119e679d77,66a626ef09d4e21e1a8894ec,6734a026b1e79a11308b491c,2024-11-13_13h49.40.190,Tarea de género gramatical,2024.2.2,Win32,60.0240096,,,,,,,,,,,,,,,,,,,,,,,,68.126,69.974,l,1,[],[],[],[],[],[],[],1.168,1,69.977,70.474,0,2,2,7,1,2008,FEM,CON,150,siesta,,a,1.168,,,,,,,,,,,,,,,,,,
,,,,,,189ef00a035c0a119e679d77,66a626ef09d4e21e1a8894ec,6734a026b1e79a11308b491c,2024-11-13_13h49.40.190,Tarea de género gramatical,2024.2.2,Win32,60.0240096,,,,,,,,,,,,,,,,,,,,,,,,70.477,71.891,a,1,[],[],[],[],[],[],[],0.734,1,71.892,72.39,0,3,3,12,1,2013,MAS,AGR,150,acero,el,l,0.734,,,,,,,,,,,,,,,,,,
,,,,,,189ef00a035c0a119e679d77,66a626ef09d4e21e1a8894ec,6734a026b1e79a11308b491c,2024-11-13_13h49.40.190,Tarea de género gramatical,2024.2.2,Win32,60.0240096,,,,,,,,,,,,,,,,,,,,,,,,72.392,73.757,l,1,[],[],[],[],[],[],[],0.701,1,73.758,74.257,0,4,4,6,1,2007,FEM,AGR,150,navaja,la,a,0.701,,,,,,,,,,,,,,,,,,
,,,,,,189ef00a035c0a119e679d77,66a626ef09d4e21e1a8894ec,6734a026b1e79a11308b491c,2024-11-13_13h49.40.190,Tarea de género gramatical,2024.2.2,Win32,60.0240096,,,,,,,,,,,,,,,,,,,,,,,,74.258,75.957,a,1,[],[],[],[],[],[],[],1.034,1,75.958,76.457,0,5,5,8,1,2009,MAS,DIS,150,puerto,la,l,1.034,,,,,,,,,,,,,,,,,,
,,,,,,189ef00a035c0a119e679d77,66a626ef09d4e21e1a8894ec,6734a026b1e79a11308b491c,2024-11-13_13h49.40.190,Tarea de género gramatical,2024.2.2,Win32,60.0240096,,,,,,,,,,,,,,,,,,,,,,,,76.458,78.356,l,1,[],[],[],[],[],[],[],1.219,1,78.356,78.857,0,6,6,2,1,2003,FEM,DIS,150,daga,el,a,1.219,,,,,,,,,,,,,,,,,,
,,,,,,189ef00a035c0a119e679d77,66a626ef09d4e21e1a8894ec,6734a026b1e79a11308b491c,2024-11-13_13h49.40.190,Tarea de género gramatical,2024.2.2,Win32,60.0240096,,,,,,,,,,,,,,,,,,,,,,,,78.858,80.523,a,1,[],[],[],[],[],[],[],0.983,1,80.524,81.023,0,7,7,10,1,2011,MAS,CON,150,canal,,l,0.983,,,,,,,,,,,,,,,,,,
,,,,,,189ef00a035c0a119e679d77,66a626ef09d4e21e1a8894ec,6734a026b1e79a11308b491c,2024-11-13_13h49.40.190,Tarea de género gramatical,2024.2.2,Win32,60.0240096,,,,,,,,,,,,,,,,,,,,,,,,81.024,82.39,l,1,[],[],[],[],[],[],[],0.702,1,82.39,82.889,0,8,8,4,1,2005,FEM,CON,150,placa,,a,0.702,,,,,,,,,,,,,,,,,,
,,,,,,189ef00a035c0a119e679d77,66a626ef09d4e21e1a8894ec,6734a026b1e79a11308b491c,2024-11-13_13h49.40.190,Tarea de género gramatical,2024.2.2,Win32,60.0240096,,,,,,,,,,,,,,,,,,,,,,,,82.892,84.257,a,1,[],[],[],[],[],[],[],0.687,1,84.259,84.756,0,9,9,9,1,2010,MAS,AGR,150,vecino,el,l,0.687,,,,,,,,,,,,,,,,,,
,,,,,,189ef00a035c0a119e679d77,66a626ef09d4e21e1a8894ec,6734a026b1e79a11308b491c,2024-11-13_13h49.40.190,Tarea de género gramatical,2024.2.2,Win32,60.0240096,,,,,,,,,,,,,,,,,,,,,,,,84.761,86.04,l,1,[],[],[],[],[],[],[],0.6,1,86.04,86.539,0,10,10,1,1,2002,FEM,CON,150,pala,,a,0.6,,,,,,,,,,,,,,,,,,
,,,,,,189ef00a035c0a119e679d77,66a626ef09d4e21e1a8894ec,6734a026b1e79a11308b491c,2024-11-13_13h49.40.190,Tarea de género gramatical,2024.2.2,Win32,60.0240096,,,,,,,,,,,,,,,,,,,,,,,,86.54,88.106,a,1,[],[],[],[],[],[],[],0.9,1,88.106,88.606,0,11,11,11,1,2012,MAS,DIS,150,clima,la,l,0.9,,,,,,,,,,,,,,,,,,
,,,,,,189ef00a035c0a119e679d77,66a626ef09d4e21e1a8894ec,6734a026b1e79a11308b491c,2024-11-13_13h49.40.190,Tarea de género gramatical,2024.2.2,Win32,60.0240096,,,,,,,,,,,,,,,,,,,,,,,,88.607,89.955,a,1,[],[],[],[],[],[],[],0.667,1,89.956,90.455,0,12,12,13,1,2014,MAS,CON,150,siglo,,l,0.667,,,,,,,,,,,,,,,,,,
,,,,,,189ef00a035c0a119e679d77,66a626ef09d4e21e1a8894ec,6734a026b1e79a11308b491c,2024-11-13_13h49.40.190,Tarea de género gramatical,2024.2.2,Win32,60.0240096,,,,,,,,,,,,,,,,,,,,,,,,90.457,91.771,l,1,[],[],[],[],[],[],[],0.65,1,91.771,92.272,0,13,13,0,1,2001,FEM,AGR,150,nuca,la,a,0.65,,,,,,,,,,,,,,,,,,
,,,,,,189ef00a035c0a119e679d77,66a626ef09d4e21e1a8894ec,6734a026b1e79a11308b491c,2024-11-13_13h49.40.190,Tarea de género gramatical,2024.2.2,Win32,60.0240096,,,,,,,,,,,,,,,,,,,,,,,,92.273,94.438,l,1,[],[],[],[],[],[],[],1.481,1,94.438,94.938,0,14,14,5,1,2006,FEM,DIS,150,serie,el,a,1.481,,,,,,,,,,,,,,,,,,
,,,,,,189ef00a035c0a119e679d77,66a626ef09d4e21e1a8894ec,6734a026b1e79a11308b491c,2024-11-13_13h49.40.190,Tarea de género gramatical,2024.2.2,Win32,60.0240096,,,96.574,97.688,space,0.015046296,-0.362268519,0,0,0,,,,,,,,,,,,1.072,,97.729,99.054,a,1,[],[],[],[],[],[],[],0.649,1,99.054,99.555,,,,,,256,MAS,AGR,150,techo,el,l,0.649,,99.555,99.561,0.015046296,-0.362268519,0,0,0,,0,0,0,255,1,,,,
,,,,,,189ef00a035c0a119e679d77,66a626ef09d4e21e1a8894ec,6734a026b1e79a11308b491c,2024-11-13_13h49.40.190,Tarea de género gramatical,2024.2.2,Win32,60.0240096,,,,,,,,,,,,,,,,,,,,,,,,99.563,100.887,a,1,[],[],[],[],[],[],[],0.652,1,100.887,101.387,,,,,,317,MAS,CON,150,número,,l,0.652,,101.387,101.387,0.015046296,-0.362268519,0,0,0,,0,1,1,316,1,,,,
,,,,,,189ef00a035c0a119e679d77,66a626ef09d4e21e1a8894ec,6734a026b1e79a11308b491c,2024-11-13_13h49.40.190,Tarea de género gramatical,2024.2.2,Win32,60.0240096,,,,,,,,,,,,,,,,,,,,,,,,101.389,102.92,a,1,[],[],[],[],[],[],[],0.852,1,102.921,103.42,,,,,,396,MAS,DIS,150,tesoro,la,l,0.852,,103.423,103.427,0.015046296,-0.362268519,0,0,0,,0,2,2,395,1,,,,
,,,,,,189ef00a035c0a119e679d77,66a626ef09d4e21e1a8894ec,6734a026b1e79a11308b491c,2024-11-13_13h49.40.190,Tarea de género gramatical,2024.2.2,Win32,60.0240096,,,,,,,,,,,,,,,,,,,,,,,,103.43,104.736,a,1,[],[],[],[],[],[],[],0.632,1,104.736,105.237,,,,,,46,MAS,AGR,150,odio,el,l,0.632,,105.238,105.238,0.015046296,-0.362268519,0,0,0,,0,3,3,45,1,,,,
,,,,,,189ef00a035c0a119e679d77,66a626ef09d4e21e1a8894ec,6734a026b1e79a11308b491c,2024-11-13_13h49.40.190,Tarea de género gramatical,2024.2.2,Win32,60.0240096,,,,,,,,,,,,,,,,,,,,,,,,105.24,106.786,a,1,[],[],[],[],[],[],[],0.868,1,106.786,107.286,,,,,,438,MAS,DIS,150,tanque,la,l,0.868,,107.286,107.286,0.015046296,-0.362268519,0,0,0,,0,4,4,437,1,,,,
,,,,,,189ef00a035c0a119e679d77,66a626ef09d4e21e1a8894ec,6734a026b1e79a11308b491c,2024-11-13_13h49.40.190,Tarea de género gramatical,2024.2.2,Win32,60.0240096,,,,,,,,,,,,,,,,,,,,,,,,107.287,108.637,l,1,[],[],[],[],[],[],[],0.67,1,108.639,109.136,,,,,,19,FEM,AGR,150,niña,la,a,0.67,,109.136,109.136,0.015046296,-0.362268519,0,0,0,,0,5,5,18,1,,,,
,,,,,,189ef00a035c0a119e679d77,66a626ef09d4e21e1a8894ec,6734a026b1e79a11308b491c,2024-11-13_13h49.40.190,Tarea de género gramatical,2024.2.2,Win32,60.0240096,,,,,,,,,,,,,,,,,,,,,,,,109.137,110.42,a,1,[],[],[],[],[],[],[],0.617,1,110.42,110.919,,,,,,28,MAS,AGR,150,club,el,l,0.617,,110.92,110.923,0.015046296,-0.362268519,0,0,0,,0,6,6,27,1,,,,
,,,,,,189ef00a035c0a119e679d77,66a626ef09d4e21e1a8894ec,6734a026b1e79a11308b491c,2024-11-13_13h49.40.190,Tarea de género gramatical,2024.2.2,Win32,60.0240096,,,,,,,,,,,,,,,,,,,,,,,,110.924,112.219,l,1,[],[],[],[],[],[],[],0.619,1,112.219,112.719,,,,,,91,FEM,AGR,150,hoja,la,a,0.619,,112.719,112.719,0.015046296,-0.362268519,0,0,0,,0,7,7,90,1,,,,
,,,,,,189ef00a035c0a119e679d77,66a626ef09d4e21e1a8894ec,6734a026b1e79a11308b491c,2024-11-13_13h49.40.190,Tarea de género gramatical,2024.2.2,Win32,60.0240096,,,,,,,,,,,,,,,,,,,,,,,,112.72,114.053,l,1,[],[],[],[],[],[],[],0.651,1,114.053,114.552,,,,,,97,FEM,AGR,150,capa,la,a,0.651,,114.552,114.552,0.015046296,-0.362268519,0,0,0,,0,8,8,96,1,,,,
,,,,,,189ef00a035c0a119e679d77,66a626ef09d4e21e1a8894ec,6734a026b1e79a11308b491c,2024-11-13_13h49.40.190,Tarea de género gramatical,2024.2.2,Win32,60.0240096,,,,,,,,,,,,,,,,,,,,,,,,114.553,116.118,l,1,[],[],[],[],[],[],[],0.902,1,116.118,116.618,,,,,,211,FEM,AGR,150,salud,la,a,0.902,,116.619,116.619,0.015046296,-0.362268519,0,0,0,,0,9,9,210,1,,,,
,,,,,,189ef00a035c0a119e679d77,66a626ef09d4e21e1a8894ec,6734a026b1e79a11308b491c,2024-11-13_13h49.40.190,Tarea de género gramatical,2024.2.2,Win32,60.0240096,,,,,,,,,,,,,,,,,,,,,,,,116.62,118.034,a,1,[],[],[],[],[],[],[],0.735,1,118.035,118.535,,,,,,18,MAS,DIS,150,tren,la,l,0.735,,118.535,118.535,0.015046296,-0.362268519,0,0,0,,0,10,10,17,1,,,,
,,,,,,189ef00a035c0a119e679d77,66a626ef09d4e21e1a8894ec,6734a026b1e79a11308b491c,2024-11-13_13h49.40.190,Tarea de género gramatical,2024.2.2,Win32,60.0240096,,,,,,,,,,,,,,,,,,,,,,,,118.536,119.952,a,1,[],[],[],[],[],[],[],0.736,1,119.953,120.452,,,,,,131,MAS,CON,150,kilo,,l,0.736,,120.453,120.457,0.015046296,-0.362268519,0,0,0,,0,11,11,130,1,,,,
,,,,,,189ef00a035c0a119e679d77,66a626ef09d4e21e1a8894ec,6734a026b1e79a11308b491c,2024-11-13_13h49.40.190,Tarea de género gramatical,2024.2.2,Win32,60.0240096,,,,,,,,,,,,,,,,,,,,,,,,120.461,121.701,l,1,[],[],[],[],[],[],[],0.566,1,121.701,122.202,,,,,,290,FEM,CON,150,cabra,,a,0.566,,122.202,122.202,0.015046296,-0.362268519,0,0,0,,0,12,12,289,1,,,,
,,,,,,189ef00a035c0a119e679d77,66a626ef09d4e21e1a8894ec,6734a026b1e79a11308b491c,2024-11-13_13h49.40.190,Tarea de género gramatical,2024.2.2,Win32,60.0240096,,,,,,,,,,,,,,,,,,,,,,,,122.205,123.484,a,1,[],[],[],[],[],[],[],0.602,1,123.485,123.985,,,,,,269,MAS,CON,150,primo,,l,0.602,,123.985,123.985,0.015046296,-0.362268519,0,0,0,,0,13,13,268,1,,,,
,,,,,,189ef00a035c0a119e679d77,66a626ef09d4e21e1a8894ec,6734a026b1e79a11308b491c,2024-11-13_13h49.40.190,Tarea de género gramatical,2024.2.2,Win32,60.0240096,,,,,,,,,,,,,,,,,,,,,,,,123.989,125.35,l,1,[],[],[],[],[],[],[],0.682,1,125.351,125.851,,,,,,423,FEM,DIS,150,poesía,el,a,0.682,,125.851,125.851,0.015046296,-0.362268519,0,0,0,,0,14,14,422,1,,,,
,,,,,,189ef00a035c0a119e679d77,66a626ef09d4e21e1a8894ec,6734a026b1e79a11308b491c,2024-11-13_13h49.40.190,Tarea de género gramatical,2024.2.2,Win32,60.0240096,,,,,,,,,,,,,,,,,,,,,,,,125.852,127.151,l,1,[],[],[],[],[],[],[],0.618,1,127.151,127.65,,,,,,313,FEM,AGR,150,ciudad,la,a,0.618,,127.651,127.653,0.015046296,-0.362268519,0,0,0,,0,15,15,312,1,,,,
,,,,,,189ef00a035c0a119e679d77,66a626ef09d4e21e1a8894ec,6734a026b1e79a11308b491c,2024-11-13_13h49.40.190,Tarea de género gramatical,2024.2.2,Win32,60.0240096,,,,,,,,,,,,,,,,,,,,,,,,127.655,128.933,a,1,[],[],[],[],[],[],[],0.6,1,128.933,129.434,,,,,,10,MAS,AGR,150,niño,el,l,0.6,,129.434,129.434,0.015046296,-0.362268519,0,0,0,,0,16,16,9,1,,,,
,,,,,,189ef00a035c0a119e679d77,66a626ef09d4e21e1a8894ec,6734a026b1e79a11308b491c,2024-11-13_13h49.40.190,Tarea de género gramatical,2024.2.2,Win32,60.0240096,,,,,,,,,,,,,,,,,,,,,,,,129.437,130.85,l,1,[],[],[],[],[],[],[],0.735,1,130.85,131.349,,,,,,259,FEM,AGR,150,prima,la,a,0.735,,131.349,131.35,0.015046296,-0.362268519,0,0,0,,0,17,17,258,1,,,,
,,,,,,189ef00a035c0a119e679d77,66a626ef09d4e21e1a8894ec,6734a026b1e79a11308b491c,2024-11-13_13h49.40.190,Tarea de género gramatical,2024.2.2,Win32,60.0240096,,,,,,,,,,,,,,,,,,,,,,,,131.351,132.666,l,1,[],[],[],[],[],[],[],0.651,1,132.666,133.166,,,,,,110,FEM,CON,150,rosa,,a,0.651,,133.166,133.166,0.015046296,-0.362268519,0,0,0,,0,18,18,109,1,,,,
,,,,,,189ef00a035c0a119e679d77,66a626ef09d4e21e1a8894ec,6734a026b1e79a11308b491c,2024-11-13_13h49.40.190,Tarea de género gramatical,2024.2.2,Win32,60.0240096,,,,,,,,,,,,,,,,,,,,,,,,133.167,134.533,l,1,[],[],[],[],[],[],[],0.699,1,134.533,135.033,,,,,,79,FEM,AGR,150,mina,la,a,0.699,,135.033,135.034,0.015046296,-0.362268519,0,0,0,,0,19,19,78,1,,,,
,,,,,,189ef00a035c0a119e679d77,66a626ef09d4e21e1a8894ec,6734a026b1e79a11308b491c,2024-11-13_13h49.40.190,Tarea de género gramatical,2024.2.2,Win32,60.0240096,,,,,,,,,,,,,,,,,,,,,,,,135.035,136.516,l,1,[],[],[],[],[],[],[],0.8,1,136.516,137.016,,,,,,14,FEM,CON,150,cara,,a,0.8,,137.016,137.018,0.015046296,-0.362268519,0,0,0,,0,20,20,13,1,,,,
,,,,,,189ef00a035c0a119e679d77,66a626ef09d4e21e1a8894ec,6734a026b1e79a11308b491c,2024-11-13_13h49.40.190,Tarea de género gramatical,2024.2.2,Win32,60.0240096,,,,,,,,,,,,,,,,,,,,,,,,137.019,138.648,l,1,[],[],[],[],[],[],[],0.95,1,138.65,139.149,,,,,,26,FEM,CON,150,pena,,a,0.95,,139.149,139.149,0.015046296,-0.362268519,0,0,0,,0,21,21,25,1,,,,
,,,,,,189ef00a035c0a119e679d77,66a626ef09d4e21e1a8894ec,6734a026b1e79a11308b491c,2024-11-13_13h49.40.190,Tarea de género gramatical,2024.2.2,Win32,60.0240096,,,,,,,,,,,,,,,,,,,,,,,,139.151,140.899,a,1,[],[],[],[],[],[],[],1.07,1,140.899,141.399,,,,,,102,MAS,DIS,150,coro,la,l,1.07,,141.399,141.399,0.015046296,-0.362268519,0,0,0,,0,22,22,101,1,,,,
,,,,,,189ef00a035c0a119e679d77,66a626ef09d4e21e1a8894ec,6734a026b1e79a11308b491c,2024-11-13_13h49.40.190,Tarea de género gramatical,2024.2.2,Win32,60.0240096,,,,,,,,,,,,,,,,,,,,,,,,141.4,142.865,l,1,[],[],[],[],[],[],[],0.785,1,142.866,143.365,,,,,,405,FEM,DIS,150,parada,el,a,0.785,,143.365,143.365,0.015046296,-0.362268519,0,0,0,,0,23,23,404,1,,,,
,,,,,,189ef00a035c0a119e679d77,66a626ef09d4e21e1a8894ec,6734a026b1e79a11308b491c,2024-11-13_13h49.40.190,Tarea de género gramatical,2024.2.2,Win32,60.0240096,,,,,,,,,,,,,,,,,,,,,,,,143.366,144.682,l,1,[],[],[],[],[],[],[],0.65,1,144.682,145.181,,,,,,379,FEM,AGR,150,granja,la,a,0.65,,145.182,145.184,0.015046296,-0.362268519,0,0,0,,0,24,24,378,1,,,,
,,,,,,189ef00a035c0a119e679d77,66a626ef09d4e21e1a8894ec,6734a026b1e79a11308b491c,2024-11-13_13h49.40.190,Tarea de género gramatical,2024.2.2,Win32,60.0240096,,,,,,,,,,,,,,,,,,,,,,,,145.185,146.915,l,1,[],[],[],[],[],[],[],1.051,1,146.915,147.414,,,,,,69,FEM,DIS,150,rata,el,a,1.051,,147.414,147.415,0.015046296,-0.362268519,0,0,0,,0,25,25,68,1,,,,
,,,,,,189ef00a035c0a119e679d77,66a626ef09d4e21e1a8894ec,6734a026b1e79a11308b491c,2024-11-13_13h49.40.190,Tarea de género gramatical,2024.2.2,Win32,60.0240096,,,,,,,,,,,,,,,,,,,,,,,,147.417,148.731,l,1,[],[],[],[],[],[],[],0.632,1,148.731,149.231,,,,,,415,FEM,AGR,150,cabina,la,a,0.632,,149.231,149.231,0.015046296,-0.362268519,0,0,0,,0,26,26,414,1,,,,
,,,,,,189ef00a035c0a119e679d77,66a626ef09d4e21e1a8894ec,6734a026b1e79a11308b491c,2024-11-13_13h49.40.190,Tarea de género gramatical,2024.2.2,Win32,60.0240096,,,,,,,,,,,,,,,,,,,,,,,,149.234,150.564,a,1,[],[],[],[],[],[],[],0.649,1,150.565,151.064,,,,,,166,MAS,AGR,150,coche,el,l,0.649,,151.064,151.064,0.015046296,-0.362268519,0,0,0,,0,27,27,165,1,,,,
,,,,,,189ef00a035c0a119e679d77,66a626ef09d4e21e1a8894ec,6734a026b1e79a11308b491c,2024-11-13_13h49.40.190,Tarea de género gramatical,2024.2.2,Win32,60.0240096,,,,,,,,,,,,,,,,,,,,,,,,151.065,152.614,a,1,[],[],[],[],[],[],[],0.868,1,152.614,153.115,,,,,,216,MAS,DIS,150,éxito,la,l,0.868,,153.115,153.115,0.015046296,-0.362268519,0,0,0,,0,28,28,215,1,,,,
,,,,,,189ef00a035c0a119e679d77,66a626ef09d4e21e1a8894ec,6734a026b1e79a11308b491c,2024-11-13_13h49.40.190,Tarea de género gramatical,2024.2.2,Win32,60.0240096,,,,,,,,,,,,,,,,,,,,,,,,153.122,154.63,a,1,[],[],[],[],[],[],[],0.833,1,154.63,155.13,,,,,,210,MAS,DIS,150,baile,la,l,0.833,,155.134,155.141,0.015046296,-0.362268519,0,0,0,,0,29,29,209,1,,,,
,,,,,,189ef00a035c0a119e679d77,66a626ef09d4e21e1a8894ec,6734a026b1e79a11308b491c,2024-11-13_13h49.40.190,Tarea de género gramatical,2024.2.2,Win32,60.0240096,,,,,,,,,,,,,,,,,,,,,,,,155.144,156.53,a,1,[],[],[],[],[],[],[],0.719,1,156.53,157.03,,,,,,185,MAS,CON,150,sueño,,l,0.719,,157.03,157.03,0.015046296,-0.362268519,0,0,0,,0,30,30,184,1,,,,
,,,,,,189ef00a035c0a119e679d77,66a626ef09d4e21e1a8894ec,6734a026b1e79a11308b491c,2024-11-13_13h49.40.190,Tarea de género gramatical,2024.2.2,Win32,60.0240096,,,,,,,,,,,,,,,,,,,,,,,,157.031,158.513,a,1,[],[],[],[],[],[],[],0.802,1,158.513,159.013,,,,,,234,MAS,DIS,150,héroe,la,l,0.802,,159.014,159.014,0.015046296,-0.362268519,0,0,0,,0,31,31,233,1,,,,
,,,,,,189ef00a035c0a119e679d77,66a626ef09d4e21e1a8894ec,6734a026b1e79a11308b491c,2024-11-13_13h49.40.190,Tarea de género gramatical,2024.2.2,Win32,60.0240096,,,,,,,,,,,,,,,,,,,,,,,,159.017,160.413,a,1,[],[],[],[],[],[],[],0.717,1,160.414,160.913,,,,,,245,MAS,CON,150,turno,,l,0.717,,160.913,160.913,0.015046296,-0.362268519,0,0,0,,0,32,32,244,1,,,,
,,,,,,189ef00a035c0a119e679d77,66a626ef09d4e21e1a8894ec,6734a026b1e79a11308b491c,2024-11-13_13h49.40.190,Tarea de género gramatical,2024.2.2,Win32,60.0240096,,,,,,,,,,,,,,,,,,,,,,,,160.914,162.112,l,1,[],[],[],[],[],[],[],0.517,1,162.113,162.613,,,,,,146,FEM,CON,150,lana,,a,0.517,,162.613,162.615,0.015046296,-0.362268519,0,0,0,,0,33,33,145,1,,,,
,,,,,,189ef00a035c0a119e679d77,66a626ef09d4e21e1a8894ec,6734a026b1e79a11308b491c,2024-11-13_13h49.40.190,Tarea de género gramatical,2024.2.2,Win32,60.0240096,,,,,,,,,,,,,,,,,,,,,,,,162.615,163.779,l,1,[],[],[],[],[],[],[],0.486,1,163.78,164.279,,,,,,158,FEM,CON,150,chica,,a,0.486,,164.279,164.28,0.015046296,-0.362268519,0,0,0,,0,34,34,157,1,,,,
,,,,,,189ef00a035c0a119e679d77,66a626ef09d4e21e1a8894ec,6734a026b1e79a11308b491c,2024-11-13_13h49.40.190,Tarea de género gramatical,2024.2.2,Win32,60.0240096,,,,,,,,,,,,,,,,,,,,,,,,164.281,165.513,a,1,[],[],[],[],[],[],[],0.552,1,165.514,166.012,,,,,,113,MAS,CON,150,toro,,l,0.552,,166.012,166.012,0.015046296,-0.362268519,0,0,0,,0,35,35,112,1,,,,
,,,,,,189ef00a035c0a119e679d77,66a626ef09d4e21e1a8894ec,6734a026b1e79a11308b491c,2024-11-13_13h49.40.190,Tarea de género gramatical,2024.2.2,Win32,60.0240096,,,,,,,,,,,,,,,,,,,,,,,,166.013,167.428,a,1,[],[],[],[],[],[],[],0.736,1,167.429,167.929,,,,,,126,MAS,DIS,150,lazo,la,l,0.736,,167.929,167.929,0.015046296,-0.362268519,0,0,0,,0,36,36,125,1,,,,
,,,,,,189ef00a035c0a119e679d77,66a626ef09d4e21e1a8894ec,6734a026b1e79a11308b491c,2024-11-13_13h49.40.190,Tarea de género gramatical,2024.2.2,Win32,60.0240096,,,,,,,,,,,,,,,,,,,,,,,,167.93,169.178,a,1,[],[],[],[],[],[],[],0.568,1,169.178,169.679,,,,,,264,MAS,DIS,150,pollo,la,l,0.568,,169.679,169.679,0.015046296,-0.362268519,0,0,0,,0,37,37,263,1,,,,
,,,,,,189ef00a035c0a119e679d77,66a626ef09d4e21e1a8894ec,6734a026b1e79a11308b491c,2024-11-13_13h49.40.190,Tarea de género gramatical,2024.2.2,Win32,60.0240096,,,,,,,,,,,,,,,,,,,,,,,,169.679,170.978,a,1,[],[],[],[],[],[],[],0.618,1,170.979,171.478,,,,,,420,MAS,DIS,150,helado,la,l,0.618,,171.478,171.479,0.015046296,-0.362268519,0,0,0,,0,38,38,419,1,,,,
,,,,,,189ef00a035c0a119e679d77,66a626ef09d4e21e1a8894ec,6734a026b1e79a11308b491c,2024-11-13_13h49.40.190,Tarea de género gramatical,2024.2.2,Win32,60.0240096,,,,,,,,,,,,,,,,,,,,,,,,171.481,172.761,a,1,[],[],[],[],[],[],[],0.604,1,172.761,173.261,,,,,,227,MAS,CON,150,vuelo,,l,0.604,,173.261,173.261,0.015046296,-0.362268519,0,0,0,,0,39,39,226,1,,,,
,,,,,,189ef00a035c0a119e679d77,66a626ef09d4e21e1a8894ec,6734a026b1e79a11308b491c,2024-11-13_13h49.40.190,Tarea de género gramatical,2024.2.2,Win32,60.0240096,,,,,,,,,,,,,,,,,,,,,,,,173.262,174.427,l,1,[],[],[],[],[],[],[],0.5,1,174.427,174.928,,,,,,13,FEM,AGR,150,hija,la,a,0.5,,174.928,174.928,0.015046296,-0.362268519,0,0,0,,0,40,40,12,1,,,,
,,,,,,189ef00a035c0a119e679d77,66a626ef09d4e21e1a8894ec,6734a026b1e79a11308b491c,2024-11-13_13h49.40.190,Tarea de género gramatical,2024.2.2,Win32,60.0240096,,,,,,,,,,,,,,,,,,,,,,,,174.929,176.227,a,1,[],[],[],[],[],[],[],0.617,1,176.228,176.728,,,,,,258,MAS,DIS,150,polvo,la,l,0.617,,176.728,176.728,0.015046296,-0.362268519,0,0,0,,0,41,41,257,1,,,,
,,,,,,189ef00a035c0a119e679d77,66a626ef09d4e21e1a8894ec,6734a026b1e79a11308b491c,2024-11-13_13h49.40.190,Tarea de género gramatical,2024.2.2,Win32,60.0240096,,,,,,,,,,,,,,,,,,,,,,,,176.728,178.211,l,1,[],[],[],[],[],[],[],0.801,1,178.211,178.71,,,,,,301,FEM,AGR,150,verdad,la,a,0.801,,178.711,178.712,0.015046296,-0.362268519,0,0,0,,0,42,42,300,1,,,,
,,,,,,189ef00a035c0a119e679d77,66a626ef09d4e21e1a8894ec,6734a026b1e79a11308b491c,2024-11-13_13h49.40.190,Tarea de género gramatical,2024.2.2,Win32,60.0240096,,,,,,,,,,,,,,,,,,,,,,,,178.713,180.027,l,1,[],[],[],[],[],[],[],0.637,1,180.027,180.527,,,,,,302,FEM,CON,150,cabeza,,a,0.637,,180.527,180.527,0.015046296,-0.362268519,0,0,0,,0,43,43,301,1,,,,
,,,,,,189ef00a035c0a119e679d77,66a626ef09d4e21e1a8894ec,6734a026b1e79a11308b491c,2024-11-13_13h49.40.190,Tarea de género gramatical,2024.2.2,Win32,60.0240096,,,,,,,,,,,,,,,,,,,,,,,,180.528,182.076,l,1,[],[],[],[],[],[],[],0.867,1,182.077,182.577,,,,,,45,FEM,DIS,150,isla,el,a,0.867,,182.577,182.577,0.015046296,-0.362268519,0,0,0,,0,44,44,44,1,,,,
,,,,,,189ef00a035c0a119e679d77,66a626ef09d4e21e1a8894ec,6734a026b1e79a11308b491c,2024-11-13_13h49.40.190,Tarea de género gramatical,2024.2.2,Win32,60.0240096,,,,,,,,,,,,,,,,,,,,,,,,182.578,183.927,l,1,[],[],[],[],[],[],[],0.669,1,183.927,184.426,,,,,,319,FEM,AGR,150,sangre,la,a,0.669,,184.426,184.426,0.015046296,-0.362268519,0,0,0,,0,45,45,318,1,,,,
,,,,,,189ef00a035c0a119e679d77,66a626ef09d4e21e1a8894ec,6734a026b1e79a11308b491c,2024-11-13_13h49.40.190,Tarea de género gramatical,2024.2.2,Win32,60.0240096,,,,,,,,,,,,,,,,,,,,,,,,184.427,185.743,l,1,[],[],[],[],[],[],[],0.637,1,185.743,186.243,,,,,,163,FEM,AGR,150,calle,la,a,0.637,,186.243,186.243,0.015046296,-0.362268519,0,0,0,,0,46,46,162,1,,,,
,,,,,,189ef00a035c0a119e679d77,66a626ef09d4e21e1a8894ec,6734a026b1e79a11308b491c,2024-11-13_13h49.40.190,Tarea de género gramatical,2024.2.2,Win32,60.0240096,,,,,,,,,,,,,,,,,,,,,,,,186.244,187.559,l,1,[],[],[],[],[],[],[],0.634,1,187.559,188.06,,,,,,339,FEM,DIS,150,salida,el,a,0.634,,188.066,188.07,0.015046296,-0.362268519,0,0,0,,0,47,47,338,1,,,,
,,,,,,189ef00a035c0a119e679d77,66a626ef09d4e21e1a8894ec,6734a026b1e79a11308b491c,2024-11-13_13h49.40.190,Tarea de género gramatical,2024.2.2,Win32,60.0240096,,,,,,,,,,,,,,,,,,,,,,,,188.072,189.842,l,1,[],[],[],[],[],[],[],1.097,1,189.843,190.342,,,,,,248,FEM,CON,150,letra,,a,1.097,,190.342,190.342,0.015046296,-0.362268519,0,0,0,,0,48,48,247,1,,,,
,,,,,,189ef00a035c0a119e679d77,66a626ef09d4e21e1a8894ec,6734a026b1e79a11308b491c,2024-11-13_13h49.40.190,Tarea de género gramatical,2024.2.2,Win32,60.0240096,,,,,,,,,,,,,,,,,,,,,,,,190.345,191.742,a,1,[],[],[],[],[],[],[],0.717,1,191.742,192.242,,,,,,334,MAS,AGR,150,ataque,el,l,0.717,,192.242,192.243,0.015046296,-0.362268519,0,0,0,,0,49,49,333,1,,,,
,,,,,,189ef00a035c0a119e679d77,66a626ef09d4e21e1a8894ec,6734a026b1e79a11308b491c,2024-11-13_13h49.40.190,Tarea de género gramatical,2024.2.2,Win32,60.0240096,,,,,,,,,,,,,,,,,,,,,,,,192.247,193.709,l,1,[],[],[],[],[],[],[],0.783,1,193.71,194.209,,,,,,331,FEM,AGR,150,cárcel,la,a,0.783,,194.209,194.209,0.015046296,-0.362268519,0,0,0,,0,50,50,330,1,,,,
,,,,,,189ef00a035c0a119e679d77,66a626ef09d4e21e1a8894ec,6734a026b1e79a11308b491c,2024-11-13_13h49.40.190,Tarea de género gramatical,2024.2.2,Win32,60.0240096,,,,,,,,,,,,,,,,,,,,,,,,194.211,195.609,l,1,[],[],[],[],[],[],[],0.717,1,195.609,196.108,,,,,,278,FEM,CON,150,presa,,a,0.717,,196.109,196.111,0.015046296,-0.362268519,0,0,0,,0,51,51,277,1,,,,
,,,,,,189ef00a035c0a119e679d77,66a626ef09d4e21e1a8894ec,6734a026b1e79a11308b491c,2024-11-13_13h49.40.190,Tarea de género gramatical,2024.2.2,Win32,60.0240096,,,,,,,,,,,,,,,,,,,,,,,,196.112,197.424,a,1,[],[],[],[],[],[],[],0.633,1,197.424,197.925,,,,,,412,MAS,AGR,150,espejo,el,l,0.633,,197.925,197.926,0.015046296,-0.362268519,0,0,0,,0,52,52,411,1,,,,
,,,,,,189ef00a035c0a119e679d77,66a626ef09d4e21e1a8894ec,6734a026b1e79a11308b491c,2024-11-13_13h49.40.190,Tarea de género gramatical,2024.2.2,Win32,60.0240096,,,,,,,,,,,,,,,,,,,,,,,,197.928,199.324,l,1,[],[],[],[],[],[],[],0.715,1,199.325,199.824,,,,,,31,FEM,AGR,150,edad,la,a,0.715,,199.824,199.825,0.015046296,-0.362268519,0,0,0,,0,53,53,30,1,,,,
,,,,,,189ef00a035c0a119e679d77,66a626ef09d4e21e1a8894ec,6734a026b1e79a11308b491c,2024-11-13_13h49.40.190,Tarea de género gramatical,2024.2.2,Win32,60.0240096,,,,,,,,,,,,,,,,,,,,,,,,199.826,201.007,l,1,[],[],[],[],[],[],[],0.502,1,201.007,201.508,,,,,,344,FEM,CON,150,pareja,,a,0.502,,201.508,201.508,0.015046296,-0.362268519,0,0,0,,0,54,54,343,1,,,,
,,,,,,189ef00a035c0a119e679d77,66a626ef09d4e21e1a8894ec,6734a026b1e79a11308b491c,2024-11-13_13h49.40.190,Tarea de género gramatical,2024.2.2,Win32,60.0240096,,,,,,,,,,,,,,,,,,,,,,,,201.509,203.057,l,1,[],[],[],[],[],[],[],0.868,1,203.057,203.557,,,,,,189,FEM,DIS,150,pista,el,a,0.868,,203.557,203.558,0.015046296,-0.362268519,0,0,0,,0,55,55,188,1,,,,
,,,,,,189ef00a035c0a119e679d77,66a626ef09d4e21e1a8894ec,6734a026b1e79a11308b491c,2024-11-13_13h49.40.190,Tarea de género gramatical,2024.2.2,Win32,60.0240096,,,,,,,,,,,,,,,,,,,,,,,,203.559,204.69,l,1,[],[],[],[],[],[],[],0.448,1,204.69,205.191,,,,,,428,FEM,CON,150,jugada,,a,0.448,,205.193,205.198,0.015046296,-0.362268519,0,0,0,,0,56,56,427,1,,,,
,,,,,,189ef00a035c0a119e679d77,66a626ef09d4e21e1a8894ec,6734a026b1e79a11308b491c,2024-11-13_13h49.40.190,Tarea de género gramatical,2024.2.2,Win32,60.0240096,,,,,,,,,,,,,,,,,,,,,,,,205.201,206.274,l,1,[],[],[],[],[],[],[],0.4,1,206.274,206.773,,,,,,170,FEM,CON,150,carta,,a,0.4,,206.774,206.774,0.015046296,-0.362268519,0,0,0,,0,57,57,169,1,,,,
,,,,,,189ef00a035c0a119e679d77,66a626ef09d4e21e1a8894ec,6734a026b1e79a11308b491c,2024-11-13_13h49.40.190,Tarea de género gramatical,2024.2.2,Win32,60.0240096,,,,,,,,,,,,,,,,,,,,,,,,206.776,207.99,a,1,[],[],[],[],[],[],[],0.534,1,207.99,208.49,,,,,,112,MAS,AGR,150,reto,el,l,0.534,,208.49,208.49,0.015046296,-0.362268519,0,0,0,,0,58,58,111,1,,,,
,,,,,,189ef00a035c0a119e679d77,66a626ef09d4e21e1a8894ec,6734a026b1e79a11308b491c,2024-11-13_13h49.40.190,Tarea de género gramatical,2024.2.2,Win32,60.0240096,,,,,,,,,,,,,,,,,,,,,,,,208.49,209.79,l,1,[],[],[],[],[],[],[],0.618,1,209.79,210.29,,,,,,321,FEM,DIS,150,comida,el,a,0.618,,210.29,210.29,0.015046296,-0.362268519,0,0,0,,0,59,59,320,1,,,,
,,,,,,189ef00a035c0a119e679d77,66a626ef09d4e21e1a8894ec,6734a026b1e79a11308b491c,2024-11-13_13h49.40.190,Tarea de género gramatical,2024.2.2,Win32,60.0240096,,,,,,,,,,,,,,,,,,,,,,,,210.291,211.406,l,1,[],[],[],[],[],[],[],0.451,1,211.406,211.907,,,,,,266,FEM,CON,150,jaula,,a,0.451,,211.909,211.912,0.015046296,-0.362268519,0,0,0,,0,60,60,265,1,,,,
,,,,,,189ef00a035c0a119e679d77,66a626ef09d4e21e1a8894ec,6734a026b1e79a11308b491c,2024-11-13_13h49.40.190,Tarea de género gramatical,2024.2.2,Win32,60.0240096,,,,,,,,,,,,,,,,,,,,,,,,211.916,213.122,a,1,[],[],[],[],[],[],[],0.533,1,213.122,213.623,,,,,,431,MAS,CON,150,veneno,,l,0.533,,213.623,213.623,0.015046296,-0.362268519,0,0,0,,0,61,61,430,1,,,,
,,,,,,189ef00a035c0a119e679d77,66a626ef09d4e21e1a8894ec,6734a026b1e79a11308b491c,2024-11-13_13h49.40.190,Tarea de género gramatical,2024.2.2,Win32,60.0240096,,,,,,,,,,,,,,,,,,,,,,,,213.624,215.039,a,1,[],[],[],[],[],[],[],0.734,1,215.04,215.539,,,,,,293,MAS,CON,150,patio,,l,0.734,,215.539,215.539,0.015046296,-0.362268519,0,0,0,,0,62,62,292,1,,,,
,,,,,,189ef00a035c0a119e679d77,66a626ef09d4e21e1a8894ec,6734a026b1e79a11308b491c,2024-11-13_13h49.40.190,Tarea de género gramatical,2024.2.2,Win32,60.0240096,,,,,,,,,,,,,,,,,,,,,,,,215.54,216.772,a,1,[],[],[],[],[],[],[],0.549,1,216.772,217.272,,,,,,47,MAS,CON,150,olor,,l,0.549,,217.272,217.272,0.015046296,-0.362268519,0,0,0,,0,63,63,46,1,,,,
,,,,,,189ef00a035c0a119e679d77,66a626ef09d4e21e1a8894ec,6734a026b1e79a11308b491c,2024-11-13_13h49.40.190,Tarea de género gramatical,2024.2.2,Win32,60.0240096,,,,,,,,,,,,,,,,,,,,,,,,217.273,218.522,a,1,[],[],[],[],[],[],[],0.566,1,218.522,219.022,,,,,,167,MAS,CON,150,juego,,l,0.566,,219.022,219.022,0.015046296,-0.362268519,0,0,0,,0,64,64,166,1,,,,
,,,,,,189ef00a035c0a119e679d77,66a626ef09d4e21e1a8894ec,6734a026b1e79a11308b491c,2024-11-13_13h49.40.190,Tarea de género gramatical,2024.2.2,Win32,60.0240096,,,,,,,,,,,,,,,,,,,,,,,,219.023,220.404,l,1,[],[],[],[],[],[],[],0.702,1,220.404,220.906,,,,,,27,FEM,DIS,150,mesa,el,a,0.702,,220.907,220.909,0.015046296,-0.362268519,0,0,0,,0,65,65,26,1,,,,
,,,,,,189ef00a035c0a119e679d77,66a626ef09d4e21e1a8894ec,6734a026b1e79a11308b491c,2024-11-13_13h49.40.190,Tarea de género gramatical,2024.2.2,Win32,60.0240096,,,,,,,,,,,,,,,,,,,,,,,,220.911,222.105,l,1,[],[],[],[],[],[],[],0.516,1,222.106,222.605,,,,,,50,FEM,CON,150,dama,,a,0.516,,222.605,222.606,0.015046296,-0.362268519,0,0,0,,0,66,66,49,1,,,,
,,,,,,189ef00a035c0a119e679d77,66a626ef09d4e21e1a8894ec,6734a026b1e79a11308b491c,2024-11-13_13h49.40.190,Tarea de género gramatical,2024.2.2,Win32,60.0240096,,,,,,,,,,,,,,,,,,,,,,,,222.613,223.839,a,0,[],[],[],[],[],[],[],0.555,0,223.841,224.338,,,,,,159,FEM,DIS,150,clase,el,a,0.555,,224.338,224.338,0.015046296,-0.362268519,0,0,0,,0,67,67,158,1,,,,
,,,,,,189ef00a035c0a119e679d77,66a626ef09d4e21e1a8894ec,6734a026b1e79a11308b491c,2024-11-13_13h49.40.190,Tarea de género gramatical,2024.2.2,Win32,60.0240096,,,,,,,,,,,,,,,,,,,,,,,,224.339,225.689,a,1,[],[],[],[],[],[],[],0.686,1,225.691,226.188,,,,,,346,MAS,AGR,150,juicio,el,l,0.686,,226.188,226.188,0.015046296,-0.362268519,0,0,0,,0,68,68,345,1,,,,
,,,,,,189ef00a035c0a119e679d77,66a626ef09d4e21e1a8894ec,6734a026b1e79a11308b491c,2024-11-13_13h49.40.190,Tarea de género gramatical,2024.2.2,Win32,60.0240096,,,,,,,,,,,,,,,,,,,,,,,,226.188,227.404,a,1,[],[],[],[],[],[],[],0.533,1,227.404,227.904,,,,,,239,MAS,CON,150,reloj,,l,0.533,,227.905,227.907,0.015046296,-0.362268519,0,0,0,,0,69,69,238,1,,,,
,,,,,,189ef00a035c0a119e679d77,66a626ef09d4e21e1a8894ec,6734a026b1e79a11308b491c,2024-11-13_13h49.40.190,Tarea de género gramatical,2024.2.2,Win32,60.0240096,,,,,,,,,,,,,,,,,,,,,,,,227.91,229.254,l,1,[],[],[],[],[],[],[],0.666,1,229.254,229.754,,,,,,141,FEM,DIS,150,cera,el,a,0.666,,229.754,229.754,0.015046296,-0.362268519,0,0,0,,0,70,70,140,1,,,,
,,,,,,189ef00a035c0a119e679d77,66a626ef09d4e21e1a8894ec,6734a026b1e79a11308b491c,2024-11-13_13h49.40.190,Tarea de género gramatical,2024.2.2,Win32,60.0240096,,,,,,,,,,,,,,,,,,,,,,,,229.756,231.103,a,1,[],[],[],[],[],[],[],0.668,1,231.104,231.604,,,,,,29,MAS,CON,150,frío,,l,0.668,,231.604,231.604,0.015046296,-0.362268519,0,0,0,,0,71,71,28,1,,,,
,,,,,,189ef00a035c0a119e679d77,66a626ef09d4e21e1a8894ec,6734a026b1e79a11308b491c,2024-11-13_13h49.40.190,Tarea de género gramatical,2024.2.2,Win32,60.0240096,,,,,,,,,,,,,,,,,,,,,,,,231.605,232.937,l,1,[],[],[],[],[],[],[],0.651,1,232.938,233.436,,,,,,151,FEM,AGR,150,noche,la,a,0.651,,233.436,233.437,0.015046296,-0.362268519,0,0,0,,0,72,72,150,1,,,,
,,,,,,189ef00a035c0a119e679d77,66a626ef09d4e21e1a8894ec,6734a026b1e79a11308b491c,2024-11-13_13h49.40.190,Tarea de género gramatical,2024.2.2,Win32,60.0240096,,,,,,,,,,,,,,,,,,,,,,,,233.438,234.62,l,1,[],[],[],[],[],[],[],0.5,1,234.62,235.12,,,,,,338,FEM,CON,150,abuela,,a,0.5,,235.12,235.12,0.015046296,-0.362268519,0,0,0,,0,73,73,337,1,,,,
,,,,,,189ef00a035c0a119e679d77,66a626ef09d4e21e1a8894ec,6734a026b1e79a11308b491c,2024-11-13_13h49.40.190,Tarea de género gramatical,2024.2.2,Win32,60.0240096,,,,,,,,,,,,,,,,,,,,,,,,235.12,236.37,a,1,[],[],[],[],[],[],[],0.566,1,236.37,236.87,,,,,,88,MAS,AGR,150,pavo,el,l,0.566,,236.87,236.871,0.015046296,-0.362268519,0,0,0,,0,74,74,87,1,,,,
,,,,,,189ef00a035c0a119e679d77,66a626ef09d4e21e1a8894ec,6734a026b1e79a11308b491c,2024-11-13_13h49.40.190,Tarea de género gramatical,2024.2.2,Win32,60.0240096,,,,,,,,,,,,,,,,,,,,,,,,236.872,238.152,l,1,[],[],[],[],[],[],[],0.602,1,238.153,238.652,,,,,,381,FEM,DIS,150,bebida,el,a,0.602,,238.652,238.653,0.015046296,-0.362268519,0,0,0,,0,75,75,380,1,,,,
,,,,,,189ef00a035c0a119e679d77,66a626ef09d4e21e1a8894ec,6734a026b1e79a11308b491c,2024-11-13_13h49.40.190,Tarea de género gramatical,2024.2.2,Win32,60.0240096,,,,,,,,,,,,,,,,,,,,,,,,238.653,239.886,a,1,[],[],[],[],[],[],[],0.568,1,239.887,240.386,,,,,,77,MAS,CON,150,pico,,l,0.568,,240.386,240.386,0.015046296,-0.362268519,0,0,0,,0,76,76,76,1,,,,
,,,,,,189ef00a035c0a119e679d77,66a626ef09d4e21e1a8894ec,6734a026b1e79a11308b491c,2024-11-13_13h49.40.190,Tarea de género gramatical,2024.2.2,Win32,60.0240096,,,,,,,,,,,,,,,,,,,,,,,,240.387,241.653,a,1,[],[],[],[],[],[],[],0.583,1,241.653,242.152,,,,,,371,MAS,CON,150,sonido,,l,0.583,,242.152,242.152,0.015046296,-0.362268519,0,0,0,,0,77,77,370,1,,,,
,,,,,,189ef00a035c0a119e679d77,66a626ef09d4e21e1a8894ec,6734a026b1e79a11308b491c,2024-11-13_13h49.40.190,Tarea de género gramatical,2024.2.2,Win32,60.0240096,,,,,,,,,,,,,,,,,,,,,,,,242.153,243.468,a,1,[],[],[],[],[],[],[],0.632,1,243.468,243.969,,,,,,42,MAS,DIS,150,show,la,l,0.632,,243.969,243.971,0.015046296,-0.362268519,0,0,0,,0,78,78,41,1,,,,
,,,,,,189ef00a035c0a119e679d77,66a626ef09d4e21e1a8894ec,6734a026b1e79a11308b491c,2024-11-13_13h49.40.190,Tarea de género gramatical,2024.2.2,Win32,60.0240096,,,,,,,,,,,,,,,,,,,,,,,,243.972,245.335,l,1,[],[],[],[],[],[],[],0.683,1,245.335,245.835,,,,,,63,FEM,DIS,150,fila,el,a,0.683,,245.835,245.835,0.015046296,-0.362268519,0,0,0,,0,79,79,62,1,,,,
,,,,,,189ef00a035c0a119e679d77,66a626ef09d4e21e1a8894ec,6734a026b1e79a11308b491c,2024-11-13_13h49.40.190,Tarea de género gramatical,2024.2.2,Win32,60.0240096,,,,,,,,,,,,,,,,,,,,,,,,245.836,247.069,a,1,[],[],[],[],[],[],[],0.567,1,247.069,247.568,,,,,,382,MAS,AGR,150,teatro,el,l,0.567,,247.568,247.568,0.015046296,-0.362268519,0,0,0,,0,80,80,381,1,,,,
,,,,,,189ef00a035c0a119e679d77,66a626ef09d4e21e1a8894ec,6734a026b1e79a11308b491c,2024-11-13_13h49.40.190,Tarea de género gramatical,2024.2.2,Win32,60.0240096,,,,,,,,,,,,,,,,,,,,,,,,247.57,248.768,a,1,[],[],[],[],[],[],[],0.517,1,248.768,249.268,,,,,,59,MAS,CON,150,lobo,,l,0.517,,249.268,249.268,0.015046296,-0.362268519,0,0,0,,0,81,81,58,1,,,,
,,,,,,189ef00a035c0a119e679d77,66a626ef09d4e21e1a8894ec,6734a026b1e79a11308b491c,2024-11-13_13h49.40.190,Tarea de género gramatical,2024.2.2,Win32,60.0240096,,,,,,,,,,,,,,,,,,,,,,,,249.271,250.451,l,1,[],[],[],[],[],[],[],0.499,1,250.451,250.951,,,,,,421,FEM,AGR,150,novela,la,a,0.499,,250.951,250.951,0.015046296,-0.362268519,0,0,0,,0,82,82,420,1,,,,
,,,,,,189ef00a035c0a119e679d77,66a626ef09d4e21e1a8894ec,6734a026b1e79a11308b491c,2024-11-13_13h49.40.190,Tarea de género gramatical,2024.2.2,Win32,60.0240096,,,,,,,,,,,,,,,,,,,,,,,,250.952,252.052,a,1,[],[],[],[],[],[],[],0.417,1,252.053,252.552,,,,,,209,MAS,CON,150,banco,,l,0.417,,252.561,252.565,0.015046296,-0.362268519,0,0,0,,0,83,83,208,1,,,,
,,,,,,189ef00a035c0a119e679d77,66a626ef09d4e21e1a8894ec,6734a026b1e79a11308b491c,2024-11-13_13h49.40.190,Tarea de género gramatical,2024.2.2,Win32,60.0240096,,,,,,,,,,,,,,,,,,,,,,,,252.568,253.934,l,1,[],[],[],[],[],[],[],0.685,1,253.935,254.434,,,,,,111,FEM,DIS,150,goma,el,a,0.685,,254.434,254.434,0.015046296,-0.362268519,0,0,0,,0,84,84,110,1,,,,
,,,,,,189ef00a035c0a119e679d77,66a626ef09d4e21e1a8894ec,6734a026b1e79a11308b491c,2024-11-13_13h49.40.190,Tarea de género gramatical,2024.2.2,Win32,60.0240096,,,,,,,,,,,,,,,,,,,,,,,,254.437,255.766,a,1,[],[],[],[],[],[],[],0.652,1,255.767,256.267,,,,,,432,MAS,DIS,150,océano,la,l,0.652,,256.267,256.268,0.015046296,-0.362268519,0,0,0,,0,85,85,431,1,,,,
,,,,,,189ef00a035c0a119e679d77,66a626ef09d4e21e1a8894ec,6734a026b1e79a11308b491c,2024-11-13_13h49.40.190,Tarea de género gramatical,2024.2.2,Win32,60.0240096,,,,,,,,,,,,,,,,,,,,,,,,256.271,257.484,l,1,[],[],[],[],[],[],[],0.535,1,257.485,257.984,,,,,,62,FEM,CON,150,sopa,,a,0.535,,257.984,257.984,0.015046296,-0.362268519,0,0,0,,0,86,86,61,1,,,,
,,,,,,189ef00a035c0a119e679d77,66a626ef09d4e21e1a8894ec,6734a026b1e79a11308b491c,2024-11-13_13h49.40.190,Tarea de género gramatical,2024.2.2,Win32,60.0240096,,,,,,,,,,,,,,,,,,,,,,,,257.984,259.267,a,1,[],[],[],[],[],[],[],0.6,1,259.267,259.767,,,,,,377,MAS,CON,150,jardín,,l,0.6,,259.769,259.772,0.015046296,-0.362268519,0,0,0,,0,87,87,376,1,,,,
,,,,,,189ef00a035c0a119e679d77,66a626ef09d4e21e1a8894ec,6734a026b1e79a11308b491c,2024-11-13_13h49.40.190,Tarea de género gramatical,2024.2.2,Win32,60.0240096,,,,,,,,,,,,,,,,,,,,,,,,259.774,260.966,l,1,[],[],[],[],[],[],[],0.517,1,260.966,261.466,,,,,,134,FEM,CON,150,rama,,a,0.517,,261.466,261.467,0.015046296,-0.362268519,0,0,0,,0,88,88,133,1,,,,
,,,,,,189ef00a035c0a119e679d77,66a626ef09d4e21e1a8894ec,6734a026b1e79a11308b491c,2024-11-13_13h49.40.190,Tarea de género gramatical,2024.2.2,Win32,60.0240096,,,,,,,,,,,,,,,,,,,,,,,,261.467,262.617,a,1,[],[],[],[],[],[],[],0.47,1,262.617,263.117,,,,,,407,MAS,CON,150,jurado,,l,0.47,,263.117,263.117,0.015046296,-0.362268519,0,0,0,,0,89,89,406,1,,,,
,,,,,,189ef00a035c0a119e679d77,66a626ef09d4e21e1a8894ec,6734a026b1e79a11308b491c,2024-11-13_13h49.40.190,Tarea de género gramatical,2024.2.2,Win32,60.0240096,,,,,,,,,,,,,,,,,,,,,,,,263.118,264.316,a,1,[],[],[],[],[],[],[],0.515,1,264.316,264.816,,,,,,449,MAS,CON,150,payaso,,l,0.515,,264.816,264.816,0.015046296,-0.362268519,0,0,0,,0,90,90,448,1,,,,
,,,,,,189ef00a035c0a119e679d77,66a626ef09d4e21e1a8894ec,6734a026b1e79a11308b491c,2024-11-13_13h49.40.190,Tarea de género gramatical,2024.2.2,Win32,60.0240096,,,,,,,,,,,,,,,,,,,,,,,,264.817,265.999,a,1,[],[],[],[],[],[],[],0.499,1,265.999,266.5,,,,,,5,MAS,CON,150,tipo,,l,0.499,,266.5,266.5,0.015046296,-0.362268519,0,0,0,,0,91,91,4,1,,,,
,,,,,,189ef00a035c0a119e679d77,66a626ef09d4e21e1a8894ec,6734a026b1e79a11308b491c,2024-11-13_13h49.40.190,Tarea de género gramatical,2024.2.2,Win32,60.0240096,,,,,,,,,,,,,,,,,,,,,,,,266.501,267.799,l,1,[],[],[],[],[],[],[],0.619,1,267.799,268.299,,,,,,67,FEM,AGR,150,miel,la,a,0.619,,268.3,268.303,0.015046296,-0.362268519,0,0,0,,0,92,92,66,1,,,,
,,,,,,189ef00a035c0a119e679d77,66a626ef09d4e21e1a8894ec,6734a026b1e79a11308b491c,2024-11-13_13h49.40.190,Tarea de género gramatical,2024.2.2,Win32,60.0240096,,,,,,,,,,,,,,,,,,,,,,,,268.305,269.582,a,1,[],[],[],[],[],[],[],0.602,1,269.582,270.082,,,,,,311,MAS,CON,150,camino,,l,0.602,,270.082,270.082,0.015046296,-0.362268519,0,0,0,,0,93,93,310,1,,,,
,,,,,,189ef00a035c0a119e679d77,66a626ef09d4e21e1a8894ec,6734a026b1e79a11308b491c,2024-11-13_13h49.40.190,Tarea de género gramatical,2024.2.2,Win32,60.0240096,,,,,,,,,,,,,,,,,,,,,,,,270.083,271.448,a,1,[],[],[],[],[],[],[],0.684,1,271.449,271.949,,,,,,354,MAS,DIS,150,camión,la,l,0.684,,271.949,271.949,0.015046296,-0.362268519,0,0,0,,0,94,94,353,1,,,,
,,,,,,189ef00a035c0a119e679d77,66a626ef09d4e21e1a8894ec,6734a026b1e79a11308b491c,2024-11-13_13h49.40.190,Tarea de género gramatical,2024.2.2,Win32,60.0240096,,,,,,,,,,,,,,,,,,,,,,,,271.95,273.131,l,1,[],[],[],[],[],[],[],0.5,1,273.131,273.631,,,,,,434,FEM,CON,150,corona,,a,0.5,,273.631,273.631,0.015046296,-0.362268519,0,0,0,,0,95,95,433,1,,,,
,,,,,,189ef00a035c0a119e679d77,66a626ef09d4e21e1a8894ec,6734a026b1e79a11308b491c,2024-11-13_13h49.40.190,Tarea de género gramatical,2024.2.2,Win32,60.0240096,,,,,,,,,,,,,,,,,,,,,,,,273.633,274.747,a,1,[],[],[],[],[],[],[],0.438,1,274.747,275.248,,,,,,22,MAS,AGR,150,pelo,el,l,0.438,,275.249,275.25,0.015046296,-0.362268519,0,0,0,,0,96,96,21,1,,,,
,,,,,,189ef00a035c0a119e679d77,66a626ef09d4e21e1a8894ec,6734a026b1e79a11308b491c,2024-11-13_13h49.40.190,Tarea de género gramatical,2024.2.2,Win32,60.0240096,,,,,,,,,,,,,,,,,,,,,,,,275.251,276.531,a,1,[],[],[],[],[],[],[],0.601,1,276.531,277.031,,,,,,198,MAS,DIS,150,hotel,la,l,0.601,,277.031,277.031,0.015046296,-0.362268519,0,0,0,,0,97,97,197,1,,,,
,,,,,,189ef00a035c0a119e679d77,66a626ef09d4e21e1a8894ec,6734a026b1e79a11308b491c,2024-11-13_13h49.40.190,Tarea de género gramatical,2024.2.2,Win32,60.0240096,,,,,,,,,,,,,,,,,,,,,,,,277.033,278.314,a,1,[],[],[],[],[],[],[],0.604,1,278.314,278.814,,,,,,222,MAS,DIS,150,valor,la,l,0.604,,278.814,278.814,0.015046296,-0.362268519,0,0,0,,0,98,98,221,1,,,,
,,,,,,189ef00a035c0a119e679d77,66a626ef09d4e21e1a8894ec,6734a026b1e79a11308b491c,2024-11-13_13h49.40.190,Tarea de género gramatical,2024.2.2,Win32,60.0240096,,,,,,,,,,,,,,,,,,,,,,,,278.815,280.08,l,1,[],[],[],[],[],[],[],0.586,1,280.081,280.58,,,,,,225,FEM,DIS,150,pieza,el,a,0.586,,280.58,280.58,0.015046296,-0.362268519,0,0,0,,0,99,99,224,1,,,,
,,,,,,189ef00a035c0a119e679d77,66a626ef09d4e21e1a8894ec,6734a026b1e79a11308b491c,2024-11-13_13h49.40.190,Tarea de género gramatical,2024.2.2,Win32,60.0240096,,,,,,,,,,,,,,,,,,,,,,,,280.582,281.847,a,1,[],[],[],[],[],[],[],0.582,1,281.847,282.347,,,,,,173,MAS,CON,150,libro,,l,0.582,,282.347,282.347,0.015046296,-0.362268519,0,0,0,,0,100,100,172,1,,,,
,,,,,,189ef00a035c0a119e679d77,66a626ef09d4e21e1a8894ec,6734a026b1e79a11308b491c,2024-11-13_13h49.40.190,Tarea de género gramatical,2024.2.2,Win32,60.0240096,,,,,,,,,,,,,,,,,,,,,,,,282.349,283.614,a,1,[],[],[],[],[],[],[],0.584,1,283.614,284.113,,,,,,372,MAS,DIS,150,delito,la,l,0.584,,284.114,284.117,0.015046296,-0.362268519,0,0,0,,0,101,101,371,1,,,,
,,,,,,189ef00a035c0a119e679d77,66a626ef09d4e21e1a8894ec,6734a026b1e79a11308b491c,2024-11-13_13h49.40.190,Tarea de género gramatical,2024.2.2,Win32,60.0240096,,,,,,,,,,,,,,,,,,,,,,,,284.118,285.396,a,1,[],[],[],[],[],[],[],0.6,1,285.396,285.896,,,,,,60,MAS,DIS,150,tono,la,l,0.6,,285.897,285.897,0.015046296,-0.362268519,0,0,0,,0,102,102,59,1,,,,
,,,,,,189ef00a035c0a119e679d77,66a626ef09d4e21e1a8894ec,6734a026b1e79a11308b491c,2024-11-13_13h49.40.190,Tarea de género gramatical,2024.2.2,Win32,60.0240096,,,,,,,,,,,,,,,,,,,,,,,,285.897,287.196,a,1,[],[],[],[],[],[],[],0.616,1,287.196,287.696,,,,,,142,MAS,AGR,150,lodo,el,l,0.616,,287.697,287.697,0.015046296,-0.362268519,0,0,0,,0,103,103,141,1,,,,
,,,,,,189ef00a035c0a119e679d77,66a626ef09d4e21e1a8894ec,6734a026b1e79a11308b491c,2024-11-13_13h49.40.190,Tarea de género gramatical,2024.2.2,Win32,60.0240096,,,,,,,,,,,,,,,,,,,,,,,,287.703,288.93,a,1,[],[],[],[],[],[],[],0.548,1,288.933,289.429,,,,,,298,MAS,AGR,150,botón,el,l,0.548,,289.429,289.429,0.015046296,-0.362268519,0,0,0,,0,104,104,297,1,,,,
,,,,,,189ef00a035c0a119e679d77,66a626ef09d4e21e1a8894ec,6734a026b1e79a11308b491c,2024-11-13_13h49.40.190,Tarea de género gramatical,2024.2.2,Win32,60.0240096,,,,,,,,,,,,,,,,,,,,,,,,289.431,290.679,a,1,[],[],[],[],[],[],[],0.568,1,290.68,291.18,,,,,,125,MAS,CON,150,bate,,l,0.568,,291.18,291.183,0.015046296,-0.362268519,0,0,0,,0,105,105,124,1,,,,
,,,,,,189ef00a035c0a119e679d77,66a626ef09d4e21e1a8894ec,6734a026b1e79a11308b491c,2024-11-13_13h49.40.190,Tarea de género gramatical,2024.2.2,Win32,60.0240096,,,,,,,,,,,,,,,,,,,,,,,,291.185,292.712,a,0,[],[],[],[],[],[],[],0.853,0,292.713,293.212,,,,,,81,FEM,DIS,150,cima,el,a,0.853,,293.212,293.212,0.015046296,-0.362268519,0,0,0,,0,106,106,80,1,,,,
,,,,,,189ef00a035c0a119e679d77,66a626ef09d4e21e1a8894ec,6734a026b1e79a11308b491c,2024-11-13_13h49.40.190,Tarea de género gramatical,2024.2.2,Win32,60.0240096,,,,,,,,,,,,,,,,,,,,,,,,293.213,294.596,a,1,[],[],[],[],[],[],[],0.7,1,294.597,295.095,,,,,,353,MAS,CON,150,verano,,l,0.7,,295.095,295.095,0.015046296,-0.362268519,0,0,0,,0,107,107,352,1,,,,
,,,,,,189ef00a035c0a119e679d77,66a626ef09d4e21e1a8894ec,6734a026b1e79a11308b491c,2024-11-13_13h49.40.190,Tarea de género gramatical,2024.2.2,Win32,60.0240096,,,,,,,,,,,,,,,,,,,,,,,,295.096,296.329,l,1,[],[],[],[],[],[],[],0.551,1,296.329,296.829,,,,,,164,FEM,CON,150,novia,,a,0.551,,296.829,296.829,0.015046296,-0.362268519,0,0,0,,0,108,108,163,1,,,,
,,,,,,189ef00a035c0a119e679d77,66a626ef09d4e21e1a8894ec,6734a026b1e79a11308b491c,2024-11-13_13h49.40.190,Tarea de género gramatical,2024.2.2,Win32,60.0240096,,,,,,,,,,,,,,,,,,,,,,,,296.829,298.195,l,1,[],[],[],[],[],[],[],0.683,1,298.195,298.695,,,,,,261,FEM,DIS,150,cueva,el,a,0.683,,298.695,298.695,0.015046296,-0.362268519,0,0,0,,0,109,109,260,1,,,,
,,,,,,189ef00a035c0a119e679d77,66a626ef09d4e21e1a8894ec,6734a026b1e79a11308b491c,2024-11-13_13h49.40.190,Tarea de género gramatical,2024.2.2,Win32,60.0240096,,,,,,,,,,,,,,,,,,,,,,,,298.696,299.844,a,1,[],[],[],[],[],[],[],0.468,1,299.844,300.345,,,,,,64,MAS,AGR,150,saco,el,l,0.468,,300.346,300.35,0.015046296,-0.362268519,0,0,0,,0,110,110,63,1,,,,
,,,,,,189ef00a035c0a119e679d77,66a626ef09d4e21e1a8894ec,6734a026b1e79a11308b491c,2024-11-13_13h49.40.190,Tarea de género gramatical,2024.2.2,Win32,60.0240096,,,,,,,,,,,,,,,,,,,,,,,,300.352,301.595,l,1,[],[],[],[],[],[],[],0.568,1,301.595,302.094,,,,,,447,FEM,DIS,150,lógica,el,a,0.568,,302.094,302.095,0.015046296,-0.362268519,0,0,0,,0,111,111,446,1,,,,
,,,,,,189ef00a035c0a119e679d77,66a626ef09d4e21e1a8894ec,6734a026b1e79a11308b491c,2024-11-13_13h49.40.190,Tarea de género gramatical,2024.2.2,Win32,60.0240096,,,,,,,,,,,,,,,,,,,,,,,,302.097,303.295,a,1,[],[],[],[],[],[],[],0.521,1,303.295,303.794,,,,,,53,MAS,CON,150,vaso,,l,0.521,,303.794,303.794,0.015046296,-0.362268519,0,0,0,,0,112,112,52,1,,,,
,,,,,,189ef00a035c0a119e679d77,66a626ef09d4e21e1a8894ec,6734a026b1e79a11308b491c,2024-11-13_13h49.40.190,Tarea de género gramatical,2024.2.2,Win32,60.0240096,,,,,,,,,,,,,,,,,,,,,,,,303.795,304.977,a,1,[],[],[],[],[],[],[],0.5,1,304.978,305.478,,,,,,119,MAS,CON,150,mito,,l,0.5,,305.478,305.478,0.015046296,-0.362268519,0,0,0,,0,113,113,118,1,,,,
,,,,,,189ef00a035c0a119e679d77,66a626ef09d4e21e1a8894ec,6734a026b1e79a11308b491c,2024-11-13_13h49.40.190,Tarea de género gramatical,2024.2.2,Win32,60.0240096,,,,,,,,,,,,,,,,,,,,,,,,305.478,306.727,l,1,[],[],[],[],[],[],[],0.57,1,306.727,307.227,,,,,,74,FEM,CON,150,flor,,a,0.57,,307.228,307.229,0.015046296,-0.362268519,0,0,0,,0,114,114,73,1,,,,
,,,,,,189ef00a035c0a119e679d77,66a626ef09d4e21e1a8894ec,6734a026b1e79a11308b491c,2024-11-13_13h49.40.190,Tarea de género gramatical,2024.2.2,Win32,60.0240096,,,,,,,,,,,,,,,,,,,,,,,,307.23,308.594,a,0,[],[],[],[],[],[],[],0.685,0,308.595,309.093,,,,,,147,FEM,DIS,150,grúa,el,a,0.685,,309.093,309.093,0.015046296,-0.362268519,0,0,0,,0,115,115,146,1,,,,
,,,,,,189ef00a035c0a119e679d77,66a626ef09d4e21e1a8894ec,6734a026b1e79a11308b491c,2024-11-13_13h49.40.190,Tarea de género gramatical,2024.2.2,Win32,60.0240096,,,,,,,,,,,,,,,,,,,,,,,,309.094,310.343,l,1,[],[],[],[],[],[],[],0.569,1,310.345,310.843,,,,,,296,FEM,CON,150,feria,,a,0.569,,310.844,310.844,0.015046296,-0.362268519,0,0,0,,0,116,116,295,1,,,,
,,,,,,189ef00a035c0a119e679d77,66a626ef09d4e21e1a8894ec,6734a026b1e79a11308b491c,2024-11-13_13h49.40.190,Tarea de género gramatical,2024.2.2,Win32,60.0240096,,,,,,,,,,,,,,,,,,,,,,,,310.844,312.261,l,1,[],[],[],[],[],[],[],0.737,1,312.261,312.76,,,,,,231,FEM,DIS,150,bruja,el,a,0.737,,312.76,312.76,0.015046296,-0.362268519,0,0,0,,0,117,117,230,1,,,,
,,,,,,189ef00a035c0a119e679d77,66a626ef09d4e21e1a8894ec,6734a026b1e79a11308b491c,2024-11-13_13h49.40.190,Tarea de género gramatical,2024.2.2,Win32,60.0240096,,,,,,,,,,,,,,,,,,,,,,,,312.762,314.527,l,1,[],[],[],[],[],[],[],1.081,1,314.527,315.026,,,,,,362,FEM,CON,150,fuente,,a,1.081,,315.026,315.026,0.015046296,-0.362268519,0,0,0,,0,118,118,361,1,,,,
,,,,,,189ef00a035c0a119e679d77,66a626ef09d4e21e1a8894ec,6734a026b1e79a11308b491c,2024-11-13_13h49.40.190,Tarea de género gramatical,2024.2.2,Win32,60.0240096,,,,,,,,,,,,,,,,,,,,,,,,315.027,316.259,l,1,[],[],[],[],[],[],[],0.549,1,316.259,316.76,,,,,,309,FEM,DIS,150,esposa,el,a,0.549,,316.76,316.762,0.015046296,-0.362268519,0,0,0,,0,119,119,308,1,,,,
,,,,,,189ef00a035c0a119e679d77,66a626ef09d4e21e1a8894ec,6734a026b1e79a11308b491c,2024-11-13_13h49.40.190,Tarea de género gramatical,2024.2.2,Win32,60.0240096,,,,,,,,,,,,,,,,,,,,,,,,316.763,317.86,l,1,[],[],[],[],[],[],[],0.417,1,317.86,318.359,,,,,,37,FEM,AGR,150,sala,la,a,0.417,,318.359,318.359,0.015046296,-0.362268519,0,0,0,,0,120,120,36,1,,,,
,,,,,,189ef00a035c0a119e679d77,66a626ef09d4e21e1a8894ec,6734a026b1e79a11308b491c,2024-11-13_13h49.40.190,Tarea de género gramatical,2024.2.2,Win32,60.0240096,,,,,,,,,,,,,,,,,,,,,,,,318.36,319.459,l,1,[],[],[],[],[],[],[],0.438,1,319.459,319.959,,,,,,133,FEM,AGR,150,joya,la,a,0.438,,319.959,319.959,0.015046296,-0.362268519,0,0,0,,0,121,121,132,1,,,,
,,,,,,189ef00a035c0a119e679d77,66a626ef09d4e21e1a8894ec,6734a026b1e79a11308b491c,2024-11-13_13h49.40.190,Tarea de género gramatical,2024.2.2,Win32,60.0240096,,,,,,,,,,,,,,,,,,,,,,,,319.96,321.292,a,1,[],[],[],[],[],[],[],0.65,1,321.293,321.793,,,,,,390,MAS,DIS,150,rostro,la,l,0.65,,321.793,321.793,0.015046296,-0.362268519,0,0,0,,0,122,122,389,1,,,,
,,,,,,189ef00a035c0a119e679d77,66a626ef09d4e21e1a8894ec,6734a026b1e79a11308b491c,2024-11-13_13h49.40.190,Tarea de género gramatical,2024.2.2,Win32,60.0240096,,,,,,,,,,,,,,,,,,,,,,,,321.796,323.041,a,1,[],[],[],[],[],[],[],0.568,1,323.042,323.542,,,,,,330,MAS,DIS,150,estado,la,l,0.568,,323.542,323.545,0.015046296,-0.362268519,0,0,0,,0,123,123,329,1,,,,
,,,,,,189ef00a035c0a119e679d77,66a626ef09d4e21e1a8894ec,6734a026b1e79a11308b491c,2024-11-13_13h49.40.190,Tarea de género gramatical,2024.2.2,Win32,60.0240096,,,,,,,,,,,,,,,,,,,,,,,,323.545,324.808,l,1,[],[],[],[],[],[],[],0.585,1,324.808,325.309,,,,,,105,FEM,DIS,150,jefa,el,a,0.585,,325.309,325.309,0.015046296,-0.362268519,0,0,0,,0,124,124,104,1,,,,
,,,,,,189ef00a035c0a119e679d77,66a626ef09d4e21e1a8894ec,6734a026b1e79a11308b491c,2024-11-13_13h49.40.190,Tarea de género gramatical,2024.2.2,Win32,60.0240096,,,,,,,,,,,,,,,,,,,,,,,,325.311,326.491,l,1,[],[],[],[],[],[],[],0.5,1,326.492,326.991,,,,,,409,FEM,AGR,150,moneda,la,a,0.5,,326.992,326.992,0.015046296,-0.362268519,0,0,0,,0,125,125,408,1,,,,
,,,,,,189ef00a035c0a119e679d77,66a626ef09d4e21e1a8894ec,6734a026b1e79a11308b491c,2024-11-13_13h49.40.190,Tarea de género gramatical,2024.2.2,Win32,60.0240096,,,,,,,,,,,,,,,,,,,,,,,,326.993,328.458,a,1,[],[],[],[],[],[],[],0.784,1,328.458,328.958,,,,,,378,MAS,DIS,150,pastel,la,l,0.784,,328.958,328.958,0.015046296,-0.362268519,0,0,0,,0,126,126,377,1,,,,
,,,,,,189ef00a035c0a119e679d77,66a626ef09d4e21e1a8894ec,6734a026b1e79a11308b491c,2024-11-13_13h49.40.190,Tarea de género gramatical,2024.2.2,Win32,60.0240096,,,,,,,,,,,,,,,,,,,,,,,,328.959,330.174,a,1,[],[],[],[],[],[],[],0.533,1,330.174,330.674,,,,,,347,MAS,CON,150,cuello,,l,0.533,,330.674,330.674,0.015046296,-0.362268519,0,0,0,,0,127,127,346,1,,,,
,,,,,,189ef00a035c0a119e679d77,66a626ef09d4e21e1a8894ec,6734a026b1e79a11308b491c,2024-11-13_13h49.40.190,Tarea de género gramatical,2024.2.2,Win32,60.0240096,,,,,,,,,,,,,,,,,,,,,,,,330.674,331.857,a,1,[],[],[],[],[],[],[],0.5,1,331.857,332.357,,,,,,155,MAS,CON,150,mundo,,l,0.5,,332.358,332.36,0.015046296,-0.362268519,0,0,0,,0,128,128,154,1,,,,
,,,,,,189ef00a035c0a119e679d77,66a626ef09d4e21e1a8894ec,6734a026b1e79a11308b491c,2024-11-13_13h49.40.190,Tarea de género gramatical,2024.2.2,Win32,60.0240096,,,,,,,,,,,,,,,,,,,,,,,,332.361,333.706,a,1,[],[],[],[],[],[],[],0.665,1,333.708,334.207,,,,,,323,MAS,CON,150,marido,,l,0.665,,334.207,334.207,0.015046296,-0.362268519,0,0,0,,0,129,129,322,1,,,,
,,,,,,189ef00a035c0a119e679d77,66a626ef09d4e21e1a8894ec,6734a026b1e79a11308b491c,2024-11-13_13h49.40.190,Tarea de género gramatical,2024.2.2,Win32,60.0240096,,,,,,,,,,,,,,,,,,,,,,,,334.208,335.49,a,1,[],[],[],[],[],[],[],0.601,1,335.49,335.99,,,,,,71,MAS,CON,150,pozo,,l,0.601,,335.99,335.99,0.015046296,-0.362268519,0,0,0,,0,130,130,70,1,,,,
,,,,,,189ef00a035c0a119e679d77,66a626ef09d4e21e1a8894ec,6734a026b1e79a11308b491c,2024-11-13_13h49.40.190,Tarea de género gramatical,2024.2.2,Win32,60.0240096,,,,,,,,,,,,,,,,,,,,,,,,335.991,337.24,a,1,[],[],[],[],[],[],[],0.567,1,337.24,337.74,,,,,,304,MAS,AGR,150,tiempo,el,l,0.567,,337.74,337.74,0.015046296,-0.362268519,0,0,0,,0,131,131,303,1,,,,
,,,,,,189ef00a035c0a119e679d77,66a626ef09d4e21e1a8894ec,6734a026b1e79a11308b491c,2024-11-13_13h49.40.190,Tarea de género gramatical,2024.2.2,Win32,60.0240096,,,,,,,,,,,,,,,,,,,,,,,,337.742,338.973,l,1,[],[],[],[],[],[],[],0.55,1,338.973,339.473,,,,,,194,FEM,CON,150,banda,,a,0.55,,339.474,339.476,0.015046296,-0.362268519,0,0,0,,0,132,132,193,1,,,,
,,,,,,189ef00a035c0a119e679d77,66a626ef09d4e21e1a8894ec,6734a026b1e79a11308b491c,2024-11-13_13h49.40.190,Tarea de género gramatical,2024.2.2,Win32,60.0240096,,,,,,,,,,,,,,,,,,,,,,,,339.476,340.59,a,1,[],[],[],[],[],[],[],0.434,1,340.591,341.089,,,,,,437,MAS,CON,150,hombro,,l,0.434,,341.089,341.09,0.015046296,-0.362268519,0,0,0,,0,133,133,436,1,,,,
,,,,,,189ef00a035c0a119e679d77,66a626ef09d4e21e1a8894ec,6734a026b1e79a11308b491c,2024-11-13_13h49.40.190,Tarea de género gramatical,2024.2.2,Win32,60.0240096,,,,,,,,,,,,,,,,,,,,,,,,341.091,342.239,l,1,[],[],[],[],[],[],[],0.466,1,342.239,342.739,,,,,,68,FEM,CON,150,pata,,a,0.466,,342.739,342.739,0.015046296,-0.362268519,0,0,0,,0,134,134,67,1,,,,
,,,,,,189ef00a035c0a119e679d77,66a626ef09d4e21e1a8894ec,6734a026b1e79a11308b491c,2024-11-13_13h49.40.190,Tarea de género gramatical,2024.2.2,Win32,60.0240096,,,,,,,,,,,,,,,,,,,,,,,,342.74,344.056,a,1,[],[],[],[],[],[],[],0.633,1,344.056,344.556,,,,,,162,MAS,DIS,150,miedo,la,l,0.633,,344.556,344.556,0.015046296,-0.362268519,0,0,0,,0,135,135,161,1,,,,
,,,,,,189ef00a035c0a119e679d77,66a626ef09d4e21e1a8894ec,6734a026b1e79a11308b491c,2024-11-13_13h49.40.190,Tarea de género gramatical,2024.2.2,Win32,60.0240096,,,,,,,,,,,,,,,,,,,,,,,,344.557,345.789,a,1,[],[],[],[],[],[],[],0.551,1,345.789,346.289,,,,,,196,MAS,AGR,150,barco,el,l,0.551,,346.289,346.289,0.015046296,-0.362268519,0,0,0,,0,136,136,195,1,,,,
,,,,,,189ef00a035c0a119e679d77,66a626ef09d4e21e1a8894ec,6734a026b1e79a11308b491c,2024-11-13_13h49.40.190,Tarea de género gramatical,2024.2.2,Win32,60.0240096,,,,,,,,,,,,,,,,,,,,,,,,346.29,347.405,l,1,[],[],[],[],[],[],[],0.433,1,347.405,347.905,,,,,,80,FEM,CON,150,vaca,,a,0.433,,347.906,347.908,0.015046296,-0.362268519,0,0,0,,0,137,137,79,1,,,,
,,,,,,189ef00a035c0a119e679d77,66a626ef09d4e21e1a8894ec,6734a026b1e79a11308b491c,2024-11-13_13h49.40.190,Tarea de género gramatical,2024.2.2,Win32,60.0240096,,,,,,,,,,,,,,,,,,,,,,,,347.909,349.305,l,1,[],[],[],[],[],[],[],0.716,1,349.305,349.805,,,,,,39,FEM,DIS,150,luna,el,a,0.716,,349.805,349.805,0.015046296,-0.362268519,0,0,0,,0,138,138,38,1,,,,
,,,,,,189ef00a035c0a119e679d77,66a626ef09d4e21e1a8894ec,6734a026b1e79a11308b491c,2024-11-13_13h49.40.190,Tarea de género gramatical,2024.2.2,Win32,60.0240096,,,,,,,,,,,,,,,,,,,,,,,,349.806,350.988,a,1,[],[],[],[],[],[],[],0.502,1,350.988,351.488,,,,,,305,MAS,CON,150,hombre,,l,0.502,,351.488,351.488,0.015046296,-0.362268519,0,0,0,,0,139,139,304,1,,,,
,,,,,,189ef00a035c0a119e679d77,66a626ef09d4e21e1a8894ec,6734a026b1e79a11308b491c,2024-11-13_13h49.40.190,Tarea de género gramatical,2024.2.2,Win32,60.0240096,,,,,,,,,,,,,,,,,,,,,,,,351.489,352.688,l,1,[],[],[],[],[],[],[],0.518,1,352.69,353.188,,,,,,435,FEM,DIS,150,niebla,el,a,0.518,,353.189,353.189,0.015046296,-0.362268519,0,0,0,,0,140,140,434,1,,,,
,,,,,,189ef00a035c0a119e679d77,66a626ef09d4e21e1a8894ec,6734a026b1e79a11308b491c,2024-11-13_13h49.40.190,Tarea de género gramatical,2024.2.2,Win32,60.0240096,,,,,,,,,,,,,,,,,,,,,,,,353.194,354.521,l,1,[],[],[],[],[],[],[],0.652,1,354.522,355.021,,,,,,249,FEM,DIS,150,crema,el,a,0.652,,355.023,355.026,0.015046296,-0.362268519,0,0,0,,0,141,141,248,1,,,,
,,,,,,189ef00a035c0a119e679d77,66a626ef09d4e21e1a8894ec,6734a026b1e79a11308b491c,2024-11-13_13h49.40.190,Tarea de género gramatical,2024.2.2,Win32,60.0240096,,,,,,,,,,,,,,,,,,,,,,,,355.029,356.221,l,0,[],[],[],[],[],[],[],0.519,0,356.223,356.721,,,,,,12,MAS,DIS,150,plan,la,l,0.519,,356.721,356.721,0.015046296,-0.362268519,0,0,0,,0,142,142,11,1,,,,
,,,,,,189ef00a035c0a119e679d77,66a626ef09d4e21e1a8894ec,6734a026b1e79a11308b491c,2024-11-13_13h49.40.190,Tarea de género gramatical,2024.2.2,Win32,60.0240096,,,,,,,,,,,,,,,,,,,,,,,,356.721,358.271,a,1,[],[],[],[],[],[],[],0.867,1,358.273,358.771,,,,,,348,MAS,DIS,150,anillo,la,l,0.867,,358.771,358.771,0.015046296,-0.362268519,0,0,0,,0,143,143,347,1,,,,
,,,,,,189ef00a035c0a119e679d77,66a626ef09d4e21e1a8894ec,6734a026b1e79a11308b491c,2024-11-13_13h49.40.190,Tarea de género gramatical,2024.2.2,Win32,60.0240096,,,,,,,,,,,,,,,,,,,,,,,,358.773,360.037,a,1,[],[],[],[],[],[],[],0.584,1,360.038,360.537,,,,,,376,MAS,AGR,150,efecto,el,l,0.584,,360.537,360.537,0.015046296,-0.362268519,0,0,0,,0,144,144,375,1,,,,
,,,,,,189ef00a035c0a119e679d77,66a626ef09d4e21e1a8894ec,6734a026b1e79a11308b491c,2024-11-13_13h49.40.190,Tarea de género gramatical,2024.2.2,Win32,60.0240096,,,,,,,,,,,,,,,,,,,,,,,,360.538,361.887,a,1,[],[],[],[],[],[],[],0.667,1,361.887,362.386,,,,,,312,MAS,DIS,150,equipo,la,l,0.667,,362.386,362.388,0.015046296,-0.362268519,0,0,0,,0,145,145,311,1,,,,
,,,,,,189ef00a035c0a119e679d77,66a626ef09d4e21e1a8894ec,6734a026b1e79a11308b491c,2024-11-13_13h49.40.190,Tarea de género gramatical,2024.2.2,Win32,60.0240096,,,,,,,,,,,,,,,,,,,,,,,,362.388,363.537,l,1,[],[],[],[],[],[],[],0.466,1,363.537,364.036,,,,,,51,FEM,DIS,150,bala,el,a,0.466,,364.037,364.039,0.015046296,-0.362268519,0,0,0,,0,146,146,50,1,,,,
,,,,,,189ef00a035c0a119e679d77,66a626ef09d4e21e1a8894ec,6734a026b1e79a11308b491c,2024-11-13_13h49.40.190,Tarea de género gramatical,2024.2.2,Win32,60.0240096,,,,,,,,,,,,,,,,,,,,,,,,364.041,365.237,a,1,[],[],[],[],[],[],[],0.519,1,365.237,365.736,,,,,,358,MAS,AGR,150,motivo,el,l,0.519,,365.736,365.736,0.015046296,-0.362268519,0,0,0,,0,147,147,357,1,,,,
,,,,,,189ef00a035c0a119e679d77,66a626ef09d4e21e1a8894ec,6734a026b1e79a11308b491c,2024-11-13_13h49.40.190,Tarea de género gramatical,2024.2.2,Win32,60.0240096,,,,,,,,,,,,,,,,,,,,,,,,365.738,367.02,a,1,[],[],[],[],[],[],[],0.601,1,367.02,367.519,,,,,,149,MAS,CON,150,nudo,,l,0.601,,367.52,367.52,0.015046296,-0.362268519,0,0,0,,0,148,148,148,1,,,,
,,,,,,189ef00a035c0a119e679d77,66a626ef09d4e21e1a8894ec,6734a026b1e79a11308b491c,2024-11-13_13h49.40.190,Tarea de género gramatical,2024.2.2,Win32,60.0240096,,,,,,,,,,,,,,,,,,,,,,,,367.52,368.92,a,1,[],[],[],[],[],[],[],0.718,1,368.92,369.419,,,,,,450,MAS,DIS,150,conejo,la,l,0.718,,369.419,369.419,0.015046296,-0.362268519,0,0,0,,0,149,149,449,1,,,,
,,,,,,189ef00a035c0a119e679d77,66a626ef09d4e21e1a8894ec,6734a026b1e79a11308b491c,2024-11-13_13h49.40.190,Tarea de género gramatical,2024.2.2,Win32,60.0240096,,,,,,,,,,,,,,,,,,,,,,,,369.42,370.652,l,1,[],[],[],[],[],[],[],0.551,1,370.653,371.152,,,,,,397,FEM,AGR,150,cuerda,la,a,0.551,,371.153,374.269,0.015046296,-0.362268519,0,0,0,space,0,150,150,396,1,3.072,,,
,,,,,,189ef00a035c0a119e679d77,66a626ef09d4e21e1a8894ec,6734a026b1e79a11308b491c,2024-11-13_13h49.40.190,Tarea de género gramatical,2024.2.2,Win32,60.0240096,,,,,,,,,,,,,,,,,,,,,,,,374.271,375.652,a,1,[],[],[],[],[],[],[],0.7,1,375.654,376.152,,,,,,197,MAS,CON,150,avión,,l,0.7,,376.152,376.152,0.015046296,-0.362268519,0,0,0,,0,151,151,196,1,,,,
,,,,,,189ef00a035c0a119e679d77,66a626ef09d4e21e1a8894ec,6734a026b1e79a11308b491c,2024-11-13_13h49.40.190,Tarea de género gramatical,2024.2.2,Win32,60.0240096,,,,,,,,,,,,,,,,,,,,,,,,376.153,377.319,a,1,[],[],[],[],[],[],[],0.486,1,377.319,377.818,,,,,,11,MAS,CON,150,país,,l,0.486,,377.818,377.818,0.015046296,-0.362268519,0,0,0,,0,152,152,10,1,,,,
,,,,,,189ef00a035c0a119e679d77,66a626ef09d4e21e1a8894ec,6734a026b1e79a11308b491c,2024-11-13_13h49.40.190,Tarea de género gramatical,2024.2.2,Win32,60.0240096,,,,,,,,,,,,,,,,,,,,,,,,377.819,379.018,l,1,[],[],[],[],[],[],[],0.517,1,379.019,379.518,,,,,,230,FEM,CON,150,regla,,a,0.517,,379.518,379.518,0.015046296,-0.362268519,0,0,0,,0,153,153,229,1,,,,
,,,,,,189ef00a035c0a119e679d77,66a626ef09d4e21e1a8894ec,6734a026b1e79a11308b491c,2024-11-13_13h49.40.190,Tarea de género gramatical,2024.2.2,Win32,60.0240096,,,,,,,,,,,,,,,,,,,,,,,,379.519,380.751,l,1,[],[],[],[],[],[],[],0.552,1,380.751,381.252,,,,,,374,FEM,CON,150,herida,,a,0.552,,381.252,381.252,0.015046296,-0.362268519,0,0,0,,0,154,154,373,1,,,,
,,,,,,189ef00a035c0a119e679d77,66a626ef09d4e21e1a8894ec,6734a026b1e79a11308b491c,2024-11-13_13h49.40.190,Tarea de género gramatical,2024.2.2,Win32,60.0240096,,,,,,,,,,,,,,,,,,,,,,,,381.254,382.434,l,1,[],[],[],[],[],[],[],0.5,1,382.434,382.934,,,,,,368,FEM,CON,150,gracia,,a,0.5,,382.935,382.937,0.015046296,-0.362268519,0,0,0,,0,155,155,367,1,,,,
,,,,,,189ef00a035c0a119e679d77,66a626ef09d4e21e1a8894ec,6734a026b1e79a11308b491c,2024-11-13_13h49.40.190,Tarea de género gramatical,2024.2.2,Win32,60.0240096,,,,,,,,,,,,,,,,,,,,,,,,382.939,384.284,l,1,[],[],[],[],[],[],[],0.667,1,384.284,384.784,,,,,,187,FEM,AGR,150,lista,la,a,0.667,,384.784,384.784,0.015046296,-0.362268519,0,0,0,,0,156,156,186,1,,,,
,,,,,,189ef00a035c0a119e679d77,66a626ef09d4e21e1a8894ec,6734a026b1e79a11308b491c,2024-11-13_13h49.40.190,Tarea de género gramatical,2024.2.2,Win32,60.0240096,,,,,,,,,,,,,,,,,,,,,,,,384.785,386.067,a,1,[],[],[],[],[],[],[],0.601,1,386.067,386.567,,,,,,180,MAS,DIS,150,fuego,la,l,0.601,,386.567,386.567,0.015046296,-0.362268519,0,0,0,,0,157,157,179,1,,,,
,,,,,,189ef00a035c0a119e679d77,66a626ef09d4e21e1a8894ec,6734a026b1e79a11308b491c,2024-11-13_13h49.40.190,Tarea de género gramatical,2024.2.2,Win32,60.0240096,,,,,,,,,,,,,,,,,,,,,,,,386.568,387.783,l,1,[],[],[],[],[],[],[],0.534,1,387.784,388.283,,,,,,272,FEM,CON,150,oreja,,a,0.534,,388.284,388.284,0.015046296,-0.362268519,0,0,0,,0,158,158,271,1,,,,
,,,,,,189ef00a035c0a119e679d77,66a626ef09d4e21e1a8894ec,6734a026b1e79a11308b491c,2024-11-13_13h49.40.190,Tarea de género gramatical,2024.2.2,Win32,60.0240096,,,,,,,,,,,,,,,,,,,,,,,,388.287,389.449,l,1,[],[],[],[],[],[],[],0.484,1,389.45,389.95,,,,,,92,FEM,CON,150,masa,,a,0.484,,389.951,389.953,0.015046296,-0.362268519,0,0,0,,0,159,159,91,1,,,,
,,,,,,189ef00a035c0a119e679d77,66a626ef09d4e21e1a8894ec,6734a026b1e79a11308b491c,2024-11-13_13h49.40.190,Tarea de género gramatical,2024.2.2,Win32,60.0240096,,,,,,,,,,,,,,,,,,,,,,,,389.954,391.533,a,1,[],[],[],[],[],[],[],0.903,1,391.534,392.033,,,,,,324,MAS,DIS,150,cuarto,la,l,0.903,,392.033,392.033,0.015046296,-0.362268519,0,0,0,,0,160,160,323,1,,,,
,,,,,,189ef00a035c0a119e679d77,66a626ef09d4e21e1a8894ec,6734a026b1e79a11308b491c,2024-11-13_13h49.40.190,Tarea de género gramatical,2024.2.2,Win32,60.0240096,,,,,,,,,,,,,,,,,,,,,,,,392.036,393.316,l,1,[],[],[],[],[],[],[],0.604,1,393.317,393.815,,,,,,127,FEM,AGR,150,cuna,la,a,0.604,,393.815,393.816,0.015046296,-0.362268519,0,0,0,,0,161,161,126,1,,,,
,,,,,,189ef00a035c0a119e679d77,66a626ef09d4e21e1a8894ec,6734a026b1e79a11308b491c,2024-11-13_13h49.40.190,Tarea de género gramatical,2024.2.2,Win32,60.0240096,,,,,,,,,,,,,,,,,,,,,,,,393.817,394.999,l,1,[],[],[],[],[],[],[],0.517,1,394.999,395.499,,,,,,20,FEM,CON,150,ropa,,a,0.517,,395.499,395.499,0.015046296,-0.362268519,0,0,0,,0,162,162,19,1,,,,
,,,,,,189ef00a035c0a119e679d77,66a626ef09d4e21e1a8894ec,6734a026b1e79a11308b491c,2024-11-13_13h49.40.190,Tarea de género gramatical,2024.2.2,Win32,60.0240096,,,,,,,,,,,,,,,,,,,,,,,,395.5,396.716,l,1,[],[],[],[],[],[],[],0.535,1,396.716,397.216,,,,,,391,FEM,AGR,150,altura,la,a,0.535,,397.216,397.216,0.015046296,-0.362268519,0,0,0,,0,163,163,390,1,,,,
,,,,,,189ef00a035c0a119e679d77,66a626ef09d4e21e1a8894ec,6734a026b1e79a11308b491c,2024-11-13_13h49.40.190,Tarea de género gramatical,2024.2.2,Win32,60.0240096,,,,,,,,,,,,,,,,,,,,,,,,397.216,398.648,a,1,[],[],[],[],[],[],[],0.75,1,398.649,399.148,,,,,,132,MAS,DIS,150,velo,la,l,0.75,,399.149,399.151,0.015046296,-0.362268519,0,0,0,,0,164,164,131,1,,,,
,,,,,,189ef00a035c0a119e679d77,66a626ef09d4e21e1a8894ec,6734a026b1e79a11308b491c,2024-11-13_13h49.40.190,Tarea de género gramatical,2024.2.2,Win32,60.0240096,,,,,,,,,,,,,,,,,,,,,,,,399.152,400.599,a,1,[],[],[],[],[],[],[],0.767,1,400.599,401.098,,,,,,48,MAS,DIS,150,loco,la,l,0.767,,401.098,401.098,0.015046296,-0.362268519,0,0,0,,0,165,165,47,1,,,,
,,,,,,189ef00a035c0a119e679d77,66a626ef09d4e21e1a8894ec,6734a026b1e79a11308b491c,2024-11-13_13h49.40.190,Tarea de género gramatical,2024.2.2,Win32,60.0240096,,,,,,,,,,,,,,,,,,,,,,,,401.099,402.548,a,1,[],[],[],[],[],[],[],0.769,1,402.548,403.048,,,,,,366,MAS,DIS,150,riesgo,la,l,0.769,,403.048,403.048,0.015046296,-0.362268519,0,0,0,,0,166,166,365,1,,,,
,,,,,,189ef00a035c0a119e679d77,66a626ef09d4e21e1a8894ec,6734a026b1e79a11308b491c,2024-11-13_13h49.40.190,Tarea de género gramatical,2024.2.2,Win32,60.0240096,,,,,,,,,,,,,,,,,,,,,,,,403.049,404.282,l,1,[],[],[],[],[],[],[],0.553,1,404.282,404.781,,,,,,73,FEM,AGR,150,roca,la,a,0.553,,404.781,404.781,0.015046296,-0.362268519,0,0,0,,0,167,167,72,1,,,,
,,,,,,189ef00a035c0a119e679d77,66a626ef09d4e21e1a8894ec,6734a026b1e79a11308b491c,2024-11-13_13h49.40.190,Tarea de género gramatical,2024.2.2,Win32,60.0240096,,,,,,,,,,,,,,,,,,,,,,,,404.782,406.231,a,1,[],[],[],[],[],[],[],0.768,1,406.232,406.731,,,,,,310,MAS,AGR,150,nombre,el,l,0.768,,406.733,406.737,0.015046296,-0.362268519,0,0,0,,0,168,168,309,1,,,,
,,,,,,189ef00a035c0a119e679d77,66a626ef09d4e21e1a8894ec,6734a026b1e79a11308b491c,2024-11-13_13h49.40.190,Tarea de género gramatical,2024.2.2,Win32,60.0240096,,,,,,,,,,,,,,,,,,,,,,,,406.739,407.948,l,1,[],[],[],[],[],[],[],0.533,1,407.948,408.448,,,,,,375,FEM,DIS,150,cadena,el,a,0.533,,408.448,408.448,0.015046296,-0.362268519,0,0,0,,0,169,169,374,1,,,,
,,,,,,189ef00a035c0a119e679d77,66a626ef09d4e21e1a8894ec,6734a026b1e79a11308b491c,2024-11-13_13h49.40.190,Tarea de género gramatical,2024.2.2,Win32,60.0240096,,,,,,,,,,,,,,,,,,,,,,,,408.449,409.731,a,1,[],[],[],[],[],[],[],0.601,1,409.731,410.231,,,,,,106,MAS,AGR,150,test,el,l,0.601,,410.231,410.231,0.015046296,-0.362268519,0,0,0,,0,170,170,105,1,,,,
,,,,,,189ef00a035c0a119e679d77,66a626ef09d4e21e1a8894ec,6734a026b1e79a11308b491c,2024-11-13_13h49.40.190,Tarea de género gramatical,2024.2.2,Win32,60.0240096,,,,,,,,,,,,,,,,,,,,,,,,410.233,411.53,a,1,[],[],[],[],[],[],[],0.615,1,411.531,412.03,,,,,,300,MAS,DIS,150,túnel,la,l,0.615,,412.03,412.03,0.015046296,-0.362268519,0,0,0,,0,171,171,299,1,,,,
,,,,,,189ef00a035c0a119e679d77,66a626ef09d4e21e1a8894ec,6734a026b1e79a11308b491c,2024-11-13_13h49.40.190,Tarea de género gramatical,2024.2.2,Win32,60.0240096,,,,,,,,,,,,,,,,,,,,,,,,412.031,413.13,l,1,[],[],[],[],[],[],[],0.432,1,413.13,413.63,,,,,,273,FEM,DIS,150,tarta,el,a,0.432,,413.63,413.63,0.015046296,-0.362268519,0,0,0,,0,172,172,272,1,,,,
,,,,,,189ef00a035c0a119e679d77,66a626ef09d4e21e1a8894ec,6734a026b1e79a11308b491c,2024-11-13_13h49.40.190,Tarea de género gramatical,2024.2.2,Win32,60.0240096,,,,,,,,,,,,,,,,,,,,,,,,413.632,414.797,l,1,[],[],[],[],[],[],[],0.484,1,414.797,415.297,,,,,,356,FEM,CON,150,piedra,,a,0.484,,415.297,415.299,0.015046296,-0.362268519,0,0,0,,0,173,173,355,1,,,,
,,,,,,189ef00a035c0a119e679d77,66a626ef09d4e21e1a8894ec,6734a026b1e79a11308b491c,2024-11-13_13h49.40.190,Tarea de género gramatical,2024.2.2,Win32,60.0240096,,,,,,,,,,,,,,,,,,,,,,,,415.3,416.546,l,1,[],[],[],[],[],[],[],0.568,1,416.547,417.046,,,,,,188,FEM,CON,150,bomba,,a,0.568,,417.046,417.046,0.015046296,-0.362268519,0,0,0,,0,174,174,187,1,,,,
,,,,,,189ef00a035c0a119e679d77,66a626ef09d4e21e1a8894ec,6734a026b1e79a11308b491c,2024-11-13_13h49.40.190,Tarea de género gramatical,2024.2.2,Win32,60.0240096,,,,,,,,,,,,,,,,,,,,,,,,417.048,418.379,a,1,[],[],[],[],[],[],[],0.649,1,418.379,418.879,,,,,,203,MAS,CON,150,novio,,l,0.649,,418.879,418.879,0.015046296,-0.362268519,0,0,0,,0,175,175,202,1,,,,
,,,,,,189ef00a035c0a119e679d77,66a626ef09d4e21e1a8894ec,6734a026b1e79a11308b491c,2024-11-13_13h49.40.190,Tarea de género gramatical,2024.2.2,Win32,60.0240096,,,,,,,,,,,,,,,,,,,,,,,,418.88,420.296,a,1,[],[],[],[],[],[],[],0.735,1,420.296,420.795,,,,,,359,MAS,CON,150,bosque,,l,0.735,,420.795,420.795,0.015046296,-0.362268519,0,0,0,,0,176,176,358,1,,,,
,,,,,,189ef00a035c0a119e679d77,66a626ef09d4e21e1a8894ec,6734a026b1e79a11308b491c,2024-11-13_13h49.40.190,Tarea de género gramatical,2024.2.2,Win32,60.0240096,,,,,,,,,,,,,,,,,,,,,,,,420.796,422.296,a,1,[],[],[],[],[],[],[],0.816,1,422.296,422.795,,,,,,186,MAS,DIS,150,error,la,l,0.816,,422.797,422.799,0.015046296,-0.362268519,0,0,0,,0,177,177,185,1,,,,
,,,,,,189ef00a035c0a119e679d77,66a626ef09d4e21e1a8894ec,6734a026b1e79a11308b491c,2024-11-13_13h49.40.190,Tarea de género gramatical,2024.2.2,Win32,60.0240096,,,,,,,,,,,,,,,,,,,,,,,,422.801,424.129,a,1,[],[],[],[],[],[],[],0.651,1,424.13,424.629,,,,,,262,MAS,AGR,150,video,el,l,0.651,,424.629,424.63,0.015046296,-0.362268519,0,0,0,,0,178,178,261,1,,,,
,,,,,,189ef00a035c0a119e679d77,66a626ef09d4e21e1a8894ec,6734a026b1e79a11308b491c,2024-11-13_13h49.40.190,Tarea de género gramatical,2024.2.2,Win32,60.0240096,,,,,,,,,,,,,,,,,,,,,,,,424.636,425.845,l,1,[],[],[],[],[],[],[],0.534,1,425.845,426.345,,,,,,355,FEM,AGR,150,mirada,la,a,0.534,,426.345,426.345,0.015046296,-0.362268519,0,0,0,,0,179,179,354,1,,,,
,,,,,,189ef00a035c0a119e679d77,66a626ef09d4e21e1a8894ec,6734a026b1e79a11308b491c,2024-11-13_13h49.40.190,Tarea de género gramatical,2024.2.2,Win32,60.0240096,,,,,,,,,,,,,,,,,,,,,,,,426.346,428.029,l,1,[],[],[],[],[],[],[],1.001,1,428.029,428.528,,,,,,177,FEM,DIS,150,broma,el,a,1.001,,428.528,428.529,0.015046296,-0.362268519,0,0,0,,0,180,180,176,1,,,,
,,,,,,189ef00a035c0a119e679d77,66a626ef09d4e21e1a8894ec,6734a026b1e79a11308b491c,2024-11-13_13h49.40.190,Tarea de género gramatical,2024.2.2,Win32,60.0240096,,,,,,,,,,,,,,,,,,,,,,,,428.529,429.778,a,1,[],[],[],[],[],[],[],0.568,1,429.779,430.278,,,,,,341,MAS,CON,150,precio,,l,0.568,,430.279,430.279,0.015046296,-0.362268519,0,0,0,,0,181,181,340,1,,,,
,,,,,,189ef00a035c0a119e679d77,66a626ef09d4e21e1a8894ec,6734a026b1e79a11308b491c,2024-11-13_13h49.40.190,Tarea de género gramatical,2024.2.2,Win32,60.0240096,,,,,,,,,,,,,,,,,,,,,,,,430.28,431.561,a,1,[],[],[],[],[],[],[],0.605,1,431.562,432.06,,,,,,65,MAS,CON,150,rayo,,l,0.605,,432.062,432.064,0.015046296,-0.362268519,0,0,0,,0,182,182,64,1,,,,
,,,,,,189ef00a035c0a119e679d77,66a626ef09d4e21e1a8894ec,6734a026b1e79a11308b491c,2024-11-13_13h49.40.190,Tarea de género gramatical,2024.2.2,Win32,60.0240096,,,,,,,,,,,,,,,,,,,,,,,,432.064,433.345,a,1,[],[],[],[],[],[],[],0.601,1,433.345,433.845,,,,,,202,MAS,AGR,150,honor,el,l,0.601,,433.845,433.845,0.015046296,-0.362268519,0,0,0,,0,183,183,201,1,,,,
,,,,,,189ef00a035c0a119e679d77,66a626ef09d4e21e1a8894ec,6734a026b1e79a11308b491c,2024-11-13_13h49.40.190,Tarea de género gramatical,2024.2.2,Win32,60.0240096,,,,,,,,,,,,,,,,,,,,,,,,433.847,435.078,l,1,[],[],[],[],[],[],[],0.55,1,435.079,435.577,,,,,,422,FEM,CON,150,rutina,,a,0.55,,435.577,435.578,0.015046296,-0.362268519,0,0,0,,0,184,184,421,1,,,,
,,,,,,189ef00a035c0a119e679d77,66a626ef09d4e21e1a8894ec,6734a026b1e79a11308b491c,2024-11-13_13h49.40.190,Tarea de género gramatical,2024.2.2,Win32,60.0240096,,,,,,,,,,,,,,,,,,,,,,,,435.579,437.077,l,1,[],[],[],[],[],[],[],0.817,1,437.077,437.578,,,,,,345,FEM,DIS,150,pierna,el,a,0.817,,437.578,437.578,0.015046296,-0.362268519,0,0,0,,0,185,185,344,1,,,,
,,,,,,189ef00a035c0a119e679d77,66a626ef09d4e21e1a8894ec,6734a026b1e79a11308b491c,2024-11-13_13h49.40.190,Tarea de género gramatical,2024.2.2,Win32,60.0240096,,,,,,,,,,,,,,,,,,,,,,,,437.579,438.793,a,1,[],[],[],[],[],[],[],0.532,1,438.793,439.293,,,,,,58,MAS,AGR,150,mono,el,l,0.532,,439.294,439.298,0.015046296,-0.362268519,0,0,0,,0,186,186,57,1,,,,
,,,,,,189ef00a035c0a119e679d77,66a626ef09d4e21e1a8894ec,6734a026b1e79a11308b491c,2024-11-13_13h49.40.190,Tarea de género gramatical,2024.2.2,Win32,60.0240096,,,,,,,,,,,,,,,,,,,,,,,,439.3,440.526,a,1,[],[],[],[],[],[],[],0.551,1,440.526,441.026,,,,,,419,MAS,CON,150,cuento,,l,0.551,,441.026,441.027,0.015046296,-0.362268519,0,0,0,,0,187,187,418,1,,,,
,,,,,,189ef00a035c0a119e679d77,66a626ef09d4e21e1a8894ec,6734a026b1e79a11308b491c,2024-11-13_13h49.40.190,Tarea de género gramatical,2024.2.2,Win32,60.0240096,,,,,,,,,,,,,,,,,,,,,,,,441.027,442.294,a,1,[],[],[],[],[],[],[],0.585,1,442.295,442.793,,,,,,365,MAS,CON,150,código,,l,0.585,,442.793,442.793,0.015046296,-0.362268519,0,0,0,,0,188,188,364,1,,,,
,,,,,,189ef00a035c0a119e679d77,66a626ef09d4e21e1a8894ec,6734a026b1e79a11308b491c,2024-11-13_13h49.40.190,Tarea de género gramatical,2024.2.2,Win32,60.0240096,,,,,,,,,,,,,,,,,,,,,,,,442.794,444.11,l,1,[],[],[],[],[],[],[],0.634,1,444.11,444.609,,,,,,315,FEM,DIS,150,manera,el,a,0.634,,444.609,444.609,0.015046296,-0.362268519,0,0,0,,0,189,189,314,1,,,,
,,,,,,189ef00a035c0a119e679d77,66a626ef09d4e21e1a8894ec,6734a026b1e79a11308b491c,2024-11-13_13h49.40.190,Tarea de género gramatical,2024.2.2,Win32,60.0240096,,,,,,,,,,,,,,,,,,,,,,,,444.61,446.192,a,1,[],[],[],[],[],[],[],0.917,1,446.192,446.693,,,,,,144,MAS,DIS,150,amor,la,l,0.917,,446.693,446.693,0.015046296,-0.362268519,0,0,0,,0,190,190,143,1,,,,
,,,,,,189ef00a035c0a119e679d77,66a626ef09d4e21e1a8894ec,6734a026b1e79a11308b491c,2024-11-13_13h49.40.190,Tarea de género gramatical,2024.2.2,Win32,60.0240096,,,,,,,,,,,,,,,,,,,,,,,,446.693,447.976,l,1,[],[],[],[],[],[],[],0.6,1,447.976,448.475,,,,,,285,FEM,DIS,150,mafia,el,a,0.6,,448.476,448.478,0.015046296,-0.362268519,0,0,0,,0,191,191,284,1,,,,
,,,,,,189ef00a035c0a119e679d77,66a626ef09d4e21e1a8894ec,6734a026b1e79a11308b491c,2024-11-13_13h49.40.190,Tarea de género gramatical,2024.2.2,Win32,60.0240096,,,,,,,,,,,,,,,,,,,,,,,,448.479,450.009,l,1,[],[],[],[],[],[],[],0.851,1,450.009,450.509,,,,,,116,FEM,CON,150,nube,,a,0.851,,450.509,450.509,0.015046296,-0.362268519,0,0,0,,0,192,192,115,1,,,,
,,,,,,189ef00a035c0a119e679d77,66a626ef09d4e21e1a8894ec,6734a026b1e79a11308b491c,2024-11-13_13h49.40.190,Tarea de género gramatical,2024.2.2,Win32,60.0240096,,,,,,,,,,,,,,,,,,,,,,,,450.509,451.692,l,1,[],[],[],[],[],[],[],0.5,1,451.692,452.192,,,,,,169,FEM,AGR,150,vista,la,a,0.5,,452.192,452.192,0.015046296,-0.362268519,0,0,0,,0,193,193,168,1,,,,
,,,,,,189ef00a035c0a119e679d77,66a626ef09d4e21e1a8894ec,6734a026b1e79a11308b491c,2024-11-13_13h49.40.190,Tarea de género gramatical,2024.2.2,Win32,60.0240096,,,,,,,,,,,,,,,,,,,,,,,,452.192,453.46,a,1,[],[],[],[],[],[],[],0.587,1,453.461,453.958,,,,,,161,MAS,CON,150,chico,,l,0.587,,453.959,453.959,0.015046296,-0.362268519,0,0,0,,0,194,194,160,1,,,,
,,,,,,189ef00a035c0a119e679d77,66a626ef09d4e21e1a8894ec,6734a026b1e79a11308b491c,2024-11-13_13h49.40.190,Tarea de género gramatical,2024.2.2,Win32,60.0240096,,,,,,,,,,,,,,,,,,,,,,,,453.963,455.541,a,1,[],[],[],[],[],[],[],0.902,1,455.542,456.042,,,,,,238,MAS,AGR,150,norte,el,l,0.902,,456.042,456.045,0.015046296,-0.362268519,0,0,0,,0,195,195,237,1,,,,
,,,,,,189ef00a035c0a119e679d77,66a626ef09d4e21e1a8894ec,6734a026b1e79a11308b491c,2024-11-13_13h49.40.190,Tarea de género gramatical,2024.2.2,Win32,60.0240096,,,,,,,,,,,,,,,,,,,,,,,,456.046,457.291,l,1,[],[],[],[],[],[],[],0.566,1,457.291,457.791,,,,,,386,FEM,CON,150,sombra,,a,0.566,,457.791,457.792,0.015046296,-0.362268519,0,0,0,,0,196,196,385,1,,,,
,,,,,,189ef00a035c0a119e679d77,66a626ef09d4e21e1a8894ec,6734a026b1e79a11308b491c,2024-11-13_13h49.40.190,Tarea de género gramatical,2024.2.2,Win32,60.0240096,,,,,,,,,,,,,,,,,,,,,,,,457.794,459.124,a,1,[],[],[],[],[],[],[],0.649,1,459.125,459.624,,,,,,413,MAS,CON,150,diario,,l,0.649,,459.625,459.625,0.015046296,-0.362268519,0,0,0,,0,197,197,412,1,,,,
,,,,,,189ef00a035c0a119e679d77,66a626ef09d4e21e1a8894ec,6734a026b1e79a11308b491c,2024-11-13_13h49.40.190,Tarea de género gramatical,2024.2.2,Win32,60.0240096,,,,,,,,,,,,,,,,,,,,,,,,459.626,460.974,a,1,[],[],[],[],[],[],[],0.668,1,460.974,461.474,,,,,,84,MAS,DIS,150,mago,la,l,0.668,,461.475,461.475,0.015046296,-0.362268519,0,0,0,,0,198,198,83,1,,,,
,,,,,,189ef00a035c0a119e679d77,66a626ef09d4e21e1a8894ec,6734a026b1e79a11308b491c,2024-11-13_13h49.40.190,Tarea de género gramatical,2024.2.2,Win32,60.0240096,,,,,,,,,,,,,,,,,,,,,,,,461.476,462.657,l,1,[],[],[],[],[],[],[],0.5,1,462.657,463.157,,,,,,446,FEM,CON,150,bañera,,a,0.5,,463.157,463.157,0.015046296,-0.362268519,0,0,0,,0,199,199,445,1,,,,
,,,,,,189ef00a035c0a119e679d77,66a626ef09d4e21e1a8894ec,6734a026b1e79a11308b491c,2024-11-13_13h49.40.190,Tarea de género gramatical,2024.2.2,Win32,60.0240096,,,,,,,,,,,,,,,,,,,,,,,,463.157,464.723,a,0,[],[],[],[],[],[],[],0.884,0,464.724,465.224,,,,,,399,FEM,DIS,150,charla,el,a,0.884,,465.227,465.23,0.015046296,-0.362268519,0,0,0,,0,200,200,398,1,,,,
,,,,,,189ef00a035c0a119e679d77,66a626ef09d4e21e1a8894ec,6734a026b1e79a11308b491c,2024-11-13_13h49.40.190,Tarea de género gramatical,2024.2.2,Win32,60.0240096,,,,,,,,,,,,,,,,,,,,,,,,465.231,466.74,l,1,[],[],[],[],[],[],[],0.834,1,466.741,467.24,,,,,,255,FEM,DIS,150,tribu,el,a,0.834,,467.241,467.241,0.015046296,-0.362268519,0,0,0,,0,201,201,254,1,,,,
,,,,,,189ef00a035c0a119e679d77,66a626ef09d4e21e1a8894ec,6734a026b1e79a11308b491c,2024-11-13_13h49.40.190,Tarea de género gramatical,2024.2.2,Win32,60.0240096,,,,,,,,,,,,,,,,,,,,,,,,467.242,468.323,l,1,[],[],[],[],[],[],[],0.399,1,468.323,468.823,,,,,,229,FEM,AGR,150,celda,la,a,0.399,,468.823,468.823,0.015046296,-0.362268519,0,0,0,,0,202,202,228,1,,,,
,,,,,,189ef00a035c0a119e679d77,66a626ef09d4e21e1a8894ec,6734a026b1e79a11308b491c,2024-11-13_13h49.40.190,Tarea de género gramatical,2024.2.2,Win32,60.0240096,,,,,,,,,,,,,,,,,,,,,,,,468.824,470.107,l,1,[],[],[],[],[],[],[],0.599,1,470.107,470.606,,,,,,441,FEM,DIS,150,medida,el,a,0.599,,470.606,470.606,0.015046296,-0.362268519,0,0,0,,0,203,203,440,1,,,,
,,,,,,189ef00a035c0a119e679d77,66a626ef09d4e21e1a8894ec,6734a026b1e79a11308b491c,2024-11-13_13h49.40.190,Tarea de género gramatical,2024.2.2,Win32,60.0240096,,,,,,,,,,,,,,,,,,,,,,,,470.607,471.823,a,1,[],[],[],[],[],[],[],0.532,1,471.823,472.323,,,,,,306,MAS,DIS,150,dinero,la,l,0.532,,472.324,472.325,0.015046296,-0.362268519,0,0,0,,0,204,204,305,1,,,,
,,,,,,189ef00a035c0a119e679d77,66a626ef09d4e21e1a8894ec,6734a026b1e79a11308b491c,2024-11-13_13h49.40.190,Tarea de género gramatical,2024.2.2,Win32,60.0240096,,,,,,,,,,,,,,,,,,,,,,,,472.327,473.555,a,1,[],[],[],[],[],[],[],0.551,1,473.555,474.055,,,,,,214,MAS,AGR,150,fondo,el,l,0.551,,474.055,474.056,0.015046296,-0.362268519,0,0,0,,0,205,205,213,1,,,,
,,,,,,189ef00a035c0a119e679d77,66a626ef09d4e21e1a8894ec,6734a026b1e79a11308b491c,2024-11-13_13h49.40.190,Tarea de género gramatical,2024.2.2,Win32,60.0240096,,,,,,,,,,,,,,,,,,,,,,,,474.056,475.405,a,1,[],[],[],[],[],[],[],0.665,1,475.405,475.906,,,,,,52,MAS,AGR,150,lago,el,l,0.665,,475.906,475.906,0.015046296,-0.362268519,0,0,0,,0,206,206,51,1,,,,
,,,,,,189ef00a035c0a119e679d77,66a626ef09d4e21e1a8894ec,6734a026b1e79a11308b491c,2024-11-13_13h49.40.190,Tarea de género gramatical,2024.2.2,Win32,60.0240096,,,,,,,,,,,,,,,,,,,,,,,,475.908,477.305,a,1,[],[],[],[],[],[],[],0.718,1,477.305,477.805,,,,,,294,MAS,DIS,150,cable,la,l,0.718,,477.805,477.805,0.015046296,-0.362268519,0,0,0,,0,207,207,293,1,,,,
,,,,,,189ef00a035c0a119e679d77,66a626ef09d4e21e1a8894ec,6734a026b1e79a11308b491c,2024-11-13_13h49.40.190,Tarea de género gramatical,2024.2.2,Win32,60.0240096,,,,,,,,,,,,,,,,,,,,,,,,477.806,479.038,a,1,[],[],[],[],[],[],[],0.568,1,479.038,479.538,,,,,,292,MAS,AGR,150,piano,el,l,0.568,,479.539,479.539,0.015046296,-0.362268519,0,0,0,,0,208,208,291,1,,,,
,,,,,,189ef00a035c0a119e679d77,66a626ef09d4e21e1a8894ec,6734a026b1e79a11308b491c,2024-11-13_13h49.40.190,Tarea de género gramatical,2024.2.2,Win32,60.0240096,,,,,,,,,,,,,,,,,,,,,,,,479.54,480.804,l,1,[],[],[],[],[],[],[],0.585,1,480.805,481.304,,,,,,85,FEM,AGR,150,gira,la,a,0.585,,481.305,481.307,0.015046296,-0.362268519,0,0,0,,0,209,209,84,1,,,,
,,,,,,189ef00a035c0a119e679d77,66a626ef09d4e21e1a8894ec,6734a026b1e79a11308b491c,2024-11-13_13h49.40.190,Tarea de género gramatical,2024.2.2,Win32,60.0240096,,,,,,,,,,,,,,,,,,,,,,,,481.309,482.571,a,1,[],[],[],[],[],[],[],0.584,1,482.571,483.071,,,,,,107,MAS,CON,150,cubo,,l,0.584,,483.071,483.071,0.015046296,-0.362268519,0,0,0,,0,210,210,106,1,,,,
,,,,,,189ef00a035c0a119e679d77,66a626ef09d4e21e1a8894ec,6734a026b1e79a11308b491c,2024-11-13_13h49.40.190,Tarea de género gramatical,2024.2.2,Win32,60.0240096,,,,,,,,,,,,,,,,,,,,,,,,483.073,484.304,l,1,[],[],[],[],[],[],[],0.552,1,484.304,484.804,,,,,,199,FEM,AGR,150,nariz,la,a,0.552,,484.805,484.805,0.015046296,-0.362268519,0,0,0,,0,211,211,198,1,,,,
,,,,,,189ef00a035c0a119e679d77,66a626ef09d4e21e1a8894ec,6734a026b1e79a11308b491c,2024-11-13_13h49.40.190,Tarea de género gramatical,2024.2.2,Win32,60.0240096,,,,,,,,,,,,,,,,,,,,,,,,484.807,485.988,l,1,[],[],[],[],[],[],[],0.504,1,485.988,486.487,,,,,,8,FEM,CON,150,idea,,a,0.504,,486.487,486.487,0.015046296,-0.362268519,0,0,0,,0,212,212,7,1,,,,
,,,,,,189ef00a035c0a119e679d77,66a626ef09d4e21e1a8894ec,6734a026b1e79a11308b491c,2024-11-13_13h49.40.190,Tarea de género gramatical,2024.2.2,Win32,60.0240096,,,,,,,,,,,,,,,,,,,,,,,,486.488,487.787,a,1,[],[],[],[],[],[],[],0.618,1,487.787,488.288,,,,,,370,MAS,AGR,150,seguro,el,l,0.618,,488.298,488.302,0.015046296,-0.362268519,0,0,0,,0,213,213,369,1,,,,
,,,,,,189ef00a035c0a119e679d77,66a626ef09d4e21e1a8894ec,6734a026b1e79a11308b491c,2024-11-13_13h49.40.190,Tarea de género gramatical,2024.2.2,Win32,60.0240096,,,,,,,,,,,,,,,,,,,,,,,,488.305,489.504,a,1,[],[],[],[],[],[],[],0.519,1,489.505,490.005,,,,,,190,MAS,AGR,150,campo,el,l,0.519,,490.005,490.005,0.015046296,-0.362268519,0,0,0,,0,214,214,189,1,,,,
,,,,,,189ef00a035c0a119e679d77,66a626ef09d4e21e1a8894ec,6734a026b1e79a11308b491c,2024-11-13_13h49.40.190,Tarea de género gramatical,2024.2.2,Win32,60.0240096,,,,,,,,,,,,,,,,,,,,,,,,490.008,491.204,a,1,[],[],[],[],[],[],[],0.517,1,491.204,491.703,,,,,,418,MAS,AGR,150,pájaro,el,l,0.517,,491.703,491.703,0.015046296,-0.362268519,0,0,0,,0,215,215,417,1,,,,
,,,,,,189ef00a035c0a119e679d77,66a626ef09d4e21e1a8894ec,6734a026b1e79a11308b491c,2024-11-13_13h49.40.190,Tarea de género gramatical,2024.2.2,Win32,60.0240096,,,,,,,,,,,,,,,,,,,,,,,,491.705,492.92,l,1,[],[],[],[],[],[],[],0.534,1,492.92,493.42,,,,,,445,FEM,AGR,150,bondad,la,a,0.534,,493.42,493.421,0.015046296,-0.362268519,0,0,0,,0,216,216,444,1,,,,
,,,,,,189ef00a035c0a119e679d77,66a626ef09d4e21e1a8894ec,6734a026b1e79a11308b491c,2024-11-13_13h49.40.190,Tarea de género gramatical,2024.2.2,Win32,60.0240096,,,,,,,,,,,,,,,,,,,,,,,,493.422,494.686,a,1,[],[],[],[],[],[],[],0.583,1,494.687,495.186,,,,,,150,MAS,DIS,150,mozo,la,l,0.583,,495.186,495.186,0.015046296,-0.362268519,0,0,0,,0,217,217,149,1,,,,
,,,,,,189ef00a035c0a119e679d77,66a626ef09d4e21e1a8894ec,6734a026b1e79a11308b491c,2024-11-13_13h49.40.190,Tarea de género gramatical,2024.2.2,Win32,60.0240096,,,,,,,,,,,,,,,,,,,,,,,,495.187,496.37,l,1,[],[],[],[],[],[],[],0.502,1,496.37,496.869,,,,,,224,FEM,CON,150,arena,,a,0.502,,496.87,496.872,0.015046296,-0.362268519,0,0,0,,0,218,218,223,1,,,,
,,,,,,189ef00a035c0a119e679d77,66a626ef09d4e21e1a8894ec,6734a026b1e79a11308b491c,2024-11-13_13h49.40.190,Tarea de género gramatical,2024.2.2,Win32,60.0240096,,,,,,,,,,,,,,,,,,,,,,,,496.874,498.07,l,1,[],[],[],[],[],[],[],0.52,1,498.07,498.569,,,,,,247,FEM,AGR,150,frase,la,a,0.52,,498.569,498.569,0.015046296,-0.362268519,0,0,0,,0,219,219,246,1,,,,
,,,,,,189ef00a035c0a119e679d77,66a626ef09d4e21e1a8894ec,6734a026b1e79a11308b491c,2024-11-13_13h49.40.190,Tarea de género gramatical,2024.2.2,Win32,60.0240096,,,,,,,,,,,,,,,,,,,,,,,,498.571,499.702,l,1,[],[],[],[],[],[],[],0.452,1,499.703,500.203,,,,,,295,FEM,AGR,150,grasa,la,a,0.452,,500.203,500.203,0.015046296,-0.362268519,0,0,0,,0,220,220,294,1,,,,
,,,,,,189ef00a035c0a119e679d77,66a626ef09d4e21e1a8894ec,6734a026b1e79a11308b491c,2024-11-13_13h49.40.190,Tarea de género gramatical,2024.2.2,Win32,60.0240096,,,,,,,,,,,,,,,,,,,,,,,,500.204,501.785,l,1,[],[],[],[],[],[],[],0.9,1,501.786,502.285,,,,,,218,FEM,CON,150,nieve,,a,0.9,,502.285,502.286,0.015046296,-0.362268519,0,0,0,,0,221,221,217,1,,,,
,,,,,,189ef00a035c0a119e679d77,66a626ef09d4e21e1a8894ec,6734a026b1e79a11308b491c,2024-11-13_13h49.40.190,Tarea de género gramatical,2024.2.2,Win32,60.0240096,,,,,,,,,,,,,,,,,,,,,,,,502.288,503.802,a,1,[],[],[],[],[],[],[],0.833,1,503.802,504.301,,,,,,6,MAS,DIS,150,lado,la,l,0.833,,504.302,504.305,0.015046296,-0.362268519,0,0,0,,0,222,222,5,1,,,,
,,,,,,189ef00a035c0a119e679d77,66a626ef09d4e21e1a8894ec,6734a026b1e79a11308b491c,2024-11-13_13h49.40.190,Tarea de género gramatical,2024.2.2,Win32,60.0240096,,,,,,,,,,,,,,,,,,,,,,,,504.306,505.552,l,1,[],[],[],[],[],[],[],0.568,1,505.552,506.051,,,,,,416,FEM,CON,150,colina,,a,0.568,,506.051,506.051,0.015046296,-0.362268519,0,0,0,,0,223,223,415,1,,,,
,,,,,,189ef00a035c0a119e679d77,66a626ef09d4e21e1a8894ec,6734a026b1e79a11308b491c,2024-11-13_13h49.40.190,Tarea de género gramatical,2024.2.2,Win32,60.0240096,,,,,,,,,,,,,,,,,,,,,,,,506.052,507.352,l,1,[],[],[],[],[],[],[],0.616,1,507.353,507.851,,,,,,357,FEM,DIS,150,lengua,el,a,0.616,,507.851,507.852,0.015046296,-0.362268519,0,0,0,,0,224,224,356,1,,,,
,,,,,,189ef00a035c0a119e679d77,66a626ef09d4e21e1a8894ec,6734a026b1e79a11308b491c,2024-11-13_13h49.40.190,Tarea de género gramatical,2024.2.2,Win32,60.0240096,,,,,,,,,,,,,,,,,,,,,,,,507.855,509.068,l,1,[],[],[],[],[],[],[],0.532,1,509.068,509.568,,,,,,7,FEM,AGR,150,hora,la,a,0.532,,509.568,509.568,0.015046296,-0.362268519,0,0,0,,0,225,225,6,1,,,,
,,,,,,189ef00a035c0a119e679d77,66a626ef09d4e21e1a8894ec,6734a026b1e79a11308b491c,2024-11-13_13h49.40.190,Tarea de género gramatical,2024.2.2,Win32,60.0240096,,,,,,,,,,,,,,,,,,,,,,,,509.569,510.918,a,0,[],[],[],[],[],[],[],0.668,0,510.919,511.417,,,,,,369,FEM,DIS,150,camisa,el,a,0.668,,511.417,511.417,0.015046296,-0.362268519,0,0,0,,0,226,226,368,1,,,,
,,,,,,189ef00a035c0a119e679d77,66a626ef09d4e21e1a8894ec,6734a026b1e79a11308b491c,2024-11-13_13h49.40.190,Tarea de género gramatical,2024.2.2,Win32,60.0240096,,,,,,,,,,,,,,,,,,,,,,,,511.419,512.684,a,1,[],[],[],[],[],[],[],0.583,1,512.684,513.183,,,,,,340,MAS,AGR,150,pasado,el,l,0.583,,513.185,513.187,0.015046296,-0.362268519,0,0,0,,0,227,227,339,1,,,,
,,,,,,189ef00a035c0a119e679d77,66a626ef09d4e21e1a8894ec,6734a026b1e79a11308b491c,2024-11-13_13h49.40.190,Tarea de género gramatical,2024.2.2,Win32,60.0240096,,,,,,,,,,,,,,,,,,,,,,,,513.187,514.567,a,1,[],[],[],[],[],[],[],0.698,1,514.567,515.067,,,,,,430,MAS,AGR,150,título,el,l,0.698,,515.067,515.068,0.015046296,-0.362268519,0,0,0,,0,228,228,429,1,,,,
,,,,,,189ef00a035c0a119e679d77,66a626ef09d4e21e1a8894ec,6734a026b1e79a11308b491c,2024-11-13_13h49.40.190,Tarea de género gramatical,2024.2.2,Win32,60.0240096,,,,,,,,,,,,,,,,,,,,,,,,515.069,516.417,a,1,[],[],[],[],[],[],[],0.668,1,516.417,516.917,,,,,,156,MAS,DIS,150,amigo,la,l,0.668,,516.917,516.917,0.015046296,-0.362268519,0,0,0,,0,229,229,155,1,,,,
,,,,,,189ef00a035c0a119e679d77,66a626ef09d4e21e1a8894ec,6734a026b1e79a11308b491c,2024-11-13_13h49.40.190,Tarea de género gramatical,2024.2.2,Win32,60.0240096,,,,,,,,,,,,,,,,,,,,,,,,516.917,518.083,l,1,[],[],[],[],[],[],[],0.482,1,518.083,518.584,,,,,,243,FEM,DIS,150,salsa,el,a,0.482,,518.584,518.584,0.015046296,-0.362268519,0,0,0,,0,230,230,242,1,,,,
,,,,,,189ef00a035c0a119e679d77,66a626ef09d4e21e1a8894ec,6734a026b1e79a11308b491c,2024-11-13_13h49.40.190,Tarea de género gramatical,2024.2.2,Win32,60.0240096,,,,,,,,,,,,,,,,,,,,,,,,518.585,519.833,a,1,[],[],[],[],[],[],[],0.567,1,519.833,520.333,,,,,,136,MAS,AGR,150,vago,el,l,0.567,,520.335,520.338,0.015046296,-0.362268519,0,0,0,,0,231,231,135,1,,,,
,,,,,,189ef00a035c0a119e679d77,66a626ef09d4e21e1a8894ec,6734a026b1e79a11308b491c,2024-11-13_13h49.40.190,Tarea de género gramatical,2024.2.2,Win32,60.0240096,,,,,,,,,,,,,,,,,,,,,,,,520.339,521.616,l,1,[],[],[],[],[],[],[],0.599,1,521.616,522.117,,,,,,104,FEM,CON,150,vela,,a,0.599,,522.118,522.118,0.015046296,-0.362268519,0,0,0,,0,232,232,103,1,,,,
,,,,,,189ef00a035c0a119e679d77,66a626ef09d4e21e1a8894ec,6734a026b1e79a11308b491c,2024-11-13_13h49.40.190,Tarea de género gramatical,2024.2.2,Win32,60.0240096,,,,,,,,,,,,,,,,,,,,,,,,522.125,523.266,l,1,[],[],[],[],[],[],[],0.466,1,523.267,523.766,,,,,,427,FEM,AGR,150,agenda,la,a,0.466,,523.766,523.766,0.015046296,-0.362268519,0,0,0,,0,233,233,426,1,,,,
,,,,,,189ef00a035c0a119e679d77,66a626ef09d4e21e1a8894ec,6734a026b1e79a11308b491c,2024-11-13_13h49.40.190,Tarea de género gramatical,2024.2.2,Win32,60.0240096,,,,,,,,,,,,,,,,,,,,,,,,523.769,524.933,l,1,[],[],[],[],[],[],[],0.484,1,524.933,525.433,,,,,,253,FEM,AGR,150,aldea,la,a,0.484,,525.433,525.433,0.015046296,-0.362268519,0,0,0,,0,234,234,252,1,,,,
,,,,,,189ef00a035c0a119e679d77,66a626ef09d4e21e1a8894ec,6734a026b1e79a11308b491c,2024-11-13_13h49.40.190,Tarea de género gramatical,2024.2.2,Win32,60.0240096,,,,,,,,,,,,,,,,,,,,,,,,525.436,526.582,l,1,[],[],[],[],[],[],[],0.471,1,526.583,527.082,,,,,,242,FEM,CON,150,pizza,,a,0.471,,527.082,527.082,0.015046296,-0.362268519,0,0,0,,0,235,235,241,1,,,,
,,,,,,189ef00a035c0a119e679d77,66a626ef09d4e21e1a8894ec,6734a026b1e79a11308b491c,2024-11-13_13h49.40.190,Tarea de género gramatical,2024.2.2,Win32,60.0240096,,,,,,,,,,,,,,,,,,,,,,,,527.086,528.648,a,1,[],[],[],[],[],[],[],0.884,1,528.649,529.149,,,,,,204,MAS,DIS,150,papel,la,l,0.884,,529.151,529.155,0.015046296,-0.362268519,0,0,0,,0,236,236,203,1,,,,
,,,,,,189ef00a035c0a119e679d77,66a626ef09d4e21e1a8894ec,6734a026b1e79a11308b491c,2024-11-13_13h49.40.190,Tarea de género gramatical,2024.2.2,Win32,60.0240096,,,,,,,,,,,,,,,,,,,,,,,,529.158,530.615,a,1,[],[],[],[],[],[],[],0.783,1,530.615,531.116,,,,,,89,MAS,CON,150,maíz,,l,0.783,,531.116,531.116,0.015046296,-0.362268519,0,0,0,,0,237,237,88,1,,,,
,,,,,,189ef00a035c0a119e679d77,66a626ef09d4e21e1a8894ec,6734a026b1e79a11308b491c,2024-11-13_13h49.40.190,Tarea de género gramatical,2024.2.2,Win32,60.0240096,,,,,,,,,,,,,,,,,,,,,,,,531.119,532.332,l,1,[],[],[],[],[],[],[],0.537,1,532.332,532.831,,,,,,343,FEM,AGR,150,trampa,la,a,0.537,,532.832,532.832,0.015046296,-0.362268519,0,0,0,,0,238,238,342,1,,,,
,,,,,,189ef00a035c0a119e679d77,66a626ef09d4e21e1a8894ec,6734a026b1e79a11308b491c,2024-11-13_13h49.40.190,Tarea de género gramatical,2024.2.2,Win32,60.0240096,,,,,,,,,,,,,,,,,,,,,,,,532.832,534.482,l,1,[],[],[],[],[],[],[],0.968,1,534.482,534.981,,,,,,393,FEM,DIS,150,alarma,el,a,0.968,,534.981,534.981,0.015046296,-0.362268519,0,0,0,,0,239,239,392,1,,,,
,,,,,,189ef00a035c0a119e679d77,66a626ef09d4e21e1a8894ec,6734a026b1e79a11308b491c,2024-11-13_13h49.40.190,Tarea de género gramatical,2024.2.2,Win32,60.0240096,,,,,,,,,,,,,,,,,,,,,,,,534.984,536.332,l,1,[],[],[],[],[],[],[],0.665,1,536.332,536.831,,,,,,206,FEM,CON,150,época,,a,0.665,,536.832,536.834,0.015046296,-0.362268519,0,0,0,,0,240,240,205,1,,,,
,,,,,,189ef00a035c0a119e679d77,66a626ef09d4e21e1a8894ec,6734a026b1e79a11308b491c,2024-11-13_13h49.40.190,Tarea de género gramatical,2024.2.2,Win32,60.0240096,,,,,,,,,,,,,,,,,,,,,,,,536.836,537.947,l,1,[],[],[],[],[],[],[],0.434,1,537.948,538.448,,,,,,439,FEM,AGR,150,toalla,la,a,0.434,,538.448,538.449,0.015046296,-0.362268519,0,0,0,,0,241,241,438,1,,,,
,,,,,,189ef00a035c0a119e679d77,66a626ef09d4e21e1a8894ec,6734a026b1e79a11308b491c,2024-11-13_13h49.40.190,Tarea de género gramatical,2024.2.2,Win32,60.0240096,,,,,,,,,,,,,,,,,,,,,,,,538.451,539.631,a,1,[],[],[],[],[],[],[],0.501,1,539.631,540.13,,,,,,101,MAS,CON,150,giro,,l,0.501,,540.13,540.131,0.015046296,-0.362268519,0,0,0,,0,242,242,100,1,,,,
,,,,,,189ef00a035c0a119e679d77,66a626ef09d4e21e1a8894ec,6734a026b1e79a11308b491c,2024-11-13_13h49.40.190,Tarea de género gramatical,2024.2.2,Win32,60.0240096,,,,,,,,,,,,,,,,,,,,,,,,540.132,541.33,a,1,[],[],[],[],[],[],[],0.519,1,541.331,541.83,,,,,,395,MAS,CON,150,correo,,l,0.519,,541.831,541.831,0.015046296,-0.362268519,0,0,0,,0,243,243,394,1,,,,
,,,,,,189ef00a035c0a119e679d77,66a626ef09d4e21e1a8894ec,6734a026b1e79a11308b491c,2024-11-13_13h49.40.190,Tarea de género gramatical,2024.2.2,Win32,60.0240096,,,,,,,,,,,,,,,,,,,,,,,,541.832,543.013,l,1,[],[],[],[],[],[],[],0.5,1,543.013,543.513,,,,,,254,FEM,CON,150,caída,,a,0.5,,543.513,543.513,0.015046296,-0.362268519,0,0,0,,0,244,244,253,1,,,,
,,,,,,189ef00a035c0a119e679d77,66a626ef09d4e21e1a8894ec,6734a026b1e79a11308b491c,2024-11-13_13h49.40.190,Tarea de género gramatical,2024.2.2,Win32,60.0240096,,,,,,,,,,,,,,,,,,,,,,,,543.514,544.829,a,1,[],[],[],[],[],[],[],0.635,1,544.829,545.33,,,,,,408,MAS,DIS,150,cheque,la,l,0.635,,545.33,545.333,0.015046296,-0.362268519,0,0,0,,0,245,245,407,1,,,,
,,,,,,189ef00a035c0a119e679d77,66a626ef09d4e21e1a8894ec,6734a026b1e79a11308b491c,2024-11-13_13h49.40.190,Tarea de género gramatical,2024.2.2,Win32,60.0240096,,,,,,,,,,,,,,,,,,,,,,,,545.333,546.563,l,1,[],[],[],[],[],[],[],0.552,1,546.563,547.063,,,,,,175,FEM,AGR,150,señal,la,a,0.552,,547.063,547.064,0.015046296,-0.362268519,0,0,0,,0,246,246,174,1,,,,
,,,,,,189ef00a035c0a119e679d77,66a626ef09d4e21e1a8894ec,6734a026b1e79a11308b491c,2024-11-13_13h49.40.190,Tarea de género gramatical,2024.2.2,Win32,60.0240096,,,,,,,,,,,,,,,,,,,,,,,,547.064,548.296,a,1,[],[],[],[],[],[],[],0.551,1,548.296,548.796,,,,,,274,MAS,AGR,150,motor,el,l,0.551,,548.796,548.796,0.015046296,-0.362268519,0,0,0,,0,247,247,273,1,,,,
,,,,,,189ef00a035c0a119e679d77,66a626ef09d4e21e1a8894ec,6734a026b1e79a11308b491c,2024-11-13_13h49.40.190,Tarea de género gramatical,2024.2.2,Win32,60.0240096,,,,,,,,,,,,,,,,,,,,,,,,548.797,550.262,a,1,[],[],[],[],[],[],[],0.783,1,550.262,550.762,,,,,,100,MAS,AGR,150,nido,el,l,0.783,,550.762,550.763,0.015046296,-0.362268519,0,0,0,,0,248,248,99,1,,,,
,,,,,,189ef00a035c0a119e679d77,66a626ef09d4e21e1a8894ec,6734a026b1e79a11308b491c,2024-11-13_13h49.40.190,Tarea de género gramatical,2024.2.2,Win32,60.0240096,,,,,,,,,,,,,,,,,,,,,,,,550.764,551.913,a,1,[],[],[],[],[],[],[],0.467,1,551.913,552.412,,,,,,425,MAS,CON,150,chiste,,l,0.467,,552.413,552.415,0.015046296,-0.362268519,0,0,0,,0,249,249,424,1,,,,
,,,,,,189ef00a035c0a119e679d77,66a626ef09d4e21e1a8894ec,6734a026b1e79a11308b491c,2024-11-13_13h49.40.190,Tarea de género gramatical,2024.2.2,Win32,60.0240096,,,,,,,,,,,,,,,,,,,,,,,,552.416,553.928,a,1,[],[],[],[],[],[],[],0.836,1,553.929,554.429,,,,,,54,MAS,DIS,150,humo,la,l,0.836,,554.429,554.429,0.015046296,-0.362268519,0,0,0,,0,250,250,53,1,,,,
,,,,,,189ef00a035c0a119e679d77,66a626ef09d4e21e1a8894ec,6734a026b1e79a11308b491c,2024-11-13_13h49.40.190,Tarea de género gramatical,2024.2.2,Win32,60.0240096,,,,,,,,,,,,,,,,,,,,,,,,554.43,555.678,a,1,[],[],[],[],[],[],[],0.566,1,555.678,556.179,,,,,,232,MAS,AGR,150,calor,el,l,0.566,,556.179,556.179,0.015046296,-0.362268519,0,0,0,,0,251,251,231,1,,,,
,,,,,,189ef00a035c0a119e679d77,66a626ef09d4e21e1a8894ec,6734a026b1e79a11308b491c,2024-11-13_13h49.40.190,Tarea de género gramatical,2024.2.2,Win32,60.0240096,,,,,,,,,,,,,,,,,,,,,,,,556.18,557.411,l,1,[],[],[],[],[],[],[],0.551,1,557.411,557.912,,,,,,241,FEM,AGR,150,pasta,la,a,0.551,,557.912,557.912,0.015046296,-0.362268519,0,0,0,,0,252,252,240,1,,,,
,,,,,,189ef00a035c0a119e679d77,66a626ef09d4e21e1a8894ec,6734a026b1e79a11308b491c,2024-11-13_13h49.40.190,Tarea de género gramatical,2024.2.2,Win32,60.0240096,,,,,,,,,,,,,,,,,,,,,,,,557.913,559.245,a,1,[],[],[],[],[],[],[],0.661,1,559.246,559.744,,,,,,160,MAS,AGR,150,señor,el,l,0.661,,559.744,559.745,0.015046296,-0.362268519,0,0,0,,0,253,253,159,1,,,,
,,,,,,189ef00a035c0a119e679d77,66a626ef09d4e21e1a8894ec,6734a026b1e79a11308b491c,2024-11-13_13h49.40.190,Tarea de género gramatical,2024.2.2,Win32,60.0240096,,,,,,,,,,,,,,,,,,,,,,,,559.749,561.195,l,1,[],[],[],[],[],[],[],0.768,1,561.196,561.694,,,,,,279,FEM,DIS,150,selva,el,a,0.768,,561.695,561.697,0.015046296,-0.362268519,0,0,0,,0,254,254,278,1,,,,
,,,,,,189ef00a035c0a119e679d77,66a626ef09d4e21e1a8894ec,6734a026b1e79a11308b491c,2024-11-13_13h49.40.190,Tarea de género gramatical,2024.2.2,Win32,60.0240096,,,,,,,,,,,,,,,,,,,,,,,,561.698,563.011,a,1,[],[],[],[],[],[],[],0.637,1,563.011,563.511,,,,,,286,MAS,AGR,150,reino,el,l,0.637,,563.512,563.512,0.015046296,-0.362268519,0,0,0,,0,255,255,285,1,,,,
,,,,,,189ef00a035c0a119e679d77,66a626ef09d4e21e1a8894ec,6734a026b1e79a11308b491c,2024-11-13_13h49.40.190,Tarea de género gramatical,2024.2.2,Win32,60.0240096,,,,,,,,,,,,,,,,,,,,,,,,563.516,564.844,a,1,[],[],[],[],[],[],[],0.655,1,564.844,565.344,,,,,,208,MAS,AGR,150,suelo,el,l,0.655,,565.345,565.345,0.015046296,-0.362268519,0,0,0,,0,256,256,207,1,,,,
,,,,,,189ef00a035c0a119e679d77,66a626ef09d4e21e1a8894ec,6734a026b1e79a11308b491c,2024-11-13_13h49.40.190,Tarea de género gramatical,2024.2.2,Win32,60.0240096,,,,,,,,,,,,,,,,,,,,,,,,565.345,566.744,a,1,[],[],[],[],[],[],[],0.718,1,566.744,567.244,,,,,,287,MAS,CON,150,plato,,l,0.718,,567.244,567.244,0.015046296,-0.362268519,0,0,0,,0,257,257,286,1,,,,
,,,,,,189ef00a035c0a119e679d77,66a626ef09d4e21e1a8894ec,6734a026b1e79a11308b491c,2024-11-13_13h49.40.190,Tarea de género gramatical,2024.2.2,Win32,60.0240096,,,,,,,,,,,,,,,,,,,,,,,,567.246,568.643,a,1,[],[],[],[],[],[],[],0.717,1,568.644,569.143,,,,,,94,MAS,AGR,150,cabo,el,l,0.717,,569.144,569.146,0.015046296,-0.362268519,0,0,0,,0,258,258,93,1,,,,
