counterbalancing_condition,consent_prescreening.block_1/declare_consent,consent_prescreening.block_1/age_years,consent_prescreening.block_1/gender,consent_prescreening.block_1/language_disorder,consent_prescreening.block_1/first_language,PROLIFIC_PID,STUDY_ID,SESSION_ID,date,expName,psychopyVersion,OS,frameRate,check_prescreening_answers.started,check_prescreening_answers.stopped,Instructions.started,Instructions.stopped,instr_done_keyboard.keys,instr_done_touch.x,instr_done_touch.y,instr_done_touch.leftButton,instr_done_touch.midButton,instr_done_touch.rightButton,instr_done_touch.clicked_name,instruction_pages.thisRepN,instruction_pages.thisTrialN,instruction_pages.thisN,instruction_pages.thisIndex,instruction_pages.ran,pageN,phase,instruct_text,has_image,instruct_image,presentTrial.started,presentTrial.stopped,response.keys,response.corr,touch_resp.x,touch_resp.y,touch_resp.leftButton,touch_resp.midButton,touch_resp.rightButton,touch_resp.time,touch_resp.clicked_name,rt,corr,feedback.started,feedback.stopped,practice_trials.thisRepN,practice_trials.thisTrialN,practice_trials.thisN,practice_trials.thisIndex,practice_trials.ran,TrialID,StimulusType,Condition,PrimeDuration,Prime,Flanker,corrAns,response.rt,response.duration,instr_done_keyboard.rt,instr_done_keyboard.duration,Break.started,Break.stopped,break_done_touch.x,break_done_touch.y,break_done_touch.leftButton,break_done_touch.midButton,break_done_touch.rightButton,break_done_keyboard.keys,experiment_trials.thisRepN,experiment_trials.thisTrialN,experiment_trials.thisN,experiment_trials.thisIndex,experiment_trials.ran,break_done_keyboard.rt,break_done_keyboard.duration,End.started,End.stopped
1,"[""over_18"",""comfortable"",""consent_given"",""read_info""]",26,M,"[""none""]","[""spanish""]",1cd8d785e6becf54e84752d3,66a626ef09d4e21e1a8894ec,67371501ff0930c85bbbb10f,2024-11-15_03h40.38.553,Tarea de género gramatical,2024.2.2,Win32,143.6781609,,,,,,,,,,,,,,,,,,,,,,,,,,,,,,,,,,,,,,,,,,,,,,,,,,,,,,,,,,,,,,,,,,,,,
,,,,,,1cd8d785e6becf54e84752d3,66a626ef09d4e21e1a8894ec,67371501ff0930c85bbbb10f,2024-11-15_03h40.38.553,Tarea de género gramatical,2024.2.2,Win32,143.6781609,62.372,62.372,,,,,,,,,,,,,,,,,,,,,,,,,,,,,,,,,,,,,,,,,,,,,,,,,,,,,,,,,,,,,,,,,,,
,,,,,,1cd8d785e6becf54e84752d3,66a626ef09d4e21e1a8894ec,67371501ff0930c85bbbb10f,2024-11-15_03h40.38.553,Tarea de género gramatical,2024.2.2,Win32,143.6781609,,,62.379,114.232,,-0.124485597,-0.374485597,1,0,0,instr_done_button,0,0,0,0,1,1,instructions,"INSTRUCCIONES
Va a realizar una prueba de selección gramatical. Desde el comienzo de la prueba mire siempre al centro de la pantalla. Al cabo de un momento, aparecerán palabras. La tarea consiste en determinar si la palabra del centro (siempre será un sustantivo), pertenece al género masculino o femenino.

Pulse la tecla ESPACIO o toque el botón de abajo para continuar.",0,keyboardresponseFM.png,,,,,,,,,,,,,,,,,,,,,,,,,,,,,,,,,,,,,,,,,,,,,,,,
,,,,,,1cd8d785e6becf54e84752d3,66a626ef09d4e21e1a8894ec,67371501ff0930c85bbbb10f,2024-11-15_03h40.38.553,Tarea de género gramatical,2024.2.2,Win32,143.6781609,,,114.234,131.228,,-0.12037037,-0.387860082,1,0,0,instr_done_button,0,1,1,1,1,2,instructions,"Si su dispositivo tiene teclado, pulse la tecla ""A"" para las palabras en femenino (por ejemplo: ""mano"") y la tecla ""L"" para las palabras en masculino(por ejemplo: ""arroz"").
Pulse la tecla ESPACIO o toque el botón de abajo para continuar.",1,keyboardresponseFM.png,,,,,,,,,,,,,,,,,,,,,,,,,,,,,,,,,,,,,,,,,,,,,,,,
,,,,,,1cd8d785e6becf54e84752d3,66a626ef09d4e21e1a8894ec,67371501ff0930c85bbbb10f,2024-11-15_03h40.38.553,Tarea de género gramatical,2024.2.2,Win32,143.6781609,,,131.23,135.851,,-0.12037037,-0.387860082,1,0,0,instr_done_button,0,2,2,2,1,3,instructions,"Si utiliza un dispositivo sólo táctil, colóquelo en horizontal y utilice los botones de la pantalla. No utilice el ratón.
Pulse la tecla ESPACIO o toque el botón de abajo para continuar.",2,touchresponseFM.png,,,,,,,,,,,,,,,,,,,,,,,,,,,,,,,,,,,,,,,,,,,,,,,,
,,,,,,1cd8d785e6becf54e84752d3,66a626ef09d4e21e1a8894ec,67371501ff0930c85bbbb10f,2024-11-15_03h40.38.553,Tarea de género gramatical,2024.2.2,Win32,143.6781609,,,135.853,159.083,,-0.079218107,-0.425925926,1,0,0,instr_done_button,0,3,3,3,1,4,instructions,"Es muy importante que responda con la mayor rapidez y precisión posibles, ya que cada cadena de letras sólo estará en pantalla durante un instante. Si no responde en ese tiempo, aparecerá el mensaje ""Muy lento"" y el experimento pasará a la siguiente palabra. Los primeros 15 intentos serán de práctica y habrá dos descansos durante la prueba.
Pulse la tecla ESPACIO o toque el botón de abajo para iniciar la parte de práctica.",0,keyboardresponseFM.png,,,,,,,,,,,,,,,,,,,,,,,,,,,,,,,,,,,,,,,,,,,,,,,,
,,,,,,1cd8d785e6becf54e84752d3,66a626ef09d4e21e1a8894ec,67371501ff0930c85bbbb10f,2024-11-15_03h40.38.553,Tarea de género gramatical,2024.2.2,Win32,143.6781609,,,,,,,,,,,,,,,,,,,,,,159.091,161.738,,0,[],[],[],[],[],[],[],,-1,161.738,162.238,0,0,0,11,1,2012,MAS,DIS,150,clima,la,l,,,,,,,,,,,,,,,,,,,,,
,,,,,,1cd8d785e6becf54e84752d3,66a626ef09d4e21e1a8894ec,67371501ff0930c85bbbb10f,2024-11-15_03h40.38.553,Tarea de género gramatical,2024.2.2,Win32,143.6781609,,,,,,,,,,,,,,,,,,,,,,162.239,163.191,a,1,[],[],[],[],[],[],[],0.294,1,163.191,163.691,0,1,1,0,1,2001,FEM,AGR,150,nuca,la,a,0.294,,,,,,,,,,,,,,,,,,,,
,,,,,,1cd8d785e6becf54e84752d3,66a626ef09d4e21e1a8894ec,67371501ff0930c85bbbb10f,2024-11-15_03h40.38.553,Tarea de género gramatical,2024.2.2,Win32,143.6781609,,,,,,,,,,,,,,,,,,,,,,163.692,164.554,a,1,[],[],[],[],[],[],[],0.2,1,164.554,165.054,0,2,2,7,1,2008,FEM,CON,150,siesta,,a,0.2,,,,,,,,,,,,,,,,,,,,
,,,,,,1cd8d785e6becf54e84752d3,66a626ef09d4e21e1a8894ec,67371501ff0930c85bbbb10f,2024-11-15_03h40.38.553,Tarea de género gramatical,2024.2.2,Win32,143.6781609,,,,,,,,,,,,,,,,,,,,,,165.055,165.839,a,0,[],[],[],[],[],[],[],0.125,0,165.839,166.339,0,3,3,10,1,2011,MAS,CON,150,canal,,l,0.125,,,,,,,,,,,,,,,,,,,,
,,,,,,1cd8d785e6becf54e84752d3,66a626ef09d4e21e1a8894ec,67371501ff0930c85bbbb10f,2024-11-15_03h40.38.553,Tarea de género gramatical,2024.2.2,Win32,143.6781609,,,,,,,,,,,,,,,,,,,,,,166.34,167.174,a,1,[],[],[],[],[],[],[],0.175,1,167.174,167.675,0,4,4,5,1,2006,FEM,DIS,150,serie,el,a,0.175,,,,,,,,,,,,,,,,,,,,
,,,,,,1cd8d785e6becf54e84752d3,66a626ef09d4e21e1a8894ec,67371501ff0930c85bbbb10f,2024-11-15_03h40.38.553,Tarea de género gramatical,2024.2.2,Win32,143.6781609,,,,,,,,,,,,,,,,,,,,,,167.675,168.467,a,0,[],[],[],[],[],[],[],0.133,0,168.467,168.967,0,5,5,13,1,2014,MAS,CON,150,siglo,,l,0.133,,,,,,,,,,,,,,,,,,,,
,,,,,,1cd8d785e6becf54e84752d3,66a626ef09d4e21e1a8894ec,67371501ff0930c85bbbb10f,2024-11-15_03h40.38.553,Tarea de género gramatical,2024.2.2,Win32,143.6781609,,,,,,,,,,,,,,,,,,,,,,168.969,169.99,a,1,[],[],[],[],[],[],[],0.366,1,169.99,170.489,0,6,6,4,1,2005,FEM,CON,150,placa,,a,0.366,,,,,,,,,,,,,,,,,,,,
,,,,,,1cd8d785e6becf54e84752d3,66a626ef09d4e21e1a8894ec,67371501ff0930c85bbbb10f,2024-11-15_03h40.38.553,Tarea de género gramatical,2024.2.2,Win32,143.6781609,,,,,,,,,,,,,,,,,,,,,,170.49,171.282,l,1,[],[],[],[],[],[],[],0.134,1,171.282,171.783,0,7,7,12,1,2013,MAS,AGR,150,acero,el,l,0.134,,,,,,,,,,,,,,,,,,,,
,,,,,,1cd8d785e6becf54e84752d3,66a626ef09d4e21e1a8894ec,67371501ff0930c85bbbb10f,2024-11-15_03h40.38.553,Tarea de género gramatical,2024.2.2,Win32,143.6781609,,,,,,,,,,,,,,,,,,,,,,171.784,172.527,a,1,[],[],[],[],[],[],[],0.081,1,172.527,173.027,0,8,8,2,1,2003,FEM,DIS,150,daga,el,a,0.081,,,,,,,,,,,,,,,,,,,,
,,,,,,1cd8d785e6becf54e84752d3,66a626ef09d4e21e1a8894ec,67371501ff0930c85bbbb10f,2024-11-15_03h40.38.553,Tarea de género gramatical,2024.2.2,Win32,143.6781609,,,,,,,,,,,,,,,,,,,,,,173.028,173.854,l,0,[],[],[],[],[],[],[],0.168,0,173.855,174.354,0,9,9,3,1,2004,FEM,AGR,150,venta,la,a,0.168,,,,,,,,,,,,,,,,,,,,
,,,,,,1cd8d785e6becf54e84752d3,66a626ef09d4e21e1a8894ec,67371501ff0930c85bbbb10f,2024-11-15_03h40.38.553,Tarea de género gramatical,2024.2.2,Win32,143.6781609,,,,,,,,,,,,,,,,,,,,,,174.355,175.175,a,1,[],[],[],[],[],[],[],0.16,1,175.175,175.675,0,10,10,1,1,2002,FEM,CON,150,pala,,a,0.16,,,,,,,,,,,,,,,,,,,,
,,,,,,1cd8d785e6becf54e84752d3,66a626ef09d4e21e1a8894ec,67371501ff0930c85bbbb10f,2024-11-15_03h40.38.553,Tarea de género gramatical,2024.2.2,Win32,143.6781609,,,,,,,,,,,,,,,,,,,,,,175.675,176.614,l,1,[],[],[],[],[],[],[],0.283,1,176.614,177.114,0,11,11,9,1,2010,MAS,AGR,150,vecino,el,l,0.283,,,,,,,,,,,,,,,,,,,,
,,,,,,1cd8d785e6becf54e84752d3,66a626ef09d4e21e1a8894ec,67371501ff0930c85bbbb10f,2024-11-15_03h40.38.553,Tarea de género gramatical,2024.2.2,Win32,143.6781609,,,,,,,,,,,,,,,,,,,,,,177.115,177.83,a,0,[],[],[],[],[],[],[],0.057,0,177.831,178.331,0,12,12,8,1,2009,MAS,DIS,150,puerto,la,l,0.057,,,,,,,,,,,,,,,,,,,,
,,,,,,1cd8d785e6becf54e84752d3,66a626ef09d4e21e1a8894ec,67371501ff0930c85bbbb10f,2024-11-15_03h40.38.553,Tarea de género gramatical,2024.2.2,Win32,143.6781609,,,,,,,,,,,,,,,,,,,,,,178.331,179.255,a,1,[],[],[],[],[],[],[],0.267,1,179.256,179.755,0,13,13,6,1,2007,FEM,AGR,150,navaja,la,a,0.267,,,,,,,,,,,,,,,,,,,,
,,,,,,1cd8d785e6becf54e84752d3,66a626ef09d4e21e1a8894ec,67371501ff0930c85bbbb10f,2024-11-15_03h40.38.553,Tarea de género gramatical,2024.2.2,Win32,143.6781609,,,,,,,,,,,,,,,,,,,,,,179.756,180.569,a,0,[],[],[],[],[],[],[],0.153,0,180.57,181.07,0,14,14,14,1,2015,MAS,DIS,150,robot,la,l,0.153,,,,,,,,,,,,,,,,,,,,
,,,,,,1cd8d785e6becf54e84752d3,66a626ef09d4e21e1a8894ec,67371501ff0930c85bbbb10f,2024-11-15_03h40.38.553,Tarea de género gramatical,2024.2.2,Win32,143.6781609,,,189.28,200.249,space,-0.079218107,-0.41563786,0,0,0,,,,,,,,,,,,200.265,201.034,a,1,[],[],[],[],[],[],[],0.114,1,201.035,201.535,,,,,,759,FEM,AGR,150,esposa,la,a,0.114,,10.957,,201.535,201.536,-0.079218107,-0.41563786,0,0,0,,0,0,0,308,1,,,,
,,,,,,1cd8d785e6becf54e84752d3,66a626ef09d4e21e1a8894ec,67371501ff0930c85bbbb10f,2024-11-15_03h40.38.553,Tarea de género gramatical,2024.2.2,Win32,143.6781609,,,,,,,,,,,,,,,,,,,,,,201.537,202.299,l,1,[],[],[],[],[],[],[],0.106,1,202.299,202.8,,,,,,862,MAS,CON,150,espejo,,l,0.106,,,,202.8,202.8,-0.079218107,-0.41563786,0,0,0,,0,1,1,411,1,,,,
,,,,,,1cd8d785e6becf54e84752d3,66a626ef09d4e21e1a8894ec,67371501ff0930c85bbbb10f,2024-11-15_03h40.38.553,Tarea de género gramatical,2024.2.2,Win32,143.6781609,,,,,,,,,,,,,,,,,,,,,,202.802,203.62,a,0,[],[],[],[],[],[],[],0.159,0,203.621,204.12,,,,,,762,MAS,AGR,150,equipo,el,l,0.159,,,,204.121,204.122,-0.079218107,-0.41563786,0,0,0,,0,2,2,311,1,,,,
,,,,,,1cd8d785e6becf54e84752d3,66a626ef09d4e21e1a8894ec,67371501ff0930c85bbbb10f,2024-11-15_03h40.38.553,Tarea de género gramatical,2024.2.2,Win32,143.6781609,,,,,,,,,,,,,,,,,,,,,,204.122,204.975,a,1,[],[],[],[],[],[],[],0.194,1,204.976,205.476,,,,,,638,FEM,DIS,150,bomba,el,a,0.194,,,,205.476,205.476,-0.079218107,-0.41563786,0,0,0,,0,3,3,187,1,,,,
,,,,,,1cd8d785e6becf54e84752d3,66a626ef09d4e21e1a8894ec,67371501ff0930c85bbbb10f,2024-11-15_03h40.38.553,Tarea de género gramatical,2024.2.2,Win32,143.6781609,,,,,,,,,,,,,,,,,,,,,,205.476,206.456,l,1,[],[],[],[],[],[],[],0.32,1,206.456,206.957,,,,,,743,MAS,DIS,150,patio,la,l,0.32,,,,206.957,206.957,-0.079218107,-0.41563786,0,0,0,,0,4,4,292,1,,,,
,,,,,,1cd8d785e6becf54e84752d3,66a626ef09d4e21e1a8894ec,67371501ff0930c85bbbb10f,2024-11-15_03h40.38.553,Tarea de género gramatical,2024.2.2,Win32,143.6781609,,,,,,,,,,,,,,,,,,,,,,206.958,207.868,a,1,[],[],[],[],[],[],[],0.253,1,207.868,208.368,,,,,,770,FEM,DIS,150,fiesta,el,a,0.253,,,,208.368,208.368,-0.079218107,-0.41563786,0,0,0,,0,5,5,319,1,,,,
,,,,,,1cd8d785e6becf54e84752d3,66a626ef09d4e21e1a8894ec,67371501ff0930c85bbbb10f,2024-11-15_03h40.38.553,Tarea de género gramatical,2024.2.2,Win32,143.6781609,,,,,,,,,,,,,,,,,,,,,,208.368,209.48,a,0,[],[],[],[],[],[],[],0.457,0,209.481,209.981,,,,,,606,MAS,AGR,150,amigo,el,l,0.457,,,,209.981,209.981,-0.079218107,-0.41563786,0,0,0,,0,6,6,155,1,,,,
,,,,,,1cd8d785e6becf54e84752d3,66a626ef09d4e21e1a8894ec,67371501ff0930c85bbbb10f,2024-11-15_03h40.38.553,Tarea de género gramatical,2024.2.2,Win32,143.6781609,,,,,,,,,,,,,,,,,,,,,,209.983,212.629,,0,[],[],[],[],[],[],[],0.457,-1,212.63,213.13,,,,,,545,MAS,DIS,150,tomo,la,l,,,,,213.13,213.13,-0.079218107,-0.41563786,0,0,0,,0,7,7,94,1,,,,
,,,,,,1cd8d785e6becf54e84752d3,66a626ef09d4e21e1a8894ec,67371501ff0930c85bbbb10f,2024-11-15_03h40.38.553,Tarea de género gramatical,2024.2.2,Win32,143.6781609,,,,,,,,,,,,,,,,,,,,,,213.131,214.291,a,1,[],[],[],[],[],[],[],0.5,1,214.291,214.791,,,,,,547,FEM,CON,150,capa,,a,0.5,,,,214.791,214.791,-0.079218107,-0.41563786,0,0,0,,0,8,8,96,1,,,,
,,,,,,1cd8d785e6becf54e84752d3,66a626ef09d4e21e1a8894ec,67371501ff0930c85bbbb10f,2024-11-15_03h40.38.553,Tarea de género gramatical,2024.2.2,Win32,143.6781609,,,,,,,,,,,,,,,,,,,,,,214.792,215.883,l,0,[],[],[],[],[],[],[],0.432,0,215.883,216.383,,,,,,458,FEM,DIS,150,idea,el,a,0.432,,,,216.383,216.383,-0.079218107,-0.41563786,0,0,0,,0,9,9,7,1,,,,
,,,,,,1cd8d785e6becf54e84752d3,66a626ef09d4e21e1a8894ec,67371501ff0930c85bbbb10f,2024-11-15_03h40.38.553,Tarea de género gramatical,2024.2.2,Win32,143.6781609,,,,,,,,,,,,,,,,,,,,,,216.384,217.37,a,0,[],[],[],[],[],[],[],0.331,0,217.37,217.871,,,,,,574,MAS,CON,150,clan,,l,0.331,,,,217.871,217.871,-0.079218107,-0.41563786,0,0,0,,0,10,10,123,1,,,,
,,,,,,1cd8d785e6becf54e84752d3,66a626ef09d4e21e1a8894ec,67371501ff0930c85bbbb10f,2024-11-15_03h40.38.553,Tarea de género gramatical,2024.2.2,Win32,143.6781609,,,,,,,,,,,,,,,,,,,,,,217.871,218.948,a,0,[],[],[],[],[],[],[],0.419,0,218.948,219.448,,,,,,748,MAS,CON,150,botón,,l,0.419,,,,219.449,219.449,-0.079218107,-0.41563786,0,0,0,,0,11,11,297,1,,,,
,,,,,,1cd8d785e6becf54e84752d3,66a626ef09d4e21e1a8894ec,67371501ff0930c85bbbb10f,2024-11-15_03h40.38.553,Tarea de género gramatical,2024.2.2,Win32,143.6781609,,,,,,,,,,,,,,,,,,,,,,219.45,220.435,l,1,[],[],[],[],[],[],[],0.331,1,220.436,220.936,,,,,,641,MAS,DIS,150,dolor,la,l,0.331,,,,220.936,220.936,-0.079218107,-0.41563786,0,0,0,,0,12,12,190,1,,,,
,,,,,,1cd8d785e6becf54e84752d3,66a626ef09d4e21e1a8894ec,67371501ff0930c85bbbb10f,2024-11-15_03h40.38.553,Tarea de género gramatical,2024.2.2,Win32,143.6781609,,,,,,,,,,,,,,,,,,,,,,220.937,221.979,l,0,[],[],[],[],[],[],[],0.38,0,221.979,222.479,,,,,,549,FEM,AGR,150,fase,la,a,0.38,,,,222.479,222.48,-0.079218107,-0.41563786,0,0,0,,0,13,13,98,1,,,,
,,,,,,1cd8d785e6becf54e84752d3,66a626ef09d4e21e1a8894ec,67371501ff0930c85bbbb10f,2024-11-15_03h40.38.553,Tarea de género gramatical,2024.2.2,Win32,143.6781609,,,,,,,,,,,,,,,,,,,,,,222.48,223.41,a,0,[],[],[],[],[],[],[],0.271,0,223.41,223.911,,,,,,863,MAS,DIS,150,diario,la,l,0.271,,,,223.911,223.911,-0.079218107,-0.41563786,0,0,0,,0,14,14,412,1,,,,
,,,,,,1cd8d785e6becf54e84752d3,66a626ef09d4e21e1a8894ec,67371501ff0930c85bbbb10f,2024-11-15_03h40.38.553,Tarea de género gramatical,2024.2.2,Win32,143.6781609,,,,,,,,,,,,,,,,,,,,,,223.912,225.024,a,1,[],[],[],[],[],[],[],0.451,1,225.024,225.524,,,,,,513,FEM,AGR,150,fila,la,a,0.451,,,,225.524,225.525,-0.079218107,-0.41563786,0,0,0,,0,15,15,62,1,,,,
,,,,,,1cd8d785e6becf54e84752d3,66a626ef09d4e21e1a8894ec,67371501ff0930c85bbbb10f,2024-11-15_03h40.38.553,Tarea de género gramatical,2024.2.2,Win32,143.6781609,,,,,,,,,,,,,,,,,,,,,,225.525,226.782,a,1,[],[],[],[],[],[],[],0.598,1,226.782,227.282,,,,,,746,FEM,DIS,150,feria,el,a,0.598,,,,227.282,227.282,-0.079218107,-0.41563786,0,0,0,,0,16,16,295,1,,,,
,,,,,,1cd8d785e6becf54e84752d3,66a626ef09d4e21e1a8894ec,67371501ff0930c85bbbb10f,2024-11-15_03h40.38.553,Tarea de género gramatical,2024.2.2,Win32,143.6781609,,,,,,,,,,,,,,,,,,,,,,227.282,228.443,l,1,[],[],[],[],[],[],[],0.496,1,228.444,228.944,,,,,,760,MAS,CON,150,nombre,,l,0.496,,,,228.944,228.944,-0.079218107,-0.41563786,0,0,0,,0,17,17,309,1,,,,
,,,,,,1cd8d785e6becf54e84752d3,66a626ef09d4e21e1a8894ec,67371501ff0930c85bbbb10f,2024-11-15_03h40.38.553,Tarea de género gramatical,2024.2.2,Win32,143.6781609,,,,,,,,,,,,,,,,,,,,,,228.944,229.896,l,0,[],[],[],[],[],[],[],0.293,0,229.897,230.397,,,,,,505,FEM,CON,150,taza,,a,0.293,,,,230.397,230.397,-0.079218107,-0.41563786,0,0,0,,0,18,18,54,1,,,,
,,,,,,1cd8d785e6becf54e84752d3,66a626ef09d4e21e1a8894ec,67371501ff0930c85bbbb10f,2024-11-15_03h40.38.553,Tarea de género gramatical,2024.2.2,Win32,143.6781609,,,,,,,,,,,,,,,,,,,,,,230.397,231.55,a,0,[],[],[],[],[],[],[],0.496,0,231.55,232.051,,,,,,569,MAS,DIS,150,mito,la,l,0.496,,,,232.051,232.051,-0.079218107,-0.41563786,0,0,0,,0,19,19,118,1,,,,
,,,,,,1cd8d785e6becf54e84752d3,66a626ef09d4e21e1a8894ec,67371501ff0930c85bbbb10f,2024-11-15_03h40.38.553,Tarea de género gramatical,2024.2.2,Win32,143.6781609,,,,,,,,,,,,,,,,,,,,,,232.051,233.337,a,1,[],[],[],[],[],[],[],0.626,1,233.337,233.837,,,,,,464,FEM,DIS,150,cara,el,a,0.626,,,,233.838,233.839,-0.079218107,-0.41563786,0,0,0,,0,20,20,13,1,,,,
,,,,,,1cd8d785e6becf54e84752d3,66a626ef09d4e21e1a8894ec,67371501ff0930c85bbbb10f,2024-11-15_03h40.38.553,Tarea de género gramatical,2024.2.2,Win32,143.6781609,,,,,,,,,,,,,,,,,,,,,,233.839,234.818,l,1,[],[],[],[],[],[],[],0.323,1,234.818,235.319,,,,,,618,MAS,AGR,150,sitio,el,l,0.323,,,,235.319,235.319,-0.079218107,-0.41563786,0,0,0,,0,21,21,167,1,,,,
,,,,,,1cd8d785e6becf54e84752d3,66a626ef09d4e21e1a8894ec,67371501ff0930c85bbbb10f,2024-11-15_03h40.38.553,Tarea de género gramatical,2024.2.2,Win32,143.6781609,,,,,,,,,,,,,,,,,,,,,,235.319,236.361,a,1,[],[],[],[],[],[],[],0.383,1,236.362,236.862,,,,,,607,FEM,CON,150,madre,,a,0.383,,,,236.862,236.862,-0.079218107,-0.41563786,0,0,0,,0,22,22,156,1,,,,
,,,,,,1cd8d785e6becf54e84752d3,66a626ef09d4e21e1a8894ec,67371501ff0930c85bbbb10f,2024-11-15_03h40.38.553,Tarea de género gramatical,2024.2.2,Win32,143.6781609,,,,,,,,,,,,,,,,,,,,,,236.864,237.905,l,0,[],[],[],[],[],[],[],0.382,0,237.905,238.405,,,,,,488,FEM,DIS,150,obra,el,a,0.382,,,,238.405,238.405,-0.079218107,-0.41563786,0,0,0,,0,23,23,37,1,,,,
,,,,,,1cd8d785e6becf54e84752d3,66a626ef09d4e21e1a8894ec,67371501ff0930c85bbbb10f,2024-11-15_03h40.38.553,Tarea de género gramatical,2024.2.2,Win32,143.6781609,,,,,,,,,,,,,,,,,,,,,,238.405,239.572,a,1,[],[],[],[],[],[],[],0.506,1,239.573,240.073,,,,,,745,FEM,CON,150,grasa,,a,0.506,,,,240.074,240.075,-0.079218107,-0.41563786,0,0,0,,0,24,24,294,1,,,,
,,,,,,1cd8d785e6becf54e84752d3,66a626ef09d4e21e1a8894ec,67371501ff0930c85bbbb10f,2024-11-15_03h40.38.553,Tarea de género gramatical,2024.2.2,Win32,143.6781609,,,,,,,,,,,,,,,,,,,,,,240.075,241.331,l,1,[],[],[],[],[],[],[],0.602,1,241.332,241.832,,,,,,725,MAS,DIS,150,disco,la,l,0.602,,,,241.832,241.832,-0.079218107,-0.41563786,0,0,0,,0,25,25,274,1,,,,
,,,,,,1cd8d785e6becf54e84752d3,66a626ef09d4e21e1a8894ec,67371501ff0930c85bbbb10f,2024-11-15_03h40.38.553,Tarea de género gramatical,2024.2.2,Win32,143.6781609,,,,,,,,,,,,,,,,,,,,,,241.833,243.048,l,1,[],[],[],[],[],[],[],0.557,1,243.048,243.549,,,,,,857,MAS,DIS,150,jurado,la,l,0.557,,,,243.549,243.549,-0.079218107,-0.41563786,0,0,0,,0,26,26,406,1,,,,
,,,,,,1cd8d785e6becf54e84752d3,66a626ef09d4e21e1a8894ec,67371501ff0930c85bbbb10f,2024-11-15_03h40.38.553,Tarea de género gramatical,2024.2.2,Win32,143.6781609,,,,,,,,,,,,,,,,,,,,,,243.549,244.821,l,1,[],[],[],[],[],[],[],0.613,1,244.821,245.325,,,,,,462,MAS,AGR,150,plan,el,l,0.613,,,,245.325,245.325,-0.079218107,-0.41563786,0,0,0,,0,27,27,11,1,,,,
,,,,,,1cd8d785e6becf54e84752d3,66a626ef09d4e21e1a8894ec,67371501ff0930c85bbbb10f,2024-11-15_03h40.38.553,Tarea de género gramatical,2024.2.2,Win32,143.6781609,,,,,,,,,,,,,,,,,,,,,,245.326,246.392,l,1,[],[],[],[],[],[],[],0.414,1,246.392,246.893,,,,,,640,MAS,CON,150,campo,,l,0.414,,,,246.893,246.893,-0.079218107,-0.41563786,0,0,0,,0,28,28,189,1,,,,
,,,,,,1cd8d785e6becf54e84752d3,66a626ef09d4e21e1a8894ec,67371501ff0930c85bbbb10f,2024-11-15_03h40.38.553,Tarea de género gramatical,2024.2.2,Win32,143.6781609,,,,,,,,,,,,,,,,,,,,,,246.893,247.922,a,1,[],[],[],[],[],[],[],0.368,1,247.922,248.422,,,,,,879,FEM,AGR,150,fianza,la,a,0.368,,,,248.423,248.424,-0.079218107,-0.41563786,0,0,0,,0,29,29,428,1,,,,
,,,,,,1cd8d785e6becf54e84752d3,66a626ef09d4e21e1a8894ec,67371501ff0930c85bbbb10f,2024-11-15_03h40.38.553,Tarea de género gramatical,2024.2.2,Win32,143.6781609,,,,,,,,,,,,,,,,,,,,,,248.424,249.791,l,1,[],[],[],[],[],[],[],0.709,1,249.791,250.292,,,,,,678,MAS,AGR,150,nivel,el,l,0.709,,,,250.292,250.292,-0.079218107,-0.41563786,0,0,0,,0,30,30,227,1,,,,
,,,,,,1cd8d785e6becf54e84752d3,66a626ef09d4e21e1a8894ec,67371501ff0930c85bbbb10f,2024-11-15_03h40.38.553,Tarea de género gramatical,2024.2.2,Win32,143.6781609,,,,,,,,,,,,,,,,,,,,,,250.292,251.327,l,1,[],[],[],[],[],[],[],0.38,1,251.327,251.828,,,,,,617,MAS,DIS,150,juego,la,l,0.38,,,,251.828,251.828,-0.079218107,-0.41563786,0,0,0,,0,31,31,166,1,,,,
,,,,,,1cd8d785e6becf54e84752d3,66a626ef09d4e21e1a8894ec,67371501ff0930c85bbbb10f,2024-11-15_03h40.38.553,Tarea de género gramatical,2024.2.2,Win32,143.6781609,,,,,,,,,,,,,,,,,,,,,,251.829,252.892,a,1,[],[],[],[],[],[],[],0.405,1,252.892,253.392,,,,,,861,FEM,AGR,150,actriz,la,a,0.405,,,,253.392,253.392,-0.079218107,-0.41563786,0,0,0,,0,32,32,410,1,,,,
,,,,,,1cd8d785e6becf54e84752d3,66a626ef09d4e21e1a8894ec,67371501ff0930c85bbbb10f,2024-11-15_03h40.38.553,Tarea de género gramatical,2024.2.2,Win32,143.6781609,,,,,,,,,,,,,,,,,,,,,,253.392,254.476,l,1,[],[],[],[],[],[],[],0.427,1,254.476,254.977,,,,,,738,MAS,AGR,150,grado,el,l,0.427,,,,254.977,254.978,-0.079218107,-0.41563786,0,0,0,,0,33,33,287,1,,,,
,,,,,,1cd8d785e6becf54e84752d3,66a626ef09d4e21e1a8894ec,67371501ff0930c85bbbb10f,2024-11-15_03h40.38.553,Tarea de género gramatical,2024.2.2,Win32,143.6781609,,,,,,,,,,,,,,,,,,,,,,254.978,256.006,a,1,[],[],[],[],[],[],[],0.368,1,256.006,256.506,,,,,,591,FEM,AGR,150,cera,la,a,0.368,,,,256.506,256.506,-0.079218107,-0.41563786,0,0,0,,0,34,34,140,1,,,,
,,,,,,1cd8d785e6becf54e84752d3,66a626ef09d4e21e1a8894ec,67371501ff0930c85bbbb10f,2024-11-15_03h40.38.553,Tarea de género gramatical,2024.2.2,Win32,143.6781609,,,,,,,,,,,,,,,,,,,,,,256.506,257.368,l,0,[],[],[],[],[],[],[],0.202,0,257.369,257.869,,,,,,507,FEM,AGR,150,moda,la,a,0.202,,,,257.869,257.869,-0.079218107,-0.41563786,0,0,0,,0,35,35,56,1,,,,
,,,,,,1cd8d785e6becf54e84752d3,66a626ef09d4e21e1a8894ec,67371501ff0930c85bbbb10f,2024-11-15_03h40.38.553,Tarea de género gramatical,2024.2.2,Win32,143.6781609,,,,,,,,,,,,,,,,,,,,,,257.869,259.189,l,1,[],[],[],[],[],[],[],0.662,1,259.19,259.69,,,,,,562,MAS,CON,150,reto,,l,0.662,,,,259.69,259.69,-0.079218107,-0.41563786,0,0,0,,0,36,36,111,1,,,,
,,,,,,1cd8d785e6becf54e84752d3,66a626ef09d4e21e1a8894ec,67371501ff0930c85bbbb10f,2024-11-15_03h40.38.553,Tarea de género gramatical,2024.2.2,Win32,143.6781609,,,,,,,,,,,,,,,,,,,,,,259.69,260.725,a,1,[],[],[],[],[],[],[],0.375,1,260.725,261.226,,,,,,721,FEM,CON,150,viuda,,a,0.375,,,,261.226,261.226,-0.079218107,-0.41563786,0,0,0,,0,37,37,270,1,,,,
,,,,,,1cd8d785e6becf54e84752d3,66a626ef09d4e21e1a8894ec,67371501ff0930c85bbbb10f,2024-11-15_03h40.38.553,Tarea de género gramatical,2024.2.2,Win32,143.6781609,,,,,,,,,,,,,,,,,,,,,,261.227,262.207,l,1,[],[],[],[],[],[],[],0.323,1,262.207,262.707,,,,,,875,MAS,DIS,150,chiste,la,l,0.323,,,,262.707,262.708,-0.079218107,-0.41563786,0,0,0,,0,38,38,424,1,,,,
,,,,,,1cd8d785e6becf54e84752d3,66a626ef09d4e21e1a8894ec,67371501ff0930c85bbbb10f,2024-11-15_03h40.38.553,Tarea de género gramatical,2024.2.2,Win32,143.6781609,,,,,,,,,,,,,,,,,,,,,,262.708,263.618,a,0,[],[],[],[],[],[],[],0.251,0,263.618,264.118,,,,,,899,MAS,DIS,150,payaso,la,l,0.251,,,,264.118,264.118,-0.079218107,-0.41563786,0,0,0,,0,39,39,448,1,,,,
,,,,,,1cd8d785e6becf54e84752d3,66a626ef09d4e21e1a8894ec,67371501ff0930c85bbbb10f,2024-11-15_03h40.38.553,Tarea de género gramatical,2024.2.2,Win32,143.6781609,,,,,,,,,,,,,,,,,,,,,,264.118,265.363,l,1,[],[],[],[],[],[],[],0.586,1,265.363,265.863,,,,,,570,MAS,AGR,150,puño,el,l,0.586,,,,265.863,265.863,-0.079218107,-0.41563786,0,0,0,,0,40,40,119,1,,,,
,,,,,,1cd8d785e6becf54e84752d3,66a626ef09d4e21e1a8894ec,67371501ff0930c85bbbb10f,2024-11-15_03h40.38.553,Tarea de género gramatical,2024.2.2,Win32,143.6781609,,,,,,,,,,,,,,,,,,,,,,265.864,266.822,l,1,[],[],[],[],[],[],[],0.304,1,266.822,267.323,,,,,,814,MAS,CON,150,viento,,l,0.304,,,,267.323,267.323,-0.079218107,-0.41563786,0,0,0,,0,41,41,363,1,,,,
,,,,,,1cd8d785e6becf54e84752d3,66a626ef09d4e21e1a8894ec,67371501ff0930c85bbbb10f,2024-11-15_03h40.38.553,Tarea de género gramatical,2024.2.2,Win32,143.6781609,,,,,,,,,,,,,,,,,,,,,,267.323,268.275,l,1,[],[],[],[],[],[],[],0.292,1,268.275,268.775,,,,,,755,MAS,DIS,150,hombre,la,l,0.292,,,,268.776,268.776,-0.079218107,-0.41563786,0,0,0,,0,42,42,304,1,,,,
,,,,,,1cd8d785e6becf54e84752d3,66a626ef09d4e21e1a8894ec,67371501ff0930c85bbbb10f,2024-11-15_03h40.38.553,Tarea de género gramatical,2024.2.2,Win32,143.6781609,,,,,,,,,,,,,,,,,,,,,,268.777,270.152,l,0,[],[],[],[],[],[],[],0.719,0,270.153,270.653,,,,,,669,FEM,AGR,150,costa,la,a,0.719,,,,270.653,270.653,-0.079218107,-0.41563786,0,0,0,,0,43,43,218,1,,,,
,,,,,,1cd8d785e6becf54e84752d3,66a626ef09d4e21e1a8894ec,67371501ff0930c85bbbb10f,2024-11-15_03h40.38.553,Tarea de género gramatical,2024.2.2,Win32,143.6781609,,,,,,,,,,,,,,,,,,,,,,270.653,272.259,a,0,[],[],[],[],[],[],[],0.945,0,272.259,272.759,,,,,,792,MAS,AGR,150,abuelo,el,l,0.945,,,,272.759,272.759,-0.079218107,-0.41563786,0,0,0,,0,44,44,341,1,,,,
,,,,,,1cd8d785e6becf54e84752d3,66a626ef09d4e21e1a8894ec,67371501ff0930c85bbbb10f,2024-11-15_03h40.38.553,Tarea de género gramatical,2024.2.2,Win32,143.6781609,,,,,,,,,,,,,,,,,,,,,,272.76,273.94,l,1,[],[],[],[],[],[],[],0.523,1,273.941,274.441,,,,,,820,MAS,CON,150,seguro,,l,0.523,,,,274.442,274.442,-0.079218107,-0.41563786,0,0,0,,0,45,45,369,1,,,,
,,,,,,1cd8d785e6becf54e84752d3,66a626ef09d4e21e1a8894ec,67371501ff0930c85bbbb10f,2024-11-15_03h40.38.553,Tarea de género gramatical,2024.2.2,Win32,143.6781609,,,,,,,,,,,,,,,,,,,,,,274.442,275.699,a,0,[],[],[],[],[],[],[],0.599,0,275.699,276.199,,,,,,550,MAS,CON,150,nido,,l,0.599,,,,276.199,276.2,-0.079218107,-0.41563786,0,0,0,,0,46,46,99,1,,,,
,,,,,,1cd8d785e6becf54e84752d3,66a626ef09d4e21e1a8894ec,67371501ff0930c85bbbb10f,2024-11-15_03h40.38.553,Tarea de género gramatical,2024.2.2,Win32,143.6781609,,,,,,,,,,,,,,,,,,,,,,276.2,277.374,l,1,[],[],[],[],[],[],[],0.518,1,277.374,277.875,,,,,,834,MAS,AGR,150,pedazo,el,l,0.518,,,,277.875,277.876,-0.079218107,-0.41563786,0,0,0,,0,47,47,383,1,,,,
,,,,,,1cd8d785e6becf54e84752d3,66a626ef09d4e21e1a8894ec,67371501ff0930c85bbbb10f,2024-11-15_03h40.38.553,Tarea de género gramatical,2024.2.2,Win32,143.6781609,,,,,,,,,,,,,,,,,,,,,,277.877,278.939,l,1,[],[],[],[],[],[],[],0.404,1,278.939,279.439,,,,,,816,MAS,AGR,150,riesgo,el,l,0.404,,,,279.439,279.439,-0.079218107,-0.41563786,0,0,0,,0,48,48,365,1,,,,
,,,,,,1cd8d785e6becf54e84752d3,66a626ef09d4e21e1a8894ec,67371501ff0930c85bbbb10f,2024-11-15_03h40.38.553,Tarea de género gramatical,2024.2.2,Win32,143.6781609,,,,,,,,,,,,,,,,,,,,,,279.44,280.44,l,1,[],[],[],[],[],[],[],0.341,1,280.44,280.94,,,,,,708,MAS,AGR,150,polvo,el,l,0.341,,,,280.94,280.94,-0.079218107,-0.41563786,0,0,0,,0,49,49,257,1,,,,
,,,,,,1cd8d785e6becf54e84752d3,66a626ef09d4e21e1a8894ec,67371501ff0930c85bbbb10f,2024-11-15_03h40.38.553,Tarea de género gramatical,2024.2.2,Win32,143.6781609,,,,,,,,,,,,,,,,,,,,,,280.941,282.275,a,1,[],[],[],[],[],[],[],0.675,1,282.275,282.776,,,,,,698,FEM,DIS,150,letra,el,a,0.675,,,,282.776,282.776,-0.079218107,-0.41563786,0,0,0,,0,50,50,247,1,,,,
,,,,,,1cd8d785e6becf54e84752d3,66a626ef09d4e21e1a8894ec,67371501ff0930c85bbbb10f,2024-11-15_03h40.38.553,Tarea de género gramatical,2024.2.2,Win32,143.6781609,,,,,,,,,,,,,,,,,,,,,,282.777,283.86,a,0,[],[],[],[],[],[],[],0.424,0,283.86,284.36,,,,,,724,MAS,CON,150,motor,,l,0.424,,,,284.361,284.362,-0.079218107,-0.41563786,0,0,0,,0,51,51,273,1,,,,
,,,,,,1cd8d785e6becf54e84752d3,66a626ef09d4e21e1a8894ec,67371501ff0930c85bbbb10f,2024-11-15_03h40.38.553,Tarea de género gramatical,2024.2.2,Win32,143.6781609,,,,,,,,,,,,,,,,,,,,,,284.362,285.549,a,1,[],[],[],[],[],[],[],0.53,1,285.549,286.049,,,,,,457,FEM,CON,150,hora,,a,0.53,,,,286.049,286.049,-0.079218107,-0.41563786,0,0,0,,0,52,52,6,1,,,,
,,,,,,1cd8d785e6becf54e84752d3,66a626ef09d4e21e1a8894ec,67371501ff0930c85bbbb10f,2024-11-15_03h40.38.553,Tarea de género gramatical,2024.2.2,Win32,143.6781609,,,,,,,,,,,,,,,,,,,,,,286.051,287.273,l,1,[],[],[],[],[],[],[],0.564,1,287.274,287.774,,,,,,690,MAS,AGR,150,ruido,el,l,0.564,,,,287.774,287.774,-0.079218107,-0.41563786,0,0,0,,0,53,53,239,1,,,,
,,,,,,1cd8d785e6becf54e84752d3,66a626ef09d4e21e1a8894ec,67371501ff0930c85bbbb10f,2024-11-15_03h40.38.553,Tarea de género gramatical,2024.2.2,Win32,143.6781609,,,,,,,,,,,,,,,,,,,,,,287.774,289.122,l,1,[],[],[],[],[],[],[],0.689,1,289.122,289.623,,,,,,868,MAS,CON,150,pájaro,,l,0.689,,,,289.623,289.623,-0.079218107,-0.41563786,0,0,0,,0,54,54,417,1,,,,
,,,,,,1cd8d785e6becf54e84752d3,66a626ef09d4e21e1a8894ec,67371501ff0930c85bbbb10f,2024-11-15_03h40.38.553,Tarea de género gramatical,2024.2.2,Win32,143.6781609,,,,,,,,,,,,,,,,,,,,,,289.624,290.846,l,1,[],[],[],[],[],[],[],0.564,1,290.846,291.347,,,,,,713,MAS,DIS,150,carro,la,l,0.564,,,,291.347,291.347,-0.079218107,-0.41563786,0,0,0,,0,55,55,262,1,,,,
,,,,,,1cd8d785e6becf54e84752d3,66a626ef09d4e21e1a8894ec,67371501ff0930c85bbbb10f,2024-11-15_03h40.38.553,Tarea de género gramatical,2024.2.2,Win32,143.6781609,,,,,,,,,,,,,,,,,,,,,,291.348,292.32,l,0,[],[],[],[],[],[],[],0.312,0,292.321,292.82,,,,,,584,FEM,DIS,150,rama,el,a,0.312,,,,292.821,292.822,-0.079218107,-0.41563786,0,0,0,,0,56,56,133,1,,,,
,,,,,,1cd8d785e6becf54e84752d3,66a626ef09d4e21e1a8894ec,67371501ff0930c85bbbb10f,2024-11-15_03h40.38.553,Tarea de género gramatical,2024.2.2,Win32,143.6781609,,,,,,,,,,,,,,,,,,,,,,292.823,293.989,l,1,[],[],[],[],[],[],[],0.508,1,293.989,294.489,,,,,,821,MAS,DIS,150,sonido,la,l,0.508,,,,294.489,294.489,-0.079218107,-0.41563786,0,0,0,,0,57,57,370,1,,,,
,,,,,,1cd8d785e6becf54e84752d3,66a626ef09d4e21e1a8894ec,67371501ff0930c85bbbb10f,2024-11-15_03h40.38.553,Tarea de género gramatical,2024.2.2,Win32,143.6781609,,,,,,,,,,,,,,,,,,,,,,294.489,295.608,l,1,[],[],[],[],[],[],[],0.458,1,295.608,296.108,,,,,,672,MAS,AGR,150,valor,el,l,0.458,,,,296.108,296.108,-0.079218107,-0.41563786,0,0,0,,0,58,58,221,1,,,,
,,,,,,1cd8d785e6becf54e84752d3,66a626ef09d4e21e1a8894ec,67371501ff0930c85bbbb10f,2024-11-15_03h40.38.553,Tarea de género gramatical,2024.2.2,Win32,143.6781609,,,,,,,,,,,,,,,,,,,,,,296.109,297.214,l,1,[],[],[],[],[],[],[],0.445,1,297.214,297.714,,,,,,731,MAS,DIS,150,actor,la,l,0.445,,,,297.714,297.714,-0.079218107,-0.41563786,0,0,0,,0,59,59,280,1,,,,
,,,,,,1cd8d785e6becf54e84752d3,66a626ef09d4e21e1a8894ec,67371501ff0930c85bbbb10f,2024-11-15_03h40.38.553,Tarea de género gramatical,2024.2.2,Win32,143.6781609,,,,,,,,,,,,,,,,,,,,,,297.715,298.861,l,0,[],[],[],[],[],[],[],0.488,0,298.861,299.361,,,,,,517,FEM,CON,150,miel,,a,0.488,,,,299.362,299.362,-0.079218107,-0.41563786,0,0,0,,0,60,60,66,1,,,,
,,,,,,1cd8d785e6becf54e84752d3,66a626ef09d4e21e1a8894ec,67371501ff0930c85bbbb10f,2024-11-15_03h40.38.553,Tarea de género gramatical,2024.2.2,Win32,143.6781609,,,,,,,,,,,,,,,,,,,,,,299.363,300.418,l,1,[],[],[],[],[],[],[],0.398,1,300.418,300.919,,,,,,497,MAS,DIS,150,olor,la,l,0.398,,,,300.919,300.919,-0.079218107,-0.41563786,0,0,0,,0,61,61,46,1,,,,
,,,,,,1cd8d785e6becf54e84752d3,66a626ef09d4e21e1a8894ec,67371501ff0930c85bbbb10f,2024-11-15_03h40.38.553,Tarea de género gramatical,2024.2.2,Win32,143.6781609,,,,,,,,,,,,,,,,,,,,,,300.92,301.99,l,1,[],[],[],[],[],[],[],0.413,1,301.99,302.49,,,,,,616,MAS,CON,150,coche,,l,0.413,,,,302.49,302.49,-0.079218107,-0.41563786,0,0,0,,0,62,62,165,1,,,,
,,,,,,1cd8d785e6becf54e84752d3,66a626ef09d4e21e1a8894ec,67371501ff0930c85bbbb10f,2024-11-15_03h40.38.553,Tarea de género gramatical,2024.2.2,Win32,143.6781609,,,,,,,,,,,,,,,,,,,,,,302.49,303.414,a,1,[],[],[],[],[],[],[],0.268,1,303.415,303.915,,,,,,615,FEM,AGR,150,amiga,la,a,0.268,,,,303.915,303.915,-0.079218107,-0.41563786,0,0,0,,0,63,63,164,1,,,,
,,,,,,1cd8d785e6becf54e84752d3,66a626ef09d4e21e1a8894ec,67371501ff0930c85bbbb10f,2024-11-15_03h40.38.553,Tarea de género gramatical,2024.2.2,Win32,143.6781609,,,,,,,,,,,,,,,,,,,,,,303.916,305.034,l,1,[],[],[],[],[],[],[],0.461,1,305.034,305.534,,,,,,773,MAS,DIS,150,marido,la,l,0.461,,,,305.534,305.534,-0.079218107,-0.41563786,0,0,0,,0,64,64,322,1,,,,
,,,,,,1cd8d785e6becf54e84752d3,66a626ef09d4e21e1a8894ec,67371501ff0930c85bbbb10f,2024-11-15_03h40.38.553,Tarea de género gramatical,2024.2.2,Win32,143.6781609,,,,,,,,,,,,,,,,,,,,,,305.535,306.758,l,0,[],[],[],[],[],[],[],0.563,0,306.759,307.258,,,,,,813,FEM,AGR,150,unidad,la,a,0.563,,,,307.259,307.26,-0.079218107,-0.41563786,0,0,0,,0,65,65,362,1,,,,
,,,,,,1cd8d785e6becf54e84752d3,66a626ef09d4e21e1a8894ec,67371501ff0930c85bbbb10f,2024-11-15_03h40.38.553,Tarea de género gramatical,2024.2.2,Win32,143.6781609,,,,,,,,,,,,,,,,,,,,,,307.261,308.329,l,1,[],[],[],[],[],[],[],0.408,1,308.329,308.829,,,,,,647,MAS,DIS,150,avión,la,l,0.408,,,,308.829,308.829,-0.079218107,-0.41563786,0,0,0,,0,66,66,196,1,,,,
,,,,,,1cd8d785e6becf54e84752d3,66a626ef09d4e21e1a8894ec,67371501ff0930c85bbbb10f,2024-11-15_03h40.38.553,Tarea de género gramatical,2024.2.2,Win32,143.6781609,,,,,,,,,,,,,,,,,,,,,,308.83,310.074,a,1,[],[],[],[],[],[],[],0.583,1,310.074,310.575,,,,,,727,FEM,CON,150,plaza,,a,0.583,,,,310.575,310.575,-0.079218107,-0.41563786,0,0,0,,0,67,67,276,1,,,,
,,,,,,1cd8d785e6becf54e84752d3,66a626ef09d4e21e1a8894ec,67371501ff0930c85bbbb10f,2024-11-15_03h40.38.553,Tarea de género gramatical,2024.2.2,Win32,143.6781609,,,,,,,,,,,,,,,,,,,,,,310.575,311.77,l,1,[],[],[],[],[],[],[],0.533,1,311.77,312.27,,,,,,594,MAS,AGR,150,amor,el,l,0.533,,,,312.27,312.27,-0.079218107,-0.41563786,0,0,0,,0,68,68,143,1,,,,
,,,,,,1cd8d785e6becf54e84752d3,66a626ef09d4e21e1a8894ec,67371501ff0930c85bbbb10f,2024-11-15_03h40.38.553,Tarea de género gramatical,2024.2.2,Win32,143.6781609,,,,,,,,,,,,,,,,,,,,,,312.271,313.41,l,0,[],[],[],[],[],[],[],0.482,0,313.411,313.911,,,,,,633,FEM,AGR,150,llave,la,a,0.482,,,,313.912,313.912,-0.079218107,-0.41563786,0,0,0,,0,69,69,182,1,,,,
,,,,,,1cd8d785e6becf54e84752d3,66a626ef09d4e21e1a8894ec,67371501ff0930c85bbbb10f,2024-11-15_03h40.38.553,Tarea de género gramatical,2024.2.2,Win32,143.6781609,,,,,,,,,,,,,,,,,,,,,,313.913,315.044,l,0,[],[],[],[],[],[],[],0.477,0,315.044,315.544,,,,,,830,FEM,DIS,150,madera,el,a,0.477,,,,315.544,315.544,-0.079218107,-0.41563786,0,0,0,,0,70,70,379,1,,,,
,,,,,,1cd8d785e6becf54e84752d3,66a626ef09d4e21e1a8894ec,67371501ff0930c85bbbb10f,2024-11-15_03h40.38.553,Tarea de género gramatical,2024.2.2,Win32,143.6781609,,,,,,,,,,,,,,,,,,,,,,315.545,316.886,l,1,[],[],[],[],[],[],[],0.685,1,316.886,317.387,,,,,,664,MAS,CON,150,fondo,,l,0.685,,,,317.387,317.387,-0.079218107,-0.41563786,0,0,0,,0,71,71,213,1,,,,
,,,,,,1cd8d785e6becf54e84752d3,66a626ef09d4e21e1a8894ec,67371501ff0930c85bbbb10f,2024-11-15_03h40.38.553,Tarea de género gramatical,2024.2.2,Win32,143.6781609,,,,,,,,,,,,,,,,,,,,,,317.388,318.569,a,1,[],[],[],[],[],[],[],0.522,1,318.569,319.069,,,,,,717,FEM,AGR,150,barba,la,a,0.522,,,,319.069,319.069,-0.079218107,-0.41563786,0,0,0,,0,72,72,266,1,,,,
,,,,,,1cd8d785e6becf54e84752d3,66a626ef09d4e21e1a8894ec,67371501ff0930c85bbbb10f,2024-11-15_03h40.38.553,Tarea de género gramatical,2024.2.2,Win32,143.6781609,,,,,,,,,,,,,,,,,,,,,,319.069,320.161,l,1,[],[],[],[],[],[],[],0.434,1,320.161,320.661,,,,,,852,MAS,AGR,150,ladrón,el,l,0.434,,,,320.661,320.661,-0.079218107,-0.41563786,0,0,0,,0,73,73,401,1,,,,
,,,,,,1cd8d785e6becf54e84752d3,66a626ef09d4e21e1a8894ec,67371501ff0930c85bbbb10f,2024-11-15_03h40.38.553,Tarea de género gramatical,2024.2.2,Win32,143.6781609,,,,,,,,,,,,,,,,,,,,,,320.662,321.759,a,1,[],[],[],[],[],[],[],0.439,1,321.759,322.26,,,,,,849,FEM,AGR,150,charla,la,a,0.439,,,,322.26,322.261,-0.079218107,-0.41563786,0,0,0,,0,74,74,398,1,,,,
,,,,,,1cd8d785e6becf54e84752d3,66a626ef09d4e21e1a8894ec,67371501ff0930c85bbbb10f,2024-11-15_03h40.38.553,Tarea de género gramatical,2024.2.2,Win32,143.6781609,,,,,,,,,,,,,,,,,,,,,,322.261,323.726,l,0,[],[],[],[],[],[],[],0.807,0,323.727,324.227,,,,,,656,FEM,DIS,150,época,el,a,0.807,,,,324.227,324.227,-0.079218107,-0.41563786,0,0,0,,0,75,75,205,1,,,,
,,,,,,1cd8d785e6becf54e84752d3,66a626ef09d4e21e1a8894ec,67371501ff0930c85bbbb10f,2024-11-15_03h40.38.553,Tarea de género gramatical,2024.2.2,Win32,143.6781609,,,,,,,,,,,,,,,,,,,,,,324.228,325.436,l,1,[],[],[],[],[],[],[],0.549,1,325.437,325.937,,,,,,892,MAS,CON,150,cuadro,,l,0.549,,,,325.937,325.937,-0.079218107,-0.41563786,0,0,0,,0,76,76,441,1,,,,
,,,,,,1cd8d785e6becf54e84752d3,66a626ef09d4e21e1a8894ec,67371501ff0930c85bbbb10f,2024-11-15_03h40.38.553,Tarea de género gramatical,2024.2.2,Win32,143.6781609,,,,,,,,,,,,,,,,,,,,,,325.938,327.202,l,1,[],[],[],[],[],[],[],0.605,1,327.202,327.702,,,,,,646,MAS,CON,150,barco,,l,0.605,,,,327.702,327.702,-0.079218107,-0.41563786,0,0,0,,0,77,77,195,1,,,,
,,,,,,1cd8d785e6becf54e84752d3,66a626ef09d4e21e1a8894ec,67371501ff0930c85bbbb10f,2024-11-15_03h40.38.553,Tarea de género gramatical,2024.2.2,Win32,143.6781609,,,,,,,,,,,,,,,,,,,,,,327.703,328.954,a,1,[],[],[],[],[],[],[],0.594,1,328.954,329.454,,,,,,489,FEM,AGR,150,luna,la,a,0.594,,,,329.455,329.457,-0.079218107,-0.41563786,0,0,0,,0,78,78,38,1,,,,
,,,,,,1cd8d785e6becf54e84752d3,66a626ef09d4e21e1a8894ec,67371501ff0930c85bbbb10f,2024-11-15_03h40.38.553,Tarea de género gramatical,2024.2.2,Win32,143.6781609,,,,,,,,,,,,,,,,,,,,,,329.457,330.657,a,1,[],[],[],[],[],[],[],0.543,1,330.657,331.157,,,,,,873,FEM,AGR,150,poesía,la,a,0.543,,,,331.157,331.157,-0.079218107,-0.41563786,0,0,0,,0,79,79,422,1,,,,
,,,,,,1cd8d785e6becf54e84752d3,66a626ef09d4e21e1a8894ec,67371501ff0930c85bbbb10f,2024-11-15_03h40.38.553,Tarea de género gramatical,2024.2.2,Win32,143.6781609,,,,,,,,,,,,,,,,,,,,,,331.158,333.806,,0,[],[],[],[],[],[],[],0.543,-1,333.806,334.307,,,,,,614,FEM,DIS,150,novia,el,a,,,,,334.307,334.307,-0.079218107,-0.41563786,0,0,0,,0,80,80,163,1,,,,
,,,,,,1cd8d785e6becf54e84752d3,66a626ef09d4e21e1a8894ec,67371501ff0930c85bbbb10f,2024-11-15_03h40.38.553,Tarea de género gramatical,2024.2.2,Win32,143.6781609,,,,,,,,,,,,,,,,,,,,,,334.308,335.557,l,1,[],[],[],[],[],[],[],0.589,1,335.558,336.058,,,,,,492,MAS,AGR,150,show,el,l,0.589,,,,336.058,336.058,-0.079218107,-0.41563786,0,0,0,,0,81,81,41,1,,,,
,,,,,,1cd8d785e6becf54e84752d3,66a626ef09d4e21e1a8894ec,67371501ff0930c85bbbb10f,2024-11-15_03h40.38.553,Tarea de género gramatical,2024.2.2,Win32,143.6781609,,,,,,,,,,,,,,,,,,,,,,336.059,337.091,l,0,[],[],[],[],[],[],[],0.373,0,337.092,337.587,,,,,,829,FEM,CON,150,granja,,a,0.373,,,,337.587,337.588,-0.079218107,-0.41563786,0,0,0,,0,82,82,378,1,,,,
,,,,,,1cd8d785e6becf54e84752d3,66a626ef09d4e21e1a8894ec,67371501ff0930c85bbbb10f,2024-11-15_03h40.38.553,Tarea de género gramatical,2024.2.2,Win32,143.6781609,,,,,,,,,,,,,,,,,,,,,,337.589,339.409,l,0,[],[],[],[],[],[],[],1.162,0,339.409,339.91,,,,,,566,FEM,DIS,150,nube,el,a,1.162,,,,339.91,339.911,-0.079218107,-0.41563786,0,0,0,,0,83,83,115,1,,,,
,,,,,,1cd8d785e6becf54e84752d3,66a626ef09d4e21e1a8894ec,67371501ff0930c85bbbb10f,2024-11-15_03h40.38.553,Tarea de género gramatical,2024.2.2,Win32,143.6781609,,,,,,,,,,,,,,,,,,,,,,339.911,341.216,a,1,[],[],[],[],[],[],[],0.649,1,341.217,341.717,,,,,,891,FEM,AGR,150,medida,la,a,0.649,,,,341.717,341.717,-0.079218107,-0.41563786,0,0,0,,0,84,84,440,1,,,,
,,,,,,1cd8d785e6becf54e84752d3,66a626ef09d4e21e1a8894ec,67371501ff0930c85bbbb10f,2024-11-15_03h40.38.553,Tarea de género gramatical,2024.2.2,Win32,143.6781609,,,,,,,,,,,,,,,,,,,,,,341.718,343.162,l,1,[],[],[],[],[],[],[],0.786,1,343.162,343.663,,,,,,677,MAS,DIS,150,vuelo,la,l,0.786,,,,343.663,343.663,-0.079218107,-0.41563786,0,0,0,,0,85,85,226,1,,,,
,,,,,,1cd8d785e6becf54e84752d3,66a626ef09d4e21e1a8894ec,67371501ff0930c85bbbb10f,2024-11-15_03h40.38.553,Tarea de género gramatical,2024.2.2,Win32,143.6781609,,,,,,,,,,,,,,,,,,,,,,343.663,344.942,a,1,[],[],[],[],[],[],[],0.62,1,344.942,345.442,,,,,,758,FEM,DIS,150,semana,el,a,0.62,,,,345.442,345.442,-0.079218107,-0.41563786,0,0,0,,0,86,86,307,1,,,,
,,,,,,1cd8d785e6becf54e84752d3,66a626ef09d4e21e1a8894ec,67371501ff0930c85bbbb10f,2024-11-15_03h40.38.553,Tarea de género gramatical,2024.2.2,Win32,143.6781609,,,,,,,,,,,,,,,,,,,,,,345.443,346.687,l,1,[],[],[],[],[],[],[],0.587,1,346.687,347.187,,,,,,822,MAS,AGR,150,delito,el,l,0.587,,,,347.188,347.189,-0.079218107,-0.41563786,0,0,0,,0,87,87,371,1,,,,
,,,,,,1cd8d785e6becf54e84752d3,66a626ef09d4e21e1a8894ec,67371501ff0930c85bbbb10f,2024-11-15_03h40.38.553,Tarea de género gramatical,2024.2.2,Win32,143.6781609,,,,,,,,,,,,,,,,,,,,,,347.189,348.32,a,1,[],[],[],[],[],[],[],0.472,1,348.32,348.821,,,,,,530,FEM,DIS,150,vaca,el,a,0.472,,,,348.821,348.821,-0.079218107,-0.41563786,0,0,0,,0,88,88,79,1,,,,
,,,,,,1cd8d785e6becf54e84752d3,66a626ef09d4e21e1a8894ec,67371501ff0930c85bbbb10f,2024-11-15_03h40.38.553,Tarea de género gramatical,2024.2.2,Win32,143.6781609,,,,,,,,,,,,,,,,,,,,,,348.822,350.065,l,1,[],[],[],[],[],[],[],0.584,1,350.065,350.566,,,,,,676,MAS,CON,150,color,,l,0.584,,,,350.566,350.566,-0.079218107,-0.41563786,0,0,0,,0,89,89,225,1,,,,
,,,,,,1cd8d785e6becf54e84752d3,66a626ef09d4e21e1a8894ec,67371501ff0930c85bbbb10f,2024-11-15_03h40.38.553,Tarea de género gramatical,2024.2.2,Win32,143.6781609,,,,,,,,,,,,,,,,,,,,,,350.567,351.72,a,0,[],[],[],[],[],[],[],0.493,0,351.72,352.22,,,,,,610,MAS,CON,150,señor,,l,0.493,,,,352.22,352.22,-0.079218107,-0.41563786,0,0,0,,0,90,90,159,1,,,,
,,,,,,1cd8d785e6becf54e84752d3,66a626ef09d4e21e1a8894ec,67371501ff0930c85bbbb10f,2024-11-15_03h40.38.553,Tarea de género gramatical,2024.2.2,Win32,143.6781609,,,,,,,,,,,,,,,,,,,,,,352.221,353.77,a,1,[],[],[],[],[],[],[],0.892,1,353.77,354.271,,,,,,554,FEM,DIS,150,vela,el,a,0.892,,,,354.271,354.271,-0.079218107,-0.41563786,0,0,0,,0,91,91,103,1,,,,
,,,,,,1cd8d785e6becf54e84752d3,66a626ef09d4e21e1a8894ec,67371501ff0930c85bbbb10f,2024-11-15_03h40.38.553,Tarea de género gramatical,2024.2.2,Win32,143.6781609,,,,,,,,,,,,,,,,,,,,,,354.271,355.432,l,1,[],[],[],[],[],[],[],0.5,1,355.432,355.933,,,,,,684,MAS,AGR,150,héroe,el,l,0.5,,,,355.933,355.934,-0.079218107,-0.41563786,0,0,0,,0,92,92,233,1,,,,
,,,,,,1cd8d785e6becf54e84752d3,66a626ef09d4e21e1a8894ec,67371501ff0930c85bbbb10f,2024-11-15_03h40.38.553,Tarea de género gramatical,2024.2.2,Win32,143.6781609,,,,,,,,,,,,,,,,,,,,,,355.934,357.288,a,1,[],[],[],[],[],[],[],0.699,1,357.288,357.788,,,,,,771,FEM,AGR,150,comida,la,a,0.699,,,,357.788,357.788,-0.079218107,-0.41563786,0,0,0,,0,93,93,320,1,,,,
,,,,,,1cd8d785e6becf54e84752d3,66a626ef09d4e21e1a8894ec,67371501ff0930c85bbbb10f,2024-11-15_03h40.38.553,Tarea de género gramatical,2024.2.2,Win32,143.6781609,,,,,,,,,,,,,,,,,,,,,,357.789,359.637,l,1,[],[],[],[],[],[],[],1.185,1,359.638,360.138,,,,,,888,MAS,AGR,150,tanque,el,l,1.185,,,,360.138,360.138,-0.079218107,-0.41563786,0,0,0,,0,94,94,437,1,,,,
,,,,,,1cd8d785e6becf54e84752d3,66a626ef09d4e21e1a8894ec,67371501ff0930c85bbbb10f,2024-11-15_03h40.38.553,Tarea de género gramatical,2024.2.2,Win32,143.6781609,,,,,,,,,,,,,,,,,,,,,,360.139,361.25,a,1,[],[],[],[],[],[],[],0.456,1,361.25,361.75,,,,,,793,FEM,CON,150,trampa,,a,0.456,,,,361.75,361.75,-0.079218107,-0.41563786,0,0,0,,0,95,95,342,1,,,,
,,,,,,1cd8d785e6becf54e84752d3,66a626ef09d4e21e1a8894ec,67371501ff0930c85bbbb10f,2024-11-15_03h40.38.553,Tarea de género gramatical,2024.2.2,Win32,143.6781609,,,,,,,,,,,,,,,,,,,,,,361.751,362.814,a,0,[],[],[],[],[],[],[],0.406,0,362.814,363.314,,,,,,706,MAS,CON,150,techo,,l,0.406,,,,363.315,363.315,-0.079218107,-0.41563786,0,0,0,,0,96,96,255,1,,,,
,,,,,,1cd8d785e6becf54e84752d3,66a626ef09d4e21e1a8894ec,67371501ff0930c85bbbb10f,2024-11-15_03h40.38.553,Tarea de género gramatical,2024.2.2,Win32,143.6781609,,,,,,,,,,,,,,,,,,,,,,363.316,364.475,l,1,[],[],[],[],[],[],[],0.505,1,364.476,364.976,,,,,,796,MAS,CON,150,juicio,,l,0.505,,,,364.976,364.976,-0.079218107,-0.41563786,0,0,0,,0,97,97,345,1,,,,
,,,,,,1cd8d785e6becf54e84752d3,66a626ef09d4e21e1a8894ec,67371501ff0930c85bbbb10f,2024-11-15_03h40.38.553,Tarea de género gramatical,2024.2.2,Win32,143.6781609,,,,,,,,,,,,,,,,,,,,,,364.976,366.026,a,1,[],[],[],[],[],[],[],0.39,1,366.026,366.527,,,,,,697,FEM,CON,150,frase,,a,0.39,,,,366.527,366.527,-0.079218107,-0.41563786,0,0,0,,0,98,98,246,1,,,,
,,,,,,1cd8d785e6becf54e84752d3,66a626ef09d4e21e1a8894ec,67371501ff0930c85bbbb10f,2024-11-15_03h40.38.553,Tarea de género gramatical,2024.2.2,Win32,143.6781609,,,,,,,,,,,,,,,,,,,,,,366.527,367.604,l,1,[],[],[],[],[],[],[],0.419,1,367.604,368.104,,,,,,702,MAS,AGR,150,viejo,el,l,0.419,,,,368.104,368.104,-0.079218107,-0.41563786,0,0,0,,0,99,99,251,1,,,,
,,,,,,1cd8d785e6becf54e84752d3,66a626ef09d4e21e1a8894ec,67371501ff0930c85bbbb10f,2024-11-15_03h40.38.553,Tarea de género gramatical,2024.2.2,Win32,143.6781609,,,,,,,,,,,,,,,,,,,,,,368.104,369.55,l,1,[],[],[],[],[],[],[],0.785,1,369.55,370.051,,,,,,556,MAS,CON,150,test,,l,0.785,,,,370.051,370.051,-0.079218107,-0.41563786,0,0,0,,0,100,100,105,1,,,,
,,,,,,1cd8d785e6becf54e84752d3,66a626ef09d4e21e1a8894ec,67371501ff0930c85bbbb10f,2024-11-15_03h40.38.553,Tarea de género gramatical,2024.2.2,Win32,143.6781609,,,,,,,,,,,,,,,,,,,,,,370.051,371.142,a,1,[],[],[],[],[],[],[],0.436,1,371.143,371.642,,,,,,609,FEM,AGR,150,clase,la,a,0.436,,,,371.644,371.645,-0.079218107,-0.41563786,0,0,0,,0,101,101,158,1,,,,
,,,,,,1cd8d785e6becf54e84752d3,66a626ef09d4e21e1a8894ec,67371501ff0930c85bbbb10f,2024-11-15_03h40.38.553,Tarea de género gramatical,2024.2.2,Win32,143.6781609,,,,,,,,,,,,,,,,,,,,,,371.646,372.678,a,1,[],[],[],[],[],[],[],0.369,1,372.679,373.18,,,,,,543,FEM,AGR,150,lata,la,a,0.369,,,,373.18,373.18,-0.079218107,-0.41563786,0,0,0,,0,102,102,92,1,,,,
,,,,,,1cd8d785e6becf54e84752d3,66a626ef09d4e21e1a8894ec,67371501ff0930c85bbbb10f,2024-11-15_03h40.38.553,Tarea de género gramatical,2024.2.2,Win32,143.6781609,,,,,,,,,,,,,,,,,,,,,,373.18,374.361,l,1,[],[],[],[],[],[],[],0.52,1,374.361,374.861,,,,,,797,MAS,DIS,150,cuello,la,l,0.52,,,,374.862,374.862,-0.079218107,-0.41563786,0,0,0,,0,103,103,346,1,,,,
,,,,,,1cd8d785e6becf54e84752d3,66a626ef09d4e21e1a8894ec,67371501ff0930c85bbbb10f,2024-11-15_03h40.38.553,Tarea de género gramatical,2024.2.2,Win32,143.6781609,,,,,,,,,,,,,,,,,,,,,,374.862,375.953,a,1,[],[],[],[],[],[],[],0.433,1,375.953,376.452,,,,,,703,FEM,CON,150,aldea,,a,0.433,,,,376.452,376.452,-0.079218107,-0.41563786,0,0,0,,0,104,104,252,1,,,,
,,,,,,1cd8d785e6becf54e84752d3,66a626ef09d4e21e1a8894ec,67371501ff0930c85bbbb10f,2024-11-15_03h40.38.553,Tarea de género gramatical,2024.2.2,Win32,143.6781609,,,,,,,,,,,,,,,,,,,,,,376.454,377.655,l,1,[],[],[],[],[],[],[],0.543,1,377.655,378.156,,,,,,780,MAS,AGR,150,estado,el,l,0.543,,,,378.157,378.158,-0.079218107,-0.41563786,0,0,0,,0,105,105,329,1,,,,
,,,,,,1cd8d785e6becf54e84752d3,66a626ef09d4e21e1a8894ec,67371501ff0930c85bbbb10f,2024-11-15_03h40.38.553,Tarea de género gramatical,2024.2.2,Win32,143.6781609,,,,,,,,,,,,,,,,,,,,,,378.158,379.324,a,1,[],[],[],[],[],[],[],0.509,1,379.324,379.824,,,,,,536,FEM,DIS,150,cruz,el,a,0.509,,,,379.824,379.825,-0.079218107,-0.41563786,0,0,0,,0,106,106,85,1,,,,
,,,,,,1cd8d785e6becf54e84752d3,66a626ef09d4e21e1a8894ec,67371501ff0930c85bbbb10f,2024-11-15_03h40.38.553,Tarea de género gramatical,2024.2.2,Win32,143.6781609,,,,,,,,,,,,,,,,,,,,,,379.825,380.985,l,1,[],[],[],[],[],[],[],0.504,1,380.985,381.486,,,,,,611,MAS,DIS,150,chico,la,l,0.504,,,,381.486,381.486,-0.079218107,-0.41563786,0,0,0,,0,107,107,160,1,,,,
,,,,,,1cd8d785e6becf54e84752d3,66a626ef09d4e21e1a8894ec,67371501ff0930c85bbbb10f,2024-11-15_03h40.38.553,Tarea de género gramatical,2024.2.2,Win32,143.6781609,,,,,,,,,,,,,,,,,,,,,,381.487,382.417,a,1,[],[],[],[],[],[],[],0.273,1,382.417,382.918,,,,,,535,FEM,CON,150,gira,,a,0.273,,,,382.918,382.918,-0.079218107,-0.41563786,0,0,0,,0,108,108,84,1,,,,
,,,,,,1cd8d785e6becf54e84752d3,66a626ef09d4e21e1a8894ec,67371501ff0930c85bbbb10f,2024-11-15_03h40.38.553,Tarea de género gramatical,2024.2.2,Win32,143.6781609,,,,,,,,,,,,,,,,,,,,,,382.918,383.877,l,0,[],[],[],[],[],[],[],0.303,0,383.878,384.377,,,,,,649,FEM,CON,150,nariz,,a,0.303,,,,384.377,384.377,-0.079218107,-0.41563786,0,0,0,,0,109,109,198,1,,,,
,,,,,,1cd8d785e6becf54e84752d3,66a626ef09d4e21e1a8894ec,67371501ff0930c85bbbb10f,2024-11-15_03h40.38.553,Tarea de género gramatical,2024.2.2,Win32,143.6781609,,,,,,,,,,,,,,,,,,,,,,384.378,385.587,l,1,[],[],[],[],[],[],[],0.554,1,385.588,386.088,,,,,,761,MAS,DIS,150,camino,la,l,0.554,,,,386.088,386.088,-0.079218107,-0.41563786,0,0,0,,0,110,110,310,1,,,,
,,,,,,1cd8d785e6becf54e84752d3,66a626ef09d4e21e1a8894ec,67371501ff0930c85bbbb10f,2024-11-15_03h40.38.553,Tarea de género gramatical,2024.2.2,Win32,143.6781609,,,,,,,,,,,,,,,,,,,,,,386.088,387.04,a,1,[],[],[],[],[],[],[],0.292,1,387.04,387.54,,,,,,571,FEM,CON,150,pila,,a,0.292,,,,387.54,387.54,-0.079218107,-0.41563786,0,0,0,,0,111,111,120,1,,,,
,,,,,,1cd8d785e6becf54e84752d3,66a626ef09d4e21e1a8894ec,67371501ff0930c85bbbb10f,2024-11-15_03h40.38.553,Tarea de género gramatical,2024.2.2,Win32,143.6781609,,,,,,,,,,,,,,,,,,,,,,387.542,388.82,a,1,[],[],[],[],[],[],[],0.617,1,388.82,389.32,,,,,,523,FEM,CON,150,roca,,a,0.617,,,,389.32,389.32,-0.079218107,-0.41563786,0,0,0,,0,112,112,72,1,,,,
,,,,,,1cd8d785e6becf54e84752d3,66a626ef09d4e21e1a8894ec,67371501ff0930c85bbbb10f,2024-11-15_03h40.38.553,Tarea de género gramatical,2024.2.2,Win32,143.6781609,,,,,,,,,,,,,,,,,,,,,,389.321,390.633,l,1,[],[],[],[],[],[],[],0.653,1,390.633,391.134,,,,,,803,MAS,DIS,150,verano,la,l,0.653,,,,391.134,391.134,-0.079218107,-0.41563786,0,0,0,,0,113,113,352,1,,,,
,,,,,,1cd8d785e6becf54e84752d3,66a626ef09d4e21e1a8894ec,67371501ff0930c85bbbb10f,2024-11-15_03h40.38.553,Tarea de género gramatical,2024.2.2,Win32,143.6781609,,,,,,,,,,,,,,,,,,,,,,391.134,392.253,a,1,[],[],[],[],[],[],[],0.462,1,392.253,392.753,,,,,,631,FEM,CON,150,tarde,,a,0.462,,,,392.754,392.754,-0.079218107,-0.41563786,0,0,0,,0,114,114,180,1,,,,
,,,,,,1cd8d785e6becf54e84752d3,66a626ef09d4e21e1a8894ec,67371501ff0930c85bbbb10f,2024-11-15_03h40.38.553,Tarea de género gramatical,2024.2.2,Win32,143.6781609,,,,,,,,,,,,,,,,,,,,,,392.755,393.804,a,1,[],[],[],[],[],[],[],0.393,1,393.804,394.304,,,,,,637,FEM,CON,150,lista,,a,0.393,,,,394.304,394.304,-0.079218107,-0.41563786,0,0,0,,0,115,115,186,1,,,,
,,,,,,1cd8d785e6becf54e84752d3,66a626ef09d4e21e1a8894ec,67371501ff0930c85bbbb10f,2024-11-15_03h40.38.553,Tarea de género gramatical,2024.2.2,Win32,143.6781609,,,,,,,,,,,,,,,,,,,,,,394.304,395.416,l,1,[],[],[],[],[],[],[],0.454,1,395.416,395.917,,,,,,659,MAS,DIS,150,banco,la,l,0.454,,,,395.917,395.917,-0.079218107,-0.41563786,0,0,0,,0,116,116,208,1,,,,
,,,,,,1cd8d785e6becf54e84752d3,66a626ef09d4e21e1a8894ec,67371501ff0930c85bbbb10f,2024-11-15_03h40.38.553,Tarea de género gramatical,2024.2.2,Win32,143.6781609,,,,,,,,,,,,,,,,,,,,,,395.917,397.113,l,1,[],[],[],[],[],[],[],0.54,1,397.113,397.613,,,,,,785,MAS,DIS,150,montón,la,l,0.54,,,,397.613,397.613,-0.079218107,-0.41563786,0,0,0,,0,117,117,334,1,,,,
,,,,,,1cd8d785e6becf54e84752d3,66a626ef09d4e21e1a8894ec,67371501ff0930c85bbbb10f,2024-11-15_03h40.38.553,Tarea de género gramatical,2024.2.2,Win32,143.6781609,,,,,,,,,,,,,,,,,,,,,,397.613,398.684,l,1,[],[],[],[],[],[],[],0.413,1,398.684,399.183,,,,,,767,MAS,DIS,150,número,la,l,0.413,,,,399.183,399.183,-0.079218107,-0.41563786,0,0,0,,0,118,118,316,1,,,,
,,,,,,1cd8d785e6becf54e84752d3,66a626ef09d4e21e1a8894ec,67371501ff0930c85bbbb10f,2024-11-15_03h40.38.553,Tarea de género gramatical,2024.2.2,Win32,143.6781609,,,,,,,,,,,,,,,,,,,,,,399.185,400.205,l,0,[],[],[],[],[],[],[],0.366,0,400.207,400.7,,,,,,763,FEM,CON,150,ciudad,,a,0.366,,,,400.7,400.701,-0.079218107,-0.41563786,0,0,0,,0,119,119,312,1,,,,
,,,,,,1cd8d785e6becf54e84752d3,66a626ef09d4e21e1a8894ec,67371501ff0930c85bbbb10f,2024-11-15_03h40.38.553,Tarea de género gramatical,2024.2.2,Win32,143.6781609,,,,,,,,,,,,,,,,,,,,,,400.701,401.805,a,1,[],[],[],[],[],[],[],0.448,1,401.805,402.305,,,,,,747,FEM,AGR,150,manta,la,a,0.448,,,,402.305,402.305,-0.079218107,-0.41563786,0,0,0,,0,120,120,296,1,,,,
,,,,,,1cd8d785e6becf54e84752d3,66a626ef09d4e21e1a8894ec,67371501ff0930c85bbbb10f,2024-11-15_03h40.38.553,Tarea de género gramatical,2024.2.2,Win32,143.6781609,,,,,,,,,,,,,,,,,,,,,,402.305,403.32,a,1,[],[],[],[],[],[],[],0.358,1,403.32,403.821,,,,,,465,FEM,AGR,150,cama,la,a,0.358,,,,403.821,403.821,-0.079218107,-0.41563786,0,0,0,,0,121,121,14,1,,,,
,,,,,,1cd8d785e6becf54e84752d3,66a626ef09d4e21e1a8894ec,67371501ff0930c85bbbb10f,2024-11-15_03h40.38.553,Tarea de género gramatical,2024.2.2,Win32,143.6781609,,,,,,,,,,,,,,,,,,,,,,403.821,405.155,a,1,[],[],[],[],[],[],[],0.675,1,405.156,405.656,,,,,,769,FEM,CON,150,sangre,,a,0.675,,,,405.656,405.656,-0.079218107,-0.41563786,0,0,0,,0,122,122,318,1,,,,
,,,,,,1cd8d785e6becf54e84752d3,66a626ef09d4e21e1a8894ec,67371501ff0930c85bbbb10f,2024-11-15_03h40.38.553,Tarea de género gramatical,2024.2.2,Win32,143.6781609,,,,,,,,,,,,,,,,,,,,,,405.657,406.726,a,1,[],[],[],[],[],[],[],0.415,1,406.726,407.227,,,,,,625,FEM,CON,150,señal,,a,0.415,,,,407.227,407.228,-0.079218107,-0.41563786,0,0,0,,0,123,123,174,1,,,,
,,,,,,1cd8d785e6becf54e84752d3,66a626ef09d4e21e1a8894ec,67371501ff0930c85bbbb10f,2024-11-15_03h40.38.553,Tarea de género gramatical,2024.2.2,Win32,143.6781609,,,,,,,,,,,,,,,,,,,,,,407.228,408.346,l,1,[],[],[],[],[],[],[],0.46,1,408.346,408.846,,,,,,552,MAS,AGR,150,coro,el,l,0.46,,,,408.846,408.847,-0.079218107,-0.41563786,0,0,0,,0,124,124,101,1,,,,
,,,,,,1cd8d785e6becf54e84752d3,66a626ef09d4e21e1a8894ec,67371501ff0930c85bbbb10f,2024-11-15_03h40.38.553,Tarea de género gramatical,2024.2.2,Win32,143.6781609,,,,,,,,,,,,,,,,,,,,,,408.847,410.32,a,1,[],[],[],[],[],[],[],0.817,1,410.32,410.821,,,,,,585,FEM,AGR,150,raíz,la,a,0.817,,,,410.821,410.821,-0.079218107,-0.41563786,0,0,0,,0,125,125,134,1,,,,
,,,,,,1cd8d785e6becf54e84752d3,66a626ef09d4e21e1a8894ec,67371501ff0930c85bbbb10f,2024-11-15_03h40.38.553,Tarea de género gramatical,2024.2.2,Win32,143.6781609,,,,,,,,,,,,,,,,,,,,,,410.822,411.939,a,1,[],[],[],[],[],[],[],0.461,1,411.939,412.441,,,,,,740,FEM,DIS,150,cabra,el,a,0.461,,,,412.441,412.441,-0.079218107,-0.41563786,0,0,0,,0,126,126,289,1,,,,
,,,,,,1cd8d785e6becf54e84752d3,66a626ef09d4e21e1a8894ec,67371501ff0930c85bbbb10f,2024-11-15_03h40.38.553,Tarea de género gramatical,2024.2.2,Win32,143.6781609,,,,,,,,,,,,,,,,,,,,,,412.441,413.594,l,1,[],[],[],[],[],[],[],0.494,1,413.594,414.094,,,,,,683,MAS,DIS,150,golpe,la,l,0.494,,,,414.094,414.094,-0.079218107,-0.41563786,0,0,0,,0,127,127,232,1,,,,
,,,,,,1cd8d785e6becf54e84752d3,66a626ef09d4e21e1a8894ec,67371501ff0930c85bbbb10f,2024-11-15_03h40.38.553,Tarea de género gramatical,2024.2.2,Win32,143.6781609,,,,,,,,,,,,,,,,,,,,,,414.095,415.395,l,0,[],[],[],[],[],[],[],0.643,0,415.395,415.895,,,,,,518,FEM,DIS,150,pata,el,a,0.643,,,,415.895,415.896,-0.079218107,-0.41563786,0,0,0,,0,128,128,67,1,,,,
,,,,,,1cd8d785e6becf54e84752d3,66a626ef09d4e21e1a8894ec,67371501ff0930c85bbbb10f,2024-11-15_03h40.38.553,Tarea de género gramatical,2024.2.2,Win32,143.6781609,,,,,,,,,,,,,,,,,,,,,,415.897,417.535,a,1,[],[],[],[],[],[],[],0.984,1,417.536,418.036,,,,,,595,FEM,CON,150,bota,,a,0.984,,,,418.036,418.036,-0.079218107,-0.41563786,0,0,0,,0,129,129,144,1,,,,
,,,,,,1cd8d785e6becf54e84752d3,66a626ef09d4e21e1a8894ec,67371501ff0930c85bbbb10f,2024-11-15_03h40.38.553,Tarea de género gramatical,2024.2.2,Win32,143.6781609,,,,,,,,,,,,,,,,,,,,,,418.036,419.107,a,1,[],[],[],[],[],[],[],0.413,1,419.107,419.607,,,,,,662,FEM,DIS,150,cinta,el,a,0.413,,,,419.607,419.607,-0.079218107,-0.41563786,0,0,0,,0,130,130,211,1,,,,
,,,,,,1cd8d785e6becf54e84752d3,66a626ef09d4e21e1a8894ec,67371501ff0930c85bbbb10f,2024-11-15_03h40.38.553,Tarea de género gramatical,2024.2.2,Win32,143.6781609,,,,,,,,,,,,,,,,,,,,,,419.607,420.921,l,0,[],[],[],[],[],[],[],0.648,0,420.921,421.421,,,,,,812,FEM,DIS,150,fuente,el,a,0.648,,,,421.421,421.422,-0.079218107,-0.41563786,0,0,0,,0,131,131,361,1,,,,
,,,,,,1cd8d785e6becf54e84752d3,66a626ef09d4e21e1a8894ec,67371501ff0930c85bbbb10f,2024-11-15_03h40.38.553,Tarea de género gramatical,2024.2.2,Win32,143.6781609,,,,,,,,,,,,,,,,,,,,,,421.422,422.903,l,1,[],[],[],[],[],[],[],0.821,1,422.903,423.403,,,,,,642,MAS,AGR,150,grupo,el,l,0.821,,,,423.403,423.403,-0.079218107,-0.41563786,0,0,0,,0,132,132,191,1,,,,
,,,,,,1cd8d785e6becf54e84752d3,66a626ef09d4e21e1a8894ec,67371501ff0930c85bbbb10f,2024-11-15_03h40.38.553,Tarea de género gramatical,2024.2.2,Win32,143.6781609,,,,,,,,,,,,,,,,,,,,,,423.404,424.689,a,1,[],[],[],[],[],[],[],0.627,1,424.689,425.189,,,,,,495,FEM,AGR,150,isla,la,a,0.627,,,,425.189,425.189,-0.079218107,-0.41563786,0,0,0,,0,133,133,44,1,,,,
,,,,,,1cd8d785e6becf54e84752d3,66a626ef09d4e21e1a8894ec,67371501ff0930c85bbbb10f,2024-11-15_03h40.38.553,Tarea de género gramatical,2024.2.2,Win32,143.6781609,,,,,,,,,,,,,,,,,,,,,,425.19,426.447,l,1,[],[],[],[],[],[],[],0.599,1,426.447,426.948,,,,,,634,MAS,CON,150,cielo,,l,0.599,,,,426.948,426.948,-0.079218107,-0.41563786,0,0,0,,0,134,134,183,1,,,,
,,,,,,1cd8d785e6becf54e84752d3,66a626ef09d4e21e1a8894ec,67371501ff0930c85bbbb10f,2024-11-15_03h40.38.553,Tarea de género gramatical,2024.2.2,Win32,143.6781609,,,,,,,,,,,,,,,,,,,,,,426.949,428.338,a,0,[],[],[],[],[],[],[],0.732,0,428.339,428.839,,,,,,876,MAS,AGR,150,pánico,el,l,0.732,,,,428.839,428.839,-0.079218107,-0.41563786,0,0,0,,0,135,135,425,1,,,,
,,,,,,1cd8d785e6becf54e84752d3,66a626ef09d4e21e1a8894ec,67371501ff0930c85bbbb10f,2024-11-15_03h40.38.553,Tarea de género gramatical,2024.2.2,Win32,143.6781609,,,,,,,,,,,,,,,,,,,,,,428.84,430.042,a,0,[],[],[],[],[],[],[],0.547,0,430.042,430.542,,,,,,756,MAS,AGR,150,dinero,el,l,0.547,,,,430.542,430.542,-0.079218107,-0.41563786,0,0,0,,0,136,136,305,1,,,,
,,,,,,1cd8d785e6becf54e84752d3,66a626ef09d4e21e1a8894ec,67371501ff0930c85bbbb10f,2024-11-15_03h40.38.553,Tarea de género gramatical,2024.2.2,Win32,143.6781609,,,,,,,,,,,,,,,,,,,,,,430.542,431.772,l,1,[],[],[],[],[],[],[],0.572,1,431.772,432.273,,,,,,479,MAS,DIS,150,frío,la,l,0.572,,,,432.273,432.273,-0.079218107,-0.41563786,0,0,0,,0,137,137,28,1,,,,
,,,,,,1cd8d785e6becf54e84752d3,66a626ef09d4e21e1a8894ec,67371501ff0930c85bbbb10f,2024-11-15_03h40.38.553,Tarea de género gramatical,2024.2.2,Win32,143.6781609,,,,,,,,,,,,,,,,,,,,,,432.274,433.399,a,1,[],[],[],[],[],[],[],0.468,1,433.399,433.9,,,,,,655,FEM,CON,150,reina,,a,0.468,,,,433.9,433.9,-0.079218107,-0.41563786,0,0,0,,0,138,138,204,1,,,,
,,,,,,1cd8d785e6becf54e84752d3,66a626ef09d4e21e1a8894ec,67371501ff0930c85bbbb10f,2024-11-15_03h40.38.553,Tarea de género gramatical,2024.2.2,Win32,143.6781609,,,,,,,,,,,,,,,,,,,,,,433.9,435.567,a,1,[],[],[],[],[],[],[],1.008,1,435.567,436.068,,,,,,590,FEM,DIS,150,mula,el,a,1.008,,,,436.068,436.068,-0.079218107,-0.41563786,0,0,0,,0,139,139,139,1,,,,
,,,,,,1cd8d785e6becf54e84752d3,66a626ef09d4e21e1a8894ec,67371501ff0930c85bbbb10f,2024-11-15_03h40.38.553,Tarea de género gramatical,2024.2.2,Win32,143.6781609,,,,,,,,,,,,,,,,,,,,,,436.068,437.472,l,1,[],[],[],[],[],[],[],0.747,1,437.472,437.973,,,,,,515,MAS,DIS,150,rayo,la,l,0.747,,,,437.974,437.974,-0.079218107,-0.41563786,0,0,0,,0,140,140,64,1,,,,
,,,,,,1cd8d785e6becf54e84752d3,66a626ef09d4e21e1a8894ec,67371501ff0930c85bbbb10f,2024-11-15_03h40.38.553,Tarea de género gramatical,2024.2.2,Win32,143.6781609,,,,,,,,,,,,,,,,,,,,,,437.975,439.175,a,1,[],[],[],[],[],[],[],0.546,1,439.176,439.676,,,,,,806,FEM,DIS,150,piedra,el,a,0.546,,,,439.676,439.677,-0.079218107,-0.41563786,0,0,0,,0,141,141,355,1,,,,
,,,,,,1cd8d785e6becf54e84752d3,66a626ef09d4e21e1a8894ec,67371501ff0930c85bbbb10f,2024-11-15_03h40.38.553,Tarea de género gramatical,2024.2.2,Win32,143.6781609,,,,,,,,,,,,,,,,,,,,,,439.677,441.608,a,1,[],[],[],[],[],[],[],1.274,1,441.609,442.109,,,,,,836,FEM,DIS,150,sombra,el,a,1.274,,,,442.109,442.109,-0.079218107,-0.41563786,0,0,0,,0,142,142,385,1,,,,
,,,,,,1cd8d785e6becf54e84752d3,66a626ef09d4e21e1a8894ec,67371501ff0930c85bbbb10f,2024-11-15_03h40.38.553,Tarea de género gramatical,2024.2.2,Win32,143.6781609,,,,,,,,,,,,,,,,,,,,,,442.109,443.847,l,1,[],[],[],[],[],[],[],1.079,1,443.847,444.348,,,,,,510,MAS,AGR,150,tono,el,l,1.079,,,,444.348,444.348,-0.079218107,-0.41563786,0,0,0,,0,143,143,59,1,,,,
,,,,,,1cd8d785e6becf54e84752d3,66a626ef09d4e21e1a8894ec,67371501ff0930c85bbbb10f,2024-11-15_03h40.38.553,Tarea de género gramatical,2024.2.2,Win32,143.6781609,,,,,,,,,,,,,,,,,,,,,,444.348,445.466,a,0,[],[],[],[],[],[],[],0.459,0,445.467,445.967,,,,,,826,MAS,CON,150,efecto,,l,0.459,,,,445.967,445.967,-0.079218107,-0.41563786,0,0,0,,0,144,144,375,1,,,,
,,,,,,1cd8d785e6becf54e84752d3,66a626ef09d4e21e1a8894ec,67371501ff0930c85bbbb10f,2024-11-15_03h40.38.553,Tarea de género gramatical,2024.2.2,Win32,143.6781609,,,,,,,,,,,,,,,,,,,,,,445.967,447.128,a,1,[],[],[],[],[],[],[],0.5,1,447.128,447.628,,,,,,681,FEM,AGR,150,bruja,la,a,0.5,,,,447.629,447.629,-0.079218107,-0.41563786,0,0,0,,0,145,145,230,1,,,,
,,,,,,1cd8d785e6becf54e84752d3,66a626ef09d4e21e1a8894ec,67371501ff0930c85bbbb10f,2024-11-15_03h40.38.553,Tarea de género gramatical,2024.2.2,Win32,143.6781609,,,,,,,,,,,,,,,,,,,,,,447.629,449.491,a,1,[],[],[],[],[],[],[],1.198,1,449.491,449.991,,,,,,577,FEM,CON,150,cuna,,a,1.198,,,,449.992,449.993,-0.079218107,-0.41563786,0,0,0,,0,146,146,126,1,,,,
,,,,,,1cd8d785e6becf54e84752d3,66a626ef09d4e21e1a8894ec,67371501ff0930c85bbbb10f,2024-11-15_03h40.38.553,Tarea de género gramatical,2024.2.2,Win32,143.6781609,,,,,,,,,,,,,,,,,,,,,,449.993,451.146,l,1,[],[],[],[],[],[],[],0.494,1,451.146,451.646,,,,,,845,MAS,DIS,150,correo,la,l,0.494,,,,451.646,451.646,-0.079218107,-0.41563786,0,0,0,,0,147,147,394,1,,,,
,,,,,,1cd8d785e6becf54e84752d3,66a626ef09d4e21e1a8894ec,67371501ff0930c85bbbb10f,2024-11-15_03h40.38.553,Tarea de género gramatical,2024.2.2,Win32,143.6781609,,,,,,,,,,,,,,,,,,,,,,451.647,452.842,a,1,[],[],[],[],[],[],[],0.54,1,452.842,453.342,,,,,,685,FEM,CON,150,torre,,a,0.54,,,,453.342,453.342,-0.079218107,-0.41563786,0,0,0,,0,148,148,234,1,,,,
,,,,,,1cd8d785e6becf54e84752d3,66a626ef09d4e21e1a8894ec,67371501ff0930c85bbbb10f,2024-11-15_03h40.38.553,Tarea de género gramatical,2024.2.2,Win32,143.6781609,,,,,,,,,,,,,,,,,,,,,,453.343,454.419,a,1,[],[],[],[],[],[],[],0.416,1,454.42,454.92,,,,,,661,FEM,CON,150,salud,,a,0.416,,,,454.921,454.921,-0.079218107,-0.41563786,0,0,0,,0,149,149,210,1,,,,
,,,,,,1cd8d785e6becf54e84752d3,66a626ef09d4e21e1a8894ec,67371501ff0930c85bbbb10f,2024-11-15_03h40.38.553,Tarea de género gramatical,2024.2.2,Win32,143.6781609,,,,,,,,,,,,,,,,,,,,,,454.921,456.04,a,1,[],[],[],[],[],[],[],0.458,1,456.04,456.54,,,,,,818,FEM,DIS,150,gracia,el,a,0.458,,,,456.54,525.887,-0.079218107,-0.41563786,0,0,0,space,0,150,150,367,1,69.334,,,
,,,,,,1cd8d785e6becf54e84752d3,66a626ef09d4e21e1a8894ec,67371501ff0930c85bbbb10f,2024-11-15_03h40.38.553,Tarea de género gramatical,2024.2.2,Win32,143.6781609,,,,,,,,,,,,,,,,,,,,,,525.889,527.048,a,0,[],[],[],[],[],[],[],0.499,0,527.049,527.549,,,,,,538,MAS,CON,150,pavo,,l,0.499,,,,527.549,527.549,-0.079218107,-0.41563786,0,0,0,,0,151,151,87,1,,,,
,,,,,,1cd8d785e6becf54e84752d3,66a626ef09d4e21e1a8894ec,67371501ff0930c85bbbb10f,2024-11-15_03h40.38.553,Tarea de género gramatical,2024.2.2,Win32,143.6781609,,,,,,,,,,,,,,,,,,,,,,527.549,528.695,a,1,[],[],[],[],[],[],[],0.488,1,528.696,529.197,,,,,,453,FEM,AGR,150,cosa,la,a,0.488,,,,529.197,529.197,-0.079218107,-0.41563786,0,0,0,,0,152,152,2,1,,,,
,,,,,,1cd8d785e6becf54e84752d3,66a626ef09d4e21e1a8894ec,67371501ff0930c85bbbb10f,2024-11-15_03h40.38.553,Tarea de género gramatical,2024.2.2,Win32,143.6781609,,,,,,,,,,,,,,,,,,,,,,529.197,530.461,l,0,[],[],[],[],[],[],[],0.606,0,530.462,530.962,,,,,,632,FEM,DIS,150,prisa,el,a,0.606,,,,530.962,530.962,-0.079218107,-0.41563786,0,0,0,,0,153,153,181,1,,,,
,,,,,,1cd8d785e6becf54e84752d3,66a626ef09d4e21e1a8894ec,67371501ff0930c85bbbb10f,2024-11-15_03h40.38.553,Tarea de género gramatical,2024.2.2,Win32,143.6781609,,,,,,,,,,,,,,,,,,,,,,530.963,532.401,l,0,[],[],[],[],[],[],[],0.776,0,532.401,532.901,,,,,,776,FEM,DIS,150,música,el,a,0.776,,,,532.901,532.901,-0.079218107,-0.41563786,0,0,0,,0,154,154,325,1,,,,
,,,,,,1cd8d785e6becf54e84752d3,66a626ef09d4e21e1a8894ec,67371501ff0930c85bbbb10f,2024-11-15_03h40.38.553,Tarea de género gramatical,2024.2.2,Win32,143.6781609,,,,,,,,,,,,,,,,,,,,,,532.902,534.208,l,1,[],[],[],[],[],[],[],0.648,1,534.209,534.709,,,,,,720,MAS,AGR,150,queso,el,l,0.648,,,,534.709,534.71,-0.079218107,-0.41563786,0,0,0,,0,155,155,269,1,,,,
,,,,,,1cd8d785e6becf54e84752d3,66a626ef09d4e21e1a8894ec,67371501ff0930c85bbbb10f,2024-11-15_03h40.38.553,Tarea de género gramatical,2024.2.2,Win32,143.6781609,,,,,,,,,,,,,,,,,,,,,,534.711,536.015,l,1,[],[],[],[],[],[],[],0.649,1,536.015,536.516,,,,,,810,MAS,AGR,150,puente,el,l,0.649,,,,536.516,536.517,-0.079218107,-0.41563786,0,0,0,,0,156,156,359,1,,,,
,,,,,,1cd8d785e6becf54e84752d3,66a626ef09d4e21e1a8894ec,67371501ff0930c85bbbb10f,2024-11-15_03h40.38.553,Tarea de género gramatical,2024.2.2,Win32,143.6781609,,,,,,,,,,,,,,,,,,,,,,536.517,537.878,l,1,[],[],[],[],[],[],[],0.701,1,537.878,538.379,,,,,,887,MAS,DIS,150,hombro,la,l,0.701,,,,538.379,538.38,-0.079218107,-0.41563786,0,0,0,,0,157,157,436,1,,,,
,,,,,,1cd8d785e6becf54e84752d3,66a626ef09d4e21e1a8894ec,67371501ff0930c85bbbb10f,2024-11-15_03h40.38.553,Tarea de género gramatical,2024.2.2,Win32,143.6781609,,,,,,,,,,,,,,,,,,,,,,538.382,539.498,a,1,[],[],[],[],[],[],[],0.459,1,539.499,539.999,,,,,,872,FEM,DIS,150,rutina,el,a,0.459,,,,539.999,539.999,-0.079218107,-0.41563786,0,0,0,,0,158,158,421,1,,,,
,,,,,,1cd8d785e6becf54e84752d3,66a626ef09d4e21e1a8894ec,67371501ff0930c85bbbb10f,2024-11-15_03h40.38.553,Tarea de género gramatical,2024.2.2,Win32,143.6781609,,,,,,,,,,,,,,,,,,,,,,540,541.438,l,1,[],[],[],[],[],[],[],0.779,1,541.438,541.938,,,,,,696,MAS,AGR,150,humor,el,l,0.779,,,,541.939,541.939,-0.079218107,-0.41563786,0,0,0,,0,159,159,245,1,,,,
,,,,,,1cd8d785e6becf54e84752d3,66a626ef09d4e21e1a8894ec,67371501ff0930c85bbbb10f,2024-11-15_03h40.38.553,Tarea de género gramatical,2024.2.2,Win32,143.6781609,,,,,,,,,,,,,,,,,,,,,,541.94,543.058,l,1,[],[],[],[],[],[],[],0.458,1,543.058,543.557,,,,,,605,MAS,DIS,150,mundo,la,l,0.458,,,,543.557,543.557,-0.079218107,-0.41563786,0,0,0,,0,160,160,154,1,,,,
,,,,,,1cd8d785e6becf54e84752d3,66a626ef09d4e21e1a8894ec,67371501ff0930c85bbbb10f,2024-11-15_03h40.38.553,Tarea de género gramatical,2024.2.2,Win32,143.6781609,,,,,,,,,,,,,,,,,,,,,,543.559,544.969,l,1,[],[],[],[],[],[],[],0.75,1,544.969,545.469,,,,,,719,MAS,DIS,150,primo,la,l,0.75,,,,545.469,545.469,-0.079218107,-0.41563786,0,0,0,,0,161,161,268,1,,,,
,,,,,,1cd8d785e6becf54e84752d3,66a626ef09d4e21e1a8894ec,67371501ff0930c85bbbb10f,2024-11-15_03h40.38.553,Tarea de género gramatical,2024.2.2,Win32,143.6781609,,,,,,,,,,,,,,,,,,,,,,545.47,546.554,a,1,[],[],[],[],[],[],[],0.427,1,546.554,547.055,,,,,,897,FEM,AGR,150,lógica,la,a,0.427,,,,547.055,547.055,-0.079218107,-0.41563786,0,0,0,,0,162,162,446,1,,,,
,,,,,,1cd8d785e6becf54e84752d3,66a626ef09d4e21e1a8894ec,67371501ff0930c85bbbb10f,2024-11-15_03h40.38.553,Tarea de género gramatical,2024.2.2,Win32,143.6781609,,,,,,,,,,,,,,,,,,,,,,547.056,548.333,l,1,[],[],[],[],[],[],[],0.618,1,548.334,548.833,,,,,,593,MAS,DIS,150,faro,la,l,0.618,,,,548.833,548.834,-0.079218107,-0.41563786,0,0,0,,0,163,163,142,1,,,,
,,,,,,1cd8d785e6becf54e84752d3,66a626ef09d4e21e1a8894ec,67371501ff0930c85bbbb10f,2024-11-15_03h40.38.553,Tarea de género gramatical,2024.2.2,Win32,143.6781609,,,,,,,,,,,,,,,,,,,,,,548.834,549.987,a,1,[],[],[],[],[],[],[],0.494,1,549.987,550.482,,,,,,847,FEM,CON,150,cuerda,,a,0.494,,,,550.482,550.483,-0.079218107,-0.41563786,0,0,0,,0,164,164,396,1,,,,
,,,,,,1cd8d785e6becf54e84752d3,66a626ef09d4e21e1a8894ec,67371501ff0930c85bbbb10f,2024-11-15_03h40.38.553,Tarea de género gramatical,2024.2.2,Win32,143.6781609,,,,,,,,,,,,,,,,,,,,,,550.483,551.6,l,1,[],[],[],[],[],[],[],0.461,1,551.6,552.1,,,,,,503,MAS,DIS,150,vaso,la,l,0.461,,,,552.101,552.101,-0.079218107,-0.41563786,0,0,0,,0,165,165,52,1,,,,
,,,,,,1cd8d785e6becf54e84752d3,66a626ef09d4e21e1a8894ec,67371501ff0930c85bbbb10f,2024-11-15_03h40.38.553,Tarea de género gramatical,2024.2.2,Win32,143.6781609,,,,,,,,,,,,,,,,,,,,,,552.101,553.206,a,1,[],[],[],[],[],[],[],0.446,1,553.206,553.707,,,,,,871,FEM,CON,150,novela,,a,0.446,,,,553.707,553.707,-0.079218107,-0.41563786,0,0,0,,0,166,166,420,1,,,,
,,,,,,1cd8d785e6becf54e84752d3,66a626ef09d4e21e1a8894ec,67371501ff0930c85bbbb10f,2024-11-15_03h40.38.553,Tarea de género gramatical,2024.2.2,Win32,143.6781609,,,,,,,,,,,,,,,,,,,,,,553.707,554.791,a,1,[],[],[],[],[],[],[],0.426,1,554.791,555.292,,,,,,741,FEM,AGR,150,aguja,la,a,0.426,,,,555.292,555.292,-0.079218107,-0.41563786,0,0,0,,0,167,167,290,1,,,,
,,,,,,1cd8d785e6becf54e84752d3,66a626ef09d4e21e1a8894ec,67371501ff0930c85bbbb10f,2024-11-15_03h40.38.553,Tarea de género gramatical,2024.2.2,Win32,143.6781609,,,,,,,,,,,,,,,,,,,,,,555.292,556.391,a,1,[],[],[],[],[],[],[],0.443,1,556.391,556.891,,,,,,459,FEM,AGR,150,mamá,la,a,0.443,,,,556.891,556.892,-0.079218107,-0.41563786,0,0,0,,0,168,168,8,1,,,,
,,,,,,1cd8d785e6becf54e84752d3,66a626ef09d4e21e1a8894ec,67371501ff0930c85bbbb10f,2024-11-15_03h40.38.553,Tarea de género gramatical,2024.2.2,Win32,143.6781609,,,,,,,,,,,,,,,,,,,,,,556.892,558.101,a,1,[],[],[],[],[],[],[],0.551,1,558.101,558.6,,,,,,705,FEM,AGR,150,tribu,la,a,0.551,,,,558.6,558.6,-0.079218107,-0.41563786,0,0,0,,0,169,169,254,1,,,,
,,,,,,1cd8d785e6becf54e84752d3,66a626ef09d4e21e1a8894ec,67371501ff0930c85bbbb10f,2024-11-15_03h40.38.553,Tarea de género gramatical,2024.2.2,Win32,143.6781609,,,,,,,,,,,,,,,,,,,,,,558.601,559.768,a,1,[],[],[],[],[],[],[],0.511,1,559.768,560.269,,,,,,572,FEM,DIS,150,loca,el,a,0.511,,,,560.269,560.269,-0.079218107,-0.41563786,0,0,0,,0,170,170,121,1,,,,
,,,,,,1cd8d785e6becf54e84752d3,66a626ef09d4e21e1a8894ec,67371501ff0930c85bbbb10f,2024-11-15_03h40.38.553,Tarea de género gramatical,2024.2.2,Win32,143.6781609,,,,,,,,,,,,,,,,,,,,,,560.269,561.284,a,1,[],[],[],[],[],[],[],0.357,1,561.284,561.784,,,,,,805,FEM,CON,150,mirada,,a,0.357,,,,561.784,561.784,-0.079218107,-0.41563786,0,0,0,,0,171,171,354,1,,,,
,,,,,,1cd8d785e6becf54e84752d3,66a626ef09d4e21e1a8894ec,67371501ff0930c85bbbb10f,2024-11-15_03h40.38.553,Tarea de género gramatical,2024.2.2,Win32,143.6781609,,,,,,,,,,,,,,,,,,,,,,561.785,562.883,a,1,[],[],[],[],[],[],[],0.437,1,562.883,563.383,,,,,,781,FEM,CON,150,cárcel,,a,0.437,,,,563.384,563.384,-0.079218107,-0.41563786,0,0,0,,0,172,172,330,1,,,,
,,,,,,1cd8d785e6becf54e84752d3,66a626ef09d4e21e1a8894ec,67371501ff0930c85bbbb10f,2024-11-15_03h40.38.553,Tarea de género gramatical,2024.2.2,Win32,143.6781609,,,,,,,,,,,,,,,,,,,,,,563.384,564.482,a,0,[],[],[],[],[],[],[],0.441,0,564.482,564.982,,,,,,736,MAS,CON,150,reino,,l,0.441,,,,564.983,564.983,-0.079218107,-0.41563786,0,0,0,,0,173,173,285,1,,,,
,,,,,,1cd8d785e6becf54e84752d3,66a626ef09d4e21e1a8894ec,67371501ff0930c85bbbb10f,2024-11-15_03h40.38.553,Tarea de género gramatical,2024.2.2,Win32,143.6781609,,,,,,,,,,,,,,,,,,,,,,564.984,566.33,a,1,[],[],[],[],[],[],[],0.689,1,566.331,566.831,,,,,,674,FEM,DIS,150,arena,el,a,0.689,,,,566.831,566.831,-0.079218107,-0.41563786,0,0,0,,0,174,174,223,1,,,,
,,,,,,1cd8d785e6becf54e84752d3,66a626ef09d4e21e1a8894ec,67371501ff0930c85bbbb10f,2024-11-15_03h40.38.553,Tarea de género gramatical,2024.2.2,Win32,143.6781609,,,,,,,,,,,,,,,,,,,,,,566.832,568.68,l,1,[],[],[],[],[],[],[],1.186,1,568.68,569.18,,,,,,588,MAS,AGR,150,luto,el,l,1.186,,,,569.18,569.18,-0.079218107,-0.41563786,0,0,0,,0,175,175,137,1,,,,
,,,,,,1cd8d785e6becf54e84752d3,66a626ef09d4e21e1a8894ec,67371501ff0930c85bbbb10f,2024-11-15_03h40.38.553,Tarea de género gramatical,2024.2.2,Win32,143.6781609,,,,,,,,,,,,,,,,,,,,,,569.181,570.425,l,1,[],[],[],[],[],[],[],0.586,1,570.425,570.925,,,,,,468,MAS,AGR,150,tren,el,l,0.586,,,,570.925,570.925,-0.079218107,-0.41563786,0,0,0,,0,176,176,17,1,,,,
,,,,,,1cd8d785e6becf54e84752d3,66a626ef09d4e21e1a8894ec,67371501ff0930c85bbbb10f,2024-11-15_03h40.38.553,Tarea de género gramatical,2024.2.2,Win32,143.6781609,,,,,,,,,,,,,,,,,,,,,,570.926,573.018,l,1,[],[],[],[],[],[],[],1.431,1,573.019,573.518,,,,,,839,MAS,DIS,150,tamaño,la,l,1.431,,,,573.52,573.521,-0.079218107,-0.41563786,0,0,0,,0,177,177,388,1,,,,
,,,,,,1cd8d785e6becf54e84752d3,66a626ef09d4e21e1a8894ec,67371501ff0930c85bbbb10f,2024-11-15_03h40.38.553,Tarea de género gramatical,2024.2.2,Win32,143.6781609,,,,,,,,,,,,,,,,,,,,,,573.522,574.686,l,1,[],[],[],[],[],[],[],0.505,1,574.686,575.187,,,,,,671,MAS,DIS,150,brazo,la,l,0.505,,,,575.187,575.187,-0.079218107,-0.41563786,0,0,0,,0,178,178,220,1,,,,
,,,,,,1cd8d785e6becf54e84752d3,66a626ef09d4e21e1a8894ec,67371501ff0930c85bbbb10f,2024-11-15_03h40.38.553,Tarea de género gramatical,2024.2.2,Win32,143.6781609,,,,,,,,,,,,,,,,,,,,,,575.187,576.382,a,1,[],[],[],[],[],[],[],0.534,1,576.382,576.882,,,,,,819,FEM,AGR,150,camisa,la,a,0.534,,,,576.882,576.883,-0.079218107,-0.41563786,0,0,0,,0,179,179,368,1,,,,
,,,,,,1cd8d785e6becf54e84752d3,66a626ef09d4e21e1a8894ec,67371501ff0930c85bbbb10f,2024-11-15_03h40.38.553,Tarea de género gramatical,2024.2.2,Win32,143.6781609,,,,,,,,,,,,,,,,,,,,,,576.883,578.732,l,1,[],[],[],[],[],[],[],1.189,1,578.732,579.232,,,,,,882,MAS,AGR,150,océano,el,l,1.189,,,,579.232,579.232,-0.079218107,-0.41563786,0,0,0,,0,180,180,431,1,,,,
,,,,,,1cd8d785e6becf54e84752d3,66a626ef09d4e21e1a8894ec,67371501ff0930c85bbbb10f,2024-11-15_03h40.38.553,Tarea de género gramatical,2024.2.2,Win32,143.6781609,,,,,,,,,,,,,,,,,,,,,,579.233,580.345,a,1,[],[],[],[],[],[],[],0.457,1,580.345,580.845,,,,,,494,FEM,DIS,150,zona,el,a,0.457,,,,580.845,580.845,-0.079218107,-0.41563786,0,0,0,,0,181,181,43,1,,,,
,,,,,,1cd8d785e6becf54e84752d3,66a626ef09d4e21e1a8894ec,67371501ff0930c85bbbb10f,2024-11-15_03h40.38.553,Tarea de género gramatical,2024.2.2,Win32,143.6781609,,,,,,,,,,,,,,,,,,,,,,580.846,582.249,a,0,[],[],[],[],[],[],[],0.744,0,582.249,582.75,,,,,,582,MAS,AGR,150,velo,el,l,0.744,,,,582.75,582.751,-0.079218107,-0.41563786,0,0,0,,0,182,182,131,1,,,,
,,,,,,1cd8d785e6becf54e84752d3,66a626ef09d4e21e1a8894ec,67371501ff0930c85bbbb10f,2024-11-15_03h40.38.553,Tarea de género gramatical,2024.2.2,Win32,143.6781609,,,,,,,,,,,,,,,,,,,,,,582.751,583.96,a,1,[],[],[],[],[],[],[],0.552,1,583.96,584.46,,,,,,733,FEM,CON,150,pluma,,a,0.552,,,,584.46,584.46,-0.079218107,-0.41563786,0,0,0,,0,183,183,282,1,,,,
,,,,,,1cd8d785e6becf54e84752d3,66a626ef09d4e21e1a8894ec,67371501ff0930c85bbbb10f,2024-11-15_03h40.38.553,Tarea de género gramatical,2024.2.2,Win32,143.6781609,,,,,,,,,,,,,,,,,,,,,,584.46,585.885,l,0,[],[],[],[],[],[],[],0.767,0,585.886,586.386,,,,,,800,FEM,DIS,150,imagen,el,a,0.767,,,,586.386,586.386,-0.079218107,-0.41563786,0,0,0,,0,184,184,349,1,,,,
,,,,,,1cd8d785e6becf54e84752d3,66a626ef09d4e21e1a8894ec,67371501ff0930c85bbbb10f,2024-11-15_03h40.38.553,Tarea de género gramatical,2024.2.2,Win32,143.6781609,,,,,,,,,,,,,,,,,,,,,,586.386,588.054,l,1,[],[],[],[],[],[],[],1.01,1,588.054,588.554,,,,,,485,MAS,DIS,150,taxi,la,l,1.01,,,,588.554,588.554,-0.079218107,-0.41563786,0,0,0,,0,185,185,34,1,,,,
,,,,,,1cd8d785e6becf54e84752d3,66a626ef09d4e21e1a8894ec,67371501ff0930c85bbbb10f,2024-11-15_03h40.38.553,Tarea de género gramatical,2024.2.2,Win32,143.6781609,,,,,,,,,,,,,,,,,,,,,,588.555,590.383,l,1,[],[],[],[],[],[],[],1.167,1,590.383,590.883,,,,,,802,MAS,CON,150,estilo,,l,1.167,,,,590.884,590.884,-0.079218107,-0.41563786,0,0,0,,0,186,186,351,1,,,,
,,,,,,1cd8d785e6becf54e84752d3,66a626ef09d4e21e1a8894ec,67371501ff0930c85bbbb10f,2024-11-15_03h40.38.553,Tarea de género gramatical,2024.2.2,Win32,143.6781609,,,,,,,,,,,,,,,,,,,,,,590.885,592.391,l,1,[],[],[],[],[],[],[],0.85,1,592.391,592.892,,,,,,772,MAS,CON,150,minuto,,l,0.85,,,,592.892,592.892,-0.079218107,-0.41563786,0,0,0,,0,187,187,321,1,,,,
,,,,,,1cd8d785e6becf54e84752d3,66a626ef09d4e21e1a8894ec,67371501ff0930c85bbbb10f,2024-11-15_03h40.38.553,Tarea de género gramatical,2024.2.2,Win32,143.6781609,,,,,,,,,,,,,,,,,,,,,,592.892,594.873,a,1,[],[],[],[],[],[],[],1.322,1,594.873,595.374,,,,,,855,FEM,AGR,150,parada,la,a,1.322,,,,595.374,595.374,-0.079218107,-0.41563786,0,0,0,,0,188,188,404,1,,,,
,,,,,,1cd8d785e6becf54e84752d3,66a626ef09d4e21e1a8894ec,67371501ff0930c85bbbb10f,2024-11-15_03h40.38.553,Tarea de género gramatical,2024.2.2,Win32,143.6781609,,,,,,,,,,,,,,,,,,,,,,595.374,597.306,a,1,[],[],[],[],[],[],[],1.272,1,597.306,597.807,,,,,,711,FEM,AGR,150,cueva,la,a,1.272,,,,597.807,597.807,-0.079218107,-0.41563786,0,0,0,,0,189,189,260,1,,,,
,,,,,,1cd8d785e6becf54e84752d3,66a626ef09d4e21e1a8894ec,67371501ff0930c85bbbb10f,2024-11-15_03h40.38.553,Tarea de género gramatical,2024.2.2,Win32,143.6781609,,,,,,,,,,,,,,,,,,,,,,597.807,599.245,a,1,[],[],[],[],[],[],[],0.78,1,599.245,599.746,,,,,,753,FEM,AGR,150,maldad,la,a,0.78,,,,599.746,599.746,-0.079218107,-0.41563786,0,0,0,,0,190,190,302,1,,,,
,,,,,,1cd8d785e6becf54e84752d3,66a626ef09d4e21e1a8894ec,67371501ff0930c85bbbb10f,2024-11-15_03h40.38.553,Tarea de género gramatical,2024.2.2,Win32,143.6781609,,,,,,,,,,,,,,,,,,,,,,599.746,601.429,a,0,[],[],[],[],[],[],[],1.021,0,601.429,601.929,,,,,,502,MAS,CON,150,lago,,l,1.021,,,,601.929,601.93,-0.079218107,-0.41563786,0,0,0,,0,191,191,51,1,,,,
,,,,,,1cd8d785e6becf54e84752d3,66a626ef09d4e21e1a8894ec,67371501ff0930c85bbbb10f,2024-11-15_03h40.38.553,Tarea de género gramatical,2024.2.2,Win32,143.6781609,,,,,,,,,,,,,,,,,,,,,,601.93,603.73,l,0,[],[],[],[],[],[],[],1.142,0,603.73,604.229,,,,,,487,FEM,CON,150,sala,,a,1.142,,,,604.229,604.229,-0.079218107,-0.41563786,0,0,0,,0,192,192,36,1,,,,
,,,,,,1cd8d785e6becf54e84752d3,66a626ef09d4e21e1a8894ec,67371501ff0930c85bbbb10f,2024-11-15_03h40.38.553,Tarea de género gramatical,2024.2.2,Win32,143.6781609,,,,,,,,,,,,,,,,,,,,,,604.231,606.079,l,1,[],[],[],[],[],[],[],1.19,1,606.081,606.58,,,,,,527,MAS,DIS,150,pico,la,l,1.19,,,,606.58,606.58,-0.079218107,-0.41563786,0,0,0,,0,193,193,76,1,,,,
,,,,,,1cd8d785e6becf54e84752d3,66a626ef09d4e21e1a8894ec,67371501ff0930c85bbbb10f,2024-11-15_03h40.38.553,Tarea de género gramatical,2024.2.2,Win32,143.6781609,,,,,,,,,,,,,,,,,,,,,,606.58,608.387,a,1,[],[],[],[],[],[],[],1.151,1,608.387,608.887,,,,,,645,FEM,AGR,150,pared,la,a,1.151,,,,608.887,608.887,-0.079218107,-0.41563786,0,0,0,,0,194,194,194,1,,,,
,,,,,,1cd8d785e6becf54e84752d3,66a626ef09d4e21e1a8894ec,67371501ff0930c85bbbb10f,2024-11-15_03h40.38.553,Tarea de género gramatical,2024.2.2,Win32,143.6781609,,,,,,,,,,,,,,,,,,,,,,608.887,610.201,l,1,[],[],[],[],[],[],[],0.658,1,610.201,610.701,,,,,,864,MAS,AGR,150,sótano,el,l,0.658,,,,610.702,610.702,-0.079218107,-0.41563786,0,0,0,,0,195,195,413,1,,,,
,,,,,,1cd8d785e6becf54e84752d3,66a626ef09d4e21e1a8894ec,67371501ff0930c85bbbb10f,2024-11-15_03h40.38.553,Tarea de género gramatical,2024.2.2,Win32,143.6781609,,,,,,,,,,,,,,,,,,,,,,610.703,611.898,a,1,[],[],[],[],[],[],[],0.535,1,611.898,612.397,,,,,,567,FEM,AGR,150,raya,la,a,0.535,,,,612.397,612.397,-0.079218107,-0.41563786,0,0,0,,0,196,196,116,1,,,,
,,,,,,1cd8d785e6becf54e84752d3,66a626ef09d4e21e1a8894ec,67371501ff0930c85bbbb10f,2024-11-15_03h40.38.553,Tarea de género gramatical,2024.2.2,Win32,143.6781609,,,,,,,,,,,,,,,,,,,,,,612.398,613.635,l,1,[],[],[],[],[],[],[],0.577,1,613.635,614.135,,,,,,526,MAS,CON,150,lujo,,l,0.577,,,,614.135,614.135,-0.079218107,-0.41563786,0,0,0,,0,197,197,75,1,,,,
,,,,,,1cd8d785e6becf54e84752d3,66a626ef09d4e21e1a8894ec,67371501ff0930c85bbbb10f,2024-11-15_03h40.38.553,Tarea de género gramatical,2024.2.2,Win32,143.6781609,,,,,,,,,,,,,,,,,,,,,,614.136,615.324,a,1,[],[],[],[],[],[],[],0.529,1,615.324,615.825,,,,,,476,FEM,DIS,150,pena,el,a,0.529,,,,615.825,615.825,-0.079218107,-0.41563786,0,0,0,,0,198,198,25,1,,,,
,,,,,,1cd8d785e6becf54e84752d3,66a626ef09d4e21e1a8894ec,67371501ff0930c85bbbb10f,2024-11-15_03h40.38.553,Tarea de género gramatical,2024.2.2,Win32,143.6781609,,,,,,,,,,,,,,,,,,,,,,615.826,617.048,l,1,[],[],[],[],[],[],[],0.567,1,617.048,617.548,,,,,,881,MAS,DIS,150,veneno,la,l,0.567,,,,617.548,617.548,-0.079218107,-0.41563786,0,0,0,,0,199,199,430,1,,,,
,,,,,,1cd8d785e6becf54e84752d3,66a626ef09d4e21e1a8894ec,67371501ff0930c85bbbb10f,2024-11-15_03h40.38.553,Tarea de género gramatical,2024.2.2,Win32,143.6781609,,,,,,,,,,,,,,,,,,,,,,617.549,618.862,l,1,[],[],[],[],[],[],[],0.657,1,618.862,619.363,,,,,,454,MAS,CON,150,hijo,,l,0.657,,,,619.363,619.365,-0.079218107,-0.41563786,0,0,0,,0,200,200,3,1,,,,
,,,,,,1cd8d785e6becf54e84752d3,66a626ef09d4e21e1a8894ec,67371501ff0930c85bbbb10f,2024-11-15_03h40.38.553,Tarea de género gramatical,2024.2.2,Win32,143.6781609,,,,,,,,,,,,,,,,,,,,,,619.365,620.641,a,1,[],[],[],[],[],[],[],0.619,1,620.642,621.136,,,,,,889,FEM,CON,150,toalla,,a,0.619,,,,621.136,621.136,-0.079218107,-0.41563786,0,0,0,,0,201,201,438,1,,,,
,,,,,,1cd8d785e6becf54e84752d3,66a626ef09d4e21e1a8894ec,67371501ff0930c85bbbb10f,2024-11-15_03h40.38.553,Tarea de género gramatical,2024.2.2,Win32,143.6781609,,,,,,,,,,,,,,,,,,,,,,621.136,622.401,l,1,[],[],[],[],[],[],[],0.604,1,622.401,622.901,,,,,,564,MAS,AGR,150,menú,el,l,0.604,,,,622.901,622.901,-0.079218107,-0.41563786,0,0,0,,0,202,202,113,1,,,,
,,,,,,1cd8d785e6becf54e84752d3,66a626ef09d4e21e1a8894ec,67371501ff0930c85bbbb10f,2024-11-15_03h40.38.553,Tarea de género gramatical,2024.2.2,Win32,143.6781609,,,,,,,,,,,,,,,,,,,,,,622.902,624.097,l,1,[],[],[],[],[],[],[],0.538,1,624.097,624.597,,,,,,846,MAS,AGR,150,tesoro,el,l,0.538,,,,624.597,624.597,-0.079218107,-0.41563786,0,0,0,,0,203,203,395,1,,,,
,,,,,,1cd8d785e6becf54e84752d3,66a626ef09d4e21e1a8894ec,67371501ff0930c85bbbb10f,2024-11-15_03h40.38.553,Tarea de género gramatical,2024.2.2,Win32,143.6781609,,,,,,,,,,,,,,,,,,,,,,624.598,625.946,l,1,[],[],[],[],[],[],[],0.687,1,625.946,626.446,,,,,,779,MAS,DIS,150,futuro,la,l,0.687,,,,626.447,626.448,-0.079218107,-0.41563786,0,0,0,,0,204,204,328,1,,,,
,,,,,,1cd8d785e6becf54e84752d3,66a626ef09d4e21e1a8894ec,67371501ff0930c85bbbb10f,2024-11-15_03h40.38.553,Tarea de género gramatical,2024.2.2,Win32,143.6781609,,,,,,,,,,,,,,,,,,,,,,626.448,627.649,a,1,[],[],[],[],[],[],[],0.54,1,627.649,628.15,,,,,,601,FEM,CON,150,noche,,a,0.54,,,,628.15,628.15,-0.079218107,-0.41563786,0,0,0,,0,205,205,150,1,,,,
,,,,,,1cd8d785e6becf54e84752d3,66a626ef09d4e21e1a8894ec,67371501ff0930c85bbbb10f,2024-11-15_03h40.38.553,Tarea de género gramatical,2024.2.2,Win32,143.6781609,,,,,,,,,,,,,,,,,,,,,,628.151,629.345,l,1,[],[],[],[],[],[],[],0.538,1,629.345,629.846,,,,,,491,MAS,DIS,150,bote,la,l,0.538,,,,629.846,629.846,-0.079218107,-0.41563786,0,0,0,,0,206,206,40,1,,,,
,,,,,,1cd8d785e6becf54e84752d3,66a626ef09d4e21e1a8894ec,67371501ff0930c85bbbb10f,2024-11-15_03h40.38.553,Tarea de género gramatical,2024.2.2,Win32,143.6781609,,,,,,,,,,,,,,,,,,,,,,629.847,631.027,l,1,[],[],[],[],[],[],[],0.522,1,631.028,631.522,,,,,,623,MAS,DIS,150,libro,la,l,0.522,,,,631.522,631.522,-0.079218107,-0.41563786,0,0,0,,0,207,207,172,1,,,,
,,,,,,1cd8d785e6becf54e84752d3,66a626ef09d4e21e1a8894ec,67371501ff0930c85bbbb10f,2024-11-15_03h40.38.553,Tarea de género gramatical,2024.2.2,Win32,143.6781609,,,,,,,,,,,,,,,,,,,,,,631.523,632.703,a,0,[],[],[],[],[],[],[],0.521,0,632.703,633.203,,,,,,622,MAS,CON,150,poder,,l,0.521,,,,633.203,633.203,-0.079218107,-0.41563786,0,0,0,,0,208,208,171,1,,,,
,,,,,,1cd8d785e6becf54e84752d3,66a626ef09d4e21e1a8894ec,67371501ff0930c85bbbb10f,2024-11-15_03h40.38.553,Tarea de género gramatical,2024.2.2,Win32,143.6781609,,,,,,,,,,,,,,,,,,,,,,633.204,634.357,l,1,[],[],[],[],[],[],[],0.495,1,634.357,634.858,,,,,,700,MAS,CON,150,cerdo,,l,0.495,,,,634.858,634.859,-0.079218107,-0.41563786,0,0,0,,0,209,209,249,1,,,,
,,,,,,1cd8d785e6becf54e84752d3,66a626ef09d4e21e1a8894ec,67371501ff0930c85bbbb10f,2024-11-15_03h40.38.553,Tarea de género gramatical,2024.2.2,Win32,143.6781609,,,,,,,,,,,,,,,,,,,,,,634.859,635.949,a,1,[],[],[],[],[],[],[],0.433,1,635.949,636.449,,,,,,596,FEM,DIS,150,lana,el,a,0.433,,,,636.449,636.449,-0.079218107,-0.41563786,0,0,0,,0,210,210,145,1,,,,
,,,,,,1cd8d785e6becf54e84752d3,66a626ef09d4e21e1a8894ec,67371501ff0930c85bbbb10f,2024-11-15_03h40.38.553,Tarea de género gramatical,2024.2.2,Win32,143.6781609,,,,,,,,,,,,,,,,,,,,,,636.45,637.714,l,0,[],[],[],[],[],[],[],0.605,0,637.716,638.215,,,,,,561,FEM,AGR,150,goma,la,a,0.605,,,,638.215,638.215,-0.079218107,-0.41563786,0,0,0,,0,211,211,110,1,,,,
,,,,,,1cd8d785e6becf54e84752d3,66a626ef09d4e21e1a8894ec,67371501ff0930c85bbbb10f,2024-11-15_03h40.38.553,Tarea de género gramatical,2024.2.2,Win32,143.6781609,,,,,,,,,,,,,,,,,,,,,,638.215,640.863,,0,[],[],[],[],[],[],[],0.605,-1,640.865,641.364,,,,,,660,MAS,AGR,150,baile,el,l,,,,,641.364,641.364,-0.079218107,-0.41563786,0,0,0,,0,212,212,209,1,,,,
,,,,,,1cd8d785e6becf54e84752d3,66a626ef09d4e21e1a8894ec,67371501ff0930c85bbbb10f,2024-11-15_03h40.38.553,Tarea de género gramatical,2024.2.2,Win32,143.6781609,,,,,,,,,,,,,,,,,,,,,,641.366,642.824,l,1,[],[],[],[],[],[],[],0.801,1,642.824,643.324,,,,,,576,MAS,AGR,150,lazo,el,l,0.801,,,,643.325,643.325,-0.079218107,-0.41563786,0,0,0,,0,213,213,125,1,,,,
,,,,,,1cd8d785e6becf54e84752d3,66a626ef09d4e21e1a8894ec,67371501ff0930c85bbbb10f,2024-11-15_03h40.38.553,Tarea de género gramatical,2024.2.2,Win32,143.6781609,,,,,,,,,,,,,,,,,,,,,,643.326,644.576,l,1,[],[],[],[],[],[],[],0.591,1,644.576,645.076,,,,,,568,MAS,CON,150,baúl,,l,0.591,,,,645.076,645.076,-0.079218107,-0.41563786,0,0,0,,0,214,214,117,1,,,,
,,,,,,1cd8d785e6becf54e84752d3,66a626ef09d4e21e1a8894ec,67371501ff0930c85bbbb10f,2024-11-15_03h40.38.553,Tarea de género gramatical,2024.2.2,Win32,143.6781609,,,,,,,,,,,,,,,,,,,,,,645.076,646.237,a,1,[],[],[],[],[],[],[],0.497,1,646.237,646.737,,,,,,627,FEM,AGR,150,broma,la,a,0.497,,,,646.737,646.738,-0.079218107,-0.41563786,0,0,0,,0,215,215,176,1,,,,
,,,,,,1cd8d785e6becf54e84752d3,66a626ef09d4e21e1a8894ec,67371501ff0930c85bbbb10f,2024-11-15_03h40.38.553,Tarea de género gramatical,2024.2.2,Win32,143.6781609,,,,,,,,,,,,,,,,,,,,,,646.738,647.794,a,1,[],[],[],[],[],[],[],0.397,1,647.794,648.294,,,,,,663,FEM,AGR,150,magia,la,a,0.397,,,,648.294,648.294,-0.079218107,-0.41563786,0,0,0,,0,216,216,212,1,,,,
,,,,,,1cd8d785e6becf54e84752d3,66a626ef09d4e21e1a8894ec,67371501ff0930c85bbbb10f,2024-11-15_03h40.38.553,Tarea de género gramatical,2024.2.2,Win32,143.6781609,,,,,,,,,,,,,,,,,,,,,,648.295,649.865,a,1,[],[],[],[],[],[],[],0.914,1,649.865,650.366,,,,,,548,FEM,DIS,150,fuga,el,a,0.914,,,,650.366,650.366,-0.079218107,-0.41563786,0,0,0,,0,217,217,97,1,,,,
,,,,,,1cd8d785e6becf54e84752d3,66a626ef09d4e21e1a8894ec,67371501ff0930c85bbbb10f,2024-11-15_03h40.38.553,Tarea de género gramatical,2024.2.2,Win32,143.6781609,,,,,,,,,,,,,,,,,,,,,,650.366,651.52,a,1,[],[],[],[],[],[],[],0.493,1,651.52,652.021,,,,,,511,FEM,CON,150,ruta,,a,0.493,,,,652.021,652.022,-0.079218107,-0.41563786,0,0,0,,0,218,218,60,1,,,,
,,,,,,1cd8d785e6becf54e84752d3,66a626ef09d4e21e1a8894ec,67371501ff0930c85bbbb10f,2024-11-15_03h40.38.553,Tarea de género gramatical,2024.2.2,Win32,143.6781609,,,,,,,,,,,,,,,,,,,,,,652.023,653.106,a,1,[],[],[],[],[],[],[],0.428,1,653.106,653.606,,,,,,589,FEM,CON,150,pipa,,a,0.428,,,,653.606,653.606,-0.079218107,-0.41563786,0,0,0,,0,219,219,138,1,,,,
,,,,,,1cd8d785e6becf54e84752d3,66a626ef09d4e21e1a8894ec,67371501ff0930c85bbbb10f,2024-11-15_03h40.38.553,Tarea de género gramatical,2024.2.2,Win32,143.6781609,,,,,,,,,,,,,,,,,,,,,,653.606,655.1,a,1,[],[],[],[],[],[],[],0.837,1,655.1,655.601,,,,,,884,FEM,DIS,150,corona,el,a,0.837,,,,655.601,655.601,-0.079218107,-0.41563786,0,0,0,,0,220,220,433,1,,,,
,,,,,,1cd8d785e6becf54e84752d3,66a626ef09d4e21e1a8894ec,67371501ff0930c85bbbb10f,2024-11-15_03h40.38.553,Tarea de género gramatical,2024.2.2,Win32,143.6781609,,,,,,,,,,,,,,,,,,,,,,655.601,656.886,l,1,[],[],[],[],[],[],[],0.628,1,656.887,657.387,,,,,,766,MAS,CON,150,cuerpo,,l,0.628,,,,657.387,657.387,-0.079218107,-0.41563786,0,0,0,,0,221,221,315,1,,,,
,,,,,,1cd8d785e6becf54e84752d3,66a626ef09d4e21e1a8894ec,67371501ff0930c85bbbb10f,2024-11-15_03h40.38.553,Tarea de género gramatical,2024.2.2,Win32,143.6781609,,,,,,,,,,,,,,,,,,,,,,657.388,658.479,a,1,[],[],[],[],[],[],[],0.431,1,658.479,658.988,,,,,,565,FEM,CON,150,seda,,a,0.431,,,,658.988,658.99,-0.079218107,-0.41563786,0,0,0,,0,222,222,114,1,,,,
,,,,,,1cd8d785e6becf54e84752d3,66a626ef09d4e21e1a8894ec,67371501ff0930c85bbbb10f,2024-11-15_03h40.38.553,Tarea de género gramatical,2024.2.2,Win32,143.6781609,,,,,,,,,,,,,,,,,,,,,,658.99,660.084,a,1,[],[],[],[],[],[],[],0.434,1,660.084,660.585,,,,,,603,FEM,AGR,150,mujer,la,a,0.434,,,,660.585,660.585,-0.079218107,-0.41563786,0,0,0,,0,223,223,152,1,,,,
,,,,,,1cd8d785e6becf54e84752d3,66a626ef09d4e21e1a8894ec,67371501ff0930c85bbbb10f,2024-11-15_03h40.38.553,Tarea de género gramatical,2024.2.2,Win32,143.6781609,,,,,,,,,,,,,,,,,,,,,,660.585,661.899,l,1,[],[],[],[],[],[],[],0.654,1,661.899,662.399,,,,,,880,MAS,CON,150,título,,l,0.654,,,,662.399,662.399,-0.079218107,-0.41563786,0,0,0,,0,224,224,429,1,,,,
,,,,,,1cd8d785e6becf54e84752d3,66a626ef09d4e21e1a8894ec,67371501ff0930c85bbbb10f,2024-11-15_03h40.38.553,Tarea de género gramatical,2024.2.2,Win32,143.6781609,,,,,,,,,,,,,,,,,,,,,,662.4,663.866,a,0,[],[],[],[],[],[],[],0.809,0,663.867,664.366,,,,,,828,MAS,AGR,150,pastel,el,l,0.809,,,,664.366,664.366,-0.079218107,-0.41563786,0,0,0,,0,225,225,377,1,,,,
,,,,,,1cd8d785e6becf54e84752d3,66a626ef09d4e21e1a8894ec,67371501ff0930c85bbbb10f,2024-11-15_03h40.38.553,Tarea de género gramatical,2024.2.2,Win32,143.6781609,,,,,,,,,,,,,,,,,,,,,,664.367,665.867,l,1,[],[],[],[],[],[],[],0.842,1,665.868,666.368,,,,,,701,MAS,DIS,150,dueño,la,l,0.842,,,,666.368,666.368,-0.079218107,-0.41563786,0,0,0,,0,226,226,250,1,,,,
,,,,,,1cd8d785e6becf54e84752d3,66a626ef09d4e21e1a8894ec,67371501ff0930c85bbbb10f,2024-11-15_03h40.38.553,Tarea de género gramatical,2024.2.2,Win32,143.6781609,,,,,,,,,,,,,,,,,,,,,,666.369,667.953,l,1,[],[],[],[],[],[],[],0.927,1,667.953,668.454,,,,,,840,MAS,AGR,150,rostro,el,l,0.927,,,,668.454,668.455,-0.079218107,-0.41563786,0,0,0,,0,227,227,389,1,,,,
,,,,,,1cd8d785e6becf54e84752d3,66a626ef09d4e21e1a8894ec,67371501ff0930c85bbbb10f,2024-11-15_03h40.38.553,Tarea de género gramatical,2024.2.2,Win32,143.6781609,,,,,,,,,,,,,,,,,,,,,,668.455,669.496,l,1,[],[],[],[],[],[],[],0.385,1,669.497,669.997,,,,,,496,MAS,CON,150,odio,,l,0.385,,,,669.997,669.997,-0.079218107,-0.41563786,0,0,0,,0,228,228,45,1,,,,
,,,,,,1cd8d785e6becf54e84752d3,66a626ef09d4e21e1a8894ec,67371501ff0930c85bbbb10f,2024-11-15_03h40.38.553,Tarea de género gramatical,2024.2.2,Win32,143.6781609,,,,,,,,,,,,,,,,,,,,,,669.998,671.019,l,1,[],[],[],[],[],[],[],0.362,1,671.019,671.519,,,,,,480,MAS,AGR,150,cine,el,l,0.362,,,,671.519,671.519,-0.079218107,-0.41563786,0,0,0,,0,229,229,29,1,,,,
,,,,,,1cd8d785e6becf54e84752d3,66a626ef09d4e21e1a8894ec,67371501ff0930c85bbbb10f,2024-11-15_03h40.38.553,Tarea de género gramatical,2024.2.2,Win32,143.6781609,,,,,,,,,,,,,,,,,,,,,,671.519,672.833,a,1,[],[],[],[],[],[],[],0.652,1,672.833,673.333,,,,,,722,FEM,DIS,150,oreja,el,a,0.652,,,,673.334,673.334,-0.079218107,-0.41563786,0,0,0,,0,230,230,271,1,,,,
,,,,,,1cd8d785e6becf54e84752d3,66a626ef09d4e21e1a8894ec,67371501ff0930c85bbbb10f,2024-11-15_03h40.38.553,Tarea de género gramatical,2024.2.2,Win32,143.6781609,,,,,,,,,,,,,,,,,,,,,,673.336,674.495,l,1,[],[],[],[],[],[],[],0.502,1,674.495,674.995,,,,,,624,MAS,AGR,150,perro,el,l,0.502,,,,674.996,674.997,-0.079218107,-0.41563786,0,0,0,,0,231,231,173,1,,,,
,,,,,,1cd8d785e6becf54e84752d3,66a626ef09d4e21e1a8894ec,67371501ff0930c85bbbb10f,2024-11-15_03h40.38.553,Tarea de género gramatical,2024.2.2,Win32,143.6781609,,,,,,,,,,,,,,,,,,,,,,674.997,676.364,a,1,[],[],[],[],[],[],[],0.709,1,676.364,676.865,,,,,,729,FEM,AGR,150,selva,la,a,0.709,,,,676.865,676.865,-0.079218107,-0.41563786,0,0,0,,0,232,232,278,1,,,,
,,,,,,1cd8d785e6becf54e84752d3,66a626ef09d4e21e1a8894ec,67371501ff0930c85bbbb10f,2024-11-15_03h40.38.553,Tarea de género gramatical,2024.2.2,Win32,143.6781609,,,,,,,,,,,,,,,,,,,,,,676.866,678.505,l,1,[],[],[],[],[],[],[],0.98,1,678.505,679.006,,,,,,682,MAS,CON,150,calor,,l,0.98,,,,679.006,679.006,-0.079218107,-0.41563786,0,0,0,,0,233,233,231,1,,,,
,,,,,,1cd8d785e6becf54e84752d3,66a626ef09d4e21e1a8894ec,67371501ff0930c85bbbb10f,2024-11-15_03h40.38.553,Tarea de género gramatical,2024.2.2,Win32,143.6781609,,,,,,,,,,,,,,,,,,,,,,679.007,680.612,a,1,[],[],[],[],[],[],[],0.95,1,680.612,681.112,,,,,,602,FEM,DIS,150,gente,el,a,0.95,,,,681.112,681.112,-0.079218107,-0.41563786,0,0,0,,0,234,234,151,1,,,,
,,,,,,1cd8d785e6becf54e84752d3,66a626ef09d4e21e1a8894ec,67371501ff0930c85bbbb10f,2024-11-15_03h40.38.553,Tarea de género gramatical,2024.2.2,Win32,143.6781609,,,,,,,,,,,,,,,,,,,,,,681.113,682.516,l,1,[],[],[],[],[],[],[],0.745,1,682.517,683.017,,,,,,648,MAS,AGR,150,hotel,el,l,0.745,,,,683.017,683.017,-0.079218107,-0.41563786,0,0,0,,0,235,235,197,1,,,,
,,,,,,1cd8d785e6becf54e84752d3,66a626ef09d4e21e1a8894ec,67371501ff0930c85bbbb10f,2024-11-15_03h40.38.553,Tarea de género gramatical,2024.2.2,Win32,143.6781609,,,,,,,,,,,,,,,,,,,,,,683.018,684.171,l,1,[],[],[],[],[],[],[],0.493,1,684.171,684.672,,,,,,718,MAS,CON,150,truco,,l,0.493,,,,684.672,684.672,-0.079218107,-0.41563786,0,0,0,,0,236,236,267,1,,,,
,,,,,,1cd8d785e6becf54e84752d3,66a626ef09d4e21e1a8894ec,67371501ff0930c85bbbb10f,2024-11-15_03h40.38.553,Tarea de género gramatical,2024.2.2,Win32,143.6781609,,,,,,,,,,,,,,,,,,,,,,684.672,685.895,l,1,[],[],[],[],[],[],[],0.567,1,685.895,686.395,,,,,,558,MAS,AGR,150,hilo,el,l,0.567,,,,686.395,686.395,-0.079218107,-0.41563786,0,0,0,,0,237,237,107,1,,,,
,,,,,,1cd8d785e6becf54e84752d3,66a626ef09d4e21e1a8894ec,67371501ff0930c85bbbb10f,2024-11-15_03h40.38.553,Tarea de género gramatical,2024.2.2,Win32,143.6781609,,,,,,,,,,,,,,,,,,,,,,686.396,688.064,a,1,[],[],[],[],[],[],[],1.008,1,688.064,688.564,,,,,,799,FEM,CON,150,prensa,,a,1.008,,,,688.564,688.564,-0.079218107,-0.41563786,0,0,0,,0,238,238,348,1,,,,
,,,,,,1cd8d785e6becf54e84752d3,66a626ef09d4e21e1a8894ec,67371501ff0930c85bbbb10f,2024-11-15_03h40.38.553,Tarea de género gramatical,2024.2.2,Win32,143.6781609,,,,,,,,,,,,,,,,,,,,,,688.565,689.85,a,1,[],[],[],[],[],[],[],0.627,1,689.85,690.35,,,,,,679,FEM,CON,150,celda,,a,0.627,,,,690.35,690.351,-0.079218107,-0.41563786,0,0,0,,0,239,239,228,1,,,,
,,,,,,1cd8d785e6becf54e84752d3,66a626ef09d4e21e1a8894ec,67371501ff0930c85bbbb10f,2024-11-15_03h40.38.553,Tarea de género gramatical,2024.2.2,Win32,143.6781609,,,,,,,,,,,,,,,,,,,,,,690.351,691.678,a,1,[],[],[],[],[],[],[],0.669,1,691.678,692.179,,,,,,501,FEM,AGR,150,bala,la,a,0.669,,,,692.179,692.181,-0.079218107,-0.41563786,0,0,0,,0,240,240,50,1,,,,
,,,,,,1cd8d785e6becf54e84752d3,66a626ef09d4e21e1a8894ec,67371501ff0930c85bbbb10f,2024-11-15_03h40.38.553,Tarea de género gramatical,2024.2.2,Win32,143.6781609,,,,,,,,,,,,,,,,,,,,,,692.181,694.556,l,1,[],[],[],[],[],[],[],1.722,1,694.556,695.057,,,,,,730,MAS,CON,150,salón,,l,1.722,,,,695.057,695.057,-0.079218107,-0.41563786,0,0,0,,0,241,241,279,1,,,,
,,,,,,1cd8d785e6becf54e84752d3,66a626ef09d4e21e1a8894ec,67371501ff0930c85bbbb10f,2024-11-15_03h40.38.553,Tarea de género gramatical,2024.2.2,Win32,143.6781609,,,,,,,,,,,,,,,,,,,,,,695.057,696.433,l,1,[],[],[],[],[],[],[],0.719,1,696.433,696.934,,,,,,832,MAS,CON,150,teatro,,l,0.719,,,,696.934,696.934,-0.079218107,-0.41563786,0,0,0,,0,242,242,381,1,,,,
,,,,,,1cd8d785e6becf54e84752d3,66a626ef09d4e21e1a8894ec,67371501ff0930c85bbbb10f,2024-11-15_03h40.38.553,Tarea de género gramatical,2024.2.2,Win32,143.6781609,,,,,,,,,,,,,,,,,,,,,,696.934,698.56,l,1,[],[],[],[],[],[],[],0.97,1,698.56,699.06,,,,,,707,MAS,DIS,150,pecho,la,l,0.97,,,,699.06,699.06,-0.079218107,-0.41563786,0,0,0,,0,243,243,256,1,,,,
,,,,,,1cd8d785e6becf54e84752d3,66a626ef09d4e21e1a8894ec,67371501ff0930c85bbbb10f,2024-11-15_03h40.38.553,Tarea de género gramatical,2024.2.2,Win32,143.6781609,,,,,,,,,,,,,,,,,,,,,,699.061,700.25,l,1,[],[],[],[],[],[],[],0.531,1,700.25,700.75,,,,,,472,MAS,CON,150,pelo,,l,0.531,,,,700.75,700.751,-0.079218107,-0.41563786,0,0,0,,0,244,244,21,1,,,,
,,,,,,1cd8d785e6becf54e84752d3,66a626ef09d4e21e1a8894ec,67371501ff0930c85bbbb10f,2024-11-15_03h40.38.553,Tarea de género gramatical,2024.2.2,Win32,143.6781609,,,,,,,,,,,,,,,,,,,,,,700.751,702.14,a,1,[],[],[],[],[],[],[],0.73,1,702.141,702.641,,,,,,824,FEM,DIS,150,herida,el,a,0.73,,,,702.641,702.642,-0.079218107,-0.41563786,0,0,0,,0,245,245,373,1,,,,
,,,,,,1cd8d785e6becf54e84752d3,66a626ef09d4e21e1a8894ec,67371501ff0930c85bbbb10f,2024-11-15_03h40.38.553,Tarea de género gramatical,2024.2.2,Win32,143.6781609,,,,,,,,,,,,,,,,,,,,,,702.642,704.114,l,1,[],[],[],[],[],[],[],0.814,1,704.115,704.615,,,,,,533,MAS,DIS,150,nene,la,l,0.814,,,,704.615,704.615,-0.079218107,-0.41563786,0,0,0,,0,246,246,82,1,,,,
,,,,,,1cd8d785e6becf54e84752d3,66a626ef09d4e21e1a8894ec,67371501ff0930c85bbbb10f,2024-11-15_03h40.38.553,Tarea de género gramatical,2024.2.2,Win32,143.6781609,,,,,,,,,,,,,,,,,,,,,,704.616,705.894,l,1,[],[],[],[],[],[],[],0.622,1,705.894,706.394,,,,,,798,MAS,AGR,150,anillo,el,l,0.622,,,,706.394,706.394,-0.079218107,-0.41563786,0,0,0,,0,247,247,347,1,,,,
,,,,,,1cd8d785e6becf54e84752d3,66a626ef09d4e21e1a8894ec,67371501ff0930c85bbbb10f,2024-11-15_03h40.38.553,Tarea de género gramatical,2024.2.2,Win32,143.6781609,,,,,,,,,,,,,,,,,,,,,,706.396,707.513,l,1,[],[],[],[],[],[],[],0.46,1,707.514,708.014,,,,,,844,MAS,CON,150,examen,,l,0.46,,,,708.014,708.014,-0.079218107,-0.41563786,0,0,0,,0,248,248,393,1,,,,
,,,,,,1cd8d785e6becf54e84752d3,66a626ef09d4e21e1a8894ec,67371501ff0930c85bbbb10f,2024-11-15_03h40.38.553,Tarea de género gramatical,2024.2.2,Win32,143.6781609,,,,,,,,,,,,,,,,,,,,,,708.016,709.022,l,1,[],[],[],[],[],[],[],0.35,1,709.022,709.522,,,,,,815,MAS,DIS,150,código,la,l,0.35,,,,709.523,709.524,-0.079218107,-0.41563786,0,0,0,,0,249,249,364,1,,,,
,,,,,,1cd8d785e6becf54e84752d3,66a626ef09d4e21e1a8894ec,67371501ff0930c85bbbb10f,2024-11-15_03h40.38.553,Tarea de género gramatical,2024.2.2,Win32,143.6781609,,,,,,,,,,,,,,,,,,,,,,709.524,710.621,l,1,[],[],[],[],[],[],[],0.438,1,710.621,711.121,,,,,,629,MAS,DIS,150,viaje,la,l,0.438,,,,711.121,711.121,-0.079218107,-0.41563786,0,0,0,,0,250,250,178,1,,,,
,,,,,,1cd8d785e6becf54e84752d3,66a626ef09d4e21e1a8894ec,67371501ff0930c85bbbb10f,2024-11-15_03h40.38.553,Tarea de género gramatical,2024.2.2,Win32,143.6781609,,,,,,,,,,,,,,,,,,,,,,711.122,712.394,l,1,[],[],[],[],[],[],[],0.615,1,712.394,712.894,,,,,,455,MAS,DIS,150,tipo,la,l,0.615,,,,712.894,712.894,-0.079218107,-0.41563786,0,0,0,,0,251,251,4,1,,,,
,,,,,,1cd8d785e6becf54e84752d3,66a626ef09d4e21e1a8894ec,67371501ff0930c85bbbb10f,2024-11-15_03h40.38.553,Tarea de género gramatical,2024.2.2,Win32,143.6781609,,,,,,,,,,,,,,,,,,,,,,712.895,714.014,l,1,[],[],[],[],[],[],[],0.461,1,714.014,714.513,,,,,,546,MAS,AGR,150,pato,el,l,0.461,,,,714.514,714.514,-0.079218107,-0.41563786,0,0,0,,0,252,252,95,1,,,,
,,,,,,1cd8d785e6becf54e84752d3,66a626ef09d4e21e1a8894ec,67371501ff0930c85bbbb10f,2024-11-15_03h40.38.553,Tarea de género gramatical,2024.2.2,Win32,143.6781609,,,,,,,,,,,,,,,,,,,,,,714.514,715.723,a,1,[],[],[],[],[],[],[],0.546,1,715.723,716.224,,,,,,859,FEM,CON,150,moneda,,a,0.546,,,,716.224,716.224,-0.079218107,-0.41563786,0,0,0,,0,253,253,408,1,,,,
,,,,,,1cd8d785e6becf54e84752d3,66a626ef09d4e21e1a8894ec,67371501ff0930c85bbbb10f,2024-11-15_03h40.38.553,Tarea de género gramatical,2024.2.2,Win32,143.6781609,,,,,,,,,,,,,,,,,,,,,,716.225,717.837,a,1,[],[],[],[],[],[],[],0.951,1,717.837,718.337,,,,,,794,FEM,DIS,150,pareja,el,a,0.951,,,,718.338,718.338,-0.079218107,-0.41563786,0,0,0,,0,254,254,343,1,,,,
,,,,,,1cd8d785e6becf54e84752d3,66a626ef09d4e21e1a8894ec,67371501ff0930c85bbbb10f,2024-11-15_03h40.38.553,Tarea de género gramatical,2024.2.2,Win32,143.6781609,,,,,,,,,,,,,,,,,,,,,,718.339,720.033,a,1,[],[],[],[],[],[],[],1.038,1,720.033,720.534,,,,,,525,FEM,AGR,150,caza,la,a,1.038,,,,720.534,720.534,-0.079218107,-0.41563786,0,0,0,,0,255,255,74,1,,,,
,,,,,,1cd8d785e6becf54e84752d3,66a626ef09d4e21e1a8894ec,67371501ff0930c85bbbb10f,2024-11-15_03h40.38.553,Tarea de género gramatical,2024.2.2,Win32,143.6781609,,,,,,,,,,,,,,,,,,,,,,720.534,721.722,l,1,[],[],[],[],[],[],[],0.528,1,721.722,722.222,,,,,,539,MAS,DIS,150,maíz,la,l,0.528,,,,722.222,722.222,-0.079218107,-0.41563786,0,0,0,,0,256,256,88,1,,,,
