counterbalancing_condition,consent_prescreening.block_1/declare_consent,consent_prescreening.block_1/age_years,consent_prescreening.block_1/gender,consent_prescreening.block_1/language_disorder,consent_prescreening.block_1/first_language,PROLIFIC_PID,STUDY_ID,SESSION_ID,date,expName,psychopyVersion,OS,frameRate,check_prescreening_answers.started,check_prescreening_answers.stopped,Instructions.started,Instructions.stopped,instr_done_keyboard.keys,instr_done_touch.x,instr_done_touch.y,instr_done_touch.leftButton,instr_done_touch.midButton,instr_done_touch.rightButton,instr_done_touch.clicked_name,instruction_pages.thisRepN,instruction_pages.thisTrialN,instruction_pages.thisN,instruction_pages.thisIndex,instruction_pages.ran,pageN,phase,instruct_text,has_image,instruct_image,instr_done_keyboard.rt,instr_done_keyboard.duration,presentTrial.started,presentTrial.stopped,response.keys,response.corr,response.rt,response.duration,touch_resp.x,touch_resp.y,touch_resp.leftButton,touch_resp.midButton,touch_resp.rightButton,touch_resp.time,touch_resp.clicked_name,rt,corr,feedback.started,feedback.stopped,practice_trials.thisRepN,practice_trials.thisTrialN,practice_trials.thisN,practice_trials.thisIndex,practice_trials.ran,TrialID,StimulusType,Condition,PrimeDuration,Prime,Flanker,corrAns,Break.started,Break.stopped,break_done_touch.x,break_done_touch.y,break_done_touch.leftButton,break_done_touch.midButton,break_done_touch.rightButton,break_done_keyboard.keys,experiment_trials.thisRepN,experiment_trials.thisTrialN,experiment_trials.thisN,experiment_trials.thisIndex,experiment_trials.ran,break_done_keyboard.rt,break_done_keyboard.duration,End.started,End.stopped
1,"[""over_18"",""comfortable"",""read_info"",""consent_given""]",46,F,"[""none""]","[""spanish""]",1e361e921fd81814619fa0c2,66a626ef09d4e21e1a8894ec,67361f09343d2644a515bc8e,2024-11-14_17h03.02.522,Tarea de género gramatical,2024.2.2,Win32,59.52380952,,,,,,,,,,,,,,,,,,,,,,,,,,,,,,,,,,,,,,,,,,,,,,,,,,,,,,,,,,,,,,,,,,,,,
,,,,,,1e361e921fd81814619fa0c2,66a626ef09d4e21e1a8894ec,67361f09343d2644a515bc8e,2024-11-14_17h03.02.522,Tarea de género gramatical,2024.2.2,Win32,59.52380952,34.7907,34.7911,,,,,,,,,,,,,,,,,,,,,,,,,,,,,,,,,,,,,,,,,,,,,,,,,,,,,,,,,,,,,,,,,,,
,,,,,,1e361e921fd81814619fa0c2,66a626ef09d4e21e1a8894ec,67361f09343d2644a515bc8e,2024-11-14_17h03.02.522,Tarea de género gramatical,2024.2.2,Win32,59.52380952,,,34.8842,45.5147,,-0.034259259,-0.417592593,1,0,0,instr_done_button,0,0,0,0,1,1,instructions,"INSTRUCCIONES
Va a realizar una prueba de selección gramatical. Desde el comienzo de la prueba mire siempre al centro de la pantalla. Al cabo de un momento, aparecerán palabras. La tarea consiste en determinar si la palabra del centro (siempre será un sustantivo), pertenece al género masculino o femenino.

Pulse la tecla ESPACIO o toque el botón de abajo para continuar.",0,keyboardresponseMF.png,,,,,,,,,,,,,,,,,,,,,,,,,,,,,,,,,,,,,,,,,,,,,,,,
,,,,,,1e361e921fd81814619fa0c2,66a626ef09d4e21e1a8894ec,67361f09343d2644a515bc8e,2024-11-14_17h03.02.522,Tarea de género gramatical,2024.2.2,Win32,59.52380952,,,45.5349,57.8747,space,-0.039814815,-0.430555556,0,0,0,,0,1,1,1,1,2,instructions,"Si su dispositivo tiene teclado, pulse la tecla ""A"" para las palabras en masculino (por ejemplo: ""arroz"") y la tecla ""L"" para las palabras en femenino (por ejemplo: ""mano"").
Pulse la tecla ESPACIO o toque el botón de abajo para continuar.",1,keyboardresponseMF.png,12.1652,,,,,,,,,,,,,,,,,,,,,,,,,,,,,,,,,,,,,,,,,,,,,,,
,,,,,,1e361e921fd81814619fa0c2,66a626ef09d4e21e1a8894ec,67361f09343d2644a515bc8e,2024-11-14_17h03.02.522,Tarea de género gramatical,2024.2.2,Win32,59.52380952,,,57.8852,61.2142,space,-0.039814815,-0.430555556,0,0,0,,0,2,2,2,1,3,instructions,"Si utiliza un dispositivo sólo táctil, colóquelo en horizontal y utilice los botones de la pantalla. No utilice el ratón.
Pulse la tecla ESPACIO o toque el botón de abajo para continuar.",2,touchresponseMF.png,3.205,,,,,,,,,,,,,,,,,,,,,,,,,,,,,,,,,,,,,,,,,,,,,,,
,,,,,,1e361e921fd81814619fa0c2,66a626ef09d4e21e1a8894ec,67361f09343d2644a515bc8e,2024-11-14_17h03.02.522,Tarea de género gramatical,2024.2.2,Win32,59.52380952,,,61.2305,65.5595,space,-0.039814815,-0.430555556,0,0,0,,0,3,3,3,1,4,instructions,"Es muy importante que responda con la mayor rapidez y precisión posibles, ya que cada cadena de letras sólo estará en pantalla durante un instante. Si no responde en ese tiempo, aparecerá el mensaje ""Muy lento"" y el experimento pasará a la siguiente palabra. Los primeros 15 intentos serán de práctica y habrá dos descansos durante la prueba.
Pulse la tecla ESPACIO o toque el botón de abajo para iniciar la parte de práctica.",0,keyboardresponseMF.png,4.2976,,,,,,,,,,,,,,,,,,,,,,,,,,,,,,,,,,,,,,,,,,,,,,,
,,,,,,1e361e921fd81814619fa0c2,66a626ef09d4e21e1a8894ec,67361f09343d2644a515bc8e,2024-11-14_17h03.02.522,Tarea de género gramatical,2024.2.2,Win32,59.52380952,,,,,,,,,,,,,,,,,,,,,,,,65.6268,67.7479,a,0,1.432,,[],[],[],[],[],[],[],1.432,0,67.749,68.2479,0,0,0,3,1,2004,FEM,AGR,150,venta,la,a,,,,,,,,,,,,,,,,,
,,,,,,1e361e921fd81814619fa0c2,66a626ef09d4e21e1a8894ec,67361f09343d2644a515bc8e,2024-11-14_17h03.02.522,Tarea de género gramatical,2024.2.2,Win32,59.52380952,,,,,,,,,,,,,,,,,,,,,,,,68.2535,70.1922,a,0,1.2655,,[],[],[],[],[],[],[],1.2655,0,70.1925,70.6956,0,1,1,2,1,2003,FEM,DIS,150,daga,el,a,,,,,,,,,,,,,,,,,
,,,,,,1e361e921fd81814619fa0c2,66a626ef09d4e21e1a8894ec,67361f09343d2644a515bc8e,2024-11-14_17h03.02.522,Tarea de género gramatical,2024.2.2,Win32,59.52380952,,,,,,,,,,,,,,,,,,,,,,,,70.6987,72.1086,l,1,0.7189,,[],[],[],[],[],[],[],0.7189,1,72.1127,72.619,0,2,2,0,1,2001,FEM,AGR,150,nuca,la,a,,,,,,,,,,,,,,,,,
,,,,,,1e361e921fd81814619fa0c2,66a626ef09d4e21e1a8894ec,67361f09343d2644a515bc8e,2024-11-14_17h03.02.522,Tarea de género gramatical,2024.2.2,Win32,59.52380952,,,,,,,,,,,,,,,,,,,,,,,,72.6237,73.87,a,1,0.5769,,[],[],[],[],[],[],[],0.5769,1,73.8703,74.3591,0,3,3,12,1,2013,MAS,AGR,150,acero,el,l,,,,,,,,,,,,,,,,,
,,,,,,1e361e921fd81814619fa0c2,66a626ef09d4e21e1a8894ec,67361f09343d2644a515bc8e,2024-11-14_17h03.02.522,Tarea de género gramatical,2024.2.2,Win32,59.52380952,,,,,,,,,,,,,,,,,,,,,,,,74.3644,75.7931,a,1,0.7347,,[],[],[],[],[],[],[],0.7347,1,75.7934,76.2852,0,4,4,13,1,2014,MAS,CON,150,siglo,,l,,,,,,,,,,,,,,,,,
,,,,,,1e361e921fd81814619fa0c2,66a626ef09d4e21e1a8894ec,67361f09343d2644a515bc8e,2024-11-14_17h03.02.522,Tarea de género gramatical,2024.2.2,Win32,59.52380952,,,,,,,,,,,,,,,,,,,,,,,,76.2873,77.6109,a,1,0.6533,,[],[],[],[],[],[],[],0.6533,1,77.6115,78.1187,0,5,5,10,1,2011,MAS,CON,150,canal,,l,,,,,,,,,,,,,,,,,
,,,,,,1e361e921fd81814619fa0c2,66a626ef09d4e21e1a8894ec,67361f09343d2644a515bc8e,2024-11-14_17h03.02.522,Tarea de género gramatical,2024.2.2,Win32,59.52380952,,,,,,,,,,,,,,,,,,,,,,,,78.1218,79.3239,l,0,0.5329,,[],[],[],[],[],[],[],0.5329,0,79.3264,79.8081,0,6,6,8,1,2009,MAS,DIS,150,puerto,la,l,,,,,,,,,,,,,,,,,
,,,,,,1e361e921fd81814619fa0c2,66a626ef09d4e21e1a8894ec,67361f09343d2644a515bc8e,2024-11-14_17h03.02.522,Tarea de género gramatical,2024.2.2,Win32,59.52380952,,,,,,,,,,,,,,,,,,,,,,,,79.8125,81.1591,l,1,0.656,,[],[],[],[],[],[],[],0.656,1,81.1619,81.6559,0,7,7,6,1,2007,FEM,AGR,150,navaja,la,a,,,,,,,,,,,,,,,,,
,,,,,,1e361e921fd81814619fa0c2,66a626ef09d4e21e1a8894ec,67361f09343d2644a515bc8e,2024-11-14_17h03.02.522,Tarea de género gramatical,2024.2.2,Win32,59.52380952,,,,,,,,,,,,,,,,,,,,,,,,81.6593,83.0463,a,1,0.7188,,[],[],[],[],[],[],[],0.7188,1,83.0466,83.564,0,8,8,11,1,2012,MAS,DIS,150,clima,la,l,,,,,,,,,,,,,,,,,
,,,,,,1e361e921fd81814619fa0c2,66a626ef09d4e21e1a8894ec,67361f09343d2644a515bc8e,2024-11-14_17h03.02.522,Tarea de género gramatical,2024.2.2,Win32,59.52380952,,,,,,,,,,,,,,,,,,,,,,,,83.5672,84.8515,l,1,0.5943,,[],[],[],[],[],[],[],0.5943,1,84.8518,85.3411,0,9,9,7,1,2008,FEM,CON,150,siesta,,a,,,,,,,,,,,,,,,,,
,,,,,,1e361e921fd81814619fa0c2,66a626ef09d4e21e1a8894ec,67361f09343d2644a515bc8e,2024-11-14_17h03.02.522,Tarea de género gramatical,2024.2.2,Win32,59.52380952,,,,,,,,,,,,,,,,,,,,,,,,85.3449,86.9736,l,1,0.9506,,[],[],[],[],[],[],[],0.9506,1,86.974,87.4618,0,10,10,5,1,2006,FEM,DIS,150,serie,el,a,,,,,,,,,,,,,,,,,
,,,,,,1e361e921fd81814619fa0c2,66a626ef09d4e21e1a8894ec,67361f09343d2644a515bc8e,2024-11-14_17h03.02.522,Tarea de género gramatical,2024.2.2,Win32,59.52380952,,,,,,,,,,,,,,,,,,,,,,,,87.4641,88.7457,a,1,0.6091,,[],[],[],[],[],[],[],0.6091,1,88.746,89.2255,0,11,11,9,1,2010,MAS,AGR,150,vecino,el,l,,,,,,,,,,,,,,,,,
,,,,,,1e361e921fd81814619fa0c2,66a626ef09d4e21e1a8894ec,67361f09343d2644a515bc8e,2024-11-14_17h03.02.522,Tarea de género gramatical,2024.2.2,Win32,59.52380952,,,,,,,,,,,,,,,,,,,,,,,,89.2302,90.7248,a,1,0.822,,[],[],[],[],[],[],[],0.822,1,90.7251,91.2239,0,12,12,14,1,2015,MAS,DIS,150,robot,la,l,,,,,,,,,,,,,,,,,
,,,,,,1e361e921fd81814619fa0c2,66a626ef09d4e21e1a8894ec,67361f09343d2644a515bc8e,2024-11-14_17h03.02.522,Tarea de género gramatical,2024.2.2,Win32,59.52380952,,,,,,,,,,,,,,,,,,,,,,,,91.2269,92.3845,l,1,0.4874,,[],[],[],[],[],[],[],0.4874,1,92.3848,92.889,0,13,13,4,1,2005,FEM,CON,150,placa,,a,,,,,,,,,,,,,,,,,
,,,,,,1e361e921fd81814619fa0c2,66a626ef09d4e21e1a8894ec,67361f09343d2644a515bc8e,2024-11-14_17h03.02.522,Tarea de género gramatical,2024.2.2,Win32,59.52380952,,,,,,,,,,,,,,,,,,,,,,,,92.8927,94.0238,l,1,0.4479,,[],[],[],[],[],[],[],0.4479,1,94.024,94.5225,0,14,14,1,1,2002,FEM,CON,150,pala,,a,,,,,,,,,,,,,,,,,
,,,,,,1e361e921fd81814619fa0c2,66a626ef09d4e21e1a8894ec,67361f09343d2644a515bc8e,2024-11-14_17h03.02.522,Tarea de género gramatical,2024.2.2,Win32,59.52380952,,,98.973,106.7917,space,-0.039814815,-0.430555556,0,0,0,,,,,,,,,,,,7.7854,,106.9637,108.3912,a,0,0.75,,[],[],[],[],[],[],[],0.75,0,108.3935,108.8798,,,,,,865,FEM,CON,150,cabina,,a,108.8808,108.8934,-0.039814815,-0.430555556,0,0,0,,0,0,0,414,1,,,,
,,,,,,1e361e921fd81814619fa0c2,66a626ef09d4e21e1a8894ec,67361f09343d2644a515bc8e,2024-11-14_17h03.02.522,Tarea de género gramatical,2024.2.2,Win32,59.52380952,,,,,,,,,,,,,,,,,,,,,,,,108.8977,110.0616,a,1,0.4733,,[],[],[],[],[],[],[],0.4733,1,110.0642,110.5587,,,,,,732,MAS,AGR,150,bolso,el,l,110.5589,110.5596,-0.039814815,-0.430555556,0,0,0,,0,1,1,281,1,,,,
,,,,,,1e361e921fd81814619fa0c2,66a626ef09d4e21e1a8894ec,67361f09343d2644a515bc8e,2024-11-14_17h03.02.522,Tarea de género gramatical,2024.2.2,Win32,59.52380952,,,,,,,,,,,,,,,,,,,,,,,,110.5626,111.7574,l,1,0.5004,,[],[],[],[],[],[],[],0.5004,1,111.7576,112.2647,,,,,,561,FEM,AGR,150,goma,la,a,112.2694,112.2718,-0.039814815,-0.430555556,0,0,0,,0,2,2,110,1,,,,
,,,,,,1e361e921fd81814619fa0c2,66a626ef09d4e21e1a8894ec,67361f09343d2644a515bc8e,2024-11-14_17h03.02.522,Tarea de género gramatical,2024.2.2,Win32,59.52380952,,,,,,,,,,,,,,,,,,,,,,,,112.275,113.5762,a,1,0.6192,,[],[],[],[],[],[],[],0.6192,1,113.5765,114.0744,,,,,,671,MAS,DIS,150,brazo,la,l,114.0746,114.075,-0.039814815,-0.430555556,0,0,0,,0,3,3,220,1,,,,
,,,,,,1e361e921fd81814619fa0c2,66a626ef09d4e21e1a8894ec,67361f09343d2644a515bc8e,2024-11-14_17h03.02.522,Tarea de género gramatical,2024.2.2,Win32,59.52380952,,,,,,,,,,,,,,,,,,,,,,,,114.0777,115.1774,l,1,0.4017,,[],[],[],[],[],[],[],0.4017,1,115.1777,115.6744,,,,,,643,FEM,CON,150,bolsa,,a,115.6746,115.675,-0.039814815,-0.430555556,0,0,0,,0,4,4,192,1,,,,
,,,,,,1e361e921fd81814619fa0c2,66a626ef09d4e21e1a8894ec,67361f09343d2644a515bc8e,2024-11-14_17h03.02.522,Tarea de género gramatical,2024.2.2,Win32,59.52380952,,,,,,,,,,,,,,,,,,,,,,,,115.6779,116.8374,l,1,0.4607,,[],[],[],[],[],[],[],0.4607,1,116.8377,117.3275,,,,,,812,FEM,DIS,150,fuente,el,a,117.3277,117.3283,-0.039814815,-0.430555556,0,0,0,,0,5,5,361,1,,,,
,,,,,,1e361e921fd81814619fa0c2,66a626ef09d4e21e1a8894ec,67361f09343d2644a515bc8e,2024-11-14_17h03.02.522,Tarea de género gramatical,2024.2.2,Win32,59.52380952,,,,,,,,,,,,,,,,,,,,,,,,117.3322,118.5624,a,1,0.5427,,[],[],[],[],[],[],[],0.5427,1,118.5627,119.0745,,,,,,629,MAS,DIS,150,viaje,la,l,119.079,119.0818,-0.039814815,-0.430555556,0,0,0,,0,6,6,178,1,,,,
,,,,,,1e361e921fd81814619fa0c2,66a626ef09d4e21e1a8894ec,67361f09343d2644a515bc8e,2024-11-14_17h03.02.522,Tarea de género gramatical,2024.2.2,Win32,59.52380952,,,,,,,,,,,,,,,,,,,,,,,,119.0845,120.3627,l,1,0.608,,[],[],[],[],[],[],[],0.608,1,120.3629,120.851,,,,,,759,FEM,AGR,150,esposa,la,a,120.8511,120.8516,-0.039814815,-0.430555556,0,0,0,,0,7,7,308,1,,,,
,,,,,,1e361e921fd81814619fa0c2,66a626ef09d4e21e1a8894ec,67361f09343d2644a515bc8e,2024-11-14_17h03.02.522,Tarea de género gramatical,2024.2.2,Win32,59.52380952,,,,,,,,,,,,,,,,,,,,,,,,120.8544,122.0431,l,1,0.487,,[],[],[],[],[],[],[],0.487,1,122.0434,122.5395,,,,,,619,FEM,CON,150,vista,,a,122.5396,122.5402,-0.039814815,-0.430555556,0,0,0,,0,8,8,168,1,,,,
,,,,,,1e361e921fd81814619fa0c2,66a626ef09d4e21e1a8894ec,67361f09343d2644a515bc8e,2024-11-14_17h03.02.522,Tarea de género gramatical,2024.2.2,Win32,59.52380952,,,,,,,,,,,,,,,,,,,,,,,,122.5442,123.6967,a,1,0.4751,,[],[],[],[],[],[],[],0.4751,1,123.6971,124.1855,,,,,,785,MAS,DIS,150,montón,la,l,124.1856,124.186,-0.039814815,-0.430555556,0,0,0,,0,9,9,334,1,,,,
,,,,,,1e361e921fd81814619fa0c2,66a626ef09d4e21e1a8894ec,67361f09343d2644a515bc8e,2024-11-14_17h03.02.522,Tarea de género gramatical,2024.2.2,Win32,59.52380952,,,,,,,,,,,,,,,,,,,,,,,,124.1879,125.4228,a,0,0.5489,,[],[],[],[],[],[],[],0.5489,0,125.4255,125.909,,,,,,813,FEM,AGR,150,unidad,la,a,125.9092,125.9099,-0.039814815,-0.430555556,0,0,0,,0,10,10,362,1,,,,
,,,,,,1e361e921fd81814619fa0c2,66a626ef09d4e21e1a8894ec,67361f09343d2644a515bc8e,2024-11-14_17h03.02.522,Tarea de género gramatical,2024.2.2,Win32,59.52380952,,,,,,,,,,,,,,,,,,,,,,,,125.9134,127.1085,a,1,0.5254,,[],[],[],[],[],[],[],0.5254,1,127.1109,127.6128,,,,,,612,MAS,AGR,150,miedo,el,l,127.6174,127.6206,-0.039814815,-0.430555556,0,0,0,,0,11,11,161,1,,,,
,,,,,,1e361e921fd81814619fa0c2,66a626ef09d4e21e1a8894ec,67361f09343d2644a515bc8e,2024-11-14_17h03.02.522,Tarea de género gramatical,2024.2.2,Win32,59.52380952,,,,,,,,,,,,,,,,,,,,,,,,127.624,128.7432,a,1,0.4501,,[],[],[],[],[],[],[],0.4501,1,128.7434,129.24,,,,,,762,MAS,AGR,150,equipo,el,l,129.2401,129.2407,-0.039814815,-0.430555556,0,0,0,,0,12,12,311,1,,,,
,,,,,,1e361e921fd81814619fa0c2,66a626ef09d4e21e1a8894ec,67361f09343d2644a515bc8e,2024-11-14_17h03.02.522,Tarea de género gramatical,2024.2.2,Win32,59.52380952,,,,,,,,,,,,,,,,,,,,,,,,129.2442,130.4911,a,1,0.566,,[],[],[],[],[],[],[],0.566,1,130.4913,130.9923,,,,,,832,MAS,CON,150,teatro,,l,130.9924,130.9927,-0.039814815,-0.430555556,0,0,0,,0,13,13,381,1,,,,
,,,,,,1e361e921fd81814619fa0c2,66a626ef09d4e21e1a8894ec,67361f09343d2644a515bc8e,2024-11-14_17h03.02.522,Tarea de género gramatical,2024.2.2,Win32,59.52380952,,,,,,,,,,,,,,,,,,,,,,,,130.9951,132.1752,l,1,0.4835,,[],[],[],[],[],[],[],0.4835,1,132.1755,132.6892,,,,,,662,FEM,DIS,150,cinta,el,a,132.6893,132.6902,-0.039814815,-0.430555556,0,0,0,,0,14,14,211,1,,,,
,,,,,,1e361e921fd81814619fa0c2,66a626ef09d4e21e1a8894ec,67361f09343d2644a515bc8e,2024-11-14_17h03.02.522,Tarea de género gramatical,2024.2.2,Win32,59.52380952,,,,,,,,,,,,,,,,,,,,,,,,132.6936,133.7477,a,1,0.3746,,[],[],[],[],[],[],[],0.3746,1,133.7478,134.2378,,,,,,791,MAS,DIS,150,precio,la,l,134.2425,134.2453,-0.039814815,-0.430555556,0,0,0,,0,15,15,340,1,,,,
,,,,,,1e361e921fd81814619fa0c2,66a626ef09d4e21e1a8894ec,67361f09343d2644a515bc8e,2024-11-14_17h03.02.522,Tarea de género gramatical,2024.2.2,Win32,59.52380952,,,,,,,,,,,,,,,,,,,,,,,,134.2485,135.3629,l,1,0.4216,,[],[],[],[],[],[],[],0.4216,1,135.3631,135.8597,,,,,,489,FEM,AGR,150,luna,la,a,135.8599,135.8601,-0.039814815,-0.430555556,0,0,0,,0,16,16,38,1,,,,
,,,,,,1e361e921fd81814619fa0c2,66a626ef09d4e21e1a8894ec,67361f09343d2644a515bc8e,2024-11-14_17h03.02.522,Tarea de género gramatical,2024.2.2,Win32,59.52380952,,,,,,,,,,,,,,,,,,,,,,,,135.8638,136.94,a,1,0.4057,,[],[],[],[],[],[],[],0.4057,1,136.9404,137.4435,,,,,,796,MAS,CON,150,juicio,,l,137.4436,137.4439,-0.039814815,-0.430555556,0,0,0,,0,17,17,345,1,,,,
,,,,,,1e361e921fd81814619fa0c2,66a626ef09d4e21e1a8894ec,67361f09343d2644a515bc8e,2024-11-14_17h03.02.522,Tarea de género gramatical,2024.2.2,Win32,59.52380952,,,,,,,,,,,,,,,,,,,,,,,,137.447,138.5736,a,1,0.4324,,[],[],[],[],[],[],[],0.4324,1,138.5738,139.0545,,,,,,503,MAS,DIS,150,vaso,la,l,139.0547,139.0552,-0.039814815,-0.430555556,0,0,0,,0,18,18,52,1,,,,
,,,,,,1e361e921fd81814619fa0c2,66a626ef09d4e21e1a8894ec,67361f09343d2644a515bc8e,2024-11-14_17h03.02.522,Tarea de género gramatical,2024.2.2,Win32,59.52380952,,,,,,,,,,,,,,,,,,,,,,,,139.0594,140.1915,a,1,0.4477,,[],[],[],[],[],[],[],0.4477,1,140.1917,140.707,,,,,,695,MAS,DIS,150,turno,la,l,140.7071,140.7075,-0.039814815,-0.430555556,0,0,0,,0,19,19,244,1,,,,
,,,,,,1e361e921fd81814619fa0c2,66a626ef09d4e21e1a8894ec,67361f09343d2644a515bc8e,2024-11-14_17h03.02.522,Tarea de género gramatical,2024.2.2,Win32,59.52380952,,,,,,,,,,,,,,,,,,,,,,,,140.7108,141.8641,l,1,0.4736,,[],[],[],[],[],[],[],0.4736,1,141.8643,142.357,,,,,,757,FEM,CON,150,suerte,,a,142.3636,142.3662,-0.039814815,-0.430555556,0,0,0,,0,20,20,306,1,,,,
,,,,,,1e361e921fd81814619fa0c2,66a626ef09d4e21e1a8894ec,67361f09343d2644a515bc8e,2024-11-14_17h03.02.522,Tarea de género gramatical,2024.2.2,Win32,59.52380952,,,,,,,,,,,,,,,,,,,,,,,,142.3689,143.4388,a,1,0.3785,,[],[],[],[],[],[],[],0.3785,1,143.4391,143.956,,,,,,774,MAS,AGR,150,cuarto,el,l,143.956,143.9564,-0.039814815,-0.430555556,0,0,0,,0,21,21,323,1,,,,
,,,,,,1e361e921fd81814619fa0c2,66a626ef09d4e21e1a8894ec,67361f09343d2644a515bc8e,2024-11-14_17h03.02.522,Tarea de género gramatical,2024.2.2,Win32,59.52380952,,,,,,,,,,,,,,,,,,,,,,,,143.9601,144.9419,a,1,0.3163,,[],[],[],[],[],[],[],0.3163,1,144.9422,145.4408,,,,,,610,MAS,CON,150,señor,,l,145.4409,145.4413,-0.039814815,-0.430555556,0,0,0,,0,22,22,159,1,,,,
,,,,,,1e361e921fd81814619fa0c2,66a626ef09d4e21e1a8894ec,67361f09343d2644a515bc8e,2024-11-14_17h03.02.522,Tarea de género gramatical,2024.2.2,Win32,59.52380952,,,,,,,,,,,,,,,,,,,,,,,,145.445,146.5653,a,1,0.4414,,[],[],[],[],[],[],[],0.4414,1,146.5656,147.0422,,,,,,863,MAS,DIS,150,diario,la,l,147.0423,147.0428,-0.039814815,-0.430555556,0,0,0,,0,23,23,412,1,,,,
,,,,,,1e361e921fd81814619fa0c2,66a626ef09d4e21e1a8894ec,67361f09343d2644a515bc8e,2024-11-14_17h03.02.522,Tarea de género gramatical,2024.2.2,Win32,59.52380952,,,,,,,,,,,,,,,,,,,,,,,,147.0463,148.1912,l,1,0.4499,,[],[],[],[],[],[],[],0.4499,1,148.1914,148.6914,,,,,,735,FEM,AGR,150,mafia,la,a,148.6965,148.6986,-0.039814815,-0.430555556,0,0,0,,0,24,24,284,1,,,,
,,,,,,1e361e921fd81814619fa0c2,66a626ef09d4e21e1a8894ec,67361f09343d2644a515bc8e,2024-11-14_17h03.02.522,Tarea de género gramatical,2024.2.2,Win32,59.52380952,,,,,,,,,,,,,,,,,,,,,,,,148.7005,149.7417,l,1,0.3673,,[],[],[],[],[],[],[],0.3673,1,149.7419,150.2439,,,,,,829,FEM,CON,150,granja,,a,150.2441,150.2448,-0.039814815,-0.430555556,0,0,0,,0,25,25,378,1,,,,
,,,,,,1e361e921fd81814619fa0c2,66a626ef09d4e21e1a8894ec,67361f09343d2644a515bc8e,2024-11-14_17h03.02.522,Tarea de género gramatical,2024.2.2,Win32,59.52380952,,,,,,,,,,,,,,,,,,,,,,,,150.2489,151.4269,a,1,0.485,,[],[],[],[],[],[],[],0.485,1,151.4272,151.9224,,,,,,720,MAS,AGR,150,queso,el,l,151.9224,151.9227,-0.039814815,-0.430555556,0,0,0,,0,26,26,269,1,,,,
,,,,,,1e361e921fd81814619fa0c2,66a626ef09d4e21e1a8894ec,67361f09343d2644a515bc8e,2024-11-14_17h03.02.522,Tarea de género gramatical,2024.2.2,Win32,59.52380952,,,,,,,,,,,,,,,,,,,,,,,,151.9257,153.063,l,1,0.4527,,[],[],[],[],[],[],[],0.4527,1,153.0634,153.5479,,,,,,841,FEM,CON,150,altura,,a,153.5481,153.5485,-0.039814815,-0.430555556,0,0,0,,0,27,27,390,1,,,,
,,,,,,1e361e921fd81814619fa0c2,66a626ef09d4e21e1a8894ec,67361f09343d2644a515bc8e,2024-11-14_17h03.02.522,Tarea de género gramatical,2024.2.2,Win32,59.52380952,,,,,,,,,,,,,,,,,,,,,,,,153.5525,154.5725,a,1,0.3451,,[],[],[],[],[],[],[],0.3451,1,154.5728,155.0634,,,,,,876,MAS,AGR,150,pánico,el,l,155.0636,155.064,-0.039814815,-0.430555556,0,0,0,,0,28,28,425,1,,,,
,,,,,,1e361e921fd81814619fa0c2,66a626ef09d4e21e1a8894ec,67361f09343d2644a515bc8e,2024-11-14_17h03.02.522,Tarea de género gramatical,2024.2.2,Win32,59.52380952,,,,,,,,,,,,,,,,,,,,,,,,155.0677,156.1624,a,1,0.4258,,[],[],[],[],[],[],[],0.4258,1,156.1626,156.6735,,,,,,576,MAS,AGR,150,lazo,el,l,156.68,156.6835,-0.039814815,-0.430555556,0,0,0,,0,29,29,125,1,,,,
,,,,,,1e361e921fd81814619fa0c2,66a626ef09d4e21e1a8894ec,67361f09343d2644a515bc8e,2024-11-14_17h03.02.522,Tarea de género gramatical,2024.2.2,Win32,59.52380952,,,,,,,,,,,,,,,,,,,,,,,,156.6867,157.7578,l,1,0.3976,,[],[],[],[],[],[],[],0.3976,1,157.7581,158.258,,,,,,782,FEM,DIS,150,basura,el,a,158.2582,158.2589,-0.039814815,-0.430555556,0,0,0,,0,30,30,331,1,,,,
,,,,,,1e361e921fd81814619fa0c2,66a626ef09d4e21e1a8894ec,67361f09343d2644a515bc8e,2024-11-14_17h03.02.522,Tarea de género gramatical,2024.2.2,Win32,59.52380952,,,,,,,,,,,,,,,,,,,,,,,,158.2623,159.6371,a,1,0.6985,,[],[],[],[],[],[],[],0.6985,1,159.6373,160.1239,,,,,,598,MAS,CON,150,surf,,l,160.1241,160.1243,-0.039814815,-0.430555556,0,0,0,,0,31,31,147,1,,,,
,,,,,,1e361e921fd81814619fa0c2,66a626ef09d4e21e1a8894ec,67361f09343d2644a515bc8e,2024-11-14_17h03.02.522,Tarea de género gramatical,2024.2.2,Win32,59.52380952,,,,,,,,,,,,,,,,,,,,,,,,160.127,161.2601,a,0,0.4519,,[],[],[],[],[],[],[],0.4519,0,161.2629,161.7409,,,,,,560,FEM,DIS,150,rosa,el,a,161.7414,161.7419,-0.039814815,-0.430555556,0,0,0,,0,32,32,109,1,,,,
,,,,,,1e361e921fd81814619fa0c2,66a626ef09d4e21e1a8894ec,67361f09343d2644a515bc8e,2024-11-14_17h03.02.522,Tarea de género gramatical,2024.2.2,Win32,59.52380952,,,,,,,,,,,,,,,,,,,,,,,,161.7471,162.9569,l,1,0.5331,,[],[],[],[],[],[],[],0.5331,1,162.9589,163.4648,,,,,,896,FEM,DIS,150,bañera,el,a,163.4705,163.4735,-0.039814815,-0.430555556,0,0,0,,0,33,33,445,1,,,,
,,,,,,1e361e921fd81814619fa0c2,66a626ef09d4e21e1a8894ec,67361f09343d2644a515bc8e,2024-11-14_17h03.02.522,Tarea de género gramatical,2024.2.2,Win32,59.52380952,,,,,,,,,,,,,,,,,,,,,,,,163.4772,164.4911,l,1,0.3333,,[],[],[],[],[],[],[],0.3333,1,164.4915,164.9951,,,,,,837,FEM,AGR,150,página,la,a,164.9954,164.9964,-0.039814815,-0.430555556,0,0,0,,0,34,34,386,1,,,,
,,,,,,1e361e921fd81814619fa0c2,66a626ef09d4e21e1a8894ec,67361f09343d2644a515bc8e,2024-11-14_17h03.02.522,Tarea de género gramatical,2024.2.2,Win32,59.52380952,,,,,,,,,,,,,,,,,,,,,,,,165.0004,166.3245,a,1,0.6428,,[],[],[],[],[],[],[],0.6428,1,166.3247,166.8075,,,,,,851,MAS,DIS,150,abrigo,la,l,166.8076,166.8078,-0.039814815,-0.430555556,0,0,0,,0,35,35,400,1,,,,
,,,,,,1e361e921fd81814619fa0c2,66a626ef09d4e21e1a8894ec,67361f09343d2644a515bc8e,2024-11-14_17h03.02.522,Tarea de género gramatical,2024.2.2,Win32,59.52380952,,,,,,,,,,,,,,,,,,,,,,,,166.8115,167.9406,l,1,0.4332,,[],[],[],[],[],[],[],0.4332,1,167.9408,168.4394,,,,,,541,FEM,CON,150,hoja,,a,168.4395,168.4397,-0.039814815,-0.430555556,0,0,0,,0,36,36,90,1,,,,
,,,,,,1e361e921fd81814619fa0c2,66a626ef09d4e21e1a8894ec,67361f09343d2644a515bc8e,2024-11-14_17h03.02.522,Tarea de género gramatical,2024.2.2,Win32,59.52380952,,,,,,,,,,,,,,,,,,,,,,,,168.443,169.5072,l,1,0.3887,,[],[],[],[],[],[],[],0.3887,1,169.5074,170.0088,,,,,,511,FEM,CON,150,ruta,,a,170.009,170.0094,-0.039814815,-0.430555556,0,0,0,,0,37,37,60,1,,,,
,,,,,,1e361e921fd81814619fa0c2,66a626ef09d4e21e1a8894ec,67361f09343d2644a515bc8e,2024-11-14_17h03.02.522,Tarea de género gramatical,2024.2.2,Win32,59.52380952,,,,,,,,,,,,,,,,,,,,,,,,170.0126,171.0573,l,1,0.3673,,[],[],[],[],[],[],[],0.3673,1,171.0578,171.5565,,,,,,483,FEM,AGR,150,boda,la,a,171.5642,171.5682,-0.039814815,-0.430555556,0,0,0,,0,38,38,32,1,,,,
,,,,,,1e361e921fd81814619fa0c2,66a626ef09d4e21e1a8894ec,67361f09343d2644a515bc8e,2024-11-14_17h03.02.522,Tarea de género gramatical,2024.2.2,Win32,59.52380952,,,,,,,,,,,,,,,,,,,,,,,,171.5711,172.6263,l,1,0.3907,,[],[],[],[],[],[],[],0.3907,1,172.6267,173.1396,,,,,,482,FEM,DIS,150,caja,el,a,173.1399,173.1404,-0.039814815,-0.430555556,0,0,0,,0,39,39,31,1,,,,
,,,,,,1e361e921fd81814619fa0c2,66a626ef09d4e21e1a8894ec,67361f09343d2644a515bc8e,2024-11-14_17h03.02.522,Tarea de género gramatical,2024.2.2,Win32,59.52380952,,,,,,,,,,,,,,,,,,,,,,,,173.1444,174.1424,l,1,0.3192,,[],[],[],[],[],[],[],0.3192,1,174.1426,174.6562,,,,,,500,FEM,DIS,150,dama,el,a,174.6567,174.6572,-0.039814815,-0.430555556,0,0,0,,0,40,40,49,1,,,,
,,,,,,1e361e921fd81814619fa0c2,66a626ef09d4e21e1a8894ec,67361f09343d2644a515bc8e,2024-11-14_17h03.02.522,Tarea de género gramatical,2024.2.2,Win32,59.52380952,,,,,,,,,,,,,,,,,,,,,,,,174.6608,175.734,l,1,0.3989,,[],[],[],[],[],[],[],0.3989,1,175.7343,176.231,,,,,,866,FEM,DIS,150,colina,el,a,176.2312,176.2317,-0.039814815,-0.430555556,0,0,0,,0,41,41,415,1,,,,
,,,,,,1e361e921fd81814619fa0c2,66a626ef09d4e21e1a8894ec,67361f09343d2644a515bc8e,2024-11-14_17h03.02.522,Tarea de género gramatical,2024.2.2,Win32,59.52380952,,,,,,,,,,,,,,,,,,,,,,,,176.2344,177.3235,l,1,0.4107,,[],[],[],[],[],[],[],0.4107,1,177.3239,177.8323,,,,,,632,FEM,DIS,150,prisa,el,a,177.8375,177.8404,-0.039814815,-0.430555556,0,0,0,,0,42,42,181,1,,,,
,,,,,,1e361e921fd81814619fa0c2,66a626ef09d4e21e1a8894ec,67361f09343d2644a515bc8e,2024-11-14_17h03.02.522,Tarea de género gramatical,2024.2.2,Win32,59.52380952,,,,,,,,,,,,,,,,,,,,,,,,177.8437,178.8412,l,1,0.3317,,[],[],[],[],[],[],[],0.3317,1,178.8414,179.3342,,,,,,451,FEM,CON,150,casa,,a,179.3343,179.3346,-0.039814815,-0.430555556,0,0,0,,0,43,43,0,1,,,,
,,,,,,1e361e921fd81814619fa0c2,66a626ef09d4e21e1a8894ec,67361f09343d2644a515bc8e,2024-11-14_17h03.02.522,Tarea de género gramatical,2024.2.2,Win32,59.52380952,,,,,,,,,,,,,,,,,,,,,,,,179.3377,180.2758,l,1,0.2558,,[],[],[],[],[],[],[],0.2558,1,180.2762,180.7902,,,,,,553,FEM,CON,150,fama,,a,180.7903,180.7909,-0.039814815,-0.430555556,0,0,0,,0,44,44,102,1,,,,
,,,,,,1e361e921fd81814619fa0c2,66a626ef09d4e21e1a8894ec,67361f09343d2644a515bc8e,2024-11-14_17h03.02.522,Tarea de género gramatical,2024.2.2,Win32,59.52380952,,,,,,,,,,,,,,,,,,,,,,,,180.7943,182.008,a,1,0.5305,,[],[],[],[],[],[],[],0.5305,1,182.0081,182.5225,,,,,,455,MAS,DIS,150,tipo,la,l,182.5226,182.5232,-0.039814815,-0.430555556,0,0,0,,0,45,45,4,1,,,,
,,,,,,1e361e921fd81814619fa0c2,66a626ef09d4e21e1a8894ec,67361f09343d2644a515bc8e,2024-11-14_17h03.02.522,Tarea de género gramatical,2024.2.2,Win32,59.52380952,,,,,,,,,,,,,,,,,,,,,,,,182.5265,183.6997,a,1,0.4931,,[],[],[],[],[],[],[],0.4931,1,183.7,184.195,,,,,,586,MAS,CON,150,vago,,l,184.1952,184.1957,-0.039814815,-0.430555556,0,0,0,,0,46,46,135,1,,,,
,,,,,,1e361e921fd81814619fa0c2,66a626ef09d4e21e1a8894ec,67361f09343d2644a515bc8e,2024-11-14_17h03.02.522,Tarea de género gramatical,2024.2.2,Win32,59.52380952,,,,,,,,,,,,,,,,,,,,,,,,184.1997,185.2114,l,0,0.3214,,[],[],[],[],[],[],[],0.3214,0,185.2144,185.7156,,,,,,570,MAS,AGR,150,puño,el,l,185.7221,185.7256,-0.039814815,-0.430555556,0,0,0,,0,47,47,119,1,,,,
,,,,,,1e361e921fd81814619fa0c2,66a626ef09d4e21e1a8894ec,67361f09343d2644a515bc8e,2024-11-14_17h03.02.522,Tarea de género gramatical,2024.2.2,Win32,59.52380952,,,,,,,,,,,,,,,,,,,,,,,,185.7289,186.8571,a,1,0.4557,,[],[],[],[],[],[],[],0.4557,1,186.86,187.3441,,,,,,822,MAS,AGR,150,delito,el,l,187.3442,187.3447,-0.039814815,-0.430555556,0,0,0,,0,48,48,371,1,,,,
,,,,,,1e361e921fd81814619fa0c2,66a626ef09d4e21e1a8894ec,67361f09343d2644a515bc8e,2024-11-14_17h03.02.522,Tarea de género gramatical,2024.2.2,Win32,59.52380952,,,,,,,,,,,,,,,,,,,,,,,,187.3485,188.2866,a,1,0.2469,,[],[],[],[],[],[],[],0.2469,1,188.2868,188.7895,,,,,,521,MAS,DIS,150,pozo,la,l,188.7898,188.7904,-0.039814815,-0.430555556,0,0,0,,0,49,49,70,1,,,,
,,,,,,1e361e921fd81814619fa0c2,66a626ef09d4e21e1a8894ec,67361f09343d2644a515bc8e,2024-11-14_17h03.02.522,Tarea de género gramatical,2024.2.2,Win32,59.52380952,,,,,,,,,,,,,,,,,,,,,,,,188.794,189.9098,l,1,0.4333,,[],[],[],[],[],[],[],0.4333,1,189.91,190.406,,,,,,710,FEM,DIS,150,barra,el,a,190.4062,190.4068,-0.039814815,-0.430555556,0,0,0,,0,50,50,259,1,,,,
,,,,,,1e361e921fd81814619fa0c2,66a626ef09d4e21e1a8894ec,67361f09343d2644a515bc8e,2024-11-14_17h03.02.522,Tarea de género gramatical,2024.2.2,Win32,59.52380952,,,,,,,,,,,,,,,,,,,,,,,,190.4101,191.3937,a,1,0.32,,[],[],[],[],[],[],[],0.32,1,191.394,191.8895,,,,,,755,MAS,DIS,150,hombre,la,l,191.8954,191.8986,-0.039814815,-0.430555556,0,0,0,,0,51,51,304,1,,,,
,,,,,,1e361e921fd81814619fa0c2,66a626ef09d4e21e1a8894ec,67361f09343d2644a515bc8e,2024-11-14_17h03.02.522,Tarea de género gramatical,2024.2.2,Win32,59.52380952,,,,,,,,,,,,,,,,,,,,,,,,191.902,192.9419,a,1,0.3741,,[],[],[],[],[],[],[],0.3741,1,192.9421,193.4349,,,,,,880,MAS,CON,150,título,,l,193.435,193.4355,-0.039814815,-0.430555556,0,0,0,,0,52,52,429,1,,,,
,,,,,,1e361e921fd81814619fa0c2,66a626ef09d4e21e1a8894ec,67361f09343d2644a515bc8e,2024-11-14_17h03.02.522,Tarea de género gramatical,2024.2.2,Win32,59.52380952,,,,,,,,,,,,,,,,,,,,,,,,193.4384,194.3719,a,1,0.2486,,[],[],[],[],[],[],[],0.2486,1,194.3723,194.8733,,,,,,648,MAS,AGR,150,hotel,el,l,194.8734,194.874,-0.039814815,-0.430555556,0,0,0,,0,53,53,197,1,,,,
,,,,,,1e361e921fd81814619fa0c2,66a626ef09d4e21e1a8894ec,67361f09343d2644a515bc8e,2024-11-14_17h03.02.522,Tarea de género gramatical,2024.2.2,Win32,59.52380952,,,,,,,,,,,,,,,,,,,,,,,,194.8777,195.8275,a,0,0.2723,,[],[],[],[],[],[],[],0.2723,0,195.8299,196.3247,,,,,,777,FEM,AGR,150,tienda,la,a,196.3248,196.3254,-0.039814815,-0.430555556,0,0,0,,0,54,54,326,1,,,,
,,,,,,1e361e921fd81814619fa0c2,66a626ef09d4e21e1a8894ec,67361f09343d2644a515bc8e,2024-11-14_17h03.02.522,Tarea de género gramatical,2024.2.2,Win32,59.52380952,,,,,,,,,,,,,,,,,,,,,,,,196.3291,197.4997,l,1,0.4888,,[],[],[],[],[],[],[],0.4888,1,197.5017,197.9937,,,,,,559,FEM,CON,150,gota,,a,197.9939,197.9945,-0.039814815,-0.430555556,0,0,0,,0,55,55,108,1,,,,
,,,,,,1e361e921fd81814619fa0c2,66a626ef09d4e21e1a8894ec,67361f09343d2644a515bc8e,2024-11-14_17h03.02.522,Tarea de género gramatical,2024.2.2,Win32,59.52380952,,,,,,,,,,,,,,,,,,,,,,,,197.9982,199.0105,l,1,0.3183,,[],[],[],[],[],[],[],0.3183,1,199.0109,199.5085,,,,,,463,FEM,CON,150,hija,,a,199.5146,199.5173,-0.039814815,-0.430555556,0,0,0,,0,56,56,12,1,,,,
,,,,,,1e361e921fd81814619fa0c2,66a626ef09d4e21e1a8894ec,67361f09343d2644a515bc8e,2024-11-14_17h03.02.522,Tarea de género gramatical,2024.2.2,Win32,59.52380952,,,,,,,,,,,,,,,,,,,,,,,,199.5198,200.5288,l,1,0.3286,,[],[],[],[],[],[],[],0.3286,1,200.5291,201.0095,,,,,,626,FEM,DIS,150,línea,el,a,201.0096,201.0101,-0.039814815,-0.430555556,0,0,0,,0,57,57,175,1,,,,
,,,,,,1e361e921fd81814619fa0c2,66a626ef09d4e21e1a8894ec,67361f09343d2644a515bc8e,2024-11-14_17h03.02.522,Tarea de género gramatical,2024.2.2,Win32,59.52380952,,,,,,,,,,,,,,,,,,,,,,,,201.0131,201.9745,l,1,0.2836,,[],[],[],[],[],[],[],0.2836,1,201.9748,202.4409,,,,,,739,FEM,CON,150,tabla,,a,202.441,202.4413,-0.039814815,-0.430555556,0,0,0,,0,58,58,288,1,,,,
,,,,,,1e361e921fd81814619fa0c2,66a626ef09d4e21e1a8894ec,67361f09343d2644a515bc8e,2024-11-14_17h03.02.522,Tarea de género gramatical,2024.2.2,Win32,59.52380952,,,,,,,,,,,,,,,,,,,,,,,,202.4438,203.4413,a,1,0.318,,[],[],[],[],[],[],[],0.318,1,203.4418,203.9298,,,,,,557,MAS,DIS,150,cubo,la,l,203.9299,203.9302,-0.039814815,-0.430555556,0,0,0,,0,59,59,106,1,,,,
,,,,,,1e361e921fd81814619fa0c2,66a626ef09d4e21e1a8894ec,67361f09343d2644a515bc8e,2024-11-14_17h03.02.522,Tarea de género gramatical,2024.2.2,Win32,59.52380952,,,,,,,,,,,,,,,,,,,,,,,,203.9323,205.0191,l,1,0.3924,,[],[],[],[],[],[],[],0.3924,1,205.0194,205.5177,,,,,,835,FEM,CON,150,muñeca,,a,205.5227,205.5265,-0.039814815,-0.430555556,0,0,0,,0,60,60,384,1,,,,
,,,,,,1e361e921fd81814619fa0c2,66a626ef09d4e21e1a8894ec,67361f09343d2644a515bc8e,2024-11-14_17h03.02.522,Tarea de género gramatical,2024.2.2,Win32,59.52380952,,,,,,,,,,,,,,,,,,,,,,,,205.5294,206.6261,a,1,0.423,,[],[],[],[],[],[],[],0.423,1,206.6265,207.1062,,,,,,748,MAS,CON,150,botón,,l,207.1066,207.1072,-0.039814815,-0.430555556,0,0,0,,0,61,61,297,1,,,,
,,,,,,1e361e921fd81814619fa0c2,66a626ef09d4e21e1a8894ec,67361f09343d2644a515bc8e,2024-11-14_17h03.02.522,Tarea de género gramatical,2024.2.2,Win32,59.52380952,,,,,,,,,,,,,,,,,,,,,,,,207.1102,208.1544,a,1,0.3662,,[],[],[],[],[],[],[],0.3662,1,208.1546,208.6603,,,,,,604,MAS,CON,150,padre,,l,208.6604,208.6609,-0.039814815,-0.430555556,0,0,0,,0,62,62,153,1,,,,
,,,,,,1e361e921fd81814619fa0c2,66a626ef09d4e21e1a8894ec,67361f09343d2644a515bc8e,2024-11-14_17h03.02.522,Tarea de género gramatical,2024.2.2,Win32,59.52380952,,,,,,,,,,,,,,,,,,,,,,,,208.6643,209.8355,a,1,0.4942,,[],[],[],[],[],[],[],0.4942,1,209.8356,210.3241,,,,,,690,MAS,AGR,150,ruido,el,l,210.3242,210.3246,-0.039814815,-0.430555556,0,0,0,,0,63,63,239,1,,,,
,,,,,,1e361e921fd81814619fa0c2,66a626ef09d4e21e1a8894ec,67361f09343d2644a515bc8e,2024-11-14_17h03.02.522,Tarea de género gramatical,2024.2.2,Win32,59.52380952,,,,,,,,,,,,,,,,,,,,,,,,210.3274,211.3925,a,1,0.3869,,[],[],[],[],[],[],[],0.3869,1,211.3927,211.8918,,,,,,809,MAS,DIS,150,bosque,la,l,211.892,211.8927,-0.039814815,-0.430555556,0,0,0,,0,64,64,358,1,,,,
,,,,,,1e361e921fd81814619fa0c2,66a626ef09d4e21e1a8894ec,67361f09343d2644a515bc8e,2024-11-14_17h03.02.522,Tarea de género gramatical,2024.2.2,Win32,59.52380952,,,,,,,,,,,,,,,,,,,,,,,,211.8963,212.9243,l,1,0.3508,,[],[],[],[],[],[],[],0.3508,1,212.9246,213.4097,,,,,,609,FEM,AGR,150,clase,la,a,213.4128,213.4146,-0.039814815,-0.430555556,0,0,0,,0,65,65,158,1,,,,
,,,,,,1e361e921fd81814619fa0c2,66a626ef09d4e21e1a8894ec,67361f09343d2644a515bc8e,2024-11-14_17h03.02.522,Tarea de género gramatical,2024.2.2,Win32,59.52380952,,,,,,,,,,,,,,,,,,,,,,,,213.4168,214.4972,l,1,0.4034,,[],[],[],[],[],[],[],0.4034,1,214.4974,214.9953,,,,,,895,FEM,CON,150,bondad,,a,214.9955,214.9959,-0.039814815,-0.430555556,0,0,0,,0,66,66,444,1,,,,
,,,,,,1e361e921fd81814619fa0c2,66a626ef09d4e21e1a8894ec,67361f09343d2644a515bc8e,2024-11-14_17h03.02.522,Tarea de género gramatical,2024.2.2,Win32,59.52380952,,,,,,,,,,,,,,,,,,,,,,,,214.9994,216.0099,a,1,0.3179,,[],[],[],[],[],[],[],0.3179,1,216.0101,216.5061,,,,,,706,MAS,CON,150,techo,,l,216.5062,216.5067,-0.039814815,-0.430555556,0,0,0,,0,67,67,255,1,,,,
,,,,,,1e361e921fd81814619fa0c2,66a626ef09d4e21e1a8894ec,67361f09343d2644a515bc8e,2024-11-14_17h03.02.522,Tarea de género gramatical,2024.2.2,Win32,59.52380952,,,,,,,,,,,,,,,,,,,,,,,,216.5096,217.804,l,1,0.5978,,[],[],[],[],[],[],[],0.5978,1,217.8042,218.3235,,,,,,890,FEM,DIS,150,patada,el,a,218.3236,218.3241,-0.039814815,-0.430555556,0,0,0,,0,68,68,439,1,,,,
,,,,,,1e361e921fd81814619fa0c2,66a626ef09d4e21e1a8894ec,67361f09343d2644a515bc8e,2024-11-14_17h03.02.522,Tarea de género gramatical,2024.2.2,Win32,59.52380952,,,,,,,,,,,,,,,,,,,,,,,,218.3277,219.5245,l,1,0.5317,,[],[],[],[],[],[],[],0.5317,1,219.5248,220.0225,,,,,,627,FEM,AGR,150,broma,la,a,220.0265,220.0289,-0.039814815,-0.430555556,0,0,0,,0,69,69,176,1,,,,
,,,,,,1e361e921fd81814619fa0c2,66a626ef09d4e21e1a8894ec,67361f09343d2644a515bc8e,2024-11-14_17h03.02.522,Tarea de género gramatical,2024.2.2,Win32,59.52380952,,,,,,,,,,,,,,,,,,,,,,,,220.0312,221.6431,l,1,0.9416,,[],[],[],[],[],[],[],0.9416,1,221.6433,222.1366,,,,,,722,FEM,DIS,150,oreja,el,a,222.1369,222.1372,-0.039814815,-0.430555556,0,0,0,,0,70,70,271,1,,,,
,,,,,,1e361e921fd81814619fa0c2,66a626ef09d4e21e1a8894ec,67361f09343d2644a515bc8e,2024-11-14_17h03.02.522,Tarea de género gramatical,2024.2.2,Win32,59.52380952,,,,,,,,,,,,,,,,,,,,,,,,222.1414,223.1934,l,1,0.3832,,[],[],[],[],[],[],[],0.3832,1,223.1937,223.6945,,,,,,681,FEM,AGR,150,bruja,la,a,223.6947,223.6951,-0.039814815,-0.430555556,0,0,0,,0,71,71,230,1,,,,
,,,,,,1e361e921fd81814619fa0c2,66a626ef09d4e21e1a8894ec,67361f09343d2644a515bc8e,2024-11-14_17h03.02.522,Tarea de género gramatical,2024.2.2,Win32,59.52380952,,,,,,,,,,,,,,,,,,,,,,,,223.6982,224.7489,a,1,0.3675,,[],[],[],[],[],[],[],0.3675,1,224.7491,225.2411,,,,,,810,MAS,AGR,150,puente,el,l,225.2414,225.2419,-0.039814815,-0.430555556,0,0,0,,0,72,72,359,1,,,,
,,,,,,1e361e921fd81814619fa0c2,66a626ef09d4e21e1a8894ec,67361f09343d2644a515bc8e,2024-11-14_17h03.02.522,Tarea de género gramatical,2024.2.2,Win32,59.52380952,,,,,,,,,,,,,,,,,,,,,,,,225.2453,226.2191,l,1,0.2775,,[],[],[],[],[],[],[],0.2775,1,226.2193,226.7078,,,,,,673,FEM,CON,150,plata,,a,226.7079,226.7084,-0.039814815,-0.430555556,0,0,0,,0,73,73,222,1,,,,
,,,,,,1e361e921fd81814619fa0c2,66a626ef09d4e21e1a8894ec,67361f09343d2644a515bc8e,2024-11-14_17h03.02.522,Tarea de género gramatical,2024.2.2,Win32,59.52380952,,,,,,,,,,,,,,,,,,,,,,,,226.712,227.6851,a,1,0.2843,,[],[],[],[],[],[],[],0.2843,1,227.6853,228.1745,,,,,,676,MAS,CON,150,color,,l,228.1799,228.1831,-0.039814815,-0.430555556,0,0,0,,0,74,74,225,1,,,,
,,,,,,1e361e921fd81814619fa0c2,66a626ef09d4e21e1a8894ec,67361f09343d2644a515bc8e,2024-11-14_17h03.02.522,Tarea de género gramatical,2024.2.2,Win32,59.52380952,,,,,,,,,,,,,,,,,,,,,,,,228.1855,229.1922,a,1,0.3175,,[],[],[],[],[],[],[],0.3175,1,229.1925,229.675,,,,,,622,MAS,CON,150,poder,,l,229.6752,229.6756,-0.039814815,-0.430555556,0,0,0,,0,75,75,171,1,,,,
,,,,,,1e361e921fd81814619fa0c2,66a626ef09d4e21e1a8894ec,67361f09343d2644a515bc8e,2024-11-14_17h03.02.522,Tarea de género gramatical,2024.2.2,Win32,59.52380952,,,,,,,,,,,,,,,,,,,,,,,,229.6792,230.6981,a,1,0.3288,,[],[],[],[],[],[],[],0.3288,1,230.6983,231.2076,,,,,,654,MAS,AGR,150,papel,el,l,231.2077,231.208,-0.039814815,-0.430555556,0,0,0,,0,76,76,203,1,,,,
,,,,,,1e361e921fd81814619fa0c2,66a626ef09d4e21e1a8894ec,67361f09343d2644a515bc8e,2024-11-14_17h03.02.522,Tarea de género gramatical,2024.2.2,Win32,59.52380952,,,,,,,,,,,,,,,,,,,,,,,,231.2108,232.208,l,1,0.3294,,[],[],[],[],[],[],[],0.3294,1,232.2082,232.7056,,,,,,867,FEM,AGR,150,cabaña,la,a,232.7058,232.7065,-0.039814815,-0.430555556,0,0,0,,0,77,77,416,1,,,,
,,,,,,1e361e921fd81814619fa0c2,66a626ef09d4e21e1a8894ec,67361f09343d2644a515bc8e,2024-11-14_17h03.02.522,Tarea de género gramatical,2024.2.2,Win32,59.52380952,,,,,,,,,,,,,,,,,,,,,,,,232.7102,234.2693,l,1,0.8794,,[],[],[],[],[],[],[],0.8794,1,234.2695,234.7594,,,,,,728,FEM,DIS,150,presa,el,a,234.7644,234.767,-0.039814815,-0.430555556,0,0,0,,0,78,78,277,1,,,,
,,,,,,1e361e921fd81814619fa0c2,66a626ef09d4e21e1a8894ec,67361f09343d2644a515bc8e,2024-11-14_17h03.02.522,Tarea de género gramatical,2024.2.2,Win32,59.52380952,,,,,,,,,,,,,,,,,,,,,,,,234.7689,236.205,l,1,0.7493,,[],[],[],[],[],[],[],0.7493,1,236.2054,236.6938,,,,,,746,FEM,DIS,150,feria,el,a,236.694,236.6945,-0.039814815,-0.430555556,0,0,0,,0,79,79,295,1,,,,
,,,,,,1e361e921fd81814619fa0c2,66a626ef09d4e21e1a8894ec,67361f09343d2644a515bc8e,2024-11-14_17h03.02.522,Tarea de género gramatical,2024.2.2,Win32,59.52380952,,,,,,,,,,,,,,,,,,,,,,,,236.698,237.8107,l,1,0.4393,,[],[],[],[],[],[],[],0.4393,1,237.8111,238.307,,,,,,571,FEM,CON,150,pila,,a,238.3072,238.3077,-0.039814815,-0.430555556,0,0,0,,0,80,80,120,1,,,,
,,,,,,1e361e921fd81814619fa0c2,66a626ef09d4e21e1a8894ec,67361f09343d2644a515bc8e,2024-11-14_17h03.02.522,Tarea de género gramatical,2024.2.2,Win32,59.52380952,,,,,,,,,,,,,,,,,,,,,,,,238.3119,239.4901,a,1,0.4999,,[],[],[],[],[],[],[],0.4999,1,239.4904,240.0058,,,,,,786,MAS,AGR,150,crimen,el,l,240.0059,240.0062,-0.039814815,-0.430555556,0,0,0,,0,81,81,335,1,,,,
,,,,,,1e361e921fd81814619fa0c2,66a626ef09d4e21e1a8894ec,67361f09343d2644a515bc8e,2024-11-14_17h03.02.522,Tarea de género gramatical,2024.2.2,Win32,59.52380952,,,,,,,,,,,,,,,,,,,,,,,,240.0091,240.9935,l,1,0.3221,,[],[],[],[],[],[],[],0.3221,1,240.9939,241.4831,,,,,,543,FEM,AGR,150,lata,la,a,241.4833,241.4837,-0.039814815,-0.430555556,0,0,0,,0,82,82,92,1,,,,
,,,,,,1e361e921fd81814619fa0c2,66a626ef09d4e21e1a8894ec,67361f09343d2644a515bc8e,2024-11-14_17h03.02.522,Tarea de género gramatical,2024.2.2,Win32,59.52380952,,,,,,,,,,,,,,,,,,,,,,,,241.4865,242.6415,a,1,0.4726,,[],[],[],[],[],[],[],0.4726,1,242.6417,243.1352,,,,,,533,MAS,DIS,150,nene,la,l,243.1384,243.1408,-0.039814815,-0.430555556,0,0,0,,0,83,83,82,1,,,,
,,,,,,1e361e921fd81814619fa0c2,66a626ef09d4e21e1a8894ec,67361f09343d2644a515bc8e,2024-11-14_17h03.02.522,Tarea de género gramatical,2024.2.2,Win32,59.52380952,,,,,,,,,,,,,,,,,,,,,,,,243.1435,244.1445,a,1,0.3165,,[],[],[],[],[],[],[],0.3165,1,244.1447,244.6409,,,,,,678,MAS,AGR,150,nivel,el,l,244.641,244.6413,-0.039814815,-0.430555556,0,0,0,,0,84,84,227,1,,,,
,,,,,,1e361e921fd81814619fa0c2,66a626ef09d4e21e1a8894ec,67361f09343d2644a515bc8e,2024-11-14_17h03.02.522,Tarea de género gramatical,2024.2.2,Win32,59.52380952,,,,,,,,,,,,,,,,,,,,,,,,244.6453,245.6902,l,1,0.3712,,[],[],[],[],[],[],[],0.3712,1,245.6904,246.1772,,,,,,819,FEM,AGR,150,camisa,la,a,246.1774,246.1779,-0.039814815,-0.430555556,0,0,0,,0,85,85,368,1,,,,
,,,,,,1e361e921fd81814619fa0c2,66a626ef09d4e21e1a8894ec,67361f09343d2644a515bc8e,2024-11-14_17h03.02.522,Tarea de género gramatical,2024.2.2,Win32,59.52380952,,,,,,,,,,,,,,,,,,,,,,,,246.1811,247.2057,a,1,0.3327,,[],[],[],[],[],[],[],0.3327,1,247.206,247.7087,,,,,,737,MAS,DIS,150,plato,la,l,247.7088,247.7092,-0.039814815,-0.430555556,0,0,0,,0,86,86,286,1,,,,
,,,,,,1e361e921fd81814619fa0c2,66a626ef09d4e21e1a8894ec,67361f09343d2644a515bc8e,2024-11-14_17h03.02.522,Tarea de género gramatical,2024.2.2,Win32,59.52380952,,,,,,,,,,,,,,,,,,,,,,,,247.712,248.7373,l,1,0.3509,,[],[],[],[],[],[],[],0.3509,1,248.7375,249.241,,,,,,705,FEM,AGR,150,tribu,la,a,249.2465,249.2495,-0.039814815,-0.430555556,0,0,0,,0,87,87,254,1,,,,
,,,,,,1e361e921fd81814619fa0c2,66a626ef09d4e21e1a8894ec,67361f09343d2644a515bc8e,2024-11-14_17h03.02.522,Tarea de género gramatical,2024.2.2,Win32,59.52380952,,,,,,,,,,,,,,,,,,,,,,,,249.252,250.3106,l,0,0.3744,,[],[],[],[],[],[],[],0.3744,0,250.3128,250.792,,,,,,520,MAS,CON,150,palo,,l,250.7921,250.7926,-0.039814815,-0.430555556,0,0,0,,0,88,88,69,1,,,,
,,,,,,1e361e921fd81814619fa0c2,66a626ef09d4e21e1a8894ec,67361f09343d2644a515bc8e,2024-11-14_17h03.02.522,Tarea de género gramatical,2024.2.2,Win32,59.52380952,,,,,,,,,,,,,,,,,,,,,,,,250.7951,251.9192,a,0,0.4459,,[],[],[],[],[],[],[],0.4459,0,251.9194,252.4144,,,,,,871,FEM,CON,150,novela,,a,252.4145,252.415,-0.039814815,-0.430555556,0,0,0,,0,89,89,420,1,,,,
,,,,,,1e361e921fd81814619fa0c2,66a626ef09d4e21e1a8894ec,67361f09343d2644a515bc8e,2024-11-14_17h03.02.522,Tarea de género gramatical,2024.2.2,Win32,59.52380952,,,,,,,,,,,,,,,,,,,,,,,,252.4175,253.6123,a,1,0.5132,,[],[],[],[],[],[],[],0.5132,1,253.6149,254.1105,,,,,,886,MAS,CON,150,objeto,,l,254.1107,254.1112,-0.039814815,-0.430555556,0,0,0,,0,90,90,435,1,,,,
,,,,,,1e361e921fd81814619fa0c2,66a626ef09d4e21e1a8894ec,67361f09343d2644a515bc8e,2024-11-14_17h03.02.522,Tarea de género gramatical,2024.2.2,Win32,59.52380952,,,,,,,,,,,,,,,,,,,,,,,,254.1151,255.1125,a,1,0.3055,,[],[],[],[],[],[],[],0.3055,1,255.1128,255.6033,,,,,,486,MAS,AGR,150,dedo,el,l,255.6035,255.6039,-0.039814815,-0.430555556,0,0,0,,0,91,91,35,1,,,,
,,,,,,1e361e921fd81814619fa0c2,66a626ef09d4e21e1a8894ec,67361f09343d2644a515bc8e,2024-11-14_17h03.02.522,Tarea de género gramatical,2024.2.2,Win32,59.52380952,,,,,,,,,,,,,,,,,,,,,,,,255.608,256.5592,l,1,0.2696,,[],[],[],[],[],[],[],0.2696,1,256.5593,257.0557,,,,,,855,FEM,AGR,150,parada,la,a,257.0596,257.0621,-0.039814815,-0.430555556,0,0,0,,0,92,92,404,1,,,,
,,,,,,1e361e921fd81814619fa0c2,66a626ef09d4e21e1a8894ec,67361f09343d2644a515bc8e,2024-11-14_17h03.02.522,Tarea de género gramatical,2024.2.2,Win32,59.52380952,,,,,,,,,,,,,,,,,,,,,,,,257.0644,258.1239,l,1,0.3816,,[],[],[],[],[],[],[],0.3816,1,258.1241,258.6026,,,,,,811,FEM,CON,150,oferta,,a,258.6027,258.6031,-0.039814815,-0.430555556,0,0,0,,0,93,93,360,1,,,,
,,,,,,1e361e921fd81814619fa0c2,66a626ef09d4e21e1a8894ec,67361f09343d2644a515bc8e,2024-11-14_17h03.02.522,Tarea de género gramatical,2024.2.2,Win32,59.52380952,,,,,,,,,,,,,,,,,,,,,,,,258.6051,259.6393,a,0,0.3505,,[],[],[],[],[],[],[],0.3505,0,259.6467,260.1401,,,,,,499,FEM,CON,150,piel,,a,260.1402,260.1407,-0.039814815,-0.430555556,0,0,0,,0,94,94,48,1,,,,
,,,,,,1e361e921fd81814619fa0c2,66a626ef09d4e21e1a8894ec,67361f09343d2644a515bc8e,2024-11-14_17h03.02.522,Tarea de género gramatical,2024.2.2,Win32,59.52380952,,,,,,,,,,,,,,,,,,,,,,,,260.1453,261.2734,a,1,0.4502,,[],[],[],[],[],[],[],0.4502,1,261.276,261.7641,,,,,,684,MAS,AGR,150,héroe,el,l,261.7642,261.7645,-0.039814815,-0.430555556,0,0,0,,0,95,95,233,1,,,,
,,,,,,1e361e921fd81814619fa0c2,66a626ef09d4e21e1a8894ec,67361f09343d2644a515bc8e,2024-11-14_17h03.02.522,Tarea de género gramatical,2024.2.2,Win32,59.52380952,,,,,,,,,,,,,,,,,,,,,,,,261.7665,262.9285,a,1,0.473,,[],[],[],[],[],[],[],0.473,1,262.9286,263.4253,,,,,,738,MAS,AGR,150,grado,el,l,263.4306,263.4337,-0.039814815,-0.430555556,0,0,0,,0,96,96,287,1,,,,
,,,,,,1e361e921fd81814619fa0c2,66a626ef09d4e21e1a8894ec,67361f09343d2644a515bc8e,2024-11-14_17h03.02.522,Tarea de género gramatical,2024.2.2,Win32,59.52380952,,,,,,,,,,,,,,,,,,,,,,,,263.4365,264.4748,a,1,0.3467,,[],[],[],[],[],[],[],0.3467,1,264.4752,264.9733,,,,,,480,MAS,AGR,150,cine,el,l,264.9735,264.9742,-0.039814815,-0.430555556,0,0,0,,0,97,97,29,1,,,,
,,,,,,1e361e921fd81814619fa0c2,66a626ef09d4e21e1a8894ec,67361f09343d2644a515bc8e,2024-11-14_17h03.02.522,Tarea de género gramatical,2024.2.2,Win32,59.52380952,,,,,,,,,,,,,,,,,,,,,,,,264.9782,266.3082,a,1,0.6607,,[],[],[],[],[],[],[],0.6607,1,266.3084,266.7845,,,,,,677,MAS,DIS,150,vuelo,la,l,266.7846,266.7852,-0.039814815,-0.430555556,0,0,0,,0,98,98,226,1,,,,
,,,,,,1e361e921fd81814619fa0c2,66a626ef09d4e21e1a8894ec,67361f09343d2644a515bc8e,2024-11-14_17h03.02.522,Tarea de género gramatical,2024.2.2,Win32,59.52380952,,,,,,,,,,,,,,,,,,,,,,,,266.7885,267.7532,l,1,0.2846,,[],[],[],[],[],[],[],0.2846,1,267.7537,268.2566,,,,,,723,FEM,AGR,150,tarta,la,a,268.2567,268.2573,-0.039814815,-0.430555556,0,0,0,,0,99,99,272,1,,,,
,,,,,,1e361e921fd81814619fa0c2,66a626ef09d4e21e1a8894ec,67361f09343d2644a515bc8e,2024-11-14_17h03.02.522,Tarea de género gramatical,2024.2.2,Win32,59.52380952,,,,,,,,,,,,,,,,,,,,,,,,268.2607,269.5701,a,1,0.6284,,[],[],[],[],[],[],[],0.6284,1,269.5704,270.0701,,,,,,551,MAS,DIS,150,giro,la,l,270.0702,270.0707,-0.039814815,-0.430555556,0,0,0,,0,100,100,100,1,,,,
,,,,,,1e361e921fd81814619fa0c2,66a626ef09d4e21e1a8894ec,67361f09343d2644a515bc8e,2024-11-14_17h03.02.522,Tarea de género gramatical,2024.2.2,Win32,59.52380952,,,,,,,,,,,,,,,,,,,,,,,,270.0747,271.3291,a,1,0.5856,,[],[],[],[],[],[],[],0.5856,1,271.3293,271.8185,,,,,,887,MAS,DIS,150,hombro,la,l,271.8226,271.8249,-0.039814815,-0.430555556,0,0,0,,0,101,101,436,1,,,,
,,,,,,1e361e921fd81814619fa0c2,66a626ef09d4e21e1a8894ec,67361f09343d2644a515bc8e,2024-11-14_17h03.02.522,Tarea de género gramatical,2024.2.2,Win32,59.52380952,,,,,,,,,,,,,,,,,,,,,,,,271.8265,272.8176,a,1,0.3251,,[],[],[],[],[],[],[],0.3251,1,272.8179,273.3076,,,,,,814,MAS,CON,150,viento,,l,273.3077,273.3081,-0.039814815,-0.430555556,0,0,0,,0,102,102,363,1,,,,
,,,,,,1e361e921fd81814619fa0c2,66a626ef09d4e21e1a8894ec,67361f09343d2644a515bc8e,2024-11-14_17h03.02.522,Tarea de género gramatical,2024.2.2,Win32,59.52380952,,,,,,,,,,,,,,,,,,,,,,,,273.3119,274.3768,a,1,0.3876,,[],[],[],[],[],[],[],0.3876,1,274.377,274.8611,,,,,,779,MAS,DIS,150,futuro,la,l,274.8611,274.8615,-0.039814815,-0.430555556,0,0,0,,0,103,103,328,1,,,,
,,,,,,1e361e921fd81814619fa0c2,66a626ef09d4e21e1a8894ec,67361f09343d2644a515bc8e,2024-11-14_17h03.02.522,Tarea de género gramatical,2024.2.2,Win32,59.52380952,,,,,,,,,,,,,,,,,,,,,,,,274.8651,276.0479,l,1,0.5087,,[],[],[],[],[],[],[],0.5087,1,276.0481,276.5565,,,,,,830,FEM,DIS,150,madera,el,a,276.5567,276.5573,-0.039814815,-0.430555556,0,0,0,,0,104,104,379,1,,,,
,,,,,,1e361e921fd81814619fa0c2,66a626ef09d4e21e1a8894ec,67361f09343d2644a515bc8e,2024-11-14_17h03.02.522,Tarea de género gramatical,2024.2.2,Win32,59.52380952,,,,,,,,,,,,,,,,,,,,,,,,276.5607,277.6745,a,1,0.4395,,[],[],[],[],[],[],[],0.4395,1,277.6748,278.1577,,,,,,834,MAS,AGR,150,pedazo,el,l,278.1633,278.1661,-0.039814815,-0.430555556,0,0,0,,0,105,105,383,1,,,,
,,,,,,1e361e921fd81814619fa0c2,66a626ef09d4e21e1a8894ec,67361f09343d2644a515bc8e,2024-11-14_17h03.02.522,Tarea de género gramatical,2024.2.2,Win32,59.52380952,,,,,,,,,,,,,,,,,,,,,,,,278.1684,279.2244,l,1,0.3856,,[],[],[],[],[],[],[],0.3856,1,279.2247,279.7234,,,,,,655,FEM,CON,150,reina,,a,279.7235,279.724,-0.039814815,-0.430555556,0,0,0,,0,106,106,204,1,,,,
,,,,,,1e361e921fd81814619fa0c2,66a626ef09d4e21e1a8894ec,67361f09343d2644a515bc8e,2024-11-14_17h03.02.522,Tarea de género gramatical,2024.2.2,Win32,59.52380952,,,,,,,,,,,,,,,,,,,,,,,,279.7273,280.7738,a,1,0.366,,[],[],[],[],[],[],[],0.366,1,280.774,281.2746,,,,,,768,MAS,AGR,150,pueblo,el,l,281.2748,281.2752,-0.039814815,-0.430555556,0,0,0,,0,107,107,317,1,,,,
,,,,,,1e361e921fd81814619fa0c2,66a626ef09d4e21e1a8894ec,67361f09343d2644a515bc8e,2024-11-14_17h03.02.522,Tarea de género gramatical,2024.2.2,Win32,59.52380952,,,,,,,,,,,,,,,,,,,,,,,,281.2787,282.3427,a,1,0.3809,,[],[],[],[],[],[],[],0.3809,1,282.3429,282.8388,,,,,,778,MAS,CON,150,asunto,,l,282.8389,282.8392,-0.039814815,-0.430555556,0,0,0,,0,108,108,327,1,,,,
,,,,,,1e361e921fd81814619fa0c2,66a626ef09d4e21e1a8894ec,67361f09343d2644a515bc8e,2024-11-14_17h03.02.522,Tarea de género gramatical,2024.2.2,Win32,59.52380952,,,,,,,,,,,,,,,,,,,,,,,,282.8421,284.1774,l,1,0.6572,,[],[],[],[],[],[],[],0.6572,1,284.1777,284.6933,,,,,,548,FEM,DIS,150,fuga,el,a,284.6934,284.6936,-0.039814815,-0.430555556,0,0,0,,0,109,109,97,1,,,,
,,,,,,1e361e921fd81814619fa0c2,66a626ef09d4e21e1a8894ec,67361f09343d2644a515bc8e,2024-11-14_17h03.02.522,Tarea de género gramatical,2024.2.2,Win32,59.52380952,,,,,,,,,,,,,,,,,,,,,,,,284.6969,285.8276,a,1,0.4428,,[],[],[],[],[],[],[],0.4428,1,285.8279,286.3194,,,,,,563,MAS,DIS,150,toro,la,l,286.3249,286.3283,-0.039814815,-0.430555556,0,0,0,,0,110,110,112,1,,,,
,,,,,,1e361e921fd81814619fa0c2,66a626ef09d4e21e1a8894ec,67361f09343d2644a515bc8e,2024-11-14_17h03.02.522,Tarea de género gramatical,2024.2.2,Win32,59.52380952,,,,,,,,,,,,,,,,,,,,,,,,286.3309,287.3195,a,1,0.3112,,[],[],[],[],[],[],[],0.3112,1,287.3198,287.8143,,,,,,802,MAS,CON,150,estilo,,l,287.8145,287.8149,-0.039814815,-0.430555556,0,0,0,,0,111,111,351,1,,,,
,,,,,,1e361e921fd81814619fa0c2,66a626ef09d4e21e1a8894ec,67361f09343d2644a515bc8e,2024-11-14_17h03.02.522,Tarea de género gramatical,2024.2.2,Win32,59.52380952,,,,,,,,,,,,,,,,,,,,,,,,287.8178,288.8249,a,0,0.3343,,[],[],[],[],[],[],[],0.3343,0,288.8277,289.3235,,,,,,601,FEM,CON,150,noche,,a,289.3236,289.3241,-0.039814815,-0.430555556,0,0,0,,0,112,112,150,1,,,,
,,,,,,1e361e921fd81814619fa0c2,66a626ef09d4e21e1a8894ec,67361f09343d2644a515bc8e,2024-11-14_17h03.02.522,Tarea de género gramatical,2024.2.2,Win32,59.52380952,,,,,,,,,,,,,,,,,,,,,,,,289.3275,290.5109,l,1,0.5045,,[],[],[],[],[],[],[],0.5045,1,290.5139,291.0054,,,,,,530,FEM,DIS,150,vaca,el,a,291.0055,291.0059,-0.039814815,-0.430555556,0,0,0,,0,113,113,79,1,,,,
,,,,,,1e361e921fd81814619fa0c2,66a626ef09d4e21e1a8894ec,67361f09343d2644a515bc8e,2024-11-14_17h03.02.522,Tarea de género gramatical,2024.2.2,Win32,59.52380952,,,,,,,,,,,,,,,,,,,,,,,,291.0097,292.0165,l,1,0.3085,,[],[],[],[],[],[],[],0.3085,1,292.0167,292.5115,,,,,,692,FEM,DIS,150,pizza,el,a,292.5158,292.5188,-0.039814815,-0.430555556,0,0,0,,0,114,114,241,1,,,,
,,,,,,1e361e921fd81814619fa0c2,66a626ef09d4e21e1a8894ec,67361f09343d2644a515bc8e,2024-11-14_17h03.02.522,Tarea de género gramatical,2024.2.2,Win32,59.52380952,,,,,,,,,,,,,,,,,,,,,,,,292.5213,293.5253,a,1,0.3323,,[],[],[],[],[],[],[],0.3323,1,293.5254,294.0301,,,,,,652,MAS,CON,150,honor,,l,294.0302,294.0306,-0.039814815,-0.430555556,0,0,0,,0,115,115,201,1,,,,
,,,,,,1e361e921fd81814619fa0c2,66a626ef09d4e21e1a8894ec,67361f09343d2644a515bc8e,2024-11-14_17h03.02.522,Tarea de género gramatical,2024.2.2,Win32,59.52380952,,,,,,,,,,,,,,,,,,,,,,,,294.0343,295.0947,a,1,0.3684,,[],[],[],[],[],[],[],0.3684,1,295.095,295.5866,,,,,,594,MAS,AGR,150,amor,el,l,295.5867,295.5871,-0.039814815,-0.430555556,0,0,0,,0,116,116,143,1,,,,
,,,,,,1e361e921fd81814619fa0c2,66a626ef09d4e21e1a8894ec,67361f09343d2644a515bc8e,2024-11-14_17h03.02.522,Tarea de género gramatical,2024.2.2,Win32,59.52380952,,,,,,,,,,,,,,,,,,,,,,,,295.5895,296.6157,a,1,0.3615,,[],[],[],[],[],[],[],0.3615,1,296.6159,297.1077,,,,,,820,MAS,CON,150,seguro,,l,297.1078,297.108,-0.039814815,-0.430555556,0,0,0,,0,117,117,369,1,,,,
,,,,,,1e361e921fd81814619fa0c2,66a626ef09d4e21e1a8894ec,67361f09343d2644a515bc8e,2024-11-14_17h03.02.522,Tarea de género gramatical,2024.2.2,Win32,59.52380952,,,,,,,,,,,,,,,,,,,,,,,,297.1105,298.2656,a,1,0.4755,,[],[],[],[],[],[],[],0.4755,1,298.2658,298.7567,,,,,,502,MAS,CON,150,lago,,l,298.7568,298.7573,-0.039814815,-0.430555556,0,0,0,,0,118,118,51,1,,,,
,,,,,,1e361e921fd81814619fa0c2,66a626ef09d4e21e1a8894ec,67361f09343d2644a515bc8e,2024-11-14_17h03.02.522,Tarea de género gramatical,2024.2.2,Win32,59.52380952,,,,,,,,,,,,,,,,,,,,,,,,298.7612,299.7424,l,1,0.2994,,[],[],[],[],[],[],[],0.2994,1,299.7427,300.2321,,,,,,614,FEM,DIS,150,novia,el,a,300.2365,300.2389,-0.039814815,-0.430555556,0,0,0,,0,119,119,163,1,,,,
,,,,,,1e361e921fd81814619fa0c2,66a626ef09d4e21e1a8894ec,67361f09343d2644a515bc8e,2024-11-14_17h03.02.522,Tarea de género gramatical,2024.2.2,Win32,59.52380952,,,,,,,,,,,,,,,,,,,,,,,,300.2417,301.31,a,1,0.372,,[],[],[],[],[],[],[],0.372,1,301.3102,301.8066,,,,,,468,MAS,AGR,150,tren,el,l,301.8067,301.8072,-0.039814815,-0.430555556,0,0,0,,0,120,120,17,1,,,,
,,,,,,1e361e921fd81814619fa0c2,66a626ef09d4e21e1a8894ec,67361f09343d2644a515bc8e,2024-11-14_17h03.02.522,Tarea de género gramatical,2024.2.2,Win32,59.52380952,,,,,,,,,,,,,,,,,,,,,,,,301.8109,302.8422,l,1,0.3511,,[],[],[],[],[],[],[],0.3511,1,302.8425,303.3558,,,,,,644,FEM,DIS,150,banda,el,a,303.3559,303.3562,-0.039814815,-0.430555556,0,0,0,,0,121,121,193,1,,,,
,,,,,,1e361e921fd81814619fa0c2,66a626ef09d4e21e1a8894ec,67361f09343d2644a515bc8e,2024-11-14_17h03.02.522,Tarea de género gramatical,2024.2.2,Win32,59.52380952,,,,,,,,,,,,,,,,,,,,,,,,303.36,304.5835,a,1,0.5427,,[],[],[],[],[],[],[],0.5427,1,304.5838,305.0731,,,,,,767,MAS,DIS,150,número,la,l,305.0732,305.0735,-0.039814815,-0.430555556,0,0,0,,0,122,122,316,1,,,,
,,,,,,1e361e921fd81814619fa0c2,66a626ef09d4e21e1a8894ec,67361f09343d2644a515bc8e,2024-11-14_17h03.02.522,Tarea de género gramatical,2024.2.2,Win32,59.52380952,,,,,,,,,,,,,,,,,,,,,,,,305.0762,306.1415,a,1,0.3853,,[],[],[],[],[],[],[],0.3853,1,306.1417,306.6366,,,,,,713,MAS,DIS,150,carro,la,l,306.6424,306.6449,-0.039814815,-0.430555556,0,0,0,,0,123,123,262,1,,,,
,,,,,,1e361e921fd81814619fa0c2,66a626ef09d4e21e1a8894ec,67361f09343d2644a515bc8e,2024-11-14_17h03.02.522,Tarea de género gramatical,2024.2.2,Win32,59.52380952,,,,,,,,,,,,,,,,,,,,,,,,306.6471,307.6741,a,1,0.3495,,[],[],[],[],[],[],[],0.3495,1,307.6744,308.1719,,,,,,538,MAS,CON,150,pavo,,l,308.172,308.1722,-0.039814815,-0.430555556,0,0,0,,0,124,124,87,1,,,,
,,,,,,1e361e921fd81814619fa0c2,66a626ef09d4e21e1a8894ec,67361f09343d2644a515bc8e,2024-11-14_17h03.02.522,Tarea de género gramatical,2024.2.2,Win32,59.52380952,,,,,,,,,,,,,,,,,,,,,,,,308.175,309.1293,l,1,0.2766,,[],[],[],[],[],[],[],0.2766,1,309.1296,309.618,,,,,,661,FEM,CON,150,salud,,a,309.6181,309.6183,-0.039814815,-0.430555556,0,0,0,,0,125,125,210,1,,,,
,,,,,,1e361e921fd81814619fa0c2,66a626ef09d4e21e1a8894ec,67361f09343d2644a515bc8e,2024-11-14_17h03.02.522,Tarea de género gramatical,2024.2.2,Win32,59.52380952,,,,,,,,,,,,,,,,,,,,,,,,309.6214,310.7159,a,0,0.3894,,[],[],[],[],[],[],[],0.3894,0,310.7178,311.2407,,,,,,884,FEM,DIS,150,corona,el,a,311.2409,311.2414,-0.039814815,-0.430555556,0,0,0,,0,126,126,433,1,,,,
,,,,,,1e361e921fd81814619fa0c2,66a626ef09d4e21e1a8894ec,67361f09343d2644a515bc8e,2024-11-14_17h03.02.522,Tarea de género gramatical,2024.2.2,Win32,59.52380952,,,,,,,,,,,,,,,,,,,,,,,,311.2446,312.3542,a,1,0.4244,,[],[],[],[],[],[],[],0.4244,1,312.3565,312.8551,,,,,,588,MAS,AGR,150,luto,el,l,312.8552,312.8556,-0.039814815,-0.430555556,0,0,0,,0,127,127,137,1,,,,
,,,,,,1e361e921fd81814619fa0c2,66a626ef09d4e21e1a8894ec,67361f09343d2644a515bc8e,2024-11-14_17h03.02.522,Tarea de género gramatical,2024.2.2,Win32,59.52380952,,,,,,,,,,,,,,,,,,,,,,,,312.8595,313.9275,a,1,0.3896,,[],[],[],[],[],[],[],0.3896,1,313.9277,314.4245,,,,,,575,MAS,DIS,150,bate,la,l,314.4291,314.4322,-0.039814815,-0.430555556,0,0,0,,0,128,128,124,1,,,,
,,,,,,1e361e921fd81814619fa0c2,66a626ef09d4e21e1a8894ec,67361f09343d2644a515bc8e,2024-11-14_17h03.02.522,Tarea de género gramatical,2024.2.2,Win32,59.52380952,,,,,,,,,,,,,,,,,,,,,,,,314.4345,315.4435,a,1,0.3217,,[],[],[],[],[],[],[],0.3217,1,315.4438,315.9268,,,,,,456,MAS,AGR,150,lado,el,l,315.927,315.9274,-0.039814815,-0.430555556,0,0,0,,0,129,129,5,1,,,,
,,,,,,1e361e921fd81814619fa0c2,66a626ef09d4e21e1a8894ec,67361f09343d2644a515bc8e,2024-11-14_17h03.02.522,Tarea de género gramatical,2024.2.2,Win32,59.52380952,,,,,,,,,,,,,,,,,,,,,,,,315.9306,317.03,l,0,0.4048,,[],[],[],[],[],[],[],0.4048,0,317.0324,317.5188,,,,,,850,MAS,CON,150,barrio,,l,317.5189,317.5194,-0.039814815,-0.430555556,0,0,0,,0,130,130,399,1,,,,
,,,,,,1e361e921fd81814619fa0c2,66a626ef09d4e21e1a8894ec,67361f09343d2644a515bc8e,2024-11-14_17h03.02.522,Tarea de género gramatical,2024.2.2,Win32,59.52380952,,,,,,,,,,,,,,,,,,,,,,,,317.5232,318.5746,l,1,0.367,,[],[],[],[],[],[],[],0.367,1,318.5769,319.0691,,,,,,465,FEM,AGR,150,cama,la,a,319.0693,319.0695,-0.039814815,-0.430555556,0,0,0,,0,131,131,14,1,,,,
,,,,,,1e361e921fd81814619fa0c2,66a626ef09d4e21e1a8894ec,67361f09343d2644a515bc8e,2024-11-14_17h03.02.522,Tarea de género gramatical,2024.2.2,Win32,59.52380952,,,,,,,,,,,,,,,,,,,,,,,,319.072,320.1077,l,1,0.3376,,[],[],[],[],[],[],[],0.3376,1,320.108,320.6081,,,,,,770,FEM,DIS,150,fiesta,el,a,320.6135,320.6167,-0.039814815,-0.430555556,0,0,0,,0,132,132,319,1,,,,
,,,,,,1e361e921fd81814619fa0c2,66a626ef09d4e21e1a8894ec,67361f09343d2644a515bc8e,2024-11-14_17h03.02.522,Tarea de género gramatical,2024.2.2,Win32,59.52380952,,,,,,,,,,,,,,,,,,,,,,,,320.6193,321.7081,a,1,0.4241,,[],[],[],[],[],[],[],0.4241,1,321.7084,322.2067,,,,,,893,MAS,DIS,150,templo,la,l,322.2068,322.2071,-0.039814815,-0.430555556,0,0,0,,0,133,133,442,1,,,,
,,,,,,1e361e921fd81814619fa0c2,66a626ef09d4e21e1a8894ec,67361f09343d2644a515bc8e,2024-11-14_17h03.02.522,Tarea de género gramatical,2024.2.2,Win32,59.52380952,,,,,,,,,,,,,,,,,,,,,,,,322.2101,323.3964,a,1,0.4917,,[],[],[],[],[],[],[],0.4917,1,323.3965,323.9071,,,,,,744,MAS,AGR,150,cable,el,l,323.9071,323.9074,-0.039814815,-0.430555556,0,0,0,,0,134,134,293,1,,,,
,,,,,,1e361e921fd81814619fa0c2,66a626ef09d4e21e1a8894ec,67361f09343d2644a515bc8e,2024-11-14_17h03.02.522,Tarea de género gramatical,2024.2.2,Win32,59.52380952,,,,,,,,,,,,,,,,,,,,,,,,323.9104,324.8942,a,0,0.2883,,[],[],[],[],[],[],[],0.2883,0,324.8955,325.3909,,,,,,536,FEM,DIS,150,cruz,el,a,325.391,325.3914,-0.039814815,-0.430555556,0,0,0,,0,135,135,85,1,,,,
,,,,,,1e361e921fd81814619fa0c2,66a626ef09d4e21e1a8894ec,67361f09343d2644a515bc8e,2024-11-14_17h03.02.522,Tarea de género gramatical,2024.2.2,Win32,59.52380952,,,,,,,,,,,,,,,,,,,,,,,,325.394,326.4532,a,1,0.3696,,[],[],[],[],[],[],[],0.3696,1,326.4557,326.9466,,,,,,658,MAS,CON,150,suelo,,l,326.9468,326.9472,-0.039814815,-0.430555556,0,0,0,,0,136,136,207,1,,,,
,,,,,,1e361e921fd81814619fa0c2,66a626ef09d4e21e1a8894ec,67361f09343d2644a515bc8e,2024-11-14_17h03.02.522,Tarea de género gramatical,2024.2.2,Win32,59.52380952,,,,,,,,,,,,,,,,,,,,,,,,326.9505,328.0414,a,1,0.4174,,[],[],[],[],[],[],[],0.4174,1,328.0415,328.5412,,,,,,840,MAS,AGR,150,rostro,el,l,328.5451,328.5476,-0.039814815,-0.430555556,0,0,0,,0,137,137,389,1,,,,
,,,,,,1e361e921fd81814619fa0c2,66a626ef09d4e21e1a8894ec,67361f09343d2644a515bc8e,2024-11-14_17h03.02.522,Tarea de género gramatical,2024.2.2,Win32,59.52380952,,,,,,,,,,,,,,,,,,,,,,,,328.5494,329.4926,a,1,0.2718,,[],[],[],[],[],[],[],0.2718,1,329.493,329.9889,,,,,,636,MAS,AGR,150,error,el,l,329.9891,329.9893,-0.039814815,-0.430555556,0,0,0,,0,138,138,185,1,,,,
,,,,,,1e361e921fd81814619fa0c2,66a626ef09d4e21e1a8894ec,67361f09343d2644a515bc8e,2024-11-14_17h03.02.522,Tarea de género gramatical,2024.2.2,Win32,59.52380952,,,,,,,,,,,,,,,,,,,,,,,,329.9921,330.9898,a,0,0.3185,,[],[],[],[],[],[],[],0.3185,0,330.992,331.4905,,,,,,685,FEM,CON,150,torre,,a,331.4906,331.4909,-0.039814815,-0.430555556,0,0,0,,0,139,139,234,1,,,,
,,,,,,1e361e921fd81814619fa0c2,66a626ef09d4e21e1a8894ec,67361f09343d2644a515bc8e,2024-11-14_17h03.02.522,Tarea de género gramatical,2024.2.2,Win32,59.52380952,,,,,,,,,,,,,,,,,,,,,,,,331.4935,332.5698,a,1,0.4043,,[],[],[],[],[],[],[],0.4043,1,332.5711,333.0747,,,,,,730,MAS,CON,150,salón,,l,333.0748,333.075,-0.039814815,-0.430555556,0,0,0,,0,140,140,279,1,,,,
,,,,,,1e361e921fd81814619fa0c2,66a626ef09d4e21e1a8894ec,67361f09343d2644a515bc8e,2024-11-14_17h03.02.522,Tarea de género gramatical,2024.2.2,Win32,59.52380952,,,,,,,,,,,,,,,,,,,,,,,,333.0775,334.099,l,1,0.3551,,[],[],[],[],[],[],[],0.3551,1,334.0992,334.6061,,,,,,487,FEM,CON,150,sala,,a,334.6116,334.6145,-0.039814815,-0.430555556,0,0,0,,0,141,141,36,1,,,,
,,,,,,1e361e921fd81814619fa0c2,66a626ef09d4e21e1a8894ec,67361f09343d2644a515bc8e,2024-11-14_17h03.02.522,Tarea de género gramatical,2024.2.2,Win32,59.52380952,,,,,,,,,,,,,,,,,,,,,,,,334.617,336.0609,a,1,0.7596,,[],[],[],[],[],[],[],0.7596,1,336.0612,336.5581,,,,,,582,MAS,AGR,150,velo,el,l,336.5583,336.5588,-0.039814815,-0.430555556,0,0,0,,0,142,142,131,1,,,,
,,,,,,1e361e921fd81814619fa0c2,66a626ef09d4e21e1a8894ec,67361f09343d2644a515bc8e,2024-11-14_17h03.02.522,Tarea de género gramatical,2024.2.2,Win32,59.52380952,,,,,,,,,,,,,,,,,,,,,,,,336.5625,337.5938,a,1,0.3353,,[],[],[],[],[],[],[],0.3353,1,337.594,338.0764,,,,,,479,MAS,DIS,150,frío,la,l,338.0765,338.077,-0.039814815,-0.430555556,0,0,0,,0,143,143,28,1,,,,
,,,,,,1e361e921fd81814619fa0c2,66a626ef09d4e21e1a8894ec,67361f09343d2644a515bc8e,2024-11-14_17h03.02.522,Tarea de género gramatical,2024.2.2,Win32,59.52380952,,,,,,,,,,,,,,,,,,,,,,,,338.0802,339.0249,a,1,0.2514,,[],[],[],[],[],[],[],0.2514,1,339.0251,339.5029,,,,,,666,MAS,AGR,150,éxito,el,l,339.503,339.5035,-0.039814815,-0.430555556,0,0,0,,0,144,144,215,1,,,,
,,,,,,1e361e921fd81814619fa0c2,66a626ef09d4e21e1a8894ec,67361f09343d2644a515bc8e,2024-11-14_17h03.02.522,Tarea de género gramatical,2024.2.2,Win32,59.52380952,,,,,,,,,,,,,,,,,,,,,,,,339.5077,340.5737,l,1,0.3842,,[],[],[],[],[],[],[],0.3842,1,340.5739,341.0723,,,,,,686,FEM,DIS,150,deuda,el,a,341.0723,341.0727,-0.039814815,-0.430555556,0,0,0,,0,145,145,235,1,,,,
,,,,,,1e361e921fd81814619fa0c2,66a626ef09d4e21e1a8894ec,67361f09343d2644a515bc8e,2024-11-14_17h03.02.522,Tarea de género gramatical,2024.2.2,Win32,59.52380952,,,,,,,,,,,,,,,,,,,,,,,,341.0756,342.0737,l,1,0.331,,[],[],[],[],[],[],[],0.331,1,342.0738,342.578,,,,,,603,FEM,AGR,150,mujer,la,a,342.5835,342.587,-0.039814815,-0.430555556,0,0,0,,0,146,146,152,1,,,,
,,,,,,1e361e921fd81814619fa0c2,66a626ef09d4e21e1a8894ec,67361f09343d2644a515bc8e,2024-11-14_17h03.02.522,Tarea de género gramatical,2024.2.2,Win32,59.52380952,,,,,,,,,,,,,,,,,,,,,,,,342.5899,343.5536,l,1,0.2779,,[],[],[],[],[],[],[],0.2779,1,343.5538,344.0269,,,,,,711,FEM,AGR,150,cueva,la,a,344.027,344.0274,-0.039814815,-0.430555556,0,0,0,,0,147,147,260,1,,,,
,,,,,,1e361e921fd81814619fa0c2,66a626ef09d4e21e1a8894ec,67361f09343d2644a515bc8e,2024-11-14_17h03.02.522,Tarea de género gramatical,2024.2.2,Win32,59.52380952,,,,,,,,,,,,,,,,,,,,,,,,344.0311,345.1424,a,1,0.4247,,[],[],[],[],[],[],[],0.4247,1,345.1425,345.6391,,,,,,640,MAS,CON,150,campo,,l,345.6392,345.6394,-0.039814815,-0.430555556,0,0,0,,0,148,148,189,1,,,,
,,,,,,1e361e921fd81814619fa0c2,66a626ef09d4e21e1a8894ec,67361f09343d2644a515bc8e,2024-11-14_17h03.02.522,Tarea de género gramatical,2024.2.2,Win32,59.52380952,,,,,,,,,,,,,,,,,,,,,,,,345.6425,346.696,a,1,0.3729,,[],[],[],[],[],[],[],0.3729,1,346.6963,347.1918,,,,,,526,MAS,CON,150,lujo,,l,347.1919,347.1924,-0.039814815,-0.430555556,0,0,0,,0,149,149,75,1,,,,
,,,,,,1e361e921fd81814619fa0c2,66a626ef09d4e21e1a8894ec,67361f09343d2644a515bc8e,2024-11-14_17h03.02.522,Tarea de género gramatical,2024.2.2,Win32,59.52380952,,,,,,,,,,,,,,,,,,,,,,,,347.1961,348.2221,l,1,0.3464,,[],[],[],[],[],[],[],0.3464,1,348.2223,348.7228,,,,,,555,FEM,AGR,150,jefa,la,a,348.7267,367.791,-0.039814815,-0.430555556,0,0,0,space,0,150,150,104,1,19.0413,,,
,,,,,,1e361e921fd81814619fa0c2,66a626ef09d4e21e1a8894ec,67361f09343d2644a515bc8e,2024-11-14_17h03.02.522,Tarea de género gramatical,2024.2.2,Win32,59.52380952,,,,,,,,,,,,,,,,,,,,,,,,367.7941,369.1815,a,0,0.7062,,[],[],[],[],[],[],[],0.7062,0,369.1846,369.6893,,,,,,752,FEM,DIS,150,cabeza,el,a,369.6894,369.6904,-0.039814815,-0.430555556,0,0,0,,0,151,151,301,1,,,,
,,,,,,1e361e921fd81814619fa0c2,66a626ef09d4e21e1a8894ec,67361f09343d2644a515bc8e,2024-11-14_17h03.02.522,Tarea de género gramatical,2024.2.2,Win32,59.52380952,,,,,,,,,,,,,,,,,,,,,,,,369.6932,370.7784,a,1,0.4101,,[],[],[],[],[],[],[],0.4101,1,370.7806,371.2762,,,,,,540,MAS,AGR,150,león,el,l,371.2763,371.2766,-0.039814815,-0.430555556,0,0,0,,0,152,152,89,1,,,,
,,,,,,1e361e921fd81814619fa0c2,66a626ef09d4e21e1a8894ec,67361f09343d2644a515bc8e,2024-11-14_17h03.02.522,Tarea de género gramatical,2024.2.2,Win32,59.52380952,,,,,,,,,,,,,,,,,,,,,,,,371.28,372.2501,a,1,0.2857,,[],[],[],[],[],[],[],0.2857,1,372.2504,372.7389,,,,,,882,MAS,AGR,150,océano,el,l,372.7391,372.7393,-0.039814815,-0.430555556,0,0,0,,0,153,153,431,1,,,,
,,,,,,1e361e921fd81814619fa0c2,66a626ef09d4e21e1a8894ec,67361f09343d2644a515bc8e,2024-11-14_17h03.02.522,Tarea de género gramatical,2024.2.2,Win32,59.52380952,,,,,,,,,,,,,,,,,,,,,,,,372.7421,373.7595,l,1,0.3185,,[],[],[],[],[],[],[],0.3185,1,373.7597,374.2401,,,,,,699,FEM,AGR,150,crema,la,a,374.2401,374.2405,-0.039814815,-0.430555556,0,0,0,,0,154,154,248,1,,,,
,,,,,,1e361e921fd81814619fa0c2,66a626ef09d4e21e1a8894ec,67361f09343d2644a515bc8e,2024-11-14_17h03.02.522,Tarea de género gramatical,2024.2.2,Win32,59.52380952,,,,,,,,,,,,,,,,,,,,,,,,374.2428,375.4045,l,0,0.4813,,[],[],[],[],[],[],[],0.4813,0,375.4068,375.8929,,,,,,466,MAS,CON,150,baño,,l,375.8969,375.8994,-0.039814815,-0.430555556,0,0,0,,0,155,155,15,1,,,,
,,,,,,1e361e921fd81814619fa0c2,66a626ef09d4e21e1a8894ec,67361f09343d2644a515bc8e,2024-11-14_17h03.02.522,Tarea de género gramatical,2024.2.2,Win32,59.52380952,,,,,,,,,,,,,,,,,,,,,,,,375.9011,376.9574,l,1,0.3865,,[],[],[],[],[],[],[],0.3865,1,376.9598,377.4562,,,,,,679,FEM,CON,150,celda,,a,377.4565,377.457,-0.039814815,-0.430555556,0,0,0,,0,156,156,228,1,,,,
,,,,,,1e361e921fd81814619fa0c2,66a626ef09d4e21e1a8894ec,67361f09343d2644a515bc8e,2024-11-14_17h03.02.522,Tarea de género gramatical,2024.2.2,Win32,59.52380952,,,,,,,,,,,,,,,,,,,,,,,,377.4603,378.7567,l,1,0.6163,,[],[],[],[],[],[],[],0.6163,1,378.7568,379.2562,,,,,,542,FEM,DIS,150,masa,el,a,379.2564,379.2568,-0.039814815,-0.430555556,0,0,0,,0,157,157,91,1,,,,
,,,,,,1e361e921fd81814619fa0c2,66a626ef09d4e21e1a8894ec,67361f09343d2644a515bc8e,2024-11-14_17h03.02.522,Tarea de género gramatical,2024.2.2,Win32,59.52380952,,,,,,,,,,,,,,,,,,,,,,,,379.2599,380.2741,l,1,0.3168,,[],[],[],[],[],[],[],0.3168,1,380.2743,380.7745,,,,,,775,FEM,CON,150,tierra,,a,380.7746,380.7754,-0.039814815,-0.430555556,0,0,0,,0,158,158,324,1,,,,
,,,,,,1e361e921fd81814619fa0c2,66a626ef09d4e21e1a8894ec,67361f09343d2644a515bc8e,2024-11-14_17h03.02.522,Tarea de género gramatical,2024.2.2,Win32,59.52380952,,,,,,,,,,,,,,,,,,,,,,,,380.7785,381.7911,a,1,0.3329,,[],[],[],[],[],[],[],0.3329,1,381.7914,382.2763,,,,,,460,MAS,CON,150,niño,,l,382.2817,382.2847,-0.039814815,-0.430555556,0,0,0,,0,159,159,9,1,,,,
,,,,,,1e361e921fd81814619fa0c2,66a626ef09d4e21e1a8894ec,67361f09343d2644a515bc8e,2024-11-14_17h03.02.522,Tarea de género gramatical,2024.2.2,Win32,59.52380952,,,,,,,,,,,,,,,,,,,,,,,,382.2873,383.4059,l,1,0.4311,,[],[],[],[],[],[],[],0.4311,1,383.4061,383.9264,,,,,,674,FEM,DIS,150,arena,el,a,383.9265,383.9267,-0.039814815,-0.430555556,0,0,0,,0,160,160,223,1,,,,
,,,,,,1e361e921fd81814619fa0c2,66a626ef09d4e21e1a8894ec,67361f09343d2644a515bc8e,2024-11-14_17h03.02.522,Tarea de género gramatical,2024.2.2,Win32,59.52380952,,,,,,,,,,,,,,,,,,,,,,,,383.9295,385.066,l,1,0.4566,,[],[],[],[],[],[],[],0.4566,1,385.0663,385.5594,,,,,,584,FEM,DIS,150,rama,el,a,385.5594,385.5599,-0.039814815,-0.430555556,0,0,0,,0,161,161,133,1,,,,
,,,,,,1e361e921fd81814619fa0c2,66a626ef09d4e21e1a8894ec,67361f09343d2644a515bc8e,2024-11-14_17h03.02.522,Tarea de género gramatical,2024.2.2,Win32,59.52380952,,,,,,,,,,,,,,,,,,,,,,,,385.563,386.6152,l,1,0.3724,,[],[],[],[],[],[],[],0.3724,1,386.6155,387.1068,,,,,,697,FEM,CON,150,frase,,a,387.107,387.1074,-0.039814815,-0.430555556,0,0,0,,0,162,162,246,1,,,,
,,,,,,1e361e921fd81814619fa0c2,66a626ef09d4e21e1a8894ec,67361f09343d2644a515bc8e,2024-11-14_17h03.02.522,Tarea de género gramatical,2024.2.2,Win32,59.52380952,,,,,,,,,,,,,,,,,,,,,,,,387.1106,388.1417,a,1,0.3524,,[],[],[],[],[],[],[],0.3524,1,388.142,388.6562,,,,,,616,MAS,CON,150,coche,,l,388.6565,388.657,-0.039814815,-0.430555556,0,0,0,,0,163,163,165,1,,,,
,,,,,,1e361e921fd81814619fa0c2,66a626ef09d4e21e1a8894ec,67361f09343d2644a515bc8e,2024-11-14_17h03.02.522,Tarea de género gramatical,2024.2.2,Win32,59.52380952,,,,,,,,,,,,,,,,,,,,,,,,388.6604,389.8745,a,1,0.5273,,[],[],[],[],[],[],[],0.5273,1,389.8747,390.3565,,,,,,545,MAS,DIS,150,tomo,la,l,390.3623,390.3654,-0.039814815,-0.430555556,0,0,0,,0,164,164,94,1,,,,
,,,,,,1e361e921fd81814619fa0c2,66a626ef09d4e21e1a8894ec,67361f09343d2644a515bc8e,2024-11-14_17h03.02.522,Tarea de género gramatical,2024.2.2,Win32,59.52380952,,,,,,,,,,,,,,,,,,,,,,,,390.3678,391.4426,l,1,0.3849,,[],[],[],[],[],[],[],0.3849,1,391.4429,391.9369,,,,,,638,FEM,DIS,150,bomba,el,a,391.9371,391.9376,-0.039814815,-0.430555556,0,0,0,,0,165,165,187,1,,,,
,,,,,,1e361e921fd81814619fa0c2,66a626ef09d4e21e1a8894ec,67361f09343d2644a515bc8e,2024-11-14_17h03.02.522,Tarea de género gramatical,2024.2.2,Win32,59.52380952,,,,,,,,,,,,,,,,,,,,,,,,391.942,393.0743,a,1,0.4647,,[],[],[],[],[],[],[],0.4647,1,393.0745,393.5914,,,,,,647,MAS,DIS,150,avión,la,l,393.5915,393.5917,-0.039814815,-0.430555556,0,0,0,,0,166,166,196,1,,,,
,,,,,,1e361e921fd81814619fa0c2,66a626ef09d4e21e1a8894ec,67361f09343d2644a515bc8e,2024-11-14_17h03.02.522,Tarea de género gramatical,2024.2.2,Win32,59.52380952,,,,,,,,,,,,,,,,,,,,,,,,393.5947,394.7594,l,1,0.4857,,[],[],[],[],[],[],[],0.4857,1,394.7596,395.2605,,,,,,475,FEM,CON,150,nave,,a,395.2606,395.261,-0.039814815,-0.430555556,0,0,0,,0,167,167,24,1,,,,
,,,,,,1e361e921fd81814619fa0c2,66a626ef09d4e21e1a8894ec,67361f09343d2644a515bc8e,2024-11-14_17h03.02.522,Tarea de género gramatical,2024.2.2,Win32,59.52380952,,,,,,,,,,,,,,,,,,,,,,,,395.2648,396.3945,a,1,0.4583,,[],[],[],[],[],[],[],0.4583,1,396.3948,396.9047,,,,,,790,MAS,CON,150,pasado,,l,396.9086,396.9109,-0.039814815,-0.430555556,0,0,0,,0,168,168,339,1,,,,
,,,,,,1e361e921fd81814619fa0c2,66a626ef09d4e21e1a8894ec,67361f09343d2644a515bc8e,2024-11-14_17h03.02.522,Tarea de género gramatical,2024.2.2,Win32,59.52380952,,,,,,,,,,,,,,,,,,,,,,,,396.9134,398.1408,a,1,0.549,,[],[],[],[],[],[],[],0.549,1,398.1412,398.6355,,,,,,478,MAS,CON,150,club,,l,398.6358,398.6361,-0.039814815,-0.430555556,0,0,0,,0,169,169,27,1,,,,
,,,,,,1e361e921fd81814619fa0c2,66a626ef09d4e21e1a8894ec,67361f09343d2644a515bc8e,2024-11-14_17h03.02.522,Tarea de género gramatical,2024.2.2,Win32,59.52380952,,,,,,,,,,,,,,,,,,,,,,,,398.6396,399.7411,a,1,0.4291,,[],[],[],[],[],[],[],0.4291,1,399.7413,400.2241,,,,,,724,MAS,CON,150,motor,,l,400.2243,400.2249,-0.039814815,-0.430555556,0,0,0,,0,170,170,273,1,,,,
,,,,,,1e361e921fd81814619fa0c2,66a626ef09d4e21e1a8894ec,67361f09343d2644a515bc8e,2024-11-14_17h03.02.522,Tarea de género gramatical,2024.2.2,Win32,59.52380952,,,,,,,,,,,,,,,,,,,,,,,,400.2282,401.3084,a,1,0.4124,,[],[],[],[],[],[],[],0.4124,1,401.3086,401.8226,,,,,,473,MAS,DIS,150,rato,la,l,401.823,401.8235,-0.039814815,-0.430555556,0,0,0,,0,171,171,22,1,,,,
,,,,,,1e361e921fd81814619fa0c2,66a626ef09d4e21e1a8894ec,67361f09343d2644a515bc8e,2024-11-14_17h03.02.522,Tarea de género gramatical,2024.2.2,Win32,59.52380952,,,,,,,,,,,,,,,,,,,,,,,,401.8268,402.9413,l,1,0.4316,,[],[],[],[],[],[],[],0.4316,1,402.9415,403.4352,,,,,,721,FEM,CON,150,viuda,,a,403.4353,403.4356,-0.039814815,-0.430555556,0,0,0,,0,172,172,270,1,,,,
,,,,,,1e361e921fd81814619fa0c2,66a626ef09d4e21e1a8894ec,67361f09343d2644a515bc8e,2024-11-14_17h03.02.522,Tarea de género gramatical,2024.2.2,Win32,59.52380952,,,,,,,,,,,,,,,,,,,,,,,,403.4387,404.5204,l,1,0.3991,,[],[],[],[],[],[],[],0.3991,1,404.5207,405.0098,,,,,,799,FEM,CON,150,prensa,,a,405.0153,405.0184,-0.039814815,-0.430555556,0,0,0,,0,173,173,348,1,,,,
,,,,,,1e361e921fd81814619fa0c2,66a626ef09d4e21e1a8894ec,67361f09343d2644a515bc8e,2024-11-14_17h03.02.522,Tarea de género gramatical,2024.2.2,Win32,59.52380952,,,,,,,,,,,,,,,,,,,,,,,,405.0208,406.0278,a,1,0.3168,,[],[],[],[],[],[],[],0.3168,1,406.0281,406.5265,,,,,,828,MAS,AGR,150,pastel,el,l,406.5266,406.5271,-0.039814815,-0.430555556,0,0,0,,0,174,174,377,1,,,,
,,,,,,1e361e921fd81814619fa0c2,66a626ef09d4e21e1a8894ec,67361f09343d2644a515bc8e,2024-11-14_17h03.02.522,Tarea de género gramatical,2024.2.2,Win32,59.52380952,,,,,,,,,,,,,,,,,,,,,,,,406.5303,407.5597,l,1,0.3374,,[],[],[],[],[],[],[],0.3374,1,407.5599,408.0577,,,,,,565,FEM,CON,150,seda,,a,408.0579,408.0584,-0.039814815,-0.430555556,0,0,0,,0,175,175,114,1,,,,
,,,,,,1e361e921fd81814619fa0c2,66a626ef09d4e21e1a8894ec,67361f09343d2644a515bc8e,2024-11-14_17h03.02.522,Tarea de género gramatical,2024.2.2,Win32,59.52380952,,,,,,,,,,,,,,,,,,,,,,,,408.0619,409.2119,l,1,0.4519,,[],[],[],[],[],[],[],0.4519,1,409.2122,409.7034,,,,,,765,FEM,AGR,150,manera,la,a,409.7035,409.7039,-0.039814815,-0.430555556,0,0,0,,0,176,176,314,1,,,,
,,,,,,1e361e921fd81814619fa0c2,66a626ef09d4e21e1a8894ec,67361f09343d2644a515bc8e,2024-11-14_17h03.02.522,Tarea de género gramatical,2024.2.2,Win32,59.52380952,,,,,,,,,,,,,,,,,,,,,,,,409.707,410.775,l,1,0.3961,,[],[],[],[],[],[],[],0.3961,1,410.7755,411.2786,,,,,,591,FEM,AGR,150,cera,la,a,411.2847,411.2875,-0.039814815,-0.430555556,0,0,0,,0,177,177,140,1,,,,
,,,,,,1e361e921fd81814619fa0c2,66a626ef09d4e21e1a8894ec,67361f09343d2644a515bc8e,2024-11-14_17h03.02.522,Tarea de género gramatical,2024.2.2,Win32,59.52380952,,,,,,,,,,,,,,,,,,,,,,,,411.2904,412.3296,l,1,0.3546,,[],[],[],[],[],[],[],0.3546,1,412.33,412.8242,,,,,,853,FEM,CON,150,paliza,,a,412.8243,412.8246,-0.039814815,-0.430555556,0,0,0,,0,178,178,402,1,,,,
,,,,,,1e361e921fd81814619fa0c2,66a626ef09d4e21e1a8894ec,67361f09343d2644a515bc8e,2024-11-14_17h03.02.522,Tarea de género gramatical,2024.2.2,Win32,59.52380952,,,,,,,,,,,,,,,,,,,,,,,,412.8278,413.7436,l,1,0.2259,,[],[],[],[],[],[],[],0.2259,1,413.7438,414.21,,,,,,823,FEM,CON,150,lluvia,,a,414.2101,414.2104,-0.039814815,-0.430555556,0,0,0,,0,179,179,372,1,,,,
,,,,,,1e361e921fd81814619fa0c2,66a626ef09d4e21e1a8894ec,67361f09343d2644a515bc8e,2024-11-14_17h03.02.522,Tarea de género gramatical,2024.2.2,Win32,59.52380952,,,,,,,,,,,,,,,,,,,,,,,,414.213,415.2619,l,1,0.3556,,[],[],[],[],[],[],[],0.3556,1,415.2621,415.7616,,,,,,495,FEM,AGR,150,isla,la,a,415.7617,415.7619,-0.039814815,-0.430555556,0,0,0,,0,180,180,44,1,,,,
,,,,,,1e361e921fd81814619fa0c2,66a626ef09d4e21e1a8894ec,67361f09343d2644a515bc8e,2024-11-14_17h03.02.522,Tarea de género gramatical,2024.2.2,Win32,59.52380952,,,,,,,,,,,,,,,,,,,,,,,,415.7644,416.7892,a,1,0.3506,,[],[],[],[],[],[],[],0.3506,1,416.7894,417.3068,,,,,,665,MAS,DIS,150,hueso,la,l,417.3069,417.3072,-0.039814815,-0.430555556,0,0,0,,0,181,181,214,1,,,,
,,,,,,1e361e921fd81814619fa0c2,66a626ef09d4e21e1a8894ec,67361f09343d2644a515bc8e,2024-11-14_17h03.02.522,Tarea de género gramatical,2024.2.2,Win32,59.52380952,,,,,,,,,,,,,,,,,,,,,,,,417.3099,418.4239,l,1,0.4393,,[],[],[],[],[],[],[],0.4393,1,418.4242,418.9266,,,,,,524,FEM,DIS,150,flor,el,a,418.9298,418.932,-0.039814815,-0.430555556,0,0,0,,0,182,182,73,1,,,,
,,,,,,1e361e921fd81814619fa0c2,66a626ef09d4e21e1a8894ec,67361f09343d2644a515bc8e,2024-11-14_17h03.02.522,Tarea de género gramatical,2024.2.2,Win32,59.52380952,,,,,,,,,,,,,,,,,,,,,,,,418.9339,420.0456,a,1,0.4389,,[],[],[],[],[],[],[],0.4389,1,420.0459,420.5465,,,,,,568,MAS,CON,150,baúl,,l,420.5466,420.5472,-0.039814815,-0.430555556,0,0,0,,0,183,183,117,1,,,,
,,,,,,1e361e921fd81814619fa0c2,66a626ef09d4e21e1a8894ec,67361f09343d2644a515bc8e,2024-11-14_17h03.02.522,Tarea de género gramatical,2024.2.2,Win32,59.52380952,,,,,,,,,,,,,,,,,,,,,,,,420.551,421.5781,l,1,0.3384,,[],[],[],[],[],[],[],0.3384,1,421.5783,422.0769,,,,,,885,FEM,AGR,150,niebla,la,a,422.077,422.0773,-0.039814815,-0.430555556,0,0,0,,0,184,184,434,1,,,,
,,,,,,1e361e921fd81814619fa0c2,66a626ef09d4e21e1a8894ec,67361f09343d2644a515bc8e,2024-11-14_17h03.02.522,Tarea de género gramatical,2024.2.2,Win32,59.52380952,,,,,,,,,,,,,,,,,,,,,,,,422.0802,423.1642,a,1,0.3922,,[],[],[],[],[],[],[],0.3922,1,423.1644,423.6542,,,,,,773,MAS,DIS,150,marido,la,l,423.6544,423.6549,-0.039814815,-0.430555556,0,0,0,,0,185,185,322,1,,,,
,,,,,,1e361e921fd81814619fa0c2,66a626ef09d4e21e1a8894ec,67361f09343d2644a515bc8e,2024-11-14_17h03.02.522,Tarea de género gramatical,2024.2.2,Win32,59.52380952,,,,,,,,,,,,,,,,,,,,,,,,423.6593,424.6305,l,1,0.2909,,[],[],[],[],[],[],[],0.2909,1,424.6307,425.1225,,,,,,650,FEM,DIS,150,silla,el,a,425.1262,425.1287,-0.039814815,-0.430555556,0,0,0,,0,186,186,199,1,,,,
,,,,,,1e361e921fd81814619fa0c2,66a626ef09d4e21e1a8894ec,67361f09343d2644a515bc8e,2024-11-14_17h03.02.522,Tarea de género gramatical,2024.2.2,Win32,59.52380952,,,,,,,,,,,,,,,,,,,,,,,,425.1312,426.6251,a,1,0.8197,,[],[],[],[],[],[],[],0.8197,1,426.6253,427.1291,,,,,,527,MAS,DIS,150,pico,la,l,427.1293,427.1297,-0.039814815,-0.430555556,0,0,0,,0,187,187,76,1,,,,
,,,,,,1e361e921fd81814619fa0c2,66a626ef09d4e21e1a8894ec,67361f09343d2644a515bc8e,2024-11-14_17h03.02.522,Tarea de género gramatical,2024.2.2,Win32,59.52380952,,,,,,,,,,,,,,,,,,,,,,,,427.1336,428.1008,l,1,0.2978,,[],[],[],[],[],[],[],0.2978,1,428.101,428.5957,,,,,,776,FEM,DIS,150,música,el,a,428.596,428.5964,-0.039814815,-0.430555556,0,0,0,,0,188,188,325,1,,,,
,,,,,,1e361e921fd81814619fa0c2,66a626ef09d4e21e1a8894ec,67361f09343d2644a515bc8e,2024-11-14_17h03.02.522,Tarea de género gramatical,2024.2.2,Win32,59.52380952,,,,,,,,,,,,,,,,,,,,,,,,428.6004,429.6406,l,1,0.3565,,[],[],[],[],[],[],[],0.3565,1,429.6408,430.1414,,,,,,854,FEM,DIS,150,gloria,el,a,430.1416,430.142,-0.039814815,-0.430555556,0,0,0,,0,189,189,403,1,,,,
,,,,,,1e361e921fd81814619fa0c2,66a626ef09d4e21e1a8894ec,67361f09343d2644a515bc8e,2024-11-14_17h03.02.522,Tarea de género gramatical,2024.2.2,Win32,59.52380952,,,,,,,,,,,,,,,,,,,,,,,,430.1457,431.1459,a,1,0.3094,,[],[],[],[],[],[],[],0.3094,1,431.1461,431.6416,,,,,,894,MAS,AGR,150,límite,el,l,431.6418,431.6422,-0.039814815,-0.430555556,0,0,0,,0,190,190,443,1,,,,
,,,,,,1e361e921fd81814619fa0c2,66a626ef09d4e21e1a8894ec,67361f09343d2644a515bc8e,2024-11-14_17h03.02.522,Tarea de género gramatical,2024.2.2,Win32,59.52380952,,,,,,,,,,,,,,,,,,,,,,,,431.645,432.6437,a,1,0.3251,,[],[],[],[],[],[],[],0.3251,1,432.644,433.1404,,,,,,509,MAS,DIS,150,lobo,la,l,433.1441,433.1468,-0.039814815,-0.430555556,0,0,0,,0,191,191,58,1,,,,
,,,,,,1e361e921fd81814619fa0c2,66a626ef09d4e21e1a8894ec,67361f09343d2644a515bc8e,2024-11-14_17h03.02.522,Tarea de género gramatical,2024.2.2,Win32,59.52380952,,,,,,,,,,,,,,,,,,,,,,,,433.1492,434.1319,l,1,0.2934,,[],[],[],[],[],[],[],0.2934,1,434.1321,434.6393,,,,,,753,FEM,AGR,150,maldad,la,a,434.6394,434.64,-0.039814815,-0.430555556,0,0,0,,0,192,192,302,1,,,,
,,,,,,1e361e921fd81814619fa0c2,66a626ef09d4e21e1a8894ec,67361f09343d2644a515bc8e,2024-11-14_17h03.02.522,Tarea de género gramatical,2024.2.2,Win32,59.52380952,,,,,,,,,,,,,,,,,,,,,,,,434.6431,435.7052,a,1,0.3716,,[],[],[],[],[],[],[],0.3716,1,435.7054,436.2016,,,,,,838,MAS,CON,150,empleo,,l,436.2018,436.2022,-0.039814815,-0.430555556,0,0,0,,0,193,193,387,1,,,,
,,,,,,1e361e921fd81814619fa0c2,66a626ef09d4e21e1a8894ec,67361f09343d2644a515bc8e,2024-11-14_17h03.02.522,Tarea de género gramatical,2024.2.2,Win32,59.52380952,,,,,,,,,,,,,,,,,,,,,,,,436.2055,437.2433,l,1,0.37,,[],[],[],[],[],[],[],0.37,1,437.2435,437.7387,,,,,,649,FEM,CON,150,nariz,,a,437.7388,437.7391,-0.039814815,-0.430555556,0,0,0,,0,194,194,198,1,,,,
,,,,,,1e361e921fd81814619fa0c2,66a626ef09d4e21e1a8894ec,67361f09343d2644a515bc8e,2024-11-14_17h03.02.522,Tarea de género gramatical,2024.2.2,Win32,59.52380952,,,,,,,,,,,,,,,,,,,,,,,,437.742,438.7105,l,1,0.2862,,[],[],[],[],[],[],[],0.2862,1,438.7107,439.2082,,,,,,883,FEM,CON,150,huella,,a,439.2138,439.2168,-0.039814815,-0.430555556,0,0,0,,0,195,195,432,1,,,,
,,,,,,1e361e921fd81814619fa0c2,66a626ef09d4e21e1a8894ec,67361f09343d2644a515bc8e,2024-11-14_17h03.02.522,Tarea de género gramatical,2024.2.2,Win32,59.52380952,,,,,,,,,,,,,,,,,,,,,,,,439.2192,440.2075,l,1,0.3024,,[],[],[],[],[],[],[],0.3024,1,440.2078,440.7027,,,,,,818,FEM,DIS,150,gracia,el,a,440.7027,440.7031,-0.039814815,-0.430555556,0,0,0,,0,196,196,367,1,,,,
,,,,,,1e361e921fd81814619fa0c2,66a626ef09d4e21e1a8894ec,67361f09343d2644a515bc8e,2024-11-14_17h03.02.522,Tarea de género gramatical,2024.2.2,Win32,59.52380952,,,,,,,,,,,,,,,,,,,,,,,,440.7054,441.6593,l,1,0.2824,,[],[],[],[],[],[],[],0.2824,1,441.6596,442.161,,,,,,715,FEM,CON,150,rueda,,a,442.1612,442.1616,-0.039814815,-0.430555556,0,0,0,,0,197,197,264,1,,,,
,,,,,,1e361e921fd81814619fa0c2,66a626ef09d4e21e1a8894ec,67361f09343d2644a515bc8e,2024-11-14_17h03.02.522,Tarea de género gramatical,2024.2.2,Win32,59.52380952,,,,,,,,,,,,,,,,,,,,,,,,442.1641,443.1605,l,1,0.3214,,[],[],[],[],[],[],[],0.3214,1,443.1608,443.6595,,,,,,889,FEM,CON,150,toalla,,a,443.6597,443.6602,-0.039814815,-0.430555556,0,0,0,,0,198,198,438,1,,,,
,,,,,,1e361e921fd81814619fa0c2,66a626ef09d4e21e1a8894ec,67361f09343d2644a515bc8e,2024-11-14_17h03.02.522,Tarea de género gramatical,2024.2.2,Win32,59.52380952,,,,,,,,,,,,,,,,,,,,,,,,443.6638,444.6608,l,1,0.319,,[],[],[],[],[],[],[],0.319,1,444.6611,445.1448,,,,,,637,FEM,CON,150,lista,,a,445.1453,445.1457,-0.039814815,-0.430555556,0,0,0,,0,199,199,186,1,,,,
,,,,,,1e361e921fd81814619fa0c2,66a626ef09d4e21e1a8894ec,67361f09343d2644a515bc8e,2024-11-14_17h03.02.522,Tarea de género gramatical,2024.2.2,Win32,59.52380952,,,,,,,,,,,,,,,,,,,,,,,,445.1485,446.1812,a,1,0.3473,,[],[],[],[],[],[],[],0.3473,1,446.1816,446.673,,,,,,760,MAS,CON,150,nombre,,l,446.6786,446.6821,-0.039814815,-0.430555556,0,0,0,,0,200,200,309,1,,,,
,,,,,,1e361e921fd81814619fa0c2,66a626ef09d4e21e1a8894ec,67361f09343d2644a515bc8e,2024-11-14_17h03.02.522,Tarea de género gramatical,2024.2.2,Win32,59.52380952,,,,,,,,,,,,,,,,,,,,,,,,446.6847,447.6281,l,1,0.2765,,[],[],[],[],[],[],[],0.2765,1,447.6284,448.1232,,,,,,615,FEM,AGR,150,amiga,la,a,448.1234,448.1238,-0.039814815,-0.430555556,0,0,0,,0,201,201,164,1,,,,
,,,,,,1e361e921fd81814619fa0c2,66a626ef09d4e21e1a8894ec,67361f09343d2644a515bc8e,2024-11-14_17h03.02.522,Tarea de género gramatical,2024.2.2,Win32,59.52380952,,,,,,,,,,,,,,,,,,,,,,,,448.1274,449.1258,l,1,0.3291,,[],[],[],[],[],[],[],0.3291,1,449.126,449.6398,,,,,,687,FEM,AGR,150,ducha,la,a,449.6399,449.6402,-0.039814815,-0.430555556,0,0,0,,0,202,202,236,1,,,,
,,,,,,1e361e921fd81814619fa0c2,66a626ef09d4e21e1a8894ec,67361f09343d2644a515bc8e,2024-11-14_17h03.02.522,Tarea de género gramatical,2024.2.2,Win32,59.52380952,,,,,,,,,,,,,,,,,,,,,,,,449.6428,450.7244,l,1,0.4151,,[],[],[],[],[],[],[],0.4151,1,450.7247,451.2075,,,,,,878,FEM,DIS,150,jugada,el,a,451.2077,451.2083,-0.039814815,-0.430555556,0,0,0,,0,203,203,427,1,,,,
,,,,,,1e361e921fd81814619fa0c2,66a626ef09d4e21e1a8894ec,67361f09343d2644a515bc8e,2024-11-14_17h03.02.522,Tarea de género gramatical,2024.2.2,Win32,59.52380952,,,,,,,,,,,,,,,,,,,,,,,,451.2114,452.237,a,1,0.3307,,[],[],[],[],[],[],[],0.3307,1,452.2372,452.7139,,,,,,898,MAS,CON,150,aceite,,l,452.718,452.7211,-0.039814815,-0.430555556,0,0,0,,0,204,204,447,1,,,,
,,,,,,1e361e921fd81814619fa0c2,66a626ef09d4e21e1a8894ec,67361f09343d2644a515bc8e,2024-11-14_17h03.02.522,Tarea de género gramatical,2024.2.2,Win32,59.52380952,,,,,,,,,,,,,,,,,,,,,,,,452.7248,453.8305,a,1,0.4226,,[],[],[],[],[],[],[],0.4226,1,453.8307,454.3397,,,,,,688,MAS,CON,150,norte,,l,454.3398,454.3404,-0.039814815,-0.430555556,0,0,0,,0,205,205,237,1,,,,
,,,,,,1e361e921fd81814619fa0c2,66a626ef09d4e21e1a8894ec,67361f09343d2644a515bc8e,2024-11-14_17h03.02.522,Tarea de género gramatical,2024.2.2,Win32,59.52380952,,,,,,,,,,,,,,,,,,,,,,,,454.3435,455.3528,l,1,0.3143,,[],[],[],[],[],[],[],0.3143,1,455.3529,455.8552,,,,,,572,FEM,DIS,150,loca,el,a,455.8553,455.8556,-0.039814815,-0.430555556,0,0,0,,0,206,206,121,1,,,,
,,,,,,1e361e921fd81814619fa0c2,66a626ef09d4e21e1a8894ec,67361f09343d2644a515bc8e,2024-11-14_17h03.02.522,Tarea de género gramatical,2024.2.2,Win32,59.52380952,,,,,,,,,,,,,,,,,,,,,,,,455.8597,456.8497,l,1,0.3191,,[],[],[],[],[],[],[],0.3191,1,456.8498,457.3392,,,,,,729,FEM,AGR,150,selva,la,a,457.3392,457.3397,-0.039814815,-0.430555556,0,0,0,,0,207,207,278,1,,,,
,,,,,,1e361e921fd81814619fa0c2,66a626ef09d4e21e1a8894ec,67361f09343d2644a515bc8e,2024-11-14_17h03.02.522,Tarea de género gramatical,2024.2.2,Win32,59.52380952,,,,,,,,,,,,,,,,,,,,,,,,457.3423,458.3234,a,1,0.284,,[],[],[],[],[],[],[],0.284,1,458.3236,458.8248,,,,,,892,MAS,CON,150,cuadro,,l,458.8249,458.8253,-0.039814815,-0.430555556,0,0,0,,0,208,208,441,1,,,,
,,,,,,1e361e921fd81814619fa0c2,66a626ef09d4e21e1a8894ec,67361f09343d2644a515bc8e,2024-11-14_17h03.02.522,Tarea de género gramatical,2024.2.2,Win32,59.52380952,,,,,,,,,,,,,,,,,,,,,,,,458.8286,459.9098,a,1,0.4074,,[],[],[],[],[],[],[],0.4074,1,459.91,460.3913,,,,,,558,MAS,AGR,150,hilo,el,l,460.3976,460.4015,-0.039814815,-0.430555556,0,0,0,,0,209,209,107,1,,,,
,,,,,,1e361e921fd81814619fa0c2,66a626ef09d4e21e1a8894ec,67361f09343d2644a515bc8e,2024-11-14_17h03.02.522,Tarea de género gramatical,2024.2.2,Win32,59.52380952,,,,,,,,,,,,,,,,,,,,,,,,460.4047,461.6823,a,1,0.5928,,[],[],[],[],[],[],[],0.5928,1,461.6825,462.1756,,,,,,462,MAS,AGR,150,plan,el,l,462.1757,462.1762,-0.039814815,-0.430555556,0,0,0,,0,210,210,11,1,,,,
,,,,,,1e361e921fd81814619fa0c2,66a626ef09d4e21e1a8894ec,67361f09343d2644a515bc8e,2024-11-14_17h03.02.522,Tarea de género gramatical,2024.2.2,Win32,59.52380952,,,,,,,,,,,,,,,,,,,,,,,,462.1795,463.2237,a,1,0.349,,[],[],[],[],[],[],[],0.349,1,463.2239,463.7131,,,,,,804,MAS,AGR,150,camión,el,l,463.7132,463.7137,-0.039814815,-0.430555556,0,0,0,,0,211,211,353,1,,,,
,,,,,,1e361e921fd81814619fa0c2,66a626ef09d4e21e1a8894ec,67361f09343d2644a515bc8e,2024-11-14_17h03.02.522,Tarea de género gramatical,2024.2.2,Win32,59.52380952,,,,,,,,,,,,,,,,,,,,,,,,463.7173,464.8281,l,1,0.4219,,[],[],[],[],[],[],[],0.4219,1,464.8282,465.3233,,,,,,554,FEM,DIS,150,vela,el,a,465.3235,465.3239,-0.039814815,-0.430555556,0,0,0,,0,212,212,103,1,,,,
,,,,,,1e361e921fd81814619fa0c2,66a626ef09d4e21e1a8894ec,67361f09343d2644a515bc8e,2024-11-14_17h03.02.522,Tarea de género gramatical,2024.2.2,Win32,59.52380952,,,,,,,,,,,,,,,,,,,,,,,,465.3271,466.3584,a,1,0.3625,,[],[],[],[],[],[],[],0.3625,1,466.3587,466.8571,,,,,,797,MAS,DIS,150,cuello,la,l,466.8627,466.8654,-0.039814815,-0.430555556,0,0,0,,0,213,213,346,1,,,,
,,,,,,1e361e921fd81814619fa0c2,66a626ef09d4e21e1a8894ec,67361f09343d2644a515bc8e,2024-11-14_17h03.02.522,Tarea de género gramatical,2024.2.2,Win32,59.52380952,,,,,,,,,,,,,,,,,,,,,,,,466.8678,467.8735,l,1,0.3322,,[],[],[],[],[],[],[],0.3322,1,467.8738,468.3596,,,,,,825,FEM,AGR,150,cadena,la,a,468.3597,468.3603,-0.039814815,-0.430555556,0,0,0,,0,214,214,374,1,,,,
,,,,,,1e361e921fd81814619fa0c2,66a626ef09d4e21e1a8894ec,67361f09343d2644a515bc8e,2024-11-14_17h03.02.522,Tarea de género gramatical,2024.2.2,Win32,59.52380952,,,,,,,,,,,,,,,,,,,,,,,,468.3635,469.3767,l,1,0.3319,,[],[],[],[],[],[],[],0.3319,1,469.3769,469.8733,,,,,,891,FEM,AGR,150,medida,la,a,469.8735,469.874,-0.039814815,-0.430555556,0,0,0,,0,215,215,440,1,,,,
,,,,,,1e361e921fd81814619fa0c2,66a626ef09d4e21e1a8894ec,67361f09343d2644a515bc8e,2024-11-14_17h03.02.522,Tarea de género gramatical,2024.2.2,Win32,59.52380952,,,,,,,,,,,,,,,,,,,,,,,,469.8777,470.8662,a,1,0.3125,,[],[],[],[],[],[],[],0.3125,1,470.8664,471.3567,,,,,,821,MAS,DIS,150,sonido,la,l,471.3569,471.3573,-0.039814815,-0.430555556,0,0,0,,0,216,216,370,1,,,,
,,,,,,1e361e921fd81814619fa0c2,66a626ef09d4e21e1a8894ec,67361f09343d2644a515bc8e,2024-11-14_17h03.02.522,Tarea de género gramatical,2024.2.2,Win32,59.52380952,,,,,,,,,,,,,,,,,,,,,,,,471.3607,472.3584,l,1,0.3188,,[],[],[],[],[],[],[],0.3188,1,472.3587,472.8731,,,,,,589,FEM,CON,150,pipa,,a,472.8732,472.8738,-0.039814815,-0.430555556,0,0,0,,0,217,217,138,1,,,,
,,,,,,1e361e921fd81814619fa0c2,66a626ef09d4e21e1a8894ec,67361f09343d2644a515bc8e,2024-11-14_17h03.02.522,Tarea de género gramatical,2024.2.2,Win32,59.52380952,,,,,,,,,,,,,,,,,,,,,,,,472.877,473.9263,l,1,0.3627,,[],[],[],[],[],[],[],0.3627,1,473.9265,474.4273,,,,,,577,FEM,CON,150,cuna,,a,474.431,474.4336,-0.039814815,-0.430555556,0,0,0,,0,218,218,126,1,,,,
,,,,,,1e361e921fd81814619fa0c2,66a626ef09d4e21e1a8894ec,67361f09343d2644a515bc8e,2024-11-14_17h03.02.522,Tarea de género gramatical,2024.2.2,Win32,59.52380952,,,,,,,,,,,,,,,,,,,,,,,,474.4352,475.4441,l,1,0.333,,[],[],[],[],[],[],[],0.333,1,475.4445,475.9389,,,,,,836,FEM,DIS,150,sombra,el,a,475.939,475.9396,-0.039814815,-0.430555556,0,0,0,,0,219,219,385,1,,,,
,,,,,,1e361e921fd81814619fa0c2,66a626ef09d4e21e1a8894ec,67361f09343d2644a515bc8e,2024-11-14_17h03.02.522,Tarea de género gramatical,2024.2.2,Win32,59.52380952,,,,,,,,,,,,,,,,,,,,,,,,475.9422,476.9327,a,1,0.3049,,[],[],[],[],[],[],[],0.3049,1,476.9329,477.4288,,,,,,719,MAS,DIS,150,primo,la,l,477.4289,477.4294,-0.039814815,-0.430555556,0,0,0,,0,220,220,268,1,,,,
,,,,,,1e361e921fd81814619fa0c2,66a626ef09d4e21e1a8894ec,67361f09343d2644a515bc8e,2024-11-14_17h03.02.522,Tarea de género gramatical,2024.2.2,Win32,59.52380952,,,,,,,,,,,,,,,,,,,,,,,,477.4331,478.5513,a,1,0.4419,,[],[],[],[],[],[],[],0.4419,1,478.5515,479.0759,,,,,,593,MAS,DIS,150,faro,la,l,479.076,479.0762,-0.039814815,-0.430555556,0,0,0,,0,221,221,142,1,,,,
,,,,,,1e361e921fd81814619fa0c2,66a626ef09d4e21e1a8894ec,67361f09343d2644a515bc8e,2024-11-14_17h03.02.522,Tarea de género gramatical,2024.2.2,Win32,59.52380952,,,,,,,,,,,,,,,,,,,,,,,,479.079,480.2432,a,1,0.4843,,[],[],[],[],[],[],[],0.4843,1,480.2433,480.7369,,,,,,736,MAS,CON,150,reino,,l,480.7425,480.7452,-0.039814815,-0.430555556,0,0,0,,0,222,222,285,1,,,,
,,,,,,1e361e921fd81814619fa0c2,66a626ef09d4e21e1a8894ec,67361f09343d2644a515bc8e,2024-11-14_17h03.02.522,Tarea de género gramatical,2024.2.2,Win32,59.52380952,,,,,,,,,,,,,,,,,,,,,,,,480.748,481.7942,l,1,0.3543,,[],[],[],[],[],[],[],0.3543,1,481.7944,482.291,,,,,,788,FEM,DIS,150,abuela,el,a,482.2912,482.2919,-0.039814815,-0.430555556,0,0,0,,0,223,223,337,1,,,,
,,,,,,1e361e921fd81814619fa0c2,66a626ef09d4e21e1a8894ec,67361f09343d2644a515bc8e,2024-11-14_17h03.02.522,Tarea de género gramatical,2024.2.2,Win32,59.52380952,,,,,,,,,,,,,,,,,,,,,,,,482.2953,483.3372,l,1,0.3601,,[],[],[],[],[],[],[],0.3601,1,483.3374,483.8458,,,,,,596,FEM,DIS,150,lana,el,a,483.8459,483.8464,-0.039814815,-0.430555556,0,0,0,,0,224,224,145,1,,,,
,,,,,,1e361e921fd81814619fa0c2,66a626ef09d4e21e1a8894ec,67361f09343d2644a515bc8e,2024-11-14_17h03.02.522,Tarea de género gramatical,2024.2.2,Win32,59.52380952,,,,,,,,,,,,,,,,,,,,,,,,483.849,484.8426,l,1,0.3025,,[],[],[],[],[],[],[],0.3025,1,484.8428,485.3241,,,,,,573,FEM,AGR,150,tela,la,a,485.3242,485.3248,-0.039814815,-0.430555556,0,0,0,,0,225,225,122,1,,,,
,,,,,,1e361e921fd81814619fa0c2,66a626ef09d4e21e1a8894ec,67361f09343d2644a515bc8e,2024-11-14_17h03.02.522,Tarea de género gramatical,2024.2.2,Win32,59.52380952,,,,,,,,,,,,,,,,,,,,,,,,485.3282,486.3789,a,1,0.374,,[],[],[],[],[],[],[],0.374,1,486.3791,486.8753,,,,,,839,MAS,DIS,150,tamaño,la,l,486.8753,486.8756,-0.039814815,-0.430555556,0,0,0,,0,226,226,388,1,,,,
,,,,,,1e361e921fd81814619fa0c2,66a626ef09d4e21e1a8894ec,67361f09343d2644a515bc8e,2024-11-14_17h03.02.522,Tarea de género gramatical,2024.2.2,Win32,59.52380952,,,,,,,,,,,,,,,,,,,,,,,,486.8781,488.0071,a,1,0.4509,,[],[],[],[],[],[],[],0.4509,1,488.0073,488.4906,,,,,,881,MAS,DIS,150,veneno,la,l,488.4941,488.4966,-0.039814815,-0.430555556,0,0,0,,0,227,227,430,1,,,,
,,,,,,1e361e921fd81814619fa0c2,66a626ef09d4e21e1a8894ec,67361f09343d2644a515bc8e,2024-11-14_17h03.02.522,Tarea de género gramatical,2024.2.2,Win32,59.52380952,,,,,,,,,,,,,,,,,,,,,,,,488.4991,489.4599,a,1,0.2855,,[],[],[],[],[],[],[],0.2855,1,489.4602,489.9536,,,,,,600,MAS,AGR,150,mozo,el,l,489.9537,489.954,-0.039814815,-0.430555556,0,0,0,,0,228,228,149,1,,,,
,,,,,,1e361e921fd81814619fa0c2,66a626ef09d4e21e1a8894ec,67361f09343d2644a515bc8e,2024-11-14_17h03.02.522,Tarea de género gramatical,2024.2.2,Win32,59.52380952,,,,,,,,,,,,,,,,,,,,,,,,489.9571,491.0076,l,1,0.3636,,[],[],[],[],[],[],[],0.3636,1,491.0078,491.5099,,,,,,506,FEM,DIS,150,bola,el,a,491.51,491.5103,-0.039814815,-0.430555556,0,0,0,,0,229,229,55,1,,,,
,,,,,,1e361e921fd81814619fa0c2,66a626ef09d4e21e1a8894ec,67361f09343d2644a515bc8e,2024-11-14_17h03.02.522,Tarea de género gramatical,2024.2.2,Win32,59.52380952,,,,,,,,,,,,,,,,,,,,,,,,491.5131,492.5426,l,1,0.353,,[],[],[],[],[],[],[],0.353,1,492.5428,493.0394,,,,,,817,FEM,CON,150,teoría,,a,493.0396,493.0398,-0.039814815,-0.430555556,0,0,0,,0,230,230,366,1,,,,
,,,,,,1e361e921fd81814619fa0c2,66a626ef09d4e21e1a8894ec,67361f09343d2644a515bc8e,2024-11-14_17h03.02.522,Tarea de género gramatical,2024.2.2,Win32,59.52380952,,,,,,,,,,,,,,,,,,,,,,,,493.0426,494.0607,l,1,0.3386,,[],[],[],[],[],[],[],0.3386,1,494.0609,494.5584,,,,,,842,FEM,DIS,150,maleta,el,a,494.562,494.5644,-0.039814815,-0.430555556,0,0,0,,0,231,231,391,1,,,,
,,,,,,1e361e921fd81814619fa0c2,66a626ef09d4e21e1a8894ec,67361f09343d2644a515bc8e,2024-11-14_17h03.02.522,Tarea de género gramatical,2024.2.2,Win32,59.52380952,,,,,,,,,,,,,,,,,,,,,,,,494.5667,495.581,a,1,0.3444,,[],[],[],[],[],[],[],0.3444,1,495.5812,496.0617,,,,,,808,MAS,CON,150,motivo,,l,496.0618,496.0622,-0.039814815,-0.430555556,0,0,0,,0,232,232,357,1,,,,
,,,,,,1e361e921fd81814619fa0c2,66a626ef09d4e21e1a8894ec,67361f09343d2644a515bc8e,2024-11-14_17h03.02.522,Tarea de género gramatical,2024.2.2,Win32,59.52380952,,,,,,,,,,,,,,,,,,,,,,,,496.0655,497.3124,a,1,0.5735,,[],[],[],[],[],[],[],0.5735,1,497.3127,497.8132,,,,,,862,MAS,CON,150,espejo,,l,497.8134,497.8138,-0.039814815,-0.430555556,0,0,0,,0,233,233,411,1,,,,
,,,,,,1e361e921fd81814619fa0c2,66a626ef09d4e21e1a8894ec,67361f09343d2644a515bc8e,2024-11-14_17h03.02.522,Tarea de género gramatical,2024.2.2,Win32,59.52380952,,,,,,,,,,,,,,,,,,,,,,,,497.8167,498.8658,l,0,0.3662,,[],[],[],[],[],[],[],0.3662,0,498.8689,499.3723,,,,,,833,MAS,DIS,150,parque,la,l,499.3724,499.3726,-0.039814815,-0.430555556,0,0,0,,0,234,234,382,1,,,,
,,,,,,1e361e921fd81814619fa0c2,66a626ef09d4e21e1a8894ec,67361f09343d2644a515bc8e,2024-11-14_17h03.02.522,Tarea de género gramatical,2024.2.2,Win32,59.52380952,,,,,,,,,,,,,,,,,,,,,,,,499.3757,500.4948,l,1,0.447,,[],[],[],[],[],[],[],0.447,1,500.4973,500.9898,,,,,,493,FEM,CON,150,nena,,a,500.9899,500.9903,-0.039814815,-0.430555556,0,0,0,,0,235,235,42,1,,,,
,,,,,,1e361e921fd81814619fa0c2,66a626ef09d4e21e1a8894ec,67361f09343d2644a515bc8e,2024-11-14_17h03.02.522,Tarea de género gramatical,2024.2.2,Win32,59.52380952,,,,,,,,,,,,,,,,,,,,,,,,500.9932,501.9933,l,1,0.3294,,[],[],[],[],[],[],[],0.3294,1,501.9936,502.5064,,,,,,877,FEM,CON,150,agenda,,a,502.512,502.5154,-0.039814815,-0.430555556,0,0,0,,0,236,236,426,1,,,,
,,,,,,1e361e921fd81814619fa0c2,66a626ef09d4e21e1a8894ec,67361f09343d2644a515bc8e,2024-11-14_17h03.02.522,Tarea de género gramatical,2024.2.2,Win32,59.52380952,,,,,,,,,,,,,,,,,,,,,,,,502.5182,503.4248,l,1,0.2351,,[],[],[],[],[],[],[],0.2351,1,503.425,503.9246,,,,,,794,FEM,DIS,150,pareja,el,a,503.9247,503.9249,-0.039814815,-0.430555556,0,0,0,,0,237,237,343,1,,,,
,,,,,,1e361e921fd81814619fa0c2,66a626ef09d4e21e1a8894ec,67361f09343d2644a515bc8e,2024-11-14_17h03.02.522,Tarea de género gramatical,2024.2.2,Win32,59.52380952,,,,,,,,,,,,,,,,,,,,,,,,503.9278,504.9306,a,1,0.3224,,[],[],[],[],[],[],[],0.3224,1,504.9309,505.411,,,,,,784,MAS,CON,150,ataque,,l,505.4112,505.4115,-0.039814815,-0.430555556,0,0,0,,0,238,238,333,1,,,,
,,,,,,1e361e921fd81814619fa0c2,66a626ef09d4e21e1a8894ec,67361f09343d2644a515bc8e,2024-11-14_17h03.02.522,Tarea de género gramatical,2024.2.2,Win32,59.52380952,,,,,,,,,,,,,,,,,,,,,,,,505.4151,506.6101,l,1,0.5295,,[],[],[],[],[],[],[],0.5295,1,506.6103,507.1226,,,,,,645,FEM,AGR,150,pared,la,a,507.1226,507.1233,-0.039814815,-0.430555556,0,0,0,,0,239,239,194,1,,,,
,,,,,,1e361e921fd81814619fa0c2,66a626ef09d4e21e1a8894ec,67361f09343d2644a515bc8e,2024-11-14_17h03.02.522,Tarea de género gramatical,2024.2.2,Win32,59.52380952,,,,,,,,,,,,,,,,,,,,,,,,507.1266,508.1899,a,1,0.3839,,[],[],[],[],[],[],[],0.3839,1,508.1902,508.6739,,,,,,869,MAS,DIS,150,cuento,la,l,508.6771,508.679,-0.039814815,-0.430555556,0,0,0,,0,240,240,418,1,,,,
,,,,,,1e361e921fd81814619fa0c2,66a626ef09d4e21e1a8894ec,67361f09343d2644a515bc8e,2024-11-14_17h03.02.522,Tarea de género gramatical,2024.2.2,Win32,59.52380952,,,,,,,,,,,,,,,,,,,,,,,,508.6806,509.7593,l,1,0.3857,,[],[],[],[],[],[],[],0.3857,1,509.7596,510.2572,,,,,,847,FEM,CON,150,cuerda,,a,510.2573,510.2577,-0.039814815,-0.430555556,0,0,0,,0,241,241,396,1,,,,
,,,,,,1e361e921fd81814619fa0c2,66a626ef09d4e21e1a8894ec,67361f09343d2644a515bc8e,2024-11-14_17h03.02.522,Tarea de género gramatical,2024.2.2,Win32,59.52380952,,,,,,,,,,,,,,,,,,,,,,,,510.261,511.2739,l,1,0.34,,[],[],[],[],[],[],[],0.34,1,511.2741,511.774,,,,,,663,FEM,AGR,150,magia,la,a,511.7742,511.7746,-0.039814815,-0.430555556,0,0,0,,0,242,242,212,1,,,,
,,,,,,1e361e921fd81814619fa0c2,66a626ef09d4e21e1a8894ec,67361f09343d2644a515bc8e,2024-11-14_17h03.02.522,Tarea de género gramatical,2024.2.2,Win32,59.52380952,,,,,,,,,,,,,,,,,,,,,,,,511.7783,512.8451,l,1,0.403,,[],[],[],[],[],[],[],0.403,1,512.8453,513.3551,,,,,,764,FEM,DIS,150,señora,el,a,513.3552,513.3556,-0.039814815,-0.430555556,0,0,0,,0,243,243,313,1,,,,
,,,,,,1e361e921fd81814619fa0c2,66a626ef09d4e21e1a8894ec,67361f09343d2644a515bc8e,2024-11-14_17h03.02.522,Tarea de género gramatical,2024.2.2,Win32,59.52380952,,,,,,,,,,,,,,,,,,,,,,,,513.3593,514.3222,a,1,0.282,,[],[],[],[],[],[],[],0.282,1,514.3224,514.808,,,,,,858,MAS,AGR,150,cheque,el,l,514.8082,514.8087,-0.039814815,-0.430555556,0,0,0,,0,244,244,407,1,,,,
,,,,,,1e361e921fd81814619fa0c2,66a626ef09d4e21e1a8894ec,67361f09343d2644a515bc8e,2024-11-14_17h03.02.522,Tarea de género gramatical,2024.2.2,Win32,59.52380952,,,,,,,,,,,,,,,,,,,,,,,,514.812,515.8402,a,1,0.3506,,[],[],[],[],[],[],[],0.3506,1,515.8403,516.3362,,,,,,664,MAS,CON,150,fondo,,l,516.3416,516.3442,-0.039814815,-0.430555556,0,0,0,,0,245,245,213,1,,,,
,,,,,,1e361e921fd81814619fa0c2,66a626ef09d4e21e1a8894ec,67361f09343d2644a515bc8e,2024-11-14_17h03.02.522,Tarea de género gramatical,2024.2.2,Win32,59.52380952,,,,,,,,,,,,,,,,,,,,,,,,516.3466,517.4263,l,1,0.3995,,[],[],[],[],[],[],[],0.3995,1,517.4266,517.9211,,,,,,518,FEM,DIS,150,pata,el,a,517.9212,517.9215,-0.039814815,-0.430555556,0,0,0,,0,246,246,67,1,,,,
,,,,,,1e361e921fd81814619fa0c2,66a626ef09d4e21e1a8894ec,67361f09343d2644a515bc8e,2024-11-14_17h03.02.522,Tarea de género gramatical,2024.2.2,Win32,59.52380952,,,,,,,,,,,,,,,,,,,,,,,,517.9241,519.0585,l,1,0.4525,,[],[],[],[],[],[],[],0.4525,1,519.0587,519.5413,,,,,,800,FEM,DIS,150,imagen,el,a,519.5414,519.542,-0.039814815,-0.430555556,0,0,0,,0,247,247,349,1,,,,
,,,,,,1e361e921fd81814619fa0c2,66a626ef09d4e21e1a8894ec,67361f09343d2644a515bc8e,2024-11-14_17h03.02.522,Tarea de género gramatical,2024.2.2,Win32,59.52380952,,,,,,,,,,,,,,,,,,,,,,,,519.5453,520.5248,l,1,0.3043,,[],[],[],[],[],[],[],0.3043,1,520.5251,521.0239,,,,,,693,FEM,AGR,150,salsa,la,a,521.0241,521.0244,-0.039814815,-0.430555556,0,0,0,,0,248,248,242,1,,,,
,,,,,,1e361e921fd81814619fa0c2,66a626ef09d4e21e1a8894ec,67361f09343d2644a515bc8e,2024-11-14_17h03.02.522,Tarea de género gramatical,2024.2.2,Win32,59.52380952,,,,,,,,,,,,,,,,,,,,,,,,521.0288,522.0601,a,1,0.3714,,[],[],[],[],[],[],[],0.3714,1,522.0602,522.5575,,,,,,580,MAS,CON,150,yate,,l,522.5628,522.566,-0.039814815,-0.430555556,0,0,0,,0,249,249,129,1,,,,
,,,,,,1e361e921fd81814619fa0c2,66a626ef09d4e21e1a8894ec,67361f09343d2644a515bc8e,2024-11-14_17h03.02.522,Tarea de género gramatical,2024.2.2,Win32,59.52380952,,,,,,,,,,,,,,,,,,,,,,,,522.5685,523.5576,a,1,0.3151,,[],[],[],[],[],[],[],0.3151,1,523.5579,524.0405,,,,,,562,MAS,CON,150,reto,,l,524.0407,524.041,-0.039814815,-0.430555556,0,0,0,,0,250,250,111,1,,,,
