counterbalancing_condition,consent_prescreening.block_1/declare_consent,consent_prescreening.block_1/age_years,consent_prescreening.block_1/gender,consent_prescreening.block_1/language_disorder,consent_prescreening.block_1/first_language,PROLIFIC_PID,STUDY_ID,SESSION_ID,date,expName,psychopyVersion,OS,frameRate,check_prescreening_answers.started,check_prescreening_answers.stopped,Instructions.started,Instructions.stopped,instr_done_keyboard.keys,instr_done_touch.x,instr_done_touch.y,instr_done_touch.leftButton,instr_done_touch.midButton,instr_done_touch.rightButton,instr_done_touch.clicked_name,instruction_pages.thisRepN,instruction_pages.thisTrialN,instruction_pages.thisN,instruction_pages.thisIndex,instruction_pages.ran,pageN,phase,instruct_text,has_image,instruct_image,instr_done_keyboard.rt,instr_done_keyboard.duration,presentTrial.started,presentTrial.stopped,response.keys,response.corr,touch_resp.x,touch_resp.y,touch_resp.leftButton,touch_resp.midButton,touch_resp.rightButton,touch_resp.time,touch_resp.clicked_name,rt,corr,feedback.started,feedback.stopped,practice_trials.thisRepN,practice_trials.thisTrialN,practice_trials.thisN,practice_trials.thisIndex,practice_trials.ran,TrialID,StimulusType,Condition,PrimeDuration,Prime,Flanker,corrAns,response.rt,response.duration,Break.started,Break.stopped,break_done_touch.x,break_done_touch.y,break_done_touch.leftButton,break_done_touch.midButton,break_done_touch.rightButton,break_done_keyboard.keys,experiment_trials.thisRepN,experiment_trials.thisTrialN,experiment_trials.thisN,experiment_trials.thisIndex,experiment_trials.ran,break_done_keyboard.rt,break_done_keyboard.duration,End.started,End.stopped
0,"[""over_18"",""comfortable"",""read_info"",""consent_given""]",30,F,"[""none""]","[""spanish""]",2059f9e35eb03c43c2166747,66a626ef09d4e21e1a8894ec,6734e0422ff1434d8e964ab1,2024-11-13_18h23.13.229,Tarea de género gramatical,2024.2.2,Win32,71.94244604,,,,,,,,,,,,,,,,,,,,,,,,,,,,,,,,,,,,,,,,,,,,,,,,,,,,,,,,,,,,,,,,,,,,,
,,,,,,2059f9e35eb03c43c2166747,66a626ef09d4e21e1a8894ec,6734e0422ff1434d8e964ab1,2024-11-13_18h23.13.229,Tarea de género gramatical,2024.2.2,Win32,71.94244604,47.5957,47.596,,,,,,,,,,,,,,,,,,,,,,,,,,,,,,,,,,,,,,,,,,,,,,,,,,,,,,,,,,,,,,,,,,,
,,,,,,2059f9e35eb03c43c2166747,66a626ef09d4e21e1a8894ec,6734e0422ff1434d8e964ab1,2024-11-13_18h23.13.229,Tarea de género gramatical,2024.2.2,Win32,71.94244604,,,47.6375,61.1331,,-0.034259231,-0.397222236,1,0,0,instr_done_button,0,0,0,0,1,1,instructions,"INSTRUCCIONES
Va a realizar una prueba de selección gramatical. Desde el comienzo de la prueba mire siempre al centro de la pantalla. Al cabo de un momento, aparecerán palabras. La tarea consiste en determinar si la palabra del centro (siempre será un sustantivo), pertenece al género masculino o femenino.

Pulse la tecla ESPACIO o toque el botón de abajo para continuar.",0,keyboardresponseMF.png,,,,,,,,,,,,,,,,,,,,,,,,,,,,,,,,,,,,,,,,,,,,,,,,
,,,,,,2059f9e35eb03c43c2166747,66a626ef09d4e21e1a8894ec,6734e0422ff1434d8e964ab1,2024-11-13_18h23.13.229,Tarea de género gramatical,2024.2.2,Win32,71.94244604,,,61.138,79.366,space,0.079629616,-0.108333376,0,0,0,,0,1,1,1,1,2,instructions,"Si su dispositivo tiene teclado, pulse la tecla ""A"" para las palabras en masculino (por ejemplo: ""arroz"") y la tecla ""L"" para las palabras en femenino (por ejemplo: ""mano"").
Pulse la tecla ESPACIO o toque el botón de abajo para continuar.",1,keyboardresponseMF.png,18.1316,,,,,,,,,,,,,,,,,,,,,,,,,,,,,,,,,,,,,,,,,,,,,,,
,,,,,,2059f9e35eb03c43c2166747,66a626ef09d4e21e1a8894ec,6734e0422ff1434d8e964ab1,2024-11-13_18h23.13.229,Tarea de género gramatical,2024.2.2,Win32,71.94244604,,,79.3697,88.116,space,0.079629616,-0.108333376,0,0,0,,0,2,2,2,1,3,instructions,"Si utiliza un dispositivo sólo táctil, colóquelo en horizontal y utilice los botones de la pantalla. No utilice el ratón.
Pulse la tecla ESPACIO o toque el botón de abajo para continuar.",2,touchresponseMF.png,8.6658,,,,,,,,,,,,,,,,,,,,,,,,,,,,,,,,,,,,,,,,,,,,,,,
,,,,,,2059f9e35eb03c43c2166747,66a626ef09d4e21e1a8894ec,6734e0422ff1434d8e964ab1,2024-11-13_18h23.13.229,Tarea de género gramatical,2024.2.2,Win32,71.94244604,,,88.1205,99.466,space,0.079629616,-0.108333376,0,0,0,,0,3,3,3,1,4,instructions,"Es muy importante que responda con la mayor rapidez y precisión posibles, ya que cada cadena de letras sólo estará en pantalla durante un instante. Si no responde en ese tiempo, aparecerá el mensaje ""Muy lento"" y el experimento pasará a la siguiente palabra. Los primeros 15 intentos serán de práctica y habrá dos descansos durante la prueba.
Pulse la tecla ESPACIO o toque el botón de abajo para iniciar la parte de práctica.",0,keyboardresponseMF.png,11.3169,,,,,,,,,,,,,,,,,,,,,,,,,,,,,,,,,,,,,,,,,,,,,,,
,,,,,,2059f9e35eb03c43c2166747,66a626ef09d4e21e1a8894ec,6734e0422ff1434d8e964ab1,2024-11-13_18h23.13.229,Tarea de género gramatical,2024.2.2,Win32,71.94244604,,,,,,,,,,,,,,,,,,,,,,,,99.4997,102.1498,,0,[],[],[],[],[],[],[],,-1,102.1504,102.6497,0,0,0,9,1,2010,MAS,AGR,150,vecino,el,l,,,,,,,,,,,,,,,,,,,
,,,,,,2059f9e35eb03c43c2166747,66a626ef09d4e21e1a8894ec,6734e0422ff1434d8e964ab1,2024-11-13_18h23.13.229,Tarea de género gramatical,2024.2.2,Win32,71.94244604,,,,,,,,,,,,,,,,,,,,,,,,102.6524,104.1663,a,0,[],[],[],[],[],[],[],0.834,0,104.1866,104.6661,0,1,1,1,1,2002,FEM,CON,150,pala,,a,0.834,,,,,,,,,,,,,,,,,,
,,,,,,2059f9e35eb03c43c2166747,66a626ef09d4e21e1a8894ec,6734e0422ff1434d8e964ab1,2024-11-13_18h23.13.229,Tarea de género gramatical,2024.2.2,Win32,71.94244604,,,,,,,,,,,,,,,,,,,,,,,,104.6684,105.8661,l,1,[],[],[],[],[],[],[],0.5179,1,105.8683,106.3663,0,2,2,3,1,2004,FEM,AGR,150,venta,la,a,0.5179,,,,,,,,,,,,,,,,,,
,,,,,,2059f9e35eb03c43c2166747,66a626ef09d4e21e1a8894ec,6734e0422ff1434d8e964ab1,2024-11-13_18h23.13.229,Tarea de género gramatical,2024.2.2,Win32,71.94244604,,,,,,,,,,,,,,,,,,,,,,,,106.368,107.7329,a,1,[],[],[],[],[],[],[],0.6899,1,107.7331,108.2328,0,3,3,10,1,2011,MAS,CON,150,canal,,l,0.6899,,,,,,,,,,,,,,,,,,
,,,,,,2059f9e35eb03c43c2166747,66a626ef09d4e21e1a8894ec,6734e0422ff1434d8e964ab1,2024-11-13_18h23.13.229,Tarea de género gramatical,2024.2.2,Win32,71.94244604,,,,,,,,,,,,,,,,,,,,,,,,108.2357,109.5829,l,1,[],[],[],[],[],[],[],0.6692,1,109.583,110.0829,0,4,4,2,1,2003,FEM,DIS,150,daga,el,a,0.6692,,,,,,,,,,,,,,,,,,
,,,,,,2059f9e35eb03c43c2166747,66a626ef09d4e21e1a8894ec,6734e0422ff1434d8e964ab1,2024-11-13_18h23.13.229,Tarea de género gramatical,2024.2.2,Win32,71.94244604,,,,,,,,,,,,,,,,,,,,,,,,110.0852,111.4664,a,1,[],[],[],[],[],[],[],0.7003,1,111.4666,111.9662,0,5,5,11,1,2012,MAS,DIS,150,clima,la,l,0.7003,,,,,,,,,,,,,,,,,,
,,,,,,2059f9e35eb03c43c2166747,66a626ef09d4e21e1a8894ec,6734e0422ff1434d8e964ab1,2024-11-13_18h23.13.229,Tarea de género gramatical,2024.2.2,Win32,71.94244604,,,,,,,,,,,,,,,,,,,,,,,,111.9685,113.3163,l,1,[],[],[],[],[],[],[],0.6689,1,113.3165,113.8163,0,6,6,0,1,2001,FEM,AGR,150,nuca,la,a,0.6689,,,,,,,,,,,,,,,,,,
,,,,,,2059f9e35eb03c43c2166747,66a626ef09d4e21e1a8894ec,6734e0422ff1434d8e964ab1,2024-11-13_18h23.13.229,Tarea de género gramatical,2024.2.2,Win32,71.94244604,,,,,,,,,,,,,,,,,,,,,,,,113.8189,114.9666,a,1,[],[],[],[],[],[],[],0.468,1,114.9667,115.4663,0,7,7,8,1,2009,MAS,DIS,150,puerto,la,l,0.468,,,,,,,,,,,,,,,,,,
,,,,,,2059f9e35eb03c43c2166747,66a626ef09d4e21e1a8894ec,6734e0422ff1434d8e964ab1,2024-11-13_18h23.13.229,Tarea de género gramatical,2024.2.2,Win32,71.94244604,,,,,,,,,,,,,,,,,,,,,,,,115.468,116.6164,a,1,[],[],[],[],[],[],[],0.4713,1,116.6166,117.1164,0,8,8,12,1,2013,MAS,AGR,150,acero,el,l,0.4713,,,,,,,,,,,,,,,,,,
,,,,,,2059f9e35eb03c43c2166747,66a626ef09d4e21e1a8894ec,6734e0422ff1434d8e964ab1,2024-11-13_18h23.13.229,Tarea de género gramatical,2024.2.2,Win32,71.94244604,,,,,,,,,,,,,,,,,,,,,,,,117.1185,118.2997,a,1,[],[],[],[],[],[],[],0.5079,1,118.2998,118.7997,0,9,9,13,1,2014,MAS,CON,150,siglo,,l,0.5079,,,,,,,,,,,,,,,,,,
,,,,,,2059f9e35eb03c43c2166747,66a626ef09d4e21e1a8894ec,6734e0422ff1434d8e964ab1,2024-11-13_18h23.13.229,Tarea de género gramatical,2024.2.2,Win32,71.94244604,,,,,,,,,,,,,,,,,,,,,,,,118.8014,119.8664,l,1,[],[],[],[],[],[],[],0.3915,1,119.8666,120.3665,0,10,10,4,1,2005,FEM,CON,150,placa,,a,0.3915,,,,,,,,,,,,,,,,,,
,,,,,,2059f9e35eb03c43c2166747,66a626ef09d4e21e1a8894ec,6734e0422ff1434d8e964ab1,2024-11-13_18h23.13.229,Tarea de género gramatical,2024.2.2,Win32,71.94244604,,,,,,,,,,,,,,,,,,,,,,,,120.3688,121.6167,a,1,[],[],[],[],[],[],[],0.5698,1,121.6169,122.1167,0,11,11,14,1,2015,MAS,DIS,150,robot,la,l,0.5698,,,,,,,,,,,,,,,,,,
,,,,,,2059f9e35eb03c43c2166747,66a626ef09d4e21e1a8894ec,6734e0422ff1434d8e964ab1,2024-11-13_18h23.13.229,Tarea de género gramatical,2024.2.2,Win32,71.94244604,,,,,,,,,,,,,,,,,,,,,,,,122.1196,123.4502,l,1,[],[],[],[],[],[],[],0.6506,1,123.4503,123.95,0,12,12,6,1,2007,FEM,AGR,150,navaja,la,a,0.6506,,,,,,,,,,,,,,,,,,
,,,,,,2059f9e35eb03c43c2166747,66a626ef09d4e21e1a8894ec,6734e0422ff1434d8e964ab1,2024-11-13_18h23.13.229,Tarea de género gramatical,2024.2.2,Win32,71.94244604,,,,,,,,,,,,,,,,,,,,,,,,123.9518,125.0501,l,1,[],[],[],[],[],[],[],0.4261,1,125.0502,125.5499,0,13,13,7,1,2008,FEM,CON,150,siesta,,a,0.4261,,,,,,,,,,,,,,,,,,
,,,,,,2059f9e35eb03c43c2166747,66a626ef09d4e21e1a8894ec,6734e0422ff1434d8e964ab1,2024-11-13_18h23.13.229,Tarea de género gramatical,2024.2.2,Win32,71.94244604,,,,,,,,,,,,,,,,,,,,,,,,125.5518,126.9165,l,1,[],[],[],[],[],[],[],0.6932,1,126.9165,127.4167,0,14,14,5,1,2006,FEM,DIS,150,serie,el,a,0.6932,,,,,,,,,,,,,,,,,,
,,,,,,2059f9e35eb03c43c2166747,66a626ef09d4e21e1a8894ec,6734e0422ff1434d8e964ab1,2024-11-13_18h23.13.229,Tarea de género gramatical,2024.2.2,Win32,71.94244604,,,136.2546,147.3848,space,0.079629616,-0.108333376,0,0,0,,,,,,,,,,,,11.1156,,147.4606,148.5174,a,1,[],[],[],[],[],[],[],0.3853,1,148.5175,149.0171,,,,,,82,MAS,AGR,150,tubo,el,l,0.3853,,149.018,149.0248,0.079629616,-0.108333376,0,0,0,,0,0,0,81,1,,,,
,,,,,,2059f9e35eb03c43c2166747,66a626ef09d4e21e1a8894ec,6734e0422ff1434d8e964ab1,2024-11-13_18h23.13.229,Tarea de género gramatical,2024.2.2,Win32,71.94244604,,,,,,,,,,,,,,,,,,,,,,,,149.0264,150.0339,l,1,[],[],[],[],[],[],[],0.3388,1,150.0342,150.5339,,,,,,319,FEM,AGR,150,sangre,la,a,0.3388,,150.5341,150.5343,0.079629616,-0.108333376,0,0,0,,0,1,1,318,1,,,,
,,,,,,2059f9e35eb03c43c2166747,66a626ef09d4e21e1a8894ec,6734e0422ff1434d8e964ab1,2024-11-13_18h23.13.229,Tarea de género gramatical,2024.2.2,Win32,71.94244604,,,,,,,,,,,,,,,,,,,,,,,,150.5361,151.684,l,1,[],[],[],[],[],[],[],0.4697,1,151.6842,152.184,,,,,,123,FEM,DIS,150,tela,el,a,0.4697,,152.1864,152.1878,0.079629616,-0.108333376,0,0,0,,0,2,2,122,1,,,,
,,,,,,2059f9e35eb03c43c2166747,66a626ef09d4e21e1a8894ec,6734e0422ff1434d8e964ab1,2024-11-13_18h23.13.229,Tarea de género gramatical,2024.2.2,Win32,71.94244604,,,,,,,,,,,,,,,,,,,,,,,,152.1898,153.3341,a,1,[],[],[],[],[],[],[],0.4756,1,153.3343,153.834,,,,,,402,MAS,DIS,150,ladrón,la,l,0.4756,,153.834,153.8343,0.079629616,-0.108333376,0,0,0,,0,3,3,401,1,,,,
,,,,,,2059f9e35eb03c43c2166747,66a626ef09d4e21e1a8894ec,6734e0422ff1434d8e964ab1,2024-11-13_18h23.13.229,Tarea de género gramatical,2024.2.2,Win32,71.94244604,,,,,,,,,,,,,,,,,,,,,,,,153.836,155.0341,a,1,[],[],[],[],[],[],[],0.5197,1,155.0342,155.5342,,,,,,414,MAS,DIS,150,sótano,la,l,0.5197,,155.5342,155.5346,0.079629616,-0.108333376,0,0,0,,0,4,4,413,1,,,,
,,,,,,2059f9e35eb03c43c2166747,66a626ef09d4e21e1a8894ec,6734e0422ff1434d8e964ab1,2024-11-13_18h23.13.229,Tarea de género gramatical,2024.2.2,Win32,71.94244604,,,,,,,,,,,,,,,,,,,,,,,,155.5363,156.5508,a,1,[],[],[],[],[],[],[],0.3435,1,156.5509,157.0507,,,,,,136,MAS,AGR,150,vago,el,l,0.3435,,157.0508,157.0511,0.079629616,-0.108333376,0,0,0,,0,5,5,135,1,,,,
,,,,,,2059f9e35eb03c43c2166747,66a626ef09d4e21e1a8894ec,6734e0422ff1434d8e964ab1,2024-11-13_18h23.13.229,Tarea de género gramatical,2024.2.2,Win32,71.94244604,,,,,,,,,,,,,,,,,,,,,,,,157.0534,158.0843,l,1,[],[],[],[],[],[],[],0.3592,1,158.0845,158.5842,,,,,,99,FEM,DIS,150,fase,el,a,0.3592,,158.5868,158.5883,0.079629616,-0.108333376,0,0,0,,0,6,6,98,1,,,,
,,,,,,2059f9e35eb03c43c2166747,66a626ef09d4e21e1a8894ec,6734e0422ff1434d8e964ab1,2024-11-13_18h23.13.229,Tarea de género gramatical,2024.2.2,Win32,71.94244604,,,,,,,,,,,,,,,,,,,,,,,,158.5896,159.6842,l,1,[],[],[],[],[],[],[],0.418,1,159.6844,160.1843,,,,,,445,FEM,AGR,150,bondad,la,a,0.418,,160.1844,160.1845,0.079629616,-0.108333376,0,0,0,,0,7,7,444,1,,,,
,,,,,,2059f9e35eb03c43c2166747,66a626ef09d4e21e1a8894ec,6734e0422ff1434d8e964ab1,2024-11-13_18h23.13.229,Tarea de género gramatical,2024.2.2,Win32,71.94244604,,,,,,,,,,,,,,,,,,,,,,,,160.1863,161.2343,a,1,[],[],[],[],[],[],[],0.3772,1,161.2344,161.7342,,,,,,352,MAS,AGR,150,estilo,el,l,0.3772,,161.7343,161.7345,0.079629616,-0.108333376,0,0,0,,0,8,8,351,1,,,,
,,,,,,2059f9e35eb03c43c2166747,66a626ef09d4e21e1a8894ec,6734e0422ff1434d8e964ab1,2024-11-13_18h23.13.229,Tarea de género gramatical,2024.2.2,Win32,71.94244604,,,,,,,,,,,,,,,,,,,,,,,,161.7363,162.7343,l,1,[],[],[],[],[],[],[],0.3264,1,162.7345,163.2344,,,,,,361,FEM,AGR,150,oferta,la,a,0.3264,,163.2344,163.2346,0.079629616,-0.108333376,0,0,0,,0,9,9,360,1,,,,
,,,,,,2059f9e35eb03c43c2166747,66a626ef09d4e21e1a8894ec,6734e0422ff1434d8e964ab1,2024-11-13_18h23.13.229,Tarea de género gramatical,2024.2.2,Win32,71.94244604,,,,,,,,,,,,,,,,,,,,,,,,163.2364,164.3013,a,1,[],[],[],[],[],[],[],0.382,1,164.3014,164.8011,,,,,,246,MAS,DIS,150,humor,la,l,0.382,,164.8012,164.8014,0.079629616,-0.108333376,0,0,0,,0,10,10,245,1,,,,
,,,,,,2059f9e35eb03c43c2166747,66a626ef09d4e21e1a8894ec,6734e0422ff1434d8e964ab1,2024-11-13_18h23.13.229,Tarea de género gramatical,2024.2.2,Win32,71.94244604,,,,,,,,,,,,,,,,,,,,,,,,164.8028,165.9843,a,1,[],[],[],[],[],[],[],0.502,1,165.9845,166.4844,,,,,,70,MAS,AGR,150,palo,el,l,0.502,,166.4868,166.4882,0.079629616,-0.108333376,0,0,0,,0,11,11,69,1,,,,
,,,,,,2059f9e35eb03c43c2166747,66a626ef09d4e21e1a8894ec,6734e0422ff1434d8e964ab1,2024-11-13_18h23.13.229,Tarea de género gramatical,2024.2.2,Win32,71.94244604,,,,,,,,,,,,,,,,,,,,,,,,166.4895,167.5178,l,1,[],[],[],[],[],[],[],0.3508,1,167.5179,168.0177,,,,,,92,FEM,CON,150,masa,,a,0.3508,,168.0178,168.018,0.079629616,-0.108333376,0,0,0,,0,12,12,91,1,,,,
,,,,,,2059f9e35eb03c43c2166747,66a626ef09d4e21e1a8894ec,6734e0422ff1434d8e964ab1,2024-11-13_18h23.13.229,Tarea de género gramatical,2024.2.2,Win32,71.94244604,,,,,,,,,,,,,,,,,,,,,,,,168.0197,169.0848,a,1,[],[],[],[],[],[],[],0.3851,1,169.085,169.5844,,,,,,420,MAS,DIS,150,helado,la,l,0.3851,,169.5845,169.5846,0.079629616,-0.108333376,0,0,0,,0,13,13,419,1,,,,
,,,,,,2059f9e35eb03c43c2166747,66a626ef09d4e21e1a8894ec,6734e0422ff1434d8e964ab1,2024-11-13_18h23.13.229,Tarea de género gramatical,2024.2.2,Win32,71.94244604,,,,,,,,,,,,,,,,,,,,,,,,169.5864,170.6679,l,1,[],[],[],[],[],[],[],0.4036,1,170.668,171.168,,,,,,297,FEM,DIS,150,manta,el,a,0.4036,,171.1681,171.1682,0.079629616,-0.108333376,0,0,0,,0,14,14,296,1,,,,
,,,,,,2059f9e35eb03c43c2166747,66a626ef09d4e21e1a8894ec,6734e0422ff1434d8e964ab1,2024-11-13_18h23.13.229,Tarea de género gramatical,2024.2.2,Win32,71.94244604,,,,,,,,,,,,,,,,,,,,,,,,171.1699,172.2678,l,1,[],[],[],[],[],[],[],0.4186,1,172.268,172.7678,,,,,,116,FEM,CON,150,nube,,a,0.4186,,172.7704,172.7717,0.079629616,-0.108333376,0,0,0,,0,15,15,115,1,,,,
,,,,,,2059f9e35eb03c43c2166747,66a626ef09d4e21e1a8894ec,6734e0422ff1434d8e964ab1,2024-11-13_18h23.13.229,Tarea de género gramatical,2024.2.2,Win32,71.94244604,,,,,,,,,,,,,,,,,,,,,,,,172.773,174.0012,l,1,[],[],[],[],[],[],[],0.5509,1,174.0014,174.5012,,,,,,211,FEM,AGR,150,salud,la,a,0.5509,,174.5013,174.5014,0.079629616,-0.108333376,0,0,0,,0,16,16,210,1,,,,
,,,,,,2059f9e35eb03c43c2166747,66a626ef09d4e21e1a8894ec,6734e0422ff1434d8e964ab1,2024-11-13_18h23.13.229,Tarea de género gramatical,2024.2.2,Win32,71.94244604,,,,,,,,,,,,,,,,,,,,,,,,174.5031,175.6348,a,1,[],[],[],[],[],[],[],0.4523,1,175.635,176.1346,,,,,,383,MAS,CON,150,parque,,l,0.4523,,176.1347,176.1348,0.079629616,-0.108333376,0,0,0,,0,17,17,382,1,,,,
,,,,,,2059f9e35eb03c43c2166747,66a626ef09d4e21e1a8894ec,6734e0422ff1434d8e964ab1,2024-11-13_18h23.13.229,Tarea de género gramatical,2024.2.2,Win32,71.94244604,,,,,,,,,,,,,,,,,,,,,,,,176.1366,177.2515,l,1,[],[],[],[],[],[],[],0.4377,1,177.2517,177.7515,,,,,,284,FEM,CON,150,fruta,,a,0.4377,,177.7516,177.7518,0.079629616,-0.108333376,0,0,0,,0,18,18,283,1,,,,
,,,,,,2059f9e35eb03c43c2166747,66a626ef09d4e21e1a8894ec,6734e0422ff1434d8e964ab1,2024-11-13_18h23.13.229,Tarea de género gramatical,2024.2.2,Win32,71.94244604,,,,,,,,,,,,,,,,,,,,,,,,177.7535,178.8019,l,1,[],[],[],[],[],[],[],0.367,1,178.802,179.3013,,,,,,433,FEM,AGR,150,huella,la,a,0.367,,179.3015,179.3016,0.079629616,-0.108333376,0,0,0,,0,19,19,432,1,,,,
,,,,,,2059f9e35eb03c43c2166747,66a626ef09d4e21e1a8894ec,6734e0422ff1434d8e964ab1,2024-11-13_18h23.13.229,Tarea de género gramatical,2024.2.2,Win32,71.94244604,,,,,,,,,,,,,,,,,,,,,,,,179.3034,180.318,l,1,[],[],[],[],[],[],[],0.3338,1,180.3182,180.8181,,,,,,422,FEM,CON,150,rutina,,a,0.3338,,180.8204,180.8219,0.079629616,-0.108333376,0,0,0,,0,20,20,421,1,,,,
,,,,,,2059f9e35eb03c43c2166747,66a626ef09d4e21e1a8894ec,6734e0422ff1434d8e964ab1,2024-11-13_18h23.13.229,Tarea de género gramatical,2024.2.2,Win32,71.94244604,,,,,,,,,,,,,,,,,,,,,,,,180.8232,181.8183,a,1,[],[],[],[],[],[],[],0.3223,1,181.8184,182.3181,,,,,,442,MAS,AGR,150,cuadro,el,l,0.3223,,182.3182,182.3184,0.079629616,-0.108333376,0,0,0,,0,21,21,441,1,,,,
,,,,,,2059f9e35eb03c43c2166747,66a626ef09d4e21e1a8894ec,6734e0422ff1434d8e964ab1,2024-11-13_18h23.13.229,Tarea de género gramatical,2024.2.2,Win32,71.94244604,,,,,,,,,,,,,,,,,,,,,,,,182.3202,183.4182,l,1,[],[],[],[],[],[],[],0.4208,1,183.4183,183.9181,,,,,,189,FEM,DIS,150,pista,el,a,0.4208,,183.9183,183.9184,0.079629616,-0.108333376,0,0,0,,0,22,22,188,1,,,,
,,,,,,2059f9e35eb03c43c2166747,66a626ef09d4e21e1a8894ec,6734e0422ff1434d8e964ab1,2024-11-13_18h23.13.229,Tarea de género gramatical,2024.2.2,Win32,71.94244604,,,,,,,,,,,,,,,,,,,,,,,,183.9202,185.285,l,1,[],[],[],[],[],[],[],0.6862,1,185.2852,185.7849,,,,,,273,FEM,DIS,150,tarta,el,a,0.6862,,185.785,185.7851,0.079629616,-0.108333376,0,0,0,,0,23,23,272,1,,,,
,,,,,,2059f9e35eb03c43c2166747,66a626ef09d4e21e1a8894ec,6734e0422ff1434d8e964ab1,2024-11-13_18h23.13.229,Tarea de género gramatical,2024.2.2,Win32,71.94244604,,,,,,,,,,,,,,,,,,,,,,,,185.7873,187.0683,a,0,[],[],[],[],[],[],[],0.6093,0,187.0697,187.5683,,,,,,429,FEM,DIS,150,fianza,el,a,0.6093,,187.5711,187.5725,0.079629616,-0.108333376,0,0,0,,0,24,24,428,1,,,,
,,,,,,2059f9e35eb03c43c2166747,66a626ef09d4e21e1a8894ec,6734e0422ff1434d8e964ab1,2024-11-13_18h23.13.229,Tarea de género gramatical,2024.2.2,Win32,71.94244604,,,,,,,,,,,,,,,,,,,,,,,,187.5739,188.5684,l,1,[],[],[],[],[],[],[],0.3183,1,188.5701,189.0683,,,,,,134,FEM,CON,150,rama,,a,0.3183,,189.0685,189.0686,0.079629616,-0.108333376,0,0,0,,0,25,25,133,1,,,,
,,,,,,2059f9e35eb03c43c2166747,66a626ef09d4e21e1a8894ec,6734e0422ff1434d8e964ab1,2024-11-13_18h23.13.229,Tarea de género gramatical,2024.2.2,Win32,71.94244604,,,,,,,,,,,,,,,,,,,,,,,,189.0704,190.0683,l,0,[],[],[],[],[],[],[],0.3177,0,190.0697,190.5685,,,,,,274,MAS,AGR,150,motor,el,l,0.3177,,190.5685,190.5687,0.079629616,-0.108333376,0,0,0,,0,26,26,273,1,,,,
,,,,,,2059f9e35eb03c43c2166747,66a626ef09d4e21e1a8894ec,6734e0422ff1434d8e964ab1,2024-11-13_18h23.13.229,Tarea de género gramatical,2024.2.2,Win32,71.94244604,,,,,,,,,,,,,,,,,,,,,,,,190.5704,191.7685,a,1,[],[],[],[],[],[],[],0.5257,1,191.7698,192.2685,,,,,,94,MAS,AGR,150,cabo,el,l,0.5257,,192.2687,192.2688,0.079629616,-0.108333376,0,0,0,,0,27,27,93,1,,,,
,,,,,,2059f9e35eb03c43c2166747,66a626ef09d4e21e1a8894ec,6734e0422ff1434d8e964ab1,2024-11-13_18h23.13.229,Tarea de género gramatical,2024.2.2,Win32,71.94244604,,,,,,,,,,,,,,,,,,,,,,,,192.2707,193.2852,l,1,[],[],[],[],[],[],[],0.3442,1,193.2853,193.7851,,,,,,115,FEM,AGR,150,seda,la,a,0.3442,,193.7852,193.7854,0.079629616,-0.108333376,0,0,0,,0,28,28,114,1,,,,
,,,,,,2059f9e35eb03c43c2166747,66a626ef09d4e21e1a8894ec,6734e0422ff1434d8e964ab1,2024-11-13_18h23.13.229,Tarea de género gramatical,2024.2.2,Win32,71.94244604,,,,,,,,,,,,,,,,,,,,,,,,193.7875,195.0352,l,0,[],[],[],[],[],[],[],0.5692,0,195.0366,195.5352,,,,,,275,MAS,CON,150,disco,,l,0.5692,,195.5376,195.5389,0.079629616,-0.108333376,0,0,0,,0,29,29,274,1,,,,
,,,,,,2059f9e35eb03c43c2166747,66a626ef09d4e21e1a8894ec,6734e0422ff1434d8e964ab1,2024-11-13_18h23.13.229,Tarea de género gramatical,2024.2.2,Win32,71.94244604,,,,,,,,,,,,,,,,,,,,,,,,195.5402,196.8187,a,0,[],[],[],[],[],[],[],0.6069,0,196.8188,197.3186,,,,,,411,FEM,DIS,150,actriz,el,a,0.6069,,197.3187,197.3189,0.079629616,-0.108333376,0,0,0,,0,30,30,410,1,,,,
,,,,,,2059f9e35eb03c43c2166747,66a626ef09d4e21e1a8894ec,6734e0422ff1434d8e964ab1,2024-11-13_18h23.13.229,Tarea de género gramatical,2024.2.2,Win32,71.94244604,,,,,,,,,,,,,,,,,,,,,,,,197.3207,198.5687,l,1,[],[],[],[],[],[],[],0.5738,1,198.5702,199.0686,,,,,,247,FEM,AGR,150,frase,la,a,0.5738,,199.0686,199.0687,0.079629616,-0.108333376,0,0,0,,0,31,31,246,1,,,,
,,,,,,2059f9e35eb03c43c2166747,66a626ef09d4e21e1a8894ec,6734e0422ff1434d8e964ab1,2024-11-13_18h23.13.229,Tarea de género gramatical,2024.2.2,Win32,71.94244604,,,,,,,,,,,,,,,,,,,,,,,,199.0706,200.1188,a,1,[],[],[],[],[],[],[],0.3747,1,200.119,200.6186,,,,,,4,MAS,AGR,150,hijo,el,l,0.3747,,200.6188,200.6189,0.079629616,-0.108333376,0,0,0,,0,32,32,3,1,,,,
,,,,,,2059f9e35eb03c43c2166747,66a626ef09d4e21e1a8894ec,6734e0422ff1434d8e964ab1,2024-11-13_18h23.13.229,Tarea de género gramatical,2024.2.2,Win32,71.94244604,,,,,,,,,,,,,,,,,,,,,,,,200.6212,201.6686,l,1,[],[],[],[],[],[],[],0.3672,1,201.6688,202.1688,,,,,,176,FEM,CON,150,línea,,a,0.3672,,202.1715,202.1728,0.079629616,-0.108333376,0,0,0,,0,33,33,175,1,,,,
,,,,,,2059f9e35eb03c43c2166747,66a626ef09d4e21e1a8894ec,6734e0422ff1434d8e964ab1,2024-11-13_18h23.13.229,Tarea de género gramatical,2024.2.2,Win32,71.94244604,,,,,,,,,,,,,,,,,,,,,,,,202.1743,203.2021,l,1,[],[],[],[],[],[],[],0.3582,1,203.2022,203.702,,,,,,301,FEM,AGR,150,verdad,la,a,0.3582,,203.7022,203.7023,0.079629616,-0.108333376,0,0,0,,0,34,34,300,1,,,,
,,,,,,2059f9e35eb03c43c2166747,66a626ef09d4e21e1a8894ec,6734e0422ff1434d8e964ab1,2024-11-13_18h23.13.229,Tarea de género gramatical,2024.2.2,Win32,71.94244604,,,,,,,,,,,,,,,,,,,,,,,,203.7039,204.9688,a,1,[],[],[],[],[],[],[],0.5916,1,204.9689,205.4687,,,,,,6,MAS,DIS,150,lado,la,l,0.5916,,205.4688,205.4689,0.079629616,-0.108333376,0,0,0,,0,35,35,5,1,,,,
,,,,,,2059f9e35eb03c43c2166747,66a626ef09d4e21e1a8894ec,6734e0422ff1434d8e964ab1,2024-11-13_18h23.13.229,Tarea de género gramatical,2024.2.2,Win32,71.94244604,,,,,,,,,,,,,,,,,,,,,,,,205.4706,206.7022,l,1,[],[],[],[],[],[],[],0.5519,1,206.7024,207.2021,,,,,,338,FEM,CON,150,abuela,,a,0.5519,,207.2022,207.2024,0.079629616,-0.108333376,0,0,0,,0,36,36,337,1,,,,
,,,,,,2059f9e35eb03c43c2166747,66a626ef09d4e21e1a8894ec,6734e0422ff1434d8e964ab1,2024-11-13_18h23.13.229,Tarea de género gramatical,2024.2.2,Win32,71.94244604,,,,,,,,,,,,,,,,,,,,,,,,207.2042,208.5024,l,1,[],[],[],[],[],[],[],0.6168,1,208.5026,209.0028,,,,,,141,FEM,DIS,150,cera,el,a,0.6168,,209.0029,209.0029,0.079629616,-0.108333376,0,0,0,,0,37,37,140,1,,,,
,,,,,,2059f9e35eb03c43c2166747,66a626ef09d4e21e1a8894ec,6734e0422ff1434d8e964ab1,2024-11-13_18h23.13.229,Tarea de género gramatical,2024.2.2,Win32,71.94244604,,,,,,,,,,,,,,,,,,,,,,,,209.0044,210.0855,l,0,[],[],[],[],[],[],[],0.4032,0,210.0874,210.5858,,,,,,262,MAS,AGR,150,video,el,l,0.4032,,210.5895,210.5908,0.079629616,-0.108333376,0,0,0,,0,38,38,261,1,,,,
,,,,,,2059f9e35eb03c43c2166747,66a626ef09d4e21e1a8894ec,6734e0422ff1434d8e964ab1,2024-11-13_18h23.13.229,Tarea de género gramatical,2024.2.2,Win32,71.94244604,,,,,,,,,,,,,,,,,,,,,,,,210.5923,211.8191,a,1,[],[],[],[],[],[],[],0.5594,1,211.8205,212.3189,,,,,,336,MAS,DIS,150,crimen,la,l,0.5594,,212.319,212.3191,0.079629616,-0.108333376,0,0,0,,0,39,39,335,1,,,,
,,,,,,2059f9e35eb03c43c2166747,66a626ef09d4e21e1a8894ec,6734e0422ff1434d8e964ab1,2024-11-13_18h23.13.229,Tarea de género gramatical,2024.2.2,Win32,71.94244604,,,,,,,,,,,,,,,,,,,,,,,,212.3211,213.469,l,1,[],[],[],[],[],[],[],0.4736,1,213.4692,213.969,,,,,,225,FEM,DIS,150,pieza,el,a,0.4736,,213.969,213.9691,0.079629616,-0.108333376,0,0,0,,0,40,40,224,1,,,,
,,,,,,2059f9e35eb03c43c2166747,66a626ef09d4e21e1a8894ec,6734e0422ff1434d8e964ab1,2024-11-13_18h23.13.229,Tarea de género gramatical,2024.2.2,Win32,71.94244604,,,,,,,,,,,,,,,,,,,,,,,,213.9709,215.1358,a,1,[],[],[],[],[],[],[],0.4847,1,215.136,215.6357,,,,,,292,MAS,AGR,150,piano,el,l,0.4847,,215.6358,215.6359,0.079629616,-0.108333376,0,0,0,,0,41,41,291,1,,,,
,,,,,,2059f9e35eb03c43c2166747,66a626ef09d4e21e1a8894ec,6734e0422ff1434d8e964ab1,2024-11-13_18h23.13.229,Tarea de género gramatical,2024.2.2,Win32,71.94244604,,,,,,,,,,,,,,,,,,,,,,,,215.6377,216.6692,a,1,[],[],[],[],[],[],[],0.3534,1,216.6694,217.1694,,,,,,322,MAS,AGR,150,minuto,el,l,0.3534,,217.1713,217.1728,0.079629616,-0.108333376,0,0,0,,0,42,42,321,1,,,,
,,,,,,2059f9e35eb03c43c2166747,66a626ef09d4e21e1a8894ec,6734e0422ff1434d8e964ab1,2024-11-13_18h23.13.229,Tarea de género gramatical,2024.2.2,Win32,71.94244604,,,,,,,,,,,,,,,,,,,,,,,,217.1742,218.4691,l,1,[],[],[],[],[],[],[],0.6192,1,218.4693,218.9692,,,,,,164,FEM,CON,150,novia,,a,0.6192,,218.9693,218.9695,0.079629616,-0.108333376,0,0,0,,0,43,43,163,1,,,,
,,,,,,2059f9e35eb03c43c2166747,66a626ef09d4e21e1a8894ec,6734e0422ff1434d8e964ab1,2024-11-13_18h23.13.229,Tarea de género gramatical,2024.2.2,Win32,71.94244604,,,,,,,,,,,,,,,,,,,,,,,,218.972,220.0191,l,1,[],[],[],[],[],[],[],0.3675,1,220.0194,220.5192,,,,,,385,FEM,AGR,150,muñeca,la,a,0.3675,,220.5193,220.5195,0.079629616,-0.108333376,0,0,0,,0,44,44,384,1,,,,
,,,,,,2059f9e35eb03c43c2166747,66a626ef09d4e21e1a8894ec,6734e0422ff1434d8e964ab1,2024-11-13_18h23.13.229,Tarea de género gramatical,2024.2.2,Win32,71.94244604,,,,,,,,,,,,,,,,,,,,,,,,220.5213,221.7026,l,1,[],[],[],[],[],[],[],0.5025,1,221.7028,222.2028,,,,,,51,FEM,DIS,150,bala,el,a,0.5025,,222.2029,222.2031,0.079629616,-0.108333376,0,0,0,,0,45,45,50,1,,,,
,,,,,,2059f9e35eb03c43c2166747,66a626ef09d4e21e1a8894ec,6734e0422ff1434d8e964ab1,2024-11-13_18h23.13.229,Tarea de género gramatical,2024.2.2,Win32,71.94244604,,,,,,,,,,,,,,,,,,,,,,,,222.2049,223.3698,l,1,[],[],[],[],[],[],[],0.4956,1,223.3699,223.8693,,,,,,194,FEM,CON,150,banda,,a,0.4956,,223.8694,223.8695,0.079629616,-0.108333376,0,0,0,,0,46,46,193,1,,,,
,,,,,,2059f9e35eb03c43c2166747,66a626ef09d4e21e1a8894ec,6734e0422ff1434d8e964ab1,2024-11-13_18h23.13.229,Tarea de género gramatical,2024.2.2,Win32,71.94244604,,,,,,,,,,,,,,,,,,,,,,,,223.871,224.9027,a,1,[],[],[],[],[],[],[],0.3518,1,224.9029,225.4026,,,,,,311,MAS,CON,150,camino,,l,0.3518,,225.4047,225.4062,0.079629616,-0.108333376,0,0,0,,0,47,47,310,1,,,,
,,,,,,2059f9e35eb03c43c2166747,66a626ef09d4e21e1a8894ec,6734e0422ff1434d8e964ab1,2024-11-13_18h23.13.229,Tarea de género gramatical,2024.2.2,Win32,71.94244604,,,,,,,,,,,,,,,,,,,,,,,,225.4078,226.5028,l,1,[],[],[],[],[],[],[],0.4187,1,226.5029,227.0026,,,,,,231,FEM,DIS,150,bruja,el,a,0.4187,,227.0028,227.0029,0.079629616,-0.108333376,0,0,0,,0,48,48,230,1,,,,
,,,,,,2059f9e35eb03c43c2166747,66a626ef09d4e21e1a8894ec,6734e0422ff1434d8e964ab1,2024-11-13_18h23.13.229,Tarea de género gramatical,2024.2.2,Win32,71.94244604,,,,,,,,,,,,,,,,,,,,,,,,227.0047,228.4527,l,1,[],[],[],[],[],[],[],0.7665,1,228.4528,228.9528,,,,,,182,FEM,CON,150,prisa,,a,0.7665,,228.9528,228.9529,0.079629616,-0.108333376,0,0,0,,0,49,49,181,1,,,,
,,,,,,2059f9e35eb03c43c2166747,66a626ef09d4e21e1a8894ec,6734e0422ff1434d8e964ab1,2024-11-13_18h23.13.229,Tarea de género gramatical,2024.2.2,Win32,71.94244604,,,,,,,,,,,,,,,,,,,,,,,,228.9547,229.9862,l,1,[],[],[],[],[],[],[],0.3618,1,229.9864,230.4862,,,,,,259,FEM,AGR,150,prima,la,a,0.3618,,230.4863,230.4864,0.079629616,-0.108333376,0,0,0,,0,50,50,258,1,,,,
,,,,,,2059f9e35eb03c43c2166747,66a626ef09d4e21e1a8894ec,6734e0422ff1434d8e964ab1,2024-11-13_18h23.13.229,Tarea de género gramatical,2024.2.2,Win32,71.94244604,,,,,,,,,,,,,,,,,,,,,,,,230.4889,231.6695,l,1,[],[],[],[],[],[],[],0.501,1,231.6697,232.1695,,,,,,117,FEM,DIS,150,raya,el,a,0.501,,232.1714,232.1727,0.079629616,-0.108333376,0,0,0,,0,51,51,116,1,,,,
,,,,,,2059f9e35eb03c43c2166747,66a626ef09d4e21e1a8894ec,6734e0422ff1434d8e964ab1,2024-11-13_18h23.13.229,Tarea de género gramatical,2024.2.2,Win32,71.94244604,,,,,,,,,,,,,,,,,,,,,,,,232.1741,233.3195,l,1,[],[],[],[],[],[],[],0.4728,1,233.3197,233.8195,,,,,,248,FEM,CON,150,letra,,a,0.4728,,233.8196,233.8198,0.079629616,-0.108333376,0,0,0,,0,52,52,247,1,,,,
,,,,,,2059f9e35eb03c43c2166747,66a626ef09d4e21e1a8894ec,6734e0422ff1434d8e964ab1,2024-11-13_18h23.13.229,Tarea de género gramatical,2024.2.2,Win32,71.94244604,,,,,,,,,,,,,,,,,,,,,,,,233.8213,234.9862,a,1,[],[],[],[],[],[],[],0.4933,1,234.9864,235.4862,,,,,,197,MAS,CON,150,avión,,l,0.4933,,235.4863,235.4864,0.079629616,-0.108333376,0,0,0,,0,53,53,196,1,,,,
,,,,,,2059f9e35eb03c43c2166747,66a626ef09d4e21e1a8894ec,6734e0422ff1434d8e964ab1,2024-11-13_18h23.13.229,Tarea de género gramatical,2024.2.2,Win32,71.94244604,,,,,,,,,,,,,,,,,,,,,,,,235.4882,236.6363,a,1,[],[],[],[],[],[],[],0.4703,1,236.6365,237.1365,,,,,,126,MAS,DIS,150,lazo,la,l,0.4703,,237.1365,237.1367,0.079629616,-0.108333376,0,0,0,,0,54,54,125,1,,,,
,,,,,,2059f9e35eb03c43c2166747,66a626ef09d4e21e1a8894ec,6734e0422ff1434d8e964ab1,2024-11-13_18h23.13.229,Tarea de género gramatical,2024.2.2,Win32,71.94244604,,,,,,,,,,,,,,,,,,,,,,,,237.1384,238.2031,a,1,[],[],[],[],[],[],[],0.3838,1,238.2032,238.7032,,,,,,24,MAS,DIS,150,voto,la,l,0.3838,,238.7033,238.7035,0.079629616,-0.108333376,0,0,0,,0,55,55,23,1,,,,
,,,,,,2059f9e35eb03c43c2166747,66a626ef09d4e21e1a8894ec,6734e0422ff1434d8e964ab1,2024-11-13_18h23.13.229,Tarea de género gramatical,2024.2.2,Win32,71.94244604,,,,,,,,,,,,,,,,,,,,,,,,238.7051,239.753,a,1,[],[],[],[],[],[],[],0.3748,1,239.7532,240.2529,,,,,,40,MAS,AGR,150,dios,el,l,0.3748,,240.2545,240.2557,0.079629616,-0.108333376,0,0,0,,0,56,56,39,1,,,,
,,,,,,2059f9e35eb03c43c2166747,66a626ef09d4e21e1a8894ec,6734e0422ff1434d8e964ab1,2024-11-13_18h23.13.229,Tarea de género gramatical,2024.2.2,Win32,71.94244604,,,,,,,,,,,,,,,,,,,,,,,,240.2569,241.4532,a,1,[],[],[],[],[],[],[],0.52,1,241.4533,241.9531,,,,,,276,MAS,DIS,150,ritmo,la,l,0.52,,241.9532,241.9534,0.079629616,-0.108333376,0,0,0,,0,57,57,275,1,,,,
,,,,,,2059f9e35eb03c43c2166747,66a626ef09d4e21e1a8894ec,6734e0422ff1434d8e964ab1,2024-11-13_18h23.13.229,Tarea de género gramatical,2024.2.2,Win32,71.94244604,,,,,,,,,,,,,,,,,,,,,,,,241.9551,242.9699,l,1,[],[],[],[],[],[],[],0.3426,1,242.97,243.4697,,,,,,313,FEM,AGR,150,ciudad,la,a,0.3426,,243.4699,243.4702,0.079629616,-0.108333376,0,0,0,,0,58,58,312,1,,,,
,,,,,,2059f9e35eb03c43c2166747,66a626ef09d4e21e1a8894ec,6734e0422ff1434d8e964ab1,2024-11-13_18h23.13.229,Tarea de género gramatical,2024.2.2,Win32,71.94244604,,,,,,,,,,,,,,,,,,,,,,,,243.4719,244.5035,a,1,[],[],[],[],[],[],[],0.3538,1,244.5036,245.0031,,,,,,269,MAS,CON,150,primo,,l,0.3538,,245.0032,245.0034,0.079629616,-0.108333376,0,0,0,,0,59,59,268,1,,,,
,,,,,,2059f9e35eb03c43c2166747,66a626ef09d4e21e1a8894ec,6734e0422ff1434d8e964ab1,2024-11-13_18h23.13.229,Tarea de género gramatical,2024.2.2,Win32,71.94244604,,,,,,,,,,,,,,,,,,,,,,,,245.0053,246.0532,a,1,[],[],[],[],[],[],[],0.3741,1,246.0534,246.5538,,,,,,28,MAS,AGR,150,club,el,l,0.3741,,246.5558,246.5571,0.079629616,-0.108333376,0,0,0,,0,60,60,27,1,,,,
,,,,,,2059f9e35eb03c43c2166747,66a626ef09d4e21e1a8894ec,6734e0422ff1434d8e964ab1,2024-11-13_18h23.13.229,Tarea de género gramatical,2024.2.2,Win32,71.94244604,,,,,,,,,,,,,,,,,,,,,,,,246.559,247.6867,l,1,[],[],[],[],[],[],[],0.4507,1,247.6869,248.1866,,,,,,9,FEM,DIS,150,mamá,el,a,0.4507,,248.1867,248.1868,0.079629616,-0.108333376,0,0,0,,0,61,61,8,1,,,,
,,,,,,2059f9e35eb03c43c2166747,66a626ef09d4e21e1a8894ec,6734e0422ff1434d8e964ab1,2024-11-13_18h23.13.229,Tarea de género gramatical,2024.2.2,Win32,71.94244604,,,,,,,,,,,,,,,,,,,,,,,,248.1885,249.2367,a,1,[],[],[],[],[],[],[],0.3684,1,249.2369,249.7367,,,,,,96,MAS,DIS,150,pato,la,l,0.3684,,249.7368,249.737,0.079629616,-0.108333376,0,0,0,,0,62,62,95,1,,,,
,,,,,,2059f9e35eb03c43c2166747,66a626ef09d4e21e1a8894ec,6734e0422ff1434d8e964ab1,2024-11-13_18h23.13.229,Tarea de género gramatical,2024.2.2,Win32,71.94244604,,,,,,,,,,,,,,,,,,,,,,,,249.7388,250.8033,a,1,[],[],[],[],[],[],[],0.3842,1,250.8035,251.3034,,,,,,12,MAS,DIS,150,plan,la,l,0.3842,,251.3035,251.3037,0.079629616,-0.108333376,0,0,0,,0,63,63,11,1,,,,
,,,,,,2059f9e35eb03c43c2166747,66a626ef09d4e21e1a8894ec,6734e0422ff1434d8e964ab1,2024-11-13_18h23.13.229,Tarea de género gramatical,2024.2.2,Win32,71.94244604,,,,,,,,,,,,,,,,,,,,,,,,251.3054,252.3867,a,1,[],[],[],[],[],[],[],0.4053,1,252.3868,252.8867,,,,,,418,MAS,AGR,150,pájaro,el,l,0.4053,,252.8869,252.887,0.079629616,-0.108333376,0,0,0,,0,64,64,417,1,,,,
,,,,,,2059f9e35eb03c43c2166747,66a626ef09d4e21e1a8894ec,6734e0422ff1434d8e964ab1,2024-11-13_18h23.13.229,Tarea de género gramatical,2024.2.2,Win32,71.94244604,,,,,,,,,,,,,,,,,,,,,,,,252.8887,254.0868,a,1,[],[],[],[],[],[],[],0.5216,1,254.0869,254.5872,,,,,,239,MAS,CON,150,reloj,,l,0.5216,,254.589,254.5907,0.079629616,-0.108333376,0,0,0,,0,65,65,238,1,,,,
,,,,,,2059f9e35eb03c43c2166747,66a626ef09d4e21e1a8894ec,6734e0422ff1434d8e964ab1,2024-11-13_18h23.13.229,Tarea de género gramatical,2024.2.2,Win32,71.94244604,,,,,,,,,,,,,,,,,,,,,,,,254.5927,255.6869,a,1,[],[],[],[],[],[],[],0.4215,1,255.687,256.1868,,,,,,131,MAS,CON,150,kilo,,l,0.4215,,256.1869,256.1871,0.079629616,-0.108333376,0,0,0,,0,66,66,130,1,,,,
,,,,,,2059f9e35eb03c43c2166747,66a626ef09d4e21e1a8894ec,6734e0422ff1434d8e964ab1,2024-11-13_18h23.13.229,Tarea de género gramatical,2024.2.2,Win32,71.94244604,,,,,,,,,,,,,,,,,,,,,,,,256.1891,257.237,a,1,[],[],[],[],[],[],[],0.3684,1,257.2372,257.7369,,,,,,341,MAS,CON,150,precio,,l,0.3684,,257.737,257.7371,0.079629616,-0.108333376,0,0,0,,0,67,67,340,1,,,,
,,,,,,2059f9e35eb03c43c2166747,66a626ef09d4e21e1a8894ec,6734e0422ff1434d8e964ab1,2024-11-13_18h23.13.229,Tarea de género gramatical,2024.2.2,Win32,71.94244604,,,,,,,,,,,,,,,,,,,,,,,,257.7389,258.8705,l,1,[],[],[],[],[],[],[],0.4518,1,258.8706,259.3703,,,,,,255,FEM,DIS,150,tribu,el,a,0.4518,,259.3704,259.3705,0.079629616,-0.108333376,0,0,0,,0,68,68,254,1,,,,
,,,,,,2059f9e35eb03c43c2166747,66a626ef09d4e21e1a8894ec,6734e0422ff1434d8e964ab1,2024-11-13_18h23.13.229,Tarea de género gramatical,2024.2.2,Win32,71.94244604,,,,,,,,,,,,,,,,,,,,,,,,259.3723,260.3536,l,1,[],[],[],[],[],[],[],0.3006,1,260.3538,260.8536,,,,,,261,FEM,DIS,150,cueva,el,a,0.3006,,260.8558,260.857,0.079629616,-0.108333376,0,0,0,,0,69,69,260,1,,,,
,,,,,,2059f9e35eb03c43c2166747,66a626ef09d4e21e1a8894ec,6734e0422ff1434d8e964ab1,2024-11-13_18h23.13.229,Tarea de género gramatical,2024.2.2,Win32,71.94244604,,,,,,,,,,,,,,,,,,,,,,,,260.8584,262.0537,l,1,[],[],[],[],[],[],[],0.5274,1,262.0539,262.5537,,,,,,441,FEM,DIS,150,medida,el,a,0.5274,,262.5539,262.554,0.079629616,-0.108333376,0,0,0,,0,70,70,440,1,,,,
,,,,,,2059f9e35eb03c43c2166747,66a626ef09d4e21e1a8894ec,6734e0422ff1434d8e964ab1,2024-11-13_18h23.13.229,Tarea de género gramatical,2024.2.2,Win32,71.94244604,,,,,,,,,,,,,,,,,,,,,,,,262.5557,263.5037,l,1,[],[],[],[],[],[],[],0.2759,1,263.5039,264.0038,,,,,,374,FEM,CON,150,herida,,a,0.2759,,264.0039,264.0041,0.079629616,-0.108333376,0,0,0,,0,71,71,373,1,,,,
,,,,,,2059f9e35eb03c43c2166747,66a626ef09d4e21e1a8894ec,6734e0422ff1434d8e964ab1,2024-11-13_18h23.13.229,Tarea de género gramatical,2024.2.2,Win32,71.94244604,,,,,,,,,,,,,,,,,,,,,,,,264.0058,265.0708,l,1,[],[],[],[],[],[],[],0.3843,1,265.0709,265.5709,,,,,,163,FEM,AGR,150,calle,la,a,0.3843,,265.571,265.5711,0.079629616,-0.108333376,0,0,0,,0,72,72,162,1,,,,
,,,,,,2059f9e35eb03c43c2166747,66a626ef09d4e21e1a8894ec,6734e0422ff1434d8e964ab1,2024-11-13_18h23.13.229,Tarea de género gramatical,2024.2.2,Win32,71.94244604,,,,,,,,,,,,,,,,,,,,,,,,265.5728,266.5871,a,1,[],[],[],[],[],[],[],0.3425,1,266.5873,267.087,,,,,,46,MAS,AGR,150,odio,el,l,0.3425,,267.0872,267.0873,0.079629616,-0.108333376,0,0,0,,0,73,73,45,1,,,,
,,,,,,2059f9e35eb03c43c2166747,66a626ef09d4e21e1a8894ec,6734e0422ff1434d8e964ab1,2024-11-13_18h23.13.229,Tarea de género gramatical,2024.2.2,Win32,71.94244604,,,,,,,,,,,,,,,,,,,,,,,,267.0893,268.3705,l,1,[],[],[],[],[],[],[],0.6043,1,268.3707,268.8707,,,,,,33,FEM,DIS,150,boda,el,a,0.6043,,268.8725,268.874,0.079629616,-0.108333376,0,0,0,,0,74,74,32,1,,,,
,,,,,,2059f9e35eb03c43c2166747,66a626ef09d4e21e1a8894ec,6734e0422ff1434d8e964ab1,2024-11-13_18h23.13.229,Tarea de género gramatical,2024.2.2,Win32,71.94244604,,,,,,,,,,,,,,,,,,,,,,,,268.8757,269.9039,a,1,[],[],[],[],[],[],[],0.3595,1,269.9041,270.4039,,,,,,78,MAS,DIS,150,oído,la,l,0.3595,,270.4039,270.4041,0.079629616,-0.108333376,0,0,0,,0,75,75,77,1,,,,
,,,,,,2059f9e35eb03c43c2166747,66a626ef09d4e21e1a8894ec,6734e0422ff1434d8e964ab1,2024-11-13_18h23.13.229,Tarea de género gramatical,2024.2.2,Win32,71.94244604,,,,,,,,,,,,,,,,,,,,,,,,270.4058,271.6206,a,1,[],[],[],[],[],[],[],0.5412,1,271.6208,272.1207,,,,,,228,MAS,DIS,150,nivel,la,l,0.5412,,272.1208,272.121,0.079629616,-0.108333376,0,0,0,,0,76,76,227,1,,,,
,,,,,,2059f9e35eb03c43c2166747,66a626ef09d4e21e1a8894ec,6734e0422ff1434d8e964ab1,2024-11-13_18h23.13.229,Tarea de género gramatical,2024.2.2,Win32,71.94244604,,,,,,,,,,,,,,,,,,,,,,,,272.1227,273.3208,l,1,[],[],[],[],[],[],[],0.5202,1,273.321,273.8209,,,,,,49,FEM,AGR,150,piel,la,a,0.5202,,273.8209,273.8211,0.079629616,-0.108333376,0,0,0,,0,77,77,48,1,,,,
,,,,,,2059f9e35eb03c43c2166747,66a626ef09d4e21e1a8894ec,6734e0422ff1434d8e964ab1,2024-11-13_18h23.13.229,Tarea de género gramatical,2024.2.2,Win32,71.94244604,,,,,,,,,,,,,,,,,,,,,,,,273.8228,275.0041,a,1,[],[],[],[],[],[],[],0.5004,1,275.0043,275.504,,,,,,413,MAS,CON,150,diario,,l,0.5004,,275.506,275.5073,0.079629616,-0.108333376,0,0,0,,0,78,78,412,1,,,,
,,,,,,2059f9e35eb03c43c2166747,66a626ef09d4e21e1a8894ec,6734e0422ff1434d8e964ab1,2024-11-13_18h23.13.229,Tarea de género gramatical,2024.2.2,Win32,71.94244604,,,,,,,,,,,,,,,,,,,,,,,,275.5087,276.6209,l,1,[],[],[],[],[],[],[],0.4343,1,276.6209,277.1207,,,,,,217,FEM,AGR,150,tarea,la,a,0.4343,,277.1208,277.121,0.079629616,-0.108333376,0,0,0,,0,79,79,216,1,,,,
,,,,,,2059f9e35eb03c43c2166747,66a626ef09d4e21e1a8894ec,6734e0422ff1434d8e964ab1,2024-11-13_18h23.13.229,Tarea de género gramatical,2024.2.2,Win32,71.94244604,,,,,,,,,,,,,,,,,,,,,,,,277.1226,278.2542,a,1,[],[],[],[],[],[],[],0.4518,1,278.2544,278.7541,,,,,,221,MAS,CON,150,brazo,,l,0.4518,,278.7542,278.7545,0.079629616,-0.108333376,0,0,0,,0,80,80,220,1,,,,
,,,,,,2059f9e35eb03c43c2166747,66a626ef09d4e21e1a8894ec,6734e0422ff1434d8e964ab1,2024-11-13_18h23.13.229,Tarea de género gramatical,2024.2.2,Win32,71.94244604,,,,,,,,,,,,,,,,,,,,,,,,278.7569,279.7376,a,1,[],[],[],[],[],[],[],0.3089,1,279.7378,280.2376,,,,,,280,MAS,AGR,150,salón,el,l,0.3089,,280.2377,280.2379,0.079629616,-0.108333376,0,0,0,,0,81,81,279,1,,,,
,,,,,,2059f9e35eb03c43c2166747,66a626ef09d4e21e1a8894ec,6734e0422ff1434d8e964ab1,2024-11-13_18h23.13.229,Tarea de género gramatical,2024.2.2,Win32,71.94244604,,,,,,,,,,,,,,,,,,,,,,,,280.2398,281.2042,a,1,[],[],[],[],[],[],[],0.2928,1,281.2044,281.7042,,,,,,396,MAS,DIS,150,tesoro,la,l,0.2928,,281.7043,281.7044,0.079629616,-0.108333376,0,0,0,,0,82,82,395,1,,,,
,,,,,,2059f9e35eb03c43c2166747,66a626ef09d4e21e1a8894ec,6734e0422ff1434d8e964ab1,2024-11-13_18h23.13.229,Tarea de género gramatical,2024.2.2,Win32,71.94244604,,,,,,,,,,,,,,,,,,,,,,,,281.7061,282.8542,a,1,[],[],[],[],[],[],[],0.476,1,282.8544,283.3542,,,,,,144,MAS,DIS,150,amor,la,l,0.476,,283.3564,283.3577,0.079629616,-0.108333376,0,0,0,,0,83,83,143,1,,,,
,,,,,,2059f9e35eb03c43c2166747,66a626ef09d4e21e1a8894ec,6734e0422ff1434d8e964ab1,2024-11-13_18h23.13.229,Tarea de género gramatical,2024.2.2,Win32,71.94244604,,,,,,,,,,,,,,,,,,,,,,,,283.3589,284.4044,a,1,[],[],[],[],[],[],[],0.3683,1,284.4045,284.9043,,,,,,448,MAS,AGR,150,aceite,el,l,0.3683,,284.9044,284.9046,0.079629616,-0.108333376,0,0,0,,0,84,84,447,1,,,,
,,,,,,2059f9e35eb03c43c2166747,66a626ef09d4e21e1a8894ec,6734e0422ff1434d8e964ab1,2024-11-13_18h23.13.229,Tarea de género gramatical,2024.2.2,Win32,71.94244604,,,,,,,,,,,,,,,,,,,,,,,,284.9064,286.2544,l,1,[],[],[],[],[],[],[],0.6697,1,286.2545,286.7545,,,,,,387,FEM,DIS,150,página,el,a,0.6697,,286.7546,286.7548,0.079629616,-0.108333376,0,0,0,,0,85,85,386,1,,,,
,,,,,,2059f9e35eb03c43c2166747,66a626ef09d4e21e1a8894ec,6734e0422ff1434d8e964ab1,2024-11-13_18h23.13.229,Tarea de género gramatical,2024.2.2,Win32,71.94244604,,,,,,,,,,,,,,,,,,,,,,,,286.7565,287.8879,a,1,[],[],[],[],[],[],[],0.4561,1,287.8879,288.3879,,,,,,430,MAS,AGR,150,título,el,l,0.4561,,288.388,288.3881,0.079629616,-0.108333376,0,0,0,,0,86,86,429,1,,,,
,,,,,,2059f9e35eb03c43c2166747,66a626ef09d4e21e1a8894ec,6734e0422ff1434d8e964ab1,2024-11-13_18h23.13.229,Tarea de género gramatical,2024.2.2,Win32,71.94244604,,,,,,,,,,,,,,,,,,,,,,,,288.3901,289.5046,l,1,[],[],[],[],[],[],[],0.443,1,289.5047,290.0044,,,,,,369,FEM,DIS,150,camisa,el,a,0.443,,290.0064,290.0077,0.079629616,-0.108333376,0,0,0,,0,87,87,368,1,,,,
,,,,,,2059f9e35eb03c43c2166747,66a626ef09d4e21e1a8894ec,6734e0422ff1434d8e964ab1,2024-11-13_18h23.13.229,Tarea de género gramatical,2024.2.2,Win32,71.94244604,,,,,,,,,,,,,,,,,,,,,,,,290.009,291.1545,l,1,[],[],[],[],[],[],[],0.4689,1,291.1546,291.6545,,,,,,153,FEM,DIS,150,mujer,el,a,0.4689,,291.6545,291.6547,0.079629616,-0.108333376,0,0,0,,0,88,88,152,1,,,,
,,,,,,2059f9e35eb03c43c2166747,66a626ef09d4e21e1a8894ec,6734e0422ff1434d8e964ab1,2024-11-13_18h23.13.229,Tarea de género gramatical,2024.2.2,Win32,71.94244604,,,,,,,,,,,,,,,,,,,,,,,,291.6563,292.7045,a,1,[],[],[],[],[],[],[],0.3688,1,292.7047,293.2045,,,,,,215,MAS,CON,150,hueso,,l,0.3688,,293.2046,293.2047,0.079629616,-0.108333376,0,0,0,,0,89,89,214,1,,,,
,,,,,,2059f9e35eb03c43c2166747,66a626ef09d4e21e1a8894ec,6734e0422ff1434d8e964ab1,2024-11-13_18h23.13.229,Tarea de género gramatical,2024.2.2,Win32,71.94244604,,,,,,,,,,,,,,,,,,,,,,,,293.2064,294.2545,a,1,[],[],[],[],[],[],[],0.3667,1,294.2547,294.7545,,,,,,438,MAS,DIS,150,tanque,la,l,0.3667,,294.7547,294.7548,0.079629616,-0.108333376,0,0,0,,0,90,90,437,1,,,,
,,,,,,2059f9e35eb03c43c2166747,66a626ef09d4e21e1a8894ec,6734e0422ff1434d8e964ab1,2024-11-13_18h23.13.229,Tarea de género gramatical,2024.2.2,Win32,71.94244604,,,,,,,,,,,,,,,,,,,,,,,,294.7564,295.8712,a,1,[],[],[],[],[],[],[],0.4358,1,295.8714,296.3712,,,,,,258,MAS,DIS,150,polvo,la,l,0.4358,,296.3713,296.3715,0.079629616,-0.108333376,0,0,0,,0,91,91,257,1,,,,
,,,,,,2059f9e35eb03c43c2166747,66a626ef09d4e21e1a8894ec,6734e0422ff1434d8e964ab1,2024-11-13_18h23.13.229,Tarea de género gramatical,2024.2.2,Win32,71.94244604,,,,,,,,,,,,,,,,,,,,,,,,296.3734,297.5046,a,1,[],[],[],[],[],[],[],0.4591,1,297.5048,298.005,,,,,,426,MAS,DIS,150,pánico,la,l,0.4591,,298.0068,298.0083,0.079629616,-0.108333376,0,0,0,,0,92,92,425,1,,,,
,,,,,,2059f9e35eb03c43c2166747,66a626ef09d4e21e1a8894ec,6734e0422ff1434d8e964ab1,2024-11-13_18h23.13.229,Tarea de género gramatical,2024.2.2,Win32,71.94244604,,,,,,,,,,,,,,,,,,,,,,,,298.0097,299.0714,l,1,[],[],[],[],[],[],[],0.3854,1,299.0716,299.5713,,,,,,403,FEM,AGR,150,paliza,la,a,0.3854,,299.5714,299.5716,0.079629616,-0.108333376,0,0,0,,0,93,93,402,1,,,,
,,,,,,2059f9e35eb03c43c2166747,66a626ef09d4e21e1a8894ec,6734e0422ff1434d8e964ab1,2024-11-13_18h23.13.229,Tarea de género gramatical,2024.2.2,Win32,71.94244604,,,,,,,,,,,,,,,,,,,,,,,,299.5734,300.638,a,0,[],[],[],[],[],[],[],0.394,0,300.6395,301.138,,,,,,135,FEM,DIS,150,raíz,el,a,0.394,,301.1381,301.1382,0.079629616,-0.108333376,0,0,0,,0,94,94,134,1,,,,
,,,,,,2059f9e35eb03c43c2166747,66a626ef09d4e21e1a8894ec,6734e0422ff1434d8e964ab1,2024-11-13_18h23.13.229,Tarea de género gramatical,2024.2.2,Win32,71.94244604,,,,,,,,,,,,,,,,,,,,,,,,301.1401,302.2882,l,1,[],[],[],[],[],[],[],0.4724,1,302.2895,302.7881,,,,,,129,FEM,DIS,150,rana,el,a,0.4724,,302.7882,302.7883,0.079629616,-0.108333376,0,0,0,,0,95,95,128,1,,,,
,,,,,,2059f9e35eb03c43c2166747,66a626ef09d4e21e1a8894ec,6734e0422ff1434d8e964ab1,2024-11-13_18h23.13.229,Tarea de género gramatical,2024.2.2,Win32,71.94244604,,,,,,,,,,,,,,,,,,,,,,,,302.79,303.8882,a,1,[],[],[],[],[],[],[],0.424,1,303.8883,304.3881,,,,,,233,MAS,CON,150,golpe,,l,0.424,,304.39,304.3913,0.079629616,-0.108333376,0,0,0,,0,96,96,232,1,,,,
,,,,,,2059f9e35eb03c43c2166747,66a626ef09d4e21e1a8894ec,6734e0422ff1434d8e964ab1,2024-11-13_18h23.13.229,Tarea de género gramatical,2024.2.2,Win32,71.94244604,,,,,,,,,,,,,,,,,,,,,,,,304.3933,305.5549,l,1,[],[],[],[],[],[],[],0.494,1,305.555,306.0553,,,,,,326,FEM,CON,150,música,,a,0.494,,306.0554,306.0556,0.079629616,-0.108333376,0,0,0,,0,97,97,325,1,,,,
,,,,,,2059f9e35eb03c43c2166747,66a626ef09d4e21e1a8894ec,6734e0422ff1434d8e964ab1,2024-11-13_18h23.13.229,Tarea de género gramatical,2024.2.2,Win32,71.94244604,,,,,,,,,,,,,,,,,,,,,,,,306.0585,307.0718,a,1,[],[],[],[],[],[],[],0.3368,1,307.0719,307.5719,,,,,,390,MAS,DIS,150,rostro,la,l,0.3368,,307.572,307.5721,0.079629616,-0.108333376,0,0,0,,0,98,98,389,1,,,,
,,,,,,2059f9e35eb03c43c2166747,66a626ef09d4e21e1a8894ec,6734e0422ff1434d8e964ab1,2024-11-13_18h23.13.229,Tarea de género gramatical,2024.2.2,Win32,71.94244604,,,,,,,,,,,,,,,,,,,,,,,,307.5737,308.6221,a,1,[],[],[],[],[],[],[],0.3732,1,308.6222,309.1216,,,,,,52,MAS,AGR,150,lago,el,l,0.3732,,309.1217,309.1219,0.079629616,-0.108333376,0,0,0,,0,99,99,51,1,,,,
,,,,,,2059f9e35eb03c43c2166747,66a626ef09d4e21e1a8894ec,6734e0422ff1434d8e964ab1,2024-11-13_18h23.13.229,Tarea de género gramatical,2024.2.2,Win32,71.94244604,,,,,,,,,,,,,,,,,,,,,,,,309.1238,310.1883,l,1,[],[],[],[],[],[],[],0.3867,1,310.1884,310.6883,,,,,,290,FEM,CON,150,cabra,,a,0.3867,,310.6883,310.6885,0.079629616,-0.108333376,0,0,0,,0,100,100,289,1,,,,
,,,,,,2059f9e35eb03c43c2166747,66a626ef09d4e21e1a8894ec,6734e0422ff1434d8e964ab1,2024-11-13_18h23.13.229,Tarea de género gramatical,2024.2.2,Win32,71.94244604,,,,,,,,,,,,,,,,,,,,,,,,310.6902,311.7384,l,1,[],[],[],[],[],[],[],0.3686,1,311.7386,312.2386,,,,,,379,FEM,AGR,150,granja,la,a,0.3686,,312.2404,312.2416,0.079629616,-0.108333376,0,0,0,,0,101,101,378,1,,,,
,,,,,,2059f9e35eb03c43c2166747,66a626ef09d4e21e1a8894ec,6734e0422ff1434d8e964ab1,2024-11-13_18h23.13.229,Tarea de género gramatical,2024.2.2,Win32,71.94244604,,,,,,,,,,,,,,,,,,,,,,,,312.2431,313.2884,l,1,[],[],[],[],[],[],[],0.3695,1,313.2885,313.7887,,,,,,104,FEM,CON,150,vela,,a,0.3695,,313.7888,313.7889,0.079629616,-0.108333376,0,0,0,,0,102,102,103,1,,,,
,,,,,,2059f9e35eb03c43c2166747,66a626ef09d4e21e1a8894ec,6734e0422ff1434d8e964ab1,2024-11-13_18h23.13.229,Tarea de género gramatical,2024.2.2,Win32,71.94244604,,,,,,,,,,,,,,,,,,,,,,,,313.7908,315.0719,l,1,[],[],[],[],[],[],[],0.6169,1,315.0721,315.5721,,,,,,45,FEM,DIS,150,isla,el,a,0.6169,,315.5722,315.5724,0.079629616,-0.108333376,0,0,0,,0,103,103,44,1,,,,
,,,,,,2059f9e35eb03c43c2166747,66a626ef09d4e21e1a8894ec,6734e0422ff1434d8e964ab1,2024-11-13_18h23.13.229,Tarea de género gramatical,2024.2.2,Win32,71.94244604,,,,,,,,,,,,,,,,,,,,,,,,315.574,316.5721,a,1,[],[],[],[],[],[],[],0.3196,1,316.5722,317.072,,,,,,256,MAS,AGR,150,techo,el,l,0.3196,,317.072,317.0722,0.079629616,-0.108333376,0,0,0,,0,104,104,255,1,,,,
,,,,,,2059f9e35eb03c43c2166747,66a626ef09d4e21e1a8894ec,6734e0422ff1434d8e964ab1,2024-11-13_18h23.13.229,Tarea de género gramatical,2024.2.2,Win32,71.94244604,,,,,,,,,,,,,,,,,,,,,,,,317.0743,318.1221,a,1,[],[],[],[],[],[],[],0.3739,1,318.1221,318.6222,,,,,,71,MAS,CON,150,pozo,,l,0.3739,,318.6244,318.6265,0.079629616,-0.108333376,0,0,0,,0,105,105,70,1,,,,
,,,,,,2059f9e35eb03c43c2166747,66a626ef09d4e21e1a8894ec,6734e0422ff1434d8e964ab1,2024-11-13_18h23.13.229,Tarea de género gramatical,2024.2.2,Win32,71.94244604,,,,,,,,,,,,,,,,,,,,,,,,318.6282,319.7388,l,1,[],[],[],[],[],[],[],0.4429,1,319.7389,320.2385,,,,,,105,FEM,DIS,150,jefa,el,a,0.4429,,320.2386,320.2388,0.079629616,-0.108333376,0,0,0,,0,106,106,104,1,,,,
,,,,,,2059f9e35eb03c43c2166747,66a626ef09d4e21e1a8894ec,6734e0422ff1434d8e964ab1,2024-11-13_18h23.13.229,Tarea de género gramatical,2024.2.2,Win32,71.94244604,,,,,,,,,,,,,,,,,,,,,,,,320.2404,321.3386,a,1,[],[],[],[],[],[],[],0.4257,1,321.3388,321.8386,,,,,,125,MAS,CON,150,bate,,l,0.4257,,321.8387,321.8388,0.079629616,-0.108333376,0,0,0,,0,107,107,124,1,,,,
,,,,,,2059f9e35eb03c43c2166747,66a626ef09d4e21e1a8894ec,6734e0422ff1434d8e964ab1,2024-11-13_18h23.13.229,Tarea de género gramatical,2024.2.2,Win32,71.94244604,,,,,,,,,,,,,,,,,,,,,,,,321.8405,322.9053,l,1,[],[],[],[],[],[],[],0.3857,1,322.9055,323.4053,,,,,,417,FEM,DIS,150,cabaña,el,a,0.3857,,323.4054,323.4055,0.079629616,-0.108333376,0,0,0,,0,108,108,416,1,,,,
,,,,,,2059f9e35eb03c43c2166747,66a626ef09d4e21e1a8894ec,6734e0422ff1434d8e964ab1,2024-11-13_18h23.13.229,Tarea de género gramatical,2024.2.2,Win32,71.94244604,,,,,,,,,,,,,,,,,,,,,,,,323.4073,324.4053,a,1,[],[],[],[],[],[],[],0.3192,1,324.4055,324.9054,,,,,,226,MAS,AGR,150,color,el,l,0.3192,,324.9054,324.9056,0.079629616,-0.108333376,0,0,0,,0,109,109,225,1,,,,
,,,,,,2059f9e35eb03c43c2166747,66a626ef09d4e21e1a8894ec,6734e0422ff1434d8e964ab1,2024-11-13_18h23.13.229,Tarea de género gramatical,2024.2.2,Win32,71.94244604,,,,,,,,,,,,,,,,,,,,,,,,324.9072,325.9387,l,1,[],[],[],[],[],[],[],0.3509,1,325.9388,326.4387,,,,,,73,FEM,AGR,150,roca,la,a,0.3509,,326.4407,326.4422,0.079629616,-0.108333376,0,0,0,,0,110,110,72,1,,,,
,,,,,,2059f9e35eb03c43c2166747,66a626ef09d4e21e1a8894ec,6734e0422ff1434d8e964ab1,2024-11-13_18h23.13.229,Tarea de género gramatical,2024.2.2,Win32,71.94244604,,,,,,,,,,,,,,,,,,,,,,,,326.4433,327.4556,a,1,[],[],[],[],[],[],[],0.3364,1,327.4556,327.956,,,,,,88,MAS,AGR,150,pavo,el,l,0.3364,,327.9561,327.9562,0.079629616,-0.108333376,0,0,0,,0,111,111,87,1,,,,
,,,,,,2059f9e35eb03c43c2166747,66a626ef09d4e21e1a8894ec,6734e0422ff1434d8e964ab1,2024-11-13_18h23.13.229,Tarea de género gramatical,2024.2.2,Win32,71.94244604,,,,,,,,,,,,,,,,,,,,,,,,327.958,328.9892,l,1,[],[],[],[],[],[],[],0.3506,1,328.9894,329.4888,,,,,,43,FEM,AGR,150,nena,la,a,0.3506,,329.4889,329.4891,0.079629616,-0.108333376,0,0,0,,0,112,112,42,1,,,,
,,,,,,2059f9e35eb03c43c2166747,66a626ef09d4e21e1a8894ec,6734e0422ff1434d8e964ab1,2024-11-13_18h23.13.229,Tarea de género gramatical,2024.2.2,Win32,71.94244604,,,,,,,,,,,,,,,,,,,,,,,,329.4905,330.5555,l,1,[],[],[],[],[],[],[],0.3902,1,330.5558,331.0555,,,,,,302,FEM,CON,150,cabeza,,a,0.3902,,331.0555,331.0557,0.079629616,-0.108333376,0,0,0,,0,113,113,301,1,,,,
,,,,,,2059f9e35eb03c43c2166747,66a626ef09d4e21e1a8894ec,6734e0422ff1434d8e964ab1,2024-11-13_18h23.13.229,Tarea de género gramatical,2024.2.2,Win32,71.94244604,,,,,,,,,,,,,,,,,,,,,,,,331.0574,332.2223,l,1,[],[],[],[],[],[],[],0.4878,1,332.2224,332.7222,,,,,,139,FEM,AGR,150,pipa,la,a,0.4878,,332.7249,332.7259,0.079629616,-0.108333376,0,0,0,,0,114,114,138,1,,,,
,,,,,,2059f9e35eb03c43c2166747,66a626ef09d4e21e1a8894ec,6734e0422ff1434d8e964ab1,2024-11-13_18h23.13.229,Tarea de género gramatical,2024.2.2,Win32,71.94244604,,,,,,,,,,,,,,,,,,,,,,,,332.727,333.7056,a,1,[],[],[],[],[],[],[],0.3016,1,333.7058,334.2056,,,,,,34,MAS,AGR,150,gato,el,l,0.3016,,334.2057,334.2058,0.079629616,-0.108333376,0,0,0,,0,115,115,33,1,,,,
,,,,,,2059f9e35eb03c43c2166747,66a626ef09d4e21e1a8894ec,6734e0422ff1434d8e964ab1,2024-11-13_18h23.13.229,Tarea de género gramatical,2024.2.2,Win32,71.94244604,,,,,,,,,,,,,,,,,,,,,,,,334.207,335.3058,l,0,[],[],[],[],[],[],[],0.416,0,335.3069,335.8061,,,,,,282,MAS,DIS,150,bolso,la,l,0.416,,335.8062,335.8064,0.079629616,-0.108333376,0,0,0,,0,116,116,281,1,,,,
,,,,,,2059f9e35eb03c43c2166747,66a626ef09d4e21e1a8894ec,6734e0422ff1434d8e964ab1,2024-11-13_18h23.13.229,Tarea de género gramatical,2024.2.2,Win32,71.94244604,,,,,,,,,,,,,,,,,,,,,,,,335.8078,336.8392,a,1,[],[],[],[],[],[],[],0.3516,1,336.8405,337.339,,,,,,268,MAS,AGR,150,truco,el,l,0.3516,,337.339,337.3393,0.079629616,-0.108333376,0,0,0,,0,117,117,267,1,,,,
,,,,,,2059f9e35eb03c43c2166747,66a626ef09d4e21e1a8894ec,6734e0422ff1434d8e964ab1,2024-11-13_18h23.13.229,Tarea de género gramatical,2024.2.2,Win32,71.94244604,,,,,,,,,,,,,,,,,,,,,,,,337.3406,338.7893,a,1,[],[],[],[],[],[],[],0.7708,1,338.7893,339.2891,,,,,,288,MAS,DIS,150,grado,la,l,0.7708,,339.2892,339.2894,0.079629616,-0.108333376,0,0,0,,0,118,118,287,1,,,,
,,,,,,2059f9e35eb03c43c2166747,66a626ef09d4e21e1a8894ec,6734e0422ff1434d8e964ab1,2024-11-13_18h23.13.229,Tarea de género gramatical,2024.2.2,Win32,71.94244604,,,,,,,,,,,,,,,,,,,,,,,,339.2911,340.4391,a,1,[],[],[],[],[],[],[],0.467,1,340.4393,340.9391,,,,,,48,MAS,DIS,150,loco,la,l,0.467,,340.9411,340.9423,0.079629616,-0.108333376,0,0,0,,0,119,119,47,1,,,,
,,,,,,2059f9e35eb03c43c2166747,66a626ef09d4e21e1a8894ec,6734e0422ff1434d8e964ab1,2024-11-13_18h23.13.229,Tarea de género gramatical,2024.2.2,Win32,71.94244604,,,,,,,,,,,,,,,,,,,,,,,,340.9433,341.9724,a,1,[],[],[],[],[],[],[],0.3595,1,341.9724,342.4725,,,,,,360,MAS,DIS,150,puente,la,l,0.3595,,342.4726,342.4728,0.079629616,-0.108333376,0,0,0,,0,120,120,359,1,,,,
,,,,,,2059f9e35eb03c43c2166747,66a626ef09d4e21e1a8894ec,6734e0422ff1434d8e964ab1,2024-11-13_18h23.13.229,Tarea de género gramatical,2024.2.2,Win32,71.94244604,,,,,,,,,,,,,,,,,,,,,,,,342.4745,343.506,a,1,[],[],[],[],[],[],[],0.3507,1,343.5061,344.0059,,,,,,203,MAS,CON,150,novio,,l,0.3507,,344.006,344.0061,0.079629616,-0.108333376,0,0,0,,0,121,121,202,1,,,,
,,,,,,2059f9e35eb03c43c2166747,66a626ef09d4e21e1a8894ec,6734e0422ff1434d8e964ab1,2024-11-13_18h23.13.229,Tarea de género gramatical,2024.2.2,Win32,71.94244604,,,,,,,,,,,,,,,,,,,,,,,,344.0079,345.0735,l,1,[],[],[],[],[],[],[],0.3952,1,345.0737,345.5726,,,,,,145,FEM,AGR,150,bota,la,a,0.3952,,345.5727,345.5728,0.079629616,-0.108333376,0,0,0,,0,122,122,144,1,,,,
,,,,,,2059f9e35eb03c43c2166747,66a626ef09d4e21e1a8894ec,6734e0422ff1434d8e964ab1,2024-11-13_18h23.13.229,Tarea de género gramatical,2024.2.2,Win32,71.94244604,,,,,,,,,,,,,,,,,,,,,,,,345.5745,346.7564,l,1,[],[],[],[],[],[],[],0.5098,1,346.7565,347.2557,,,,,,398,FEM,CON,150,hierba,,a,0.5098,,347.2575,347.2584,0.079629616,-0.108333376,0,0,0,,0,123,123,397,1,,,,
,,,,,,2059f9e35eb03c43c2166747,66a626ef09d4e21e1a8894ec,6734e0422ff1434d8e964ab1,2024-11-13_18h23.13.229,Tarea de género gramatical,2024.2.2,Win32,71.94244604,,,,,,,,,,,,,,,,,,,,,,,,347.2594,348.2892,a,0,[],[],[],[],[],[],[],0.3579,0,348.2905,348.7893,,,,,,321,FEM,DIS,150,comida,el,a,0.3579,,348.7893,348.7896,0.079629616,-0.108333376,0,0,0,,0,124,124,320,1,,,,
,,,,,,2059f9e35eb03c43c2166747,66a626ef09d4e21e1a8894ec,6734e0422ff1434d8e964ab1,2024-11-13_18h23.13.229,Tarea de género gramatical,2024.2.2,Win32,71.94244604,,,,,,,,,,,,,,,,,,,,,,,,348.791,349.8728,l,1,[],[],[],[],[],[],[],0.4004,1,349.8741,350.3727,,,,,,175,FEM,AGR,150,señal,la,a,0.4004,,350.3729,350.373,0.079629616,-0.108333376,0,0,0,,0,125,125,174,1,,,,
,,,,,,2059f9e35eb03c43c2166747,66a626ef09d4e21e1a8894ec,6734e0422ff1434d8e964ab1,2024-11-13_18h23.13.229,Tarea de género gramatical,2024.2.2,Win32,71.94244604,,,,,,,,,,,,,,,,,,,,,,,,350.3747,351.4393,l,1,[],[],[],[],[],[],[],0.3927,1,351.4394,351.9396,,,,,,109,FEM,AGR,150,gota,la,a,0.3927,,351.9397,351.9398,0.079629616,-0.108333376,0,0,0,,0,126,126,108,1,,,,
,,,,,,2059f9e35eb03c43c2166747,66a626ef09d4e21e1a8894ec,6734e0422ff1434d8e964ab1,2024-11-13_18h23.13.229,Tarea de género gramatical,2024.2.2,Win32,71.94244604,,,,,,,,,,,,,,,,,,,,,,,,351.9414,352.9894,l,1,[],[],[],[],[],[],[],0.3731,1,352.9895,353.4895,,,,,,103,FEM,AGR,150,fama,la,a,0.3731,,353.4895,353.4897,0.079629616,-0.108333376,0,0,0,,0,127,127,102,1,,,,
,,,,,,2059f9e35eb03c43c2166747,66a626ef09d4e21e1a8894ec,6734e0422ff1434d8e964ab1,2024-11-13_18h23.13.229,Tarea de género gramatical,2024.2.2,Win32,71.94244604,,,,,,,,,,,,,,,,,,,,,,,,353.4913,354.6229,a,1,[],[],[],[],[],[],[],0.4521,1,354.623,355.1229,,,,,,204,MAS,DIS,150,papel,la,l,0.4521,,355.1248,355.126,0.079629616,-0.108333376,0,0,0,,0,128,128,203,1,,,,
,,,,,,2059f9e35eb03c43c2166747,66a626ef09d4e21e1a8894ec,6734e0422ff1434d8e964ab1,2024-11-13_18h23.13.229,Tarea de género gramatical,2024.2.2,Win32,71.94244604,,,,,,,,,,,,,,,,,,,,,,,,355.1269,356.1394,l,1,[],[],[],[],[],[],[],0.3413,1,356.1396,356.6397,,,,,,314,FEM,CON,150,señora,,a,0.3413,,356.6397,356.6399,0.079629616,-0.108333376,0,0,0,,0,129,129,313,1,,,,
,,,,,,2059f9e35eb03c43c2166747,66a626ef09d4e21e1a8894ec,6734e0422ff1434d8e964ab1,2024-11-13_18h23.13.229,Tarea de género gramatical,2024.2.2,Win32,71.94244604,,,,,,,,,,,,,,,,,,,,,,,,356.6416,357.7397,a,1,[],[],[],[],[],[],[],0.4233,1,357.7399,358.2398,,,,,,60,MAS,DIS,150,tono,la,l,0.4233,,358.2398,358.24,0.079629616,-0.108333376,0,0,0,,0,130,130,59,1,,,,
,,,,,,2059f9e35eb03c43c2166747,66a626ef09d4e21e1a8894ec,6734e0422ff1434d8e964ab1,2024-11-13_18h23.13.229,Tarea de género gramatical,2024.2.2,Win32,71.94244604,,,,,,,,,,,,,,,,,,,,,,,,358.2417,359.323,a,1,[],[],[],[],[],[],[],0.4009,1,359.3232,359.823,,,,,,180,MAS,DIS,150,fuego,la,l,0.4009,,359.823,359.8232,0.079629616,-0.108333376,0,0,0,,0,131,131,179,1,,,,
,,,,,,2059f9e35eb03c43c2166747,66a626ef09d4e21e1a8894ec,6734e0422ff1434d8e964ab1,2024-11-13_18h23.13.229,Tarea de género gramatical,2024.2.2,Win32,71.94244604,,,,,,,,,,,,,,,,,,,,,,,,359.8249,360.9231,l,1,[],[],[],[],[],[],[],0.419,1,360.9232,361.423,,,,,,128,FEM,CON,150,leña,,a,0.419,,361.4247,361.4256,0.079629616,-0.108333376,0,0,0,,0,132,132,127,1,,,,
,,,,,,2059f9e35eb03c43c2166747,66a626ef09d4e21e1a8894ec,6734e0422ff1434d8e964ab1,2024-11-13_18h23.13.229,Tarea de género gramatical,2024.2.2,Win32,71.94244604,,,,,,,,,,,,,,,,,,,,,,,,361.4267,362.4568,l,1,[],[],[],[],[],[],[],0.3622,1,362.457,362.9564,,,,,,127,FEM,AGR,150,cuna,la,a,0.3622,,362.9565,362.9565,0.079629616,-0.108333376,0,0,0,,0,133,133,126,1,,,,
,,,,,,2059f9e35eb03c43c2166747,66a626ef09d4e21e1a8894ec,6734e0422ff1434d8e964ab1,2024-11-13_18h23.13.229,Tarea de género gramatical,2024.2.2,Win32,71.94244604,,,,,,,,,,,,,,,,,,,,,,,,362.958,364.2899,a,1,[],[],[],[],[],[],[],0.6564,1,364.2901,364.7896,,,,,,138,MAS,DIS,150,luto,la,l,0.6564,,364.7897,364.7898,0.079629616,-0.108333376,0,0,0,,0,134,134,137,1,,,,
,,,,,,2059f9e35eb03c43c2166747,66a626ef09d4e21e1a8894ec,6734e0422ff1434d8e964ab1,2024-11-13_18h23.13.229,Tarea de género gramatical,2024.2.2,Win32,71.94244604,,,,,,,,,,,,,,,,,,,,,,,,364.7913,365.8564,l,1,[],[],[],[],[],[],[],0.3932,1,365.8564,366.3565,,,,,,332,FEM,CON,150,basura,,a,0.3932,,366.3566,366.3567,0.079629616,-0.108333376,0,0,0,,0,135,135,331,1,,,,
,,,,,,2059f9e35eb03c43c2166747,66a626ef09d4e21e1a8894ec,6734e0422ff1434d8e964ab1,2024-11-13_18h23.13.229,Tarea de género gramatical,2024.2.2,Win32,71.94244604,,,,,,,,,,,,,,,,,,,,,,,,366.3583,367.3734,a,1,[],[],[],[],[],[],[],0.3372,1,367.3735,367.8732,,,,,,156,MAS,DIS,150,amigo,la,l,0.3372,,367.8734,367.8735,0.079629616,-0.108333376,0,0,0,,0,136,136,155,1,,,,
,,,,,,2059f9e35eb03c43c2166747,66a626ef09d4e21e1a8894ec,6734e0422ff1434d8e964ab1,2024-11-13_18h23.13.229,Tarea de género gramatical,2024.2.2,Win32,71.94244604,,,,,,,,,,,,,,,,,,,,,,,,367.8752,368.9067,a,1,[],[],[],[],[],[],[],0.3514,1,368.9068,369.4066,,,,,,108,MAS,DIS,150,hilo,la,l,0.3514,,369.4086,369.4099,0.079629616,-0.108333376,0,0,0,,0,137,137,107,1,,,,
,,,,,,2059f9e35eb03c43c2166747,66a626ef09d4e21e1a8894ec,6734e0422ff1434d8e964ab1,2024-11-13_18h23.13.229,Tarea de género gramatical,2024.2.2,Win32,71.94244604,,,,,,,,,,,,,,,,,,,,,,,,369.4114,370.4066,a,1,[],[],[],[],[],[],[],0.3239,1,370.4067,370.9066,,,,,,84,MAS,DIS,150,mago,la,l,0.3239,,370.9067,370.9068,0.079629616,-0.108333376,0,0,0,,0,138,138,83,1,,,,
,,,,,,2059f9e35eb03c43c2166747,66a626ef09d4e21e1a8894ec,6734e0422ff1434d8e964ab1,2024-11-13_18h23.13.229,Tarea de género gramatical,2024.2.2,Win32,71.94244604,,,,,,,,,,,,,,,,,,,,,,,,370.9087,371.9067,a,1,[],[],[],[],[],[],[],0.3187,1,371.9068,372.4068,,,,,,162,MAS,DIS,150,miedo,la,l,0.3187,,372.4069,372.4071,0.079629616,-0.108333376,0,0,0,,0,139,139,161,1,,,,
,,,,,,2059f9e35eb03c43c2166747,66a626ef09d4e21e1a8894ec,6734e0422ff1434d8e964ab1,2024-11-13_18h23.13.229,Tarea de género gramatical,2024.2.2,Win32,71.94244604,,,,,,,,,,,,,,,,,,,,,,,,372.4088,373.5067,l,1,[],[],[],[],[],[],[],0.4213,1,373.5069,374.0071,,,,,,339,FEM,DIS,150,salida,el,a,0.4213,,374.0072,374.0073,0.079629616,-0.108333376,0,0,0,,0,140,140,338,1,,,,
,,,,,,2059f9e35eb03c43c2166747,66a626ef09d4e21e1a8894ec,6734e0422ff1434d8e964ab1,2024-11-13_18h23.13.229,Tarea de género gramatical,2024.2.2,Win32,71.94244604,,,,,,,,,,,,,,,,,,,,,,,,374.0094,375.0235,a,1,[],[],[],[],[],[],[],0.3437,1,375.0236,375.5235,,,,,,227,MAS,CON,150,vuelo,,l,0.3437,,375.5255,375.5267,0.079629616,-0.108333376,0,0,0,,0,141,141,226,1,,,,
,,,,,,2059f9e35eb03c43c2166747,66a626ef09d4e21e1a8894ec,6734e0422ff1434d8e964ab1,2024-11-13_18h23.13.229,Tarea de género gramatical,2024.2.2,Win32,71.94244604,,,,,,,,,,,,,,,,,,,,,,,,375.5285,376.7069,l,1,[],[],[],[],[],[],[],0.5089,1,376.707,377.2068,,,,,,381,FEM,DIS,150,bebida,el,a,0.5089,,377.2069,377.2071,0.079629616,-0.108333376,0,0,0,,0,142,142,380,1,,,,
,,,,,,2059f9e35eb03c43c2166747,66a626ef09d4e21e1a8894ec,6734e0422ff1434d8e964ab1,2024-11-13_18h23.13.229,Tarea de género gramatical,2024.2.2,Win32,71.94244604,,,,,,,,,,,,,,,,,,,,,,,,377.2088,378.257,l,1,[],[],[],[],[],[],[],0.3675,1,378.2572,378.7569,,,,,,39,FEM,DIS,150,luna,el,a,0.3675,,378.757,378.7571,0.079629616,-0.108333376,0,0,0,,0,143,143,38,1,,,,
,,,,,,2059f9e35eb03c43c2166747,66a626ef09d4e21e1a8894ec,6734e0422ff1434d8e964ab1,2024-11-13_18h23.13.229,Tarea de género gramatical,2024.2.2,Win32,71.94244604,,,,,,,,,,,,,,,,,,,,,,,,378.7587,379.8406,a,1,[],[],[],[],[],[],[],0.4098,1,379.8408,380.3403,,,,,,449,MAS,CON,150,payaso,,l,0.4098,,380.3404,380.3405,0.079629616,-0.108333376,0,0,0,,0,144,144,448,1,,,,
,,,,,,2059f9e35eb03c43c2166747,66a626ef09d4e21e1a8894ec,6734e0422ff1434d8e964ab1,2024-11-13_18h23.13.229,Tarea de género gramatical,2024.2.2,Win32,71.94244604,,,,,,,,,,,,,,,,,,,,,,,,380.3422,381.424,l,1,[],[],[],[],[],[],[],0.4123,1,381.4241,381.9238,,,,,,86,FEM,CON,150,cruz,,a,0.4123,,381.9239,381.924,0.079629616,-0.108333376,0,0,0,,0,145,145,85,1,,,,
,,,,,,2059f9e35eb03c43c2166747,66a626ef09d4e21e1a8894ec,6734e0422ff1434d8e964ab1,2024-11-13_18h23.13.229,Tarea de género gramatical,2024.2.2,Win32,71.94244604,,,,,,,,,,,,,,,,,,,,,,,,381.9257,383.0403,l,1,[],[],[],[],[],[],[],0.4357,1,383.0404,383.5403,,,,,,343,FEM,AGR,150,trampa,la,a,0.4357,,383.5422,383.5436,0.079629616,-0.108333376,0,0,0,,0,146,146,342,1,,,,
,,,,,,2059f9e35eb03c43c2166747,66a626ef09d4e21e1a8894ec,6734e0422ff1434d8e964ab1,2024-11-13_18h23.13.229,Tarea de género gramatical,2024.2.2,Win32,71.94244604,,,,,,,,,,,,,,,,,,,,,,,,383.5448,384.5737,l,1,[],[],[],[],[],[],[],0.3516,1,384.5738,385.0738,,,,,,416,FEM,CON,150,colina,,a,0.3516,,385.0739,385.074,0.079629616,-0.108333376,0,0,0,,0,147,147,415,1,,,,
,,,,,,2059f9e35eb03c43c2166747,66a626ef09d4e21e1a8894ec,6734e0422ff1434d8e964ab1,2024-11-13_18h23.13.229,Tarea de género gramatical,2024.2.2,Win32,71.94244604,,,,,,,,,,,,,,,,,,,,,,,,385.0758,386.1072,a,1,[],[],[],[],[],[],[],0.3515,1,386.1073,386.6072,,,,,,150,MAS,DIS,150,mozo,la,l,0.3515,,386.6073,386.6075,0.079629616,-0.108333376,0,0,0,,0,148,148,149,1,,,,
,,,,,,2059f9e35eb03c43c2166747,66a626ef09d4e21e1a8894ec,6734e0422ff1434d8e964ab1,2024-11-13_18h23.13.229,Tarea de género gramatical,2024.2.2,Win32,71.94244604,,,,,,,,,,,,,,,,,,,,,,,,386.6091,387.6404,l,1,[],[],[],[],[],[],[],0.3505,1,387.6406,388.1403,,,,,,373,FEM,AGR,150,lluvia,la,a,0.3505,,388.1404,388.1405,0.079629616,-0.108333376,0,0,0,,0,149,149,372,1,,,,
,,,,,,2059f9e35eb03c43c2166747,66a626ef09d4e21e1a8894ec,6734e0422ff1434d8e964ab1,2024-11-13_18h23.13.229,Tarea de género gramatical,2024.2.2,Win32,71.94244604,,,,,,,,,,,,,,,,,,,,,,,,388.1414,389.1238,l,1,[],[],[],[],[],[],[],0.3084,1,389.1239,389.6238,,,,,,55,FEM,AGR,150,taza,la,a,0.3084,,389.6256,401.1576,0.079629616,-0.108333376,0,0,0,space,0,150,150,54,1,11.5036,,,
,,,,,,2059f9e35eb03c43c2166747,66a626ef09d4e21e1a8894ec,6734e0422ff1434d8e964ab1,2024-11-13_18h23.13.229,Tarea de género gramatical,2024.2.2,Win32,71.94244604,,,,,,,,,,,,,,,,,,,,,,,,401.1595,402.2075,l,1,[],[],[],[],[],[],[],0.3727,1,402.2077,402.7075,,,,,,57,FEM,DIS,150,moda,el,a,0.3727,,402.7076,402.7077,0.079629616,-0.108333376,0,0,0,,0,151,151,56,1,,,,
,,,,,,2059f9e35eb03c43c2166747,66a626ef09d4e21e1a8894ec,6734e0422ff1434d8e964ab1,2024-11-13_18h23.13.229,Tarea de género gramatical,2024.2.2,Win32,71.94244604,,,,,,,,,,,,,,,,,,,,,,,,402.7095,403.7243,l,1,[],[],[],[],[],[],[],0.342,1,403.7244,404.2243,,,,,,285,FEM,DIS,150,mafia,el,a,0.342,,404.2244,404.2245,0.079629616,-0.108333376,0,0,0,,0,152,152,284,1,,,,
,,,,,,2059f9e35eb03c43c2166747,66a626ef09d4e21e1a8894ec,6734e0422ff1434d8e964ab1,2024-11-13_18h23.13.229,Tarea de género gramatical,2024.2.2,Win32,71.94244604,,,,,,,,,,,,,,,,,,,,,,,,404.2262,405.2078,l,1,[],[],[],[],[],[],[],0.3016,1,405.208,405.7081,,,,,,236,FEM,CON,150,deuda,,a,0.3016,,405.7081,405.7084,0.079629616,-0.108333376,0,0,0,,0,153,153,235,1,,,,
,,,,,,2059f9e35eb03c43c2166747,66a626ef09d4e21e1a8894ec,6734e0422ff1434d8e964ab1,2024-11-13_18h23.13.229,Tarea de género gramatical,2024.2.2,Win32,71.94244604,,,,,,,,,,,,,,,,,,,,,,,,405.7101,406.8913,l,1,[],[],[],[],[],[],[],0.5014,1,406.8914,407.3909,,,,,,21,FEM,DIS,150,boca,el,a,0.5014,,407.3911,407.3912,0.079629616,-0.108333376,0,0,0,,0,154,154,20,1,,,,
,,,,,,2059f9e35eb03c43c2166747,66a626ef09d4e21e1a8894ec,6734e0422ff1434d8e964ab1,2024-11-13_18h23.13.229,Tarea de género gramatical,2024.2.2,Win32,71.94244604,,,,,,,,,,,,,,,,,,,,,,,,407.3928,408.4077,a,1,[],[],[],[],[],[],[],0.3362,1,408.4078,408.9076,,,,,,365,MAS,CON,150,código,,l,0.3362,,408.9094,408.9107,0.079629616,-0.108333376,0,0,0,,0,155,155,364,1,,,,
,,,,,,2059f9e35eb03c43c2166747,66a626ef09d4e21e1a8894ec,6734e0422ff1434d8e964ab1,2024-11-13_18h23.13.229,Tarea de género gramatical,2024.2.2,Win32,71.94244604,,,,,,,,,,,,,,,,,,,,,,,,408.9118,409.8911,a,1,[],[],[],[],[],[],[],0.3034,1,409.8912,410.391,,,,,,172,MAS,AGR,150,poder,el,l,0.3034,,410.3911,410.3913,0.079629616,-0.108333376,0,0,0,,0,156,156,171,1,,,,
,,,,,,2059f9e35eb03c43c2166747,66a626ef09d4e21e1a8894ec,6734e0422ff1434d8e964ab1,2024-11-13_18h23.13.229,Tarea de género gramatical,2024.2.2,Win32,71.94244604,,,,,,,,,,,,,,,,,,,,,,,,410.3929,411.4079,l,1,[],[],[],[],[],[],[],0.3344,1,411.408,411.9077,,,,,,357,FEM,DIS,150,lengua,el,a,0.3344,,411.9078,411.9079,0.079629616,-0.108333376,0,0,0,,0,157,157,356,1,,,,
,,,,,,2059f9e35eb03c43c2166747,66a626ef09d4e21e1a8894ec,6734e0422ff1434d8e964ab1,2024-11-13_18h23.13.229,Tarea de género gramatical,2024.2.2,Win32,71.94244604,,,,,,,,,,,,,,,,,,,,,,,,411.9096,412.9079,a,1,[],[],[],[],[],[],[],0.3214,1,412.908,413.4079,,,,,,185,MAS,CON,150,sueño,,l,0.3214,,413.408,413.4081,0.079629616,-0.108333376,0,0,0,,0,158,158,184,1,,,,
,,,,,,2059f9e35eb03c43c2166747,66a626ef09d4e21e1a8894ec,6734e0422ff1434d8e964ab1,2024-11-13_18h23.13.229,Tarea de género gramatical,2024.2.2,Win32,71.94244604,,,,,,,,,,,,,,,,,,,,,,,,413.4099,414.3912,a,1,[],[],[],[],[],[],[],0.3099,1,414.3914,414.8911,,,,,,155,MAS,CON,150,mundo,,l,0.3099,,414.893,414.8942,0.079629616,-0.108333376,0,0,0,,0,159,159,154,1,,,,
,,,,,,2059f9e35eb03c43c2166747,66a626ef09d4e21e1a8894ec,6734e0422ff1434d8e964ab1,2024-11-13_18h23.13.229,Tarea de género gramatical,2024.2.2,Win32,71.94244604,,,,,,,,,,,,,,,,,,,,,,,,414.8956,415.9084,l,1,[],[],[],[],[],[],[],0.3453,1,415.9084,416.4079,,,,,,212,FEM,CON,150,cinta,,a,0.3453,,416.408,416.4081,0.079629616,-0.108333376,0,0,0,,0,160,160,211,1,,,,
,,,,,,2059f9e35eb03c43c2166747,66a626ef09d4e21e1a8894ec,6734e0422ff1434d8e964ab1,2024-11-13_18h23.13.229,Tarea de género gramatical,2024.2.2,Win32,71.94244604,,,,,,,,,,,,,,,,,,,,,,,,416.4099,417.3747,l,1,[],[],[],[],[],[],[],0.2845,1,417.3748,417.8746,,,,,,200,FEM,CON,150,silla,,a,0.2845,,417.8747,417.8748,0.079629616,-0.108333376,0,0,0,,0,161,161,199,1,,,,
,,,,,,2059f9e35eb03c43c2166747,66a626ef09d4e21e1a8894ec,6734e0422ff1434d8e964ab1,2024-11-13_18h23.13.229,Tarea de género gramatical,2024.2.2,Win32,71.94244604,,,,,,,,,,,,,,,,,,,,,,,,417.8765,419.0581,l,1,[],[],[],[],[],[],[],0.501,1,419.0583,419.558,,,,,,177,FEM,DIS,150,broma,el,a,0.501,,419.5581,419.5582,0.079629616,-0.108333376,0,0,0,,0,162,162,176,1,,,,
,,,,,,2059f9e35eb03c43c2166747,66a626ef09d4e21e1a8894ec,6734e0422ff1434d8e964ab1,2024-11-13_18h23.13.229,Tarea de género gramatical,2024.2.2,Win32,71.94244604,,,,,,,,,,,,,,,,,,,,,,,,419.5599,420.608,l,1,[],[],[],[],[],[],[],0.3687,1,420.6082,421.1079,,,,,,253,FEM,AGR,150,aldea,la,a,0.3687,,421.1081,421.1082,0.079629616,-0.108333376,0,0,0,,0,163,163,252,1,,,,
,,,,,,2059f9e35eb03c43c2166747,66a626ef09d4e21e1a8894ec,6734e0422ff1434d8e964ab1,2024-11-13_18h23.13.229,Tarea de género gramatical,2024.2.2,Win32,71.94244604,,,,,,,,,,,,,,,,,,,,,,,,421.1099,422.1582,a,1,[],[],[],[],[],[],[],0.3678,1,422.1583,422.6581,,,,,,29,MAS,CON,150,frío,,l,0.3678,,422.66,422.6612,0.079629616,-0.108333376,0,0,0,,0,164,164,28,1,,,,
,,,,,,2059f9e35eb03c43c2166747,66a626ef09d4e21e1a8894ec,6734e0422ff1434d8e964ab1,2024-11-13_18h23.13.229,Tarea de género gramatical,2024.2.2,Win32,71.94244604,,,,,,,,,,,,,,,,,,,,,,,,422.6629,423.742,l,1,[],[],[],[],[],[],[],0.4121,1,423.7421,424.2416,,,,,,392,FEM,CON,150,maleta,,a,0.4121,,424.2416,424.2418,0.079629616,-0.108333376,0,0,0,,0,165,165,391,1,,,,
,,,,,,2059f9e35eb03c43c2166747,66a626ef09d4e21e1a8894ec,6734e0422ff1434d8e964ab1,2024-11-13_18h23.13.229,Tarea de género gramatical,2024.2.2,Win32,71.94244604,,,,,,,,,,,,,,,,,,,,,,,,424.2438,425.3082,l,1,[],[],[],[],[],[],[],0.3847,1,425.3083,425.8082,,,,,,355,FEM,AGR,150,mirada,la,a,0.3847,,425.8083,425.8085,0.079629616,-0.108333376,0,0,0,,0,166,166,354,1,,,,
,,,,,,2059f9e35eb03c43c2166747,66a626ef09d4e21e1a8894ec,6734e0422ff1434d8e964ab1,2024-11-13_18h23.13.229,Tarea de género gramatical,2024.2.2,Win32,71.94244604,,,,,,,,,,,,,,,,,,,,,,,,425.8101,426.8081,l,1,[],[],[],[],[],[],[],0.3272,1,426.8083,427.3081,,,,,,363,FEM,DIS,150,unidad,el,a,0.3272,,427.3082,427.3083,0.079629616,-0.108333376,0,0,0,,0,167,167,362,1,,,,
,,,,,,2059f9e35eb03c43c2166747,66a626ef09d4e21e1a8894ec,6734e0422ff1434d8e964ab1,2024-11-13_18h23.13.229,Tarea de género gramatical,2024.2.2,Win32,71.94244604,,,,,,,,,,,,,,,,,,,,,,,,427.3099,428.4082,l,1,[],[],[],[],[],[],[],0.4187,1,428.4083,428.9084,,,,,,80,FEM,CON,150,vaca,,a,0.4187,,428.9103,428.9114,0.079629616,-0.108333376,0,0,0,,0,168,168,79,1,,,,
,,,,,,2059f9e35eb03c43c2166747,66a626ef09d4e21e1a8894ec,6734e0422ff1434d8e964ab1,2024-11-13_18h23.13.229,Tarea de género gramatical,2024.2.2,Win32,71.94244604,,,,,,,,,,,,,,,,,,,,,,,,428.9126,430.2918,l,1,[],[],[],[],[],[],[],0.7,1,430.2919,430.7916,,,,,,267,FEM,DIS,150,barba,el,a,0.7,,430.7917,430.7918,0.079629616,-0.108333376,0,0,0,,0,169,169,266,1,,,,
,,,,,,2059f9e35eb03c43c2166747,66a626ef09d4e21e1a8894ec,6734e0422ff1434d8e964ab1,2024-11-13_18h23.13.229,Tarea de género gramatical,2024.2.2,Win32,71.94244604,,,,,,,,,,,,,,,,,,,,,,,,430.7935,431.8255,l,1,[],[],[],[],[],[],[],0.3624,1,431.8258,432.3251,,,,,,97,FEM,AGR,150,capa,la,a,0.3624,,432.3252,432.3254,0.079629616,-0.108333376,0,0,0,,0,170,170,96,1,,,,
,,,,,,2059f9e35eb03c43c2166747,66a626ef09d4e21e1a8894ec,6734e0422ff1434d8e964ab1,2024-11-13_18h23.13.229,Tarea de género gramatical,2024.2.2,Win32,71.94244604,,,,,,,,,,,,,,,,,,,,,,,,432.327,433.4418,a,1,[],[],[],[],[],[],[],0.4356,1,433.4419,433.942,,,,,,10,MAS,AGR,150,niño,el,l,0.4356,,433.9421,433.9422,0.079629616,-0.108333376,0,0,0,,0,171,171,9,1,,,,
,,,,,,2059f9e35eb03c43c2166747,66a626ef09d4e21e1a8894ec,6734e0422ff1434d8e964ab1,2024-11-13_18h23.13.229,Tarea de género gramatical,2024.2.2,Win32,71.94244604,,,,,,,,,,,,,,,,,,,,,,,,433.9439,435.1921,a,1,[],[],[],[],[],[],[],0.5749,1,435.1922,435.6917,,,,,,294,MAS,DIS,150,cable,la,l,0.5749,,435.6918,435.6919,0.079629616,-0.108333376,0,0,0,,0,172,172,293,1,,,,
,,,,,,2059f9e35eb03c43c2166747,66a626ef09d4e21e1a8894ec,6734e0422ff1434d8e964ab1,2024-11-13_18h23.13.229,Tarea de género gramatical,2024.2.2,Win32,71.94244604,,,,,,,,,,,,,,,,,,,,,,,,435.6936,436.8252,a,1,[],[],[],[],[],[],[],0.4503,1,436.8254,437.3253,,,,,,329,MAS,CON,150,futuro,,l,0.4503,,437.3273,437.3285,0.079629616,-0.108333376,0,0,0,,0,173,173,328,1,,,,
,,,,,,2059f9e35eb03c43c2166747,66a626ef09d4e21e1a8894ec,6734e0422ff1434d8e964ab1,2024-11-13_18h23.13.229,Tarea de género gramatical,2024.2.2,Win32,71.94244604,,,,,,,,,,,,,,,,,,,,,,,,437.3296,438.4253,l,1,[],[],[],[],[],[],[],0.422,1,438.4254,438.9253,,,,,,25,FEM,AGR,150,nave,la,a,0.422,,438.9254,438.9256,0.079629616,-0.108333376,0,0,0,,0,174,174,24,1,,,,
,,,,,,2059f9e35eb03c43c2166747,66a626ef09d4e21e1a8894ec,6734e0422ff1434d8e964ab1,2024-11-13_18h23.13.229,Tarea de género gramatical,2024.2.2,Win32,71.94244604,,,,,,,,,,,,,,,,,,,,,,,,438.9273,439.9254,l,1,[],[],[],[],[],[],[],0.3175,1,439.9256,440.4252,,,,,,121,FEM,AGR,150,pila,la,a,0.3175,,440.4253,440.4254,0.079629616,-0.108333376,0,0,0,,0,175,175,120,1,,,,
,,,,,,2059f9e35eb03c43c2166747,66a626ef09d4e21e1a8894ec,6734e0422ff1434d8e964ab1,2024-11-13_18h23.13.229,Tarea de género gramatical,2024.2.2,Win32,71.94244604,,,,,,,,,,,,,,,,,,,,,,,,440.427,441.7753,l,1,[],[],[],[],[],[],[],0.6749,1,441.7755,442.2752,,,,,,393,FEM,DIS,150,alarma,el,a,0.6749,,442.2753,442.2755,0.079629616,-0.108333376,0,0,0,,0,176,176,392,1,,,,
,,,,,,2059f9e35eb03c43c2166747,66a626ef09d4e21e1a8894ec,6734e0422ff1434d8e964ab1,2024-11-13_18h23.13.229,Tarea de género gramatical,2024.2.2,Win32,71.94244604,,,,,,,,,,,,,,,,,,,,,,,,442.2774,443.5088,a,1,[],[],[],[],[],[],[],0.5549,1,443.509,444.009,,,,,,143,MAS,CON,150,faro,,l,0.5549,,444.0108,444.012,0.079629616,-0.108333376,0,0,0,,0,177,177,142,1,,,,
,,,,,,2059f9e35eb03c43c2166747,66a626ef09d4e21e1a8894ec,6734e0422ff1434d8e964ab1,2024-11-13_18h23.13.229,Tarea de género gramatical,2024.2.2,Win32,71.94244604,,,,,,,,,,,,,,,,,,,,,,,,444.0134,445.0255,l,1,[],[],[],[],[],[],[],0.3345,1,445.0256,445.5254,,,,,,56,FEM,CON,150,bola,,a,0.3345,,445.5255,445.5256,0.079629616,-0.108333376,0,0,0,,0,178,178,55,1,,,,
,,,,,,2059f9e35eb03c43c2166747,66a626ef09d4e21e1a8894ec,6734e0422ff1434d8e964ab1,2024-11-13_18h23.13.229,Tarea de género gramatical,2024.2.2,Win32,71.94244604,,,,,,,,,,,,,,,,,,,,,,,,445.5272,446.5587,l,1,[],[],[],[],[],[],[],0.3528,1,446.5589,447.0588,,,,,,140,FEM,CON,150,mula,,a,0.3528,,447.0589,447.0592,0.079629616,-0.108333376,0,0,0,,0,179,179,139,1,,,,
,,,,,,2059f9e35eb03c43c2166747,66a626ef09d4e21e1a8894ec,6734e0422ff1434d8e964ab1,2024-11-13_18h23.13.229,Tarea de género gramatical,2024.2.2,Win32,71.94244604,,,,,,,,,,,,,,,,,,,,,,,,447.0608,448.1088,a,1,[],[],[],[],[],[],[],0.374,1,448.1088,448.6087,,,,,,47,MAS,CON,150,olor,,l,0.374,,448.6087,448.609,0.079629616,-0.108333376,0,0,0,,0,180,180,46,1,,,,
,,,,,,2059f9e35eb03c43c2166747,66a626ef09d4e21e1a8894ec,6734e0422ff1434d8e964ab1,2024-11-13_18h23.13.229,Tarea de género gramatical,2024.2.2,Win32,71.94244604,,,,,,,,,,,,,,,,,,,,,,,,448.6109,449.7589,a,1,[],[],[],[],[],[],[],0.4691,1,449.759,450.259,,,,,,198,MAS,DIS,150,hotel,la,l,0.4691,,450.2591,450.2592,0.079629616,-0.108333376,0,0,0,,0,181,181,197,1,,,,
,,,,,,2059f9e35eb03c43c2166747,66a626ef09d4e21e1a8894ec,6734e0422ff1434d8e964ab1,2024-11-13_18h23.13.229,Tarea de género gramatical,2024.2.2,Win32,71.94244604,,,,,,,,,,,,,,,,,,,,,,,,450.2611,451.4924,l,0,[],[],[],[],[],[],[],0.5511,0,451.4937,451.9922,,,,,,18,MAS,DIS,150,tren,la,l,0.5511,,451.9941,451.9955,0.079629616,-0.108333376,0,0,0,,0,182,182,17,1,,,,
,,,,,,2059f9e35eb03c43c2166747,66a626ef09d4e21e1a8894ec,6734e0422ff1434d8e964ab1,2024-11-13_18h23.13.229,Tarea de género gramatical,2024.2.2,Win32,71.94244604,,,,,,,,,,,,,,,,,,,,,,,,451.9969,453.3256,a,1,[],[],[],[],[],[],[],0.6504,1,453.3268,453.8257,,,,,,41,MAS,CON,150,bote,,l,0.6504,,453.8258,453.8259,0.079629616,-0.108333376,0,0,0,,0,183,183,40,1,,,,
,,,,,,2059f9e35eb03c43c2166747,66a626ef09d4e21e1a8894ec,6734e0422ff1434d8e964ab1,2024-11-13_18h23.13.229,Tarea de género gramatical,2024.2.2,Win32,71.94244604,,,,,,,,,,,,,,,,,,,,,,,,453.8277,454.9923,l,1,[],[],[],[],[],[],[],0.4858,1,454.9925,455.4924,,,,,,350,FEM,CON,150,imagen,,a,0.4858,,455.4924,455.4925,0.079629616,-0.108333376,0,0,0,,0,184,184,349,1,,,,
,,,,,,2059f9e35eb03c43c2166747,66a626ef09d4e21e1a8894ec,6734e0422ff1434d8e964ab1,2024-11-13_18h23.13.229,Tarea de género gramatical,2024.2.2,Win32,71.94244604,,,,,,,,,,,,,,,,,,,,,,,,455.4943,456.709,a,1,[],[],[],[],[],[],[],0.5437,1,456.7091,457.209,,,,,,318,MAS,DIS,150,pueblo,la,l,0.5437,,457.2091,457.2092,0.079629616,-0.108333376,0,0,0,,0,185,185,317,1,,,,
,,,,,,2059f9e35eb03c43c2166747,66a626ef09d4e21e1a8894ec,6734e0422ff1434d8e964ab1,2024-11-13_18h23.13.229,Tarea de género gramatical,2024.2.2,Win32,71.94244604,,,,,,,,,,,,,,,,,,,,,,,,457.2109,458.2758,a,1,[],[],[],[],[],[],[],0.3911,1,458.2759,458.7758,,,,,,76,MAS,AGR,150,lujo,el,l,0.3911,,458.7777,458.7794,0.079629616,-0.108333376,0,0,0,,0,186,186,75,1,,,,
,,,,,,2059f9e35eb03c43c2166747,66a626ef09d4e21e1a8894ec,6734e0422ff1434d8e964ab1,2024-11-13_18h23.13.229,Tarea de género gramatical,2024.2.2,Win32,71.94244604,,,,,,,,,,,,,,,,,,,,,,,,458.7805,459.8091,l,1,[],[],[],[],[],[],[],0.352,1,459.8092,460.3092,,,,,,296,FEM,CON,150,feria,,a,0.352,,460.3092,460.3094,0.079629616,-0.108333376,0,0,0,,0,187,187,295,1,,,,
,,,,,,2059f9e35eb03c43c2166747,66a626ef09d4e21e1a8894ec,6734e0422ff1434d8e964ab1,2024-11-13_18h23.13.229,Tarea de género gramatical,2024.2.2,Win32,71.94244604,,,,,,,,,,,,,,,,,,,,,,,,460.3112,461.4431,l,1,[],[],[],[],[],[],[],0.4522,1,461.4433,461.9424,,,,,,291,FEM,DIS,150,aguja,el,a,0.4522,,461.9425,461.9427,0.079629616,-0.108333376,0,0,0,,0,188,188,290,1,,,,
,,,,,,2059f9e35eb03c43c2166747,66a626ef09d4e21e1a8894ec,6734e0422ff1434d8e964ab1,2024-11-13_18h23.13.229,Tarea de género gramatical,2024.2.2,Win32,71.94244604,,,,,,,,,,,,,,,,,,,,,,,,461.9445,463.0593,l,1,[],[],[],[],[],[],[],0.4353,1,463.0594,463.5592,,,,,,199,FEM,AGR,150,nariz,la,a,0.4353,,463.5592,463.5594,0.079629616,-0.108333376,0,0,0,,0,189,189,198,1,,,,
,,,,,,2059f9e35eb03c43c2166747,66a626ef09d4e21e1a8894ec,6734e0422ff1434d8e964ab1,2024-11-13_18h23.13.229,Tarea de género gramatical,2024.2.2,Win32,71.94244604,,,,,,,,,,,,,,,,,,,,,,,,463.5611,464.6093,a,1,[],[],[],[],[],[],[],0.3741,1,464.6094,465.1093,,,,,,59,MAS,CON,150,lobo,,l,0.3741,,465.1094,465.1095,0.079629616,-0.108333376,0,0,0,,0,190,190,58,1,,,,
,,,,,,2059f9e35eb03c43c2166747,66a626ef09d4e21e1a8894ec,6734e0422ff1434d8e964ab1,2024-11-13_18h23.13.229,Tarea de género gramatical,2024.2.2,Win32,71.94244604,,,,,,,,,,,,,,,,,,,,,,,,465.1114,466.1094,a,1,[],[],[],[],[],[],[],0.3219,1,466.1096,466.6095,,,,,,16,MAS,AGR,150,baño,el,l,0.3219,,466.6116,466.6131,0.079629616,-0.108333376,0,0,0,,0,191,191,15,1,,,,
,,,,,,2059f9e35eb03c43c2166747,66a626ef09d4e21e1a8894ec,6734e0422ff1434d8e964ab1,2024-11-13_18h23.13.229,Tarea de género gramatical,2024.2.2,Win32,71.94244604,,,,,,,,,,,,,,,,,,,,,,,,466.6143,467.6593,l,1,[],[],[],[],[],[],[],0.3756,1,467.6595,468.1593,,,,,,152,FEM,CON,150,gente,,a,0.3756,,468.1593,468.1595,0.079629616,-0.108333376,0,0,0,,0,192,192,151,1,,,,
,,,,,,2059f9e35eb03c43c2166747,66a626ef09d4e21e1a8894ec,6734e0422ff1434d8e964ab1,2024-11-13_18h23.13.229,Tarea de género gramatical,2024.2.2,Win32,71.94244604,,,,,,,,,,,,,,,,,,,,,,,,468.1613,469.4762,l,1,[],[],[],[],[],[],[],0.6413,1,469.4763,469.9762,,,,,,111,FEM,DIS,150,goma,el,a,0.6413,,469.9762,469.9766,0.079629616,-0.108333376,0,0,0,,0,193,193,110,1,,,,
,,,,,,2059f9e35eb03c43c2166747,66a626ef09d4e21e1a8894ec,6734e0422ff1434d8e964ab1,2024-11-13_18h23.13.229,Tarea de género gramatical,2024.2.2,Win32,71.94244604,,,,,,,,,,,,,,,,,,,,,,,,469.9784,470.9764,a,1,[],[],[],[],[],[],[],0.3271,1,470.9765,471.4761,,,,,,107,MAS,CON,150,cubo,,l,0.3271,,471.4762,471.4763,0.079629616,-0.108333376,0,0,0,,0,194,194,106,1,,,,
,,,,,,2059f9e35eb03c43c2166747,66a626ef09d4e21e1a8894ec,6734e0422ff1434d8e964ab1,2024-11-13_18h23.13.229,Tarea de género gramatical,2024.2.2,Win32,71.94244604,,,,,,,,,,,,,,,,,,,,,,,,471.4781,472.5095,l,1,[],[],[],[],[],[],[],0.3516,1,472.5096,473.0097,,,,,,61,FEM,AGR,150,ruta,la,a,0.3516,,473.0118,473.0136,0.079629616,-0.108333376,0,0,0,,0,195,195,60,1,,,,
,,,,,,2059f9e35eb03c43c2166747,66a626ef09d4e21e1a8894ec,6734e0422ff1434d8e964ab1,2024-11-13_18h23.13.229,Tarea de género gramatical,2024.2.2,Win32,71.94244604,,,,,,,,,,,,,,,,,,,,,,,,473.0152,474.0599,a,1,[],[],[],[],[],[],[],0.3663,1,474.06,474.5594,,,,,,444,MAS,DIS,150,límite,la,l,0.3663,,474.5596,474.5597,0.079629616,-0.108333376,0,0,0,,0,196,196,443,1,,,,
,,,,,,2059f9e35eb03c43c2166747,66a626ef09d4e21e1a8894ec,6734e0422ff1434d8e964ab1,2024-11-13_18h23.13.229,Tarea de género gramatical,2024.2.2,Win32,71.94244604,,,,,,,,,,,,,,,,,,,,,,,,474.5615,475.5428,a,1,[],[],[],[],[],[],[],0.3012,1,475.543,476.0429,,,,,,54,MAS,DIS,150,humo,la,l,0.3012,,476.0431,476.0432,0.079629616,-0.108333376,0,0,0,,0,197,197,53,1,,,,
,,,,,,2059f9e35eb03c43c2166747,66a626ef09d4e21e1a8894ec,6734e0422ff1434d8e964ab1,2024-11-13_18h23.13.229,Tarea de género gramatical,2024.2.2,Win32,71.94244604,,,,,,,,,,,,,,,,,,,,,,,,476.0448,477.0929,l,1,[],[],[],[],[],[],[],0.3692,1,477.0931,477.5929,,,,,,349,FEM,AGR,150,prensa,la,a,0.3692,,477.5929,477.5931,0.079629616,-0.108333376,0,0,0,,0,198,198,348,1,,,,
,,,,,,2059f9e35eb03c43c2166747,66a626ef09d4e21e1a8894ec,6734e0422ff1434d8e964ab1,2024-11-13_18h23.13.229,Tarea de género gramatical,2024.2.2,Win32,71.94244604,,,,,,,,,,,,,,,,,,,,,,,,477.5947,478.7096,l,1,[],[],[],[],[],[],[],0.435,1,478.7098,479.2097,,,,,,74,FEM,CON,150,flor,,a,0.435,,479.2097,479.2099,0.079629616,-0.108333376,0,0,0,,0,199,199,73,1,,,,
,,,,,,2059f9e35eb03c43c2166747,66a626ef09d4e21e1a8894ec,6734e0422ff1434d8e964ab1,2024-11-13_18h23.13.229,Tarea de género gramatical,2024.2.2,Win32,71.94244604,,,,,,,,,,,,,,,,,,,,,,,,479.2115,480.4265,l,1,[],[],[],[],[],[],[],0.5391,1,480.4266,480.9263,,,,,,415,FEM,AGR,150,cabina,la,a,0.5391,,480.9282,480.9298,0.079629616,-0.108333376,0,0,0,,0,200,200,414,1,,,,
,,,,,,2059f9e35eb03c43c2166747,66a626ef09d4e21e1a8894ec,6734e0422ff1434d8e964ab1,2024-11-13_18h23.13.229,Tarea de género gramatical,2024.2.2,Win32,71.94244604,,,,,,,,,,,,,,,,,,,,,,,,480.9311,481.9264,l,0,[],[],[],[],[],[],[],0.3187,0,481.9277,482.4264,,,,,,408,MAS,DIS,150,cheque,la,l,0.3187,,482.4265,482.4266,0.079629616,-0.108333376,0,0,0,,0,201,201,407,1,,,,
,,,,,,2059f9e35eb03c43c2166747,66a626ef09d4e21e1a8894ec,6734e0422ff1434d8e964ab1,2024-11-13_18h23.13.229,Tarea de género gramatical,2024.2.2,Win32,71.94244604,,,,,,,,,,,,,,,,,,,,,,,,482.4284,483.6764,a,1,[],[],[],[],[],[],[],0.5725,1,483.6777,484.1764,,,,,,436,MAS,AGR,150,objeto,el,l,0.5725,,484.1765,484.1766,0.079629616,-0.108333376,0,0,0,,0,202,202,435,1,,,,
,,,,,,2059f9e35eb03c43c2166747,66a626ef09d4e21e1a8894ec,6734e0422ff1434d8e964ab1,2024-11-13_18h23.13.229,Tarea de género gramatical,2024.2.2,Win32,71.94244604,,,,,,,,,,,,,,,,,,,,,,,,484.1782,485.1933,l,1,[],[],[],[],[],[],[],0.3397,1,485.1936,485.6931,,,,,,242,FEM,CON,150,pizza,,a,0.3397,,485.6932,485.6933,0.079629616,-0.108333376,0,0,0,,0,203,203,241,1,,,,
,,,,,,2059f9e35eb03c43c2166747,66a626ef09d4e21e1a8894ec,6734e0422ff1434d8e964ab1,2024-11-13_18h23.13.229,Tarea de género gramatical,2024.2.2,Win32,71.94244604,,,,,,,,,,,,,,,,,,,,,,,,485.6949,486.7601,l,0,[],[],[],[],[],[],[],0.3941,0,486.7614,487.2598,,,,,,53,MAS,CON,150,vaso,,l,0.3941,,487.2617,487.2629,0.079629616,-0.108333376,0,0,0,,0,204,204,52,1,,,,
,,,,,,2059f9e35eb03c43c2166747,66a626ef09d4e21e1a8894ec,6734e0422ff1434d8e964ab1,2024-11-13_18h23.13.229,Tarea de género gramatical,2024.2.2,Win32,71.94244604,,,,,,,,,,,,,,,,,,,,,,,,487.2643,488.3599,l,1,[],[],[],[],[],[],[],0.4237,1,488.3612,488.8598,,,,,,169,FEM,AGR,150,vista,la,a,0.4237,,488.86,488.8601,0.079629616,-0.108333376,0,0,0,,0,205,205,168,1,,,,
,,,,,,2059f9e35eb03c43c2166747,66a626ef09d4e21e1a8894ec,6734e0422ff1434d8e964ab1,2024-11-13_18h23.13.229,Tarea de género gramatical,2024.2.2,Win32,71.94244604,,,,,,,,,,,,,,,,,,,,,,,,488.8618,489.9935,l,1,[],[],[],[],[],[],[],0.452,1,489.9936,490.4933,,,,,,79,FEM,AGR,150,mina,la,a,0.452,,490.4934,490.4935,0.079629616,-0.108333376,0,0,0,,0,206,206,78,1,,,,
,,,,,,2059f9e35eb03c43c2166747,66a626ef09d4e21e1a8894ec,6734e0422ff1434d8e964ab1,2024-11-13_18h23.13.229,Tarea de género gramatical,2024.2.2,Win32,71.94244604,,,,,,,,,,,,,,,,,,,,,,,,490.4951,491.5267,l,1,[],[],[],[],[],[],[],0.3593,1,491.5268,492.0267,,,,,,19,FEM,AGR,150,niña,la,a,0.3593,,492.0268,492.027,0.079629616,-0.108333376,0,0,0,,0,207,207,18,1,,,,
,,,,,,2059f9e35eb03c43c2166747,66a626ef09d4e21e1a8894ec,6734e0422ff1434d8e964ab1,2024-11-13_18h23.13.229,Tarea de género gramatical,2024.2.2,Win32,71.94244604,,,,,,,,,,,,,,,,,,,,,,,,492.0287,493.0767,a,1,[],[],[],[],[],[],[],0.3721,1,493.0768,493.5766,,,,,,192,MAS,DIS,150,grupo,la,l,0.3721,,493.5767,493.5768,0.079629616,-0.108333376,0,0,0,,0,208,208,191,1,,,,
,,,,,,2059f9e35eb03c43c2166747,66a626ef09d4e21e1a8894ec,6734e0422ff1434d8e964ab1,2024-11-13_18h23.13.229,Tarea de género gramatical,2024.2.2,Win32,71.94244604,,,,,,,,,,,,,,,,,,,,,,,,493.5786,494.6607,l,1,[],[],[],[],[],[],[],0.4109,1,494.6608,495.1601,,,,,,243,FEM,DIS,150,salsa,el,a,0.4109,,495.1618,495.163,0.079629616,-0.108333376,0,0,0,,0,209,209,242,1,,,,
,,,,,,2059f9e35eb03c43c2166747,66a626ef09d4e21e1a8894ec,6734e0422ff1434d8e964ab1,2024-11-13_18h23.13.229,Tarea de género gramatical,2024.2.2,Win32,71.94244604,,,,,,,,,,,,,,,,,,,,,,,,495.1643,496.21,a,1,[],[],[],[],[],[],[],0.3685,1,496.2102,496.7101,,,,,,384,MAS,DIS,150,pedazo,la,l,0.3685,,496.7102,496.7103,0.079629616,-0.108333376,0,0,0,,0,210,210,383,1,,,,
,,,,,,2059f9e35eb03c43c2166747,66a626ef09d4e21e1a8894ec,6734e0422ff1434d8e964ab1,2024-11-13_18h23.13.229,Tarea de género gramatical,2024.2.2,Win32,71.94244604,,,,,,,,,,,,,,,,,,,,,,,,496.7124,498.1103,l,0,[],[],[],[],[],[],[],0.7187,0,498.1115,498.6103,,,,,,232,MAS,AGR,150,calor,el,l,0.7187,,498.6104,498.6105,0.079629616,-0.108333376,0,0,0,,0,211,211,231,1,,,,
,,,,,,2059f9e35eb03c43c2166747,66a626ef09d4e21e1a8894ec,6734e0422ff1434d8e964ab1,2024-11-13_18h23.13.229,Tarea de género gramatical,2024.2.2,Win32,71.94244604,,,,,,,,,,,,,,,,,,,,,,,,498.6123,499.6606,a,1,[],[],[],[],[],[],[],0.3728,1,499.6618,500.1602,,,,,,132,MAS,DIS,150,velo,la,l,0.3728,,500.1602,500.1604,0.079629616,-0.108333376,0,0,0,,0,212,212,131,1,,,,
,,,,,,2059f9e35eb03c43c2166747,66a626ef09d4e21e1a8894ec,6734e0422ff1434d8e964ab1,2024-11-13_18h23.13.229,Tarea de género gramatical,2024.2.2,Win32,71.94244604,,,,,,,,,,,,,,,,,,,,,,,,500.1622,501.227,a,1,[],[],[],[],[],[],[],0.3868,1,501.2271,501.727,,,,,,406,MAS,AGR,150,premio,el,l,0.3868,,501.7288,501.7299,0.079629616,-0.108333376,0,0,0,,0,213,213,405,1,,,,
,,,,,,2059f9e35eb03c43c2166747,66a626ef09d4e21e1a8894ec,6734e0422ff1434d8e964ab1,2024-11-13_18h23.13.229,Tarea de género gramatical,2024.2.2,Win32,71.94244604,,,,,,,,,,,,,,,,,,,,,,,,501.7312,502.9944,a,1,[],[],[],[],[],[],[],0.5858,1,502.9945,503.4941,,,,,,142,MAS,AGR,150,lodo,el,l,0.5858,,503.4942,503.4944,0.079629616,-0.108333376,0,0,0,,0,214,214,141,1,,,,
,,,,,,2059f9e35eb03c43c2166747,66a626ef09d4e21e1a8894ec,6734e0422ff1434d8e964ab1,2024-11-13_18h23.13.229,Tarea de género gramatical,2024.2.2,Win32,71.94244604,,,,,,,,,,,,,,,,,,,,,,,,503.4965,504.5605,a,1,[],[],[],[],[],[],[],0.3936,1,504.5606,505.0607,,,,,,11,MAS,CON,150,país,,l,0.3936,,505.0607,505.0609,0.079629616,-0.108333376,0,0,0,,0,215,215,10,1,,,,
,,,,,,2059f9e35eb03c43c2166747,66a626ef09d4e21e1a8894ec,6734e0422ff1434d8e964ab1,2024-11-13_18h23.13.229,Tarea de género gramatical,2024.2.2,Win32,71.94244604,,,,,,,,,,,,,,,,,,,,,,,,505.0625,506.0772,l,1,[],[],[],[],[],[],[],0.3434,1,506.0773,506.5771,,,,,,320,FEM,CON,150,fiesta,,a,0.3434,,506.5771,506.5773,0.079629616,-0.108333376,0,0,0,,0,216,216,319,1,,,,
,,,,,,2059f9e35eb03c43c2166747,66a626ef09d4e21e1a8894ec,6734e0422ff1434d8e964ab1,2024-11-13_18h23.13.229,Tarea de género gramatical,2024.2.2,Win32,71.94244604,,,,,,,,,,,,,,,,,,,,,,,,506.579,507.9274,a,1,[],[],[],[],[],[],[],0.668,1,507.9275,508.4271,,,,,,342,MAS,DIS,150,abuelo,la,l,0.668,,508.4271,508.4273,0.079629616,-0.108333376,0,0,0,,0,217,217,341,1,,,,
,,,,,,2059f9e35eb03c43c2166747,66a626ef09d4e21e1a8894ec,6734e0422ff1434d8e964ab1,2024-11-13_18h23.13.229,Tarea de género gramatical,2024.2.2,Win32,71.94244604,,,,,,,,,,,,,,,,,,,,,,,,508.429,509.5939,a,1,[],[],[],[],[],[],[],0.4883,1,509.594,510.0938,,,,,,400,MAS,AGR,150,barrio,el,l,0.4883,,510.0957,510.097,0.079629616,-0.108333376,0,0,0,,0,218,218,399,1,,,,
,,,,,,2059f9e35eb03c43c2166747,66a626ef09d4e21e1a8894ec,6734e0422ff1434d8e964ab1,2024-11-13_18h23.13.229,Tarea de género gramatical,2024.2.2,Win32,71.94244604,,,,,,,,,,,,,,,,,,,,,,,,510.0987,511.1274,l,1,[],[],[],[],[],[],[],0.3585,1,511.1276,511.6272,,,,,,428,FEM,CON,150,jugada,,a,0.3585,,511.6273,511.6274,0.079629616,-0.108333376,0,0,0,,0,219,219,427,1,,,,
,,,,,,2059f9e35eb03c43c2166747,66a626ef09d4e21e1a8894ec,6734e0422ff1434d8e964ab1,2024-11-13_18h23.13.229,Tarea de género gramatical,2024.2.2,Win32,71.94244604,,,,,,,,,,,,,,,,,,,,,,,,511.6291,512.7772,a,1,[],[],[],[],[],[],[],0.4687,1,512.7774,513.2773,,,,,,370,MAS,AGR,150,seguro,el,l,0.4687,,513.2774,513.2776,0.079629616,-0.108333376,0,0,0,,0,220,220,369,1,,,,
,,,,,,2059f9e35eb03c43c2166747,66a626ef09d4e21e1a8894ec,6734e0422ff1434d8e964ab1,2024-11-13_18h23.13.229,Tarea de género gramatical,2024.2.2,Win32,71.94244604,,,,,,,,,,,,,,,,,,,,,,,,513.2792,514.4773,l,1,[],[],[],[],[],[],[],0.5268,1,514.4774,514.9773,,,,,,272,FEM,CON,150,oreja,,a,0.5268,,514.9774,514.9776,0.079629616,-0.108333376,0,0,0,,0,221,221,271,1,,,,
,,,,,,2059f9e35eb03c43c2166747,66a626ef09d4e21e1a8894ec,6734e0422ff1434d8e964ab1,2024-11-13_18h23.13.229,Tarea de género gramatical,2024.2.2,Win32,71.94244604,,,,,,,,,,,,,,,,,,,,,,,,514.9791,516.0106,l,1,[],[],[],[],[],[],[],0.3554,1,516.0108,516.5106,,,,,,68,FEM,CON,150,pata,,a,0.3554,,516.5127,516.5139,0.079629616,-0.108333376,0,0,0,,0,222,222,67,1,,,,
,,,,,,2059f9e35eb03c43c2166747,66a626ef09d4e21e1a8894ec,6734e0422ff1434d8e964ab1,2024-11-13_18h23.13.229,Tarea de género gramatical,2024.2.2,Win32,71.94244604,,,,,,,,,,,,,,,,,,,,,,,,516.5154,518.0273,l,1,[],[],[],[],[],[],[],0.8343,1,518.0275,518.5274,,,,,,219,FEM,DIS,150,costa,el,a,0.8343,,518.5274,518.5276,0.079629616,-0.108333376,0,0,0,,0,223,223,218,1,,,,
,,,,,,2059f9e35eb03c43c2166747,66a626ef09d4e21e1a8894ec,6734e0422ff1434d8e964ab1,2024-11-13_18h23.13.229,Tarea de género gramatical,2024.2.2,Win32,71.94244604,,,,,,,,,,,,,,,,,,,,,,,,518.5294,519.6108,a,1,[],[],[],[],[],[],[],0.4011,1,519.6109,520.1108,,,,,,324,MAS,DIS,150,cuarto,la,l,0.4011,,520.1108,520.111,0.079629616,-0.108333376,0,0,0,,0,224,224,323,1,,,,
,,,,,,2059f9e35eb03c43c2166747,66a626ef09d4e21e1a8894ec,6734e0422ff1434d8e964ab1,2024-11-13_18h23.13.229,Tarea de género gramatical,2024.2.2,Win32,71.94244604,,,,,,,,,,,,,,,,,,,,,,,,520.1126,521.1945,a,1,[],[],[],[],[],[],[],0.4011,1,521.1947,521.6941,,,,,,214,MAS,AGR,150,fondo,el,l,0.4011,,521.6942,521.6943,0.079629616,-0.108333376,0,0,0,,0,225,225,213,1,,,,
,,,,,,2059f9e35eb03c43c2166747,66a626ef09d4e21e1a8894ec,6734e0422ff1434d8e964ab1,2024-11-13_18h23.13.229,Tarea de género gramatical,2024.2.2,Win32,71.94244604,,,,,,,,,,,,,,,,,,,,,,,,521.6961,522.7942,a,1,[],[],[],[],[],[],[],0.4254,1,522.7943,523.2942,,,,,,298,MAS,AGR,150,botón,el,l,0.4254,,523.2942,523.2944,0.079629616,-0.108333376,0,0,0,,0,226,226,297,1,,,,
,,,,,,2059f9e35eb03c43c2166747,66a626ef09d4e21e1a8894ec,6734e0422ff1434d8e964ab1,2024-11-13_18h23.13.229,Tarea de género gramatical,2024.2.2,Win32,71.94244604,,,,,,,,,,,,,,,,,,,,,,,,523.2962,524.3615,l,1,[],[],[],[],[],[],[],0.3946,1,524.3616,524.8609,,,,,,421,FEM,AGR,150,novela,la,a,0.3946,,524.8629,524.8643,0.079629616,-0.108333376,0,0,0,,0,227,227,420,1,,,,
,,,,,,2059f9e35eb03c43c2166747,66a626ef09d4e21e1a8894ec,6734e0422ff1434d8e964ab1,2024-11-13_18h23.13.229,Tarea de género gramatical,2024.2.2,Win32,71.94244604,,,,,,,,,,,,,,,,,,,,,,,,524.8658,525.9276,a,1,[],[],[],[],[],[],[],0.3853,1,525.9277,526.4275,,,,,,346,MAS,AGR,150,juicio,el,l,0.3853,,526.4276,526.4279,0.079629616,-0.108333376,0,0,0,,0,228,228,345,1,,,,
,,,,,,2059f9e35eb03c43c2166747,66a626ef09d4e21e1a8894ec,6734e0422ff1434d8e964ab1,2024-11-13_18h23.13.229,Tarea de género gramatical,2024.2.2,Win32,71.94244604,,,,,,,,,,,,,,,,,,,,,,,,526.4296,527.4443,a,1,[],[],[],[],[],[],[],0.3364,1,527.4446,527.9443,,,,,,372,MAS,DIS,150,delito,la,l,0.3364,,527.9444,527.9445,0.079629616,-0.108333376,0,0,0,,0,229,229,371,1,,,,
,,,,,,2059f9e35eb03c43c2166747,66a626ef09d4e21e1a8894ec,6734e0422ff1434d8e964ab1,2024-11-13_18h23.13.229,Tarea de género gramatical,2024.2.2,Win32,71.94244604,,,,,,,,,,,,,,,,,,,,,,,,527.9462,529.1112,a,1,[],[],[],[],[],[],[],0.4851,1,529.1113,529.6109,,,,,,335,MAS,CON,150,montón,,l,0.4851,,529.6109,529.6111,0.079629616,-0.108333376,0,0,0,,0,230,230,334,1,,,,
,,,,,,2059f9e35eb03c43c2166747,66a626ef09d4e21e1a8894ec,6734e0422ff1434d8e964ab1,2024-11-13_18h23.13.229,Tarea de género gramatical,2024.2.2,Win32,71.94244604,,,,,,,,,,,,,,,,,,,,,,,,529.6125,530.7111,l,1,[],[],[],[],[],[],[],0.417,1,530.7112,531.2111,,,,,,229,FEM,AGR,150,celda,la,a,0.417,,531.2131,531.2143,0.079629616,-0.108333376,0,0,0,,0,231,231,228,1,,,,
,,,,,,2059f9e35eb03c43c2166747,66a626ef09d4e21e1a8894ec,6734e0422ff1434d8e964ab1,2024-11-13_18h23.13.229,Tarea de género gramatical,2024.2.2,Win32,71.94244604,,,,,,,,,,,,,,,,,,,,,,,,531.2158,532.2278,l,1,[],[],[],[],[],[],[],0.3413,1,532.228,532.728,,,,,,277,FEM,AGR,150,plaza,la,a,0.3413,,532.7281,532.7282,0.079629616,-0.108333376,0,0,0,,0,232,232,276,1,,,,
,,,,,,2059f9e35eb03c43c2166747,66a626ef09d4e21e1a8894ec,6734e0422ff1434d8e964ab1,2024-11-13_18h23.13.229,Tarea de género gramatical,2024.2.2,Win32,71.94244604,,,,,,,,,,,,,,,,,,,,,,,,532.7299,533.7947,a,1,[],[],[],[],[],[],[],0.3857,1,533.7948,534.2945,,,,,,130,MAS,AGR,150,yate,el,l,0.3857,,534.2945,534.2947,0.079629616,-0.108333376,0,0,0,,0,233,233,129,1,,,,
,,,,,,2059f9e35eb03c43c2166747,66a626ef09d4e21e1a8894ec,6734e0422ff1434d8e964ab1,2024-11-13_18h23.13.229,Tarea de género gramatical,2024.2.2,Win32,71.94244604,,,,,,,,,,,,,,,,,,,,,,,,534.2963,535.378,a,1,[],[],[],[],[],[],[],0.401,1,535.3781,535.8778,,,,,,252,MAS,DIS,150,viejo,la,l,0.401,,535.8779,535.878,0.079629616,-0.108333376,0,0,0,,0,234,234,251,1,,,,
,,,,,,2059f9e35eb03c43c2166747,66a626ef09d4e21e1a8894ec,6734e0422ff1434d8e964ab1,2024-11-13_18h23.13.229,Tarea de género gramatical,2024.2.2,Win32,71.94244604,,,,,,,,,,,,,,,,,,,,,,,,535.88,536.8947,a,1,[],[],[],[],[],[],[],0.3436,1,536.8949,537.3947,,,,,,244,MAS,AGR,150,hielo,el,l,0.3436,,537.3948,537.395,0.079629616,-0.108333376,0,0,0,,0,235,235,243,1,,,,
,,,,,,2059f9e35eb03c43c2166747,66a626ef09d4e21e1a8894ec,6734e0422ff1434d8e964ab1,2024-11-13_18h23.13.229,Tarea de género gramatical,2024.2.2,Win32,71.94244604,,,,,,,,,,,,,,,,,,,,,,,,537.3968,538.428,l,1,[],[],[],[],[],[],[],0.3525,1,538.4281,538.9279,,,,,,158,FEM,CON,150,chica,,a,0.3525,,538.9299,538.9314,0.079629616,-0.108333376,0,0,0,,0,236,236,157,1,,,,
,,,,,,2059f9e35eb03c43c2166747,66a626ef09d4e21e1a8894ec,6734e0422ff1434d8e964ab1,2024-11-13_18h23.13.229,Tarea de género gramatical,2024.2.2,Win32,71.94244604,,,,,,,,,,,,,,,,,,,,,,,,538.9326,539.9447,l,1,[],[],[],[],[],[],[],0.3339,1,539.9448,540.4446,,,,,,26,FEM,CON,150,pena,,a,0.3339,,540.4447,540.4448,0.079629616,-0.108333376,0,0,0,,0,237,237,25,1,,,,
,,,,,,2059f9e35eb03c43c2166747,66a626ef09d4e21e1a8894ec,6734e0422ff1434d8e964ab1,2024-11-13_18h23.13.229,Tarea de género gramatical,2024.2.2,Win32,71.94244604,,,,,,,,,,,,,,,,,,,,,,,,540.4464,541.4614,a,1,[],[],[],[],[],[],[],0.3393,1,541.4616,541.9614,,,,,,245,MAS,CON,150,turno,,l,0.3393,,541.9615,541.9616,0.079629616,-0.108333376,0,0,0,,0,238,238,244,1,,,,
,,,,,,2059f9e35eb03c43c2166747,66a626ef09d4e21e1a8894ec,6734e0422ff1434d8e964ab1,2024-11-13_18h23.13.229,Tarea de género gramatical,2024.2.2,Win32,71.94244604,,,,,,,,,,,,,,,,,,,,,,,,541.9633,542.9949,a,1,[],[],[],[],[],[],[],0.3586,1,542.9951,543.4951,,,,,,36,MAS,DIS,150,dedo,la,l,0.3586,,543.4952,543.4954,0.079629616,-0.108333376,0,0,0,,0,239,239,35,1,,,,
,,,,,,2059f9e35eb03c43c2166747,66a626ef09d4e21e1a8894ec,6734e0422ff1434d8e964ab1,2024-11-13_18h23.13.229,Tarea de género gramatical,2024.2.2,Win32,71.94244604,,,,,,,,,,,,,,,,,,,,,,,,543.497,544.5782,l,1,[],[],[],[],[],[],[],0.4011,1,544.5783,545.0782,,,,,,307,FEM,AGR,150,suerte,la,a,0.4011,,545.08,545.0812,0.079629616,-0.108333376,0,0,0,,0,240,240,306,1,,,,
,,,,,,2059f9e35eb03c43c2166747,66a626ef09d4e21e1a8894ec,6734e0422ff1434d8e964ab1,2024-11-13_18h23.13.229,Tarea de género gramatical,2024.2.2,Win32,71.94244604,,,,,,,,,,,,,,,,,,,,,,,,545.0827,546.1448,l,1,[],[],[],[],[],[],[],0.3863,1,546.145,546.6448,,,,,,439,FEM,AGR,150,toalla,la,a,0.3863,,546.645,546.645,0.079629616,-0.108333376,0,0,0,,0,241,241,438,1,,,,
,,,,,,2059f9e35eb03c43c2166747,66a626ef09d4e21e1a8894ec,6734e0422ff1434d8e964ab1,2024-11-13_18h23.13.229,Tarea de género gramatical,2024.2.2,Win32,71.94244604,,,,,,,,,,,,,,,,,,,,,,,,546.6468,547.6949,l,1,[],[],[],[],[],[],[],0.3678,1,547.695,548.1949,,,,,,235,FEM,AGR,150,torre,la,a,0.3678,,548.1949,548.1952,0.079629616,-0.108333376,0,0,0,,0,242,242,234,1,,,,
,,,,,,2059f9e35eb03c43c2166747,66a626ef09d4e21e1a8894ec,6734e0422ff1434d8e964ab1,2024-11-13_18h23.13.229,Tarea de género gramatical,2024.2.2,Win32,71.94244604,,,,,,,,,,,,,,,,,,,,,,,,548.1967,549.3116,l,1,[],[],[],[],[],[],[],0.4339,1,549.3118,549.8115,,,,,,386,FEM,CON,150,sombra,,a,0.4339,,549.8116,549.8118,0.079629616,-0.108333376,0,0,0,,0,243,243,385,1,,,,
,,,,,,2059f9e35eb03c43c2166747,66a626ef09d4e21e1a8894ec,6734e0422ff1434d8e964ab1,2024-11-13_18h23.13.229,Tarea de género gramatical,2024.2.2,Win32,71.94244604,,,,,,,,,,,,,,,,,,,,,,,,549.8134,550.8952,l,1,[],[],[],[],[],[],[],0.4107,1,550.8953,551.395,,,,,,15,FEM,DIS,150,cama,el,a,0.4107,,551.395,551.3953,0.079629616,-0.108333376,0,0,0,,0,244,244,14,1,,,,
,,,,,,2059f9e35eb03c43c2166747,66a626ef09d4e21e1a8894ec,6734e0422ff1434d8e964ab1,2024-11-13_18h23.13.229,Tarea de género gramatical,2024.2.2,Win32,71.94244604,,,,,,,,,,,,,,,,,,,,,,,,551.3969,552.512,a,1,[],[],[],[],[],[],[],0.433,1,552.5121,553.0116,,,,,,190,MAS,AGR,150,campo,el,l,0.433,,553.0136,553.0149,0.079629616,-0.108333376,0,0,0,,0,245,245,189,1,,,,
,,,,,,2059f9e35eb03c43c2166747,66a626ef09d4e21e1a8894ec,6734e0422ff1434d8e964ab1,2024-11-13_18h23.13.229,Tarea de género gramatical,2024.2.2,Win32,71.94244604,,,,,,,,,,,,,,,,,,,,,,,,553.0165,554.0786,a,1,[],[],[],[],[],[],[],0.3844,1,554.0787,554.5783,,,,,,340,MAS,AGR,150,pasado,el,l,0.3844,,554.5784,554.5786,0.079629616,-0.108333376,0,0,0,,0,246,246,339,1,,,,
,,,,,,2059f9e35eb03c43c2166747,66a626ef09d4e21e1a8894ec,6734e0422ff1434d8e964ab1,2024-11-13_18h23.13.229,Tarea de género gramatical,2024.2.2,Win32,71.94244604,,,,,,,,,,,,,,,,,,,,,,,,554.5803,555.8284,a,1,[],[],[],[],[],[],[],0.5724,1,555.8286,556.3286,,,,,,95,MAS,CON,150,tomo,,l,0.5724,,556.3286,556.3288,0.079629616,-0.108333376,0,0,0,,0,247,247,94,1,,,,
,,,,,,2059f9e35eb03c43c2166747,66a626ef09d4e21e1a8894ec,6734e0422ff1434d8e964ab1,2024-11-13_18h23.13.229,Tarea de género gramatical,2024.2.2,Win32,71.94244604,,,,,,,,,,,,,,,,,,,,,,,,556.3309,557.4285,a,1,[],[],[],[],[],[],[],0.4252,1,557.4287,557.9285,,,,,,412,MAS,AGR,150,espejo,el,l,0.4252,,557.9286,557.9287,0.079629616,-0.108333376,0,0,0,,0,248,248,411,1,,,,
,,,,,,2059f9e35eb03c43c2166747,66a626ef09d4e21e1a8894ec,6734e0422ff1434d8e964ab1,2024-11-13_18h23.13.229,Tarea de género gramatical,2024.2.2,Win32,71.94244604,,,,,,,,,,,,,,,,,,,,,,,,557.9303,559.112,l,1,[],[],[],[],[],[],[],0.5008,1,559.1122,559.612,,,,,,37,FEM,AGR,150,sala,la,a,0.5008,,559.6138,559.6151,0.079629616,-0.108333376,0,0,0,,0,249,249,36,1,,,,
,,,,,,2059f9e35eb03c43c2166747,66a626ef09d4e21e1a8894ec,6734e0422ff1434d8e964ab1,2024-11-13_18h23.13.229,Tarea de género gramatical,2024.2.2,Win32,71.94244604,,,,,,,,,,,,,,,,,,,,,,,,559.6168,560.7952,a,1,[],[],[],[],[],[],[],0.5049,1,560.7954,561.2952,,,,,,389,MAS,CON,150,tamaño,,l,0.5049,,561.2953,561.2955,0.079629616,-0.108333376,0,0,0,,0,250,250,388,1,,,,
