counterbalancing_condition,consent_prescreening.block_1/declare_consent,consent_prescreening.block_1/age_years,consent_prescreening.block_1/gender,consent_prescreening.block_1/language_disorder,consent_prescreening.block_1/first_language,PROLIFIC_PID,STUDY_ID,SESSION_ID,date,expName,psychopyVersion,OS,frameRate,check_prescreening_answers.started,check_prescreening_answers.stopped,Instructions.started,Instructions.stopped,instr_done_keyboard.keys,instr_done_keyboard.rt,instr_done_keyboard.duration,instr_done_touch.x,instr_done_touch.y,instr_done_touch.leftButton,instr_done_touch.midButton,instr_done_touch.rightButton,instruction_pages.thisRepN,instruction_pages.thisTrialN,instruction_pages.thisN,instruction_pages.thisIndex,instruction_pages.ran,pageN,phase,instruct_text,has_image,instruct_image,presentTrial.started,presentTrial.stopped,response.keys,response.corr,response.rt,response.duration,touch_resp.x,touch_resp.y,touch_resp.leftButton,touch_resp.midButton,touch_resp.rightButton,touch_resp.time,touch_resp.clicked_name,rt,corr,feedback.started,feedback.stopped,practice_trials.thisRepN,practice_trials.thisTrialN,practice_trials.thisN,practice_trials.thisIndex,practice_trials.ran,TrialID,StimulusType,Condition,PrimeDuration,Prime,Flanker,corrAns,Break.started,Break.stopped,break_done_touch.x,break_done_touch.y,break_done_touch.leftButton,break_done_touch.midButton,break_done_touch.rightButton,break_done_keyboard.keys,experiment_trials.thisRepN,experiment_trials.thisTrialN,experiment_trials.thisN,experiment_trials.thisIndex,experiment_trials.ran,break_done_keyboard.rt,break_done_keyboard.duration,End.started,End.stopped
1,"[""consent_given"",""over_18"",""comfortable"",""read_info""]",28,M,"[""none""]","[""spanish"",""english""]",20a750f81f089a9c315833ff,66a626ef09d4e21e1a8894ec,67360fd442621318065f2f4d,2024-11-14_08h57.52.799,Tarea de género gramatical,2024.2.2,Win32,59.88023952,,,,,,,,,,,,,,,,,,,,,,,,,,,,,,,,,,,,,,,,,,,,,,,,,,,,,,,,,,,,,,,,,,,,
,,,,,,20a750f81f089a9c315833ff,66a626ef09d4e21e1a8894ec,67360fd442621318065f2f4d,2024-11-14_08h57.52.799,Tarea de género gramatical,2024.2.2,Win32,59.88023952,101.2507,101.2509,,,,,,,,,,,,,,,,,,,,,,,,,,,,,,,,,,,,,,,,,,,,,,,,,,,,,,,,,,,,,,,,,,
,,,,,,20a750f81f089a9c315833ff,66a626ef09d4e21e1a8894ec,67360fd442621318065f2f4d,2024-11-14_08h57.52.799,Tarea de género gramatical,2024.2.2,Win32,59.88023952,,,101.2712,125.438,space,24.1263,,0.053703704,-0.039814815,0,0,0,0,0,0,0,1,1,instructions,"INSTRUCCIONES
Va a realizar una prueba de selección gramatical. Desde el comienzo de la prueba mire siempre al centro de la pantalla. Al cabo de un momento, aparecerán palabras. La tarea consiste en determinar si la palabra del centro (siempre será un sustantivo), pertenece al género masculino o femenino.

Pulse la tecla ESPACIO o toque el botón de abajo para continuar.",0,keyboardresponseMF.png,,,,,,,,,,,,,,,,,,,,,,,,,,,,,,,,,,,,,,,,,,,,,,
,,,,,,20a750f81f089a9c315833ff,66a626ef09d4e21e1a8894ec,67360fd442621318065f2f4d,2024-11-14_08h57.52.799,Tarea de género gramatical,2024.2.2,Win32,59.88023952,,,125.4404,171.4584,space,45.9722,,0.887962963,0.5,0,0,0,0,1,1,1,1,2,instructions,"Si su dispositivo tiene teclado, pulse la tecla ""A"" para las palabras en masculino (por ejemplo: ""arroz"") y la tecla ""L"" para las palabras en femenino (por ejemplo: ""mano"").
Pulse la tecla ESPACIO o toque el botón de abajo para continuar.",1,keyboardresponseMF.png,,,,,,,,,,,,,,,,,,,,,,,,,,,,,,,,,,,,,,,,,,,,,,
,,,,,,20a750f81f089a9c315833ff,66a626ef09d4e21e1a8894ec,67360fd442621318065f2f4d,2024-11-14_08h57.52.799,Tarea de género gramatical,2024.2.2,Win32,59.88023952,,,171.4601,176.8543,space,5.3586,,0.887962963,0.5,0,0,0,0,2,2,2,1,3,instructions,"Si utiliza un dispositivo sólo táctil, colóquelo en horizontal y utilice los botones de la pantalla. No utilice el ratón.
Pulse la tecla ESPACIO o toque el botón de abajo para continuar.",2,touchresponseMF.png,,,,,,,,,,,,,,,,,,,,,,,,,,,,,,,,,,,,,,,,,,,,,,
,,,,,,20a750f81f089a9c315833ff,66a626ef09d4e21e1a8894ec,67360fd442621318065f2f4d,2024-11-14_08h57.52.799,Tarea de género gramatical,2024.2.2,Win32,59.88023952,,,176.8567,189.3543,space,12.4852,,0.887962963,0.5,0,0,0,0,3,3,3,1,4,instructions,"Es muy importante que responda con la mayor rapidez y precisión posibles, ya que cada cadena de letras sólo estará en pantalla durante un instante. Si no responde en ese tiempo, aparecerá el mensaje ""Muy lento"" y el experimento pasará a la siguiente palabra. Los primeros 15 intentos serán de práctica y habrá dos descansos durante la prueba.
Pulse la tecla ESPACIO o toque el botón de abajo para iniciar la parte de práctica.",0,keyboardresponseMF.png,,,,,,,,,,,,,,,,,,,,,,,,,,,,,,,,,,,,,,,,,,,,,,
,,,,,,20a750f81f089a9c315833ff,66a626ef09d4e21e1a8894ec,67360fd442621318065f2f4d,2024-11-14_08h57.52.799,Tarea de género gramatical,2024.2.2,Win32,59.88023952,,,,,,,,,,,,,,,,,,,,,,,189.3693,190.5047,a,0,0.4521,,[],[],[],[],[],[],[],0.4521,0,190.505,191.0079,0,0,0,7,1,2008,FEM,CON,150,siesta,,a,,,,,,,,,,,,,,,,,
,,,,,,20a750f81f089a9c315833ff,66a626ef09d4e21e1a8894ec,67360fd442621318065f2f4d,2024-11-14_08h57.52.799,Tarea de género gramatical,2024.2.2,Win32,59.88023952,,,,,,,,,,,,,,,,,,,,,,,191.0095,192.121,l,1,0.4341,,[],[],[],[],[],[],[],0.4341,1,192.1219,192.621,0,1,1,0,1,2001,FEM,AGR,150,nuca,la,a,,,,,,,,,,,,,,,,,
,,,,,,20a750f81f089a9c315833ff,66a626ef09d4e21e1a8894ec,67360fd442621318065f2f4d,2024-11-14_08h57.52.799,Tarea de género gramatical,2024.2.2,Win32,59.88023952,,,,,,,,,,,,,,,,,,,,,,,192.622,193.8231,l,1,0.5321,,[],[],[],[],[],[],[],0.5321,1,193.8231,194.3244,0,2,2,1,1,2002,FEM,CON,150,pala,,a,,,,,,,,,,,,,,,,,
,,,,,,20a750f81f089a9c315833ff,66a626ef09d4e21e1a8894ec,67360fd442621318065f2f4d,2024-11-14_08h57.52.799,Tarea de género gramatical,2024.2.2,Win32,59.88023952,,,,,,,,,,,,,,,,,,,,,,,194.3252,195.321,l,0,0.3099,,[],[],[],[],[],[],[],0.3099,0,195.3216,195.8209,0,3,3,10,1,2011,MAS,CON,150,canal,,l,,,,,,,,,,,,,,,,,
,,,,,,20a750f81f089a9c315833ff,66a626ef09d4e21e1a8894ec,67360fd442621318065f2f4d,2024-11-14_08h57.52.799,Tarea de género gramatical,2024.2.2,Win32,59.88023952,,,,,,,,,,,,,,,,,,,,,,,195.8224,197.2407,l,0,0.7475,,[],[],[],[],[],[],[],0.7475,0,197.2408,197.7417,0,4,4,14,1,2015,MAS,DIS,150,robot,la,l,,,,,,,,,,,,,,,,,
,,,,,,20a750f81f089a9c315833ff,66a626ef09d4e21e1a8894ec,67360fd442621318065f2f4d,2024-11-14_08h57.52.799,Tarea de género gramatical,2024.2.2,Win32,59.88023952,,,,,,,,,,,,,,,,,,,,,,,197.743,199.0211,l,1,0.5892,,[],[],[],[],[],[],[],0.5892,1,199.0217,199.5244,0,5,5,6,1,2007,FEM,AGR,150,navaja,la,a,,,,,,,,,,,,,,,,,
,,,,,,20a750f81f089a9c315833ff,66a626ef09d4e21e1a8894ec,67360fd442621318065f2f4d,2024-11-14_08h57.52.799,Tarea de género gramatical,2024.2.2,Win32,59.88023952,,,,,,,,,,,,,,,,,,,,,,,199.5253,200.7584,l,1,0.5645,,[],[],[],[],[],[],[],0.5645,1,200.7585,201.2545,0,6,6,3,1,2004,FEM,AGR,150,venta,la,a,,,,,,,,,,,,,,,,,
,,,,,,20a750f81f089a9c315833ff,66a626ef09d4e21e1a8894ec,67360fd442621318065f2f4d,2024-11-14_08h57.52.799,Tarea de género gramatical,2024.2.2,Win32,59.88023952,,,,,,,,,,,,,,,,,,,,,,,201.2559,202.3083,l,1,0.3983,,[],[],[],[],[],[],[],0.3983,1,202.3084,202.8046,0,7,7,2,1,2003,FEM,DIS,150,daga,el,a,,,,,,,,,,,,,,,,,
,,,,,,20a750f81f089a9c315833ff,66a626ef09d4e21e1a8894ec,67360fd442621318065f2f4d,2024-11-14_08h57.52.799,Tarea de género gramatical,2024.2.2,Win32,59.88023952,,,,,,,,,,,,,,,,,,,,,,,202.8053,203.9583,a,1,0.4677,,[],[],[],[],[],[],[],0.4677,1,203.9584,204.4546,0,8,8,13,1,2014,MAS,CON,150,siglo,,l,,,,,,,,,,,,,,,,,
,,,,,,20a750f81f089a9c315833ff,66a626ef09d4e21e1a8894ec,67360fd442621318065f2f4d,2024-11-14_08h57.52.799,Tarea de género gramatical,2024.2.2,Win32,59.88023952,,,,,,,,,,,,,,,,,,,,,,,204.4556,205.6544,a,1,0.5272,,[],[],[],[],[],[],[],0.5272,1,205.6544,206.1546,0,9,9,12,1,2013,MAS,AGR,150,acero,el,l,,,,,,,,,,,,,,,,,
,,,,,,20a750f81f089a9c315833ff,66a626ef09d4e21e1a8894ec,67360fd442621318065f2f4d,2024-11-14_08h57.52.799,Tarea de género gramatical,2024.2.2,Win32,59.88023952,,,,,,,,,,,,,,,,,,,,,,,206.1556,207.2711,l,1,0.4457,,[],[],[],[],[],[],[],0.4457,1,207.2711,207.7714,0,10,10,4,1,2005,FEM,CON,150,placa,,a,,,,,,,,,,,,,,,,,
,,,,,,20a750f81f089a9c315833ff,66a626ef09d4e21e1a8894ec,67360fd442621318065f2f4d,2024-11-14_08h57.52.799,Tarea de género gramatical,2024.2.2,Win32,59.88023952,,,,,,,,,,,,,,,,,,,,,,,207.7723,208.9545,a,1,0.515,,[],[],[],[],[],[],[],0.515,1,208.9545,209.4545,0,11,11,9,1,2010,MAS,AGR,150,vecino,el,l,,,,,,,,,,,,,,,,,
,,,,,,20a750f81f089a9c315833ff,66a626ef09d4e21e1a8894ec,67360fd442621318065f2f4d,2024-11-14_08h57.52.799,Tarea de género gramatical,2024.2.2,Win32,59.88023952,,,,,,,,,,,,,,,,,,,,,,,209.4559,210.6545,l,0,0.5044,,[],[],[],[],[],[],[],0.5044,0,210.6553,211.1546,0,12,12,11,1,2012,MAS,DIS,150,clima,la,l,,,,,,,,,,,,,,,,,
,,,,,,20a750f81f089a9c315833ff,66a626ef09d4e21e1a8894ec,67360fd442621318065f2f4d,2024-11-14_08h57.52.799,Tarea de género gramatical,2024.2.2,Win32,59.88023952,,,,,,,,,,,,,,,,,,,,,,,211.1555,212.7249,l,1,0.9146,,[],[],[],[],[],[],[],0.9146,1,212.7255,213.2249,0,13,13,5,1,2006,FEM,DIS,150,serie,el,a,,,,,,,,,,,,,,,,,
,,,,,,20a750f81f089a9c315833ff,66a626ef09d4e21e1a8894ec,67360fd442621318065f2f4d,2024-11-14_08h57.52.799,Tarea de género gramatical,2024.2.2,Win32,59.88023952,,,,,,,,,,,,,,,,,,,,,,,213.2257,214.9085,a,1,1.0008,,[],[],[],[],[],[],[],1.0008,1,214.9086,215.4046,0,14,14,8,1,2009,MAS,DIS,150,puerto,la,l,,,,,,,,,,,,,,,,,
,,,,,,20a750f81f089a9c315833ff,66a626ef09d4e21e1a8894ec,67360fd442621318065f2f4d,2024-11-14_08h57.52.799,Tarea de género gramatical,2024.2.2,Win32,59.88023952,,,233.5936,244.4549,space,10.8383,,0.887962963,0.5,0,0,0,,,,,,,,,,,244.4912,245.6213,l,0,0.4524,,[],[],[],[],[],[],[],0.4524,0,245.6219,246.1213,,,,,,798,MAS,AGR,150,anillo,el,l,246.1215,246.1253,0.887962963,0.5,0,0,0,,0,0,0,347,1,,,,
,,,,,,20a750f81f089a9c315833ff,66a626ef09d4e21e1a8894ec,67360fd442621318065f2f4d,2024-11-14_08h57.52.799,Tarea de género gramatical,2024.2.2,Win32,59.88023952,,,,,,,,,,,,,,,,,,,,,,,246.1267,247.3714,a,0,0.576,,[],[],[],[],[],[],[],0.576,0,247.3715,247.8714,,,,,,819,FEM,AGR,150,camisa,la,a,247.8714,247.8715,0.887962963,0.5,0,0,0,,0,1,1,368,1,,,,
,,,,,,20a750f81f089a9c315833ff,66a626ef09d4e21e1a8894ec,67360fd442621318065f2f4d,2024-11-14_08h57.52.799,Tarea de género gramatical,2024.2.2,Win32,59.88023952,,,,,,,,,,,,,,,,,,,,,,,247.8723,248.9714,l,0,0.4259,,[],[],[],[],[],[],[],0.4259,0,248.9716,249.4713,,,,,,737,MAS,DIS,150,plato,la,l,249.4724,249.473,0.887962963,0.5,0,0,0,,0,2,2,286,1,,,,
,,,,,,20a750f81f089a9c315833ff,66a626ef09d4e21e1a8894ec,67360fd442621318065f2f4d,2024-11-14_08h57.52.799,Tarea de género gramatical,2024.2.2,Win32,59.88023952,,,,,,,,,,,,,,,,,,,,,,,249.4736,250.6216,a,0,0.474,,[],[],[],[],[],[],[],0.474,0,250.6217,251.1215,,,,,,452,FEM,DIS,150,vida,el,a,251.1216,251.1217,0.887962963,0.5,0,0,0,,0,3,3,1,1,,,,
,,,,,,20a750f81f089a9c315833ff,66a626ef09d4e21e1a8894ec,67360fd442621318065f2f4d,2024-11-14_08h57.52.799,Tarea de género gramatical,2024.2.2,Win32,59.88023952,,,,,,,,,,,,,,,,,,,,,,,251.1228,252.2884,l,0,0.4862,,[],[],[],[],[],[],[],0.4862,0,252.2885,252.7881,,,,,,804,MAS,AGR,150,camión,el,l,252.7882,252.7882,0.887962963,0.5,0,0,0,,0,4,4,353,1,,,,
,,,,,,20a750f81f089a9c315833ff,66a626ef09d4e21e1a8894ec,67360fd442621318065f2f4d,2024-11-14_08h57.52.799,Tarea de género gramatical,2024.2.2,Win32,59.88023952,,,,,,,,,,,,,,,,,,,,,,,252.7894,254.2048,l,0,0.7339,,[],[],[],[],[],[],[],0.7339,0,254.2049,254.7048,,,,,,521,MAS,DIS,150,pozo,la,l,254.7048,254.7049,0.887962963,0.5,0,0,0,,0,5,5,70,1,,,,
,,,,,,20a750f81f089a9c315833ff,66a626ef09d4e21e1a8894ec,67360fd442621318065f2f4d,2024-11-14_08h57.52.799,Tarea de género gramatical,2024.2.2,Win32,59.88023952,,,,,,,,,,,,,,,,,,,,,,,254.706,256.2715,a,1,0.8964,,[],[],[],[],[],[],[],0.8964,1,256.2721,256.7715,,,,,,790,MAS,CON,150,pasado,,l,256.7726,256.7735,0.887962963,0.5,0,0,0,,0,6,6,339,1,,,,
,,,,,,20a750f81f089a9c315833ff,66a626ef09d4e21e1a8894ec,67360fd442621318065f2f4d,2024-11-14_08h57.52.799,Tarea de género gramatical,2024.2.2,Win32,59.88023952,,,,,,,,,,,,,,,,,,,,,,,256.7744,258.005,a,1,0.5499,,[],[],[],[],[],[],[],0.5499,1,258.0051,258.5049,,,,,,880,MAS,CON,150,título,,l,258.505,258.5051,0.887962963,0.5,0,0,0,,0,7,7,429,1,,,,
,,,,,,20a750f81f089a9c315833ff,66a626ef09d4e21e1a8894ec,67360fd442621318065f2f4d,2024-11-14_08h57.52.799,Tarea de género gramatical,2024.2.2,Win32,59.88023952,,,,,,,,,,,,,,,,,,,,,,,258.506,259.605,l,1,0.4156,,[],[],[],[],[],[],[],0.4156,1,259.6051,260.105,,,,,,579,FEM,AGR,150,rana,la,a,260.1051,260.1053,0.887962963,0.5,0,0,0,,0,8,8,128,1,,,,
,,,,,,20a750f81f089a9c315833ff,66a626ef09d4e21e1a8894ec,67360fd442621318065f2f4d,2024-11-14_08h57.52.799,Tarea de género gramatical,2024.2.2,Win32,59.88023952,,,,,,,,,,,,,,,,,,,,,,,260.1063,261.2882,a,1,0.5128,,[],[],[],[],[],[],[],0.5128,1,261.2883,261.788,,,,,,533,MAS,DIS,150,nene,la,l,261.7882,261.7883,0.887962963,0.5,0,0,0,,0,9,9,82,1,,,,
,,,,,,20a750f81f089a9c315833ff,66a626ef09d4e21e1a8894ec,67360fd442621318065f2f4d,2024-11-14_08h57.52.799,Tarea de género gramatical,2024.2.2,Win32,59.88023952,,,,,,,,,,,,,,,,,,,,,,,261.7893,262.9549,l,1,0.4929,,[],[],[],[],[],[],[],0.4929,1,262.955,263.4549,,,,,,848,FEM,DIS,150,hierba,el,a,263.4549,263.455,0.887962963,0.5,0,0,0,,0,10,10,397,1,,,,
,,,,,,20a750f81f089a9c315833ff,66a626ef09d4e21e1a8894ec,67360fd442621318065f2f4d,2024-11-14_08h57.52.799,Tarea de género gramatical,2024.2.2,Win32,59.88023952,,,,,,,,,,,,,,,,,,,,,,,263.456,264.5714,l,1,0.4417,,[],[],[],[],[],[],[],0.4417,1,264.5716,265.0718,,,,,,805,FEM,CON,150,mirada,,a,265.0732,265.0739,0.887962963,0.5,0,0,0,,0,11,11,354,1,,,,
,,,,,,20a750f81f089a9c315833ff,66a626ef09d4e21e1a8894ec,67360fd442621318065f2f4d,2024-11-14_08h57.52.799,Tarea de género gramatical,2024.2.2,Win32,59.88023952,,,,,,,,,,,,,,,,,,,,,,,265.0744,266.0715,a,1,0.3215,,[],[],[],[],[],[],[],0.3215,1,266.0716,266.5714,,,,,,702,MAS,AGR,150,viejo,el,l,266.5715,266.5716,0.887962963,0.5,0,0,0,,0,12,12,251,1,,,,
,,,,,,20a750f81f089a9c315833ff,66a626ef09d4e21e1a8894ec,67360fd442621318065f2f4d,2024-11-14_08h57.52.799,Tarea de género gramatical,2024.2.2,Win32,59.88023952,,,,,,,,,,,,,,,,,,,,,,,266.5727,267.6716,a,1,0.4198,,[],[],[],[],[],[],[],0.4198,1,267.6716,268.1714,,,,,,701,MAS,DIS,150,dueño,la,l,268.1715,268.1715,0.887962963,0.5,0,0,0,,0,13,13,250,1,,,,
,,,,,,20a750f81f089a9c315833ff,66a626ef09d4e21e1a8894ec,67360fd442621318065f2f4d,2024-11-14_08h57.52.799,Tarea de género gramatical,2024.2.2,Win32,59.88023952,,,,,,,,,,,,,,,,,,,,,,,268.1724,269.2215,a,1,0.3738,,[],[],[],[],[],[],[],0.3738,1,269.2216,269.7216,,,,,,762,MAS,AGR,150,equipo,el,l,269.7217,269.7217,0.887962963,0.5,0,0,0,,0,14,14,311,1,,,,
,,,,,,20a750f81f089a9c315833ff,66a626ef09d4e21e1a8894ec,67360fd442621318065f2f4d,2024-11-14_08h57.52.799,Tarea de género gramatical,2024.2.2,Win32,59.88023952,,,,,,,,,,,,,,,,,,,,,,,269.7224,271.0382,a,1,0.6381,,[],[],[],[],[],[],[],0.6381,1,271.0382,271.5382,,,,,,508,MAS,CON,150,mono,,l,271.5397,271.5402,0.887962963,0.5,0,0,0,,0,15,15,57,1,,,,
,,,,,,20a750f81f089a9c315833ff,66a626ef09d4e21e1a8894ec,67360fd442621318065f2f4d,2024-11-14_08h57.52.799,Tarea de género gramatical,2024.2.2,Win32,59.88023952,,,,,,,,,,,,,,,,,,,,,,,271.5408,272.4717,l,1,0.2532,,[],[],[],[],[],[],[],0.2532,1,272.4717,272.9715,,,,,,511,FEM,CON,150,ruta,,a,272.9715,272.9716,0.887962963,0.5,0,0,0,,0,16,16,60,1,,,,
,,,,,,20a750f81f089a9c315833ff,66a626ef09d4e21e1a8894ec,67360fd442621318065f2f4d,2024-11-14_08h57.52.799,Tarea de género gramatical,2024.2.2,Win32,59.88023952,,,,,,,,,,,,,,,,,,,,,,,272.9727,274.0715,a,0,0.4294,,[],[],[],[],[],[],[],0.4294,0,274.0721,274.5715,,,,,,812,FEM,DIS,150,fuente,el,a,274.5715,274.5716,0.887962963,0.5,0,0,0,,0,17,17,361,1,,,,
,,,,,,20a750f81f089a9c315833ff,66a626ef09d4e21e1a8894ec,67360fd442621318065f2f4d,2024-11-14_08h57.52.799,Tarea de género gramatical,2024.2.2,Win32,59.88023952,,,,,,,,,,,,,,,,,,,,,,,274.5725,275.9883,a,1,0.7418,,[],[],[],[],[],[],[],0.7418,1,275.989,276.4884,,,,,,708,MAS,AGR,150,polvo,el,l,276.4885,276.4885,0.887962963,0.5,0,0,0,,0,18,18,257,1,,,,
,,,,,,20a750f81f089a9c315833ff,66a626ef09d4e21e1a8894ec,67360fd442621318065f2f4d,2024-11-14_08h57.52.799,Tarea de género gramatical,2024.2.2,Win32,59.88023952,,,,,,,,,,,,,,,,,,,,,,,276.4895,277.7883,a,1,0.6248,,[],[],[],[],[],[],[],0.6248,1,277.7884,278.2882,,,,,,682,MAS,CON,150,calor,,l,278.2883,278.2883,0.887962963,0.5,0,0,0,,0,19,19,231,1,,,,
,,,,,,20a750f81f089a9c315833ff,66a626ef09d4e21e1a8894ec,67360fd442621318065f2f4d,2024-11-14_08h57.52.799,Tarea de género gramatical,2024.2.2,Win32,59.88023952,,,,,,,,,,,,,,,,,,,,,,,278.2895,279.455,a,1,0.4955,,[],[],[],[],[],[],[],0.4955,1,279.4551,279.9553,,,,,,468,MAS,AGR,150,tren,el,l,279.9567,279.9575,0.887962963,0.5,0,0,0,,0,20,20,17,1,,,,
,,,,,,20a750f81f089a9c315833ff,66a626ef09d4e21e1a8894ec,67360fd442621318065f2f4d,2024-11-14_08h57.52.799,Tarea de género gramatical,2024.2.2,Win32,59.88023952,,,,,,,,,,,,,,,,,,,,,,,279.9582,281.1383,a,1,0.5105,,[],[],[],[],[],[],[],0.5105,1,281.1384,281.6384,,,,,,695,MAS,DIS,150,turno,la,l,281.6384,281.6384,0.887962963,0.5,0,0,0,,0,21,21,244,1,,,,
,,,,,,20a750f81f089a9c315833ff,66a626ef09d4e21e1a8894ec,67360fd442621318065f2f4d,2024-11-14_08h57.52.799,Tarea de género gramatical,2024.2.2,Win32,59.88023952,,,,,,,,,,,,,,,,,,,,,,,281.6395,282.7216,l,1,0.4029,,[],[],[],[],[],[],[],0.4029,1,282.7217,283.2216,,,,,,878,FEM,DIS,150,jugada,el,a,283.2217,283.2217,0.887962963,0.5,0,0,0,,0,22,22,427,1,,,,
,,,,,,20a750f81f089a9c315833ff,66a626ef09d4e21e1a8894ec,67360fd442621318065f2f4d,2024-11-14_08h57.52.799,Tarea de género gramatical,2024.2.2,Win32,59.88023952,,,,,,,,,,,,,,,,,,,,,,,283.2226,284.455,a,1,0.5639,,[],[],[],[],[],[],[],0.5639,1,284.455,284.955,,,,,,520,MAS,CON,150,palo,,l,284.9551,284.9551,0.887962963,0.5,0,0,0,,0,23,23,69,1,,,,
,,,,,,20a750f81f089a9c315833ff,66a626ef09d4e21e1a8894ec,67360fd442621318065f2f4d,2024-11-14_08h57.52.799,Tarea de género gramatical,2024.2.2,Win32,59.88023952,,,,,,,,,,,,,,,,,,,,,,,284.956,286.0387,a,1,0.4149,,[],[],[],[],[],[],[],0.4149,1,286.0388,286.5384,,,,,,886,MAS,CON,150,objeto,,l,286.54,286.5406,0.887962963,0.5,0,0,0,,0,24,24,435,1,,,,
,,,,,,20a750f81f089a9c315833ff,66a626ef09d4e21e1a8894ec,67360fd442621318065f2f4d,2024-11-14_08h57.52.799,Tarea de género gramatical,2024.2.2,Win32,59.88023952,,,,,,,,,,,,,,,,,,,,,,,286.5413,287.6551,l,1,0.4394,,[],[],[],[],[],[],[],0.4394,1,287.6551,288.155,,,,,,645,FEM,AGR,150,pared,la,a,288.155,288.1551,0.887962963,0.5,0,0,0,,0,25,25,194,1,,,,
,,,,,,20a750f81f089a9c315833ff,66a626ef09d4e21e1a8894ec,67360fd442621318065f2f4d,2024-11-14_08h57.52.799,Tarea de género gramatical,2024.2.2,Win32,59.88023952,,,,,,,,,,,,,,,,,,,,,,,288.1559,289.3052,a,1,0.4777,,[],[],[],[],[],[],[],0.4777,1,289.3054,289.8052,,,,,,646,MAS,CON,150,barco,,l,289.8052,289.8053,0.887962963,0.5,0,0,0,,0,26,26,195,1,,,,
,,,,,,20a750f81f089a9c315833ff,66a626ef09d4e21e1a8894ec,67360fd442621318065f2f4d,2024-11-14_08h57.52.799,Tarea de género gramatical,2024.2.2,Win32,59.88023952,,,,,,,,,,,,,,,,,,,,,,,289.8061,290.8884,a,1,0.4041,,[],[],[],[],[],[],[],0.4041,1,290.8885,291.3884,,,,,,712,MAS,CON,150,video,,l,291.3884,291.3885,0.887962963,0.5,0,0,0,,0,27,27,261,1,,,,
,,,,,,20a750f81f089a9c315833ff,66a626ef09d4e21e1a8894ec,67360fd442621318065f2f4d,2024-11-14_08h57.52.799,Tarea de género gramatical,2024.2.2,Win32,59.88023952,,,,,,,,,,,,,,,,,,,,,,,291.3896,292.4386,a,1,0.3672,,[],[],[],[],[],[],[],0.3672,1,292.4387,292.9385,,,,,,544,MAS,CON,150,cabo,,l,292.9385,292.9386,0.887962963,0.5,0,0,0,,0,28,28,93,1,,,,
,,,,,,20a750f81f089a9c315833ff,66a626ef09d4e21e1a8894ec,67360fd442621318065f2f4d,2024-11-14_08h57.52.799,Tarea de género gramatical,2024.2.2,Win32,59.88023952,,,,,,,,,,,,,,,,,,,,,,,292.9396,294.0217,a,1,0.407,,[],[],[],[],[],[],[],0.407,1,294.0217,294.5217,,,,,,732,MAS,AGR,150,bolso,el,l,294.5233,294.5239,0.887962963,0.5,0,0,0,,0,29,29,281,1,,,,
,,,,,,20a750f81f089a9c315833ff,66a626ef09d4e21e1a8894ec,67360fd442621318065f2f4d,2024-11-14_08h57.52.799,Tarea de género gramatical,2024.2.2,Win32,59.88023952,,,,,,,,,,,,,,,,,,,,,,,294.5246,295.6052,l,1,0.4007,,[],[],[],[],[],[],[],0.4007,1,295.6052,296.105,,,,,,733,FEM,CON,150,pluma,,a,296.1051,296.1052,0.887962963,0.5,0,0,0,,0,30,30,282,1,,,,
,,,,,,20a750f81f089a9c315833ff,66a626ef09d4e21e1a8894ec,67360fd442621318065f2f4d,2024-11-14_08h57.52.799,Tarea de género gramatical,2024.2.2,Win32,59.88023952,,,,,,,,,,,,,,,,,,,,,,,296.1061,297.2386,a,1,0.4566,,[],[],[],[],[],[],[],0.4566,1,297.2387,297.7384,,,,,,502,MAS,CON,150,lago,,l,297.7385,297.7385,0.887962963,0.5,0,0,0,,0,31,31,51,1,,,,
,,,,,,20a750f81f089a9c315833ff,66a626ef09d4e21e1a8894ec,67360fd442621318065f2f4d,2024-11-14_08h57.52.799,Tarea de género gramatical,2024.2.2,Win32,59.88023952,,,,,,,,,,,,,,,,,,,,,,,297.7397,298.8552,a,1,0.4392,,[],[],[],[],[],[],[],0.4392,1,298.8552,299.3551,,,,,,690,MAS,AGR,150,ruido,el,l,299.3552,299.3553,0.887962963,0.5,0,0,0,,0,32,32,239,1,,,,
,,,,,,20a750f81f089a9c315833ff,66a626ef09d4e21e1a8894ec,67360fd442621318065f2f4d,2024-11-14_08h57.52.799,Tarea de género gramatical,2024.2.2,Win32,59.88023952,,,,,,,,,,,,,,,,,,,,,,,299.3562,300.5885,l,1,0.5508,,[],[],[],[],[],[],[],0.5508,1,300.5885,301.0886,,,,,,578,FEM,DIS,150,leña,el,a,301.0897,301.0903,0.887962963,0.5,0,0,0,,0,33,33,127,1,,,,
,,,,,,20a750f81f089a9c315833ff,66a626ef09d4e21e1a8894ec,67360fd442621318065f2f4d,2024-11-14_08h57.52.799,Tarea de género gramatical,2024.2.2,Win32,59.88023952,,,,,,,,,,,,,,,,,,,,,,,301.0909,302.1384,a,1,0.3677,,[],[],[],[],[],[],[],0.3677,1,302.1384,302.6387,,,,,,587,MAS,DIS,150,coco,la,l,302.6387,302.6389,0.887962963,0.5,0,0,0,,0,34,34,136,1,,,,
,,,,,,20a750f81f089a9c315833ff,66a626ef09d4e21e1a8894ec,67360fd442621318065f2f4d,2024-11-14_08h57.52.799,Tarea de género gramatical,2024.2.2,Win32,59.88023952,,,,,,,,,,,,,,,,,,,,,,,302.6399,303.7218,a,1,0.4111,,[],[],[],[],[],[],[],0.4111,1,303.7218,304.2218,,,,,,454,MAS,CON,150,hijo,,l,304.2218,304.2219,0.887962963,0.5,0,0,0,,0,35,35,3,1,,,,
,,,,,,20a750f81f089a9c315833ff,66a626ef09d4e21e1a8894ec,67360fd442621318065f2f4d,2024-11-14_08h57.52.799,Tarea de género gramatical,2024.2.2,Win32,59.88023952,,,,,,,,,,,,,,,,,,,,,,,304.2228,305.2551,l,1,0.3638,,[],[],[],[],[],[],[],0.3638,1,305.2551,305.7551,,,,,,476,FEM,DIS,150,pena,el,a,305.7551,305.7552,0.887962963,0.5,0,0,0,,0,36,36,25,1,,,,
,,,,,,20a750f81f089a9c315833ff,66a626ef09d4e21e1a8894ec,67360fd442621318065f2f4d,2024-11-14_08h57.52.799,Tarea de género gramatical,2024.2.2,Win32,59.88023952,,,,,,,,,,,,,,,,,,,,,,,305.7559,306.7718,a,0,0.34,,[],[],[],[],[],[],[],0.34,0,306.7725,307.2719,,,,,,859,FEM,CON,150,moneda,,a,307.272,307.2721,0.887962963,0.5,0,0,0,,0,37,37,408,1,,,,
,,,,,,20a750f81f089a9c315833ff,66a626ef09d4e21e1a8894ec,67360fd442621318065f2f4d,2024-11-14_08h57.52.799,Tarea de género gramatical,2024.2.2,Win32,59.88023952,,,,,,,,,,,,,,,,,,,,,,,307.2728,308.5221,l,1,0.5696,,[],[],[],[],[],[],[],0.5696,1,308.5231,309.0218,,,,,,662,FEM,DIS,150,cinta,el,a,309.0229,309.0237,0.887962963,0.5,0,0,0,,0,38,38,211,1,,,,
,,,,,,20a750f81f089a9c315833ff,66a626ef09d4e21e1a8894ec,67360fd442621318065f2f4d,2024-11-14_08h57.52.799,Tarea de género gramatical,2024.2.2,Win32,59.88023952,,,,,,,,,,,,,,,,,,,,,,,309.0245,310.2053,l,1,0.5062,,[],[],[],[],[],[],[],0.5062,1,310.2053,310.7052,,,,,,656,FEM,DIS,150,época,el,a,310.7053,310.7054,0.887962963,0.5,0,0,0,,0,39,39,205,1,,,,
,,,,,,20a750f81f089a9c315833ff,66a626ef09d4e21e1a8894ec,67360fd442621318065f2f4d,2024-11-14_08h57.52.799,Tarea de género gramatical,2024.2.2,Win32,59.88023952,,,,,,,,,,,,,,,,,,,,,,,310.7063,311.7218,l,1,0.3427,,[],[],[],[],[],[],[],0.3427,1,311.7219,312.2219,,,,,,841,FEM,CON,150,altura,,a,312.2219,312.2219,0.887962963,0.5,0,0,0,,0,40,40,390,1,,,,
,,,,,,20a750f81f089a9c315833ff,66a626ef09d4e21e1a8894ec,67360fd442621318065f2f4d,2024-11-14_08h57.52.799,Tarea de género gramatical,2024.2.2,Win32,59.88023952,,,,,,,,,,,,,,,,,,,,,,,312.223,313.3718,a,1,0.4675,,[],[],[],[],[],[],[],0.4675,1,313.3718,313.8719,,,,,,492,MAS,AGR,150,show,el,l,313.8719,313.8719,0.887962963,0.5,0,0,0,,0,41,41,41,1,,,,
,,,,,,20a750f81f089a9c315833ff,66a626ef09d4e21e1a8894ec,67360fd442621318065f2f4d,2024-11-14_08h57.52.799,Tarea de género gramatical,2024.2.2,Win32,59.88023952,,,,,,,,,,,,,,,,,,,,,,,313.8727,315.0553,a,1,0.5055,,[],[],[],[],[],[],[],0.5055,1,315.0553,315.5553,,,,,,856,MAS,CON,150,premio,,l,315.5566,315.5573,0.887962963,0.5,0,0,0,,0,42,42,405,1,,,,
,,,,,,20a750f81f089a9c315833ff,66a626ef09d4e21e1a8894ec,67360fd442621318065f2f4d,2024-11-14_08h57.52.799,Tarea de género gramatical,2024.2.2,Win32,59.88023952,,,,,,,,,,,,,,,,,,,,,,,315.558,316.6719,a,0,0.4444,,[],[],[],[],[],[],[],0.4444,0,316.6724,317.1719,,,,,,481,FEM,CON,150,edad,,a,317.1719,317.172,0.887962963,0.5,0,0,0,,0,43,43,30,1,,,,
,,,,,,20a750f81f089a9c315833ff,66a626ef09d4e21e1a8894ec,67360fd442621318065f2f4d,2024-11-14_08h57.52.799,Tarea de género gramatical,2024.2.2,Win32,59.88023952,,,,,,,,,,,,,,,,,,,,,,,317.1728,318.3887,l,0,0.5329,,[],[],[],[],[],[],[],0.5329,0,318.3887,318.8889,,,,,,731,MAS,DIS,150,actor,la,l,318.889,318.8891,0.887962963,0.5,0,0,0,,0,44,44,280,1,,,,
,,,,,,20a750f81f089a9c315833ff,66a626ef09d4e21e1a8894ec,67360fd442621318065f2f4d,2024-11-14_08h57.52.799,Tarea de género gramatical,2024.2.2,Win32,59.88023952,,,,,,,,,,,,,,,,,,,,,,,318.89,320.3053,l,1,0.7357,,[],[],[],[],[],[],[],0.7357,1,320.306,320.8053,,,,,,595,FEM,CON,150,bota,,a,320.8054,320.8055,0.887962963,0.5,0,0,0,,0,45,45,144,1,,,,
,,,,,,20a750f81f089a9c315833ff,66a626ef09d4e21e1a8894ec,67360fd442621318065f2f4d,2024-11-14_08h57.52.799,Tarea de género gramatical,2024.2.2,Win32,59.88023952,,,,,,,,,,,,,,,,,,,,,,,320.8064,321.9387,l,0,0.4521,,[],[],[],[],[],[],[],0.4521,0,321.9394,322.4388,,,,,,870,MAS,AGR,150,helado,el,l,322.4388,322.4389,0.887962963,0.5,0,0,0,,0,46,46,419,1,,,,
,,,,,,20a750f81f089a9c315833ff,66a626ef09d4e21e1a8894ec,67360fd442621318065f2f4d,2024-11-14_08h57.52.799,Tarea de género gramatical,2024.2.2,Win32,59.88023952,,,,,,,,,,,,,,,,,,,,,,,322.4397,323.7053,l,0,0.5935,,[],[],[],[],[],[],[],0.5935,0,323.7054,324.2053,,,,,,461,MAS,DIS,150,país,la,l,324.2064,324.207,0.887962963,0.5,0,0,0,,0,47,47,10,1,,,,
,,,,,,20a750f81f089a9c315833ff,66a626ef09d4e21e1a8894ec,67360fd442621318065f2f4d,2024-11-14_08h57.52.799,Tarea de género gramatical,2024.2.2,Win32,59.88023952,,,,,,,,,,,,,,,,,,,,,,,324.2076,325.1887,a,0,0.3081,,[],[],[],[],[],[],[],0.3081,0,325.1888,325.6887,,,,,,607,FEM,CON,150,madre,,a,325.6888,325.6889,0.887962963,0.5,0,0,0,,0,48,48,156,1,,,,
,,,,,,20a750f81f089a9c315833ff,66a626ef09d4e21e1a8894ec,67360fd442621318065f2f4d,2024-11-14_08h57.52.799,Tarea de género gramatical,2024.2.2,Win32,59.88023952,,,,,,,,,,,,,,,,,,,,,,,325.6898,327.0887,l,0,0.7207,,[],[],[],[],[],[],[],0.7207,0,327.0889,327.5889,,,,,,491,MAS,DIS,150,bote,la,l,327.589,327.5891,0.887962963,0.5,0,0,0,,0,49,49,40,1,,,,
,,,,,,20a750f81f089a9c315833ff,66a626ef09d4e21e1a8894ec,67360fd442621318065f2f4d,2024-11-14_08h57.52.799,Tarea de género gramatical,2024.2.2,Win32,59.88023952,,,,,,,,,,,,,,,,,,,,,,,327.5902,328.9053,a,0,0.6367,,[],[],[],[],[],[],[],0.6367,0,328.9054,329.4055,,,,,,854,FEM,DIS,150,gloria,el,a,329.4056,329.4057,0.887962963,0.5,0,0,0,,0,50,50,403,1,,,,
,,,,,,20a750f81f089a9c315833ff,66a626ef09d4e21e1a8894ec,67360fd442621318065f2f4d,2024-11-14_08h57.52.799,Tarea de género gramatical,2024.2.2,Win32,59.88023952,,,,,,,,,,,,,,,,,,,,,,,329.4067,331.5887,a,1,1.5071,,[],[],[],[],[],[],[],1.5071,1,331.5894,332.0888,,,,,,874,MAS,CON,150,rastro,,l,332.0898,332.0904,0.887962963,0.5,0,0,0,,0,51,51,423,1,,,,
,,,,,,20a750f81f089a9c315833ff,66a626ef09d4e21e1a8894ec,67360fd442621318065f2f4d,2024-11-14_08h57.52.799,Tarea de género gramatical,2024.2.2,Win32,59.88023952,,,,,,,,,,,,,,,,,,,,,,,332.0909,333.2055,l,1,0.4338,,[],[],[],[],[],[],[],0.4338,1,333.2056,333.7054,,,,,,890,FEM,DIS,150,patada,el,a,333.7054,333.7054,0.887962963,0.5,0,0,0,,0,52,52,439,1,,,,
,,,,,,20a750f81f089a9c315833ff,66a626ef09d4e21e1a8894ec,67360fd442621318065f2f4d,2024-11-14_08h57.52.799,Tarea de género gramatical,2024.2.2,Win32,59.88023952,,,,,,,,,,,,,,,,,,,,,,,333.7063,335.4219,a,1,1.0346,,[],[],[],[],[],[],[],1.0346,1,335.422,335.9221,,,,,,672,MAS,AGR,150,valor,el,l,335.9221,335.9222,0.887962963,0.5,0,0,0,,0,53,53,221,1,,,,
,,,,,,20a750f81f089a9c315833ff,66a626ef09d4e21e1a8894ec,67360fd442621318065f2f4d,2024-11-14_08h57.52.799,Tarea de género gramatical,2024.2.2,Win32,59.88023952,,,,,,,,,,,,,,,,,,,,,,,335.9231,337.4388,l,1,0.8477,,[],[],[],[],[],[],[],0.8477,1,337.4389,337.9387,,,,,,667,FEM,CON,150,tarea,,a,337.9388,337.9388,0.887962963,0.5,0,0,0,,0,54,54,216,1,,,,
,,,,,,20a750f81f089a9c315833ff,66a626ef09d4e21e1a8894ec,67360fd442621318065f2f4d,2024-11-14_08h57.52.799,Tarea de género gramatical,2024.2.2,Win32,59.88023952,,,,,,,,,,,,,,,,,,,,,,,337.9397,339.1221,a,1,0.5108,,[],[],[],[],[],[],[],0.5108,1,339.1221,339.622,,,,,,556,MAS,CON,150,test,,l,339.622,339.6221,0.887962963,0.5,0,0,0,,0,55,55,105,1,,,,
,,,,,,20a750f81f089a9c315833ff,66a626ef09d4e21e1a8894ec,67360fd442621318065f2f4d,2024-11-14_08h57.52.799,Tarea de género gramatical,2024.2.2,Win32,59.88023952,,,,,,,,,,,,,,,,,,,,,,,339.6232,340.6388,l,1,0.3394,,[],[],[],[],[],[],[],0.3394,1,340.6388,341.1388,,,,,,895,FEM,CON,150,bondad,,a,341.14,341.1406,0.887962963,0.5,0,0,0,,0,56,56,444,1,,,,
,,,,,,20a750f81f089a9c315833ff,66a626ef09d4e21e1a8894ec,67360fd442621318065f2f4d,2024-11-14_08h57.52.799,Tarea de género gramatical,2024.2.2,Win32,59.88023952,,,,,,,,,,,,,,,,,,,,,,,341.1413,342.3054,l,1,0.4948,,[],[],[],[],[],[],[],0.4948,1,342.3055,342.8054,,,,,,627,FEM,AGR,150,broma,la,a,342.8054,342.8055,0.887962963,0.5,0,0,0,,0,57,57,176,1,,,,
,,,,,,20a750f81f089a9c315833ff,66a626ef09d4e21e1a8894ec,67360fd442621318065f2f4d,2024-11-14_08h57.52.799,Tarea de género gramatical,2024.2.2,Win32,59.88023952,,,,,,,,,,,,,,,,,,,,,,,342.8063,343.9722,a,1,0.4835,,[],[],[],[],[],[],[],0.4835,1,343.9722,344.4722,,,,,,815,MAS,DIS,150,código,la,l,344.4722,344.4724,0.887962963,0.5,0,0,0,,0,58,58,364,1,,,,
,,,,,,20a750f81f089a9c315833ff,66a626ef09d4e21e1a8894ec,67360fd442621318065f2f4d,2024-11-14_08h57.52.799,Tarea de género gramatical,2024.2.2,Win32,59.88023952,,,,,,,,,,,,,,,,,,,,,,,344.4736,346.1054,a,1,0.9612,,[],[],[],[],[],[],[],0.9612,1,346.1056,346.6054,,,,,,552,MAS,AGR,150,coro,el,l,346.6054,346.6054,0.887962963,0.5,0,0,0,,0,59,59,101,1,,,,
,,,,,,20a750f81f089a9c315833ff,66a626ef09d4e21e1a8894ec,67360fd442621318065f2f4d,2024-11-14_08h57.52.799,Tarea de género gramatical,2024.2.2,Win32,59.88023952,,,,,,,,,,,,,,,,,,,,,,,346.6062,347.7554,l,1,0.4677,,[],[],[],[],[],[],[],0.4677,1,347.7554,348.2554,,,,,,535,FEM,CON,150,gira,,a,348.2563,348.257,0.887962963,0.5,0,0,0,,0,60,60,84,1,,,,
,,,,,,20a750f81f089a9c315833ff,66a626ef09d4e21e1a8894ec,67360fd442621318065f2f4d,2024-11-14_08h57.52.799,Tarea de género gramatical,2024.2.2,Win32,59.88023952,,,,,,,,,,,,,,,,,,,,,,,348.2577,349.5553,a,0,0.6259,,[],[],[],[],[],[],[],0.6259,0,349.556,350.0554,,,,,,573,FEM,AGR,150,tela,la,a,350.0555,350.0556,0.887962963,0.5,0,0,0,,0,61,61,122,1,,,,
,,,,,,20a750f81f089a9c315833ff,66a626ef09d4e21e1a8894ec,67360fd442621318065f2f4d,2024-11-14_08h57.52.799,Tarea de género gramatical,2024.2.2,Win32,59.88023952,,,,,,,,,,,,,,,,,,,,,,,350.0564,351.2887,l,0,0.5672,,[],[],[],[],[],[],[],0.5672,0,351.2888,351.7889,,,,,,713,MAS,DIS,150,carro,la,l,351.789,351.7891,0.887962963,0.5,0,0,0,,0,62,62,262,1,,,,
,,,,,,20a750f81f089a9c315833ff,66a626ef09d4e21e1a8894ec,67360fd442621318065f2f4d,2024-11-14_08h57.52.799,Tarea de género gramatical,2024.2.2,Win32,59.88023952,,,,,,,,,,,,,,,,,,,,,,,351.7898,353.2258,l,1,0.7649,,[],[],[],[],[],[],[],0.7649,1,353.2266,353.7221,,,,,,464,FEM,DIS,150,cara,el,a,353.7221,353.7222,0.887962963,0.5,0,0,0,,0,63,63,13,1,,,,
,,,,,,20a750f81f089a9c315833ff,66a626ef09d4e21e1a8894ec,67360fd442621318065f2f4d,2024-11-14_08h57.52.799,Tarea de género gramatical,2024.2.2,Win32,59.88023952,,,,,,,,,,,,,,,,,,,,,,,353.723,354.8055,l,1,0.4073,,[],[],[],[],[],[],[],0.4073,1,354.8056,355.3089,,,,,,513,FEM,AGR,150,fila,la,a,355.3089,355.3089,0.887962963,0.5,0,0,0,,0,64,64,62,1,,,,
,,,,,,20a750f81f089a9c315833ff,66a626ef09d4e21e1a8894ec,67360fd442621318065f2f4d,2024-11-14_08h57.52.799,Tarea de género gramatical,2024.2.2,Win32,59.88023952,,,,,,,,,,,,,,,,,,,,,,,355.3097,356.3889,l,1,0.4072,,[],[],[],[],[],[],[],0.4072,1,356.3889,356.889,,,,,,547,FEM,CON,150,capa,,a,356.8899,356.8906,0.887962963,0.5,0,0,0,,0,65,65,96,1,,,,
,,,,,,20a750f81f089a9c315833ff,66a626ef09d4e21e1a8894ec,67360fd442621318065f2f4d,2024-11-14_08h57.52.799,Tarea de género gramatical,2024.2.2,Win32,59.88023952,,,,,,,,,,,,,,,,,,,,,,,356.8912,358.026,a,1,0.4645,,[],[],[],[],[],[],[],0.4645,1,358.026,358.5223,,,,,,822,MAS,AGR,150,delito,el,l,358.5224,358.5225,0.887962963,0.5,0,0,0,,0,66,66,371,1,,,,
,,,,,,20a750f81f089a9c315833ff,66a626ef09d4e21e1a8894ec,67360fd442621318065f2f4d,2024-11-14_08h57.52.799,Tarea de género gramatical,2024.2.2,Win32,59.88023952,,,,,,,,,,,,,,,,,,,,,,,358.5233,359.6094,a,1,0.4146,,[],[],[],[],[],[],[],0.4146,1,359.6094,360.1087,,,,,,766,MAS,CON,150,cuerpo,,l,360.1088,360.1088,0.887962963,0.5,0,0,0,,0,67,67,315,1,,,,
,,,,,,20a750f81f089a9c315833ff,66a626ef09d4e21e1a8894ec,67360fd442621318065f2f4d,2024-11-14_08h57.52.799,Tarea de género gramatical,2024.2.2,Win32,59.88023952,,,,,,,,,,,,,,,,,,,,,,,360.1096,361.6095,a,1,0.8315,,[],[],[],[],[],[],[],0.8315,1,361.6095,362.1056,,,,,,743,MAS,DIS,150,patio,la,l,362.1057,362.1057,0.887962963,0.5,0,0,0,,0,68,68,292,1,,,,
,,,,,,20a750f81f089a9c315833ff,66a626ef09d4e21e1a8894ec,67360fd442621318065f2f4d,2024-11-14_08h57.52.799,Tarea de género gramatical,2024.2.2,Win32,59.88023952,,,,,,,,,,,,,,,,,,,,,,,362.1066,363.1226,l,1,0.3571,,[],[],[],[],[],[],[],0.3571,1,363.1227,363.6256,,,,,,788,FEM,DIS,150,abuela,el,a,363.6267,363.6273,0.887962963,0.5,0,0,0,,0,69,69,337,1,,,,
,,,,,,20a750f81f089a9c315833ff,66a626ef09d4e21e1a8894ec,67360fd442621318065f2f4d,2024-11-14_08h57.52.799,Tarea de género gramatical,2024.2.2,Win32,59.88023952,,,,,,,,,,,,,,,,,,,,,,,363.6279,364.6557,l,1,0.3516,,[],[],[],[],[],[],[],0.3516,1,364.6558,365.1558,,,,,,860,FEM,DIS,150,piedad,el,a,365.1558,365.156,0.887962963,0.5,0,0,0,,0,70,70,409,1,,,,
,,,,,,20a750f81f089a9c315833ff,66a626ef09d4e21e1a8894ec,67360fd442621318065f2f4d,2024-11-14_08h57.52.799,Tarea de género gramatical,2024.2.2,Win32,59.88023952,,,,,,,,,,,,,,,,,,,,,,,365.1567,366.1428,l,1,0.3147,,[],[],[],[],[],[],[],0.3147,1,366.1429,366.639,,,,,,752,FEM,DIS,150,cabeza,el,a,366.639,366.6392,0.887962963,0.5,0,0,0,,0,71,71,301,1,,,,
,,,,,,20a750f81f089a9c315833ff,66a626ef09d4e21e1a8894ec,67360fd442621318065f2f4d,2024-11-14_08h57.52.799,Tarea de género gramatical,2024.2.2,Win32,59.88023952,,,,,,,,,,,,,,,,,,,,,,,366.6399,367.676,a,1,0.3651,,[],[],[],[],[],[],[],0.3651,1,367.676,368.1724,,,,,,629,MAS,DIS,150,viaje,la,l,368.1724,368.1725,0.887962963,0.5,0,0,0,,0,72,72,178,1,,,,
,,,,,,20a750f81f089a9c315833ff,66a626ef09d4e21e1a8894ec,67360fd442621318065f2f4d,2024-11-14_08h57.52.799,Tarea de género gramatical,2024.2.2,Win32,59.88023952,,,,,,,,,,,,,,,,,,,,,,,368.1735,369.2594,a,0,0.4002,,[],[],[],[],[],[],[],0.4002,0,369.26,369.7557,,,,,,753,FEM,AGR,150,maldad,la,a,369.7557,369.7558,0.887962963,0.5,0,0,0,,0,73,73,302,1,,,,
,,,,,,20a750f81f089a9c315833ff,66a626ef09d4e21e1a8894ec,67360fd442621318065f2f4d,2024-11-14_08h57.52.799,Tarea de género gramatical,2024.2.2,Win32,59.88023952,,,,,,,,,,,,,,,,,,,,,,,369.7566,370.7428,a,0,0.3176,,[],[],[],[],[],[],[],0.3176,0,370.7429,371.2424,,,,,,763,FEM,CON,150,ciudad,,a,371.2433,371.244,0.887962963,0.5,0,0,0,,0,74,74,312,1,,,,
,,,,,,20a750f81f089a9c315833ff,66a626ef09d4e21e1a8894ec,67360fd442621318065f2f4d,2024-11-14_08h57.52.799,Tarea de género gramatical,2024.2.2,Win32,59.88023952,,,,,,,,,,,,,,,,,,,,,,,371.2445,372.5557,l,1,0.6338,,[],[],[],[],[],[],[],0.6338,1,372.5564,373.0556,,,,,,577,FEM,CON,150,cuna,,a,373.0557,373.0558,0.887962963,0.5,0,0,0,,0,75,75,126,1,,,,
,,,,,,20a750f81f089a9c315833ff,66a626ef09d4e21e1a8894ec,67360fd442621318065f2f4d,2024-11-14_08h57.52.799,Tarea de género gramatical,2024.2.2,Win32,59.88023952,,,,,,,,,,,,,,,,,,,,,,,373.0567,374.189,l,1,0.4576,,[],[],[],[],[],[],[],0.4576,1,374.1891,374.6928,,,,,,487,FEM,CON,150,sala,,a,374.6928,374.693,0.887962963,0.5,0,0,0,,0,76,76,36,1,,,,
,,,,,,20a750f81f089a9c315833ff,66a626ef09d4e21e1a8894ec,67360fd442621318065f2f4d,2024-11-14_08h57.52.799,Tarea de género gramatical,2024.2.2,Win32,59.88023952,,,,,,,,,,,,,,,,,,,,,,,374.694,375.7597,a,1,0.3841,,[],[],[],[],[],[],[],0.3841,1,375.7598,376.2559,,,,,,876,MAS,AGR,150,pánico,el,l,376.2559,376.2561,0.887962963,0.5,0,0,0,,0,77,77,425,1,,,,
,,,,,,20a750f81f089a9c315833ff,66a626ef09d4e21e1a8894ec,67360fd442621318065f2f4d,2024-11-14_08h57.52.799,Tarea de género gramatical,2024.2.2,Win32,59.88023952,,,,,,,,,,,,,,,,,,,,,,,376.2569,377.4097,l,1,0.4838,,[],[],[],[],[],[],[],0.4838,1,377.4097,377.9094,,,,,,777,FEM,AGR,150,tienda,la,a,377.9104,377.911,0.887962963,0.5,0,0,0,,0,78,78,326,1,,,,
,,,,,,20a750f81f089a9c315833ff,66a626ef09d4e21e1a8894ec,67360fd442621318065f2f4d,2024-11-14_08h57.52.799,Tarea de género gramatical,2024.2.2,Win32,59.88023952,,,,,,,,,,,,,,,,,,,,,,,377.9116,378.9723,l,1,0.3739,,[],[],[],[],[],[],[],0.3739,1,378.9724,379.4741,,,,,,559,FEM,CON,150,gota,,a,379.4742,379.4742,0.887962963,0.5,0,0,0,,0,79,79,108,1,,,,
,,,,,,20a750f81f089a9c315833ff,66a626ef09d4e21e1a8894ec,67360fd442621318065f2f4d,2024-11-14_08h57.52.799,Tarea de género gramatical,2024.2.2,Win32,59.88023952,,,,,,,,,,,,,,,,,,,,,,,379.475,380.4892,l,1,0.3509,,[],[],[],[],[],[],[],0.3509,1,380.4893,380.989,,,,,,745,FEM,CON,150,grasa,,a,380.9891,380.9892,0.887962963,0.5,0,0,0,,0,80,80,294,1,,,,
,,,,,,20a750f81f089a9c315833ff,66a626ef09d4e21e1a8894ec,67360fd442621318065f2f4d,2024-11-14_08h57.52.799,Tarea de género gramatical,2024.2.2,Win32,59.88023952,,,,,,,,,,,,,,,,,,,,,,,380.99,382.0557,a,1,0.3934,,[],[],[],[],[],[],[],0.3934,1,382.0558,382.5557,,,,,,593,MAS,DIS,150,faro,la,l,382.5557,382.5558,0.887962963,0.5,0,0,0,,0,81,81,142,1,,,,
,,,,,,20a750f81f089a9c315833ff,66a626ef09d4e21e1a8894ec,67360fd442621318065f2f4d,2024-11-14_08h57.52.799,Tarea de género gramatical,2024.2.2,Win32,59.88023952,,,,,,,,,,,,,,,,,,,,,,,382.5566,383.6263,l,0,0.4147,,[],[],[],[],[],[],[],0.4147,0,383.6268,384.1224,,,,,,570,MAS,AGR,150,puño,el,l,384.1224,384.1225,0.887962963,0.5,0,0,0,,0,82,82,119,1,,,,
,,,,,,20a750f81f089a9c315833ff,66a626ef09d4e21e1a8894ec,67360fd442621318065f2f4d,2024-11-14_08h57.52.799,Tarea de género gramatical,2024.2.2,Win32,59.88023952,,,,,,,,,,,,,,,,,,,,,,,384.1233,385.2558,l,1,0.454,,[],[],[],[],[],[],[],0.454,1,385.2566,385.7598,,,,,,879,FEM,AGR,150,fianza,la,a,385.7607,385.7613,0.887962963,0.5,0,0,0,,0,83,83,428,1,,,,
,,,,,,20a750f81f089a9c315833ff,66a626ef09d4e21e1a8894ec,67360fd442621318065f2f4d,2024-11-14_08h57.52.799,Tarea de género gramatical,2024.2.2,Win32,59.88023952,,,,,,,,,,,,,,,,,,,,,,,385.7619,386.8724,l,1,0.4379,,[],[],[],[],[],[],[],0.4379,1,386.8726,387.3724,,,,,,603,FEM,AGR,150,mujer,la,a,387.3724,387.3725,0.887962963,0.5,0,0,0,,0,84,84,152,1,,,,
,,,,,,20a750f81f089a9c315833ff,66a626ef09d4e21e1a8894ec,67360fd442621318065f2f4d,2024-11-14_08h57.52.799,Tarea de género gramatical,2024.2.2,Win32,59.88023952,,,,,,,,,,,,,,,,,,,,,,,387.3734,388.3891,a,1,0.3385,,[],[],[],[],[],[],[],0.3385,1,388.3893,388.8892,,,,,,676,MAS,CON,150,color,,l,388.8893,388.8895,0.887962963,0.5,0,0,0,,0,85,85,225,1,,,,
,,,,,,20a750f81f089a9c315833ff,66a626ef09d4e21e1a8894ec,67360fd442621318065f2f4d,2024-11-14_08h57.52.799,Tarea de género gramatical,2024.2.2,Win32,59.88023952,,,,,,,,,,,,,,,,,,,,,,,388.8903,389.9894,l,1,0.4072,,[],[],[],[],[],[],[],0.4072,1,389.9894,390.4931,,,,,,711,FEM,AGR,150,cueva,la,a,390.4932,390.4933,0.887962963,0.5,0,0,0,,0,86,86,260,1,,,,
,,,,,,20a750f81f089a9c315833ff,66a626ef09d4e21e1a8894ec,67360fd442621318065f2f4d,2024-11-14_08h57.52.799,Tarea de género gramatical,2024.2.2,Win32,59.88023952,,,,,,,,,,,,,,,,,,,,,,,390.494,391.5561,a,1,0.375,,[],[],[],[],[],[],[],0.375,1,391.5562,392.0559,,,,,,838,MAS,CON,150,empleo,,l,392.057,392.0578,0.887962963,0.5,0,0,0,,0,87,87,387,1,,,,
,,,,,,20a750f81f089a9c315833ff,66a626ef09d4e21e1a8894ec,67360fd442621318065f2f4d,2024-11-14_08h57.52.799,Tarea de género gramatical,2024.2.2,Win32,59.88023952,,,,,,,,,,,,,,,,,,,,,,,392.0593,393.1928,l,1,0.4658,,[],[],[],[],[],[],[],0.4658,1,393.1929,393.6892,,,,,,483,FEM,AGR,150,boda,la,a,393.6893,393.6894,0.887962963,0.5,0,0,0,,0,88,88,32,1,,,,
,,,,,,20a750f81f089a9c315833ff,66a626ef09d4e21e1a8894ec,67360fd442621318065f2f4d,2024-11-14_08h57.52.799,Tarea de género gramatical,2024.2.2,Win32,59.88023952,,,,,,,,,,,,,,,,,,,,,,,393.6902,394.7427,l,0,0.3817,,[],[],[],[],[],[],[],0.3817,0,394.7433,395.2391,,,,,,671,MAS,DIS,150,brazo,la,l,395.2391,395.2392,0.887962963,0.5,0,0,0,,0,89,89,220,1,,,,
,,,,,,20a750f81f089a9c315833ff,66a626ef09d4e21e1a8894ec,67360fd442621318065f2f4d,2024-11-14_08h57.52.799,Tarea de género gramatical,2024.2.2,Win32,59.88023952,,,,,,,,,,,,,,,,,,,,,,,395.2399,396.5763,a,1,0.6813,,[],[],[],[],[],[],[],0.6813,1,396.5769,397.0759,,,,,,755,MAS,DIS,150,hombre,la,l,397.0759,397.076,0.887962963,0.5,0,0,0,,0,90,90,304,1,,,,
,,,,,,20a750f81f089a9c315833ff,66a626ef09d4e21e1a8894ec,67360fd442621318065f2f4d,2024-11-14_08h57.52.799,Tarea de género gramatical,2024.2.2,Win32,59.88023952,,,,,,,,,,,,,,,,,,,,,,,397.0768,398.1429,a,1,0.401,,[],[],[],[],[],[],[],0.401,1,398.1429,398.6392,,,,,,875,MAS,DIS,150,chiste,la,l,398.6392,398.6392,0.887962963,0.5,0,0,0,,0,91,91,424,1,,,,
,,,,,,20a750f81f089a9c315833ff,66a626ef09d4e21e1a8894ec,67360fd442621318065f2f4d,2024-11-14_08h57.52.799,Tarea de género gramatical,2024.2.2,Win32,59.88023952,,,,,,,,,,,,,,,,,,,,,,,398.6401,399.7098,l,1,0.4009,,[],[],[],[],[],[],[],0.4009,1,399.7098,400.2093,,,,,,885,FEM,AGR,150,niebla,la,a,400.2103,400.2109,0.887962963,0.5,0,0,0,,0,92,92,434,1,,,,
,,,,,,20a750f81f089a9c315833ff,66a626ef09d4e21e1a8894ec,67360fd442621318065f2f4d,2024-11-14_08h57.52.799,Tarea de género gramatical,2024.2.2,Win32,59.88023952,,,,,,,,,,,,,,,,,,,,,,,400.2116,401.3594,l,1,0.4669,,[],[],[],[],[],[],[],0.4669,1,401.3594,401.8561,,,,,,639,FEM,AGR,150,pista,la,a,401.8562,401.8563,0.887962963,0.5,0,0,0,,0,93,93,188,1,,,,
,,,,,,20a750f81f089a9c315833ff,66a626ef09d4e21e1a8894ec,67360fd442621318065f2f4d,2024-11-14_08h57.52.799,Tarea de género gramatical,2024.2.2,Win32,59.88023952,,,,,,,,,,,,,,,,,,,,,,,401.8575,402.9264,l,1,0.3985,,[],[],[],[],[],[],[],0.3985,1,402.9266,403.4263,,,,,,704,FEM,DIS,150,caída,el,a,403.4263,403.4264,0.887962963,0.5,0,0,0,,0,94,94,253,1,,,,
,,,,,,20a750f81f089a9c315833ff,66a626ef09d4e21e1a8894ec,67360fd442621318065f2f4d,2024-11-14_08h57.52.799,Tarea de género gramatical,2024.2.2,Win32,59.88023952,,,,,,,,,,,,,,,,,,,,,,,403.4271,404.4391,l,1,0.3436,,[],[],[],[],[],[],[],0.3436,1,404.4391,404.9393,,,,,,637,FEM,CON,150,lista,,a,404.9393,404.9394,0.887962963,0.5,0,0,0,,0,95,95,186,1,,,,
,,,,,,20a750f81f089a9c315833ff,66a626ef09d4e21e1a8894ec,67360fd442621318065f2f4d,2024-11-14_08h57.52.799,Tarea de género gramatical,2024.2.2,Win32,59.88023952,,,,,,,,,,,,,,,,,,,,,,,404.9403,406.3598,l,1,0.7657,,[],[],[],[],[],[],[],0.7657,1,406.3598,406.8592,,,,,,565,FEM,CON,150,seda,,a,406.8602,406.8609,0.887962963,0.5,0,0,0,,0,96,96,114,1,,,,
,,,,,,20a750f81f089a9c315833ff,66a626ef09d4e21e1a8894ec,67360fd442621318065f2f4d,2024-11-14_08h57.52.799,Tarea de género gramatical,2024.2.2,Win32,59.88023952,,,,,,,,,,,,,,,,,,,,,,,406.8615,407.8892,a,1,0.3444,,[],[],[],[],[],[],[],0.3444,1,407.8893,408.3929,,,,,,557,MAS,DIS,150,cubo,la,l,408.393,408.393,0.887962963,0.5,0,0,0,,0,97,97,106,1,,,,
,,,,,,20a750f81f089a9c315833ff,66a626ef09d4e21e1a8894ec,67360fd442621318065f2f4d,2024-11-14_08h57.52.799,Tarea de género gramatical,2024.2.2,Win32,59.88023952,,,,,,,,,,,,,,,,,,,,,,,408.3938,409.5432,l,1,0.4823,,[],[],[],[],[],[],[],0.4823,1,409.5433,410.0433,,,,,,524,FEM,DIS,150,flor,el,a,410.0433,410.0433,0.887962963,0.5,0,0,0,,0,98,98,73,1,,,,
,,,,,,20a750f81f089a9c315833ff,66a626ef09d4e21e1a8894ec,67360fd442621318065f2f4d,2024-11-14_08h57.52.799,Tarea de género gramatical,2024.2.2,Win32,59.88023952,,,,,,,,,,,,,,,,,,,,,,,410.0441,411.043,l,1,0.3313,,[],[],[],[],[],[],[],0.3313,1,411.0431,411.5427,,,,,,451,FEM,CON,150,casa,,a,411.5428,411.5428,0.887962963,0.5,0,0,0,,0,99,99,0,1,,,,
,,,,,,20a750f81f089a9c315833ff,66a626ef09d4e21e1a8894ec,67360fd442621318065f2f4d,2024-11-14_08h57.52.799,Tarea de género gramatical,2024.2.2,Win32,59.88023952,,,,,,,,,,,,,,,,,,,,,,,411.5435,412.5727,a,1,0.3581,,[],[],[],[],[],[],[],0.3581,1,412.5728,413.0756,,,,,,868,MAS,CON,150,pájaro,,l,413.0756,413.0756,0.887962963,0.5,0,0,0,,0,100,100,417,1,,,,
,,,,,,20a750f81f089a9c315833ff,66a626ef09d4e21e1a8894ec,67360fd442621318065f2f4d,2024-11-14_08h57.52.799,Tarea de género gramatical,2024.2.2,Win32,59.88023952,,,,,,,,,,,,,,,,,,,,,,,413.0762,414.293,a,0,0.5505,,[],[],[],[],[],[],[],0.5505,0,414.2936,414.7894,,,,,,499,FEM,CON,150,piel,,a,414.7907,414.7913,0.887962963,0.5,0,0,0,,0,101,101,48,1,,,,
,,,,,,20a750f81f089a9c315833ff,66a626ef09d4e21e1a8894ec,67360fd442621318065f2f4d,2024-11-14_08h57.52.799,Tarea de género gramatical,2024.2.2,Win32,59.88023952,,,,,,,,,,,,,,,,,,,,,,,414.7919,416.0263,l,1,0.5674,,[],[],[],[],[],[],[],0.5674,1,416.0269,416.5227,,,,,,830,FEM,DIS,150,madera,el,a,416.5227,416.5228,0.887962963,0.5,0,0,0,,0,102,102,379,1,,,,
,,,,,,20a750f81f089a9c315833ff,66a626ef09d4e21e1a8894ec,67360fd442621318065f2f4d,2024-11-14_08h57.52.799,Tarea de género gramatical,2024.2.2,Win32,59.88023952,,,,,,,,,,,,,,,,,,,,,,,416.5236,417.5431,a,1,0.365,,[],[],[],[],[],[],[],0.365,1,417.5433,418.0426,,,,,,472,MAS,CON,150,pelo,,l,418.0426,418.0427,0.887962963,0.5,0,0,0,,0,103,103,21,1,,,,
,,,,,,20a750f81f089a9c315833ff,66a626ef09d4e21e1a8894ec,67360fd442621318065f2f4d,2024-11-14_08h57.52.799,Tarea de género gramatical,2024.2.2,Win32,59.88023952,,,,,,,,,,,,,,,,,,,,,,,418.0434,419.1432,l,1,0.4342,,[],[],[],[],[],[],[],0.4342,1,419.1433,419.6392,,,,,,835,FEM,CON,150,muñeca,,a,419.6393,419.6393,0.887962963,0.5,0,0,0,,0,104,104,384,1,,,,
,,,,,,20a750f81f089a9c315833ff,66a626ef09d4e21e1a8894ec,67360fd442621318065f2f4d,2024-11-14_08h57.52.799,Tarea de género gramatical,2024.2.2,Win32,59.88023952,,,,,,,,,,,,,,,,,,,,,,,419.6402,420.7267,a,1,0.4025,,[],[],[],[],[],[],[],0.4025,1,420.7267,421.2229,,,,,,654,MAS,AGR,150,papel,el,l,421.2241,421.2246,0.887962963,0.5,0,0,0,,0,105,105,203,1,,,,
,,,,,,20a750f81f089a9c315833ff,66a626ef09d4e21e1a8894ec,67360fd442621318065f2f4d,2024-11-14_08h57.52.799,Tarea de género gramatical,2024.2.2,Win32,59.88023952,,,,,,,,,,,,,,,,,,,,,,,421.2252,422.2394,a,0,0.3212,,[],[],[],[],[],[],[],0.3212,0,422.2403,422.7393,,,,,,771,FEM,AGR,150,comida,la,a,422.7394,422.7395,0.887962963,0.5,0,0,0,,0,106,106,320,1,,,,
,,,,,,20a750f81f089a9c315833ff,66a626ef09d4e21e1a8894ec,67360fd442621318065f2f4d,2024-11-14_08h57.52.799,Tarea de género gramatical,2024.2.2,Win32,59.88023952,,,,,,,,,,,,,,,,,,,,,,,422.7403,423.993,a,0,0.5812,,[],[],[],[],[],[],[],0.5812,0,423.9931,424.4892,,,,,,800,FEM,DIS,150,imagen,el,a,424.4893,424.4893,0.887962963,0.5,0,0,0,,0,107,107,349,1,,,,
,,,,,,20a750f81f089a9c315833ff,66a626ef09d4e21e1a8894ec,67360fd442621318065f2f4d,2024-11-14_08h57.52.799,Tarea de género gramatical,2024.2.2,Win32,59.88023952,,,,,,,,,,,,,,,,,,,,,,,424.49,425.5561,l,1,0.3895,,[],[],[],[],[],[],[],0.3895,1,425.557,426.0563,,,,,,482,FEM,DIS,150,caja,el,a,426.0563,426.0564,0.887962963,0.5,0,0,0,,0,108,108,31,1,,,,
,,,,,,20a750f81f089a9c315833ff,66a626ef09d4e21e1a8894ec,67360fd442621318065f2f4d,2024-11-14_08h57.52.799,Tarea de género gramatical,2024.2.2,Win32,59.88023952,,,,,,,,,,,,,,,,,,,,,,,426.0574,427.056,a,1,0.343,,[],[],[],[],[],[],[],0.343,1,427.056,427.5562,,,,,,899,MAS,DIS,150,payaso,la,l,427.5562,427.5563,0.887962963,0.5,0,0,0,,0,109,109,448,1,,,,
,,,,,,20a750f81f089a9c315833ff,66a626ef09d4e21e1a8894ec,67360fd442621318065f2f4d,2024-11-14_08h57.52.799,Tarea de género gramatical,2024.2.2,Win32,59.88023952,,,,,,,,,,,,,,,,,,,,,,,427.557,428.5728,a,0,0.3558,,[],[],[],[],[],[],[],0.3558,0,428.5734,429.0764,,,,,,775,FEM,CON,150,tierra,,a,429.0773,429.0779,0.887962963,0.5,0,0,0,,0,110,110,324,1,,,,
,,,,,,20a750f81f089a9c315833ff,66a626ef09d4e21e1a8894ec,67360fd442621318065f2f4d,2024-11-14_08h57.52.799,Tarea de género gramatical,2024.2.2,Win32,59.88023952,,,,,,,,,,,,,,,,,,,,,,,429.0784,430.3229,a,1,0.5741,,[],[],[],[],[],[],[],0.5741,1,430.3236,430.823,,,,,,839,MAS,DIS,150,tamaño,la,l,430.823,430.8232,0.887962963,0.5,0,0,0,,0,111,111,388,1,,,,
,,,,,,20a750f81f089a9c315833ff,66a626ef09d4e21e1a8894ec,67360fd442621318065f2f4d,2024-11-14_08h57.52.799,Tarea de género gramatical,2024.2.2,Win32,59.88023952,,,,,,,,,,,,,,,,,,,,,,,430.824,431.8231,l,1,0.3281,,[],[],[],[],[],[],[],0.3281,1,431.8231,432.3266,,,,,,675,FEM,AGR,150,pieza,la,a,432.3266,432.3267,0.887962963,0.5,0,0,0,,0,112,112,224,1,,,,
,,,,,,20a750f81f089a9c315833ff,66a626ef09d4e21e1a8894ec,67360fd442621318065f2f4d,2024-11-14_08h57.52.799,Tarea de género gramatical,2024.2.2,Win32,59.88023952,,,,,,,,,,,,,,,,,,,,,,,432.3275,433.5431,a,1,0.5479,,[],[],[],[],[],[],[],0.5479,1,433.5432,434.0394,,,,,,744,MAS,AGR,150,cable,el,l,434.0396,434.0396,0.887962963,0.5,0,0,0,,0,113,113,293,1,,,,
,,,,,,20a750f81f089a9c315833ff,66a626ef09d4e21e1a8894ec,67360fd442621318065f2f4d,2024-11-14_08h57.52.799,Tarea de género gramatical,2024.2.2,Win32,59.88023952,,,,,,,,,,,,,,,,,,,,,,,434.0403,435.1061,a,1,0.408,,[],[],[],[],[],[],[],0.408,1,435.1061,435.6063,,,,,,486,MAS,AGR,150,dedo,el,l,435.6073,435.6079,0.887962963,0.5,0,0,0,,0,114,114,35,1,,,,
,,,,,,20a750f81f089a9c315833ff,66a626ef09d4e21e1a8894ec,67360fd442621318065f2f4d,2024-11-14_08h57.52.799,Tarea de género gramatical,2024.2.2,Win32,59.88023952,,,,,,,,,,,,,,,,,,,,,,,435.6085,436.7598,l,0,0.4815,,[],[],[],[],[],[],[],0.4815,0,436.7603,437.2561,,,,,,791,MAS,DIS,150,precio,la,l,437.2562,437.2562,0.887962963,0.5,0,0,0,,0,115,115,340,1,,,,
,,,,,,20a750f81f089a9c315833ff,66a626ef09d4e21e1a8894ec,67360fd442621318065f2f4d,2024-11-14_08h57.52.799,Tarea de género gramatical,2024.2.2,Win32,59.88023952,,,,,,,,,,,,,,,,,,,,,,,437.257,438.177,a,1,0.2483,,[],[],[],[],[],[],[],0.2483,1,438.1777,438.6729,,,,,,678,MAS,AGR,150,nivel,el,l,438.6729,438.6729,0.887962963,0.5,0,0,0,,0,116,116,227,1,,,,
,,,,,,20a750f81f089a9c315833ff,66a626ef09d4e21e1a8894ec,67360fd442621318065f2f4d,2024-11-14_08h57.52.799,Tarea de género gramatical,2024.2.2,Win32,59.88023952,,,,,,,,,,,,,,,,,,,,,,,438.6739,439.9097,a,1,0.567,,[],[],[],[],[],[],[],0.567,1,439.9098,440.4099,,,,,,881,MAS,DIS,150,veneno,la,l,440.41,440.41,0.887962963,0.5,0,0,0,,0,117,117,430,1,,,,
,,,,,,20a750f81f089a9c315833ff,66a626ef09d4e21e1a8894ec,67360fd442621318065f2f4d,2024-11-14_08h57.52.799,Tarea de género gramatical,2024.2.2,Win32,59.88023952,,,,,,,,,,,,,,,,,,,,,,,440.4109,441.4432,a,1,0.3504,,[],[],[],[],[],[],[],0.3504,1,441.4432,441.9396,,,,,,760,MAS,CON,150,nombre,,l,441.9396,441.9397,0.887962963,0.5,0,0,0,,0,118,118,309,1,,,,
,,,,,,20a750f81f089a9c315833ff,66a626ef09d4e21e1a8894ec,67360fd442621318065f2f4d,2024-11-14_08h57.52.799,Tarea de género gramatical,2024.2.2,Win32,59.88023952,,,,,,,,,,,,,,,,,,,,,,,441.9407,442.9102,a,1,0.2981,,[],[],[],[],[],[],[],0.2981,1,442.9102,443.4065,,,,,,540,MAS,AGR,150,león,el,l,443.4076,443.4082,0.887962963,0.5,0,0,0,,0,119,119,89,1,,,,
,,,,,,20a750f81f089a9c315833ff,66a626ef09d4e21e1a8894ec,67360fd442621318065f2f4d,2024-11-14_08h57.52.799,Tarea de género gramatical,2024.2.2,Win32,59.88023952,,,,,,,,,,,,,,,,,,,,,,,443.4088,444.373,l,0,0.3056,,[],[],[],[],[],[],[],0.3056,0,444.3737,444.8731,,,,,,528,MAS,AGR,150,oído,el,l,444.8732,444.8732,0.887962963,0.5,0,0,0,,0,120,120,77,1,,,,
,,,,,,20a750f81f089a9c315833ff,66a626ef09d4e21e1a8894ec,67360fd442621318065f2f4d,2024-11-14_08h57.52.799,Tarea de género gramatical,2024.2.2,Win32,59.88023952,,,,,,,,,,,,,,,,,,,,,,,444.874,446.1062,a,1,0.5604,,[],[],[],[],[],[],[],0.5604,1,446.1069,446.6097,,,,,,467,MAS,DIS,150,modo,la,l,446.6098,446.6098,0.887962963,0.5,0,0,0,,0,121,121,16,1,,,,
,,,,,,20a750f81f089a9c315833ff,66a626ef09d4e21e1a8894ec,67360fd442621318065f2f4d,2024-11-14_08h57.52.799,Tarea de género gramatical,2024.2.2,Win32,59.88023952,,,,,,,,,,,,,,,,,,,,,,,446.6105,447.6728,a,1,0.3871,,[],[],[],[],[],[],[],0.3871,1,447.673,448.1731,,,,,,844,MAS,CON,150,examen,,l,448.1731,448.1732,0.887962963,0.5,0,0,0,,0,122,122,393,1,,,,
,,,,,,20a750f81f089a9c315833ff,66a626ef09d4e21e1a8894ec,67360fd442621318065f2f4d,2024-11-14_08h57.52.799,Tarea de género gramatical,2024.2.2,Win32,59.88023952,,,,,,,,,,,,,,,,,,,,,,,448.1741,449.1563,l,1,0.298,,[],[],[],[],[],[],[],0.298,1,449.1563,449.6563,,,,,,823,FEM,CON,150,lluvia,,a,449.6574,449.6579,0.887962963,0.5,0,0,0,,0,123,123,372,1,,,,
,,,,,,20a750f81f089a9c315833ff,66a626ef09d4e21e1a8894ec,67360fd442621318065f2f4d,2024-11-14_08h57.52.799,Tarea de género gramatical,2024.2.2,Win32,59.88023952,,,,,,,,,,,,,,,,,,,,,,,449.6584,450.6435,l,1,0.3006,,[],[],[],[],[],[],[],0.3006,1,450.6436,451.1396,,,,,,770,FEM,DIS,150,fiesta,el,a,451.1397,451.1398,0.887962963,0.5,0,0,0,,0,124,124,319,1,,,,
,,,,,,20a750f81f089a9c315833ff,66a626ef09d4e21e1a8894ec,67360fd442621318065f2f4d,2024-11-14_08h57.52.799,Tarea de género gramatical,2024.2.2,Win32,59.88023952,,,,,,,,,,,,,,,,,,,,,,,451.1407,452.0563,a,1,0.2381,,[],[],[],[],[],[],[],0.2381,1,452.0565,452.5562,,,,,,730,MAS,CON,150,salón,,l,452.5563,452.5563,0.887962963,0.5,0,0,0,,0,125,125,279,1,,,,
,,,,,,20a750f81f089a9c315833ff,66a626ef09d4e21e1a8894ec,67360fd442621318065f2f4d,2024-11-14_08h57.52.799,Tarea de género gramatical,2024.2.2,Win32,59.88023952,,,,,,,,,,,,,,,,,,,,,,,452.5575,453.5766,a,1,0.3648,,[],[],[],[],[],[],[],0.3648,1,453.5766,454.0731,,,,,,635,MAS,DIS,150,sueño,la,l,454.0731,454.0732,0.887962963,0.5,0,0,0,,0,126,126,184,1,,,,
,,,,,,20a750f81f089a9c315833ff,66a626ef09d4e21e1a8894ec,67360fd442621318065f2f4d,2024-11-14_08h57.52.799,Tarea de género gramatical,2024.2.2,Win32,59.88023952,,,,,,,,,,,,,,,,,,,,,,,454.074,454.9398,a,1,0.1858,,[],[],[],[],[],[],[],0.1858,1,454.9398,455.4397,,,,,,786,MAS,AGR,150,crimen,el,l,455.4397,455.4399,0.887962963,0.5,0,0,0,,0,127,127,335,1,,,,
,,,,,,20a750f81f089a9c315833ff,66a626ef09d4e21e1a8894ec,67360fd442621318065f2f4d,2024-11-14_08h57.52.799,Tarea de género gramatical,2024.2.2,Win32,59.88023952,,,,,,,,,,,,,,,,,,,,,,,455.4405,456.7767,l,1,0.6671,,[],[],[],[],[],[],[],0.6671,1,456.7768,457.2763,,,,,,529,FEM,CON,150,mina,,a,457.2772,457.2779,0.887962963,0.5,0,0,0,,0,128,128,78,1,,,,
,,,,,,20a750f81f089a9c315833ff,66a626ef09d4e21e1a8894ec,67360fd442621318065f2f4d,2024-11-14_08h57.52.799,Tarea de género gramatical,2024.2.2,Win32,59.88023952,,,,,,,,,,,,,,,,,,,,,,,457.2785,458.2766,l,1,0.3315,,[],[],[],[],[],[],[],0.3315,1,458.2766,458.7765,,,,,,471,FEM,AGR,150,boca,la,a,458.7765,458.7766,0.887962963,0.5,0,0,0,,0,129,129,20,1,,,,
,,,,,,20a750f81f089a9c315833ff,66a626ef09d4e21e1a8894ec,67360fd442621318065f2f4d,2024-11-14_08h57.52.799,Tarea de género gramatical,2024.2.2,Win32,59.88023952,,,,,,,,,,,,,,,,,,,,,,,458.7773,459.7432,a,1,0.2983,,[],[],[],[],[],[],[],0.2983,1,459.7434,460.2396,,,,,,659,MAS,DIS,150,banco,la,l,460.2397,460.2397,0.887962963,0.5,0,0,0,,0,130,130,208,1,,,,
,,,,,,20a750f81f089a9c315833ff,66a626ef09d4e21e1a8894ec,67360fd442621318065f2f4d,2024-11-14_08h57.52.799,Tarea de género gramatical,2024.2.2,Win32,59.88023952,,,,,,,,,,,,,,,,,,,,,,,460.2404,461.2933,a,1,0.384,,[],[],[],[],[],[],[],0.384,1,461.2934,461.7896,,,,,,696,MAS,AGR,150,humor,el,l,461.7896,461.7897,0.887962963,0.5,0,0,0,,0,131,131,245,1,,,,
,,,,,,20a750f81f089a9c315833ff,66a626ef09d4e21e1a8894ec,67360fd442621318065f2f4d,2024-11-14_08h57.52.799,Tarea de género gramatical,2024.2.2,Win32,59.88023952,,,,,,,,,,,,,,,,,,,,,,,461.7905,462.8272,a,1,0.365,,[],[],[],[],[],[],[],0.365,1,462.8272,463.3265,,,,,,840,MAS,AGR,150,rostro,el,l,463.3274,463.328,0.887962963,0.5,0,0,0,,0,132,132,389,1,,,,
,,,,,,20a750f81f089a9c315833ff,66a626ef09d4e21e1a8894ec,67360fd442621318065f2f4d,2024-11-14_08h57.52.799,Tarea de género gramatical,2024.2.2,Win32,59.88023952,,,,,,,,,,,,,,,,,,,,,,,463.3285,464.2562,l,1,0.2628,,[],[],[],[],[],[],[],0.2628,1,464.2563,464.7565,,,,,,709,FEM,CON,150,prima,,a,464.7566,464.7566,0.887962963,0.5,0,0,0,,0,133,133,258,1,,,,
,,,,,,20a750f81f089a9c315833ff,66a626ef09d4e21e1a8894ec,67360fd442621318065f2f4d,2024-11-14_08h57.52.799,Tarea de género gramatical,2024.2.2,Win32,59.88023952,,,,,,,,,,,,,,,,,,,,,,,464.7575,465.7231,a,1,0.2988,,[],[],[],[],[],[],[],0.2988,1,465.7232,466.2264,,,,,,526,MAS,CON,150,lujo,,l,466.2264,466.2265,0.887962963,0.5,0,0,0,,0,134,134,75,1,,,,
,,,,,,20a750f81f089a9c315833ff,66a626ef09d4e21e1a8894ec,67360fd442621318065f2f4d,2024-11-14_08h57.52.799,Tarea de género gramatical,2024.2.2,Win32,59.88023952,,,,,,,,,,,,,,,,,,,,,,,466.2273,467.1934,a,1,0.2835,,[],[],[],[],[],[],[],0.2835,1,467.1935,467.6931,,,,,,774,MAS,AGR,150,cuarto,el,l,467.6932,467.6932,0.887962963,0.5,0,0,0,,0,135,135,323,1,,,,
,,,,,,20a750f81f089a9c315833ff,66a626ef09d4e21e1a8894ec,67360fd442621318065f2f4d,2024-11-14_08h57.52.799,Tarea de género gramatical,2024.2.2,Win32,59.88023952,,,,,,,,,,,,,,,,,,,,,,,467.694,468.6397,l,1,0.2689,,[],[],[],[],[],[],[],0.2689,1,468.6398,469.1397,,,,,,825,FEM,AGR,150,cadena,la,a,469.1398,469.1399,0.887962963,0.5,0,0,0,,0,136,136,374,1,,,,
,,,,,,20a750f81f089a9c315833ff,66a626ef09d4e21e1a8894ec,67360fd442621318065f2f4d,2024-11-14_08h57.52.799,Tarea de género gramatical,2024.2.2,Win32,59.88023952,,,,,,,,,,,,,,,,,,,,,,,469.1412,470.0437,a,1,0.2487,,[],[],[],[],[],[],[],0.2487,1,470.0438,470.5432,,,,,,568,MAS,CON,150,baúl,,l,470.5441,470.5447,0.887962963,0.5,0,0,0,,0,137,137,117,1,,,,
,,,,,,20a750f81f089a9c315833ff,66a626ef09d4e21e1a8894ec,67360fd442621318065f2f4d,2024-11-14_08h57.52.799,Tarea de género gramatical,2024.2.2,Win32,59.88023952,,,,,,,,,,,,,,,,,,,,,,,470.5453,471.6083,l,1,0.3821,,[],[],[],[],[],[],[],0.3821,1,471.6084,472.1065,,,,,,735,FEM,AGR,150,mafia,la,a,472.1065,472.1065,0.887962963,0.5,0,0,0,,0,138,138,284,1,,,,
,,,,,,20a750f81f089a9c315833ff,66a626ef09d4e21e1a8894ec,67360fd442621318065f2f4d,2024-11-14_08h57.52.799,Tarea de género gramatical,2024.2.2,Win32,59.88023952,,,,,,,,,,,,,,,,,,,,,,,472.1076,473.0267,a,0,0.2482,,[],[],[],[],[],[],[],0.2482,0,473.0273,473.5268,,,,,,723,FEM,AGR,150,tarta,la,a,473.5268,473.527,0.887962963,0.5,0,0,0,,0,139,139,272,1,,,,
,,,,,,20a750f81f089a9c315833ff,66a626ef09d4e21e1a8894ec,67360fd442621318065f2f4d,2024-11-14_08h57.52.799,Tarea de género gramatical,2024.2.2,Win32,59.88023952,,,,,,,,,,,,,,,,,,,,,,,473.5277,474.4435,a,1,0.2488,,[],[],[],[],[],[],[],0.2488,1,474.4441,474.9431,,,,,,527,MAS,DIS,150,pico,la,l,474.9431,474.9431,0.887962963,0.5,0,0,0,,0,140,140,76,1,,,,
,,,,,,20a750f81f089a9c315833ff,66a626ef09d4e21e1a8894ec,67360fd442621318065f2f4d,2024-11-14_08h57.52.799,Tarea de género gramatical,2024.2.2,Win32,59.88023952,,,,,,,,,,,,,,,,,,,,,,,474.9439,475.8934,a,0,0.2677,,[],[],[],[],[],[],[],0.2677,0,475.8939,476.3897,,,,,,601,FEM,CON,150,noche,,a,476.3907,476.3913,0.887962963,0.5,0,0,0,,0,141,141,150,1,,,,
,,,,,,20a750f81f089a9c315833ff,66a626ef09d4e21e1a8894ec,67360fd442621318065f2f4d,2024-11-14_08h57.52.799,Tarea de género gramatical,2024.2.2,Win32,59.88023952,,,,,,,,,,,,,,,,,,,,,,,476.3918,477.5396,l,1,0.4728,,[],[],[],[],[],[],[],0.4728,1,477.5402,478.0432,,,,,,631,FEM,CON,150,tarde,,a,478.0433,478.0433,0.887962963,0.5,0,0,0,,0,142,142,180,1,,,,
,,,,,,20a750f81f089a9c315833ff,66a626ef09d4e21e1a8894ec,67360fd442621318065f2f4d,2024-11-14_08h57.52.799,Tarea de género gramatical,2024.2.2,Win32,59.88023952,,,,,,,,,,,,,,,,,,,,,,,478.0441,479.0898,a,1,0.3674,,[],[],[],[],[],[],[],0.3674,1,479.0899,479.5898,,,,,,810,MAS,AGR,150,puente,el,l,479.5899,479.59,0.887962963,0.5,0,0,0,,0,143,143,359,1,,,,
,,,,,,20a750f81f089a9c315833ff,66a626ef09d4e21e1a8894ec,67360fd442621318065f2f4d,2024-11-14_08h57.52.799,Tarea de género gramatical,2024.2.2,Win32,59.88023952,,,,,,,,,,,,,,,,,,,,,,,479.5908,480.5769,l,1,0.3005,,[],[],[],[],[],[],[],0.3005,1,480.577,481.0766,,,,,,669,FEM,AGR,150,costa,la,a,481.0766,481.0766,0.887962963,0.5,0,0,0,,0,144,144,218,1,,,,
,,,,,,20a750f81f089a9c315833ff,66a626ef09d4e21e1a8894ec,67360fd442621318065f2f4d,2024-11-14_08h57.52.799,Tarea de género gramatical,2024.2.2,Win32,59.88023952,,,,,,,,,,,,,,,,,,,,,,,481.0774,481.9934,a,0,0.2479,,[],[],[],[],[],[],[],0.2479,0,481.9939,482.4897,,,,,,691,FEM,CON,150,pasta,,a,482.4897,482.4898,0.887962963,0.5,0,0,0,,0,145,145,240,1,,,,
,,,,,,20a750f81f089a9c315833ff,66a626ef09d4e21e1a8894ec,67360fd442621318065f2f4d,2024-11-14_08h57.52.799,Tarea de género gramatical,2024.2.2,Win32,59.88023952,,,,,,,,,,,,,,,,,,,,,,,482.4906,483.5605,a,1,0.4155,,[],[],[],[],[],[],[],0.4155,1,483.5611,484.0602,,,,,,684,MAS,AGR,150,héroe,el,l,484.0609,484.0616,0.887962963,0.5,0,0,0,,0,146,146,233,1,,,,
,,,,,,20a750f81f089a9c315833ff,66a626ef09d4e21e1a8894ec,67360fd442621318065f2f4d,2024-11-14_08h57.52.799,Tarea de género gramatical,2024.2.2,Win32,59.88023952,,,,,,,,,,,,,,,,,,,,,,,484.0622,485.0601,a,1,0.3171,,[],[],[],[],[],[],[],0.3171,1,485.0602,485.5564,,,,,,828,MAS,AGR,150,pastel,el,l,485.5564,485.5565,0.887962963,0.5,0,0,0,,0,147,147,377,1,,,,
,,,,,,20a750f81f089a9c315833ff,66a626ef09d4e21e1a8894ec,67360fd442621318065f2f4d,2024-11-14_08h57.52.799,Tarea de género gramatical,2024.2.2,Win32,59.88023952,,,,,,,,,,,,,,,,,,,,,,,485.5572,486.5398,l,0,0.3244,,[],[],[],[],[],[],[],0.3244,0,486.5404,487.0399,,,,,,792,MAS,AGR,150,abuelo,el,l,487.04,487.04,0.887962963,0.5,0,0,0,,0,148,148,341,1,,,,
,,,,,,20a750f81f089a9c315833ff,66a626ef09d4e21e1a8894ec,67360fd442621318065f2f4d,2024-11-14_08h57.52.799,Tarea de género gramatical,2024.2.2,Win32,59.88023952,,,,,,,,,,,,,,,,,,,,,,,487.0408,488.2067,a,0,0.4875,,[],[],[],[],[],[],[],0.4875,0,488.2068,488.7098,,,,,,842,FEM,DIS,150,maleta,el,a,488.7099,488.7099,0.887962963,0.5,0,0,0,,0,149,149,391,1,,,,
,,,,,,20a750f81f089a9c315833ff,66a626ef09d4e21e1a8894ec,67360fd442621318065f2f4d,2024-11-14_08h57.52.799,Tarea de género gramatical,2024.2.2,Win32,59.88023952,,,,,,,,,,,,,,,,,,,,,,,488.7106,489.8899,l,1,0.5004,,[],[],[],[],[],[],[],0.5004,1,489.8905,490.3774,,,,,,585,FEM,AGR,150,raíz,la,a,490.3782,524.6739,0.887962963,0.5,0,0,0,space,0,150,150,134,1,34.27,,,
,,,,,,20a750f81f089a9c315833ff,66a626ef09d4e21e1a8894ec,67360fd442621318065f2f4d,2024-11-14_08h57.52.799,Tarea de género gramatical,2024.2.2,Win32,59.88023952,,,,,,,,,,,,,,,,,,,,,,,524.6748,525.8108,a,0,0.4672,,[],[],[],[],[],[],[],0.4672,0,525.8113,526.307,,,,,,739,FEM,CON,150,tabla,,a,526.307,526.3072,0.887962963,0.5,0,0,0,,0,151,151,288,1,,,,
,,,,,,20a750f81f089a9c315833ff,66a626ef09d4e21e1a8894ec,67360fd442621318065f2f4d,2024-11-14_08h57.52.799,Tarea de género gramatical,2024.2.2,Win32,59.88023952,,,,,,,,,,,,,,,,,,,,,,,526.3079,527.7606,l,1,0.7854,,[],[],[],[],[],[],[],0.7854,1,527.7611,528.2603,,,,,,488,FEM,DIS,150,obra,el,a,528.2603,528.2603,0.887962963,0.5,0,0,0,,0,152,152,37,1,,,,
,,,,,,20a750f81f089a9c315833ff,66a626ef09d4e21e1a8894ec,67360fd442621318065f2f4d,2024-11-14_08h57.52.799,Tarea de género gramatical,2024.2.2,Win32,59.88023952,,,,,,,,,,,,,,,,,,,,,,,528.2612,529.2091,l,1,0.2657,,[],[],[],[],[],[],[],0.2657,1,529.2092,529.7106,,,,,,608,FEM,DIS,150,chica,el,a,529.7106,529.7106,0.887962963,0.5,0,0,0,,0,153,153,157,1,,,,
,,,,,,20a750f81f089a9c315833ff,66a626ef09d4e21e1a8894ec,67360fd442621318065f2f4d,2024-11-14_08h57.52.799,Tarea de género gramatical,2024.2.2,Win32,59.88023952,,,,,,,,,,,,,,,,,,,,,,,529.7114,530.6275,a,0,0.2486,,[],[],[],[],[],[],[],0.2486,0,530.6281,531.1237,,,,,,651,FEM,AGR,150,leche,la,a,531.1237,531.1238,0.887962963,0.5,0,0,0,,0,154,154,200,1,,,,
,,,,,,20a750f81f089a9c315833ff,66a626ef09d4e21e1a8894ec,67360fd442621318065f2f4d,2024-11-14_08h57.52.799,Tarea de género gramatical,2024.2.2,Win32,59.88023952,,,,,,,,,,,,,,,,,,,,,,,531.1245,532.2102,l,1,0.4144,,[],[],[],[],[],[],[],0.4144,1,532.2108,532.7068,,,,,,643,FEM,CON,150,bolsa,,a,532.7077,532.7082,0.887962963,0.5,0,0,0,,0,155,155,192,1,,,,
,,,,,,20a750f81f089a9c315833ff,66a626ef09d4e21e1a8894ec,67360fd442621318065f2f4d,2024-11-14_08h57.52.799,Tarea de género gramatical,2024.2.2,Win32,59.88023952,,,,,,,,,,,,,,,,,,,,,,,532.7088,533.7275,a,0,0.3485,,[],[],[],[],[],[],[],0.3485,0,533.728,534.2272,,,,,,475,FEM,CON,150,nave,,a,534.2272,534.2273,0.887962963,0.5,0,0,0,,0,156,156,24,1,,,,
,,,,,,20a750f81f089a9c315833ff,66a626ef09d4e21e1a8894ec,67360fd442621318065f2f4d,2024-11-14_08h57.52.799,Tarea de género gramatical,2024.2.2,Win32,59.88023952,,,,,,,,,,,,,,,,,,,,,,,534.2281,535.5773,a,1,0.6669,,[],[],[],[],[],[],[],0.6669,1,535.578,536.0769,,,,,,574,MAS,CON,150,clan,,l,536.0769,536.077,0.887962963,0.5,0,0,0,,0,157,157,123,1,,,,
,,,,,,20a750f81f089a9c315833ff,66a626ef09d4e21e1a8894ec,67360fd442621318065f2f4d,2024-11-14_08h57.52.799,Tarea de género gramatical,2024.2.2,Win32,59.88023952,,,,,,,,,,,,,,,,,,,,,,,536.0776,537.1271,l,1,0.3685,,[],[],[],[],[],[],[],0.3685,1,537.1272,537.6272,,,,,,703,FEM,CON,150,aldea,,a,537.6273,537.6274,0.887962963,0.5,0,0,0,,0,158,158,252,1,,,,
,,,,,,20a750f81f089a9c315833ff,66a626ef09d4e21e1a8894ec,67360fd442621318065f2f4d,2024-11-14_08h57.52.799,Tarea de género gramatical,2024.2.2,Win32,59.88023952,,,,,,,,,,,,,,,,,,,,,,,537.6281,538.9441,a,1,0.649,,[],[],[],[],[],[],[],0.649,1,538.9442,539.4436,,,,,,551,MAS,DIS,150,giro,la,l,539.4444,539.4449,0.887962963,0.5,0,0,0,,0,159,159,100,1,,,,
,,,,,,20a750f81f089a9c315833ff,66a626ef09d4e21e1a8894ec,67360fd442621318065f2f4d,2024-11-14_08h57.52.799,Tarea de género gramatical,2024.2.2,Win32,59.88023952,,,,,,,,,,,,,,,,,,,,,,,539.4455,540.9402,a,1,0.8224,,[],[],[],[],[],[],[],0.8224,1,540.9402,541.4403,,,,,,576,MAS,AGR,150,lazo,el,l,541.4403,541.4404,0.887962963,0.5,0,0,0,,0,160,160,125,1,,,,
,,,,,,20a750f81f089a9c315833ff,66a626ef09d4e21e1a8894ec,67360fd442621318065f2f4d,2024-11-14_08h57.52.799,Tarea de género gramatical,2024.2.2,Win32,59.88023952,,,,,,,,,,,,,,,,,,,,,,,541.4411,542.4735,l,0,0.3588,,[],[],[],[],[],[],[],0.3588,0,542.4742,542.9738,,,,,,466,MAS,CON,150,baño,,l,542.9739,542.974,0.887962963,0.5,0,0,0,,0,161,161,15,1,,,,
,,,,,,20a750f81f089a9c315833ff,66a626ef09d4e21e1a8894ec,67360fd442621318065f2f4d,2024-11-14_08h57.52.799,Tarea de género gramatical,2024.2.2,Win32,59.88023952,,,,,,,,,,,,,,,,,,,,,,,542.9748,543.957,a,0,0.3096,,[],[],[],[],[],[],[],0.3096,0,543.957,544.4608,,,,,,536,FEM,DIS,150,cruz,el,a,544.4608,544.4608,0.887962963,0.5,0,0,0,,0,162,162,85,1,,,,
,,,,,,20a750f81f089a9c315833ff,66a626ef09d4e21e1a8894ec,67360fd442621318065f2f4d,2024-11-14_08h57.52.799,Tarea de género gramatical,2024.2.2,Win32,59.88023952,,,,,,,,,,,,,,,,,,,,,,,544.4616,545.6902,a,1,0.5439,,[],[],[],[],[],[],[],0.5439,1,545.6908,546.1938,,,,,,498,MAS,AGR,150,loco,el,l,546.1938,546.1939,0.887962963,0.5,0,0,0,,0,163,163,47,1,,,,
,,,,,,20a750f81f089a9c315833ff,66a626ef09d4e21e1a8894ec,67360fd442621318065f2f4d,2024-11-14_08h57.52.799,Tarea de género gramatical,2024.2.2,Win32,59.88023952,,,,,,,,,,,,,,,,,,,,,,,546.1947,547.2772,a,1,0.4002,,[],[],[],[],[],[],[],0.4002,1,547.2773,547.7735,,,,,,653,MAS,DIS,150,novio,la,l,547.7744,547.775,0.887962963,0.5,0,0,0,,0,164,164,202,1,,,,
,,,,,,20a750f81f089a9c315833ff,66a626ef09d4e21e1a8894ec,67360fd442621318065f2f4d,2024-11-14_08h57.52.799,Tarea de género gramatical,2024.2.2,Win32,59.88023952,,,,,,,,,,,,,,,,,,,,,,,547.7755,548.6903,l,1,0.2366,,[],[],[],[],[],[],[],0.2366,1,548.6903,549.1938,,,,,,687,FEM,AGR,150,ducha,la,a,549.1939,549.1939,0.887962963,0.5,0,0,0,,0,165,165,236,1,,,,
,,,,,,20a750f81f089a9c315833ff,66a626ef09d4e21e1a8894ec,67360fd442621318065f2f4d,2024-11-14_08h57.52.799,Tarea de género gramatical,2024.2.2,Win32,59.88023952,,,,,,,,,,,,,,,,,,,,,,,549.1946,550.1939,a,1,0.3312,,[],[],[],[],[],[],[],0.3312,1,550.1939,550.6938,,,,,,509,MAS,DIS,150,lobo,la,l,550.6938,550.6938,0.887962963,0.5,0,0,0,,0,166,166,58,1,,,,
,,,,,,20a750f81f089a9c315833ff,66a626ef09d4e21e1a8894ec,67360fd442621318065f2f4d,2024-11-14_08h57.52.799,Tarea de género gramatical,2024.2.2,Win32,59.88023952,,,,,,,,,,,,,,,,,,,,,,,550.6946,551.7109,l,1,0.3337,,[],[],[],[],[],[],[],0.3337,1,551.711,552.2106,,,,,,543,FEM,AGR,150,lata,la,a,552.2107,552.2107,0.887962963,0.5,0,0,0,,0,167,167,92,1,,,,
,,,,,,20a750f81f089a9c315833ff,66a626ef09d4e21e1a8894ec,67360fd442621318065f2f4d,2024-11-14_08h57.52.799,Tarea de género gramatical,2024.2.2,Win32,59.88023952,,,,,,,,,,,,,,,,,,,,,,,552.2115,553.3107,l,1,0.417,,[],[],[],[],[],[],[],0.417,1,553.3108,553.8105,,,,,,896,FEM,DIS,150,bañera,el,a,553.8114,553.8119,0.887962963,0.5,0,0,0,,0,168,168,445,1,,,,
,,,,,,20a750f81f089a9c315833ff,66a626ef09d4e21e1a8894ec,67360fd442621318065f2f4d,2024-11-14_08h57.52.799,Tarea de género gramatical,2024.2.2,Win32,59.88023952,,,,,,,,,,,,,,,,,,,,,,,553.8125,554.7404,a,1,0.2563,,[],[],[],[],[],[],[],0.2563,1,554.7406,555.2438,,,,,,725,MAS,DIS,150,disco,la,l,555.2438,555.2438,0.887962963,0.5,0,0,0,,0,169,169,274,1,,,,
,,,,,,20a750f81f089a9c315833ff,66a626ef09d4e21e1a8894ec,67360fd442621318065f2f4d,2024-11-14_08h57.52.799,Tarea de género gramatical,2024.2.2,Win32,59.88023952,,,,,,,,,,,,,,,,,,,,,,,555.2447,556.4109,l,0,0.4982,,[],[],[],[],[],[],[],0.4982,0,556.4114,556.9105,,,,,,605,MAS,DIS,150,mundo,la,l,556.9105,556.9105,0.887962963,0.5,0,0,0,,0,170,170,154,1,,,,
,,,,,,20a750f81f089a9c315833ff,66a626ef09d4e21e1a8894ec,67360fd442621318065f2f4d,2024-11-14_08h57.52.799,Tarea de género gramatical,2024.2.2,Win32,59.88023952,,,,,,,,,,,,,,,,,,,,,,,556.9112,557.8903,l,1,0.2942,,[],[],[],[],[],[],[],0.2942,1,557.8909,558.3903,,,,,,843,FEM,AGR,150,alarma,la,a,558.3904,558.3904,0.887962963,0.5,0,0,0,,0,171,171,392,1,,,,
,,,,,,20a750f81f089a9c315833ff,66a626ef09d4e21e1a8894ec,67360fd442621318065f2f4d,2024-11-14_08h57.52.799,Tarea de género gramatical,2024.2.2,Win32,59.88023952,,,,,,,,,,,,,,,,,,,,,,,558.3911,559.4241,a,1,0.3613,,[],[],[],[],[],[],[],0.3613,1,559.4242,559.9237,,,,,,490,MAS,CON,150,dios,,l,559.9238,559.9238,0.887962963,0.5,0,0,0,,0,172,172,39,1,,,,
,,,,,,20a750f81f089a9c315833ff,66a626ef09d4e21e1a8894ec,67360fd442621318065f2f4d,2024-11-14_08h57.52.799,Tarea de género gramatical,2024.2.2,Win32,59.88023952,,,,,,,,,,,,,,,,,,,,,,,559.9247,560.8757,l,1,0.2827,,[],[],[],[],[],[],[],0.2827,1,560.8757,561.3737,,,,,,837,FEM,AGR,150,página,la,a,561.3744,561.375,0.887962963,0.5,0,0,0,,0,173,173,386,1,,,,
,,,,,,20a750f81f089a9c315833ff,66a626ef09d4e21e1a8894ec,67360fd442621318065f2f4d,2024-11-14_08h57.52.799,Tarea de género gramatical,2024.2.2,Win32,59.88023952,,,,,,,,,,,,,,,,,,,,,,,561.3755,562.4274,a,1,0.3981,,[],[],[],[],[],[],[],0.3981,1,562.4274,562.9237,,,,,,636,MAS,AGR,150,error,el,l,562.9237,562.9238,0.887962963,0.5,0,0,0,,0,174,174,185,1,,,,
,,,,,,20a750f81f089a9c315833ff,66a626ef09d4e21e1a8894ec,67360fd442621318065f2f4d,2024-11-14_08h57.52.799,Tarea de género gramatical,2024.2.2,Win32,59.88023952,,,,,,,,,,,,,,,,,,,,,,,562.9247,563.8242,l,1,0.2305,,[],[],[],[],[],[],[],0.2305,1,563.8242,564.324,,,,,,500,FEM,DIS,150,dama,el,a,564.3241,564.3242,0.887962963,0.5,0,0,0,,0,175,175,49,1,,,,
,,,,,,20a750f81f089a9c315833ff,66a626ef09d4e21e1a8894ec,67360fd442621318065f2f4d,2024-11-14_08h57.52.799,Tarea de género gramatical,2024.2.2,Win32,59.88023952,,,,,,,,,,,,,,,,,,,,,,,564.3251,565.374,a,1,0.3741,,[],[],[],[],[],[],[],0.3741,1,565.374,565.874,,,,,,611,MAS,DIS,150,chico,la,l,565.874,565.8741,0.887962963,0.5,0,0,0,,0,176,176,160,1,,,,
,,,,,,20a750f81f089a9c315833ff,66a626ef09d4e21e1a8894ec,67360fd442621318065f2f4d,2024-11-14_08h57.52.799,Tarea de género gramatical,2024.2.2,Win32,59.88023952,,,,,,,,,,,,,,,,,,,,,,,565.8749,566.8904,l,1,0.337,,[],[],[],[],[],[],[],0.337,1,566.8904,567.3904,,,,,,459,FEM,AGR,150,mamá,la,a,567.3912,567.3917,0.887962963,0.5,0,0,0,,0,177,177,8,1,,,,
,,,,,,20a750f81f089a9c315833ff,66a626ef09d4e21e1a8894ec,67360fd442621318065f2f4d,2024-11-14_08h57.52.799,Tarea de género gramatical,2024.2.2,Win32,59.88023952,,,,,,,,,,,,,,,,,,,,,,,567.3923,568.4275,l,1,0.3671,,[],[],[],[],[],[],[],0.3671,1,568.4275,568.924,,,,,,693,FEM,AGR,150,salsa,la,a,568.924,568.9242,0.887962963,0.5,0,0,0,,0,178,178,242,1,,,,
,,,,,,20a750f81f089a9c315833ff,66a626ef09d4e21e1a8894ec,67360fd442621318065f2f4d,2024-11-14_08h57.52.799,Tarea de género gramatical,2024.2.2,Win32,59.88023952,,,,,,,,,,,,,,,,,,,,,,,568.925,569.9609,l,1,0.365,,[],[],[],[],[],[],[],0.365,1,569.961,570.4606,,,,,,674,FEM,DIS,150,arena,el,a,570.4607,570.4608,0.887962963,0.5,0,0,0,,0,179,179,223,1,,,,
,,,,,,20a750f81f089a9c315833ff,66a626ef09d4e21e1a8894ec,67360fd442621318065f2f4d,2024-11-14_08h57.52.799,Tarea de género gramatical,2024.2.2,Win32,59.88023952,,,,,,,,,,,,,,,,,,,,,,,570.4615,571.4574,l,1,0.3037,,[],[],[],[],[],[],[],0.3037,1,571.4574,571.9605,,,,,,799,FEM,CON,150,prensa,,a,571.9605,571.9606,0.887962963,0.5,0,0,0,,0,180,180,348,1,,,,
,,,,,,20a750f81f089a9c315833ff,66a626ef09d4e21e1a8894ec,67360fd442621318065f2f4d,2024-11-14_08h57.52.799,Tarea de género gramatical,2024.2.2,Win32,59.88023952,,,,,,,,,,,,,,,,,,,,,,,571.9614,572.8571,a,0,0.2187,,[],[],[],[],[],[],[],0.2187,0,572.8576,573.3572,,,,,,836,FEM,DIS,150,sombra,el,a,573.3573,573.3574,0.887962963,0.5,0,0,0,,0,181,181,385,1,,,,
,,,,,,20a750f81f089a9c315833ff,66a626ef09d4e21e1a8894ec,67360fd442621318065f2f4d,2024-11-14_08h57.52.799,Tarea de género gramatical,2024.2.2,Win32,59.88023952,,,,,,,,,,,,,,,,,,,,,,,573.3584,574.3611,l,1,0.334,,[],[],[],[],[],[],[],0.334,1,574.3617,574.8605,,,,,,801,FEM,AGR,150,espada,la,a,574.8614,574.8619,0.887962963,0.5,0,0,0,,0,182,182,350,1,,,,
,,,,,,20a750f81f089a9c315833ff,66a626ef09d4e21e1a8894ec,67360fd442621318065f2f4d,2024-11-14_08h57.52.799,Tarea de género gramatical,2024.2.2,Win32,59.88023952,,,,,,,,,,,,,,,,,,,,,,,574.8625,575.961,l,1,0.4316,,[],[],[],[],[],[],[],0.4316,1,575.9611,576.4605,,,,,,795,FEM,AGR,150,pierna,la,a,576.4606,576.4607,0.887962963,0.5,0,0,0,,0,183,183,344,1,,,,
,,,,,,20a750f81f089a9c315833ff,66a626ef09d4e21e1a8894ec,67360fd442621318065f2f4d,2024-11-14_08h57.52.799,Tarea de género gramatical,2024.2.2,Win32,59.88023952,,,,,,,,,,,,,,,,,,,,,,,576.4614,577.361,a,0,0.2172,,[],[],[],[],[],[],[],0.2172,0,577.3616,577.861,,,,,,806,FEM,DIS,150,piedra,el,a,577.861,577.8611,0.887962963,0.5,0,0,0,,0,184,184,355,1,,,,
,,,,,,20a750f81f089a9c315833ff,66a626ef09d4e21e1a8894ec,67360fd442621318065f2f4d,2024-11-14_08h57.52.799,Tarea de género gramatical,2024.2.2,Win32,59.88023952,,,,,,,,,,,,,,,,,,,,,,,577.8618,578.8609,l,1,0.3341,,[],[],[],[],[],[],[],0.3341,1,578.8615,579.361,,,,,,764,FEM,DIS,150,señora,el,a,579.361,579.3611,0.887962963,0.5,0,0,0,,0,185,185,313,1,,,,
,,,,,,20a750f81f089a9c315833ff,66a626ef09d4e21e1a8894ec,67360fd442621318065f2f4d,2024-11-14_08h57.52.799,Tarea de género gramatical,2024.2.2,Win32,59.88023952,,,,,,,,,,,,,,,,,,,,,,,579.3619,580.424,a,1,0.3864,,[],[],[],[],[],[],[],0.3864,1,580.4241,580.9241,,,,,,515,MAS,DIS,150,rayo,la,l,580.9251,580.9256,0.887962963,0.5,0,0,0,,0,186,186,64,1,,,,
,,,,,,20a750f81f089a9c315833ff,66a626ef09d4e21e1a8894ec,67360fd442621318065f2f4d,2024-11-14_08h57.52.799,Tarea de género gramatical,2024.2.2,Win32,59.88023952,,,,,,,,,,,,,,,,,,,,,,,580.9262,581.9241,l,0,0.3093,,[],[],[],[],[],[],[],0.3093,0,581.9247,582.4274,,,,,,719,MAS,DIS,150,primo,la,l,582.4275,582.4275,0.887962963,0.5,0,0,0,,0,187,187,268,1,,,,
,,,,,,20a750f81f089a9c315833ff,66a626ef09d4e21e1a8894ec,67360fd442621318065f2f4d,2024-11-14_08h57.52.799,Tarea de género gramatical,2024.2.2,Win32,59.88023952,,,,,,,,,,,,,,,,,,,,,,,582.4283,583.5942,a,1,0.4983,,[],[],[],[],[],[],[],0.4983,1,583.5949,584.0933,,,,,,647,MAS,DIS,150,avión,la,l,584.0933,584.0934,0.887962963,0.5,0,0,0,,0,188,188,196,1,,,,
,,,,,,20a750f81f089a9c315833ff,66a626ef09d4e21e1a8894ec,67360fd442621318065f2f4d,2024-11-14_08h57.52.799,Tarea de género gramatical,2024.2.2,Win32,59.88023952,,,,,,,,,,,,,,,,,,,,,,,584.0941,585.1405,l,1,0.3752,,[],[],[],[],[],[],[],0.3752,1,585.1406,585.6406,,,,,,638,FEM,DIS,150,bomba,el,a,585.6407,585.6407,0.887962963,0.5,0,0,0,,0,189,189,187,1,,,,
,,,,,,20a750f81f089a9c315833ff,66a626ef09d4e21e1a8894ec,67360fd442621318065f2f4d,2024-11-14_08h57.52.799,Tarea de género gramatical,2024.2.2,Win32,59.88023952,,,,,,,,,,,,,,,,,,,,,,,585.6414,586.6739,l,0,0.353,,[],[],[],[],[],[],[],0.353,0,586.6745,587.1742,,,,,,575,MAS,DIS,150,bate,la,l,587.1742,587.1743,0.887962963,0.5,0,0,0,,0,190,190,124,1,,,,
,,,,,,20a750f81f089a9c315833ff,66a626ef09d4e21e1a8894ec,67360fd442621318065f2f4d,2024-11-14_08h57.52.799,Tarea de género gramatical,2024.2.2,Win32,59.88023952,,,,,,,,,,,,,,,,,,,,,,,587.175,588.2276,a,1,0.3838,,[],[],[],[],[],[],[],0.3838,1,588.2282,588.7259,,,,,,600,MAS,AGR,150,mozo,el,l,588.7266,588.7272,0.887962963,0.5,0,0,0,,0,191,191,149,1,,,,
,,,,,,20a750f81f089a9c315833ff,66a626ef09d4e21e1a8894ec,67360fd442621318065f2f4d,2024-11-14_08h57.52.799,Tarea de género gramatical,2024.2.2,Win32,59.88023952,,,,,,,,,,,,,,,,,,,,,,,588.7277,589.711,l,1,0.3152,,[],[],[],[],[],[],[],0.3152,1,589.7111,590.2074,,,,,,566,FEM,DIS,150,nube,el,a,590.2074,590.2075,0.887962963,0.5,0,0,0,,0,192,192,115,1,,,,
,,,,,,20a750f81f089a9c315833ff,66a626ef09d4e21e1a8894ec,67360fd442621318065f2f4d,2024-11-14_08h57.52.799,Tarea de género gramatical,2024.2.2,Win32,59.88023952,,,,,,,,,,,,,,,,,,,,,,,590.2083,591.2277,l,0,0.3505,,[],[],[],[],[],[],[],0.3505,0,591.2284,591.7242,,,,,,780,MAS,AGR,150,estado,el,l,591.7243,591.7243,0.887962963,0.5,0,0,0,,0,193,193,329,1,,,,
,,,,,,20a750f81f089a9c315833ff,66a626ef09d4e21e1a8894ec,67360fd442621318065f2f4d,2024-11-14_08h57.52.799,Tarea de género gramatical,2024.2.2,Win32,59.88023952,,,,,,,,,,,,,,,,,,,,,,,591.7251,592.8112,a,0,0.4005,,[],[],[],[],[],[],[],0.4005,0,592.8113,593.3073,,,,,,897,FEM,AGR,150,lógica,la,a,593.3073,593.3073,0.887962963,0.5,0,0,0,,0,194,194,446,1,,,,
,,,,,,20a750f81f089a9c315833ff,66a626ef09d4e21e1a8894ec,67360fd442621318065f2f4d,2024-11-14_08h57.52.799,Tarea de género gramatical,2024.2.2,Win32,59.88023952,,,,,,,,,,,,,,,,,,,,,,,593.3082,594.4906,l,1,0.4862,,[],[],[],[],[],[],[],0.4862,1,594.4913,594.9906,,,,,,789,FEM,AGR,150,salida,la,a,594.9915,594.9921,0.887962963,0.5,0,0,0,,0,195,195,338,1,,,,
,,,,,,20a750f81f089a9c315833ff,66a626ef09d4e21e1a8894ec,67360fd442621318065f2f4d,2024-11-14_08h57.52.799,Tarea de género gramatical,2024.2.2,Win32,59.88023952,,,,,,,,,,,,,,,,,,,,,,,594.9927,596.1281,l,1,0.4674,,[],[],[],[],[],[],[],0.4674,1,596.1282,596.6241,,,,,,847,FEM,CON,150,cuerda,,a,596.6242,596.6243,0.887962963,0.5,0,0,0,,0,196,196,396,1,,,,
,,,,,,20a750f81f089a9c315833ff,66a626ef09d4e21e1a8894ec,67360fd442621318065f2f4d,2024-11-14_08h57.52.799,Tarea de género gramatical,2024.2.2,Win32,59.88023952,,,,,,,,,,,,,,,,,,,,,,,596.6249,597.6112,a,1,0.3173,,[],[],[],[],[],[],[],0.3173,1,597.6112,598.1107,,,,,,778,MAS,CON,150,asunto,,l,598.1108,598.1108,0.887962963,0.5,0,0,0,,0,197,197,327,1,,,,
,,,,,,20a750f81f089a9c315833ff,66a626ef09d4e21e1a8894ec,67360fd442621318065f2f4d,2024-11-14_08h57.52.799,Tarea de género gramatical,2024.2.2,Win32,59.88023952,,,,,,,,,,,,,,,,,,,,,,,598.1115,599.1944,l,0,0.4005,,[],[],[],[],[],[],[],0.4005,0,599.1949,599.6924,,,,,,700,MAS,CON,150,cerdo,,l,599.6924,599.6925,0.887962963,0.5,0,0,0,,0,198,198,249,1,,,,
,,,,,,20a750f81f089a9c315833ff,66a626ef09d4e21e1a8894ec,67360fd442621318065f2f4d,2024-11-14_08h57.52.799,Tarea de género gramatical,2024.2.2,Win32,59.88023952,,,,,,,,,,,,,,,,,,,,,,,599.6932,600.8278,l,0,0.4815,,[],[],[],[],[],[],[],0.4815,0,600.8278,601.3242,,,,,,497,MAS,DIS,150,olor,la,l,601.3243,601.3244,0.887962963,0.5,0,0,0,,0,199,199,46,1,,,,
,,,,,,20a750f81f089a9c315833ff,66a626ef09d4e21e1a8894ec,67360fd442621318065f2f4d,2024-11-14_08h57.52.799,Tarea de género gramatical,2024.2.2,Win32,59.88023952,,,,,,,,,,,,,,,,,,,,,,,601.3251,602.3741,l,1,0.3886,,[],[],[],[],[],[],[],0.3886,1,602.375,602.8743,,,,,,463,FEM,CON,150,hija,,a,602.8752,602.8759,0.887962963,0.5,0,0,0,,0,200,200,12,1,,,,
,,,,,,20a750f81f089a9c315833ff,66a626ef09d4e21e1a8894ec,67360fd442621318065f2f4d,2024-11-14_08h57.52.799,Tarea de género gramatical,2024.2.2,Win32,59.88023952,,,,,,,,,,,,,,,,,,,,,,,602.8765,603.8907,l,1,0.3441,,[],[],[],[],[],[],[],0.3441,1,603.8907,604.3941,,,,,,657,FEM,AGR,150,playa,la,a,604.3941,604.3942,0.887962963,0.5,0,0,0,,0,201,201,206,1,,,,
,,,,,,20a750f81f089a9c315833ff,66a626ef09d4e21e1a8894ec,67360fd442621318065f2f4d,2024-11-14_08h57.52.799,Tarea de género gramatical,2024.2.2,Win32,59.88023952,,,,,,,,,,,,,,,,,,,,,,,604.3949,605.3607,a,1,0.2834,,[],[],[],[],[],[],[],0.2834,1,605.3607,605.8574,,,,,,826,MAS,CON,150,efecto,,l,605.8575,605.8575,0.887962963,0.5,0,0,0,,0,202,202,375,1,,,,
,,,,,,20a750f81f089a9c315833ff,66a626ef09d4e21e1a8894ec,67360fd442621318065f2f4d,2024-11-14_08h57.52.799,Tarea de género gramatical,2024.2.2,Win32,59.88023952,,,,,,,,,,,,,,,,,,,,,,,605.8584,606.778,l,1,0.2511,,[],[],[],[],[],[],[],0.2511,1,606.7781,607.2743,,,,,,649,FEM,CON,150,nariz,,a,607.2743,607.2743,0.887962963,0.5,0,0,0,,0,203,203,198,1,,,,
,,,,,,20a750f81f089a9c315833ff,66a626ef09d4e21e1a8894ec,67360fd442621318065f2f4d,2024-11-14_08h57.52.799,Tarea de género gramatical,2024.2.2,Win32,59.88023952,,,,,,,,,,,,,,,,,,,,,,,607.2752,608.2777,l,1,0.3313,,[],[],[],[],[],[],[],0.3313,1,608.2777,608.7775,,,,,,542,FEM,DIS,150,masa,el,a,608.7784,608.779,0.887962963,0.5,0,0,0,,0,204,204,91,1,,,,
,,,,,,20a750f81f089a9c315833ff,66a626ef09d4e21e1a8894ec,67360fd442621318065f2f4d,2024-11-14_08h57.52.799,Tarea de género gramatical,2024.2.2,Win32,59.88023952,,,,,,,,,,,,,,,,,,,,,,,608.7796,609.7613,l,1,0.3004,,[],[],[],[],[],[],[],0.3004,1,609.7615,610.2577,,,,,,619,FEM,CON,150,vista,,a,610.2577,610.2577,0.887962963,0.5,0,0,0,,0,205,205,168,1,,,,
,,,,,,20a750f81f089a9c315833ff,66a626ef09d4e21e1a8894ec,67360fd442621318065f2f4d,2024-11-14_08h57.52.799,Tarea de género gramatical,2024.2.2,Win32,59.88023952,,,,,,,,,,,,,,,,,,,,,,,610.2585,611.1615,l,0,0.2313,,[],[],[],[],[],[],[],0.2313,0,611.162,611.6612,,,,,,706,MAS,CON,150,techo,,l,611.6612,611.6613,0.887962963,0.5,0,0,0,,0,206,206,255,1,,,,
,,,,,,20a750f81f089a9c315833ff,66a626ef09d4e21e1a8894ec,67360fd442621318065f2f4d,2024-11-14_08h57.52.799,Tarea de género gramatical,2024.2.2,Win32,59.88023952,,,,,,,,,,,,,,,,,,,,,,,611.6622,612.7076,l,1,0.3695,,[],[],[],[],[],[],[],0.3695,1,612.7082,613.2075,,,,,,507,FEM,AGR,150,moda,la,a,613.2075,613.2077,0.887962963,0.5,0,0,0,,0,207,207,56,1,,,,
,,,,,,20a750f81f089a9c315833ff,66a626ef09d4e21e1a8894ec,67360fd442621318065f2f4d,2024-11-14_08h57.52.799,Tarea de género gramatical,2024.2.2,Win32,59.88023952,,,,,,,,,,,,,,,,,,,,,,,613.2084,614.2779,a,1,0.398,,[],[],[],[],[],[],[],0.398,1,614.2779,614.7779,,,,,,809,MAS,DIS,150,bosque,la,l,614.7779,614.778,0.887962963,0.5,0,0,0,,0,208,208,358,1,,,,
,,,,,,20a750f81f089a9c315833ff,66a626ef09d4e21e1a8894ec,67360fd442621318065f2f4d,2024-11-14_08h57.52.799,Tarea de género gramatical,2024.2.2,Win32,59.88023952,,,,,,,,,,,,,,,,,,,,,,,614.7786,615.7908,a,1,0.323,,[],[],[],[],[],[],[],0.323,1,615.7908,616.2908,,,,,,642,MAS,AGR,150,grupo,el,l,616.2917,616.2923,0.887962963,0.5,0,0,0,,0,209,209,191,1,,,,
,,,,,,20a750f81f089a9c315833ff,66a626ef09d4e21e1a8894ec,67360fd442621318065f2f4d,2024-11-14_08h57.52.799,Tarea de género gramatical,2024.2.2,Win32,59.88023952,,,,,,,,,,,,,,,,,,,,,,,616.2928,617.7445,a,1,0.7837,,[],[],[],[],[],[],[],0.7837,1,617.7445,618.2442,,,,,,562,MAS,CON,150,reto,,l,618.2442,618.2443,0.887962963,0.5,0,0,0,,0,210,210,111,1,,,,
,,,,,,20a750f81f089a9c315833ff,66a626ef09d4e21e1a8894ec,67360fd442621318065f2f4d,2024-11-14_08h57.52.799,Tarea de género gramatical,2024.2.2,Win32,59.88023952,,,,,,,,,,,,,,,,,,,,,,,618.2452,619.2407,a,1,0.3125,,[],[],[],[],[],[],[],0.3125,1,619.2409,619.7442,,,,,,688,MAS,CON,150,norte,,l,619.7443,619.7443,0.887962963,0.5,0,0,0,,0,211,211,237,1,,,,
,,,,,,20a750f81f089a9c315833ff,66a626ef09d4e21e1a8894ec,67360fd442621318065f2f4d,2024-11-14_08h57.52.799,Tarea de género gramatical,2024.2.2,Win32,59.88023952,,,,,,,,,,,,,,,,,,,,,,,619.745,620.8743,a,1,0.4505,,[],[],[],[],[],[],[],0.4505,1,620.8744,621.3744,,,,,,850,MAS,CON,150,barrio,,l,621.3744,621.3745,0.887962963,0.5,0,0,0,,0,212,212,399,1,,,,
,,,,,,20a750f81f089a9c315833ff,66a626ef09d4e21e1a8894ec,67360fd442621318065f2f4d,2024-11-14_08h57.52.799,Tarea de género gramatical,2024.2.2,Win32,59.88023952,,,,,,,,,,,,,,,,,,,,,,,621.3752,622.4111,l,1,0.3648,,[],[],[],[],[],[],[],0.3648,1,622.4112,622.9114,,,,,,817,FEM,CON,150,teoría,,a,622.9121,622.9126,0.887962963,0.5,0,0,0,,0,213,213,366,1,,,,
,,,,,,20a750f81f089a9c315833ff,66a626ef09d4e21e1a8894ec,67360fd442621318065f2f4d,2024-11-14_08h57.52.799,Tarea de género gramatical,2024.2.2,Win32,59.88023952,,,,,,,,,,,,,,,,,,,,,,,622.9132,623.9946,a,0,0.4005,,[],[],[],[],[],[],[],0.4005,0,623.9951,624.4908,,,,,,787,FEM,CON,150,escena,,a,624.4908,624.491,0.887962963,0.5,0,0,0,,0,214,214,336,1,,,,
,,,,,,20a750f81f089a9c315833ff,66a626ef09d4e21e1a8894ec,67360fd442621318065f2f4d,2024-11-14_08h57.52.799,Tarea de género gramatical,2024.2.2,Win32,59.88023952,,,,,,,,,,,,,,,,,,,,,,,624.4917,625.6617,a,1,0.4985,,[],[],[],[],[],[],[],0.4985,1,625.6622,626.1613,,,,,,862,MAS,CON,150,espejo,,l,626.1613,626.1613,0.887962963,0.5,0,0,0,,0,215,215,411,1,,,,
,,,,,,20a750f81f089a9c315833ff,66a626ef09d4e21e1a8894ec,67360fd442621318065f2f4d,2024-11-14_08h57.52.799,Tarea de género gramatical,2024.2.2,Win32,59.88023952,,,,,,,,,,,,,,,,,,,,,,,626.1622,627.2114,l,1,0.3837,,[],[],[],[],[],[],[],0.3837,1,627.2114,627.7076,,,,,,560,FEM,DIS,150,rosa,el,a,627.7077,627.7079,0.887962963,0.5,0,0,0,,0,216,216,109,1,,,,
,,,,,,20a750f81f089a9c315833ff,66a626ef09d4e21e1a8894ec,67360fd442621318065f2f4d,2024-11-14_08h57.52.799,Tarea de género gramatical,2024.2.2,Win32,59.88023952,,,,,,,,,,,,,,,,,,,,,,,627.7088,628.7447,l,1,0.3672,,[],[],[],[],[],[],[],0.3672,1,628.7447,629.2409,,,,,,715,FEM,CON,150,rueda,,a,629.2409,629.2411,0.887962963,0.5,0,0,0,,0,217,217,264,1,,,,
,,,,,,20a750f81f089a9c315833ff,66a626ef09d4e21e1a8894ec,67360fd442621318065f2f4d,2024-11-14_08h57.52.799,Tarea de género gramatical,2024.2.2,Win32,59.88023952,,,,,,,,,,,,,,,,,,,,,,,629.2418,630.2114,a,1,0.3002,,[],[],[],[],[],[],[],0.3002,1,630.2114,630.7078,,,,,,503,MAS,DIS,150,vaso,la,l,630.7087,630.7094,0.887962963,0.5,0,0,0,,0,218,218,52,1,,,,
,,,,,,20a750f81f089a9c315833ff,66a626ef09d4e21e1a8894ec,67360fd442621318065f2f4d,2024-11-14_08h57.52.799,Tarea de género gramatical,2024.2.2,Win32,59.88023952,,,,,,,,,,,,,,,,,,,,,,,630.71,631.8113,l,1,0.4311,,[],[],[],[],[],[],[],0.4311,1,631.8114,632.3079,,,,,,757,FEM,CON,150,suerte,,a,632.3079,632.308,0.887962963,0.5,0,0,0,,0,219,219,306,1,,,,
,,,,,,20a750f81f089a9c315833ff,66a626ef09d4e21e1a8894ec,67360fd442621318065f2f4d,2024-11-14_08h57.52.799,Tarea de género gramatical,2024.2.2,Win32,59.88023952,,,,,,,,,,,,,,,,,,,,,,,632.3088,633.3615,a,1,0.3856,,[],[],[],[],[],[],[],0.3856,1,633.3615,633.8576,,,,,,821,MAS,DIS,150,sonido,la,l,633.8576,633.8577,0.887962963,0.5,0,0,0,,0,220,220,370,1,,,,
,,,,,,20a750f81f089a9c315833ff,66a626ef09d4e21e1a8894ec,67360fd442621318065f2f4d,2024-11-14_08h57.52.799,Tarea de género gramatical,2024.2.2,Win32,59.88023952,,,,,,,,,,,,,,,,,,,,,,,633.8584,634.8113,l,1,0.267,,[],[],[],[],[],[],[],0.267,1,634.8114,635.311,,,,,,861,FEM,AGR,150,actriz,la,a,635.311,635.3111,0.887962963,0.5,0,0,0,,0,221,221,410,1,,,,
,,,,,,20a750f81f089a9c315833ff,66a626ef09d4e21e1a8894ec,67360fd442621318065f2f4d,2024-11-14_08h57.52.799,Tarea de género gramatical,2024.2.2,Win32,59.88023952,,,,,,,,,,,,,,,,,,,,,,,635.3118,636.2577,a,0,0.2677,,[],[],[],[],[],[],[],0.2677,0,636.2583,636.7578,,,,,,517,FEM,CON,150,miel,,a,636.7589,636.7597,0.887962963,0.5,0,0,0,,0,222,222,66,1,,,,
,,,,,,20a750f81f089a9c315833ff,66a626ef09d4e21e1a8894ec,67360fd442621318065f2f4d,2024-11-14_08h57.52.799,Tarea de género gramatical,2024.2.2,Win32,59.88023952,,,,,,,,,,,,,,,,,,,,,,,636.7603,637.791,l,0,0.3481,,[],[],[],[],[],[],[],0.3481,0,637.7911,638.2944,,,,,,479,MAS,DIS,150,frío,la,l,638.2945,638.2945,0.887962963,0.5,0,0,0,,0,223,223,28,1,,,,
,,,,,,20a750f81f089a9c315833ff,66a626ef09d4e21e1a8894ec,67360fd442621318065f2f4d,2024-11-14_08h57.52.799,Tarea de género gramatical,2024.2.2,Win32,59.88023952,,,,,,,,,,,,,,,,,,,,,,,638.2952,639.578,a,0,0.6145,,[],[],[],[],[],[],[],0.6145,0,639.5782,640.0746,,,,,,884,FEM,DIS,150,corona,el,a,640.0746,640.0746,0.887962963,0.5,0,0,0,,0,224,224,433,1,,,,
,,,,,,20a750f81f089a9c315833ff,66a626ef09d4e21e1a8894ec,67360fd442621318065f2f4d,2024-11-14_08h57.52.799,Tarea de género gramatical,2024.2.2,Win32,59.88023952,,,,,,,,,,,,,,,,,,,,,,,640.0754,641.2613,a,1,0.5314,,[],[],[],[],[],[],[],0.5314,1,641.2619,641.7615,,,,,,834,MAS,AGR,150,pedazo,el,l,641.7615,641.7616,0.887962963,0.5,0,0,0,,0,225,225,383,1,,,,
,,,,,,20a750f81f089a9c315833ff,66a626ef09d4e21e1a8894ec,67360fd442621318065f2f4d,2024-11-14_08h57.52.799,Tarea de género gramatical,2024.2.2,Win32,59.88023952,,,,,,,,,,,,,,,,,,,,,,,641.7625,642.9283,a,1,0.5001,,[],[],[],[],[],[],[],0.5001,1,642.9283,643.4273,,,,,,808,MAS,CON,150,motivo,,l,643.4274,643.4274,0.887962963,0.5,0,0,0,,0,226,226,357,1,,,,
,,,,,,20a750f81f089a9c315833ff,66a626ef09d4e21e1a8894ec,67360fd442621318065f2f4d,2024-11-14_08h57.52.799,Tarea de género gramatical,2024.2.2,Win32,59.88023952,,,,,,,,,,,,,,,,,,,,,,,643.4281,644.6746,a,1,0.5529,,[],[],[],[],[],[],[],0.5529,1,644.6746,645.1781,,,,,,550,MAS,CON,150,nido,,l,645.1789,645.1795,0.887962963,0.5,0,0,0,,0,227,227,99,1,,,,
,,,,,,20a750f81f089a9c315833ff,66a626ef09d4e21e1a8894ec,67360fd442621318065f2f4d,2024-11-14_08h57.52.799,Tarea de género gramatical,2024.2.2,Win32,59.88023952,,,,,,,,,,,,,,,,,,,,,,,645.1801,646.4245,l,1,0.5632,,[],[],[],[],[],[],[],0.5632,1,646.4246,646.9246,,,,,,453,FEM,AGR,150,cosa,la,a,646.9247,646.9247,0.887962963,0.5,0,0,0,,0,228,228,2,1,,,,
,,,,,,20a750f81f089a9c315833ff,66a626ef09d4e21e1a8894ec,67360fd442621318065f2f4d,2024-11-14_08h57.52.799,Tarea de género gramatical,2024.2.2,Win32,59.88023952,,,,,,,,,,,,,,,,,,,,,,,646.9255,647.9613,a,1,0.3812,,[],[],[],[],[],[],[],0.3812,1,647.9613,648.4579,,,,,,564,MAS,AGR,150,menú,el,l,648.458,648.458,0.887962963,0.5,0,0,0,,0,229,229,113,1,,,,
,,,,,,20a750f81f089a9c315833ff,66a626ef09d4e21e1a8894ec,67360fd442621318065f2f4d,2024-11-14_08h57.52.799,Tarea de género gramatical,2024.2.2,Win32,59.88023952,,,,,,,,,,,,,,,,,,,,,,,648.4589,649.5118,l,1,0.384,,[],[],[],[],[],[],[],0.384,1,649.5118,650.0114,,,,,,889,FEM,CON,150,toalla,,a,650.0114,650.0114,0.887962963,0.5,0,0,0,,0,230,230,438,1,,,,
,,,,,,20a750f81f089a9c315833ff,66a626ef09d4e21e1a8894ec,67360fd442621318065f2f4d,2024-11-14_08h57.52.799,Tarea de género gramatical,2024.2.2,Win32,59.88023952,,,,,,,,,,,,,,,,,,,,,,,650.0122,651.0614,a,0,0.3671,,[],[],[],[],[],[],[],0.3671,0,651.0621,651.5612,,,,,,728,FEM,DIS,150,presa,el,a,651.5621,651.5627,0.887962963,0.5,0,0,0,,0,231,231,277,1,,,,
,,,,,,20a750f81f089a9c315833ff,66a626ef09d4e21e1a8894ec,67360fd442621318065f2f4d,2024-11-14_08h57.52.799,Tarea de género gramatical,2024.2.2,Win32,59.88023952,,,,,,,,,,,,,,,,,,,,,,,651.5633,652.678,l,1,0.4337,,[],[],[],[],[],[],[],0.4337,1,652.6786,653.1744,,,,,,633,FEM,AGR,150,llave,la,a,653.1744,653.1745,0.887962963,0.5,0,0,0,,0,232,232,182,1,,,,
,,,,,,20a750f81f089a9c315833ff,66a626ef09d4e21e1a8894ec,67360fd442621318065f2f4d,2024-11-14_08h57.52.799,Tarea de género gramatical,2024.2.2,Win32,59.88023952,,,,,,,,,,,,,,,,,,,,,,,653.1752,654.1781,a,1,0.3338,,[],[],[],[],[],[],[],0.3338,1,654.1781,654.6743,,,,,,845,MAS,DIS,150,correo,la,l,654.6744,654.6744,0.887962963,0.5,0,0,0,,0,233,233,394,1,,,,
,,,,,,20a750f81f089a9c315833ff,66a626ef09d4e21e1a8894ec,67360fd442621318065f2f4d,2024-11-14_08h57.52.799,Tarea de género gramatical,2024.2.2,Win32,59.88023952,,,,,,,,,,,,,,,,,,,,,,,654.6751,655.6746,l,1,0.3028,,[],[],[],[],[],[],[],0.3028,1,655.6747,656.1778,,,,,,883,FEM,CON,150,huella,,a,656.1779,656.178,0.887962963,0.5,0,0,0,,0,234,234,432,1,,,,
,,,,,,20a750f81f089a9c315833ff,66a626ef09d4e21e1a8894ec,67360fd442621318065f2f4d,2024-11-14_08h57.52.799,Tarea de género gramatical,2024.2.2,Win32,59.88023952,,,,,,,,,,,,,,,,,,,,,,,656.1787,657.2617,a,1,0.4003,,[],[],[],[],[],[],[],0.4003,1,657.2619,657.7615,,,,,,761,MAS,DIS,150,camino,la,l,657.7616,657.7616,0.887962963,0.5,0,0,0,,0,235,235,310,1,,,,
,,,,,,20a750f81f089a9c315833ff,66a626ef09d4e21e1a8894ec,67360fd442621318065f2f4d,2024-11-14_08h57.52.799,Tarea de género gramatical,2024.2.2,Win32,59.88023952,,,,,,,,,,,,,,,,,,,,,,,657.7624,658.8411,a,1,0.4127,,[],[],[],[],[],[],[],0.4127,1,658.8412,659.3411,,,,,,846,MAS,AGR,150,tesoro,el,l,659.342,659.3426,0.887962963,0.5,0,0,0,,0,236,236,395,1,,,,
,,,,,,20a750f81f089a9c315833ff,66a626ef09d4e21e1a8894ec,67360fd442621318065f2f4d,2024-11-14_08h57.52.799,Tarea de género gramatical,2024.2.2,Win32,59.88023952,,,,,,,,,,,,,,,,,,,,,,,659.3432,660.3618,l,1,0.3649,,[],[],[],[],[],[],[],0.3649,1,660.3618,660.8609,,,,,,783,FEM,AGR,150,locura,la,a,660.8609,660.8609,0.887962963,0.5,0,0,0,,0,237,237,332,1,,,,
,,,,,,20a750f81f089a9c315833ff,66a626ef09d4e21e1a8894ec,67360fd442621318065f2f4d,2024-11-14_08h57.52.799,Tarea de género gramatical,2024.2.2,Win32,59.88023952,,,,,,,,,,,,,,,,,,,,,,,660.8618,662.0412,l,0,0.5041,,[],[],[],[],[],[],[],0.5041,0,662.0418,662.5411,,,,,,888,MAS,AGR,150,tanque,el,l,662.5411,662.5413,0.887962963,0.5,0,0,0,,0,238,238,437,1,,,,
,,,,,,20a750f81f089a9c315833ff,66a626ef09d4e21e1a8894ec,67360fd442621318065f2f4d,2024-11-14_08h57.52.799,Tarea de género gramatical,2024.2.2,Win32,59.88023952,,,,,,,,,,,,,,,,,,,,,,,662.542,663.6114,l,1,0.398,,[],[],[],[],[],[],[],0.398,1,663.612,664.1113,,,,,,512,FEM,DIS,150,sopa,el,a,664.1113,664.1114,0.887962963,0.5,0,0,0,,0,239,239,61,1,,,,
,,,,,,20a750f81f089a9c315833ff,66a626ef09d4e21e1a8894ec,67360fd442621318065f2f4d,2024-11-14_08h57.52.799,Tarea de género gramatical,2024.2.2,Win32,59.88023952,,,,,,,,,,,,,,,,,,,,,,,664.1122,665.5911,l,1,0.7901,,[],[],[],[],[],[],[],0.7901,1,665.5912,666.0912,,,,,,681,FEM,AGR,150,bruja,la,a,666.0923,666.0929,0.887962963,0.5,0,0,0,,0,240,240,230,1,,,,
,,,,,,20a750f81f089a9c315833ff,66a626ef09d4e21e1a8894ec,67360fd442621318065f2f4d,2024-11-14_08h57.52.799,Tarea de género gramatical,2024.2.2,Win32,59.88023952,,,,,,,,,,,,,,,,,,,,,,,666.0935,667.1948,l,1,0.4338,,[],[],[],[],[],[],[],0.4338,1,667.1949,667.6947,,,,,,877,FEM,CON,150,agenda,,a,667.6947,667.6948,0.887962963,0.5,0,0,0,,0,241,241,426,1,,,,
,,,,,,20a750f81f089a9c315833ff,66a626ef09d4e21e1a8894ec,67360fd442621318065f2f4d,2024-11-14_08h57.52.799,Tarea de género gramatical,2024.2.2,Win32,59.88023952,,,,,,,,,,,,,,,,,,,,,,,667.6955,668.8748,a,1,0.4862,,[],[],[],[],[],[],[],0.4862,1,668.8748,669.3779,,,,,,586,MAS,CON,150,vago,,l,669.3779,669.3781,0.887962963,0.5,0,0,0,,0,242,242,135,1,,,,
,,,,,,20a750f81f089a9c315833ff,66a626ef09d4e21e1a8894ec,67360fd442621318065f2f4d,2024-11-14_08h57.52.799,Tarea de género gramatical,2024.2.2,Win32,59.88023952,,,,,,,,,,,,,,,,,,,,,,,669.3787,670.4748,l,1,0.4169,,[],[],[],[],[],[],[],0.4169,1,670.4749,670.978,,,,,,829,FEM,CON,150,granja,,a,670.978,670.9781,0.887962963,0.5,0,0,0,,0,243,243,378,1,,,,
,,,,,,20a750f81f089a9c315833ff,66a626ef09d4e21e1a8894ec,67360fd442621318065f2f4d,2024-11-14_08h57.52.799,Tarea de género gramatical,2024.2.2,Win32,59.88023952,,,,,,,,,,,,,,,,,,,,,,,670.9788,672.0412,l,1,0.379,,[],[],[],[],[],[],[],0.379,1,672.0413,672.5412,,,,,,493,FEM,CON,150,nena,,a,672.5413,672.5414,0.887962963,0.5,0,0,0,,0,244,244,42,1,,,,
,,,,,,20a750f81f089a9c315833ff,66a626ef09d4e21e1a8894ec,67360fd442621318065f2f4d,2024-11-14_08h57.52.799,Tarea de género gramatical,2024.2.2,Win32,59.88023952,,,,,,,,,,,,,,,,,,,,,,,672.5425,673.8411,l,1,0.629,,[],[],[],[],[],[],[],0.629,1,673.8412,674.3413,,,,,,458,FEM,DIS,150,idea,el,a,674.3426,674.3432,0.887962963,0.5,0,0,0,,0,245,245,7,1,,,,
,,,,,,20a750f81f089a9c315833ff,66a626ef09d4e21e1a8894ec,67360fd442621318065f2f4d,2024-11-14_08h57.52.799,Tarea de género gramatical,2024.2.2,Win32,59.88023952,,,,,,,,,,,,,,,,,,,,,,,674.3437,675.6248,a,1,0.6134,,[],[],[],[],[],[],[],0.6134,1,675.6248,676.1248,,,,,,772,MAS,CON,150,minuto,,l,676.1249,676.125,0.887962963,0.5,0,0,0,,0,246,246,321,1,,,,
,,,,,,20a750f81f089a9c315833ff,66a626ef09d4e21e1a8894ec,67360fd442621318065f2f4d,2024-11-14_08h57.52.799,Tarea de género gramatical,2024.2.2,Win32,59.88023952,,,,,,,,,,,,,,,,,,,,,,,676.1257,677.1277,a,1,0.3331,,[],[],[],[],[],[],[],0.3331,1,677.1279,677.6248,,,,,,460,MAS,CON,150,niño,,l,677.6248,677.6249,0.887962963,0.5,0,0,0,,0,247,247,9,1,,,,
,,,,,,20a750f81f089a9c315833ff,66a626ef09d4e21e1a8894ec,67360fd442621318065f2f4d,2024-11-14_08h57.52.799,Tarea de género gramatical,2024.2.2,Win32,59.88023952,,,,,,,,,,,,,,,,,,,,,,,677.6257,678.6949,l,1,0.4147,,[],[],[],[],[],[],[],0.4147,1,678.6949,679.1947,,,,,,717,FEM,AGR,150,barba,la,a,679.1947,679.1948,0.887962963,0.5,0,0,0,,0,248,248,266,1,,,,
,,,,,,20a750f81f089a9c315833ff,66a626ef09d4e21e1a8894ec,67360fd442621318065f2f4d,2024-11-14_08h57.52.799,Tarea de género gramatical,2024.2.2,Win32,59.88023952,,,,,,,,,,,,,,,,,,,,,,,679.1956,680.2617,l,1,0.3837,,[],[],[],[],[],[],[],0.3837,1,680.2617,680.7615,,,,,,494,FEM,DIS,150,zona,el,a,680.7625,680.7632,0.887962963,0.5,0,0,0,,0,249,249,43,1,,,,
,,,,,,20a750f81f089a9c315833ff,66a626ef09d4e21e1a8894ec,67360fd442621318065f2f4d,2024-11-14_08h57.52.799,Tarea de género gramatical,2024.2.2,Win32,59.88023952,,,,,,,,,,,,,,,,,,,,,,,680.7639,681.8117,l,0,0.3819,,[],[],[],[],[],[],[],0.3819,0,681.8121,682.3115,,,,,,851,MAS,DIS,150,abrigo,la,l,682.3115,682.3116,0.887962963,0.5,0,0,0,,0,250,250,400,1,,,,
,,,,,,20a750f81f089a9c315833ff,66a626ef09d4e21e1a8894ec,67360fd442621318065f2f4d,2024-11-14_08h57.52.799,Tarea de género gramatical,2024.2.2,Win32,59.88023952,,,,,,,,,,,,,,,,,,,,,,,682.3123,683.4246,a,1,0.4441,,[],[],[],[],[],[],[],0.4441,1,683.4252,683.9247,,,,,,714,MAS,AGR,150,pollo,el,l,683.9248,683.925,0.887962963,0.5,0,0,0,,0,251,251,263,1,,,,
,,,,,,20a750f81f089a9c315833ff,66a626ef09d4e21e1a8894ec,67360fd442621318065f2f4d,2024-11-14_08h57.52.799,Tarea de género gramatical,2024.2.2,Win32,59.88023952,,,,,,,,,,,,,,,,,,,,,,,683.9258,684.9913,l,1,0.4036,,[],[],[],[],[],[],[],0.4036,1,684.9914,685.4914,,,,,,537,FEM,AGR,150,risa,la,a,685.4914,685.4916,0.887962963,0.5,0,0,0,,0,252,252,86,1,,,,
,,,,,,20a750f81f089a9c315833ff,66a626ef09d4e21e1a8894ec,67360fd442621318065f2f4d,2024-11-14_08h57.52.799,Tarea de género gramatical,2024.2.2,Win32,59.88023952,,,,,,,,,,,,,,,,,,,,,,,685.4923,686.4784,l,1,0.3172,,[],[],[],[],[],[],[],0.3172,1,686.4785,686.9781,,,,,,692,FEM,DIS,150,pizza,el,a,686.9781,686.9782,0.887962963,0.5,0,0,0,,0,253,253,241,1,,,,
,,,,,,20a750f81f089a9c315833ff,66a626ef09d4e21e1a8894ec,67360fd442621318065f2f4d,2024-11-14_08h57.52.799,Tarea de género gramatical,2024.2.2,Win32,59.88023952,,,,,,,,,,,,,,,,,,,,,,,686.979,688.0788,l,1,0.4172,,[],[],[],[],[],[],[],0.4172,1,688.0789,688.5748,,,,,,729,FEM,AGR,150,selva,la,a,688.5757,688.5763,0.887962963,0.5,0,0,0,,0,254,254,278,1,,,,
,,,,,,20a750f81f089a9c315833ff,66a626ef09d4e21e1a8894ec,67360fd442621318065f2f4d,2024-11-14_08h57.52.799,Tarea de género gramatical,2024.2.2,Win32,59.88023952,,,,,,,,,,,,,,,,,,,,,,,688.5768,689.5283,l,0,0.2686,,[],[],[],[],[],[],[],0.2686,0,689.5288,690.0284,,,,,,516,MAS,AGR,150,muro,el,l,690.0284,690.0284,0.887962963,0.5,0,0,0,,0,255,255,65,1,,,,
,,,,,,20a750f81f089a9c315833ff,66a626ef09d4e21e1a8894ec,67360fd442621318065f2f4d,2024-11-14_08h57.52.799,Tarea de género gramatical,2024.2.2,Win32,59.88023952,,,,,,,,,,,,,,,,,,,,,,,690.0293,691.1283,a,1,0.417,,[],[],[],[],[],[],[],0.417,1,691.1288,691.6249,,,,,,534,MAS,AGR,150,mago,el,l,691.6249,691.625,0.887962963,0.5,0,0,0,,0,256,256,83,1,,,,
,,,,,,20a750f81f089a9c315833ff,66a626ef09d4e21e1a8894ec,67360fd442621318065f2f4d,2024-11-14_08h57.52.799,Tarea de género gramatical,2024.2.2,Win32,59.88023952,,,,,,,,,,,,,,,,,,,,,,,691.6258,692.6284,l,1,0.334,,[],[],[],[],[],[],[],0.334,1,692.6284,693.125,,,,,,865,FEM,CON,150,cabina,,a,693.125,693.1251,0.887962963,0.5,0,0,0,,0,257,257,414,1,,,,
,,,,,,20a750f81f089a9c315833ff,66a626ef09d4e21e1a8894ec,67360fd442621318065f2f4d,2024-11-14_08h57.52.799,Tarea de género gramatical,2024.2.2,Win32,59.88023952,,,,,,,,,,,,,,,,,,,,,,,693.126,694.2413,l,1,0.4515,,[],[],[],[],[],[],[],0.4515,1,694.2414,694.7414,,,,,,609,FEM,AGR,150,clase,la,a,694.7423,694.743,0.887962963,0.5,0,0,0,,0,258,258,158,1,,,,
