counterbalancing_condition,consent_prescreening.block_1/declare_consent,consent_prescreening.block_1/age_years,consent_prescreening.block_1/gender,consent_prescreening.block_1/language_disorder,consent_prescreening.block_1/first_language,PROLIFIC_PID,STUDY_ID,SESSION_ID,date,expName,psychopyVersion,OS,frameRate,check_prescreening_answers.started,check_prescreening_answers.stopped,Instructions.started,Instructions.stopped,instr_done_keyboard.keys,instr_done_keyboard.rt,instr_done_keyboard.duration,instr_done_touch.x,instr_done_touch.y,instr_done_touch.leftButton,instr_done_touch.midButton,instr_done_touch.rightButton,instruction_pages.thisRepN,instruction_pages.thisTrialN,instruction_pages.thisN,instruction_pages.thisIndex,instruction_pages.ran,pageN,phase,instruct_text,has_image,instruct_image,presentTrial.started,presentTrial.stopped,response.keys,response.corr,response.rt,response.duration,touch_resp.x,touch_resp.y,touch_resp.leftButton,touch_resp.midButton,touch_resp.rightButton,touch_resp.time,touch_resp.clicked_name,rt,corr,feedback.started,feedback.stopped,practice_trials.thisRepN,practice_trials.thisTrialN,practice_trials.thisN,practice_trials.thisIndex,practice_trials.ran,TrialID,StimulusType,Condition,PrimeDuration,Prime,Flanker,corrAns,Break.started,Break.stopped,break_done_touch.x,break_done_touch.y,break_done_touch.leftButton,break_done_touch.midButton,break_done_touch.rightButton,break_done_keyboard.keys,experiment_trials.thisRepN,experiment_trials.thisTrialN,experiment_trials.thisN,experiment_trials.thisIndex,experiment_trials.ran,break_done_keyboard.rt,break_done_keyboard.duration,End.started,End.stopped
0,"[""over_18"",""comfortable"",""read_info"",""consent_given""]",22,F,"[""none""]","[""spanish""]",224114e4921e99353e1c31cb,66a626ef09d4e21e1a8894ec,6737883c4ae457ac63c1b3c8,2024-11-15_11h44.02.201,Tarea de género gramatical,2024.2.2,Win32,60.24096386,,,,,,,,,,,,,,,,,,,,,,,,,,,,,,,,,,,,,,,,,,,,,,,,,,,,,,,,,,,,,,,,,,,,
,,,,,,224114e4921e99353e1c31cb,66a626ef09d4e21e1a8894ec,6737883c4ae457ac63c1b3c8,2024-11-15_11h44.02.201,Tarea de género gramatical,2024.2.2,Win32,60.24096386,34.7093,34.7095,,,,,,,,,,,,,,,,,,,,,,,,,,,,,,,,,,,,,,,,,,,,,,,,,,,,,,,,,,,,,,,,,,
,,,,,,224114e4921e99353e1c31cb,66a626ef09d4e21e1a8894ec,6737883c4ae457ac63c1b3c8,2024-11-15_11h44.02.201,Tarea de género gramatical,2024.2.2,Win32,60.24096386,,,34.7554,114.6213,space,79.776,,-0.027960526,-0.120614035,0,0,0,0,0,0,0,1,1,instructions,"INSTRUCCIONES
Va a realizar una prueba de selección gramatical. Desde el comienzo de la prueba mire siempre al centro de la pantalla. Al cabo de un momento, aparecerán palabras. La tarea consiste en determinar si la palabra del centro (siempre será un sustantivo), pertenece al género masculino o femenino.

Pulse la tecla ESPACIO o toque el botón de abajo para continuar.",0,keyboardresponseFM.png,,,,,,,,,,,,,,,,,,,,,,,,,,,,,,,,,,,,,,,,,,,,,,
,,,,,,224114e4921e99353e1c31cb,66a626ef09d4e21e1a8894ec,6737883c4ae457ac63c1b3c8,2024-11-15_11h44.02.201,Tarea de género gramatical,2024.2.2,Win32,60.24096386,,,114.6283,174.3887,space,59.6637,,-0.027960526,-0.120614035,0,0,0,0,1,1,1,1,2,instructions,"Si su dispositivo tiene teclado, pulse la tecla ""A"" para las palabras en femenino (por ejemplo: ""mano"") y la tecla ""L"" para las palabras en masculino(por ejemplo: ""arroz"").
Pulse la tecla ESPACIO o toque el botón de abajo para continuar.",1,keyboardresponseFM.png,,,,,,,,,,,,,,,,,,,,,,,,,,,,,,,,,,,,,,,,,,,,,,
,,,,,,224114e4921e99353e1c31cb,66a626ef09d4e21e1a8894ec,6737883c4ae457ac63c1b3c8,2024-11-15_11h44.02.201,Tarea de género gramatical,2024.2.2,Win32,60.24096386,,,174.3947,239.2313,space,64.7629,,-0.027960526,-0.120614035,0,0,0,0,2,2,2,1,3,instructions,"Si utiliza un dispositivo sólo táctil, colóquelo en horizontal y utilice los botones de la pantalla. No utilice el ratón.
Pulse la tecla ESPACIO o toque el botón de abajo para continuar.",2,touchresponseFM.png,,,,,,,,,,,,,,,,,,,,,,,,,,,,,,,,,,,,,,,,,,,,,,
,,,,,,224114e4921e99353e1c31cb,66a626ef09d4e21e1a8894ec,6737883c4ae457ac63c1b3c8,2024-11-15_11h44.02.201,Tarea de género gramatical,2024.2.2,Win32,60.24096386,,,239.2388,249.1124,space,9.8497,,-0.027960526,-0.120614035,0,0,0,0,3,3,3,1,4,instructions,"Es muy importante que responda con la mayor rapidez y precisión posibles, ya que cada cadena de letras sólo estará en pantalla durante un instante. Si no responde en ese tiempo, aparecerá el mensaje ""Muy lento"" y el experimento pasará a la siguiente palabra. Los primeros 15 intentos serán de práctica y habrá dos descansos durante la prueba.
Pulse la tecla ESPACIO o toque el botón de abajo para iniciar la parte de práctica.",0,keyboardresponseFM.png,,,,,,,,,,,,,,,,,,,,,,,,,,,,,,,,,,,,,,,,,,,,,,
,,,,,,224114e4921e99353e1c31cb,66a626ef09d4e21e1a8894ec,6737883c4ae457ac63c1b3c8,2024-11-15_11h44.02.201,Tarea de género gramatical,2024.2.2,Win32,60.24096386,,,,,,,,,,,,,,,,,,,,,,,249.1882,250.5274,a,0,0.6583,,[],[],[],[],[],[],[],0.6583,0,250.528,251.0178,0,0,0,11,1,2012,MAS,DIS,150,clima,la,l,,,,,,,,,,,,,,,,,
,,,,,,224114e4921e99353e1c31cb,66a626ef09d4e21e1a8894ec,6737883c4ae457ac63c1b3c8,2024-11-15_11h44.02.201,Tarea de género gramatical,2024.2.2,Win32,60.24096386,,,,,,,,,,,,,,,,,,,,,,,251.023,253.1227,a,0,1.4323,,[],[],[],[],[],[],[],1.4323,0,253.1232,253.624,0,1,1,8,1,2009,MAS,DIS,150,puerto,la,l,,,,,,,,,,,,,,,,,
,,,,,,224114e4921e99353e1c31cb,66a626ef09d4e21e1a8894ec,6737883c4ae457ac63c1b3c8,2024-11-15_11h44.02.201,Tarea de género gramatical,2024.2.2,Win32,60.24096386,,,,,,,,,,,,,,,,,,,,,,,253.6259,254.4777,l,1,0.1725,,[],[],[],[],[],[],[],0.1725,1,254.4799,254.9746,0,2,2,12,1,2013,MAS,AGR,150,acero,el,l,,,,,,,,,,,,,,,,,
,,,,,,224114e4921e99353e1c31cb,66a626ef09d4e21e1a8894ec,6737883c4ae457ac63c1b3c8,2024-11-15_11h44.02.201,Tarea de género gramatical,2024.2.2,Win32,60.24096386,,,,,,,,,,,,,,,,,,,,,,,254.9787,255.9087,a,1,0.2558,,[],[],[],[],[],[],[],0.2558,1,255.9088,256.4039,0,3,3,6,1,2007,FEM,AGR,150,navaja,la,a,,,,,,,,,,,,,,,,,
,,,,,,224114e4921e99353e1c31cb,66a626ef09d4e21e1a8894ec,6737883c4ae457ac63c1b3c8,2024-11-15_11h44.02.201,Tarea de género gramatical,2024.2.2,Win32,60.24096386,,,,,,,,,,,,,,,,,,,,,,,256.4075,257.3776,a,0,0.2903,,[],[],[],[],[],[],[],0.2903,0,257.38,257.8762,0,4,4,9,1,2010,MAS,AGR,150,vecino,el,l,,,,,,,,,,,,,,,,,
,,,,,,224114e4921e99353e1c31cb,66a626ef09d4e21e1a8894ec,6737883c4ae457ac63c1b3c8,2024-11-15_11h44.02.201,Tarea de género gramatical,2024.2.2,Win32,60.24096386,,,,,,,,,,,,,,,,,,,,,,,257.8802,259.1127,l,1,0.5552,,[],[],[],[],[],[],[],0.5552,1,259.1137,259.6107,0,5,5,14,1,2015,MAS,DIS,150,robot,la,l,,,,,,,,,,,,,,,,,
,,,,,,224114e4921e99353e1c31cb,66a626ef09d4e21e1a8894ec,6737883c4ae457ac63c1b3c8,2024-11-15_11h44.02.201,Tarea de género gramatical,2024.2.2,Win32,60.24096386,,,,,,,,,,,,,,,,,,,,,,,259.6145,260.6485,a,1,0.3561,,[],[],[],[],[],[],[],0.3561,1,260.6486,261.1457,0,6,6,2,1,2003,FEM,DIS,150,daga,el,a,,,,,,,,,,,,,,,,,
,,,,,,224114e4921e99353e1c31cb,66a626ef09d4e21e1a8894ec,6737883c4ae457ac63c1b3c8,2024-11-15_11h44.02.201,Tarea de género gramatical,2024.2.2,Win32,60.24096386,,,,,,,,,,,,,,,,,,,,,,,261.1489,262.0801,l,1,0.2534,,[],[],[],[],[],[],[],0.2534,1,262.0802,262.5792,0,7,7,13,1,2014,MAS,CON,150,siglo,,l,,,,,,,,,,,,,,,,,
,,,,,,224114e4921e99353e1c31cb,66a626ef09d4e21e1a8894ec,6737883c4ae457ac63c1b3c8,2024-11-15_11h44.02.201,Tarea de género gramatical,2024.2.2,Win32,60.24096386,,,,,,,,,,,,,,,,,,,,,,,262.5816,263.6661,a,1,0.4054,,[],[],[],[],[],[],[],0.4054,1,263.6662,264.1639,0,8,8,5,1,2006,FEM,DIS,150,serie,el,a,,,,,,,,,,,,,,,,,
,,,,,,224114e4921e99353e1c31cb,66a626ef09d4e21e1a8894ec,6737883c4ae457ac63c1b3c8,2024-11-15_11h44.02.201,Tarea de género gramatical,2024.2.2,Win32,60.24096386,,,,,,,,,,,,,,,,,,,,,,,264.1664,265.3691,l,1,0.524,,[],[],[],[],[],[],[],0.524,1,265.3692,265.8649,0,9,9,10,1,2011,MAS,CON,150,canal,,l,,,,,,,,,,,,,,,,,
,,,,,,224114e4921e99353e1c31cb,66a626ef09d4e21e1a8894ec,6737883c4ae457ac63c1b3c8,2024-11-15_11h44.02.201,Tarea de género gramatical,2024.2.2,Win32,60.24096386,,,,,,,,,,,,,,,,,,,,,,,265.8674,267.0356,a,1,0.4965,,[],[],[],[],[],[],[],0.4965,1,267.0358,267.533,0,10,10,0,1,2001,FEM,AGR,150,nuca,la,a,,,,,,,,,,,,,,,,,
,,,,,,224114e4921e99353e1c31cb,66a626ef09d4e21e1a8894ec,6737883c4ae457ac63c1b3c8,2024-11-15_11h44.02.201,Tarea de género gramatical,2024.2.2,Win32,60.24096386,,,,,,,,,,,,,,,,,,,,,,,267.5346,268.654,a,1,0.4393,,[],[],[],[],[],[],[],0.4393,1,268.6541,269.1505,0,11,11,1,1,2002,FEM,CON,150,pala,,a,,,,,,,,,,,,,,,,,
,,,,,,224114e4921e99353e1c31cb,66a626ef09d4e21e1a8894ec,6737883c4ae457ac63c1b3c8,2024-11-15_11h44.02.201,Tarea de género gramatical,2024.2.2,Win32,60.24096386,,,,,,,,,,,,,,,,,,,,,,,269.1537,270.2557,a,1,0.4238,,[],[],[],[],[],[],[],0.4238,1,270.2559,270.7527,0,12,12,4,1,2005,FEM,CON,150,placa,,a,,,,,,,,,,,,,,,,,
,,,,,,224114e4921e99353e1c31cb,66a626ef09d4e21e1a8894ec,6737883c4ae457ac63c1b3c8,2024-11-15_11h44.02.201,Tarea de género gramatical,2024.2.2,Win32,60.24096386,,,,,,,,,,,,,,,,,,,,,,,270.7546,271.8229,a,1,0.3898,,[],[],[],[],[],[],[],0.3898,1,271.8232,272.3193,0,13,13,3,1,2004,FEM,AGR,150,venta,la,a,,,,,,,,,,,,,,,,,
,,,,,,224114e4921e99353e1c31cb,66a626ef09d4e21e1a8894ec,6737883c4ae457ac63c1b3c8,2024-11-15_11h44.02.201,Tarea de género gramatical,2024.2.2,Win32,60.24096386,,,,,,,,,,,,,,,,,,,,,,,272.3223,273.4407,a,1,0.4399,,[],[],[],[],[],[],[],0.4399,1,273.4409,273.9374,0,14,14,7,1,2008,FEM,CON,150,siesta,,a,,,,,,,,,,,,,,,,,
,,,,,,224114e4921e99353e1c31cb,66a626ef09d4e21e1a8894ec,6737883c4ae457ac63c1b3c8,2024-11-15_11h44.02.201,Tarea de género gramatical,2024.2.2,Win32,60.24096386,,,279.3654,288.9482,space,9.563,,-0.016995614,-0.403508772,0,0,0,,,,,,,,,,,289.1094,290.2193,a,1,0.4398,,[],[],[],[],[],[],[],0.4398,1,290.2195,290.7158,,,,,,411,FEM,DIS,150,actriz,el,a,290.7167,290.7253,-0.016995614,-0.403508772,0,0,0,,0,0,0,410,1,,,,
,,,,,,224114e4921e99353e1c31cb,66a626ef09d4e21e1a8894ec,6737883c4ae457ac63c1b3c8,2024-11-15_11h44.02.201,Tarea de género gramatical,2024.2.2,Win32,60.24096386,,,,,,,,,,,,,,,,,,,,,,,290.7267,291.8696,a,1,0.4728,,[],[],[],[],[],[],[],0.4728,1,291.8697,292.3664,,,,,,308,FEM,CON,150,semana,,a,292.3667,292.3671,-0.016995614,-0.403508772,0,0,0,,0,1,1,307,1,,,,
,,,,,,224114e4921e99353e1c31cb,66a626ef09d4e21e1a8894ec,6737883c4ae457ac63c1b3c8,2024-11-15_11h44.02.201,Tarea de género gramatical,2024.2.2,Win32,60.24096386,,,,,,,,,,,,,,,,,,,,,,,292.3699,293.4194,a,1,0.3714,,[],[],[],[],[],[],[],0.3714,1,293.4195,293.9181,,,,,,170,FEM,CON,150,carta,,a,293.9214,293.9229,-0.016995614,-0.403508772,0,0,0,,0,2,2,169,1,,,,
,,,,,,224114e4921e99353e1c31cb,66a626ef09d4e21e1a8894ec,6737883c4ae457ac63c1b3c8,2024-11-15_11h44.02.201,Tarea de género gramatical,2024.2.2,Win32,60.24096386,,,,,,,,,,,,,,,,,,,,,,,293.925,295.0729,l,1,0.4734,,[],[],[],[],[],[],[],0.4734,1,295.0731,295.5687,,,,,,178,MAS,AGR,150,punto,el,l,295.569,295.5695,-0.016995614,-0.403508772,0,0,0,,0,3,3,177,1,,,,
,,,,,,224114e4921e99353e1c31cb,66a626ef09d4e21e1a8894ec,6737883c4ae457ac63c1b3c8,2024-11-15_11h44.02.201,Tarea de género gramatical,2024.2.2,Win32,60.24096386,,,,,,,,,,,,,,,,,,,,,,,295.5723,296.7734,a,1,0.523,,[],[],[],[],[],[],[],0.523,1,296.7736,297.2701,,,,,,56,FEM,CON,150,bola,,a,297.2702,297.2706,-0.016995614,-0.403508772,0,0,0,,0,4,4,55,1,,,,
,,,,,,224114e4921e99353e1c31cb,66a626ef09d4e21e1a8894ec,6737883c4ae457ac63c1b3c8,2024-11-15_11h44.02.201,Tarea de género gramatical,2024.2.2,Win32,60.24096386,,,,,,,,,,,,,,,,,,,,,,,297.2734,298.5744,a,0,0.6228,,[],[],[],[],[],[],[],0.6228,0,298.5758,299.0707,,,,,,306,MAS,DIS,150,dinero,la,l,299.0708,299.0713,-0.016995614,-0.403508772,0,0,0,,0,5,5,305,1,,,,
,,,,,,224114e4921e99353e1c31cb,66a626ef09d4e21e1a8894ec,6737883c4ae457ac63c1b3c8,2024-11-15_11h44.02.201,Tarea de género gramatical,2024.2.2,Win32,60.24096386,,,,,,,,,,,,,,,,,,,,,,,299.0736,300.3753,l,0,0.6228,,[],[],[],[],[],[],[],0.6228,0,300.3755,300.8726,,,,,,63,FEM,DIS,150,fila,el,a,300.877,300.8788,-0.016995614,-0.403508772,0,0,0,,0,6,6,62,1,,,,
,,,,,,224114e4921e99353e1c31cb,66a626ef09d4e21e1a8894ec,6737883c4ae457ac63c1b3c8,2024-11-15_11h44.02.201,Tarea de género gramatical,2024.2.2,Win32,60.24096386,,,,,,,,,,,,,,,,,,,,,,,300.8808,301.9259,a,1,0.3722,,[],[],[],[],[],[],[],0.3722,1,301.9271,302.4233,,,,,,297,FEM,DIS,150,manta,el,a,302.4235,302.424,-0.016995614,-0.403508772,0,0,0,,0,7,7,296,1,,,,
,,,,,,224114e4921e99353e1c31cb,66a626ef09d4e21e1a8894ec,6737883c4ae457ac63c1b3c8,2024-11-15_11h44.02.201,Tarea de género gramatical,2024.2.2,Win32,60.24096386,,,,,,,,,,,,,,,,,,,,,,,302.4271,303.5776,a,0,0.4724,,[],[],[],[],[],[],[],0.4724,0,303.5789,304.0763,,,,,,250,MAS,AGR,150,cerdo,el,l,304.0766,304.0767,-0.016995614,-0.403508772,0,0,0,,0,8,8,249,1,,,,
,,,,,,224114e4921e99353e1c31cb,66a626ef09d4e21e1a8894ec,6737883c4ae457ac63c1b3c8,2024-11-15_11h44.02.201,Tarea de género gramatical,2024.2.2,Win32,60.24096386,,,,,,,,,,,,,,,,,,,,,,,304.0785,305.3302,a,0,0.5744,,[],[],[],[],[],[],[],0.5744,0,305.3306,305.8257,,,,,,144,MAS,DIS,150,amor,la,l,305.8259,305.8265,-0.016995614,-0.403508772,0,0,0,,0,9,9,143,1,,,,
,,,,,,224114e4921e99353e1c31cb,66a626ef09d4e21e1a8894ec,6737883c4ae457ac63c1b3c8,2024-11-15_11h44.02.201,Tarea de género gramatical,2024.2.2,Win32,60.24096386,,,,,,,,,,,,,,,,,,,,,,,305.8293,306.93,a,1,0.4231,,[],[],[],[],[],[],[],0.4231,1,306.9312,307.4267,,,,,,223,FEM,AGR,150,plata,la,a,307.427,307.4275,-0.016995614,-0.403508772,0,0,0,,0,10,10,222,1,,,,
,,,,,,224114e4921e99353e1c31cb,66a626ef09d4e21e1a8894ec,6737883c4ae457ac63c1b3c8,2024-11-15_11h44.02.201,Tarea de género gramatical,2024.2.2,Win32,60.24096386,,,,,,,,,,,,,,,,,,,,,,,307.4309,308.5176,a,1,0.4089,,[],[],[],[],[],[],[],0.4089,1,308.5177,309.0118,,,,,,385,FEM,AGR,150,muñeca,la,a,309.015,309.0163,-0.016995614,-0.403508772,0,0,0,,0,11,11,384,1,,,,
,,,,,,224114e4921e99353e1c31cb,66a626ef09d4e21e1a8894ec,6737883c4ae457ac63c1b3c8,2024-11-15_11h44.02.201,Tarea de género gramatical,2024.2.2,Win32,60.24096386,,,,,,,,,,,,,,,,,,,,,,,309.018,310.2001,l,0,0.507,,[],[],[],[],[],[],[],0.507,0,310.2015,310.696,,,,,,351,FEM,DIS,150,espada,el,a,310.6962,310.6965,-0.016995614,-0.403508772,0,0,0,,0,12,12,350,1,,,,
,,,,,,224114e4921e99353e1c31cb,66a626ef09d4e21e1a8894ec,6737883c4ae457ac63c1b3c8,2024-11-15_11h44.02.201,Tarea de género gramatical,2024.2.2,Win32,60.24096386,,,,,,,,,,,,,,,,,,,,,,,310.6994,311.9179,a,1,0.5402,,[],[],[],[],[],[],[],0.5402,1,311.9197,312.4134,,,,,,409,FEM,AGR,150,moneda,la,a,312.4134,312.4141,-0.016995614,-0.403508772,0,0,0,,0,13,13,408,1,,,,
,,,,,,224114e4921e99353e1c31cb,66a626ef09d4e21e1a8894ec,6737883c4ae457ac63c1b3c8,2024-11-15_11h44.02.201,Tarea de género gramatical,2024.2.2,Win32,60.24096386,,,,,,,,,,,,,,,,,,,,,,,312.4177,313.6155,l,1,0.5211,,[],[],[],[],[],[],[],0.5211,1,313.6156,314.11,,,,,,65,MAS,CON,150,rayo,,l,314.1101,314.1105,-0.016995614,-0.403508772,0,0,0,,0,14,14,64,1,,,,
,,,,,,224114e4921e99353e1c31cb,66a626ef09d4e21e1a8894ec,6737883c4ae457ac63c1b3c8,2024-11-15_11h44.02.201,Tarea de género gramatical,2024.2.2,Win32,60.24096386,,,,,,,,,,,,,,,,,,,,,,,314.1131,315.2843,l,1,0.4909,,[],[],[],[],[],[],[],0.4909,1,315.2845,315.7781,,,,,,100,MAS,AGR,150,nido,el,l,315.7822,315.7836,-0.016995614,-0.403508772,0,0,0,,0,15,15,99,1,,,,
,,,,,,224114e4921e99353e1c31cb,66a626ef09d4e21e1a8894ec,6737883c4ae457ac63c1b3c8,2024-11-15_11h44.02.201,Tarea de género gramatical,2024.2.2,Win32,60.24096386,,,,,,,,,,,,,,,,,,,,,,,315.7851,317.1188,l,0,0.6574,,[],[],[],[],[],[],[],0.6574,0,317.1203,317.6171,,,,,,163,FEM,AGR,150,calle,la,a,317.6172,317.6177,-0.016995614,-0.403508772,0,0,0,,0,16,16,162,1,,,,
,,,,,,224114e4921e99353e1c31cb,66a626ef09d4e21e1a8894ec,6737883c4ae457ac63c1b3c8,2024-11-15_11h44.02.201,Tarea de género gramatical,2024.2.2,Win32,60.24096386,,,,,,,,,,,,,,,,,,,,,,,317.6203,318.8367,l,1,0.5386,,[],[],[],[],[],[],[],0.5386,1,318.8377,319.335,,,,,,22,MAS,AGR,150,pelo,el,l,319.3351,319.3353,-0.016995614,-0.403508772,0,0,0,,0,17,17,21,1,,,,
,,,,,,224114e4921e99353e1c31cb,66a626ef09d4e21e1a8894ec,6737883c4ae457ac63c1b3c8,2024-11-15_11h44.02.201,Tarea de género gramatical,2024.2.2,Win32,60.24096386,,,,,,,,,,,,,,,,,,,,,,,319.3377,320.323,a,1,0.3064,,[],[],[],[],[],[],[],0.3064,1,320.3231,320.819,,,,,,62,FEM,CON,150,sopa,,a,320.8192,320.8194,-0.016995614,-0.403508772,0,0,0,,0,18,18,61,1,,,,
,,,,,,224114e4921e99353e1c31cb,66a626ef09d4e21e1a8894ec,6737883c4ae457ac63c1b3c8,2024-11-15_11h44.02.201,Tarea de género gramatical,2024.2.2,Win32,60.24096386,,,,,,,,,,,,,,,,,,,,,,,320.8213,321.8236,a,1,0.3228,,[],[],[],[],[],[],[],0.3228,1,321.8238,322.3204,,,,,,285,FEM,DIS,150,mafia,el,a,322.3206,322.3211,-0.016995614,-0.403508772,0,0,0,,0,19,19,284,1,,,,
,,,,,,224114e4921e99353e1c31cb,66a626ef09d4e21e1a8894ec,6737883c4ae457ac63c1b3c8,2024-11-15_11h44.02.201,Tarea de género gramatical,2024.2.2,Win32,60.24096386,,,,,,,,,,,,,,,,,,,,,,,322.3239,323.4883,a,1,0.4866,,[],[],[],[],[],[],[],0.4866,1,323.4885,323.9834,,,,,,344,FEM,CON,150,pareja,,a,323.9875,323.9887,-0.016995614,-0.403508772,0,0,0,,0,20,20,343,1,,,,
,,,,,,224114e4921e99353e1c31cb,66a626ef09d4e21e1a8894ec,6737883c4ae457ac63c1b3c8,2024-11-15_11h44.02.201,Tarea de género gramatical,2024.2.2,Win32,60.24096386,,,,,,,,,,,,,,,,,,,,,,,323.99,325.4725,l,1,0.8052,,[],[],[],[],[],[],[],0.8052,1,325.4727,325.9681,,,,,,18,MAS,DIS,150,tren,la,l,325.9683,325.969,-0.016995614,-0.403508772,0,0,0,,0,21,21,17,1,,,,
,,,,,,224114e4921e99353e1c31cb,66a626ef09d4e21e1a8894ec,6737883c4ae457ac63c1b3c8,2024-11-15_11h44.02.201,Tarea de género gramatical,2024.2.2,Win32,60.24096386,,,,,,,,,,,,,,,,,,,,,,,325.9713,327.0918,l,1,0.4401,,[],[],[],[],[],[],[],0.4401,1,327.092,327.586,,,,,,395,MAS,CON,150,correo,,l,327.5862,327.5864,-0.016995614,-0.403508772,0,0,0,,0,22,22,394,1,,,,
,,,,,,224114e4921e99353e1c31cb,66a626ef09d4e21e1a8894ec,6737883c4ae457ac63c1b3c8,2024-11-15_11h44.02.201,Tarea de género gramatical,2024.2.2,Win32,60.24096386,,,,,,,,,,,,,,,,,,,,,,,327.589,328.7928,l,1,0.5238,,[],[],[],[],[],[],[],0.5238,1,328.793,329.2876,,,,,,35,MAS,CON,150,taxi,,l,329.2878,329.2882,-0.016995614,-0.403508772,0,0,0,,0,23,23,34,1,,,,
,,,,,,224114e4921e99353e1c31cb,66a626ef09d4e21e1a8894ec,6737883c4ae457ac63c1b3c8,2024-11-15_11h44.02.201,Tarea de género gramatical,2024.2.2,Win32,60.24096386,,,,,,,,,,,,,,,,,,,,,,,329.2912,330.5432,l,1,0.5723,,[],[],[],[],[],[],[],0.5723,1,330.5433,331.0562,,,,,,47,MAS,CON,150,olor,,l,331.0596,331.061,-0.016995614,-0.403508772,0,0,0,,0,24,24,46,1,,,,
,,,,,,224114e4921e99353e1c31cb,66a626ef09d4e21e1a8894ec,6737883c4ae457ac63c1b3c8,2024-11-15_11h44.02.201,Tarea de género gramatical,2024.2.2,Win32,60.24096386,,,,,,,,,,,,,,,,,,,,,,,331.0634,332.0784,l,1,0.3398,,[],[],[],[],[],[],[],0.3398,1,332.0785,332.5729,,,,,,365,MAS,CON,150,código,,l,332.573,332.5733,-0.016995614,-0.403508772,0,0,0,,0,25,25,364,1,,,,
,,,,,,224114e4921e99353e1c31cb,66a626ef09d4e21e1a8894ec,6737883c4ae457ac63c1b3c8,2024-11-15_11h44.02.201,Tarea de género gramatical,2024.2.2,Win32,60.24096386,,,,,,,,,,,,,,,,,,,,,,,332.5769,333.692,l,1,0.4359,,[],[],[],[],[],[],[],0.4359,1,333.6922,334.1905,,,,,,58,MAS,AGR,150,mono,el,l,334.1905,334.1908,-0.016995614,-0.403508772,0,0,0,,0,26,26,57,1,,,,
,,,,,,224114e4921e99353e1c31cb,66a626ef09d4e21e1a8894ec,6737883c4ae457ac63c1b3c8,2024-11-15_11h44.02.201,Tarea de género gramatical,2024.2.2,Win32,60.24096386,,,,,,,,,,,,,,,,,,,,,,,334.1934,335.461,a,1,0.5871,,[],[],[],[],[],[],[],0.5871,1,335.4612,335.9589,,,,,,404,FEM,CON,150,gloria,,a,335.9591,335.9595,-0.016995614,-0.403508772,0,0,0,,0,27,27,403,1,,,,
,,,,,,224114e4921e99353e1c31cb,66a626ef09d4e21e1a8894ec,6737883c4ae457ac63c1b3c8,2024-11-15_11h44.02.201,Tarea de género gramatical,2024.2.2,Win32,60.24096386,,,,,,,,,,,,,,,,,,,,,,,335.9623,336.9816,a,1,0.3558,,[],[],[],[],[],[],[],0.3558,1,336.9817,337.4759,,,,,,373,FEM,AGR,150,lluvia,la,a,337.476,337.4763,-0.016995614,-0.403508772,0,0,0,,0,28,28,372,1,,,,
,,,,,,224114e4921e99353e1c31cb,66a626ef09d4e21e1a8894ec,6737883c4ae457ac63c1b3c8,2024-11-15_11h44.02.201,Tarea de género gramatical,2024.2.2,Win32,60.24096386,,,,,,,,,,,,,,,,,,,,,,,337.479,338.5327,a,1,0.3732,,[],[],[],[],[],[],[],0.3732,1,338.5328,339.0269,,,,,,145,FEM,AGR,150,bota,la,a,339.0317,339.0331,-0.016995614,-0.403508772,0,0,0,,0,29,29,144,1,,,,
,,,,,,224114e4921e99353e1c31cb,66a626ef09d4e21e1a8894ec,6737883c4ae457ac63c1b3c8,2024-11-15_11h44.02.201,Tarea de género gramatical,2024.2.2,Win32,60.24096386,,,,,,,,,,,,,,,,,,,,,,,339.0346,340.0236,l,1,0.3131,,[],[],[],[],[],[],[],0.3131,1,340.0237,340.5118,,,,,,52,MAS,AGR,150,lago,el,l,340.5119,340.512,-0.016995614,-0.403508772,0,0,0,,0,30,30,51,1,,,,
,,,,,,224114e4921e99353e1c31cb,66a626ef09d4e21e1a8894ec,6737883c4ae457ac63c1b3c8,2024-11-15_11h44.02.201,Tarea de género gramatical,2024.2.2,Win32,60.24096386,,,,,,,,,,,,,,,,,,,,,,,340.5151,341.551,a,1,0.3557,,[],[],[],[],[],[],[],0.3557,1,341.5511,342.0451,,,,,,391,FEM,AGR,150,altura,la,a,342.0453,342.0459,-0.016995614,-0.403508772,0,0,0,,0,31,31,390,1,,,,
,,,,,,224114e4921e99353e1c31cb,66a626ef09d4e21e1a8894ec,6737883c4ae457ac63c1b3c8,2024-11-15_11h44.02.201,Tarea de género gramatical,2024.2.2,Win32,60.24096386,,,,,,,,,,,,,,,,,,,,,,,342.0476,343.1184,l,1,0.3894,,[],[],[],[],[],[],[],0.3894,1,343.1185,343.6136,,,,,,228,MAS,DIS,150,nivel,la,l,343.6137,343.6141,-0.016995614,-0.403508772,0,0,0,,0,32,32,227,1,,,,
,,,,,,224114e4921e99353e1c31cb,66a626ef09d4e21e1a8894ec,6737883c4ae457ac63c1b3c8,2024-11-15_11h44.02.201,Tarea de género gramatical,2024.2.2,Win32,60.24096386,,,,,,,,,,,,,,,,,,,,,,,343.6177,344.7525,a,0,0.4556,,[],[],[],[],[],[],[],0.4556,0,344.7537,345.2484,,,,,,202,MAS,AGR,150,honor,el,l,345.2509,345.2525,-0.016995614,-0.403508772,0,0,0,,0,33,33,201,1,,,,
,,,,,,224114e4921e99353e1c31cb,66a626ef09d4e21e1a8894ec,6737883c4ae457ac63c1b3c8,2024-11-15_11h44.02.201,Tarea de género gramatical,2024.2.2,Win32,60.24096386,,,,,,,,,,,,,,,,,,,,,,,345.2539,346.4216,a,0,0.49,,[],[],[],[],[],[],[],0.49,0,346.4217,346.9161,,,,,,388,MAS,AGR,150,empleo,el,l,346.9162,346.9164,-0.016995614,-0.403508772,0,0,0,,0,34,34,387,1,,,,
,,,,,,224114e4921e99353e1c31cb,66a626ef09d4e21e1a8894ec,6737883c4ae457ac63c1b3c8,2024-11-15_11h44.02.201,Tarea de género gramatical,2024.2.2,Win32,60.24096386,,,,,,,,,,,,,,,,,,,,,,,346.9191,348.289,l,1,0.6896,,[],[],[],[],[],[],[],0.6896,1,348.2905,348.79,,,,,,222,MAS,DIS,150,valor,la,l,348.7901,348.7903,-0.016995614,-0.403508772,0,0,0,,0,35,35,221,1,,,,
,,,,,,224114e4921e99353e1c31cb,66a626ef09d4e21e1a8894ec,6737883c4ae457ac63c1b3c8,2024-11-15_11h44.02.201,Tarea de género gramatical,2024.2.2,Win32,60.24096386,,,,,,,,,,,,,,,,,,,,,,,348.7921,349.9586,l,1,0.489,,[],[],[],[],[],[],[],0.489,1,349.9587,350.4571,,,,,,371,MAS,CON,150,sonido,,l,350.4572,350.4574,-0.016995614,-0.403508772,0,0,0,,0,36,36,370,1,,,,
,,,,,,224114e4921e99353e1c31cb,66a626ef09d4e21e1a8894ec,6737883c4ae457ac63c1b3c8,2024-11-15_11h44.02.201,Tarea de género gramatical,2024.2.2,Win32,60.24096386,,,,,,,,,,,,,,,,,,,,,,,350.4593,351.5283,a,1,0.3907,,[],[],[],[],[],[],[],0.3907,1,351.5283,352.0248,,,,,,422,FEM,CON,150,rutina,,a,352.0249,352.025,-0.016995614,-0.403508772,0,0,0,,0,37,37,421,1,,,,
,,,,,,224114e4921e99353e1c31cb,66a626ef09d4e21e1a8894ec,6737883c4ae457ac63c1b3c8,2024-11-15_11h44.02.201,Tarea de género gramatical,2024.2.2,Win32,60.24096386,,,,,,,,,,,,,,,,,,,,,,,352.027,353.1607,l,0,0.4554,,[],[],[],[],[],[],[],0.4554,0,353.1619,353.6586,,,,,,45,FEM,DIS,150,isla,el,a,353.6613,353.6626,-0.016995614,-0.403508772,0,0,0,,0,38,38,44,1,,,,
,,,,,,224114e4921e99353e1c31cb,66a626ef09d4e21e1a8894ec,6737883c4ae457ac63c1b3c8,2024-11-15_11h44.02.201,Tarea de género gramatical,2024.2.2,Win32,60.24096386,,,,,,,,,,,,,,,,,,,,,,,353.6643,354.7611,l,1,0.4214,,[],[],[],[],[],[],[],0.4214,1,354.7621,355.26,,,,,,372,MAS,DIS,150,delito,la,l,355.2602,355.2603,-0.016995614,-0.403508772,0,0,0,,0,39,39,371,1,,,,
,,,,,,224114e4921e99353e1c31cb,66a626ef09d4e21e1a8894ec,6737883c4ae457ac63c1b3c8,2024-11-15_11h44.02.201,Tarea de género gramatical,2024.2.2,Win32,60.24096386,,,,,,,,,,,,,,,,,,,,,,,355.2622,356.413,a,1,0.4723,,[],[],[],[],[],[],[],0.4723,1,356.4132,356.9122,,,,,,200,FEM,CON,150,silla,,a,356.9124,356.9125,-0.016995614,-0.403508772,0,0,0,,0,40,40,199,1,,,,
,,,,,,224114e4921e99353e1c31cb,66a626ef09d4e21e1a8894ec,6737883c4ae457ac63c1b3c8,2024-11-15_11h44.02.201,Tarea de género gramatical,2024.2.2,Win32,60.24096386,,,,,,,,,,,,,,,,,,,,,,,356.9147,358.1309,a,1,0.5391,,[],[],[],[],[],[],[],0.5391,1,358.131,358.6295,,,,,,267,FEM,DIS,150,barba,el,a,358.6298,358.6301,-0.016995614,-0.403508772,0,0,0,,0,41,41,266,1,,,,
,,,,,,224114e4921e99353e1c31cb,66a626ef09d4e21e1a8894ec,6737883c4ae457ac63c1b3c8,2024-11-15_11h44.02.201,Tarea de género gramatical,2024.2.2,Win32,60.24096386,,,,,,,,,,,,,,,,,,,,,,,358.6319,359.6488,a,1,0.3397,,[],[],[],[],[],[],[],0.3397,1,359.6489,360.1471,,,,,,105,FEM,DIS,150,jefa,el,a,360.1491,360.1504,-0.016995614,-0.403508772,0,0,0,,0,42,42,104,1,,,,
,,,,,,224114e4921e99353e1c31cb,66a626ef09d4e21e1a8894ec,6737883c4ae457ac63c1b3c8,2024-11-15_11h44.02.201,Tarea de género gramatical,2024.2.2,Win32,60.24096386,,,,,,,,,,,,,,,,,,,,,,,360.152,361.1152,a,1,0.2885,,[],[],[],[],[],[],[],0.2885,1,361.1154,361.6148,,,,,,241,FEM,AGR,150,pasta,la,a,361.6149,361.615,-0.016995614,-0.403508772,0,0,0,,0,43,43,240,1,,,,
,,,,,,224114e4921e99353e1c31cb,66a626ef09d4e21e1a8894ec,6737883c4ae457ac63c1b3c8,2024-11-15_11h44.02.201,Tarea de género gramatical,2024.2.2,Win32,60.24096386,,,,,,,,,,,,,,,,,,,,,,,361.6165,362.6513,a,1,0.3561,,[],[],[],[],[],[],[],0.3561,1,362.6514,363.149,,,,,,57,FEM,DIS,150,moda,el,a,363.149,363.1492,-0.016995614,-0.403508772,0,0,0,,0,44,44,56,1,,,,
,,,,,,224114e4921e99353e1c31cb,66a626ef09d4e21e1a8894ec,6737883c4ae457ac63c1b3c8,2024-11-15_11h44.02.201,Tarea de género gramatical,2024.2.2,Win32,60.24096386,,,,,,,,,,,,,,,,,,,,,,,363.1512,364.2173,l,1,0.3884,,[],[],[],[],[],[],[],0.3884,1,364.2175,364.717,,,,,,329,MAS,CON,150,futuro,,l,364.7171,364.7172,-0.016995614,-0.403508772,0,0,0,,0,45,45,328,1,,,,
,,,,,,224114e4921e99353e1c31cb,66a626ef09d4e21e1a8894ec,6737883c4ae457ac63c1b3c8,2024-11-15_11h44.02.201,Tarea de género gramatical,2024.2.2,Win32,60.24096386,,,,,,,,,,,,,,,,,,,,,,,364.7191,365.6865,a,0,0.2897,,[],[],[],[],[],[],[],0.2897,0,365.6878,366.1852,,,,,,376,MAS,AGR,150,efecto,el,l,366.1853,366.1856,-0.016995614,-0.403508772,0,0,0,,0,46,46,375,1,,,,
,,,,,,224114e4921e99353e1c31cb,66a626ef09d4e21e1a8894ec,6737883c4ae457ac63c1b3c8,2024-11-15_11h44.02.201,Tarea de género gramatical,2024.2.2,Win32,60.24096386,,,,,,,,,,,,,,,,,,,,,,,366.1873,367.3074,l,0,0.4423,,[],[],[],[],[],[],[],0.4423,0,367.3075,367.8026,,,,,,435,FEM,DIS,150,niebla,el,a,367.8044,367.8056,-0.016995614,-0.403508772,0,0,0,,0,47,47,434,1,,,,
,,,,,,224114e4921e99353e1c31cb,66a626ef09d4e21e1a8894ec,6737883c4ae457ac63c1b3c8,2024-11-15_11h44.02.201,Tarea de género gramatical,2024.2.2,Win32,60.24096386,,,,,,,,,,,,,,,,,,,,,,,367.8069,368.9558,l,1,0.4735,,[],[],[],[],[],[],[],0.4735,1,368.957,369.4534,,,,,,407,MAS,CON,150,jurado,,l,369.4535,369.4541,-0.016995614,-0.403508772,0,0,0,,0,48,48,406,1,,,,
,,,,,,224114e4921e99353e1c31cb,66a626ef09d4e21e1a8894ec,6737883c4ae457ac63c1b3c8,2024-11-15_11h44.02.201,Tarea de género gramatical,2024.2.2,Win32,60.24096386,,,,,,,,,,,,,,,,,,,,,,,369.4559,370.6236,l,1,0.4899,,[],[],[],[],[],[],[],0.4899,1,370.6236,371.1218,,,,,,378,MAS,DIS,150,pastel,la,l,371.122,371.1221,-0.016995614,-0.403508772,0,0,0,,0,49,49,377,1,,,,
,,,,,,224114e4921e99353e1c31cb,66a626ef09d4e21e1a8894ec,6737883c4ae457ac63c1b3c8,2024-11-15_11h44.02.201,Tarea de género gramatical,2024.2.2,Win32,60.24096386,,,,,,,,,,,,,,,,,,,,,,,371.1242,372.2408,a,1,0.4394,,[],[],[],[],[],[],[],0.4394,1,372.241,372.739,,,,,,177,FEM,DIS,150,broma,el,a,372.7391,372.7392,-0.016995614,-0.403508772,0,0,0,,0,50,50,176,1,,,,
,,,,,,224114e4921e99353e1c31cb,66a626ef09d4e21e1a8894ec,6737883c4ae457ac63c1b3c8,2024-11-15_11h44.02.201,Tarea de género gramatical,2024.2.2,Win32,60.24096386,,,,,,,,,,,,,,,,,,,,,,,372.7412,373.8272,l,1,0.4079,,[],[],[],[],[],[],[],0.4079,1,373.8273,374.323,,,,,,137,MAS,CON,150,coco,,l,374.3248,374.3259,-0.016995614,-0.403508772,0,0,0,,0,51,51,136,1,,,,
,,,,,,224114e4921e99353e1c31cb,66a626ef09d4e21e1a8894ec,6737883c4ae457ac63c1b3c8,2024-11-15_11h44.02.201,Tarea de género gramatical,2024.2.2,Win32,60.24096386,,,,,,,,,,,,,,,,,,,,,,,374.327,375.4776,a,1,0.4741,,[],[],[],[],[],[],[],0.4741,1,375.4778,375.9745,,,,,,188,FEM,CON,150,bomba,,a,375.9746,375.9747,-0.016995614,-0.403508772,0,0,0,,0,52,52,187,1,,,,
,,,,,,224114e4921e99353e1c31cb,66a626ef09d4e21e1a8894ec,6737883c4ae457ac63c1b3c8,2024-11-15_11h44.02.201,Tarea de género gramatical,2024.2.2,Win32,60.24096386,,,,,,,,,,,,,,,,,,,,,,,375.9769,377.0099,a,1,0.3552,,[],[],[],[],[],[],[],0.3552,1,377.01,377.5086,,,,,,230,FEM,CON,150,regla,,a,377.5087,377.5088,-0.016995614,-0.403508772,0,0,0,,0,53,53,229,1,,,,
,,,,,,224114e4921e99353e1c31cb,66a626ef09d4e21e1a8894ec,6737883c4ae457ac63c1b3c8,2024-11-15_11h44.02.201,Tarea de género gramatical,2024.2.2,Win32,60.24096386,,,,,,,,,,,,,,,,,,,,,,,377.5109,378.6454,l,1,0.4565,,[],[],[],[],[],[],[],0.4565,1,378.6455,379.1431,,,,,,191,MAS,CON,150,dolor,,l,379.1434,379.1435,-0.016995614,-0.403508772,0,0,0,,0,54,54,190,1,,,,
,,,,,,224114e4921e99353e1c31cb,66a626ef09d4e21e1a8894ec,6737883c4ae457ac63c1b3c8,2024-11-15_11h44.02.201,Tarea de género gramatical,2024.2.2,Win32,60.24096386,,,,,,,,,,,,,,,,,,,,,,,379.1452,380.2128,a,1,0.389,,[],[],[],[],[],[],[],0.389,1,380.2129,380.7099,,,,,,338,FEM,CON,150,abuela,,a,380.7101,380.7102,-0.016995614,-0.403508772,0,0,0,,0,55,55,337,1,,,,
,,,,,,224114e4921e99353e1c31cb,66a626ef09d4e21e1a8894ec,6737883c4ae457ac63c1b3c8,2024-11-15_11h44.02.201,Tarea de género gramatical,2024.2.2,Win32,60.24096386,,,,,,,,,,,,,,,,,,,,,,,380.7122,381.8269,a,1,0.4362,,[],[],[],[],[],[],[],0.4362,1,381.8271,382.3289,,,,,,273,FEM,DIS,150,tarta,el,a,382.3314,382.3328,-0.016995614,-0.403508772,0,0,0,,0,56,56,272,1,,,,
,,,,,,224114e4921e99353e1c31cb,66a626ef09d4e21e1a8894ec,6737883c4ae457ac63c1b3c8,2024-11-15_11h44.02.201,Tarea de género gramatical,2024.2.2,Win32,60.24096386,,,,,,,,,,,,,,,,,,,,,,,382.3345,383.3319,a,1,0.3229,,[],[],[],[],[],[],[],0.3229,1,383.3319,383.8301,,,,,,7,FEM,AGR,150,hora,la,a,383.8302,383.8303,-0.016995614,-0.403508772,0,0,0,,0,57,57,6,1,,,,
,,,,,,224114e4921e99353e1c31cb,66a626ef09d4e21e1a8894ec,6737883c4ae457ac63c1b3c8,2024-11-15_11h44.02.201,Tarea de género gramatical,2024.2.2,Win32,60.24096386,,,,,,,,,,,,,,,,,,,,,,,383.8324,384.8863,a,1,0.3763,,[],[],[],[],[],[],[],0.3763,1,384.8864,385.3813,,,,,,237,FEM,DIS,150,ducha,el,a,385.3816,385.3817,-0.016995614,-0.403508772,0,0,0,,0,58,58,236,1,,,,
,,,,,,224114e4921e99353e1c31cb,66a626ef09d4e21e1a8894ec,6737883c4ae457ac63c1b3c8,2024-11-15_11h44.02.201,Tarea de género gramatical,2024.2.2,Win32,60.24096386,,,,,,,,,,,,,,,,,,,,,,,385.3835,386.4373,l,1,0.376,,[],[],[],[],[],[],[],0.376,1,386.4374,386.9322,,,,,,167,MAS,CON,150,juego,,l,386.9323,386.9325,-0.016995614,-0.403508772,0,0,0,,0,59,59,166,1,,,,
,,,,,,224114e4921e99353e1c31cb,66a626ef09d4e21e1a8894ec,6737883c4ae457ac63c1b3c8,2024-11-15_11h44.02.201,Tarea de género gramatical,2024.2.2,Win32,60.24096386,,,,,,,,,,,,,,,,,,,,,,,386.934,387.9377,a,1,0.3252,,[],[],[],[],[],[],[],0.3252,1,387.9378,388.4324,,,,,,134,FEM,CON,150,rama,,a,388.434,388.4351,-0.016995614,-0.403508772,0,0,0,,0,60,60,133,1,,,,
,,,,,,224114e4921e99353e1c31cb,66a626ef09d4e21e1a8894ec,6737883c4ae457ac63c1b3c8,2024-11-15_11h44.02.201,Tarea de género gramatical,2024.2.2,Win32,60.24096386,,,,,,,,,,,,,,,,,,,,,,,388.4362,389.486,l,1,0.3727,,[],[],[],[],[],[],[],0.3727,1,389.4862,389.9841,,,,,,214,MAS,AGR,150,fondo,el,l,389.9841,389.9842,-0.016995614,-0.403508772,0,0,0,,0,61,61,213,1,,,,
,,,,,,224114e4921e99353e1c31cb,66a626ef09d4e21e1a8894ec,6737883c4ae457ac63c1b3c8,2024-11-15_11h44.02.201,Tarea de género gramatical,2024.2.2,Win32,60.24096386,,,,,,,,,,,,,,,,,,,,,,,389.9862,391.1033,a,1,0.4395,,[],[],[],[],[],[],[],0.4395,1,391.1034,391.6017,,,,,,254,FEM,CON,150,caída,,a,391.6018,391.6019,-0.016995614,-0.403508772,0,0,0,,0,62,62,253,1,,,,
,,,,,,224114e4921e99353e1c31cb,66a626ef09d4e21e1a8894ec,6737883c4ae457ac63c1b3c8,2024-11-15_11h44.02.201,Tarea de género gramatical,2024.2.2,Win32,60.24096386,,,,,,,,,,,,,,,,,,,,,,,391.6039,392.855,a,1,0.5727,,[],[],[],[],[],[],[],0.5727,1,392.8551,393.3529,,,,,,279,FEM,DIS,150,selva,el,a,393.353,393.3531,-0.016995614,-0.403508772,0,0,0,,0,63,63,278,1,,,,
,,,,,,224114e4921e99353e1c31cb,66a626ef09d4e21e1a8894ec,6737883c4ae457ac63c1b3c8,2024-11-15_11h44.02.201,Tarea de género gramatical,2024.2.2,Win32,60.24096386,,,,,,,,,,,,,,,,,,,,,,,393.356,394.4066,a,0,0.3731,,[],[],[],[],[],[],[],0.3731,0,394.4082,394.9038,,,,,,432,MAS,DIS,150,océano,la,l,394.9039,394.904,-0.016995614,-0.403508772,0,0,0,,0,64,64,431,1,,,,
,,,,,,224114e4921e99353e1c31cb,66a626ef09d4e21e1a8894ec,6737883c4ae457ac63c1b3c8,2024-11-15_11h44.02.201,Tarea de género gramatical,2024.2.2,Win32,60.24096386,,,,,,,,,,,,,,,,,,,,,,,394.9062,396.079,a,1,0.4947,,[],[],[],[],[],[],[],0.4947,1,396.0811,396.5722,,,,,,122,FEM,CON,150,loca,,a,396.5742,396.576,-0.016995614,-0.403508772,0,0,0,,0,65,65,121,1,,,,
,,,,,,224114e4921e99353e1c31cb,66a626ef09d4e21e1a8894ec,6737883c4ae457ac63c1b3c8,2024-11-15_11h44.02.201,Tarea de género gramatical,2024.2.2,Win32,60.24096386,,,,,,,,,,,,,,,,,,,,,,,396.5778,397.625,l,1,0.3728,,[],[],[],[],[],[],[],0.3728,1,397.6252,398.1232,,,,,,198,MAS,DIS,150,hotel,la,l,398.1233,398.1233,-0.016995614,-0.403508772,0,0,0,,0,66,66,197,1,,,,
,,,,,,224114e4921e99353e1c31cb,66a626ef09d4e21e1a8894ec,6737883c4ae457ac63c1b3c8,2024-11-15_11h44.02.201,Tarea de género gramatical,2024.2.2,Win32,60.24096386,,,,,,,,,,,,,,,,,,,,,,,398.1253,399.1785,a,1,0.3753,,[],[],[],[],[],[],[],0.3753,1,399.1787,399.6744,,,,,,75,FEM,DIS,150,caza,el,a,399.6745,399.6746,-0.016995614,-0.403508772,0,0,0,,0,67,67,74,1,,,,
,,,,,,224114e4921e99353e1c31cb,66a626ef09d4e21e1a8894ec,6737883c4ae457ac63c1b3c8,2024-11-15_11h44.02.201,Tarea de género gramatical,2024.2.2,Win32,60.24096386,,,,,,,,,,,,,,,,,,,,,,,399.6761,400.977,a,1,0.6222,,[],[],[],[],[],[],[],0.6222,1,400.9771,401.4758,,,,,,32,FEM,CON,150,caja,,a,401.4758,401.476,-0.016995614,-0.403508772,0,0,0,,0,68,68,31,1,,,,
,,,,,,224114e4921e99353e1c31cb,66a626ef09d4e21e1a8894ec,6737883c4ae457ac63c1b3c8,2024-11-15_11h44.02.201,Tarea de género gramatical,2024.2.2,Win32,60.24096386,,,,,,,,,,,,,,,,,,,,,,,401.4775,402.4772,l,1,0.3219,,[],[],[],[],[],[],[],0.3219,1,402.4773,402.9769,,,,,,113,MAS,CON,150,toro,,l,402.9789,402.9806,-0.016995614,-0.403508772,0,0,0,,0,69,69,112,1,,,,
,,,,,,224114e4921e99353e1c31cb,66a626ef09d4e21e1a8894ec,6737883c4ae457ac63c1b3c8,2024-11-15_11h44.02.201,Tarea de género gramatical,2024.2.2,Win32,60.24096386,,,,,,,,,,,,,,,,,,,,,,,402.9824,404.0792,a,1,0.4231,,[],[],[],[],[],[],[],0.4231,1,404.0793,404.5779,,,,,,260,FEM,CON,150,barra,,a,404.5779,404.5782,-0.016995614,-0.403508772,0,0,0,,0,70,70,259,1,,,,
,,,,,,224114e4921e99353e1c31cb,66a626ef09d4e21e1a8894ec,6737883c4ae457ac63c1b3c8,2024-11-15_11h44.02.201,Tarea de género gramatical,2024.2.2,Win32,60.24096386,,,,,,,,,,,,,,,,,,,,,,,404.5799,405.7303,l,1,0.4727,,[],[],[],[],[],[],[],0.4727,1,405.7304,406.229,,,,,,209,MAS,CON,150,banco,,l,406.229,406.2292,-0.016995614,-0.403508772,0,0,0,,0,71,71,208,1,,,,
,,,,,,224114e4921e99353e1c31cb,66a626ef09d4e21e1a8894ec,6737883c4ae457ac63c1b3c8,2024-11-15_11h44.02.201,Tarea de género gramatical,2024.2.2,Win32,60.24096386,,,,,,,,,,,,,,,,,,,,,,,406.231,407.1982,a,1,0.29,,[],[],[],[],[],[],[],0.29,1,407.1983,407.6964,,,,,,189,FEM,DIS,150,pista,el,a,407.6964,407.6965,-0.016995614,-0.403508772,0,0,0,,0,72,72,188,1,,,,
,,,,,,224114e4921e99353e1c31cb,66a626ef09d4e21e1a8894ec,6737883c4ae457ac63c1b3c8,2024-11-15_11h44.02.201,Tarea de género gramatical,2024.2.2,Win32,60.24096386,,,,,,,,,,,,,,,,,,,,,,,407.6981,408.7682,l,1,0.3917,,[],[],[],[],[],[],[],0.3917,1,408.7684,409.2639,,,,,,342,MAS,DIS,150,abuelo,la,l,409.264,409.2641,-0.016995614,-0.403508772,0,0,0,,0,73,73,341,1,,,,
,,,,,,224114e4921e99353e1c31cb,66a626ef09d4e21e1a8894ec,6737883c4ae457ac63c1b3c8,2024-11-15_11h44.02.201,Tarea de género gramatical,2024.2.2,Win32,60.24096386,,,,,,,,,,,,,,,,,,,,,,,409.2656,410.5835,a,0,0.6394,,[],[],[],[],[],[],[],0.6394,0,410.5846,411.0828,,,,,,442,MAS,AGR,150,cuadro,el,l,411.0845,411.0859,-0.016995614,-0.403508772,0,0,0,,0,74,74,441,1,,,,
,,,,,,224114e4921e99353e1c31cb,66a626ef09d4e21e1a8894ec,6737883c4ae457ac63c1b3c8,2024-11-15_11h44.02.201,Tarea de género gramatical,2024.2.2,Win32,60.24096386,,,,,,,,,,,,,,,,,,,,,,,411.0876,412.8696,l,0,1.1072,,[],[],[],[],[],[],[],1.1072,0,412.8698,413.3668,,,,,,355,FEM,AGR,150,mirada,la,a,413.3669,413.3675,-0.016995614,-0.403508772,0,0,0,,0,75,75,354,1,,,,
,,,,,,224114e4921e99353e1c31cb,66a626ef09d4e21e1a8894ec,6737883c4ae457ac63c1b3c8,2024-11-15_11h44.02.201,Tarea de género gramatical,2024.2.2,Win32,60.24096386,,,,,,,,,,,,,,,,,,,,,,,413.3692,414.4378,a,1,0.3907,,[],[],[],[],[],[],[],0.3907,1,414.4391,414.9342,,,,,,103,FEM,AGR,150,fama,la,a,414.9343,414.9343,-0.016995614,-0.403508772,0,0,0,,0,76,76,102,1,,,,
,,,,,,224114e4921e99353e1c31cb,66a626ef09d4e21e1a8894ec,6737883c4ae457ac63c1b3c8,2024-11-15_11h44.02.201,Tarea de género gramatical,2024.2.2,Win32,60.24096386,,,,,,,,,,,,,,,,,,,,,,,414.9363,416.0375,a,1,0.4228,,[],[],[],[],[],[],[],0.4228,1,416.0376,416.5347,,,,,,417,FEM,DIS,150,cabaña,el,a,416.5347,416.5348,-0.016995614,-0.403508772,0,0,0,,0,77,77,416,1,,,,
,,,,,,224114e4921e99353e1c31cb,66a626ef09d4e21e1a8894ec,6737883c4ae457ac63c1b3c8,2024-11-15_11h44.02.201,Tarea de género gramatical,2024.2.2,Win32,60.24096386,,,,,,,,,,,,,,,,,,,,,,,416.5369,417.7896,l,1,0.5905,,[],[],[],[],[],[],[],0.5905,1,417.7897,418.2868,,,,,,11,MAS,CON,150,país,,l,418.2899,418.2914,-0.016995614,-0.403508772,0,0,0,,0,78,78,10,1,,,,
,,,,,,224114e4921e99353e1c31cb,66a626ef09d4e21e1a8894ec,6737883c4ae457ac63c1b3c8,2024-11-15_11h44.02.201,Tarea de género gramatical,2024.2.2,Win32,60.24096386,,,,,,,,,,,,,,,,,,,,,,,418.2932,419.4067,a,1,0.4394,,[],[],[],[],[],[],[],0.4394,1,419.407,419.9045,,,,,,441,FEM,DIS,150,medida,el,a,419.9046,419.9047,-0.016995614,-0.403508772,0,0,0,,0,79,79,440,1,,,,
,,,,,,224114e4921e99353e1c31cb,66a626ef09d4e21e1a8894ec,6737883c4ae457ac63c1b3c8,2024-11-15_11h44.02.201,Tarea de género gramatical,2024.2.2,Win32,60.24096386,,,,,,,,,,,,,,,,,,,,,,,419.9063,420.9585,l,1,0.3741,,[],[],[],[],[],[],[],0.3741,1,420.9586,421.4558,,,,,,70,MAS,AGR,150,palo,el,l,421.4558,421.4559,-0.016995614,-0.403508772,0,0,0,,0,80,80,69,1,,,,
,,,,,,224114e4921e99353e1c31cb,66a626ef09d4e21e1a8894ec,6737883c4ae457ac63c1b3c8,2024-11-15_11h44.02.201,Tarea de género gramatical,2024.2.2,Win32,60.24096386,,,,,,,,,,,,,,,,,,,,,,,421.4578,422.5284,a,1,0.3925,,[],[],[],[],[],[],[],0.3925,1,422.5284,423.0235,,,,,,37,FEM,AGR,150,sala,la,a,423.0235,423.0236,-0.016995614,-0.403508772,0,0,0,,0,81,81,36,1,,,,
,,,,,,224114e4921e99353e1c31cb,66a626ef09d4e21e1a8894ec,6737883c4ae457ac63c1b3c8,2024-11-15_11h44.02.201,Tarea de género gramatical,2024.2.2,Win32,60.24096386,,,,,,,,,,,,,,,,,,,,,,,423.0253,424.1594,a,1,0.4565,,[],[],[],[],[],[],[],0.4565,1,424.1594,424.6577,,,,,,271,FEM,AGR,150,viuda,la,a,424.6578,424.658,-0.016995614,-0.403508772,0,0,0,,0,82,82,270,1,,,,
,,,,,,224114e4921e99353e1c31cb,66a626ef09d4e21e1a8894ec,6737883c4ae457ac63c1b3c8,2024-11-15_11h44.02.201,Tarea de género gramatical,2024.2.2,Win32,60.24096386,,,,,,,,,,,,,,,,,,,,,,,424.6602,425.8102,a,1,0.4887,,[],[],[],[],[],[],[],0.4887,1,425.8102,426.309,,,,,,320,FEM,CON,150,fiesta,,a,426.3111,426.3133,-0.016995614,-0.403508772,0,0,0,,0,83,83,319,1,,,,
,,,,,,224114e4921e99353e1c31cb,66a626ef09d4e21e1a8894ec,6737883c4ae457ac63c1b3c8,2024-11-15_11h44.02.201,Tarea de género gramatical,2024.2.2,Win32,60.24096386,,,,,,,,,,,,,,,,,,,,,,,426.315,428.4629,a,0,1.4733,,[],[],[],[],[],[],[],1.4733,0,428.4641,428.9608,,,,,,156,MAS,DIS,150,amigo,la,l,428.9608,428.961,-0.016995614,-0.403508772,0,0,0,,0,84,84,155,1,,,,
,,,,,,224114e4921e99353e1c31cb,66a626ef09d4e21e1a8894ec,6737883c4ae457ac63c1b3c8,2024-11-15_11h44.02.201,Tarea de género gramatical,2024.2.2,Win32,60.24096386,,,,,,,,,,,,,,,,,,,,,,,428.9628,430.23,l,1,0.5889,,[],[],[],[],[],[],[],0.5889,1,430.2313,430.7287,,,,,,389,MAS,CON,150,tamaño,,l,430.7288,430.7289,-0.016995614,-0.403508772,0,0,0,,0,85,85,388,1,,,,
,,,,,,224114e4921e99353e1c31cb,66a626ef09d4e21e1a8894ec,6737883c4ae457ac63c1b3c8,2024-11-15_11h44.02.201,Tarea de género gramatical,2024.2.2,Win32,60.24096386,,,,,,,,,,,,,,,,,,,,,,,430.7329,432.0308,l,1,0.6222,,[],[],[],[],[],[],[],0.6222,1,432.0309,432.5289,,,,,,336,MAS,DIS,150,crimen,la,l,432.529,432.5293,-0.016995614,-0.403508772,0,0,0,,0,86,86,335,1,,,,
,,,,,,224114e4921e99353e1c31cb,66a626ef09d4e21e1a8894ec,6737883c4ae457ac63c1b3c8,2024-11-15_11h44.02.201,Tarea de género gramatical,2024.2.2,Win32,60.24096386,,,,,,,,,,,,,,,,,,,,,,,432.5318,433.5488,l,1,0.3555,,[],[],[],[],[],[],[],0.3555,1,433.5489,434.0475,,,,,,54,MAS,DIS,150,humo,la,l,434.0494,434.0506,-0.016995614,-0.403508772,0,0,0,,0,87,87,53,1,,,,
,,,,,,224114e4921e99353e1c31cb,66a626ef09d4e21e1a8894ec,6737883c4ae457ac63c1b3c8,2024-11-15_11h44.02.201,Tarea de género gramatical,2024.2.2,Win32,60.24096386,,,,,,,,,,,,,,,,,,,,,,,434.0519,435.138,l,1,0.4103,,[],[],[],[],[],[],[],0.4103,1,435.1381,435.6317,,,,,,84,MAS,DIS,150,mago,la,l,435.6318,435.632,-0.016995614,-0.403508772,0,0,0,,0,88,88,83,1,,,,
,,,,,,224114e4921e99353e1c31cb,66a626ef09d4e21e1a8894ec,6737883c4ae457ac63c1b3c8,2024-11-15_11h44.02.201,Tarea de género gramatical,2024.2.2,Win32,60.24096386,,,,,,,,,,,,,,,,,,,,,,,435.6339,436.8517,l,1,0.5394,,[],[],[],[],[],[],[],0.5394,1,436.852,437.3498,,,,,,168,MAS,DIS,150,sitio,la,l,437.3498,437.35,-0.016995614,-0.403508772,0,0,0,,0,89,89,167,1,,,,
,,,,,,224114e4921e99353e1c31cb,66a626ef09d4e21e1a8894ec,6737883c4ae457ac63c1b3c8,2024-11-15_11h44.02.201,Tarea de género gramatical,2024.2.2,Win32,60.24096386,,,,,,,,,,,,,,,,,,,,,,,437.3519,438.3835,a,1,0.3534,,[],[],[],[],[],[],[],0.3534,1,438.3836,438.8849,,,,,,327,FEM,DIS,150,tienda,el,a,438.8851,438.8852,-0.016995614,-0.403508772,0,0,0,,0,90,90,326,1,,,,
,,,,,,224114e4921e99353e1c31cb,66a626ef09d4e21e1a8894ec,6737883c4ae457ac63c1b3c8,2024-11-15_11h44.02.201,Tarea de género gramatical,2024.2.2,Win32,60.24096386,,,,,,,,,,,,,,,,,,,,,,,438.887,439.9584,l,1,0.394,,[],[],[],[],[],[],[],0.394,1,439.9585,440.4512,,,,,,166,MAS,AGR,150,coche,el,l,440.4514,440.4515,-0.016995614,-0.403508772,0,0,0,,0,91,91,165,1,,,,
,,,,,,224114e4921e99353e1c31cb,66a626ef09d4e21e1a8894ec,6737883c4ae457ac63c1b3c8,2024-11-15_11h44.02.201,Tarea de género gramatical,2024.2.2,Win32,60.24096386,,,,,,,,,,,,,,,,,,,,,,,440.4534,441.6719,a,1,0.5401,,[],[],[],[],[],[],[],0.5401,1,441.672,442.17,,,,,,343,FEM,AGR,150,trampa,la,a,442.172,442.1731,-0.016995614,-0.403508772,0,0,0,,0,92,92,342,1,,,,
,,,,,,224114e4921e99353e1c31cb,66a626ef09d4e21e1a8894ec,6737883c4ae457ac63c1b3c8,2024-11-15_11h44.02.201,Tarea de género gramatical,2024.2.2,Win32,60.24096386,,,,,,,,,,,,,,,,,,,,,,,442.1743,443.2232,l,1,0.3732,,[],[],[],[],[],[],[],0.3732,1,443.2234,443.7209,,,,,,208,MAS,AGR,150,suelo,el,l,443.7209,443.721,-0.016995614,-0.403508772,0,0,0,,0,93,93,207,1,,,,
,,,,,,224114e4921e99353e1c31cb,66a626ef09d4e21e1a8894ec,6737883c4ae457ac63c1b3c8,2024-11-15_11h44.02.201,Tarea de género gramatical,2024.2.2,Win32,60.24096386,,,,,,,,,,,,,,,,,,,,,,,443.7226,444.7904,l,1,0.3894,,[],[],[],[],[],[],[],0.3894,1,444.7906,445.289,,,,,,382,MAS,AGR,150,teatro,el,l,445.289,445.2892,-0.016995614,-0.403508772,0,0,0,,0,94,94,381,1,,,,
,,,,,,224114e4921e99353e1c31cb,66a626ef09d4e21e1a8894ec,6737883c4ae457ac63c1b3c8,2024-11-15_11h44.02.201,Tarea de género gramatical,2024.2.2,Win32,60.24096386,,,,,,,,,,,,,,,,,,,,,,,445.2908,446.5263,l,1,0.5573,,[],[],[],[],[],[],[],0.5573,1,446.5264,447.0233,,,,,,408,MAS,DIS,150,cheque,la,l,447.0233,447.0235,-0.016995614,-0.403508772,0,0,0,,0,95,95,407,1,,,,
,,,,,,224114e4921e99353e1c31cb,66a626ef09d4e21e1a8894ec,6737883c4ae457ac63c1b3c8,2024-11-15_11h44.02.201,Tarea de género gramatical,2024.2.2,Win32,60.24096386,,,,,,,,,,,,,,,,,,,,,,,447.0255,448.0791,l,0,0.3754,,[],[],[],[],[],[],[],0.3754,0,448.0803,448.575,,,,,,67,FEM,AGR,150,miel,la,a,448.5768,448.5783,-0.016995614,-0.403508772,0,0,0,,0,96,96,66,1,,,,
,,,,,,224114e4921e99353e1c31cb,66a626ef09d4e21e1a8894ec,6737883c4ae457ac63c1b3c8,2024-11-15_11h44.02.201,Tarea de género gramatical,2024.2.2,Win32,60.24096386,,,,,,,,,,,,,,,,,,,,,,,448.58,449.828,a,1,0.5736,,[],[],[],[],[],[],[],0.5736,1,449.8297,450.3246,,,,,,91,FEM,AGR,150,hoja,la,a,450.3247,450.3249,-0.016995614,-0.403508772,0,0,0,,0,97,97,90,1,,,,
,,,,,,224114e4921e99353e1c31cb,66a626ef09d4e21e1a8894ec,6737883c4ae457ac63c1b3c8,2024-11-15_11h44.02.201,Tarea de género gramatical,2024.2.2,Win32,60.24096386,,,,,,,,,,,,,,,,,,,,,,,450.3275,451.527,l,1,0.538,,[],[],[],[],[],[],[],0.538,1,451.5271,452.0267,,,,,,330,MAS,DIS,150,estado,la,l,452.0267,452.0269,-0.016995614,-0.403508772,0,0,0,,0,98,98,329,1,,,,
,,,,,,224114e4921e99353e1c31cb,66a626ef09d4e21e1a8894ec,6737883c4ae457ac63c1b3c8,2024-11-15_11h44.02.201,Tarea de género gramatical,2024.2.2,Win32,60.24096386,,,,,,,,,,,,,,,,,,,,,,,452.0289,453.095,l,1,0.3878,,[],[],[],[],[],[],[],0.3878,1,453.0951,453.5943,,,,,,232,MAS,AGR,150,calor,el,l,453.5944,453.5945,-0.016995614,-0.403508772,0,0,0,,0,99,99,231,1,,,,
,,,,,,224114e4921e99353e1c31cb,66a626ef09d4e21e1a8894ec,6737883c4ae457ac63c1b3c8,2024-11-15_11h44.02.201,Tarea de género gramatical,2024.2.2,Win32,60.24096386,,,,,,,,,,,,,,,,,,,,,,,453.5966,454.6809,l,1,0.4063,,[],[],[],[],[],[],[],0.4063,1,454.6811,455.1787,,,,,,353,MAS,CON,150,verano,,l,455.1788,455.1789,-0.016995614,-0.403508772,0,0,0,,0,100,100,352,1,,,,
,,,,,,224114e4921e99353e1c31cb,66a626ef09d4e21e1a8894ec,6737883c4ae457ac63c1b3c8,2024-11-15_11h44.02.201,Tarea de género gramatical,2024.2.2,Win32,60.24096386,,,,,,,,,,,,,,,,,,,,,,,455.1805,456.2672,l,1,0.41,,[],[],[],[],[],[],[],0.41,1,456.2673,456.7638,,,,,,437,MAS,CON,150,hombro,,l,456.7658,456.7672,-0.016995614,-0.403508772,0,0,0,,0,101,101,436,1,,,,
,,,,,,224114e4921e99353e1c31cb,66a626ef09d4e21e1a8894ec,6737883c4ae457ac63c1b3c8,2024-11-15_11h44.02.201,Tarea de género gramatical,2024.2.2,Win32,60.24096386,,,,,,,,,,,,,,,,,,,,,,,456.7689,457.8329,a,1,0.3896,,[],[],[],[],[],[],[],0.3896,1,457.833,458.3308,,,,,,393,FEM,DIS,150,alarma,el,a,458.3309,458.3309,-0.016995614,-0.403508772,0,0,0,,0,102,102,392,1,,,,
,,,,,,224114e4921e99353e1c31cb,66a626ef09d4e21e1a8894ec,6737883c4ae457ac63c1b3c8,2024-11-15_11h44.02.201,Tarea de género gramatical,2024.2.2,Win32,60.24096386,,,,,,,,,,,,,,,,,,,,,,,458.3332,459.4839,a,1,0.473,,[],[],[],[],[],[],[],0.473,1,459.4841,459.9827,,,,,,319,FEM,AGR,150,sangre,la,a,459.9828,459.983,-0.016995614,-0.403508772,0,0,0,,0,103,103,318,1,,,,
,,,,,,224114e4921e99353e1c31cb,66a626ef09d4e21e1a8894ec,6737883c4ae457ac63c1b3c8,2024-11-15_11h44.02.201,Tarea de género gramatical,2024.2.2,Win32,60.24096386,,,,,,,,,,,,,,,,,,,,,,,459.9848,461.1675,a,1,0.5051,,[],[],[],[],[],[],[],0.5051,1,461.1677,461.6678,,,,,,337,FEM,AGR,150,escena,la,a,461.6679,461.668,-0.016995614,-0.403508772,0,0,0,,0,104,104,336,1,,,,
,,,,,,224114e4921e99353e1c31cb,66a626ef09d4e21e1a8894ec,6737883c4ae457ac63c1b3c8,2024-11-15_11h44.02.201,Tarea de género gramatical,2024.2.2,Win32,60.24096386,,,,,,,,,,,,,,,,,,,,,,,461.6697,462.7201,a,1,0.3738,,[],[],[],[],[],[],[],0.3738,1,462.7204,463.2165,,,,,,44,FEM,CON,150,zona,,a,463.2181,463.219,-0.016995614,-0.403508772,0,0,0,,0,105,105,43,1,,,,
,,,,,,224114e4921e99353e1c31cb,66a626ef09d4e21e1a8894ec,6737883c4ae457ac63c1b3c8,2024-11-15_11h44.02.201,Tarea de género gramatical,2024.2.2,Win32,60.24096386,,,,,,,,,,,,,,,,,,,,,,,463.2201,464.2537,a,1,0.3555,,[],[],[],[],[],[],[],0.3555,1,464.2538,464.7521,,,,,,375,FEM,DIS,150,cadena,el,a,464.7521,464.7522,-0.016995614,-0.403508772,0,0,0,,0,106,106,374,1,,,,
,,,,,,224114e4921e99353e1c31cb,66a626ef09d4e21e1a8894ec,6737883c4ae457ac63c1b3c8,2024-11-15_11h44.02.201,Tarea de género gramatical,2024.2.2,Win32,60.24096386,,,,,,,,,,,,,,,,,,,,,,,464.7538,465.8045,a,1,0.372,,[],[],[],[],[],[],[],0.372,1,465.8046,466.303,,,,,,140,FEM,CON,150,mula,,a,466.3031,466.3033,-0.016995614,-0.403508772,0,0,0,,0,107,107,139,1,,,,
,,,,,,224114e4921e99353e1c31cb,66a626ef09d4e21e1a8894ec,6737883c4ae457ac63c1b3c8,2024-11-15_11h44.02.201,Tarea de género gramatical,2024.2.2,Win32,60.24096386,,,,,,,,,,,,,,,,,,,,,,,466.3051,467.2577,a,1,0.2747,,[],[],[],[],[],[],[],0.2747,1,467.2578,467.7538,,,,,,326,FEM,CON,150,música,,a,467.7539,467.754,-0.016995614,-0.403508772,0,0,0,,0,108,108,325,1,,,,
,,,,,,224114e4921e99353e1c31cb,66a626ef09d4e21e1a8894ec,6737883c4ae457ac63c1b3c8,2024-11-15_11h44.02.201,Tarea de género gramatical,2024.2.2,Win32,60.24096386,,,,,,,,,,,,,,,,,,,,,,,467.7558,468.875,l,1,0.4398,,[],[],[],[],[],[],[],0.4398,1,468.8752,469.372,,,,,,197,MAS,CON,150,avión,,l,469.3721,469.3724,-0.016995614,-0.403508772,0,0,0,,0,109,109,196,1,,,,
,,,,,,224114e4921e99353e1c31cb,66a626ef09d4e21e1a8894ec,6737883c4ae457ac63c1b3c8,2024-11-15_11h44.02.201,Tarea de género gramatical,2024.2.2,Win32,60.24096386,,,,,,,,,,,,,,,,,,,,,,,469.3738,470.5579,a,1,0.5059,,[],[],[],[],[],[],[],0.5059,1,470.5581,471.0565,,,,,,51,FEM,DIS,150,bala,el,a,471.0583,471.0595,-0.016995614,-0.403508772,0,0,0,,0,110,110,50,1,,,,
,,,,,,224114e4921e99353e1c31cb,66a626ef09d4e21e1a8894ec,6737883c4ae457ac63c1b3c8,2024-11-15_11h44.02.201,Tarea de género gramatical,2024.2.2,Win32,60.24096386,,,,,,,,,,,,,,,,,,,,,,,471.0607,472.1415,l,1,0.4053,,[],[],[],[],[],[],[],0.4053,1,472.1417,472.6404,,,,,,95,MAS,CON,150,tomo,,l,472.6405,472.6407,-0.016995614,-0.403508772,0,0,0,,0,111,111,94,1,,,,
,,,,,,224114e4921e99353e1c31cb,66a626ef09d4e21e1a8894ec,6737883c4ae457ac63c1b3c8,2024-11-15_11h44.02.201,Tarea de género gramatical,2024.2.2,Win32,60.24096386,,,,,,,,,,,,,,,,,,,,,,,472.6422,473.8108,l,1,0.4896,,[],[],[],[],[],[],[],0.4896,1,473.8109,474.3082,,,,,,413,MAS,CON,150,diario,,l,474.3082,474.3083,-0.016995614,-0.403508772,0,0,0,,0,112,112,412,1,,,,
,,,,,,224114e4921e99353e1c31cb,66a626ef09d4e21e1a8894ec,6737883c4ae457ac63c1b3c8,2024-11-15_11h44.02.201,Tarea de género gramatical,2024.2.2,Win32,60.24096386,,,,,,,,,,,,,,,,,,,,,,,474.3104,475.4794,l,1,0.4906,,[],[],[],[],[],[],[],0.4906,1,475.4795,475.9765,,,,,,126,MAS,DIS,150,lazo,la,l,475.9766,475.9768,-0.016995614,-0.403508772,0,0,0,,0,113,113,125,1,,,,
,,,,,,224114e4921e99353e1c31cb,66a626ef09d4e21e1a8894ec,6737883c4ae457ac63c1b3c8,2024-11-15_11h44.02.201,Tarea de género gramatical,2024.2.2,Win32,60.24096386,,,,,,,,,,,,,,,,,,,,,,,475.9788,477.0295,a,1,0.3726,,[],[],[],[],[],[],[],0.3726,1,477.0297,477.5278,,,,,,434,FEM,CON,150,corona,,a,477.5296,477.5307,-0.016995614,-0.403508772,0,0,0,,0,114,114,433,1,,,,
,,,,,,224114e4921e99353e1c31cb,66a626ef09d4e21e1a8894ec,6737883c4ae457ac63c1b3c8,2024-11-15_11h44.02.201,Tarea de género gramatical,2024.2.2,Win32,60.24096386,,,,,,,,,,,,,,,,,,,,,,,477.5325,478.6684,a,1,0.4605,,[],[],[],[],[],[],[],0.4605,1,478.6686,479.162,,,,,,315,FEM,DIS,150,manera,el,a,479.1624,479.1627,-0.016995614,-0.403508772,0,0,0,,0,115,115,314,1,,,,
,,,,,,224114e4921e99353e1c31cb,66a626ef09d4e21e1a8894ec,6737883c4ae457ac63c1b3c8,2024-11-15_11h44.02.201,Tarea de género gramatical,2024.2.2,Win32,60.24096386,,,,,,,,,,,,,,,,,,,,,,,479.1646,480.2135,l,1,0.3719,,[],[],[],[],[],[],[],0.3719,1,480.2136,480.7131,,,,,,174,MAS,DIS,150,perro,la,l,480.7131,480.7132,-0.016995614,-0.403508772,0,0,0,,0,116,116,173,1,,,,
,,,,,,224114e4921e99353e1c31cb,66a626ef09d4e21e1a8894ec,6737883c4ae457ac63c1b3c8,2024-11-15_11h44.02.201,Tarea de género gramatical,2024.2.2,Win32,60.24096386,,,,,,,,,,,,,,,,,,,,,,,480.7148,481.8672,a,1,0.4741,,[],[],[],[],[],[],[],0.4741,1,481.8674,482.3636,,,,,,236,FEM,CON,150,deuda,,a,482.3637,482.3638,-0.016995614,-0.403508772,0,0,0,,0,117,117,235,1,,,,
,,,,,,224114e4921e99353e1c31cb,66a626ef09d4e21e1a8894ec,6737883c4ae457ac63c1b3c8,2024-11-15_11h44.02.201,Tarea de género gramatical,2024.2.2,Win32,60.24096386,,,,,,,,,,,,,,,,,,,,,,,482.3661,483.4176,a,1,0.3738,,[],[],[],[],[],[],[],0.3738,1,483.4177,483.9159,,,,,,277,FEM,AGR,150,plaza,la,a,483.916,483.9162,-0.016995614,-0.403508772,0,0,0,,0,118,118,276,1,,,,
,,,,,,224114e4921e99353e1c31cb,66a626ef09d4e21e1a8894ec,6737883c4ae457ac63c1b3c8,2024-11-15_11h44.02.201,Tarea de género gramatical,2024.2.2,Win32,60.24096386,,,,,,,,,,,,,,,,,,,,,,,483.918,484.9693,l,1,0.3736,,[],[],[],[],[],[],[],0.3736,1,484.9694,485.4662,,,,,,120,MAS,DIS,150,puño,la,l,485.4683,485.4696,-0.016995614,-0.403508772,0,0,0,,0,119,119,119,1,,,,
,,,,,,224114e4921e99353e1c31cb,66a626ef09d4e21e1a8894ec,6737883c4ae457ac63c1b3c8,2024-11-15_11h44.02.201,Tarea de género gramatical,2024.2.2,Win32,60.24096386,,,,,,,,,,,,,,,,,,,,,,,485.4713,486.6192,a,1,0.473,,[],[],[],[],[],[],[],0.473,1,486.6192,487.117,,,,,,194,FEM,CON,150,banda,,a,487.117,487.1171,-0.016995614,-0.403508772,0,0,0,,0,120,120,193,1,,,,
,,,,,,224114e4921e99353e1c31cb,66a626ef09d4e21e1a8894ec,6737883c4ae457ac63c1b3c8,2024-11-15_11h44.02.201,Tarea de género gramatical,2024.2.2,Win32,60.24096386,,,,,,,,,,,,,,,,,,,,,,,487.1189,488.4197,a,1,0.6223,,[],[],[],[],[],[],[],0.6223,1,488.4202,488.9194,,,,,,313,FEM,AGR,150,ciudad,la,a,488.9195,488.9197,-0.016995614,-0.403508772,0,0,0,,0,121,121,312,1,,,,
,,,,,,224114e4921e99353e1c31cb,66a626ef09d4e21e1a8894ec,6737883c4ae457ac63c1b3c8,2024-11-15_11h44.02.201,Tarea de género gramatical,2024.2.2,Win32,60.24096386,,,,,,,,,,,,,,,,,,,,,,,488.9213,490.0076,a,1,0.4088,,[],[],[],[],[],[],[],0.4088,1,490.0077,490.5029,,,,,,176,FEM,CON,150,línea,,a,490.503,490.5032,-0.016995614,-0.403508772,0,0,0,,0,122,122,175,1,,,,
,,,,,,224114e4921e99353e1c31cb,66a626ef09d4e21e1a8894ec,6737883c4ae457ac63c1b3c8,2024-11-15_11h44.02.201,Tarea de género gramatical,2024.2.2,Win32,60.24096386,,,,,,,,,,,,,,,,,,,,,,,490.5053,491.5225,a,1,0.3393,,[],[],[],[],[],[],[],0.3393,1,491.5226,492.0198,,,,,,8,FEM,CON,150,idea,,a,492.0217,492.0229,-0.016995614,-0.403508772,0,0,0,,0,123,123,7,1,,,,
,,,,,,224114e4921e99353e1c31cb,66a626ef09d4e21e1a8894ec,6737883c4ae457ac63c1b3c8,2024-11-15_11h44.02.201,Tarea de género gramatical,2024.2.2,Win32,60.24096386,,,,,,,,,,,,,,,,,,,,,,,492.0241,493.0274,l,1,0.3264,,[],[],[],[],[],[],[],0.3264,1,493.0275,493.5222,,,,,,275,MAS,CON,150,disco,,l,493.5224,493.5226,-0.016995614,-0.403508772,0,0,0,,0,124,124,274,1,,,,
,,,,,,224114e4921e99353e1c31cb,66a626ef09d4e21e1a8894ec,6737883c4ae457ac63c1b3c8,2024-11-15_11h44.02.201,Tarea de género gramatical,2024.2.2,Win32,60.24096386,,,,,,,,,,,,,,,,,,,,,,,493.524,494.8884,l,1,0.6885,,[],[],[],[],[],[],[],0.6885,1,494.8885,495.3847,,,,,,264,MAS,DIS,150,pollo,la,l,495.3847,495.385,-0.016995614,-0.403508772,0,0,0,,0,125,125,263,1,,,,
,,,,,,224114e4921e99353e1c31cb,66a626ef09d4e21e1a8894ec,6737883c4ae457ac63c1b3c8,2024-11-15_11h44.02.201,Tarea de género gramatical,2024.2.2,Win32,60.24096386,,,,,,,,,,,,,,,,,,,,,,,495.3872,496.3902,l,1,0.3229,,[],[],[],[],[],[],[],0.3229,1,496.3903,496.8851,,,,,,251,MAS,CON,150,dueño,,l,496.8852,496.8855,-0.016995614,-0.403508772,0,0,0,,0,126,126,250,1,,,,
,,,,,,224114e4921e99353e1c31cb,66a626ef09d4e21e1a8894ec,6737883c4ae457ac63c1b3c8,2024-11-15_11h44.02.201,Tarea de género gramatical,2024.2.2,Win32,60.24096386,,,,,,,,,,,,,,,,,,,,,,,496.8878,498.0609,a,1,0.5059,,[],[],[],[],[],[],[],0.5059,1,498.061,498.5578,,,,,,158,FEM,CON,150,chica,,a,498.558,498.5584,-0.016995614,-0.403508772,0,0,0,,0,127,127,157,1,,,,
,,,,,,224114e4921e99353e1c31cb,66a626ef09d4e21e1a8894ec,6737883c4ae457ac63c1b3c8,2024-11-15_11h44.02.201,Tarea de género gramatical,2024.2.2,Win32,60.24096386,,,,,,,,,,,,,,,,,,,,,,,498.5611,499.5784,l,1,0.3391,,[],[],[],[],[],[],[],0.3391,1,499.5786,500.077,,,,,,358,MAS,AGR,150,motivo,el,l,500.0787,500.08,-0.016995614,-0.403508772,0,0,0,,0,128,128,357,1,,,,
,,,,,,224114e4921e99353e1c31cb,66a626ef09d4e21e1a8894ec,6737883c4ae457ac63c1b3c8,2024-11-15_11h44.02.201,Tarea de género gramatical,2024.2.2,Win32,60.24096386,,,,,,,,,,,,,,,,,,,,,,,500.0816,501.2636,l,1,0.5067,,[],[],[],[],[],[],[],0.5067,1,501.2637,501.7596,,,,,,412,MAS,AGR,150,espejo,el,l,501.7598,501.7602,-0.016995614,-0.403508772,0,0,0,,0,129,129,411,1,,,,
,,,,,,224114e4921e99353e1c31cb,66a626ef09d4e21e1a8894ec,6737883c4ae457ac63c1b3c8,2024-11-15_11h44.02.201,Tarea de género gramatical,2024.2.2,Win32,60.24096386,,,,,,,,,,,,,,,,,,,,,,,501.7628,502.8479,l,1,0.4069,,[],[],[],[],[],[],[],0.4069,1,502.8482,503.3446,,,,,,257,MAS,CON,150,pecho,,l,503.3449,503.3451,-0.016995614,-0.403508772,0,0,0,,0,130,130,256,1,,,,
,,,,,,224114e4921e99353e1c31cb,66a626ef09d4e21e1a8894ec,6737883c4ae457ac63c1b3c8,2024-11-15_11h44.02.201,Tarea de género gramatical,2024.2.2,Win32,60.24096386,,,,,,,,,,,,,,,,,,,,,,,503.3474,504.4488,l,1,0.423,,[],[],[],[],[],[],[],0.423,1,504.4489,504.9454,,,,,,354,MAS,DIS,150,camión,la,l,504.9456,504.9459,-0.016995614,-0.403508772,0,0,0,,0,131,131,353,1,,,,
,,,,,,224114e4921e99353e1c31cb,66a626ef09d4e21e1a8894ec,6737883c4ae457ac63c1b3c8,2024-11-15_11h44.02.201,Tarea de género gramatical,2024.2.2,Win32,60.24096386,,,,,,,,,,,,,,,,,,,,,,,504.9488,506.0491,l,1,0.4222,,[],[],[],[],[],[],[],0.4222,1,506.0492,506.5468,,,,,,90,MAS,DIS,150,león,la,l,506.5492,506.5504,-0.016995614,-0.403508772,0,0,0,,0,132,132,89,1,,,,
,,,,,,224114e4921e99353e1c31cb,66a626ef09d4e21e1a8894ec,6737883c4ae457ac63c1b3c8,2024-11-15_11h44.02.201,Tarea de género gramatical,2024.2.2,Win32,60.24096386,,,,,,,,,,,,,,,,,,,,,,,506.5517,507.8685,l,0,0.6407,,[],[],[],[],[],[],[],0.6407,0,507.8696,508.3645,,,,,,206,FEM,CON,150,época,,a,508.3645,508.3649,-0.016995614,-0.403508772,0,0,0,,0,133,133,205,1,,,,
,,,,,,224114e4921e99353e1c31cb,66a626ef09d4e21e1a8894ec,6737883c4ae457ac63c1b3c8,2024-11-15_11h44.02.201,Tarea de género gramatical,2024.2.2,Win32,60.24096386,,,,,,,,,,,,,,,,,,,,,,,508.3677,509.5347,a,1,0.4892,,[],[],[],[],[],[],[],0.4892,1,509.536,510.0322,,,,,,164,FEM,CON,150,novia,,a,510.0325,510.0328,-0.016995614,-0.403508772,0,0,0,,0,134,134,163,1,,,,
,,,,,,224114e4921e99353e1c31cb,66a626ef09d4e21e1a8894ec,6737883c4ae457ac63c1b3c8,2024-11-15_11h44.02.201,Tarea de género gramatical,2024.2.2,Win32,60.24096386,,,,,,,,,,,,,,,,,,,,,,,510.0351,511.0895,a,1,0.3759,,[],[],[],[],[],[],[],0.3759,1,511.0897,511.5833,,,,,,367,FEM,AGR,150,teoría,la,a,511.5836,511.5841,-0.016995614,-0.403508772,0,0,0,,0,135,135,366,1,,,,
,,,,,,224114e4921e99353e1c31cb,66a626ef09d4e21e1a8894ec,6737883c4ae457ac63c1b3c8,2024-11-15_11h44.02.201,Tarea de género gramatical,2024.2.2,Win32,60.24096386,,,,,,,,,,,,,,,,,,,,,,,511.5868,512.5886,l,1,0.3238,,[],[],[],[],[],[],[],0.3238,1,512.5886,513.085,,,,,,341,MAS,CON,150,precio,,l,513.085,513.0851,-0.016995614,-0.403508772,0,0,0,,0,136,136,340,1,,,,
,,,,,,224114e4921e99353e1c31cb,66a626ef09d4e21e1a8894ec,6737883c4ae457ac63c1b3c8,2024-11-15_11h44.02.201,Tarea de género gramatical,2024.2.2,Win32,60.24096386,,,,,,,,,,,,,,,,,,,,,,,513.0865,514.1387,l,1,0.3726,,[],[],[],[],[],[],[],0.3726,1,514.1389,514.6357,,,,,,132,MAS,DIS,150,velo,la,l,514.6388,514.6401,-0.016995614,-0.403508772,0,0,0,,0,137,137,131,1,,,,
,,,,,,224114e4921e99353e1c31cb,66a626ef09d4e21e1a8894ec,6737883c4ae457ac63c1b3c8,2024-11-15_11h44.02.201,Tarea de género gramatical,2024.2.2,Win32,60.24096386,,,,,,,,,,,,,,,,,,,,,,,514.6417,515.7579,a,1,0.4417,,[],[],[],[],[],[],[],0.4417,1,515.7582,516.2531,,,,,,283,FEM,AGR,150,pluma,la,a,516.2534,516.254,-0.016995614,-0.403508772,0,0,0,,0,138,138,282,1,,,,
,,,,,,224114e4921e99353e1c31cb,66a626ef09d4e21e1a8894ec,6737883c4ae457ac63c1b3c8,2024-11-15_11h44.02.201,Tarea de género gramatical,2024.2.2,Win32,60.24096386,,,,,,,,,,,,,,,,,,,,,,,516.2567,517.389,a,1,0.4544,,[],[],[],[],[],[],[],0.4544,1,517.3891,517.8882,,,,,,403,FEM,AGR,150,paliza,la,a,517.8884,517.8885,-0.016995614,-0.403508772,0,0,0,,0,139,139,402,1,,,,
,,,,,,224114e4921e99353e1c31cb,66a626ef09d4e21e1a8894ec,6737883c4ae457ac63c1b3c8,2024-11-15_11h44.02.201,Tarea de género gramatical,2024.2.2,Win32,60.24096386,,,,,,,,,,,,,,,,,,,,,,,517.8909,518.9918,l,1,0.4223,,[],[],[],[],[],[],[],0.4223,1,518.9919,519.4881,,,,,,400,MAS,AGR,150,barrio,el,l,519.4883,519.4886,-0.016995614,-0.403508772,0,0,0,,0,140,140,399,1,,,,
,,,,,,224114e4921e99353e1c31cb,66a626ef09d4e21e1a8894ec,6737883c4ae457ac63c1b3c8,2024-11-15_11h44.02.201,Tarea de género gramatical,2024.2.2,Win32,60.24096386,,,,,,,,,,,,,,,,,,,,,,,519.4905,520.5589,a,1,0.3958,,[],[],[],[],[],[],[],0.3958,1,520.5591,521.0564,,,,,,79,FEM,AGR,150,mina,la,a,521.0589,521.0601,-0.016995614,-0.403508772,0,0,0,,0,141,141,78,1,,,,
,,,,,,224114e4921e99353e1c31cb,66a626ef09d4e21e1a8894ec,6737883c4ae457ac63c1b3c8,2024-11-15_11h44.02.201,Tarea de género gramatical,2024.2.2,Win32,60.24096386,,,,,,,,,,,,,,,,,,,,,,,521.0613,522.1289,l,0,0.3908,,[],[],[],[],[],[],[],0.3908,0,522.1303,522.624,,,,,,362,FEM,CON,150,fuente,,a,522.6241,522.6245,-0.016995614,-0.403508772,0,0,0,,0,142,142,361,1,,,,
,,,,,,224114e4921e99353e1c31cb,66a626ef09d4e21e1a8894ec,6737883c4ae457ac63c1b3c8,2024-11-15_11h44.02.201,Tarea de género gramatical,2024.2.2,Win32,60.24096386,,,,,,,,,,,,,,,,,,,,,,,522.6273,523.8445,l,1,0.539,,[],[],[],[],[],[],[],0.539,1,523.8456,524.3419,,,,,,234,MAS,DIS,150,héroe,la,l,524.342,524.3425,-0.016995614,-0.403508772,0,0,0,,0,143,143,233,1,,,,
,,,,,,224114e4921e99353e1c31cb,66a626ef09d4e21e1a8894ec,6737883c4ae457ac63c1b3c8,2024-11-15_11h44.02.201,Tarea de género gramatical,2024.2.2,Win32,60.24096386,,,,,,,,,,,,,,,,,,,,,,,524.3452,525.2788,a,1,0.2555,,[],[],[],[],[],[],[],0.2555,1,525.279,525.7763,,,,,,55,FEM,AGR,150,taza,la,a,525.7764,525.7768,-0.016995614,-0.403508772,0,0,0,,0,144,144,54,1,,,,
,,,,,,224114e4921e99353e1c31cb,66a626ef09d4e21e1a8894ec,6737883c4ae457ac63c1b3c8,2024-11-15_11h44.02.201,Tarea de género gramatical,2024.2.2,Win32,60.24096386,,,,,,,,,,,,,,,,,,,,,,,525.7795,526.847,a,1,0.3892,,[],[],[],[],[],[],[],0.3892,1,526.8471,527.3439,,,,,,405,FEM,DIS,150,parada,el,a,527.3442,527.3445,-0.016995614,-0.403508772,0,0,0,,0,145,145,404,1,,,,
,,,,,,224114e4921e99353e1c31cb,66a626ef09d4e21e1a8894ec,6737883c4ae457ac63c1b3c8,2024-11-15_11h44.02.201,Tarea de género gramatical,2024.2.2,Win32,60.24096386,,,,,,,,,,,,,,,,,,,,,,,527.3472,528.4481,l,1,0.4232,,[],[],[],[],[],[],[],0.4232,1,528.4482,528.9454,,,,,,425,MAS,CON,150,chiste,,l,528.9487,528.9503,-0.016995614,-0.403508772,0,0,0,,0,146,146,424,1,,,,
,,,,,,224114e4921e99353e1c31cb,66a626ef09d4e21e1a8894ec,6737883c4ae457ac63c1b3c8,2024-11-15_11h44.02.201,Tarea de género gramatical,2024.2.2,Win32,60.24096386,,,,,,,,,,,,,,,,,,,,,,,528.9519,530.0682,a,0,0.4423,,[],[],[],[],[],[],[],0.4423,0,530.0694,530.5631,,,,,,310,MAS,AGR,150,nombre,el,l,530.5632,530.5632,-0.016995614,-0.403508772,0,0,0,,0,147,147,309,1,,,,
,,,,,,224114e4921e99353e1c31cb,66a626ef09d4e21e1a8894ec,6737883c4ae457ac63c1b3c8,2024-11-15_11h44.02.201,Tarea de género gramatical,2024.2.2,Win32,60.24096386,,,,,,,,,,,,,,,,,,,,,,,530.5656,531.7176,a,0,0.4908,,[],[],[],[],[],[],[],0.4908,0,531.7177,532.2142,,,,,,304,MAS,AGR,150,tiempo,el,l,532.2145,532.2147,-0.016995614,-0.403508772,0,0,0,,0,148,148,303,1,,,,
,,,,,,224114e4921e99353e1c31cb,66a626ef09d4e21e1a8894ec,6737883c4ae457ac63c1b3c8,2024-11-15_11h44.02.201,Tarea de género gramatical,2024.2.2,Win32,60.24096386,,,,,,,,,,,,,,,,,,,,,,,532.2168,533.3388,l,1,0.4431,,[],[],[],[],[],[],[],0.4431,1,533.3403,533.8318,,,,,,347,MAS,CON,150,cuello,,l,533.832,533.8324,-0.016995614,-0.403508772,0,0,0,,0,149,149,346,1,,,,
,,,,,,224114e4921e99353e1c31cb,66a626ef09d4e21e1a8894ec,6737883c4ae457ac63c1b3c8,2024-11-15_11h44.02.201,Tarea de género gramatical,2024.2.2,Win32,60.24096386,,,,,,,,,,,,,,,,,,,,,,,533.8342,534.886,a,1,0.3731,,[],[],[],[],[],[],[],0.3731,1,534.8862,535.3831,,,,,,369,FEM,DIS,150,camisa,el,a,535.3854,549.4797,-0.016995614,-0.403508772,0,0,0,space,0,150,150,368,1,14.0587,,,
,,,,,,224114e4921e99353e1c31cb,66a626ef09d4e21e1a8894ec,6737883c4ae457ac63c1b3c8,2024-11-15_11h44.02.201,Tarea de género gramatical,2024.2.2,Win32,60.24096386,,,,,,,,,,,,,,,,,,,,,,,549.4817,551.348,a,1,1.1907,,[],[],[],[],[],[],[],1.1907,1,551.3481,551.8442,,,,,,13,FEM,AGR,150,hija,la,a,551.8444,551.8449,-0.016995614,-0.403508772,0,0,0,,0,151,151,12,1,,,,
,,,,,,224114e4921e99353e1c31cb,66a626ef09d4e21e1a8894ec,6737883c4ae457ac63c1b3c8,2024-11-15_11h44.02.201,Tarea de género gramatical,2024.2.2,Win32,60.24096386,,,,,,,,,,,,,,,,,,,,,,,551.8474,552.8672,l,1,0.3407,,[],[],[],[],[],[],[],0.3407,1,552.8674,553.3614,,,,,,154,MAS,AGR,150,padre,el,l,553.3616,553.3619,-0.016995614,-0.403508772,0,0,0,,0,152,152,153,1,,,,
,,,,,,224114e4921e99353e1c31cb,66a626ef09d4e21e1a8894ec,6737883c4ae457ac63c1b3c8,2024-11-15_11h44.02.201,Tarea de género gramatical,2024.2.2,Win32,60.24096386,,,,,,,,,,,,,,,,,,,,,,,553.3644,554.3557,l,0,0.3121,,[],[],[],[],[],[],[],0.3121,0,554.3569,554.8584,,,,,,205,FEM,AGR,150,reina,la,a,554.8586,554.8587,-0.016995614,-0.403508772,0,0,0,,0,153,153,204,1,,,,
,,,,,,224114e4921e99353e1c31cb,66a626ef09d4e21e1a8894ec,6737883c4ae457ac63c1b3c8,2024-11-15_11h44.02.201,Tarea de género gramatical,2024.2.2,Win32,60.24096386,,,,,,,,,,,,,,,,,,,,,,,554.8622,555.8974,a,1,0.356,,[],[],[],[],[],[],[],0.356,1,555.8985,556.3927,,,,,,19,FEM,AGR,150,niña,la,a,556.3928,556.3931,-0.016995614,-0.403508772,0,0,0,,0,154,154,18,1,,,,
,,,,,,224114e4921e99353e1c31cb,66a626ef09d4e21e1a8894ec,6737883c4ae457ac63c1b3c8,2024-11-15_11h44.02.201,Tarea de género gramatical,2024.2.2,Win32,60.24096386,,,,,,,,,,,,,,,,,,,,,,,556.3957,557.5497,l,1,0.4732,,[],[],[],[],[],[],[],0.4732,1,557.5498,558.0439,,,,,,180,MAS,DIS,150,fuego,la,l,558.0478,558.0492,-0.016995614,-0.403508772,0,0,0,,0,155,155,179,1,,,,
,,,,,,224114e4921e99353e1c31cb,66a626ef09d4e21e1a8894ec,6737883c4ae457ac63c1b3c8,2024-11-15_11h44.02.201,Tarea de género gramatical,2024.2.2,Win32,60.24096386,,,,,,,,,,,,,,,,,,,,,,,558.0506,559.3003,a,1,0.573,,[],[],[],[],[],[],[],0.573,1,559.3004,559.7947,,,,,,182,FEM,CON,150,prisa,,a,559.7949,559.7954,-0.016995614,-0.403508772,0,0,0,,0,156,156,181,1,,,,
,,,,,,224114e4921e99353e1c31cb,66a626ef09d4e21e1a8894ec,6737883c4ae457ac63c1b3c8,2024-11-15_11h44.02.201,Tarea de género gramatical,2024.2.2,Win32,60.24096386,,,,,,,,,,,,,,,,,,,,,,,559.7973,560.8758,a,1,0.3972,,[],[],[],[],[],[],[],0.3972,1,560.8759,561.3794,,,,,,146,FEM,CON,150,lana,,a,561.3795,561.3798,-0.016995614,-0.403508772,0,0,0,,0,157,157,145,1,,,,
,,,,,,224114e4921e99353e1c31cb,66a626ef09d4e21e1a8894ec,6737883c4ae457ac63c1b3c8,2024-11-15_11h44.02.201,Tarea de género gramatical,2024.2.2,Win32,60.24096386,,,,,,,,,,,,,,,,,,,,,,,561.3823,562.3691,l,1,0.3069,,[],[],[],[],[],[],[],0.3069,1,562.3692,562.8643,,,,,,136,MAS,AGR,150,vago,el,l,562.8644,562.8646,-0.016995614,-0.403508772,0,0,0,,0,158,158,135,1,,,,
,,,,,,224114e4921e99353e1c31cb,66a626ef09d4e21e1a8894ec,6737883c4ae457ac63c1b3c8,2024-11-15_11h44.02.201,Tarea de género gramatical,2024.2.2,Win32,60.24096386,,,,,,,,,,,,,,,,,,,,,,,562.866,563.9535,l,1,0.4063,,[],[],[],[],[],[],[],0.4063,1,563.9536,564.4484,,,,,,328,MAS,AGR,150,asunto,el,l,564.452,564.4532,-0.016995614,-0.403508772,0,0,0,,0,159,159,327,1,,,,
,,,,,,224114e4921e99353e1c31cb,66a626ef09d4e21e1a8894ec,6737883c4ae457ac63c1b3c8,2024-11-15_11h44.02.201,Tarea de género gramatical,2024.2.2,Win32,60.24096386,,,,,,,,,,,,,,,,,,,,,,,564.4545,565.5207,l,1,0.389,,[],[],[],[],[],[],[],0.389,1,565.5208,566.0169,,,,,,60,MAS,DIS,150,tono,la,l,566.0171,566.0171,-0.016995614,-0.403508772,0,0,0,,0,160,160,59,1,,,,
,,,,,,224114e4921e99353e1c31cb,66a626ef09d4e21e1a8894ec,6737883c4ae457ac63c1b3c8,2024-11-15_11h44.02.201,Tarea de género gramatical,2024.2.2,Win32,60.24096386,,,,,,,,,,,,,,,,,,,,,,,566.0186,567.2213,l,1,0.5223,,[],[],[],[],[],[],[],0.5223,1,567.2215,567.7171,,,,,,438,MAS,DIS,150,tanque,la,l,567.7172,567.7177,-0.016995614,-0.403508772,0,0,0,,0,161,161,437,1,,,,
,,,,,,224114e4921e99353e1c31cb,66a626ef09d4e21e1a8894ec,6737883c4ae457ac63c1b3c8,2024-11-15_11h44.02.201,Tarea de género gramatical,2024.2.2,Win32,60.24096386,,,,,,,,,,,,,,,,,,,,,,,567.72,568.7562,a,1,0.3556,,[],[],[],[],[],[],[],0.3556,1,568.7566,569.2528,,,,,,1,FEM,AGR,150,casa,la,a,569.2529,569.2531,-0.016995614,-0.403508772,0,0,0,,0,162,162,0,1,,,,
,,,,,,224114e4921e99353e1c31cb,66a626ef09d4e21e1a8894ec,6737883c4ae457ac63c1b3c8,2024-11-15_11h44.02.201,Tarea de género gramatical,2024.2.2,Win32,60.24096386,,,,,,,,,,,,,,,,,,,,,,,569.2543,570.2578,l,1,0.323,,[],[],[],[],[],[],[],0.323,1,570.2578,570.7528,,,,,,269,MAS,CON,150,primo,,l,570.753,570.7532,-0.016995614,-0.403508772,0,0,0,,0,163,163,268,1,,,,
,,,,,,224114e4921e99353e1c31cb,66a626ef09d4e21e1a8894ec,6737883c4ae457ac63c1b3c8,2024-11-15_11h44.02.201,Tarea de género gramatical,2024.2.2,Win32,60.24096386,,,,,,,,,,,,,,,,,,,,,,,570.7548,571.7923,a,0,0.3557,,[],[],[],[],[],[],[],0.3557,0,571.7934,572.2872,,,,,,449,MAS,CON,150,payaso,,l,572.2908,572.2921,-0.016995614,-0.403508772,0,0,0,,0,164,164,448,1,,,,
,,,,,,224114e4921e99353e1c31cb,66a626ef09d4e21e1a8894ec,6737883c4ae457ac63c1b3c8,2024-11-15_11h44.02.201,Tarea de género gramatical,2024.2.2,Win32,60.24096386,,,,,,,,,,,,,,,,,,,,,,,572.2938,573.2765,a,0,0.3062,,[],[],[],[],[],[],[],0.3062,0,573.2767,573.7716,,,,,,23,MAS,CON,150,rato,,l,573.7718,573.7722,-0.016995614,-0.403508772,0,0,0,,0,165,165,22,1,,,,
,,,,,,224114e4921e99353e1c31cb,66a626ef09d4e21e1a8894ec,6737883c4ae457ac63c1b3c8,2024-11-15_11h44.02.201,Tarea de género gramatical,2024.2.2,Win32,60.24096386,,,,,,,,,,,,,,,,,,,,,,,573.7741,575.0609,l,1,0.6069,,[],[],[],[],[],[],[],0.6069,1,575.0621,575.5606,,,,,,246,MAS,DIS,150,humor,la,l,575.5607,575.5608,-0.016995614,-0.403508772,0,0,0,,0,166,166,245,1,,,,
,,,,,,224114e4921e99353e1c31cb,66a626ef09d4e21e1a8894ec,6737883c4ae457ac63c1b3c8,2024-11-15_11h44.02.201,Tarea de género gramatical,2024.2.2,Win32,60.24096386,,,,,,,,,,,,,,,,,,,,,,,575.5625,576.5968,a,1,0.3557,,[],[],[],[],[],[],[],0.3557,1,576.5969,577.0957,,,,,,380,FEM,CON,150,madera,,a,577.0957,577.0959,-0.016995614,-0.403508772,0,0,0,,0,167,167,379,1,,,,
,,,,,,224114e4921e99353e1c31cb,66a626ef09d4e21e1a8894ec,6737883c4ae457ac63c1b3c8,2024-11-15_11h44.02.201,Tarea de género gramatical,2024.2.2,Win32,60.24096386,,,,,,,,,,,,,,,,,,,,,,,577.0976,578.165,l,1,0.3891,,[],[],[],[],[],[],[],0.3891,1,578.165,578.6632,,,,,,76,MAS,AGR,150,lujo,el,l,578.665,578.6663,-0.016995614,-0.403508772,0,0,0,,0,168,168,75,1,,,,
,,,,,,224114e4921e99353e1c31cb,66a626ef09d4e21e1a8894ec,6737883c4ae457ac63c1b3c8,2024-11-15_11h44.02.201,Tarea de género gramatical,2024.2.2,Win32,60.24096386,,,,,,,,,,,,,,,,,,,,,,,578.6675,579.7159,l,1,0.3723,,[],[],[],[],[],[],[],0.3723,1,579.716,580.2144,,,,,,24,MAS,DIS,150,voto,la,l,580.2145,580.2145,-0.016995614,-0.403508772,0,0,0,,0,169,169,23,1,,,,
,,,,,,224114e4921e99353e1c31cb,66a626ef09d4e21e1a8894ec,6737883c4ae457ac63c1b3c8,2024-11-15_11h44.02.201,Tarea de género gramatical,2024.2.2,Win32,60.24096386,,,,,,,,,,,,,,,,,,,,,,,580.2166,581.3375,a,1,0.4429,,[],[],[],[],[],[],[],0.4429,1,581.3377,581.8322,,,,,,357,FEM,DIS,150,lengua,el,a,581.8324,581.8329,-0.016995614,-0.403508772,0,0,0,,0,170,170,356,1,,,,
,,,,,,224114e4921e99353e1c31cb,66a626ef09d4e21e1a8894ec,6737883c4ae457ac63c1b3c8,2024-11-15_11h44.02.201,Tarea de género gramatical,2024.2.2,Win32,60.24096386,,,,,,,,,,,,,,,,,,,,,,,581.8347,583.0189,a,1,0.5065,,[],[],[],[],[],[],[],0.5065,1,583.019,583.5172,,,,,,429,FEM,DIS,150,fianza,el,a,583.5173,583.5174,-0.016995614,-0.403508772,0,0,0,,0,171,171,428,1,,,,
,,,,,,224114e4921e99353e1c31cb,66a626ef09d4e21e1a8894ec,6737883c4ae457ac63c1b3c8,2024-11-15_11h44.02.201,Tarea de género gramatical,2024.2.2,Win32,60.24096386,,,,,,,,,,,,,,,,,,,,,,,583.5192,584.689,l,1,0.4922,,[],[],[],[],[],[],[],0.4922,1,584.6891,585.1845,,,,,,450,MAS,DIS,150,conejo,la,l,585.1845,585.185,-0.016995614,-0.403508772,0,0,0,,0,172,172,449,1,,,,
,,,,,,224114e4921e99353e1c31cb,66a626ef09d4e21e1a8894ec,6737883c4ae457ac63c1b3c8,2024-11-15_11h44.02.201,Tarea de género gramatical,2024.2.2,Win32,60.24096386,,,,,,,,,,,,,,,,,,,,,,,585.1869,586.32,a,1,0.4562,,[],[],[],[],[],[],[],0.4562,1,586.3202,586.8189,,,,,,147,FEM,DIS,150,grúa,el,a,586.8207,586.8217,-0.016995614,-0.403508772,0,0,0,,0,173,173,146,1,,,,
,,,,,,224114e4921e99353e1c31cb,66a626ef09d4e21e1a8894ec,6737883c4ae457ac63c1b3c8,2024-11-15_11h44.02.201,Tarea de género gramatical,2024.2.2,Win32,60.24096386,,,,,,,,,,,,,,,,,,,,,,,586.8229,587.955,l,1,0.4562,,[],[],[],[],[],[],[],0.4562,1,587.9551,588.4534,,,,,,334,MAS,AGR,150,ataque,el,l,588.4535,588.4536,-0.016995614,-0.403508772,0,0,0,,0,174,174,333,1,,,,
,,,,,,224114e4921e99353e1c31cb,66a626ef09d4e21e1a8894ec,6737883c4ae457ac63c1b3c8,2024-11-15_11h44.02.201,Tarea de género gramatical,2024.2.2,Win32,60.24096386,,,,,,,,,,,,,,,,,,,,,,,588.4559,589.4896,a,1,0.356,,[],[],[],[],[],[],[],0.356,1,589.4897,589.9885,,,,,,259,FEM,AGR,150,prima,la,a,589.9886,589.9886,-0.016995614,-0.403508772,0,0,0,,0,175,175,258,1,,,,
,,,,,,224114e4921e99353e1c31cb,66a626ef09d4e21e1a8894ec,6737883c4ae457ac63c1b3c8,2024-11-15_11h44.02.201,Tarea de género gramatical,2024.2.2,Win32,60.24096386,,,,,,,,,,,,,,,,,,,,,,,589.9904,591.1087,l,1,0.4406,,[],[],[],[],[],[],[],0.4406,1,591.1088,591.6056,,,,,,383,MAS,CON,150,parque,,l,591.606,591.6063,-0.016995614,-0.403508772,0,0,0,,0,176,176,382,1,,,,
,,,,,,224114e4921e99353e1c31cb,66a626ef09d4e21e1a8894ec,6737883c4ae457ac63c1b3c8,2024-11-15_11h44.02.201,Tarea de género gramatical,2024.2.2,Win32,60.24096386,,,,,,,,,,,,,,,,,,,,,,,591.6081,592.857,l,1,0.572,,[],[],[],[],[],[],[],0.572,1,592.8571,593.3561,,,,,,360,MAS,DIS,150,puente,la,l,593.3586,593.3599,-0.016995614,-0.403508772,0,0,0,,0,177,177,359,1,,,,
,,,,,,224114e4921e99353e1c31cb,66a626ef09d4e21e1a8894ec,6737883c4ae457ac63c1b3c8,2024-11-15_11h44.02.201,Tarea de género gramatical,2024.2.2,Win32,60.24096386,,,,,,,,,,,,,,,,,,,,,,,593.3615,594.3432,l,1,0.3061,,[],[],[],[],[],[],[],0.3061,1,594.3433,594.8412,,,,,,262,MAS,AGR,150,video,el,l,594.8412,594.8413,-0.016995614,-0.403508772,0,0,0,,0,178,178,261,1,,,,
,,,,,,224114e4921e99353e1c31cb,66a626ef09d4e21e1a8894ec,6737883c4ae457ac63c1b3c8,2024-11-15_11h44.02.201,Tarea de género gramatical,2024.2.2,Win32,60.24096386,,,,,,,,,,,,,,,,,,,,,,,594.8435,595.8257,l,1,0.3045,,[],[],[],[],[],[],[],0.3045,1,595.8259,596.3253,,,,,,402,MAS,DIS,150,ladrón,la,l,596.3254,596.3255,-0.016995614,-0.403508772,0,0,0,,0,179,179,401,1,,,,
,,,,,,224114e4921e99353e1c31cb,66a626ef09d4e21e1a8894ec,6737883c4ae457ac63c1b3c8,2024-11-15_11h44.02.201,Tarea de género gramatical,2024.2.2,Win32,60.24096386,,,,,,,,,,,,,,,,,,,,,,,596.3271,597.3781,l,1,0.3723,,[],[],[],[],[],[],[],0.3723,1,597.3783,597.8772,,,,,,324,MAS,DIS,150,cuarto,la,l,597.8773,597.8774,-0.016995614,-0.403508772,0,0,0,,0,180,180,323,1,,,,
,,,,,,224114e4921e99353e1c31cb,66a626ef09d4e21e1a8894ec,6737883c4ae457ac63c1b3c8,2024-11-15_11h44.02.201,Tarea de género gramatical,2024.2.2,Win32,60.24096386,,,,,,,,,,,,,,,,,,,,,,,597.8792,598.8451,l,1,0.2884,,[],[],[],[],[],[],[],0.2884,1,598.8452,599.3444,,,,,,30,MAS,DIS,150,cine,la,l,599.3445,599.3451,-0.016995614,-0.403508772,0,0,0,,0,181,181,29,1,,,,
,,,,,,224114e4921e99353e1c31cb,66a626ef09d4e21e1a8894ec,6737883c4ae457ac63c1b3c8,2024-11-15_11h44.02.201,Tarea de género gramatical,2024.2.2,Win32,60.24096386,,,,,,,,,,,,,,,,,,,,,,,599.3468,600.4803,l,0,0.456,,[],[],[],[],[],[],[],0.456,0,600.4815,600.9786,,,,,,445,FEM,AGR,150,bondad,la,a,600.9802,600.9814,-0.016995614,-0.403508772,0,0,0,,0,182,182,444,1,,,,
,,,,,,224114e4921e99353e1c31cb,66a626ef09d4e21e1a8894ec,6737883c4ae457ac63c1b3c8,2024-11-15_11h44.02.201,Tarea de género gramatical,2024.2.2,Win32,60.24096386,,,,,,,,,,,,,,,,,,,,,,,600.9826,602.0179,a,1,0.359,,[],[],[],[],[],[],[],0.359,1,602.019,602.5131,,,,,,73,FEM,AGR,150,roca,la,a,602.5132,602.5133,-0.016995614,-0.403508772,0,0,0,,0,183,183,72,1,,,,
,,,,,,224114e4921e99353e1c31cb,66a626ef09d4e21e1a8894ec,6737883c4ae457ac63c1b3c8,2024-11-15_11h44.02.201,Tarea de género gramatical,2024.2.2,Win32,60.24096386,,,,,,,,,,,,,,,,,,,,,,,602.5151,603.5483,l,1,0.3554,,[],[],[],[],[],[],[],0.3554,1,603.5485,604.0479,,,,,,240,MAS,DIS,150,ruido,la,l,604.0479,604.0481,-0.016995614,-0.403508772,0,0,0,,0,184,184,239,1,,,,
,,,,,,224114e4921e99353e1c31cb,66a626ef09d4e21e1a8894ec,6737883c4ae457ac63c1b3c8,2024-11-15_11h44.02.201,Tarea de género gramatical,2024.2.2,Win32,60.24096386,,,,,,,,,,,,,,,,,,,,,,,604.0499,605.0676,a,1,0.3402,,[],[],[],[],[],[],[],0.3402,1,605.0677,605.5655,,,,,,85,FEM,AGR,150,gira,la,a,605.5656,605.5657,-0.016995614,-0.403508772,0,0,0,,0,185,185,84,1,,,,
,,,,,,224114e4921e99353e1c31cb,66a626ef09d4e21e1a8894ec,6737883c4ae457ac63c1b3c8,2024-11-15_11h44.02.201,Tarea de género gramatical,2024.2.2,Win32,60.24096386,,,,,,,,,,,,,,,,,,,,,,,605.5675,606.6006,l,1,0.3555,,[],[],[],[],[],[],[],0.3555,1,606.6007,607.0995,,,,,,162,MAS,DIS,150,miedo,la,l,607.1014,607.1025,-0.016995614,-0.403508772,0,0,0,,0,186,186,161,1,,,,
,,,,,,224114e4921e99353e1c31cb,66a626ef09d4e21e1a8894ec,6737883c4ae457ac63c1b3c8,2024-11-15_11h44.02.201,Tarea de género gramatical,2024.2.2,Win32,60.24096386,,,,,,,,,,,,,,,,,,,,,,,607.1038,608.1351,l,1,0.3556,,[],[],[],[],[],[],[],0.3556,1,608.1352,608.6346,,,,,,203,MAS,CON,150,novio,,l,608.6347,608.6348,-0.016995614,-0.403508772,0,0,0,,0,187,187,202,1,,,,
,,,,,,224114e4921e99353e1c31cb,66a626ef09d4e21e1a8894ec,6737883c4ae457ac63c1b3c8,2024-11-15_11h44.02.201,Tarea de género gramatical,2024.2.2,Win32,60.24096386,,,,,,,,,,,,,,,,,,,,,,,608.6367,609.6036,a,0,0.2897,,[],[],[],[],[],[],[],0.2897,0,609.6048,610.1023,,,,,,352,MAS,AGR,150,estilo,el,l,610.1025,610.1026,-0.016995614,-0.403508772,0,0,0,,0,188,188,351,1,,,,
,,,,,,224114e4921e99353e1c31cb,66a626ef09d4e21e1a8894ec,6737883c4ae457ac63c1b3c8,2024-11-15_11h44.02.201,Tarea de género gramatical,2024.2.2,Win32,60.24096386,,,,,,,,,,,,,,,,,,,,,,,610.1049,611.2198,l,1,0.4384,,[],[],[],[],[],[],[],0.4384,1,611.2207,611.7197,,,,,,131,MAS,CON,150,kilo,,l,611.7197,611.7199,-0.016995614,-0.403508772,0,0,0,,0,189,189,130,1,,,,
,,,,,,224114e4921e99353e1c31cb,66a626ef09d4e21e1a8894ec,6737883c4ae457ac63c1b3c8,2024-11-15_11h44.02.201,Tarea de género gramatical,2024.2.2,Win32,60.24096386,,,,,,,,,,,,,,,,,,,,,,,611.7214,612.8891,l,1,0.4902,,[],[],[],[],[],[],[],0.4902,1,612.8893,613.3876,,,,,,390,MAS,DIS,150,rostro,la,l,613.3877,613.3879,-0.016995614,-0.403508772,0,0,0,,0,190,190,389,1,,,,
,,,,,,224114e4921e99353e1c31cb,66a626ef09d4e21e1a8894ec,6737883c4ae457ac63c1b3c8,2024-11-15_11h44.02.201,Tarea de género gramatical,2024.2.2,Win32,60.24096386,,,,,,,,,,,,,,,,,,,,,,,613.3897,614.3593,l,1,0.2919,,[],[],[],[],[],[],[],0.2919,1,614.3595,614.8548,,,,,,274,MAS,AGR,150,motor,el,l,614.8566,614.8577,-0.016995614,-0.403508772,0,0,0,,0,191,191,273,1,,,,
,,,,,,224114e4921e99353e1c31cb,66a626ef09d4e21e1a8894ec,6737883c4ae457ac63c1b3c8,2024-11-15_11h44.02.201,Tarea de género gramatical,2024.2.2,Win32,60.24096386,,,,,,,,,,,,,,,,,,,,,,,614.8589,615.7411,l,0,0.2062,,[],[],[],[],[],[],[],0.2062,0,615.7421,616.2384,,,,,,211,FEM,AGR,150,salud,la,a,616.2385,616.2386,-0.016995614,-0.403508772,0,0,0,,0,192,192,210,1,,,,
,,,,,,224114e4921e99353e1c31cb,66a626ef09d4e21e1a8894ec,6737883c4ae457ac63c1b3c8,2024-11-15_11h44.02.201,Tarea de género gramatical,2024.2.2,Win32,60.24096386,,,,,,,,,,,,,,,,,,,,,,,616.2403,617.6924,l,1,0.7734,,[],[],[],[],[],[],[],0.7734,1,617.6936,618.1903,,,,,,359,MAS,CON,150,bosque,,l,618.1903,618.1905,-0.016995614,-0.403508772,0,0,0,,0,193,193,358,1,,,,
,,,,,,224114e4921e99353e1c31cb,66a626ef09d4e21e1a8894ec,6737883c4ae457ac63c1b3c8,2024-11-15_11h44.02.201,Tarea de género gramatical,2024.2.2,Win32,60.24096386,,,,,,,,,,,,,,,,,,,,,,,618.1924,619.1595,a,1,0.289,,[],[],[],[],[],[],[],0.289,1,619.1596,619.658,,,,,,339,FEM,DIS,150,salida,el,a,619.658,619.6582,-0.016995614,-0.403508772,0,0,0,,0,194,194,338,1,,,,
,,,,,,224114e4921e99353e1c31cb,66a626ef09d4e21e1a8894ec,6737883c4ae457ac63c1b3c8,2024-11-15_11h44.02.201,Tarea de género gramatical,2024.2.2,Win32,60.24096386,,,,,,,,,,,,,,,,,,,,,,,619.6595,620.6595,a,1,0.3217,,[],[],[],[],[],[],[],0.3217,1,620.6597,621.1589,,,,,,87,FEM,DIS,150,risa,el,a,621.1613,621.1626,-0.016995614,-0.403508772,0,0,0,,0,195,195,86,1,,,,
,,,,,,224114e4921e99353e1c31cb,66a626ef09d4e21e1a8894ec,6737883c4ae457ac63c1b3c8,2024-11-15_11h44.02.201,Tarea de género gramatical,2024.2.2,Win32,60.24096386,,,,,,,,,,,,,,,,,,,,,,,621.1643,622.1611,a,1,0.3219,,[],[],[],[],[],[],[],0.3219,1,622.1612,622.6598,,,,,,379,FEM,AGR,150,granja,la,a,622.6599,622.6601,-0.016995614,-0.403508772,0,0,0,,0,196,196,378,1,,,,
,,,,,,224114e4921e99353e1c31cb,66a626ef09d4e21e1a8894ec,6737883c4ae457ac63c1b3c8,2024-11-15_11h44.02.201,Tarea de género gramatical,2024.2.2,Win32,60.24096386,,,,,,,,,,,,,,,,,,,,,,,622.6622,623.7628,a,1,0.4226,,[],[],[],[],[],[],[],0.4226,1,623.7628,624.2611,,,,,,153,FEM,DIS,150,mujer,el,a,624.2611,624.2615,-0.016995614,-0.403508772,0,0,0,,0,197,197,152,1,,,,
,,,,,,224114e4921e99353e1c31cb,66a626ef09d4e21e1a8894ec,6737883c4ae457ac63c1b3c8,2024-11-15_11h44.02.201,Tarea de género gramatical,2024.2.2,Win32,60.24096386,,,,,,,,,,,,,,,,,,,,,,,624.2631,625.2805,l,1,0.3394,,[],[],[],[],[],[],[],0.3394,1,625.2806,625.7787,,,,,,40,MAS,AGR,150,dios,el,l,625.7789,625.779,-0.016995614,-0.403508772,0,0,0,,0,198,198,39,1,,,,
,,,,,,224114e4921e99353e1c31cb,66a626ef09d4e21e1a8894ec,6737883c4ae457ac63c1b3c8,2024-11-15_11h44.02.201,Tarea de género gramatical,2024.2.2,Win32,60.24096386,,,,,,,,,,,,,,,,,,,,,,,625.7811,626.8492,l,1,0.3895,,[],[],[],[],[],[],[],0.3895,1,626.8493,627.3466,,,,,,160,MAS,AGR,150,señor,el,l,627.3467,627.3468,-0.016995614,-0.403508772,0,0,0,,0,199,199,159,1,,,,
,,,,,,224114e4921e99353e1c31cb,66a626ef09d4e21e1a8894ec,6737883c4ae457ac63c1b3c8,2024-11-15_11h44.02.201,Tarea de género gramatical,2024.2.2,Win32,60.24096386,,,,,,,,,,,,,,,,,,,,,,,627.3482,628.3164,a,1,0.2896,,[],[],[],[],[],[],[],0.2896,1,628.3166,628.8145,,,,,,128,FEM,CON,150,leña,,a,628.8165,628.8176,-0.016995614,-0.403508772,0,0,0,,0,200,200,127,1,,,,
,,,,,,224114e4921e99353e1c31cb,66a626ef09d4e21e1a8894ec,6737883c4ae457ac63c1b3c8,2024-11-15_11h44.02.201,Tarea de género gramatical,2024.2.2,Win32,60.24096386,,,,,,,,,,,,,,,,,,,,,,,628.8192,629.8664,l,0,0.3722,,[],[],[],[],[],[],[],0.3722,0,629.8673,630.3654,,,,,,181,FEM,AGR,150,tarde,la,a,630.3655,630.3656,-0.016995614,-0.403508772,0,0,0,,0,201,201,180,1,,,,
,,,,,,224114e4921e99353e1c31cb,66a626ef09d4e21e1a8894ec,6737883c4ae457ac63c1b3c8,2024-11-15_11h44.02.201,Tarea de género gramatical,2024.2.2,Win32,60.24096386,,,,,,,,,,,,,,,,,,,,,,,630.3675,631.5885,a,0,0.5434,,[],[],[],[],[],[],[],0.5434,0,631.5887,632.0821,,,,,,89,MAS,CON,150,maíz,,l,632.0822,632.0822,-0.016995614,-0.403508772,0,0,0,,0,202,202,88,1,,,,
,,,,,,224114e4921e99353e1c31cb,66a626ef09d4e21e1a8894ec,6737883c4ae457ac63c1b3c8,2024-11-15_11h44.02.201,Tarea de género gramatical,2024.2.2,Win32,60.24096386,,,,,,,,,,,,,,,,,,,,,,,632.0841,633.2365,a,1,0.4896,,[],[],[],[],[],[],[],0.4896,1,633.2376,633.7338,,,,,,361,FEM,AGR,150,oferta,la,a,633.7339,633.7341,-0.016995614,-0.403508772,0,0,0,,0,203,203,360,1,,,,
,,,,,,224114e4921e99353e1c31cb,66a626ef09d4e21e1a8894ec,6737883c4ae457ac63c1b3c8,2024-11-15_11h44.02.201,Tarea de género gramatical,2024.2.2,Win32,60.24096386,,,,,,,,,,,,,,,,,,,,,,,633.736,634.9392,l,1,0.5413,,[],[],[],[],[],[],[],0.5413,1,634.9392,635.4354,,,,,,59,MAS,CON,150,lobo,,l,635.4373,635.4384,-0.016995614,-0.403508772,0,0,0,,0,204,204,58,1,,,,
,,,,,,224114e4921e99353e1c31cb,66a626ef09d4e21e1a8894ec,6737883c4ae457ac63c1b3c8,2024-11-15_11h44.02.201,Tarea de género gramatical,2024.2.2,Win32,60.24096386,,,,,,,,,,,,,,,,,,,,,,,635.4397,636.4223,l,1,0.3067,,[],[],[],[],[],[],[],0.3067,1,636.4225,636.92,,,,,,299,MAS,CON,150,rumbo,,l,636.92,636.9202,-0.016995614,-0.403508772,0,0,0,,0,205,205,298,1,,,,
,,,,,,224114e4921e99353e1c31cb,66a626ef09d4e21e1a8894ec,6737883c4ae457ac63c1b3c8,2024-11-15_11h44.02.201,Tarea de género gramatical,2024.2.2,Win32,60.24096386,,,,,,,,,,,,,,,,,,,,,,,636.9217,638.0057,a,1,0.406,,[],[],[],[],[],[],[],0.406,1,638.0058,638.5039,,,,,,213,FEM,DIS,150,magia,el,a,638.504,638.5045,-0.016995614,-0.403508772,0,0,0,,0,206,206,212,1,,,,
,,,,,,224114e4921e99353e1c31cb,66a626ef09d4e21e1a8894ec,6737883c4ae457ac63c1b3c8,2024-11-15_11h44.02.201,Tarea de género gramatical,2024.2.2,Win32,60.24096386,,,,,,,,,,,,,,,,,,,,,,,638.5084,639.5897,l,1,0.4052,,[],[],[],[],[],[],[],0.4052,1,639.5899,640.0891,,,,,,292,MAS,AGR,150,piano,el,l,640.0891,640.0892,-0.016995614,-0.403508772,0,0,0,,0,207,207,291,1,,,,
,,,,,,224114e4921e99353e1c31cb,66a626ef09d4e21e1a8894ec,6737883c4ae457ac63c1b3c8,2024-11-15_11h44.02.201,Tarea de género gramatical,2024.2.2,Win32,60.24096386,,,,,,,,,,,,,,,,,,,,,,,640.0905,641.259,l,0,0.4903,,[],[],[],[],[],[],[],0.4903,0,641.2602,641.757,,,,,,218,FEM,CON,150,nieve,,a,641.7571,641.7573,-0.016995614,-0.403508772,0,0,0,,0,208,208,217,1,,,,
,,,,,,224114e4921e99353e1c31cb,66a626ef09d4e21e1a8894ec,6737883c4ae457ac63c1b3c8,2024-11-15_11h44.02.201,Tarea de género gramatical,2024.2.2,Win32,60.24096386,,,,,,,,,,,,,,,,,,,,,,,641.7592,643.0607,l,0,0.624,,[],[],[],[],[],[],[],0.624,0,643.0608,643.5586,,,,,,243,FEM,DIS,150,salsa,el,a,643.5605,643.5617,-0.016995614,-0.403508772,0,0,0,,0,209,209,242,1,,,,
,,,,,,224114e4921e99353e1c31cb,66a626ef09d4e21e1a8894ec,6737883c4ae457ac63c1b3c8,2024-11-15_11h44.02.201,Tarea de género gramatical,2024.2.2,Win32,60.24096386,,,,,,,,,,,,,,,,,,,,,,,643.5635,644.679,a,1,0.4413,,[],[],[],[],[],[],[],0.4413,1,644.6801,645.1759,,,,,,225,FEM,DIS,150,pieza,el,a,645.1761,645.1762,-0.016995614,-0.403508772,0,0,0,,0,210,210,224,1,,,,
,,,,,,224114e4921e99353e1c31cb,66a626ef09d4e21e1a8894ec,6737883c4ae457ac63c1b3c8,2024-11-15_11h44.02.201,Tarea de género gramatical,2024.2.2,Win32,60.24096386,,,,,,,,,,,,,,,,,,,,,,,645.1776,646.4489,l,1,0.593,,[],[],[],[],[],[],[],0.593,1,646.449,646.9441,,,,,,204,MAS,DIS,150,papel,la,l,646.9442,646.9444,-0.016995614,-0.403508772,0,0,0,,0,211,211,203,1,,,,
,,,,,,224114e4921e99353e1c31cb,66a626ef09d4e21e1a8894ec,6737883c4ae457ac63c1b3c8,2024-11-15_11h44.02.201,Tarea de género gramatical,2024.2.2,Win32,60.24096386,,,,,,,,,,,,,,,,,,,,,,,646.946,648.228,l,1,0.6049,,[],[],[],[],[],[],[],0.6049,1,648.2282,648.7276,,,,,,346,MAS,AGR,150,juicio,el,l,648.7277,648.7277,-0.016995614,-0.403508772,0,0,0,,0,212,212,345,1,,,,
,,,,,,224114e4921e99353e1c31cb,66a626ef09d4e21e1a8894ec,6737883c4ae457ac63c1b3c8,2024-11-15_11h44.02.201,Tarea de género gramatical,2024.2.2,Win32,60.24096386,,,,,,,,,,,,,,,,,,,,,,,648.7296,650.2476,l,1,0.8396,,[],[],[],[],[],[],[],0.8396,1,650.2477,650.7463,,,,,,17,MAS,CON,150,modo,,l,650.7484,650.7497,-0.016995614,-0.403508772,0,0,0,,0,213,213,16,1,,,,
,,,,,,224114e4921e99353e1c31cb,66a626ef09d4e21e1a8894ec,6737883c4ae457ac63c1b3c8,2024-11-15_11h44.02.201,Tarea de género gramatical,2024.2.2,Win32,60.24096386,,,,,,,,,,,,,,,,,,,,,,,650.7512,652.0319,l,1,0.6057,,[],[],[],[],[],[],[],0.6057,1,652.032,652.531,,,,,,300,MAS,DIS,150,túnel,la,l,652.5313,652.5315,-0.016995614,-0.403508772,0,0,0,,0,214,214,299,1,,,,
,,,,,,224114e4921e99353e1c31cb,66a626ef09d4e21e1a8894ec,6737883c4ae457ac63c1b3c8,2024-11-15_11h44.02.201,Tarea de género gramatical,2024.2.2,Win32,60.24096386,,,,,,,,,,,,,,,,,,,,,,,652.5338,653.6336,l,1,0.423,,[],[],[],[],[],[],[],0.423,1,653.6337,654.1317,,,,,,436,MAS,AGR,150,objeto,el,l,654.132,654.1323,-0.016995614,-0.403508772,0,0,0,,0,215,215,435,1,,,,
,,,,,,224114e4921e99353e1c31cb,66a626ef09d4e21e1a8894ec,6737883c4ae457ac63c1b3c8,2024-11-15_11h44.02.201,Tarea de género gramatical,2024.2.2,Win32,60.24096386,,,,,,,,,,,,,,,,,,,,,,,654.1342,655.2683,l,1,0.4564,,[],[],[],[],[],[],[],0.4564,1,655.2684,655.7667,,,,,,268,MAS,AGR,150,truco,el,l,655.7668,655.767,-0.016995614,-0.403508772,0,0,0,,0,216,216,267,1,,,,
,,,,,,224114e4921e99353e1c31cb,66a626ef09d4e21e1a8894ec,6737883c4ae457ac63c1b3c8,2024-11-15_11h44.02.201,Tarea de género gramatical,2024.2.2,Win32,60.24096386,,,,,,,,,,,,,,,,,,,,,,,655.7685,656.9011,l,1,0.4557,,[],[],[],[],[],[],[],0.4557,1,656.9013,657.401,,,,,,281,MAS,CON,150,actor,,l,657.4012,657.4015,-0.016995614,-0.403508772,0,0,0,,0,217,217,280,1,,,,
,,,,,,224114e4921e99353e1c31cb,66a626ef09d4e21e1a8894ec,6737883c4ae457ac63c1b3c8,2024-11-15_11h44.02.201,Tarea de género gramatical,2024.2.2,Win32,60.24096386,,,,,,,,,,,,,,,,,,,,,,,657.4034,658.502,a,1,0.4216,,[],[],[],[],[],[],[],0.4216,1,658.5021,659.0024,,,,,,439,FEM,AGR,150,toalla,la,a,659.0041,659.0052,-0.016995614,-0.403508772,0,0,0,,0,218,218,438,1,,,,
,,,,,,224114e4921e99353e1c31cb,66a626ef09d4e21e1a8894ec,6737883c4ae457ac63c1b3c8,2024-11-15_11h44.02.201,Tarea de género gramatical,2024.2.2,Win32,60.24096386,,,,,,,,,,,,,,,,,,,,,,,659.0065,660.1883,a,0,0.5063,,[],[],[],[],[],[],[],0.5063,0,660.1894,660.6866,,,,,,130,MAS,AGR,150,yate,el,l,660.6867,660.6868,-0.016995614,-0.403508772,0,0,0,,0,219,219,129,1,,,,
,,,,,,224114e4921e99353e1c31cb,66a626ef09d4e21e1a8894ec,6737883c4ae457ac63c1b3c8,2024-11-15_11h44.02.201,Tarea de género gramatical,2024.2.2,Win32,60.24096386,,,,,,,,,,,,,,,,,,,,,,,660.6884,662.1093,l,1,0.7429,,[],[],[],[],[],[],[],0.7429,1,662.1104,662.6043,,,,,,149,MAS,CON,150,nudo,,l,662.6043,662.6045,-0.016995614,-0.403508772,0,0,0,,0,220,220,148,1,,,,
,,,,,,224114e4921e99353e1c31cb,66a626ef09d4e21e1a8894ec,6737883c4ae457ac63c1b3c8,2024-11-15_11h44.02.201,Tarea de género gramatical,2024.2.2,Win32,60.24096386,,,,,,,,,,,,,,,,,,,,,,,662.6063,663.7086,a,1,0.4243,,[],[],[],[],[],[],[],0.4243,1,663.7087,664.2051,,,,,,224,FEM,CON,150,arena,,a,664.2052,664.2056,-0.016995614,-0.403508772,0,0,0,,0,221,221,223,1,,,,
,,,,,,224114e4921e99353e1c31cb,66a626ef09d4e21e1a8894ec,6737883c4ae457ac63c1b3c8,2024-11-15_11h44.02.201,Tarea de género gramatical,2024.2.2,Win32,60.24096386,,,,,,,,,,,,,,,,,,,,,,,664.2072,665.4415,a,1,0.5726,,[],[],[],[],[],[],[],0.5726,1,665.4415,665.9398,,,,,,151,FEM,AGR,150,noche,la,a,665.9421,665.9434,-0.016995614,-0.403508772,0,0,0,,0,222,222,150,1,,,,
,,,,,,224114e4921e99353e1c31cb,66a626ef09d4e21e1a8894ec,6737883c4ae457ac63c1b3c8,2024-11-15_11h44.02.201,Tarea de género gramatical,2024.2.2,Win32,60.24096386,,,,,,,,,,,,,,,,,,,,,,,665.9449,667.1786,l,1,0.5586,,[],[],[],[],[],[],[],0.5586,1,667.1787,667.6749,,,,,,161,MAS,CON,150,chico,,l,667.675,667.6752,-0.016995614,-0.403508772,0,0,0,,0,223,223,160,1,,,,
,,,,,,224114e4921e99353e1c31cb,66a626ef09d4e21e1a8894ec,6737883c4ae457ac63c1b3c8,2024-11-15_11h44.02.201,Tarea de género gramatical,2024.2.2,Win32,60.24096386,,,,,,,,,,,,,,,,,,,,,,,667.6769,668.7445,a,1,0.3899,,[],[],[],[],[],[],[],0.3899,1,668.7446,669.2419,,,,,,115,FEM,AGR,150,seda,la,a,669.2421,669.2422,-0.016995614,-0.403508772,0,0,0,,0,224,224,114,1,,,,
,,,,,,224114e4921e99353e1c31cb,66a626ef09d4e21e1a8894ec,6737883c4ae457ac63c1b3c8,2024-11-15_11h44.02.201,Tarea de género gramatical,2024.2.2,Win32,60.24096386,,,,,,,,,,,,,,,,,,,,,,,669.2437,670.3492,l,1,0.4266,,[],[],[],[],[],[],[],0.4266,1,670.3492,670.8437,,,,,,118,MAS,AGR,150,baúl,el,l,670.8438,670.8438,-0.016995614,-0.403508772,0,0,0,,0,225,225,117,1,,,,
,,,,,,224114e4921e99353e1c31cb,66a626ef09d4e21e1a8894ec,6737883c4ae457ac63c1b3c8,2024-11-15_11h44.02.201,Tarea de género gramatical,2024.2.2,Win32,60.24096386,,,,,,,,,,,,,,,,,,,,,,,670.8456,672.228,a,0,0.7048,,[],[],[],[],[],[],[],0.7048,0,672.2293,672.7283,,,,,,138,MAS,DIS,150,luto,la,l,672.7284,672.7286,-0.016995614,-0.403508772,0,0,0,,0,226,226,137,1,,,,
,,,,,,224114e4921e99353e1c31cb,66a626ef09d4e21e1a8894ec,6737883c4ae457ac63c1b3c8,2024-11-15_11h44.02.201,Tarea de género gramatical,2024.2.2,Win32,60.24096386,,,,,,,,,,,,,,,,,,,,,,,672.7301,674.3306,l,0,0.9229,,[],[],[],[],[],[],[],0.9229,0,674.3307,674.8292,,,,,,195,FEM,DIS,150,pared,el,a,674.8308,674.832,-0.016995614,-0.403508772,0,0,0,,0,227,227,194,1,,,,
,,,,,,224114e4921e99353e1c31cb,66a626ef09d4e21e1a8894ec,6737883c4ae457ac63c1b3c8,2024-11-15_11h44.02.201,Tarea de género gramatical,2024.2.2,Win32,60.24096386,,,,,,,,,,,,,,,,,,,,,,,674.8332,677.2993,l,0,1.7901,,[],[],[],[],[],[],[],1.7901,0,677.2994,677.7986,,,,,,69,FEM,DIS,150,rata,el,a,677.7988,677.799,-0.016995614,-0.403508772,0,0,0,,0,228,228,68,1,,,,
,,,,,,224114e4921e99353e1c31cb,66a626ef09d4e21e1a8894ec,6737883c4ae457ac63c1b3c8,2024-11-15_11h44.02.201,Tarea de género gramatical,2024.2.2,Win32,60.24096386,,,,,,,,,,,,,,,,,,,,,,,677.8008,679.3177,a,0,0.8402,,[],[],[],[],[],[],[],0.8402,0,679.3178,679.8152,,,,,,102,MAS,DIS,150,coro,la,l,679.8153,679.8155,-0.016995614,-0.403508772,0,0,0,,0,229,229,101,1,,,,
,,,,,,224114e4921e99353e1c31cb,66a626ef09d4e21e1a8894ec,6737883c4ae457ac63c1b3c8,2024-11-15_11h44.02.201,Tarea de género gramatical,2024.2.2,Win32,60.24096386,,,,,,,,,,,,,,,,,,,,,,,679.8176,681.088,l,1,0.592,,[],[],[],[],[],[],[],0.592,1,681.0893,681.5825,,,,,,101,MAS,CON,150,giro,,l,681.5827,681.5828,-0.016995614,-0.403508772,0,0,0,,0,230,230,100,1,,,,
,,,,,,224114e4921e99353e1c31cb,66a626ef09d4e21e1a8894ec,6737883c4ae457ac63c1b3c8,2024-11-15_11h44.02.201,Tarea de género gramatical,2024.2.2,Win32,60.24096386,,,,,,,,,,,,,,,,,,,,,,,681.584,682.6542,l,1,0.4072,,[],[],[],[],[],[],[],0.4072,1,682.6543,683.1517,,,,,,173,MAS,CON,150,libro,,l,683.1538,683.1551,-0.016995614,-0.403508772,0,0,0,,0,231,231,172,1,,,,
,,,,,,224114e4921e99353e1c31cb,66a626ef09d4e21e1a8894ec,6737883c4ae457ac63c1b3c8,2024-11-15_11h44.02.201,Tarea de género gramatical,2024.2.2,Win32,60.24096386,,,,,,,,,,,,,,,,,,,,,,,683.1568,684.3546,a,1,0.5229,,[],[],[],[],[],[],[],0.5229,1,684.3547,684.8534,,,,,,249,FEM,DIS,150,crema,el,a,684.8535,684.8537,-0.016995614,-0.403508772,0,0,0,,0,232,232,248,1,,,,
,,,,,,224114e4921e99353e1c31cb,66a626ef09d4e21e1a8894ec,6737883c4ae457ac63c1b3c8,2024-11-15_11h44.02.201,Tarea de género gramatical,2024.2.2,Win32,60.24096386,,,,,,,,,,,,,,,,,,,,,,,684.8554,686.0055,l,0,0.4728,,[],[],[],[],[],[],[],0.4728,0,686.0066,686.5038,,,,,,152,FEM,CON,150,gente,,a,686.5039,686.504,-0.016995614,-0.403508772,0,0,0,,0,233,233,151,1,,,,
,,,,,,224114e4921e99353e1c31cb,66a626ef09d4e21e1a8894ec,6737883c4ae457ac63c1b3c8,2024-11-15_11h44.02.201,Tarea de género gramatical,2024.2.2,Win32,60.24096386,,,,,,,,,,,,,,,,,,,,,,,686.5063,688.2905,l,1,1.1063,,[],[],[],[],[],[],[],1.1063,1,688.2917,688.789,,,,,,366,MAS,DIS,150,riesgo,la,l,688.7892,688.7893,-0.016995614,-0.403508772,0,0,0,,0,234,234,365,1,,,,
,,,,,,224114e4921e99353e1c31cb,66a626ef09d4e21e1a8894ec,6737883c4ae457ac63c1b3c8,2024-11-15_11h44.02.201,Tarea de género gramatical,2024.2.2,Win32,60.24096386,,,,,,,,,,,,,,,,,,,,,,,688.7914,689.9284,a,1,0.4593,,[],[],[],[],[],[],[],0.4593,1,689.9286,690.4228,,,,,,31,FEM,AGR,150,edad,la,a,690.4228,690.423,-0.016995614,-0.403508772,0,0,0,,0,235,235,30,1,,,,
,,,,,,224114e4921e99353e1c31cb,66a626ef09d4e21e1a8894ec,6737883c4ae457ac63c1b3c8,2024-11-15_11h44.02.201,Tarea de género gramatical,2024.2.2,Win32,60.24096386,,,,,,,,,,,,,,,,,,,,,,,690.4251,691.8265,l,0,0.7239,,[],[],[],[],[],[],[],0.7239,0,691.8277,692.3246,,,,,,3,FEM,DIS,150,cosa,el,a,692.3264,692.3275,-0.016995614,-0.403508772,0,0,0,,0,236,236,2,1,,,,
,,,,,,224114e4921e99353e1c31cb,66a626ef09d4e21e1a8894ec,6737883c4ae457ac63c1b3c8,2024-11-15_11h44.02.201,Tarea de género gramatical,2024.2.2,Win32,60.24096386,,,,,,,,,,,,,,,,,,,,,,,692.3288,693.8107,a,1,0.8063,,[],[],[],[],[],[],[],0.8063,1,693.8118,694.3086,,,,,,111,FEM,DIS,150,goma,el,a,694.3087,694.3088,-0.016995614,-0.403508772,0,0,0,,0,237,237,110,1,,,,
,,,,,,224114e4921e99353e1c31cb,66a626ef09d4e21e1a8894ec,6737883c4ae457ac63c1b3c8,2024-11-15_11h44.02.201,Tarea de género gramatical,2024.2.2,Win32,60.24096386,,,,,,,,,,,,,,,,,,,,,,,694.3105,695.6287,l,1,0.6392,,[],[],[],[],[],[],[],0.6392,1,695.6288,696.1277,,,,,,258,MAS,DIS,150,polvo,la,l,696.1278,696.1279,-0.016995614,-0.403508772,0,0,0,,0,238,238,257,1,,,,
,,,,,,224114e4921e99353e1c31cb,66a626ef09d4e21e1a8894ec,6737883c4ae457ac63c1b3c8,2024-11-15_11h44.02.201,Tarea de género gramatical,2024.2.2,Win32,60.24096386,,,,,,,,,,,,,,,,,,,,,,,696.1295,697.4131,a,0,0.6062,,[],[],[],[],[],[],[],0.6062,0,697.414,697.9116,,,,,,348,MAS,DIS,150,anillo,la,l,697.9117,697.9118,-0.016995614,-0.403508772,0,0,0,,0,239,239,347,1,,,,
,,,,,,224114e4921e99353e1c31cb,66a626ef09d4e21e1a8894ec,6737883c4ae457ac63c1b3c8,2024-11-15_11h44.02.201,Tarea de género gramatical,2024.2.2,Win32,60.24096386,,,,,,,,,,,,,,,,,,,,,,,697.9133,699.1819,l,1,0.5901,,[],[],[],[],[],[],[],0.5901,1,699.183,699.6798,,,,,,155,MAS,CON,150,mundo,,l,699.6819,699.6832,-0.016995614,-0.403508772,0,0,0,,0,240,240,154,1,,,,
,,,,,,224114e4921e99353e1c31cb,66a626ef09d4e21e1a8894ec,6737883c4ae457ac63c1b3c8,2024-11-15_11h44.02.201,Tarea de género gramatical,2024.2.2,Win32,60.24096386,,,,,,,,,,,,,,,,,,,,,,,699.6849,700.8493,a,1,0.4893,,[],[],[],[],[],[],[],0.4893,1,700.8494,701.347,,,,,,109,FEM,AGR,150,gota,la,a,701.347,701.3472,-0.016995614,-0.403508772,0,0,0,,0,241,241,108,1,,,,
,,,,,,224114e4921e99353e1c31cb,66a626ef09d4e21e1a8894ec,6737883c4ae457ac63c1b3c8,2024-11-15_11h44.02.201,Tarea de género gramatical,2024.2.2,Win32,60.24096386,,,,,,,,,,,,,,,,,,,,,,,701.3488,702.6003,l,1,0.5729,,[],[],[],[],[],[],[],0.5729,1,702.6005,703.098,,,,,,293,MAS,CON,150,patio,,l,703.0981,703.0981,-0.016995614,-0.403508772,0,0,0,,0,242,242,292,1,,,,
,,,,,,224114e4921e99353e1c31cb,66a626ef09d4e21e1a8894ec,6737883c4ae457ac63c1b3c8,2024-11-15_11h44.02.201,Tarea de género gramatical,2024.2.2,Win32,60.24096386,,,,,,,,,,,,,,,,,,,,,,,703.0999,704.5207,a,1,0.7587,,[],[],[],[],[],[],[],0.7587,1,704.5208,705.0171,,,,,,93,FEM,DIS,150,lata,el,a,705.0171,705.0173,-0.016995614,-0.403508772,0,0,0,,0,243,243,92,1,,,,
,,,,,,224114e4921e99353e1c31cb,66a626ef09d4e21e1a8894ec,6737883c4ae457ac63c1b3c8,2024-11-15_11h44.02.201,Tarea de género gramatical,2024.2.2,Win32,60.24096386,,,,,,,,,,,,,,,,,,,,,,,705.019,706.2707,l,1,0.5743,,[],[],[],[],[],[],[],0.5743,1,706.2708,706.7685,,,,,,83,MAS,CON,150,nene,,l,706.7686,706.7688,-0.016995614,-0.403508772,0,0,0,,0,244,244,82,1,,,,
,,,,,,224114e4921e99353e1c31cb,66a626ef09d4e21e1a8894ec,6737883c4ae457ac63c1b3c8,2024-11-15_11h44.02.201,Tarea de género gramatical,2024.2.2,Win32,60.24096386,,,,,,,,,,,,,,,,,,,,,,,706.7707,707.9201,a,1,0.4722,,[],[],[],[],[],[],[],0.4722,1,707.9202,708.4184,,,,,,421,FEM,AGR,150,novela,la,a,708.4208,708.422,-0.016995614,-0.403508772,0,0,0,,0,245,245,420,1,,,,
,,,,,,224114e4921e99353e1c31cb,66a626ef09d4e21e1a8894ec,6737883c4ae457ac63c1b3c8,2024-11-15_11h44.02.201,Tarea de género gramatical,2024.2.2,Win32,60.24096386,,,,,,,,,,,,,,,,,,,,,,,708.4235,709.6216,a,1,0.5233,,[],[],[],[],[],[],[],0.5233,1,709.6217,710.1194,,,,,,133,FEM,AGR,150,joya,la,a,710.1195,710.1197,-0.016995614,-0.403508772,0,0,0,,0,246,246,132,1,,,,
,,,,,,224114e4921e99353e1c31cb,66a626ef09d4e21e1a8894ec,6737883c4ae457ac63c1b3c8,2024-11-15_11h44.02.201,Tarea de género gramatical,2024.2.2,Win32,60.24096386,,,,,,,,,,,,,,,,,,,,,,,710.1215,711.2101,l,0,0.4101,,[],[],[],[],[],[],[],0.4101,0,711.2114,711.705,,,,,,116,FEM,CON,150,nube,,a,711.7051,711.7052,-0.016995614,-0.403508772,0,0,0,,0,247,247,115,1,,,,
,,,,,,224114e4921e99353e1c31cb,66a626ef09d4e21e1a8894ec,6737883c4ae457ac63c1b3c8,2024-11-15_11h44.02.201,Tarea de género gramatical,2024.2.2,Win32,60.24096386,,,,,,,,,,,,,,,,,,,,,,,711.7071,713.0407,a,0,0.6559,,[],[],[],[],[],[],[],0.6559,0,713.0409,713.539,,,,,,192,MAS,DIS,150,grupo,la,l,713.5391,713.5395,-0.016995614,-0.403508772,0,0,0,,0,248,248,191,1,,,,
,,,,,,224114e4921e99353e1c31cb,66a626ef09d4e21e1a8894ec,6737883c4ae457ac63c1b3c8,2024-11-15_11h44.02.201,Tarea de género gramatical,2024.2.2,Win32,60.24096386,,,,,,,,,,,,,,,,,,,,,,,713.5416,714.9083,a,1,0.6892,,[],[],[],[],[],[],[],0.6892,1,714.9097,715.4075,,,,,,295,FEM,AGR,150,grasa,la,a,715.4098,715.411,-0.016995614,-0.403508772,0,0,0,,0,249,249,294,1,,,,
,,,,,,224114e4921e99353e1c31cb,66a626ef09d4e21e1a8894ec,6737883c4ae457ac63c1b3c8,2024-11-15_11h44.02.201,Tarea de género gramatical,2024.2.2,Win32,60.24096386,,,,,,,,,,,,,,,,,,,,,,,715.4131,716.5586,l,1,0.4727,,[],[],[],[],[],[],[],0.4727,1,716.5587,717.0588,,,,,,227,MAS,CON,150,vuelo,,l,717.0589,717.0591,-0.016995614,-0.403508772,0,0,0,,0,250,250,226,1,,,,
,,,,,,224114e4921e99353e1c31cb,66a626ef09d4e21e1a8894ec,6737883c4ae457ac63c1b3c8,2024-11-15_11h44.02.201,Tarea de género gramatical,2024.2.2,Win32,60.24096386,,,,,,,,,,,,,,,,,,,,,,,717.0608,718.2947,a,1,0.5567,,[],[],[],[],[],[],[],0.5567,1,718.2949,718.793,,,,,,321,FEM,DIS,150,comida,el,a,718.7931,718.7933,-0.016995614,-0.403508772,0,0,0,,0,251,251,320,1,,,,
