counterbalancing_condition,consent_prescreening.block_1/declare_consent,consent_prescreening.block_1/age_years,consent_prescreening.block_1/gender,consent_prescreening.block_1/language_disorder,consent_prescreening.block_1/first_language,PROLIFIC_PID,STUDY_ID,SESSION_ID,date,expName,psychopyVersion,OS,frameRate,check_prescreening_answers.started,check_prescreening_answers.stopped,Instructions.started,Instructions.stopped,instr_done_keyboard.keys,instr_done_keyboard.rt,instr_done_keyboard.duration,instr_done_touch.x,instr_done_touch.y,instr_done_touch.leftButton,instr_done_touch.midButton,instr_done_touch.rightButton,instruction_pages.thisRepN,instruction_pages.thisTrialN,instruction_pages.thisN,instruction_pages.thisIndex,instruction_pages.ran,pageN,phase,instruct_text,has_image,instruct_image,presentTrial.started,presentTrial.stopped,response.keys,response.corr,touch_resp.x,touch_resp.y,touch_resp.leftButton,touch_resp.midButton,touch_resp.rightButton,touch_resp.time,touch_resp.clicked_name,rt,corr,feedback.started,feedback.stopped,practice_trials.thisRepN,practice_trials.thisTrialN,practice_trials.thisN,practice_trials.thisIndex,practice_trials.ran,TrialID,StimulusType,Condition,PrimeDuration,Prime,Flanker,corrAns,response.rt,response.duration,Break.started,Break.stopped,break_done_touch.x,break_done_touch.y,break_done_touch.leftButton,break_done_touch.midButton,break_done_touch.rightButton,break_done_keyboard.keys,experiment_trials.thisRepN,experiment_trials.thisTrialN,experiment_trials.thisN,experiment_trials.thisIndex,experiment_trials.ran,break_done_keyboard.rt,break_done_keyboard.duration,End.started,End.stopped
2,"[""over_18"",""comfortable"",""read_info"",""consent_given""]",45,M,"[""none""]","[""spanish""]",2677034fb7523317df795496,66a626ef09d4e21e1a8894ec,6737681cc2aefeb89e856efc,2024-11-15_16h26.34.561,Tarea de género gramatical,2024.2.2,Win32,59.88023952,,,,,,,,,,,,,,,,,,,,,,,,,,,,,,,,,,,,,,,,,,,,,,,,,,,,,,,,,,,,,,,,,,,,
,,,,,,2677034fb7523317df795496,66a626ef09d4e21e1a8894ec,6737681cc2aefeb89e856efc,2024-11-15_16h26.34.561,Tarea de género gramatical,2024.2.2,Win32,59.88023952,35.6589,35.6592,,,,,,,,,,,,,,,,,,,,,,,,,,,,,,,,,,,,,,,,,,,,,,,,,,,,,,,,,,,,,,,,,,
,,,,,,2677034fb7523317df795496,66a626ef09d4e21e1a8894ec,6737681cc2aefeb89e856efc,2024-11-15_16h26.34.561,Tarea de género gramatical,2024.2.2,Win32,59.88023952,,,35.6923,46.6462,space,10.8945,,-0.076851852,-0.383333333,0,0,0,0,0,0,0,1,1,instructions,"INSTRUCCIONES
Va a realizar una prueba de selección gramatical. Desde el comienzo de la prueba mire siempre al centro de la pantalla. Al cabo de un momento, aparecerán palabras. La tarea consiste en determinar si la palabra del centro (siempre será un sustantivo), pertenece al género masculino o femenino.

Pulse la tecla ESPACIO o toque el botón de abajo para continuar.",0,keyboardresponseMF.png,,,,,,,,,,,,,,,,,,,,,,,,,,,,,,,,,,,,,,,,,,,,,,
,,,,,,2677034fb7523317df795496,66a626ef09d4e21e1a8894ec,6737681cc2aefeb89e856efc,2024-11-15_16h26.34.561,Tarea de género gramatical,2024.2.2,Win32,59.88023952,,,46.6527,57.5015,space,10.7815,,-0.076851852,-0.383333333,0,0,0,0,1,1,1,1,2,instructions,"Si su dispositivo tiene teclado, pulse la tecla ""A"" para las palabras en masculino (por ejemplo: ""arroz"") y la tecla ""L"" para las palabras en femenino (por ejemplo: ""mano"").
Pulse la tecla ESPACIO o toque el botón de abajo para continuar.",1,keyboardresponseMF.png,,,,,,,,,,,,,,,,,,,,,,,,,,,,,,,,,,,,,,,,,,,,,,
,,,,,,2677034fb7523317df795496,66a626ef09d4e21e1a8894ec,6737681cc2aefeb89e856efc,2024-11-15_16h26.34.561,Tarea de género gramatical,2024.2.2,Win32,59.88023952,,,57.5066,63.2509,space,5.6849,,-0.076851852,-0.383333333,0,0,0,0,2,2,2,1,3,instructions,"Si utiliza un dispositivo sólo táctil, colóquelo en horizontal y utilice los botones de la pantalla. No utilice el ratón.
Pulse la tecla ESPACIO o toque el botón de abajo para continuar.",2,touchresponseMF.png,,,,,,,,,,,,,,,,,,,,,,,,,,,,,,,,,,,,,,,,,,,,,,
,,,,,,2677034fb7523317df795496,66a626ef09d4e21e1a8894ec,6737681cc2aefeb89e856efc,2024-11-15_16h26.34.561,Tarea de género gramatical,2024.2.2,Win32,59.88023952,,,63.26,70.4492,space,7.1607,,-0.076851852,-0.383333333,0,0,0,0,3,3,3,1,4,instructions,"Es muy importante que responda con la mayor rapidez y precisión posibles, ya que cada cadena de letras sólo estará en pantalla durante un instante. Si no responde en ese tiempo, aparecerá el mensaje ""Muy lento"" y el experimento pasará a la siguiente palabra. Los primeros 15 intentos serán de práctica y habrá dos descansos durante la prueba.
Pulse la tecla ESPACIO o toque el botón de abajo para iniciar la parte de práctica.",0,keyboardresponseMF.png,,,,,,,,,,,,,,,,,,,,,,,,,,,,,,,,,,,,,,,,,,,,,,
,,,,,,2677034fb7523317df795496,66a626ef09d4e21e1a8894ec,6737681cc2aefeb89e856efc,2024-11-15_16h26.34.561,Tarea de género gramatical,2024.2.2,Win32,59.88023952,,,,,,,,,,,,,,,,,,,,,,,70.4863,73.1344,,0,[],[],[],[],[],[],[],,-1,73.1361,73.6336,0,0,0,9,1,2010,MAS,AGR,150,vecino,el,l,,,,,,,,,,,,,,,,,,,
,,,,,,2677034fb7523317df795496,66a626ef09d4e21e1a8894ec,6737681cc2aefeb89e856efc,2024-11-15_16h26.34.561,Tarea de género gramatical,2024.2.2,Win32,59.88023952,,,,,,,,,,,,,,,,,,,,,,,73.6394,75.6448,a,1,[],[],[],[],[],[],[],1.3424,1,75.7022,76.1484,0,1,1,8,1,2009,MAS,DIS,150,puerto,la,l,1.3424,,,,,,,,,,,,,,,,,,
,,,,,,2677034fb7523317df795496,66a626ef09d4e21e1a8894ec,6737681cc2aefeb89e856efc,2024-11-15_16h26.34.561,Tarea de género gramatical,2024.2.2,Win32,59.88023952,,,,,,,,,,,,,,,,,,,,,,,76.1516,77.5317,l,1,[],[],[],[],[],[],[],0.6979,1,77.5319,78.0317,0,2,2,4,1,2005,FEM,CON,150,placa,,a,0.6979,,,,,,,,,,,,,,,,,,
,,,,,,2677034fb7523317df795496,66a626ef09d4e21e1a8894ec,6737681cc2aefeb89e856efc,2024-11-15_16h26.34.561,Tarea de género gramatical,2024.2.2,Win32,59.88023952,,,,,,,,,,,,,,,,,,,,,,,78.0351,79.2483,a,1,[],[],[],[],[],[],[],0.5335,1,79.2486,79.7488,0,3,3,10,1,2011,MAS,CON,150,canal,,l,0.5335,,,,,,,,,,,,,,,,,,
,,,,,,2677034fb7523317df795496,66a626ef09d4e21e1a8894ec,6737681cc2aefeb89e856efc,2024-11-15_16h26.34.561,Tarea de género gramatical,2024.2.2,Win32,59.88023952,,,,,,,,,,,,,,,,,,,,,,,79.7533,80.9821,a,1,[],[],[],[],[],[],[],0.5527,1,80.9825,81.4816,0,4,4,14,1,2015,MAS,DIS,150,robot,la,l,0.5527,,,,,,,,,,,,,,,,,,
,,,,,,2677034fb7523317df795496,66a626ef09d4e21e1a8894ec,6737681cc2aefeb89e856efc,2024-11-15_16h26.34.561,Tarea de género gramatical,2024.2.2,Win32,59.88023952,,,,,,,,,,,,,,,,,,,,,,,81.4869,82.8645,l,1,[],[],[],[],[],[],[],0.6987,1,82.8646,83.3647,0,5,5,2,1,2003,FEM,DIS,150,daga,el,a,0.6987,,,,,,,,,,,,,,,,,,
,,,,,,2677034fb7523317df795496,66a626ef09d4e21e1a8894ec,6737681cc2aefeb89e856efc,2024-11-15_16h26.34.561,Tarea de género gramatical,2024.2.2,Win32,59.88023952,,,,,,,,,,,,,,,,,,,,,,,83.3683,84.6978,a,1,[],[],[],[],[],[],[],0.653,1,84.6979,85.198,0,6,6,11,1,2012,MAS,DIS,150,clima,la,l,0.653,,,,,,,,,,,,,,,,,,
,,,,,,2677034fb7523317df795496,66a626ef09d4e21e1a8894ec,6737681cc2aefeb89e856efc,2024-11-15_16h26.34.561,Tarea de género gramatical,2024.2.2,Win32,59.88023952,,,,,,,,,,,,,,,,,,,,,,,85.2019,86.9983,l,1,[],[],[],[],[],[],[],1.1173,1,86.9984,87.4982,0,7,7,5,1,2006,FEM,DIS,150,serie,el,a,1.1173,,,,,,,,,,,,,,,,,,
,,,,,,2677034fb7523317df795496,66a626ef09d4e21e1a8894ec,6737681cc2aefeb89e856efc,2024-11-15_16h26.34.561,Tarea de género gramatical,2024.2.2,Win32,59.88023952,,,,,,,,,,,,,,,,,,,,,,,87.5016,88.765,l,1,[],[],[],[],[],[],[],0.581,1,88.7652,89.2648,0,8,8,3,1,2004,FEM,AGR,150,venta,la,a,0.581,,,,,,,,,,,,,,,,,,
,,,,,,2677034fb7523317df795496,66a626ef09d4e21e1a8894ec,6737681cc2aefeb89e856efc,2024-11-15_16h26.34.561,Tarea de género gramatical,2024.2.2,Win32,59.88023952,,,,,,,,,,,,,,,,,,,,,,,89.2681,90.4816,l,1,[],[],[],[],[],[],[],0.5346,1,90.4818,90.9815,0,9,9,1,1,2002,FEM,CON,150,pala,,a,0.5346,,,,,,,,,,,,,,,,,,
,,,,,,2677034fb7523317df795496,66a626ef09d4e21e1a8894ec,6737681cc2aefeb89e856efc,2024-11-15_16h26.34.561,Tarea de género gramatical,2024.2.2,Win32,59.88023952,,,,,,,,,,,,,,,,,,,,,,,90.985,92.1982,l,1,[],[],[],[],[],[],[],0.5347,1,92.1984,92.6982,0,10,10,0,1,2001,FEM,AGR,150,nuca,la,a,0.5347,,,,,,,,,,,,,,,,,,
,,,,,,2677034fb7523317df795496,66a626ef09d4e21e1a8894ec,6737681cc2aefeb89e856efc,2024-11-15_16h26.34.561,Tarea de género gramatical,2024.2.2,Win32,59.88023952,,,,,,,,,,,,,,,,,,,,,,,92.702,93.7148,a,1,[],[],[],[],[],[],[],0.3349,1,93.715,94.2148,0,11,11,12,1,2013,MAS,AGR,150,acero,el,l,0.3349,,,,,,,,,,,,,,,,,,
,,,,,,2677034fb7523317df795496,66a626ef09d4e21e1a8894ec,6737681cc2aefeb89e856efc,2024-11-15_16h26.34.561,Tarea de género gramatical,2024.2.2,Win32,59.88023952,,,,,,,,,,,,,,,,,,,,,,,94.218,95.4649,a,1,[],[],[],[],[],[],[],0.5678,1,95.465,95.9646,0,12,12,13,1,2014,MAS,CON,150,siglo,,l,0.5678,,,,,,,,,,,,,,,,,,
,,,,,,2677034fb7523317df795496,66a626ef09d4e21e1a8894ec,6737681cc2aefeb89e856efc,2024-11-15_16h26.34.561,Tarea de género gramatical,2024.2.2,Win32,59.88023952,,,,,,,,,,,,,,,,,,,,,,,95.9674,97.1509,l,1,[],[],[],[],[],[],[],0.5021,1,97.1513,97.6485,0,13,13,7,1,2008,FEM,CON,150,siesta,,a,0.5021,,,,,,,,,,,,,,,,,,
,,,,,,2677034fb7523317df795496,66a626ef09d4e21e1a8894ec,6737681cc2aefeb89e856efc,2024-11-15_16h26.34.561,Tarea de género gramatical,2024.2.2,Win32,59.88023952,,,,,,,,,,,,,,,,,,,,,,,97.6543,98.8313,l,1,[],[],[],[],[],[],[],0.5005,1,98.8314,99.3314,0,14,14,6,1,2007,FEM,AGR,150,navaja,la,a,0.5005,,,,,,,,,,,,,,,,,,
,,,,,,2677034fb7523317df795496,66a626ef09d4e21e1a8894ec,6737681cc2aefeb89e856efc,2024-11-15_16h26.34.561,Tarea de género gramatical,2024.2.2,Win32,59.88023952,,,106.367,113.0823,space,6.695,,-0.076851852,-0.383333333,0,0,0,,,,,,,,,,,113.1726,114.3365,l,1,[],[],[],[],[],[],[],0.4748,1,114.3371,114.8432,,,,,,1190,FEM,AGR,150,cabra,la,a,0.4748,,114.8437,114.856,-0.076851852,-0.383333333,0,0,0,,0,0,0,289,1,,,,
,,,,,,2677034fb7523317df795496,66a626ef09d4e21e1a8894ec,6737681cc2aefeb89e856efc,2024-11-15_16h26.34.561,Tarea de género gramatical,2024.2.2,Win32,59.88023952,,,,,,,,,,,,,,,,,,,,,,,114.8592,116.4155,a,1,[],[],[],[],[],[],[],0.8808,1,116.4162,116.9165,,,,,,1216,MAS,DIS,150,cuerpo,la,l,0.8808,,116.917,116.9178,-0.076851852,-0.383333333,0,0,0,,0,1,1,315,1,,,,
,,,,,,2677034fb7523317df795496,66a626ef09d4e21e1a8894ec,6737681cc2aefeb89e856efc,2024-11-15_16h26.34.561,Tarea de género gramatical,2024.2.2,Win32,59.88023952,,,,,,,,,,,,,,,,,,,,,,,116.9202,118.3983,l,1,[],[],[],[],[],[],[],0.8034,1,118.3987,118.8984,,,,,,1153,FEM,DIS,150,aldea,el,a,0.8034,,118.9034,118.9047,-0.076851852,-0.383333333,0,0,0,,0,2,2,252,1,,,,
,,,,,,2677034fb7523317df795496,66a626ef09d4e21e1a8894ec,6737681cc2aefeb89e856efc,2024-11-15_16h26.34.561,Tarea de género gramatical,2024.2.2,Win32,59.88023952,,,,,,,,,,,,,,,,,,,,,,,118.9059,120.0985,l,1,[],[],[],[],[],[],[],0.5147,1,120.0991,120.5992,,,,,,1208,FEM,AGR,150,semana,la,a,0.5147,,120.5994,120.5999,-0.076851852,-0.383333333,0,0,0,,0,3,3,307,1,,,,
,,,,,,2677034fb7523317df795496,66a626ef09d4e21e1a8894ec,6737681cc2aefeb89e856efc,2024-11-15_16h26.34.561,Tarea de género gramatical,2024.2.2,Win32,59.88023952,,,,,,,,,,,,,,,,,,,,,,,120.604,121.7822,a,1,[],[],[],[],[],[],[],0.5029,1,121.7828,122.2818,,,,,,1032,MAS,CON,150,velo,,l,0.5029,,122.2821,122.2828,-0.076851852,-0.383333333,0,0,0,,0,4,4,131,1,,,,
,,,,,,2677034fb7523317df795496,66a626ef09d4e21e1a8894ec,6737681cc2aefeb89e856efc,2024-11-15_16h26.34.561,Tarea de género gramatical,2024.2.2,Win32,59.88023952,,,,,,,,,,,,,,,,,,,,,,,122.2862,123.649,a,1,[],[],[],[],[],[],[],0.6751,1,123.6494,124.1484,,,,,,996,MAS,CON,150,pato,,l,0.6751,,124.1487,124.15,-0.076851852,-0.383333333,0,0,0,,0,5,5,95,1,,,,
,,,,,,2677034fb7523317df795496,66a626ef09d4e21e1a8894ec,6737681cc2aefeb89e856efc,2024-11-15_16h26.34.561,Tarea de género gramatical,2024.2.2,Win32,59.88023952,,,,,,,,,,,,,,,,,,,,,,,124.1539,125.416,a,1,[],[],[],[],[],[],[],0.5756,1,125.4166,125.91,,,,,,965,MAS,AGR,150,rayo,el,l,0.5756,,125.9133,125.9161,-0.076851852,-0.383333333,0,0,0,,0,6,6,64,1,,,,
,,,,,,2677034fb7523317df795496,66a626ef09d4e21e1a8894ec,6737681cc2aefeb89e856efc,2024-11-15_16h26.34.561,Tarea de género gramatical,2024.2.2,Win32,59.88023952,,,,,,,,,,,,,,,,,,,,,,,125.9188,127.171,l,1,[],[],[],[],[],[],[],0.5588,1,127.1716,127.665,,,,,,1065,FEM,CON,150,amiga,,a,0.5588,,127.6653,127.6661,-0.076851852,-0.383333333,0,0,0,,0,7,7,164,1,,,,
,,,,,,2677034fb7523317df795496,66a626ef09d4e21e1a8894ec,6737681cc2aefeb89e856efc,2024-11-15_16h26.34.561,Tarea de género gramatical,2024.2.2,Win32,59.88023952,,,,,,,,,,,,,,,,,,,,,,,127.6695,128.748,l,1,[],[],[],[],[],[],[],0.4006,1,128.7484,129.2487,,,,,,1040,FEM,AGR,150,mula,la,a,0.4006,,129.2491,129.2498,-0.076851852,-0.383333333,0,0,0,,0,8,8,139,1,,,,
,,,,,,2677034fb7523317df795496,66a626ef09d4e21e1a8894ec,6737681cc2aefeb89e856efc,2024-11-15_16h26.34.561,Tarea de género gramatical,2024.2.2,Win32,59.88023952,,,,,,,,,,,,,,,,,,,,,,,129.2533,130.3984,a,1,[],[],[],[],[],[],[],0.4504,1,130.3992,130.9106,,,,,,1224,MAS,CON,150,cuarto,,l,0.4504,,130.9108,130.9112,-0.076851852,-0.383333333,0,0,0,,0,9,9,323,1,,,,
,,,,,,2677034fb7523317df795496,66a626ef09d4e21e1a8894ec,6737681cc2aefeb89e856efc,2024-11-15_16h26.34.561,Tarea de género gramatical,2024.2.2,Win32,59.88023952,,,,,,,,,,,,,,,,,,,,,,,130.9135,132.1323,a,1,[],[],[],[],[],[],[],0.5514,1,132.1328,132.6317,,,,,,1301,MAS,AGR,150,abrigo,el,l,0.5514,,132.6319,132.6328,-0.076851852,-0.383333333,0,0,0,,0,10,10,400,1,,,,
,,,,,,2677034fb7523317df795496,66a626ef09d4e21e1a8894ec,6737681cc2aefeb89e856efc,2024-11-15_16h26.34.561,Tarea de género gramatical,2024.2.2,Win32,59.88023952,,,,,,,,,,,,,,,,,,,,,,,132.6362,133.7773,l,1,[],[],[],[],[],[],[],0.4669,1,133.7774,134.2818,,,,,,915,FEM,CON,150,cama,,a,0.4669,,134.2866,134.2879,-0.076851852,-0.383333333,0,0,0,,0,11,11,14,1,,,,
,,,,,,2677034fb7523317df795496,66a626ef09d4e21e1a8894ec,6737681cc2aefeb89e856efc,2024-11-15_16h26.34.561,Tarea de género gramatical,2024.2.2,Win32,59.88023952,,,,,,,,,,,,,,,,,,,,,,,134.2892,135.3652,a,1,[],[],[],[],[],[],[],0.4012,1,135.3656,135.8647,,,,,,977,MAS,AGR,150,pico,el,l,0.4012,,135.8649,135.8652,-0.076851852,-0.383333333,0,0,0,,0,12,12,76,1,,,,
,,,,,,2677034fb7523317df795496,66a626ef09d4e21e1a8894ec,6737681cc2aefeb89e856efc,2024-11-15_16h26.34.561,Tarea de género gramatical,2024.2.2,Win32,59.88023952,,,,,,,,,,,,,,,,,,,,,,,135.869,136.9707,l,1,[],[],[],[],[],[],[],0.4269,1,136.9709,137.465,,,,,,1262,FEM,AGR,150,fuente,la,a,0.4269,,137.4655,137.4662,-0.076851852,-0.383333333,0,0,0,,0,13,13,361,1,,,,
,,,,,,2677034fb7523317df795496,66a626ef09d4e21e1a8894ec,6737681cc2aefeb89e856efc,2024-11-15_16h26.34.561,Tarea de género gramatical,2024.2.2,Win32,59.88023952,,,,,,,,,,,,,,,,,,,,,,,137.4696,139.0314,l,1,[],[],[],[],[],[],[],0.8843,1,139.0319,139.5315,,,,,,1159,FEM,DIS,150,prima,el,a,0.8843,,139.5318,139.5324,-0.076851852,-0.383333333,0,0,0,,0,14,14,258,1,,,,
,,,,,,2677034fb7523317df795496,66a626ef09d4e21e1a8894ec,6737681cc2aefeb89e856efc,2024-11-15_16h26.34.561,Tarea de género gramatical,2024.2.2,Win32,59.88023952,,,,,,,,,,,,,,,,,,,,,,,139.5365,140.7812,l,1,[],[],[],[],[],[],[],0.5703,1,140.7816,141.2819,,,,,,1051,FEM,DIS,150,noche,el,a,0.5703,,141.2871,141.2885,-0.076851852,-0.383333333,0,0,0,,0,15,15,150,1,,,,
,,,,,,2677034fb7523317df795496,66a626ef09d4e21e1a8894ec,6737681cc2aefeb89e856efc,2024-11-15_16h26.34.561,Tarea de género gramatical,2024.2.2,Win32,59.88023952,,,,,,,,,,,,,,,,,,,,,,,141.2898,142.431,a,1,[],[],[],[],[],[],[],0.4669,1,142.4311,142.9311,,,,,,1067,MAS,AGR,150,juego,el,l,0.4669,,142.9312,142.9316,-0.076851852,-0.383333333,0,0,0,,0,16,16,166,1,,,,
,,,,,,2677034fb7523317df795496,66a626ef09d4e21e1a8894ec,6737681cc2aefeb89e856efc,2024-11-15_16h26.34.561,Tarea de género gramatical,2024.2.2,Win32,59.88023952,,,,,,,,,,,,,,,,,,,,,,,142.9364,144.231,a,1,[],[],[],[],[],[],[],0.6177,1,144.2313,144.7309,,,,,,1206,MAS,CON,150,dinero,,l,0.6177,,144.7311,144.7313,-0.076851852,-0.383333333,0,0,0,,0,17,17,305,1,,,,
,,,,,,2677034fb7523317df795496,66a626ef09d4e21e1a8894ec,6737681cc2aefeb89e856efc,2024-11-15_16h26.34.561,Tarea de género gramatical,2024.2.2,Win32,59.88023952,,,,,,,,,,,,,,,,,,,,,,,144.7359,145.7644,l,1,[],[],[],[],[],[],[],0.3527,1,145.7645,146.264,,,,,,1323,FEM,CON,150,poesía,,a,0.3527,,146.2641,146.2644,-0.076851852,-0.383333333,0,0,0,,0,18,18,422,1,,,,
,,,,,,2677034fb7523317df795496,66a626ef09d4e21e1a8894ec,6737681cc2aefeb89e856efc,2024-11-15_16h26.34.561,Tarea de género gramatical,2024.2.2,Win32,59.88023952,,,,,,,,,,,,,,,,,,,,,,,146.2682,147.3486,a,1,[],[],[],[],[],[],[],0.4019,1,147.349,147.8476,,,,,,1158,MAS,CON,150,polvo,,l,0.4019,,147.8478,147.8479,-0.076851852,-0.383333333,0,0,0,,0,19,19,257,1,,,,
,,,,,,2677034fb7523317df795496,66a626ef09d4e21e1a8894ec,6737681cc2aefeb89e856efc,2024-11-15_16h26.34.561,Tarea de género gramatical,2024.2.2,Win32,59.88023952,,,,,,,,,,,,,,,,,,,,,,,147.8515,149.1142,a,1,[],[],[],[],[],[],[],0.5843,1,149.1144,149.6144,,,,,,1091,MAS,AGR,150,dolor,el,l,0.5843,,149.619,149.6206,-0.076851852,-0.383333333,0,0,0,,0,20,20,190,1,,,,
,,,,,,2677034fb7523317df795496,66a626ef09d4e21e1a8894ec,6737681cc2aefeb89e856efc,2024-11-15_16h26.34.561,Tarea de género gramatical,2024.2.2,Win32,59.88023952,,,,,,,,,,,,,,,,,,,,,,,149.6219,150.7975,l,1,[],[],[],[],[],[],[],0.5011,1,150.7977,151.2977,,,,,,1273,FEM,DIS,150,lluvia,el,a,0.5011,,151.2977,151.298,-0.076851852,-0.383333333,0,0,0,,0,21,21,372,1,,,,
,,,,,,2677034fb7523317df795496,66a626ef09d4e21e1a8894ec,6737681cc2aefeb89e856efc,2024-11-15_16h26.34.561,Tarea de género gramatical,2024.2.2,Win32,59.88023952,,,,,,,,,,,,,,,,,,,,,,,151.3015,152.4644,l,1,[],[],[],[],[],[],[],0.4851,1,152.4645,152.9642,,,,,,974,FEM,AGR,150,flor,la,a,0.4851,,152.9644,152.9647,-0.076851852,-0.383333333,0,0,0,,0,22,22,73,1,,,,
,,,,,,2677034fb7523317df795496,66a626ef09d4e21e1a8894ec,6737681cc2aefeb89e856efc,2024-11-15_16h26.34.561,Tarea de género gramatical,2024.2.2,Win32,59.88023952,,,,,,,,,,,,,,,,,,,,,,,152.9692,154.098,a,1,[],[],[],[],[],[],[],0.452,1,154.0983,154.5976,,,,,,990,MAS,CON,150,león,,l,0.452,,154.5978,154.5981,-0.076851852,-0.383333333,0,0,0,,0,23,23,89,1,,,,
,,,,,,2677034fb7523317df795496,66a626ef09d4e21e1a8894ec,6737681cc2aefeb89e856efc,2024-11-15_16h26.34.561,Tarea de género gramatical,2024.2.2,Win32,59.88023952,,,,,,,,,,,,,,,,,,,,,,,154.604,155.781,a,1,[],[],[],[],[],[],[],0.5005,1,155.7812,156.281,,,,,,1200,MAS,CON,150,túnel,,l,0.5005,,156.2858,156.2875,-0.076851852,-0.383333333,0,0,0,,0,24,24,299,1,,,,
,,,,,,2677034fb7523317df795496,66a626ef09d4e21e1a8894ec,6737681cc2aefeb89e856efc,2024-11-15_16h26.34.561,Tarea de género gramatical,2024.2.2,Win32,59.88023952,,,,,,,,,,,,,,,,,,,,,,,156.2887,157.531,a,1,[],[],[],[],[],[],[],0.5682,1,157.5313,158.0309,,,,,,1014,MAS,CON,150,menú,,l,0.5682,,158.031,158.0312,-0.076851852,-0.383333333,0,0,0,,0,25,25,113,1,,,,
,,,,,,2677034fb7523317df795496,66a626ef09d4e21e1a8894ec,6737681cc2aefeb89e856efc,2024-11-15_16h26.34.561,Tarea de género gramatical,2024.2.2,Win32,59.88023952,,,,,,,,,,,,,,,,,,,,,,,158.0346,159.1643,l,1,[],[],[],[],[],[],[],0.4518,1,159.1644,159.6639,,,,,,920,FEM,AGR,150,ropa,la,a,0.4518,,159.664,159.6642,-0.076851852,-0.383333333,0,0,0,,0,26,26,19,1,,,,
,,,,,,2677034fb7523317df795496,66a626ef09d4e21e1a8894ec,6737681cc2aefeb89e856efc,2024-11-15_16h26.34.561,Tarea de género gramatical,2024.2.2,Win32,59.88023952,,,,,,,,,,,,,,,,,,,,,,,159.6675,160.8643,a,1,[],[],[],[],[],[],[],0.5175,1,160.8644,161.3642,,,,,,1157,MAS,AGR,150,pecho,el,l,0.5175,,161.3643,161.3645,-0.076851852,-0.383333333,0,0,0,,0,27,27,256,1,,,,
,,,,,,2677034fb7523317df795496,66a626ef09d4e21e1a8894ec,6737681cc2aefeb89e856efc,2024-11-15_16h26.34.561,Tarea de género gramatical,2024.2.2,Win32,59.88023952,,,,,,,,,,,,,,,,,,,,,,,161.3682,162.6154,a,1,[],[],[],[],[],[],[],0.5682,1,162.6158,163.1141,,,,,,1128,MAS,CON,150,nivel,,l,0.5682,,163.1143,163.1146,-0.076851852,-0.383333333,0,0,0,,0,28,28,227,1,,,,
,,,,,,2677034fb7523317df795496,66a626ef09d4e21e1a8894ec,6737681cc2aefeb89e856efc,2024-11-15_16h26.34.561,Tarea de género gramatical,2024.2.2,Win32,59.88023952,,,,,,,,,,,,,,,,,,,,,,,163.1191,164.2474,l,1,[],[],[],[],[],[],[],0.4512,1,164.2476,164.7475,,,,,,1076,FEM,AGR,150,línea,la,a,0.4512,,164.7531,164.7546,-0.076851852,-0.383333333,0,0,0,,0,29,29,175,1,,,,
,,,,,,2677034fb7523317df795496,66a626ef09d4e21e1a8894ec,6737681cc2aefeb89e856efc,2024-11-15_16h26.34.561,Tarea de género gramatical,2024.2.2,Win32,59.88023952,,,,,,,,,,,,,,,,,,,,,,,164.7561,166.1975,l,1,[],[],[],[],[],[],[],0.7678,1,166.1977,166.6974,,,,,,997,FEM,DIS,150,capa,el,a,0.7678,,166.6975,166.6977,-0.076851852,-0.383333333,0,0,0,,0,30,30,96,1,,,,
,,,,,,2677034fb7523317df795496,66a626ef09d4e21e1a8894ec,6737681cc2aefeb89e856efc,2024-11-15_16h26.34.561,Tarea de género gramatical,2024.2.2,Win32,59.88023952,,,,,,,,,,,,,,,,,,,,,,,166.7023,167.9308,l,1,[],[],[],[],[],[],[],0.5516,1,167.9309,168.4308,,,,,,1202,FEM,AGR,150,cabeza,la,a,0.5516,,168.4309,168.4313,-0.076851852,-0.383333333,0,0,0,,0,31,31,301,1,,,,
,,,,,,2677034fb7523317df795496,66a626ef09d4e21e1a8894ec,6737681cc2aefeb89e856efc,2024-11-15_16h26.34.561,Tarea de género gramatical,2024.2.2,Win32,59.88023952,,,,,,,,,,,,,,,,,,,,,,,168.4346,169.7641,l,1,[],[],[],[],[],[],[],0.6509,1,169.7643,170.2641,,,,,,1263,FEM,CON,150,unidad,,a,0.6509,,170.2642,170.2644,-0.076851852,-0.383333333,0,0,0,,0,32,32,362,1,,,,
,,,,,,2677034fb7523317df795496,66a626ef09d4e21e1a8894ec,6737681cc2aefeb89e856efc,2024-11-15_16h26.34.561,Tarea de género gramatical,2024.2.2,Win32,59.88023952,,,,,,,,,,,,,,,,,,,,,,,170.2678,171.547,l,1,[],[],[],[],[],[],[],0.6001,1,171.5471,172.0475,,,,,,1082,FEM,AGR,150,prisa,la,a,0.6001,,172.0524,172.0539,-0.076851852,-0.383333333,0,0,0,,0,33,33,181,1,,,,
,,,,,,2677034fb7523317df795496,66a626ef09d4e21e1a8894ec,6737681cc2aefeb89e856efc,2024-11-15_16h26.34.561,Tarea de género gramatical,2024.2.2,Win32,59.88023952,,,,,,,,,,,,,,,,,,,,,,,172.0553,173.2141,a,1,[],[],[],[],[],[],[],0.4842,1,173.2143,173.7141,,,,,,1115,MAS,AGR,150,hueso,el,l,0.4842,,173.7142,173.7144,-0.076851852,-0.383333333,0,0,0,,0,34,34,214,1,,,,
,,,,,,2677034fb7523317df795496,66a626ef09d4e21e1a8894ec,6737681cc2aefeb89e856efc,2024-11-15_16h26.34.561,Tarea de género gramatical,2024.2.2,Win32,59.88023952,,,,,,,,,,,,,,,,,,,,,,,173.7189,175.3641,a,1,[],[],[],[],[],[],[],0.9674,1,175.3644,175.8642,,,,,,910,MAS,DIS,150,niño,la,l,0.9674,,175.8642,175.8643,-0.076851852,-0.383333333,0,0,0,,0,35,35,9,1,,,,
,,,,,,2677034fb7523317df795496,66a626ef09d4e21e1a8894ec,6737681cc2aefeb89e856efc,2024-11-15_16h26.34.561,Tarea de género gramatical,2024.2.2,Win32,59.88023952,,,,,,,,,,,,,,,,,,,,,,,175.8678,177.0305,a,1,[],[],[],[],[],[],[],0.4843,1,177.0307,177.5306,,,,,,953,MAS,AGR,150,vaso,el,l,0.4843,,177.5307,177.5309,-0.076851852,-0.383333333,0,0,0,,0,36,36,52,1,,,,
,,,,,,2677034fb7523317df795496,66a626ef09d4e21e1a8894ec,6737681cc2aefeb89e856efc,2024-11-15_16h26.34.561,Tarea de género gramatical,2024.2.2,Win32,59.88023952,,,,,,,,,,,,,,,,,,,,,,,177.5339,178.714,l,1,[],[],[],[],[],[],[],0.5017,1,178.7143,179.214,,,,,,1071,FEM,CON,150,mitad,,a,0.5017,,179.2141,179.2143,-0.076851852,-0.383333333,0,0,0,,0,37,37,170,1,,,,
,,,,,,2677034fb7523317df795496,66a626ef09d4e21e1a8894ec,6737681cc2aefeb89e856efc,2024-11-15_16h26.34.561,Tarea de género gramatical,2024.2.2,Win32,59.88023952,,,,,,,,,,,,,,,,,,,,,,,179.2175,180.3315,a,1,[],[],[],[],[],[],[],0.4358,1,180.3317,180.8304,,,,,,1234,MAS,DIS,150,ataque,la,l,0.4358,,180.8341,180.836,-0.076851852,-0.383333333,0,0,0,,0,38,38,333,1,,,,
,,,,,,2677034fb7523317df795496,66a626ef09d4e21e1a8894ec,6737681cc2aefeb89e856efc,2024-11-15_16h26.34.561,Tarea de género gramatical,2024.2.2,Win32,59.88023952,,,,,,,,,,,,,,,,,,,,,,,180.8369,181.9471,l,1,[],[],[],[],[],[],[],0.4353,1,181.9473,182.4473,,,,,,1321,FEM,DIS,150,novela,el,a,0.4353,,182.4474,182.4475,-0.076851852,-0.383333333,0,0,0,,0,39,39,420,1,,,,
,,,,,,2677034fb7523317df795496,66a626ef09d4e21e1a8894ec,6737681cc2aefeb89e856efc,2024-11-15_16h26.34.561,Tarea de género gramatical,2024.2.2,Win32,59.88023952,,,,,,,,,,,,,,,,,,,,,,,182.4513,183.5973,a,1,[],[],[],[],[],[],[],0.468,1,183.5975,184.0972,,,,,,1061,MAS,AGR,150,chico,el,l,0.468,,184.0972,184.0974,-0.076851852,-0.383333333,0,0,0,,0,40,40,160,1,,,,
,,,,,,2677034fb7523317df795496,66a626ef09d4e21e1a8894ec,6737681cc2aefeb89e856efc,2024-11-15_16h26.34.561,Tarea de género gramatical,2024.2.2,Win32,59.88023952,,,,,,,,,,,,,,,,,,,,,,,184.1007,185.2308,l,1,[],[],[],[],[],[],[],0.451,1,185.2309,185.7306,,,,,,1123,FEM,DIS,150,plata,el,a,0.451,,185.7307,185.7308,-0.076851852,-0.383333333,0,0,0,,0,41,41,222,1,,,,
,,,,,,2677034fb7523317df795496,66a626ef09d4e21e1a8894ec,6737681cc2aefeb89e856efc,2024-11-15_16h26.34.561,Tarea de género gramatical,2024.2.2,Win32,59.88023952,,,,,,,,,,,,,,,,,,,,,,,185.7344,186.9805,a,1,[],[],[],[],[],[],[],0.5668,1,186.9807,187.4807,,,,,,1038,MAS,CON,150,luto,,l,0.5668,,187.4845,187.4869,-0.076851852,-0.383333333,0,0,0,,0,42,42,137,1,,,,
,,,,,,2677034fb7523317df795496,66a626ef09d4e21e1a8894ec,6737681cc2aefeb89e856efc,2024-11-15_16h26.34.561,Tarea de género gramatical,2024.2.2,Win32,59.88023952,,,,,,,,,,,,,,,,,,,,,,,187.4881,188.8803,a,1,[],[],[],[],[],[],[],0.7176,1,188.8804,189.3807,,,,,,1218,MAS,CON,150,pueblo,,l,0.7176,,189.3808,189.3811,-0.076851852,-0.383333333,0,0,0,,0,43,43,317,1,,,,
,,,,,,2677034fb7523317df795496,66a626ef09d4e21e1a8894ec,6737681cc2aefeb89e856efc,2024-11-15_16h26.34.561,Tarea de género gramatical,2024.2.2,Win32,59.88023952,,,,,,,,,,,,,,,,,,,,,,,189.3855,190.5136,a,1,[],[],[],[],[],[],[],0.4512,1,190.5137,191.014,,,,,,1332,MAS,CON,150,océano,,l,0.4512,,191.0141,191.0143,-0.076851852,-0.383333333,0,0,0,,0,44,44,431,1,,,,
,,,,,,2677034fb7523317df795496,66a626ef09d4e21e1a8894ec,6737681cc2aefeb89e856efc,2024-11-15_16h26.34.561,Tarea de género gramatical,2024.2.2,Win32,59.88023952,,,,,,,,,,,,,,,,,,,,,,,191.0182,192.2141,l,1,[],[],[],[],[],[],[],0.5172,1,192.2143,192.7141,,,,,,1310,FEM,AGR,150,piedad,la,a,0.5172,,192.7142,192.7145,-0.076851852,-0.383333333,0,0,0,,0,45,45,409,1,,,,
,,,,,,2677034fb7523317df795496,66a626ef09d4e21e1a8894ec,6737681cc2aefeb89e856efc,2024-11-15_16h26.34.561,Tarea de género gramatical,2024.2.2,Win32,59.88023952,,,,,,,,,,,,,,,,,,,,,,,192.7185,193.9473,a,1,[],[],[],[],[],[],[],0.5512,1,193.9475,194.4472,,,,,,1150,MAS,DIS,150,cerdo,la,l,0.5512,,194.4473,194.4476,-0.076851852,-0.383333333,0,0,0,,0,46,46,249,1,,,,
,,,,,,2677034fb7523317df795496,66a626ef09d4e21e1a8894ec,6737681cc2aefeb89e856efc,2024-11-15_16h26.34.561,Tarea de género gramatical,2024.2.2,Win32,59.88023952,,,,,,,,,,,,,,,,,,,,,,,194.4512,195.6136,a,1,[],[],[],[],[],[],[],0.4985,1,195.6138,196.1139,,,,,,1265,MAS,AGR,150,código,el,l,0.4985,,196.1179,196.1199,-0.076851852,-0.383333333,0,0,0,,0,47,47,364,1,,,,
,,,,,,2677034fb7523317df795496,66a626ef09d4e21e1a8894ec,6737681cc2aefeb89e856efc,2024-11-15_16h26.34.561,Tarea de género gramatical,2024.2.2,Win32,59.88023952,,,,,,,,,,,,,,,,,,,,,,,196.1212,197.264,l,1,[],[],[],[],[],[],[],0.4665,1,197.2641,197.7639,,,,,,1322,FEM,AGR,150,rutina,la,a,0.4665,,197.7641,197.7642,-0.076851852,-0.383333333,0,0,0,,0,48,48,421,1,,,,
,,,,,,2677034fb7523317df795496,66a626ef09d4e21e1a8894ec,6737681cc2aefeb89e856efc,2024-11-15_16h26.34.561,Tarea de género gramatical,2024.2.2,Win32,59.88023952,,,,,,,,,,,,,,,,,,,,,,,197.7677,199.114,a,1,[],[],[],[],[],[],[],0.6684,1,199.1145,199.6139,,,,,,1324,MAS,DIS,150,rastro,la,l,0.6684,,199.6139,199.6141,-0.076851852,-0.383333333,0,0,0,,0,49,49,423,1,,,,
,,,,,,2677034fb7523317df795496,66a626ef09d4e21e1a8894ec,6737681cc2aefeb89e856efc,2024-11-15_16h26.34.561,Tarea de género gramatical,2024.2.2,Win32,59.88023952,,,,,,,,,,,,,,,,,,,,,,,199.6177,200.7814,l,1,[],[],[],[],[],[],[],0.4869,1,200.7819,201.2805,,,,,,1011,FEM,CON,150,goma,,a,0.4869,,201.2806,201.2807,-0.076851852,-0.383333333,0,0,0,,0,50,50,110,1,,,,
,,,,,,2677034fb7523317df795496,66a626ef09d4e21e1a8894ec,6737681cc2aefeb89e856efc,2024-11-15_16h26.34.561,Tarea de género gramatical,2024.2.2,Win32,59.88023952,,,,,,,,,,,,,,,,,,,,,,,201.2842,202.4153,l,1,[],[],[],[],[],[],[],0.454,1,202.4156,202.9139,,,,,,1317,FEM,CON,150,cabaña,,a,0.454,,202.918,202.9199,-0.076851852,-0.383333333,0,0,0,,0,51,51,416,1,,,,
,,,,,,2677034fb7523317df795496,66a626ef09d4e21e1a8894ec,6737681cc2aefeb89e856efc,2024-11-15_16h26.34.561,Tarea de género gramatical,2024.2.2,Win32,59.88023952,,,,,,,,,,,,,,,,,,,,,,,202.9213,204.1805,a,0,[],[],[],[],[],[],[],0.5834,0,204.1845,204.6814,,,,,,1183,FEM,DIS,150,pluma,el,a,0.5834,,204.6816,204.6818,-0.076851852,-0.383333333,0,0,0,,0,52,52,282,1,,,,
,,,,,,2677034fb7523317df795496,66a626ef09d4e21e1a8894ec,6737681cc2aefeb89e856efc,2024-11-15_16h26.34.561,Tarea de género gramatical,2024.2.2,Win32,59.88023952,,,,,,,,,,,,,,,,,,,,,,,204.6865,205.9603,l,1,[],[],[],[],[],[],[],0.5998,1,205.9615,206.4599,,,,,,937,FEM,DIS,150,sala,el,a,0.5998,,206.46,206.4601,-0.076851852,-0.383333333,0,0,0,,0,53,53,36,1,,,,
,,,,,,2677034fb7523317df795496,66a626ef09d4e21e1a8894ec,6737681cc2aefeb89e856efc,2024-11-15_16h26.34.561,Tarea de género gramatical,2024.2.2,Win32,59.88023952,,,,,,,,,,,,,,,,,,,,,,,206.4612,207.6677,l,1,[],[],[],[],[],[],[],0.5335,1,207.67,208.1783,,,,,,998,FEM,AGR,150,fuga,la,a,0.5335,,208.1784,208.1786,-0.076851852,-0.383333333,0,0,0,,0,54,54,97,1,,,,
,,,,,,2677034fb7523317df795496,66a626ef09d4e21e1a8894ec,6737681cc2aefeb89e856efc,2024-11-15_16h26.34.561,Tarea de género gramatical,2024.2.2,Win32,59.88023952,,,,,,,,,,,,,,,,,,,,,,,208.1817,209.3522,a,1,[],[],[],[],[],[],[],0.4985,1,209.3524,209.8436,,,,,,1211,MAS,AGR,150,camino,el,l,0.4985,,209.8437,209.8438,-0.076851852,-0.383333333,0,0,0,,0,55,55,310,1,,,,
,,,,,,2677034fb7523317df795496,66a626ef09d4e21e1a8894ec,6737681cc2aefeb89e856efc,2024-11-15_16h26.34.561,Tarea de género gramatical,2024.2.2,Win32,59.88023952,,,,,,,,,,,,,,,,,,,,,,,209.8451,210.9971,l,1,[],[],[],[],[],[],[],0.4755,1,210.9972,211.4968,,,,,,1045,FEM,DIS,150,bota,el,a,0.4755,,211.5001,211.5027,-0.076851852,-0.383333333,0,0,0,,0,56,56,144,1,,,,
,,,,,,2677034fb7523317df795496,66a626ef09d4e21e1a8894ec,6737681cc2aefeb89e856efc,2024-11-15_16h26.34.561,Tarea de género gramatical,2024.2.2,Win32,59.88023952,,,,,,,,,,,,,,,,,,,,,,,211.5035,212.7632,l,1,[],[],[],[],[],[],[],0.5844,1,212.7634,213.2634,,,,,,1172,FEM,AGR,150,oreja,la,a,0.5844,,213.2635,213.2636,-0.076851852,-0.383333333,0,0,0,,0,57,57,271,1,,,,
,,,,,,2677034fb7523317df795496,66a626ef09d4e21e1a8894ec,6737681cc2aefeb89e856efc,2024-11-15_16h26.34.561,Tarea de género gramatical,2024.2.2,Win32,59.88023952,,,,,,,,,,,,,,,,,,,,,,,213.2656,214.3473,l,1,[],[],[],[],[],[],[],0.4094,1,214.3478,214.8472,,,,,,1077,FEM,CON,150,broma,,a,0.4094,,214.8475,214.8477,-0.076851852,-0.383333333,0,0,0,,0,58,58,176,1,,,,
,,,,,,2677034fb7523317df795496,66a626ef09d4e21e1a8894ec,6737681cc2aefeb89e856efc,2024-11-15_16h26.34.561,Tarea de género gramatical,2024.2.2,Win32,59.88023952,,,,,,,,,,,,,,,,,,,,,,,214.8514,215.9471,l,1,[],[],[],[],[],[],[],0.4199,1,215.9475,216.4474,,,,,,1179,FEM,CON,150,selva,,a,0.4199,,216.4476,216.4479,-0.076851852,-0.383333333,0,0,0,,0,59,59,278,1,,,,
,,,,,,2677034fb7523317df795496,66a626ef09d4e21e1a8894ec,6737681cc2aefeb89e856efc,2024-11-15_16h26.34.561,Tarea de género gramatical,2024.2.2,Win32,59.88023952,,,,,,,,,,,,,,,,,,,,,,,216.4514,217.5312,l,1,[],[],[],[],[],[],[],0.401,1,217.5317,218.0309,,,,,,1232,FEM,AGR,150,basura,la,a,0.401,,218.0357,218.0368,-0.076851852,-0.383333333,0,0,0,,0,60,60,331,1,,,,
,,,,,,2677034fb7523317df795496,66a626ef09d4e21e1a8894ec,6737681cc2aefeb89e856efc,2024-11-15_16h26.34.561,Tarea de género gramatical,2024.2.2,Win32,59.88023952,,,,,,,,,,,,,,,,,,,,,,,218.0381,219.214,a,1,[],[],[],[],[],[],[],0.501,1,219.2144,219.7148,,,,,,1037,MAS,AGR,150,coco,el,l,0.501,,219.715,219.7157,-0.076851852,-0.383333333,0,0,0,,0,61,61,136,1,,,,
,,,,,,2677034fb7523317df795496,66a626ef09d4e21e1a8894ec,6737681cc2aefeb89e856efc,2024-11-15_16h26.34.561,Tarea de género gramatical,2024.2.2,Win32,59.88023952,,,,,,,,,,,,,,,,,,,,,,,219.7191,220.814,l,1,[],[],[],[],[],[],[],0.4172,1,220.8144,221.3141,,,,,,1197,FEM,CON,150,manta,,a,0.4172,,221.3142,221.3147,-0.076851852,-0.383333333,0,0,0,,0,62,62,296,1,,,,
,,,,,,2677034fb7523317df795496,66a626ef09d4e21e1a8894ec,6737681cc2aefeb89e856efc,2024-11-15_16h26.34.561,Tarea de género gramatical,2024.2.2,Win32,59.88023952,,,,,,,,,,,,,,,,,,,,,,,221.3182,222.4979,a,1,[],[],[],[],[],[],[],0.5013,1,222.4983,222.9979,,,,,,1282,MAS,DIS,150,teatro,la,l,0.5013,,222.998,222.9983,-0.076851852,-0.383333333,0,0,0,,0,63,63,381,1,,,,
,,,,,,2677034fb7523317df795496,66a626ef09d4e21e1a8894ec,6737681cc2aefeb89e856efc,2024-11-15_16h26.34.561,Tarea de género gramatical,2024.2.2,Win32,59.88023952,,,,,,,,,,,,,,,,,,,,,,,223.0024,224.1263,a,1,[],[],[],[],[],[],[],0.4424,1,224.1266,224.631,,,,,,1350,MAS,CON,150,conejo,,l,0.4424,,224.6312,224.6316,-0.076851852,-0.383333333,0,0,0,,0,64,64,449,1,,,,
,,,,,,2677034fb7523317df795496,66a626ef09d4e21e1a8894ec,6737681cc2aefeb89e856efc,2024-11-15_16h26.34.561,Tarea de género gramatical,2024.2.2,Win32,59.88023952,,,,,,,,,,,,,,,,,,,,,,,224.6353,225.7805,l,1,[],[],[],[],[],[],[],0.4678,1,225.7809,226.2684,,,,,,1069,FEM,DIS,150,vista,el,a,0.4678,,226.2715,226.2729,-0.076851852,-0.383333333,0,0,0,,0,65,65,168,1,,,,
,,,,,,2677034fb7523317df795496,66a626ef09d4e21e1a8894ec,6737681cc2aefeb89e856efc,2024-11-15_16h26.34.561,Tarea de género gramatical,2024.2.2,Win32,59.88023952,,,,,,,,,,,,,,,,,,,,,,,226.2742,227.3638,l,1,[],[],[],[],[],[],[],0.4175,1,227.3642,227.8531,,,,,,921,FEM,CON,150,boca,,a,0.4175,,227.8533,227.8536,-0.076851852,-0.383333333,0,0,0,,0,66,66,20,1,,,,
,,,,,,2677034fb7523317df795496,66a626ef09d4e21e1a8894ec,6737681cc2aefeb89e856efc,2024-11-15_16h26.34.561,Tarea de género gramatical,2024.2.2,Win32,59.88023952,,,,,,,,,,,,,,,,,,,,,,,227.8561,229.0306,l,1,[],[],[],[],[],[],[],0.4917,1,229.031,229.5312,,,,,,931,FEM,DIS,150,edad,el,a,0.4917,,229.5315,229.5321,-0.076851852,-0.383333333,0,0,0,,0,67,67,30,1,,,,
,,,,,,2677034fb7523317df795496,66a626ef09d4e21e1a8894ec,6737681cc2aefeb89e856efc,2024-11-15_16h26.34.561,Tarea de género gramatical,2024.2.2,Win32,59.88023952,,,,,,,,,,,,,,,,,,,,,,,229.5361,230.8807,a,1,[],[],[],[],[],[],[],0.6686,1,230.8812,231.3816,,,,,,1192,MAS,DIS,150,piano,la,l,0.6686,,231.3819,231.3826,-0.076851852,-0.383333333,0,0,0,,0,68,68,291,1,,,,
,,,,,,2677034fb7523317df795496,66a626ef09d4e21e1a8894ec,6737681cc2aefeb89e856efc,2024-11-15_16h26.34.561,Tarea de género gramatical,2024.2.2,Win32,59.88023952,,,,,,,,,,,,,,,,,,,,,,,231.3859,232.5137,l,1,[],[],[],[],[],[],[],0.4518,1,232.5141,233.014,,,,,,1209,FEM,CON,150,esposa,,a,0.4518,,233.0178,233.0187,-0.076851852,-0.383333333,0,0,0,,0,69,69,308,1,,,,
,,,,,,2677034fb7523317df795496,66a626ef09d4e21e1a8894ec,6737681cc2aefeb89e856efc,2024-11-15_16h26.34.561,Tarea de género gramatical,2024.2.2,Win32,59.88023952,,,,,,,,,,,,,,,,,,,,,,,233.0197,234.347,a,1,[],[],[],[],[],[],[],0.6509,1,234.3475,234.8482,,,,,,1006,MAS,DIS,150,test,la,l,0.6509,,234.8485,234.8491,-0.076851852,-0.383333333,0,0,0,,0,70,70,105,1,,,,
,,,,,,2677034fb7523317df795496,66a626ef09d4e21e1a8894ec,6737681cc2aefeb89e856efc,2024-11-15_16h26.34.561,Tarea de género gramatical,2024.2.2,Win32,59.88023952,,,,,,,,,,,,,,,,,,,,,,,234.8522,236.0636,l,0,[],[],[],[],[],[],[],0.534,0,236.0669,236.5641,,,,,,1180,MAS,DIS,150,salón,la,l,0.534,,236.5644,236.5649,-0.076851852,-0.383333333,0,0,0,,0,71,71,279,1,,,,
,,,,,,2677034fb7523317df795496,66a626ef09d4e21e1a8894ec,6737681cc2aefeb89e856efc,2024-11-15_16h26.34.561,Tarea de género gramatical,2024.2.2,Win32,59.88023952,,,,,,,,,,,,,,,,,,,,,,,236.5685,237.9306,a,1,[],[],[],[],[],[],[],0.6848,1,237.9343,238.4308,,,,,,1235,MAS,AGR,150,montón,el,l,0.6848,,238.431,238.4316,-0.076851852,-0.383333333,0,0,0,,0,72,72,334,1,,,,
,,,,,,2677034fb7523317df795496,66a626ef09d4e21e1a8894ec,6737681cc2aefeb89e856efc,2024-11-15_16h26.34.561,Tarea de género gramatical,2024.2.2,Win32,59.88023952,,,,,,,,,,,,,,,,,,,,,,,238.4363,239.764,l,1,[],[],[],[],[],[],[],0.651,1,239.7644,240.2641,,,,,,933,FEM,CON,150,boda,,a,0.651,,240.2644,240.2648,-0.076851852,-0.383333333,0,0,0,,0,73,73,32,1,,,,
,,,,,,2677034fb7523317df795496,66a626ef09d4e21e1a8894ec,6737681cc2aefeb89e856efc,2024-11-15_16h26.34.561,Tarea de género gramatical,2024.2.2,Win32,59.88023952,,,,,,,,,,,,,,,,,,,,,,,240.2685,241.4304,a,1,[],[],[],[],[],[],[],0.4843,1,241.4309,241.9312,,,,,,1283,MAS,AGR,150,parque,el,l,0.4843,,241.9353,241.9366,-0.076851852,-0.383333333,0,0,0,,0,74,74,382,1,,,,
,,,,,,2677034fb7523317df795496,66a626ef09d4e21e1a8894ec,6737681cc2aefeb89e856efc,2024-11-15_16h26.34.561,Tarea de género gramatical,2024.2.2,Win32,59.88023952,,,,,,,,,,,,,,,,,,,,,,,241.938,243.1469,l,1,[],[],[],[],[],[],[],0.5418,1,243.1473,243.6475,,,,,,1023,FEM,CON,150,tela,,a,0.5418,,243.6477,243.6482,-0.076851852,-0.383333333,0,0,0,,0,75,75,122,1,,,,
,,,,,,2677034fb7523317df795496,66a626ef09d4e21e1a8894ec,6737681cc2aefeb89e856efc,2024-11-15_16h26.34.561,Tarea de género gramatical,2024.2.2,Win32,59.88023952,,,,,,,,,,,,,,,,,,,,,,,243.6518,244.8592,l,1,[],[],[],[],[],[],[],0.5424,1,244.8594,245.3483,,,,,,1143,FEM,CON,150,salsa,,a,0.5424,,245.3486,245.3489,-0.076851852,-0.383333333,0,0,0,,0,76,76,242,1,,,,
,,,,,,2677034fb7523317df795496,66a626ef09d4e21e1a8894ec,6737681cc2aefeb89e856efc,2024-11-15_16h26.34.561,Tarea de género gramatical,2024.2.2,Win32,59.88023952,,,,,,,,,,,,,,,,,,,,,,,245.3526,246.6974,l,1,[],[],[],[],[],[],[],0.6606,1,246.6979,247.1972,,,,,,1015,FEM,DIS,150,seda,el,a,0.6606,,247.1975,247.198,-0.076851852,-0.383333333,0,0,0,,0,77,77,114,1,,,,
,,,,,,2677034fb7523317df795496,66a626ef09d4e21e1a8894ec,6737681cc2aefeb89e856efc,2024-11-15_16h26.34.561,Tarea de género gramatical,2024.2.2,Win32,59.88023952,,,,,,,,,,,,,,,,,,,,,,,247.2016,248.4971,a,1,[],[],[],[],[],[],[],0.6107,1,248.4975,248.9973,,,,,,1264,MAS,DIS,150,viento,la,l,0.6107,,249.0019,249.0032,-0.076851852,-0.383333333,0,0,0,,0,78,78,363,1,,,,
,,,,,,2677034fb7523317df795496,66a626ef09d4e21e1a8894ec,6737681cc2aefeb89e856efc,2024-11-15_16h26.34.561,Tarea de género gramatical,2024.2.2,Win32,59.88023952,,,,,,,,,,,,,,,,,,,,,,,249.0045,250.1419,a,1,[],[],[],[],[],[],[],0.466,1,250.1421,250.6304,,,,,,1337,MAS,AGR,150,hombro,el,l,0.466,,250.6307,250.631,-0.076851852,-0.383333333,0,0,0,,0,79,79,436,1,,,,
,,,,,,2677034fb7523317df795496,66a626ef09d4e21e1a8894ec,6737681cc2aefeb89e856efc,2024-11-15_16h26.34.561,Tarea de género gramatical,2024.2.2,Win32,59.88023952,,,,,,,,,,,,,,,,,,,,,,,250.6347,251.7304,a,1,[],[],[],[],[],[],[],0.419,1,251.7307,252.2309,,,,,,1169,MAS,AGR,150,primo,el,l,0.419,,252.2312,252.2317,-0.076851852,-0.383333333,0,0,0,,0,80,80,268,1,,,,
,,,,,,2677034fb7523317df795496,66a626ef09d4e21e1a8894ec,6737681cc2aefeb89e856efc,2024-11-15_16h26.34.561,Tarea de género gramatical,2024.2.2,Win32,59.88023952,,,,,,,,,,,,,,,,,,,,,,,252.235,253.4644,a,1,[],[],[],[],[],[],[],0.5526,1,253.4649,253.9637,,,,,,1175,MAS,AGR,150,disco,el,l,0.5526,,253.9641,253.9645,-0.076851852,-0.383333333,0,0,0,,0,81,81,274,1,,,,
,,,,,,2677034fb7523317df795496,66a626ef09d4e21e1a8894ec,6737681cc2aefeb89e856efc,2024-11-15_16h26.34.561,Tarea de género gramatical,2024.2.2,Win32,59.88023952,,,,,,,,,,,,,,,,,,,,,,,253.9682,255.0848,l,1,[],[],[],[],[],[],[],0.4395,1,255.0854,255.5804,,,,,,1299,FEM,CON,150,charla,,a,0.4395,,255.5806,255.581,-0.076851852,-0.383333333,0,0,0,,0,82,82,398,1,,,,
,,,,,,2677034fb7523317df795496,66a626ef09d4e21e1a8894ec,6737681cc2aefeb89e856efc,2024-11-15_16h26.34.561,Tarea de género gramatical,2024.2.2,Win32,59.88023952,,,,,,,,,,,,,,,,,,,,,,,255.5845,256.8753,a,0,[],[],[],[],[],[],[],0.6169,0,256.8765,257.3641,,,,,,979,FEM,DIS,150,mina,el,a,0.6169,,257.3689,257.37,-0.076851852,-0.383333333,0,0,0,,0,83,83,78,1,,,,
,,,,,,2677034fb7523317df795496,66a626ef09d4e21e1a8894ec,6737681cc2aefeb89e856efc,2024-11-15_16h26.34.561,Tarea de género gramatical,2024.2.2,Win32,59.88023952,,,,,,,,,,,,,,,,,,,,,,,257.3712,258.697,a,1,[],[],[],[],[],[],[],0.6513,1,258.701,259.1972,,,,,,984,MAS,CON,150,mago,,l,0.6513,,259.1975,259.1981,-0.076851852,-0.383333333,0,0,0,,0,84,84,83,1,,,,
,,,,,,2677034fb7523317df795496,66a626ef09d4e21e1a8894ec,6737681cc2aefeb89e856efc,2024-11-15_16h26.34.561,Tarea de género gramatical,2024.2.2,Win32,59.88023952,,,,,,,,,,,,,,,,,,,,,,,259.2018,260.4917,a,1,[],[],[],[],[],[],[],0.6161,1,260.4919,260.9805,,,,,,1300,MAS,DIS,150,barrio,la,l,0.6161,,260.9808,260.9812,-0.076851852,-0.383333333,0,0,0,,0,85,85,399,1,,,,
,,,,,,2677034fb7523317df795496,66a626ef09d4e21e1a8894ec,6737681cc2aefeb89e856efc,2024-11-15_16h26.34.561,Tarea de género gramatical,2024.2.2,Win32,59.88023952,,,,,,,,,,,,,,,,,,,,,,,260.9845,262.2305,l,1,[],[],[],[],[],[],[],0.5785,1,262.231,262.7304,,,,,,1034,FEM,AGR,150,rama,la,a,0.5785,,262.7307,262.7311,-0.076851852,-0.383333333,0,0,0,,0,86,86,133,1,,,,
,,,,,,2677034fb7523317df795496,66a626ef09d4e21e1a8894ec,6737681cc2aefeb89e856efc,2024-11-15_16h26.34.561,Tarea de género gramatical,2024.2.2,Win32,59.88023952,,,,,,,,,,,,,,,,,,,,,,,262.7348,264.0136,a,1,[],[],[],[],[],[],[],0.6011,1,264.0141,264.5139,,,,,,1012,MAS,DIS,150,reto,la,l,0.6011,,264.5179,264.5187,-0.076851852,-0.383333333,0,0,0,,0,87,87,111,1,,,,
,,,,,,2677034fb7523317df795496,66a626ef09d4e21e1a8894ec,6737681cc2aefeb89e856efc,2024-11-15_16h26.34.561,Tarea de género gramatical,2024.2.2,Win32,59.88023952,,,,,,,,,,,,,,,,,,,,,,,264.5195,265.9974,l,1,[],[],[],[],[],[],[],0.8014,1,265.9979,266.4863,,,,,,985,FEM,DIS,150,gira,el,a,0.8014,,266.4866,266.4872,-0.076851852,-0.383333333,0,0,0,,0,88,88,84,1,,,,
,,,,,,2677034fb7523317df795496,66a626ef09d4e21e1a8894ec,6737681cc2aefeb89e856efc,2024-11-15_16h26.34.561,Tarea de género gramatical,2024.2.2,Win32,59.88023952,,,,,,,,,,,,,,,,,,,,,,,266.4908,267.6023,l,1,[],[],[],[],[],[],[],0.4433,1,267.6024,268.0978,,,,,,1136,FEM,AGR,150,deuda,la,a,0.4433,,268.098,268.0984,-0.076851852,-0.383333333,0,0,0,,0,89,89,235,1,,,,
,,,,,,2677034fb7523317df795496,66a626ef09d4e21e1a8894ec,6737681cc2aefeb89e856efc,2024-11-15_16h26.34.561,Tarea de género gramatical,2024.2.2,Win32,59.88023952,,,,,,,,,,,,,,,,,,,,,,,268.102,269.2968,a,0,[],[],[],[],[],[],[],0.5102,0,269.3,269.7918,,,,,,1033,FEM,DIS,150,joya,el,a,0.5102,,269.7919,269.7921,-0.076851852,-0.383333333,0,0,0,,0,90,90,132,1,,,,
,,,,,,2677034fb7523317df795496,66a626ef09d4e21e1a8894ec,6737681cc2aefeb89e856efc,2024-11-15_16h26.34.561,Tarea de género gramatical,2024.2.2,Win32,59.88023952,,,,,,,,,,,,,,,,,,,,,,,269.7939,270.9471,l,1,[],[],[],[],[],[],[],0.469,1,270.9512,271.4469,,,,,,1005,FEM,CON,150,jefa,,a,0.469,,271.4471,271.4476,-0.076851852,-0.383333333,0,0,0,,0,91,91,104,1,,,,
,,,,,,2677034fb7523317df795496,66a626ef09d4e21e1a8894ec,6737681cc2aefeb89e856efc,2024-11-15_16h26.34.561,Tarea de género gramatical,2024.2.2,Win32,59.88023952,,,,,,,,,,,,,,,,,,,,,,,271.4509,272.6135,l,1,[],[],[],[],[],[],[],0.4853,1,272.6139,273.114,,,,,,1166,FEM,AGR,150,jaula,la,a,0.4853,,273.1185,273.1197,-0.076851852,-0.383333333,0,0,0,,0,92,92,265,1,,,,
,,,,,,2677034fb7523317df795496,66a626ef09d4e21e1a8894ec,6737681cc2aefeb89e856efc,2024-11-15_16h26.34.561,Tarea de género gramatical,2024.2.2,Win32,59.88023952,,,,,,,,,,,,,,,,,,,,,,,273.1209,274.1656,l,1,[],[],[],[],[],[],[],0.3672,1,274.166,274.6639,,,,,,975,FEM,CON,150,caza,,a,0.3672,,274.6641,274.6645,-0.076851852,-0.383333333,0,0,0,,0,93,93,74,1,,,,
,,,,,,2677034fb7523317df795496,66a626ef09d4e21e1a8894ec,6737681cc2aefeb89e856efc,2024-11-15_16h26.34.561,Tarea de género gramatical,2024.2.2,Win32,59.88023952,,,,,,,,,,,,,,,,,,,,,,,274.6681,276.0309,a,1,[],[],[],[],[],[],[],0.686,1,276.0314,276.5303,,,,,,1186,MAS,DIS,150,reino,la,l,0.686,,276.5306,276.531,-0.076851852,-0.383333333,0,0,0,,0,94,94,285,1,,,,
,,,,,,2677034fb7523317df795496,66a626ef09d4e21e1a8894ec,6737681cc2aefeb89e856efc,2024-11-15_16h26.34.561,Tarea de género gramatical,2024.2.2,Win32,59.88023952,,,,,,,,,,,,,,,,,,,,,,,276.5348,277.7632,a,1,[],[],[],[],[],[],[],0.5528,1,277.7637,278.2635,,,,,,971,MAS,AGR,150,pozo,el,l,0.5528,,278.2638,278.2643,-0.076851852,-0.383333333,0,0,0,,0,95,95,70,1,,,,
,,,,,,2677034fb7523317df795496,66a626ef09d4e21e1a8894ec,6737681cc2aefeb89e856efc,2024-11-15_16h26.34.561,Tarea de género gramatical,2024.2.2,Win32,59.88023952,,,,,,,,,,,,,,,,,,,,,,,278.2679,279.5471,a,1,[],[],[],[],[],[],[],0.5992,1,279.5476,280.0468,,,,,,1338,MAS,CON,150,tanque,,l,0.5992,,280.0508,280.0515,-0.076851852,-0.383333333,0,0,0,,0,96,96,437,1,,,,
,,,,,,2677034fb7523317df795496,66a626ef09d4e21e1a8894ec,6737681cc2aefeb89e856efc,2024-11-15_16h26.34.561,Tarea de género gramatical,2024.2.2,Win32,59.88023952,,,,,,,,,,,,,,,,,,,,,,,280.0522,281.2136,l,1,[],[],[],[],[],[],[],0.4747,1,281.2141,281.7137,,,,,,1341,FEM,CON,150,medida,,a,0.4747,,281.7141,281.7147,-0.076851852,-0.383333333,0,0,0,,0,97,97,440,1,,,,
,,,,,,2677034fb7523317df795496,66a626ef09d4e21e1a8894ec,6737681cc2aefeb89e856efc,2024-11-15_16h26.34.561,Tarea de género gramatical,2024.2.2,Win32,59.88023952,,,,,,,,,,,,,,,,,,,,,,,281.7182,282.9432,a,1,[],[],[],[],[],[],[],0.551,1,282.9433,283.447,,,,,,1247,MAS,AGR,150,cuello,el,l,0.551,,283.4473,283.4476,-0.076851852,-0.383333333,0,0,0,,0,98,98,346,1,,,,
,,,,,,2677034fb7523317df795496,66a626ef09d4e21e1a8894ec,6737681cc2aefeb89e856efc,2024-11-15_16h26.34.561,Tarea de género gramatical,2024.2.2,Win32,59.88023952,,,,,,,,,,,,,,,,,,,,,,,283.4517,284.9467,a,1,[],[],[],[],[],[],[],0.818,1,284.9471,285.4469,,,,,,1289,MAS,AGR,150,tamaño,el,l,0.818,,285.4472,285.4482,-0.076851852,-0.383333333,0,0,0,,0,99,99,388,1,,,,
,,,,,,2677034fb7523317df795496,66a626ef09d4e21e1a8894ec,6737681cc2aefeb89e856efc,2024-11-15_16h26.34.561,Tarea de género gramatical,2024.2.2,Win32,59.88023952,,,,,,,,,,,,,,,,,,,,,,,285.4515,286.63,l,0,[],[],[],[],[],[],[],0.5015,0,286.6344,287.13,,,,,,1126,MAS,DIS,150,color,la,l,0.5015,,287.1302,287.1306,-0.076851852,-0.383333333,0,0,0,,0,100,100,225,1,,,,
,,,,,,2677034fb7523317df795496,66a626ef09d4e21e1a8894ec,6737681cc2aefeb89e856efc,2024-11-15_16h26.34.561,Tarea de género gramatical,2024.2.2,Win32,59.88023952,,,,,,,,,,,,,,,,,,,,,,,287.1344,288.5468,a,1,[],[],[],[],[],[],[],0.7416,1,288.5508,289.0516,,,,,,1097,MAS,AGR,150,avión,el,l,0.7416,,289.0552,289.0565,-0.076851852,-0.383333333,0,0,0,,0,101,101,196,1,,,,
,,,,,,2677034fb7523317df795496,66a626ef09d4e21e1a8894ec,6737681cc2aefeb89e856efc,2024-11-15_16h26.34.561,Tarea de género gramatical,2024.2.2,Win32,59.88023952,,,,,,,,,,,,,,,,,,,,,,,289.0577,290.2638,a,1,[],[],[],[],[],[],[],0.5369,1,290.2643,290.7634,,,,,,1170,MAS,CON,150,queso,,l,0.5369,,290.7636,290.7641,-0.076851852,-0.383333333,0,0,0,,0,102,102,269,1,,,,
,,,,,,2677034fb7523317df795496,66a626ef09d4e21e1a8894ec,6737681cc2aefeb89e856efc,2024-11-15_16h26.34.561,Tarea de género gramatical,2024.2.2,Win32,59.88023952,,,,,,,,,,,,,,,,,,,,,,,290.7674,291.9299,l,1,[],[],[],[],[],[],[],0.4864,1,291.9301,292.43,,,,,,1094,FEM,AGR,150,banda,la,a,0.4864,,292.4302,292.4306,-0.076851852,-0.383333333,0,0,0,,0,103,103,193,1,,,,
,,,,,,2677034fb7523317df795496,66a626ef09d4e21e1a8894ec,6737681cc2aefeb89e856efc,2024-11-15_16h26.34.561,Tarea de género gramatical,2024.2.2,Win32,59.88023952,,,,,,,,,,,,,,,,,,,,,,,292.4348,293.8854,l,1,[],[],[],[],[],[],[],0.7765,1,293.8855,294.3918,,,,,,1309,FEM,DIS,150,moneda,el,a,0.7765,,294.3919,294.3922,-0.076851852,-0.383333333,0,0,0,,0,104,104,408,1,,,,
,,,,,,2677034fb7523317df795496,66a626ef09d4e21e1a8894ec,6737681cc2aefeb89e856efc,2024-11-15_16h26.34.561,Tarea de género gramatical,2024.2.2,Win32,59.88023952,,,,,,,,,,,,,,,,,,,,,,,294.3937,295.6968,a,1,[],[],[],[],[],[],[],0.625,1,295.6972,296.1969,,,,,,1295,MAS,AGR,150,correo,el,l,0.625,,296.2014,296.2026,-0.076851852,-0.383333333,0,0,0,,0,105,105,394,1,,,,
,,,,,,2677034fb7523317df795496,66a626ef09d4e21e1a8894ec,6737681cc2aefeb89e856efc,2024-11-15_16h26.34.561,Tarea de género gramatical,2024.2.2,Win32,59.88023952,,,,,,,,,,,,,,,,,,,,,,,296.2039,297.5133,a,1,[],[],[],[],[],[],[],0.6347,1,297.5136,298.0082,,,,,,1025,MAS,AGR,150,bate,el,l,0.6347,,298.0083,298.0086,-0.076851852,-0.383333333,0,0,0,,0,106,106,124,1,,,,
,,,,,,2677034fb7523317df795496,66a626ef09d4e21e1a8894ec,6737681cc2aefeb89e856efc,2024-11-15_16h26.34.561,Tarea de género gramatical,2024.2.2,Win32,59.88023952,,,,,,,,,,,,,,,,,,,,,,,298.0103,299.4213,a,1,[],[],[],[],[],[],[],0.7281,1,299.4216,299.9156,,,,,,989,MAS,AGR,150,maíz,el,l,0.7281,,299.9159,299.9165,-0.076851852,-0.383333333,0,0,0,,0,107,107,88,1,,,,
,,,,,,2677034fb7523317df795496,66a626ef09d4e21e1a8894ec,6737681cc2aefeb89e856efc,2024-11-15_16h26.34.561,Tarea de género gramatical,2024.2.2,Win32,59.88023952,,,,,,,,,,,,,,,,,,,,,,,299.9212,301.1131,l,1,[],[],[],[],[],[],[],0.5085,1,301.1136,301.614,,,,,,1239,FEM,CON,150,salida,,a,0.5085,,301.6143,301.6148,-0.076851852,-0.383333333,0,0,0,,0,108,108,338,1,,,,
,,,,,,2677034fb7523317df795496,66a626ef09d4e21e1a8894ec,6737681cc2aefeb89e856efc,2024-11-15_16h26.34.561,Tarea de género gramatical,2024.2.2,Win32,59.88023952,,,,,,,,,,,,,,,,,,,,,,,301.6181,302.8301,l,1,[],[],[],[],[],[],[],0.5363,1,302.8305,303.3301,,,,,,968,FEM,AGR,150,pata,la,a,0.5363,,303.3303,303.3308,-0.076851852,-0.383333333,0,0,0,,0,109,109,67,1,,,,
,,,,,,2677034fb7523317df795496,66a626ef09d4e21e1a8894ec,6737681cc2aefeb89e856efc,2024-11-15_16h26.34.561,Tarea de género gramatical,2024.2.2,Win32,59.88023952,,,,,,,,,,,,,,,,,,,,,,,303.3345,304.4966,l,1,[],[],[],[],[],[],[],0.4848,1,304.497,304.9967,,,,,,1257,FEM,CON,150,lengua,,a,0.4848,,305.0007,305.0016,-0.076851852,-0.383333333,0,0,0,,0,110,110,356,1,,,,
,,,,,,2677034fb7523317df795496,66a626ef09d4e21e1a8894ec,6737681cc2aefeb89e856efc,2024-11-15_16h26.34.561,Tarea de género gramatical,2024.2.2,Win32,59.88023952,,,,,,,,,,,,,,,,,,,,,,,305.0024,306.2635,l,1,[],[],[],[],[],[],[],0.5847,1,306.264,306.7638,,,,,,1285,FEM,DIS,150,muñeca,el,a,0.5847,,306.7642,306.7649,-0.076851852,-0.383333333,0,0,0,,0,111,111,384,1,,,,
,,,,,,2677034fb7523317df795496,66a626ef09d4e21e1a8894ec,6737681cc2aefeb89e856efc,2024-11-15_16h26.34.561,Tarea de género gramatical,2024.2.2,Win32,59.88023952,,,,,,,,,,,,,,,,,,,,,,,306.7684,308.0635,a,1,[],[],[],[],[],[],[],0.6083,1,308.064,308.5634,,,,,,1156,MAS,DIS,150,techo,la,l,0.6083,,308.5636,308.564,-0.076851852,-0.383333333,0,0,0,,0,112,112,255,1,,,,
,,,,,,2677034fb7523317df795496,66a626ef09d4e21e1a8894ec,6737681cc2aefeb89e856efc,2024-11-15_16h26.34.561,Tarea de género gramatical,2024.2.2,Win32,59.88023952,,,,,,,,,,,,,,,,,,,,,,,308.5681,309.7966,l,1,[],[],[],[],[],[],[],0.5508,1,309.7974,310.2966,,,,,,1201,FEM,DIS,150,verdad,el,a,0.5508,,310.2968,310.2972,-0.076851852,-0.383333333,0,0,0,,0,113,113,300,1,,,,
,,,,,,2677034fb7523317df795496,66a626ef09d4e21e1a8894ec,6737681cc2aefeb89e856efc,2024-11-15_16h26.34.561,Tarea de género gramatical,2024.2.2,Win32,59.88023952,,,,,,,,,,,,,,,,,,,,,,,310.3007,311.4853,l,1,[],[],[],[],[],[],[],0.5094,1,311.4858,311.98,,,,,,927,FEM,CON,150,mesa,,a,0.5094,,311.9838,311.9848,-0.076851852,-0.383333333,0,0,0,,0,114,114,26,1,,,,
,,,,,,2677034fb7523317df795496,66a626ef09d4e21e1a8894ec,6737681cc2aefeb89e856efc,2024-11-15_16h26.34.561,Tarea de género gramatical,2024.2.2,Win32,59.88023952,,,,,,,,,,,,,,,,,,,,,,,311.9859,313.2464,l,1,[],[],[],[],[],[],[],0.5951,1,313.2469,313.7466,,,,,,1255,FEM,DIS,150,mirada,el,a,0.5951,,313.7468,313.7473,-0.076851852,-0.383333333,0,0,0,,0,115,115,354,1,,,,
,,,,,,2677034fb7523317df795496,66a626ef09d4e21e1a8894ec,6737681cc2aefeb89e856efc,2024-11-15_16h26.34.561,Tarea de género gramatical,2024.2.2,Win32,59.88023952,,,,,,,,,,,,,,,,,,,,,,,313.7509,314.9688,l,1,[],[],[],[],[],[],[],0.5294,1,314.9689,315.4655,,,,,,1244,FEM,AGR,150,pareja,la,a,0.5294,,315.4658,315.4664,-0.076851852,-0.383333333,0,0,0,,0,116,116,343,1,,,,
,,,,,,2677034fb7523317df795496,66a626ef09d4e21e1a8894ec,6737681cc2aefeb89e856efc,2024-11-15_16h26.34.561,Tarea de género gramatical,2024.2.2,Win32,59.88023952,,,,,,,,,,,,,,,,,,,,,,,315.4704,316.6298,l,1,[],[],[],[],[],[],[],0.484,1,316.6301,317.13,,,,,,1184,FEM,AGR,150,fruta,la,a,0.484,,317.1302,317.1311,-0.076851852,-0.383333333,0,0,0,,0,117,117,283,1,,,,
,,,,,,2677034fb7523317df795496,66a626ef09d4e21e1a8894ec,6737681cc2aefeb89e856efc,2024-11-15_16h26.34.561,Tarea de género gramatical,2024.2.2,Win32,59.88023952,,,,,,,,,,,,,,,,,,,,,,,317.1345,318.2965,a,1,[],[],[],[],[],[],[],0.4861,1,318.2968,318.7903,,,,,,1050,MAS,CON,150,mozo,,l,0.4861,,318.7904,318.7905,-0.076851852,-0.383333333,0,0,0,,0,118,118,149,1,,,,
,,,,,,2677034fb7523317df795496,66a626ef09d4e21e1a8894ec,6737681cc2aefeb89e856efc,2024-11-15_16h26.34.561,Tarea de género gramatical,2024.2.2,Win32,59.88023952,,,,,,,,,,,,,,,,,,,,,,,318.7921,320.0547,l,1,[],[],[],[],[],[],[],0.5937,1,320.055,320.5579,,,,,,1155,FEM,CON,150,tribu,,a,0.5937,,320.5604,320.5616,-0.076851852,-0.383333333,0,0,0,,0,119,119,254,1,,,,
,,,,,,2677034fb7523317df795496,66a626ef09d4e21e1a8894ec,6737681cc2aefeb89e856efc,2024-11-15_16h26.34.561,Tarea de género gramatical,2024.2.2,Win32,59.88023952,,,,,,,,,,,,,,,,,,,,,,,320.5643,321.8182,l,1,[],[],[],[],[],[],[],0.5781,1,321.8183,322.3072,,,,,,1093,FEM,DIS,150,bolsa,el,a,0.5781,,322.3073,322.3076,-0.076851852,-0.383333333,0,0,0,,0,120,120,192,1,,,,
,,,,,,2677034fb7523317df795496,66a626ef09d4e21e1a8894ec,6737681cc2aefeb89e856efc,2024-11-15_16h26.34.561,Tarea de género gramatical,2024.2.2,Win32,59.88023952,,,,,,,,,,,,,,,,,,,,,,,322.3098,323.4463,l,1,[],[],[],[],[],[],[],0.4586,1,323.4467,323.9464,,,,,,1245,FEM,CON,150,pierna,,a,0.4586,,323.9466,323.947,-0.076851852,-0.383333333,0,0,0,,0,121,121,344,1,,,,
,,,,,,2677034fb7523317df795496,66a626ef09d4e21e1a8894ec,6737681cc2aefeb89e856efc,2024-11-15_16h26.34.561,Tarea de género gramatical,2024.2.2,Win32,59.88023952,,,,,,,,,,,,,,,,,,,,,,,323.9505,325.2631,a,1,[],[],[],[],[],[],[],0.6279,1,325.2635,325.7632,,,,,,1145,MAS,AGR,150,turno,el,l,0.6279,,325.7636,325.7641,-0.076851852,-0.383333333,0,0,0,,0,122,122,244,1,,,,
,,,,,,2677034fb7523317df795496,66a626ef09d4e21e1a8894ec,6737681cc2aefeb89e856efc,2024-11-15_16h26.34.561,Tarea de género gramatical,2024.2.2,Win32,59.88023952,,,,,,,,,,,,,,,,,,,,,,,325.7674,326.9463,l,1,[],[],[],[],[],[],[],0.5028,1,326.9468,327.4466,,,,,,1131,FEM,CON,150,bruja,,a,0.5028,,327.4508,327.4521,-0.076851852,-0.383333333,0,0,0,,0,123,123,230,1,,,,
,,,,,,2677034fb7523317df795496,66a626ef09d4e21e1a8894ec,6737681cc2aefeb89e856efc,2024-11-15_16h26.34.561,Tarea de género gramatical,2024.2.2,Win32,59.88023952,,,,,,,,,,,,,,,,,,,,,,,327.4534,328.6308,l,1,[],[],[],[],[],[],[],0.4901,1,328.6312,329.1234,,,,,,986,FEM,AGR,150,cruz,la,a,0.4901,,329.1235,329.1236,-0.076851852,-0.383333333,0,0,0,,0,124,124,85,1,,,,
,,,,,,2677034fb7523317df795496,66a626ef09d4e21e1a8894ec,6737681cc2aefeb89e856efc,2024-11-15_16h26.34.561,Tarea de género gramatical,2024.2.2,Win32,59.88023952,,,,,,,,,,,,,,,,,,,,,,,329.1247,330.3422,l,1,[],[],[],[],[],[],[],0.551,1,330.3423,330.8472,,,,,,1185,FEM,CON,150,mafia,,a,0.551,,330.8475,330.848,-0.076851852,-0.383333333,0,0,0,,0,125,125,284,1,,,,
,,,,,,2677034fb7523317df795496,66a626ef09d4e21e1a8894ec,6737681cc2aefeb89e856efc,2024-11-15_16h26.34.561,Tarea de género gramatical,2024.2.2,Win32,59.88023952,,,,,,,,,,,,,,,,,,,,,,,330.8511,332.2582,a,1,[],[],[],[],[],[],[],0.7322,1,332.2583,332.7468,,,,,,940,MAS,DIS,150,dios,la,l,0.7322,,332.7471,332.7476,-0.076851852,-0.383333333,0,0,0,,0,126,126,39,1,,,,
,,,,,,2677034fb7523317df795496,66a626ef09d4e21e1a8894ec,6737681cc2aefeb89e856efc,2024-11-15_16h26.34.561,Tarea de género gramatical,2024.2.2,Win32,59.88023952,,,,,,,,,,,,,,,,,,,,,,,332.751,333.9133,l,1,[],[],[],[],[],[],[],0.4857,1,333.9136,334.4128,,,,,,1335,FEM,CON,150,niebla,,a,0.4857,,334.4132,334.4136,-0.076851852,-0.383333333,0,0,0,,0,127,127,434,1,,,,
,,,,,,2677034fb7523317df795496,66a626ef09d4e21e1a8894ec,6737681cc2aefeb89e856efc,2024-11-15_16h26.34.561,Tarea de género gramatical,2024.2.2,Win32,59.88023952,,,,,,,,,,,,,,,,,,,,,,,334.4172,335.5518,l,1,[],[],[],[],[],[],[],0.46,1,335.5519,336.0464,,,,,,1118,FEM,AGR,150,nieve,la,a,0.46,,336.0509,336.0521,-0.076851852,-0.383333333,0,0,0,,0,128,128,217,1,,,,
,,,,,,2677034fb7523317df795496,66a626ef09d4e21e1a8894ec,6737681cc2aefeb89e856efc,2024-11-15_16h26.34.561,Tarea de género gramatical,2024.2.2,Win32,59.88023952,,,,,,,,,,,,,,,,,,,,,,,336.0533,337.2461,l,1,[],[],[],[],[],[],[],0.5173,1,337.2464,337.7463,,,,,,1347,FEM,CON,150,lógica,,a,0.5173,,337.7465,337.7469,-0.076851852,-0.383333333,0,0,0,,0,129,129,446,1,,,,
,,,,,,2677034fb7523317df795496,66a626ef09d4e21e1a8894ec,6737681cc2aefeb89e856efc,2024-11-15_16h26.34.561,Tarea de género gramatical,2024.2.2,Win32,59.88023952,,,,,,,,,,,,,,,,,,,,,,,337.7503,338.9682,l,1,[],[],[],[],[],[],[],0.5427,1,338.9685,339.4631,,,,,,1267,FEM,DIS,150,teoría,el,a,0.5427,,339.4634,339.4639,-0.076851852,-0.383333333,0,0,0,,0,130,130,366,1,,,,
,,,,,,2677034fb7523317df795496,66a626ef09d4e21e1a8894ec,6737681cc2aefeb89e856efc,2024-11-15_16h26.34.561,Tarea de género gramatical,2024.2.2,Win32,59.88023952,,,,,,,,,,,,,,,,,,,,,,,339.4677,340.6799,a,1,[],[],[],[],[],[],[],0.5344,1,340.6803,341.1798,,,,,,1127,MAS,AGR,150,vuelo,el,l,0.5344,,341.18,341.1804,-0.076851852,-0.383333333,0,0,0,,0,131,131,226,1,,,,
,,,,,,2677034fb7523317df795496,66a626ef09d4e21e1a8894ec,6737681cc2aefeb89e856efc,2024-11-15_16h26.34.561,Tarea de género gramatical,2024.2.2,Win32,59.88023952,,,,,,,,,,,,,,,,,,,,,,,341.184,342.3964,l,1,[],[],[],[],[],[],[],0.545,1,342.3969,342.8963,,,,,,1064,FEM,AGR,150,novia,la,a,0.545,,342.901,342.9028,-0.076851852,-0.383333333,0,0,0,,0,132,132,163,1,,,,
,,,,,,2677034fb7523317df795496,66a626ef09d4e21e1a8894ec,6737681cc2aefeb89e856efc,2024-11-15_16h26.34.561,Tarea de género gramatical,2024.2.2,Win32,59.88023952,,,,,,,,,,,,,,,,,,,,,,,342.9046,344.0462,l,1,[],[],[],[],[],[],[],0.4679,1,344.0467,344.5465,,,,,,1028,FEM,AGR,150,leña,la,a,0.4679,,344.5468,344.5473,-0.076851852,-0.383333333,0,0,0,,0,133,133,127,1,,,,
,,,,,,2677034fb7523317df795496,66a626ef09d4e21e1a8894ec,6737681cc2aefeb89e856efc,2024-11-15_16h26.34.561,Tarea de género gramatical,2024.2.2,Win32,59.88023952,,,,,,,,,,,,,,,,,,,,,,,344.5507,345.7796,a,1,[],[],[],[],[],[],[],0.5515,1,345.78,346.2796,,,,,,1266,MAS,CON,150,riesgo,,l,0.5515,,346.2798,346.2804,-0.076851852,-0.383333333,0,0,0,,0,134,134,365,1,,,,
,,,,,,2677034fb7523317df795496,66a626ef09d4e21e1a8894ec,6737681cc2aefeb89e856efc,2024-11-15_16h26.34.561,Tarea de género gramatical,2024.2.2,Win32,59.88023952,,,,,,,,,,,,,,,,,,,,,,,346.2838,347.4909,l,1,[],[],[],[],[],[],[],0.5326,1,347.4911,347.9808,,,,,,1137,FEM,CON,150,ducha,,a,0.5326,,347.9812,347.9818,-0.076851852,-0.383333333,0,0,0,,0,135,135,236,1,,,,
,,,,,,2677034fb7523317df795496,66a626ef09d4e21e1a8894ec,6737681cc2aefeb89e856efc,2024-11-15_16h26.34.561,Tarea de género gramatical,2024.2.2,Win32,59.88023952,,,,,,,,,,,,,,,,,,,,,,,347.9856,349.2962,a,1,[],[],[],[],[],[],[],0.6344,1,349.2966,349.7964,,,,,,917,MAS,AGR,150,modo,el,l,0.6344,,349.7966,349.797,-0.076851852,-0.383333333,0,0,0,,0,136,136,16,1,,,,
,,,,,,2677034fb7523317df795496,66a626ef09d4e21e1a8894ec,6737681cc2aefeb89e856efc,2024-11-15_16h26.34.561,Tarea de género gramatical,2024.2.2,Win32,59.88023952,,,,,,,,,,,,,,,,,,,,,,,349.8007,350.9797,l,1,[],[],[],[],[],[],[],0.514,1,350.9802,351.4796,,,,,,1311,FEM,CON,150,actriz,,a,0.514,,351.4843,351.4855,-0.076851852,-0.383333333,0,0,0,,0,137,137,410,1,,,,
,,,,,,2677034fb7523317df795496,66a626ef09d4e21e1a8894ec,6737681cc2aefeb89e856efc,2024-11-15_16h26.34.561,Tarea de género gramatical,2024.2.2,Win32,59.88023952,,,,,,,,,,,,,,,,,,,,,,,351.4867,352.7204,a,1,[],[],[],[],[],[],[],0.5601,1,352.7208,353.2131,,,,,,1072,MAS,DIS,150,poder,la,l,0.5601,,353.2134,353.2139,-0.076851852,-0.383333333,0,0,0,,0,138,138,171,1,,,,
,,,,,,2677034fb7523317df795496,66a626ef09d4e21e1a8894ec,6737681cc2aefeb89e856efc,2024-11-15_16h26.34.561,Tarea de género gramatical,2024.2.2,Win32,59.88023952,,,,,,,,,,,,,,,,,,,,,,,353.2178,354.3959,l,1,[],[],[],[],[],[],[],0.5001,1,354.3963,354.8963,,,,,,939,FEM,CON,150,luna,,a,0.5001,,354.8965,354.8971,-0.076851852,-0.383333333,0,0,0,,0,139,139,38,1,,,,
,,,,,,2677034fb7523317df795496,66a626ef09d4e21e1a8894ec,6737681cc2aefeb89e856efc,2024-11-15_16h26.34.561,Tarea de género gramatical,2024.2.2,Win32,59.88023952,,,,,,,,,,,,,,,,,,,,,,,354.9005,356.2129,l,1,[],[],[],[],[],[],[],0.637,1,356.2134,356.7129,,,,,,981,FEM,CON,150,cima,,a,0.637,,356.7133,356.7138,-0.076851852,-0.383333333,0,0,0,,0,140,140,80,1,,,,
,,,,,,2677034fb7523317df795496,66a626ef09d4e21e1a8894ec,6737681cc2aefeb89e856efc,2024-11-15_16h26.34.561,Tarea de género gramatical,2024.2.2,Win32,59.88023952,,,,,,,,,,,,,,,,,,,,,,,356.7173,357.946,l,1,[],[],[],[],[],[],[],0.5505,1,357.9465,358.4466,,,,,,901,FEM,DIS,150,casa,el,a,0.5505,,358.4506,358.4519,-0.076851852,-0.383333333,0,0,0,,0,141,141,0,1,,,,
,,,,,,2677034fb7523317df795496,66a626ef09d4e21e1a8894ec,6737681cc2aefeb89e856efc,2024-11-15_16h26.34.561,Tarea de género gramatical,2024.2.2,Win32,59.88023952,,,,,,,,,,,,,,,,,,,,,,,358.4531,359.6128,l,1,[],[],[],[],[],[],[],0.4856,1,359.613,360.1131,,,,,,1046,FEM,AGR,150,lana,la,a,0.4856,,360.1134,360.1138,-0.076851852,-0.383333333,0,0,0,,0,142,142,145,1,,,,
,,,,,,2677034fb7523317df795496,66a626ef09d4e21e1a8894ec,6737681cc2aefeb89e856efc,2024-11-15_16h26.34.561,Tarea de género gramatical,2024.2.2,Win32,59.88023952,,,,,,,,,,,,,,,,,,,,,,,360.1173,361.3629,l,1,[],[],[],[],[],[],[],0.5516,1,361.3635,361.8629,,,,,,1207,FEM,DIS,150,suerte,el,a,0.5516,,361.8633,361.8639,-0.076851852,-0.383333333,0,0,0,,0,143,143,306,1,,,,
,,,,,,2677034fb7523317df795496,66a626ef09d4e21e1a8894ec,6737681cc2aefeb89e856efc,2024-11-15_16h26.34.561,Tarea de género gramatical,2024.2.2,Win32,59.88023952,,,,,,,,,,,,,,,,,,,,,,,361.8676,363.1156,l,1,[],[],[],[],[],[],[],0.5701,1,363.1161,363.6129,,,,,,1106,FEM,AGR,150,época,la,a,0.5701,,363.6132,363.6137,-0.076851852,-0.383333333,0,0,0,,0,144,144,205,1,,,,
,,,,,,2677034fb7523317df795496,66a626ef09d4e21e1a8894ec,6737681cc2aefeb89e856efc,2024-11-15_16h26.34.561,Tarea de género gramatical,2024.2.2,Win32,59.88023952,,,,,,,,,,,,,,,,,,,,,,,363.6172,364.796,a,1,[],[],[],[],[],[],[],0.5015,1,364.7965,365.2961,,,,,,1133,MAS,AGR,150,golpe,el,l,0.5015,,365.2964,365.2967,-0.076851852,-0.383333333,0,0,0,,0,145,145,232,1,,,,
,,,,,,2677034fb7523317df795496,66a626ef09d4e21e1a8894ec,6737681cc2aefeb89e856efc,2024-11-15_16h26.34.561,Tarea de género gramatical,2024.2.2,Win32,59.88023952,,,,,,,,,,,,,,,,,,,,,,,365.3004,366.8126,a,1,[],[],[],[],[],[],[],0.8359,1,366.813,367.313,,,,,,988,MAS,DIS,150,pavo,la,l,0.8359,,367.3176,367.3188,-0.076851852,-0.383333333,0,0,0,,0,146,146,87,1,,,,
,,,,,,2677034fb7523317df795496,66a626ef09d4e21e1a8894ec,6737681cc2aefeb89e856efc,2024-11-15_16h26.34.561,Tarea de género gramatical,2024.2.2,Win32,59.88023952,,,,,,,,,,,,,,,,,,,,,,,367.3199,368.5757,a,1,[],[],[],[],[],[],[],0.5843,1,368.5759,369.0796,,,,,,1308,MAS,CON,150,cheque,,l,0.5843,,369.0798,369.0803,-0.076851852,-0.383333333,0,0,0,,0,147,147,407,1,,,,
,,,,,,2677034fb7523317df795496,66a626ef09d4e21e1a8894ec,6737681cc2aefeb89e856efc,2024-11-15_16h26.34.561,Tarea de género gramatical,2024.2.2,Win32,59.88023952,,,,,,,,,,,,,,,,,,,,,,,369.0839,370.3293,a,1,[],[],[],[],[],[],[],0.5672,1,370.3298,370.8293,,,,,,916,MAS,DIS,150,baño,la,l,0.5672,,370.8294,370.8298,-0.076851852,-0.383333333,0,0,0,,0,148,148,15,1,,,,
,,,,,,2677034fb7523317df795496,66a626ef09d4e21e1a8894ec,6737681cc2aefeb89e856efc,2024-11-15_16h26.34.561,Tarea de género gramatical,2024.2.2,Win32,59.88023952,,,,,,,,,,,,,,,,,,,,,,,370.8334,372.0411,l,1,[],[],[],[],[],[],[],0.5327,1,372.0412,372.5337,,,,,,1316,FEM,AGR,150,colina,la,a,0.5327,,372.5339,372.5344,-0.076851852,-0.383333333,0,0,0,,0,149,149,415,1,,,,
,,,,,,2677034fb7523317df795496,66a626ef09d4e21e1a8894ec,6737681cc2aefeb89e856efc,2024-11-15_16h26.34.561,Tarea de género gramatical,2024.2.2,Win32,59.88023952,,,,,,,,,,,,,,,,,,,,,,,372.5378,373.7577,l,1,[],[],[],[],[],[],[],0.5493,1,373.7579,374.2628,,,,,,1081,FEM,DIS,150,tarde,el,a,0.5493,,374.2673,417.4797,-0.076851852,-0.383333333,0,0,0,space,0,150,150,180,1,43.1835,,,
,,,,,,2677034fb7523317df795496,66a626ef09d4e21e1a8894ec,6737681cc2aefeb89e856efc,2024-11-15_16h26.34.561,Tarea de género gramatical,2024.2.2,Win32,59.88023952,,,,,,,,,,,,,,,,,,,,,,,417.4834,418.7547,a,1,[],[],[],[],[],[],[],0.5986,1,418.7552,419.257,,,,,,1181,MAS,AGR,150,actor,el,l,0.5986,,419.2571,419.2573,-0.076851852,-0.383333333,0,0,0,,0,151,151,280,1,,,,
,,,,,,2677034fb7523317df795496,66a626ef09d4e21e1a8894ec,6737681cc2aefeb89e856efc,2024-11-15_16h26.34.561,Tarea de género gramatical,2024.2.2,Win32,59.88023952,,,,,,,,,,,,,,,,,,,,,,,419.2591,420.4081,a,1,[],[],[],[],[],[],[],0.4671,1,420.4083,420.9255,,,,,,1007,MAS,AGR,150,cubo,el,l,0.4671,,420.9256,420.9258,-0.076851852,-0.383333333,0,0,0,,0,152,152,106,1,,,,
,,,,,,2677034fb7523317df795496,66a626ef09d4e21e1a8894ec,6737681cc2aefeb89e856efc,2024-11-15_16h26.34.561,Tarea de género gramatical,2024.2.2,Win32,59.88023952,,,,,,,,,,,,,,,,,,,,,,,420.9273,422.3958,a,1,[],[],[],[],[],[],[],0.7969,1,422.3961,422.8963,,,,,,1036,MAS,DIS,150,vago,la,l,0.7969,,422.8966,422.8972,-0.076851852,-0.383333333,0,0,0,,0,153,153,135,1,,,,
,,,,,,2677034fb7523317df795496,66a626ef09d4e21e1a8894ec,6737681cc2aefeb89e856efc,2024-11-15_16h26.34.561,Tarea de género gramatical,2024.2.2,Win32,59.88023952,,,,,,,,,,,,,,,,,,,,,,,422.9002,424.0754,a,1,[],[],[],[],[],[],[],0.5004,1,424.0755,424.5787,,,,,,1152,MAS,CON,150,viejo,,l,0.5004,,424.5791,424.5795,-0.076851852,-0.383333333,0,0,0,,0,154,154,251,1,,,,
,,,,,,2677034fb7523317df795496,66a626ef09d4e21e1a8894ec,6737681cc2aefeb89e856efc,2024-11-15_16h26.34.561,Tarea de género gramatical,2024.2.2,Win32,59.88023952,,,,,,,,,,,,,,,,,,,,,,,424.5832,426.0408,a,1,[],[],[],[],[],[],[],0.7827,1,426.0409,426.5347,,,,,,934,MAS,DIS,150,gato,la,l,0.7827,,426.5396,426.5409,-0.076851852,-0.383333333,0,0,0,,0,155,155,33,1,,,,
,,,,,,2677034fb7523317df795496,66a626ef09d4e21e1a8894ec,6737681cc2aefeb89e856efc,2024-11-15_16h26.34.561,Tarea de género gramatical,2024.2.2,Win32,59.88023952,,,,,,,,,,,,,,,,,,,,,,,426.5421,427.8867,l,1,[],[],[],[],[],[],[],0.6774,1,427.8872,428.3794,,,,,,1039,FEM,DIS,150,pipa,el,a,0.6774,,428.3796,428.38,-0.076851852,-0.383333333,0,0,0,,0,156,156,138,1,,,,
,,,,,,2677034fb7523317df795496,66a626ef09d4e21e1a8894ec,6737681cc2aefeb89e856efc,2024-11-15_16h26.34.561,Tarea de género gramatical,2024.2.2,Win32,59.88023952,,,,,,,,,,,,,,,,,,,,,,,428.3835,429.5289,l,1,[],[],[],[],[],[],[],0.4802,1,429.5293,430.029,,,,,,1130,FEM,AGR,150,regla,la,a,0.4802,,430.0293,430.0297,-0.076851852,-0.383333333,0,0,0,,0,157,157,229,1,,,,
,,,,,,2677034fb7523317df795496,66a626ef09d4e21e1a8894ec,6737681cc2aefeb89e856efc,2024-11-15_16h26.34.561,Tarea de género gramatical,2024.2.2,Win32,59.88023952,,,,,,,,,,,,,,,,,,,,,,,430.0334,431.4622,l,1,[],[],[],[],[],[],[],0.7534,1,431.4625,431.962,,,,,,1009,FEM,DIS,150,gota,el,a,0.7534,,431.9622,431.9625,-0.076851852,-0.383333333,0,0,0,,0,158,158,108,1,,,,
,,,,,,2677034fb7523317df795496,66a626ef09d4e21e1a8894ec,6737681cc2aefeb89e856efc,2024-11-15_16h26.34.561,Tarea de género gramatical,2024.2.2,Win32,59.88023952,,,,,,,,,,,,,,,,,,,,,,,431.9661,433.1239,l,1,[],[],[],[],[],[],[],0.4825,1,433.1241,433.6238,,,,,,908,FEM,AGR,150,idea,la,a,0.4825,,433.6255,433.6266,-0.076851852,-0.383333333,0,0,0,,0,159,159,7,1,,,,
,,,,,,2677034fb7523317df795496,66a626ef09d4e21e1a8894ec,6737681cc2aefeb89e856efc,2024-11-15_16h26.34.561,Tarea de género gramatical,2024.2.2,Win32,59.88023952,,,,,,,,,,,,,,,,,,,,,,,433.6273,434.8121,a,1,[],[],[],[],[],[],[],0.509,1,434.8124,435.3125,,,,,,1176,MAS,CON,150,ritmo,,l,0.509,,435.3127,435.3133,-0.076851852,-0.383333333,0,0,0,,0,160,160,275,1,,,,
,,,,,,2677034fb7523317df795496,66a626ef09d4e21e1a8894ec,6737681cc2aefeb89e856efc,2024-11-15_16h26.34.561,Tarea de género gramatical,2024.2.2,Win32,59.88023952,,,,,,,,,,,,,,,,,,,,,,,435.3167,436.3786,l,1,[],[],[],[],[],[],[],0.3939,1,436.3788,436.8742,,,,,,957,FEM,CON,150,moda,,a,0.3939,,436.8743,436.8747,-0.076851852,-0.383333333,0,0,0,,0,161,161,56,1,,,,
,,,,,,2677034fb7523317df795496,66a626ef09d4e21e1a8894ec,6737681cc2aefeb89e856efc,2024-11-15_16h26.34.561,Tarea de género gramatical,2024.2.2,Win32,59.88023952,,,,,,,,,,,,,,,,,,,,,,,436.877,438.4118,l,1,[],[],[],[],[],[],[],0.8586,1,438.4121,438.9123,,,,,,1279,FEM,DIS,150,granja,el,a,0.8586,,438.9125,438.9131,-0.076851852,-0.383333333,0,0,0,,0,162,162,378,1,,,,
,,,,,,2677034fb7523317df795496,66a626ef09d4e21e1a8894ec,6737681cc2aefeb89e856efc,2024-11-15_16h26.34.561,Tarea de género gramatical,2024.2.2,Win32,59.88023952,,,,,,,,,,,,,,,,,,,,,,,438.9165,440.4619,a,1,[],[],[],[],[],[],[],0.8682,1,440.4623,440.9499,,,,,,930,MAS,CON,150,cine,,l,0.8682,,440.9501,440.9503,-0.076851852,-0.383333333,0,0,0,,0,163,163,29,1,,,,
,,,,,,2677034fb7523317df795496,66a626ef09d4e21e1a8894ec,6737681cc2aefeb89e856efc,2024-11-15_16h26.34.561,Tarea de género gramatical,2024.2.2,Win32,59.88023952,,,,,,,,,,,,,,,,,,,,,,,440.9521,442.4235,l,1,[],[],[],[],[],[],[],0.7992,1,442.4236,442.912,,,,,,1249,FEM,DIS,150,prensa,el,a,0.7992,,442.9163,442.9178,-0.076851852,-0.383333333,0,0,0,,0,164,164,348,1,,,,
,,,,,,2677034fb7523317df795496,66a626ef09d4e21e1a8894ec,6737681cc2aefeb89e856efc,2024-11-15_16h26.34.561,Tarea de género gramatical,2024.2.2,Win32,59.88023952,,,,,,,,,,,,,,,,,,,,,,,442.919,444.6248,l,1,[],[],[],[],[],[],[],1.0294,1,444.6249,445.1288,,,,,,1237,FEM,DIS,150,escena,el,a,1.0294,,445.1291,445.1295,-0.076851852,-0.383333333,0,0,0,,0,165,165,336,1,,,,
,,,,,,2677034fb7523317df795496,66a626ef09d4e21e1a8894ec,6737681cc2aefeb89e856efc,2024-11-15_16h26.34.561,Tarea de género gramatical,2024.2.2,Win32,59.88023952,,,,,,,,,,,,,,,,,,,,,,,445.1332,446.5952,a,1,[],[],[],[],[],[],[],0.7849,1,446.5955,447.0957,,,,,,1288,MAS,DIS,150,empleo,la,l,0.7849,,447.0959,447.0963,-0.076851852,-0.383333333,0,0,0,,0,166,166,387,1,,,,
,,,,,,2677034fb7523317df795496,66a626ef09d4e21e1a8894ec,6737681cc2aefeb89e856efc,2024-11-15_16h26.34.561,Tarea de género gramatical,2024.2.2,Win32,59.88023952,,,,,,,,,,,,,,,,,,,,,,,447.0998,448.7619,a,1,[],[],[],[],[],[],[],0.9836,1,448.7623,449.2618,,,,,,929,MAS,AGR,150,frío,el,l,0.9836,,449.2621,449.2624,-0.076851852,-0.383333333,0,0,0,,0,167,167,28,1,,,,
,,,,,,2677034fb7523317df795496,66a626ef09d4e21e1a8894ec,6737681cc2aefeb89e856efc,2024-11-15_16h26.34.561,Tarea de género gramatical,2024.2.2,Win32,59.88023952,,,,,,,,,,,,,,,,,,,,,,,449.2659,450.4246,l,1,[],[],[],[],[],[],[],0.4935,1,450.4247,450.9285,,,,,,1124,FEM,AGR,150,arena,la,a,0.4935,,450.9329,450.9341,-0.076851852,-0.383333333,0,0,0,,0,168,168,223,1,,,,
,,,,,,2677034fb7523317df795496,66a626ef09d4e21e1a8894ec,6737681cc2aefeb89e856efc,2024-11-15_16h26.34.561,Tarea de género gramatical,2024.2.2,Win32,59.88023952,,,,,,,,,,,,,,,,,,,,,,,450.9354,452.3169,l,1,[],[],[],[],[],[],[],0.6925,1,452.3175,452.8115,,,,,,1135,FEM,DIS,150,torre,el,a,0.6925,,452.8116,452.8118,-0.076851852,-0.383333333,0,0,0,,0,169,169,234,1,,,,
,,,,,,2677034fb7523317df795496,66a626ef09d4e21e1a8894ec,6737681cc2aefeb89e856efc,2024-11-15_16h26.34.561,Tarea de género gramatical,2024.2.2,Win32,59.88023952,,,,,,,,,,,,,,,,,,,,,,,452.8153,454.1281,a,1,[],[],[],[],[],[],[],0.6347,1,454.1284,454.6281,,,,,,983,MAS,AGR,150,nene,el,l,0.6347,,454.6282,454.6285,-0.076851852,-0.383333333,0,0,0,,0,170,170,82,1,,,,
,,,,,,2677034fb7523317df795496,66a626ef09d4e21e1a8894ec,6737681cc2aefeb89e856efc,2024-11-15_16h26.34.561,Tarea de género gramatical,2024.2.2,Win32,59.88023952,,,,,,,,,,,,,,,,,,,,,,,454.6323,455.8614,l,1,[],[],[],[],[],[],[],0.5508,1,455.8616,456.3618,,,,,,951,FEM,CON,150,bala,,a,0.5508,,456.3619,456.3621,-0.076851852,-0.383333333,0,0,0,,0,171,171,50,1,,,,
,,,,,,2677034fb7523317df795496,66a626ef09d4e21e1a8894ec,6737681cc2aefeb89e856efc,2024-11-15_16h26.34.561,Tarea de género gramatical,2024.2.2,Win32,59.88023952,,,,,,,,,,,,,,,,,,,,,,,456.3654,457.5448,l,1,[],[],[],[],[],[],[],0.5014,1,457.545,458.0448,,,,,,1161,FEM,CON,150,cueva,,a,0.5014,,458.0449,458.0452,-0.076851852,-0.383333333,0,0,0,,0,172,172,260,1,,,,
,,,,,,2677034fb7523317df795496,66a626ef09d4e21e1a8894ec,6737681cc2aefeb89e856efc,2024-11-15_16h26.34.561,Tarea de género gramatical,2024.2.2,Win32,59.88023952,,,,,,,,,,,,,,,,,,,,,,,458.0484,459.2946,a,1,[],[],[],[],[],[],[],0.5676,1,459.2948,459.7945,,,,,,1044,MAS,CON,150,amor,,l,0.5676,,459.7989,459.8009,-0.076851852,-0.383333333,0,0,0,,0,173,173,143,1,,,,
,,,,,,2677034fb7523317df795496,66a626ef09d4e21e1a8894ec,6737681cc2aefeb89e856efc,2024-11-15_16h26.34.561,Tarea de género gramatical,2024.2.2,Win32,59.88023952,,,,,,,,,,,,,,,,,,,,,,,459.8019,461.2623,a,1,[],[],[],[],[],[],[],0.7875,1,461.2625,461.7614,,,,,,1019,MAS,AGR,150,mito,el,l,0.7875,,461.7615,461.7617,-0.076851852,-0.383333333,0,0,0,,0,174,174,118,1,,,,
,,,,,,2677034fb7523317df795496,66a626ef09d4e21e1a8894ec,6737681cc2aefeb89e856efc,2024-11-15_16h26.34.561,Tarea de género gramatical,2024.2.2,Win32,59.88023952,,,,,,,,,,,,,,,,,,,,,,,461.7653,463.0622,l,1,[],[],[],[],[],[],[],0.6172,1,463.0631,463.5616,,,,,,1117,FEM,DIS,150,tarea,el,a,0.6172,,463.5617,463.5621,-0.076851852,-0.383333333,0,0,0,,0,175,175,216,1,,,,
,,,,,,2677034fb7523317df795496,66a626ef09d4e21e1a8894ec,6737681cc2aefeb89e856efc,2024-11-15_16h26.34.561,Tarea de género gramatical,2024.2.2,Win32,59.88023952,,,,,,,,,,,,,,,,,,,,,,,463.566,464.928,a,1,[],[],[],[],[],[],[],0.6847,1,464.9282,465.4282,,,,,,1055,MAS,AGR,150,mundo,el,l,0.6847,,465.4283,465.4286,-0.076851852,-0.383333333,0,0,0,,0,176,176,154,1,,,,
,,,,,,2677034fb7523317df795496,66a626ef09d4e21e1a8894ec,6737681cc2aefeb89e856efc,2024-11-15_16h26.34.561,Tarea de género gramatical,2024.2.2,Win32,59.88023952,,,,,,,,,,,,,,,,,,,,,,,465.4329,466.6113,l,1,[],[],[],[],[],[],[],0.5013,1,466.6116,467.1117,,,,,,943,FEM,DIS,150,nena,el,a,0.5013,,467.1165,467.1182,-0.076851852,-0.383333333,0,0,0,,0,177,177,42,1,,,,
,,,,,,2677034fb7523317df795496,66a626ef09d4e21e1a8894ec,6737681cc2aefeb89e856efc,2024-11-15_16h26.34.561,Tarea de género gramatical,2024.2.2,Win32,59.88023952,,,,,,,,,,,,,,,,,,,,,,,467.1197,468.228,l,1,[],[],[],[],[],[],[],0.4342,1,468.2282,468.728,,,,,,1173,FEM,CON,150,tarta,,a,0.4342,,468.7282,468.7284,-0.076851852,-0.383333333,0,0,0,,0,178,178,272,1,,,,
,,,,,,2677034fb7523317df795496,66a626ef09d4e21e1a8894ec,6737681cc2aefeb89e856efc,2024-11-15_16h26.34.561,Tarea de género gramatical,2024.2.2,Win32,59.88023952,,,,,,,,,,,,,,,,,,,,,,,468.7319,469.8277,l,1,[],[],[],[],[],[],[],0.4171,1,469.8279,470.328,,,,,,1196,FEM,AGR,150,feria,la,a,0.4171,,470.3282,470.3284,-0.076851852,-0.383333333,0,0,0,,0,179,179,295,1,,,,
,,,,,,2677034fb7523317df795496,66a626ef09d4e21e1a8894ec,6737681cc2aefeb89e856efc,2024-11-15_16h26.34.561,Tarea de género gramatical,2024.2.2,Win32,59.88023952,,,,,,,,,,,,,,,,,,,,,,,470.3319,471.5944,a,0,[],[],[],[],[],[],[],0.5839,0,471.5965,472.0946,,,,,,1087,FEM,DIS,150,lista,el,a,0.5839,,472.0948,472.0949,-0.076851852,-0.383333333,0,0,0,,0,180,180,186,1,,,,
,,,,,,2677034fb7523317df795496,66a626ef09d4e21e1a8894ec,6737681cc2aefeb89e856efc,2024-11-15_16h26.34.561,Tarea de género gramatical,2024.2.2,Win32,59.88023952,,,,,,,,,,,,,,,,,,,,,,,472.0993,473.5779,l,1,[],[],[],[],[],[],[],0.8019,1,473.5813,474.0784,,,,,,1231,FEM,DIS,150,cárcel,el,a,0.8019,,474.0785,474.079,-0.076851852,-0.383333333,0,0,0,,0,181,181,330,1,,,,
,,,,,,2677034fb7523317df795496,66a626ef09d4e21e1a8894ec,6737681cc2aefeb89e856efc,2024-11-15_16h26.34.561,Tarea de género gramatical,2024.2.2,Win32,59.88023952,,,,,,,,,,,,,,,,,,,,,,,474.0831,475.3613,a,1,[],[],[],[],[],[],[],0.601,1,475.3615,475.8625,,,,,,1013,MAS,AGR,150,toro,el,l,0.601,,475.8683,475.8698,-0.076851852,-0.383333333,0,0,0,,0,182,182,112,1,,,,
,,,,,,2677034fb7523317df795496,66a626ef09d4e21e1a8894ec,6737681cc2aefeb89e856efc,2024-11-15_16h26.34.561,Tarea de género gramatical,2024.2.2,Win32,59.88023952,,,,,,,,,,,,,,,,,,,,,,,475.8718,477.0447,l,1,[],[],[],[],[],[],[],0.5009,1,477.0448,477.5446,,,,,,1297,FEM,DIS,150,cuerda,el,a,0.5009,,477.5447,477.5449,-0.076851852,-0.383333333,0,0,0,,0,183,183,396,1,,,,
,,,,,,2677034fb7523317df795496,66a626ef09d4e21e1a8894ec,6737681cc2aefeb89e856efc,2024-11-15_16h26.34.561,Tarea de género gramatical,2024.2.2,Win32,59.88023952,,,,,,,,,,,,,,,,,,,,,,,477.5478,478.6444,l,1,[],[],[],[],[],[],[],0.4178,1,478.6447,479.1445,,,,,,1287,FEM,CON,150,página,,a,0.4178,,479.1446,479.1448,-0.076851852,-0.383333333,0,0,0,,0,184,184,386,1,,,,
,,,,,,2677034fb7523317df795496,66a626ef09d4e21e1a8894ec,6737681cc2aefeb89e856efc,2024-11-15_16h26.34.561,Tarea de género gramatical,2024.2.2,Win32,59.88023952,,,,,,,,,,,,,,,,,,,,,,,479.148,480.4446,a,1,[],[],[],[],[],[],[],0.6172,1,480.4448,480.9446,,,,,,1049,MAS,AGR,150,nudo,el,l,0.6172,,480.9447,480.9449,-0.076851852,-0.383333333,0,0,0,,0,185,185,148,1,,,,
,,,,,,2677034fb7523317df795496,66a626ef09d4e21e1a8894ec,6737681cc2aefeb89e856efc,2024-11-15_16h26.34.561,Tarea de género gramatical,2024.2.2,Win32,59.88023952,,,,,,,,,,,,,,,,,,,,,,,480.9484,482.2612,a,1,[],[],[],[],[],[],[],0.6333,1,482.2614,482.7612,,,,,,1120,MAS,DIS,150,huevo,la,l,0.6333,,482.7652,482.767,-0.076851852,-0.383333333,0,0,0,,0,186,186,219,1,,,,
,,,,,,2677034fb7523317df795496,66a626ef09d4e21e1a8894ec,6737681cc2aefeb89e856efc,2024-11-15_16h26.34.561,Tarea de género gramatical,2024.2.2,Win32,59.88023952,,,,,,,,,,,,,,,,,,,,,,,482.7683,483.9111,l,1,[],[],[],[],[],[],[],0.4677,1,483.9114,484.4112,,,,,,1171,FEM,DIS,150,viuda,el,a,0.4677,,484.4113,484.4116,-0.076851852,-0.383333333,0,0,0,,0,187,187,270,1,,,,
,,,,,,2677034fb7523317df795496,66a626ef09d4e21e1a8894ec,6737681cc2aefeb89e856efc,2024-11-15_16h26.34.561,Tarea de género gramatical,2024.2.2,Win32,59.88023952,,,,,,,,,,,,,,,,,,,,,,,484.4154,485.5777,l,1,[],[],[],[],[],[],[],0.4843,1,485.578,486.0778,,,,,,938,FEM,AGR,150,obra,la,a,0.4843,,486.0778,486.0782,-0.076851852,-0.383333333,0,0,0,,0,188,188,37,1,,,,
,,,,,,2677034fb7523317df795496,66a626ef09d4e21e1a8894ec,6737681cc2aefeb89e856efc,2024-11-15_16h26.34.561,Tarea de género gramatical,2024.2.2,Win32,59.88023952,,,,,,,,,,,,,,,,,,,,,,,486.0815,487.3277,a,1,[],[],[],[],[],[],[],0.568,1,487.3279,487.8278,,,,,,1102,MAS,DIS,150,honor,la,l,0.568,,487.8279,487.8281,-0.076851852,-0.383333333,0,0,0,,0,189,189,201,1,,,,
,,,,,,2677034fb7523317df795496,66a626ef09d4e21e1a8894ec,6737681cc2aefeb89e856efc,2024-11-15_16h26.34.561,Tarea de género gramatical,2024.2.2,Win32,59.88023952,,,,,,,,,,,,,,,,,,,,,,,487.8316,489.2442,a,1,[],[],[],[],[],[],[],0.7313,1,489.2443,489.7444,,,,,,1276,MAS,DIS,150,efecto,la,l,0.7313,,489.7445,489.7451,-0.076851852,-0.383333333,0,0,0,,0,190,190,375,1,,,,
,,,,,,2677034fb7523317df795496,66a626ef09d4e21e1a8894ec,6737681cc2aefeb89e856efc,2024-11-15_16h26.34.561,Tarea de género gramatical,2024.2.2,Win32,59.88023952,,,,,,,,,,,,,,,,,,,,,,,489.7483,490.8113,l,1,[],[],[],[],[],[],[],0.3863,1,490.8116,491.3111,,,,,,1125,FEM,CON,150,pieza,,a,0.3863,,491.3147,491.317,-0.076851852,-0.383333333,0,0,0,,0,191,191,224,1,,,,
,,,,,,2677034fb7523317df795496,66a626ef09d4e21e1a8894ec,6737681cc2aefeb89e856efc,2024-11-15_16h26.34.561,Tarea de género gramatical,2024.2.2,Win32,59.88023952,,,,,,,,,,,,,,,,,,,,,,,491.3182,492.5943,a,1,[],[],[],[],[],[],[],0.6013,1,492.5945,493.0944,,,,,,1270,MAS,DIS,150,seguro,la,l,0.6013,,493.0946,493.0947,-0.076851852,-0.383333333,0,0,0,,0,192,192,369,1,,,,
,,,,,,2677034fb7523317df795496,66a626ef09d4e21e1a8894ec,6737681cc2aefeb89e856efc,2024-11-15_16h26.34.561,Tarea de género gramatical,2024.2.2,Win32,59.88023952,,,,,,,,,,,,,,,,,,,,,,,493.098,494.3277,l,0,[],[],[],[],[],[],[],0.5511,0,494.33,494.8278,,,,,,1078,MAS,DIS,150,punto,la,l,0.5511,,494.8279,494.8282,-0.076851852,-0.383333333,0,0,0,,0,193,193,177,1,,,,
,,,,,,2677034fb7523317df795496,66a626ef09d4e21e1a8894ec,6737681cc2aefeb89e856efc,2024-11-15_16h26.34.561,Tarea de género gramatical,2024.2.2,Win32,59.88023952,,,,,,,,,,,,,,,,,,,,,,,494.8314,496.1778,a,1,[],[],[],[],[],[],[],0.6683,1,496.18,496.6778,,,,,,1086,MAS,CON,150,error,,l,0.6683,,496.6778,496.678,-0.076851852,-0.383333333,0,0,0,,0,194,194,185,1,,,,
,,,,,,2677034fb7523317df795496,66a626ef09d4e21e1a8894ec,6737681cc2aefeb89e856efc,2024-11-15_16h26.34.561,Tarea de género gramatical,2024.2.2,Win32,59.88023952,,,,,,,,,,,,,,,,,,,,,,,496.6813,497.9445,l,0,[],[],[],[],[],[],[],0.5844,0,497.9471,498.4451,,,,,,1110,MAS,CON,150,baile,,l,0.5844,,498.4496,498.4517,-0.076851852,-0.383333333,0,0,0,,0,195,195,209,1,,,,
,,,,,,2677034fb7523317df795496,66a626ef09d4e21e1a8894ec,6737681cc2aefeb89e856efc,2024-11-15_16h26.34.561,Tarea de género gramatical,2024.2.2,Win32,59.88023952,,,,,,,,,,,,,,,,,,,,,,,498.4528,499.6277,l,1,[],[],[],[],[],[],[],0.5009,1,499.6306,500.1277,,,,,,969,FEM,CON,150,rata,,a,0.5009,,500.1278,500.128,-0.076851852,-0.383333333,0,0,0,,0,196,196,68,1,,,,
,,,,,,2677034fb7523317df795496,66a626ef09d4e21e1a8894ec,6737681cc2aefeb89e856efc,2024-11-15_16h26.34.561,Tarea de género gramatical,2024.2.2,Win32,59.88023952,,,,,,,,,,,,,,,,,,,,,,,500.1314,501.6611,a,1,[],[],[],[],[],[],[],0.8505,1,501.6612,502.1611,,,,,,1054,MAS,DIS,150,padre,la,l,0.8505,,502.1611,502.1613,-0.076851852,-0.383333333,0,0,0,,0,197,197,153,1,,,,
,,,,,,2677034fb7523317df795496,66a626ef09d4e21e1a8894ec,6737681cc2aefeb89e856efc,2024-11-15_16h26.34.561,Tarea de género gramatical,2024.2.2,Win32,59.88023952,,,,,,,,,,,,,,,,,,,,,,,502.1646,503.6442,a,1,[],[],[],[],[],[],[],0.8019,1,503.6443,504.1444,,,,,,946,MAS,DIS,150,odio,la,l,0.8019,,504.1445,504.1446,-0.076851852,-0.383333333,0,0,0,,0,198,198,45,1,,,,
,,,,,,2677034fb7523317df795496,66a626ef09d4e21e1a8894ec,6737681cc2aefeb89e856efc,2024-11-15_16h26.34.561,Tarea de género gramatical,2024.2.2,Win32,59.88023952,,,,,,,,,,,,,,,,,,,,,,,504.1493,505.5944,a,1,[],[],[],[],[],[],[],0.7676,1,505.5945,506.0943,,,,,,1090,MAS,DIS,150,campo,la,l,0.7676,,506.0944,506.0946,-0.076851852,-0.383333333,0,0,0,,0,199,199,189,1,,,,
,,,,,,2677034fb7523317df795496,66a626ef09d4e21e1a8894ec,6737681cc2aefeb89e856efc,2024-11-15_16h26.34.561,Tarea de género gramatical,2024.2.2,Win32,59.88023952,,,,,,,,,,,,,,,,,,,,,,,506.0979,507.2609,l,1,[],[],[],[],[],[],[],0.4847,1,507.2612,507.761,,,,,,1105,FEM,DIS,150,reina,el,a,0.4847,,507.7666,507.7685,-0.076851852,-0.383333333,0,0,0,,0,200,200,204,1,,,,
,,,,,,2677034fb7523317df795496,66a626ef09d4e21e1a8894ec,6737681cc2aefeb89e856efc,2024-11-15_16h26.34.561,Tarea de género gramatical,2024.2.2,Win32,59.88023952,,,,,,,,,,,,,,,,,,,,,,,507.7701,509.0443,a,1,[],[],[],[],[],[],[],0.6009,1,509.0444,509.5445,,,,,,922,MAS,DIS,150,pelo,la,l,0.6009,,509.5446,509.5448,-0.076851852,-0.383333333,0,0,0,,0,201,201,21,1,,,,
,,,,,,2677034fb7523317df795496,66a626ef09d4e21e1a8894ec,6737681cc2aefeb89e856efc,2024-11-15_16h26.34.561,Tarea de género gramatical,2024.2.2,Win32,59.88023952,,,,,,,,,,,,,,,,,,,,,,,509.548,510.7111,l,1,[],[],[],[],[],[],[],0.4851,1,510.7112,511.211,,,,,,1010,FEM,AGR,150,rosa,la,a,0.4851,,511.2111,511.2113,-0.076851852,-0.383333333,0,0,0,,0,202,202,109,1,,,,
,,,,,,2677034fb7523317df795496,66a626ef09d4e21e1a8894ec,6737681cc2aefeb89e856efc,2024-11-15_16h26.34.561,Tarea de género gramatical,2024.2.2,Win32,59.88023952,,,,,,,,,,,,,,,,,,,,,,,511.2146,512.6108,a,1,[],[],[],[],[],[],[],0.7158,1,512.6111,513.1124,,,,,,1342,MAS,DIS,150,cuadro,la,l,0.7158,,513.1127,513.1132,-0.076851852,-0.383333333,0,0,0,,0,203,203,441,1,,,,
,,,,,,2677034fb7523317df795496,66a626ef09d4e21e1a8894ec,6737681cc2aefeb89e856efc,2024-11-15_16h26.34.561,Tarea de género gramatical,2024.2.2,Win32,59.88023952,,,,,,,,,,,,,,,,,,,,,,,513.1171,514.3941,a,1,[],[],[],[],[],[],[],0.6011,1,514.3943,514.8942,,,,,,1320,MAS,CON,150,helado,,l,0.6011,,514.8977,514.8998,-0.076851852,-0.383333333,0,0,0,,0,204,204,419,1,,,,
,,,,,,2677034fb7523317df795496,66a626ef09d4e21e1a8894ec,6737681cc2aefeb89e856efc,2024-11-15_16h26.34.561,Tarea de género gramatical,2024.2.2,Win32,59.88023952,,,,,,,,,,,,,,,,,,,,,,,514.901,516.1943,l,1,[],[],[],[],[],[],[],0.6179,1,516.1945,516.6942,,,,,,949,FEM,DIS,150,piel,el,a,0.6179,,516.6944,516.6946,-0.076851852,-0.383333333,0,0,0,,0,205,205,48,1,,,,
,,,,,,2677034fb7523317df795496,66a626ef09d4e21e1a8894ec,6737681cc2aefeb89e856efc,2024-11-15_16h26.34.561,Tarea de género gramatical,2024.2.2,Win32,59.88023952,,,,,,,,,,,,,,,,,,,,,,,516.6991,517.8939,a,1,[],[],[],[],[],[],[],0.5174,1,517.8941,518.394,,,,,,942,MAS,CON,150,show,,l,0.5174,,518.394,518.3942,-0.076851852,-0.383333333,0,0,0,,0,206,206,41,1,,,,
,,,,,,2677034fb7523317df795496,66a626ef09d4e21e1a8894ec,6737681cc2aefeb89e856efc,2024-11-15_16h26.34.561,Tarea de género gramatical,2024.2.2,Win32,59.88023952,,,,,,,,,,,,,,,,,,,,,,,518.3968,519.7275,l,1,[],[],[],[],[],[],[],0.6493,1,519.7277,520.2277,,,,,,1148,FEM,AGR,150,letra,la,a,0.6493,,520.2277,520.2278,-0.076851852,-0.383333333,0,0,0,,0,207,207,247,1,,,,
,,,,,,2677034fb7523317df795496,66a626ef09d4e21e1a8894ec,6737681cc2aefeb89e856efc,2024-11-15_16h26.34.561,Tarea de género gramatical,2024.2.2,Win32,59.88023952,,,,,,,,,,,,,,,,,,,,,,,520.2312,521.4273,a,1,[],[],[],[],[],[],[],0.5175,1,521.4274,521.9274,,,,,,1144,MAS,DIS,150,hielo,la,l,0.5175,,521.9276,521.9279,-0.076851852,-0.383333333,0,0,0,,0,208,208,243,1,,,,
,,,,,,2677034fb7523317df795496,66a626ef09d4e21e1a8894ec,6737681cc2aefeb89e856efc,2024-11-15_16h26.34.561,Tarea de género gramatical,2024.2.2,Win32,59.88023952,,,,,,,,,,,,,,,,,,,,,,,521.9318,523.0941,a,1,[],[],[],[],[],[],[],0.4838,1,523.0943,523.5941,,,,,,1092,MAS,CON,150,grupo,,l,0.4838,,523.5978,523.6001,-0.076851852,-0.383333333,0,0,0,,0,209,209,191,1,,,,
,,,,,,2677034fb7523317df795496,66a626ef09d4e21e1a8894ec,6737681cc2aefeb89e856efc,2024-11-15_16h26.34.561,Tarea de género gramatical,2024.2.2,Win32,59.88023952,,,,,,,,,,,,,,,,,,,,,,,523.6016,524.7624,l,1,[],[],[],[],[],[],[],0.4858,1,524.7626,525.2608,,,,,,1261,FEM,DIS,150,oferta,el,a,0.4858,,525.2608,525.261,-0.076851852,-0.383333333,0,0,0,,0,210,210,360,1,,,,
,,,,,,2677034fb7523317df795496,66a626ef09d4e21e1a8894ec,6737681cc2aefeb89e856efc,2024-11-15_16h26.34.561,Tarea de género gramatical,2024.2.2,Win32,59.88023952,,,,,,,,,,,,,,,,,,,,,,,525.2644,526.461,a,1,[],[],[],[],[],[],[],0.5194,1,526.4613,526.9608,,,,,,1151,MAS,AGR,150,dueño,el,l,0.5194,,526.961,526.9615,-0.076851852,-0.383333333,0,0,0,,0,211,211,250,1,,,,
,,,,,,2677034fb7523317df795496,66a626ef09d4e21e1a8894ec,6737681cc2aefeb89e856efc,2024-11-15_16h26.34.561,Tarea de género gramatical,2024.2.2,Win32,59.88023952,,,,,,,,,,,,,,,,,,,,,,,526.9662,528.261,l,1,[],[],[],[],[],[],[],0.6184,1,528.2611,528.7608,,,,,,1057,FEM,DIS,150,madre,el,a,0.6184,,528.7608,528.7612,-0.076851852,-0.383333333,0,0,0,,0,212,212,156,1,,,,
,,,,,,2677034fb7523317df795496,66a626ef09d4e21e1a8894ec,6737681cc2aefeb89e856efc,2024-11-15_16h26.34.561,Tarea de género gramatical,2024.2.2,Win32,59.88023952,,,,,,,,,,,,,,,,,,,,,,,528.7656,529.944,a,1,[],[],[],[],[],[],[],0.4992,1,529.9442,530.4441,,,,,,1140,MAS,CON,150,ruido,,l,0.4992,,530.4477,530.4499,-0.076851852,-0.383333333,0,0,0,,0,213,213,239,1,,,,
,,,,,,2677034fb7523317df795496,66a626ef09d4e21e1a8894ec,6737681cc2aefeb89e856efc,2024-11-15_16h26.34.561,Tarea de género gramatical,2024.2.2,Win32,59.88023952,,,,,,,,,,,,,,,,,,,,,,,530.4511,531.6274,l,1,[],[],[],[],[],[],[],0.5016,1,531.6277,532.1274,,,,,,950,FEM,AGR,150,dama,la,a,0.5016,,532.1275,532.1279,-0.076851852,-0.383333333,0,0,0,,0,214,214,49,1,,,,
,,,,,,2677034fb7523317df795496,66a626ef09d4e21e1a8894ec,6737681cc2aefeb89e856efc,2024-11-15_16h26.34.561,Tarea de género gramatical,2024.2.2,Win32,59.88023952,,,,,,,,,,,,,,,,,,,,,,,532.1317,533.2778,l,1,[],[],[],[],[],[],[],0.4679,1,533.278,533.7774,,,,,,1275,FEM,CON,150,cadena,,a,0.4679,,533.7775,533.7778,-0.076851852,-0.383333333,0,0,0,,0,215,215,374,1,,,,
,,,,,,2677034fb7523317df795496,66a626ef09d4e21e1a8894ec,6737681cc2aefeb89e856efc,2024-11-15_16h26.34.561,Tarea de género gramatical,2024.2.2,Win32,59.88023952,,,,,,,,,,,,,,,,,,,,,,,533.7811,535.0274,l,1,[],[],[],[],[],[],[],0.5673,1,535.0275,535.5274,,,,,,945,FEM,CON,150,isla,,a,0.5673,,535.5275,535.5279,-0.076851852,-0.383333333,0,0,0,,0,216,216,44,1,,,,
,,,,,,2677034fb7523317df795496,66a626ef09d4e21e1a8894ec,6737681cc2aefeb89e856efc,2024-11-15_16h26.34.561,Tarea de género gramatical,2024.2.2,Win32,59.88023952,,,,,,,,,,,,,,,,,,,,,,,535.5326,536.8774,l,1,[],[],[],[],[],[],[],0.6677,1,536.8775,537.3774,,,,,,1305,FEM,CON,150,parada,,a,0.6677,,537.3774,537.3777,-0.076851852,-0.383333333,0,0,0,,0,217,217,404,1,,,,
,,,,,,2677034fb7523317df795496,66a626ef09d4e21e1a8894ec,6737681cc2aefeb89e856efc,2024-11-15_16h26.34.561,Tarea de género gramatical,2024.2.2,Win32,59.88023952,,,,,,,,,,,,,,,,,,,,,,,537.3808,538.6103,a,1,[],[],[],[],[],[],[],0.5497,1,538.6103,539.1104,,,,,,918,MAS,CON,150,tren,,l,0.5497,,539.1132,539.1158,-0.076851852,-0.383333333,0,0,0,,0,218,218,17,1,,,,
,,,,,,2677034fb7523317df795496,66a626ef09d4e21e1a8894ec,6737681cc2aefeb89e856efc,2024-11-15_16h26.34.561,Tarea de género gramatical,2024.2.2,Win32,59.88023952,,,,,,,,,,,,,,,,,,,,,,,539.1165,540.5607,l,0,[],[],[],[],[],[],[],0.7699,0,540.5627,541.0608,,,,,,1260,MAS,CON,150,puente,,l,0.7699,,541.0608,541.0614,-0.076851852,-0.383333333,0,0,0,,0,219,219,359,1,,,,
,,,,,,2677034fb7523317df795496,66a626ef09d4e21e1a8894ec,6737681cc2aefeb89e856efc,2024-11-15_16h26.34.561,Tarea de género gramatical,2024.2.2,Win32,59.88023952,,,,,,,,,,,,,,,,,,,,,,,541.0664,542.4444,l,1,[],[],[],[],[],[],[],0.7014,1,542.4467,542.944,,,,,,1035,FEM,CON,150,raíz,,a,0.7014,,542.9441,542.9444,-0.076851852,-0.383333333,0,0,0,,0,220,220,134,1,,,,
,,,,,,2677034fb7523317df795496,66a626ef09d4e21e1a8894ec,6737681cc2aefeb89e856efc,2024-11-15_16h26.34.561,Tarea de género gramatical,2024.2.2,Win32,59.88023952,,,,,,,,,,,,,,,,,,,,,,,542.9477,544.094,l,1,[],[],[],[],[],[],[],0.4659,1,544.0942,544.5943,,,,,,1293,FEM,CON,150,alarma,,a,0.4659,,544.5943,544.5948,-0.076851852,-0.383333333,0,0,0,,0,221,221,392,1,,,,
,,,,,,2677034fb7523317df795496,66a626ef09d4e21e1a8894ec,6737681cc2aefeb89e856efc,2024-11-15_16h26.34.561,Tarea de género gramatical,2024.2.2,Win32,59.88023952,,,,,,,,,,,,,,,,,,,,,,,544.5994,545.8607,a,1,[],[],[],[],[],[],[],0.5813,1,545.8609,546.3606,,,,,,1018,MAS,DIS,150,baúl,la,l,0.5813,,546.3642,546.3663,-0.076851852,-0.383333333,0,0,0,,0,222,222,117,1,,,,
,,,,,,2677034fb7523317df795496,66a626ef09d4e21e1a8894ec,6737681cc2aefeb89e856efc,2024-11-15_16h26.34.561,Tarea de género gramatical,2024.2.2,Win32,59.88023952,,,,,,,,,,,,,,,,,,,,,,,546.3675,547.6938,a,1,[],[],[],[],[],[],[],0.6508,1,547.6941,548.194,,,,,,1290,MAS,CON,150,rostro,,l,0.6508,,548.1941,548.1944,-0.076851852,-0.383333333,0,0,0,,0,223,223,389,1,,,,
,,,,,,2677034fb7523317df795496,66a626ef09d4e21e1a8894ec,6737681cc2aefeb89e856efc,2024-11-15_16h26.34.561,Tarea de género gramatical,2024.2.2,Win32,59.88023952,,,,,,,,,,,,,,,,,,,,,,,548.1977,549.5938,a,1,[],[],[],[],[],[],[],0.7184,1,549.5939,550.094,,,,,,1085,MAS,AGR,150,sueño,el,l,0.7184,,550.094,550.0942,-0.076851852,-0.383333333,0,0,0,,0,224,224,184,1,,,,
,,,,,,2677034fb7523317df795496,66a626ef09d4e21e1a8894ec,6737681cc2aefeb89e856efc,2024-11-15_16h26.34.561,Tarea de género gramatical,2024.2.2,Win32,59.88023952,,,,,,,,,,,,,,,,,,,,,,,550.0985,551.3603,l,1,[],[],[],[],[],[],[],0.5844,1,551.3604,551.8602,,,,,,1268,FEM,AGR,150,gracia,la,a,0.5844,,551.8603,551.8605,-0.076851852,-0.383333333,0,0,0,,0,225,225,367,1,,,,
,,,,,,2677034fb7523317df795496,66a626ef09d4e21e1a8894ec,6737681cc2aefeb89e856efc,2024-11-15_16h26.34.561,Tarea de género gramatical,2024.2.2,Win32,59.88023952,,,,,,,,,,,,,,,,,,,,,,,551.8633,553.127,a,1,[],[],[],[],[],[],[],0.5831,1,553.1271,553.6269,,,,,,1114,MAS,DIS,150,fondo,la,l,0.5831,,553.627,553.6271,-0.076851852,-0.383333333,0,0,0,,0,226,226,213,1,,,,
,,,,,,2677034fb7523317df795496,66a626ef09d4e21e1a8894ec,6737681cc2aefeb89e856efc,2024-11-15_16h26.34.561,Tarea de género gramatical,2024.2.2,Win32,59.88023952,,,,,,,,,,,,,,,,,,,,,,,553.6306,554.8938,l,1,[],[],[],[],[],[],[],0.5847,1,554.894,555.3938,,,,,,1251,FEM,CON,150,espada,,a,0.5847,,555.3974,555.3994,-0.076851852,-0.383333333,0,0,0,,0,227,227,350,1,,,,
,,,,,,2677034fb7523317df795496,66a626ef09d4e21e1a8894ec,6737681cc2aefeb89e856efc,2024-11-15_16h26.34.561,Tarea de género gramatical,2024.2.2,Win32,59.88023952,,,,,,,,,,,,,,,,,,,,,,,555.4006,556.8604,l,1,[],[],[],[],[],[],[],0.7856,1,556.8606,557.3608,,,,,,1286,FEM,AGR,150,sombra,la,a,0.7856,,557.361,557.3614,-0.076851852,-0.383333333,0,0,0,,0,228,228,385,1,,,,
,,,,,,2677034fb7523317df795496,66a626ef09d4e21e1a8894ec,6737681cc2aefeb89e856efc,2024-11-15_16h26.34.561,Tarea de género gramatical,2024.2.2,Win32,59.88023952,,,,,,,,,,,,,,,,,,,,,,,557.3649,558.5605,l,1,[],[],[],[],[],[],[],0.5179,1,558.5607,559.0604,,,,,,1269,FEM,CON,150,camisa,,a,0.5179,,559.0606,559.0607,-0.076851852,-0.383333333,0,0,0,,0,229,229,368,1,,,,
,,,,,,2677034fb7523317df795496,66a626ef09d4e21e1a8894ec,6737681cc2aefeb89e856efc,2024-11-15_16h26.34.561,Tarea de género gramatical,2024.2.2,Win32,59.88023952,,,,,,,,,,,,,,,,,,,,,,,559.0641,560.4437,a,1,[],[],[],[],[],[],[],0.6983,1,560.4439,560.944,,,,,,1139,MAS,AGR,150,reloj,el,l,0.6983,,560.9441,560.9446,-0.076851852,-0.383333333,0,0,0,,0,230,230,238,1,,,,
,,,,,,2677034fb7523317df795496,66a626ef09d4e21e1a8894ec,6737681cc2aefeb89e856efc,2024-11-15_16h26.34.561,Tarea de género gramatical,2024.2.2,Win32,59.88023952,,,,,,,,,,,,,,,,,,,,,,,560.949,562.1102,l,1,[],[],[],[],[],[],[],0.4857,1,562.1103,562.6104,,,,,,961,FEM,DIS,150,ruta,el,a,0.4857,,562.6142,562.6161,-0.076851852,-0.383333333,0,0,0,,0,231,231,60,1,,,,
,,,,,,2677034fb7523317df795496,66a626ef09d4e21e1a8894ec,6737681cc2aefeb89e856efc,2024-11-15_16h26.34.561,Tarea de género gramatical,2024.2.2,Win32,59.88023952,,,,,,,,,,,,,,,,,,,,,,,562.6174,564.1769,a,1,[],[],[],[],[],[],[],0.8847,1,564.177,564.6771,,,,,,1319,MAS,AGR,150,cuento,el,l,0.8847,,564.6772,564.6775,-0.076851852,-0.383333333,0,0,0,,0,232,232,418,1,,,,
,,,,,,2677034fb7523317df795496,66a626ef09d4e21e1a8894ec,6737681cc2aefeb89e856efc,2024-11-15_16h26.34.561,Tarea de género gramatical,2024.2.2,Win32,59.88023952,,,,,,,,,,,,,,,,,,,,,,,564.6808,565.9938,l,1,[],[],[],[],[],[],[],0.6341,1,565.9939,566.4935,,,,,,1221,FEM,CON,150,comida,,a,0.6341,,566.4936,566.4937,-0.076851852,-0.383333333,0,0,0,,0,233,233,320,1,,,,
,,,,,,2677034fb7523317df795496,66a626ef09d4e21e1a8894ec,6737681cc2aefeb89e856efc,2024-11-15_16h26.34.561,Tarea de género gramatical,2024.2.2,Win32,59.88023952,,,,,,,,,,,,,,,,,,,,,,,566.4968,567.86,a,1,[],[],[],[],[],[],[],0.684,1,567.8602,568.3602,,,,,,978,MAS,CON,150,oído,,l,0.684,,568.3603,568.3605,-0.076851852,-0.383333333,0,0,0,,0,234,234,77,1,,,,
,,,,,,2677034fb7523317df795496,66a626ef09d4e21e1a8894ec,6737681cc2aefeb89e856efc,2024-11-15_16h26.34.561,Tarea de género gramatical,2024.2.2,Win32,59.88023952,,,,,,,,,,,,,,,,,,,,,,,568.3655,569.6604,l,1,[],[],[],[],[],[],[],0.6174,1,569.6605,570.1601,,,,,,992,FEM,AGR,150,masa,la,a,0.6174,,570.1602,570.1603,-0.076851852,-0.383333333,0,0,0,,0,235,235,91,1,,,,
,,,,,,2677034fb7523317df795496,66a626ef09d4e21e1a8894ec,6737681cc2aefeb89e856efc,2024-11-15_16h26.34.561,Tarea de género gramatical,2024.2.2,Win32,59.88023952,,,,,,,,,,,,,,,,,,,,,,,570.163,571.5773,l,1,[],[],[],[],[],[],[],0.7333,1,571.5778,572.0771,,,,,,1219,FEM,DIS,150,sangre,el,a,0.7333,,572.0817,572.0836,-0.076851852,-0.383333333,0,0,0,,0,236,236,318,1,,,,
,,,,,,2677034fb7523317df795496,66a626ef09d4e21e1a8894ec,6737681cc2aefeb89e856efc,2024-11-15_16h26.34.561,Tarea de género gramatical,2024.2.2,Win32,59.88023952,,,,,,,,,,,,,,,,,,,,,,,572.085,573.4104,l,1,[],[],[],[],[],[],[],0.6513,1,573.4106,573.9103,,,,,,1315,FEM,DIS,150,cabina,el,a,0.6513,,573.9104,573.9107,-0.076851852,-0.383333333,0,0,0,,0,237,237,414,1,,,,
,,,,,,2677034fb7523317df795496,66a626ef09d4e21e1a8894ec,6737681cc2aefeb89e856efc,2024-11-15_16h26.34.561,Tarea de género gramatical,2024.2.2,Win32,59.88023952,,,,,,,,,,,,,,,,,,,,,,,573.9142,575.1437,a,1,[],[],[],[],[],[],[],0.5514,1,575.1439,575.6437,,,,,,1168,MAS,DIS,150,truco,la,l,0.5514,,575.6438,575.644,-0.076851852,-0.383333333,0,0,0,,0,238,238,267,1,,,,
,,,,,,2677034fb7523317df795496,66a626ef09d4e21e1a8894ec,6737681cc2aefeb89e856efc,2024-11-15_16h26.34.561,Tarea de género gramatical,2024.2.2,Win32,59.88023952,,,,,,,,,,,,,,,,,,,,,,,575.6472,576.8766,l,1,[],[],[],[],[],[],[],0.5466,1,576.8766,577.3774,,,,,,1075,FEM,DIS,150,señal,el,a,0.5466,,577.3776,577.3781,-0.076851852,-0.383333333,0,0,0,,0,239,239,174,1,,,,
,,,,,,2677034fb7523317df795496,66a626ef09d4e21e1a8894ec,6737681cc2aefeb89e856efc,2024-11-15_16h26.34.561,Tarea de género gramatical,2024.2.2,Win32,59.88023952,,,,,,,,,,,,,,,,,,,,,,,577.3824,578.5432,l,1,[],[],[],[],[],[],[],0.4834,1,578.5432,579.0435,,,,,,1089,FEM,CON,150,pista,,a,0.4834,,579.0462,579.0493,-0.076851852,-0.383333333,0,0,0,,0,240,240,188,1,,,,
,,,,,,2677034fb7523317df795496,66a626ef09d4e21e1a8894ec,6737681cc2aefeb89e856efc,2024-11-15_16h26.34.561,Tarea de género gramatical,2024.2.2,Win32,59.88023952,,,,,,,,,,,,,,,,,,,,,,,579.0503,580.2766,a,1,[],[],[],[],[],[],[],0.5505,1,580.2767,580.7765,,,,,,1000,MAS,DIS,150,nido,la,l,0.5505,,580.7766,580.7767,-0.076851852,-0.383333333,0,0,0,,0,241,241,99,1,,,,
,,,,,,2677034fb7523317df795496,66a626ef09d4e21e1a8894ec,6737681cc2aefeb89e856efc,2024-11-15_16h26.34.561,Tarea de género gramatical,2024.2.2,Win32,59.88023952,,,,,,,,,,,,,,,,,,,,,,,580.7795,582.1099,l,1,[],[],[],[],[],[],[],0.6502,1,582.1101,582.6099,,,,,,1099,FEM,DIS,150,nariz,el,a,0.6502,,582.6099,582.61,-0.076851852,-0.383333333,0,0,0,,0,242,242,198,1,,,,
,,,,,,2677034fb7523317df795496,66a626ef09d4e21e1a8894ec,6737681cc2aefeb89e856efc,2024-11-15_16h26.34.561,Tarea de género gramatical,2024.2.2,Win32,59.88023952,,,,,,,,,,,,,,,,,,,,,,,582.6126,583.9766,l,1,[],[],[],[],[],[],[],0.683,1,583.9767,584.4775,,,,,,967,FEM,DIS,150,miel,el,a,0.683,,584.4778,584.4782,-0.076851852,-0.383333333,0,0,0,,0,243,243,66,1,,,,
,,,,,,2677034fb7523317df795496,66a626ef09d4e21e1a8894ec,6737681cc2aefeb89e856efc,2024-11-15_16h26.34.561,Tarea de género gramatical,2024.2.2,Win32,59.88023952,,,,,,,,,,,,,,,,,,,,,,,584.4828,585.7267,a,1,[],[],[],[],[],[],[],0.5672,1,585.7267,586.2266,,,,,,1230,MAS,CON,150,estado,,l,0.5672,,586.2267,586.2268,-0.076851852,-0.383333333,0,0,0,,0,244,244,329,1,,,,
,,,,,,2677034fb7523317df795496,66a626ef09d4e21e1a8894ec,6737681cc2aefeb89e856efc,2024-11-15_16h26.34.561,Tarea de género gramatical,2024.2.2,Win32,59.88023952,,,,,,,,,,,,,,,,,,,,,,,586.2303,587.41,l,1,[],[],[],[],[],[],[],0.5005,1,587.41,587.9098,,,,,,1088,FEM,AGR,150,bomba,la,a,0.5005,,587.9142,587.9161,-0.076851852,-0.383333333,0,0,0,,0,245,245,187,1,,,,
,,,,,,2677034fb7523317df795496,66a626ef09d4e21e1a8894ec,6737681cc2aefeb89e856efc,2024-11-15_16h26.34.561,Tarea de género gramatical,2024.2.2,Win32,59.88023952,,,,,,,,,,,,,,,,,,,,,,,587.9172,589.3433,a,1,[],[],[],[],[],[],[],0.7508,1,589.3434,589.843,,,,,,1084,MAS,DIS,150,cielo,la,l,0.7508,,589.8431,589.8433,-0.076851852,-0.383333333,0,0,0,,0,246,246,183,1,,,,
,,,,,,2677034fb7523317df795496,66a626ef09d4e21e1a8894ec,6737681cc2aefeb89e856efc,2024-11-15_16h26.34.561,Tarea de género gramatical,2024.2.2,Win32,59.88023952,,,,,,,,,,,,,,,,,,,,,,,589.8462,591.0266,l,1,[],[],[],[],[],[],[],0.5012,1,591.0266,591.5267,,,,,,1142,FEM,AGR,150,pizza,la,a,0.5012,,591.5268,591.5272,-0.076851852,-0.383333333,0,0,0,,0,247,247,241,1,,,,
,,,,,,2677034fb7523317df795496,66a626ef09d4e21e1a8894ec,6737681cc2aefeb89e856efc,2024-11-15_16h26.34.561,Tarea de género gramatical,2024.2.2,Win32,59.88023952,,,,,,,,,,,,,,,,,,,,,,,591.5301,592.7599,l,1,[],[],[],[],[],[],[],0.5513,1,592.7601,593.2598,,,,,,1178,FEM,AGR,150,presa,la,a,0.5513,,593.2599,593.2601,-0.076851852,-0.383333333,0,0,0,,0,248,248,277,1,,,,
,,,,,,2677034fb7523317df795496,66a626ef09d4e21e1a8894ec,6737681cc2aefeb89e856efc,2024-11-15_16h26.34.561,Tarea de género gramatical,2024.2.2,Win32,59.88023952,,,,,,,,,,,,,,,,,,,,,,,593.2629,594.4601,a,1,[],[],[],[],[],[],[],0.5179,1,594.4603,594.9601,,,,,,904,MAS,DIS,150,hijo,la,l,0.5179,,594.964,594.9661,-0.076851852,-0.383333333,0,0,0,,0,249,249,3,1,,,,
,,,,,,2677034fb7523317df795496,66a626ef09d4e21e1a8894ec,6737681cc2aefeb89e856efc,2024-11-15_16h26.34.561,Tarea de género gramatical,2024.2.2,Win32,59.88023952,,,,,,,,,,,,,,,,,,,,,,,594.9676,596.3101,l,1,[],[],[],[],[],[],[],0.6673,1,596.3103,596.8101,,,,,,1225,FEM,DIS,150,tierra,el,a,0.6673,,596.8103,596.8104,-0.076851852,-0.383333333,0,0,0,,0,250,250,324,1,,,,
