counterbalancing_condition,consent_prescreening.block_1/age_years,consent_prescreening.block_1/gender,consent_prescreening.block_1/language_disorder,consent_prescreening.block_1/first_language,consent_prescreening.block_1/declare_consent,PROLIFIC_PID,STUDY_ID,SESSION_ID,date,expName,psychopyVersion,OS,frameRate,check_prescreening_answers.started,check_prescreening_answers.stopped,Instructions.started,Instructions.stopped,instr_done_keyboard.keys,instr_done_touch.x,instr_done_touch.y,instr_done_touch.leftButton,instr_done_touch.midButton,instr_done_touch.rightButton,instr_done_touch.clicked_name,instruction_pages.thisRepN,instruction_pages.thisTrialN,instruction_pages.thisN,instruction_pages.thisIndex,instruction_pages.ran,pageN,phase,instruct_text,has_image,instruct_image,presentTrial.started,presentTrial.stopped,response.keys,response.corr,response.rt,response.duration,touch_resp.x,touch_resp.y,touch_resp.leftButton,touch_resp.midButton,touch_resp.rightButton,touch_resp.time,touch_resp.clicked_name,rt,corr,feedback.started,feedback.stopped,practice_trials.thisRepN,practice_trials.thisTrialN,practice_trials.thisN,practice_trials.thisIndex,practice_trials.ran,TrialID,StimulusType,Condition,PrimeDuration,Prime,Flanker,corrAns,instr_done_keyboard.rt,instr_done_keyboard.duration,Break.started,Break.stopped,break_done_touch.x,break_done_touch.y,break_done_touch.leftButton,break_done_touch.midButton,break_done_touch.rightButton,break_done_keyboard.keys,experiment_trials.thisRepN,experiment_trials.thisTrialN,experiment_trials.thisN,experiment_trials.thisIndex,experiment_trials.ran,break_done_keyboard.rt,break_done_keyboard.duration,End.started,End.stopped
1,34,M,"[""none""]","[""spanish""]","[""over_18"",""comfortable"",""read_info"",""consent_given""]",27698b0ec5dd2d26c92e43c3,66a626ef09d4e21e1a8894ec,6734a0317b6ac1fd3b96085c,2024-11-13_09h59.31.881,Tarea de género gramatical,2024.2.2,Win32,166.6666667,,,,,,,,,,,,,,,,,,,,,,,,,,,,,,,,,,,,,,,,,,,,,,,,,,,,,,,,,,,,,,,,,,,,,
,,,,,,27698b0ec5dd2d26c92e43c3,66a626ef09d4e21e1a8894ec,6734a0317b6ac1fd3b96085c,2024-11-13_09h59.31.881,Tarea de género gramatical,2024.2.2,Win32,166.6666667,23.4638,23.4639,,,,,,,,,,,,,,,,,,,,,,,,,,,,,,,,,,,,,,,,,,,,,,,,,,,,,,,,,,,,,,,,,,,
,,,,,,27698b0ec5dd2d26c92e43c3,66a626ef09d4e21e1a8894ec,6734a0317b6ac1fd3b96085c,2024-11-13_09h59.31.881,Tarea de género gramatical,2024.2.2,Win32,166.6666667,,,23.4879,24.2586,,-0.021527767,-0.379166656,1,0,0,instr_done_button,0,0,0,0,1,1,instructions,"INSTRUCCIONES
Va a realizar una prueba de selección gramatical. Desde el comienzo de la prueba mire siempre al centro de la pantalla. Al cabo de un momento, aparecerán palabras. La tarea consiste en determinar si la palabra del centro (siempre será un sustantivo), pertenece al género masculino o femenino.

Pulse la tecla ESPACIO o toque el botón de abajo para continuar.",0,keyboardresponseMF.png,,,,,,,,,,,,,,,,,,,,,,,,,,,,,,,,,,,,,,,,,,,,,,,,
,,,,,,27698b0ec5dd2d26c92e43c3,66a626ef09d4e21e1a8894ec,6734a0317b6ac1fd3b96085c,2024-11-13_09h59.31.881,Tarea de género gramatical,2024.2.2,Win32,166.6666667,,,24.2606,26.7957,,-0.008333312,-0.390277757,1,0,0,instr_done_button,0,1,1,1,1,2,instructions,"Si su dispositivo tiene teclado, pulse la tecla ""A"" para las palabras en masculino (por ejemplo: ""arroz"") y la tecla ""L"" para las palabras en femenino (por ejemplo: ""mano"").
Pulse la tecla ESPACIO o toque el botón de abajo para continuar.",1,keyboardresponseMF.png,,,,,,,,,,,,,,,,,,,,,,,,,,,,,,,,,,,,,,,,,,,,,,,,
,,,,,,27698b0ec5dd2d26c92e43c3,66a626ef09d4e21e1a8894ec,6734a0317b6ac1fd3b96085c,2024-11-13_09h59.31.881,Tarea de género gramatical,2024.2.2,Win32,166.6666667,,,26.7977,27.9656,,-0.009722233,-0.408333355,1,0,0,instr_done_button,0,2,2,2,1,3,instructions,"Si utiliza un dispositivo sólo táctil, colóquelo en horizontal y utilice los botones de la pantalla. No utilice el ratón.
Pulse la tecla ESPACIO o toque el botón de abajo para continuar.",2,touchresponseMF.png,,,,,,,,,,,,,,,,,,,,,,,,,,,,,,,,,,,,,,,,,,,,,,,,
,,,,,,27698b0ec5dd2d26c92e43c3,66a626ef09d4e21e1a8894ec,6734a0317b6ac1fd3b96085c,2024-11-13_09h59.31.881,Tarea de género gramatical,2024.2.2,Win32,166.6666667,,,27.9687,31.6746,,0.008333312,-0.405555619,1,0,0,instr_done_button,0,3,3,3,1,4,instructions,"Es muy importante que responda con la mayor rapidez y precisión posibles, ya que cada cadena de letras sólo estará en pantalla durante un instante. Si no responde en ese tiempo, aparecerá el mensaje ""Muy lento"" y el experimento pasará a la siguiente palabra. Los primeros 15 intentos serán de práctica y habrá dos descansos durante la prueba.
Pulse la tecla ESPACIO o toque el botón de abajo para iniciar la parte de práctica.",0,keyboardresponseMF.png,,,,,,,,,,,,,,,,,,,,,,,,,,,,,,,,,,,,,,,,,,,,,,,,
,,,,,,27698b0ec5dd2d26c92e43c3,66a626ef09d4e21e1a8894ec,6734a0317b6ac1fd3b96085c,2024-11-13_09h59.31.881,Tarea de género gramatical,2024.2.2,Win32,166.6666667,,,,,,,,,,,,,,,,,,,,,,31.6941,34.2169,l,0,1.8654,,[],[],[],[],[],[],[],1.8654,0,34.2172,34.7178,0,0,0,11,1,2012,MAS,DIS,150,clima,la,l,,,,,,,,,,,,,,,,,,,
,,,,,,27698b0ec5dd2d26c92e43c3,66a626ef09d4e21e1a8894ec,6734a0317b6ac1fd3b96085c,2024-11-13_09h59.31.881,Tarea de género gramatical,2024.2.2,Win32,166.6666667,,,,,,,,,,,,,,,,,,,,,,34.719,35.7971,l,0,0.4229,,[],[],[],[],[],[],[],0.4229,0,35.7972,36.2945,0,1,1,10,1,2011,MAS,CON,150,canal,,l,,,,,,,,,,,,,,,,,,,
,,,,,,27698b0ec5dd2d26c92e43c3,66a626ef09d4e21e1a8894ec,6734a0317b6ac1fd3b96085c,2024-11-13_09h59.31.881,Tarea de género gramatical,2024.2.2,Win32,166.6666667,,,,,,,,,,,,,,,,,,,,,,36.2961,37.4624,l,1,0.5102,,[],[],[],[],[],[],[],0.5102,1,37.4636,37.9608,0,2,2,3,1,2004,FEM,AGR,150,venta,la,a,,,,,,,,,,,,,,,,,,,
,,,,,,27698b0ec5dd2d26c92e43c3,66a626ef09d4e21e1a8894ec,6734a0317b6ac1fd3b96085c,2024-11-13_09h59.31.881,Tarea de género gramatical,2024.2.2,Win32,166.6666667,,,,,,,,,,,,,,,,,,,,,,37.9626,40.0989,a,1,1.4769,,[],[],[],[],[],[],[],1.4769,1,40.099,40.5959,0,3,3,13,1,2014,MAS,CON,150,siglo,,l,,,,,,,,,,,,,,,,,,,
,,,,,,27698b0ec5dd2d26c92e43c3,66a626ef09d4e21e1a8894ec,6734a0317b6ac1fd3b96085c,2024-11-13_09h59.31.881,Tarea de género gramatical,2024.2.2,Win32,166.6666667,,,,,,,,,,,,,,,,,,,,,,40.5969,41.7674,l,1,0.5151,,[],[],[],[],[],[],[],0.5151,1,41.7674,42.2697,0,4,4,7,1,2008,FEM,CON,150,siesta,,a,,,,,,,,,,,,,,,,,,,
,,,,,,27698b0ec5dd2d26c92e43c3,66a626ef09d4e21e1a8894ec,6734a0317b6ac1fd3b96085c,2024-11-13_09h59.31.881,Tarea de género gramatical,2024.2.2,Win32,166.6666667,,,,,,,,,,,,,,,,,,,,,,42.2706,43.5184,a,1,0.5884,,[],[],[],[],[],[],[],0.5884,1,43.5186,44.0201,0,5,5,9,1,2010,MAS,AGR,150,vecino,el,l,,,,,,,,,,,,,,,,,,,
,,,,,,27698b0ec5dd2d26c92e43c3,66a626ef09d4e21e1a8894ec,6734a0317b6ac1fd3b96085c,2024-11-13_09h59.31.881,Tarea de género gramatical,2024.2.2,Win32,166.6666667,,,,,,,,,,,,,,,,,,,,,,44.0212,45.1618,l,1,0.4846,,[],[],[],[],[],[],[],0.4846,1,45.1618,45.6632,0,6,6,6,1,2007,FEM,AGR,150,navaja,la,a,,,,,,,,,,,,,,,,,,,
,,,,,,27698b0ec5dd2d26c92e43c3,66a626ef09d4e21e1a8894ec,6734a0317b6ac1fd3b96085c,2024-11-13_09h59.31.881,Tarea de género gramatical,2024.2.2,Win32,166.6666667,,,,,,,,,,,,,,,,,,,,,,45.6644,46.6202,l,1,0.2935,,[],[],[],[],[],[],[],0.2935,1,46.6203,47.1173,0,7,7,4,1,2005,FEM,CON,150,placa,,a,,,,,,,,,,,,,,,,,,,
,,,,,,27698b0ec5dd2d26c92e43c3,66a626ef09d4e21e1a8894ec,6734a0317b6ac1fd3b96085c,2024-11-13_09h59.31.881,Tarea de género gramatical,2024.2.2,Win32,166.6666667,,,,,,,,,,,,,,,,,,,,,,47.1188,48.5656,l,0,0.7891,,[],[],[],[],[],[],[],0.7891,0,48.5665,49.0627,0,8,8,14,1,2015,MAS,DIS,150,robot,la,l,,,,,,,,,,,,,,,,,,,
,,,,,,27698b0ec5dd2d26c92e43c3,66a626ef09d4e21e1a8894ec,6734a0317b6ac1fd3b96085c,2024-11-13_09h59.31.881,Tarea de género gramatical,2024.2.2,Win32,166.6666667,,,,,,,,,,,,,,,,,,,,,,49.0641,50.4262,l,0,0.7045,,[],[],[],[],[],[],[],0.7045,0,50.4263,50.9232,0,9,9,8,1,2009,MAS,DIS,150,puerto,la,l,,,,,,,,,,,,,,,,,,,
,,,,,,27698b0ec5dd2d26c92e43c3,66a626ef09d4e21e1a8894ec,6734a0317b6ac1fd3b96085c,2024-11-13_09h59.31.881,Tarea de género gramatical,2024.2.2,Win32,166.6666667,,,,,,,,,,,,,,,,,,,,,,50.925,52.2514,l,1,0.6707,,[],[],[],[],[],[],[],0.6707,1,52.2522,52.7475,0,10,10,2,1,2003,FEM,DIS,150,daga,el,a,,,,,,,,,,,,,,,,,,,
,,,,,,27698b0ec5dd2d26c92e43c3,66a626ef09d4e21e1a8894ec,6734a0317b6ac1fd3b96085c,2024-11-13_09h59.31.881,Tarea de género gramatical,2024.2.2,Win32,166.6666667,,,,,,,,,,,,,,,,,,,,,,52.7484,53.8204,a,0,0.4129,,[],[],[],[],[],[],[],0.4129,0,53.8212,54.3172,0,11,11,5,1,2006,FEM,DIS,150,serie,el,a,,,,,,,,,,,,,,,,,,,
,,,,,,27698b0ec5dd2d26c92e43c3,66a626ef09d4e21e1a8894ec,6734a0317b6ac1fd3b96085c,2024-11-13_09h59.31.881,Tarea de género gramatical,2024.2.2,Win32,166.6666667,,,,,,,,,,,,,,,,,,,,,,54.3182,55.4876,a,1,0.5148,,[],[],[],[],[],[],[],0.5148,1,55.4882,55.9851,0,12,12,12,1,2013,MAS,AGR,150,acero,el,l,,,,,,,,,,,,,,,,,,,
,,,,,,27698b0ec5dd2d26c92e43c3,66a626ef09d4e21e1a8894ec,6734a0317b6ac1fd3b96085c,2024-11-13_09h59.31.881,Tarea de género gramatical,2024.2.2,Win32,166.6666667,,,,,,,,,,,,,,,,,,,,,,55.9862,57.1475,l,1,0.5026,,[],[],[],[],[],[],[],0.5026,1,57.1475,57.6459,0,13,13,0,1,2001,FEM,AGR,150,nuca,la,a,,,,,,,,,,,,,,,,,,,
,,,,,,27698b0ec5dd2d26c92e43c3,66a626ef09d4e21e1a8894ec,6734a0317b6ac1fd3b96085c,2024-11-13_09h59.31.881,Tarea de género gramatical,2024.2.2,Win32,166.6666667,,,,,,,,,,,,,,,,,,,,,,57.647,58.5787,l,1,0.2776,,[],[],[],[],[],[],[],0.2776,1,58.5788,59.0749,0,14,14,1,1,2002,FEM,CON,150,pala,,a,,,,,,,,,,,,,,,,,,,
,,,,,,27698b0ec5dd2d26c92e43c3,66a626ef09d4e21e1a8894ec,6734a0317b6ac1fd3b96085c,2024-11-13_09h59.31.881,Tarea de género gramatical,2024.2.2,Win32,166.6666667,,,61.0476,61.6516,space,-0.027083344,-0.251388921,0,0,0,,,,,,,,,,,,61.7243,62.7961,l,1,0.415,,[],[],[],[],[],[],[],0.415,1,62.7961,63.2931,,,,,,505,FEM,CON,150,taza,,a,0.5968,,63.2934,63.2969,-0.027083344,-0.251388921,0,0,0,,0,0,0,54,1,,,,
,,,,,,27698b0ec5dd2d26c92e43c3,66a626ef09d4e21e1a8894ec,6734a0317b6ac1fd3b96085c,2024-11-13_09h59.31.881,Tarea de género gramatical,2024.2.2,Win32,166.6666667,,,,,,,,,,,,,,,,,,,,,,63.2975,64.2182,a,1,0.2688,,[],[],[],[],[],[],[],0.2688,1,64.2182,64.7173,,,,,,658,MAS,CON,150,suelo,,l,,,64.7174,64.7176,-0.027083344,-0.251388921,0,0,0,,0,1,1,207,1,,,,
,,,,,,27698b0ec5dd2d26c92e43c3,66a626ef09d4e21e1a8894ec,6734a0317b6ac1fd3b96085c,2024-11-13_09h59.31.881,Tarea de género gramatical,2024.2.2,Win32,166.6666667,,,,,,,,,,,,,,,,,,,,,,64.7183,65.8699,l,1,0.4968,,[],[],[],[],[],[],[],0.4968,1,65.8699,66.3665,,,,,,843,FEM,AGR,150,alarma,la,a,,,66.3676,66.3682,-0.027083344,-0.251388921,0,0,0,,0,2,2,392,1,,,,
,,,,,,27698b0ec5dd2d26c92e43c3,66a626ef09d4e21e1a8894ec,6734a0317b6ac1fd3b96085c,2024-11-13_09h59.31.881,Tarea de género gramatical,2024.2.2,Win32,166.6666667,,,,,,,,,,,,,,,,,,,,,,66.3687,67.7176,a,0,0.6918,,[],[],[],[],[],[],[],0.6918,0,67.7184,68.2144,,,,,,800,FEM,DIS,150,imagen,el,a,,,68.2144,68.2146,-0.027083344,-0.251388921,0,0,0,,0,3,3,349,1,,,,
,,,,,,27698b0ec5dd2d26c92e43c3,66a626ef09d4e21e1a8894ec,6734a0317b6ac1fd3b96085c,2024-11-13_09h59.31.881,Tarea de género gramatical,2024.2.2,Win32,166.6666667,,,,,,,,,,,,,,,,,,,,,,68.2156,69.2508,l,0,0.3804,,[],[],[],[],[],[],[],0.3804,0,69.2509,69.7477,,,,,,628,MAS,CON,150,punto,,l,,,69.7478,69.7478,-0.027083344,-0.251388921,0,0,0,,0,4,4,177,1,,,,
,,,,,,27698b0ec5dd2d26c92e43c3,66a626ef09d4e21e1a8894ec,6734a0317b6ac1fd3b96085c,2024-11-13_09h59.31.881,Tarea de género gramatical,2024.2.2,Win32,166.6666667,,,,,,,,,,,,,,,,,,,,,,69.7488,70.8532,a,0,0.4485,,[],[],[],[],[],[],[],0.4485,0,70.8533,71.3538,,,,,,830,FEM,DIS,150,madera,el,a,,,71.354,71.354,-0.027083344,-0.251388921,0,0,0,,0,5,5,379,1,,,,
,,,,,,27698b0ec5dd2d26c92e43c3,66a626ef09d4e21e1a8894ec,6734a0317b6ac1fd3b96085c,2024-11-13_09h59.31.881,Tarea de género gramatical,2024.2.2,Win32,166.6666667,,,,,,,,,,,,,,,,,,,,,,71.3553,72.6702,a,1,0.6545,,[],[],[],[],[],[],[],0.6545,1,72.6709,73.172,,,,,,539,MAS,DIS,150,maíz,la,l,,,73.1733,73.1743,-0.027083344,-0.251388921,0,0,0,,0,6,6,88,1,,,,
,,,,,,27698b0ec5dd2d26c92e43c3,66a626ef09d4e21e1a8894ec,6734a0317b6ac1fd3b96085c,2024-11-13_09h59.31.881,Tarea de género gramatical,2024.2.2,Win32,166.6666667,,,,,,,,,,,,,,,,,,,,,,73.1756,74.482,a,1,0.6487,,[],[],[],[],[],[],[],0.6487,1,74.482,74.9806,,,,,,598,MAS,CON,150,surf,,l,,,74.9806,74.9807,-0.027083344,-0.251388921,0,0,0,,0,7,7,147,1,,,,
,,,,,,27698b0ec5dd2d26c92e43c3,66a626ef09d4e21e1a8894ec,6734a0317b6ac1fd3b96085c,2024-11-13_09h59.31.881,Tarea de género gramatical,2024.2.2,Win32,166.6666667,,,,,,,,,,,,,,,,,,,,,,74.9817,76.166,a,1,0.5287,,[],[],[],[],[],[],[],0.5287,1,76.1661,76.663,,,,,,762,MAS,AGR,150,equipo,el,l,,,76.663,76.6632,-0.027083344,-0.251388921,0,0,0,,0,8,8,311,1,,,,
,,,,,,27698b0ec5dd2d26c92e43c3,66a626ef09d4e21e1a8894ec,6734a0317b6ac1fd3b96085c,2024-11-13_09h59.31.881,Tarea de género gramatical,2024.2.2,Win32,166.6666667,,,,,,,,,,,,,,,,,,,,,,76.6641,77.7184,a,1,0.3938,,[],[],[],[],[],[],[],0.3938,1,77.7185,78.2154,,,,,,545,MAS,DIS,150,tomo,la,l,,,78.2155,78.2156,-0.027083344,-0.251388921,0,0,0,,0,9,9,94,1,,,,
,,,,,,27698b0ec5dd2d26c92e43c3,66a626ef09d4e21e1a8894ec,6734a0317b6ac1fd3b96085c,2024-11-13_09h59.31.881,Tarea de género gramatical,2024.2.2,Win32,166.6666667,,,,,,,,,,,,,,,,,,,,,,78.2167,79.3417,a,1,0.4652,,[],[],[],[],[],[],[],0.4652,1,79.3418,79.8387,,,,,,852,MAS,AGR,150,ladrón,el,l,,,79.8387,79.8388,-0.027083344,-0.251388921,0,0,0,,0,10,10,401,1,,,,
,,,,,,27698b0ec5dd2d26c92e43c3,66a626ef09d4e21e1a8894ec,6734a0317b6ac1fd3b96085c,2024-11-13_09h59.31.881,Tarea de género gramatical,2024.2.2,Win32,166.6666667,,,,,,,,,,,,,,,,,,,,,,79.8399,80.7903,a,1,0.2909,,[],[],[],[],[],[],[],0.2909,1,80.7904,81.2874,,,,,,706,MAS,CON,150,techo,,l,,,81.2888,81.2897,-0.027083344,-0.251388921,0,0,0,,0,11,11,255,1,,,,
,,,,,,27698b0ec5dd2d26c92e43c3,66a626ef09d4e21e1a8894ec,6734a0317b6ac1fd3b96085c,2024-11-13_09h59.31.881,Tarea de género gramatical,2024.2.2,Win32,166.6666667,,,,,,,,,,,,,,,,,,,,,,81.2906,82.4024,l,1,0.4582,,[],[],[],[],[],[],[],0.4582,1,82.4025,82.9006,,,,,,637,FEM,CON,150,lista,,a,,,82.9008,82.9008,-0.027083344,-0.251388921,0,0,0,,0,12,12,186,1,,,,
,,,,,,27698b0ec5dd2d26c92e43c3,66a626ef09d4e21e1a8894ec,6734a0317b6ac1fd3b96085c,2024-11-13_09h59.31.881,Tarea de género gramatical,2024.2.2,Win32,166.6666667,,,,,,,,,,,,,,,,,,,,,,82.9016,83.9479,a,0,0.3889,,[],[],[],[],[],[],[],0.3889,0,83.9486,84.445,,,,,,531,FEM,AGR,150,cima,la,a,,,84.445,84.4452,-0.027083344,-0.251388921,0,0,0,,0,13,13,80,1,,,,
,,,,,,27698b0ec5dd2d26c92e43c3,66a626ef09d4e21e1a8894ec,6734a0317b6ac1fd3b96085c,2024-11-13_09h59.31.881,Tarea de género gramatical,2024.2.2,Win32,166.6666667,,,,,,,,,,,,,,,,,,,,,,84.4459,85.4875,a,0,0.3839,,[],[],[],[],[],[],[],0.3839,0,85.4876,85.9844,,,,,,601,FEM,CON,150,noche,,a,,,85.9845,85.9846,-0.027083344,-0.251388921,0,0,0,,0,14,14,150,1,,,,
,,,,,,27698b0ec5dd2d26c92e43c3,66a626ef09d4e21e1a8894ec,6734a0317b6ac1fd3b96085c,2024-11-13_09h59.31.881,Tarea de género gramatical,2024.2.2,Win32,166.6666667,,,,,,,,,,,,,,,,,,,,,,85.9854,86.9783,l,1,0.3366,,[],[],[],[],[],[],[],0.3366,1,86.9791,87.4753,,,,,,607,FEM,CON,150,madre,,a,,,87.477,87.4779,-0.027083344,-0.251388921,0,0,0,,0,15,15,156,1,,,,
,,,,,,27698b0ec5dd2d26c92e43c3,66a626ef09d4e21e1a8894ec,6734a0317b6ac1fd3b96085c,2024-11-13_09h59.31.881,Tarea de género gramatical,2024.2.2,Win32,166.6666667,,,,,,,,,,,,,,,,,,,,,,87.4787,88.4753,l,1,0.3374,,[],[],[],[],[],[],[],0.3374,1,88.4754,88.9723,,,,,,501,FEM,AGR,150,bala,la,a,,,88.9723,88.9724,-0.027083344,-0.251388921,0,0,0,,0,16,16,50,1,,,,
,,,,,,27698b0ec5dd2d26c92e43c3,66a626ef09d4e21e1a8894ec,6734a0317b6ac1fd3b96085c,2024-11-13_09h59.31.881,Tarea de género gramatical,2024.2.2,Win32,166.6666667,,,,,,,,,,,,,,,,,,,,,,88.9733,90.0752,a,1,0.4383,,[],[],[],[],[],[],[],0.4383,1,90.0753,90.5722,,,,,,550,MAS,CON,150,nido,,l,,,90.5723,90.5724,-0.027083344,-0.251388921,0,0,0,,0,17,17,99,1,,,,
,,,,,,27698b0ec5dd2d26c92e43c3,66a626ef09d4e21e1a8894ec,6734a0317b6ac1fd3b96085c,2024-11-13_09h59.31.881,Tarea de género gramatical,2024.2.2,Win32,166.6666667,,,,,,,,,,,,,,,,,,,,,,90.5735,91.5922,l,1,0.3618,,[],[],[],[],[],[],[],0.3618,1,91.5922,92.0936,,,,,,633,FEM,AGR,150,llave,la,a,,,92.0937,92.0938,-0.027083344,-0.251388921,0,0,0,,0,18,18,182,1,,,,
,,,,,,27698b0ec5dd2d26c92e43c3,66a626ef09d4e21e1a8894ec,6734a0317b6ac1fd3b96085c,2024-11-13_09h59.31.881,Tarea de género gramatical,2024.2.2,Win32,166.6666667,,,,,,,,,,,,,,,,,,,,,,92.0949,93.221,a,0,0.4676,,[],[],[],[],[],[],[],0.4676,0,93.2219,93.7178,,,,,,602,FEM,DIS,150,gente,el,a,,,93.7179,93.7179,-0.027083344,-0.251388921,0,0,0,,0,19,19,151,1,,,,
,,,,,,27698b0ec5dd2d26c92e43c3,66a626ef09d4e21e1a8894ec,6734a0317b6ac1fd3b96085c,2024-11-13_09h59.31.881,Tarea de género gramatical,2024.2.2,Win32,166.6666667,,,,,,,,,,,,,,,,,,,,,,93.7192,95.0342,l,1,0.6574,,[],[],[],[],[],[],[],0.6574,1,95.0351,95.5306,,,,,,704,FEM,DIS,150,caída,el,a,,,95.5317,95.5323,-0.027083344,-0.251388921,0,0,0,,0,20,20,253,1,,,,
,,,,,,27698b0ec5dd2d26c92e43c3,66a626ef09d4e21e1a8894ec,6734a0317b6ac1fd3b96085c,2024-11-13_09h59.31.881,Tarea de género gramatical,2024.2.2,Win32,166.6666667,,,,,,,,,,,,,,,,,,,,,,95.5328,96.7186,a,1,0.5314,,[],[],[],[],[],[],[],0.5314,1,96.7187,97.215,,,,,,892,MAS,CON,150,cuadro,,l,,,97.2151,97.2152,-0.027083344,-0.251388921,0,0,0,,0,21,21,441,1,,,,
,,,,,,27698b0ec5dd2d26c92e43c3,66a626ef09d4e21e1a8894ec,6734a0317b6ac1fd3b96085c,2024-11-13_09h59.31.881,Tarea de género gramatical,2024.2.2,Win32,166.6666667,,,,,,,,,,,,,,,,,,,,,,97.2159,98.2208,a,1,0.3463,,[],[],[],[],[],[],[],0.3463,1,98.2209,98.7185,,,,,,508,MAS,CON,150,mono,,l,,,98.7186,98.7187,-0.027083344,-0.251388921,0,0,0,,0,22,22,57,1,,,,
,,,,,,27698b0ec5dd2d26c92e43c3,66a626ef09d4e21e1a8894ec,6734a0317b6ac1fd3b96085c,2024-11-13_09h59.31.881,Tarea de género gramatical,2024.2.2,Win32,166.6666667,,,,,,,,,,,,,,,,,,,,,,98.7198,99.742,a,1,0.3558,,[],[],[],[],[],[],[],0.3558,1,99.7421,100.2391,,,,,,798,MAS,AGR,150,anillo,el,l,,,100.2391,100.2393,-0.027083344,-0.251388921,0,0,0,,0,23,23,347,1,,,,
,,,,,,27698b0ec5dd2d26c92e43c3,66a626ef09d4e21e1a8894ec,6734a0317b6ac1fd3b96085c,2024-11-13_09h59.31.881,Tarea de género gramatical,2024.2.2,Win32,166.6666667,,,,,,,,,,,,,,,,,,,,,,100.2401,101.2452,l,0,0.3489,,[],[],[],[],[],[],[],0.3489,0,101.246,101.7421,,,,,,466,MAS,CON,150,baño,,l,,,101.7435,101.7444,-0.027083344,-0.251388921,0,0,0,,0,24,24,15,1,,,,
,,,,,,27698b0ec5dd2d26c92e43c3,66a626ef09d4e21e1a8894ec,6734a0317b6ac1fd3b96085c,2024-11-13_09h59.31.881,Tarea de género gramatical,2024.2.2,Win32,166.6666667,,,,,,,,,,,,,,,,,,,,,,101.745,103.0393,a,1,0.6364,,[],[],[],[],[],[],[],0.6364,1,103.0401,103.5361,,,,,,802,MAS,CON,150,estilo,,l,,,103.5362,103.5363,-0.027083344,-0.251388921,0,0,0,,0,25,25,351,1,,,,
,,,,,,27698b0ec5dd2d26c92e43c3,66a626ef09d4e21e1a8894ec,6734a0317b6ac1fd3b96085c,2024-11-13_09h59.31.881,Tarea de género gramatical,2024.2.2,Win32,166.6666667,,,,,,,,,,,,,,,,,,,,,,103.5371,104.8575,a,0,0.665,,[],[],[],[],[],[],[],0.665,0,104.8587,105.3544,,,,,,524,FEM,DIS,150,flor,el,a,,,105.3545,105.3545,-0.027083344,-0.251388921,0,0,0,,0,26,26,73,1,,,,
,,,,,,27698b0ec5dd2d26c92e43c3,66a626ef09d4e21e1a8894ec,6734a0317b6ac1fd3b96085c,2024-11-13_09h59.31.881,Tarea de género gramatical,2024.2.2,Win32,166.6666667,,,,,,,,,,,,,,,,,,,,,,105.3554,106.5557,l,1,0.544,,[],[],[],[],[],[],[],0.544,1,106.5564,107.0513,,,,,,853,FEM,CON,150,paliza,,a,,,107.0515,107.0515,-0.027083344,-0.251388921,0,0,0,,0,27,27,402,1,,,,
,,,,,,27698b0ec5dd2d26c92e43c3,66a626ef09d4e21e1a8894ec,6734a0317b6ac1fd3b96085c,2024-11-13_09h59.31.881,Tarea de género gramatical,2024.2.2,Win32,166.6666667,,,,,,,,,,,,,,,,,,,,,,107.0524,107.9968,l,1,0.2864,,[],[],[],[],[],[],[],0.2864,1,107.9968,108.4937,,,,,,529,FEM,CON,150,mina,,a,,,108.4938,108.4939,-0.027083344,-0.251388921,0,0,0,,0,28,28,78,1,,,,
,,,,,,27698b0ec5dd2d26c92e43c3,66a626ef09d4e21e1a8894ec,6734a0317b6ac1fd3b96085c,2024-11-13_09h59.31.881,Tarea de género gramatical,2024.2.2,Win32,166.6666667,,,,,,,,,,,,,,,,,,,,,,108.4948,109.5066,a,1,0.3508,,[],[],[],[],[],[],[],0.3508,1,109.5067,110.0029,,,,,,587,MAS,DIS,150,coco,la,l,,,110.0044,110.0053,-0.027083344,-0.251388921,0,0,0,,0,29,29,136,1,,,,
,,,,,,27698b0ec5dd2d26c92e43c3,66a626ef09d4e21e1a8894ec,6734a0317b6ac1fd3b96085c,2024-11-13_09h59.31.881,Tarea de género gramatical,2024.2.2,Win32,166.6666667,,,,,,,,,,,,,,,,,,,,,,110.0059,111.1193,a,1,0.46,,[],[],[],[],[],[],[],0.46,1,111.1194,111.6152,,,,,,610,MAS,CON,150,señor,,l,,,111.6152,111.6154,-0.027083344,-0.251388921,0,0,0,,0,30,30,159,1,,,,
,,,,,,27698b0ec5dd2d26c92e43c3,66a626ef09d4e21e1a8894ec,6734a0317b6ac1fd3b96085c,2024-11-13_09h59.31.881,Tarea de género gramatical,2024.2.2,Win32,166.6666667,,,,,,,,,,,,,,,,,,,,,,111.6164,112.6817,a,0,0.4047,,[],[],[],[],[],[],[],0.4047,0,112.6824,113.1797,,,,,,686,FEM,DIS,150,deuda,el,a,,,113.1797,113.1798,-0.027083344,-0.251388921,0,0,0,,0,31,31,235,1,,,,
,,,,,,27698b0ec5dd2d26c92e43c3,66a626ef09d4e21e1a8894ec,6734a0317b6ac1fd3b96085c,2024-11-13_09h59.31.881,Tarea de género gramatical,2024.2.2,Win32,166.6666667,,,,,,,,,,,,,,,,,,,,,,113.1811,114.1918,l,1,0.3563,,[],[],[],[],[],[],[],0.3563,1,114.1923,114.6877,,,,,,865,FEM,CON,150,cabina,,a,,,114.6877,114.6878,-0.027083344,-0.251388921,0,0,0,,0,32,32,414,1,,,,
,,,,,,27698b0ec5dd2d26c92e43c3,66a626ef09d4e21e1a8894ec,6734a0317b6ac1fd3b96085c,2024-11-13_09h59.31.881,Tarea de género gramatical,2024.2.2,Win32,166.6666667,,,,,,,,,,,,,,,,,,,,,,114.6885,115.6698,a,1,0.3216,,[],[],[],[],[],[],[],0.3216,1,115.6699,116.1674,,,,,,654,MAS,AGR,150,papel,el,l,,,116.1686,116.1691,-0.027083344,-0.251388921,0,0,0,,0,33,33,203,1,,,,
,,,,,,27698b0ec5dd2d26c92e43c3,66a626ef09d4e21e1a8894ec,6734a0317b6ac1fd3b96085c,2024-11-13_09h59.31.881,Tarea de género gramatical,2024.2.2,Win32,166.6666667,,,,,,,,,,,,,,,,,,,,,,116.1697,117.1969,a,1,0.3708,,[],[],[],[],[],[],[],0.3708,1,117.197,117.6947,,,,,,688,MAS,CON,150,norte,,l,,,117.6947,117.6948,-0.027083344,-0.251388921,0,0,0,,0,34,34,237,1,,,,
,,,,,,27698b0ec5dd2d26c92e43c3,66a626ef09d4e21e1a8894ec,6734a0317b6ac1fd3b96085c,2024-11-13_09h59.31.881,Tarea de género gramatical,2024.2.2,Win32,166.6666667,,,,,,,,,,,,,,,,,,,,,,117.6963,118.6524,a,0,0.2973,,[],[],[],[],[],[],[],0.2973,0,118.6531,119.1485,,,,,,459,FEM,AGR,150,mamá,la,a,,,119.1485,119.1486,-0.027083344,-0.251388921,0,0,0,,0,35,35,8,1,,,,
,,,,,,27698b0ec5dd2d26c92e43c3,66a626ef09d4e21e1a8894ec,6734a0317b6ac1fd3b96085c,2024-11-13_09h59.31.881,Tarea de género gramatical,2024.2.2,Win32,166.6666667,,,,,,,,,,,,,,,,,,,,,,119.1496,120.216,a,1,0.4113,,[],[],[],[],[],[],[],0.4113,1,120.2168,120.7142,,,,,,546,MAS,AGR,150,pato,el,l,,,120.7143,120.7144,-0.027083344,-0.251388921,0,0,0,,0,36,36,95,1,,,,
,,,,,,27698b0ec5dd2d26c92e43c3,66a626ef09d4e21e1a8894ec,6734a0317b6ac1fd3b96085c,2024-11-13_09h59.31.881,Tarea de género gramatical,2024.2.2,Win32,166.6666667,,,,,,,,,,,,,,,,,,,,,,120.7153,121.7493,a,1,0.3797,,[],[],[],[],[],[],[],0.3797,1,121.7494,122.2453,,,,,,461,MAS,DIS,150,país,la,l,,,122.2455,122.2455,-0.027083344,-0.251388921,0,0,0,,0,37,37,10,1,,,,
,,,,,,27698b0ec5dd2d26c92e43c3,66a626ef09d4e21e1a8894ec,6734a0317b6ac1fd3b96085c,2024-11-13_09h59.31.881,Tarea de género gramatical,2024.2.2,Win32,166.6666667,,,,,,,,,,,,,,,,,,,,,,122.2462,123.294,l,1,0.3891,,[],[],[],[],[],[],[],0.3891,1,123.2941,123.7909,,,,,,889,FEM,CON,150,toalla,,a,,,123.7923,123.7931,-0.027083344,-0.251388921,0,0,0,,0,38,38,438,1,,,,
,,,,,,27698b0ec5dd2d26c92e43c3,66a626ef09d4e21e1a8894ec,6734a0317b6ac1fd3b96085c,2024-11-13_09h59.31.881,Tarea de género gramatical,2024.2.2,Win32,166.6666667,,,,,,,,,,,,,,,,,,,,,,123.7938,124.843,a,1,0.3909,,[],[],[],[],[],[],[],0.3909,1,124.843,125.3426,,,,,,648,MAS,AGR,150,hotel,el,l,,,125.3427,125.3427,-0.027083344,-0.251388921,0,0,0,,0,39,39,197,1,,,,
,,,,,,27698b0ec5dd2d26c92e43c3,66a626ef09d4e21e1a8894ec,6734a0317b6ac1fd3b96085c,2024-11-13_09h59.31.881,Tarea de género gramatical,2024.2.2,Win32,166.6666667,,,,,,,,,,,,,,,,,,,,,,125.3435,126.3433,l,1,0.3445,,[],[],[],[],[],[],[],0.3445,1,126.3433,126.8395,,,,,,482,FEM,DIS,150,caja,el,a,,,126.8395,126.8396,-0.027083344,-0.251388921,0,0,0,,0,40,40,31,1,,,,
,,,,,,27698b0ec5dd2d26c92e43c3,66a626ef09d4e21e1a8894ec,6734a0317b6ac1fd3b96085c,2024-11-13_09h59.31.881,Tarea de género gramatical,2024.2.2,Win32,166.6666667,,,,,,,,,,,,,,,,,,,,,,126.8405,127.8952,l,1,0.4027,,[],[],[],[],[],[],[],0.4027,1,127.8953,128.3917,,,,,,535,FEM,CON,150,gira,,a,,,128.3918,128.3919,-0.027083344,-0.251388921,0,0,0,,0,41,41,84,1,,,,
,,,,,,27698b0ec5dd2d26c92e43c3,66a626ef09d4e21e1a8894ec,6734a0317b6ac1fd3b96085c,2024-11-13_09h59.31.881,Tarea de género gramatical,2024.2.2,Win32,166.6666667,,,,,,,,,,,,,,,,,,,,,,128.3928,129.4953,l,1,0.4476,,[],[],[],[],[],[],[],0.4476,1,129.4954,129.9917,,,,,,691,FEM,CON,150,pasta,,a,,,129.9926,129.9935,-0.027083344,-0.251388921,0,0,0,,0,42,42,240,1,,,,
,,,,,,27698b0ec5dd2d26c92e43c3,66a626ef09d4e21e1a8894ec,6734a0317b6ac1fd3b96085c,2024-11-13_09h59.31.881,Tarea de género gramatical,2024.2.2,Win32,166.6666667,,,,,,,,,,,,,,,,,,,,,,129.9942,131.1012,l,1,0.4533,,[],[],[],[],[],[],[],0.4533,1,131.1013,131.597,,,,,,591,FEM,AGR,150,cera,la,a,,,131.597,131.5972,-0.027083344,-0.251388921,0,0,0,,0,43,43,140,1,,,,
,,,,,,27698b0ec5dd2d26c92e43c3,66a626ef09d4e21e1a8894ec,6734a0317b6ac1fd3b96085c,2024-11-13_09h59.31.881,Tarea de género gramatical,2024.2.2,Win32,166.6666667,,,,,,,,,,,,,,,,,,,,,,131.598,132.5546,a,1,0.3004,,[],[],[],[],[],[],[],0.3004,1,132.5547,133.0525,,,,,,592,MAS,CON,150,lodo,,l,,,133.0526,133.0527,-0.027083344,-0.251388921,0,0,0,,0,44,44,141,1,,,,
,,,,,,27698b0ec5dd2d26c92e43c3,66a626ef09d4e21e1a8894ec,6734a0317b6ac1fd3b96085c,2024-11-13_09h59.31.881,Tarea de género gramatical,2024.2.2,Win32,166.6666667,,,,,,,,,,,,,,,,,,,,,,133.0537,134.1183,a,1,0.4065,,[],[],[],[],[],[],[],0.4065,1,134.1184,134.6153,,,,,,718,MAS,CON,150,truco,,l,,,134.6153,134.6153,-0.027083344,-0.251388921,0,0,0,,0,45,45,267,1,,,,
,,,,,,27698b0ec5dd2d26c92e43c3,66a626ef09d4e21e1a8894ec,6734a0317b6ac1fd3b96085c,2024-11-13_09h59.31.881,Tarea de género gramatical,2024.2.2,Win32,166.6666667,,,,,,,,,,,,,,,,,,,,,,134.6161,135.5495,l,1,0.2777,,[],[],[],[],[],[],[],0.2777,1,135.5496,136.0458,,,,,,739,FEM,CON,150,tabla,,a,,,136.0459,136.0459,-0.027083344,-0.251388921,0,0,0,,0,46,46,288,1,,,,
,,,,,,27698b0ec5dd2d26c92e43c3,66a626ef09d4e21e1a8894ec,6734a0317b6ac1fd3b96085c,2024-11-13_09h59.31.881,Tarea de género gramatical,2024.2.2,Win32,166.6666667,,,,,,,,,,,,,,,,,,,,,,136.0468,137.0153,a,1,0.3084,,[],[],[],[],[],[],[],0.3084,1,137.0154,137.5123,,,,,,497,MAS,DIS,150,olor,la,l,,,137.5136,137.5147,-0.027083344,-0.251388921,0,0,0,,0,47,47,46,1,,,,
,,,,,,27698b0ec5dd2d26c92e43c3,66a626ef09d4e21e1a8894ec,6734a0317b6ac1fd3b96085c,2024-11-13_09h59.31.881,Tarea de género gramatical,2024.2.2,Win32,166.6666667,,,,,,,,,,,,,,,,,,,,,,137.5154,138.58,a,1,0.4111,,[],[],[],[],[],[],[],0.4111,1,138.5801,139.076,,,,,,810,MAS,AGR,150,puente,el,l,,,139.0761,139.0763,-0.027083344,-0.251388921,0,0,0,,0,48,48,359,1,,,,
,,,,,,27698b0ec5dd2d26c92e43c3,66a626ef09d4e21e1a8894ec,6734a0317b6ac1fd3b96085c,2024-11-13_09h59.31.881,Tarea de género gramatical,2024.2.2,Win32,166.6666667,,,,,,,,,,,,,,,,,,,,,,139.0774,140.1567,a,0,0.4239,,[],[],[],[],[],[],[],0.4239,0,140.1575,140.6577,,,,,,813,FEM,AGR,150,unidad,la,a,,,140.6578,140.6578,-0.027083344,-0.251388921,0,0,0,,0,49,49,362,1,,,,
,,,,,,27698b0ec5dd2d26c92e43c3,66a626ef09d4e21e1a8894ec,6734a0317b6ac1fd3b96085c,2024-11-13_09h59.31.881,Tarea de género gramatical,2024.2.2,Win32,166.6666667,,,,,,,,,,,,,,,,,,,,,,140.6585,141.5791,a,1,0.2625,,[],[],[],[],[],[],[],0.2625,1,141.5801,142.0767,,,,,,808,MAS,CON,150,motivo,,l,,,142.0767,142.0768,-0.027083344,-0.251388921,0,0,0,,0,50,50,357,1,,,,
,,,,,,27698b0ec5dd2d26c92e43c3,66a626ef09d4e21e1a8894ec,6734a0317b6ac1fd3b96085c,2024-11-13_09h59.31.881,Tarea de género gramatical,2024.2.2,Win32,166.6666667,,,,,,,,,,,,,,,,,,,,,,142.0777,143.1004,l,1,0.3654,,[],[],[],[],[],[],[],0.3654,1,143.1005,143.5974,,,,,,578,FEM,DIS,150,leña,el,a,,,143.5987,143.5997,-0.027083344,-0.251388921,0,0,0,,0,51,51,127,1,,,,
,,,,,,27698b0ec5dd2d26c92e43c3,66a626ef09d4e21e1a8894ec,6734a0317b6ac1fd3b96085c,2024-11-13_09h59.31.881,Tarea de género gramatical,2024.2.2,Win32,166.6666667,,,,,,,,,,,,,,,,,,,,,,143.6006,144.6033,l,1,0.3428,,[],[],[],[],[],[],[],0.3428,1,144.6035,145.1004,,,,,,723,FEM,AGR,150,tarta,la,a,,,145.1005,145.1005,-0.027083344,-0.251388921,0,0,0,,0,52,52,272,1,,,,
,,,,,,27698b0ec5dd2d26c92e43c3,66a626ef09d4e21e1a8894ec,6734a0317b6ac1fd3b96085c,2024-11-13_09h59.31.881,Tarea de género gramatical,2024.2.2,Win32,166.6666667,,,,,,,,,,,,,,,,,,,,,,145.1015,145.9731,l,1,0.2082,,[],[],[],[],[],[],[],0.2082,1,145.9732,146.4706,,,,,,518,FEM,DIS,150,pata,el,a,,,146.4706,146.4708,-0.027083344,-0.251388921,0,0,0,,0,53,53,67,1,,,,
,,,,,,27698b0ec5dd2d26c92e43c3,66a626ef09d4e21e1a8894ec,6734a0317b6ac1fd3b96085c,2024-11-13_09h59.31.881,Tarea de género gramatical,2024.2.2,Win32,166.6666667,,,,,,,,,,,,,,,,,,,,,,146.4716,147.4761,l,1,0.3466,,[],[],[],[],[],[],[],0.3466,1,147.4762,147.9733,,,,,,896,FEM,DIS,150,bañera,el,a,,,147.9733,147.9734,-0.027083344,-0.251388921,0,0,0,,0,54,54,445,1,,,,
,,,,,,27698b0ec5dd2d26c92e43c3,66a626ef09d4e21e1a8894ec,6734a0317b6ac1fd3b96085c,2024-11-13_09h59.31.881,Tarea de género gramatical,2024.2.2,Win32,166.6666667,,,,,,,,,,,,,,,,,,,,,,147.9744,148.9255,l,1,0.2956,,[],[],[],[],[],[],[],0.2956,1,148.9255,149.4222,,,,,,871,FEM,CON,150,novela,,a,,,149.4223,149.4223,-0.027083344,-0.251388921,0,0,0,,0,55,55,420,1,,,,
,,,,,,27698b0ec5dd2d26c92e43c3,66a626ef09d4e21e1a8894ec,6734a0317b6ac1fd3b96085c,2024-11-13_09h59.31.881,Tarea de género gramatical,2024.2.2,Win32,166.6666667,,,,,,,,,,,,,,,,,,,,,,149.423,150.4521,a,1,0.367,,[],[],[],[],[],[],[],0.367,1,150.4521,150.9496,,,,,,606,MAS,AGR,150,amigo,el,l,,,150.9505,150.9513,-0.027083344,-0.251388921,0,0,0,,0,56,56,155,1,,,,
,,,,,,27698b0ec5dd2d26c92e43c3,66a626ef09d4e21e1a8894ec,6734a0317b6ac1fd3b96085c,2024-11-13_09h59.31.881,Tarea de género gramatical,2024.2.2,Win32,166.6666667,,,,,,,,,,,,,,,,,,,,,,150.9521,151.9306,a,1,0.3241,,[],[],[],[],[],[],[],0.3241,1,151.9308,152.4288,,,,,,724,MAS,CON,150,motor,,l,,,152.4288,152.4289,-0.027083344,-0.251388921,0,0,0,,0,57,57,273,1,,,,
,,,,,,27698b0ec5dd2d26c92e43c3,66a626ef09d4e21e1a8894ec,6734a0317b6ac1fd3b96085c,2024-11-13_09h59.31.881,Tarea de género gramatical,2024.2.2,Win32,166.6666667,,,,,,,,,,,,,,,,,,,,,,152.4296,153.5186,a,0,0.4313,,[],[],[],[],[],[],[],0.4313,0,153.5194,154.0168,,,,,,536,FEM,DIS,150,cruz,el,a,,,154.0169,154.017,-0.027083344,-0.251388921,0,0,0,,0,58,58,85,1,,,,
,,,,,,27698b0ec5dd2d26c92e43c3,66a626ef09d4e21e1a8894ec,6734a0317b6ac1fd3b96085c,2024-11-13_09h59.31.881,Tarea de género gramatical,2024.2.2,Win32,166.6666667,,,,,,,,,,,,,,,,,,,,,,154.0179,155.1186,l,1,0.437,,[],[],[],[],[],[],[],0.437,1,155.1193,155.6156,,,,,,471,FEM,AGR,150,boca,la,a,,,155.6156,155.6157,-0.027083344,-0.251388921,0,0,0,,0,59,59,20,1,,,,
,,,,,,27698b0ec5dd2d26c92e43c3,66a626ef09d4e21e1a8894ec,6734a0317b6ac1fd3b96085c,2024-11-13_09h59.31.881,Tarea de género gramatical,2024.2.2,Win32,166.6666667,,,,,,,,,,,,,,,,,,,,,,155.6166,156.5913,l,1,0.3137,,[],[],[],[],[],[],[],0.3137,1,156.5915,157.0897,,,,,,883,FEM,CON,150,huella,,a,,,157.091,157.0919,-0.027083344,-0.251388921,0,0,0,,0,60,60,432,1,,,,
,,,,,,27698b0ec5dd2d26c92e43c3,66a626ef09d4e21e1a8894ec,6734a0317b6ac1fd3b96085c,2024-11-13_09h59.31.881,Tarea de género gramatical,2024.2.2,Win32,166.6666667,,,,,,,,,,,,,,,,,,,,,,157.0926,158.0702,l,1,0.321,,[],[],[],[],[],[],[],0.321,1,158.0704,158.5677,,,,,,675,FEM,AGR,150,pieza,la,a,,,158.5678,158.5678,-0.027083344,-0.251388921,0,0,0,,0,61,61,224,1,,,,
,,,,,,27698b0ec5dd2d26c92e43c3,66a626ef09d4e21e1a8894ec,6734a0317b6ac1fd3b96085c,2024-11-13_09h59.31.881,Tarea de género gramatical,2024.2.2,Win32,166.6666667,,,,,,,,,,,,,,,,,,,,,,158.5686,159.5976,l,1,0.3696,,[],[],[],[],[],[],[],0.3696,1,159.5977,160.0945,,,,,,891,FEM,AGR,150,medida,la,a,,,160.0945,160.0946,-0.027083344,-0.251388921,0,0,0,,0,62,62,440,1,,,,
,,,,,,27698b0ec5dd2d26c92e43c3,66a626ef09d4e21e1a8894ec,6734a0317b6ac1fd3b96085c,2024-11-13_09h59.31.881,Tarea de género gramatical,2024.2.2,Win32,166.6666667,,,,,,,,,,,,,,,,,,,,,,160.0956,161.1794,l,1,0.4264,,[],[],[],[],[],[],[],0.4264,1,161.1795,161.6763,,,,,,717,FEM,AGR,150,barba,la,a,,,161.6763,161.6764,-0.027083344,-0.251388921,0,0,0,,0,63,63,266,1,,,,
,,,,,,27698b0ec5dd2d26c92e43c3,66a626ef09d4e21e1a8894ec,6734a0317b6ac1fd3b96085c,2024-11-13_09h59.31.881,Tarea de género gramatical,2024.2.2,Win32,166.6666667,,,,,,,,,,,,,,,,,,,,,,161.6771,162.7136,l,1,0.3808,,[],[],[],[],[],[],[],0.3808,1,162.7136,163.2108,,,,,,805,FEM,CON,150,mirada,,a,,,163.2109,163.2109,-0.027083344,-0.251388921,0,0,0,,0,64,64,354,1,,,,
,,,,,,27698b0ec5dd2d26c92e43c3,66a626ef09d4e21e1a8894ec,6734a0317b6ac1fd3b96085c,2024-11-13_09h59.31.881,Tarea de género gramatical,2024.2.2,Win32,166.6666667,,,,,,,,,,,,,,,,,,,,,,163.2117,164.1734,l,1,0.3041,,[],[],[],[],[],[],[],0.3041,1,164.1734,164.6703,,,,,,547,FEM,CON,150,capa,,a,,,164.6713,164.672,-0.027083344,-0.251388921,0,0,0,,0,65,65,96,1,,,,
,,,,,,27698b0ec5dd2d26c92e43c3,66a626ef09d4e21e1a8894ec,6734a0317b6ac1fd3b96085c,2024-11-13_09h59.31.881,Tarea de género gramatical,2024.2.2,Win32,166.6666667,,,,,,,,,,,,,,,,,,,,,,164.6731,165.7984,a,1,0.4718,,[],[],[],[],[],[],[],0.4718,1,165.7984,166.2954,,,,,,791,MAS,DIS,150,precio,la,l,,,166.2955,166.2955,-0.027083344,-0.251388921,0,0,0,,0,66,66,340,1,,,,
,,,,,,27698b0ec5dd2d26c92e43c3,66a626ef09d4e21e1a8894ec,6734a0317b6ac1fd3b96085c,2024-11-13_09h59.31.881,Tarea de género gramatical,2024.2.2,Win32,166.6666667,,,,,,,,,,,,,,,,,,,,,,166.2963,167.5318,l,1,0.5806,,[],[],[],[],[],[],[],0.5806,1,167.5319,168.0288,,,,,,494,FEM,DIS,150,zona,el,a,,,168.0289,168.029,-0.027083344,-0.251388921,0,0,0,,0,67,67,43,1,,,,
,,,,,,27698b0ec5dd2d26c92e43c3,66a626ef09d4e21e1a8894ec,6734a0317b6ac1fd3b96085c,2024-11-13_09h59.31.881,Tarea de género gramatical,2024.2.2,Win32,166.6666667,,,,,,,,,,,,,,,,,,,,,,168.0297,169.0099,a,1,0.3203,,[],[],[],[],[],[],[],0.3203,1,169.01,169.5068,,,,,,640,MAS,CON,150,campo,,l,,,169.5068,169.5069,-0.027083344,-0.251388921,0,0,0,,0,68,68,189,1,,,,
,,,,,,27698b0ec5dd2d26c92e43c3,66a626ef09d4e21e1a8894ec,6734a0317b6ac1fd3b96085c,2024-11-13_09h59.31.881,Tarea de género gramatical,2024.2.2,Win32,166.6666667,,,,,,,,,,,,,,,,,,,,,,169.5079,170.5434,a,1,0.3669,,[],[],[],[],[],[],[],0.3669,1,170.5435,171.0402,,,,,,785,MAS,DIS,150,montón,la,l,,,171.0412,171.0421,-0.027083344,-0.251388921,0,0,0,,0,69,69,334,1,,,,
,,,,,,27698b0ec5dd2d26c92e43c3,66a626ef09d4e21e1a8894ec,6734a0317b6ac1fd3b96085c,2024-11-13_09h59.31.881,Tarea de género gramatical,2024.2.2,Win32,166.6666667,,,,,,,,,,,,,,,,,,,,,,171.0429,171.9916,a,1,0.292,,[],[],[],[],[],[],[],0.292,1,171.9917,172.4886,,,,,,677,MAS,DIS,150,vuelo,la,l,,,172.4887,172.4888,-0.027083344,-0.251388921,0,0,0,,0,70,70,226,1,,,,
,,,,,,27698b0ec5dd2d26c92e43c3,66a626ef09d4e21e1a8894ec,6734a0317b6ac1fd3b96085c,2024-11-13_09h59.31.881,Tarea de género gramatical,2024.2.2,Win32,166.6666667,,,,,,,,,,,,,,,,,,,,,,172.4899,173.4842,l,1,0.3341,,[],[],[],[],[],[],[],0.3341,1,173.4843,173.9855,,,,,,674,FEM,DIS,150,arena,el,a,,,173.9857,173.9857,-0.027083344,-0.251388921,0,0,0,,0,71,71,223,1,,,,
,,,,,,27698b0ec5dd2d26c92e43c3,66a626ef09d4e21e1a8894ec,6734a0317b6ac1fd3b96085c,2024-11-13_09h59.31.881,Tarea de género gramatical,2024.2.2,Win32,166.6666667,,,,,,,,,,,,,,,,,,,,,,173.9867,175.0109,a,1,0.3679,,[],[],[],[],[],[],[],0.3679,1,175.011,175.5069,,,,,,538,MAS,CON,150,pavo,,l,,,175.5069,175.5069,-0.027083344,-0.251388921,0,0,0,,0,72,72,87,1,,,,
,,,,,,27698b0ec5dd2d26c92e43c3,66a626ef09d4e21e1a8894ec,6734a0317b6ac1fd3b96085c,2024-11-13_09h59.31.881,Tarea de género gramatical,2024.2.2,Win32,166.6666667,,,,,,,,,,,,,,,,,,,,,,175.5077,176.3493,a,1,0.1823,,[],[],[],[],[],[],[],0.1823,1,176.3494,176.8463,,,,,,646,MAS,CON,150,barco,,l,,,176.8464,176.8465,-0.027083344,-0.251388921,0,0,0,,0,73,73,195,1,,,,
,,,,,,27698b0ec5dd2d26c92e43c3,66a626ef09d4e21e1a8894ec,6734a0317b6ac1fd3b96085c,2024-11-13_09h59.31.881,Tarea de género gramatical,2024.2.2,Win32,166.6666667,,,,,,,,,,,,,,,,,,,,,,176.8473,177.848,l,1,0.3454,,[],[],[],[],[],[],[],0.3454,1,177.8481,178.3502,,,,,,716,FEM,DIS,150,jaula,el,a,,,178.3513,178.3522,-0.027083344,-0.251388921,0,0,0,,0,74,74,265,1,,,,
,,,,,,27698b0ec5dd2d26c92e43c3,66a626ef09d4e21e1a8894ec,6734a0317b6ac1fd3b96085c,2024-11-13_09h59.31.881,Tarea de género gramatical,2024.2.2,Win32,166.6666667,,,,,,,,,,,,,,,,,,,,,,178.3531,179.2825,a,1,0.271,,[],[],[],[],[],[],[],0.271,1,179.2826,179.7795,,,,,,612,MAS,AGR,150,miedo,el,l,,,179.7796,179.7797,-0.027083344,-0.251388921,0,0,0,,0,75,75,161,1,,,,
,,,,,,27698b0ec5dd2d26c92e43c3,66a626ef09d4e21e1a8894ec,6734a0317b6ac1fd3b96085c,2024-11-13_09h59.31.881,Tarea de género gramatical,2024.2.2,Win32,166.6666667,,,,,,,,,,,,,,,,,,,,,,179.7807,180.9008,a,1,0.4645,,[],[],[],[],[],[],[],0.4645,1,180.9009,181.3978,,,,,,780,MAS,AGR,150,estado,el,l,,,181.3978,181.3979,-0.027083344,-0.251388921,0,0,0,,0,76,76,329,1,,,,
,,,,,,27698b0ec5dd2d26c92e43c3,66a626ef09d4e21e1a8894ec,6734a0317b6ac1fd3b96085c,2024-11-13_09h59.31.881,Tarea de género gramatical,2024.2.2,Win32,166.6666667,,,,,,,,,,,,,,,,,,,,,,181.3987,182.4532,l,0,0.399,,[],[],[],[],[],[],[],0.399,0,182.4539,182.9504,,,,,,456,MAS,AGR,150,lado,el,l,,,182.9505,182.9507,-0.027083344,-0.251388921,0,0,0,,0,77,77,5,1,,,,
,,,,,,27698b0ec5dd2d26c92e43c3,66a626ef09d4e21e1a8894ec,6734a0317b6ac1fd3b96085c,2024-11-13_09h59.31.881,Tarea de género gramatical,2024.2.2,Win32,166.6666667,,,,,,,,,,,,,,,,,,,,,,182.9519,184.067,a,1,0.4611,,[],[],[],[],[],[],[],0.4611,1,184.0676,184.5626,,,,,,834,MAS,AGR,150,pedazo,el,l,,,184.5635,184.5641,-0.027083344,-0.251388921,0,0,0,,0,78,78,383,1,,,,
,,,,,,27698b0ec5dd2d26c92e43c3,66a626ef09d4e21e1a8894ec,6734a0317b6ac1fd3b96085c,2024-11-13_09h59.31.881,Tarea de género gramatical,2024.2.2,Win32,166.6666667,,,,,,,,,,,,,,,,,,,,,,184.5648,185.4964,l,1,0.2735,,[],[],[],[],[],[],[],0.2735,1,185.4965,186.0019,,,,,,681,FEM,AGR,150,bruja,la,a,,,186.0019,186.002,-0.027083344,-0.251388921,0,0,0,,0,79,79,230,1,,,,
,,,,,,27698b0ec5dd2d26c92e43c3,66a626ef09d4e21e1a8894ec,6734a0317b6ac1fd3b96085c,2024-11-13_09h59.31.881,Tarea de género gramatical,2024.2.2,Win32,166.6666667,,,,,,,,,,,,,,,,,,,,,,186.0029,186.9873,a,1,0.3222,,[],[],[],[],[],[],[],0.3222,1,186.9874,187.4904,,,,,,784,MAS,CON,150,ataque,,l,,,187.4904,187.4906,-0.027083344,-0.251388921,0,0,0,,0,80,80,333,1,,,,
,,,,,,27698b0ec5dd2d26c92e43c3,66a626ef09d4e21e1a8894ec,6734a0317b6ac1fd3b96085c,2024-11-13_09h59.31.881,Tarea de género gramatical,2024.2.2,Win32,166.6666667,,,,,,,,,,,,,,,,,,,,,,187.4913,188.3384,a,0,0.1912,,[],[],[],[],[],[],[],0.1912,0,188.3392,188.8355,,,,,,757,FEM,CON,150,suerte,,a,,,188.8356,188.8357,-0.027083344,-0.251388921,0,0,0,,0,81,81,306,1,,,,
,,,,,,27698b0ec5dd2d26c92e43c3,66a626ef09d4e21e1a8894ec,6734a0317b6ac1fd3b96085c,2024-11-13_09h59.31.881,Tarea de género gramatical,2024.2.2,Win32,166.6666667,,,,,,,,,,,,,,,,,,,,,,188.837,189.8534,l,1,0.363,,[],[],[],[],[],[],[],0.363,1,189.855,190.3508,,,,,,657,FEM,AGR,150,playa,la,a,,,190.3508,190.3509,-0.027083344,-0.251388921,0,0,0,,0,82,82,206,1,,,,
,,,,,,27698b0ec5dd2d26c92e43c3,66a626ef09d4e21e1a8894ec,6734a0317b6ac1fd3b96085c,2024-11-13_09h59.31.881,Tarea de género gramatical,2024.2.2,Win32,166.6666667,,,,,,,,,,,,,,,,,,,,,,190.3519,191.3505,a,1,0.3434,,[],[],[],[],[],[],[],0.3434,1,191.3506,191.8483,,,,,,779,MAS,DIS,150,futuro,la,l,,,191.8494,191.8502,-0.027083344,-0.251388921,0,0,0,,0,83,83,328,1,,,,
,,,,,,27698b0ec5dd2d26c92e43c3,66a626ef09d4e21e1a8894ec,6734a0317b6ac1fd3b96085c,2024-11-13_09h59.31.881,Tarea de género gramatical,2024.2.2,Win32,166.6666667,,,,,,,,,,,,,,,,,,,,,,191.8509,192.8101,l,1,0.3071,,[],[],[],[],[],[],[],0.3071,1,192.8102,193.3071,,,,,,669,FEM,AGR,150,costa,la,a,,,193.3072,193.3072,-0.027083344,-0.251388921,0,0,0,,0,84,84,218,1,,,,
,,,,,,27698b0ec5dd2d26c92e43c3,66a626ef09d4e21e1a8894ec,6734a0317b6ac1fd3b96085c,2024-11-13_09h59.31.881,Tarea de género gramatical,2024.2.2,Win32,166.6666667,,,,,,,,,,,,,,,,,,,,,,193.3079,194.2768,a,0,0.3049,,[],[],[],[],[],[],[],0.3049,0,194.2776,194.7758,,,,,,770,FEM,DIS,150,fiesta,el,a,,,194.7758,194.776,-0.027083344,-0.251388921,0,0,0,,0,85,85,319,1,,,,
,,,,,,27698b0ec5dd2d26c92e43c3,66a626ef09d4e21e1a8894ec,6734a0317b6ac1fd3b96085c,2024-11-13_09h59.31.881,Tarea de género gramatical,2024.2.2,Win32,166.6666667,,,,,,,,,,,,,,,,,,,,,,194.7769,195.7981,a,0,0.364,,[],[],[],[],[],[],[],0.364,0,195.7983,196.2964,,,,,,649,FEM,CON,150,nariz,,a,,,196.2964,196.2966,-0.027083344,-0.251388921,0,0,0,,0,86,86,198,1,,,,
,,,,,,27698b0ec5dd2d26c92e43c3,66a626ef09d4e21e1a8894ec,6734a0317b6ac1fd3b96085c,2024-11-13_09h59.31.881,Tarea de género gramatical,2024.2.2,Win32,166.6666667,,,,,,,,,,,,,,,,,,,,,,196.2977,197.3192,a,0,0.3639,,[],[],[],[],[],[],[],0.3639,0,197.3193,197.8162,,,,,,787,FEM,CON,150,escena,,a,,,197.8173,197.818,-0.027083344,-0.251388921,0,0,0,,0,87,87,336,1,,,,
,,,,,,27698b0ec5dd2d26c92e43c3,66a626ef09d4e21e1a8894ec,6734a0317b6ac1fd3b96085c,2024-11-13_09h59.31.881,Tarea de género gramatical,2024.2.2,Win32,166.6666667,,,,,,,,,,,,,,,,,,,,,,197.8187,198.8902,a,1,0.4178,,[],[],[],[],[],[],[],0.4178,1,198.891,199.386,,,,,,708,MAS,AGR,150,polvo,el,l,,,199.3861,199.3862,-0.027083344,-0.251388921,0,0,0,,0,88,88,257,1,,,,
,,,,,,27698b0ec5dd2d26c92e43c3,66a626ef09d4e21e1a8894ec,6734a0317b6ac1fd3b96085c,2024-11-13_09h59.31.881,Tarea de género gramatical,2024.2.2,Win32,166.6666667,,,,,,,,,,,,,,,,,,,,,,199.3872,200.58,a,0,0.5301,,[],[],[],[],[],[],[],0.5301,0,200.5808,201.0774,,,,,,777,FEM,AGR,150,tienda,la,a,,,201.0775,201.0775,-0.027083344,-0.251388921,0,0,0,,0,89,89,326,1,,,,
,,,,,,27698b0ec5dd2d26c92e43c3,66a626ef09d4e21e1a8894ec,6734a0317b6ac1fd3b96085c,2024-11-13_09h59.31.881,Tarea de género gramatical,2024.2.2,Win32,166.6666667,,,,,,,,,,,,,,,,,,,,,,201.0783,202.2102,a,1,0.4764,,[],[],[],[],[],[],[],0.4764,1,202.211,202.7072,,,,,,624,MAS,AGR,150,perro,el,l,,,202.7073,202.7074,-0.027083344,-0.251388921,0,0,0,,0,90,90,173,1,,,,
,,,,,,27698b0ec5dd2d26c92e43c3,66a626ef09d4e21e1a8894ec,6734a0317b6ac1fd3b96085c,2024-11-13_09h59.31.881,Tarea de género gramatical,2024.2.2,Win32,166.6666667,,,,,,,,,,,,,,,,,,,,,,202.7084,203.7505,l,1,0.3824,,[],[],[],[],[],[],[],0.3824,1,203.7507,204.2467,,,,,,500,FEM,DIS,150,dama,el,a,,,204.2467,204.2469,-0.027083344,-0.251388921,0,0,0,,0,91,91,49,1,,,,
,,,,,,27698b0ec5dd2d26c92e43c3,66a626ef09d4e21e1a8894ec,6734a0317b6ac1fd3b96085c,2024-11-13_09h59.31.881,Tarea de género gramatical,2024.2.2,Win32,166.6666667,,,,,,,,,,,,,,,,,,,,,,204.2478,205.2467,a,0,0.3354,,[],[],[],[],[],[],[],0.3354,0,205.2475,205.7435,,,,,,668,FEM,DIS,150,nieve,el,a,,,205.7445,205.7452,-0.027083344,-0.251388921,0,0,0,,0,92,92,217,1,,,,
,,,,,,27698b0ec5dd2d26c92e43c3,66a626ef09d4e21e1a8894ec,6734a0317b6ac1fd3b96085c,2024-11-13_09h59.31.881,Tarea de género gramatical,2024.2.2,Win32,166.6666667,,,,,,,,,,,,,,,,,,,,,,205.7457,206.8659,a,1,0.4655,,[],[],[],[],[],[],[],0.4655,1,206.8665,207.3618,,,,,,761,MAS,DIS,150,camino,la,l,,,207.3619,207.3619,-0.027083344,-0.251388921,0,0,0,,0,93,93,310,1,,,,
,,,,,,27698b0ec5dd2d26c92e43c3,66a626ef09d4e21e1a8894ec,6734a0317b6ac1fd3b96085c,2024-11-13_09h59.31.881,Tarea de género gramatical,2024.2.2,Win32,166.6666667,,,,,,,,,,,,,,,,,,,,,,207.3629,208.4468,a,1,0.4232,,[],[],[],[],[],[],[],0.4232,1,208.4469,208.9473,,,,,,743,MAS,DIS,150,patio,la,l,,,208.9474,208.9475,-0.027083344,-0.251388921,0,0,0,,0,94,94,292,1,,,,
,,,,,,27698b0ec5dd2d26c92e43c3,66a626ef09d4e21e1a8894ec,6734a0317b6ac1fd3b96085c,2024-11-13_09h59.31.881,Tarea de género gramatical,2024.2.2,Win32,166.6666667,,,,,,,,,,,,,,,,,,,,,,208.9482,209.9618,a,1,0.3571,,[],[],[],[],[],[],[],0.3571,1,209.9619,210.4587,,,,,,731,MAS,DIS,150,actor,la,l,,,210.4588,210.4589,-0.027083344,-0.251388921,0,0,0,,0,95,95,280,1,,,,
,,,,,,27698b0ec5dd2d26c92e43c3,66a626ef09d4e21e1a8894ec,6734a0317b6ac1fd3b96085c,2024-11-13_09h59.31.881,Tarea de género gramatical,2024.2.2,Win32,166.6666667,,,,,,,,,,,,,,,,,,,,,,210.4598,212.0678,a,1,0.942,,[],[],[],[],[],[],[],0.942,1,212.0678,212.5688,,,,,,888,MAS,AGR,150,tanque,el,l,,,212.5699,212.571,-0.027083344,-0.251388921,0,0,0,,0,96,96,437,1,,,,
,,,,,,27698b0ec5dd2d26c92e43c3,66a626ef09d4e21e1a8894ec,6734a0317b6ac1fd3b96085c,2024-11-13_09h59.31.881,Tarea de género gramatical,2024.2.2,Win32,166.6666667,,,,,,,,,,,,,,,,,,,,,,212.5716,213.5212,l,1,0.296,,[],[],[],[],[],[],[],0.296,1,213.5214,214.0225,,,,,,583,FEM,CON,150,joya,,a,,,214.0225,214.0225,-0.027083344,-0.251388921,0,0,0,,0,97,97,132,1,,,,
,,,,,,27698b0ec5dd2d26c92e43c3,66a626ef09d4e21e1a8894ec,6734a0317b6ac1fd3b96085c,2024-11-13_09h59.31.881,Tarea de género gramatical,2024.2.2,Win32,166.6666667,,,,,,,,,,,,,,,,,,,,,,214.0238,215.0297,l,1,0.3459,,[],[],[],[],[],[],[],0.3459,1,215.0298,215.5256,,,,,,835,FEM,CON,150,muñeca,,a,,,215.5256,215.5257,-0.027083344,-0.251388921,0,0,0,,0,98,98,384,1,,,,
,,,,,,27698b0ec5dd2d26c92e43c3,66a626ef09d4e21e1a8894ec,6734a0317b6ac1fd3b96085c,2024-11-13_09h59.31.881,Tarea de género gramatical,2024.2.2,Win32,166.6666667,,,,,,,,,,,,,,,,,,,,,,215.5265,216.5015,a,1,0.3172,,[],[],[],[],[],[],[],0.3172,1,216.5016,216.9984,,,,,,558,MAS,AGR,150,hilo,el,l,,,216.9984,216.9984,-0.027083344,-0.251388921,0,0,0,,0,99,99,107,1,,,,
,,,,,,27698b0ec5dd2d26c92e43c3,66a626ef09d4e21e1a8894ec,6734a0317b6ac1fd3b96085c,2024-11-13_09h59.31.881,Tarea de género gramatical,2024.2.2,Win32,166.6666667,,,,,,,,,,,,,,,,,,,,,,216.9993,218.0529,a,1,0.3901,,[],[],[],[],[],[],[],0.3901,1,218.053,218.55,,,,,,737,MAS,DIS,150,plato,la,l,,,218.5501,218.5501,-0.027083344,-0.251388921,0,0,0,,0,100,100,286,1,,,,
,,,,,,27698b0ec5dd2d26c92e43c3,66a626ef09d4e21e1a8894ec,6734a0317b6ac1fd3b96085c,2024-11-13_09h59.31.881,Tarea de género gramatical,2024.2.2,Win32,166.6666667,,,,,,,,,,,,,,,,,,,,,,218.5512,219.4979,l,1,0.2869,,[],[],[],[],[],[],[],0.2869,1,219.4979,219.9985,,,,,,794,FEM,DIS,150,pareja,el,a,,,219.9994,220.0002,-0.027083344,-0.251388921,0,0,0,,0,101,101,343,1,,,,
,,,,,,27698b0ec5dd2d26c92e43c3,66a626ef09d4e21e1a8894ec,6734a0317b6ac1fd3b96085c,2024-11-13_09h59.31.881,Tarea de género gramatical,2024.2.2,Win32,166.6666667,,,,,,,,,,,,,,,,,,,,,,220.0008,221.0296,a,1,0.3745,,[],[],[],[],[],[],[],0.3745,1,221.0298,221.5255,,,,,,900,MAS,AGR,150,conejo,el,l,,,221.5255,221.5257,-0.027083344,-0.251388921,0,0,0,,0,102,102,449,1,,,,
,,,,,,27698b0ec5dd2d26c92e43c3,66a626ef09d4e21e1a8894ec,6734a0317b6ac1fd3b96085c,2024-11-13_09h59.31.881,Tarea de género gramatical,2024.2.2,Win32,166.6666667,,,,,,,,,,,,,,,,,,,,,,221.5264,222.4721,a,1,0.2853,,[],[],[],[],[],[],[],0.2853,1,222.4722,222.9681,,,,,,774,MAS,AGR,150,cuarto,el,l,,,222.9682,222.9683,-0.027083344,-0.251388921,0,0,0,,0,103,103,323,1,,,,
,,,,,,27698b0ec5dd2d26c92e43c3,66a626ef09d4e21e1a8894ec,6734a0317b6ac1fd3b96085c,2024-11-13_09h59.31.881,Tarea de género gramatical,2024.2.2,Win32,166.6666667,,,,,,,,,,,,,,,,,,,,,,222.9693,223.9197,a,1,0.291,,[],[],[],[],[],[],[],0.291,1,223.9198,224.4166,,,,,,695,MAS,DIS,150,turno,la,l,,,224.4167,224.4167,-0.027083344,-0.251388921,0,0,0,,0,104,104,244,1,,,,
,,,,,,27698b0ec5dd2d26c92e43c3,66a626ef09d4e21e1a8894ec,6734a0317b6ac1fd3b96085c,2024-11-13_09h59.31.881,Tarea de género gramatical,2024.2.2,Win32,166.6666667,,,,,,,,,,,,,,,,,,,,,,224.4177,225.4591,a,1,0.3859,,[],[],[],[],[],[],[],0.3859,1,225.4593,225.9562,,,,,,534,MAS,AGR,150,mago,el,l,,,225.9572,225.9577,-0.027083344,-0.251388921,0,0,0,,0,105,105,83,1,,,,
,,,,,,27698b0ec5dd2d26c92e43c3,66a626ef09d4e21e1a8894ec,6734a0317b6ac1fd3b96085c,2024-11-13_09h59.31.881,Tarea de género gramatical,2024.2.2,Win32,166.6666667,,,,,,,,,,,,,,,,,,,,,,225.9583,226.9258,a,1,0.3062,,[],[],[],[],[],[],[],0.3062,1,226.9259,227.4227,,,,,,653,MAS,DIS,150,novio,la,l,,,227.4228,227.4228,-0.027083344,-0.251388921,0,0,0,,0,106,106,202,1,,,,
,,,,,,27698b0ec5dd2d26c92e43c3,66a626ef09d4e21e1a8894ec,6734a0317b6ac1fd3b96085c,2024-11-13_09h59.31.881,Tarea de género gramatical,2024.2.2,Win32,166.6666667,,,,,,,,,,,,,,,,,,,,,,227.4241,228.3804,a,1,0.2937,,[],[],[],[],[],[],[],0.2937,1,228.3804,228.878,,,,,,719,MAS,DIS,150,primo,la,l,,,228.8781,228.8781,-0.027083344,-0.251388921,0,0,0,,0,107,107,268,1,,,,
,,,,,,27698b0ec5dd2d26c92e43c3,66a626ef09d4e21e1a8894ec,6734a0317b6ac1fd3b96085c,2024-11-13_09h59.31.881,Tarea de género gramatical,2024.2.2,Win32,166.6666667,,,,,,,,,,,,,,,,,,,,,,228.8792,230.2347,l,0,0.6994,,[],[],[],[],[],[],[],0.6994,0,230.2353,230.7319,,,,,,833,MAS,DIS,150,parque,la,l,,,230.7319,230.7321,-0.027083344,-0.251388921,0,0,0,,0,108,108,382,1,,,,
,,,,,,27698b0ec5dd2d26c92e43c3,66a626ef09d4e21e1a8894ec,6734a0317b6ac1fd3b96085c,2024-11-13_09h59.31.881,Tarea de género gramatical,2024.2.2,Win32,166.6666667,,,,,,,,,,,,,,,,,,,,,,230.7329,231.9742,l,0,0.5732,,[],[],[],[],[],[],[],0.5732,0,231.9743,232.4719,,,,,,809,MAS,DIS,150,bosque,la,l,,,232.4719,232.4721,-0.027083344,-0.251388921,0,0,0,,0,109,109,358,1,,,,
,,,,,,27698b0ec5dd2d26c92e43c3,66a626ef09d4e21e1a8894ec,6734a0317b6ac1fd3b96085c,2024-11-13_09h59.31.881,Tarea de género gramatical,2024.2.2,Win32,166.6666667,,,,,,,,,,,,,,,,,,,,,,232.473,233.429,a,0,0.2985,,[],[],[],[],[],[],[],0.2985,0,233.4291,233.9257,,,,,,775,FEM,CON,150,tierra,,a,,,233.9268,233.9277,-0.027083344,-0.251388921,0,0,0,,0,110,110,324,1,,,,
,,,,,,27698b0ec5dd2d26c92e43c3,66a626ef09d4e21e1a8894ec,6734a0317b6ac1fd3b96085c,2024-11-13_09h59.31.881,Tarea de género gramatical,2024.2.2,Win32,166.6666667,,,,,,,,,,,,,,,,,,,,,,233.9286,234.9999,a,1,0.413,,[],[],[],[],[],[],[],0.413,1,235.0006,235.5015,,,,,,893,MAS,DIS,150,templo,la,l,,,235.5016,235.5016,-0.027083344,-0.251388921,0,0,0,,0,111,111,442,1,,,,
,,,,,,27698b0ec5dd2d26c92e43c3,66a626ef09d4e21e1a8894ec,6734a0317b6ac1fd3b96085c,2024-11-13_09h59.31.881,Tarea de género gramatical,2024.2.2,Win32,166.6666667,,,,,,,,,,,,,,,,,,,,,,235.5024,236.4592,a,0,0.2947,,[],[],[],[],[],[],[],0.2947,0,236.46,236.9571,,,,,,499,FEM,CON,150,piel,,a,,,236.9572,236.9572,-0.027083344,-0.251388921,0,0,0,,0,112,112,48,1,,,,
,,,,,,27698b0ec5dd2d26c92e43c3,66a626ef09d4e21e1a8894ec,6734a0317b6ac1fd3b96085c,2024-11-13_09h59.31.881,Tarea de género gramatical,2024.2.2,Win32,166.6666667,,,,,,,,,,,,,,,,,,,,,,236.9579,238.1502,a,1,0.5312,,[],[],[],[],[],[],[],0.5312,1,238.1509,238.6471,,,,,,574,MAS,CON,150,clan,,l,,,238.6471,238.6472,-0.027083344,-0.251388921,0,0,0,,0,113,113,123,1,,,,
,,,,,,27698b0ec5dd2d26c92e43c3,66a626ef09d4e21e1a8894ec,6734a0317b6ac1fd3b96085c,2024-11-13_09h59.31.881,Tarea de género gramatical,2024.2.2,Win32,166.6666667,,,,,,,,,,,,,,,,,,,,,,238.6481,239.6291,a,1,0.3175,,[],[],[],[],[],[],[],0.3175,1,239.6292,240.1266,,,,,,856,MAS,CON,150,premio,,l,,,240.1274,240.128,-0.027083344,-0.251388921,0,0,0,,0,114,114,405,1,,,,
,,,,,,27698b0ec5dd2d26c92e43c3,66a626ef09d4e21e1a8894ec,6734a0317b6ac1fd3b96085c,2024-11-13_09h59.31.881,Tarea de género gramatical,2024.2.2,Win32,166.6666667,,,,,,,,,,,,,,,,,,,,,,240.1284,241.1997,a,1,0.4122,,[],[],[],[],[],[],[],0.4122,1,241.1999,241.6957,,,,,,792,MAS,AGR,150,abuelo,el,l,,,241.6958,241.6959,-0.027083344,-0.251388921,0,0,0,,0,115,115,341,1,,,,
,,,,,,27698b0ec5dd2d26c92e43c3,66a626ef09d4e21e1a8894ec,6734a0317b6ac1fd3b96085c,2024-11-13_09h59.31.881,Tarea de género gramatical,2024.2.2,Win32,166.6666667,,,,,,,,,,,,,,,,,,,,,,241.6968,242.7575,l,1,0.4056,,[],[],[],[],[],[],[],0.4056,1,242.7576,243.2532,,,,,,799,FEM,CON,150,prensa,,a,,,243.2532,243.2533,-0.027083344,-0.251388921,0,0,0,,0,116,116,348,1,,,,
,,,,,,27698b0ec5dd2d26c92e43c3,66a626ef09d4e21e1a8894ec,6734a0317b6ac1fd3b96085c,2024-11-13_09h59.31.881,Tarea de género gramatical,2024.2.2,Win32,166.6666667,,,,,,,,,,,,,,,,,,,,,,243.2541,244.2776,a,1,0.362,,[],[],[],[],[],[],[],0.362,1,244.2777,244.7754,,,,,,544,MAS,CON,150,cabo,,l,,,244.7755,244.7756,-0.027083344,-0.251388921,0,0,0,,0,117,117,93,1,,,,
,,,,,,27698b0ec5dd2d26c92e43c3,66a626ef09d4e21e1a8894ec,6734a0317b6ac1fd3b96085c,2024-11-13_09h59.31.881,Tarea de género gramatical,2024.2.2,Win32,166.6666667,,,,,,,,,,,,,,,,,,,,,,244.7765,245.7571,a,1,0.3211,,[],[],[],[],[],[],[],0.3211,1,245.7572,246.2534,,,,,,714,MAS,AGR,150,pollo,el,l,,,246.2534,246.2535,-0.027083344,-0.251388921,0,0,0,,0,118,118,263,1,,,,
,,,,,,27698b0ec5dd2d26c92e43c3,66a626ef09d4e21e1a8894ec,6734a0317b6ac1fd3b96085c,2024-11-13_09h59.31.881,Tarea de género gramatical,2024.2.2,Win32,166.6666667,,,,,,,,,,,,,,,,,,,,,,246.2546,247.2351,a,1,0.3273,,[],[],[],[],[],[],[],0.3273,1,247.2351,247.7321,,,,,,772,MAS,CON,150,minuto,,l,,,247.7332,247.7339,-0.027083344,-0.251388921,0,0,0,,0,119,119,321,1,,,,
,,,,,,27698b0ec5dd2d26c92e43c3,66a626ef09d4e21e1a8894ec,6734a0317b6ac1fd3b96085c,2024-11-13_09h59.31.881,Tarea de género gramatical,2024.2.2,Win32,166.6666667,,,,,,,,,,,,,,,,,,,,,,247.735,248.7866,a,1,0.3966,,[],[],[],[],[],[],[],0.3966,1,248.7866,249.2843,,,,,,492,MAS,AGR,150,show,el,l,,,249.2844,249.2845,-0.027083344,-0.251388921,0,0,0,,0,120,120,41,1,,,,
,,,,,,27698b0ec5dd2d26c92e43c3,66a626ef09d4e21e1a8894ec,6734a0317b6ac1fd3b96085c,2024-11-13_09h59.31.881,Tarea de género gramatical,2024.2.2,Win32,166.6666667,,,,,,,,,,,,,,,,,,,,,,249.2854,250.2602,l,1,0.3201,,[],[],[],[],[],[],[],0.3201,1,250.2603,250.7563,,,,,,849,FEM,AGR,150,charla,la,a,,,250.7564,250.7565,-0.027083344,-0.251388921,0,0,0,,0,121,121,398,1,,,,
,,,,,,27698b0ec5dd2d26c92e43c3,66a626ef09d4e21e1a8894ec,6734a0317b6ac1fd3b96085c,2024-11-13_09h59.31.881,Tarea de género gramatical,2024.2.2,Win32,166.6666667,,,,,,,,,,,,,,,,,,,,,,250.7575,251.8595,l,1,0.4447,,[],[],[],[],[],[],[],0.4447,1,251.8596,252.3564,,,,,,567,FEM,AGR,150,raya,la,a,,,252.3564,252.3565,-0.027083344,-0.251388921,0,0,0,,0,122,122,116,1,,,,
,,,,,,27698b0ec5dd2d26c92e43c3,66a626ef09d4e21e1a8894ec,6734a0317b6ac1fd3b96085c,2024-11-13_09h59.31.881,Tarea de género gramatical,2024.2.2,Win32,166.6666667,,,,,,,,,,,,,,,,,,,,,,252.3574,253.666,l,1,0.6534,,[],[],[],[],[],[],[],0.6534,1,253.6661,254.1624,,,,,,705,FEM,AGR,150,tribu,la,a,,,254.1633,254.1639,-0.027083344,-0.251388921,0,0,0,,0,123,123,254,1,,,,
,,,,,,27698b0ec5dd2d26c92e43c3,66a626ef09d4e21e1a8894ec,6734a0317b6ac1fd3b96085c,2024-11-13_09h59.31.881,Tarea de género gramatical,2024.2.2,Win32,166.6666667,,,,,,,,,,,,,,,,,,,,,,254.1644,255.1989,l,1,0.3768,,[],[],[],[],[],[],[],0.3768,1,255.199,255.6957,,,,,,783,FEM,AGR,150,locura,la,a,,,255.6958,255.6958,-0.027083344,-0.251388921,0,0,0,,0,124,124,332,1,,,,
,,,,,,27698b0ec5dd2d26c92e43c3,66a626ef09d4e21e1a8894ec,6734a0317b6ac1fd3b96085c,2024-11-13_09h59.31.881,Tarea de género gramatical,2024.2.2,Win32,166.6666667,,,,,,,,,,,,,,,,,,,,,,255.6969,256.9089,a,1,0.5521,,[],[],[],[],[],[],[],0.5521,1,256.909,257.405,,,,,,894,MAS,AGR,150,límite,el,l,,,257.4051,257.4052,-0.027083344,-0.251388921,0,0,0,,0,125,125,443,1,,,,
,,,,,,27698b0ec5dd2d26c92e43c3,66a626ef09d4e21e1a8894ec,6734a0317b6ac1fd3b96085c,2024-11-13_09h59.31.881,Tarea de género gramatical,2024.2.2,Win32,166.6666667,,,,,,,,,,,,,,,,,,,,,,257.4063,258.612,l,1,0.5459,,[],[],[],[],[],[],[],0.5459,1,258.6121,259.108,,,,,,848,FEM,DIS,150,hierba,el,a,,,259.108,259.1082,-0.027083344,-0.251388921,0,0,0,,0,126,126,397,1,,,,
,,,,,,27698b0ec5dd2d26c92e43c3,66a626ef09d4e21e1a8894ec,6734a0317b6ac1fd3b96085c,2024-11-13_09h59.31.881,Tarea de género gramatical,2024.2.2,Win32,166.6666667,,,,,,,,,,,,,,,,,,,,,,259.1089,260.1746,a,1,0.4061,,[],[],[],[],[],[],[],0.4061,1,260.1748,260.6726,,,,,,575,MAS,DIS,150,bate,la,l,,,260.6727,260.6727,-0.027083344,-0.251388921,0,0,0,,0,127,127,124,1,,,,
,,,,,,27698b0ec5dd2d26c92e43c3,66a626ef09d4e21e1a8894ec,6734a0317b6ac1fd3b96085c,2024-11-13_09h59.31.881,Tarea de género gramatical,2024.2.2,Win32,166.6666667,,,,,,,,,,,,,,,,,,,,,,260.6735,261.7262,l,1,0.3953,,[],[],[],[],[],[],[],0.3953,1,261.7263,262.2233,,,,,,721,FEM,CON,150,viuda,,a,,,262.2245,262.2254,-0.027083344,-0.251388921,0,0,0,,0,128,128,270,1,,,,
,,,,,,27698b0ec5dd2d26c92e43c3,66a626ef09d4e21e1a8894ec,6734a0317b6ac1fd3b96085c,2024-11-13_09h59.31.881,Tarea de género gramatical,2024.2.2,Win32,166.6666667,,,,,,,,,,,,,,,,,,,,,,262.2261,263.3072,a,1,0.4228,,[],[],[],[],[],[],[],0.4228,1,263.3073,263.8071,,,,,,604,MAS,CON,150,padre,,l,,,263.8071,263.8073,-0.027083344,-0.251388921,0,0,0,,0,129,129,153,1,,,,
,,,,,,27698b0ec5dd2d26c92e43c3,66a626ef09d4e21e1a8894ec,6734a0317b6ac1fd3b96085c,2024-11-13_09h59.31.881,Tarea de género gramatical,2024.2.2,Win32,166.6666667,,,,,,,,,,,,,,,,,,,,,,263.8083,264.9748,a,0,0.5103,,[],[],[],[],[],[],[],0.5103,0,264.9757,265.4723,,,,,,895,FEM,CON,150,bondad,,a,,,265.4723,265.4725,-0.027083344,-0.251388921,0,0,0,,0,130,130,444,1,,,,
,,,,,,27698b0ec5dd2d26c92e43c3,66a626ef09d4e21e1a8894ec,6734a0317b6ac1fd3b96085c,2024-11-13_09h59.31.881,Tarea de género gramatical,2024.2.2,Win32,166.6666667,,,,,,,,,,,,,,,,,,,,,,265.4735,266.6658,a,0,0.5375,,[],[],[],[],[],[],[],0.5375,0,266.666,267.1625,,,,,,860,FEM,DIS,150,piedad,el,a,,,267.1625,267.1626,-0.027083344,-0.251388921,0,0,0,,0,131,131,409,1,,,,
,,,,,,27698b0ec5dd2d26c92e43c3,66a626ef09d4e21e1a8894ec,6734a0317b6ac1fd3b96085c,2024-11-13_09h59.31.881,Tarea de género gramatical,2024.2.2,Win32,166.6666667,,,,,,,,,,,,,,,,,,,,,,267.1634,268.299,a,0,0.4747,,[],[],[],[],[],[],[],0.4747,0,268.2991,268.799,,,,,,613,FEM,CON,150,calle,,a,,,268.8001,268.8008,-0.027083344,-0.251388921,0,0,0,,0,132,132,162,1,,,,
,,,,,,27698b0ec5dd2d26c92e43c3,66a626ef09d4e21e1a8894ec,6734a0317b6ac1fd3b96085c,2024-11-13_09h59.31.881,Tarea de género gramatical,2024.2.2,Win32,166.6666667,,,,,,,,,,,,,,,,,,,,,,268.8012,269.8053,l,1,0.347,,[],[],[],[],[],[],[],0.347,1,269.806,270.3043,,,,,,451,FEM,CON,150,casa,,a,,,270.3043,270.3044,-0.027083344,-0.251388921,0,0,0,,0,133,133,0,1,,,,
,,,,,,27698b0ec5dd2d26c92e43c3,66a626ef09d4e21e1a8894ec,6734a0317b6ac1fd3b96085c,2024-11-13_09h59.31.881,Tarea de género gramatical,2024.2.2,Win32,166.6666667,,,,,,,,,,,,,,,,,,,,,,270.305,271.3701,l,1,0.4096,,[],[],[],[],[],[],[],0.4096,1,271.3702,271.8676,,,,,,565,FEM,CON,150,seda,,a,,,271.8676,271.8676,-0.027083344,-0.251388921,0,0,0,,0,134,134,114,1,,,,
,,,,,,27698b0ec5dd2d26c92e43c3,66a626ef09d4e21e1a8894ec,6734a0317b6ac1fd3b96085c,2024-11-13_09h59.31.881,Tarea de género gramatical,2024.2.2,Win32,166.6666667,,,,,,,,,,,,,,,,,,,,,,271.8684,272.9093,l,1,0.3873,,[],[],[],[],[],[],[],0.3873,1,272.9094,273.4053,,,,,,554,FEM,DIS,150,vela,el,a,,,273.4053,273.4054,-0.027083344,-0.251388921,0,0,0,,0,135,135,103,1,,,,
,,,,,,27698b0ec5dd2d26c92e43c3,66a626ef09d4e21e1a8894ec,6734a0317b6ac1fd3b96085c,2024-11-13_09h59.31.881,Tarea de género gramatical,2024.2.2,Win32,166.6666667,,,,,,,,,,,,,,,,,,,,,,273.4064,274.3811,a,1,0.3145,,[],[],[],[],[],[],[],0.3145,1,274.3811,274.8791,,,,,,510,MAS,AGR,150,tono,el,l,,,274.8792,274.8792,-0.027083344,-0.251388921,0,0,0,,0,136,136,59,1,,,,
,,,,,,27698b0ec5dd2d26c92e43c3,66a626ef09d4e21e1a8894ec,6734a0317b6ac1fd3b96085c,2024-11-13_09h59.31.881,Tarea de género gramatical,2024.2.2,Win32,166.6666667,,,,,,,,,,,,,,,,,,,,,,274.8803,275.8426,l,1,0.3033,,[],[],[],[],[],[],[],0.3033,1,275.8426,276.3386,,,,,,530,FEM,DIS,150,vaca,el,a,,,276.3395,276.3404,-0.027083344,-0.251388921,0,0,0,,0,137,137,79,1,,,,
,,,,,,27698b0ec5dd2d26c92e43c3,66a626ef09d4e21e1a8894ec,6734a0317b6ac1fd3b96085c,2024-11-13_09h59.31.881,Tarea de género gramatical,2024.2.2,Win32,166.6666667,,,,,,,,,,,,,,,,,,,,,,276.3409,277.4114,l,1,0.415,,[],[],[],[],[],[],[],0.415,1,277.4115,277.9156,,,,,,765,FEM,AGR,150,manera,la,a,,,277.9156,277.9157,-0.027083344,-0.251388921,0,0,0,,0,138,138,314,1,,,,
,,,,,,27698b0ec5dd2d26c92e43c3,66a626ef09d4e21e1a8894ec,6734a0317b6ac1fd3b96085c,2024-11-13_09h59.31.881,Tarea de género gramatical,2024.2.2,Win32,166.6666667,,,,,,,,,,,,,,,,,,,,,,277.9166,279.0052,a,1,0.4301,,[],[],[],[],[],[],[],0.4301,1,279.0052,279.5033,,,,,,844,MAS,CON,150,examen,,l,,,279.5033,279.5034,-0.027083344,-0.251388921,0,0,0,,0,139,139,393,1,,,,
,,,,,,27698b0ec5dd2d26c92e43c3,66a626ef09d4e21e1a8894ec,6734a0317b6ac1fd3b96085c,2024-11-13_09h59.31.881,Tarea de género gramatical,2024.2.2,Win32,166.6666667,,,,,,,,,,,,,,,,,,,,,,279.5042,280.6294,l,1,0.4671,,[],[],[],[],[],[],[],0.4671,1,280.6296,281.1266,,,,,,819,FEM,AGR,150,camisa,la,a,,,281.1266,281.1267,-0.027083344,-0.251388921,0,0,0,,0,140,140,368,1,,,,
,,,,,,27698b0ec5dd2d26c92e43c3,66a626ef09d4e21e1a8894ec,6734a0317b6ac1fd3b96085c,2024-11-13_09h59.31.881,Tarea de género gramatical,2024.2.2,Win32,166.6666667,,,,,,,,,,,,,,,,,,,,,,281.1275,282.1386,a,1,0.3494,,[],[],[],[],[],[],[],0.3494,1,282.1387,282.6362,,,,,,748,MAS,CON,150,botón,,l,,,282.6371,282.6379,-0.027083344,-0.251388921,0,0,0,,0,141,141,297,1,,,,
,,,,,,27698b0ec5dd2d26c92e43c3,66a626ef09d4e21e1a8894ec,6734a0317b6ac1fd3b96085c,2024-11-13_09h59.31.881,Tarea de género gramatical,2024.2.2,Win32,166.6666667,,,,,,,,,,,,,,,,,,,,,,282.6385,283.5823,l,1,0.2901,,[],[],[],[],[],[],[],0.2901,1,283.5824,284.0793,,,,,,632,FEM,DIS,150,prisa,el,a,,,284.0794,284.0795,-0.027083344,-0.251388921,0,0,0,,0,142,142,181,1,,,,
,,,,,,27698b0ec5dd2d26c92e43c3,66a626ef09d4e21e1a8894ec,6734a0317b6ac1fd3b96085c,2024-11-13_09h59.31.881,Tarea de género gramatical,2024.2.2,Win32,166.6666667,,,,,,,,,,,,,,,,,,,,,,284.0804,285.0842,a,1,0.348,,[],[],[],[],[],[],[],0.348,1,285.0842,285.581,,,,,,526,MAS,CON,150,lujo,,l,,,285.581,285.5812,-0.027083344,-0.251388921,0,0,0,,0,143,143,75,1,,,,
,,,,,,27698b0ec5dd2d26c92e43c3,66a626ef09d4e21e1a8894ec,6734a0317b6ac1fd3b96085c,2024-11-13_09h59.31.881,Tarea de género gramatical,2024.2.2,Win32,166.6666667,,,,,,,,,,,,,,,,,,,,,,285.5819,286.7508,a,1,0.5077,,[],[],[],[],[],[],[],0.5077,1,286.7508,287.2478,,,,,,683,MAS,DIS,150,golpe,la,l,,,287.2478,287.248,-0.027083344,-0.251388921,0,0,0,,0,144,144,232,1,,,,
,,,,,,27698b0ec5dd2d26c92e43c3,66a626ef09d4e21e1a8894ec,6734a0317b6ac1fd3b96085c,2024-11-13_09h59.31.881,Tarea de género gramatical,2024.2.2,Win32,166.6666667,,,,,,,,,,,,,,,,,,,,,,287.2489,288.2559,l,1,0.3469,,[],[],[],[],[],[],[],0.3469,1,288.256,288.7569,,,,,,559,FEM,CON,150,gota,,a,,,288.757,288.7571,-0.027083344,-0.251388921,0,0,0,,0,145,145,108,1,,,,
,,,,,,27698b0ec5dd2d26c92e43c3,66a626ef09d4e21e1a8894ec,6734a0317b6ac1fd3b96085c,2024-11-13_09h59.31.881,Tarea de género gramatical,2024.2.2,Win32,166.6666667,,,,,,,,,,,,,,,,,,,,,,288.7578,290.9267,a,1,1.5058,,[],[],[],[],[],[],[],1.5058,1,290.9268,291.4236,,,,,,760,MAS,CON,150,nombre,,l,,,291.4249,291.4256,-0.027083344,-0.251388921,0,0,0,,0,146,146,309,1,,,,
,,,,,,27698b0ec5dd2d26c92e43c3,66a626ef09d4e21e1a8894ec,6734a0317b6ac1fd3b96085c,2024-11-13_09h59.31.881,Tarea de género gramatical,2024.2.2,Win32,166.6666667,,,,,,,,,,,,,,,,,,,,,,291.4263,292.4126,a,1,0.3321,,[],[],[],[],[],[],[],0.3321,1,292.4127,292.9085,,,,,,755,MAS,DIS,150,hombre,la,l,,,292.9087,292.9088,-0.027083344,-0.251388921,0,0,0,,0,147,147,304,1,,,,
,,,,,,27698b0ec5dd2d26c92e43c3,66a626ef09d4e21e1a8894ec,6734a0317b6ac1fd3b96085c,2024-11-13_09h59.31.881,Tarea de género gramatical,2024.2.2,Win32,166.6666667,,,,,,,,,,,,,,,,,,,,,,292.9099,293.7571,a,1,0.1883,,[],[],[],[],[],[],[],0.1883,1,293.7572,294.254,,,,,,516,MAS,AGR,150,muro,el,l,,,294.2541,294.2542,-0.027083344,-0.251388921,0,0,0,,0,148,148,65,1,,,,
,,,,,,27698b0ec5dd2d26c92e43c3,66a626ef09d4e21e1a8894ec,6734a0317b6ac1fd3b96085c,2024-11-13_09h59.31.881,Tarea de género gramatical,2024.2.2,Win32,166.6666667,,,,,,,,,,,,,,,,,,,,,,294.2555,295.0783,a,1,0.1632,,[],[],[],[],[],[],[],0.1632,1,295.0784,295.5761,,,,,,750,MAS,AGR,150,túnel,el,l,,,295.5762,295.5763,-0.027083344,-0.251388921,0,0,0,,0,149,149,299,1,,,,
,,,,,,27698b0ec5dd2d26c92e43c3,66a626ef09d4e21e1a8894ec,6734a0317b6ac1fd3b96085c,2024-11-13_09h59.31.881,Tarea de género gramatical,2024.2.2,Win32,166.6666667,,,,,,,,,,,,,,,,,,,,,,295.577,296.7145,l,1,0.4821,,[],[],[],[],[],[],[],0.4821,1,296.7146,297.2116,,,,,,644,FEM,DIS,150,banda,el,a,,,297.2129,301.9782,-0.027083344,-0.251388921,0,0,0,space,0,150,150,193,1,4.7508,,,
,,,,,,27698b0ec5dd2d26c92e43c3,66a626ef09d4e21e1a8894ec,6734a0317b6ac1fd3b96085c,2024-11-13_09h59.31.881,Tarea de género gramatical,2024.2.2,Win32,166.6666667,,,,,,,,,,,,,,,,,,,,,,301.979,303.3341,l,1,0.7019,,[],[],[],[],[],[],[],0.7019,1,303.3343,303.83,,,,,,747,FEM,AGR,150,manta,la,a,,,303.8301,303.8302,-0.027083344,-0.251388921,0,0,0,,0,151,151,296,1,,,,
,,,,,,27698b0ec5dd2d26c92e43c3,66a626ef09d4e21e1a8894ec,6734a0317b6ac1fd3b96085c,2024-11-13_09h59.31.881,Tarea de género gramatical,2024.2.2,Win32,166.6666667,,,,,,,,,,,,,,,,,,,,,,303.831,304.6847,l,1,0.194,,[],[],[],[],[],[],[],0.194,1,304.6847,305.1814,,,,,,619,FEM,CON,150,vista,,a,,,305.1815,305.1816,-0.027083344,-0.251388921,0,0,0,,0,152,152,168,1,,,,
,,,,,,27698b0ec5dd2d26c92e43c3,66a626ef09d4e21e1a8894ec,6734a0317b6ac1fd3b96085c,2024-11-13_09h59.31.881,Tarea de género gramatical,2024.2.2,Win32,166.6666667,,,,,,,,,,,,,,,,,,,,,,305.1825,306.1406,a,1,0.3027,,[],[],[],[],[],[],[],0.3027,1,306.1407,306.6429,,,,,,460,MAS,CON,150,niño,,l,,,306.6429,306.6429,-0.027083344,-0.251388921,0,0,0,,0,153,153,9,1,,,,
,,,,,,27698b0ec5dd2d26c92e43c3,66a626ef09d4e21e1a8894ec,6734a0317b6ac1fd3b96085c,2024-11-13_09h59.31.881,Tarea de género gramatical,2024.2.2,Win32,166.6666667,,,,,,,,,,,,,,,,,,,,,,306.6441,307.5815,a,1,0.28,,[],[],[],[],[],[],[],0.28,1,307.5816,308.0785,,,,,,636,MAS,AGR,150,error,el,l,,,308.0785,308.0787,-0.027083344,-0.251388921,0,0,0,,0,154,154,185,1,,,,
,,,,,,27698b0ec5dd2d26c92e43c3,66a626ef09d4e21e1a8894ec,6734a0317b6ac1fd3b96085c,2024-11-13_09h59.31.881,Tarea de género gramatical,2024.2.2,Win32,166.6666667,,,,,,,,,,,,,,,,,,,,,,308.0795,309.1465,a,1,0.4122,,[],[],[],[],[],[],[],0.4122,1,309.1466,309.6426,,,,,,773,MAS,DIS,150,marido,la,l,,,309.6435,309.644,-0.027083344,-0.251388921,0,0,0,,0,155,155,322,1,,,,
,,,,,,27698b0ec5dd2d26c92e43c3,66a626ef09d4e21e1a8894ec,6734a0317b6ac1fd3b96085c,2024-11-13_09h59.31.881,Tarea de género gramatical,2024.2.2,Win32,166.6666667,,,,,,,,,,,,,,,,,,,,,,309.6446,310.5814,a,1,0.2746,,[],[],[],[],[],[],[],0.2746,1,310.5816,311.0785,,,,,,868,MAS,CON,150,pájaro,,l,,,311.0785,311.0787,-0.027083344,-0.251388921,0,0,0,,0,156,156,417,1,,,,
,,,,,,27698b0ec5dd2d26c92e43c3,66a626ef09d4e21e1a8894ec,6734a0317b6ac1fd3b96085c,2024-11-13_09h59.31.881,Tarea de género gramatical,2024.2.2,Win32,166.6666667,,,,,,,,,,,,,,,,,,,,,,311.0797,312.0009,l,1,0.2659,,[],[],[],[],[],[],[],0.2659,1,312.001,312.4967,,,,,,753,FEM,AGR,150,maldad,la,a,,,312.4968,312.4969,-0.027083344,-0.251388921,0,0,0,,0,157,157,302,1,,,,
,,,,,,27698b0ec5dd2d26c92e43c3,66a626ef09d4e21e1a8894ec,6734a0317b6ac1fd3b96085c,2024-11-13_09h59.31.881,Tarea de género gramatical,2024.2.2,Win32,166.6666667,,,,,,,,,,,,,,,,,,,,,,312.4977,313.418,a,1,0.2602,,[],[],[],[],[],[],[],0.2602,1,313.418,313.9149,,,,,,484,MAS,CON,150,gato,,l,,,313.915,313.9151,-0.027083344,-0.251388921,0,0,0,,0,158,158,33,1,,,,
,,,,,,27698b0ec5dd2d26c92e43c3,66a626ef09d4e21e1a8894ec,6734a0317b6ac1fd3b96085c,2024-11-13_09h59.31.881,Tarea de género gramatical,2024.2.2,Win32,166.6666667,,,,,,,,,,,,,,,,,,,,,,313.916,314.83,a,1,0.2556,,[],[],[],[],[],[],[],0.2556,1,314.8301,315.327,,,,,,822,MAS,AGR,150,delito,el,l,,,315.3281,315.3287,-0.027083344,-0.251388921,0,0,0,,0,159,159,371,1,,,,
,,,,,,27698b0ec5dd2d26c92e43c3,66a626ef09d4e21e1a8894ec,6734a0317b6ac1fd3b96085c,2024-11-13_09h59.31.881,Tarea de género gramatical,2024.2.2,Win32,166.6666667,,,,,,,,,,,,,,,,,,,,,,315.3293,316.244,a,1,0.2558,,[],[],[],[],[],[],[],0.2558,1,316.244,316.7458,,,,,,611,MAS,DIS,150,chico,la,l,,,316.7459,316.7459,-0.027083344,-0.251388921,0,0,0,,0,160,160,160,1,,,,
,,,,,,27698b0ec5dd2d26c92e43c3,66a626ef09d4e21e1a8894ec,6734a0317b6ac1fd3b96085c,2024-11-13_09h59.31.881,Tarea de género gramatical,2024.2.2,Win32,166.6666667,,,,,,,,,,,,,,,,,,,,,,316.7467,317.7392,l,1,0.3304,,[],[],[],[],[],[],[],0.3304,1,317.7393,318.2362,,,,,,615,FEM,AGR,150,amiga,la,a,,,318.2362,318.2363,-0.027083344,-0.251388921,0,0,0,,0,161,161,164,1,,,,
,,,,,,27698b0ec5dd2d26c92e43c3,66a626ef09d4e21e1a8894ec,6734a0317b6ac1fd3b96085c,2024-11-13_09h59.31.881,Tarea de género gramatical,2024.2.2,Win32,166.6666667,,,,,,,,,,,,,,,,,,,,,,318.2373,319.2543,a,1,0.3572,,[],[],[],[],[],[],[],0.3572,1,319.2545,319.7513,,,,,,660,MAS,AGR,150,baile,el,l,,,319.7513,319.7514,-0.027083344,-0.251388921,0,0,0,,0,162,162,209,1,,,,
,,,,,,27698b0ec5dd2d26c92e43c3,66a626ef09d4e21e1a8894ec,6734a0317b6ac1fd3b96085c,2024-11-13_09h59.31.881,Tarea de género gramatical,2024.2.2,Win32,166.6666667,,,,,,,,,,,,,,,,,,,,,,319.7524,320.7414,a,0,0.3272,,[],[],[],[],[],[],[],0.3272,0,320.7422,321.2423,,,,,,861,FEM,AGR,150,actriz,la,a,,,321.2424,321.2424,-0.027083344,-0.251388921,0,0,0,,0,163,163,410,1,,,,
,,,,,,27698b0ec5dd2d26c92e43c3,66a626ef09d4e21e1a8894ec,6734a0317b6ac1fd3b96085c,2024-11-13_09h59.31.881,Tarea de género gramatical,2024.2.2,Win32,166.6666667,,,,,,,,,,,,,,,,,,,,,,321.2435,322.2192,l,0,0.3217,,[],[],[],[],[],[],[],0.3217,0,322.2193,322.7149,,,,,,827,MAS,DIS,150,jardín,la,l,,,322.7161,322.717,-0.027083344,-0.251388921,0,0,0,,0,164,164,376,1,,,,
,,,,,,27698b0ec5dd2d26c92e43c3,66a626ef09d4e21e1a8894ec,6734a0317b6ac1fd3b96085c,2024-11-13_09h59.31.881,Tarea de género gramatical,2024.2.2,Win32,166.6666667,,,,,,,,,,,,,,,,,,,,,,322.7176,323.6665,l,1,0.2945,,[],[],[],[],[],[],[],0.2945,1,323.6671,324.1642,,,,,,877,FEM,CON,150,agenda,,a,,,324.1643,324.1643,-0.027083344,-0.251388921,0,0,0,,0,165,165,426,1,,,,
,,,,,,27698b0ec5dd2d26c92e43c3,66a626ef09d4e21e1a8894ec,6734a0317b6ac1fd3b96085c,2024-11-13_09h59.31.881,Tarea de género gramatical,2024.2.2,Win32,166.6666667,,,,,,,,,,,,,,,,,,,,,,324.1653,325.2189,a,0,0.3944,,[],[],[],[],[],[],[],0.3944,0,325.2196,325.7151,,,,,,566,FEM,DIS,150,nube,el,a,,,325.7152,325.7152,-0.027083344,-0.251388921,0,0,0,,0,166,166,115,1,,,,
,,,,,,27698b0ec5dd2d26c92e43c3,66a626ef09d4e21e1a8894ec,6734a0317b6ac1fd3b96085c,2024-11-13_09h59.31.881,Tarea de género gramatical,2024.2.2,Win32,166.6666667,,,,,,,,,,,,,,,,,,,,,,325.7161,326.7151,a,0,0.3425,,[],[],[],[],[],[],[],0.3425,0,326.7152,327.2119,,,,,,847,FEM,CON,150,cuerda,,a,,,327.2119,327.212,-0.027083344,-0.251388921,0,0,0,,0,167,167,396,1,,,,
,,,,,,27698b0ec5dd2d26c92e43c3,66a626ef09d4e21e1a8894ec,6734a0317b6ac1fd3b96085c,2024-11-13_09h59.31.881,Tarea de género gramatical,2024.2.2,Win32,166.6666667,,,,,,,,,,,,,,,,,,,,,,327.2128,328.2061,a,1,0.3291,,[],[],[],[],[],[],[],0.3291,1,328.2067,328.7042,,,,,,600,MAS,AGR,150,mozo,el,l,,,328.705,328.7056,-0.027083344,-0.251388921,0,0,0,,0,168,168,149,1,,,,
,,,,,,27698b0ec5dd2d26c92e43c3,66a626ef09d4e21e1a8894ec,6734a0317b6ac1fd3b96085c,2024-11-13_09h59.31.881,Tarea de género gramatical,2024.2.2,Win32,166.6666667,,,,,,,,,,,,,,,,,,,,,,328.7061,329.7046,l,1,0.3434,,[],[],[],[],[],[],[],0.3434,1,329.7047,330.2062,,,,,,841,FEM,CON,150,altura,,a,,,330.2063,330.2064,-0.027083344,-0.251388921,0,0,0,,0,169,169,390,1,,,,
,,,,,,27698b0ec5dd2d26c92e43c3,66a626ef09d4e21e1a8894ec,6734a0317b6ac1fd3b96085c,2024-11-13_09h59.31.881,Tarea de género gramatical,2024.2.2,Win32,166.6666667,,,,,,,,,,,,,,,,,,,,,,330.2074,331.1878,l,1,0.318,,[],[],[],[],[],[],[],0.318,1,331.1879,331.6849,,,,,,680,FEM,DIS,150,regla,el,a,,,331.6849,331.685,-0.027083344,-0.251388921,0,0,0,,0,170,170,229,1,,,,
,,,,,,27698b0ec5dd2d26c92e43c3,66a626ef09d4e21e1a8894ec,6734a0317b6ac1fd3b96085c,2024-11-13_09h59.31.881,Tarea de género gramatical,2024.2.2,Win32,166.6666667,,,,,,,,,,,,,,,,,,,,,,331.6862,332.7587,a,0,0.4119,,[],[],[],[],[],[],[],0.4119,0,332.7593,333.2545,,,,,,609,FEM,AGR,150,clase,la,a,,,333.2545,333.2546,-0.027083344,-0.251388921,0,0,0,,0,171,171,158,1,,,,
,,,,,,27698b0ec5dd2d26c92e43c3,66a626ef09d4e21e1a8894ec,6734a0317b6ac1fd3b96085c,2024-11-13_09h59.31.881,Tarea de género gramatical,2024.2.2,Win32,166.6666667,,,,,,,,,,,,,,,,,,,,,,333.2554,334.3273,l,1,0.4097,,[],[],[],[],[],[],[],0.4097,1,334.328,334.8248,,,,,,525,FEM,AGR,150,caza,la,a,,,334.8249,334.8249,-0.027083344,-0.251388921,0,0,0,,0,172,172,74,1,,,,
,,,,,,27698b0ec5dd2d26c92e43c3,66a626ef09d4e21e1a8894ec,6734a0317b6ac1fd3b96085c,2024-11-13_09h59.31.881,Tarea de género gramatical,2024.2.2,Win32,166.6666667,,,,,,,,,,,,,,,,,,,,,,334.826,335.8789,a,1,0.3934,,[],[],[],[],[],[],[],0.3934,1,335.8791,336.3756,,,,,,882,MAS,AGR,150,océano,el,l,,,336.3767,336.3772,-0.027083344,-0.251388921,0,0,0,,0,173,173,431,1,,,,
,,,,,,27698b0ec5dd2d26c92e43c3,66a626ef09d4e21e1a8894ec,6734a0317b6ac1fd3b96085c,2024-11-13_09h59.31.881,Tarea de género gramatical,2024.2.2,Win32,166.6666667,,,,,,,,,,,,,,,,,,,,,,336.3777,337.2666,l,1,0.2325,,[],[],[],[],[],[],[],0.2325,1,337.2667,337.7653,,,,,,643,FEM,CON,150,bolsa,,a,,,337.7653,337.7654,-0.027083344,-0.251388921,0,0,0,,0,174,174,192,1,,,,
,,,,,,27698b0ec5dd2d26c92e43c3,66a626ef09d4e21e1a8894ec,6734a0317b6ac1fd3b96085c,2024-11-13_09h59.31.881,Tarea de género gramatical,2024.2.2,Win32,166.6666667,,,,,,,,,,,,,,,,,,,,,,337.7663,338.7092,a,1,0.2849,,[],[],[],[],[],[],[],0.2849,1,338.7093,339.2064,,,,,,634,MAS,CON,150,cielo,,l,,,339.2064,339.2065,-0.027083344,-0.251388921,0,0,0,,0,175,175,183,1,,,,
,,,,,,27698b0ec5dd2d26c92e43c3,66a626ef09d4e21e1a8894ec,6734a0317b6ac1fd3b96085c,2024-11-13_09h59.31.881,Tarea de género gramatical,2024.2.2,Win32,166.6666667,,,,,,,,,,,,,,,,,,,,,,339.2073,340.1577,l,1,0.2807,,[],[],[],[],[],[],[],0.2807,1,340.1578,340.6547,,,,,,512,FEM,DIS,150,sopa,el,a,,,340.6547,340.6548,-0.027083344,-0.251388921,0,0,0,,0,176,176,61,1,,,,
,,,,,,27698b0ec5dd2d26c92e43c3,66a626ef09d4e21e1a8894ec,6734a0317b6ac1fd3b96085c,2024-11-13_09h59.31.881,Tarea de género gramatical,2024.2.2,Win32,166.6666667,,,,,,,,,,,,,,,,,,,,,,340.6558,341.5879,a,1,0.2749,,[],[],[],[],[],[],[],0.2749,1,341.5881,342.0849,,,,,,467,MAS,DIS,150,modo,la,l,,,342.0858,342.0865,-0.027083344,-0.251388921,0,0,0,,0,177,177,16,1,,,,
,,,,,,27698b0ec5dd2d26c92e43c3,66a626ef09d4e21e1a8894ec,6734a0317b6ac1fd3b96085c,2024-11-13_09h59.31.881,Tarea de género gramatical,2024.2.2,Win32,166.6666667,,,,,,,,,,,,,,,,,,,,,,342.087,343.0436,a,1,0.3021,,[],[],[],[],[],[],[],0.3021,1,343.0437,343.5396,,,,,,815,MAS,DIS,150,código,la,l,,,343.5396,343.5397,-0.027083344,-0.251388921,0,0,0,,0,178,178,364,1,,,,
,,,,,,27698b0ec5dd2d26c92e43c3,66a626ef09d4e21e1a8894ec,6734a0317b6ac1fd3b96085c,2024-11-13_09h59.31.881,Tarea de género gramatical,2024.2.2,Win32,166.6666667,,,,,,,,,,,,,,,,,,,,,,343.5406,344.6077,l,1,0.412,,[],[],[],[],[],[],[],0.412,1,344.6078,345.1039,,,,,,788,FEM,DIS,150,abuela,el,a,,,345.1039,345.104,-0.027083344,-0.251388921,0,0,0,,0,179,179,337,1,,,,
,,,,,,27698b0ec5dd2d26c92e43c3,66a626ef09d4e21e1a8894ec,6734a0317b6ac1fd3b96085c,2024-11-13_09h59.31.881,Tarea de género gramatical,2024.2.2,Win32,166.6666667,,,,,,,,,,,,,,,,,,,,,,345.1047,346.1518,l,1,0.3824,,[],[],[],[],[],[],[],0.3824,1,346.1518,346.65,,,,,,836,FEM,DIS,150,sombra,el,a,,,346.65,346.6501,-0.027083344,-0.251388921,0,0,0,,0,180,180,385,1,,,,
,,,,,,27698b0ec5dd2d26c92e43c3,66a626ef09d4e21e1a8894ec,6734a0317b6ac1fd3b96085c,2024-11-13_09h59.31.881,Tarea de género gramatical,2024.2.2,Win32,166.6666667,,,,,,,,,,,,,,,,,,,,,,346.6511,347.6133,l,1,0.3022,,[],[],[],[],[],[],[],0.3022,1,347.6134,348.1094,,,,,,513,FEM,AGR,150,fila,la,a,,,348.1095,348.1096,-0.027083344,-0.251388921,0,0,0,,0,181,181,62,1,,,,
,,,,,,27698b0ec5dd2d26c92e43c3,66a626ef09d4e21e1a8894ec,6734a0317b6ac1fd3b96085c,2024-11-13_09h59.31.881,Tarea de género gramatical,2024.2.2,Win32,166.6666667,,,,,,,,,,,,,,,,,,,,,,348.1106,350.7579,,0,,,[],[],[],[],[],[],[],0.3022,-1,350.759,351.255,,,,,,832,MAS,CON,150,teatro,,l,,,351.2563,351.2572,-0.027083344,-0.251388921,0,0,0,,0,182,182,381,1,,,,
,,,,,,27698b0ec5dd2d26c92e43c3,66a626ef09d4e21e1a8894ec,6734a0317b6ac1fd3b96085c,2024-11-13_09h59.31.881,Tarea de género gramatical,2024.2.2,Win32,166.6666667,,,,,,,,,,,,,,,,,,,,,,351.258,353.4922,a,1,1.5761,,[],[],[],[],[],[],[],1.5761,1,353.4931,353.9883,,,,,,556,MAS,CON,150,test,,l,,,353.9883,353.9884,-0.027083344,-0.251388921,0,0,0,,0,183,183,105,1,,,,
,,,,,,27698b0ec5dd2d26c92e43c3,66a626ef09d4e21e1a8894ec,6734a0317b6ac1fd3b96085c,2024-11-13_09h59.31.881,Tarea de género gramatical,2024.2.2,Win32,166.6666667,,,,,,,,,,,,,,,,,,,,,,353.9894,355.2549,a,1,0.6069,,[],[],[],[],[],[],[],0.6069,1,355.2551,355.7528,,,,,,828,MAS,AGR,150,pastel,el,l,,,355.7529,355.753,-0.027083344,-0.251388921,0,0,0,,0,184,184,377,1,,,,
,,,,,,27698b0ec5dd2d26c92e43c3,66a626ef09d4e21e1a8894ec,6734a0317b6ac1fd3b96085c,2024-11-13_09h59.31.881,Tarea de género gramatical,2024.2.2,Win32,166.6666667,,,,,,,,,,,,,,,,,,,,,,355.7541,357.1156,l,0,0.7067,,[],[],[],[],[],[],[],0.7067,0,357.1165,357.6125,,,,,,732,MAS,AGR,150,bolso,el,l,,,357.6126,357.6126,-0.027083344,-0.251388921,0,0,0,,0,185,185,281,1,,,,
,,,,,,27698b0ec5dd2d26c92e43c3,66a626ef09d4e21e1a8894ec,6734a0317b6ac1fd3b96085c,2024-11-13_09h59.31.881,Tarea de género gramatical,2024.2.2,Win32,166.6666667,,,,,,,,,,,,,,,,,,,,,,357.6134,358.6369,l,1,0.3651,,[],[],[],[],[],[],[],0.3651,1,358.6375,359.1349,,,,,,885,FEM,AGR,150,niebla,la,a,,,359.1358,359.1364,-0.027083344,-0.251388921,0,0,0,,0,186,186,434,1,,,,
,,,,,,27698b0ec5dd2d26c92e43c3,66a626ef09d4e21e1a8894ec,6734a0317b6ac1fd3b96085c,2024-11-13_09h59.31.881,Tarea de género gramatical,2024.2.2,Win32,166.6666667,,,,,,,,,,,,,,,,,,,,,,359.1368,360.1109,a,1,0.3152,,[],[],[],[],[],[],[],0.3152,1,360.1109,360.6136,,,,,,473,MAS,DIS,150,rato,la,l,,,360.6136,360.6137,-0.027083344,-0.251388921,0,0,0,,0,187,187,22,1,,,,
,,,,,,27698b0ec5dd2d26c92e43c3,66a626ef09d4e21e1a8894ec,6734a0317b6ac1fd3b96085c,2024-11-13_09h59.31.881,Tarea de género gramatical,2024.2.2,Win32,166.6666667,,,,,,,,,,,,,,,,,,,,,,360.6148,361.6742,a,1,0.4025,,[],[],[],[],[],[],[],0.4025,1,361.6743,362.1701,,,,,,564,MAS,AGR,150,menú,el,l,,,362.1702,362.1703,-0.027083344,-0.251388921,0,0,0,,0,188,188,113,1,,,,
,,,,,,27698b0ec5dd2d26c92e43c3,66a626ef09d4e21e1a8894ec,6734a0317b6ac1fd3b96085c,2024-11-13_09h59.31.881,Tarea de género gramatical,2024.2.2,Win32,166.6666667,,,,,,,,,,,,,,,,,,,,,,362.1712,363.164,l,1,0.3308,,[],[],[],[],[],[],[],0.3308,1,363.164,363.661,,,,,,553,FEM,CON,150,fama,,a,,,363.661,363.661,-0.027083344,-0.251388921,0,0,0,,0,189,189,102,1,,,,
,,,,,,27698b0ec5dd2d26c92e43c3,66a626ef09d4e21e1a8894ec,6734a0317b6ac1fd3b96085c,2024-11-13_09h59.31.881,Tarea de género gramatical,2024.2.2,Win32,166.6666667,,,,,,,,,,,,,,,,,,,,,,363.6618,364.6938,a,0,0.3749,,[],[],[],[],[],[],[],0.3749,0,364.6945,365.1943,,,,,,817,FEM,CON,150,teoría,,a,,,365.1944,365.1945,-0.027083344,-0.251388921,0,0,0,,0,190,190,366,1,,,,
,,,,,,27698b0ec5dd2d26c92e43c3,66a626ef09d4e21e1a8894ec,6734a0317b6ac1fd3b96085c,2024-11-13_09h59.31.881,Tarea de género gramatical,2024.2.2,Win32,166.6666667,,,,,,,,,,,,,,,,,,,,,,365.1952,366.2429,a,0,0.3915,,[],[],[],[],[],[],[],0.3915,0,366.2429,366.7402,,,,,,781,FEM,CON,150,cárcel,,a,,,366.7412,366.7418,-0.027083344,-0.251388921,0,0,0,,0,191,191,330,1,,,,
,,,,,,27698b0ec5dd2d26c92e43c3,66a626ef09d4e21e1a8894ec,6734a0317b6ac1fd3b96085c,2024-11-13_09h59.31.881,Tarea de género gramatical,2024.2.2,Win32,166.6666667,,,,,,,,,,,,,,,,,,,,,,366.7424,367.7884,a,1,0.3894,,[],[],[],[],[],[],[],0.3894,1,367.7892,368.2853,,,,,,887,MAS,DIS,150,hombro,la,l,,,368.2853,368.2854,-0.027083344,-0.251388921,0,0,0,,0,192,192,436,1,,,,
,,,,,,27698b0ec5dd2d26c92e43c3,66a626ef09d4e21e1a8894ec,6734a0317b6ac1fd3b96085c,2024-11-13_09h59.31.881,Tarea de género gramatical,2024.2.2,Win32,166.6666667,,,,,,,,,,,,,,,,,,,,,,368.2863,369.4369,a,1,0.4872,,[],[],[],[],[],[],[],0.4872,1,369.4369,369.9348,,,,,,851,MAS,DIS,150,abrigo,la,l,,,369.9348,369.935,-0.027083344,-0.251388921,0,0,0,,0,193,193,400,1,,,,
,,,,,,27698b0ec5dd2d26c92e43c3,66a626ef09d4e21e1a8894ec,6734a0317b6ac1fd3b96085c,2024-11-13_09h59.31.881,Tarea de género gramatical,2024.2.2,Win32,166.6666667,,,,,,,,,,,,,,,,,,,,,,369.9359,371.0984,l,1,0.5036,,[],[],[],[],[],[],[],0.5036,1,371.0985,371.5964,,,,,,458,FEM,DIS,150,idea,el,a,,,371.5964,371.5965,-0.027083344,-0.251388921,0,0,0,,0,194,194,7,1,,,,
,,,,,,27698b0ec5dd2d26c92e43c3,66a626ef09d4e21e1a8894ec,6734a0317b6ac1fd3b96085c,2024-11-13_09h59.31.881,Tarea de género gramatical,2024.2.2,Win32,166.6666667,,,,,,,,,,,,,,,,,,,,,,371.5972,372.5227,l,1,0.2668,,[],[],[],[],[],[],[],0.2668,1,372.5227,373.0186,,,,,,825,FEM,AGR,150,cadena,la,a,,,373.0195,373.0201,-0.027083344,-0.251388921,0,0,0,,0,195,195,374,1,,,,
,,,,,,27698b0ec5dd2d26c92e43c3,66a626ef09d4e21e1a8894ec,6734a0317b6ac1fd3b96085c,2024-11-13_09h59.31.881,Tarea de género gramatical,2024.2.2,Win32,166.6666667,,,,,,,,,,,,,,,,,,,,,,373.0207,374.0993,l,1,0.4241,,[],[],[],[],[],[],[],0.4241,1,374.0996,374.6018,,,,,,625,FEM,CON,150,señal,,a,,,374.6018,374.6019,-0.027083344,-0.251388921,0,0,0,,0,196,196,174,1,,,,
,,,,,,27698b0ec5dd2d26c92e43c3,66a626ef09d4e21e1a8894ec,6734a0317b6ac1fd3b96085c,2024-11-13_09h59.31.881,Tarea de género gramatical,2024.2.2,Win32,166.6666667,,,,,,,,,,,,,,,,,,,,,,374.6029,375.6218,a,1,0.3599,,[],[],[],[],[],[],[],0.3599,1,375.6219,376.1225,,,,,,472,MAS,CON,150,pelo,,l,,,376.1226,376.1227,-0.027083344,-0.251388921,0,0,0,,0,197,197,21,1,,,,
,,,,,,27698b0ec5dd2d26c92e43c3,66a626ef09d4e21e1a8894ec,6734a0317b6ac1fd3b96085c,2024-11-13_09h59.31.881,Tarea de género gramatical,2024.2.2,Win32,166.6666667,,,,,,,,,,,,,,,,,,,,,,376.1233,377.0856,a,1,0.303,,[],[],[],[],[],[],[],0.303,1,377.0856,377.5836,,,,,,478,MAS,CON,150,club,,l,,,377.5836,377.5837,-0.027083344,-0.251388921,0,0,0,,0,198,198,27,1,,,,
,,,,,,27698b0ec5dd2d26c92e43c3,66a626ef09d4e21e1a8894ec,6734a0317b6ac1fd3b96085c,2024-11-13_09h59.31.881,Tarea de género gramatical,2024.2.2,Win32,166.6666667,,,,,,,,,,,,,,,,,,,,,,377.5845,378.6069,a,1,0.3625,,[],[],[],[],[],[],[],0.3625,1,378.6069,379.1106,,,,,,594,MAS,AGR,150,amor,el,l,,,379.1106,379.1106,-0.027083344,-0.251388921,0,0,0,,0,199,199,143,1,,,,
,,,,,,27698b0ec5dd2d26c92e43c3,66a626ef09d4e21e1a8894ec,6734a0317b6ac1fd3b96085c,2024-11-13_09h59.31.881,Tarea de género gramatical,2024.2.2,Win32,166.6666667,,,,,,,,,,,,,,,,,,,,,,379.1114,380.141,a,1,0.3739,,[],[],[],[],[],[],[],0.3739,1,380.141,380.6373,,,,,,582,MAS,AGR,150,velo,el,l,,,380.6385,380.6398,-0.027083344,-0.251388921,0,0,0,,0,200,200,131,1,,,,
,,,,,,27698b0ec5dd2d26c92e43c3,66a626ef09d4e21e1a8894ec,6734a0317b6ac1fd3b96085c,2024-11-13_09h59.31.881,Tarea de género gramatical,2024.2.2,Win32,166.6666667,,,,,,,,,,,,,,,,,,,,,,380.641,381.5715,a,1,0.2733,,[],[],[],[],[],[],[],0.2733,1,381.5715,382.0673,,,,,,474,MAS,AGR,150,voto,el,l,,,382.0674,382.0675,-0.027083344,-0.251388921,0,0,0,,0,201,201,23,1,,,,
,,,,,,27698b0ec5dd2d26c92e43c3,66a626ef09d4e21e1a8894ec,6734a0317b6ac1fd3b96085c,2024-11-13_09h59.31.881,Tarea de género gramatical,2024.2.2,Win32,166.6666667,,,,,,,,,,,,,,,,,,,,,,382.0684,383.0188,l,1,0.2942,,[],[],[],[],[],[],[],0.2942,1,383.0189,383.5158,,,,,,577,FEM,CON,150,cuna,,a,,,383.5159,383.5159,-0.027083344,-0.251388921,0,0,0,,0,202,202,126,1,,,,
,,,,,,27698b0ec5dd2d26c92e43c3,66a626ef09d4e21e1a8894ec,6734a0317b6ac1fd3b96085c,2024-11-13_09h59.31.881,Tarea de género gramatical,2024.2.2,Win32,166.6666667,,,,,,,,,,,,,,,,,,,,,,383.5168,384.4684,a,1,0.2912,,[],[],[],[],[],[],[],0.2912,1,384.4685,384.9643,,,,,,797,MAS,DIS,150,cuello,la,l,,,384.9644,384.9644,-0.027083344,-0.251388921,0,0,0,,0,203,203,346,1,,,,
,,,,,,27698b0ec5dd2d26c92e43c3,66a626ef09d4e21e1a8894ec,6734a0317b6ac1fd3b96085c,2024-11-13_09h59.31.881,Tarea de género gramatical,2024.2.2,Win32,166.6666667,,,,,,,,,,,,,,,,,,,,,,384.9652,385.8989,a,1,0.2778,,[],[],[],[],[],[],[],0.2778,1,385.899,386.3947,,,,,,742,MAS,CON,150,piano,,l,,,386.3958,386.3965,-0.027083344,-0.251388921,0,0,0,,0,204,204,291,1,,,,
,,,,,,27698b0ec5dd2d26c92e43c3,66a626ef09d4e21e1a8894ec,6734a0317b6ac1fd3b96085c,2024-11-13_09h59.31.881,Tarea de género gramatical,2024.2.2,Win32,166.6666667,,,,,,,,,,,,,,,,,,,,,,386.397,387.3705,a,1,0.314,,[],[],[],[],[],[],[],0.314,1,387.3705,387.8673,,,,,,768,MAS,AGR,150,pueblo,el,l,,,387.8675,387.8675,-0.027083344,-0.251388921,0,0,0,,0,205,205,317,1,,,,
,,,,,,27698b0ec5dd2d26c92e43c3,66a626ef09d4e21e1a8894ec,6734a0317b6ac1fd3b96085c,2024-11-13_09h59.31.881,Tarea de género gramatical,2024.2.2,Win32,166.6666667,,,,,,,,,,,,,,,,,,,,,,387.8686,388.814,l,1,0.2904,,[],[],[],[],[],[],[],0.2904,1,388.814,389.31,,,,,,878,FEM,DIS,150,jugada,el,a,,,389.31,389.3101,-0.027083344,-0.251388921,0,0,0,,0,206,206,427,1,,,,
,,,,,,27698b0ec5dd2d26c92e43c3,66a626ef09d4e21e1a8894ec,6734a0317b6ac1fd3b96085c,2024-11-13_09h59.31.881,Tarea de género gramatical,2024.2.2,Win32,166.6666667,,,,,,,,,,,,,,,,,,,,,,389.3112,390.2318,a,1,0.2601,,[],[],[],[],[],[],[],0.2601,1,390.232,390.7289,,,,,,540,MAS,AGR,150,león,el,l,,,390.7289,390.729,-0.027083344,-0.251388921,0,0,0,,0,207,207,89,1,,,,
,,,,,,27698b0ec5dd2d26c92e43c3,66a626ef09d4e21e1a8894ec,6734a0317b6ac1fd3b96085c,2024-11-13_09h59.31.881,Tarea de género gramatical,2024.2.2,Win32,166.6666667,,,,,,,,,,,,,,,,,,,,,,390.7297,391.7349,a,1,0.3459,,[],[],[],[],[],[],[],0.3459,1,391.735,392.2311,,,,,,455,MAS,DIS,150,tipo,la,l,,,392.2312,392.2313,-0.027083344,-0.251388921,0,0,0,,0,208,208,4,1,,,,
,,,,,,27698b0ec5dd2d26c92e43c3,66a626ef09d4e21e1a8894ec,6734a0317b6ac1fd3b96085c,2024-11-13_09h59.31.881,Tarea de género gramatical,2024.2.2,Win32,166.6666667,,,,,,,,,,,,,,,,,,,,,,392.2321,393.1825,a,1,0.2934,,[],[],[],[],[],[],[],0.2934,1,393.1826,393.6797,,,,,,814,MAS,CON,150,viento,,l,,,393.6811,393.6821,-0.027083344,-0.251388921,0,0,0,,0,209,209,363,1,,,,
,,,,,,27698b0ec5dd2d26c92e43c3,66a626ef09d4e21e1a8894ec,6734a0317b6ac1fd3b96085c,2024-11-13_09h59.31.881,Tarea de género gramatical,2024.2.2,Win32,166.6666667,,,,,,,,,,,,,,,,,,,,,,393.6831,394.619,a,1,0.2773,,[],[],[],[],[],[],[],0.2773,1,394.6191,395.1161,,,,,,880,MAS,CON,150,título,,l,,,395.1161,395.1162,-0.027083344,-0.251388921,0,0,0,,0,210,210,429,1,,,,
,,,,,,27698b0ec5dd2d26c92e43c3,66a626ef09d4e21e1a8894ec,6734a0317b6ac1fd3b96085c,2024-11-13_09h59.31.881,Tarea de género gramatical,2024.2.2,Win32,166.6666667,,,,,,,,,,,,,,,,,,,,,,395.117,396.3101,a,0,0.5341,,[],[],[],[],[],[],[],0.5341,0,396.3108,396.8079,,,,,,758,FEM,DIS,150,semana,el,a,,,396.808,396.808,-0.027083344,-0.251388921,0,0,0,,0,211,211,307,1,,,,
,,,,,,27698b0ec5dd2d26c92e43c3,66a626ef09d4e21e1a8894ec,6734a0317b6ac1fd3b96085c,2024-11-13_09h59.31.881,Tarea de género gramatical,2024.2.2,Win32,166.6666667,,,,,,,,,,,,,,,,,,,,,,396.8091,397.76,a,1,0.291,,[],[],[],[],[],[],[],0.291,1,397.7609,398.2615,,,,,,725,MAS,DIS,150,disco,la,l,,,398.2616,398.2617,-0.027083344,-0.251388921,0,0,0,,0,212,212,274,1,,,,
,,,,,,27698b0ec5dd2d26c92e43c3,66a626ef09d4e21e1a8894ec,6734a0317b6ac1fd3b96085c,2024-11-13_09h59.31.881,Tarea de género gramatical,2024.2.2,Win32,166.6666667,,,,,,,,,,,,,,,,,,,,,,398.2628,399.2191,a,1,0.295,,[],[],[],[],[],[],[],0.295,1,399.2192,399.7162,,,,,,570,MAS,AGR,150,puño,el,l,,,399.7169,399.7174,-0.027083344,-0.251388921,0,0,0,,0,213,213,119,1,,,,
,,,,,,27698b0ec5dd2d26c92e43c3,66a626ef09d4e21e1a8894ec,6734a0317b6ac1fd3b96085c,2024-11-13_09h59.31.881,Tarea de género gramatical,2024.2.2,Win32,166.6666667,,,,,,,,,,,,,,,,,,,,,,399.7179,400.7706,a,0,0.3908,,[],[],[],[],[],[],[],0.3908,0,400.7713,401.2682,,,,,,763,FEM,CON,150,ciudad,,a,,,401.2683,401.2683,-0.027083344,-0.251388921,0,0,0,,0,214,214,312,1,,,,
,,,,,,27698b0ec5dd2d26c92e43c3,66a626ef09d4e21e1a8894ec,6734a0317b6ac1fd3b96085c,2024-11-13_09h59.31.881,Tarea de género gramatical,2024.2.2,Win32,166.6666667,,,,,,,,,,,,,,,,,,,,,,401.2691,402.292,a,1,0.3657,,[],[],[],[],[],[],[],0.3657,1,402.2928,402.7908,,,,,,862,MAS,CON,150,espejo,,l,,,402.7908,402.7909,-0.027083344,-0.251388921,0,0,0,,0,215,215,411,1,,,,
,,,,,,27698b0ec5dd2d26c92e43c3,66a626ef09d4e21e1a8894ec,6734a0317b6ac1fd3b96085c,2024-11-13_09h59.31.881,Tarea de género gramatical,2024.2.2,Win32,166.6666667,,,,,,,,,,,,,,,,,,,,,,402.7919,403.7707,l,1,0.3251,,[],[],[],[],[],[],[],0.3251,1,403.7709,404.2677,,,,,,884,FEM,DIS,150,corona,el,a,,,404.2677,404.2678,-0.027083344,-0.251388921,0,0,0,,0,216,216,433,1,,,,
,,,,,,27698b0ec5dd2d26c92e43c3,66a626ef09d4e21e1a8894ec,6734a0317b6ac1fd3b96085c,2024-11-13_09h59.31.881,Tarea de género gramatical,2024.2.2,Win32,166.6666667,,,,,,,,,,,,,,,,,,,,,,404.2687,405.2325,l,1,0.3101,,[],[],[],[],[],[],[],0.3101,1,405.2326,405.7283,,,,,,890,FEM,DIS,150,patada,el,a,,,405.7284,405.7285,-0.027083344,-0.251388921,0,0,0,,0,217,217,439,1,,,,
,,,,,,27698b0ec5dd2d26c92e43c3,66a626ef09d4e21e1a8894ec,6734a0317b6ac1fd3b96085c,2024-11-13_09h59.31.881,Tarea de género gramatical,2024.2.2,Win32,166.6666667,,,,,,,,,,,,,,,,,,,,,,405.7294,406.7101,l,1,0.3172,,[],[],[],[],[],[],[],0.3172,1,406.7103,407.2087,,,,,,595,FEM,CON,150,bota,,a,,,407.2097,407.2104,-0.027083344,-0.251388921,0,0,0,,0,218,218,144,1,,,,
,,,,,,27698b0ec5dd2d26c92e43c3,66a626ef09d4e21e1a8894ec,6734a0317b6ac1fd3b96085c,2024-11-13_09h59.31.881,Tarea de género gramatical,2024.2.2,Win32,166.6666667,,,,,,,,,,,,,,,,,,,,,,407.211,408.1479,a,1,0.2844,,[],[],[],[],[],[],[],0.2844,1,408.148,408.6435,,,,,,479,MAS,DIS,150,frío,la,l,,,408.6436,408.6437,-0.027083344,-0.251388921,0,0,0,,0,219,219,28,1,,,,
,,,,,,27698b0ec5dd2d26c92e43c3,66a626ef09d4e21e1a8894ec,6734a0317b6ac1fd3b96085c,2024-11-13_09h59.31.881,Tarea de género gramatical,2024.2.2,Win32,166.6666667,,,,,,,,,,,,,,,,,,,,,,408.6446,409.6202,a,1,0.3174,,[],[],[],[],[],[],[],0.3174,1,409.6203,410.1164,,,,,,730,MAS,CON,150,salón,,l,,,410.1164,410.1165,-0.027083344,-0.251388921,0,0,0,,0,220,220,279,1,,,,
,,,,,,27698b0ec5dd2d26c92e43c3,66a626ef09d4e21e1a8894ec,6734a0317b6ac1fd3b96085c,2024-11-13_09h59.31.881,Tarea de género gramatical,2024.2.2,Win32,166.6666667,,,,,,,,,,,,,,,,,,,,,,410.1174,411.0385,a,1,0.2606,,[],[],[],[],[],[],[],0.2606,1,411.0386,411.5344,,,,,,804,MAS,AGR,150,camión,el,l,,,411.5344,411.5346,-0.027083344,-0.251388921,0,0,0,,0,221,221,353,1,,,,
,,,,,,27698b0ec5dd2d26c92e43c3,66a626ef09d4e21e1a8894ec,6734a0317b6ac1fd3b96085c,2024-11-13_09h59.31.881,Tarea de género gramatical,2024.2.2,Win32,166.6666667,,,,,,,,,,,,,,,,,,,,,,411.5353,412.5103,l,1,0.3104,,[],[],[],[],[],[],[],0.3104,1,412.5105,413.0079,,,,,,687,FEM,AGR,150,ducha,la,a,,,413.0089,413.0094,-0.027083344,-0.251388921,0,0,0,,0,222,222,236,1,,,,
,,,,,,27698b0ec5dd2d26c92e43c3,66a626ef09d4e21e1a8894ec,6734a0317b6ac1fd3b96085c,2024-11-13_09h59.31.881,Tarea de género gramatical,2024.2.2,Win32,166.6666667,,,,,,,,,,,,,,,,,,,,,,413.01,413.9892,l,1,0.3227,,[],[],[],[],[],[],[],0.3227,1,413.9893,414.4868,,,,,,693,FEM,AGR,150,salsa,la,a,,,414.4868,414.4869,-0.027083344,-0.251388921,0,0,0,,0,223,223,242,1,,,,
,,,,,,27698b0ec5dd2d26c92e43c3,66a626ef09d4e21e1a8894ec,6734a0317b6ac1fd3b96085c,2024-11-13_09h59.31.881,Tarea de género gramatical,2024.2.2,Win32,166.6666667,,,,,,,,,,,,,,,,,,,,,,414.4879,415.4679,a,1,0.3235,,[],[],[],[],[],[],[],0.3235,1,415.468,415.9648,,,,,,629,MAS,DIS,150,viaje,la,l,,,415.9649,415.965,-0.027083344,-0.251388921,0,0,0,,0,224,224,178,1,,,,
,,,,,,27698b0ec5dd2d26c92e43c3,66a626ef09d4e21e1a8894ec,6734a0317b6ac1fd3b96085c,2024-11-13_09h59.31.881,Tarea de género gramatical,2024.2.2,Win32,166.6666667,,,,,,,,,,,,,,,,,,,,,,415.9657,417.0392,l,1,0.413,,[],[],[],[],[],[],[],0.413,1,417.0392,417.5411,,,,,,673,FEM,CON,150,plata,,a,,,417.5412,417.5412,-0.027083344,-0.251388921,0,0,0,,0,225,225,222,1,,,,
,,,,,,27698b0ec5dd2d26c92e43c3,66a626ef09d4e21e1a8894ec,6734a0317b6ac1fd3b96085c,2024-11-13_09h59.31.881,Tarea de género gramatical,2024.2.2,Win32,166.6666667,,,,,,,,,,,,,,,,,,,,,,417.5419,418.7175,l,1,0.5151,,[],[],[],[],[],[],[],0.5151,1,418.7175,419.2149,,,,,,867,FEM,AGR,150,cabaña,la,a,,,419.2149,419.215,-0.027083344,-0.251388921,0,0,0,,0,226,226,416,1,,,,
,,,,,,27698b0ec5dd2d26c92e43c3,66a626ef09d4e21e1a8894ec,6734a0317b6ac1fd3b96085c,2024-11-13_09h59.31.881,Tarea de género gramatical,2024.2.2,Win32,166.6666667,,,,,,,,,,,,,,,,,,,,,,419.2158,420.2558,l,1,0.3822,,[],[],[],[],[],[],[],0.3822,1,420.2559,420.7528,,,,,,811,FEM,CON,150,oferta,,a,,,420.7536,420.754,-0.027083344,-0.251388921,0,0,0,,0,227,227,360,1,,,,
,,,,,,27698b0ec5dd2d26c92e43c3,66a626ef09d4e21e1a8894ec,6734a0317b6ac1fd3b96085c,2024-11-13_09h59.31.881,Tarea de género gramatical,2024.2.2,Win32,166.6666667,,,,,,,,,,,,,,,,,,,,,,420.7545,421.7962,l,1,0.3873,,[],[],[],[],[],[],[],0.3873,1,421.7963,422.2922,,,,,,571,FEM,CON,150,pila,,a,,,422.2923,422.2924,-0.027083344,-0.251388921,0,0,0,,0,228,228,120,1,,,,
,,,,,,27698b0ec5dd2d26c92e43c3,66a626ef09d4e21e1a8894ec,6734a0317b6ac1fd3b96085c,2024-11-13_09h59.31.881,Tarea de género gramatical,2024.2.2,Win32,166.6666667,,,,,,,,,,,,,,,,,,,,,,422.2933,423.2629,a,1,0.3144,,[],[],[],[],[],[],[],0.3144,1,423.263,423.7601,,,,,,766,MAS,CON,150,cuerpo,,l,,,423.7601,423.7602,-0.027083344,-0.251388921,0,0,0,,0,229,229,315,1,,,,
,,,,,,27698b0ec5dd2d26c92e43c3,66a626ef09d4e21e1a8894ec,6734a0317b6ac1fd3b96085c,2024-11-13_09h59.31.881,Tarea de género gramatical,2024.2.2,Win32,166.6666667,,,,,,,,,,,,,,,,,,,,,,423.7611,424.6983,a,1,0.2749,,[],[],[],[],[],[],[],0.2749,1,424.6984,425.196,,,,,,502,MAS,CON,150,lago,,l,,,425.1961,425.1962,-0.027083344,-0.251388921,0,0,0,,0,230,230,51,1,,,,
,,,,,,27698b0ec5dd2d26c92e43c3,66a626ef09d4e21e1a8894ec,6734a0317b6ac1fd3b96085c,2024-11-13_09h59.31.881,Tarea de género gramatical,2024.2.2,Win32,166.6666667,,,,,,,,,,,,,,,,,,,,,,425.1971,426.2459,l,1,0.3947,,[],[],[],[],[],[],[],0.3947,1,426.246,426.7497,,,,,,667,FEM,CON,150,tarea,,a,,,426.7508,426.7514,-0.027083344,-0.251388921,0,0,0,,0,231,231,216,1,,,,
,,,,,,27698b0ec5dd2d26c92e43c3,66a626ef09d4e21e1a8894ec,6734a0317b6ac1fd3b96085c,2024-11-13_09h59.31.881,Tarea de género gramatical,2024.2.2,Win32,166.6666667,,,,,,,,,,,,,,,,,,,,,,426.7519,428.093,l,1,0.6842,,[],[],[],[],[],[],[],0.6842,1,428.093,428.5895,,,,,,638,FEM,DIS,150,bomba,el,a,,,428.5895,428.5896,-0.027083344,-0.251388921,0,0,0,,0,232,232,187,1,,,,
,,,,,,27698b0ec5dd2d26c92e43c3,66a626ef09d4e21e1a8894ec,6734a0317b6ac1fd3b96085c,2024-11-13_09h59.31.881,Tarea de género gramatical,2024.2.2,Win32,166.6666667,,,,,,,,,,,,,,,,,,,,,,428.5905,429.5597,a,1,0.3087,,[],[],[],[],[],[],[],0.3087,1,429.5597,430.0559,,,,,,689,MAS,DIS,150,reloj,la,l,,,430.0559,430.056,-0.027083344,-0.251388921,0,0,0,,0,233,233,238,1,,,,
,,,,,,27698b0ec5dd2d26c92e43c3,66a626ef09d4e21e1a8894ec,6734a0317b6ac1fd3b96085c,2024-11-13_09h59.31.881,Tarea de género gramatical,2024.2.2,Win32,166.6666667,,,,,,,,,,,,,,,,,,,,,,430.0567,431.0619,a,1,0.3473,,[],[],[],[],[],[],[],0.3473,1,431.062,431.5601,,,,,,899,MAS,DIS,150,payaso,la,l,,,431.5602,431.5603,-0.027083344,-0.251388921,0,0,0,,0,234,234,448,1,,,,
,,,,,,27698b0ec5dd2d26c92e43c3,66a626ef09d4e21e1a8894ec,6734a0317b6ac1fd3b96085c,2024-11-13_09h59.31.881,Tarea de género gramatical,2024.2.2,Win32,166.6666667,,,,,,,,,,,,,,,,,,,,,,431.5611,432.5115,a,1,0.2949,,[],[],[],[],[],[],[],0.2949,1,432.5115,433.0092,,,,,,671,MAS,DIS,150,brazo,la,l,,,433.0093,433.0094,-0.027083344,-0.251388921,0,0,0,,0,235,235,220,1,,,,
,,,,,,27698b0ec5dd2d26c92e43c3,66a626ef09d4e21e1a8894ec,6734a0317b6ac1fd3b96085c,2024-11-13_09h59.31.881,Tarea de género gramatical,2024.2.2,Win32,166.6666667,,,,,,,,,,,,,,,,,,,,,,433.0101,434.1781,a,0,0.5087,,[],[],[],[],[],[],[],0.5087,0,434.179,434.677,,,,,,481,FEM,CON,150,edad,,a,,,434.6779,434.6784,-0.027083344,-0.251388921,0,0,0,,0,236,236,30,1,,,,
,,,,,,27698b0ec5dd2d26c92e43c3,66a626ef09d4e21e1a8894ec,6734a0317b6ac1fd3b96085c,2024-11-13_09h59.31.881,Tarea de género gramatical,2024.2.2,Win32,166.6666667,,,,,,,,,,,,,,,,,,,,,,434.6791,435.6439,l,1,0.307,,[],[],[],[],[],[],[],0.307,1,435.6446,436.1416,,,,,,679,FEM,CON,150,celda,,a,,,436.1417,436.1418,-0.027083344,-0.251388921,0,0,0,,0,237,237,228,1,,,,
,,,,,,27698b0ec5dd2d26c92e43c3,66a626ef09d4e21e1a8894ec,6734a0317b6ac1fd3b96085c,2024-11-13_09h59.31.881,Tarea de género gramatical,2024.2.2,Win32,166.6666667,,,,,,,,,,,,,,,,,,,,,,436.1427,437.2447,l,1,0.4427,,[],[],[],[],[],[],[],0.4427,1,437.2448,437.7426,,,,,,511,FEM,CON,150,ruta,,a,,,437.7426,437.7427,-0.027083344,-0.251388921,0,0,0,,0,238,238,60,1,,,,
,,,,,,27698b0ec5dd2d26c92e43c3,66a626ef09d4e21e1a8894ec,6734a0317b6ac1fd3b96085c,2024-11-13_09h59.31.881,Tarea de género gramatical,2024.2.2,Win32,166.6666667,,,,,,,,,,,,,,,,,,,,,,437.7436,438.7409,l,1,0.3412,,[],[],[],[],[],[],[],0.3412,1,438.741,439.239,,,,,,752,FEM,DIS,150,cabeza,el,a,,,439.239,439.2391,-0.027083344,-0.251388921,0,0,0,,0,239,239,301,1,,,,
,,,,,,27698b0ec5dd2d26c92e43c3,66a626ef09d4e21e1a8894ec,6734a0317b6ac1fd3b96085c,2024-11-13_09h59.31.881,Tarea de género gramatical,2024.2.2,Win32,166.6666667,,,,,,,,,,,,,,,,,,,,,,439.24,440.2933,l,1,0.3944,,[],[],[],[],[],[],[],0.3944,1,440.2934,440.7916,,,,,,537,FEM,AGR,150,risa,la,a,,,440.7927,440.7933,-0.027083344,-0.251388921,0,0,0,,0,240,240,86,1,,,,
,,,,,,27698b0ec5dd2d26c92e43c3,66a626ef09d4e21e1a8894ec,6734a0317b6ac1fd3b96085c,2024-11-13_09h59.31.881,Tarea de género gramatical,2024.2.2,Win32,166.6666667,,,,,,,,,,,,,,,,,,,,,,440.7938,441.741,l,1,0.2925,,[],[],[],[],[],[],[],0.2925,1,441.7411,442.2466,,,,,,477,FEM,AGR,150,mesa,la,a,,,442.2466,442.2467,-0.027083344,-0.251388921,0,0,0,,0,241,241,26,1,,,,
,,,,,,27698b0ec5dd2d26c92e43c3,66a626ef09d4e21e1a8894ec,6734a0317b6ac1fd3b96085c,2024-11-13_09h59.31.881,Tarea de género gramatical,2024.2.2,Win32,166.6666667,,,,,,,,,,,,,,,,,,,,,,442.2476,443.2209,a,1,0.3158,,[],[],[],[],[],[],[],0.3158,1,443.2211,443.7168,,,,,,521,MAS,DIS,150,pozo,la,l,,,443.7169,443.717,-0.027083344,-0.251388921,0,0,0,,0,242,242,70,1,,,,
,,,,,,27698b0ec5dd2d26c92e43c3,66a626ef09d4e21e1a8894ec,6734a0317b6ac1fd3b96085c,2024-11-13_09h59.31.881,Tarea de género gramatical,2024.2.2,Win32,166.6666667,,,,,,,,,,,,,,,,,,,,,,443.7179,444.6441,l,0,0.2683,,[],[],[],[],[],[],[],0.2683,0,444.6449,445.141,,,,,,454,MAS,CON,150,hijo,,l,,,445.1411,445.1412,-0.027083344,-0.251388921,0,0,0,,0,243,243,3,1,,,,
,,,,,,27698b0ec5dd2d26c92e43c3,66a626ef09d4e21e1a8894ec,6734a0317b6ac1fd3b96085c,2024-11-13_09h59.31.881,Tarea de género gramatical,2024.2.2,Win32,166.6666667,,,,,,,,,,,,,,,,,,,,,,445.142,446.238,a,1,0.4364,,[],[],[],[],[],[],[],0.4364,1,446.2387,446.735,,,,,,630,MAS,AGR,150,fuego,el,l,,,446.735,446.7351,-0.027083344,-0.251388921,0,0,0,,0,244,244,179,1,,,,
,,,,,,27698b0ec5dd2d26c92e43c3,66a626ef09d4e21e1a8894ec,6734a0317b6ac1fd3b96085c,2024-11-13_09h59.31.881,Tarea de género gramatical,2024.2.2,Win32,166.6666667,,,,,,,,,,,,,,,,,,,,,,446.7358,447.747,a,1,0.3556,,[],[],[],[],[],[],[],0.3556,1,447.7471,448.2454,,,,,,858,MAS,AGR,150,cheque,el,l,,,448.2464,448.247,-0.027083344,-0.251388921,0,0,0,,0,245,245,407,1,,,,
,,,,,,27698b0ec5dd2d26c92e43c3,66a626ef09d4e21e1a8894ec,6734a0317b6ac1fd3b96085c,2024-11-13_09h59.31.881,Tarea de género gramatical,2024.2.2,Win32,166.6666667,,,,,,,,,,,,,,,,,,,,,,448.2476,449.8743,a,1,0.9688,,[],[],[],[],[],[],[],0.9688,1,449.8744,450.3714,,,,,,580,MAS,CON,150,yate,,l,,,450.3715,450.3715,-0.027083344,-0.251388921,0,0,0,,0,246,246,129,1,,,,
,,,,,,27698b0ec5dd2d26c92e43c3,66a626ef09d4e21e1a8894ec,6734a0317b6ac1fd3b96085c,2024-11-13_09h59.31.881,Tarea de género gramatical,2024.2.2,Win32,166.6666667,,,,,,,,,,,,,,,,,,,,,,450.3723,451.3903,a,1,0.3607,,[],[],[],[],[],[],[],0.3607,1,451.3904,451.8866,,,,,,514,MAS,CON,150,saco,,l,,,451.8866,451.8867,-0.027083344,-0.251388921,0,0,0,,0,247,247,63,1,,,,
,,,,,,27698b0ec5dd2d26c92e43c3,66a626ef09d4e21e1a8894ec,6734a0317b6ac1fd3b96085c,2024-11-13_09h59.31.881,Tarea de género gramatical,2024.2.2,Win32,166.6666667,,,,,,,,,,,,,,,,,,,,,,451.8877,452.9956,l,1,0.4474,,[],[],[],[],[],[],[],0.4474,1,452.9957,453.493,,,,,,818,FEM,DIS,150,gracia,el,a,,,453.4931,453.4931,-0.027083344,-0.251388921,0,0,0,,0,248,248,367,1,,,,
,,,,,,27698b0ec5dd2d26c92e43c3,66a626ef09d4e21e1a8894ec,6734a0317b6ac1fd3b96085c,2024-11-13_09h59.31.881,Tarea de género gramatical,2024.2.2,Win32,166.6666667,,,,,,,,,,,,,,,,,,,,,,453.4937,454.5413,l,1,0.3864,,[],[],[],[],[],[],[],0.3864,1,454.5414,455.0382,,,,,,655,FEM,CON,150,reina,,a,,,455.0392,455.04,-0.027083344,-0.251388921,0,0,0,,0,249,249,204,1,,,,
,,,,,,27698b0ec5dd2d26c92e43c3,66a626ef09d4e21e1a8894ec,6734a0317b6ac1fd3b96085c,2024-11-13_09h59.31.881,Tarea de género gramatical,2024.2.2,Win32,166.6666667,,,,,,,,,,,,,,,,,,,,,,455.0406,456.1177,l,1,0.4221,,[],[],[],[],[],[],[],0.4221,1,456.1178,456.6145,,,,,,710,FEM,DIS,150,barra,el,a,,,456.6145,456.6146,-0.027083344,-0.251388921,0,0,0,,0,250,250,259,1,,,,
