counterbalancing_condition,consent_prescreening.block_1/declare_consent,consent_prescreening.block_1/age_years,consent_prescreening.block_1/gender,consent_prescreening.block_1/language_disorder,consent_prescreening.block_1/first_language,PROLIFIC_PID,STUDY_ID,SESSION_ID,date,expName,psychopyVersion,OS,frameRate,check_prescreening_answers.started,check_prescreening_answers.stopped,Instructions.started,Instructions.stopped,instr_done_keyboard.keys,instr_done_touch.x,instr_done_touch.y,instr_done_touch.leftButton,instr_done_touch.midButton,instr_done_touch.rightButton,instr_done_touch.clicked_name,instruction_pages.thisRepN,instruction_pages.thisTrialN,instruction_pages.thisN,instruction_pages.thisIndex,instruction_pages.ran,pageN,phase,instruct_text,has_image,instruct_image,instr_done_keyboard.rt,instr_done_keyboard.duration,presentTrial.started,presentTrial.stopped,response.keys,response.corr,touch_resp.x,touch_resp.y,touch_resp.leftButton,touch_resp.midButton,touch_resp.rightButton,touch_resp.time,touch_resp.clicked_name,rt,corr,feedback.started,feedback.stopped,practice_trials.thisRepN,practice_trials.thisTrialN,practice_trials.thisN,practice_trials.thisIndex,practice_trials.ran,TrialID,StimulusType,Condition,PrimeDuration,Prime,Flanker,corrAns,response.rt,response.duration,Break.started,Break.stopped,break_done_touch.x,break_done_touch.y,break_done_touch.leftButton,break_done_touch.midButton,break_done_touch.rightButton,break_done_keyboard.keys,experiment_trials.thisRepN,experiment_trials.thisTrialN,experiment_trials.thisN,experiment_trials.thisIndex,experiment_trials.ran,break_done_keyboard.rt,break_done_keyboard.duration,End.started,End.stopped
2,"[""over_18"",""comfortable"",""read_info"",""consent_given""]",34,F,"[""none""]","[""spanish""]",2c730adad712c3f9d58dc09e,66a626ef09d4e21e1a8894ec,673777cb8b31e3e64f60fb4a,2024-11-15_10h33.38.120,Tarea de género gramatical,2024.2.2,MacIntel,59.88023952,,,,,,,,,,,,,,,,,,,,,,,,,,,,,,,,,,,,,,,,,,,,,,,,,,,,,,,,,,,,,,,,,,,,,
,,,,,,2c730adad712c3f9d58dc09e,66a626ef09d4e21e1a8894ec,673777cb8b31e3e64f60fb4a,2024-11-15_10h33.38.120,Tarea de género gramatical,2024.2.2,MacIntel,59.88023952,78.8111,78.8114,,,,,,,,,,,,,,,,,,,,,,,,,,,,,,,,,,,,,,,,,,,,,,,,,,,,,,,,,,,,,,,,,,,
,,,,,,2c730adad712c3f9d58dc09e,66a626ef09d4e21e1a8894ec,673777cb8b31e3e64f60fb4a,2024-11-15_10h33.38.120,Tarea de género gramatical,2024.2.2,MacIntel,59.88023952,,,78.8377,94.3204,,0.022061632,-0.402834201,1,0,0,instr_done_button,0,0,0,0,1,1,instructions,"INSTRUCCIONES
Va a realizar una prueba de selección gramatical. Desde el comienzo de la prueba mire siempre al centro de la pantalla. Al cabo de un momento, aparecerán palabras. La tarea consiste en determinar si la palabra del centro (siempre será un sustantivo), pertenece al género masculino o femenino.

Pulse la tecla ESPACIO o toque el botón de abajo para continuar.",0,keyboardresponseMF.png,,,,,,,,,,,,,,,,,,,,,,,,,,,,,,,,,,,,,,,,,,,,,,,,
,,,,,,2c730adad712c3f9d58dc09e,66a626ef09d4e21e1a8894ec,673777cb8b31e3e64f60fb4a,2024-11-15_10h33.38.120,Tarea de género gramatical,2024.2.2,MacIntel,59.88023952,,,94.3223,107.3868,space,0.022061632,-0.402834201,0,0,0,,0,1,1,1,1,2,instructions,"Si su dispositivo tiene teclado, pulse la tecla ""A"" para las palabras en masculino (por ejemplo: ""arroz"") y la tecla ""L"" para las palabras en femenino (por ejemplo: ""mano"").
Pulse la tecla ESPACIO o toque el botón de abajo para continuar.",1,keyboardresponseMF.png,13.0153,,,,,,,,,,,,,,,,,,,,,,,,,,,,,,,,,,,,,,,,,,,,,,,
,,,,,,2c730adad712c3f9d58dc09e,66a626ef09d4e21e1a8894ec,673777cb8b31e3e64f60fb4a,2024-11-15_10h33.38.120,Tarea de género gramatical,2024.2.2,MacIntel,59.88023952,,,107.3891,116.1868,space,0.022061632,-0.402834201,0,0,0,,0,2,2,2,1,3,instructions,"Si utiliza un dispositivo sólo táctil, colóquelo en horizontal y utilice los botones de la pantalla. No utilice el ratón.
Pulse la tecla ESPACIO o toque el botón de abajo para continuar.",2,touchresponseMF.png,8.7629,,,,,,,,,,,,,,,,,,,,,,,,,,,,,,,,,,,,,,,,,,,,,,,
,,,,,,2c730adad712c3f9d58dc09e,66a626ef09d4e21e1a8894ec,673777cb8b31e3e64f60fb4a,2024-11-15_10h33.38.120,Tarea de género gramatical,2024.2.2,MacIntel,59.88023952,,,116.1901,133.0039,space,0.022061632,-0.402834201,0,0,0,,0,3,3,3,1,4,instructions,"Es muy importante que responda con la mayor rapidez y precisión posibles, ya que cada cadena de letras sólo estará en pantalla durante un instante. Si no responde en ese tiempo, aparecerá el mensaje ""Muy lento"" y el experimento pasará a la siguiente palabra. Los primeros 15 intentos serán de práctica y habrá dos descansos durante la prueba.
Pulse la tecla ESPACIO o toque el botón de abajo para iniciar la parte de práctica.",0,keyboardresponseMF.png,16.7877,,,,,,,,,,,,,,,,,,,,,,,,,,,,,,,,,,,,,,,,,,,,,,,
,,,,,,2c730adad712c3f9d58dc09e,66a626ef09d4e21e1a8894ec,673777cb8b31e3e64f60fb4a,2024-11-15_10h33.38.120,Tarea de género gramatical,2024.2.2,MacIntel,59.88023952,,,,,,,,,,,,,,,,,,,,,,,,133.0246,135.6719,,0,[],[],[],[],[],[],[],,-1,135.6723,136.1708,0,0,0,3,1,2004,FEM,AGR,150,venta,la,a,,,,,,,,,,,,,,,,,,,
,,,,,,2c730adad712c3f9d58dc09e,66a626ef09d4e21e1a8894ec,673777cb8b31e3e64f60fb4a,2024-11-15_10h33.38.120,Tarea de género gramatical,2024.2.2,MacIntel,59.88023952,,,,,,,,,,,,,,,,,,,,,,,,136.1723,138.7049,l,1,[],[],[],[],[],[],[],1.851,1,138.7252,139.2039,0,1,1,4,1,2005,FEM,CON,150,placa,,a,1.851,,,,,,,,,,,,,,,,,,
,,,,,,2c730adad712c3f9d58dc09e,66a626ef09d4e21e1a8894ec,673777cb8b31e3e64f60fb4a,2024-11-15_10h33.38.120,Tarea de género gramatical,2024.2.2,MacIntel,59.88023952,,,,,,,,,,,,,,,,,,,,,,,,139.2053,140.3884,a,1,[],[],[],[],[],[],[],0.5187,1,140.3885,140.888,0,2,2,13,1,2014,MAS,CON,150,siglo,,l,0.5187,,,,,,,,,,,,,,,,,,
,,,,,,2c730adad712c3f9d58dc09e,66a626ef09d4e21e1a8894ec,673777cb8b31e3e64f60fb4a,2024-11-15_10h33.38.120,Tarea de género gramatical,2024.2.2,MacIntel,59.88023952,,,,,,,,,,,,,,,,,,,,,,,,140.8887,142.3041,l,0,[],[],[],[],[],[],[],0.7332,0,142.3051,142.8042,0,3,3,14,1,2015,MAS,DIS,150,robot,la,l,0.7332,,,,,,,,,,,,,,,,,,
,,,,,,2c730adad712c3f9d58dc09e,66a626ef09d4e21e1a8894ec,673777cb8b31e3e64f60fb4a,2024-11-15_10h33.38.120,Tarea de género gramatical,2024.2.2,MacIntel,59.88023952,,,,,,,,,,,,,,,,,,,,,,,,142.8056,145.0385,a,1,[],[],[],[],[],[],[],1.5501,1,145.0395,145.5375,0,4,4,11,1,2012,MAS,DIS,150,clima,la,l,1.5501,,,,,,,,,,,,,,,,,,
,,,,,,2c730adad712c3f9d58dc09e,66a626ef09d4e21e1a8894ec,673777cb8b31e3e64f60fb4a,2024-11-15_10h33.38.120,Tarea de género gramatical,2024.2.2,MacIntel,59.88023952,,,,,,,,,,,,,,,,,,,,,,,,145.5389,147.7051,a,1,[],[],[],[],[],[],[],1.5101,1,147.7054,148.2053,0,5,5,9,1,2010,MAS,AGR,150,vecino,el,l,1.5101,,,,,,,,,,,,,,,,,,
,,,,,,2c730adad712c3f9d58dc09e,66a626ef09d4e21e1a8894ec,673777cb8b31e3e64f60fb4a,2024-11-15_10h33.38.120,Tarea de género gramatical,2024.2.2,MacIntel,59.88023952,,,,,,,,,,,,,,,,,,,,,,,,148.2064,149.5386,l,1,[],[],[],[],[],[],[],0.6611,1,149.5387,150.0387,0,6,6,0,1,2001,FEM,AGR,150,nuca,la,a,0.6611,,,,,,,,,,,,,,,,,,
,,,,,,2c730adad712c3f9d58dc09e,66a626ef09d4e21e1a8894ec,673777cb8b31e3e64f60fb4a,2024-11-15_10h33.38.120,Tarea de género gramatical,2024.2.2,MacIntel,59.88023952,,,,,,,,,,,,,,,,,,,,,,,,150.0398,151.7221,a,0,[],[],[],[],[],[],[],1.0021,0,151.7231,152.222,0,7,7,5,1,2006,FEM,DIS,150,serie,el,a,1.0021,,,,,,,,,,,,,,,,,,
,,,,,,2c730adad712c3f9d58dc09e,66a626ef09d4e21e1a8894ec,673777cb8b31e3e64f60fb4a,2024-11-15_10h33.38.120,Tarea de género gramatical,2024.2.2,MacIntel,59.88023952,,,,,,,,,,,,,,,,,,,,,,,,152.2234,154.0389,a,1,[],[],[],[],[],[],[],1.1453,1,154.0398,154.5388,0,8,8,12,1,2013,MAS,AGR,150,acero,el,l,1.1453,,,,,,,,,,,,,,,,,,
,,,,,,2c730adad712c3f9d58dc09e,66a626ef09d4e21e1a8894ec,673777cb8b31e3e64f60fb4a,2024-11-15_10h33.38.120,Tarea de género gramatical,2024.2.2,MacIntel,59.88023952,,,,,,,,,,,,,,,,,,,,,,,,154.5399,156.1379,a,1,[],[],[],[],[],[],[],0.9183,1,156.1381,156.6388,0,9,9,8,1,2009,MAS,DIS,150,puerto,la,l,0.9183,,,,,,,,,,,,,,,,,,
,,,,,,2c730adad712c3f9d58dc09e,66a626ef09d4e21e1a8894ec,673777cb8b31e3e64f60fb4a,2024-11-15_10h33.38.120,Tarea de género gramatical,2024.2.2,MacIntel,59.88023952,,,,,,,,,,,,,,,,,,,,,,,,156.6401,158.1889,a,1,[],[],[],[],[],[],[],0.8671,1,158.1891,158.689,0,10,10,10,1,2011,MAS,CON,150,canal,,l,0.8671,,,,,,,,,,,,,,,,,,
,,,,,,2c730adad712c3f9d58dc09e,66a626ef09d4e21e1a8894ec,673777cb8b31e3e64f60fb4a,2024-11-15_10h33.38.120,Tarea de género gramatical,2024.2.2,MacIntel,59.88023952,,,,,,,,,,,,,,,,,,,,,,,,158.6903,159.8557,l,1,[],[],[],[],[],[],[],0.4845,1,159.8558,160.3558,0,11,11,7,1,2008,FEM,CON,150,siesta,,a,0.4845,,,,,,,,,,,,,,,,,,
,,,,,,2c730adad712c3f9d58dc09e,66a626ef09d4e21e1a8894ec,673777cb8b31e3e64f60fb4a,2024-11-15_10h33.38.120,Tarea de género gramatical,2024.2.2,MacIntel,59.88023952,,,,,,,,,,,,,,,,,,,,,,,,160.357,161.7724,l,1,[],[],[],[],[],[],[],0.7452,1,161.7726,162.2725,0,12,12,6,1,2007,FEM,AGR,150,navaja,la,a,0.7452,,,,,,,,,,,,,,,,,,
,,,,,,2c730adad712c3f9d58dc09e,66a626ef09d4e21e1a8894ec,673777cb8b31e3e64f60fb4a,2024-11-15_10h33.38.120,Tarea de género gramatical,2024.2.2,MacIntel,59.88023952,,,,,,,,,,,,,,,,,,,,,,,,162.2736,163.4558,l,1,[],[],[],[],[],[],[],0.5,1,163.4559,163.9558,0,13,13,1,1,2002,FEM,CON,150,pala,,a,0.5,,,,,,,,,,,,,,,,,,
,,,,,,2c730adad712c3f9d58dc09e,66a626ef09d4e21e1a8894ec,673777cb8b31e3e64f60fb4a,2024-11-15_10h33.38.120,Tarea de género gramatical,2024.2.2,MacIntel,59.88023952,,,,,,,,,,,,,,,,,,,,,,,,163.9571,165.4554,l,1,[],[],[],[],[],[],[],0.8178,1,165.4556,165.9549,0,14,14,2,1,2003,FEM,DIS,150,daga,el,a,0.8178,,,,,,,,,,,,,,,,,,
,,,,,,2c730adad712c3f9d58dc09e,66a626ef09d4e21e1a8894ec,673777cb8b31e3e64f60fb4a,2024-11-15_10h33.38.120,Tarea de género gramatical,2024.2.2,MacIntel,59.88023952,,,181.3434,192.9901,space,0.022061632,-0.402834201,0,0,0,,,,,,,,,,,,11.6322,,193.0294,194.557,l,1,[],[],[],[],[],[],[],0.8507,1,194.5572,195.0569,,,,,,1183,FEM,DIS,150,pluma,el,a,0.8507,,195.0575,195.0604,0.022061632,-0.402834201,0,0,0,,0,0,0,282,1,,,,
,,,,,,2c730adad712c3f9d58dc09e,66a626ef09d4e21e1a8894ec,673777cb8b31e3e64f60fb4a,2024-11-15_10h33.38.120,Tarea de género gramatical,2024.2.2,MacIntel,59.88023952,,,,,,,,,,,,,,,,,,,,,,,,195.0616,196.657,l,1,[],[],[],[],[],[],[],0.9214,1,196.6572,197.157,,,,,,1141,FEM,DIS,150,pasta,el,a,0.9214,,197.1572,197.1573,0.022061632,-0.402834201,0,0,0,,0,1,1,240,1,,,,
,,,,,,2c730adad712c3f9d58dc09e,66a626ef09d4e21e1a8894ec,673777cb8b31e3e64f60fb4a,2024-11-15_10h33.38.120,Tarea de género gramatical,2024.2.2,MacIntel,59.88023952,,,,,,,,,,,,,,,,,,,,,,,,197.1585,198.7571,a,1,[],[],[],[],[],[],[],0.917,1,198.7574,199.2571,,,,,,1006,MAS,DIS,150,test,la,l,0.917,,199.2585,199.2595,0.022061632,-0.402834201,0,0,0,,0,2,2,105,1,,,,
,,,,,,2c730adad712c3f9d58dc09e,66a626ef09d4e21e1a8894ec,673777cb8b31e3e64f60fb4a,2024-11-15_10h33.38.120,Tarea de género gramatical,2024.2.2,MacIntel,59.88023952,,,,,,,,,,,,,,,,,,,,,,,,199.2605,200.5906,l,1,[],[],[],[],[],[],[],0.6499,1,200.5907,201.0905,,,,,,1088,FEM,AGR,150,bomba,la,a,0.6499,,201.0905,201.0908,0.022061632,-0.402834201,0,0,0,,0,3,3,187,1,,,,
,,,,,,2c730adad712c3f9d58dc09e,66a626ef09d4e21e1a8894ec,673777cb8b31e3e64f60fb4a,2024-11-15_10h33.38.120,Tarea de género gramatical,2024.2.2,MacIntel,59.88023952,,,,,,,,,,,,,,,,,,,,,,,,201.092,202.3071,a,1,[],[],[],[],[],[],[],0.5446,1,202.3073,202.8066,,,,,,1108,MAS,DIS,150,suelo,la,l,0.5446,,202.8067,202.8068,0.022061632,-0.402834201,0,0,0,,0,4,4,207,1,,,,
,,,,,,2c730adad712c3f9d58dc09e,66a626ef09d4e21e1a8894ec,673777cb8b31e3e64f60fb4a,2024-11-15_10h33.38.120,Tarea de género gramatical,2024.2.2,MacIntel,59.88023952,,,,,,,,,,,,,,,,,,,,,,,,202.808,203.974,l,1,[],[],[],[],[],[],[],0.483,1,203.9741,204.474,,,,,,1335,FEM,CON,150,niebla,,a,0.483,,204.4741,204.4745,0.022061632,-0.402834201,0,0,0,,0,5,5,434,1,,,,
,,,,,,2c730adad712c3f9d58dc09e,66a626ef09d4e21e1a8894ec,673777cb8b31e3e64f60fb4a,2024-11-15_10h33.38.120,Tarea de género gramatical,2024.2.2,MacIntel,59.88023952,,,,,,,,,,,,,,,,,,,,,,,,204.4759,206.0401,l,1,[],[],[],[],[],[],[],0.8826,1,206.0402,206.5398,,,,,,968,FEM,AGR,150,pata,la,a,0.8826,,206.5414,206.5426,0.022061632,-0.402834201,0,0,0,,0,6,6,67,1,,,,
,,,,,,2c730adad712c3f9d58dc09e,66a626ef09d4e21e1a8894ec,673777cb8b31e3e64f60fb4a,2024-11-15_10h33.38.120,Tarea de género gramatical,2024.2.2,MacIntel,59.88023952,,,,,,,,,,,,,,,,,,,,,,,,206.5433,207.9566,l,1,[],[],[],[],[],[],[],0.7439,1,207.9567,208.4568,,,,,,1083,FEM,CON,150,llave,,a,0.7439,,208.4569,208.4571,0.022061632,-0.402834201,0,0,0,,0,7,7,182,1,,,,
,,,,,,2c730adad712c3f9d58dc09e,66a626ef09d4e21e1a8894ec,673777cb8b31e3e64f60fb4a,2024-11-15_10h33.38.120,Tarea de género gramatical,2024.2.2,MacIntel,59.88023952,,,,,,,,,,,,,,,,,,,,,,,,208.4582,209.7067,a,1,[],[],[],[],[],[],[],0.5705,1,209.7067,210.2075,,,,,,1121,MAS,AGR,150,brazo,el,l,0.5705,,210.2075,210.2078,0.022061632,-0.402834201,0,0,0,,0,8,8,220,1,,,,
,,,,,,2c730adad712c3f9d58dc09e,66a626ef09d4e21e1a8894ec,673777cb8b31e3e64f60fb4a,2024-11-15_10h33.38.120,Tarea de género gramatical,2024.2.2,MacIntel,59.88023952,,,,,,,,,,,,,,,,,,,,,,,,210.2089,211.6743,a,1,[],[],[],[],[],[],[],0.7838,1,211.6744,212.1733,,,,,,917,MAS,AGR,150,modo,el,l,0.7838,,212.1734,212.1736,0.022061632,-0.402834201,0,0,0,,0,9,9,16,1,,,,
,,,,,,2c730adad712c3f9d58dc09e,66a626ef09d4e21e1a8894ec,673777cb8b31e3e64f60fb4a,2024-11-15_10h33.38.120,Tarea de género gramatical,2024.2.2,MacIntel,59.88023952,,,,,,,,,,,,,,,,,,,,,,,,212.1748,213.5076,l,1,[],[],[],[],[],[],[],0.6785,1,213.5077,214.0076,,,,,,1165,FEM,DIS,150,rueda,el,a,0.6785,,214.0077,214.008,0.022061632,-0.402834201,0,0,0,,0,10,10,264,1,,,,
,,,,,,2c730adad712c3f9d58dc09e,66a626ef09d4e21e1a8894ec,673777cb8b31e3e64f60fb4a,2024-11-15_10h33.38.120,Tarea de género gramatical,2024.2.2,MacIntel,59.88023952,,,,,,,,,,,,,,,,,,,,,,,,214.0091,215.3745,a,1,[],[],[],[],[],[],[],0.6951,1,215.3746,215.8743,,,,,,1188,MAS,CON,150,grado,,l,0.6951,,215.8757,215.8768,0.022061632,-0.402834201,0,0,0,,0,11,11,287,1,,,,
,,,,,,2c730adad712c3f9d58dc09e,66a626ef09d4e21e1a8894ec,673777cb8b31e3e64f60fb4a,2024-11-15_10h33.38.120,Tarea de género gramatical,2024.2.2,MacIntel,59.88023952,,,,,,,,,,,,,,,,,,,,,,,,215.8777,217.2412,l,1,[],[],[],[],[],[],[],0.684,1,217.2413,217.7412,,,,,,1261,FEM,DIS,150,oferta,el,a,0.684,,217.7413,217.7415,0.022061632,-0.402834201,0,0,0,,0,12,12,360,1,,,,
,,,,,,2c730adad712c3f9d58dc09e,66a626ef09d4e21e1a8894ec,673777cb8b31e3e64f60fb4a,2024-11-15_10h33.38.120,Tarea de género gramatical,2024.2.2,MacIntel,59.88023952,,,,,,,,,,,,,,,,,,,,,,,,217.7429,219.2411,l,1,[],[],[],[],[],[],[],0.8174,1,219.2413,219.7413,,,,,,1275,FEM,CON,150,cadena,,a,0.8174,,219.7413,219.7414,0.022061632,-0.402834201,0,0,0,,0,13,13,374,1,,,,
,,,,,,2c730adad712c3f9d58dc09e,66a626ef09d4e21e1a8894ec,673777cb8b31e3e64f60fb4a,2024-11-15_10h33.38.120,Tarea de género gramatical,2024.2.2,MacIntel,59.88023952,,,,,,,,,,,,,,,,,,,,,,,,219.7425,221.1914,l,1,[],[],[],[],[],[],[],0.7787,1,221.1916,221.6913,,,,,,1231,FEM,DIS,150,cárcel,el,a,0.7787,,221.6914,221.6916,0.022061632,-0.402834201,0,0,0,,0,14,14,330,1,,,,
,,,,,,2c730adad712c3f9d58dc09e,66a626ef09d4e21e1a8894ec,673777cb8b31e3e64f60fb4a,2024-11-15_10h33.38.120,Tarea de género gramatical,2024.2.2,MacIntel,59.88023952,,,,,,,,,,,,,,,,,,,,,,,,221.693,223.0413,a,1,[],[],[],[],[],[],[],0.6668,1,223.0415,223.5414,,,,,,1060,MAS,DIS,150,señor,la,l,0.6668,,223.5426,223.5435,0.022061632,-0.402834201,0,0,0,,0,15,15,159,1,,,,
,,,,,,2c730adad712c3f9d58dc09e,66a626ef09d4e21e1a8894ec,673777cb8b31e3e64f60fb4a,2024-11-15_10h33.38.120,Tarea de género gramatical,2024.2.2,MacIntel,59.88023952,,,,,,,,,,,,,,,,,,,,,,,,223.5443,225.0914,l,1,[],[],[],[],[],[],[],0.8669,1,225.0915,225.5914,,,,,,1195,FEM,DIS,150,grasa,el,a,0.8669,,225.5915,225.5917,0.022061632,-0.402834201,0,0,0,,0,16,16,294,1,,,,
,,,,,,2c730adad712c3f9d58dc09e,66a626ef09d4e21e1a8894ec,673777cb8b31e3e64f60fb4a,2024-11-15_10h33.38.120,Tarea de género gramatical,2024.2.2,MacIntel,59.88023952,,,,,,,,,,,,,,,,,,,,,,,,225.5927,226.9917,a,1,[],[],[],[],[],[],[],0.7186,1,226.9918,227.4916,,,,,,941,MAS,AGR,150,bote,el,l,0.7186,,227.4917,227.4919,0.022061632,-0.402834201,0,0,0,,0,17,17,40,1,,,,
,,,,,,2c730adad712c3f9d58dc09e,66a626ef09d4e21e1a8894ec,673777cb8b31e3e64f60fb4a,2024-11-15_10h33.38.120,Tarea de género gramatical,2024.2.2,MacIntel,59.88023952,,,,,,,,,,,,,,,,,,,,,,,,227.4932,228.6414,l,1,[],[],[],[],[],[],[],0.4779,1,228.6416,229.1417,,,,,,1107,FEM,CON,150,playa,,a,0.4779,,229.1418,229.142,0.022061632,-0.402834201,0,0,0,,0,18,18,206,1,,,,
,,,,,,2c730adad712c3f9d58dc09e,66a626ef09d4e21e1a8894ec,673777cb8b31e3e64f60fb4a,2024-11-15_10h33.38.120,Tarea de género gramatical,2024.2.2,MacIntel,59.88023952,,,,,,,,,,,,,,,,,,,,,,,,229.1433,230.2584,l,1,[],[],[],[],[],[],[],0.4365,1,230.2585,230.7585,,,,,,1196,FEM,AGR,150,feria,la,a,0.4365,,230.7586,230.7587,0.022061632,-0.402834201,0,0,0,,0,19,19,295,1,,,,
,,,,,,2c730adad712c3f9d58dc09e,66a626ef09d4e21e1a8894ec,673777cb8b31e3e64f60fb4a,2024-11-15_10h33.38.120,Tarea de género gramatical,2024.2.2,MacIntel,59.88023952,,,,,,,,,,,,,,,,,,,,,,,,230.7601,231.975,l,1,[],[],[],[],[],[],[],0.535,1,231.9751,232.4751,,,,,,1279,FEM,DIS,150,granja,el,a,0.535,,232.4767,232.4777,0.022061632,-0.402834201,0,0,0,,0,20,20,378,1,,,,
,,,,,,2c730adad712c3f9d58dc09e,66a626ef09d4e21e1a8894ec,673777cb8b31e3e64f60fb4a,2024-11-15_10h33.38.120,Tarea de género gramatical,2024.2.2,MacIntel,59.88023952,,,,,,,,,,,,,,,,,,,,,,,,232.4786,233.5585,l,1,[],[],[],[],[],[],[],0.4002,1,233.5586,234.0578,,,,,,901,FEM,DIS,150,casa,el,a,0.4002,,234.0578,234.0579,0.022061632,-0.402834201,0,0,0,,0,21,21,0,1,,,,
,,,,,,2c730adad712c3f9d58dc09e,66a626ef09d4e21e1a8894ec,673777cb8b31e3e64f60fb4a,2024-11-15_10h33.38.120,Tarea de género gramatical,2024.2.2,MacIntel,59.88023952,,,,,,,,,,,,,,,,,,,,,,,,234.0591,235.7923,l,1,[],[],[],[],[],[],[],1.0621,1,235.7924,236.2918,,,,,,1159,FEM,DIS,150,prima,el,a,1.0621,,236.2919,236.292,0.022061632,-0.402834201,0,0,0,,0,22,22,258,1,,,,
,,,,,,2c730adad712c3f9d58dc09e,66a626ef09d4e21e1a8894ec,673777cb8b31e3e64f60fb4a,2024-11-15_10h33.38.120,Tarea de género gramatical,2024.2.2,MacIntel,59.88023952,,,,,,,,,,,,,,,,,,,,,,,,236.2933,237.642,l,1,[],[],[],[],[],[],[],0.6677,1,237.6421,238.1419,,,,,,1274,FEM,AGR,150,herida,la,a,0.6677,,238.1421,238.1421,0.022061632,-0.402834201,0,0,0,,0,23,23,373,1,,,,
,,,,,,2c730adad712c3f9d58dc09e,66a626ef09d4e21e1a8894ec,673777cb8b31e3e64f60fb4a,2024-11-15_10h33.38.120,Tarea de género gramatical,2024.2.2,MacIntel,59.88023952,,,,,,,,,,,,,,,,,,,,,,,,238.1436,239.2586,l,1,[],[],[],[],[],[],[],0.4344,1,239.2587,239.7587,,,,,,974,FEM,AGR,150,flor,la,a,0.4344,,239.7603,239.7613,0.022061632,-0.402834201,0,0,0,,0,24,24,73,1,,,,
,,,,,,2c730adad712c3f9d58dc09e,66a626ef09d4e21e1a8894ec,673777cb8b31e3e64f60fb4a,2024-11-15_10h33.38.120,Tarea de género gramatical,2024.2.2,MacIntel,59.88023952,,,,,,,,,,,,,,,,,,,,,,,,239.7621,240.9755,l,1,[],[],[],[],[],[],[],0.5374,1,240.9756,241.4753,,,,,,943,FEM,DIS,150,nena,el,a,0.5374,,241.4753,241.4755,0.022061632,-0.402834201,0,0,0,,0,25,25,42,1,,,,
,,,,,,2c730adad712c3f9d58dc09e,66a626ef09d4e21e1a8894ec,673777cb8b31e3e64f60fb4a,2024-11-15_10h33.38.120,Tarea de género gramatical,2024.2.2,MacIntel,59.88023952,,,,,,,,,,,,,,,,,,,,,,,,241.4768,242.6248,a,1,[],[],[],[],[],[],[],0.4779,1,242.6249,243.1254,,,,,,929,MAS,AGR,150,frío,el,l,0.4779,,243.1256,243.1256,0.022061632,-0.402834201,0,0,0,,0,26,26,28,1,,,,
,,,,,,2c730adad712c3f9d58dc09e,66a626ef09d4e21e1a8894ec,673777cb8b31e3e64f60fb4a,2024-11-15_10h33.38.120,Tarea de género gramatical,2024.2.2,MacIntel,59.88023952,,,,,,,,,,,,,,,,,,,,,,,,243.127,244.3422,l,1,[],[],[],[],[],[],[],0.5337,1,244.3423,244.8421,,,,,,1299,FEM,CON,150,charla,,a,0.5337,,244.8422,244.8424,0.022061632,-0.402834201,0,0,0,,0,27,27,398,1,,,,
,,,,,,2c730adad712c3f9d58dc09e,66a626ef09d4e21e1a8894ec,673777cb8b31e3e64f60fb4a,2024-11-15_10h33.38.120,Tarea de género gramatical,2024.2.2,MacIntel,59.88023952,,,,,,,,,,,,,,,,,,,,,,,,244.8439,246.1587,a,1,[],[],[],[],[],[],[],0.6344,1,246.1589,246.6588,,,,,,1096,MAS,DIS,150,barco,la,l,0.6344,,246.6589,246.659,0.022061632,-0.402834201,0,0,0,,0,28,28,195,1,,,,
,,,,,,2c730adad712c3f9d58dc09e,66a626ef09d4e21e1a8894ec,673777cb8b31e3e64f60fb4a,2024-11-15_10h33.38.120,Tarea de género gramatical,2024.2.2,MacIntel,59.88023952,,,,,,,,,,,,,,,,,,,,,,,,246.6602,247.7923,a,1,[],[],[],[],[],[],[],0.4508,1,247.7924,248.2914,,,,,,1218,MAS,CON,150,pueblo,,l,0.4508,,248.2931,248.2943,0.022061632,-0.402834201,0,0,0,,0,29,29,317,1,,,,
,,,,,,2c730adad712c3f9d58dc09e,66a626ef09d4e21e1a8894ec,673777cb8b31e3e64f60fb4a,2024-11-15_10h33.38.120,Tarea de género gramatical,2024.2.2,MacIntel,59.88023952,,,,,,,,,,,,,,,,,,,,,,,,248.2952,249.826,l,1,[],[],[],[],[],[],[],0.8617,1,249.8261,250.3257,,,,,,1069,FEM,DIS,150,vista,el,a,0.8617,,250.3258,250.3259,0.022061632,-0.402834201,0,0,0,,0,30,30,168,1,,,,
,,,,,,2c730adad712c3f9d58dc09e,66a626ef09d4e21e1a8894ec,673777cb8b31e3e64f60fb4a,2024-11-15_10h33.38.120,Tarea de género gramatical,2024.2.2,MacIntel,59.88023952,,,,,,,,,,,,,,,,,,,,,,,,250.3272,251.6424,a,1,[],[],[],[],[],[],[],0.6448,1,251.6426,252.1424,,,,,,1061,MAS,AGR,150,chico,el,l,0.6448,,252.1426,252.1427,0.022061632,-0.402834201,0,0,0,,0,31,31,160,1,,,,
,,,,,,2c730adad712c3f9d58dc09e,66a626ef09d4e21e1a8894ec,673777cb8b31e3e64f60fb4a,2024-11-15_10h33.38.120,Tarea de género gramatical,2024.2.2,MacIntel,59.88023952,,,,,,,,,,,,,,,,,,,,,,,,252.1441,253.3592,l,1,[],[],[],[],[],[],[],0.5334,1,253.3594,253.8592,,,,,,1327,FEM,DIS,150,agenda,el,a,0.5334,,253.8593,253.8594,0.022061632,-0.402834201,0,0,0,,0,32,32,426,1,,,,
,,,,,,2c730adad712c3f9d58dc09e,66a626ef09d4e21e1a8894ec,673777cb8b31e3e64f60fb4a,2024-11-15_10h33.38.120,Tarea de género gramatical,2024.2.2,MacIntel,59.88023952,,,,,,,,,,,,,,,,,,,,,,,,253.8607,255.3093,a,1,[],[],[],[],[],[],[],0.767,1,255.3095,255.8091,,,,,,1120,MAS,DIS,150,huevo,la,l,0.767,,255.8109,255.8121,0.022061632,-0.402834201,0,0,0,,0,33,33,219,1,,,,
,,,,,,2c730adad712c3f9d58dc09e,66a626ef09d4e21e1a8894ec,673777cb8b31e3e64f60fb4a,2024-11-15_10h33.38.120,Tarea de género gramatical,2024.2.2,MacIntel,59.88023952,,,,,,,,,,,,,,,,,,,,,,,,255.8131,257.026,a,1,[],[],[],[],[],[],[],0.5328,1,257.0262,257.526,,,,,,906,MAS,CON,150,lado,,l,0.5328,,257.526,257.5262,0.022061632,-0.402834201,0,0,0,,0,34,34,5,1,,,,
,,,,,,2c730adad712c3f9d58dc09e,66a626ef09d4e21e1a8894ec,673777cb8b31e3e64f60fb4a,2024-11-15_10h33.38.120,Tarea de género gramatical,2024.2.2,MacIntel,59.88023952,,,,,,,,,,,,,,,,,,,,,,,,257.5275,258.5928,a,1,[],[],[],[],[],[],[],0.3841,1,258.593,259.0927,,,,,,1170,MAS,CON,150,queso,,l,0.3841,,259.0928,259.0929,0.022061632,-0.402834201,0,0,0,,0,35,35,269,1,,,,
,,,,,,2c730adad712c3f9d58dc09e,66a626ef09d4e21e1a8894ec,673777cb8b31e3e64f60fb4a,2024-11-15_10h33.38.120,Tarea de género gramatical,2024.2.2,MacIntel,59.88023952,,,,,,,,,,,,,,,,,,,,,,,,259.0945,260.3426,a,1,[],[],[],[],[],[],[],0.5767,1,260.3427,260.8427,,,,,,1330,MAS,DIS,150,título,la,l,0.5767,,260.8429,260.843,0.022061632,-0.402834201,0,0,0,,0,36,36,429,1,,,,
,,,,,,2c730adad712c3f9d58dc09e,66a626ef09d4e21e1a8894ec,673777cb8b31e3e64f60fb4a,2024-11-15_10h33.38.120,Tarea de género gramatical,2024.2.2,MacIntel,59.88023952,,,,,,,,,,,,,,,,,,,,,,,,260.8443,262.3095,a,1,[],[],[],[],[],[],[],0.7867,1,262.3097,262.8096,,,,,,1086,MAS,CON,150,error,,l,0.7867,,262.8096,262.8098,0.022061632,-0.402834201,0,0,0,,0,37,37,185,1,,,,
,,,,,,2c730adad712c3f9d58dc09e,66a626ef09d4e21e1a8894ec,673777cb8b31e3e64f60fb4a,2024-11-15_10h33.38.120,Tarea de género gramatical,2024.2.2,MacIntel,59.88023952,,,,,,,,,,,,,,,,,,,,,,,,262.8113,264.0597,a,1,[],[],[],[],[],[],[],0.5701,1,264.0598,264.5596,,,,,,1001,MAS,AGR,150,giro,el,l,0.5701,,264.5613,264.5624,0.022061632,-0.402834201,0,0,0,,0,38,38,100,1,,,,
,,,,,,2c730adad712c3f9d58dc09e,66a626ef09d4e21e1a8894ec,673777cb8b31e3e64f60fb4a,2024-11-15_10h33.38.120,Tarea de género gramatical,2024.2.2,MacIntel,59.88023952,,,,,,,,,,,,,,,,,,,,,,,,264.5633,265.7096,a,1,[],[],[],[],[],[],[],0.4673,1,265.7098,266.2096,,,,,,1272,MAS,CON,150,delito,,l,0.4673,,266.2097,266.2099,0.022061632,-0.402834201,0,0,0,,0,39,39,371,1,,,,
,,,,,,2c730adad712c3f9d58dc09e,66a626ef09d4e21e1a8894ec,673777cb8b31e3e64f60fb4a,2024-11-15_10h33.38.120,Tarea de género gramatical,2024.2.2,MacIntel,59.88023952,,,,,,,,,,,,,,,,,,,,,,,,266.2112,267.193,a,1,[],[],[],[],[],[],[],0.304,1,267.1933,267.693,,,,,,1104,MAS,CON,150,papel,,l,0.304,,267.6931,267.6933,0.022061632,-0.402834201,0,0,0,,0,40,40,203,1,,,,
,,,,,,2c730adad712c3f9d58dc09e,66a626ef09d4e21e1a8894ec,673777cb8b31e3e64f60fb4a,2024-11-15_10h33.38.120,Tarea de género gramatical,2024.2.2,MacIntel,59.88023952,,,,,,,,,,,,,,,,,,,,,,,,267.6947,268.9097,l,0,[],[],[],[],[],[],[],0.5341,0,268.9107,269.4097,,,,,,1318,MAS,DIS,150,pájaro,la,l,0.5341,,269.4097,269.4099,0.022061632,-0.402834201,0,0,0,,0,41,41,417,1,,,,
,,,,,,2c730adad712c3f9d58dc09e,66a626ef09d4e21e1a8894ec,673777cb8b31e3e64f60fb4a,2024-11-15_10h33.38.120,Tarea de género gramatical,2024.2.2,MacIntel,59.88023952,,,,,,,,,,,,,,,,,,,,,,,,269.4109,270.8936,a,1,[],[],[],[],[],[],[],0.8121,1,270.8946,271.3932,,,,,,940,MAS,DIS,150,dios,la,l,0.8121,,271.3948,271.3959,0.022061632,-0.402834201,0,0,0,,0,42,42,39,1,,,,
,,,,,,2c730adad712c3f9d58dc09e,66a626ef09d4e21e1a8894ec,673777cb8b31e3e64f60fb4a,2024-11-15_10h33.38.120,Tarea de género gramatical,2024.2.2,MacIntel,59.88023952,,,,,,,,,,,,,,,,,,,,,,,,271.397,272.7099,l,1,[],[],[],[],[],[],[],0.6335,1,272.71,273.2097,,,,,,945,FEM,CON,150,isla,,a,0.6335,,273.2098,273.21,0.022061632,-0.402834201,0,0,0,,0,43,43,44,1,,,,
,,,,,,2c730adad712c3f9d58dc09e,66a626ef09d4e21e1a8894ec,673777cb8b31e3e64f60fb4a,2024-11-15_10h33.38.120,Tarea de género gramatical,2024.2.2,MacIntel,59.88023952,,,,,,,,,,,,,,,,,,,,,,,,273.2109,274.3433,l,1,[],[],[],[],[],[],[],0.4512,1,274.3435,274.8432,,,,,,1142,FEM,AGR,150,pizza,la,a,0.4512,,274.8433,274.8436,0.022061632,-0.402834201,0,0,0,,0,44,44,241,1,,,,
,,,,,,2c730adad712c3f9d58dc09e,66a626ef09d4e21e1a8894ec,673777cb8b31e3e64f60fb4a,2024-11-15_10h33.38.120,Tarea de género gramatical,2024.2.2,MacIntel,59.88023952,,,,,,,,,,,,,,,,,,,,,,,,274.8451,276.1101,a,1,[],[],[],[],[],[],[],0.5845,1,276.1103,276.6102,,,,,,1080,MAS,CON,150,fuego,,l,0.5845,,276.6103,276.6104,0.022061632,-0.402834201,0,0,0,,0,45,45,179,1,,,,
,,,,,,2c730adad712c3f9d58dc09e,66a626ef09d4e21e1a8894ec,673777cb8b31e3e64f60fb4a,2024-11-15_10h33.38.120,Tarea de género gramatical,2024.2.2,MacIntel,59.88023952,,,,,,,,,,,,,,,,,,,,,,,,276.6117,277.7933,a,1,[],[],[],[],[],[],[],0.5011,1,277.7935,278.2934,,,,,,1320,MAS,CON,150,helado,,l,0.5011,,278.2936,278.2939,0.022061632,-0.402834201,0,0,0,,0,46,46,419,1,,,,
,,,,,,2c730adad712c3f9d58dc09e,66a626ef09d4e21e1a8894ec,673777cb8b31e3e64f60fb4a,2024-11-15_10h33.38.120,Tarea de género gramatical,2024.2.2,MacIntel,59.88023952,,,,,,,,,,,,,,,,,,,,,,,,278.2952,279.4935,l,1,[],[],[],[],[],[],[],0.5173,1,279.4937,279.9933,,,,,,1334,FEM,AGR,150,corona,la,a,0.5173,,279.9945,279.9952,0.022061632,-0.402834201,0,0,0,,0,47,47,433,1,,,,
,,,,,,2c730adad712c3f9d58dc09e,66a626ef09d4e21e1a8894ec,673777cb8b31e3e64f60fb4a,2024-11-15_10h33.38.120,Tarea de género gramatical,2024.2.2,MacIntel,59.88023952,,,,,,,,,,,,,,,,,,,,,,,,279.9958,281.1437,l,1,[],[],[],[],[],[],[],0.4677,1,281.1437,281.6435,,,,,,915,FEM,CON,150,cama,,a,0.4677,,281.6436,281.6437,0.022061632,-0.402834201,0,0,0,,0,48,48,14,1,,,,
,,,,,,2c730adad712c3f9d58dc09e,66a626ef09d4e21e1a8894ec,673777cb8b31e3e64f60fb4a,2024-11-15_10h33.38.120,Tarea de género gramatical,2024.2.2,MacIntel,59.88023952,,,,,,,,,,,,,,,,,,,,,,,,281.645,282.977,a,1,[],[],[],[],[],[],[],0.6506,1,282.9771,283.4769,,,,,,928,MAS,DIS,150,club,la,l,0.6506,,283.477,283.4773,0.022061632,-0.402834201,0,0,0,,0,49,49,27,1,,,,
,,,,,,2c730adad712c3f9d58dc09e,66a626ef09d4e21e1a8894ec,673777cb8b31e3e64f60fb4a,2024-11-15_10h33.38.120,Tarea de género gramatical,2024.2.2,MacIntel,59.88023952,,,,,,,,,,,,,,,,,,,,,,,,283.4786,284.7601,l,1,[],[],[],[],[],[],[],0.611,1,284.7604,285.2602,,,,,,1310,FEM,AGR,150,piedad,la,a,0.611,,285.2603,285.2603,0.022061632,-0.402834201,0,0,0,,0,50,50,409,1,,,,
,,,,,,2c730adad712c3f9d58dc09e,66a626ef09d4e21e1a8894ec,673777cb8b31e3e64f60fb4a,2024-11-15_10h33.38.120,Tarea de género gramatical,2024.2.2,MacIntel,59.88023952,,,,,,,,,,,,,,,,,,,,,,,,285.2613,286.3441,l,1,[],[],[],[],[],[],[],0.4119,1,286.3443,286.8437,,,,,,1053,FEM,CON,150,mujer,,a,0.4119,,286.8447,286.8454,0.022061632,-0.402834201,0,0,0,,0,51,51,152,1,,,,
,,,,,,2c730adad712c3f9d58dc09e,66a626ef09d4e21e1a8894ec,673777cb8b31e3e64f60fb4a,2024-11-15_10h33.38.120,Tarea de género gramatical,2024.2.2,MacIntel,59.88023952,,,,,,,,,,,,,,,,,,,,,,,,286.846,288.1105,l,1,[],[],[],[],[],[],[],0.5862,1,288.1107,288.6102,,,,,,1202,FEM,AGR,150,cabeza,la,a,0.5862,,288.6103,288.6104,0.022061632,-0.402834201,0,0,0,,0,52,52,301,1,,,,
,,,,,,2c730adad712c3f9d58dc09e,66a626ef09d4e21e1a8894ec,673777cb8b31e3e64f60fb4a,2024-11-15_10h33.38.120,Tarea de género gramatical,2024.2.2,MacIntel,59.88023952,,,,,,,,,,,,,,,,,,,,,,,,288.6113,289.7772,l,1,[],[],[],[],[],[],[],0.4839,1,289.7773,290.2772,,,,,,1197,FEM,CON,150,manta,,a,0.4839,,290.2773,290.2774,0.022061632,-0.402834201,0,0,0,,0,53,53,296,1,,,,
,,,,,,2c730adad712c3f9d58dc09e,66a626ef09d4e21e1a8894ec,673777cb8b31e3e64f60fb4a,2024-11-15_10h33.38.120,Tarea de género gramatical,2024.2.2,MacIntel,59.88023952,,,,,,,,,,,,,,,,,,,,,,,,290.2788,291.4438,a,1,[],[],[],[],[],[],[],0.488,1,291.444,291.9438,,,,,,1336,MAS,DIS,150,objeto,la,l,0.488,,291.944,291.9441,0.022061632,-0.402834201,0,0,0,,0,54,54,435,1,,,,
,,,,,,2c730adad712c3f9d58dc09e,66a626ef09d4e21e1a8894ec,673777cb8b31e3e64f60fb4a,2024-11-15_10h33.38.120,Tarea de género gramatical,2024.2.2,MacIntel,59.88023952,,,,,,,,,,,,,,,,,,,,,,,,291.9454,293.4105,l,1,[],[],[],[],[],[],[],0.7849,1,293.4106,293.9106,,,,,,1245,FEM,CON,150,pierna,,a,0.7849,,293.9107,293.9107,0.022061632,-0.402834201,0,0,0,,0,55,55,344,1,,,,
,,,,,,2c730adad712c3f9d58dc09e,66a626ef09d4e21e1a8894ec,673777cb8b31e3e64f60fb4a,2024-11-15_10h33.38.120,Tarea de género gramatical,2024.2.2,MacIntel,59.88023952,,,,,,,,,,,,,,,,,,,,,,,,293.9119,295.0768,a,1,[],[],[],[],[],[],[],0.4832,1,295.077,295.5774,,,,,,1254,MAS,CON,150,camión,,l,0.4832,,295.5786,295.5796,0.022061632,-0.402834201,0,0,0,,0,56,56,353,1,,,,
,,,,,,2c730adad712c3f9d58dc09e,66a626ef09d4e21e1a8894ec,673777cb8b31e3e64f60fb4a,2024-11-15_10h33.38.120,Tarea de género gramatical,2024.2.2,MacIntel,59.88023952,,,,,,,,,,,,,,,,,,,,,,,,295.5805,297.1107,l,1,[],[],[],[],[],[],[],0.8615,1,297.1108,297.6097,,,,,,1147,FEM,DIS,150,frase,el,a,0.8615,,297.6098,297.6098,0.022061632,-0.402834201,0,0,0,,0,57,57,246,1,,,,
,,,,,,2c730adad712c3f9d58dc09e,66a626ef09d4e21e1a8894ec,673777cb8b31e3e64f60fb4a,2024-11-15_10h33.38.120,Tarea de género gramatical,2024.2.2,MacIntel,59.88023952,,,,,,,,,,,,,,,,,,,,,,,,297.611,298.7441,l,1,[],[],[],[],[],[],[],0.4671,1,298.7442,299.2441,,,,,,1233,FEM,CON,150,locura,,a,0.4671,,299.2442,299.2443,0.022061632,-0.402834201,0,0,0,,0,58,58,332,1,,,,
,,,,,,2c730adad712c3f9d58dc09e,66a626ef09d4e21e1a8894ec,673777cb8b31e3e64f60fb4a,2024-11-15_10h33.38.120,Tarea de género gramatical,2024.2.2,MacIntel,59.88023952,,,,,,,,,,,,,,,,,,,,,,,,299.2454,300.4931,l,1,[],[],[],[],[],[],[],0.5673,1,300.4933,300.9935,,,,,,1113,FEM,CON,150,magia,,a,0.5673,,300.9935,300.9937,0.022061632,-0.402834201,0,0,0,,0,59,59,212,1,,,,
,,,,,,2c730adad712c3f9d58dc09e,66a626ef09d4e21e1a8894ec,673777cb8b31e3e64f60fb4a,2024-11-15_10h33.38.120,Tarea de género gramatical,2024.2.2,MacIntel,59.88023952,,,,,,,,,,,,,,,,,,,,,,,,300.9947,302.2941,l,1,[],[],[],[],[],[],[],0.6183,1,302.2944,302.7942,,,,,,1208,FEM,AGR,150,semana,la,a,0.6183,,302.7954,302.7963,0.022061632,-0.402834201,0,0,0,,0,60,60,307,1,,,,
,,,,,,2c730adad712c3f9d58dc09e,66a626ef09d4e21e1a8894ec,673777cb8b31e3e64f60fb4a,2024-11-15_10h33.38.120,Tarea de género gramatical,2024.2.2,MacIntel,59.88023952,,,,,,,,,,,,,,,,,,,,,,,,302.7972,304.1443,a,1,[],[],[],[],[],[],[],0.6673,1,304.1445,304.6445,,,,,,989,MAS,AGR,150,maíz,el,l,0.6673,,304.6445,304.6447,0.022061632,-0.402834201,0,0,0,,0,61,61,88,1,,,,
,,,,,,2c730adad712c3f9d58dc09e,66a626ef09d4e21e1a8894ec,673777cb8b31e3e64f60fb4a,2024-11-15_10h33.38.120,Tarea de género gramatical,2024.2.2,MacIntel,59.88023952,,,,,,,,,,,,,,,,,,,,,,,,304.6457,305.911,l,1,[],[],[],[],[],[],[],0.5838,1,305.9112,306.4101,,,,,,1143,FEM,CON,150,salsa,,a,0.5838,,306.4101,306.4103,0.022061632,-0.402834201,0,0,0,,0,62,62,242,1,,,,
,,,,,,2c730adad712c3f9d58dc09e,66a626ef09d4e21e1a8894ec,673777cb8b31e3e64f60fb4a,2024-11-15_10h33.38.120,Tarea de género gramatical,2024.2.2,MacIntel,59.88023952,,,,,,,,,,,,,,,,,,,,,,,,306.4114,307.6282,a,1,[],[],[],[],[],[],[],0.5621,1,307.6284,308.1268,,,,,,965,MAS,AGR,150,rayo,el,l,0.5621,,308.1268,308.127,0.022061632,-0.402834201,0,0,0,,0,63,63,64,1,,,,
,,,,,,2c730adad712c3f9d58dc09e,66a626ef09d4e21e1a8894ec,673777cb8b31e3e64f60fb4a,2024-11-15_10h33.38.120,Tarea de género gramatical,2024.2.2,MacIntel,59.88023952,,,,,,,,,,,,,,,,,,,,,,,,308.1281,309.3102,l,1,[],[],[],[],[],[],[],0.5174,1,309.3105,309.8112,,,,,,1124,FEM,AGR,150,arena,la,a,0.5174,,309.8113,309.8113,0.022061632,-0.402834201,0,0,0,,0,64,64,223,1,,,,
,,,,,,2c730adad712c3f9d58dc09e,66a626ef09d4e21e1a8894ec,673777cb8b31e3e64f60fb4a,2024-11-15_10h33.38.120,Tarea de género gramatical,2024.2.2,MacIntel,59.88023952,,,,,,,,,,,,,,,,,,,,,,,,309.8128,311.0446,l,1,[],[],[],[],[],[],[],0.5621,1,311.0449,311.5437,,,,,,1070,FEM,AGR,150,carta,la,a,0.5621,,311.5453,311.5463,0.022061632,-0.402834201,0,0,0,,0,65,65,169,1,,,,
,,,,,,2c730adad712c3f9d58dc09e,66a626ef09d4e21e1a8894ec,673777cb8b31e3e64f60fb4a,2024-11-15_10h33.38.120,Tarea de género gramatical,2024.2.2,MacIntel,59.88023952,,,,,,,,,,,,,,,,,,,,,,,,311.5472,312.9436,a,1,[],[],[],[],[],[],[],0.7169,1,312.9438,313.4447,,,,,,1332,MAS,CON,150,océano,,l,0.7169,,313.4448,313.4449,0.022061632,-0.402834201,0,0,0,,0,66,66,431,1,,,,
,,,,,,2c730adad712c3f9d58dc09e,66a626ef09d4e21e1a8894ec,673777cb8b31e3e64f60fb4a,2024-11-15_10h33.38.120,Tarea de género gramatical,2024.2.2,MacIntel,59.88023952,,,,,,,,,,,,,,,,,,,,,,,,313.4462,314.728,l,1,[],[],[],[],[],[],[],0.6008,1,314.7282,315.227,,,,,,1287,FEM,CON,150,página,,a,0.6008,,315.2271,315.2272,0.022061632,-0.402834201,0,0,0,,0,67,67,386,1,,,,
,,,,,,2c730adad712c3f9d58dc09e,66a626ef09d4e21e1a8894ec,673777cb8b31e3e64f60fb4a,2024-11-15_10h33.38.120,Tarea de género gramatical,2024.2.2,MacIntel,59.88023952,,,,,,,,,,,,,,,,,,,,,,,,315.2283,316.5607,a,1,[],[],[],[],[],[],[],0.6776,1,316.5608,317.0613,,,,,,1054,MAS,DIS,150,padre,la,l,0.6776,,317.0614,317.0616,0.022061632,-0.402834201,0,0,0,,0,68,68,153,1,,,,
,,,,,,2c730adad712c3f9d58dc09e,66a626ef09d4e21e1a8894ec,673777cb8b31e3e64f60fb4a,2024-11-15_10h33.38.120,Tarea de género gramatical,2024.2.2,MacIntel,59.88023952,,,,,,,,,,,,,,,,,,,,,,,,317.0629,318.3784,l,1,[],[],[],[],[],[],[],0.6339,1,318.3785,318.878,,,,,,1171,FEM,DIS,150,viuda,el,a,0.6339,,318.8791,318.8799,0.022061632,-0.402834201,0,0,0,,0,69,69,270,1,,,,
,,,,,,2c730adad712c3f9d58dc09e,66a626ef09d4e21e1a8894ec,673777cb8b31e3e64f60fb4a,2024-11-15_10h33.38.120,Tarea de género gramatical,2024.2.2,MacIntel,59.88023952,,,,,,,,,,,,,,,,,,,,,,,,318.8806,320.2785,l,1,[],[],[],[],[],[],[],0.7196,1,320.2786,320.7783,,,,,,997,FEM,DIS,150,capa,el,a,0.7196,,320.7784,320.7785,0.022061632,-0.402834201,0,0,0,,0,70,70,96,1,,,,
,,,,,,2c730adad712c3f9d58dc09e,66a626ef09d4e21e1a8894ec,673777cb8b31e3e64f60fb4a,2024-11-15_10h33.38.120,Tarea de género gramatical,2024.2.2,MacIntel,59.88023952,,,,,,,,,,,,,,,,,,,,,,,,320.78,321.9117,l,1,[],[],[],[],[],[],[],0.4539,1,321.9118,322.4117,,,,,,903,FEM,CON,150,cosa,,a,0.4539,,322.4117,322.4118,0.022061632,-0.402834201,0,0,0,,0,71,71,2,1,,,,
,,,,,,2c730adad712c3f9d58dc09e,66a626ef09d4e21e1a8894ec,673777cb8b31e3e64f60fb4a,2024-11-15_10h33.38.120,Tarea de género gramatical,2024.2.2,MacIntel,59.88023952,,,,,,,,,,,,,,,,,,,,,,,,322.4129,323.4451,l,1,[],[],[],[],[],[],[],0.3518,1,323.4453,323.9451,,,,,,1154,FEM,AGR,150,caída,la,a,0.3518,,323.9452,323.9453,0.022061632,-0.402834201,0,0,0,,0,72,72,253,1,,,,
,,,,,,2c730adad712c3f9d58dc09e,66a626ef09d4e21e1a8894ec,673777cb8b31e3e64f60fb4a,2024-11-15_10h33.38.120,Tarea de género gramatical,2024.2.2,MacIntel,59.88023952,,,,,,,,,,,,,,,,,,,,,,,,323.9466,325.1618,a,1,[],[],[],[],[],[],[],0.5351,1,325.162,325.6617,,,,,,1326,MAS,CON,150,pánico,,l,0.5351,,325.6618,325.662,0.022061632,-0.402834201,0,0,0,,0,73,73,425,1,,,,
,,,,,,2c730adad712c3f9d58dc09e,66a626ef09d4e21e1a8894ec,673777cb8b31e3e64f60fb4a,2024-11-15_10h33.38.120,Tarea de género gramatical,2024.2.2,MacIntel,59.88023952,,,,,,,,,,,,,,,,,,,,,,,,325.663,327.0447,l,1,[],[],[],[],[],[],[],0.7015,1,327.045,327.5441,,,,,,999,FEM,CON,150,fase,,a,0.7015,,327.5454,327.5463,0.022061632,-0.402834201,0,0,0,,0,74,74,98,1,,,,
,,,,,,2c730adad712c3f9d58dc09e,66a626ef09d4e21e1a8894ec,673777cb8b31e3e64f60fb4a,2024-11-15_10h33.38.120,Tarea de género gramatical,2024.2.2,MacIntel,59.88023952,,,,,,,,,,,,,,,,,,,,,,,,327.5471,328.9123,a,0,[],[],[],[],[],[],[],0.6963,0,328.9134,329.4109,,,,,,1309,FEM,DIS,150,moneda,el,a,0.6963,,329.4109,329.4111,0.022061632,-0.402834201,0,0,0,,0,75,75,408,1,,,,
,,,,,,2c730adad712c3f9d58dc09e,66a626ef09d4e21e1a8894ec,673777cb8b31e3e64f60fb4a,2024-11-15_10h33.38.120,Tarea de género gramatical,2024.2.2,MacIntel,59.88023952,,,,,,,,,,,,,,,,,,,,,,,,329.4123,330.861,a,1,[],[],[],[],[],[],[],0.766,1,330.8619,331.3609,,,,,,1032,MAS,CON,150,velo,,l,0.766,,331.3611,331.3612,0.022061632,-0.402834201,0,0,0,,0,76,76,131,1,,,,
,,,,,,2c730adad712c3f9d58dc09e,66a626ef09d4e21e1a8894ec,673777cb8b31e3e64f60fb4a,2024-11-15_10h33.38.120,Tarea de género gramatical,2024.2.2,MacIntel,59.88023952,,,,,,,,,,,,,,,,,,,,,,,,331.3623,332.6954,l,1,[],[],[],[],[],[],[],0.6681,1,332.6955,333.1955,,,,,,1045,FEM,DIS,150,bota,el,a,0.6681,,333.1956,333.1958,0.022061632,-0.402834201,0,0,0,,0,77,77,144,1,,,,
,,,,,,2c730adad712c3f9d58dc09e,66a626ef09d4e21e1a8894ec,673777cb8b31e3e64f60fb4a,2024-11-15_10h33.38.120,Tarea de género gramatical,2024.2.2,MacIntel,59.88023952,,,,,,,,,,,,,,,,,,,,,,,,333.1971,334.4287,a,1,[],[],[],[],[],[],[],0.5549,1,334.4288,334.9288,,,,,,1206,MAS,CON,150,dinero,,l,0.5549,,334.9305,334.9317,0.022061632,-0.402834201,0,0,0,,0,78,78,305,1,,,,
,,,,,,2c730adad712c3f9d58dc09e,66a626ef09d4e21e1a8894ec,673777cb8b31e3e64f60fb4a,2024-11-15_10h33.38.120,Tarea de género gramatical,2024.2.2,MacIntel,59.88023952,,,,,,,,,,,,,,,,,,,,,,,,334.9326,336.1954,l,1,[],[],[],[],[],[],[],0.5955,1,336.1956,336.6955,,,,,,1136,FEM,AGR,150,deuda,la,a,0.5955,,336.6955,336.6957,0.022061632,-0.402834201,0,0,0,,0,79,79,235,1,,,,
,,,,,,2c730adad712c3f9d58dc09e,66a626ef09d4e21e1a8894ec,673777cb8b31e3e64f60fb4a,2024-11-15_10h33.38.120,Tarea de género gramatical,2024.2.2,MacIntel,59.88023952,,,,,,,,,,,,,,,,,,,,,,,,336.6969,338.2113,a,1,[],[],[],[],[],[],[],0.8342,1,338.2115,338.7122,,,,,,1013,MAS,AGR,150,toro,el,l,0.8342,,338.7122,338.7124,0.022061632,-0.402834201,0,0,0,,0,80,80,112,1,,,,
,,,,,,2c730adad712c3f9d58dc09e,66a626ef09d4e21e1a8894ec,673777cb8b31e3e64f60fb4a,2024-11-15_10h33.38.120,Tarea de género gramatical,2024.2.2,MacIntel,59.88023952,,,,,,,,,,,,,,,,,,,,,,,,338.7136,339.928,a,1,[],[],[],[],[],[],[],0.5334,1,339.9281,340.428,,,,,,1217,MAS,AGR,150,número,el,l,0.5334,,340.4281,340.4282,0.022061632,-0.402834201,0,0,0,,0,81,81,316,1,,,,
,,,,,,2c730adad712c3f9d58dc09e,66a626ef09d4e21e1a8894ec,673777cb8b31e3e64f60fb4a,2024-11-15_10h33.38.120,Tarea de género gramatical,2024.2.2,MacIntel,59.88023952,,,,,,,,,,,,,,,,,,,,,,,,340.4295,341.8124,l,1,[],[],[],[],[],[],[],0.7007,1,341.8125,342.3124,,,,,,962,FEM,AGR,150,sopa,la,a,0.7007,,342.3125,342.3126,0.022061632,-0.402834201,0,0,0,,0,82,82,61,1,,,,
,,,,,,2c730adad712c3f9d58dc09e,66a626ef09d4e21e1a8894ec,673777cb8b31e3e64f60fb4a,2024-11-15_10h33.38.120,Tarea de género gramatical,2024.2.2,MacIntel,59.88023952,,,,,,,,,,,,,,,,,,,,,,,,342.3136,343.5624,l,1,[],[],[],[],[],[],[],0.5684,1,343.5626,344.0615,,,,,,1251,FEM,CON,150,espada,,a,0.5684,,344.0627,344.0637,0.022061632,-0.402834201,0,0,0,,0,83,83,350,1,,,,
,,,,,,2c730adad712c3f9d58dc09e,66a626ef09d4e21e1a8894ec,673777cb8b31e3e64f60fb4a,2024-11-15_10h33.38.120,Tarea de género gramatical,2024.2.2,MacIntel,59.88023952,,,,,,,,,,,,,,,,,,,,,,,,344.0644,345.1792,l,1,[],[],[],[],[],[],[],0.4347,1,345.1793,345.6792,,,,,,1034,FEM,AGR,150,rama,la,a,0.4347,,345.6792,345.6793,0.022061632,-0.402834201,0,0,0,,0,84,84,133,1,,,,
,,,,,,2c730adad712c3f9d58dc09e,66a626ef09d4e21e1a8894ec,673777cb8b31e3e64f60fb4a,2024-11-15_10h33.38.120,Tarea de género gramatical,2024.2.2,MacIntel,59.88023952,,,,,,,,,,,,,,,,,,,,,,,,345.6804,347.0124,a,0,[],[],[],[],[],[],[],0.6608,0,347.0132,347.5116,,,,,,985,FEM,DIS,150,gira,el,a,0.6608,,347.5117,347.5118,0.022061632,-0.402834201,0,0,0,,0,85,85,84,1,,,,
,,,,,,2c730adad712c3f9d58dc09e,66a626ef09d4e21e1a8894ec,673777cb8b31e3e64f60fb4a,2024-11-15_10h33.38.120,Tarea de género gramatical,2024.2.2,MacIntel,59.88023952,,,,,,,,,,,,,,,,,,,,,,,,347.5129,349.1625,a,1,[],[],[],[],[],[],[],0.9777,1,349.163,349.6627,,,,,,1168,MAS,DIS,150,truco,la,l,0.9777,,349.6627,349.6629,0.022061632,-0.402834201,0,0,0,,0,86,86,267,1,,,,
,,,,,,2c730adad712c3f9d58dc09e,66a626ef09d4e21e1a8894ec,673777cb8b31e3e64f60fb4a,2024-11-15_10h33.38.120,Tarea de género gramatical,2024.2.2,MacIntel,59.88023952,,,,,,,,,,,,,,,,,,,,,,,,349.6641,350.9118,l,1,[],[],[],[],[],[],[],0.569,1,350.9119,351.4127,,,,,,1023,FEM,CON,150,tela,,a,0.569,,351.414,351.415,0.022061632,-0.402834201,0,0,0,,0,87,87,122,1,,,,
,,,,,,2c730adad712c3f9d58dc09e,66a626ef09d4e21e1a8894ec,673777cb8b31e3e64f60fb4a,2024-11-15_10h33.38.120,Tarea de género gramatical,2024.2.2,MacIntel,59.88023952,,,,,,,,,,,,,,,,,,,,,,,,351.4159,352.8627,a,1,[],[],[],[],[],[],[],0.7783,1,352.8629,353.3628,,,,,,1187,MAS,AGR,150,plato,el,l,0.7783,,353.3629,353.363,0.022061632,-0.402834201,0,0,0,,0,88,88,286,1,,,,
,,,,,,2c730adad712c3f9d58dc09e,66a626ef09d4e21e1a8894ec,673777cb8b31e3e64f60fb4a,2024-11-15_10h33.38.120,Tarea de género gramatical,2024.2.2,MacIntel,59.88023952,,,,,,,,,,,,,,,,,,,,,,,,353.3639,354.546,l,1,[],[],[],[],[],[],[],0.4997,1,354.5462,355.0462,,,,,,1257,FEM,CON,150,lengua,,a,0.4997,,355.0463,355.0464,0.022061632,-0.402834201,0,0,0,,0,89,89,356,1,,,,
,,,,,,2c730adad712c3f9d58dc09e,66a626ef09d4e21e1a8894ec,673777cb8b31e3e64f60fb4a,2024-11-15_10h33.38.120,Tarea de género gramatical,2024.2.2,MacIntel,59.88023952,,,,,,,,,,,,,,,,,,,,,,,,355.0476,356.4628,a,0,[],[],[],[],[],[],[],0.7337,0,356.4636,356.9629,,,,,,1021,FEM,DIS,150,pila,el,a,0.7337,,356.9629,356.963,0.022061632,-0.402834201,0,0,0,,0,90,90,120,1,,,,
,,,,,,2c730adad712c3f9d58dc09e,66a626ef09d4e21e1a8894ec,673777cb8b31e3e64f60fb4a,2024-11-15_10h33.38.120,Tarea de género gramatical,2024.2.2,MacIntel,59.88023952,,,,,,,,,,,,,,,,,,,,,,,,356.9641,358.6131,l,1,[],[],[],[],[],[],[],0.9671,1,358.6141,359.1129,,,,,,1191,FEM,CON,150,aguja,,a,0.9671,,359.1131,359.1132,0.022061632,-0.402834201,0,0,0,,0,91,91,290,1,,,,
,,,,,,2c730adad712c3f9d58dc09e,66a626ef09d4e21e1a8894ec,673777cb8b31e3e64f60fb4a,2024-11-15_10h33.38.120,Tarea de género gramatical,2024.2.2,MacIntel,59.88023952,,,,,,,,,,,,,,,,,,,,,,,,359.1143,360.6621,a,1,[],[],[],[],[],[],[],0.8683,1,360.6623,361.1621,,,,,,1097,MAS,AGR,150,avión,el,l,0.8683,,361.1633,361.1642,0.022061632,-0.402834201,0,0,0,,0,92,92,196,1,,,,
,,,,,,2c730adad712c3f9d58dc09e,66a626ef09d4e21e1a8894ec,673777cb8b31e3e64f60fb4a,2024-11-15_10h33.38.120,Tarea de género gramatical,2024.2.2,MacIntel,59.88023952,,,,,,,,,,,,,,,,,,,,,,,,361.165,362.4131,a,1,[],[],[],[],[],[],[],0.5786,1,362.4132,362.9121,,,,,,1050,MAS,CON,150,mozo,,l,0.5786,,362.9122,362.9124,0.022061632,-0.402834201,0,0,0,,0,93,93,149,1,,,,
,,,,,,2c730adad712c3f9d58dc09e,66a626ef09d4e21e1a8894ec,673777cb8b31e3e64f60fb4a,2024-11-15_10h33.38.120,Tarea de género gramatical,2024.2.2,MacIntel,59.88023952,,,,,,,,,,,,,,,,,,,,,,,,362.9135,364.0622,l,1,[],[],[],[],[],[],[],0.4698,1,364.0623,364.5632,,,,,,1130,FEM,AGR,150,regla,la,a,0.4698,,364.5632,364.5633,0.022061632,-0.402834201,0,0,0,,0,94,94,229,1,,,,
,,,,,,2c730adad712c3f9d58dc09e,66a626ef09d4e21e1a8894ec,673777cb8b31e3e64f60fb4a,2024-11-15_10h33.38.120,Tarea de género gramatical,2024.2.2,MacIntel,59.88023952,,,,,,,,,,,,,,,,,,,,,,,,364.5645,366.3123,l,1,[],[],[],[],[],[],[],1.0665,1,366.3124,366.8132,,,,,,1225,FEM,DIS,150,tierra,el,a,1.0665,,366.8133,366.8134,0.022061632,-0.402834201,0,0,0,,0,95,95,324,1,,,,
,,,,,,2c730adad712c3f9d58dc09e,66a626ef09d4e21e1a8894ec,673777cb8b31e3e64f60fb4a,2024-11-15_10h33.38.120,Tarea de género gramatical,2024.2.2,MacIntel,59.88023952,,,,,,,,,,,,,,,,,,,,,,,,366.8145,368.0299,l,1,[],[],[],[],[],[],[],0.5363,1,368.0301,368.53,,,,,,1016,FEM,AGR,150,nube,la,a,0.5363,,368.5312,368.533,0.022061632,-0.402834201,0,0,0,,0,96,96,115,1,,,,
,,,,,,2c730adad712c3f9d58dc09e,66a626ef09d4e21e1a8894ec,673777cb8b31e3e64f60fb4a,2024-11-15_10h33.38.120,Tarea de género gramatical,2024.2.2,MacIntel,59.88023952,,,,,,,,,,,,,,,,,,,,,,,,368.534,369.7635,a,1,[],[],[],[],[],[],[],0.5503,1,369.7636,370.2633,,,,,,934,MAS,DIS,150,gato,la,l,0.5503,,370.2634,370.2635,0.022061632,-0.402834201,0,0,0,,0,97,97,33,1,,,,
,,,,,,2c730adad712c3f9d58dc09e,66a626ef09d4e21e1a8894ec,673777cb8b31e3e64f60fb4a,2024-11-15_10h33.38.120,Tarea de género gramatical,2024.2.2,MacIntel,59.88023952,,,,,,,,,,,,,,,,,,,,,,,,370.2646,371.8468,l,1,[],[],[],[],[],[],[],0.9014,1,371.8469,372.3469,,,,,,1323,FEM,CON,150,poesía,,a,0.9014,,372.3469,372.347,0.022061632,-0.402834201,0,0,0,,0,98,98,422,1,,,,
,,,,,,2c730adad712c3f9d58dc09e,66a626ef09d4e21e1a8894ec,673777cb8b31e3e64f60fb4a,2024-11-15_10h33.38.120,Tarea de género gramatical,2024.2.2,MacIntel,59.88023952,,,,,,,,,,,,,,,,,,,,,,,,372.3481,373.7302,a,1,[],[],[],[],[],[],[],0.7008,1,373.7304,374.2302,,,,,,1307,MAS,AGR,150,jurado,el,l,0.7008,,374.2303,374.2304,0.022061632,-0.402834201,0,0,0,,0,99,99,406,1,,,,
,,,,,,2c730adad712c3f9d58dc09e,66a626ef09d4e21e1a8894ec,673777cb8b31e3e64f60fb4a,2024-11-15_10h33.38.120,Tarea de género gramatical,2024.2.2,MacIntel,59.88023952,,,,,,,,,,,,,,,,,,,,,,,,374.2316,375.5302,l,1,[],[],[],[],[],[],[],0.6291,1,375.5304,376.0294,,,,,,1322,FEM,AGR,150,rutina,la,a,0.6291,,376.0294,376.0295,0.022061632,-0.402834201,0,0,0,,0,100,100,421,1,,,,
,,,,,,2c730adad712c3f9d58dc09e,66a626ef09d4e21e1a8894ec,673777cb8b31e3e64f60fb4a,2024-11-15_10h33.38.120,Tarea de género gramatical,2024.2.2,MacIntel,59.88023952,,,,,,,,,,,,,,,,,,,,,,,,376.0307,377.4303,l,1,[],[],[],[],[],[],[],0.745,1,377.4305,377.9306,,,,,,1059,FEM,CON,150,clase,,a,0.745,,377.9318,377.9328,0.022061632,-0.402834201,0,0,0,,0,101,101,158,1,,,,
,,,,,,2c730adad712c3f9d58dc09e,66a626ef09d4e21e1a8894ec,673777cb8b31e3e64f60fb4a,2024-11-15_10h33.38.120,Tarea de género gramatical,2024.2.2,MacIntel,59.88023952,,,,,,,,,,,,,,,,,,,,,,,,377.9334,379.197,a,1,[],[],[],[],[],[],[],0.5947,1,379.1972,379.6961,,,,,,1176,MAS,CON,150,ritmo,,l,0.5947,,379.6962,379.6963,0.022061632,-0.402834201,0,0,0,,0,102,102,275,1,,,,
,,,,,,2c730adad712c3f9d58dc09e,66a626ef09d4e21e1a8894ec,673777cb8b31e3e64f60fb4a,2024-11-15_10h33.38.120,Tarea de género gramatical,2024.2.2,MacIntel,59.88023952,,,,,,,,,,,,,,,,,,,,,,,,379.6974,381.0638,l,1,[],[],[],[],[],[],[],0.6836,1,381.0639,381.5639,,,,,,1112,FEM,AGR,150,cinta,la,a,0.6836,,381.5639,381.5641,0.022061632,-0.402834201,0,0,0,,0,103,103,211,1,,,,
,,,,,,2c730adad712c3f9d58dc09e,66a626ef09d4e21e1a8894ec,673777cb8b31e3e64f60fb4a,2024-11-15_10h33.38.120,Tarea de género gramatical,2024.2.2,MacIntel,59.88023952,,,,,,,,,,,,,,,,,,,,,,,,381.565,382.9639,a,1,[],[],[],[],[],[],[],0.7181,1,382.964,383.4639,,,,,,1222,MAS,DIS,150,minuto,la,l,0.7181,,383.464,383.4641,0.022061632,-0.402834201,0,0,0,,0,104,104,321,1,,,,
,,,,,,2c730adad712c3f9d58dc09e,66a626ef09d4e21e1a8894ec,673777cb8b31e3e64f60fb4a,2024-11-15_10h33.38.120,Tarea de género gramatical,2024.2.2,MacIntel,59.88023952,,,,,,,,,,,,,,,,,,,,,,,,383.4652,384.5805,a,1,[],[],[],[],[],[],[],0.4454,1,384.5806,385.0806,,,,,,972,MAS,CON,150,hoyo,,l,0.4454,,385.0818,385.0827,0.022061632,-0.402834201,0,0,0,,0,105,105,71,1,,,,
,,,,,,2c730adad712c3f9d58dc09e,66a626ef09d4e21e1a8894ec,673777cb8b31e3e64f60fb4a,2024-11-15_10h33.38.120,Tarea de género gramatical,2024.2.2,MacIntel,59.88023952,,,,,,,,,,,,,,,,,,,,,,,,385.0835,386.8807,a,0,[],[],[],[],[],[],[],1.1185,0,386.8817,387.3806,,,,,,1286,FEM,AGR,150,sombra,la,a,1.1185,,387.3808,387.3808,0.022061632,-0.402834201,0,0,0,,0,106,106,385,1,,,,
,,,,,,2c730adad712c3f9d58dc09e,66a626ef09d4e21e1a8894ec,673777cb8b31e3e64f60fb4a,2024-11-15_10h33.38.120,Tarea de género gramatical,2024.2.2,MacIntel,59.88023952,,,,,,,,,,,,,,,,,,,,,,,,387.3818,388.764,a,1,[],[],[],[],[],[],[],0.7115,1,388.7651,389.2641,,,,,,1090,MAS,DIS,150,campo,la,l,0.7115,,389.2642,389.2643,0.022061632,-0.402834201,0,0,0,,0,107,107,189,1,,,,
,,,,,,2c730adad712c3f9d58dc09e,66a626ef09d4e21e1a8894ec,673777cb8b31e3e64f60fb4a,2024-11-15_10h33.38.120,Tarea de género gramatical,2024.2.2,MacIntel,59.88023952,,,,,,,,,,,,,,,,,,,,,,,,389.2654,390.4642,l,1,[],[],[],[],[],[],[],0.5283,1,390.4643,390.9632,,,,,,1161,FEM,CON,150,cueva,,a,0.5283,,390.9632,390.9634,0.022061632,-0.402834201,0,0,0,,0,108,108,260,1,,,,
,,,,,,2c730adad712c3f9d58dc09e,66a626ef09d4e21e1a8894ec,673777cb8b31e3e64f60fb4a,2024-11-15_10h33.38.120,Tarea de género gramatical,2024.2.2,MacIntel,59.88023952,,,,,,,,,,,,,,,,,,,,,,,,390.9645,392.1309,l,1,[],[],[],[],[],[],[],0.4998,1,392.131,392.6308,,,,,,914,FEM,AGR,150,cara,la,a,0.4998,,392.631,392.6312,0.022061632,-0.402834201,0,0,0,,0,109,109,13,1,,,,
,,,,,,2c730adad712c3f9d58dc09e,66a626ef09d4e21e1a8894ec,673777cb8b31e3e64f60fb4a,2024-11-15_10h33.38.120,Tarea de género gramatical,2024.2.2,MacIntel,59.88023952,,,,,,,,,,,,,,,,,,,,,,,,392.6322,394.3976,a,1,[],[],[],[],[],[],[],1.0838,1,394.3977,394.8973,,,,,,1043,MAS,AGR,150,faro,el,l,1.0838,,394.8986,394.8994,0.022061632,-0.402834201,0,0,0,,0,110,110,142,1,,,,
,,,,,,2c730adad712c3f9d58dc09e,66a626ef09d4e21e1a8894ec,673777cb8b31e3e64f60fb4a,2024-11-15_10h33.38.120,Tarea de género gramatical,2024.2.2,MacIntel,59.88023952,,,,,,,,,,,,,,,,,,,,,,,,394.9001,396.1309,a,1,[],[],[],[],[],[],[],0.5491,1,396.1311,396.6305,,,,,,923,MAS,AGR,150,rato,el,l,0.5491,,396.6306,396.6307,0.022061632,-0.402834201,0,0,0,,0,111,111,22,1,,,,
,,,,,,2c730adad712c3f9d58dc09e,66a626ef09d4e21e1a8894ec,673777cb8b31e3e64f60fb4a,2024-11-15_10h33.38.120,Tarea de género gramatical,2024.2.2,MacIntel,59.88023952,,,,,,,,,,,,,,,,,,,,,,,,396.6317,397.8801,l,1,[],[],[],[],[],[],[],0.5673,1,397.8803,398.381,,,,,,1131,FEM,CON,150,bruja,,a,0.5673,,398.3811,398.3811,0.022061632,-0.402834201,0,0,0,,0,112,112,230,1,,,,
,,,,,,2c730adad712c3f9d58dc09e,66a626ef09d4e21e1a8894ec,673777cb8b31e3e64f60fb4a,2024-11-15_10h33.38.120,Tarea de género gramatical,2024.2.2,MacIntel,59.88023952,,,,,,,,,,,,,,,,,,,,,,,,398.3823,399.5644,a,1,[],[],[],[],[],[],[],0.5001,1,399.5646,400.0636,,,,,,1140,MAS,CON,150,ruido,,l,0.5001,,400.0637,400.0638,0.022061632,-0.402834201,0,0,0,,0,113,113,239,1,,,,
,,,,,,2c730adad712c3f9d58dc09e,66a626ef09d4e21e1a8894ec,673777cb8b31e3e64f60fb4a,2024-11-15_10h33.38.120,Tarea de género gramatical,2024.2.2,MacIntel,59.88023952,,,,,,,,,,,,,,,,,,,,,,,,400.0648,401.3146,l,1,[],[],[],[],[],[],[],0.583,1,401.3147,401.8146,,,,,,1203,FEM,CON,150,maldad,,a,0.583,,401.8158,401.8167,0.022061632,-0.402834201,0,0,0,,0,114,114,302,1,,,,
,,,,,,2c730adad712c3f9d58dc09e,66a626ef09d4e21e1a8894ec,673777cb8b31e3e64f60fb4a,2024-11-15_10h33.38.120,Tarea de género gramatical,2024.2.2,MacIntel,59.88023952,,,,,,,,,,,,,,,,,,,,,,,,401.8175,403.3313,l,1,[],[],[],[],[],[],[],0.8367,1,403.3315,403.8313,,,,,,979,FEM,DIS,150,mina,el,a,0.8367,,403.8313,403.8314,0.022061632,-0.402834201,0,0,0,,0,115,115,78,1,,,,
,,,,,,2c730adad712c3f9d58dc09e,66a626ef09d4e21e1a8894ec,673777cb8b31e3e64f60fb4a,2024-11-15_10h33.38.120,Tarea de género gramatical,2024.2.2,MacIntel,59.88023952,,,,,,,,,,,,,,,,,,,,,,,,403.8325,405.3975,a,1,[],[],[],[],[],[],[],0.884,1,405.3977,405.898,,,,,,1157,MAS,AGR,150,pecho,el,l,0.884,,405.898,405.8981,0.022061632,-0.402834201,0,0,0,,0,116,116,256,1,,,,
,,,,,,2c730adad712c3f9d58dc09e,66a626ef09d4e21e1a8894ec,673777cb8b31e3e64f60fb4a,2024-11-15_10h33.38.120,Tarea de género gramatical,2024.2.2,MacIntel,59.88023952,,,,,,,,,,,,,,,,,,,,,,,,405.8992,407.2481,a,1,[],[],[],[],[],[],[],0.668,1,407.2482,407.748,,,,,,1337,MAS,AGR,150,hombro,el,l,0.668,,407.7481,407.7483,0.022061632,-0.402834201,0,0,0,,0,117,117,436,1,,,,
,,,,,,2c730adad712c3f9d58dc09e,66a626ef09d4e21e1a8894ec,673777cb8b31e3e64f60fb4a,2024-11-15_10h33.38.120,Tarea de género gramatical,2024.2.2,MacIntel,59.88023952,,,,,,,,,,,,,,,,,,,,,,,,407.7495,409.0981,l,1,[],[],[],[],[],[],[],0.6775,1,409.0981,409.598,,,,,,1304,FEM,AGR,150,gloria,la,a,0.6775,,409.5982,409.5982,0.022061632,-0.402834201,0,0,0,,0,118,118,403,1,,,,
,,,,,,2c730adad712c3f9d58dc09e,66a626ef09d4e21e1a8894ec,673777cb8b31e3e64f60fb4a,2024-11-15_10h33.38.120,Tarea de género gramatical,2024.2.2,MacIntel,59.88023952,,,,,,,,,,,,,,,,,,,,,,,,409.5994,410.8646,l,1,[],[],[],[],[],[],[],0.5866,1,410.8647,411.3648,,,,,,1093,FEM,DIS,150,bolsa,el,a,0.5866,,411.3661,411.3671,0.022061632,-0.402834201,0,0,0,,0,119,119,192,1,,,,
,,,,,,2c730adad712c3f9d58dc09e,66a626ef09d4e21e1a8894ec,673777cb8b31e3e64f60fb4a,2024-11-15_10h33.38.120,Tarea de género gramatical,2024.2.2,MacIntel,59.88023952,,,,,,,,,,,,,,,,,,,,,,,,411.3679,412.815,a,1,[],[],[],[],[],[],[],0.7664,1,412.815,413.315,,,,,,1019,MAS,AGR,150,mito,el,l,0.7664,,413.315,413.3151,0.022061632,-0.402834201,0,0,0,,0,120,120,118,1,,,,
,,,,,,2c730adad712c3f9d58dc09e,66a626ef09d4e21e1a8894ec,673777cb8b31e3e64f60fb4a,2024-11-15_10h33.38.120,Tarea de género gramatical,2024.2.2,MacIntel,59.88023952,,,,,,,,,,,,,,,,,,,,,,,,413.3163,414.5141,a,1,[],[],[],[],[],[],[],0.518,1,414.5142,415.0141,,,,,,1313,MAS,AGR,150,diario,el,l,0.518,,415.0142,415.0143,0.022061632,-0.402834201,0,0,0,,0,121,121,412,1,,,,
,,,,,,2c730adad712c3f9d58dc09e,66a626ef09d4e21e1a8894ec,673777cb8b31e3e64f60fb4a,2024-11-15_10h33.38.120,Tarea de género gramatical,2024.2.2,MacIntel,59.88023952,,,,,,,,,,,,,,,,,,,,,,,,415.0155,416.1642,l,1,[],[],[],[],[],[],[],0.4666,1,416.1643,416.665,,,,,,950,FEM,AGR,150,dama,la,a,0.4666,,416.6652,416.6653,0.022061632,-0.402834201,0,0,0,,0,122,122,49,1,,,,
,,,,,,2c730adad712c3f9d58dc09e,66a626ef09d4e21e1a8894ec,673777cb8b31e3e64f60fb4a,2024-11-15_10h33.38.120,Tarea de género gramatical,2024.2.2,MacIntel,59.88023952,,,,,,,,,,,,,,,,,,,,,,,,416.6663,417.9983,a,1,[],[],[],[],[],[],[],0.662,1,417.9984,418.4977,,,,,,1236,MAS,CON,150,crimen,,l,0.662,,418.499,418.4999,0.022061632,-0.402834201,0,0,0,,0,123,123,335,1,,,,
,,,,,,2c730adad712c3f9d58dc09e,66a626ef09d4e21e1a8894ec,673777cb8b31e3e64f60fb4a,2024-11-15_10h33.38.120,Tarea de género gramatical,2024.2.2,MacIntel,59.88023952,,,,,,,,,,,,,,,,,,,,,,,,418.5006,419.6818,l,1,[],[],[],[],[],[],[],0.5112,1,419.6821,420.1819,,,,,,939,FEM,CON,150,luna,,a,0.5112,,420.1819,420.1821,0.022061632,-0.402834201,0,0,0,,0,124,124,38,1,,,,
,,,,,,2c730adad712c3f9d58dc09e,66a626ef09d4e21e1a8894ec,673777cb8b31e3e64f60fb4a,2024-11-15_10h33.38.120,Tarea de género gramatical,2024.2.2,MacIntel,59.88023952,,,,,,,,,,,,,,,,,,,,,,,,420.1834,421.4319,a,1,[],[],[],[],[],[],[],0.569,1,421.432,421.9319,,,,,,966,MAS,CON,150,muro,,l,0.569,,421.932,421.9321,0.022061632,-0.402834201,0,0,0,,0,125,125,65,1,,,,
,,,,,,2c730adad712c3f9d58dc09e,66a626ef09d4e21e1a8894ec,673777cb8b31e3e64f60fb4a,2024-11-15_10h33.38.120,Tarea de género gramatical,2024.2.2,MacIntel,59.88023952,,,,,,,,,,,,,,,,,,,,,,,,421.9333,423.482,a,1,[],[],[],[],[],[],[],0.879,1,423.4821,423.9821,,,,,,1012,MAS,DIS,150,reto,la,l,0.879,,423.9822,423.9823,0.022061632,-0.402834201,0,0,0,,0,126,126,111,1,,,,
,,,,,,2c730adad712c3f9d58dc09e,66a626ef09d4e21e1a8894ec,673777cb8b31e3e64f60fb4a,2024-11-15_10h33.38.120,Tarea de género gramatical,2024.2.2,MacIntel,59.88023952,,,,,,,,,,,,,,,,,,,,,,,,423.9837,425.5155,l,1,[],[],[],[],[],[],[],0.8514,1,425.5156,426.0153,,,,,,1333,FEM,DIS,150,huella,el,a,0.8514,,426.0154,426.0155,0.022061632,-0.402834201,0,0,0,,0,127,127,432,1,,,,
,,,,,,2c730adad712c3f9d58dc09e,66a626ef09d4e21e1a8894ec,673777cb8b31e3e64f60fb4a,2024-11-15_10h33.38.120,Tarea de género gramatical,2024.2.2,MacIntel,59.88023952,,,,,,,,,,,,,,,,,,,,,,,,426.0167,427.2322,l,1,[],[],[],[],[],[],[],0.5332,1,427.2323,427.7323,,,,,,1022,FEM,AGR,150,loca,la,a,0.5332,,427.734,427.7352,0.022061632,-0.402834201,0,0,0,,0,128,128,121,1,,,,
,,,,,,2c730adad712c3f9d58dc09e,66a626ef09d4e21e1a8894ec,673777cb8b31e3e64f60fb4a,2024-11-15_10h33.38.120,Tarea de género gramatical,2024.2.2,MacIntel,59.88023952,,,,,,,,,,,,,,,,,,,,,,,,427.7361,429.1159,a,1,[],[],[],[],[],[],[],0.7038,1,429.116,429.6156,,,,,,1174,MAS,DIS,150,motor,la,l,0.7038,,429.6157,429.6159,0.022061632,-0.402834201,0,0,0,,0,129,129,273,1,,,,
,,,,,,2c730adad712c3f9d58dc09e,66a626ef09d4e21e1a8894ec,673777cb8b31e3e64f60fb4a,2024-11-15_10h33.38.120,Tarea de género gramatical,2024.2.2,MacIntel,59.88023952,,,,,,,,,,,,,,,,,,,,,,,,429.6173,430.9157,l,1,[],[],[],[],[],[],[],0.6191,1,430.9159,431.4156,,,,,,1267,FEM,DIS,150,teoría,el,a,0.6191,,431.4157,431.4158,0.022061632,-0.402834201,0,0,0,,0,130,130,366,1,,,,
,,,,,,2c730adad712c3f9d58dc09e,66a626ef09d4e21e1a8894ec,673777cb8b31e3e64f60fb4a,2024-11-15_10h33.38.120,Tarea de género gramatical,2024.2.2,MacIntel,59.88023952,,,,,,,,,,,,,,,,,,,,,,,,431.4168,432.899,a,1,[],[],[],[],[],[],[],0.8005,1,432.8991,433.399,,,,,,1110,MAS,CON,150,baile,,l,0.8005,,433.3991,433.3992,0.022061632,-0.402834201,0,0,0,,0,131,131,209,1,,,,
,,,,,,2c730adad712c3f9d58dc09e,66a626ef09d4e21e1a8894ec,673777cb8b31e3e64f60fb4a,2024-11-15_10h33.38.120,Tarea de género gramatical,2024.2.2,MacIntel,59.88023952,,,,,,,,,,,,,,,,,,,,,,,,433.4005,434.6991,a,1,[],[],[],[],[],[],[],0.6177,1,434.6994,435.1992,,,,,,1193,MAS,AGR,150,patio,el,l,0.6177,,435.2007,435.202,0.022061632,-0.402834201,0,0,0,,0,132,132,292,1,,,,
,,,,,,2c730adad712c3f9d58dc09e,66a626ef09d4e21e1a8894ec,673777cb8b31e3e64f60fb4a,2024-11-15_10h33.38.120,Tarea de género gramatical,2024.2.2,MacIntel,59.88023952,,,,,,,,,,,,,,,,,,,,,,,,435.2029,436.4156,a,1,[],[],[],[],[],[],[],0.5425,1,436.4157,436.9159,,,,,,1151,MAS,AGR,150,dueño,el,l,0.5425,,436.9159,436.9161,0.022061632,-0.402834201,0,0,0,,0,133,133,250,1,,,,
,,,,,,2c730adad712c3f9d58dc09e,66a626ef09d4e21e1a8894ec,673777cb8b31e3e64f60fb4a,2024-11-15_10h33.38.120,Tarea de género gramatical,2024.2.2,MacIntel,59.88023952,,,,,,,,,,,,,,,,,,,,,,,,436.9175,438.2327,l,1,[],[],[],[],[],[],[],0.634,1,438.2329,438.7325,,,,,,986,FEM,AGR,150,cruz,la,a,0.634,,438.7327,438.7328,0.022061632,-0.402834201,0,0,0,,0,134,134,85,1,,,,
,,,,,,2c730adad712c3f9d58dc09e,66a626ef09d4e21e1a8894ec,673777cb8b31e3e64f60fb4a,2024-11-15_10h33.38.120,Tarea de género gramatical,2024.2.2,MacIntel,59.88023952,,,,,,,,,,,,,,,,,,,,,,,,438.7341,439.916,l,1,[],[],[],[],[],[],[],0.5004,1,439.916,440.4159,,,,,,932,FEM,AGR,150,caja,la,a,0.5004,,440.416,440.4161,0.022061632,-0.402834201,0,0,0,,0,135,135,31,1,,,,
,,,,,,2c730adad712c3f9d58dc09e,66a626ef09d4e21e1a8894ec,673777cb8b31e3e64f60fb4a,2024-11-15_10h33.38.120,Tarea de género gramatical,2024.2.2,MacIntel,59.88023952,,,,,,,,,,,,,,,,,,,,,,,,440.4173,441.7164,a,1,[],[],[],[],[],[],[],0.6286,1,441.7167,442.216,,,,,,1228,MAS,DIS,150,asunto,la,l,0.6286,,442.2161,442.2162,0.022061632,-0.402834201,0,0,0,,0,136,136,327,1,,,,
,,,,,,2c730adad712c3f9d58dc09e,66a626ef09d4e21e1a8894ec,673777cb8b31e3e64f60fb4a,2024-11-15_10h33.38.120,Tarea de género gramatical,2024.2.2,MacIntel,59.88023952,,,,,,,,,,,,,,,,,,,,,,,,442.2172,443.4494,l,1,[],[],[],[],[],[],[],0.5552,1,443.4496,443.9495,,,,,,1035,FEM,CON,150,raíz,,a,0.5552,,443.9509,443.9519,0.022061632,-0.402834201,0,0,0,,0,137,137,134,1,,,,
,,,,,,2c730adad712c3f9d58dc09e,66a626ef09d4e21e1a8894ec,673777cb8b31e3e64f60fb4a,2024-11-15_10h33.38.120,Tarea de género gramatical,2024.2.2,MacIntel,59.88023952,,,,,,,,,,,,,,,,,,,,,,,,443.9526,445.3499,a,1,[],[],[],[],[],[],[],0.7287,1,445.3501,445.8495,,,,,,1224,MAS,CON,150,cuarto,,l,0.7287,,445.8496,445.8498,0.022061632,-0.402834201,0,0,0,,0,138,138,323,1,,,,
,,,,,,2c730adad712c3f9d58dc09e,66a626ef09d4e21e1a8894ec,673777cb8b31e3e64f60fb4a,2024-11-15_10h33.38.120,Tarea de género gramatical,2024.2.2,MacIntel,59.88023952,,,,,,,,,,,,,,,,,,,,,,,,445.8511,447.1827,l,1,[],[],[],[],[],[],[],0.6503,1,447.1828,447.6828,,,,,,1027,FEM,DIS,150,cuna,el,a,0.6503,,447.6829,447.683,0.022061632,-0.402834201,0,0,0,,0,139,139,126,1,,,,
,,,,,,2c730adad712c3f9d58dc09e,66a626ef09d4e21e1a8894ec,673777cb8b31e3e64f60fb4a,2024-11-15_10h33.38.120,Tarea de género gramatical,2024.2.2,MacIntel,59.88023952,,,,,,,,,,,,,,,,,,,,,,,,447.6841,448.8998,l,1,[],[],[],[],[],[],[],0.5352,1,448.8999,449.3997,,,,,,1166,FEM,AGR,150,jaula,la,a,0.5352,,449.3998,449.3998,0.022061632,-0.402834201,0,0,0,,0,140,140,265,1,,,,
,,,,,,2c730adad712c3f9d58dc09e,66a626ef09d4e21e1a8894ec,673777cb8b31e3e64f60fb4a,2024-11-15_10h33.38.120,Tarea de género gramatical,2024.2.2,MacIntel,59.88023952,,,,,,,,,,,,,,,,,,,,,,,,449.4009,450.8168,a,1,[],[],[],[],[],[],[],0.7466,1,450.817,451.3164,,,,,,1068,MAS,CON,150,sitio,,l,0.7466,,451.318,451.3191,0.022061632,-0.402834201,0,0,0,,0,141,141,167,1,,,,
,,,,,,2c730adad712c3f9d58dc09e,66a626ef09d4e21e1a8894ec,673777cb8b31e3e64f60fb4a,2024-11-15_10h33.38.120,Tarea de género gramatical,2024.2.2,MacIntel,59.88023952,,,,,,,,,,,,,,,,,,,,,,,,451.3201,452.4331,a,0,[],[],[],[],[],[],[],0.4348,0,452.4341,452.9331,,,,,,1190,FEM,AGR,150,cabra,la,a,0.4348,,452.9332,452.9336,0.022061632,-0.402834201,0,0,0,,0,142,142,289,1,,,,
,,,,,,2c730adad712c3f9d58dc09e,66a626ef09d4e21e1a8894ec,673777cb8b31e3e64f60fb4a,2024-11-15_10h33.38.120,Tarea de género gramatical,2024.2.2,MacIntel,59.88023952,,,,,,,,,,,,,,,,,,,,,,,,452.9349,454.6164,l,1,[],[],[],[],[],[],[],1.0089,1,454.6172,455.1164,,,,,,1328,FEM,AGR,150,jugada,la,a,1.0089,,455.1165,455.1166,0.022061632,-0.402834201,0,0,0,,0,143,143,427,1,,,,
,,,,,,2c730adad712c3f9d58dc09e,66a626ef09d4e21e1a8894ec,673777cb8b31e3e64f60fb4a,2024-11-15_10h33.38.120,Tarea de género gramatical,2024.2.2,MacIntel,59.88023952,,,,,,,,,,,,,,,,,,,,,,,,455.1179,456.2834,l,1,[],[],[],[],[],[],[],0.4848,1,456.2836,456.7833,,,,,,1167,FEM,CON,150,barba,,a,0.4848,,456.7833,456.7834,0.022061632,-0.402834201,0,0,0,,0,144,144,266,1,,,,
,,,,,,2c730adad712c3f9d58dc09e,66a626ef09d4e21e1a8894ec,673777cb8b31e3e64f60fb4a,2024-11-15_10h33.38.120,Tarea de género gramatical,2024.2.2,MacIntel,59.88023952,,,,,,,,,,,,,,,,,,,,,,,,456.7848,457.8667,l,1,[],[],[],[],[],[],[],0.401,1,457.8668,458.3666,,,,,,1317,FEM,CON,150,cabaña,,a,0.401,,458.3667,458.3668,0.022061632,-0.402834201,0,0,0,,0,145,145,416,1,,,,
,,,,,,2c730adad712c3f9d58dc09e,66a626ef09d4e21e1a8894ec,673777cb8b31e3e64f60fb4a,2024-11-15_10h33.38.120,Tarea de género gramatical,2024.2.2,MacIntel,59.88023952,,,,,,,,,,,,,,,,,,,,,,,,458.3679,459.5167,l,1,[],[],[],[],[],[],[],0.4673,1,459.5168,460.0168,,,,,,1046,FEM,AGR,150,lana,la,a,0.4673,,460.0184,460.0196,0.022061632,-0.402834201,0,0,0,,0,146,146,145,1,,,,
,,,,,,2c730adad712c3f9d58dc09e,66a626ef09d4e21e1a8894ec,673777cb8b31e3e64f60fb4a,2024-11-15_10h33.38.120,Tarea de género gramatical,2024.2.2,MacIntel,59.88023952,,,,,,,,,,,,,,,,,,,,,,,,460.0205,461.1332,l,1,[],[],[],[],[],[],[],0.4374,1,461.1334,461.6333,,,,,,927,FEM,CON,150,mesa,,a,0.4374,,461.6334,461.6335,0.022061632,-0.402834201,0,0,0,,0,147,147,26,1,,,,
,,,,,,2c730adad712c3f9d58dc09e,66a626ef09d4e21e1a8894ec,673777cb8b31e3e64f60fb4a,2024-11-15_10h33.38.120,Tarea de género gramatical,2024.2.2,MacIntel,59.88023952,,,,,,,,,,,,,,,,,,,,,,,,461.6346,463.1001,a,1,[],[],[],[],[],[],[],0.7842,1,463.1003,463.6002,,,,,,1312,MAS,DIS,150,espejo,la,l,0.7842,,463.6002,463.6005,0.022061632,-0.402834201,0,0,0,,0,148,148,411,1,,,,
,,,,,,2c730adad712c3f9d58dc09e,66a626ef09d4e21e1a8894ec,673777cb8b31e3e64f60fb4a,2024-11-15_10h33.38.120,Tarea de género gramatical,2024.2.2,MacIntel,59.88023952,,,,,,,,,,,,,,,,,,,,,,,,463.6016,464.7668,l,1,[],[],[],[],[],[],[],0.4835,1,464.767,465.2671,,,,,,1011,FEM,CON,150,goma,,a,0.4835,,465.2672,465.2673,0.022061632,-0.402834201,0,0,0,,0,149,149,110,1,,,,
,,,,,,2c730adad712c3f9d58dc09e,66a626ef09d4e21e1a8894ec,673777cb8b31e3e64f60fb4a,2024-11-15_10h33.38.120,Tarea de género gramatical,2024.2.2,MacIntel,59.88023952,,,,,,,,,,,,,,,,,,,,,,,,465.2686,466.5168,l,1,[],[],[],[],[],[],[],0.5779,1,466.5169,467.017,,,,,,1311,FEM,CON,150,actriz,,a,0.5779,,467.0182,505.8353,0.022061632,-0.402834201,0,0,0,space,0,150,150,410,1,38.8014,,,
,,,,,,2c730adad712c3f9d58dc09e,66a626ef09d4e21e1a8894ec,673777cb8b31e3e64f60fb4a,2024-11-15_10h33.38.120,Tarea de género gramatical,2024.2.2,MacIntel,59.88023952,,,,,,,,,,,,,,,,,,,,,,,,505.8365,507.6189,a,0,[],[],[],[],[],[],[],1.1121,0,507.6199,508.1184,,,,,,1243,FEM,DIS,150,trampa,el,a,1.1121,,508.1185,508.1186,0.022061632,-0.402834201,0,0,0,,0,151,151,342,1,,,,
,,,,,,2c730adad712c3f9d58dc09e,66a626ef09d4e21e1a8894ec,673777cb8b31e3e64f60fb4a,2024-11-15_10h33.38.120,Tarea de género gramatical,2024.2.2,MacIntel,59.88023952,,,,,,,,,,,,,,,,,,,,,,,,508.1197,509.7344,a,1,[],[],[],[],[],[],[],0.9374,1,509.7351,510.2351,,,,,,1344,MAS,CON,150,límite,,l,0.9374,,510.2352,510.2352,0.022061632,-0.402834201,0,0,0,,0,152,152,443,1,,,,
,,,,,,2c730adad712c3f9d58dc09e,66a626ef09d4e21e1a8894ec,673777cb8b31e3e64f60fb4a,2024-11-15_10h33.38.120,Tarea de género gramatical,2024.2.2,MacIntel,59.88023952,,,,,,,,,,,,,,,,,,,,,,,,510.2366,511.5689,a,1,[],[],[],[],[],[],[],0.6621,1,511.5691,512.0686,,,,,,1162,MAS,DIS,150,video,la,l,0.6621,,512.0687,512.0688,0.022061632,-0.402834201,0,0,0,,0,153,153,261,1,,,,
,,,,,,2c730adad712c3f9d58dc09e,66a626ef09d4e21e1a8894ec,673777cb8b31e3e64f60fb4a,2024-11-15_10h33.38.120,Tarea de género gramatical,2024.2.2,MacIntel,59.88023952,,,,,,,,,,,,,,,,,,,,,,,,512.07,513.3025,l,1,[],[],[],[],[],[],[],0.5624,1,513.3027,513.8019,,,,,,1003,FEM,DIS,150,fama,el,a,0.5624,,513.8019,513.802,0.022061632,-0.402834201,0,0,0,,0,154,154,102,1,,,,
,,,,,,2c730adad712c3f9d58dc09e,66a626ef09d4e21e1a8894ec,673777cb8b31e3e64f60fb4a,2024-11-15_10h33.38.120,Tarea de género gramatical,2024.2.2,MacIntel,59.88023952,,,,,,,,,,,,,,,,,,,,,,,,513.803,514.919,l,1,[],[],[],[],[],[],[],0.445,1,514.9191,515.4188,,,,,,1340,FEM,AGR,150,patada,la,a,0.445,,515.4203,515.4214,0.022061632,-0.402834201,0,0,0,,0,155,155,439,1,,,,
,,,,,,2c730adad712c3f9d58dc09e,66a626ef09d4e21e1a8894ec,673777cb8b31e3e64f60fb4a,2024-11-15_10h33.38.120,Tarea de género gramatical,2024.2.2,MacIntel,59.88023952,,,,,,,,,,,,,,,,,,,,,,,,515.4222,516.4519,l,1,[],[],[],[],[],[],[],0.3609,1,516.452,516.9522,,,,,,1178,FEM,AGR,150,presa,la,a,0.3609,,516.9522,516.9524,0.022061632,-0.402834201,0,0,0,,0,156,156,277,1,,,,
,,,,,,2c730adad712c3f9d58dc09e,66a626ef09d4e21e1a8894ec,673777cb8b31e3e64f60fb4a,2024-11-15_10h33.38.120,Tarea de género gramatical,2024.2.2,MacIntel,59.88023952,,,,,,,,,,,,,,,,,,,,,,,,516.9538,518.1023,l,1,[],[],[],[],[],[],[],0.4676,1,518.1024,518.6024,,,,,,1075,FEM,DIS,150,señal,el,a,0.4676,,518.6024,518.6027,0.022061632,-0.402834201,0,0,0,,0,157,157,174,1,,,,
,,,,,,2c730adad712c3f9d58dc09e,66a626ef09d4e21e1a8894ec,673777cb8b31e3e64f60fb4a,2024-11-15_10h33.38.120,Tarea de género gramatical,2024.2.2,MacIntel,59.88023952,,,,,,,,,,,,,,,,,,,,,,,,518.6038,519.6524,l,1,[],[],[],[],[],[],[],0.3678,1,519.6526,520.1523,,,,,,1321,FEM,DIS,150,novela,el,a,0.3678,,520.1524,520.1526,0.022061632,-0.402834201,0,0,0,,0,158,158,420,1,,,,
,,,,,,2c730adad712c3f9d58dc09e,66a626ef09d4e21e1a8894ec,673777cb8b31e3e64f60fb4a,2024-11-15_10h33.38.120,Tarea de género gramatical,2024.2.2,MacIntel,59.88023952,,,,,,,,,,,,,,,,,,,,,,,,520.1538,521.1021,l,1,[],[],[],[],[],[],[],0.2788,1,521.1023,521.6023,,,,,,1273,FEM,DIS,150,lluvia,el,a,0.2788,,521.6038,521.6048,0.022061632,-0.402834201,0,0,0,,0,159,159,372,1,,,,
,,,,,,2c730adad712c3f9d58dc09e,66a626ef09d4e21e1a8894ec,673777cb8b31e3e64f60fb4a,2024-11-15_10h33.38.120,Tarea de género gramatical,2024.2.2,MacIntel,59.88023952,,,,,,,,,,,,,,,,,,,,,,,,521.6056,522.7524,l,1,[],[],[],[],[],[],[],0.4721,1,522.7527,523.2513,,,,,,1221,FEM,CON,150,comida,,a,0.4721,,523.2514,523.2515,0.022061632,-0.402834201,0,0,0,,0,160,160,320,1,,,,
,,,,,,2c730adad712c3f9d58dc09e,66a626ef09d4e21e1a8894ec,673777cb8b31e3e64f60fb4a,2024-11-15_10h33.38.120,Tarea de género gramatical,2024.2.2,MacIntel,59.88023952,,,,,,,,,,,,,,,,,,,,,,,,523.253,524.5189,a,1,[],[],[],[],[],[],[],0.6108,1,524.5189,525.019,,,,,,1048,MAS,DIS,150,surf,la,l,0.6108,,525.0192,525.0192,0.022061632,-0.402834201,0,0,0,,0,161,161,147,1,,,,
,,,,,,2c730adad712c3f9d58dc09e,66a626ef09d4e21e1a8894ec,673777cb8b31e3e64f60fb4a,2024-11-15_10h33.38.120,Tarea de género gramatical,2024.2.2,MacIntel,59.88023952,,,,,,,,,,,,,,,,,,,,,,,,525.0203,526.3025,a,1,[],[],[],[],[],[],[],0.6005,1,526.3025,526.8015,,,,,,1306,MAS,DIS,150,premio,la,l,0.6005,,526.8016,526.8017,0.022061632,-0.402834201,0,0,0,,0,162,162,405,1,,,,
,,,,,,2c730adad712c3f9d58dc09e,66a626ef09d4e21e1a8894ec,673777cb8b31e3e64f60fb4a,2024-11-15_10h33.38.120,Tarea de género gramatical,2024.2.2,MacIntel,59.88023952,,,,,,,,,,,,,,,,,,,,,,,,526.8029,527.9191,l,1,[],[],[],[],[],[],[],0.454,1,527.9192,528.4191,,,,,,1305,FEM,CON,150,parada,,a,0.454,,528.4192,528.4194,0.022061632,-0.402834201,0,0,0,,0,163,163,404,1,,,,
,,,,,,2c730adad712c3f9d58dc09e,66a626ef09d4e21e1a8894ec,673777cb8b31e3e64f60fb4a,2024-11-15_10h33.38.120,Tarea de género gramatical,2024.2.2,MacIntel,59.88023952,,,,,,,,,,,,,,,,,,,,,,,,528.4204,529.5524,l,1,[],[],[],[],[],[],[],0.4611,1,529.5526,530.0525,,,,,,1173,FEM,CON,150,tarta,,a,0.4611,,530.0538,530.0547,0.022061632,-0.402834201,0,0,0,,0,164,164,272,1,,,,
,,,,,,2c730adad712c3f9d58dc09e,66a626ef09d4e21e1a8894ec,673777cb8b31e3e64f60fb4a,2024-11-15_10h33.38.120,Tarea de género gramatical,2024.2.2,MacIntel,59.88023952,,,,,,,,,,,,,,,,,,,,,,,,530.0556,531.4193,a,0,[],[],[],[],[],[],[],0.6846,0,531.4202,531.9193,,,,,,1099,FEM,DIS,150,nariz,el,a,0.6846,,531.9194,531.9195,0.022061632,-0.402834201,0,0,0,,0,165,165,198,1,,,,
,,,,,,2c730adad712c3f9d58dc09e,66a626ef09d4e21e1a8894ec,673777cb8b31e3e64f60fb4a,2024-11-15_10h33.38.120,Tarea de género gramatical,2024.2.2,MacIntel,59.88023952,,,,,,,,,,,,,,,,,,,,,,,,531.9209,533.2529,l,1,[],[],[],[],[],[],[],0.6526,1,533.2539,533.7525,,,,,,1303,FEM,DIS,150,paliza,el,a,0.6526,,533.7527,533.7528,0.022061632,-0.402834201,0,0,0,,0,166,166,402,1,,,,
,,,,,,2c730adad712c3f9d58dc09e,66a626ef09d4e21e1a8894ec,673777cb8b31e3e64f60fb4a,2024-11-15_10h33.38.120,Tarea de género gramatical,2024.2.2,MacIntel,59.88023952,,,,,,,,,,,,,,,,,,,,,,,,533.7538,535.0527,a,1,[],[],[],[],[],[],[],0.6179,1,535.0529,535.5518,,,,,,1020,MAS,CON,150,puño,,l,0.6179,,535.5519,535.552,0.022061632,-0.402834201,0,0,0,,0,167,167,119,1,,,,
,,,,,,2c730adad712c3f9d58dc09e,66a626ef09d4e21e1a8894ec,673777cb8b31e3e64f60fb4a,2024-11-15_10h33.38.120,Tarea de género gramatical,2024.2.2,MacIntel,59.88023952,,,,,,,,,,,,,,,,,,,,,,,,535.5531,536.8194,a,1,[],[],[],[],[],[],[],0.6116,1,536.8196,537.3185,,,,,,1348,MAS,DIS,150,aceite,la,l,0.6116,,537.3197,537.3205,0.022061632,-0.402834201,0,0,0,,0,168,168,447,1,,,,
,,,,,,2c730adad712c3f9d58dc09e,66a626ef09d4e21e1a8894ec,673777cb8b31e3e64f60fb4a,2024-11-15_10h33.38.120,Tarea de género gramatical,2024.2.2,MacIntel,59.88023952,,,,,,,,,,,,,,,,,,,,,,,,537.3212,538.5195,a,1,[],[],[],[],[],[],[],0.5172,1,538.5197,539.0195,,,,,,1091,MAS,AGR,150,dolor,el,l,0.5172,,539.0196,539.0198,0.022061632,-0.402834201,0,0,0,,0,169,169,190,1,,,,
,,,,,,2c730adad712c3f9d58dc09e,66a626ef09d4e21e1a8894ec,673777cb8b31e3e64f60fb4a,2024-11-15_10h33.38.120,Tarea de género gramatical,2024.2.2,MacIntel,59.88023952,,,,,,,,,,,,,,,,,,,,,,,,539.0209,540.252,l,1,[],[],[],[],[],[],[],0.554,1,540.252,540.7529,,,,,,1346,FEM,AGR,150,bañera,la,a,0.554,,540.7529,540.7531,0.022061632,-0.402834201,0,0,0,,0,170,170,445,1,,,,
,,,,,,2c730adad712c3f9d58dc09e,66a626ef09d4e21e1a8894ec,673777cb8b31e3e64f60fb4a,2024-11-15_10h33.38.120,Tarea de género gramatical,2024.2.2,MacIntel,59.88023952,,,,,,,,,,,,,,,,,,,,,,,,540.7542,542.003,a,1,[],[],[],[],[],[],[],0.5674,1,542.0033,542.503,,,,,,1349,MAS,AGR,150,payaso,el,l,0.5674,,542.5031,542.5032,0.022061632,-0.402834201,0,0,0,,0,171,171,448,1,,,,
,,,,,,2c730adad712c3f9d58dc09e,66a626ef09d4e21e1a8894ec,673777cb8b31e3e64f60fb4a,2024-11-15_10h33.38.120,Tarea de género gramatical,2024.2.2,MacIntel,59.88023952,,,,,,,,,,,,,,,,,,,,,,,,542.5045,543.8201,l,1,[],[],[],[],[],[],[],0.6466,1,543.8202,544.3197,,,,,,1239,FEM,CON,150,salida,,a,0.6466,,544.3198,544.3199,0.022061632,-0.402834201,0,0,0,,0,172,172,338,1,,,,
,,,,,,2c730adad712c3f9d58dc09e,66a626ef09d4e21e1a8894ec,673777cb8b31e3e64f60fb4a,2024-11-15_10h33.38.120,Tarea de género gramatical,2024.2.2,MacIntel,59.88023952,,,,,,,,,,,,,,,,,,,,,,,,544.3211,545.6033,a,1,[],[],[],[],[],[],[],0.6119,1,545.6034,546.103,,,,,,1301,MAS,AGR,150,abrigo,el,l,0.6119,,546.1043,546.1052,0.022061632,-0.402834201,0,0,0,,0,173,173,400,1,,,,
,,,,,,2c730adad712c3f9d58dc09e,66a626ef09d4e21e1a8894ec,673777cb8b31e3e64f60fb4a,2024-11-15_10h33.38.120,Tarea de género gramatical,2024.2.2,MacIntel,59.88023952,,,,,,,,,,,,,,,,,,,,,,,,546.1061,547.2366,l,0,[],[],[],[],[],[],[],0.4559,0,547.2374,547.7367,,,,,,918,MAS,CON,150,tren,,l,0.4559,,547.7368,547.7368,0.022061632,-0.402834201,0,0,0,,0,174,174,17,1,,,,
,,,,,,2c730adad712c3f9d58dc09e,66a626ef09d4e21e1a8894ec,673777cb8b31e3e64f60fb4a,2024-11-15_10h33.38.120,Tarea de género gramatical,2024.2.2,MacIntel,59.88023952,,,,,,,,,,,,,,,,,,,,,,,,547.738,549.0355,l,1,[],[],[],[],[],[],[],0.6202,1,549.0366,549.5366,,,,,,1238,FEM,AGR,150,abuela,la,a,0.6202,,549.5368,549.5369,0.022061632,-0.402834201,0,0,0,,0,175,175,337,1,,,,
,,,,,,2c730adad712c3f9d58dc09e,66a626ef09d4e21e1a8894ec,673777cb8b31e3e64f60fb4a,2024-11-15_10h33.38.120,Tarea de género gramatical,2024.2.2,MacIntel,59.88023952,,,,,,,,,,,,,,,,,,,,,,,,549.5381,550.6866,l,1,[],[],[],[],[],[],[],0.4714,1,550.6868,551.1866,,,,,,951,FEM,CON,150,bala,,a,0.4714,,551.1866,551.1868,0.022061632,-0.402834201,0,0,0,,0,176,176,50,1,,,,
,,,,,,2c730adad712c3f9d58dc09e,66a626ef09d4e21e1a8894ec,673777cb8b31e3e64f60fb4a,2024-11-15_10h33.38.120,Tarea de género gramatical,2024.2.2,MacIntel,59.88023952,,,,,,,,,,,,,,,,,,,,,,,,551.1879,552.3858,a,1,[],[],[],[],[],[],[],0.5287,1,552.3861,552.8867,,,,,,1284,MAS,CON,150,pedazo,,l,0.5287,,552.8882,552.8894,0.022061632,-0.402834201,0,0,0,,0,177,177,383,1,,,,
,,,,,,2c730adad712c3f9d58dc09e,66a626ef09d4e21e1a8894ec,673777cb8b31e3e64f60fb4a,2024-11-15_10h33.38.120,Tarea de género gramatical,2024.2.2,MacIntel,59.88023952,,,,,,,,,,,,,,,,,,,,,,,,552.8901,554.0191,a,1,[],[],[],[],[],[],[],0.4507,1,554.0193,554.519,,,,,,1122,MAS,CON,150,valor,,l,0.4507,,554.5192,554.5193,0.022061632,-0.402834201,0,0,0,,0,178,178,221,1,,,,
,,,,,,2c730adad712c3f9d58dc09e,66a626ef09d4e21e1a8894ec,673777cb8b31e3e64f60fb4a,2024-11-15_10h33.38.120,Tarea de género gramatical,2024.2.2,MacIntel,59.88023952,,,,,,,,,,,,,,,,,,,,,,,,554.5203,555.7035,a,1,[],[],[],[],[],[],[],0.5136,1,555.7036,556.2035,,,,,,1331,MAS,AGR,150,veneno,el,l,0.5136,,556.2036,556.2038,0.022061632,-0.402834201,0,0,0,,0,179,179,430,1,,,,
,,,,,,2c730adad712c3f9d58dc09e,66a626ef09d4e21e1a8894ec,673777cb8b31e3e64f60fb4a,2024-11-15_10h33.38.120,Tarea de género gramatical,2024.2.2,MacIntel,59.88023952,,,,,,,,,,,,,,,,,,,,,,,,556.2053,557.2868,a,1,[],[],[],[],[],[],[],0.4115,1,557.2869,557.7868,,,,,,1139,MAS,AGR,150,reloj,el,l,0.4115,,557.7869,557.787,0.022061632,-0.402834201,0,0,0,,0,180,180,238,1,,,,
,,,,,,2c730adad712c3f9d58dc09e,66a626ef09d4e21e1a8894ec,673777cb8b31e3e64f60fb4a,2024-11-15_10h33.38.120,Tarea de género gramatical,2024.2.2,MacIntel,59.88023952,,,,,,,,,,,,,,,,,,,,,,,,557.7882,558.8861,a,1,[],[],[],[],[],[],[],0.4157,1,558.8863,559.3859,,,,,,1204,MAS,DIS,150,tiempo,la,l,0.4157,,559.3859,559.3861,0.022061632,-0.402834201,0,0,0,,0,181,181,303,1,,,,
,,,,,,2c730adad712c3f9d58dc09e,66a626ef09d4e21e1a8894ec,673777cb8b31e3e64f60fb4a,2024-11-15_10h33.38.120,Tarea de género gramatical,2024.2.2,MacIntel,59.88023952,,,,,,,,,,,,,,,,,,,,,,,,559.3872,560.4033,a,0,[],[],[],[],[],[],[],0.3511,0,560.404,560.9026,,,,,,1189,FEM,DIS,150,tabla,el,a,0.3511,,560.904,560.9048,0.022061632,-0.402834201,0,0,0,,0,182,182,288,1,,,,
,,,,,,2c730adad712c3f9d58dc09e,66a626ef09d4e21e1a8894ec,673777cb8b31e3e64f60fb4a,2024-11-15_10h33.38.120,Tarea de género gramatical,2024.2.2,MacIntel,59.88023952,,,,,,,,,,,,,,,,,,,,,,,,560.9056,562.3203,a,0,[],[],[],[],[],[],[],0.7438,0,562.3204,562.8205,,,,,,1119,FEM,CON,150,costa,,a,0.7438,,562.8205,562.8207,0.022061632,-0.402834201,0,0,0,,0,183,183,218,1,,,,
,,,,,,2c730adad712c3f9d58dc09e,66a626ef09d4e21e1a8894ec,673777cb8b31e3e64f60fb4a,2024-11-15_10h33.38.120,Tarea de género gramatical,2024.2.2,MacIntel,59.88023952,,,,,,,,,,,,,,,,,,,,,,,,562.8217,565.4705,,0,[],[],[],[],[],[],[],0.7438,-1,565.4714,565.9696,,,,,,1158,MAS,CON,150,polvo,,l,,,565.9697,565.9698,0.022061632,-0.402834201,0,0,0,,0,184,184,257,1,,,,
,,,,,,2c730adad712c3f9d58dc09e,66a626ef09d4e21e1a8894ec,673777cb8b31e3e64f60fb4a,2024-11-15_10h33.38.120,Tarea de género gramatical,2024.2.2,MacIntel,59.88023952,,,,,,,,,,,,,,,,,,,,,,,,565.9709,567.3538,a,1,[],[],[],[],[],[],[],0.7283,1,567.3549,567.8529,,,,,,1324,MAS,DIS,150,rastro,la,l,0.7283,,567.853,567.8531,0.022061632,-0.402834201,0,0,0,,0,185,185,423,1,,,,
,,,,,,2c730adad712c3f9d58dc09e,66a626ef09d4e21e1a8894ec,673777cb8b31e3e64f60fb4a,2024-11-15_10h33.38.120,Tarea de género gramatical,2024.2.2,MacIntel,59.88023952,,,,,,,,,,,,,,,,,,,,,,,,567.8543,569.0706,a,1,[],[],[],[],[],[],[],0.5616,1,569.0707,569.5705,,,,,,947,MAS,AGR,150,olor,el,l,0.5616,,569.5715,569.5721,0.022061632,-0.402834201,0,0,0,,0,186,186,46,1,,,,
,,,,,,2c730adad712c3f9d58dc09e,66a626ef09d4e21e1a8894ec,673777cb8b31e3e64f60fb4a,2024-11-15_10h33.38.120,Tarea de género gramatical,2024.2.2,MacIntel,59.88023952,,,,,,,,,,,,,,,,,,,,,,,,569.5726,571.1206,a,1,[],[],[],[],[],[],[],0.8788,1,571.1207,571.6207,,,,,,952,MAS,DIS,150,lago,la,l,0.8788,,571.6208,571.621,0.022061632,-0.402834201,0,0,0,,0,187,187,51,1,,,,
,,,,,,2c730adad712c3f9d58dc09e,66a626ef09d4e21e1a8894ec,673777cb8b31e3e64f60fb4a,2024-11-15_10h33.38.120,Tarea de género gramatical,2024.2.2,MacIntel,59.88023952,,,,,,,,,,,,,,,,,,,,,,,,571.6219,572.7707,a,1,[],[],[],[],[],[],[],0.4785,1,572.7708,573.2707,,,,,,1266,MAS,CON,150,riesgo,,l,0.4785,,573.2708,573.2709,0.022061632,-0.402834201,0,0,0,,0,188,188,365,1,,,,
,,,,,,2c730adad712c3f9d58dc09e,66a626ef09d4e21e1a8894ec,673777cb8b31e3e64f60fb4a,2024-11-15_10h33.38.120,Tarea de género gramatical,2024.2.2,MacIntel,59.88023952,,,,,,,,,,,,,,,,,,,,,,,,573.272,574.4707,a,1,[],[],[],[],[],[],[],0.5283,1,574.4708,574.9699,,,,,,1186,MAS,DIS,150,reino,la,l,0.5283,,574.97,574.9701,0.022061632,-0.402834201,0,0,0,,0,189,189,285,1,,,,
,,,,,,2c730adad712c3f9d58dc09e,66a626ef09d4e21e1a8894ec,673777cb8b31e3e64f60fb4a,2024-11-15_10h33.38.120,Tarea de género gramatical,2024.2.2,MacIntel,59.88023952,,,,,,,,,,,,,,,,,,,,,,,,574.9713,576.3366,l,1,[],[],[],[],[],[],[],0.6841,1,576.3368,576.8375,,,,,,1329,FEM,CON,150,fianza,,a,0.6841,,576.8376,576.8378,0.022061632,-0.402834201,0,0,0,,0,190,190,428,1,,,,
,,,,,,2c730adad712c3f9d58dc09e,66a626ef09d4e21e1a8894ec,673777cb8b31e3e64f60fb4a,2024-11-15_10h33.38.120,Tarea de género gramatical,2024.2.2,MacIntel,59.88023952,,,,,,,,,,,,,,,,,,,,,,,,576.8389,578.6876,a,1,[],[],[],[],[],[],[],1.1703,1,578.6878,579.1877,,,,,,1042,MAS,DIS,150,lodo,la,l,1.1703,,579.189,579.1898,0.022061632,-0.402834201,0,0,0,,0,191,191,141,1,,,,
,,,,,,2c730adad712c3f9d58dc09e,66a626ef09d4e21e1a8894ec,673777cb8b31e3e64f60fb4a,2024-11-15_10h33.38.120,Tarea de género gramatical,2024.2.2,MacIntel,59.88023952,,,,,,,,,,,,,,,,,,,,,,,,579.1906,580.371,a,1,[],[],[],[],[],[],[],0.4997,1,580.3711,580.871,,,,,,1223,MAS,AGR,150,marido,el,l,0.4997,,580.8711,580.8712,0.022061632,-0.402834201,0,0,0,,0,192,192,322,1,,,,
,,,,,,2c730adad712c3f9d58dc09e,66a626ef09d4e21e1a8894ec,673777cb8b31e3e64f60fb4a,2024-11-15_10h33.38.120,Tarea de género gramatical,2024.2.2,MacIntel,59.88023952,,,,,,,,,,,,,,,,,,,,,,,,580.8724,582.0211,a,1,[],[],[],[],[],[],[],0.4665,1,582.0211,582.5211,,,,,,1242,MAS,CON,150,abuelo,,l,0.4665,,582.5212,582.5212,0.022061632,-0.402834201,0,0,0,,0,193,193,341,1,,,,
,,,,,,2c730adad712c3f9d58dc09e,66a626ef09d4e21e1a8894ec,673777cb8b31e3e64f60fb4a,2024-11-15_10h33.38.120,Tarea de género gramatical,2024.2.2,MacIntel,59.88023952,,,,,,,,,,,,,,,,,,,,,,,,582.5225,583.8035,l,1,[],[],[],[],[],[],[],0.6005,1,583.8036,584.3047,,,,,,1244,FEM,AGR,150,pareja,la,a,0.6005,,584.3048,584.3049,0.022061632,-0.402834201,0,0,0,,0,194,194,343,1,,,,
,,,,,,2c730adad712c3f9d58dc09e,66a626ef09d4e21e1a8894ec,673777cb8b31e3e64f60fb4a,2024-11-15_10h33.38.120,Tarea de género gramatical,2024.2.2,MacIntel,59.88023952,,,,,,,,,,,,,,,,,,,,,,,,584.3062,585.4878,l,1,[],[],[],[],[],[],[],0.5013,1,585.488,585.988,,,,,,1268,FEM,AGR,150,gracia,la,a,0.5013,,585.9892,585.9901,0.022061632,-0.402834201,0,0,0,,0,195,195,367,1,,,,
,,,,,,2c730adad712c3f9d58dc09e,66a626ef09d4e21e1a8894ec,673777cb8b31e3e64f60fb4a,2024-11-15_10h33.38.120,Tarea de género gramatical,2024.2.2,MacIntel,59.88023952,,,,,,,,,,,,,,,,,,,,,,,,585.9912,587.0545,l,1,[],[],[],[],[],[],[],0.3952,1,587.0547,587.5546,,,,,,919,FEM,DIS,150,niña,el,a,0.3952,,587.5547,587.5549,0.022061632,-0.402834201,0,0,0,,0,196,196,18,1,,,,
,,,,,,2c730adad712c3f9d58dc09e,66a626ef09d4e21e1a8894ec,673777cb8b31e3e64f60fb4a,2024-11-15_10h33.38.120,Tarea de género gramatical,2024.2.2,MacIntel,59.88023952,,,,,,,,,,,,,,,,,,,,,,,,587.5562,588.6713,l,1,[],[],[],[],[],[],[],0.4446,1,588.6715,589.1715,,,,,,908,FEM,AGR,150,idea,la,a,0.4446,,589.1715,589.1718,0.022061632,-0.402834201,0,0,0,,0,197,197,7,1,,,,
,,,,,,2c730adad712c3f9d58dc09e,66a626ef09d4e21e1a8894ec,673777cb8b31e3e64f60fb4a,2024-11-15_10h33.38.120,Tarea de género gramatical,2024.2.2,MacIntel,59.88023952,,,,,,,,,,,,,,,,,,,,,,,,589.173,590.6381,a,1,[],[],[],[],[],[],[],0.796,1,590.6382,591.1371,,,,,,1030,MAS,DIS,150,yate,la,l,0.796,,591.1371,591.1373,0.022061632,-0.402834201,0,0,0,,0,198,198,129,1,,,,
,,,,,,2c730adad712c3f9d58dc09e,66a626ef09d4e21e1a8894ec,673777cb8b31e3e64f60fb4a,2024-11-15_10h33.38.120,Tarea de género gramatical,2024.2.2,MacIntel,59.88023952,,,,,,,,,,,,,,,,,,,,,,,,591.1385,592.3548,a,1,[],[],[],[],[],[],[],0.5495,1,592.3549,592.8548,,,,,,1000,MAS,DIS,150,nido,la,l,0.5495,,592.8548,592.855,0.022061632,-0.402834201,0,0,0,,0,199,199,99,1,,,,
,,,,,,2c730adad712c3f9d58dc09e,66a626ef09d4e21e1a8894ec,673777cb8b31e3e64f60fb4a,2024-11-15_10h33.38.120,Tarea de género gramatical,2024.2.2,MacIntel,59.88023952,,,,,,,,,,,,,,,,,,,,,,,,592.8561,594.1881,l,1,[],[],[],[],[],[],[],0.6529,1,594.1883,594.6882,,,,,,967,FEM,DIS,150,miel,el,a,0.6529,,594.6895,594.6905,0.022061632,-0.402834201,0,0,0,,0,200,200,66,1,,,,
,,,,,,2c730adad712c3f9d58dc09e,66a626ef09d4e21e1a8894ec,673777cb8b31e3e64f60fb4a,2024-11-15_10h33.38.120,Tarea de género gramatical,2024.2.2,MacIntel,59.88023952,,,,,,,,,,,,,,,,,,,,,,,,594.6913,596.0548,a,1,[],[],[],[],[],[],[],0.6841,1,596.0548,596.554,,,,,,964,MAS,DIS,150,saco,la,l,0.6841,,596.5541,596.5542,0.022061632,-0.402834201,0,0,0,,0,201,201,63,1,,,,
,,,,,,2c730adad712c3f9d58dc09e,66a626ef09d4e21e1a8894ec,673777cb8b31e3e64f60fb4a,2024-11-15_10h33.38.120,Tarea de género gramatical,2024.2.2,MacIntel,59.88023952,,,,,,,,,,,,,,,,,,,,,,,,596.5553,597.8217,l,1,[],[],[],[],[],[],[],0.6003,1,597.8218,598.3209,,,,,,1077,FEM,CON,150,broma,,a,0.6003,,598.321,598.3211,0.022061632,-0.402834201,0,0,0,,0,202,202,176,1,,,,
,,,,,,2c730adad712c3f9d58dc09e,66a626ef09d4e21e1a8894ec,673777cb8b31e3e64f60fb4a,2024-11-15_10h33.38.120,Tarea de género gramatical,2024.2.2,MacIntel,59.88023952,,,,,,,,,,,,,,,,,,,,,,,,598.3223,599.6549,a,1,[],[],[],[],[],[],[],0.6754,1,599.655,600.1551,,,,,,1175,MAS,AGR,150,disco,el,l,0.6754,,600.1551,600.1553,0.022061632,-0.402834201,0,0,0,,0,203,203,274,1,,,,
,,,,,,2c730adad712c3f9d58dc09e,66a626ef09d4e21e1a8894ec,673777cb8b31e3e64f60fb4a,2024-11-15_10h33.38.120,Tarea de género gramatical,2024.2.2,MacIntel,59.88023952,,,,,,,,,,,,,,,,,,,,,,,,600.1563,601.2385,a,1,[],[],[],[],[],[],[],0.4034,1,601.2386,601.7375,,,,,,1103,MAS,AGR,150,novio,el,l,0.4034,,601.7389,601.7397,0.022061632,-0.402834201,0,0,0,,0,204,204,202,1,,,,
,,,,,,2c730adad712c3f9d58dc09e,66a626ef09d4e21e1a8894ec,673777cb8b31e3e64f60fb4a,2024-11-15_10h33.38.120,Tarea de género gramatical,2024.2.2,MacIntel,59.88023952,,,,,,,,,,,,,,,,,,,,,,,,601.7404,603.0052,l,1,[],[],[],[],[],[],[],0.5872,1,603.0053,603.5053,,,,,,1315,FEM,DIS,150,cabina,el,a,0.5872,,603.5053,603.5054,0.022061632,-0.402834201,0,0,0,,0,205,205,414,1,,,,
,,,,,,2c730adad712c3f9d58dc09e,66a626ef09d4e21e1a8894ec,673777cb8b31e3e64f60fb4a,2024-11-15_10h33.38.120,Tarea de género gramatical,2024.2.2,MacIntel,59.88023952,,,,,,,,,,,,,,,,,,,,,,,,603.5065,604.7052,l,1,[],[],[],[],[],[],[],0.517,1,604.7053,605.2043,,,,,,902,FEM,AGR,150,vida,la,a,0.517,,605.2044,605.2045,0.022061632,-0.402834201,0,0,0,,0,206,206,1,1,,,,
,,,,,,2c730adad712c3f9d58dc09e,66a626ef09d4e21e1a8894ec,673777cb8b31e3e64f60fb4a,2024-11-15_10h33.38.120,Tarea de género gramatical,2024.2.2,MacIntel,59.88023952,,,,,,,,,,,,,,,,,,,,,,,,605.2057,606.3219,l,1,[],[],[],[],[],[],[],0.4611,1,606.322,606.8219,,,,,,992,FEM,AGR,150,masa,la,a,0.4611,,606.8221,606.8223,0.022061632,-0.402834201,0,0,0,,0,207,207,91,1,,,,
,,,,,,2c730adad712c3f9d58dc09e,66a626ef09d4e21e1a8894ec,673777cb8b31e3e64f60fb4a,2024-11-15_10h33.38.120,Tarea de género gramatical,2024.2.2,MacIntel,59.88023952,,,,,,,,,,,,,,,,,,,,,,,,606.8233,607.8551,l,1,[],[],[],[],[],[],[],0.3607,1,607.8552,608.3545,,,,,,1005,FEM,CON,150,jefa,,a,0.3607,,608.3546,608.3547,0.022061632,-0.402834201,0,0,0,,0,208,208,104,1,,,,
,,,,,,2c730adad712c3f9d58dc09e,66a626ef09d4e21e1a8894ec,673777cb8b31e3e64f60fb4a,2024-11-15_10h33.38.120,Tarea de género gramatical,2024.2.2,MacIntel,59.88023952,,,,,,,,,,,,,,,,,,,,,,,,608.3558,609.6388,a,1,[],[],[],[],[],[],[],0.6173,1,609.6389,610.1388,,,,,,1205,MAS,AGR,150,hombre,el,l,0.6173,,610.14,610.1409,0.022061632,-0.402834201,0,0,0,,0,209,209,304,1,,,,
,,,,,,2c730adad712c3f9d58dc09e,66a626ef09d4e21e1a8894ec,673777cb8b31e3e64f60fb4a,2024-11-15_10h33.38.120,Tarea de género gramatical,2024.2.2,MacIntel,59.88023952,,,,,,,,,,,,,,,,,,,,,,,,610.1418,611.5387,a,1,[],[],[],[],[],[],[],0.728,1,611.5388,612.0387,,,,,,1146,MAS,CON,150,humor,,l,0.728,,612.0387,612.0388,0.022061632,-0.402834201,0,0,0,,0,210,210,245,1,,,,
,,,,,,2c730adad712c3f9d58dc09e,66a626ef09d4e21e1a8894ec,673777cb8b31e3e64f60fb4a,2024-11-15_10h33.38.120,Tarea de género gramatical,2024.2.2,MacIntel,59.88023952,,,,,,,,,,,,,,,,,,,,,,,,612.04,613.4054,l,0,[],[],[],[],[],[],[],0.6933,0,613.4065,613.9051,,,,,,1300,MAS,DIS,150,barrio,la,l,0.6933,,613.9051,613.9053,0.022061632,-0.402834201,0,0,0,,0,211,211,399,1,,,,
,,,,,,2c730adad712c3f9d58dc09e,66a626ef09d4e21e1a8894ec,673777cb8b31e3e64f60fb4a,2024-11-15_10h33.38.120,Tarea de género gramatical,2024.2.2,MacIntel,59.88023952,,,,,,,,,,,,,,,,,,,,,,,,613.9064,615.4556,a,1,[],[],[],[],[],[],[],0.8671,1,615.4567,615.9557,,,,,,1026,MAS,CON,150,lazo,,l,0.8671,,615.9558,615.9559,0.022061632,-0.402834201,0,0,0,,0,212,212,125,1,,,,
,,,,,,2c730adad712c3f9d58dc09e,66a626ef09d4e21e1a8894ec,673777cb8b31e3e64f60fb4a,2024-11-15_10h33.38.120,Tarea de género gramatical,2024.2.2,MacIntel,59.88023952,,,,,,,,,,,,,,,,,,,,,,,,615.957,617.1224,a,1,[],[],[],[],[],[],[],0.4949,1,617.1225,617.6223,,,,,,905,MAS,AGR,150,tipo,el,l,0.4949,,617.6235,617.6244,0.022061632,-0.402834201,0,0,0,,0,213,213,4,1,,,,
,,,,,,2c730adad712c3f9d58dc09e,66a626ef09d4e21e1a8894ec,673777cb8b31e3e64f60fb4a,2024-11-15_10h33.38.120,Tarea de género gramatical,2024.2.2,MacIntel,59.88023952,,,,,,,,,,,,,,,,,,,,,,,,617.6254,618.8891,l,1,[],[],[],[],[],[],[],0.5958,1,618.8892,619.389,,,,,,925,FEM,DIS,150,nave,el,a,0.5958,,619.3891,619.3892,0.022061632,-0.402834201,0,0,0,,0,214,214,24,1,,,,
,,,,,,2c730adad712c3f9d58dc09e,66a626ef09d4e21e1a8894ec,673777cb8b31e3e64f60fb4a,2024-11-15_10h33.38.120,Tarea de género gramatical,2024.2.2,MacIntel,59.88023952,,,,,,,,,,,,,,,,,,,,,,,,619.3903,620.6726,l,1,[],[],[],[],[],[],[],0.6033,1,620.6727,621.1724,,,,,,998,FEM,AGR,150,fuga,la,a,0.6033,,621.1725,621.1726,0.022061632,-0.402834201,0,0,0,,0,215,215,97,1,,,,
,,,,,,2c730adad712c3f9d58dc09e,66a626ef09d4e21e1a8894ec,673777cb8b31e3e64f60fb4a,2024-11-15_10h33.38.120,Tarea de género gramatical,2024.2.2,MacIntel,59.88023952,,,,,,,,,,,,,,,,,,,,,,,,621.1738,622.2727,l,1,[],[],[],[],[],[],[],0.4173,1,622.2729,622.7726,,,,,,1125,FEM,CON,150,pieza,,a,0.4173,,622.7727,622.7728,0.022061632,-0.402834201,0,0,0,,0,216,216,224,1,,,,
,,,,,,2c730adad712c3f9d58dc09e,66a626ef09d4e21e1a8894ec,673777cb8b31e3e64f60fb4a,2024-11-15_10h33.38.120,Tarea de género gramatical,2024.2.2,MacIntel,59.88023952,,,,,,,,,,,,,,,,,,,,,,,,622.7741,624.2224,l,1,[],[],[],[],[],[],[],0.7669,1,624.2225,624.7227,,,,,,1149,FEM,CON,150,crema,,a,0.7669,,624.7227,624.7229,0.022061632,-0.402834201,0,0,0,,0,217,217,248,1,,,,
,,,,,,2c730adad712c3f9d58dc09e,66a626ef09d4e21e1a8894ec,673777cb8b31e3e64f60fb4a,2024-11-15_10h33.38.120,Tarea de género gramatical,2024.2.2,MacIntel,59.88023952,,,,,,,,,,,,,,,,,,,,,,,,624.7243,626.0894,a,1,[],[],[],[],[],[],[],0.6837,1,626.0895,626.5894,,,,,,1169,MAS,AGR,150,primo,el,l,0.6837,,626.591,626.5922,0.022061632,-0.402834201,0,0,0,,0,218,218,268,1,,,,
,,,,,,2c730adad712c3f9d58dc09e,66a626ef09d4e21e1a8894ec,673777cb8b31e3e64f60fb4a,2024-11-15_10h33.38.120,Tarea de género gramatical,2024.2.2,MacIntel,59.88023952,,,,,,,,,,,,,,,,,,,,,,,,626.5931,628.3895,l,1,[],[],[],[],[],[],[],1.1169,1,628.3895,628.8895,,,,,,1029,FEM,CON,150,rana,,a,1.1169,,628.8896,628.8898,0.022061632,-0.402834201,0,0,0,,0,219,219,128,1,,,,
,,,,,,2c730adad712c3f9d58dc09e,66a626ef09d4e21e1a8894ec,673777cb8b31e3e64f60fb4a,2024-11-15_10h33.38.120,Tarea de género gramatical,2024.2.2,MacIntel,59.88023952,,,,,,,,,,,,,,,,,,,,,,,,628.8912,630.0062,l,1,[],[],[],[],[],[],[],0.4335,1,630.0063,630.5063,,,,,,920,FEM,AGR,150,ropa,la,a,0.4335,,630.5064,630.5066,0.022061632,-0.402834201,0,0,0,,0,220,220,19,1,,,,
,,,,,,2c730adad712c3f9d58dc09e,66a626ef09d4e21e1a8894ec,673777cb8b31e3e64f60fb4a,2024-11-15_10h33.38.120,Tarea de género gramatical,2024.2.2,MacIntel,59.88023952,,,,,,,,,,,,,,,,,,,,,,,,630.5081,631.673,l,1,[],[],[],[],[],[],[],0.4842,1,631.6731,632.1729,,,,,,1280,FEM,AGR,150,madera,la,a,0.4842,,632.1731,632.1732,0.022061632,-0.402834201,0,0,0,,0,221,221,379,1,,,,
,,,,,,2c730adad712c3f9d58dc09e,66a626ef09d4e21e1a8894ec,673777cb8b31e3e64f60fb4a,2024-11-15_10h33.38.120,Tarea de género gramatical,2024.2.2,MacIntel,59.88023952,,,,,,,,,,,,,,,,,,,,,,,,632.1745,633.4062,a,0,[],[],[],[],[],[],[],0.5612,0,633.407,633.9063,,,,,,1051,FEM,DIS,150,noche,el,a,0.5612,,633.9079,633.9089,0.022061632,-0.402834201,0,0,0,,0,222,222,150,1,,,,
,,,,,,2c730adad712c3f9d58dc09e,66a626ef09d4e21e1a8894ec,673777cb8b31e3e64f60fb4a,2024-11-15_10h33.38.120,Tarea de género gramatical,2024.2.2,MacIntel,59.88023952,,,,,,,,,,,,,,,,,,,,,,,,633.9099,635.256,l,1,[],[],[],[],[],[],[],0.673,1,635.2572,635.7564,,,,,,1250,FEM,AGR,150,imagen,la,a,0.673,,635.7565,635.7568,0.022061632,-0.402834201,0,0,0,,0,223,223,349,1,,,,
,,,,,,2c730adad712c3f9d58dc09e,66a626ef09d4e21e1a8894ec,673777cb8b31e3e64f60fb4a,2024-11-15_10h33.38.120,Tarea de género gramatical,2024.2.2,MacIntel,59.88023952,,,,,,,,,,,,,,,,,,,,,,,,635.7582,637.0398,a,1,[],[],[],[],[],[],[],0.6114,1,637.04,637.5398,,,,,,1342,MAS,DIS,150,cuadro,la,l,0.6114,,637.5398,637.54,0.022061632,-0.402834201,0,0,0,,0,224,224,441,1,,,,
,,,,,,2c730adad712c3f9d58dc09e,66a626ef09d4e21e1a8894ec,673777cb8b31e3e64f60fb4a,2024-11-15_10h33.38.120,Tarea de género gramatical,2024.2.2,MacIntel,59.88023952,,,,,,,,,,,,,,,,,,,,,,,,637.5415,638.6899,a,1,[],[],[],[],[],[],[],0.467,1,638.69,639.1899,,,,,,1181,MAS,AGR,150,actor,el,l,0.467,,639.19,639.1901,0.022061632,-0.402834201,0,0,0,,0,225,225,280,1,,,,
,,,,,,2c730adad712c3f9d58dc09e,66a626ef09d4e21e1a8894ec,673777cb8b31e3e64f60fb4a,2024-11-15_10h33.38.120,Tarea de género gramatical,2024.2.2,MacIntel,59.88023952,,,,,,,,,,,,,,,,,,,,,,,,639.1915,640.7901,l,1,[],[],[],[],[],[],[],0.918,1,640.7903,641.2898,,,,,,1160,FEM,AGR,150,barra,la,a,0.918,,641.2899,641.29,0.022061632,-0.402834201,0,0,0,,0,226,226,259,1,,,,
,,,,,,2c730adad712c3f9d58dc09e,66a626ef09d4e21e1a8894ec,673777cb8b31e3e64f60fb4a,2024-11-15_10h33.38.120,Tarea de género gramatical,2024.2.2,MacIntel,59.88023952,,,,,,,,,,,,,,,,,,,,,,,,641.291,642.5232,a,1,[],[],[],[],[],[],[],0.5621,1,642.5234,643.0234,,,,,,1216,MAS,DIS,150,cuerpo,la,l,0.5621,,643.0251,643.0262,0.022061632,-0.402834201,0,0,0,,0,227,227,315,1,,,,
,,,,,,2c730adad712c3f9d58dc09e,66a626ef09d4e21e1a8894ec,673777cb8b31e3e64f60fb4a,2024-11-15_10h33.38.120,Tarea de género gramatical,2024.2.2,MacIntel,59.88023952,,,,,,,,,,,,,,,,,,,,,,,,643.0271,644.4392,l,1,[],[],[],[],[],[],[],0.7433,1,644.4392,644.9399,,,,,,1148,FEM,AGR,150,letra,la,a,0.7433,,644.9401,644.9403,0.022061632,-0.402834201,0,0,0,,0,228,228,247,1,,,,
,,,,,,2c730adad712c3f9d58dc09e,66a626ef09d4e21e1a8894ec,673777cb8b31e3e64f60fb4a,2024-11-15_10h33.38.120,Tarea de género gramatical,2024.2.2,MacIntel,59.88023952,,,,,,,,,,,,,,,,,,,,,,,,644.9412,646.4065,a,1,[],[],[],[],[],[],[],0.7943,1,646.4066,646.9068,,,,,,935,MAS,AGR,150,taxi,el,l,0.7943,,646.9068,646.907,0.022061632,-0.402834201,0,0,0,,0,229,229,34,1,,,,
,,,,,,2c730adad712c3f9d58dc09e,66a626ef09d4e21e1a8894ec,673777cb8b31e3e64f60fb4a,2024-11-15_10h33.38.120,Tarea de género gramatical,2024.2.2,MacIntel,59.88023952,,,,,,,,,,,,,,,,,,,,,,,,646.9084,648.3235,l,1,[],[],[],[],[],[],[],0.7447,1,648.3236,648.8235,,,,,,1237,FEM,DIS,150,escena,el,a,0.7447,,648.8236,648.8237,0.022061632,-0.402834201,0,0,0,,0,230,230,336,1,,,,
,,,,,,2c730adad712c3f9d58dc09e,66a626ef09d4e21e1a8894ec,673777cb8b31e3e64f60fb4a,2024-11-15_10h33.38.120,Tarea de género gramatical,2024.2.2,MacIntel,59.88023952,,,,,,,,,,,,,,,,,,,,,,,,648.8251,650.0562,a,1,[],[],[],[],[],[],[],0.5499,1,650.0564,650.5568,,,,,,1308,MAS,CON,150,cheque,,l,0.5499,,650.5582,650.5591,0.022061632,-0.402834201,0,0,0,,0,231,231,407,1,,,,
,,,,,,2c730adad712c3f9d58dc09e,66a626ef09d4e21e1a8894ec,673777cb8b31e3e64f60fb4a,2024-11-15_10h33.38.120,Tarea de género gramatical,2024.2.2,MacIntel,59.88023952,,,,,,,,,,,,,,,,,,,,,,,,650.5599,651.7402,l,1,[],[],[],[],[],[],[],0.5045,1,651.7405,652.2404,,,,,,1185,FEM,CON,150,mafia,,a,0.5045,,652.2405,652.2407,0.022061632,-0.402834201,0,0,0,,0,232,232,284,1,,,,
,,,,,,2c730adad712c3f9d58dc09e,66a626ef09d4e21e1a8894ec,673777cb8b31e3e64f60fb4a,2024-11-15_10h33.38.120,Tarea de género gramatical,2024.2.2,MacIntel,59.88023952,,,,,,,,,,,,,,,,,,,,,,,,652.242,653.5738,l,1,[],[],[],[],[],[],[],0.6505,1,653.574,654.0737,,,,,,913,FEM,DIS,150,hija,el,a,0.6505,,654.0738,654.074,0.022061632,-0.402834201,0,0,0,,0,233,233,12,1,,,,
,,,,,,2c730adad712c3f9d58dc09e,66a626ef09d4e21e1a8894ec,673777cb8b31e3e64f60fb4a,2024-11-15_10h33.38.120,Tarea de género gramatical,2024.2.2,MacIntel,59.88023952,,,,,,,,,,,,,,,,,,,,,,,,654.0754,655.1904,l,1,[],[],[],[],[],[],[],0.4448,1,655.1905,655.6904,,,,,,1100,FEM,AGR,150,silla,la,a,0.4448,,655.6905,655.6907,0.022061632,-0.402834201,0,0,0,,0,234,234,199,1,,,,
,,,,,,2c730adad712c3f9d58dc09e,66a626ef09d4e21e1a8894ec,673777cb8b31e3e64f60fb4a,2024-11-15_10h33.38.120,Tarea de género gramatical,2024.2.2,MacIntel,59.88023952,,,,,,,,,,,,,,,,,,,,,,,,655.6921,657.074,a,1,[],[],[],[],[],[],[],0.7118,1,657.0741,657.5738,,,,,,1319,MAS,AGR,150,cuento,el,l,0.7118,,657.5739,657.5742,0.022061632,-0.402834201,0,0,0,,0,235,235,418,1,,,,
,,,,,,2c730adad712c3f9d58dc09e,66a626ef09d4e21e1a8894ec,673777cb8b31e3e64f60fb4a,2024-11-15_10h33.38.120,Tarea de género gramatical,2024.2.2,MacIntel,59.88023952,,,,,,,,,,,,,,,,,,,,,,,,657.5756,658.791,l,1,[],[],[],[],[],[],[],0.5454,1,658.7911,659.2906,,,,,,1094,FEM,AGR,150,banda,la,a,0.5454,,659.2922,659.2934,0.022061632,-0.402834201,0,0,0,,0,236,236,193,1,,,,
,,,,,,2c730adad712c3f9d58dc09e,66a626ef09d4e21e1a8894ec,673777cb8b31e3e64f60fb4a,2024-11-15_10h33.38.120,Tarea de género gramatical,2024.2.2,MacIntel,59.88023952,,,,,,,,,,,,,,,,,,,,,,,,659.2943,660.774,a,1,[],[],[],[],[],[],[],0.8112,1,660.774,661.274,,,,,,1210,MAS,DIS,150,nombre,la,l,0.8112,,661.2741,661.2742,0.022061632,-0.402834201,0,0,0,,0,237,237,309,1,,,,
,,,,,,2c730adad712c3f9d58dc09e,66a626ef09d4e21e1a8894ec,673777cb8b31e3e64f60fb4a,2024-11-15_10h33.38.120,Tarea de género gramatical,2024.2.2,MacIntel,59.88023952,,,,,,,,,,,,,,,,,,,,,,,,661.2753,662.5074,a,1,[],[],[],[],[],[],[],0.5547,1,662.5076,663.0076,,,,,,1150,MAS,DIS,150,cerdo,la,l,0.5547,,663.0077,663.0078,0.022061632,-0.402834201,0,0,0,,0,238,238,249,1,,,,
,,,,,,2c730adad712c3f9d58dc09e,66a626ef09d4e21e1a8894ec,673777cb8b31e3e64f60fb4a,2024-11-15_10h33.38.120,Tarea de género gramatical,2024.2.2,MacIntel,59.88023952,,,,,,,,,,,,,,,,,,,,,,,,663.0092,664.2409,a,1,[],[],[],[],[],[],[],0.5509,1,664.2409,664.7408,,,,,,1302,MAS,CON,150,ladrón,,l,0.5509,,664.7409,664.7411,0.022061632,-0.402834201,0,0,0,,0,239,239,401,1,,,,
,,,,,,2c730adad712c3f9d58dc09e,66a626ef09d4e21e1a8894ec,673777cb8b31e3e64f60fb4a,2024-11-15_10h33.38.120,Tarea de género gramatical,2024.2.2,MacIntel,59.88023952,,,,,,,,,,,,,,,,,,,,,,,,664.7425,665.9575,a,0,[],[],[],[],[],[],[],0.5357,0,665.9586,666.4575,,,,,,1117,FEM,DIS,150,tarea,el,a,0.5357,,666.459,666.4601,0.022061632,-0.402834201,0,0,0,,0,240,240,216,1,,,,
,,,,,,2c730adad712c3f9d58dc09e,66a626ef09d4e21e1a8894ec,673777cb8b31e3e64f60fb4a,2024-11-15_10h33.38.120,Tarea de género gramatical,2024.2.2,MacIntel,59.88023952,,,,,,,,,,,,,,,,,,,,,,,,666.4611,667.7242,a,0,[],[],[],[],[],[],[],0.5845,0,667.7243,668.2242,,,,,,1058,FEM,AGR,150,chica,la,a,0.5845,,668.2243,668.2245,0.022061632,-0.402834201,0,0,0,,0,241,241,157,1,,,,
,,,,,,2c730adad712c3f9d58dc09e,66a626ef09d4e21e1a8894ec,673777cb8b31e3e64f60fb4a,2024-11-15_10h33.38.120,Tarea de género gramatical,2024.2.2,MacIntel,59.88023952,,,,,,,,,,,,,,,,,,,,,,,,668.2258,669.7244,a,1,[],[],[],[],[],[],[],0.8203,1,669.7257,670.2242,,,,,,1127,MAS,AGR,150,vuelo,el,l,0.8203,,670.2243,670.2244,0.022061632,-0.402834201,0,0,0,,0,242,242,226,1,,,,
,,,,,,2c730adad712c3f9d58dc09e,66a626ef09d4e21e1a8894ec,673777cb8b31e3e64f60fb4a,2024-11-15_10h33.38.120,Tarea de género gramatical,2024.2.2,MacIntel,59.88023952,,,,,,,,,,,,,,,,,,,,,,,,670.2255,671.4242,a,1,[],[],[],[],[],[],[],0.5205,1,671.4243,671.9245,,,,,,1289,MAS,AGR,150,tamaño,el,l,0.5205,,671.9245,671.9247,0.022061632,-0.402834201,0,0,0,,0,243,243,388,1,,,,
,,,,,,2c730adad712c3f9d58dc09e,66a626ef09d4e21e1a8894ec,673777cb8b31e3e64f60fb4a,2024-11-15_10h33.38.120,Tarea de género gramatical,2024.2.2,MacIntel,59.88023952,,,,,,,,,,,,,,,,,,,,,,,,671.9261,673.3245,l,1,[],[],[],[],[],[],[],0.7212,1,673.3246,673.8245,,,,,,1087,FEM,DIS,150,lista,el,a,0.7212,,673.8245,673.8247,0.022061632,-0.402834201,0,0,0,,0,244,244,186,1,,,,
,,,,,,2c730adad712c3f9d58dc09e,66a626ef09d4e21e1a8894ec,673777cb8b31e3e64f60fb4a,2024-11-15_10h33.38.120,Tarea de género gramatical,2024.2.2,MacIntel,59.88023952,,,,,,,,,,,,,,,,,,,,,,,,673.8262,675.1576,a,1,[],[],[],[],[],[],[],0.6499,1,675.1578,675.658,,,,,,1126,MAS,DIS,150,color,la,l,0.6499,,675.6596,675.6608,0.022061632,-0.402834201,0,0,0,,0,245,245,225,1,,,,
,,,,,,2c730adad712c3f9d58dc09e,66a626ef09d4e21e1a8894ec,673777cb8b31e3e64f60fb4a,2024-11-15_10h33.38.120,Tarea de género gramatical,2024.2.2,MacIntel,59.88023952,,,,,,,,,,,,,,,,,,,,,,,,675.6618,676.924,a,1,[],[],[],[],[],[],[],0.5878,1,676.9242,677.4245,,,,,,1049,MAS,AGR,150,nudo,el,l,0.5878,,677.4246,677.4247,0.022061632,-0.402834201,0,0,0,,0,246,246,148,1,,,,
,,,,,,2c730adad712c3f9d58dc09e,66a626ef09d4e21e1a8894ec,673777cb8b31e3e64f60fb4a,2024-11-15_10h33.38.120,Tarea de género gramatical,2024.2.2,MacIntel,59.88023952,,,,,,,,,,,,,,,,,,,,,,,,677.4258,678.6077,l,1,[],[],[],[],[],[],[],0.5043,1,678.6078,679.1078,,,,,,1039,FEM,DIS,150,pipa,el,a,0.5043,,679.1079,679.1081,0.022061632,-0.402834201,0,0,0,,0,247,247,138,1,,,,
