counterbalancing_condition,consent_prescreening.block_1/declare_consent,consent_prescreening.block_1/age_years,consent_prescreening.block_1/gender,consent_prescreening.block_1/language_disorder,consent_prescreening.block_1/first_language,PROLIFIC_PID,STUDY_ID,SESSION_ID,date,expName,psychopyVersion,OS,frameRate,check_prescreening_answers.started,check_prescreening_answers.stopped,Instructions.started,Instructions.stopped,instr_done_keyboard.keys,instr_done_touch.x,instr_done_touch.y,instr_done_touch.leftButton,instr_done_touch.midButton,instr_done_touch.rightButton,instr_done_touch.clicked_name,instruction_pages.thisRepN,instruction_pages.thisTrialN,instruction_pages.thisN,instruction_pages.thisIndex,instruction_pages.ran,pageN,phase,instruct_text,has_image,instruct_image,instr_done_keyboard.rt,instr_done_keyboard.duration,presentTrial.started,presentTrial.stopped,response.keys,response.corr,response.rt,response.duration,touch_resp.x,touch_resp.y,touch_resp.leftButton,touch_resp.midButton,touch_resp.rightButton,touch_resp.time,touch_resp.clicked_name,rt,corr,feedback.started,feedback.stopped,practice_trials.thisRepN,practice_trials.thisTrialN,practice_trials.thisN,practice_trials.thisIndex,practice_trials.ran,TrialID,StimulusType,Condition,PrimeDuration,Prime,Flanker,corrAns,Break.started,Break.stopped,break_done_touch.x,break_done_touch.y,break_done_touch.leftButton,break_done_touch.midButton,break_done_touch.rightButton,break_done_keyboard.keys,experiment_trials.thisRepN,experiment_trials.thisTrialN,experiment_trials.thisN,experiment_trials.thisIndex,experiment_trials.ran,break_done_keyboard.rt,break_done_keyboard.duration,End.started,End.stopped
0,"[""over_18"",""comfortable"",""read_info"",""consent_given""]",31,F,"[""none""]","[""spanish""]",2cadcfe448493c52c4c31351,66a626ef09d4e21e1a8894ec,67373f7b2cc50ca2ec0a21c9,2024-11-15_09h35.37.509,Tarea de género gramatical,2024.2.2,Win32,60.97560976,,,,,,,,,,,,,,,,,,,,,,,,,,,,,,,,,,,,,,,,,,,,,,,,,,,,,,,,,,,,,,,,,,,,,
,,,,,,2cadcfe448493c52c4c31351,66a626ef09d4e21e1a8894ec,67373f7b2cc50ca2ec0a21c9,2024-11-15_09h35.37.509,Tarea de género gramatical,2024.2.2,Win32,60.97560976,41.8962,41.8969,,,,,,,,,,,,,,,,,,,,,,,,,,,,,,,,,,,,,,,,,,,,,,,,,,,,,,,,,,,,,,,,,,,
,,,,,,2cadcfe448493c52c4c31351,66a626ef09d4e21e1a8894ec,67373f7b2cc50ca2ec0a21c9,2024-11-15_09h35.37.509,Tarea de género gramatical,2024.2.2,Win32,60.97560976,,,41.9258,54.9163,,0.00390625,-0.397135417,1,0,0,instr_done_button,0,0,0,0,1,1,instructions,"INSTRUCCIONES
Va a realizar una prueba de selección gramatical. Desde el comienzo de la prueba mire siempre al centro de la pantalla. Al cabo de un momento, aparecerán palabras. La tarea consiste en determinar si la palabra del centro (siempre será un sustantivo), pertenece al género masculino o femenino.

Pulse la tecla ESPACIO o toque el botón de abajo para continuar.",0,keyboardresponseFM.png,,,,,,,,,,,,,,,,,,,,,,,,,,,,,,,,,,,,,,,,,,,,,,,,
,,,,,,2cadcfe448493c52c4c31351,66a626ef09d4e21e1a8894ec,67373f7b2cc50ca2ec0a21c9,2024-11-15_09h35.37.509,Tarea de género gramatical,2024.2.2,Win32,60.97560976,,,54.9308,77.0601,,-0.009114583,-0.401041667,1,0,0,instr_done_button,0,1,1,1,1,2,instructions,"Si su dispositivo tiene teclado, pulse la tecla ""A"" para las palabras en femenino (por ejemplo: ""mano"") y la tecla ""L"" para las palabras en masculino(por ejemplo: ""arroz"").
Pulse la tecla ESPACIO o toque el botón de abajo para continuar.",1,keyboardresponseFM.png,,,,,,,,,,,,,,,,,,,,,,,,,,,,,,,,,,,,,,,,,,,,,,,,
,,,,,,2cadcfe448493c52c4c31351,66a626ef09d4e21e1a8894ec,67373f7b2cc50ca2ec0a21c9,2024-11-15_09h35.37.509,Tarea de género gramatical,2024.2.2,Win32,60.97560976,,,77.0641,83.8876,,-0.020833333,-0.397135417,1,0,0,instr_done_button,0,2,2,2,1,3,instructions,"Si utiliza un dispositivo sólo táctil, colóquelo en horizontal y utilice los botones de la pantalla. No utilice el ratón.
Pulse la tecla ESPACIO o toque el botón de abajo para continuar.",2,touchresponseFM.png,,,,,,,,,,,,,,,,,,,,,,,,,,,,,,,,,,,,,,,,,,,,,,,,
,,,,,,2cadcfe448493c52c4c31351,66a626ef09d4e21e1a8894ec,67373f7b2cc50ca2ec0a21c9,2024-11-15_09h35.37.509,Tarea de género gramatical,2024.2.2,Win32,60.97560976,,,83.8898,100.3209,space,-0.020833333,-0.397135417,0,0,0,,0,3,3,3,1,4,instructions,"Es muy importante que responda con la mayor rapidez y precisión posibles, ya que cada cadena de letras sólo estará en pantalla durante un instante. Si no responde en ese tiempo, aparecerá el mensaje ""Muy lento"" y el experimento pasará a la siguiente palabra. Los primeros 15 intentos serán de práctica y habrá dos descansos durante la prueba.
Pulse la tecla ESPACIO o toque el botón de abajo para iniciar la parte de práctica.",0,keyboardresponseFM.png,16.4145,,,,,,,,,,,,,,,,,,,,,,,,,,,,,,,,,,,,,,,,,,,,,,,
,,,,,,2cadcfe448493c52c4c31351,66a626ef09d4e21e1a8894ec,67373f7b2cc50ca2ec0a21c9,2024-11-15_09h35.37.509,Tarea de género gramatical,2024.2.2,Win32,60.97560976,,,,,,,,,,,,,,,,,,,,,,,,100.3418,101.886,a,1,0.8715,,[],[],[],[],[],[],[],0.8715,1,101.8862,102.3856,0,0,0,0,1,2001,FEM,AGR,150,nuca,la,a,,,,,,,,,,,,,,,,,
,,,,,,2cadcfe448493c52c4c31351,66a626ef09d4e21e1a8894ec,67373f7b2cc50ca2ec0a21c9,2024-11-15_09h35.37.509,Tarea de género gramatical,2024.2.2,Win32,60.97560976,,,,,,,,,,,,,,,,,,,,,,,,102.3884,104.0339,l,1,0.9688,,[],[],[],[],[],[],[],0.9688,1,104.034,104.5331,0,1,1,12,1,2013,MAS,AGR,150,acero,el,l,,,,,,,,,,,,,,,,,
,,,,,,2cadcfe448493c52c4c31351,66a626ef09d4e21e1a8894ec,67373f7b2cc50ca2ec0a21c9,2024-11-15_09h35.37.509,Tarea de género gramatical,2024.2.2,Win32,60.97560976,,,,,,,,,,,,,,,,,,,,,,,,104.5347,105.9492,l,1,0.7365,,[],[],[],[],[],[],[],0.7365,1,105.9495,106.4478,0,2,2,13,1,2014,MAS,CON,150,siglo,,l,,,,,,,,,,,,,,,,,
,,,,,,2cadcfe448493c52c4c31351,66a626ef09d4e21e1a8894ec,67373f7b2cc50ca2ec0a21c9,2024-11-15_09h35.37.509,Tarea de género gramatical,2024.2.2,Win32,60.97560976,,,,,,,,,,,,,,,,,,,,,,,,106.4492,107.6804,a,1,0.5498,,[],[],[],[],[],[],[],0.5498,1,107.6807,108.1799,0,3,3,4,1,2005,FEM,CON,150,placa,,a,,,,,,,,,,,,,,,,,
,,,,,,2cadcfe448493c52c4c31351,66a626ef09d4e21e1a8894ec,67373f7b2cc50ca2ec0a21c9,2024-11-15_09h35.37.509,Tarea de género gramatical,2024.2.2,Win32,60.97560976,,,,,,,,,,,,,,,,,,,,,,,,108.1836,109.5113,l,1,0.6535,,[],[],[],[],[],[],[],0.6535,1,109.5114,110.0112,0,4,4,9,1,2010,MAS,AGR,150,vecino,el,l,,,,,,,,,,,,,,,,,
,,,,,,2cadcfe448493c52c4c31351,66a626ef09d4e21e1a8894ec,67373f7b2cc50ca2ec0a21c9,2024-11-15_09h35.37.509,Tarea de género gramatical,2024.2.2,Win32,60.97560976,,,,,,,,,,,,,,,,,,,,,,,,110.0124,111.2601,a,1,0.5753,,[],[],[],[],[],[],[],0.5753,1,111.2602,111.7593,0,5,5,6,1,2007,FEM,AGR,150,navaja,la,a,,,,,,,,,,,,,,,,,
,,,,,,2cadcfe448493c52c4c31351,66a626ef09d4e21e1a8894ec,67373f7b2cc50ca2ec0a21c9,2024-11-15_09h35.37.509,Tarea de género gramatical,2024.2.2,Win32,60.97560976,,,,,,,,,,,,,,,,,,,,,,,,111.7606,112.9582,a,0,0.5178,,[],[],[],[],[],[],[],0.5178,0,112.9593,113.4576,0,6,6,8,1,2009,MAS,DIS,150,puerto,la,l,,,,,,,,,,,,,,,,,
,,,,,,2cadcfe448493c52c4c31351,66a626ef09d4e21e1a8894ec,67373f7b2cc50ca2ec0a21c9,2024-11-15_09h35.37.509,Tarea de género gramatical,2024.2.2,Win32,60.97560976,,,,,,,,,,,,,,,,,,,,,,,,113.4584,114.6743,a,1,0.5345,,[],[],[],[],[],[],[],0.5345,1,114.6769,115.1724,0,7,7,1,1,2002,FEM,CON,150,pala,,a,,,,,,,,,,,,,,,,,
,,,,,,2cadcfe448493c52c4c31351,66a626ef09d4e21e1a8894ec,67373f7b2cc50ca2ec0a21c9,2024-11-15_09h35.37.509,Tarea de género gramatical,2024.2.2,Win32,60.97560976,,,,,,,,,,,,,,,,,,,,,,,,115.1731,116.4379,a,1,0.5904,,[],[],[],[],[],[],[],0.5904,1,116.4381,116.938,0,8,8,3,1,2004,FEM,AGR,150,venta,la,a,,,,,,,,,,,,,,,,,
,,,,,,2cadcfe448493c52c4c31351,66a626ef09d4e21e1a8894ec,67373f7b2cc50ca2ec0a21c9,2024-11-15_09h35.37.509,Tarea de género gramatical,2024.2.2,Win32,60.97560976,,,,,,,,,,,,,,,,,,,,,,,,116.9405,118.2193,l,1,0.6005,,[],[],[],[],[],[],[],0.6005,1,118.2194,118.72,0,9,9,10,1,2011,MAS,CON,150,canal,,l,,,,,,,,,,,,,,,,,
,,,,,,2cadcfe448493c52c4c31351,66a626ef09d4e21e1a8894ec,67373f7b2cc50ca2ec0a21c9,2024-11-15_09h35.37.509,Tarea de género gramatical,2024.2.2,Win32,60.97560976,,,,,,,,,,,,,,,,,,,,,,,,118.7238,119.8515,a,0,0.4544,,[],[],[],[],[],[],[],0.4544,0,119.8523,120.3506,0,10,10,11,1,2012,MAS,DIS,150,clima,la,l,,,,,,,,,,,,,,,,,
,,,,,,2cadcfe448493c52c4c31351,66a626ef09d4e21e1a8894ec,67373f7b2cc50ca2ec0a21c9,2024-11-15_09h35.37.509,Tarea de género gramatical,2024.2.2,Win32,60.97560976,,,,,,,,,,,,,,,,,,,,,,,,120.3519,122.099,l,0,1.0678,,[],[],[],[],[],[],[],1.0678,0,122.0992,122.5993,0,11,11,5,1,2006,FEM,DIS,150,serie,el,a,,,,,,,,,,,,,,,,,
,,,,,,2cadcfe448493c52c4c31351,66a626ef09d4e21e1a8894ec,67373f7b2cc50ca2ec0a21c9,2024-11-15_09h35.37.509,Tarea de género gramatical,2024.2.2,Win32,60.97560976,,,,,,,,,,,,,,,,,,,,,,,,122.6025,124.7633,a,1,1.4914,,[],[],[],[],[],[],[],1.4914,1,124.7642,125.2628,0,12,12,2,1,2003,FEM,DIS,150,daga,el,a,,,,,,,,,,,,,,,,,
,,,,,,2cadcfe448493c52c4c31351,66a626ef09d4e21e1a8894ec,67373f7b2cc50ca2ec0a21c9,2024-11-15_09h35.37.509,Tarea de género gramatical,2024.2.2,Win32,60.97560976,,,,,,,,,,,,,,,,,,,,,,,,125.2638,126.4449,a,1,0.5034,,[],[],[],[],[],[],[],0.5034,1,126.4451,126.9444,0,13,13,7,1,2008,FEM,CON,150,siesta,,a,,,,,,,,,,,,,,,,,
,,,,,,2cadcfe448493c52c4c31351,66a626ef09d4e21e1a8894ec,67373f7b2cc50ca2ec0a21c9,2024-11-15_09h35.37.509,Tarea de género gramatical,2024.2.2,Win32,60.97560976,,,,,,,,,,,,,,,,,,,,,,,,126.9456,128.6431,l,1,1.0156,,[],[],[],[],[],[],[],1.0156,1,128.6433,129.1423,0,14,14,14,1,2015,MAS,DIS,150,robot,la,l,,,,,,,,,,,,,,,,,
,,,,,,2cadcfe448493c52c4c31351,66a626ef09d4e21e1a8894ec,67373f7b2cc50ca2ec0a21c9,2024-11-15_09h35.37.509,Tarea de género gramatical,2024.2.2,Win32,60.97560976,,,135.1769,140.0494,space,-0.020833333,-0.397135417,0,0,0,,,,,,,,,,,,4.859,,140.0983,141.3975,a,1,0.6178,,[],[],[],[],[],[],[],0.6178,1,141.3978,141.8962,,,,,,115,FEM,AGR,150,seda,la,a,141.8964,141.9004,-0.020833333,-0.397135417,0,0,0,,0,0,0,114,1,,,,
,,,,,,2cadcfe448493c52c4c31351,66a626ef09d4e21e1a8894ec,67373f7b2cc50ca2ec0a21c9,2024-11-15_09h35.37.509,Tarea de género gramatical,2024.2.2,Win32,60.97560976,,,,,,,,,,,,,,,,,,,,,,,,141.9014,143.8944,a,1,1.3202,,[],[],[],[],[],[],[],1.3202,1,143.8946,144.3944,,,,,,165,FEM,DIS,150,amiga,el,a,144.3945,144.3947,-0.020833333,-0.397135417,0,0,0,,0,1,1,164,1,,,,
,,,,,,2cadcfe448493c52c4c31351,66a626ef09d4e21e1a8894ec,67373f7b2cc50ca2ec0a21c9,2024-11-15_09h35.37.509,Tarea de género gramatical,2024.2.2,Win32,60.97560976,,,,,,,,,,,,,,,,,,,,,,,,144.3967,145.593,l,1,0.5195,,[],[],[],[],[],[],[],0.5195,1,145.5931,146.0927,,,,,,305,MAS,CON,150,hombre,,l,146.0977,146.0999,-0.020833333,-0.397135417,0,0,0,,0,2,2,304,1,,,,
,,,,,,2cadcfe448493c52c4c31351,66a626ef09d4e21e1a8894ec,67373f7b2cc50ca2ec0a21c9,2024-11-15_09h35.37.509,Tarea de género gramatical,2024.2.2,Win32,60.97560976,,,,,,,,,,,,,,,,,,,,,,,,146.1018,147.4915,a,1,0.7217,,[],[],[],[],[],[],[],0.7217,1,147.4918,147.991,,,,,,375,FEM,DIS,150,cadena,el,a,147.9911,147.9914,-0.020833333,-0.397135417,0,0,0,,0,3,3,374,1,,,,
,,,,,,2cadcfe448493c52c4c31351,66a626ef09d4e21e1a8894ec,67373f7b2cc50ca2ec0a21c9,2024-11-15_09h35.37.509,Tarea de género gramatical,2024.2.2,Win32,60.97560976,,,,,,,,,,,,,,,,,,,,,,,,147.9933,149.6055,l,1,0.9392,,[],[],[],[],[],[],[],0.9392,1,149.6055,150.1062,,,,,,252,MAS,DIS,150,viejo,la,l,150.1063,150.1067,-0.020833333,-0.397135417,0,0,0,,0,4,4,251,1,,,,
,,,,,,2cadcfe448493c52c4c31351,66a626ef09d4e21e1a8894ec,67373f7b2cc50ca2ec0a21c9,2024-11-15_09h35.37.509,Tarea de género gramatical,2024.2.2,Win32,60.97560976,,,,,,,,,,,,,,,,,,,,,,,,150.1091,151.5042,l,1,0.7239,,[],[],[],[],[],[],[],0.7239,1,151.5045,152.0039,,,,,,4,MAS,AGR,150,hijo,el,l,152.0041,152.0044,-0.020833333,-0.397135417,0,0,0,,0,5,5,3,1,,,,
,,,,,,2cadcfe448493c52c4c31351,66a626ef09d4e21e1a8894ec,67373f7b2cc50ca2ec0a21c9,2024-11-15_09h35.37.509,Tarea de género gramatical,2024.2.2,Win32,60.97560976,,,,,,,,,,,,,,,,,,,,,,,,152.0072,154.0508,l,1,1.3696,,[],[],[],[],[],[],[],1.3696,1,154.0508,154.5509,,,,,,376,MAS,AGR,150,efecto,el,l,154.5521,154.5527,-0.020833333,-0.397135417,0,0,0,,0,6,6,375,1,,,,
,,,,,,2cadcfe448493c52c4c31351,66a626ef09d4e21e1a8894ec,67373f7b2cc50ca2ec0a21c9,2024-11-15_09h35.37.509,Tarea de género gramatical,2024.2.2,Win32,60.97560976,,,,,,,,,,,,,,,,,,,,,,,,154.5533,156.0327,a,1,0.7995,,[],[],[],[],[],[],[],0.7995,1,156.0327,156.5317,,,,,,391,FEM,AGR,150,altura,la,a,156.5318,156.5319,-0.020833333,-0.397135417,0,0,0,,0,7,7,390,1,,,,
,,,,,,2cadcfe448493c52c4c31351,66a626ef09d4e21e1a8894ec,67373f7b2cc50ca2ec0a21c9,2024-11-15_09h35.37.509,Tarea de género gramatical,2024.2.2,Win32,60.97560976,,,,,,,,,,,,,,,,,,,,,,,,156.5328,157.6473,a,1,0.4412,,[],[],[],[],[],[],[],0.4412,1,157.6474,158.1476,,,,,,279,FEM,DIS,150,selva,el,a,158.1477,158.148,-0.020833333,-0.397135417,0,0,0,,0,8,8,278,1,,,,
,,,,,,2cadcfe448493c52c4c31351,66a626ef09d4e21e1a8894ec,67373f7b2cc50ca2ec0a21c9,2024-11-15_09h35.37.509,Tarea de género gramatical,2024.2.2,Win32,60.97560976,,,,,,,,,,,,,,,,,,,,,,,,158.1504,159.2133,l,1,0.3867,,[],[],[],[],[],[],[],0.3867,1,159.2136,159.7125,,,,,,425,MAS,CON,150,chiste,,l,159.7125,159.7128,-0.020833333,-0.397135417,0,0,0,,0,9,9,424,1,,,,
,,,,,,2cadcfe448493c52c4c31351,66a626ef09d4e21e1a8894ec,67373f7b2cc50ca2ec0a21c9,2024-11-15_09h35.37.509,Tarea de género gramatical,2024.2.2,Win32,60.97560976,,,,,,,,,,,,,,,,,,,,,,,,159.7146,160.9611,a,1,0.5676,,[],[],[],[],[],[],[],0.5676,1,160.9611,161.4608,,,,,,404,FEM,CON,150,gloria,,a,161.4609,161.4613,-0.020833333,-0.397135417,0,0,0,,0,10,10,403,1,,,,
,,,,,,2cadcfe448493c52c4c31351,66a626ef09d4e21e1a8894ec,67373f7b2cc50ca2ec0a21c9,2024-11-15_09h35.37.509,Tarea de género gramatical,2024.2.2,Win32,60.97560976,,,,,,,,,,,,,,,,,,,,,,,,161.464,162.9421,l,1,0.8085,,[],[],[],[],[],[],[],0.8085,1,162.9421,163.4424,,,,,,282,MAS,DIS,150,bolso,la,l,163.4458,163.4474,-0.020833333,-0.397135417,0,0,0,,0,11,11,281,1,,,,
,,,,,,2cadcfe448493c52c4c31351,66a626ef09d4e21e1a8894ec,67373f7b2cc50ca2ec0a21c9,2024-11-15_09h35.37.509,Tarea de género gramatical,2024.2.2,Win32,60.97560976,,,,,,,,,,,,,,,,,,,,,,,,163.4496,164.591,l,1,0.4691,,[],[],[],[],[],[],[],0.4691,1,164.5912,165.091,,,,,,42,MAS,DIS,150,show,la,l,165.0911,165.0912,-0.020833333,-0.397135417,0,0,0,,0,12,12,41,1,,,,
,,,,,,2cadcfe448493c52c4c31351,66a626ef09d4e21e1a8894ec,67373f7b2cc50ca2ec0a21c9,2024-11-15_09h35.37.509,Tarea de género gramatical,2024.2.2,Win32,60.97560976,,,,,,,,,,,,,,,,,,,,,,,,165.0922,166.306,a,1,0.544,,[],[],[],[],[],[],[],0.544,1,166.3061,166.8056,,,,,,109,FEM,AGR,150,gota,la,a,166.8057,166.8059,-0.020833333,-0.397135417,0,0,0,,0,13,13,108,1,,,,
,,,,,,2cadcfe448493c52c4c31351,66a626ef09d4e21e1a8894ec,67373f7b2cc50ca2ec0a21c9,2024-11-15_09h35.37.509,Tarea de género gramatical,2024.2.2,Win32,60.97560976,,,,,,,,,,,,,,,,,,,,,,,,166.8088,167.9541,l,1,0.4747,,[],[],[],[],[],[],[],0.4747,1,167.9542,168.4534,,,,,,65,MAS,CON,150,rayo,,l,168.4534,168.4534,-0.020833333,-0.397135417,0,0,0,,0,14,14,64,1,,,,
,,,,,,2cadcfe448493c52c4c31351,66a626ef09d4e21e1a8894ec,67373f7b2cc50ca2ec0a21c9,2024-11-15_09h35.37.509,Tarea de género gramatical,2024.2.2,Win32,60.97560976,,,,,,,,,,,,,,,,,,,,,,,,168.4543,169.4865,l,1,0.3521,,[],[],[],[],[],[],[],0.3521,1,169.4866,169.9852,,,,,,293,MAS,CON,150,patio,,l,169.9862,169.9867,-0.020833333,-0.397135417,0,0,0,,0,15,15,292,1,,,,
,,,,,,2cadcfe448493c52c4c31351,66a626ef09d4e21e1a8894ec,67373f7b2cc50ca2ec0a21c9,2024-11-15_09h35.37.509,Tarea de género gramatical,2024.2.2,Win32,60.97560976,,,,,,,,,,,,,,,,,,,,,,,,169.9873,171.1349,a,1,0.467,,[],[],[],[],[],[],[],0.467,1,171.1351,171.6343,,,,,,224,FEM,CON,150,arena,,a,171.6346,171.6349,-0.020833333,-0.397135417,0,0,0,,0,16,16,223,1,,,,
,,,,,,2cadcfe448493c52c4c31351,66a626ef09d4e21e1a8894ec,67373f7b2cc50ca2ec0a21c9,2024-11-15_09h35.37.509,Tarea de género gramatical,2024.2.2,Win32,60.97560976,,,,,,,,,,,,,,,,,,,,,,,,171.6385,172.9828,a,1,0.6761,,[],[],[],[],[],[],[],0.6761,1,172.9831,173.4826,,,,,,417,FEM,DIS,150,cabaña,el,a,173.4828,173.4831,-0.020833333,-0.397135417,0,0,0,,0,17,17,416,1,,,,
,,,,,,2cadcfe448493c52c4c31351,66a626ef09d4e21e1a8894ec,67373f7b2cc50ca2ec0a21c9,2024-11-15_09h35.37.509,Tarea de género gramatical,2024.2.2,Win32,60.97560976,,,,,,,,,,,,,,,,,,,,,,,,173.4857,174.6642,l,1,0.5002,,[],[],[],[],[],[],[],0.5002,1,174.6643,175.1643,,,,,,72,MAS,DIS,150,hoyo,la,l,175.1644,175.1646,-0.020833333,-0.397135417,0,0,0,,0,18,18,71,1,,,,
,,,,,,2cadcfe448493c52c4c31351,66a626ef09d4e21e1a8894ec,67373f7b2cc50ca2ec0a21c9,2024-11-15_09h35.37.509,Tarea de género gramatical,2024.2.2,Win32,60.97560976,,,,,,,,,,,,,,,,,,,,,,,,175.1666,176.3456,l,1,0.5081,,[],[],[],[],[],[],[],0.5081,1,176.3456,176.8456,,,,,,107,MAS,CON,150,cubo,,l,176.8458,176.846,-0.020833333,-0.397135417,0,0,0,,0,19,19,106,1,,,,
,,,,,,2cadcfe448493c52c4c31351,66a626ef09d4e21e1a8894ec,67373f7b2cc50ca2ec0a21c9,2024-11-15_09h35.37.509,Tarea de género gramatical,2024.2.2,Win32,60.97560976,,,,,,,,,,,,,,,,,,,,,,,,176.8486,177.9611,a,1,0.4353,,[],[],[],[],[],[],[],0.4353,1,177.9613,178.461,,,,,,254,FEM,CON,150,caída,,a,178.4642,178.4658,-0.020833333,-0.397135417,0,0,0,,0,20,20,253,1,,,,
,,,,,,2cadcfe448493c52c4c31351,66a626ef09d4e21e1a8894ec,67373f7b2cc50ca2ec0a21c9,2024-11-15_09h35.37.509,Tarea de género gramatical,2024.2.2,Win32,60.97560976,,,,,,,,,,,,,,,,,,,,,,,,178.4675,179.5594,l,1,0.4242,,[],[],[],[],[],[],[],0.4242,1,179.5595,180.0587,,,,,,430,MAS,AGR,150,título,el,l,180.0587,180.0588,-0.020833333,-0.397135417,0,0,0,,0,21,21,429,1,,,,
,,,,,,2cadcfe448493c52c4c31351,66a626ef09d4e21e1a8894ec,67373f7b2cc50ca2ec0a21c9,2024-11-15_09h35.37.509,Tarea de género gramatical,2024.2.2,Win32,60.97560976,,,,,,,,,,,,,,,,,,,,,,,,180.0596,181.2576,a,1,0.5173,,[],[],[],[],[],[],[],0.5173,1,181.2576,181.7576,,,,,,20,FEM,CON,150,ropa,,a,181.7577,181.7579,-0.020833333,-0.397135417,0,0,0,,0,22,22,19,1,,,,
,,,,,,2cadcfe448493c52c4c31351,66a626ef09d4e21e1a8894ec,67373f7b2cc50ca2ec0a21c9,2024-11-15_09h35.37.509,Tarea de género gramatical,2024.2.2,Win32,60.97560976,,,,,,,,,,,,,,,,,,,,,,,,181.7594,182.9225,a,1,0.4882,,[],[],[],[],[],[],[],0.4882,1,182.9226,183.4224,,,,,,194,FEM,CON,150,banda,,a,183.4224,183.4227,-0.020833333,-0.397135417,0,0,0,,0,23,23,193,1,,,,
,,,,,,2cadcfe448493c52c4c31351,66a626ef09d4e21e1a8894ec,67373f7b2cc50ca2ec0a21c9,2024-11-15_09h35.37.509,Tarea de género gramatical,2024.2.2,Win32,60.97560976,,,,,,,,,,,,,,,,,,,,,,,,183.4237,184.6047,a,1,0.5011,,[],[],[],[],[],[],[],0.5011,1,184.6049,185.1043,,,,,,181,FEM,AGR,150,tarde,la,a,185.1081,185.1103,-0.020833333,-0.397135417,0,0,0,,0,24,24,180,1,,,,
,,,,,,2cadcfe448493c52c4c31351,66a626ef09d4e21e1a8894ec,67373f7b2cc50ca2ec0a21c9,2024-11-15_09h35.37.509,Tarea de género gramatical,2024.2.2,Win32,60.97560976,,,,,,,,,,,,,,,,,,,,,,,,185.112,186.286,l,1,0.5047,,[],[],[],[],[],[],[],0.5047,1,186.2861,186.7858,,,,,,330,MAS,DIS,150,estado,la,l,186.7858,186.7859,-0.020833333,-0.397135417,0,0,0,,0,25,25,329,1,,,,
,,,,,,2cadcfe448493c52c4c31351,66a626ef09d4e21e1a8894ec,67373f7b2cc50ca2ec0a21c9,2024-11-15_09h35.37.509,Tarea de género gramatical,2024.2.2,Win32,60.97560976,,,,,,,,,,,,,,,,,,,,,,,,186.7868,187.951,l,1,0.4841,,[],[],[],[],[],[],[],0.4841,1,187.9511,188.451,,,,,,214,MAS,AGR,150,fondo,el,l,188.4512,188.4515,-0.020833333,-0.397135417,0,0,0,,0,26,26,213,1,,,,
,,,,,,2cadcfe448493c52c4c31351,66a626ef09d4e21e1a8894ec,67373f7b2cc50ca2ec0a21c9,2024-11-15_09h35.37.509,Tarea de género gramatical,2024.2.2,Win32,60.97560976,,,,,,,,,,,,,,,,,,,,,,,,188.4539,189.6826,a,1,0.5545,,[],[],[],[],[],[],[],0.5545,1,189.6826,190.1825,,,,,,140,FEM,CON,150,mula,,a,190.1826,190.1826,-0.020833333,-0.397135417,0,0,0,,0,27,27,139,1,,,,
,,,,,,2cadcfe448493c52c4c31351,66a626ef09d4e21e1a8894ec,67373f7b2cc50ca2ec0a21c9,2024-11-15_09h35.37.509,Tarea de género gramatical,2024.2.2,Win32,60.97560976,,,,,,,,,,,,,,,,,,,,,,,,190.1837,191.3149,l,1,0.4504,,[],[],[],[],[],[],[],0.4504,1,191.3152,191.814,,,,,,318,MAS,DIS,150,pueblo,la,l,191.8141,191.8142,-0.020833333,-0.397135417,0,0,0,,0,28,28,317,1,,,,
,,,,,,2cadcfe448493c52c4c31351,66a626ef09d4e21e1a8894ec,67373f7b2cc50ca2ec0a21c9,2024-11-15_09h35.37.509,Tarea de género gramatical,2024.2.2,Win32,60.97560976,,,,,,,,,,,,,,,,,,,,,,,,191.8151,193.1797,l,1,0.6835,,[],[],[],[],[],[],[],0.6835,1,193.1799,193.679,,,,,,12,MAS,DIS,150,plan,la,l,193.6809,193.682,-0.020833333,-0.397135417,0,0,0,,0,29,29,11,1,,,,
,,,,,,2cadcfe448493c52c4c31351,66a626ef09d4e21e1a8894ec,67373f7b2cc50ca2ec0a21c9,2024-11-15_09h35.37.509,Tarea de género gramatical,2024.2.2,Win32,60.97560976,,,,,,,,,,,,,,,,,,,,,,,,193.6828,194.7448,l,1,0.3853,,[],[],[],[],[],[],[],0.3853,1,194.745,195.2439,,,,,,198,MAS,DIS,150,hotel,la,l,195.2439,195.244,-0.020833333,-0.397135417,0,0,0,,0,30,30,197,1,,,,
,,,,,,2cadcfe448493c52c4c31351,66a626ef09d4e21e1a8894ec,67373f7b2cc50ca2ec0a21c9,2024-11-15_09h35.37.509,Tarea de género gramatical,2024.2.2,Win32,60.97560976,,,,,,,,,,,,,,,,,,,,,,,,195.2451,196.8925,l,1,0.9648,,[],[],[],[],[],[],[],0.9648,1,196.8926,197.392,,,,,,96,MAS,DIS,150,pato,la,l,197.3921,197.3922,-0.020833333,-0.397135417,0,0,0,,0,31,31,95,1,,,,
,,,,,,2cadcfe448493c52c4c31351,66a626ef09d4e21e1a8894ec,67373f7b2cc50ca2ec0a21c9,2024-11-15_09h35.37.509,Tarea de género gramatical,2024.2.2,Win32,60.97560976,,,,,,,,,,,,,,,,,,,,,,,,197.3931,198.5575,a,1,0.4832,,[],[],[],[],[],[],[],0.4832,1,198.5575,199.0568,,,,,,261,FEM,DIS,150,cueva,el,a,199.0568,199.0569,-0.020833333,-0.397135417,0,0,0,,0,32,32,260,1,,,,
,,,,,,2cadcfe448493c52c4c31351,66a626ef09d4e21e1a8894ec,67373f7b2cc50ca2ec0a21c9,2024-11-15_09h35.37.509,Tarea de género gramatical,2024.2.2,Win32,60.97560976,,,,,,,,,,,,,,,,,,,,,,,,199.0579,200.2059,l,1,0.4699,,[],[],[],[],[],[],[],0.4699,1,200.206,200.7054,,,,,,450,MAS,DIS,150,conejo,la,l,200.7068,200.7074,-0.020833333,-0.397135417,0,0,0,,0,33,33,449,1,,,,
,,,,,,2cadcfe448493c52c4c31351,66a626ef09d4e21e1a8894ec,67373f7b2cc50ca2ec0a21c9,2024-11-15_09h35.37.509,Tarea de género gramatical,2024.2.2,Win32,60.97560976,,,,,,,,,,,,,,,,,,,,,,,,200.708,201.8042,a,1,0.4266,,[],[],[],[],[],[],[],0.4266,1,201.8043,202.3034,,,,,,111,FEM,DIS,150,goma,el,a,202.3034,202.3035,-0.020833333,-0.397135417,0,0,0,,0,34,34,110,1,,,,
,,,,,,2cadcfe448493c52c4c31351,66a626ef09d4e21e1a8894ec,67373f7b2cc50ca2ec0a21c9,2024-11-15_09h35.37.509,Tarea de género gramatical,2024.2.2,Win32,60.97560976,,,,,,,,,,,,,,,,,,,,,,,,202.3045,203.9189,a,1,0.9308,,[],[],[],[],[],[],[],0.9308,1,203.919,204.4181,,,,,,86,FEM,CON,150,cruz,,a,204.4181,204.4182,-0.020833333,-0.397135417,0,0,0,,0,35,35,85,1,,,,
,,,,,,2cadcfe448493c52c4c31351,66a626ef09d4e21e1a8894ec,67373f7b2cc50ca2ec0a21c9,2024-11-15_09h35.37.509,Tarea de género gramatical,2024.2.2,Win32,60.97560976,,,,,,,,,,,,,,,,,,,,,,,,204.419,205.5007,a,1,0.4067,,[],[],[],[],[],[],[],0.4067,1,205.5007,206.0007,,,,,,393,FEM,DIS,150,alarma,el,a,206.0008,206.001,-0.020833333,-0.397135417,0,0,0,,0,36,36,392,1,,,,
,,,,,,2cadcfe448493c52c4c31351,66a626ef09d4e21e1a8894ec,67373f7b2cc50ca2ec0a21c9,2024-11-15_09h35.37.509,Tarea de género gramatical,2024.2.2,Win32,60.97560976,,,,,,,,,,,,,,,,,,,,,,,,206.0031,207.1324,a,1,0.4502,,[],[],[],[],[],[],[],0.4502,1,207.1325,207.6318,,,,,,55,FEM,AGR,150,taza,la,a,207.6318,207.632,-0.020833333,-0.397135417,0,0,0,,0,37,37,54,1,,,,
,,,,,,2cadcfe448493c52c4c31351,66a626ef09d4e21e1a8894ec,67373f7b2cc50ca2ec0a21c9,2024-11-15_09h35.37.509,Tarea de género gramatical,2024.2.2,Win32,60.97560976,,,,,,,,,,,,,,,,,,,,,,,,207.6329,208.6979,a,1,0.3878,,[],[],[],[],[],[],[],0.3878,1,208.6979,209.1976,,,,,,308,FEM,CON,150,semana,,a,209.201,209.2027,-0.020833333,-0.397135417,0,0,0,,0,38,38,307,1,,,,
,,,,,,2cadcfe448493c52c4c31351,66a626ef09d4e21e1a8894ec,67373f7b2cc50ca2ec0a21c9,2024-11-15_09h35.37.509,Tarea de género gramatical,2024.2.2,Win32,60.97560976,,,,,,,,,,,,,,,,,,,,,,,,209.2048,210.3291,l,1,0.4608,,[],[],[],[],[],[],[],0.4608,1,210.3291,210.8285,,,,,,352,MAS,AGR,150,estilo,el,l,210.8286,210.8286,-0.020833333,-0.397135417,0,0,0,,0,39,39,351,1,,,,
,,,,,,2cadcfe448493c52c4c31351,66a626ef09d4e21e1a8894ec,67373f7b2cc50ca2ec0a21c9,2024-11-15_09h35.37.509,Tarea de género gramatical,2024.2.2,Win32,60.97560976,,,,,,,,,,,,,,,,,,,,,,,,210.8296,211.9776,a,1,0.4648,,[],[],[],[],[],[],[],0.4648,1,211.9777,212.4778,,,,,,169,FEM,AGR,150,vista,la,a,212.4779,212.4781,-0.020833333,-0.397135417,0,0,0,,0,40,40,168,1,,,,
,,,,,,2cadcfe448493c52c4c31351,66a626ef09d4e21e1a8894ec,67373f7b2cc50ca2ec0a21c9,2024-11-15_09h35.37.509,Tarea de género gramatical,2024.2.2,Win32,60.97560976,,,,,,,,,,,,,,,,,,,,,,,,212.4802,213.5261,l,1,0.3685,,[],[],[],[],[],[],[],0.3685,1,213.5262,214.0254,,,,,,46,MAS,AGR,150,odio,el,l,214.0254,214.0255,-0.020833333,-0.397135417,0,0,0,,0,41,41,45,1,,,,
,,,,,,2cadcfe448493c52c4c31351,66a626ef09d4e21e1a8894ec,67373f7b2cc50ca2ec0a21c9,2024-11-15_09h35.37.509,Tarea de género gramatical,2024.2.2,Win32,60.97560976,,,,,,,,,,,,,,,,,,,,,,,,214.0264,215.1577,a,1,0.449,,[],[],[],[],[],[],[],0.449,1,215.1577,215.6581,,,,,,39,FEM,DIS,150,luna,el,a,215.6621,215.6644,-0.020833333,-0.397135417,0,0,0,,0,42,42,38,1,,,,
,,,,,,2cadcfe448493c52c4c31351,66a626ef09d4e21e1a8894ec,67373f7b2cc50ca2ec0a21c9,2024-11-15_09h35.37.509,Tarea de género gramatical,2024.2.2,Win32,60.97560976,,,,,,,,,,,,,,,,,,,,,,,,215.6665,216.8232,a,1,0.4887,,[],[],[],[],[],[],[],0.4887,1,216.8234,217.3225,,,,,,105,FEM,DIS,150,jefa,el,a,217.3226,217.3227,-0.020833333,-0.397135417,0,0,0,,0,43,43,104,1,,,,
,,,,,,2cadcfe448493c52c4c31351,66a626ef09d4e21e1a8894ec,67373f7b2cc50ca2ec0a21c9,2024-11-15_09h35.37.509,Tarea de género gramatical,2024.2.2,Win32,60.97560976,,,,,,,,,,,,,,,,,,,,,,,,217.3248,218.4718,l,1,0.4727,,[],[],[],[],[],[],[],0.4727,1,218.4721,218.9714,,,,,,424,MAS,AGR,150,rastro,el,l,218.9715,218.9716,-0.020833333,-0.397135417,0,0,0,,0,44,44,423,1,,,,
,,,,,,2cadcfe448493c52c4c31351,66a626ef09d4e21e1a8894ec,67373f7b2cc50ca2ec0a21c9,2024-11-15_09h35.37.509,Tarea de género gramatical,2024.2.2,Win32,60.97560976,,,,,,,,,,,,,,,,,,,,,,,,218.9739,220.0031,l,1,0.3563,,[],[],[],[],[],[],[],0.3563,1,220.0031,220.5032,,,,,,10,MAS,AGR,150,niño,el,l,220.5033,220.5036,-0.020833333,-0.397135417,0,0,0,,0,45,45,9,1,,,,
,,,,,,2cadcfe448493c52c4c31351,66a626ef09d4e21e1a8894ec,67373f7b2cc50ca2ec0a21c9,2024-11-15_09h35.37.509,Tarea de género gramatical,2024.2.2,Win32,60.97560976,,,,,,,,,,,,,,,,,,,,,,,,220.5056,221.7681,a,1,0.5847,,[],[],[],[],[],[],[],0.5847,1,221.7681,222.2682,,,,,,68,FEM,CON,150,pata,,a,222.2684,222.2687,-0.020833333,-0.397135417,0,0,0,,0,46,46,67,1,,,,
,,,,,,2cadcfe448493c52c4c31351,66a626ef09d4e21e1a8894ec,67373f7b2cc50ca2ec0a21c9,2024-11-15_09h35.37.509,Tarea de género gramatical,2024.2.2,Win32,60.97560976,,,,,,,,,,,,,,,,,,,,,,,,222.2707,223.4839,l,1,0.5453,,[],[],[],[],[],[],[],0.5453,1,223.4841,223.983,,,,,,311,MAS,CON,150,camino,,l,223.9856,223.9876,-0.020833333,-0.397135417,0,0,0,,0,47,47,310,1,,,,
,,,,,,2cadcfe448493c52c4c31351,66a626ef09d4e21e1a8894ec,67373f7b2cc50ca2ec0a21c9,2024-11-15_09h35.37.509,Tarea de género gramatical,2024.2.2,Win32,60.97560976,,,,,,,,,,,,,,,,,,,,,,,,223.9894,225.1316,a,1,0.464,,[],[],[],[],[],[],[],0.464,1,225.1317,225.6309,,,,,,357,FEM,DIS,150,lengua,el,a,225.6309,225.6311,-0.020833333,-0.397135417,0,0,0,,0,48,48,356,1,,,,
,,,,,,2cadcfe448493c52c4c31351,66a626ef09d4e21e1a8894ec,67373f7b2cc50ca2ec0a21c9,2024-11-15_09h35.37.509,Tarea de género gramatical,2024.2.2,Win32,60.97560976,,,,,,,,,,,,,,,,,,,,,,,,225.6324,227.0461,l,1,0.7387,,[],[],[],[],[],[],[],0.7387,1,227.0462,227.5457,,,,,,70,MAS,AGR,150,palo,el,l,227.5458,227.546,-0.020833333,-0.397135417,0,0,0,,0,49,49,69,1,,,,
,,,,,,2cadcfe448493c52c4c31351,66a626ef09d4e21e1a8894ec,67373f7b2cc50ca2ec0a21c9,2024-11-15_09h35.37.509,Tarea de género gramatical,2024.2.2,Win32,60.97560976,,,,,,,,,,,,,,,,,,,,,,,,227.5472,228.9607,a,1,0.7329,,[],[],[],[],[],[],[],0.7329,1,228.9609,229.4609,,,,,,141,FEM,DIS,150,cera,el,a,229.461,229.4612,-0.020833333,-0.397135417,0,0,0,,0,50,50,140,1,,,,
,,,,,,2cadcfe448493c52c4c31351,66a626ef09d4e21e1a8894ec,67373f7b2cc50ca2ec0a21c9,2024-11-15_09h35.37.509,Tarea de género gramatical,2024.2.2,Win32,60.97560976,,,,,,,,,,,,,,,,,,,,,,,,229.4636,230.6593,l,1,0.5288,,[],[],[],[],[],[],[],0.5288,1,230.6593,231.1586,,,,,,168,MAS,DIS,150,sitio,la,l,231.1596,231.1601,-0.020833333,-0.397135417,0,0,0,,0,51,51,167,1,,,,
,,,,,,2cadcfe448493c52c4c31351,66a626ef09d4e21e1a8894ec,67373f7b2cc50ca2ec0a21c9,2024-11-15_09h35.37.509,Tarea de género gramatical,2024.2.2,Win32,60.97560976,,,,,,,,,,,,,,,,,,,,,,,,231.1608,232.4908,l,1,0.6497,,[],[],[],[],[],[],[],0.6497,1,232.4909,232.9907,,,,,,312,MAS,DIS,150,equipo,la,l,232.9908,232.9909,-0.020833333,-0.397135417,0,0,0,,0,52,52,311,1,,,,
,,,,,,2cadcfe448493c52c4c31351,66a626ef09d4e21e1a8894ec,67373f7b2cc50ca2ec0a21c9,2024-11-15_09h35.37.509,Tarea de género gramatical,2024.2.2,Win32,60.97560976,,,,,,,,,,,,,,,,,,,,,,,,232.9927,234.2058,a,1,0.5382,,[],[],[],[],[],[],[],0.5382,1,234.206,234.7056,,,,,,91,FEM,AGR,150,hoja,la,a,234.7057,234.7059,-0.020833333,-0.397135417,0,0,0,,0,53,53,90,1,,,,
,,,,,,2cadcfe448493c52c4c31351,66a626ef09d4e21e1a8894ec,67373f7b2cc50ca2ec0a21c9,2024-11-15_09h35.37.509,Tarea de género gramatical,2024.2.2,Win32,60.97560976,,,,,,,,,,,,,,,,,,,,,,,,234.7078,235.8046,a,1,0.4151,,[],[],[],[],[],[],[],0.4151,1,235.8048,236.3044,,,,,,8,FEM,CON,150,idea,,a,236.3045,236.3046,-0.020833333,-0.397135417,0,0,0,,0,54,54,7,1,,,,
,,,,,,2cadcfe448493c52c4c31351,66a626ef09d4e21e1a8894ec,67373f7b2cc50ca2ec0a21c9,2024-11-15_09h35.37.509,Tarea de género gramatical,2024.2.2,Win32,60.97560976,,,,,,,,,,,,,,,,,,,,,,,,236.3067,237.4197,l,1,0.444,,[],[],[],[],[],[],[],0.444,1,237.4199,237.9188,,,,,,370,MAS,AGR,150,seguro,el,l,237.9189,237.919,-0.020833333,-0.397135417,0,0,0,,0,55,55,369,1,,,,
,,,,,,2cadcfe448493c52c4c31351,66a626ef09d4e21e1a8894ec,67373f7b2cc50ca2ec0a21c9,2024-11-15_09h35.37.509,Tarea de género gramatical,2024.2.2,Win32,60.97560976,,,,,,,,,,,,,,,,,,,,,,,,237.9199,238.9843,a,1,0.3842,,[],[],[],[],[],[],[],0.3842,1,238.9844,239.4848,,,,,,145,FEM,AGR,150,bota,la,a,239.4877,239.4896,-0.020833333,-0.397135417,0,0,0,,0,56,56,144,1,,,,
,,,,,,2cadcfe448493c52c4c31351,66a626ef09d4e21e1a8894ec,67373f7b2cc50ca2ec0a21c9,2024-11-15_09h35.37.509,Tarea de género gramatical,2024.2.2,Win32,60.97560976,,,,,,,,,,,,,,,,,,,,,,,,239.4914,240.5493,a,1,0.3834,,[],[],[],[],[],[],[],0.3834,1,240.5493,241.0494,,,,,,98,FEM,CON,150,fuga,,a,241.0495,241.0497,-0.020833333,-0.397135417,0,0,0,,0,57,57,97,1,,,,
,,,,,,2cadcfe448493c52c4c31351,66a626ef09d4e21e1a8894ec,67373f7b2cc50ca2ec0a21c9,2024-11-15_09h35.37.509,Tarea de género gramatical,2024.2.2,Win32,60.97560976,,,,,,,,,,,,,,,,,,,,,,,,241.052,242.1649,a,1,0.4352,,[],[],[],[],[],[],[],0.4352,1,242.165,242.6639,,,,,,429,FEM,DIS,150,fianza,el,a,242.6641,242.6641,-0.020833333,-0.397135417,0,0,0,,0,58,58,428,1,,,,
,,,,,,2cadcfe448493c52c4c31351,66a626ef09d4e21e1a8894ec,67373f7b2cc50ca2ec0a21c9,2024-11-15_09h35.37.509,Tarea de género gramatical,2024.2.2,Win32,60.97560976,,,,,,,,,,,,,,,,,,,,,,,,242.665,243.7131,a,1,0.3648,,[],[],[],[],[],[],[],0.3648,1,243.7132,244.2133,,,,,,135,FEM,DIS,150,raíz,el,a,244.2135,244.2137,-0.020833333,-0.397135417,0,0,0,,0,59,59,134,1,,,,
,,,,,,2cadcfe448493c52c4c31351,66a626ef09d4e21e1a8894ec,67373f7b2cc50ca2ec0a21c9,2024-11-15_09h35.37.509,Tarea de género gramatical,2024.2.2,Win32,60.97560976,,,,,,,,,,,,,,,,,,,,,,,,244.2158,245.3784,a,1,0.4881,,[],[],[],[],[],[],[],0.4881,1,245.3786,245.8783,,,,,,339,FEM,DIS,150,salida,el,a,245.8809,245.8827,-0.020833333,-0.397135417,0,0,0,,0,60,60,338,1,,,,
,,,,,,2cadcfe448493c52c4c31351,66a626ef09d4e21e1a8894ec,67373f7b2cc50ca2ec0a21c9,2024-11-15_09h35.37.509,Tarea de género gramatical,2024.2.2,Win32,60.97560976,,,,,,,,,,,,,,,,,,,,,,,,245.8844,246.9773,a,1,0.4224,,[],[],[],[],[],[],[],0.4224,1,246.9776,247.4767,,,,,,338,FEM,CON,150,abuela,,a,247.4768,247.477,-0.020833333,-0.397135417,0,0,0,,0,61,61,337,1,,,,
,,,,,,2cadcfe448493c52c4c31351,66a626ef09d4e21e1a8894ec,67373f7b2cc50ca2ec0a21c9,2024-11-15_09h35.37.509,Tarea de género gramatical,2024.2.2,Win32,60.97560976,,,,,,,,,,,,,,,,,,,,,,,,247.4792,248.5249,a,1,0.3679,,[],[],[],[],[],[],[],0.3679,1,248.525,249.0249,,,,,,1,FEM,AGR,150,casa,la,a,249.025,249.0253,-0.020833333,-0.397135417,0,0,0,,0,62,62,0,1,,,,
,,,,,,2cadcfe448493c52c4c31351,66a626ef09d4e21e1a8894ec,67373f7b2cc50ca2ec0a21c9,2024-11-15_09h35.37.509,Tarea de género gramatical,2024.2.2,Win32,60.97560976,,,,,,,,,,,,,,,,,,,,,,,,249.0275,250.1907,a,1,0.483,,[],[],[],[],[],[],[],0.483,1,250.1909,250.6902,,,,,,51,FEM,DIS,150,bala,el,a,250.6904,250.6908,-0.020833333,-0.397135417,0,0,0,,0,63,63,50,1,,,,
,,,,,,2cadcfe448493c52c4c31351,66a626ef09d4e21e1a8894ec,67373f7b2cc50ca2ec0a21c9,2024-11-15_09h35.37.509,Tarea de género gramatical,2024.2.2,Win32,60.97560976,,,,,,,,,,,,,,,,,,,,,,,,250.6923,251.7891,a,1,0.417,,[],[],[],[],[],[],[],0.417,1,251.7893,252.2888,,,,,,367,FEM,AGR,150,teoría,la,a,252.2889,252.2891,-0.020833333,-0.397135417,0,0,0,,0,64,64,366,1,,,,
,,,,,,2cadcfe448493c52c4c31351,66a626ef09d4e21e1a8894ec,67373f7b2cc50ca2ec0a21c9,2024-11-15_09h35.37.509,Tarea de género gramatical,2024.2.2,Win32,60.97560976,,,,,,,,,,,,,,,,,,,,,,,,252.292,253.4867,a,1,0.5168,,[],[],[],[],[],[],[],0.5168,1,253.4867,253.9864,,,,,,349,FEM,AGR,150,prensa,la,a,253.9873,253.9878,-0.020833333,-0.397135417,0,0,0,,0,65,65,348,1,,,,
,,,,,,2cadcfe448493c52c4c31351,66a626ef09d4e21e1a8894ec,67373f7b2cc50ca2ec0a21c9,2024-11-15_09h35.37.509,Tarea de género gramatical,2024.2.2,Win32,60.97560976,,,,,,,,,,,,,,,,,,,,,,,,253.9884,255.0188,a,1,0.3508,,[],[],[],[],[],[],[],0.3508,1,255.0188,255.5182,,,,,,2,FEM,CON,150,vida,,a,255.5183,255.5184,-0.020833333,-0.397135417,0,0,0,,0,66,66,1,1,,,,
,,,,,,2cadcfe448493c52c4c31351,66a626ef09d4e21e1a8894ec,67373f7b2cc50ca2ec0a21c9,2024-11-15_09h35.37.509,Tarea de género gramatical,2024.2.2,Win32,60.97560976,,,,,,,,,,,,,,,,,,,,,,,,255.5198,256.8666,l,1,0.6748,,[],[],[],[],[],[],[],0.6748,1,256.8667,257.3669,,,,,,280,MAS,AGR,150,salón,el,l,257.3671,257.3673,-0.020833333,-0.397135417,0,0,0,,0,67,67,279,1,,,,
,,,,,,2cadcfe448493c52c4c31351,66a626ef09d4e21e1a8894ec,67373f7b2cc50ca2ec0a21c9,2024-11-15_09h35.37.509,Tarea de género gramatical,2024.2.2,Win32,60.97560976,,,,,,,,,,,,,,,,,,,,,,,,257.3694,258.4653,a,1,0.4141,,[],[],[],[],[],[],[],0.4141,1,258.4654,258.9657,,,,,,403,FEM,AGR,150,paliza,la,a,258.9659,258.9662,-0.020833333,-0.397135417,0,0,0,,0,68,68,402,1,,,,
,,,,,,2cadcfe448493c52c4c31351,66a626ef09d4e21e1a8894ec,67373f7b2cc50ca2ec0a21c9,2024-11-15_09h35.37.509,Tarea de género gramatical,2024.2.2,Win32,60.97560976,,,,,,,,,,,,,,,,,,,,,,,,258.9687,260.0968,l,1,0.4586,,[],[],[],[],[],[],[],0.4586,1,260.0969,260.5969,,,,,,407,MAS,CON,150,jurado,,l,260.5996,260.6015,-0.020833333,-0.397135417,0,0,0,,0,69,69,406,1,,,,
,,,,,,2cadcfe448493c52c4c31351,66a626ef09d4e21e1a8894ec,67373f7b2cc50ca2ec0a21c9,2024-11-15_09h35.37.509,Tarea de género gramatical,2024.2.2,Win32,60.97560976,,,,,,,,,,,,,,,,,,,,,,,,260.6032,261.7617,l,1,0.4838,,[],[],[],[],[],[],[],0.4838,1,261.7617,262.2611,,,,,,16,MAS,AGR,150,baño,el,l,262.2612,262.2613,-0.020833333,-0.397135417,0,0,0,,0,70,70,15,1,,,,
,,,,,,2cadcfe448493c52c4c31351,66a626ef09d4e21e1a8894ec,67373f7b2cc50ca2ec0a21c9,2024-11-15_09h35.37.509,Tarea de género gramatical,2024.2.2,Win32,60.97560976,,,,,,,,,,,,,,,,,,,,,,,,262.2619,263.4101,a,1,0.4726,,[],[],[],[],[],[],[],0.4726,1,263.4102,263.9109,,,,,,374,FEM,CON,150,herida,,a,263.911,263.9112,-0.020833333,-0.397135417,0,0,0,,0,71,71,373,1,,,,
,,,,,,2cadcfe448493c52c4c31351,66a626ef09d4e21e1a8894ec,67373f7b2cc50ca2ec0a21c9,2024-11-15_09h35.37.509,Tarea de género gramatical,2024.2.2,Win32,60.97560976,,,,,,,,,,,,,,,,,,,,,,,,263.9135,264.992,a,1,0.4047,,[],[],[],[],[],[],[],0.4047,1,264.9921,265.4921,,,,,,235,FEM,AGR,150,torre,la,a,265.4922,265.4924,-0.020833333,-0.397135417,0,0,0,,0,72,72,234,1,,,,
,,,,,,2cadcfe448493c52c4c31351,66a626ef09d4e21e1a8894ec,67373f7b2cc50ca2ec0a21c9,2024-11-15_09h35.37.509,Tarea de género gramatical,2024.2.2,Win32,60.97560976,,,,,,,,,,,,,,,,,,,,,,,,265.4951,266.5245,a,1,0.3587,,[],[],[],[],[],[],[],0.3587,1,266.5248,267.0239,,,,,,21,FEM,DIS,150,boca,el,a,267.0241,267.0243,-0.020833333,-0.397135417,0,0,0,,0,73,73,20,1,,,,
,,,,,,2cadcfe448493c52c4c31351,66a626ef09d4e21e1a8894ec,67373f7b2cc50ca2ec0a21c9,2024-11-15_09h35.37.509,Tarea de género gramatical,2024.2.2,Win32,60.97560976,,,,,,,,,,,,,,,,,,,,,,,,267.0268,268.0891,a,1,0.3809,,[],[],[],[],[],[],[],0.3809,1,268.0892,268.5888,,,,,,397,FEM,AGR,150,cuerda,la,a,268.59,268.5909,-0.020833333,-0.397135417,0,0,0,,0,74,74,396,1,,,,
,,,,,,2cadcfe448493c52c4c31351,66a626ef09d4e21e1a8894ec,67373f7b2cc50ca2ec0a21c9,2024-11-15_09h35.37.509,Tarea de género gramatical,2024.2.2,Win32,60.97560976,,,,,,,,,,,,,,,,,,,,,,,,268.5916,269.7207,l,1,0.456,,[],[],[],[],[],[],[],0.456,1,269.7208,270.2206,,,,,,420,MAS,DIS,150,helado,la,l,270.2207,270.2209,-0.020833333,-0.397135417,0,0,0,,0,75,75,419,1,,,,
,,,,,,2cadcfe448493c52c4c31351,66a626ef09d4e21e1a8894ec,67373f7b2cc50ca2ec0a21c9,2024-11-15_09h35.37.509,Tarea de género gramatical,2024.2.2,Win32,60.97560976,,,,,,,,,,,,,,,,,,,,,,,,270.222,271.4532,a,1,0.5559,,[],[],[],[],[],[],[],0.5559,1,271.4533,271.9518,,,,,,200,FEM,CON,150,silla,,a,271.9518,271.9519,-0.020833333,-0.397135417,0,0,0,,0,76,76,199,1,,,,
,,,,,,2cadcfe448493c52c4c31351,66a626ef09d4e21e1a8894ec,67373f7b2cc50ca2ec0a21c9,2024-11-15_09h35.37.509,Tarea de género gramatical,2024.2.2,Win32,60.97560976,,,,,,,,,,,,,,,,,,,,,,,,271.9528,273.0342,a,1,0.3984,,[],[],[],[],[],[],[],0.3984,1,273.0343,273.5337,,,,,,129,FEM,DIS,150,rana,el,a,273.5337,273.534,-0.020833333,-0.397135417,0,0,0,,0,77,77,128,1,,,,
,,,,,,2cadcfe448493c52c4c31351,66a626ef09d4e21e1a8894ec,67373f7b2cc50ca2ec0a21c9,2024-11-15_09h35.37.509,Tarea de género gramatical,2024.2.2,Win32,60.97560976,,,,,,,,,,,,,,,,,,,,,,,,273.5352,274.7332,l,1,0.5175,,[],[],[],[],[],[],[],0.5175,1,274.7335,275.2323,,,,,,112,MAS,AGR,150,reto,el,l,275.2336,275.2345,-0.020833333,-0.397135417,0,0,0,,0,78,78,111,1,,,,
,,,,,,2cadcfe448493c52c4c31351,66a626ef09d4e21e1a8894ec,67373f7b2cc50ca2ec0a21c9,2024-11-15_09h35.37.509,Tarea de género gramatical,2024.2.2,Win32,60.97560976,,,,,,,,,,,,,,,,,,,,,,,,275.2353,276.2316,a,1,0.3173,,[],[],[],[],[],[],[],0.3173,1,276.2319,276.7309,,,,,,15,FEM,DIS,150,cama,el,a,276.7309,276.7311,-0.020833333,-0.397135417,0,0,0,,0,79,79,14,1,,,,
,,,,,,2cadcfe448493c52c4c31351,66a626ef09d4e21e1a8894ec,67373f7b2cc50ca2ec0a21c9,2024-11-15_09h35.37.509,Tarea de género gramatical,2024.2.2,Win32,60.97560976,,,,,,,,,,,,,,,,,,,,,,,,276.732,277.7464,a,1,0.3435,,[],[],[],[],[],[],[],0.3435,1,277.7465,278.2457,,,,,,290,FEM,CON,150,cabra,,a,278.2458,278.2458,-0.020833333,-0.397135417,0,0,0,,0,80,80,289,1,,,,
,,,,,,2cadcfe448493c52c4c31351,66a626ef09d4e21e1a8894ec,67373f7b2cc50ca2ec0a21c9,2024-11-15_09h35.37.509,Tarea de género gramatical,2024.2.2,Win32,60.97560976,,,,,,,,,,,,,,,,,,,,,,,,278.2466,279.412,a,1,0.4863,,[],[],[],[],[],[],[],0.4863,1,279.4124,279.9116,,,,,,249,FEM,DIS,150,crema,el,a,279.9118,279.9119,-0.020833333,-0.397135417,0,0,0,,0,81,81,248,1,,,,
,,,,,,2cadcfe448493c52c4c31351,66a626ef09d4e21e1a8894ec,67373f7b2cc50ca2ec0a21c9,2024-11-15_09h35.37.509,Tarea de género gramatical,2024.2.2,Win32,60.97560976,,,,,,,,,,,,,,,,,,,,,,,,279.9142,280.96,l,1,0.3688,,[],[],[],[],[],[],[],0.3688,1,280.9601,281.4599,,,,,,166,MAS,AGR,150,coche,el,l,281.46,281.4601,-0.020833333,-0.397135417,0,0,0,,0,82,82,165,1,,,,
,,,,,,2cadcfe448493c52c4c31351,66a626ef09d4e21e1a8894ec,67373f7b2cc50ca2ec0a21c9,2024-11-15_09h35.37.509,Tarea de género gramatical,2024.2.2,Win32,60.97560976,,,,,,,,,,,,,,,,,,,,,,,,281.4623,282.5255,l,1,0.3821,,[],[],[],[],[],[],[],0.3821,1,282.5257,283.0243,,,,,,149,MAS,CON,150,nudo,,l,283.0252,283.0258,-0.020833333,-0.397135417,0,0,0,,0,83,83,148,1,,,,
,,,,,,2cadcfe448493c52c4c31351,66a626ef09d4e21e1a8894ec,67373f7b2cc50ca2ec0a21c9,2024-11-15_09h35.37.509,Tarea de género gramatical,2024.2.2,Win32,60.97560976,,,,,,,,,,,,,,,,,,,,,,,,283.0263,284.0737,a,1,0.3706,,[],[],[],[],[],[],[],0.3706,1,284.0738,284.5738,,,,,,32,FEM,CON,150,caja,,a,284.5739,284.5741,-0.020833333,-0.397135417,0,0,0,,0,84,84,31,1,,,,
,,,,,,2cadcfe448493c52c4c31351,66a626ef09d4e21e1a8894ec,67373f7b2cc50ca2ec0a21c9,2024-11-15_09h35.37.509,Tarea de género gramatical,2024.2.2,Win32,60.97560976,,,,,,,,,,,,,,,,,,,,,,,,284.5764,285.6394,l,1,0.3861,,[],[],[],[],[],[],[],0.3861,1,285.6395,286.1379,,,,,,191,MAS,CON,150,dolor,,l,286.1379,286.138,-0.020833333,-0.397135417,0,0,0,,0,85,85,190,1,,,,
,,,,,,2cadcfe448493c52c4c31351,66a626ef09d4e21e1a8894ec,67373f7b2cc50ca2ec0a21c9,2024-11-15_09h35.37.509,Tarea de género gramatical,2024.2.2,Win32,60.97560976,,,,,,,,,,,,,,,,,,,,,,,,286.1389,287.4198,l,1,0.6068,,[],[],[],[],[],[],[],0.6068,1,287.4199,287.9198,,,,,,36,MAS,DIS,150,dedo,la,l,287.9198,287.9199,-0.020833333,-0.397135417,0,0,0,,0,86,86,35,1,,,,
,,,,,,2cadcfe448493c52c4c31351,66a626ef09d4e21e1a8894ec,67373f7b2cc50ca2ec0a21c9,2024-11-15_09h35.37.509,Tarea de género gramatical,2024.2.2,Win32,60.97560976,,,,,,,,,,,,,,,,,,,,,,,,287.9209,289.0189,a,0,0.4164,,[],[],[],[],[],[],[],0.4164,0,289.0201,289.5183,,,,,,40,MAS,AGR,150,dios,el,l,289.5194,289.5202,-0.020833333,-0.397135417,0,0,0,,0,87,87,39,1,,,,
,,,,,,2cadcfe448493c52c4c31351,66a626ef09d4e21e1a8894ec,67373f7b2cc50ca2ec0a21c9,2024-11-15_09h35.37.509,Tarea de género gramatical,2024.2.2,Win32,60.97560976,,,,,,,,,,,,,,,,,,,,,,,,289.5208,290.9005,a,1,0.7078,,[],[],[],[],[],[],[],0.7078,1,290.9026,291.3997,,,,,,3,FEM,DIS,150,cosa,el,a,291.3998,291.3998,-0.020833333,-0.397135417,0,0,0,,0,88,88,2,1,,,,
,,,,,,2cadcfe448493c52c4c31351,66a626ef09d4e21e1a8894ec,67373f7b2cc50ca2ec0a21c9,2024-11-15_09h35.37.509,Tarea de género gramatical,2024.2.2,Win32,60.97560976,,,,,,,,,,,,,,,,,,,,,,,,291.4006,292.5826,a,1,0.5003,,[],[],[],[],[],[],[],0.5003,1,292.5829,293.0817,,,,,,386,FEM,CON,150,sombra,,a,293.0818,293.0821,-0.020833333,-0.397135417,0,0,0,,0,89,89,385,1,,,,
,,,,,,2cadcfe448493c52c4c31351,66a626ef09d4e21e1a8894ec,67373f7b2cc50ca2ec0a21c9,2024-11-15_09h35.37.509,Tarea de género gramatical,2024.2.2,Win32,60.97560976,,,,,,,,,,,,,,,,,,,,,,,,293.0843,294.1634,a,1,0.4027,,[],[],[],[],[],[],[],0.4027,1,294.1634,294.6635,,,,,,87,FEM,DIS,150,risa,el,a,294.6636,294.6638,-0.020833333,-0.397135417,0,0,0,,0,90,90,86,1,,,,
,,,,,,2cadcfe448493c52c4c31351,66a626ef09d4e21e1a8894ec,67373f7b2cc50ca2ec0a21c9,2024-11-15_09h35.37.509,Tarea de género gramatical,2024.2.2,Win32,60.97560976,,,,,,,,,,,,,,,,,,,,,,,,294.666,295.7951,a,1,0.4568,,[],[],[],[],[],[],[],0.4568,1,295.7952,296.2952,,,,,,362,FEM,CON,150,fuente,,a,296.2954,296.2957,-0.020833333,-0.397135417,0,0,0,,0,91,91,361,1,,,,
,,,,,,2cadcfe448493c52c4c31351,66a626ef09d4e21e1a8894ec,67373f7b2cc50ca2ec0a21c9,2024-11-15_09h35.37.509,Tarea de género gramatical,2024.2.2,Win32,60.97560976,,,,,,,,,,,,,,,,,,,,,,,,296.2979,297.2946,l,1,0.3202,,[],[],[],[],[],[],[],0.3202,1,297.2949,297.7931,,,,,,299,MAS,CON,150,rumbo,,l,297.7942,297.795,-0.020833333,-0.397135417,0,0,0,,0,92,92,298,1,,,,
,,,,,,2cadcfe448493c52c4c31351,66a626ef09d4e21e1a8894ec,67373f7b2cc50ca2ec0a21c9,2024-11-15_09h35.37.509,Tarea de género gramatical,2024.2.2,Win32,60.97560976,,,,,,,,,,,,,,,,,,,,,,,,297.7956,299.1583,a,1,0.6909,,[],[],[],[],[],[],[],0.6909,1,299.1585,299.6578,,,,,,195,FEM,DIS,150,pared,el,a,299.6579,299.658,-0.020833333,-0.397135417,0,0,0,,0,93,93,194,1,,,,
,,,,,,2cadcfe448493c52c4c31351,66a626ef09d4e21e1a8894ec,67373f7b2cc50ca2ec0a21c9,2024-11-15_09h35.37.509,Tarea de género gramatical,2024.2.2,Win32,60.97560976,,,,,,,,,,,,,,,,,,,,,,,,299.6592,300.8235,l,1,0.4936,,[],[],[],[],[],[],[],0.4936,1,300.8236,301.3237,,,,,,263,MAS,CON,150,carro,,l,301.3238,301.3243,-0.020833333,-0.397135417,0,0,0,,0,94,94,262,1,,,,
,,,,,,2cadcfe448493c52c4c31351,66a626ef09d4e21e1a8894ec,67373f7b2cc50ca2ec0a21c9,2024-11-15_09h35.37.509,Tarea de género gramatical,2024.2.2,Win32,60.97560976,,,,,,,,,,,,,,,,,,,,,,,,301.3267,302.6387,l,1,0.6337,,[],[],[],[],[],[],[],0.6337,1,302.6387,303.1389,,,,,,172,MAS,AGR,150,poder,el,l,303.1389,303.1392,-0.020833333,-0.397135417,0,0,0,,0,95,95,171,1,,,,
,,,,,,2cadcfe448493c52c4c31351,66a626ef09d4e21e1a8894ec,67373f7b2cc50ca2ec0a21c9,2024-11-15_09h35.37.509,Tarea de género gramatical,2024.2.2,Win32,60.97560976,,,,,,,,,,,,,,,,,,,,,,,,303.1416,304.2042,a,1,0.3899,,[],[],[],[],[],[],[],0.3899,1,304.2044,304.7038,,,,,,63,FEM,DIS,150,fila,el,a,304.7065,304.7082,-0.020833333,-0.397135417,0,0,0,,0,96,96,62,1,,,,
,,,,,,2cadcfe448493c52c4c31351,66a626ef09d4e21e1a8894ec,67373f7b2cc50ca2ec0a21c9,2024-11-15_09h35.37.509,Tarea de género gramatical,2024.2.2,Win32,60.97560976,,,,,,,,,,,,,,,,,,,,,,,,304.7099,305.752,a,1,0.376,,[],[],[],[],[],[],[],0.376,1,305.7521,306.252,,,,,,61,FEM,AGR,150,ruta,la,a,306.2521,306.2524,-0.020833333,-0.397135417,0,0,0,,0,97,97,60,1,,,,
,,,,,,2cadcfe448493c52c4c31351,66a626ef09d4e21e1a8894ec,67373f7b2cc50ca2ec0a21c9,2024-11-15_09h35.37.509,Tarea de género gramatical,2024.2.2,Win32,60.97560976,,,,,,,,,,,,,,,,,,,,,,,,306.2547,307.3008,a,1,0.3668,,[],[],[],[],[],[],[],0.3668,1,307.3008,307.8004,,,,,,439,FEM,AGR,150,toalla,la,a,307.8006,307.8007,-0.020833333,-0.397135417,0,0,0,,0,98,98,438,1,,,,
,,,,,,2cadcfe448493c52c4c31351,66a626ef09d4e21e1a8894ec,67373f7b2cc50ca2ec0a21c9,2024-11-15_09h35.37.509,Tarea de género gramatical,2024.2.2,Win32,60.97560976,,,,,,,,,,,,,,,,,,,,,,,,307.8031,308.8664,a,1,0.385,,[],[],[],[],[],[],[],0.385,1,308.8666,309.3657,,,,,,441,FEM,DIS,150,medida,el,a,309.3659,309.3662,-0.020833333,-0.397135417,0,0,0,,0,99,99,440,1,,,,
,,,,,,2cadcfe448493c52c4c31351,66a626ef09d4e21e1a8894ec,67373f7b2cc50ca2ec0a21c9,2024-11-15_09h35.37.509,Tarea de género gramatical,2024.2.2,Win32,60.97560976,,,,,,,,,,,,,,,,,,,,,,,,309.3683,310.4317,a,1,0.3839,,[],[],[],[],[],[],[],0.3839,1,310.4318,310.9304,,,,,,217,FEM,AGR,150,tarea,la,a,310.9305,310.9307,-0.020833333,-0.397135417,0,0,0,,0,100,100,216,1,,,,
,,,,,,2cadcfe448493c52c4c31351,66a626ef09d4e21e1a8894ec,67373f7b2cc50ca2ec0a21c9,2024-11-15_09h35.37.509,Tarea de género gramatical,2024.2.2,Win32,60.97560976,,,,,,,,,,,,,,,,,,,,,,,,310.9323,312.0459,l,1,0.4336,,[],[],[],[],[],[],[],0.4336,1,312.0459,312.5458,,,,,,185,MAS,CON,150,sueño,,l,312.5476,312.5491,-0.020833333,-0.397135417,0,0,0,,0,101,101,184,1,,,,
,,,,,,2cadcfe448493c52c4c31351,66a626ef09d4e21e1a8894ec,67373f7b2cc50ca2ec0a21c9,2024-11-15_09h35.37.509,Tarea de género gramatical,2024.2.2,Win32,60.97560976,,,,,,,,,,,,,,,,,,,,,,,,312.5502,313.6113,l,1,0.3811,,[],[],[],[],[],[],[],0.3811,1,313.6114,314.1108,,,,,,161,MAS,CON,150,chico,,l,314.1108,314.1109,-0.020833333,-0.397135417,0,0,0,,0,102,102,160,1,,,,
,,,,,,2cadcfe448493c52c4c31351,66a626ef09d4e21e1a8894ec,67373f7b2cc50ca2ec0a21c9,2024-11-15_09h35.37.509,Tarea de género gramatical,2024.2.2,Win32,60.97560976,,,,,,,,,,,,,,,,,,,,,,,,314.1117,315.2262,a,1,0.444,,[],[],[],[],[],[],[],0.444,1,315.2262,315.7257,,,,,,73,FEM,AGR,150,roca,la,a,315.7257,315.7258,-0.020833333,-0.397135417,0,0,0,,0,103,103,72,1,,,,
,,,,,,2cadcfe448493c52c4c31351,66a626ef09d4e21e1a8894ec,67373f7b2cc50ca2ec0a21c9,2024-11-15_09h35.37.509,Tarea de género gramatical,2024.2.2,Win32,60.97560976,,,,,,,,,,,,,,,,,,,,,,,,315.7267,316.7921,a,1,0.392,,[],[],[],[],[],[],[],0.392,1,316.7922,317.2912,,,,,,297,FEM,DIS,150,manta,el,a,317.2913,317.2916,-0.020833333,-0.397135417,0,0,0,,0,104,104,296,1,,,,
,,,,,,2cadcfe448493c52c4c31351,66a626ef09d4e21e1a8894ec,67373f7b2cc50ca2ec0a21c9,2024-11-15_09h35.37.509,Tarea de género gramatical,2024.2.2,Win32,60.97560976,,,,,,,,,,,,,,,,,,,,,,,,317.2978,318.4062,l,1,0.4378,,[],[],[],[],[],[],[],0.4378,1,318.4062,318.9059,,,,,,6,MAS,DIS,150,lado,la,l,318.9069,318.9074,-0.020833333,-0.397135417,0,0,0,,0,105,105,5,1,,,,
,,,,,,2cadcfe448493c52c4c31351,66a626ef09d4e21e1a8894ec,67373f7b2cc50ca2ec0a21c9,2024-11-15_09h35.37.509,Tarea de género gramatical,2024.2.2,Win32,60.97560976,,,,,,,,,,,,,,,,,,,,,,,,318.9081,320.2053,a,1,0.6172,,[],[],[],[],[],[],[],0.6172,1,320.2054,320.7039,,,,,,278,FEM,CON,150,presa,,a,320.7039,320.704,-0.020833333,-0.397135417,0,0,0,,0,106,106,277,1,,,,
,,,,,,2cadcfe448493c52c4c31351,66a626ef09d4e21e1a8894ec,67373f7b2cc50ca2ec0a21c9,2024-11-15_09h35.37.509,Tarea de género gramatical,2024.2.2,Win32,60.97560976,,,,,,,,,,,,,,,,,,,,,,,,320.7047,321.7697,l,0,0.3889,,[],[],[],[],[],[],[],0.3889,0,321.7706,322.2701,,,,,,152,FEM,CON,150,gente,,a,322.2702,322.2705,-0.020833333,-0.397135417,0,0,0,,0,107,107,151,1,,,,
,,,,,,2cadcfe448493c52c4c31351,66a626ef09d4e21e1a8894ec,67373f7b2cc50ca2ec0a21c9,2024-11-15_09h35.37.509,Tarea de género gramatical,2024.2.2,Win32,60.97560976,,,,,,,,,,,,,,,,,,,,,,,,322.273,323.4353,l,1,0.4835,,[],[],[],[],[],[],[],0.4835,1,323.4369,323.9344,,,,,,395,MAS,CON,150,correo,,l,323.9344,323.9344,-0.020833333,-0.397135417,0,0,0,,0,108,108,394,1,,,,
,,,,,,2cadcfe448493c52c4c31351,66a626ef09d4e21e1a8894ec,67373f7b2cc50ca2ec0a21c9,2024-11-15_09h35.37.509,Tarea de género gramatical,2024.2.2,Win32,60.97560976,,,,,,,,,,,,,,,,,,,,,,,,323.9353,325.416,a,1,0.8089,,[],[],[],[],[],[],[],0.8089,1,325.4161,325.9159,,,,,,236,FEM,CON,150,deuda,,a,325.916,325.9162,-0.020833333,-0.397135417,0,0,0,,0,109,109,235,1,,,,
,,,,,,2cadcfe448493c52c4c31351,66a626ef09d4e21e1a8894ec,67373f7b2cc50ca2ec0a21c9,2024-11-15_09h35.37.509,Tarea de género gramatical,2024.2.2,Win32,60.97560976,,,,,,,,,,,,,,,,,,,,,,,,325.9175,326.9314,a,1,0.3318,,[],[],[],[],[],[],[],0.3318,1,326.9315,327.4314,,,,,,207,FEM,DIS,150,playa,el,a,327.4347,327.4363,-0.020833333,-0.397135417,0,0,0,,0,110,110,206,1,,,,
,,,,,,2cadcfe448493c52c4c31351,66a626ef09d4e21e1a8894ec,67373f7b2cc50ca2ec0a21c9,2024-11-15_09h35.37.509,Tarea de género gramatical,2024.2.2,Win32,60.97560976,,,,,,,,,,,,,,,,,,,,,,,,327.438,328.4633,a,1,0.3509,,[],[],[],[],[],[],[],0.3509,1,328.4634,328.9634,,,,,,146,FEM,CON,150,lana,,a,328.9635,328.9637,-0.020833333,-0.397135417,0,0,0,,0,111,111,145,1,,,,
,,,,,,2cadcfe448493c52c4c31351,66a626ef09d4e21e1a8894ec,67373f7b2cc50ca2ec0a21c9,2024-11-15_09h35.37.509,Tarea de género gramatical,2024.2.2,Win32,60.97560976,,,,,,,,,,,,,,,,,,,,,,,,328.9658,330.3609,l,1,0.7205,,[],[],[],[],[],[],[],0.7205,1,330.361,330.8605,,,,,,41,MAS,CON,150,bote,,l,330.8606,330.8606,-0.020833333,-0.397135417,0,0,0,,0,112,112,40,1,,,,
,,,,,,2cadcfe448493c52c4c31351,66a626ef09d4e21e1a8894ec,67373f7b2cc50ca2ec0a21c9,2024-11-15_09h35.37.509,Tarea de género gramatical,2024.2.2,Win32,60.97560976,,,,,,,,,,,,,,,,,,,,,,,,330.8612,331.9102,l,1,0.3722,,[],[],[],[],[],[],[],0.3722,1,331.9104,332.41,,,,,,329,MAS,CON,150,futuro,,l,332.4102,332.4104,-0.020833333,-0.397135417,0,0,0,,0,113,113,328,1,,,,
,,,,,,2cadcfe448493c52c4c31351,66a626ef09d4e21e1a8894ec,67373f7b2cc50ca2ec0a21c9,2024-11-15_09h35.37.509,Tarea de género gramatical,2024.2.2,Win32,60.97560976,,,,,,,,,,,,,,,,,,,,,,,,332.4124,333.6418,a,1,0.557,,[],[],[],[],[],[],[],0.557,1,333.6421,334.1413,,,,,,272,FEM,CON,150,oreja,,a,334.1431,334.1443,-0.020833333,-0.397135417,0,0,0,,0,114,114,271,1,,,,
,,,,,,2cadcfe448493c52c4c31351,66a626ef09d4e21e1a8894ec,67373f7b2cc50ca2ec0a21c9,2024-11-15_09h35.37.509,Tarea de género gramatical,2024.2.2,Win32,60.97560976,,,,,,,,,,,,,,,,,,,,,,,,334.1454,335.224,l,1,0.3999,,[],[],[],[],[],[],[],0.3999,1,335.2243,335.7232,,,,,,174,MAS,DIS,150,perro,la,l,335.7233,335.7236,-0.020833333,-0.397135417,0,0,0,,0,115,115,173,1,,,,
,,,,,,2cadcfe448493c52c4c31351,66a626ef09d4e21e1a8894ec,67373f7b2cc50ca2ec0a21c9,2024-11-15_09h35.37.509,Tarea de género gramatical,2024.2.2,Win32,60.97560976,,,,,,,,,,,,,,,,,,,,,,,,335.727,336.8053,a,0,0.4026,,[],[],[],[],[],[],[],0.4026,0,336.8069,337.305,,,,,,426,MAS,DIS,150,pánico,la,l,337.3051,337.3052,-0.020833333,-0.397135417,0,0,0,,0,116,116,425,1,,,,
,,,,,,2cadcfe448493c52c4c31351,66a626ef09d4e21e1a8894ec,67373f7b2cc50ca2ec0a21c9,2024-11-15_09h35.37.509,Tarea de género gramatical,2024.2.2,Win32,60.97560976,,,,,,,,,,,,,,,,,,,,,,,,337.3075,338.4372,l,1,0.4575,,[],[],[],[],[],[],[],0.4575,1,338.4389,338.9369,,,,,,28,MAS,AGR,150,club,el,l,338.9369,338.9371,-0.020833333,-0.397135417,0,0,0,,0,117,117,27,1,,,,
,,,,,,2cadcfe448493c52c4c31351,66a626ef09d4e21e1a8894ec,67373f7b2cc50ca2ec0a21c9,2024-11-15_09h35.37.509,Tarea de género gramatical,2024.2.2,Win32,60.97560976,,,,,,,,,,,,,,,,,,,,,,,,338.939,340.1352,l,1,0.5227,,[],[],[],[],[],[],[],0.5227,1,340.1352,340.635,,,,,,125,MAS,CON,150,bate,,l,340.6351,340.6353,-0.020833333,-0.397135417,0,0,0,,0,118,118,124,1,,,,
,,,,,,2cadcfe448493c52c4c31351,66a626ef09d4e21e1a8894ec,67373f7b2cc50ca2ec0a21c9,2024-11-15_09h35.37.509,Tarea de género gramatical,2024.2.2,Win32,60.97560976,,,,,,,,,,,,,,,,,,,,,,,,340.6377,341.7337,l,1,0.4202,,[],[],[],[],[],[],[],0.4202,1,341.7339,342.2336,,,,,,148,MAS,AGR,150,surf,el,l,342.2359,342.2374,-0.020833333,-0.397135417,0,0,0,,0,119,119,147,1,,,,
,,,,,,2cadcfe448493c52c4c31351,66a626ef09d4e21e1a8894ec,67373f7b2cc50ca2ec0a21c9,2024-11-15_09h35.37.509,Tarea de género gramatical,2024.2.2,Win32,60.97560976,,,,,,,,,,,,,,,,,,,,,,,,342.2389,343.2986,l,1,0.3839,,[],[],[],[],[],[],[],0.3839,1,343.2986,343.7986,,,,,,359,MAS,CON,150,bosque,,l,343.7987,343.799,-0.020833333,-0.397135417,0,0,0,,0,120,120,358,1,,,,
,,,,,,2cadcfe448493c52c4c31351,66a626ef09d4e21e1a8894ec,67373f7b2cc50ca2ec0a21c9,2024-11-15_09h35.37.509,Tarea de género gramatical,2024.2.2,Win32,60.97560976,,,,,,,,,,,,,,,,,,,,,,,,343.8011,344.931,l,1,0.4501,,[],[],[],[],[],[],[],0.4501,1,344.9313,345.4297,,,,,,11,MAS,CON,150,país,,l,345.4297,345.4297,-0.020833333,-0.397135417,0,0,0,,0,121,121,10,1,,,,
,,,,,,2cadcfe448493c52c4c31351,66a626ef09d4e21e1a8894ec,67373f7b2cc50ca2ec0a21c9,2024-11-15_09h35.37.509,Tarea de género gramatical,2024.2.2,Win32,60.97560976,,,,,,,,,,,,,,,,,,,,,,,,345.4305,346.5964,a,1,0.486,,[],[],[],[],[],[],[],0.486,1,346.5966,347.0949,,,,,,237,FEM,DIS,150,ducha,el,a,347.0949,347.0951,-0.020833333,-0.397135417,0,0,0,,0,122,122,236,1,,,,
,,,,,,2cadcfe448493c52c4c31351,66a626ef09d4e21e1a8894ec,67373f7b2cc50ca2ec0a21c9,2024-11-15_09h35.37.509,Tarea de género gramatical,2024.2.2,Win32,60.97560976,,,,,,,,,,,,,,,,,,,,,,,,347.096,348.1938,a,1,0.4247,,[],[],[],[],[],[],[],0.4247,1,348.1939,348.6936,,,,,,171,FEM,DIS,150,mitad,el,a,348.6956,348.6968,-0.020833333,-0.397135417,0,0,0,,0,123,123,170,1,,,,
,,,,,,2cadcfe448493c52c4c31351,66a626ef09d4e21e1a8894ec,67373f7b2cc50ca2ec0a21c9,2024-11-15_09h35.37.509,Tarea de género gramatical,2024.2.2,Win32,60.97560976,,,,,,,,,,,,,,,,,,,,,,,,348.698,349.8424,a,1,0.4695,,[],[],[],[],[],[],[],0.4695,1,349.8425,350.3422,,,,,,31,FEM,AGR,150,edad,la,a,350.3424,350.3427,-0.020833333,-0.397135417,0,0,0,,0,124,124,30,1,,,,
,,,,,,2cadcfe448493c52c4c31351,66a626ef09d4e21e1a8894ec,67373f7b2cc50ca2ec0a21c9,2024-11-15_09h35.37.509,Tarea de género gramatical,2024.2.2,Win32,60.97560976,,,,,,,,,,,,,,,,,,,,,,,,350.3449,351.3743,a,1,0.3533,,[],[],[],[],[],[],[],0.3533,1,351.3745,351.8739,,,,,,159,FEM,DIS,150,clase,el,a,351.8739,351.8741,-0.020833333,-0.397135417,0,0,0,,0,125,125,158,1,,,,
,,,,,,2cadcfe448493c52c4c31351,66a626ef09d4e21e1a8894ec,67373f7b2cc50ca2ec0a21c9,2024-11-15_09h35.37.509,Tarea de género gramatical,2024.2.2,Win32,60.97560976,,,,,,,,,,,,,,,,,,,,,,,,351.8762,353.0729,l,1,0.5167,,[],[],[],[],[],[],[],0.5167,1,353.0731,353.5726,,,,,,124,MAS,AGR,150,clan,el,l,353.5726,353.5728,-0.020833333,-0.397135417,0,0,0,,0,126,126,123,1,,,,
,,,,,,2cadcfe448493c52c4c31351,66a626ef09d4e21e1a8894ec,67373f7b2cc50ca2ec0a21c9,2024-11-15_09h35.37.509,Tarea de género gramatical,2024.2.2,Win32,60.97560976,,,,,,,,,,,,,,,,,,,,,,,,353.5748,354.9212,l,1,0.6686,,[],[],[],[],[],[],[],0.6686,1,354.9214,355.4207,,,,,,288,MAS,DIS,150,grado,la,l,355.4208,355.4209,-0.020833333,-0.397135417,0,0,0,,0,127,127,287,1,,,,
,,,,,,2cadcfe448493c52c4c31351,66a626ef09d4e21e1a8894ec,67373f7b2cc50ca2ec0a21c9,2024-11-15_09h35.37.509,Tarea de género gramatical,2024.2.2,Win32,60.97560976,,,,,,,,,,,,,,,,,,,,,,,,355.4219,356.7189,a,0,0.6231,,[],[],[],[],[],[],[],0.6231,0,356.7201,357.2182,,,,,,138,MAS,DIS,150,luto,la,l,357.2195,357.2203,-0.020833333,-0.397135417,0,0,0,,0,128,128,137,1,,,,
,,,,,,2cadcfe448493c52c4c31351,66a626ef09d4e21e1a8894ec,67373f7b2cc50ca2ec0a21c9,2024-11-15_09h35.37.509,Tarea de género gramatical,2024.2.2,Win32,60.97560976,,,,,,,,,,,,,,,,,,,,,,,,357.221,358.6833,a,1,0.7894,,[],[],[],[],[],[],[],0.7894,1,358.6842,359.1831,,,,,,241,FEM,AGR,150,pasta,la,a,359.1832,359.1832,-0.020833333,-0.397135417,0,0,0,,0,129,129,240,1,,,,
,,,,,,2cadcfe448493c52c4c31351,66a626ef09d4e21e1a8894ec,67373f7b2cc50ca2ec0a21c9,2024-11-15_09h35.37.509,Tarea de género gramatical,2024.2.2,Win32,60.97560976,,,,,,,,,,,,,,,,,,,,,,,,359.1841,360.3331,l,1,0.4688,,[],[],[],[],[],[],[],0.4688,1,360.3334,360.8323,,,,,,364,MAS,AGR,150,viento,el,l,360.8324,360.8326,-0.020833333,-0.397135417,0,0,0,,0,130,130,363,1,,,,
,,,,,,2cadcfe448493c52c4c31351,66a626ef09d4e21e1a8894ec,67373f7b2cc50ca2ec0a21c9,2024-11-15_09h35.37.509,Tarea de género gramatical,2024.2.2,Win32,60.97560976,,,,,,,,,,,,,,,,,,,,,,,,360.8355,362.1645,l,1,0.6499,,[],[],[],[],[],[],[],0.6499,1,362.1649,362.6638,,,,,,287,MAS,CON,150,plato,,l,362.6639,362.6642,-0.020833333,-0.397135417,0,0,0,,0,131,131,286,1,,,,
,,,,,,2cadcfe448493c52c4c31351,66a626ef09d4e21e1a8894ec,67373f7b2cc50ca2ec0a21c9,2024-11-15_09h35.37.509,Tarea de género gramatical,2024.2.2,Win32,60.97560976,,,,,,,,,,,,,,,,,,,,,,,,362.6666,363.8452,l,1,0.5013,,[],[],[],[],[],[],[],0.5013,1,363.8453,364.3445,,,,,,406,MAS,AGR,150,premio,el,l,364.3456,364.3463,-0.020833333,-0.397135417,0,0,0,,0,132,132,405,1,,,,
,,,,,,2cadcfe448493c52c4c31351,66a626ef09d4e21e1a8894ec,67373f7b2cc50ca2ec0a21c9,2024-11-15_09h35.37.509,Tarea de género gramatical,2024.2.2,Win32,60.97560976,,,,,,,,,,,,,,,,,,,,,,,,364.3468,365.4604,l,1,0.4338,,[],[],[],[],[],[],[],0.4338,1,365.4605,365.9599,,,,,,23,MAS,CON,150,rato,,l,365.9599,365.96,-0.020833333,-0.397135417,0,0,0,,0,133,133,22,1,,,,
,,,,,,2cadcfe448493c52c4c31351,66a626ef09d4e21e1a8894ec,67373f7b2cc50ca2ec0a21c9,2024-11-15_09h35.37.509,Tarea de género gramatical,2024.2.2,Win32,60.97560976,,,,,,,,,,,,,,,,,,,,,,,,365.9608,367.0752,a,1,0.4321,,[],[],[],[],[],[],[],0.4321,1,367.0753,367.5745,,,,,,315,FEM,DIS,150,manera,el,a,367.5745,367.5746,-0.020833333,-0.397135417,0,0,0,,0,134,134,314,1,,,,
,,,,,,2cadcfe448493c52c4c31351,66a626ef09d4e21e1a8894ec,67373f7b2cc50ca2ec0a21c9,2024-11-15_09h35.37.509,Tarea de género gramatical,2024.2.2,Win32,60.97560976,,,,,,,,,,,,,,,,,,,,,,,,367.5753,368.6568,a,1,0.4002,,[],[],[],[],[],[],[],0.4002,1,368.6569,369.1573,,,,,,345,FEM,DIS,150,pierna,el,a,369.1574,369.1577,-0.020833333,-0.397135417,0,0,0,,0,135,135,344,1,,,,
,,,,,,2cadcfe448493c52c4c31351,66a626ef09d4e21e1a8894ec,67373f7b2cc50ca2ec0a21c9,2024-11-15_09h35.37.509,Tarea de género gramatical,2024.2.2,Win32,60.97560976,,,,,,,,,,,,,,,,,,,,,,,,369.1598,370.2223,l,0,0.3868,,[],[],[],[],[],[],[],0.3868,0,370.2229,370.7217,,,,,,44,FEM,CON,150,zona,,a,370.7218,370.7219,-0.020833333,-0.397135417,0,0,0,,0,136,136,43,1,,,,
,,,,,,2cadcfe448493c52c4c31351,66a626ef09d4e21e1a8894ec,67373f7b2cc50ca2ec0a21c9,2024-11-15_09h35.37.509,Tarea de género gramatical,2024.2.2,Win32,60.97560976,,,,,,,,,,,,,,,,,,,,,,,,370.7232,371.7881,a,1,0.3835,,[],[],[],[],[],[],[],0.3835,1,371.7897,372.2873,,,,,,176,FEM,CON,150,línea,,a,372.2903,372.2922,-0.020833333,-0.397135417,0,0,0,,0,137,137,175,1,,,,
,,,,,,2cadcfe448493c52c4c31351,66a626ef09d4e21e1a8894ec,67373f7b2cc50ca2ec0a21c9,2024-11-15_09h35.37.509,Tarea de género gramatical,2024.2.2,Win32,60.97560976,,,,,,,,,,,,,,,,,,,,,,,,372.2937,373.6187,l,1,0.6503,,[],[],[],[],[],[],[],0.6503,1,373.6187,374.1187,,,,,,340,MAS,AGR,150,pasado,el,l,374.1188,374.119,-0.020833333,-0.397135417,0,0,0,,0,138,138,339,1,,,,
,,,,,,2cadcfe448493c52c4c31351,66a626ef09d4e21e1a8894ec,67373f7b2cc50ca2ec0a21c9,2024-11-15_09h35.37.509,Tarea de género gramatical,2024.2.2,Win32,60.97560976,,,,,,,,,,,,,,,,,,,,,,,,374.1204,375.2505,l,1,0.4564,,[],[],[],[],[],[],[],0.4564,1,375.2506,375.7503,,,,,,394,MAS,AGR,150,examen,el,l,375.7503,375.7503,-0.020833333,-0.397135417,0,0,0,,0,139,139,393,1,,,,
,,,,,,2cadcfe448493c52c4c31351,66a626ef09d4e21e1a8894ec,67373f7b2cc50ca2ec0a21c9,2024-11-15_09h35.37.509,Tarea de género gramatical,2024.2.2,Win32,60.97560976,,,,,,,,,,,,,,,,,,,,,,,,375.7512,377.2154,a,1,0.7872,,[],[],[],[],[],[],[],0.7872,1,377.2154,377.7147,,,,,,259,FEM,AGR,150,prima,la,a,377.7147,377.7148,-0.020833333,-0.397135417,0,0,0,,0,140,140,258,1,,,,
,,,,,,2cadcfe448493c52c4c31351,66a626ef09d4e21e1a8894ec,67373f7b2cc50ca2ec0a21c9,2024-11-15_09h35.37.509,Tarea de género gramatical,2024.2.2,Win32,60.97560976,,,,,,,,,,,,,,,,,,,,,,,,377.7156,378.9977,l,1,0.6018,,[],[],[],[],[],[],[],0.6018,1,378.9978,379.4968,,,,,,77,MAS,CON,150,pico,,l,379.4995,379.5012,-0.020833333,-0.397135417,0,0,0,,0,141,141,76,1,,,,
,,,,,,2cadcfe448493c52c4c31351,66a626ef09d4e21e1a8894ec,67373f7b2cc50ca2ec0a21c9,2024-11-15_09h35.37.509,Tarea de género gramatical,2024.2.2,Win32,60.97560976,,,,,,,,,,,,,,,,,,,,,,,,379.5029,381.0284,l,1,0.8527,,[],[],[],[],[],[],[],0.8527,1,381.0286,381.5286,,,,,,154,MAS,AGR,150,padre,el,l,381.5287,381.5289,-0.020833333,-0.397135417,0,0,0,,0,142,142,153,1,,,,
,,,,,,2cadcfe448493c52c4c31351,66a626ef09d4e21e1a8894ec,67373f7b2cc50ca2ec0a21c9,2024-11-15_09h35.37.509,Tarea de género gramatical,2024.2.2,Win32,60.97560976,,,,,,,,,,,,,,,,,,,,,,,,381.5312,382.7432,l,1,0.5317,,[],[],[],[],[],[],[],0.5317,1,382.7433,383.243,,,,,,258,MAS,DIS,150,polvo,la,l,383.243,383.2432,-0.020833333,-0.397135417,0,0,0,,0,143,143,257,1,,,,
,,,,,,2cadcfe448493c52c4c31351,66a626ef09d4e21e1a8894ec,67373f7b2cc50ca2ec0a21c9,2024-11-15_09h35.37.509,Tarea de género gramatical,2024.2.2,Win32,60.97560976,,,,,,,,,,,,,,,,,,,,,,,,383.2442,384.4419,a,1,0.526,,[],[],[],[],[],[],[],0.526,1,384.4421,384.9408,,,,,,331,FEM,AGR,150,cárcel,la,a,384.9409,384.941,-0.020833333,-0.397135417,0,0,0,,0,144,144,330,1,,,,
,,,,,,2cadcfe448493c52c4c31351,66a626ef09d4e21e1a8894ec,67373f7b2cc50ca2ec0a21c9,2024-11-15_09h35.37.509,Tarea de género gramatical,2024.2.2,Win32,60.97560976,,,,,,,,,,,,,,,,,,,,,,,,384.942,386.0231,l,1,0.4073,,[],[],[],[],[],[],[],0.4073,1,386.0231,386.523,,,,,,209,MAS,CON,150,banco,,l,386.523,386.523,-0.020833333,-0.397135417,0,0,0,,0,145,145,208,1,,,,
,,,,,,2cadcfe448493c52c4c31351,66a626ef09d4e21e1a8894ec,67373f7b2cc50ca2ec0a21c9,2024-11-15_09h35.37.509,Tarea de género gramatical,2024.2.2,Win32,60.97560976,,,,,,,,,,,,,,,,,,,,,,,,386.5239,388.1043,l,1,0.9093,,[],[],[],[],[],[],[],0.9093,1,388.1044,388.6047,,,,,,102,MAS,DIS,150,coro,la,l,388.6073,388.6092,-0.020833333,-0.397135417,0,0,0,,0,146,146,101,1,,,,
,,,,,,2cadcfe448493c52c4c31351,66a626ef09d4e21e1a8894ec,67373f7b2cc50ca2ec0a21c9,2024-11-15_09h35.37.509,Tarea de género gramatical,2024.2.2,Win32,60.97560976,,,,,,,,,,,,,,,,,,,,,,,,388.6109,389.6865,l,1,0.4101,,[],[],[],[],[],[],[],0.4101,1,389.6866,390.1866,,,,,,342,MAS,DIS,150,abuelo,la,l,390.1867,390.187,-0.020833333,-0.397135417,0,0,0,,0,147,147,341,1,,,,
,,,,,,2cadcfe448493c52c4c31351,66a626ef09d4e21e1a8894ec,67373f7b2cc50ca2ec0a21c9,2024-11-15_09h35.37.509,Tarea de género gramatical,2024.2.2,Win32,60.97560976,,,,,,,,,,,,,,,,,,,,,,,,390.1893,391.2689,a,1,0.4003,,[],[],[],[],[],[],[],0.4003,1,391.2691,391.7678,,,,,,74,FEM,CON,150,flor,,a,391.7679,391.7681,-0.020833333,-0.397135417,0,0,0,,0,148,148,73,1,,,,
,,,,,,2cadcfe448493c52c4c31351,66a626ef09d4e21e1a8894ec,67373f7b2cc50ca2ec0a21c9,2024-11-15_09h35.37.509,Tarea de género gramatical,2024.2.2,Win32,60.97560976,,,,,,,,,,,,,,,,,,,,,,,,391.7689,393.0505,a,1,0.6032,,[],[],[],[],[],[],[],0.6032,1,393.0507,393.5493,,,,,,81,FEM,DIS,150,cima,el,a,393.5493,393.5494,-0.020833333,-0.397135417,0,0,0,,0,149,149,80,1,,,,
,,,,,,2cadcfe448493c52c4c31351,66a626ef09d4e21e1a8894ec,67373f7b2cc50ca2ec0a21c9,2024-11-15_09h35.37.509,Tarea de género gramatical,2024.2.2,Win32,60.97560976,,,,,,,,,,,,,,,,,,,,,,,,393.5502,394.7147,l,1,0.4838,,[],[],[],[],[],[],[],0.4838,1,394.7148,395.2151,,,,,,54,MAS,DIS,150,humo,la,l,395.2179,401.7081,-0.020833333,-0.397135417,0,0,0,space,0,150,150,53,1,6.4758,,,
,,,,,,2cadcfe448493c52c4c31351,66a626ef09d4e21e1a8894ec,67373f7b2cc50ca2ec0a21c9,2024-11-15_09h35.37.509,Tarea de género gramatical,2024.2.2,Win32,60.97560976,,,,,,,,,,,,,,,,,,,,,,,,401.709,403.1563,a,1,0.7758,,[],[],[],[],[],[],[],0.7758,1,403.1564,403.656,,,,,,163,FEM,AGR,150,calle,la,a,403.6561,403.6561,-0.020833333,-0.397135417,0,0,0,,0,151,151,162,1,,,,
,,,,,,2cadcfe448493c52c4c31351,66a626ef09d4e21e1a8894ec,67373f7b2cc50ca2ec0a21c9,2024-11-15_09h35.37.509,Tarea de género gramatical,2024.2.2,Win32,60.97560976,,,,,,,,,,,,,,,,,,,,,,,,403.6569,404.8878,l,1,0.5598,,[],[],[],[],[],[],[],0.5598,1,404.8879,405.3884,,,,,,341,MAS,CON,150,precio,,l,405.3885,405.3887,-0.020833333,-0.397135417,0,0,0,,0,152,152,340,1,,,,
,,,,,,2cadcfe448493c52c4c31351,66a626ef09d4e21e1a8894ec,67373f7b2cc50ca2ec0a21c9,2024-11-15_09h35.37.509,Tarea de género gramatical,2024.2.2,Win32,60.97560976,,,,,,,,,,,,,,,,,,,,,,,,405.3908,406.7371,l,1,0.6691,,[],[],[],[],[],[],[],0.6691,1,406.7372,407.2359,,,,,,264,MAS,DIS,150,pollo,la,l,407.2359,407.236,-0.020833333,-0.397135417,0,0,0,,0,153,153,263,1,,,,
,,,,,,2cadcfe448493c52c4c31351,66a626ef09d4e21e1a8894ec,67373f7b2cc50ca2ec0a21c9,2024-11-15_09h35.37.509,Tarea de género gramatical,2024.2.2,Win32,60.97560976,,,,,,,,,,,,,,,,,,,,,,,,407.2368,408.3181,l,1,0.4084,,[],[],[],[],[],[],[],0.4084,1,408.3181,408.8186,,,,,,412,MAS,AGR,150,espejo,el,l,408.8188,408.8192,-0.020833333,-0.397135417,0,0,0,,0,154,154,411,1,,,,
,,,,,,2cadcfe448493c52c4c31351,66a626ef09d4e21e1a8894ec,67373f7b2cc50ca2ec0a21c9,2024-11-15_09h35.37.509,Tarea de género gramatical,2024.2.2,Win32,60.97560976,,,,,,,,,,,,,,,,,,,,,,,,408.8214,410.1164,l,1,0.6218,,[],[],[],[],[],[],[],0.6218,1,410.1165,410.6161,,,,,,275,MAS,CON,150,disco,,l,410.618,410.6197,-0.020833333,-0.397135417,0,0,0,,0,155,155,274,1,,,,
,,,,,,2cadcfe448493c52c4c31351,66a626ef09d4e21e1a8894ec,67373f7b2cc50ca2ec0a21c9,2024-11-15_09h35.37.509,Tarea de género gramatical,2024.2.2,Win32,60.97560976,,,,,,,,,,,,,,,,,,,,,,,,410.621,411.6312,l,1,0.3334,,[],[],[],[],[],[],[],0.3334,1,411.6314,412.1312,,,,,,29,MAS,CON,150,frío,,l,412.1312,412.1312,-0.020833333,-0.397135417,0,0,0,,0,156,156,28,1,,,,
,,,,,,2cadcfe448493c52c4c31351,66a626ef09d4e21e1a8894ec,67373f7b2cc50ca2ec0a21c9,2024-11-15_09h35.37.509,Tarea de género gramatical,2024.2.2,Win32,60.97560976,,,,,,,,,,,,,,,,,,,,,,,,412.132,413.164,a,1,0.3529,,[],[],[],[],[],[],[],0.3529,1,413.1641,413.6631,,,,,,351,FEM,DIS,150,espada,el,a,413.6631,413.6632,-0.020833333,-0.397135417,0,0,0,,0,157,157,350,1,,,,
,,,,,,2cadcfe448493c52c4c31351,66a626ef09d4e21e1a8894ec,67373f7b2cc50ca2ec0a21c9,2024-11-15_09h35.37.509,Tarea de género gramatical,2024.2.2,Win32,60.97560976,,,,,,,,,,,,,,,,,,,,,,,,413.6639,414.6788,a,1,0.3339,,[],[],[],[],[],[],[],0.3339,1,414.6788,415.1782,,,,,,416,FEM,CON,150,colina,,a,415.1783,415.1784,-0.020833333,-0.397135417,0,0,0,,0,158,158,415,1,,,,
,,,,,,2cadcfe448493c52c4c31351,66a626ef09d4e21e1a8894ec,67373f7b2cc50ca2ec0a21c9,2024-11-15_09h35.37.509,Tarea de género gramatical,2024.2.2,Win32,60.97560976,,,,,,,,,,,,,,,,,,,,,,,,415.1792,416.1937,a,1,0.3438,,[],[],[],[],[],[],[],0.3438,1,416.1937,416.694,,,,,,187,FEM,AGR,150,lista,la,a,416.6971,416.6996,-0.020833333,-0.397135417,0,0,0,,0,159,159,186,1,,,,
,,,,,,2cadcfe448493c52c4c31351,66a626ef09d4e21e1a8894ec,67373f7b2cc50ca2ec0a21c9,2024-11-15_09h35.37.509,Tarea de género gramatical,2024.2.2,Win32,60.97560976,,,,,,,,,,,,,,,,,,,,,,,,416.7015,417.7599,a,0,0.3853,,[],[],[],[],[],[],[],0.3853,0,417.7624,418.2597,,,,,,240,MAS,DIS,150,ruido,la,l,418.2598,418.2605,-0.020833333,-0.397135417,0,0,0,,0,160,160,239,1,,,,
,,,,,,2cadcfe448493c52c4c31351,66a626ef09d4e21e1a8894ec,67373f7b2cc50ca2ec0a21c9,2024-11-15_09h35.37.509,Tarea de género gramatical,2024.2.2,Win32,60.97560976,,,,,,,,,,,,,,,,,,,,,,,,418.2633,419.2749,a,1,0.3408,,[],[],[],[],[],[],[],0.3408,1,419.2775,419.7742,,,,,,440,FEM,CON,150,patada,,a,419.7743,419.7746,-0.020833333,-0.397135417,0,0,0,,0,161,161,439,1,,,,
,,,,,,2cadcfe448493c52c4c31351,66a626ef09d4e21e1a8894ec,67373f7b2cc50ca2ec0a21c9,2024-11-15_09h35.37.509,Tarea de género gramatical,2024.2.2,Win32,60.97560976,,,,,,,,,,,,,,,,,,,,,,,,419.7775,420.7735,a,1,0.3178,,[],[],[],[],[],[],[],0.3178,1,420.7738,421.2728,,,,,,122,FEM,CON,150,loca,,a,421.273,421.2738,-0.020833333,-0.397135417,0,0,0,,0,162,162,121,1,,,,
,,,,,,2cadcfe448493c52c4c31351,66a626ef09d4e21e1a8894ec,67373f7b2cc50ca2ec0a21c9,2024-11-15_09h35.37.509,Tarea de género gramatical,2024.2.2,Win32,60.97560976,,,,,,,,,,,,,,,,,,,,,,,,421.2768,422.305,a,1,0.3512,,[],[],[],[],[],[],[],0.3512,1,422.3053,422.8047,,,,,,398,FEM,CON,150,hierba,,a,422.8048,422.8054,-0.020833333,-0.397135417,0,0,0,,0,163,163,397,1,,,,
,,,,,,2cadcfe448493c52c4c31351,66a626ef09d4e21e1a8894ec,67373f7b2cc50ca2ec0a21c9,2024-11-15_09h35.37.509,Tarea de género gramatical,2024.2.2,Win32,60.97560976,,,,,,,,,,,,,,,,,,,,,,,,422.8083,423.8705,a,0,0.3846,,[],[],[],[],[],[],[],0.3846,0,423.873,424.37,,,,,,89,MAS,CON,150,maíz,,l,424.374,424.376,-0.020833333,-0.397135417,0,0,0,,0,164,164,88,1,,,,
,,,,,,2cadcfe448493c52c4c31351,66a626ef09d4e21e1a8894ec,67373f7b2cc50ca2ec0a21c9,2024-11-15_09h35.37.509,Tarea de género gramatical,2024.2.2,Win32,60.97560976,,,,,,,,,,,,,,,,,,,,,,,,424.3781,425.3354,a,1,0.2922,,[],[],[],[],[],[],[],0.2922,1,425.3379,425.8351,,,,,,134,FEM,CON,150,rama,,a,425.8352,425.8355,-0.020833333,-0.397135417,0,0,0,,0,165,165,133,1,,,,
,,,,,,2cadcfe448493c52c4c31351,66a626ef09d4e21e1a8894ec,67373f7b2cc50ca2ec0a21c9,2024-11-15_09h35.37.509,Tarea de género gramatical,2024.2.2,Win32,60.97560976,,,,,,,,,,,,,,,,,,,,,,,,425.839,427.101,a,1,0.5842,,[],[],[],[],[],[],[],0.5842,1,427.1013,427.5999,,,,,,350,FEM,CON,150,imagen,,a,427.6,427.6004,-0.020833333,-0.397135417,0,0,0,,0,166,166,349,1,,,,
,,,,,,2cadcfe448493c52c4c31351,66a626ef09d4e21e1a8894ec,67373f7b2cc50ca2ec0a21c9,2024-11-15_09h35.37.509,Tarea de género gramatical,2024.2.2,Win32,60.97560976,,,,,,,,,,,,,,,,,,,,,,,,427.6033,428.8157,l,1,0.5379,,[],[],[],[],[],[],[],0.5379,1,428.816,429.3148,,,,,,431,MAS,CON,150,veneno,,l,429.315,429.3153,-0.020833333,-0.397135417,0,0,0,,0,167,167,430,1,,,,
,,,,,,2cadcfe448493c52c4c31351,66a626ef09d4e21e1a8894ec,67373f7b2cc50ca2ec0a21c9,2024-11-15_09h35.37.509,Tarea de género gramatical,2024.2.2,Win32,60.97560976,,,,,,,,,,,,,,,,,,,,,,,,429.3185,430.6142,l,1,0.6199,,[],[],[],[],[],[],[],0.6199,1,430.6145,431.1131,,,,,,100,MAS,AGR,150,nido,el,l,431.1168,431.1188,-0.020833333,-0.397135417,0,0,0,,0,168,168,99,1,,,,
,,,,,,2cadcfe448493c52c4c31351,66a626ef09d4e21e1a8894ec,67373f7b2cc50ca2ec0a21c9,2024-11-15_09h35.37.509,Tarea de género gramatical,2024.2.2,Win32,60.97560976,,,,,,,,,,,,,,,,,,,,,,,,431.1206,432.1953,a,1,0.4078,,[],[],[],[],[],[],[],0.4078,1,432.1956,432.6954,,,,,,170,FEM,CON,150,carta,,a,432.6956,432.696,-0.020833333,-0.397135417,0,0,0,,0,169,169,169,1,,,,
,,,,,,2cadcfe448493c52c4c31351,66a626ef09d4e21e1a8894ec,67373f7b2cc50ca2ec0a21c9,2024-11-15_09h35.37.509,Tarea de género gramatical,2024.2.2,Win32,60.97560976,,,,,,,,,,,,,,,,,,,,,,,,432.6988,433.8433,a,1,0.4665,,[],[],[],[],[],[],[],0.4665,1,433.8434,434.3432,,,,,,79,FEM,AGR,150,mina,la,a,434.3433,434.3438,-0.020833333,-0.397135417,0,0,0,,0,170,170,78,1,,,,
,,,,,,2cadcfe448493c52c4c31351,66a626ef09d4e21e1a8894ec,67373f7b2cc50ca2ec0a21c9,2024-11-15_09h35.37.509,Tarea de género gramatical,2024.2.2,Win32,60.97560976,,,,,,,,,,,,,,,,,,,,,,,,434.3471,435.4255,a,1,0.4082,,[],[],[],[],[],[],[],0.4082,1,435.4258,435.9253,,,,,,182,FEM,CON,150,prisa,,a,435.9254,435.9258,-0.020833333,-0.397135417,0,0,0,,0,171,171,181,1,,,,
,,,,,,2cadcfe448493c52c4c31351,66a626ef09d4e21e1a8894ec,67373f7b2cc50ca2ec0a21c9,2024-11-15_09h35.37.509,Tarea de género gramatical,2024.2.2,Win32,60.97560976,,,,,,,,,,,,,,,,,,,,,,,,435.9283,436.9411,l,1,0.3368,,[],[],[],[],[],[],[],0.3368,1,436.9414,437.4408,,,,,,48,MAS,DIS,150,loco,la,l,437.4409,437.4414,-0.020833333,-0.397135417,0,0,0,,0,172,172,47,1,,,,
,,,,,,2cadcfe448493c52c4c31351,66a626ef09d4e21e1a8894ec,67373f7b2cc50ca2ec0a21c9,2024-11-15_09h35.37.509,Tarea de género gramatical,2024.2.2,Win32,60.97560976,,,,,,,,,,,,,,,,,,,,,,,,437.4451,438.4892,a,1,0.3721,,[],[],[],[],[],[],[],0.3721,1,438.4895,438.9878,,,,,,343,FEM,AGR,150,trampa,la,a,438.9888,438.9895,-0.020833333,-0.397135417,0,0,0,,0,173,173,342,1,,,,
,,,,,,2cadcfe448493c52c4c31351,66a626ef09d4e21e1a8894ec,67373f7b2cc50ca2ec0a21c9,2024-11-15_09h35.37.509,Tarea de género gramatical,2024.2.2,Win32,60.97560976,,,,,,,,,,,,,,,,,,,,,,,,438.9901,440.0876,l,1,0.4209,,[],[],[],[],[],[],[],0.4209,1,440.0878,440.587,,,,,,173,MAS,CON,150,libro,,l,440.5872,440.5873,-0.020833333,-0.397135417,0,0,0,,0,174,174,172,1,,,,
,,,,,,2cadcfe448493c52c4c31351,66a626ef09d4e21e1a8894ec,67373f7b2cc50ca2ec0a21c9,2024-11-15_09h35.37.509,Tarea de género gramatical,2024.2.2,Win32,60.97560976,,,,,,,,,,,,,,,,,,,,,,,,440.5896,441.7851,l,1,0.5261,,[],[],[],[],[],[],[],0.5261,1,441.7851,442.2856,,,,,,203,MAS,CON,150,novio,,l,442.2857,442.2862,-0.020833333,-0.397135417,0,0,0,,0,175,175,202,1,,,,
,,,,,,2cadcfe448493c52c4c31351,66a626ef09d4e21e1a8894ec,67373f7b2cc50ca2ec0a21c9,2024-11-15_09h35.37.509,Tarea de género gramatical,2024.2.2,Win32,60.97560976,,,,,,,,,,,,,,,,,,,,,,,,442.2888,443.2672,a,1,0.3025,,[],[],[],[],[],[],[],0.3025,1,443.2672,443.7674,,,,,,158,FEM,CON,150,chica,,a,443.7675,443.7679,-0.020833333,-0.397135417,0,0,0,,0,176,176,157,1,,,,
,,,,,,2cadcfe448493c52c4c31351,66a626ef09d4e21e1a8894ec,67373f7b2cc50ca2ec0a21c9,2024-11-15_09h35.37.509,Tarea de género gramatical,2024.2.2,Win32,60.97560976,,,,,,,,,,,,,,,,,,,,,,,,443.7701,445.0495,l,1,0.6085,,[],[],[],[],[],[],[],0.6085,1,445.0497,445.5482,,,,,,366,MAS,DIS,150,riesgo,la,l,445.5494,445.5503,-0.020833333,-0.397135417,0,0,0,,0,177,177,365,1,,,,
,,,,,,2cadcfe448493c52c4c31351,66a626ef09d4e21e1a8894ec,67373f7b2cc50ca2ec0a21c9,2024-11-15_09h35.37.509,Tarea de género gramatical,2024.2.2,Win32,60.97560976,,,,,,,,,,,,,,,,,,,,,,,,445.5512,446.6307,a,1,0.4002,,[],[],[],[],[],[],[],0.4002,1,446.6308,447.1306,,,,,,92,FEM,CON,150,masa,,a,447.1306,447.1308,-0.020833333,-0.397135417,0,0,0,,0,178,178,91,1,,,,
,,,,,,2cadcfe448493c52c4c31351,66a626ef09d4e21e1a8894ec,67373f7b2cc50ca2ec0a21c9,2024-11-15_09h35.37.509,Tarea de género gramatical,2024.2.2,Win32,60.97560976,,,,,,,,,,,,,,,,,,,,,,,,447.1323,448.162,a,1,0.3597,,[],[],[],[],[],[],[],0.3597,1,448.1621,448.6617,,,,,,405,FEM,DIS,150,parada,el,a,448.6617,448.6619,-0.020833333,-0.397135417,0,0,0,,0,179,179,404,1,,,,
,,,,,,2cadcfe448493c52c4c31351,66a626ef09d4e21e1a8894ec,67373f7b2cc50ca2ec0a21c9,2024-11-15_09h35.37.509,Tarea de género gramatical,2024.2.2,Win32,60.97560976,,,,,,,,,,,,,,,,,,,,,,,,448.6628,449.6941,l,1,0.3516,,[],[],[],[],[],[],[],0.3516,1,449.6942,450.1942,,,,,,17,MAS,CON,150,modo,,l,450.1944,450.1948,-0.020833333,-0.397135417,0,0,0,,0,180,180,16,1,,,,
,,,,,,2cadcfe448493c52c4c31351,66a626ef09d4e21e1a8894ec,67373f7b2cc50ca2ec0a21c9,2024-11-15_09h35.37.509,Tarea de género gramatical,2024.2.2,Win32,60.97560976,,,,,,,,,,,,,,,,,,,,,,,,450.1978,451.2428,l,1,0.3711,,[],[],[],[],[],[],[],0.3711,1,451.2428,451.7423,,,,,,108,MAS,DIS,150,hilo,la,l,451.7424,451.7425,-0.020833333,-0.397135417,0,0,0,,0,181,181,107,1,,,,
,,,,,,2cadcfe448493c52c4c31351,66a626ef09d4e21e1a8894ec,67373f7b2cc50ca2ec0a21c9,2024-11-15_09h35.37.509,Tarea de género gramatical,2024.2.2,Win32,60.97560976,,,,,,,,,,,,,,,,,,,,,,,,451.7435,453.1574,a,1,0.7343,,[],[],[],[],[],[],[],0.7343,1,453.1576,453.6572,,,,,,255,FEM,DIS,150,tribu,el,a,453.6586,453.6595,-0.020833333,-0.397135417,0,0,0,,0,182,182,254,1,,,,
,,,,,,2cadcfe448493c52c4c31351,66a626ef09d4e21e1a8894ec,67373f7b2cc50ca2ec0a21c9,2024-11-15_09h35.37.509,Tarea de género gramatical,2024.2.2,Win32,60.97560976,,,,,,,,,,,,,,,,,,,,,,,,453.6604,454.8057,l,1,0.4735,,[],[],[],[],[],[],[],0.4735,1,454.8058,455.3058,,,,,,222,MAS,DIS,150,valor,la,l,455.3059,455.3063,-0.020833333,-0.397135417,0,0,0,,0,183,183,221,1,,,,
,,,,,,2cadcfe448493c52c4c31351,66a626ef09d4e21e1a8894ec,67373f7b2cc50ca2ec0a21c9,2024-11-15_09h35.37.509,Tarea de género gramatical,2024.2.2,Win32,60.97560976,,,,,,,,,,,,,,,,,,,,,,,,455.3083,456.4719,l,0,0.4845,,[],[],[],[],[],[],[],0.4845,0,456.4738,456.9707,,,,,,116,FEM,CON,150,nube,,a,456.9707,456.9709,-0.020833333,-0.397135417,0,0,0,,0,184,184,115,1,,,,
,,,,,,2cadcfe448493c52c4c31351,66a626ef09d4e21e1a8894ec,67373f7b2cc50ca2ec0a21c9,2024-11-15_09h35.37.509,Tarea de género gramatical,2024.2.2,Win32,60.97560976,,,,,,,,,,,,,,,,,,,,,,,,456.9722,458.036,l,0,0.3834,,[],[],[],[],[],[],[],0.3834,0,458.036,458.5358,,,,,,7,FEM,AGR,150,hora,la,a,458.5358,458.536,-0.020833333,-0.397135417,0,0,0,,0,185,185,6,1,,,,
,,,,,,2cadcfe448493c52c4c31351,66a626ef09d4e21e1a8894ec,67373f7b2cc50ca2ec0a21c9,2024-11-15_09h35.37.509,Tarea de género gramatical,2024.2.2,Win32,60.97560976,,,,,,,,,,,,,,,,,,,,,,,,458.5374,459.7184,a,1,0.5033,,[],[],[],[],[],[],[],0.5033,1,459.7202,460.2176,,,,,,283,FEM,AGR,150,pluma,la,a,460.2193,460.2204,-0.020833333,-0.397135417,0,0,0,,0,186,186,282,1,,,,
,,,,,,2cadcfe448493c52c4c31351,66a626ef09d4e21e1a8894ec,67373f7b2cc50ca2ec0a21c9,2024-11-15_09h35.37.509,Tarea de género gramatical,2024.2.2,Win32,60.97560976,,,,,,,,,,,,,,,,,,,,,,,,460.2212,461.1997,a,1,0.3004,,[],[],[],[],[],[],[],0.3004,1,461.1998,461.6991,,,,,,273,FEM,DIS,150,tarta,el,a,461.6991,461.6992,-0.020833333,-0.397135417,0,0,0,,0,187,187,272,1,,,,
,,,,,,2cadcfe448493c52c4c31351,66a626ef09d4e21e1a8894ec,67373f7b2cc50ca2ec0a21c9,2024-11-15_09h35.37.509,Tarea de género gramatical,2024.2.2,Win32,60.97560976,,,,,,,,,,,,,,,,,,,,,,,,461.7005,462.7148,a,1,0.3416,,[],[],[],[],[],[],[],0.3416,1,462.7149,463.2144,,,,,,387,FEM,DIS,150,página,el,a,463.2144,463.2145,-0.020833333,-0.397135417,0,0,0,,0,188,188,386,1,,,,
,,,,,,2cadcfe448493c52c4c31351,66a626ef09d4e21e1a8894ec,67373f7b2cc50ca2ec0a21c9,2024-11-15_09h35.37.509,Tarea de género gramatical,2024.2.2,Win32,60.97560976,,,,,,,,,,,,,,,,,,,,,,,,463.216,464.1808,a,0,0.2865,,[],[],[],[],[],[],[],0.2865,0,464.1826,464.6803,,,,,,316,MAS,AGR,150,cuerpo,el,l,464.6804,464.6807,-0.020833333,-0.397135417,0,0,0,,0,189,189,315,1,,,,
,,,,,,2cadcfe448493c52c4c31351,66a626ef09d4e21e1a8894ec,67373f7b2cc50ca2ec0a21c9,2024-11-15_09h35.37.509,Tarea de género gramatical,2024.2.2,Win32,60.97560976,,,,,,,,,,,,,,,,,,,,,,,,464.6829,465.779,a,1,0.419,,[],[],[],[],[],[],[],0.419,1,465.7807,466.2778,,,,,,291,FEM,DIS,150,aguja,el,a,466.2778,466.2779,-0.020833333,-0.397135417,0,0,0,,0,190,190,290,1,,,,
,,,,,,2cadcfe448493c52c4c31351,66a626ef09d4e21e1a8894ec,67373f7b2cc50ca2ec0a21c9,2024-11-15_09h35.37.509,Tarea de género gramatical,2024.2.2,Win32,60.97560976,,,,,,,,,,,,,,,,,,,,,,,,466.2786,467.3434,l,1,0.3866,,[],[],[],[],[],[],[],0.3866,1,467.3435,467.843,,,,,,442,MAS,AGR,150,cuadro,el,l,467.8442,467.8451,-0.020833333,-0.397135417,0,0,0,,0,191,191,441,1,,,,
,,,,,,2cadcfe448493c52c4c31351,66a626ef09d4e21e1a8894ec,67373f7b2cc50ca2ec0a21c9,2024-11-15_09h35.37.509,Tarea de género gramatical,2024.2.2,Win32,60.97560976,,,,,,,,,,,,,,,,,,,,,,,,467.8465,468.9094,l,0,0.3928,,[],[],[],[],[],[],[],0.3928,0,468.9109,469.4081,,,,,,147,FEM,DIS,150,grúa,el,a,469.4081,469.4082,-0.020833333,-0.397135417,0,0,0,,0,192,192,146,1,,,,
,,,,,,2cadcfe448493c52c4c31351,66a626ef09d4e21e1a8894ec,67373f7b2cc50ca2ec0a21c9,2024-11-15_09h35.37.509,Tarea de género gramatical,2024.2.2,Win32,60.97560976,,,,,,,,,,,,,,,,,,,,,,,,469.4093,470.5412,l,1,0.4513,,[],[],[],[],[],[],[],0.4513,1,470.5428,471.0405,,,,,,322,MAS,AGR,150,minuto,el,l,471.0406,471.0408,-0.020833333,-0.397135417,0,0,0,,0,193,193,321,1,,,,
,,,,,,2cadcfe448493c52c4c31351,66a626ef09d4e21e1a8894ec,67373f7b2cc50ca2ec0a21c9,2024-11-15_09h35.37.509,Tarea de género gramatical,2024.2.2,Win32,60.97560976,,,,,,,,,,,,,,,,,,,,,,,,471.0428,472.305,l,1,0.5945,,[],[],[],[],[],[],[],0.5945,1,472.3051,472.8049,,,,,,365,MAS,CON,150,código,,l,472.8049,472.805,-0.020833333,-0.397135417,0,0,0,,0,194,194,364,1,,,,
,,,,,,2cadcfe448493c52c4c31351,66a626ef09d4e21e1a8894ec,67373f7b2cc50ca2ec0a21c9,2024-11-15_09h35.37.509,Tarea de género gramatical,2024.2.2,Win32,60.97560976,,,,,,,,,,,,,,,,,,,,,,,,472.8059,473.938,l,1,0.4609,,[],[],[],[],[],[],[],0.4609,1,473.9382,474.4368,,,,,,328,MAS,AGR,150,asunto,el,l,474.4392,474.4407,-0.020833333,-0.397135417,0,0,0,,0,195,195,327,1,,,,
,,,,,,2cadcfe448493c52c4c31351,66a626ef09d4e21e1a8894ec,67373f7b2cc50ca2ec0a21c9,2024-11-15_09h35.37.509,Tarea de género gramatical,2024.2.2,Win32,60.97560976,,,,,,,,,,,,,,,,,,,,,,,,474.4421,475.569,l,1,0.45,,[],[],[],[],[],[],[],0.45,1,475.569,476.0689,,,,,,244,MAS,AGR,150,hielo,el,l,476.069,476.0694,-0.020833333,-0.397135417,0,0,0,,0,196,196,243,1,,,,
,,,,,,2cadcfe448493c52c4c31351,66a626ef09d4e21e1a8894ec,67373f7b2cc50ca2ec0a21c9,2024-11-15_09h35.37.509,Tarea de género gramatical,2024.2.2,Win32,60.97560976,,,,,,,,,,,,,,,,,,,,,,,,476.0715,477.1507,a,1,0.4024,,[],[],[],[],[],[],[],0.4024,1,477.1508,477.6508,,,,,,421,FEM,AGR,150,novela,la,a,477.6509,477.6511,-0.020833333,-0.397135417,0,0,0,,0,197,197,420,1,,,,
,,,,,,2cadcfe448493c52c4c31351,66a626ef09d4e21e1a8894ec,67373f7b2cc50ca2ec0a21c9,2024-11-15_09h35.37.509,Tarea de género gramatical,2024.2.2,Win32,60.97560976,,,,,,,,,,,,,,,,,,,,,,,,477.6529,478.8487,a,1,0.5289,,[],[],[],[],[],[],[],0.5289,1,478.8487,479.3485,,,,,,188,FEM,CON,150,bomba,,a,479.3486,479.3487,-0.020833333,-0.397135417,0,0,0,,0,198,198,187,1,,,,
,,,,,,2cadcfe448493c52c4c31351,66a626ef09d4e21e1a8894ec,67373f7b2cc50ca2ec0a21c9,2024-11-15_09h35.37.509,Tarea de género gramatical,2024.2.2,Win32,60.97560976,,,,,,,,,,,,,,,,,,,,,,,,479.3496,480.8976,l,1,0.869,,[],[],[],[],[],[],[],0.869,1,480.8977,481.3965,,,,,,246,MAS,DIS,150,humor,la,l,481.3965,481.3967,-0.020833333,-0.397135417,0,0,0,,0,199,199,245,1,,,,
,,,,,,2cadcfe448493c52c4c31351,66a626ef09d4e21e1a8894ec,67373f7b2cc50ca2ec0a21c9,2024-11-15_09h35.37.509,Tarea de género gramatical,2024.2.2,Win32,60.97560976,,,,,,,,,,,,,,,,,,,,,,,,481.3975,482.4294,l,1,0.3581,,[],[],[],[],[],[],[],0.3581,1,482.4295,482.9283,,,,,,408,MAS,DIS,150,cheque,la,l,482.9292,482.9298,-0.020833333,-0.397135417,0,0,0,,0,200,200,407,1,,,,
,,,,,,2cadcfe448493c52c4c31351,66a626ef09d4e21e1a8894ec,67373f7b2cc50ca2ec0a21c9,2024-11-15_09h35.37.509,Tarea de género gramatical,2024.2.2,Win32,60.97560976,,,,,,,,,,,,,,,,,,,,,,,,482.9305,483.9114,l,1,0.3006,,[],[],[],[],[],[],[],0.3006,1,483.9117,484.411,,,,,,233,MAS,CON,150,golpe,,l,484.4111,484.4113,-0.020833333,-0.397135417,0,0,0,,0,201,201,232,1,,,,
,,,,,,2cadcfe448493c52c4c31351,66a626ef09d4e21e1a8894ec,67373f7b2cc50ca2ec0a21c9,2024-11-15_09h35.37.509,Tarea de género gramatical,2024.2.2,Win32,60.97560976,,,,,,,,,,,,,,,,,,,,,,,,484.4138,485.4763,l,1,0.3884,,[],[],[],[],[],[],[],0.3884,1,485.4765,485.9752,,,,,,34,MAS,AGR,150,gato,el,l,485.9752,485.9752,-0.020833333,-0.397135417,0,0,0,,0,202,202,33,1,,,,
,,,,,,2cadcfe448493c52c4c31351,66a626ef09d4e21e1a8894ec,67373f7b2cc50ca2ec0a21c9,2024-11-15_09h35.37.509,Tarea de género gramatical,2024.2.2,Win32,60.97560976,,,,,,,,,,,,,,,,,,,,,,,,485.9758,487.0244,a,1,0.3766,,[],[],[],[],[],[],[],0.3766,1,487.0245,487.5237,,,,,,422,FEM,CON,150,rutina,,a,487.5237,487.5238,-0.020833333,-0.397135417,0,0,0,,0,203,203,421,1,,,,
,,,,,,2cadcfe448493c52c4c31351,66a626ef09d4e21e1a8894ec,67373f7b2cc50ca2ec0a21c9,2024-11-15_09h35.37.509,Tarea de género gramatical,2024.2.2,Win32,60.97560976,,,,,,,,,,,,,,,,,,,,,,,,487.5247,488.8056,a,1,0.605,,[],[],[],[],[],[],[],0.605,1,488.8057,489.306,,,,,,99,FEM,DIS,150,fase,el,a,489.3089,489.3107,-0.020833333,-0.397135417,0,0,0,,0,204,204,98,1,,,,
,,,,,,2cadcfe448493c52c4c31351,66a626ef09d4e21e1a8894ec,67373f7b2cc50ca2ec0a21c9,2024-11-15_09h35.37.509,Tarea de género gramatical,2024.2.2,Win32,60.97560976,,,,,,,,,,,,,,,,,,,,,,,,489.3122,490.3877,a,1,0.4027,,[],[],[],[],[],[],[],0.4027,1,490.3878,490.8875,,,,,,212,FEM,CON,150,cinta,,a,490.8876,490.8878,-0.020833333,-0.397135417,0,0,0,,0,205,205,211,1,,,,
,,,,,,2cadcfe448493c52c4c31351,66a626ef09d4e21e1a8894ec,67373f7b2cc50ca2ec0a21c9,2024-11-15_09h35.37.509,Tarea de género gramatical,2024.2.2,Win32,60.97560976,,,,,,,,,,,,,,,,,,,,,,,,490.8897,491.8858,a,1,0.3254,,[],[],[],[],[],[],[],0.3254,1,491.8859,492.3859,,,,,,219,FEM,DIS,150,costa,el,a,492.386,492.3862,-0.020833333,-0.397135417,0,0,0,,0,206,206,218,1,,,,
,,,,,,2cadcfe448493c52c4c31351,66a626ef09d4e21e1a8894ec,67373f7b2cc50ca2ec0a21c9,2024-11-15_09h35.37.509,Tarea de género gramatical,2024.2.2,Win32,60.97560976,,,,,,,,,,,,,,,,,,,,,,,,492.3878,493.4514,a,1,0.3942,,[],[],[],[],[],[],[],0.3942,1,493.4515,493.9508,,,,,,103,FEM,AGR,150,fama,la,a,493.9508,493.9509,-0.020833333,-0.397135417,0,0,0,,0,207,207,102,1,,,,
,,,,,,2cadcfe448493c52c4c31351,66a626ef09d4e21e1a8894ec,67373f7b2cc50ca2ec0a21c9,2024-11-15_09h35.37.509,Tarea de género gramatical,2024.2.2,Win32,60.97560976,,,,,,,,,,,,,,,,,,,,,,,,493.9517,495.0165,l,1,0.3956,,[],[],[],[],[],[],[],0.3956,1,495.0166,495.5168,,,,,,268,MAS,AGR,150,truco,el,l,495.5169,495.5172,-0.020833333,-0.397135417,0,0,0,,0,208,208,267,1,,,,
,,,,,,2cadcfe448493c52c4c31351,66a626ef09d4e21e1a8894ec,67373f7b2cc50ca2ec0a21c9,2024-11-15_09h35.37.509,Tarea de género gramatical,2024.2.2,Win32,60.97560976,,,,,,,,,,,,,,,,,,,,,,,,495.5193,496.4648,a,1,0.2734,,[],[],[],[],[],[],[],0.2734,1,496.4649,496.9645,,,,,,69,FEM,DIS,150,rata,el,a,496.9654,496.9659,-0.020833333,-0.397135417,0,0,0,,0,209,209,68,1,,,,
,,,,,,2cadcfe448493c52c4c31351,66a626ef09d4e21e1a8894ec,67373f7b2cc50ca2ec0a21c9,2024-11-15_09h35.37.509,Tarea de género gramatical,2024.2.2,Win32,60.97560976,,,,,,,,,,,,,,,,,,,,,,,,496.9665,497.9971,l,1,0.3622,,[],[],[],[],[],[],[],0.3622,1,497.9972,498.497,,,,,,436,MAS,AGR,150,objeto,el,l,498.497,498.4973,-0.020833333,-0.397135417,0,0,0,,0,210,210,435,1,,,,
,,,,,,2cadcfe448493c52c4c31351,66a626ef09d4e21e1a8894ec,67373f7b2cc50ca2ec0a21c9,2024-11-15_09h35.37.509,Tarea de género gramatical,2024.2.2,Win32,60.97560976,,,,,,,,,,,,,,,,,,,,,,,,498.4992,499.4788,l,1,0.2978,,[],[],[],[],[],[],[],0.2978,1,499.4789,499.9782,,,,,,347,MAS,CON,150,cuello,,l,499.9782,499.9783,-0.020833333,-0.397135417,0,0,0,,0,211,211,346,1,,,,
,,,,,,2cadcfe448493c52c4c31351,66a626ef09d4e21e1a8894ec,67373f7b2cc50ca2ec0a21c9,2024-11-15_09h35.37.509,Tarea de género gramatical,2024.2.2,Win32,60.97560976,,,,,,,,,,,,,,,,,,,,,,,,499.9791,501.0273,l,1,0.3737,,[],[],[],[],[],[],[],0.3737,1,501.0274,501.5272,,,,,,196,MAS,AGR,150,barco,el,l,501.5273,501.5276,-0.020833333,-0.397135417,0,0,0,,0,212,212,195,1,,,,
,,,,,,2cadcfe448493c52c4c31351,66a626ef09d4e21e1a8894ec,67373f7b2cc50ca2ec0a21c9,2024-11-15_09h35.37.509,Tarea de género gramatical,2024.2.2,Win32,60.97560976,,,,,,,,,,,,,,,,,,,,,,,,501.5299,502.6256,l,1,0.4252,,[],[],[],[],[],[],[],0.4252,1,502.6257,503.126,,,,,,197,MAS,CON,150,avión,,l,503.1292,503.1315,-0.020833333,-0.397135417,0,0,0,,0,213,213,196,1,,,,
,,,,,,2cadcfe448493c52c4c31351,66a626ef09d4e21e1a8894ec,67373f7b2cc50ca2ec0a21c9,2024-11-15_09h35.37.509,Tarea de género gramatical,2024.2.2,Win32,60.97560976,,,,,,,,,,,,,,,,,,,,,,,,503.1333,504.441,a,1,0.6362,,[],[],[],[],[],[],[],0.6362,1,504.4412,504.9409,,,,,,314,FEM,CON,150,señora,,a,504.941,504.9413,-0.020833333,-0.397135417,0,0,0,,0,214,214,313,1,,,,
,,,,,,2cadcfe448493c52c4c31351,66a626ef09d4e21e1a8894ec,67373f7b2cc50ca2ec0a21c9,2024-11-15_09h35.37.509,Tarea de género gramatical,2024.2.2,Win32,60.97560976,,,,,,,,,,,,,,,,,,,,,,,,504.9442,505.9562,a,1,0.3361,,[],[],[],[],[],[],[],0.3361,1,505.9564,506.4555,,,,,,230,FEM,CON,150,regla,,a,506.4556,506.4559,-0.020833333,-0.397135417,0,0,0,,0,215,215,229,1,,,,
,,,,,,2cadcfe448493c52c4c31351,66a626ef09d4e21e1a8894ec,67373f7b2cc50ca2ec0a21c9,2024-11-15_09h35.37.509,Tarea de género gramatical,2024.2.2,Win32,60.97560976,,,,,,,,,,,,,,,,,,,,,,,,506.4581,507.4208,l,0,0.2797,,[],[],[],[],[],[],[],0.2797,0,507.4214,507.9205,,,,,,231,FEM,DIS,150,bruja,el,a,507.9205,507.9207,-0.020833333,-0.397135417,0,0,0,,0,216,216,230,1,,,,
,,,,,,2cadcfe448493c52c4c31351,66a626ef09d4e21e1a8894ec,67373f7b2cc50ca2ec0a21c9,2024-11-15_09h35.37.509,Tarea de género gramatical,2024.2.2,Win32,60.97560976,,,,,,,,,,,,,,,,,,,,,,,,507.9215,509.1027,a,1,0.5062,,[],[],[],[],[],[],[],0.5062,1,509.1034,509.6023,,,,,,321,FEM,DIS,150,comida,el,a,509.6024,509.6025,-0.020833333,-0.397135417,0,0,0,,0,217,217,320,1,,,,
,,,,,,2cadcfe448493c52c4c31351,66a626ef09d4e21e1a8894ec,67373f7b2cc50ca2ec0a21c9,2024-11-15_09h35.37.509,Tarea de género gramatical,2024.2.2,Win32,60.97560976,,,,,,,,,,,,,,,,,,,,,,,,509.6037,510.768,l,1,0.4868,,[],[],[],[],[],[],[],0.4868,1,510.7682,511.2674,,,,,,167,MAS,CON,150,juego,,l,511.27,511.2718,-0.020833333,-0.397135417,0,0,0,,0,218,218,166,1,,,,
,,,,,,2cadcfe448493c52c4c31351,66a626ef09d4e21e1a8894ec,67373f7b2cc50ca2ec0a21c9,2024-11-15_09h35.37.509,Tarea de género gramatical,2024.2.2,Win32,60.97560976,,,,,,,,,,,,,,,,,,,,,,,,511.2745,512.3161,a,0,0.3646,,[],[],[],[],[],[],[],0.3646,0,512.3167,512.8157,,,,,,432,MAS,DIS,150,océano,la,l,512.8158,512.8158,-0.020833333,-0.397135417,0,0,0,,0,219,219,431,1,,,,
,,,,,,2cadcfe448493c52c4c31351,66a626ef09d4e21e1a8894ec,67373f7b2cc50ca2ec0a21c9,2024-11-15_09h35.37.509,Tarea de género gramatical,2024.2.2,Win32,60.97560976,,,,,,,,,,,,,,,,,,,,,,,,512.8166,514.064,l,1,0.5781,,[],[],[],[],[],[],[],0.5781,1,514.0645,514.5637,,,,,,336,MAS,DIS,150,crimen,la,l,514.5637,514.5639,-0.020833333,-0.397135417,0,0,0,,0,220,220,335,1,,,,
,,,,,,2cadcfe448493c52c4c31351,66a626ef09d4e21e1a8894ec,67373f7b2cc50ca2ec0a21c9,2024-11-15_09h35.37.509,Tarea de género gramatical,2024.2.2,Win32,60.97560976,,,,,,,,,,,,,,,,,,,,,,,,514.5647,515.6627,l,1,0.4272,,[],[],[],[],[],[],[],0.4272,1,515.6627,516.1624,,,,,,306,MAS,DIS,150,dinero,la,l,516.1624,516.1625,-0.020833333,-0.397135417,0,0,0,,0,221,221,305,1,,,,
,,,,,,2cadcfe448493c52c4c31351,66a626ef09d4e21e1a8894ec,67373f7b2cc50ca2ec0a21c9,2024-11-15_09h35.37.509,Tarea de género gramatical,2024.2.2,Win32,60.97560976,,,,,,,,,,,,,,,,,,,,,,,,516.1634,517.1617,a,1,0.3199,,[],[],[],[],[],[],[],0.3199,1,517.1618,517.6609,,,,,,385,FEM,AGR,150,muñeca,la,a,517.6622,517.6631,-0.020833333,-0.397135417,0,0,0,,0,222,222,384,1,,,,
,,,,,,2cadcfe448493c52c4c31351,66a626ef09d4e21e1a8894ec,67373f7b2cc50ca2ec0a21c9,2024-11-15_09h35.37.509,Tarea de género gramatical,2024.2.2,Win32,60.97560976,,,,,,,,,,,,,,,,,,,,,,,,517.6638,518.9763,l,1,0.633,,[],[],[],[],[],[],[],0.633,1,518.9764,519.4763,,,,,,35,MAS,CON,150,taxi,,l,519.4764,519.4767,-0.020833333,-0.397135417,0,0,0,,0,223,223,34,1,,,,
,,,,,,2cadcfe448493c52c4c31351,66a626ef09d4e21e1a8894ec,67373f7b2cc50ca2ec0a21c9,2024-11-15_09h35.37.509,Tarea de género gramatical,2024.2.2,Win32,60.97560976,,,,,,,,,,,,,,,,,,,,,,,,519.4792,520.6413,a,1,0.4902,,[],[],[],[],[],[],[],0.4902,1,520.6415,521.1415,,,,,,409,FEM,AGR,150,moneda,la,a,521.1416,521.1418,-0.020833333,-0.397135417,0,0,0,,0,224,224,408,1,,,,
,,,,,,2cadcfe448493c52c4c31351,66a626ef09d4e21e1a8894ec,67373f7b2cc50ca2ec0a21c9,2024-11-15_09h35.37.509,Tarea de género gramatical,2024.2.2,Win32,60.97560976,,,,,,,,,,,,,,,,,,,,,,,,521.1441,522.2561,a,1,0.442,,[],[],[],[],[],[],[],0.442,1,522.2561,522.7563,,,,,,123,FEM,DIS,150,tela,el,a,522.7563,522.7568,-0.020833333,-0.397135417,0,0,0,,0,225,225,122,1,,,,
,,,,,,2cadcfe448493c52c4c31351,66a626ef09d4e21e1a8894ec,67373f7b2cc50ca2ec0a21c9,2024-11-15_09h35.37.509,Tarea de género gramatical,2024.2.2,Win32,60.97560976,,,,,,,,,,,,,,,,,,,,,,,,522.7591,523.7549,a,1,0.3198,,[],[],[],[],[],[],[],0.3198,1,523.755,524.2547,,,,,,337,FEM,AGR,150,escena,la,a,524.2548,524.2551,-0.020833333,-0.397135417,0,0,0,,0,226,226,336,1,,,,
,,,,,,2cadcfe448493c52c4c31351,66a626ef09d4e21e1a8894ec,67373f7b2cc50ca2ec0a21c9,2024-11-15_09h35.37.509,Tarea de género gramatical,2024.2.2,Win32,60.97560976,,,,,,,,,,,,,,,,,,,,,,,,524.257,525.2033,a,1,0.2676,,[],[],[],[],[],[],[],0.2676,1,525.2034,525.7029,,,,,,157,FEM,AGR,150,madre,la,a,525.7056,525.7067,-0.020833333,-0.397135417,0,0,0,,0,227,227,156,1,,,,
,,,,,,2cadcfe448493c52c4c31351,66a626ef09d4e21e1a8894ec,67373f7b2cc50ca2ec0a21c9,2024-11-15_09h35.37.509,Tarea de género gramatical,2024.2.2,Win32,60.97560976,,,,,,,,,,,,,,,,,,,,,,,,525.7078,526.8186,a,1,0.435,,[],[],[],[],[],[],[],0.435,1,526.8186,527.3182,,,,,,133,FEM,AGR,150,joya,la,a,527.3183,527.3184,-0.020833333,-0.397135417,0,0,0,,0,228,228,132,1,,,,
,,,,,,2cadcfe448493c52c4c31351,66a626ef09d4e21e1a8894ec,67373f7b2cc50ca2ec0a21c9,2024-11-15_09h35.37.509,Tarea de género gramatical,2024.2.2,Win32,60.97560976,,,,,,,,,,,,,,,,,,,,,,,,527.3194,528.4837,l,1,0.4924,,[],[],[],[],[],[],[],0.4924,1,528.4838,528.9829,,,,,,220,MAS,AGR,150,huevo,el,l,528.9829,528.983,-0.020833333,-0.397135417,0,0,0,,0,229,229,219,1,,,,
,,,,,,2cadcfe448493c52c4c31351,66a626ef09d4e21e1a8894ec,67373f7b2cc50ca2ec0a21c9,2024-11-15_09h35.37.509,Tarea de género gramatical,2024.2.2,Win32,60.97560976,,,,,,,,,,,,,,,,,,,,,,,,528.9839,530.2325,a,1,0.5693,,[],[],[],[],[],[],[],0.5693,1,530.2327,530.7323,,,,,,363,FEM,DIS,150,unidad,el,a,530.7324,530.7328,-0.020833333,-0.397135417,0,0,0,,0,230,230,362,1,,,,
,,,,,,2cadcfe448493c52c4c31351,66a626ef09d4e21e1a8894ec,67373f7b2cc50ca2ec0a21c9,2024-11-15_09h35.37.509,Tarea de género gramatical,2024.2.2,Win32,60.97560976,,,,,,,,,,,,,,,,,,,,,,,,530.7351,531.8975,a,1,0.4845,,[],[],[],[],[],[],[],0.4845,1,531.8978,532.3964,,,,,,296,FEM,CON,150,feria,,a,532.3975,532.398,-0.020833333,-0.397135417,0,0,0,,0,231,231,295,1,,,,
,,,,,,2cadcfe448493c52c4c31351,66a626ef09d4e21e1a8894ec,67373f7b2cc50ca2ec0a21c9,2024-11-15_09h35.37.509,Tarea de género gramatical,2024.2.2,Win32,60.97560976,,,,,,,,,,,,,,,,,,,,,,,,532.3987,533.545,l,1,0.4677,,[],[],[],[],[],[],[],0.4677,1,533.5451,534.0453,,,,,,257,MAS,CON,150,pecho,,l,534.0454,534.0457,-0.020833333,-0.397135417,0,0,0,,0,232,232,256,1,,,,
,,,,,,2cadcfe448493c52c4c31351,66a626ef09d4e21e1a8894ec,67373f7b2cc50ca2ec0a21c9,2024-11-15_09h35.37.509,Tarea de género gramatical,2024.2.2,Win32,60.97560976,,,,,,,,,,,,,,,,,,,,,,,,534.0478,535.0436,l,1,0.317,,[],[],[],[],[],[],[],0.317,1,535.0437,535.5442,,,,,,388,MAS,AGR,150,empleo,el,l,535.5442,535.5445,-0.020833333,-0.397135417,0,0,0,,0,233,233,387,1,,,,
,,,,,,2cadcfe448493c52c4c31351,66a626ef09d4e21e1a8894ec,67373f7b2cc50ca2ec0a21c9,2024-11-15_09h35.37.509,Tarea de género gramatical,2024.2.2,Win32,60.97560976,,,,,,,,,,,,,,,,,,,,,,,,535.5466,536.6755,l,1,0.4529,,[],[],[],[],[],[],[],0.4529,1,536.6756,537.1753,,,,,,136,MAS,AGR,150,vago,el,l,537.1753,537.1755,-0.020833333,-0.397135417,0,0,0,,0,234,234,135,1,,,,
,,,,,,2cadcfe448493c52c4c31351,66a626ef09d4e21e1a8894ec,67373f7b2cc50ca2ec0a21c9,2024-11-15_09h35.37.509,Tarea de género gramatical,2024.2.2,Win32,60.97560976,,,,,,,,,,,,,,,,,,,,,,,,537.1775,538.257,l,0,0.4062,,[],[],[],[],[],[],[],0.4062,0,538.2575,538.7568,,,,,,62,FEM,CON,150,sopa,,a,538.7568,538.757,-0.020833333,-0.397135417,0,0,0,,0,235,235,61,1,,,,
,,,,,,2cadcfe448493c52c4c31351,66a626ef09d4e21e1a8894ec,67373f7b2cc50ca2ec0a21c9,2024-11-15_09h35.37.509,Tarea de género gramatical,2024.2.2,Win32,60.97560976,,,,,,,,,,,,,,,,,,,,,,,,538.7579,539.8898,a,1,0.4503,,[],[],[],[],[],[],[],0.4503,1,539.8914,540.3885,,,,,,277,FEM,AGR,150,plaza,la,a,540.3895,540.3901,-0.020833333,-0.397135417,0,0,0,,0,236,236,276,1,,,,
,,,,,,2cadcfe448493c52c4c31351,66a626ef09d4e21e1a8894ec,67373f7b2cc50ca2ec0a21c9,2024-11-15_09h35.37.509,Tarea de género gramatical,2024.2.2,Win32,60.97560976,,,,,,,,,,,,,,,,,,,,,,,,540.3907,541.3709,l,1,0.3027,,[],[],[],[],[],[],[],0.3027,1,541.371,541.871,,,,,,390,MAS,DIS,150,rostro,la,l,541.8711,541.8713,-0.020833333,-0.397135417,0,0,0,,0,237,237,389,1,,,,
,,,,,,2cadcfe448493c52c4c31351,66a626ef09d4e21e1a8894ec,67373f7b2cc50ca2ec0a21c9,2024-11-15_09h35.37.509,Tarea de género gramatical,2024.2.2,Win32,60.97560976,,,,,,,,,,,,,,,,,,,,,,,,541.8737,542.9866,l,1,0.4368,,[],[],[],[],[],[],[],0.4368,1,542.9868,543.4862,,,,,,88,MAS,AGR,150,pavo,el,l,543.4863,543.4866,-0.020833333,-0.397135417,0,0,0,,0,238,238,87,1,,,,
,,,,,,2cadcfe448493c52c4c31351,66a626ef09d4e21e1a8894ec,67373f7b2cc50ca2ec0a21c9,2024-11-15_09h35.37.509,Tarea de género gramatical,2024.2.2,Win32,60.97560976,,,,,,,,,,,,,,,,,,,,,,,,543.4886,544.5844,a,1,0.4173,,[],[],[],[],[],[],[],0.4173,1,544.5846,545.0839,,,,,,205,FEM,AGR,150,reina,la,a,545.0839,545.0841,-0.020833333,-0.397135417,0,0,0,,0,239,239,204,1,,,,
,,,,,,2cadcfe448493c52c4c31351,66a626ef09d4e21e1a8894ec,67373f7b2cc50ca2ec0a21c9,2024-11-15_09h35.37.509,Tarea de género gramatical,2024.2.2,Win32,60.97560976,,,,,,,,,,,,,,,,,,,,,,,,545.0848,546.133,a,1,0.3703,,[],[],[],[],[],[],[],0.3703,1,546.1331,546.6323,,,,,,189,FEM,DIS,150,pista,el,a,546.6338,546.6349,-0.020833333,-0.397135417,0,0,0,,0,240,240,188,1,,,,
,,,,,,2cadcfe448493c52c4c31351,66a626ef09d4e21e1a8894ec,67373f7b2cc50ca2ec0a21c9,2024-11-15_09h35.37.509,Tarea de género gramatical,2024.2.2,Win32,60.97560976,,,,,,,,,,,,,,,,,,,,,,,,546.6361,547.7313,a,1,0.4182,,[],[],[],[],[],[],[],0.4182,1,547.7315,548.2313,,,,,,93,FEM,DIS,150,lata,el,a,548.2313,548.2315,-0.020833333,-0.397135417,0,0,0,,0,241,241,92,1,,,,
,,,,,,2cadcfe448493c52c4c31351,66a626ef09d4e21e1a8894ec,67373f7b2cc50ca2ec0a21c9,2024-11-15_09h35.37.509,Tarea de género gramatical,2024.2.2,Win32,60.97560976,,,,,,,,,,,,,,,,,,,,,,,,548.2335,549.2969,l,1,0.3929,,[],[],[],[],[],[],[],0.3929,1,549.297,549.7961,,,,,,437,MAS,CON,150,hombro,,l,549.7961,549.7962,-0.020833333,-0.397135417,0,0,0,,0,242,242,436,1,,,,
,,,,,,2cadcfe448493c52c4c31351,66a626ef09d4e21e1a8894ec,67373f7b2cc50ca2ec0a21c9,2024-11-15_09h35.37.509,Tarea de género gramatical,2024.2.2,Win32,60.97560976,,,,,,,,,,,,,,,,,,,,,,,,549.7978,551.012,a,1,0.5337,,[],[],[],[],[],[],[],0.5337,1,551.0122,551.5111,,,,,,380,FEM,CON,150,madera,,a,551.5113,551.5114,-0.020833333,-0.397135417,0,0,0,,0,243,243,379,1,,,,
,,,,,,2cadcfe448493c52c4c31351,66a626ef09d4e21e1a8894ec,67373f7b2cc50ca2ec0a21c9,2024-11-15_09h35.37.509,Tarea de género gramatical,2024.2.2,Win32,60.97560976,,,,,,,,,,,,,,,,,,,,,,,,551.5133,552.6764,l,1,0.4855,,[],[],[],[],[],[],[],0.4855,1,552.6765,553.1764,,,,,,179,MAS,CON,150,viaje,,l,553.1766,553.1768,-0.020833333,-0.397135417,0,0,0,,0,244,244,178,1,,,,
,,,,,,2cadcfe448493c52c4c31351,66a626ef09d4e21e1a8894ec,67373f7b2cc50ca2ec0a21c9,2024-11-15_09h35.37.509,Tarea de género gramatical,2024.2.2,Win32,60.97560976,,,,,,,,,,,,,,,,,,,,,,,,553.1784,554.1414,a,1,0.292,,[],[],[],[],[],[],[],0.292,1,554.1414,554.641,,,,,,50,FEM,CON,150,dama,,a,554.6415,554.6424,-0.020833333,-0.397135417,0,0,0,,0,245,245,49,1,,,,
,,,,,,2cadcfe448493c52c4c31351,66a626ef09d4e21e1a8894ec,67373f7b2cc50ca2ec0a21c9,2024-11-15_09h35.37.509,Tarea de género gramatical,2024.2.2,Win32,60.97560976,,,,,,,,,,,,,,,,,,,,,,,,554.6434,555.923,l,1,0.6093,,[],[],[],[],[],[],[],0.6093,1,555.923,556.4225,,,,,,286,MAS,AGR,150,reino,el,l,556.4226,556.4227,-0.020833333,-0.397135417,0,0,0,,0,246,246,285,1,,,,
,,,,,,2cadcfe448493c52c4c31351,66a626ef09d4e21e1a8894ec,67373f7b2cc50ca2ec0a21c9,2024-11-15_09h35.37.509,Tarea de género gramatical,2024.2.2,Win32,60.97560976,,,,,,,,,,,,,,,,,,,,,,,,556.4237,557.6546,a,1,0.5624,,[],[],[],[],[],[],[],0.5624,1,557.6547,558.1541,,,,,,104,FEM,CON,150,vela,,a,558.1542,558.1543,-0.020833333,-0.397135417,0,0,0,,0,247,247,103,1,,,,
,,,,,,2cadcfe448493c52c4c31351,66a626ef09d4e21e1a8894ec,67373f7b2cc50ca2ec0a21c9,2024-11-15_09h35.37.509,Tarea de género gramatical,2024.2.2,Win32,60.97560976,,,,,,,,,,,,,,,,,,,,,,,,558.1551,559.353,a,1,0.5271,,[],[],[],[],[],[],[],0.5271,1,559.3531,559.8525,,,,,,242,FEM,CON,150,pizza,,a,559.8525,559.8525,-0.020833333,-0.397135417,0,0,0,,0,248,248,241,1,,,,
,,,,,,2cadcfe448493c52c4c31351,66a626ef09d4e21e1a8894ec,67373f7b2cc50ca2ec0a21c9,2024-11-15_09h35.37.509,Tarea de género gramatical,2024.2.2,Win32,60.97560976,,,,,,,,,,,,,,,,,,,,,,,,559.8532,561.7507,a,1,1.2266,,[],[],[],[],[],[],[],1.2266,1,561.7508,562.2503,,,,,,211,FEM,AGR,150,salud,la,a,562.2516,562.2525,-0.020833333,-0.397135417,0,0,0,,0,249,249,210,1,,,,
,,,,,,2cadcfe448493c52c4c31351,66a626ef09d4e21e1a8894ec,67373f7b2cc50ca2ec0a21c9,2024-11-15_09h35.37.509,Tarea de género gramatical,2024.2.2,Win32,60.97560976,,,,,,,,,,,,,,,,,,,,,,,,562.2535,563.3328,a,1,0.3997,,[],[],[],[],[],[],[],0.3997,1,563.3329,563.8323,,,,,,247,FEM,AGR,150,frase,la,a,563.8323,563.8326,-0.020833333,-0.397135417,0,0,0,,0,250,250,246,1,,,,
