counterbalancing_condition,consent_prescreening.block_1/declare_consent,consent_prescreening.block_1/age_years,consent_prescreening.block_1/gender,consent_prescreening.block_1/language_disorder,consent_prescreening.block_1/first_language,consent_prescreening.block_1/first_language-Comment,PROLIFIC_PID,STUDY_ID,SESSION_ID,date,expName,psychopyVersion,OS,frameRate,check_prescreening_answers.started,check_prescreening_answers.stopped,Instructions.started,Instructions.stopped,instr_done_keyboard.keys,instr_done_keyboard.rt,instr_done_keyboard.duration,instr_done_touch.x,instr_done_touch.y,instr_done_touch.leftButton,instr_done_touch.midButton,instr_done_touch.rightButton,instruction_pages.thisRepN,instruction_pages.thisTrialN,instruction_pages.thisN,instruction_pages.thisIndex,instruction_pages.ran,pageN,phase,instruct_text,has_image,instruct_image,presentTrial.started,presentTrial.stopped,response.keys,response.corr,response.rt,response.duration,touch_resp.x,touch_resp.y,touch_resp.leftButton,touch_resp.midButton,touch_resp.rightButton,touch_resp.time,touch_resp.clicked_name,rt,corr,feedback.started,feedback.stopped,practice_trials.thisRepN,practice_trials.thisTrialN,practice_trials.thisN,practice_trials.thisIndex,practice_trials.ran,TrialID,StimulusType,Condition,PrimeDuration,Prime,Flanker,corrAns,Break.started,Break.stopped,break_done_touch.x,break_done_touch.y,break_done_touch.leftButton,break_done_touch.midButton,break_done_touch.rightButton,break_done_keyboard.keys,experiment_trials.thisRepN,experiment_trials.thisTrialN,experiment_trials.thisN,experiment_trials.thisIndex,experiment_trials.ran,break_done_keyboard.rt,break_done_keyboard.duration,End.started,End.stopped
0,"[""over_18"",""comfortable"",""consent_given"",""read_info""]",31,M,"[""none""]","[""spanish"",""other""]",Catalán,2ea7826337495084686e4629,66a626ef09d4e21e1a8894ec,6735ef74eb28d6b77f656c38,2024-11-14_13h39.23.509,Tarea de género gramatical,2024.2.2,Win32,165.0165017,,,,,,,,,,,,,,,,,,,,,,,,,,,,,,,,,,,,,,,,,,,,,,,,,,,,,,,,,,,,,,,,,,,,
,,,,,,,2ea7826337495084686e4629,66a626ef09d4e21e1a8894ec,6735ef74eb28d6b77f656c38,2024-11-14_13h39.23.509,Tarea de género gramatical,2024.2.2,Win32,165.0165017,73.282,73.282,,,,,,,,,,,,,,,,,,,,,,,,,,,,,,,,,,,,,,,,,,,,,,,,,,,,,,,,,,,,,,,,,,
,,,,,,,2ea7826337495084686e4629,66a626ef09d4e21e1a8894ec,6735ef74eb28d6b77f656c38,2024-11-14_13h39.23.509,Tarea de género gramatical,2024.2.2,Win32,165.0165017,,,73.298,85.381,space,12.046,,0.888194444,-0.00625,0,0,0,0,0,0,0,1,1,instructions,"INSTRUCCIONES
Va a realizar una prueba de selección gramatical. Desde el comienzo de la prueba mire siempre al centro de la pantalla. Al cabo de un momento, aparecerán palabras. La tarea consiste en determinar si la palabra del centro (siempre será un sustantivo), pertenece al género masculino o femenino.

Pulse la tecla ESPACIO o toque el botón de abajo para continuar.",0,keyboardresponseMF.png,,,,,,,,,,,,,,,,,,,,,,,,,,,,,,,,,,,,,,,,,,,,,,
,,,,,,,2ea7826337495084686e4629,66a626ef09d4e21e1a8894ec,6735ef74eb28d6b77f656c38,2024-11-14_13h39.23.509,Tarea de género gramatical,2024.2.2,Win32,165.0165017,,,85.382,93.967,space,8.525,,0.888194444,-0.00625,0,0,0,0,1,1,1,1,2,instructions,"Si su dispositivo tiene teclado, pulse la tecla ""A"" para las palabras en masculino (por ejemplo: ""arroz"") y la tecla ""L"" para las palabras en femenino (por ejemplo: ""mano"").
Pulse la tecla ESPACIO o toque el botón de abajo para continuar.",1,keyboardresponseMF.png,,,,,,,,,,,,,,,,,,,,,,,,,,,,,,,,,,,,,,,,,,,,,,
,,,,,,,2ea7826337495084686e4629,66a626ef09d4e21e1a8894ec,6735ef74eb28d6b77f656c38,2024-11-14_13h39.23.509,Tarea de género gramatical,2024.2.2,Win32,165.0165017,,,93.969,101.076,space,7.057,,0.888194444,-0.00625,0,0,0,0,2,2,2,1,3,instructions,"Si utiliza un dispositivo sólo táctil, colóquelo en horizontal y utilice los botones de la pantalla. No utilice el ratón.
Pulse la tecla ESPACIO o toque el botón de abajo para continuar.",2,touchresponseMF.png,,,,,,,,,,,,,,,,,,,,,,,,,,,,,,,,,,,,,,,,,,,,,,
,,,,,,,2ea7826337495084686e4629,66a626ef09d4e21e1a8894ec,6735ef74eb28d6b77f656c38,2024-11-14_13h39.23.509,Tarea de género gramatical,2024.2.2,Win32,165.0165017,,,101.079,111.077,space,9.977,,0.888194444,-0.00625,0,0,0,0,3,3,3,1,4,instructions,"Es muy importante que responda con la mayor rapidez y precisión posibles, ya que cada cadena de letras sólo estará en pantalla durante un instante. Si no responde en ese tiempo, aparecerá el mensaje ""Muy lento"" y el experimento pasará a la siguiente palabra. Los primeros 15 intentos serán de práctica y habrá dos descansos durante la prueba.
Pulse la tecla ESPACIO o toque el botón de abajo para iniciar la parte de práctica.",0,keyboardresponseMF.png,,,,,,,,,,,,,,,,,,,,,,,,,,,,,,,,,,,,,,,,,,,,,,
,,,,,,,2ea7826337495084686e4629,66a626ef09d4e21e1a8894ec,6735ef74eb28d6b77f656c38,2024-11-14_13h39.23.509,Tarea de género gramatical,2024.2.2,Win32,165.0165017,,,,,,,,,,,,,,,,,,,,,,,111.098,112.174,a,1,0.419,,[],[],[],[],[],[],[],0.419,1,112.175,112.671,0,0,0,13,1,2014,MAS,CON,150,siglo,,l,,,,,,,,,,,,,,,,,
,,,,,,,2ea7826337495084686e4629,66a626ef09d4e21e1a8894ec,6735ef74eb28d6b77f656c38,2024-11-14_13h39.23.509,Tarea de género gramatical,2024.2.2,Win32,165.0165017,,,,,,,,,,,,,,,,,,,,,,,112.673,113.72,l,1,0.387,,[],[],[],[],[],[],[],0.387,1,113.72,114.216,0,1,1,0,1,2001,FEM,AGR,150,nuca,la,a,,,,,,,,,,,,,,,,,
,,,,,,,2ea7826337495084686e4629,66a626ef09d4e21e1a8894ec,6735ef74eb28d6b77f656c38,2024-11-14_13h39.23.509,Tarea de género gramatical,2024.2.2,Win32,165.0165017,,,,,,,,,,,,,,,,,,,,,,,114.217,115.252,l,0,0.376,,[],[],[],[],[],[],[],0.376,0,115.254,115.749,0,2,2,8,1,2009,MAS,DIS,150,puerto,la,l,,,,,,,,,,,,,,,,,
,,,,,,,2ea7826337495084686e4629,66a626ef09d4e21e1a8894ec,6735ef74eb28d6b77f656c38,2024-11-14_13h39.23.509,Tarea de género gramatical,2024.2.2,Win32,165.0165017,,,,,,,,,,,,,,,,,,,,,,,115.751,116.828,a,1,0.42,,[],[],[],[],[],[],[],0.42,1,116.829,117.325,0,3,3,14,1,2015,MAS,DIS,150,robot,la,l,,,,,,,,,,,,,,,,,
,,,,,,,2ea7826337495084686e4629,66a626ef09d4e21e1a8894ec,6735ef74eb28d6b77f656c38,2024-11-14_13h39.23.509,Tarea de género gramatical,2024.2.2,Win32,165.0165017,,,,,,,,,,,,,,,,,,,,,,,117.326,118.277,l,1,0.292,,[],[],[],[],[],[],[],0.292,1,118.277,118.774,0,4,4,4,1,2005,FEM,CON,150,placa,,a,,,,,,,,,,,,,,,,,
,,,,,,,2ea7826337495084686e4629,66a626ef09d4e21e1a8894ec,6735ef74eb28d6b77f656c38,2024-11-14_13h39.23.509,Tarea de género gramatical,2024.2.2,Win32,165.0165017,,,,,,,,,,,,,,,,,,,,,,,118.775,119.707,a,1,0.275,,[],[],[],[],[],[],[],0.275,1,119.708,120.204,0,5,5,10,1,2011,MAS,CON,150,canal,,l,,,,,,,,,,,,,,,,,
,,,,,,,2ea7826337495084686e4629,66a626ef09d4e21e1a8894ec,6735ef74eb28d6b77f656c38,2024-11-14_13h39.23.509,Tarea de género gramatical,2024.2.2,Win32,165.0165017,,,,,,,,,,,,,,,,,,,,,,,120.205,121.143,l,1,0.28,,[],[],[],[],[],[],[],0.28,1,121.143,121.641,0,6,6,6,1,2007,FEM,AGR,150,navaja,la,a,,,,,,,,,,,,,,,,,
,,,,,,,2ea7826337495084686e4629,66a626ef09d4e21e1a8894ec,6735ef74eb28d6b77f656c38,2024-11-14_13h39.23.509,Tarea de género gramatical,2024.2.2,Win32,165.0165017,,,,,,,,,,,,,,,,,,,,,,,121.642,122.751,l,1,0.451,,[],[],[],[],[],[],[],0.451,1,122.751,123.247,0,7,7,2,1,2003,FEM,DIS,150,daga,el,a,,,,,,,,,,,,,,,,,
,,,,,,,2ea7826337495084686e4629,66a626ef09d4e21e1a8894ec,6735ef74eb28d6b77f656c38,2024-11-14_13h39.23.509,Tarea de género gramatical,2024.2.2,Win32,165.0165017,,,,,,,,,,,,,,,,,,,,,,,123.248,124.295,a,0,0.389,,[],[],[],[],[],[],[],0.389,0,124.296,124.792,0,8,8,5,1,2006,FEM,DIS,150,serie,el,a,,,,,,,,,,,,,,,,,
,,,,,,,2ea7826337495084686e4629,66a626ef09d4e21e1a8894ec,6735ef74eb28d6b77f656c38,2024-11-14_13h39.23.509,Tarea de género gramatical,2024.2.2,Win32,165.0165017,,,,,,,,,,,,,,,,,,,,,,,124.794,125.799,a,1,0.345,,[],[],[],[],[],[],[],0.345,1,125.799,126.295,0,9,9,12,1,2013,MAS,AGR,150,acero,el,l,,,,,,,,,,,,,,,,,
,,,,,,,2ea7826337495084686e4629,66a626ef09d4e21e1a8894ec,6735ef74eb28d6b77f656c38,2024-11-14_13h39.23.509,Tarea de género gramatical,2024.2.2,Win32,165.0165017,,,,,,,,,,,,,,,,,,,,,,,126.296,127.343,l,1,0.388,,[],[],[],[],[],[],[],0.388,1,127.344,127.84,0,10,10,7,1,2008,FEM,CON,150,siesta,,a,,,,,,,,,,,,,,,,,
,,,,,,,2ea7826337495084686e4629,66a626ef09d4e21e1a8894ec,6735ef74eb28d6b77f656c38,2024-11-14_13h39.23.509,Tarea de género gramatical,2024.2.2,Win32,165.0165017,,,,,,,,,,,,,,,,,,,,,,,127.841,128.867,l,1,0.369,,[],[],[],[],[],[],[],0.369,1,128.867,129.368,0,11,11,1,1,2002,FEM,CON,150,pala,,a,,,,,,,,,,,,,,,,,
,,,,,,,2ea7826337495084686e4629,66a626ef09d4e21e1a8894ec,6735ef74eb28d6b77f656c38,2024-11-14_13h39.23.509,Tarea de género gramatical,2024.2.2,Win32,165.0165017,,,,,,,,,,,,,,,,,,,,,,,129.369,130.41,a,1,0.385,,[],[],[],[],[],[],[],0.385,1,130.41,130.907,0,12,12,9,1,2010,MAS,AGR,150,vecino,el,l,,,,,,,,,,,,,,,,,
,,,,,,,2ea7826337495084686e4629,66a626ef09d4e21e1a8894ec,6735ef74eb28d6b77f656c38,2024-11-14_13h39.23.509,Tarea de género gramatical,2024.2.2,Win32,165.0165017,,,,,,,,,,,,,,,,,,,,,,,130.909,131.877,l,0,0.31,,[],[],[],[],[],[],[],0.31,0,131.878,132.374,0,13,13,11,1,2012,MAS,DIS,150,clima,la,l,,,,,,,,,,,,,,,,,
,,,,,,,2ea7826337495084686e4629,66a626ef09d4e21e1a8894ec,6735ef74eb28d6b77f656c38,2024-11-14_13h39.23.509,Tarea de género gramatical,2024.2.2,Win32,165.0165017,,,,,,,,,,,,,,,,,,,,,,,132.375,133.658,l,1,0.627,,[],[],[],[],[],[],[],0.627,1,133.66,134.156,0,14,14,3,1,2004,FEM,AGR,150,venta,la,a,,,,,,,,,,,,,,,,,
,,,,,,,2ea7826337495084686e4629,66a626ef09d4e21e1a8894ec,6735ef74eb28d6b77f656c38,2024-11-14_13h39.23.509,Tarea de género gramatical,2024.2.2,Win32,165.0165017,,,135.261,136.223,space,0.942,,0.888194444,-0.00625,0,0,0,,,,,,,,,,,136.274,137.325,l,1,0.394,,[],[],[],[],[],[],[],0.394,1,137.327,137.822,,,,,,446,FEM,CON,150,bañera,,a,137.822,137.826,0.888194444,-0.00625,0,0,0,,0,0,0,445,1,,,,
,,,,,,,2ea7826337495084686e4629,66a626ef09d4e21e1a8894ec,6735ef74eb28d6b77f656c38,2024-11-14_13h39.23.509,Tarea de género gramatical,2024.2.2,Win32,165.0165017,,,,,,,,,,,,,,,,,,,,,,,137.827,138.859,l,0,0.378,,[],[],[],[],[],[],[],0.378,0,138.86,139.356,,,,,,420,MAS,DIS,150,helado,la,l,139.356,139.356,0.888194444,-0.00625,0,0,0,,0,1,1,419,1,,,,
,,,,,,,2ea7826337495084686e4629,66a626ef09d4e21e1a8894ec,6735ef74eb28d6b77f656c38,2024-11-14_13h39.23.509,Tarea de género gramatical,2024.2.2,Win32,165.0165017,,,,,,,,,,,,,,,,,,,,,,,139.357,140.538,l,1,0.526,,[],[],[],[],[],[],[],0.526,1,140.539,141.035,,,,,,236,FEM,CON,150,deuda,,a,141.036,141.037,0.888194444,-0.00625,0,0,0,,0,2,2,235,1,,,,
,,,,,,,2ea7826337495084686e4629,66a626ef09d4e21e1a8894ec,6735ef74eb28d6b77f656c38,2024-11-14_13h39.23.509,Tarea de género gramatical,2024.2.2,Win32,165.0165017,,,,,,,,,,,,,,,,,,,,,,,141.038,142.047,a,1,0.352,,[],[],[],[],[],[],[],0.352,1,142.047,142.544,,,,,,5,MAS,CON,150,tipo,,l,142.544,142.544,0.888194444,-0.00625,0,0,0,,0,3,3,4,1,,,,
,,,,,,,2ea7826337495084686e4629,66a626ef09d4e21e1a8894ec,6735ef74eb28d6b77f656c38,2024-11-14_13h39.23.509,Tarea de género gramatical,2024.2.2,Win32,165.0165017,,,,,,,,,,,,,,,,,,,,,,,142.545,143.532,l,1,0.329,,[],[],[],[],[],[],[],0.329,1,143.532,144.029,,,,,,75,FEM,DIS,150,caza,el,a,144.029,144.029,0.888194444,-0.00625,0,0,0,,0,4,4,74,1,,,,
,,,,,,,2ea7826337495084686e4629,66a626ef09d4e21e1a8894ec,6735ef74eb28d6b77f656c38,2024-11-14_13h39.23.509,Tarea de género gramatical,2024.2.2,Win32,165.0165017,,,,,,,,,,,,,,,,,,,,,,,144.03,145.029,a,1,0.339,,[],[],[],[],[],[],[],0.339,1,145.029,145.526,,,,,,323,MAS,CON,150,marido,,l,145.526,145.526,0.888194444,-0.00625,0,0,0,,0,5,5,322,1,,,,
,,,,,,,2ea7826337495084686e4629,66a626ef09d4e21e1a8894ec,6735ef74eb28d6b77f656c38,2024-11-14_13h39.23.509,Tarea de género gramatical,2024.2.2,Win32,165.0165017,,,,,,,,,,,,,,,,,,,,,,,145.527,146.422,l,1,0.237,,[],[],[],[],[],[],[],0.237,1,146.422,146.919,,,,,,110,FEM,CON,150,rosa,,a,146.92,146.923,0.888194444,-0.00625,0,0,0,,0,6,6,109,1,,,,
,,,,,,,2ea7826337495084686e4629,66a626ef09d4e21e1a8894ec,6735ef74eb28d6b77f656c38,2024-11-14_13h39.23.509,Tarea de género gramatical,2024.2.2,Win32,165.0165017,,,,,,,,,,,,,,,,,,,,,,,146.923,147.877,a,1,0.297,,[],[],[],[],[],[],[],0.297,1,147.877,148.374,,,,,,202,MAS,AGR,150,honor,el,l,148.374,148.374,0.888194444,-0.00625,0,0,0,,0,7,7,201,1,,,,
,,,,,,,2ea7826337495084686e4629,66a626ef09d4e21e1a8894ec,6735ef74eb28d6b77f656c38,2024-11-14_13h39.23.509,Tarea de género gramatical,2024.2.2,Win32,165.0165017,,,,,,,,,,,,,,,,,,,,,,,148.375,149.459,l,0,0.427,,[],[],[],[],[],[],[],0.427,0,149.461,149.956,,,,,,408,MAS,DIS,150,cheque,la,l,149.957,149.957,0.888194444,-0.00625,0,0,0,,0,8,8,407,1,,,,
,,,,,,,2ea7826337495084686e4629,66a626ef09d4e21e1a8894ec,6735ef74eb28d6b77f656c38,2024-11-14_13h39.23.509,Tarea de género gramatical,2024.2.2,Win32,165.0165017,,,,,,,,,,,,,,,,,,,,,,,149.958,150.999,a,1,0.382,,[],[],[],[],[],[],[],0.382,1,151,151.495,,,,,,293,MAS,CON,150,patio,,l,151.495,151.496,0.888194444,-0.00625,0,0,0,,0,9,9,292,1,,,,
,,,,,,,2ea7826337495084686e4629,66a626ef09d4e21e1a8894ec,6735ef74eb28d6b77f656c38,2024-11-14_13h39.23.509,Tarea de género gramatical,2024.2.2,Win32,165.0165017,,,,,,,,,,,,,,,,,,,,,,,151.497,152.38,l,1,0.226,,[],[],[],[],[],[],[],0.226,1,152.38,152.877,,,,,,93,FEM,DIS,150,lata,el,a,152.878,152.878,0.888194444,-0.00625,0,0,0,,0,10,10,92,1,,,,
,,,,,,,2ea7826337495084686e4629,66a626ef09d4e21e1a8894ec,6735ef74eb28d6b77f656c38,2024-11-14_13h39.23.509,Tarea de género gramatical,2024.2.2,Win32,165.0165017,,,,,,,,,,,,,,,,,,,,,,,152.879,153.823,l,1,0.286,,[],[],[],[],[],[],[],0.286,1,153.823,154.32,,,,,,165,FEM,DIS,150,amiga,el,a,154.32,154.322,0.888194444,-0.00625,0,0,0,,0,11,11,164,1,,,,
,,,,,,,2ea7826337495084686e4629,66a626ef09d4e21e1a8894ec,6735ef74eb28d6b77f656c38,2024-11-14_13h39.23.509,Tarea de género gramatical,2024.2.2,Win32,165.0165017,,,,,,,,,,,,,,,,,,,,,,,154.323,155.314,a,1,0.335,,[],[],[],[],[],[],[],0.335,1,155.314,155.811,,,,,,59,MAS,CON,150,lobo,,l,155.811,155.811,0.888194444,-0.00625,0,0,0,,0,12,12,58,1,,,,
,,,,,,,2ea7826337495084686e4629,66a626ef09d4e21e1a8894ec,6735ef74eb28d6b77f656c38,2024-11-14_13h39.23.509,Tarea de género gramatical,2024.2.2,Win32,165.0165017,,,,,,,,,,,,,,,,,,,,,,,155.812,156.805,l,0,0.333,,[],[],[],[],[],[],[],0.333,0,156.806,157.303,,,,,,418,MAS,AGR,150,pájaro,el,l,157.303,157.303,0.888194444,-0.00625,0,0,0,,0,13,13,417,1,,,,
,,,,,,,2ea7826337495084686e4629,66a626ef09d4e21e1a8894ec,6735ef74eb28d6b77f656c38,2024-11-14_13h39.23.509,Tarea de género gramatical,2024.2.2,Win32,165.0165017,,,,,,,,,,,,,,,,,,,,,,,157.304,158.404,a,0,0.444,,[],[],[],[],[],[],[],0.444,0,158.405,158.902,,,,,,235,FEM,AGR,150,torre,la,a,158.902,158.902,0.888194444,-0.00625,0,0,0,,0,14,14,234,1,,,,
,,,,,,,2ea7826337495084686e4629,66a626ef09d4e21e1a8894ec,6735ef74eb28d6b77f656c38,2024-11-14_13h39.23.509,Tarea de género gramatical,2024.2.2,Win32,165.0165017,,,,,,,,,,,,,,,,,,,,,,,158.903,159.878,l,1,0.316,,[],[],[],[],[],[],[],0.316,1,159.879,160.375,,,,,,19,FEM,AGR,150,niña,la,a,160.376,160.377,0.888194444,-0.00625,0,0,0,,0,15,15,18,1,,,,
,,,,,,,2ea7826337495084686e4629,66a626ef09d4e21e1a8894ec,6735ef74eb28d6b77f656c38,2024-11-14_13h39.23.509,Tarea de género gramatical,2024.2.2,Win32,165.0165017,,,,,,,,,,,,,,,,,,,,,,,160.378,161.429,a,1,0.395,,[],[],[],[],[],[],[],0.395,1,161.429,161.926,,,,,,76,MAS,AGR,150,lujo,el,l,161.926,161.926,0.888194444,-0.00625,0,0,0,,0,16,16,75,1,,,,
,,,,,,,2ea7826337495084686e4629,66a626ef09d4e21e1a8894ec,6735ef74eb28d6b77f656c38,2024-11-14_13h39.23.509,Tarea de género gramatical,2024.2.2,Win32,165.0165017,,,,,,,,,,,,,,,,,,,,,,,161.927,162.872,l,0,0.286,,[],[],[],[],[],[],[],0.286,0,162.873,163.369,,,,,,448,MAS,AGR,150,aceite,el,l,163.369,163.369,0.888194444,-0.00625,0,0,0,,0,17,17,447,1,,,,
,,,,,,,2ea7826337495084686e4629,66a626ef09d4e21e1a8894ec,6735ef74eb28d6b77f656c38,2024-11-14_13h39.23.509,Tarea de género gramatical,2024.2.2,Win32,165.0165017,,,,,,,,,,,,,,,,,,,,,,,163.37,164.362,l,1,0.336,,[],[],[],[],[],[],[],0.336,1,164.363,164.859,,,,,,9,FEM,DIS,150,mamá,el,a,164.859,164.86,0.888194444,-0.00625,0,0,0,,0,18,18,8,1,,,,
,,,,,,,2ea7826337495084686e4629,66a626ef09d4e21e1a8894ec,6735ef74eb28d6b77f656c38,2024-11-14_13h39.23.509,Tarea de género gramatical,2024.2.2,Win32,165.0165017,,,,,,,,,,,,,,,,,,,,,,,164.86,165.883,a,1,0.365,,[],[],[],[],[],[],[],0.365,1,165.884,166.381,,,,,,198,MAS,DIS,150,hotel,la,l,166.381,166.381,0.888194444,-0.00625,0,0,0,,0,19,19,197,1,,,,
,,,,,,,2ea7826337495084686e4629,66a626ef09d4e21e1a8894ec,6735ef74eb28d6b77f656c38,2024-11-14_13h39.23.509,Tarea de género gramatical,2024.2.2,Win32,165.0165017,,,,,,,,,,,,,,,,,,,,,,,166.382,167.605,l,1,0.567,,[],[],[],[],[],[],[],0.567,1,167.606,168.102,,,,,,147,FEM,DIS,150,grúa,el,a,168.103,168.105,0.888194444,-0.00625,0,0,0,,0,20,20,146,1,,,,
,,,,,,,2ea7826337495084686e4629,66a626ef09d4e21e1a8894ec,6735ef74eb28d6b77f656c38,2024-11-14_13h39.23.509,Tarea de género gramatical,2024.2.2,Win32,165.0165017,,,,,,,,,,,,,,,,,,,,,,,168.105,169.108,l,1,0.348,,[],[],[],[],[],[],[],0.348,1,169.108,169.605,,,,,,140,FEM,CON,150,mula,,a,169.605,169.605,0.888194444,-0.00625,0,0,0,,0,21,21,139,1,,,,
,,,,,,,2ea7826337495084686e4629,66a626ef09d4e21e1a8894ec,6735ef74eb28d6b77f656c38,2024-11-14_13h39.23.509,Tarea de género gramatical,2024.2.2,Win32,165.0165017,,,,,,,,,,,,,,,,,,,,,,,169.606,170.588,a,1,0.324,,[],[],[],[],[],[],[],0.324,1,170.589,171.084,,,,,,370,MAS,AGR,150,seguro,el,l,171.085,171.085,0.888194444,-0.00625,0,0,0,,0,22,22,369,1,,,,
,,,,,,,2ea7826337495084686e4629,66a626ef09d4e21e1a8894ec,6735ef74eb28d6b77f656c38,2024-11-14_13h39.23.509,Tarea de género gramatical,2024.2.2,Win32,165.0165017,,,,,,,,,,,,,,,,,,,,,,,171.087,172.102,l,1,0.358,,[],[],[],[],[],[],[],0.358,1,172.102,172.599,,,,,,152,FEM,CON,150,gente,,a,172.599,172.599,0.888194444,-0.00625,0,0,0,,0,23,23,151,1,,,,
,,,,,,,2ea7826337495084686e4629,66a626ef09d4e21e1a8894ec,6735ef74eb28d6b77f656c38,2024-11-14_13h39.23.509,Tarea de género gramatical,2024.2.2,Win32,165.0165017,,,,,,,,,,,,,,,,,,,,,,,172.6,173.708,l,1,0.451,,[],[],[],[],[],[],[],0.451,1,173.708,174.205,,,,,,98,FEM,CON,150,fuga,,a,174.206,174.208,0.888194444,-0.00625,0,0,0,,0,24,24,97,1,,,,
,,,,,,,2ea7826337495084686e4629,66a626ef09d4e21e1a8894ec,6735ef74eb28d6b77f656c38,2024-11-14_13h39.23.509,Tarea de género gramatical,2024.2.2,Win32,165.0165017,,,,,,,,,,,,,,,,,,,,,,,174.209,175.302,a,1,0.438,,[],[],[],[],[],[],[],0.438,1,175.303,175.799,,,,,,209,MAS,CON,150,banco,,l,175.799,175.799,0.888194444,-0.00625,0,0,0,,0,25,25,208,1,,,,
,,,,,,,2ea7826337495084686e4629,66a626ef09d4e21e1a8894ec,6735ef74eb28d6b77f656c38,2024-11-14_13h39.23.509,Tarea de género gramatical,2024.2.2,Win32,165.0165017,,,,,,,,,,,,,,,,,,,,,,,175.8,176.866,a,1,0.41,,[],[],[],[],[],[],[],0.41,1,176.866,177.362,,,,,,280,MAS,AGR,150,salón,el,l,177.363,177.363,0.888194444,-0.00625,0,0,0,,0,26,26,279,1,,,,
,,,,,,,2ea7826337495084686e4629,66a626ef09d4e21e1a8894ec,6735ef74eb28d6b77f656c38,2024-11-14_13h39.23.509,Tarea de género gramatical,2024.2.2,Win32,165.0165017,,,,,,,,,,,,,,,,,,,,,,,177.364,178.387,a,1,0.367,,[],[],[],[],[],[],[],0.367,1,178.388,178.884,,,,,,64,MAS,AGR,150,saco,el,l,178.884,178.885,0.888194444,-0.00625,0,0,0,,0,27,27,63,1,,,,
,,,,,,,2ea7826337495084686e4629,66a626ef09d4e21e1a8894ec,6735ef74eb28d6b77f656c38,2024-11-14_13h39.23.509,Tarea de género gramatical,2024.2.2,Win32,165.0165017,,,,,,,,,,,,,,,,,,,,,,,178.886,179.878,l,1,0.333,,[],[],[],[],[],[],[],0.333,1,179.878,180.375,,,,,,97,FEM,AGR,150,capa,la,a,180.375,180.375,0.888194444,-0.00625,0,0,0,,0,28,28,96,1,,,,
,,,,,,,2ea7826337495084686e4629,66a626ef09d4e21e1a8894ec,6735ef74eb28d6b77f656c38,2024-11-14_13h39.23.509,Tarea de género gramatical,2024.2.2,Win32,165.0165017,,,,,,,,,,,,,,,,,,,,,,,180.376,181.508,l,1,0.475,,[],[],[],[],[],[],[],0.475,1,181.508,182.005,,,,,,343,FEM,AGR,150,trampa,la,a,182.006,182.007,0.888194444,-0.00625,0,0,0,,0,29,29,342,1,,,,
,,,,,,,2ea7826337495084686e4629,66a626ef09d4e21e1a8894ec,6735ef74eb28d6b77f656c38,2024-11-14_13h39.23.509,Tarea de género gramatical,2024.2.2,Win32,165.0165017,,,,,,,,,,,,,,,,,,,,,,,182.008,182.957,a,1,0.291,,[],[],[],[],[],[],[],0.291,1,182.957,183.454,,,,,,174,MAS,DIS,150,perro,la,l,183.454,183.454,0.888194444,-0.00625,0,0,0,,0,30,30,173,1,,,,
,,,,,,,2ea7826337495084686e4629,66a626ef09d4e21e1a8894ec,6735ef74eb28d6b77f656c38,2024-11-14_13h39.23.509,Tarea de género gramatical,2024.2.2,Win32,165.0165017,,,,,,,,,,,,,,,,,,,,,,,183.455,184.387,l,1,0.274,,[],[],[],[],[],[],[],0.274,1,184.387,184.884,,,,,,350,FEM,CON,150,imagen,,a,184.884,184.884,0.888194444,-0.00625,0,0,0,,0,31,31,349,1,,,,
,,,,,,,2ea7826337495084686e4629,66a626ef09d4e21e1a8894ec,6735ef74eb28d6b77f656c38,2024-11-14_13h39.23.509,Tarea de género gramatical,2024.2.2,Win32,165.0165017,,,,,,,,,,,,,,,,,,,,,,,184.885,186.011,l,1,0.468,,[],[],[],[],[],[],[],0.468,1,186.011,186.508,,,,,,321,FEM,DIS,150,comida,el,a,186.509,186.509,0.888194444,-0.005555556,0,0,0,,0,32,32,320,1,,,,
,,,,,,,2ea7826337495084686e4629,66a626ef09d4e21e1a8894ec,6735ef74eb28d6b77f656c38,2024-11-14_13h39.23.509,Tarea de género gramatical,2024.2.2,Win32,165.0165017,,,,,,,,,,,,,,,,,,,,,,,186.51,187.49,a,1,0.324,,[],[],[],[],[],[],[],0.324,1,187.49,187.987,,,,,,28,MAS,AGR,150,club,el,l,187.988,187.99,0.888194444,-0.005555556,0,0,0,,0,33,33,27,1,,,,
,,,,,,,2ea7826337495084686e4629,66a626ef09d4e21e1a8894ec,6735ef74eb28d6b77f656c38,2024-11-14_13h39.23.509,Tarea de género gramatical,2024.2.2,Win32,165.0165017,,,,,,,,,,,,,,,,,,,,,,,187.99,188.866,l,1,0.22,,[],[],[],[],[],[],[],0.22,1,188.866,189.364,,,,,,223,FEM,AGR,150,plata,la,a,189.364,189.364,0.888194444,-0.005555556,0,0,0,,0,34,34,222,1,,,,
,,,,,,,2ea7826337495084686e4629,66a626ef09d4e21e1a8894ec,6735ef74eb28d6b77f656c38,2024-11-14_13h39.23.509,Tarea de género gramatical,2024.2.2,Win32,165.0165017,,,,,,,,,,,,,,,,,,,,,,,189.365,190.236,l,1,0.215,,[],[],[],[],[],[],[],0.215,1,190.236,190.732,,,,,,145,FEM,AGR,150,bota,la,a,190.732,190.733,0.888194444,-0.005555556,0,0,0,,0,35,35,144,1,,,,
,,,,,,,2ea7826337495084686e4629,66a626ef09d4e21e1a8894ec,6735ef74eb28d6b77f656c38,2024-11-14_13h39.23.509,Tarea de género gramatical,2024.2.2,Win32,165.0165017,,,,,,,,,,,,,,,,,,,,,,,190.733,191.702,a,1,0.31,,[],[],[],[],[],[],[],0.31,1,191.702,192.199,,,,,,264,MAS,DIS,150,pollo,la,l,192.199,192.199,0.888194444,-0.005555556,0,0,0,,0,36,36,263,1,,,,
,,,,,,,2ea7826337495084686e4629,66a626ef09d4e21e1a8894ec,6735ef74eb28d6b77f656c38,2024-11-14_13h39.23.509,Tarea de género gramatical,2024.2.2,Win32,165.0165017,,,,,,,,,,,,,,,,,,,,,,,192.201,193.151,l,1,0.29,,[],[],[],[],[],[],[],0.29,1,193.151,193.648,,,,,,49,FEM,AGR,150,piel,la,a,193.648,193.648,0.888194444,-0.005555556,0,0,0,,0,37,37,48,1,,,,
,,,,,,,2ea7826337495084686e4629,66a626ef09d4e21e1a8894ec,6735ef74eb28d6b77f656c38,2024-11-14_13h39.23.509,Tarea de género gramatical,2024.2.2,Win32,165.0165017,,,,,,,,,,,,,,,,,,,,,,,193.649,194.587,a,0,0.281,,[],[],[],[],[],[],[],0.281,0,194.588,195.084,,,,,,206,FEM,CON,150,época,,a,195.085,195.086,0.888194444,-0.005555556,0,0,0,,0,38,38,205,1,,,,
,,,,,,,2ea7826337495084686e4629,66a626ef09d4e21e1a8894ec,6735ef74eb28d6b77f656c38,2024-11-14_13h39.23.509,Tarea de género gramatical,2024.2.2,Win32,165.0165017,,,,,,,,,,,,,,,,,,,,,,,195.087,196.139,a,1,0.396,,[],[],[],[],[],[],[],0.396,1,196.14,196.636,,,,,,252,MAS,DIS,150,viejo,la,l,196.636,196.636,0.888194444,-0.005555556,0,0,0,,0,39,39,251,1,,,,
,,,,,,,2ea7826337495084686e4629,66a626ef09d4e21e1a8894ec,6735ef74eb28d6b77f656c38,2024-11-14_13h39.23.509,Tarea de género gramatical,2024.2.2,Win32,165.0165017,,,,,,,,,,,,,,,,,,,,,,,196.637,197.642,l,1,0.349,,[],[],[],[],[],[],[],0.349,1,197.642,198.139,,,,,,219,FEM,DIS,150,costa,el,a,198.139,198.139,0.888194444,-0.005555556,0,0,0,,0,40,40,218,1,,,,
,,,,,,,2ea7826337495084686e4629,66a626ef09d4e21e1a8894ec,6735ef74eb28d6b77f656c38,2024-11-14_13h39.23.509,Tarea de género gramatical,2024.2.2,Win32,165.0165017,,,,,,,,,,,,,,,,,,,,,,,198.14,199.114,l,1,0.318,,[],[],[],[],[],[],[],0.318,1,199.114,199.611,,,,,,271,FEM,AGR,150,viuda,la,a,199.611,199.612,0.888194444,-0.005555556,0,0,0,,0,41,41,270,1,,,,
,,,,,,,2ea7826337495084686e4629,66a626ef09d4e21e1a8894ec,6735ef74eb28d6b77f656c38,2024-11-14_13h39.23.509,Tarea de género gramatical,2024.2.2,Win32,165.0165017,,,,,,,,,,,,,,,,,,,,,,,199.613,200.539,l,1,0.269,,[],[],[],[],[],[],[],0.269,1,200.539,201.036,,,,,,260,FEM,CON,150,barra,,a,201.037,201.038,0.888194444,-0.005555556,0,0,0,,0,42,42,259,1,,,,
,,,,,,,2ea7826337495084686e4629,66a626ef09d4e21e1a8894ec,6735ef74eb28d6b77f656c38,2024-11-14_13h39.23.509,Tarea de género gramatical,2024.2.2,Win32,165.0165017,,,,,,,,,,,,,,,,,,,,,,,201.039,201.988,a,1,0.293,,[],[],[],[],[],[],[],0.293,1,201.988,202.484,,,,,,250,MAS,AGR,150,cerdo,el,l,202.484,202.484,0.888194444,-0.005555556,0,0,0,,0,43,43,249,1,,,,
,,,,,,,2ea7826337495084686e4629,66a626ef09d4e21e1a8894ec,6735ef74eb28d6b77f656c38,2024-11-14_13h39.23.509,Tarea de género gramatical,2024.2.2,Win32,165.0165017,,,,,,,,,,,,,,,,,,,,,,,202.485,203.539,a,1,0.396,,[],[],[],[],[],[],[],0.396,1,203.539,204.036,,,,,,72,MAS,DIS,150,hoyo,la,l,204.037,204.037,0.888194444,-0.005555556,0,0,0,,0,44,44,71,1,,,,
,,,,,,,2ea7826337495084686e4629,66a626ef09d4e21e1a8894ec,6735ef74eb28d6b77f656c38,2024-11-14_13h39.23.509,Tarea de género gramatical,2024.2.2,Win32,165.0165017,,,,,,,,,,,,,,,,,,,,,,,204.041,204.994,a,1,0.3,,[],[],[],[],[],[],[],0.3,1,204.995,205.491,,,,,,364,MAS,AGR,150,viento,el,l,205.491,205.491,0.888194444,-0.005555556,0,0,0,,0,45,45,363,1,,,,
,,,,,,,2ea7826337495084686e4629,66a626ef09d4e21e1a8894ec,6735ef74eb28d6b77f656c38,2024-11-14_13h39.23.509,Tarea de género gramatical,2024.2.2,Win32,165.0165017,,,,,,,,,,,,,,,,,,,,,,,205.492,206.376,l,0,0.226,,[],[],[],[],[],[],[],0.226,0,206.376,206.872,,,,,,304,MAS,AGR,150,tiempo,el,l,206.872,206.872,0.888194444,-0.005555556,0,0,0,,0,46,46,303,1,,,,
,,,,,,,2ea7826337495084686e4629,66a626ef09d4e21e1a8894ec,6735ef74eb28d6b77f656c38,2024-11-14_13h39.23.509,Tarea de género gramatical,2024.2.2,Win32,165.0165017,,,,,,,,,,,,,,,,,,,,,,,206.874,207.927,a,1,0.394,,[],[],[],[],[],[],[],0.394,1,207.928,208.423,,,,,,52,MAS,AGR,150,lago,el,l,208.425,208.427,0.888194444,-0.005555556,0,0,0,,0,47,47,51,1,,,,
,,,,,,,2ea7826337495084686e4629,66a626ef09d4e21e1a8894ec,6735ef74eb28d6b77f656c38,2024-11-14_13h39.23.509,Tarea de género gramatical,2024.2.2,Win32,165.0165017,,,,,,,,,,,,,,,,,,,,,,,208.428,209.418,l,1,0.337,,[],[],[],[],[],[],[],0.337,1,209.419,209.915,,,,,,302,FEM,CON,150,cabeza,,a,209.915,209.915,0.888194444,-0.005555556,0,0,0,,0,48,48,301,1,,,,
,,,,,,,2ea7826337495084686e4629,66a626ef09d4e21e1a8894ec,6735ef74eb28d6b77f656c38,2024-11-14_13h39.23.509,Tarea de género gramatical,2024.2.2,Win32,165.0165017,,,,,,,,,,,,,,,,,,,,,,,209.916,210.885,a,1,0.31,,[],[],[],[],[],[],[],0.31,1,210.885,211.381,,,,,,419,MAS,CON,150,cuento,,l,211.382,211.382,0.888194444,-0.005555556,0,0,0,,0,49,49,418,1,,,,
,,,,,,,2ea7826337495084686e4629,66a626ef09d4e21e1a8894ec,6735ef74eb28d6b77f656c38,2024-11-14_13h39.23.509,Tarea de género gramatical,2024.2.2,Win32,165.0165017,,,,,,,,,,,,,,,,,,,,,,,211.383,212.383,a,1,0.34,,[],[],[],[],[],[],[],0.34,1,212.383,212.879,,,,,,83,MAS,CON,150,nene,,l,212.879,212.879,0.888194444,-0.005555556,0,0,0,,0,50,50,82,1,,,,
,,,,,,,2ea7826337495084686e4629,66a626ef09d4e21e1a8894ec,6735ef74eb28d6b77f656c38,2024-11-14_13h39.23.509,Tarea de género gramatical,2024.2.2,Win32,165.0165017,,,,,,,,,,,,,,,,,,,,,,,212.88,213.86,l,1,0.324,,[],[],[],[],[],[],[],0.324,1,213.86,214.358,,,,,,50,FEM,CON,150,dama,,a,214.358,214.36,0.888194444,-0.005555556,0,0,0,,0,51,51,49,1,,,,
,,,,,,,2ea7826337495084686e4629,66a626ef09d4e21e1a8894ec,6735ef74eb28d6b77f656c38,2024-11-14_13h39.23.509,Tarea de género gramatical,2024.2.2,Win32,165.0165017,,,,,,,,,,,,,,,,,,,,,,,214.361,215.436,a,1,0.42,,[],[],[],[],[],[],[],0.42,1,215.436,215.934,,,,,,288,MAS,DIS,150,grado,la,l,215.934,215.934,0.888194444,-0.005555556,0,0,0,,0,52,52,287,1,,,,
,,,,,,,2ea7826337495084686e4629,66a626ef09d4e21e1a8894ec,6735ef74eb28d6b77f656c38,2024-11-14_13h39.23.509,Tarea de género gramatical,2024.2.2,Win32,165.0165017,,,,,,,,,,,,,,,,,,,,,,,215.934,216.994,a,1,0.404,,[],[],[],[],[],[],[],0.404,1,216.995,217.491,,,,,,101,MAS,CON,150,giro,,l,217.491,217.491,0.888194444,-0.005555556,0,0,0,,0,53,53,100,1,,,,
,,,,,,,2ea7826337495084686e4629,66a626ef09d4e21e1a8894ec,6735ef74eb28d6b77f656c38,2024-11-14_13h39.23.509,Tarea de género gramatical,2024.2.2,Win32,165.0165017,,,,,,,,,,,,,,,,,,,,,,,217.492,218.642,a,0,0.493,,[],[],[],[],[],[],[],0.493,0,218.643,219.139,,,,,,103,FEM,AGR,150,fama,la,a,219.14,219.14,0.888194444,-0.005555556,0,0,0,,0,54,54,102,1,,,,
,,,,,,,2ea7826337495084686e4629,66a626ef09d4e21e1a8894ec,6735ef74eb28d6b77f656c38,2024-11-14_13h39.23.509,Tarea de género gramatical,2024.2.2,Win32,165.0165017,,,,,,,,,,,,,,,,,,,,,,,219.141,220.237,l,1,0.439,,[],[],[],[],[],[],[],0.439,1,220.237,220.734,,,,,,133,FEM,AGR,150,joya,la,a,220.734,220.734,0.888194444,-0.005555556,0,0,0,,0,55,55,132,1,,,,
,,,,,,,2ea7826337495084686e4629,66a626ef09d4e21e1a8894ec,6735ef74eb28d6b77f656c38,2024-11-14_13h39.23.509,Tarea de género gramatical,2024.2.2,Win32,165.0165017,,,,,,,,,,,,,,,,,,,,,,,220.735,221.703,a,1,0.31,,[],[],[],[],[],[],[],0.31,1,221.704,222.2,,,,,,234,MAS,DIS,150,héroe,la,l,222.201,222.202,0.888194444,-0.005555556,0,0,0,,0,56,56,233,1,,,,
,,,,,,,2ea7826337495084686e4629,66a626ef09d4e21e1a8894ec,6735ef74eb28d6b77f656c38,2024-11-14_13h39.23.509,Tarea de género gramatical,2024.2.2,Win32,165.0165017,,,,,,,,,,,,,,,,,,,,,,,222.203,223.303,a,1,0.444,,[],[],[],[],[],[],[],0.444,1,223.303,223.8,,,,,,148,MAS,AGR,150,surf,el,l,223.8,223.8,0.888194444,-0.005555556,0,0,0,,0,57,57,147,1,,,,
,,,,,,,2ea7826337495084686e4629,66a626ef09d4e21e1a8894ec,6735ef74eb28d6b77f656c38,2024-11-14_13h39.23.509,Tarea de género gramatical,2024.2.2,Win32,165.0165017,,,,,,,,,,,,,,,,,,,,,,,223.801,225.055,a,1,0.594,,[],[],[],[],[],[],[],0.594,1,225.055,225.551,,,,,,286,MAS,AGR,150,reino,el,l,225.551,225.552,0.888194444,-0.005555556,0,0,0,,0,58,58,285,1,,,,
,,,,,,,2ea7826337495084686e4629,66a626ef09d4e21e1a8894ec,6735ef74eb28d6b77f656c38,2024-11-14_13h39.23.509,Tarea de género gramatical,2024.2.2,Win32,165.0165017,,,,,,,,,,,,,,,,,,,,,,,225.553,226.534,a,1,0.323,,[],[],[],[],[],[],[],0.323,1,226.534,227.031,,,,,,262,MAS,AGR,150,video,el,l,227.031,227.031,0.888194444,-0.005555556,0,0,0,,0,59,59,261,1,,,,
,,,,,,,2ea7826337495084686e4629,66a626ef09d4e21e1a8894ec,6735ef74eb28d6b77f656c38,2024-11-14_13h39.23.509,Tarea de género gramatical,2024.2.2,Win32,165.0165017,,,,,,,,,,,,,,,,,,,,,,,227.032,227.97,l,1,0.282,,[],[],[],[],[],[],[],0.282,1,227.97,228.466,,,,,,99,FEM,DIS,150,fase,el,a,228.467,228.469,0.888194444,-0.005555556,0,0,0,,0,60,60,98,1,,,,
,,,,,,,2ea7826337495084686e4629,66a626ef09d4e21e1a8894ec,6735ef74eb28d6b77f656c38,2024-11-14_13h39.23.509,Tarea de género gramatical,2024.2.2,Win32,165.0165017,,,,,,,,,,,,,,,,,,,,,,,228.469,229.479,a,1,0.352,,[],[],[],[],[],[],[],0.352,1,229.48,229.976,,,,,,154,MAS,AGR,150,padre,el,l,229.976,229.976,0.888194444,-0.005555556,0,0,0,,0,61,61,153,1,,,,
,,,,,,,2ea7826337495084686e4629,66a626ef09d4e21e1a8894ec,6735ef74eb28d6b77f656c38,2024-11-14_13h39.23.509,Tarea de género gramatical,2024.2.2,Win32,165.0165017,,,,,,,,,,,,,,,,,,,,,,,229.977,230.94,l,1,0.302,,[],[],[],[],[],[],[],0.302,1,230.94,231.436,,,,,,62,FEM,CON,150,sopa,,a,231.437,231.437,0.888194444,-0.005555556,0,0,0,,0,62,62,61,1,,,,
,,,,,,,2ea7826337495084686e4629,66a626ef09d4e21e1a8894ec,6735ef74eb28d6b77f656c38,2024-11-14_13h39.23.509,Tarea de género gramatical,2024.2.2,Win32,165.0165017,,,,,,,,,,,,,,,,,,,,,,,231.438,232.357,l,1,0.261,,[],[],[],[],[],[],[],0.261,1,232.359,232.854,,,,,,7,FEM,AGR,150,hora,la,a,232.854,232.855,0.888194444,-0.005555556,0,0,0,,0,63,63,6,1,,,,
,,,,,,,2ea7826337495084686e4629,66a626ef09d4e21e1a8894ec,6735ef74eb28d6b77f656c38,2024-11-14_13h39.23.509,Tarea de género gramatical,2024.2.2,Win32,165.0165017,,,,,,,,,,,,,,,,,,,,,,,232.856,233.812,a,1,0.297,,[],[],[],[],[],[],[],0.297,1,233.813,234.309,,,,,,305,MAS,CON,150,hombre,,l,234.309,234.31,0.888194444,-0.005555556,0,0,0,,0,64,64,304,1,,,,
,,,,,,,2ea7826337495084686e4629,66a626ef09d4e21e1a8894ec,6735ef74eb28d6b77f656c38,2024-11-14_13h39.23.509,Tarea de género gramatical,2024.2.2,Win32,165.0165017,,,,,,,,,,,,,,,,,,,,,,,234.311,235.316,l,1,0.347,,[],[],[],[],[],[],[],0.347,1,235.316,235.813,,,,,,385,FEM,AGR,150,muñeca,la,a,235.814,235.815,0.888194444,-0.005555556,0,0,0,,0,65,65,384,1,,,,
,,,,,,,2ea7826337495084686e4629,66a626ef09d4e21e1a8894ec,6735ef74eb28d6b77f656c38,2024-11-14_13h39.23.509,Tarea de género gramatical,2024.2.2,Win32,165.0165017,,,,,,,,,,,,,,,,,,,,,,,235.816,236.764,a,1,0.292,,[],[],[],[],[],[],[],0.292,1,236.764,237.261,,,,,,258,MAS,DIS,150,polvo,la,l,237.261,237.261,0.888194444,-0.005555556,0,0,0,,0,66,66,257,1,,,,
,,,,,,,2ea7826337495084686e4629,66a626ef09d4e21e1a8894ec,6735ef74eb28d6b77f656c38,2024-11-14_13h39.23.509,Tarea de género gramatical,2024.2.2,Win32,165.0165017,,,,,,,,,,,,,,,,,,,,,,,237.263,238.286,a,1,0.365,,[],[],[],[],[],[],[],0.365,1,238.287,238.788,,,,,,203,MAS,CON,150,novio,,l,238.789,238.789,0.888194444,-0.005555556,0,0,0,,0,67,67,202,1,,,,
,,,,,,,2ea7826337495084686e4629,66a626ef09d4e21e1a8894ec,6735ef74eb28d6b77f656c38,2024-11-14_13h39.23.509,Tarea de género gramatical,2024.2.2,Win32,165.0165017,,,,,,,,,,,,,,,,,,,,,,,238.791,239.722,l,1,0.277,,[],[],[],[],[],[],[],0.277,1,239.722,240.219,,,,,,356,FEM,CON,150,piedra,,a,240.219,240.219,0.888194444,-0.005555556,0,0,0,,0,68,68,355,1,,,,
,,,,,,,2ea7826337495084686e4629,66a626ef09d4e21e1a8894ec,6735ef74eb28d6b77f656c38,2024-11-14_13h39.23.509,Tarea de género gramatical,2024.2.2,Win32,165.0165017,,,,,,,,,,,,,,,,,,,,,,,240.22,241.109,a,1,0.23,,[],[],[],[],[],[],[],0.23,1,241.11,241.606,,,,,,53,MAS,CON,150,vaso,,l,241.608,241.609,0.888194444,-0.005555556,0,0,0,,0,69,69,52,1,,,,
,,,,,,,2ea7826337495084686e4629,66a626ef09d4e21e1a8894ec,6735ef74eb28d6b77f656c38,2024-11-14_13h39.23.509,Tarea de género gramatical,2024.2.2,Win32,165.0165017,,,,,,,,,,,,,,,,,,,,,,,241.61,242.455,l,1,0.189,,[],[],[],[],[],[],[],0.189,1,242.455,242.952,,,,,,122,FEM,CON,150,loca,,a,242.952,242.952,0.888194444,-0.005555556,0,0,0,,0,70,70,121,1,,,,
,,,,,,,2ea7826337495084686e4629,66a626ef09d4e21e1a8894ec,6735ef74eb28d6b77f656c38,2024-11-14_13h39.23.509,Tarea de género gramatical,2024.2.2,Win32,165.0165017,,,,,,,,,,,,,,,,,,,,,,,242.953,243.851,a,1,0.242,,[],[],[],[],[],[],[],0.242,1,243.851,244.352,,,,,,376,MAS,AGR,150,efecto,el,l,244.352,244.352,0.888194444,-0.005555556,0,0,0,,0,71,71,375,1,,,,
,,,,,,,2ea7826337495084686e4629,66a626ef09d4e21e1a8894ec,6735ef74eb28d6b77f656c38,2024-11-14_13h39.23.509,Tarea de género gramatical,2024.2.2,Win32,165.0165017,,,,,,,,,,,,,,,,,,,,,,,244.353,245.358,l,0,0.347,,[],[],[],[],[],[],[],0.347,0,245.359,245.855,,,,,,42,MAS,DIS,150,show,la,l,245.855,245.855,0.888194444,-0.005555556,0,0,0,,0,72,72,41,1,,,,
,,,,,,,2ea7826337495084686e4629,66a626ef09d4e21e1a8894ec,6735ef74eb28d6b77f656c38,2024-11-14_13h39.23.509,Tarea de género gramatical,2024.2.2,Win32,165.0165017,,,,,,,,,,,,,,,,,,,,,,,245.857,246.788,a,1,0.275,,[],[],[],[],[],[],[],0.275,1,246.79,247.285,,,,,,300,MAS,DIS,150,túnel,la,l,247.285,247.285,0.888194444,-0.005555556,0,0,0,,0,73,73,299,1,,,,
,,,,,,,2ea7826337495084686e4629,66a626ef09d4e21e1a8894ec,6735ef74eb28d6b77f656c38,2024-11-14_13h39.23.509,Tarea de género gramatical,2024.2.2,Win32,165.0165017,,,,,,,,,,,,,,,,,,,,,,,247.286,248.274,l,1,0.331,,[],[],[],[],[],[],[],0.331,1,248.274,248.77,,,,,,399,FEM,DIS,150,charla,el,a,248.771,248.772,0.888194444,-0.005555556,0,0,0,,0,74,74,398,1,,,,
,,,,,,,2ea7826337495084686e4629,66a626ef09d4e21e1a8894ec,6735ef74eb28d6b77f656c38,2024-11-14_13h39.23.509,Tarea de género gramatical,2024.2.2,Win32,165.0165017,,,,,,,,,,,,,,,,,,,,,,,248.773,249.733,a,1,0.304,,[],[],[],[],[],[],[],0.304,1,249.734,250.231,,,,,,274,MAS,AGR,150,motor,el,l,250.231,250.231,0.888194444,-0.005555556,0,0,0,,0,75,75,273,1,,,,
,,,,,,,2ea7826337495084686e4629,66a626ef09d4e21e1a8894ec,6735ef74eb28d6b77f656c38,2024-11-14_13h39.23.509,Tarea de género gramatical,2024.2.2,Win32,165.0165017,,,,,,,,,,,,,,,,,,,,,,,250.232,251.207,a,1,0.317,,[],[],[],[],[],[],[],0.317,1,251.207,251.704,,,,,,167,MAS,CON,150,juego,,l,251.704,251.704,0.888194444,-0.005555556,0,0,0,,0,76,76,166,1,,,,
,,,,,,,2ea7826337495084686e4629,66a626ef09d4e21e1a8894ec,6735ef74eb28d6b77f656c38,2024-11-14_13h39.23.509,Tarea de género gramatical,2024.2.2,Win32,165.0165017,,,,,,,,,,,,,,,,,,,,,,,251.705,252.565,l,0,0.202,,[],[],[],[],[],[],[],0.202,0,252.565,253.061,,,,,,179,MAS,CON,150,viaje,,l,253.061,253.062,0.888194444,-0.005555556,0,0,0,,0,77,77,178,1,,,,
,,,,,,,2ea7826337495084686e4629,66a626ef09d4e21e1a8894ec,6735ef74eb28d6b77f656c38,2024-11-14_13h39.23.509,Tarea de género gramatical,2024.2.2,Win32,165.0165017,,,,,,,,,,,,,,,,,,,,,,,253.063,254.146,l,1,0.427,,[],[],[],[],[],[],[],0.427,1,254.147,254.643,,,,,,157,FEM,AGR,150,madre,la,a,254.644,254.645,0.888194444,-0.005555556,0,0,0,,0,78,78,156,1,,,,
,,,,,,,2ea7826337495084686e4629,66a626ef09d4e21e1a8894ec,6735ef74eb28d6b77f656c38,2024-11-14_13h39.23.509,Tarea de género gramatical,2024.2.2,Win32,165.0165017,,,,,,,,,,,,,,,,,,,,,,,254.646,255.764,l,1,0.462,,[],[],[],[],[],[],[],0.462,1,255.764,256.261,,,,,,397,FEM,AGR,150,cuerda,la,a,256.261,256.261,0.888194444,-0.005555556,0,0,0,,0,79,79,396,1,,,,
,,,,,,,2ea7826337495084686e4629,66a626ef09d4e21e1a8894ec,6735ef74eb28d6b77f656c38,2024-11-14_13h39.23.509,Tarea de género gramatical,2024.2.2,Win32,165.0165017,,,,,,,,,,,,,,,,,,,,,,,256.262,257.292,a,1,0.372,,[],[],[],[],[],[],[],0.372,1,257.292,257.789,,,,,,162,MAS,DIS,150,miedo,la,l,257.789,257.789,0.888194444,-0.005555556,0,0,0,,0,80,80,161,1,,,,
,,,,,,,2ea7826337495084686e4629,66a626ef09d4e21e1a8894ec,6735ef74eb28d6b77f656c38,2024-11-14_13h39.23.509,Tarea de género gramatical,2024.2.2,Win32,165.0165017,,,,,,,,,,,,,,,,,,,,,,,257.79,258.794,l,1,0.347,,[],[],[],[],[],[],[],0.347,1,258.795,259.291,,,,,,368,FEM,CON,150,gracia,,a,259.291,259.291,0.888194444,-0.005555556,0,0,0,,0,81,81,367,1,,,,
,,,,,,,2ea7826337495084686e4629,66a626ef09d4e21e1a8894ec,6735ef74eb28d6b77f656c38,2024-11-14_13h39.23.509,Tarea de género gramatical,2024.2.2,Win32,165.0165017,,,,,,,,,,,,,,,,,,,,,,,259.293,260.256,l,1,0.302,,[],[],[],[],[],[],[],0.302,1,260.256,260.752,,,,,,225,FEM,DIS,150,pieza,el,a,260.752,260.752,0.888194444,-0.005555556,0,0,0,,0,82,82,224,1,,,,
,,,,,,,2ea7826337495084686e4629,66a626ef09d4e21e1a8894ec,6735ef74eb28d6b77f656c38,2024-11-14_13h39.23.509,Tarea de género gramatical,2024.2.2,Win32,165.0165017,,,,,,,,,,,,,,,,,,,,,,,260.753,261.679,a,1,0.267,,[],[],[],[],[],[],[],0.267,1,261.68,262.176,,,,,,215,MAS,CON,150,hueso,,l,262.177,262.178,0.888194444,-0.005555556,0,0,0,,0,83,83,214,1,,,,
,,,,,,,2ea7826337495084686e4629,66a626ef09d4e21e1a8894ec,6735ef74eb28d6b77f656c38,2024-11-14_13h39.23.509,Tarea de género gramatical,2024.2.2,Win32,165.0165017,,,,,,,,,,,,,,,,,,,,,,,262.179,263.11,a,1,0.272,,[],[],[],[],[],[],[],0.272,1,263.11,263.607,,,,,,389,MAS,CON,150,tamaño,,l,263.607,263.607,0.888194444,-0.005555556,0,0,0,,0,84,84,388,1,,,,
,,,,,,,2ea7826337495084686e4629,66a626ef09d4e21e1a8894ec,6735ef74eb28d6b77f656c38,2024-11-14_13h39.23.509,Tarea de género gramatical,2024.2.2,Win32,165.0165017,,,,,,,,,,,,,,,,,,,,,,,263.608,264.516,l,0,0.247,,[],[],[],[],[],[],[],0.247,0,264.517,265.013,,,,,,138,MAS,DIS,150,luto,la,l,265.013,265.013,0.888194444,-0.005555556,0,0,0,,0,85,85,137,1,,,,
,,,,,,,2ea7826337495084686e4629,66a626ef09d4e21e1a8894ec,6735ef74eb28d6b77f656c38,2024-11-14_13h39.23.509,Tarea de género gramatical,2024.2.2,Win32,165.0165017,,,,,,,,,,,,,,,,,,,,,,,265.014,266.007,a,0,0.335,,[],[],[],[],[],[],[],0.335,0,266.007,266.504,,,,,,381,FEM,DIS,150,bebida,el,a,266.504,266.504,0.888194444,-0.005555556,0,0,0,,0,86,86,380,1,,,,
,,,,,,,2ea7826337495084686e4629,66a626ef09d4e21e1a8894ec,6735ef74eb28d6b77f656c38,2024-11-14_13h39.23.509,Tarea de género gramatical,2024.2.2,Win32,165.0165017,,,,,,,,,,,,,,,,,,,,,,,266.506,267.686,a,1,0.521,,[],[],[],[],[],[],[],0.521,1,267.687,268.182,,,,,,334,MAS,AGR,150,ataque,el,l,268.183,268.185,0.888194444,-0.005555556,0,0,0,,0,87,87,333,1,,,,
,,,,,,,2ea7826337495084686e4629,66a626ef09d4e21e1a8894ec,6735ef74eb28d6b77f656c38,2024-11-14_13h39.23.509,Tarea de género gramatical,2024.2.2,Win32,165.0165017,,,,,,,,,,,,,,,,,,,,,,,268.185,269.147,a,1,0.306,,[],[],[],[],[],[],[],0.306,1,269.147,269.644,,,,,,406,MAS,AGR,150,premio,el,l,269.644,269.644,0.888194444,-0.005555556,0,0,0,,0,88,88,405,1,,,,
,,,,,,,2ea7826337495084686e4629,66a626ef09d4e21e1a8894ec,6735ef74eb28d6b77f656c38,2024-11-14_13h39.23.509,Tarea de género gramatical,2024.2.2,Win32,165.0165017,,,,,,,,,,,,,,,,,,,,,,,269.645,270.614,l,1,0.31,,[],[],[],[],[],[],[],0.31,1,270.614,271.116,,,,,,44,FEM,CON,150,zona,,a,271.116,271.117,0.888194444,-0.005555556,0,0,0,,0,89,89,43,1,,,,
,,,,,,,2ea7826337495084686e4629,66a626ef09d4e21e1a8894ec,6735ef74eb28d6b77f656c38,2024-11-14_13h39.23.509,Tarea de género gramatical,2024.2.2,Win32,165.0165017,,,,,,,,,,,,,,,,,,,,,,,271.118,272.148,l,0,0.372,,[],[],[],[],[],[],[],0.372,0,272.15,272.649,,,,,,318,MAS,DIS,150,pueblo,la,l,272.65,272.65,0.888194444,-0.005555556,0,0,0,,0,90,90,317,1,,,,
,,,,,,,2ea7826337495084686e4629,66a626ef09d4e21e1a8894ec,6735ef74eb28d6b77f656c38,2024-11-14_13h39.23.509,Tarea de género gramatical,2024.2.2,Win32,165.0165017,,,,,,,,,,,,,,,,,,,,,,,272.652,273.668,l,1,0.359,,[],[],[],[],[],[],[],0.359,1,273.669,274.165,,,,,,183,FEM,DIS,150,llave,el,a,274.165,274.165,0.888194444,-0.005555556,0,0,0,,0,91,91,182,1,,,,
,,,,,,,2ea7826337495084686e4629,66a626ef09d4e21e1a8894ec,6735ef74eb28d6b77f656c38,2024-11-14_13h39.23.509,Tarea de género gramatical,2024.2.2,Win32,165.0165017,,,,,,,,,,,,,,,,,,,,,,,274.166,275.213,l,1,0.39,,[],[],[],[],[],[],[],0.39,1,275.213,275.71,,,,,,445,FEM,AGR,150,bondad,la,a,275.712,275.714,0.888194444,-0.005555556,0,0,0,,0,92,92,444,1,,,,
,,,,,,,2ea7826337495084686e4629,66a626ef09d4e21e1a8894ec,6735ef74eb28d6b77f656c38,2024-11-14_13h39.23.509,Tarea de género gramatical,2024.2.2,Win32,165.0165017,,,,,,,,,,,,,,,,,,,,,,,275.714,276.85,a,1,0.483,,[],[],[],[],[],[],[],0.483,1,276.851,277.347,,,,,,114,MAS,DIS,150,menú,la,l,277.347,277.347,0.888194444,-0.005555556,0,0,0,,0,93,93,113,1,,,,
,,,,,,,2ea7826337495084686e4629,66a626ef09d4e21e1a8894ec,6735ef74eb28d6b77f656c38,2024-11-14_13h39.23.509,Tarea de género gramatical,2024.2.2,Win32,165.0165017,,,,,,,,,,,,,,,,,,,,,,,277.348,278.347,a,1,0.343,,[],[],[],[],[],[],[],0.343,1,278.347,278.843,,,,,,388,MAS,AGR,150,empleo,el,l,278.843,278.843,0.888194444,-0.005555556,0,0,0,,0,94,94,387,1,,,,
,,,,,,,2ea7826337495084686e4629,66a626ef09d4e21e1a8894ec,6735ef74eb28d6b77f656c38,2024-11-14_13h39.23.509,Tarea de género gramatical,2024.2.2,Win32,165.0165017,,,,,,,,,,,,,,,,,,,,,,,278.844,279.844,a,1,0.341,,[],[],[],[],[],[],[],0.341,1,279.844,280.341,,,,,,401,MAS,CON,150,abrigo,,l,280.341,280.341,0.888194444,-0.005555556,0,0,0,,0,95,95,400,1,,,,
,,,,,,,2ea7826337495084686e4629,66a626ef09d4e21e1a8894ec,6735ef74eb28d6b77f656c38,2024-11-14_13h39.23.509,Tarea de género gramatical,2024.2.2,Win32,165.0165017,,,,,,,,,,,,,,,,,,,,,,,280.342,281.317,l,1,0.314,,[],[],[],[],[],[],[],0.314,1,281.317,281.814,,,,,,375,FEM,DIS,150,cadena,el,a,281.815,281.816,0.888194444,-0.005555556,0,0,0,,0,96,96,374,1,,,,
,,,,,,,2ea7826337495084686e4629,66a626ef09d4e21e1a8894ec,6735ef74eb28d6b77f656c38,2024-11-14_13h39.23.509,Tarea de género gramatical,2024.2.2,Win32,165.0165017,,,,,,,,,,,,,,,,,,,,,,,281.817,282.849,l,1,0.379,,[],[],[],[],[],[],[],0.379,1,282.85,283.346,,,,,,272,FEM,CON,150,oreja,,a,283.346,283.347,0.888194444,-0.005555556,0,0,0,,0,97,97,271,1,,,,
,,,,,,,2ea7826337495084686e4629,66a626ef09d4e21e1a8894ec,6735ef74eb28d6b77f656c38,2024-11-14_13h39.23.509,Tarea de género gramatical,2024.2.2,Win32,165.0165017,,,,,,,,,,,,,,,,,,,,,,,283.348,284.268,l,1,0.262,,[],[],[],[],[],[],[],0.262,1,284.268,284.765,,,,,,241,FEM,AGR,150,pasta,la,a,284.765,284.766,0.888194444,-0.005555556,0,0,0,,0,98,98,240,1,,,,
,,,,,,,2ea7826337495084686e4629,66a626ef09d4e21e1a8894ec,6735ef74eb28d6b77f656c38,2024-11-14_13h39.23.509,Tarea de género gramatical,2024.2.2,Win32,165.0165017,,,,,,,,,,,,,,,,,,,,,,,284.767,285.686,l,1,0.26,,[],[],[],[],[],[],[],0.26,1,285.687,286.183,,,,,,158,FEM,CON,150,chica,,a,286.183,286.183,0.888194444,-0.005555556,0,0,0,,0,99,99,157,1,,,,
,,,,,,,2ea7826337495084686e4629,66a626ef09d4e21e1a8894ec,6735ef74eb28d6b77f656c38,2024-11-14_13h39.23.509,Tarea de género gramatical,2024.2.2,Win32,165.0165017,,,,,,,,,,,,,,,,,,,,,,,286.184,287.075,l,0,0.235,,[],[],[],[],[],[],[],0.235,0,287.075,287.571,,,,,,144,MAS,DIS,150,amor,la,l,287.571,287.571,0.888194444,-0.005555556,0,0,0,,0,100,100,143,1,,,,
,,,,,,,2ea7826337495084686e4629,66a626ef09d4e21e1a8894ec,6735ef74eb28d6b77f656c38,2024-11-14_13h39.23.509,Tarea de género gramatical,2024.2.2,Win32,165.0165017,,,,,,,,,,,,,,,,,,,,,,,287.573,288.698,a,1,0.471,,[],[],[],[],[],[],[],0.471,1,288.699,289.195,,,,,,346,MAS,AGR,150,juicio,el,l,289.196,289.197,0.888194444,-0.005555556,0,0,0,,0,101,101,345,1,,,,
,,,,,,,2ea7826337495084686e4629,66a626ef09d4e21e1a8894ec,6735ef74eb28d6b77f656c38,2024-11-14_13h39.23.509,Tarea de género gramatical,2024.2.2,Win32,165.0165017,,,,,,,,,,,,,,,,,,,,,,,289.198,290.165,l,1,0.309,,[],[],[],[],[],[],[],0.309,1,290.165,290.662,,,,,,265,FEM,AGR,150,rueda,la,a,290.662,290.663,0.888194444,-0.005555556,0,0,0,,0,102,102,264,1,,,,
,,,,,,,2ea7826337495084686e4629,66a626ef09d4e21e1a8894ec,6735ef74eb28d6b77f656c38,2024-11-14_13h39.23.509,Tarea de género gramatical,2024.2.2,Win32,165.0165017,,,,,,,,,,,,,,,,,,,,,,,290.664,291.698,a,1,0.379,,[],[],[],[],[],[],[],0.379,1,291.698,292.195,,,,,,60,MAS,DIS,150,tono,la,l,292.195,292.195,0.888194444,-0.005555556,0,0,0,,0,103,103,59,1,,,,
,,,,,,,2ea7826337495084686e4629,66a626ef09d4e21e1a8894ec,6735ef74eb28d6b77f656c38,2024-11-14_13h39.23.509,Tarea de género gramatical,2024.2.2,Win32,165.0165017,,,,,,,,,,,,,,,,,,,,,,,292.196,293.19,a,1,0.335,,[],[],[],[],[],[],[],0.335,1,293.19,293.686,,,,,,197,MAS,CON,150,avión,,l,293.686,293.687,0.888194444,-0.005555556,0,0,0,,0,104,104,196,1,,,,
,,,,,,,2ea7826337495084686e4629,66a626ef09d4e21e1a8894ec,6735ef74eb28d6b77f656c38,2024-11-14_13h39.23.509,Tarea de género gramatical,2024.2.2,Win32,165.0165017,,,,,,,,,,,,,,,,,,,,,,,293.688,294.584,l,1,0.237,,[],[],[],[],[],[],[],0.237,1,294.584,295.08,,,,,,273,FEM,DIS,150,tarta,el,a,295.081,295.082,0.888194444,-0.005555556,0,0,0,,0,105,105,272,1,,,,
,,,,,,,2ea7826337495084686e4629,66a626ef09d4e21e1a8894ec,6735ef74eb28d6b77f656c38,2024-11-14_13h39.23.509,Tarea de género gramatical,2024.2.2,Win32,165.0165017,,,,,,,,,,,,,,,,,,,,,,,295.084,296.117,a,1,0.377,,[],[],[],[],[],[],[],0.377,1,296.117,296.614,,,,,,402,MAS,DIS,150,ladrón,la,l,296.614,296.614,0.888194444,-0.005555556,0,0,0,,0,106,106,401,1,,,,
,,,,,,,2ea7826337495084686e4629,66a626ef09d4e21e1a8894ec,6735ef74eb28d6b77f656c38,2024-11-14_13h39.23.509,Tarea de género gramatical,2024.2.2,Win32,165.0165017,,,,,,,,,,,,,,,,,,,,,,,296.615,297.589,a,1,0.315,,[],[],[],[],[],[],[],0.315,1,297.589,298.086,,,,,,106,MAS,AGR,150,test,el,l,298.086,298.086,0.888194444,-0.005555556,0,0,0,,0,107,107,105,1,,,,
,,,,,,,2ea7826337495084686e4629,66a626ef09d4e21e1a8894ec,6735ef74eb28d6b77f656c38,2024-11-14_13h39.23.509,Tarea de género gramatical,2024.2.2,Win32,165.0165017,,,,,,,,,,,,,,,,,,,,,,,298.088,299.02,l,1,0.274,,[],[],[],[],[],[],[],0.274,1,299.02,299.517,,,,,,51,FEM,DIS,150,bala,el,a,299.517,299.517,0.888194444,-0.005555556,0,0,0,,0,108,108,50,1,,,,
,,,,,,,2ea7826337495084686e4629,66a626ef09d4e21e1a8894ec,6735ef74eb28d6b77f656c38,2024-11-14_13h39.23.509,Tarea de género gramatical,2024.2.2,Win32,165.0165017,,,,,,,,,,,,,,,,,,,,,,,299.518,300.56,l,1,0.383,,[],[],[],[],[],[],[],0.383,1,300.56,301.056,,,,,,224,FEM,CON,150,arena,,a,301.056,301.056,0.888194444,-0.005555556,0,0,0,,0,109,109,223,1,,,,
,,,,,,,2ea7826337495084686e4629,66a626ef09d4e21e1a8894ec,6735ef74eb28d6b77f656c38,2024-11-14_13h39.23.509,Tarea de género gramatical,2024.2.2,Win32,165.0165017,,,,,,,,,,,,,,,,,,,,,,,301.058,302.171,l,1,0.456,,[],[],[],[],[],[],[],0.456,1,302.171,302.669,,,,,,189,FEM,DIS,150,pista,el,a,302.672,302.674,0.888194444,-0.005555556,0,0,0,,0,110,110,188,1,,,,
,,,,,,,2ea7826337495084686e4629,66a626ef09d4e21e1a8894ec,6735ef74eb28d6b77f656c38,2024-11-14_13h39.23.509,Tarea de género gramatical,2024.2.2,Win32,165.0165017,,,,,,,,,,,,,,,,,,,,,,,302.676,303.686,l,1,0.352,,[],[],[],[],[],[],[],0.352,1,303.688,304.183,,,,,,195,FEM,DIS,150,pared,el,a,304.183,304.183,0.888194444,-0.005555556,0,0,0,,0,111,111,194,1,,,,
,,,,,,,2ea7826337495084686e4629,66a626ef09d4e21e1a8894ec,6735ef74eb28d6b77f656c38,2024-11-14_13h39.23.509,Tarea de género gramatical,2024.2.2,Win32,165.0165017,,,,,,,,,,,,,,,,,,,,,,,304.185,305.159,l,1,0.315,,[],[],[],[],[],[],[],0.315,1,305.159,305.656,,,,,,380,FEM,CON,150,madera,,a,305.657,305.657,0.888194444,-0.005555556,0,0,0,,0,112,112,379,1,,,,
,,,,,,,2ea7826337495084686e4629,66a626ef09d4e21e1a8894ec,6735ef74eb28d6b77f656c38,2024-11-14_13h39.23.509,Tarea de género gramatical,2024.2.2,Win32,165.0165017,,,,,,,,,,,,,,,,,,,,,,,305.658,306.663,a,1,0.344,,[],[],[],[],[],[],[],0.344,1,306.663,307.159,,,,,,430,MAS,AGR,150,título,el,l,307.159,307.16,0.888194444,-0.005555556,0,0,0,,0,113,113,429,1,,,,
,,,,,,,2ea7826337495084686e4629,66a626ef09d4e21e1a8894ec,6735ef74eb28d6b77f656c38,2024-11-14_13h39.23.509,Tarea de género gramatical,2024.2.2,Win32,165.0165017,,,,,,,,,,,,,,,,,,,,,,,307.161,308.111,l,1,0.293,,[],[],[],[],[],[],[],0.293,1,308.111,308.608,,,,,,153,FEM,DIS,150,mujer,el,a,308.609,308.61,0.888194444,-0.005555556,0,0,0,,0,114,114,152,1,,,,
,,,,,,,2ea7826337495084686e4629,66a626ef09d4e21e1a8894ec,6735ef74eb28d6b77f656c38,2024-11-14_13h39.23.509,Tarea de género gramatical,2024.2.2,Win32,165.0165017,,,,,,,,,,,,,,,,,,,,,,,308.611,309.662,l,1,0.395,,[],[],[],[],[],[],[],0.395,1,309.662,310.16,,,,,,296,FEM,CON,150,feria,,a,310.16,310.16,0.888194444,-0.005555556,0,0,0,,0,115,115,295,1,,,,
,,,,,,,2ea7826337495084686e4629,66a626ef09d4e21e1a8894ec,6735ef74eb28d6b77f656c38,2024-11-14_13h39.23.509,Tarea de género gramatical,2024.2.2,Win32,165.0165017,,,,,,,,,,,,,,,,,,,,,,,310.161,311.171,a,1,0.354,,[],[],[],[],[],[],[],0.354,1,311.172,311.668,,,,,,24,MAS,DIS,150,voto,la,l,311.668,311.669,0.888194444,-0.005555556,0,0,0,,0,116,116,23,1,,,,
,,,,,,,2ea7826337495084686e4629,66a626ef09d4e21e1a8894ec,6735ef74eb28d6b77f656c38,2024-11-14_13h39.23.509,Tarea de género gramatical,2024.2.2,Win32,165.0165017,,,,,,,,,,,,,,,,,,,,,,,311.67,312.62,a,1,0.292,,[],[],[],[],[],[],[],0.292,1,312.62,313.117,,,,,,443,MAS,CON,150,templo,,l,313.117,313.117,0.888194444,-0.005555556,0,0,0,,0,117,117,442,1,,,,
,,,,,,,2ea7826337495084686e4629,66a626ef09d4e21e1a8894ec,6735ef74eb28d6b77f656c38,2024-11-14_13h39.23.509,Tarea de género gramatical,2024.2.2,Win32,165.0165017,,,,,,,,,,,,,,,,,,,,,,,313.118,314.051,l,1,0.276,,[],[],[],[],[],[],[],0.276,1,314.051,314.548,,,,,,201,FEM,DIS,150,leche,el,a,314.548,314.548,0.888194444,-0.005555556,0,0,0,,0,118,118,200,1,,,,
,,,,,,,2ea7826337495084686e4629,66a626ef09d4e21e1a8894ec,6735ef74eb28d6b77f656c38,2024-11-14_13h39.23.509,Tarea de género gramatical,2024.2.2,Win32,165.0165017,,,,,,,,,,,,,,,,,,,,,,,314.549,315.517,a,0,0.31,,[],[],[],[],[],[],[],0.31,0,315.519,316.014,,,,,,278,FEM,CON,150,presa,,a,316.015,316.016,0.888194444,-0.005555556,0,0,0,,0,119,119,277,1,,,,
,,,,,,,2ea7826337495084686e4629,66a626ef09d4e21e1a8894ec,6735ef74eb28d6b77f656c38,2024-11-14_13h39.23.509,Tarea de género gramatical,2024.2.2,Win32,165.0165017,,,,,,,,,,,,,,,,,,,,,,,316.017,316.966,l,1,0.291,,[],[],[],[],[],[],[],0.291,1,316.967,317.462,,,,,,68,FEM,CON,150,pata,,a,317.462,317.463,0.888194444,-0.005555556,0,0,0,,0,120,120,67,1,,,,
,,,,,,,2ea7826337495084686e4629,66a626ef09d4e21e1a8894ec,6735ef74eb28d6b77f656c38,2024-11-14_13h39.23.509,Tarea de género gramatical,2024.2.2,Win32,165.0165017,,,,,,,,,,,,,,,,,,,,,,,317.464,318.639,a,1,0.516,,[],[],[],[],[],[],[],0.516,1,318.639,319.136,,,,,,143,MAS,CON,150,faro,,l,319.136,319.136,0.888194444,-0.005555556,0,0,0,,0,121,121,142,1,,,,
,,,,,,,2ea7826337495084686e4629,66a626ef09d4e21e1a8894ec,6735ef74eb28d6b77f656c38,2024-11-14_13h39.23.509,Tarea de género gramatical,2024.2.2,Win32,165.0165017,,,,,,,,,,,,,,,,,,,,,,,319.137,320.141,l,1,0.346,,[],[],[],[],[],[],[],0.346,1,320.142,320.638,,,,,,361,FEM,AGR,150,oferta,la,a,320.639,320.639,0.888194444,-0.005555556,0,0,0,,0,122,122,360,1,,,,
,,,,,,,2ea7826337495084686e4629,66a626ef09d4e21e1a8894ec,6735ef74eb28d6b77f656c38,2024-11-14_13h39.23.509,Tarea de género gramatical,2024.2.2,Win32,165.0165017,,,,,,,,,,,,,,,,,,,,,,,320.639,321.638,a,1,0.34,,[],[],[],[],[],[],[],0.34,1,321.638,322.136,,,,,,35,MAS,CON,150,taxi,,l,322.136,322.137,0.888194444,-0.005555556,0,0,0,,0,123,123,34,1,,,,
,,,,,,,2ea7826337495084686e4629,66a626ef09d4e21e1a8894ec,6735ef74eb28d6b77f656c38,2024-11-14_13h39.23.509,Tarea de género gramatical,2024.2.2,Win32,165.0165017,,,,,,,,,,,,,,,,,,,,,,,322.138,323.147,l,0,0.353,,[],[],[],[],[],[],[],0.353,0,323.148,323.645,,,,,,444,MAS,DIS,150,límite,la,l,323.645,323.645,0.888194444,-0.005555556,0,0,0,,0,124,124,443,1,,,,
,,,,,,,2ea7826337495084686e4629,66a626ef09d4e21e1a8894ec,6735ef74eb28d6b77f656c38,2024-11-14_13h39.23.509,Tarea de género gramatical,2024.2.2,Win32,165.0165017,,,,,,,,,,,,,,,,,,,,,,,323.646,324.675,a,1,0.371,,[],[],[],[],[],[],[],0.371,1,324.676,325.172,,,,,,394,MAS,AGR,150,examen,el,l,325.172,325.172,0.888194444,-0.005555556,0,0,0,,0,125,125,393,1,,,,
,,,,,,,2ea7826337495084686e4629,66a626ef09d4e21e1a8894ec,6735ef74eb28d6b77f656c38,2024-11-14_13h39.23.509,Tarea de género gramatical,2024.2.2,Win32,165.0165017,,,,,,,,,,,,,,,,,,,,,,,325.174,326.317,l,1,0.485,,[],[],[],[],[],[],[],0.485,1,326.317,326.814,,,,,,291,FEM,DIS,150,aguja,el,a,326.814,326.814,0.888194444,-0.005555556,0,0,0,,0,126,126,290,1,,,,
,,,,,,,2ea7826337495084686e4629,66a626ef09d4e21e1a8894ec,6735ef74eb28d6b77f656c38,2024-11-14_13h39.23.509,Tarea de género gramatical,2024.2.2,Win32,165.0165017,,,,,,,,,,,,,,,,,,,,,,,326.815,327.796,l,1,0.322,,[],[],[],[],[],[],[],0.322,1,327.797,328.293,,,,,,2,FEM,CON,150,vida,,a,328.293,328.293,0.888194444,-0.005555556,0,0,0,,0,127,127,1,1,,,,
,,,,,,,2ea7826337495084686e4629,66a626ef09d4e21e1a8894ec,6735ef74eb28d6b77f656c38,2024-11-14_13h39.23.509,Tarea de género gramatical,2024.2.2,Win32,165.0165017,,,,,,,,,,,,,,,,,,,,,,,328.294,329.287,l,1,0.335,,[],[],[],[],[],[],[],0.335,1,329.287,329.784,,,,,,404,FEM,CON,150,gloria,,a,329.785,329.786,0.888194444,-0.005555556,0,0,0,,0,128,128,403,1,,,,
,,,,,,,2ea7826337495084686e4629,66a626ef09d4e21e1a8894ec,6735ef74eb28d6b77f656c38,2024-11-14_13h39.23.509,Tarea de género gramatical,2024.2.2,Win32,165.0165017,,,,,,,,,,,,,,,,,,,,,,,329.787,330.838,l,1,0.394,,[],[],[],[],[],[],[],0.394,1,330.838,331.336,,,,,,67,FEM,AGR,150,miel,la,a,331.336,331.336,0.888194444,-0.005555556,0,0,0,,0,129,129,66,1,,,,
,,,,,,,2ea7826337495084686e4629,66a626ef09d4e21e1a8894ec,6735ef74eb28d6b77f656c38,2024-11-14_13h39.23.509,Tarea de género gramatical,2024.2.2,Win32,165.0165017,,,,,,,,,,,,,,,,,,,,,,,331.337,332.426,a,1,0.433,,[],[],[],[],[],[],[],0.433,1,332.427,332.923,,,,,,377,MAS,CON,150,jardín,,l,332.923,332.924,0.888194444,-0.005555556,0,0,0,,0,130,130,376,1,,,,
,,,,,,,2ea7826337495084686e4629,66a626ef09d4e21e1a8894ec,6735ef74eb28d6b77f656c38,2024-11-14_13h39.23.509,Tarea de género gramatical,2024.2.2,Win32,165.0165017,,,,,,,,,,,,,,,,,,,,,,,332.924,333.93,a,1,0.349,,[],[],[],[],[],[],[],0.349,1,333.93,334.427,,,,,,275,MAS,CON,150,disco,,l,334.427,334.427,0.888194444,-0.005555556,0,0,0,,0,131,131,274,1,,,,
,,,,,,,2ea7826337495084686e4629,66a626ef09d4e21e1a8894ec,6735ef74eb28d6b77f656c38,2024-11-14_13h39.23.509,Tarea de género gramatical,2024.2.2,Win32,165.0165017,,,,,,,,,,,,,,,,,,,,,,,334.428,335.451,a,1,0.366,,[],[],[],[],[],[],[],0.366,1,335.451,335.948,,,,,,66,MAS,DIS,150,muro,la,l,335.948,335.95,0.888194444,-0.005555556,0,0,0,,0,132,132,65,1,,,,
,,,,,,,2ea7826337495084686e4629,66a626ef09d4e21e1a8894ec,6735ef74eb28d6b77f656c38,2024-11-14_13h39.23.509,Tarea de género gramatical,2024.2.2,Win32,165.0165017,,,,,,,,,,,,,,,,,,,,,,,335.95,336.888,l,1,0.28,,[],[],[],[],[],[],[],0.28,1,336.889,337.39,,,,,,266,FEM,CON,150,jaula,,a,337.391,337.391,0.888194444,-0.005555556,0,0,0,,0,133,133,265,1,,,,
,,,,,,,2ea7826337495084686e4629,66a626ef09d4e21e1a8894ec,6735ef74eb28d6b77f656c38,2024-11-14_13h39.23.509,Tarea de género gramatical,2024.2.2,Win32,165.0165017,,,,,,,,,,,,,,,,,,,,,,,337.393,338.378,a,1,0.33,,[],[],[],[],[],[],[],0.33,1,338.378,338.875,,,,,,131,MAS,CON,150,kilo,,l,338.875,338.875,0.888194444,-0.005555556,0,0,0,,0,134,134,130,1,,,,
,,,,,,,2ea7826337495084686e4629,66a626ef09d4e21e1a8894ec,6735ef74eb28d6b77f656c38,2024-11-14_13h39.23.509,Tarea de género gramatical,2024.2.2,Win32,165.0165017,,,,,,,,,,,,,,,,,,,,,,,338.877,339.821,a,1,0.287,,[],[],[],[],[],[],[],0.287,1,339.821,340.318,,,,,,155,MAS,CON,150,mundo,,l,340.318,340.319,0.888194444,-0.005555556,0,0,0,,0,135,135,154,1,,,,
,,,,,,,2ea7826337495084686e4629,66a626ef09d4e21e1a8894ec,6735ef74eb28d6b77f656c38,2024-11-14_13h39.23.509,Tarea de género gramatical,2024.2.2,Win32,165.0165017,,,,,,,,,,,,,,,,,,,,,,,340.32,341.293,l,1,0.316,,[],[],[],[],[],[],[],0.316,1,341.293,341.79,,,,,,285,FEM,DIS,150,mafia,el,a,341.79,341.791,0.888194444,-0.005555556,0,0,0,,0,136,136,284,1,,,,
,,,,,,,2ea7826337495084686e4629,66a626ef09d4e21e1a8894ec,6735ef74eb28d6b77f656c38,2024-11-14_13h39.23.509,Tarea de género gramatical,2024.2.2,Win32,165.0165017,,,,,,,,,,,,,,,,,,,,,,,341.792,342.893,l,1,0.443,,[],[],[],[],[],[],[],0.443,1,342.893,343.391,,,,,,301,FEM,AGR,150,verdad,la,a,343.391,343.393,0.888194444,-0.005555556,0,0,0,,0,137,137,300,1,,,,
,,,,,,,2ea7826337495084686e4629,66a626ef09d4e21e1a8894ec,6735ef74eb28d6b77f656c38,2024-11-14_13h39.23.509,Tarea de género gramatical,2024.2.2,Win32,165.0165017,,,,,,,,,,,,,,,,,,,,,,,343.394,344.348,a,1,0.296,,[],[],[],[],[],[],[],0.296,1,344.348,344.845,,,,,,94,MAS,AGR,150,cabo,el,l,344.845,344.845,0.888194444,-0.005555556,0,0,0,,0,138,138,93,1,,,,
,,,,,,,2ea7826337495084686e4629,66a626ef09d4e21e1a8894ec,6735ef74eb28d6b77f656c38,2024-11-14_13h39.23.509,Tarea de género gramatical,2024.2.2,Win32,165.0165017,,,,,,,,,,,,,,,,,,,,,,,344.846,345.869,l,0,0.365,,[],[],[],[],[],[],[],0.365,0,345.87,346.366,,,,,,324,MAS,DIS,150,cuarto,la,l,346.367,346.367,0.888194444,-0.005555556,0,0,0,,0,139,139,323,1,,,,
,,,,,,,2ea7826337495084686e4629,66a626ef09d4e21e1a8894ec,6735ef74eb28d6b77f656c38,2024-11-14_13h39.23.509,Tarea de género gramatical,2024.2.2,Win32,165.0165017,,,,,,,,,,,,,,,,,,,,,,,346.368,347.318,l,1,0.292,,[],[],[],[],[],[],[],0.292,1,347.319,347.815,,,,,,187,FEM,AGR,150,lista,la,a,347.815,347.815,0.888194444,-0.005555556,0,0,0,,0,140,140,186,1,,,,
,,,,,,,2ea7826337495084686e4629,66a626ef09d4e21e1a8894ec,6735ef74eb28d6b77f656c38,2024-11-14_13h39.23.509,Tarea de género gramatical,2024.2.2,Win32,165.0165017,,,,,,,,,,,,,,,,,,,,,,,347.816,348.827,a,0,0.353,,[],[],[],[],[],[],[],0.353,0,348.828,349.323,,,,,,135,FEM,DIS,150,raíz,el,a,349.324,349.326,0.888194444,-0.005555556,0,0,0,,0,141,141,134,1,,,,
,,,,,,,2ea7826337495084686e4629,66a626ef09d4e21e1a8894ec,6735ef74eb28d6b77f656c38,2024-11-14_13h39.23.509,Tarea de género gramatical,2024.2.2,Win32,165.0165017,,,,,,,,,,,,,,,,,,,,,,,349.327,350.354,a,1,0.374,,[],[],[],[],[],[],[],0.374,1,350.355,350.851,,,,,,168,MAS,DIS,150,sitio,la,l,350.852,350.852,0.888194444,-0.005555556,0,0,0,,0,142,142,167,1,,,,
,,,,,,,2ea7826337495084686e4629,66a626ef09d4e21e1a8894ec,6735ef74eb28d6b77f656c38,2024-11-14_13h39.23.509,Tarea de género gramatical,2024.2.2,Win32,165.0165017,,,,,,,,,,,,,,,,,,,,,,,350.853,351.827,a,1,0.317,,[],[],[],[],[],[],[],0.317,1,351.827,352.324,,,,,,425,MAS,CON,150,chiste,,l,352.324,352.324,0.888194444,-0.005555556,0,0,0,,0,143,143,424,1,,,,
,,,,,,,2ea7826337495084686e4629,66a626ef09d4e21e1a8894ec,6735ef74eb28d6b77f656c38,2024-11-14_13h39.23.509,Tarea de género gramatical,2024.2.2,Win32,165.0165017,,,,,,,,,,,,,,,,,,,,,,,352.325,353.269,a,1,0.285,,[],[],[],[],[],[],[],0.285,1,353.269,353.766,,,,,,383,MAS,CON,150,parque,,l,353.766,353.766,0.888194444,-0.005555556,0,0,0,,0,144,144,382,1,,,,
,,,,,,,2ea7826337495084686e4629,66a626ef09d4e21e1a8894ec,6735ef74eb28d6b77f656c38,2024-11-14_13h39.23.509,Tarea de género gramatical,2024.2.2,Win32,165.0165017,,,,,,,,,,,,,,,,,,,,,,,353.767,355.051,a,1,0.626,,[],[],[],[],[],[],[],0.626,1,355.051,355.548,,,,,,102,MAS,DIS,150,coro,la,l,355.548,355.548,0.888194444,-0.005555556,0,0,0,,0,145,145,101,1,,,,
,,,,,,,2ea7826337495084686e4629,66a626ef09d4e21e1a8894ec,6735ef74eb28d6b77f656c38,2024-11-14_13h39.23.509,Tarea de género gramatical,2024.2.2,Win32,165.0165017,,,,,,,,,,,,,,,,,,,,,,,355.549,356.481,l,1,0.276,,[],[],[],[],[],[],[],0.276,1,356.481,356.978,,,,,,284,FEM,CON,150,fruta,,a,356.979,356.981,0.888194444,-0.005555556,0,0,0,,0,146,146,283,1,,,,
,,,,,,,2ea7826337495084686e4629,66a626ef09d4e21e1a8894ec,6735ef74eb28d6b77f656c38,2024-11-14_13h39.23.509,Tarea de género gramatical,2024.2.2,Win32,165.0165017,,,,,,,,,,,,,,,,,,,,,,,356.981,358.045,l,1,0.406,,[],[],[],[],[],[],[],0.406,1,358.046,358.542,,,,,,188,FEM,CON,150,bomba,,a,358.542,358.542,0.888194444,-0.005555556,0,0,0,,0,147,147,187,1,,,,
,,,,,,,2ea7826337495084686e4629,66a626ef09d4e21e1a8894ec,6735ef74eb28d6b77f656c38,2024-11-14_13h39.23.509,Tarea de género gramatical,2024.2.2,Win32,165.0165017,,,,,,,,,,,,,,,,,,,,,,,358.543,359.506,a,1,0.306,,[],[],[],[],[],[],[],0.306,1,359.506,360.003,,,,,,347,MAS,CON,150,cuello,,l,360.003,360.003,0.888194444,-0.005555556,0,0,0,,0,148,148,346,1,,,,
,,,,,,,2ea7826337495084686e4629,66a626ef09d4e21e1a8894ec,6735ef74eb28d6b77f656c38,2024-11-14_13h39.23.509,Tarea de género gramatical,2024.2.2,Win32,165.0165017,,,,,,,,,,,,,,,,,,,,,,,360.004,360.997,a,1,0.334,,[],[],[],[],[],[],[],0.334,1,360.997,361.494,,,,,,112,MAS,AGR,150,reto,el,l,361.494,361.494,0.888194444,-0.005555556,0,0,0,,0,149,149,111,1,,,,
,,,,,,,2ea7826337495084686e4629,66a626ef09d4e21e1a8894ec,6735ef74eb28d6b77f656c38,2024-11-14_13h39.23.509,Tarea de género gramatical,2024.2.2,Win32,165.0165017,,,,,,,,,,,,,,,,,,,,,,,361.495,362.47,l,1,0.316,,[],[],[],[],[],[],[],0.316,1,362.47,362.967,,,,,,175,FEM,AGR,150,señal,la,a,362.968,366.524,0.888194444,-0.005555556,0,0,0,space,0,150,150,174,1,3.534,,,
,,,,,,,2ea7826337495084686e4629,66a626ef09d4e21e1a8894ec,6735ef74eb28d6b77f656c38,2024-11-14_13h39.23.509,Tarea de género gramatical,2024.2.2,Win32,165.0165017,,,,,,,,,,,,,,,,,,,,,,,366.525,367.567,a,1,0.383,,[],[],[],[],[],[],[],0.383,1,367.567,368.064,,,,,,77,MAS,CON,150,pico,,l,368.064,368.064,0.888194444,-0.005555556,0,0,0,,0,151,151,76,1,,,,
,,,,,,,2ea7826337495084686e4629,66a626ef09d4e21e1a8894ec,6735ef74eb28d6b77f656c38,2024-11-14_13h39.23.509,Tarea de género gramatical,2024.2.2,Win32,165.0165017,,,,,,,,,,,,,,,,,,,,,,,368.065,368.993,a,1,0.268,,[],[],[],[],[],[],[],0.268,1,368.993,369.494,,,,,,191,MAS,CON,150,dolor,,l,369.494,369.494,0.888194444,-0.005555556,0,0,0,,0,152,152,190,1,,,,
,,,,,,,2ea7826337495084686e4629,66a626ef09d4e21e1a8894ec,6735ef74eb28d6b77f656c38,2024-11-14_13h39.23.509,Tarea de género gramatical,2024.2.2,Win32,165.0165017,,,,,,,,,,,,,,,,,,,,,,,369.495,370.428,l,1,0.274,,[],[],[],[],[],[],[],0.274,1,370.429,370.924,,,,,,205,FEM,AGR,150,reina,la,a,370.925,370.925,0.888194444,-0.005555556,0,0,0,,0,153,153,204,1,,,,
,,,,,,,2ea7826337495084686e4629,66a626ef09d4e21e1a8894ec,6735ef74eb28d6b77f656c38,2024-11-14_13h39.23.509,Tarea de género gramatical,2024.2.2,Win32,165.0165017,,,,,,,,,,,,,,,,,,,,,,,370.927,371.846,l,1,0.261,,[],[],[],[],[],[],[],0.261,1,371.846,372.343,,,,,,217,FEM,AGR,150,tarea,la,a,372.343,372.343,0.888194444,-0.005555556,0,0,0,,0,154,154,216,1,,,,
,,,,,,,2ea7826337495084686e4629,66a626ef09d4e21e1a8894ec,6735ef74eb28d6b77f656c38,2024-11-14_13h39.23.509,Tarea de género gramatical,2024.2.2,Win32,165.0165017,,,,,,,,,,,,,,,,,,,,,,,372.345,373.506,l,1,0.505,,[],[],[],[],[],[],[],0.505,1,373.507,374.004,,,,,,45,FEM,DIS,150,isla,el,a,374.005,374.007,0.888194444,-0.005555556,0,0,0,,0,155,155,44,1,,,,
,,,,,,,2ea7826337495084686e4629,66a626ef09d4e21e1a8894ec,6735ef74eb28d6b77f656c38,2024-11-14_13h39.23.509,Tarea de género gramatical,2024.2.2,Win32,165.0165017,,,,,,,,,,,,,,,,,,,,,,,374.008,374.943,l,1,0.279,,[],[],[],[],[],[],[],0.279,1,374.943,375.439,,,,,,410,FEM,CON,150,piedad,,a,375.439,375.44,0.888194444,-0.005555556,0,0,0,,0,156,156,409,1,,,,
,,,,,,,2ea7826337495084686e4629,66a626ef09d4e21e1a8894ec,6735ef74eb28d6b77f656c38,2024-11-14_13h39.23.509,Tarea de género gramatical,2024.2.2,Win32,165.0165017,,,,,,,,,,,,,,,,,,,,,,,375.441,376.506,l,1,0.408,,[],[],[],[],[],[],[],0.408,1,376.506,377.003,,,,,,313,FEM,AGR,150,ciudad,la,a,377.003,377.004,0.888194444,-0.005555556,0,0,0,,0,157,157,312,1,,,,
,,,,,,,2ea7826337495084686e4629,66a626ef09d4e21e1a8894ec,6735ef74eb28d6b77f656c38,2024-11-14_13h39.23.509,Tarea de género gramatical,2024.2.2,Win32,165.0165017,,,,,,,,,,,,,,,,,,,,,,,377.005,377.931,l,0,0.268,,[],[],[],[],[],[],[],0.268,0,377.932,378.427,,,,,,298,MAS,AGR,150,botón,el,l,378.427,378.427,0.888194444,-0.005555556,0,0,0,,0,158,158,297,1,,,,
,,,,,,,2ea7826337495084686e4629,66a626ef09d4e21e1a8894ec,6735ef74eb28d6b77f656c38,2024-11-14_13h39.23.509,Tarea de género gramatical,2024.2.2,Win32,165.0165017,,,,,,,,,,,,,,,,,,,,,,,378.429,379.446,a,1,0.359,,[],[],[],[],[],[],[],0.359,1,379.447,379.943,,,,,,426,MAS,DIS,150,pánico,la,l,379.944,379.945,0.888194444,-0.005555556,0,0,0,,0,159,159,425,1,,,,
,,,,,,,2ea7826337495084686e4629,66a626ef09d4e21e1a8894ec,6735ef74eb28d6b77f656c38,2024-11-14_13h39.23.509,Tarea de género gramatical,2024.2.2,Win32,165.0165017,,,,,,,,,,,,,,,,,,,,,,,379.947,380.998,a,1,0.395,,[],[],[],[],[],[],[],0.395,1,380.998,381.494,,,,,,328,MAS,AGR,150,asunto,el,l,381.494,381.494,0.888194444,-0.005555556,0,0,0,,0,160,160,327,1,,,,
,,,,,,,2ea7826337495084686e4629,66a626ef09d4e21e1a8894ec,6735ef74eb28d6b77f656c38,2024-11-14_13h39.23.509,Tarea de género gramatical,2024.2.2,Win32,165.0165017,,,,,,,,,,,,,,,,,,,,,,,381.495,382.543,a,1,0.388,,[],[],[],[],[],[],[],0.388,1,382.543,383.039,,,,,,246,MAS,DIS,150,humor,la,l,383.039,383.04,0.888194444,-0.005555556,0,0,0,,0,161,161,245,1,,,,
,,,,,,,2ea7826337495084686e4629,66a626ef09d4e21e1a8894ec,6735ef74eb28d6b77f656c38,2024-11-14_13h39.23.509,Tarea de género gramatical,2024.2.2,Win32,165.0165017,,,,,,,,,,,,,,,,,,,,,,,383.041,384.191,l,1,0.492,,[],[],[],[],[],[],[],0.492,1,384.191,384.688,,,,,,159,FEM,DIS,150,clase,el,a,384.688,384.688,0.888194444,-0.005555556,0,0,0,,0,162,162,158,1,,,,
,,,,,,,2ea7826337495084686e4629,66a626ef09d4e21e1a8894ec,6735ef74eb28d6b77f656c38,2024-11-14_13h39.23.509,Tarea de género gramatical,2024.2.2,Win32,165.0165017,,,,,,,,,,,,,,,,,,,,,,,384.689,385.7,l,1,0.352,,[],[],[],[],[],[],[],0.352,1,385.7,386.197,,,,,,259,FEM,AGR,150,prima,la,a,386.197,386.197,0.888194444,-0.005555556,0,0,0,,0,163,163,258,1,,,,
,,,,,,,2ea7826337495084686e4629,66a626ef09d4e21e1a8894ec,6735ef74eb28d6b77f656c38,2024-11-14_13h39.23.509,Tarea de género gramatical,2024.2.2,Win32,165.0165017,,,,,,,,,,,,,,,,,,,,,,,386.198,387.179,a,1,0.323,,[],[],[],[],[],[],[],0.323,1,387.179,387.676,,,,,,226,MAS,AGR,150,color,el,l,387.677,387.678,0.888194444,-0.005555556,0,0,0,,0,164,164,225,1,,,,
,,,,,,,2ea7826337495084686e4629,66a626ef09d4e21e1a8894ec,6735ef74eb28d6b77f656c38,2024-11-14_13h39.23.509,Tarea de género gramatical,2024.2.2,Win32,165.0165017,,,,,,,,,,,,,,,,,,,,,,,387.679,388.715,a,1,0.383,,[],[],[],[],[],[],[],0.383,1,388.715,389.216,,,,,,137,MAS,CON,150,coco,,l,389.216,389.216,0.888194444,-0.005555556,0,0,0,,0,165,165,136,1,,,,
,,,,,,,2ea7826337495084686e4629,66a626ef09d4e21e1a8894ec,6735ef74eb28d6b77f656c38,2024-11-14_13h39.23.509,Tarea de género gramatical,2024.2.2,Win32,165.0165017,,,,,,,,,,,,,,,,,,,,,,,389.217,390.318,a,0,0.443,,[],[],[],[],[],[],[],0.443,0,390.319,390.816,,,,,,81,FEM,DIS,150,cima,el,a,390.816,390.816,0.888194444,-0.005555556,0,0,0,,0,166,166,80,1,,,,
,,,,,,,2ea7826337495084686e4629,66a626ef09d4e21e1a8894ec,6735ef74eb28d6b77f656c38,2024-11-14_13h39.23.509,Tarea de género gramatical,2024.2.2,Win32,165.0165017,,,,,,,,,,,,,,,,,,,,,,,390.817,391.9,a,1,0.424,,[],[],[],[],[],[],[],0.424,1,391.901,392.398,,,,,,11,MAS,CON,150,país,,l,392.398,392.398,0.888194444,-0.005555556,0,0,0,,0,167,167,10,1,,,,
,,,,,,,2ea7826337495084686e4629,66a626ef09d4e21e1a8894ec,6735ef74eb28d6b77f656c38,2024-11-14_13h39.23.509,Tarea de género gramatical,2024.2.2,Win32,165.0165017,,,,,,,,,,,,,,,,,,,,,,,392.399,393.403,a,1,0.347,,[],[],[],[],[],[],[],0.347,1,393.403,393.901,,,,,,316,MAS,AGR,150,cuerpo,el,l,393.901,393.903,0.888194444,-0.005555556,0,0,0,,0,168,168,315,1,,,,
,,,,,,,2ea7826337495084686e4629,66a626ef09d4e21e1a8894ec,6735ef74eb28d6b77f656c38,2024-11-14_13h39.23.509,Tarea de género gramatical,2024.2.2,Win32,165.0165017,,,,,,,,,,,,,,,,,,,,,,,393.903,394.925,l,0,0.364,,[],[],[],[],[],[],[],0.364,0,394.925,395.421,,,,,,384,MAS,DIS,150,pedazo,la,l,395.421,395.422,0.888194444,-0.005555556,0,0,0,,0,169,169,383,1,,,,
,,,,,,,2ea7826337495084686e4629,66a626ef09d4e21e1a8894ec,6735ef74eb28d6b77f656c38,2024-11-14_13h39.23.509,Tarea de género gramatical,2024.2.2,Win32,165.0165017,,,,,,,,,,,,,,,,,,,,,,,395.423,396.452,a,1,0.371,,[],[],[],[],[],[],[],0.371,1,396.453,396.949,,,,,,270,MAS,DIS,150,queso,la,l,396.949,396.949,0.888194444,-0.005555556,0,0,0,,0,170,170,269,1,,,,
,,,,,,,2ea7826337495084686e4629,66a626ef09d4e21e1a8894ec,6735ef74eb28d6b77f656c38,2024-11-14_13h39.23.509,Tarea de género gramatical,2024.2.2,Win32,165.0165017,,,,,,,,,,,,,,,,,,,,,,,396.95,397.931,l,0,0.322,,[],[],[],[],[],[],[],0.322,0,397.932,398.428,,,,,,353,MAS,CON,150,verano,,l,398.428,398.428,0.888194444,-0.005555556,0,0,0,,0,171,171,352,1,,,,
,,,,,,,2ea7826337495084686e4629,66a626ef09d4e21e1a8894ec,6735ef74eb28d6b77f656c38,2024-11-14_13h39.23.509,Tarea de género gramatical,2024.2.2,Win32,165.0165017,,,,,,,,,,,,,,,,,,,,,,,398.429,399.47,a,1,0.382,,[],[],[],[],[],[],[],0.382,1,399.471,399.968,,,,,,210,MAS,DIS,150,baile,la,l,399.968,399.968,0.888194444,-0.005555556,0,0,0,,0,172,172,209,1,,,,
,,,,,,,2ea7826337495084686e4629,66a626ef09d4e21e1a8894ec,6735ef74eb28d6b77f656c38,2024-11-14_13h39.23.509,Tarea de género gramatical,2024.2.2,Win32,165.0165017,,,,,,,,,,,,,,,,,,,,,,,399.969,401.203,l,1,0.577,,[],[],[],[],[],[],[],0.577,1,401.203,401.7,,,,,,79,FEM,AGR,150,mina,la,a,401.701,401.703,0.888194444,-0.005555556,0,0,0,,0,173,173,78,1,,,,
,,,,,,,2ea7826337495084686e4629,66a626ef09d4e21e1a8894ec,6735ef74eb28d6b77f656c38,2024-11-14_13h39.23.509,Tarea de género gramatical,2024.2.2,Win32,165.0165017,,,,,,,,,,,,,,,,,,,,,,,401.704,402.7,l,1,0.341,,[],[],[],[],[],[],[],0.341,1,402.701,403.197,,,,,,199,FEM,AGR,150,nariz,la,a,403.198,403.198,0.888194444,-0.005555556,0,0,0,,0,174,174,198,1,,,,
,,,,,,,2ea7826337495084686e4629,66a626ef09d4e21e1a8894ec,6735ef74eb28d6b77f656c38,2024-11-14_13h39.23.509,Tarea de género gramatical,2024.2.2,Win32,165.0165017,,,,,,,,,,,,,,,,,,,,,,,403.198,404.338,a,0,0.484,,[],[],[],[],[],[],[],0.484,0,404.34,404.841,,,,,,447,FEM,DIS,150,lógica,el,a,404.842,404.842,0.888194444,-0.005555556,0,0,0,,0,175,175,446,1,,,,
,,,,,,,2ea7826337495084686e4629,66a626ef09d4e21e1a8894ec,6735ef74eb28d6b77f656c38,2024-11-14_13h39.23.509,Tarea de género gramatical,2024.2.2,Win32,165.0165017,,,,,,,,,,,,,,,,,,,,,,,404.843,405.774,l,1,0.274,,[],[],[],[],[],[],[],0.274,1,405.775,406.271,,,,,,290,FEM,CON,150,cabra,,a,406.271,406.271,0.888194444,-0.005555556,0,0,0,,0,176,176,289,1,,,,
,,,,,,,2ea7826337495084686e4629,66a626ef09d4e21e1a8894ec,6735ef74eb28d6b77f656c38,2024-11-14_13h39.23.509,Tarea de género gramatical,2024.2.2,Win32,165.0165017,,,,,,,,,,,,,,,,,,,,,,,406.273,407.646,a,1,0.714,,[],[],[],[],[],[],[],0.714,1,407.646,408.143,,,,,,340,MAS,AGR,150,pasado,el,l,408.144,408.146,0.888194444,-0.005555556,0,0,0,,0,177,177,339,1,,,,
,,,,,,,2ea7826337495084686e4629,66a626ef09d4e21e1a8894ec,6735ef74eb28d6b77f656c38,2024-11-14_13h39.23.509,Tarea de género gramatical,2024.2.2,Win32,165.0165017,,,,,,,,,,,,,,,,,,,,,,,408.147,409.331,a,1,0.529,,[],[],[],[],[],[],[],0.529,1,409.332,409.828,,,,,,40,MAS,AGR,150,dios,el,l,409.828,409.828,0.888194444,-0.005555556,0,0,0,,0,178,178,39,1,,,,
,,,,,,,2ea7826337495084686e4629,66a626ef09d4e21e1a8894ec,6735ef74eb28d6b77f656c38,2024-11-14_13h39.23.509,Tarea de género gramatical,2024.2.2,Win32,165.0165017,,,,,,,,,,,,,,,,,,,,,,,409.829,410.834,a,1,0.348,,[],[],[],[],[],[],[],0.348,1,410.835,411.331,,,,,,95,MAS,CON,150,tomo,,l,411.331,411.332,0.888194444,-0.005555556,0,0,0,,0,179,179,94,1,,,,
,,,,,,,2ea7826337495084686e4629,66a626ef09d4e21e1a8894ec,6735ef74eb28d6b77f656c38,2024-11-14_13h39.23.509,Tarea de género gramatical,2024.2.2,Win32,165.0165017,,,,,,,,,,,,,,,,,,,,,,,411.332,412.398,l,1,0.407,,[],[],[],[],[],[],[],0.407,1,412.398,412.895,,,,,,362,FEM,CON,150,fuente,,a,412.895,412.895,0.888194444,-0.005555556,0,0,0,,0,180,180,361,1,,,,
,,,,,,,2ea7826337495084686e4629,66a626ef09d4e21e1a8894ec,6735ef74eb28d6b77f656c38,2024-11-14_13h39.23.509,Tarea de género gramatical,2024.2.2,Win32,165.0165017,,,,,,,,,,,,,,,,,,,,,,,412.896,413.901,a,1,0.346,,[],[],[],[],[],[],[],0.346,1,413.901,414.398,,,,,,299,MAS,CON,150,rumbo,,l,414.398,414.398,0.888194444,-0.005555556,0,0,0,,0,181,181,298,1,,,,
,,,,,,,2ea7826337495084686e4629,66a626ef09d4e21e1a8894ec,6735ef74eb28d6b77f656c38,2024-11-14_13h39.23.509,Tarea de género gramatical,2024.2.2,Win32,165.0165017,,,,,,,,,,,,,,,,,,,,,,,414.399,415.519,l,1,0.462,,[],[],[],[],[],[],[],0.462,1,415.519,416.017,,,,,,363,FEM,DIS,150,unidad,el,a,416.017,416.019,0.888194444,-0.005555556,0,0,0,,0,182,182,362,1,,,,
,,,,,,,2ea7826337495084686e4629,66a626ef09d4e21e1a8894ec,6735ef74eb28d6b77f656c38,2024-11-14_13h39.23.509,Tarea de género gramatical,2024.2.2,Win32,165.0165017,,,,,,,,,,,,,,,,,,,,,,,416.019,416.949,l,1,0.274,,[],[],[],[],[],[],[],0.274,1,416.95,417.446,,,,,,61,FEM,AGR,150,ruta,la,a,417.446,417.446,0.888194444,-0.005555556,0,0,0,,0,183,183,60,1,,,,
,,,,,,,2ea7826337495084686e4629,66a626ef09d4e21e1a8894ec,6735ef74eb28d6b77f656c38,2024-11-14_13h39.23.509,Tarea de género gramatical,2024.2.2,Win32,165.0165017,,,,,,,,,,,,,,,,,,,,,,,417.447,418.428,a,1,0.322,,[],[],[],[],[],[],[],0.322,1,418.428,418.926,,,,,,132,MAS,DIS,150,velo,la,l,418.926,418.926,0.888194444,-0.005555556,0,0,0,,0,184,184,131,1,,,,
,,,,,,,2ea7826337495084686e4629,66a626ef09d4e21e1a8894ec,6735ef74eb28d6b77f656c38,2024-11-14_13h39.23.509,Tarea de género gramatical,2024.2.2,Win32,165.0165017,,,,,,,,,,,,,,,,,,,,,,,418.927,419.834,l,1,0.249,,[],[],[],[],[],[],[],0.249,1,419.834,420.332,,,,,,200,FEM,CON,150,silla,,a,420.332,420.332,0.888194444,-0.005555556,0,0,0,,0,185,185,199,1,,,,
,,,,,,,2ea7826337495084686e4629,66a626ef09d4e21e1a8894ec,6735ef74eb28d6b77f656c38,2024-11-14_13h39.23.509,Tarea de género gramatical,2024.2.2,Win32,165.0165017,,,,,,,,,,,,,,,,,,,,,,,420.332,421.295,l,1,0.305,,[],[],[],[],[],[],[],0.305,1,421.296,421.792,,,,,,182,FEM,CON,150,prisa,,a,421.793,421.795,0.888194444,-0.005555556,0,0,0,,0,186,186,181,1,,,,
,,,,,,,2ea7826337495084686e4629,66a626ef09d4e21e1a8894ec,6735ef74eb28d6b77f656c38,2024-11-14_13h39.23.509,Tarea de género gramatical,2024.2.2,Win32,165.0165017,,,,,,,,,,,,,,,,,,,,,,,421.795,422.774,a,1,0.322,,[],[],[],[],[],[],[],0.322,1,422.774,423.271,,,,,,54,MAS,DIS,150,humo,la,l,423.271,423.271,0.888194444,-0.005555556,0,0,0,,0,187,187,53,1,,,,
,,,,,,,2ea7826337495084686e4629,66a626ef09d4e21e1a8894ec,6735ef74eb28d6b77f656c38,2024-11-14_13h39.23.509,Tarea de género gramatical,2024.2.2,Win32,165.0165017,,,,,,,,,,,,,,,,,,,,,,,423.272,424.283,a,1,0.355,,[],[],[],[],[],[],[],0.355,1,424.283,424.78,,,,,,46,MAS,AGR,150,odio,el,l,424.78,424.78,0.888194444,-0.005555556,0,0,0,,0,188,188,45,1,,,,
,,,,,,,2ea7826337495084686e4629,66a626ef09d4e21e1a8894ec,6735ef74eb28d6b77f656c38,2024-11-14_13h39.23.509,Tarea de género gramatical,2024.2.2,Win32,165.0165017,,,,,,,,,,,,,,,,,,,,,,,424.781,425.774,a,1,0.333,,[],[],[],[],[],[],[],0.333,1,425.774,426.271,,,,,,372,MAS,DIS,150,delito,la,l,426.271,426.271,0.888194444,-0.005555556,0,0,0,,0,189,189,371,1,,,,
,,,,,,,2ea7826337495084686e4629,66a626ef09d4e21e1a8894ec,6735ef74eb28d6b77f656c38,2024-11-14_13h39.23.509,Tarea de género gramatical,2024.2.2,Win32,165.0165017,,,,,,,,,,,,,,,,,,,,,,,426.272,427.222,l,1,0.291,,[],[],[],[],[],[],[],0.291,1,427.222,427.719,,,,,,433,FEM,AGR,150,huella,la,a,427.719,427.72,0.888194444,-0.005555556,0,0,0,,0,190,190,432,1,,,,
,,,,,,,2ea7826337495084686e4629,66a626ef09d4e21e1a8894ec,6735ef74eb28d6b77f656c38,2024-11-14_13h39.23.509,Tarea de género gramatical,2024.2.2,Win32,165.0165017,,,,,,,,,,,,,,,,,,,,,,,427.721,428.671,a,1,0.292,,[],[],[],[],[],[],[],0.292,1,428.671,429.168,,,,,,221,MAS,CON,150,brazo,,l,429.17,429.171,0.888194444,-0.005555556,0,0,0,,0,191,191,220,1,,,,
,,,,,,,2ea7826337495084686e4629,66a626ef09d4e21e1a8894ec,6735ef74eb28d6b77f656c38,2024-11-14_13h39.23.509,Tarea de género gramatical,2024.2.2,Win32,165.0165017,,,,,,,,,,,,,,,,,,,,,,,429.171,430.155,l,1,0.328,,[],[],[],[],[],[],[],0.328,1,430.156,430.653,,,,,,373,FEM,AGR,150,lluvia,la,a,430.653,430.653,0.888194444,-0.005555556,0,0,0,,0,192,192,372,1,,,,
,,,,,,,2ea7826337495084686e4629,66a626ef09d4e21e1a8894ec,6735ef74eb28d6b77f656c38,2024-11-14_13h39.23.509,Tarea de género gramatical,2024.2.2,Win32,165.0165017,,,,,,,,,,,,,,,,,,,,,,,430.654,431.599,a,0,0.285,,[],[],[],[],[],[],[],0.285,0,431.599,432.095,,,,,,80,FEM,CON,150,vaca,,a,432.095,432.096,0.888194444,-0.005555556,0,0,0,,0,193,193,79,1,,,,
,,,,,,,2ea7826337495084686e4629,66a626ef09d4e21e1a8894ec,6735ef74eb28d6b77f656c38,2024-11-14_13h39.23.509,Tarea de género gramatical,2024.2.2,Win32,165.0165017,,,,,,,,,,,,,,,,,,,,,,,432.097,433.162,a,1,0.41,,[],[],[],[],[],[],[],0.41,1,433.163,433.659,,,,,,142,MAS,AGR,150,lodo,el,l,433.659,433.659,0.888194444,-0.005555556,0,0,0,,0,194,194,141,1,,,,
,,,,,,,2ea7826337495084686e4629,66a626ef09d4e21e1a8894ec,6735ef74eb28d6b77f656c38,2024-11-14_13h39.23.509,Tarea de género gramatical,2024.2.2,Win32,165.0165017,,,,,,,,,,,,,,,,,,,,,,,433.66,434.598,l,1,0.28,,[],[],[],[],[],[],[],0.28,1,434.598,435.095,,,,,,338,FEM,CON,150,abuela,,a,435.096,435.098,0.888194444,-0.005555556,0,0,0,,0,195,195,337,1,,,,
,,,,,,,2ea7826337495084686e4629,66a626ef09d4e21e1a8894ec,6735ef74eb28d6b77f656c38,2024-11-14_13h39.23.509,Tarea de género gramatical,2024.2.2,Win32,165.0165017,,,,,,,,,,,,,,,,,,,,,,,435.098,436.09,a,0,0.337,,[],[],[],[],[],[],[],0.337,0,436.09,436.586,,,,,,374,FEM,CON,150,herida,,a,436.586,436.586,0.888194444,-0.005555556,0,0,0,,0,196,196,373,1,,,,
,,,,,,,2ea7826337495084686e4629,66a626ef09d4e21e1a8894ec,6735ef74eb28d6b77f656c38,2024-11-14_13h39.23.509,Tarea de género gramatical,2024.2.2,Win32,165.0165017,,,,,,,,,,,,,,,,,,,,,,,436.587,437.629,a,1,0.382,,[],[],[],[],[],[],[],0.382,1,437.632,438.125,,,,,,124,MAS,AGR,150,clan,el,l,438.126,438.126,0.888194444,-0.005555556,0,0,0,,0,197,197,123,1,,,,
,,,,,,,2ea7826337495084686e4629,66a626ef09d4e21e1a8894ec,6735ef74eb28d6b77f656c38,2024-11-14_13h39.23.509,Tarea de género gramatical,2024.2.2,Win32,165.0165017,,,,,,,,,,,,,,,,,,,,,,,438.129,439.199,a,1,0.412,,[],[],[],[],[],[],[],0.412,1,439.199,439.696,,,,,,287,MAS,CON,150,plato,,l,439.696,439.696,0.888194444,-0.005555556,0,0,0,,0,198,198,286,1,,,,
,,,,,,,2ea7826337495084686e4629,66a626ef09d4e21e1a8894ec,6735ef74eb28d6b77f656c38,2024-11-14_13h39.23.509,Tarea de género gramatical,2024.2.2,Win32,165.0165017,,,,,,,,,,,,,,,,,,,,,,,439.697,440.622,l,1,0.268,,[],[],[],[],[],[],[],0.268,1,440.624,441.12,,,,,,129,FEM,DIS,150,rana,el,a,441.12,441.12,0.888194444,-0.005555556,0,0,0,,0,199,199,128,1,,,,
,,,,,,,2ea7826337495084686e4629,66a626ef09d4e21e1a8894ec,6735ef74eb28d6b77f656c38,2024-11-14_13h39.23.509,Tarea de género gramatical,2024.2.2,Win32,165.0165017,,,,,,,,,,,,,,,,,,,,,,,441.121,442.089,a,1,0.312,,[],[],[],[],[],[],[],0.312,1,442.09,442.586,,,,,,10,MAS,AGR,150,niño,el,l,442.587,442.589,0.888194444,-0.005555556,0,0,0,,0,200,200,9,1,,,,
,,,,,,,2ea7826337495084686e4629,66a626ef09d4e21e1a8894ec,6735ef74eb28d6b77f656c38,2024-11-14_13h39.23.509,Tarea de género gramatical,2024.2.2,Win32,165.0165017,,,,,,,,,,,,,,,,,,,,,,,442.589,443.508,l,1,0.261,,[],[],[],[],[],[],[],0.261,1,443.508,444.004,,,,,,326,FEM,CON,150,música,,a,444.005,444.005,0.888194444,-0.005555556,0,0,0,,0,201,201,325,1,,,,
,,,,,,,2ea7826337495084686e4629,66a626ef09d4e21e1a8894ec,6735ef74eb28d6b77f656c38,2024-11-14_13h39.23.509,Tarea de género gramatical,2024.2.2,Win32,165.0165017,,,,,,,,,,,,,,,,,,,,,,,444.005,445.078,a,1,0.413,,[],[],[],[],[],[],[],0.413,1,445.078,445.574,,,,,,82,MAS,AGR,150,tubo,el,l,445.574,445.575,0.888194444,-0.005555556,0,0,0,,0,202,202,81,1,,,,
,,,,,,,2ea7826337495084686e4629,66a626ef09d4e21e1a8894ec,6735ef74eb28d6b77f656c38,2024-11-14_13h39.23.509,Tarea de género gramatical,2024.2.2,Win32,165.0165017,,,,,,,,,,,,,,,,,,,,,,,445.576,446.532,l,1,0.297,,[],[],[],[],[],[],[],0.297,1,446.532,447.028,,,,,,248,FEM,CON,150,letra,,a,447.029,447.029,0.888194444,-0.005555556,0,0,0,,0,203,203,247,1,,,,
,,,,,,,2ea7826337495084686e4629,66a626ef09d4e21e1a8894ec,6735ef74eb28d6b77f656c38,2024-11-14_13h39.23.509,Tarea de género gramatical,2024.2.2,Win32,165.0165017,,,,,,,,,,,,,,,,,,,,,,,447.03,448.126,a,1,0.437,,[],[],[],[],[],[],[],0.437,1,448.126,448.623,,,,,,294,MAS,DIS,150,cable,la,l,448.624,448.625,0.888194444,-0.005555556,0,0,0,,0,204,204,293,1,,,,
,,,,,,,2ea7826337495084686e4629,66a626ef09d4e21e1a8894ec,6735ef74eb28d6b77f656c38,2024-11-14_13h39.23.509,Tarea de género gramatical,2024.2.2,Win32,165.0165017,,,,,,,,,,,,,,,,,,,,,,,448.626,449.61,a,1,0.329,,[],[],[],[],[],[],[],0.329,1,449.611,450.108,,,,,,396,MAS,DIS,150,tesoro,la,l,450.108,450.108,0.888194444,-0.005555556,0,0,0,,0,205,205,395,1,,,,
,,,,,,,2ea7826337495084686e4629,66a626ef09d4e21e1a8894ec,6735ef74eb28d6b77f656c38,2024-11-14_13h39.23.509,Tarea de género gramatical,2024.2.2,Win32,165.0165017,,,,,,,,,,,,,,,,,,,,,,,450.109,451.047,l,1,0.281,,[],[],[],[],[],[],[],0.281,1,451.048,451.544,,,,,,1,FEM,AGR,150,casa,la,a,451.544,451.544,0.888194444,-0.005555556,0,0,0,,0,206,206,0,1,,,,
,,,,,,,2ea7826337495084686e4629,66a626ef09d4e21e1a8894ec,6735ef74eb28d6b77f656c38,2024-11-14_13h39.23.509,Tarea de género gramatical,2024.2.2,Win32,165.0165017,,,,,,,,,,,,,,,,,,,,,,,451.545,452.46,a,0,0.256,,[],[],[],[],[],[],[],0.256,0,452.461,452.956,,,,,,309,FEM,DIS,150,esposa,el,a,452.956,452.956,0.888194444,-0.005555556,0,0,0,,0,207,207,308,1,,,,
,,,,,,,2ea7826337495084686e4629,66a626ef09d4e21e1a8894ec,6735ef74eb28d6b77f656c38,2024-11-14_13h39.23.509,Tarea de género gramatical,2024.2.2,Win32,165.0165017,,,,,,,,,,,,,,,,,,,,,,,452.957,454.181,l,1,0.564,,[],[],[],[],[],[],[],0.564,1,454.182,454.678,,,,,,39,FEM,DIS,150,luna,el,a,454.678,454.678,0.888194444,-0.005555556,0,0,0,,0,208,208,38,1,,,,
,,,,,,,2ea7826337495084686e4629,66a626ef09d4e21e1a8894ec,6735ef74eb28d6b77f656c38,2024-11-14_13h39.23.509,Tarea de género gramatical,2024.2.2,Win32,165.0165017,,,,,,,,,,,,,,,,,,,,,,,454.679,455.714,l,1,0.378,,[],[],[],[],[],[],[],0.378,1,455.714,456.211,,,,,,327,FEM,DIS,150,tienda,el,a,456.212,456.213,0.888194444,-0.005555556,0,0,0,,0,209,209,326,1,,,,
,,,,,,,2ea7826337495084686e4629,66a626ef09d4e21e1a8894ec,6735ef74eb28d6b77f656c38,2024-11-14_13h39.23.509,Tarea de género gramatical,2024.2.2,Win32,165.0165017,,,,,,,,,,,,,,,,,,,,,,,456.214,457.211,a,1,0.338,,[],[],[],[],[],[],[],0.338,1,457.211,457.708,,,,,,71,MAS,CON,150,pozo,,l,457.708,457.708,0.888194444,-0.005555556,0,0,0,,0,210,210,70,1,,,,
,,,,,,,2ea7826337495084686e4629,66a626ef09d4e21e1a8894ec,6735ef74eb28d6b77f656c38,2024-11-14_13h39.23.509,Tarea de género gramatical,2024.2.2,Win32,165.0165017,,,,,,,,,,,,,,,,,,,,,,,457.709,458.787,l,1,0.422,,[],[],[],[],[],[],[],0.422,1,458.788,459.283,,,,,,320,FEM,CON,150,fiesta,,a,459.283,459.284,0.888194444,-0.005555556,0,0,0,,0,211,211,319,1,,,,
,,,,,,,2ea7826337495084686e4629,66a626ef09d4e21e1a8894ec,6735ef74eb28d6b77f656c38,2024-11-14_13h39.23.509,Tarea de género gramatical,2024.2.2,Win32,165.0165017,,,,,,,,,,,,,,,,,,,,,,,459.285,460.453,l,1,0.511,,[],[],[],[],[],[],[],0.511,1,460.453,460.951,,,,,,303,FEM,DIS,150,maldad,el,a,460.951,460.951,0.888194444,-0.005555556,0,0,0,,0,212,212,302,1,,,,
,,,,,,,2ea7826337495084686e4629,66a626ef09d4e21e1a8894ec,6735ef74eb28d6b77f656c38,2024-11-14_13h39.23.509,Tarea de género gramatical,2024.2.2,Win32,165.0165017,,,,,,,,,,,,,,,,,,,,,,,460.952,461.926,a,1,0.316,,[],[],[],[],[],[],[],0.316,1,461.926,462.423,,,,,,136,MAS,AGR,150,vago,el,l,462.424,462.426,0.888194444,-0.005555556,0,0,0,,0,213,213,135,1,,,,
,,,,,,,2ea7826337495084686e4629,66a626ef09d4e21e1a8894ec,6735ef74eb28d6b77f656c38,2024-11-14_13h39.23.509,Tarea de género gramatical,2024.2.2,Win32,165.0165017,,,,,,,,,,,,,,,,,,,,,,,462.426,463.677,a,1,0.595,,[],[],[],[],[],[],[],0.595,1,463.678,464.175,,,,,,222,MAS,DIS,150,valor,la,l,464.175,464.175,0.888194444,-0.005555556,0,0,0,,0,214,214,221,1,,,,
,,,,,,,2ea7826337495084686e4629,66a626ef09d4e21e1a8894ec,6735ef74eb28d6b77f656c38,2024-11-14_13h39.23.509,Tarea de género gramatical,2024.2.2,Win32,165.0165017,,,,,,,,,,,,,,,,,,,,,,,464.176,465.199,l,1,0.364,,[],[],[],[],[],[],[],0.364,1,465.2,465.696,,,,,,337,FEM,AGR,150,escena,la,a,465.696,465.696,0.888194444,-0.005555556,0,0,0,,0,215,215,336,1,,,,
,,,,,,,2ea7826337495084686e4629,66a626ef09d4e21e1a8894ec,6735ef74eb28d6b77f656c38,2024-11-14_13h39.23.509,Tarea de género gramatical,2024.2.2,Win32,165.0165017,,,,,,,,,,,,,,,,,,,,,,,465.698,466.732,a,1,0.376,,[],[],[],[],[],[],[],0.376,1,466.732,467.229,,,,,,311,MAS,CON,150,camino,,l,467.229,467.229,0.888194444,-0.005555556,0,0,0,,0,216,216,310,1,,,,
,,,,,,,2ea7826337495084686e4629,66a626ef09d4e21e1a8894ec,6735ef74eb28d6b77f656c38,2024-11-14_13h39.23.509,Tarea de género gramatical,2024.2.2,Win32,165.0165017,,,,,,,,,,,,,,,,,,,,,,,467.23,468.199,a,1,0.31,,[],[],[],[],[],[],[],0.31,1,468.199,468.696,,,,,,244,MAS,AGR,150,hielo,el,l,468.696,468.696,0.888194444,-0.005555556,0,0,0,,0,217,217,243,1,,,,
,,,,,,,2ea7826337495084686e4629,66a626ef09d4e21e1a8894ec,6735ef74eb28d6b77f656c38,2024-11-14_13h39.23.509,Tarea de género gramatical,2024.2.2,Win32,165.0165017,,,,,,,,,,,,,,,,,,,,,,,468.697,469.842,l,1,0.488,,[],[],[],[],[],[],[],0.488,1,469.842,470.338,,,,,,171,FEM,DIS,150,mitad,el,a,470.339,470.341,0.888194444,-0.005555556,0,0,0,,0,218,218,170,1,,,,
,,,,,,,2ea7826337495084686e4629,66a626ef09d4e21e1a8894ec,6735ef74eb28d6b77f656c38,2024-11-14_13h39.23.509,Tarea de género gramatical,2024.2.2,Win32,165.0165017,,,,,,,,,,,,,,,,,,,,,,,470.341,471.611,a,1,0.614,,[],[],[],[],[],[],[],0.614,1,471.613,472.115,,,,,,108,MAS,DIS,150,hilo,la,l,472.115,472.116,0.888194444,-0.005555556,0,0,0,,0,219,219,107,1,,,,
,,,,,,,2ea7826337495084686e4629,66a626ef09d4e21e1a8894ec,6735ef74eb28d6b77f656c38,2024-11-14_13h39.23.509,Tarea de género gramatical,2024.2.2,Win32,165.0165017,,,,,,,,,,,,,,,,,,,,,,,472.118,473.429,a,1,0.655,,[],[],[],[],[],[],[],0.655,1,473.43,473.926,,,,,,84,MAS,DIS,150,mago,la,l,473.926,473.927,0.888194444,-0.005555556,0,0,0,,0,220,220,83,1,,,,
,,,,,,,2ea7826337495084686e4629,66a626ef09d4e21e1a8894ec,6735ef74eb28d6b77f656c38,2024-11-14_13h39.23.509,Tarea de género gramatical,2024.2.2,Win32,165.0165017,,,,,,,,,,,,,,,,,,,,,,,473.928,474.939,a,1,0.356,,[],[],[],[],[],[],[],0.356,1,474.939,475.435,,,,,,382,MAS,AGR,150,teatro,el,l,475.436,475.436,0.888194444,-0.005555556,0,0,0,,0,221,221,381,1,,,,
,,,,,,,2ea7826337495084686e4629,66a626ef09d4e21e1a8894ec,6735ef74eb28d6b77f656c38,2024-11-14_13h39.23.509,Tarea de género gramatical,2024.2.2,Win32,165.0165017,,,,,,,,,,,,,,,,,,,,,,,475.437,476.46,a,1,0.365,,[],[],[],[],[],[],[],0.365,1,476.46,476.957,,,,,,166,MAS,AGR,150,coche,el,l,476.958,476.96,0.888194444,-0.005555556,0,0,0,,0,222,222,165,1,,,,
,,,,,,,2ea7826337495084686e4629,66a626ef09d4e21e1a8894ec,6735ef74eb28d6b77f656c38,2024-11-14_13h39.23.509,Tarea de género gramatical,2024.2.2,Win32,165.0165017,,,,,,,,,,,,,,,,,,,,,,,476.961,477.915,l,1,0.299,,[],[],[],[],[],[],[],0.299,1,477.915,478.412,,,,,,391,FEM,AGR,150,altura,la,a,478.412,478.412,0.888194444,-0.005555556,0,0,0,,0,223,223,390,1,,,,
,,,,,,,2ea7826337495084686e4629,66a626ef09d4e21e1a8894ec,6735ef74eb28d6b77f656c38,2024-11-14_13h39.23.509,Tarea de género gramatical,2024.2.2,Win32,165.0165017,,,,,,,,,,,,,,,,,,,,,,,478.413,479.576,l,1,0.504,,[],[],[],[],[],[],[],0.504,1,479.576,480.072,,,,,,177,FEM,DIS,150,broma,el,a,480.072,480.072,0.888194444,-0.005555556,0,0,0,,0,224,224,176,1,,,,
,,,,,,,2ea7826337495084686e4629,66a626ef09d4e21e1a8894ec,6735ef74eb28d6b77f656c38,2024-11-14_13h39.23.509,Tarea de género gramatical,2024.2.2,Win32,165.0165017,,,,,,,,,,,,,,,,,,,,,,,480.073,481.005,a,1,0.273,,[],[],[],[],[],[],[],0.273,1,481.005,481.502,,,,,,245,MAS,CON,150,turno,,l,481.502,481.503,0.888194444,-0.005555556,0,0,0,,0,225,225,244,1,,,,
,,,,,,,2ea7826337495084686e4629,66a626ef09d4e21e1a8894ec,6735ef74eb28d6b77f656c38,2024-11-14_13h39.23.509,Tarea de género gramatical,2024.2.2,Win32,165.0165017,,,,,,,,,,,,,,,,,,,,,,,481.504,482.46,a,1,0.299,,[],[],[],[],[],[],[],0.299,1,482.46,482.957,,,,,,184,MAS,AGR,150,cielo,el,l,482.957,482.957,0.888194444,-0.005555556,0,0,0,,0,226,226,183,1,,,,
,,,,,,,2ea7826337495084686e4629,66a626ef09d4e21e1a8894ec,6735ef74eb28d6b77f656c38,2024-11-14_13h39.23.509,Tarea de género gramatical,2024.2.2,Win32,165.0165017,,,,,,,,,,,,,,,,,,,,,,,482.958,483.927,a,1,0.31,,[],[],[],[],[],[],[],0.31,1,483.928,484.424,,,,,,306,MAS,DIS,150,dinero,la,l,484.425,484.427,0.888194444,-0.005555556,0,0,0,,0,227,227,305,1,,,,
,,,,,,,2ea7826337495084686e4629,66a626ef09d4e21e1a8894ec,6735ef74eb28d6b77f656c38,2024-11-14_13h39.23.509,Tarea de género gramatical,2024.2.2,Win32,165.0165017,,,,,,,,,,,,,,,,,,,,,,,484.428,485.375,a,1,0.293,,[],[],[],[],[],[],[],0.293,1,485.375,485.872,,,,,,196,MAS,AGR,150,barco,el,l,485.872,485.873,0.888194444,-0.005555556,0,0,0,,0,228,228,195,1,,,,
,,,,,,,2ea7826337495084686e4629,66a626ef09d4e21e1a8894ec,6735ef74eb28d6b77f656c38,2024-11-14_13h39.23.509,Tarea de género gramatical,2024.2.2,Win32,165.0165017,,,,,,,,,,,,,,,,,,,,,,,485.874,486.867,l,1,0.336,,[],[],[],[],[],[],[],0.336,1,486.867,487.363,,,,,,57,FEM,DIS,150,moda,el,a,487.364,487.364,0.888194444,-0.005555556,0,0,0,,0,229,229,56,1,,,,
,,,,,,,2ea7826337495084686e4629,66a626ef09d4e21e1a8894ec,6735ef74eb28d6b77f656c38,2024-11-14_13h39.23.509,Tarea de género gramatical,2024.2.2,Win32,165.0165017,,,,,,,,,,,,,,,,,,,,,,,487.365,488.303,a,1,0.279,,[],[],[],[],[],[],[],0.279,1,488.303,488.799,,,,,,330,MAS,DIS,150,estado,la,l,488.799,488.799,0.888194444,-0.005555556,0,0,0,,0,230,230,329,1,,,,
,,,,,,,2ea7826337495084686e4629,66a626ef09d4e21e1a8894ec,6735ef74eb28d6b77f656c38,2024-11-14_13h39.23.509,Tarea de género gramatical,2024.2.2,Win32,165.0165017,,,,,,,,,,,,,,,,,,,,,,,488.801,489.908,a,0,0.449,,[],[],[],[],[],[],[],0.449,0,489.91,490.406,,,,,,128,FEM,CON,150,leña,,a,490.407,490.408,0.888194444,-0.005555556,0,0,0,,0,231,231,127,1,,,,
,,,,,,,2ea7826337495084686e4629,66a626ef09d4e21e1a8894ec,6735ef74eb28d6b77f656c38,2024-11-14_13h39.23.509,Tarea de género gramatical,2024.2.2,Win32,165.0165017,,,,,,,,,,,,,,,,,,,,,,,490.409,491.557,l,1,0.492,,[],[],[],[],[],[],[],0.492,1,491.558,492.054,,,,,,55,FEM,AGR,150,taza,la,a,492.054,492.054,0.888194444,-0.005555556,0,0,0,,0,232,232,54,1,,,,
,,,,,,,2ea7826337495084686e4629,66a626ef09d4e21e1a8894ec,6735ef74eb28d6b77f656c38,2024-11-14_13h39.23.509,Tarea de género gramatical,2024.2.2,Win32,165.0165017,,,,,,,,,,,,,,,,,,,,,,,492.055,493.127,a,1,0.413,,[],[],[],[],[],[],[],0.413,1,493.128,493.623,,,,,,432,MAS,DIS,150,océano,la,l,493.623,493.625,0.888194444,-0.005555556,0,0,0,,0,233,233,431,1,,,,
,,,,,,,2ea7826337495084686e4629,66a626ef09d4e21e1a8894ec,6735ef74eb28d6b77f656c38,2024-11-14_13h39.23.509,Tarea de género gramatical,2024.2.2,Win32,165.0165017,,,,,,,,,,,,,,,,,,,,,,,493.626,494.551,l,1,0.267,,[],[],[],[],[],[],[],0.267,1,494.552,495.048,,,,,,435,FEM,DIS,150,niebla,el,a,495.048,495.048,0.888194444,-0.005555556,0,0,0,,0,234,234,434,1,,,,
,,,,,,,2ea7826337495084686e4629,66a626ef09d4e21e1a8894ec,6735ef74eb28d6b77f656c38,2024-11-14_13h39.23.509,Tarea de género gramatical,2024.2.2,Win32,165.0165017,,,,,,,,,,,,,,,,,,,,,,,495.05,496.078,a,1,0.371,,[],[],[],[],[],[],[],0.371,1,496.079,496.575,,,,,,400,MAS,AGR,150,barrio,el,l,496.575,496.575,0.888194444,-0.005555556,0,0,0,,0,235,235,399,1,,,,
,,,,,,,2ea7826337495084686e4629,66a626ef09d4e21e1a8894ec,6735ef74eb28d6b77f656c38,2024-11-14_13h39.23.509,Tarea de género gramatical,2024.2.2,Win32,165.0165017,,,,,,,,,,,,,,,,,,,,,,,496.576,497.502,a,1,0.266,,[],[],[],[],[],[],[],0.266,1,497.503,497.999,,,,,,437,MAS,CON,150,hombro,,l,498,498.002,0.888194444,-0.005555556,0,0,0,,0,236,236,436,1,,,,
,,,,,,,2ea7826337495084686e4629,66a626ef09d4e21e1a8894ec,6735ef74eb28d6b77f656c38,2024-11-14_13h39.23.509,Tarea de género gramatical,2024.2.2,Win32,165.0165017,,,,,,,,,,,,,,,,,,,,,,,498.002,498.958,l,1,0.298,,[],[],[],[],[],[],[],0.298,1,498.958,499.454,,,,,,307,FEM,AGR,150,suerte,la,a,499.454,499.454,0.888194444,-0.005555556,0,0,0,,0,237,237,306,1,,,,
,,,,,,,2ea7826337495084686e4629,66a626ef09d4e21e1a8894ec,6735ef74eb28d6b77f656c38,2024-11-14_13h39.23.509,Tarea de género gramatical,2024.2.2,Win32,165.0165017,,,,,,,,,,,,,,,,,,,,,,,499.455,500.327,a,1,0.214,,[],[],[],[],[],[],[],0.214,1,500.328,500.824,,,,,,4,MAS,AGR,150,hijo,el,l,500.824,500.824,0.888194444,-0.005555556,0,0,0,,0,238,238,3,1,,,,
,,,,,,,2ea7826337495084686e4629,66a626ef09d4e21e1a8894ec,6735ef74eb28d6b77f656c38,2024-11-14_13h39.23.509,Tarea de género gramatical,2024.2.2,Win32,165.0165017,,,,,,,,,,,,,,,,,,,,,,,500.825,501.691,a,0,0.208,,[],[],[],[],[],[],[],0.208,0,501.691,502.188,,,,,,254,FEM,CON,150,caída,,a,502.188,502.188,0.888194444,-0.005555556,0,0,0,,0,239,239,253,1,,,,
,,,,,,,2ea7826337495084686e4629,66a626ef09d4e21e1a8894ec,6735ef74eb28d6b77f656c38,2024-11-14_13h39.23.509,Tarea de género gramatical,2024.2.2,Win32,165.0165017,,,,,,,,,,,,,,,,,,,,,,,502.189,503.158,l,1,0.309,,[],[],[],[],[],[],[],0.309,1,503.158,503.654,,,,,,315,FEM,DIS,150,manera,el,a,503.655,503.656,0.888194444,-0.005555556,0,0,0,,0,240,240,314,1,,,,
,,,,,,,2ea7826337495084686e4629,66a626ef09d4e21e1a8894ec,6735ef74eb28d6b77f656c38,2024-11-14_13h39.23.509,Tarea de género gramatical,2024.2.2,Win32,165.0165017,,,,,,,,,,,,,,,,,,,,,,,503.657,504.607,a,1,0.292,,[],[],[],[],[],[],[],0.292,1,504.608,505.109,,,,,,390,MAS,DIS,150,rostro,la,l,505.109,505.11,0.888194444,-0.005555556,0,0,0,,0,241,241,389,1,,,,
,,,,,,,2ea7826337495084686e4629,66a626ef09d4e21e1a8894ec,6735ef74eb28d6b77f656c38,2024-11-14_13h39.23.509,Tarea de género gramatical,2024.2.2,Win32,165.0165017,,,,,,,,,,,,,,,,,,,,,,,505.113,506.018,l,1,0.251,,[],[],[],[],[],[],[],0.251,1,506.018,506.515,,,,,,423,FEM,DIS,150,poesía,el,a,506.515,506.515,0.888194444,-0.005555556,0,0,0,,0,242,242,422,1,,,,
,,,,,,,2ea7826337495084686e4629,66a626ef09d4e21e1a8894ec,6735ef74eb28d6b77f656c38,2024-11-14_13h39.23.509,Tarea de género gramatical,2024.2.2,Win32,165.0165017,,,,,,,,,,,,,,,,,,,,,,,506.516,507.509,a,0,0.333,,[],[],[],[],[],[],[],0.333,0,507.51,508.007,,,,,,15,FEM,DIS,150,cama,el,a,508.007,508.007,0.888194444,-0.005555556,0,0,0,,0,243,243,14,1,,,,
,,,,,,,2ea7826337495084686e4629,66a626ef09d4e21e1a8894ec,6735ef74eb28d6b77f656c38,2024-11-14_13h39.23.509,Tarea de género gramatical,2024.2.2,Win32,165.0165017,,,,,,,,,,,,,,,,,,,,,,,508.008,508.958,l,0,0.291,,[],[],[],[],[],[],[],0.291,0,508.958,509.455,,,,,,12,MAS,DIS,150,plan,la,l,509.455,509.455,0.888194444,-0.005555556,0,0,0,,0,244,244,11,1,,,,
,,,,,,,2ea7826337495084686e4629,66a626ef09d4e21e1a8894ec,6735ef74eb28d6b77f656c38,2024-11-14_13h39.23.509,Tarea de género gramatical,2024.2.2,Win32,165.0165017,,,,,,,,,,,,,,,,,,,,,,,509.456,510.431,a,1,0.317,,[],[],[],[],[],[],[],0.317,1,510.431,510.928,,,,,,88,MAS,AGR,150,pavo,el,l,510.929,510.93,0.888194444,-0.005555556,0,0,0,,0,245,245,87,1,,,,
,,,,,,,2ea7826337495084686e4629,66a626ef09d4e21e1a8894ec,6735ef74eb28d6b77f656c38,2024-11-14_13h39.23.509,Tarea de género gramatical,2024.2.2,Win32,165.0165017,,,,,,,,,,,,,,,,,,,,,,,510.931,512.03,a,1,0.445,,[],[],[],[],[],[],[],0.445,1,512.031,512.528,,,,,,65,MAS,CON,150,rayo,,l,512.528,512.528,0.888194444,-0.005555556,0,0,0,,0,246,246,64,1,,,,
,,,,,,,2ea7826337495084686e4629,66a626ef09d4e21e1a8894ec,6735ef74eb28d6b77f656c38,2024-11-14_13h39.23.509,Tarea de género gramatical,2024.2.2,Win32,165.0165017,,,,,,,,,,,,,,,,,,,,,,,512.529,513.479,l,1,0.292,,[],[],[],[],[],[],[],0.292,1,513.48,513.976,,,,,,308,FEM,CON,150,semana,,a,513.976,513.976,0.888194444,-0.005555556,0,0,0,,0,247,247,307,1,,,,
,,,,,,,2ea7826337495084686e4629,66a626ef09d4e21e1a8894ec,6735ef74eb28d6b77f656c38,2024-11-14_13h39.23.509,Tarea de género gramatical,2024.2.2,Win32,165.0165017,,,,,,,,,,,,,,,,,,,,,,,513.977,514.958,l,1,0.322,,[],[],[],[],[],[],[],0.322,1,514.958,515.455,,,,,,181,FEM,AGR,150,tarde,la,a,515.455,515.455,0.888194444,-0.005555556,0,0,0,,0,248,248,180,1,,,,
,,,,,,,2ea7826337495084686e4629,66a626ef09d4e21e1a8894ec,6735ef74eb28d6b77f656c38,2024-11-14_13h39.23.509,Tarea de género gramatical,2024.2.2,Win32,165.0165017,,,,,,,,,,,,,,,,,,,,,,,515.456,516.382,a,1,0.265,,[],[],[],[],[],[],[],0.265,1,516.382,516.879,,,,,,34,MAS,AGR,150,gato,el,l,516.88,516.881,0.888194444,-0.005555556,0,0,0,,0,249,249,33,1,,,,
,,,,,,,2ea7826337495084686e4629,66a626ef09d4e21e1a8894ec,6735ef74eb28d6b77f656c38,2024-11-14_13h39.23.509,Tarea de género gramatical,2024.2.2,Win32,165.0165017,,,,,,,,,,,,,,,,,,,,,,,516.881,517.94,l,1,0.403,,[],[],[],[],[],[],[],0.403,1,517.94,518.437,,,,,,117,FEM,DIS,150,raya,el,a,518.437,518.437,0.888194444,-0.005555556,0,0,0,,0,250,250,116,1,,,,
,,,,,,,2ea7826337495084686e4629,66a626ef09d4e21e1a8894ec,6735ef74eb28d6b77f656c38,2024-11-14_13h39.23.509,Tarea de género gramatical,2024.2.2,Win32,165.0165017,,,,,,,,,,,,,,,,,,,,,,,518.438,519.443,l,1,0.348,,[],[],[],[],[],[],[],0.348,1,519.443,519.939,,,,,,249,FEM,DIS,150,crema,el,a,519.939,519.939,0.888194444,-0.005555556,0,0,0,,0,251,251,248,1,,,,
,,,,,,,2ea7826337495084686e4629,66a626ef09d4e21e1a8894ec,6735ef74eb28d6b77f656c38,2024-11-14_13h39.23.509,Tarea de género gramatical,2024.2.2,Win32,165.0165017,,,,,,,,,,,,,,,,,,,,,,,519.941,520.879,a,1,0.279,,[],[],[],[],[],[],[],0.279,1,520.879,521.376,,,,,,431,MAS,CON,150,veneno,,l,521.376,521.376,0.888194444,-0.005555556,0,0,0,,0,252,252,430,1,,,,
,,,,,,,2ea7826337495084686e4629,66a626ef09d4e21e1a8894ec,6735ef74eb28d6b77f656c38,2024-11-14_13h39.23.509,Tarea de género gramatical,2024.2.2,Win32,165.0165017,,,,,,,,,,,,,,,,,,,,,,,521.377,522.388,a,1,0.353,,[],[],[],[],[],[],[],0.353,1,522.389,522.885,,,,,,276,MAS,DIS,150,ritmo,la,l,522.885,522.885,0.888194444,-0.005555556,0,0,0,,0,253,253,275,1,,,,
,,,,,,,2ea7826337495084686e4629,66a626ef09d4e21e1a8894ec,6735ef74eb28d6b77f656c38,2024-11-14_13h39.23.509,Tarea de género gramatical,2024.2.2,Win32,165.0165017,,,,,,,,,,,,,,,,,,,,,,,522.886,523.843,a,1,0.299,,[],[],[],[],[],[],[],0.299,1,523.843,524.34,,,,,,239,MAS,CON,150,reloj,,l,524.341,524.342,0.888194444,-0.005555556,0,0,0,,0,254,254,238,1,,,,
,,,,,,,2ea7826337495084686e4629,66a626ef09d4e21e1a8894ec,6735ef74eb28d6b77f656c38,2024-11-14_13h39.23.509,Tarea de género gramatical,2024.2.2,Win32,165.0165017,,,,,,,,,,,,,,,,,,,,,,,524.342,525.346,a,1,0.349,,[],[],[],[],[],[],[],0.349,1,525.346,525.843,,,,,,329,MAS,CON,150,futuro,,l,525.843,525.843,0.888194444,-0.005555556,0,0,0,,0,255,255,328,1,,,,
,,,,,,,2ea7826337495084686e4629,66a626ef09d4e21e1a8894ec,6735ef74eb28d6b77f656c38,2024-11-14_13h39.23.509,Tarea de género gramatical,2024.2.2,Win32,165.0165017,,,,,,,,,,,,,,,,,,,,,,,525.844,526.733,l,1,0.231,,[],[],[],[],[],[],[],0.231,1,526.734,527.23,,,,,,87,FEM,DIS,150,risa,el,a,527.23,527.23,0.888194444,-0.005555556,0,0,0,,0,256,256,86,1,,,,
,,,,,,,2ea7826337495084686e4629,66a626ef09d4e21e1a8894ec,6735ef74eb28d6b77f656c38,2024-11-14_13h39.23.509,Tarea de género gramatical,2024.2.2,Win32,165.0165017,,,,,,,,,,,,,,,,,,,,,,,527.231,528.219,a,1,0.329,,[],[],[],[],[],[],[],0.329,1,528.219,528.716,,,,,,366,MAS,DIS,150,riesgo,la,l,528.716,528.716,0.888194444,-0.005555556,0,0,0,,0,257,257,365,1,,,,
