counterbalancing_condition,consent_prescreening.block_1/declare_consent,consent_prescreening.block_1/age_years,consent_prescreening.block_1/gender,consent_prescreening.block_1/language_disorder,consent_prescreening.block_1/first_language,PROLIFIC_PID,STUDY_ID,SESSION_ID,date,expName,psychopyVersion,OS,frameRate,check_prescreening_answers.started,check_prescreening_answers.stopped,Instructions.started,Instructions.stopped,instr_done_keyboard.keys,instr_done_keyboard.rt,instr_done_keyboard.duration,instr_done_touch.x,instr_done_touch.y,instr_done_touch.leftButton,instr_done_touch.midButton,instr_done_touch.rightButton,instruction_pages.thisRepN,instruction_pages.thisTrialN,instruction_pages.thisN,instruction_pages.thisIndex,instruction_pages.ran,pageN,phase,instruct_text,has_image,instruct_image,presentTrial.started,presentTrial.stopped,response.keys,response.corr,touch_resp.x,touch_resp.y,touch_resp.leftButton,touch_resp.midButton,touch_resp.rightButton,touch_resp.time,touch_resp.clicked_name,rt,corr,feedback.started,feedback.stopped,practice_trials.thisRepN,practice_trials.thisTrialN,practice_trials.thisN,practice_trials.thisIndex,practice_trials.ran,TrialID,StimulusType,Condition,PrimeDuration,Prime,Flanker,corrAns,response.rt,response.duration,Break.started,Break.stopped,break_done_touch.x,break_done_touch.y,break_done_touch.leftButton,break_done_touch.midButton,break_done_touch.rightButton,break_done_keyboard.keys,experiment_trials.thisRepN,experiment_trials.thisTrialN,experiment_trials.thisN,experiment_trials.thisIndex,experiment_trials.ran,break_done_keyboard.rt,break_done_keyboard.duration,End.started,End.stopped
1,"[""over_18"",""comfortable"",""read_info"",""consent_given""]",43,M,"[""none""]","[""spanish""]",2edf51f8949d03b147ec39cd,66a626ef09d4e21e1a8894ec,6734d686adf9e0db3f0fd93e,2024-11-13_17h40.48.771,Tarea de género gramatical,2024.2.2,MacIntel,62.5,,,,,,,,,,,,,,,,,,,,,,,,,,,,,,,,,,,,,,,,,,,,,,,,,,,,,,,,,,,,,,,,,,,,
,,,,,,2edf51f8949d03b147ec39cd,66a626ef09d4e21e1a8894ec,6734d686adf9e0db3f0fd93e,2024-11-13_17h40.48.771,Tarea de género gramatical,2024.2.2,MacIntel,62.5,12.7189,12.719,,,,,,,,,,,,,,,,,,,,,,,,,,,,,,,,,,,,,,,,,,,,,,,,,,,,,,,,,,,,,,,,,,
,,,,,,2edf51f8949d03b147ec39cd,66a626ef09d4e21e1a8894ec,6734d686adf9e0db3f0fd93e,2024-11-13_17h40.48.771,Tarea de género gramatical,2024.2.2,MacIntel,62.5,,,12.7329,22.8776,space,10.0954,,0.00607427,-0.074035348,0,0,0,0,0,0,0,1,1,instructions,"INSTRUCCIONES
Va a realizar una prueba de selección gramatical. Desde el comienzo de la prueba mire siempre al centro de la pantalla. Al cabo de un momento, aparecerán palabras. La tarea consiste en determinar si la palabra del centro (siempre será un sustantivo), pertenece al género masculino o femenino.

Pulse la tecla ESPACIO o toque el botón de abajo para continuar.",0,keyboardresponseFM.png,,,,,,,,,,,,,,,,,,,,,,,,,,,,,,,,,,,,,,,,,,,,,,
,,,,,,2edf51f8949d03b147ec39cd,66a626ef09d4e21e1a8894ec,6734d686adf9e0db3f0fd93e,2024-11-13_17h40.48.771,Tarea de género gramatical,2024.2.2,MacIntel,62.5,,,22.8787,30.8248,space,7.8989,,0.00607427,-0.074035348,0,0,0,0,1,1,1,1,2,instructions,"Si su dispositivo tiene teclado, pulse la tecla ""A"" para las palabras en femenino (por ejemplo: ""mano"") y la tecla ""L"" para las palabras en masculino(por ejemplo: ""arroz"").
Pulse la tecla ESPACIO o toque el botón de abajo para continuar.",1,keyboardresponseFM.png,,,,,,,,,,,,,,,,,,,,,,,,,,,,,,,,,,,,,,,,,,,,,,
,,,,,,2edf51f8949d03b147ec39cd,66a626ef09d4e21e1a8894ec,6734d686adf9e0db3f0fd93e,2024-11-13_17h40.48.771,Tarea de género gramatical,2024.2.2,MacIntel,62.5,,,30.8258,41.3622,space,10.4987,,0.00607427,-0.074035348,0,0,0,0,2,2,2,1,3,instructions,"Si utiliza un dispositivo sólo táctil, colóquelo en horizontal y utilice los botones de la pantalla. No utilice el ratón.
Pulse la tecla ESPACIO o toque el botón de abajo para continuar.",2,touchresponseFM.png,,,,,,,,,,,,,,,,,,,,,,,,,,,,,,,,,,,,,,,,,,,,,,
,,,,,,2edf51f8949d03b147ec39cd,66a626ef09d4e21e1a8894ec,6734d686adf9e0db3f0fd93e,2024-11-13_17h40.48.771,Tarea de género gramatical,2024.2.2,MacIntel,62.5,,,41.3636,47.7188,space,6.3308,,0.00607427,-0.074035348,0,0,0,0,3,3,3,1,4,instructions,"Es muy importante que responda con la mayor rapidez y precisión posibles, ya que cada cadena de letras sólo estará en pantalla durante un instante. Si no responde en ese tiempo, aparecerá el mensaje ""Muy lento"" y el experimento pasará a la siguiente palabra. Los primeros 15 intentos serán de práctica y habrá dos descansos durante la prueba.
Pulse la tecla ESPACIO o toque el botón de abajo para iniciar la parte de práctica.",0,keyboardresponseFM.png,,,,,,,,,,,,,,,,,,,,,,,,,,,,,,,,,,,,,,,,,,,,,,
,,,,,,2edf51f8949d03b147ec39cd,66a626ef09d4e21e1a8894ec,6734d686adf9e0db3f0fd93e,2024-11-13_17h40.48.771,Tarea de género gramatical,2024.2.2,MacIntel,62.5,,,,,,,,,,,,,,,,,,,,,,,47.7307,50.3609,,0,[],[],[],[],[],[],[],,-1,50.3612,50.8454,0,0,0,3,1,2004,FEM,AGR,150,venta,la,a,,,,,,,,,,,,,,,,,,,
,,,,,,2edf51f8949d03b147ec39cd,66a626ef09d4e21e1a8894ec,6734d686adf9e0db3f0fd93e,2024-11-13_17h40.48.771,Tarea de género gramatical,2024.2.2,MacIntel,62.5,,,,,,,,,,,,,,,,,,,,,,,50.8461,52.8102,a,0,[],[],[],[],[],[],[],1.2781,0,52.8222,53.3014,0,1,1,14,1,2015,MAS,DIS,150,robot,la,l,1.2781,,,,,,,,,,,,,,,,,,
,,,,,,2edf51f8949d03b147ec39cd,66a626ef09d4e21e1a8894ec,6734d686adf9e0db3f0fd93e,2024-11-13_17h40.48.771,Tarea de género gramatical,2024.2.2,MacIntel,62.5,,,,,,,,,,,,,,,,,,,,,,,53.3021,54.9847,l,0,[],[],[],[],[],[],[],1.0051,0,54.9848,55.4882,0,2,2,5,1,2006,FEM,DIS,150,serie,el,a,1.0051,,,,,,,,,,,,,,,,,,
,,,,,,2edf51f8949d03b147ec39cd,66a626ef09d4e21e1a8894ec,6734d686adf9e0db3f0fd93e,2024-11-13_17h40.48.771,Tarea de género gramatical,2024.2.2,MacIntel,62.5,,,,,,,,,,,,,,,,,,,,,,,55.4888,56.744,a,0,[],[],[],[],[],[],[],0.5697,0,56.7442,57.2407,0,3,3,11,1,2012,MAS,DIS,150,clima,la,l,0.5697,,,,,,,,,,,,,,,,,,
,,,,,,2edf51f8949d03b147ec39cd,66a626ef09d4e21e1a8894ec,6734d686adf9e0db3f0fd93e,2024-11-13_17h40.48.771,Tarea de género gramatical,2024.2.2,MacIntel,62.5,,,,,,,,,,,,,,,,,,,,,,,57.2413,58.7837,l,1,[],[],[],[],[],[],[],0.8615,1,58.7843,59.2759,0,4,4,9,1,2010,MAS,AGR,150,vecino,el,l,0.8615,,,,,,,,,,,,,,,,,,
,,,,,,2edf51f8949d03b147ec39cd,66a626ef09d4e21e1a8894ec,6734d686adf9e0db3f0fd93e,2024-11-13_17h40.48.771,Tarea de género gramatical,2024.2.2,MacIntel,62.5,,,,,,,,,,,,,,,,,,,,,,,59.2764,61.1146,l,1,[],[],[],[],[],[],[],1.1601,1,61.1147,61.612,0,5,5,10,1,2011,MAS,CON,150,canal,,l,1.1601,,,,,,,,,,,,,,,,,,
,,,,,,2edf51f8949d03b147ec39cd,66a626ef09d4e21e1a8894ec,6734d686adf9e0db3f0fd93e,2024-11-13_17h40.48.771,Tarea de género gramatical,2024.2.2,MacIntel,62.5,,,,,,,,,,,,,,,,,,,,,,,61.6125,62.9743,l,1,[],[],[],[],[],[],[],0.6825,1,62.9743,63.4722,0,6,6,13,1,2014,MAS,CON,150,siglo,,l,0.6825,,,,,,,,,,,,,,,,,,
,,,,,,2edf51f8949d03b147ec39cd,66a626ef09d4e21e1a8894ec,6734d686adf9e0db3f0fd93e,2024-11-13_17h40.48.771,Tarea de género gramatical,2024.2.2,MacIntel,62.5,,,,,,,,,,,,,,,,,,,,,,,63.4728,65.3267,a,1,[],[],[],[],[],[],[],1.1682,1,65.3267,65.8126,0,7,7,4,1,2005,FEM,CON,150,placa,,a,1.1682,,,,,,,,,,,,,,,,,,
,,,,,,2edf51f8949d03b147ec39cd,66a626ef09d4e21e1a8894ec,6734d686adf9e0db3f0fd93e,2024-11-13_17h40.48.771,Tarea de género gramatical,2024.2.2,MacIntel,62.5,,,,,,,,,,,,,,,,,,,,,,,65.8133,67.1434,l,0,[],[],[],[],[],[],[],0.6462,0,67.1439,67.6308,0,8,8,2,1,2003,FEM,DIS,150,daga,el,a,0.6462,,,,,,,,,,,,,,,,,,
,,,,,,2edf51f8949d03b147ec39cd,66a626ef09d4e21e1a8894ec,6734d686adf9e0db3f0fd93e,2024-11-13_17h40.48.771,Tarea de género gramatical,2024.2.2,MacIntel,62.5,,,,,,,,,,,,,,,,,,,,,,,67.6314,69.1498,a,1,[],[],[],[],[],[],[],0.8341,1,69.1502,69.6456,0,9,9,6,1,2007,FEM,AGR,150,navaja,la,a,0.8341,,,,,,,,,,,,,,,,,,
,,,,,,2edf51f8949d03b147ec39cd,66a626ef09d4e21e1a8894ec,6734d686adf9e0db3f0fd93e,2024-11-13_17h40.48.771,Tarea de género gramatical,2024.2.2,MacIntel,62.5,,,,,,,,,,,,,,,,,,,,,,,69.6462,70.9863,l,1,[],[],[],[],[],[],[],0.6591,1,70.9864,71.475,0,10,10,12,1,2013,MAS,AGR,150,acero,el,l,0.6591,,,,,,,,,,,,,,,,,,
,,,,,,2edf51f8949d03b147ec39cd,66a626ef09d4e21e1a8894ec,6734d686adf9e0db3f0fd93e,2024-11-13_17h40.48.771,Tarea de género gramatical,2024.2.2,MacIntel,62.5,,,,,,,,,,,,,,,,,,,,,,,71.4756,72.9,a,1,[],[],[],[],[],[],[],0.745,1,72.9001,73.3895,0,11,11,7,1,2008,FEM,CON,150,siesta,,a,0.745,,,,,,,,,,,,,,,,,,
,,,,,,2edf51f8949d03b147ec39cd,66a626ef09d4e21e1a8894ec,6734d686adf9e0db3f0fd93e,2024-11-13_17h40.48.771,Tarea de género gramatical,2024.2.2,MacIntel,62.5,,,,,,,,,,,,,,,,,,,,,,,73.3902,74.5833,a,1,[],[],[],[],[],[],[],0.5073,1,74.5833,75.078,0,12,12,0,1,2001,FEM,AGR,150,nuca,la,a,0.5073,,,,,,,,,,,,,,,,,,
,,,,,,2edf51f8949d03b147ec39cd,66a626ef09d4e21e1a8894ec,6734d686adf9e0db3f0fd93e,2024-11-13_17h40.48.771,Tarea de género gramatical,2024.2.2,MacIntel,62.5,,,,,,,,,,,,,,,,,,,,,,,75.0786,76.7312,l,1,[],[],[],[],[],[],[],0.9779,1,76.7312,77.2245,0,13,13,8,1,2009,MAS,DIS,150,puerto,la,l,0.9779,,,,,,,,,,,,,,,,,,
,,,,,,2edf51f8949d03b147ec39cd,66a626ef09d4e21e1a8894ec,6734d686adf9e0db3f0fd93e,2024-11-13_17h40.48.771,Tarea de género gramatical,2024.2.2,MacIntel,62.5,,,,,,,,,,,,,,,,,,,,,,,77.2251,78.7664,a,1,[],[],[],[],[],[],[],0.8672,1,78.7664,79.2555,0,14,14,1,1,2002,FEM,CON,150,pala,,a,0.8672,,,,,,,,,,,,,,,,,,
,,,,,,2edf51f8949d03b147ec39cd,66a626ef09d4e21e1a8894ec,6734d686adf9e0db3f0fd93e,2024-11-13_17h40.48.771,Tarea de género gramatical,2024.2.2,MacIntel,62.5,,,83.4797,90.9382,space,7.4394,,-0.888505925,0.499680858,0,0,0,,,,,,,,,,,90.9613,92.5589,l,1,[],[],[],[],[],[],[],0.9117,1,92.5589,93.0556,,,,,,677,MAS,DIS,150,vuelo,la,l,0.9117,,93.0559,93.0576,-0.888505925,0.499680858,0,0,0,,0,0,0,226,1,,,,
,,,,,,2edf51f8949d03b147ec39cd,66a626ef09d4e21e1a8894ec,6734d686adf9e0db3f0fd93e,2024-11-13_17h40.48.771,Tarea de género gramatical,2024.2.2,MacIntel,62.5,,,,,,,,,,,,,,,,,,,,,,,93.0584,94.7091,l,1,[],[],[],[],[],[],[],0.9761,1,94.7091,95.2172,,,,,,756,MAS,AGR,150,dinero,el,l,0.9761,,95.2173,95.2173,-0.888505925,0.499680858,0,0,0,,0,1,1,305,1,,,,
,,,,,,2edf51f8949d03b147ec39cd,66a626ef09d4e21e1a8894ec,6734d686adf9e0db3f0fd93e,2024-11-13_17h40.48.771,Tarea de género gramatical,2024.2.2,MacIntel,62.5,,,,,,,,,,,,,,,,,,,,,,,95.2178,96.3501,a,1,[],[],[],[],[],[],[],0.4576,1,96.3501,96.839,,,,,,663,FEM,AGR,150,magia,la,a,0.4576,,96.8397,96.84,-0.888505925,0.499680858,0,0,0,,0,2,2,212,1,,,,
,,,,,,2edf51f8949d03b147ec39cd,66a626ef09d4e21e1a8894ec,6734d686adf9e0db3f0fd93e,2024-11-13_17h40.48.771,Tarea de género gramatical,2024.2.2,MacIntel,62.5,,,,,,,,,,,,,,,,,,,,,,,96.8404,98.9889,a,1,[],[],[],[],[],[],[],1.4658,1,98.989,99.4857,,,,,,782,FEM,DIS,150,basura,el,a,1.4658,,99.4858,99.4859,-0.888505925,0.499680858,0,0,0,,0,3,3,331,1,,,,
,,,,,,2edf51f8949d03b147ec39cd,66a626ef09d4e21e1a8894ec,6734d686adf9e0db3f0fd93e,2024-11-13_17h40.48.771,Tarea de género gramatical,2024.2.2,MacIntel,62.5,,,,,,,,,,,,,,,,,,,,,,,99.4863,100.828,l,0,[],[],[],[],[],[],[],0.6606,0,100.8284,101.3226,,,,,,560,FEM,DIS,150,rosa,el,a,0.6606,,101.3226,101.3227,-0.888505925,0.499680858,0,0,0,,0,4,4,109,1,,,,
,,,,,,2edf51f8949d03b147ec39cd,66a626ef09d4e21e1a8894ec,6734d686adf9e0db3f0fd93e,2024-11-13_17h40.48.771,Tarea de género gramatical,2024.2.2,MacIntel,62.5,,,,,,,,,,,,,,,,,,,,,,,101.3232,102.7204,a,1,[],[],[],[],[],[],[],0.7167,1,102.7208,103.2258,,,,,,871,FEM,CON,150,novela,,a,0.7167,,103.2258,103.2259,-0.888505925,0.499680858,0,0,0,,0,5,5,420,1,,,,
,,,,,,2edf51f8949d03b147ec39cd,66a626ef09d4e21e1a8894ec,6734d686adf9e0db3f0fd93e,2024-11-13_17h40.48.771,Tarea de género gramatical,2024.2.2,MacIntel,62.5,,,,,,,,,,,,,,,,,,,,,,,103.2265,104.7553,a,1,[],[],[],[],[],[],[],0.8471,1,104.7554,105.259,,,,,,555,FEM,AGR,150,jefa,la,a,0.8471,,105.2598,105.2601,-0.888505925,0.499680858,0,0,0,,0,6,6,104,1,,,,
,,,,,,2edf51f8949d03b147ec39cd,66a626ef09d4e21e1a8894ec,6734d686adf9e0db3f0fd93e,2024-11-13_17h40.48.771,Tarea de género gramatical,2024.2.2,MacIntel,62.5,,,,,,,,,,,,,,,,,,,,,,,105.2607,106.6768,l,1,[],[],[],[],[],[],[],0.7374,1,106.6768,107.1676,,,,,,760,MAS,CON,150,nombre,,l,0.7374,,107.1676,107.1676,-0.888505925,0.499680858,0,0,0,,0,7,7,309,1,,,,
,,,,,,2edf51f8949d03b147ec39cd,66a626ef09d4e21e1a8894ec,6734d686adf9e0db3f0fd93e,2024-11-13_17h40.48.771,Tarea de género gramatical,2024.2.2,MacIntel,62.5,,,,,,,,,,,,,,,,,,,,,,,107.1683,108.5791,l,1,[],[],[],[],[],[],[],0.7287,1,108.5792,109.0695,,,,,,550,MAS,CON,150,nido,,l,0.7287,,109.0696,109.0697,-0.888505925,0.499680858,0,0,0,,0,8,8,99,1,,,,
,,,,,,2edf51f8949d03b147ec39cd,66a626ef09d4e21e1a8894ec,6734d686adf9e0db3f0fd93e,2024-11-13_17h40.48.771,Tarea de género gramatical,2024.2.2,MacIntel,62.5,,,,,,,,,,,,,,,,,,,,,,,109.0703,110.5579,l,0,[],[],[],[],[],[],[],0.8154,0,110.5584,111.0533,,,,,,896,FEM,DIS,150,bañera,el,a,0.8154,,111.0533,111.0534,-0.888505925,0.499680858,0,0,0,,0,9,9,445,1,,,,
,,,,,,2edf51f8949d03b147ec39cd,66a626ef09d4e21e1a8894ec,6734d686adf9e0db3f0fd93e,2024-11-13_17h40.48.771,Tarea de género gramatical,2024.2.2,MacIntel,62.5,,,,,,,,,,,,,,,,,,,,,,,111.0539,112.5054,l,1,[],[],[],[],[],[],[],0.7778,1,112.5058,113.0109,,,,,,498,MAS,AGR,150,loco,el,l,0.7778,,113.011,113.0111,-0.888505925,0.499680858,0,0,0,,0,10,10,47,1,,,,
,,,,,,2edf51f8949d03b147ec39cd,66a626ef09d4e21e1a8894ec,6734d686adf9e0db3f0fd93e,2024-11-13_17h40.48.771,Tarea de género gramatical,2024.2.2,MacIntel,62.5,,,,,,,,,,,,,,,,,,,,,,,113.0116,114.3361,l,1,[],[],[],[],[],[],[],0.6517,1,114.3362,114.8404,,,,,,528,MAS,AGR,150,oído,el,l,0.6517,,114.8409,114.8412,-0.888505925,0.499680858,0,0,0,,0,11,11,77,1,,,,
,,,,,,2edf51f8949d03b147ec39cd,66a626ef09d4e21e1a8894ec,6734d686adf9e0db3f0fd93e,2024-11-13_17h40.48.771,Tarea de género gramatical,2024.2.2,MacIntel,62.5,,,,,,,,,,,,,,,,,,,,,,,114.8416,116.1885,l,1,[],[],[],[],[],[],[],0.67,1,116.1885,116.6947,,,,,,520,MAS,CON,150,palo,,l,0.67,,116.6948,116.6948,-0.888505925,0.499680858,0,0,0,,0,12,12,69,1,,,,
,,,,,,2edf51f8949d03b147ec39cd,66a626ef09d4e21e1a8894ec,6734d686adf9e0db3f0fd93e,2024-11-13_17h40.48.771,Tarea de género gramatical,2024.2.2,MacIntel,62.5,,,,,,,,,,,,,,,,,,,,,,,116.6954,118.0034,l,1,[],[],[],[],[],[],[],0.6268,1,118.0035,118.5061,,,,,,888,MAS,AGR,150,tanque,el,l,0.6268,,118.5061,118.5061,-0.888505925,0.499680858,0,0,0,,0,13,13,437,1,,,,
,,,,,,2edf51f8949d03b147ec39cd,66a626ef09d4e21e1a8894ec,6734d686adf9e0db3f0fd93e,2024-11-13_17h40.48.771,Tarea de género gramatical,2024.2.2,MacIntel,62.5,,,,,,,,,,,,,,,,,,,,,,,118.5067,119.7744,a,1,[],[],[],[],[],[],[],0.5873,1,119.7744,120.2656,,,,,,679,FEM,CON,150,celda,,a,0.5873,,120.2656,120.2657,-0.888505925,0.499680858,0,0,0,,0,14,14,228,1,,,,
,,,,,,2edf51f8949d03b147ec39cd,66a626ef09d4e21e1a8894ec,6734d686adf9e0db3f0fd93e,2024-11-13_17h40.48.771,Tarea de género gramatical,2024.2.2,MacIntel,62.5,,,,,,,,,,,,,,,,,,,,,,,120.2663,121.6995,l,1,[],[],[],[],[],[],[],0.7552,1,121.6996,122.1884,,,,,,563,MAS,DIS,150,toro,la,l,0.7552,,122.189,122.1893,-0.888505925,0.499680858,0,0,0,,0,15,15,112,1,,,,
,,,,,,2edf51f8949d03b147ec39cd,66a626ef09d4e21e1a8894ec,6734d686adf9e0db3f0fd93e,2024-11-13_17h40.48.771,Tarea de género gramatical,2024.2.2,MacIntel,62.5,,,,,,,,,,,,,,,,,,,,,,,122.1896,123.64,a,1,[],[],[],[],[],[],[],0.7694,1,123.6401,124.1331,,,,,,465,FEM,AGR,150,cama,la,a,0.7694,,124.1331,124.1333,-0.888505925,0.499680858,0,0,0,,0,16,16,14,1,,,,
,,,,,,2edf51f8949d03b147ec39cd,66a626ef09d4e21e1a8894ec,6734d686adf9e0db3f0fd93e,2024-11-13_17h40.48.771,Tarea de género gramatical,2024.2.2,MacIntel,62.5,,,,,,,,,,,,,,,,,,,,,,,124.1339,125.5948,l,1,[],[],[],[],[],[],[],0.7914,1,125.5948,126.087,,,,,,736,MAS,CON,150,reino,,l,0.7914,,126.087,126.0871,-0.888505925,0.499680858,0,0,0,,0,17,17,285,1,,,,
,,,,,,2edf51f8949d03b147ec39cd,66a626ef09d4e21e1a8894ec,6734d686adf9e0db3f0fd93e,2024-11-13_17h40.48.771,Tarea de género gramatical,2024.2.2,MacIntel,62.5,,,,,,,,,,,,,,,,,,,,,,,126.0876,127.9583,a,1,[],[],[],[],[],[],[],1.1907,1,127.9584,128.4524,,,,,,662,FEM,DIS,150,cinta,el,a,1.1907,,128.4525,128.4526,-0.888505925,0.499680858,0,0,0,,0,18,18,211,1,,,,
,,,,,,2edf51f8949d03b147ec39cd,66a626ef09d4e21e1a8894ec,6734d686adf9e0db3f0fd93e,2024-11-13_17h40.48.771,Tarea de género gramatical,2024.2.2,MacIntel,62.5,,,,,,,,,,,,,,,,,,,,,,,128.453,129.8654,l,1,[],[],[],[],[],[],[],0.7398,1,129.8655,130.3558,,,,,,856,MAS,CON,150,premio,,l,0.7398,,130.3558,130.3558,-0.888505925,0.499680858,0,0,0,,0,19,19,405,1,,,,
,,,,,,2edf51f8949d03b147ec39cd,66a626ef09d4e21e1a8894ec,6734d686adf9e0db3f0fd93e,2024-11-13_17h40.48.771,Tarea de género gramatical,2024.2.2,MacIntel,62.5,,,,,,,,,,,,,,,,,,,,,,,130.3563,131.5629,l,1,[],[],[],[],[],[],[],0.5322,1,131.5629,132.0504,,,,,,852,MAS,AGR,150,ladrón,el,l,0.5322,,132.0511,132.0514,-0.888505925,0.499680858,0,0,0,,0,20,20,401,1,,,,
,,,,,,2edf51f8949d03b147ec39cd,66a626ef09d4e21e1a8894ec,6734d686adf9e0db3f0fd93e,2024-11-13_17h40.48.771,Tarea de género gramatical,2024.2.2,MacIntel,62.5,,,,,,,,,,,,,,,,,,,,,,,132.0517,133.3114,l,1,[],[],[],[],[],[],[],0.5922,1,133.3115,133.8006,,,,,,724,MAS,CON,150,motor,,l,0.5922,,133.8006,133.8007,-0.888505925,0.499680858,0,0,0,,0,21,21,273,1,,,,
,,,,,,2edf51f8949d03b147ec39cd,66a626ef09d4e21e1a8894ec,6734d686adf9e0db3f0fd93e,2024-11-13_17h40.48.771,Tarea de género gramatical,2024.2.2,MacIntel,62.5,,,,,,,,,,,,,,,,,,,,,,,133.8013,135.2448,a,1,[],[],[],[],[],[],[],0.7693,1,135.2449,135.7335,,,,,,483,FEM,AGR,150,boda,la,a,0.7693,,135.7335,135.7336,-0.888505925,0.499680858,0,0,0,,0,22,22,32,1,,,,
,,,,,,2edf51f8949d03b147ec39cd,66a626ef09d4e21e1a8894ec,6734d686adf9e0db3f0fd93e,2024-11-13_17h40.48.771,Tarea de género gramatical,2024.2.2,MacIntel,62.5,,,,,,,,,,,,,,,,,,,,,,,135.734,137.6138,l,0,[],[],[],[],[],[],[],1.1934,0,137.6142,138.1073,,,,,,818,FEM,DIS,150,gracia,el,a,1.1934,,138.1073,138.1073,-0.888505925,0.499680858,0,0,0,,0,23,23,367,1,,,,
,,,,,,2edf51f8949d03b147ec39cd,66a626ef09d4e21e1a8894ec,6734d686adf9e0db3f0fd93e,2024-11-13_17h40.48.771,Tarea de género gramatical,2024.2.2,MacIntel,62.5,,,,,,,,,,,,,,,,,,,,,,,138.1078,140.0084,l,1,[],[],[],[],[],[],[],1.2243,1,140.0089,140.4903,,,,,,803,MAS,DIS,150,verano,la,l,1.2243,,140.4911,140.4918,-0.888505925,0.499680858,0,0,0,,0,24,24,352,1,,,,
,,,,,,2edf51f8949d03b147ec39cd,66a626ef09d4e21e1a8894ec,6734d686adf9e0db3f0fd93e,2024-11-13_17h40.48.771,Tarea de género gramatical,2024.2.2,MacIntel,62.5,,,,,,,,,,,,,,,,,,,,,,,140.4925,141.8669,l,1,[],[],[],[],[],[],[],0.7042,1,141.867,142.3632,,,,,,750,MAS,AGR,150,túnel,el,l,0.7042,,142.3633,142.3633,-0.888505925,0.499680858,0,0,0,,0,25,25,299,1,,,,
,,,,,,2edf51f8949d03b147ec39cd,66a626ef09d4e21e1a8894ec,6734d686adf9e0db3f0fd93e,2024-11-13_17h40.48.771,Tarea de género gramatical,2024.2.2,MacIntel,62.5,,,,,,,,,,,,,,,,,,,,,,,142.3639,143.8605,l,1,[],[],[],[],[],[],[],0.8188,1,143.8606,144.3654,,,,,,791,MAS,DIS,150,precio,la,l,0.8188,,144.3654,144.3654,-0.888505925,0.499680858,0,0,0,,0,26,26,340,1,,,,
,,,,,,2edf51f8949d03b147ec39cd,66a626ef09d4e21e1a8894ec,6734d686adf9e0db3f0fd93e,2024-11-13_17h40.48.771,Tarea de género gramatical,2024.2.2,MacIntel,62.5,,,,,,,,,,,,,,,,,,,,,,,144.366,145.513,a,1,[],[],[],[],[],[],[],0.4708,1,145.5131,146.0049,,,,,,775,FEM,CON,150,tierra,,a,0.4708,,146.0049,146.005,-0.888505925,0.499680858,0,0,0,,0,27,27,324,1,,,,
,,,,,,2edf51f8949d03b147ec39cd,66a626ef09d4e21e1a8894ec,6734d686adf9e0db3f0fd93e,2024-11-13_17h40.48.771,Tarea de género gramatical,2024.2.2,MacIntel,62.5,,,,,,,,,,,,,,,,,,,,,,,146.0056,147.3688,l,1,[],[],[],[],[],[],[],0.6845,1,147.3688,147.8586,,,,,,846,MAS,AGR,150,tesoro,el,l,0.6845,,147.8586,147.8587,-0.888505925,0.499680858,0,0,0,,0,28,28,395,1,,,,
,,,,,,2edf51f8949d03b147ec39cd,66a626ef09d4e21e1a8894ec,6734d686adf9e0db3f0fd93e,2024-11-13_17h40.48.771,Tarea de género gramatical,2024.2.2,MacIntel,62.5,,,,,,,,,,,,,,,,,,,,,,,147.8592,149.5238,l,0,[],[],[],[],[],[],[],0.989,0,149.5243,150.0133,,,,,,872,FEM,DIS,150,rutina,el,a,0.989,,150.0139,150.0143,-0.888505925,0.499680858,0,0,0,,0,29,29,421,1,,,,
,,,,,,2edf51f8949d03b147ec39cd,66a626ef09d4e21e1a8894ec,6734d686adf9e0db3f0fd93e,2024-11-13_17h40.48.771,Tarea de género gramatical,2024.2.2,MacIntel,62.5,,,,,,,,,,,,,,,,,,,,,,,150.0146,151.4642,l,1,[],[],[],[],[],[],[],0.7763,1,151.4646,151.9556,,,,,,461,MAS,DIS,150,país,la,l,0.7763,,151.9556,151.9557,-0.888505925,0.499680858,0,0,0,,0,30,30,10,1,,,,
,,,,,,2edf51f8949d03b147ec39cd,66a626ef09d4e21e1a8894ec,6734d686adf9e0db3f0fd93e,2024-11-13_17h40.48.771,Tarea de género gramatical,2024.2.2,MacIntel,62.5,,,,,,,,,,,,,,,,,,,,,,,151.9563,153.3203,a,1,[],[],[],[],[],[],[],0.6834,1,153.3203,153.8099,,,,,,764,FEM,DIS,150,señora,el,a,0.6834,,153.8099,153.8099,-0.888505925,0.499680858,0,0,0,,0,31,31,313,1,,,,
,,,,,,2edf51f8949d03b147ec39cd,66a626ef09d4e21e1a8894ec,6734d686adf9e0db3f0fd93e,2024-11-13_17h40.48.771,Tarea de género gramatical,2024.2.2,MacIntel,62.5,,,,,,,,,,,,,,,,,,,,,,,153.8105,155.1174,l,1,[],[],[],[],[],[],[],0.6224,1,155.1175,155.6211,,,,,,875,MAS,DIS,150,chiste,la,l,0.6224,,155.6211,155.6212,-0.888505925,0.499680858,0,0,0,,0,32,32,424,1,,,,
,,,,,,2edf51f8949d03b147ec39cd,66a626ef09d4e21e1a8894ec,6734d686adf9e0db3f0fd93e,2024-11-13_17h40.48.771,Tarea de género gramatical,2024.2.2,MacIntel,62.5,,,,,,,,,,,,,,,,,,,,,,,155.6218,157.1685,a,1,[],[],[],[],[],[],[],0.8783,1,157.1685,157.6731,,,,,,590,FEM,DIS,150,mula,el,a,0.8783,,157.6738,157.6741,-0.888505925,0.499680858,0,0,0,,0,33,33,139,1,,,,
,,,,,,2edf51f8949d03b147ec39cd,66a626ef09d4e21e1a8894ec,6734d686adf9e0db3f0fd93e,2024-11-13_17h40.48.771,Tarea de género gramatical,2024.2.2,MacIntel,62.5,,,,,,,,,,,,,,,,,,,,,,,157.6744,158.9734,a,1,[],[],[],[],[],[],[],0.6293,1,158.9735,159.4666,,,,,,878,FEM,DIS,150,jugada,el,a,0.6293,,159.4666,159.4667,-0.888505925,0.499680858,0,0,0,,0,34,34,427,1,,,,
,,,,,,2edf51f8949d03b147ec39cd,66a626ef09d4e21e1a8894ec,6734d686adf9e0db3f0fd93e,2024-11-13_17h40.48.771,Tarea de género gramatical,2024.2.2,MacIntel,62.5,,,,,,,,,,,,,,,,,,,,,,,159.4672,160.6459,a,1,[],[],[],[],[],[],[],0.5097,1,160.646,161.1359,,,,,,537,FEM,AGR,150,risa,la,a,0.5097,,161.1359,161.136,-0.888505925,0.499680858,0,0,0,,0,35,35,86,1,,,,
,,,,,,2edf51f8949d03b147ec39cd,66a626ef09d4e21e1a8894ec,6734d686adf9e0db3f0fd93e,2024-11-13_17h40.48.771,Tarea de género gramatical,2024.2.2,MacIntel,62.5,,,,,,,,,,,,,,,,,,,,,,,161.1365,162.5684,l,1,[],[],[],[],[],[],[],0.7458,1,162.5684,163.0667,,,,,,798,MAS,AGR,150,anillo,el,l,0.7458,,163.0667,163.0668,-0.888505925,0.499680858,0,0,0,,0,36,36,347,1,,,,
,,,,,,2edf51f8949d03b147ec39cd,66a626ef09d4e21e1a8894ec,6734d686adf9e0db3f0fd93e,2024-11-13_17h40.48.771,Tarea de género gramatical,2024.2.2,MacIntel,62.5,,,,,,,,,,,,,,,,,,,,,,,163.0671,164.6237,a,1,[],[],[],[],[],[],[],0.8707,1,164.6237,165.1142,,,,,,477,FEM,AGR,150,mesa,la,a,0.8707,,165.1142,165.1143,-0.888505925,0.499680858,0,0,0,,0,37,37,26,1,,,,
,,,,,,2edf51f8949d03b147ec39cd,66a626ef09d4e21e1a8894ec,6734d686adf9e0db3f0fd93e,2024-11-13_17h40.48.771,Tarea de género gramatical,2024.2.2,MacIntel,62.5,,,,,,,,,,,,,,,,,,,,,,,165.1148,166.3665,l,1,[],[],[],[],[],[],[],0.5738,1,166.3666,166.8634,,,,,,504,MAS,AGR,150,humo,el,l,0.5738,,166.864,166.8643,-0.888505925,0.499680858,0,0,0,,0,38,38,53,1,,,,
,,,,,,2edf51f8949d03b147ec39cd,66a626ef09d4e21e1a8894ec,6734d686adf9e0db3f0fd93e,2024-11-13_17h40.48.771,Tarea de género gramatical,2024.2.2,MacIntel,62.5,,,,,,,,,,,,,,,,,,,,,,,166.8646,168.413,a,1,[],[],[],[],[],[],[],0.8662,1,168.4131,168.9133,,,,,,854,FEM,DIS,150,gloria,el,a,0.8662,,168.9133,168.9134,-0.888505925,0.499680858,0,0,0,,0,39,39,403,1,,,,
,,,,,,2edf51f8949d03b147ec39cd,66a626ef09d4e21e1a8894ec,6734d686adf9e0db3f0fd93e,2024-11-13_17h40.48.771,Tarea de género gramatical,2024.2.2,MacIntel,62.5,,,,,,,,,,,,,,,,,,,,,,,168.9139,170.1899,a,1,[],[],[],[],[],[],[],0.5997,1,170.19,170.682,,,,,,865,FEM,CON,150,cabina,,a,0.5997,,170.682,170.682,-0.888505925,0.499680858,0,0,0,,0,40,40,414,1,,,,
,,,,,,2edf51f8949d03b147ec39cd,66a626ef09d4e21e1a8894ec,6734d686adf9e0db3f0fd93e,2024-11-13_17h40.48.771,Tarea de género gramatical,2024.2.2,MacIntel,62.5,,,,,,,,,,,,,,,,,,,,,,,170.6826,172.0764,l,1,[],[],[],[],[],[],[],0.725,1,172.0765,172.5707,,,,,,552,MAS,AGR,150,coro,el,l,0.725,,172.5707,172.5707,-0.888505925,0.499680858,0,0,0,,0,41,41,101,1,,,,
,,,,,,2edf51f8949d03b147ec39cd,66a626ef09d4e21e1a8894ec,6734d686adf9e0db3f0fd93e,2024-11-13_17h40.48.771,Tarea de género gramatical,2024.2.2,MacIntel,62.5,,,,,,,,,,,,,,,,,,,,,,,172.5712,173.7506,l,1,[],[],[],[],[],[],[],0.5042,1,173.7507,174.2498,,,,,,714,MAS,AGR,150,pollo,el,l,0.5042,,174.2503,174.2507,-0.888505925,0.499680858,0,0,0,,0,42,42,263,1,,,,
,,,,,,2edf51f8949d03b147ec39cd,66a626ef09d4e21e1a8894ec,6734d686adf9e0db3f0fd93e,2024-11-13_17h40.48.771,Tarea de género gramatical,2024.2.2,MacIntel,62.5,,,,,,,,,,,,,,,,,,,,,,,174.2509,176.1056,l,1,[],[],[],[],[],[],[],1.1853,1,176.1057,176.5914,,,,,,719,MAS,DIS,150,primo,la,l,1.1853,,176.5915,176.5916,-0.888505925,0.499680858,0,0,0,,0,43,43,268,1,,,,
,,,,,,2edf51f8949d03b147ec39cd,66a626ef09d4e21e1a8894ec,6734d686adf9e0db3f0fd93e,2024-11-13_17h40.48.771,Tarea de género gramatical,2024.2.2,MacIntel,62.5,,,,,,,,,,,,,,,,,,,,,,,176.5922,177.7879,a,1,[],[],[],[],[],[],[],0.5264,1,177.788,178.2836,,,,,,637,FEM,CON,150,lista,,a,0.5264,,178.2836,178.2837,-0.888505925,0.499680858,0,0,0,,0,44,44,186,1,,,,
,,,,,,2edf51f8949d03b147ec39cd,66a626ef09d4e21e1a8894ec,6734d686adf9e0db3f0fd93e,2024-11-13_17h40.48.771,Tarea de género gramatical,2024.2.2,MacIntel,62.5,,,,,,,,,,,,,,,,,,,,,,,178.2843,180.9231,,0,[],[],[],[],[],[],[],0.5264,-1,180.9235,181.4162,,,,,,538,MAS,CON,150,pavo,,l,,,181.4162,181.4162,-0.888505925,0.499680858,0,0,0,,0,45,45,87,1,,,,
,,,,,,2edf51f8949d03b147ec39cd,66a626ef09d4e21e1a8894ec,6734d686adf9e0db3f0fd93e,2024-11-13_17h40.48.771,Tarea de género gramatical,2024.2.2,MacIntel,62.5,,,,,,,,,,,,,,,,,,,,,,,181.4169,182.7867,l,1,[],[],[],[],[],[],[],0.6947,1,182.7871,183.2872,,,,,,827,MAS,DIS,150,jardín,la,l,0.6947,,183.2872,183.2873,-0.888505925,0.499680858,0,0,0,,0,46,46,376,1,,,,
,,,,,,2edf51f8949d03b147ec39cd,66a626ef09d4e21e1a8894ec,6734d686adf9e0db3f0fd93e,2024-11-13_17h40.48.771,Tarea de género gramatical,2024.2.2,MacIntel,62.5,,,,,,,,,,,,,,,,,,,,,,,183.2879,184.8624,l,1,[],[],[],[],[],[],[],0.905,1,184.8625,185.342,,,,,,557,MAS,DIS,150,cubo,la,l,0.905,,185.3427,185.3431,-0.888505925,0.499680858,0,0,0,,0,47,47,106,1,,,,
,,,,,,2edf51f8949d03b147ec39cd,66a626ef09d4e21e1a8894ec,6734d686adf9e0db3f0fd93e,2024-11-13_17h40.48.771,Tarea de género gramatical,2024.2.2,MacIntel,62.5,,,,,,,,,,,,,,,,,,,,,,,185.3434,186.688,a,1,[],[],[],[],[],[],[],0.6715,1,186.688,187.1884,,,,,,813,FEM,AGR,150,unidad,la,a,0.6715,,187.1885,187.1886,-0.888505925,0.499680858,0,0,0,,0,48,48,362,1,,,,
,,,,,,2edf51f8949d03b147ec39cd,66a626ef09d4e21e1a8894ec,6734d686adf9e0db3f0fd93e,2024-11-13_17h40.48.771,Tarea de género gramatical,2024.2.2,MacIntel,62.5,,,,,,,,,,,,,,,,,,,,,,,187.189,188.4498,l,1,[],[],[],[],[],[],[],0.5789,1,188.4498,188.9443,,,,,,658,MAS,CON,150,suelo,,l,0.5789,,188.9444,188.9444,-0.888505925,0.499680858,0,0,0,,0,49,49,207,1,,,,
,,,,,,2edf51f8949d03b147ec39cd,66a626ef09d4e21e1a8894ec,6734d686adf9e0db3f0fd93e,2024-11-13_17h40.48.771,Tarea de género gramatical,2024.2.2,MacIntel,62.5,,,,,,,,,,,,,,,,,,,,,,,188.945,190.2447,a,1,[],[],[],[],[],[],[],0.6168,1,190.2448,190.7451,,,,,,525,FEM,AGR,150,caza,la,a,0.6168,,190.7451,190.7452,-0.888505925,0.499680858,0,0,0,,0,50,50,74,1,,,,
,,,,,,2edf51f8949d03b147ec39cd,66a626ef09d4e21e1a8894ec,6734d686adf9e0db3f0fd93e,2024-11-13_17h40.48.771,Tarea de género gramatical,2024.2.2,MacIntel,62.5,,,,,,,,,,,,,,,,,,,,,,,190.7458,191.9389,a,1,[],[],[],[],[],[],[],0.5084,1,191.9391,192.4402,,,,,,523,FEM,CON,150,roca,,a,0.5084,,192.4409,192.4412,-0.888505925,0.499680858,0,0,0,,0,51,51,72,1,,,,
,,,,,,2edf51f8949d03b147ec39cd,66a626ef09d4e21e1a8894ec,6734d686adf9e0db3f0fd93e,2024-11-13_17h40.48.771,Tarea de género gramatical,2024.2.2,MacIntel,62.5,,,,,,,,,,,,,,,,,,,,,,,192.4415,193.7252,l,1,[],[],[],[],[],[],[],0.6138,1,193.7253,194.2302,,,,,,556,MAS,CON,150,test,,l,0.6138,,194.2304,194.2308,-0.888505925,0.499680858,0,0,0,,0,52,52,105,1,,,,
,,,,,,2edf51f8949d03b147ec39cd,66a626ef09d4e21e1a8894ec,6734d686adf9e0db3f0fd93e,2024-11-13_17h40.48.771,Tarea de género gramatical,2024.2.2,MacIntel,62.5,,,,,,,,,,,,,,,,,,,,,,,194.2318,196.0483,a,1,[],[],[],[],[],[],[],1.1488,1,196.0483,196.5411,,,,,,644,FEM,DIS,150,banda,el,a,1.1488,,196.5411,196.5411,-0.888505925,0.499680858,0,0,0,,0,53,53,193,1,,,,
,,,,,,2edf51f8949d03b147ec39cd,66a626ef09d4e21e1a8894ec,6734d686adf9e0db3f0fd93e,2024-11-13_17h40.48.771,Tarea de género gramatical,2024.2.2,MacIntel,62.5,,,,,,,,,,,,,,,,,,,,,,,196.5417,197.7468,l,1,[],[],[],[],[],[],[],0.522,1,197.7469,198.2511,,,,,,593,MAS,DIS,150,faro,la,l,0.522,,198.2511,198.2513,-0.888505925,0.499680858,0,0,0,,0,54,54,142,1,,,,
,,,,,,2edf51f8949d03b147ec39cd,66a626ef09d4e21e1a8894ec,6734d686adf9e0db3f0fd93e,2024-11-13_17h40.48.771,Tarea de género gramatical,2024.2.2,MacIntel,62.5,,,,,,,,,,,,,,,,,,,,,,,198.2518,199.6601,l,1,[],[],[],[],[],[],[],0.7344,1,199.6601,200.1494,,,,,,767,MAS,DIS,150,número,la,l,0.7344,,200.1494,200.1495,-0.888505925,0.499680858,0,0,0,,0,55,55,316,1,,,,
,,,,,,2edf51f8949d03b147ec39cd,66a626ef09d4e21e1a8894ec,6734d686adf9e0db3f0fd93e,2024-11-13_17h40.48.771,Tarea de género gramatical,2024.2.2,MacIntel,62.5,,,,,,,,,,,,,,,,,,,,,,,200.15,201.4215,a,1,[],[],[],[],[],[],[],0.5941,1,201.4216,201.9116,,,,,,481,FEM,CON,150,edad,,a,0.5941,,201.9122,201.9129,-0.888505925,0.499680858,0,0,0,,0,56,56,30,1,,,,
,,,,,,2edf51f8949d03b147ec39cd,66a626ef09d4e21e1a8894ec,6734d686adf9e0db3f0fd93e,2024-11-13_17h40.48.771,Tarea de género gramatical,2024.2.2,MacIntel,62.5,,,,,,,,,,,,,,,,,,,,,,,201.9135,203.1429,l,1,[],[],[],[],[],[],[],0.5521,1,203.143,203.6426,,,,,,490,MAS,CON,150,dios,,l,0.5521,,203.6426,203.6427,-0.888505925,0.499680858,0,0,0,,0,57,57,39,1,,,,
,,,,,,2edf51f8949d03b147ec39cd,66a626ef09d4e21e1a8894ec,6734d686adf9e0db3f0fd93e,2024-11-13_17h40.48.771,Tarea de género gramatical,2024.2.2,MacIntel,62.5,,,,,,,,,,,,,,,,,,,,,,,203.6432,205.2484,a,1,[],[],[],[],[],[],[],0.9277,1,205.2484,205.7427,,,,,,566,FEM,DIS,150,nube,el,a,0.9277,,205.7427,205.7427,-0.888505925,0.499680858,0,0,0,,0,58,58,115,1,,,,
,,,,,,2edf51f8949d03b147ec39cd,66a626ef09d4e21e1a8894ec,6734d686adf9e0db3f0fd93e,2024-11-13_17h40.48.771,Tarea de género gramatical,2024.2.2,MacIntel,62.5,,,,,,,,,,,,,,,,,,,,,,,205.7433,207.0046,l,1,[],[],[],[],[],[],[],0.5833,1,207.0047,207.5088,,,,,,695,MAS,DIS,150,turno,la,l,0.5833,,207.5088,207.5089,-0.888505925,0.499680858,0,0,0,,0,59,59,244,1,,,,
,,,,,,2edf51f8949d03b147ec39cd,66a626ef09d4e21e1a8894ec,6734d686adf9e0db3f0fd93e,2024-11-13_17h40.48.771,Tarea de género gramatical,2024.2.2,MacIntel,62.5,,,,,,,,,,,,,,,,,,,,,,,207.5095,208.8115,l,1,[],[],[],[],[],[],[],0.6207,1,208.8116,209.306,,,,,,786,MAS,AGR,150,crimen,el,l,0.6207,,209.3067,209.3072,-0.888505925,0.499680858,0,0,0,,0,60,60,335,1,,,,
,,,,,,2edf51f8949d03b147ec39cd,66a626ef09d4e21e1a8894ec,6734d686adf9e0db3f0fd93e,2024-11-13_17h40.48.771,Tarea de género gramatical,2024.2.2,MacIntel,62.5,,,,,,,,,,,,,,,,,,,,,,,209.308,210.9333,a,0,[],[],[],[],[],[],[],0.9498,0,210.9338,211.4311,,,,,,551,MAS,DIS,150,giro,la,l,0.9498,,211.4312,211.4312,-0.888505925,0.499680858,0,0,0,,0,61,61,100,1,,,,
,,,,,,2edf51f8949d03b147ec39cd,66a626ef09d4e21e1a8894ec,6734d686adf9e0db3f0fd93e,2024-11-13_17h40.48.771,Tarea de género gramatical,2024.2.2,MacIntel,62.5,,,,,,,,,,,,,,,,,,,,,,,211.4318,212.5795,l,1,[],[],[],[],[],[],[],0.4675,1,212.58,213.0694,,,,,,466,MAS,CON,150,baño,,l,0.4675,,213.0694,213.0694,-0.888505925,0.499680858,0,0,0,,0,62,62,15,1,,,,
,,,,,,2edf51f8949d03b147ec39cd,66a626ef09d4e21e1a8894ec,6734d686adf9e0db3f0fd93e,2024-11-13_17h40.48.771,Tarea de género gramatical,2024.2.2,MacIntel,62.5,,,,,,,,,,,,,,,,,,,,,,,213.07,214.2582,l,1,[],[],[],[],[],[],[],0.5097,1,214.2582,214.7532,,,,,,496,MAS,CON,150,odio,,l,0.5097,,214.7532,214.7533,-0.888505925,0.499680858,0,0,0,,0,63,63,45,1,,,,
,,,,,,2edf51f8949d03b147ec39cd,66a626ef09d4e21e1a8894ec,6734d686adf9e0db3f0fd93e,2024-11-13_17h40.48.771,Tarea de género gramatical,2024.2.2,MacIntel,62.5,,,,,,,,,,,,,,,,,,,,,,,214.7538,215.9908,l,1,[],[],[],[],[],[],[],0.5667,1,215.9908,216.4659,,,,,,706,MAS,CON,150,techo,,l,0.5667,,216.4659,216.4659,-0.888505925,0.499680858,0,0,0,,0,64,64,255,1,,,,
,,,,,,2edf51f8949d03b147ec39cd,66a626ef09d4e21e1a8894ec,6734d686adf9e0db3f0fd93e,2024-11-13_17h40.48.771,Tarea de género gramatical,2024.2.2,MacIntel,62.5,,,,,,,,,,,,,,,,,,,,,,,216.4665,217.6785,a,1,[],[],[],[],[],[],[],0.5286,1,217.6785,218.1678,,,,,,836,FEM,DIS,150,sombra,el,a,0.5286,,218.1684,218.1688,-0.888505925,0.499680858,0,0,0,,0,65,65,385,1,,,,
,,,,,,2edf51f8949d03b147ec39cd,66a626ef09d4e21e1a8894ec,6734d686adf9e0db3f0fd93e,2024-11-13_17h40.48.771,Tarea de género gramatical,2024.2.2,MacIntel,62.5,,,,,,,,,,,,,,,,,,,,,,,218.1692,219.6386,a,1,[],[],[],[],[],[],[],0.79,1,219.6386,220.1319,,,,,,619,FEM,CON,150,vista,,a,0.79,,220.1319,220.1321,-0.888505925,0.499680858,0,0,0,,0,66,66,168,1,,,,
,,,,,,2edf51f8949d03b147ec39cd,66a626ef09d4e21e1a8894ec,6734d686adf9e0db3f0fd93e,2024-11-13_17h40.48.771,Tarea de género gramatical,2024.2.2,MacIntel,62.5,,,,,,,,,,,,,,,,,,,,,,,220.1326,221.4343,l,1,[],[],[],[],[],[],[],0.6176,1,221.4343,221.9227,,,,,,768,MAS,AGR,150,pueblo,el,l,0.6176,,221.9228,221.9228,-0.888505925,0.499680858,0,0,0,,0,67,67,317,1,,,,
,,,,,,2edf51f8949d03b147ec39cd,66a626ef09d4e21e1a8894ec,6734d686adf9e0db3f0fd93e,2024-11-13_17h40.48.771,Tarea de género gramatical,2024.2.2,MacIntel,62.5,,,,,,,,,,,,,,,,,,,,,,,221.9233,223.3891,l,1,[],[],[],[],[],[],[],0.7836,1,223.3892,223.8869,,,,,,893,MAS,DIS,150,templo,la,l,0.7836,,223.8869,223.8871,-0.888505925,0.499680858,0,0,0,,0,68,68,442,1,,,,
,,,,,,2edf51f8949d03b147ec39cd,66a626ef09d4e21e1a8894ec,6734d686adf9e0db3f0fd93e,2024-11-13_17h40.48.771,Tarea de género gramatical,2024.2.2,MacIntel,62.5,,,,,,,,,,,,,,,,,,,,,,,223.8875,225.316,a,1,[],[],[],[],[],[],[],0.7491,1,225.316,225.81,,,,,,795,FEM,AGR,150,pierna,la,a,0.7491,,225.8106,225.8111,-0.888505925,0.499680858,0,0,0,,0,69,69,344,1,,,,
,,,,,,2edf51f8949d03b147ec39cd,66a626ef09d4e21e1a8894ec,6734d686adf9e0db3f0fd93e,2024-11-13_17h40.48.771,Tarea de género gramatical,2024.2.2,MacIntel,62.5,,,,,,,,,,,,,,,,,,,,,,,225.8114,227.3167,a,1,[],[],[],[],[],[],[],0.8253,1,227.3167,227.8058,,,,,,746,FEM,DIS,150,feria,el,a,0.8253,,227.8058,227.8058,-0.888505925,0.499680858,0,0,0,,0,70,70,295,1,,,,
,,,,,,2edf51f8949d03b147ec39cd,66a626ef09d4e21e1a8894ec,6734d686adf9e0db3f0fd93e,2024-11-13_17h40.48.771,Tarea de género gramatical,2024.2.2,MacIntel,62.5,,,,,,,,,,,,,,,,,,,,,,,227.8064,229.4829,l,1,[],[],[],[],[],[],[],0.9923,1,229.483,229.971,,,,,,618,MAS,AGR,150,sitio,el,l,0.9923,,229.971,229.9711,-0.888505925,0.499680858,0,0,0,,0,71,71,167,1,,,,
,,,,,,2edf51f8949d03b147ec39cd,66a626ef09d4e21e1a8894ec,6734d686adf9e0db3f0fd93e,2024-11-13_17h40.48.771,Tarea de género gramatical,2024.2.2,MacIntel,62.5,,,,,,,,,,,,,,,,,,,,,,,229.9716,231.5365,a,1,[],[],[],[],[],[],[],0.8796,1,231.5366,232.0309,,,,,,500,FEM,DIS,150,dama,el,a,0.8796,,232.0309,232.031,-0.888505925,0.499680858,0,0,0,,0,72,72,49,1,,,,
,,,,,,2edf51f8949d03b147ec39cd,66a626ef09d4e21e1a8894ec,6734d686adf9e0db3f0fd93e,2024-11-13_17h40.48.771,Tarea de género gramatical,2024.2.2,MacIntel,62.5,,,,,,,,,,,,,,,,,,,,,,,232.0315,233.8078,l,1,[],[],[],[],[],[],[],1.1094,1,233.8078,234.2959,,,,,,544,MAS,CON,150,cabo,,l,1.1094,,234.2959,234.296,-0.888505925,0.499680858,0,0,0,,0,73,73,93,1,,,,
,,,,,,2edf51f8949d03b147ec39cd,66a626ef09d4e21e1a8894ec,6734d686adf9e0db3f0fd93e,2024-11-13_17h40.48.771,Tarea de género gramatical,2024.2.2,MacIntel,62.5,,,,,,,,,,,,,,,,,,,,,,,234.2966,236.0577,l,0,[],[],[],[],[],[],[],1.0918,0,236.0581,236.5535,,,,,,458,FEM,DIS,150,idea,el,a,1.0918,,236.5542,236.5546,-0.888505925,0.499680858,0,0,0,,0,74,74,7,1,,,,
,,,,,,2edf51f8949d03b147ec39cd,66a626ef09d4e21e1a8894ec,6734d686adf9e0db3f0fd93e,2024-11-13_17h40.48.771,Tarea de género gramatical,2024.2.2,MacIntel,62.5,,,,,,,,,,,,,,,,,,,,,,,236.5553,238.0264,l,1,[],[],[],[],[],[],[],0.7986,1,238.0269,238.5138,,,,,,526,MAS,CON,150,lujo,,l,0.7986,,238.5138,238.5139,-0.888505925,0.499680858,0,0,0,,0,75,75,75,1,,,,
,,,,,,2edf51f8949d03b147ec39cd,66a626ef09d4e21e1a8894ec,6734d686adf9e0db3f0fd93e,2024-11-13_17h40.48.771,Tarea de género gramatical,2024.2.2,MacIntel,62.5,,,,,,,,,,,,,,,,,,,,,,,238.5144,239.9099,l,1,[],[],[],[],[],[],[],0.7242,1,239.9099,240.4028,,,,,,700,MAS,CON,150,cerdo,,l,0.7242,,240.4029,240.403,-0.888505925,0.499680858,0,0,0,,0,76,76,249,1,,,,
,,,,,,2edf51f8949d03b147ec39cd,66a626ef09d4e21e1a8894ec,6734d686adf9e0db3f0fd93e,2024-11-13_17h40.48.771,Tarea de género gramatical,2024.2.2,MacIntel,62.5,,,,,,,,,,,,,,,,,,,,,,,240.4034,241.9409,l,0,[],[],[],[],[],[],[],0.8641,0,241.9414,242.4333,,,,,,602,FEM,DIS,150,gente,el,a,0.8641,,242.4333,242.4334,-0.888505925,0.499680858,0,0,0,,0,77,77,151,1,,,,
,,,,,,2edf51f8949d03b147ec39cd,66a626ef09d4e21e1a8894ec,6734d686adf9e0db3f0fd93e,2024-11-13_17h40.48.771,Tarea de género gramatical,2024.2.2,MacIntel,62.5,,,,,,,,,,,,,,,,,,,,,,,242.4339,243.609,a,1,[],[],[],[],[],[],[],0.5042,1,243.6095,244.0984,,,,,,849,FEM,AGR,150,charla,la,a,0.5042,,244.0991,244.0995,-0.888505925,0.499680858,0,0,0,,0,78,78,398,1,,,,
,,,,,,2edf51f8949d03b147ec39cd,66a626ef09d4e21e1a8894ec,6734d686adf9e0db3f0fd93e,2024-11-13_17h40.48.771,Tarea de género gramatical,2024.2.2,MacIntel,62.5,,,,,,,,,,,,,,,,,,,,,,,244.1001,245.2601,l,1,[],[],[],[],[],[],[],0.4863,1,245.2601,245.7493,,,,,,772,MAS,CON,150,minuto,,l,0.4863,,245.7493,245.7494,-0.888505925,0.499680858,0,0,0,,0,79,79,321,1,,,,
,,,,,,2edf51f8949d03b147ec39cd,66a626ef09d4e21e1a8894ec,6734d686adf9e0db3f0fd93e,2024-11-13_17h40.48.771,Tarea de género gramatical,2024.2.2,MacIntel,62.5,,,,,,,,,,,,,,,,,,,,,,,245.7501,247.2286,l,0,[],[],[],[],[],[],[],0.7943,0,247.229,247.7284,,,,,,841,FEM,CON,150,altura,,a,0.7943,,247.7285,247.7285,-0.888505925,0.499680858,0,0,0,,0,80,80,390,1,,,,
,,,,,,2edf51f8949d03b147ec39cd,66a626ef09d4e21e1a8894ec,6734d686adf9e0db3f0fd93e,2024-11-13_17h40.48.771,Tarea de género gramatical,2024.2.2,MacIntel,62.5,,,,,,,,,,,,,,,,,,,,,,,247.729,249.1034,a,1,[],[],[],[],[],[],[],0.7061,1,249.1039,249.5933,,,,,,741,FEM,AGR,150,aguja,la,a,0.7061,,249.5934,249.5934,-0.888505925,0.499680858,0,0,0,,0,81,81,290,1,,,,
,,,,,,2edf51f8949d03b147ec39cd,66a626ef09d4e21e1a8894ec,6734d686adf9e0db3f0fd93e,2024-11-13_17h40.48.771,Tarea de género gramatical,2024.2.2,MacIntel,62.5,,,,,,,,,,,,,,,,,,,,,,,249.594,251.3738,a,1,[],[],[],[],[],[],[],1.1107,1,251.3739,251.8734,,,,,,716,FEM,DIS,150,jaula,el,a,1.1107,,251.8735,251.8735,-0.888505925,0.499680858,0,0,0,,0,82,82,265,1,,,,
,,,,,,2edf51f8949d03b147ec39cd,66a626ef09d4e21e1a8894ec,6734d686adf9e0db3f0fd93e,2024-11-13_17h40.48.771,Tarea de género gramatical,2024.2.2,MacIntel,62.5,,,,,,,,,,,,,,,,,,,,,,,251.8741,252.9948,l,1,[],[],[],[],[],[],[],0.4351,1,252.9949,253.4848,,,,,,822,MAS,AGR,150,delito,el,l,0.4351,,253.4855,253.4859,-0.888505925,0.499680858,0,0,0,,0,83,83,371,1,,,,
,,,,,,2edf51f8949d03b147ec39cd,66a626ef09d4e21e1a8894ec,6734d686adf9e0db3f0fd93e,2024-11-13_17h40.48.771,Tarea de género gramatical,2024.2.2,MacIntel,62.5,,,,,,,,,,,,,,,,,,,,,,,253.4863,254.8513,l,1,[],[],[],[],[],[],[],0.6948,1,254.8513,255.3357,,,,,,828,MAS,AGR,150,pastel,el,l,0.6948,,255.3357,255.3358,-0.888505925,0.499680858,0,0,0,,0,84,84,377,1,,,,
,,,,,,2edf51f8949d03b147ec39cd,66a626ef09d4e21e1a8894ec,6734d686adf9e0db3f0fd93e,2024-11-13_17h40.48.771,Tarea de género gramatical,2024.2.2,MacIntel,62.5,,,,,,,,,,,,,,,,,,,,,,,255.3364,256.8665,l,1,[],[],[],[],[],[],[],0.8548,1,256.8665,257.3565,,,,,,839,MAS,DIS,150,tamaño,la,l,0.8548,,257.3565,257.3566,-0.888505925,0.499680858,0,0,0,,0,85,85,388,1,,,,
,,,,,,2edf51f8949d03b147ec39cd,66a626ef09d4e21e1a8894ec,6734d686adf9e0db3f0fd93e,2024-11-13_17h40.48.771,Tarea de género gramatical,2024.2.2,MacIntel,62.5,,,,,,,,,,,,,,,,,,,,,,,257.357,258.592,a,1,[],[],[],[],[],[],[],0.5629,1,258.592,259.08,,,,,,597,FEM,AGR,150,grúa,la,a,0.5629,,259.08,259.0801,-0.888505925,0.499680858,0,0,0,,0,86,86,146,1,,,,
,,,,,,2edf51f8949d03b147ec39cd,66a626ef09d4e21e1a8894ec,6734d686adf9e0db3f0fd93e,2024-11-13_17h40.48.771,Tarea de género gramatical,2024.2.2,MacIntel,62.5,,,,,,,,,,,,,,,,,,,,,,,259.0806,261.0457,l,0,[],[],[],[],[],[],[],1.2935,0,261.0462,261.5342,,,,,,476,FEM,DIS,150,pena,el,a,1.2935,,261.5349,261.5353,-0.888505925,0.499680858,0,0,0,,0,87,87,25,1,,,,
,,,,,,2edf51f8949d03b147ec39cd,66a626ef09d4e21e1a8894ec,6734d686adf9e0db3f0fd93e,2024-11-13_17h40.48.771,Tarea de género gramatical,2024.2.2,MacIntel,62.5,,,,,,,,,,,,,,,,,,,,,,,261.5356,263.1404,a,1,[],[],[],[],[],[],[],0.9279,1,263.1408,263.6353,,,,,,770,FEM,DIS,150,fiesta,el,a,0.9279,,263.6353,263.6354,-0.888505925,0.499680858,0,0,0,,0,88,88,319,1,,,,
,,,,,,2edf51f8949d03b147ec39cd,66a626ef09d4e21e1a8894ec,6734d686adf9e0db3f0fd93e,2024-11-13_17h40.48.771,Tarea de género gramatical,2024.2.2,MacIntel,62.5,,,,,,,,,,,,,,,,,,,,,,,263.6359,265.0164,a,1,[],[],[],[],[],[],[],0.7071,1,265.0165,265.5161,,,,,,843,FEM,AGR,150,alarma,la,a,0.7071,,265.5161,265.5162,-0.888505925,0.499680858,0,0,0,,0,89,89,392,1,,,,
,,,,,,2edf51f8949d03b147ec39cd,66a626ef09d4e21e1a8894ec,6734d686adf9e0db3f0fd93e,2024-11-13_17h40.48.771,Tarea de género gramatical,2024.2.2,MacIntel,62.5,,,,,,,,,,,,,,,,,,,,,,,265.5167,266.9142,l,1,[],[],[],[],[],[],[],0.7182,1,266.9143,267.4067,,,,,,630,MAS,AGR,150,fuego,el,l,0.7182,,267.4067,267.4067,-0.888505925,0.499680858,0,0,0,,0,90,90,179,1,,,,
,,,,,,2edf51f8949d03b147ec39cd,66a626ef09d4e21e1a8894ec,6734d686adf9e0db3f0fd93e,2024-11-13_17h40.48.771,Tarea de género gramatical,2024.2.2,MacIntel,62.5,,,,,,,,,,,,,,,,,,,,,,,267.4072,268.5629,a,1,[],[],[],[],[],[],[],0.4858,1,268.5629,269.0509,,,,,,531,FEM,AGR,150,cima,la,a,0.4858,,269.0509,269.0509,-0.888505925,0.499680858,0,0,0,,0,91,91,80,1,,,,
,,,,,,2edf51f8949d03b147ec39cd,66a626ef09d4e21e1a8894ec,6734d686adf9e0db3f0fd93e,2024-11-13_17h40.48.771,Tarea de género gramatical,2024.2.2,MacIntel,62.5,,,,,,,,,,,,,,,,,,,,,,,269.0514,270.341,l,1,[],[],[],[],[],[],[],0.611,1,270.3411,270.8452,,,,,,862,MAS,CON,150,espejo,,l,0.611,,270.8458,270.8465,-0.888505925,0.499680858,0,0,0,,0,92,92,411,1,,,,
,,,,,,2edf51f8949d03b147ec39cd,66a626ef09d4e21e1a8894ec,6734d686adf9e0db3f0fd93e,2024-11-13_17h40.48.771,Tarea de género gramatical,2024.2.2,MacIntel,62.5,,,,,,,,,,,,,,,,,,,,,,,270.8472,272.684,l,1,[],[],[],[],[],[],[],1.1597,1,272.684,273.1896,,,,,,587,MAS,DIS,150,coco,la,l,1.1597,,273.1896,273.1896,-0.888505925,0.499680858,0,0,0,,0,93,93,136,1,,,,
,,,,,,2edf51f8949d03b147ec39cd,66a626ef09d4e21e1a8894ec,6734d686adf9e0db3f0fd93e,2024-11-13_17h40.48.771,Tarea de género gramatical,2024.2.2,MacIntel,62.5,,,,,,,,,,,,,,,,,,,,,,,273.1902,275.0146,a,0,[],[],[],[],[],[],[],1.149,0,275.015,275.5033,,,,,,467,MAS,DIS,150,modo,la,l,1.149,,275.5034,275.5034,-0.888505925,0.499680858,0,0,0,,0,94,94,16,1,,,,
,,,,,,2edf51f8949d03b147ec39cd,66a626ef09d4e21e1a8894ec,6734d686adf9e0db3f0fd93e,2024-11-13_17h40.48.771,Tarea de género gramatical,2024.2.2,MacIntel,62.5,,,,,,,,,,,,,,,,,,,,,,,275.504,276.8244,a,1,[],[],[],[],[],[],[],0.6436,1,276.8249,277.316,,,,,,877,FEM,CON,150,agenda,,a,0.6436,,277.316,277.3162,-0.888505925,0.499680858,0,0,0,,0,95,95,426,1,,,,
,,,,,,2edf51f8949d03b147ec39cd,66a626ef09d4e21e1a8894ec,6734d686adf9e0db3f0fd93e,2024-11-13_17h40.48.771,Tarea de género gramatical,2024.2.2,MacIntel,62.5,,,,,,,,,,,,,,,,,,,,,,,277.3167,278.7422,l,1,[],[],[],[],[],[],[],0.7515,1,278.7423,279.237,,,,,,785,MAS,DIS,150,montón,la,l,0.7515,,279.2376,279.238,-0.888505925,0.499680858,0,0,0,,0,96,96,334,1,,,,
,,,,,,2edf51f8949d03b147ec39cd,66a626ef09d4e21e1a8894ec,6734d686adf9e0db3f0fd93e,2024-11-13_17h40.48.771,Tarea de género gramatical,2024.2.2,MacIntel,62.5,,,,,,,,,,,,,,,,,,,,,,,279.2387,280.8305,l,1,[],[],[],[],[],[],[],0.9214,1,280.8305,281.3332,,,,,,713,MAS,DIS,150,carro,la,l,0.9214,,281.3333,281.3333,-0.888505925,0.499680858,0,0,0,,0,97,97,262,1,,,,
,,,,,,2edf51f8949d03b147ec39cd,66a626ef09d4e21e1a8894ec,6734d686adf9e0db3f0fd93e,2024-11-13_17h40.48.771,Tarea de género gramatical,2024.2.2,MacIntel,62.5,,,,,,,,,,,,,,,,,,,,,,,281.3339,282.8544,l,1,[],[],[],[],[],[],[],0.846,1,282.8544,283.351,,,,,,690,MAS,AGR,150,ruido,el,l,0.846,,283.3511,283.3511,-0.888505925,0.499680858,0,0,0,,0,98,98,239,1,,,,
,,,,,,2edf51f8949d03b147ec39cd,66a626ef09d4e21e1a8894ec,6734d686adf9e0db3f0fd93e,2024-11-13_17h40.48.771,Tarea de género gramatical,2024.2.2,MacIntel,62.5,,,,,,,,,,,,,,,,,,,,,,,283.3516,284.9271,l,1,[],[],[],[],[],[],[],0.8899,1,284.9272,285.4177,,,,,,485,MAS,DIS,150,taxi,la,l,0.8899,,285.4177,285.4177,-0.888505925,0.499680858,0,0,0,,0,99,99,34,1,,,,
,,,,,,2edf51f8949d03b147ec39cd,66a626ef09d4e21e1a8894ec,6734d686adf9e0db3f0fd93e,2024-11-13_17h40.48.771,Tarea de género gramatical,2024.2.2,MacIntel,62.5,,,,,,,,,,,,,,,,,,,,,,,285.4182,286.5349,a,1,[],[],[],[],[],[],[],0.4412,1,286.535,287.0246,,,,,,511,FEM,CON,150,ruta,,a,0.4412,,287.0247,287.0247,-0.888505925,0.499680858,0,0,0,,0,100,100,60,1,,,,
,,,,,,2edf51f8949d03b147ec39cd,66a626ef09d4e21e1a8894ec,6734d686adf9e0db3f0fd93e,2024-11-13_17h40.48.771,Tarea de género gramatical,2024.2.2,MacIntel,62.5,,,,,,,,,,,,,,,,,,,,,,,287.0254,288.3702,a,1,[],[],[],[],[],[],[],0.6687,1,288.3702,288.8612,,,,,,885,FEM,AGR,150,niebla,la,a,0.6687,,288.8618,288.8622,-0.888505925,0.499680858,0,0,0,,0,101,101,434,1,,,,
,,,,,,2edf51f8949d03b147ec39cd,66a626ef09d4e21e1a8894ec,6734d686adf9e0db3f0fd93e,2024-11-13_17h40.48.771,Tarea de género gramatical,2024.2.2,MacIntel,62.5,,,,,,,,,,,,,,,,,,,,,,,288.8625,290.1923,l,1,[],[],[],[],[],[],[],0.6558,1,290.1923,290.6856,,,,,,562,MAS,CON,150,reto,,l,0.6558,,290.6856,290.6856,-0.888505925,0.499680858,0,0,0,,0,102,102,111,1,,,,
,,,,,,2edf51f8949d03b147ec39cd,66a626ef09d4e21e1a8894ec,6734d686adf9e0db3f0fd93e,2024-11-13_17h40.48.771,Tarea de género gramatical,2024.2.2,MacIntel,62.5,,,,,,,,,,,,,,,,,,,,,,,290.6862,291.8453,l,0,[],[],[],[],[],[],[],0.4751,0,291.8459,292.3352,,,,,,493,FEM,CON,150,nena,,a,0.4751,,292.3353,292.3353,-0.888505925,0.499680858,0,0,0,,0,103,103,42,1,,,,
,,,,,,2edf51f8949d03b147ec39cd,66a626ef09d4e21e1a8894ec,6734d686adf9e0db3f0fd93e,2024-11-13_17h40.48.771,Tarea de género gramatical,2024.2.2,MacIntel,62.5,,,,,,,,,,,,,,,,,,,,,,,292.3358,293.7688,a,1,[],[],[],[],[],[],[],0.7554,1,293.7693,294.2627,,,,,,571,FEM,CON,150,pila,,a,0.7554,,294.2627,294.2627,-0.888505925,0.499680858,0,0,0,,0,104,104,120,1,,,,
,,,,,,2edf51f8949d03b147ec39cd,66a626ef09d4e21e1a8894ec,6734d686adf9e0db3f0fd93e,2024-11-13_17h40.48.771,Tarea de género gramatical,2024.2.2,MacIntel,62.5,,,,,,,,,,,,,,,,,,,,,,,294.2633,295.9341,l,1,[],[],[],[],[],[],[],1.0021,1,295.9342,296.4242,,,,,,665,MAS,DIS,150,hueso,la,l,1.0021,,296.4247,296.4251,-0.888505925,0.499680858,0,0,0,,0,105,105,214,1,,,,
,,,,,,2edf51f8949d03b147ec39cd,66a626ef09d4e21e1a8894ec,6734d686adf9e0db3f0fd93e,2024-11-13_17h40.48.771,Tarea de género gramatical,2024.2.2,MacIntel,62.5,,,,,,,,,,,,,,,,,,,,,,,296.4254,297.8039,l,0,[],[],[],[],[],[],[],0.7065,0,297.8043,298.3063,,,,,,734,FEM,DIS,150,fruta,el,a,0.7065,,298.3063,298.3064,-0.888505925,0.499680858,0,0,0,,0,106,106,283,1,,,,
,,,,,,2edf51f8949d03b147ec39cd,66a626ef09d4e21e1a8894ec,6734d686adf9e0db3f0fd93e,2024-11-13_17h40.48.771,Tarea de género gramatical,2024.2.2,MacIntel,62.5,,,,,,,,,,,,,,,,,,,,,,,298.3068,299.7085,a,1,[],[],[],[],[],[],[],0.7282,1,299.709,300.1995,,,,,,765,FEM,AGR,150,manera,la,a,0.7282,,300.1995,300.1996,-0.888505925,0.499680858,0,0,0,,0,107,107,314,1,,,,
,,,,,,2edf51f8949d03b147ec39cd,66a626ef09d4e21e1a8894ec,6734d686adf9e0db3f0fd93e,2024-11-13_17h40.48.771,Tarea de género gramatical,2024.2.2,MacIntel,62.5,,,,,,,,,,,,,,,,,,,,,,,300.2001,301.6185,l,0,[],[],[],[],[],[],[],0.7441,0,301.6189,302.112,,,,,,542,FEM,DIS,150,masa,el,a,0.7441,,302.112,302.112,-0.888505925,0.499680858,0,0,0,,0,108,108,91,1,,,,
,,,,,,2edf51f8949d03b147ec39cd,66a626ef09d4e21e1a8894ec,6734d686adf9e0db3f0fd93e,2024-11-13_17h40.48.771,Tarea de género gramatical,2024.2.2,MacIntel,62.5,,,,,,,,,,,,,,,,,,,,,,,302.1126,303.5741,l,1,[],[],[],[],[],[],[],0.7798,1,303.5746,304.072,,,,,,606,MAS,AGR,150,amigo,el,l,0.7798,,304.072,304.0721,-0.888505925,0.499680858,0,0,0,,0,109,109,155,1,,,,
,,,,,,2edf51f8949d03b147ec39cd,66a626ef09d4e21e1a8894ec,6734d686adf9e0db3f0fd93e,2024-11-13_17h40.48.771,Tarea de género gramatical,2024.2.2,MacIntel,62.5,,,,,,,,,,,,,,,,,,,,,,,304.0727,305.2889,l,1,[],[],[],[],[],[],[],0.5463,1,305.2889,305.7947,,,,,,474,MAS,AGR,150,voto,el,l,0.5463,,305.7953,305.7957,-0.888505925,0.499680858,0,0,0,,0,110,110,23,1,,,,
,,,,,,2edf51f8949d03b147ec39cd,66a626ef09d4e21e1a8894ec,6734d686adf9e0db3f0fd93e,2024-11-13_17h40.48.771,Tarea de género gramatical,2024.2.2,MacIntel,62.5,,,,,,,,,,,,,,,,,,,,,,,305.796,307.016,l,1,[],[],[],[],[],[],[],0.5452,1,307.016,307.5145,,,,,,612,MAS,AGR,150,miedo,el,l,0.5452,,307.5145,307.5146,-0.888505925,0.499680858,0,0,0,,0,111,111,161,1,,,,
,,,,,,2edf51f8949d03b147ec39cd,66a626ef09d4e21e1a8894ec,6734d686adf9e0db3f0fd93e,2024-11-13_17h40.48.771,Tarea de género gramatical,2024.2.2,MacIntel,62.5,,,,,,,,,,,,,,,,,,,,,,,307.5152,308.8492,l,1,[],[],[],[],[],[],[],0.6602,1,308.8493,309.3376,,,,,,616,MAS,CON,150,coche,,l,0.6602,,309.3376,309.3377,-0.888505925,0.499680858,0,0,0,,0,112,112,165,1,,,,
,,,,,,2edf51f8949d03b147ec39cd,66a626ef09d4e21e1a8894ec,6734d686adf9e0db3f0fd93e,2024-11-13_17h40.48.771,Tarea de género gramatical,2024.2.2,MacIntel,62.5,,,,,,,,,,,,,,,,,,,,,,,309.3381,310.5131,l,1,[],[],[],[],[],[],[],0.506,1,310.5132,311.0034,,,,,,742,MAS,CON,150,piano,,l,0.506,,311.0034,311.0034,-0.888505925,0.499680858,0,0,0,,0,113,113,291,1,,,,
,,,,,,2edf51f8949d03b147ec39cd,66a626ef09d4e21e1a8894ec,6734d686adf9e0db3f0fd93e,2024-11-13_17h40.48.771,Tarea de género gramatical,2024.2.2,MacIntel,62.5,,,,,,,,,,,,,,,,,,,,,,,311.0038,312.3314,a,1,[],[],[],[],[],[],[],0.6547,1,312.3315,312.8247,,,,,,614,FEM,DIS,150,novia,el,a,0.6547,,312.8254,312.8258,-0.888505925,0.499680858,0,0,0,,0,114,114,163,1,,,,
,,,,,,2edf51f8949d03b147ec39cd,66a626ef09d4e21e1a8894ec,6734d686adf9e0db3f0fd93e,2024-11-13_17h40.48.771,Tarea de género gramatical,2024.2.2,MacIntel,62.5,,,,,,,,,,,,,,,,,,,,,,,312.8261,314.2651,a,1,[],[],[],[],[],[],[],0.7681,1,314.2651,314.7565,,,,,,572,FEM,DIS,150,loca,el,a,0.7681,,314.7565,314.7566,-0.888505925,0.499680858,0,0,0,,0,115,115,121,1,,,,
,,,,,,2edf51f8949d03b147ec39cd,66a626ef09d4e21e1a8894ec,6734d686adf9e0db3f0fd93e,2024-11-13_17h40.48.771,Tarea de género gramatical,2024.2.2,MacIntel,62.5,,,,,,,,,,,,,,,,,,,,,,,314.7571,315.8867,l,1,[],[],[],[],[],[],[],0.4563,1,315.8868,316.3801,,,,,,670,MAS,CON,150,huevo,,l,0.4563,,316.3801,316.3801,-0.888505925,0.499680858,0,0,0,,0,116,116,219,1,,,,
,,,,,,2edf51f8949d03b147ec39cd,66a626ef09d4e21e1a8894ec,6734d686adf9e0db3f0fd93e,2024-11-13_17h40.48.771,Tarea de género gramatical,2024.2.2,MacIntel,62.5,,,,,,,,,,,,,,,,,,,,,,,316.3808,317.5677,a,1,[],[],[],[],[],[],[],0.5078,1,317.5677,318.063,,,,,,729,FEM,AGR,150,selva,la,a,0.5078,,318.063,318.0631,-0.888505925,0.499680858,0,0,0,,0,117,117,278,1,,,,
,,,,,,2edf51f8949d03b147ec39cd,66a626ef09d4e21e1a8894ec,6734d686adf9e0db3f0fd93e,2024-11-13_17h40.48.771,Tarea de género gramatical,2024.2.2,MacIntel,62.5,,,,,,,,,,,,,,,,,,,,,,,318.0636,319.5624,a,1,[],[],[],[],[],[],[],0.826,1,319.5624,320.0522,,,,,,685,FEM,CON,150,torre,,a,0.826,,320.0523,320.0523,-0.888505925,0.499680858,0,0,0,,0,118,118,234,1,,,,
,,,,,,2edf51f8949d03b147ec39cd,66a626ef09d4e21e1a8894ec,6734d686adf9e0db3f0fd93e,2024-11-13_17h40.48.771,Tarea de género gramatical,2024.2.2,MacIntel,62.5,,,,,,,,,,,,,,,,,,,,,,,320.0528,321.4502,l,1,[],[],[],[],[],[],[],0.727,1,321.4503,321.9548,,,,,,894,MAS,AGR,150,límite,el,l,0.727,,321.9554,321.9558,-0.888505925,0.499680858,0,0,0,,0,119,119,443,1,,,,
,,,,,,2edf51f8949d03b147ec39cd,66a626ef09d4e21e1a8894ec,6734d686adf9e0db3f0fd93e,2024-11-13_17h40.48.771,Tarea de género gramatical,2024.2.2,MacIntel,62.5,,,,,,,,,,,,,,,,,,,,,,,321.9563,323.2405,a,1,[],[],[],[],[],[],[],0.605,1,323.2407,323.7413,,,,,,567,FEM,AGR,150,raya,la,a,0.605,,323.7414,323.7414,-0.888505925,0.499680858,0,0,0,,0,120,120,116,1,,,,
,,,,,,2edf51f8949d03b147ec39cd,66a626ef09d4e21e1a8894ec,6734d686adf9e0db3f0fd93e,2024-11-13_17h40.48.771,Tarea de género gramatical,2024.2.2,MacIntel,62.5,,,,,,,,,,,,,,,,,,,,,,,323.7419,324.9739,l,1,[],[],[],[],[],[],[],0.554,1,324.974,325.4774,,,,,,456,MAS,AGR,150,lado,el,l,0.554,,325.4774,325.4775,-0.888505925,0.499680858,0,0,0,,0,121,121,5,1,,,,
,,,,,,2edf51f8949d03b147ec39cd,66a626ef09d4e21e1a8894ec,6734d686adf9e0db3f0fd93e,2024-11-13_17h40.48.771,Tarea de género gramatical,2024.2.2,MacIntel,62.5,,,,,,,,,,,,,,,,,,,,,,,325.4781,326.72,l,0,[],[],[],[],[],[],[],0.5719,0,326.7204,327.2109,,,,,,787,FEM,CON,150,escena,,a,0.5719,,327.2109,327.211,-0.888505925,0.499680858,0,0,0,,0,122,122,336,1,,,,
,,,,,,2edf51f8949d03b147ec39cd,66a626ef09d4e21e1a8894ec,6734d686adf9e0db3f0fd93e,2024-11-13_17h40.48.771,Tarea de género gramatical,2024.2.2,MacIntel,62.5,,,,,,,,,,,,,,,,,,,,,,,327.2114,328.456,l,1,[],[],[],[],[],[],[],0.5717,1,328.4564,328.9471,,,,,,874,MAS,CON,150,rastro,,l,0.5717,,328.9478,328.9482,-0.888505925,0.499680858,0,0,0,,0,123,123,423,1,,,,
,,,,,,2edf51f8949d03b147ec39cd,66a626ef09d4e21e1a8894ec,6734d686adf9e0db3f0fd93e,2024-11-13_17h40.48.771,Tarea de género gramatical,2024.2.2,MacIntel,62.5,,,,,,,,,,,,,,,,,,,,,,,328.9485,330.5222,l,1,[],[],[],[],[],[],[],0.9025,1,330.5223,331.0164,,,,,,521,MAS,DIS,150,pozo,la,l,0.9025,,331.0164,331.0165,-0.888505925,0.499680858,0,0,0,,0,124,124,70,1,,,,
,,,,,,2edf51f8949d03b147ec39cd,66a626ef09d4e21e1a8894ec,6734d686adf9e0db3f0fd93e,2024-11-13_17h40.48.771,Tarea de género gramatical,2024.2.2,MacIntel,62.5,,,,,,,,,,,,,,,,,,,,,,,331.0171,332.2517,l,1,[],[],[],[],[],[],[],0.5583,1,332.2517,332.745,,,,,,600,MAS,AGR,150,mozo,el,l,0.5583,,332.745,332.7451,-0.888505925,0.499680858,0,0,0,,0,125,125,149,1,,,,
,,,,,,2edf51f8949d03b147ec39cd,66a626ef09d4e21e1a8894ec,6734d686adf9e0db3f0fd93e,2024-11-13_17h40.48.771,Tarea de género gramatical,2024.2.2,MacIntel,62.5,,,,,,,,,,,,,,,,,,,,,,,332.7456,334.1166,a,1,[],[],[],[],[],[],[],0.6996,1,334.1167,334.6111,,,,,,842,FEM,DIS,150,maleta,el,a,0.6996,,334.6111,334.6111,-0.888505925,0.499680858,0,0,0,,0,126,126,391,1,,,,
,,,,,,2edf51f8949d03b147ec39cd,66a626ef09d4e21e1a8894ec,6734d686adf9e0db3f0fd93e,2024-11-13_17h40.48.771,Tarea de género gramatical,2024.2.2,MacIntel,62.5,,,,,,,,,,,,,,,,,,,,,,,334.6116,336.1479,l,1,[],[],[],[],[],[],[],0.8517,1,336.148,336.6399,,,,,,718,MAS,CON,150,truco,,l,0.8517,,336.6399,336.64,-0.888505925,0.499680858,0,0,0,,0,127,127,267,1,,,,
,,,,,,2edf51f8949d03b147ec39cd,66a626ef09d4e21e1a8894ec,6734d686adf9e0db3f0fd93e,2024-11-13_17h40.48.771,Tarea de género gramatical,2024.2.2,MacIntel,62.5,,,,,,,,,,,,,,,,,,,,,,,336.6406,337.9136,l,1,[],[],[],[],[],[],[],0.5976,1,337.9136,338.418,,,,,,522,MAS,AGR,150,hoyo,el,l,0.5976,,338.4186,338.4189,-0.888505925,0.499680858,0,0,0,,0,128,128,71,1,,,,
,,,,,,2edf51f8949d03b147ec39cd,66a626ef09d4e21e1a8894ec,6734d686adf9e0db3f0fd93e,2024-11-13_17h40.48.771,Tarea de género gramatical,2024.2.2,MacIntel,62.5,,,,,,,,,,,,,,,,,,,,,,,338.4192,340.2703,a,0,[],[],[],[],[],[],[],1.1692,0,340.2707,340.747,,,,,,857,MAS,DIS,150,jurado,la,l,1.1692,,340.747,340.747,-0.888505925,0.499680858,0,0,0,,0,129,129,406,1,,,,
,,,,,,2edf51f8949d03b147ec39cd,66a626ef09d4e21e1a8894ec,6734d686adf9e0db3f0fd93e,2024-11-13_17h40.48.771,Tarea de género gramatical,2024.2.2,MacIntel,62.5,,,,,,,,,,,,,,,,,,,,,,,340.7474,342.2897,l,1,[],[],[],[],[],[],[],0.8569,1,342.2901,342.7837,,,,,,634,MAS,CON,150,cielo,,l,0.8569,,342.7837,342.7838,-0.888505925,0.499680858,0,0,0,,0,130,130,183,1,,,,
,,,,,,2edf51f8949d03b147ec39cd,66a626ef09d4e21e1a8894ec,6734d686adf9e0db3f0fd93e,2024-11-13_17h40.48.771,Tarea de género gramatical,2024.2.2,MacIntel,62.5,,,,,,,,,,,,,,,,,,,,,,,342.7843,344.4516,a,1,[],[],[],[],[],[],[],0.993,1,344.4516,344.9307,,,,,,547,FEM,CON,150,capa,,a,0.993,,344.9308,344.9308,-0.888505925,0.499680858,0,0,0,,0,131,131,96,1,,,,
,,,,,,2edf51f8949d03b147ec39cd,66a626ef09d4e21e1a8894ec,6734d686adf9e0db3f0fd93e,2024-11-13_17h40.48.771,Tarea de género gramatical,2024.2.2,MacIntel,62.5,,,,,,,,,,,,,,,,,,,,,,,344.9313,346.3396,a,1,[],[],[],[],[],[],[],0.7329,1,346.3396,346.8321,,,,,,739,FEM,CON,150,tabla,,a,0.7329,,346.8328,346.8331,-0.888505925,0.499680858,0,0,0,,0,132,132,288,1,,,,
,,,,,,2edf51f8949d03b147ec39cd,66a626ef09d4e21e1a8894ec,6734d686adf9e0db3f0fd93e,2024-11-13_17h40.48.771,Tarea de género gramatical,2024.2.2,MacIntel,62.5,,,,,,,,,,,,,,,,,,,,,,,346.8336,348.3489,l,1,[],[],[],[],[],[],[],0.8434,1,348.3489,348.8362,,,,,,899,MAS,DIS,150,payaso,la,l,0.8434,,348.8363,348.8363,-0.888505925,0.499680858,0,0,0,,0,133,133,448,1,,,,
,,,,,,2edf51f8949d03b147ec39cd,66a626ef09d4e21e1a8894ec,6734d686adf9e0db3f0fd93e,2024-11-13_17h40.48.771,Tarea de género gramatical,2024.2.2,MacIntel,62.5,,,,,,,,,,,,,,,,,,,,,,,348.8369,350.8018,l,1,[],[],[],[],[],[],[],1.2917,1,350.8019,351.3009,,,,,,545,MAS,DIS,150,tomo,la,l,1.2917,,351.3009,351.301,-0.888505925,0.499680858,0,0,0,,0,134,134,94,1,,,,
,,,,,,2edf51f8949d03b147ec39cd,66a626ef09d4e21e1a8894ec,6734d686adf9e0db3f0fd93e,2024-11-13_17h40.48.771,Tarea de género gramatical,2024.2.2,MacIntel,62.5,,,,,,,,,,,,,,,,,,,,,,,351.3015,353.5492,a,1,[],[],[],[],[],[],[],1.5672,1,353.5492,354.0551,,,,,,805,FEM,CON,150,mirada,,a,1.5672,,354.0551,354.0552,-0.888505925,0.499680858,0,0,0,,0,135,135,354,1,,,,
,,,,,,2edf51f8949d03b147ec39cd,66a626ef09d4e21e1a8894ec,6734d686adf9e0db3f0fd93e,2024-11-13_17h40.48.771,Tarea de género gramatical,2024.2.2,MacIntel,62.5,,,,,,,,,,,,,,,,,,,,,,,354.0557,355.7093,l,0,[],[],[],[],[],[],[],0.9789,0,355.7098,356.2028,,,,,,680,FEM,DIS,150,regla,el,a,0.9789,,356.2029,356.203,-0.888505925,0.499680858,0,0,0,,0,136,136,229,1,,,,
,,,,,,2edf51f8949d03b147ec39cd,66a626ef09d4e21e1a8894ec,6734d686adf9e0db3f0fd93e,2024-11-13_17h40.48.771,Tarea de género gramatical,2024.2.2,MacIntel,62.5,,,,,,,,,,,,,,,,,,,,,,,356.2035,357.6131,a,1,[],[],[],[],[],[],[],0.7423,1,357.6136,358.1035,,,,,,669,FEM,AGR,150,costa,la,a,0.7423,,358.1039,358.1042,-0.888505925,0.499680858,0,0,0,,0,137,137,218,1,,,,
,,,,,,2edf51f8949d03b147ec39cd,66a626ef09d4e21e1a8894ec,6734d686adf9e0db3f0fd93e,2024-11-13_17h40.48.771,Tarea de género gramatical,2024.2.2,MacIntel,62.5,,,,,,,,,,,,,,,,,,,,,,,358.1046,359.4448,l,1,[],[],[],[],[],[],[],0.6697,1,359.4448,359.9359,,,,,,666,MAS,AGR,150,éxito,el,l,0.6697,,359.9359,359.936,-0.888505925,0.499680858,0,0,0,,0,138,138,215,1,,,,
,,,,,,2edf51f8949d03b147ec39cd,66a626ef09d4e21e1a8894ec,6734d686adf9e0db3f0fd93e,2024-11-13_17h40.48.771,Tarea de género gramatical,2024.2.2,MacIntel,62.5,,,,,,,,,,,,,,,,,,,,,,,359.9365,361.6937,l,1,[],[],[],[],[],[],[],1.0818,1,361.6938,362.1856,,,,,,761,MAS,DIS,150,camino,la,l,1.0818,,362.1856,362.1857,-0.888505925,0.499680858,0,0,0,,0,139,139,310,1,,,,
,,,,,,2edf51f8949d03b147ec39cd,66a626ef09d4e21e1a8894ec,6734d686adf9e0db3f0fd93e,2024-11-13_17h40.48.771,Tarea de género gramatical,2024.2.2,MacIntel,62.5,,,,,,,,,,,,,,,,,,,,,,,362.1862,363.8063,a,1,[],[],[],[],[],[],[],0.952,1,363.8063,364.3037,,,,,,717,FEM,AGR,150,barba,la,a,0.952,,364.3037,364.3037,-0.888505925,0.499680858,0,0,0,,0,140,140,266,1,,,,
,,,,,,2edf51f8949d03b147ec39cd,66a626ef09d4e21e1a8894ec,6734d686adf9e0db3f0fd93e,2024-11-13_17h40.48.771,Tarea de género gramatical,2024.2.2,MacIntel,62.5,,,,,,,,,,,,,,,,,,,,,,,364.3042,365.7302,a,1,[],[],[],[],[],[],[],0.7486,1,365.7303,366.2135,,,,,,889,FEM,CON,150,toalla,,a,0.7486,,366.2142,366.2146,-0.888505925,0.499680858,0,0,0,,0,141,141,438,1,,,,
,,,,,,2edf51f8949d03b147ec39cd,66a626ef09d4e21e1a8894ec,6734d686adf9e0db3f0fd93e,2024-11-13_17h40.48.771,Tarea de género gramatical,2024.2.2,MacIntel,62.5,,,,,,,,,,,,,,,,,,,,,,,366.2149,367.3533,a,1,[],[],[],[],[],[],[],0.46,1,367.3533,367.8465,,,,,,687,FEM,AGR,150,ducha,la,a,0.46,,367.8465,367.8465,-0.888505925,0.499680858,0,0,0,,0,142,142,236,1,,,,
,,,,,,2edf51f8949d03b147ec39cd,66a626ef09d4e21e1a8894ec,6734d686adf9e0db3f0fd93e,2024-11-13_17h40.48.771,Tarea de género gramatical,2024.2.2,MacIntel,62.5,,,,,,,,,,,,,,,,,,,,,,,367.8471,368.9946,l,1,[],[],[],[],[],[],[],0.4621,1,368.9948,369.4823,,,,,,844,MAS,CON,150,examen,,l,0.4621,,369.4824,369.4825,-0.888505925,0.499680858,0,0,0,,0,143,143,393,1,,,,
,,,,,,2edf51f8949d03b147ec39cd,66a626ef09d4e21e1a8894ec,6734d686adf9e0db3f0fd93e,2024-11-13_17h40.48.771,Tarea de género gramatical,2024.2.2,MacIntel,62.5,,,,,,,,,,,,,,,,,,,,,,,369.483,370.6637,a,1,[],[],[],[],[],[],[],0.5099,1,370.6637,371.1574,,,,,,823,FEM,CON,150,lluvia,,a,0.5099,,371.1574,371.1575,-0.888505925,0.499680858,0,0,0,,0,144,144,372,1,,,,
,,,,,,2edf51f8949d03b147ec39cd,66a626ef09d4e21e1a8894ec,6734d686adf9e0db3f0fd93e,2024-11-13_17h40.48.771,Tarea de género gramatical,2024.2.2,MacIntel,62.5,,,,,,,,,,,,,,,,,,,,,,,371.1579,372.6253,a,1,[],[],[],[],[],[],[],0.7856,1,372.6253,373.1184,,,,,,608,FEM,DIS,150,chica,el,a,0.7856,,373.1184,373.1184,-0.888505925,0.499680858,0,0,0,,0,145,145,157,1,,,,
,,,,,,2edf51f8949d03b147ec39cd,66a626ef09d4e21e1a8894ec,6734d686adf9e0db3f0fd93e,2024-11-13_17h40.48.771,Tarea de género gramatical,2024.2.2,MacIntel,62.5,,,,,,,,,,,,,,,,,,,,,,,373.119,374.2034,a,1,[],[],[],[],[],[],[],0.4151,1,374.2034,374.6958,,,,,,699,FEM,AGR,150,crema,la,a,0.4151,,374.6965,374.6968,-0.888505925,0.499680858,0,0,0,,0,146,146,248,1,,,,
,,,,,,2edf51f8949d03b147ec39cd,66a626ef09d4e21e1a8894ec,6734d686adf9e0db3f0fd93e,2024-11-13_17h40.48.771,Tarea de género gramatical,2024.2.2,MacIntel,62.5,,,,,,,,,,,,,,,,,,,,,,,374.6971,375.7959,l,0,[],[],[],[],[],[],[],0.4209,0,375.7964,376.294,,,,,,800,FEM,DIS,150,imagen,el,a,0.4209,,376.294,376.294,-0.888505925,0.499680858,0,0,0,,0,147,147,349,1,,,,
,,,,,,2edf51f8949d03b147ec39cd,66a626ef09d4e21e1a8894ec,6734d686adf9e0db3f0fd93e,2024-11-13_17h40.48.771,Tarea de género gramatical,2024.2.2,MacIntel,62.5,,,,,,,,,,,,,,,,,,,,,,,376.2946,377.5869,a,0,[],[],[],[],[],[],[],0.6197,0,377.5869,378.0747,,,,,,642,MAS,AGR,150,grupo,el,l,0.6197,,378.0747,378.0748,-0.888505925,0.499680858,0,0,0,,0,148,148,191,1,,,,
,,,,,,2edf51f8949d03b147ec39cd,66a626ef09d4e21e1a8894ec,6734d686adf9e0db3f0fd93e,2024-11-13_17h40.48.771,Tarea de género gramatical,2024.2.2,MacIntel,62.5,,,,,,,,,,,,,,,,,,,,,,,378.0753,379.7775,l,1,[],[],[],[],[],[],[],1.0177,1,379.778,380.2816,,,,,,492,MAS,AGR,150,show,el,l,1.0177,,380.2816,380.2817,-0.888505925,0.499680858,0,0,0,,0,149,149,41,1,,,,
,,,,,,2edf51f8949d03b147ec39cd,66a626ef09d4e21e1a8894ec,6734d686adf9e0db3f0fd93e,2024-11-13_17h40.48.771,Tarea de género gramatical,2024.2.2,MacIntel,62.5,,,,,,,,,,,,,,,,,,,,,,,380.2822,381.5714,a,1,[],[],[],[],[],[],[],0.6112,1,381.5715,382.0595,,,,,,643,FEM,CON,150,bolsa,,a,0.6112,,382.0602,392.9115,-0.888505925,0.499680858,0,0,0,space,0,150,150,192,1,10.8242,,,
,,,,,,2edf51f8949d03b147ec39cd,66a626ef09d4e21e1a8894ec,6734d686adf9e0db3f0fd93e,2024-11-13_17h40.48.771,Tarea de género gramatical,2024.2.2,MacIntel,62.5,,,,,,,,,,,,,,,,,,,,,,,392.9122,394.5031,a,1,[],[],[],[],[],[],[],0.9159,1,394.5032,394.9948,,,,,,578,FEM,DIS,150,leña,el,a,0.9159,,394.9949,394.9949,-0.888505925,0.499680858,0,0,0,,0,151,151,127,1,,,,
,,,,,,2edf51f8949d03b147ec39cd,66a626ef09d4e21e1a8894ec,6734d686adf9e0db3f0fd93e,2024-11-13_17h40.48.771,Tarea de género gramatical,2024.2.2,MacIntel,62.5,,,,,,,,,,,,,,,,,,,,,,,394.9954,396.2613,l,1,[],[],[],[],[],[],[],0.5869,1,396.2613,396.7581,,,,,,672,MAS,AGR,150,valor,el,l,0.5869,,396.7582,396.7582,-0.888505925,0.499680858,0,0,0,,0,152,152,221,1,,,,
,,,,,,2edf51f8949d03b147ec39cd,66a626ef09d4e21e1a8894ec,6734d686adf9e0db3f0fd93e,2024-11-13_17h40.48.771,Tarea de género gramatical,2024.2.2,MacIntel,62.5,,,,,,,,,,,,,,,,,,,,,,,396.7587,397.8749,a,1,[],[],[],[],[],[],[],0.4336,1,397.8749,398.365,,,,,,517,FEM,CON,150,miel,,a,0.4336,,398.365,398.3651,-0.888505925,0.499680858,0,0,0,,0,153,153,66,1,,,,
,,,,,,2edf51f8949d03b147ec39cd,66a626ef09d4e21e1a8894ec,6734d686adf9e0db3f0fd93e,2024-11-13_17h40.48.771,Tarea de género gramatical,2024.2.2,MacIntel,62.5,,,,,,,,,,,,,,,,,,,,,,,398.3656,399.5737,a,1,[],[],[],[],[],[],[],0.5332,1,399.5737,400.0512,,,,,,487,FEM,CON,150,sala,,a,0.5332,,400.0512,400.0513,-0.888505925,0.499680858,0,0,0,,0,154,154,36,1,,,,
,,,,,,2edf51f8949d03b147ec39cd,66a626ef09d4e21e1a8894ec,6734d686adf9e0db3f0fd93e,2024-11-13_17h40.48.771,Tarea de género gramatical,2024.2.2,MacIntel,62.5,,,,,,,,,,,,,,,,,,,,,,,400.0517,401.3636,l,1,[],[],[],[],[],[],[],0.6382,1,401.3637,401.8526,,,,,,479,MAS,DIS,150,frío,la,l,0.6382,,401.8533,401.8537,-0.888505925,0.499680858,0,0,0,,0,155,155,28,1,,,,
,,,,,,2edf51f8949d03b147ec39cd,66a626ef09d4e21e1a8894ec,6734d686adf9e0db3f0fd93e,2024-11-13_17h40.48.771,Tarea de género gramatical,2024.2.2,MacIntel,62.5,,,,,,,,,,,,,,,,,,,,,,,401.854,403.321,a,1,[],[],[],[],[],[],[],0.7838,1,403.321,403.8161,,,,,,589,FEM,CON,150,pipa,,a,0.7838,,403.8161,403.8161,-0.888505925,0.499680858,0,0,0,,0,156,156,138,1,,,,
,,,,,,2edf51f8949d03b147ec39cd,66a626ef09d4e21e1a8894ec,6734d686adf9e0db3f0fd93e,2024-11-13_17h40.48.771,Tarea de género gramatical,2024.2.2,MacIntel,62.5,,,,,,,,,,,,,,,,,,,,,,,403.8168,405.0802,a,1,[],[],[],[],[],[],[],0.5821,1,405.0803,405.5725,,,,,,471,FEM,AGR,150,boca,la,a,0.5821,,405.5725,405.5725,-0.888505925,0.499680858,0,0,0,,0,157,157,20,1,,,,
,,,,,,2edf51f8949d03b147ec39cd,66a626ef09d4e21e1a8894ec,6734d686adf9e0db3f0fd93e,2024-11-13_17h40.48.771,Tarea de género gramatical,2024.2.2,MacIntel,62.5,,,,,,,,,,,,,,,,,,,,,,,405.5729,406.8182,a,1,[],[],[],[],[],[],[],0.5655,1,406.8183,407.3114,,,,,,463,FEM,CON,150,hija,,a,0.5655,,407.3114,407.3114,-0.888505925,0.499680858,0,0,0,,0,158,158,12,1,,,,
,,,,,,2edf51f8949d03b147ec39cd,66a626ef09d4e21e1a8894ec,6734d686adf9e0db3f0fd93e,2024-11-13_17h40.48.771,Tarea de género gramatical,2024.2.2,MacIntel,62.5,,,,,,,,,,,,,,,,,,,,,,,407.3121,408.5386,l,1,[],[],[],[],[],[],[],0.5463,1,408.5387,409.0456,,,,,,876,MAS,AGR,150,pánico,el,l,0.5463,,409.0462,409.0466,-0.888505925,0.499680858,0,0,0,,0,159,159,425,1,,,,
,,,,,,2edf51f8949d03b147ec39cd,66a626ef09d4e21e1a8894ec,6734d686adf9e0db3f0fd93e,2024-11-13_17h40.48.771,Tarea de género gramatical,2024.2.2,MacIntel,62.5,,,,,,,,,,,,,,,,,,,,,,,409.0475,410.2076,a,1,[],[],[],[],[],[],[],0.4873,1,410.2077,410.7119,,,,,,681,FEM,AGR,150,bruja,la,a,0.4873,,410.712,410.712,-0.888505925,0.499680858,0,0,0,,0,160,160,230,1,,,,
,,,,,,2edf51f8949d03b147ec39cd,66a626ef09d4e21e1a8894ec,6734d686adf9e0db3f0fd93e,2024-11-13_17h40.48.771,Tarea de género gramatical,2024.2.2,MacIntel,62.5,,,,,,,,,,,,,,,,,,,,,,,410.7127,412.1826,a,1,[],[],[],[],[],[],[],0.8015,1,412.1827,412.6858,,,,,,645,FEM,AGR,150,pared,la,a,0.8015,,412.6858,412.6859,-0.888505925,0.499680858,0,0,0,,0,161,161,194,1,,,,
,,,,,,2edf51f8949d03b147ec39cd,66a626ef09d4e21e1a8894ec,6734d686adf9e0db3f0fd93e,2024-11-13_17h40.48.771,Tarea de género gramatical,2024.2.2,MacIntel,62.5,,,,,,,,,,,,,,,,,,,,,,,412.6864,414.2132,a,1,[],[],[],[],[],[],[],0.8566,1,414.2134,414.7045,,,,,,692,FEM,DIS,150,pizza,el,a,0.8566,,414.7045,414.7046,-0.888505925,0.499680858,0,0,0,,0,162,162,241,1,,,,
,,,,,,2edf51f8949d03b147ec39cd,66a626ef09d4e21e1a8894ec,6734d686adf9e0db3f0fd93e,2024-11-13_17h40.48.771,Tarea de género gramatical,2024.2.2,MacIntel,62.5,,,,,,,,,,,,,,,,,,,,,,,414.7051,416.0721,l,1,[],[],[],[],[],[],[],0.6981,1,416.0721,416.576,,,,,,820,MAS,CON,150,seguro,,l,0.6981,,416.5761,416.5761,-0.888505925,0.499680858,0,0,0,,0,163,163,369,1,,,,
,,,,,,2edf51f8949d03b147ec39cd,66a626ef09d4e21e1a8894ec,6734d686adf9e0db3f0fd93e,2024-11-13_17h40.48.771,Tarea de género gramatical,2024.2.2,MacIntel,62.5,,,,,,,,,,,,,,,,,,,,,,,416.5766,417.7399,a,1,[],[],[],[],[],[],[],0.4861,1,417.74,418.2276,,,,,,831,FEM,AGR,150,bebida,la,a,0.4861,,418.2282,418.2286,-0.888505925,0.499680858,0,0,0,,0,164,164,380,1,,,,
,,,,,,2edf51f8949d03b147ec39cd,66a626ef09d4e21e1a8894ec,6734d686adf9e0db3f0fd93e,2024-11-13_17h40.48.771,Tarea de género gramatical,2024.2.2,MacIntel,62.5,,,,,,,,,,,,,,,,,,,,,,,418.2289,419.4743,a,1,[],[],[],[],[],[],[],0.5627,1,419.4744,419.968,,,,,,499,FEM,CON,150,piel,,a,0.5627,,419.968,419.968,-0.888505925,0.499680858,0,0,0,,0,165,165,48,1,,,,
,,,,,,2edf51f8949d03b147ec39cd,66a626ef09d4e21e1a8894ec,6734d686adf9e0db3f0fd93e,2024-11-13_17h40.48.771,Tarea de género gramatical,2024.2.2,MacIntel,62.5,,,,,,,,,,,,,,,,,,,,,,,419.9686,421.1183,a,1,[],[],[],[],[],[],[],0.4697,1,421.1183,421.6071,,,,,,651,FEM,AGR,150,leche,la,a,0.4697,,421.6071,421.6072,-0.888505925,0.499680858,0,0,0,,0,166,166,200,1,,,,
,,,,,,2edf51f8949d03b147ec39cd,66a626ef09d4e21e1a8894ec,6734d686adf9e0db3f0fd93e,2024-11-13_17h40.48.771,Tarea de género gramatical,2024.2.2,MacIntel,62.5,,,,,,,,,,,,,,,,,,,,,,,421.6077,423.1472,a,1,[],[],[],[],[],[],[],0.8652,1,423.1473,423.6228,,,,,,512,FEM,DIS,150,sopa,el,a,0.8652,,423.6229,423.6229,-0.888505925,0.499680858,0,0,0,,0,167,167,61,1,,,,
,,,,,,2edf51f8949d03b147ec39cd,66a626ef09d4e21e1a8894ec,6734d686adf9e0db3f0fd93e,2024-11-13_17h40.48.771,Tarea de género gramatical,2024.2.2,MacIntel,62.5,,,,,,,,,,,,,,,,,,,,,,,423.6235,424.7374,a,1,[],[],[],[],[],[],[],0.4318,1,424.7374,425.2311,,,,,,733,FEM,CON,150,pluma,,a,0.4318,,425.2317,425.232,-0.888505925,0.499680858,0,0,0,,0,168,168,282,1,,,,
,,,,,,2edf51f8949d03b147ec39cd,66a626ef09d4e21e1a8894ec,6734d686adf9e0db3f0fd93e,2024-11-13_17h40.48.771,Tarea de género gramatical,2024.2.2,MacIntel,62.5,,,,,,,,,,,,,,,,,,,,,,,425.2323,426.4052,a,1,[],[],[],[],[],[],[],0.4947,1,426.4052,426.8977,,,,,,757,FEM,CON,150,suerte,,a,0.4947,,426.8978,426.8978,-0.888505925,0.499680858,0,0,0,,0,169,169,306,1,,,,
,,,,,,2edf51f8949d03b147ec39cd,66a626ef09d4e21e1a8894ec,6734d686adf9e0db3f0fd93e,2024-11-13_17h40.48.771,Tarea de género gramatical,2024.2.2,MacIntel,62.5,,,,,,,,,,,,,,,,,,,,,,,426.8983,427.9436,a,1,[],[],[],[],[],[],[],0.3615,1,427.9437,428.4487,,,,,,835,FEM,CON,150,muñeca,,a,0.3615,,428.4488,428.4488,-0.888505925,0.499680858,0,0,0,,0,170,170,384,1,,,,
,,,,,,2edf51f8949d03b147ec39cd,66a626ef09d4e21e1a8894ec,6734d686adf9e0db3f0fd93e,2024-11-13_17h40.48.771,Tarea de género gramatical,2024.2.2,MacIntel,62.5,,,,,,,,,,,,,,,,,,,,,,,428.4492,429.5569,a,1,[],[],[],[],[],[],[],0.43,1,429.557,430.0578,,,,,,475,FEM,CON,150,nave,,a,0.43,,430.0578,430.0578,-0.888505925,0.499680858,0,0,0,,0,171,171,24,1,,,,
,,,,,,2edf51f8949d03b147ec39cd,66a626ef09d4e21e1a8894ec,6734d686adf9e0db3f0fd93e,2024-11-13_17h40.48.771,Tarea de género gramatical,2024.2.2,MacIntel,62.5,,,,,,,,,,,,,,,,,,,,,,,430.0584,431.2939,a,1,[],[],[],[],[],[],[],0.5644,1,431.2939,431.7829,,,,,,855,FEM,AGR,150,parada,la,a,0.5644,,431.7829,431.783,-0.888505925,0.499680858,0,0,0,,0,172,172,404,1,,,,
,,,,,,2edf51f8949d03b147ec39cd,66a626ef09d4e21e1a8894ec,6734d686adf9e0db3f0fd93e,2024-11-13_17h40.48.771,Tarea de género gramatical,2024.2.2,MacIntel,62.5,,,,,,,,,,,,,,,,,,,,,,,431.7835,433.0581,l,1,[],[],[],[],[],[],[],0.5999,1,433.0581,433.5617,,,,,,486,MAS,AGR,150,dedo,el,l,0.5999,,433.5624,433.5627,-0.888505925,0.499680858,0,0,0,,0,173,173,35,1,,,,
,,,,,,2edf51f8949d03b147ec39cd,66a626ef09d4e21e1a8894ec,6734d686adf9e0db3f0fd93e,2024-11-13_17h40.48.771,Tarea de género gramatical,2024.2.2,MacIntel,62.5,,,,,,,,,,,,,,,,,,,,,,,433.563,434.9262,a,1,[],[],[],[],[],[],[],0.6832,1,434.9263,435.433,,,,,,853,FEM,CON,150,paliza,,a,0.6832,,435.433,435.4331,-0.888505925,0.499680858,0,0,0,,0,174,174,402,1,,,,
,,,,,,2edf51f8949d03b147ec39cd,66a626ef09d4e21e1a8894ec,6734d686adf9e0db3f0fd93e,2024-11-13_17h40.48.771,Tarea de género gramatical,2024.2.2,MacIntel,62.5,,,,,,,,,,,,,,,,,,,,,,,435.4336,436.7947,a,0,[],[],[],[],[],[],[],0.6809,0,436.7951,437.2854,,,,,,682,MAS,CON,150,calor,,l,0.6809,,437.2854,437.2854,-0.888505925,0.499680858,0,0,0,,0,175,175,231,1,,,,
,,,,,,2edf51f8949d03b147ec39cd,66a626ef09d4e21e1a8894ec,6734d686adf9e0db3f0fd93e,2024-11-13_17h40.48.771,Tarea de género gramatical,2024.2.2,MacIntel,62.5,,,,,,,,,,,,,,,,,,,,,,,437.2861,438.6832,l,1,[],[],[],[],[],[],[],0.7197,1,438.6836,439.1761,,,,,,546,MAS,AGR,150,pato,el,l,0.7197,,439.1761,439.1761,-0.888505925,0.499680858,0,0,0,,0,176,176,95,1,,,,
,,,,,,2edf51f8949d03b147ec39cd,66a626ef09d4e21e1a8894ec,6734d686adf9e0db3f0fd93e,2024-11-13_17h40.48.771,Tarea de género gramatical,2024.2.2,MacIntel,62.5,,,,,,,,,,,,,,,,,,,,,,,439.1766,440.5164,a,1,[],[],[],[],[],[],[],0.6626,1,440.5165,441.0049,,,,,,709,FEM,CON,150,prima,,a,0.6626,,441.0056,441.0058,-0.888505925,0.499680858,0,0,0,,0,177,177,258,1,,,,
,,,,,,2edf51f8949d03b147ec39cd,66a626ef09d4e21e1a8894ec,6734d686adf9e0db3f0fd93e,2024-11-13_17h40.48.771,Tarea de género gramatical,2024.2.2,MacIntel,62.5,,,,,,,,,,,,,,,,,,,,,,,441.0062,442.3364,l,1,[],[],[],[],[],[],[],0.6524,1,442.3365,442.8264,,,,,,484,MAS,CON,150,gato,,l,0.6524,,442.8265,442.8265,-0.888505925,0.499680858,0,0,0,,0,178,178,33,1,,,,
,,,,,,2edf51f8949d03b147ec39cd,66a626ef09d4e21e1a8894ec,6734d686adf9e0db3f0fd93e,2024-11-13_17h40.48.771,Tarea de género gramatical,2024.2.2,MacIntel,62.5,,,,,,,,,,,,,,,,,,,,,,,442.8271,444.6013,a,1,[],[],[],[],[],[],[],1.0929,1,444.6014,445.0951,,,,,,806,FEM,DIS,150,piedra,el,a,1.0929,,445.0951,445.0952,-0.888505925,0.499680858,0,0,0,,0,179,179,355,1,,,,
,,,,,,2edf51f8949d03b147ec39cd,66a626ef09d4e21e1a8894ec,6734d686adf9e0db3f0fd93e,2024-11-13_17h40.48.771,Tarea de género gramatical,2024.2.2,MacIntel,62.5,,,,,,,,,,,,,,,,,,,,,,,445.0957,446.506,l,1,[],[],[],[],[],[],[],0.7314,1,446.5061,446.9944,,,,,,701,MAS,DIS,150,dueño,la,l,0.7314,,446.9945,446.9945,-0.888505925,0.499680858,0,0,0,,0,180,180,250,1,,,,
,,,,,,2edf51f8949d03b147ec39cd,66a626ef09d4e21e1a8894ec,6734d686adf9e0db3f0fd93e,2024-11-13_17h40.48.771,Tarea de género gramatical,2024.2.2,MacIntel,62.5,,,,,,,,,,,,,,,,,,,,,,,446.9951,448.3798,l,1,[],[],[],[],[],[],[],0.7146,1,448.3798,448.8828,,,,,,778,MAS,CON,150,asunto,,l,0.7146,,448.8828,448.8828,-0.888505925,0.499680858,0,0,0,,0,181,181,327,1,,,,
,,,,,,2edf51f8949d03b147ec39cd,66a626ef09d4e21e1a8894ec,6734d686adf9e0db3f0fd93e,2024-11-13_17h40.48.771,Tarea de género gramatical,2024.2.2,MacIntel,62.5,,,,,,,,,,,,,,,,,,,,,,,448.8834,449.9393,l,1,[],[],[],[],[],[],[],0.3785,1,449.9393,450.4387,,,,,,784,MAS,CON,150,ataque,,l,0.3785,,450.4391,450.4395,-0.888505925,0.499680858,0,0,0,,0,182,182,333,1,,,,
,,,,,,2edf51f8949d03b147ec39cd,66a626ef09d4e21e1a8894ec,6734d686adf9e0db3f0fd93e,2024-11-13_17h40.48.771,Tarea de género gramatical,2024.2.2,MacIntel,62.5,,,,,,,,,,,,,,,,,,,,,,,450.4397,451.6633,l,1,[],[],[],[],[],[],[],0.5534,1,451.6633,452.1454,,,,,,802,MAS,CON,150,estilo,,l,0.5534,,452.1454,452.1455,-0.888505925,0.499680858,0,0,0,,0,183,183,351,1,,,,
,,,,,,2edf51f8949d03b147ec39cd,66a626ef09d4e21e1a8894ec,6734d686adf9e0db3f0fd93e,2024-11-13_17h40.48.771,Tarea de género gramatical,2024.2.2,MacIntel,62.5,,,,,,,,,,,,,,,,,,,,,,,452.146,453.2125,a,1,[],[],[],[],[],[],[],0.3829,1,453.2125,453.701,,,,,,549,FEM,AGR,150,fase,la,a,0.3829,,453.701,453.7011,-0.888505925,0.499680858,0,0,0,,0,184,184,98,1,,,,
,,,,,,2edf51f8949d03b147ec39cd,66a626ef09d4e21e1a8894ec,6734d686adf9e0db3f0fd93e,2024-11-13_17h40.48.771,Tarea de género gramatical,2024.2.2,MacIntel,62.5,,,,,,,,,,,,,,,,,,,,,,,453.7016,454.8754,l,1,[],[],[],[],[],[],[],0.4921,1,454.8754,455.3659,,,,,,790,MAS,CON,150,pasado,,l,0.4921,,455.3659,455.3659,-0.888505925,0.499680858,0,0,0,,0,185,185,339,1,,,,
,,,,,,2edf51f8949d03b147ec39cd,66a626ef09d4e21e1a8894ec,6734d686adf9e0db3f0fd93e,2024-11-13_17h40.48.771,Tarea de género gramatical,2024.2.2,MacIntel,62.5,,,,,,,,,,,,,,,,,,,,,,,455.3664,456.7318,l,1,[],[],[],[],[],[],[],0.6838,1,456.7318,457.2206,,,,,,558,MAS,AGR,150,hilo,el,l,0.6838,,457.2213,457.2215,-0.888505925,0.499680858,0,0,0,,0,186,186,107,1,,,,
,,,,,,2edf51f8949d03b147ec39cd,66a626ef09d4e21e1a8894ec,6734d686adf9e0db3f0fd93e,2024-11-13_17h40.48.771,Tarea de género gramatical,2024.2.2,MacIntel,62.5,,,,,,,,,,,,,,,,,,,,,,,457.2218,458.5781,l,1,[],[],[],[],[],[],[],0.6739,1,458.5781,459.068,,,,,,629,MAS,DIS,150,viaje,la,l,0.6739,,459.0681,459.0681,-0.888505925,0.499680858,0,0,0,,0,187,187,178,1,,,,
,,,,,,2edf51f8949d03b147ec39cd,66a626ef09d4e21e1a8894ec,6734d686adf9e0db3f0fd93e,2024-11-13_17h40.48.771,Tarea de género gramatical,2024.2.2,MacIntel,62.5,,,,,,,,,,,,,,,,,,,,,,,459.0687,460.5144,a,1,[],[],[],[],[],[],[],0.7672,1,460.5145,461.0024,,,,,,518,FEM,DIS,150,pata,el,a,0.7672,,461.0025,461.0025,-0.888505925,0.499680858,0,0,0,,0,188,188,67,1,,,,
,,,,,,2edf51f8949d03b147ec39cd,66a626ef09d4e21e1a8894ec,6734d686adf9e0db3f0fd93e,2024-11-13_17h40.48.771,Tarea de género gramatical,2024.2.2,MacIntel,62.5,,,,,,,,,,,,,,,,,,,,,,,461.003,462.2261,a,1,[],[],[],[],[],[],[],0.5398,1,462.2262,462.719,,,,,,777,FEM,AGR,150,tienda,la,a,0.5398,,462.7191,462.7191,-0.888505925,0.499680858,0,0,0,,0,189,189,326,1,,,,
,,,,,,2edf51f8949d03b147ec39cd,66a626ef09d4e21e1a8894ec,6734d686adf9e0db3f0fd93e,2024-11-13_17h40.48.771,Tarea de género gramatical,2024.2.2,MacIntel,62.5,,,,,,,,,,,,,,,,,,,,,,,462.7196,463.8304,l,1,[],[],[],[],[],[],[],0.4317,1,463.8304,464.3209,,,,,,738,MAS,AGR,150,grado,el,l,0.4317,,464.3209,464.3209,-0.888505925,0.499680858,0,0,0,,0,190,190,287,1,,,,
,,,,,,2edf51f8949d03b147ec39cd,66a626ef09d4e21e1a8894ec,6734d686adf9e0db3f0fd93e,2024-11-13_17h40.48.771,Tarea de género gramatical,2024.2.2,MacIntel,62.5,,,,,,,,,,,,,,,,,,,,,,,464.3215,466.0168,a,0,[],[],[],[],[],[],[],1.012,0,466.0173,466.5113,,,,,,497,MAS,DIS,150,olor,la,l,1.012,,466.512,466.5123,-0.888505925,0.499680858,0,0,0,,0,191,191,46,1,,,,
,,,,,,2edf51f8949d03b147ec39cd,66a626ef09d4e21e1a8894ec,6734d686adf9e0db3f0fd93e,2024-11-13_17h40.48.771,Tarea de género gramatical,2024.2.2,MacIntel,62.5,,,,,,,,,,,,,,,,,,,,,,,466.5126,467.9516,l,1,[],[],[],[],[],[],[],0.7686,1,467.952,468.4546,,,,,,898,MAS,CON,150,aceite,,l,0.7686,,468.4546,468.4547,-0.888505925,0.499680858,0,0,0,,0,192,192,447,1,,,,
,,,,,,2edf51f8949d03b147ec39cd,66a626ef09d4e21e1a8894ec,6734d686adf9e0db3f0fd93e,2024-11-13_17h40.48.771,Tarea de género gramatical,2024.2.2,MacIntel,62.5,,,,,,,,,,,,,,,,,,,,,,,468.4553,470.09,l,1,[],[],[],[],[],[],[],0.9534,1,470.09,470.5938,,,,,,575,MAS,DIS,150,bate,la,l,0.9534,,470.5938,470.5938,-0.888505925,0.499680858,0,0,0,,0,193,193,124,1,,,,
,,,,,,2edf51f8949d03b147ec39cd,66a626ef09d4e21e1a8894ec,6734d686adf9e0db3f0fd93e,2024-11-13_17h40.48.771,Tarea de género gramatical,2024.2.2,MacIntel,62.5,,,,,,,,,,,,,,,,,,,,,,,470.5944,472.1456,l,1,[],[],[],[],[],[],[],0.8689,1,472.1456,472.6401,,,,,,468,MAS,AGR,150,tren,el,l,0.8689,,472.6401,472.6402,-0.888505925,0.499680858,0,0,0,,0,194,194,17,1,,,,
,,,,,,2edf51f8949d03b147ec39cd,66a626ef09d4e21e1a8894ec,6734d686adf9e0db3f0fd93e,2024-11-13_17h40.48.771,Tarea de género gramatical,2024.2.2,MacIntel,62.5,,,,,,,,,,,,,,,,,,,,,,,472.6407,473.8982,l,1,[],[],[],[],[],[],[],0.5779,1,473.8983,474.3982,,,,,,568,MAS,CON,150,baúl,,l,0.5779,,474.3988,474.399,-0.888505925,0.499680858,0,0,0,,0,195,195,117,1,,,,
,,,,,,2edf51f8949d03b147ec39cd,66a626ef09d4e21e1a8894ec,6734d686adf9e0db3f0fd93e,2024-11-13_17h40.48.771,Tarea de género gramatical,2024.2.2,MacIntel,62.5,,,,,,,,,,,,,,,,,,,,,,,474.3993,476.0054,l,1,[],[],[],[],[],[],[],0.9202,1,476.0054,476.5003,,,,,,869,MAS,DIS,150,cuento,la,l,0.9202,,476.5003,476.5003,-0.888505925,0.499680858,0,0,0,,0,196,196,418,1,,,,
,,,,,,2edf51f8949d03b147ec39cd,66a626ef09d4e21e1a8894ec,6734d686adf9e0db3f0fd93e,2024-11-13_17h40.48.771,Tarea de género gramatical,2024.2.2,MacIntel,62.5,,,,,,,,,,,,,,,,,,,,,,,476.501,477.6635,a,1,[],[],[],[],[],[],[],0.4886,1,477.6635,478.1575,,,,,,579,FEM,AGR,150,rana,la,a,0.4886,,478.1575,478.1576,-0.888505925,0.499680858,0,0,0,,0,197,197,128,1,,,,
,,,,,,2edf51f8949d03b147ec39cd,66a626ef09d4e21e1a8894ec,6734d686adf9e0db3f0fd93e,2024-11-13_17h40.48.771,Tarea de género gramatical,2024.2.2,MacIntel,62.5,,,,,,,,,,,,,,,,,,,,,,,478.1581,479.282,l,1,[],[],[],[],[],[],[],0.4475,1,479.282,479.7765,,,,,,834,MAS,AGR,150,pedazo,el,l,0.4475,,479.7765,479.7765,-0.888505925,0.499680858,0,0,0,,0,198,198,383,1,,,,
,,,,,,2edf51f8949d03b147ec39cd,66a626ef09d4e21e1a8894ec,6734d686adf9e0db3f0fd93e,2024-11-13_17h40.48.771,Tarea de género gramatical,2024.2.2,MacIntel,62.5,,,,,,,,,,,,,,,,,,,,,,,479.7771,481.0073,l,1,[],[],[],[],[],[],[],0.5547,1,481.0073,481.5136,,,,,,532,MAS,CON,150,tubo,,l,0.5547,,481.5136,481.5137,-0.888505925,0.499680858,0,0,0,,0,199,199,81,1,,,,
,,,,,,2edf51f8949d03b147ec39cd,66a626ef09d4e21e1a8894ec,6734d686adf9e0db3f0fd93e,2024-11-13_17h40.48.771,Tarea de género gramatical,2024.2.2,MacIntel,62.5,,,,,,,,,,,,,,,,,,,,,,,481.5142,482.9069,l,1,[],[],[],[],[],[],[],0.7046,1,482.9069,483.4122,,,,,,527,MAS,DIS,150,pico,la,l,0.7046,,483.4128,483.4131,-0.888505925,0.499680858,0,0,0,,0,200,200,76,1,,,,
,,,,,,2edf51f8949d03b147ec39cd,66a626ef09d4e21e1a8894ec,6734d686adf9e0db3f0fd93e,2024-11-13_17h40.48.771,Tarea de género gramatical,2024.2.2,MacIntel,62.5,,,,,,,,,,,,,,,,,,,,,,,483.4134,484.7805,a,1,[],[],[],[],[],[],[],0.6906,1,484.7806,485.287,,,,,,879,FEM,AGR,150,fianza,la,a,0.6906,,485.287,485.287,-0.888505925,0.499680858,0,0,0,,0,201,201,428,1,,,,
,,,,,,2edf51f8949d03b147ec39cd,66a626ef09d4e21e1a8894ec,6734d686adf9e0db3f0fd93e,2024-11-13_17h40.48.771,Tarea de género gramatical,2024.2.2,MacIntel,62.5,,,,,,,,,,,,,,,,,,,,,,,485.2876,486.4309,l,1,[],[],[],[],[],[],[],0.4643,1,486.431,486.9223,,,,,,516,MAS,AGR,150,muro,el,l,0.4643,,486.9223,486.9223,-0.888505925,0.499680858,0,0,0,,0,202,202,65,1,,,,
,,,,,,2edf51f8949d03b147ec39cd,66a626ef09d4e21e1a8894ec,6734d686adf9e0db3f0fd93e,2024-11-13_17h40.48.771,Tarea de género gramatical,2024.2.2,MacIntel,62.5,,,,,,,,,,,,,,,,,,,,,,,486.9229,488.2427,l,1,[],[],[],[],[],[],[],0.6452,1,488.2427,488.7483,,,,,,594,MAS,AGR,150,amor,el,l,0.6452,,488.7484,488.7485,-0.888505925,0.499680858,0,0,0,,0,203,203,143,1,,,,
,,,,,,2edf51f8949d03b147ec39cd,66a626ef09d4e21e1a8894ec,6734d686adf9e0db3f0fd93e,2024-11-13_17h40.48.771,Tarea de género gramatical,2024.2.2,MacIntel,62.5,,,,,,,,,,,,,,,,,,,,,,,488.749,489.8644,l,1,[],[],[],[],[],[],[],0.4459,1,489.8644,490.3663,,,,,,748,MAS,CON,150,botón,,l,0.4459,,490.3669,490.3672,-0.888505925,0.499680858,0,0,0,,0,204,204,297,1,,,,
,,,,,,2edf51f8949d03b147ec39cd,66a626ef09d4e21e1a8894ec,6734d686adf9e0db3f0fd93e,2024-11-13_17h40.48.771,Tarea de género gramatical,2024.2.2,MacIntel,62.5,,,,,,,,,,,,,,,,,,,,,,,490.3675,491.7903,a,0,[],[],[],[],[],[],[],0.7482,0,491.7909,492.2848,,,,,,617,MAS,DIS,150,juego,la,l,0.7482,,492.2849,492.2849,-0.888505925,0.499680858,0,0,0,,0,205,205,166,1,,,,
,,,,,,2edf51f8949d03b147ec39cd,66a626ef09d4e21e1a8894ec,6734d686adf9e0db3f0fd93e,2024-11-13_17h40.48.771,Tarea de género gramatical,2024.2.2,MacIntel,62.5,,,,,,,,,,,,,,,,,,,,,,,492.2854,493.5056,a,1,[],[],[],[],[],[],[],0.5432,1,493.506,494.0076,,,,,,631,FEM,CON,150,tarde,,a,0.5432,,494.0077,494.0077,-0.888505925,0.499680858,0,0,0,,0,206,206,180,1,,,,
,,,,,,2edf51f8949d03b147ec39cd,66a626ef09d4e21e1a8894ec,6734d686adf9e0db3f0fd93e,2024-11-13_17h40.48.771,Tarea de género gramatical,2024.2.2,MacIntel,62.5,,,,,,,,,,,,,,,,,,,,,,,494.0082,495.2364,a,1,[],[],[],[],[],[],[],0.5586,1,495.2365,495.729,,,,,,811,FEM,CON,150,oferta,,a,0.5586,,495.7291,495.7291,-0.888505925,0.499680858,0,0,0,,0,207,207,360,1,,,,
,,,,,,2edf51f8949d03b147ec39cd,66a626ef09d4e21e1a8894ec,6734d686adf9e0db3f0fd93e,2024-11-13_17h40.48.771,Tarea de género gramatical,2024.2.2,MacIntel,62.5,,,,,,,,,,,,,,,,,,,,,,,495.7296,496.9435,l,1,[],[],[],[],[],[],[],0.5416,1,496.9436,497.441,,,,,,540,MAS,AGR,150,león,el,l,0.5416,,497.441,497.4411,-0.888505925,0.499680858,0,0,0,,0,208,208,89,1,,,,
,,,,,,2edf51f8949d03b147ec39cd,66a626ef09d4e21e1a8894ec,6734d686adf9e0db3f0fd93e,2024-11-13_17h40.48.771,Tarea de género gramatical,2024.2.2,MacIntel,62.5,,,,,,,,,,,,,,,,,,,,,,,497.4416,498.5573,a,1,[],[],[],[],[],[],[],0.4309,1,498.5573,499.0496,,,,,,675,FEM,AGR,150,pieza,la,a,0.4309,,499.0501,499.0505,-0.888505925,0.499680858,0,0,0,,0,209,209,224,1,,,,
,,,,,,2edf51f8949d03b147ec39cd,66a626ef09d4e21e1a8894ec,6734d686adf9e0db3f0fd93e,2024-11-13_17h40.48.771,Tarea de género gramatical,2024.2.2,MacIntel,62.5,,,,,,,,,,,,,,,,,,,,,,,499.0508,500.5679,l,1,[],[],[],[],[],[],[],0.8427,1,500.568,501.0569,,,,,,569,MAS,DIS,150,mito,la,l,0.8427,,501.057,501.0571,-0.888505925,0.499680858,0,0,0,,0,210,210,118,1,,,,
,,,,,,2edf51f8949d03b147ec39cd,66a626ef09d4e21e1a8894ec,6734d686adf9e0db3f0fd93e,2024-11-13_17h40.48.771,Tarea de género gramatical,2024.2.2,MacIntel,62.5,,,,,,,,,,,,,,,,,,,,,,,501.0575,502.426,a,1,[],[],[],[],[],[],[],0.6956,1,502.426,502.9262,,,,,,505,FEM,CON,150,taza,,a,0.6956,,502.9262,502.9264,-0.888505925,0.499680858,0,0,0,,0,211,211,54,1,,,,
,,,,,,2edf51f8949d03b147ec39cd,66a626ef09d4e21e1a8894ec,6734d686adf9e0db3f0fd93e,2024-11-13_17h40.48.771,Tarea de género gramatical,2024.2.2,MacIntel,62.5,,,,,,,,,,,,,,,,,,,,,,,502.9269,504.1617,l,0,[],[],[],[],[],[],[],0.5665,0,504.1622,504.6638,,,,,,812,FEM,DIS,150,fuente,el,a,0.5665,,504.6638,504.6639,-0.888505925,0.499680858,0,0,0,,0,212,212,361,1,,,,
,,,,,,2edf51f8949d03b147ec39cd,66a626ef09d4e21e1a8894ec,6734d686adf9e0db3f0fd93e,2024-11-13_17h40.48.771,Tarea de género gramatical,2024.2.2,MacIntel,62.5,,,,,,,,,,,,,,,,,,,,,,,504.6645,506.0626,l,1,[],[],[],[],[],[],[],0.7123,1,506.0631,506.5531,,,,,,882,MAS,AGR,150,océano,el,l,0.7123,,506.5538,506.5541,-0.888505925,0.499680858,0,0,0,,0,213,213,431,1,,,,
,,,,,,2edf51f8949d03b147ec39cd,66a626ef09d4e21e1a8894ec,6734d686adf9e0db3f0fd93e,2024-11-13_17h40.48.771,Tarea de género gramatical,2024.2.2,MacIntel,62.5,,,,,,,,,,,,,,,,,,,,,,,506.5546,507.6937,l,0,[],[],[],[],[],[],[],0.4547,0,507.6942,508.1978,,,,,,601,FEM,CON,150,noche,,a,0.4547,,508.1978,508.1979,-0.888505925,0.499680858,0,0,0,,0,214,214,150,1,,,,
,,,,,,2edf51f8949d03b147ec39cd,66a626ef09d4e21e1a8894ec,6734d686adf9e0db3f0fd93e,2024-11-13_17h40.48.771,Tarea de género gramatical,2024.2.2,MacIntel,62.5,,,,,,,,,,,,,,,,,,,,,,,508.1984,509.8006,l,1,[],[],[],[],[],[],[],0.9163,1,509.8011,510.3039,,,,,,623,MAS,DIS,150,libro,la,l,0.9163,,510.3039,510.304,-0.888505925,0.499680858,0,0,0,,0,215,215,172,1,,,,
,,,,,,2edf51f8949d03b147ec39cd,66a626ef09d4e21e1a8894ec,6734d686adf9e0db3f0fd93e,2024-11-13_17h40.48.771,Tarea de género gramatical,2024.2.2,MacIntel,62.5,,,,,,,,,,,,,,,,,,,,,,,510.3046,512.259,l,1,[],[],[],[],[],[],[],1.2818,1,512.259,512.7633,,,,,,773,MAS,DIS,150,marido,la,l,1.2818,,512.7634,512.7634,-0.888505925,0.499680858,0,0,0,,0,216,216,322,1,,,,
,,,,,,2edf51f8949d03b147ec39cd,66a626ef09d4e21e1a8894ec,6734d686adf9e0db3f0fd93e,2024-11-13_17h40.48.771,Tarea de género gramatical,2024.2.2,MacIntel,62.5,,,,,,,,,,,,,,,,,,,,,,,512.7639,514.049,a,1,[],[],[],[],[],[],[],0.6129,1,514.0491,514.5472,,,,,,577,FEM,CON,150,cuna,,a,0.6129,,514.5472,514.5473,-0.888505925,0.499680858,0,0,0,,0,217,217,126,1,,,,
,,,,,,2edf51f8949d03b147ec39cd,66a626ef09d4e21e1a8894ec,6734d686adf9e0db3f0fd93e,2024-11-13_17h40.48.771,Tarea de género gramatical,2024.2.2,MacIntel,62.5,,,,,,,,,,,,,,,,,,,,,,,514.5477,515.8269,a,1,[],[],[],[],[],[],[],0.5948,1,515.8271,516.3267,,,,,,661,FEM,CON,150,salud,,a,0.5948,,516.3273,516.3276,-0.888505925,0.499680858,0,0,0,,0,218,218,210,1,,,,
,,,,,,2edf51f8949d03b147ec39cd,66a626ef09d4e21e1a8894ec,6734d686adf9e0db3f0fd93e,2024-11-13_17h40.48.771,Tarea de género gramatical,2024.2.2,MacIntel,62.5,,,,,,,,,,,,,,,,,,,,,,,516.3279,517.6152,l,1,[],[],[],[],[],[],[],0.6094,1,517.6152,518.1185,,,,,,840,MAS,AGR,150,rostro,el,l,0.6094,,518.1186,518.1186,-0.888505925,0.499680858,0,0,0,,0,219,219,389,1,,,,
,,,,,,2edf51f8949d03b147ec39cd,66a626ef09d4e21e1a8894ec,6734d686adf9e0db3f0fd93e,2024-11-13_17h40.48.771,Tarea de género gramatical,2024.2.2,MacIntel,62.5,,,,,,,,,,,,,,,,,,,,,,,518.1191,519.4393,l,1,[],[],[],[],[],[],[],0.6365,1,519.4394,519.9458,,,,,,688,MAS,CON,150,norte,,l,0.6365,,519.9458,519.9458,-0.888505925,0.499680858,0,0,0,,0,220,220,237,1,,,,
,,,,,,2edf51f8949d03b147ec39cd,66a626ef09d4e21e1a8894ec,6734d686adf9e0db3f0fd93e,2024-11-13_17h40.48.771,Tarea de género gramatical,2024.2.2,MacIntel,62.5,,,,,,,,,,,,,,,,,,,,,,,519.9463,521.171,l,1,[],[],[],[],[],[],[],0.542,1,521.1711,521.6736,,,,,,744,MAS,AGR,150,cable,el,l,0.542,,521.6736,521.6737,-0.888505925,0.499680858,0,0,0,,0,221,221,293,1,,,,
,,,,,,2edf51f8949d03b147ec39cd,66a626ef09d4e21e1a8894ec,6734d686adf9e0db3f0fd93e,2024-11-13_17h40.48.771,Tarea de género gramatical,2024.2.2,MacIntel,62.5,,,,,,,,,,,,,,,,,,,,,,,521.6743,523.2688,a,1,[],[],[],[],[],[],[],0.9154,1,523.2689,523.7723,,,,,,638,FEM,DIS,150,bomba,el,a,0.9154,,523.773,523.7732,-0.888505925,0.499680858,0,0,0,,0,222,222,187,1,,,,
,,,,,,2edf51f8949d03b147ec39cd,66a626ef09d4e21e1a8894ec,6734d686adf9e0db3f0fd93e,2024-11-13_17h40.48.771,Tarea de género gramatical,2024.2.2,MacIntel,62.5,,,,,,,,,,,,,,,,,,,,,,,523.7736,525.2374,l,1,[],[],[],[],[],[],[],0.7909,1,525.2374,525.7349,,,,,,737,MAS,DIS,150,plato,la,l,0.7909,,525.735,525.7351,-0.888505925,0.499680858,0,0,0,,0,223,223,286,1,,,,
,,,,,,2edf51f8949d03b147ec39cd,66a626ef09d4e21e1a8894ec,6734d686adf9e0db3f0fd93e,2024-11-13_17h40.48.771,Tarea de género gramatical,2024.2.2,MacIntel,62.5,,,,,,,,,,,,,,,,,,,,,,,525.7356,527.0967,l,1,[],[],[],[],[],[],[],0.6921,1,527.0967,527.599,,,,,,870,MAS,AGR,150,helado,el,l,0.6921,,527.599,527.599,-0.888505925,0.499680858,0,0,0,,0,224,224,419,1,,,,
,,,,,,2edf51f8949d03b147ec39cd,66a626ef09d4e21e1a8894ec,6734d686adf9e0db3f0fd93e,2024-11-13_17h40.48.771,Tarea de género gramatical,2024.2.2,MacIntel,62.5,,,,,,,,,,,,,,,,,,,,,,,527.5996,529.1562,a,1,[],[],[],[],[],[],[],0.8869,1,529.1562,529.6578,,,,,,519,FEM,AGR,150,rata,la,a,0.8869,,529.6578,529.6579,-0.888505925,0.499680858,0,0,0,,0,225,225,68,1,,,,
,,,,,,2edf51f8949d03b147ec39cd,66a626ef09d4e21e1a8894ec,6734d686adf9e0db3f0fd93e,2024-11-13_17h40.48.771,Tarea de género gramatical,2024.2.2,MacIntel,62.5,,,,,,,,,,,,,,,,,,,,,,,529.6584,530.7403,a,1,[],[],[],[],[],[],[],0.4097,1,530.7404,531.2396,,,,,,723,FEM,AGR,150,tarta,la,a,0.4097,,531.2397,531.2398,-0.888505925,0.499680858,0,0,0,,0,226,226,272,1,,,,
,,,,,,2edf51f8949d03b147ec39cd,66a626ef09d4e21e1a8894ec,6734d686adf9e0db3f0fd93e,2024-11-13_17h40.48.771,Tarea de género gramatical,2024.2.2,MacIntel,62.5,,,,,,,,,,,,,,,,,,,,,,,531.2402,532.6401,l,0,[],[],[],[],[],[],[],0.7215,0,532.6405,533.1327,,,,,,848,FEM,DIS,150,hierba,el,a,0.7215,,533.1333,533.1336,-0.888505925,0.499680858,0,0,0,,0,227,227,397,1,,,,
,,,,,,2edf51f8949d03b147ec39cd,66a626ef09d4e21e1a8894ec,6734d686adf9e0db3f0fd93e,2024-11-13_17h40.48.771,Tarea de género gramatical,2024.2.2,MacIntel,62.5,,,,,,,,,,,,,,,,,,,,,,,533.1339,534.4484,a,1,[],[],[],[],[],[],[],0.6348,1,534.449,534.9424,,,,,,799,FEM,CON,150,prensa,,a,0.6348,,534.9425,534.9425,-0.888505925,0.499680858,0,0,0,,0,228,228,348,1,,,,
,,,,,,2edf51f8949d03b147ec39cd,66a626ef09d4e21e1a8894ec,6734d686adf9e0db3f0fd93e,2024-11-13_17h40.48.771,Tarea de género gramatical,2024.2.2,MacIntel,62.5,,,,,,,,,,,,,,,,,,,,,,,534.9431,536.3008,l,1,[],[],[],[],[],[],[],0.6862,1,536.3008,536.8009,,,,,,707,MAS,DIS,150,pecho,la,l,0.6862,,536.8009,536.8009,-0.888505925,0.499680858,0,0,0,,0,229,229,256,1,,,,
,,,,,,2edf51f8949d03b147ec39cd,66a626ef09d4e21e1a8894ec,6734d686adf9e0db3f0fd93e,2024-11-13_17h40.48.771,Tarea de género gramatical,2024.2.2,MacIntel,62.5,,,,,,,,,,,,,,,,,,,,,,,536.8015,538.0866,a,1,[],[],[],[],[],[],[],0.6062,1,538.0866,538.5657,,,,,,639,FEM,AGR,150,pista,la,a,0.6062,,538.5658,538.5658,-0.888505925,0.499680858,0,0,0,,0,230,230,188,1,,,,
,,,,,,2edf51f8949d03b147ec39cd,66a626ef09d4e21e1a8894ec,6734d686adf9e0db3f0fd93e,2024-11-13_17h40.48.771,Tarea de género gramatical,2024.2.2,MacIntel,62.5,,,,,,,,,,,,,,,,,,,,,,,538.5662,539.6758,a,1,[],[],[],[],[],[],[],0.43,1,539.6759,540.1641,,,,,,715,FEM,CON,150,rueda,,a,0.43,,540.1647,540.165,-0.888505925,0.499680858,0,0,0,,0,231,231,264,1,,,,
,,,,,,2edf51f8949d03b147ec39cd,66a626ef09d4e21e1a8894ec,6734d686adf9e0db3f0fd93e,2024-11-13_17h40.48.771,Tarea de género gramatical,2024.2.2,MacIntel,62.5,,,,,,,,,,,,,,,,,,,,,,,540.1653,541.3625,l,1,[],[],[],[],[],[],[],0.5215,1,541.3625,541.8536,,,,,,580,MAS,CON,150,yate,,l,0.5215,,541.8536,541.8536,-0.888505925,0.499680858,0,0,0,,0,232,232,129,1,,,,
,,,,,,2edf51f8949d03b147ec39cd,66a626ef09d4e21e1a8894ec,6734d686adf9e0db3f0fd93e,2024-11-13_17h40.48.771,Tarea de género gramatical,2024.2.2,MacIntel,62.5,,,,,,,,,,,,,,,,,,,,,,,541.8543,542.9956,l,1,[],[],[],[],[],[],[],0.4698,1,542.9956,543.5013,,,,,,570,MAS,AGR,150,puño,el,l,0.4698,,543.5014,543.5014,-0.888505925,0.499680858,0,0,0,,0,233,233,119,1,,,,
,,,,,,2edf51f8949d03b147ec39cd,66a626ef09d4e21e1a8894ec,6734d686adf9e0db3f0fd93e,2024-11-13_17h40.48.771,Tarea de género gramatical,2024.2.2,MacIntel,62.5,,,,,,,,,,,,,,,,,,,,,,,543.5019,544.5297,l,1,[],[],[],[],[],[],[],0.3535,1,544.5297,545.0302,,,,,,730,MAS,CON,150,salón,,l,0.3535,,545.0302,545.0303,-0.888505925,0.499680858,0,0,0,,0,234,234,279,1,,,,
,,,,,,2edf51f8949d03b147ec39cd,66a626ef09d4e21e1a8894ec,6734d686adf9e0db3f0fd93e,2024-11-13_17h40.48.771,Tarea de género gramatical,2024.2.2,MacIntel,62.5,,,,,,,,,,,,,,,,,,,,,,,545.0309,546.3703,l,1,[],[],[],[],[],[],[],0.6707,1,546.3704,546.8582,,,,,,647,MAS,DIS,150,avión,la,l,0.6707,,546.8583,546.8583,-0.888505925,0.499680858,0,0,0,,0,235,235,196,1,,,,
,,,,,,2edf51f8949d03b147ec39cd,66a626ef09d4e21e1a8894ec,6734d686adf9e0db3f0fd93e,2024-11-13_17h40.48.771,Tarea de género gramatical,2024.2.2,MacIntel,62.5,,,,,,,,,,,,,,,,,,,,,,,546.8588,548.2531,l,1,[],[],[],[],[],[],[],0.7106,1,548.2532,548.7382,,,,,,821,MAS,DIS,150,sonido,la,l,0.7106,,548.7388,548.7391,-0.888505925,0.499680858,0,0,0,,0,236,236,370,1,,,,
,,,,,,2edf51f8949d03b147ec39cd,66a626ef09d4e21e1a8894ec,6734d686adf9e0db3f0fd93e,2024-11-13_17h40.48.771,Tarea de género gramatical,2024.2.2,MacIntel,62.5,,,,,,,,,,,,,,,,,,,,,,,548.7394,550.2419,a,1,[],[],[],[],[],[],[],0.8163,1,550.2419,550.7222,,,,,,620,FEM,DIS,150,carta,el,a,0.8163,,550.7223,550.7223,-0.888505925,0.499680858,0,0,0,,0,237,237,169,1,,,,
,,,,,,2edf51f8949d03b147ec39cd,66a626ef09d4e21e1a8894ec,6734d686adf9e0db3f0fd93e,2024-11-13_17h40.48.771,Tarea de género gramatical,2024.2.2,MacIntel,62.5,,,,,,,,,,,,,,,,,,,,,,,550.7229,552.1455,l,1,[],[],[],[],[],[],[],0.7475,1,552.1455,552.6236,,,,,,539,MAS,DIS,150,maíz,la,l,0.7475,,552.6236,552.6237,-0.888505925,0.499680858,0,0,0,,0,238,238,88,1,,,,
,,,,,,2edf51f8949d03b147ec39cd,66a626ef09d4e21e1a8894ec,6734d686adf9e0db3f0fd93e,2024-11-13_17h40.48.771,Tarea de género gramatical,2024.2.2,MacIntel,62.5,,,,,,,,,,,,,,,,,,,,,,,552.6243,553.8017,l,1,[],[],[],[],[],[],[],0.5086,1,553.8017,554.2998,,,,,,460,MAS,CON,150,niño,,l,0.5086,,554.2998,554.2999,-0.888505925,0.499680858,0,0,0,,0,239,239,9,1,,,,
,,,,,,2edf51f8949d03b147ec39cd,66a626ef09d4e21e1a8894ec,6734d686adf9e0db3f0fd93e,2024-11-13_17h40.48.771,Tarea de género gramatical,2024.2.2,MacIntel,62.5,,,,,,,,,,,,,,,,,,,,,,,554.3004,555.6726,a,0,[],[],[],[],[],[],[],0.6955,0,555.6731,556.1608,,,,,,815,MAS,DIS,150,código,la,l,0.6955,,556.1614,556.1617,-0.888505925,0.499680858,0,0,0,,0,240,240,364,1,,,,
,,,,,,2edf51f8949d03b147ec39cd,66a626ef09d4e21e1a8894ec,6734d686adf9e0db3f0fd93e,2024-11-13_17h40.48.771,Tarea de género gramatical,2024.2.2,MacIntel,62.5,,,,,,,,,,,,,,,,,,,,,,,556.162,557.7573,a,1,[],[],[],[],[],[],[],0.9192,1,557.7579,558.2622,,,,,,860,FEM,DIS,150,piedad,el,a,0.9192,,558.2622,558.2622,-0.888505925,0.499680858,0,0,0,,0,241,241,409,1,,,,
,,,,,,2edf51f8949d03b147ec39cd,66a626ef09d4e21e1a8894ec,6734d686adf9e0db3f0fd93e,2024-11-13_17h40.48.771,Tarea de género gramatical,2024.2.2,MacIntel,62.5,,,,,,,,,,,,,,,,,,,,,,,558.2628,559.4748,l,1,[],[],[],[],[],[],[],0.5405,1,559.4748,559.9768,,,,,,576,MAS,AGR,150,lazo,el,l,0.5405,,559.9768,559.9768,-0.888505925,0.499680858,0,0,0,,0,242,242,125,1,,,,
,,,,,,2edf51f8949d03b147ec39cd,66a626ef09d4e21e1a8894ec,6734d686adf9e0db3f0fd93e,2024-11-13_17h40.48.771,Tarea de género gramatical,2024.2.2,MacIntel,62.5,,,,,,,,,,,,,,,,,,,,,,,559.9774,561.2907,a,1,[],[],[],[],[],[],[],0.6443,1,561.2907,561.7938,,,,,,625,FEM,CON,150,señal,,a,0.6443,,561.7938,561.7939,-0.888505925,0.499680858,0,0,0,,0,243,243,174,1,,,,
,,,,,,2edf51f8949d03b147ec39cd,66a626ef09d4e21e1a8894ec,6734d686adf9e0db3f0fd93e,2024-11-13_17h40.48.771,Tarea de género gramatical,2024.2.2,MacIntel,62.5,,,,,,,,,,,,,,,,,,,,,,,561.7945,563.2083,l,1,[],[],[],[],[],[],[],0.7289,1,563.2084,563.7075,,,,,,605,MAS,DIS,150,mundo,la,l,0.7289,,563.7075,563.7076,-0.888505925,0.499680858,0,0,0,,0,244,244,154,1,,,,
,,,,,,2edf51f8949d03b147ec39cd,66a626ef09d4e21e1a8894ec,6734d686adf9e0db3f0fd93e,2024-11-13_17h40.48.771,Tarea de género gramatical,2024.2.2,MacIntel,62.5,,,,,,,,,,,,,,,,,,,,,,,563.708,564.9895,l,1,[],[],[],[],[],[],[],0.6021,1,564.9896,565.4809,,,,,,653,MAS,DIS,150,novio,la,l,0.6021,,565.4816,565.4819,-0.888505925,0.499680858,0,0,0,,0,245,245,202,1,,,,
,,,,,,2edf51f8949d03b147ec39cd,66a626ef09d4e21e1a8894ec,6734d686adf9e0db3f0fd93e,2024-11-13_17h40.48.771,Tarea de género gramatical,2024.2.2,MacIntel,62.5,,,,,,,,,,,,,,,,,,,,,,,565.4822,566.7194,a,1,[],[],[],[],[],[],[],0.5512,1,566.7195,567.213,,,,,,457,FEM,CON,150,hora,,a,0.5512,,567.213,567.213,-0.888505925,0.499680858,0,0,0,,0,246,246,6,1,,,,
,,,,,,2edf51f8949d03b147ec39cd,66a626ef09d4e21e1a8894ec,6734d686adf9e0db3f0fd93e,2024-11-13_17h40.48.771,Tarea de género gramatical,2024.2.2,MacIntel,62.5,,,,,,,,,,,,,,,,,,,,,,,567.2135,568.4797,a,1,[],[],[],[],[],[],[],0.5883,1,568.4798,568.9794,,,,,,591,FEM,AGR,150,cera,la,a,0.5883,,568.9794,568.9795,-0.888505925,0.499680858,0,0,0,,0,247,247,140,1,,,,
,,,,,,2edf51f8949d03b147ec39cd,66a626ef09d4e21e1a8894ec,6734d686adf9e0db3f0fd93e,2024-11-13_17h40.48.771,Tarea de género gramatical,2024.2.2,MacIntel,62.5,,,,,,,,,,,,,,,,,,,,,,,568.9801,570.0145,a,1,[],[],[],[],[],[],[],0.3562,1,570.0145,570.5193,,,,,,633,FEM,AGR,150,llave,la,a,0.3562,,570.5193,570.5194,-0.888505925,0.499680858,0,0,0,,0,248,248,182,1,,,,
,,,,,,2edf51f8949d03b147ec39cd,66a626ef09d4e21e1a8894ec,6734d686adf9e0db3f0fd93e,2024-11-13_17h40.48.771,Tarea de género gramatical,2024.2.2,MacIntel,62.5,,,,,,,,,,,,,,,,,,,,,,,570.5198,571.8424,a,1,[],[],[],[],[],[],[],0.6406,1,571.8424,572.3451,,,,,,873,FEM,AGR,150,poesía,la,a,0.6406,,572.3456,572.3459,-0.888505925,0.499680858,0,0,0,,0,249,249,422,1,,,,
,,,,,,2edf51f8949d03b147ec39cd,66a626ef09d4e21e1a8894ec,6734d686adf9e0db3f0fd93e,2024-11-13_17h40.48.771,Tarea de género gramatical,2024.2.2,MacIntel,62.5,,,,,,,,,,,,,,,,,,,,,,,572.3467,573.4689,l,1,[],[],[],[],[],[],[],0.4477,1,573.469,573.9669,,,,,,534,MAS,AGR,150,mago,el,l,0.4477,,573.967,573.967,-0.888505925,0.499680858,0,0,0,,0,250,250,83,1,,,,
,,,,,,2edf51f8949d03b147ec39cd,66a626ef09d4e21e1a8894ec,6734d686adf9e0db3f0fd93e,2024-11-13_17h40.48.771,Tarea de género gramatical,2024.2.2,MacIntel,62.5,,,,,,,,,,,,,,,,,,,,,,,573.9676,575.4187,a,1,[],[],[],[],[],[],[],0.7786,1,575.4187,575.907,,,,,,524,FEM,DIS,150,flor,el,a,0.7786,,575.907,575.9071,-0.888505925,0.499680858,0,0,0,,0,251,251,73,1,,,,
,,,,,,2edf51f8949d03b147ec39cd,66a626ef09d4e21e1a8894ec,6734d686adf9e0db3f0fd93e,2024-11-13_17h40.48.771,Tarea de género gramatical,2024.2.2,MacIntel,62.5,,,,,,,,,,,,,,,,,,,,,,,575.9076,577.4966,l,0,[],[],[],[],[],[],[],0.9177,0,577.4971,577.9746,,,,,,763,FEM,CON,150,ciudad,,a,0.9177,,577.9747,577.9747,-0.888505925,0.499680858,0,0,0,,0,252,252,312,1,,,,
,,,,,,2edf51f8949d03b147ec39cd,66a626ef09d4e21e1a8894ec,6734d686adf9e0db3f0fd93e,2024-11-13_17h40.48.771,Tarea de género gramatical,2024.2.2,MacIntel,62.5,,,,,,,,,,,,,,,,,,,,,,,577.9752,579.4924,l,1,[],[],[],[],[],[],[],0.8319,1,579.4929,579.9963,,,,,,454,MAS,CON,150,hijo,,l,0.8319,,579.9963,579.9965,-0.888505925,0.499680858,0,0,0,,0,253,253,3,1,,,,
,,,,,,2edf51f8949d03b147ec39cd,66a626ef09d4e21e1a8894ec,6734d686adf9e0db3f0fd93e,2024-11-13_17h40.48.771,Tarea de género gramatical,2024.2.2,MacIntel,62.5,,,,,,,,,,,,,,,,,,,,,,,579.9969,581.0854,l,1,[],[],[],[],[],[],[],0.4077,1,581.0854,581.5846,,,,,,502,MAS,CON,150,lago,,l,0.4077,,581.5852,581.5855,-0.888505925,0.499680858,0,0,0,,0,254,254,51,1,,,,
,,,,,,2edf51f8949d03b147ec39cd,66a626ef09d4e21e1a8894ec,6734d686adf9e0db3f0fd93e,2024-11-13_17h40.48.771,Tarea de género gramatical,2024.2.2,MacIntel,62.5,,,,,,,,,,,,,,,,,,,,,,,581.586,582.9079,l,1,[],[],[],[],[],[],[],0.6435,1,582.9079,583.4079,,,,,,564,MAS,AGR,150,menú,el,l,0.6435,,583.4079,583.408,-0.888505925,0.499680858,0,0,0,,0,255,255,113,1,,,,
