counterbalancing_condition,consent_prescreening.block_1/declare_consent,consent_prescreening.block_1/age_years,consent_prescreening.block_1/gender,consent_prescreening.block_1/language_disorder,consent_prescreening.block_1/first_language,PROLIFIC_PID,STUDY_ID,SESSION_ID,date,expName,psychopyVersion,OS,frameRate,check_prescreening_answers.started,check_prescreening_answers.stopped,Instructions.started,Instructions.stopped,instr_done_keyboard.keys,instr_done_touch.x,instr_done_touch.y,instr_done_touch.leftButton,instr_done_touch.midButton,instr_done_touch.rightButton,instr_done_touch.clicked_name,instruction_pages.thisRepN,instruction_pages.thisTrialN,instruction_pages.thisN,instruction_pages.thisIndex,instruction_pages.ran,pageN,phase,instruct_text,has_image,instruct_image,presentTrial.started,presentTrial.stopped,response.keys,response.corr,response.rt,response.duration,touch_resp.x,touch_resp.y,touch_resp.leftButton,touch_resp.midButton,touch_resp.rightButton,touch_resp.time,touch_resp.clicked_name,rt,corr,feedback.started,feedback.stopped,practice_trials.thisRepN,practice_trials.thisTrialN,practice_trials.thisN,practice_trials.thisIndex,practice_trials.ran,TrialID,StimulusType,Condition,PrimeDuration,Prime,Flanker,corrAns,instr_done_keyboard.rt,instr_done_keyboard.duration,Break.started,Break.stopped,break_done_touch.x,break_done_touch.y,break_done_touch.leftButton,break_done_touch.midButton,break_done_touch.rightButton,break_done_keyboard.keys,experiment_trials.thisRepN,experiment_trials.thisTrialN,experiment_trials.thisN,experiment_trials.thisIndex,experiment_trials.ran,break_done_keyboard.rt,break_done_keyboard.duration,End.started,End.stopped
0,"[""over_18"",""comfortable"",""read_info"",""consent_given""]",27,F,"[""none""]","[""spanish""]",3197a726c117721867d8f4dc,66a626ef09d4e21e1a8894ec,6735ef7b278c1de90a3baea9,2024-11-14_13h39.47.006,Tarea de género gramatical,2024.2.2,Win32,59.95203837,,,,,,,,,,,,,,,,,,,,,,,,,,,,,,,,,,,,,,,,,,,,,,,,,,,,,,,,,,,,,,,,,,,,,
,,,,,,3197a726c117721867d8f4dc,66a626ef09d4e21e1a8894ec,6735ef7b278c1de90a3baea9,2024-11-14_13h39.47.006,Tarea de género gramatical,2024.2.2,Win32,59.95203837,18.05,18.05,,,,,,,,,,,,,,,,,,,,,,,,,,,,,,,,,,,,,,,,,,,,,,,,,,,,,,,,,,,,,,,,,,,
,,,,,,3197a726c117721867d8f4dc,66a626ef09d4e21e1a8894ec,6735ef7b278c1de90a3baea9,2024-11-14_13h39.47.006,Tarea de género gramatical,2024.2.2,Win32,59.95203837,,,18.06,40.734,,-0.08375,-0.39125,1,0,0,instr_done_button,0,0,0,0,1,1,instructions,"INSTRUCCIONES
Va a realizar una prueba de selección gramatical. Desde el comienzo de la prueba mire siempre al centro de la pantalla. Al cabo de un momento, aparecerán palabras. La tarea consiste en determinar si la palabra del centro (siempre será un sustantivo), pertenece al género masculino o femenino.

Pulse la tecla ESPACIO o toque el botón de abajo para continuar.",0,keyboardresponseMF.png,,,,,,,,,,,,,,,,,,,,,,,,,,,,,,,,,,,,,,,,,,,,,,,,
,,,,,,3197a726c117721867d8f4dc,66a626ef09d4e21e1a8894ec,6735ef7b278c1de90a3baea9,2024-11-14_13h39.47.006,Tarea de género gramatical,2024.2.2,Win32,59.95203837,,,40.739,47.783,,-0.07625,-0.3825,1,0,0,instr_done_button,0,1,1,1,1,2,instructions,"Si su dispositivo tiene teclado, pulse la tecla ""A"" para las palabras en masculino (por ejemplo: ""arroz"") y la tecla ""L"" para las palabras en femenino (por ejemplo: ""mano"").
Pulse la tecla ESPACIO o toque el botón de abajo para continuar.",1,keyboardresponseMF.png,,,,,,,,,,,,,,,,,,,,,,,,,,,,,,,,,,,,,,,,,,,,,,,,
,,,,,,3197a726c117721867d8f4dc,66a626ef09d4e21e1a8894ec,6735ef7b278c1de90a3baea9,2024-11-14_13h39.47.006,Tarea de género gramatical,2024.2.2,Win32,59.95203837,,,47.785,52.183,,-0.07625,-0.3825,1,0,0,instr_done_button,0,2,2,2,1,3,instructions,"Si utiliza un dispositivo sólo táctil, colóquelo en horizontal y utilice los botones de la pantalla. No utilice el ratón.
Pulse la tecla ESPACIO o toque el botón de abajo para continuar.",2,touchresponseMF.png,,,,,,,,,,,,,,,,,,,,,,,,,,,,,,,,,,,,,,,,,,,,,,,,
,,,,,,3197a726c117721867d8f4dc,66a626ef09d4e21e1a8894ec,6735ef7b278c1de90a3baea9,2024-11-14_13h39.47.006,Tarea de género gramatical,2024.2.2,Win32,59.95203837,,,52.186,59.983,,-0.07625,-0.3825,1,0,0,instr_done_button,0,3,3,3,1,4,instructions,"Es muy importante que responda con la mayor rapidez y precisión posibles, ya que cada cadena de letras sólo estará en pantalla durante un instante. Si no responde en ese tiempo, aparecerá el mensaje ""Muy lento"" y el experimento pasará a la siguiente palabra. Los primeros 15 intentos serán de práctica y habrá dos descansos durante la prueba.
Pulse la tecla ESPACIO o toque el botón de abajo para iniciar la parte de práctica.",0,keyboardresponseMF.png,,,,,,,,,,,,,,,,,,,,,,,,,,,,,,,,,,,,,,,,,,,,,,,,
,,,,,,3197a726c117721867d8f4dc,66a626ef09d4e21e1a8894ec,6735ef7b278c1de90a3baea9,2024-11-14_13h39.47.006,Tarea de género gramatical,2024.2.2,Win32,59.95203837,,,,,,,,,,,,,,,,,,,,,,59.999,62.3,a,1,1.635,,[],[],[],[],[],[],[],1.635,1,62.301,62.799,0,0,0,12,1,2013,MAS,AGR,150,acero,el,l,,,,,,,,,,,,,,,,,,,
,,,,,,3197a726c117721867d8f4dc,66a626ef09d4e21e1a8894ec,6735ef7b278c1de90a3baea9,2024-11-14_13h39.47.006,Tarea de género gramatical,2024.2.2,Win32,59.95203837,,,,,,,,,,,,,,,,,,,,,,62.801,64.066,l,1,0.583,,[],[],[],[],[],[],[],0.583,1,64.066,64.566,0,1,1,6,1,2007,FEM,AGR,150,navaja,la,a,,,,,,,,,,,,,,,,,,,
,,,,,,3197a726c117721867d8f4dc,66a626ef09d4e21e1a8894ec,6735ef7b278c1de90a3baea9,2024-11-14_13h39.47.006,Tarea de género gramatical,2024.2.2,Win32,59.95203837,,,,,,,,,,,,,,,,,,,,,,64.567,65.699,l,1,0.458,,[],[],[],[],[],[],[],0.458,1,65.699,66.2,0,2,2,1,1,2002,FEM,CON,150,pala,,a,,,,,,,,,,,,,,,,,,,
,,,,,,3197a726c117721867d8f4dc,66a626ef09d4e21e1a8894ec,6735ef7b278c1de90a3baea9,2024-11-14_13h39.47.006,Tarea de género gramatical,2024.2.2,Win32,59.95203837,,,,,,,,,,,,,,,,,,,,,,66.201,67.699,a,1,0.823,,[],[],[],[],[],[],[],0.823,1,67.7,68.199,0,3,3,14,1,2015,MAS,DIS,150,robot,la,l,,,,,,,,,,,,,,,,,,,
,,,,,,3197a726c117721867d8f4dc,66a626ef09d4e21e1a8894ec,6735ef7b278c1de90a3baea9,2024-11-14_13h39.47.006,Tarea de género gramatical,2024.2.2,Win32,59.95203837,,,,,,,,,,,,,,,,,,,,,,68.201,69.733,a,1,0.86,,[],[],[],[],[],[],[],0.86,1,69.733,70.232,0,4,4,13,1,2014,MAS,CON,150,siglo,,l,,,,,,,,,,,,,,,,,,,
,,,,,,3197a726c117721867d8f4dc,66a626ef09d4e21e1a8894ec,6735ef7b278c1de90a3baea9,2024-11-14_13h39.47.006,Tarea de género gramatical,2024.2.2,Win32,59.95203837,,,,,,,,,,,,,,,,,,,,,,70.234,71.317,l,1,0.423,,[],[],[],[],[],[],[],0.423,1,71.317,71.816,0,5,5,7,1,2008,FEM,CON,150,siesta,,a,,,,,,,,,,,,,,,,,,,
,,,,,,3197a726c117721867d8f4dc,66a626ef09d4e21e1a8894ec,6735ef7b278c1de90a3baea9,2024-11-14_13h39.47.006,Tarea de género gramatical,2024.2.2,Win32,59.95203837,,,,,,,,,,,,,,,,,,,,,,71.819,72.849,l,1,0.36,,[],[],[],[],[],[],[],0.36,1,72.849,73.349,0,6,6,4,1,2005,FEM,CON,150,placa,,a,,,,,,,,,,,,,,,,,,,
,,,,,,3197a726c117721867d8f4dc,66a626ef09d4e21e1a8894ec,6735ef7b278c1de90a3baea9,2024-11-14_13h39.47.006,Tarea de género gramatical,2024.2.2,Win32,59.95203837,,,,,,,,,,,,,,,,,,,,,,73.35,74.499,l,0,0.466,,[],[],[],[],[],[],[],0.466,0,74.501,74.999,0,7,7,11,1,2012,MAS,DIS,150,clima,la,l,,,,,,,,,,,,,,,,,,,
,,,,,,3197a726c117721867d8f4dc,66a626ef09d4e21e1a8894ec,6735ef7b278c1de90a3baea9,2024-11-14_13h39.47.006,Tarea de género gramatical,2024.2.2,Win32,59.95203837,,,,,,,,,,,,,,,,,,,,,,75,76.549,l,1,0.878,,[],[],[],[],[],[],[],0.878,1,76.551,77.049,0,8,8,5,1,2006,FEM,DIS,150,serie,el,a,,,,,,,,,,,,,,,,,,,
,,,,,,3197a726c117721867d8f4dc,66a626ef09d4e21e1a8894ec,6735ef7b278c1de90a3baea9,2024-11-14_13h39.47.006,Tarea de género gramatical,2024.2.2,Win32,59.95203837,,,,,,,,,,,,,,,,,,,,,,77.051,78.349,l,1,0.618,,[],[],[],[],[],[],[],0.618,1,78.35,78.85,0,9,9,2,1,2003,FEM,DIS,150,daga,el,a,,,,,,,,,,,,,,,,,,,
,,,,,,3197a726c117721867d8f4dc,66a626ef09d4e21e1a8894ec,6735ef7b278c1de90a3baea9,2024-11-14_13h39.47.006,Tarea de género gramatical,2024.2.2,Win32,59.95203837,,,,,,,,,,,,,,,,,,,,,,78.851,80.033,a,1,0.501,,[],[],[],[],[],[],[],0.501,1,80.034,80.533,0,10,10,8,1,2009,MAS,DIS,150,puerto,la,l,,,,,,,,,,,,,,,,,,,
,,,,,,3197a726c117721867d8f4dc,66a626ef09d4e21e1a8894ec,6735ef7b278c1de90a3baea9,2024-11-14_13h39.47.006,Tarea de género gramatical,2024.2.2,Win32,59.95203837,,,,,,,,,,,,,,,,,,,,,,80.534,82.083,l,1,0.874,,[],[],[],[],[],[],[],0.874,1,82.083,82.583,0,11,11,3,1,2004,FEM,AGR,150,venta,la,a,,,,,,,,,,,,,,,,,,,
,,,,,,3197a726c117721867d8f4dc,66a626ef09d4e21e1a8894ec,6735ef7b278c1de90a3baea9,2024-11-14_13h39.47.006,Tarea de género gramatical,2024.2.2,Win32,59.95203837,,,,,,,,,,,,,,,,,,,,,,82.584,83.682,l,1,0.417,,[],[],[],[],[],[],[],0.417,1,83.682,84.183,0,12,12,0,1,2001,FEM,AGR,150,nuca,la,a,,,,,,,,,,,,,,,,,,,
,,,,,,3197a726c117721867d8f4dc,66a626ef09d4e21e1a8894ec,6735ef7b278c1de90a3baea9,2024-11-14_13h39.47.006,Tarea de género gramatical,2024.2.2,Win32,59.95203837,,,,,,,,,,,,,,,,,,,,,,84.184,85.299,l,0,0.437,,[],[],[],[],[],[],[],0.437,0,85.301,85.799,0,13,13,10,1,2011,MAS,CON,150,canal,,l,,,,,,,,,,,,,,,,,,,
,,,,,,3197a726c117721867d8f4dc,66a626ef09d4e21e1a8894ec,6735ef7b278c1de90a3baea9,2024-11-14_13h39.47.006,Tarea de género gramatical,2024.2.2,Win32,59.95203837,,,,,,,,,,,,,,,,,,,,,,85.801,87.332,a,1,0.851,,[],[],[],[],[],[],[],0.851,1,87.334,87.832,0,14,14,9,1,2010,MAS,AGR,150,vecino,el,l,,,,,,,,,,,,,,,,,,,
,,,,,,3197a726c117721867d8f4dc,66a626ef09d4e21e1a8894ec,6735ef7b278c1de90a3baea9,2024-11-14_13h39.47.006,Tarea de género gramatical,2024.2.2,Win32,59.95203837,,,91.735,94.199,space,-0.07625,-0.3825,0,0,0,,,,,,,,,,,,94.23,95.332,l,1,0.445,,[],[],[],[],[],[],[],0.445,1,95.332,95.832,,,,,,32,FEM,CON,150,caja,,a,2.452,,95.832,95.835,-0.07625,-0.3825,0,0,0,,0,0,0,31,1,,,,
,,,,,,3197a726c117721867d8f4dc,66a626ef09d4e21e1a8894ec,6735ef7b278c1de90a3baea9,2024-11-14_13h39.47.006,Tarea de género gramatical,2024.2.2,Win32,59.95203837,,,,,,,,,,,,,,,,,,,,,,95.836,97.265,a,1,0.75,,[],[],[],[],[],[],[],0.75,1,97.266,97.766,,,,,,424,MAS,AGR,150,rastro,el,l,,,97.766,97.766,-0.07625,-0.3825,0,0,0,,0,1,1,423,1,,,,
,,,,,,3197a726c117721867d8f4dc,66a626ef09d4e21e1a8894ec,6735ef7b278c1de90a3baea9,2024-11-14_13h39.47.006,Tarea de género gramatical,2024.2.2,Win32,59.95203837,,,,,,,,,,,,,,,,,,,,,,97.767,98.865,l,1,0.427,,[],[],[],[],[],[],[],0.427,1,98.866,99.365,,,,,,355,FEM,AGR,150,mirada,la,a,,,99.366,99.368,-0.07625,-0.3825,0,0,0,,0,2,2,354,1,,,,
,,,,,,3197a726c117721867d8f4dc,66a626ef09d4e21e1a8894ec,6735ef7b278c1de90a3baea9,2024-11-14_13h39.47.006,Tarea de género gramatical,2024.2.2,Win32,59.95203837,,,,,,,,,,,,,,,,,,,,,,99.368,100.465,l,1,0.426,,[],[],[],[],[],[],[],0.426,1,100.466,100.965,,,,,,188,FEM,CON,150,bomba,,a,,,100.965,100.966,-0.07625,-0.3825,0,0,0,,0,3,3,187,1,,,,
,,,,,,3197a726c117721867d8f4dc,66a626ef09d4e21e1a8894ec,6735ef7b278c1de90a3baea9,2024-11-14_13h39.47.006,Tarea de género gramatical,2024.2.2,Win32,59.95203837,,,,,,,,,,,,,,,,,,,,,,100.967,102.049,a,1,0.402,,[],[],[],[],[],[],[],0.402,1,102.049,102.549,,,,,,312,MAS,DIS,150,equipo,la,l,,,102.549,102.549,-0.07625,-0.3825,0,0,0,,0,4,4,311,1,,,,
,,,,,,3197a726c117721867d8f4dc,66a626ef09d4e21e1a8894ec,6735ef7b278c1de90a3baea9,2024-11-14_13h39.47.006,Tarea de género gramatical,2024.2.2,Win32,59.95203837,,,,,,,,,,,,,,,,,,,,,,102.55,103.832,a,1,0.611,,[],[],[],[],[],[],[],0.611,1,103.832,104.333,,,,,,371,MAS,CON,150,sonido,,l,,,104.333,104.334,-0.07625,-0.3825,0,0,0,,0,5,5,370,1,,,,
,,,,,,3197a726c117721867d8f4dc,66a626ef09d4e21e1a8894ec,6735ef7b278c1de90a3baea9,2024-11-14_13h39.47.006,Tarea de género gramatical,2024.2.2,Win32,59.95203837,,,,,,,,,,,,,,,,,,,,,,104.337,105.933,a,0,0.921,,[],[],[],[],[],[],[],0.921,0,105.935,106.432,,,,,,31,FEM,AGR,150,edad,la,a,,,106.433,106.435,-0.07625,-0.3825,0,0,0,,0,6,6,30,1,,,,
,,,,,,3197a726c117721867d8f4dc,66a626ef09d4e21e1a8894ec,6735ef7b278c1de90a3baea9,2024-11-14_13h39.47.006,Tarea de género gramatical,2024.2.2,Win32,59.95203837,,,,,,,,,,,,,,,,,,,,,,106.435,107.566,a,1,0.456,,[],[],[],[],[],[],[],0.456,1,107.566,108.065,,,,,,394,MAS,AGR,150,examen,el,l,,,108.065,108.066,-0.07625,-0.3825,0,0,0,,0,7,7,393,1,,,,
,,,,,,3197a726c117721867d8f4dc,66a626ef09d4e21e1a8894ec,6735ef7b278c1de90a3baea9,2024-11-14_13h39.47.006,Tarea de género gramatical,2024.2.2,Win32,59.95203837,,,,,,,,,,,,,,,,,,,,,,108.067,109.332,a,1,0.594,,[],[],[],[],[],[],[],0.594,1,109.333,109.832,,,,,,42,MAS,DIS,150,show,la,l,,,109.832,109.832,-0.07625,-0.3825,0,0,0,,0,8,8,41,1,,,,
,,,,,,3197a726c117721867d8f4dc,66a626ef09d4e21e1a8894ec,6735ef7b278c1de90a3baea9,2024-11-14_13h39.47.006,Tarea de género gramatical,2024.2.2,Win32,59.95203837,,,,,,,,,,,,,,,,,,,,,,109.834,111.133,a,1,0.618,,[],[],[],[],[],[],[],0.618,1,111.133,111.632,,,,,,138,MAS,DIS,150,luto,la,l,,,111.632,111.632,-0.07625,-0.3825,0,0,0,,0,9,9,137,1,,,,
,,,,,,3197a726c117721867d8f4dc,66a626ef09d4e21e1a8894ec,6735ef7b278c1de90a3baea9,2024-11-14_13h39.47.006,Tarea de género gramatical,2024.2.2,Win32,59.95203837,,,,,,,,,,,,,,,,,,,,,,111.633,112.882,l,1,0.591,,[],[],[],[],[],[],[],0.591,1,112.882,113.382,,,,,,91,FEM,AGR,150,hoja,la,a,,,113.382,113.382,-0.07625,-0.3825,0,0,0,,0,10,10,90,1,,,,
,,,,,,3197a726c117721867d8f4dc,66a626ef09d4e21e1a8894ec,6735ef7b278c1de90a3baea9,2024-11-14_13h39.47.006,Tarea de género gramatical,2024.2.2,Win32,59.95203837,,,,,,,,,,,,,,,,,,,,,,113.384,116.032,,0,,,[],[],[],[],[],[],[],0.591,-1,116.032,116.532,,,,,,180,MAS,DIS,150,fuego,la,l,,,116.533,116.534,-0.07625,-0.3825,0,0,0,,0,11,11,179,1,,,,
,,,,,,3197a726c117721867d8f4dc,66a626ef09d4e21e1a8894ec,6735ef7b278c1de90a3baea9,2024-11-14_13h39.47.006,Tarea de género gramatical,2024.2.2,Win32,59.95203837,,,,,,,,,,,,,,,,,,,,,,116.535,117.765,l,1,0.555,,[],[],[],[],[],[],[],0.555,1,117.766,118.265,,,,,,344,FEM,CON,150,pareja,,a,,,118.265,118.265,-0.07625,-0.3825,0,0,0,,0,12,12,343,1,,,,
,,,,,,3197a726c117721867d8f4dc,66a626ef09d4e21e1a8894ec,6735ef7b278c1de90a3baea9,2024-11-14_13h39.47.006,Tarea de género gramatical,2024.2.2,Win32,59.95203837,,,,,,,,,,,,,,,,,,,,,,118.267,119.365,l,1,0.429,,[],[],[],[],[],[],[],0.429,1,119.365,119.865,,,,,,153,FEM,DIS,150,mujer,el,a,,,119.865,119.865,-0.07625,-0.3825,0,0,0,,0,13,13,152,1,,,,
,,,,,,3197a726c117721867d8f4dc,66a626ef09d4e21e1a8894ec,6735ef7b278c1de90a3baea9,2024-11-14_13h39.47.006,Tarea de género gramatical,2024.2.2,Win32,59.95203837,,,,,,,,,,,,,,,,,,,,,,119.867,121.066,l,1,0.517,,[],[],[],[],[],[],[],0.517,1,121.066,121.565,,,,,,277,FEM,AGR,150,plaza,la,a,,,121.565,121.566,-0.07625,-0.3825,0,0,0,,0,14,14,276,1,,,,
,,,,,,3197a726c117721867d8f4dc,66a626ef09d4e21e1a8894ec,6735ef7b278c1de90a3baea9,2024-11-14_13h39.47.006,Tarea de género gramatical,2024.2.2,Win32,59.95203837,,,,,,,,,,,,,,,,,,,,,,121.568,122.649,l,1,0.408,,[],[],[],[],[],[],[],0.408,1,122.649,123.149,,,,,,205,FEM,AGR,150,reina,la,a,,,123.15,123.151,-0.07625,-0.3825,0,0,0,,0,15,15,204,1,,,,
,,,,,,3197a726c117721867d8f4dc,66a626ef09d4e21e1a8894ec,6735ef7b278c1de90a3baea9,2024-11-14_13h39.47.006,Tarea de género gramatical,2024.2.2,Win32,59.95203837,,,,,,,,,,,,,,,,,,,,,,123.151,124.248,a,1,0.424,,[],[],[],[],[],[],[],0.424,1,124.248,124.749,,,,,,198,MAS,DIS,150,hotel,la,l,,,124.749,124.749,-0.07625,-0.3825,0,0,0,,0,16,16,197,1,,,,
,,,,,,3197a726c117721867d8f4dc,66a626ef09d4e21e1a8894ec,6735ef7b278c1de90a3baea9,2024-11-14_13h39.47.006,Tarea de género gramatical,2024.2.2,Win32,59.95203837,,,,,,,,,,,,,,,,,,,,,,124.75,125.965,a,1,0.543,,[],[],[],[],[],[],[],0.543,1,125.965,126.466,,,,,,28,MAS,AGR,150,club,el,l,,,126.466,126.466,-0.07625,-0.3825,0,0,0,,0,17,17,27,1,,,,
,,,,,,3197a726c117721867d8f4dc,66a626ef09d4e21e1a8894ec,6735ef7b278c1de90a3baea9,2024-11-14_13h39.47.006,Tarea de género gramatical,2024.2.2,Win32,59.95203837,,,,,,,,,,,,,,,,,,,,,,126.467,127.582,a,1,0.44,,[],[],[],[],[],[],[],0.44,1,127.582,128.081,,,,,,323,MAS,CON,150,marido,,l,,,128.082,128.082,-0.07625,-0.3825,0,0,0,,0,18,18,322,1,,,,
,,,,,,3197a726c117721867d8f4dc,66a626ef09d4e21e1a8894ec,6735ef7b278c1de90a3baea9,2024-11-14_13h39.47.006,Tarea de género gramatical,2024.2.2,Win32,59.95203837,,,,,,,,,,,,,,,,,,,,,,128.083,129.248,a,1,0.507,,[],[],[],[],[],[],[],0.507,1,129.249,129.749,,,,,,449,MAS,CON,150,payaso,,l,,,129.749,129.749,-0.07625,-0.3825,0,0,0,,0,19,19,448,1,,,,
,,,,,,3197a726c117721867d8f4dc,66a626ef09d4e21e1a8894ec,6735ef7b278c1de90a3baea9,2024-11-14_13h39.47.006,Tarea de género gramatical,2024.2.2,Win32,59.95203837,,,,,,,,,,,,,,,,,,,,,,129.75,130.882,a,1,0.455,,[],[],[],[],[],[],[],0.455,1,130.883,131.382,,,,,,233,MAS,CON,150,golpe,,l,,,131.383,131.384,-0.07625,-0.3825,0,0,0,,0,20,20,232,1,,,,
,,,,,,3197a726c117721867d8f4dc,66a626ef09d4e21e1a8894ec,6735ef7b278c1de90a3baea9,2024-11-14_13h39.47.006,Tarea de género gramatical,2024.2.2,Win32,59.95203837,,,,,,,,,,,,,,,,,,,,,,131.384,132.532,a,0,0.467,,[],[],[],[],[],[],[],0.467,0,132.532,133.032,,,,,,151,FEM,AGR,150,noche,la,a,,,133.032,133.032,-0.07625,-0.3825,0,0,0,,0,21,21,150,1,,,,
,,,,,,3197a726c117721867d8f4dc,66a626ef09d4e21e1a8894ec,6735ef7b278c1de90a3baea9,2024-11-14_13h39.47.006,Tarea de género gramatical,2024.2.2,Win32,59.95203837,,,,,,,,,,,,,,,,,,,,,,133.033,134.182,l,1,0.47,,[],[],[],[],[],[],[],0.47,1,134.183,134.682,,,,,,243,FEM,DIS,150,salsa,el,a,,,134.682,134.682,-0.07625,-0.3825,0,0,0,,0,22,22,242,1,,,,
,,,,,,3197a726c117721867d8f4dc,66a626ef09d4e21e1a8894ec,6735ef7b278c1de90a3baea9,2024-11-14_13h39.47.006,Tarea de género gramatical,2024.2.2,Win32,59.95203837,,,,,,,,,,,,,,,,,,,,,,134.684,136.298,l,1,0.94,,[],[],[],[],[],[],[],0.94,1,136.298,136.799,,,,,,386,FEM,CON,150,sombra,,a,,,136.799,136.799,-0.07625,-0.3825,0,0,0,,0,23,23,385,1,,,,
,,,,,,3197a726c117721867d8f4dc,66a626ef09d4e21e1a8894ec,6735ef7b278c1de90a3baea9,2024-11-14_13h39.47.006,Tarea de género gramatical,2024.2.2,Win32,59.95203837,,,,,,,,,,,,,,,,,,,,,,136.8,137.998,a,1,0.535,,[],[],[],[],[],[],[],0.535,1,138,138.499,,,,,,318,MAS,DIS,150,pueblo,la,l,,,138.5,138.501,-0.07625,-0.3825,0,0,0,,0,24,24,317,1,,,,
,,,,,,3197a726c117721867d8f4dc,66a626ef09d4e21e1a8894ec,6735ef7b278c1de90a3baea9,2024-11-14_13h39.47.006,Tarea de género gramatical,2024.2.2,Win32,59.95203837,,,,,,,,,,,,,,,,,,,,,,138.503,139.849,l,1,0.677,,[],[],[],[],[],[],[],0.677,1,139.849,140.349,,,,,,410,FEM,CON,150,piedad,,a,,,140.349,140.349,-0.07625,-0.3825,0,0,0,,0,25,25,409,1,,,,
,,,,,,3197a726c117721867d8f4dc,66a626ef09d4e21e1a8894ec,6735ef7b278c1de90a3baea9,2024-11-14_13h39.47.006,Tarea de género gramatical,2024.2.2,Win32,59.95203837,,,,,,,,,,,,,,,,,,,,,,140.351,141.565,l,1,0.534,,[],[],[],[],[],[],[],0.534,1,141.565,142.065,,,,,,27,FEM,DIS,150,mesa,el,a,,,142.065,142.065,-0.07625,-0.3825,0,0,0,,0,26,26,26,1,,,,
,,,,,,3197a726c117721867d8f4dc,66a626ef09d4e21e1a8894ec,6735ef7b278c1de90a3baea9,2024-11-14_13h39.47.006,Tarea de género gramatical,2024.2.2,Win32,59.95203837,,,,,,,,,,,,,,,,,,,,,,142.067,143.098,l,1,0.351,,[],[],[],[],[],[],[],0.351,1,143.098,143.598,,,,,,62,FEM,CON,150,sopa,,a,,,143.598,143.599,-0.07625,-0.3825,0,0,0,,0,27,27,61,1,,,,
,,,,,,3197a726c117721867d8f4dc,66a626ef09d4e21e1a8894ec,6735ef7b278c1de90a3baea9,2024-11-14_13h39.47.006,Tarea de género gramatical,2024.2.2,Win32,59.95203837,,,,,,,,,,,,,,,,,,,,,,143.599,144.832,a,0,0.551,,[],[],[],[],[],[],[],0.551,0,144.833,145.332,,,,,,267,FEM,DIS,150,barba,el,a,,,145.332,145.332,-0.07625,-0.3825,0,0,0,,0,28,28,266,1,,,,
,,,,,,3197a726c117721867d8f4dc,66a626ef09d4e21e1a8894ec,6735ef7b278c1de90a3baea9,2024-11-14_13h39.47.006,Tarea de género gramatical,2024.2.2,Win32,59.95203837,,,,,,,,,,,,,,,,,,,,,,145.333,146.882,a,1,0.892,,[],[],[],[],[],[],[],0.892,1,146.883,147.381,,,,,,47,MAS,CON,150,olor,,l,,,147.383,147.383,-0.07625,-0.3825,0,0,0,,0,29,29,46,1,,,,
,,,,,,3197a726c117721867d8f4dc,66a626ef09d4e21e1a8894ec,6735ef7b278c1de90a3baea9,2024-11-14_13h39.47.006,Tarea de género gramatical,2024.2.2,Win32,59.95203837,,,,,,,,,,,,,,,,,,,,,,147.384,148.515,a,1,0.455,,[],[],[],[],[],[],[],0.455,1,148.515,149.015,,,,,,232,MAS,AGR,150,calor,el,l,,,149.015,149.016,-0.07625,-0.3825,0,0,0,,0,30,30,231,1,,,,
,,,,,,3197a726c117721867d8f4dc,66a626ef09d4e21e1a8894ec,6735ef7b278c1de90a3baea9,2024-11-14_13h39.47.006,Tarea de género gramatical,2024.2.2,Win32,59.95203837,,,,,,,,,,,,,,,,,,,,,,149.017,150.065,a,1,0.39,,[],[],[],[],[],[],[],0.39,1,150.066,150.565,,,,,,10,MAS,AGR,150,niño,el,l,,,150.565,150.565,-0.07625,-0.3825,0,0,0,,0,31,31,9,1,,,,
,,,,,,3197a726c117721867d8f4dc,66a626ef09d4e21e1a8894ec,6735ef7b278c1de90a3baea9,2024-11-14_13h39.47.006,Tarea de género gramatical,2024.2.2,Win32,59.95203837,,,,,,,,,,,,,,,,,,,,,,150.567,152.048,l,1,0.811,,[],[],[],[],[],[],[],0.811,1,152.048,152.548,,,,,,362,FEM,CON,150,fuente,,a,,,152.548,152.548,-0.07625,-0.3825,0,0,0,,0,32,32,361,1,,,,
,,,,,,3197a726c117721867d8f4dc,66a626ef09d4e21e1a8894ec,6735ef7b278c1de90a3baea9,2024-11-14_13h39.47.006,Tarea de género gramatical,2024.2.2,Win32,59.95203837,,,,,,,,,,,,,,,,,,,,,,152.549,153.732,l,1,0.501,,[],[],[],[],[],[],[],0.501,1,153.732,154.232,,,,,,375,FEM,DIS,150,cadena,el,a,,,154.233,154.234,-0.07625,-0.3825,0,0,0,,0,33,33,374,1,,,,
,,,,,,3197a726c117721867d8f4dc,66a626ef09d4e21e1a8894ec,6735ef7b278c1de90a3baea9,2024-11-14_13h39.47.006,Tarea de género gramatical,2024.2.2,Win32,59.95203837,,,,,,,,,,,,,,,,,,,,,,154.235,155.281,l,1,0.369,,[],[],[],[],[],[],[],0.369,1,155.282,155.782,,,,,,446,FEM,CON,150,bañera,,a,,,155.782,155.782,-0.07625,-0.3825,0,0,0,,0,34,34,445,1,,,,
,,,,,,3197a726c117721867d8f4dc,66a626ef09d4e21e1a8894ec,6735ef7b278c1de90a3baea9,2024-11-14_13h39.47.006,Tarea de género gramatical,2024.2.2,Win32,59.95203837,,,,,,,,,,,,,,,,,,,,,,155.784,156.898,l,1,0.439,,[],[],[],[],[],[],[],0.439,1,156.898,157.399,,,,,,343,FEM,AGR,150,trampa,la,a,,,157.399,157.399,-0.07625,-0.3825,0,0,0,,0,35,35,342,1,,,,
,,,,,,3197a726c117721867d8f4dc,66a626ef09d4e21e1a8894ec,6735ef7b278c1de90a3baea9,2024-11-14_13h39.47.006,Tarea de género gramatical,2024.2.2,Win32,59.95203837,,,,,,,,,,,,,,,,,,,,,,157.399,158.531,a,1,0.453,,[],[],[],[],[],[],[],0.453,1,158.531,159.031,,,,,,352,MAS,AGR,150,estilo,el,l,,,159.031,159.031,-0.07625,-0.3825,0,0,0,,0,36,36,351,1,,,,
,,,,,,3197a726c117721867d8f4dc,66a626ef09d4e21e1a8894ec,6735ef7b278c1de90a3baea9,2024-11-14_13h39.47.006,Tarea de género gramatical,2024.2.2,Win32,59.95203837,,,,,,,,,,,,,,,,,,,,,,159.033,160.581,l,1,0.878,,[],[],[],[],[],[],[],0.878,1,160.581,161.081,,,,,,416,FEM,CON,150,colina,,a,,,161.081,161.081,-0.07625,-0.3825,0,0,0,,0,37,37,415,1,,,,
,,,,,,3197a726c117721867d8f4dc,66a626ef09d4e21e1a8894ec,6735ef7b278c1de90a3baea9,2024-11-14_13h39.47.006,Tarea de género gramatical,2024.2.2,Win32,59.95203837,,,,,,,,,,,,,,,,,,,,,,161.083,162.348,l,1,0.584,,[],[],[],[],[],[],[],0.584,1,162.349,162.848,,,,,,25,FEM,AGR,150,nave,la,a,,,162.85,162.851,-0.07625,-0.3825,0,0,0,,0,38,38,24,1,,,,
,,,,,,3197a726c117721867d8f4dc,66a626ef09d4e21e1a8894ec,6735ef7b278c1de90a3baea9,2024-11-14_13h39.47.006,Tarea de género gramatical,2024.2.2,Win32,59.95203837,,,,,,,,,,,,,,,,,,,,,,162.852,164.081,a,1,0.555,,[],[],[],[],[],[],[],0.555,1,164.081,164.582,,,,,,174,MAS,DIS,150,perro,la,l,,,164.582,164.582,-0.07625,-0.3825,0,0,0,,0,39,39,173,1,,,,
,,,,,,3197a726c117721867d8f4dc,66a626ef09d4e21e1a8894ec,6735ef7b278c1de90a3baea9,2024-11-14_13h39.47.006,Tarea de género gramatical,2024.2.2,Win32,59.95203837,,,,,,,,,,,,,,,,,,,,,,164.583,165.665,a,1,0.402,,[],[],[],[],[],[],[],0.402,1,165.665,166.165,,,,,,154,MAS,AGR,150,padre,el,l,,,166.165,166.165,-0.07625,-0.3825,0,0,0,,0,40,40,153,1,,,,
,,,,,,3197a726c117721867d8f4dc,66a626ef09d4e21e1a8894ec,6735ef7b278c1de90a3baea9,2024-11-14_13h39.47.006,Tarea de género gramatical,2024.2.2,Win32,59.95203837,,,,,,,,,,,,,,,,,,,,,,166.167,167.298,a,1,0.455,,[],[],[],[],[],[],[],0.455,1,167.299,167.798,,,,,,340,MAS,AGR,150,pasado,el,l,,,167.798,167.798,-0.07625,-0.3825,0,0,0,,0,41,41,339,1,,,,
,,,,,,3197a726c117721867d8f4dc,66a626ef09d4e21e1a8894ec,6735ef7b278c1de90a3baea9,2024-11-14_13h39.47.006,Tarea de género gramatical,2024.2.2,Win32,59.95203837,,,,,,,,,,,,,,,,,,,,,,167.8,168.798,l,1,0.321,,[],[],[],[],[],[],[],0.321,1,168.799,169.298,,,,,,231,FEM,DIS,150,bruja,el,a,,,169.299,169.3,-0.07625,-0.3825,0,0,0,,0,42,42,230,1,,,,
,,,,,,3197a726c117721867d8f4dc,66a626ef09d4e21e1a8894ec,6735ef7b278c1de90a3baea9,2024-11-14_13h39.47.006,Tarea de género gramatical,2024.2.2,Win32,59.95203837,,,,,,,,,,,,,,,,,,,,,,169.3,170.431,a,1,0.455,,[],[],[],[],[],[],[],0.455,1,170.431,170.932,,,,,,444,MAS,DIS,150,límite,la,l,,,170.933,170.933,-0.07625,-0.3825,0,0,0,,0,43,43,443,1,,,,
,,,,,,3197a726c117721867d8f4dc,66a626ef09d4e21e1a8894ec,6735ef7b278c1de90a3baea9,2024-11-14_13h39.47.006,Tarea de género gramatical,2024.2.2,Win32,59.95203837,,,,,,,,,,,,,,,,,,,,,,170.936,172.015,l,1,0.404,,[],[],[],[],[],[],[],0.404,1,172.015,172.515,,,,,,315,FEM,DIS,150,manera,el,a,,,172.515,172.515,-0.07625,-0.3825,0,0,0,,0,44,44,314,1,,,,
,,,,,,3197a726c117721867d8f4dc,66a626ef09d4e21e1a8894ec,6735ef7b278c1de90a3baea9,2024-11-14_13h39.47.006,Tarea de género gramatical,2024.2.2,Win32,59.95203837,,,,,,,,,,,,,,,,,,,,,,172.516,173.665,l,1,0.484,,[],[],[],[],[],[],[],0.484,1,173.665,174.165,,,,,,183,FEM,DIS,150,llave,el,a,,,174.165,174.165,-0.07625,-0.3825,0,0,0,,0,45,45,182,1,,,,
,,,,,,3197a726c117721867d8f4dc,66a626ef09d4e21e1a8894ec,6735ef7b278c1de90a3baea9,2024-11-14_13h39.47.006,Tarea de género gramatical,2024.2.2,Win32,59.95203837,,,,,,,,,,,,,,,,,,,,,,174.166,175.298,l,1,0.46,,[],[],[],[],[],[],[],0.46,1,175.298,175.798,,,,,,73,FEM,AGR,150,roca,la,a,,,175.798,175.798,-0.07625,-0.3825,0,0,0,,0,46,46,72,1,,,,
,,,,,,3197a726c117721867d8f4dc,66a626ef09d4e21e1a8894ec,6735ef7b278c1de90a3baea9,2024-11-14_13h39.47.006,Tarea de género gramatical,2024.2.2,Win32,59.95203837,,,,,,,,,,,,,,,,,,,,,,175.8,176.965,l,1,0.484,,[],[],[],[],[],[],[],0.484,1,176.965,177.465,,,,,,38,FEM,CON,150,obra,,a,,,177.466,177.467,-0.07625,-0.3825,0,0,0,,0,47,47,37,1,,,,
,,,,,,3197a726c117721867d8f4dc,66a626ef09d4e21e1a8894ec,6735ef7b278c1de90a3baea9,2024-11-14_13h39.47.006,Tarea de género gramatical,2024.2.2,Win32,59.95203837,,,,,,,,,,,,,,,,,,,,,,177.467,178.748,a,1,0.6,,[],[],[],[],[],[],[],0.6,1,178.748,179.248,,,,,,317,MAS,CON,150,número,,l,,,179.248,179.248,-0.07625,-0.3825,0,0,0,,0,48,48,316,1,,,,
,,,,,,3197a726c117721867d8f4dc,66a626ef09d4e21e1a8894ec,6735ef7b278c1de90a3baea9,2024-11-14_13h39.47.006,Tarea de género gramatical,2024.2.2,Win32,59.95203837,,,,,,,,,,,,,,,,,,,,,,179.25,180.765,a,1,0.846,,[],[],[],[],[],[],[],0.846,1,180.766,181.265,,,,,,90,MAS,DIS,150,león,la,l,,,181.265,181.265,-0.07625,-0.3825,0,0,0,,0,49,49,89,1,,,,
,,,,,,3197a726c117721867d8f4dc,66a626ef09d4e21e1a8894ec,6735ef7b278c1de90a3baea9,2024-11-14_13h39.47.006,Tarea de género gramatical,2024.2.2,Win32,59.95203837,,,,,,,,,,,,,,,,,,,,,,181.266,182.481,l,1,0.551,,[],[],[],[],[],[],[],0.551,1,182.482,182.981,,,,,,273,FEM,DIS,150,tarta,el,a,,,182.981,182.981,-0.07625,-0.3825,0,0,0,,0,50,50,272,1,,,,
,,,,,,3197a726c117721867d8f4dc,66a626ef09d4e21e1a8894ec,6735ef7b278c1de90a3baea9,2024-11-14_13h39.47.006,Tarea de género gramatical,2024.2.2,Win32,59.95203837,,,,,,,,,,,,,,,,,,,,,,182.983,184.247,a,1,0.606,,[],[],[],[],[],[],[],0.606,1,184.248,184.748,,,,,,149,MAS,CON,150,nudo,,l,,,184.749,184.75,-0.07625,-0.3825,0,0,0,,0,51,51,148,1,,,,
,,,,,,3197a726c117721867d8f4dc,66a626ef09d4e21e1a8894ec,6735ef7b278c1de90a3baea9,2024-11-14_13h39.47.006,Tarea de género gramatical,2024.2.2,Win32,59.95203837,,,,,,,,,,,,,,,,,,,,,,184.752,185.915,a,1,0.484,,[],[],[],[],[],[],[],0.484,1,185.915,186.414,,,,,,161,MAS,CON,150,chico,,l,,,186.415,186.415,-0.07625,-0.3825,0,0,0,,0,52,52,160,1,,,,
,,,,,,3197a726c117721867d8f4dc,66a626ef09d4e21e1a8894ec,6735ef7b278c1de90a3baea9,2024-11-14_13h39.47.006,Tarea de género gramatical,2024.2.2,Win32,59.95203837,,,,,,,,,,,,,,,,,,,,,,186.416,187.648,l,1,0.552,,[],[],[],[],[],[],[],0.552,1,187.649,188.148,,,,,,111,FEM,DIS,150,goma,el,a,,,188.149,188.149,-0.07625,-0.3825,0,0,0,,0,53,53,110,1,,,,
,,,,,,3197a726c117721867d8f4dc,66a626ef09d4e21e1a8894ec,6735ef7b278c1de90a3baea9,2024-11-14_13h39.47.006,Tarea de género gramatical,2024.2.2,Win32,59.95203837,,,,,,,,,,,,,,,,,,,,,,188.15,189.331,l,1,0.507,,[],[],[],[],[],[],[],0.507,1,189.332,189.831,,,,,,373,FEM,AGR,150,lluvia,la,a,,,189.831,189.831,-0.07625,-0.3825,0,0,0,,0,54,54,372,1,,,,
,,,,,,3197a726c117721867d8f4dc,66a626ef09d4e21e1a8894ec,6735ef7b278c1de90a3baea9,2024-11-14_13h39.47.006,Tarea de género gramatical,2024.2.2,Win32,59.95203837,,,,,,,,,,,,,,,,,,,,,,189.832,190.814,l,1,0.312,,[],[],[],[],[],[],[],0.312,1,190.814,191.314,,,,,,122,FEM,CON,150,loca,,a,,,191.314,191.314,-0.07625,-0.3825,0,0,0,,0,55,55,121,1,,,,
,,,,,,3197a726c117721867d8f4dc,66a626ef09d4e21e1a8894ec,6735ef7b278c1de90a3baea9,2024-11-14_13h39.47.006,Tarea de género gramatical,2024.2.2,Win32,59.95203837,,,,,,,,,,,,,,,,,,,,,,191.316,192.548,l,1,0.562,,[],[],[],[],[],[],[],0.562,1,192.548,193.048,,,,,,99,FEM,DIS,150,fase,el,a,,,193.049,193.05,-0.07625,-0.3825,0,0,0,,0,56,56,98,1,,,,
,,,,,,3197a726c117721867d8f4dc,66a626ef09d4e21e1a8894ec,6735ef7b278c1de90a3baea9,2024-11-14_13h39.47.006,Tarea de género gramatical,2024.2.2,Win32,59.95203837,,,,,,,,,,,,,,,,,,,,,,193.051,194.098,l,1,0.369,,[],[],[],[],[],[],[],0.369,1,194.098,194.597,,,,,,266,FEM,CON,150,jaula,,a,,,194.597,194.597,-0.07625,-0.3825,0,0,0,,0,57,57,265,1,,,,
,,,,,,3197a726c117721867d8f4dc,66a626ef09d4e21e1a8894ec,6735ef7b278c1de90a3baea9,2024-11-14_13h39.47.006,Tarea de género gramatical,2024.2.2,Win32,59.95203837,,,,,,,,,,,,,,,,,,,,,,194.598,195.698,a,1,0.422,,[],[],[],[],[],[],[],0.422,1,195.699,196.198,,,,,,436,MAS,AGR,150,objeto,el,l,,,196.198,196.198,-0.07625,-0.3825,0,0,0,,0,58,58,435,1,,,,
,,,,,,3197a726c117721867d8f4dc,66a626ef09d4e21e1a8894ec,6735ef7b278c1de90a3baea9,2024-11-14_13h39.47.006,Tarea de género gramatical,2024.2.2,Win32,59.95203837,,,,,,,,,,,,,,,,,,,,,,196.199,197.314,a,1,0.437,,[],[],[],[],[],[],[],0.437,1,197.315,197.815,,,,,,131,MAS,CON,150,kilo,,l,,,197.815,197.815,-0.07625,-0.3825,0,0,0,,0,59,59,130,1,,,,
,,,,,,3197a726c117721867d8f4dc,66a626ef09d4e21e1a8894ec,6735ef7b278c1de90a3baea9,2024-11-14_13h39.47.006,Tarea de género gramatical,2024.2.2,Win32,59.95203837,,,,,,,,,,,,,,,,,,,,,,197.816,198.848,l,1,0.366,,[],[],[],[],[],[],[],0.366,1,198.848,199.348,,,,,,248,FEM,CON,150,letra,,a,,,199.348,199.349,-0.07625,-0.3825,0,0,0,,0,60,60,247,1,,,,
,,,,,,3197a726c117721867d8f4dc,66a626ef09d4e21e1a8894ec,6735ef7b278c1de90a3baea9,2024-11-14_13h39.47.006,Tarea de género gramatical,2024.2.2,Win32,59.95203837,,,,,,,,,,,,,,,,,,,,,,199.35,200.464,a,1,0.434,,[],[],[],[],[],[],[],0.434,1,200.465,200.964,,,,,,16,MAS,AGR,150,baño,el,l,,,200.964,200.965,-0.07625,-0.3825,0,0,0,,0,61,61,15,1,,,,
,,,,,,3197a726c117721867d8f4dc,66a626ef09d4e21e1a8894ec,6735ef7b278c1de90a3baea9,2024-11-14_13h39.47.006,Tarea de género gramatical,2024.2.2,Win32,59.95203837,,,,,,,,,,,,,,,,,,,,,,200.966,202.014,l,1,0.374,,[],[],[],[],[],[],[],0.374,1,202.014,202.514,,,,,,43,FEM,AGR,150,nena,la,a,,,202.514,202.514,-0.07625,-0.3825,0,0,0,,0,62,62,42,1,,,,
,,,,,,3197a726c117721867d8f4dc,66a626ef09d4e21e1a8894ec,6735ef7b278c1de90a3baea9,2024-11-14_13h39.47.006,Tarea de género gramatical,2024.2.2,Win32,59.95203837,,,,,,,,,,,,,,,,,,,,,,202.516,203.564,a,1,0.368,,[],[],[],[],[],[],[],0.368,1,203.564,204.066,,,,,,166,MAS,AGR,150,coche,el,l,,,204.066,204.067,-0.07625,-0.3825,0,0,0,,0,63,63,165,1,,,,
,,,,,,3197a726c117721867d8f4dc,66a626ef09d4e21e1a8894ec,6735ef7b278c1de90a3baea9,2024-11-14_13h39.47.006,Tarea de género gramatical,2024.2.2,Win32,59.95203837,,,,,,,,,,,,,,,,,,,,,,204.069,205.114,a,1,0.371,,[],[],[],[],[],[],[],0.371,1,205.116,205.615,,,,,,256,MAS,AGR,150,techo,el,l,,,205.615,205.615,-0.07625,-0.3825,0,0,0,,0,64,64,255,1,,,,
,,,,,,3197a726c117721867d8f4dc,66a626ef09d4e21e1a8894ec,6735ef7b278c1de90a3baea9,2024-11-14_13h39.47.006,Tarea de género gramatical,2024.2.2,Win32,59.95203837,,,,,,,,,,,,,,,,,,,,,,205.616,206.564,l,0,0.276,,[],[],[],[],[],[],[],0.276,0,206.566,207.065,,,,,,12,MAS,DIS,150,plan,la,l,,,207.067,207.068,-0.07625,-0.3825,0,0,0,,0,65,65,11,1,,,,
,,,,,,3197a726c117721867d8f4dc,66a626ef09d4e21e1a8894ec,6735ef7b278c1de90a3baea9,2024-11-14_13h39.47.006,Tarea de género gramatical,2024.2.2,Win32,59.95203837,,,,,,,,,,,,,,,,,,,,,,207.068,208.014,l,1,0.273,,[],[],[],[],[],[],[],0.273,1,208.015,208.514,,,,,,429,FEM,DIS,150,fianza,el,a,,,208.514,208.516,-0.07625,-0.3825,0,0,0,,0,66,66,428,1,,,,
,,,,,,3197a726c117721867d8f4dc,66a626ef09d4e21e1a8894ec,6735ef7b278c1de90a3baea9,2024-11-14_13h39.47.006,Tarea de género gramatical,2024.2.2,Win32,59.95203837,,,,,,,,,,,,,,,,,,,,,,208.517,209.482,l,1,0.295,,[],[],[],[],[],[],[],0.295,1,209.482,209.981,,,,,,290,FEM,CON,150,cabra,,a,,,209.981,209.981,-0.07625,-0.3825,0,0,0,,0,67,67,289,1,,,,
,,,,,,3197a726c117721867d8f4dc,66a626ef09d4e21e1a8894ec,6735ef7b278c1de90a3baea9,2024-11-14_13h39.47.006,Tarea de género gramatical,2024.2.2,Win32,59.95203837,,,,,,,,,,,,,,,,,,,,,,209.983,211.048,l,1,0.395,,[],[],[],[],[],[],[],0.395,1,211.048,211.548,,,,,,272,FEM,CON,150,oreja,,a,,,211.548,211.549,-0.07625,-0.3825,0,0,0,,0,68,68,271,1,,,,
,,,,,,3197a726c117721867d8f4dc,66a626ef09d4e21e1a8894ec,6735ef7b278c1de90a3baea9,2024-11-14_13h39.47.006,Tarea de género gramatical,2024.2.2,Win32,59.95203837,,,,,,,,,,,,,,,,,,,,,,211.55,212.581,a,0,0.351,,[],[],[],[],[],[],[],0.351,0,212.582,213.081,,,,,,49,FEM,AGR,150,piel,la,a,,,213.083,213.084,-0.07625,-0.3825,0,0,0,,0,69,69,48,1,,,,
,,,,,,3197a726c117721867d8f4dc,66a626ef09d4e21e1a8894ec,6735ef7b278c1de90a3baea9,2024-11-14_13h39.47.006,Tarea de género gramatical,2024.2.2,Win32,59.95203837,,,,,,,,,,,,,,,,,,,,,,213.084,214.231,a,0,0.478,,[],[],[],[],[],[],[],0.478,0,214.231,214.731,,,,,,123,FEM,DIS,150,tela,el,a,,,214.731,214.731,-0.07625,-0.3825,0,0,0,,0,70,70,122,1,,,,
,,,,,,3197a726c117721867d8f4dc,66a626ef09d4e21e1a8894ec,6735ef7b278c1de90a3baea9,2024-11-14_13h39.47.006,Tarea de género gramatical,2024.2.2,Win32,59.95203837,,,,,,,,,,,,,,,,,,,,,,214.732,216.264,l,1,0.853,,[],[],[],[],[],[],[],0.853,1,216.265,216.764,,,,,,57,FEM,DIS,150,moda,el,a,,,216.764,216.764,-0.07625,-0.3825,0,0,0,,0,71,71,56,1,,,,
,,,,,,3197a726c117721867d8f4dc,66a626ef09d4e21e1a8894ec,6735ef7b278c1de90a3baea9,2024-11-14_13h39.47.006,Tarea de género gramatical,2024.2.2,Win32,59.95203837,,,,,,,,,,,,,,,,,,,,,,216.766,217.864,a,1,0.429,,[],[],[],[],[],[],[],0.429,1,217.864,218.364,,,,,,108,MAS,DIS,150,hilo,la,l,,,218.364,218.365,-0.07625,-0.3825,0,0,0,,0,72,72,107,1,,,,
,,,,,,3197a726c117721867d8f4dc,66a626ef09d4e21e1a8894ec,6735ef7b278c1de90a3baea9,2024-11-14_13h39.47.006,Tarea de género gramatical,2024.2.2,Win32,59.95203837,,,,,,,,,,,,,,,,,,,,,,218.366,219.481,l,1,0.436,,[],[],[],[],[],[],[],0.436,1,219.481,219.981,,,,,,235,FEM,AGR,150,torre,la,a,,,219.981,219.981,-0.07625,-0.3825,0,0,0,,0,73,73,234,1,,,,
,,,,,,3197a726c117721867d8f4dc,66a626ef09d4e21e1a8894ec,6735ef7b278c1de90a3baea9,2024-11-14_13h39.47.006,Tarea de género gramatical,2024.2.2,Win32,59.95203837,,,,,,,,,,,,,,,,,,,,,,219.982,220.898,l,1,0.247,,[],[],[],[],[],[],[],0.247,1,220.898,221.398,,,,,,134,FEM,CON,150,rama,,a,,,221.399,221.4,-0.07625,-0.3825,0,0,0,,0,74,74,133,1,,,,
,,,,,,3197a726c117721867d8f4dc,66a626ef09d4e21e1a8894ec,6735ef7b278c1de90a3baea9,2024-11-14_13h39.47.006,Tarea de género gramatical,2024.2.2,Win32,59.95203837,,,,,,,,,,,,,,,,,,,,,,221.401,222.431,l,0,0.351,,[],[],[],[],[],[],[],0.351,0,222.431,222.93,,,,,,414,MAS,DIS,150,sótano,la,l,,,222.93,222.93,-0.07625,-0.3825,0,0,0,,0,75,75,413,1,,,,
,,,,,,3197a726c117721867d8f4dc,66a626ef09d4e21e1a8894ec,6735ef7b278c1de90a3baea9,2024-11-14_13h39.47.006,Tarea de género gramatical,2024.2.2,Win32,59.95203837,,,,,,,,,,,,,,,,,,,,,,222.932,224.214,l,1,0.628,,[],[],[],[],[],[],[],0.628,1,224.214,224.714,,,,,,229,FEM,AGR,150,celda,la,a,,,224.714,224.714,-0.07625,-0.3825,0,0,0,,0,76,76,228,1,,,,
,,,,,,3197a726c117721867d8f4dc,66a626ef09d4e21e1a8894ec,6735ef7b278c1de90a3baea9,2024-11-14_13h39.47.006,Tarea de género gramatical,2024.2.2,Win32,59.95203837,,,,,,,,,,,,,,,,,,,,,,224.716,226.48,l,1,1.091,,[],[],[],[],[],[],[],1.091,1,226.481,226.981,,,,,,254,FEM,CON,150,caída,,a,,,226.981,226.981,-0.07625,-0.3825,0,0,0,,0,77,77,253,1,,,,
,,,,,,3197a726c117721867d8f4dc,66a626ef09d4e21e1a8894ec,6735ef7b278c1de90a3baea9,2024-11-14_13h39.47.006,Tarea de género gramatical,2024.2.2,Win32,59.95203837,,,,,,,,,,,,,,,,,,,,,,226.983,228.931,a,1,1.268,,[],[],[],[],[],[],[],1.268,1,228.932,229.431,,,,,,65,MAS,CON,150,rayo,,l,,,229.433,229.434,-0.07625,-0.3825,0,0,0,,0,78,78,64,1,,,,
,,,,,,3197a726c117721867d8f4dc,66a626ef09d4e21e1a8894ec,6735ef7b278c1de90a3baea9,2024-11-14_13h39.47.006,Tarea de género gramatical,2024.2.2,Win32,59.95203837,,,,,,,,,,,,,,,,,,,,,,229.434,231.464,a,1,1.356,,[],[],[],[],[],[],[],1.356,1,231.464,231.964,,,,,,130,MAS,AGR,150,yate,el,l,,,231.964,231.965,-0.07625,-0.3825,0,0,0,,0,79,79,129,1,,,,
,,,,,,3197a726c117721867d8f4dc,66a626ef09d4e21e1a8894ec,6735ef7b278c1de90a3baea9,2024-11-14_13h39.47.006,Tarea de género gramatical,2024.2.2,Win32,59.95203837,,,,,,,,,,,,,,,,,,,,,,231.966,233.315,l,1,0.672,,[],[],[],[],[],[],[],0.672,1,233.315,233.814,,,,,,379,FEM,AGR,150,granja,la,a,,,233.814,233.814,-0.07625,-0.3825,0,0,0,,0,80,80,378,1,,,,
,,,,,,3197a726c117721867d8f4dc,66a626ef09d4e21e1a8894ec,6735ef7b278c1de90a3baea9,2024-11-14_13h39.47.006,Tarea de género gramatical,2024.2.2,Win32,59.95203837,,,,,,,,,,,,,,,,,,,,,,233.816,234.964,a,1,0.475,,[],[],[],[],[],[],[],0.475,1,234.964,235.464,,,,,,204,MAS,DIS,150,papel,la,l,,,235.464,235.464,-0.07625,-0.3825,0,0,0,,0,81,81,203,1,,,,
,,,,,,3197a726c117721867d8f4dc,66a626ef09d4e21e1a8894ec,6735ef7b278c1de90a3baea9,2024-11-14_13h39.47.006,Tarea de género gramatical,2024.2.2,Win32,59.95203837,,,,,,,,,,,,,,,,,,,,,,235.465,236.797,a,1,0.678,,[],[],[],[],[],[],[],0.678,1,236.798,237.298,,,,,,388,MAS,AGR,150,empleo,el,l,,,237.298,237.298,-0.07625,-0.3825,0,0,0,,0,82,82,387,1,,,,
,,,,,,3197a726c117721867d8f4dc,66a626ef09d4e21e1a8894ec,6735ef7b278c1de90a3baea9,2024-11-14_13h39.47.006,Tarea de género gramatical,2024.2.2,Win32,59.95203837,,,,,,,,,,,,,,,,,,,,,,237.302,238.448,a,1,0.473,,[],[],[],[],[],[],[],0.473,1,238.448,238.948,,,,,,406,MAS,AGR,150,premio,el,l,,,238.949,238.951,-0.07625,-0.3825,0,0,0,,0,83,83,405,1,,,,
,,,,,,3197a726c117721867d8f4dc,66a626ef09d4e21e1a8894ec,6735ef7b278c1de90a3baea9,2024-11-14_13h39.47.006,Tarea de género gramatical,2024.2.2,Win32,59.95203837,,,,,,,,,,,,,,,,,,,,,,238.952,240.282,a,1,0.654,,[],[],[],[],[],[],[],0.654,1,240.282,240.781,,,,,,120,MAS,DIS,150,puño,la,l,,,240.781,240.782,-0.07625,-0.3825,0,0,0,,0,84,84,119,1,,,,
,,,,,,3197a726c117721867d8f4dc,66a626ef09d4e21e1a8894ec,6735ef7b278c1de90a3baea9,2024-11-14_13h39.47.006,Tarea de género gramatical,2024.2.2,Win32,59.95203837,,,,,,,,,,,,,,,,,,,,,,240.784,242.064,l,1,0.602,,[],[],[],[],[],[],[],0.602,1,242.064,242.565,,,,,,20,FEM,CON,150,ropa,,a,,,242.565,242.566,-0.07625,-0.3825,0,0,0,,0,85,85,19,1,,,,
,,,,,,3197a726c117721867d8f4dc,66a626ef09d4e21e1a8894ec,6735ef7b278c1de90a3baea9,2024-11-14_13h39.47.006,Tarea de género gramatical,2024.2.2,Win32,59.95203837,,,,,,,,,,,,,,,,,,,,,,242.567,243.931,a,1,0.694,,[],[],[],[],[],[],[],0.694,1,243.931,244.431,,,,,,252,MAS,DIS,150,viejo,la,l,,,244.431,244.431,-0.07625,-0.3825,0,0,0,,0,86,86,251,1,,,,
,,,,,,3197a726c117721867d8f4dc,66a626ef09d4e21e1a8894ec,6735ef7b278c1de90a3baea9,2024-11-14_13h39.47.006,Tarea de género gramatical,2024.2.2,Win32,59.95203837,,,,,,,,,,,,,,,,,,,,,,244.432,245.498,l,1,0.388,,[],[],[],[],[],[],[],0.388,1,245.498,245.998,,,,,,295,FEM,AGR,150,grasa,la,a,,,245.999,245.999,-0.07625,-0.3825,0,0,0,,0,87,87,294,1,,,,
,,,,,,3197a726c117721867d8f4dc,66a626ef09d4e21e1a8894ec,6735ef7b278c1de90a3baea9,2024-11-14_13h39.47.006,Tarea de género gramatical,2024.2.2,Win32,59.95203837,,,,,,,,,,,,,,,,,,,,,,246,247.181,a,1,0.509,,[],[],[],[],[],[],[],0.509,1,247.181,247.681,,,,,,114,MAS,DIS,150,menú,la,l,,,247.681,247.681,-0.07625,-0.3825,0,0,0,,0,88,88,113,1,,,,
,,,,,,3197a726c117721867d8f4dc,66a626ef09d4e21e1a8894ec,6735ef7b278c1de90a3baea9,2024-11-14_13h39.47.006,Tarea de género gramatical,2024.2.2,Win32,59.95203837,,,,,,,,,,,,,,,,,,,,,,247.682,248.814,l,1,0.45,,[],[],[],[],[],[],[],0.45,1,248.814,249.314,,,,,,56,FEM,CON,150,bola,,a,,,249.314,249.314,-0.07625,-0.3825,0,0,0,,0,89,89,55,1,,,,
,,,,,,3197a726c117721867d8f4dc,66a626ef09d4e21e1a8894ec,6735ef7b278c1de90a3baea9,2024-11-14_13h39.47.006,Tarea de género gramatical,2024.2.2,Win32,59.95203837,,,,,,,,,,,,,,,,,,,,,,249.316,250.614,a,0,0.618,,[],[],[],[],[],[],[],0.618,0,250.616,251.114,,,,,,9,FEM,DIS,150,mamá,el,a,,,251.114,251.115,-0.07625,-0.3825,0,0,0,,0,90,90,8,1,,,,
,,,,,,3197a726c117721867d8f4dc,66a626ef09d4e21e1a8894ec,6735ef7b278c1de90a3baea9,2024-11-14_13h39.47.006,Tarea de género gramatical,2024.2.2,Win32,59.95203837,,,,,,,,,,,,,,,,,,,,,,251.115,252.997,a,0,1.201,,[],[],[],[],[],[],[],1.201,0,252.998,253.497,,,,,,363,FEM,DIS,150,unidad,el,a,,,253.497,253.497,-0.07625,-0.3825,0,0,0,,0,91,91,362,1,,,,
,,,,,,3197a726c117721867d8f4dc,66a626ef09d4e21e1a8894ec,6735ef7b278c1de90a3baea9,2024-11-14_13h39.47.006,Tarea de género gramatical,2024.2.2,Win32,59.95203837,,,,,,,,,,,,,,,,,,,,,,253.499,254.58,l,1,0.404,,[],[],[],[],[],[],[],0.404,1,254.582,255.081,,,,,,224,FEM,CON,150,arena,,a,,,255.082,255.083,-0.07625,-0.3825,0,0,0,,0,92,92,223,1,,,,
,,,,,,3197a726c117721867d8f4dc,66a626ef09d4e21e1a8894ec,6735ef7b278c1de90a3baea9,2024-11-14_13h39.47.006,Tarea de género gramatical,2024.2.2,Win32,59.95203837,,,,,,,,,,,,,,,,,,,,,,255.084,256.114,l,1,0.362,,[],[],[],[],[],[],[],0.362,1,256.114,256.614,,,,,,404,FEM,CON,150,gloria,,a,,,256.614,256.614,-0.07625,-0.3825,0,0,0,,0,93,93,403,1,,,,
,,,,,,3197a726c117721867d8f4dc,66a626ef09d4e21e1a8894ec,6735ef7b278c1de90a3baea9,2024-11-14_13h39.47.006,Tarea de género gramatical,2024.2.2,Win32,59.95203837,,,,,,,,,,,,,,,,,,,,,,256.615,257.663,l,1,0.388,,[],[],[],[],[],[],[],0.388,1,257.664,258.164,,,,,,284,FEM,CON,150,fruta,,a,,,258.164,258.164,-0.07625,-0.3825,0,0,0,,0,94,94,283,1,,,,
,,,,,,3197a726c117721867d8f4dc,66a626ef09d4e21e1a8894ec,6735ef7b278c1de90a3baea9,2024-11-14_13h39.47.006,Tarea de género gramatical,2024.2.2,Win32,59.95203837,,,,,,,,,,,,,,,,,,,,,,258.166,259.231,l,1,0.394,,[],[],[],[],[],[],[],0.394,1,259.231,259.731,,,,,,313,FEM,AGR,150,ciudad,la,a,,,259.731,259.731,-0.07625,-0.3825,0,0,0,,0,95,95,312,1,,,,
,,,,,,3197a726c117721867d8f4dc,66a626ef09d4e21e1a8894ec,6735ef7b278c1de90a3baea9,2024-11-14_13h39.47.006,Tarea de género gramatical,2024.2.2,Win32,59.95203837,,,,,,,,,,,,,,,,,,,,,,259.732,261.164,a,1,0.76,,[],[],[],[],[],[],[],0.76,1,261.164,261.664,,,,,,390,MAS,DIS,150,rostro,la,l,,,261.665,261.666,-0.07625,-0.3825,0,0,0,,0,96,96,389,1,,,,
,,,,,,3197a726c117721867d8f4dc,66a626ef09d4e21e1a8894ec,6735ef7b278c1de90a3baea9,2024-11-14_13h39.47.006,Tarea de género gramatical,2024.2.2,Win32,59.95203837,,,,,,,,,,,,,,,,,,,,,,261.667,262.813,a,1,0.467,,[],[],[],[],[],[],[],0.467,1,262.814,263.313,,,,,,346,MAS,AGR,150,juicio,el,l,,,263.314,263.314,-0.07625,-0.3825,0,0,0,,0,97,97,345,1,,,,
,,,,,,3197a726c117721867d8f4dc,66a626ef09d4e21e1a8894ec,6735ef7b278c1de90a3baea9,2024-11-14_13h39.47.006,Tarea de género gramatical,2024.2.2,Win32,59.95203837,,,,,,,,,,,,,,,,,,,,,,263.315,264.364,l,1,0.367,,[],[],[],[],[],[],[],0.367,1,264.364,264.863,,,,,,117,FEM,DIS,150,raya,el,a,,,264.864,264.864,-0.07625,-0.3825,0,0,0,,0,98,98,116,1,,,,
,,,,,,3197a726c117721867d8f4dc,66a626ef09d4e21e1a8894ec,6735ef7b278c1de90a3baea9,2024-11-14_13h39.47.006,Tarea de género gramatical,2024.2.2,Win32,59.95203837,,,,,,,,,,,,,,,,,,,,,,264.865,266.014,a,1,0.492,,[],[],[],[],[],[],[],0.492,1,266.014,266.513,,,,,,192,MAS,DIS,150,grupo,la,l,,,266.513,266.514,-0.07625,-0.3825,0,0,0,,0,99,99,191,1,,,,
,,,,,,3197a726c117721867d8f4dc,66a626ef09d4e21e1a8894ec,6735ef7b278c1de90a3baea9,2024-11-14_13h39.47.006,Tarea de género gramatical,2024.2.2,Win32,59.95203837,,,,,,,,,,,,,,,,,,,,,,266.515,267.797,a,1,0.601,,[],[],[],[],[],[],[],0.601,1,267.798,268.297,,,,,,227,MAS,CON,150,vuelo,,l,,,268.297,268.297,-0.07625,-0.3825,0,0,0,,0,100,100,226,1,,,,
,,,,,,3197a726c117721867d8f4dc,66a626ef09d4e21e1a8894ec,6735ef7b278c1de90a3baea9,2024-11-14_13h39.47.006,Tarea de género gramatical,2024.2.2,Win32,59.95203837,,,,,,,,,,,,,,,,,,,,,,268.299,269.531,a,1,0.55,,[],[],[],[],[],[],[],0.55,1,269.531,270.031,,,,,,450,MAS,DIS,150,conejo,la,l,,,270.032,270.033,-0.07625,-0.3825,0,0,0,,0,101,101,449,1,,,,
,,,,,,3197a726c117721867d8f4dc,66a626ef09d4e21e1a8894ec,6735ef7b278c1de90a3baea9,2024-11-14_13h39.47.006,Tarea de género gramatical,2024.2.2,Win32,59.95203837,,,,,,,,,,,,,,,,,,,,,,270.034,271.33,a,1,0.617,,[],[],[],[],[],[],[],0.617,1,271.332,271.83,,,,,,244,MAS,AGR,150,hielo,el,l,,,271.831,271.831,-0.07625,-0.3825,0,0,0,,0,102,102,243,1,,,,
,,,,,,3197a726c117721867d8f4dc,66a626ef09d4e21e1a8894ec,6735ef7b278c1de90a3baea9,2024-11-14_13h39.47.006,Tarea de género gramatical,2024.2.2,Win32,59.95203837,,,,,,,,,,,,,,,,,,,,,,271.834,272.864,l,1,0.358,,[],[],[],[],[],[],[],0.358,1,272.864,273.364,,,,,,361,FEM,AGR,150,oferta,la,a,,,273.364,273.364,-0.07625,-0.3825,0,0,0,,0,103,103,360,1,,,,
,,,,,,3197a726c117721867d8f4dc,66a626ef09d4e21e1a8894ec,6735ef7b278c1de90a3baea9,2024-11-14_13h39.47.006,Tarea de género gramatical,2024.2.2,Win32,59.95203837,,,,,,,,,,,,,,,,,,,,,,273.365,274.397,l,1,0.362,,[],[],[],[],[],[],[],0.362,1,274.397,274.897,,,,,,398,FEM,CON,150,hierba,,a,,,274.897,274.897,-0.07625,-0.3825,0,0,0,,0,104,104,397,1,,,,
,,,,,,3197a726c117721867d8f4dc,66a626ef09d4e21e1a8894ec,6735ef7b278c1de90a3baea9,2024-11-14_13h39.47.006,Tarea de género gramatical,2024.2.2,Win32,59.95203837,,,,,,,,,,,,,,,,,,,,,,274.899,276.197,l,0,0.623,,[],[],[],[],[],[],[],0.623,0,276.198,276.697,,,,,,144,MAS,DIS,150,amor,la,l,,,276.698,276.699,-0.07625,-0.3825,0,0,0,,0,105,105,143,1,,,,
,,,,,,3197a726c117721867d8f4dc,66a626ef09d4e21e1a8894ec,6735ef7b278c1de90a3baea9,2024-11-14_13h39.47.006,Tarea de género gramatical,2024.2.2,Win32,59.95203837,,,,,,,,,,,,,,,,,,,,,,276.7,277.83,l,1,0.451,,[],[],[],[],[],[],[],0.451,1,277.831,278.33,,,,,,157,FEM,AGR,150,madre,la,a,,,278.33,278.331,-0.07625,-0.3825,0,0,0,,0,106,106,156,1,,,,
,,,,,,3197a726c117721867d8f4dc,66a626ef09d4e21e1a8894ec,6735ef7b278c1de90a3baea9,2024-11-14_13h39.47.006,Tarea de género gramatical,2024.2.2,Win32,59.95203837,,,,,,,,,,,,,,,,,,,,,,278.332,279.463,l,1,0.458,,[],[],[],[],[],[],[],0.458,1,279.464,279.964,,,,,,387,FEM,DIS,150,página,el,a,,,279.964,279.964,-0.07625,-0.3825,0,0,0,,0,107,107,386,1,,,,
,,,,,,3197a726c117721867d8f4dc,66a626ef09d4e21e1a8894ec,6735ef7b278c1de90a3baea9,2024-11-14_13h39.47.006,Tarea de género gramatical,2024.2.2,Win32,59.95203837,,,,,,,,,,,,,,,,,,,,,,279.966,280.964,l,1,0.327,,[],[],[],[],[],[],[],0.327,1,280.964,281.464,,,,,,145,FEM,AGR,150,bota,la,a,,,281.464,281.464,-0.07625,-0.3825,0,0,0,,0,108,108,144,1,,,,
,,,,,,3197a726c117721867d8f4dc,66a626ef09d4e21e1a8894ec,6735ef7b278c1de90a3baea9,2024-11-14_13h39.47.006,Tarea de género gramatical,2024.2.2,Win32,59.95203837,,,,,,,,,,,,,,,,,,,,,,281.465,282.613,l,1,0.476,,[],[],[],[],[],[],[],0.476,1,282.614,283.113,,,,,,393,FEM,DIS,150,alarma,el,a,,,283.113,283.113,-0.07625,-0.3825,0,0,0,,0,109,109,392,1,,,,
,,,,,,3197a726c117721867d8f4dc,66a626ef09d4e21e1a8894ec,6735ef7b278c1de90a3baea9,2024-11-14_13h39.47.006,Tarea de género gramatical,2024.2.2,Win32,59.95203837,,,,,,,,,,,,,,,,,,,,,,283.114,284.348,a,1,0.55,,[],[],[],[],[],[],[],0.55,1,284.348,284.847,,,,,,281,MAS,CON,150,actor,,l,,,284.848,284.849,-0.07625,-0.3825,0,0,0,,0,110,110,280,1,,,,
,,,,,,3197a726c117721867d8f4dc,66a626ef09d4e21e1a8894ec,6735ef7b278c1de90a3baea9,2024-11-14_13h39.47.006,Tarea de género gramatical,2024.2.2,Win32,59.95203837,,,,,,,,,,,,,,,,,,,,,,284.85,285.93,l,1,0.411,,[],[],[],[],[],[],[],0.411,1,285.93,286.43,,,,,,44,FEM,CON,150,zona,,a,,,286.43,286.43,-0.07625,-0.3825,0,0,0,,0,111,111,43,1,,,,
,,,,,,3197a726c117721867d8f4dc,66a626ef09d4e21e1a8894ec,6735ef7b278c1de90a3baea9,2024-11-14_13h39.47.006,Tarea de género gramatical,2024.2.2,Win32,59.95203837,,,,,,,,,,,,,,,,,,,,,,286.432,287.497,l,1,0.396,,[],[],[],[],[],[],[],0.396,1,287.498,287.997,,,,,,193,FEM,AGR,150,bolsa,la,a,,,287.997,287.997,-0.07625,-0.3825,0,0,0,,0,112,112,192,1,,,,
,,,,,,3197a726c117721867d8f4dc,66a626ef09d4e21e1a8894ec,6735ef7b278c1de90a3baea9,2024-11-14_13h39.47.006,Tarea de género gramatical,2024.2.2,Win32,59.95203837,,,,,,,,,,,,,,,,,,,,,,287.999,289.447,l,1,0.767,,[],[],[],[],[],[],[],0.767,1,289.447,289.946,,,,,,333,FEM,DIS,150,locura,el,a,,,289.946,289.947,-0.07625,-0.3825,0,0,0,,0,113,113,332,1,,,,
,,,,,,3197a726c117721867d8f4dc,66a626ef09d4e21e1a8894ec,6735ef7b278c1de90a3baea9,2024-11-14_13h39.47.006,Tarea de género gramatical,2024.2.2,Win32,59.95203837,,,,,,,,,,,,,,,,,,,,,,289.948,291.064,a,1,0.435,,[],[],[],[],[],[],[],0.435,1,291.064,291.564,,,,,,71,MAS,CON,150,pozo,,l,,,291.565,291.566,-0.07625,-0.3825,0,0,0,,0,114,114,70,1,,,,
,,,,,,3197a726c117721867d8f4dc,66a626ef09d4e21e1a8894ec,6735ef7b278c1de90a3baea9,2024-11-14_13h39.47.006,Tarea de género gramatical,2024.2.2,Win32,59.95203837,,,,,,,,,,,,,,,,,,,,,,291.567,293.013,a,1,0.777,,[],[],[],[],[],[],[],0.777,1,293.013,293.513,,,,,,270,MAS,DIS,150,queso,la,l,,,293.513,293.514,-0.07625,-0.3825,0,0,0,,0,115,115,269,1,,,,
,,,,,,3197a726c117721867d8f4dc,66a626ef09d4e21e1a8894ec,6735ef7b278c1de90a3baea9,2024-11-14_13h39.47.006,Tarea de género gramatical,2024.2.2,Win32,59.95203837,,,,,,,,,,,,,,,,,,,,,,293.514,294.93,a,1,0.744,,[],[],[],[],[],[],[],0.744,1,294.93,295.43,,,,,,310,MAS,AGR,150,nombre,el,l,,,295.43,295.431,-0.07625,-0.3825,0,0,0,,0,116,116,309,1,,,,
,,,,,,3197a726c117721867d8f4dc,66a626ef09d4e21e1a8894ec,6735ef7b278c1de90a3baea9,2024-11-14_13h39.47.006,Tarea de género gramatical,2024.2.2,Win32,59.95203837,,,,,,,,,,,,,,,,,,,,,,295.432,297.113,a,1,1,,[],[],[],[],[],[],[],1,1,297.114,297.614,,,,,,119,MAS,CON,150,mito,,l,,,297.614,297.614,-0.07625,-0.3825,0,0,0,,0,117,117,118,1,,,,
,,,,,,3197a726c117721867d8f4dc,66a626ef09d4e21e1a8894ec,6735ef7b278c1de90a3baea9,2024-11-14_13h39.47.006,Tarea de género gramatical,2024.2.2,Win32,59.95203837,,,,,,,,,,,,,,,,,,,,,,297.616,298.73,a,1,0.441,,[],[],[],[],[],[],[],0.441,1,298.73,299.23,,,,,,395,MAS,CON,150,correo,,l,,,299.23,299.23,-0.07625,-0.3825,0,0,0,,0,118,118,394,1,,,,
,,,,,,3197a726c117721867d8f4dc,66a626ef09d4e21e1a8894ec,6735ef7b278c1de90a3baea9,2024-11-14_13h39.47.006,Tarea de género gramatical,2024.2.2,Win32,59.95203837,,,,,,,,,,,,,,,,,,,,,,299.231,300.247,a,1,0.338,,[],[],[],[],[],[],[],0.338,1,300.247,300.746,,,,,,335,MAS,CON,150,montón,,l,,,300.747,300.748,-0.07625,-0.3825,0,0,0,,0,119,119,334,1,,,,
,,,,,,3197a726c117721867d8f4dc,66a626ef09d4e21e1a8894ec,6735ef7b278c1de90a3baea9,2024-11-14_13h39.47.006,Tarea de género gramatical,2024.2.2,Win32,59.95203837,,,,,,,,,,,,,,,,,,,,,,300.749,302.013,a,1,0.589,,[],[],[],[],[],[],[],0.589,1,302.013,302.514,,,,,,60,MAS,DIS,150,tono,la,l,,,302.514,302.514,-0.07625,-0.3825,0,0,0,,0,120,120,59,1,,,,
,,,,,,3197a726c117721867d8f4dc,66a626ef09d4e21e1a8894ec,6735ef7b278c1de90a3baea9,2024-11-14_13h39.47.006,Tarea de género gramatical,2024.2.2,Win32,59.95203837,,,,,,,,,,,,,,,,,,,,,,302.515,303.497,l,1,0.301,,[],[],[],[],[],[],[],0.301,1,303.497,303.997,,,,,,308,FEM,CON,150,semana,,a,,,303.998,303.998,-0.07625,-0.3825,0,0,0,,0,121,121,307,1,,,,
,,,,,,3197a726c117721867d8f4dc,66a626ef09d4e21e1a8894ec,6735ef7b278c1de90a3baea9,2024-11-14_13h39.47.006,Tarea de género gramatical,2024.2.2,Win32,59.95203837,,,,,,,,,,,,,,,,,,,,,,304.001,305.096,a,1,0.424,,[],[],[],[],[],[],[],0.424,1,305.097,305.597,,,,,,185,MAS,CON,150,sueño,,l,,,305.597,305.597,-0.07625,-0.3825,0,0,0,,0,122,122,184,1,,,,
,,,,,,3197a726c117721867d8f4dc,66a626ef09d4e21e1a8894ec,6735ef7b278c1de90a3baea9,2024-11-14_13h39.47.006,Tarea de género gramatical,2024.2.2,Win32,59.95203837,,,,,,,,,,,,,,,,,,,,,,305.598,306.763,a,1,0.484,,[],[],[],[],[],[],[],0.484,1,306.763,307.263,,,,,,382,MAS,AGR,150,teatro,el,l,,,307.264,307.265,-0.07625,-0.3825,0,0,0,,0,123,123,381,1,,,,
,,,,,,3197a726c117721867d8f4dc,66a626ef09d4e21e1a8894ec,6735ef7b278c1de90a3baea9,2024-11-14_13h39.47.006,Tarea de género gramatical,2024.2.2,Win32,59.95203837,,,,,,,,,,,,,,,,,,,,,,307.266,308.396,a,1,0.454,,[],[],[],[],[],[],[],0.454,1,308.397,308.897,,,,,,209,MAS,CON,150,banco,,l,,,308.897,308.897,-0.07625,-0.3825,0,0,0,,0,124,124,208,1,,,,
,,,,,,3197a726c117721867d8f4dc,66a626ef09d4e21e1a8894ec,6735ef7b278c1de90a3baea9,2024-11-14_13h39.47.006,Tarea de género gramatical,2024.2.2,Win32,59.95203837,,,,,,,,,,,,,,,,,,,,,,308.899,309.93,a,1,0.353,,[],[],[],[],[],[],[],0.353,1,309.93,310.43,,,,,,306,MAS,DIS,150,dinero,la,l,,,310.43,310.43,-0.07625,-0.3825,0,0,0,,0,125,125,305,1,,,,
,,,,,,3197a726c117721867d8f4dc,66a626ef09d4e21e1a8894ec,6735ef7b278c1de90a3baea9,2024-11-14_13h39.47.006,Tarea de género gramatical,2024.2.2,Win32,59.95203837,,,,,,,,,,,,,,,,,,,,,,310.431,311.496,a,1,0.385,,[],[],[],[],[],[],[],0.385,1,311.496,311.997,,,,,,384,MAS,DIS,150,pedazo,la,l,,,311.997,311.997,-0.07625,-0.3825,0,0,0,,0,126,126,383,1,,,,
,,,,,,3197a726c117721867d8f4dc,66a626ef09d4e21e1a8894ec,6735ef7b278c1de90a3baea9,2024-11-14_13h39.47.006,Tarea de género gramatical,2024.2.2,Win32,59.95203837,,,,,,,,,,,,,,,,,,,,,,311.998,312.947,a,1,0.275,,[],[],[],[],[],[],[],0.275,1,312.947,313.447,,,,,,293,MAS,CON,150,patio,,l,,,313.447,313.447,-0.07625,-0.3825,0,0,0,,0,127,127,292,1,,,,
,,,,,,3197a726c117721867d8f4dc,66a626ef09d4e21e1a8894ec,6735ef7b278c1de90a3baea9,2024-11-14_13h39.47.006,Tarea de género gramatical,2024.2.2,Win32,59.95203837,,,,,,,,,,,,,,,,,,,,,,313.448,314.547,l,1,0.43,,[],[],[],[],[],[],[],0.43,1,314.547,315.047,,,,,,127,FEM,AGR,150,cuna,la,a,,,315.048,315.049,-0.07625,-0.3825,0,0,0,,0,128,128,126,1,,,,
,,,,,,3197a726c117721867d8f4dc,66a626ef09d4e21e1a8894ec,6735ef7b278c1de90a3baea9,2024-11-14_13h39.47.006,Tarea de género gramatical,2024.2.2,Win32,59.95203837,,,,,,,,,,,,,,,,,,,,,,315.049,316.297,a,1,0.578,,[],[],[],[],[],[],[],0.578,1,316.297,316.797,,,,,,407,MAS,CON,150,jurado,,l,,,316.797,316.797,-0.07625,-0.3825,0,0,0,,0,129,129,406,1,,,,
,,,,,,3197a726c117721867d8f4dc,66a626ef09d4e21e1a8894ec,6735ef7b278c1de90a3baea9,2024-11-14_13h39.47.006,Tarea de género gramatical,2024.2.2,Win32,59.95203837,,,,,,,,,,,,,,,,,,,,,,316.799,318.329,l,1,0.855,,[],[],[],[],[],[],[],0.855,1,318.33,318.83,,,,,,2,FEM,CON,150,vida,,a,,,318.83,318.83,-0.07625,-0.3825,0,0,0,,0,130,130,1,1,,,,
,,,,,,3197a726c117721867d8f4dc,66a626ef09d4e21e1a8894ec,6735ef7b278c1de90a3baea9,2024-11-14_13h39.47.006,Tarea de género gramatical,2024.2.2,Win32,59.95203837,,,,,,,,,,,,,,,,,,,,,,318.832,320.413,l,0,0.9,,[],[],[],[],[],[],[],0.9,0,320.414,320.913,,,,,,58,MAS,AGR,150,mono,el,l,,,320.913,320.913,-0.07625,-0.3825,0,0,0,,0,131,131,57,1,,,,
,,,,,,3197a726c117721867d8f4dc,66a626ef09d4e21e1a8894ec,6735ef7b278c1de90a3baea9,2024-11-14_13h39.47.006,Tarea de género gramatical,2024.2.2,Win32,59.95203837,,,,,,,,,,,,,,,,,,,,,,320.915,322.08,l,1,0.489,,[],[],[],[],[],[],[],0.489,1,322.082,322.579,,,,,,219,FEM,DIS,150,costa,el,a,,,322.581,322.582,-0.07625,-0.3825,0,0,0,,0,132,132,218,1,,,,
,,,,,,3197a726c117721867d8f4dc,66a626ef09d4e21e1a8894ec,6735ef7b278c1de90a3baea9,2024-11-14_13h39.47.006,Tarea de género gramatical,2024.2.2,Win32,59.95203837,,,,,,,,,,,,,,,,,,,,,,322.582,324.513,a,1,1.249,,[],[],[],[],[],[],[],1.249,1,324.514,325.013,,,,,,23,MAS,CON,150,rato,,l,,,325.013,325.013,-0.07625,-0.3825,0,0,0,,0,133,133,22,1,,,,
,,,,,,3197a726c117721867d8f4dc,66a626ef09d4e21e1a8894ec,6735ef7b278c1de90a3baea9,2024-11-14_13h39.47.006,Tarea de género gramatical,2024.2.2,Win32,59.95203837,,,,,,,,,,,,,,,,,,,,,,325.015,326.08,l,1,0.385,,[],[],[],[],[],[],[],0.385,1,326.08,326.579,,,,,,39,FEM,DIS,150,luna,el,a,,,326.579,326.58,-0.07625,-0.3825,0,0,0,,0,134,134,38,1,,,,
,,,,,,3197a726c117721867d8f4dc,66a626ef09d4e21e1a8894ec,6735ef7b278c1de90a3baea9,2024-11-14_13h39.47.006,Tarea de género gramatical,2024.2.2,Win32,59.95203837,,,,,,,,,,,,,,,,,,,,,,326.581,327.647,l,1,0.39,,[],[],[],[],[],[],[],0.39,1,327.647,328.147,,,,,,271,FEM,AGR,150,viuda,la,a,,,328.147,328.147,-0.07625,-0.3825,0,0,0,,0,135,135,270,1,,,,
,,,,,,3197a726c117721867d8f4dc,66a626ef09d4e21e1a8894ec,6735ef7b278c1de90a3baea9,2024-11-14_13h39.47.006,Tarea de género gramatical,2024.2.2,Win32,59.95203837,,,,,,,,,,,,,,,,,,,,,,328.148,329.362,a,1,0.539,,[],[],[],[],[],[],[],0.539,1,329.364,329.863,,,,,,126,MAS,DIS,150,lazo,la,l,,,329.863,329.864,-0.07625,-0.3825,0,0,0,,0,136,136,125,1,,,,
,,,,,,3197a726c117721867d8f4dc,66a626ef09d4e21e1a8894ec,6735ef7b278c1de90a3baea9,2024-11-14_13h39.47.006,Tarea de género gramatical,2024.2.2,Win32,59.95203837,,,,,,,,,,,,,,,,,,,,,,329.865,330.846,a,1,0.308,,[],[],[],[],[],[],[],0.308,1,330.846,331.347,,,,,,168,MAS,DIS,150,sitio,la,l,,,331.347,331.348,-0.07625,-0.3825,0,0,0,,0,137,137,167,1,,,,
,,,,,,3197a726c117721867d8f4dc,66a626ef09d4e21e1a8894ec,6735ef7b278c1de90a3baea9,2024-11-14_13h39.47.006,Tarea de género gramatical,2024.2.2,Win32,59.95203837,,,,,,,,,,,,,,,,,,,,,,331.349,332.312,a,1,0.288,,[],[],[],[],[],[],[],0.288,1,332.313,332.813,,,,,,202,MAS,AGR,150,honor,el,l,,,332.813,332.814,-0.07625,-0.3825,0,0,0,,0,138,138,201,1,,,,
,,,,,,3197a726c117721867d8f4dc,66a626ef09d4e21e1a8894ec,6735ef7b278c1de90a3baea9,2024-11-14_13h39.47.006,Tarea de género gramatical,2024.2.2,Win32,59.95203837,,,,,,,,,,,,,,,,,,,,,,332.815,333.78,a,1,0.284,,[],[],[],[],[],[],[],0.284,1,333.78,334.28,,,,,,191,MAS,CON,150,dolor,,l,,,334.28,334.28,-0.07625,-0.3825,0,0,0,,0,139,139,190,1,,,,
,,,,,,3197a726c117721867d8f4dc,66a626ef09d4e21e1a8894ec,6735ef7b278c1de90a3baea9,2024-11-14_13h39.47.006,Tarea de género gramatical,2024.2.2,Win32,59.95203837,,,,,,,,,,,,,,,,,,,,,,334.281,335.397,a,0,0.44,,[],[],[],[],[],[],[],0.44,0,335.397,335.896,,,,,,181,FEM,AGR,150,tarde,la,a,,,335.896,335.896,-0.07625,-0.3825,0,0,0,,0,140,140,180,1,,,,
,,,,,,3197a726c117721867d8f4dc,66a626ef09d4e21e1a8894ec,6735ef7b278c1de90a3baea9,2024-11-14_13h39.47.006,Tarea de género gramatical,2024.2.2,Win32,59.95203837,,,,,,,,,,,,,,,,,,,,,,335.898,336.996,l,1,0.416,,[],[],[],[],[],[],[],0.416,1,336.997,337.498,,,,,,427,FEM,AGR,150,agenda,la,a,,,337.499,337.501,-0.07625,-0.3825,0,0,0,,0,141,141,426,1,,,,
,,,,,,3197a726c117721867d8f4dc,66a626ef09d4e21e1a8894ec,6735ef7b278c1de90a3baea9,2024-11-14_13h39.47.006,Tarea de género gramatical,2024.2.2,Win32,59.95203837,,,,,,,,,,,,,,,,,,,,,,337.503,338.53,a,1,0.356,,[],[],[],[],[],[],[],0.356,1,338.531,339.03,,,,,,203,MAS,CON,150,novio,,l,,,339.03,339.03,-0.07625,-0.3825,0,0,0,,0,142,142,202,1,,,,
,,,,,,3197a726c117721867d8f4dc,66a626ef09d4e21e1a8894ec,6735ef7b278c1de90a3baea9,2024-11-14_13h39.47.006,Tarea de género gramatical,2024.2.2,Win32,59.95203837,,,,,,,,,,,,,,,,,,,,,,339.032,340.13,a,1,0.417,,[],[],[],[],[],[],[],0.417,1,340.13,340.63,,,,,,41,MAS,CON,150,bote,,l,,,340.63,340.63,-0.07625,-0.3825,0,0,0,,0,143,143,40,1,,,,
,,,,,,3197a726c117721867d8f4dc,66a626ef09d4e21e1a8894ec,6735ef7b278c1de90a3baea9,2024-11-14_13h39.47.006,Tarea de género gramatical,2024.2.2,Win32,59.95203837,,,,,,,,,,,,,,,,,,,,,,340.632,341.863,a,1,0.559,,[],[],[],[],[],[],[],0.559,1,341.863,342.364,,,,,,282,MAS,DIS,150,bolso,la,l,,,342.364,342.364,-0.07625,-0.3825,0,0,0,,0,144,144,281,1,,,,
,,,,,,3197a726c117721867d8f4dc,66a626ef09d4e21e1a8894ec,6735ef7b278c1de90a3baea9,2024-11-14_13h39.47.006,Tarea de género gramatical,2024.2.2,Win32,59.95203837,,,,,,,,,,,,,,,,,,,,,,342.365,343.346,l,1,0.303,,[],[],[],[],[],[],[],0.303,1,343.346,343.846,,,,,,55,FEM,AGR,150,taza,la,a,,,343.846,343.846,-0.07625,-0.3825,0,0,0,,0,145,145,54,1,,,,
,,,,,,3197a726c117721867d8f4dc,66a626ef09d4e21e1a8894ec,6735ef7b278c1de90a3baea9,2024-11-14_13h39.47.006,Tarea de género gramatical,2024.2.2,Win32,59.95203837,,,,,,,,,,,,,,,,,,,,,,343.847,344.962,l,1,0.434,,[],[],[],[],[],[],[],0.434,1,344.963,345.463,,,,,,247,FEM,AGR,150,frase,la,a,,,345.464,345.466,-0.07625,-0.3825,0,0,0,,0,146,146,246,1,,,,
,,,,,,3197a726c117721867d8f4dc,66a626ef09d4e21e1a8894ec,6735ef7b278c1de90a3baea9,2024-11-14_13h39.47.006,Tarea de género gramatical,2024.2.2,Win32,59.95203837,,,,,,,,,,,,,,,,,,,,,,345.467,346.429,a,1,0.288,,[],[],[],[],[],[],[],0.288,1,346.43,346.93,,,,,,292,MAS,AGR,150,piano,el,l,,,346.93,346.93,-0.07625,-0.3825,0,0,0,,0,147,147,291,1,,,,
,,,,,,3197a726c117721867d8f4dc,66a626ef09d4e21e1a8894ec,6735ef7b278c1de90a3baea9,2024-11-14_13h39.47.006,Tarea de género gramatical,2024.2.2,Win32,59.95203837,,,,,,,,,,,,,,,,,,,,,,346.932,347.98,a,0,0.368,,[],[],[],[],[],[],[],0.368,0,347.981,348.479,,,,,,369,FEM,DIS,150,camisa,el,a,,,348.479,348.479,-0.07625,-0.3825,0,0,0,,0,148,148,368,1,,,,
,,,,,,3197a726c117721867d8f4dc,66a626ef09d4e21e1a8894ec,6735ef7b278c1de90a3baea9,2024-11-14_13h39.47.006,Tarea de género gramatical,2024.2.2,Win32,59.95203837,,,,,,,,,,,,,,,,,,,,,,348.481,349.563,a,1,0.4,,[],[],[],[],[],[],[],0.4,1,349.565,350.063,,,,,,222,MAS,DIS,150,valor,la,l,,,350.063,350.063,-0.07625,-0.3825,0,0,0,,0,149,149,221,1,,,,
,,,,,,3197a726c117721867d8f4dc,66a626ef09d4e21e1a8894ec,6735ef7b278c1de90a3baea9,2024-11-14_13h39.47.006,Tarea de género gramatical,2024.2.2,Win32,59.95203837,,,,,,,,,,,,,,,,,,,,,,350.065,351.23,a,1,0.49,,[],[],[],[],[],[],[],0.49,1,351.23,351.73,,,,,,156,MAS,DIS,150,amigo,la,l,,,351.731,360.846,0.145,-0.08,0,0,0,space,0,150,150,155,1,9.101,,,
,,,,,,3197a726c117721867d8f4dc,66a626ef09d4e21e1a8894ec,6735ef7b278c1de90a3baea9,2024-11-14_13h39.47.006,Tarea de género gramatical,2024.2.2,Win32,59.95203837,,,,,,,,,,,,,,,,,,,,,,360.848,362.63,l,1,1.106,,[],[],[],[],[],[],[],1.106,1,362.63,363.13,,,,,,146,FEM,CON,150,lana,,a,,,363.13,363.13,0.145,-0.08,0,0,0,,0,151,151,145,1,,,,
,,,,,,3197a726c117721867d8f4dc,66a626ef09d4e21e1a8894ec,6735ef7b278c1de90a3baea9,2024-11-14_13h39.47.006,Tarea de género gramatical,2024.2.2,Win32,59.95203837,,,,,,,,,,,,,,,,,,,,,,363.131,364.196,l,1,0.386,,[],[],[],[],[],[],[],0.386,1,364.196,364.697,,,,,,74,FEM,CON,150,flor,,a,,,364.697,364.697,0.145,-0.08,0,0,0,,0,152,152,73,1,,,,
,,,,,,3197a726c117721867d8f4dc,66a626ef09d4e21e1a8894ec,6735ef7b278c1de90a3baea9,2024-11-14_13h39.47.006,Tarea de género gramatical,2024.2.2,Win32,59.95203837,,,,,,,,,,,,,,,,,,,,,,364.697,365.862,a,1,0.491,,[],[],[],[],[],[],[],0.491,1,365.862,366.363,,,,,,150,MAS,DIS,150,mozo,la,l,,,366.363,366.363,0.145,-0.08,0,0,0,,0,153,153,149,1,,,,
,,,,,,3197a726c117721867d8f4dc,66a626ef09d4e21e1a8894ec,6735ef7b278c1de90a3baea9,2024-11-14_13h39.47.006,Tarea de género gramatical,2024.2.2,Win32,59.95203837,,,,,,,,,,,,,,,,,,,,,,366.364,367.396,l,1,0.36,,[],[],[],[],[],[],[],0.36,1,367.396,367.896,,,,,,93,FEM,DIS,150,lata,el,a,,,367.896,367.896,0.145,-0.08,0,0,0,,0,154,154,92,1,,,,
,,,,,,3197a726c117721867d8f4dc,66a626ef09d4e21e1a8894ec,6735ef7b278c1de90a3baea9,2024-11-14_13h39.47.006,Tarea de género gramatical,2024.2.2,Win32,59.95203837,,,,,,,,,,,,,,,,,,,,,,367.898,369.113,a,0,0.533,,[],[],[],[],[],[],[],0.533,0,369.114,369.613,,,,,,211,FEM,AGR,150,salud,la,a,,,369.614,369.615,0.145,-0.08,0,0,0,,0,155,155,210,1,,,,
,,,,,,3197a726c117721867d8f4dc,66a626ef09d4e21e1a8894ec,6735ef7b278c1de90a3baea9,2024-11-14_13h39.47.006,Tarea de género gramatical,2024.2.2,Win32,59.95203837,,,,,,,,,,,,,,,,,,,,,,369.616,371.014,l,1,0.721,,[],[],[],[],[],[],[],0.721,1,371.016,371.513,,,,,,445,FEM,AGR,150,bondad,la,a,,,371.513,371.514,0.145,-0.08,0,0,0,,0,156,156,444,1,,,,
,,,,,,3197a726c117721867d8f4dc,66a626ef09d4e21e1a8894ec,6735ef7b278c1de90a3baea9,2024-11-14_13h39.47.006,Tarea de género gramatical,2024.2.2,Win32,59.95203837,,,,,,,,,,,,,,,,,,,,,,371.516,372.546,l,1,0.359,,[],[],[],[],[],[],[],0.359,1,372.546,373.046,,,,,,194,FEM,CON,150,banda,,a,,,373.046,373.046,0.145,-0.08,0,0,0,,0,157,157,193,1,,,,
,,,,,,3197a726c117721867d8f4dc,66a626ef09d4e21e1a8894ec,6735ef7b278c1de90a3baea9,2024-11-14_13h39.47.006,Tarea de género gramatical,2024.2.2,Win32,59.95203837,,,,,,,,,,,,,,,,,,,,,,373.047,374.146,l,1,0.424,,[],[],[],[],[],[],[],0.424,1,374.146,374.646,,,,,,213,FEM,DIS,150,magia,el,a,,,374.646,374.646,0.145,-0.08,0,0,0,,0,158,158,212,1,,,,
,,,,,,3197a726c117721867d8f4dc,66a626ef09d4e21e1a8894ec,6735ef7b278c1de90a3baea9,2024-11-14_13h39.47.006,Tarea de género gramatical,2024.2.2,Win32,59.95203837,,,,,,,,,,,,,,,,,,,,,,374.648,375.729,a,1,0.4,,[],[],[],[],[],[],[],0.4,1,375.73,376.23,,,,,,190,MAS,AGR,150,campo,el,l,,,376.231,376.232,0.145,-0.08,0,0,0,,0,159,159,189,1,,,,
,,,,,,3197a726c117721867d8f4dc,66a626ef09d4e21e1a8894ec,6735ef7b278c1de90a3baea9,2024-11-14_13h39.47.006,Tarea de género gramatical,2024.2.2,Win32,59.95203837,,,,,,,,,,,,,,,,,,,,,,376.232,377.695,l,1,0.793,,[],[],[],[],[],[],[],0.793,1,377.695,378.196,,,,,,423,FEM,DIS,150,poesía,el,a,,,378.196,378.196,0.145,-0.08,0,0,0,,0,160,160,422,1,,,,
,,,,,,3197a726c117721867d8f4dc,66a626ef09d4e21e1a8894ec,6735ef7b278c1de90a3baea9,2024-11-14_13h39.47.006,Tarea de género gramatical,2024.2.2,Win32,59.95203837,,,,,,,,,,,,,,,,,,,,,,378.197,379.379,a,1,0.508,,[],[],[],[],[],[],[],0.508,1,379.379,379.879,,,,,,106,MAS,AGR,150,test,el,l,,,379.879,379.879,0.145,-0.08,0,0,0,,0,161,161,105,1,,,,
,,,,,,3197a726c117721867d8f4dc,66a626ef09d4e21e1a8894ec,6735ef7b278c1de90a3baea9,2024-11-14_13h39.47.006,Tarea de género gramatical,2024.2.2,Win32,59.95203837,,,,,,,,,,,,,,,,,,,,,,379.881,381.162,a,1,0.606,,[],[],[],[],[],[],[],0.606,1,381.162,381.663,,,,,,172,MAS,AGR,150,poder,el,l,,,381.663,381.664,0.145,-0.08,0,0,0,,0,162,162,171,1,,,,
,,,,,,3197a726c117721867d8f4dc,66a626ef09d4e21e1a8894ec,6735ef7b278c1de90a3baea9,2024-11-14_13h39.47.006,Tarea de género gramatical,2024.2.2,Win32,59.95203837,,,,,,,,,,,,,,,,,,,,,,381.665,382.963,a,1,0.617,,[],[],[],[],[],[],[],0.617,1,382.963,383.462,,,,,,276,MAS,DIS,150,ritmo,la,l,,,383.462,383.463,0.145,-0.08,0,0,0,,0,163,163,275,1,,,,
,,,,,,3197a726c117721867d8f4dc,66a626ef09d4e21e1a8894ec,6735ef7b278c1de90a3baea9,2024-11-14_13h39.47.006,Tarea de género gramatical,2024.2.2,Win32,59.95203837,,,,,,,,,,,,,,,,,,,,,,383.464,384.796,l,1,0.652,,[],[],[],[],[],[],[],0.652,1,384.796,385.296,,,,,,201,FEM,DIS,150,leche,el,a,,,385.297,385.299,0.145,-0.08,0,0,0,,0,164,164,200,1,,,,
,,,,,,3197a726c117721867d8f4dc,66a626ef09d4e21e1a8894ec,6735ef7b278c1de90a3baea9,2024-11-14_13h39.47.006,Tarea de género gramatical,2024.2.2,Win32,59.95203837,,,,,,,,,,,,,,,,,,,,,,385.299,386.779,l,1,0.808,,[],[],[],[],[],[],[],0.808,1,386.78,387.279,,,,,,241,FEM,AGR,150,pasta,la,a,,,387.279,387.279,0.145,-0.08,0,0,0,,0,165,165,240,1,,,,
,,,,,,3197a726c117721867d8f4dc,66a626ef09d4e21e1a8894ec,6735ef7b278c1de90a3baea9,2024-11-14_13h39.47.006,Tarea de género gramatical,2024.2.2,Win32,59.95203837,,,,,,,,,,,,,,,,,,,,,,387.281,388.479,l,1,0.522,,[],[],[],[],[],[],[],0.522,1,388.479,388.979,,,,,,260,FEM,CON,150,barra,,a,,,388.979,388.98,0.145,-0.08,0,0,0,,0,166,166,259,1,,,,
,,,,,,3197a726c117721867d8f4dc,66a626ef09d4e21e1a8894ec,6735ef7b278c1de90a3baea9,2024-11-14_13h39.47.006,Tarea de género gramatical,2024.2.2,Win32,59.95203837,,,,,,,,,,,,,,,,,,,,,,388.981,390.129,a,1,0.469,,[],[],[],[],[],[],[],0.469,1,390.129,390.629,,,,,,214,MAS,AGR,150,fondo,el,l,,,390.629,390.629,0.145,-0.08,0,0,0,,0,167,167,213,1,,,,
,,,,,,3197a726c117721867d8f4dc,66a626ef09d4e21e1a8894ec,6735ef7b278c1de90a3baea9,2024-11-14_13h39.47.006,Tarea de género gramatical,2024.2.2,Win32,59.95203837,,,,,,,,,,,,,,,,,,,,,,390.631,391.979,a,1,0.667,,[],[],[],[],[],[],[],0.667,1,391.979,392.479,,,,,,329,MAS,CON,150,futuro,,l,,,392.479,392.481,0.145,-0.08,0,0,0,,0,168,168,328,1,,,,
,,,,,,3197a726c117721867d8f4dc,66a626ef09d4e21e1a8894ec,6735ef7b278c1de90a3baea9,2024-11-14_13h39.47.006,Tarea de género gramatical,2024.2.2,Win32,59.95203837,,,,,,,,,,,,,,,,,,,,,,392.481,393.779,a,1,0.626,,[],[],[],[],[],[],[],0.626,1,393.779,394.279,,,,,,420,MAS,DIS,150,helado,la,l,,,394.279,394.279,0.145,-0.08,0,0,0,,0,169,169,419,1,,,,
,,,,,,3197a726c117721867d8f4dc,66a626ef09d4e21e1a8894ec,6735ef7b278c1de90a3baea9,2024-11-14_13h39.47.006,Tarea de género gramatical,2024.2.2,Win32,59.95203837,,,,,,,,,,,,,,,,,,,,,,394.281,395.396,a,1,0.433,,[],[],[],[],[],[],[],0.433,1,395.396,395.896,,,,,,196,MAS,AGR,150,barco,el,l,,,395.896,395.896,0.145,-0.08,0,0,0,,0,170,170,195,1,,,,
,,,,,,3197a726c117721867d8f4dc,66a626ef09d4e21e1a8894ec,6735ef7b278c1de90a3baea9,2024-11-14_13h39.47.006,Tarea de género gramatical,2024.2.2,Win32,59.95203837,,,,,,,,,,,,,,,,,,,,,,395.897,397.112,l,1,0.541,,[],[],[],[],[],[],[],0.541,1,397.113,397.613,,,,,,307,FEM,AGR,150,suerte,la,a,,,397.613,397.613,0.145,-0.08,0,0,0,,0,171,171,306,1,,,,
,,,,,,3197a726c117721867d8f4dc,66a626ef09d4e21e1a8894ec,6735ef7b278c1de90a3baea9,2024-11-14_13h39.47.006,Tarea de género gramatical,2024.2.2,Win32,59.95203837,,,,,,,,,,,,,,,,,,,,,,397.614,398.695,l,1,0.407,,[],[],[],[],[],[],[],0.407,1,398.696,399.196,,,,,,331,FEM,AGR,150,cárcel,la,a,,,399.196,399.196,0.145,-0.08,0,0,0,,0,172,172,330,1,,,,
,,,,,,3197a726c117721867d8f4dc,66a626ef09d4e21e1a8894ec,6735ef7b278c1de90a3baea9,2024-11-14_13h39.47.006,Tarea de género gramatical,2024.2.2,Win32,59.95203837,,,,,,,,,,,,,,,,,,,,,,399.197,400.446,l,1,0.579,,[],[],[],[],[],[],[],0.579,1,400.446,400.945,,,,,,15,FEM,DIS,150,cama,el,a,,,400.947,400.948,0.145,-0.08,0,0,0,,0,173,173,14,1,,,,
,,,,,,3197a726c117721867d8f4dc,66a626ef09d4e21e1a8894ec,6735ef7b278c1de90a3baea9,2024-11-14_13h39.47.006,Tarea de género gramatical,2024.2.2,Win32,59.95203837,,,,,,,,,,,,,,,,,,,,,,400.948,402.246,l,1,0.622,,[],[],[],[],[],[],[],0.622,1,402.246,402.745,,,,,,207,FEM,DIS,150,playa,el,a,,,402.745,402.745,0.145,-0.08,0,0,0,,0,174,174,206,1,,,,
,,,,,,3197a726c117721867d8f4dc,66a626ef09d4e21e1a8894ec,6735ef7b278c1de90a3baea9,2024-11-14_13h39.47.006,Tarea de género gramatical,2024.2.2,Win32,59.95203837,,,,,,,,,,,,,,,,,,,,,,402.747,403.729,a,1,0.3,,[],[],[],[],[],[],[],0.3,1,403.729,404.23,,,,,,72,MAS,DIS,150,hoyo,la,l,,,404.231,404.231,0.145,-0.08,0,0,0,,0,175,175,71,1,,,,
,,,,,,3197a726c117721867d8f4dc,66a626ef09d4e21e1a8894ec,6735ef7b278c1de90a3baea9,2024-11-14_13h39.47.006,Tarea de género gramatical,2024.2.2,Win32,59.95203837,,,,,,,,,,,,,,,,,,,,,,404.234,405.229,a,1,0.317,,[],[],[],[],[],[],[],0.317,1,405.23,405.729,,,,,,364,MAS,AGR,150,viento,el,l,,,405.729,405.729,0.145,-0.08,0,0,0,,0,176,176,363,1,,,,
,,,,,,3197a726c117721867d8f4dc,66a626ef09d4e21e1a8894ec,6735ef7b278c1de90a3baea9,2024-11-14_13h39.47.006,Tarea de género gramatical,2024.2.2,Win32,59.95203837,,,,,,,,,,,,,,,,,,,,,,405.73,406.729,l,1,0.322,,[],[],[],[],[],[],[],0.322,1,406.729,407.23,,,,,,356,FEM,CON,150,piedra,,a,,,407.231,407.232,0.145,-0.08,0,0,0,,0,177,177,355,1,,,,
,,,,,,3197a726c117721867d8f4dc,66a626ef09d4e21e1a8894ec,6735ef7b278c1de90a3baea9,2024-11-14_13h39.47.006,Tarea de género gramatical,2024.2.2,Win32,59.95203837,,,,,,,,,,,,,,,,,,,,,,407.233,408.262,a,1,0.351,,[],[],[],[],[],[],[],0.351,1,408.263,408.762,,,,,,419,MAS,CON,150,cuento,,l,,,408.762,408.763,0.145,-0.08,0,0,0,,0,178,178,418,1,,,,
,,,,,,3197a726c117721867d8f4dc,66a626ef09d4e21e1a8894ec,6735ef7b278c1de90a3baea9,2024-11-14_13h39.47.006,Tarea de género gramatical,2024.2.2,Win32,59.95203837,,,,,,,,,,,,,,,,,,,,,,408.764,409.779,l,1,0.334,,[],[],[],[],[],[],[],0.334,1,409.78,410.279,,,,,,19,FEM,AGR,150,niña,la,a,,,410.279,410.279,0.145,-0.08,0,0,0,,0,179,179,18,1,,,,
,,,,,,3197a726c117721867d8f4dc,66a626ef09d4e21e1a8894ec,6735ef7b278c1de90a3baea9,2024-11-14_13h39.47.006,Tarea de género gramatical,2024.2.2,Win32,59.95203837,,,,,,,,,,,,,,,,,,,,,,410.28,411.245,l,1,0.292,,[],[],[],[],[],[],[],0.292,1,411.245,411.746,,,,,,301,FEM,AGR,150,verdad,la,a,,,411.746,411.746,0.145,-0.08,0,0,0,,0,180,180,300,1,,,,
,,,,,,3197a726c117721867d8f4dc,66a626ef09d4e21e1a8894ec,6735ef7b278c1de90a3baea9,2024-11-14_13h39.47.006,Tarea de género gramatical,2024.2.2,Win32,59.95203837,,,,,,,,,,,,,,,,,,,,,,411.747,412.928,l,1,0.508,,[],[],[],[],[],[],[],0.508,1,412.929,413.429,,,,,,435,FEM,DIS,150,niebla,el,a,,,413.429,413.429,0.145,-0.08,0,0,0,,0,181,181,434,1,,,,
,,,,,,3197a726c117721867d8f4dc,66a626ef09d4e21e1a8894ec,6735ef7b278c1de90a3baea9,2024-11-14_13h39.47.006,Tarea de género gramatical,2024.2.2,Win32,59.95203837,,,,,,,,,,,,,,,,,,,,,,413.43,414.496,l,1,0.384,,[],[],[],[],[],[],[],0.384,1,414.496,414.995,,,,,,169,FEM,AGR,150,vista,la,a,,,414.996,414.997,0.145,-0.08,0,0,0,,0,182,182,168,1,,,,
,,,,,,3197a726c117721867d8f4dc,66a626ef09d4e21e1a8894ec,6735ef7b278c1de90a3baea9,2024-11-14_13h39.47.006,Tarea de género gramatical,2024.2.2,Win32,59.95203837,,,,,,,,,,,,,,,,,,,,,,414.999,416.112,a,1,0.435,,[],[],[],[],[],[],[],0.435,1,416.112,416.612,,,,,,365,MAS,CON,150,código,,l,,,416.612,416.613,0.145,-0.08,0,0,0,,0,183,183,364,1,,,,
,,,,,,3197a726c117721867d8f4dc,66a626ef09d4e21e1a8894ec,6735ef7b278c1de90a3baea9,2024-11-14_13h39.47.006,Tarea de género gramatical,2024.2.2,Win32,59.95203837,,,,,,,,,,,,,,,,,,,,,,416.615,417.878,a,1,0.596,,[],[],[],[],[],[],[],0.596,1,417.879,418.379,,,,,,269,MAS,CON,150,primo,,l,,,418.379,418.379,0.145,-0.08,0,0,0,,0,184,184,268,1,,,,
,,,,,,3197a726c117721867d8f4dc,66a626ef09d4e21e1a8894ec,6735ef7b278c1de90a3baea9,2024-11-14_13h39.47.006,Tarea de género gramatical,2024.2.2,Win32,59.95203837,,,,,,,,,,,,,,,,,,,,,,418.38,419.412,a,1,0.351,,[],[],[],[],[],[],[],0.351,1,419.412,419.912,,,,,,11,MAS,CON,150,país,,l,,,419.912,419.912,0.145,-0.08,0,0,0,,0,185,185,10,1,,,,
,,,,,,3197a726c117721867d8f4dc,66a626ef09d4e21e1a8894ec,6735ef7b278c1de90a3baea9,2024-11-14_13h39.47.006,Tarea de género gramatical,2024.2.2,Win32,59.95203837,,,,,,,,,,,,,,,,,,,,,,419.914,420.912,l,1,0.323,,[],[],[],[],[],[],[],0.323,1,420.913,421.412,,,,,,314,FEM,CON,150,señora,,a,,,421.414,421.415,0.145,-0.08,0,0,0,,0,186,186,313,1,,,,
,,,,,,3197a726c117721867d8f4dc,66a626ef09d4e21e1a8894ec,6735ef7b278c1de90a3baea9,2024-11-14_13h39.47.006,Tarea de género gramatical,2024.2.2,Win32,59.95203837,,,,,,,,,,,,,,,,,,,,,,421.416,422.446,a,1,0.351,,[],[],[],[],[],[],[],0.351,1,422.446,422.945,,,,,,4,MAS,AGR,150,hijo,el,l,,,422.945,422.946,0.145,-0.08,0,0,0,,0,187,187,3,1,,,,
,,,,,,3197a726c117721867d8f4dc,66a626ef09d4e21e1a8894ec,6735ef7b278c1de90a3baea9,2024-11-14_13h39.47.006,Tarea de género gramatical,2024.2.2,Win32,59.95203837,,,,,,,,,,,,,,,,,,,,,,422.947,424.063,l,1,0.435,,[],[],[],[],[],[],[],0.435,1,424.063,424.562,,,,,,422,FEM,CON,150,rutina,,a,,,424.562,424.562,0.145,-0.08,0,0,0,,0,188,188,421,1,,,,
,,,,,,3197a726c117721867d8f4dc,66a626ef09d4e21e1a8894ec,6735ef7b278c1de90a3baea9,2024-11-14_13h39.47.006,Tarea de género gramatical,2024.2.2,Win32,59.95203837,,,,,,,,,,,,,,,,,,,,,,424.563,425.762,l,1,0.52,,[],[],[],[],[],[],[],0.52,1,425.762,426.262,,,,,,350,FEM,CON,150,imagen,,a,,,426.262,426.262,0.145,-0.08,0,0,0,,0,189,189,349,1,,,,
,,,,,,3197a726c117721867d8f4dc,66a626ef09d4e21e1a8894ec,6735ef7b278c1de90a3baea9,2024-11-14_13h39.47.006,Tarea de género gramatical,2024.2.2,Win32,59.95203837,,,,,,,,,,,,,,,,,,,,,,426.264,427.745,a,1,0.811,,[],[],[],[],[],[],[],0.811,1,427.745,428.245,,,,,,66,MAS,DIS,150,muro,la,l,,,428.245,428.245,0.145,-0.08,0,0,0,,0,190,190,65,1,,,,
,,,,,,3197a726c117721867d8f4dc,66a626ef09d4e21e1a8894ec,6735ef7b278c1de90a3baea9,2024-11-14_13h39.47.006,Tarea de género gramatical,2024.2.2,Win32,59.95203837,,,,,,,,,,,,,,,,,,,,,,428.246,429.378,a,1,0.476,,[],[],[],[],[],[],[],0.476,1,429.379,429.879,,,,,,354,MAS,DIS,150,camión,la,l,,,429.88,429.881,0.145,-0.08,0,0,0,,0,191,191,353,1,,,,
,,,,,,3197a726c117721867d8f4dc,66a626ef09d4e21e1a8894ec,6735ef7b278c1de90a3baea9,2024-11-14_13h39.47.006,Tarea de género gramatical,2024.2.2,Win32,59.95203837,,,,,,,,,,,,,,,,,,,,,,429.881,431.695,l,1,1.147,,[],[],[],[],[],[],[],1.147,1,431.695,432.195,,,,,,381,FEM,DIS,150,bebida,el,a,,,432.195,432.195,0.145,-0.08,0,0,0,,0,192,192,380,1,,,,
,,,,,,3197a726c117721867d8f4dc,66a626ef09d4e21e1a8894ec,6735ef7b278c1de90a3baea9,2024-11-14_13h39.47.006,Tarea de género gramatical,2024.2.2,Win32,59.95203837,,,,,,,,,,,,,,,,,,,,,,432.197,433.362,l,1,0.493,,[],[],[],[],[],[],[],0.493,1,433.362,433.862,,,,,,399,FEM,DIS,150,charla,el,a,,,433.862,433.863,0.145,-0.08,0,0,0,,0,193,193,398,1,,,,
,,,,,,3197a726c117721867d8f4dc,66a626ef09d4e21e1a8894ec,6735ef7b278c1de90a3baea9,2024-11-14_13h39.47.006,Tarea de género gramatical,2024.2.2,Win32,59.95203837,,,,,,,,,,,,,,,,,,,,,,433.864,434.796,l,0,0.254,,[],[],[],[],[],[],[],0.254,0,434.796,435.295,,,,,,402,MAS,DIS,150,ladrón,la,l,,,435.295,435.295,0.145,-0.08,0,0,0,,0,194,194,401,1,,,,
,,,,,,3197a726c117721867d8f4dc,66a626ef09d4e21e1a8894ec,6735ef7b278c1de90a3baea9,2024-11-14_13h39.47.006,Tarea de género gramatical,2024.2.2,Win32,59.95203837,,,,,,,,,,,,,,,,,,,,,,435.296,436.796,l,1,0.83,,[],[],[],[],[],[],[],0.83,1,436.797,437.295,,,,,,135,FEM,DIS,150,raíz,el,a,,,437.297,437.298,0.145,-0.08,0,0,0,,0,195,195,134,1,,,,
,,,,,,3197a726c117721867d8f4dc,66a626ef09d4e21e1a8894ec,6735ef7b278c1de90a3baea9,2024-11-14_13h39.47.006,Tarea de género gramatical,2024.2.2,Win32,59.95203837,,,,,,,,,,,,,,,,,,,,,,437.299,438.412,a,1,0.437,,[],[],[],[],[],[],[],0.437,1,438.413,438.912,,,,,,22,MAS,AGR,150,pelo,el,l,,,438.912,438.912,0.145,-0.08,0,0,0,,0,196,196,21,1,,,,
,,,,,,3197a726c117721867d8f4dc,66a626ef09d4e21e1a8894ec,6735ef7b278c1de90a3baea9,2024-11-14_13h39.47.006,Tarea de género gramatical,2024.2.2,Win32,59.95203837,,,,,,,,,,,,,,,,,,,,,,438.915,439.928,a,1,0.332,,[],[],[],[],[],[],[],0.332,1,439.929,440.429,,,,,,238,MAS,AGR,150,norte,el,l,,,440.429,440.429,0.145,-0.08,0,0,0,,0,197,197,237,1,,,,
,,,,,,3197a726c117721867d8f4dc,66a626ef09d4e21e1a8894ec,6735ef7b278c1de90a3baea9,2024-11-14_13h39.47.006,Tarea de género gramatical,2024.2.2,Win32,59.95203837,,,,,,,,,,,,,,,,,,,,,,440.43,441.579,l,1,0.467,,[],[],[],[],[],[],[],0.467,1,441.58,442.079,,,,,,415,FEM,AGR,150,cabina,la,a,,,442.079,442.079,0.145,-0.08,0,0,0,,0,198,198,414,1,,,,
,,,,,,3197a726c117721867d8f4dc,66a626ef09d4e21e1a8894ec,6735ef7b278c1de90a3baea9,2024-11-14_13h39.47.006,Tarea de género gramatical,2024.2.2,Win32,59.95203837,,,,,,,,,,,,,,,,,,,,,,442.081,443.595,a,1,0.857,,[],[],[],[],[],[],[],0.857,1,443.596,444.095,,,,,,431,MAS,CON,150,veneno,,l,,,444.095,444.095,0.145,-0.08,0,0,0,,0,199,199,430,1,,,,
,,,,,,3197a726c117721867d8f4dc,66a626ef09d4e21e1a8894ec,6735ef7b278c1de90a3baea9,2024-11-14_13h39.47.006,Tarea de género gramatical,2024.2.2,Win32,59.95203837,,,,,,,,,,,,,,,,,,,,,,444.097,445.412,a,1,0.646,,[],[],[],[],[],[],[],0.646,1,445.412,445.911,,,,,,48,MAS,DIS,150,loco,la,l,,,445.913,445.915,0.145,-0.08,0,0,0,,0,200,200,47,1,,,,
,,,,,,3197a726c117721867d8f4dc,66a626ef09d4e21e1a8894ec,6735ef7b278c1de90a3baea9,2024-11-14_13h39.47.006,Tarea de género gramatical,2024.2.2,Win32,59.95203837,,,,,,,,,,,,,,,,,,,,,,445.916,446.978,a,1,0.384,,[],[],[],[],[],[],[],0.384,1,446.979,447.478,,,,,,82,MAS,AGR,150,tubo,el,l,,,447.479,447.479,0.145,-0.08,0,0,0,,0,201,201,81,1,,,,
,,,,,,3197a726c117721867d8f4dc,66a626ef09d4e21e1a8894ec,6735ef7b278c1de90a3baea9,2024-11-14_13h39.47.006,Tarea de género gramatical,2024.2.2,Win32,59.95203837,,,,,,,,,,,,,,,,,,,,,,447.48,448.712,a,1,0.552,,[],[],[],[],[],[],[],0.552,1,448.712,449.212,,,,,,96,MAS,DIS,150,pato,la,l,,,449.212,449.212,0.145,-0.08,0,0,0,,0,202,202,95,1,,,,
,,,,,,3197a726c117721867d8f4dc,66a626ef09d4e21e1a8894ec,6735ef7b278c1de90a3baea9,2024-11-14_13h39.47.006,Tarea de género gramatical,2024.2.2,Win32,59.95203837,,,,,,,,,,,,,,,,,,,,,,449.214,450.329,a,1,0.433,,[],[],[],[],[],[],[],0.433,1,450.329,450.829,,,,,,432,MAS,DIS,150,océano,la,l,,,450.829,450.829,0.145,-0.08,0,0,0,,0,203,203,431,1,,,,
,,,,,,3197a726c117721867d8f4dc,66a626ef09d4e21e1a8894ec,6735ef7b278c1de90a3baea9,2024-11-14_13h39.47.006,Tarea de género gramatical,2024.2.2,Win32,59.95203837,,,,,,,,,,,,,,,,,,,,,,450.83,451.778,l,1,0.269,,[],[],[],[],[],[],[],0.269,1,451.778,452.279,,,,,,7,FEM,AGR,150,hora,la,a,,,452.28,452.281,0.145,-0.08,0,0,0,,0,204,204,6,1,,,,
,,,,,,3197a726c117721867d8f4dc,66a626ef09d4e21e1a8894ec,6735ef7b278c1de90a3baea9,2024-11-14_13h39.47.006,Tarea de género gramatical,2024.2.2,Win32,59.95203837,,,,,,,,,,,,,,,,,,,,,,452.282,453.346,a,1,0.384,,[],[],[],[],[],[],[],0.384,1,453.346,453.846,,,,,,59,MAS,CON,150,lobo,,l,,,453.846,453.846,0.145,-0.08,0,0,0,,0,205,205,58,1,,,,
,,,,,,3197a726c117721867d8f4dc,66a626ef09d4e21e1a8894ec,6735ef7b278c1de90a3baea9,2024-11-14_13h39.47.006,Tarea de género gramatical,2024.2.2,Win32,59.95203837,,,,,,,,,,,,,,,,,,,,,,453.847,454.795,a,1,0.268,,[],[],[],[],[],[],[],0.268,1,454.795,455.295,,,,,,358,MAS,AGR,150,motivo,el,l,,,455.295,455.296,0.145,-0.08,0,0,0,,0,206,206,357,1,,,,
,,,,,,3197a726c117721867d8f4dc,66a626ef09d4e21e1a8894ec,6735ef7b278c1de90a3baea9,2024-11-14_13h39.47.006,Tarea de género gramatical,2024.2.2,Win32,59.95203837,,,,,,,,,,,,,,,,,,,,,,455.297,456.212,l,1,0.242,,[],[],[],[],[],[],[],0.242,1,456.212,456.712,,,,,,182,FEM,CON,150,prisa,,a,,,456.713,456.713,0.145,-0.08,0,0,0,,0,207,207,181,1,,,,
,,,,,,3197a726c117721867d8f4dc,66a626ef09d4e21e1a8894ec,6735ef7b278c1de90a3baea9,2024-11-14_13h39.47.006,Tarea de género gramatical,2024.2.2,Win32,59.95203837,,,,,,,,,,,,,,,,,,,,,,456.714,457.878,a,1,0.484,,[],[],[],[],[],[],[],0.484,1,457.878,458.379,,,,,,304,MAS,AGR,150,tiempo,el,l,,,458.379,458.379,0.145,-0.08,0,0,0,,0,208,208,303,1,,,,
,,,,,,3197a726c117721867d8f4dc,66a626ef09d4e21e1a8894ec,6735ef7b278c1de90a3baea9,2024-11-14_13h39.47.006,Tarea de género gramatical,2024.2.2,Win32,59.95203837,,,,,,,,,,,,,,,,,,,,,,458.38,459.412,a,1,0.35,,[],[],[],[],[],[],[],0.35,1,459.412,459.912,,,,,,347,MAS,CON,150,cuello,,l,,,459.913,459.914,0.145,-0.08,0,0,0,,0,209,209,346,1,,,,
,,,,,,3197a726c117721867d8f4dc,66a626ef09d4e21e1a8894ec,6735ef7b278c1de90a3baea9,2024-11-14_13h39.47.006,Tarea de género gramatical,2024.2.2,Win32,59.95203837,,,,,,,,,,,,,,,,,,,,,,459.914,460.895,l,1,0.308,,[],[],[],[],[],[],[],0.308,1,460.895,461.395,,,,,,440,FEM,CON,150,patada,,a,,,461.395,461.396,0.145,-0.08,0,0,0,,0,210,210,439,1,,,,
,,,,,,3197a726c117721867d8f4dc,66a626ef09d4e21e1a8894ec,6735ef7b278c1de90a3baea9,2024-11-14_13h39.47.006,Tarea de género gramatical,2024.2.2,Win32,59.95203837,,,,,,,,,,,,,,,,,,,,,,461.397,462.528,l,1,0.453,,[],[],[],[],[],[],[],0.453,1,462.529,463.03,,,,,,265,FEM,AGR,150,rueda,la,a,,,463.03,463.03,0.145,-0.08,0,0,0,,0,211,211,264,1,,,,
,,,,,,3197a726c117721867d8f4dc,66a626ef09d4e21e1a8894ec,6735ef7b278c1de90a3baea9,2024-11-14_13h39.47.006,Tarea de género gramatical,2024.2.2,Win32,59.95203837,,,,,,,,,,,,,,,,,,,,,,463.032,463.928,a,1,0.216,,[],[],[],[],[],[],[],0.216,1,463.928,464.428,,,,,,246,MAS,DIS,150,humor,la,l,,,464.428,464.428,0.145,-0.08,0,0,0,,0,212,212,245,1,,,,
,,,,,,3197a726c117721867d8f4dc,66a626ef09d4e21e1a8894ec,6735ef7b278c1de90a3baea9,2024-11-14_13h39.47.006,Tarea de género gramatical,2024.2.2,Win32,59.95203837,,,,,,,,,,,,,,,,,,,,,,464.43,465.378,a,1,0.284,,[],[],[],[],[],[],[],0.284,1,465.379,465.878,,,,,,210,MAS,DIS,150,baile,la,l,,,465.879,465.88,0.145,-0.08,0,0,0,,0,213,213,209,1,,,,
,,,,,,3197a726c117721867d8f4dc,66a626ef09d4e21e1a8894ec,6735ef7b278c1de90a3baea9,2024-11-14_13h39.47.006,Tarea de género gramatical,2024.2.2,Win32,59.95203837,,,,,,,,,,,,,,,,,,,,,,465.88,466.895,l,1,0.334,,[],[],[],[],[],[],[],0.334,1,466.896,467.395,,,,,,368,FEM,CON,150,gracia,,a,,,467.395,467.395,0.145,-0.08,0,0,0,,0,214,214,367,1,,,,
,,,,,,3197a726c117721867d8f4dc,66a626ef09d4e21e1a8894ec,6735ef7b278c1de90a3baea9,2024-11-14_13h39.47.006,Tarea de género gramatical,2024.2.2,Win32,59.95203837,,,,,,,,,,,,,,,,,,,,,,467.397,468.494,l,1,0.428,,[],[],[],[],[],[],[],0.428,1,468.494,468.995,,,,,,199,FEM,AGR,150,nariz,la,a,,,468.995,468.995,0.145,-0.08,0,0,0,,0,215,215,198,1,,,,
,,,,,,3197a726c117721867d8f4dc,66a626ef09d4e21e1a8894ec,6735ef7b278c1de90a3baea9,2024-11-14_13h39.47.006,Tarea de género gramatical,2024.2.2,Win32,59.95203837,,,,,,,,,,,,,,,,,,,,,,468.996,470.212,l,1,0.535,,[],[],[],[],[],[],[],0.535,1,470.212,470.713,,,,,,433,FEM,AGR,150,huella,la,a,,,470.713,470.713,0.145,-0.08,0,0,0,,0,216,216,432,1,,,,
,,,,,,3197a726c117721867d8f4dc,66a626ef09d4e21e1a8894ec,6735ef7b278c1de90a3baea9,2024-11-14_13h39.47.006,Tarea de género gramatical,2024.2.2,Win32,59.95203837,,,,,,,,,,,,,,,,,,,,,,470.716,471.812,a,1,0.42,,[],[],[],[],[],[],[],0.42,1,471.813,472.312,,,,,,275,MAS,CON,150,disco,,l,,,472.312,472.312,0.145,-0.08,0,0,0,,0,217,217,274,1,,,,
,,,,,,3197a726c117721867d8f4dc,66a626ef09d4e21e1a8894ec,6735ef7b278c1de90a3baea9,2024-11-14_13h39.47.006,Tarea de género gramatical,2024.2.2,Win32,59.95203837,,,,,,,,,,,,,,,,,,,,,,472.313,473.362,l,1,0.374,,[],[],[],[],[],[],[],0.374,1,473.362,473.862,,,,,,230,FEM,CON,150,regla,,a,,,473.863,473.864,0.145,-0.08,0,0,0,,0,218,218,229,1,,,,
,,,,,,3197a726c117721867d8f4dc,66a626ef09d4e21e1a8894ec,6735ef7b278c1de90a3baea9,2024-11-14_13h39.47.006,Tarea de género gramatical,2024.2.2,Win32,59.95203837,,,,,,,,,,,,,,,,,,,,,,473.864,475.011,l,1,0.47,,[],[],[],[],[],[],[],0.47,1,475.013,475.512,,,,,,259,FEM,AGR,150,prima,la,a,,,475.512,475.512,0.145,-0.08,0,0,0,,0,219,219,258,1,,,,
,,,,,,3197a726c117721867d8f4dc,66a626ef09d4e21e1a8894ec,6735ef7b278c1de90a3baea9,2024-11-14_13h39.47.006,Tarea de género gramatical,2024.2.2,Win32,59.95203837,,,,,,,,,,,,,,,,,,,,,,475.513,476.712,a,1,0.519,,[],[],[],[],[],[],[],0.519,1,476.712,477.211,,,,,,262,MAS,AGR,150,video,el,l,,,477.212,477.212,0.145,-0.08,0,0,0,,0,220,220,261,1,,,,
,,,,,,3197a726c117721867d8f4dc,66a626ef09d4e21e1a8894ec,6735ef7b278c1de90a3baea9,2024-11-14_13h39.47.006,Tarea de género gramatical,2024.2.2,Win32,59.95203837,,,,,,,,,,,,,,,,,,,,,,477.213,478.228,l,0,0.334,,[],[],[],[],[],[],[],0.334,0,478.229,478.728,,,,,,34,MAS,AGR,150,gato,el,l,,,478.728,478.728,0.145,-0.08,0,0,0,,0,221,221,33,1,,,,
,,,,,,3197a726c117721867d8f4dc,66a626ef09d4e21e1a8894ec,6735ef7b278c1de90a3baea9,2024-11-14_13h39.47.006,Tarea de género gramatical,2024.2.2,Win32,59.95203837,,,,,,,,,,,,,,,,,,,,,,478.729,479.978,a,1,0.576,,[],[],[],[],[],[],[],0.576,1,479.979,480.479,,,,,,77,MAS,CON,150,pico,,l,,,480.48,480.481,0.145,-0.08,0,0,0,,0,222,222,76,1,,,,
,,,,,,3197a726c117721867d8f4dc,66a626ef09d4e21e1a8894ec,6735ef7b278c1de90a3baea9,2024-11-14_13h39.47.006,Tarea de género gramatical,2024.2.2,Win32,59.95203837,,,,,,,,,,,,,,,,,,,,,,480.482,481.712,a,1,0.558,,[],[],[],[],[],[],[],0.558,1,481.712,482.213,,,,,,76,MAS,AGR,150,lujo,el,l,,,482.213,482.213,0.145,-0.08,0,0,0,,0,223,223,75,1,,,,
,,,,,,3197a726c117721867d8f4dc,66a626ef09d4e21e1a8894ec,6735ef7b278c1de90a3baea9,2024-11-14_13h39.47.006,Tarea de género gramatical,2024.2.2,Win32,59.95203837,,,,,,,,,,,,,,,,,,,,,,482.214,483.278,l,1,0.394,,[],[],[],[],[],[],[],0.394,1,483.279,483.778,,,,,,164,FEM,CON,150,novia,,a,,,483.778,483.778,0.145,-0.08,0,0,0,,0,224,224,163,1,,,,
,,,,,,3197a726c117721867d8f4dc,66a626ef09d4e21e1a8894ec,6735ef7b278c1de90a3baea9,2024-11-14_13h39.47.006,Tarea de género gramatical,2024.2.2,Win32,59.95203837,,,,,,,,,,,,,,,,,,,,,,483.779,484.861,a,1,0.412,,[],[],[],[],[],[],[],0.412,1,484.861,485.362,,,,,,274,MAS,AGR,150,motor,el,l,,,485.362,485.362,0.145,-0.08,0,0,0,,0,225,225,273,1,,,,
,,,,,,3197a726c117721867d8f4dc,66a626ef09d4e21e1a8894ec,6735ef7b278c1de90a3baea9,2024-11-14_13h39.47.006,Tarea de género gramatical,2024.2.2,Win32,59.95203837,,,,,,,,,,,,,,,,,,,,,,485.362,486.677,a,1,0.656,,[],[],[],[],[],[],[],0.656,1,486.678,487.178,,,,,,378,MAS,DIS,150,pastel,la,l,,,487.178,487.178,0.145,-0.08,0,0,0,,0,226,226,377,1,,,,
,,,,,,3197a726c117721867d8f4dc,66a626ef09d4e21e1a8894ec,6735ef7b278c1de90a3baea9,2024-11-14_13h39.47.006,Tarea de género gramatical,2024.2.2,Win32,59.95203837,,,,,,,,,,,,,,,,,,,,,,487.18,488.312,a,1,0.452,,[],[],[],[],[],[],[],0.452,1,488.312,488.812,,,,,,107,MAS,CON,150,cubo,,l,,,488.813,488.814,0.145,-0.08,0,0,0,,0,227,227,106,1,,,,
,,,,,,3197a726c117721867d8f4dc,66a626ef09d4e21e1a8894ec,6735ef7b278c1de90a3baea9,2024-11-14_13h39.47.006,Tarea de género gramatical,2024.2.2,Win32,59.95203837,,,,,,,,,,,,,,,,,,,,,,488.814,489.828,l,1,0.336,,[],[],[],[],[],[],[],0.336,1,489.828,490.328,,,,,,302,FEM,CON,150,cabeza,,a,,,490.328,490.328,0.145,-0.08,0,0,0,,0,228,228,301,1,,,,
,,,,,,3197a726c117721867d8f4dc,66a626ef09d4e21e1a8894ec,6735ef7b278c1de90a3baea9,2024-11-14_13h39.47.006,Tarea de género gramatical,2024.2.2,Win32,59.95203837,,,,,,,,,,,,,,,,,,,,,,490.329,491.561,l,1,0.556,,[],[],[],[],[],[],[],0.556,1,491.562,492.062,,,,,,87,FEM,DIS,150,risa,el,a,,,492.062,492.062,0.145,-0.08,0,0,0,,0,229,229,86,1,,,,
,,,,,,3197a726c117721867d8f4dc,66a626ef09d4e21e1a8894ec,6735ef7b278c1de90a3baea9,2024-11-14_13h39.47.006,Tarea de género gramatical,2024.2.2,Win32,59.95203837,,,,,,,,,,,,,,,,,,,,,,492.063,493.129,a,1,0.384,,[],[],[],[],[],[],[],0.384,1,493.129,493.628,,,,,,300,MAS,DIS,150,túnel,la,l,,,493.629,493.629,0.145,-0.08,0,0,0,,0,230,230,299,1,,,,
,,,,,,3197a726c117721867d8f4dc,66a626ef09d4e21e1a8894ec,6735ef7b278c1de90a3baea9,2024-11-14_13h39.47.006,Tarea de género gramatical,2024.2.2,Win32,59.95203837,,,,,,,,,,,,,,,,,,,,,,493.629,494.594,a,1,0.283,,[],[],[],[],[],[],[],0.283,1,494.594,495.095,,,,,,287,MAS,CON,150,plato,,l,,,495.096,495.097,0.145,-0.08,0,0,0,,0,231,231,286,1,,,,
,,,,,,3197a726c117721867d8f4dc,66a626ef09d4e21e1a8894ec,6735ef7b278c1de90a3baea9,2024-11-14_13h39.47.006,Tarea de género gramatical,2024.2.2,Win32,59.95203837,,,,,,,,,,,,,,,,,,,,,,495.097,496.094,a,1,0.324,,[],[],[],[],[],[],[],0.324,1,496.096,496.595,,,,,,239,MAS,CON,150,reloj,,l,,,496.595,496.595,0.145,-0.08,0,0,0,,0,232,232,238,1,,,,
,,,,,,3197a726c117721867d8f4dc,66a626ef09d4e21e1a8894ec,6735ef7b278c1de90a3baea9,2024-11-14_13h39.47.006,Tarea de género gramatical,2024.2.2,Win32,59.95203837,,,,,,,,,,,,,,,,,,,,,,496.596,497.511,l,1,0.235,,[],[],[],[],[],[],[],0.235,1,497.511,498.012,,,,,,303,FEM,DIS,150,maldad,el,a,,,498.012,498.012,0.145,-0.08,0,0,0,,0,233,233,302,1,,,,
,,,,,,3197a726c117721867d8f4dc,66a626ef09d4e21e1a8894ec,6735ef7b278c1de90a3baea9,2024-11-14_13h39.47.006,Tarea de género gramatical,2024.2.2,Win32,59.95203837,,,,,,,,,,,,,,,,,,,,,,498.013,499.145,a,1,0.449,,[],[],[],[],[],[],[],0.449,1,499.145,499.645,,,,,,167,MAS,CON,150,juego,,l,,,499.645,499.645,0.145,-0.08,0,0,0,,0,234,234,166,1,,,,
,,,,,,3197a726c117721867d8f4dc,66a626ef09d4e21e1a8894ec,6735ef7b278c1de90a3baea9,2024-11-14_13h39.47.006,Tarea de género gramatical,2024.2.2,Win32,59.95203837,,,,,,,,,,,,,,,,,,,,,,499.646,500.928,a,1,0.601,,[],[],[],[],[],[],[],0.601,1,500.929,501.428,,,,,,24,MAS,DIS,150,voto,la,l,,,501.428,501.428,0.145,-0.08,0,0,0,,0,235,235,23,1,,,,
,,,,,,3197a726c117721867d8f4dc,66a626ef09d4e21e1a8894ec,6735ef7b278c1de90a3baea9,2024-11-14_13h39.47.006,Tarea de género gramatical,2024.2.2,Win32,59.95203837,,,,,,,,,,,,,,,,,,,,,,501.429,502.545,a,1,0.436,,[],[],[],[],[],[],[],0.436,1,502.545,503.045,,,,,,418,MAS,AGR,150,pájaro,el,l,,,503.046,503.046,0.145,-0.08,0,0,0,,0,236,236,417,1,,,,
,,,,,,3197a726c117721867d8f4dc,66a626ef09d4e21e1a8894ec,6735ef7b278c1de90a3baea9,2024-11-14_13h39.47.006,Tarea de género gramatical,2024.2.2,Win32,59.95203837,,,,,,,,,,,,,,,,,,,,,,503.047,504.012,a,1,0.293,,[],[],[],[],[],[],[],0.293,1,504.013,504.512,,,,,,136,MAS,AGR,150,vago,el,l,,,504.512,504.513,0.145,-0.08,0,0,0,,0,237,237,135,1,,,,
,,,,,,3197a726c117721867d8f4dc,66a626ef09d4e21e1a8894ec,6735ef7b278c1de90a3baea9,2024-11-14_13h39.47.006,Tarea de género gramatical,2024.2.2,Win32,59.95203837,,,,,,,,,,,,,,,,,,,,,,504.516,505.511,a,1,0.318,,[],[],[],[],[],[],[],0.318,1,505.512,506.011,,,,,,448,MAS,AGR,150,aceite,el,l,,,506.011,506.011,0.145,-0.08,0,0,0,,0,238,238,447,1,,,,
,,,,,,3197a726c117721867d8f4dc,66a626ef09d4e21e1a8894ec,6735ef7b278c1de90a3baea9,2024-11-14_13h39.47.006,Tarea de género gramatical,2024.2.2,Win32,59.95203837,,,,,,,,,,,,,,,,,,,,,,506.013,507.028,l,1,0.333,,[],[],[],[],[],[],[],0.333,1,507.028,507.528,,,,,,104,FEM,CON,150,vela,,a,,,507.528,507.528,0.145,-0.08,0,0,0,,0,239,239,103,1,,,,
,,,,,,3197a726c117721867d8f4dc,66a626ef09d4e21e1a8894ec,6735ef7b278c1de90a3baea9,2024-11-14_13h39.47.006,Tarea de género gramatical,2024.2.2,Win32,59.95203837,,,,,,,,,,,,,,,,,,,,,,507.53,508.495,a,0,0.297,,[],[],[],[],[],[],[],0.297,0,508.497,508.994,,,,,,177,FEM,DIS,150,broma,el,a,,,508.995,508.997,0.145,-0.08,0,0,0,,0,240,240,176,1,,,,
,,,,,,3197a726c117721867d8f4dc,66a626ef09d4e21e1a8894ec,6735ef7b278c1de90a3baea9,2024-11-14_13h39.47.006,Tarea de género gramatical,2024.2.2,Win32,59.95203837,,,,,,,,,,,,,,,,,,,,,,508.998,510.011,a,0,0.343,,[],[],[],[],[],[],[],0.343,0,510.011,510.511,,,,,,428,FEM,CON,150,jugada,,a,,,510.512,510.512,0.145,-0.08,0,0,0,,0,241,241,427,1,,,,
,,,,,,3197a726c117721867d8f4dc,66a626ef09d4e21e1a8894ec,6735ef7b278c1de90a3baea9,2024-11-14_13h39.47.006,Tarea de género gramatical,2024.2.2,Win32,59.95203837,,,,,,,,,,,,,,,,,,,,,,510.513,511.712,l,1,0.516,,[],[],[],[],[],[],[],0.516,1,511.712,512.211,,,,,,367,FEM,AGR,150,teoría,la,a,,,512.211,512.211,0.145,-0.08,0,0,0,,0,242,242,366,1,,,,
,,,,,,3197a726c117721867d8f4dc,66a626ef09d4e21e1a8894ec,6735ef7b278c1de90a3baea9,2024-11-14_13h39.47.006,Tarea de género gramatical,2024.2.2,Win32,59.95203837,,,,,,,,,,,,,,,,,,,,,,512.213,513.411,l,1,0.522,,[],[],[],[],[],[],[],0.522,1,513.411,513.912,,,,,,81,FEM,DIS,150,cima,el,a,,,513.912,513.912,0.145,-0.08,0,0,0,,0,243,243,80,1,,,,
,,,,,,3197a726c117721867d8f4dc,66a626ef09d4e21e1a8894ec,6735ef7b278c1de90a3baea9,2024-11-14_13h39.47.006,Tarea de género gramatical,2024.2.2,Win32,59.95203837,,,,,,,,,,,,,,,,,,,,,,513.913,515.111,a,0,0.524,,[],[],[],[],[],[],[],0.524,0,515.112,515.611,,,,,,152,FEM,CON,150,gente,,a,,,515.611,515.611,0.145,-0.08,0,0,0,,0,244,244,151,1,,,,
,,,,,,3197a726c117721867d8f4dc,66a626ef09d4e21e1a8894ec,6735ef7b278c1de90a3baea9,2024-11-14_13h39.47.006,Tarea de género gramatical,2024.2.2,Win32,59.95203837,,,,,,,,,,,,,,,,,,,,,,515.612,516.661,a,1,0.373,,[],[],[],[],[],[],[],0.373,1,516.662,517.161,,,,,,6,MAS,DIS,150,lado,la,l,,,517.163,517.164,0.145,-0.08,0,0,0,,0,245,245,5,1,,,,
,,,,,,3197a726c117721867d8f4dc,66a626ef09d4e21e1a8894ec,6735ef7b278c1de90a3baea9,2024-11-14_13h39.47.006,Tarea de género gramatical,2024.2.2,Win32,59.95203837,,,,,,,,,,,,,,,,,,,,,,517.165,518.194,a,1,0.361,,[],[],[],[],[],[],[],0.361,1,518.195,518.694,,,,,,40,MAS,AGR,150,dios,el,l,,,518.694,518.694,0.145,-0.08,0,0,0,,0,246,246,39,1,,,,
,,,,,,3197a726c117721867d8f4dc,66a626ef09d4e21e1a8894ec,6735ef7b278c1de90a3baea9,2024-11-14_13h39.47.006,Tarea de género gramatical,2024.2.2,Win32,59.95203837,,,,,,,,,,,,,,,,,,,,,,518.696,519.761,l,1,0.39,,[],[],[],[],[],[],[],0.39,1,519.761,520.261,,,,,,14,FEM,CON,150,cara,,a,,,520.261,520.261,0.145,-0.08,0,0,0,,0,247,247,13,1,,,,
,,,,,,3197a726c117721867d8f4dc,66a626ef09d4e21e1a8894ec,6735ef7b278c1de90a3baea9,2024-11-14_13h39.47.006,Tarea de género gramatical,2024.2.2,Win32,59.95203837,,,,,,,,,,,,,,,,,,,,,,520.262,521.328,a,1,0.383,,[],[],[],[],[],[],[],0.383,1,521.328,521.828,,,,,,366,MAS,DIS,150,riesgo,la,l,,,521.828,521.828,0.145,-0.08,0,0,0,,0,248,248,365,1,,,,
,,,,,,3197a726c117721867d8f4dc,66a626ef09d4e21e1a8894ec,6735ef7b278c1de90a3baea9,2024-11-14_13h39.47.006,Tarea de género gramatical,2024.2.2,Win32,59.95203837,,,,,,,,,,,,,,,,,,,,,,521.829,522.86,a,1,0.356,,[],[],[],[],[],[],[],0.356,1,522.86,523.361,,,,,,216,MAS,DIS,150,éxito,la,l,,,523.362,523.363,0.145,-0.08,0,0,0,,0,249,249,215,1,,,,
,,,,,,3197a726c117721867d8f4dc,66a626ef09d4e21e1a8894ec,6735ef7b278c1de90a3baea9,2024-11-14_13h39.47.006,Tarea de género gramatical,2024.2.2,Win32,59.95203837,,,,,,,,,,,,,,,,,,,,,,523.364,524.611,l,1,0.577,,[],[],[],[],[],[],[],0.577,1,524.611,525.11,,,,,,69,FEM,DIS,150,rata,el,a,,,525.11,525.111,0.145,-0.08,0,0,0,,0,250,250,68,1,,,,
,,,,,,3197a726c117721867d8f4dc,66a626ef09d4e21e1a8894ec,6735ef7b278c1de90a3baea9,2024-11-14_13h39.47.006,Tarea de género gramatical,2024.2.2,Win32,59.95203837,,,,,,,,,,,,,,,,,,,,,,525.112,526.278,a,1,0.483,,[],[],[],[],[],[],[],0.483,1,526.278,526.778,,,,,,316,MAS,AGR,150,cuerpo,el,l,,,526.778,526.778,0.145,-0.08,0,0,0,,0,251,251,315,1,,,,
,,,,,,3197a726c117721867d8f4dc,66a626ef09d4e21e1a8894ec,6735ef7b278c1de90a3baea9,2024-11-14_13h39.47.006,Tarea de género gramatical,2024.2.2,Win32,59.95203837,,,,,,,,,,,,,,,,,,,,,,526.779,528.344,l,1,0.891,,[],[],[],[],[],[],[],0.891,1,528.344,528.844,,,,,,279,FEM,DIS,150,selva,el,a,,,528.845,528.845,0.145,-0.08,0,0,0,,0,252,252,278,1,,,,
,,,,,,3197a726c117721867d8f4dc,66a626ef09d4e21e1a8894ec,6735ef7b278c1de90a3baea9,2024-11-14_13h39.47.006,Tarea de género gramatical,2024.2.2,Win32,59.95203837,,,,,,,,,,,,,,,,,,,,,,528.846,529.944,a,1,0.416,,[],[],[],[],[],[],[],0.416,1,529.944,530.444,,,,,,401,MAS,CON,150,abrigo,,l,,,530.444,530.444,0.145,-0.08,0,0,0,,0,253,253,400,1,,,,
,,,,,,3197a726c117721867d8f4dc,66a626ef09d4e21e1a8894ec,6735ef7b278c1de90a3baea9,2024-11-14_13h39.47.006,Tarea de género gramatical,2024.2.2,Win32,59.95203837,,,,,,,,,,,,,,,,,,,,,,530.445,531.494,l,1,0.383,,[],[],[],[],[],[],[],0.383,1,531.494,531.994,,,,,,403,FEM,AGR,150,paliza,la,a,,,531.995,531.996,0.145,-0.08,0,0,0,,0,254,254,402,1,,,,
,,,,,,3197a726c117721867d8f4dc,66a626ef09d4e21e1a8894ec,6735ef7b278c1de90a3baea9,2024-11-14_13h39.47.006,Tarea de género gramatical,2024.2.2,Win32,59.95203837,,,,,,,,,,,,,,,,,,,,,,531.997,533.178,a,0,0.514,,[],[],[],[],[],[],[],0.514,0,533.178,533.677,,,,,,206,FEM,CON,150,época,,a,,,533.677,533.677,0.145,-0.08,0,0,0,,0,255,255,205,1,,,,
,,,,,,3197a726c117721867d8f4dc,66a626ef09d4e21e1a8894ec,6735ef7b278c1de90a3baea9,2024-11-14_13h39.47.006,Tarea de género gramatical,2024.2.2,Win32,59.95203837,,,,,,,,,,,,,,,,,,,,,,533.679,534.911,a,1,0.551,,[],[],[],[],[],[],[],0.551,1,534.911,535.412,,,,,,220,MAS,AGR,150,huevo,el,l,,,535.412,535.412,0.145,-0.08,0,0,0,,0,256,256,219,1,,,,
,,,,,,3197a726c117721867d8f4dc,66a626ef09d4e21e1a8894ec,6735ef7b278c1de90a3baea9,2024-11-14_13h39.47.006,Tarea de género gramatical,2024.2.2,Win32,59.95203837,,,,,,,,,,,,,,,,,,,,,,535.413,536.462,l,1,0.368,,[],[],[],[],[],[],[],0.368,1,536.462,536.961,,,,,,165,FEM,DIS,150,amiga,el,a,,,536.961,536.962,0.145,-0.08,0,0,0,,0,257,257,164,1,,,,
,,,,,,3197a726c117721867d8f4dc,66a626ef09d4e21e1a8894ec,6735ef7b278c1de90a3baea9,2024-11-14_13h39.47.006,Tarea de género gramatical,2024.2.2,Win32,59.95203837,,,,,,,,,,,,,,,,,,,,,,536.963,538.112,a,1,0.48,,[],[],[],[],[],[],[],0.48,1,538.113,538.611,,,,,,442,MAS,AGR,150,cuadro,el,l,,,538.613,538.614,0.145,-0.08,0,0,0,,0,258,258,441,1,,,,
,,,,,,3197a726c117721867d8f4dc,66a626ef09d4e21e1a8894ec,6735ef7b278c1de90a3baea9,2024-11-14_13h39.47.006,Tarea de género gramatical,2024.2.2,Win32,59.95203837,,,,,,,,,,,,,,,,,,,,,,538.615,539.894,l,1,0.612,,[],[],[],[],[],[],[],0.612,1,539.894,540.394,,,,,,405,FEM,DIS,150,parada,el,a,,,540.395,540.395,0.145,-0.08,0,0,0,,0,259,259,404,1,,,,
,,,,,,3197a726c117721867d8f4dc,66a626ef09d4e21e1a8894ec,6735ef7b278c1de90a3baea9,2024-11-14_13h39.47.006,Tarea de género gramatical,2024.2.2,Win32,59.95203837,,,,,,,,,,,,,,,,,,,,,,540.396,541.561,a,0,0.486,,[],[],[],[],[],[],[],0.486,0,541.562,542.061,,,,,,337,FEM,AGR,150,escena,la,a,,,542.062,542.062,0.145,-0.08,0,0,0,,0,260,260,336,1,,,,
,,,,,,3197a726c117721867d8f4dc,66a626ef09d4e21e1a8894ec,6735ef7b278c1de90a3baea9,2024-11-14_13h39.47.006,Tarea de género gramatical,2024.2.2,Win32,59.95203837,,,,,,,,,,,,,,,,,,,,,,542.063,543.344,a,0,0.609,,[],[],[],[],[],[],[],0.609,0,543.344,543.844,,,,,,255,FEM,DIS,150,tribu,el,a,,,543.844,543.844,0.145,-0.08,0,0,0,,0,261,261,254,1,,,,
,,,,,,3197a726c117721867d8f4dc,66a626ef09d4e21e1a8894ec,6735ef7b278c1de90a3baea9,2024-11-14_13h39.47.006,Tarea de género gramatical,2024.2.2,Win32,59.95203837,,,,,,,,,,,,,,,,,,,,,,543.846,545.061,l,1,0.535,,[],[],[],[],[],[],[],0.535,1,545.061,545.561,,,,,,121,FEM,AGR,150,pila,la,a,,,545.561,545.561,0.145,-0.08,0,0,0,,0,262,262,120,1,,,,
,,,,,,3197a726c117721867d8f4dc,66a626ef09d4e21e1a8894ec,6735ef7b278c1de90a3baea9,2024-11-14_13h39.47.006,Tarea de género gramatical,2024.2.2,Win32,59.95203837,,,,,,,,,,,,,,,,,,,,,,545.563,546.66,l,1,0.417,,[],[],[],[],[],[],[],0.417,1,546.661,547.161,,,,,,115,FEM,AGR,150,seda,la,a,,,547.162,547.162,0.145,-0.08,0,0,0,,0,263,263,114,1,,,,
,,,,,,3197a726c117721867d8f4dc,66a626ef09d4e21e1a8894ec,6735ef7b278c1de90a3baea9,2024-11-14_13h39.47.006,Tarea de género gramatical,2024.2.2,Win32,59.95203837,,,,,,,,,,,,,,,,,,,,,,547.163,548.128,l,1,0.285,,[],[],[],[],[],[],[],0.285,1,548.128,548.627,,,,,,338,FEM,CON,150,abuela,,a,,,548.627,548.627,0.145,-0.08,0,0,0,,0,264,264,337,1,,,,
