counterbalancing_condition,consent_prescreening.block_1/declare_consent,consent_prescreening.block_1/age_years,consent_prescreening.block_1/gender,consent_prescreening.block_1/language_disorder,consent_prescreening.block_1/first_language,PROLIFIC_PID,STUDY_ID,SESSION_ID,date,expName,psychopyVersion,OS,frameRate,check_prescreening_answers.started,check_prescreening_answers.stopped,Instructions.started,Instructions.stopped,instr_done_keyboard.keys,instr_done_touch.x,instr_done_touch.y,instr_done_touch.leftButton,instr_done_touch.midButton,instr_done_touch.rightButton,instr_done_touch.clicked_name,instruction_pages.thisRepN,instruction_pages.thisTrialN,instruction_pages.thisN,instruction_pages.thisIndex,instruction_pages.ran,pageN,phase,instruct_text,has_image,instruct_image,presentTrial.started,presentTrial.stopped,response.keys,response.corr,response.rt,response.duration,touch_resp.x,touch_resp.y,touch_resp.leftButton,touch_resp.midButton,touch_resp.rightButton,touch_resp.time,touch_resp.clicked_name,rt,corr,feedback.started,feedback.stopped,practice_trials.thisRepN,practice_trials.thisTrialN,practice_trials.thisN,practice_trials.thisIndex,practice_trials.ran,TrialID,StimulusType,Condition,PrimeDuration,Prime,Flanker,corrAns,instr_done_keyboard.rt,instr_done_keyboard.duration,Break.started,Break.stopped,break_done_touch.x,break_done_touch.y,break_done_touch.leftButton,break_done_touch.midButton,break_done_touch.rightButton,break_done_keyboard.keys,experiment_trials.thisRepN,experiment_trials.thisTrialN,experiment_trials.thisN,experiment_trials.thisIndex,experiment_trials.ran,break_done_keyboard.rt,break_done_keyboard.duration,End.started,End.stopped
1,"[""over_18"",""comfortable"",""read_info"",""consent_given""]",25,M,"[""none""]","[""spanish""]",330cc4cf23c1a0a320f741ee,66a626ef09d4e21e1a8894ec,6734d69481feb3304fe7f0cd,2024-11-13_10h43.52.869,Tarea de género gramatical,2024.2.2,Win32,144.9275362,,,,,,,,,,,,,,,,,,,,,,,,,,,,,,,,,,,,,,,,,,,,,,,,,,,,,,,,,,,,,,,,,,,,,
,,,,,,330cc4cf23c1a0a320f741ee,66a626ef09d4e21e1a8894ec,6734d69481feb3304fe7f0cd,2024-11-13_10h43.52.869,Tarea de género gramatical,2024.2.2,Win32,144.9275362,12.3927,12.3928,,,,,,,,,,,,,,,,,,,,,,,,,,,,,,,,,,,,,,,,,,,,,,,,,,,,,,,,,,,,,,,,,,,
,,,,,,330cc4cf23c1a0a320f741ee,66a626ef09d4e21e1a8894ec,6734d69481feb3304fe7f0cd,2024-11-13_10h43.52.869,Tarea de género gramatical,2024.2.2,Win32,144.9275362,,,12.4035,13.3113,,-0.026662664,-0.416599166,1,0,0,instr_done_button,0,0,0,0,1,1,instructions,"INSTRUCCIONES
Va a realizar una prueba de selección gramatical. Desde el comienzo de la prueba mire siempre al centro de la pantalla. Al cabo de un momento, aparecerán palabras. La tarea consiste en determinar si la palabra del centro (siempre será un sustantivo), pertenece al género masculino o femenino.

Pulse la tecla ESPACIO o toque el botón de abajo para continuar.",0,keyboardresponseMF.png,,,,,,,,,,,,,,,,,,,,,,,,,,,,,,,,,,,,,,,,,,,,,,,,
,,,,,,330cc4cf23c1a0a320f741ee,66a626ef09d4e21e1a8894ec,6734d69481feb3304fe7f0cd,2024-11-13_10h43.52.869,Tarea de género gramatical,2024.2.2,Win32,144.9275362,,,13.3135,13.8335,,-0.026662664,-0.416136522,1,0,0,instr_done_button,0,1,1,1,1,2,instructions,"Si su dispositivo tiene teclado, pulse la tecla ""A"" para las palabras en masculino (por ejemplo: ""arroz"") y la tecla ""L"" para las palabras en femenino (por ejemplo: ""mano"").
Pulse la tecla ESPACIO o toque el botón de abajo para continuar.",1,keyboardresponseMF.png,,,,,,,,,,,,,,,,,,,,,,,,,,,,,,,,,,,,,,,,,,,,,,,,
,,,,,,330cc4cf23c1a0a320f741ee,66a626ef09d4e21e1a8894ec,6734d69481feb3304fe7f0cd,2024-11-13_10h43.52.869,Tarea de género gramatical,2024.2.2,Win32,144.9275362,,,13.8351,14.9594,,-0.026662664,-0.416136522,1,0,0,instr_done_button,0,2,2,2,1,3,instructions,"Si utiliza un dispositivo sólo táctil, colóquelo en horizontal y utilice los botones de la pantalla. No utilice el ratón.
Pulse la tecla ESPACIO o toque el botón de abajo para continuar.",2,touchresponseMF.png,,,,,,,,,,,,,,,,,,,,,,,,,,,,,,,,,,,,,,,,,,,,,,,,
,,,,,,330cc4cf23c1a0a320f741ee,66a626ef09d4e21e1a8894ec,6734d69481feb3304fe7f0cd,2024-11-13_10h43.52.869,Tarea de género gramatical,2024.2.2,Win32,144.9275362,,,14.9615,18.2576,,-0.028513549,-0.393927138,1,0,0,instr_done_button,0,3,3,3,1,4,instructions,"Es muy importante que responda con la mayor rapidez y precisión posibles, ya que cada cadena de letras sólo estará en pantalla durante un instante. Si no responde en ese tiempo, aparecerá el mensaje ""Muy lento"" y el experimento pasará a la siguiente palabra. Los primeros 15 intentos serán de práctica y habrá dos descansos durante la prueba.
Pulse la tecla ESPACIO o toque el botón de abajo para iniciar la parte de práctica.",0,keyboardresponseMF.png,,,,,,,,,,,,,,,,,,,,,,,,,,,,,,,,,,,,,,,,,,,,,,,,
,,,,,,330cc4cf23c1a0a320f741ee,66a626ef09d4e21e1a8894ec,6734d69481feb3304fe7f0cd,2024-11-13_10h43.52.869,Tarea de género gramatical,2024.2.2,Win32,144.9275362,,,,,,,,,,,,,,,,,,,,,,18.2702,20.3505,a,1,1.416,,[],[],[],[],[],[],[],1.416,1,20.3508,20.841,0,0,0,10,1,2011,MAS,CON,150,canal,,l,,,,,,,,,,,,,,,,,,,
,,,,,,330cc4cf23c1a0a320f741ee,66a626ef09d4e21e1a8894ec,6734d69481feb3304fe7f0cd,2024-11-13_10h43.52.869,Tarea de género gramatical,2024.2.2,Win32,144.9275362,,,,,,,,,,,,,,,,,,,,,,20.8431,22.2756,a,0,0.7619,,[],[],[],[],[],[],[],0.7619,0,22.2762,22.7755,0,1,1,5,1,2006,FEM,DIS,150,serie,el,a,,,,,,,,,,,,,,,,,,,
,,,,,,330cc4cf23c1a0a320f741ee,66a626ef09d4e21e1a8894ec,6734d69481feb3304fe7f0cd,2024-11-13_10h43.52.869,Tarea de género gramatical,2024.2.2,Win32,144.9275362,,,,,,,,,,,,,,,,,,,,,,22.7763,24.7863,l,0,1.3466,,[],[],[],[],[],[],[],1.3466,0,24.7864,25.2757,0,2,2,14,1,2015,MAS,DIS,150,robot,la,l,,,,,,,,,,,,,,,,,,,
,,,,,,330cc4cf23c1a0a320f741ee,66a626ef09d4e21e1a8894ec,6734d69481feb3304fe7f0cd,2024-11-13_10h43.52.869,Tarea de género gramatical,2024.2.2,Win32,144.9275362,,,,,,,,,,,,,,,,,,,,,,25.2774,26.7998,l,1,0.866,,[],[],[],[],[],[],[],0.866,1,26.8007,27.2972,0,3,3,6,1,2007,FEM,AGR,150,navaja,la,a,,,,,,,,,,,,,,,,,,,
,,,,,,330cc4cf23c1a0a320f741ee,66a626ef09d4e21e1a8894ec,6734d69481feb3304fe7f0cd,2024-11-13_10h43.52.869,Tarea de género gramatical,2024.2.2,Win32,144.9275362,,,,,,,,,,,,,,,,,,,,,,27.2993,28.495,l,1,0.5317,,[],[],[],[],[],[],[],0.5317,1,28.4952,28.9985,0,4,4,0,1,2001,FEM,AGR,150,nuca,la,a,,,,,,,,,,,,,,,,,,,
,,,,,,330cc4cf23c1a0a320f741ee,66a626ef09d4e21e1a8894ec,6734d69481feb3304fe7f0cd,2024-11-13_10h43.52.869,Tarea de género gramatical,2024.2.2,Win32,144.9275362,,,,,,,,,,,,,,,,,,,,,,29.0002,30.3579,a,1,0.691,,[],[],[],[],[],[],[],0.691,1,30.3581,30.8622,0,5,5,8,1,2009,MAS,DIS,150,puerto,la,l,,,,,,,,,,,,,,,,,,,
,,,,,,330cc4cf23c1a0a320f741ee,66a626ef09d4e21e1a8894ec,6734d69481feb3304fe7f0cd,2024-11-13_10h43.52.869,Tarea de género gramatical,2024.2.2,Win32,144.9275362,,,,,,,,,,,,,,,,,,,,,,30.8627,32.372,l,1,0.8318,,[],[],[],[],[],[],[],0.8318,1,32.3721,32.8618,0,6,6,7,1,2008,FEM,CON,150,siesta,,a,,,,,,,,,,,,,,,,,,,
,,,,,,330cc4cf23c1a0a320f741ee,66a626ef09d4e21e1a8894ec,6734d69481feb3304fe7f0cd,2024-11-13_10h43.52.869,Tarea de género gramatical,2024.2.2,Win32,144.9275362,,,,,,,,,,,,,,,,,,,,,,32.8633,34.1618,l,1,0.636,,[],[],[],[],[],[],[],0.636,1,34.1619,34.6733,0,7,7,3,1,2004,FEM,AGR,150,venta,la,a,,,,,,,,,,,,,,,,,,,
,,,,,,330cc4cf23c1a0a320f741ee,66a626ef09d4e21e1a8894ec,6734d69481feb3304fe7f0cd,2024-11-13_10h43.52.869,Tarea de género gramatical,2024.2.2,Win32,144.9275362,,,,,,,,,,,,,,,,,,,,,,34.6744,35.9157,a,1,0.5798,,[],[],[],[],[],[],[],0.5798,1,35.9159,36.407,0,8,8,13,1,2014,MAS,CON,150,siglo,,l,,,,,,,,,,,,,,,,,,,
,,,,,,330cc4cf23c1a0a320f741ee,66a626ef09d4e21e1a8894ec,6734d69481feb3304fe7f0cd,2024-11-13_10h43.52.869,Tarea de género gramatical,2024.2.2,Win32,144.9275362,,,,,,,,,,,,,,,,,,,,,,36.4083,37.7254,a,1,0.6536,,[],[],[],[],[],[],[],0.6536,1,37.7254,38.2226,0,9,9,9,1,2010,MAS,AGR,150,vecino,el,l,,,,,,,,,,,,,,,,,,,
,,,,,,330cc4cf23c1a0a320f741ee,66a626ef09d4e21e1a8894ec,6734d69481feb3304fe7f0cd,2024-11-13_10h43.52.869,Tarea de género gramatical,2024.2.2,Win32,144.9275362,,,,,,,,,,,,,,,,,,,,,,38.2232,39.3072,a,1,0.4225,,[],[],[],[],[],[],[],0.4225,1,39.3074,39.8128,0,10,10,12,1,2013,MAS,AGR,150,acero,el,l,,,,,,,,,,,,,,,,,,,
,,,,,,330cc4cf23c1a0a320f741ee,66a626ef09d4e21e1a8894ec,6734d69481feb3304fe7f0cd,2024-11-13_10h43.52.869,Tarea de género gramatical,2024.2.2,Win32,144.9275362,,,,,,,,,,,,,,,,,,,,,,39.8143,41.2996,l,0,0.8235,,[],[],[],[],[],[],[],0.8235,0,41.3005,41.7996,0,11,11,11,1,2012,MAS,DIS,150,clima,la,l,,,,,,,,,,,,,,,,,,,
,,,,,,330cc4cf23c1a0a320f741ee,66a626ef09d4e21e1a8894ec,6734d69481feb3304fe7f0cd,2024-11-13_10h43.52.869,Tarea de género gramatical,2024.2.2,Win32,144.9275362,,,,,,,,,,,,,,,,,,,,,,41.8009,43.0193,l,1,0.5566,,[],[],[],[],[],[],[],0.5566,1,43.0202,43.5145,0,12,12,1,1,2002,FEM,CON,150,pala,,a,,,,,,,,,,,,,,,,,,,
,,,,,,330cc4cf23c1a0a320f741ee,66a626ef09d4e21e1a8894ec,6734d69481feb3304fe7f0cd,2024-11-13_10h43.52.869,Tarea de género gramatical,2024.2.2,Win32,144.9275362,,,,,,,,,,,,,,,,,,,,,,43.5163,45.494,l,1,1.2992,,[],[],[],[],[],[],[],1.2992,1,45.494,45.987,0,13,13,2,1,2003,FEM,DIS,150,daga,el,a,,,,,,,,,,,,,,,,,,,
,,,,,,330cc4cf23c1a0a320f741ee,66a626ef09d4e21e1a8894ec,6734d69481feb3304fe7f0cd,2024-11-13_10h43.52.869,Tarea de género gramatical,2024.2.2,Win32,144.9275362,,,,,,,,,,,,,,,,,,,,,,45.9874,47.4923,l,1,0.8336,,[],[],[],[],[],[],[],0.8336,1,47.4923,47.9952,0,14,14,4,1,2005,FEM,CON,150,placa,,a,,,,,,,,,,,,,,,,,,,
,,,,,,330cc4cf23c1a0a320f741ee,66a626ef09d4e21e1a8894ec,6734d69481feb3304fe7f0cd,2024-11-13_10h43.52.869,Tarea de género gramatical,2024.2.2,Win32,144.9275362,,,51.2618,61.3003,space,0.082995951,-0.08207054,0,0,0,,,,,,,,,,,,61.3463,62.5221,l,1,0.5007,,[],[],[],[],[],[],[],0.5007,1,62.5223,63.0287,,,,,,679,FEM,CON,150,celda,,a,10.019,,63.0289,63.0316,0.082995951,-0.08207054,0,0,0,,0,0,0,228,1,,,,
,,,,,,330cc4cf23c1a0a320f741ee,66a626ef09d4e21e1a8894ec,6734d69481feb3304fe7f0cd,2024-11-13_10h43.52.869,Tarea de género gramatical,2024.2.2,Win32,144.9275362,,,,,,,,,,,,,,,,,,,,,,63.0326,64.2307,a,1,0.5318,,[],[],[],[],[],[],[],0.5318,1,64.2308,64.7303,,,,,,472,MAS,CON,150,pelo,,l,,,64.7304,64.7306,0.082995951,-0.08207054,0,0,0,,0,1,1,21,1,,,,
,,,,,,330cc4cf23c1a0a320f741ee,66a626ef09d4e21e1a8894ec,6734d69481feb3304fe7f0cd,2024-11-13_10h43.52.869,Tarea de género gramatical,2024.2.2,Win32,144.9275362,,,,,,,,,,,,,,,,,,,,,,64.7319,66.0173,l,1,0.6231,,[],[],[],[],[],[],[],0.6231,1,66.0175,66.5135,,,,,,741,FEM,AGR,150,aguja,la,a,,,66.515,66.5159,0.082995951,-0.08207054,0,0,0,,0,2,2,290,1,,,,
,,,,,,330cc4cf23c1a0a320f741ee,66a626ef09d4e21e1a8894ec,6734d69481feb3304fe7f0cd,2024-11-13_10h43.52.869,Tarea de género gramatical,2024.2.2,Win32,144.9275362,,,,,,,,,,,,,,,,,,,,,,66.5167,67.9418,a,1,0.7628,,[],[],[],[],[],[],[],0.7628,1,67.942,68.4391,,,,,,874,MAS,CON,150,rastro,,l,,,68.4392,68.4392,0.082995951,-0.08207054,0,0,0,,0,3,3,423,1,,,,
,,,,,,330cc4cf23c1a0a320f741ee,66a626ef09d4e21e1a8894ec,6734d69481feb3304fe7f0cd,2024-11-13_10h43.52.869,Tarea de género gramatical,2024.2.2,Win32,144.9275362,,,,,,,,,,,,,,,,,,,,,,68.44,69.7735,a,1,0.6611,,[],[],[],[],[],[],[],0.6611,1,69.7737,70.2713,,,,,,600,MAS,AGR,150,mozo,el,l,,,70.2714,70.2714,0.082995951,-0.08207054,0,0,0,,0,4,4,149,1,,,,
,,,,,,330cc4cf23c1a0a320f741ee,66a626ef09d4e21e1a8894ec,6734d69481feb3304fe7f0cd,2024-11-13_10h43.52.869,Tarea de género gramatical,2024.2.2,Win32,144.9275362,,,,,,,,,,,,,,,,,,,,,,70.2734,71.4187,l,1,0.4822,,[],[],[],[],[],[],[],0.4822,1,71.4189,71.9164,,,,,,799,FEM,CON,150,prensa,,a,,,71.9164,71.9165,0.082995951,-0.08207054,0,0,0,,0,5,5,348,1,,,,
,,,,,,330cc4cf23c1a0a320f741ee,66a626ef09d4e21e1a8894ec,6734d69481feb3304fe7f0cd,2024-11-13_10h43.52.869,Tarea de género gramatical,2024.2.2,Win32,144.9275362,,,,,,,,,,,,,,,,,,,,,,71.917,73.2171,l,1,0.622,,[],[],[],[],[],[],[],0.622,1,73.2172,73.707,,,,,,723,FEM,AGR,150,tarta,la,a,,,73.708,73.709,0.082995951,-0.08207054,0,0,0,,0,6,6,272,1,,,,
,,,,,,330cc4cf23c1a0a320f741ee,66a626ef09d4e21e1a8894ec,6734d69481feb3304fe7f0cd,2024-11-13_10h43.52.869,Tarea de género gramatical,2024.2.2,Win32,144.9275362,,,,,,,,,,,,,,,,,,,,,,73.7096,74.8116,a,1,0.4297,,[],[],[],[],[],[],[],0.4297,1,74.8117,75.3128,,,,,,690,MAS,AGR,150,ruido,el,l,,,75.3128,75.3128,0.082995951,-0.08207054,0,0,0,,0,7,7,239,1,,,,
,,,,,,330cc4cf23c1a0a320f741ee,66a626ef09d4e21e1a8894ec,6734d69481feb3304fe7f0cd,2024-11-13_10h43.52.869,Tarea de género gramatical,2024.2.2,Win32,144.9275362,,,,,,,,,,,,,,,,,,,,,,75.3135,76.3899,l,1,0.4129,,[],[],[],[],[],[],[],0.4129,1,76.3901,76.8886,,,,,,573,FEM,AGR,150,tela,la,a,,,76.8887,76.8888,0.082995951,-0.08207054,0,0,0,,0,8,8,122,1,,,,
,,,,,,330cc4cf23c1a0a320f741ee,66a626ef09d4e21e1a8894ec,6734d69481feb3304fe7f0cd,2024-11-13_10h43.52.869,Tarea de género gramatical,2024.2.2,Win32,144.9275362,,,,,,,,,,,,,,,,,,,,,,76.8899,77.9937,a,1,0.4391,,[],[],[],[],[],[],[],0.4391,1,77.9939,78.4858,,,,,,592,MAS,CON,150,lodo,,l,,,78.4859,78.486,0.082995951,-0.08207054,0,0,0,,0,9,9,141,1,,,,
,,,,,,330cc4cf23c1a0a320f741ee,66a626ef09d4e21e1a8894ec,6734d69481feb3304fe7f0cd,2024-11-13_10h43.52.869,Tarea de género gramatical,2024.2.2,Win32,144.9275362,,,,,,,,,,,,,,,,,,,,,,78.4871,80.0147,l,1,0.8631,,[],[],[],[],[],[],[],0.8631,1,80.0147,80.5138,,,,,,488,FEM,DIS,150,obra,el,a,,,80.5139,80.5139,0.082995951,-0.08207054,0,0,0,,0,10,10,37,1,,,,
,,,,,,330cc4cf23c1a0a320f741ee,66a626ef09d4e21e1a8894ec,6734d69481feb3304fe7f0cd,2024-11-13_10h43.52.869,Tarea de género gramatical,2024.2.2,Win32,144.9275362,,,,,,,,,,,,,,,,,,,,,,80.5147,81.9402,l,1,0.7574,,[],[],[],[],[],[],[],0.7574,1,81.9403,82.4431,,,,,,745,FEM,CON,150,grasa,,a,,,82.4439,82.4448,0.082995951,-0.08207054,0,0,0,,0,11,11,294,1,,,,
,,,,,,330cc4cf23c1a0a320f741ee,66a626ef09d4e21e1a8894ec,6734d69481feb3304fe7f0cd,2024-11-13_10h43.52.869,Tarea de género gramatical,2024.2.2,Win32,144.9275362,,,,,,,,,,,,,,,,,,,,,,82.4455,83.5494,a,1,0.4364,,[],[],[],[],[],[],[],0.4364,1,83.5495,84.0348,,,,,,802,MAS,CON,150,estilo,,l,,,84.0348,84.0349,0.082995951,-0.08207054,0,0,0,,0,12,12,351,1,,,,
,,,,,,330cc4cf23c1a0a320f741ee,66a626ef09d4e21e1a8894ec,6734d69481feb3304fe7f0cd,2024-11-13_10h43.52.869,Tarea de género gramatical,2024.2.2,Win32,144.9275362,,,,,,,,,,,,,,,,,,,,,,84.0368,85.0506,l,1,0.3442,,[],[],[],[],[],[],[],0.3442,1,85.0507,85.5514,,,,,,459,FEM,AGR,150,mamá,la,a,,,85.5514,85.5515,0.082995951,-0.08207054,0,0,0,,0,13,13,8,1,,,,
,,,,,,330cc4cf23c1a0a320f741ee,66a626ef09d4e21e1a8894ec,6734d69481feb3304fe7f0cd,2024-11-13_10h43.52.869,Tarea de género gramatical,2024.2.2,Win32,144.9275362,,,,,,,,,,,,,,,,,,,,,,85.552,86.7099,a,1,0.4832,,[],[],[],[],[],[],[],0.4832,1,86.71,87.2056,,,,,,792,MAS,AGR,150,abuelo,el,l,,,87.2057,87.2057,0.082995951,-0.08207054,0,0,0,,0,14,14,341,1,,,,
,,,,,,330cc4cf23c1a0a320f741ee,66a626ef09d4e21e1a8894ec,6734d69481feb3304fe7f0cd,2024-11-13_10h43.52.869,Tarea de género gramatical,2024.2.2,Win32,144.9275362,,,,,,,,,,,,,,,,,,,,,,87.207,88.571,a,1,0.7005,,[],[],[],[],[],[],[],0.7005,1,88.5711,89.0755,,,,,,754,MAS,CON,150,tiempo,,l,,,89.0764,89.0773,0.082995951,-0.08207054,0,0,0,,0,15,15,303,1,,,,
,,,,,,330cc4cf23c1a0a320f741ee,66a626ef09d4e21e1a8894ec,6734d69481feb3304fe7f0cd,2024-11-13_10h43.52.869,Tarea de género gramatical,2024.2.2,Win32,144.9275362,,,,,,,,,,,,,,,,,,,,,,89.0779,90.6525,a,1,0.9167,,[],[],[],[],[],[],[],0.9167,1,90.6527,91.1463,,,,,,605,MAS,DIS,150,mundo,la,l,,,91.1464,91.1466,0.082995951,-0.08207054,0,0,0,,0,16,16,154,1,,,,
,,,,,,330cc4cf23c1a0a320f741ee,66a626ef09d4e21e1a8894ec,6734d69481feb3304fe7f0cd,2024-11-13_10h43.52.869,Tarea de género gramatical,2024.2.2,Win32,144.9275362,,,,,,,,,,,,,,,,,,,,,,91.1478,92.3484,l,1,0.5346,,[],[],[],[],[],[],[],0.5346,1,92.3486,92.8401,,,,,,675,FEM,AGR,150,pieza,la,a,,,92.8401,92.8403,0.082995951,-0.08207054,0,0,0,,0,17,17,224,1,,,,
,,,,,,330cc4cf23c1a0a320f741ee,66a626ef09d4e21e1a8894ec,6734d69481feb3304fe7f0cd,2024-11-13_10h43.52.869,Tarea de género gramatical,2024.2.2,Win32,144.9275362,,,,,,,,,,,,,,,,,,,,,,92.8414,94.3415,a,1,0.827,,[],[],[],[],[],[],[],0.827,1,94.3417,94.8375,,,,,,636,MAS,AGR,150,error,el,l,,,94.8376,94.8376,0.082995951,-0.08207054,0,0,0,,0,18,18,185,1,,,,
,,,,,,330cc4cf23c1a0a320f741ee,66a626ef09d4e21e1a8894ec,6734d69481feb3304fe7f0cd,2024-11-13_10h43.52.869,Tarea de género gramatical,2024.2.2,Win32,144.9275362,,,,,,,,,,,,,,,,,,,,,,94.8388,96.0375,a,1,0.538,,[],[],[],[],[],[],[],0.538,1,96.0376,96.5424,,,,,,755,MAS,DIS,150,hombre,la,l,,,96.5425,96.5426,0.082995951,-0.08207054,0,0,0,,0,19,19,304,1,,,,
,,,,,,330cc4cf23c1a0a320f741ee,66a626ef09d4e21e1a8894ec,6734d69481feb3304fe7f0cd,2024-11-13_10h43.52.869,Tarea de género gramatical,2024.2.2,Win32,144.9275362,,,,,,,,,,,,,,,,,,,,,,96.5438,97.8947,l,1,0.6729,,[],[],[],[],[],[],[],0.6729,1,97.8947,98.4029,,,,,,596,FEM,DIS,150,lana,el,a,,,98.4039,98.4048,0.082995951,-0.08207054,0,0,0,,0,20,20,145,1,,,,
,,,,,,330cc4cf23c1a0a320f741ee,66a626ef09d4e21e1a8894ec,6734d69481feb3304fe7f0cd,2024-11-13_10h43.52.869,Tarea de género gramatical,2024.2.2,Win32,144.9275362,,,,,,,,,,,,,,,,,,,,,,98.4054,99.6729,a,0,0.5888,,[],[],[],[],[],[],[],0.5888,0,99.6737,100.168,,,,,,668,FEM,DIS,150,nieve,el,a,,,100.1681,100.1682,0.082995951,-0.08207054,0,0,0,,0,21,21,217,1,,,,
,,,,,,330cc4cf23c1a0a320f741ee,66a626ef09d4e21e1a8894ec,6734d69481feb3304fe7f0cd,2024-11-13_10h43.52.869,Tarea de género gramatical,2024.2.2,Win32,144.9275362,,,,,,,,,,,,,,,,,,,,,,100.1694,101.5174,l,1,0.6789,,[],[],[],[],[],[],[],0.6789,1,101.5185,102.014,,,,,,536,FEM,DIS,150,cruz,el,a,,,102.014,102.014,0.082995951,-0.08207054,0,0,0,,0,22,22,85,1,,,,
,,,,,,330cc4cf23c1a0a320f741ee,66a626ef09d4e21e1a8894ec,6734d69481feb3304fe7f0cd,2024-11-13_10h43.52.869,Tarea de género gramatical,2024.2.2,Win32,144.9275362,,,,,,,,,,,,,,,,,,,,,,102.0147,103.1457,l,1,0.4582,,[],[],[],[],[],[],[],0.4582,1,103.1459,103.647,,,,,,813,FEM,AGR,150,unidad,la,a,,,103.647,103.647,0.082995951,-0.08207054,0,0,0,,0,23,23,362,1,,,,
,,,,,,330cc4cf23c1a0a320f741ee,66a626ef09d4e21e1a8894ec,6734d69481feb3304fe7f0cd,2024-11-13_10h43.52.869,Tarea de género gramatical,2024.2.2,Win32,144.9275362,,,,,,,,,,,,,,,,,,,,,,103.6477,104.968,l,1,0.6488,,[],[],[],[],[],[],[],0.6488,1,104.9681,105.4723,,,,,,584,FEM,DIS,150,rama,el,a,,,105.4737,105.4747,0.082995951,-0.08207054,0,0,0,,0,24,24,133,1,,,,
,,,,,,330cc4cf23c1a0a320f741ee,66a626ef09d4e21e1a8894ec,6734d69481feb3304fe7f0cd,2024-11-13_10h43.52.869,Tarea de género gramatical,2024.2.2,Win32,144.9275362,,,,,,,,,,,,,,,,,,,,,,105.4754,106.9371,a,1,0.7844,,[],[],[],[],[],[],[],0.7844,1,106.9372,107.4375,,,,,,576,MAS,AGR,150,lazo,el,l,,,107.4376,107.4376,0.082995951,-0.08207054,0,0,0,,0,25,25,125,1,,,,
,,,,,,330cc4cf23c1a0a320f741ee,66a626ef09d4e21e1a8894ec,6734d69481feb3304fe7f0cd,2024-11-13_10h43.52.869,Tarea de género gramatical,2024.2.2,Win32,144.9275362,,,,,,,,,,,,,,,,,,,,,,107.4386,108.7237,l,1,0.6118,,[],[],[],[],[],[],[],0.6118,1,108.7238,109.2197,,,,,,625,FEM,CON,150,señal,,a,,,109.2197,109.2197,0.082995951,-0.08207054,0,0,0,,0,26,26,174,1,,,,
,,,,,,330cc4cf23c1a0a320f741ee,66a626ef09d4e21e1a8894ec,6734d69481feb3304fe7f0cd,2024-11-13_10h43.52.869,Tarea de género gramatical,2024.2.2,Win32,144.9275362,,,,,,,,,,,,,,,,,,,,,,109.2214,110.4535,a,1,0.5503,,[],[],[],[],[],[],[],0.5503,1,110.4536,110.95,,,,,,630,MAS,AGR,150,fuego,el,l,,,110.95,110.95,0.082995951,-0.08207054,0,0,0,,0,27,27,179,1,,,,
,,,,,,330cc4cf23c1a0a320f741ee,66a626ef09d4e21e1a8894ec,6734d69481feb3304fe7f0cd,2024-11-13_10h43.52.869,Tarea de género gramatical,2024.2.2,Win32,144.9275362,,,,,,,,,,,,,,,,,,,,,,110.9508,112.0765,l,1,0.4508,,[],[],[],[],[],[],[],0.4508,1,112.0766,112.5752,,,,,,476,FEM,DIS,150,pena,el,a,,,112.5752,112.5752,0.082995951,-0.08207054,0,0,0,,0,28,28,25,1,,,,
,,,,,,330cc4cf23c1a0a320f741ee,66a626ef09d4e21e1a8894ec,6734d69481feb3304fe7f0cd,2024-11-13_10h43.52.869,Tarea de género gramatical,2024.2.2,Win32,144.9275362,,,,,,,,,,,,,,,,,,,,,,112.5767,113.842,a,1,0.5941,,[],[],[],[],[],[],[],0.5941,1,113.8421,114.3473,,,,,,479,MAS,DIS,150,frío,la,l,,,114.3479,114.3483,0.082995951,-0.08207054,0,0,0,,0,29,29,28,1,,,,
,,,,,,330cc4cf23c1a0a320f741ee,66a626ef09d4e21e1a8894ec,6734d69481feb3304fe7f0cd,2024-11-13_10h43.52.869,Tarea de género gramatical,2024.2.2,Win32,144.9275362,,,,,,,,,,,,,,,,,,,,,,114.3485,115.4343,l,1,0.4131,,[],[],[],[],[],[],[],0.4131,1,115.4344,115.9404,,,,,,871,FEM,CON,150,novela,,a,,,115.9406,115.9407,0.082995951,-0.08207054,0,0,0,,0,30,30,420,1,,,,
,,,,,,330cc4cf23c1a0a320f741ee,66a626ef09d4e21e1a8894ec,6734d69481feb3304fe7f0cd,2024-11-13_10h43.52.869,Tarea de género gramatical,2024.2.2,Win32,144.9275362,,,,,,,,,,,,,,,,,,,,,,115.9418,117.0436,l,1,0.4327,,[],[],[],[],[],[],[],0.4327,1,117.0438,117.5417,,,,,,829,FEM,CON,150,granja,,a,,,117.5418,117.5418,0.082995951,-0.08207054,0,0,0,,0,31,31,378,1,,,,
,,,,,,330cc4cf23c1a0a320f741ee,66a626ef09d4e21e1a8894ec,6734d69481feb3304fe7f0cd,2024-11-13_10h43.52.869,Tarea de género gramatical,2024.2.2,Win32,144.9275362,,,,,,,,,,,,,,,,,,,,,,117.5424,118.6424,l,1,0.4367,,[],[],[],[],[],[],[],0.4367,1,118.6424,119.1346,,,,,,855,FEM,AGR,150,parada,la,a,,,119.1347,119.1348,0.082995951,-0.08207054,0,0,0,,0,32,32,404,1,,,,
,,,,,,330cc4cf23c1a0a320f741ee,66a626ef09d4e21e1a8894ec,6734d69481feb3304fe7f0cd,2024-11-13_10h43.52.869,Tarea de género gramatical,2024.2.2,Win32,144.9275362,,,,,,,,,,,,,,,,,,,,,,119.136,120.2878,l,1,0.4707,,[],[],[],[],[],[],[],0.4707,1,120.288,120.7928,,,,,,493,FEM,CON,150,nena,,a,,,120.7939,120.7952,0.082995951,-0.08207054,0,0,0,,0,33,33,42,1,,,,
,,,,,,330cc4cf23c1a0a320f741ee,66a626ef09d4e21e1a8894ec,6734d69481feb3304fe7f0cd,2024-11-13_10h43.52.869,Tarea de género gramatical,2024.2.2,Win32,144.9275362,,,,,,,,,,,,,,,,,,,,,,120.7961,121.8877,a,1,0.4228,,[],[],[],[],[],[],[],0.4228,1,121.8878,122.3827,,,,,,814,MAS,CON,150,viento,,l,,,122.3827,122.3828,0.082995951,-0.08207054,0,0,0,,0,34,34,363,1,,,,
,,,,,,330cc4cf23c1a0a320f741ee,66a626ef09d4e21e1a8894ec,6734d69481feb3304fe7f0cd,2024-11-13_10h43.52.869,Tarea de género gramatical,2024.2.2,Win32,144.9275362,,,,,,,,,,,,,,,,,,,,,,122.3834,123.5747,a,1,0.5257,,[],[],[],[],[],[],[],0.5257,1,123.5749,124.073,,,,,,876,MAS,AGR,150,pánico,el,l,,,124.073,124.073,0.082995951,-0.08207054,0,0,0,,0,35,35,425,1,,,,
,,,,,,330cc4cf23c1a0a320f741ee,66a626ef09d4e21e1a8894ec,6734d69481feb3304fe7f0cd,2024-11-13_10h43.52.869,Tarea de género gramatical,2024.2.2,Win32,144.9275362,,,,,,,,,,,,,,,,,,,,,,124.0735,125.1762,a,1,0.4321,,[],[],[],[],[],[],[],0.4321,1,125.1763,125.6675,,,,,,726,MAS,AGR,150,ritmo,el,l,,,125.6677,125.6677,0.082995951,-0.08207054,0,0,0,,0,36,36,275,1,,,,
,,,,,,330cc4cf23c1a0a320f741ee,66a626ef09d4e21e1a8894ec,6734d69481feb3304fe7f0cd,2024-11-13_10h43.52.869,Tarea de género gramatical,2024.2.2,Win32,144.9275362,,,,,,,,,,,,,,,,,,,,,,125.6689,126.883,l,1,0.551,,[],[],[],[],[],[],[],0.551,1,126.8832,127.3949,,,,,,487,FEM,CON,150,sala,,a,,,127.3949,127.3949,0.082995951,-0.08207054,0,0,0,,0,37,37,36,1,,,,
,,,,,,330cc4cf23c1a0a320f741ee,66a626ef09d4e21e1a8894ec,6734d69481feb3304fe7f0cd,2024-11-13_10h43.52.869,Tarea de género gramatical,2024.2.2,Win32,144.9275362,,,,,,,,,,,,,,,,,,,,,,127.3955,128.6556,a,1,0.5931,,[],[],[],[],[],[],[],0.5931,1,128.6557,129.1669,,,,,,682,MAS,CON,150,calor,,l,,,129.1676,129.1685,0.082995951,-0.08207054,0,0,0,,0,38,38,231,1,,,,
,,,,,,330cc4cf23c1a0a320f741ee,66a626ef09d4e21e1a8894ec,6734d69481feb3304fe7f0cd,2024-11-13_10h43.52.869,Tarea de género gramatical,2024.2.2,Win32,144.9275362,,,,,,,,,,,,,,,,,,,,,,129.1692,130.222,l,1,0.3738,,[],[],[],[],[],[],[],0.3738,1,130.2221,130.7165,,,,,,752,FEM,DIS,150,cabeza,el,a,,,130.7166,130.7166,0.082995951,-0.08207054,0,0,0,,0,39,39,301,1,,,,
,,,,,,330cc4cf23c1a0a320f741ee,66a626ef09d4e21e1a8894ec,6734d69481feb3304fe7f0cd,2024-11-13_10h43.52.869,Tarea de género gramatical,2024.2.2,Win32,144.9275362,,,,,,,,,,,,,,,,,,,,,,130.718,131.9175,l,1,0.5288,,[],[],[],[],[],[],[],0.5288,1,131.9176,132.4179,,,,,,686,FEM,DIS,150,deuda,el,a,,,132.418,132.418,0.082995951,-0.08207054,0,0,0,,0,40,40,235,1,,,,
,,,,,,330cc4cf23c1a0a320f741ee,66a626ef09d4e21e1a8894ec,6734d69481feb3304fe7f0cd,2024-11-13_10h43.52.869,Tarea de género gramatical,2024.2.2,Win32,144.9275362,,,,,,,,,,,,,,,,,,,,,,132.4185,133.5019,l,1,0.4161,,[],[],[],[],[],[],[],0.4161,1,133.502,134.0066,,,,,,505,FEM,CON,150,taza,,a,,,134.0066,134.0068,0.082995951,-0.08207054,0,0,0,,0,41,41,54,1,,,,
,,,,,,330cc4cf23c1a0a320f741ee,66a626ef09d4e21e1a8894ec,6734d69481feb3304fe7f0cd,2024-11-13_10h43.52.869,Tarea de género gramatical,2024.2.2,Win32,144.9275362,,,,,,,,,,,,,,,,,,,,,,134.008,135.0379,a,1,0.3686,,[],[],[],[],[],[],[],0.3686,1,135.038,135.5456,,,,,,556,MAS,CON,150,test,,l,,,135.5461,135.5468,0.082995951,-0.08207054,0,0,0,,0,42,42,105,1,,,,
,,,,,,330cc4cf23c1a0a320f741ee,66a626ef09d4e21e1a8894ec,6734d69481feb3304fe7f0cd,2024-11-13_10h43.52.869,Tarea de género gramatical,2024.2.2,Win32,144.9275362,,,,,,,,,,,,,,,,,,,,,,135.5474,136.5142,l,1,0.2992,,[],[],[],[],[],[],[],0.2992,1,136.5143,137.0076,,,,,,819,FEM,AGR,150,camisa,la,a,,,137.0076,137.0077,0.082995951,-0.08207054,0,0,0,,0,43,43,368,1,,,,
,,,,,,330cc4cf23c1a0a320f741ee,66a626ef09d4e21e1a8894ec,6734d69481feb3304fe7f0cd,2024-11-13_10h43.52.869,Tarea de género gramatical,2024.2.2,Win32,144.9275362,,,,,,,,,,,,,,,,,,,,,,137.0083,137.9926,a,1,0.3108,,[],[],[],[],[],[],[],0.3108,1,137.9927,138.488,,,,,,516,MAS,AGR,150,muro,el,l,,,138.4881,138.4881,0.082995951,-0.08207054,0,0,0,,0,44,44,65,1,,,,
,,,,,,330cc4cf23c1a0a320f741ee,66a626ef09d4e21e1a8894ec,6734d69481feb3304fe7f0cd,2024-11-13_10h43.52.869,Tarea de género gramatical,2024.2.2,Win32,144.9275362,,,,,,,,,,,,,,,,,,,,,,138.4895,139.6144,a,1,0.4557,,[],[],[],[],[],[],[],0.4557,1,139.6146,140.1041,,,,,,580,MAS,CON,150,yate,,l,,,140.1041,140.1042,0.082995951,-0.08207054,0,0,0,,0,45,45,129,1,,,,
,,,,,,330cc4cf23c1a0a320f741ee,66a626ef09d4e21e1a8894ec,6734d69481feb3304fe7f0cd,2024-11-13_10h43.52.869,Tarea de género gramatical,2024.2.2,Win32,144.9275362,,,,,,,,,,,,,,,,,,,,,,140.1054,141.162,l,1,0.3906,,[],[],[],[],[],[],[],0.3906,1,141.1621,141.6617,,,,,,781,FEM,CON,150,cárcel,,a,,,141.6618,141.6619,0.082995951,-0.08207054,0,0,0,,0,46,46,330,1,,,,
,,,,,,330cc4cf23c1a0a320f741ee,66a626ef09d4e21e1a8894ec,6734d69481feb3304fe7f0cd,2024-11-13_10h43.52.869,Tarea de género gramatical,2024.2.2,Win32,144.9275362,,,,,,,,,,,,,,,,,,,,,,141.6632,142.6821,l,1,0.3405,,[],[],[],[],[],[],[],0.3405,1,142.6823,143.1825,,,,,,543,FEM,AGR,150,lata,la,a,,,143.1836,143.1846,0.082995951,-0.08207054,0,0,0,,0,47,47,92,1,,,,
,,,,,,330cc4cf23c1a0a320f741ee,66a626ef09d4e21e1a8894ec,6734d69481feb3304fe7f0cd,2024-11-13_10h43.52.869,Tarea de género gramatical,2024.2.2,Win32,144.9275362,,,,,,,,,,,,,,,,,,,,,,143.1853,144.2666,a,1,0.4094,,[],[],[],[],[],[],[],0.4094,1,144.2668,144.7628,,,,,,569,MAS,DIS,150,mito,la,l,,,144.7628,144.7628,0.082995951,-0.08207054,0,0,0,,0,48,48,118,1,,,,
,,,,,,330cc4cf23c1a0a320f741ee,66a626ef09d4e21e1a8894ec,6734d69481feb3304fe7f0cd,2024-11-13_10h43.52.869,Tarea de género gramatical,2024.2.2,Win32,144.9275362,,,,,,,,,,,,,,,,,,,,,,144.7635,145.8906,l,1,0.4483,,[],[],[],[],[],[],[],0.4483,1,145.8907,146.39,,,,,,818,FEM,DIS,150,gracia,el,a,,,146.3901,146.3902,0.082995951,-0.08207054,0,0,0,,0,49,49,367,1,,,,
,,,,,,330cc4cf23c1a0a320f741ee,66a626ef09d4e21e1a8894ec,6734d69481feb3304fe7f0cd,2024-11-13_10h43.52.869,Tarea de género gramatical,2024.2.2,Win32,144.9275362,,,,,,,,,,,,,,,,,,,,,,146.3914,147.9539,l,1,0.8834,,[],[],[],[],[],[],[],0.8834,1,147.954,148.4518,,,,,,511,FEM,CON,150,ruta,,a,,,148.4518,148.452,0.082995951,-0.08207054,0,0,0,,0,50,50,60,1,,,,
,,,,,,330cc4cf23c1a0a320f741ee,66a626ef09d4e21e1a8894ec,6734d69481feb3304fe7f0cd,2024-11-13_10h43.52.869,Tarea de género gramatical,2024.2.2,Win32,144.9275362,,,,,,,,,,,,,,,,,,,,,,148.4533,149.4391,l,1,0.3213,,[],[],[],[],[],[],[],0.3213,1,149.4393,149.9462,,,,,,471,FEM,AGR,150,boca,la,a,,,149.9473,149.9483,0.082995951,-0.08207054,0,0,0,,0,51,51,20,1,,,,
,,,,,,330cc4cf23c1a0a320f741ee,66a626ef09d4e21e1a8894ec,6734d69481feb3304fe7f0cd,2024-11-13_10h43.52.869,Tarea de género gramatical,2024.2.2,Win32,144.9275362,,,,,,,,,,,,,,,,,,,,,,149.949,150.9316,a,1,0.3085,,[],[],[],[],[],[],[],0.3085,1,150.9318,151.4335,,,,,,546,MAS,AGR,150,pato,el,l,,,151.4335,151.4335,0.082995951,-0.08207054,0,0,0,,0,52,52,95,1,,,,
,,,,,,330cc4cf23c1a0a320f741ee,66a626ef09d4e21e1a8894ec,6734d69481feb3304fe7f0cd,2024-11-13_10h43.52.869,Tarea de género gramatical,2024.2.2,Win32,144.9275362,,,,,,,,,,,,,,,,,,,,,,151.434,152.4658,a,1,0.3735,,[],[],[],[],[],[],[],0.3735,1,152.4659,152.9638,,,,,,618,MAS,AGR,150,sitio,el,l,,,152.9639,152.9639,0.082995951,-0.08207054,0,0,0,,0,53,53,167,1,,,,
,,,,,,330cc4cf23c1a0a320f741ee,66a626ef09d4e21e1a8894ec,6734d69481feb3304fe7f0cd,2024-11-13_10h43.52.869,Tarea de género gramatical,2024.2.2,Win32,144.9275362,,,,,,,,,,,,,,,,,,,,,,152.9645,154.1606,l,1,0.5297,,[],[],[],[],[],[],[],0.5297,1,154.1607,154.6538,,,,,,535,FEM,CON,150,gira,,a,,,154.6538,154.6538,0.082995951,-0.08207054,0,0,0,,0,54,54,84,1,,,,
,,,,,,330cc4cf23c1a0a320f741ee,66a626ef09d4e21e1a8894ec,6734d69481feb3304fe7f0cd,2024-11-13_10h43.52.869,Tarea de género gramatical,2024.2.2,Win32,144.9275362,,,,,,,,,,,,,,,,,,,,,,154.6544,155.8558,l,1,0.5457,,[],[],[],[],[],[],[],0.5457,1,155.856,156.3683,,,,,,667,FEM,CON,150,tarea,,a,,,156.3684,156.3685,0.082995951,-0.08207054,0,0,0,,0,55,55,216,1,,,,
,,,,,,330cc4cf23c1a0a320f741ee,66a626ef09d4e21e1a8894ec,6734d69481feb3304fe7f0cd,2024-11-13_10h43.52.869,Tarea de género gramatical,2024.2.2,Win32,144.9275362,,,,,,,,,,,,,,,,,,,,,,156.369,157.3502,l,1,0.3096,,[],[],[],[],[],[],[],0.3096,1,157.3504,157.8618,,,,,,823,FEM,CON,150,lluvia,,a,,,157.8623,157.8631,0.082995951,-0.08207054,0,0,0,,0,56,56,372,1,,,,
,,,,,,330cc4cf23c1a0a320f741ee,66a626ef09d4e21e1a8894ec,6734d69481feb3304fe7f0cd,2024-11-13_10h43.52.869,Tarea de género gramatical,2024.2.2,Win32,144.9275362,,,,,,,,,,,,,,,,,,,,,,157.8638,159.1075,a,1,0.5854,,[],[],[],[],[],[],[],0.5854,1,159.1077,159.6036,,,,,,894,MAS,AGR,150,límite,el,l,,,159.6037,159.6038,0.082995951,-0.08207054,0,0,0,,0,57,57,443,1,,,,
,,,,,,330cc4cf23c1a0a320f741ee,66a626ef09d4e21e1a8894ec,6734d69481feb3304fe7f0cd,2024-11-13_10h43.52.869,Tarea de género gramatical,2024.2.2,Win32,144.9275362,,,,,,,,,,,,,,,,,,,,,,159.6051,160.932,l,1,0.6537,,[],[],[],[],[],[],[],0.6537,1,160.9321,161.4179,,,,,,890,FEM,DIS,150,patada,el,a,,,161.418,161.4181,0.082995951,-0.08207054,0,0,0,,0,58,58,439,1,,,,
,,,,,,330cc4cf23c1a0a320f741ee,66a626ef09d4e21e1a8894ec,6734d69481feb3304fe7f0cd,2024-11-13_10h43.52.869,Tarea de género gramatical,2024.2.2,Win32,144.9275362,,,,,,,,,,,,,,,,,,,,,,161.4195,162.8611,a,1,0.7805,,[],[],[],[],[],[],[],0.7805,1,162.8612,163.3564,,,,,,587,MAS,DIS,150,coco,la,l,,,163.3565,163.3565,0.082995951,-0.08207054,0,0,0,,0,59,59,136,1,,,,
,,,,,,330cc4cf23c1a0a320f741ee,66a626ef09d4e21e1a8894ec,6734d69481feb3304fe7f0cd,2024-11-13_10h43.52.869,Tarea de género gramatical,2024.2.2,Win32,144.9275362,,,,,,,,,,,,,,,,,,,,,,163.3577,164.53,a,1,0.506,,[],[],[],[],[],[],[],0.506,1,164.5301,165.0281,,,,,,826,MAS,CON,150,efecto,,l,,,165.0285,165.0295,0.082995951,-0.08207054,0,0,0,,0,60,60,375,1,,,,
,,,,,,330cc4cf23c1a0a320f741ee,66a626ef09d4e21e1a8894ec,6734d69481feb3304fe7f0cd,2024-11-13_10h43.52.869,Tarea de género gramatical,2024.2.2,Win32,144.9275362,,,,,,,,,,,,,,,,,,,,,,165.03,166.0504,a,1,0.3559,,[],[],[],[],[],[],[],0.3559,1,166.0505,166.5433,,,,,,658,MAS,CON,150,suelo,,l,,,166.5433,166.5434,0.082995951,-0.08207054,0,0,0,,0,61,61,207,1,,,,
,,,,,,330cc4cf23c1a0a320f741ee,66a626ef09d4e21e1a8894ec,6734d69481feb3304fe7f0cd,2024-11-13_10h43.52.869,Tarea de género gramatical,2024.2.2,Win32,144.9275362,,,,,,,,,,,,,,,,,,,,,,166.544,167.6422,a,1,0.4405,,[],[],[],[],[],[],[],0.4405,1,167.6423,168.153,,,,,,502,MAS,CON,150,lago,,l,,,168.153,168.1531,0.082995951,-0.08207054,0,0,0,,0,62,62,51,1,,,,
,,,,,,330cc4cf23c1a0a320f741ee,66a626ef09d4e21e1a8894ec,6734d69481feb3304fe7f0cd,2024-11-13_10h43.52.869,Tarea de género gramatical,2024.2.2,Win32,144.9275362,,,,,,,,,,,,,,,,,,,,,,168.1535,169.2601,l,1,0.44,,[],[],[],[],[],[],[],0.44,1,169.2604,169.7684,,,,,,879,FEM,AGR,150,fianza,la,a,,,169.7684,169.7684,0.082995951,-0.08207054,0,0,0,,0,63,63,428,1,,,,
,,,,,,330cc4cf23c1a0a320f741ee,66a626ef09d4e21e1a8894ec,6734d69481feb3304fe7f0cd,2024-11-13_10h43.52.869,Tarea de género gramatical,2024.2.2,Win32,144.9275362,,,,,,,,,,,,,,,,,,,,,,169.7689,171.6105,l,1,1.1805,,[],[],[],[],[],[],[],1.1805,1,171.6107,172.1024,,,,,,687,FEM,AGR,150,ducha,la,a,,,172.1024,172.1024,0.082995951,-0.08207054,0,0,0,,0,64,64,236,1,,,,
,,,,,,330cc4cf23c1a0a320f741ee,66a626ef09d4e21e1a8894ec,6734d69481feb3304fe7f0cd,2024-11-13_10h43.52.869,Tarea de género gramatical,2024.2.2,Win32,144.9275362,,,,,,,,,,,,,,,,,,,,,,172.1037,173.2731,l,1,0.497,,[],[],[],[],[],[],[],0.497,1,173.2732,173.7648,,,,,,638,FEM,DIS,150,bomba,el,a,,,173.7654,173.7664,0.082995951,-0.08207054,0,0,0,,0,65,65,187,1,,,,
,,,,,,330cc4cf23c1a0a320f741ee,66a626ef09d4e21e1a8894ec,6734d69481feb3304fe7f0cd,2024-11-13_10h43.52.869,Tarea de género gramatical,2024.2.2,Win32,144.9275362,,,,,,,,,,,,,,,,,,,,,,173.7672,175.0085,a,1,0.577,,[],[],[],[],[],[],[],0.577,1,175.0087,175.5144,,,,,,478,MAS,CON,150,club,,l,,,175.5144,175.5144,0.082995951,-0.08207054,0,0,0,,0,66,66,27,1,,,,
,,,,,,330cc4cf23c1a0a320f741ee,66a626ef09d4e21e1a8894ec,6734d69481feb3304fe7f0cd,2024-11-13_10h43.52.869,Tarea de género gramatical,2024.2.2,Win32,144.9275362,,,,,,,,,,,,,,,,,,,,,,175.515,176.8351,l,1,0.6614,,[],[],[],[],[],[],[],0.6614,1,176.8352,177.3274,,,,,,661,FEM,CON,150,salud,,a,,,177.3274,177.3274,0.082995951,-0.08207054,0,0,0,,0,67,67,210,1,,,,
,,,,,,330cc4cf23c1a0a320f741ee,66a626ef09d4e21e1a8894ec,6734d69481feb3304fe7f0cd,2024-11-13_10h43.52.869,Tarea de género gramatical,2024.2.2,Win32,144.9275362,,,,,,,,,,,,,,,,,,,,,,177.3279,178.766,l,1,0.7726,,[],[],[],[],[],[],[],0.7726,1,178.7661,179.257,,,,,,883,FEM,CON,150,huella,,a,,,179.2571,179.2571,0.082995951,-0.08207054,0,0,0,,0,68,68,432,1,,,,
,,,,,,330cc4cf23c1a0a320f741ee,66a626ef09d4e21e1a8894ec,6734d69481feb3304fe7f0cd,2024-11-13_10h43.52.869,Tarea de género gramatical,2024.2.2,Win32,144.9275362,,,,,,,,,,,,,,,,,,,,,,179.2584,180.3776,l,1,0.4563,,[],[],[],[],[],[],[],0.4563,1,180.3778,180.8766,,,,,,751,FEM,CON,150,verdad,,a,,,180.8779,180.8787,0.082995951,-0.08207054,0,0,0,,0,69,69,300,1,,,,
,,,,,,330cc4cf23c1a0a320f741ee,66a626ef09d4e21e1a8894ec,6734d69481feb3304fe7f0cd,2024-11-13_10h43.52.869,Tarea de género gramatical,2024.2.2,Win32,144.9275362,,,,,,,,,,,,,,,,,,,,,,180.8794,181.9744,l,1,0.4251,,[],[],[],[],[],[],[],0.4251,1,181.9744,182.4632,,,,,,765,FEM,AGR,150,manera,la,a,,,182.4633,182.4633,0.082995951,-0.08207054,0,0,0,,0,70,70,314,1,,,,
,,,,,,330cc4cf23c1a0a320f741ee,66a626ef09d4e21e1a8894ec,6734d69481feb3304fe7f0cd,2024-11-13_10h43.52.869,Tarea de género gramatical,2024.2.2,Win32,144.9275362,,,,,,,,,,,,,,,,,,,,,,182.4645,183.7657,a,1,0.6332,,[],[],[],[],[],[],[],0.6332,1,183.7658,184.2671,,,,,,815,MAS,DIS,150,código,la,l,,,184.2672,184.2673,0.082995951,-0.08207054,0,0,0,,0,71,71,364,1,,,,
,,,,,,330cc4cf23c1a0a320f741ee,66a626ef09d4e21e1a8894ec,6734d69481feb3304fe7f0cd,2024-11-13_10h43.52.869,Tarea de género gramatical,2024.2.2,Win32,144.9275362,,,,,,,,,,,,,,,,,,,,,,184.2685,185.7867,a,1,0.8562,,[],[],[],[],[],[],[],0.8562,1,185.7868,186.2793,,,,,,761,MAS,DIS,150,camino,la,l,,,186.2794,186.2795,0.082995951,-0.08207054,0,0,0,,0,72,72,310,1,,,,
,,,,,,330cc4cf23c1a0a320f741ee,66a626ef09d4e21e1a8894ec,6734d69481feb3304fe7f0cd,2024-11-13_10h43.52.869,Tarea de género gramatical,2024.2.2,Win32,144.9275362,,,,,,,,,,,,,,,,,,,,,,186.2802,187.3971,l,1,0.4497,,[],[],[],[],[],[],[],0.4497,1,187.3972,187.897,,,,,,824,FEM,DIS,150,herida,el,a,,,187.8971,187.8972,0.082995951,-0.08207054,0,0,0,,0,73,73,373,1,,,,
,,,,,,330cc4cf23c1a0a320f741ee,66a626ef09d4e21e1a8894ec,6734d69481feb3304fe7f0cd,2024-11-13_10h43.52.869,Tarea de género gramatical,2024.2.2,Win32,144.9275362,,,,,,,,,,,,,,,,,,,,,,187.8988,189.2523,l,1,0.6816,,[],[],[],[],[],[],[],0.6816,1,189.2523,189.7507,,,,,,776,FEM,DIS,150,música,el,a,,,189.7511,189.752,0.082995951,-0.08207054,0,0,0,,0,74,74,325,1,,,,
,,,,,,330cc4cf23c1a0a320f741ee,66a626ef09d4e21e1a8894ec,6734d69481feb3304fe7f0cd,2024-11-13_10h43.52.869,Tarea de género gramatical,2024.2.2,Win32,144.9275362,,,,,,,,,,,,,,,,,,,,,,189.7527,190.9875,a,1,0.5556,,[],[],[],[],[],[],[],0.5556,1,190.9875,191.4872,,,,,,659,MAS,DIS,150,banco,la,l,,,191.4872,191.4873,0.082995951,-0.08207054,0,0,0,,0,75,75,208,1,,,,
,,,,,,330cc4cf23c1a0a320f741ee,66a626ef09d4e21e1a8894ec,6734d69481feb3304fe7f0cd,2024-11-13_10h43.52.869,Tarea de género gramatical,2024.2.2,Win32,144.9275362,,,,,,,,,,,,,,,,,,,,,,191.4877,192.5858,a,1,0.4274,,[],[],[],[],[],[],[],0.4274,1,192.5859,193.0818,,,,,,454,MAS,CON,150,hijo,,l,,,193.0818,193.0818,0.082995951,-0.08207054,0,0,0,,0,76,76,3,1,,,,
,,,,,,330cc4cf23c1a0a320f741ee,66a626ef09d4e21e1a8894ec,6734d69481feb3304fe7f0cd,2024-11-13_10h43.52.869,Tarea de género gramatical,2024.2.2,Win32,144.9275362,,,,,,,,,,,,,,,,,,,,,,193.0824,194.4117,l,1,0.6544,,[],[],[],[],[],[],[],0.6544,1,194.4118,194.9104,,,,,,685,FEM,CON,150,torre,,a,,,194.9105,194.9105,0.082995951,-0.08207054,0,0,0,,0,77,77,234,1,,,,
,,,,,,330cc4cf23c1a0a320f741ee,66a626ef09d4e21e1a8894ec,6734d69481feb3304fe7f0cd,2024-11-13_10h43.52.869,Tarea de género gramatical,2024.2.2,Win32,144.9275362,,,,,,,,,,,,,,,,,,,,,,194.9111,196.0202,a,1,0.4381,,[],[],[],[],[],[],[],0.4381,1,196.0204,196.527,,,,,,468,MAS,AGR,150,tren,el,l,,,196.5276,196.5285,0.082995951,-0.08207054,0,0,0,,0,78,78,17,1,,,,
,,,,,,330cc4cf23c1a0a320f741ee,66a626ef09d4e21e1a8894ec,6734d69481feb3304fe7f0cd,2024-11-13_10h43.52.869,Tarea de género gramatical,2024.2.2,Win32,144.9275362,,,,,,,,,,,,,,,,,,,,,,196.5292,197.7316,l,1,0.5319,,[],[],[],[],[],[],[],0.5319,1,197.7317,198.2229,,,,,,740,FEM,DIS,150,cabra,el,a,,,198.2229,198.2229,0.082995951,-0.08207054,0,0,0,,0,79,79,289,1,,,,
,,,,,,330cc4cf23c1a0a320f741ee,66a626ef09d4e21e1a8894ec,6734d69481feb3304fe7f0cd,2024-11-13_10h43.52.869,Tarea de género gramatical,2024.2.2,Win32,144.9275362,,,,,,,,,,,,,,,,,,,,,,198.2236,199.3349,a,1,0.4483,,[],[],[],[],[],[],[],0.4483,1,199.3351,199.8253,,,,,,582,MAS,AGR,150,velo,el,l,,,199.8254,199.8255,0.082995951,-0.08207054,0,0,0,,0,80,80,131,1,,,,
,,,,,,330cc4cf23c1a0a320f741ee,66a626ef09d4e21e1a8894ec,6734d69481feb3304fe7f0cd,2024-11-13_10h43.52.869,Tarea de género gramatical,2024.2.2,Win32,144.9275362,,,,,,,,,,,,,,,,,,,,,,199.8268,201.0093,l,1,0.5212,,[],[],[],[],[],[],[],0.5212,1,201.0094,201.5052,,,,,,613,FEM,CON,150,calle,,a,,,201.5053,201.5053,0.082995951,-0.08207054,0,0,0,,0,81,81,162,1,,,,
,,,,,,330cc4cf23c1a0a320f741ee,66a626ef09d4e21e1a8894ec,6734d69481feb3304fe7f0cd,2024-11-13_10h43.52.869,Tarea de género gramatical,2024.2.2,Win32,144.9275362,,,,,,,,,,,,,,,,,,,,,,201.5065,202.7321,a,1,0.5493,,[],[],[],[],[],[],[],0.5493,1,202.7322,203.2238,,,,,,898,MAS,CON,150,aceite,,l,,,203.2239,203.224,0.082995951,-0.08207054,0,0,0,,0,82,82,447,1,,,,
,,,,,,330cc4cf23c1a0a320f741ee,66a626ef09d4e21e1a8894ec,6734d69481feb3304fe7f0cd,2024-11-13_10h43.52.869,Tarea de género gramatical,2024.2.2,Win32,144.9275362,,,,,,,,,,,,,,,,,,,,,,203.2253,204.5905,a,1,0.6939,,[],[],[],[],[],[],[],0.6939,1,204.5906,205.0763,,,,,,491,MAS,DIS,150,bote,la,l,,,205.0775,205.0783,0.082995951,-0.08207054,0,0,0,,0,83,83,40,1,,,,
,,,,,,330cc4cf23c1a0a320f741ee,66a626ef09d4e21e1a8894ec,6734d69481feb3304fe7f0cd,2024-11-13_10h43.52.869,Tarea de género gramatical,2024.2.2,Win32,144.9275362,,,,,,,,,,,,,,,,,,,,,,205.079,206.1593,a,1,0.4216,,[],[],[],[],[],[],[],0.4216,1,206.1594,206.6607,,,,,,689,MAS,DIS,150,reloj,la,l,,,206.6607,206.6607,0.082995951,-0.08207054,0,0,0,,0,84,84,238,1,,,,
,,,,,,330cc4cf23c1a0a320f741ee,66a626ef09d4e21e1a8894ec,6734d69481feb3304fe7f0cd,2024-11-13_10h43.52.869,Tarea de género gramatical,2024.2.2,Win32,144.9275362,,,,,,,,,,,,,,,,,,,,,,206.6611,207.9328,l,1,0.5944,,[],[],[],[],[],[],[],0.5944,1,207.9329,208.4229,,,,,,560,FEM,DIS,150,rosa,el,a,,,208.4229,208.423,0.082995951,-0.08207054,0,0,0,,0,85,85,109,1,,,,
,,,,,,330cc4cf23c1a0a320f741ee,66a626ef09d4e21e1a8894ec,6734d69481feb3304fe7f0cd,2024-11-13_10h43.52.869,Tarea de género gramatical,2024.2.2,Win32,144.9275362,,,,,,,,,,,,,,,,,,,,,,208.4234,209.4659,a,1,0.382,,[],[],[],[],[],[],[],0.382,1,209.466,209.9662,,,,,,570,MAS,AGR,150,puño,el,l,,,209.9662,209.9662,0.082995951,-0.08207054,0,0,0,,0,86,86,119,1,,,,
,,,,,,330cc4cf23c1a0a320f741ee,66a626ef09d4e21e1a8894ec,6734d69481feb3304fe7f0cd,2024-11-13_10h43.52.869,Tarea de género gramatical,2024.2.2,Win32,144.9275362,,,,,,,,,,,,,,,,,,,,,,209.9668,211.1064,a,1,0.4697,,[],[],[],[],[],[],[],0.4697,1,211.1065,211.6025,,,,,,558,MAS,AGR,150,hilo,el,l,,,211.6031,211.604,0.082995951,-0.08207054,0,0,0,,0,87,87,107,1,,,,
,,,,,,330cc4cf23c1a0a320f741ee,66a626ef09d4e21e1a8894ec,6734d69481feb3304fe7f0cd,2024-11-13_10h43.52.869,Tarea de género gramatical,2024.2.2,Win32,144.9275362,,,,,,,,,,,,,,,,,,,,,,211.6046,212.6183,l,1,0.3527,,[],[],[],[],[],[],[],0.3527,1,212.6184,213.1139,,,,,,835,FEM,CON,150,muñeca,,a,,,213.114,213.1141,0.082995951,-0.08207054,0,0,0,,0,88,88,384,1,,,,
,,,,,,330cc4cf23c1a0a320f741ee,66a626ef09d4e21e1a8894ec,6734d69481feb3304fe7f0cd,2024-11-13_10h43.52.869,Tarea de género gramatical,2024.2.2,Win32,144.9275362,,,,,,,,,,,,,,,,,,,,,,213.1152,214.0855,a,1,0.3025,,[],[],[],[],[],[],[],0.3025,1,214.0857,214.5843,,,,,,810,MAS,AGR,150,puente,el,l,,,214.5843,214.5843,0.082995951,-0.08207054,0,0,0,,0,89,89,359,1,,,,
,,,,,,330cc4cf23c1a0a320f741ee,66a626ef09d4e21e1a8894ec,6734d69481feb3304fe7f0cd,2024-11-13_10h43.52.869,Tarea de género gramatical,2024.2.2,Win32,144.9275362,,,,,,,,,,,,,,,,,,,,,,214.585,215.5289,a,1,0.2806,,[],[],[],[],[],[],[],0.2806,1,215.529,216.0161,,,,,,714,MAS,AGR,150,pollo,el,l,,,216.0161,216.0162,0.082995951,-0.08207054,0,0,0,,0,90,90,263,1,,,,
,,,,,,330cc4cf23c1a0a320f741ee,66a626ef09d4e21e1a8894ec,6734d69481feb3304fe7f0cd,2024-11-13_10h43.52.869,Tarea de género gramatical,2024.2.2,Win32,144.9275362,,,,,,,,,,,,,,,,,,,,,,216.0175,217.0243,a,1,0.3358,,[],[],[],[],[],[],[],0.3358,1,217.0244,217.5214,,,,,,749,MAS,DIS,150,rumbo,la,l,,,217.5215,217.5216,0.082995951,-0.08207054,0,0,0,,0,91,91,298,1,,,,
,,,,,,330cc4cf23c1a0a320f741ee,66a626ef09d4e21e1a8894ec,6734d69481feb3304fe7f0cd,2024-11-13_10h43.52.869,Tarea de género gramatical,2024.2.2,Win32,144.9275362,,,,,,,,,,,,,,,,,,,,,,217.5228,218.6978,a,1,0.5052,,[],[],[],[],[],[],[],0.5052,1,218.6979,219.1969,,,,,,851,MAS,DIS,150,abrigo,la,l,,,219.1979,219.1987,0.082995951,-0.08207054,0,0,0,,0,92,92,400,1,,,,
,,,,,,330cc4cf23c1a0a320f741ee,66a626ef09d4e21e1a8894ec,6734d69481feb3304fe7f0cd,2024-11-13_10h43.52.869,Tarea de género gramatical,2024.2.2,Win32,144.9275362,,,,,,,,,,,,,,,,,,,,,,219.1994,220.1968,a,1,0.3291,,[],[],[],[],[],[],[],0.3291,1,220.1969,220.6821,,,,,,780,MAS,AGR,150,estado,el,l,,,220.6823,220.6824,0.082995951,-0.08207054,0,0,0,,0,93,93,329,1,,,,
,,,,,,330cc4cf23c1a0a320f741ee,66a626ef09d4e21e1a8894ec,6734d69481feb3304fe7f0cd,2024-11-13_10h43.52.869,Tarea de género gramatical,2024.2.2,Win32,144.9275362,,,,,,,,,,,,,,,,,,,,,,220.6836,222.0304,l,1,0.6813,,[],[],[],[],[],[],[],0.6813,1,222.0306,222.5219,,,,,,717,FEM,AGR,150,barba,la,a,,,222.5219,222.522,0.082995951,-0.08207054,0,0,0,,0,94,94,266,1,,,,
,,,,,,330cc4cf23c1a0a320f741ee,66a626ef09d4e21e1a8894ec,6734d69481feb3304fe7f0cd,2024-11-13_10h43.52.869,Tarea de género gramatical,2024.2.2,Win32,144.9275362,,,,,,,,,,,,,,,,,,,,,,222.5234,223.5722,a,1,0.3788,,[],[],[],[],[],[],[],0.3788,1,223.5722,224.0854,,,,,,485,MAS,DIS,150,taxi,la,l,,,224.0854,224.0854,0.082995951,-0.08207054,0,0,0,,0,95,95,34,1,,,,
,,,,,,330cc4cf23c1a0a320f741ee,66a626ef09d4e21e1a8894ec,6734d69481feb3304fe7f0cd,2024-11-13_10h43.52.869,Tarea de género gramatical,2024.2.2,Win32,144.9275362,,,,,,,,,,,,,,,,,,,,,,224.086,225.0628,a,1,0.3049,,[],[],[],[],[],[],[],0.3049,1,225.063,225.566,,,,,,532,MAS,CON,150,tubo,,l,,,225.5663,225.5667,0.082995951,-0.08207054,0,0,0,,0,96,96,81,1,,,,
,,,,,,330cc4cf23c1a0a320f741ee,66a626ef09d4e21e1a8894ec,6734d69481feb3304fe7f0cd,2024-11-13_10h43.52.869,Tarea de género gramatical,2024.2.2,Win32,144.9275362,,,,,,,,,,,,,,,,,,,,,,225.5674,226.5933,l,1,0.364,,[],[],[],[],[],[],[],0.364,1,226.5934,227.0838,,,,,,608,FEM,DIS,150,chica,el,a,,,227.0839,227.0839,0.082995951,-0.08207054,0,0,0,,0,97,97,157,1,,,,
,,,,,,330cc4cf23c1a0a320f741ee,66a626ef09d4e21e1a8894ec,6734d69481feb3304fe7f0cd,2024-11-13_10h43.52.869,Tarea de género gramatical,2024.2.2,Win32,144.9275362,,,,,,,,,,,,,,,,,,,,,,227.0851,228.0107,l,1,0.2471,,[],[],[],[],[],[],[],0.2471,1,228.0109,228.4967,,,,,,523,FEM,CON,150,roca,,a,,,228.4967,228.4967,0.082995951,-0.08207054,0,0,0,,0,98,98,72,1,,,,
,,,,,,330cc4cf23c1a0a320f741ee,66a626ef09d4e21e1a8894ec,6734d69481feb3304fe7f0cd,2024-11-13_10h43.52.869,Tarea de género gramatical,2024.2.2,Win32,144.9275362,,,,,,,,,,,,,,,,,,,,,,228.4972,229.4951,a,1,0.3229,,[],[],[],[],[],[],[],0.3229,1,229.4952,230.0087,,,,,,834,MAS,AGR,150,pedazo,el,l,,,230.0088,230.0088,0.082995951,-0.08207054,0,0,0,,0,99,99,383,1,,,,
,,,,,,330cc4cf23c1a0a320f741ee,66a626ef09d4e21e1a8894ec,6734d69481feb3304fe7f0cd,2024-11-13_10h43.52.869,Tarea de género gramatical,2024.2.2,Win32,144.9275362,,,,,,,,,,,,,,,,,,,,,,230.0094,231.0594,l,1,0.3852,,[],[],[],[],[],[],[],0.3852,1,231.0596,231.5581,,,,,,885,FEM,AGR,150,niebla,la,a,,,231.5581,231.5583,0.082995951,-0.08207054,0,0,0,,0,100,100,434,1,,,,
,,,,,,330cc4cf23c1a0a320f741ee,66a626ef09d4e21e1a8894ec,6734d69481feb3304fe7f0cd,2024-11-13_10h43.52.869,Tarea de género gramatical,2024.2.2,Win32,144.9275362,,,,,,,,,,,,,,,,,,,,,,231.5595,232.4859,a,1,0.2646,,[],[],[],[],[],[],[],0.2646,1,232.4861,232.9772,,,,,,676,MAS,CON,150,color,,l,,,232.9778,232.9786,0.082995951,-0.08207054,0,0,0,,0,101,101,225,1,,,,
,,,,,,330cc4cf23c1a0a320f741ee,66a626ef09d4e21e1a8894ec,6734d69481feb3304fe7f0cd,2024-11-13_10h43.52.869,Tarea de género gramatical,2024.2.2,Win32,144.9275362,,,,,,,,,,,,,,,,,,,,,,232.9794,234.0075,a,0,0.3677,,[],[],[],[],[],[],[],0.3677,0,234.0084,234.4924,,,,,,595,FEM,CON,150,bota,,a,,,234.4924,234.4926,0.082995951,-0.08207054,0,0,0,,0,102,102,144,1,,,,
,,,,,,330cc4cf23c1a0a320f741ee,66a626ef09d4e21e1a8894ec,6734d69481feb3304fe7f0cd,2024-11-13_10h43.52.869,Tarea de género gramatical,2024.2.2,Win32,144.9275362,,,,,,,,,,,,,,,,,,,,,,234.494,235.5995,l,1,0.436,,[],[],[],[],[],[],[],0.436,1,235.6004,236.1053,,,,,,746,FEM,DIS,150,feria,el,a,,,236.1053,236.1054,0.082995951,-0.08207054,0,0,0,,0,103,103,295,1,,,,
,,,,,,330cc4cf23c1a0a320f741ee,66a626ef09d4e21e1a8894ec,6734d69481feb3304fe7f0cd,2024-11-13_10h43.52.869,Tarea de género gramatical,2024.2.2,Win32,144.9275362,,,,,,,,,,,,,,,,,,,,,,236.1059,237.1843,l,1,0.4157,,[],[],[],[],[],[],[],0.4157,1,237.1845,237.689,,,,,,537,FEM,AGR,150,risa,la,a,,,237.689,237.689,0.082995951,-0.08207054,0,0,0,,0,104,104,86,1,,,,
,,,,,,330cc4cf23c1a0a320f741ee,66a626ef09d4e21e1a8894ec,6734d69481feb3304fe7f0cd,2024-11-13_10h43.52.869,Tarea de género gramatical,2024.2.2,Win32,144.9275362,,,,,,,,,,,,,,,,,,,,,,237.6897,238.5527,a,1,0.2001,,[],[],[],[],[],[],[],0.2001,1,238.5528,239.0508,,,,,,688,MAS,CON,150,norte,,l,,,239.0519,239.0529,0.082995951,-0.08207054,0,0,0,,0,105,105,237,1,,,,
,,,,,,330cc4cf23c1a0a320f741ee,66a626ef09d4e21e1a8894ec,6734d69481feb3304fe7f0cd,2024-11-13_10h43.52.869,Tarea de género gramatical,2024.2.2,Win32,144.9275362,,,,,,,,,,,,,,,,,,,,,,239.0541,240.0576,l,1,0.3417,,[],[],[],[],[],[],[],0.3417,1,240.0577,240.5569,,,,,,547,FEM,CON,150,capa,,a,,,240.5569,240.5569,0.082995951,-0.08207054,0,0,0,,0,106,106,96,1,,,,
,,,,,,330cc4cf23c1a0a320f741ee,66a626ef09d4e21e1a8894ec,6734d69481feb3304fe7f0cd,2024-11-13_10h43.52.869,Tarea de género gramatical,2024.2.2,Win32,144.9275362,,,,,,,,,,,,,,,,,,,,,,240.5575,241.5583,a,1,0.3357,,[],[],[],[],[],[],[],0.3357,1,241.5584,242.0578,,,,,,742,MAS,CON,150,piano,,l,,,242.0579,242.0581,0.082995951,-0.08207054,0,0,0,,0,107,107,291,1,,,,
,,,,,,330cc4cf23c1a0a320f741ee,66a626ef09d4e21e1a8894ec,6734d69481feb3304fe7f0cd,2024-11-13_10h43.52.869,Tarea de género gramatical,2024.2.2,Win32,144.9275362,,,,,,,,,,,,,,,,,,,,,,242.0592,243.211,l,1,0.4945,,[],[],[],[],[],[],[],0.4945,1,243.2112,243.7012,,,,,,571,FEM,CON,150,pila,,a,,,243.7012,243.7012,0.082995951,-0.08207054,0,0,0,,0,108,108,120,1,,,,
,,,,,,330cc4cf23c1a0a320f741ee,66a626ef09d4e21e1a8894ec,6734d69481feb3304fe7f0cd,2024-11-13_10h43.52.869,Tarea de género gramatical,2024.2.2,Win32,144.9275362,,,,,,,,,,,,,,,,,,,,,,243.7017,244.6537,l,1,0.2803,,[],[],[],[],[],[],[],0.2803,1,244.6537,245.1413,,,,,,639,FEM,AGR,150,pista,la,a,,,245.1414,245.1414,0.082995951,-0.08207054,0,0,0,,0,109,109,188,1,,,,
,,,,,,330cc4cf23c1a0a320f741ee,66a626ef09d4e21e1a8894ec,6734d69481feb3304fe7f0cd,2024-11-13_10h43.52.869,Tarea de género gramatical,2024.2.2,Win32,144.9275362,,,,,,,,,,,,,,,,,,,,,,245.1426,246.1275,l,1,0.328,,[],[],[],[],[],[],[],0.328,1,246.1276,246.6185,,,,,,753,FEM,AGR,150,maldad,la,a,,,246.6196,246.6205,0.082995951,-0.08207054,0,0,0,,0,110,110,302,1,,,,
,,,,,,330cc4cf23c1a0a320f741ee,66a626ef09d4e21e1a8894ec,6734d69481feb3304fe7f0cd,2024-11-13_10h43.52.869,Tarea de género gramatical,2024.2.2,Win32,144.9275362,,,,,,,,,,,,,,,,,,,,,,246.6212,247.5338,l,0,0.2404,,[],[],[],[],[],[],[],0.2404,0,247.5347,248.0287,,,,,,642,MAS,AGR,150,grupo,el,l,,,248.0287,248.0288,0.082995951,-0.08207054,0,0,0,,0,111,111,191,1,,,,
,,,,,,330cc4cf23c1a0a320f741ee,66a626ef09d4e21e1a8894ec,6734d69481feb3304fe7f0cd,2024-11-13_10h43.52.869,Tarea de género gramatical,2024.2.2,Win32,144.9275362,,,,,,,,,,,,,,,,,,,,,,248.0294,249.1987,a,1,0.4969,,[],[],[],[],[],[],[],0.4969,1,249.1997,249.6956,,,,,,720,MAS,AGR,150,queso,el,l,,,249.6957,249.6957,0.082995951,-0.08207054,0,0,0,,0,112,112,269,1,,,,
,,,,,,330cc4cf23c1a0a320f741ee,66a626ef09d4e21e1a8894ec,6734d69481feb3304fe7f0cd,2024-11-13_10h43.52.869,Tarea de género gramatical,2024.2.2,Win32,144.9275362,,,,,,,,,,,,,,,,,,,,,,249.6963,250.8721,l,1,0.5107,,[],[],[],[],[],[],[],0.5107,1,250.8722,251.3629,,,,,,549,FEM,AGR,150,fase,la,a,,,251.3631,251.3631,0.082995951,-0.08207054,0,0,0,,0,113,113,98,1,,,,
,,,,,,330cc4cf23c1a0a320f741ee,66a626ef09d4e21e1a8894ec,6734d69481feb3304fe7f0cd,2024-11-13_10h43.52.869,Tarea de género gramatical,2024.2.2,Win32,144.9275362,,,,,,,,,,,,,,,,,,,,,,251.3637,252.7602,l,1,0.733,,[],[],[],[],[],[],[],0.733,1,252.7603,253.271,,,,,,632,FEM,DIS,150,prisa,el,a,,,253.2716,253.2725,0.082995951,-0.08207054,0,0,0,,0,114,114,181,1,,,,
,,,,,,330cc4cf23c1a0a320f741ee,66a626ef09d4e21e1a8894ec,6734d69481feb3304fe7f0cd,2024-11-13_10h43.52.869,Tarea de género gramatical,2024.2.2,Win32,144.9275362,,,,,,,,,,,,,,,,,,,,,,253.2733,254.3023,l,1,0.351,,[],[],[],[],[],[],[],0.351,1,254.3024,254.7926,,,,,,711,FEM,AGR,150,cueva,la,a,,,254.7926,254.7927,0.082995951,-0.08207054,0,0,0,,0,115,115,260,1,,,,
,,,,,,330cc4cf23c1a0a320f741ee,66a626ef09d4e21e1a8894ec,6734d69481feb3304fe7f0cd,2024-11-13_10h43.52.869,Tarea de género gramatical,2024.2.2,Win32,144.9275362,,,,,,,,,,,,,,,,,,,,,,254.7933,255.7897,a,1,0.3284,,[],[],[],[],[],[],[],0.3284,1,255.7899,256.2859,,,,,,467,MAS,DIS,150,modo,la,l,,,256.2859,256.286,0.082995951,-0.08207054,0,0,0,,0,116,116,16,1,,,,
,,,,,,330cc4cf23c1a0a320f741ee,66a626ef09d4e21e1a8894ec,6734d69481feb3304fe7f0cd,2024-11-13_10h43.52.869,Tarea de género gramatical,2024.2.2,Win32,144.9275362,,,,,,,,,,,,,,,,,,,,,,256.2864,257.2638,a,1,0.3041,,[],[],[],[],[],[],[],0.3041,1,257.2639,257.7593,,,,,,606,MAS,AGR,150,amigo,el,l,,,257.7593,257.7595,0.082995951,-0.08207054,0,0,0,,0,117,117,155,1,,,,
,,,,,,330cc4cf23c1a0a320f741ee,66a626ef09d4e21e1a8894ec,6734d69481feb3304fe7f0cd,2024-11-13_10h43.52.869,Tarea de género gramatical,2024.2.2,Win32,144.9275362,,,,,,,,,,,,,,,,,,,,,,257.7607,258.704,a,1,0.2769,,[],[],[],[],[],[],[],0.2769,1,258.7041,259.1969,,,,,,634,MAS,CON,150,cielo,,l,,,259.1971,259.1971,0.082995951,-0.08207054,0,0,0,,0,118,118,183,1,,,,
,,,,,,330cc4cf23c1a0a320f741ee,66a626ef09d4e21e1a8894ec,6734d69481feb3304fe7f0cd,2024-11-13_10h43.52.869,Tarea de género gramatical,2024.2.2,Win32,144.9275362,,,,,,,,,,,,,,,,,,,,,,259.1984,260.1959,a,1,0.3406,,[],[],[],[],[],[],[],0.3406,1,260.196,260.6862,,,,,,696,MAS,AGR,150,humor,el,l,,,260.6875,260.6883,0.082995951,-0.08207054,0,0,0,,0,119,119,245,1,,,,
,,,,,,330cc4cf23c1a0a320f741ee,66a626ef09d4e21e1a8894ec,6734d69481feb3304fe7f0cd,2024-11-13_10h43.52.869,Tarea de género gramatical,2024.2.2,Win32,144.9275362,,,,,,,,,,,,,,,,,,,,,,260.6889,261.7744,a,1,0.4119,,[],[],[],[],[],[],[],0.4119,1,261.7745,262.2789,,,,,,660,MAS,AGR,150,baile,el,l,,,262.2789,262.279,0.082995951,-0.08207054,0,0,0,,0,120,120,209,1,,,,
,,,,,,330cc4cf23c1a0a320f741ee,66a626ef09d4e21e1a8894ec,6734d69481feb3304fe7f0cd,2024-11-13_10h43.52.869,Tarea de género gramatical,2024.2.2,Win32,144.9275362,,,,,,,,,,,,,,,,,,,,,,262.2796,263.2537,l,1,0.2958,,[],[],[],[],[],[],[],0.2958,1,263.2539,263.7591,,,,,,651,FEM,AGR,150,leche,la,a,,,263.7591,263.7592,0.082995951,-0.08207054,0,0,0,,0,121,121,200,1,,,,
,,,,,,330cc4cf23c1a0a320f741ee,66a626ef09d4e21e1a8894ec,6734d69481feb3304fe7f0cd,2024-11-13_10h43.52.869,Tarea de género gramatical,2024.2.2,Win32,144.9275362,,,,,,,,,,,,,,,,,,,,,,263.7603,264.8983,a,1,0.4745,,[],[],[],[],[],[],[],0.4745,1,264.8984,265.3945,,,,,,778,MAS,CON,150,asunto,,l,,,265.3945,265.3946,0.082995951,-0.08207054,0,0,0,,0,122,122,327,1,,,,
,,,,,,330cc4cf23c1a0a320f741ee,66a626ef09d4e21e1a8894ec,6734d69481feb3304fe7f0cd,2024-11-13_10h43.52.869,Tarea de género gramatical,2024.2.2,Win32,144.9275362,,,,,,,,,,,,,,,,,,,,,,265.3951,266.4474,l,1,0.3691,,[],[],[],[],[],[],[],0.3691,1,266.4475,266.9386,,,,,,795,FEM,AGR,150,pierna,la,a,,,266.9391,266.9399,0.082995951,-0.08207054,0,0,0,,0,123,123,344,1,,,,
,,,,,,330cc4cf23c1a0a320f741ee,66a626ef09d4e21e1a8894ec,6734d69481feb3304fe7f0cd,2024-11-13_10h43.52.869,Tarea de género gramatical,2024.2.2,Win32,144.9275362,,,,,,,,,,,,,,,,,,,,,,266.9406,267.9687,a,1,0.3637,,[],[],[],[],[],[],[],0.3637,1,267.9689,268.4608,,,,,,767,MAS,DIS,150,número,la,l,,,268.4609,268.461,0.082995951,-0.08207054,0,0,0,,0,124,124,316,1,,,,
,,,,,,330cc4cf23c1a0a320f741ee,66a626ef09d4e21e1a8894ec,6734d69481feb3304fe7f0cd,2024-11-13_10h43.52.869,Tarea de género gramatical,2024.2.2,Win32,144.9275362,,,,,,,,,,,,,,,,,,,,,,268.4622,269.4303,l,1,0.2971,,[],[],[],[],[],[],[],0.2971,1,269.4304,269.9326,,,,,,561,FEM,AGR,150,goma,la,a,,,269.9326,269.9327,0.082995951,-0.08207054,0,0,0,,0,125,125,110,1,,,,
,,,,,,330cc4cf23c1a0a320f741ee,66a626ef09d4e21e1a8894ec,6734d69481feb3304fe7f0cd,2024-11-13_10h43.52.869,Tarea de género gramatical,2024.2.2,Win32,144.9275362,,,,,,,,,,,,,,,,,,,,,,269.9332,271.1635,a,1,0.5587,,[],[],[],[],[],[],[],0.5587,1,271.1636,271.6552,,,,,,522,MAS,AGR,150,hoyo,el,l,,,271.6552,271.6552,0.082995951,-0.08207054,0,0,0,,0,126,126,71,1,,,,
,,,,,,330cc4cf23c1a0a320f741ee,66a626ef09d4e21e1a8894ec,6734d69481feb3304fe7f0cd,2024-11-13_10h43.52.869,Tarea de género gramatical,2024.2.2,Win32,144.9275362,,,,,,,,,,,,,,,,,,,,,,271.6557,272.7454,a,1,0.4273,,[],[],[],[],[],[],[],0.4273,1,272.7455,273.2499,,,,,,611,MAS,DIS,150,chico,la,l,,,273.25,273.2501,0.082995951,-0.08207054,0,0,0,,0,127,127,160,1,,,,
,,,,,,330cc4cf23c1a0a320f741ee,66a626ef09d4e21e1a8894ec,6734d69481feb3304fe7f0cd,2024-11-13_10h43.52.869,Tarea de género gramatical,2024.2.2,Win32,144.9275362,,,,,,,,,,,,,,,,,,,,,,273.2514,274.3218,a,1,0.4049,,[],[],[],[],[],[],[],0.4049,1,274.3219,274.8191,,,,,,846,MAS,AGR,150,tesoro,el,l,,,274.8196,274.8205,0.082995951,-0.08207054,0,0,0,,0,128,128,395,1,,,,
,,,,,,330cc4cf23c1a0a320f741ee,66a626ef09d4e21e1a8894ec,6734d69481feb3304fe7f0cd,2024-11-13_10h43.52.869,Tarea de género gramatical,2024.2.2,Win32,144.9275362,,,,,,,,,,,,,,,,,,,,,,274.8211,275.7821,a,1,0.2979,,[],[],[],[],[],[],[],0.2979,1,275.7823,276.2782,,,,,,455,MAS,DIS,150,tipo,la,l,,,276.2782,276.2782,0.082995951,-0.08207054,0,0,0,,0,129,129,4,1,,,,
,,,,,,330cc4cf23c1a0a320f741ee,66a626ef09d4e21e1a8894ec,6734d69481feb3304fe7f0cd,2024-11-13_10h43.52.869,Tarea de género gramatical,2024.2.2,Win32,144.9275362,,,,,,,,,,,,,,,,,,,,,,276.2788,277.204,l,1,0.2525,,[],[],[],[],[],[],[],0.2525,1,277.2042,277.6942,,,,,,530,FEM,DIS,150,vaca,el,a,,,277.6942,277.6943,0.082995951,-0.08207054,0,0,0,,0,130,130,79,1,,,,
,,,,,,330cc4cf23c1a0a320f741ee,66a626ef09d4e21e1a8894ec,6734d69481feb3304fe7f0cd,2024-11-13_10h43.52.869,Tarea de género gramatical,2024.2.2,Win32,144.9275362,,,,,,,,,,,,,,,,,,,,,,277.6947,278.6767,a,1,0.314,,[],[],[],[],[],[],[],0.314,1,278.6768,279.1818,,,,,,496,MAS,CON,150,odio,,l,,,279.1819,279.1819,0.082995951,-0.08207054,0,0,0,,0,131,131,45,1,,,,
,,,,,,330cc4cf23c1a0a320f741ee,66a626ef09d4e21e1a8894ec,6734d69481feb3304fe7f0cd,2024-11-13_10h43.52.869,Tarea de género gramatical,2024.2.2,Win32,144.9275362,,,,,,,,,,,,,,,,,,,,,,279.1824,280.3008,l,1,0.446,,[],[],[],[],[],[],[],0.446,1,280.301,280.8,,,,,,763,FEM,CON,150,ciudad,,a,,,280.8006,280.8016,0.082995951,-0.08207054,0,0,0,,0,132,132,312,1,,,,
,,,,,,330cc4cf23c1a0a320f741ee,66a626ef09d4e21e1a8894ec,6734d69481feb3304fe7f0cd,2024-11-13_10h43.52.869,Tarea de género gramatical,2024.2.2,Win32,144.9275362,,,,,,,,,,,,,,,,,,,,,,280.8024,281.8922,a,1,0.4327,,[],[],[],[],[],[],[],0.4327,1,281.8924,282.3892,,,,,,737,MAS,DIS,150,plato,la,l,,,282.3893,282.3894,0.082995951,-0.08207054,0,0,0,,0,133,133,286,1,,,,
,,,,,,330cc4cf23c1a0a320f741ee,66a626ef09d4e21e1a8894ec,6734d69481feb3304fe7f0cd,2024-11-13_10h43.52.869,Tarea de género gramatical,2024.2.2,Win32,144.9275362,,,,,,,,,,,,,,,,,,,,,,282.3906,283.4731,a,1,0.4116,,[],[],[],[],[],[],[],0.4116,1,283.4732,283.9667,,,,,,497,MAS,DIS,150,olor,la,l,,,283.9667,283.9667,0.082995951,-0.08207054,0,0,0,,0,134,134,46,1,,,,
,,,,,,330cc4cf23c1a0a320f741ee,66a626ef09d4e21e1a8894ec,6734d69481feb3304fe7f0cd,2024-11-13_10h43.52.869,Tarea de género gramatical,2024.2.2,Win32,144.9275362,,,,,,,,,,,,,,,,,,,,,,283.9673,284.9305,a,1,0.3048,,[],[],[],[],[],[],[],0.3048,1,284.9306,285.4323,,,,,,820,MAS,CON,150,seguro,,l,,,285.4324,285.4324,0.082995951,-0.08207054,0,0,0,,0,135,135,369,1,,,,
,,,,,,330cc4cf23c1a0a320f741ee,66a626ef09d4e21e1a8894ec,6734d69481feb3304fe7f0cd,2024-11-13_10h43.52.869,Tarea de género gramatical,2024.2.2,Win32,144.9275362,,,,,,,,,,,,,,,,,,,,,,285.4329,286.336,l,1,0.2444,,[],[],[],[],[],[],[],0.2444,1,286.3361,286.8289,,,,,,716,FEM,DIS,150,jaula,el,a,,,286.829,286.829,0.082995951,-0.08207054,0,0,0,,0,136,136,265,1,,,,
,,,,,,330cc4cf23c1a0a320f741ee,66a626ef09d4e21e1a8894ec,6734d69481feb3304fe7f0cd,2024-11-13_10h43.52.869,Tarea de género gramatical,2024.2.2,Win32,144.9275362,,,,,,,,,,,,,,,,,,,,,,286.8296,287.7456,l,1,0.2483,,[],[],[],[],[],[],[],0.2483,1,287.7457,288.2381,,,,,,627,FEM,AGR,150,broma,la,a,,,288.2386,288.2396,0.082995951,-0.08207054,0,0,0,,0,137,137,176,1,,,,
,,,,,,330cc4cf23c1a0a320f741ee,66a626ef09d4e21e1a8894ec,6734d69481feb3304fe7f0cd,2024-11-13_10h43.52.869,Tarea de género gramatical,2024.2.2,Win32,144.9275362,,,,,,,,,,,,,,,,,,,,,,288.2405,289.2456,a,0,0.3434,,[],[],[],[],[],[],[],0.3434,0,289.2465,289.751,,,,,,705,FEM,AGR,150,tribu,la,a,,,289.7511,289.7511,0.082995951,-0.08207054,0,0,0,,0,138,138,254,1,,,,
,,,,,,330cc4cf23c1a0a320f741ee,66a626ef09d4e21e1a8894ec,6734d69481feb3304fe7f0cd,2024-11-13_10h43.52.869,Tarea de género gramatical,2024.2.2,Win32,144.9275362,,,,,,,,,,,,,,,,,,,,,,289.7516,290.7124,a,0,0.2805,,[],[],[],[],[],[],[],0.2805,0,290.7126,291.2079,,,,,,631,FEM,CON,150,tarde,,a,,,291.208,291.2081,0.082995951,-0.08207054,0,0,0,,0,139,139,180,1,,,,
,,,,,,330cc4cf23c1a0a320f741ee,66a626ef09d4e21e1a8894ec,6734d69481feb3304fe7f0cd,2024-11-13_10h43.52.869,Tarea de género gramatical,2024.2.2,Win32,144.9275362,,,,,,,,,,,,,,,,,,,,,,291.2093,292.4378,l,1,0.5561,,[],[],[],[],[],[],[],0.5561,1,292.4388,292.9416,,,,,,811,FEM,CON,150,oferta,,a,,,292.9417,292.9418,0.082995951,-0.08207054,0,0,0,,0,140,140,360,1,,,,
,,,,,,330cc4cf23c1a0a320f741ee,66a626ef09d4e21e1a8894ec,6734d69481feb3304fe7f0cd,2024-11-13_10h43.52.869,Tarea de género gramatical,2024.2.2,Win32,144.9275362,,,,,,,,,,,,,,,,,,,,,,292.9429,294.0629,a,1,0.4515,,[],[],[],[],[],[],[],0.4515,1,294.063,294.5495,,,,,,665,MAS,DIS,150,hueso,la,l,,,294.5505,294.5517,0.082995951,-0.08207054,0,0,0,,0,141,141,214,1,,,,
,,,,,,330cc4cf23c1a0a320f741ee,66a626ef09d4e21e1a8894ec,6734d69481feb3304fe7f0cd,2024-11-13_10h43.52.869,Tarea de género gramatical,2024.2.2,Win32,144.9275362,,,,,,,,,,,,,,,,,,,,,,294.5523,295.4882,l,1,0.2648,,[],[],[],[],[],[],[],0.2648,1,295.4882,295.9895,,,,,,801,FEM,AGR,150,espada,la,a,,,295.9896,295.9896,0.082995951,-0.08207054,0,0,0,,0,142,142,350,1,,,,
,,,,,,330cc4cf23c1a0a320f741ee,66a626ef09d4e21e1a8894ec,6734d69481feb3304fe7f0cd,2024-11-13_10h43.52.869,Tarea de género gramatical,2024.2.2,Win32,144.9275362,,,,,,,,,,,,,,,,,,,,,,295.9909,297.1214,a,1,0.4606,,[],[],[],[],[],[],[],0.4606,1,297.1216,297.6267,,,,,,756,MAS,AGR,150,dinero,el,l,,,297.6267,297.6267,0.082995951,-0.08207054,0,0,0,,0,143,143,305,1,,,,
,,,,,,330cc4cf23c1a0a320f741ee,66a626ef09d4e21e1a8894ec,6734d69481feb3304fe7f0cd,2024-11-13_10h43.52.869,Tarea de género gramatical,2024.2.2,Win32,144.9275362,,,,,,,,,,,,,,,,,,,,,,297.6272,298.8025,a,1,0.5029,,[],[],[],[],[],[],[],0.5029,1,298.8026,299.2993,,,,,,640,MAS,CON,150,campo,,l,,,299.2994,299.2994,0.082995951,-0.08207054,0,0,0,,0,144,144,189,1,,,,
,,,,,,330cc4cf23c1a0a320f741ee,66a626ef09d4e21e1a8894ec,6734d69481feb3304fe7f0cd,2024-11-13_10h43.52.869,Tarea de género gramatical,2024.2.2,Win32,144.9275362,,,,,,,,,,,,,,,,,,,,,,299.3006,300.3923,l,1,0.4267,,[],[],[],[],[],[],[],0.4267,1,300.3924,300.8833,,,,,,590,FEM,DIS,150,mula,el,a,,,300.8833,300.8833,0.082995951,-0.08207054,0,0,0,,0,145,145,139,1,,,,
,,,,,,330cc4cf23c1a0a320f741ee,66a626ef09d4e21e1a8894ec,6734d69481feb3304fe7f0cd,2024-11-13_10h43.52.869,Tarea de género gramatical,2024.2.2,Win32,144.9275362,,,,,,,,,,,,,,,,,,,,,,300.8844,302.0703,l,1,0.5274,,[],[],[],[],[],[],[],0.5274,1,302.0704,302.5661,,,,,,735,FEM,AGR,150,mafia,la,a,,,302.5673,302.5683,0.082995951,-0.08207054,0,0,0,,0,146,146,284,1,,,,
,,,,,,330cc4cf23c1a0a320f741ee,66a626ef09d4e21e1a8894ec,6734d69481feb3304fe7f0cd,2024-11-13_10h43.52.869,Tarea de género gramatical,2024.2.2,Win32,144.9275362,,,,,,,,,,,,,,,,,,,,,,302.569,303.5238,a,1,0.2933,,[],[],[],[],[],[],[],0.2933,1,303.524,304.0205,,,,,,736,MAS,CON,150,reino,,l,,,304.0206,304.0208,0.082995951,-0.08207054,0,0,0,,0,147,147,285,1,,,,
,,,,,,330cc4cf23c1a0a320f741ee,66a626ef09d4e21e1a8894ec,6734d69481feb3304fe7f0cd,2024-11-13_10h43.52.869,Tarea de género gramatical,2024.2.2,Win32,144.9275362,,,,,,,,,,,,,,,,,,,,,,304.0223,305.031,a,1,0.3375,,[],[],[],[],[],[],[],0.3375,1,305.0311,305.5296,,,,,,492,MAS,AGR,150,show,el,l,,,305.5296,305.5297,0.082995951,-0.08207054,0,0,0,,0,148,148,41,1,,,,
,,,,,,330cc4cf23c1a0a320f741ee,66a626ef09d4e21e1a8894ec,6734d69481feb3304fe7f0cd,2024-11-13_10h43.52.869,Tarea de género gramatical,2024.2.2,Win32,144.9275362,,,,,,,,,,,,,,,,,,,,,,305.5301,306.4872,l,1,0.2881,,[],[],[],[],[],[],[],0.2881,1,306.4873,307.0014,,,,,,553,FEM,CON,150,fama,,a,,,307.0014,307.0014,0.082995951,-0.08207054,0,0,0,,0,149,149,102,1,,,,
,,,,,,330cc4cf23c1a0a320f741ee,66a626ef09d4e21e1a8894ec,6734d69481feb3304fe7f0cd,2024-11-13_10h43.52.869,Tarea de género gramatical,2024.2.2,Win32,144.9275362,,,,,,,,,,,,,,,,,,,,,,307.002,308.0628,l,1,0.3807,,[],[],[],[],[],[],[],0.3807,1,308.0628,308.5714,,,,,,464,FEM,DIS,150,cara,el,a,,,308.5718,326.4337,0.082995951,-0.08207054,0,0,0,space,0,150,150,13,1,17.8435,,,
,,,,,,330cc4cf23c1a0a320f741ee,66a626ef09d4e21e1a8894ec,6734d69481feb3304fe7f0cd,2024-11-13_10h43.52.869,Tarea de género gramatical,2024.2.2,Win32,144.9275362,,,,,,,,,,,,,,,,,,,,,,326.4348,327.6237,l,0,0.5135,,[],[],[],[],[],[],[],0.5135,0,327.6246,328.1338,,,,,,797,MAS,DIS,150,cuello,la,l,,,328.1338,328.1338,0.082995951,-0.08207054,0,0,0,,0,151,151,346,1,,,,
,,,,,,330cc4cf23c1a0a320f741ee,66a626ef09d4e21e1a8894ec,6734d69481feb3304fe7f0cd,2024-11-13_10h43.52.869,Tarea de género gramatical,2024.2.2,Win32,144.9275362,,,,,,,,,,,,,,,,,,,,,,328.1343,329.6416,l,1,0.8419,,[],[],[],[],[],[],[],0.8419,1,329.6425,330.1478,,,,,,602,FEM,DIS,150,gente,el,a,,,330.1478,330.1478,0.082995951,-0.08207054,0,0,0,,0,152,152,151,1,,,,
,,,,,,330cc4cf23c1a0a320f741ee,66a626ef09d4e21e1a8894ec,6734d69481feb3304fe7f0cd,2024-11-13_10h43.52.869,Tarea de género gramatical,2024.2.2,Win32,144.9275362,,,,,,,,,,,,,,,,,,,,,,330.1486,331.3664,a,1,0.5411,,[],[],[],[],[],[],[],0.5411,1,331.3666,331.8706,,,,,,786,MAS,AGR,150,crimen,el,l,,,331.8706,331.8707,0.082995951,-0.08207054,0,0,0,,0,153,153,335,1,,,,
,,,,,,330cc4cf23c1a0a320f741ee,66a626ef09d4e21e1a8894ec,6734d69481feb3304fe7f0cd,2024-11-13_10h43.52.869,Tarea de género gramatical,2024.2.2,Win32,144.9275362,,,,,,,,,,,,,,,,,,,,,,331.8718,332.8443,l,1,0.3,,[],[],[],[],[],[],[],0.3,1,332.8444,333.341,,,,,,878,FEM,DIS,150,jugada,el,a,,,333.341,333.341,0.082995951,-0.08207054,0,0,0,,0,154,154,427,1,,,,
,,,,,,330cc4cf23c1a0a320f741ee,66a626ef09d4e21e1a8894ec,6734d69481feb3304fe7f0cd,2024-11-13_10h43.52.869,Tarea de género gramatical,2024.2.2,Win32,144.9275362,,,,,,,,,,,,,,,,,,,,,,333.3422,334.545,a,1,0.5358,,[],[],[],[],[],[],[],0.5358,1,334.5452,335.0508,,,,,,498,MAS,AGR,150,loco,el,l,,,335.0519,335.0529,0.082995951,-0.08207054,0,0,0,,0,155,155,47,1,,,,
,,,,,,330cc4cf23c1a0a320f741ee,66a626ef09d4e21e1a8894ec,6734d69481feb3304fe7f0cd,2024-11-13_10h43.52.869,Tarea de género gramatical,2024.2.2,Win32,144.9275362,,,,,,,,,,,,,,,,,,,,,,335.0535,336.1356,a,1,0.4258,,[],[],[],[],[],[],[],0.4258,1,336.1357,336.6275,,,,,,750,MAS,AGR,150,túnel,el,l,,,336.6276,336.6277,0.082995951,-0.08207054,0,0,0,,0,156,156,299,1,,,,
,,,,,,330cc4cf23c1a0a320f741ee,66a626ef09d4e21e1a8894ec,6734d69481feb3304fe7f0cd,2024-11-13_10h43.52.869,Tarea de género gramatical,2024.2.2,Win32,144.9275362,,,,,,,,,,,,,,,,,,,,,,336.629,337.6418,a,1,0.3497,,[],[],[],[],[],[],[],0.3497,1,337.6419,338.1479,,,,,,694,MAS,CON,150,hielo,,l,,,338.1479,338.1479,0.082995951,-0.08207054,0,0,0,,0,157,157,243,1,,,,
,,,,,,330cc4cf23c1a0a320f741ee,66a626ef09d4e21e1a8894ec,6734d69481feb3304fe7f0cd,2024-11-13_10h43.52.869,Tarea de género gramatical,2024.2.2,Win32,144.9275362,,,,,,,,,,,,,,,,,,,,,,338.1485,339.0597,l,1,0.2434,,[],[],[],[],[],[],[],0.2434,1,339.06,339.5571,,,,,,727,FEM,CON,150,plaza,,a,,,339.5571,339.5572,0.082995951,-0.08207054,0,0,0,,0,158,158,276,1,,,,
,,,,,,330cc4cf23c1a0a320f741ee,66a626ef09d4e21e1a8894ec,6734d69481feb3304fe7f0cd,2024-11-13_10h43.52.869,Tarea de género gramatical,2024.2.2,Win32,144.9275362,,,,,,,,,,,,,,,,,,,,,,339.5576,340.7621,a,0,0.5311,,[],[],[],[],[],[],[],0.5311,0,340.7628,341.2599,,,,,,884,FEM,DIS,150,corona,el,a,,,341.261,341.2619,0.082995951,-0.08207054,0,0,0,,0,159,159,433,1,,,,
,,,,,,330cc4cf23c1a0a320f741ee,66a626ef09d4e21e1a8894ec,6734d69481feb3304fe7f0cd,2024-11-13_10h43.52.869,Tarea de género gramatical,2024.2.2,Win32,144.9275362,,,,,,,,,,,,,,,,,,,,,,341.2626,342.3029,l,1,0.3775,,[],[],[],[],[],[],[],0.3775,1,342.3038,342.7926,,,,,,848,FEM,DIS,150,hierba,el,a,,,342.7927,342.7927,0.082995951,-0.08207054,0,0,0,,0,160,160,397,1,,,,
,,,,,,330cc4cf23c1a0a320f741ee,66a626ef09d4e21e1a8894ec,6734d69481feb3304fe7f0cd,2024-11-13_10h43.52.869,Tarea de género gramatical,2024.2.2,Win32,144.9275362,,,,,,,,,,,,,,,,,,,,,,342.7932,344.1174,a,1,0.6601,,[],[],[],[],[],[],[],0.6601,1,344.1175,344.6121,,,,,,521,MAS,DIS,150,pozo,la,l,,,344.6122,344.6123,0.082995951,-0.08207054,0,0,0,,0,161,161,70,1,,,,
,,,,,,330cc4cf23c1a0a320f741ee,66a626ef09d4e21e1a8894ec,6734d69481feb3304fe7f0cd,2024-11-13_10h43.52.869,Tarea de género gramatical,2024.2.2,Win32,144.9275362,,,,,,,,,,,,,,,,,,,,,,344.6134,345.8987,a,1,0.6226,,[],[],[],[],[],[],[],0.6226,1,345.8988,346.3908,,,,,,779,MAS,DIS,150,futuro,la,l,,,346.3909,346.391,0.082995951,-0.08207054,0,0,0,,0,162,162,328,1,,,,
,,,,,,330cc4cf23c1a0a320f741ee,66a626ef09d4e21e1a8894ec,6734d69481feb3304fe7f0cd,2024-11-13_10h43.52.869,Tarea de género gramatical,2024.2.2,Win32,144.9275362,,,,,,,,,,,,,,,,,,,,,,346.3921,347.3965,l,1,0.3193,,[],[],[],[],[],[],[],0.3193,1,347.3966,347.8901,,,,,,757,FEM,CON,150,suerte,,a,,,347.8901,347.8903,0.082995951,-0.08207054,0,0,0,,0,163,163,306,1,,,,
,,,,,,330cc4cf23c1a0a320f741ee,66a626ef09d4e21e1a8894ec,6734d69481feb3304fe7f0cd,2024-11-13_10h43.52.869,Tarea de género gramatical,2024.2.2,Win32,144.9275362,,,,,,,,,,,,,,,,,,,,,,347.8915,348.9181,a,1,0.3662,,[],[],[],[],[],[],[],0.3662,1,348.9182,349.4198,,,,,,724,MAS,CON,150,motor,,l,,,349.4207,349.4216,0.082995951,-0.08207054,0,0,0,,0,164,164,273,1,,,,
,,,,,,330cc4cf23c1a0a320f741ee,66a626ef09d4e21e1a8894ec,6734d69481feb3304fe7f0cd,2024-11-13_10h43.52.869,Tarea de género gramatical,2024.2.2,Win32,144.9275362,,,,,,,,,,,,,,,,,,,,,,349.4222,350.438,a,1,0.3512,,[],[],[],[],[],[],[],0.3512,1,350.4381,350.9482,,,,,,772,MAS,CON,150,minuto,,l,,,350.9482,350.9483,0.082995951,-0.08207054,0,0,0,,0,165,165,321,1,,,,
,,,,,,330cc4cf23c1a0a320f741ee,66a626ef09d4e21e1a8894ec,6734d69481feb3304fe7f0cd,2024-11-13_10h43.52.869,Tarea de género gramatical,2024.2.2,Win32,144.9275362,,,,,,,,,,,,,,,,,,,,,,350.9489,351.9713,a,1,0.3519,,[],[],[],[],[],[],[],0.3519,1,351.9714,352.4685,,,,,,564,MAS,AGR,150,menú,el,l,,,352.4686,352.4686,0.082995951,-0.08207054,0,0,0,,0,166,166,113,1,,,,
,,,,,,330cc4cf23c1a0a320f741ee,66a626ef09d4e21e1a8894ec,6734d69481feb3304fe7f0cd,2024-11-13_10h43.52.869,Tarea de género gramatical,2024.2.2,Win32,144.9275362,,,,,,,,,,,,,,,,,,,,,,352.4698,353.4179,a,1,0.276,,[],[],[],[],[],[],[],0.276,1,353.4179,353.9189,,,,,,624,MAS,AGR,150,perro,el,l,,,353.919,353.919,0.082995951,-0.08207054,0,0,0,,0,167,167,173,1,,,,
,,,,,,330cc4cf23c1a0a320f741ee,66a626ef09d4e21e1a8894ec,6734d69481feb3304fe7f0cd,2024-11-13_10h43.52.869,Tarea de género gramatical,2024.2.2,Win32,144.9275362,,,,,,,,,,,,,,,,,,,,,,353.9194,354.9521,l,1,0.3699,,[],[],[],[],[],[],[],0.3699,1,354.9522,355.4515,,,,,,626,FEM,DIS,150,línea,el,a,,,355.4527,355.4537,0.082995951,-0.08207054,0,0,0,,0,168,168,175,1,,,,
,,,,,,330cc4cf23c1a0a320f741ee,66a626ef09d4e21e1a8894ec,6734d69481feb3304fe7f0cd,2024-11-13_10h43.52.869,Tarea de género gramatical,2024.2.2,Win32,144.9275362,,,,,,,,,,,,,,,,,,,,,,355.4544,356.4908,a,1,0.369,,[],[],[],[],[],[],[],0.369,1,356.4909,357.0009,,,,,,654,MAS,AGR,150,papel,el,l,,,357.0009,357.001,0.082995951,-0.08207054,0,0,0,,0,169,169,203,1,,,,
,,,,,,330cc4cf23c1a0a320f741ee,66a626ef09d4e21e1a8894ec,6734d69481feb3304fe7f0cd,2024-11-13_10h43.52.869,Tarea de género gramatical,2024.2.2,Win32,144.9275362,,,,,,,,,,,,,,,,,,,,,,357.0015,358.0548,l,1,0.3932,,[],[],[],[],[],[],[],0.3932,1,358.0549,358.5563,,,,,,663,FEM,AGR,150,magia,la,a,,,358.5563,358.5564,0.082995951,-0.08207054,0,0,0,,0,170,170,212,1,,,,
,,,,,,330cc4cf23c1a0a320f741ee,66a626ef09d4e21e1a8894ec,6734d69481feb3304fe7f0cd,2024-11-13_10h43.52.869,Tarea de género gramatical,2024.2.2,Win32,144.9275362,,,,,,,,,,,,,,,,,,,,,,358.5569,359.5725,l,1,0.3521,,[],[],[],[],[],[],[],0.3521,1,359.5726,360.0581,,,,,,788,FEM,DIS,150,abuela,el,a,,,360.0583,360.0583,0.082995951,-0.08207054,0,0,0,,0,171,171,337,1,,,,
,,,,,,330cc4cf23c1a0a320f741ee,66a626ef09d4e21e1a8894ec,6734d69481feb3304fe7f0cd,2024-11-13_10h43.52.869,Tarea de género gramatical,2024.2.2,Win32,144.9275362,,,,,,,,,,,,,,,,,,,,,,360.0596,361.0225,a,1,0.2968,,[],[],[],[],[],[],[],0.2968,1,361.0226,361.5186,,,,,,744,MAS,AGR,150,cable,el,l,,,361.5186,361.5186,0.082995951,-0.08207054,0,0,0,,0,172,172,293,1,,,,
,,,,,,330cc4cf23c1a0a320f741ee,66a626ef09d4e21e1a8894ec,6734d69481feb3304fe7f0cd,2024-11-13_10h43.52.869,Tarea de género gramatical,2024.2.2,Win32,144.9275362,,,,,,,,,,,,,,,,,,,,,,361.5193,362.4909,a,1,0.3082,,[],[],[],[],[],[],[],0.3082,1,362.4909,362.9958,,,,,,677,MAS,DIS,150,vuelo,la,l,,,362.997,362.9978,0.082995951,-0.08207054,0,0,0,,0,173,173,226,1,,,,
,,,,,,330cc4cf23c1a0a320f741ee,66a626ef09d4e21e1a8894ec,6734d69481feb3304fe7f0cd,2024-11-13_10h43.52.869,Tarea de género gramatical,2024.2.2,Win32,144.9275362,,,,,,,,,,,,,,,,,,,,,,362.9985,363.9477,l,1,0.2789,,[],[],[],[],[],[],[],0.2789,1,363.9477,364.4478,,,,,,529,FEM,CON,150,mina,,a,,,364.4479,364.4479,0.082995951,-0.08207054,0,0,0,,0,174,174,78,1,,,,
,,,,,,330cc4cf23c1a0a320f741ee,66a626ef09d4e21e1a8894ec,6734d69481feb3304fe7f0cd,2024-11-13_10h43.52.869,Tarea de género gramatical,2024.2.2,Win32,144.9275362,,,,,,,,,,,,,,,,,,,,,,364.4483,365.5168,a,1,0.3983,,[],[],[],[],[],[],[],0.3983,1,365.5169,366.0234,,,,,,550,MAS,CON,150,nido,,l,,,366.0234,366.0234,0.082995951,-0.08207054,0,0,0,,0,175,175,99,1,,,,
,,,,,,330cc4cf23c1a0a320f741ee,66a626ef09d4e21e1a8894ec,6734d69481feb3304fe7f0cd,2024-11-13_10h43.52.869,Tarea de género gramatical,2024.2.2,Win32,144.9275362,,,,,,,,,,,,,,,,,,,,,,366.0239,367.122,a,1,0.4339,,[],[],[],[],[],[],[],0.4339,1,367.1221,367.6171,,,,,,545,MAS,DIS,150,tomo,la,l,,,367.6171,367.6171,0.082995951,-0.08207054,0,0,0,,0,176,176,94,1,,,,
,,,,,,330cc4cf23c1a0a320f741ee,66a626ef09d4e21e1a8894ec,6734d69481feb3304fe7f0cd,2024-11-13_10h43.52.869,Tarea de género gramatical,2024.2.2,Win32,144.9275362,,,,,,,,,,,,,,,,,,,,,,367.6175,368.7099,l,1,0.4327,,[],[],[],[],[],[],[],0.4327,1,368.7101,369.2178,,,,,,649,FEM,CON,150,nariz,,a,,,369.2184,369.2193,0.082995951,-0.08207054,0,0,0,,0,177,177,198,1,,,,
,,,,,,330cc4cf23c1a0a320f741ee,66a626ef09d4e21e1a8894ec,6734d69481feb3304fe7f0cd,2024-11-13_10h43.52.869,Tarea de género gramatical,2024.2.2,Win32,144.9275362,,,,,,,,,,,,,,,,,,,,,,369.2201,370.1834,l,0,0.3019,,[],[],[],[],[],[],[],0.3019,0,370.1842,370.6764,,,,,,514,MAS,CON,150,saco,,l,,,370.6764,370.6765,0.082995951,-0.08207054,0,0,0,,0,178,178,63,1,,,,
,,,,,,330cc4cf23c1a0a320f741ee,66a626ef09d4e21e1a8894ec,6734d69481feb3304fe7f0cd,2024-11-13_10h43.52.869,Tarea de género gramatical,2024.2.2,Win32,144.9275362,,,,,,,,,,,,,,,,,,,,,,370.6771,372.1078,l,1,0.7559,,[],[],[],[],[],[],[],0.7559,1,372.1086,372.6031,,,,,,518,FEM,DIS,150,pata,el,a,,,372.6033,372.6034,0.082995951,-0.08207054,0,0,0,,0,179,179,67,1,,,,
,,,,,,330cc4cf23c1a0a320f741ee,66a626ef09d4e21e1a8894ec,6734d69481feb3304fe7f0cd,2024-11-13_10h43.52.869,Tarea de género gramatical,2024.2.2,Win32,144.9275362,,,,,,,,,,,,,,,,,,,,,,372.6045,373.684,a,1,0.4096,,[],[],[],[],[],[],[],0.4096,1,373.6841,374.1726,,,,,,803,MAS,DIS,150,verano,la,l,,,374.1727,374.1727,0.082995951,-0.08207054,0,0,0,,0,180,180,352,1,,,,
,,,,,,330cc4cf23c1a0a320f741ee,66a626ef09d4e21e1a8894ec,6734d69481feb3304fe7f0cd,2024-11-13_10h43.52.869,Tarea de género gramatical,2024.2.2,Win32,144.9275362,,,,,,,,,,,,,,,,,,,,,,374.1732,375.115,l,1,0.2748,,[],[],[],[],[],[],[],0.2748,1,375.1151,375.6199,,,,,,567,FEM,AGR,150,raya,la,a,,,375.6199,375.6199,0.082995951,-0.08207054,0,0,0,,0,181,181,116,1,,,,
,,,,,,330cc4cf23c1a0a320f741ee,66a626ef09d4e21e1a8894ec,6734d69481feb3304fe7f0cd,2024-11-13_10h43.52.869,Tarea de género gramatical,2024.2.2,Win32,144.9275362,,,,,,,,,,,,,,,,,,,,,,375.6209,376.6557,l,1,0.3696,,[],[],[],[],[],[],[],0.3696,1,376.6558,377.1485,,,,,,475,FEM,CON,150,nave,,a,,,377.1491,377.15,0.082995951,-0.08207054,0,0,0,,0,182,182,24,1,,,,
,,,,,,330cc4cf23c1a0a320f741ee,66a626ef09d4e21e1a8894ec,6734d69481feb3304fe7f0cd,2024-11-13_10h43.52.869,Tarea de género gramatical,2024.2.2,Win32,144.9275362,,,,,,,,,,,,,,,,,,,,,,377.1507,378.17,l,1,0.3517,,[],[],[],[],[],[],[],0.3517,1,378.1701,378.6669,,,,,,722,FEM,DIS,150,oreja,el,a,,,378.6669,378.6669,0.082995951,-0.08207054,0,0,0,,0,183,183,271,1,,,,
,,,,,,330cc4cf23c1a0a320f741ee,66a626ef09d4e21e1a8894ec,6734d69481feb3304fe7f0cd,2024-11-13_10h43.52.869,Tarea de género gramatical,2024.2.2,Win32,144.9275362,,,,,,,,,,,,,,,,,,,,,,378.6673,379.6499,l,1,0.3002,,[],[],[],[],[],[],[],0.3002,1,379.65,380.1474,,,,,,566,FEM,DIS,150,nube,el,a,,,380.1474,380.1475,0.082995951,-0.08207054,0,0,0,,0,184,184,115,1,,,,
,,,,,,330cc4cf23c1a0a320f741ee,66a626ef09d4e21e1a8894ec,6734d69481feb3304fe7f0cd,2024-11-13_10h43.52.869,Tarea de género gramatical,2024.2.2,Win32,144.9275362,,,,,,,,,,,,,,,,,,,,,,380.1481,381.0876,l,1,0.2666,,[],[],[],[],[],[],[],0.2666,1,381.0878,381.5783,,,,,,451,FEM,CON,150,casa,,a,,,381.5783,381.5783,0.082995951,-0.08207054,0,0,0,,0,185,185,0,1,,,,
,,,,,,330cc4cf23c1a0a320f741ee,66a626ef09d4e21e1a8894ec,6734d69481feb3304fe7f0cd,2024-11-13_10h43.52.869,Tarea de género gramatical,2024.2.2,Win32,144.9275362,,,,,,,,,,,,,,,,,,,,,,381.5788,382.4951,l,1,0.255,,[],[],[],[],[],[],[],0.255,1,382.4952,382.9948,,,,,,541,FEM,CON,150,hoja,,a,,,382.9958,382.9967,0.082995951,-0.08207054,0,0,0,,0,186,186,90,1,,,,
,,,,,,330cc4cf23c1a0a320f741ee,66a626ef09d4e21e1a8894ec,6734d69481feb3304fe7f0cd,2024-11-13_10h43.52.869,Tarea de género gramatical,2024.2.2,Win32,144.9275362,,,,,,,,,,,,,,,,,,,,,,382.9973,384.2342,l,1,0.5709,,[],[],[],[],[],[],[],0.5709,1,384.2343,384.7241,,,,,,895,FEM,CON,150,bondad,,a,,,384.7242,384.7243,0.082995951,-0.08207054,0,0,0,,0,187,187,444,1,,,,
,,,,,,330cc4cf23c1a0a320f741ee,66a626ef09d4e21e1a8894ec,6734d69481feb3304fe7f0cd,2024-11-13_10h43.52.869,Tarea de género gramatical,2024.2.2,Win32,144.9275362,,,,,,,,,,,,,,,,,,,,,,384.7255,385.733,a,1,0.3435,,[],[],[],[],[],[],[],0.3435,1,385.7332,386.2388,,,,,,900,MAS,AGR,150,conejo,el,l,,,386.2388,386.2388,0.082995951,-0.08207054,0,0,0,,0,188,188,449,1,,,,
,,,,,,330cc4cf23c1a0a320f741ee,66a626ef09d4e21e1a8894ec,6734d69481feb3304fe7f0cd,2024-11-13_10h43.52.869,Tarea de género gramatical,2024.2.2,Win32,144.9275362,,,,,,,,,,,,,,,,,,,,,,386.2395,387.2184,l,1,0.3065,,[],[],[],[],[],[],[],0.3065,1,387.2185,387.7285,,,,,,759,FEM,AGR,150,esposa,la,a,,,387.7286,387.7286,0.082995951,-0.08207054,0,0,0,,0,189,189,308,1,,,,
,,,,,,330cc4cf23c1a0a320f741ee,66a626ef09d4e21e1a8894ec,6734d69481feb3304fe7f0cd,2024-11-13_10h43.52.869,Tarea de género gramatical,2024.2.2,Win32,144.9275362,,,,,,,,,,,,,,,,,,,,,,387.729,388.969,a,1,0.5724,,[],[],[],[],[],[],[],0.5724,1,388.9692,389.4672,,,,,,653,MAS,DIS,150,novio,la,l,,,389.4672,389.4672,0.082995951,-0.08207054,0,0,0,,0,190,190,202,1,,,,
,,,,,,330cc4cf23c1a0a320f741ee,66a626ef09d4e21e1a8894ec,6734d69481feb3304fe7f0cd,2024-11-13_10h43.52.869,Tarea de género gramatical,2024.2.2,Win32,144.9275362,,,,,,,,,,,,,,,,,,,,,,389.4678,390.7219,a,1,0.5973,,[],[],[],[],[],[],[],0.5973,1,390.722,391.2123,,,,,,509,MAS,DIS,150,lobo,la,l,,,391.2134,391.2143,0.082995951,-0.08207054,0,0,0,,0,191,191,58,1,,,,
,,,,,,330cc4cf23c1a0a320f741ee,66a626ef09d4e21e1a8894ec,6734d69481feb3304fe7f0cd,2024-11-13_10h43.52.869,Tarea de género gramatical,2024.2.2,Win32,144.9275362,,,,,,,,,,,,,,,,,,,,,,391.2153,392.2813,a,1,0.3972,,[],[],[],[],[],[],[],0.3972,1,392.2815,392.794,,,,,,882,MAS,AGR,150,océano,el,l,,,392.794,392.7941,0.082995951,-0.08207054,0,0,0,,0,192,192,431,1,,,,
,,,,,,330cc4cf23c1a0a320f741ee,66a626ef09d4e21e1a8894ec,6734d69481feb3304fe7f0cd,2024-11-13_10h43.52.869,Tarea de género gramatical,2024.2.2,Win32,144.9275362,,,,,,,,,,,,,,,,,,,,,,392.7945,393.8643,a,1,0.3976,,[],[],[],[],[],[],[],0.3976,1,393.8643,394.3702,,,,,,760,MAS,CON,150,nombre,,l,,,394.3702,394.3702,0.082995951,-0.08207054,0,0,0,,0,193,193,309,1,,,,
,,,,,,330cc4cf23c1a0a320f741ee,66a626ef09d4e21e1a8894ec,6734d69481feb3304fe7f0cd,2024-11-13_10h43.52.869,Tarea de género gramatical,2024.2.2,Win32,144.9275362,,,,,,,,,,,,,,,,,,,,,,394.3707,395.6353,a,1,0.6074,,[],[],[],[],[],[],[],0.6074,1,395.6353,396.1267,,,,,,641,MAS,DIS,150,dolor,la,l,,,396.1267,396.1269,0.082995951,-0.08207054,0,0,0,,0,194,194,190,1,,,,
,,,,,,330cc4cf23c1a0a320f741ee,66a626ef09d4e21e1a8894ec,6734d69481feb3304fe7f0cd,2024-11-13_10h43.52.869,Tarea de género gramatical,2024.2.2,Win32,144.9275362,,,,,,,,,,,,,,,,,,,,,,396.1281,397.1704,l,1,0.3771,,[],[],[],[],[],[],[],0.3771,1,397.1706,397.6671,,,,,,770,FEM,DIS,150,fiesta,el,a,,,397.6682,397.669,0.082995951,-0.08207054,0,0,0,,0,195,195,319,1,,,,
,,,,,,330cc4cf23c1a0a320f741ee,66a626ef09d4e21e1a8894ec,6734d69481feb3304fe7f0cd,2024-11-13_10h43.52.869,Tarea de género gramatical,2024.2.2,Win32,144.9275362,,,,,,,,,,,,,,,,,,,,,,397.6697,398.5989,l,1,0.2651,,[],[],[],[],[],[],[],0.2651,1,398.599,399.1137,,,,,,470,FEM,DIS,150,ropa,el,a,,,399.1137,399.1137,0.082995951,-0.08207054,0,0,0,,0,196,196,19,1,,,,
,,,,,,330cc4cf23c1a0a320f741ee,66a626ef09d4e21e1a8894ec,6734d69481feb3304fe7f0cd,2024-11-13_10h43.52.869,Tarea de género gramatical,2024.2.2,Win32,144.9275362,,,,,,,,,,,,,,,,,,,,,,399.1144,400.0608,a,1,0.286,,[],[],[],[],[],[],[],0.286,1,400.0609,400.5522,,,,,,762,MAS,AGR,150,equipo,el,l,,,400.5522,400.5522,0.082995951,-0.08207054,0,0,0,,0,197,197,311,1,,,,
,,,,,,330cc4cf23c1a0a320f741ee,66a626ef09d4e21e1a8894ec,6734d69481feb3304fe7f0cd,2024-11-13_10h43.52.869,Tarea de género gramatical,2024.2.2,Win32,144.9275362,,,,,,,,,,,,,,,,,,,,,,400.5528,401.5147,a,1,0.3009,,[],[],[],[],[],[],[],0.3009,1,401.5148,402.0099,,,,,,568,MAS,CON,150,baúl,,l,,,402.0101,402.0103,0.082995951,-0.08207054,0,0,0,,0,198,198,117,1,,,,
,,,,,,330cc4cf23c1a0a320f741ee,66a626ef09d4e21e1a8894ec,6734d69481feb3304fe7f0cd,2024-11-13_10h43.52.869,Tarea de género gramatical,2024.2.2,Win32,144.9275362,,,,,,,,,,,,,,,,,,,,,,402.0114,403.0881,l,1,0.4053,,[],[],[],[],[],[],[],0.4053,1,403.0883,403.5853,,,,,,710,FEM,DIS,150,barra,el,a,,,403.5853,403.5853,0.082995951,-0.08207054,0,0,0,,0,199,199,259,1,,,,
,,,,,,330cc4cf23c1a0a320f741ee,66a626ef09d4e21e1a8894ec,6734d69481feb3304fe7f0cd,2024-11-13_10h43.52.869,Tarea de género gramatical,2024.2.2,Win32,144.9275362,,,,,,,,,,,,,,,,,,,,,,403.586,405.0175,a,1,0.76,,[],[],[],[],[],[],[],0.76,1,405.0176,405.5076,,,,,,666,MAS,AGR,150,éxito,el,l,,,405.5086,405.5095,0.082995951,-0.08207054,0,0,0,,0,200,200,215,1,,,,
,,,,,,330cc4cf23c1a0a320f741ee,66a626ef09d4e21e1a8894ec,6734d69481feb3304fe7f0cd,2024-11-13_10h43.52.869,Tarea de género gramatical,2024.2.2,Win32,144.9275362,,,,,,,,,,,,,,,,,,,,,,405.5101,406.5164,l,1,0.3479,,[],[],[],[],[],[],[],0.3479,1,406.5165,407.0093,,,,,,680,FEM,DIS,150,regla,el,a,,,407.0095,407.0095,0.082995951,-0.08207054,0,0,0,,0,201,201,229,1,,,,
,,,,,,330cc4cf23c1a0a320f741ee,66a626ef09d4e21e1a8894ec,6734d69481feb3304fe7f0cd,2024-11-13_10h43.52.869,Tarea de género gramatical,2024.2.2,Win32,144.9275362,,,,,,,,,,,,,,,,,,,,,,407.0101,408.0314,a,1,0.3579,,[],[],[],[],[],[],[],0.3579,1,408.0315,408.5442,,,,,,731,MAS,DIS,150,actor,la,l,,,408.5442,408.5442,0.082995951,-0.08207054,0,0,0,,0,202,202,280,1,,,,
,,,,,,330cc4cf23c1a0a320f741ee,66a626ef09d4e21e1a8894ec,6734d69481feb3304fe7f0cd,2024-11-13_10h43.52.869,Tarea de género gramatical,2024.2.2,Win32,144.9275362,,,,,,,,,,,,,,,,,,,,,,408.5448,409.6219,l,1,0.4062,,[],[],[],[],[],[],[],0.4062,1,409.622,410.1262,,,,,,656,FEM,DIS,150,época,el,a,,,410.1263,410.1263,0.082995951,-0.08207054,0,0,0,,0,203,203,205,1,,,,
,,,,,,330cc4cf23c1a0a320f741ee,66a626ef09d4e21e1a8894ec,6734d69481feb3304fe7f0cd,2024-11-13_10h43.52.869,Tarea de género gramatical,2024.2.2,Win32,144.9275362,,,,,,,,,,,,,,,,,,,,,,410.1276,411.1606,l,1,0.3552,,[],[],[],[],[],[],[],0.3552,1,411.1607,411.6519,,,,,,597,FEM,AGR,150,grúa,la,a,,,411.653,411.6538,0.082995951,-0.08207054,0,0,0,,0,204,204,146,1,,,,
,,,,,,330cc4cf23c1a0a320f741ee,66a626ef09d4e21e1a8894ec,6734d69481feb3304fe7f0cd,2024-11-13_10h43.52.869,Tarea de género gramatical,2024.2.2,Win32,144.9275362,,,,,,,,,,,,,,,,,,,,,,411.6546,412.7214,a,1,0.4011,,[],[],[],[],[],[],[],0.4011,1,412.7215,413.2219,,,,,,557,MAS,DIS,150,cubo,la,l,,,413.222,413.222,0.082995951,-0.08207054,0,0,0,,0,205,205,106,1,,,,
,,,,,,330cc4cf23c1a0a320f741ee,66a626ef09d4e21e1a8894ec,6734d69481feb3304fe7f0cd,2024-11-13_10h43.52.869,Tarea de género gramatical,2024.2.2,Win32,144.9275362,,,,,,,,,,,,,,,,,,,,,,413.2225,414.3003,l,1,0.4083,,[],[],[],[],[],[],[],0.4083,1,414.3004,414.8015,,,,,,621,FEM,AGR,150,mitad,la,a,,,414.8015,414.8015,0.082995951,-0.08207054,0,0,0,,0,206,206,170,1,,,,
,,,,,,330cc4cf23c1a0a320f741ee,66a626ef09d4e21e1a8894ec,6734d69481feb3304fe7f0cd,2024-11-13_10h43.52.869,Tarea de género gramatical,2024.2.2,Win32,144.9275362,,,,,,,,,,,,,,,,,,,,,,414.8021,415.8664,a,1,0.3918,,[],[],[],[],[],[],[],0.3918,1,415.8665,416.3695,,,,,,515,MAS,DIS,150,rayo,la,l,,,416.3695,416.3696,0.082995951,-0.08207054,0,0,0,,0,207,207,64,1,,,,
,,,,,,330cc4cf23c1a0a320f741ee,66a626ef09d4e21e1a8894ec,6734d69481feb3304fe7f0cd,2024-11-13_10h43.52.869,Tarea de género gramatical,2024.2.2,Win32,144.9275362,,,,,,,,,,,,,,,,,,,,,,416.3709,417.3423,l,1,0.2984,,[],[],[],[],[],[],[],0.2984,1,417.3424,417.8338,,,,,,817,FEM,CON,150,teoría,,a,,,417.8338,417.8338,0.082995951,-0.08207054,0,0,0,,0,208,208,366,1,,,,
,,,,,,330cc4cf23c1a0a320f741ee,66a626ef09d4e21e1a8894ec,6734d69481feb3304fe7f0cd,2024-11-13_10h43.52.869,Tarea de género gramatical,2024.2.2,Win32,144.9275362,,,,,,,,,,,,,,,,,,,,,,417.8342,418.9619,l,1,0.4615,,[],[],[],[],[],[],[],0.4615,1,418.9621,419.4652,,,,,,674,FEM,DIS,150,arena,el,a,,,419.4657,419.4669,0.082995951,-0.08207054,0,0,0,,0,209,209,223,1,,,,
,,,,,,330cc4cf23c1a0a320f741ee,66a626ef09d4e21e1a8894ec,6734d69481feb3304fe7f0cd,2024-11-13_10h43.52.869,Tarea de género gramatical,2024.2.2,Win32,144.9275362,,,,,,,,,,,,,,,,,,,,,,419.4675,420.3922,l,1,0.2647,,[],[],[],[],[],[],[],0.2647,1,420.3924,420.8872,,,,,,783,FEM,AGR,150,locura,la,a,,,420.8872,420.8873,0.082995951,-0.08207054,0,0,0,,0,210,210,332,1,,,,
,,,,,,330cc4cf23c1a0a320f741ee,66a626ef09d4e21e1a8894ec,6734d69481feb3304fe7f0cd,2024-11-13_10h43.52.869,Tarea de género gramatical,2024.2.2,Win32,144.9275362,,,,,,,,,,,,,,,,,,,,,,420.8884,421.9576,a,1,0.3928,,[],[],[],[],[],[],[],0.3928,1,421.9578,422.4614,,,,,,888,MAS,AGR,150,tanque,el,l,,,422.4614,422.4614,0.082995951,-0.08207054,0,0,0,,0,211,211,437,1,,,,
,,,,,,330cc4cf23c1a0a320f741ee,66a626ef09d4e21e1a8894ec,6734d69481feb3304fe7f0cd,2024-11-13_10h43.52.869,Tarea de género gramatical,2024.2.2,Win32,144.9275362,,,,,,,,,,,,,,,,,,,,,,422.4621,423.56,a,1,0.4338,,[],[],[],[],[],[],[],0.4338,1,423.5602,424.063,,,,,,881,MAS,DIS,150,veneno,la,l,,,424.063,424.0631,0.082995951,-0.08207054,0,0,0,,0,212,212,430,1,,,,
,,,,,,330cc4cf23c1a0a320f741ee,66a626ef09d4e21e1a8894ec,6734d69481feb3304fe7f0cd,2024-11-13_10h43.52.869,Tarea de género gramatical,2024.2.2,Win32,144.9275362,,,,,,,,,,,,,,,,,,,,,,424.0635,424.9906,l,1,0.2595,,[],[],[],[],[],[],[],0.2595,1,424.9907,425.4867,,,,,,747,FEM,AGR,150,manta,la,a,,,425.4878,425.4888,0.082995951,-0.08207054,0,0,0,,0,213,213,296,1,,,,
,,,,,,330cc4cf23c1a0a320f741ee,66a626ef09d4e21e1a8894ec,6734d69481feb3304fe7f0cd,2024-11-13_10h43.52.869,Tarea de género gramatical,2024.2.2,Win32,144.9275362,,,,,,,,,,,,,,,,,,,,,,425.4896,426.4192,l,1,0.267,,[],[],[],[],[],[],[],0.267,1,426.4193,426.9178,,,,,,794,FEM,DIS,150,pareja,el,a,,,426.9181,426.9182,0.082995951,-0.08207054,0,0,0,,0,214,214,343,1,,,,
,,,,,,330cc4cf23c1a0a320f741ee,66a626ef09d4e21e1a8894ec,6734d69481feb3304fe7f0cd,2024-11-13_10h43.52.869,Tarea de género gramatical,2024.2.2,Win32,144.9275362,,,,,,,,,,,,,,,,,,,,,,426.9194,427.8999,l,1,0.3135,,[],[],[],[],[],[],[],0.3135,1,427.9,428.3949,,,,,,769,FEM,CON,150,sangre,,a,,,428.395,428.3951,0.082995951,-0.08207054,0,0,0,,0,215,215,318,1,,,,
,,,,,,330cc4cf23c1a0a320f741ee,66a626ef09d4e21e1a8894ec,6734d69481feb3304fe7f0cd,2024-11-13_10h43.52.869,Tarea de género gramatical,2024.2.2,Win32,144.9275362,,,,,,,,,,,,,,,,,,,,,,428.3964,429.4181,l,1,0.3537,,[],[],[],[],[],[],[],0.3537,1,429.4182,429.9154,,,,,,825,FEM,AGR,150,cadena,la,a,,,429.9154,429.9155,0.082995951,-0.08207054,0,0,0,,0,216,216,374,1,,,,
,,,,,,330cc4cf23c1a0a320f741ee,66a626ef09d4e21e1a8894ec,6734d69481feb3304fe7f0cd,2024-11-13_10h43.52.869,Tarea de género gramatical,2024.2.2,Win32,144.9275362,,,,,,,,,,,,,,,,,,,,,,429.9159,430.8068,l,1,0.2238,,[],[],[],[],[],[],[],0.2238,1,430.807,431.3077,,,,,,841,FEM,CON,150,altura,,a,,,431.3077,431.3077,0.082995951,-0.08207054,0,0,0,,0,217,217,390,1,,,,
,,,,,,330cc4cf23c1a0a320f741ee,66a626ef09d4e21e1a8894ec,6734d69481feb3304fe7f0cd,2024-11-13_10h43.52.869,Tarea de género gramatical,2024.2.2,Win32,144.9275362,,,,,,,,,,,,,,,,,,,,,,431.3086,432.2234,l,1,0.2526,,[],[],[],[],[],[],[],0.2526,1,432.2236,432.7322,,,,,,620,FEM,DIS,150,carta,el,a,,,432.7327,432.7337,0.082995951,-0.08207054,0,0,0,,0,218,218,169,1,,,,
,,,,,,330cc4cf23c1a0a320f741ee,66a626ef09d4e21e1a8894ec,6734d69481feb3304fe7f0cd,2024-11-13_10h43.52.869,Tarea de género gramatical,2024.2.2,Win32,144.9275362,,,,,,,,,,,,,,,,,,,,,,432.7344,433.6222,a,1,0.2102,,[],[],[],[],[],[],[],0.2102,1,433.6222,434.1225,,,,,,816,MAS,AGR,150,riesgo,el,l,,,434.1226,434.1226,0.082995951,-0.08207054,0,0,0,,0,219,219,365,1,,,,
,,,,,,330cc4cf23c1a0a320f741ee,66a626ef09d4e21e1a8894ec,6734d69481feb3304fe7f0cd,2024-11-13_10h43.52.869,Tarea de género gramatical,2024.2.2,Win32,144.9275362,,,,,,,,,,,,,,,,,,,,,,434.1235,435.069,a,1,0.2803,,[],[],[],[],[],[],[],0.2803,1,435.0691,435.5652,,,,,,743,MAS,DIS,150,patio,la,l,,,435.5653,435.5653,0.082995951,-0.08207054,0,0,0,,0,220,220,292,1,,,,
,,,,,,330cc4cf23c1a0a320f741ee,66a626ef09d4e21e1a8894ec,6734d69481feb3304fe7f0cd,2024-11-13_10h43.52.869,Tarea de género gramatical,2024.2.2,Win32,144.9275362,,,,,,,,,,,,,,,,,,,,,,435.5658,436.5494,a,1,0.3058,,[],[],[],[],[],[],[],0.3058,1,436.5495,437.0521,,,,,,504,MAS,AGR,150,humo,el,l,,,437.0521,437.0522,0.082995951,-0.08207054,0,0,0,,0,221,221,53,1,,,,
,,,,,,330cc4cf23c1a0a320f741ee,66a626ef09d4e21e1a8894ec,6734d69481feb3304fe7f0cd,2024-11-13_10h43.52.869,Tarea de género gramatical,2024.2.2,Win32,144.9275362,,,,,,,,,,,,,,,,,,,,,,437.0533,437.9743,l,1,0.2493,,[],[],[],[],[],[],[],0.2493,1,437.9744,438.4744,,,,,,548,FEM,DIS,150,fuga,el,a,,,438.4748,438.4757,0.082995951,-0.08207054,0,0,0,,0,222,222,97,1,,,,
,,,,,,330cc4cf23c1a0a320f741ee,66a626ef09d4e21e1a8894ec,6734d69481feb3304fe7f0cd,2024-11-13_10h43.52.869,Tarea de género gramatical,2024.2.2,Win32,144.9275362,,,,,,,,,,,,,,,,,,,,,,438.4763,439.7258,l,1,0.581,,[],[],[],[],[],[],[],0.581,1,439.7259,440.2288,,,,,,697,FEM,CON,150,frase,,a,,,440.2289,440.229,0.082995951,-0.08207054,0,0,0,,0,223,223,246,1,,,,
,,,,,,330cc4cf23c1a0a320f741ee,66a626ef09d4e21e1a8894ec,6734d69481feb3304fe7f0cd,2024-11-13_10h43.52.869,Tarea de género gramatical,2024.2.2,Win32,144.9275362,,,,,,,,,,,,,,,,,,,,,,440.2303,441.2938,a,1,0.3817,,[],[],[],[],[],[],[],0.3817,1,441.2939,441.787,,,,,,870,MAS,AGR,150,helado,el,l,,,441.7872,441.7873,0.082995951,-0.08207054,0,0,0,,0,224,224,419,1,,,,
,,,,,,330cc4cf23c1a0a320f741ee,66a626ef09d4e21e1a8894ec,6734d69481feb3304fe7f0cd,2024-11-13_10h43.52.869,Tarea de género gramatical,2024.2.2,Win32,144.9275362,,,,,,,,,,,,,,,,,,,,,,441.7888,442.8169,l,1,0.361,,[],[],[],[],[],[],[],0.361,1,442.817,443.3092,,,,,,585,FEM,AGR,150,raíz,la,a,,,443.3094,443.3095,0.082995951,-0.08207054,0,0,0,,0,225,225,134,1,,,,
,,,,,,330cc4cf23c1a0a320f741ee,66a626ef09d4e21e1a8894ec,6734d69481feb3304fe7f0cd,2024-11-13_10h43.52.869,Tarea de género gramatical,2024.2.2,Win32,144.9275362,,,,,,,,,,,,,,,,,,,,,,443.3106,444.184,l,1,0.212,,[],[],[],[],[],[],[],0.212,1,444.1842,444.6837,,,,,,655,FEM,CON,150,reina,,a,,,444.6838,444.6839,0.082995951,-0.08207054,0,0,0,,0,226,226,204,1,,,,
,,,,,,330cc4cf23c1a0a320f741ee,66a626ef09d4e21e1a8894ec,6734d69481feb3304fe7f0cd,2024-11-13_10h43.52.869,Tarea de género gramatical,2024.2.2,Win32,144.9275362,,,,,,,,,,,,,,,,,,,,,,444.685,445.7312,a,1,0.3895,,[],[],[],[],[],[],[],0.3895,1,445.7313,446.2169,,,,,,766,MAS,CON,150,cuerpo,,l,,,446.2179,446.2188,0.082995951,-0.08207054,0,0,0,,0,227,227,315,1,,,,
,,,,,,330cc4cf23c1a0a320f741ee,66a626ef09d4e21e1a8894ec,6734d69481feb3304fe7f0cd,2024-11-13_10h43.52.869,Tarea de género gramatical,2024.2.2,Win32,144.9275362,,,,,,,,,,,,,,,,,,,,,,446.2194,447.246,a,1,0.3572,,[],[],[],[],[],[],[],0.3572,1,447.2461,447.7418,,,,,,828,MAS,AGR,150,pastel,el,l,,,447.7419,447.742,0.082995951,-0.08207054,0,0,0,,0,228,228,377,1,,,,
,,,,,,330cc4cf23c1a0a320f741ee,66a626ef09d4e21e1a8894ec,6734d69481feb3304fe7f0cd,2024-11-13_10h43.52.869,Tarea de género gramatical,2024.2.2,Win32,144.9275362,,,,,,,,,,,,,,,,,,,,,,447.7433,448.8078,l,1,0.3971,,[],[],[],[],[],[],[],0.3971,1,448.8079,449.2997,,,,,,866,FEM,DIS,150,colina,el,a,,,449.2998,449.2998,0.082995951,-0.08207054,0,0,0,,0,229,229,415,1,,,,
,,,,,,330cc4cf23c1a0a320f741ee,66a626ef09d4e21e1a8894ec,6734d69481feb3304fe7f0cd,2024-11-13_10h43.52.869,Tarea de género gramatical,2024.2.2,Win32,144.9275362,,,,,,,,,,,,,,,,,,,,,,449.301,450.4272,a,1,0.4631,,[],[],[],[],[],[],[],0.4631,1,450.4273,450.9405,,,,,,863,MAS,DIS,150,diario,la,l,,,450.9406,450.9406,0.082995951,-0.08207054,0,0,0,,0,230,230,412,1,,,,
,,,,,,330cc4cf23c1a0a320f741ee,66a626ef09d4e21e1a8894ec,6734d69481feb3304fe7f0cd,2024-11-13_10h43.52.869,Tarea de género gramatical,2024.2.2,Win32,144.9275362,,,,,,,,,,,,,,,,,,,,,,450.9411,452.0873,a,1,0.4823,,[],[],[],[],[],[],[],0.4823,1,452.0874,452.5789,,,,,,893,MAS,DIS,150,templo,la,l,,,452.5799,452.5808,0.082995951,-0.08207054,0,0,0,,0,231,231,442,1,,,,
,,,,,,330cc4cf23c1a0a320f741ee,66a626ef09d4e21e1a8894ec,6734d69481feb3304fe7f0cd,2024-11-13_10h43.52.869,Tarea de género gramatical,2024.2.2,Win32,144.9275362,,,,,,,,,,,,,,,,,,,,,,452.5815,453.5882,a,1,0.3289,,[],[],[],[],[],[],[],0.3289,1,453.5883,454.0857,,,,,,887,MAS,DIS,150,hombro,la,l,,,454.0857,454.0858,0.082995951,-0.08207054,0,0,0,,0,232,232,436,1,,,,
,,,,,,330cc4cf23c1a0a320f741ee,66a626ef09d4e21e1a8894ec,6734d69481feb3304fe7f0cd,2024-11-13_10h43.52.869,Tarea de género gramatical,2024.2.2,Win32,144.9275362,,,,,,,,,,,,,,,,,,,,,,454.0862,455.0105,l,1,0.25,,[],[],[],[],[],[],[],0.25,1,455.0106,455.5118,,,,,,607,FEM,CON,150,madre,,a,,,455.5118,455.5119,0.082995951,-0.08207054,0,0,0,,0,233,233,156,1,,,,
,,,,,,330cc4cf23c1a0a320f741ee,66a626ef09d4e21e1a8894ec,6734d69481feb3304fe7f0cd,2024-11-13_10h43.52.869,Tarea de género gramatical,2024.2.2,Win32,144.9275362,,,,,,,,,,,,,,,,,,,,,,455.5133,456.4344,l,1,0.2588,,[],[],[],[],[],[],[],0.2588,1,456.4345,456.9472,,,,,,729,FEM,AGR,150,selva,la,a,,,456.9473,456.9473,0.082995951,-0.08207054,0,0,0,,0,234,234,278,1,,,,
,,,,,,330cc4cf23c1a0a320f741ee,66a626ef09d4e21e1a8894ec,6734d69481feb3304fe7f0cd,2024-11-13_10h43.52.869,Tarea de género gramatical,2024.2.2,Win32,144.9275362,,,,,,,,,,,,,,,,,,,,,,456.9478,457.9391,a,1,0.3326,,[],[],[],[],[],[],[],0.3326,1,457.9393,458.4308,,,,,,773,MAS,DIS,150,marido,la,l,,,458.4308,458.4309,0.082995951,-0.08207054,0,0,0,,0,235,235,322,1,,,,
,,,,,,330cc4cf23c1a0a320f741ee,66a626ef09d4e21e1a8894ec,6734d69481feb3304fe7f0cd,2024-11-13_10h43.52.869,Tarea de género gramatical,2024.2.2,Win32,144.9275362,,,,,,,,,,,,,,,,,,,,,,458.432,459.3694,a,1,0.2685,,[],[],[],[],[],[],[],0.2685,1,459.3696,459.861,,,,,,862,MAS,CON,150,espejo,,l,,,459.8625,459.8634,0.082995951,-0.08207054,0,0,0,,0,236,236,411,1,,,,
,,,,,,330cc4cf23c1a0a320f741ee,66a626ef09d4e21e1a8894ec,6734d69481feb3304fe7f0cd,2024-11-13_10h43.52.869,Tarea de género gramatical,2024.2.2,Win32,144.9275362,,,,,,,,,,,,,,,,,,,,,,459.864,460.9154,l,1,0.386,,[],[],[],[],[],[],[],0.386,1,460.9156,461.4134,,,,,,619,FEM,CON,150,vista,,a,,,461.4135,461.4135,0.082995951,-0.08207054,0,0,0,,0,237,237,168,1,,,,
,,,,,,330cc4cf23c1a0a320f741ee,66a626ef09d4e21e1a8894ec,6734d69481feb3304fe7f0cd,2024-11-13_10h43.52.869,Tarea de género gramatical,2024.2.2,Win32,144.9275362,,,,,,,,,,,,,,,,,,,,,,461.4147,462.4557,a,1,0.3779,,[],[],[],[],[],[],[],0.3779,1,462.456,462.9585,,,,,,528,MAS,AGR,150,oído,el,l,,,462.9585,462.9585,0.082995951,-0.08207054,0,0,0,,0,238,238,77,1,,,,
,,,,,,330cc4cf23c1a0a320f741ee,66a626ef09d4e21e1a8894ec,6734d69481feb3304fe7f0cd,2024-11-13_10h43.52.869,Tarea de género gramatical,2024.2.2,Win32,144.9275362,,,,,,,,,,,,,,,,,,,,,,462.9592,464.1903,a,0,0.5504,,[],[],[],[],[],[],[],0.5504,0,464.1913,464.69,,,,,,452,FEM,DIS,150,vida,el,a,,,464.69,464.69,0.082995951,-0.08207054,0,0,0,,0,239,239,1,1,,,,
,,,,,,330cc4cf23c1a0a320f741ee,66a626ef09d4e21e1a8894ec,6734d69481feb3304fe7f0cd,2024-11-13_10h43.52.869,Tarea de género gramatical,2024.2.2,Win32,144.9275362,,,,,,,,,,,,,,,,,,,,,,464.6911,465.8766,a,1,0.5265,,[],[],[],[],[],[],[],0.5265,1,465.8776,466.3712,,,,,,899,MAS,DIS,150,payaso,la,l,,,466.3725,466.3735,0.082995951,-0.08207054,0,0,0,,0,240,240,448,1,,,,
,,,,,,330cc4cf23c1a0a320f741ee,66a626ef09d4e21e1a8894ec,6734d69481feb3304fe7f0cd,2024-11-13_10h43.52.869,Tarea de género gramatical,2024.2.2,Win32,144.9275362,,,,,,,,,,,,,,,,,,,,,,466.3743,467.3805,l,1,0.3421,,[],[],[],[],[],[],[],0.3421,1,467.3806,467.8833,,,,,,482,FEM,DIS,150,caja,el,a,,,467.8834,467.8835,0.082995951,-0.08207054,0,0,0,,0,241,241,31,1,,,,
,,,,,,330cc4cf23c1a0a320f741ee,66a626ef09d4e21e1a8894ec,6734d69481feb3304fe7f0cd,2024-11-13_10h43.52.869,Tarea de género gramatical,2024.2.2,Win32,144.9275362,,,,,,,,,,,,,,,,,,,,,,467.8849,468.9731,a,1,0.4245,,[],[],[],[],[],[],[],0.4245,1,468.9732,469.4671,,,,,,804,MAS,AGR,150,camión,el,l,,,469.4671,469.4672,0.082995951,-0.08207054,0,0,0,,0,242,242,353,1,,,,
,,,,,,330cc4cf23c1a0a320f741ee,66a626ef09d4e21e1a8894ec,6734d69481feb3304fe7f0cd,2024-11-13_10h43.52.869,Tarea de género gramatical,2024.2.2,Win32,144.9275362,,,,,,,,,,,,,,,,,,,,,,469.4683,470.5009,l,1,0.3751,,[],[],[],[],[],[],[],0.3751,1,470.501,471.0021,,,,,,831,FEM,AGR,150,bebida,la,a,,,471.0021,471.0022,0.082995951,-0.08207054,0,0,0,,0,243,243,380,1,,,,
,,,,,,330cc4cf23c1a0a320f741ee,66a626ef09d4e21e1a8894ec,6734d69481feb3304fe7f0cd,2024-11-13_10h43.52.869,Tarea de género gramatical,2024.2.2,Win32,144.9275362,,,,,,,,,,,,,,,,,,,,,,471.0026,472.2727,l,1,0.5956,,[],[],[],[],[],[],[],0.5956,1,472.2729,472.773,,,,,,691,FEM,CON,150,pasta,,a,,,472.773,472.7731,0.082995951,-0.08207054,0,0,0,,0,244,244,240,1,,,,
,,,,,,330cc4cf23c1a0a320f741ee,66a626ef09d4e21e1a8894ec,6734d69481feb3304fe7f0cd,2024-11-13_10h43.52.869,Tarea de género gramatical,2024.2.2,Win32,144.9275362,,,,,,,,,,,,,,,,,,,,,,472.7735,473.7683,a,1,0.3218,,[],[],[],[],[],[],[],0.3218,1,473.7685,474.2743,,,,,,869,MAS,DIS,150,cuento,la,l,,,474.2749,474.276,0.082995951,-0.08207054,0,0,0,,0,245,245,418,1,,,,
,,,,,,330cc4cf23c1a0a320f741ee,66a626ef09d4e21e1a8894ec,6734d69481feb3304fe7f0cd,2024-11-13_10h43.52.869,Tarea de género gramatical,2024.2.2,Win32,144.9275362,,,,,,,,,,,,,,,,,,,,,,474.2767,475.2468,l,1,0.2917,,[],[],[],[],[],[],[],0.2917,1,475.2469,475.7512,,,,,,889,FEM,CON,150,toalla,,a,,,475.7513,475.7513,0.082995951,-0.08207054,0,0,0,,0,246,246,438,1,,,,
,,,,,,330cc4cf23c1a0a320f741ee,66a626ef09d4e21e1a8894ec,6734d69481feb3304fe7f0cd,2024-11-13_10h43.52.869,Tarea de género gramatical,2024.2.2,Win32,144.9275362,,,,,,,,,,,,,,,,,,,,,,475.7517,476.831,l,0,0.4088,,[],[],[],[],[],[],[],0.4088,0,476.8318,477.3292,,,,,,539,MAS,DIS,150,maíz,la,l,,,477.3293,477.3293,0.082995951,-0.08207054,0,0,0,,0,247,247,88,1,,,,
,,,,,,330cc4cf23c1a0a320f741ee,66a626ef09d4e21e1a8894ec,6734d69481feb3304fe7f0cd,2024-11-13_10h43.52.869,Tarea de género gramatical,2024.2.2,Win32,144.9275362,,,,,,,,,,,,,,,,,,,,,,477.3301,478.282,a,1,0.2851,,[],[],[],[],[],[],[],0.2851,1,478.2828,478.7778,,,,,,581,MAS,DIS,150,kilo,la,l,,,478.7779,478.778,0.082995951,-0.08207054,0,0,0,,0,248,248,130,1,,,,
,,,,,,330cc4cf23c1a0a320f741ee,66a626ef09d4e21e1a8894ec,6734d69481feb3304fe7f0cd,2024-11-13_10h43.52.869,Tarea de género gramatical,2024.2.2,Win32,144.9275362,,,,,,,,,,,,,,,,,,,,,,478.7793,479.8163,l,1,0.3624,,[],[],[],[],[],[],[],0.3624,1,479.8165,480.3151,,,,,,872,FEM,DIS,150,rutina,el,a,,,480.3156,480.3163,0.082995951,-0.08207054,0,0,0,,0,249,249,421,1,,,,
,,,,,,330cc4cf23c1a0a320f741ee,66a626ef09d4e21e1a8894ec,6734d69481feb3304fe7f0cd,2024-11-13_10h43.52.869,Tarea de género gramatical,2024.2.2,Win32,144.9275362,,,,,,,,,,,,,,,,,,,,,,480.317,481.6637,a,1,0.6879,,[],[],[],[],[],[],[],0.6879,1,481.6638,482.1612,,,,,,748,MAS,CON,150,botón,,l,,,482.1612,482.1613,0.082995951,-0.08207054,0,0,0,,0,250,250,297,1,,,,
,,,,,,330cc4cf23c1a0a320f741ee,66a626ef09d4e21e1a8894ec,6734d69481feb3304fe7f0cd,2024-11-13_10h43.52.869,Tarea de género gramatical,2024.2.2,Win32,144.9275362,,,,,,,,,,,,,,,,,,,,,,482.1626,483.4559,l,1,0.628,,[],[],[],[],[],[],[],0.628,1,483.4561,483.9548,,,,,,458,FEM,DIS,150,idea,el,a,,,483.9548,483.955,0.082995951,-0.08207054,0,0,0,,0,251,251,7,1,,,,
