counterbalancing_condition,consent_prescreening.block_1/declare_consent,consent_prescreening.block_1/age_years,consent_prescreening.block_1/gender,consent_prescreening.block_1/language_disorder,consent_prescreening.block_1/first_language,PROLIFIC_PID,STUDY_ID,SESSION_ID,date,expName,psychopyVersion,OS,frameRate,check_prescreening_answers.started,check_prescreening_answers.stopped,Instructions.started,Instructions.stopped,instr_done_keyboard.keys,instr_done_touch.x,instr_done_touch.y,instr_done_touch.leftButton,instr_done_touch.midButton,instr_done_touch.rightButton,instr_done_touch.clicked_name,instruction_pages.thisRepN,instruction_pages.thisTrialN,instruction_pages.thisN,instruction_pages.thisIndex,instruction_pages.ran,pageN,phase,instruct_text,has_image,instruct_image,presentTrial.started,presentTrial.stopped,response.keys,response.corr,touch_resp.x,touch_resp.y,touch_resp.leftButton,touch_resp.midButton,touch_resp.rightButton,touch_resp.time,touch_resp.clicked_name,rt,corr,feedback.started,feedback.stopped,practice_trials.thisRepN,practice_trials.thisTrialN,practice_trials.thisN,practice_trials.thisIndex,practice_trials.ran,TrialID,StimulusType,Condition,PrimeDuration,Prime,Flanker,corrAns,response.rt,response.duration,instr_done_keyboard.rt,instr_done_keyboard.duration,Break.started,Break.stopped,break_done_touch.x,break_done_touch.y,break_done_touch.leftButton,break_done_touch.midButton,break_done_touch.rightButton,break_done_keyboard.keys,experiment_trials.thisRepN,experiment_trials.thisTrialN,experiment_trials.thisN,experiment_trials.thisIndex,experiment_trials.ran,break_done_keyboard.rt,break_done_keyboard.duration,End.started,End.stopped
2,"[""over_18"",""comfortable"",""read_info"",""consent_given""]",52,F,"[""none""]","[""spanish""]",3378427f4c1e21efcdb70a2d,66a626ef09d4e21e1a8894ec,6734e039daa07db9fbaff9f5,2024-11-13_12h24.24.674,Tarea de género gramatical,2024.2.2,Win32,59.88023952,,,,,,,,,,,,,,,,,,,,,,,,,,,,,,,,,,,,,,,,,,,,,,,,,,,,,,,,,,,,,,,,,,,,,
,,,,,,3378427f4c1e21efcdb70a2d,66a626ef09d4e21e1a8894ec,6734e039daa07db9fbaff9f5,2024-11-13_12h24.24.674,Tarea de género gramatical,2024.2.2,Win32,59.88023952,46.3618,46.362,,,,,,,,,,,,,,,,,,,,,,,,,,,,,,,,,,,,,,,,,,,,,,,,,,,,,,,,,,,,,,,,,,,
,,,,,,3378427f4c1e21efcdb70a2d,66a626ef09d4e21e1a8894ec,6734e039daa07db9fbaff9f5,2024-11-13_12h24.24.674,Tarea de género gramatical,2024.2.2,Win32,59.88023952,,,46.3903,68.0274,,0.033446584,-0.404236813,1,0,0,instr_done_button,0,0,0,0,1,1,instructions,"INSTRUCCIONES
Va a realizar una prueba de selección gramatical. Desde el comienzo de la prueba mire siempre al centro de la pantalla. Al cabo de un momento, aparecerán palabras. La tarea consiste en determinar si la palabra del centro (siempre será un sustantivo), pertenece al género masculino o femenino.

Pulse la tecla ESPACIO o toque el botón de abajo para continuar.",0,keyboardresponseMF.png,,,,,,,,,,,,,,,,,,,,,,,,,,,,,,,,,,,,,,,,,,,,,,,,
,,,,,,3378427f4c1e21efcdb70a2d,66a626ef09d4e21e1a8894ec,6734e039daa07db9fbaff9f5,2024-11-13_12h24.24.674,Tarea de género gramatical,2024.2.2,Win32,59.88023952,,,68.0316,89.6596,,-0.095994283,-0.405161394,1,0,0,instr_done_button,0,1,1,1,1,2,instructions,"Si su dispositivo tiene teclado, pulse la tecla ""A"" para las palabras en masculino (por ejemplo: ""arroz"") y la tecla ""L"" para las palabras en femenino (por ejemplo: ""mano"").
Pulse la tecla ESPACIO o toque el botón de abajo para continuar.",1,keyboardresponseMF.png,,,,,,,,,,,,,,,,,,,,,,,,,,,,,,,,,,,,,,,,,,,,,,,,
,,,,,,3378427f4c1e21efcdb70a2d,66a626ef09d4e21e1a8894ec,6734e039daa07db9fbaff9f5,2024-11-13_12h24.24.674,Tarea de género gramatical,2024.2.2,Win32,59.88023952,,,89.6642,102.7588,,-0.0146315,-0.399613911,1,0,0,instr_done_button,0,2,2,2,1,3,instructions,"Si utiliza un dispositivo sólo táctil, colóquelo en horizontal y utilice los botones de la pantalla. No utilice el ratón.
Pulse la tecla ESPACIO o toque el botón de abajo para continuar.",2,touchresponseMF.png,,,,,,,,,,,,,,,,,,,,,,,,,,,,,,,,,,,,,,,,,,,,,,,,
,,,,,,3378427f4c1e21efcdb70a2d,66a626ef09d4e21e1a8894ec,6734e039daa07db9fbaff9f5,2024-11-13_12h24.24.674,Tarea de género gramatical,2024.2.2,Win32,59.88023952,,,102.7632,118.5929,,-0.010008597,-0.409784296,1,0,0,instr_done_button,0,3,3,3,1,4,instructions,"Es muy importante que responda con la mayor rapidez y precisión posibles, ya que cada cadena de letras sólo estará en pantalla durante un instante. Si no responde en ese tiempo, aparecerá el mensaje ""Muy lento"" y el experimento pasará a la siguiente palabra. Los primeros 15 intentos serán de práctica y habrá dos descansos durante la prueba.
Pulse la tecla ESPACIO o toque el botón de abajo para iniciar la parte de práctica.",0,keyboardresponseMF.png,,,,,,,,,,,,,,,,,,,,,,,,,,,,,,,,,,,,,,,,,,,,,,,,
,,,,,,3378427f4c1e21efcdb70a2d,66a626ef09d4e21e1a8894ec,6734e039daa07db9fbaff9f5,2024-11-13_12h24.24.674,Tarea de género gramatical,2024.2.2,Win32,59.88023952,,,,,,,,,,,,,,,,,,,,,,118.6121,121.2599,,0,[],[],[],[],[],[],[],,-1,121.2606,121.7599,0,0,0,6,1,2007,FEM,AGR,150,navaja,la,a,,,,,,,,,,,,,,,,,,,,,
,,,,,,3378427f4c1e21efcdb70a2d,66a626ef09d4e21e1a8894ec,6734e039daa07db9fbaff9f5,2024-11-13_12h24.24.674,Tarea de género gramatical,2024.2.2,Win32,59.88023952,,,,,,,,,,,,,,,,,,,,,,121.763,123.6099,l,1,[],[],[],[],[],[],[],1.1746,1,123.6205,124.1092,0,1,1,4,1,2005,FEM,CON,150,placa,,a,1.1746,,,,,,,,,,,,,,,,,,,,
,,,,,,3378427f4c1e21efcdb70a2d,66a626ef09d4e21e1a8894ec,6734e039daa07db9fbaff9f5,2024-11-13_12h24.24.674,Tarea de género gramatical,2024.2.2,Win32,59.88023952,,,,,,,,,,,,,,,,,,,,,,124.1122,125.4611,l,1,[],[],[],[],[],[],[],0.675,1,125.4613,125.9594,0,2,2,0,1,2001,FEM,AGR,150,nuca,la,a,0.675,,,,,,,,,,,,,,,,,,,,
,,,,,,3378427f4c1e21efcdb70a2d,66a626ef09d4e21e1a8894ec,6734e039daa07db9fbaff9f5,2024-11-13_12h24.24.674,Tarea de género gramatical,2024.2.2,Win32,59.88023952,,,,,,,,,,,,,,,,,,,,,,125.9627,127.0755,l,1,[],[],[],[],[],[],[],0.4343,1,127.0759,127.5759,0,3,3,3,1,2004,FEM,AGR,150,venta,la,a,0.4343,,,,,,,,,,,,,,,,,,,,
,,,,,,3378427f4c1e21efcdb70a2d,66a626ef09d4e21e1a8894ec,6734e039daa07db9fbaff9f5,2024-11-13_12h24.24.674,Tarea de género gramatical,2024.2.2,Win32,59.88023952,,,,,,,,,,,,,,,,,,,,,,127.5784,128.6258,l,1,[],[],[],[],[],[],[],0.3734,1,128.626,129.1263,0,4,4,1,1,2002,FEM,CON,150,pala,,a,0.3734,,,,,,,,,,,,,,,,,,,,
,,,,,,3378427f4c1e21efcdb70a2d,66a626ef09d4e21e1a8894ec,6734e039daa07db9fbaff9f5,2024-11-13_12h24.24.674,Tarea de género gramatical,2024.2.2,Win32,59.88023952,,,,,,,,,,,,,,,,,,,,,,129.1303,130.2754,a,1,[],[],[],[],[],[],[],0.4647,1,130.2756,130.7762,0,5,5,8,1,2009,MAS,DIS,150,puerto,la,l,0.4647,,,,,,,,,,,,,,,,,,,,
,,,,,,3378427f4c1e21efcdb70a2d,66a626ef09d4e21e1a8894ec,6734e039daa07db9fbaff9f5,2024-11-13_12h24.24.674,Tarea de género gramatical,2024.2.2,Win32,59.88023952,,,,,,,,,,,,,,,,,,,,,,130.7792,131.8923,l,1,[],[],[],[],[],[],[],0.4424,1,131.8924,132.3927,0,6,6,7,1,2008,FEM,CON,150,siesta,,a,0.4424,,,,,,,,,,,,,,,,,,,,
,,,,,,3378427f4c1e21efcdb70a2d,66a626ef09d4e21e1a8894ec,6734e039daa07db9fbaff9f5,2024-11-13_12h24.24.674,Tarea de género gramatical,2024.2.2,Win32,59.88023952,,,,,,,,,,,,,,,,,,,,,,132.395,133.5591,a,1,[],[],[],[],[],[],[],0.4847,1,133.5592,134.0588,0,7,7,9,1,2010,MAS,AGR,150,vecino,el,l,0.4847,,,,,,,,,,,,,,,,,,,,
,,,,,,3378427f4c1e21efcdb70a2d,66a626ef09d4e21e1a8894ec,6734e039daa07db9fbaff9f5,2024-11-13_12h24.24.674,Tarea de género gramatical,2024.2.2,Win32,59.88023952,,,,,,,,,,,,,,,,,,,,,,134.0617,135.1755,l,1,[],[],[],[],[],[],[],0.4363,1,135.1757,135.6759,0,8,8,2,1,2003,FEM,DIS,150,daga,el,a,0.4363,,,,,,,,,,,,,,,,,,,,
,,,,,,3378427f4c1e21efcdb70a2d,66a626ef09d4e21e1a8894ec,6734e039daa07db9fbaff9f5,2024-11-13_12h24.24.674,Tarea de género gramatical,2024.2.2,Win32,59.88023952,,,,,,,,,,,,,,,,,,,,,,135.6787,136.7427,a,1,[],[],[],[],[],[],[],0.3944,1,136.7429,137.2429,0,9,9,14,1,2015,MAS,DIS,150,robot,la,l,0.3944,,,,,,,,,,,,,,,,,,,,
,,,,,,3378427f4c1e21efcdb70a2d,66a626ef09d4e21e1a8894ec,6734e039daa07db9fbaff9f5,2024-11-13_12h24.24.674,Tarea de género gramatical,2024.2.2,Win32,59.88023952,,,,,,,,,,,,,,,,,,,,,,137.2454,138.8255,a,1,[],[],[],[],[],[],[],0.9041,1,138.8257,139.3261,0,10,10,10,1,2011,MAS,CON,150,canal,,l,0.9041,,,,,,,,,,,,,,,,,,,,
,,,,,,3378427f4c1e21efcdb70a2d,66a626ef09d4e21e1a8894ec,6734e039daa07db9fbaff9f5,2024-11-13_12h24.24.674,Tarea de género gramatical,2024.2.2,Win32,59.88023952,,,,,,,,,,,,,,,,,,,,,,139.3285,140.4419,a,1,[],[],[],[],[],[],[],0.4329,1,140.442,140.9433,0,11,11,13,1,2014,MAS,CON,150,siglo,,l,0.4329,,,,,,,,,,,,,,,,,,,,
,,,,,,3378427f4c1e21efcdb70a2d,66a626ef09d4e21e1a8894ec,6734e039daa07db9fbaff9f5,2024-11-13_12h24.24.674,Tarea de género gramatical,2024.2.2,Win32,59.88023952,,,,,,,,,,,,,,,,,,,,,,140.9463,142.4255,a,1,[],[],[],[],[],[],[],0.8255,1,142.4257,142.9256,0,12,12,11,1,2012,MAS,DIS,150,clima,la,l,0.8255,,,,,,,,,,,,,,,,,,,,
,,,,,,3378427f4c1e21efcdb70a2d,66a626ef09d4e21e1a8894ec,6734e039daa07db9fbaff9f5,2024-11-13_12h24.24.674,Tarea de género gramatical,2024.2.2,Win32,59.88023952,,,,,,,,,,,,,,,,,,,,,,142.9276,144.226,a,1,[],[],[],[],[],[],[],0.6181,1,144.2263,144.7251,0,13,13,12,1,2013,MAS,AGR,150,acero,el,l,0.6181,,,,,,,,,,,,,,,,,,,,
,,,,,,3378427f4c1e21efcdb70a2d,66a626ef09d4e21e1a8894ec,6734e039daa07db9fbaff9f5,2024-11-13_12h24.24.674,Tarea de género gramatical,2024.2.2,Win32,59.88023952,,,,,,,,,,,,,,,,,,,,,,144.7262,146.1585,l,1,[],[],[],[],[],[],[],0.7634,1,146.1586,146.6593,0,14,14,5,1,2006,FEM,DIS,150,serie,el,a,0.7634,,,,,,,,,,,,,,,,,,,,
,,,,,,3378427f4c1e21efcdb70a2d,66a626ef09d4e21e1a8894ec,6734e039daa07db9fbaff9f5,2024-11-13_12h24.24.674,Tarea de género gramatical,2024.2.2,Win32,59.88023952,,,152.2112,157.8591,space,-0.010008597,-0.409784296,0,0,0,instr_done_button,,,,,,,,,,,157.9028,159.1924,a,1,[],[],[],[],[],[],[],0.6206,1,159.1926,159.6943,,,,,,958,MAS,DIS,150,mono,la,l,0.6206,,5.6334,,159.695,159.7015,-0.010008597,-0.409784296,0,0,0,,0,0,0,57,1,,,,
,,,,,,3378427f4c1e21efcdb70a2d,66a626ef09d4e21e1a8894ec,6734e039daa07db9fbaff9f5,2024-11-13_12h24.24.674,Tarea de género gramatical,2024.2.2,Win32,59.88023952,,,,,,,,,,,,,,,,,,,,,,159.7029,160.8756,l,1,[],[],[],[],[],[],[],0.5024,1,160.8758,161.3758,,,,,,1089,FEM,CON,150,pista,,a,0.5024,,,,161.376,161.3762,-0.010008597,-0.409784296,0,0,0,,0,1,1,188,1,,,,
,,,,,,3378427f4c1e21efcdb70a2d,66a626ef09d4e21e1a8894ec,6734e039daa07db9fbaff9f5,2024-11-13_12h24.24.674,Tarea de género gramatical,2024.2.2,Win32,59.88023952,,,,,,,,,,,,,,,,,,,,,,161.3776,162.5597,l,1,[],[],[],[],[],[],[],0.503,1,162.5598,163.0593,,,,,,903,FEM,CON,150,cosa,,a,0.503,,,,163.0613,163.063,-0.010008597,-0.409784296,0,0,0,,0,2,2,2,1,,,,
,,,,,,3378427f4c1e21efcdb70a2d,66a626ef09d4e21e1a8894ec,6734e039daa07db9fbaff9f5,2024-11-13_12h24.24.674,Tarea de género gramatical,2024.2.2,Win32,59.88023952,,,,,,,,,,,,,,,,,,,,,,163.0644,164.1094,l,1,[],[],[],[],[],[],[],0.369,1,164.1095,164.6088,,,,,,987,FEM,CON,150,risa,,a,0.369,,,,164.6089,164.6091,-0.010008597,-0.409784296,0,0,0,,0,3,3,86,1,,,,
,,,,,,3378427f4c1e21efcdb70a2d,66a626ef09d4e21e1a8894ec,6734e039daa07db9fbaff9f5,2024-11-13_12h24.24.674,Tarea de género gramatical,2024.2.2,Win32,59.88023952,,,,,,,,,,,,,,,,,,,,,,164.6101,165.6943,a,1,[],[],[],[],[],[],[],0.4242,1,165.6946,166.1928,,,,,,1174,MAS,DIS,150,motor,la,l,0.4242,,,,166.1929,166.1933,-0.010008597,-0.409784296,0,0,0,,0,4,4,273,1,,,,
,,,,,,3378427f4c1e21efcdb70a2d,66a626ef09d4e21e1a8894ec,6734e039daa07db9fbaff9f5,2024-11-13_12h24.24.674,Tarea de género gramatical,2024.2.2,Win32,59.88023952,,,,,,,,,,,,,,,,,,,,,,166.1947,167.3442,a,1,[],[],[],[],[],[],[],0.4735,1,167.3442,167.8431,,,,,,1248,MAS,CON,150,anillo,,l,0.4735,,,,167.8432,167.8437,-0.010008597,-0.409784296,0,0,0,,0,5,5,347,1,,,,
,,,,,,3378427f4c1e21efcdb70a2d,66a626ef09d4e21e1a8894ec,6734e039daa07db9fbaff9f5,2024-11-13_12h24.24.674,Tarea de género gramatical,2024.2.2,Win32,59.88023952,,,,,,,,,,,,,,,,,,,,,,167.8459,168.9937,l,1,[],[],[],[],[],[],[],0.4767,1,168.9938,169.4934,,,,,,1275,FEM,CON,150,cadena,,a,0.4767,,,,169.4966,169.4983,-0.010008597,-0.409784296,0,0,0,,0,6,6,374,1,,,,
,,,,,,3378427f4c1e21efcdb70a2d,66a626ef09d4e21e1a8894ec,6734e039daa07db9fbaff9f5,2024-11-13_12h24.24.674,Tarea de género gramatical,2024.2.2,Win32,59.88023952,,,,,,,,,,,,,,,,,,,,,,169.4996,170.542,a,1,[],[],[],[],[],[],[],0.3642,1,170.5421,171.0438,,,,,,1199,MAS,AGR,150,rumbo,el,l,0.3642,,,,171.0438,171.0441,-0.010008597,-0.409784296,0,0,0,,0,7,7,298,1,,,,
,,,,,,3378427f4c1e21efcdb70a2d,66a626ef09d4e21e1a8894ec,6734e039daa07db9fbaff9f5,2024-11-13_12h24.24.674,Tarea de género gramatical,2024.2.2,Win32,59.88023952,,,,,,,,,,,,,,,,,,,,,,171.0455,172.1253,a,1,[],[],[],[],[],[],[],0.4021,1,172.1254,172.6264,,,,,,936,MAS,CON,150,dedo,,l,0.4021,,,,172.6266,172.6269,-0.010008597,-0.409784296,0,0,0,,0,8,8,35,1,,,,
,,,,,,3378427f4c1e21efcdb70a2d,66a626ef09d4e21e1a8894ec,6734e039daa07db9fbaff9f5,2024-11-13_12h24.24.674,Tarea de género gramatical,2024.2.2,Win32,59.88023952,,,,,,,,,,,,,,,,,,,,,,172.6289,173.7428,a,1,[],[],[],[],[],[],[],0.4411,1,173.7429,174.2432,,,,,,1126,MAS,DIS,150,color,la,l,0.4411,,,,174.2434,174.2437,-0.010008597,-0.409784296,0,0,0,,0,9,9,225,1,,,,
,,,,,,3378427f4c1e21efcdb70a2d,66a626ef09d4e21e1a8894ec,6734e039daa07db9fbaff9f5,2024-11-13_12h24.24.674,Tarea de género gramatical,2024.2.2,Win32,59.88023952,,,,,,,,,,,,,,,,,,,,,,174.2458,175.5756,a,1,[],[],[],[],[],[],[],0.6518,1,175.5757,176.0764,,,,,,1348,MAS,DIS,150,aceite,la,l,0.6518,,,,176.0765,176.0768,-0.010008597,-0.409784296,0,0,0,,0,10,10,447,1,,,,
,,,,,,3378427f4c1e21efcdb70a2d,66a626ef09d4e21e1a8894ec,6734e039daa07db9fbaff9f5,2024-11-13_12h24.24.674,Tarea de género gramatical,2024.2.2,Win32,59.88023952,,,,,,,,,,,,,,,,,,,,,,176.0792,177.159,a,1,[],[],[],[],[],[],[],0.4036,1,177.1591,177.6595,,,,,,1308,MAS,CON,150,cheque,,l,0.4036,,,,177.6623,177.6637,-0.010008597,-0.409784296,0,0,0,,0,11,11,407,1,,,,
,,,,,,3378427f4c1e21efcdb70a2d,66a626ef09d4e21e1a8894ec,6734e039daa07db9fbaff9f5,2024-11-13_12h24.24.674,Tarea de género gramatical,2024.2.2,Win32,59.88023952,,,,,,,,,,,,,,,,,,,,,,177.6652,178.7756,a,1,[],[],[],[],[],[],[],0.4388,1,178.7758,179.2766,,,,,,1218,MAS,CON,150,pueblo,,l,0.4388,,,,179.2767,179.2769,-0.010008597,-0.409784296,0,0,0,,0,12,12,317,1,,,,
,,,,,,3378427f4c1e21efcdb70a2d,66a626ef09d4e21e1a8894ec,6734e039daa07db9fbaff9f5,2024-11-13_12h24.24.674,Tarea de género gramatical,2024.2.2,Win32,59.88023952,,,,,,,,,,,,,,,,,,,,,,179.2788,180.3758,l,1,[],[],[],[],[],[],[],0.4229,1,180.3759,180.8778,,,,,,1345,FEM,DIS,150,bondad,el,a,0.4229,,,,180.878,180.8781,-0.010008597,-0.409784296,0,0,0,,0,13,13,444,1,,,,
,,,,,,3378427f4c1e21efcdb70a2d,66a626ef09d4e21e1a8894ec,6734e039daa07db9fbaff9f5,2024-11-13_12h24.24.674,Tarea de género gramatical,2024.2.2,Win32,59.88023952,,,,,,,,,,,,,,,,,,,,,,180.8799,181.9091,l,1,[],[],[],[],[],[],[],0.3522,1,181.9091,182.4116,,,,,,1136,FEM,AGR,150,deuda,la,a,0.3522,,,,182.4117,182.4119,-0.010008597,-0.409784296,0,0,0,,0,14,14,235,1,,,,
,,,,,,3378427f4c1e21efcdb70a2d,66a626ef09d4e21e1a8894ec,6734e039daa07db9fbaff9f5,2024-11-13_12h24.24.674,Tarea de género gramatical,2024.2.2,Win32,59.88023952,,,,,,,,,,,,,,,,,,,,,,182.4137,183.4765,l,1,[],[],[],[],[],[],[],0.3889,1,183.4767,183.977,,,,,,1315,FEM,DIS,150,cabina,el,a,0.3889,,,,183.9796,183.9808,-0.010008597,-0.409784296,0,0,0,,0,15,15,414,1,,,,
,,,,,,3378427f4c1e21efcdb70a2d,66a626ef09d4e21e1a8894ec,6734e039daa07db9fbaff9f5,2024-11-13_12h24.24.674,Tarea de género gramatical,2024.2.2,Win32,59.88023952,,,,,,,,,,,,,,,,,,,,,,183.9821,185.1089,a,1,[],[],[],[],[],[],[],0.4519,1,185.1091,185.6092,,,,,,1162,MAS,DIS,150,video,la,l,0.4519,,,,185.6093,185.6094,-0.010008597,-0.409784296,0,0,0,,0,16,16,261,1,,,,
,,,,,,3378427f4c1e21efcdb70a2d,66a626ef09d4e21e1a8894ec,6734e039daa07db9fbaff9f5,2024-11-13_12h24.24.674,Tarea de género gramatical,2024.2.2,Win32,59.88023952,,,,,,,,,,,,,,,,,,,,,,185.6112,186.726,a,1,[],[],[],[],[],[],[],0.4349,1,186.7262,187.2272,,,,,,1332,MAS,CON,150,océano,,l,0.4349,,,,187.2273,187.2275,-0.010008597,-0.409784296,0,0,0,,0,17,17,431,1,,,,
,,,,,,3378427f4c1e21efcdb70a2d,66a626ef09d4e21e1a8894ec,6734e039daa07db9fbaff9f5,2024-11-13_12h24.24.674,Tarea de género gramatical,2024.2.2,Win32,59.88023952,,,,,,,,,,,,,,,,,,,,,,187.2293,188.492,l,1,[],[],[],[],[],[],[],0.5885,1,188.492,188.9935,,,,,,931,FEM,DIS,150,edad,el,a,0.5885,,,,188.9941,188.9944,-0.010008597,-0.409784296,0,0,0,,0,18,18,30,1,,,,
,,,,,,3378427f4c1e21efcdb70a2d,66a626ef09d4e21e1a8894ec,6734e039daa07db9fbaff9f5,2024-11-13_12h24.24.674,Tarea de género gramatical,2024.2.2,Win32,59.88023952,,,,,,,,,,,,,,,,,,,,,,188.9965,190.5425,l,1,[],[],[],[],[],[],[],0.8658,1,190.5427,191.0436,,,,,,985,FEM,DIS,150,gira,el,a,0.8658,,,,191.0438,191.0439,-0.010008597,-0.409784296,0,0,0,,0,19,19,84,1,,,,
,,,,,,3378427f4c1e21efcdb70a2d,66a626ef09d4e21e1a8894ec,6734e039daa07db9fbaff9f5,2024-11-13_12h24.24.674,Tarea de género gramatical,2024.2.2,Win32,59.88023952,,,,,,,,,,,,,,,,,,,,,,191.0459,192.1591,a,1,[],[],[],[],[],[],[],0.4392,1,192.1593,192.6605,,,,,,952,MAS,DIS,150,lago,la,l,0.4392,,,,192.6631,192.6643,-0.010008597,-0.409784296,0,0,0,,0,20,20,51,1,,,,
,,,,,,3378427f4c1e21efcdb70a2d,66a626ef09d4e21e1a8894ec,6734e039daa07db9fbaff9f5,2024-11-13_12h24.24.674,Tarea de género gramatical,2024.2.2,Win32,59.88023952,,,,,,,,,,,,,,,,,,,,,,192.6659,194.0761,a,0,[],[],[],[],[],[],[],0.7349,0,194.0784,194.5757,,,,,,1329,FEM,CON,150,fianza,,a,0.7349,,,,194.5757,194.5758,-0.010008597,-0.409784296,0,0,0,,0,21,21,428,1,,,,
,,,,,,3378427f4c1e21efcdb70a2d,66a626ef09d4e21e1a8894ec,6734e039daa07db9fbaff9f5,2024-11-13_12h24.24.674,Tarea de género gramatical,2024.2.2,Win32,59.88023952,,,,,,,,,,,,,,,,,,,,,,194.577,195.8922,l,1,[],[],[],[],[],[],[],0.6557,1,195.8931,196.3932,,,,,,975,FEM,CON,150,caza,,a,0.6557,,,,196.3932,196.3935,-0.010008597,-0.409784296,0,0,0,,0,22,22,74,1,,,,
,,,,,,3378427f4c1e21efcdb70a2d,66a626ef09d4e21e1a8894ec,6734e039daa07db9fbaff9f5,2024-11-13_12h24.24.674,Tarea de género gramatical,2024.2.2,Win32,59.88023952,,,,,,,,,,,,,,,,,,,,,,196.3956,197.4922,l,1,[],[],[],[],[],[],[],0.4159,1,197.4923,197.9932,,,,,,945,FEM,CON,150,isla,,a,0.4159,,,,197.9934,197.9936,-0.010008597,-0.409784296,0,0,0,,0,23,23,44,1,,,,
,,,,,,3378427f4c1e21efcdb70a2d,66a626ef09d4e21e1a8894ec,6734e039daa07db9fbaff9f5,2024-11-13_12h24.24.674,Tarea de género gramatical,2024.2.2,Win32,59.88023952,,,,,,,,,,,,,,,,,,,,,,197.995,199.2093,l,1,[],[],[],[],[],[],[],0.5364,1,199.2093,199.7098,,,,,,1171,FEM,DIS,150,viuda,el,a,0.5364,,,,199.7129,199.7147,-0.010008597,-0.409784296,0,0,0,,0,24,24,270,1,,,,
,,,,,,3378427f4c1e21efcdb70a2d,66a626ef09d4e21e1a8894ec,6734e039daa07db9fbaff9f5,2024-11-13_12h24.24.674,Tarea de género gramatical,2024.2.2,Win32,59.88023952,,,,,,,,,,,,,,,,,,,,,,199.7163,200.8924,a,1,[],[],[],[],[],[],[],0.5045,1,200.8926,201.393,,,,,,1138,MAS,DIS,150,norte,la,l,0.5045,,,,201.3932,201.3933,-0.010008597,-0.409784296,0,0,0,,0,25,25,237,1,,,,
,,,,,,3378427f4c1e21efcdb70a2d,66a626ef09d4e21e1a8894ec,6734e039daa07db9fbaff9f5,2024-11-13_12h24.24.674,Tarea de género gramatical,2024.2.2,Win32,59.88023952,,,,,,,,,,,,,,,,,,,,,,201.3953,202.5103,l,1,[],[],[],[],[],[],[],0.4411,1,202.5106,203.0098,,,,,,1148,FEM,AGR,150,letra,la,a,0.4411,,,,203.0099,203.0102,-0.010008597,-0.409784296,0,0,0,,0,26,26,247,1,,,,
,,,,,,3378427f4c1e21efcdb70a2d,66a626ef09d4e21e1a8894ec,6734e039daa07db9fbaff9f5,2024-11-13_12h24.24.674,Tarea de género gramatical,2024.2.2,Win32,59.88023952,,,,,,,,,,,,,,,,,,,,,,203.0123,204.1091,a,1,[],[],[],[],[],[],[],0.4206,1,204.1093,204.6095,,,,,,1337,MAS,AGR,150,hombro,el,l,0.4206,,,,204.6096,204.6097,-0.010008597,-0.409784296,0,0,0,,0,27,27,436,1,,,,
,,,,,,3378427f4c1e21efcdb70a2d,66a626ef09d4e21e1a8894ec,6734e039daa07db9fbaff9f5,2024-11-13_12h24.24.674,Tarea de género gramatical,2024.2.2,Win32,59.88023952,,,,,,,,,,,,,,,,,,,,,,204.6119,205.7423,a,1,[],[],[],[],[],[],[],0.4549,1,205.7425,206.2437,,,,,,1078,MAS,DIS,150,punto,la,l,0.4549,,,,206.2438,206.2441,-0.010008597,-0.409784296,0,0,0,,0,28,28,177,1,,,,
,,,,,,3378427f4c1e21efcdb70a2d,66a626ef09d4e21e1a8894ec,6734e039daa07db9fbaff9f5,2024-11-13_12h24.24.674,Tarea de género gramatical,2024.2.2,Win32,59.88023952,,,,,,,,,,,,,,,,,,,,,,206.2456,207.6589,l,1,[],[],[],[],[],[],[],0.7363,1,207.6591,208.1588,,,,,,986,FEM,AGR,150,cruz,la,a,0.7363,,,,208.1604,208.1611,-0.010008597,-0.409784296,0,0,0,,0,29,29,85,1,,,,
,,,,,,3378427f4c1e21efcdb70a2d,66a626ef09d4e21e1a8894ec,6734e039daa07db9fbaff9f5,2024-11-13_12h24.24.674,Tarea de género gramatical,2024.2.2,Win32,59.88023952,,,,,,,,,,,,,,,,,,,,,,208.1618,209.1923,a,1,[],[],[],[],[],[],[],0.352,1,209.1925,209.6926,,,,,,941,MAS,AGR,150,bote,el,l,0.352,,,,209.6927,209.6928,-0.010008597,-0.409784296,0,0,0,,0,30,30,40,1,,,,
,,,,,,3378427f4c1e21efcdb70a2d,66a626ef09d4e21e1a8894ec,6734e039daa07db9fbaff9f5,2024-11-13_12h24.24.674,Tarea de género gramatical,2024.2.2,Win32,59.88023952,,,,,,,,,,,,,,,,,,,,,,209.6949,210.9936,l,1,[],[],[],[],[],[],[],0.621,1,210.9938,211.4932,,,,,,951,FEM,CON,150,bala,,a,0.621,,,,211.4934,211.4935,-0.010008597,-0.409784296,0,0,0,,0,31,31,50,1,,,,
,,,,,,3378427f4c1e21efcdb70a2d,66a626ef09d4e21e1a8894ec,6734e039daa07db9fbaff9f5,2024-11-13_12h24.24.674,Tarea de género gramatical,2024.2.2,Win32,59.88023952,,,,,,,,,,,,,,,,,,,,,,211.4953,212.6254,a,1,[],[],[],[],[],[],[],0.4479,1,212.6254,213.1264,,,,,,989,MAS,AGR,150,maíz,el,l,0.4479,,,,213.1264,213.1266,-0.010008597,-0.409784296,0,0,0,,0,32,32,88,1,,,,
,,,,,,3378427f4c1e21efcdb70a2d,66a626ef09d4e21e1a8894ec,6734e039daa07db9fbaff9f5,2024-11-13_12h24.24.674,Tarea de género gramatical,2024.2.2,Win32,59.88023952,,,,,,,,,,,,,,,,,,,,,,213.1286,214.1589,a,1,[],[],[],[],[],[],[],0.3576,1,214.1589,214.6598,,,,,,960,MAS,CON,150,tono,,l,0.3576,,,,214.6627,214.6642,-0.010008597,-0.409784296,0,0,0,,0,33,33,59,1,,,,
,,,,,,3378427f4c1e21efcdb70a2d,66a626ef09d4e21e1a8894ec,6734e039daa07db9fbaff9f5,2024-11-13_12h24.24.674,Tarea de género gramatical,2024.2.2,Win32,59.88023952,,,,,,,,,,,,,,,,,,,,,,214.6656,215.776,l,1,[],[],[],[],[],[],[],0.434,1,215.7761,216.2767,,,,,,1249,FEM,DIS,150,prensa,el,a,0.434,,,,216.2769,216.2771,-0.010008597,-0.409784296,0,0,0,,0,34,34,348,1,,,,
,,,,,,3378427f4c1e21efcdb70a2d,66a626ef09d4e21e1a8894ec,6734e039daa07db9fbaff9f5,2024-11-13_12h24.24.674,Tarea de género gramatical,2024.2.2,Win32,59.88023952,,,,,,,,,,,,,,,,,,,,,,216.2799,217.3919,a,1,[],[],[],[],[],[],[],0.4298,1,217.392,217.892,,,,,,942,MAS,CON,150,show,,l,0.4298,,,,217.8921,217.8922,-0.010008597,-0.409784296,0,0,0,,0,35,35,41,1,,,,
,,,,,,3378427f4c1e21efcdb70a2d,66a626ef09d4e21e1a8894ec,6734e039daa07db9fbaff9f5,2024-11-13_12h24.24.674,Tarea de género gramatical,2024.2.2,Win32,59.88023952,,,,,,,,,,,,,,,,,,,,,,217.8937,218.9921,l,1,[],[],[],[],[],[],[],0.4209,1,218.9922,219.4936,,,,,,944,FEM,AGR,150,zona,la,a,0.4209,,,,219.4936,219.4939,-0.010008597,-0.409784296,0,0,0,,0,36,36,43,1,,,,
,,,,,,3378427f4c1e21efcdb70a2d,66a626ef09d4e21e1a8894ec,6734e039daa07db9fbaff9f5,2024-11-13_12h24.24.674,Tarea de género gramatical,2024.2.2,Win32,59.88023952,,,,,,,,,,,,,,,,,,,,,,219.496,220.6085,l,1,[],[],[],[],[],[],[],0.4311,1,220.6086,221.1095,,,,,,1292,FEM,AGR,150,maleta,la,a,0.4311,,,,221.1097,221.11,-0.010008597,-0.409784296,0,0,0,,0,37,37,391,1,,,,
,,,,,,3378427f4c1e21efcdb70a2d,66a626ef09d4e21e1a8894ec,6734e039daa07db9fbaff9f5,2024-11-13_12h24.24.674,Tarea de género gramatical,2024.2.2,Win32,59.88023952,,,,,,,,,,,,,,,,,,,,,,221.112,222.2093,l,1,[],[],[],[],[],[],[],0.4286,1,222.2094,222.7096,,,,,,1196,FEM,AGR,150,feria,la,a,0.4286,,,,222.713,222.7139,-0.010008597,-0.409784296,0,0,0,,0,38,38,295,1,,,,
,,,,,,3378427f4c1e21efcdb70a2d,66a626ef09d4e21e1a8894ec,6734e039daa07db9fbaff9f5,2024-11-13_12h24.24.674,Tarea de género gramatical,2024.2.2,Win32,59.88023952,,,,,,,,,,,,,,,,,,,,,,222.7145,223.8761,l,1,[],[],[],[],[],[],[],0.4859,1,223.8762,224.3757,,,,,,1069,FEM,DIS,150,vista,el,a,0.4859,,,,224.3758,224.376,-0.010008597,-0.409784296,0,0,0,,0,39,39,168,1,,,,
,,,,,,3378427f4c1e21efcdb70a2d,66a626ef09d4e21e1a8894ec,6734e039daa07db9fbaff9f5,2024-11-13_12h24.24.674,Tarea de género gramatical,2024.2.2,Win32,59.88023952,,,,,,,,,,,,,,,,,,,,,,224.3778,225.4102,l,1,[],[],[],[],[],[],[],0.3579,1,225.4105,225.9097,,,,,,1101,FEM,CON,150,leche,,a,0.3579,,,,225.9098,225.9101,-0.010008597,-0.409784296,0,0,0,,0,40,40,200,1,,,,
,,,,,,3378427f4c1e21efcdb70a2d,66a626ef09d4e21e1a8894ec,6734e039daa07db9fbaff9f5,2024-11-13_12h24.24.674,Tarea de género gramatical,2024.2.2,Win32,59.88023952,,,,,,,,,,,,,,,,,,,,,,225.9124,226.9288,a,1,[],[],[],[],[],[],[],0.3469,1,226.9289,227.4256,,,,,,1104,MAS,CON,150,papel,,l,0.3469,,,,227.4257,227.4259,-0.010008597,-0.409784296,0,0,0,,0,41,41,203,1,,,,
,,,,,,3378427f4c1e21efcdb70a2d,66a626ef09d4e21e1a8894ec,6734e039daa07db9fbaff9f5,2024-11-13_12h24.24.674,Tarea de género gramatical,2024.2.2,Win32,59.88023952,,,,,,,,,,,,,,,,,,,,,,227.4279,228.4923,a,1,[],[],[],[],[],[],[],0.385,1,228.4923,228.9937,,,,,,1289,MAS,AGR,150,tamaño,el,l,0.385,,,,228.996,228.9974,-0.010008597,-0.409784296,0,0,0,,0,42,42,388,1,,,,
,,,,,,3378427f4c1e21efcdb70a2d,66a626ef09d4e21e1a8894ec,6734e039daa07db9fbaff9f5,2024-11-13_12h24.24.674,Tarea de género gramatical,2024.2.2,Win32,59.88023952,,,,,,,,,,,,,,,,,,,,,,228.999,230.0589,a,1,[],[],[],[],[],[],[],0.3834,1,230.0591,230.5593,,,,,,1212,MAS,CON,150,equipo,,l,0.3834,,,,230.5594,230.5596,-0.010008597,-0.409784296,0,0,0,,0,43,43,311,1,,,,
,,,,,,3378427f4c1e21efcdb70a2d,66a626ef09d4e21e1a8894ec,6734e039daa07db9fbaff9f5,2024-11-13_12h24.24.674,Tarea de género gramatical,2024.2.2,Win32,59.88023952,,,,,,,,,,,,,,,,,,,,,,230.5613,231.609,a,1,[],[],[],[],[],[],[],0.3688,1,231.6091,232.1105,,,,,,1050,MAS,CON,150,mozo,,l,0.3688,,,,232.1107,232.1108,-0.010008597,-0.409784296,0,0,0,,0,44,44,149,1,,,,
,,,,,,3378427f4c1e21efcdb70a2d,66a626ef09d4e21e1a8894ec,6734e039daa07db9fbaff9f5,2024-11-13_12h24.24.674,Tarea de género gramatical,2024.2.2,Win32,59.88023952,,,,,,,,,,,,,,,,,,,,,,232.113,233.1109,a,1,[],[],[],[],[],[],[],0.3261,1,233.1119,233.6098,,,,,,1031,MAS,AGR,150,kilo,el,l,0.3261,,,,233.6099,233.6101,-0.010008597,-0.409784296,0,0,0,,0,45,45,130,1,,,,
,,,,,,3378427f4c1e21efcdb70a2d,66a626ef09d4e21e1a8894ec,6734e039daa07db9fbaff9f5,2024-11-13_12h24.24.674,Tarea de género gramatical,2024.2.2,Win32,59.88023952,,,,,,,,,,,,,,,,,,,,,,233.6121,234.6776,a,1,[],[],[],[],[],[],[],0.3908,1,234.6778,235.1777,,,,,,990,MAS,CON,150,león,,l,0.3908,,,,235.1778,235.1782,-0.010008597,-0.409784296,0,0,0,,0,46,46,89,1,,,,
,,,,,,3378427f4c1e21efcdb70a2d,66a626ef09d4e21e1a8894ec,6734e039daa07db9fbaff9f5,2024-11-13_12h24.24.674,Tarea de género gramatical,2024.2.2,Win32,59.88023952,,,,,,,,,,,,,,,,,,,,,,235.1799,236.3142,l,1,[],[],[],[],[],[],[],0.4613,1,236.3146,236.8091,,,,,,1046,FEM,AGR,150,lana,la,a,0.4613,,,,236.8104,236.8113,-0.010008597,-0.409784296,0,0,0,,0,47,47,145,1,,,,
,,,,,,3378427f4c1e21efcdb70a2d,66a626ef09d4e21e1a8894ec,6734e039daa07db9fbaff9f5,2024-11-13_12h24.24.674,Tarea de género gramatical,2024.2.2,Win32,59.88023952,,,,,,,,,,,,,,,,,,,,,,236.812,237.8924,l,1,[],[],[],[],[],[],[],0.4035,1,237.8924,238.3922,,,,,,1167,FEM,CON,150,barba,,a,0.4035,,,,238.3924,238.3925,-0.010008597,-0.409784296,0,0,0,,0,48,48,266,1,,,,
,,,,,,3378427f4c1e21efcdb70a2d,66a626ef09d4e21e1a8894ec,6734e039daa07db9fbaff9f5,2024-11-13_12h24.24.674,Tarea de género gramatical,2024.2.2,Win32,59.88023952,,,,,,,,,,,,,,,,,,,,,,238.3947,239.4597,l,1,[],[],[],[],[],[],[],0.3899,1,239.46,239.9589,,,,,,1286,FEM,AGR,150,sombra,la,a,0.3899,,,,239.959,239.9591,-0.010008597,-0.409784296,0,0,0,,0,49,49,385,1,,,,
,,,,,,3378427f4c1e21efcdb70a2d,66a626ef09d4e21e1a8894ec,6734e039daa07db9fbaff9f5,2024-11-13_12h24.24.674,Tarea de género gramatical,2024.2.2,Win32,59.88023952,,,,,,,,,,,,,,,,,,,,,,239.9601,241.2092,l,1,[],[],[],[],[],[],[],0.5688,1,241.2093,241.7102,,,,,,1035,FEM,CON,150,raíz,,a,0.5688,,,,241.7103,241.7106,-0.010008597,-0.409784296,0,0,0,,0,50,50,134,1,,,,
,,,,,,3378427f4c1e21efcdb70a2d,66a626ef09d4e21e1a8894ec,6734e039daa07db9fbaff9f5,2024-11-13_12h24.24.674,Tarea de género gramatical,2024.2.2,Win32,59.88023952,,,,,,,,,,,,,,,,,,,,,,241.7122,242.7754,l,1,[],[],[],[],[],[],[],0.3861,1,242.7755,243.2765,,,,,,1335,FEM,CON,150,niebla,,a,0.3861,,,,243.2787,243.2802,-0.010008597,-0.409784296,0,0,0,,0,51,51,434,1,,,,
,,,,,,3378427f4c1e21efcdb70a2d,66a626ef09d4e21e1a8894ec,6734e039daa07db9fbaff9f5,2024-11-13_12h24.24.674,Tarea de género gramatical,2024.2.2,Win32,59.88023952,,,,,,,,,,,,,,,,,,,,,,243.2818,244.3253,a,1,[],[],[],[],[],[],[],0.3686,1,244.3254,244.8265,,,,,,905,MAS,AGR,150,tipo,el,l,0.3686,,,,244.8266,244.8268,-0.010008597,-0.409784296,0,0,0,,0,52,52,4,1,,,,
,,,,,,3378427f4c1e21efcdb70a2d,66a626ef09d4e21e1a8894ec,6734e039daa07db9fbaff9f5,2024-11-13_12h24.24.674,Tarea de género gramatical,2024.2.2,Win32,59.88023952,,,,,,,,,,,,,,,,,,,,,,244.8291,245.9607,a,1,[],[],[],[],[],[],[],0.4604,1,245.9608,246.4595,,,,,,1247,MAS,AGR,150,cuello,el,l,0.4604,,,,246.4596,246.4598,-0.010008597,-0.409784296,0,0,0,,0,53,53,346,1,,,,
,,,,,,3378427f4c1e21efcdb70a2d,66a626ef09d4e21e1a8894ec,6734e039daa07db9fbaff9f5,2024-11-13_12h24.24.674,Tarea de género gramatical,2024.2.2,Win32,59.88023952,,,,,,,,,,,,,,,,,,,,,,246.4617,247.5422,l,1,[],[],[],[],[],[],[],0.4152,1,247.5424,248.0431,,,,,,1239,FEM,CON,150,salida,,a,0.4152,,,,248.0433,248.0435,-0.010008597,-0.409784296,0,0,0,,0,54,54,338,1,,,,
,,,,,,3378427f4c1e21efcdb70a2d,66a626ef09d4e21e1a8894ec,6734e039daa07db9fbaff9f5,2024-11-13_12h24.24.674,Tarea de género gramatical,2024.2.2,Win32,59.88023952,,,,,,,,,,,,,,,,,,,,,,248.0456,249.1434,l,1,[],[],[],[],[],[],[],0.4344,1,249.1436,249.6432,,,,,,1003,FEM,DIS,150,fama,el,a,0.4344,,,,249.6433,249.6435,-0.010008597,-0.409784296,0,0,0,,0,55,55,102,1,,,,
,,,,,,3378427f4c1e21efcdb70a2d,66a626ef09d4e21e1a8894ec,6734e039daa07db9fbaff9f5,2024-11-13_12h24.24.674,Tarea de género gramatical,2024.2.2,Win32,59.88023952,,,,,,,,,,,,,,,,,,,,,,249.6455,250.7616,l,1,[],[],[],[],[],[],[],0.4455,1,250.7617,251.2596,,,,,,1267,FEM,DIS,150,teoría,el,a,0.4455,,,,251.2616,251.2631,-0.010008597,-0.409784296,0,0,0,,0,56,56,366,1,,,,
,,,,,,3378427f4c1e21efcdb70a2d,66a626ef09d4e21e1a8894ec,6734e039daa07db9fbaff9f5,2024-11-13_12h24.24.674,Tarea de género gramatical,2024.2.2,Win32,59.88023952,,,,,,,,,,,,,,,,,,,,,,251.2645,252.4922,l,1,[],[],[],[],[],[],[],0.5525,1,252.4924,252.9931,,,,,,1016,FEM,AGR,150,nube,la,a,0.5525,,,,252.9932,252.9934,-0.010008597,-0.409784296,0,0,0,,0,57,57,115,1,,,,
,,,,,,3378427f4c1e21efcdb70a2d,66a626ef09d4e21e1a8894ec,6734e039daa07db9fbaff9f5,2024-11-13_12h24.24.674,Tarea de género gramatical,2024.2.2,Win32,59.88023952,,,,,,,,,,,,,,,,,,,,,,252.9954,254.0605,l,1,[],[],[],[],[],[],[],0.3894,1,254.0607,254.5594,,,,,,932,FEM,AGR,150,caja,la,a,0.3894,,,,254.5596,254.5597,-0.010008597,-0.409784296,0,0,0,,0,58,58,31,1,,,,
,,,,,,3378427f4c1e21efcdb70a2d,66a626ef09d4e21e1a8894ec,6734e039daa07db9fbaff9f5,2024-11-13_12h24.24.674,Tarea de género gramatical,2024.2.2,Win32,59.88023952,,,,,,,,,,,,,,,,,,,,,,254.5611,255.5428,a,1,[],[],[],[],[],[],[],0.3027,1,255.543,256.0426,,,,,,1331,MAS,AGR,150,veneno,el,l,0.3027,,,,256.0427,256.0428,-0.010008597,-0.409784296,0,0,0,,0,59,59,430,1,,,,
,,,,,,3378427f4c1e21efcdb70a2d,66a626ef09d4e21e1a8894ec,6734e039daa07db9fbaff9f5,2024-11-13_12h24.24.674,Tarea de género gramatical,2024.2.2,Win32,59.88023952,,,,,,,,,,,,,,,,,,,,,,256.0441,257.028,a,1,[],[],[],[],[],[],[],0.3089,1,257.0282,257.5273,,,,,,1073,MAS,AGR,150,libro,el,l,0.3089,,,,257.5297,257.5309,-0.010008597,-0.409784296,0,0,0,,0,60,60,172,1,,,,
,,,,,,3378427f4c1e21efcdb70a2d,66a626ef09d4e21e1a8894ec,6734e039daa07db9fbaff9f5,2024-11-13_12h24.24.674,Tarea de género gramatical,2024.2.2,Win32,59.88023952,,,,,,,,,,,,,,,,,,,,,,257.5319,258.5924,a,1,[],[],[],[],[],[],[],0.386,1,258.5926,259.0943,,,,,,924,MAS,CON,150,voto,,l,0.386,,,,259.0945,259.0947,-0.010008597,-0.409784296,0,0,0,,0,61,61,23,1,,,,
,,,,,,3378427f4c1e21efcdb70a2d,66a626ef09d4e21e1a8894ec,6734e039daa07db9fbaff9f5,2024-11-13_12h24.24.674,Tarea de género gramatical,2024.2.2,Win32,59.88023952,,,,,,,,,,,,,,,,,,,,,,259.0966,260.1292,a,1,[],[],[],[],[],[],[],0.3627,1,260.1295,260.6273,,,,,,1157,MAS,AGR,150,pecho,el,l,0.3627,,,,260.6273,260.6275,-0.010008597,-0.409784296,0,0,0,,0,62,62,256,1,,,,
,,,,,,3378427f4c1e21efcdb70a2d,66a626ef09d4e21e1a8894ec,6734e039daa07db9fbaff9f5,2024-11-13_12h24.24.674,Tarea de género gramatical,2024.2.2,Win32,59.88023952,,,,,,,,,,,,,,,,,,,,,,260.6294,261.626,a,1,[],[],[],[],[],[],[],0.3185,1,261.6262,262.128,,,,,,1144,MAS,DIS,150,hielo,la,l,0.3185,,,,262.1281,262.1283,-0.010008597,-0.409784296,0,0,0,,0,63,63,243,1,,,,
,,,,,,3378427f4c1e21efcdb70a2d,66a626ef09d4e21e1a8894ec,6734e039daa07db9fbaff9f5,2024-11-13_12h24.24.674,Tarea de género gramatical,2024.2.2,Win32,59.88023952,,,,,,,,,,,,,,,,,,,,,,262.1303,263.2431,a,1,[],[],[],[],[],[],[],0.438,1,263.2432,263.7445,,,,,,1312,MAS,DIS,150,espejo,la,l,0.438,,,,263.7445,263.7447,-0.010008597,-0.409784296,0,0,0,,0,64,64,411,1,,,,
,,,,,,3378427f4c1e21efcdb70a2d,66a626ef09d4e21e1a8894ec,6734e039daa07db9fbaff9f5,2024-11-13_12h24.24.674,Tarea de género gramatical,2024.2.2,Win32,59.88023952,,,,,,,,,,,,,,,,,,,,,,263.7467,264.7943,a,1,[],[],[],[],[],[],[],0.3767,1,264.7947,265.2944,,,,,,1206,MAS,CON,150,dinero,,l,0.3767,,,,265.2969,265.2989,-0.010008597,-0.409784296,0,0,0,,0,65,65,305,1,,,,
,,,,,,3378427f4c1e21efcdb70a2d,66a626ef09d4e21e1a8894ec,6734e039daa07db9fbaff9f5,2024-11-13_12h24.24.674,Tarea de género gramatical,2024.2.2,Win32,59.88023952,,,,,,,,,,,,,,,,,,,,,,265.3005,266.5589,l,1,[],[],[],[],[],[],[],0.5831,1,266.559,267.0586,,,,,,1129,FEM,DIS,150,celda,el,a,0.5831,,,,267.0586,267.0588,-0.010008597,-0.409784296,0,0,0,,0,66,66,228,1,,,,
,,,,,,3378427f4c1e21efcdb70a2d,66a626ef09d4e21e1a8894ec,6734e039daa07db9fbaff9f5,2024-11-13_12h24.24.674,Tarea de género gramatical,2024.2.2,Win32,59.88023952,,,,,,,,,,,,,,,,,,,,,,267.0598,268.2933,a,0,[],[],[],[],[],[],[],0.573,0,268.2953,268.7932,,,,,,967,FEM,DIS,150,miel,el,a,0.573,,,,268.7932,268.7933,-0.010008597,-0.409784296,0,0,0,,0,67,67,66,1,,,,
,,,,,,3378427f4c1e21efcdb70a2d,66a626ef09d4e21e1a8894ec,6734e039daa07db9fbaff9f5,2024-11-13_12h24.24.674,Tarea de género gramatical,2024.2.2,Win32,59.88023952,,,,,,,,,,,,,,,,,,,,,,268.7956,270.0421,a,1,[],[],[],[],[],[],[],0.5659,1,270.0428,270.5432,,,,,,916,MAS,DIS,150,baño,la,l,0.5659,,,,270.5433,270.5435,-0.010008597,-0.409784296,0,0,0,,0,68,68,15,1,,,,
,,,,,,3378427f4c1e21efcdb70a2d,66a626ef09d4e21e1a8894ec,6734e039daa07db9fbaff9f5,2024-11-13_12h24.24.674,Tarea de género gramatical,2024.2.2,Win32,59.88023952,,,,,,,,,,,,,,,,,,,,,,270.5456,271.7941,l,1,[],[],[],[],[],[],[],0.5762,1,271.7946,272.293,,,,,,979,FEM,DIS,150,mina,el,a,0.5762,,,,272.2955,272.2973,-0.010008597,-0.409784296,0,0,0,,0,69,69,78,1,,,,
,,,,,,3378427f4c1e21efcdb70a2d,66a626ef09d4e21e1a8894ec,6734e039daa07db9fbaff9f5,2024-11-13_12h24.24.674,Tarea de género gramatical,2024.2.2,Win32,59.88023952,,,,,,,,,,,,,,,,,,,,,,272.2987,273.4103,l,1,[],[],[],[],[],[],[],0.44,1,273.4105,273.9097,,,,,,1179,FEM,CON,150,selva,,a,0.44,,,,273.9098,273.91,-0.010008597,-0.409784296,0,0,0,,0,70,70,278,1,,,,
,,,,,,3378427f4c1e21efcdb70a2d,66a626ef09d4e21e1a8894ec,6734e039daa07db9fbaff9f5,2024-11-13_12h24.24.674,Tarea de género gramatical,2024.2.2,Win32,59.88023952,,,,,,,,,,,,,,,,,,,,,,273.912,275.2764,l,1,[],[],[],[],[],[],[],0.6901,1,275.2769,275.7773,,,,,,1262,FEM,AGR,150,fuente,la,a,0.6901,,,,275.7775,275.7776,-0.010008597,-0.409784296,0,0,0,,0,71,71,361,1,,,,
,,,,,,3378427f4c1e21efcdb70a2d,66a626ef09d4e21e1a8894ec,6734e039daa07db9fbaff9f5,2024-11-13_12h24.24.674,Tarea de género gramatical,2024.2.2,Win32,59.88023952,,,,,,,,,,,,,,,,,,,,,,275.7794,276.8593,l,1,[],[],[],[],[],[],[],0.4017,1,276.8595,277.3597,,,,,,1220,FEM,AGR,150,fiesta,la,a,0.4017,,,,277.3599,277.36,-0.010008597,-0.409784296,0,0,0,,0,72,72,319,1,,,,
,,,,,,3378427f4c1e21efcdb70a2d,66a626ef09d4e21e1a8894ec,6734e039daa07db9fbaff9f5,2024-11-13_12h24.24.674,Tarea de género gramatical,2024.2.2,Win32,59.88023952,,,,,,,,,,,,,,,,,,,,,,277.3616,278.4783,a,1,[],[],[],[],[],[],[],0.4433,1,278.4785,278.9757,,,,,,1229,MAS,AGR,150,futuro,el,l,0.4433,,,,278.9757,278.9758,-0.010008597,-0.409784296,0,0,0,,0,73,73,328,1,,,,
,,,,,,3378427f4c1e21efcdb70a2d,66a626ef09d4e21e1a8894ec,6734e039daa07db9fbaff9f5,2024-11-13_12h24.24.674,Tarea de género gramatical,2024.2.2,Win32,59.88023952,,,,,,,,,,,,,,,,,,,,,,278.9774,280.0757,a,1,[],[],[],[],[],[],[],0.4185,1,280.0758,280.5757,,,,,,1192,MAS,DIS,150,piano,la,l,0.4185,,,,280.5778,280.5794,-0.010008597,-0.409784296,0,0,0,,0,74,74,291,1,,,,
,,,,,,3378427f4c1e21efcdb70a2d,66a626ef09d4e21e1a8894ec,6734e039daa07db9fbaff9f5,2024-11-13_12h24.24.674,Tarea de género gramatical,2024.2.2,Win32,59.88023952,,,,,,,,,,,,,,,,,,,,,,280.5806,281.693,a,1,[],[],[],[],[],[],[],0.4353,1,281.6933,282.1932,,,,,,1264,MAS,DIS,150,viento,la,l,0.4353,,,,282.1933,282.1935,-0.010008597,-0.409784296,0,0,0,,0,75,75,363,1,,,,
,,,,,,3378427f4c1e21efcdb70a2d,66a626ef09d4e21e1a8894ec,6734e039daa07db9fbaff9f5,2024-11-13_12h24.24.674,Tarea de género gramatical,2024.2.2,Win32,59.88023952,,,,,,,,,,,,,,,,,,,,,,282.1951,283.4425,a,1,[],[],[],[],[],[],[],0.5654,1,283.4425,283.9424,,,,,,1300,MAS,DIS,150,barrio,la,l,0.5654,,,,283.9424,283.9424,-0.010008597,-0.409784296,0,0,0,,0,76,76,399,1,,,,
,,,,,,3378427f4c1e21efcdb70a2d,66a626ef09d4e21e1a8894ec,6734e039daa07db9fbaff9f5,2024-11-13_12h24.24.674,Tarea de género gramatical,2024.2.2,Win32,59.88023952,,,,,,,,,,,,,,,,,,,,,,283.9435,285.2756,a,1,[],[],[],[],[],[],[],0.6652,1,285.2757,285.7766,,,,,,1042,MAS,DIS,150,lodo,la,l,0.6652,,,,285.7767,285.777,-0.010008597,-0.409784296,0,0,0,,0,77,77,141,1,,,,
,,,,,,3378427f4c1e21efcdb70a2d,66a626ef09d4e21e1a8894ec,6734e039daa07db9fbaff9f5,2024-11-13_12h24.24.674,Tarea de género gramatical,2024.2.2,Win32,59.88023952,,,,,,,,,,,,,,,,,,,,,,285.7792,286.8779,l,1,[],[],[],[],[],[],[],0.4239,1,286.8781,287.3756,,,,,,1238,FEM,AGR,150,abuela,la,a,0.4239,,,,287.378,287.3794,-0.010008597,-0.409784296,0,0,0,,0,78,78,337,1,,,,
,,,,,,3378427f4c1e21efcdb70a2d,66a626ef09d4e21e1a8894ec,6734e039daa07db9fbaff9f5,2024-11-13_12h24.24.674,Tarea de género gramatical,2024.2.2,Win32,59.88023952,,,,,,,,,,,,,,,,,,,,,,287.3812,288.5276,a,1,[],[],[],[],[],[],[],0.4782,1,288.5279,289.0265,,,,,,906,MAS,CON,150,lado,,l,0.4782,,,,289.0266,289.0269,-0.010008597,-0.409784296,0,0,0,,0,79,79,5,1,,,,
,,,,,,3378427f4c1e21efcdb70a2d,66a626ef09d4e21e1a8894ec,6734e039daa07db9fbaff9f5,2024-11-13_12h24.24.674,Tarea de género gramatical,2024.2.2,Win32,59.88023952,,,,,,,,,,,,,,,,,,,,,,289.0289,290.5092,a,1,[],[],[],[],[],[],[],0.8042,1,290.5094,291.0017,,,,,,1320,MAS,CON,150,helado,,l,0.8042,,,,291.0018,291.0019,-0.010008597,-0.409784296,0,0,0,,0,80,80,419,1,,,,
,,,,,,3378427f4c1e21efcdb70a2d,66a626ef09d4e21e1a8894ec,6734e039daa07db9fbaff9f5,2024-11-13_12h24.24.674,Tarea de género gramatical,2024.2.2,Win32,59.88023952,,,,,,,,,,,,,,,,,,,,,,291.0039,292.1759,a,1,[],[],[],[],[],[],[],0.5016,1,292.176,292.6765,,,,,,1013,MAS,AGR,150,toro,el,l,0.5016,,,,292.6765,292.6767,-0.010008597,-0.409784296,0,0,0,,0,81,81,112,1,,,,
,,,,,,3378427f4c1e21efcdb70a2d,66a626ef09d4e21e1a8894ec,6734e039daa07db9fbaff9f5,2024-11-13_12h24.24.674,Tarea de género gramatical,2024.2.2,Win32,59.88023952,,,,,,,,,,,,,,,,,,,,,,292.6788,293.8438,a,1,[],[],[],[],[],[],[],0.4899,1,293.844,294.3436,,,,,,982,MAS,DIS,150,tubo,la,l,0.4899,,,,294.3438,294.344,-0.010008597,-0.409784296,0,0,0,,0,82,82,81,1,,,,
,,,,,,3378427f4c1e21efcdb70a2d,66a626ef09d4e21e1a8894ec,6734e039daa07db9fbaff9f5,2024-11-13_12h24.24.674,Tarea de género gramatical,2024.2.2,Win32,59.88023952,,,,,,,,,,,,,,,,,,,,,,294.3455,295.6756,l,1,[],[],[],[],[],[],[],0.6495,1,295.6758,296.1767,,,,,,1023,FEM,CON,150,tela,,a,0.6495,,,,296.1792,296.181,-0.010008597,-0.409784296,0,0,0,,0,83,83,122,1,,,,
,,,,,,3378427f4c1e21efcdb70a2d,66a626ef09d4e21e1a8894ec,6734e039daa07db9fbaff9f5,2024-11-13_12h24.24.674,Tarea de género gramatical,2024.2.2,Win32,59.88023952,,,,,,,,,,,,,,,,,,,,,,296.1829,297.3092,a,1,[],[],[],[],[],[],[],0.4503,1,297.3093,297.8095,,,,,,922,MAS,DIS,150,pelo,la,l,0.4503,,,,297.8097,297.8099,-0.010008597,-0.409784296,0,0,0,,0,84,84,21,1,,,,
,,,,,,3378427f4c1e21efcdb70a2d,66a626ef09d4e21e1a8894ec,6734e039daa07db9fbaff9f5,2024-11-13_12h24.24.674,Tarea de género gramatical,2024.2.2,Win32,59.88023952,,,,,,,,,,,,,,,,,,,,,,297.8118,299.0259,a,1,[],[],[],[],[],[],[],0.5411,1,299.0261,299.5255,,,,,,1091,MAS,AGR,150,dolor,el,l,0.5411,,,,299.5256,299.5256,-0.010008597,-0.409784296,0,0,0,,0,85,85,190,1,,,,
,,,,,,3378427f4c1e21efcdb70a2d,66a626ef09d4e21e1a8894ec,6734e039daa07db9fbaff9f5,2024-11-13_12h24.24.674,Tarea de género gramatical,2024.2.2,Win32,59.88023952,,,,,,,,,,,,,,,,,,,,,,299.5268,300.5267,a,1,[],[],[],[],[],[],[],0.3248,1,300.5269,301.0264,,,,,,1043,MAS,AGR,150,faro,el,l,0.3248,,,,301.0266,301.0268,-0.010008597,-0.409784296,0,0,0,,0,86,86,142,1,,,,
,,,,,,3378427f4c1e21efcdb70a2d,66a626ef09d4e21e1a8894ec,6734e039daa07db9fbaff9f5,2024-11-13_12h24.24.674,Tarea de género gramatical,2024.2.2,Win32,59.88023952,,,,,,,,,,,,,,,,,,,,,,301.0289,302.0926,a,1,[],[],[],[],[],[],[],0.3849,1,302.0928,302.593,,,,,,1001,MAS,AGR,150,giro,el,l,0.3849,,,,302.5953,302.5968,-0.010008597,-0.409784296,0,0,0,,0,87,87,100,1,,,,
,,,,,,3378427f4c1e21efcdb70a2d,66a626ef09d4e21e1a8894ec,6734e039daa07db9fbaff9f5,2024-11-13_12h24.24.674,Tarea de género gramatical,2024.2.2,Win32,59.88023952,,,,,,,,,,,,,,,,,,,,,,302.5982,303.6591,a,1,[],[],[],[],[],[],[],0.3862,1,303.6593,304.1484,,,,,,1115,MAS,AGR,150,hueso,el,l,0.3862,,,,304.1487,304.1489,-0.010008597,-0.409784296,0,0,0,,0,88,88,214,1,,,,
,,,,,,3378427f4c1e21efcdb70a2d,66a626ef09d4e21e1a8894ec,6734e039daa07db9fbaff9f5,2024-11-13_12h24.24.674,Tarea de género gramatical,2024.2.2,Win32,59.88023952,,,,,,,,,,,,,,,,,,,,,,304.1506,305.1759,a,1,[],[],[],[],[],[],[],0.3524,1,305.1761,305.6778,,,,,,1180,MAS,DIS,150,salón,la,l,0.3524,,,,305.6778,305.6781,-0.010008597,-0.409784296,0,0,0,,0,89,89,279,1,,,,
,,,,,,3378427f4c1e21efcdb70a2d,66a626ef09d4e21e1a8894ec,6734e039daa07db9fbaff9f5,2024-11-13_12h24.24.674,Tarea de género gramatical,2024.2.2,Win32,59.88023952,,,,,,,,,,,,,,,,,,,,,,305.68,306.6766,a,1,[],[],[],[],[],[],[],0.324,1,306.6768,307.1767,,,,,,1085,MAS,AGR,150,sueño,el,l,0.324,,,,307.1768,307.177,-0.010008597,-0.409784296,0,0,0,,0,90,90,184,1,,,,
,,,,,,3378427f4c1e21efcdb70a2d,66a626ef09d4e21e1a8894ec,6734e039daa07db9fbaff9f5,2024-11-13_12h24.24.674,Tarea de género gramatical,2024.2.2,Win32,59.88023952,,,,,,,,,,,,,,,,,,,,,,307.179,308.1758,a,1,[],[],[],[],[],[],[],0.3189,1,308.1759,308.6766,,,,,,1098,MAS,CON,150,hotel,,l,0.3189,,,,308.6768,308.6769,-0.010008597,-0.409784296,0,0,0,,0,91,91,197,1,,,,
,,,,,,3378427f4c1e21efcdb70a2d,66a626ef09d4e21e1a8894ec,6734e039daa07db9fbaff9f5,2024-11-13_12h24.24.674,Tarea de género gramatical,2024.2.2,Win32,59.88023952,,,,,,,,,,,,,,,,,,,,,,308.679,309.8595,a,1,[],[],[],[],[],[],[],0.504,1,309.8597,310.3607,,,,,,1307,MAS,AGR,150,jurado,el,l,0.504,,,,310.363,310.3647,-0.010008597,-0.409784296,0,0,0,,0,92,92,406,1,,,,
,,,,,,3378427f4c1e21efcdb70a2d,66a626ef09d4e21e1a8894ec,6734e039daa07db9fbaff9f5,2024-11-13_12h24.24.674,Tarea de género gramatical,2024.2.2,Win32,59.88023952,,,,,,,,,,,,,,,,,,,,,,310.3667,311.4926,l,1,[],[],[],[],[],[],[],0.4513,1,311.4928,311.9831,,,,,,1141,FEM,DIS,150,pasta,el,a,0.4513,,,,311.9831,311.9833,-0.010008597,-0.409784296,0,0,0,,0,93,93,240,1,,,,
,,,,,,3378427f4c1e21efcdb70a2d,66a626ef09d4e21e1a8894ec,6734e039daa07db9fbaff9f5,2024-11-13_12h24.24.674,Tarea de género gramatical,2024.2.2,Win32,59.88023952,,,,,,,,,,,,,,,,,,,,,,311.9853,313.1593,l,1,[],[],[],[],[],[],[],0.5023,1,313.1595,313.6595,,,,,,1225,FEM,DIS,150,tierra,el,a,0.5023,,,,313.6596,313.6597,-0.010008597,-0.409784296,0,0,0,,0,94,94,324,1,,,,
,,,,,,3378427f4c1e21efcdb70a2d,66a626ef09d4e21e1a8894ec,6734e039daa07db9fbaff9f5,2024-11-13_12h24.24.674,Tarea de género gramatical,2024.2.2,Win32,59.88023952,,,,,,,,,,,,,,,,,,,,,,313.661,314.6422,a,1,[],[],[],[],[],[],[],0.2999,1,314.6423,315.1425,,,,,,1020,MAS,CON,150,puño,,l,0.2999,,,,315.1426,315.1426,-0.010008597,-0.409784296,0,0,0,,0,95,95,119,1,,,,
,,,,,,3378427f4c1e21efcdb70a2d,66a626ef09d4e21e1a8894ec,6734e039daa07db9fbaff9f5,2024-11-13_12h24.24.674,Tarea de género gramatical,2024.2.2,Win32,59.88023952,,,,,,,,,,,,,,,,,,,,,,315.144,316.4265,a,1,[],[],[],[],[],[],[],0.6087,1,316.4267,316.9263,,,,,,1044,MAS,CON,150,amor,,l,0.6087,,,,316.9286,316.9298,-0.010008597,-0.409784296,0,0,0,,0,96,96,143,1,,,,
,,,,,,3378427f4c1e21efcdb70a2d,66a626ef09d4e21e1a8894ec,6734e039daa07db9fbaff9f5,2024-11-13_12h24.24.674,Tarea de género gramatical,2024.2.2,Win32,59.88023952,,,,,,,,,,,,,,,,,,,,,,316.9311,318.0255,a,1,[],[],[],[],[],[],[],0.4149,1,318.0256,318.5265,,,,,,1254,MAS,CON,150,camión,,l,0.4149,,,,318.5267,318.5268,-0.010008597,-0.409784296,0,0,0,,0,97,97,353,1,,,,
,,,,,,3378427f4c1e21efcdb70a2d,66a626ef09d4e21e1a8894ec,6734e039daa07db9fbaff9f5,2024-11-13_12h24.24.674,Tarea de género gramatical,2024.2.2,Win32,59.88023952,,,,,,,,,,,,,,,,,,,,,,318.5289,319.6436,l,1,[],[],[],[],[],[],[],0.4395,1,319.6437,320.1432,,,,,,1291,FEM,DIS,150,altura,el,a,0.4395,,,,320.1433,320.1435,-0.010008597,-0.409784296,0,0,0,,0,98,98,390,1,,,,
,,,,,,3378427f4c1e21efcdb70a2d,66a626ef09d4e21e1a8894ec,6734e039daa07db9fbaff9f5,2024-11-13_12h24.24.674,Tarea de género gramatical,2024.2.2,Win32,59.88023952,,,,,,,,,,,,,,,,,,,,,,320.1454,321.3098,a,1,[],[],[],[],[],[],[],0.4839,1,321.3099,321.8097,,,,,,1074,MAS,CON,150,perro,,l,0.4839,,,,321.8099,321.8101,-0.010008597,-0.409784296,0,0,0,,0,99,99,173,1,,,,
,,,,,,3378427f4c1e21efcdb70a2d,66a626ef09d4e21e1a8894ec,6734e039daa07db9fbaff9f5,2024-11-13_12h24.24.674,Tarea de género gramatical,2024.2.2,Win32,59.88023952,,,,,,,,,,,,,,,,,,,,,,321.8122,323.0115,l,1,[],[],[],[],[],[],[],0.5298,1,323.0117,323.5089,,,,,,1005,FEM,CON,150,jefa,,a,0.5298,,,,323.5089,323.509,-0.010008597,-0.409784296,0,0,0,,0,100,100,104,1,,,,
,,,,,,3378427f4c1e21efcdb70a2d,66a626ef09d4e21e1a8894ec,6734e039daa07db9fbaff9f5,2024-11-13_12h24.24.674,Tarea de género gramatical,2024.2.2,Win32,59.88023952,,,,,,,,,,,,,,,,,,,,,,323.5105,324.6425,a,1,[],[],[],[],[],[],[],0.4679,1,324.6426,325.1435,,,,,,1114,MAS,DIS,150,fondo,la,l,0.4679,,,,325.1458,325.1465,-0.010008597,-0.409784296,0,0,0,,0,101,101,213,1,,,,
,,,,,,3378427f4c1e21efcdb70a2d,66a626ef09d4e21e1a8894ec,6734e039daa07db9fbaff9f5,2024-11-13_12h24.24.674,Tarea de género gramatical,2024.2.2,Win32,59.88023952,,,,,,,,,,,,,,,,,,,,,,325.147,326.4757,a,0,[],[],[],[],[],[],[],0.6549,0,326.4769,326.9753,,,,,,1323,FEM,CON,150,poesía,,a,0.6549,,,,326.9753,326.9754,-0.010008597,-0.409784296,0,0,0,,0,102,102,422,1,,,,
,,,,,,3378427f4c1e21efcdb70a2d,66a626ef09d4e21e1a8894ec,6734e039daa07db9fbaff9f5,2024-11-13_12h24.24.674,Tarea de género gramatical,2024.2.2,Win32,59.88023952,,,,,,,,,,,,,,,,,,,,,,326.9764,328.26,l,1,[],[],[],[],[],[],[],0.6174,1,328.2613,328.7607,,,,,,997,FEM,DIS,150,capa,el,a,0.6174,,,,328.7608,328.761,-0.010008597,-0.409784296,0,0,0,,0,103,103,96,1,,,,
,,,,,,3378427f4c1e21efcdb70a2d,66a626ef09d4e21e1a8894ec,6734e039daa07db9fbaff9f5,2024-11-13_12h24.24.674,Tarea de género gramatical,2024.2.2,Win32,59.88023952,,,,,,,,,,,,,,,,,,,,,,328.7628,329.8164,l,1,[],[],[],[],[],[],[],0.3824,1,329.8164,330.3098,,,,,,1100,FEM,AGR,150,silla,la,a,0.3824,,,,330.3099,330.3101,-0.010008597,-0.409784296,0,0,0,,0,104,104,199,1,,,,
,,,,,,3378427f4c1e21efcdb70a2d,66a626ef09d4e21e1a8894ec,6734e039daa07db9fbaff9f5,2024-11-13_12h24.24.674,Tarea de género gramatical,2024.2.2,Win32,59.88023952,,,,,,,,,,,,,,,,,,,,,,330.3122,331.5263,a,1,[],[],[],[],[],[],[],0.5378,1,331.5264,332.0262,,,,,,1290,MAS,CON,150,rostro,,l,0.5378,,,,332.0297,332.0324,-0.010008597,-0.409784296,0,0,0,,0,105,105,389,1,,,,
,,,,,,3378427f4c1e21efcdb70a2d,66a626ef09d4e21e1a8894ec,6734e039daa07db9fbaff9f5,2024-11-13_12h24.24.674,Tarea de género gramatical,2024.2.2,Win32,59.88023952,,,,,,,,,,,,,,,,,,,,,,332.0345,333.2258,a,1,[],[],[],[],[],[],[],0.5211,1,333.2259,333.7254,,,,,,1228,MAS,DIS,150,asunto,la,l,0.5211,,,,333.7254,333.7255,-0.010008597,-0.409784296,0,0,0,,0,106,106,327,1,,,,
,,,,,,3378427f4c1e21efcdb70a2d,66a626ef09d4e21e1a8894ec,6734e039daa07db9fbaff9f5,2024-11-13_12h24.24.674,Tarea de género gramatical,2024.2.2,Win32,59.88023952,,,,,,,,,,,,,,,,,,,,,,333.7267,334.8419,l,1,[],[],[],[],[],[],[],0.4374,1,334.842,335.3423,,,,,,1022,FEM,AGR,150,loca,la,a,0.4374,,,,335.3424,335.3425,-0.010008597,-0.409784296,0,0,0,,0,107,107,121,1,,,,
,,,,,,3378427f4c1e21efcdb70a2d,66a626ef09d4e21e1a8894ec,6734e039daa07db9fbaff9f5,2024-11-13_12h24.24.674,Tarea de género gramatical,2024.2.2,Win32,59.88023952,,,,,,,,,,,,,,,,,,,,,,335.3447,336.462,a,1,[],[],[],[],[],[],[],0.4443,1,336.4622,336.9598,,,,,,1217,MAS,AGR,150,número,el,l,0.4443,,,,336.9599,336.9601,-0.010008597,-0.409784296,0,0,0,,0,108,108,316,1,,,,
,,,,,,3378427f4c1e21efcdb70a2d,66a626ef09d4e21e1a8894ec,6734e039daa07db9fbaff9f5,2024-11-13_12h24.24.674,Tarea de género gramatical,2024.2.2,Win32,59.88023952,,,,,,,,,,,,,,,,,,,,,,336.9619,338.0769,a,1,[],[],[],[],[],[],[],0.4438,1,338.0775,338.5762,,,,,,1032,MAS,CON,150,velo,,l,0.4438,,,,338.5763,338.5764,-0.010008597,-0.409784296,0,0,0,,0,109,109,131,1,,,,
,,,,,,3378427f4c1e21efcdb70a2d,66a626ef09d4e21e1a8894ec,6734e039daa07db9fbaff9f5,2024-11-13_12h24.24.674,Tarea de género gramatical,2024.2.2,Win32,59.88023952,,,,,,,,,,,,,,,,,,,,,,338.5786,339.8761,l,1,[],[],[],[],[],[],[],0.6197,1,339.8763,340.3754,,,,,,1279,FEM,DIS,150,granja,el,a,0.6197,,,,340.3768,340.3778,-0.010008597,-0.409784296,0,0,0,,0,110,110,378,1,,,,
,,,,,,3378427f4c1e21efcdb70a2d,66a626ef09d4e21e1a8894ec,6734e039daa07db9fbaff9f5,2024-11-13_12h24.24.674,Tarea de género gramatical,2024.2.2,Win32,59.88023952,,,,,,,,,,,,,,,,,,,,,,340.3785,341.442,a,1,[],[],[],[],[],[],[],0.3857,1,341.4421,341.9419,,,,,,1002,MAS,CON,150,coro,,l,0.3857,,,,341.942,341.9422,-0.010008597,-0.409784296,0,0,0,,0,111,111,101,1,,,,
,,,,,,3378427f4c1e21efcdb70a2d,66a626ef09d4e21e1a8894ec,6734e039daa07db9fbaff9f5,2024-11-13_12h24.24.674,Tarea de género gramatical,2024.2.2,Win32,59.88023952,,,,,,,,,,,,,,,,,,,,,,341.9438,343.2438,l,0,[],[],[],[],[],[],[],0.6398,0,343.2453,343.7435,,,,,,1169,MAS,AGR,150,primo,el,l,0.6398,,,,343.7436,343.7437,-0.010008597,-0.409784296,0,0,0,,0,112,112,268,1,,,,
,,,,,,3378427f4c1e21efcdb70a2d,66a626ef09d4e21e1a8894ec,6734e039daa07db9fbaff9f5,2024-11-13_12h24.24.674,Tarea de género gramatical,2024.2.2,Win32,59.88023952,,,,,,,,,,,,,,,,,,,,,,343.7467,344.8924,l,1,[],[],[],[],[],[],[],0.4675,1,344.8934,345.3932,,,,,,1107,FEM,CON,150,playa,,a,0.4675,,,,345.3933,345.3935,-0.010008597,-0.409784296,0,0,0,,0,113,113,206,1,,,,
,,,,,,3378427f4c1e21efcdb70a2d,66a626ef09d4e21e1a8894ec,6734e039daa07db9fbaff9f5,2024-11-13_12h24.24.674,Tarea de género gramatical,2024.2.2,Win32,59.88023952,,,,,,,,,,,,,,,,,,,,,,345.3953,346.593,a,1,[],[],[],[],[],[],[],0.5255,1,346.5932,347.093,,,,,,1134,MAS,CON,150,héroe,,l,0.5255,,,,347.0947,347.0956,-0.010008597,-0.409784296,0,0,0,,0,114,114,233,1,,,,
,,,,,,3378427f4c1e21efcdb70a2d,66a626ef09d4e21e1a8894ec,6734e039daa07db9fbaff9f5,2024-11-13_12h24.24.674,Tarea de género gramatical,2024.2.2,Win32,59.88023952,,,,,,,,,,,,,,,,,,,,,,347.0964,348.2424,a,1,[],[],[],[],[],[],[],0.47,1,348.2425,348.7432,,,,,,1230,MAS,CON,150,estado,,l,0.47,,,,348.7433,348.7435,-0.010008597,-0.409784296,0,0,0,,0,115,115,329,1,,,,
,,,,,,3378427f4c1e21efcdb70a2d,66a626ef09d4e21e1a8894ec,6734e039daa07db9fbaff9f5,2024-11-13_12h24.24.674,Tarea de género gramatical,2024.2.2,Win32,59.88023952,,,,,,,,,,,,,,,,,,,,,,348.7455,350.0927,a,1,[],[],[],[],[],[],[],0.6804,1,350.0928,350.593,,,,,,1092,MAS,CON,150,grupo,,l,0.6804,,,,350.5931,350.5933,-0.010008597,-0.409784296,0,0,0,,0,116,116,191,1,,,,
,,,,,,3378427f4c1e21efcdb70a2d,66a626ef09d4e21e1a8894ec,6734e039daa07db9fbaff9f5,2024-11-13_12h24.24.674,Tarea de género gramatical,2024.2.2,Win32,59.88023952,,,,,,,,,,,,,,,,,,,,,,350.5953,351.7424,l,1,[],[],[],[],[],[],[],0.4707,1,351.7426,352.2432,,,,,,913,FEM,DIS,150,hija,el,a,0.4707,,,,352.2434,352.2436,-0.010008597,-0.409784296,0,0,0,,0,117,117,12,1,,,,
,,,,,,3378427f4c1e21efcdb70a2d,66a626ef09d4e21e1a8894ec,6734e039daa07db9fbaff9f5,2024-11-13_12h24.24.674,Tarea de género gramatical,2024.2.2,Win32,59.88023952,,,,,,,,,,,,,,,,,,,,,,352.246,353.5924,l,1,[],[],[],[],[],[],[],0.6682,1,353.5925,354.0919,,,,,,925,FEM,DIS,150,nave,el,a,0.6682,,,,354.092,354.0921,-0.010008597,-0.409784296,0,0,0,,0,118,118,24,1,,,,
,,,,,,3378427f4c1e21efcdb70a2d,66a626ef09d4e21e1a8894ec,6734e039daa07db9fbaff9f5,2024-11-13_12h24.24.674,Tarea de género gramatical,2024.2.2,Win32,59.88023952,,,,,,,,,,,,,,,,,,,,,,354.0934,355.194,l,1,[],[],[],[],[],[],[],0.4398,1,355.1941,355.6923,,,,,,1082,FEM,AGR,150,prisa,la,a,0.4398,,,,355.6938,355.6946,-0.010008597,-0.409784296,0,0,0,,0,119,119,181,1,,,,
,,,,,,3378427f4c1e21efcdb70a2d,66a626ef09d4e21e1a8894ec,6734e039daa07db9fbaff9f5,2024-11-13_12h24.24.674,Tarea de género gramatical,2024.2.2,Win32,59.88023952,,,,,,,,,,,,,,,,,,,,,,355.6953,356.7425,l,1,[],[],[],[],[],[],[],0.3696,1,356.7427,357.2456,,,,,,1255,FEM,DIS,150,mirada,el,a,0.3696,,,,357.2456,357.2458,-0.010008597,-0.409784296,0,0,0,,0,120,120,354,1,,,,
,,,,,,3378427f4c1e21efcdb70a2d,66a626ef09d4e21e1a8894ec,6734e039daa07db9fbaff9f5,2024-11-13_12h24.24.674,Tarea de género gramatical,2024.2.2,Win32,59.88023952,,,,,,,,,,,,,,,,,,,,,,357.2473,358.2925,a,1,[],[],[],[],[],[],[],0.3703,1,358.2927,358.7927,,,,,,1301,MAS,AGR,150,abrigo,el,l,0.3703,,,,358.7927,358.7929,-0.010008597,-0.409784296,0,0,0,,0,121,121,400,1,,,,
,,,,,,3378427f4c1e21efcdb70a2d,66a626ef09d4e21e1a8894ec,6734e039daa07db9fbaff9f5,2024-11-13_12h24.24.674,Tarea de género gramatical,2024.2.2,Win32,59.88023952,,,,,,,,,,,,,,,,,,,,,,358.7941,359.9932,a,1,[],[],[],[],[],[],[],0.5212,1,359.9934,360.483,,,,,,1110,MAS,CON,150,baile,,l,0.5212,,,,360.4832,360.4833,-0.010008597,-0.409784296,0,0,0,,0,122,122,209,1,,,,
,,,,,,3378427f4c1e21efcdb70a2d,66a626ef09d4e21e1a8894ec,6734e039daa07db9fbaff9f5,2024-11-13_12h24.24.674,Tarea de género gramatical,2024.2.2,Win32,59.88023952,,,,,,,,,,,,,,,,,,,,,,360.485,361.7821,l,1,[],[],[],[],[],[],[],0.6164,1,361.7821,362.2827,,,,,,981,FEM,CON,150,cima,,a,0.6164,,,,362.284,362.285,-0.010008597,-0.409784296,0,0,0,,0,123,123,80,1,,,,
,,,,,,3378427f4c1e21efcdb70a2d,66a626ef09d4e21e1a8894ec,6734e039daa07db9fbaff9f5,2024-11-13_12h24.24.674,Tarea de género gramatical,2024.2.2,Win32,59.88023952,,,,,,,,,,,,,,,,,,,,,,362.286,363.4177,a,1,[],[],[],[],[],[],[],0.4519,1,363.4179,363.9174,,,,,,1146,MAS,CON,150,humor,,l,0.4519,,,,363.9175,363.9177,-0.010008597,-0.409784296,0,0,0,,0,124,124,245,1,,,,
,,,,,,3378427f4c1e21efcdb70a2d,66a626ef09d4e21e1a8894ec,6734e039daa07db9fbaff9f5,2024-11-13_12h24.24.674,Tarea de género gramatical,2024.2.2,Win32,59.88023952,,,,,,,,,,,,,,,,,,,,,,363.9194,365.185,a,1,[],[],[],[],[],[],[],0.5869,1,365.1852,365.6837,,,,,,976,MAS,DIS,150,lujo,la,l,0.5869,,,,365.6839,365.6841,-0.010008597,-0.409784296,0,0,0,,0,125,125,75,1,,,,
,,,,,,3378427f4c1e21efcdb70a2d,66a626ef09d4e21e1a8894ec,6734e039daa07db9fbaff9f5,2024-11-13_12h24.24.674,Tarea de género gramatical,2024.2.2,Win32,59.88023952,,,,,,,,,,,,,,,,,,,,,,365.6859,367.0181,l,1,[],[],[],[],[],[],[],0.6523,1,367.0184,367.5206,,,,,,1123,FEM,DIS,150,plata,el,a,0.6523,,,,367.5206,367.5208,-0.010008597,-0.409784296,0,0,0,,0,126,126,222,1,,,,
,,,,,,3378427f4c1e21efcdb70a2d,66a626ef09d4e21e1a8894ec,6734e039daa07db9fbaff9f5,2024-11-13_12h24.24.674,Tarea de género gramatical,2024.2.2,Win32,59.88023952,,,,,,,,,,,,,,,,,,,,,,367.5226,368.6014,l,1,[],[],[],[],[],[],[],0.4021,1,368.6015,369.1004,,,,,,933,FEM,CON,150,boda,,a,0.4021,,,,369.1004,369.1007,-0.010008597,-0.409784296,0,0,0,,0,127,127,32,1,,,,
,,,,,,3378427f4c1e21efcdb70a2d,66a626ef09d4e21e1a8894ec,6734e039daa07db9fbaff9f5,2024-11-13_12h24.24.674,Tarea de género gramatical,2024.2.2,Win32,59.88023952,,,,,,,,,,,,,,,,,,,,,,369.1025,370.1354,a,1,[],[],[],[],[],[],[],0.3521,1,370.1355,370.6336,,,,,,964,MAS,DIS,150,saco,la,l,0.3521,,,,370.6354,370.6365,-0.010008597,-0.409784296,0,0,0,,0,128,128,63,1,,,,
,,,,,,3378427f4c1e21efcdb70a2d,66a626ef09d4e21e1a8894ec,6734e039daa07db9fbaff9f5,2024-11-13_12h24.24.674,Tarea de género gramatical,2024.2.2,Win32,59.88023952,,,,,,,,,,,,,,,,,,,,,,370.6377,372.1184,l,1,[],[],[],[],[],[],[],0.8023,1,372.1185,372.6168,,,,,,1261,FEM,DIS,150,oferta,el,a,0.8023,,,,372.6168,372.6171,-0.010008597,-0.409784296,0,0,0,,0,129,129,360,1,,,,
,,,,,,3378427f4c1e21efcdb70a2d,66a626ef09d4e21e1a8894ec,6734e039daa07db9fbaff9f5,2024-11-13_12h24.24.674,Tarea de género gramatical,2024.2.2,Win32,59.88023952,,,,,,,,,,,,,,,,,,,,,,372.6188,373.883,a,1,[],[],[],[],[],[],[],0.5844,1,373.8832,374.3833,,,,,,1067,MAS,AGR,150,juego,el,l,0.5844,,,,374.3835,374.3837,-0.010008597,-0.409784296,0,0,0,,0,130,130,166,1,,,,
,,,,,,3378427f4c1e21efcdb70a2d,66a626ef09d4e21e1a8894ec,6734e039daa07db9fbaff9f5,2024-11-13_12h24.24.674,Tarea de género gramatical,2024.2.2,Win32,59.88023952,,,,,,,,,,,,,,,,,,,,,,374.3855,375.7018,a,1,[],[],[],[],[],[],[],0.6356,1,375.7019,376.2003,,,,,,972,MAS,CON,150,hoyo,,l,0.6356,,,,376.2004,376.2006,-0.010008597,-0.409784296,0,0,0,,0,131,131,71,1,,,,
,,,,,,3378427f4c1e21efcdb70a2d,66a626ef09d4e21e1a8894ec,6734e039daa07db9fbaff9f5,2024-11-13_12h24.24.674,Tarea de género gramatical,2024.2.2,Win32,59.88023952,,,,,,,,,,,,,,,,,,,,,,376.2029,377.3839,l,1,[],[],[],[],[],[],[],0.5024,1,377.3841,377.8848,,,,,,901,FEM,DIS,150,casa,el,a,0.5024,,,,377.8868,377.8881,-0.010008597,-0.409784296,0,0,0,,0,132,132,0,1,,,,
,,,,,,3378427f4c1e21efcdb70a2d,66a626ef09d4e21e1a8894ec,6734e039daa07db9fbaff9f5,2024-11-13_12h24.24.674,Tarea de género gramatical,2024.2.2,Win32,59.88023952,,,,,,,,,,,,,,,,,,,,,,377.8893,379.319,l,1,[],[],[],[],[],[],[],0.7533,1,379.3191,379.8164,,,,,,1155,FEM,CON,150,tribu,,a,0.7533,,,,379.8166,379.8168,-0.010008597,-0.409784296,0,0,0,,0,133,133,254,1,,,,
,,,,,,3378427f4c1e21efcdb70a2d,66a626ef09d4e21e1a8894ec,6734e039daa07db9fbaff9f5,2024-11-13_12h24.24.674,Tarea de género gramatical,2024.2.2,Win32,59.88023952,,,,,,,,,,,,,,,,,,,,,,379.8188,381.0346,a,1,[],[],[],[],[],[],[],0.535,1,381.0348,381.5322,,,,,,953,MAS,AGR,150,vaso,el,l,0.535,,,,381.5323,381.5324,-0.010008597,-0.409784296,0,0,0,,0,134,134,52,1,,,,
,,,,,,3378427f4c1e21efcdb70a2d,66a626ef09d4e21e1a8894ec,6734e039daa07db9fbaff9f5,2024-11-13_12h24.24.674,Tarea de género gramatical,2024.2.2,Win32,59.88023952,,,,,,,,,,,,,,,,,,,,,,381.5338,383.2686,a,1,[],[],[],[],[],[],[],1.0691,1,383.2687,383.7672,,,,,,1186,MAS,DIS,150,reino,la,l,1.0691,,,,383.7673,383.7674,-0.010008597,-0.409784296,0,0,0,,0,135,135,285,1,,,,
,,,,,,3378427f4c1e21efcdb70a2d,66a626ef09d4e21e1a8894ec,6734e039daa07db9fbaff9f5,2024-11-13_12h24.24.674,Tarea de género gramatical,2024.2.2,Win32,59.88023952,,,,,,,,,,,,,,,,,,,,,,383.7692,384.9683,a,1,[],[],[],[],[],[],[],0.52,1,384.9685,385.4658,,,,,,1350,MAS,CON,150,conejo,,l,0.52,,,,385.4659,385.4661,-0.010008597,-0.409784296,0,0,0,,0,136,136,449,1,,,,
,,,,,,3378427f4c1e21efcdb70a2d,66a626ef09d4e21e1a8894ec,6734e039daa07db9fbaff9f5,2024-11-13_12h24.24.674,Tarea de género gramatical,2024.2.2,Win32,59.88023952,,,,,,,,,,,,,,,,,,,,,,385.4673,386.8515,l,1,[],[],[],[],[],[],[],0.702,1,386.8516,387.3478,,,,,,1304,FEM,AGR,150,gloria,la,a,0.702,,,,387.3487,387.3493,-0.010008597,-0.409784296,0,0,0,,0,137,137,403,1,,,,
,,,,,,3378427f4c1e21efcdb70a2d,66a626ef09d4e21e1a8894ec,6734e039daa07db9fbaff9f5,2024-11-13_12h24.24.674,Tarea de género gramatical,2024.2.2,Win32,59.88023952,,,,,,,,,,,,,,,,,,,,,,387.35,388.5843,l,1,[],[],[],[],[],[],[],0.5681,1,388.5845,389.084,,,,,,1052,FEM,AGR,150,gente,la,a,0.5681,,,,389.0841,389.0842,-0.010008597,-0.409784296,0,0,0,,0,138,138,151,1,,,,
,,,,,,3378427f4c1e21efcdb70a2d,66a626ef09d4e21e1a8894ec,6734e039daa07db9fbaff9f5,2024-11-13_12h24.24.674,Tarea de género gramatical,2024.2.2,Win32,59.88023952,,,,,,,,,,,,,,,,,,,,,,389.0858,390.2342,a,1,[],[],[],[],[],[],[],0.4685,1,390.2345,390.733,,,,,,1103,MAS,AGR,150,novio,el,l,0.4685,,,,390.733,390.7332,-0.010008597,-0.409784296,0,0,0,,0,139,139,202,1,,,,
,,,,,,3378427f4c1e21efcdb70a2d,66a626ef09d4e21e1a8894ec,6734e039daa07db9fbaff9f5,2024-11-13_12h24.24.674,Tarea de género gramatical,2024.2.2,Win32,59.88023952,,,,,,,,,,,,,,,,,,,,,,390.7346,391.9668,l,1,[],[],[],[],[],[],[],0.5519,1,391.967,392.4664,,,,,,1166,FEM,AGR,150,jaula,la,a,0.5519,,,,392.4666,392.4668,-0.010008597,-0.409784296,0,0,0,,0,140,140,265,1,,,,
,,,,,,3378427f4c1e21efcdb70a2d,66a626ef09d4e21e1a8894ec,6734e039daa07db9fbaff9f5,2024-11-13_12h24.24.674,Tarea de género gramatical,2024.2.2,Win32,59.88023952,,,,,,,,,,,,,,,,,,,,,,392.4684,393.9343,a,1,[],[],[],[],[],[],[],0.7864,1,393.9344,394.4322,,,,,,1024,MAS,DIS,150,clan,la,l,0.7864,,,,394.4335,394.4342,-0.010008597,-0.409784296,0,0,0,,0,141,141,123,1,,,,
,,,,,,3378427f4c1e21efcdb70a2d,66a626ef09d4e21e1a8894ec,6734e039daa07db9fbaff9f5,2024-11-13_12h24.24.674,Tarea de género gramatical,2024.2.2,Win32,59.88023952,,,,,,,,,,,,,,,,,,,,,,394.4349,395.6013,l,1,[],[],[],[],[],[],[],0.4855,1,395.6015,396.1003,,,,,,1233,FEM,CON,150,locura,,a,0.4855,,,,396.1005,396.1007,-0.010008597,-0.409784296,0,0,0,,0,142,142,332,1,,,,
,,,,,,3378427f4c1e21efcdb70a2d,66a626ef09d4e21e1a8894ec,6734e039daa07db9fbaff9f5,2024-11-13_12h24.24.674,Tarea de género gramatical,2024.2.2,Win32,59.88023952,,,,,,,,,,,,,,,,,,,,,,396.1024,397.4329,a,1,[],[],[],[],[],[],[],0.6508,1,397.433,397.9314,,,,,,1222,MAS,DIS,150,minuto,la,l,0.6508,,,,397.9314,397.9315,-0.010008597,-0.409784296,0,0,0,,0,143,143,321,1,,,,
,,,,,,3378427f4c1e21efcdb70a2d,66a626ef09d4e21e1a8894ec,6734e039daa07db9fbaff9f5,2024-11-13_12h24.24.674,Tarea de género gramatical,2024.2.2,Win32,59.88023952,,,,,,,,,,,,,,,,,,,,,,397.9322,399.35,l,1,[],[],[],[],[],[],[],0.7509,1,399.3501,399.8502,,,,,,973,FEM,DIS,150,roca,el,a,0.7509,,,,399.8503,399.8505,-0.010008597,-0.409784296,0,0,0,,0,144,144,72,1,,,,
,,,,,,3378427f4c1e21efcdb70a2d,66a626ef09d4e21e1a8894ec,6734e039daa07db9fbaff9f5,2024-11-13_12h24.24.674,Tarea de género gramatical,2024.2.2,Win32,59.88023952,,,,,,,,,,,,,,,,,,,,,,399.8522,400.9997,l,1,[],[],[],[],[],[],[],0.4844,1,400.9998,401.5007,,,,,,1160,FEM,AGR,150,barra,la,a,0.4844,,,,401.5009,401.501,-0.010008597,-0.409784296,0,0,0,,0,145,145,259,1,,,,
,,,,,,3378427f4c1e21efcdb70a2d,66a626ef09d4e21e1a8894ec,6734e039daa07db9fbaff9f5,2024-11-13_12h24.24.674,Tarea de género gramatical,2024.2.2,Win32,59.88023952,,,,,,,,,,,,,,,,,,,,,,401.5028,402.6349,l,1,[],[],[],[],[],[],[],0.4524,1,402.6351,403.1339,,,,,,999,FEM,CON,150,fase,,a,0.4524,,,,403.1359,403.1371,-0.010008597,-0.409784296,0,0,0,,0,146,146,98,1,,,,
,,,,,,3378427f4c1e21efcdb70a2d,66a626ef09d4e21e1a8894ec,6734e039daa07db9fbaff9f5,2024-11-13_12h24.24.674,Tarea de género gramatical,2024.2.2,Win32,59.88023952,,,,,,,,,,,,,,,,,,,,,,403.1383,404.2175,l,1,[],[],[],[],[],[],[],0.4029,1,404.2177,404.7169,,,,,,1334,FEM,AGR,150,corona,la,a,0.4029,,,,404.7171,404.7173,-0.010008597,-0.409784296,0,0,0,,0,147,147,433,1,,,,
,,,,,,3378427f4c1e21efcdb70a2d,66a626ef09d4e21e1a8894ec,6734e039daa07db9fbaff9f5,2024-11-13_12h24.24.674,Tarea de género gramatical,2024.2.2,Win32,59.88023952,,,,,,,,,,,,,,,,,,,,,,404.7191,406.0349,a,1,[],[],[],[],[],[],[],0.6367,1,406.035,406.533,,,,,,935,MAS,AGR,150,taxi,el,l,0.6367,,,,406.533,406.5333,-0.010008597,-0.409784296,0,0,0,,0,148,148,34,1,,,,
,,,,,,3378427f4c1e21efcdb70a2d,66a626ef09d4e21e1a8894ec,6734e039daa07db9fbaff9f5,2024-11-13_12h24.24.674,Tarea de género gramatical,2024.2.2,Win32,59.88023952,,,,,,,,,,,,,,,,,,,,,,406.5345,407.5674,a,1,[],[],[],[],[],[],[],0.3514,1,407.5675,408.0671,,,,,,1062,MAS,CON,150,miedo,,l,0.3514,,,,408.0673,408.0674,-0.010008597,-0.409784296,0,0,0,,0,149,149,161,1,,,,
,,,,,,3378427f4c1e21efcdb70a2d,66a626ef09d4e21e1a8894ec,6734e039daa07db9fbaff9f5,2024-11-13_12h24.24.674,Tarea de género gramatical,2024.2.2,Win32,59.88023952,,,,,,,,,,,,,,,,,,,,,,408.0691,409.2345,l,1,[],[],[],[],[],[],[],0.4852,1,409.2346,409.731,,,,,,1317,FEM,CON,150,cabaña,,a,0.4852,,,,409.7318,430.4845,-0.009084017,-0.409784296,0,0,0,space,0,150,150,416,1,20.736,,,
,,,,,,3378427f4c1e21efcdb70a2d,66a626ef09d4e21e1a8894ec,6734e039daa07db9fbaff9f5,2024-11-13_12h24.24.674,Tarea de género gramatical,2024.2.2,Win32,59.88023952,,,,,,,,,,,,,,,,,,,,,,430.486,433.1325,,0,[],[],[],[],[],[],[],0.4852,-1,433.1334,433.634,,,,,,1310,FEM,AGR,150,piedad,la,a,,,,,433.6341,433.6342,-0.006310276,-0.402387652,0,0,0,,0,151,151,409,1,,,,
,,,,,,3378427f4c1e21efcdb70a2d,66a626ef09d4e21e1a8894ec,6734e039daa07db9fbaff9f5,2024-11-13_12h24.24.674,Tarea de género gramatical,2024.2.2,Win32,59.88023952,,,,,,,,,,,,,,,,,,,,,,433.6358,434.8691,l,0,[],[],[],[],[],[],[],0.5524,0,434.8707,435.3646,,,,,,1216,MAS,DIS,150,cuerpo,la,l,0.5524,,,,435.3647,435.3648,-0.006310276,-0.403312233,0,0,0,,0,152,152,315,1,,,,
,,,,,,3378427f4c1e21efcdb70a2d,66a626ef09d4e21e1a8894ec,6734e039daa07db9fbaff9f5,2024-11-13_12h24.24.674,Tarea de género gramatical,2024.2.2,Win32,59.88023952,,,,,,,,,,,,,,,,,,,,,,435.3656,436.6664,l,1,[],[],[],[],[],[],[],0.6339,1,436.6677,437.1653,,,,,,980,FEM,AGR,150,vaca,la,a,0.6339,,,,437.1655,437.1656,-0.006310276,-0.403312233,0,0,0,,0,153,153,79,1,,,,
,,,,,,3378427f4c1e21efcdb70a2d,66a626ef09d4e21e1a8894ec,6734e039daa07db9fbaff9f5,2024-11-13_12h24.24.674,Tarea de género gramatical,2024.2.2,Win32,59.88023952,,,,,,,,,,,,,,,,,,,,,,437.1665,438.5833,l,1,[],[],[],[],[],[],[],0.751,1,438.5835,439.0841,,,,,,1231,FEM,DIS,150,cárcel,el,a,0.751,,,,439.0842,439.0844,-0.006310276,-0.403312233,0,0,0,,0,154,154,330,1,,,,
,,,,,,3378427f4c1e21efcdb70a2d,66a626ef09d4e21e1a8894ec,6734e039daa07db9fbaff9f5,2024-11-13_12h24.24.674,Tarea de género gramatical,2024.2.2,Win32,59.88023952,,,,,,,,,,,,,,,,,,,,,,439.086,440.2325,l,1,[],[],[],[],[],[],[],0.4668,1,440.2327,440.734,,,,,,1004,FEM,AGR,150,vela,la,a,0.4668,,,,440.736,440.7373,-0.004461115,-0.401463072,0,0,0,,0,155,155,103,1,,,,
,,,,,,3378427f4c1e21efcdb70a2d,66a626ef09d4e21e1a8894ec,6734e039daa07db9fbaff9f5,2024-11-13_12h24.24.674,Tarea de género gramatical,2024.2.2,Win32,59.88023952,,,,,,,,,,,,,,,,,,,,,,440.7385,441.9164,a,1,[],[],[],[],[],[],[],0.5008,1,441.9165,442.4161,,,,,,1175,MAS,AGR,150,disco,el,l,0.5008,,,,442.4161,442.4163,-0.004461115,-0.401463072,0,0,0,,0,156,156,274,1,,,,
,,,,,,3378427f4c1e21efcdb70a2d,66a626ef09d4e21e1a8894ec,6734e039daa07db9fbaff9f5,2024-11-13_12h24.24.674,Tarea de género gramatical,2024.2.2,Win32,59.88023952,,,,,,,,,,,,,,,,,,,,,,442.4174,443.4845,a,1,[],[],[],[],[],[],[],0.3867,1,443.4847,443.9841,,,,,,1181,MAS,AGR,150,actor,el,l,0.3867,,,,443.9841,443.9843,-0.004461115,-0.401463072,0,0,0,,0,157,157,280,1,,,,
,,,,,,3378427f4c1e21efcdb70a2d,66a626ef09d4e21e1a8894ec,6734e039daa07db9fbaff9f5,2024-11-13_12h24.24.674,Tarea de género gramatical,2024.2.2,Win32,59.88023952,,,,,,,,,,,,,,,,,,,,,,443.9862,445.0015,l,1,[],[],[],[],[],[],[],0.3357,1,445.0018,445.4997,,,,,,1040,FEM,AGR,150,mula,la,a,0.3357,,,,445.4998,445.5,-0.004461115,-0.401463072,0,0,0,,0,158,158,139,1,,,,
,,,,,,3378427f4c1e21efcdb70a2d,66a626ef09d4e21e1a8894ec,6734e039daa07db9fbaff9f5,2024-11-13_12h24.24.674,Tarea de género gramatical,2024.2.2,Win32,59.88023952,,,,,,,,,,,,,,,,,,,,,,445.5013,446.7183,l,1,[],[],[],[],[],[],[],0.5367,1,446.7184,447.217,,,,,,1177,FEM,DIS,150,plaza,el,a,0.5367,,,,447.2185,447.2194,-0.004461115,-0.401463072,0,0,0,,0,159,159,276,1,,,,
,,,,,,3378427f4c1e21efcdb70a2d,66a626ef09d4e21e1a8894ec,6734e039daa07db9fbaff9f5,2024-11-13_12h24.24.674,Tarea de género gramatical,2024.2.2,Win32,59.88023952,,,,,,,,,,,,,,,,,,,,,,447.2203,448.3517,l,1,[],[],[],[],[],[],[],0.4528,1,448.3519,448.8505,,,,,,1316,FEM,AGR,150,colina,la,a,0.4528,,,,448.8505,448.8507,-0.004461115,-0.401463072,0,0,0,,0,160,160,415,1,,,,
,,,,,,3378427f4c1e21efcdb70a2d,66a626ef09d4e21e1a8894ec,6734e039daa07db9fbaff9f5,2024-11-13_12h24.24.674,Tarea de género gramatical,2024.2.2,Win32,59.88023952,,,,,,,,,,,,,,,,,,,,,,448.8522,449.8351,a,1,[],[],[],[],[],[],[],0.3024,1,449.8352,450.3335,,,,,,1026,MAS,CON,150,lazo,,l,0.3024,,,,450.3336,450.3338,-0.004461115,-0.401463072,0,0,0,,0,161,161,125,1,,,,
,,,,,,3378427f4c1e21efcdb70a2d,66a626ef09d4e21e1a8894ec,6734e039daa07db9fbaff9f5,2024-11-13_12h24.24.674,Tarea de género gramatical,2024.2.2,Win32,59.88023952,,,,,,,,,,,,,,,,,,,,,,450.3354,451.451,l,1,[],[],[],[],[],[],[],0.435,1,451.4512,451.9483,,,,,,1287,FEM,CON,150,página,,a,0.435,,,,451.9484,451.9485,-0.004461115,-0.401463072,0,0,0,,0,162,162,386,1,,,,
,,,,,,3378427f4c1e21efcdb70a2d,66a626ef09d4e21e1a8894ec,6734e039daa07db9fbaff9f5,2024-11-13_12h24.24.674,Tarea de género gramatical,2024.2.2,Win32,59.88023952,,,,,,,,,,,,,,,,,,,,,,451.9492,453.0015,l,1,[],[],[],[],[],[],[],0.3854,1,453.0016,453.4979,,,,,,1341,FEM,CON,150,medida,,a,0.3854,,,,453.498,453.4981,-0.004461115,-0.401463072,0,0,0,,0,163,163,440,1,,,,
,,,,,,3378427f4c1e21efcdb70a2d,66a626ef09d4e21e1a8894ec,6734e039daa07db9fbaff9f5,2024-11-13_12h24.24.674,Tarea de género gramatical,2024.2.2,Win32,59.88023952,,,,,,,,,,,,,,,,,,,,,,453.4987,454.6355,a,1,[],[],[],[],[],[],[],0.4689,1,454.6356,455.1316,,,,,,912,MAS,CON,150,plan,,l,0.4689,,,,455.1326,455.1336,-0.004461115,-0.401463072,0,0,0,,0,164,164,11,1,,,,
,,,,,,3378427f4c1e21efcdb70a2d,66a626ef09d4e21e1a8894ec,6734e039daa07db9fbaff9f5,2024-11-13_12h24.24.674,Tarea de género gramatical,2024.2.2,Win32,59.88023952,,,,,,,,,,,,,,,,,,,,,,455.1344,456.3181,a,1,[],[],[],[],[],[],[],0.5024,1,456.3183,456.8158,,,,,,1109,MAS,AGR,150,banco,el,l,0.5024,,,,456.8158,456.8159,-0.004461115,-0.401463072,0,0,0,,0,165,165,208,1,,,,
,,,,,,3378427f4c1e21efcdb70a2d,66a626ef09d4e21e1a8894ec,6734e039daa07db9fbaff9f5,2024-11-13_12h24.24.674,Tarea de género gramatical,2024.2.2,Win32,59.88023952,,,,,,,,,,,,,,,,,,,,,,456.8168,457.9189,l,1,[],[],[],[],[],[],[],0.4185,1,457.9191,458.417,,,,,,927,FEM,CON,150,mesa,,a,0.4185,,,,458.4171,458.4172,-0.004461115,-0.401463072,0,0,0,,0,166,166,26,1,,,,
,,,,,,3378427f4c1e21efcdb70a2d,66a626ef09d4e21e1a8894ec,6734e039daa07db9fbaff9f5,2024-11-13_12h24.24.674,Tarea de género gramatical,2024.2.2,Win32,59.88023952,,,,,,,,,,,,,,,,,,,,,,458.4191,459.4818,a,1,[],[],[],[],[],[],[],0.383,1,459.4819,459.9834,,,,,,978,MAS,CON,150,oído,,l,0.383,,,,459.9836,459.9837,-0.004461115,-0.401463072,0,0,0,,0,167,167,77,1,,,,
,,,,,,3378427f4c1e21efcdb70a2d,66a626ef09d4e21e1a8894ec,6734e039daa07db9fbaff9f5,2024-11-13_12h24.24.674,Tarea de género gramatical,2024.2.2,Win32,59.88023952,,,,,,,,,,,,,,,,,,,,,,459.9854,461.1331,l,1,[],[],[],[],[],[],[],0.4673,1,461.1332,461.6337,,,,,,1232,FEM,AGR,150,basura,la,a,0.4673,,,,461.6358,461.6371,-0.004461115,-0.401463072,0,0,0,,0,168,168,331,1,,,,
,,,,,,3378427f4c1e21efcdb70a2d,66a626ef09d4e21e1a8894ec,6734e039daa07db9fbaff9f5,2024-11-13_12h24.24.674,Tarea de género gramatical,2024.2.2,Win32,59.88023952,,,,,,,,,,,,,,,,,,,,,,461.6383,462.7685,a,1,[],[],[],[],[],[],[],0.4526,1,462.7686,463.2669,,,,,,1127,MAS,AGR,150,vuelo,el,l,0.4526,,,,463.2671,463.2672,-0.004461115,-0.401463072,0,0,0,,0,169,169,226,1,,,,
,,,,,,3378427f4c1e21efcdb70a2d,66a626ef09d4e21e1a8894ec,6734e039daa07db9fbaff9f5,2024-11-13_12h24.24.674,Tarea de género gramatical,2024.2.2,Win32,59.88023952,,,,,,,,,,,,,,,,,,,,,,463.2688,464.4352,a,1,[],[],[],[],[],[],[],0.4871,1,464.4354,464.934,,,,,,1205,MAS,AGR,150,hombre,el,l,0.4871,,,,464.934,464.9342,-0.004461115,-0.401463072,0,0,0,,0,170,170,304,1,,,,
,,,,,,3378427f4c1e21efcdb70a2d,66a626ef09d4e21e1a8894ec,6734e039daa07db9fbaff9f5,2024-11-13_12h24.24.674,Tarea de género gramatical,2024.2.2,Win32,59.88023952,,,,,,,,,,,,,,,,,,,,,,464.936,466.1349,l,1,[],[],[],[],[],[],[],0.5203,1,466.1351,466.6337,,,,,,1214,FEM,AGR,150,señora,la,a,0.5203,,,,466.6339,466.6341,-0.004461115,-0.401463072,0,0,0,,0,171,171,313,1,,,,
,,,,,,3378427f4c1e21efcdb70a2d,66a626ef09d4e21e1a8894ec,6734e039daa07db9fbaff9f5,2024-11-13_12h24.24.674,Tarea de género gramatical,2024.2.2,Win32,59.88023952,,,,,,,,,,,,,,,,,,,,,,466.6357,468.0187,l,1,[],[],[],[],[],[],[],0.7039,1,468.0188,468.5174,,,,,,1113,FEM,CON,150,magia,,a,0.7039,,,,468.5175,468.5177,-0.004461115,-0.401463072,0,0,0,,0,172,172,212,1,,,,
,,,,,,3378427f4c1e21efcdb70a2d,66a626ef09d4e21e1a8894ec,6734e039daa07db9fbaff9f5,2024-11-13_12h24.24.674,Tarea de género gramatical,2024.2.2,Win32,59.88023952,,,,,,,,,,,,,,,,,,,,,,468.5192,469.9016,l,1,[],[],[],[],[],[],[],0.7024,1,469.9017,470.4002,,,,,,1207,FEM,DIS,150,suerte,el,a,0.7024,,,,470.4019,470.4029,-0.004461115,-0.401463072,0,0,0,,0,173,173,306,1,,,,
,,,,,,3378427f4c1e21efcdb70a2d,66a626ef09d4e21e1a8894ec,6734e039daa07db9fbaff9f5,2024-11-13_12h24.24.674,Tarea de género gramatical,2024.2.2,Win32,59.88023952,,,,,,,,,,,,,,,,,,,,,,470.4036,471.4331,l,1,[],[],[],[],[],[],[],0.3506,1,471.4333,471.9331,,,,,,968,FEM,AGR,150,pata,la,a,0.3506,,,,471.9332,471.9333,-0.004461115,-0.401463072,0,0,0,,0,174,174,67,1,,,,
,,,,,,3378427f4c1e21efcdb70a2d,66a626ef09d4e21e1a8894ec,6734e039daa07db9fbaff9f5,2024-11-13_12h24.24.674,Tarea de género gramatical,2024.2.2,Win32,59.88023952,,,,,,,,,,,,,,,,,,,,,,471.9347,473.0491,a,1,[],[],[],[],[],[],[],0.4335,1,473.0491,473.5477,,,,,,1150,MAS,DIS,150,cerdo,la,l,0.4335,,,,473.5478,473.5478,-0.004461115,-0.401463072,0,0,0,,0,175,175,249,1,,,,
,,,,,,3378427f4c1e21efcdb70a2d,66a626ef09d4e21e1a8894ec,6734e039daa07db9fbaff9f5,2024-11-13_12h24.24.674,Tarea de género gramatical,2024.2.2,Win32,59.88023952,,,,,,,,,,,,,,,,,,,,,,473.5485,474.7155,a,1,[],[],[],[],[],[],[],0.4999,1,474.7155,475.217,,,,,,1018,MAS,DIS,150,baúl,la,l,0.4999,,,,475.2172,475.2174,-0.004461115,-0.401463072,0,0,0,,0,176,176,117,1,,,,
,,,,,,3378427f4c1e21efcdb70a2d,66a626ef09d4e21e1a8894ec,6734e039daa07db9fbaff9f5,2024-11-13_12h24.24.674,Tarea de género gramatical,2024.2.2,Win32,59.88023952,,,,,,,,,,,,,,,,,,,,,,475.219,476.5175,l,1,[],[],[],[],[],[],[],0.6184,1,476.5177,477.0175,,,,,,1118,FEM,AGR,150,nieve,la,a,0.6184,,,,477.0194,477.0205,-0.004461115,-0.401463072,0,0,0,,0,177,177,217,1,,,,
,,,,,,3378427f4c1e21efcdb70a2d,66a626ef09d4e21e1a8894ec,6734e039daa07db9fbaff9f5,2024-11-13_12h24.24.674,Tarea de género gramatical,2024.2.2,Win32,59.88023952,,,,,,,,,,,,,,,,,,,,,,477.0216,478.1184,l,1,[],[],[],[],[],[],[],0.4201,1,478.1186,478.6171,,,,,,1065,FEM,CON,150,amiga,,a,0.4201,,,,478.6173,478.6175,-0.004461115,-0.401463072,0,0,0,,0,178,178,164,1,,,,
,,,,,,3378427f4c1e21efcdb70a2d,66a626ef09d4e21e1a8894ec,6734e039daa07db9fbaff9f5,2024-11-13_12h24.24.674,Tarea de género gramatical,2024.2.2,Win32,59.88023952,,,,,,,,,,,,,,,,,,,,,,478.6188,479.7351,a,1,[],[],[],[],[],[],[],0.4371,1,479.7353,480.2338,,,,,,1176,MAS,CON,150,ritmo,,l,0.4371,,,,480.2339,480.2341,-0.004461115,-0.401463072,0,0,0,,0,179,179,275,1,,,,
,,,,,,3378427f4c1e21efcdb70a2d,66a626ef09d4e21e1a8894ec,6734e039daa07db9fbaff9f5,2024-11-13_12h24.24.674,Tarea de género gramatical,2024.2.2,Win32,59.88023952,,,,,,,,,,,,,,,,,,,,,,480.2359,481.3356,l,1,[],[],[],[],[],[],[],0.4196,1,481.3357,481.8322,,,,,,1311,FEM,CON,150,actriz,,a,0.4196,,,,481.8322,481.8324,-0.004461115,-0.401463072,0,0,0,,0,180,180,410,1,,,,
,,,,,,3378427f4c1e21efcdb70a2d,66a626ef09d4e21e1a8894ec,6734e039daa07db9fbaff9f5,2024-11-13_12h24.24.674,Tarea de género gramatical,2024.2.2,Win32,59.88023952,,,,,,,,,,,,,,,,,,,,,,481.8335,482.9353,a,1,[],[],[],[],[],[],[],0.4196,1,482.9355,483.4321,,,,,,1318,MAS,DIS,150,pájaro,la,l,0.4196,,,,483.4322,483.4323,-0.004461115,-0.401463072,0,0,0,,0,181,181,417,1,,,,
,,,,,,3378427f4c1e21efcdb70a2d,66a626ef09d4e21e1a8894ec,6734e039daa07db9fbaff9f5,2024-11-13_12h24.24.674,Tarea de género gramatical,2024.2.2,Win32,59.88023952,,,,,,,,,,,,,,,,,,,,,,483.4333,484.6857,l,1,[],[],[],[],[],[],[],0.5864,1,484.6859,485.1821,,,,,,1111,FEM,DIS,150,salud,el,a,0.5864,,,,485.184,485.1851,-0.004461115,-0.401463072,0,0,0,,0,182,182,210,1,,,,
,,,,,,3378427f4c1e21efcdb70a2d,66a626ef09d4e21e1a8894ec,6734e039daa07db9fbaff9f5,2024-11-13_12h24.24.674,Tarea de género gramatical,2024.2.2,Win32,59.88023952,,,,,,,,,,,,,,,,,,,,,,485.1863,486.2517,l,1,[],[],[],[],[],[],[],0.3856,1,486.2519,486.7481,,,,,,1273,FEM,DIS,150,lluvia,el,a,0.3856,,,,486.7481,486.7482,-0.004461115,-0.401463072,0,0,0,,0,183,183,372,1,,,,
,,,,,,3378427f4c1e21efcdb70a2d,66a626ef09d4e21e1a8894ec,6734e039daa07db9fbaff9f5,2024-11-13_12h24.24.674,Tarea de género gramatical,2024.2.2,Win32,59.88023952,,,,,,,,,,,,,,,,,,,,,,486.7491,487.7518,a,1,[],[],[],[],[],[],[],0.3367,1,487.7521,488.2477,,,,,,1170,MAS,CON,150,queso,,l,0.3367,,,,488.2478,488.2479,-0.004461115,-0.401463072,0,0,0,,0,184,184,269,1,,,,
,,,,,,3378427f4c1e21efcdb70a2d,66a626ef09d4e21e1a8894ec,6734e039daa07db9fbaff9f5,2024-11-13_12h24.24.674,Tarea de género gramatical,2024.2.2,Win32,59.88023952,,,,,,,,,,,,,,,,,,,,,,488.2486,489.352,a,1,[],[],[],[],[],[],[],0.436,1,489.3522,489.8485,,,,,,934,MAS,DIS,150,gato,la,l,0.436,,,,489.8485,489.8487,-0.004461115,-0.401463072,0,0,0,,0,185,185,33,1,,,,
,,,,,,3378427f4c1e21efcdb70a2d,66a626ef09d4e21e1a8894ec,6734e039daa07db9fbaff9f5,2024-11-13_12h24.24.674,Tarea de género gramatical,2024.2.2,Win32,59.88023952,,,,,,,,,,,,,,,,,,,,,,489.8492,490.9511,a,1,[],[],[],[],[],[],[],0.4355,1,490.9512,491.4501,,,,,,1038,MAS,CON,150,luto,,l,0.4355,,,,491.4519,491.4529,-0.004461115,-0.401463072,0,0,0,,0,186,186,137,1,,,,
,,,,,,3378427f4c1e21efcdb70a2d,66a626ef09d4e21e1a8894ec,6734e039daa07db9fbaff9f5,2024-11-13_12h24.24.674,Tarea de género gramatical,2024.2.2,Win32,59.88023952,,,,,,,,,,,,,,,,,,,,,,491.454,492.4649,a,1,[],[],[],[],[],[],[],0.3326,1,492.4649,492.9664,,,,,,947,MAS,AGR,150,olor,el,l,0.3326,,,,492.9665,492.9668,-0.004461115,-0.401463072,0,0,0,,0,187,187,46,1,,,,
,,,,,,3378427f4c1e21efcdb70a2d,66a626ef09d4e21e1a8894ec,6734e039daa07db9fbaff9f5,2024-11-13_12h24.24.674,Tarea de género gramatical,2024.2.2,Win32,59.88023952,,,,,,,,,,,,,,,,,,,,,,492.9682,493.9652,a,1,[],[],[],[],[],[],[],0.3164,1,493.9653,494.4675,,,,,,995,MAS,AGR,150,tomo,el,l,0.3164,,,,494.4676,494.4677,-0.004461115,-0.401463072,0,0,0,,0,188,188,94,1,,,,
,,,,,,3378427f4c1e21efcdb70a2d,66a626ef09d4e21e1a8894ec,6734e039daa07db9fbaff9f5,2024-11-13_12h24.24.674,Tarea de género gramatical,2024.2.2,Win32,59.88023952,,,,,,,,,,,,,,,,,,,,,,494.4697,495.6001,l,1,[],[],[],[],[],[],[],0.4509,1,495.6003,496.1009,,,,,,1245,FEM,CON,150,pierna,,a,0.4509,,,,496.101,496.1012,-0.004461115,-0.401463072,0,0,0,,0,189,189,344,1,,,,
,,,,,,3378427f4c1e21efcdb70a2d,66a626ef09d4e21e1a8894ec,6734e039daa07db9fbaff9f5,2024-11-13_12h24.24.674,Tarea de género gramatical,2024.2.2,Win32,59.88023952,,,,,,,,,,,,,,,,,,,,,,496.103,497.3167,l,1,[],[],[],[],[],[],[],0.5339,1,497.3168,497.8172,,,,,,1039,FEM,DIS,150,pipa,el,a,0.5339,,,,497.8173,497.8177,-0.004461115,-0.401463072,0,0,0,,0,190,190,138,1,,,,
,,,,,,3378427f4c1e21efcdb70a2d,66a626ef09d4e21e1a8894ec,6734e039daa07db9fbaff9f5,2024-11-13_12h24.24.674,Tarea de género gramatical,2024.2.2,Win32,59.88023952,,,,,,,,,,,,,,,,,,,,,,497.8196,498.9678,l,1,[],[],[],[],[],[],[],0.4699,1,498.9679,499.465,,,,,,1346,FEM,AGR,150,bañera,la,a,0.4699,,,,499.4659,499.4664,-0.004461115,-0.401463072,0,0,0,,0,191,191,445,1,,,,
,,,,,,3378427f4c1e21efcdb70a2d,66a626ef09d4e21e1a8894ec,6734e039daa07db9fbaff9f5,2024-11-13_12h24.24.674,Tarea de género gramatical,2024.2.2,Win32,59.88023952,,,,,,,,,,,,,,,,,,,,,,499.4671,500.4673,a,1,[],[],[],[],[],[],[],0.3196,1,500.4675,500.9667,,,,,,1187,MAS,AGR,150,plato,el,l,0.3196,,,,500.9668,500.9671,-0.004461115,-0.401463072,0,0,0,,0,192,192,286,1,,,,
,,,,,,3378427f4c1e21efcdb70a2d,66a626ef09d4e21e1a8894ec,6734e039daa07db9fbaff9f5,2024-11-13_12h24.24.674,Tarea de género gramatical,2024.2.2,Win32,59.88023952,,,,,,,,,,,,,,,,,,,,,,500.9687,502.2857,l,1,[],[],[],[],[],[],[],0.6373,1,502.2859,502.7838,,,,,,950,FEM,AGR,150,dama,la,a,0.6373,,,,502.7839,502.784,-0.004461115,-0.401463072,0,0,0,,0,193,193,49,1,,,,
,,,,,,3378427f4c1e21efcdb70a2d,66a626ef09d4e21e1a8894ec,6734e039daa07db9fbaff9f5,2024-11-13_12h24.24.674,Tarea de género gramatical,2024.2.2,Win32,59.88023952,,,,,,,,,,,,,,,,,,,,,,502.7857,503.9849,l,1,[],[],[],[],[],[],[],0.5193,1,503.9851,504.4819,,,,,,956,FEM,AGR,150,bola,la,a,0.5193,,,,504.482,504.4821,-0.004461115,-0.401463072,0,0,0,,0,194,194,55,1,,,,
,,,,,,3378427f4c1e21efcdb70a2d,66a626ef09d4e21e1a8894ec,6734e039daa07db9fbaff9f5,2024-11-13_12h24.24.674,Tarea de género gramatical,2024.2.2,Win32,59.88023952,,,,,,,,,,,,,,,,,,,,,,504.4829,505.5502,a,1,[],[],[],[],[],[],[],0.4012,1,505.5503,506.0483,,,,,,1156,MAS,DIS,150,techo,la,l,0.4012,,,,506.0492,506.05,-0.004461115,-0.401463072,0,0,0,,0,195,195,255,1,,,,
,,,,,,3378427f4c1e21efcdb70a2d,66a626ef09d4e21e1a8894ec,6734e039daa07db9fbaff9f5,2024-11-13_12h24.24.674,Tarea de género gramatical,2024.2.2,Win32,59.88023952,,,,,,,,,,,,,,,,,,,,,,506.0506,507.4151,l,1,[],[],[],[],[],[],[],0.6829,1,507.4153,507.9174,,,,,,1021,FEM,DIS,150,pila,el,a,0.6829,,,,507.9175,507.9177,-0.004461115,-0.401463072,0,0,0,,0,196,196,120,1,,,,
,,,,,,3378427f4c1e21efcdb70a2d,66a626ef09d4e21e1a8894ec,6734e039daa07db9fbaff9f5,2024-11-13_12h24.24.674,Tarea de género gramatical,2024.2.2,Win32,59.88023952,,,,,,,,,,,,,,,,,,,,,,507.9195,509.0653,l,1,[],[],[],[],[],[],[],0.4669,1,509.0654,509.5671,,,,,,1251,FEM,CON,150,espada,,a,0.4669,,,,509.5671,509.5673,-0.004461115,-0.401463072,0,0,0,,0,197,197,350,1,,,,
,,,,,,3378427f4c1e21efcdb70a2d,66a626ef09d4e21e1a8894ec,6734e039daa07db9fbaff9f5,2024-11-13_12h24.24.674,Tarea de género gramatical,2024.2.2,Win32,59.88023952,,,,,,,,,,,,,,,,,,,,,,509.5691,510.6176,a,1,[],[],[],[],[],[],[],0.3684,1,510.6177,511.1173,,,,,,1193,MAS,AGR,150,patio,el,l,0.3684,,,,511.1173,511.1176,-0.004461115,-0.401463072,0,0,0,,0,198,198,292,1,,,,
,,,,,,3378427f4c1e21efcdb70a2d,66a626ef09d4e21e1a8894ec,6734e039daa07db9fbaff9f5,2024-11-13_12h24.24.674,Tarea de género gramatical,2024.2.2,Win32,59.88023952,,,,,,,,,,,,,,,,,,,,,,511.1193,512.1345,a,1,[],[],[],[],[],[],[],0.3366,1,512.1347,512.6338,,,,,,1265,MAS,AGR,150,código,el,l,0.3366,,,,512.6339,512.6341,-0.004461115,-0.401463072,0,0,0,,0,199,199,364,1,,,,
,,,,,,3378427f4c1e21efcdb70a2d,66a626ef09d4e21e1a8894ec,6734e039daa07db9fbaff9f5,2024-11-13_12h24.24.674,Tarea de género gramatical,2024.2.2,Win32,59.88023952,,,,,,,,,,,,,,,,,,,,,,512.6357,513.8027,l,1,[],[],[],[],[],[],[],0.488,1,513.8029,514.3003,,,,,,1328,FEM,AGR,150,jugada,la,a,0.488,,,,514.3025,514.3038,-0.004461115,-0.401463072,0,0,0,,0,200,200,427,1,,,,
,,,,,,3378427f4c1e21efcdb70a2d,66a626ef09d4e21e1a8894ec,6734e039daa07db9fbaff9f5,2024-11-13_12h24.24.674,Tarea de género gramatical,2024.2.2,Win32,59.88023952,,,,,,,,,,,,,,,,,,,,,,514.3049,515.4507,l,1,[],[],[],[],[],[],[],0.4696,1,515.4508,515.9504,,,,,,1191,FEM,CON,150,aguja,,a,0.4696,,,,515.9505,515.9508,-0.004461115,-0.401463072,0,0,0,,0,201,201,290,1,,,,
,,,,,,3378427f4c1e21efcdb70a2d,66a626ef09d4e21e1a8894ec,6734e039daa07db9fbaff9f5,2024-11-13_12h24.24.674,Tarea de género gramatical,2024.2.2,Win32,59.88023952,,,,,,,,,,,,,,,,,,,,,,515.9526,517.1188,a,1,[],[],[],[],[],[],[],0.4865,1,517.1189,517.6171,,,,,,1152,MAS,CON,150,viejo,,l,0.4865,,,,517.6173,517.6175,-0.004461115,-0.401463072,0,0,0,,0,202,202,251,1,,,,
,,,,,,3378427f4c1e21efcdb70a2d,66a626ef09d4e21e1a8894ec,6734e039daa07db9fbaff9f5,2024-11-13_12h24.24.674,Tarea de género gramatical,2024.2.2,Win32,59.88023952,,,,,,,,,,,,,,,,,,,,,,517.6197,518.7865,a,0,[],[],[],[],[],[],[],0.486,0,518.7879,519.2812,,,,,,998,FEM,AGR,150,fuga,la,a,0.486,,,,519.2812,519.2812,-0.004461115,-0.401463072,0,0,0,,0,203,203,97,1,,,,
,,,,,,3378427f4c1e21efcdb70a2d,66a626ef09d4e21e1a8894ec,6734e039daa07db9fbaff9f5,2024-11-13_12h24.24.674,Tarea de género gramatical,2024.2.2,Win32,59.88023952,,,,,,,,,,,,,,,,,,,,,,519.2821,520.5355,a,1,[],[],[],[],[],[],[],0.5863,1,520.5371,521.0316,,,,,,1014,MAS,CON,150,menú,,l,0.5863,,,,521.0326,521.0332,-0.004461115,-0.401463072,0,0,0,,0,204,204,113,1,,,,
,,,,,,3378427f4c1e21efcdb70a2d,66a626ef09d4e21e1a8894ec,6734e039daa07db9fbaff9f5,2024-11-13_12h24.24.674,Tarea de género gramatical,2024.2.2,Win32,59.88023952,,,,,,,,,,,,,,,,,,,,,,521.0338,522.1017,l,1,[],[],[],[],[],[],[],0.403,1,522.1019,522.5979,,,,,,926,FEM,AGR,150,pena,la,a,0.403,,,,522.598,522.5981,-0.004461115,-0.401463072,0,0,0,,0,205,205,25,1,,,,
,,,,,,3378427f4c1e21efcdb70a2d,66a626ef09d4e21e1a8894ec,6734e039daa07db9fbaff9f5,2024-11-13_12h24.24.674,Tarea de género gramatical,2024.2.2,Win32,59.88023952,,,,,,,,,,,,,,,,,,,,,,522.5987,523.7178,l,1,[],[],[],[],[],[],[],0.4517,1,523.718,524.2174,,,,,,957,FEM,CON,150,moda,,a,0.4517,,,,524.2176,524.2177,-0.004461115,-0.401463072,0,0,0,,0,206,206,56,1,,,,
,,,,,,3378427f4c1e21efcdb70a2d,66a626ef09d4e21e1a8894ec,6734e039daa07db9fbaff9f5,2024-11-13_12h24.24.674,Tarea de género gramatical,2024.2.2,Win32,59.88023952,,,,,,,,,,,,,,,,,,,,,,524.2192,525.7681,l,1,[],[],[],[],[],[],[],0.8687,1,525.7683,526.2672,,,,,,1051,FEM,DIS,150,noche,el,a,0.8687,,,,526.2673,526.2676,-0.004461115,-0.401463072,0,0,0,,0,207,207,150,1,,,,
,,,,,,3378427f4c1e21efcdb70a2d,66a626ef09d4e21e1a8894ec,6734e039daa07db9fbaff9f5,2024-11-13_12h24.24.674,Tarea de género gramatical,2024.2.2,Win32,59.88023952,,,,,,,,,,,,,,,,,,,,,,526.2694,527.4515,a,1,[],[],[],[],[],[],[],0.503,1,527.4517,527.9505,,,,,,1090,MAS,DIS,150,campo,la,l,0.503,,,,527.9506,527.9509,-0.004461115,-0.401463072,0,0,0,,0,208,208,189,1,,,,
,,,,,,3378427f4c1e21efcdb70a2d,66a626ef09d4e21e1a8894ec,6734e039daa07db9fbaff9f5,2024-11-13_12h24.24.674,Tarea de género gramatical,2024.2.2,Win32,59.88023952,,,,,,,,,,,,,,,,,,,,,,527.9527,529.1516,l,1,[],[],[],[],[],[],[],0.5195,1,529.1518,529.6488,,,,,,1189,FEM,DIS,150,tabla,el,a,0.5195,,,,529.6501,529.6508,-0.004461115,-0.401463072,0,0,0,,0,209,209,288,1,,,,
,,,,,,3378427f4c1e21efcdb70a2d,66a626ef09d4e21e1a8894ec,6734e039daa07db9fbaff9f5,2024-11-13_12h24.24.674,Tarea de género gramatical,2024.2.2,Win32,59.88023952,,,,,,,,,,,,,,,,,,,,,,529.6517,530.769,l,1,[],[],[],[],[],[],[],0.4361,1,530.7692,531.2676,,,,,,1322,FEM,AGR,150,rutina,la,a,0.4361,,,,531.2676,531.2678,-0.004461115,-0.401463072,0,0,0,,0,210,210,421,1,,,,
,,,,,,3378427f4c1e21efcdb70a2d,66a626ef09d4e21e1a8894ec,6734e039daa07db9fbaff9f5,2024-11-13_12h24.24.674,Tarea de género gramatical,2024.2.2,Win32,59.88023952,,,,,,,,,,,,,,,,,,,,,,531.269,532.4516,a,1,[],[],[],[],[],[],[],0.5021,1,532.4518,532.9486,,,,,,988,MAS,DIS,150,pavo,la,l,0.5021,,,,532.9486,532.9487,-0.004461115,-0.401463072,0,0,0,,0,211,211,87,1,,,,
,,,,,,3378427f4c1e21efcdb70a2d,66a626ef09d4e21e1a8894ec,6734e039daa07db9fbaff9f5,2024-11-13_12h24.24.674,Tarea de género gramatical,2024.2.2,Win32,59.88023952,,,,,,,,,,,,,,,,,,,,,,532.9498,534.2023,l,1,[],[],[],[],[],[],[],0.5863,1,534.2025,534.6995,,,,,,1071,FEM,CON,150,mitad,,a,0.5863,,,,534.6997,534.6999,-0.004461115,-0.401463072,0,0,0,,0,212,212,170,1,,,,
,,,,,,3378427f4c1e21efcdb70a2d,66a626ef09d4e21e1a8894ec,6734e039daa07db9fbaff9f5,2024-11-13_12h24.24.674,Tarea de género gramatical,2024.2.2,Win32,59.88023952,,,,,,,,,,,,,,,,,,,,,,534.701,536.2163,a,0,[],[],[],[],[],[],[],0.8338,0,536.2176,536.7172,,,,,,1015,FEM,DIS,150,seda,el,a,0.8338,,,,536.7191,536.7202,-0.004461115,-0.401463072,0,0,0,,0,213,213,114,1,,,,
,,,,,,3378427f4c1e21efcdb70a2d,66a626ef09d4e21e1a8894ec,6734e039daa07db9fbaff9f5,2024-11-13_12h24.24.674,Tarea de género gramatical,2024.2.2,Win32,59.88023952,,,,,,,,,,,,,,,,,,,,,,536.7214,537.8674,l,1,[],[],[],[],[],[],[],0.4684,1,537.8689,538.3672,,,,,,955,FEM,DIS,150,taza,el,a,0.4684,,,,538.3674,538.3676,-0.004461115,-0.401463072,0,0,0,,0,214,214,54,1,,,,
,,,,,,3378427f4c1e21efcdb70a2d,66a626ef09d4e21e1a8894ec,6734e039daa07db9fbaff9f5,2024-11-13_12h24.24.674,Tarea de género gramatical,2024.2.2,Win32,59.88023952,,,,,,,,,,,,,,,,,,,,,,538.3693,539.4514,l,1,[],[],[],[],[],[],[],0.4034,1,539.4515,539.9505,,,,,,1058,FEM,AGR,150,chica,la,a,0.4034,,,,539.9506,539.9508,-0.004461115,-0.401463072,0,0,0,,0,215,215,157,1,,,,
,,,,,,3378427f4c1e21efcdb70a2d,66a626ef09d4e21e1a8894ec,6734e039daa07db9fbaff9f5,2024-11-13_12h24.24.674,Tarea de género gramatical,2024.2.2,Win32,59.88023952,,,,,,,,,,,,,,,,,,,,,,539.9526,541.3849,l,1,[],[],[],[],[],[],[],0.7527,1,541.3851,541.8838,,,,,,1135,FEM,DIS,150,torre,el,a,0.7527,,,,541.8839,541.8841,-0.004461115,-0.401463072,0,0,0,,0,216,216,234,1,,,,
,,,,,,3378427f4c1e21efcdb70a2d,66a626ef09d4e21e1a8894ec,6734e039daa07db9fbaff9f5,2024-11-13_12h24.24.674,Tarea de género gramatical,2024.2.2,Win32,59.88023952,,,,,,,,,,,,,,,,,,,,,,541.8856,542.9685,l,1,[],[],[],[],[],[],[],0.4026,1,542.9685,543.4678,,,,,,1034,FEM,AGR,150,rama,la,a,0.4026,,,,543.4679,543.468,-0.004461115,-0.401463072,0,0,0,,0,217,217,133,1,,,,
,,,,,,3378427f4c1e21efcdb70a2d,66a626ef09d4e21e1a8894ec,6734e039daa07db9fbaff9f5,2024-11-13_12h24.24.674,Tarea de género gramatical,2024.2.2,Win32,59.88023952,,,,,,,,,,,,,,,,,,,,,,543.4696,544.5516,l,1,[],[],[],[],[],[],[],0.4021,1,544.5518,545.048,,,,,,1119,FEM,CON,150,costa,,a,0.4021,,,,545.0487,545.0493,-0.004461115,-0.401463072,0,0,0,,0,218,218,218,1,,,,
,,,,,,3378427f4c1e21efcdb70a2d,66a626ef09d4e21e1a8894ec,6734e039daa07db9fbaff9f5,2024-11-13_12h24.24.674,Tarea de género gramatical,2024.2.2,Win32,59.88023952,,,,,,,,,,,,,,,,,,,,,,545.0499,546.0851,a,1,[],[],[],[],[],[],[],0.369,1,546.0852,546.5757,,,,,,966,MAS,CON,150,muro,,l,0.369,,,,546.5758,546.5758,-0.004461115,-0.401463072,0,0,0,,0,219,219,65,1,,,,
,,,,,,3378427f4c1e21efcdb70a2d,66a626ef09d4e21e1a8894ec,6734e039daa07db9fbaff9f5,2024-11-13_12h24.24.674,Tarea de género gramatical,2024.2.2,Win32,59.88023952,,,,,,,,,,,,,,,,,,,,,,546.5769,547.676,a,1,[],[],[],[],[],[],[],0.4357,1,547.6761,548.1761,,,,,,1272,MAS,CON,150,delito,,l,0.4357,,,,548.1761,548.1763,-0.004461115,-0.401463072,0,0,0,,0,220,220,371,1,,,,
,,,,,,3378427f4c1e21efcdb70a2d,66a626ef09d4e21e1a8894ec,6734e039daa07db9fbaff9f5,2024-11-13_12h24.24.674,Tarea de género gramatical,2024.2.2,Win32,59.88023952,,,,,,,,,,,,,,,,,,,,,,548.1776,549.5589,l,1,[],[],[],[],[],[],[],0.6976,1,549.5589,550.0599,,,,,,1183,FEM,DIS,150,pluma,el,a,0.6976,,,,550.06,550.0602,-0.004461115,-0.401463072,0,0,0,,0,221,221,282,1,,,,
,,,,,,3378427f4c1e21efcdb70a2d,66a626ef09d4e21e1a8894ec,6734e039daa07db9fbaff9f5,2024-11-13_12h24.24.674,Tarea de género gramatical,2024.2.2,Win32,59.88023952,,,,,,,,,,,,,,,,,,,,,,550.062,551.1261,a,1,[],[],[],[],[],[],[],0.3859,1,551.1262,551.6267,,,,,,1140,MAS,CON,150,ruido,,l,0.3859,,,,551.6287,551.63,-0.004461115,-0.401463072,0,0,0,,0,222,222,239,1,,,,
,,,,,,3378427f4c1e21efcdb70a2d,66a626ef09d4e21e1a8894ec,6734e039daa07db9fbaff9f5,2024-11-13_12h24.24.674,Tarea de género gramatical,2024.2.2,Win32,59.88023952,,,,,,,,,,,,,,,,,,,,,,551.6311,552.81,a,1,[],[],[],[],[],[],[],0.4994,1,552.8101,553.3099,,,,,,1080,MAS,CON,150,fuego,,l,0.4994,,,,553.31,553.3102,-0.004461115,-0.401463072,0,0,0,,0,223,223,179,1,,,,
,,,,,,3378427f4c1e21efcdb70a2d,66a626ef09d4e21e1a8894ec,6734e039daa07db9fbaff9f5,2024-11-13_12h24.24.674,Tarea de género gramatical,2024.2.2,Win32,59.88023952,,,,,,,,,,,,,,,,,,,,,,553.3125,554.5595,a,1,[],[],[],[],[],[],[],0.5712,1,554.5596,555.0603,,,,,,1096,MAS,DIS,150,barco,la,l,0.5712,,,,555.0604,555.0606,-0.003536535,-0.403312233,0,0,0,,0,224,224,195,1,,,,
,,,,,,3378427f4c1e21efcdb70a2d,66a626ef09d4e21e1a8894ec,6734e039daa07db9fbaff9f5,2024-11-13_12h24.24.674,Tarea de género gramatical,2024.2.2,Win32,59.88023952,,,,,,,,,,,,,,,,,,,,,,555.0627,556.3431,l,1,[],[],[],[],[],[],[],0.6042,1,556.3433,556.8458,,,,,,1184,FEM,AGR,150,fruta,la,a,0.6042,,,,556.8459,556.846,-0.003536535,-0.403312233,0,0,0,,0,225,225,283,1,,,,
,,,,,,3378427f4c1e21efcdb70a2d,66a626ef09d4e21e1a8894ec,6734e039daa07db9fbaff9f5,2024-11-13_12h24.24.674,Tarea de género gramatical,2024.2.2,Win32,59.88023952,,,,,,,,,,,,,,,,,,,,,,556.8478,558.0929,l,1,[],[],[],[],[],[],[],0.5727,1,558.0934,558.5927,,,,,,919,FEM,DIS,150,niña,el,a,0.5727,,,,558.5928,558.5929,-0.003536535,-0.403312233,0,0,0,,0,226,226,18,1,,,,
,,,,,,3378427f4c1e21efcdb70a2d,66a626ef09d4e21e1a8894ec,6734e039daa07db9fbaff9f5,2024-11-13_12h24.24.674,Tarea de género gramatical,2024.2.2,Win32,59.88023952,,,,,,,,,,,,,,,,,,,,,,558.5942,559.6599,l,1,[],[],[],[],[],[],[],0.3881,1,559.6599,560.1609,,,,,,1083,FEM,CON,150,llave,,a,0.3881,,,,560.1627,560.1639,-0.003536535,-0.403312233,0,0,0,,0,227,227,182,1,,,,
,,,,,,3378427f4c1e21efcdb70a2d,66a626ef09d4e21e1a8894ec,6734e039daa07db9fbaff9f5,2024-11-13_12h24.24.674,Tarea de género gramatical,2024.2.2,Win32,59.88023952,,,,,,,,,,,,,,,,,,,,,,560.1648,561.2098,a,1,[],[],[],[],[],[],[],0.3693,1,561.2099,561.7103,,,,,,1344,MAS,CON,150,límite,,l,0.3693,,,,561.7103,561.7105,-0.003536535,-0.403312233,0,0,0,,0,228,228,443,1,,,,
,,,,,,3378427f4c1e21efcdb70a2d,66a626ef09d4e21e1a8894ec,6734e039daa07db9fbaff9f5,2024-11-13_12h24.24.674,Tarea de género gramatical,2024.2.2,Win32,59.88023952,,,,,,,,,,,,,,,,,,,,,,561.712,562.8427,l,1,[],[],[],[],[],[],[],0.4498,1,562.8427,563.3434,,,,,,1154,FEM,AGR,150,caída,la,a,0.4498,,,,563.3435,563.3437,-0.003536535,-0.403312233,0,0,0,,0,229,229,253,1,,,,
,,,,,,3378427f4c1e21efcdb70a2d,66a626ef09d4e21e1a8894ec,6734e039daa07db9fbaff9f5,2024-11-13_12h24.24.674,Tarea de género gramatical,2024.2.2,Win32,59.88023952,,,,,,,,,,,,,,,,,,,,,,563.3462,564.5259,a,1,[],[],[],[],[],[],[],0.4989,1,564.526,565.0268,,,,,,1313,MAS,AGR,150,diario,el,l,0.4989,,,,565.0269,565.0272,-0.003536535,-0.403312233,0,0,0,,0,230,230,412,1,,,,
,,,,,,3378427f4c1e21efcdb70a2d,66a626ef09d4e21e1a8894ec,6734e039daa07db9fbaff9f5,2024-11-13_12h24.24.674,Tarea de género gramatical,2024.2.2,Win32,59.88023952,,,,,,,,,,,,,,,,,,,,,,565.0292,566.2094,a,1,[],[],[],[],[],[],[],0.5036,1,566.2095,566.7097,,,,,,1325,MAS,AGR,150,chiste,el,l,0.5036,,,,566.7119,566.7131,-0.003536535,-0.403312233,0,0,0,,0,231,231,424,1,,,,
,,,,,,3378427f4c1e21efcdb70a2d,66a626ef09d4e21e1a8894ec,6734e039daa07db9fbaff9f5,2024-11-13_12h24.24.674,Tarea de género gramatical,2024.2.2,Win32,59.88023952,,,,,,,,,,,,,,,,,,,,,,566.7144,567.8593,l,1,[],[],[],[],[],[],[],0.4725,1,567.8595,568.3595,,,,,,1281,FEM,CON,150,bebida,,a,0.4725,,,,568.3595,568.3597,-0.003536535,-0.403312233,0,0,0,,0,232,232,380,1,,,,
,,,,,,3378427f4c1e21efcdb70a2d,66a626ef09d4e21e1a8894ec,6734e039daa07db9fbaff9f5,2024-11-13_12h24.24.674,Tarea de género gramatical,2024.2.2,Win32,59.88023952,,,,,,,,,,,,,,,,,,,,,,568.3617,569.5268,l,1,[],[],[],[],[],[],[],0.4916,1,569.5269,570.0309,,,,,,1059,FEM,CON,150,clase,,a,0.4916,,,,570.031,570.031,-0.003536535,-0.403312233,0,0,0,,0,233,233,158,1,,,,
,,,,,,3378427f4c1e21efcdb70a2d,66a626ef09d4e21e1a8894ec,6734e039daa07db9fbaff9f5,2024-11-13_12h24.24.674,Tarea de género gramatical,2024.2.2,Win32,59.88023952,,,,,,,,,,,,,,,,,,,,,,570.0328,571.2941,a,1,[],[],[],[],[],[],[],0.5897,1,571.2943,571.7926,,,,,,1306,MAS,DIS,150,premio,la,l,0.5897,,,,571.7926,571.7926,-0.003536535,-0.403312233,0,0,0,,0,234,234,405,1,,,,
,,,,,,3378427f4c1e21efcdb70a2d,66a626ef09d4e21e1a8894ec,6734e039daa07db9fbaff9f5,2024-11-13_12h24.24.674,Tarea de género gramatical,2024.2.2,Win32,59.88023952,,,,,,,,,,,,,,,,,,,,,,571.7939,573.2927,a,1,[],[],[],[],[],[],[],0.8193,1,573.2928,573.7935,,,,,,1132,MAS,DIS,150,calor,la,l,0.8193,,,,573.7937,573.7938,-0.003536535,-0.403312233,0,0,0,,0,235,235,231,1,,,,
,,,,,,3378427f4c1e21efcdb70a2d,66a626ef09d4e21e1a8894ec,6734e039daa07db9fbaff9f5,2024-11-13_12h24.24.674,Tarea de género gramatical,2024.2.2,Win32,59.88023952,,,,,,,,,,,,,,,,,,,,,,573.7957,574.9613,l,1,[],[],[],[],[],[],[],0.4842,1,574.9615,575.4601,,,,,,1340,FEM,AGR,150,patada,la,a,0.4842,,,,575.4624,575.464,-0.003536535,-0.403312233,0,0,0,,0,236,236,439,1,,,,
,,,,,,3378427f4c1e21efcdb70a2d,66a626ef09d4e21e1a8894ec,6734e039daa07db9fbaff9f5,2024-11-13_12h24.24.674,Tarea de género gramatical,2024.2.2,Win32,59.88023952,,,,,,,,,,,,,,,,,,,,,,575.4653,576.6278,a,1,[],[],[],[],[],[],[],0.49,1,576.6279,577.1268,,,,,,1188,MAS,CON,150,grado,,l,0.49,,,,577.1269,577.1271,-0.003536535,-0.403312233,0,0,0,,0,237,237,287,1,,,,
,,,,,,3378427f4c1e21efcdb70a2d,66a626ef09d4e21e1a8894ec,6734e039daa07db9fbaff9f5,2024-11-13_12h24.24.674,Tarea de género gramatical,2024.2.2,Win32,59.88023952,,,,,,,,,,,,,,,,,,,,,,577.1291,578.2952,a,1,[],[],[],[],[],[],[],0.4958,1,578.2956,578.7935,,,,,,1294,MAS,DIS,150,examen,la,l,0.4958,,,,578.7935,578.7937,-0.003536535,-0.403312233,0,0,0,,0,238,238,393,1,,,,
,,,,,,3378427f4c1e21efcdb70a2d,66a626ef09d4e21e1a8894ec,6734e039daa07db9fbaff9f5,2024-11-13_12h24.24.674,Tarea de género gramatical,2024.2.2,Win32,59.88023952,,,,,,,,,,,,,,,,,,,,,,578.7953,579.9594,l,1,[],[],[],[],[],[],[],0.4877,1,579.9595,580.4598,,,,,,908,FEM,AGR,150,idea,la,a,0.4877,,,,580.4599,580.4602,-0.003536535,-0.403312233,0,0,0,,0,239,239,7,1,,,,
,,,,,,3378427f4c1e21efcdb70a2d,66a626ef09d4e21e1a8894ec,6734e039daa07db9fbaff9f5,2024-11-13_12h24.24.674,Tarea de género gramatical,2024.2.2,Win32,59.88023952,,,,,,,,,,,,,,,,,,,,,,580.462,581.6619,a,1,[],[],[],[],[],[],[],0.5275,1,581.6621,582.1613,,,,,,970,MAS,DIS,150,palo,la,l,0.5275,,,,582.1635,582.1647,-0.003536535,-0.403312233,0,0,0,,0,240,240,69,1,,,,
,,,,,,3378427f4c1e21efcdb70a2d,66a626ef09d4e21e1a8894ec,6734e039daa07db9fbaff9f5,2024-11-13_12h24.24.674,Tarea de género gramatical,2024.2.2,Win32,59.88023952,,,,,,,,,,,,,,,,,,,,,,582.1661,583.3943,l,1,[],[],[],[],[],[],[],0.5585,1,583.3945,583.893,,,,,,1202,FEM,AGR,150,cabeza,la,a,0.5585,,,,583.8931,583.8934,-0.003536535,-0.403312233,0,0,0,,0,241,241,301,1,,,,
,,,,,,3378427f4c1e21efcdb70a2d,66a626ef09d4e21e1a8894ec,6734e039daa07db9fbaff9f5,2024-11-13_12h24.24.674,Tarea de género gramatical,2024.2.2,Win32,59.88023952,,,,,,,,,,,,,,,,,,,,,,583.8953,585.3091,l,1,[],[],[],[],[],[],[],0.7387,1,585.3092,585.8101,,,,,,1075,FEM,DIS,150,señal,el,a,0.7387,,,,585.8101,585.8106,-0.003536535,-0.403312233,0,0,0,,0,242,242,174,1,,,,
,,,,,,3378427f4c1e21efcdb70a2d,66a626ef09d4e21e1a8894ec,6734e039daa07db9fbaff9f5,2024-11-13_12h24.24.674,Tarea de género gramatical,2024.2.2,Win32,59.88023952,,,,,,,,,,,,,,,,,,,,,,585.8125,586.9767,a,1,[],[],[],[],[],[],[],0.4844,1,586.9769,587.4768,,,,,,1295,MAS,AGR,150,correo,el,l,0.4844,,,,587.4769,587.4773,-0.003536535,-0.403312233,0,0,0,,0,243,243,394,1,,,,
,,,,,,3378427f4c1e21efcdb70a2d,66a626ef09d4e21e1a8894ec,6734e039daa07db9fbaff9f5,2024-11-13_12h24.24.674,Tarea de género gramatical,2024.2.2,Win32,59.88023952,,,,,,,,,,,,,,,,,,,,,,587.4791,588.7095,l,1,[],[],[],[],[],[],[],0.5528,1,588.7095,589.2102,,,,,,1333,FEM,DIS,150,huella,el,a,0.5528,,,,589.2103,589.2105,-0.003536535,-0.403312233,0,0,0,,0,244,244,432,1,,,,
,,,,,,3378427f4c1e21efcdb70a2d,66a626ef09d4e21e1a8894ec,6734e039daa07db9fbaff9f5,2024-11-13_12h24.24.674,Tarea de género gramatical,2024.2.2,Win32,59.88023952,,,,,,,,,,,,,,,,,,,,,,589.2127,590.3926,a,1,[],[],[],[],[],[],[],0.5033,1,590.3928,590.8936,,,,,,929,MAS,AGR,150,frío,el,l,0.5033,,,,590.8961,590.8976,-0.003536535,-0.403312233,0,0,0,,0,245,245,28,1,,,,
,,,,,,3378427f4c1e21efcdb70a2d,66a626ef09d4e21e1a8894ec,6734e039daa07db9fbaff9f5,2024-11-13_12h24.24.674,Tarea de género gramatical,2024.2.2,Win32,59.88023952,,,,,,,,,,,,,,,,,,,,,,590.899,592.0427,a,1,[],[],[],[],[],[],[],0.4677,1,592.0428,592.543,,,,,,1019,MAS,AGR,150,mito,el,l,0.4677,,,,592.5431,592.5432,-0.003536535,-0.403312233,0,0,0,,0,246,246,118,1,,,,
,,,,,,3378427f4c1e21efcdb70a2d,66a626ef09d4e21e1a8894ec,6734e039daa07db9fbaff9f5,2024-11-13_12h24.24.674,Tarea de género gramatical,2024.2.2,Win32,59.88023952,,,,,,,,,,,,,,,,,,,,,,592.5443,593.6759,l,0,[],[],[],[],[],[],[],0.4522,0,593.6773,594.1781,,,,,,1030,MAS,DIS,150,yate,la,l,0.4522,,,,594.1783,594.1785,-0.003536535,-0.403312233,0,0,0,,0,247,247,129,1,,,,
,,,,,,3378427f4c1e21efcdb70a2d,66a626ef09d4e21e1a8894ec,6734e039daa07db9fbaff9f5,2024-11-13_12h24.24.674,Tarea de género gramatical,2024.2.2,Win32,59.88023952,,,,,,,,,,,,,,,,,,,,,,594.1802,595.4427,a,1,[],[],[],[],[],[],[],0.5868,1,595.4438,595.9432,,,,,,1097,MAS,AGR,150,avión,el,l,0.5868,,,,595.9432,595.9434,-0.003536535,-0.403312233,0,0,0,,0,248,248,196,1,,,,
,,,,,,3378427f4c1e21efcdb70a2d,66a626ef09d4e21e1a8894ec,6734e039daa07db9fbaff9f5,2024-11-13_12h24.24.674,Tarea de género gramatical,2024.2.2,Win32,59.88023952,,,,,,,,,,,,,,,,,,,,,,595.9454,597.1934,l,1,[],[],[],[],[],[],[],0.5707,1,597.1935,597.6931,,,,,,1226,FEM,AGR,150,música,la,a,0.5707,,,,597.6946,597.6953,-0.003536535,-0.403312233,0,0,0,,0,249,249,325,1,,,,
