counterbalancing_condition,consent_prescreening.block_1/declare_consent,consent_prescreening.block_1/age_years,consent_prescreening.block_1/gender,consent_prescreening.block_1/language_disorder,consent_prescreening.block_1/first_language,PROLIFIC_PID,STUDY_ID,SESSION_ID,date,expName,psychopyVersion,OS,frameRate,check_prescreening_answers.started,check_prescreening_answers.stopped,Instructions.started,Instructions.stopped,instr_done_keyboard.keys,instr_done_keyboard.rt,instr_done_keyboard.duration,instr_done_touch.x,instr_done_touch.y,instr_done_touch.leftButton,instr_done_touch.midButton,instr_done_touch.rightButton,instruction_pages.thisRepN,instruction_pages.thisTrialN,instruction_pages.thisN,instruction_pages.thisIndex,instruction_pages.ran,pageN,phase,instruct_text,has_image,instruct_image,presentTrial.started,presentTrial.stopped,response.keys,response.corr,response.rt,response.duration,touch_resp.x,touch_resp.y,touch_resp.leftButton,touch_resp.midButton,touch_resp.rightButton,touch_resp.time,touch_resp.clicked_name,rt,corr,feedback.started,feedback.stopped,practice_trials.thisRepN,practice_trials.thisTrialN,practice_trials.thisN,practice_trials.thisIndex,practice_trials.ran,TrialID,StimulusType,Condition,PrimeDuration,Prime,Flanker,corrAns,Break.started,Break.stopped,break_done_touch.x,break_done_touch.y,break_done_touch.leftButton,break_done_touch.midButton,break_done_touch.rightButton,break_done_keyboard.keys,experiment_trials.thisRepN,experiment_trials.thisTrialN,experiment_trials.thisN,experiment_trials.thisIndex,experiment_trials.ran,break_done_keyboard.rt,break_done_keyboard.duration,End.started,End.stopped
1,"[""over_18"",""comfortable"",""read_info"",""consent_given""]",26,F,"[""none""]","[""spanish""]",3924af121fde90480b17e717,66a626ef09d4e21e1a8894ec,6735c433d54f0deb06ffda18,2024-11-14_10h35.12.661,Tarea de género gramatical,2024.2.2,Win32,70.92198582,,,,,,,,,,,,,,,,,,,,,,,,,,,,,,,,,,,,,,,,,,,,,,,,,,,,,,,,,,,,,,,,,,,,
,,,,,,3924af121fde90480b17e717,66a626ef09d4e21e1a8894ec,6735c433d54f0deb06ffda18,2024-11-14_10h35.12.661,Tarea de género gramatical,2024.2.2,Win32,70.92198582,22.3717,22.3719,,,,,,,,,,,,,,,,,,,,,,,,,,,,,,,,,,,,,,,,,,,,,,,,,,,,,,,,,,,,,,,,,,
,,,,,,3924af121fde90480b17e717,66a626ef09d4e21e1a8894ec,6735c433d54f0deb06ffda18,2024-11-14_10h35.12.661,Tarea de género gramatical,2024.2.2,Win32,70.92198582,,,22.3907,25.6017,space,3.1788,,-0.036111125,-0.415740755,0,0,0,0,0,0,0,1,1,instructions,"INSTRUCCIONES
Va a realizar una prueba de selección gramatical. Desde el comienzo de la prueba mire siempre al centro de la pantalla. Al cabo de un momento, aparecerán palabras. La tarea consiste en determinar si la palabra del centro (siempre será un sustantivo), pertenece al género masculino o femenino.

Pulse la tecla ESPACIO o toque el botón de abajo para continuar.",0,keyboardresponseFM.png,,,,,,,,,,,,,,,,,,,,,,,,,,,,,,,,,,,,,,,,,,,,,,
,,,,,,3924af121fde90480b17e717,66a626ef09d4e21e1a8894ec,6735c433d54f0deb06ffda18,2024-11-14_10h35.12.661,Tarea de género gramatical,2024.2.2,Win32,70.92198582,,,25.6105,29.5765,space,3.927,,-0.036111125,-0.415740755,0,0,0,0,1,1,1,1,2,instructions,"Si su dispositivo tiene teclado, pulse la tecla ""A"" para las palabras en femenino (por ejemplo: ""mano"") y la tecla ""L"" para las palabras en masculino(por ejemplo: ""arroz"").
Pulse la tecla ESPACIO o toque el botón de abajo para continuar.",1,keyboardresponseFM.png,,,,,,,,,,,,,,,,,,,,,,,,,,,,,,,,,,,,,,,,,,,,,,
,,,,,,3924af121fde90480b17e717,66a626ef09d4e21e1a8894ec,6735c433d54f0deb06ffda18,2024-11-14_10h35.12.661,Tarea de género gramatical,2024.2.2,Win32,70.92198582,,,29.5787,29.7999,space,0.193,,-0.036111125,-0.415740755,0,0,0,0,2,2,2,1,3,instructions,"Si utiliza un dispositivo sólo táctil, colóquelo en horizontal y utilice los botones de la pantalla. No utilice el ratón.
Pulse la tecla ESPACIO o toque el botón de abajo para continuar.",2,touchresponseFM.png,,,,,,,,,,,,,,,,,,,,,,,,,,,,,,,,,,,,,,,,,,,,,,
,,,,,,3924af121fde90480b17e717,66a626ef09d4e21e1a8894ec,6735c433d54f0deb06ffda18,2024-11-14_10h35.12.661,Tarea de género gramatical,2024.2.2,Win32,70.92198582,,,29.8023,43.3093,space,13.4993,,-0.036111125,-0.415740755,0,0,0,0,3,3,3,1,4,instructions,"Es muy importante que responda con la mayor rapidez y precisión posibles, ya que cada cadena de letras sólo estará en pantalla durante un instante. Si no responde en ese tiempo, aparecerá el mensaje ""Muy lento"" y el experimento pasará a la siguiente palabra. Los primeros 15 intentos serán de práctica y habrá dos descansos durante la prueba.
Pulse la tecla ESPACIO o toque el botón de abajo para iniciar la parte de práctica.",0,keyboardresponseFM.png,,,,,,,,,,,,,,,,,,,,,,,,,,,,,,,,,,,,,,,,,,,,,,
,,,,,,3924af121fde90480b17e717,66a626ef09d4e21e1a8894ec,6735c433d54f0deb06ffda18,2024-11-14_10h35.12.661,Tarea de género gramatical,2024.2.2,Win32,70.92198582,,,,,,,,,,,,,,,,,,,,,,,43.3238,44.7657,a,0,0.7781,,[],[],[],[],[],[],[],0.7781,0,44.766,45.2625,0,0,0,11,1,2012,MAS,DIS,150,clima,la,l,,,,,,,,,,,,,,,,,
,,,,,,3924af121fde90480b17e717,66a626ef09d4e21e1a8894ec,6735c433d54f0deb06ffda18,2024-11-14_10h35.12.661,Tarea de género gramatical,2024.2.2,Win32,70.92198582,,,,,,,,,,,,,,,,,,,,,,,45.2645,46.2724,a,1,0.3429,,[],[],[],[],[],[],[],0.3429,1,46.2737,46.7762,0,1,1,3,1,2004,FEM,AGR,150,venta,la,a,,,,,,,,,,,,,,,,,
,,,,,,3924af121fde90480b17e717,66a626ef09d4e21e1a8894ec,6735c433d54f0deb06ffda18,2024-11-14_10h35.12.661,Tarea de género gramatical,2024.2.2,Win32,70.92198582,,,,,,,,,,,,,,,,,,,,,,,46.7776,47.7418,a,1,0.2995,,[],[],[],[],[],[],[],0.2995,1,47.742,48.234,0,2,2,1,1,2002,FEM,CON,150,pala,,a,,,,,,,,,,,,,,,,,
,,,,,,3924af121fde90480b17e717,66a626ef09d4e21e1a8894ec,6735c433d54f0deb06ffda18,2024-11-14_10h35.12.661,Tarea de género gramatical,2024.2.2,Win32,70.92198582,,,,,,,,,,,,,,,,,,,,,,,48.2356,49.129,a,1,0.2335,,[],[],[],[],[],[],[],0.2335,1,49.1293,49.6268,0,3,3,6,1,2007,FEM,AGR,150,navaja,la,a,,,,,,,,,,,,,,,,,
,,,,,,3924af121fde90480b17e717,66a626ef09d4e21e1a8894ec,6735c433d54f0deb06ffda18,2024-11-14_10h35.12.661,Tarea de género gramatical,2024.2.2,Win32,70.92198582,,,,,,,,,,,,,,,,,,,,,,,49.6288,50.6424,a,1,0.35,,[],[],[],[],[],[],[],0.35,1,50.6425,51.1396,0,4,4,7,1,2008,FEM,CON,150,siesta,,a,,,,,,,,,,,,,,,,,
,,,,,,3924af121fde90480b17e717,66a626ef09d4e21e1a8894ec,6735c433d54f0deb06ffda18,2024-11-14_10h35.12.661,Tarea de género gramatical,2024.2.2,Win32,70.92198582,,,,,,,,,,,,,,,,,,,,,,,51.1414,51.9792,l,1,0.1745,,[],[],[],[],[],[],[],0.1745,1,51.9793,52.4814,0,5,5,9,1,2010,MAS,AGR,150,vecino,el,l,,,,,,,,,,,,,,,,,
,,,,,,3924af121fde90480b17e717,66a626ef09d4e21e1a8894ec,6735c433d54f0deb06ffda18,2024-11-14_10h35.12.661,Tarea de género gramatical,2024.2.2,Win32,70.92198582,,,,,,,,,,,,,,,,,,,,,,,52.4829,53.4986,a,0,0.3519,,[],[],[],[],[],[],[],0.3519,0,53.4996,53.9977,0,6,6,10,1,2011,MAS,CON,150,canal,,l,,,,,,,,,,,,,,,,,
,,,,,,3924af121fde90480b17e717,66a626ef09d4e21e1a8894ec,6735c433d54f0deb06ffda18,2024-11-14_10h35.12.661,Tarea de género gramatical,2024.2.2,Win32,70.92198582,,,,,,,,,,,,,,,,,,,,,,,53.9992,55.0595,a,1,0.4008,,[],[],[],[],[],[],[],0.4008,1,55.0607,55.5583,0,7,7,4,1,2005,FEM,CON,150,placa,,a,,,,,,,,,,,,,,,,,
,,,,,,3924af121fde90480b17e717,66a626ef09d4e21e1a8894ec,6735c433d54f0deb06ffda18,2024-11-14_10h35.12.661,Tarea de género gramatical,2024.2.2,Win32,70.92198582,,,,,,,,,,,,,,,,,,,,,,,55.5604,56.4795,l,1,0.2617,,[],[],[],[],[],[],[],0.2617,1,56.4797,56.9808,0,8,8,13,1,2014,MAS,CON,150,siglo,,l,,,,,,,,,,,,,,,,,
,,,,,,3924af121fde90480b17e717,66a626ef09d4e21e1a8894ec,6735c433d54f0deb06ffda18,2024-11-14_10h35.12.661,Tarea de género gramatical,2024.2.2,Win32,70.92198582,,,,,,,,,,,,,,,,,,,,,,,56.9832,58.0409,l,1,0.3998,,[],[],[],[],[],[],[],0.3998,1,58.0411,58.5375,0,9,9,12,1,2013,MAS,AGR,150,acero,el,l,,,,,,,,,,,,,,,,,
,,,,,,3924af121fde90480b17e717,66a626ef09d4e21e1a8894ec,6735c433d54f0deb06ffda18,2024-11-14_10h35.12.661,Tarea de género gramatical,2024.2.2,Win32,70.92198582,,,,,,,,,,,,,,,,,,,,,,,58.5393,59.4651,l,0,0.2581,,[],[],[],[],[],[],[],0.2581,0,59.4662,59.9585,0,10,10,5,1,2006,FEM,DIS,150,serie,el,a,,,,,,,,,,,,,,,,,
,,,,,,3924af121fde90480b17e717,66a626ef09d4e21e1a8894ec,6735c433d54f0deb06ffda18,2024-11-14_10h35.12.661,Tarea de género gramatical,2024.2.2,Win32,70.92198582,,,,,,,,,,,,,,,,,,,,,,,59.9603,61.3886,l,1,0.7592,,[],[],[],[],[],[],[],0.7592,1,61.3891,61.8851,0,11,11,14,1,2015,MAS,DIS,150,robot,la,l,,,,,,,,,,,,,,,,,
,,,,,,3924af121fde90480b17e717,66a626ef09d4e21e1a8894ec,6735c433d54f0deb06ffda18,2024-11-14_10h35.12.661,Tarea de género gramatical,2024.2.2,Win32,70.92198582,,,,,,,,,,,,,,,,,,,,,,,61.8865,63.114,a,0,0.5636,,[],[],[],[],[],[],[],0.5636,0,63.115,63.6072,0,12,12,8,1,2009,MAS,DIS,150,puerto,la,l,,,,,,,,,,,,,,,,,
,,,,,,3924af121fde90480b17e717,66a626ef09d4e21e1a8894ec,6735c433d54f0deb06ffda18,2024-11-14_10h35.12.661,Tarea de género gramatical,2024.2.2,Win32,70.92198582,,,,,,,,,,,,,,,,,,,,,,,63.6089,64.8998,l,0,0.632,,[],[],[],[],[],[],[],0.632,0,64.8999,65.402,0,13,13,2,1,2003,FEM,DIS,150,daga,el,a,,,,,,,,,,,,,,,,,
,,,,,,3924af121fde90480b17e717,66a626ef09d4e21e1a8894ec,6735c433d54f0deb06ffda18,2024-11-14_10h35.12.661,Tarea de género gramatical,2024.2.2,Win32,70.92198582,,,,,,,,,,,,,,,,,,,,,,,65.4033,66.4706,a,1,0.4063,,[],[],[],[],[],[],[],0.4063,1,66.4715,66.9707,0,14,14,0,1,2001,FEM,AGR,150,nuca,la,a,,,,,,,,,,,,,,,,,
,,,,,,3924af121fde90480b17e717,66a626ef09d4e21e1a8894ec,6735c433d54f0deb06ffda18,2024-11-14_10h35.12.661,Tarea de género gramatical,2024.2.2,Win32,70.92198582,,,70.0847,75.1638,space,5.0674,,-0.036111125,-0.415740755,0,0,0,,,,,,,,,,,75.1964,76.2539,l,1,0.3954,,[],[],[],[],[],[],[],0.3954,1,76.254,76.7516,,,,,,670,MAS,CON,150,huevo,,l,76.7521,76.7576,-0.036111125,-0.415740755,0,0,0,,0,0,0,219,1,,,,
,,,,,,3924af121fde90480b17e717,66a626ef09d4e21e1a8894ec,6735c433d54f0deb06ffda18,2024-11-14_10h35.12.661,Tarea de género gramatical,2024.2.2,Win32,70.92198582,,,,,,,,,,,,,,,,,,,,,,,76.7589,77.7171,a,1,0.2986,,[],[],[],[],[],[],[],0.2986,1,77.7173,78.2193,,,,,,615,FEM,AGR,150,amiga,la,a,78.2193,78.2195,-0.036111125,-0.415740755,0,0,0,,0,1,1,164,1,,,,
,,,,,,3924af121fde90480b17e717,66a626ef09d4e21e1a8894ec,6735c433d54f0deb06ffda18,2024-11-14_10h35.12.661,Tarea de género gramatical,2024.2.2,Win32,70.92198582,,,,,,,,,,,,,,,,,,,,,,,78.2206,79.2976,l,1,0.4159,,[],[],[],[],[],[],[],0.4159,1,79.2976,79.7899,,,,,,732,MAS,AGR,150,bolso,el,l,79.7915,79.7922,-0.036111125,-0.415740755,0,0,0,,0,2,2,281,1,,,,
,,,,,,3924af121fde90480b17e717,66a626ef09d4e21e1a8894ec,6735c433d54f0deb06ffda18,2024-11-14_10h35.12.661,Tarea de género gramatical,2024.2.2,Win32,70.92198582,,,,,,,,,,,,,,,,,,,,,,,79.7927,80.7381,l,1,0.2826,,[],[],[],[],[],[],[],0.2826,1,80.7382,81.2399,,,,,,550,MAS,CON,150,nido,,l,81.24,81.2401,-0.036111125,-0.415740755,0,0,0,,0,3,3,99,1,,,,
,,,,,,3924af121fde90480b17e717,66a626ef09d4e21e1a8894ec,6735c433d54f0deb06ffda18,2024-11-14_10h35.12.661,Tarea de género gramatical,2024.2.2,Win32,70.92198582,,,,,,,,,,,,,,,,,,,,,,,81.2419,82.1985,l,0,0.2904,,[],[],[],[],[],[],[],0.2904,0,82.1997,82.6897,,,,,,776,FEM,DIS,150,música,el,a,82.6899,82.6902,-0.036111125,-0.415740755,0,0,0,,0,4,4,325,1,,,,
,,,,,,3924af121fde90480b17e717,66a626ef09d4e21e1a8894ec,6735c433d54f0deb06ffda18,2024-11-14_10h35.12.661,Tarea de género gramatical,2024.2.2,Win32,70.92198582,,,,,,,,,,,,,,,,,,,,,,,82.6916,83.6322,a,1,0.2826,,[],[],[],[],[],[],[],0.2826,1,83.6331,84.1278,,,,,,788,FEM,DIS,150,abuela,el,a,84.1279,84.1281,-0.036111125,-0.415740755,0,0,0,,0,5,5,337,1,,,,
,,,,,,3924af121fde90480b17e717,66a626ef09d4e21e1a8894ec,6735c433d54f0deb06ffda18,2024-11-14_10h35.12.661,Tarea de género gramatical,2024.2.2,Win32,70.92198582,,,,,,,,,,,,,,,,,,,,,,,84.1297,85.167,l,1,0.3751,,[],[],[],[],[],[],[],0.3751,1,85.167,85.6688,,,,,,797,MAS,DIS,150,cuello,la,l,85.6699,85.6704,-0.036111125,-0.415740755,0,0,0,,0,6,6,346,1,,,,
,,,,,,3924af121fde90480b17e717,66a626ef09d4e21e1a8894ec,6735c433d54f0deb06ffda18,2024-11-14_10h35.12.661,Tarea de género gramatical,2024.2.2,Win32,70.92198582,,,,,,,,,,,,,,,,,,,,,,,85.671,86.7867,a,1,0.4541,,[],[],[],[],[],[],[],0.4541,1,86.7868,87.2832,,,,,,649,FEM,CON,150,nariz,,a,87.2833,87.2834,-0.036111125,-0.415740755,0,0,0,,0,7,7,198,1,,,,
,,,,,,3924af121fde90480b17e717,66a626ef09d4e21e1a8894ec,6735c433d54f0deb06ffda18,2024-11-14_10h35.12.661,Tarea de género gramatical,2024.2.2,Win32,70.92198582,,,,,,,,,,,,,,,,,,,,,,,87.2846,88.3619,a,1,0.4187,,[],[],[],[],[],[],[],0.4187,1,88.3619,88.8587,,,,,,740,FEM,DIS,150,cabra,el,a,88.8588,88.8589,-0.036111125,-0.415740755,0,0,0,,0,8,8,289,1,,,,
,,,,,,3924af121fde90480b17e717,66a626ef09d4e21e1a8894ec,6735c433d54f0deb06ffda18,2024-11-14_10h35.12.661,Tarea de género gramatical,2024.2.2,Win32,70.92198582,,,,,,,,,,,,,,,,,,,,,,,88.8599,89.8151,l,1,0.2965,,[],[],[],[],[],[],[],0.2965,1,89.8152,90.3141,,,,,,486,MAS,AGR,150,dedo,el,l,90.3143,90.3145,-0.036111125,-0.415740755,0,0,0,,0,9,9,35,1,,,,
,,,,,,3924af121fde90480b17e717,66a626ef09d4e21e1a8894ec,6735c433d54f0deb06ffda18,2024-11-14_10h35.12.661,Tarea de género gramatical,2024.2.2,Win32,70.92198582,,,,,,,,,,,,,,,,,,,,,,,90.3159,91.2785,l,1,0.2985,,[],[],[],[],[],[],[],0.2985,1,91.2787,91.7774,,,,,,484,MAS,CON,150,gato,,l,91.7774,91.7775,-0.036111125,-0.415740755,0,0,0,,0,10,10,33,1,,,,
,,,,,,3924af121fde90480b17e717,66a626ef09d4e21e1a8894ec,6735c433d54f0deb06ffda18,2024-11-14_10h35.12.661,Tarea de género gramatical,2024.2.2,Win32,70.92198582,,,,,,,,,,,,,,,,,,,,,,,91.7786,92.7329,a,1,0.2883,,[],[],[],[],[],[],[],0.2883,1,92.7331,93.2294,,,,,,560,FEM,DIS,150,rosa,el,a,93.2313,93.2321,-0.036111125,-0.415740755,0,0,0,,0,11,11,109,1,,,,
,,,,,,3924af121fde90480b17e717,66a626ef09d4e21e1a8894ec,6735c433d54f0deb06ffda18,2024-11-14_10h35.12.661,Tarea de género gramatical,2024.2.2,Win32,70.92198582,,,,,,,,,,,,,,,,,,,,,,,93.2328,94.2634,a,1,0.368,,[],[],[],[],[],[],[],0.368,1,94.2635,94.7557,,,,,,470,FEM,DIS,150,ropa,el,a,94.7557,94.7559,-0.036111125,-0.415740755,0,0,0,,0,12,12,19,1,,,,
,,,,,,3924af121fde90480b17e717,66a626ef09d4e21e1a8894ec,6735c433d54f0deb06ffda18,2024-11-14_10h35.12.661,Tarea de género gramatical,2024.2.2,Win32,70.92198582,,,,,,,,,,,,,,,,,,,,,,,94.757,95.7498,l,1,0.3284,,[],[],[],[],[],[],[],0.3284,1,95.75,96.2455,,,,,,462,MAS,AGR,150,plan,el,l,96.2456,96.2457,-0.036111125,-0.415740755,0,0,0,,0,13,13,11,1,,,,
,,,,,,3924af121fde90480b17e717,66a626ef09d4e21e1a8894ec,6735c433d54f0deb06ffda18,2024-11-14_10h35.12.661,Tarea de género gramatical,2024.2.2,Win32,70.92198582,,,,,,,,,,,,,,,,,,,,,,,96.2467,97.1606,l,0,0.2493,,[],[],[],[],[],[],[],0.2493,0,97.1615,97.6574,,,,,,523,FEM,CON,150,roca,,a,97.6575,97.6577,-0.036111125,-0.415740755,0,0,0,,0,14,14,72,1,,,,
,,,,,,3924af121fde90480b17e717,66a626ef09d4e21e1a8894ec,6735c433d54f0deb06ffda18,2024-11-14_10h35.12.661,Tarea de género gramatical,2024.2.2,Win32,70.92198582,,,,,,,,,,,,,,,,,,,,,,,97.6591,98.6181,l,1,0.2949,,[],[],[],[],[],[],[],0.2949,1,98.619,99.1186,,,,,,472,MAS,CON,150,pelo,,l,99.1207,99.1216,-0.036111125,-0.415740755,0,0,0,,0,15,15,21,1,,,,
,,,,,,3924af121fde90480b17e717,66a626ef09d4e21e1a8894ec,6735c433d54f0deb06ffda18,2024-11-14_10h35.12.661,Tarea de género gramatical,2024.2.2,Win32,70.92198582,,,,,,,,,,,,,,,,,,,,,,,99.1223,100.2225,l,0,0.4386,,[],[],[],[],[],[],[],0.4386,0,100.2238,100.7186,,,,,,692,FEM,DIS,150,pizza,el,a,100.7188,100.7188,-0.036111125,-0.415740755,0,0,0,,0,16,16,241,1,,,,
,,,,,,3924af121fde90480b17e717,66a626ef09d4e21e1a8894ec,6735c433d54f0deb06ffda18,2024-11-14_10h35.12.661,Tarea de género gramatical,2024.2.2,Win32,70.92198582,,,,,,,,,,,,,,,,,,,,,,,100.7207,101.9135,a,1,0.5326,,[],[],[],[],[],[],[],0.5326,1,101.9143,102.4133,,,,,,860,FEM,DIS,150,piedad,el,a,102.4134,102.4135,-0.036111125,-0.415740755,0,0,0,,0,17,17,409,1,,,,
,,,,,,3924af121fde90480b17e717,66a626ef09d4e21e1a8894ec,6735c433d54f0deb06ffda18,2024-11-14_10h35.12.661,Tarea de género gramatical,2024.2.2,Win32,70.92198582,,,,,,,,,,,,,,,,,,,,,,,102.4154,103.5409,l,1,0.4677,,[],[],[],[],[],[],[],0.4677,1,103.5409,104.0431,,,,,,768,MAS,AGR,150,pueblo,el,l,104.0432,104.0434,-0.036111125,-0.415740755,0,0,0,,0,18,18,317,1,,,,
,,,,,,3924af121fde90480b17e717,66a626ef09d4e21e1a8894ec,6735c433d54f0deb06ffda18,2024-11-14_10h35.12.661,Tarea de género gramatical,2024.2.2,Win32,70.92198582,,,,,,,,,,,,,,,,,,,,,,,104.0455,105.0449,a,1,0.3367,,[],[],[],[],[],[],[],0.3367,1,105.045,105.5462,,,,,,656,FEM,DIS,150,época,el,a,105.5463,105.5464,-0.036111125,-0.415740755,0,0,0,,0,19,19,205,1,,,,
,,,,,,3924af121fde90480b17e717,66a626ef09d4e21e1a8894ec,6735c433d54f0deb06ffda18,2024-11-14_10h35.12.661,Tarea de género gramatical,2024.2.2,Win32,70.92198582,,,,,,,,,,,,,,,,,,,,,,,105.5476,106.5278,l,1,0.3144,,[],[],[],[],[],[],[],0.3144,1,106.5279,107.0286,,,,,,509,MAS,DIS,150,lobo,la,l,107.0301,107.031,-0.036111125,-0.415740755,0,0,0,,0,20,20,58,1,,,,
,,,,,,3924af121fde90480b17e717,66a626ef09d4e21e1a8894ec,6735c433d54f0deb06ffda18,2024-11-14_10h35.12.661,Tarea de género gramatical,2024.2.2,Win32,70.92198582,,,,,,,,,,,,,,,,,,,,,,,107.0319,107.9357,a,1,0.2432,,[],[],[],[],[],[],[],0.2432,1,107.9359,108.4311,,,,,,608,FEM,DIS,150,chica,el,a,108.4312,108.4314,-0.036111125,-0.415740755,0,0,0,,0,21,21,157,1,,,,
,,,,,,3924af121fde90480b17e717,66a626ef09d4e21e1a8894ec,6735c433d54f0deb06ffda18,2024-11-14_10h35.12.661,Tarea de género gramatical,2024.2.2,Win32,70.92198582,,,,,,,,,,,,,,,,,,,,,,,108.433,109.381,a,1,0.2806,,[],[],[],[],[],[],[],0.2806,1,109.3812,109.8779,,,,,,764,FEM,DIS,150,señora,el,a,109.878,109.8781,-0.036111125,-0.415740755,0,0,0,,0,22,22,313,1,,,,
,,,,,,3924af121fde90480b17e717,66a626ef09d4e21e1a8894ec,6735c433d54f0deb06ffda18,2024-11-14_10h35.12.661,Tarea de género gramatical,2024.2.2,Win32,70.92198582,,,,,,,,,,,,,,,,,,,,,,,109.8799,110.8374,l,1,0.3009,,[],[],[],[],[],[],[],0.3009,1,110.8375,111.3367,,,,,,504,MAS,AGR,150,humo,el,l,111.3369,111.3369,-0.036111125,-0.415740755,0,0,0,,0,23,23,53,1,,,,
,,,,,,3924af121fde90480b17e717,66a626ef09d4e21e1a8894ec,6735c433d54f0deb06ffda18,2024-11-14_10h35.12.661,Tarea de género gramatical,2024.2.2,Win32,70.92198582,,,,,,,,,,,,,,,,,,,,,,,111.3382,112.3353,a,1,0.3327,,[],[],[],[],[],[],[],0.3327,1,112.3354,112.8358,,,,,,859,FEM,CON,150,moneda,,a,112.8378,112.8388,-0.036111125,-0.415740755,0,0,0,,0,24,24,408,1,,,,
,,,,,,3924af121fde90480b17e717,66a626ef09d4e21e1a8894ec,6735c433d54f0deb06ffda18,2024-11-14_10h35.12.661,Tarea de género gramatical,2024.2.2,Win32,70.92198582,,,,,,,,,,,,,,,,,,,,,,,112.8397,113.8124,l,1,0.3119,,[],[],[],[],[],[],[],0.3119,1,113.8124,114.3178,,,,,,466,MAS,CON,150,baño,,l,114.3179,114.318,-0.036111125,-0.415740755,0,0,0,,0,25,25,15,1,,,,
,,,,,,3924af121fde90480b17e717,66a626ef09d4e21e1a8894ec,6735c433d54f0deb06ffda18,2024-11-14_10h35.12.661,Tarea de género gramatical,2024.2.2,Win32,70.92198582,,,,,,,,,,,,,,,,,,,,,,,114.3194,115.3747,l,1,0.3986,,[],[],[],[],[],[],[],0.3986,1,115.3748,115.8777,,,,,,761,MAS,DIS,150,camino,la,l,115.8777,115.8779,-0.036111125,-0.415740755,0,0,0,,0,26,26,310,1,,,,
,,,,,,3924af121fde90480b17e717,66a626ef09d4e21e1a8894ec,6735c433d54f0deb06ffda18,2024-11-14_10h35.12.661,Tarea de género gramatical,2024.2.2,Win32,70.92198582,,,,,,,,,,,,,,,,,,,,,,,115.8792,116.9066,l,1,0.363,,[],[],[],[],[],[],[],0.363,1,116.9066,117.4071,,,,,,676,MAS,CON,150,color,,l,117.4072,117.4073,-0.036111125,-0.415740755,0,0,0,,0,27,27,225,1,,,,
,,,,,,3924af121fde90480b17e717,66a626ef09d4e21e1a8894ec,6735c433d54f0deb06ffda18,2024-11-14_10h35.12.661,Tarea de género gramatical,2024.2.2,Win32,70.92198582,,,,,,,,,,,,,,,,,,,,,,,117.4087,118.3694,l,0,0.2924,,[],[],[],[],[],[],[],0.2924,0,118.3699,118.8683,,,,,,745,FEM,CON,150,grasa,,a,118.8684,118.8686,-0.036111125,-0.415740755,0,0,0,,0,28,28,294,1,,,,
,,,,,,3924af121fde90480b17e717,66a626ef09d4e21e1a8894ec,6735c433d54f0deb06ffda18,2024-11-14_10h35.12.661,Tarea de género gramatical,2024.2.2,Win32,70.92198582,,,,,,,,,,,,,,,,,,,,,,,118.8702,119.9081,l,1,0.382,,[],[],[],[],[],[],[],0.382,1,119.9093,120.4079,,,,,,791,MAS,DIS,150,precio,la,l,120.4097,120.4105,-0.036111125,-0.415740755,0,0,0,,0,29,29,340,1,,,,
,,,,,,3924af121fde90480b17e717,66a626ef09d4e21e1a8894ec,6735c433d54f0deb06ffda18,2024-11-14_10h35.12.661,Tarea de género gramatical,2024.2.2,Win32,70.92198582,,,,,,,,,,,,,,,,,,,,,,,120.4112,121.4344,a,1,0.3626,,[],[],[],[],[],[],[],0.3626,1,121.4344,121.9418,,,,,,782,FEM,DIS,150,basura,el,a,121.942,121.9421,-0.036111125,-0.415740755,0,0,0,,0,30,30,331,1,,,,
,,,,,,3924af121fde90480b17e717,66a626ef09d4e21e1a8894ec,6735c433d54f0deb06ffda18,2024-11-14_10h35.12.661,Tarea de género gramatical,2024.2.2,Win32,70.92198582,,,,,,,,,,,,,,,,,,,,,,,121.9436,122.9588,l,1,0.3529,,[],[],[],[],[],[],[],0.3529,1,122.959,123.4586,,,,,,774,MAS,AGR,150,cuarto,el,l,123.4586,123.4587,-0.036111125,-0.415740755,0,0,0,,0,31,31,323,1,,,,
,,,,,,3924af121fde90480b17e717,66a626ef09d4e21e1a8894ec,6735c433d54f0deb06ffda18,2024-11-14_10h35.12.661,Tarea de género gramatical,2024.2.2,Win32,70.92198582,,,,,,,,,,,,,,,,,,,,,,,123.4606,124.4139,l,1,0.2935,,[],[],[],[],[],[],[],0.2935,1,124.4141,124.9102,,,,,,522,MAS,AGR,150,hoyo,el,l,124.9103,124.9103,-0.036111125,-0.415740755,0,0,0,,0,32,32,71,1,,,,
,,,,,,3924af121fde90480b17e717,66a626ef09d4e21e1a8894ec,6735c433d54f0deb06ffda18,2024-11-14_10h35.12.661,Tarea de género gramatical,2024.2.2,Win32,70.92198582,,,,,,,,,,,,,,,,,,,,,,,124.9121,125.9333,a,1,0.3576,,[],[],[],[],[],[],[],0.3576,1,125.9334,126.4294,,,,,,824,FEM,DIS,150,herida,el,a,126.432,126.4329,-0.036111125,-0.415740755,0,0,0,,0,33,33,373,1,,,,
,,,,,,3924af121fde90480b17e717,66a626ef09d4e21e1a8894ec,6735c433d54f0deb06ffda18,2024-11-14_10h35.12.661,Tarea de género gramatical,2024.2.2,Win32,70.92198582,,,,,,,,,,,,,,,,,,,,,,,126.4336,127.3705,a,1,0.2757,,[],[],[],[],[],[],[],0.2757,1,127.3706,127.8727,,,,,,841,FEM,CON,150,altura,,a,127.8729,127.8731,-0.036111125,-0.415740755,0,0,0,,0,34,34,390,1,,,,
,,,,,,3924af121fde90480b17e717,66a626ef09d4e21e1a8894ec,6735c433d54f0deb06ffda18,2024-11-14_10h35.12.661,Tarea de género gramatical,2024.2.2,Win32,70.92198582,,,,,,,,,,,,,,,,,,,,,,,127.8745,128.9371,l,0,0.3963,,[],[],[],[],[],[],[],0.3963,0,128.9379,129.4354,,,,,,836,FEM,DIS,150,sombra,el,a,129.4355,129.4356,-0.036111125,-0.415740755,0,0,0,,0,35,35,385,1,,,,
,,,,,,3924af121fde90480b17e717,66a626ef09d4e21e1a8894ec,6735c433d54f0deb06ffda18,2024-11-14_10h35.12.661,Tarea de género gramatical,2024.2.2,Win32,70.92198582,,,,,,,,,,,,,,,,,,,,,,,129.437,130.5369,l,1,0.4388,,[],[],[],[],[],[],[],0.4388,1,130.5377,131.0373,,,,,,851,MAS,DIS,150,abrigo,la,l,131.0374,131.0374,-0.036111125,-0.415740755,0,0,0,,0,36,36,400,1,,,,
,,,,,,3924af121fde90480b17e717,66a626ef09d4e21e1a8894ec,6735c433d54f0deb06ffda18,2024-11-14_10h35.12.661,Tarea de género gramatical,2024.2.2,Win32,70.92198582,,,,,,,,,,,,,,,,,,,,,,,131.0383,132.0366,l,1,0.3257,,[],[],[],[],[],[],[],0.3257,1,132.0369,132.5419,,,,,,738,MAS,AGR,150,grado,el,l,132.5419,132.542,-0.036111125,-0.415740755,0,0,0,,0,37,37,287,1,,,,
,,,,,,3924af121fde90480b17e717,66a626ef09d4e21e1a8894ec,6735c433d54f0deb06ffda18,2024-11-14_10h35.12.661,Tarea de género gramatical,2024.2.2,Win32,70.92198582,,,,,,,,,,,,,,,,,,,,,,,132.544,133.5331,l,1,0.3303,,[],[],[],[],[],[],[],0.3303,1,133.5334,134.0293,,,,,,581,MAS,DIS,150,kilo,la,l,134.0311,134.032,-0.036111125,-0.415740755,0,0,0,,0,38,38,130,1,,,,
,,,,,,3924af121fde90480b17e717,66a626ef09d4e21e1a8894ec,6735c433d54f0deb06ffda18,2024-11-14_10h35.12.661,Tarea de género gramatical,2024.2.2,Win32,70.92198582,,,,,,,,,,,,,,,,,,,,,,,134.0329,135.0916,l,1,0.3985,,[],[],[],[],[],[],[],0.3985,1,135.0918,135.5941,,,,,,695,MAS,DIS,150,turno,la,l,135.5942,135.5943,-0.036111125,-0.415740755,0,0,0,,0,39,39,244,1,,,,
,,,,,,3924af121fde90480b17e717,66a626ef09d4e21e1a8894ec,6735c433d54f0deb06ffda18,2024-11-14_10h35.12.661,Tarea de género gramatical,2024.2.2,Win32,70.92198582,,,,,,,,,,,,,,,,,,,,,,,135.5962,136.5166,l,1,0.2565,,[],[],[],[],[],[],[],0.2565,1,136.5167,137.0189,,,,,,630,MAS,AGR,150,fuego,el,l,137.0189,137.019,-0.036111125,-0.415740755,0,0,0,,0,40,40,179,1,,,,
,,,,,,3924af121fde90480b17e717,66a626ef09d4e21e1a8894ec,6735c433d54f0deb06ffda18,2024-11-14_10h35.12.661,Tarea de género gramatical,2024.2.2,Win32,70.92198582,,,,,,,,,,,,,,,,,,,,,,,137.0201,137.9525,a,1,0.2756,,[],[],[],[],[],[],[],0.2756,1,137.9527,138.4546,,,,,,777,FEM,AGR,150,tienda,la,a,138.4547,138.4548,-0.036111125,-0.415740755,0,0,0,,0,41,41,326,1,,,,
,,,,,,3924af121fde90480b17e717,66a626ef09d4e21e1a8894ec,6735c433d54f0deb06ffda18,2024-11-14_10h35.12.661,Tarea de género gramatical,2024.2.2,Win32,70.92198582,,,,,,,,,,,,,,,,,,,,,,,138.4557,139.4552,l,1,0.3418,,[],[],[],[],[],[],[],0.3418,1,139.4554,139.956,,,,,,648,MAS,AGR,150,hotel,el,l,139.9577,139.9586,-0.036111125,-0.415740755,0,0,0,,0,42,42,197,1,,,,
,,,,,,3924af121fde90480b17e717,66a626ef09d4e21e1a8894ec,6735c433d54f0deb06ffda18,2024-11-14_10h35.12.661,Tarea de género gramatical,2024.2.2,Win32,70.92198582,,,,,,,,,,,,,,,,,,,,,,,139.9593,140.9746,l,1,0.3506,,[],[],[],[],[],[],[],0.3506,1,140.9748,141.4729,,,,,,582,MAS,AGR,150,velo,el,l,141.4729,141.473,-0.036111125,-0.415740755,0,0,0,,0,43,43,131,1,,,,
,,,,,,3924af121fde90480b17e717,66a626ef09d4e21e1a8894ec,6735c433d54f0deb06ffda18,2024-11-14_10h35.12.661,Tarea de género gramatical,2024.2.2,Win32,70.92198582,,,,,,,,,,,,,,,,,,,,,,,141.4742,142.4765,a,1,0.3459,,[],[],[],[],[],[],[],0.3459,1,142.4765,142.9746,,,,,,890,FEM,DIS,150,patada,el,a,142.9747,142.9749,-0.036111125,-0.415740755,0,0,0,,0,44,44,439,1,,,,
,,,,,,3924af121fde90480b17e717,66a626ef09d4e21e1a8894ec,6735c433d54f0deb06ffda18,2024-11-14_10h35.12.661,Tarea de género gramatical,2024.2.2,Win32,70.92198582,,,,,,,,,,,,,,,,,,,,,,,142.9764,144.0095,l,1,0.3747,,[],[],[],[],[],[],[],0.3747,1,144.0095,144.4965,,,,,,894,MAS,AGR,150,límite,el,l,144.4965,144.4966,-0.036111125,-0.415740755,0,0,0,,0,45,45,443,1,,,,
,,,,,,3924af121fde90480b17e717,66a626ef09d4e21e1a8894ec,6735c433d54f0deb06ffda18,2024-11-14_10h35.12.661,Tarea de género gramatical,2024.2.2,Win32,70.92198582,,,,,,,,,,,,,,,,,,,,,,,144.498,145.4941,a,1,0.3275,,[],[],[],[],[],[],[],0.3275,1,145.4942,145.9866,,,,,,530,FEM,DIS,150,vaca,el,a,145.9867,145.9868,-0.036111125,-0.415740755,0,0,0,,0,46,46,79,1,,,,
,,,,,,3924af121fde90480b17e717,66a626ef09d4e21e1a8894ec,6735c433d54f0deb06ffda18,2024-11-14_10h35.12.661,Tarea de género gramatical,2024.2.2,Win32,70.92198582,,,,,,,,,,,,,,,,,,,,,,,145.9883,146.9295,a,1,0.2783,,[],[],[],[],[],[],[],0.2783,1,146.9296,147.4272,,,,,,759,FEM,AGR,150,esposa,la,a,147.4286,147.4296,-0.036111125,-0.415740755,0,0,0,,0,47,47,308,1,,,,
,,,,,,3924af121fde90480b17e717,66a626ef09d4e21e1a8894ec,6735c433d54f0deb06ffda18,2024-11-14_10h35.12.661,Tarea de género gramatical,2024.2.2,Win32,70.92198582,,,,,,,,,,,,,,,,,,,,,,,147.4305,148.3949,a,1,0.2999,,[],[],[],[],[],[],[],0.2999,1,148.3951,148.8935,,,,,,655,FEM,CON,150,reina,,a,148.8936,148.8938,-0.036111125,-0.415740755,0,0,0,,0,48,48,204,1,,,,
,,,,,,3924af121fde90480b17e717,66a626ef09d4e21e1a8894ec,6735c433d54f0deb06ffda18,2024-11-14_10h35.12.661,Tarea de género gramatical,2024.2.2,Win32,70.92198582,,,,,,,,,,,,,,,,,,,,,,,148.8958,149.8664,l,1,0.3088,,[],[],[],[],[],[],[],0.3088,1,149.8665,150.3639,,,,,,454,MAS,CON,150,hijo,,l,150.364,150.3641,-0.036111125,-0.415740755,0,0,0,,0,49,49,3,1,,,,
,,,,,,3924af121fde90480b17e717,66a626ef09d4e21e1a8894ec,6735c433d54f0deb06ffda18,2024-11-14_10h35.12.661,Tarea de género gramatical,2024.2.2,Win32,70.92198582,,,,,,,,,,,,,,,,,,,,,,,150.3656,151.4939,l,0,0.4703,,[],[],[],[],[],[],[],0.4703,0,151.4947,151.9899,,,,,,536,FEM,DIS,150,cruz,el,a,151.99,151.99,-0.036111125,-0.415740755,0,0,0,,0,50,50,85,1,,,,
,,,,,,3924af121fde90480b17e717,66a626ef09d4e21e1a8894ec,6735c433d54f0deb06ffda18,2024-11-14_10h35.12.661,Tarea de género gramatical,2024.2.2,Win32,70.92198582,,,,,,,,,,,,,,,,,,,,,,,151.9914,153.0503,l,1,0.3974,,[],[],[],[],[],[],[],0.3974,1,153.0512,153.5545,,,,,,870,MAS,AGR,150,helado,el,l,153.5559,153.5566,-0.036111125,-0.415740755,0,0,0,,0,51,51,419,1,,,,
,,,,,,3924af121fde90480b17e717,66a626ef09d4e21e1a8894ec,6735c433d54f0deb06ffda18,2024-11-14_10h35.12.661,Tarea de género gramatical,2024.2.2,Win32,70.92198582,,,,,,,,,,,,,,,,,,,,,,,153.5572,154.6399,l,1,0.4194,,[],[],[],[],[],[],[],0.4194,1,154.64,155.1358,,,,,,790,MAS,CON,150,pasado,,l,155.1359,155.1361,-0.036111125,-0.415740755,0,0,0,,0,52,52,339,1,,,,
,,,,,,3924af121fde90480b17e717,66a626ef09d4e21e1a8894ec,6735c433d54f0deb06ffda18,2024-11-14_10h35.12.661,Tarea de género gramatical,2024.2.2,Win32,70.92198582,,,,,,,,,,,,,,,,,,,,,,,155.1375,156.2065,l,1,0.4051,,[],[],[],[],[],[],[],0.4051,1,156.2066,156.7064,,,,,,844,MAS,CON,150,examen,,l,156.7065,156.7065,-0.036111125,-0.415740755,0,0,0,,0,53,53,393,1,,,,
,,,,,,3924af121fde90480b17e717,66a626ef09d4e21e1a8894ec,6735c433d54f0deb06ffda18,2024-11-14_10h35.12.661,Tarea de género gramatical,2024.2.2,Win32,70.92198582,,,,,,,,,,,,,,,,,,,,,,,156.7073,157.7319,l,1,0.3616,,[],[],[],[],[],[],[],0.3616,1,157.732,158.2308,,,,,,754,MAS,CON,150,tiempo,,l,158.2309,158.231,-0.036111125,-0.415740755,0,0,0,,0,54,54,303,1,,,,
,,,,,,3924af121fde90480b17e717,66a626ef09d4e21e1a8894ec,6735c433d54f0deb06ffda18,2024-11-14_10h35.12.661,Tarea de género gramatical,2024.2.2,Win32,70.92198582,,,,,,,,,,,,,,,,,,,,,,,158.233,159.2442,l,1,0.3474,,[],[],[],[],[],[],[],0.3474,1,159.2444,159.7489,,,,,,708,MAS,AGR,150,polvo,el,l,159.7489,159.7491,-0.036111125,-0.415740755,0,0,0,,0,55,55,257,1,,,,
,,,,,,3924af121fde90480b17e717,66a626ef09d4e21e1a8894ec,6735c433d54f0deb06ffda18,2024-11-14_10h35.12.661,Tarea de género gramatical,2024.2.2,Win32,70.92198582,,,,,,,,,,,,,,,,,,,,,,,159.7503,160.6922,a,1,0.2828,,[],[],[],[],[],[],[],0.2828,1,160.6924,161.1927,,,,,,849,FEM,AGR,150,charla,la,a,161.1944,161.1952,-0.036111125,-0.415740755,0,0,0,,0,56,56,398,1,,,,
,,,,,,3924af121fde90480b17e717,66a626ef09d4e21e1a8894ec,6735c433d54f0deb06ffda18,2024-11-14_10h35.12.661,Tarea de género gramatical,2024.2.2,Win32,70.92198582,,,,,,,,,,,,,,,,,,,,,,,161.1959,162.2211,l,1,0.3672,,[],[],[],[],[],[],[],0.3672,1,162.2212,162.7179,,,,,,497,MAS,DIS,150,olor,la,l,162.7181,162.7182,-0.036111125,-0.415740755,0,0,0,,0,57,57,46,1,,,,
,,,,,,3924af121fde90480b17e717,66a626ef09d4e21e1a8894ec,6735c433d54f0deb06ffda18,2024-11-14_10h35.12.661,Tarea de género gramatical,2024.2.2,Win32,70.92198582,,,,,,,,,,,,,,,,,,,,,,,162.7196,163.71,l,1,0.3198,,[],[],[],[],[],[],[],0.3198,1,163.7101,164.2058,,,,,,838,MAS,CON,150,empleo,,l,164.2059,164.206,-0.036111125,-0.415740755,0,0,0,,0,58,58,387,1,,,,
,,,,,,3924af121fde90480b17e717,66a626ef09d4e21e1a8894ec,6735c433d54f0deb06ffda18,2024-11-14_10h35.12.661,Tarea de género gramatical,2024.2.2,Win32,70.92198582,,,,,,,,,,,,,,,,,,,,,,,164.2074,165.1412,l,1,0.2707,,[],[],[],[],[],[],[],0.2707,1,165.1414,165.6396,,,,,,881,MAS,DIS,150,veneno,la,l,165.6397,165.6399,-0.036111125,-0.415740755,0,0,0,,0,59,59,430,1,,,,
,,,,,,3924af121fde90480b17e717,66a626ef09d4e21e1a8894ec,6735c433d54f0deb06ffda18,2024-11-14_10h35.12.661,Tarea de género gramatical,2024.2.2,Win32,70.92198582,,,,,,,,,,,,,,,,,,,,,,,165.641,166.8639,l,1,0.5641,,[],[],[],[],[],[],[],0.5641,1,166.8641,167.3635,,,,,,557,MAS,DIS,150,cubo,la,l,167.3642,167.3647,-0.036111125,-0.415740755,0,0,0,,0,60,60,106,1,,,,
,,,,,,3924af121fde90480b17e717,66a626ef09d4e21e1a8894ec,6735c433d54f0deb06ffda18,2024-11-14_10h35.12.661,Tarea de género gramatical,2024.2.2,Win32,70.92198582,,,,,,,,,,,,,,,,,,,,,,,167.3658,168.2796,a,1,0.2576,,[],[],[],[],[],[],[],0.2576,1,168.2797,168.7765,,,,,,669,FEM,AGR,150,costa,la,a,168.7766,168.7767,-0.036111125,-0.415740755,0,0,0,,0,61,61,218,1,,,,
,,,,,,3924af121fde90480b17e717,66a626ef09d4e21e1a8894ec,6735c433d54f0deb06ffda18,2024-11-14_10h35.12.661,Tarea de género gramatical,2024.2.2,Win32,70.92198582,,,,,,,,,,,,,,,,,,,,,,,168.7782,169.7775,a,1,0.34,,[],[],[],[],[],[],[],0.34,1,169.7776,170.2771,,,,,,895,FEM,CON,150,bondad,,a,170.2771,170.2772,-0.036111125,-0.415740755,0,0,0,,0,62,62,444,1,,,,
,,,,,,3924af121fde90480b17e717,66a626ef09d4e21e1a8894ec,6735c433d54f0deb06ffda18,2024-11-14_10h35.12.661,Tarea de género gramatical,2024.2.2,Win32,70.92198582,,,,,,,,,,,,,,,,,,,,,,,170.2779,171.3739,l,0,0.4414,,[],[],[],[],[],[],[],0.4414,0,171.3744,171.873,,,,,,705,FEM,AGR,150,tribu,la,a,171.8731,171.8731,-0.036111125,-0.415740755,0,0,0,,0,63,63,254,1,,,,
,,,,,,3924af121fde90480b17e717,66a626ef09d4e21e1a8894ec,6735c433d54f0deb06ffda18,2024-11-14_10h35.12.661,Tarea de género gramatical,2024.2.2,Win32,70.92198582,,,,,,,,,,,,,,,,,,,,,,,171.8739,173.1778,l,1,0.6392,,[],[],[],[],[],[],[],0.6392,1,173.1782,173.6837,,,,,,545,MAS,DIS,150,tomo,la,l,173.6838,173.6838,-0.036111125,-0.415740755,0,0,0,,0,64,64,94,1,,,,
,,,,,,3924af121fde90480b17e717,66a626ef09d4e21e1a8894ec,6735c433d54f0deb06ffda18,2024-11-14_10h35.12.661,Tarea de género gramatical,2024.2.2,Win32,70.92198582,,,,,,,,,,,,,,,,,,,,,,,173.6845,174.7226,l,1,0.3737,,[],[],[],[],[],[],[],0.3737,1,174.7226,175.2236,,,,,,642,MAS,AGR,150,grupo,el,l,175.2242,175.2248,-0.036111125,-0.415740755,0,0,0,,0,65,65,191,1,,,,
,,,,,,3924af121fde90480b17e717,66a626ef09d4e21e1a8894ec,6735c433d54f0deb06ffda18,2024-11-14_10h35.12.661,Tarea de género gramatical,2024.2.2,Win32,70.92198582,,,,,,,,,,,,,,,,,,,,,,,175.2252,176.2224,l,1,0.3357,,[],[],[],[],[],[],[],0.3357,1,176.2224,176.7179,,,,,,653,MAS,DIS,150,novio,la,l,176.7181,176.7182,-0.036111125,-0.415740755,0,0,0,,0,66,66,202,1,,,,
,,,,,,3924af121fde90480b17e717,66a626ef09d4e21e1a8894ec,6735c433d54f0deb06ffda18,2024-11-14_10h35.12.661,Tarea de género gramatical,2024.2.2,Win32,70.92198582,,,,,,,,,,,,,,,,,,,,,,,176.7193,177.7207,l,1,0.342,,[],[],[],[],[],[],[],0.342,1,177.7209,178.2164,,,,,,502,MAS,CON,150,lago,,l,178.2166,178.2167,-0.036111125,-0.415740755,0,0,0,,0,67,67,51,1,,,,
,,,,,,3924af121fde90480b17e717,66a626ef09d4e21e1a8894ec,6735c433d54f0deb06ffda18,2024-11-14_10h35.12.661,Tarea de género gramatical,2024.2.2,Win32,70.92198582,,,,,,,,,,,,,,,,,,,,,,,178.2176,179.212,a,1,0.3333,,[],[],[],[],[],[],[],0.3333,1,179.212,179.7122,,,,,,453,FEM,AGR,150,cosa,la,a,179.7122,179.7124,-0.036111125,-0.415740755,0,0,0,,0,68,68,2,1,,,,
,,,,,,3924af121fde90480b17e717,66a626ef09d4e21e1a8894ec,6735c433d54f0deb06ffda18,2024-11-14_10h35.12.661,Tarea de género gramatical,2024.2.2,Win32,70.92198582,,,,,,,,,,,,,,,,,,,,,,,179.7131,180.8217,l,1,0.4503,,[],[],[],[],[],[],[],0.4503,1,180.8217,181.3178,,,,,,808,MAS,CON,150,motivo,,l,181.3191,181.3199,-0.036111125,-0.415740755,0,0,0,,0,69,69,357,1,,,,
,,,,,,3924af121fde90480b17e717,66a626ef09d4e21e1a8894ec,6735c433d54f0deb06ffda18,2024-11-14_10h35.12.661,Tarea de género gramatical,2024.2.2,Win32,70.92198582,,,,,,,,,,,,,,,,,,,,,,,181.3204,182.2504,l,1,0.2666,,[],[],[],[],[],[],[],0.2666,1,182.2505,182.7464,,,,,,887,MAS,DIS,150,hombro,la,l,182.7464,182.7466,-0.036111125,-0.415740755,0,0,0,,0,70,70,436,1,,,,
,,,,,,3924af121fde90480b17e717,66a626ef09d4e21e1a8894ec,6735c433d54f0deb06ffda18,2024-11-14_10h35.12.661,Tarea de género gramatical,2024.2.2,Win32,70.92198582,,,,,,,,,,,,,,,,,,,,,,,182.7481,183.6339,l,1,0.2288,,[],[],[],[],[],[],[],0.2288,1,183.6342,184.1309,,,,,,612,MAS,AGR,150,miedo,el,l,184.131,184.131,-0.036111125,-0.415740755,0,0,0,,0,71,71,161,1,,,,
,,,,,,3924af121fde90480b17e717,66a626ef09d4e21e1a8894ec,6735c433d54f0deb06ffda18,2024-11-14_10h35.12.661,Tarea de género gramatical,2024.2.2,Win32,70.92198582,,,,,,,,,,,,,,,,,,,,,,,184.1319,185.101,l,1,0.3085,,[],[],[],[],[],[],[],0.3085,1,185.1012,185.6016,,,,,,479,MAS,DIS,150,frío,la,l,185.6016,185.6017,-0.036111125,-0.415740755,0,0,0,,0,72,72,28,1,,,,
,,,,,,3924af121fde90480b17e717,66a626ef09d4e21e1a8894ec,6735c433d54f0deb06ffda18,2024-11-14_10h35.12.661,Tarea de género gramatical,2024.2.2,Win32,70.92198582,,,,,,,,,,,,,,,,,,,,,,,185.603,186.5099,l,1,0.2518,,[],[],[],[],[],[],[],0.2518,1,186.51,187.0097,,,,,,492,MAS,AGR,150,show,el,l,187.0098,187.0098,-0.036111125,-0.415740755,0,0,0,,0,73,73,41,1,,,,
,,,,,,3924af121fde90480b17e717,66a626ef09d4e21e1a8894ec,6735c433d54f0deb06ffda18,2024-11-14_10h35.12.661,Tarea de género gramatical,2024.2.2,Win32,70.92198582,,,,,,,,,,,,,,,,,,,,,,,187.0106,188.002,a,1,0.3333,,[],[],[],[],[],[],[],0.3333,1,188.0021,188.5014,,,,,,872,FEM,DIS,150,rutina,el,a,188.5021,188.5026,-0.036111125,-0.415740755,0,0,0,,0,74,74,421,1,,,,
,,,,,,3924af121fde90480b17e717,66a626ef09d4e21e1a8894ec,6735c433d54f0deb06ffda18,2024-11-14_10h35.12.661,Tarea de género gramatical,2024.2.2,Win32,70.92198582,,,,,,,,,,,,,,,,,,,,,,,188.5031,189.4426,a,1,0.276,,[],[],[],[],[],[],[],0.276,1,189.4427,189.938,,,,,,817,FEM,CON,150,teoría,,a,189.9381,189.9381,-0.036111125,-0.415740755,0,0,0,,0,75,75,366,1,,,,
,,,,,,3924af121fde90480b17e717,66a626ef09d4e21e1a8894ec,6735c433d54f0deb06ffda18,2024-11-14_10h35.12.661,Tarea de género gramatical,2024.2.2,Win32,70.92198582,,,,,,,,,,,,,,,,,,,,,,,189.9389,190.8856,a,1,0.2847,,[],[],[],[],[],[],[],0.2847,1,190.8857,191.3879,,,,,,579,FEM,AGR,150,rana,la,a,191.3879,191.388,-0.036111125,-0.415740755,0,0,0,,0,76,76,128,1,,,,
,,,,,,3924af121fde90480b17e717,66a626ef09d4e21e1a8894ec,6735c433d54f0deb06ffda18,2024-11-14_10h35.12.661,Tarea de género gramatical,2024.2.2,Win32,70.92198582,,,,,,,,,,,,,,,,,,,,,,,191.3888,192.3127,l,1,0.2674,,[],[],[],[],[],[],[],0.2674,1,192.3129,192.808,,,,,,610,MAS,CON,150,señor,,l,192.8081,192.8083,-0.036111125,-0.415740755,0,0,0,,0,77,77,159,1,,,,
,,,,,,3924af121fde90480b17e717,66a626ef09d4e21e1a8894ec,6735c433d54f0deb06ffda18,2024-11-14_10h35.12.661,Tarea de género gramatical,2024.2.2,Win32,70.92198582,,,,,,,,,,,,,,,,,,,,,,,192.8094,193.8435,a,1,0.3777,,[],[],[],[],[],[],[],0.3777,1,193.8436,194.3425,,,,,,513,FEM,AGR,150,fila,la,a,194.3433,194.3438,-0.036111125,-0.415740755,0,0,0,,0,78,78,62,1,,,,
,,,,,,3924af121fde90480b17e717,66a626ef09d4e21e1a8894ec,6735c433d54f0deb06ffda18,2024-11-14_10h35.12.661,Tarea de género gramatical,2024.2.2,Win32,70.92198582,,,,,,,,,,,,,,,,,,,,,,,194.3442,195.4581,a,1,0.4571,,[],[],[],[],[],[],[],0.4571,1,195.4581,195.9565,,,,,,535,FEM,CON,150,gira,,a,195.9567,195.9567,-0.036111125,-0.415740755,0,0,0,,0,79,79,84,1,,,,
,,,,,,3924af121fde90480b17e717,66a626ef09d4e21e1a8894ec,6735c433d54f0deb06ffda18,2024-11-14_10h35.12.661,Tarea de género gramatical,2024.2.2,Win32,70.92198582,,,,,,,,,,,,,,,,,,,,,,,195.9579,197.0138,a,1,0.3962,,[],[],[],[],[],[],[],0.3962,1,197.0139,197.513,,,,,,573,FEM,AGR,150,tela,la,a,197.513,197.5131,-0.036111125,-0.415740755,0,0,0,,0,80,80,122,1,,,,
,,,,,,3924af121fde90480b17e717,66a626ef09d4e21e1a8894ec,6735c433d54f0deb06ffda18,2024-11-14_10h35.12.661,Tarea de género gramatical,2024.2.2,Win32,70.92198582,,,,,,,,,,,,,,,,,,,,,,,197.514,198.5261,a,1,0.3575,,[],[],[],[],[],[],[],0.3575,1,198.5262,199.0282,,,,,,686,FEM,DIS,150,deuda,el,a,199.0283,199.0284,-0.036111125,-0.415740755,0,0,0,,0,81,81,235,1,,,,
,,,,,,3924af121fde90480b17e717,66a626ef09d4e21e1a8894ec,6735c433d54f0deb06ffda18,2024-11-14_10h35.12.661,Tarea de género gramatical,2024.2.2,Win32,70.92198582,,,,,,,,,,,,,,,,,,,,,,,199.0295,200.0732,l,1,0.383,,[],[],[],[],[],[],[],0.383,1,200.0733,200.5703,,,,,,706,MAS,CON,150,techo,,l,200.5704,200.5705,-0.036111125,-0.415740755,0,0,0,,0,82,82,255,1,,,,
,,,,,,3924af121fde90480b17e717,66a626ef09d4e21e1a8894ec,6735c433d54f0deb06ffda18,2024-11-14_10h35.12.661,Tarea de género gramatical,2024.2.2,Win32,70.92198582,,,,,,,,,,,,,,,,,,,,,,,200.5716,201.681,a,1,0.4536,,[],[],[],[],[],[],[],0.4536,1,201.6812,202.1816,,,,,,625,FEM,CON,150,señal,,a,202.1826,202.183,-0.036111125,-0.415740755,0,0,0,,0,83,83,174,1,,,,
,,,,,,3924af121fde90480b17e717,66a626ef09d4e21e1a8894ec,6735c433d54f0deb06ffda18,2024-11-14_10h35.12.661,Tarea de género gramatical,2024.2.2,Win32,70.92198582,,,,,,,,,,,,,,,,,,,,,,,202.1834,203.2221,l,1,0.3751,,[],[],[],[],[],[],[],0.3751,1,203.2221,203.7221,,,,,,840,MAS,AGR,150,rostro,el,l,203.7222,203.7222,-0.036111125,-0.415740755,0,0,0,,0,84,84,389,1,,,,
,,,,,,3924af121fde90480b17e717,66a626ef09d4e21e1a8894ec,6735c433d54f0deb06ffda18,2024-11-14_10h35.12.661,Tarea de género gramatical,2024.2.2,Win32,70.92198582,,,,,,,,,,,,,,,,,,,,,,,203.723,204.7688,l,1,0.3842,,[],[],[],[],[],[],[],0.3842,1,204.7689,205.2681,,,,,,869,MAS,DIS,150,cuento,la,l,205.2681,205.2682,-0.036111125,-0.415740755,0,0,0,,0,85,85,418,1,,,,
,,,,,,3924af121fde90480b17e717,66a626ef09d4e21e1a8894ec,6735c433d54f0deb06ffda18,2024-11-14_10h35.12.661,Tarea de género gramatical,2024.2.2,Win32,70.92198582,,,,,,,,,,,,,,,,,,,,,,,205.269,206.2674,l,1,0.3398,,[],[],[],[],[],[],[],0.3398,1,206.2675,206.7673,,,,,,678,MAS,AGR,150,nivel,el,l,206.7673,206.7674,-0.036111125,-0.415740755,0,0,0,,0,86,86,227,1,,,,
,,,,,,3924af121fde90480b17e717,66a626ef09d4e21e1a8894ec,6735c433d54f0deb06ffda18,2024-11-14_10h35.12.661,Tarea de género gramatical,2024.2.2,Win32,70.92198582,,,,,,,,,,,,,,,,,,,,,,,206.7681,207.6647,l,1,0.2313,,[],[],[],[],[],[],[],0.2313,1,207.6649,208.1619,,,,,,496,MAS,CON,150,odio,,l,208.163,208.1639,-0.036111125,-0.415740755,0,0,0,,0,87,87,45,1,,,,
,,,,,,3924af121fde90480b17e717,66a626ef09d4e21e1a8894ec,6735c433d54f0deb06ffda18,2024-11-14_10h35.12.661,Tarea de género gramatical,2024.2.2,Win32,70.92198582,,,,,,,,,,,,,,,,,,,,,,,208.1656,209.0482,l,1,0.2233,,[],[],[],[],[],[],[],0.2233,1,209.0484,209.5449,,,,,,724,MAS,CON,150,motor,,l,209.5449,209.5452,-0.036111125,-0.415740755,0,0,0,,0,88,88,273,1,,,,
,,,,,,3924af121fde90480b17e717,66a626ef09d4e21e1a8894ec,6735c433d54f0deb06ffda18,2024-11-14_10h35.12.661,Tarea de género gramatical,2024.2.2,Win32,70.92198582,,,,,,,,,,,,,,,,,,,,,,,209.5465,210.6309,a,0,0.423,,[],[],[],[],[],[],[],0.423,0,210.6315,211.1268,,,,,,725,MAS,DIS,150,disco,la,l,211.127,211.127,-0.036111125,-0.415740755,0,0,0,,0,89,89,274,1,,,,
,,,,,,3924af121fde90480b17e717,66a626ef09d4e21e1a8894ec,6735c433d54f0deb06ffda18,2024-11-14_10h35.12.661,Tarea de género gramatical,2024.2.2,Win32,70.92198582,,,,,,,,,,,,,,,,,,,,,,,211.1281,212.5867,a,0,0.8023,,[],[],[],[],[],[],[],0.8023,0,212.5868,213.0836,,,,,,810,MAS,AGR,150,puente,el,l,213.0837,213.0838,-0.036111125,-0.415740755,0,0,0,,0,90,90,359,1,,,,
,,,,,,3924af121fde90480b17e717,66a626ef09d4e21e1a8894ec,6735c433d54f0deb06ffda18,2024-11-14_10h35.12.661,Tarea de género gramatical,2024.2.2,Win32,70.92198582,,,,,,,,,,,,,,,,,,,,,,,213.0853,214.1975,l,1,0.4523,,[],[],[],[],[],[],[],0.4523,1,214.1982,214.6945,,,,,,605,MAS,DIS,150,mundo,la,l,214.6946,214.6946,-0.036111125,-0.415740755,0,0,0,,0,91,91,154,1,,,,
,,,,,,3924af121fde90480b17e717,66a626ef09d4e21e1a8894ec,6735c433d54f0deb06ffda18,2024-11-14_10h35.12.661,Tarea de género gramatical,2024.2.2,Win32,70.92198582,,,,,,,,,,,,,,,,,,,,,,,214.6955,215.757,a,1,0.3974,,[],[],[],[],[],[],[],0.3974,1,215.757,216.2576,,,,,,596,FEM,DIS,150,lana,el,a,216.2584,216.2589,-0.036111125,-0.415740755,0,0,0,,0,92,92,145,1,,,,
,,,,,,3924af121fde90480b17e717,66a626ef09d4e21e1a8894ec,6735c433d54f0deb06ffda18,2024-11-14_10h35.12.661,Tarea de género gramatical,2024.2.2,Win32,70.92198582,,,,,,,,,,,,,,,,,,,,,,,216.26,217.4019,l,1,0.4787,,[],[],[],[],[],[],[],0.4787,1,217.402,217.9018,,,,,,785,MAS,DIS,150,montón,la,l,217.9019,217.9019,-0.036111125,-0.415740755,0,0,0,,0,93,93,334,1,,,,
,,,,,,3924af121fde90480b17e717,66a626ef09d4e21e1a8894ec,6735c433d54f0deb06ffda18,2024-11-14_10h35.12.661,Tarea de género gramatical,2024.2.2,Win32,70.92198582,,,,,,,,,,,,,,,,,,,,,,,217.9028,219.0504,l,1,0.4831,,[],[],[],[],[],[],[],0.4831,1,219.0506,219.5521,,,,,,467,MAS,DIS,150,modo,la,l,219.5522,219.5522,-0.036111125,-0.415740755,0,0,0,,0,94,94,16,1,,,,
,,,,,,3924af121fde90480b17e717,66a626ef09d4e21e1a8894ec,6735c433d54f0deb06ffda18,2024-11-14_10h35.12.661,Tarea de género gramatical,2024.2.2,Win32,70.92198582,,,,,,,,,,,,,,,,,,,,,,,219.5531,220.7253,a,1,0.5175,,[],[],[],[],[],[],[],0.5175,1,220.7254,221.2221,,,,,,812,FEM,DIS,150,fuente,el,a,221.2222,221.2222,-0.036111125,-0.415740755,0,0,0,,0,95,95,361,1,,,,
,,,,,,3924af121fde90480b17e717,66a626ef09d4e21e1a8894ec,6735c433d54f0deb06ffda18,2024-11-14_10h35.12.661,Tarea de género gramatical,2024.2.2,Win32,70.92198582,,,,,,,,,,,,,,,,,,,,,,,221.2236,222.319,l,1,0.4393,,[],[],[],[],[],[],[],0.4393,1,222.3192,222.8162,,,,,,834,MAS,AGR,150,pedazo,el,l,222.8174,222.8179,-0.036111125,-0.415740755,0,0,0,,0,96,96,383,1,,,,
,,,,,,3924af121fde90480b17e717,66a626ef09d4e21e1a8894ec,6735c433d54f0deb06ffda18,2024-11-14_10h35.12.661,Tarea de género gramatical,2024.2.2,Win32,70.92198582,,,,,,,,,,,,,,,,,,,,,,,222.8183,223.784,a,0,0.3072,,[],[],[],[],[],[],[],0.3072,0,223.7847,224.2798,,,,,,839,MAS,DIS,150,tamaño,la,l,224.2798,224.2799,-0.036111125,-0.415740755,0,0,0,,0,97,97,388,1,,,,
,,,,,,3924af121fde90480b17e717,66a626ef09d4e21e1a8894ec,6735c433d54f0deb06ffda18,2024-11-14_10h35.12.661,Tarea de género gramatical,2024.2.2,Win32,70.92198582,,,,,,,,,,,,,,,,,,,,,,,224.2815,225.3174,l,1,0.3777,,[],[],[],[],[],[],[],0.3777,1,225.3181,225.8164,,,,,,599,MAS,DIS,150,nudo,la,l,225.8164,225.8165,-0.036111125,-0.415740755,0,0,0,,0,98,98,148,1,,,,
,,,,,,3924af121fde90480b17e717,66a626ef09d4e21e1a8894ec,6735c433d54f0deb06ffda18,2024-11-14_10h35.12.661,Tarea de género gramatical,2024.2.2,Win32,70.92198582,,,,,,,,,,,,,,,,,,,,,,,225.8173,226.7679,l,1,0.2853,,[],[],[],[],[],[],[],0.2853,1,226.7681,227.2664,,,,,,696,MAS,AGR,150,humor,el,l,227.2664,227.2664,-0.036111125,-0.415740755,0,0,0,,0,99,99,245,1,,,,
,,,,,,3924af121fde90480b17e717,66a626ef09d4e21e1a8894ec,6735c433d54f0deb06ffda18,2024-11-14_10h35.12.661,Tarea de género gramatical,2024.2.2,Win32,70.92198582,,,,,,,,,,,,,,,,,,,,,,,227.2672,228.3475,a,1,0.4148,,[],[],[],[],[],[],[],0.4148,1,228.3478,228.8485,,,,,,697,FEM,CON,150,frase,,a,228.8485,228.8485,-0.036111125,-0.415740755,0,0,0,,0,100,100,246,1,,,,
,,,,,,3924af121fde90480b17e717,66a626ef09d4e21e1a8894ec,6735c433d54f0deb06ffda18,2024-11-14_10h35.12.661,Tarea de género gramatical,2024.2.2,Win32,70.92198582,,,,,,,,,,,,,,,,,,,,,,,228.8493,229.8849,a,1,0.3763,,[],[],[],[],[],[],[],0.3763,1,229.8851,230.3805,,,,,,787,FEM,CON,150,escena,,a,230.3813,230.3819,-0.036111125,-0.415740755,0,0,0,,0,101,101,336,1,,,,
,,,,,,3924af121fde90480b17e717,66a626ef09d4e21e1a8894ec,6735c433d54f0deb06ffda18,2024-11-14_10h35.12.661,Tarea de género gramatical,2024.2.2,Win32,70.92198582,,,,,,,,,,,,,,,,,,,,,,,230.3823,231.3952,l,1,0.348,,[],[],[],[],[],[],[],0.348,1,231.3954,231.8909,,,,,,516,MAS,AGR,150,muro,el,l,231.891,231.8912,-0.036111125,-0.415740755,0,0,0,,0,102,102,65,1,,,,
,,,,,,3924af121fde90480b17e717,66a626ef09d4e21e1a8894ec,6735c433d54f0deb06ffda18,2024-11-14_10h35.12.661,Tarea de género gramatical,2024.2.2,Win32,70.92198582,,,,,,,,,,,,,,,,,,,,,,,231.8925,232.9214,a,1,0.3727,,[],[],[],[],[],[],[],0.3727,1,232.9215,233.417,,,,,,565,FEM,CON,150,seda,,a,233.4172,233.4172,-0.036111125,-0.415740755,0,0,0,,0,103,103,114,1,,,,
,,,,,,3924af121fde90480b17e717,66a626ef09d4e21e1a8894ec,6735c433d54f0deb06ffda18,2024-11-14_10h35.12.661,Tarea de género gramatical,2024.2.2,Win32,70.92198582,,,,,,,,,,,,,,,,,,,,,,,233.4186,234.3773,a,1,0.3002,,[],[],[],[],[],[],[],0.3002,1,234.3773,234.8733,,,,,,693,FEM,AGR,150,salsa,la,a,234.8733,234.8735,-0.036111125,-0.415740755,0,0,0,,0,104,104,242,1,,,,
,,,,,,3924af121fde90480b17e717,66a626ef09d4e21e1a8894ec,6735c433d54f0deb06ffda18,2024-11-14_10h35.12.661,Tarea de género gramatical,2024.2.2,Win32,70.92198582,,,,,,,,,,,,,,,,,,,,,,,234.8753,235.8833,l,1,0.3496,,[],[],[],[],[],[],[],0.3496,1,235.8834,236.3784,,,,,,570,MAS,AGR,150,puño,el,l,236.3799,236.3804,-0.036111125,-0.415740755,0,0,0,,0,105,105,119,1,,,,
,,,,,,3924af121fde90480b17e717,66a626ef09d4e21e1a8894ec,6735c433d54f0deb06ffda18,2024-11-14_10h35.12.661,Tarea de género gramatical,2024.2.2,Win32,70.92198582,,,,,,,,,,,,,,,,,,,,,,,236.3807,237.3745,a,1,0.3362,,[],[],[],[],[],[],[],0.3362,1,237.3745,237.8739,,,,,,746,FEM,DIS,150,feria,el,a,237.874,237.8741,-0.036111125,-0.415740755,0,0,0,,0,106,106,295,1,,,,
,,,,,,3924af121fde90480b17e717,66a626ef09d4e21e1a8894ec,6735c433d54f0deb06ffda18,2024-11-14_10h35.12.661,Tarea de género gramatical,2024.2.2,Win32,70.92198582,,,,,,,,,,,,,,,,,,,,,,,237.8747,238.8571,a,0,0.3267,,[],[],[],[],[],[],[],0.3267,0,238.8581,239.3568,,,,,,575,MAS,DIS,150,bate,la,l,239.3568,239.3569,-0.036111125,-0.415740755,0,0,0,,0,107,107,124,1,,,,
,,,,,,3924af121fde90480b17e717,66a626ef09d4e21e1a8894ec,6735c433d54f0deb06ffda18,2024-11-14_10h35.12.661,Tarea de género gramatical,2024.2.2,Win32,70.92198582,,,,,,,,,,,,,,,,,,,,,,,239.3576,240.413,l,1,0.3959,,[],[],[],[],[],[],[],0.3959,1,240.4137,240.9112,,,,,,456,MAS,AGR,150,lado,el,l,240.9113,240.9113,-0.036111125,-0.415740755,0,0,0,,0,108,108,5,1,,,,
,,,,,,3924af121fde90480b17e717,66a626ef09d4e21e1a8894ec,6735c433d54f0deb06ffda18,2024-11-14_10h35.12.661,Tarea de género gramatical,2024.2.2,Win32,70.92198582,,,,,,,,,,,,,,,,,,,,,,,240.9121,241.9424,a,1,0.3708,,[],[],[],[],[],[],[],0.3708,1,241.9426,242.4417,,,,,,645,FEM,AGR,150,pared,la,a,242.4417,242.4418,-0.036111125,-0.415740755,0,0,0,,0,109,109,194,1,,,,
,,,,,,3924af121fde90480b17e717,66a626ef09d4e21e1a8894ec,6735c433d54f0deb06ffda18,2024-11-14_10h35.12.661,Tarea de género gramatical,2024.2.2,Win32,70.92198582,,,,,,,,,,,,,,,,,,,,,,,242.4434,243.4403,a,1,0.338,,[],[],[],[],[],[],[],0.338,1,243.4405,243.9402,,,,,,813,FEM,AGR,150,unidad,la,a,243.9416,243.942,-0.036111125,-0.415740755,0,0,0,,0,110,110,362,1,,,,
,,,,,,3924af121fde90480b17e717,66a626ef09d4e21e1a8894ec,6735c433d54f0deb06ffda18,2024-11-14_10h35.12.661,Tarea de género gramatical,2024.2.2,Win32,70.92198582,,,,,,,,,,,,,,,,,,,,,,,243.9428,244.9099,a,1,0.3067,,[],[],[],[],[],[],[],0.3067,1,244.91,245.4077,,,,,,459,FEM,AGR,150,mamá,la,a,245.4078,245.4078,-0.036111125,-0.415740755,0,0,0,,0,111,111,8,1,,,,
,,,,,,3924af121fde90480b17e717,66a626ef09d4e21e1a8894ec,6735c433d54f0deb06ffda18,2024-11-14_10h35.12.661,Tarea de género gramatical,2024.2.2,Win32,70.92198582,,,,,,,,,,,,,,,,,,,,,,,245.4086,246.4348,l,1,0.3613,,[],[],[],[],[],[],[],0.3613,1,246.435,246.941,,,,,,544,MAS,CON,150,cabo,,l,246.941,246.9411,-0.036111125,-0.415740755,0,0,0,,0,112,112,93,1,,,,
,,,,,,3924af121fde90480b17e717,66a626ef09d4e21e1a8894ec,6735c433d54f0deb06ffda18,2024-11-14_10h35.12.661,Tarea de género gramatical,2024.2.2,Win32,70.92198582,,,,,,,,,,,,,,,,,,,,,,,246.9418,248.0023,l,1,0.4017,,[],[],[],[],[],[],[],0.4017,1,248.0023,248.4991,,,,,,478,MAS,CON,150,club,,l,248.4993,248.4994,-0.036111125,-0.415740755,0,0,0,,0,113,113,27,1,,,,
,,,,,,3924af121fde90480b17e717,66a626ef09d4e21e1a8894ec,6735c433d54f0deb06ffda18,2024-11-14_10h35.12.661,Tarea de género gramatical,2024.2.2,Win32,70.92198582,,,,,,,,,,,,,,,,,,,,,,,248.5008,249.494,l,1,0.3359,,[],[],[],[],[],[],[],0.3359,1,249.494,249.9917,,,,,,899,MAS,DIS,150,payaso,la,l,249.9931,249.9935,-0.036111125,-0.415740755,0,0,0,,0,114,114,448,1,,,,
,,,,,,3924af121fde90480b17e717,66a626ef09d4e21e1a8894ec,6735c433d54f0deb06ffda18,2024-11-14_10h35.12.661,Tarea de género gramatical,2024.2.2,Win32,70.92198582,,,,,,,,,,,,,,,,,,,,,,,249.9939,251.1036,a,1,0.4518,,[],[],[],[],[],[],[],0.4518,1,251.1037,251.6031,,,,,,698,FEM,DIS,150,letra,el,a,251.6032,251.6032,-0.036111125,-0.415740755,0,0,0,,0,115,115,247,1,,,,
,,,,,,3924af121fde90480b17e717,66a626ef09d4e21e1a8894ec,6735c433d54f0deb06ffda18,2024-11-14_10h35.12.661,Tarea de género gramatical,2024.2.2,Win32,70.92198582,,,,,,,,,,,,,,,,,,,,,,,251.604,252.5879,a,1,0.3289,,[],[],[],[],[],[],[],0.3289,1,252.588,253.0833,,,,,,835,FEM,CON,150,muñeca,,a,253.0834,253.0836,-0.036111125,-0.415740755,0,0,0,,0,116,116,384,1,,,,
,,,,,,3924af121fde90480b17e717,66a626ef09d4e21e1a8894ec,6735c433d54f0deb06ffda18,2024-11-14_10h35.12.661,Tarea de género gramatical,2024.2.2,Win32,70.92198582,,,,,,,,,,,,,,,,,,,,,,,253.0848,254.244,a,1,0.5,,[],[],[],[],[],[],[],0.5,1,254.2441,254.7415,,,,,,753,FEM,AGR,150,maldad,la,a,254.7416,254.7417,-0.036111125,-0.415740755,0,0,0,,0,117,117,302,1,,,,
,,,,,,3924af121fde90480b17e717,66a626ef09d4e21e1a8894ec,6735c433d54f0deb06ffda18,2024-11-14_10h35.12.661,Tarea de género gramatical,2024.2.2,Win32,70.92198582,,,,,,,,,,,,,,,,,,,,,,,254.7433,255.6339,a,1,0.23,,[],[],[],[],[],[],[],0.23,1,255.6339,256.1312,,,,,,691,FEM,CON,150,pasta,,a,256.1313,256.1315,-0.036111125,-0.415740755,0,0,0,,0,118,118,240,1,,,,
,,,,,,3924af121fde90480b17e717,66a626ef09d4e21e1a8894ec,6735c433d54f0deb06ffda18,2024-11-14_10h35.12.661,Tarea de género gramatical,2024.2.2,Win32,70.92198582,,,,,,,,,,,,,,,,,,,,,,,256.1322,257.2321,l,1,0.4386,,[],[],[],[],[],[],[],0.4386,1,257.2323,257.7307,,,,,,569,MAS,DIS,150,mito,la,l,257.7321,257.7327,-0.036111125,-0.415740755,0,0,0,,0,119,119,118,1,,,,
,,,,,,3924af121fde90480b17e717,66a626ef09d4e21e1a8894ec,6735c433d54f0deb06ffda18,2024-11-14_10h35.12.661,Tarea de género gramatical,2024.2.2,Win32,70.92198582,,,,,,,,,,,,,,,,,,,,,,,257.733,258.7417,l,1,0.3501,,[],[],[],[],[],[],[],0.3501,1,258.7417,259.2386,,,,,,814,MAS,CON,150,viento,,l,259.2387,259.2388,-0.036111125,-0.415740755,0,0,0,,0,120,120,363,1,,,,
,,,,,,3924af121fde90480b17e717,66a626ef09d4e21e1a8894ec,6735c433d54f0deb06ffda18,2024-11-14_10h35.12.661,Tarea de género gramatical,2024.2.2,Win32,70.92198582,,,,,,,,,,,,,,,,,,,,,,,259.2401,260.316,l,1,0.4183,,[],[],[],[],[],[],[],0.4183,1,260.3161,260.8134,,,,,,744,MAS,AGR,150,cable,el,l,260.8136,260.8137,-0.036111125,-0.415740755,0,0,0,,0,121,121,293,1,,,,
,,,,,,3924af121fde90480b17e717,66a626ef09d4e21e1a8894ec,6735c433d54f0deb06ffda18,2024-11-14_10h35.12.661,Tarea de género gramatical,2024.2.2,Win32,70.92198582,,,,,,,,,,,,,,,,,,,,,,,260.8149,261.7107,a,1,0.2366,,[],[],[],[],[],[],[],0.2366,1,261.7107,262.2126,,,,,,794,FEM,DIS,150,pareja,el,a,262.2127,262.2127,-0.036111125,-0.415740755,0,0,0,,0,122,122,343,1,,,,
,,,,,,3924af121fde90480b17e717,66a626ef09d4e21e1a8894ec,6735c433d54f0deb06ffda18,2024-11-14_10h35.12.661,Tarea de género gramatical,2024.2.2,Win32,70.92198582,,,,,,,,,,,,,,,,,,,,,,,262.2139,263.244,l,1,0.3744,,[],[],[],[],[],[],[],0.3744,1,263.2441,263.7426,,,,,,606,MAS,AGR,150,amigo,el,l,263.7432,263.7436,-0.036111125,-0.415740755,0,0,0,,0,123,123,155,1,,,,
,,,,,,3924af121fde90480b17e717,66a626ef09d4e21e1a8894ec,6735c433d54f0deb06ffda18,2024-11-14_10h35.12.661,Tarea de género gramatical,2024.2.2,Win32,70.92198582,,,,,,,,,,,,,,,,,,,,,,,263.7439,264.8668,a,1,0.4678,,[],[],[],[],[],[],[],0.4678,1,264.8669,265.3665,,,,,,891,FEM,AGR,150,medida,la,a,265.3665,265.3666,-0.036111125,-0.415740755,0,0,0,,0,124,124,440,1,,,,
,,,,,,3924af121fde90480b17e717,66a626ef09d4e21e1a8894ec,6735c433d54f0deb06ffda18,2024-11-14_10h35.12.661,Tarea de género gramatical,2024.2.2,Win32,70.92198582,,,,,,,,,,,,,,,,,,,,,,,265.3673,266.2824,l,1,0.2564,,[],[],[],[],[],[],[],0.2564,1,266.2824,266.7815,,,,,,654,MAS,AGR,150,papel,el,l,266.7816,266.7817,-0.036111125,-0.415740755,0,0,0,,0,125,125,203,1,,,,
,,,,,,3924af121fde90480b17e717,66a626ef09d4e21e1a8894ec,6735c433d54f0deb06ffda18,2024-11-14_10h35.12.661,Tarea de género gramatical,2024.2.2,Win32,70.92198582,,,,,,,,,,,,,,,,,,,,,,,266.7824,267.7641,a,1,0.317,,[],[],[],[],[],[],[],0.317,1,267.7642,268.2623,,,,,,867,FEM,AGR,150,cabaña,la,a,268.2624,268.2625,-0.036111125,-0.415740755,0,0,0,,0,126,126,416,1,,,,
,,,,,,3924af121fde90480b17e717,66a626ef09d4e21e1a8894ec,6735c433d54f0deb06ffda18,2024-11-14_10h35.12.661,Tarea de género gramatical,2024.2.2,Win32,70.92198582,,,,,,,,,,,,,,,,,,,,,,,268.2634,269.2847,a,1,0.3603,,[],[],[],[],[],[],[],0.3603,1,269.2849,269.7853,,,,,,800,FEM,DIS,150,imagen,el,a,269.7853,269.7854,-0.036111125,-0.415740755,0,0,0,,0,127,127,349,1,,,,
,,,,,,3924af121fde90480b17e717,66a626ef09d4e21e1a8894ec,6735c433d54f0deb06ffda18,2024-11-14_10h35.12.661,Tarea de género gramatical,2024.2.2,Win32,70.92198582,,,,,,,,,,,,,,,,,,,,,,,269.7862,270.8122,l,1,0.3707,,[],[],[],[],[],[],[],0.3707,1,270.8122,271.3101,,,,,,803,MAS,DIS,150,verano,la,l,271.3118,271.3124,-0.036111125,-0.415740755,0,0,0,,0,128,128,352,1,,,,
,,,,,,3924af121fde90480b17e717,66a626ef09d4e21e1a8894ec,6735c433d54f0deb06ffda18,2024-11-14_10h35.12.661,Tarea de género gramatical,2024.2.2,Win32,70.92198582,,,,,,,,,,,,,,,,,,,,,,,271.3129,272.3451,l,1,0.3705,,[],[],[],[],[],[],[],0.3705,1,272.3451,272.8453,,,,,,701,MAS,DIS,150,dueño,la,l,272.8453,272.8453,-0.036111125,-0.415740755,0,0,0,,0,129,129,250,1,,,,
,,,,,,3924af121fde90480b17e717,66a626ef09d4e21e1a8894ec,6735c433d54f0deb06ffda18,2024-11-14_10h35.12.661,Tarea de género gramatical,2024.2.2,Win32,70.92198582,,,,,,,,,,,,,,,,,,,,,,,272.8462,273.8438,a,1,0.3399,,[],[],[],[],[],[],[],0.3399,1,273.8439,274.3433,,,,,,823,FEM,CON,150,lluvia,,a,274.3434,274.3435,-0.036111125,-0.415740755,0,0,0,,0,130,130,372,1,,,,
,,,,,,3924af121fde90480b17e717,66a626ef09d4e21e1a8894ec,6735c433d54f0deb06ffda18,2024-11-14_10h35.12.661,Tarea de género gramatical,2024.2.2,Win32,70.92198582,,,,,,,,,,,,,,,,,,,,,,,274.3443,275.3081,l,1,0.3083,,[],[],[],[],[],[],[],0.3083,1,275.3082,275.8053,,,,,,515,MAS,DIS,150,rayo,la,l,275.8054,275.8056,-0.036111125,-0.415740755,0,0,0,,0,131,131,64,1,,,,
,,,,,,3924af121fde90480b17e717,66a626ef09d4e21e1a8894ec,6735c433d54f0deb06ffda18,2024-11-14_10h35.12.661,Tarea de género gramatical,2024.2.2,Win32,70.92198582,,,,,,,,,,,,,,,,,,,,,,,275.8066,276.7709,l,1,0.307,,[],[],[],[],[],[],[],0.307,1,276.7709,277.2687,,,,,,718,MAS,CON,150,truco,,l,277.2693,277.2697,-0.036111125,-0.415740755,0,0,0,,0,132,132,267,1,,,,
,,,,,,3924af121fde90480b17e717,66a626ef09d4e21e1a8894ec,6735c433d54f0deb06ffda18,2024-11-14_10h35.12.661,Tarea de género gramatical,2024.2.2,Win32,70.92198582,,,,,,,,,,,,,,,,,,,,,,,277.27,278.2209,l,1,0.295,,[],[],[],[],[],[],[],0.295,1,278.221,278.7186,,,,,,592,MAS,CON,150,lodo,,l,278.7187,278.7188,-0.036111125,-0.415740755,0,0,0,,0,133,133,141,1,,,,
,,,,,,3924af121fde90480b17e717,66a626ef09d4e21e1a8894ec,6735c433d54f0deb06ffda18,2024-11-14_10h35.12.661,Tarea de género gramatical,2024.2.2,Win32,70.92198582,,,,,,,,,,,,,,,,,,,,,,,278.72,279.6492,a,1,0.2703,,[],[],[],[],[],[],[],0.2703,1,279.6492,280.1462,,,,,,884,FEM,DIS,150,corona,el,a,280.1462,280.1463,-0.036111125,-0.415740755,0,0,0,,0,134,134,433,1,,,,
,,,,,,3924af121fde90480b17e717,66a626ef09d4e21e1a8894ec,6735c433d54f0deb06ffda18,2024-11-14_10h35.12.661,Tarea de género gramatical,2024.2.2,Win32,70.92198582,,,,,,,,,,,,,,,,,,,,,,,280.1475,281.0981,a,1,0.2924,,[],[],[],[],[],[],[],0.2924,1,281.0983,281.5952,,,,,,765,FEM,AGR,150,manera,la,a,281.5953,281.5955,-0.036111125,-0.415740755,0,0,0,,0,135,135,314,1,,,,
,,,,,,3924af121fde90480b17e717,66a626ef09d4e21e1a8894ec,6735c433d54f0deb06ffda18,2024-11-14_10h35.12.661,Tarea de género gramatical,2024.2.2,Win32,70.92198582,,,,,,,,,,,,,,,,,,,,,,,281.5967,282.504,a,1,0.2446,,[],[],[],[],[],[],[],0.2446,1,282.5042,283.008,,,,,,519,FEM,AGR,150,rata,la,a,283.008,283.0081,-0.036111125,-0.415740755,0,0,0,,0,136,136,68,1,,,,
,,,,,,3924af121fde90480b17e717,66a626ef09d4e21e1a8894ec,6735c433d54f0deb06ffda18,2024-11-14_10h35.12.661,Tarea de género gramatical,2024.2.2,Win32,70.92198582,,,,,,,,,,,,,,,,,,,,,,,283.0087,283.8989,a,1,0.2253,,[],[],[],[],[],[],[],0.2253,1,283.8991,284.3952,,,,,,501,FEM,AGR,150,bala,la,a,284.3959,284.3963,-0.036111125,-0.415740755,0,0,0,,0,137,137,50,1,,,,
,,,,,,3924af121fde90480b17e717,66a626ef09d4e21e1a8894ec,6735c433d54f0deb06ffda18,2024-11-14_10h35.12.661,Tarea de género gramatical,2024.2.2,Win32,70.92198582,,,,,,,,,,,,,,,,,,,,,,,284.3967,285.3301,l,1,0.2714,,[],[],[],[],[],[],[],0.2714,1,285.3302,285.8292,,,,,,498,MAS,AGR,150,loco,el,l,285.8292,285.8293,-0.036111125,-0.415740755,0,0,0,,0,138,138,47,1,,,,
,,,,,,3924af121fde90480b17e717,66a626ef09d4e21e1a8894ec,6735c433d54f0deb06ffda18,2024-11-14_10h35.12.661,Tarea de género gramatical,2024.2.2,Win32,70.92198582,,,,,,,,,,,,,,,,,,,,,,,285.8301,286.7818,l,1,0.2943,,[],[],[],[],[],[],[],0.2943,1,286.7818,287.2802,,,,,,604,MAS,CON,150,padre,,l,287.2802,287.2804,-0.036111125,-0.415740755,0,0,0,,0,139,139,153,1,,,,
,,,,,,3924af121fde90480b17e717,66a626ef09d4e21e1a8894ec,6735c433d54f0deb06ffda18,2024-11-14_10h35.12.661,Tarea de género gramatical,2024.2.2,Win32,70.92198582,,,,,,,,,,,,,,,,,,,,,,,287.281,288.2205,l,1,0.2748,,[],[],[],[],[],[],[],0.2748,1,288.2206,288.7201,,,,,,719,MAS,DIS,150,primo,la,l,288.7203,288.7204,-0.036111125,-0.415740755,0,0,0,,0,140,140,268,1,,,,
,,,,,,3924af121fde90480b17e717,66a626ef09d4e21e1a8894ec,6735c433d54f0deb06ffda18,2024-11-14_10h35.12.661,Tarea de género gramatical,2024.2.2,Win32,70.92198582,,,,,,,,,,,,,,,,,,,,,,,288.7217,289.9176,a,0,0.5348,,[],[],[],[],[],[],[],0.5348,0,289.9182,290.4146,,,,,,893,MAS,DIS,150,templo,la,l,290.4159,290.4163,-0.036111125,-0.415740755,0,0,0,,0,141,141,442,1,,,,
,,,,,,3924af121fde90480b17e717,66a626ef09d4e21e1a8894ec,6735c433d54f0deb06ffda18,2024-11-14_10h35.12.661,Tarea de género gramatical,2024.2.2,Win32,70.92198582,,,,,,,,,,,,,,,,,,,,,,,290.4168,291.5681,l,1,0.4948,,[],[],[],[],[],[],[],0.4948,1,291.5686,292.0676,,,,,,845,MAS,DIS,150,correo,la,l,292.0677,292.0678,-0.036111125,-0.415740755,0,0,0,,0,142,142,394,1,,,,
,,,,,,3924af121fde90480b17e717,66a626ef09d4e21e1a8894ec,6735c433d54f0deb06ffda18,2024-11-14_10h35.12.661,Tarea de género gramatical,2024.2.2,Win32,70.92198582,,,,,,,,,,,,,,,,,,,,,,,292.0686,293.1087,l,1,0.3754,,[],[],[],[],[],[],[],0.3754,1,293.1087,293.6085,,,,,,766,MAS,CON,150,cuerpo,,l,293.6086,293.6086,-0.036111125,-0.415740755,0,0,0,,0,143,143,315,1,,,,
,,,,,,3924af121fde90480b17e717,66a626ef09d4e21e1a8894ec,6735c433d54f0deb06ffda18,2024-11-14_10h35.12.661,Tarea de género gramatical,2024.2.2,Win32,70.92198582,,,,,,,,,,,,,,,,,,,,,,,293.6093,294.576,l,0,0.3042,,[],[],[],[],[],[],[],0.3042,0,294.577,295.072,,,,,,457,FEM,CON,150,hora,,a,295.072,295.072,-0.036111125,-0.415740755,0,0,0,,0,144,144,6,1,,,,
,,,,,,3924af121fde90480b17e717,66a626ef09d4e21e1a8894ec,6735c433d54f0deb06ffda18,2024-11-14_10h35.12.661,Tarea de género gramatical,2024.2.2,Win32,70.92198582,,,,,,,,,,,,,,,,,,,,,,,295.0728,296.0894,a,1,0.3539,,[],[],[],[],[],[],[],0.3539,1,296.0904,296.5882,,,,,,451,FEM,CON,150,casa,,a,296.5883,296.5884,-0.036111125,-0.415740755,0,0,0,,0,145,145,0,1,,,,
,,,,,,3924af121fde90480b17e717,66a626ef09d4e21e1a8894ec,6735c433d54f0deb06ffda18,2024-11-14_10h35.12.661,Tarea de género gramatical,2024.2.2,Win32,70.92198582,,,,,,,,,,,,,,,,,,,,,,,296.5896,297.7148,l,1,0.4651,,[],[],[],[],[],[],[],0.4651,1,297.7149,298.2143,,,,,,713,MAS,DIS,150,carro,la,l,298.2152,298.2158,-0.036111125,-0.415740755,0,0,0,,0,146,146,262,1,,,,
,,,,,,3924af121fde90480b17e717,66a626ef09d4e21e1a8894ec,6735c433d54f0deb06ffda18,2024-11-14_10h35.12.661,Tarea de género gramatical,2024.2.2,Win32,70.92198582,,,,,,,,,,,,,,,,,,,,,,,298.2165,299.2207,a,1,0.3478,,[],[],[],[],[],[],[],0.3478,1,299.2207,299.7202,,,,,,865,FEM,CON,150,cabina,,a,299.7202,299.7203,-0.036111125,-0.415740755,0,0,0,,0,147,147,414,1,,,,
,,,,,,3924af121fde90480b17e717,66a626ef09d4e21e1a8894ec,6735c433d54f0deb06ffda18,2024-11-14_10h35.12.661,Tarea de género gramatical,2024.2.2,Win32,70.92198582,,,,,,,,,,,,,,,,,,,,,,,299.7211,300.7185,a,1,0.3401,,[],[],[],[],[],[],[],0.3401,1,300.7187,301.2141,,,,,,651,FEM,AGR,150,leche,la,a,301.2144,301.2145,-0.036111125,-0.415740755,0,0,0,,0,148,148,200,1,,,,
,,,,,,3924af121fde90480b17e717,66a626ef09d4e21e1a8894ec,6735c433d54f0deb06ffda18,2024-11-14_10h35.12.661,Tarea de género gramatical,2024.2.2,Win32,70.92198582,,,,,,,,,,,,,,,,,,,,,,,301.2158,302.2963,a,1,0.4239,,[],[],[],[],[],[],[],0.4239,1,302.2964,302.7927,,,,,,818,FEM,DIS,150,gracia,el,a,302.7928,302.7928,-0.036111125,-0.415740755,0,0,0,,0,149,149,367,1,,,,
,,,,,,3924af121fde90480b17e717,66a626ef09d4e21e1a8894ec,6735c433d54f0deb06ffda18,2024-11-14_10h35.12.661,Tarea de género gramatical,2024.2.2,Win32,70.92198582,,,,,,,,,,,,,,,,,,,,,,,302.7935,303.7485,l,1,0.2968,,[],[],[],[],[],[],[],0.2968,1,303.7487,304.2479,,,,,,857,MAS,DIS,150,jurado,la,l,304.2487,346.1283,-0.036111125,-0.415740755,0,0,0,space,0,150,150,406,1,41.8686,,,
,,,,,,3924af121fde90480b17e717,66a626ef09d4e21e1a8894ec,6735c433d54f0deb06ffda18,2024-11-14_10h35.12.661,Tarea de género gramatical,2024.2.2,Win32,70.92198582,,,,,,,,,,,,,,,,,,,,,,,346.129,347.4347,l,1,0.6466,,[],[],[],[],[],[],[],0.6466,1,347.4348,347.9407,,,,,,756,MAS,AGR,150,dinero,el,l,347.9408,347.9408,-0.036111125,-0.415740755,0,0,0,,0,151,151,305,1,,,,
,,,,,,3924af121fde90480b17e717,66a626ef09d4e21e1a8894ec,6735c433d54f0deb06ffda18,2024-11-14_10h35.12.661,Tarea de género gramatical,2024.2.2,Win32,70.92198582,,,,,,,,,,,,,,,,,,,,,,,347.9417,348.9604,l,1,0.3609,,[],[],[],[],[],[],[],0.3609,1,348.9605,349.4569,,,,,,689,MAS,DIS,150,reloj,la,l,349.4571,349.4572,-0.036111125,-0.415740755,0,0,0,,0,152,152,238,1,,,,
,,,,,,3924af121fde90480b17e717,66a626ef09d4e21e1a8894ec,6735c433d54f0deb06ffda18,2024-11-14_10h35.12.661,Tarea de género gramatical,2024.2.2,Win32,70.92198582,,,,,,,,,,,,,,,,,,,,,,,349.4584,350.5077,a,1,0.3893,,[],[],[],[],[],[],[],0.3893,1,350.5077,351.0064,,,,,,567,FEM,AGR,150,raya,la,a,351.0064,351.0066,-0.036111125,-0.415740755,0,0,0,,0,153,153,116,1,,,,
,,,,,,3924af121fde90480b17e717,66a626ef09d4e21e1a8894ec,6735c433d54f0deb06ffda18,2024-11-14_10h35.12.661,Tarea de género gramatical,2024.2.2,Win32,70.92198582,,,,,,,,,,,,,,,,,,,,,,,351.0071,352.0859,l,1,0.4227,,[],[],[],[],[],[],[],0.4227,1,352.0861,352.5884,,,,,,598,MAS,CON,150,surf,,l,352.5884,352.5884,-0.036111125,-0.415740755,0,0,0,,0,154,154,147,1,,,,
,,,,,,3924af121fde90480b17e717,66a626ef09d4e21e1a8894ec,6735c433d54f0deb06ffda18,2024-11-14_10h35.12.661,Tarea de género gramatical,2024.2.2,Win32,70.92198582,,,,,,,,,,,,,,,,,,,,,,,352.5891,353.5552,a,1,0.3077,,[],[],[],[],[],[],[],0.3077,1,353.5554,354.0569,,,,,,770,FEM,DIS,150,fiesta,el,a,354.0577,354.0583,-0.036111125,-0.415740755,0,0,0,,0,155,155,319,1,,,,
,,,,,,3924af121fde90480b17e717,66a626ef09d4e21e1a8894ec,6735c433d54f0deb06ffda18,2024-11-14_10h35.12.661,Tarea de género gramatical,2024.2.2,Win32,70.92198582,,,,,,,,,,,,,,,,,,,,,,,354.0587,355.0204,a,1,0.3049,,[],[],[],[],[],[],[],0.3049,1,355.0206,355.5192,,,,,,687,FEM,AGR,150,ducha,la,a,355.5193,355.5195,-0.036111125,-0.415740755,0,0,0,,0,156,156,236,1,,,,
,,,,,,3924af121fde90480b17e717,66a626ef09d4e21e1a8894ec,6735c433d54f0deb06ffda18,2024-11-14_10h35.12.661,Tarea de género gramatical,2024.2.2,Win32,70.92198582,,,,,,,,,,,,,,,,,,,,,,,355.5203,356.4735,l,1,0.2926,,[],[],[],[],[],[],[],0.2926,1,356.4735,356.9725,,,,,,700,MAS,CON,150,cerdo,,l,356.9725,356.9726,-0.036111125,-0.415740755,0,0,0,,0,157,157,249,1,,,,
,,,,,,3924af121fde90480b17e717,66a626ef09d4e21e1a8894ec,6735c433d54f0deb06ffda18,2024-11-14_10h35.12.661,Tarea de género gramatical,2024.2.2,Win32,70.92198582,,,,,,,,,,,,,,,,,,,,,,,356.9735,357.9337,l,1,0.3006,,[],[],[],[],[],[],[],0.3006,1,357.9339,358.4321,,,,,,852,MAS,AGR,150,ladrón,el,l,358.4321,358.4321,-0.036111125,-0.415740755,0,0,0,,0,158,158,401,1,,,,
,,,,,,3924af121fde90480b17e717,66a626ef09d4e21e1a8894ec,6735c433d54f0deb06ffda18,2024-11-14_10h35.12.661,Tarea de género gramatical,2024.2.2,Win32,70.92198582,,,,,,,,,,,,,,,,,,,,,,,358.4331,359.4412,l,1,0.3507,,[],[],[],[],[],[],[],0.3507,1,359.4414,359.9383,,,,,,712,MAS,CON,150,video,,l,359.9396,359.9404,-0.036111125,-0.415740755,0,0,0,,0,159,159,261,1,,,,
,,,,,,3924af121fde90480b17e717,66a626ef09d4e21e1a8894ec,6735c433d54f0deb06ffda18,2024-11-14_10h35.12.661,Tarea de género gramatical,2024.2.2,Win32,70.92198582,,,,,,,,,,,,,,,,,,,,,,,359.9414,361.0127,a,0,0.4084,,[],[],[],[],[],[],[],0.4084,0,361.0133,361.513,,,,,,743,MAS,DIS,150,patio,la,l,361.5131,361.5133,-0.036111125,-0.415740755,0,0,0,,0,160,160,292,1,,,,
,,,,,,3924af121fde90480b17e717,66a626ef09d4e21e1a8894ec,6735c433d54f0deb06ffda18,2024-11-14_10h35.12.661,Tarea de género gramatical,2024.2.2,Win32,70.92198582,,,,,,,,,,,,,,,,,,,,,,,361.5155,362.8112,l,1,0.6326,,[],[],[],[],[],[],[],0.6326,1,362.8124,363.3092,,,,,,539,MAS,DIS,150,maíz,la,l,363.3092,363.3093,-0.036111125,-0.415740755,0,0,0,,0,161,161,88,1,,,,
,,,,,,3924af121fde90480b17e717,66a626ef09d4e21e1a8894ec,6735c433d54f0deb06ffda18,2024-11-14_10h35.12.661,Tarea de género gramatical,2024.2.2,Win32,70.92198582,,,,,,,,,,,,,,,,,,,,,,,363.3108,364.3148,a,1,0.3471,,[],[],[],[],[],[],[],0.3471,1,364.3149,364.8157,,,,,,878,FEM,DIS,150,jugada,el,a,364.8159,364.816,-0.036111125,-0.415740755,0,0,0,,0,162,162,427,1,,,,
,,,,,,3924af121fde90480b17e717,66a626ef09d4e21e1a8894ec,6735c433d54f0deb06ffda18,2024-11-14_10h35.12.661,Tarea de género gramatical,2024.2.2,Win32,70.92198582,,,,,,,,,,,,,,,,,,,,,,,364.8173,365.7933,l,1,0.3196,,[],[],[],[],[],[],[],0.3196,1,365.7934,366.2941,,,,,,660,MAS,AGR,150,baile,el,l,366.2941,366.2943,-0.036111125,-0.415740755,0,0,0,,0,163,163,209,1,,,,
,,,,,,3924af121fde90480b17e717,66a626ef09d4e21e1a8894ec,6735c433d54f0deb06ffda18,2024-11-14_10h35.12.661,Tarea de género gramatical,2024.2.2,Win32,70.92198582,,,,,,,,,,,,,,,,,,,,,,,366.2954,367.2365,l,1,0.2854,,[],[],[],[],[],[],[],0.2854,1,367.2366,367.7353,,,,,,647,MAS,DIS,150,avión,la,l,367.7373,367.7381,-0.036111125,-0.415740755,0,0,0,,0,164,164,196,1,,,,
,,,,,,3924af121fde90480b17e717,66a626ef09d4e21e1a8894ec,6735c433d54f0deb06ffda18,2024-11-14_10h35.12.661,Tarea de género gramatical,2024.2.2,Win32,70.92198582,,,,,,,,,,,,,,,,,,,,,,,367.7387,368.8673,a,1,0.4666,,[],[],[],[],[],[],[],0.4666,1,368.8674,369.3657,,,,,,873,FEM,AGR,150,poesía,la,a,369.3657,369.3658,-0.036111125,-0.415740755,0,0,0,,0,165,165,422,1,,,,
,,,,,,3924af121fde90480b17e717,66a626ef09d4e21e1a8894ec,6735c433d54f0deb06ffda18,2024-11-14_10h35.12.661,Tarea de género gramatical,2024.2.2,Win32,70.92198582,,,,,,,,,,,,,,,,,,,,,,,369.3672,370.3924,l,1,0.369,,[],[],[],[],[],[],[],0.369,1,370.3924,370.8916,,,,,,468,MAS,AGR,150,tren,el,l,370.8917,370.8917,-0.036111125,-0.415740755,0,0,0,,0,166,166,17,1,,,,
,,,,,,3924af121fde90480b17e717,66a626ef09d4e21e1a8894ec,6735c433d54f0deb06ffda18,2024-11-14_10h35.12.661,Tarea de género gramatical,2024.2.2,Win32,70.92198582,,,,,,,,,,,,,,,,,,,,,,,370.8929,372.031,a,1,0.4804,,[],[],[],[],[],[],[],0.4804,1,372.0312,372.5287,,,,,,679,FEM,CON,150,celda,,a,372.5288,372.5289,-0.036111125,-0.415740755,0,0,0,,0,167,167,228,1,,,,
,,,,,,3924af121fde90480b17e717,66a626ef09d4e21e1a8894ec,6735c433d54f0deb06ffda18,2024-11-14_10h35.12.661,Tarea de género gramatical,2024.2.2,Win32,70.92198582,,,,,,,,,,,,,,,,,,,,,,,372.53,373.6663,a,1,0.4797,,[],[],[],[],[],[],[],0.4797,1,373.6664,374.1658,,,,,,481,FEM,CON,150,edad,,a,374.1668,374.1676,-0.036111125,-0.415740755,0,0,0,,0,168,168,30,1,,,,
,,,,,,3924af121fde90480b17e717,66a626ef09d4e21e1a8894ec,6735c433d54f0deb06ffda18,2024-11-14_10h35.12.661,Tarea de género gramatical,2024.2.2,Win32,70.92198582,,,,,,,,,,,,,,,,,,,,,,,374.1686,375.1164,a,1,0.29,,[],[],[],[],[],[],[],0.29,1,375.1165,375.6158,,,,,,469,FEM,CON,150,niña,,a,375.6158,375.6158,-0.036111125,-0.415740755,0,0,0,,0,169,169,18,1,,,,
,,,,,,3924af121fde90480b17e717,66a626ef09d4e21e1a8894ec,6735c433d54f0deb06ffda18,2024-11-14_10h35.12.661,Tarea de género gramatical,2024.2.2,Win32,70.92198582,,,,,,,,,,,,,,,,,,,,,,,375.6171,376.7411,a,1,0.4663,,[],[],[],[],[],[],[],0.4663,1,376.7412,377.2402,,,,,,897,FEM,AGR,150,lógica,la,a,377.2403,377.2404,-0.036111125,-0.415740755,0,0,0,,0,170,170,446,1,,,,
,,,,,,3924af121fde90480b17e717,66a626ef09d4e21e1a8894ec,6735c433d54f0deb06ffda18,2024-11-14_10h35.12.661,Tarea de género gramatical,2024.2.2,Win32,70.92198582,,,,,,,,,,,,,,,,,,,,,,,377.2419,378.2814,a,1,0.3827,,[],[],[],[],[],[],[],0.3827,1,378.2815,378.7796,,,,,,626,FEM,DIS,150,línea,el,a,378.7797,378.7798,-0.036111125,-0.415740755,0,0,0,,0,171,171,175,1,,,,
,,,,,,3924af121fde90480b17e717,66a626ef09d4e21e1a8894ec,6735c433d54f0deb06ffda18,2024-11-14_10h35.12.661,Tarea de género gramatical,2024.2.2,Win32,70.92198582,,,,,,,,,,,,,,,,,,,,,,,378.7816,379.7161,l,1,0.2776,,[],[],[],[],[],[],[],0.2776,1,379.7161,380.2154,,,,,,832,MAS,CON,150,teatro,,l,380.2154,380.2155,-0.036111125,-0.415740755,0,0,0,,0,172,172,381,1,,,,
,,,,,,3924af121fde90480b17e717,66a626ef09d4e21e1a8894ec,6735c433d54f0deb06ffda18,2024-11-14_10h35.12.661,Tarea de género gramatical,2024.2.2,Win32,70.92198582,,,,,,,,,,,,,,,,,,,,,,,380.2168,381.1957,l,1,0.3212,,[],[],[],[],[],[],[],0.3212,1,381.1958,381.6929,,,,,,526,MAS,CON,150,lujo,,l,381.6939,381.6948,-0.036111125,-0.415740755,0,0,0,,0,173,173,75,1,,,,
,,,,,,3924af121fde90480b17e717,66a626ef09d4e21e1a8894ec,6735c433d54f0deb06ffda18,2024-11-14_10h35.12.661,Tarea de género gramatical,2024.2.2,Win32,70.92198582,,,,,,,,,,,,,,,,,,,,,,,381.6954,382.7825,a,1,0.4249,,[],[],[],[],[],[],[],0.4249,1,382.7827,383.2818,,,,,,879,FEM,AGR,150,fianza,la,a,383.2818,383.2819,-0.036111125,-0.415740755,0,0,0,,0,174,174,428,1,,,,
,,,,,,3924af121fde90480b17e717,66a626ef09d4e21e1a8894ec,6735c433d54f0deb06ffda18,2024-11-14_10h35.12.661,Tarea de género gramatical,2024.2.2,Win32,70.92198582,,,,,,,,,,,,,,,,,,,,,,,383.2834,384.2749,l,1,0.3338,,[],[],[],[],[],[],[],0.3338,1,384.2749,384.7732,,,,,,677,MAS,DIS,150,vuelo,la,l,384.7733,384.7734,-0.036111125,-0.415740755,0,0,0,,0,175,175,226,1,,,,
,,,,,,3924af121fde90480b17e717,66a626ef09d4e21e1a8894ec,6735c433d54f0deb06ffda18,2024-11-14_10h35.12.661,Tarea de género gramatical,2024.2.2,Win32,70.92198582,,,,,,,,,,,,,,,,,,,,,,,384.7742,385.848,a,1,0.4164,,[],[],[],[],[],[],[],0.4164,1,385.848,386.3484,,,,,,758,FEM,DIS,150,semana,el,a,386.3485,386.3485,-0.036111125,-0.415740755,0,0,0,,0,176,176,307,1,,,,
,,,,,,3924af121fde90480b17e717,66a626ef09d4e21e1a8894ec,6735c433d54f0deb06ffda18,2024-11-14_10h35.12.661,Tarea de género gramatical,2024.2.2,Win32,70.92198582,,,,,,,,,,,,,,,,,,,,,,,386.3504,387.3405,l,1,0.3349,,[],[],[],[],[],[],[],0.3349,1,387.3406,387.8393,,,,,,600,MAS,AGR,150,mozo,el,l,387.8402,387.841,-0.036111125,-0.415740755,0,0,0,,0,177,177,149,1,,,,
,,,,,,3924af121fde90480b17e717,66a626ef09d4e21e1a8894ec,6735c433d54f0deb06ffda18,2024-11-14_10h35.12.661,Tarea de género gramatical,2024.2.2,Win32,70.92198582,,,,,,,,,,,,,,,,,,,,,,,387.8418,389.033,a,1,0.5346,,[],[],[],[],[],[],[],0.5346,1,389.0332,389.532,,,,,,638,FEM,DIS,150,bomba,el,a,389.532,389.5321,-0.036111125,-0.415740755,0,0,0,,0,178,178,187,1,,,,
,,,,,,3924af121fde90480b17e717,66a626ef09d4e21e1a8894ec,6735c433d54f0deb06ffda18,2024-11-14_10h35.12.661,Tarea de género gramatical,2024.2.2,Win32,70.92198582,,,,,,,,,,,,,,,,,,,,,,,389.5332,390.4907,a,1,0.3,,[],[],[],[],[],[],[],0.3,1,390.4909,390.989,,,,,,769,FEM,CON,150,sangre,,a,390.9891,390.9891,-0.036111125,-0.415740755,0,0,0,,0,179,179,318,1,,,,
,,,,,,3924af121fde90480b17e717,66a626ef09d4e21e1a8894ec,6735c433d54f0deb06ffda18,2024-11-14_10h35.12.661,Tarea de género gramatical,2024.2.2,Win32,70.92198582,,,,,,,,,,,,,,,,,,,,,,,390.9905,391.9677,l,1,0.3204,,[],[],[],[],[],[],[],0.3204,1,391.9678,392.4671,,,,,,586,MAS,CON,150,vago,,l,392.4673,392.4674,-0.036111125,-0.415740755,0,0,0,,0,180,180,135,1,,,,
,,,,,,3924af121fde90480b17e717,66a626ef09d4e21e1a8894ec,6735c433d54f0deb06ffda18,2024-11-14_10h35.12.661,Tarea de género gramatical,2024.2.2,Win32,70.92198582,,,,,,,,,,,,,,,,,,,,,,,392.4689,393.5017,a,1,0.3763,,[],[],[],[],[],[],[],0.3763,1,393.5019,394.001,,,,,,734,FEM,DIS,150,fruta,el,a,394.0012,394.0013,-0.036111125,-0.415740755,0,0,0,,0,181,181,283,1,,,,
,,,,,,3924af121fde90480b17e717,66a626ef09d4e21e1a8894ec,6735c433d54f0deb06ffda18,2024-11-14_10h35.12.661,Tarea de género gramatical,2024.2.2,Win32,70.92198582,,,,,,,,,,,,,,,,,,,,,,,394.0027,394.992,a,1,0.3339,,[],[],[],[],[],[],[],0.3339,1,394.9921,395.4918,,,,,,465,FEM,AGR,150,cama,la,a,395.4931,395.494,-0.036111125,-0.415740755,0,0,0,,0,182,182,14,1,,,,
,,,,,,3924af121fde90480b17e717,66a626ef09d4e21e1a8894ec,6735c433d54f0deb06ffda18,2024-11-14_10h35.12.661,Tarea de género gramatical,2024.2.2,Win32,70.92198582,,,,,,,,,,,,,,,,,,,,,,,395.4946,396.4496,l,1,0.2986,,[],[],[],[],[],[],[],0.2986,1,396.4498,396.9486,,,,,,850,MAS,CON,150,barrio,,l,396.9487,396.9489,-0.036111125,-0.415740755,0,0,0,,0,183,183,399,1,,,,
,,,,,,3924af121fde90480b17e717,66a626ef09d4e21e1a8894ec,6735c433d54f0deb06ffda18,2024-11-14_10h35.12.661,Tarea de género gramatical,2024.2.2,Win32,70.92198582,,,,,,,,,,,,,,,,,,,,,,,396.9503,398.1491,l,1,0.5431,,[],[],[],[],[],[],[],0.5431,1,398.1492,398.6485,,,,,,875,MAS,DIS,150,chiste,la,l,398.6487,398.6487,-0.036111125,-0.415740755,0,0,0,,0,184,184,424,1,,,,
,,,,,,3924af121fde90480b17e717,66a626ef09d4e21e1a8894ec,6735c433d54f0deb06ffda18,2024-11-14_10h35.12.661,Tarea de género gramatical,2024.2.2,Win32,70.92198582,,,,,,,,,,,,,,,,,,,,,,,398.6504,399.6819,l,1,0.3755,,[],[],[],[],[],[],[],0.3755,1,399.6821,400.1812,,,,,,900,MAS,AGR,150,conejo,el,l,400.1813,400.1813,-0.036111125,-0.415740755,0,0,0,,0,185,185,449,1,,,,
,,,,,,3924af121fde90480b17e717,66a626ef09d4e21e1a8894ec,6735c433d54f0deb06ffda18,2024-11-14_10h35.12.661,Tarea de género gramatical,2024.2.2,Win32,70.92198582,,,,,,,,,,,,,,,,,,,,,,,400.1827,401.3389,l,1,0.4994,,[],[],[],[],[],[],[],0.4994,1,401.3391,401.8387,,,,,,694,MAS,CON,150,hielo,,l,401.8398,401.8407,-0.036111125,-0.415740755,0,0,0,,0,186,186,243,1,,,,
,,,,,,3924af121fde90480b17e717,66a626ef09d4e21e1a8894ec,6735c433d54f0deb06ffda18,2024-11-14_10h35.12.661,Tarea de género gramatical,2024.2.2,Win32,70.92198582,,,,,,,,,,,,,,,,,,,,,,,401.8413,402.8317,l,1,0.3278,,[],[],[],[],[],[],[],0.3278,1,402.8319,403.3307,,,,,,748,MAS,CON,150,botón,,l,403.3307,403.3308,-0.036111125,-0.415740755,0,0,0,,0,187,187,297,1,,,,
,,,,,,3924af121fde90480b17e717,66a626ef09d4e21e1a8894ec,6735c433d54f0deb06ffda18,2024-11-14_10h35.12.661,Tarea de género gramatical,2024.2.2,Win32,70.92198582,,,,,,,,,,,,,,,,,,,,,,,403.3323,404.3222,a,1,0.3326,,[],[],[],[],[],[],[],0.3326,1,404.3223,404.822,,,,,,674,FEM,DIS,150,arena,el,a,404.822,404.8221,-0.036111125,-0.415740755,0,0,0,,0,188,188,223,1,,,,
,,,,,,3924af121fde90480b17e717,66a626ef09d4e21e1a8894ec,6735c433d54f0deb06ffda18,2024-11-14_10h35.12.661,Tarea de género gramatical,2024.2.2,Win32,70.92198582,,,,,,,,,,,,,,,,,,,,,,,404.8232,405.9553,a,1,0.4756,,[],[],[],[],[],[],[],0.4756,1,405.9555,406.452,,,,,,673,FEM,CON,150,plata,,a,406.4521,406.4522,-0.036111125,-0.415740755,0,0,0,,0,189,189,222,1,,,,
,,,,,,3924af121fde90480b17e717,66a626ef09d4e21e1a8894ec,6735c433d54f0deb06ffda18,2024-11-14_10h35.12.661,Tarea de género gramatical,2024.2.2,Win32,70.92198582,,,,,,,,,,,,,,,,,,,,,,,406.4531,407.584,a,1,0.4734,,[],[],[],[],[],[],[],0.4734,1,407.5841,408.0821,,,,,,825,FEM,AGR,150,cadena,la,a,408.0821,408.0822,-0.036111125,-0.415740755,0,0,0,,0,190,190,374,1,,,,
,,,,,,3924af121fde90480b17e717,66a626ef09d4e21e1a8894ec,6735c433d54f0deb06ffda18,2024-11-14_10h35.12.661,Tarea de género gramatical,2024.2.2,Win32,70.92198582,,,,,,,,,,,,,,,,,,,,,,,408.0834,409.1168,a,1,0.3761,,[],[],[],[],[],[],[],0.3761,1,409.1169,409.6157,,,,,,805,FEM,CON,150,mirada,,a,409.617,409.6178,-0.036111125,-0.415740755,0,0,0,,0,191,191,354,1,,,,
,,,,,,3924af121fde90480b17e717,66a626ef09d4e21e1a8894ec,6735c433d54f0deb06ffda18,2024-11-14_10h35.12.661,Tarea de género gramatical,2024.2.2,Win32,70.92198582,,,,,,,,,,,,,,,,,,,,,,,409.6186,410.5812,a,1,0.2995,,[],[],[],[],[],[],[],0.2995,1,410.5814,411.0799,,,,,,506,FEM,DIS,150,bola,el,a,411.0799,411.08,-0.036111125,-0.415740755,0,0,0,,0,192,192,55,1,,,,
,,,,,,3924af121fde90480b17e717,66a626ef09d4e21e1a8894ec,6735c433d54f0deb06ffda18,2024-11-14_10h35.12.661,Tarea de género gramatical,2024.2.2,Win32,70.92198582,,,,,,,,,,,,,,,,,,,,,,,411.0814,412.0441,a,1,0.3069,,[],[],[],[],[],[],[],0.3069,1,412.0442,412.5436,,,,,,578,FEM,DIS,150,leña,el,a,412.5437,412.5437,-0.036111125,-0.415740755,0,0,0,,0,193,193,127,1,,,,
,,,,,,3924af121fde90480b17e717,66a626ef09d4e21e1a8894ec,6735c433d54f0deb06ffda18,2024-11-14_10h35.12.661,Tarea de género gramatical,2024.2.2,Win32,70.92198582,,,,,,,,,,,,,,,,,,,,,,,412.545,413.4799,l,1,0.2792,,[],[],[],[],[],[],[],0.2792,1,413.48,413.9788,,,,,,767,MAS,DIS,150,número,la,l,413.9788,413.9789,-0.036111125,-0.415740755,0,0,0,,0,194,194,316,1,,,,
,,,,,,3924af121fde90480b17e717,66a626ef09d4e21e1a8894ec,6735c433d54f0deb06ffda18,2024-11-14_10h35.12.661,Tarea de género gramatical,2024.2.2,Win32,70.92198582,,,,,,,,,,,,,,,,,,,,,,,413.9798,414.9721,l,1,0.3341,,[],[],[],[],[],[],[],0.3341,1,414.9722,415.4707,,,,,,533,MAS,DIS,150,nene,la,l,415.4718,415.4727,-0.036111125,-0.415740755,0,0,0,,0,195,195,82,1,,,,
,,,,,,3924af121fde90480b17e717,66a626ef09d4e21e1a8894ec,6735c433d54f0deb06ffda18,2024-11-14_10h35.12.661,Tarea de género gramatical,2024.2.2,Win32,70.92198582,,,,,,,,,,,,,,,,,,,,,,,415.4735,416.4211,l,1,0.2841,,[],[],[],[],[],[],[],0.2841,1,416.4213,416.9204,,,,,,864,MAS,AGR,150,sótano,el,l,416.9204,416.9205,-0.036111125,-0.415740755,0,0,0,,0,196,196,413,1,,,,
,,,,,,3924af121fde90480b17e717,66a626ef09d4e21e1a8894ec,6735c433d54f0deb06ffda18,2024-11-14_10h35.12.661,Tarea de género gramatical,2024.2.2,Win32,70.92198582,,,,,,,,,,,,,,,,,,,,,,,416.9217,417.8428,l,1,0.2628,,[],[],[],[],[],[],[],0.2628,1,417.8428,418.3426,,,,,,820,MAS,CON,150,seguro,,l,418.3426,418.3428,-0.036111125,-0.415740755,0,0,0,,0,197,197,369,1,,,,
,,,,,,3924af121fde90480b17e717,66a626ef09d4e21e1a8894ec,6735c433d54f0deb06ffda18,2024-11-14_10h35.12.661,Tarea de género gramatical,2024.2.2,Win32,70.92198582,,,,,,,,,,,,,,,,,,,,,,,418.3439,419.362,a,1,0.3603,,[],[],[],[],[],[],[],0.3603,1,419.3621,419.8627,,,,,,650,FEM,DIS,150,silla,el,a,419.8629,419.8629,-0.036111125,-0.415740755,0,0,0,,0,198,198,199,1,,,,
,,,,,,3924af121fde90480b17e717,66a626ef09d4e21e1a8894ec,6735c433d54f0deb06ffda18,2024-11-14_10h35.12.661,Tarea de género gramatical,2024.2.2,Win32,70.92198582,,,,,,,,,,,,,,,,,,,,,,,419.8643,420.7774,a,1,0.2571,,[],[],[],[],[],[],[],0.2571,1,420.7775,421.277,,,,,,807,FEM,AGR,150,lengua,la,a,421.2771,421.2772,-0.036111125,-0.415740755,0,0,0,,0,199,199,356,1,,,,
,,,,,,3924af121fde90480b17e717,66a626ef09d4e21e1a8894ec,6735c433d54f0deb06ffda18,2024-11-14_10h35.12.661,Tarea de género gramatical,2024.2.2,Win32,70.92198582,,,,,,,,,,,,,,,,,,,,,,,421.2784,422.2634,l,1,0.3229,,[],[],[],[],[],[],[],0.3229,1,422.2635,422.7592,,,,,,503,MAS,DIS,150,vaso,la,l,422.76,422.7604,-0.036111125,-0.415740755,0,0,0,,0,200,200,52,1,,,,
,,,,,,3924af121fde90480b17e717,66a626ef09d4e21e1a8894ec,6735c433d54f0deb06ffda18,2024-11-14_10h35.12.661,Tarea de género gramatical,2024.2.2,Win32,70.92198582,,,,,,,,,,,,,,,,,,,,,,,422.7615,423.7927,a,1,0.3773,,[],[],[],[],[],[],[],0.3773,1,423.7927,424.2899,,,,,,464,FEM,DIS,150,cara,el,a,424.2899,424.2901,-0.036111125,-0.415740755,0,0,0,,0,201,201,13,1,,,,
,,,,,,3924af121fde90480b17e717,66a626ef09d4e21e1a8894ec,6735c433d54f0deb06ffda18,2024-11-14_10h35.12.661,Tarea de género gramatical,2024.2.2,Win32,70.92198582,,,,,,,,,,,,,,,,,,,,,,,424.2907,425.3194,l,1,0.3709,,[],[],[],[],[],[],[],0.3709,1,425.3195,425.8187,,,,,,534,MAS,AGR,150,mago,el,l,425.8188,425.8189,-0.036111125,-0.415740755,0,0,0,,0,202,202,83,1,,,,
,,,,,,3924af121fde90480b17e717,66a626ef09d4e21e1a8894ec,6735c433d54f0deb06ffda18,2024-11-14_10h35.12.661,Tarea de género gramatical,2024.2.2,Win32,70.92198582,,,,,,,,,,,,,,,,,,,,,,,425.8195,426.9606,l,1,0.476,,[],[],[],[],[],[],[],0.476,1,426.9607,427.4579,,,,,,682,MAS,CON,150,calor,,l,427.4581,427.4582,-0.036111125,-0.415740755,0,0,0,,0,203,203,231,1,,,,
,,,,,,3924af121fde90480b17e717,66a626ef09d4e21e1a8894ec,6735c433d54f0deb06ffda18,2024-11-14_10h35.12.661,Tarea de género gramatical,2024.2.2,Win32,70.92198582,,,,,,,,,,,,,,,,,,,,,,,427.4599,428.5242,a,1,0.4036,,[],[],[],[],[],[],[],0.4036,1,428.5243,429.0204,,,,,,783,FEM,AGR,150,locura,la,a,429.0218,429.0222,-0.036111125,-0.415740755,0,0,0,,0,204,204,332,1,,,,
,,,,,,3924af121fde90480b17e717,66a626ef09d4e21e1a8894ec,6735c433d54f0deb06ffda18,2024-11-14_10h35.12.661,Tarea de género gramatical,2024.2.2,Win32,70.92198582,,,,,,,,,,,,,,,,,,,,,,,429.0227,430.0366,l,1,0.3549,,[],[],[],[],[],[],[],0.3549,1,430.0367,430.5358,,,,,,527,MAS,DIS,150,pico,la,l,430.5358,430.5359,-0.036111125,-0.415740755,0,0,0,,0,205,205,76,1,,,,
,,,,,,3924af121fde90480b17e717,66a626ef09d4e21e1a8894ec,6735c433d54f0deb06ffda18,2024-11-14_10h35.12.661,Tarea de género gramatical,2024.2.2,Win32,70.92198582,,,,,,,,,,,,,,,,,,,,,,,430.5366,431.5425,l,1,0.3515,,[],[],[],[],[],[],[],0.3515,1,431.5425,432.0407,,,,,,490,MAS,CON,150,dios,,l,432.0407,432.0408,-0.036111125,-0.415740755,0,0,0,,0,206,206,39,1,,,,
,,,,,,3924af121fde90480b17e717,66a626ef09d4e21e1a8894ec,6735c433d54f0deb06ffda18,2024-11-14_10h35.12.661,Tarea de género gramatical,2024.2.2,Win32,70.92198582,,,,,,,,,,,,,,,,,,,,,,,432.0416,433.0875,a,1,0.3851,,[],[],[],[],[],[],[],0.3851,1,433.0875,433.5842,,,,,,603,FEM,AGR,150,mujer,la,a,433.5843,433.5845,-0.036111125,-0.415740755,0,0,0,,0,207,207,152,1,,,,
,,,,,,3924af121fde90480b17e717,66a626ef09d4e21e1a8894ec,6735c433d54f0deb06ffda18,2024-11-14_10h35.12.661,Tarea de género gramatical,2024.2.2,Win32,70.92198582,,,,,,,,,,,,,,,,,,,,,,,433.5854,434.7881,a,1,0.5446,,[],[],[],[],[],[],[],0.5446,1,434.7882,435.2837,,,,,,632,FEM,DIS,150,prisa,el,a,435.2839,435.2841,-0.036111125,-0.415740755,0,0,0,,0,208,208,181,1,,,,
,,,,,,3924af121fde90480b17e717,66a626ef09d4e21e1a8894ec,6735c433d54f0deb06ffda18,2024-11-14_10h35.12.661,Tarea de género gramatical,2024.2.2,Win32,70.92198582,,,,,,,,,,,,,,,,,,,,,,,435.285,436.3354,a,1,0.3886,,[],[],[],[],[],[],[],0.3886,1,436.3355,436.8347,,,,,,597,FEM,AGR,150,grúa,la,a,436.8354,436.8359,-0.036111125,-0.415740755,0,0,0,,0,209,209,146,1,,,,
,,,,,,3924af121fde90480b17e717,66a626ef09d4e21e1a8894ec,6735c433d54f0deb06ffda18,2024-11-14_10h35.12.661,Tarea de género gramatical,2024.2.2,Win32,70.92198582,,,,,,,,,,,,,,,,,,,,,,,436.8363,437.91,a,1,0.4104,,[],[],[],[],[],[],[],0.4104,1,437.9101,438.4073,,,,,,621,FEM,AGR,150,mitad,la,a,438.4074,438.4074,-0.036111125,-0.415740755,0,0,0,,0,210,210,170,1,,,,
,,,,,,3924af121fde90480b17e717,66a626ef09d4e21e1a8894ec,6735c433d54f0deb06ffda18,2024-11-14_10h35.12.661,Tarea de género gramatical,2024.2.2,Win32,70.92198582,,,,,,,,,,,,,,,,,,,,,,,438.4082,439.3807,l,1,0.3167,,[],[],[],[],[],[],[],0.3167,1,439.3807,439.8801,,,,,,520,MAS,CON,150,palo,,l,439.8801,439.8801,-0.036111125,-0.415740755,0,0,0,,0,211,211,69,1,,,,
,,,,,,3924af121fde90480b17e717,66a626ef09d4e21e1a8894ec,6735c433d54f0deb06ffda18,2024-11-14_10h35.12.661,Tarea de género gramatical,2024.2.2,Win32,70.92198582,,,,,,,,,,,,,,,,,,,,,,,439.8808,440.885,l,1,0.3462,,[],[],[],[],[],[],[],0.3462,1,440.8852,441.386,,,,,,780,MAS,AGR,150,estado,el,l,441.386,441.3861,-0.036111125,-0.415740755,0,0,0,,0,212,212,329,1,,,,
,,,,,,3924af121fde90480b17e717,66a626ef09d4e21e1a8894ec,6735c433d54f0deb06ffda18,2024-11-14_10h35.12.661,Tarea de género gramatical,2024.2.2,Win32,70.92198582,,,,,,,,,,,,,,,,,,,,,,,441.387,442.3919,a,1,0.3475,,[],[],[],[],[],[],[],0.3475,1,442.3919,442.8869,,,,,,542,FEM,DIS,150,masa,el,a,442.8883,442.8889,-0.036111125,-0.415740755,0,0,0,,0,213,213,91,1,,,,
,,,,,,3924af121fde90480b17e717,66a626ef09d4e21e1a8894ec,6735c433d54f0deb06ffda18,2024-11-14_10h35.12.661,Tarea de género gramatical,2024.2.2,Win32,70.92198582,,,,,,,,,,,,,,,,,,,,,,,442.8892,443.9983,a,1,0.4484,,[],[],[],[],[],[],[],0.4484,1,443.9985,444.4965,,,,,,789,FEM,AGR,150,salida,la,a,444.4966,444.497,-0.036111125,-0.415740755,0,0,0,,0,214,214,338,1,,,,
,,,,,,3924af121fde90480b17e717,66a626ef09d4e21e1a8894ec,6735c433d54f0deb06ffda18,2024-11-14_10h35.12.661,Tarea de género gramatical,2024.2.2,Win32,70.92198582,,,,,,,,,,,,,,,,,,,,,,,444.4979,445.6383,l,1,0.4834,,[],[],[],[],[],[],[],0.4834,1,445.6383,446.137,,,,,,538,MAS,CON,150,pavo,,l,446.1371,446.1371,-0.036111125,-0.415740755,0,0,0,,0,215,215,87,1,,,,
,,,,,,3924af121fde90480b17e717,66a626ef09d4e21e1a8894ec,6735c433d54f0deb06ffda18,2024-11-14_10h35.12.661,Tarea de género gramatical,2024.2.2,Win32,70.92198582,,,,,,,,,,,,,,,,,,,,,,,446.1379,447.1368,a,1,0.3336,,[],[],[],[],[],[],[],0.3336,1,447.1369,447.6363,,,,,,619,FEM,CON,150,vista,,a,447.6364,447.6364,-0.036111125,-0.415740755,0,0,0,,0,216,216,168,1,,,,
,,,,,,3924af121fde90480b17e717,66a626ef09d4e21e1a8894ec,6735c433d54f0deb06ffda18,2024-11-14_10h35.12.661,Tarea de género gramatical,2024.2.2,Win32,70.92198582,,,,,,,,,,,,,,,,,,,,,,,447.6372,448.5871,a,1,0.2927,,[],[],[],[],[],[],[],0.2927,1,448.5872,449.0864,,,,,,525,FEM,AGR,150,caza,la,a,449.0865,449.0865,-0.036111125,-0.415740755,0,0,0,,0,217,217,74,1,,,,
,,,,,,3924af121fde90480b17e717,66a626ef09d4e21e1a8894ec,6735c433d54f0deb06ffda18,2024-11-14_10h35.12.661,Tarea de género gramatical,2024.2.2,Win32,70.92198582,,,,,,,,,,,,,,,,,,,,,,,449.0874,450.0921,a,1,0.3412,,[],[],[],[],[],[],[],0.3412,1,450.0922,450.5913,,,,,,584,FEM,DIS,150,rama,el,a,450.5921,450.5926,-0.036111125,-0.415740755,0,0,0,,0,218,218,133,1,,,,
,,,,,,3924af121fde90480b17e717,66a626ef09d4e21e1a8894ec,6735c433d54f0deb06ffda18,2024-11-14_10h35.12.661,Tarea de género gramatical,2024.2.2,Win32,70.92198582,,,,,,,,,,,,,,,,,,,,,,,450.5929,451.5192,l,0,0.2616,,[],[],[],[],[],[],[],0.2616,0,451.5199,452.0208,,,,,,685,FEM,CON,150,torre,,a,452.0208,452.0208,-0.036111125,-0.415740755,0,0,0,,0,219,219,234,1,,,,
,,,,,,3924af121fde90480b17e717,66a626ef09d4e21e1a8894ec,6735c433d54f0deb06ffda18,2024-11-14_10h35.12.661,Tarea de género gramatical,2024.2.2,Win32,70.92198582,,,,,,,,,,,,,,,,,,,,,,,452.0215,453.1166,l,1,0.4389,,[],[],[],[],[],[],[],0.4389,1,453.1172,453.6166,,,,,,666,MAS,AGR,150,éxito,el,l,453.6166,453.6167,-0.036111125,-0.415740755,0,0,0,,0,220,220,215,1,,,,
,,,,,,3924af121fde90480b17e717,66a626ef09d4e21e1a8894ec,6735c433d54f0deb06ffda18,2024-11-14_10h35.12.661,Tarea de género gramatical,2024.2.2,Win32,70.92198582,,,,,,,,,,,,,,,,,,,,,,,453.6173,454.8283,l,1,0.5536,,[],[],[],[],[],[],[],0.5536,1,454.8284,455.3271,,,,,,898,MAS,CON,150,aceite,,l,455.3272,455.3272,-0.036111125,-0.415740755,0,0,0,,0,221,221,447,1,,,,
,,,,,,3924af121fde90480b17e717,66a626ef09d4e21e1a8894ec,6735c433d54f0deb06ffda18,2024-11-14_10h35.12.661,Tarea de género gramatical,2024.2.2,Win32,70.92198582,,,,,,,,,,,,,,,,,,,,,,,455.328,456.3633,a,1,0.3757,,[],[],[],[],[],[],[],0.3757,1,456.3635,456.8609,,,,,,843,FEM,AGR,150,alarma,la,a,456.8621,456.8626,-0.036111125,-0.415740755,0,0,0,,0,222,222,392,1,,,,
,,,,,,3924af121fde90480b17e717,66a626ef09d4e21e1a8894ec,6735c433d54f0deb06ffda18,2024-11-14_10h35.12.661,Tarea de género gramatical,2024.2.2,Win32,70.92198582,,,,,,,,,,,,,,,,,,,,,,,456.863,458.0554,l,1,0.5265,,[],[],[],[],[],[],[],0.5265,1,458.0554,458.5527,,,,,,551,MAS,DIS,150,giro,la,l,458.5527,458.5528,-0.036111125,-0.415740755,0,0,0,,0,223,223,100,1,,,,
,,,,,,3924af121fde90480b17e717,66a626ef09d4e21e1a8894ec,6735c433d54f0deb06ffda18,2024-11-14_10h35.12.661,Tarea de género gramatical,2024.2.2,Win32,70.92198582,,,,,,,,,,,,,,,,,,,,,,,458.554,459.5888,l,1,0.3679,,[],[],[],[],[],[],[],0.3679,1,459.5889,460.0841,,,,,,640,MAS,CON,150,campo,,l,460.0841,460.0842,-0.036111125,-0.415740755,0,0,0,,0,224,224,189,1,,,,
,,,,,,3924af121fde90480b17e717,66a626ef09d4e21e1a8894ec,6735c433d54f0deb06ffda18,2024-11-14_10h35.12.661,Tarea de género gramatical,2024.2.2,Win32,70.92198582,,,,,,,,,,,,,,,,,,,,,,,460.0854,460.9529,l,1,0.2106,,[],[],[],[],[],[],[],0.2106,1,460.953,461.4508,,,,,,688,MAS,CON,150,norte,,l,461.4509,461.4509,-0.036111125,-0.415740755,0,0,0,,0,225,225,237,1,,,,
,,,,,,3924af121fde90480b17e717,66a626ef09d4e21e1a8894ec,6735c433d54f0deb06ffda18,2024-11-14_10h35.12.661,Tarea de género gramatical,2024.2.2,Win32,70.92198582,,,,,,,,,,,,,,,,,,,,,,,461.4523,462.4217,a,1,0.3132,,[],[],[],[],[],[],[],0.3132,1,462.4218,462.9216,,,,,,529,FEM,CON,150,mina,,a,462.9217,462.9217,-0.036111125,-0.415740755,0,0,0,,0,226,226,78,1,,,,
,,,,,,3924af121fde90480b17e717,66a626ef09d4e21e1a8894ec,6735c433d54f0deb06ffda18,2024-11-14_10h35.12.661,Tarea de género gramatical,2024.2.2,Win32,70.92198582,,,,,,,,,,,,,,,,,,,,,,,462.9229,463.9139,l,1,0.3326,,[],[],[],[],[],[],[],0.3326,1,463.9139,464.4128,,,,,,731,MAS,DIS,150,actor,la,l,464.4137,464.4149,-0.036111125,-0.415740755,0,0,0,,0,227,227,280,1,,,,
,,,,,,3924af121fde90480b17e717,66a626ef09d4e21e1a8894ec,6735c433d54f0deb06ffda18,2024-11-14_10h35.12.661,Tarea de género gramatical,2024.2.2,Win32,70.92198582,,,,,,,,,,,,,,,,,,,,,,,464.4155,465.3633,a,1,0.2912,,[],[],[],[],[],[],[],0.2912,1,465.3634,465.8628,,,,,,543,FEM,AGR,150,lata,la,a,465.8629,465.863,-0.036111125,-0.415740755,0,0,0,,0,228,228,92,1,,,,
,,,,,,3924af121fde90480b17e717,66a626ef09d4e21e1a8894ec,6735c433d54f0deb06ffda18,2024-11-14_10h35.12.661,Tarea de género gramatical,2024.2.2,Win32,70.92198582,,,,,,,,,,,,,,,,,,,,,,,465.8639,466.8684,l,1,0.3467,,[],[],[],[],[],[],[],0.3467,1,466.8684,467.3682,,,,,,846,MAS,AGR,150,tesoro,el,l,467.3683,467.3683,-0.036111125,-0.415740755,0,0,0,,0,229,229,395,1,,,,
,,,,,,3924af121fde90480b17e717,66a626ef09d4e21e1a8894ec,6735c433d54f0deb06ffda18,2024-11-14_10h35.12.661,Tarea de género gramatical,2024.2.2,Win32,70.92198582,,,,,,,,,,,,,,,,,,,,,,,467.3694,468.3745,a,1,0.347,,[],[],[],[],[],[],[],0.347,1,468.3746,468.8739,,,,,,511,FEM,CON,150,ruta,,a,468.874,468.874,-0.036111125,-0.415740755,0,0,0,,0,230,230,60,1,,,,
,,,,,,3924af121fde90480b17e717,66a626ef09d4e21e1a8894ec,6735c433d54f0deb06ffda18,2024-11-14_10h35.12.661,Tarea de género gramatical,2024.2.2,Win32,70.92198582,,,,,,,,,,,,,,,,,,,,,,,468.8752,469.8219,a,1,0.2871,,[],[],[],[],[],[],[],0.2871,1,469.8219,470.3193,,,,,,559,FEM,CON,150,gota,,a,470.3208,470.3213,-0.036111125,-0.415740755,0,0,0,,0,231,231,108,1,,,,
,,,,,,3924af121fde90480b17e717,66a626ef09d4e21e1a8894ec,6735c433d54f0deb06ffda18,2024-11-14_10h35.12.661,Tarea de género gramatical,2024.2.2,Win32,70.92198582,,,,,,,,,,,,,,,,,,,,,,,470.3217,471.2367,l,1,0.2502,,[],[],[],[],[],[],[],0.2502,1,471.2368,471.7365,,,,,,750,MAS,AGR,150,túnel,el,l,471.7365,471.7367,-0.036111125,-0.415740755,0,0,0,,0,232,232,299,1,,,,
,,,,,,3924af121fde90480b17e717,66a626ef09d4e21e1a8894ec,6735c433d54f0deb06ffda18,2024-11-14_10h35.12.661,Tarea de género gramatical,2024.2.2,Win32,70.92198582,,,,,,,,,,,,,,,,,,,,,,,471.7374,472.6593,l,1,0.2581,,[],[],[],[],[],[],[],0.2581,1,472.6593,473.1582,,,,,,611,MAS,DIS,150,chico,la,l,473.1582,473.1583,-0.036111125,-0.415740755,0,0,0,,0,233,233,160,1,,,,
,,,,,,3924af121fde90480b17e717,66a626ef09d4e21e1a8894ec,6735c433d54f0deb06ffda18,2024-11-14_10h35.12.661,Tarea de género gramatical,2024.2.2,Win32,70.92198582,,,,,,,,,,,,,,,,,,,,,,,473.1591,474.0031,a,1,0.1787,,[],[],[],[],[],[],[],0.1787,1,474.0032,474.5042,,,,,,819,FEM,AGR,150,camisa,la,a,474.5043,474.5043,-0.036111125,-0.415740755,0,0,0,,0,234,234,368,1,,,,
,,,,,,3924af121fde90480b17e717,66a626ef09d4e21e1a8894ec,6735c433d54f0deb06ffda18,2024-11-14_10h35.12.661,Tarea de género gramatical,2024.2.2,Win32,70.92198582,,,,,,,,,,,,,,,,,,,,,,,474.5051,475.5379,l,1,0.3696,,[],[],[],[],[],[],[],0.3696,1,475.5381,476.0368,,,,,,508,MAS,CON,150,mono,,l,476.0369,476.037,-0.036111125,-0.415740755,0,0,0,,0,235,235,57,1,,,,
,,,,,,3924af121fde90480b17e717,66a626ef09d4e21e1a8894ec,6735c433d54f0deb06ffda18,2024-11-14_10h35.12.661,Tarea de género gramatical,2024.2.2,Win32,70.92198582,,,,,,,,,,,,,,,,,,,,,,,476.0378,477.0274,l,1,0.3346,,[],[],[],[],[],[],[],0.3346,1,477.0276,477.5267,,,,,,616,MAS,CON,150,coche,,l,477.5282,477.5288,-0.036111125,-0.415740755,0,0,0,,0,236,236,165,1,,,,
,,,,,,3924af121fde90480b17e717,66a626ef09d4e21e1a8894ec,6735c433d54f0deb06ffda18,2024-11-14_10h35.12.661,Tarea de género gramatical,2024.2.2,Win32,70.92198582,,,,,,,,,,,,,,,,,,,,,,,477.5293,478.4838,a,1,0.2916,,[],[],[],[],[],[],[],0.2916,1,478.4839,478.9814,,,,,,680,FEM,DIS,150,regla,el,a,478.9815,478.9816,-0.036111125,-0.415740755,0,0,0,,0,237,237,229,1,,,,
,,,,,,3924af121fde90480b17e717,66a626ef09d4e21e1a8894ec,6735c433d54f0deb06ffda18,2024-11-14_10h35.12.661,Tarea de género gramatical,2024.2.2,Win32,70.92198582,,,,,,,,,,,,,,,,,,,,,,,478.9826,479.9499,a,1,0.3052,,[],[],[],[],[],[],[],0.3052,1,479.95,480.4564,,,,,,663,FEM,AGR,150,magia,la,a,480.4564,480.4564,-0.036111125,-0.415740755,0,0,0,,0,238,238,212,1,,,,
,,,,,,3924af121fde90480b17e717,66a626ef09d4e21e1a8894ec,6735c433d54f0deb06ffda18,2024-11-14_10h35.12.661,Tarea de género gramatical,2024.2.2,Win32,70.92198582,,,,,,,,,,,,,,,,,,,,,,,480.4572,481.3859,l,1,0.2716,,[],[],[],[],[],[],[],0.2716,1,481.386,481.8836,,,,,,562,MAS,CON,150,reto,,l,481.8839,481.8841,-0.036111125,-0.415740755,0,0,0,,0,239,239,111,1,,,,
,,,,,,3924af121fde90480b17e717,66a626ef09d4e21e1a8894ec,6735c433d54f0deb06ffda18,2024-11-14_10h35.12.661,Tarea de género gramatical,2024.2.2,Win32,70.92198582,,,,,,,,,,,,,,,,,,,,,,,481.8854,482.933,a,1,0.3847,,[],[],[],[],[],[],[],0.3847,1,482.933,483.4291,,,,,,861,FEM,AGR,150,actriz,la,a,483.4306,483.431,-0.036111125,-0.415740755,0,0,0,,0,240,240,410,1,,,,
,,,,,,3924af121fde90480b17e717,66a626ef09d4e21e1a8894ec,6735c433d54f0deb06ffda18,2024-11-14_10h35.12.661,Tarea de género gramatical,2024.2.2,Win32,70.92198582,,,,,,,,,,,,,,,,,,,,,,,483.4313,484.3696,a,1,0.2816,,[],[],[],[],[],[],[],0.2816,1,484.3697,484.8685,,,,,,549,FEM,AGR,150,fase,la,a,484.8685,484.8686,-0.036111125,-0.415740755,0,0,0,,0,241,241,98,1,,,,
,,,,,,3924af121fde90480b17e717,66a626ef09d4e21e1a8894ec,6735c433d54f0deb06ffda18,2024-11-14_10h35.12.661,Tarea de género gramatical,2024.2.2,Win32,70.92198582,,,,,,,,,,,,,,,,,,,,,,,484.8694,485.8312,a,1,0.3065,,[],[],[],[],[],[],[],0.3065,1,485.8314,486.3324,,,,,,463,FEM,CON,150,hija,,a,486.3324,486.3325,-0.036111125,-0.415740755,0,0,0,,0,242,242,12,1,,,,
,,,,,,3924af121fde90480b17e717,66a626ef09d4e21e1a8894ec,6735c433d54f0deb06ffda18,2024-11-14_10h35.12.661,Tarea de género gramatical,2024.2.2,Win32,70.92198582,,,,,,,,,,,,,,,,,,,,,,,486.3333,487.3314,a,1,0.334,,[],[],[],[],[],[],[],0.334,1,487.3314,487.8283,,,,,,716,FEM,DIS,150,jaula,el,a,487.8284,487.8285,-0.036111125,-0.415740755,0,0,0,,0,243,243,265,1,,,,
,,,,,,3924af121fde90480b17e717,66a626ef09d4e21e1a8894ec,6735c433d54f0deb06ffda18,2024-11-14_10h35.12.661,Tarea de género gramatical,2024.2.2,Win32,70.92198582,,,,,,,,,,,,,,,,,,,,,,,487.8299,488.7672,a,1,0.28,,[],[],[],[],[],[],[],0.28,1,488.7672,489.265,,,,,,721,FEM,CON,150,viuda,,a,489.2651,489.2652,-0.036111125,-0.415740755,0,0,0,,0,244,244,270,1,,,,
,,,,,,3924af121fde90480b17e717,66a626ef09d4e21e1a8894ec,6735c433d54f0deb06ffda18,2024-11-14_10h35.12.661,Tarea de género gramatical,2024.2.2,Win32,70.92198582,,,,,,,,,,,,,,,,,,,,,,,489.2662,490.245,l,1,0.3196,,[],[],[],[],[],[],[],0.3196,1,490.2452,490.7512,,,,,,521,MAS,DIS,150,pozo,la,l,490.7518,490.7524,-0.036111125,-0.415740755,0,0,0,,0,245,245,70,1,,,,
,,,,,,3924af121fde90480b17e717,66a626ef09d4e21e1a8894ec,6735c433d54f0deb06ffda18,2024-11-14_10h35.12.661,Tarea de género gramatical,2024.2.2,Win32,70.92198582,,,,,,,,,,,,,,,,,,,,,,,490.7528,491.7156,a,1,0.3054,,[],[],[],[],[],[],[],0.3054,1,491.7156,492.2132,,,,,,583,FEM,CON,150,joya,,a,492.2132,492.2134,-0.036111125,-0.415740755,0,0,0,,0,246,246,132,1,,,,
,,,,,,3924af121fde90480b17e717,66a626ef09d4e21e1a8894ec,6735c433d54f0deb06ffda18,2024-11-14_10h35.12.661,Tarea de género gramatical,2024.2.2,Win32,70.92198582,,,,,,,,,,,,,,,,,,,,,,,492.2146,493.2551,a,1,0.3745,,[],[],[],[],[],[],[],0.3745,1,493.2551,493.7551,,,,,,591,FEM,AGR,150,cera,la,a,493.7551,493.7551,-0.036111125,-0.415740755,0,0,0,,0,247,247,140,1,,,,
,,,,,,3924af121fde90480b17e717,66a626ef09d4e21e1a8894ec,6735c433d54f0deb06ffda18,2024-11-14_10h35.12.661,Tarea de género gramatical,2024.2.2,Win32,70.92198582,,,,,,,,,,,,,,,,,,,,,,,493.7559,494.7472,a,1,0.329,,[],[],[],[],[],[],[],0.329,1,494.7472,495.2456,,,,,,507,FEM,AGR,150,moda,la,a,495.2457,495.2458,-0.036111125,-0.415740755,0,0,0,,0,248,248,56,1,,,,
,,,,,,3924af121fde90480b17e717,66a626ef09d4e21e1a8894ec,6735c433d54f0deb06ffda18,2024-11-14_10h35.12.661,Tarea de género gramatical,2024.2.2,Win32,70.92198582,,,,,,,,,,,,,,,,,,,,,,,495.2465,496.2664,a,0,0.3628,,[],[],[],[],[],[],[],0.3628,0,496.267,496.7624,,,,,,635,MAS,DIS,150,sueño,la,l,496.7637,496.7643,-0.036111125,-0.415740755,0,0,0,,0,249,249,184,1,,,,
,,,,,,3924af121fde90480b17e717,66a626ef09d4e21e1a8894ec,6735c433d54f0deb06ffda18,2024-11-14_10h35.12.661,Tarea de género gramatical,2024.2.2,Win32,70.92198582,,,,,,,,,,,,,,,,,,,,,,,496.7647,497.7703,a,1,0.3476,,[],[],[],[],[],[],[],0.3476,1,497.7713,498.2689,,,,,,885,FEM,AGR,150,niebla,la,a,498.2689,498.2691,-0.036111125,-0.415740755,0,0,0,,0,250,250,434,1,,,,
,,,,,,3924af121fde90480b17e717,66a626ef09d4e21e1a8894ec,6735c433d54f0deb06ffda18,2024-11-14_10h35.12.661,Tarea de género gramatical,2024.2.2,Win32,70.92198582,,,,,,,,,,,,,,,,,,,,,,,498.2702,499.3608,l,1,0.4313,,[],[],[],[],[],[],[],0.4313,1,499.3609,499.8593,,,,,,671,MAS,DIS,150,brazo,la,l,499.8594,499.8595,-0.036111125,-0.415740755,0,0,0,,0,251,251,220,1,,,,
