counterbalancing_condition,consent_prescreening.block_1/declare_consent,consent_prescreening.block_1/age_years,consent_prescreening.block_1/gender,consent_prescreening.block_1/language_disorder,consent_prescreening.block_1/first_language,PROLIFIC_PID,STUDY_ID,SESSION_ID,date,expName,psychopyVersion,OS,frameRate,check_prescreening_answers.started,check_prescreening_answers.stopped,Instructions.started,Instructions.stopped,instr_done_keyboard.keys,instr_done_keyboard.rt,instr_done_keyboard.duration,instr_done_touch.x,instr_done_touch.y,instr_done_touch.leftButton,instr_done_touch.midButton,instr_done_touch.rightButton,instruction_pages.thisRepN,instruction_pages.thisTrialN,instruction_pages.thisN,instruction_pages.thisIndex,instruction_pages.ran,pageN,phase,instruct_text,has_image,instruct_image,presentTrial.started,presentTrial.stopped,response.keys,response.corr,touch_resp.x,touch_resp.y,touch_resp.leftButton,touch_resp.midButton,touch_resp.rightButton,touch_resp.time,touch_resp.clicked_name,rt,corr,feedback.started,feedback.stopped,practice_trials.thisRepN,practice_trials.thisTrialN,practice_trials.thisN,practice_trials.thisIndex,practice_trials.ran,TrialID,StimulusType,Condition,PrimeDuration,Prime,Flanker,corrAns,response.rt,response.duration,Break.started,Break.stopped,break_done_touch.x,break_done_touch.y,break_done_touch.leftButton,break_done_touch.midButton,break_done_touch.rightButton,break_done_keyboard.keys,experiment_trials.thisRepN,experiment_trials.thisTrialN,experiment_trials.thisN,experiment_trials.thisIndex,experiment_trials.ran,break_done_keyboard.rt,break_done_keyboard.duration,End.started,End.stopped
1,"[""over_18"",""comfortable"",""read_info"",""consent_given""]",30,F,"[""none""]","[""spanish""]",3dd6d7b5b2f251ddac167da4,66a626ef09d4e21e1a8894ec,673649c0788d71c1c21cee01,2024-11-14_13h05.17.293,Tarea de género gramatical,2024.2.2,Win32,144.092219,,,,,,,,,,,,,,,,,,,,,,,,,,,,,,,,,,,,,,,,,,,,,,,,,,,,,,,,,,,,,,,,,,,,
,,,,,,3dd6d7b5b2f251ddac167da4,66a626ef09d4e21e1a8894ec,673649c0788d71c1c21cee01,2024-11-14_13h05.17.293,Tarea de género gramatical,2024.2.2,Win32,144.092219,86.98,86.98,,,,,,,,,,,,,,,,,,,,,,,,,,,,,,,,,,,,,,,,,,,,,,,,,,,,,,,,,,,,,,,,,,
,,,,,,3dd6d7b5b2f251ddac167da4,66a626ef09d4e21e1a8894ec,673649c0788d71c1c21cee01,2024-11-14_13h05.17.293,Tarea de género gramatical,2024.2.2,Win32,144.092219,,,87.006,105.798,space,18.746,,0.672453704,-0.08912037,0,0,0,0,0,0,0,1,1,instructions,"INSTRUCCIONES
Va a realizar una prueba de selección gramatical. Desde el comienzo de la prueba mire siempre al centro de la pantalla. Al cabo de un momento, aparecerán palabras. La tarea consiste en determinar si la palabra del centro (siempre será un sustantivo), pertenece al género masculino o femenino.

Pulse la tecla ESPACIO o toque el botón de abajo para continuar.",0,keyboardresponseFM.png,,,,,,,,,,,,,,,,,,,,,,,,,,,,,,,,,,,,,,,,,,,,,,
,,,,,,3dd6d7b5b2f251ddac167da4,66a626ef09d4e21e1a8894ec,673649c0788d71c1c21cee01,2024-11-14_13h05.17.293,Tarea de género gramatical,2024.2.2,Win32,144.092219,,,105.808,123.464,space,17.583,,0.672453704,-0.08912037,0,0,0,0,1,1,1,1,2,instructions,"Si su dispositivo tiene teclado, pulse la tecla ""A"" para las palabras en femenino (por ejemplo: ""mano"") y la tecla ""L"" para las palabras en masculino(por ejemplo: ""arroz"").
Pulse la tecla ESPACIO o toque el botón de abajo para continuar.",1,keyboardresponseFM.png,,,,,,,,,,,,,,,,,,,,,,,,,,,,,,,,,,,,,,,,,,,,,,
,,,,,,3dd6d7b5b2f251ddac167da4,66a626ef09d4e21e1a8894ec,673649c0788d71c1c21cee01,2024-11-14_13h05.17.293,Tarea de género gramatical,2024.2.2,Win32,144.092219,,,123.472,132.608,space,9.043,,0.672453704,-0.08912037,0,0,0,0,2,2,2,1,3,instructions,"Si utiliza un dispositivo sólo táctil, colóquelo en horizontal y utilice los botones de la pantalla. No utilice el ratón.
Pulse la tecla ESPACIO o toque el botón de abajo para continuar.",2,touchresponseFM.png,,,,,,,,,,,,,,,,,,,,,,,,,,,,,,,,,,,,,,,,,,,,,,
,,,,,,3dd6d7b5b2f251ddac167da4,66a626ef09d4e21e1a8894ec,673649c0788d71c1c21cee01,2024-11-14_13h05.17.293,Tarea de género gramatical,2024.2.2,Win32,144.092219,,,132.612,145.082,space,12.446,,0.672453704,-0.08912037,0,0,0,0,3,3,3,1,4,instructions,"Es muy importante que responda con la mayor rapidez y precisión posibles, ya que cada cadena de letras sólo estará en pantalla durante un instante. Si no responde en ese tiempo, aparecerá el mensaje ""Muy lento"" y el experimento pasará a la siguiente palabra. Los primeros 15 intentos serán de práctica y habrá dos descansos durante la prueba.
Pulse la tecla ESPACIO o toque el botón de abajo para iniciar la parte de práctica.",0,keyboardresponseFM.png,,,,,,,,,,,,,,,,,,,,,,,,,,,,,,,,,,,,,,,,,,,,,,
,,,,,,3dd6d7b5b2f251ddac167da4,66a626ef09d4e21e1a8894ec,673649c0788d71c1c21cee01,2024-11-14_13h05.17.293,Tarea de género gramatical,2024.2.2,Win32,144.092219,,,,,,,,,,,,,,,,,,,,,,,145.111,147.761,,0,[],[],[],[],[],[],[],,-1,147.763,148.26,0,0,0,12,1,2013,MAS,AGR,150,acero,el,l,,,,,,,,,,,,,,,,,,,
,,,,,,3dd6d7b5b2f251ddac167da4,66a626ef09d4e21e1a8894ec,673649c0788d71c1c21cee01,2024-11-14_13h05.17.293,Tarea de género gramatical,2024.2.2,Win32,144.092219,,,,,,,,,,,,,,,,,,,,,,,148.262,149.413,a,1,[],[],[],[],[],[],[],0.488,1,149.419,149.914,0,1,1,1,1,2002,FEM,CON,150,pala,,a,0.488,,,,,,,,,,,,,,,,,,
,,,,,,3dd6d7b5b2f251ddac167da4,66a626ef09d4e21e1a8894ec,673649c0788d71c1c21cee01,2024-11-14_13h05.17.293,Tarea de género gramatical,2024.2.2,Win32,144.092219,,,,,,,,,,,,,,,,,,,,,,,149.916,151.198,l,1,[],[],[],[],[],[],[],0.626,1,151.199,151.7,0,2,2,9,1,2010,MAS,AGR,150,vecino,el,l,0.626,,,,,,,,,,,,,,,,,,
,,,,,,3dd6d7b5b2f251ddac167da4,66a626ef09d4e21e1a8894ec,673649c0788d71c1c21cee01,2024-11-14_13h05.17.293,Tarea de género gramatical,2024.2.2,Win32,144.092219,,,,,,,,,,,,,,,,,,,,,,,151.705,152.727,a,1,[],[],[],[],[],[],[],0.362,1,152.728,153.225,0,3,3,0,1,2001,FEM,AGR,150,nuca,la,a,0.362,,,,,,,,,,,,,,,,,,
,,,,,,3dd6d7b5b2f251ddac167da4,66a626ef09d4e21e1a8894ec,673649c0788d71c1c21cee01,2024-11-14_13h05.17.293,Tarea de género gramatical,2024.2.2,Win32,144.092219,,,,,,,,,,,,,,,,,,,,,,,153.227,154.233,a,0,[],[],[],[],[],[],[],0.35,0,154.235,154.733,0,4,4,14,1,2015,MAS,DIS,150,robot,la,l,0.35,,,,,,,,,,,,,,,,,,
,,,,,,3dd6d7b5b2f251ddac167da4,66a626ef09d4e21e1a8894ec,673649c0788d71c1c21cee01,2024-11-14_13h05.17.293,Tarea de género gramatical,2024.2.2,Win32,144.092219,,,,,,,,,,,,,,,,,,,,,,,154.734,155.963,l,0,[],[],[],[],[],[],[],0.571,0,155.964,156.463,0,5,5,5,1,2006,FEM,DIS,150,serie,el,a,0.571,,,,,,,,,,,,,,,,,,
,,,,,,3dd6d7b5b2f251ddac167da4,66a626ef09d4e21e1a8894ec,673649c0788d71c1c21cee01,2024-11-14_13h05.17.293,Tarea de género gramatical,2024.2.2,Win32,144.092219,,,,,,,,,,,,,,,,,,,,,,,156.464,157.617,a,1,[],[],[],[],[],[],[],0.494,1,157.618,158.114,0,6,6,4,1,2005,FEM,CON,150,placa,,a,0.494,,,,,,,,,,,,,,,,,,
,,,,,,3dd6d7b5b2f251ddac167da4,66a626ef09d4e21e1a8894ec,673649c0788d71c1c21cee01,2024-11-14_13h05.17.293,Tarea de género gramatical,2024.2.2,Win32,144.092219,,,,,,,,,,,,,,,,,,,,,,,158.116,159.379,l,1,[],[],[],[],[],[],[],0.601,1,159.379,159.879,0,7,7,11,1,2012,MAS,DIS,150,clima,la,l,0.601,,,,,,,,,,,,,,,,,,
,,,,,,3dd6d7b5b2f251ddac167da4,66a626ef09d4e21e1a8894ec,673649c0788d71c1c21cee01,2024-11-14_13h05.17.293,Tarea de género gramatical,2024.2.2,Win32,144.092219,,,,,,,,,,,,,,,,,,,,,,,159.88,161.017,l,1,[],[],[],[],[],[],[],0.474,1,161.018,161.522,0,8,8,8,1,2009,MAS,DIS,150,puerto,la,l,0.474,,,,,,,,,,,,,,,,,,
,,,,,,3dd6d7b5b2f251ddac167da4,66a626ef09d4e21e1a8894ec,673649c0788d71c1c21cee01,2024-11-14_13h05.17.293,Tarea de género gramatical,2024.2.2,Win32,144.092219,,,,,,,,,,,,,,,,,,,,,,,161.524,162.65,l,1,[],[],[],[],[],[],[],0.468,1,162.65,163.148,0,9,9,10,1,2011,MAS,CON,150,canal,,l,0.468,,,,,,,,,,,,,,,,,,
,,,,,,3dd6d7b5b2f251ddac167da4,66a626ef09d4e21e1a8894ec,673649c0788d71c1c21cee01,2024-11-14_13h05.17.293,Tarea de género gramatical,2024.2.2,Win32,144.092219,,,,,,,,,,,,,,,,,,,,,,,163.151,164.24,l,1,[],[],[],[],[],[],[],0.431,1,164.24,164.739,0,10,10,13,1,2014,MAS,CON,150,siglo,,l,0.431,,,,,,,,,,,,,,,,,,
,,,,,,3dd6d7b5b2f251ddac167da4,66a626ef09d4e21e1a8894ec,673649c0788d71c1c21cee01,2024-11-14_13h05.17.293,Tarea de género gramatical,2024.2.2,Win32,144.092219,,,,,,,,,,,,,,,,,,,,,,,164.741,165.822,a,1,[],[],[],[],[],[],[],0.424,1,165.823,166.323,0,11,11,2,1,2003,FEM,DIS,150,daga,el,a,0.424,,,,,,,,,,,,,,,,,,
,,,,,,3dd6d7b5b2f251ddac167da4,66a626ef09d4e21e1a8894ec,673649c0788d71c1c21cee01,2024-11-14_13h05.17.293,Tarea de género gramatical,2024.2.2,Win32,144.092219,,,,,,,,,,,,,,,,,,,,,,,166.324,167.323,a,1,[],[],[],[],[],[],[],0.341,1,167.324,167.822,0,12,12,3,1,2004,FEM,AGR,150,venta,la,a,0.341,,,,,,,,,,,,,,,,,,
,,,,,,3dd6d7b5b2f251ddac167da4,66a626ef09d4e21e1a8894ec,673649c0788d71c1c21cee01,2024-11-14_13h05.17.293,Tarea de género gramatical,2024.2.2,Win32,144.092219,,,,,,,,,,,,,,,,,,,,,,,167.824,168.844,a,1,[],[],[],[],[],[],[],0.361,1,168.844,169.343,0,13,13,6,1,2007,FEM,AGR,150,navaja,la,a,0.361,,,,,,,,,,,,,,,,,,
,,,,,,3dd6d7b5b2f251ddac167da4,66a626ef09d4e21e1a8894ec,673649c0788d71c1c21cee01,2024-11-14_13h05.17.293,Tarea de género gramatical,2024.2.2,Win32,144.092219,,,,,,,,,,,,,,,,,,,,,,,169.345,170.379,a,1,[],[],[],[],[],[],[],0.378,1,170.381,170.881,0,14,14,7,1,2008,FEM,CON,150,siesta,,a,0.378,,,,,,,,,,,,,,,,,,
,,,,,,3dd6d7b5b2f251ddac167da4,66a626ef09d4e21e1a8894ec,673649c0788d71c1c21cee01,2024-11-14_13h05.17.293,Tarea de género gramatical,2024.2.2,Win32,144.092219,,,175.973,181.681,space,5.68,,0.672453704,-0.08912037,0,0,0,,,,,,,,,,,181.742,182.81,a,1,[],[],[],[],[],[],[],0.41,1,182.811,183.306,,,,,,590,FEM,DIS,150,mula,el,a,0.41,,183.306,183.313,0.672453704,-0.08912037,0,0,0,,0,0,0,139,1,,,,
,,,,,,3dd6d7b5b2f251ddac167da4,66a626ef09d4e21e1a8894ec,673649c0788d71c1c21cee01,2024-11-14_13h05.17.293,Tarea de género gramatical,2024.2.2,Win32,144.092219,,,,,,,,,,,,,,,,,,,,,,,183.317,184.334,l,1,[],[],[],[],[],[],[],0.36,1,184.334,184.831,,,,,,762,MAS,AGR,150,equipo,el,l,0.36,,184.831,184.831,0.672453704,-0.08912037,0,0,0,,0,1,1,311,1,,,,
,,,,,,3dd6d7b5b2f251ddac167da4,66a626ef09d4e21e1a8894ec,673649c0788d71c1c21cee01,2024-11-14_13h05.17.293,Tarea de género gramatical,2024.2.2,Win32,144.092219,,,,,,,,,,,,,,,,,,,,,,,184.833,185.946,l,0,[],[],[],[],[],[],[],0.453,0,185.948,186.448,,,,,,753,FEM,AGR,150,maldad,la,a,0.453,,186.45,186.451,0.672453704,-0.08912037,0,0,0,,0,2,2,302,1,,,,
,,,,,,3dd6d7b5b2f251ddac167da4,66a626ef09d4e21e1a8894ec,673649c0788d71c1c21cee01,2024-11-14_13h05.17.293,Tarea de género gramatical,2024.2.2,Win32,144.092219,,,,,,,,,,,,,,,,,,,,,,,186.454,187.67,a,1,[],[],[],[],[],[],[],0.559,1,187.672,188.169,,,,,,524,FEM,DIS,150,flor,el,a,0.559,,188.169,188.169,0.672453704,-0.08912037,0,0,0,,0,3,3,73,1,,,,
,,,,,,3dd6d7b5b2f251ddac167da4,66a626ef09d4e21e1a8894ec,673649c0788d71c1c21cee01,2024-11-14_13h05.17.293,Tarea de género gramatical,2024.2.2,Win32,144.092219,,,,,,,,,,,,,,,,,,,,,,,188.171,189.19,a,1,[],[],[],[],[],[],[],0.356,1,189.19,189.69,,,,,,583,FEM,CON,150,joya,,a,0.356,,189.69,189.691,0.672453704,-0.08912037,0,0,0,,0,4,4,132,1,,,,
,,,,,,3dd6d7b5b2f251ddac167da4,66a626ef09d4e21e1a8894ec,673649c0788d71c1c21cee01,2024-11-14_13h05.17.293,Tarea de género gramatical,2024.2.2,Win32,144.092219,,,,,,,,,,,,,,,,,,,,,,,189.692,190.69,l,1,[],[],[],[],[],[],[],0.341,1,190.69,191.19,,,,,,610,MAS,CON,150,señor,,l,0.341,,191.19,191.19,0.672453704,-0.08912037,0,0,0,,0,5,5,159,1,,,,
,,,,,,3dd6d7b5b2f251ddac167da4,66a626ef09d4e21e1a8894ec,673649c0788d71c1c21cee01,2024-11-14_13h05.17.293,Tarea de género gramatical,2024.2.2,Win32,144.092219,,,,,,,,,,,,,,,,,,,,,,,191.191,192.225,l,1,[],[],[],[],[],[],[],0.376,1,192.225,192.726,,,,,,694,MAS,CON,150,hielo,,l,0.376,,192.728,192.73,0.672453704,-0.08912037,0,0,0,,0,6,6,243,1,,,,
,,,,,,3dd6d7b5b2f251ddac167da4,66a626ef09d4e21e1a8894ec,673649c0788d71c1c21cee01,2024-11-14_13h05.17.293,Tarea de género gramatical,2024.2.2,Win32,144.092219,,,,,,,,,,,,,,,,,,,,,,,192.732,193.795,l,1,[],[],[],[],[],[],[],0.403,1,193.795,194.295,,,,,,790,MAS,CON,150,pasado,,l,0.403,,194.296,194.296,0.672453704,-0.08912037,0,0,0,,0,7,7,339,1,,,,
,,,,,,3dd6d7b5b2f251ddac167da4,66a626ef09d4e21e1a8894ec,673649c0788d71c1c21cee01,2024-11-14_13h05.17.293,Tarea de género gramatical,2024.2.2,Win32,144.092219,,,,,,,,,,,,,,,,,,,,,,,194.297,195.364,l,1,[],[],[],[],[],[],[],0.41,1,195.365,195.864,,,,,,509,MAS,DIS,150,lobo,la,l,0.41,,195.864,195.864,0.672453704,-0.08912037,0,0,0,,0,8,8,58,1,,,,
,,,,,,3dd6d7b5b2f251ddac167da4,66a626ef09d4e21e1a8894ec,673649c0788d71c1c21cee01,2024-11-14_13h05.17.293,Tarea de género gramatical,2024.2.2,Win32,144.092219,,,,,,,,,,,,,,,,,,,,,,,195.866,196.848,l,1,[],[],[],[],[],[],[],0.32,1,196.849,197.347,,,,,,611,MAS,DIS,150,chico,la,l,0.32,,197.347,197.347,0.672453704,-0.08912037,0,0,0,,0,9,9,160,1,,,,
,,,,,,3dd6d7b5b2f251ddac167da4,66a626ef09d4e21e1a8894ec,673649c0788d71c1c21cee01,2024-11-14_13h05.17.293,Tarea de género gramatical,2024.2.2,Win32,144.092219,,,,,,,,,,,,,,,,,,,,,,,197.35,198.4,l,1,[],[],[],[],[],[],[],0.394,1,198.4,198.898,,,,,,551,MAS,DIS,150,giro,la,l,0.394,,198.898,198.898,0.672453704,-0.08912037,0,0,0,,0,10,10,100,1,,,,
,,,,,,3dd6d7b5b2f251ddac167da4,66a626ef09d4e21e1a8894ec,673649c0788d71c1c21cee01,2024-11-14_13h05.17.293,Tarea de género gramatical,2024.2.2,Win32,144.092219,,,,,,,,,,,,,,,,,,,,,,,198.901,199.982,a,1,[],[],[],[],[],[],[],0.424,1,199.983,200.482,,,,,,811,FEM,CON,150,oferta,,a,0.424,,200.483,200.485,0.672453704,-0.08912037,0,0,0,,0,11,11,360,1,,,,
,,,,,,3dd6d7b5b2f251ddac167da4,66a626ef09d4e21e1a8894ec,673649c0788d71c1c21cee01,2024-11-14_13h05.17.293,Tarea de género gramatical,2024.2.2,Win32,144.092219,,,,,,,,,,,,,,,,,,,,,,,200.486,201.738,a,1,[],[],[],[],[],[],[],0.591,1,201.739,202.24,,,,,,885,FEM,AGR,150,niebla,la,a,0.591,,202.24,202.24,0.672453704,-0.08912037,0,0,0,,0,12,12,434,1,,,,
,,,,,,3dd6d7b5b2f251ddac167da4,66a626ef09d4e21e1a8894ec,673649c0788d71c1c21cee01,2024-11-14_13h05.17.293,Tarea de género gramatical,2024.2.2,Win32,144.092219,,,,,,,,,,,,,,,,,,,,,,,202.241,203.274,a,1,[],[],[],[],[],[],[],0.369,1,203.274,203.774,,,,,,873,FEM,AGR,150,poesía,la,a,0.369,,203.774,203.774,0.672453704,-0.08912037,0,0,0,,0,13,13,422,1,,,,
,,,,,,3dd6d7b5b2f251ddac167da4,66a626ef09d4e21e1a8894ec,673649c0788d71c1c21cee01,2024-11-14_13h05.17.293,Tarea de género gramatical,2024.2.2,Win32,144.092219,,,,,,,,,,,,,,,,,,,,,,,203.775,204.746,a,1,[],[],[],[],[],[],[],0.313,1,204.747,205.245,,,,,,639,FEM,AGR,150,pista,la,a,0.313,,205.246,205.246,0.672453704,-0.08912037,0,0,0,,0,14,14,188,1,,,,
,,,,,,3dd6d7b5b2f251ddac167da4,66a626ef09d4e21e1a8894ec,673649c0788d71c1c21cee01,2024-11-14_13h05.17.293,Tarea de género gramatical,2024.2.2,Win32,144.092219,,,,,,,,,,,,,,,,,,,,,,,205.247,206.17,a,1,[],[],[],[],[],[],[],0.266,1,206.17,206.669,,,,,,548,FEM,DIS,150,fuga,el,a,0.266,,206.671,206.672,0.672453704,-0.08912037,0,0,0,,0,15,15,97,1,,,,
,,,,,,3dd6d7b5b2f251ddac167da4,66a626ef09d4e21e1a8894ec,673649c0788d71c1c21cee01,2024-11-14_13h05.17.293,Tarea de género gramatical,2024.2.2,Win32,144.092219,,,,,,,,,,,,,,,,,,,,,,,206.674,207.676,l,1,[],[],[],[],[],[],[],0.349,1,207.676,208.176,,,,,,802,MAS,CON,150,estilo,,l,0.349,,208.177,208.177,0.672453704,-0.08912037,0,0,0,,0,16,16,351,1,,,,
,,,,,,3dd6d7b5b2f251ddac167da4,66a626ef09d4e21e1a8894ec,673649c0788d71c1c21cee01,2024-11-14_13h05.17.293,Tarea de género gramatical,2024.2.2,Win32,144.092219,,,,,,,,,,,,,,,,,,,,,,,208.178,209.226,a,1,[],[],[],[],[],[],[],0.387,1,209.227,209.721,,,,,,464,FEM,DIS,150,cara,el,a,0.387,,209.721,209.721,0.672453704,-0.08912037,0,0,0,,0,17,17,13,1,,,,
,,,,,,3dd6d7b5b2f251ddac167da4,66a626ef09d4e21e1a8894ec,673649c0788d71c1c21cee01,2024-11-14_13h05.17.293,Tarea de género gramatical,2024.2.2,Win32,144.092219,,,,,,,,,,,,,,,,,,,,,,,209.724,210.794,l,1,[],[],[],[],[],[],[],0.41,1,210.795,211.295,,,,,,749,MAS,DIS,150,rumbo,la,l,0.41,,211.295,211.295,0.672453704,-0.08912037,0,0,0,,0,18,18,298,1,,,,
,,,,,,3dd6d7b5b2f251ddac167da4,66a626ef09d4e21e1a8894ec,673649c0788d71c1c21cee01,2024-11-14_13h05.17.293,Tarea de género gramatical,2024.2.2,Win32,144.092219,,,,,,,,,,,,,,,,,,,,,,,211.296,212.301,l,1,[],[],[],[],[],[],[],0.348,1,212.301,212.8,,,,,,502,MAS,CON,150,lago,,l,0.348,,212.8,212.801,0.672453704,-0.08912037,0,0,0,,0,19,19,51,1,,,,
,,,,,,3dd6d7b5b2f251ddac167da4,66a626ef09d4e21e1a8894ec,673649c0788d71c1c21cee01,2024-11-14_13h05.17.293,Tarea de género gramatical,2024.2.2,Win32,144.092219,,,,,,,,,,,,,,,,,,,,,,,212.807,213.774,l,1,[],[],[],[],[],[],[],0.314,1,213.775,214.273,,,,,,564,MAS,AGR,150,menú,el,l,0.314,,214.276,214.279,0.672453704,-0.08912037,0,0,0,,0,20,20,113,1,,,,
,,,,,,3dd6d7b5b2f251ddac167da4,66a626ef09d4e21e1a8894ec,673649c0788d71c1c21cee01,2024-11-14_13h05.17.293,Tarea de género gramatical,2024.2.2,Win32,144.092219,,,,,,,,,,,,,,,,,,,,,,,214.282,215.291,a,1,[],[],[],[],[],[],[],0.354,1,215.291,215.794,,,,,,890,FEM,DIS,150,patada,el,a,0.354,,215.794,215.795,0.672453704,-0.08912037,0,0,0,,0,21,21,439,1,,,,
,,,,,,3dd6d7b5b2f251ddac167da4,66a626ef09d4e21e1a8894ec,673649c0788d71c1c21cee01,2024-11-14_13h05.17.293,Tarea de género gramatical,2024.2.2,Win32,144.092219,,,,,,,,,,,,,,,,,,,,,,,215.795,216.774,a,1,[],[],[],[],[],[],[],0.323,1,216.774,217.274,,,,,,842,FEM,DIS,150,maleta,el,a,0.323,,217.274,217.274,0.672453704,-0.08912037,0,0,0,,0,22,22,391,1,,,,
,,,,,,3dd6d7b5b2f251ddac167da4,66a626ef09d4e21e1a8894ec,673649c0788d71c1c21cee01,2024-11-14_13h05.17.293,Tarea de género gramatical,2024.2.2,Win32,144.092219,,,,,,,,,,,,,,,,,,,,,,,217.276,218.325,a,1,[],[],[],[],[],[],[],0.396,1,218.325,218.821,,,,,,662,FEM,DIS,150,cinta,el,a,0.396,,218.821,218.822,0.672453704,-0.08912037,0,0,0,,0,23,23,211,1,,,,
,,,,,,3dd6d7b5b2f251ddac167da4,66a626ef09d4e21e1a8894ec,673649c0788d71c1c21cee01,2024-11-14_13h05.17.293,Tarea de género gramatical,2024.2.2,Win32,144.092219,,,,,,,,,,,,,,,,,,,,,,,218.824,219.863,a,1,[],[],[],[],[],[],[],0.378,1,219.864,220.363,,,,,,896,FEM,DIS,150,bañera,el,a,0.378,,220.365,220.365,0.672453704,-0.08912037,0,0,0,,0,24,24,445,1,,,,
,,,,,,3dd6d7b5b2f251ddac167da4,66a626ef09d4e21e1a8894ec,673649c0788d71c1c21cee01,2024-11-14_13h05.17.293,Tarea de género gramatical,2024.2.2,Win32,144.092219,,,,,,,,,,,,,,,,,,,,,,,220.366,221.459,l,1,[],[],[],[],[],[],[],0.436,1,221.459,221.96,,,,,,461,MAS,DIS,150,país,la,l,0.436,,221.96,221.96,0.672453704,-0.08912037,0,0,0,,0,25,25,10,1,,,,
,,,,,,3dd6d7b5b2f251ddac167da4,66a626ef09d4e21e1a8894ec,673649c0788d71c1c21cee01,2024-11-14_13h05.17.293,Tarea de género gramatical,2024.2.2,Win32,144.092219,,,,,,,,,,,,,,,,,,,,,,,221.962,222.973,l,1,[],[],[],[],[],[],[],0.354,1,222.974,223.474,,,,,,498,MAS,AGR,150,loco,el,l,0.354,,223.474,223.474,0.672453704,-0.08912037,0,0,0,,0,26,26,47,1,,,,
,,,,,,3dd6d7b5b2f251ddac167da4,66a626ef09d4e21e1a8894ec,673649c0788d71c1c21cee01,2024-11-14_13h05.17.293,Tarea de género gramatical,2024.2.2,Win32,144.092219,,,,,,,,,,,,,,,,,,,,,,,223.476,224.454,a,1,[],[],[],[],[],[],[],0.321,1,224.454,224.953,,,,,,525,FEM,AGR,150,caza,la,a,0.321,,224.953,224.954,0.672453704,-0.08912037,0,0,0,,0,27,27,74,1,,,,
,,,,,,3dd6d7b5b2f251ddac167da4,66a626ef09d4e21e1a8894ec,673649c0788d71c1c21cee01,2024-11-14_13h05.17.293,Tarea de género gramatical,2024.2.2,Win32,144.092219,,,,,,,,,,,,,,,,,,,,,,,224.955,225.954,a,0,[],[],[],[],[],[],[],0.338,0,225.956,226.453,,,,,,634,MAS,CON,150,cielo,,l,0.338,,226.453,226.454,0.672453704,-0.08912037,0,0,0,,0,28,28,183,1,,,,
,,,,,,3dd6d7b5b2f251ddac167da4,66a626ef09d4e21e1a8894ec,673649c0788d71c1c21cee01,2024-11-14_13h05.17.293,Tarea de género gramatical,2024.2.2,Win32,144.092219,,,,,,,,,,,,,,,,,,,,,,,226.455,227.759,l,0,[],[],[],[],[],[],[],0.648,0,227.76,228.258,,,,,,499,FEM,CON,150,piel,,a,0.648,,228.261,228.262,0.672453704,-0.08912037,0,0,0,,0,29,29,48,1,,,,
,,,,,,3dd6d7b5b2f251ddac167da4,66a626ef09d4e21e1a8894ec,673649c0788d71c1c21cee01,2024-11-14_13h05.17.293,Tarea de género gramatical,2024.2.2,Win32,144.092219,,,,,,,,,,,,,,,,,,,,,,,228.263,229.35,l,1,[],[],[],[],[],[],[],0.425,1,229.351,229.849,,,,,,618,MAS,AGR,150,sitio,el,l,0.425,,229.849,229.849,0.672453704,-0.08912037,0,0,0,,0,30,30,167,1,,,,
,,,,,,3dd6d7b5b2f251ddac167da4,66a626ef09d4e21e1a8894ec,673649c0788d71c1c21cee01,2024-11-14_13h05.17.293,Tarea de género gramatical,2024.2.2,Win32,144.092219,,,,,,,,,,,,,,,,,,,,,,,229.85,230.975,a,1,[],[],[],[],[],[],[],0.467,1,230.976,231.474,,,,,,740,FEM,DIS,150,cabra,el,a,0.467,,231.474,231.474,0.672453704,-0.08912037,0,0,0,,0,31,31,289,1,,,,
,,,,,,3dd6d7b5b2f251ddac167da4,66a626ef09d4e21e1a8894ec,673649c0788d71c1c21cee01,2024-11-14_13h05.17.293,Tarea de género gramatical,2024.2.2,Win32,144.092219,,,,,,,,,,,,,,,,,,,,,,,231.477,232.488,a,1,[],[],[],[],[],[],[],0.353,1,232.488,232.988,,,,,,513,FEM,AGR,150,fila,la,a,0.353,,232.988,232.988,0.672453704,-0.08912037,0,0,0,,0,32,32,62,1,,,,
,,,,,,3dd6d7b5b2f251ddac167da4,66a626ef09d4e21e1a8894ec,673649c0788d71c1c21cee01,2024-11-14_13h05.17.293,Tarea de género gramatical,2024.2.2,Win32,144.092219,,,,,,,,,,,,,,,,,,,,,,,232.99,234.149,a,1,[],[],[],[],[],[],[],0.503,1,234.149,234.646,,,,,,813,FEM,AGR,150,unidad,la,a,0.503,,234.649,234.65,0.672453704,-0.08912037,0,0,0,,0,33,33,362,1,,,,
,,,,,,3dd6d7b5b2f251ddac167da4,66a626ef09d4e21e1a8894ec,673649c0788d71c1c21cee01,2024-11-14_13h05.17.293,Tarea de género gramatical,2024.2.2,Win32,144.092219,,,,,,,,,,,,,,,,,,,,,,,234.65,235.661,l,1,[],[],[],[],[],[],[],0.348,1,235.662,236.161,,,,,,455,MAS,DIS,150,tipo,la,l,0.348,,236.161,236.161,0.672453704,-0.08912037,0,0,0,,0,34,34,4,1,,,,
,,,,,,3dd6d7b5b2f251ddac167da4,66a626ef09d4e21e1a8894ec,673649c0788d71c1c21cee01,2024-11-14_13h05.17.293,Tarea de género gramatical,2024.2.2,Win32,144.092219,,,,,,,,,,,,,,,,,,,,,,,236.163,237.23,a,1,[],[],[],[],[],[],[],0.411,1,237.231,237.73,,,,,,475,FEM,CON,150,nave,,a,0.411,,237.73,237.731,0.672453704,-0.08912037,0,0,0,,0,35,35,24,1,,,,
,,,,,,3dd6d7b5b2f251ddac167da4,66a626ef09d4e21e1a8894ec,673649c0788d71c1c21cee01,2024-11-14_13h05.17.293,Tarea de género gramatical,2024.2.2,Win32,144.092219,,,,,,,,,,,,,,,,,,,,,,,237.732,238.806,l,1,[],[],[],[],[],[],[],0.417,1,238.806,239.307,,,,,,856,MAS,CON,150,premio,,l,0.417,,239.307,239.308,0.672453704,-0.08912037,0,0,0,,0,36,36,405,1,,,,
,,,,,,3dd6d7b5b2f251ddac167da4,66a626ef09d4e21e1a8894ec,673649c0788d71c1c21cee01,2024-11-14_13h05.17.293,Tarea de género gramatical,2024.2.2,Win32,144.092219,,,,,,,,,,,,,,,,,,,,,,,239.309,240.447,l,1,[],[],[],[],[],[],[],0.477,1,240.447,240.946,,,,,,503,MAS,DIS,150,vaso,la,l,0.477,,240.946,240.946,0.672453704,-0.08912037,0,0,0,,0,37,37,52,1,,,,
,,,,,,3dd6d7b5b2f251ddac167da4,66a626ef09d4e21e1a8894ec,673649c0788d71c1c21cee01,2024-11-14_13h05.17.293,Tarea de género gramatical,2024.2.2,Win32,144.092219,,,,,,,,,,,,,,,,,,,,,,,240.948,241.939,l,1,[],[],[],[],[],[],[],0.335,1,241.939,242.439,,,,,,628,MAS,CON,150,punto,,l,0.335,,242.44,242.442,0.672453704,-0.08912037,0,0,0,,0,38,38,177,1,,,,
,,,,,,3dd6d7b5b2f251ddac167da4,66a626ef09d4e21e1a8894ec,673649c0788d71c1c21cee01,2024-11-14_13h05.17.293,Tarea de género gramatical,2024.2.2,Win32,144.092219,,,,,,,,,,,,,,,,,,,,,,,242.443,243.556,l,1,[],[],[],[],[],[],[],0.451,1,243.556,244.058,,,,,,558,MAS,AGR,150,hilo,el,l,0.451,,244.058,244.059,0.672453704,-0.08912037,0,0,0,,0,39,39,107,1,,,,
,,,,,,3dd6d7b5b2f251ddac167da4,66a626ef09d4e21e1a8894ec,673649c0788d71c1c21cee01,2024-11-14_13h05.17.293,Tarea de género gramatical,2024.2.2,Win32,144.092219,,,,,,,,,,,,,,,,,,,,,,,244.063,245.033,l,1,[],[],[],[],[],[],[],0.308,1,245.035,245.531,,,,,,532,MAS,CON,150,tubo,,l,0.308,,245.531,245.532,0.672453704,-0.08912037,0,0,0,,0,40,40,81,1,,,,
,,,,,,3dd6d7b5b2f251ddac167da4,66a626ef09d4e21e1a8894ec,673649c0788d71c1c21cee01,2024-11-14_13h05.17.293,Tarea de género gramatical,2024.2.2,Win32,144.092219,,,,,,,,,,,,,,,,,,,,,,,245.533,246.509,l,1,[],[],[],[],[],[],[],0.315,1,246.509,247.008,,,,,,712,MAS,CON,150,video,,l,0.315,,247.008,247.008,0.672453704,-0.08912037,0,0,0,,0,41,41,261,1,,,,
,,,,,,3dd6d7b5b2f251ddac167da4,66a626ef09d4e21e1a8894ec,673649c0788d71c1c21cee01,2024-11-14_13h05.17.293,Tarea de género gramatical,2024.2.2,Win32,144.092219,,,,,,,,,,,,,,,,,,,,,,,247.01,247.994,a,1,[],[],[],[],[],[],[],0.326,1,247.995,248.495,,,,,,512,FEM,DIS,150,sopa,el,a,0.326,,248.497,248.5,0.672453704,-0.08912037,0,0,0,,0,42,42,61,1,,,,
,,,,,,3dd6d7b5b2f251ddac167da4,66a626ef09d4e21e1a8894ec,673649c0788d71c1c21cee01,2024-11-14_13h05.17.293,Tarea de género gramatical,2024.2.2,Win32,144.092219,,,,,,,,,,,,,,,,,,,,,,,248.501,249.578,l,1,[],[],[],[],[],[],[],0.418,1,249.578,250.078,,,,,,648,MAS,AGR,150,hotel,el,l,0.418,,250.078,250.078,0.672453704,-0.08912037,0,0,0,,0,43,43,197,1,,,,
,,,,,,3dd6d7b5b2f251ddac167da4,66a626ef09d4e21e1a8894ec,673649c0788d71c1c21cee01,2024-11-14_13h05.17.293,Tarea de género gramatical,2024.2.2,Win32,144.092219,,,,,,,,,,,,,,,,,,,,,,,250.08,251.105,l,1,[],[],[],[],[],[],[],0.369,1,251.105,251.606,,,,,,636,MAS,AGR,150,error,el,l,0.369,,251.606,251.606,0.672453704,-0.08912037,0,0,0,,0,44,44,185,1,,,,
,,,,,,3dd6d7b5b2f251ddac167da4,66a626ef09d4e21e1a8894ec,673649c0788d71c1c21cee01,2024-11-14_13h05.17.293,Tarea de género gramatical,2024.2.2,Win32,144.092219,,,,,,,,,,,,,,,,,,,,,,,251.607,252.548,l,1,[],[],[],[],[],[],[],0.283,1,252.549,253.05,,,,,,737,MAS,DIS,150,plato,la,l,0.283,,253.05,253.05,0.672453704,-0.08912037,0,0,0,,0,45,45,286,1,,,,
,,,,,,3dd6d7b5b2f251ddac167da4,66a626ef09d4e21e1a8894ec,673649c0788d71c1c21cee01,2024-11-14_13h05.17.293,Tarea de género gramatical,2024.2.2,Win32,144.092219,,,,,,,,,,,,,,,,,,,,,,,253.052,254.173,a,1,[],[],[],[],[],[],[],0.46,1,254.173,254.675,,,,,,765,FEM,AGR,150,manera,la,a,0.46,,254.675,254.675,0.672453704,-0.08912037,0,0,0,,0,46,46,314,1,,,,
,,,,,,3dd6d7b5b2f251ddac167da4,66a626ef09d4e21e1a8894ec,673649c0788d71c1c21cee01,2024-11-14_13h05.17.293,Tarea de género gramatical,2024.2.2,Win32,144.092219,,,,,,,,,,,,,,,,,,,,,,,254.676,255.673,a,1,[],[],[],[],[],[],[],0.334,1,255.673,256.172,,,,,,663,FEM,AGR,150,magia,la,a,0.334,,256.174,256.176,0.672453704,-0.08912037,0,0,0,,0,47,47,212,1,,,,
,,,,,,3dd6d7b5b2f251ddac167da4,66a626ef09d4e21e1a8894ec,673649c0788d71c1c21cee01,2024-11-14_13h05.17.293,Tarea de género gramatical,2024.2.2,Win32,144.092219,,,,,,,,,,,,,,,,,,,,,,,256.177,257.266,l,1,[],[],[],[],[],[],[],0.432,1,257.266,257.765,,,,,,521,MAS,DIS,150,pozo,la,l,0.432,,257.765,257.766,0.672453704,-0.08912037,0,0,0,,0,48,48,70,1,,,,
,,,,,,3dd6d7b5b2f251ddac167da4,66a626ef09d4e21e1a8894ec,673649c0788d71c1c21cee01,2024-11-14_13h05.17.293,Tarea de género gramatical,2024.2.2,Win32,144.092219,,,,,,,,,,,,,,,,,,,,,,,257.767,258.799,a,1,[],[],[],[],[],[],[],0.376,1,258.799,259.294,,,,,,789,FEM,AGR,150,salida,la,a,0.376,,259.294,259.294,0.672453704,-0.08912037,0,0,0,,0,49,49,338,1,,,,
,,,,,,3dd6d7b5b2f251ddac167da4,66a626ef09d4e21e1a8894ec,673649c0788d71c1c21cee01,2024-11-14_13h05.17.293,Tarea de género gramatical,2024.2.2,Win32,144.092219,,,,,,,,,,,,,,,,,,,,,,,259.297,260.279,a,1,[],[],[],[],[],[],[],0.319,1,260.279,260.778,,,,,,787,FEM,CON,150,escena,,a,0.319,,260.778,260.779,0.672453704,-0.08912037,0,0,0,,0,50,50,336,1,,,,
,,,,,,3dd6d7b5b2f251ddac167da4,66a626ef09d4e21e1a8894ec,673649c0788d71c1c21cee01,2024-11-14_13h05.17.293,Tarea de género gramatical,2024.2.2,Win32,144.092219,,,,,,,,,,,,,,,,,,,,,,,260.78,261.741,l,1,[],[],[],[],[],[],[],0.301,1,261.742,262.237,,,,,,678,MAS,AGR,150,nivel,el,l,0.301,,262.238,262.239,0.672453704,-0.08912037,0,0,0,,0,51,51,227,1,,,,
,,,,,,3dd6d7b5b2f251ddac167da4,66a626ef09d4e21e1a8894ec,673649c0788d71c1c21cee01,2024-11-14_13h05.17.293,Tarea de género gramatical,2024.2.2,Win32,144.092219,,,,,,,,,,,,,,,,,,,,,,,262.24,263.227,l,1,[],[],[],[],[],[],[],0.327,1,263.228,263.724,,,,,,504,MAS,AGR,150,humo,el,l,0.327,,263.724,263.724,0.672453704,-0.08912037,0,0,0,,0,52,52,53,1,,,,
,,,,,,3dd6d7b5b2f251ddac167da4,66a626ef09d4e21e1a8894ec,673649c0788d71c1c21cee01,2024-11-14_13h05.17.293,Tarea de género gramatical,2024.2.2,Win32,144.092219,,,,,,,,,,,,,,,,,,,,,,,263.725,264.704,a,0,[],[],[],[],[],[],[],0.32,0,264.705,265.202,,,,,,786,MAS,AGR,150,crimen,el,l,0.32,,265.202,265.202,0.672453704,-0.08912037,0,0,0,,0,53,53,335,1,,,,
,,,,,,3dd6d7b5b2f251ddac167da4,66a626ef09d4e21e1a8894ec,673649c0788d71c1c21cee01,2024-11-14_13h05.17.293,Tarea de género gramatical,2024.2.2,Win32,144.092219,,,,,,,,,,,,,,,,,,,,,,,265.203,266.376,l,1,[],[],[],[],[],[],[],0.515,1,266.378,266.876,,,,,,869,MAS,DIS,150,cuento,la,l,0.515,,266.876,266.876,0.672453704,-0.08912037,0,0,0,,0,54,54,418,1,,,,
,,,,,,3dd6d7b5b2f251ddac167da4,66a626ef09d4e21e1a8894ec,673649c0788d71c1c21cee01,2024-11-14_13h05.17.293,Tarea de género gramatical,2024.2.2,Win32,144.092219,,,,,,,,,,,,,,,,,,,,,,,266.878,267.933,l,1,[],[],[],[],[],[],[],0.398,1,267.933,268.431,,,,,,515,MAS,DIS,150,rayo,la,l,0.398,,268.431,268.432,0.672453704,-0.08912037,0,0,0,,0,55,55,64,1,,,,
,,,,,,3dd6d7b5b2f251ddac167da4,66a626ef09d4e21e1a8894ec,673649c0788d71c1c21cee01,2024-11-14_13h05.17.293,Tarea de género gramatical,2024.2.2,Win32,144.092219,,,,,,,,,,,,,,,,,,,,,,,268.433,269.433,l,1,[],[],[],[],[],[],[],0.341,1,269.434,269.932,,,,,,538,MAS,CON,150,pavo,,l,0.341,,269.933,269.934,0.672453704,-0.08912037,0,0,0,,0,56,56,87,1,,,,
,,,,,,3dd6d7b5b2f251ddac167da4,66a626ef09d4e21e1a8894ec,673649c0788d71c1c21cee01,2024-11-14_13h05.17.293,Tarea de género gramatical,2024.2.2,Win32,144.092219,,,,,,,,,,,,,,,,,,,,,,,269.936,271.001,a,1,[],[],[],[],[],[],[],0.406,1,271.002,271.5,,,,,,579,FEM,AGR,150,rana,la,a,0.406,,271.5,271.501,0.672453704,-0.08912037,0,0,0,,0,57,57,128,1,,,,
,,,,,,3dd6d7b5b2f251ddac167da4,66a626ef09d4e21e1a8894ec,673649c0788d71c1c21cee01,2024-11-14_13h05.17.293,Tarea de género gramatical,2024.2.2,Win32,144.092219,,,,,,,,,,,,,,,,,,,,,,,271.502,272.563,a,1,[],[],[],[],[],[],[],0.404,1,272.563,273.063,,,,,,561,FEM,AGR,150,goma,la,a,0.404,,273.063,273.063,0.672453704,-0.08912037,0,0,0,,0,58,58,110,1,,,,
,,,,,,3dd6d7b5b2f251ddac167da4,66a626ef09d4e21e1a8894ec,673649c0788d71c1c21cee01,2024-11-14_13h05.17.293,Tarea de género gramatical,2024.2.2,Win32,144.092219,,,,,,,,,,,,,,,,,,,,,,,273.065,274.148,a,1,[],[],[],[],[],[],[],0.424,1,274.148,274.648,,,,,,735,FEM,AGR,150,mafia,la,a,0.424,,274.648,274.65,0.672453704,-0.08912037,0,0,0,,0,59,59,284,1,,,,
,,,,,,3dd6d7b5b2f251ddac167da4,66a626ef09d4e21e1a8894ec,673649c0788d71c1c21cee01,2024-11-14_13h05.17.293,Tarea de género gramatical,2024.2.2,Win32,144.092219,,,,,,,,,,,,,,,,,,,,,,,274.657,275.868,a,1,[],[],[],[],[],[],[],0.556,1,275.87,276.371,,,,,,549,FEM,AGR,150,fase,la,a,0.556,,276.373,276.376,0.672453704,-0.08912037,0,0,0,,0,60,60,98,1,,,,
,,,,,,3dd6d7b5b2f251ddac167da4,66a626ef09d4e21e1a8894ec,673649c0788d71c1c21cee01,2024-11-14_13h05.17.293,Tarea de género gramatical,2024.2.2,Win32,144.092219,,,,,,,,,,,,,,,,,,,,,,,276.378,277.397,l,1,[],[],[],[],[],[],[],0.356,1,277.397,277.897,,,,,,690,MAS,AGR,150,ruido,el,l,0.356,,277.897,277.897,0.672453704,-0.08912037,0,0,0,,0,61,61,239,1,,,,
,,,,,,3dd6d7b5b2f251ddac167da4,66a626ef09d4e21e1a8894ec,673649c0788d71c1c21cee01,2024-11-14_13h05.17.293,Tarea de género gramatical,2024.2.2,Win32,144.092219,,,,,,,,,,,,,,,,,,,,,,,277.899,278.98,a,1,[],[],[],[],[],[],[],0.425,1,278.981,279.48,,,,,,457,FEM,CON,150,hora,,a,0.425,,279.48,279.48,0.672453704,-0.08912037,0,0,0,,0,62,62,6,1,,,,
,,,,,,3dd6d7b5b2f251ddac167da4,66a626ef09d4e21e1a8894ec,673649c0788d71c1c21cee01,2024-11-14_13h05.17.293,Tarea de género gramatical,2024.2.2,Win32,144.092219,,,,,,,,,,,,,,,,,,,,,,,279.483,280.521,l,1,[],[],[],[],[],[],[],0.376,1,280.521,281.021,,,,,,748,MAS,CON,150,botón,,l,0.376,,281.022,281.022,0.672453704,-0.08912037,0,0,0,,0,63,63,297,1,,,,
,,,,,,3dd6d7b5b2f251ddac167da4,66a626ef09d4e21e1a8894ec,673649c0788d71c1c21cee01,2024-11-14_13h05.17.293,Tarea de género gramatical,2024.2.2,Win32,144.092219,,,,,,,,,,,,,,,,,,,,,,,281.023,282.105,a,1,[],[],[],[],[],[],[],0.425,1,282.106,282.605,,,,,,667,FEM,CON,150,tarea,,a,0.425,,282.605,282.605,0.672453704,-0.08912037,0,0,0,,0,64,64,216,1,,,,
,,,,,,3dd6d7b5b2f251ddac167da4,66a626ef09d4e21e1a8894ec,673649c0788d71c1c21cee01,2024-11-14_13h05.17.293,Tarea de género gramatical,2024.2.2,Win32,144.092219,,,,,,,,,,,,,,,,,,,,,,,282.607,283.561,l,1,[],[],[],[],[],[],[],0.298,1,283.562,284.056,,,,,,623,MAS,DIS,150,libro,la,l,0.298,,284.058,284.06,0.672453704,-0.08912037,0,0,0,,0,65,65,172,1,,,,
,,,,,,3dd6d7b5b2f251ddac167da4,66a626ef09d4e21e1a8894ec,673649c0788d71c1c21cee01,2024-11-14_13h05.17.293,Tarea de género gramatical,2024.2.2,Win32,144.092219,,,,,,,,,,,,,,,,,,,,,,,284.062,285.144,l,1,[],[],[],[],[],[],[],0.423,1,285.144,285.646,,,,,,659,MAS,DIS,150,banco,la,l,0.423,,285.646,285.646,0.672453704,-0.08912037,0,0,0,,0,66,66,208,1,,,,
,,,,,,3dd6d7b5b2f251ddac167da4,66a626ef09d4e21e1a8894ec,673649c0788d71c1c21cee01,2024-11-14_13h05.17.293,Tarea de género gramatical,2024.2.2,Win32,144.092219,,,,,,,,,,,,,,,,,,,,,,,285.648,286.63,l,1,[],[],[],[],[],[],[],0.326,1,286.631,287.132,,,,,,496,MAS,CON,150,odio,,l,0.326,,287.132,287.132,0.672453704,-0.08912037,0,0,0,,0,67,67,45,1,,,,
,,,,,,3dd6d7b5b2f251ddac167da4,66a626ef09d4e21e1a8894ec,673649c0788d71c1c21cee01,2024-11-14_13h05.17.293,Tarea de género gramatical,2024.2.2,Win32,144.092219,,,,,,,,,,,,,,,,,,,,,,,287.133,288.118,a,1,[],[],[],[],[],[],[],0.327,1,288.119,288.619,,,,,,759,FEM,AGR,150,esposa,la,a,0.327,,288.619,288.619,0.672453704,-0.08912037,0,0,0,,0,68,68,308,1,,,,
,,,,,,3dd6d7b5b2f251ddac167da4,66a626ef09d4e21e1a8894ec,673649c0788d71c1c21cee01,2024-11-14_13h05.17.293,Tarea de género gramatical,2024.2.2,Win32,144.092219,,,,,,,,,,,,,,,,,,,,,,,288.62,289.826,a,1,[],[],[],[],[],[],[],0.543,1,289.826,290.327,,,,,,854,FEM,DIS,150,gloria,el,a,0.543,,290.328,290.33,0.672453704,-0.08912037,0,0,0,,0,69,69,403,1,,,,
,,,,,,3dd6d7b5b2f251ddac167da4,66a626ef09d4e21e1a8894ec,673649c0788d71c1c21cee01,2024-11-14_13h05.17.293,Tarea de género gramatical,2024.2.2,Win32,144.092219,,,,,,,,,,,,,,,,,,,,,,,290.331,291.449,l,1,[],[],[],[],[],[],[],0.454,1,291.449,291.944,,,,,,635,MAS,DIS,150,sueño,la,l,0.454,,291.944,291.944,0.672453704,-0.08912037,0,0,0,,0,70,70,184,1,,,,
,,,,,,3dd6d7b5b2f251ddac167da4,66a626ef09d4e21e1a8894ec,673649c0788d71c1c21cee01,2024-11-14_13h05.17.293,Tarea de género gramatical,2024.2.2,Win32,144.092219,,,,,,,,,,,,,,,,,,,,,,,291.947,293.007,l,1,[],[],[],[],[],[],[],0.399,1,293.008,293.508,,,,,,738,MAS,AGR,150,grado,el,l,0.399,,293.508,293.508,0.672453704,-0.08912037,0,0,0,,0,71,71,287,1,,,,
,,,,,,3dd6d7b5b2f251ddac167da4,66a626ef09d4e21e1a8894ec,673649c0788d71c1c21cee01,2024-11-14_13h05.17.293,Tarea de género gramatical,2024.2.2,Win32,144.092219,,,,,,,,,,,,,,,,,,,,,,,293.509,294.444,a,1,[],[],[],[],[],[],[],0.271,1,294.444,294.945,,,,,,655,FEM,CON,150,reina,,a,0.271,,294.945,294.945,0.672453704,-0.08912037,0,0,0,,0,72,72,204,1,,,,
,,,,,,3dd6d7b5b2f251ddac167da4,66a626ef09d4e21e1a8894ec,673649c0788d71c1c21cee01,2024-11-14_13h05.17.293,Tarea de género gramatical,2024.2.2,Win32,144.092219,,,,,,,,,,,,,,,,,,,,,,,294.947,295.91,l,1,[],[],[],[],[],[],[],0.305,1,295.911,296.41,,,,,,899,MAS,DIS,150,payaso,la,l,0.305,,296.41,296.411,0.672453704,-0.08912037,0,0,0,,0,73,73,448,1,,,,
,,,,,,3dd6d7b5b2f251ddac167da4,66a626ef09d4e21e1a8894ec,673649c0788d71c1c21cee01,2024-11-14_13h05.17.293,Tarea de género gramatical,2024.2.2,Win32,144.092219,,,,,,,,,,,,,,,,,,,,,,,296.412,297.348,l,1,[],[],[],[],[],[],[],0.278,1,297.348,297.848,,,,,,640,MAS,CON,150,campo,,l,0.278,,297.848,297.85,0.672453704,-0.08912037,0,0,0,,0,74,74,189,1,,,,
,,,,,,3dd6d7b5b2f251ddac167da4,66a626ef09d4e21e1a8894ec,673649c0788d71c1c21cee01,2024-11-14_13h05.17.293,Tarea de género gramatical,2024.2.2,Win32,144.092219,,,,,,,,,,,,,,,,,,,,,,,297.851,298.813,l,1,[],[],[],[],[],[],[],0.301,1,298.813,299.313,,,,,,588,MAS,AGR,150,luto,el,l,0.301,,299.313,299.313,0.672453704,-0.08912037,0,0,0,,0,75,75,137,1,,,,
,,,,,,3dd6d7b5b2f251ddac167da4,66a626ef09d4e21e1a8894ec,673649c0788d71c1c21cee01,2024-11-14_13h05.17.293,Tarea de género gramatical,2024.2.2,Win32,144.092219,,,,,,,,,,,,,,,,,,,,,,,299.315,300.341,a,1,[],[],[],[],[],[],[],0.366,1,300.341,300.842,,,,,,728,FEM,DIS,150,presa,el,a,0.366,,300.842,300.843,0.672453704,-0.08912037,0,0,0,,0,76,76,277,1,,,,
,,,,,,3dd6d7b5b2f251ddac167da4,66a626ef09d4e21e1a8894ec,673649c0788d71c1c21cee01,2024-11-14_13h05.17.293,Tarea de género gramatical,2024.2.2,Win32,144.092219,,,,,,,,,,,,,,,,,,,,,,,300.844,301.819,l,1,[],[],[],[],[],[],[],0.316,1,301.819,302.319,,,,,,616,MAS,CON,150,coche,,l,0.316,,302.319,302.319,0.672453704,-0.08912037,0,0,0,,0,77,77,165,1,,,,
,,,,,,3dd6d7b5b2f251ddac167da4,66a626ef09d4e21e1a8894ec,673649c0788d71c1c21cee01,2024-11-14_13h05.17.293,Tarea de género gramatical,2024.2.2,Win32,144.092219,,,,,,,,,,,,,,,,,,,,,,,302.32,303.402,l,1,[],[],[],[],[],[],[],0.424,1,303.402,303.903,,,,,,827,MAS,DIS,150,jardín,la,l,0.424,,303.905,303.906,0.672453704,-0.08912037,0,0,0,,0,78,78,376,1,,,,
,,,,,,3dd6d7b5b2f251ddac167da4,66a626ef09d4e21e1a8894ec,673649c0788d71c1c21cee01,2024-11-14_13h05.17.293,Tarea de género gramatical,2024.2.2,Win32,144.092219,,,,,,,,,,,,,,,,,,,,,,,303.908,304.918,l,1,[],[],[],[],[],[],[],0.349,1,304.921,305.417,,,,,,700,MAS,CON,150,cerdo,,l,0.349,,305.417,305.417,0.672453704,-0.08912037,0,0,0,,0,79,79,249,1,,,,
,,,,,,3dd6d7b5b2f251ddac167da4,66a626ef09d4e21e1a8894ec,673649c0788d71c1c21cee01,2024-11-14_13h05.17.293,Tarea de género gramatical,2024.2.2,Win32,144.092219,,,,,,,,,,,,,,,,,,,,,,,305.421,306.389,a,1,[],[],[],[],[],[],[],0.313,1,306.39,306.889,,,,,,451,FEM,CON,150,casa,,a,0.313,,306.889,306.89,0.672453704,-0.08912037,0,0,0,,0,80,80,0,1,,,,
,,,,,,3dd6d7b5b2f251ddac167da4,66a626ef09d4e21e1a8894ec,673649c0788d71c1c21cee01,2024-11-14_13h05.17.293,Tarea de género gramatical,2024.2.2,Win32,144.092219,,,,,,,,,,,,,,,,,,,,,,,306.891,307.883,l,1,[],[],[],[],[],[],[],0.334,1,307.883,308.382,,,,,,875,MAS,DIS,150,chiste,la,l,0.334,,308.382,308.382,0.672453704,-0.08912037,0,0,0,,0,81,81,424,1,,,,
,,,,,,3dd6d7b5b2f251ddac167da4,66a626ef09d4e21e1a8894ec,673649c0788d71c1c21cee01,2024-11-14_13h05.17.293,Tarea de género gramatical,2024.2.2,Win32,144.092219,,,,,,,,,,,,,,,,,,,,,,,308.384,309.347,a,1,[],[],[],[],[],[],[],0.306,1,309.348,309.847,,,,,,830,FEM,DIS,150,madera,el,a,0.306,,309.847,309.847,0.672453704,-0.08912037,0,0,0,,0,82,82,379,1,,,,
,,,,,,3dd6d7b5b2f251ddac167da4,66a626ef09d4e21e1a8894ec,673649c0788d71c1c21cee01,2024-11-14_13h05.17.293,Tarea de género gramatical,2024.2.2,Win32,144.092219,,,,,,,,,,,,,,,,,,,,,,,309.849,310.847,a,1,[],[],[],[],[],[],[],0.342,1,310.847,311.347,,,,,,603,FEM,AGR,150,mujer,la,a,0.342,,311.349,311.35,0.672453704,-0.08912037,0,0,0,,0,83,83,152,1,,,,
,,,,,,3dd6d7b5b2f251ddac167da4,66a626ef09d4e21e1a8894ec,673649c0788d71c1c21cee01,2024-11-14_13h05.17.293,Tarea de género gramatical,2024.2.2,Win32,144.092219,,,,,,,,,,,,,,,,,,,,,,,311.351,312.485,l,1,[],[],[],[],[],[],[],0.471,1,312.487,312.985,,,,,,563,MAS,DIS,150,toro,la,l,0.471,,312.985,312.987,0.672453704,-0.08912037,0,0,0,,0,84,84,112,1,,,,
,,,,,,3dd6d7b5b2f251ddac167da4,66a626ef09d4e21e1a8894ec,673649c0788d71c1c21cee01,2024-11-14_13h05.17.293,Tarea de género gramatical,2024.2.2,Win32,144.092219,,,,,,,,,,,,,,,,,,,,,,,312.988,313.979,l,1,[],[],[],[],[],[],[],0.335,1,313.979,314.476,,,,,,774,MAS,AGR,150,cuarto,el,l,0.335,,314.476,314.476,0.672453704,-0.08912037,0,0,0,,0,85,85,323,1,,,,
,,,,,,3dd6d7b5b2f251ddac167da4,66a626ef09d4e21e1a8894ec,673649c0788d71c1c21cee01,2024-11-14_13h05.17.293,Tarea de género gramatical,2024.2.2,Win32,144.092219,,,,,,,,,,,,,,,,,,,,,,,314.478,315.38,a,1,[],[],[],[],[],[],[],0.237,1,315.38,315.882,,,,,,637,FEM,CON,150,lista,,a,0.237,,315.882,315.882,0.672453704,-0.08912037,0,0,0,,0,86,86,186,1,,,,
,,,,,,3dd6d7b5b2f251ddac167da4,66a626ef09d4e21e1a8894ec,673649c0788d71c1c21cee01,2024-11-14_13h05.17.293,Tarea de género gramatical,2024.2.2,Win32,144.092219,,,,,,,,,,,,,,,,,,,,,,,315.884,316.888,a,1,[],[],[],[],[],[],[],0.34,1,316.888,317.389,,,,,,541,FEM,CON,150,hoja,,a,0.34,,317.39,317.392,0.672453704,-0.08912037,0,0,0,,0,87,87,90,1,,,,
,,,,,,3dd6d7b5b2f251ddac167da4,66a626ef09d4e21e1a8894ec,673649c0788d71c1c21cee01,2024-11-14_13h05.17.293,Tarea de género gramatical,2024.2.2,Win32,144.092219,,,,,,,,,,,,,,,,,,,,,,,317.393,318.284,l,1,[],[],[],[],[],[],[],0.233,1,318.285,318.784,,,,,,881,MAS,DIS,150,veneno,la,l,0.233,,318.784,318.785,0.672453704,-0.08912037,0,0,0,,0,88,88,430,1,,,,
,,,,,,3dd6d7b5b2f251ddac167da4,66a626ef09d4e21e1a8894ec,673649c0788d71c1c21cee01,2024-11-14_13h05.17.293,Tarea de género gramatical,2024.2.2,Win32,144.092219,,,,,,,,,,,,,,,,,,,,,,,318.785,319.789,l,0,[],[],[],[],[],[],[],0.347,0,319.79,320.284,,,,,,878,FEM,DIS,150,jugada,el,a,0.347,,320.285,320.285,0.672453704,-0.08912037,0,0,0,,0,89,89,427,1,,,,
,,,,,,3dd6d7b5b2f251ddac167da4,66a626ef09d4e21e1a8894ec,673649c0788d71c1c21cee01,2024-11-14_13h05.17.293,Tarea de género gramatical,2024.2.2,Win32,144.092219,,,,,,,,,,,,,,,,,,,,,,,320.287,321.263,a,1,[],[],[],[],[],[],[],0.319,1,321.264,321.763,,,,,,511,FEM,CON,150,ruta,,a,0.319,,321.764,321.764,0.672453704,-0.08912037,0,0,0,,0,90,90,60,1,,,,
,,,,,,3dd6d7b5b2f251ddac167da4,66a626ef09d4e21e1a8894ec,673649c0788d71c1c21cee01,2024-11-14_13h05.17.293,Tarea de género gramatical,2024.2.2,Win32,144.092219,,,,,,,,,,,,,,,,,,,,,,,321.766,322.763,l,1,[],[],[],[],[],[],[],0.341,1,322.765,323.262,,,,,,629,MAS,DIS,150,viaje,la,l,0.341,,323.262,323.263,0.672453704,-0.08912037,0,0,0,,0,91,91,178,1,,,,
,,,,,,3dd6d7b5b2f251ddac167da4,66a626ef09d4e21e1a8894ec,673649c0788d71c1c21cee01,2024-11-14_13h05.17.293,Tarea de género gramatical,2024.2.2,Win32,144.092219,,,,,,,,,,,,,,,,,,,,,,,323.264,324.262,l,1,[],[],[],[],[],[],[],0.341,1,324.262,324.762,,,,,,468,MAS,AGR,150,tren,el,l,0.341,,324.763,324.765,0.672453704,-0.08912037,0,0,0,,0,92,92,17,1,,,,
,,,,,,3dd6d7b5b2f251ddac167da4,66a626ef09d4e21e1a8894ec,673649c0788d71c1c21cee01,2024-11-14_13h05.17.293,Tarea de género gramatical,2024.2.2,Win32,144.092219,,,,,,,,,,,,,,,,,,,,,,,324.766,325.723,a,1,[],[],[],[],[],[],[],0.292,1,325.723,326.219,,,,,,764,FEM,DIS,150,señora,el,a,0.292,,326.219,326.22,0.672453704,-0.08912037,0,0,0,,0,93,93,313,1,,,,
,,,,,,3dd6d7b5b2f251ddac167da4,66a626ef09d4e21e1a8894ec,673649c0788d71c1c21cee01,2024-11-14_13h05.17.293,Tarea de género gramatical,2024.2.2,Win32,144.092219,,,,,,,,,,,,,,,,,,,,,,,326.221,327.25,l,1,[],[],[],[],[],[],[],0.371,1,327.25,327.75,,,,,,792,MAS,AGR,150,abuelo,el,l,0.371,,327.75,327.75,0.672453704,-0.08912037,0,0,0,,0,94,94,341,1,,,,
,,,,,,3dd6d7b5b2f251ddac167da4,66a626ef09d4e21e1a8894ec,673649c0788d71c1c21cee01,2024-11-14_13h05.17.293,Tarea de género gramatical,2024.2.2,Win32,144.092219,,,,,,,,,,,,,,,,,,,,,,,327.751,328.721,a,1,[],[],[],[],[],[],[],0.309,1,328.722,329.221,,,,,,843,FEM,AGR,150,alarma,la,a,0.309,,329.221,329.221,0.672453704,-0.08912037,0,0,0,,0,95,95,392,1,,,,
,,,,,,3dd6d7b5b2f251ddac167da4,66a626ef09d4e21e1a8894ec,673649c0788d71c1c21cee01,2024-11-14_13h05.17.293,Tarea de género gramatical,2024.2.2,Win32,144.092219,,,,,,,,,,,,,,,,,,,,,,,329.223,330.16,l,1,[],[],[],[],[],[],[],0.274,1,330.16,330.653,,,,,,570,MAS,AGR,150,puño,el,l,0.274,,330.654,330.656,0.672453704,-0.08912037,0,0,0,,0,96,96,119,1,,,,
,,,,,,3dd6d7b5b2f251ddac167da4,66a626ef09d4e21e1a8894ec,673649c0788d71c1c21cee01,2024-11-14_13h05.17.293,Tarea de género gramatical,2024.2.2,Win32,144.092219,,,,,,,,,,,,,,,,,,,,,,,330.657,331.618,a,1,[],[],[],[],[],[],[],0.299,1,331.619,332.118,,,,,,481,FEM,CON,150,edad,,a,0.299,,332.118,332.118,0.672453704,-0.08912037,0,0,0,,0,97,97,30,1,,,,
,,,,,,3dd6d7b5b2f251ddac167da4,66a626ef09d4e21e1a8894ec,673649c0788d71c1c21cee01,2024-11-14_13h05.17.293,Tarea de género gramatical,2024.2.2,Win32,144.092219,,,,,,,,,,,,,,,,,,,,,,,332.119,333.403,l,0,[],[],[],[],[],[],[],0.627,0,333.404,333.902,,,,,,585,FEM,AGR,150,raíz,la,a,0.627,,333.902,333.902,0.672453704,-0.08912037,0,0,0,,0,98,98,134,1,,,,
,,,,,,3dd6d7b5b2f251ddac167da4,66a626ef09d4e21e1a8894ec,673649c0788d71c1c21cee01,2024-11-14_13h05.17.293,Tarea de género gramatical,2024.2.2,Win32,144.092219,,,,,,,,,,,,,,,,,,,,,,,333.903,334.951,a,1,[],[],[],[],[],[],[],0.39,1,334.955,335.451,,,,,,584,FEM,DIS,150,rama,el,a,0.39,,335.451,335.452,0.672453704,-0.08912037,0,0,0,,0,99,99,133,1,,,,
,,,,,,3dd6d7b5b2f251ddac167da4,66a626ef09d4e21e1a8894ec,673649c0788d71c1c21cee01,2024-11-14_13h05.17.293,Tarea de género gramatical,2024.2.2,Win32,144.092219,,,,,,,,,,,,,,,,,,,,,,,335.456,336.56,l,1,[],[],[],[],[],[],[],0.443,1,336.561,337.055,,,,,,852,MAS,AGR,150,ladrón,el,l,0.443,,337.055,337.055,0.672453704,-0.08912037,0,0,0,,0,100,100,401,1,,,,
,,,,,,3dd6d7b5b2f251ddac167da4,66a626ef09d4e21e1a8894ec,673649c0788d71c1c21cee01,2024-11-14_13h05.17.293,Tarea de género gramatical,2024.2.2,Win32,144.092219,,,,,,,,,,,,,,,,,,,,,,,337.057,338.104,a,1,[],[],[],[],[],[],[],0.385,1,338.105,338.603,,,,,,867,FEM,AGR,150,cabaña,la,a,0.385,,338.604,338.606,0.672453704,-0.08912037,0,0,0,,0,101,101,416,1,,,,
,,,,,,3dd6d7b5b2f251ddac167da4,66a626ef09d4e21e1a8894ec,673649c0788d71c1c21cee01,2024-11-14_13h05.17.293,Tarea de género gramatical,2024.2.2,Win32,144.092219,,,,,,,,,,,,,,,,,,,,,,,338.608,339.68,l,1,[],[],[],[],[],[],[],0.411,1,339.681,340.179,,,,,,804,MAS,AGR,150,camión,el,l,0.411,,340.18,340.18,0.672453704,-0.08912037,0,0,0,,0,102,102,353,1,,,,
,,,,,,3dd6d7b5b2f251ddac167da4,66a626ef09d4e21e1a8894ec,673649c0788d71c1c21cee01,2024-11-14_13h05.17.293,Tarea de género gramatical,2024.2.2,Win32,144.092219,,,,,,,,,,,,,,,,,,,,,,,340.181,341.43,a,1,[],[],[],[],[],[],[],0.592,1,341.431,341.928,,,,,,661,FEM,CON,150,salud,,a,0.592,,341.929,341.929,0.672453704,-0.08912037,0,0,0,,0,103,103,210,1,,,,
,,,,,,3dd6d7b5b2f251ddac167da4,66a626ef09d4e21e1a8894ec,673649c0788d71c1c21cee01,2024-11-14_13h05.17.293,Tarea de género gramatical,2024.2.2,Win32,144.092219,,,,,,,,,,,,,,,,,,,,,,,341.931,343.305,l,0,[],[],[],[],[],[],[],0.716,0,343.306,343.804,,,,,,800,FEM,DIS,150,imagen,el,a,0.716,,343.804,343.805,0.672453704,-0.08912037,0,0,0,,0,104,104,349,1,,,,
,,,,,,3dd6d7b5b2f251ddac167da4,66a626ef09d4e21e1a8894ec,673649c0788d71c1c21cee01,2024-11-14_13h05.17.293,Tarea de género gramatical,2024.2.2,Win32,144.092219,,,,,,,,,,,,,,,,,,,,,,,343.806,344.936,a,1,[],[],[],[],[],[],[],0.475,1,344.939,345.436,,,,,,609,FEM,AGR,150,clase,la,a,0.475,,345.438,345.441,0.672453704,-0.08912037,0,0,0,,0,105,105,158,1,,,,
,,,,,,3dd6d7b5b2f251ddac167da4,66a626ef09d4e21e1a8894ec,673649c0788d71c1c21cee01,2024-11-14_13h05.17.293,Tarea de género gramatical,2024.2.2,Win32,144.092219,,,,,,,,,,,,,,,,,,,,,,,345.443,346.526,l,1,[],[],[],[],[],[],[],0.425,1,346.526,347.027,,,,,,472,MAS,CON,150,pelo,,l,0.425,,347.027,347.027,0.672453704,-0.08912037,0,0,0,,0,106,106,21,1,,,,
,,,,,,3dd6d7b5b2f251ddac167da4,66a626ef09d4e21e1a8894ec,673649c0788d71c1c21cee01,2024-11-14_13h05.17.293,Tarea de género gramatical,2024.2.2,Win32,144.092219,,,,,,,,,,,,,,,,,,,,,,,347.028,347.999,a,1,[],[],[],[],[],[],[],0.313,1,347.999,348.499,,,,,,788,FEM,DIS,150,abuela,el,a,0.313,,348.499,348.499,0.672453704,-0.08912037,0,0,0,,0,107,107,337,1,,,,
,,,,,,3dd6d7b5b2f251ddac167da4,66a626ef09d4e21e1a8894ec,673649c0788d71c1c21cee01,2024-11-14_13h05.17.293,Tarea de género gramatical,2024.2.2,Win32,144.092219,,,,,,,,,,,,,,,,,,,,,,,348.501,349.693,l,1,[],[],[],[],[],[],[],0.535,1,349.693,350.193,,,,,,582,MAS,AGR,150,velo,el,l,0.535,,350.193,350.193,0.672453704,-0.08912037,0,0,0,,0,108,108,131,1,,,,
,,,,,,3dd6d7b5b2f251ddac167da4,66a626ef09d4e21e1a8894ec,673649c0788d71c1c21cee01,2024-11-14_13h05.17.293,Tarea de género gramatical,2024.2.2,Win32,144.092219,,,,,,,,,,,,,,,,,,,,,,,350.195,351.131,a,1,[],[],[],[],[],[],[],0.28,1,351.132,351.631,,,,,,559,FEM,CON,150,gota,,a,0.28,,351.632,351.632,0.672453704,-0.08912037,0,0,0,,0,109,109,108,1,,,,
,,,,,,3dd6d7b5b2f251ddac167da4,66a626ef09d4e21e1a8894ec,673649c0788d71c1c21cee01,2024-11-14_13h05.17.293,Tarea de género gramatical,2024.2.2,Win32,144.092219,,,,,,,,,,,,,,,,,,,,,,,351.633,352.88,a,1,[],[],[],[],[],[],[],0.586,1,352.88,353.381,,,,,,645,FEM,AGR,150,pared,la,a,0.586,,353.382,353.384,0.672453704,-0.08912037,0,0,0,,0,110,110,194,1,,,,
,,,,,,3dd6d7b5b2f251ddac167da4,66a626ef09d4e21e1a8894ec,673649c0788d71c1c21cee01,2024-11-14_13h05.17.293,Tarea de género gramatical,2024.2.2,Win32,144.092219,,,,,,,,,,,,,,,,,,,,,,,353.385,354.465,a,1,[],[],[],[],[],[],[],0.418,1,354.465,354.964,,,,,,620,FEM,DIS,150,carta,el,a,0.418,,354.964,354.964,0.672453704,-0.08912037,0,0,0,,0,111,111,169,1,,,,
,,,,,,3dd6d7b5b2f251ddac167da4,66a626ef09d4e21e1a8894ec,673649c0788d71c1c21cee01,2024-11-14_13h05.17.293,Tarea de género gramatical,2024.2.2,Win32,144.092219,,,,,,,,,,,,,,,,,,,,,,,354.965,356.015,l,1,[],[],[],[],[],[],[],0.392,1,356.015,356.513,,,,,,772,MAS,CON,150,minuto,,l,0.392,,356.513,356.513,0.672453704,-0.08912037,0,0,0,,0,112,112,321,1,,,,
,,,,,,3dd6d7b5b2f251ddac167da4,66a626ef09d4e21e1a8894ec,673649c0788d71c1c21cee01,2024-11-14_13h05.17.293,Tarea de género gramatical,2024.2.2,Win32,144.092219,,,,,,,,,,,,,,,,,,,,,,,356.515,358.09,a,0,[],[],[],[],[],[],[],0.919,0,358.092,358.589,,,,,,474,MAS,AGR,150,voto,el,l,0.919,,358.589,358.589,0.672453704,-0.08912037,0,0,0,,0,113,113,23,1,,,,
,,,,,,3dd6d7b5b2f251ddac167da4,66a626ef09d4e21e1a8894ec,673649c0788d71c1c21cee01,2024-11-14_13h05.17.293,Tarea de género gramatical,2024.2.2,Win32,144.092219,,,,,,,,,,,,,,,,,,,,,,,358.591,359.555,a,1,[],[],[],[],[],[],[],0.302,1,359.557,360.052,,,,,,482,FEM,DIS,150,caja,el,a,0.302,,360.053,360.055,0.672453704,-0.08912037,0,0,0,,0,114,114,31,1,,,,
,,,,,,3dd6d7b5b2f251ddac167da4,66a626ef09d4e21e1a8894ec,673649c0788d71c1c21cee01,2024-11-14_13h05.17.293,Tarea de género gramatical,2024.2.2,Win32,144.092219,,,,,,,,,,,,,,,,,,,,,,,360.056,361.054,l,1,[],[],[],[],[],[],[],0.343,1,361.055,361.554,,,,,,874,MAS,CON,150,rastro,,l,0.343,,361.555,361.555,0.672453704,-0.08912037,0,0,0,,0,115,115,423,1,,,,
,,,,,,3dd6d7b5b2f251ddac167da4,66a626ef09d4e21e1a8894ec,673649c0788d71c1c21cee01,2024-11-14_13h05.17.293,Tarea de género gramatical,2024.2.2,Win32,144.092219,,,,,,,,,,,,,,,,,,,,,,,361.556,362.582,l,1,[],[],[],[],[],[],[],0.368,1,362.582,363.081,,,,,,726,MAS,AGR,150,ritmo,el,l,0.368,,363.081,363.081,0.672453704,-0.08912037,0,0,0,,0,116,116,275,1,,,,
,,,,,,3dd6d7b5b2f251ddac167da4,66a626ef09d4e21e1a8894ec,673649c0788d71c1c21cee01,2024-11-14_13h05.17.293,Tarea de género gramatical,2024.2.2,Win32,144.092219,,,,,,,,,,,,,,,,,,,,,,,363.083,364.221,l,1,[],[],[],[],[],[],[],0.479,1,364.221,364.719,,,,,,486,MAS,AGR,150,dedo,el,l,0.479,,364.719,364.72,0.672453704,-0.08912037,0,0,0,,0,117,117,35,1,,,,
,,,,,,3dd6d7b5b2f251ddac167da4,66a626ef09d4e21e1a8894ec,673649c0788d71c1c21cee01,2024-11-14_13h05.17.293,Tarea de género gramatical,2024.2.2,Win32,144.092219,,,,,,,,,,,,,,,,,,,,,,,364.722,365.749,a,1,[],[],[],[],[],[],[],0.369,1,365.75,366.248,,,,,,883,FEM,CON,150,huella,,a,0.369,,366.249,366.249,0.672453704,-0.08912037,0,0,0,,0,118,118,432,1,,,,
,,,,,,3dd6d7b5b2f251ddac167da4,66a626ef09d4e21e1a8894ec,673649c0788d71c1c21cee01,2024-11-14_13h05.17.293,Tarea de género gramatical,2024.2.2,Win32,144.092219,,,,,,,,,,,,,,,,,,,,,,,366.252,367.234,l,1,[],[],[],[],[],[],[],0.322,1,367.235,367.736,,,,,,497,MAS,DIS,150,olor,la,l,0.322,,367.737,367.74,0.672453704,-0.08912037,0,0,0,,0,119,119,46,1,,,,
,,,,,,3dd6d7b5b2f251ddac167da4,66a626ef09d4e21e1a8894ec,673649c0788d71c1c21cee01,2024-11-14_13h05.17.293,Tarea de género gramatical,2024.2.2,Win32,144.092219,,,,,,,,,,,,,,,,,,,,,,,367.742,368.707,a,1,[],[],[],[],[],[],[],0.307,1,368.707,369.207,,,,,,859,FEM,CON,150,moneda,,a,0.307,,369.207,369.207,0.672453704,-0.08912037,0,0,0,,0,120,120,408,1,,,,
,,,,,,3dd6d7b5b2f251ddac167da4,66a626ef09d4e21e1a8894ec,673649c0788d71c1c21cee01,2024-11-14_13h05.17.293,Tarea de género gramatical,2024.2.2,Win32,144.092219,,,,,,,,,,,,,,,,,,,,,,,369.209,370.158,l,1,[],[],[],[],[],[],[],0.293,1,370.159,370.658,,,,,,652,MAS,CON,150,honor,,l,0.293,,370.658,370.659,0.672453704,-0.08912037,0,0,0,,0,121,121,201,1,,,,
,,,,,,3dd6d7b5b2f251ddac167da4,66a626ef09d4e21e1a8894ec,673649c0788d71c1c21cee01,2024-11-14_13h05.17.293,Tarea de género gramatical,2024.2.2,Win32,144.092219,,,,,,,,,,,,,,,,,,,,,,,370.66,371.797,a,1,[],[],[],[],[],[],[],0.472,1,371.797,372.297,,,,,,861,FEM,AGR,150,actriz,la,a,0.472,,372.297,372.298,0.672453704,-0.08912037,0,0,0,,0,122,122,410,1,,,,
,,,,,,3dd6d7b5b2f251ddac167da4,66a626ef09d4e21e1a8894ec,673649c0788d71c1c21cee01,2024-11-14_13h05.17.293,Tarea de género gramatical,2024.2.2,Win32,144.092219,,,,,,,,,,,,,,,,,,,,,,,372.299,373.332,l,1,[],[],[],[],[],[],[],0.375,1,373.332,373.832,,,,,,900,MAS,AGR,150,conejo,el,l,0.375,,373.833,373.836,0.672453704,-0.08912037,0,0,0,,0,123,123,449,1,,,,
,,,,,,3dd6d7b5b2f251ddac167da4,66a626ef09d4e21e1a8894ec,673649c0788d71c1c21cee01,2024-11-14_13h05.17.293,Tarea de género gramatical,2024.2.2,Win32,144.092219,,,,,,,,,,,,,,,,,,,,,,,373.837,374.852,l,1,[],[],[],[],[],[],[],0.355,1,374.853,375.35,,,,,,604,MAS,CON,150,padre,,l,0.355,,375.35,375.35,0.672453704,-0.08912037,0,0,0,,0,124,124,153,1,,,,
,,,,,,3dd6d7b5b2f251ddac167da4,66a626ef09d4e21e1a8894ec,673649c0788d71c1c21cee01,2024-11-14_13h05.17.293,Tarea de género gramatical,2024.2.2,Win32,144.092219,,,,,,,,,,,,,,,,,,,,,,,375.352,376.407,a,1,[],[],[],[],[],[],[],0.397,1,376.407,376.904,,,,,,596,FEM,DIS,150,lana,el,a,0.397,,376.904,376.905,0.672453704,-0.08912037,0,0,0,,0,125,125,145,1,,,,
,,,,,,3dd6d7b5b2f251ddac167da4,66a626ef09d4e21e1a8894ec,673649c0788d71c1c21cee01,2024-11-14_13h05.17.293,Tarea de género gramatical,2024.2.2,Win32,144.092219,,,,,,,,,,,,,,,,,,,,,,,376.906,377.919,a,1,[],[],[],[],[],[],[],0.35,1,377.919,378.415,,,,,,494,FEM,DIS,150,zona,el,a,0.35,,378.415,378.415,0.672453704,-0.08912037,0,0,0,,0,126,126,43,1,,,,
,,,,,,3dd6d7b5b2f251ddac167da4,66a626ef09d4e21e1a8894ec,673649c0788d71c1c21cee01,2024-11-14_13h05.17.293,Tarea de género gramatical,2024.2.2,Win32,144.092219,,,,,,,,,,,,,,,,,,,,,,,378.417,379.346,a,1,[],[],[],[],[],[],[],0.273,1,379.346,379.845,,,,,,751,FEM,CON,150,verdad,,a,0.273,,379.845,379.845,0.672453704,-0.08912037,0,0,0,,0,127,127,300,1,,,,
,,,,,,3dd6d7b5b2f251ddac167da4,66a626ef09d4e21e1a8894ec,673649c0788d71c1c21cee01,2024-11-14_13h05.17.293,Tarea de género gramatical,2024.2.2,Win32,144.092219,,,,,,,,,,,,,,,,,,,,,,,379.847,380.797,a,1,[],[],[],[],[],[],[],0.294,1,380.797,381.296,,,,,,619,FEM,CON,150,vista,,a,0.294,,381.298,381.299,0.672453704,-0.08912037,0,0,0,,0,128,128,168,1,,,,
,,,,,,3dd6d7b5b2f251ddac167da4,66a626ef09d4e21e1a8894ec,673649c0788d71c1c21cee01,2024-11-14_13h05.17.293,Tarea de género gramatical,2024.2.2,Win32,144.092219,,,,,,,,,,,,,,,,,,,,,,,381.301,382.234,a,1,[],[],[],[],[],[],[],0.272,1,382.235,382.734,,,,,,465,FEM,AGR,150,cama,la,a,0.272,,382.734,382.734,0.672453704,-0.08912037,0,0,0,,0,129,129,14,1,,,,
,,,,,,3dd6d7b5b2f251ddac167da4,66a626ef09d4e21e1a8894ec,673649c0788d71c1c21cee01,2024-11-14_13h05.17.293,Tarea de género gramatical,2024.2.2,Win32,144.092219,,,,,,,,,,,,,,,,,,,,,,,382.736,383.664,l,1,[],[],[],[],[],[],[],0.27,1,383.665,384.162,,,,,,492,MAS,AGR,150,show,el,l,0.27,,384.162,384.162,0.672453704,-0.08912037,0,0,0,,0,130,130,41,1,,,,
,,,,,,3dd6d7b5b2f251ddac167da4,66a626ef09d4e21e1a8894ec,673649c0788d71c1c21cee01,2024-11-14_13h05.17.293,Tarea de género gramatical,2024.2.2,Win32,144.092219,,,,,,,,,,,,,,,,,,,,,,,384.164,385.103,a,0,[],[],[],[],[],[],[],0.281,0,385.104,385.599,,,,,,581,MAS,DIS,150,kilo,la,l,0.281,,385.599,385.599,0.672453704,-0.08912037,0,0,0,,0,131,131,130,1,,,,
,,,,,,3dd6d7b5b2f251ddac167da4,66a626ef09d4e21e1a8894ec,673649c0788d71c1c21cee01,2024-11-14_13h05.17.293,Tarea de género gramatical,2024.2.2,Win32,144.092219,,,,,,,,,,,,,,,,,,,,,,,385.601,386.666,a,0,[],[],[],[],[],[],[],0.406,0,386.666,387.166,,,,,,707,MAS,DIS,150,pecho,la,l,0.406,,387.168,387.169,0.672453704,-0.08912037,0,0,0,,0,132,132,256,1,,,,
,,,,,,3dd6d7b5b2f251ddac167da4,66a626ef09d4e21e1a8894ec,673649c0788d71c1c21cee01,2024-11-14_13h05.17.293,Tarea de género gramatical,2024.2.2,Win32,144.092219,,,,,,,,,,,,,,,,,,,,,,,387.17,388.301,l,1,[],[],[],[],[],[],[],0.465,1,388.303,388.801,,,,,,730,MAS,CON,150,salón,,l,0.465,,388.801,388.801,0.672453704,-0.08912037,0,0,0,,0,133,133,279,1,,,,
,,,,,,3dd6d7b5b2f251ddac167da4,66a626ef09d4e21e1a8894ec,673649c0788d71c1c21cee01,2024-11-14_13h05.17.293,Tarea de género gramatical,2024.2.2,Win32,144.092219,,,,,,,,,,,,,,,,,,,,,,,388.802,389.705,l,1,[],[],[],[],[],[],[],0.244,1,389.705,390.206,,,,,,586,MAS,CON,150,vago,,l,0.244,,390.206,390.207,0.672453704,-0.08912037,0,0,0,,0,134,134,135,1,,,,
,,,,,,3dd6d7b5b2f251ddac167da4,66a626ef09d4e21e1a8894ec,673649c0788d71c1c21cee01,2024-11-14_13h05.17.293,Tarea de género gramatical,2024.2.2,Win32,144.092219,,,,,,,,,,,,,,,,,,,,,,,390.208,391.102,l,1,[],[],[],[],[],[],[],0.238,1,391.103,391.602,,,,,,689,MAS,DIS,150,reloj,la,l,0.238,,391.602,391.602,0.672453704,-0.08912037,0,0,0,,0,135,135,238,1,,,,
,,,,,,3dd6d7b5b2f251ddac167da4,66a626ef09d4e21e1a8894ec,673649c0788d71c1c21cee01,2024-11-14_13h05.17.293,Tarea de género gramatical,2024.2.2,Win32,144.092219,,,,,,,,,,,,,,,,,,,,,,,391.603,392.581,l,1,[],[],[],[],[],[],[],0.32,1,392.583,393.081,,,,,,743,MAS,DIS,150,patio,la,l,0.32,,393.081,393.081,0.672453704,-0.08912037,0,0,0,,0,136,136,292,1,,,,
,,,,,,3dd6d7b5b2f251ddac167da4,66a626ef09d4e21e1a8894ec,673649c0788d71c1c21cee01,2024-11-14_13h05.17.293,Tarea de género gramatical,2024.2.2,Win32,144.092219,,,,,,,,,,,,,,,,,,,,,,,393.082,393.992,l,1,[],[],[],[],[],[],[],0.254,1,393.992,394.491,,,,,,713,MAS,DIS,150,carro,la,l,0.254,,394.492,394.494,0.672453704,-0.08912037,0,0,0,,0,137,137,262,1,,,,
,,,,,,3dd6d7b5b2f251ddac167da4,66a626ef09d4e21e1a8894ec,673649c0788d71c1c21cee01,2024-11-14_13h05.17.293,Tarea de género gramatical,2024.2.2,Win32,144.092219,,,,,,,,,,,,,,,,,,,,,,,394.495,395.505,a,1,[],[],[],[],[],[],[],0.348,1,395.505,396.005,,,,,,824,FEM,DIS,150,herida,el,a,0.348,,396.005,396.006,0.672453704,-0.08912037,0,0,0,,0,138,138,373,1,,,,
,,,,,,3dd6d7b5b2f251ddac167da4,66a626ef09d4e21e1a8894ec,673649c0788d71c1c21cee01,2024-11-14_13h05.17.293,Tarea de género gramatical,2024.2.2,Win32,144.092219,,,,,,,,,,,,,,,,,,,,,,,396.007,397.024,a,1,[],[],[],[],[],[],[],0.353,1,397.026,397.524,,,,,,687,FEM,AGR,150,ducha,la,a,0.353,,397.524,397.525,0.672453704,-0.08912037,0,0,0,,0,139,139,236,1,,,,
,,,,,,3dd6d7b5b2f251ddac167da4,66a626ef09d4e21e1a8894ec,673649c0788d71c1c21cee01,2024-11-14_13h05.17.293,Tarea de género gramatical,2024.2.2,Win32,144.092219,,,,,,,,,,,,,,,,,,,,,,,397.528,398.505,l,0,[],[],[],[],[],[],[],0.32,0,398.506,399.005,,,,,,601,FEM,CON,150,noche,,a,0.32,,399.005,399.005,0.672453704,-0.08912037,0,0,0,,0,140,140,150,1,,,,
,,,,,,3dd6d7b5b2f251ddac167da4,66a626ef09d4e21e1a8894ec,673649c0788d71c1c21cee01,2024-11-14_13h05.17.293,Tarea de género gramatical,2024.2.2,Win32,144.092219,,,,,,,,,,,,,,,,,,,,,,,399.006,400.115,a,1,[],[],[],[],[],[],[],0.453,1,400.116,400.61,,,,,,691,FEM,CON,150,pasta,,a,0.453,,400.611,400.615,0.672453704,-0.08912037,0,0,0,,0,141,141,240,1,,,,
,,,,,,3dd6d7b5b2f251ddac167da4,66a626ef09d4e21e1a8894ec,673649c0788d71c1c21cee01,2024-11-14_13h05.17.293,Tarea de género gramatical,2024.2.2,Win32,144.092219,,,,,,,,,,,,,,,,,,,,,,,400.617,401.587,a,1,[],[],[],[],[],[],[],0.311,1,401.588,402.085,,,,,,698,FEM,DIS,150,letra,el,a,0.311,,402.085,402.085,0.672453704,-0.08912037,0,0,0,,0,142,142,247,1,,,,
,,,,,,3dd6d7b5b2f251ddac167da4,66a626ef09d4e21e1a8894ec,673649c0788d71c1c21cee01,2024-11-14_13h05.17.293,Tarea de género gramatical,2024.2.2,Win32,144.092219,,,,,,,,,,,,,,,,,,,,,,,402.087,403.213,l,1,[],[],[],[],[],[],[],0.468,1,403.214,403.709,,,,,,599,MAS,DIS,150,nudo,la,l,0.468,,403.709,403.71,0.672453704,-0.08912037,0,0,0,,0,143,143,148,1,,,,
,,,,,,3dd6d7b5b2f251ddac167da4,66a626ef09d4e21e1a8894ec,673649c0788d71c1c21cee01,2024-11-14_13h05.17.293,Tarea de género gramatical,2024.2.2,Win32,144.092219,,,,,,,,,,,,,,,,,,,,,,,403.71,404.894,l,1,[],[],[],[],[],[],[],0.523,1,404.894,405.393,,,,,,556,MAS,CON,150,test,,l,0.523,,405.393,405.393,0.672453704,-0.08912037,0,0,0,,0,144,144,105,1,,,,
,,,,,,3dd6d7b5b2f251ddac167da4,66a626ef09d4e21e1a8894ec,673649c0788d71c1c21cee01,2024-11-14_13h05.17.293,Tarea de género gramatical,2024.2.2,Win32,144.092219,,,,,,,,,,,,,,,,,,,,,,,405.396,406.696,l,1,[],[],[],[],[],[],[],0.639,1,406.698,407.198,,,,,,719,MAS,DIS,150,primo,la,l,0.639,,407.198,407.198,0.672453704,-0.08912037,0,0,0,,0,145,145,268,1,,,,
,,,,,,3dd6d7b5b2f251ddac167da4,66a626ef09d4e21e1a8894ec,673649c0788d71c1c21cee01,2024-11-14_13h05.17.293,Tarea de género gramatical,2024.2.2,Win32,144.092219,,,,,,,,,,,,,,,,,,,,,,,407.2,408.164,l,1,[],[],[],[],[],[],[],0.307,1,408.164,408.664,,,,,,664,MAS,CON,150,fondo,,l,0.307,,408.666,408.668,0.672453704,-0.08912037,0,0,0,,0,146,146,213,1,,,,
,,,,,,3dd6d7b5b2f251ddac167da4,66a626ef09d4e21e1a8894ec,673649c0788d71c1c21cee01,2024-11-14_13h05.17.293,Tarea de género gramatical,2024.2.2,Win32,144.092219,,,,,,,,,,,,,,,,,,,,,,,408.669,409.622,a,1,[],[],[],[],[],[],[],0.292,1,409.624,410.122,,,,,,608,FEM,DIS,150,chica,el,a,0.292,,410.122,410.123,0.672453704,-0.08912037,0,0,0,,0,147,147,157,1,,,,
,,,,,,3dd6d7b5b2f251ddac167da4,66a626ef09d4e21e1a8894ec,673649c0788d71c1c21cee01,2024-11-14_13h05.17.293,Tarea de género gramatical,2024.2.2,Win32,144.092219,,,,,,,,,,,,,,,,,,,,,,,410.125,411.039,a,1,[],[],[],[],[],[],[],0.251,1,411.039,411.539,,,,,,523,FEM,CON,150,roca,,a,0.251,,411.539,411.539,0.672453704,-0.08912037,0,0,0,,0,148,148,72,1,,,,
,,,,,,3dd6d7b5b2f251ddac167da4,66a626ef09d4e21e1a8894ec,673649c0788d71c1c21cee01,2024-11-14_13h05.17.293,Tarea de género gramatical,2024.2.2,Win32,144.092219,,,,,,,,,,,,,,,,,,,,,,,411.541,412.413,a,1,[],[],[],[],[],[],[],0.215,1,412.414,412.913,,,,,,501,FEM,AGR,150,bala,la,a,0.215,,412.914,412.915,0.672453704,-0.08912037,0,0,0,,0,149,149,50,1,,,,
,,,,,,3dd6d7b5b2f251ddac167da4,66a626ef09d4e21e1a8894ec,673649c0788d71c1c21cee01,2024-11-14_13h05.17.293,Tarea de género gramatical,2024.2.2,Win32,144.092219,,,,,,,,,,,,,,,,,,,,,,,412.916,413.831,a,1,[],[],[],[],[],[],[],0.258,1,413.831,414.33,,,,,,493,FEM,CON,150,nena,,a,0.258,,414.331,425.032,0.672453704,-0.08912037,0,0,0,space,0,150,150,42,1,10.674,,,
,,,,,,3dd6d7b5b2f251ddac167da4,66a626ef09d4e21e1a8894ec,673649c0788d71c1c21cee01,2024-11-14_13h05.17.293,Tarea de género gramatical,2024.2.2,Win32,144.092219,,,,,,,,,,,,,,,,,,,,,,,425.035,427.685,,0,[],[],[],[],[],[],[],0.258,-1,427.689,428.186,,,,,,818,FEM,DIS,150,gracia,el,a,,,428.186,428.188,0.672453704,-0.08912037,0,0,0,,0,151,151,367,1,,,,
,,,,,,3dd6d7b5b2f251ddac167da4,66a626ef09d4e21e1a8894ec,673649c0788d71c1c21cee01,2024-11-14_13h05.17.293,Tarea de género gramatical,2024.2.2,Win32,144.092219,,,,,,,,,,,,,,,,,,,,,,,428.192,429.142,l,1,[],[],[],[],[],[],[],0.292,1,429.143,429.643,,,,,,718,MAS,CON,150,truco,,l,0.292,,429.643,429.643,0.672453704,-0.08912037,0,0,0,,0,152,152,267,1,,,,
,,,,,,3dd6d7b5b2f251ddac167da4,66a626ef09d4e21e1a8894ec,673649c0788d71c1c21cee01,2024-11-14_13h05.17.293,Tarea de género gramatical,2024.2.2,Win32,144.092219,,,,,,,,,,,,,,,,,,,,,,,429.645,430.684,a,1,[],[],[],[],[],[],[],0.381,1,430.685,431.185,,,,,,872,FEM,DIS,150,rutina,el,a,0.381,,431.185,431.185,0.672453704,-0.08912037,0,0,0,,0,153,153,421,1,,,,
,,,,,,3dd6d7b5b2f251ddac167da4,66a626ef09d4e21e1a8894ec,673649c0788d71c1c21cee01,2024-11-14_13h05.17.293,Tarea de género gramatical,2024.2.2,Win32,144.092219,,,,,,,,,,,,,,,,,,,,,,,431.187,432.15,l,1,[],[],[],[],[],[],[],0.302,1,432.152,432.649,,,,,,600,MAS,AGR,150,mozo,el,l,0.302,,432.649,432.649,0.672453704,-0.08912037,0,0,0,,0,154,154,149,1,,,,
,,,,,,3dd6d7b5b2f251ddac167da4,66a626ef09d4e21e1a8894ec,673649c0788d71c1c21cee01,2024-11-14_13h05.17.293,Tarea de género gramatical,2024.2.2,Win32,144.092219,,,,,,,,,,,,,,,,,,,,,,,432.651,433.56,a,1,[],[],[],[],[],[],[],0.252,1,433.561,434.059,,,,,,727,FEM,CON,150,plaza,,a,0.252,,434.06,434.064,0.672453704,-0.08912037,0,0,0,,0,155,155,276,1,,,,
,,,,,,3dd6d7b5b2f251ddac167da4,66a626ef09d4e21e1a8894ec,673649c0788d71c1c21cee01,2024-11-14_13h05.17.293,Tarea de género gramatical,2024.2.2,Win32,144.092219,,,,,,,,,,,,,,,,,,,,,,,434.065,435.026,l,1,[],[],[],[],[],[],[],0.301,1,435.026,435.524,,,,,,540,MAS,AGR,150,león,el,l,0.301,,435.524,435.525,0.672453704,-0.08912037,0,0,0,,0,156,156,89,1,,,,
,,,,,,3dd6d7b5b2f251ddac167da4,66a626ef09d4e21e1a8894ec,673649c0788d71c1c21cee01,2024-11-14_13h05.17.293,Tarea de género gramatical,2024.2.2,Win32,144.092219,,,,,,,,,,,,,,,,,,,,,,,435.526,436.414,a,1,[],[],[],[],[],[],[],0.229,1,436.415,436.913,,,,,,469,FEM,CON,150,niña,,a,0.229,,436.913,436.913,0.672453704,-0.08912037,0,0,0,,0,157,157,18,1,,,,
,,,,,,3dd6d7b5b2f251ddac167da4,66a626ef09d4e21e1a8894ec,673649c0788d71c1c21cee01,2024-11-14_13h05.17.293,Tarea de género gramatical,2024.2.2,Win32,144.092219,,,,,,,,,,,,,,,,,,,,,,,436.914,437.844,l,1,[],[],[],[],[],[],[],0.274,1,437.845,438.344,,,,,,750,MAS,AGR,150,túnel,el,l,0.274,,438.344,438.344,0.672453704,-0.08912037,0,0,0,,0,158,158,299,1,,,,
,,,,,,3dd6d7b5b2f251ddac167da4,66a626ef09d4e21e1a8894ec,673649c0788d71c1c21cee01,2024-11-14_13h05.17.293,Tarea de género gramatical,2024.2.2,Win32,144.092219,,,,,,,,,,,,,,,,,,,,,,,438.346,439.35,a,1,[],[],[],[],[],[],[],0.348,1,439.351,439.851,,,,,,799,FEM,CON,150,prensa,,a,0.348,,439.852,439.855,0.672453704,-0.08912037,0,0,0,,0,159,159,348,1,,,,
,,,,,,3dd6d7b5b2f251ddac167da4,66a626ef09d4e21e1a8894ec,673649c0788d71c1c21cee01,2024-11-14_13h05.17.293,Tarea de género gramatical,2024.2.2,Win32,144.092219,,,,,,,,,,,,,,,,,,,,,,,439.856,440.779,l,1,[],[],[],[],[],[],[],0.258,1,440.779,441.275,,,,,,778,MAS,CON,150,asunto,,l,0.258,,441.275,441.275,0.672453704,-0.08912037,0,0,0,,0,160,160,327,1,,,,
,,,,,,3dd6d7b5b2f251ddac167da4,66a626ef09d4e21e1a8894ec,673649c0788d71c1c21cee01,2024-11-14_13h05.17.293,Tarea de género gramatical,2024.2.2,Win32,144.092219,,,,,,,,,,,,,,,,,,,,,,,441.276,442.276,a,1,[],[],[],[],[],[],[],0.339,1,442.276,442.775,,,,,,747,FEM,AGR,150,manta,la,a,0.339,,442.775,442.776,0.672453704,-0.08912037,0,0,0,,0,161,161,296,1,,,,
,,,,,,3dd6d7b5b2f251ddac167da4,66a626ef09d4e21e1a8894ec,673649c0788d71c1c21cee01,2024-11-14_13h05.17.293,Tarea de género gramatical,2024.2.2,Win32,144.092219,,,,,,,,,,,,,,,,,,,,,,,442.777,443.811,a,0,[],[],[],[],[],[],[],0.378,0,443.812,444.31,,,,,,876,MAS,AGR,150,pánico,el,l,0.378,,444.31,444.31,0.672453704,-0.08912037,0,0,0,,0,162,162,425,1,,,,
,,,,,,3dd6d7b5b2f251ddac167da4,66a626ef09d4e21e1a8894ec,673649c0788d71c1c21cee01,2024-11-14_13h05.17.293,Tarea de género gramatical,2024.2.2,Win32,144.092219,,,,,,,,,,,,,,,,,,,,,,,444.31,445.476,l,1,[],[],[],[],[],[],[],0.508,1,445.478,445.975,,,,,,479,MAS,DIS,150,frío,la,l,0.508,,445.975,445.976,0.672453704,-0.08912037,0,0,0,,0,163,163,28,1,,,,
,,,,,,3dd6d7b5b2f251ddac167da4,66a626ef09d4e21e1a8894ec,673649c0788d71c1c21cee01,2024-11-14_13h05.17.293,Tarea de género gramatical,2024.2.2,Win32,144.092219,,,,,,,,,,,,,,,,,,,,,,,445.978,447.8,a,1,[],[],[],[],[],[],[],1.167,1,447.801,448.296,,,,,,651,FEM,AGR,150,leche,la,a,1.167,,448.297,448.299,0.672453704,-0.08912037,0,0,0,,0,164,164,200,1,,,,
,,,,,,3dd6d7b5b2f251ddac167da4,66a626ef09d4e21e1a8894ec,673649c0788d71c1c21cee01,2024-11-14_13h05.17.293,Tarea de género gramatical,2024.2.2,Win32,144.092219,,,,,,,,,,,,,,,,,,,,,,,448.301,449.316,l,1,[],[],[],[],[],[],[],0.355,1,449.317,449.816,,,,,,708,MAS,AGR,150,polvo,el,l,0.355,,449.816,449.816,0.672453704,-0.08912037,0,0,0,,0,165,165,257,1,,,,
,,,,,,3dd6d7b5b2f251ddac167da4,66a626ef09d4e21e1a8894ec,673649c0788d71c1c21cee01,2024-11-14_13h05.17.293,Tarea de género gramatical,2024.2.2,Win32,144.092219,,,,,,,,,,,,,,,,,,,,,,,449.817,451.016,l,1,[],[],[],[],[],[],[],0.535,1,451.017,451.514,,,,,,822,MAS,AGR,150,delito,el,l,0.535,,451.514,451.515,0.672453704,-0.08912037,0,0,0,,0,166,166,371,1,,,,
,,,,,,3dd6d7b5b2f251ddac167da4,66a626ef09d4e21e1a8894ec,673649c0788d71c1c21cee01,2024-11-14_13h05.17.293,Tarea de género gramatical,2024.2.2,Win32,144.092219,,,,,,,,,,,,,,,,,,,,,,,451.516,452.494,a,1,[],[],[],[],[],[],[],0.313,1,452.494,452.989,,,,,,595,FEM,CON,150,bota,,a,0.313,,452.989,452.989,0.672453704,-0.08912037,0,0,0,,0,167,167,144,1,,,,
,,,,,,3dd6d7b5b2f251ddac167da4,66a626ef09d4e21e1a8894ec,673649c0788d71c1c21cee01,2024-11-14_13h05.17.293,Tarea de género gramatical,2024.2.2,Win32,144.092219,,,,,,,,,,,,,,,,,,,,,,,452.991,453.892,a,1,[],[],[],[],[],[],[],0.243,1,453.892,454.393,,,,,,578,FEM,DIS,150,leña,el,a,0.243,,454.393,454.395,0.672453704,-0.08912037,0,0,0,,0,168,168,127,1,,,,
,,,,,,3dd6d7b5b2f251ddac167da4,66a626ef09d4e21e1a8894ec,673649c0788d71c1c21cee01,2024-11-14_13h05.17.293,Tarea de género gramatical,2024.2.2,Win32,144.092219,,,,,,,,,,,,,,,,,,,,,,,454.396,455.392,l,1,[],[],[],[],[],[],[],0.336,1,455.392,455.893,,,,,,720,MAS,AGR,150,queso,el,l,0.336,,455.893,455.893,0.672453704,-0.08912037,0,0,0,,0,169,169,269,1,,,,
,,,,,,3dd6d7b5b2f251ddac167da4,66a626ef09d4e21e1a8894ec,673649c0788d71c1c21cee01,2024-11-14_13h05.17.293,Tarea de género gramatical,2024.2.2,Win32,144.092219,,,,,,,,,,,,,,,,,,,,,,,455.894,456.837,a,1,[],[],[],[],[],[],[],0.286,1,456.837,457.336,,,,,,529,FEM,CON,150,mina,,a,0.286,,457.336,457.337,0.672453704,-0.08912037,0,0,0,,0,170,170,78,1,,,,
,,,,,,3dd6d7b5b2f251ddac167da4,66a626ef09d4e21e1a8894ec,673649c0788d71c1c21cee01,2024-11-14_13h05.17.293,Tarea de género gramatical,2024.2.2,Win32,144.092219,,,,,,,,,,,,,,,,,,,,,,,457.339,458.427,l,1,[],[],[],[],[],[],[],0.424,1,458.428,458.926,,,,,,478,MAS,CON,150,club,,l,0.424,,458.927,458.928,0.672453704,-0.08912037,0,0,0,,0,171,171,27,1,,,,
,,,,,,3dd6d7b5b2f251ddac167da4,66a626ef09d4e21e1a8894ec,673649c0788d71c1c21cee01,2024-11-14_13h05.17.293,Tarea de género gramatical,2024.2.2,Win32,144.092219,,,,,,,,,,,,,,,,,,,,,,,458.932,459.981,a,1,[],[],[],[],[],[],[],0.388,1,459.982,460.48,,,,,,793,FEM,CON,150,trampa,,a,0.388,,460.48,460.48,0.672453704,-0.08912037,0,0,0,,0,172,172,342,1,,,,
,,,,,,3dd6d7b5b2f251ddac167da4,66a626ef09d4e21e1a8894ec,673649c0788d71c1c21cee01,2024-11-14_13h05.17.293,Tarea de género gramatical,2024.2.2,Win32,144.092219,,,,,,,,,,,,,,,,,,,,,,,460.483,461.607,a,1,[],[],[],[],[],[],[],0.467,1,461.607,462.111,,,,,,613,FEM,CON,150,calle,,a,0.467,,462.115,462.117,0.672453704,-0.08912037,0,0,0,,0,173,173,162,1,,,,
,,,,,,3dd6d7b5b2f251ddac167da4,66a626ef09d4e21e1a8894ec,673649c0788d71c1c21cee01,2024-11-14_13h05.17.293,Tarea de género gramatical,2024.2.2,Win32,144.092219,,,,,,,,,,,,,,,,,,,,,,,462.118,463.365,l,1,[],[],[],[],[],[],[],0.583,1,463.365,463.864,,,,,,833,MAS,DIS,150,parque,la,l,0.583,,463.864,463.864,0.672453704,-0.08912037,0,0,0,,0,174,174,382,1,,,,
,,,,,,3dd6d7b5b2f251ddac167da4,66a626ef09d4e21e1a8894ec,673649c0788d71c1c21cee01,2024-11-14_13h05.17.293,Tarea de género gramatical,2024.2.2,Win32,144.092219,,,,,,,,,,,,,,,,,,,,,,,463.866,464.92,l,1,[],[],[],[],[],[],[],0.397,1,464.92,465.419,,,,,,893,MAS,DIS,150,templo,la,l,0.397,,465.419,465.42,0.672453704,-0.08912037,0,0,0,,0,175,175,442,1,,,,
,,,,,,3dd6d7b5b2f251ddac167da4,66a626ef09d4e21e1a8894ec,673649c0788d71c1c21cee01,2024-11-14_13h05.17.293,Tarea de género gramatical,2024.2.2,Win32,144.092219,,,,,,,,,,,,,,,,,,,,,,,465.421,466.621,a,1,[],[],[],[],[],[],[],0.543,1,466.621,467.111,,,,,,686,FEM,DIS,150,deuda,el,a,0.543,,467.112,467.112,0.672453704,-0.08912037,0,0,0,,0,176,176,235,1,,,,
,,,,,,3dd6d7b5b2f251ddac167da4,66a626ef09d4e21e1a8894ec,673649c0788d71c1c21cee01,2024-11-14_13h05.17.293,Tarea de género gramatical,2024.2.2,Win32,144.092219,,,,,,,,,,,,,,,,,,,,,,,467.114,468.426,a,1,[],[],[],[],[],[],[],0.653,1,468.427,468.926,,,,,,633,FEM,AGR,150,llave,la,a,0.653,,468.928,468.929,0.672453704,-0.08912037,0,0,0,,0,177,177,182,1,,,,
,,,,,,3dd6d7b5b2f251ddac167da4,66a626ef09d4e21e1a8894ec,673649c0788d71c1c21cee01,2024-11-14_13h05.17.293,Tarea de género gramatical,2024.2.2,Win32,144.092219,,,,,,,,,,,,,,,,,,,,,,,468.931,470.17,l,1,[],[],[],[],[],[],[],0.577,1,470.17,470.67,,,,,,546,MAS,AGR,150,pato,el,l,0.577,,470.67,470.67,0.672453704,-0.08912037,0,0,0,,0,178,178,95,1,,,,
,,,,,,3dd6d7b5b2f251ddac167da4,66a626ef09d4e21e1a8894ec,673649c0788d71c1c21cee01,2024-11-14_13h05.17.293,Tarea de género gramatical,2024.2.2,Win32,144.092219,,,,,,,,,,,,,,,,,,,,,,,470.671,471.816,a,1,[],[],[],[],[],[],[],0.487,1,471.816,472.315,,,,,,711,FEM,AGR,150,cueva,la,a,0.487,,472.315,472.315,0.672453704,-0.08912037,0,0,0,,0,179,179,260,1,,,,
,,,,,,3dd6d7b5b2f251ddac167da4,66a626ef09d4e21e1a8894ec,673649c0788d71c1c21cee01,2024-11-14_13h05.17.293,Tarea de género gramatical,2024.2.2,Win32,144.092219,,,,,,,,,,,,,,,,,,,,,,,472.317,473.537,a,1,[],[],[],[],[],[],[],0.565,1,473.537,474.036,,,,,,771,FEM,AGR,150,comida,la,a,0.565,,474.037,474.037,0.672453704,-0.08912037,0,0,0,,0,180,180,320,1,,,,
,,,,,,3dd6d7b5b2f251ddac167da4,66a626ef09d4e21e1a8894ec,673649c0788d71c1c21cee01,2024-11-14_13h05.17.293,Tarea de género gramatical,2024.2.2,Win32,144.092219,,,,,,,,,,,,,,,,,,,,,,,474.038,475.087,a,1,[],[],[],[],[],[],[],0.389,1,475.087,475.584,,,,,,673,FEM,CON,150,plata,,a,0.389,,475.584,475.584,0.672453704,-0.08912037,0,0,0,,0,181,181,222,1,,,,
,,,,,,3dd6d7b5b2f251ddac167da4,66a626ef09d4e21e1a8894ec,673649c0788d71c1c21cee01,2024-11-14_13h05.17.293,Tarea de género gramatical,2024.2.2,Win32,144.092219,,,,,,,,,,,,,,,,,,,,,,,475.587,476.605,a,1,[],[],[],[],[],[],[],0.357,1,476.606,477.1,,,,,,626,FEM,DIS,150,línea,el,a,0.357,,477.101,477.102,0.672453704,-0.08912037,0,0,0,,0,182,182,175,1,,,,
,,,,,,3dd6d7b5b2f251ddac167da4,66a626ef09d4e21e1a8894ec,673649c0788d71c1c21cee01,2024-11-14_13h05.17.293,Tarea de género gramatical,2024.2.2,Win32,144.092219,,,,,,,,,,,,,,,,,,,,,,,477.104,478.246,l,1,[],[],[],[],[],[],[],0.482,1,478.246,478.746,,,,,,892,MAS,CON,150,cuadro,,l,0.482,,478.746,478.746,0.672453704,-0.08912037,0,0,0,,0,183,183,441,1,,,,
,,,,,,3dd6d7b5b2f251ddac167da4,66a626ef09d4e21e1a8894ec,673649c0788d71c1c21cee01,2024-11-14_13h05.17.293,Tarea de género gramatical,2024.2.2,Win32,144.092219,,,,,,,,,,,,,,,,,,,,,,,478.748,479.808,l,1,[],[],[],[],[],[],[],0.404,1,479.808,480.308,,,,,,754,MAS,CON,150,tiempo,,l,0.404,,480.308,480.309,0.672453704,-0.08912037,0,0,0,,0,184,184,303,1,,,,
,,,,,,3dd6d7b5b2f251ddac167da4,66a626ef09d4e21e1a8894ec,673649c0788d71c1c21cee01,2024-11-14_13h05.17.293,Tarea de género gramatical,2024.2.2,Win32,144.092219,,,,,,,,,,,,,,,,,,,,,,,480.31,481.37,a,1,[],[],[],[],[],[],[],0.403,1,481.371,481.87,,,,,,565,FEM,CON,150,seda,,a,0.403,,481.87,481.87,0.672453704,-0.08912037,0,0,0,,0,185,185,114,1,,,,
,,,,,,3dd6d7b5b2f251ddac167da4,66a626ef09d4e21e1a8894ec,673649c0788d71c1c21cee01,2024-11-14_13h05.17.293,Tarea de género gramatical,2024.2.2,Win32,144.092219,,,,,,,,,,,,,,,,,,,,,,,481.871,483.023,l,1,[],[],[],[],[],[],[],0.495,1,483.023,483.523,,,,,,580,MAS,CON,150,yate,,l,0.495,,483.525,483.526,0.672453704,-0.08912037,0,0,0,,0,186,186,129,1,,,,
,,,,,,3dd6d7b5b2f251ddac167da4,66a626ef09d4e21e1a8894ec,673649c0788d71c1c21cee01,2024-11-14_13h05.17.293,Tarea de género gramatical,2024.2.2,Win32,144.092219,,,,,,,,,,,,,,,,,,,,,,,483.527,484.885,l,1,[],[],[],[],[],[],[],0.696,1,484.886,485.384,,,,,,816,MAS,AGR,150,riesgo,el,l,0.696,,485.384,485.385,0.672453704,-0.08912037,0,0,0,,0,187,187,365,1,,,,
,,,,,,3dd6d7b5b2f251ddac167da4,66a626ef09d4e21e1a8894ec,673649c0788d71c1c21cee01,2024-11-14_13h05.17.293,Tarea de género gramatical,2024.2.2,Win32,144.092219,,,,,,,,,,,,,,,,,,,,,,,485.386,486.376,l,1,[],[],[],[],[],[],[],0.332,1,486.377,486.877,,,,,,814,MAS,CON,150,viento,,l,0.332,,486.877,486.878,0.672453704,-0.08912037,0,0,0,,0,188,188,363,1,,,,
,,,,,,3dd6d7b5b2f251ddac167da4,66a626ef09d4e21e1a8894ec,673649c0788d71c1c21cee01,2024-11-14_13h05.17.293,Tarea de género gramatical,2024.2.2,Win32,144.092219,,,,,,,,,,,,,,,,,,,,,,,486.879,487.898,a,1,[],[],[],[],[],[],[],0.363,1,487.899,488.397,,,,,,692,FEM,DIS,150,pizza,el,a,0.363,,488.397,488.397,0.672453704,-0.08912037,0,0,0,,0,189,189,241,1,,,,
,,,,,,3dd6d7b5b2f251ddac167da4,66a626ef09d4e21e1a8894ec,673649c0788d71c1c21cee01,2024-11-14_13h05.17.293,Tarea de género gramatical,2024.2.2,Win32,144.092219,,,,,,,,,,,,,,,,,,,,,,,488.398,489.421,a,1,[],[],[],[],[],[],[],0.36,1,489.422,489.919,,,,,,825,FEM,AGR,150,cadena,la,a,0.36,,489.919,489.92,0.672453704,-0.08912037,0,0,0,,0,190,190,374,1,,,,
,,,,,,3dd6d7b5b2f251ddac167da4,66a626ef09d4e21e1a8894ec,673649c0788d71c1c21cee01,2024-11-14_13h05.17.293,Tarea de género gramatical,2024.2.2,Win32,144.092219,,,,,,,,,,,,,,,,,,,,,,,489.925,490.927,a,1,[],[],[],[],[],[],[],0.343,1,490.927,491.426,,,,,,841,FEM,CON,150,altura,,a,0.343,,491.429,491.431,0.672453704,-0.08912037,0,0,0,,0,191,191,390,1,,,,
,,,,,,3dd6d7b5b2f251ddac167da4,66a626ef09d4e21e1a8894ec,673649c0788d71c1c21cee01,2024-11-14_13h05.17.293,Tarea de género gramatical,2024.2.2,Win32,144.092219,,,,,,,,,,,,,,,,,,,,,,,491.434,492.384,a,1,[],[],[],[],[],[],[],0.293,1,492.385,492.884,,,,,,704,FEM,DIS,150,caída,el,a,0.293,,492.884,492.884,0.672453704,-0.08912037,0,0,0,,0,192,192,253,1,,,,
,,,,,,3dd6d7b5b2f251ddac167da4,66a626ef09d4e21e1a8894ec,673649c0788d71c1c21cee01,2024-11-14_13h05.17.293,Tarea de género gramatical,2024.2.2,Win32,144.092219,,,,,,,,,,,,,,,,,,,,,,,492.886,493.833,l,1,[],[],[],[],[],[],[],0.292,1,493.834,494.333,,,,,,484,MAS,CON,150,gato,,l,0.292,,494.333,494.333,0.672453704,-0.08912037,0,0,0,,0,193,193,33,1,,,,
,,,,,,3dd6d7b5b2f251ddac167da4,66a626ef09d4e21e1a8894ec,673649c0788d71c1c21cee01,2024-11-14_13h05.17.293,Tarea de género gramatical,2024.2.2,Win32,144.092219,,,,,,,,,,,,,,,,,,,,,,,494.335,495.357,l,1,[],[],[],[],[],[],[],0.367,1,495.357,495.856,,,,,,851,MAS,DIS,150,abrigo,la,l,0.367,,495.856,495.856,0.672453704,-0.08912037,0,0,0,,0,194,194,400,1,,,,
,,,,,,3dd6d7b5b2f251ddac167da4,66a626ef09d4e21e1a8894ec,673649c0788d71c1c21cee01,2024-11-14_13h05.17.293,Tarea de género gramatical,2024.2.2,Win32,144.092219,,,,,,,,,,,,,,,,,,,,,,,495.859,496.877,a,1,[],[],[],[],[],[],[],0.362,1,496.877,497.375,,,,,,699,FEM,AGR,150,crema,la,a,0.362,,497.376,497.378,0.672453704,-0.08912037,0,0,0,,0,195,195,248,1,,,,
,,,,,,3dd6d7b5b2f251ddac167da4,66a626ef09d4e21e1a8894ec,673649c0788d71c1c21cee01,2024-11-14_13h05.17.293,Tarea de género gramatical,2024.2.2,Win32,144.092219,,,,,,,,,,,,,,,,,,,,,,,497.381,498.613,l,1,[],[],[],[],[],[],[],0.571,1,498.614,499.113,,,,,,575,MAS,DIS,150,bate,la,l,0.571,,499.113,499.113,0.672453704,-0.08912037,0,0,0,,0,196,196,124,1,,,,
,,,,,,3dd6d7b5b2f251ddac167da4,66a626ef09d4e21e1a8894ec,673649c0788d71c1c21cee01,2024-11-14_13h05.17.293,Tarea de género gramatical,2024.2.2,Win32,144.092219,,,,,,,,,,,,,,,,,,,,,,,499.115,500.093,a,1,[],[],[],[],[],[],[],0.318,1,500.093,500.594,,,,,,745,FEM,CON,150,grasa,,a,0.318,,500.594,500.594,0.672453704,-0.08912037,0,0,0,,0,197,197,294,1,,,,
,,,,,,3dd6d7b5b2f251ddac167da4,66a626ef09d4e21e1a8894ec,673649c0788d71c1c21cee01,2024-11-14_13h05.17.293,Tarea de género gramatical,2024.2.2,Win32,144.092219,,,,,,,,,,,,,,,,,,,,,,,500.596,501.642,a,1,[],[],[],[],[],[],[],0.391,1,501.642,502.141,,,,,,573,FEM,AGR,150,tela,la,a,0.391,,502.141,502.141,0.672453704,-0.08912037,0,0,0,,0,198,198,122,1,,,,
,,,,,,3dd6d7b5b2f251ddac167da4,66a626ef09d4e21e1a8894ec,673649c0788d71c1c21cee01,2024-11-14_13h05.17.293,Tarea de género gramatical,2024.2.2,Win32,144.092219,,,,,,,,,,,,,,,,,,,,,,,502.143,503.114,a,1,[],[],[],[],[],[],[],0.315,1,503.115,503.614,,,,,,459,FEM,AGR,150,mamá,la,a,0.315,,503.614,503.614,0.672453704,-0.08912037,0,0,0,,0,199,199,8,1,,,,
,,,,,,3dd6d7b5b2f251ddac167da4,66a626ef09d4e21e1a8894ec,673649c0788d71c1c21cee01,2024-11-14_13h05.17.293,Tarea de género gramatical,2024.2.2,Win32,144.092219,,,,,,,,,,,,,,,,,,,,,,,503.615,504.662,a,1,[],[],[],[],[],[],[],0.391,1,504.662,505.162,,,,,,866,FEM,DIS,150,colina,el,a,0.391,,505.164,505.165,0.672453704,-0.08912037,0,0,0,,0,200,200,415,1,,,,
,,,,,,3dd6d7b5b2f251ddac167da4,66a626ef09d4e21e1a8894ec,673649c0788d71c1c21cee01,2024-11-14_13h05.17.293,Tarea de género gramatical,2024.2.2,Win32,144.092219,,,,,,,,,,,,,,,,,,,,,,,505.167,506.232,l,1,[],[],[],[],[],[],[],0.403,1,506.232,506.727,,,,,,539,MAS,DIS,150,maíz,la,l,0.403,,506.727,506.727,0.672453704,-0.08912037,0,0,0,,0,201,201,88,1,,,,
,,,,,,3dd6d7b5b2f251ddac167da4,66a626ef09d4e21e1a8894ec,673649c0788d71c1c21cee01,2024-11-14_13h05.17.293,Tarea de género gramatical,2024.2.2,Win32,144.092219,,,,,,,,,,,,,,,,,,,,,,,506.729,507.641,a,1,[],[],[],[],[],[],[],0.251,1,507.641,508.141,,,,,,625,FEM,CON,150,señal,,a,0.251,,508.141,508.141,0.672453704,-0.08912037,0,0,0,,0,202,202,174,1,,,,
,,,,,,3dd6d7b5b2f251ddac167da4,66a626ef09d4e21e1a8894ec,673649c0788d71c1c21cee01,2024-11-14_13h05.17.293,Tarea de género gramatical,2024.2.2,Win32,144.092219,,,,,,,,,,,,,,,,,,,,,,,508.142,509.113,a,1,[],[],[],[],[],[],[],0.315,1,509.113,509.614,,,,,,716,FEM,DIS,150,jaula,el,a,0.315,,509.614,509.614,0.672453704,-0.08912037,0,0,0,,0,203,203,265,1,,,,
,,,,,,3dd6d7b5b2f251ddac167da4,66a626ef09d4e21e1a8894ec,673649c0788d71c1c21cee01,2024-11-14_13h05.17.293,Tarea de género gramatical,2024.2.2,Win32,144.092219,,,,,,,,,,,,,,,,,,,,,,,509.615,510.599,a,1,[],[],[],[],[],[],[],0.324,1,510.599,511.099,,,,,,519,FEM,AGR,150,rata,la,a,0.324,,511.1,511.102,0.672453704,-0.08912037,0,0,0,,0,204,204,68,1,,,,
,,,,,,3dd6d7b5b2f251ddac167da4,66a626ef09d4e21e1a8894ec,673649c0788d71c1c21cee01,2024-11-14_13h05.17.293,Tarea de género gramatical,2024.2.2,Win32,144.092219,,,,,,,,,,,,,,,,,,,,,,,511.104,512.083,a,1,[],[],[],[],[],[],[],0.32,1,512.084,512.584,,,,,,669,FEM,AGR,150,costa,la,a,0.32,,512.584,512.584,0.672453704,-0.08912037,0,0,0,,0,205,205,218,1,,,,
,,,,,,3dd6d7b5b2f251ddac167da4,66a626ef09d4e21e1a8894ec,673649c0788d71c1c21cee01,2024-11-14_13h05.17.293,Tarea de género gramatical,2024.2.2,Win32,144.092219,,,,,,,,,,,,,,,,,,,,,,,512.586,513.557,l,1,[],[],[],[],[],[],[],0.312,1,513.557,514.057,,,,,,592,MAS,CON,150,lodo,,l,0.312,,514.058,514.058,0.672453704,-0.08912037,0,0,0,,0,206,206,141,1,,,,
,,,,,,3dd6d7b5b2f251ddac167da4,66a626ef09d4e21e1a8894ec,673649c0788d71c1c21cee01,2024-11-14_13h05.17.293,Tarea de género gramatical,2024.2.2,Win32,144.092219,,,,,,,,,,,,,,,,,,,,,,,514.06,515.001,a,1,[],[],[],[],[],[],[],0.286,1,515.002,515.502,,,,,,847,FEM,CON,150,cuerda,,a,0.286,,515.502,515.502,0.672453704,-0.08912037,0,0,0,,0,207,207,396,1,,,,
,,,,,,3dd6d7b5b2f251ddac167da4,66a626ef09d4e21e1a8894ec,673649c0788d71c1c21cee01,2024-11-14_13h05.17.293,Tarea de género gramatical,2024.2.2,Win32,144.092219,,,,,,,,,,,,,,,,,,,,,,,515.503,516.432,a,1,[],[],[],[],[],[],[],0.271,1,516.433,516.932,,,,,,554,FEM,DIS,150,vela,el,a,0.271,,516.932,516.933,0.672453704,-0.08912037,0,0,0,,0,208,208,103,1,,,,
,,,,,,3dd6d7b5b2f251ddac167da4,66a626ef09d4e21e1a8894ec,673649c0788d71c1c21cee01,2024-11-14_13h05.17.293,Tarea de género gramatical,2024.2.2,Win32,144.092219,,,,,,,,,,,,,,,,,,,,,,,516.934,517.883,l,1,[],[],[],[],[],[],[],0.286,1,517.883,518.381,,,,,,653,MAS,DIS,150,novio,la,l,0.286,,518.382,518.384,0.672453704,-0.08912037,0,0,0,,0,209,209,202,1,,,,
,,,,,,3dd6d7b5b2f251ddac167da4,66a626ef09d4e21e1a8894ec,673649c0788d71c1c21cee01,2024-11-14_13h05.17.293,Tarea de género gramatical,2024.2.2,Win32,144.092219,,,,,,,,,,,,,,,,,,,,,,,518.386,519.398,a,1,[],[],[],[],[],[],[],0.349,1,519.398,519.897,,,,,,817,FEM,CON,150,teoría,,a,0.349,,519.897,519.899,0.672453704,-0.08912037,0,0,0,,0,210,210,366,1,,,,
,,,,,,3dd6d7b5b2f251ddac167da4,66a626ef09d4e21e1a8894ec,673649c0788d71c1c21cee01,2024-11-14_13h05.17.293,Tarea de género gramatical,2024.2.2,Win32,144.092219,,,,,,,,,,,,,,,,,,,,,,,519.904,520.947,l,1,[],[],[],[],[],[],[],0.384,1,520.948,521.446,,,,,,528,MAS,AGR,150,oído,el,l,0.384,,521.446,521.446,0.672453704,-0.08912037,0,0,0,,0,211,211,77,1,,,,
,,,,,,3dd6d7b5b2f251ddac167da4,66a626ef09d4e21e1a8894ec,673649c0788d71c1c21cee01,2024-11-14_13h05.17.293,Tarea de género gramatical,2024.2.2,Win32,144.092219,,,,,,,,,,,,,,,,,,,,,,,521.448,522.502,l,1,[],[],[],[],[],[],[],0.398,1,522.502,523.002,,,,,,557,MAS,DIS,150,cubo,la,l,0.398,,523.002,523.002,0.672453704,-0.08912037,0,0,0,,0,212,212,106,1,,,,
,,,,,,3dd6d7b5b2f251ddac167da4,66a626ef09d4e21e1a8894ec,673649c0788d71c1c21cee01,2024-11-14_13h05.17.293,Tarea de género gramatical,2024.2.2,Win32,144.092219,,,,,,,,,,,,,,,,,,,,,,,523.003,524.066,l,1,[],[],[],[],[],[],[],0.402,1,524.067,524.564,,,,,,569,MAS,DIS,150,mito,la,l,0.402,,524.566,524.569,0.672453704,-0.08912037,0,0,0,,0,213,213,118,1,,,,
,,,,,,3dd6d7b5b2f251ddac167da4,66a626ef09d4e21e1a8894ec,673649c0788d71c1c21cee01,2024-11-14_13h05.17.293,Tarea de género gramatical,2024.2.2,Win32,144.092219,,,,,,,,,,,,,,,,,,,,,,,524.571,525.499,a,1,[],[],[],[],[],[],[],0.27,1,525.499,525.994,,,,,,530,FEM,DIS,150,vaca,el,a,0.27,,525.995,525.995,0.672453704,-0.08912037,0,0,0,,0,214,214,79,1,,,,
,,,,,,3dd6d7b5b2f251ddac167da4,66a626ef09d4e21e1a8894ec,673649c0788d71c1c21cee01,2024-11-14_13h05.17.293,Tarea de género gramatical,2024.2.2,Win32,144.092219,,,,,,,,,,,,,,,,,,,,,,,525.996,526.939,l,1,[],[],[],[],[],[],[],0.286,1,526.939,527.438,,,,,,642,MAS,AGR,150,grupo,el,l,0.286,,527.438,527.439,0.672453704,-0.08912037,0,0,0,,0,215,215,191,1,,,,
,,,,,,3dd6d7b5b2f251ddac167da4,66a626ef09d4e21e1a8894ec,673649c0788d71c1c21cee01,2024-11-14_13h05.17.293,Tarea de género gramatical,2024.2.2,Win32,144.092219,,,,,,,,,,,,,,,,,,,,,,,527.44,528.39,a,1,[],[],[],[],[],[],[],0.292,1,528.39,528.891,,,,,,879,FEM,AGR,150,fianza,la,a,0.292,,528.891,528.891,0.672453704,-0.08912037,0,0,0,,0,216,216,428,1,,,,
,,,,,,3dd6d7b5b2f251ddac167da4,66a626ef09d4e21e1a8894ec,673649c0788d71c1c21cee01,2024-11-14_13h05.17.293,Tarea de género gramatical,2024.2.2,Win32,144.092219,,,,,,,,,,,,,,,,,,,,,,,528.892,529.994,a,1,[],[],[],[],[],[],[],0.447,1,529.995,530.492,,,,,,891,FEM,AGR,150,medida,la,a,0.447,,530.492,530.493,0.672453704,-0.08912037,0,0,0,,0,217,217,440,1,,,,
,,,,,,3dd6d7b5b2f251ddac167da4,66a626ef09d4e21e1a8894ec,673649c0788d71c1c21cee01,2024-11-14_13h05.17.293,Tarea de género gramatical,2024.2.2,Win32,144.092219,,,,,,,,,,,,,,,,,,,,,,,530.494,531.488,a,1,[],[],[],[],[],[],[],0.334,1,531.488,531.986,,,,,,476,FEM,DIS,150,pena,el,a,0.334,,531.987,531.989,0.672453704,-0.08912037,0,0,0,,0,218,218,25,1,,,,
,,,,,,3dd6d7b5b2f251ddac167da4,66a626ef09d4e21e1a8894ec,673649c0788d71c1c21cee01,2024-11-14_13h05.17.293,Tarea de género gramatical,2024.2.2,Win32,144.092219,,,,,,,,,,,,,,,,,,,,,,,531.99,533.015,a,1,[],[],[],[],[],[],[],0.366,1,533.016,533.516,,,,,,729,FEM,AGR,150,selva,la,a,0.366,,533.516,533.516,0.672453704,-0.08912037,0,0,0,,0,219,219,278,1,,,,
,,,,,,3dd6d7b5b2f251ddac167da4,66a626ef09d4e21e1a8894ec,673649c0788d71c1c21cee01,2024-11-14_13h05.17.293,Tarea de género gramatical,2024.2.2,Win32,144.092219,,,,,,,,,,,,,,,,,,,,,,,533.517,534.534,a,1,[],[],[],[],[],[],[],0.362,1,534.535,535.033,,,,,,483,FEM,AGR,150,boda,la,a,0.362,,535.034,535.034,0.672453704,-0.08912037,0,0,0,,0,220,220,32,1,,,,
,,,,,,3dd6d7b5b2f251ddac167da4,66a626ef09d4e21e1a8894ec,673649c0788d71c1c21cee01,2024-11-14_13h05.17.293,Tarea de género gramatical,2024.2.2,Win32,144.092219,,,,,,,,,,,,,,,,,,,,,,,535.035,536.111,l,1,[],[],[],[],[],[],[],0.42,1,536.113,536.612,,,,,,587,MAS,DIS,150,coco,la,l,0.42,,536.612,536.613,0.672453704,-0.08912037,0,0,0,,0,221,221,136,1,,,,
,,,,,,3dd6d7b5b2f251ddac167da4,66a626ef09d4e21e1a8894ec,673649c0788d71c1c21cee01,2024-11-14_13h05.17.293,Tarea de género gramatical,2024.2.2,Win32,144.092219,,,,,,,,,,,,,,,,,,,,,,,536.614,537.793,l,1,[],[],[],[],[],[],[],0.521,1,537.795,538.29,,,,,,701,MAS,DIS,150,dueño,la,l,0.521,,538.292,538.294,0.672453704,-0.08912037,0,0,0,,0,222,222,250,1,,,,
,,,,,,3dd6d7b5b2f251ddac167da4,66a626ef09d4e21e1a8894ec,673649c0788d71c1c21cee01,2024-11-14_13h05.17.293,Tarea de género gramatical,2024.2.2,Win32,144.092219,,,,,,,,,,,,,,,,,,,,,,,538.295,539.23,a,1,[],[],[],[],[],[],[],0.272,1,539.23,539.73,,,,,,632,FEM,DIS,150,prisa,el,a,0.272,,539.73,539.73,0.672453704,-0.08912037,0,0,0,,0,223,223,181,1,,,,
,,,,,,3dd6d7b5b2f251ddac167da4,66a626ef09d4e21e1a8894ec,673649c0788d71c1c21cee01,2024-11-14_13h05.17.293,Tarea de género gramatical,2024.2.2,Win32,144.092219,,,,,,,,,,,,,,,,,,,,,,,539.732,540.619,a,1,[],[],[],[],[],[],[],0.23,1,540.62,541.118,,,,,,801,FEM,AGR,150,espada,la,a,0.23,,541.118,541.119,0.672453704,-0.08912037,0,0,0,,0,224,224,350,1,,,,
,,,,,,3dd6d7b5b2f251ddac167da4,66a626ef09d4e21e1a8894ec,673649c0788d71c1c21cee01,2024-11-14_13h05.17.293,Tarea de género gramatical,2024.2.2,Win32,144.092219,,,,,,,,,,,,,,,,,,,,,,,541.12,542.104,l,1,[],[],[],[],[],[],[],0.326,1,542.105,542.605,,,,,,834,MAS,AGR,150,pedazo,el,l,0.326,,542.605,542.605,0.672453704,-0.08912037,0,0,0,,0,225,225,383,1,,,,
,,,,,,3dd6d7b5b2f251ddac167da4,66a626ef09d4e21e1a8894ec,673649c0788d71c1c21cee01,2024-11-14_13h05.17.293,Tarea de género gramatical,2024.2.2,Win32,144.092219,,,,,,,,,,,,,,,,,,,,,,,542.606,543.689,l,1,[],[],[],[],[],[],[],0.426,1,543.689,544.188,,,,,,744,MAS,AGR,150,cable,el,l,0.426,,544.188,544.188,0.672453704,-0.08912037,0,0,0,,0,226,226,293,1,,,,
,,,,,,3dd6d7b5b2f251ddac167da4,66a626ef09d4e21e1a8894ec,673649c0788d71c1c21cee01,2024-11-14_13h05.17.293,Tarea de género gramatical,2024.2.2,Win32,144.092219,,,,,,,,,,,,,,,,,,,,,,,544.19,545.32,a,1,[],[],[],[],[],[],[],0.472,1,545.321,545.821,,,,,,769,FEM,CON,150,sangre,,a,0.472,,545.822,545.824,0.672453704,-0.08912037,0,0,0,,0,227,227,318,1,,,,
,,,,,,3dd6d7b5b2f251ddac167da4,66a626ef09d4e21e1a8894ec,673649c0788d71c1c21cee01,2024-11-14_13h05.17.293,Tarea de género gramatical,2024.2.2,Win32,144.092219,,,,,,,,,,,,,,,,,,,,,,,545.826,546.757,a,1,[],[],[],[],[],[],[],0.27,1,546.758,547.252,,,,,,627,FEM,AGR,150,broma,la,a,0.27,,547.252,547.252,0.672453704,-0.08912037,0,0,0,,0,228,228,176,1,,,,
,,,,,,3dd6d7b5b2f251ddac167da4,66a626ef09d4e21e1a8894ec,673649c0788d71c1c21cee01,2024-11-14_13h05.17.293,Tarea de género gramatical,2024.2.2,Win32,144.092219,,,,,,,,,,,,,,,,,,,,,,,547.254,548.294,l,1,[],[],[],[],[],[],[],0.379,1,548.294,548.793,,,,,,756,MAS,AGR,150,dinero,el,l,0.379,,548.793,548.793,0.672453704,-0.08912037,0,0,0,,0,229,229,305,1,,,,
,,,,,,3dd6d7b5b2f251ddac167da4,66a626ef09d4e21e1a8894ec,673649c0788d71c1c21cee01,2024-11-14_13h05.17.293,Tarea de género gramatical,2024.2.2,Win32,144.092219,,,,,,,,,,,,,,,,,,,,,,,548.794,549.786,l,1,[],[],[],[],[],[],[],0.333,1,549.786,550.283,,,,,,520,MAS,CON,150,palo,,l,0.333,,550.283,550.283,0.672453704,-0.08912037,0,0,0,,0,230,230,69,1,,,,
,,,,,,3dd6d7b5b2f251ddac167da4,66a626ef09d4e21e1a8894ec,673649c0788d71c1c21cee01,2024-11-14_13h05.17.293,Tarea de género gramatical,2024.2.2,Win32,144.092219,,,,,,,,,,,,,,,,,,,,,,,550.284,551.232,a,1,[],[],[],[],[],[],[],0.288,1,551.234,551.73,,,,,,853,FEM,CON,150,paliza,,a,0.288,,551.732,551.735,0.672453704,-0.08912037,0,0,0,,0,231,231,402,1,,,,
,,,,,,3dd6d7b5b2f251ddac167da4,66a626ef09d4e21e1a8894ec,673649c0788d71c1c21cee01,2024-11-14_13h05.17.293,Tarea de género gramatical,2024.2.2,Win32,144.092219,,,,,,,,,,,,,,,,,,,,,,,551.737,552.699,a,1,[],[],[],[],[],[],[],0.302,1,552.699,553.196,,,,,,679,FEM,CON,150,celda,,a,0.302,,553.196,553.196,0.672453704,-0.08912037,0,0,0,,0,232,232,228,1,,,,
,,,,,,3dd6d7b5b2f251ddac167da4,66a626ef09d4e21e1a8894ec,673649c0788d71c1c21cee01,2024-11-14_13h05.17.293,Tarea de género gramatical,2024.2.2,Win32,144.092219,,,,,,,,,,,,,,,,,,,,,,,553.198,554.266,a,1,[],[],[],[],[],[],[],0.404,1,554.266,554.764,,,,,,806,FEM,DIS,150,piedra,el,a,0.404,,554.764,554.765,0.672453704,-0.08912037,0,0,0,,0,233,233,355,1,,,,
,,,,,,3dd6d7b5b2f251ddac167da4,66a626ef09d4e21e1a8894ec,673649c0788d71c1c21cee01,2024-11-14_13h05.17.293,Tarea de género gramatical,2024.2.2,Win32,144.092219,,,,,,,,,,,,,,,,,,,,,,,554.767,556.008,l,1,[],[],[],[],[],[],[],0.585,1,556.009,556.507,,,,,,870,MAS,AGR,150,helado,el,l,0.585,,556.507,556.507,0.672453704,-0.08912037,0,0,0,,0,234,234,419,1,,,,
,,,,,,3dd6d7b5b2f251ddac167da4,66a626ef09d4e21e1a8894ec,673649c0788d71c1c21cee01,2024-11-14_13h05.17.293,Tarea de género gramatical,2024.2.2,Win32,144.092219,,,,,,,,,,,,,,,,,,,,,,,556.509,557.612,l,1,[],[],[],[],[],[],[],0.446,1,557.612,558.112,,,,,,641,MAS,DIS,150,dolor,la,l,0.446,,558.112,558.112,0.672453704,-0.08912037,0,0,0,,0,235,235,190,1,,,,
,,,,,,3dd6d7b5b2f251ddac167da4,66a626ef09d4e21e1a8894ec,673649c0788d71c1c21cee01,2024-11-14_13h05.17.293,Tarea de género gramatical,2024.2.2,Win32,144.092219,,,,,,,,,,,,,,,,,,,,,,,558.114,559.077,l,1,[],[],[],[],[],[],[],0.306,1,559.077,559.578,,,,,,760,MAS,CON,150,nombre,,l,0.306,,559.579,559.581,0.672453704,-0.08912037,0,0,0,,0,236,236,309,1,,,,
,,,,,,3dd6d7b5b2f251ddac167da4,66a626ef09d4e21e1a8894ec,673649c0788d71c1c21cee01,2024-11-14_13h05.17.293,Tarea de género gramatical,2024.2.2,Win32,144.092219,,,,,,,,,,,,,,,,,,,,,,,559.583,560.72,a,0,[],[],[],[],[],[],[],0.479,0,560.723,561.215,,,,,,696,MAS,AGR,150,humor,el,l,0.479,,561.215,561.215,0.672453704,-0.08912037,0,0,0,,0,237,237,245,1,,,,
,,,,,,3dd6d7b5b2f251ddac167da4,66a626ef09d4e21e1a8894ec,673649c0788d71c1c21cee01,2024-11-14_13h05.17.293,Tarea de género gramatical,2024.2.2,Win32,144.092219,,,,,,,,,,,,,,,,,,,,,,,561.217,562.244,l,1,[],[],[],[],[],[],[],0.369,1,562.245,562.743,,,,,,460,MAS,CON,150,niño,,l,0.369,,562.743,562.743,0.672453704,-0.08912037,0,0,0,,0,238,238,9,1,,,,
,,,,,,3dd6d7b5b2f251ddac167da4,66a626ef09d4e21e1a8894ec,673649c0788d71c1c21cee01,2024-11-14_13h05.17.293,Tarea de género gramatical,2024.2.2,Win32,144.092219,,,,,,,,,,,,,,,,,,,,,,,562.744,563.757,a,1,[],[],[],[],[],[],[],0.351,1,563.758,564.258,,,,,,805,FEM,CON,150,mirada,,a,0.351,,564.258,564.258,0.672453704,-0.08912037,0,0,0,,0,239,239,354,1,,,,
,,,,,,3dd6d7b5b2f251ddac167da4,66a626ef09d4e21e1a8894ec,673649c0788d71c1c21cee01,2024-11-14_13h05.17.293,Tarea de género gramatical,2024.2.2,Win32,144.092219,,,,,,,,,,,,,,,,,,,,,,,564.26,565.394,l,1,[],[],[],[],[],[],[],0.474,1,565.394,565.889,,,,,,647,MAS,DIS,150,avión,la,l,0.474,,565.89,565.893,0.672453704,-0.08912037,0,0,0,,0,240,240,196,1,,,,
,,,,,,3dd6d7b5b2f251ddac167da4,66a626ef09d4e21e1a8894ec,673649c0788d71c1c21cee01,2024-11-14_13h05.17.293,Tarea de género gramatical,2024.2.2,Win32,144.092219,,,,,,,,,,,,,,,,,,,,,,,565.893,567.036,l,1,[],[],[],[],[],[],[],0.482,1,567.036,567.535,,,,,,545,MAS,DIS,150,tomo,la,l,0.482,,567.535,567.535,0.672453704,-0.08912037,0,0,0,,0,241,241,94,1,,,,
,,,,,,3dd6d7b5b2f251ddac167da4,66a626ef09d4e21e1a8894ec,673649c0788d71c1c21cee01,2024-11-14_13h05.17.293,Tarea de género gramatical,2024.2.2,Win32,144.092219,,,,,,,,,,,,,,,,,,,,,,,567.537,568.828,l,1,[],[],[],[],[],[],[],0.636,1,568.829,569.324,,,,,,490,MAS,CON,150,dios,,l,0.636,,569.324,569.325,0.672453704,-0.08912037,0,0,0,,0,242,242,39,1,,,,
,,,,,,3dd6d7b5b2f251ddac167da4,66a626ef09d4e21e1a8894ec,673649c0788d71c1c21cee01,2024-11-14_13h05.17.293,Tarea de género gramatical,2024.2.2,Win32,144.092219,,,,,,,,,,,,,,,,,,,,,,,569.327,570.637,l,1,[],[],[],[],[],[],[],0.654,1,570.637,571.132,,,,,,832,MAS,CON,150,teatro,,l,0.654,,571.132,571.132,0.672453704,-0.08912037,0,0,0,,0,243,243,381,1,,,,
,,,,,,3dd6d7b5b2f251ddac167da4,66a626ef09d4e21e1a8894ec,673649c0788d71c1c21cee01,2024-11-14_13h05.17.293,Tarea de género gramatical,2024.2.2,Win32,144.092219,,,,,,,,,,,,,,,,,,,,,,,571.133,572.197,a,1,[],[],[],[],[],[],[],0.406,1,572.197,572.687,,,,,,506,FEM,DIS,150,bola,el,a,0.406,,572.687,572.687,0.672453704,-0.08912037,0,0,0,,0,244,244,55,1,,,,
,,,,,,3dd6d7b5b2f251ddac167da4,66a626ef09d4e21e1a8894ec,673649c0788d71c1c21cee01,2024-11-14_13h05.17.293,Tarea de género gramatical,2024.2.2,Win32,144.092219,,,,,,,,,,,,,,,,,,,,,,,572.688,574.188,l,1,[],[],[],[],[],[],[],0.837,1,574.188,574.688,,,,,,654,MAS,AGR,150,papel,el,l,0.837,,574.689,574.691,0.672453704,-0.08912037,0,0,0,,0,245,245,203,1,,,,
,,,,,,3dd6d7b5b2f251ddac167da4,66a626ef09d4e21e1a8894ec,673649c0788d71c1c21cee01,2024-11-14_13h05.17.293,Tarea de género gramatical,2024.2.2,Win32,144.092219,,,,,,,,,,,,,,,,,,,,,,,574.691,575.66,l,1,[],[],[],[],[],[],[],0.307,1,575.66,576.16,,,,,,508,MAS,CON,150,mono,,l,0.307,,576.16,576.16,0.672453704,-0.08912037,0,0,0,,0,246,246,57,1,,,,
,,,,,,3dd6d7b5b2f251ddac167da4,66a626ef09d4e21e1a8894ec,673649c0788d71c1c21cee01,2024-11-14_13h05.17.293,Tarea de género gramatical,2024.2.2,Win32,144.092219,,,,,,,,,,,,,,,,,,,,,,,576.162,577.299,l,1,[],[],[],[],[],[],[],0.475,1,577.3,577.798,,,,,,593,MAS,DIS,150,faro,la,l,0.475,,577.798,577.799,0.672453704,-0.08912037,0,0,0,,0,247,247,142,1,,,,
,,,,,,3dd6d7b5b2f251ddac167da4,66a626ef09d4e21e1a8894ec,673649c0788d71c1c21cee01,2024-11-14_13h05.17.293,Tarea de género gramatical,2024.2.2,Win32,144.092219,,,,,,,,,,,,,,,,,,,,,,,577.8,578.841,l,1,[],[],[],[],[],[],[],0.383,1,578.841,579.341,,,,,,682,MAS,CON,150,calor,,l,0.383,,579.341,579.341,0.672453704,-0.08912037,0,0,0,,0,248,248,231,1,,,,
,,,,,,3dd6d7b5b2f251ddac167da4,66a626ef09d4e21e1a8894ec,673649c0788d71c1c21cee01,2024-11-14_13h05.17.293,Tarea de género gramatical,2024.2.2,Win32,144.092219,,,,,,,,,,,,,,,,,,,,,,,579.342,580.335,a,1,[],[],[],[],[],[],[],0.335,1,580.335,580.831,,,,,,644,FEM,DIS,150,banda,el,a,0.335,,580.833,580.834,0.672453704,-0.08912037,0,0,0,,0,249,249,193,1,,,,
,,,,,,3dd6d7b5b2f251ddac167da4,66a626ef09d4e21e1a8894ec,673649c0788d71c1c21cee01,2024-11-14_13h05.17.293,Tarea de género gramatical,2024.2.2,Win32,144.092219,,,,,,,,,,,,,,,,,,,,,,,580.835,582.081,a,1,[],[],[],[],[],[],[],0.583,1,582.083,582.584,,,,,,536,FEM,DIS,150,cruz,el,a,0.583,,582.585,582.585,0.672453704,-0.08912037,0,0,0,,0,250,250,85,1,,,,
,,,,,,3dd6d7b5b2f251ddac167da4,66a626ef09d4e21e1a8894ec,673649c0788d71c1c21cee01,2024-11-14_13h05.17.293,Tarea de género gramatical,2024.2.2,Win32,144.092219,,,,,,,,,,,,,,,,,,,,,,,582.591,583.653,a,1,[],[],[],[],[],[],[],0.404,1,583.654,584.153,,,,,,722,FEM,DIS,150,oreja,el,a,0.404,,584.153,584.153,0.672453704,-0.08912037,0,0,0,,0,251,251,271,1,,,,
,,,,,,3dd6d7b5b2f251ddac167da4,66a626ef09d4e21e1a8894ec,673649c0788d71c1c21cee01,2024-11-14_13h05.17.293,Tarea de género gramatical,2024.2.2,Win32,144.092219,,,,,,,,,,,,,,,,,,,,,,,584.155,585.167,l,1,[],[],[],[],[],[],[],0.354,1,585.168,585.666,,,,,,810,MAS,AGR,150,puente,el,l,0.354,,585.667,585.667,0.672453704,-0.08912037,0,0,0,,0,252,252,359,1,,,,
,,,,,,3dd6d7b5b2f251ddac167da4,66a626ef09d4e21e1a8894ec,673649c0788d71c1c21cee01,2024-11-14_13h05.17.293,Tarea de género gramatical,2024.2.2,Win32,144.092219,,,,,,,,,,,,,,,,,,,,,,,585.669,586.646,l,1,[],[],[],[],[],[],[],0.318,1,586.647,587.146,,,,,,857,MAS,DIS,150,jurado,la,l,0.318,,587.146,587.146,0.672453704,-0.08912037,0,0,0,,0,253,253,406,1,,,,
,,,,,,3dd6d7b5b2f251ddac167da4,66a626ef09d4e21e1a8894ec,673649c0788d71c1c21cee01,2024-11-14_13h05.17.293,Tarea de género gramatical,2024.2.2,Win32,144.092219,,,,,,,,,,,,,,,,,,,,,,,587.149,588.303,a,1,[],[],[],[],[],[],[],0.494,1,588.303,588.803,,,,,,763,FEM,CON,150,ciudad,,a,0.494,,588.804,588.807,0.672453704,-0.08912037,0,0,0,,0,254,254,312,1,,,,
,,,,,,3dd6d7b5b2f251ddac167da4,66a626ef09d4e21e1a8894ec,673649c0788d71c1c21cee01,2024-11-14_13h05.17.293,Tarea de género gramatical,2024.2.2,Win32,144.092219,,,,,,,,,,,,,,,,,,,,,,,588.808,589.91,a,1,[],[],[],[],[],[],[],0.446,1,589.91,590.409,,,,,,715,FEM,CON,150,rueda,,a,0.446,,590.409,590.41,0.672453704,-0.08912037,0,0,0,,0,255,255,264,1,,,,
,,,,,,3dd6d7b5b2f251ddac167da4,66a626ef09d4e21e1a8894ec,673649c0788d71c1c21cee01,2024-11-14_13h05.17.293,Tarea de género gramatical,2024.2.2,Win32,144.092219,,,,,,,,,,,,,,,,,,,,,,,590.411,591.646,a,1,[],[],[],[],[],[],[],0.577,1,591.647,592.145,,,,,,733,FEM,CON,150,pluma,,a,0.577,,592.145,592.146,0.672453704,-0.08912037,0,0,0,,0,256,256,282,1,,,,
,,,,,,3dd6d7b5b2f251ddac167da4,66a626ef09d4e21e1a8894ec,673649c0788d71c1c21cee01,2024-11-14_13h05.17.293,Tarea de género gramatical,2024.2.2,Win32,144.092219,,,,,,,,,,,,,,,,,,,,,,,592.148,593.228,l,1,[],[],[],[],[],[],[],0.416,1,593.229,593.726,,,,,,888,MAS,AGR,150,tanque,el,l,0.416,,593.727,593.727,0.672453704,-0.08912037,0,0,0,,0,257,257,437,1,,,,
,,,,,,3dd6d7b5b2f251ddac167da4,66a626ef09d4e21e1a8894ec,673649c0788d71c1c21cee01,2024-11-14_13h05.17.293,Tarea de género gramatical,2024.2.2,Win32,144.092219,,,,,,,,,,,,,,,,,,,,,,,593.728,594.811,l,1,[],[],[],[],[],[],[],0.424,1,594.811,595.312,,,,,,826,MAS,CON,150,efecto,,l,0.424,,595.313,595.315,0.672453704,-0.08912037,0,0,0,,0,258,258,375,1,,,,
,,,,,,3dd6d7b5b2f251ddac167da4,66a626ef09d4e21e1a8894ec,673649c0788d71c1c21cee01,2024-11-14_13h05.17.293,Tarea de género gramatical,2024.2.2,Win32,144.092219,,,,,,,,,,,,,,,,,,,,,,,595.316,596.369,a,1,[],[],[],[],[],[],[],0.396,1,596.369,596.867,,,,,,860,FEM,DIS,150,piedad,el,a,0.396,,596.868,596.868,0.672453704,-0.08912037,0,0,0,,0,259,259,409,1,,,,
