counterbalancing_condition,consent_prescreening.block_1/declare_consent,consent_prescreening.block_1/age_years,consent_prescreening.block_1/gender,consent_prescreening.block_1/language_disorder,consent_prescreening.block_1/first_language,PROLIFIC_PID,STUDY_ID,SESSION_ID,date,expName,psychopyVersion,OS,frameRate,check_prescreening_answers.started,check_prescreening_answers.stopped,Instructions.started,Instructions.stopped,instr_done_keyboard.keys,instr_done_keyboard.rt,instr_done_keyboard.duration,instr_done_touch.x,instr_done_touch.y,instr_done_touch.leftButton,instr_done_touch.midButton,instr_done_touch.rightButton,instruction_pages.thisRepN,instruction_pages.thisTrialN,instruction_pages.thisN,instruction_pages.thisIndex,instruction_pages.ran,pageN,phase,instruct_text,has_image,instruct_image,presentTrial.started,presentTrial.stopped,response.keys,response.corr,touch_resp.x,touch_resp.y,touch_resp.leftButton,touch_resp.midButton,touch_resp.rightButton,touch_resp.time,touch_resp.clicked_name,rt,corr,feedback.started,feedback.stopped,practice_trials.thisRepN,practice_trials.thisTrialN,practice_trials.thisN,practice_trials.thisIndex,practice_trials.ran,TrialID,StimulusType,Condition,PrimeDuration,Prime,Flanker,corrAns,response.rt,response.duration,Break.started,Break.stopped,break_done_touch.x,break_done_touch.y,break_done_touch.leftButton,break_done_touch.midButton,break_done_touch.rightButton,break_done_keyboard.keys,experiment_trials.thisRepN,experiment_trials.thisTrialN,experiment_trials.thisN,experiment_trials.thisIndex,experiment_trials.ran,break_done_keyboard.rt,break_done_keyboard.duration,End.started,End.stopped
1,"[""over_18"",""read_info"",""comfortable"",""consent_given""]",31,M,"[""none""]","[""english"",""spanish""]",3e0baa979f527cd2c7273144,66a626ef09d4e21e1a8894ec,673649bedc1752bf5d5631f8,2024-11-14_20h10.38.921,Tarea de género gramatical,2024.2.2,Win32,59.52380952,,,,,,,,,,,,,,,,,,,,,,,,,,,,,,,,,,,,,,,,,,,,,,,,,,,,,,,,,,,,,,,,,,,,
,,,,,,3e0baa979f527cd2c7273144,66a626ef09d4e21e1a8894ec,673649bedc1752bf5d5631f8,2024-11-14_20h10.38.921,Tarea de género gramatical,2024.2.2,Win32,59.52380952,68.1611,68.1613,,,,,,,,,,,,,,,,,,,,,,,,,,,,,,,,,,,,,,,,,,,,,,,,,,,,,,,,,,,,,,,,,,
,,,,,,3e0baa979f527cd2c7273144,66a626ef09d4e21e1a8894ec,673649bedc1752bf5d5631f8,2024-11-14_20h10.38.921,Tarea de género gramatical,2024.2.2,Win32,59.52380952,,,68.1843,93.4173,space,25.1895,,0.869444529,-0.138888889,0,0,0,0,0,0,0,1,1,instructions,"INSTRUCCIONES
Va a realizar una prueba de selección gramatical. Desde el comienzo de la prueba mire siempre al centro de la pantalla. Al cabo de un momento, aparecerán palabras. La tarea consiste en determinar si la palabra del centro (siempre será un sustantivo), pertenece al género masculino o femenino.

Pulse la tecla ESPACIO o toque el botón de abajo para continuar.",0,keyboardresponseFM.png,,,,,,,,,,,,,,,,,,,,,,,,,,,,,,,,,,,,,,,,,,,,,,
,,,,,,3e0baa979f527cd2c7273144,66a626ef09d4e21e1a8894ec,673649bedc1752bf5d5631f8,2024-11-14_20h10.38.921,Tarea de género gramatical,2024.2.2,Win32,59.52380952,,,93.4238,123.507,space,30.0062,,0.869444529,-0.138888889,0,0,0,0,1,1,1,1,2,instructions,"Si su dispositivo tiene teclado, pulse la tecla ""A"" para las palabras en femenino (por ejemplo: ""mano"") y la tecla ""L"" para las palabras en masculino(por ejemplo: ""arroz"").
Pulse la tecla ESPACIO o toque el botón de abajo para continuar.",1,keyboardresponseFM.png,,,,,,,,,,,,,,,,,,,,,,,,,,,,,,,,,,,,,,,,,,,,,,
,,,,,,3e0baa979f527cd2c7273144,66a626ef09d4e21e1a8894ec,673649bedc1752bf5d5631f8,2024-11-14_20h10.38.921,Tarea de género gramatical,2024.2.2,Win32,59.52380952,,,123.5117,139.7426,space,16.1643,,0.869444529,-0.138888889,0,0,0,0,2,2,2,1,3,instructions,"Si utiliza un dispositivo sólo táctil, colóquelo en horizontal y utilice los botones de la pantalla. No utilice el ratón.
Pulse la tecla ESPACIO o toque el botón de abajo para continuar.",2,touchresponseFM.png,,,,,,,,,,,,,,,,,,,,,,,,,,,,,,,,,,,,,,,,,,,,,,
,,,,,,3e0baa979f527cd2c7273144,66a626ef09d4e21e1a8894ec,673649bedc1752bf5d5631f8,2024-11-14_20h10.38.921,Tarea de género gramatical,2024.2.2,Win32,59.52380952,,,139.7482,161.8402,space,22.074,,0.869444529,-0.138888889,0,0,0,0,3,3,3,1,4,instructions,"Es muy importante que responda con la mayor rapidez y precisión posibles, ya que cada cadena de letras sólo estará en pantalla durante un instante. Si no responde en ese tiempo, aparecerá el mensaje ""Muy lento"" y el experimento pasará a la siguiente palabra. Los primeros 15 intentos serán de práctica y habrá dos descansos durante la prueba.
Pulse la tecla ESPACIO o toque el botón de abajo para iniciar la parte de práctica.",0,keyboardresponseFM.png,,,,,,,,,,,,,,,,,,,,,,,,,,,,,,,,,,,,,,,,,,,,,,
,,,,,,3e0baa979f527cd2c7273144,66a626ef09d4e21e1a8894ec,673649bedc1752bf5d5631f8,2024-11-14_20h10.38.921,Tarea de género gramatical,2024.2.2,Win32,59.52380952,,,,,,,,,,,,,,,,,,,,,,,161.8677,164.5099,,0,[],[],[],[],[],[],[],,-1,164.5103,165.0095,0,0,0,1,1,2002,FEM,CON,150,pala,,a,,,,,,,,,,,,,,,,,,,
,,,,,,3e0baa979f527cd2c7273144,66a626ef09d4e21e1a8894ec,673649bedc1752bf5d5631f8,2024-11-14_20h10.38.921,Tarea de género gramatical,2024.2.2,Win32,59.52380952,,,,,,,,,,,,,,,,,,,,,,,165.0123,167.6517,,0,[],[],[],[],[],[],[],,-1,167.6519,168.1566,0,1,1,10,1,2011,MAS,CON,150,canal,,l,,,,,,,,,,,,,,,,,,,
,,,,,,3e0baa979f527cd2c7273144,66a626ef09d4e21e1a8894ec,673649bedc1752bf5d5631f8,2024-11-14_20h10.38.921,Tarea de género gramatical,2024.2.2,Win32,59.52380952,,,,,,,,,,,,,,,,,,,,,,,168.1584,169.855,a,1,[],[],[],[],[],[],[],1.0169,1,169.8704,170.3544,0,2,2,0,1,2001,FEM,AGR,150,nuca,la,a,1.0169,,,,,,,,,,,,,,,,,,
,,,,,,3e0baa979f527cd2c7273144,66a626ef09d4e21e1a8894ec,673649bedc1752bf5d5631f8,2024-11-14_20h10.38.921,Tarea de género gramatical,2024.2.2,Win32,59.52380952,,,,,,,,,,,,,,,,,,,,,,,170.3575,171.8033,l,0,[],[],[],[],[],[],[],0.7787,0,171.8045,172.298,0,3,3,5,1,2006,FEM,DIS,150,serie,el,a,0.7787,,,,,,,,,,,,,,,,,,
,,,,,,3e0baa979f527cd2c7273144,66a626ef09d4e21e1a8894ec,673649bedc1752bf5d5631f8,2024-11-14_20h10.38.921,Tarea de género gramatical,2024.2.2,Win32,59.52380952,,,,,,,,,,,,,,,,,,,,,,,172.301,173.9019,l,1,[],[],[],[],[],[],[],0.9342,1,173.9025,174.4012,0,4,4,12,1,2013,MAS,AGR,150,acero,el,l,0.9342,,,,,,,,,,,,,,,,,,
,,,,,,3e0baa979f527cd2c7273144,66a626ef09d4e21e1a8894ec,673649bedc1752bf5d5631f8,2024-11-14_20h10.38.921,Tarea de género gramatical,2024.2.2,Win32,59.52380952,,,,,,,,,,,,,,,,,,,,,,,174.4025,175.8992,a,0,[],[],[],[],[],[],[],0.8161,0,175.9004,176.3981,0,5,5,11,1,2012,MAS,DIS,150,clima,la,l,0.8161,,,,,,,,,,,,,,,,,,
,,,,,,3e0baa979f527cd2c7273144,66a626ef09d4e21e1a8894ec,673649bedc1752bf5d5631f8,2024-11-14_20h10.38.921,Tarea de género gramatical,2024.2.2,Win32,59.52380952,,,,,,,,,,,,,,,,,,,,,,,176.3997,178.3641,l,1,[],[],[],[],[],[],[],1.2956,1,178.3652,178.8587,0,6,6,14,1,2015,MAS,DIS,150,robot,la,l,1.2956,,,,,,,,,,,,,,,,,,
,,,,,,3e0baa979f527cd2c7273144,66a626ef09d4e21e1a8894ec,673649bedc1752bf5d5631f8,2024-11-14_20h10.38.921,Tarea de género gramatical,2024.2.2,Win32,59.52380952,,,,,,,,,,,,,,,,,,,,,,,178.8605,180.5786,l,1,[],[],[],[],[],[],[],1.0451,1,180.5788,181.0791,0,7,7,8,1,2009,MAS,DIS,150,puerto,la,l,1.0451,,,,,,,,,,,,,,,,,,
,,,,,,3e0baa979f527cd2c7273144,66a626ef09d4e21e1a8894ec,673649bedc1752bf5d5631f8,2024-11-14_20h10.38.921,Tarea de género gramatical,2024.2.2,Win32,59.52380952,,,,,,,,,,,,,,,,,,,,,,,181.0802,182.6386,l,1,[],[],[],[],[],[],[],0.8905,1,182.6391,183.1268,0,8,8,9,1,2010,MAS,AGR,150,vecino,el,l,0.8905,,,,,,,,,,,,,,,,,,
,,,,,,3e0baa979f527cd2c7273144,66a626ef09d4e21e1a8894ec,673649bedc1752bf5d5631f8,2024-11-14_20h10.38.921,Tarea de género gramatical,2024.2.2,Win32,59.52380952,,,,,,,,,,,,,,,,,,,,,,,183.1285,184.7702,l,1,[],[],[],[],[],[],[],0.9696,1,184.7706,185.2722,0,9,9,13,1,2014,MAS,CON,150,siglo,,l,0.9696,,,,,,,,,,,,,,,,,,
,,,,,,3e0baa979f527cd2c7273144,66a626ef09d4e21e1a8894ec,673649bedc1752bf5d5631f8,2024-11-14_20h10.38.921,Tarea de género gramatical,2024.2.2,Win32,59.52380952,,,,,,,,,,,,,,,,,,,,,,,185.2733,186.5904,a,1,[],[],[],[],[],[],[],0.651,1,186.5905,187.0856,0,10,10,4,1,2005,FEM,CON,150,placa,,a,0.651,,,,,,,,,,,,,,,,,,
,,,,,,3e0baa979f527cd2c7273144,66a626ef09d4e21e1a8894ec,673649bedc1752bf5d5631f8,2024-11-14_20h10.38.921,Tarea de género gramatical,2024.2.2,Win32,59.52380952,,,,,,,,,,,,,,,,,,,,,,,187.087,188.4559,l,0,[],[],[],[],[],[],[],0.6959,0,188.4573,188.9547,0,11,11,3,1,2004,FEM,AGR,150,venta,la,a,0.6959,,,,,,,,,,,,,,,,,,
,,,,,,3e0baa979f527cd2c7273144,66a626ef09d4e21e1a8894ec,673649bedc1752bf5d5631f8,2024-11-14_20h10.38.921,Tarea de género gramatical,2024.2.2,Win32,59.52380952,,,,,,,,,,,,,,,,,,,,,,,188.9559,190.4205,a,1,[],[],[],[],[],[],[],0.7965,1,190.4214,190.9197,0,12,12,6,1,2007,FEM,AGR,150,navaja,la,a,0.7965,,,,,,,,,,,,,,,,,,
,,,,,,3e0baa979f527cd2c7273144,66a626ef09d4e21e1a8894ec,673649bedc1752bf5d5631f8,2024-11-14_20h10.38.921,Tarea de género gramatical,2024.2.2,Win32,59.52380952,,,,,,,,,,,,,,,,,,,,,,,190.9219,192.7515,a,1,[],[],[],[],[],[],[],1.1654,1,192.7517,193.2513,0,13,13,2,1,2003,FEM,DIS,150,daga,el,a,1.1654,,,,,,,,,,,,,,,,,,
,,,,,,3e0baa979f527cd2c7273144,66a626ef09d4e21e1a8894ec,673649bedc1752bf5d5631f8,2024-11-14_20h10.38.921,Tarea de género gramatical,2024.2.2,Win32,59.52380952,,,,,,,,,,,,,,,,,,,,,,,193.2527,194.9113,a,1,[],[],[],[],[],[],[],0.9826,1,194.9117,195.4156,0,14,14,7,1,2008,FEM,CON,150,siesta,,a,0.9826,,,,,,,,,,,,,,,,,,
,,,,,,3e0baa979f527cd2c7273144,66a626ef09d4e21e1a8894ec,673649bedc1752bf5d5631f8,2024-11-14_20h10.38.921,Tarea de género gramatical,2024.2.2,Win32,59.52380952,,,228.0429,244.8016,space,16.7395,,0.869444529,-0.138888889,0,0,0,,,,,,,,,,,244.8558,246.2497,a,1,[],[],[],[],[],[],[],0.7186,1,246.2498,246.7491,,,,,,519,FEM,AGR,150,rata,la,a,0.7186,,246.7497,246.7572,0.869444529,-0.138888889,0,0,0,,0,0,0,68,1,,,,
,,,,,,3e0baa979f527cd2c7273144,66a626ef09d4e21e1a8894ec,673649bedc1752bf5d5631f8,2024-11-14_20h10.38.921,Tarea de género gramatical,2024.2.2,Win32,59.52380952,,,,,,,,,,,,,,,,,,,,,,,246.7589,248.3478,a,1,[],[],[],[],[],[],[],0.9163,1,248.3479,248.8471,,,,,,849,FEM,AGR,150,charla,la,a,0.9163,,248.8472,248.8473,0.869444529,-0.138888889,0,0,0,,0,1,1,398,1,,,,
,,,,,,3e0baa979f527cd2c7273144,66a626ef09d4e21e1a8894ec,673649bedc1752bf5d5631f8,2024-11-14_20h10.38.921,Tarea de género gramatical,2024.2.2,Win32,59.52380952,,,,,,,,,,,,,,,,,,,,,,,248.8496,250.3791,a,1,[],[],[],[],[],[],[],0.8503,1,250.3792,250.8787,,,,,,751,FEM,CON,150,verdad,,a,0.8503,,250.8809,250.8824,0.869444529,-0.138888889,0,0,0,,0,2,2,300,1,,,,
,,,,,,3e0baa979f527cd2c7273144,66a626ef09d4e21e1a8894ec,673649bedc1752bf5d5631f8,2024-11-14_20h10.38.921,Tarea de género gramatical,2024.2.2,Win32,59.52380952,,,,,,,,,,,,,,,,,,,,,,,250.8831,252.5107,a,1,[],[],[],[],[],[],[],0.9577,1,252.5109,253.0102,,,,,,824,FEM,DIS,150,herida,el,a,0.9577,,253.0102,253.0104,0.869444529,-0.138888889,0,0,0,,0,3,3,373,1,,,,
,,,,,,3e0baa979f527cd2c7273144,66a626ef09d4e21e1a8894ec,673649bedc1752bf5d5631f8,2024-11-14_20h10.38.921,Tarea de género gramatical,2024.2.2,Win32,59.52380952,,,,,,,,,,,,,,,,,,,,,,,253.0128,254.6088,a,1,[],[],[],[],[],[],[],0.917,1,254.6088,255.1087,,,,,,873,FEM,AGR,150,poesía,la,a,0.917,,255.1087,255.1088,0.869444529,-0.138888889,0,0,0,,0,4,4,422,1,,,,
,,,,,,3e0baa979f527cd2c7273144,66a626ef09d4e21e1a8894ec,673649bedc1752bf5d5631f8,2024-11-14_20h10.38.921,Tarea de género gramatical,2024.2.2,Win32,59.52380952,,,,,,,,,,,,,,,,,,,,,,,255.1101,257.1066,a,1,[],[],[],[],[],[],[],1.3179,1,257.1067,257.6061,,,,,,452,FEM,DIS,150,vida,el,a,1.3179,,257.6062,257.6063,0.869444529,-0.138888889,0,0,0,,0,5,5,1,1,,,,
,,,,,,3e0baa979f527cd2c7273144,66a626ef09d4e21e1a8894ec,673649bedc1752bf5d5631f8,2024-11-14_20h10.38.921,Tarea de género gramatical,2024.2.2,Win32,59.52380952,,,,,,,,,,,,,,,,,,,,,,,257.608,259.1049,l,1,[],[],[],[],[],[],[],0.8228,1,259.1049,259.6046,,,,,,616,MAS,CON,150,coche,,l,0.8228,,259.6071,259.6085,0.869444529,-0.138888889,0,0,0,,0,6,6,165,1,,,,
,,,,,,3e0baa979f527cd2c7273144,66a626ef09d4e21e1a8894ec,673649bedc1752bf5d5631f8,2024-11-14_20h10.38.921,Tarea de género gramatical,2024.2.2,Win32,59.52380952,,,,,,,,,,,,,,,,,,,,,,,259.6092,261.2363,l,1,[],[],[],[],[],[],[],0.9569,1,261.2364,261.736,,,,,,546,MAS,AGR,150,pato,el,l,0.9569,,261.7361,261.7361,0.869444529,-0.138888889,0,0,0,,0,7,7,95,1,,,,
,,,,,,3e0baa979f527cd2c7273144,66a626ef09d4e21e1a8894ec,673649bedc1752bf5d5631f8,2024-11-14_20h10.38.921,Tarea de género gramatical,2024.2.2,Win32,59.52380952,,,,,,,,,,,,,,,,,,,,,,,261.7374,263.068,a,1,[],[],[],[],[],[],[],0.6505,1,263.0681,263.5677,,,,,,745,FEM,CON,150,grasa,,a,0.6505,,263.5678,263.5678,0.869444529,-0.138888889,0,0,0,,0,8,8,294,1,,,,
,,,,,,3e0baa979f527cd2c7273144,66a626ef09d4e21e1a8894ec,673649bedc1752bf5d5631f8,2024-11-14_20h10.38.921,Tarea de género gramatical,2024.2.2,Win32,59.52380952,,,,,,,,,,,,,,,,,,,,,,,263.5688,265.083,a,1,[],[],[],[],[],[],[],0.8336,1,265.0832,265.5827,,,,,,836,FEM,DIS,150,sombra,el,a,0.8336,,265.5829,265.583,0.869444529,-0.138888889,0,0,0,,0,9,9,385,1,,,,
,,,,,,3e0baa979f527cd2c7273144,66a626ef09d4e21e1a8894ec,673649bedc1752bf5d5631f8,2024-11-14_20h10.38.921,Tarea de género gramatical,2024.2.2,Win32,59.52380952,,,,,,,,,,,,,,,,,,,,,,,265.5852,266.8648,a,1,[],[],[],[],[],[],[],0.6021,1,266.865,267.3648,,,,,,633,FEM,AGR,150,llave,la,a,0.6021,,267.3649,267.3652,0.869444529,-0.138888889,0,0,0,,0,10,10,182,1,,,,
,,,,,,3e0baa979f527cd2c7273144,66a626ef09d4e21e1a8894ec,673649bedc1752bf5d5631f8,2024-11-14_20h10.38.921,Tarea de género gramatical,2024.2.2,Win32,59.52380952,,,,,,,,,,,,,,,,,,,,,,,267.3676,268.8132,a,1,[],[],[],[],[],[],[],0.768,1,268.8133,269.3127,,,,,,813,FEM,AGR,150,unidad,la,a,0.768,,269.3144,269.3167,0.869444529,-0.138888889,0,0,0,,0,11,11,362,1,,,,
,,,,,,3e0baa979f527cd2c7273144,66a626ef09d4e21e1a8894ec,673649bedc1752bf5d5631f8,2024-11-14_20h10.38.921,Tarea de género gramatical,2024.2.2,Win32,59.52380952,,,,,,,,,,,,,,,,,,,,,,,269.3175,270.8279,l,1,[],[],[],[],[],[],[],0.8356,1,270.828,271.3275,,,,,,773,MAS,DIS,150,marido,la,l,0.8356,,271.3276,271.3277,0.869444529,-0.138888889,0,0,0,,0,12,12,322,1,,,,
,,,,,,3e0baa979f527cd2c7273144,66a626ef09d4e21e1a8894ec,673649bedc1752bf5d5631f8,2024-11-14_20h10.38.921,Tarea de género gramatical,2024.2.2,Win32,59.52380952,,,,,,,,,,,,,,,,,,,,,,,271.3292,272.7597,l,1,[],[],[],[],[],[],[],0.752,1,272.7598,273.2591,,,,,,624,MAS,AGR,150,perro,el,l,0.752,,273.2592,273.2593,0.869444529,-0.138888889,0,0,0,,0,13,13,173,1,,,,
,,,,,,3e0baa979f527cd2c7273144,66a626ef09d4e21e1a8894ec,673649bedc1752bf5d5631f8,2024-11-14_20h10.38.921,Tarea de género gramatical,2024.2.2,Win32,59.52380952,,,,,,,,,,,,,,,,,,,,,,,273.2613,274.5081,l,1,[],[],[],[],[],[],[],0.5723,1,274.5081,275.0077,,,,,,580,MAS,CON,150,yate,,l,0.5723,,275.0077,275.0078,0.869444529,-0.138888889,0,0,0,,0,14,14,129,1,,,,
,,,,,,3e0baa979f527cd2c7273144,66a626ef09d4e21e1a8894ec,673649bedc1752bf5d5631f8,2024-11-14_20h10.38.921,Tarea de género gramatical,2024.2.2,Win32,59.52380952,,,,,,,,,,,,,,,,,,,,,,,275.0094,276.4066,l,1,[],[],[],[],[],[],[],0.7193,1,276.4068,276.9063,,,,,,707,MAS,DIS,150,pecho,la,l,0.7193,,276.9096,276.912,0.869444529,-0.138888889,0,0,0,,0,15,15,256,1,,,,
,,,,,,3e0baa979f527cd2c7273144,66a626ef09d4e21e1a8894ec,673649bedc1752bf5d5631f8,2024-11-14_20h10.38.921,Tarea de género gramatical,2024.2.2,Win32,59.52380952,,,,,,,,,,,,,,,,,,,,,,,276.9134,278.2382,l,1,[],[],[],[],[],[],[],0.6541,1,278.2383,278.7378,,,,,,486,MAS,AGR,150,dedo,el,l,0.6541,,278.7379,278.738,0.869444529,-0.138888889,0,0,0,,0,16,16,35,1,,,,
,,,,,,3e0baa979f527cd2c7273144,66a626ef09d4e21e1a8894ec,673649bedc1752bf5d5631f8,2024-11-14_20h10.38.921,Tarea de género gramatical,2024.2.2,Win32,59.52380952,,,,,,,,,,,,,,,,,,,,,,,278.7396,281.1024,a,1,[],[],[],[],[],[],[],1.6846,1,281.1024,281.602,,,,,,476,FEM,DIS,150,pena,el,a,1.6846,,281.6021,281.6021,0.869444529,-0.138888889,0,0,0,,0,17,17,25,1,,,,
,,,,,,3e0baa979f527cd2c7273144,66a626ef09d4e21e1a8894ec,673649bedc1752bf5d5631f8,2024-11-14_20h10.38.921,Tarea de género gramatical,2024.2.2,Win32,59.52380952,,,,,,,,,,,,,,,,,,,,,,,281.6038,283.1839,l,1,[],[],[],[],[],[],[],0.9044,1,283.184,283.6836,,,,,,833,MAS,DIS,150,parque,la,l,0.9044,,283.6837,283.6837,0.869444529,-0.138888889,0,0,0,,0,18,18,382,1,,,,
,,,,,,3e0baa979f527cd2c7273144,66a626ef09d4e21e1a8894ec,673649bedc1752bf5d5631f8,2024-11-14_20h10.38.921,Tarea de género gramatical,2024.2.2,Win32,59.52380952,,,,,,,,,,,,,,,,,,,,,,,283.6849,285.1821,a,1,[],[],[],[],[],[],[],0.819,1,285.1822,285.6816,,,,,,543,FEM,AGR,150,lata,la,a,0.819,,285.6816,285.6817,0.869444529,-0.138888889,0,0,0,,0,19,19,92,1,,,,
,,,,,,3e0baa979f527cd2c7273144,66a626ef09d4e21e1a8894ec,673649bedc1752bf5d5631f8,2024-11-14_20h10.38.921,Tarea de género gramatical,2024.2.2,Win32,59.52380952,,,,,,,,,,,,,,,,,,,,,,,285.6832,286.964,a,1,[],[],[],[],[],[],[],0.6061,1,286.9641,287.4636,,,,,,685,FEM,CON,150,torre,,a,0.6061,,287.4663,287.4683,0.869444529,-0.138888889,0,0,0,,0,20,20,234,1,,,,
,,,,,,3e0baa979f527cd2c7273144,66a626ef09d4e21e1a8894ec,673649bedc1752bf5d5631f8,2024-11-14_20h10.38.921,Tarea de género gramatical,2024.2.2,Win32,59.52380952,,,,,,,,,,,,,,,,,,,,,,,287.4691,288.879,a,1,[],[],[],[],[],[],[],0.7335,1,288.879,289.3784,,,,,,626,FEM,DIS,150,línea,el,a,0.7335,,289.3784,289.3785,0.869444529,-0.138888889,0,0,0,,0,21,21,175,1,,,,
,,,,,,3e0baa979f527cd2c7273144,66a626ef09d4e21e1a8894ec,673649bedc1752bf5d5631f8,2024-11-14_20h10.38.921,Tarea de género gramatical,2024.2.2,Win32,59.52380952,,,,,,,,,,,,,,,,,,,,,,,289.3795,290.7107,a,1,[],[],[],[],[],[],[],0.6537,1,290.7114,291.2102,,,,,,601,FEM,CON,150,noche,,a,0.6537,,291.2103,291.2104,0.869444529,-0.138888889,0,0,0,,0,22,22,150,1,,,,
,,,,,,3e0baa979f527cd2c7273144,66a626ef09d4e21e1a8894ec,673649bedc1752bf5d5631f8,2024-11-14_20h10.38.921,Tarea de género gramatical,2024.2.2,Win32,59.52380952,,,,,,,,,,,,,,,,,,,,,,,291.2129,292.3926,a,1,[],[],[],[],[],[],[],0.5009,1,292.3927,292.8921,,,,,,459,FEM,AGR,150,mamá,la,a,0.5009,,292.8922,292.8922,0.869444529,-0.138888889,0,0,0,,0,23,23,8,1,,,,
,,,,,,3e0baa979f527cd2c7273144,66a626ef09d4e21e1a8894ec,673649bedc1752bf5d5631f8,2024-11-14_20h10.38.921,Tarea de género gramatical,2024.2.2,Win32,59.52380952,,,,,,,,,,,,,,,,,,,,,,,292.8936,294.0745,a,1,[],[],[],[],[],[],[],0.5005,1,294.0745,294.5742,,,,,,620,FEM,DIS,150,carta,el,a,0.5005,,294.5768,294.578,0.869444529,-0.138888889,0,0,0,,0,24,24,169,1,,,,
,,,,,,3e0baa979f527cd2c7273144,66a626ef09d4e21e1a8894ec,673649bedc1752bf5d5631f8,2024-11-14_20h10.38.921,Tarea de género gramatical,2024.2.2,Win32,59.52380952,,,,,,,,,,,,,,,,,,,,,,,294.5786,295.7229,a,1,[],[],[],[],[],[],[],0.4671,1,295.723,296.2225,,,,,,687,FEM,AGR,150,ducha,la,a,0.4671,,296.2225,296.2226,0.869444529,-0.138888889,0,0,0,,0,25,25,236,1,,,,
,,,,,,3e0baa979f527cd2c7273144,66a626ef09d4e21e1a8894ec,673649bedc1752bf5d5631f8,2024-11-14_20h10.38.921,Tarea de género gramatical,2024.2.2,Win32,59.52380952,,,,,,,,,,,,,,,,,,,,,,,296.2236,297.4049,a,1,[],[],[],[],[],[],[],0.501,1,297.405,297.9046,,,,,,559,FEM,CON,150,gota,,a,0.501,,297.9047,297.9048,0.869444529,-0.138888889,0,0,0,,0,26,26,108,1,,,,
,,,,,,3e0baa979f527cd2c7273144,66a626ef09d4e21e1a8894ec,673649bedc1752bf5d5631f8,2024-11-14_20h10.38.921,Tarea de género gramatical,2024.2.2,Win32,59.52380952,,,,,,,,,,,,,,,,,,,,,,,297.9079,299.2533,l,1,[],[],[],[],[],[],[],0.6687,1,299.2535,299.7527,,,,,,864,MAS,AGR,150,sótano,el,l,0.6687,,299.7528,299.7529,0.869444529,-0.138888889,0,0,0,,0,27,27,413,1,,,,
,,,,,,3e0baa979f527cd2c7273144,66a626ef09d4e21e1a8894ec,673649bedc1752bf5d5631f8,2024-11-14_20h10.38.921,Tarea de género gramatical,2024.2.2,Win32,59.52380952,,,,,,,,,,,,,,,,,,,,,,,299.7546,301.3181,l,1,[],[],[],[],[],[],[],0.8847,1,301.3182,301.8179,,,,,,574,MAS,CON,150,clan,,l,0.8847,,301.818,301.818,0.869444529,-0.138888889,0,0,0,,0,28,28,123,1,,,,
,,,,,,3e0baa979f527cd2c7273144,66a626ef09d4e21e1a8894ec,673649bedc1752bf5d5631f8,2024-11-14_20h10.38.921,Tarea de género gramatical,2024.2.2,Win32,59.52380952,,,,,,,,,,,,,,,,,,,,,,,301.82,302.9999,l,1,[],[],[],[],[],[],[],0.5028,1,303.0001,303.4997,,,,,,646,MAS,CON,150,barco,,l,0.5028,,303.5024,303.5044,0.869444529,-0.138888889,0,0,0,,0,29,29,195,1,,,,
,,,,,,3e0baa979f527cd2c7273144,66a626ef09d4e21e1a8894ec,673649bedc1752bf5d5631f8,2024-11-14_20h10.38.921,Tarea de género gramatical,2024.2.2,Win32,59.52380952,,,,,,,,,,,,,,,,,,,,,,,303.5062,304.8483,l,1,[],[],[],[],[],[],[],0.6654,1,304.8485,305.348,,,,,,576,MAS,AGR,150,lazo,el,l,0.6654,,305.348,305.3481,0.869444529,-0.138888889,0,0,0,,0,30,30,125,1,,,,
,,,,,,3e0baa979f527cd2c7273144,66a626ef09d4e21e1a8894ec,673649bedc1752bf5d5631f8,2024-11-14_20h10.38.921,Tarea de género gramatical,2024.2.2,Win32,59.52380952,,,,,,,,,,,,,,,,,,,,,,,305.3494,306.6636,l,1,[],[],[],[],[],[],[],0.6332,1,306.6638,307.163,,,,,,538,MAS,CON,150,pavo,,l,0.6332,,307.163,307.1631,0.869444529,-0.138888889,0,0,0,,0,31,31,87,1,,,,
,,,,,,3e0baa979f527cd2c7273144,66a626ef09d4e21e1a8894ec,673649bedc1752bf5d5631f8,2024-11-14_20h10.38.921,Tarea de género gramatical,2024.2.2,Win32,59.52380952,,,,,,,,,,,,,,,,,,,,,,,307.1642,308.3621,l,1,[],[],[],[],[],[],[],0.5198,1,308.3622,308.8616,,,,,,900,MAS,AGR,150,conejo,el,l,0.5198,,308.8617,308.8618,0.869444529,-0.138888889,0,0,0,,0,32,32,449,1,,,,
,,,,,,3e0baa979f527cd2c7273144,66a626ef09d4e21e1a8894ec,673649bedc1752bf5d5631f8,2024-11-14_20h10.38.921,Tarea de género gramatical,2024.2.2,Win32,59.52380952,,,,,,,,,,,,,,,,,,,,,,,308.8634,310.0937,a,1,[],[],[],[],[],[],[],0.5499,1,310.0938,310.5932,,,,,,512,FEM,DIS,150,sopa,el,a,0.5499,,310.5958,310.598,0.869444529,-0.138888889,0,0,0,,0,33,33,61,1,,,,
,,,,,,3e0baa979f527cd2c7273144,66a626ef09d4e21e1a8894ec,673649bedc1752bf5d5631f8,2024-11-14_20h10.38.921,Tarea de género gramatical,2024.2.2,Win32,59.52380952,,,,,,,,,,,,,,,,,,,,,,,310.5989,311.9758,l,1,[],[],[],[],[],[],[],0.7023,1,311.9761,312.4751,,,,,,894,MAS,AGR,150,límite,el,l,0.7023,,312.4751,312.4752,0.869444529,-0.138888889,0,0,0,,0,34,34,443,1,,,,
,,,,,,3e0baa979f527cd2c7273144,66a626ef09d4e21e1a8894ec,673649bedc1752bf5d5631f8,2024-11-14_20h10.38.921,Tarea de género gramatical,2024.2.2,Win32,59.52380952,,,,,,,,,,,,,,,,,,,,,,,312.4767,313.7073,l,1,[],[],[],[],[],[],[],0.5589,1,313.7074,314.2069,,,,,,712,MAS,CON,150,video,,l,0.5589,,314.207,314.2071,0.869444529,-0.138888889,0,0,0,,0,35,35,261,1,,,,
,,,,,,3e0baa979f527cd2c7273144,66a626ef09d4e21e1a8894ec,673649bedc1752bf5d5631f8,2024-11-14_20h10.38.921,Tarea de género gramatical,2024.2.2,Win32,59.52380952,,,,,,,,,,,,,,,,,,,,,,,314.2087,315.539,a,1,[],[],[],[],[],[],[],0.6571,1,315.5391,316.0386,,,,,,535,FEM,CON,150,gira,,a,0.6571,,316.0387,316.0388,0.869444529,-0.138888889,0,0,0,,0,36,36,84,1,,,,
,,,,,,3e0baa979f527cd2c7273144,66a626ef09d4e21e1a8894ec,673649bedc1752bf5d5631f8,2024-11-14_20h10.38.921,Tarea de género gramatical,2024.2.2,Win32,59.52380952,,,,,,,,,,,,,,,,,,,,,,,316.0408,317.3875,l,1,[],[],[],[],[],[],[],0.6736,1,317.3877,317.8871,,,,,,738,MAS,AGR,150,grado,el,l,0.6736,,317.8873,317.8873,0.869444529,-0.138888889,0,0,0,,0,37,37,287,1,,,,
,,,,,,3e0baa979f527cd2c7273144,66a626ef09d4e21e1a8894ec,673649bedc1752bf5d5631f8,2024-11-14_20h10.38.921,Tarea de género gramatical,2024.2.2,Win32,59.52380952,,,,,,,,,,,,,,,,,,,,,,,317.889,319.1526,l,1,[],[],[],[],[],[],[],0.5836,1,319.1527,319.652,,,,,,803,MAS,DIS,150,verano,la,l,0.5836,,319.6547,319.6564,0.869444529,-0.138888889,0,0,0,,0,38,38,352,1,,,,
,,,,,,3e0baa979f527cd2c7273144,66a626ef09d4e21e1a8894ec,673649bedc1752bf5d5631f8,2024-11-14_20h10.38.921,Tarea de género gramatical,2024.2.2,Win32,59.52380952,,,,,,,,,,,,,,,,,,,,,,,319.6571,320.9344,a,1,[],[],[],[],[],[],[],0.6008,1,320.9345,321.434,,,,,,517,FEM,CON,150,miel,,a,0.6008,,321.4341,321.4342,0.869444529,-0.138888889,0,0,0,,0,39,39,66,1,,,,
,,,,,,3e0baa979f527cd2c7273144,66a626ef09d4e21e1a8894ec,673649bedc1752bf5d5631f8,2024-11-14_20h10.38.921,Tarea de género gramatical,2024.2.2,Win32,59.52380952,,,,,,,,,,,,,,,,,,,,,,,321.4354,322.7327,l,1,[],[],[],[],[],[],[],0.6219,1,322.7329,323.2324,,,,,,856,MAS,CON,150,premio,,l,0.6219,,323.2325,323.2327,0.869444529,-0.138888889,0,0,0,,0,40,40,405,1,,,,
,,,,,,3e0baa979f527cd2c7273144,66a626ef09d4e21e1a8894ec,673649bedc1752bf5d5631f8,2024-11-14_20h10.38.921,Tarea de género gramatical,2024.2.2,Win32,59.52380952,,,,,,,,,,,,,,,,,,,,,,,323.2351,324.6476,a,1,[],[],[],[],[],[],[],0.7426,1,324.6477,325.1472,,,,,,777,FEM,AGR,150,tienda,la,a,0.7426,,325.1473,325.1473,0.869444529,-0.138888889,0,0,0,,0,41,41,326,1,,,,
,,,,,,3e0baa979f527cd2c7273144,66a626ef09d4e21e1a8894ec,673649bedc1752bf5d5631f8,2024-11-14_20h10.38.921,Tarea de género gramatical,2024.2.2,Win32,59.52380952,,,,,,,,,,,,,,,,,,,,,,,325.1488,326.4296,a,1,[],[],[],[],[],[],[],0.6081,1,326.4297,326.929,,,,,,885,FEM,AGR,150,niebla,la,a,0.6081,,326.9308,326.9331,0.869444529,-0.138888889,0,0,0,,0,42,42,434,1,,,,
,,,,,,3e0baa979f527cd2c7273144,66a626ef09d4e21e1a8894ec,673649bedc1752bf5d5631f8,2024-11-14_20h10.38.921,Tarea de género gramatical,2024.2.2,Win32,59.52380952,,,,,,,,,,,,,,,,,,,,,,,326.9338,328.1614,a,1,[],[],[],[],[],[],[],0.552,1,328.1616,328.661,,,,,,608,FEM,DIS,150,chica,el,a,0.552,,328.6611,328.6613,0.869444529,-0.138888889,0,0,0,,0,43,43,157,1,,,,
,,,,,,3e0baa979f527cd2c7273144,66a626ef09d4e21e1a8894ec,673649bedc1752bf5d5631f8,2024-11-14_20h10.38.921,Tarea de género gramatical,2024.2.2,Win32,59.52380952,,,,,,,,,,,,,,,,,,,,,,,328.6629,329.9265,l,1,[],[],[],[],[],[],[],0.5818,1,329.9267,330.426,,,,,,472,MAS,CON,150,pelo,,l,0.5818,,330.426,330.4261,0.869444529,-0.138888889,0,0,0,,0,44,44,21,1,,,,
,,,,,,3e0baa979f527cd2c7273144,66a626ef09d4e21e1a8894ec,673649bedc1752bf5d5631f8,2024-11-14_20h10.38.921,Tarea de género gramatical,2024.2.2,Win32,59.52380952,,,,,,,,,,,,,,,,,,,,,,,330.4272,331.9747,a,1,[],[],[],[],[],[],[],0.8677,1,331.9748,332.4743,,,,,,897,FEM,AGR,150,lógica,la,a,0.8677,,332.4743,332.4744,0.869444529,-0.138888889,0,0,0,,0,45,45,446,1,,,,
,,,,,,3e0baa979f527cd2c7273144,66a626ef09d4e21e1a8894ec,673649bedc1752bf5d5631f8,2024-11-14_20h10.38.921,Tarea de género gramatical,2024.2.2,Win32,59.52380952,,,,,,,,,,,,,,,,,,,,,,,332.4767,333.8896,l,1,[],[],[],[],[],[],[],0.735,1,333.8897,334.3892,,,,,,749,MAS,DIS,150,rumbo,la,l,0.735,,334.3893,334.3895,0.869444529,-0.138888889,0,0,0,,0,46,46,298,1,,,,
,,,,,,3e0baa979f527cd2c7273144,66a626ef09d4e21e1a8894ec,673649bedc1752bf5d5631f8,2024-11-14_20h10.38.921,Tarea de género gramatical,2024.2.2,Win32,59.52380952,,,,,,,,,,,,,,,,,,,,,,,334.3907,335.9213,a,1,[],[],[],[],[],[],[],0.8516,1,335.9214,336.4211,,,,,,571,FEM,CON,150,pila,,a,0.8516,,336.423,336.4251,0.869444529,-0.138888889,0,0,0,,0,47,47,120,1,,,,
,,,,,,3e0baa979f527cd2c7273144,66a626ef09d4e21e1a8894ec,673649bedc1752bf5d5631f8,2024-11-14_20h10.38.921,Tarea de género gramatical,2024.2.2,Win32,59.52380952,,,,,,,,,,,,,,,,,,,,,,,336.4265,337.803,l,1,[],[],[],[],[],[],[],0.7011,1,337.8032,338.3026,,,,,,557,MAS,DIS,150,cubo,la,l,0.7011,,338.3026,338.3028,0.869444529,-0.138888889,0,0,0,,0,48,48,106,1,,,,
,,,,,,3e0baa979f527cd2c7273144,66a626ef09d4e21e1a8894ec,673649bedc1752bf5d5631f8,2024-11-14_20h10.38.921,Tarea de género gramatical,2024.2.2,Win32,59.52380952,,,,,,,,,,,,,,,,,,,,,,,338.3046,339.6345,a,1,[],[],[],[],[],[],[],0.6588,1,339.6346,340.1344,,,,,,800,FEM,DIS,150,imagen,el,a,0.6588,,340.1344,340.1346,0.869444529,-0.138888889,0,0,0,,0,49,49,349,1,,,,
,,,,,,3e0baa979f527cd2c7273144,66a626ef09d4e21e1a8894ec,673649bedc1752bf5d5631f8,2024-11-14_20h10.38.921,Tarea de género gramatical,2024.2.2,Win32,59.52380952,,,,,,,,,,,,,,,,,,,,,,,340.137,341.5165,a,1,[],[],[],[],[],[],[],0.7025,1,341.5166,342.0158,,,,,,507,FEM,AGR,150,moda,la,a,0.7025,,342.0159,342.016,0.869444529,-0.138888889,0,0,0,,0,50,50,56,1,,,,
,,,,,,3e0baa979f527cd2c7273144,66a626ef09d4e21e1a8894ec,673649bedc1752bf5d5631f8,2024-11-14_20h10.38.921,Tarea de género gramatical,2024.2.2,Win32,59.52380952,,,,,,,,,,,,,,,,,,,,,,,342.0171,344.0808,a,1,[],[],[],[],[],[],[],1.3883,1,344.0809,344.5802,,,,,,493,FEM,CON,150,nena,,a,1.3883,,344.5816,344.5839,0.869444529,-0.138888889,0,0,0,,0,51,51,42,1,,,,
,,,,,,3e0baa979f527cd2c7273144,66a626ef09d4e21e1a8894ec,673649bedc1752bf5d5631f8,2024-11-14_20h10.38.921,Tarea de género gramatical,2024.2.2,Win32,59.52380952,,,,,,,,,,,,,,,,,,,,,,,344.5848,345.9458,l,1,[],[],[],[],[],[],[],0.691,1,345.9459,346.4456,,,,,,898,MAS,CON,150,aceite,,l,0.691,,346.4456,346.4457,0.869444529,-0.138888889,0,0,0,,0,52,52,447,1,,,,
,,,,,,3e0baa979f527cd2c7273144,66a626ef09d4e21e1a8894ec,673649bedc1752bf5d5631f8,2024-11-14_20h10.38.921,Tarea de género gramatical,2024.2.2,Win32,59.52380952,,,,,,,,,,,,,,,,,,,,,,,346.4471,348.1774,l,1,[],[],[],[],[],[],[],1.0498,1,348.1776,348.677,,,,,,840,MAS,AGR,150,rostro,el,l,1.0498,,348.677,348.6771,0.869444529,-0.138888889,0,0,0,,0,53,53,389,1,,,,
,,,,,,3e0baa979f527cd2c7273144,66a626ef09d4e21e1a8894ec,673649bedc1752bf5d5631f8,2024-11-14_20h10.38.921,Tarea de género gramatical,2024.2.2,Win32,59.52380952,,,,,,,,,,,,,,,,,,,,,,,348.6793,349.8423,a,1,[],[],[],[],[],[],[],0.4916,1,349.8424,350.3419,,,,,,553,FEM,CON,150,fama,,a,0.4916,,350.342,350.342,0.869444529,-0.138888889,0,0,0,,0,54,54,102,1,,,,
,,,,,,3e0baa979f527cd2c7273144,66a626ef09d4e21e1a8894ec,673649bedc1752bf5d5631f8,2024-11-14_20h10.38.921,Tarea de género gramatical,2024.2.2,Win32,59.52380952,,,,,,,,,,,,,,,,,,,,,,,350.3434,351.7411,a,1,[],[],[],[],[],[],[],0.7154,1,351.7412,352.2408,,,,,,759,FEM,AGR,150,esposa,la,a,0.7154,,352.2408,352.241,0.869444529,-0.138888889,0,0,0,,0,55,55,308,1,,,,
,,,,,,3e0baa979f527cd2c7273144,66a626ef09d4e21e1a8894ec,673649bedc1752bf5d5631f8,2024-11-14_20h10.38.921,Tarea de género gramatical,2024.2.2,Win32,59.52380952,,,,,,,,,,,,,,,,,,,,,,,352.2427,353.5063,a,1,[],[],[],[],[],[],[],0.5902,1,353.5064,354.0055,,,,,,525,FEM,AGR,150,caza,la,a,0.5902,,354.0074,354.0095,0.869444529,-0.138888889,0,0,0,,0,56,56,74,1,,,,
,,,,,,3e0baa979f527cd2c7273144,66a626ef09d4e21e1a8894ec,673649bedc1752bf5d5631f8,2024-11-14_20h10.38.921,Tarea de género gramatical,2024.2.2,Win32,59.52380952,,,,,,,,,,,,,,,,,,,,,,,354.0106,355.2711,l,1,[],[],[],[],[],[],[],0.5928,1,355.2712,355.7706,,,,,,484,MAS,CON,150,gato,,l,0.5928,,355.7706,355.7707,0.869444529,-0.138888889,0,0,0,,0,57,57,33,1,,,,
,,,,,,3e0baa979f527cd2c7273144,66a626ef09d4e21e1a8894ec,673649bedc1752bf5d5631f8,2024-11-14_20h10.38.921,Tarea de género gramatical,2024.2.2,Win32,59.52380952,,,,,,,,,,,,,,,,,,,,,,,355.7725,356.9527,l,1,[],[],[],[],[],[],[],0.5039,1,356.9528,357.4527,,,,,,670,MAS,CON,150,huevo,,l,0.5039,,357.4528,357.4529,0.869444529,-0.138888889,0,0,0,,0,58,58,219,1,,,,
,,,,,,3e0baa979f527cd2c7273144,66a626ef09d4e21e1a8894ec,673649bedc1752bf5d5631f8,2024-11-14_20h10.38.921,Tarea de género gramatical,2024.2.2,Win32,59.52380952,,,,,,,,,,,,,,,,,,,,,,,357.4542,358.7347,a,1,[],[],[],[],[],[],[],0.6004,1,358.7348,359.235,,,,,,806,FEM,DIS,150,piedra,el,a,0.6004,,359.235,359.2352,0.869444529,-0.138888889,0,0,0,,0,59,59,355,1,,,,
,,,,,,3e0baa979f527cd2c7273144,66a626ef09d4e21e1a8894ec,673649bedc1752bf5d5631f8,2024-11-14_20h10.38.921,Tarea de género gramatical,2024.2.2,Win32,59.52380952,,,,,,,,,,,,,,,,,,,,,,,359.2373,360.933,l,1,[],[],[],[],[],[],[],1.0218,1,360.9332,361.4326,,,,,,473,MAS,DIS,150,rato,la,l,1.0218,,361.4348,361.4368,0.869444529,-0.138888889,0,0,0,,0,60,60,22,1,,,,
,,,,,,3e0baa979f527cd2c7273144,66a626ef09d4e21e1a8894ec,673649bedc1752bf5d5631f8,2024-11-14_20h10.38.921,Tarea de género gramatical,2024.2.2,Win32,59.52380952,,,,,,,,,,,,,,,,,,,,,,,361.4378,362.765,a,1,[],[],[],[],[],[],[],0.6563,1,362.765,363.2641,,,,,,717,FEM,AGR,150,barba,la,a,0.6563,,363.2642,363.2643,0.869444529,-0.138888889,0,0,0,,0,61,61,266,1,,,,
,,,,,,3e0baa979f527cd2c7273144,66a626ef09d4e21e1a8894ec,673649bedc1752bf5d5631f8,2024-11-14_20h10.38.921,Tarea de género gramatical,2024.2.2,Win32,59.52380952,,,,,,,,,,,,,,,,,,,,,,,363.2659,364.4467,l,1,[],[],[],[],[],[],[],0.5015,1,364.4467,364.946,,,,,,474,MAS,AGR,150,voto,el,l,0.5015,,364.9461,364.9462,0.869444529,-0.138888889,0,0,0,,0,62,62,23,1,,,,
,,,,,,3e0baa979f527cd2c7273144,66a626ef09d4e21e1a8894ec,673649bedc1752bf5d5631f8,2024-11-14_20h10.38.921,Tarea de género gramatical,2024.2.2,Win32,59.52380952,,,,,,,,,,,,,,,,,,,,,,,364.9479,366.2956,a,1,[],[],[],[],[],[],[],0.6685,1,366.2958,366.7947,,,,,,698,FEM,DIS,150,letra,el,a,0.6685,,366.7948,366.795,0.869444529,-0.138888889,0,0,0,,0,63,63,247,1,,,,
,,,,,,3e0baa979f527cd2c7273144,66a626ef09d4e21e1a8894ec,673649bedc1752bf5d5631f8,2024-11-14_20h10.38.921,Tarea de género gramatical,2024.2.2,Win32,59.52380952,,,,,,,,,,,,,,,,,,,,,,,366.7971,368.0769,a,0,[],[],[],[],[],[],[],0.6018,0,368.0785,368.5768,,,,,,479,MAS,DIS,150,frío,la,l,0.6018,,368.5769,368.5771,0.869444529,-0.138888889,0,0,0,,0,64,64,28,1,,,,
,,,,,,3e0baa979f527cd2c7273144,66a626ef09d4e21e1a8894ec,673649bedc1752bf5d5631f8,2024-11-14_20h10.38.921,Tarea de género gramatical,2024.2.2,Win32,59.52380952,,,,,,,,,,,,,,,,,,,,,,,368.5793,369.9084,l,1,[],[],[],[],[],[],[],0.6597,1,369.909,370.4085,,,,,,810,MAS,AGR,150,puente,el,l,0.6597,,370.4104,370.4137,0.869444529,-0.138888889,0,0,0,,0,65,65,359,1,,,,
,,,,,,3e0baa979f527cd2c7273144,66a626ef09d4e21e1a8894ec,673649bedc1752bf5d5631f8,2024-11-14_20h10.38.921,Tarea de género gramatical,2024.2.2,Win32,59.52380952,,,,,,,,,,,,,,,,,,,,,,,370.4151,371.8902,l,1,[],[],[],[],[],[],[],0.8015,1,371.8903,372.3893,,,,,,622,MAS,CON,150,poder,,l,0.8015,,372.3893,372.3893,0.869444529,-0.138888889,0,0,0,,0,66,66,171,1,,,,
,,,,,,3e0baa979f527cd2c7273144,66a626ef09d4e21e1a8894ec,673649bedc1752bf5d5631f8,2024-11-14_20h10.38.921,Tarea de género gramatical,2024.2.2,Win32,59.52380952,,,,,,,,,,,,,,,,,,,,,,,372.3903,373.5883,l,1,[],[],[],[],[],[],[],0.526,1,373.5884,374.0885,,,,,,654,MAS,AGR,150,papel,el,l,0.526,,374.0885,374.0888,0.869444529,-0.138888889,0,0,0,,0,67,67,203,1,,,,
,,,,,,3e0baa979f527cd2c7273144,66a626ef09d4e21e1a8894ec,673649bedc1752bf5d5631f8,2024-11-14_20h10.38.921,Tarea de género gramatical,2024.2.2,Win32,59.52380952,,,,,,,,,,,,,,,,,,,,,,,374.0902,375.3718,l,1,[],[],[],[],[],[],[],0.6039,1,375.3719,375.8702,,,,,,857,MAS,DIS,150,jurado,la,l,0.6039,,375.8705,375.8708,0.869444529,-0.138888889,0,0,0,,0,68,68,406,1,,,,
,,,,,,3e0baa979f527cd2c7273144,66a626ef09d4e21e1a8894ec,673649bedc1752bf5d5631f8,2024-11-14_20h10.38.921,Tarea de género gramatical,2024.2.2,Win32,59.52380952,,,,,,,,,,,,,,,,,,,,,,,375.8721,377.1361,l,1,[],[],[],[],[],[],[],0.601,1,377.1365,377.6354,,,,,,617,MAS,DIS,150,juego,la,l,0.601,,377.6379,377.6397,0.869444529,-0.138888889,0,0,0,,0,69,69,166,1,,,,
,,,,,,3e0baa979f527cd2c7273144,66a626ef09d4e21e1a8894ec,673649bedc1752bf5d5631f8,2024-11-14_20h10.38.921,Tarea de género gramatical,2024.2.2,Win32,59.52380952,,,,,,,,,,,,,,,,,,,,,,,377.641,379.0668,l,1,[],[],[],[],[],[],[],0.7537,1,379.067,379.5729,,,,,,827,MAS,DIS,150,jardín,la,l,0.7537,,379.5729,379.5731,0.869444529,-0.138888889,0,0,0,,0,70,70,376,1,,,,
,,,,,,3e0baa979f527cd2c7273144,66a626ef09d4e21e1a8894ec,673649bedc1752bf5d5631f8,2024-11-14_20h10.38.921,Tarea de género gramatical,2024.2.2,Win32,59.52380952,,,,,,,,,,,,,,,,,,,,,,,379.5752,380.8221,l,1,[],[],[],[],[],[],[],0.5679,1,380.8223,381.3155,,,,,,852,MAS,AGR,150,ladrón,el,l,0.5679,,381.3156,381.3159,0.869444529,-0.138888889,0,0,0,,0,71,71,401,1,,,,
,,,,,,3e0baa979f527cd2c7273144,66a626ef09d4e21e1a8894ec,673649bedc1752bf5d5631f8,2024-11-14_20h10.38.921,Tarea de género gramatical,2024.2.2,Win32,59.52380952,,,,,,,,,,,,,,,,,,,,,,,381.3172,382.9474,l,1,[],[],[],[],[],[],[],0.9632,1,382.9477,383.4473,,,,,,552,MAS,AGR,150,coro,el,l,0.9632,,383.4475,383.4477,0.869444529,-0.138888889,0,0,0,,0,72,72,101,1,,,,
,,,,,,3e0baa979f527cd2c7273144,66a626ef09d4e21e1a8894ec,673649bedc1752bf5d5631f8,2024-11-14_20h10.38.921,Tarea de género gramatical,2024.2.2,Win32,59.52380952,,,,,,,,,,,,,,,,,,,,,,,383.4496,384.801,a,1,[],[],[],[],[],[],[],0.6776,1,384.8012,385.2953,,,,,,781,FEM,CON,150,cárcel,,a,0.6776,,385.2955,385.2957,0.869444529,-0.138888889,0,0,0,,0,73,73,330,1,,,,
,,,,,,3e0baa979f527cd2c7273144,66a626ef09d4e21e1a8894ec,673649bedc1752bf5d5631f8,2024-11-14_20h10.38.921,Tarea de género gramatical,2024.2.2,Win32,59.52380952,,,,,,,,,,,,,,,,,,,,,,,385.297,386.5996,l,1,[],[],[],[],[],[],[],0.647,1,386.5996,387.0993,,,,,,844,MAS,CON,150,examen,,l,0.647,,387.1009,387.1028,0.869444529,-0.138888889,0,0,0,,0,74,74,393,1,,,,
,,,,,,3e0baa979f527cd2c7273144,66a626ef09d4e21e1a8894ec,673649bedc1752bf5d5631f8,2024-11-14_20h10.38.921,Tarea de género gramatical,2024.2.2,Win32,59.52380952,,,,,,,,,,,,,,,,,,,,,,,387.1044,388.5152,l,1,[],[],[],[],[],[],[],0.7345,1,388.5153,389.0152,,,,,,684,MAS,AGR,150,héroe,el,l,0.7345,,389.0154,389.0156,0.869444529,-0.138888889,0,0,0,,0,75,75,233,1,,,,
,,,,,,3e0baa979f527cd2c7273144,66a626ef09d4e21e1a8894ec,673649bedc1752bf5d5631f8,2024-11-14_20h10.38.921,Tarea de género gramatical,2024.2.2,Win32,59.52380952,,,,,,,,,,,,,,,,,,,,,,,389.0172,390.2967,l,1,[],[],[],[],[],[],[],0.6128,1,390.2968,390.796,,,,,,786,MAS,AGR,150,crimen,el,l,0.6128,,390.7961,390.7962,0.869444529,-0.138888889,0,0,0,,0,76,76,335,1,,,,
,,,,,,3e0baa979f527cd2c7273144,66a626ef09d4e21e1a8894ec,673649bedc1752bf5d5631f8,2024-11-14_20h10.38.921,Tarea de género gramatical,2024.2.2,Win32,59.52380952,,,,,,,,,,,,,,,,,,,,,,,390.797,392.8594,a,0,[],[],[],[],[],[],[],1.3959,0,392.8608,393.361,,,,,,551,MAS,DIS,150,giro,la,l,1.3959,,393.3611,393.3613,0.869444529,-0.138888889,0,0,0,,0,77,77,100,1,,,,
,,,,,,3e0baa979f527cd2c7273144,66a626ef09d4e21e1a8894ec,673649bedc1752bf5d5631f8,2024-11-14_20h10.38.921,Tarea de género gramatical,2024.2.2,Win32,59.52380952,,,,,,,,,,,,,,,,,,,,,,,393.363,395.3865,l,1,[],[],[],[],[],[],[],1.3512,1,395.3878,395.8918,,,,,,874,MAS,CON,150,rastro,,l,1.3512,,395.8933,395.895,0.869444529,-0.138888889,0,0,0,,0,78,78,423,1,,,,
,,,,,,3e0baa979f527cd2c7273144,66a626ef09d4e21e1a8894ec,673649bedc1752bf5d5631f8,2024-11-14_20h10.38.921,Tarea de género gramatical,2024.2.2,Win32,59.52380952,,,,,,,,,,,,,,,,,,,,,,,395.8962,397.2745,l,1,[],[],[],[],[],[],[],0.7115,1,397.2746,397.7683,,,,,,648,MAS,AGR,150,hotel,el,l,0.7115,,397.7685,397.7687,0.869444529,-0.138888889,0,0,0,,0,79,79,197,1,,,,
,,,,,,3e0baa979f527cd2c7273144,66a626ef09d4e21e1a8894ec,673649bedc1752bf5d5631f8,2024-11-14_20h10.38.921,Tarea de género gramatical,2024.2.2,Win32,59.52380952,,,,,,,,,,,,,,,,,,,,,,,397.7706,399.0064,l,1,[],[],[],[],[],[],[],0.5621,1,399.0066,399.5039,,,,,,858,MAS,AGR,150,cheque,el,l,0.5621,,399.5039,399.504,0.869444529,-0.138888889,0,0,0,,0,80,80,407,1,,,,
,,,,,,3e0baa979f527cd2c7273144,66a626ef09d4e21e1a8894ec,673649bedc1752bf5d5631f8,2024-11-14_20h10.38.921,Tarea de género gramatical,2024.2.2,Win32,59.52380952,,,,,,,,,,,,,,,,,,,,,,,399.5052,401.082,a,1,[],[],[],[],[],[],[],0.9003,1,401.0822,401.5816,,,,,,835,FEM,CON,150,muñeca,,a,0.9003,,401.5818,401.5821,0.869444529,-0.138888889,0,0,0,,0,81,81,384,1,,,,
,,,,,,3e0baa979f527cd2c7273144,66a626ef09d4e21e1a8894ec,673649bedc1752bf5d5631f8,2024-11-14_20h10.38.921,Tarea de género gramatical,2024.2.2,Win32,59.52380952,,,,,,,,,,,,,,,,,,,,,,,401.5839,403.4352,l,1,[],[],[],[],[],[],[],1.1936,1,403.4354,403.9296,,,,,,640,MAS,CON,150,campo,,l,1.1936,,403.9297,403.9298,0.869444529,-0.138888889,0,0,0,,0,82,82,189,1,,,,
,,,,,,3e0baa979f527cd2c7273144,66a626ef09d4e21e1a8894ec,673649bedc1752bf5d5631f8,2024-11-14_20h10.38.921,Tarea de género gramatical,2024.2.2,Win32,59.52380952,,,,,,,,,,,,,,,,,,,,,,,403.9319,405.3119,l,1,[],[],[],[],[],[],[],0.702,1,405.3122,405.816,,,,,,798,MAS,AGR,150,anillo,el,l,0.702,,405.817,405.818,0.869444529,-0.138888889,0,0,0,,0,83,83,347,1,,,,
,,,,,,3e0baa979f527cd2c7273144,66a626ef09d4e21e1a8894ec,673649bedc1752bf5d5631f8,2024-11-14_20h10.38.921,Tarea de género gramatical,2024.2.2,Win32,59.52380952,,,,,,,,,,,,,,,,,,,,,,,405.8188,407.2602,l,1,[],[],[],[],[],[],[],0.7686,1,407.2606,407.7593,,,,,,587,MAS,DIS,150,coco,la,l,0.7686,,407.7596,407.7597,0.869444529,-0.138888889,0,0,0,,0,84,84,136,1,,,,
,,,,,,3e0baa979f527cd2c7273144,66a626ef09d4e21e1a8894ec,673649bedc1752bf5d5631f8,2024-11-14_20h10.38.921,Tarea de género gramatical,2024.2.2,Win32,59.52380952,,,,,,,,,,,,,,,,,,,,,,,407.7613,409.064,a,1,[],[],[],[],[],[],[],0.628,1,409.0644,409.5581,,,,,,680,FEM,DIS,150,regla,el,a,0.628,,409.5583,409.5586,0.869444529,-0.138888889,0,0,0,,0,85,85,229,1,,,,
,,,,,,3e0baa979f527cd2c7273144,66a626ef09d4e21e1a8894ec,673649bedc1752bf5d5631f8,2024-11-14_20h10.38.921,Tarea de género gramatical,2024.2.2,Win32,59.52380952,,,,,,,,,,,,,,,,,,,,,,,409.5602,410.9125,l,1,[],[],[],[],[],[],[],0.678,1,410.9125,411.4116,,,,,,876,MAS,AGR,150,pánico,el,l,0.678,,411.4117,411.4118,0.869444529,-0.138888889,0,0,0,,0,86,86,425,1,,,,
,,,,,,3e0baa979f527cd2c7273144,66a626ef09d4e21e1a8894ec,673649bedc1752bf5d5631f8,2024-11-14_20h10.38.921,Tarea de género gramatical,2024.2.2,Win32,59.52380952,,,,,,,,,,,,,,,,,,,,,,,411.4135,412.9252,l,1,[],[],[],[],[],[],[],0.8332,1,412.9254,413.4257,,,,,,886,MAS,CON,150,objeto,,l,0.8332,,413.4274,413.4288,0.869444529,-0.138888889,0,0,0,,0,87,87,435,1,,,,
,,,,,,3e0baa979f527cd2c7273144,66a626ef09d4e21e1a8894ec,673649bedc1752bf5d5631f8,2024-11-14_20h10.38.921,Tarea de género gramatical,2024.2.2,Win32,59.52380952,,,,,,,,,,,,,,,,,,,,,,,413.4296,414.6922,a,1,[],[],[],[],[],[],[],0.5845,1,414.6923,415.1918,,,,,,788,FEM,DIS,150,abuela,el,a,0.5845,,415.1919,415.1921,0.869444529,-0.138888889,0,0,0,,0,88,88,337,1,,,,
,,,,,,3e0baa979f527cd2c7273144,66a626ef09d4e21e1a8894ec,673649bedc1752bf5d5631f8,2024-11-14_20h10.38.921,Tarea de género gramatical,2024.2.2,Win32,59.52380952,,,,,,,,,,,,,,,,,,,,,,,415.1938,416.4858,a,1,[],[],[],[],[],[],[],0.6219,1,416.4861,416.9847,,,,,,675,FEM,AGR,150,pieza,la,a,0.6219,,416.9848,416.985,0.869444529,-0.138888889,0,0,0,,0,89,89,224,1,,,,
,,,,,,3e0baa979f527cd2c7273144,66a626ef09d4e21e1a8894ec,673649bedc1752bf5d5631f8,2024-11-14_20h10.38.921,Tarea de género gramatical,2024.2.2,Win32,59.52380952,,,,,,,,,,,,,,,,,,,,,,,416.9868,418.2563,a,1,[],[],[],[],[],[],[],0.5943,1,418.2565,418.7499,,,,,,657,FEM,AGR,150,playa,la,a,0.5943,,418.7502,418.7504,0.869444529,-0.138888889,0,0,0,,0,90,90,206,1,,,,
,,,,,,3e0baa979f527cd2c7273144,66a626ef09d4e21e1a8894ec,673649bedc1752bf5d5631f8,2024-11-14_20h10.38.921,Tarea de género gramatical,2024.2.2,Win32,59.52380952,,,,,,,,,,,,,,,,,,,,,,,418.7525,420.2209,a,1,[],[],[],[],[],[],[],0.8004,1,420.221,420.7151,,,,,,500,FEM,DIS,150,dama,el,a,0.8004,,420.7153,420.7158,0.869444529,-0.138888889,0,0,0,,0,91,91,49,1,,,,
,,,,,,3e0baa979f527cd2c7273144,66a626ef09d4e21e1a8894ec,673649bedc1752bf5d5631f8,2024-11-14_20h10.38.921,Tarea de género gramatical,2024.2.2,Win32,59.52380952,,,,,,,,,,,,,,,,,,,,,,,420.7173,421.92,a,1,[],[],[],[],[],[],[],0.5342,1,421.9201,422.4134,,,,,,518,FEM,DIS,150,pata,el,a,0.5342,,422.4153,422.417,0.869444529,-0.138888889,0,0,0,,0,92,92,67,1,,,,
,,,,,,3e0baa979f527cd2c7273144,66a626ef09d4e21e1a8894ec,673649bedc1752bf5d5631f8,2024-11-14_20h10.38.921,Tarea de género gramatical,2024.2.2,Win32,59.52380952,,,,,,,,,,,,,,,,,,,,,,,422.4181,423.6791,a,1,[],[],[],[],[],[],[],0.6001,1,423.6794,424.1783,,,,,,855,FEM,AGR,150,parada,la,a,0.6001,,424.1784,424.1786,0.869444529,-0.138888889,0,0,0,,0,93,93,404,1,,,,
,,,,,,3e0baa979f527cd2c7273144,66a626ef09d4e21e1a8894ec,673649bedc1752bf5d5631f8,2024-11-14_20h10.38.921,Tarea de género gramatical,2024.2.2,Win32,59.52380952,,,,,,,,,,,,,,,,,,,,,,,424.1805,425.432,a,1,[],[],[],[],[],[],[],0.5675,1,425.4321,425.9269,,,,,,584,FEM,DIS,150,rama,el,a,0.5675,,425.9271,425.9274,0.869444529,-0.138888889,0,0,0,,0,94,94,133,1,,,,
,,,,,,3e0baa979f527cd2c7273144,66a626ef09d4e21e1a8894ec,673649bedc1752bf5d5631f8,2024-11-14_20h10.38.921,Tarea de género gramatical,2024.2.2,Win32,59.52380952,,,,,,,,,,,,,,,,,,,,,,,425.9295,427.1819,l,1,[],[],[],[],[],[],[],0.5671,1,427.182,427.6799,,,,,,678,MAS,AGR,150,nivel,el,l,0.5671,,427.68,427.6801,0.869444529,-0.138888889,0,0,0,,0,95,95,227,1,,,,
,,,,,,3e0baa979f527cd2c7273144,66a626ef09d4e21e1a8894ec,673649bedc1752bf5d5631f8,2024-11-14_20h10.38.921,Tarea de género gramatical,2024.2.2,Win32,59.52380952,,,,,,,,,,,,,,,,,,,,,,,427.6818,428.8639,l,1,[],[],[],[],[],[],[],0.5119,1,428.8641,429.361,,,,,,696,MAS,AGR,150,humor,el,l,0.5119,,429.3629,429.3653,0.869444529,-0.138888889,0,0,0,,0,96,96,245,1,,,,
,,,,,,3e0baa979f527cd2c7273144,66a626ef09d4e21e1a8894ec,673649bedc1752bf5d5631f8,2024-11-14_20h10.38.921,Tarea de género gramatical,2024.2.2,Win32,59.52380952,,,,,,,,,,,,,,,,,,,,,,,429.3666,430.6291,a,1,[],[],[],[],[],[],[],0.5963,1,430.6292,431.1228,,,,,,842,FEM,DIS,150,maleta,el,a,0.5963,,431.1229,431.1231,0.869444529,-0.138888889,0,0,0,,0,97,97,391,1,,,,
,,,,,,3e0baa979f527cd2c7273144,66a626ef09d4e21e1a8894ec,673649bedc1752bf5d5631f8,2024-11-14_20h10.38.921,Tarea de género gramatical,2024.2.2,Win32,59.52380952,,,,,,,,,,,,,,,,,,,,,,,431.1248,432.4603,a,1,[],[],[],[],[],[],[],0.6673,1,432.4606,432.9545,,,,,,715,FEM,CON,150,rueda,,a,0.6673,,432.9546,432.9549,0.869444529,-0.138888889,0,0,0,,0,98,98,264,1,,,,
,,,,,,3e0baa979f527cd2c7273144,66a626ef09d4e21e1a8894ec,673649bedc1752bf5d5631f8,2024-11-14_20h10.38.921,Tarea de género gramatical,2024.2.2,Win32,59.52380952,,,,,,,,,,,,,,,,,,,,,,,432.9587,434.4423,a,1,[],[],[],[],[],[],[],0.8172,1,434.4424,434.9405,,,,,,506,FEM,DIS,150,bola,el,a,0.8172,,434.9405,434.9406,0.869444529,-0.138888889,0,0,0,,0,99,99,55,1,,,,
,,,,,,3e0baa979f527cd2c7273144,66a626ef09d4e21e1a8894ec,673649bedc1752bf5d5631f8,2024-11-14_20h10.38.921,Tarea de género gramatical,2024.2.2,Win32,59.52380952,,,,,,,,,,,,,,,,,,,,,,,434.9423,436.1395,a,1,[],[],[],[],[],[],[],0.5273,1,436.1397,436.6344,,,,,,782,FEM,DIS,150,basura,el,a,0.5273,,436.6346,436.6349,0.869444529,-0.138888889,0,0,0,,0,100,100,331,1,,,,
,,,,,,3e0baa979f527cd2c7273144,66a626ef09d4e21e1a8894ec,673649bedc1752bf5d5631f8,2024-11-14_20h10.38.921,Tarea de género gramatical,2024.2.2,Win32,59.52380952,,,,,,,,,,,,,,,,,,,,,,,436.6365,437.9381,a,1,[],[],[],[],[],[],[],0.617,1,437.9382,438.4356,,,,,,655,FEM,CON,150,reina,,a,0.617,,438.4375,438.4394,0.869444529,-0.138888889,0,0,0,,0,101,101,204,1,,,,
,,,,,,3e0baa979f527cd2c7273144,66a626ef09d4e21e1a8894ec,673649bedc1752bf5d5631f8,2024-11-14_20h10.38.921,Tarea de género gramatical,2024.2.2,Win32,59.52380952,,,,,,,,,,,,,,,,,,,,,,,438.4405,439.6203,l,1,[],[],[],[],[],[],[],0.5004,1,439.6205,440.1198,,,,,,804,MAS,AGR,150,camión,el,l,0.5004,,440.1199,440.1199,0.869444529,-0.138888889,0,0,0,,0,102,102,353,1,,,,
,,,,,,3e0baa979f527cd2c7273144,66a626ef09d4e21e1a8894ec,673649bedc1752bf5d5631f8,2024-11-14_20h10.38.921,Tarea de género gramatical,2024.2.2,Win32,59.52380952,,,,,,,,,,,,,,,,,,,,,,,440.1212,441.8463,l,1,[],[],[],[],[],[],[],1.0381,1,441.8465,442.3512,,,,,,797,MAS,DIS,150,cuello,la,l,1.0381,,442.3513,442.3514,0.869444529,-0.138888889,0,0,0,,0,103,103,346,1,,,,
,,,,,,3e0baa979f527cd2c7273144,66a626ef09d4e21e1a8894ec,673649bedc1752bf5d5631f8,2024-11-14_20h10.38.921,Tarea de género gramatical,2024.2.2,Win32,59.52380952,,,,,,,,,,,,,,,,,,,,,,,442.3533,443.6661,l,1,[],[],[],[],[],[],[],0.6324,1,443.6663,444.1619,,,,,,558,MAS,AGR,150,hilo,el,l,0.6324,,444.162,444.1622,0.869444529,-0.138888889,0,0,0,,0,104,104,107,1,,,,
,,,,,,3e0baa979f527cd2c7273144,66a626ef09d4e21e1a8894ec,673649bedc1752bf5d5631f8,2024-11-14_20h10.38.921,Tarea de género gramatical,2024.2.2,Win32,59.52380952,,,,,,,,,,,,,,,,,,,,,,,444.164,445.4983,a,1,[],[],[],[],[],[],[],0.653,1,445.4984,445.9945,,,,,,884,FEM,DIS,150,corona,el,a,0.653,,445.9954,445.9963,0.869444529,-0.138888889,0,0,0,,0,105,105,433,1,,,,
,,,,,,3e0baa979f527cd2c7273144,66a626ef09d4e21e1a8894ec,673649bedc1752bf5d5631f8,2024-11-14_20h10.38.921,Tarea de género gramatical,2024.2.2,Win32,59.52380952,,,,,,,,,,,,,,,,,,,,,,,445.9968,447.2456,a,1,[],[],[],[],[],[],[],0.5824,1,447.2457,447.7414,,,,,,614,FEM,DIS,150,novia,el,a,0.5824,,447.7415,447.7418,0.869444529,-0.138888889,0,0,0,,0,106,106,163,1,,,,
,,,,,,3e0baa979f527cd2c7273144,66a626ef09d4e21e1a8894ec,673649bedc1752bf5d5631f8,2024-11-14_20h10.38.921,Tarea de género gramatical,2024.2.2,Win32,59.52380952,,,,,,,,,,,,,,,,,,,,,,,447.7434,449.1236,l,1,[],[],[],[],[],[],[],0.709,1,449.1239,449.6227,,,,,,628,MAS,CON,150,punto,,l,0.709,,449.6228,449.6231,0.869444529,-0.138888889,0,0,0,,0,107,107,177,1,,,,
,,,,,,3e0baa979f527cd2c7273144,66a626ef09d4e21e1a8894ec,673649bedc1752bf5d5631f8,2024-11-14_20h10.38.921,Tarea de género gramatical,2024.2.2,Win32,59.52380952,,,,,,,,,,,,,,,,,,,,,,,449.6245,451.027,a,1,[],[],[],[],[],[],[],0.7275,1,451.0271,451.5217,,,,,,847,FEM,CON,150,cuerda,,a,0.7275,,451.5219,451.522,0.869444529,-0.138888889,0,0,0,,0,108,108,396,1,,,,
,,,,,,3e0baa979f527cd2c7273144,66a626ef09d4e21e1a8894ec,673649bedc1752bf5d5631f8,2024-11-14_20h10.38.921,Tarea de género gramatical,2024.2.2,Win32,59.52380952,,,,,,,,,,,,,,,,,,,,,,,451.5236,452.9763,a,1,[],[],[],[],[],[],[],0.7829,1,452.9764,453.4746,,,,,,716,FEM,DIS,150,jaula,el,a,0.7829,,453.4746,453.4748,0.869444529,-0.138888889,0,0,0,,0,109,109,265,1,,,,
,,,,,,3e0baa979f527cd2c7273144,66a626ef09d4e21e1a8894ec,673649bedc1752bf5d5631f8,2024-11-14_20h10.38.921,Tarea de género gramatical,2024.2.2,Win32,59.52380952,,,,,,,,,,,,,,,,,,,,,,,453.4763,454.8408,a,1,[],[],[],[],[],[],[],0.6861,1,454.8409,455.3395,,,,,,566,FEM,DIS,150,nube,el,a,0.6861,,455.3413,455.3433,0.869444529,-0.138888889,0,0,0,,0,110,110,115,1,,,,
,,,,,,3e0baa979f527cd2c7273144,66a626ef09d4e21e1a8894ec,673649bedc1752bf5d5631f8,2024-11-14_20h10.38.921,Tarea de género gramatical,2024.2.2,Win32,59.52380952,,,,,,,,,,,,,,,,,,,,,,,455.3448,456.5051,a,1,[],[],[],[],[],[],[],0.4855,1,456.5051,456.9998,,,,,,775,FEM,CON,150,tierra,,a,0.4855,,456.9999,457,0.869444529,-0.138888889,0,0,0,,0,111,111,324,1,,,,
,,,,,,3e0baa979f527cd2c7273144,66a626ef09d4e21e1a8894ec,673649bedc1752bf5d5631f8,2024-11-14_20h10.38.921,Tarea de género gramatical,2024.2.2,Win32,59.52380952,,,,,,,,,,,,,,,,,,,,,,,457.0017,458.2819,a,1,[],[],[],[],[],[],[],0.6088,1,458.2822,458.784,,,,,,463,FEM,CON,150,hija,,a,0.6088,,458.7841,458.7842,0.869444529,-0.138888889,0,0,0,,0,112,112,12,1,,,,
,,,,,,3e0baa979f527cd2c7273144,66a626ef09d4e21e1a8894ec,673649bedc1752bf5d5631f8,2024-11-14_20h10.38.921,Tarea de género gramatical,2024.2.2,Win32,59.52380952,,,,,,,,,,,,,,,,,,,,,,,458.7857,460.2839,l,1,[],[],[],[],[],[],[],0.8324,1,460.2841,460.7841,,,,,,887,MAS,DIS,150,hombro,la,l,0.8324,,460.7842,460.7843,0.869444529,-0.138888889,0,0,0,,0,113,113,436,1,,,,
,,,,,,3e0baa979f527cd2c7273144,66a626ef09d4e21e1a8894ec,673649bedc1752bf5d5631f8,2024-11-14_20h10.38.921,Tarea de género gramatical,2024.2.2,Win32,59.52380952,,,,,,,,,,,,,,,,,,,,,,,460.7853,462.0285,l,1,[],[],[],[],[],[],[],0.5666,1,462.0288,462.5165,,,,,,718,MAS,CON,150,truco,,l,0.5666,,462.5177,462.5191,0.869444529,-0.138888889,0,0,0,,0,114,114,267,1,,,,
,,,,,,3e0baa979f527cd2c7273144,66a626ef09d4e21e1a8894ec,673649bedc1752bf5d5631f8,2024-11-14_20h10.38.921,Tarea de género gramatical,2024.2.2,Win32,59.52380952,,,,,,,,,,,,,,,,,,,,,,,462.5197,463.999,a,1,[],[],[],[],[],[],[],0.8123,1,463.999,464.4986,,,,,,727,FEM,CON,150,plaza,,a,0.8123,,464.4986,464.4988,0.869444529,-0.138888889,0,0,0,,0,115,115,276,1,,,,
,,,,,,3e0baa979f527cd2c7273144,66a626ef09d4e21e1a8894ec,673649bedc1752bf5d5631f8,2024-11-14_20h10.38.921,Tarea de género gramatical,2024.2.2,Win32,59.52380952,,,,,,,,,,,,,,,,,,,,,,,464.5001,466.0639,l,1,[],[],[],[],[],[],[],0.8956,1,466.0639,466.5633,,,,,,730,MAS,CON,150,salón,,l,0.8956,,466.5634,466.5635,0.869444529,-0.138888889,0,0,0,,0,116,116,279,1,,,,
,,,,,,3e0baa979f527cd2c7273144,66a626ef09d4e21e1a8894ec,673649bedc1752bf5d5631f8,2024-11-14_20h10.38.921,Tarea de género gramatical,2024.2.2,Win32,59.52380952,,,,,,,,,,,,,,,,,,,,,,,466.5648,467.812,a,1,[],[],[],[],[],[],[],0.5671,1,467.8121,468.3068,,,,,,530,FEM,DIS,150,vaca,el,a,0.5671,,468.307,468.3072,0.869444529,-0.138888889,0,0,0,,0,117,117,79,1,,,,
,,,,,,3e0baa979f527cd2c7273144,66a626ef09d4e21e1a8894ec,673649bedc1752bf5d5631f8,2024-11-14_20h10.38.921,Tarea de género gramatical,2024.2.2,Win32,59.52380952,,,,,,,,,,,,,,,,,,,,,,,468.309,469.7104,a,1,[],[],[],[],[],[],[],0.7283,1,469.7104,470.2101,,,,,,494,FEM,DIS,150,zona,el,a,0.7283,,470.2102,470.2102,0.869444529,-0.138888889,0,0,0,,0,118,118,43,1,,,,
,,,,,,3e0baa979f527cd2c7273144,66a626ef09d4e21e1a8894ec,673649bedc1752bf5d5631f8,2024-11-14_20h10.38.921,Tarea de género gramatical,2024.2.2,Win32,59.52380952,,,,,,,,,,,,,,,,,,,,,,,470.212,471.5538,a,1,[],[],[],[],[],[],[],0.6561,1,471.5541,472.0532,,,,,,542,FEM,DIS,150,masa,el,a,0.6561,,472.0552,472.0573,0.869444529,-0.138888889,0,0,0,,0,119,119,91,1,,,,
,,,,,,3e0baa979f527cd2c7273144,66a626ef09d4e21e1a8894ec,673649bedc1752bf5d5631f8,2024-11-14_20h10.38.921,Tarea de género gramatical,2024.2.2,Win32,59.52380952,,,,,,,,,,,,,,,,,,,,,,,472.0585,473.3571,l,1,[],[],[],[],[],[],[],0.6172,1,473.3573,473.8515,,,,,,700,MAS,CON,150,cerdo,,l,0.6172,,473.8517,473.8518,0.869444529,-0.138888889,0,0,0,,0,120,120,249,1,,,,
,,,,,,3e0baa979f527cd2c7273144,66a626ef09d4e21e1a8894ec,673649bedc1752bf5d5631f8,2024-11-14_20h10.38.921,Tarea de género gramatical,2024.2.2,Win32,59.52380952,,,,,,,,,,,,,,,,,,,,,,,473.8535,475.6893,a,1,[],[],[],[],[],[],[],1.1671,1,475.6894,476.1883,,,,,,477,FEM,AGR,150,mesa,la,a,1.1671,,476.1884,476.1885,0.869444529,-0.138888889,0,0,0,,0,121,121,26,1,,,,
,,,,,,3e0baa979f527cd2c7273144,66a626ef09d4e21e1a8894ec,673649bedc1752bf5d5631f8,2024-11-14_20h10.38.921,Tarea de género gramatical,2024.2.2,Win32,59.52380952,,,,,,,,,,,,,,,,,,,,,,,476.1896,478.3688,a,1,[],[],[],[],[],[],[],1.5149,1,478.3689,478.8684,,,,,,686,FEM,DIS,150,deuda,el,a,1.5149,,478.8685,478.8687,0.869444529,-0.138888889,0,0,0,,0,122,122,235,1,,,,
,,,,,,3e0baa979f527cd2c7273144,66a626ef09d4e21e1a8894ec,673649bedc1752bf5d5631f8,2024-11-14_20h10.38.921,Tarea de género gramatical,2024.2.2,Win32,59.52380952,,,,,,,,,,,,,,,,,,,,,,,478.8698,480.568,l,1,[],[],[],[],[],[],[],1.0278,1,480.5682,481.0618,,,,,,466,MAS,CON,150,baño,,l,1.0278,,481.0638,481.0648,0.869444529,-0.138888889,0,0,0,,0,123,123,15,1,,,,
,,,,,,3e0baa979f527cd2c7273144,66a626ef09d4e21e1a8894ec,673649bedc1752bf5d5631f8,2024-11-14_20h10.38.921,Tarea de género gramatical,2024.2.2,Win32,59.52380952,,,,,,,,,,,,,,,,,,,,,,,481.0655,482.4155,l,1,[],[],[],[],[],[],[],0.6825,1,482.4156,482.9138,,,,,,893,MAS,DIS,150,templo,la,l,0.6825,,482.9138,482.9139,0.869444529,-0.138888889,0,0,0,,0,124,124,442,1,,,,
,,,,,,3e0baa979f527cd2c7273144,66a626ef09d4e21e1a8894ec,673649bedc1752bf5d5631f8,2024-11-14_20h10.38.921,Tarea de género gramatical,2024.2.2,Win32,59.52380952,,,,,,,,,,,,,,,,,,,,,,,482.9149,484.478,l,1,[],[],[],[],[],[],[],0.8803,1,484.4781,484.9769,,,,,,743,MAS,DIS,150,patio,la,l,0.8803,,484.977,484.9771,0.869444529,-0.138888889,0,0,0,,0,125,125,292,1,,,,
,,,,,,3e0baa979f527cd2c7273144,66a626ef09d4e21e1a8894ec,673649bedc1752bf5d5631f8,2024-11-14_20h10.38.921,Tarea de género gramatical,2024.2.2,Win32,59.52380952,,,,,,,,,,,,,,,,,,,,,,,484.9781,486.2241,l,1,[],[],[],[],[],[],[],0.5844,1,486.2243,486.7238,,,,,,808,MAS,CON,150,motivo,,l,0.5844,,486.724,486.7243,0.869444529,-0.138888889,0,0,0,,0,126,126,357,1,,,,
,,,,,,3e0baa979f527cd2c7273144,66a626ef09d4e21e1a8894ec,673649bedc1752bf5d5631f8,2024-11-14_20h10.38.921,Tarea de género gramatical,2024.2.2,Win32,59.52380952,,,,,,,,,,,,,,,,,,,,,,,486.7259,487.9448,a,1,[],[],[],[],[],[],[],0.5341,1,487.9449,488.4429,,,,,,789,FEM,AGR,150,salida,la,a,0.5341,,488.4429,488.4431,0.869444529,-0.138888889,0,0,0,,0,127,127,338,1,,,,
,,,,,,3e0baa979f527cd2c7273144,66a626ef09d4e21e1a8894ec,673649bedc1752bf5d5631f8,2024-11-14_20h10.38.921,Tarea de género gramatical,2024.2.2,Win32,59.52380952,,,,,,,,,,,,,,,,,,,,,,,488.4443,489.593,a,1,[],[],[],[],[],[],[],0.4783,1,489.593,490.0876,,,,,,511,FEM,CON,150,ruta,,a,0.4783,,490.0893,490.0909,0.869444529,-0.138888889,0,0,0,,0,128,128,60,1,,,,
,,,,,,3e0baa979f527cd2c7273144,66a626ef09d4e21e1a8894ec,673649bedc1752bf5d5631f8,2024-11-14_20h10.38.921,Tarea de género gramatical,2024.2.2,Win32,59.52380952,,,,,,,,,,,,,,,,,,,,,,,490.0919,491.325,l,1,[],[],[],[],[],[],[],0.5511,1,491.3251,491.8221,,,,,,796,MAS,CON,150,juicio,,l,0.5511,,491.8222,491.8222,0.869444529,-0.138888889,0,0,0,,0,129,129,345,1,,,,
,,,,,,3e0baa979f527cd2c7273144,66a626ef09d4e21e1a8894ec,673649bedc1752bf5d5631f8,2024-11-14_20h10.38.921,Tarea de género gramatical,2024.2.2,Win32,59.52380952,,,,,,,,,,,,,,,,,,,,,,,491.8236,493.2371,a,1,[],[],[],[],[],[],[],0.7311,1,493.2372,493.7391,,,,,,470,FEM,DIS,150,ropa,el,a,0.7311,,493.7392,493.7393,0.869444529,-0.138888889,0,0,0,,0,130,130,19,1,,,,
,,,,,,3e0baa979f527cd2c7273144,66a626ef09d4e21e1a8894ec,673649bedc1752bf5d5631f8,2024-11-14_20h10.38.921,Tarea de género gramatical,2024.2.2,Win32,59.52380952,,,,,,,,,,,,,,,,,,,,,,,493.7406,494.8667,a,1,[],[],[],[],[],[],[],0.4436,1,494.8671,495.3661,,,,,,819,FEM,AGR,150,camisa,la,a,0.4436,,495.3663,495.3665,0.869444529,-0.138888889,0,0,0,,0,131,131,368,1,,,,
,,,,,,3e0baa979f527cd2c7273144,66a626ef09d4e21e1a8894ec,673649bedc1752bf5d5631f8,2024-11-14_20h10.38.921,Tarea de género gramatical,2024.2.2,Win32,59.52380952,,,,,,,,,,,,,,,,,,,,,,,495.3682,496.7367,l,1,[],[],[],[],[],[],[],0.6832,1,496.7368,497.2365,,,,,,720,MAS,AGR,150,queso,el,l,0.6832,,497.238,497.2395,0.869444529,-0.138888889,0,0,0,,0,132,132,269,1,,,,
,,,,,,3e0baa979f527cd2c7273144,66a626ef09d4e21e1a8894ec,673649bedc1752bf5d5631f8,2024-11-14_20h10.38.921,Tarea de género gramatical,2024.2.2,Win32,59.52380952,,,,,,,,,,,,,,,,,,,,,,,497.2404,498.5858,l,1,[],[],[],[],[],[],[],0.6788,1,498.5859,499.0834,,,,,,540,MAS,AGR,150,león,el,l,0.6788,,499.0834,499.0836,0.869444529,-0.138888889,0,0,0,,0,133,133,89,1,,,,
,,,,,,3e0baa979f527cd2c7273144,66a626ef09d4e21e1a8894ec,673649bedc1752bf5d5631f8,2024-11-14_20h10.38.921,Tarea de género gramatical,2024.2.2,Win32,59.52380952,,,,,,,,,,,,,,,,,,,,,,,499.0847,500.3618,a,1,[],[],[],[],[],[],[],0.6001,1,500.362,500.85,,,,,,549,FEM,AGR,150,fase,la,a,0.6001,,500.8501,500.8502,0.869444529,-0.138888889,0,0,0,,0,134,134,98,1,,,,
,,,,,,3e0baa979f527cd2c7273144,66a626ef09d4e21e1a8894ec,673649bedc1752bf5d5631f8,2024-11-14_20h10.38.921,Tarea de género gramatical,2024.2.2,Win32,59.52380952,,,,,,,,,,,,,,,,,,,,,,,500.8515,502.2484,l,1,[],[],[],[],[],[],[],0.7283,1,502.2486,502.7475,,,,,,695,MAS,DIS,150,turno,la,l,0.7283,,502.7475,502.7476,0.869444529,-0.138888889,0,0,0,,0,135,135,244,1,,,,
,,,,,,3e0baa979f527cd2c7273144,66a626ef09d4e21e1a8894ec,673649bedc1752bf5d5631f8,2024-11-14_20h10.38.921,Tarea de género gramatical,2024.2.2,Win32,59.52380952,,,,,,,,,,,,,,,,,,,,,,,502.7492,504.2252,a,1,[],[],[],[],[],[],[],0.7913,1,504.2255,504.7281,,,,,,758,FEM,DIS,150,semana,el,a,0.7913,,504.7282,504.7283,0.869444529,-0.138888889,0,0,0,,0,136,136,307,1,,,,
,,,,,,3e0baa979f527cd2c7273144,66a626ef09d4e21e1a8894ec,673649bedc1752bf5d5631f8,2024-11-14_20h10.38.921,Tarea de género gramatical,2024.2.2,Win32,59.52380952,,,,,,,,,,,,,,,,,,,,,,,504.7294,506.1781,l,1,[],[],[],[],[],[],[],0.7776,1,506.1782,506.6785,,,,,,815,MAS,DIS,150,código,la,l,0.7776,,506.6804,506.682,0.869444529,-0.138888889,0,0,0,,0,137,137,364,1,,,,
,,,,,,3e0baa979f527cd2c7273144,66a626ef09d4e21e1a8894ec,673649bedc1752bf5d5631f8,2024-11-14_20h10.38.921,Tarea de género gramatical,2024.2.2,Win32,59.52380952,,,,,,,,,,,,,,,,,,,,,,,506.6832,507.9104,a,1,[],[],[],[],[],[],[],0.5513,1,507.9105,508.4048,,,,,,867,FEM,AGR,150,cabaña,la,a,0.5513,,508.405,508.4052,0.869444529,-0.138888889,0,0,0,,0,138,138,416,1,,,,
,,,,,,3e0baa979f527cd2c7273144,66a626ef09d4e21e1a8894ec,673649bedc1752bf5d5631f8,2024-11-14_20h10.38.921,Tarea de género gramatical,2024.2.2,Win32,59.52380952,,,,,,,,,,,,,,,,,,,,,,,508.4069,509.8083,a,1,[],[],[],[],[],[],[],0.7165,1,509.8084,510.3055,,,,,,645,FEM,AGR,150,pared,la,a,0.7165,,510.3056,510.3057,0.869444529,-0.138888889,0,0,0,,0,139,139,194,1,,,,
,,,,,,3e0baa979f527cd2c7273144,66a626ef09d4e21e1a8894ec,673649bedc1752bf5d5631f8,2024-11-14_20h10.38.921,Tarea de género gramatical,2024.2.2,Win32,59.52380952,,,,,,,,,,,,,,,,,,,,,,,510.3071,511.702,a,1,[],[],[],[],[],[],[],0.7099,1,511.7023,512.2053,,,,,,541,FEM,CON,150,hoja,,a,0.7099,,512.2054,512.2055,0.869444529,-0.138888889,0,0,0,,0,140,140,90,1,,,,
,,,,,,3e0baa979f527cd2c7273144,66a626ef09d4e21e1a8894ec,673649bedc1752bf5d5631f8,2024-11-14_20h10.38.921,Tarea de género gramatical,2024.2.2,Win32,59.52380952,,,,,,,,,,,,,,,,,,,,,,,512.2066,513.4555,l,1,[],[],[],[],[],[],[],0.5779,1,513.4556,513.9501,,,,,,880,MAS,CON,150,título,,l,0.5779,,513.952,513.9536,0.869444529,-0.138888889,0,0,0,,0,141,141,429,1,,,,
,,,,,,3e0baa979f527cd2c7273144,66a626ef09d4e21e1a8894ec,673649bedc1752bf5d5631f8,2024-11-14_20h10.38.921,Tarea de género gramatical,2024.2.2,Win32,59.52380952,,,,,,,,,,,,,,,,,,,,,,,513.9548,515.3044,a,1,[],[],[],[],[],[],[],0.6669,1,515.3045,515.8041,,,,,,794,FEM,DIS,150,pareja,el,a,0.6669,,515.8042,515.8044,0.869444529,-0.138888889,0,0,0,,0,142,142,343,1,,,,
,,,,,,3e0baa979f527cd2c7273144,66a626ef09d4e21e1a8894ec,673649bedc1752bf5d5631f8,2024-11-14_20h10.38.921,Tarea de género gramatical,2024.2.2,Win32,59.52380952,,,,,,,,,,,,,,,,,,,,,,,515.8062,517.0688,a,1,[],[],[],[],[],[],[],0.5838,1,517.0689,517.5683,,,,,,663,FEM,AGR,150,magia,la,a,0.5838,,517.5684,517.5684,0.869444529,-0.138888889,0,0,0,,0,143,143,212,1,,,,
,,,,,,3e0baa979f527cd2c7273144,66a626ef09d4e21e1a8894ec,673649bedc1752bf5d5631f8,2024-11-14_20h10.38.921,Tarea de género gramatical,2024.2.2,Win32,59.52380952,,,,,,,,,,,,,,,,,,,,,,,517.5698,518.7847,l,1,[],[],[],[],[],[],[],0.5461,1,518.7847,519.2843,,,,,,768,MAS,AGR,150,pueblo,el,l,0.5461,,519.2843,519.2844,0.869444529,-0.138888889,0,0,0,,0,144,144,317,1,,,,
,,,,,,3e0baa979f527cd2c7273144,66a626ef09d4e21e1a8894ec,673649bedc1752bf5d5631f8,2024-11-14_20h10.38.921,Tarea de género gramatical,2024.2.2,Win32,59.52380952,,,,,,,,,,,,,,,,,,,,,,,519.2862,520.8939,l,1,[],[],[],[],[],[],[],0.9249,1,520.8941,521.382,,,,,,647,MAS,DIS,150,avión,la,l,0.9249,,521.3821,521.3823,0.869444529,-0.138888889,0,0,0,,0,145,145,196,1,,,,
,,,,,,3e0baa979f527cd2c7273144,66a626ef09d4e21e1a8894ec,673649bedc1752bf5d5631f8,2024-11-14_20h10.38.921,Tarea de género gramatical,2024.2.2,Win32,59.52380952,,,,,,,,,,,,,,,,,,,,,,,521.3839,522.7978,a,1,[],[],[],[],[],[],[],0.7332,1,522.798,523.2944,,,,,,693,FEM,AGR,150,salsa,la,a,0.7332,,523.2964,523.2981,0.869444529,-0.138888889,0,0,0,,0,146,146,242,1,,,,
,,,,,,3e0baa979f527cd2c7273144,66a626ef09d4e21e1a8894ec,673649bedc1752bf5d5631f8,2024-11-14_20h10.38.921,Tarea de género gramatical,2024.2.2,Win32,59.52380952,,,,,,,,,,,,,,,,,,,,,,,523.2993,524.497,a,1,[],[],[],[],[],[],[],0.5273,1,524.4971,524.9957,,,,,,639,FEM,AGR,150,pista,la,a,0.5273,,524.9957,524.9959,0.869444529,-0.138888889,0,0,0,,0,147,147,188,1,,,,
,,,,,,3e0baa979f527cd2c7273144,66a626ef09d4e21e1a8894ec,673649bedc1752bf5d5631f8,2024-11-14_20h10.38.921,Tarea de género gramatical,2024.2.2,Win32,59.52380952,,,,,,,,,,,,,,,,,,,,,,,524.9972,526.2783,a,1,[],[],[],[],[],[],[],0.6004,1,526.2784,526.7723,,,,,,831,FEM,AGR,150,bebida,la,a,0.6004,,526.7726,526.7731,0.869444529,-0.138888889,0,0,0,,0,148,148,380,1,,,,
,,,,,,3e0baa979f527cd2c7273144,66a626ef09d4e21e1a8894ec,673649bedc1752bf5d5631f8,2024-11-14_20h10.38.921,Tarea de género gramatical,2024.2.2,Win32,59.52380952,,,,,,,,,,,,,,,,,,,,,,,526.775,527.9409,a,1,[],[],[],[],[],[],[],0.4976,1,527.941,528.4418,,,,,,837,FEM,AGR,150,página,la,a,0.4976,,528.4418,528.442,0.869444529,-0.138888889,0,0,0,,0,149,149,386,1,,,,
,,,,,,3e0baa979f527cd2c7273144,66a626ef09d4e21e1a8894ec,673649bedc1752bf5d5631f8,2024-11-14_20h10.38.921,Tarea de género gramatical,2024.2.2,Win32,59.52380952,,,,,,,,,,,,,,,,,,,,,,,528.4439,529.6928,l,1,[],[],[],[],[],[],[],0.5681,1,529.693,530.1911,,,,,,713,MAS,DIS,150,carro,la,l,0.5681,,530.1936,575.0026,0.869444529,-0.138888889,0,0,0,space,0,150,150,262,1,44.7853,,,
,,,,,,3e0baa979f527cd2c7273144,66a626ef09d4e21e1a8894ec,673649bedc1752bf5d5631f8,2024-11-14_20h10.38.921,Tarea de género gramatical,2024.2.2,Win32,59.52380952,,,,,,,,,,,,,,,,,,,,,,,575.0044,576.3959,a,1,[],[],[],[],[],[],[],0.7073,1,576.3963,576.884,,,,,,825,FEM,AGR,150,cadena,la,a,0.7073,,576.8841,576.8842,0.869444529,-0.138888889,0,0,0,,0,151,151,374,1,,,,
,,,,,,3e0baa979f527cd2c7273144,66a626ef09d4e21e1a8894ec,673649bedc1752bf5d5631f8,2024-11-14_20h10.38.921,Tarea de género gramatical,2024.2.2,Win32,59.52380952,,,,,,,,,,,,,,,,,,,,,,,576.8861,578.0164,a,1,[],[],[],[],[],[],[],0.4604,1,578.0166,578.516,,,,,,877,FEM,CON,150,agenda,,a,0.4604,,578.516,578.5162,0.869444529,-0.138888889,0,0,0,,0,152,152,426,1,,,,
,,,,,,3e0baa979f527cd2c7273144,66a626ef09d4e21e1a8894ec,673649bedc1752bf5d5631f8,2024-11-14_20h10.38.921,Tarea de género gramatical,2024.2.2,Win32,59.52380952,,,,,,,,,,,,,,,,,,,,,,,578.5179,579.7991,l,1,[],[],[],[],[],[],[],0.6004,1,579.7993,580.2924,,,,,,676,MAS,CON,150,color,,l,0.6004,,580.2925,580.2927,0.869444529,-0.138888889,0,0,0,,0,153,153,225,1,,,,
,,,,,,3e0baa979f527cd2c7273144,66a626ef09d4e21e1a8894ec,673649bedc1752bf5d5631f8,2024-11-14_20h10.38.921,Tarea de género gramatical,2024.2.2,Win32,59.52380952,,,,,,,,,,,,,,,,,,,,,,,580.2944,581.658,a,1,[],[],[],[],[],[],[],0.7004,1,581.6582,582.1464,,,,,,830,FEM,DIS,150,madera,el,a,0.7004,,582.1465,582.1466,0.869444529,-0.138888889,0,0,0,,0,154,154,379,1,,,,
,,,,,,3e0baa979f527cd2c7273144,66a626ef09d4e21e1a8894ec,673649bedc1752bf5d5631f8,2024-11-14_20h10.38.921,Tarea de género gramatical,2024.2.2,Win32,59.52380952,,,,,,,,,,,,,,,,,,,,,,,582.1481,583.4116,a,1,[],[],[],[],[],[],[],0.5857,1,583.4118,583.9061,,,,,,735,FEM,AGR,150,mafia,la,a,0.5857,,583.9087,583.9108,0.869444529,-0.138888889,0,0,0,,0,155,155,284,1,,,,
,,,,,,3e0baa979f527cd2c7273144,66a626ef09d4e21e1a8894ec,673649bedc1752bf5d5631f8,2024-11-14_20h10.38.921,Tarea de género gramatical,2024.2.2,Win32,59.52380952,,,,,,,,,,,,,,,,,,,,,,,583.9121,585.1545,a,1,[],[],[],[],[],[],[],0.5742,1,585.1548,585.6567,,,,,,739,FEM,CON,150,tabla,,a,0.5742,,585.6568,585.6569,0.869444529,-0.138888889,0,0,0,,0,156,156,288,1,,,,
,,,,,,3e0baa979f527cd2c7273144,66a626ef09d4e21e1a8894ec,673649bedc1752bf5d5631f8,2024-11-14_20h10.38.921,Tarea de género gramatical,2024.2.2,Win32,59.52380952,,,,,,,,,,,,,,,,,,,,,,,585.6589,586.9868,a,1,[],[],[],[],[],[],[],0.6597,1,586.987,587.4903,,,,,,776,FEM,DIS,150,música,el,a,0.6597,,587.4904,587.4905,0.869444529,-0.138888889,0,0,0,,0,157,157,325,1,,,,
,,,,,,3e0baa979f527cd2c7273144,66a626ef09d4e21e1a8894ec,673649bedc1752bf5d5631f8,2024-11-14_20h10.38.921,Tarea de género gramatical,2024.2.2,Win32,59.52380952,,,,,,,,,,,,,,,,,,,,,,,587.4922,588.8351,l,1,[],[],[],[],[],[],[],0.6727,1,588.8354,589.3385,,,,,,778,MAS,CON,150,asunto,,l,0.6727,,589.3386,589.3387,0.869444529,-0.138888889,0,0,0,,0,158,158,327,1,,,,
,,,,,,3e0baa979f527cd2c7273144,66a626ef09d4e21e1a8894ec,673649bedc1752bf5d5631f8,2024-11-14_20h10.38.921,Tarea de género gramatical,2024.2.2,Win32,59.52380952,,,,,,,,,,,,,,,,,,,,,,,589.3395,590.7544,l,1,[],[],[],[],[],[],[],0.7325,1,590.7544,591.2541,,,,,,618,MAS,AGR,150,sitio,el,l,0.7325,,591.2556,591.2571,0.869444529,-0.138888889,0,0,0,,0,159,159,167,1,,,,
,,,,,,3e0baa979f527cd2c7273144,66a626ef09d4e21e1a8894ec,673649bedc1752bf5d5631f8,2024-11-14_20h10.38.921,Tarea de género gramatical,2024.2.2,Win32,59.52380952,,,,,,,,,,,,,,,,,,,,,,,591.2581,592.6705,l,1,[],[],[],[],[],[],[],0.7456,1,592.6708,593.1648,,,,,,539,MAS,DIS,150,maíz,la,l,0.7456,,593.1649,593.1654,0.869444529,-0.138888889,0,0,0,,0,160,160,88,1,,,,
,,,,,,3e0baa979f527cd2c7273144,66a626ef09d4e21e1a8894ec,673649bedc1752bf5d5631f8,2024-11-14_20h10.38.921,Tarea de género gramatical,2024.2.2,Win32,59.52380952,,,,,,,,,,,,,,,,,,,,,,,593.1667,594.6524,l,1,[],[],[],[],[],[],[],0.827,1,594.6525,595.1501,,,,,,762,MAS,AGR,150,equipo,el,l,0.827,,595.1502,595.1504,0.869444529,-0.138888889,0,0,0,,0,161,161,311,1,,,,
,,,,,,3e0baa979f527cd2c7273144,66a626ef09d4e21e1a8894ec,673649bedc1752bf5d5631f8,2024-11-14_20h10.38.921,Tarea de género gramatical,2024.2.2,Win32,59.52380952,,,,,,,,,,,,,,,,,,,,,,,595.1517,596.533,a,1,[],[],[],[],[],[],[],0.6991,1,596.5331,597.028,,,,,,661,FEM,CON,150,salud,,a,0.6991,,597.0282,597.0288,0.869444529,-0.138888889,0,0,0,,0,162,162,210,1,,,,
,,,,,,3e0baa979f527cd2c7273144,66a626ef09d4e21e1a8894ec,673649bedc1752bf5d5631f8,2024-11-14_20h10.38.921,Tarea de género gramatical,2024.2.2,Win32,59.52380952,,,,,,,,,,,,,,,,,,,,,,,597.0311,598.3828,l,1,[],[],[],[],[],[],[],0.6698,1,598.383,598.8808,,,,,,791,MAS,DIS,150,precio,la,l,0.6698,,598.8809,598.8811,0.869444529,-0.138888889,0,0,0,,0,163,163,340,1,,,,
,,,,,,3e0baa979f527cd2c7273144,66a626ef09d4e21e1a8894ec,673649bedc1752bf5d5631f8,2024-11-14_20h10.38.921,Tarea de género gramatical,2024.2.2,Win32,59.52380952,,,,,,,,,,,,,,,,,,,,,,,598.8827,600.2417,l,1,[],[],[],[],[],[],[],0.6691,1,600.242,600.746,,,,,,760,MAS,CON,150,nombre,,l,0.6691,,600.7475,600.7492,0.869444529,-0.138888889,0,0,0,,0,164,164,309,1,,,,
,,,,,,3e0baa979f527cd2c7273144,66a626ef09d4e21e1a8894ec,673649bedc1752bf5d5631f8,2024-11-14_20h10.38.921,Tarea de género gramatical,2024.2.2,Win32,59.52380952,,,,,,,,,,,,,,,,,,,,,,,600.7503,602.5791,a,0,[],[],[],[],[],[],[],1.15,0,602.5806,603.0724,,,,,,455,MAS,DIS,150,tipo,la,l,1.15,,603.0726,603.0729,0.869444529,-0.138888889,0,0,0,,0,165,165,4,1,,,,
,,,,,,3e0baa979f527cd2c7273144,66a626ef09d4e21e1a8894ec,673649bedc1752bf5d5631f8,2024-11-14_20h10.38.921,Tarea de género gramatical,2024.2.2,Win32,59.52380952,,,,,,,,,,,,,,,,,,,,,,,603.0744,604.3933,l,1,[],[],[],[],[],[],[],0.6601,1,604.3941,604.8877,,,,,,490,MAS,CON,150,dios,,l,0.6601,,604.8878,604.8881,0.869444529,-0.138888889,0,0,0,,0,166,166,39,1,,,,
,,,,,,3e0baa979f527cd2c7273144,66a626ef09d4e21e1a8894ec,673649bedc1752bf5d5631f8,2024-11-14_20h10.38.921,Tarea de género gramatical,2024.2.2,Win32,59.52380952,,,,,,,,,,,,,,,,,,,,,,,604.89,606.3083,l,1,[],[],[],[],[],[],[],0.7499,1,606.3085,606.8028,,,,,,563,MAS,DIS,150,toro,la,l,0.7499,,606.803,606.8033,0.869444529,-0.138888889,0,0,0,,0,167,167,112,1,,,,
,,,,,,3e0baa979f527cd2c7273144,66a626ef09d4e21e1a8894ec,673649bedc1752bf5d5631f8,2024-11-14_20h10.38.921,Tarea de género gramatical,2024.2.2,Win32,59.52380952,,,,,,,,,,,,,,,,,,,,,,,606.8049,608.4398,a,1,[],[],[],[],[],[],[],0.9492,1,608.4401,608.9343,,,,,,746,FEM,DIS,150,feria,el,a,0.9492,,608.9365,608.9383,0.869444529,-0.138888889,0,0,0,,0,168,168,295,1,,,,
,,,,,,3e0baa979f527cd2c7273144,66a626ef09d4e21e1a8894ec,673649bedc1752bf5d5631f8,2024-11-14_20h10.38.921,Tarea de género gramatical,2024.2.2,Win32,59.52380952,,,,,,,,,,,,,,,,,,,,,,,608.9394,610.3493,l,1,[],[],[],[],[],[],[],0.7253,1,610.3495,610.8378,,,,,,516,MAS,AGR,150,muro,el,l,0.7253,,610.8379,610.838,0.869444529,-0.138888889,0,0,0,,0,169,169,65,1,,,,
,,,,,,3e0baa979f527cd2c7273144,66a626ef09d4e21e1a8894ec,673649bedc1752bf5d5631f8,2024-11-14_20h10.38.921,Tarea de género gramatical,2024.2.2,Win32,59.52380952,,,,,,,,,,,,,,,,,,,,,,,610.8399,612.5699,l,1,[],[],[],[],[],[],[],1.0508,1,612.57,613.0689,,,,,,790,MAS,CON,150,pasado,,l,1.0508,,613.069,613.0691,0.869444529,-0.138888889,0,0,0,,0,170,170,339,1,,,,
,,,,,,3e0baa979f527cd2c7273144,66a626ef09d4e21e1a8894ec,673649bedc1752bf5d5631f8,2024-11-14_20h10.38.921,Tarea de género gramatical,2024.2.2,Win32,59.52380952,,,,,,,,,,,,,,,,,,,,,,,613.0709,614.4174,a,1,[],[],[],[],[],[],[],0.6768,1,614.4176,614.9136,,,,,,896,FEM,DIS,150,bañera,el,a,0.6768,,614.9136,614.9137,0.869444529,-0.138888889,0,0,0,,0,171,171,445,1,,,,
,,,,,,3e0baa979f527cd2c7273144,66a626ef09d4e21e1a8894ec,673649bedc1752bf5d5631f8,2024-11-14_20h10.38.921,Tarea de género gramatical,2024.2.2,Win32,59.52380952,,,,,,,,,,,,,,,,,,,,,,,614.9145,616.199,a,1,[],[],[],[],[],[],[],0.6117,1,616.1992,616.6936,,,,,,650,FEM,DIS,150,silla,el,a,0.6117,,616.6938,616.694,0.869444529,-0.138888889,0,0,0,,0,172,172,199,1,,,,
,,,,,,3e0baa979f527cd2c7273144,66a626ef09d4e21e1a8894ec,673649bedc1752bf5d5631f8,2024-11-14_20h10.38.921,Tarea de género gramatical,2024.2.2,Win32,59.52380952,,,,,,,,,,,,,,,,,,,,,,,616.6958,617.9483,a,1,[],[],[],[],[],[],[],0.5835,1,617.9485,618.446,,,,,,764,FEM,DIS,150,señora,el,a,0.5835,,618.4471,618.4479,0.869444529,-0.138888889,0,0,0,,0,173,173,313,1,,,,
,,,,,,3e0baa979f527cd2c7273144,66a626ef09d4e21e1a8894ec,673649bedc1752bf5d5631f8,2024-11-14_20h10.38.921,Tarea de género gramatical,2024.2.2,Win32,59.52380952,,,,,,,,,,,,,,,,,,,,,,,618.4484,619.9458,l,1,[],[],[],[],[],[],[],0.829,1,619.9458,620.4402,,,,,,575,MAS,DIS,150,bate,la,l,0.829,,620.4404,620.4407,0.869444529,-0.138888889,0,0,0,,0,174,174,124,1,,,,
,,,,,,3e0baa979f527cd2c7273144,66a626ef09d4e21e1a8894ec,673649bedc1752bf5d5631f8,2024-11-14_20h10.38.921,Tarea de género gramatical,2024.2.2,Win32,59.52380952,,,,,,,,,,,,,,,,,,,,,,,620.4421,621.8438,l,1,[],[],[],[],[],[],[],0.7173,1,621.8439,622.3434,,,,,,664,MAS,CON,150,fondo,,l,0.7173,,622.3434,622.3436,0.869444529,-0.138888889,0,0,0,,0,175,175,213,1,,,,
,,,,,,3e0baa979f527cd2c7273144,66a626ef09d4e21e1a8894ec,673649bedc1752bf5d5631f8,2024-11-14_20h10.38.921,Tarea de género gramatical,2024.2.2,Win32,59.52380952,,,,,,,,,,,,,,,,,,,,,,,622.3448,623.6096,a,1,[],[],[],[],[],[],[],0.5945,1,623.6097,624.109,,,,,,573,FEM,AGR,150,tela,la,a,0.5945,,624.109,624.1092,0.869444529,-0.138888889,0,0,0,,0,176,176,122,1,,,,
,,,,,,3e0baa979f527cd2c7273144,66a626ef09d4e21e1a8894ec,673649bedc1752bf5d5631f8,2024-11-14_20h10.38.921,Tarea de género gramatical,2024.2.2,Win32,59.52380952,,,,,,,,,,,,,,,,,,,,,,,624.1106,625.8248,l,1,[],[],[],[],[],[],[],1.0456,1,625.8249,626.3189,,,,,,816,MAS,AGR,150,riesgo,el,l,1.0456,,626.3211,626.3227,0.869444529,-0.138888889,0,0,0,,0,177,177,365,1,,,,
,,,,,,3e0baa979f527cd2c7273144,66a626ef09d4e21e1a8894ec,673649bedc1752bf5d5631f8,2024-11-14_20h10.38.921,Tarea de género gramatical,2024.2.2,Win32,59.52380952,,,,,,,,,,,,,,,,,,,,,,,626.3238,627.6178,a,1,[],[],[],[],[],[],[],0.6086,1,627.618,628.122,,,,,,603,FEM,AGR,150,mujer,la,a,0.6086,,628.1222,628.1223,0.869444529,-0.138888889,0,0,0,,0,178,178,152,1,,,,
,,,,,,3e0baa979f527cd2c7273144,66a626ef09d4e21e1a8894ec,673649bedc1752bf5d5631f8,2024-11-14_20h10.38.921,Tarea de género gramatical,2024.2.2,Win32,59.52380952,,,,,,,,,,,,,,,,,,,,,,,628.1231,629.4041,l,1,[],[],[],[],[],[],[],0.613,1,629.4042,629.9036,,,,,,550,MAS,CON,150,nido,,l,0.613,,629.9037,629.9037,0.869444529,-0.138888889,0,0,0,,0,179,179,99,1,,,,
,,,,,,3e0baa979f527cd2c7273144,66a626ef09d4e21e1a8894ec,673649bedc1752bf5d5631f8,2024-11-14_20h10.38.921,Tarea de género gramatical,2024.2.2,Win32,59.52380952,,,,,,,,,,,,,,,,,,,,,,,629.9049,631.602,a,1,[],[],[],[],[],[],[],1.0189,1,631.6021,632.1017,,,,,,529,FEM,CON,150,mina,,a,1.0189,,632.1017,632.1018,0.869444529,-0.138888889,0,0,0,,0,180,180,78,1,,,,
,,,,,,3e0baa979f527cd2c7273144,66a626ef09d4e21e1a8894ec,673649bedc1752bf5d5631f8,2024-11-14_20h10.38.921,Tarea de género gramatical,2024.2.2,Win32,59.52380952,,,,,,,,,,,,,,,,,,,,,,,632.1027,633.4458,l,1,[],[],[],[],[],[],[],0.6664,1,633.4461,633.9336,,,,,,682,MAS,CON,150,calor,,l,0.6664,,633.9337,633.9338,0.869444529,-0.138888889,0,0,0,,0,181,181,231,1,,,,
,,,,,,3e0baa979f527cd2c7273144,66a626ef09d4e21e1a8894ec,673649bedc1752bf5d5631f8,2024-11-14_20h10.38.921,Tarea de género gramatical,2024.2.2,Win32,59.52380952,,,,,,,,,,,,,,,,,,,,,,,633.9347,635.316,l,1,[],[],[],[],[],[],[],0.6998,1,635.3162,635.8101,,,,,,592,MAS,CON,150,lodo,,l,0.6998,,635.8123,635.8134,0.869444529,-0.138888889,0,0,0,,0,182,182,141,1,,,,
,,,,,,3e0baa979f527cd2c7273144,66a626ef09d4e21e1a8894ec,673649bedc1752bf5d5631f8,2024-11-14_20h10.38.921,Tarea de género gramatical,2024.2.2,Win32,59.52380952,,,,,,,,,,,,,,,,,,,,,,,635.8143,637.4486,a,1,[],[],[],[],[],[],[],0.9614,1,637.4487,637.9422,,,,,,765,FEM,AGR,150,manera,la,a,0.9614,,637.9424,637.9425,0.869444529,-0.138888889,0,0,0,,0,183,183,314,1,,,,
,,,,,,3e0baa979f527cd2c7273144,66a626ef09d4e21e1a8894ec,673649bedc1752bf5d5631f8,2024-11-14_20h10.38.921,Tarea de género gramatical,2024.2.2,Win32,59.52380952,,,,,,,,,,,,,,,,,,,,,,,637.9443,639.4302,l,1,[],[],[],[],[],[],[],0.8169,1,639.4304,639.9292,,,,,,744,MAS,AGR,150,cable,el,l,0.8169,,639.9294,639.9298,0.869444529,-0.138888889,0,0,0,,0,184,184,293,1,,,,
,,,,,,3e0baa979f527cd2c7273144,66a626ef09d4e21e1a8894ec,673649bedc1752bf5d5631f8,2024-11-14_20h10.38.921,Tarea de género gramatical,2024.2.2,Win32,59.52380952,,,,,,,,,,,,,,,,,,,,,,,639.9321,641.339,l,1,[],[],[],[],[],[],[],0.732,1,641.3392,641.839,,,,,,785,MAS,DIS,150,montón,la,l,0.732,,641.8391,641.8396,0.869444529,-0.138888889,0,0,0,,0,185,185,334,1,,,,
,,,,,,3e0baa979f527cd2c7273144,66a626ef09d4e21e1a8894ec,673649bedc1752bf5d5631f8,2024-11-14_20h10.38.921,Tarea de género gramatical,2024.2.2,Win32,59.52380952,,,,,,,,,,,,,,,,,,,,,,,641.841,643.1764,l,1,[],[],[],[],[],[],[],0.6672,1,643.1766,643.6757,,,,,,755,MAS,DIS,150,hombre,la,l,0.6672,,643.6775,643.6791,0.869444529,-0.138888889,0,0,0,,0,186,186,304,1,,,,
,,,,,,3e0baa979f527cd2c7273144,66a626ef09d4e21e1a8894ec,673649bedc1752bf5d5631f8,2024-11-14_20h10.38.921,Tarea de género gramatical,2024.2.2,Win32,59.52380952,,,,,,,,,,,,,,,,,,,,,,,643.6802,644.9748,l,1,[],[],[],[],[],[],[],0.6171,1,644.975,645.4688,,,,,,544,MAS,CON,150,cabo,,l,0.6171,,645.469,645.4693,0.869444529,-0.138888889,0,0,0,,0,187,187,93,1,,,,
,,,,,,3e0baa979f527cd2c7273144,66a626ef09d4e21e1a8894ec,673649bedc1752bf5d5631f8,2024-11-14_20h10.38.921,Tarea de género gramatical,2024.2.2,Win32,59.52380952,,,,,,,,,,,,,,,,,,,,,,,645.4713,647.2719,l,1,[],[],[],[],[],[],[],1.1432,1,647.2719,647.7719,,,,,,899,MAS,DIS,150,payaso,la,l,1.1432,,647.7719,647.7721,0.869444529,-0.138888889,0,0,0,,0,188,188,448,1,,,,
,,,,,,3e0baa979f527cd2c7273144,66a626ef09d4e21e1a8894ec,673649bedc1752bf5d5631f8,2024-11-14_20h10.38.921,Tarea de género gramatical,2024.2.2,Win32,59.52380952,,,,,,,,,,,,,,,,,,,,,,,647.7733,649.2345,a,0,[],[],[],[],[],[],[],0.7835,0,649.2355,649.7322,,,,,,605,MAS,DIS,150,mundo,la,l,0.7835,,649.7322,649.7327,0.869444529,-0.138888889,0,0,0,,0,189,189,154,1,,,,
,,,,,,3e0baa979f527cd2c7273144,66a626ef09d4e21e1a8894ec,673649bedc1752bf5d5631f8,2024-11-14_20h10.38.921,Tarea de género gramatical,2024.2.2,Win32,59.52380952,,,,,,,,,,,,,,,,,,,,,,,649.7339,651.1183,l,1,[],[],[],[],[],[],[],0.7119,1,651.1195,651.6187,,,,,,660,MAS,AGR,150,baile,el,l,0.7119,,651.6188,651.6189,0.869444529,-0.138888889,0,0,0,,0,190,190,209,1,,,,
,,,,,,3e0baa979f527cd2c7273144,66a626ef09d4e21e1a8894ec,673649bedc1752bf5d5631f8,2024-11-14_20h10.38.921,Tarea de género gramatical,2024.2.2,Win32,59.52380952,,,,,,,,,,,,,,,,,,,,,,,651.62,652.8012,l,1,[],[],[],[],[],[],[],0.5119,1,652.8012,653.3002,,,,,,774,MAS,AGR,150,cuarto,el,l,0.5119,,653.3027,653.3044,0.869444529,-0.138888889,0,0,0,,0,191,191,323,1,,,,
,,,,,,3e0baa979f527cd2c7273144,66a626ef09d4e21e1a8894ec,673649bedc1752bf5d5631f8,2024-11-14_20h10.38.921,Tarea de género gramatical,2024.2.2,Win32,59.52380952,,,,,,,,,,,,,,,,,,,,,,,653.3056,654.6664,l,1,[],[],[],[],[],[],[],0.6945,1,654.6665,655.1603,,,,,,598,MAS,CON,150,surf,,l,0.6945,,655.1604,655.1606,0.869444529,-0.138888889,0,0,0,,0,192,192,147,1,,,,
,,,,,,3e0baa979f527cd2c7273144,66a626ef09d4e21e1a8894ec,673649bedc1752bf5d5631f8,2024-11-14_20h10.38.921,Tarea de género gramatical,2024.2.2,Win32,59.52380952,,,,,,,,,,,,,,,,,,,,,,,655.1617,656.4595,a,1,[],[],[],[],[],[],[],0.6232,1,656.4597,656.9474,,,,,,733,FEM,CON,150,pluma,,a,0.6232,,656.9476,656.9477,0.869444529,-0.138888889,0,0,0,,0,193,193,282,1,,,,
,,,,,,3e0baa979f527cd2c7273144,66a626ef09d4e21e1a8894ec,673649bedc1752bf5d5631f8,2024-11-14_20h10.38.921,Tarea de género gramatical,2024.2.2,Win32,59.52380952,,,,,,,,,,,,,,,,,,,,,,,656.9492,658.2468,l,1,[],[],[],[],[],[],[],0.6283,1,658.2469,658.7458,,,,,,502,MAS,CON,150,lago,,l,0.6283,,658.746,658.7461,0.869444529,-0.138888889,0,0,0,,0,194,194,51,1,,,,
,,,,,,3e0baa979f527cd2c7273144,66a626ef09d4e21e1a8894ec,673649bedc1752bf5d5631f8,2024-11-14_20h10.38.921,Tarea de género gramatical,2024.2.2,Win32,59.52380952,,,,,,,,,,,,,,,,,,,,,,,658.7479,660.0892,l,1,[],[],[],[],[],[],[],0.6726,1,660.0895,660.5941,,,,,,653,MAS,DIS,150,novio,la,l,0.6726,,660.5961,660.5981,0.869444529,-0.138888889,0,0,0,,0,195,195,202,1,,,,
,,,,,,3e0baa979f527cd2c7273144,66a626ef09d4e21e1a8894ec,673649bedc1752bf5d5631f8,2024-11-14_20h10.38.921,Tarea de género gramatical,2024.2.2,Win32,59.52380952,,,,,,,,,,,,,,,,,,,,,,,660.5995,661.8762,a,1,[],[],[],[],[],[],[],0.6002,1,661.8763,662.3744,,,,,,475,FEM,CON,150,nave,,a,0.6002,,662.3745,662.3746,0.869444529,-0.138888889,0,0,0,,0,196,196,24,1,,,,
,,,,,,3e0baa979f527cd2c7273144,66a626ef09d4e21e1a8894ec,673649bedc1752bf5d5631f8,2024-11-14_20h10.38.921,Tarea de género gramatical,2024.2.2,Win32,59.52380952,,,,,,,,,,,,,,,,,,,,,,,662.3756,663.6739,l,1,[],[],[],[],[],[],[],0.6282,1,663.6741,664.1741,,,,,,642,MAS,AGR,150,grupo,el,l,0.6282,,664.1741,664.1741,0.869444529,-0.138888889,0,0,0,,0,197,197,191,1,,,,
,,,,,,3e0baa979f527cd2c7273144,66a626ef09d4e21e1a8894ec,673649bedc1752bf5d5631f8,2024-11-14_20h10.38.921,Tarea de género gramatical,2024.2.2,Win32,59.52380952,,,,,,,,,,,,,,,,,,,,,,,664.1753,665.4564,l,1,[],[],[],[],[],[],[],0.6121,1,665.4566,665.9552,,,,,,492,MAS,AGR,150,show,el,l,0.6121,,665.9552,665.9553,0.869444529,-0.138888889,0,0,0,,0,198,198,41,1,,,,
,,,,,,3e0baa979f527cd2c7273144,66a626ef09d4e21e1a8894ec,673649bedc1752bf5d5631f8,2024-11-14_20h10.38.921,Tarea de género gramatical,2024.2.2,Win32,59.52380952,,,,,,,,,,,,,,,,,,,,,,,665.9565,667.3332,a,1,[],[],[],[],[],[],[],0.6965,1,667.3335,667.8372,,,,,,458,FEM,DIS,150,idea,el,a,0.6965,,667.8372,667.8373,0.869444529,-0.138888889,0,0,0,,0,199,199,7,1,,,,
,,,,,,3e0baa979f527cd2c7273144,66a626ef09d4e21e1a8894ec,673649bedc1752bf5d5631f8,2024-11-14_20h10.38.921,Tarea de género gramatical,2024.2.2,Win32,59.52380952,,,,,,,,,,,,,,,,,,,,,,,667.8382,669.1527,l,1,[],[],[],[],[],[],[],0.6328,1,669.1528,669.6528,,,,,,564,MAS,AGR,150,menú,el,l,0.6328,,669.6546,669.6562,0.869444529,-0.138888889,0,0,0,,0,200,200,113,1,,,,
,,,,,,3e0baa979f527cd2c7273144,66a626ef09d4e21e1a8894ec,673649bedc1752bf5d5631f8,2024-11-14_20h10.38.921,Tarea de género gramatical,2024.2.2,Win32,59.52380952,,,,,,,,,,,,,,,,,,,,,,,669.6573,671.0513,l,1,[],[],[],[],[],[],[],0.728,1,671.0514,671.5512,,,,,,610,MAS,CON,150,señor,,l,0.728,,671.5513,671.5514,0.869444529,-0.138888889,0,0,0,,0,201,201,159,1,,,,
,,,,,,3e0baa979f527cd2c7273144,66a626ef09d4e21e1a8894ec,673649bedc1752bf5d5631f8,2024-11-14_20h10.38.921,Tarea de género gramatical,2024.2.2,Win32,59.52380952,,,,,,,,,,,,,,,,,,,,,,,671.5531,672.9339,l,1,[],[],[],[],[],[],[],0.7003,1,672.9341,673.4285,,,,,,838,MAS,CON,150,empleo,,l,0.7003,,673.4286,673.4288,0.869444529,-0.138888889,0,0,0,,0,202,202,387,1,,,,
,,,,,,3e0baa979f527cd2c7273144,66a626ef09d4e21e1a8894ec,673649bedc1752bf5d5631f8,2024-11-14_20h10.38.921,Tarea de género gramatical,2024.2.2,Win32,59.52380952,,,,,,,,,,,,,,,,,,,,,,,673.4305,674.7765,l,1,[],[],[],[],[],[],[],0.6682,1,674.7769,675.2807,,,,,,851,MAS,DIS,150,abrigo,la,l,0.6682,,675.2808,675.281,0.869444529,-0.138888889,0,0,0,,0,203,203,400,1,,,,
,,,,,,3e0baa979f527cd2c7273144,66a626ef09d4e21e1a8894ec,673649bedc1752bf5d5631f8,2024-11-14_20h10.38.921,Tarea de género gramatical,2024.2.2,Win32,59.52380952,,,,,,,,,,,,,,,,,,,,,,,675.282,676.5417,l,1,[],[],[],[],[],[],[],0.5869,1,676.5418,677.046,,,,,,532,MAS,CON,150,tubo,,l,0.5869,,677.0471,677.048,0.869444529,-0.138888889,0,0,0,,0,204,204,81,1,,,,
,,,,,,3e0baa979f527cd2c7273144,66a626ef09d4e21e1a8894ec,673649bedc1752bf5d5631f8,2024-11-14_20h10.38.921,Tarea de género gramatical,2024.2.2,Win32,59.52380952,,,,,,,,,,,,,,,,,,,,,,,677.0486,678.646,l,1,[],[],[],[],[],[],[],0.9174,1,678.6462,679.1445,,,,,,485,MAS,DIS,150,taxi,la,l,0.9174,,679.1445,679.1448,0.869444529,-0.138888889,0,0,0,,0,205,205,34,1,,,,
,,,,,,3e0baa979f527cd2c7273144,66a626ef09d4e21e1a8894ec,673649bedc1752bf5d5631f8,2024-11-14_20h10.38.921,Tarea de género gramatical,2024.2.2,Win32,59.52380952,,,,,,,,,,,,,,,,,,,,,,,679.1461,680.5941,a,1,[],[],[],[],[],[],[],0.7676,1,680.5942,681.0883,,,,,,649,FEM,CON,150,nariz,,a,0.7676,,681.0884,681.0886,0.869444529,-0.138888889,0,0,0,,0,206,206,198,1,,,,
,,,,,,3e0baa979f527cd2c7273144,66a626ef09d4e21e1a8894ec,673649bedc1752bf5d5631f8,2024-11-14_20h10.38.921,Tarea de género gramatical,2024.2.2,Win32,59.52380952,,,,,,,,,,,,,,,,,,,,,,,681.0902,682.2204,a,1,[],[],[],[],[],[],[],0.468,1,682.2207,682.72,,,,,,644,FEM,DIS,150,banda,el,a,0.468,,682.7201,682.7203,0.869444529,-0.138888889,0,0,0,,0,207,207,193,1,,,,
,,,,,,3e0baa979f527cd2c7273144,66a626ef09d4e21e1a8894ec,673649bedc1752bf5d5631f8,2024-11-14_20h10.38.921,Tarea de género gramatical,2024.2.2,Win32,59.52380952,,,,,,,,,,,,,,,,,,,,,,,682.7229,684.2242,a,1,[],[],[],[],[],[],[],0.8347,1,684.2244,684.7228,,,,,,728,FEM,DIS,150,presa,el,a,0.8347,,684.7229,684.723,0.869444529,-0.138888889,0,0,0,,0,208,208,277,1,,,,
,,,,,,3e0baa979f527cd2c7273144,66a626ef09d4e21e1a8894ec,673649bedc1752bf5d5631f8,2024-11-14_20h10.38.921,Tarea de género gramatical,2024.2.2,Win32,59.52380952,,,,,,,,,,,,,,,,,,,,,,,684.7248,685.9055,a,1,[],[],[],[],[],[],[],0.5162,1,685.9056,686.4012,,,,,,668,FEM,DIS,150,nieve,el,a,0.5162,,686.4027,686.404,0.869444529,-0.138888889,0,0,0,,0,209,209,217,1,,,,
,,,,,,3e0baa979f527cd2c7273144,66a626ef09d4e21e1a8894ec,673649bedc1752bf5d5631f8,2024-11-14_20h10.38.921,Tarea de género gramatical,2024.2.2,Win32,59.52380952,,,,,,,,,,,,,,,,,,,,,,,686.4049,687.5202,a,1,[],[],[],[],[],[],[],0.4345,1,687.5203,688.0195,,,,,,771,FEM,AGR,150,comida,la,a,0.4345,,688.0196,688.0197,0.869444529,-0.138888889,0,0,0,,0,210,210,320,1,,,,
,,,,,,3e0baa979f527cd2c7273144,66a626ef09d4e21e1a8894ec,673649bedc1752bf5d5631f8,2024-11-14_20h10.38.921,Tarea de género gramatical,2024.2.2,Win32,59.52380952,,,,,,,,,,,,,,,,,,,,,,,688.0208,689.2021,a,1,[],[],[],[],[],[],[],0.5114,1,689.2022,689.7017,,,,,,817,FEM,CON,150,teoría,,a,0.5114,,689.7018,689.7019,0.869444529,-0.138888889,0,0,0,,0,211,211,366,1,,,,
,,,,,,3e0baa979f527cd2c7273144,66a626ef09d4e21e1a8894ec,673649bedc1752bf5d5631f8,2024-11-14_20h10.38.921,Tarea de género gramatical,2024.2.2,Win32,59.52380952,,,,,,,,,,,,,,,,,,,,,,,689.7036,691.2457,a,0,[],[],[],[],[],[],[],0.8727,0,691.2472,691.7474,,,,,,533,MAS,DIS,150,nene,la,l,0.8727,,691.7474,691.7476,0.869444529,-0.138888889,0,0,0,,0,212,212,82,1,,,,
,,,,,,3e0baa979f527cd2c7273144,66a626ef09d4e21e1a8894ec,673649bedc1752bf5d5631f8,2024-11-14_20h10.38.921,Tarea de género gramatical,2024.2.2,Win32,59.52380952,,,,,,,,,,,,,,,,,,,,,,,691.7491,693.8265,a,1,[],[],[],[],[],[],[],1.398,1,693.8283,694.3294,,,,,,841,FEM,CON,150,altura,,a,1.398,,694.3309,694.333,0.869444529,-0.138888889,0,0,0,,0,213,213,390,1,,,,
,,,,,,3e0baa979f527cd2c7273144,66a626ef09d4e21e1a8894ec,673649bedc1752bf5d5631f8,2024-11-14_20h10.38.921,Tarea de género gramatical,2024.2.2,Win32,59.52380952,,,,,,,,,,,,,,,,,,,,,,,694.3344,695.5297,a,1,[],[],[],[],[],[],[],0.5187,1,695.5298,696.0298,,,,,,621,FEM,AGR,150,mitad,la,a,0.5187,,696.0298,696.0299,0.869444529,-0.138888889,0,0,0,,0,214,214,170,1,,,,
,,,,,,3e0baa979f527cd2c7273144,66a626ef09d4e21e1a8894ec,673649bedc1752bf5d5631f8,2024-11-14_20h10.38.921,Tarea de género gramatical,2024.2.2,Win32,59.52380952,,,,,,,,,,,,,,,,,,,,,,,696.0317,697.3927,l,1,[],[],[],[],[],[],[],0.6934,1,697.3929,697.8897,,,,,,582,MAS,AGR,150,velo,el,l,0.6934,,697.8898,697.89,0.869444529,-0.138888889,0,0,0,,0,215,215,131,1,,,,
,,,,,,3e0baa979f527cd2c7273144,66a626ef09d4e21e1a8894ec,673649bedc1752bf5d5631f8,2024-11-14_20h10.38.921,Tarea de género gramatical,2024.2.2,Win32,59.52380952,,,,,,,,,,,,,,,,,,,,,,,697.8917,699.0555,l,1,[],[],[],[],[],[],[],0.4896,1,699.0557,699.5548,,,,,,520,MAS,CON,150,palo,,l,0.4896,,699.555,699.5552,0.869444529,-0.138888889,0,0,0,,0,216,216,69,1,,,,
,,,,,,3e0baa979f527cd2c7273144,66a626ef09d4e21e1a8894ec,673649bedc1752bf5d5631f8,2024-11-14_20h10.38.921,Tarea de género gramatical,2024.2.2,Win32,59.52380952,,,,,,,,,,,,,,,,,,,,,,,699.5567,700.837,a,1,[],[],[],[],[],[],[],0.6055,1,700.8373,701.3414,,,,,,637,FEM,CON,150,lista,,a,0.6055,,701.3414,701.3416,0.869444529,-0.138888889,0,0,0,,0,217,217,186,1,,,,
,,,,,,3e0baa979f527cd2c7273144,66a626ef09d4e21e1a8894ec,673649bedc1752bf5d5631f8,2024-11-14_20h10.38.921,Tarea de género gramatical,2024.2.2,Win32,59.52380952,,,,,,,,,,,,,,,,,,,,,,,701.3431,702.4914,a,1,[],[],[],[],[],[],[],0.4673,1,702.4916,702.9899,,,,,,487,FEM,CON,150,sala,,a,0.4673,,702.9919,702.9936,0.869444529,-0.138888889,0,0,0,,0,218,218,36,1,,,,
,,,,,,3e0baa979f527cd2c7273144,66a626ef09d4e21e1a8894ec,673649bedc1752bf5d5631f8,2024-11-14_20h10.38.921,Tarea de género gramatical,2024.2.2,Win32,59.52380952,,,,,,,,,,,,,,,,,,,,,,,702.9948,704.2846,a,1,[],[],[],[],[],[],[],0.6177,1,704.285,704.7881,,,,,,883,FEM,CON,150,huella,,a,0.6177,,704.7882,704.7886,0.869444529,-0.138888889,0,0,0,,0,219,219,432,1,,,,
,,,,,,3e0baa979f527cd2c7273144,66a626ef09d4e21e1a8894ec,673649bedc1752bf5d5631f8,2024-11-14_20h10.38.921,Tarea de género gramatical,2024.2.2,Win32,59.52380952,,,,,,,,,,,,,,,,,,,,,,,704.7903,705.9555,a,1,[],[],[],[],[],[],[],0.4961,1,705.9557,706.4491,,,,,,495,FEM,AGR,150,isla,la,a,0.4961,,706.4493,706.4496,0.869444529,-0.138888889,0,0,0,,0,220,220,44,1,,,,
,,,,,,3e0baa979f527cd2c7273144,66a626ef09d4e21e1a8894ec,673649bedc1752bf5d5631f8,2024-11-14_20h10.38.921,Tarea de género gramatical,2024.2.2,Win32,59.52380952,,,,,,,,,,,,,,,,,,,,,,,706.4512,707.6149,a,1,[],[],[],[],[],[],[],0.4905,1,707.6152,708.1195,,,,,,793,FEM,CON,150,trampa,,a,0.4905,,708.1197,708.1198,0.869444529,-0.138888889,0,0,0,,0,221,221,342,1,,,,
,,,,,,3e0baa979f527cd2c7273144,66a626ef09d4e21e1a8894ec,673649bedc1752bf5d5631f8,2024-11-14_20h10.38.921,Tarea de género gramatical,2024.2.2,Win32,59.52380952,,,,,,,,,,,,,,,,,,,,,,,708.1218,709.3519,a,1,[],[],[],[],[],[],[],0.5505,1,709.352,709.851,,,,,,890,FEM,DIS,150,patada,el,a,0.5505,,709.8523,709.8537,0.869444529,-0.138888889,0,0,0,,0,222,222,439,1,,,,
,,,,,,3e0baa979f527cd2c7273144,66a626ef09d4e21e1a8894ec,673649bedc1752bf5d5631f8,2024-11-14_20h10.38.921,Tarea de género gramatical,2024.2.2,Win32,59.52380952,,,,,,,,,,,,,,,,,,,,,,,709.8546,711.333,l,1,[],[],[],[],[],[],[],0.7995,1,711.3331,711.8323,,,,,,672,MAS,AGR,150,valor,el,l,0.7995,,711.8323,711.8324,0.869444529,-0.138888889,0,0,0,,0,223,223,221,1,,,,
,,,,,,3e0baa979f527cd2c7273144,66a626ef09d4e21e1a8894ec,673649bedc1752bf5d5631f8,2024-11-14_20h10.38.921,Tarea de género gramatical,2024.2.2,Win32,59.52380952,,,,,,,,,,,,,,,,,,,,,,,711.8333,713.0325,l,1,[],[],[],[],[],[],[],0.5169,1,713.0326,713.5264,,,,,,526,MAS,CON,150,lujo,,l,0.5169,,713.5265,713.5268,0.869444529,-0.138888889,0,0,0,,0,224,224,75,1,,,,
,,,,,,3e0baa979f527cd2c7273144,66a626ef09d4e21e1a8894ec,673649bedc1752bf5d5631f8,2024-11-14_20h10.38.921,Tarea de género gramatical,2024.2.2,Win32,59.52380952,,,,,,,,,,,,,,,,,,,,,,,713.5287,714.8638,l,1,[],[],[],[],[],[],[],0.6505,1,714.8639,715.3579,,,,,,665,MAS,DIS,150,hueso,la,l,0.6505,,715.3581,715.3583,0.869444529,-0.138888889,0,0,0,,0,225,225,214,1,,,,
,,,,,,3e0baa979f527cd2c7273144,66a626ef09d4e21e1a8894ec,673649bedc1752bf5d5631f8,2024-11-14_20h10.38.921,Tarea de género gramatical,2024.2.2,Win32,59.52380952,,,,,,,,,,,,,,,,,,,,,,,715.3594,716.7732,a,1,[],[],[],[],[],[],[],0.7233,1,716.7736,717.262,,,,,,769,FEM,CON,150,sangre,,a,0.7233,,717.2621,717.2622,0.869444529,-0.138888889,0,0,0,,0,226,226,318,1,,,,
,,,,,,3e0baa979f527cd2c7273144,66a626ef09d4e21e1a8894ec,673649bedc1752bf5d5631f8,2024-11-14_20h10.38.921,Tarea de género gramatical,2024.2.2,Win32,59.52380952,,,,,,,,,,,,,,,,,,,,,,,717.2634,718.5053,l,1,[],[],[],[],[],[],[],0.5566,1,718.5055,719.0049,,,,,,496,MAS,CON,150,odio,,l,0.5566,,719.0072,719.0089,0.869444529,-0.138888889,0,0,0,,0,227,227,45,1,,,,
,,,,,,3e0baa979f527cd2c7273144,66a626ef09d4e21e1a8894ec,673649bedc1752bf5d5631f8,2024-11-14_20h10.38.921,Tarea de género gramatical,2024.2.2,Win32,59.52380952,,,,,,,,,,,,,,,,,,,,,,,719.0102,720.5206,l,1,[],[],[],[],[],[],[],0.8234,1,720.5214,721.0249,,,,,,737,MAS,DIS,150,plato,la,l,0.8234,,721.025,721.0252,0.869444529,-0.138888889,0,0,0,,0,228,228,286,1,,,,
,,,,,,3e0baa979f527cd2c7273144,66a626ef09d4e21e1a8894ec,673649bedc1752bf5d5631f8,2024-11-14_20h10.38.921,Tarea de género gramatical,2024.2.2,Win32,59.52380952,,,,,,,,,,,,,,,,,,,,,,,721.0266,722.5242,l,1,[],[],[],[],[],[],[],0.8172,1,722.5243,723.023,,,,,,478,MAS,CON,150,club,,l,0.8172,,723.023,723.0232,0.869444529,-0.138888889,0,0,0,,0,229,229,27,1,,,,
,,,,,,3e0baa979f527cd2c7273144,66a626ef09d4e21e1a8894ec,673649bedc1752bf5d5631f8,2024-11-14_20h10.38.921,Tarea de género gramatical,2024.2.2,Win32,59.52380952,,,,,,,,,,,,,,,,,,,,,,,723.0248,724.4551,l,0,[],[],[],[],[],[],[],0.751,0,724.4564,724.9545,,,,,,705,FEM,AGR,150,tribu,la,a,0.751,,724.9546,724.9547,0.869444529,-0.138888889,0,0,0,,0,230,230,254,1,,,,
,,,,,,3e0baa979f527cd2c7273144,66a626ef09d4e21e1a8894ec,673649bedc1752bf5d5631f8,2024-11-14_20h10.38.921,Tarea de género gramatical,2024.2.2,Win32,59.52380952,,,,,,,,,,,,,,,,,,,,,,,724.9562,726.4358,l,1,[],[],[],[],[],[],[],0.8113,1,726.4366,726.9362,,,,,,814,MAS,CON,150,viento,,l,0.8113,,726.9383,726.9402,0.869444529,-0.138888889,0,0,0,,0,231,231,363,1,,,,
,,,,,,3e0baa979f527cd2c7273144,66a626ef09d4e21e1a8894ec,673649bedc1752bf5d5631f8,2024-11-14_20h10.38.921,Tarea de género gramatical,2024.2.2,Win32,59.52380952,,,,,,,,,,,,,,,,,,,,,,,726.9413,728.1799,l,0,[],[],[],[],[],[],[],0.5695,0,728.1816,728.6797,,,,,,554,FEM,DIS,150,vela,el,a,0.5695,,728.6799,728.6803,0.869444529,-0.138888889,0,0,0,,0,232,232,103,1,,,,
,,,,,,3e0baa979f527cd2c7273144,66a626ef09d4e21e1a8894ec,673649bedc1752bf5d5631f8,2024-11-14_20h10.38.921,Tarea de género gramatical,2024.2.2,Win32,59.52380952,,,,,,,,,,,,,,,,,,,,,,,728.6823,730.001,a,1,[],[],[],[],[],[],[],0.6502,1,730.0022,730.4995,,,,,,889,FEM,CON,150,toalla,,a,0.6502,,730.4995,730.4996,0.869444529,-0.138888889,0,0,0,,0,233,233,438,1,,,,
,,,,,,3e0baa979f527cd2c7273144,66a626ef09d4e21e1a8894ec,673649bedc1752bf5d5631f8,2024-11-14_20h10.38.921,Tarea de género gramatical,2024.2.2,Win32,59.52380952,,,,,,,,,,,,,,,,,,,,,,,730.501,732.1429,a,1,[],[],[],[],[],[],[],0.9592,1,732.1432,732.6317,,,,,,734,FEM,DIS,150,fruta,el,a,0.9592,,732.6318,732.6321,0.869444529,-0.138888889,0,0,0,,0,234,234,283,1,,,,
,,,,,,3e0baa979f527cd2c7273144,66a626ef09d4e21e1a8894ec,673649bedc1752bf5d5631f8,2024-11-14_20h10.38.921,Tarea de género gramatical,2024.2.2,Win32,59.52380952,,,,,,,,,,,,,,,,,,,,,,,732.6339,733.9251,a,1,[],[],[],[],[],[],[],0.6054,1,733.9254,734.4272,,,,,,799,FEM,CON,150,prensa,,a,0.6054,,734.4272,734.4275,0.869444529,-0.138888889,0,0,0,,0,235,235,348,1,,,,
,,,,,,3e0baa979f527cd2c7273144,66a626ef09d4e21e1a8894ec,673649bedc1752bf5d5631f8,2024-11-14_20h10.38.921,Tarea de género gramatical,2024.2.2,Win32,59.52380952,,,,,,,,,,,,,,,,,,,,,,,734.4293,735.5792,a,1,[],[],[],[],[],[],[],0.4669,1,735.5793,736.0781,,,,,,579,FEM,AGR,150,rana,la,a,0.4669,,736.08,736.0825,0.869444529,-0.138888889,0,0,0,,0,236,236,128,1,,,,
,,,,,,3e0baa979f527cd2c7273144,66a626ef09d4e21e1a8894ec,673649bedc1752bf5d5631f8,2024-11-14_20h10.38.921,Tarea de género gramatical,2024.2.2,Win32,59.52380952,,,,,,,,,,,,,,,,,,,,,,,736.0837,737.3719,l,1,[],[],[],[],[],[],[],0.6107,1,737.3723,737.8602,,,,,,690,MAS,AGR,150,ruido,el,l,0.6107,,737.8604,737.8606,0.869444529,-0.138888889,0,0,0,,0,237,237,239,1,,,,
,,,,,,3e0baa979f527cd2c7273144,66a626ef09d4e21e1a8894ec,673649bedc1752bf5d5631f8,2024-11-14_20h10.38.921,Tarea de género gramatical,2024.2.2,Win32,59.52380952,,,,,,,,,,,,,,,,,,,,,,,737.8627,740.0591,a,1,[],[],[],[],[],[],[],1.5166,1,740.0591,740.5575,,,,,,578,FEM,DIS,150,leña,el,a,1.5166,,740.5575,740.5577,0.869444529,-0.138888889,0,0,0,,0,238,238,127,1,,,,
,,,,,,3e0baa979f527cd2c7273144,66a626ef09d4e21e1a8894ec,673649bedc1752bf5d5631f8,2024-11-14_20h10.38.921,Tarea de género gramatical,2024.2.2,Win32,59.52380952,,,,,,,,,,,,,,,,,,,,,,,740.5592,741.9407,l,1,[],[],[],[],[],[],[],0.7112,1,741.9408,742.4398,,,,,,588,MAS,AGR,150,luto,el,l,0.7112,,742.4401,742.4404,0.869444529,-0.138888889,0,0,0,,0,239,239,137,1,,,,
,,,,,,3e0baa979f527cd2c7273144,66a626ef09d4e21e1a8894ec,673649bedc1752bf5d5631f8,2024-11-14_20h10.38.921,Tarea de género gramatical,2024.2.2,Win32,59.52380952,,,,,,,,,,,,,,,,,,,,,,,742.4422,743.7833,l,1,[],[],[],[],[],[],[],0.6653,1,743.7836,744.2877,,,,,,454,MAS,CON,150,hijo,,l,0.6653,,744.2896,744.2911,0.869444529,-0.138888889,0,0,0,,0,240,240,3,1,,,,
,,,,,,3e0baa979f527cd2c7273144,66a626ef09d4e21e1a8894ec,673649bedc1752bf5d5631f8,2024-11-14_20h10.38.921,Tarea de género gramatical,2024.2.2,Win32,59.52380952,,,,,,,,,,,,,,,,,,,,,,,744.2922,745.4707,a,1,[],[],[],[],[],[],[],0.5001,1,745.4708,745.9696,,,,,,465,FEM,AGR,150,cama,la,a,0.5001,,745.9697,745.9699,0.869444529,-0.138888889,0,0,0,,0,241,241,14,1,,,,
,,,,,,3e0baa979f527cd2c7273144,66a626ef09d4e21e1a8894ec,673649bedc1752bf5d5631f8,2024-11-14_20h10.38.921,Tarea de género gramatical,2024.2.2,Win32,59.52380952,,,,,,,,,,,,,,,,,,,,,,,745.9718,747.4023,l,1,[],[],[],[],[],[],[],0.7506,1,747.4025,747.9013,,,,,,766,MAS,CON,150,cuerpo,,l,0.7506,,747.9013,747.9015,0.869444529,-0.138888889,0,0,0,,0,242,242,315,1,,,,
,,,,,,3e0baa979f527cd2c7273144,66a626ef09d4e21e1a8894ec,673649bedc1752bf5d5631f8,2024-11-14_20h10.38.921,Tarea de género gramatical,2024.2.2,Win32,59.52380952,,,,,,,,,,,,,,,,,,,,,,,747.9033,749.0848,a,1,[],[],[],[],[],[],[],0.5031,1,749.085,749.5787,,,,,,471,FEM,AGR,150,boca,la,a,0.5031,,749.5788,749.5793,0.869444529,-0.138888889,0,0,0,,0,243,243,20,1,,,,
,,,,,,3e0baa979f527cd2c7273144,66a626ef09d4e21e1a8894ec,673649bedc1752bf5d5631f8,2024-11-14_20h10.38.921,Tarea de género gramatical,2024.2.2,Win32,59.52380952,,,,,,,,,,,,,,,,,,,,,,,749.5809,750.7767,l,1,[],[],[],[],[],[],[],0.5299,1,750.7769,751.2763,,,,,,611,MAS,DIS,150,chico,la,l,0.5299,,751.2764,751.2768,0.869444529,-0.138888889,0,0,0,,0,244,244,160,1,,,,
,,,,,,3e0baa979f527cd2c7273144,66a626ef09d4e21e1a8894ec,673649bedc1752bf5d5631f8,2024-11-14_20h10.38.921,Tarea de género gramatical,2024.2.2,Win32,59.52380952,,,,,,,,,,,,,,,,,,,,,,,751.2783,752.464,a,1,[],[],[],[],[],[],[],0.5273,1,752.4642,752.9635,,,,,,627,FEM,AGR,150,broma,la,a,0.5273,,752.9652,752.9669,0.869444529,-0.138888889,0,0,0,,0,245,245,176,1,,,,
,,,,,,3e0baa979f527cd2c7273144,66a626ef09d4e21e1a8894ec,673649bedc1752bf5d5631f8,2024-11-14_20h10.38.921,Tarea de género gramatical,2024.2.2,Win32,59.52380952,,,,,,,,,,,,,,,,,,,,,,,752.9679,754.1129,a,1,[],[],[],[],[],[],[],0.4774,1,754.1131,754.6126,,,,,,453,FEM,AGR,150,cosa,la,a,0.4774,,754.6128,754.6129,0.869444529,-0.138888889,0,0,0,,0,246,246,2,1,,,,
,,,,,,3e0baa979f527cd2c7273144,66a626ef09d4e21e1a8894ec,673649bedc1752bf5d5631f8,2024-11-14_20h10.38.921,Tarea de género gramatical,2024.2.2,Win32,59.52380952,,,,,,,,,,,,,,,,,,,,,,,754.6143,755.8752,a,1,[],[],[],[],[],[],[],0.5819,1,755.8754,756.3779,,,,,,613,FEM,CON,150,calle,,a,0.5819,,756.378,756.3781,0.869444529,-0.138888889,0,0,0,,0,247,247,162,1,,,,
,,,,,,3e0baa979f527cd2c7273144,66a626ef09d4e21e1a8894ec,673649bedc1752bf5d5631f8,2024-11-14_20h10.38.921,Tarea de género gramatical,2024.2.2,Win32,59.52380952,,,,,,,,,,,,,,,,,,,,,,,756.3793,757.5255,l,1,[],[],[],[],[],[],[],0.4769,1,757.5257,758.0249,,,,,,522,MAS,AGR,150,hoyo,el,l,0.4769,,758.025,758.025,0.869444529,-0.138888889,0,0,0,,0,248,248,71,1,,,,
,,,,,,3e0baa979f527cd2c7273144,66a626ef09d4e21e1a8894ec,673649bedc1752bf5d5631f8,2024-11-14_20h10.38.921,Tarea de género gramatical,2024.2.2,Win32,59.52380952,,,,,,,,,,,,,,,,,,,,,,,758.0261,759.3749,l,1,[],[],[],[],[],[],[],0.6793,1,759.3751,759.8694,,,,,,634,MAS,CON,150,cielo,,l,0.6793,,759.8715,759.8735,0.869444529,-0.138888889,0,0,0,,0,249,249,183,1,,,,
,,,,,,3e0baa979f527cd2c7273144,66a626ef09d4e21e1a8894ec,673649bedc1752bf5d5631f8,2024-11-14_20h10.38.921,Tarea de género gramatical,2024.2.2,Win32,59.52380952,,,,,,,,,,,,,,,,,,,,,,,759.8751,761.241,l,1,[],[],[],[],[],[],[],0.6955,1,761.2412,761.7343,,,,,,821,MAS,DIS,150,sonido,la,l,0.6955,,761.7345,761.7347,0.869444529,-0.138888889,0,0,0,,0,250,250,370,1,,,,
,,,,,,3e0baa979f527cd2c7273144,66a626ef09d4e21e1a8894ec,673649bedc1752bf5d5631f8,2024-11-14_20h10.38.921,Tarea de género gramatical,2024.2.2,Win32,59.52380952,,,,,,,,,,,,,,,,,,,,,,,761.7362,762.8892,a,1,[],[],[],[],[],[],[],0.4671,1,762.8895,763.3887,,,,,,854,FEM,DIS,150,gloria,el,a,0.4671,,763.3888,763.3889,0.869444529,-0.138888889,0,0,0,,0,251,251,403,1,,,,
