counterbalancing_condition,consent_prescreening.block_1/declare_consent,consent_prescreening.block_1/age_years,consent_prescreening.block_1/gender,consent_prescreening.block_1/language_disorder,consent_prescreening.block_1/first_language,PROLIFIC_PID,STUDY_ID,SESSION_ID,date,expName,psychopyVersion,OS,frameRate,check_prescreening_answers.started,check_prescreening_answers.stopped,Instructions.started,Instructions.stopped,instr_done_keyboard.keys,instr_done_touch.x,instr_done_touch.y,instr_done_touch.leftButton,instr_done_touch.midButton,instr_done_touch.rightButton,instr_done_touch.clicked_name,instruction_pages.thisRepN,instruction_pages.thisTrialN,instruction_pages.thisN,instruction_pages.thisIndex,instruction_pages.ran,pageN,phase,instruct_text,has_image,instruct_image,instr_done_keyboard.rt,instr_done_keyboard.duration,presentTrial.started,presentTrial.stopped,response.keys,response.corr,response.rt,response.duration,touch_resp.x,touch_resp.y,touch_resp.leftButton,touch_resp.midButton,touch_resp.rightButton,touch_resp.time,touch_resp.clicked_name,rt,corr,feedback.started,feedback.stopped,practice_trials.thisRepN,practice_trials.thisTrialN,practice_trials.thisN,practice_trials.thisIndex,practice_trials.ran,TrialID,StimulusType,Condition,PrimeDuration,Prime,Flanker,corrAns,Break.started,Break.stopped,break_done_touch.x,break_done_touch.y,break_done_touch.leftButton,break_done_touch.midButton,break_done_touch.rightButton,break_done_keyboard.keys,experiment_trials.thisRepN,experiment_trials.thisTrialN,experiment_trials.thisN,experiment_trials.thisIndex,experiment_trials.ran,break_done_keyboard.rt,break_done_keyboard.duration,End.started,End.stopped
2,"[""over_18"",""comfortable"",""read_info"",""consent_given""]",25,M,"[""none""]","[""spanish""]",3ff55828764a9275dbfbd477,66a626ef09d4e21e1a8894ec,67371d31411e2f8be82c0f24,2024-11-15_07h07.54.882,Tarea de género gramatical,2024.2.2,Win32,71.94244604,,,,,,,,,,,,,,,,,,,,,,,,,,,,,,,,,,,,,,,,,,,,,,,,,,,,,,,,,,,,,,,,,,,,,
,,,,,,3ff55828764a9275dbfbd477,66a626ef09d4e21e1a8894ec,67371d31411e2f8be82c0f24,2024-11-15_07h07.54.882,Tarea de género gramatical,2024.2.2,Win32,71.94244604,148.327,148.327,,,,,,,,,,,,,,,,,,,,,,,,,,,,,,,,,,,,,,,,,,,,,,,,,,,,,,,,,,,,,,,,,,,
,,,,,,3ff55828764a9275dbfbd477,66a626ef09d4e21e1a8894ec,67371d31411e2f8be82c0f24,2024-11-15_07h07.54.882,Tarea de género gramatical,2024.2.2,Win32,71.94244604,,,148.37,156.803,,-0.016203704,-0.372685185,1,0,0,instr_done_button,0,0,0,0,1,1,instructions,"INSTRUCCIONES
Va a realizar una prueba de selección gramatical. Desde el comienzo de la prueba mire siempre al centro de la pantalla. Al cabo de un momento, aparecerán palabras. La tarea consiste en determinar si la palabra del centro (siempre será un sustantivo), pertenece al género masculino o femenino.

Pulse la tecla ESPACIO o toque el botón de abajo para continuar.",0,keyboardresponseFM.png,,,,,,,,,,,,,,,,,,,,,,,,,,,,,,,,,,,,,,,,,,,,,,,,
,,,,,,3ff55828764a9275dbfbd477,66a626ef09d4e21e1a8894ec,67371d31411e2f8be82c0f24,2024-11-15_07h07.54.882,Tarea de género gramatical,2024.2.2,Win32,71.94244604,,,156.847,167.665,space,-0.016203704,-0.372685185,0,0,0,,0,1,1,1,1,2,instructions,"Si su dispositivo tiene teclado, pulse la tecla ""A"" para las palabras en femenino (por ejemplo: ""mano"") y la tecla ""L"" para las palabras en masculino(por ejemplo: ""arroz"").
Pulse la tecla ESPACIO o toque el botón de abajo para continuar.",1,keyboardresponseFM.png,10.643,,,,,,,,,,,,,,,,,,,,,,,,,,,,,,,,,,,,,,,,,,,,,,,
,,,,,,3ff55828764a9275dbfbd477,66a626ef09d4e21e1a8894ec,67371d31411e2f8be82c0f24,2024-11-15_07h07.54.882,Tarea de género gramatical,2024.2.2,Win32,71.94244604,,,167.679,172.498,space,-0.016203704,-0.372685185,0,0,0,,0,2,2,2,1,3,instructions,"Si utiliza un dispositivo sólo táctil, colóquelo en horizontal y utilice los botones de la pantalla. No utilice el ratón.
Pulse la tecla ESPACIO o toque el botón de abajo para continuar.",2,touchresponseFM.png,4.671,,,,,,,,,,,,,,,,,,,,,,,,,,,,,,,,,,,,,,,,,,,,,,,
,,,,,,3ff55828764a9275dbfbd477,66a626ef09d4e21e1a8894ec,67371d31411e2f8be82c0f24,2024-11-15_07h07.54.882,Tarea de género gramatical,2024.2.2,Win32,71.94244604,,,172.506,188.136,space,-0.016203704,-0.372685185,0,0,0,,0,3,3,3,1,4,instructions,"Es muy importante que responda con la mayor rapidez y precisión posibles, ya que cada cadena de letras sólo estará en pantalla durante un instante. Si no responde en ese tiempo, aparecerá el mensaje ""Muy lento"" y el experimento pasará a la siguiente palabra. Los primeros 15 intentos serán de práctica y habrá dos descansos durante la prueba.
Pulse la tecla ESPACIO o toque el botón de abajo para iniciar la parte de práctica.",0,keyboardresponseFM.png,15.586,,,,,,,,,,,,,,,,,,,,,,,,,,,,,,,,,,,,,,,,,,,,,,,
,,,,,,3ff55828764a9275dbfbd477,66a626ef09d4e21e1a8894ec,67371d31411e2f8be82c0f24,2024-11-15_07h07.54.882,Tarea de género gramatical,2024.2.2,Win32,71.94244604,,,,,,,,,,,,,,,,,,,,,,,,188.205,189.532,a,0,0.66,,[],[],[],[],[],[],[],0.66,0,189.534,190.031,0,0,0,14,1,2015,MAS,DIS,150,robot,la,l,,,,,,,,,,,,,,,,,
,,,,,,3ff55828764a9275dbfbd477,66a626ef09d4e21e1a8894ec,67371d31411e2f8be82c0f24,2024-11-15_07h07.54.882,Tarea de género gramatical,2024.2.2,Win32,71.94244604,,,,,,,,,,,,,,,,,,,,,,,,190.034,191.428,a,0,0.724,,[],[],[],[],[],[],[],0.724,0,191.429,191.926,0,1,1,10,1,2011,MAS,CON,150,canal,,l,,,,,,,,,,,,,,,,,
,,,,,,3ff55828764a9275dbfbd477,66a626ef09d4e21e1a8894ec,67371d31411e2f8be82c0f24,2024-11-15_07h07.54.882,Tarea de género gramatical,2024.2.2,Win32,71.94244604,,,,,,,,,,,,,,,,,,,,,,,,191.93,193.518,a,1,0.917,,[],[],[],[],[],[],[],0.917,1,193.521,194.017,0,2,2,4,1,2005,FEM,CON,150,placa,,a,,,,,,,,,,,,,,,,,
,,,,,,3ff55828764a9275dbfbd477,66a626ef09d4e21e1a8894ec,67371d31411e2f8be82c0f24,2024-11-15_07h07.54.882,Tarea de género gramatical,2024.2.2,Win32,71.94244604,,,,,,,,,,,,,,,,,,,,,,,,194.02,195.287,a,1,0.604,,[],[],[],[],[],[],[],0.604,1,195.287,195.787,0,3,3,3,1,2004,FEM,AGR,150,venta,la,a,,,,,,,,,,,,,,,,,
,,,,,,3ff55828764a9275dbfbd477,66a626ef09d4e21e1a8894ec,67371d31411e2f8be82c0f24,2024-11-15_07h07.54.882,Tarea de género gramatical,2024.2.2,Win32,71.94244604,,,,,,,,,,,,,,,,,,,,,,,,195.79,197.072,a,1,0.611,,[],[],[],[],[],[],[],0.611,1,197.073,197.564,0,4,4,1,1,2002,FEM,CON,150,pala,,a,,,,,,,,,,,,,,,,,
,,,,,,3ff55828764a9275dbfbd477,66a626ef09d4e21e1a8894ec,67371d31411e2f8be82c0f24,2024-11-15_07h07.54.882,Tarea de género gramatical,2024.2.2,Win32,71.94244604,,,,,,,,,,,,,,,,,,,,,,,,197.567,199.06,a,1,0.825,,[],[],[],[],[],[],[],0.825,1,199.064,199.564,0,5,5,2,1,2003,FEM,DIS,150,daga,el,a,,,,,,,,,,,,,,,,,
,,,,,,3ff55828764a9275dbfbd477,66a626ef09d4e21e1a8894ec,67371d31411e2f8be82c0f24,2024-11-15_07h07.54.882,Tarea de género gramatical,2024.2.2,Win32,71.94244604,,,,,,,,,,,,,,,,,,,,,,,,199.572,200.873,l,1,0.634,,[],[],[],[],[],[],[],0.634,1,200.874,201.377,0,6,6,8,1,2009,MAS,DIS,150,puerto,la,l,,,,,,,,,,,,,,,,,
,,,,,,3ff55828764a9275dbfbd477,66a626ef09d4e21e1a8894ec,67371d31411e2f8be82c0f24,2024-11-15_07h07.54.882,Tarea de género gramatical,2024.2.2,Win32,71.94244604,,,,,,,,,,,,,,,,,,,,,,,,201.382,202.531,a,0,0.479,,[],[],[],[],[],[],[],0.479,0,202.535,203.03,0,7,7,11,1,2012,MAS,DIS,150,clima,la,l,,,,,,,,,,,,,,,,,
,,,,,,3ff55828764a9275dbfbd477,66a626ef09d4e21e1a8894ec,67371d31411e2f8be82c0f24,2024-11-15_07h07.54.882,Tarea de género gramatical,2024.2.2,Win32,71.94244604,,,,,,,,,,,,,,,,,,,,,,,,203.034,204.295,a,1,0.598,,[],[],[],[],[],[],[],0.598,1,204.298,204.794,0,8,8,0,1,2001,FEM,AGR,150,nuca,la,a,,,,,,,,,,,,,,,,,
,,,,,,3ff55828764a9275dbfbd477,66a626ef09d4e21e1a8894ec,67371d31411e2f8be82c0f24,2024-11-15_07h07.54.882,Tarea de género gramatical,2024.2.2,Win32,71.94244604,,,,,,,,,,,,,,,,,,,,,,,,204.798,206.115,l,0,0.655,,[],[],[],[],[],[],[],0.655,0,206.118,206.607,0,9,9,5,1,2006,FEM,DIS,150,serie,el,a,,,,,,,,,,,,,,,,,
,,,,,,3ff55828764a9275dbfbd477,66a626ef09d4e21e1a8894ec,67371d31411e2f8be82c0f24,2024-11-15_07h07.54.882,Tarea de género gramatical,2024.2.2,Win32,71.94244604,,,,,,,,,,,,,,,,,,,,,,,,206.61,207.974,l,1,0.703,,[],[],[],[],[],[],[],0.703,1,207.979,208.478,0,10,10,12,1,2013,MAS,AGR,150,acero,el,l,,,,,,,,,,,,,,,,,
,,,,,,3ff55828764a9275dbfbd477,66a626ef09d4e21e1a8894ec,67371d31411e2f8be82c0f24,2024-11-15_07h07.54.882,Tarea de género gramatical,2024.2.2,Win32,71.94244604,,,,,,,,,,,,,,,,,,,,,,,,208.481,210.153,a,0,1.006,,[],[],[],[],[],[],[],1.006,0,210.156,210.647,0,11,11,13,1,2014,MAS,CON,150,siglo,,l,,,,,,,,,,,,,,,,,
,,,,,,3ff55828764a9275dbfbd477,66a626ef09d4e21e1a8894ec,67371d31411e2f8be82c0f24,2024-11-15_07h07.54.882,Tarea de género gramatical,2024.2.2,Win32,71.94244604,,,,,,,,,,,,,,,,,,,,,,,,210.65,212.697,a,1,1.376,,[],[],[],[],[],[],[],1.376,1,212.699,213.188,0,12,12,6,1,2007,FEM,AGR,150,navaja,la,a,,,,,,,,,,,,,,,,,
,,,,,,3ff55828764a9275dbfbd477,66a626ef09d4e21e1a8894ec,67371d31411e2f8be82c0f24,2024-11-15_07h07.54.882,Tarea de género gramatical,2024.2.2,Win32,71.94244604,,,,,,,,,,,,,,,,,,,,,,,,213.192,214.468,l,1,0.612,,[],[],[],[],[],[],[],0.612,1,214.469,214.96,0,13,13,9,1,2010,MAS,AGR,150,vecino,el,l,,,,,,,,,,,,,,,,,
,,,,,,3ff55828764a9275dbfbd477,66a626ef09d4e21e1a8894ec,67371d31411e2f8be82c0f24,2024-11-15_07h07.54.882,Tarea de género gramatical,2024.2.2,Win32,71.94244604,,,,,,,,,,,,,,,,,,,,,,,,214.963,216.635,a,1,1.008,,[],[],[],[],[],[],[],1.008,1,216.637,217.126,0,14,14,7,1,2008,FEM,CON,150,siesta,,a,,,,,,,,,,,,,,,,,
,,,,,,3ff55828764a9275dbfbd477,66a626ef09d4e21e1a8894ec,67371d31411e2f8be82c0f24,2024-11-15_07h07.54.882,Tarea de género gramatical,2024.2.2,Win32,71.94244604,,,224.634,232.079,space,-0.016203704,-0.372685185,0,0,0,,,,,,,,,,,,7.406,,232.224,233.488,a,1,0.598,,[],[],[],[],[],[],[],0.598,1,233.49,233.981,,,,,,1274,FEM,AGR,150,herida,la,a,233.981,233.989,-0.016203704,-0.372685185,0,0,0,,0,0,0,373,1,,,,
,,,,,,3ff55828764a9275dbfbd477,66a626ef09d4e21e1a8894ec,67371d31411e2f8be82c0f24,2024-11-15_07h07.54.882,Tarea de género gramatical,2024.2.2,Win32,71.94244604,,,,,,,,,,,,,,,,,,,,,,,,233.991,235.148,a,1,0.488,,[],[],[],[],[],[],[],0.488,1,235.149,235.646,,,,,,1101,FEM,CON,150,leche,,a,235.646,235.647,-0.016203704,-0.372685185,0,0,0,,0,1,1,200,1,,,,
,,,,,,3ff55828764a9275dbfbd477,66a626ef09d4e21e1a8894ec,67371d31411e2f8be82c0f24,2024-11-15_07h07.54.882,Tarea de género gramatical,2024.2.2,Win32,71.94244604,,,,,,,,,,,,,,,,,,,,,,,,235.651,236.698,a,1,0.382,,[],[],[],[],[],[],[],0.382,1,236.702,237.199,,,,,,1011,FEM,CON,150,goma,,a,237.206,237.213,-0.016203704,-0.372685185,0,0,0,,0,2,2,110,1,,,,
,,,,,,3ff55828764a9275dbfbd477,66a626ef09d4e21e1a8894ec,67371d31411e2f8be82c0f24,2024-11-15_07h07.54.882,Tarea de género gramatical,2024.2.2,Win32,71.94244604,,,,,,,,,,,,,,,,,,,,,,,,237.221,238.182,a,1,0.285,,[],[],[],[],[],[],[],0.285,1,238.183,238.681,,,,,,1070,FEM,AGR,150,carta,la,a,238.681,238.683,-0.016203704,-0.372685185,0,0,0,,0,3,3,169,1,,,,
,,,,,,3ff55828764a9275dbfbd477,66a626ef09d4e21e1a8894ec,67371d31411e2f8be82c0f24,2024-11-15_07h07.54.882,Tarea de género gramatical,2024.2.2,Win32,71.94244604,,,,,,,,,,,,,,,,,,,,,,,,238.688,239.628,a,1,0.279,,[],[],[],[],[],[],[],0.279,1,239.629,240.126,,,,,,1321,FEM,DIS,150,novela,el,a,240.126,240.127,-0.016203704,-0.372685185,0,0,0,,0,4,4,420,1,,,,
,,,,,,3ff55828764a9275dbfbd477,66a626ef09d4e21e1a8894ec,67371d31411e2f8be82c0f24,2024-11-15_07h07.54.882,Tarea de género gramatical,2024.2.2,Win32,71.94244604,,,,,,,,,,,,,,,,,,,,,,,,240.131,241.154,l,1,0.354,,[],[],[],[],[],[],[],0.354,1,241.155,241.647,,,,,,1175,MAS,AGR,150,disco,el,l,241.647,241.647,-0.016203704,-0.372685185,0,0,0,,0,5,5,274,1,,,,
,,,,,,3ff55828764a9275dbfbd477,66a626ef09d4e21e1a8894ec,67371d31411e2f8be82c0f24,2024-11-15_07h07.54.882,Tarea de género gramatical,2024.2.2,Win32,71.94244604,,,,,,,,,,,,,,,,,,,,,,,,241.652,242.661,l,0,0.347,,[],[],[],[],[],[],[],0.347,0,242.666,243.154,,,,,,931,FEM,DIS,150,edad,el,a,243.158,243.161,-0.016203704,-0.372685185,0,0,0,,0,6,6,30,1,,,,
,,,,,,3ff55828764a9275dbfbd477,66a626ef09d4e21e1a8894ec,67371d31411e2f8be82c0f24,2024-11-15_07h07.54.882,Tarea de género gramatical,2024.2.2,Win32,71.94244604,,,,,,,,,,,,,,,,,,,,,,,,243.165,244.252,l,1,0.417,,[],[],[],[],[],[],[],0.417,1,244.255,244.751,,,,,,1200,MAS,CON,150,túnel,,l,244.751,244.752,-0.016203704,-0.372685185,0,0,0,,0,7,7,299,1,,,,
,,,,,,3ff55828764a9275dbfbd477,66a626ef09d4e21e1a8894ec,67371d31411e2f8be82c0f24,2024-11-15_07h07.54.882,Tarea de género gramatical,2024.2.2,Win32,71.94244604,,,,,,,,,,,,,,,,,,,,,,,,244.756,245.801,a,0,0.383,,[],[],[],[],[],[],[],0.383,0,245.805,246.299,,,,,,1067,MAS,AGR,150,juego,el,l,246.3,246.3,-0.016203704,-0.372685185,0,0,0,,0,8,8,166,1,,,,
,,,,,,3ff55828764a9275dbfbd477,66a626ef09d4e21e1a8894ec,67371d31411e2f8be82c0f24,2024-11-15_07h07.54.882,Tarea de género gramatical,2024.2.2,Win32,71.94244604,,,,,,,,,,,,,,,,,,,,,,,,246.306,247.434,a,1,0.453,,[],[],[],[],[],[],[],0.453,1,247.437,247.937,,,,,,1196,FEM,AGR,150,feria,la,a,247.937,247.938,-0.016203704,-0.372685185,0,0,0,,0,9,9,295,1,,,,
,,,,,,3ff55828764a9275dbfbd477,66a626ef09d4e21e1a8894ec,67371d31411e2f8be82c0f24,2024-11-15_07h07.54.882,Tarea de género gramatical,2024.2.2,Win32,71.94244604,,,,,,,,,,,,,,,,,,,,,,,,247.942,249.091,l,1,0.486,,[],[],[],[],[],[],[],0.486,1,249.092,249.584,,,,,,1050,MAS,CON,150,mozo,,l,249.585,249.585,-0.016203704,-0.372685185,0,0,0,,0,10,10,149,1,,,,
,,,,,,3ff55828764a9275dbfbd477,66a626ef09d4e21e1a8894ec,67371d31411e2f8be82c0f24,2024-11-15_07h07.54.882,Tarea de género gramatical,2024.2.2,Win32,71.94244604,,,,,,,,,,,,,,,,,,,,,,,,249.59,250.816,l,1,0.565,,[],[],[],[],[],[],[],0.565,1,250.816,251.313,,,,,,1037,MAS,AGR,150,coco,el,l,251.317,251.321,-0.016203704,-0.372685185,0,0,0,,0,11,11,136,1,,,,
,,,,,,3ff55828764a9275dbfbd477,66a626ef09d4e21e1a8894ec,67371d31411e2f8be82c0f24,2024-11-15_07h07.54.882,Tarea de género gramatical,2024.2.2,Win32,71.94244604,,,,,,,,,,,,,,,,,,,,,,,,251.323,252.676,l,1,0.685,,[],[],[],[],[],[],[],0.685,1,252.676,253.168,,,,,,1156,MAS,DIS,150,techo,la,l,253.168,253.168,-0.016203704,-0.372685185,0,0,0,,0,12,12,255,1,,,,
,,,,,,3ff55828764a9275dbfbd477,66a626ef09d4e21e1a8894ec,67371d31411e2f8be82c0f24,2024-11-15_07h07.54.882,Tarea de género gramatical,2024.2.2,Win32,71.94244604,,,,,,,,,,,,,,,,,,,,,,,,253.171,254.273,a,1,0.422,,[],[],[],[],[],[],[],0.422,1,254.274,254.765,,,,,,1328,FEM,AGR,150,jugada,la,a,254.765,254.765,-0.016203704,-0.372685185,0,0,0,,0,13,13,427,1,,,,
,,,,,,3ff55828764a9275dbfbd477,66a626ef09d4e21e1a8894ec,67371d31411e2f8be82c0f24,2024-11-15_07h07.54.882,Tarea de género gramatical,2024.2.2,Win32,71.94244604,,,,,,,,,,,,,,,,,,,,,,,,254.769,255.911,l,0,0.472,,[],[],[],[],[],[],[],0.472,0,255.913,256.411,,,,,,1039,FEM,DIS,150,pipa,el,a,256.411,256.411,-0.016203704,-0.372685185,0,0,0,,0,14,14,138,1,,,,
,,,,,,3ff55828764a9275dbfbd477,66a626ef09d4e21e1a8894ec,67371d31411e2f8be82c0f24,2024-11-15_07h07.54.882,Tarea de género gramatical,2024.2.2,Win32,71.94244604,,,,,,,,,,,,,,,,,,,,,,,,256.415,257.706,a,1,0.615,,[],[],[],[],[],[],[],0.615,1,257.708,258.209,,,,,,1334,FEM,AGR,150,corona,la,a,258.211,258.215,-0.016203704,-0.372685185,0,0,0,,0,15,15,433,1,,,,
,,,,,,3ff55828764a9275dbfbd477,66a626ef09d4e21e1a8894ec,67371d31411e2f8be82c0f24,2024-11-15_07h07.54.882,Tarea de género gramatical,2024.2.2,Win32,71.94244604,,,,,,,,,,,,,,,,,,,,,,,,258.217,259.334,a,1,0.445,,[],[],[],[],[],[],[],0.445,1,259.334,259.835,,,,,,1082,FEM,AGR,150,prisa,la,a,259.835,259.835,-0.016203704,-0.372685185,0,0,0,,0,16,16,181,1,,,,
,,,,,,3ff55828764a9275dbfbd477,66a626ef09d4e21e1a8894ec,67371d31411e2f8be82c0f24,2024-11-15_07h07.54.882,Tarea de género gramatical,2024.2.2,Win32,71.94244604,,,,,,,,,,,,,,,,,,,,,,,,259.839,260.912,l,1,0.397,,[],[],[],[],[],[],[],0.397,1,260.912,261.405,,,,,,941,MAS,AGR,150,bote,el,l,261.405,261.405,-0.016203704,-0.372685185,0,0,0,,0,17,17,40,1,,,,
,,,,,,3ff55828764a9275dbfbd477,66a626ef09d4e21e1a8894ec,67371d31411e2f8be82c0f24,2024-11-15_07h07.54.882,Tarea de género gramatical,2024.2.2,Win32,71.94244604,,,,,,,,,,,,,,,,,,,,,,,,261.408,262.585,l,1,0.506,,[],[],[],[],[],[],[],0.506,1,262.585,263.077,,,,,,1176,MAS,CON,150,ritmo,,l,263.077,263.077,-0.016203704,-0.372685185,0,0,0,,0,18,18,275,1,,,,
,,,,,,3ff55828764a9275dbfbd477,66a626ef09d4e21e1a8894ec,67371d31411e2f8be82c0f24,2024-11-15_07h07.54.882,Tarea de género gramatical,2024.2.2,Win32,71.94244604,,,,,,,,,,,,,,,,,,,,,,,,263.08,264.146,a,1,0.403,,[],[],[],[],[],[],[],0.403,1,264.147,264.646,,,,,,1221,FEM,CON,150,comida,,a,264.646,264.647,-0.016203704,-0.372685185,0,0,0,,0,19,19,320,1,,,,
,,,,,,3ff55828764a9275dbfbd477,66a626ef09d4e21e1a8894ec,67371d31411e2f8be82c0f24,2024-11-15_07h07.54.882,Tarea de género gramatical,2024.2.2,Win32,71.94244604,,,,,,,,,,,,,,,,,,,,,,,,264.65,265.94,a,1,0.627,,[],[],[],[],[],[],[],0.627,1,265.94,266.438,,,,,,1219,FEM,DIS,150,sangre,el,a,266.44,266.444,-0.016203704,-0.372685185,0,0,0,,0,20,20,318,1,,,,
,,,,,,3ff55828764a9275dbfbd477,66a626ef09d4e21e1a8894ec,67371d31411e2f8be82c0f24,2024-11-15_07h07.54.882,Tarea de género gramatical,2024.2.2,Win32,71.94244604,,,,,,,,,,,,,,,,,,,,,,,,266.446,267.601,l,1,0.487,,[],[],[],[],[],[],[],0.487,1,267.605,268.107,,,,,,1145,MAS,AGR,150,turno,el,l,268.107,268.108,-0.016203704,-0.372685185,0,0,0,,0,21,21,244,1,,,,
,,,,,,3ff55828764a9275dbfbd477,66a626ef09d4e21e1a8894ec,67371d31411e2f8be82c0f24,2024-11-15_07h07.54.882,Tarea de género gramatical,2024.2.2,Win32,71.94244604,,,,,,,,,,,,,,,,,,,,,,,,268.119,269.225,a,1,0.438,,[],[],[],[],[],[],[],0.438,1,269.226,269.716,,,,,,1057,FEM,DIS,150,madre,el,a,269.717,269.718,-0.016203704,-0.372685185,0,0,0,,0,22,22,156,1,,,,
,,,,,,3ff55828764a9275dbfbd477,66a626ef09d4e21e1a8894ec,67371d31411e2f8be82c0f24,2024-11-15_07h07.54.882,Tarea de género gramatical,2024.2.2,Win32,71.94244604,,,,,,,,,,,,,,,,,,,,,,,,269.722,270.814,l,1,0.414,,[],[],[],[],[],[],[],0.414,1,270.814,271.307,,,,,,1060,MAS,DIS,150,señor,la,l,271.307,271.308,-0.016203704,-0.372685185,0,0,0,,0,23,23,159,1,,,,
,,,,,,3ff55828764a9275dbfbd477,66a626ef09d4e21e1a8894ec,67371d31411e2f8be82c0f24,2024-11-15_07h07.54.882,Tarea de género gramatical,2024.2.2,Win32,71.94244604,,,,,,,,,,,,,,,,,,,,,,,,271.312,272.933,a,0,0.954,,[],[],[],[],[],[],[],0.954,0,272.937,273.431,,,,,,1024,MAS,DIS,150,clan,la,l,273.435,273.441,-0.016203704,-0.372685185,0,0,0,,0,24,24,123,1,,,,
,,,,,,3ff55828764a9275dbfbd477,66a626ef09d4e21e1a8894ec,67371d31411e2f8be82c0f24,2024-11-15_07h07.54.882,Tarea de género gramatical,2024.2.2,Win32,71.94244604,,,,,,,,,,,,,,,,,,,,,,,,273.443,274.717,a,1,0.599,,[],[],[],[],[],[],[],0.599,1,274.72,275.207,,,,,,1094,FEM,AGR,150,banda,la,a,275.207,275.207,-0.016203704,-0.372685185,0,0,0,,0,25,25,193,1,,,,
,,,,,,3ff55828764a9275dbfbd477,66a626ef09d4e21e1a8894ec,67371d31411e2f8be82c0f24,2024-11-15_07h07.54.882,Tarea de género gramatical,2024.2.2,Win32,71.94244604,,,,,,,,,,,,,,,,,,,,,,,,275.21,276.431,a,1,0.557,,[],[],[],[],[],[],[],0.557,1,276.431,276.932,,,,,,1033,FEM,DIS,150,joya,el,a,276.933,276.933,-0.016203704,-0.372685185,0,0,0,,0,26,26,132,1,,,,
,,,,,,3ff55828764a9275dbfbd477,66a626ef09d4e21e1a8894ec,67371d31411e2f8be82c0f24,2024-11-15_07h07.54.882,Tarea de género gramatical,2024.2.2,Win32,71.94244604,,,,,,,,,,,,,,,,,,,,,,,,276.936,278.112,a,1,0.5,,[],[],[],[],[],[],[],0.5,1,278.114,278.604,,,,,,963,FEM,CON,150,fila,,a,278.604,278.605,-0.016203704,-0.372685185,0,0,0,,0,27,27,62,1,,,,
,,,,,,3ff55828764a9275dbfbd477,66a626ef09d4e21e1a8894ec,67371d31411e2f8be82c0f24,2024-11-15_07h07.54.882,Tarea de género gramatical,2024.2.2,Win32,71.94244604,,,,,,,,,,,,,,,,,,,,,,,,278.609,279.702,l,0,0.431,,[],[],[],[],[],[],[],0.431,0,279.706,280.203,,,,,,1203,FEM,CON,150,maldad,,a,280.203,280.203,-0.016203704,-0.372685185,0,0,0,,0,28,28,302,1,,,,
,,,,,,3ff55828764a9275dbfbd477,66a626ef09d4e21e1a8894ec,67371d31411e2f8be82c0f24,2024-11-15_07h07.54.882,Tarea de género gramatical,2024.2.2,Win32,71.94244604,,,,,,,,,,,,,,,,,,,,,,,,280.207,281.584,a,1,0.702,,[],[],[],[],[],[],[],0.702,1,281.587,282.076,,,,,,949,FEM,DIS,150,piel,el,a,282.079,282.083,-0.016203704,-0.372685185,0,0,0,,0,29,29,48,1,,,,
,,,,,,3ff55828764a9275dbfbd477,66a626ef09d4e21e1a8894ec,67371d31411e2f8be82c0f24,2024-11-15_07h07.54.882,Tarea de género gramatical,2024.2.2,Win32,71.94244604,,,,,,,,,,,,,,,,,,,,,,,,282.086,283.147,l,1,0.39,,[],[],[],[],[],[],[],0.39,1,283.147,283.646,,,,,,1085,MAS,AGR,150,sueño,el,l,283.646,283.646,-0.016203704,-0.372685185,0,0,0,,0,30,30,184,1,,,,
,,,,,,3ff55828764a9275dbfbd477,66a626ef09d4e21e1a8894ec,67371d31411e2f8be82c0f24,2024-11-15_07h07.54.882,Tarea de género gramatical,2024.2.2,Win32,71.94244604,,,,,,,,,,,,,,,,,,,,,,,,283.65,284.779,l,1,0.467,,[],[],[],[],[],[],[],0.467,1,284.78,285.277,,,,,,1110,MAS,CON,150,baile,,l,285.277,285.278,-0.016203704,-0.372685185,0,0,0,,0,31,31,209,1,,,,
,,,,,,3ff55828764a9275dbfbd477,66a626ef09d4e21e1a8894ec,67371d31411e2f8be82c0f24,2024-11-15_07h07.54.882,Tarea de género gramatical,2024.2.2,Win32,71.94244604,,,,,,,,,,,,,,,,,,,,,,,,285.282,286.406,l,1,0.46,,[],[],[],[],[],[],[],0.46,1,286.406,286.897,,,,,,966,MAS,CON,150,muro,,l,286.897,286.898,-0.016203704,-0.372685185,0,0,0,,0,32,32,65,1,,,,
,,,,,,3ff55828764a9275dbfbd477,66a626ef09d4e21e1a8894ec,67371d31411e2f8be82c0f24,2024-11-15_07h07.54.882,Tarea de género gramatical,2024.2.2,Win32,71.94244604,,,,,,,,,,,,,,,,,,,,,,,,286.9,288.396,a,1,0.819,,[],[],[],[],[],[],[],0.819,1,288.396,288.889,,,,,,1027,FEM,DIS,150,cuna,el,a,288.894,288.897,-0.016203704,-0.372685185,0,0,0,,0,33,33,126,1,,,,
,,,,,,3ff55828764a9275dbfbd477,66a626ef09d4e21e1a8894ec,67371d31411e2f8be82c0f24,2024-11-15_07h07.54.882,Tarea de género gramatical,2024.2.2,Win32,71.94244604,,,,,,,,,,,,,,,,,,,,,,,,288.9,290.028,a,1,0.458,,[],[],[],[],[],[],[],0.458,1,290.03,290.52,,,,,,1207,FEM,DIS,150,suerte,el,a,290.52,290.521,-0.016203704,-0.372685185,0,0,0,,0,34,34,306,1,,,,
,,,,,,3ff55828764a9275dbfbd477,66a626ef09d4e21e1a8894ec,67371d31411e2f8be82c0f24,2024-11-15_07h07.54.882,Tarea de género gramatical,2024.2.2,Win32,71.94244604,,,,,,,,,,,,,,,,,,,,,,,,290.524,291.619,a,1,0.431,,[],[],[],[],[],[],[],0.431,1,291.62,292.118,,,,,,1009,FEM,DIS,150,gota,el,a,292.118,292.118,-0.016203704,-0.372685185,0,0,0,,0,35,35,108,1,,,,
,,,,,,3ff55828764a9275dbfbd477,66a626ef09d4e21e1a8894ec,67371d31411e2f8be82c0f24,2024-11-15_07h07.54.882,Tarea de género gramatical,2024.2.2,Win32,71.94244604,,,,,,,,,,,,,,,,,,,,,,,,292.122,293.174,l,1,0.382,,[],[],[],[],[],[],[],0.382,1,293.174,293.673,,,,,,1344,MAS,CON,150,límite,,l,293.673,293.674,-0.016203704,-0.372685185,0,0,0,,0,36,36,443,1,,,,
,,,,,,3ff55828764a9275dbfbd477,66a626ef09d4e21e1a8894ec,67371d31411e2f8be82c0f24,2024-11-15_07h07.54.882,Tarea de género gramatical,2024.2.2,Win32,71.94244604,,,,,,,,,,,,,,,,,,,,,,,,293.677,294.724,l,1,0.377,,[],[],[],[],[],[],[],0.377,1,294.724,295.215,,,,,,1187,MAS,AGR,150,plato,el,l,295.215,295.215,-0.016203704,-0.372685185,0,0,0,,0,37,37,286,1,,,,
,,,,,,3ff55828764a9275dbfbd477,66a626ef09d4e21e1a8894ec,67371d31411e2f8be82c0f24,2024-11-15_07h07.54.882,Tarea de género gramatical,2024.2.2,Win32,71.94244604,,,,,,,,,,,,,,,,,,,,,,,,295.218,296.224,l,1,0.336,,[],[],[],[],[],[],[],0.336,1,296.224,296.715,,,,,,994,MAS,DIS,150,cabo,la,l,296.718,296.722,-0.016203704,-0.372685185,0,0,0,,0,38,38,93,1,,,,
,,,,,,3ff55828764a9275dbfbd477,66a626ef09d4e21e1a8894ec,67371d31411e2f8be82c0f24,2024-11-15_07h07.54.882,Tarea de género gramatical,2024.2.2,Win32,71.94244604,,,,,,,,,,,,,,,,,,,,,,,,296.724,297.75,l,1,0.362,,[],[],[],[],[],[],[],0.362,1,297.75,298.248,,,,,,1072,MAS,DIS,150,poder,la,l,298.249,298.249,-0.016203704,-0.372685185,0,0,0,,0,39,39,171,1,,,,
,,,,,,3ff55828764a9275dbfbd477,66a626ef09d4e21e1a8894ec,67371d31411e2f8be82c0f24,2024-11-15_07h07.54.882,Tarea de género gramatical,2024.2.2,Win32,71.94244604,,,,,,,,,,,,,,,,,,,,,,,,298.252,299.254,a,1,0.328,,[],[],[],[],[],[],[],0.328,1,299.257,299.758,,,,,,1046,FEM,AGR,150,lana,la,a,299.758,299.76,-0.016203704,-0.372685185,0,0,0,,0,40,40,145,1,,,,
,,,,,,3ff55828764a9275dbfbd477,66a626ef09d4e21e1a8894ec,67371d31411e2f8be82c0f24,2024-11-15_07h07.54.882,Tarea de género gramatical,2024.2.2,Win32,71.94244604,,,,,,,,,,,,,,,,,,,,,,,,299.77,300.91,l,1,0.473,,[],[],[],[],[],[],[],0.473,1,300.912,301.403,,,,,,996,MAS,CON,150,pato,,l,301.404,301.405,-0.016203704,-0.372685185,0,0,0,,0,41,41,95,1,,,,
,,,,,,3ff55828764a9275dbfbd477,66a626ef09d4e21e1a8894ec,67371d31411e2f8be82c0f24,2024-11-15_07h07.54.882,Tarea de género gramatical,2024.2.2,Win32,71.94244604,,,,,,,,,,,,,,,,,,,,,,,,301.41,302.405,a,0,0.327,,[],[],[],[],[],[],[],0.327,0,302.409,302.903,,,,,,1330,MAS,DIS,150,título,la,l,302.909,302.914,-0.016203704,-0.372685185,0,0,0,,0,42,42,429,1,,,,
,,,,,,3ff55828764a9275dbfbd477,66a626ef09d4e21e1a8894ec,67371d31411e2f8be82c0f24,2024-11-15_07h07.54.882,Tarea de género gramatical,2024.2.2,Win32,71.94244604,,,,,,,,,,,,,,,,,,,,,,,,302.916,303.966,l,1,0.369,,[],[],[],[],[],[],[],0.369,1,303.969,304.465,,,,,,1031,MAS,AGR,150,kilo,el,l,304.466,304.466,-0.016203704,-0.372685185,0,0,0,,0,43,43,130,1,,,,
,,,,,,3ff55828764a9275dbfbd477,66a626ef09d4e21e1a8894ec,67371d31411e2f8be82c0f24,2024-11-15_07h07.54.882,Tarea de género gramatical,2024.2.2,Win32,71.94244604,,,,,,,,,,,,,,,,,,,,,,,,304.469,305.767,l,0,0.629,,[],[],[],[],[],[],[],0.629,0,305.769,306.27,,,,,,1279,FEM,DIS,150,granja,el,a,306.27,306.27,-0.016203704,-0.372685185,0,0,0,,0,44,44,378,1,,,,
,,,,,,3ff55828764a9275dbfbd477,66a626ef09d4e21e1a8894ec,67371d31411e2f8be82c0f24,2024-11-15_07h07.54.882,Tarea de género gramatical,2024.2.2,Win32,71.94244604,,,,,,,,,,,,,,,,,,,,,,,,306.275,307.695,l,1,0.752,,[],[],[],[],[],[],[],0.752,1,307.698,308.194,,,,,,942,MAS,CON,150,show,,l,308.195,308.195,-0.016203704,-0.372685185,0,0,0,,0,45,45,41,1,,,,
,,,,,,3ff55828764a9275dbfbd477,66a626ef09d4e21e1a8894ec,67371d31411e2f8be82c0f24,2024-11-15_07h07.54.882,Tarea de género gramatical,2024.2.2,Win32,71.94244604,,,,,,,,,,,,,,,,,,,,,,,,308.2,309.293,a,1,0.425,,[],[],[],[],[],[],[],0.425,1,309.294,309.793,,,,,,1010,FEM,AGR,150,rosa,la,a,309.793,309.793,-0.016203704,-0.372685185,0,0,0,,0,46,46,109,1,,,,
,,,,,,3ff55828764a9275dbfbd477,66a626ef09d4e21e1a8894ec,67371d31411e2f8be82c0f24,2024-11-15_07h07.54.882,Tarea de género gramatical,2024.2.2,Win32,71.94244604,,,,,,,,,,,,,,,,,,,,,,,,309.795,311.334,l,1,0.866,,[],[],[],[],[],[],[],0.866,1,311.335,311.826,,,,,,1260,MAS,CON,150,puente,,l,311.829,311.833,-0.016203704,-0.372685185,0,0,0,,0,47,47,359,1,,,,
,,,,,,3ff55828764a9275dbfbd477,66a626ef09d4e21e1a8894ec,67371d31411e2f8be82c0f24,2024-11-15_07h07.54.882,Tarea de género gramatical,2024.2.2,Win32,71.94244604,,,,,,,,,,,,,,,,,,,,,,,,311.837,313.194,l,1,0.696,,[],[],[],[],[],[],[],0.696,1,313.195,313.686,,,,,,1001,MAS,AGR,150,giro,el,l,313.686,313.686,-0.016203704,-0.372685185,0,0,0,,0,48,48,100,1,,,,
,,,,,,3ff55828764a9275dbfbd477,66a626ef09d4e21e1a8894ec,67371d31411e2f8be82c0f24,2024-11-15_07h07.54.882,Tarea de género gramatical,2024.2.2,Win32,71.94244604,,,,,,,,,,,,,,,,,,,,,,,,313.689,314.798,a,1,0.444,,[],[],[],[],[],[],[],0.444,1,314.798,315.298,,,,,,1189,FEM,DIS,150,tabla,el,a,315.298,315.298,-0.016203704,-0.372685185,0,0,0,,0,49,49,288,1,,,,
,,,,,,3ff55828764a9275dbfbd477,66a626ef09d4e21e1a8894ec,67371d31411e2f8be82c0f24,2024-11-15_07h07.54.882,Tarea de género gramatical,2024.2.2,Win32,71.94244604,,,,,,,,,,,,,,,,,,,,,,,,315.302,316.515,a,1,0.55,,[],[],[],[],[],[],[],0.55,1,316.517,317.013,,,,,,1015,FEM,DIS,150,seda,el,a,317.014,317.014,-0.016203704,-0.372685185,0,0,0,,0,50,50,114,1,,,,
,,,,,,3ff55828764a9275dbfbd477,66a626ef09d4e21e1a8894ec,67371d31411e2f8be82c0f24,2024-11-15_07h07.54.882,Tarea de género gramatical,2024.2.2,Win32,71.94244604,,,,,,,,,,,,,,,,,,,,,,,,317.019,318.068,l,1,0.381,,[],[],[],[],[],[],[],0.381,1,318.069,318.562,,,,,,1032,MAS,CON,150,velo,,l,318.566,318.57,-0.016203704,-0.372685185,0,0,0,,0,51,51,131,1,,,,
,,,,,,3ff55828764a9275dbfbd477,66a626ef09d4e21e1a8894ec,67371d31411e2f8be82c0f24,2024-11-15_07h07.54.882,Tarea de género gramatical,2024.2.2,Win32,71.94244604,,,,,,,,,,,,,,,,,,,,,,,,318.573,319.576,a,1,0.335,,[],[],[],[],[],[],[],0.335,1,319.576,320.068,,,,,,1149,FEM,CON,150,crema,,a,320.069,320.069,-0.016203704,-0.372685185,0,0,0,,0,52,52,248,1,,,,
,,,,,,3ff55828764a9275dbfbd477,66a626ef09d4e21e1a8894ec,67371d31411e2f8be82c0f24,2024-11-15_07h07.54.882,Tarea de género gramatical,2024.2.2,Win32,71.94244604,,,,,,,,,,,,,,,,,,,,,,,,320.073,321.334,a,1,0.592,,[],[],[],[],[],[],[],0.592,1,321.334,321.833,,,,,,1232,FEM,AGR,150,basura,la,a,321.833,321.833,-0.016203704,-0.372685185,0,0,0,,0,53,53,331,1,,,,
,,,,,,3ff55828764a9275dbfbd477,66a626ef09d4e21e1a8894ec,67371d31411e2f8be82c0f24,2024-11-15_07h07.54.882,Tarea de género gramatical,2024.2.2,Win32,71.94244604,,,,,,,,,,,,,,,,,,,,,,,,321.837,322.861,l,1,0.35,,[],[],[],[],[],[],[],0.35,1,322.861,323.354,,,,,,1054,MAS,DIS,150,padre,la,l,323.354,323.354,-0.016203704,-0.372685185,0,0,0,,0,54,54,153,1,,,,
,,,,,,3ff55828764a9275dbfbd477,66a626ef09d4e21e1a8894ec,67371d31411e2f8be82c0f24,2024-11-15_07h07.54.882,Tarea de género gramatical,2024.2.2,Win32,71.94244604,,,,,,,,,,,,,,,,,,,,,,,,323.356,324.395,a,0,0.376,,[],[],[],[],[],[],[],0.376,0,324.398,324.895,,,,,,1007,MAS,AGR,150,cubo,el,l,324.895,324.895,-0.016203704,-0.372685185,0,0,0,,0,55,55,106,1,,,,
,,,,,,3ff55828764a9275dbfbd477,66a626ef09d4e21e1a8894ec,67371d31411e2f8be82c0f24,2024-11-15_07h07.54.882,Tarea de género gramatical,2024.2.2,Win32,71.94244604,,,,,,,,,,,,,,,,,,,,,,,,324.9,326.354,a,0,0.785,,[],[],[],[],[],[],[],0.785,0,326.355,326.853,,,,,,1168,MAS,DIS,150,truco,la,l,326.856,326.86,-0.016203704,-0.372685185,0,0,0,,0,56,56,267,1,,,,
,,,,,,3ff55828764a9275dbfbd477,66a626ef09d4e21e1a8894ec,67371d31411e2f8be82c0f24,2024-11-15_07h07.54.882,Tarea de género gramatical,2024.2.2,Win32,71.94244604,,,,,,,,,,,,,,,,,,,,,,,,326.862,328.402,l,0,0.874,,[],[],[],[],[],[],[],0.874,0,328.402,328.902,,,,,,1117,FEM,DIS,150,tarea,el,a,328.902,328.902,-0.016203704,-0.372685185,0,0,0,,0,57,57,216,1,,,,
,,,,,,3ff55828764a9275dbfbd477,66a626ef09d4e21e1a8894ec,67371d31411e2f8be82c0f24,2024-11-15_07h07.54.882,Tarea de género gramatical,2024.2.2,Win32,71.94244604,,,,,,,,,,,,,,,,,,,,,,,,328.906,330.125,a,1,0.543,,[],[],[],[],[],[],[],0.543,1,330.127,330.624,,,,,,1160,FEM,AGR,150,barra,la,a,330.624,330.625,-0.016203704,-0.372685185,0,0,0,,0,58,58,259,1,,,,
,,,,,,3ff55828764a9275dbfbd477,66a626ef09d4e21e1a8894ec,67371d31411e2f8be82c0f24,2024-11-15_07h07.54.882,Tarea de género gramatical,2024.2.2,Win32,71.94244604,,,,,,,,,,,,,,,,,,,,,,,,330.627,331.758,l,1,0.459,,[],[],[],[],[],[],[],0.459,1,331.758,332.256,,,,,,1241,MAS,AGR,150,precio,el,l,332.256,332.256,-0.016203704,-0.372685185,0,0,0,,0,59,59,340,1,,,,
,,,,,,3ff55828764a9275dbfbd477,66a626ef09d4e21e1a8894ec,67371d31411e2f8be82c0f24,2024-11-15_07h07.54.882,Tarea de género gramatical,2024.2.2,Win32,71.94244604,,,,,,,,,,,,,,,,,,,,,,,,332.26,333.425,a,1,0.502,,[],[],[],[],[],[],[],0.502,1,333.425,333.921,,,,,,1155,FEM,CON,150,tribu,,a,333.923,333.927,-0.016203704,-0.372685185,0,0,0,,0,60,60,254,1,,,,
,,,,,,3ff55828764a9275dbfbd477,66a626ef09d4e21e1a8894ec,67371d31411e2f8be82c0f24,2024-11-15_07h07.54.882,Tarea de género gramatical,2024.2.2,Win32,71.94244604,,,,,,,,,,,,,,,,,,,,,,,,333.929,334.996,l,1,0.398,,[],[],[],[],[],[],[],0.398,1,334.999,335.499,,,,,,1078,MAS,DIS,150,punto,la,l,335.499,335.502,-0.016203704,-0.372685185,0,0,0,,0,61,61,177,1,,,,
,,,,,,3ff55828764a9275dbfbd477,66a626ef09d4e21e1a8894ec,67371d31411e2f8be82c0f24,2024-11-15_07h07.54.882,Tarea de género gramatical,2024.2.2,Win32,71.94244604,,,,,,,,,,,,,,,,,,,,,,,,335.508,336.798,l,1,0.619,,[],[],[],[],[],[],[],0.619,1,336.8,337.29,,,,,,916,MAS,DIS,150,baño,la,l,337.29,337.291,-0.016203704,-0.372685185,0,0,0,,0,62,62,15,1,,,,
,,,,,,3ff55828764a9275dbfbd477,66a626ef09d4e21e1a8894ec,67371d31411e2f8be82c0f24,2024-11-15_07h07.54.882,Tarea de género gramatical,2024.2.2,Win32,71.94244604,,,,,,,,,,,,,,,,,,,,,,,,337.297,338.903,a,0,0.911,,[],[],[],[],[],[],[],0.911,0,338.905,339.395,,,,,,1199,MAS,AGR,150,rumbo,el,l,339.395,339.396,-0.016203704,-0.372685185,0,0,0,,0,63,63,298,1,,,,
,,,,,,3ff55828764a9275dbfbd477,66a626ef09d4e21e1a8894ec,67371d31411e2f8be82c0f24,2024-11-15_07h07.54.882,Tarea de género gramatical,2024.2.2,Win32,71.94244604,,,,,,,,,,,,,,,,,,,,,,,,339.4,340.876,a,1,0.799,,[],[],[],[],[],[],[],0.799,1,340.878,341.377,,,,,,1347,FEM,CON,150,lógica,,a,341.377,341.378,-0.016203704,-0.372685185,0,0,0,,0,64,64,446,1,,,,
,,,,,,3ff55828764a9275dbfbd477,66a626ef09d4e21e1a8894ec,67371d31411e2f8be82c0f24,2024-11-15_07h07.54.882,Tarea de género gramatical,2024.2.2,Win32,71.94244604,,,,,,,,,,,,,,,,,,,,,,,,341.382,342.493,l,1,0.431,,[],[],[],[],[],[],[],0.431,1,342.493,342.999,,,,,,1216,MAS,DIS,150,cuerpo,la,l,343.003,343.008,-0.016203704,-0.372685185,0,0,0,,0,65,65,315,1,,,,
,,,,,,3ff55828764a9275dbfbd477,66a626ef09d4e21e1a8894ec,67371d31411e2f8be82c0f24,2024-11-15_07h07.54.882,Tarea de género gramatical,2024.2.2,Win32,71.94244604,,,,,,,,,,,,,,,,,,,,,,,,343.011,344.172,l,1,0.484,,[],[],[],[],[],[],[],0.484,1,344.173,344.659,,,,,,1308,MAS,CON,150,cheque,,l,344.659,344.66,-0.016203704,-0.372685185,0,0,0,,0,66,66,407,1,,,,
,,,,,,3ff55828764a9275dbfbd477,66a626ef09d4e21e1a8894ec,67371d31411e2f8be82c0f24,2024-11-15_07h07.54.882,Tarea de género gramatical,2024.2.2,Win32,71.94244604,,,,,,,,,,,,,,,,,,,,,,,,344.665,345.722,a,1,0.389,,[],[],[],[],[],[],[],0.389,1,345.723,346.221,,,,,,1327,FEM,DIS,150,agenda,el,a,346.221,346.221,-0.016203704,-0.372685185,0,0,0,,0,67,67,426,1,,,,
,,,,,,3ff55828764a9275dbfbd477,66a626ef09d4e21e1a8894ec,67371d31411e2f8be82c0f24,2024-11-15_07h07.54.882,Tarea de género gramatical,2024.2.2,Win32,71.94244604,,,,,,,,,,,,,,,,,,,,,,,,346.226,347.556,l,0,0.667,,[],[],[],[],[],[],[],0.667,0,347.56,348.047,,,,,,1016,FEM,AGR,150,nube,la,a,348.047,348.049,-0.016203704,-0.372685185,0,0,0,,0,68,68,115,1,,,,
,,,,,,3ff55828764a9275dbfbd477,66a626ef09d4e21e1a8894ec,67371d31411e2f8be82c0f24,2024-11-15_07h07.54.882,Tarea de género gramatical,2024.2.2,Win32,71.94244604,,,,,,,,,,,,,,,,,,,,,,,,348.051,349.222,l,1,0.5,,[],[],[],[],[],[],[],0.5,1,349.225,349.721,,,,,,1313,MAS,AGR,150,diario,el,l,349.723,349.728,-0.016203704,-0.372685185,0,0,0,,0,69,69,412,1,,,,
,,,,,,3ff55828764a9275dbfbd477,66a626ef09d4e21e1a8894ec,67371d31411e2f8be82c0f24,2024-11-15_07h07.54.882,Tarea de género gramatical,2024.2.2,Win32,71.94244604,,,,,,,,,,,,,,,,,,,,,,,,349.73,350.818,a,1,0.409,,[],[],[],[],[],[],[],0.409,1,350.819,351.319,,,,,,1202,FEM,AGR,150,cabeza,la,a,351.319,351.319,-0.016203704,-0.372685185,0,0,0,,0,70,70,301,1,,,,
,,,,,,3ff55828764a9275dbfbd477,66a626ef09d4e21e1a8894ec,67371d31411e2f8be82c0f24,2024-11-15_07h07.54.882,Tarea de género gramatical,2024.2.2,Win32,71.94244604,,,,,,,,,,,,,,,,,,,,,,,,351.322,352.466,l,1,0.467,,[],[],[],[],[],[],[],0.467,1,352.467,352.957,,,,,,1342,MAS,DIS,150,cuadro,la,l,352.957,352.958,-0.016203704,-0.372685185,0,0,0,,0,71,71,441,1,,,,
,,,,,,3ff55828764a9275dbfbd477,66a626ef09d4e21e1a8894ec,67371d31411e2f8be82c0f24,2024-11-15_07h07.54.882,Tarea de género gramatical,2024.2.2,Win32,71.94244604,,,,,,,,,,,,,,,,,,,,,,,,352.962,354.105,a,1,0.468,,[],[],[],[],[],[],[],0.468,1,354.106,354.596,,,,,,1309,FEM,DIS,150,moneda,el,a,354.597,354.598,-0.016203704,-0.372685185,0,0,0,,0,72,72,408,1,,,,
,,,,,,3ff55828764a9275dbfbd477,66a626ef09d4e21e1a8894ec,67371d31411e2f8be82c0f24,2024-11-15_07h07.54.882,Tarea de género gramatical,2024.2.2,Win32,71.94244604,,,,,,,,,,,,,,,,,,,,,,,,354.599,355.681,l,0,0.413,,[],[],[],[],[],[],[],0.413,0,355.682,356.176,,,,,,1183,FEM,DIS,150,pluma,el,a,356.176,356.176,-0.016203704,-0.372685185,0,0,0,,0,73,73,282,1,,,,
,,,,,,3ff55828764a9275dbfbd477,66a626ef09d4e21e1a8894ec,67371d31411e2f8be82c0f24,2024-11-15_07h07.54.882,Tarea de género gramatical,2024.2.2,Win32,71.94244604,,,,,,,,,,,,,,,,,,,,,,,,356.178,357.202,l,0,0.355,,[],[],[],[],[],[],[],0.355,0,357.202,357.692,,,,,,1297,FEM,DIS,150,cuerda,el,a,357.695,357.698,-0.016203704,-0.372685185,0,0,0,,0,74,74,396,1,,,,
,,,,,,3ff55828764a9275dbfbd477,66a626ef09d4e21e1a8894ec,67371d31411e2f8be82c0f24,2024-11-15_07h07.54.882,Tarea de género gramatical,2024.2.2,Win32,71.94244604,,,,,,,,,,,,,,,,,,,,,,,,357.699,358.928,a,1,0.558,,[],[],[],[],[],[],[],0.558,1,358.932,359.419,,,,,,1333,FEM,DIS,150,huella,el,a,359.42,359.42,-0.016203704,-0.372685185,0,0,0,,0,75,75,432,1,,,,
,,,,,,3ff55828764a9275dbfbd477,66a626ef09d4e21e1a8894ec,67371d31411e2f8be82c0f24,2024-11-15_07h07.54.882,Tarea de género gramatical,2024.2.2,Win32,71.94244604,,,,,,,,,,,,,,,,,,,,,,,,359.423,360.752,l,1,0.67,,[],[],[],[],[],[],[],0.67,1,360.752,361.256,,,,,,906,MAS,CON,150,lado,,l,361.256,361.257,-0.016203704,-0.372685185,0,0,0,,0,76,76,5,1,,,,
,,,,,,3ff55828764a9275dbfbd477,66a626ef09d4e21e1a8894ec,67371d31411e2f8be82c0f24,2024-11-15_07h07.54.882,Tarea de género gramatical,2024.2.2,Win32,71.94244604,,,,,,,,,,,,,,,,,,,,,,,,361.261,362.355,l,1,0.432,,[],[],[],[],[],[],[],0.432,1,362.356,362.853,,,,,,1164,MAS,CON,150,pollo,,l,362.853,362.854,-0.016203704,-0.372685185,0,0,0,,0,77,77,263,1,,,,
,,,,,,3ff55828764a9275dbfbd477,66a626ef09d4e21e1a8894ec,67371d31411e2f8be82c0f24,2024-11-15_07h07.54.882,Tarea de género gramatical,2024.2.2,Win32,71.94244604,,,,,,,,,,,,,,,,,,,,,,,,362.856,363.977,a,1,0.453,,[],[],[],[],[],[],[],0.453,1,363.978,364.478,,,,,,1161,FEM,CON,150,cueva,,a,364.48,364.482,-0.016203704,-0.372685185,0,0,0,,0,78,78,260,1,,,,
,,,,,,3ff55828764a9275dbfbd477,66a626ef09d4e21e1a8894ec,67371d31411e2f8be82c0f24,2024-11-15_07h07.54.882,Tarea de género gramatical,2024.2.2,Win32,71.94244604,,,,,,,,,,,,,,,,,,,,,,,,364.485,365.51,l,0,0.36,,[],[],[],[],[],[],[],0.36,0,365.511,366.003,,,,,,980,FEM,AGR,150,vaca,la,a,366.003,366.003,-0.016203704,-0.372685185,0,0,0,,0,79,79,79,1,,,,
,,,,,,3ff55828764a9275dbfbd477,66a626ef09d4e21e1a8894ec,67371d31411e2f8be82c0f24,2024-11-15_07h07.54.882,Tarea de género gramatical,2024.2.2,Win32,71.94244604,,,,,,,,,,,,,,,,,,,,,,,,366.006,367.12,l,1,0.436,,[],[],[],[],[],[],[],0.436,1,367.124,367.621,,,,,,1182,MAS,CON,150,bolso,,l,367.623,367.623,-0.016203704,-0.372685185,0,0,0,,0,80,80,281,1,,,,
,,,,,,3ff55828764a9275dbfbd477,66a626ef09d4e21e1a8894ec,67371d31411e2f8be82c0f24,2024-11-15_07h07.54.882,Tarea de género gramatical,2024.2.2,Win32,71.94244604,,,,,,,,,,,,,,,,,,,,,,,,367.632,368.728,a,0,0.423,,[],[],[],[],[],[],[],0.423,0,368.736,369.226,,,,,,1091,MAS,AGR,150,dolor,el,l,369.227,369.227,-0.016203704,-0.372685185,0,0,0,,0,81,81,190,1,,,,
,,,,,,3ff55828764a9275dbfbd477,66a626ef09d4e21e1a8894ec,67371d31411e2f8be82c0f24,2024-11-15_07h07.54.882,Tarea de género gramatical,2024.2.2,Win32,71.94244604,,,,,,,,,,,,,,,,,,,,,,,,369.234,370.366,a,1,0.458,,[],[],[],[],[],[],[],0.458,1,370.369,370.864,,,,,,1316,FEM,AGR,150,colina,la,a,370.864,370.864,-0.016203704,-0.372685185,0,0,0,,0,82,82,415,1,,,,
,,,,,,3ff55828764a9275dbfbd477,66a626ef09d4e21e1a8894ec,67371d31411e2f8be82c0f24,2024-11-15_07h07.54.882,Tarea de género gramatical,2024.2.2,Win32,71.94244604,,,,,,,,,,,,,,,,,,,,,,,,370.867,371.966,l,0,0.425,,[],[],[],[],[],[],[],0.425,0,371.969,372.462,,,,,,1249,FEM,DIS,150,prensa,el,a,372.466,372.471,-0.016203704,-0.372685185,0,0,0,,0,83,83,348,1,,,,
,,,,,,3ff55828764a9275dbfbd477,66a626ef09d4e21e1a8894ec,67371d31411e2f8be82c0f24,2024-11-15_07h07.54.882,Tarea de género gramatical,2024.2.2,Win32,71.94244604,,,,,,,,,,,,,,,,,,,,,,,,372.473,373.886,l,1,0.743,,[],[],[],[],[],[],[],0.743,1,373.889,374.39,,,,,,1300,MAS,DIS,150,barrio,la,l,374.39,374.391,-0.016203704,-0.372685185,0,0,0,,0,84,84,399,1,,,,
,,,,,,3ff55828764a9275dbfbd477,66a626ef09d4e21e1a8894ec,67371d31411e2f8be82c0f24,2024-11-15_07h07.54.882,Tarea de género gramatical,2024.2.2,Win32,71.94244604,,,,,,,,,,,,,,,,,,,,,,,,374.393,375.611,a,1,0.551,,[],[],[],[],[],[],[],0.551,1,375.613,376.11,,,,,,1154,FEM,AGR,150,caída,la,a,376.11,376.111,-0.016203704,-0.372685185,0,0,0,,0,85,85,253,1,,,,
,,,,,,3ff55828764a9275dbfbd477,66a626ef09d4e21e1a8894ec,67371d31411e2f8be82c0f24,2024-11-15_07h07.54.882,Tarea de género gramatical,2024.2.2,Win32,71.94244604,,,,,,,,,,,,,,,,,,,,,,,,376.113,377.554,a,1,0.777,,[],[],[],[],[],[],[],0.777,1,377.554,378.057,,,,,,1141,FEM,DIS,150,pasta,el,a,378.057,378.058,-0.016203704,-0.372685185,0,0,0,,0,86,86,240,1,,,,
,,,,,,3ff55828764a9275dbfbd477,66a626ef09d4e21e1a8894ec,67371d31411e2f8be82c0f24,2024-11-15_07h07.54.882,Tarea de género gramatical,2024.2.2,Win32,71.94244604,,,,,,,,,,,,,,,,,,,,,,,,378.06,379.202,l,0,0.471,,[],[],[],[],[],[],[],0.471,0,379.203,379.698,,,,,,1237,FEM,DIS,150,escena,el,a,379.699,379.709,-0.016203704,-0.372685185,0,0,0,,0,87,87,336,1,,,,
,,,,,,3ff55828764a9275dbfbd477,66a626ef09d4e21e1a8894ec,67371d31411e2f8be82c0f24,2024-11-15_07h07.54.882,Tarea de género gramatical,2024.2.2,Win32,71.94244604,,,,,,,,,,,,,,,,,,,,,,,,379.711,380.884,a,0,0.511,,[],[],[],[],[],[],[],0.511,0,380.885,381.385,,,,,,1198,MAS,DIS,150,botón,la,l,381.385,381.385,-0.016203704,-0.372685185,0,0,0,,0,88,88,297,1,,,,
,,,,,,3ff55828764a9275dbfbd477,66a626ef09d4e21e1a8894ec,67371d31411e2f8be82c0f24,2024-11-15_07h07.54.882,Tarea de género gramatical,2024.2.2,Win32,71.94244604,,,,,,,,,,,,,,,,,,,,,,,,381.389,382.519,a,1,0.46,,[],[],[],[],[],[],[],0.46,1,382.521,383.011,,,,,,1159,FEM,DIS,150,prima,el,a,383.011,383.011,-0.016203704,-0.372685185,0,0,0,,0,89,89,258,1,,,,
,,,,,,3ff55828764a9275dbfbd477,66a626ef09d4e21e1a8894ec,67371d31411e2f8be82c0f24,2024-11-15_07h07.54.882,Tarea de género gramatical,2024.2.2,Win32,71.94244604,,,,,,,,,,,,,,,,,,,,,,,,383.016,384.199,a,1,0.515,,[],[],[],[],[],[],[],0.515,1,384.2,384.699,,,,,,1136,FEM,AGR,150,deuda,la,a,384.699,384.7,-0.016203704,-0.372685185,0,0,0,,0,90,90,235,1,,,,
,,,,,,3ff55828764a9275dbfbd477,66a626ef09d4e21e1a8894ec,67371d31411e2f8be82c0f24,2024-11-15_07h07.54.882,Tarea de género gramatical,2024.2.2,Win32,71.94244604,,,,,,,,,,,,,,,,,,,,,,,,384.704,385.748,a,1,0.375,,[],[],[],[],[],[],[],0.375,1,385.748,386.247,,,,,,1269,FEM,CON,150,camisa,,a,386.247,386.248,-0.016203704,-0.372685185,0,0,0,,0,91,91,368,1,,,,
,,,,,,3ff55828764a9275dbfbd477,66a626ef09d4e21e1a8894ec,67371d31411e2f8be82c0f24,2024-11-15_07h07.54.882,Tarea de género gramatical,2024.2.2,Win32,71.94244604,,,,,,,,,,,,,,,,,,,,,,,,386.251,387.316,a,1,0.396,,[],[],[],[],[],[],[],0.396,1,387.317,387.815,,,,,,1124,FEM,AGR,150,arena,la,a,387.819,387.824,-0.016203704,-0.372685185,0,0,0,,0,92,92,223,1,,,,
,,,,,,3ff55828764a9275dbfbd477,66a626ef09d4e21e1a8894ec,67371d31411e2f8be82c0f24,2024-11-15_07h07.54.882,Tarea de género gramatical,2024.2.2,Win32,71.94244604,,,,,,,,,,,,,,,,,,,,,,,,387.826,388.851,a,1,0.362,,[],[],[],[],[],[],[],0.362,1,388.852,389.337,,,,,,932,FEM,AGR,150,caja,la,a,389.337,389.337,-0.016203704,-0.372685185,0,0,0,,0,93,93,31,1,,,,
,,,,,,3ff55828764a9275dbfbd477,66a626ef09d4e21e1a8894ec,67371d31411e2f8be82c0f24,2024-11-15_07h07.54.882,Tarea de género gramatical,2024.2.2,Win32,71.94244604,,,,,,,,,,,,,,,,,,,,,,,,389.341,390.428,l,1,0.415,,[],[],[],[],[],[],[],0.415,1,390.429,390.926,,,,,,1096,MAS,DIS,150,barco,la,l,390.926,390.926,-0.016203704,-0.372685185,0,0,0,,0,94,94,195,1,,,,
,,,,,,3ff55828764a9275dbfbd477,66a626ef09d4e21e1a8894ec,67371d31411e2f8be82c0f24,2024-11-15_07h07.54.882,Tarea de género gramatical,2024.2.2,Win32,71.94244604,,,,,,,,,,,,,,,,,,,,,,,,390.928,392.255,a,0,0.654,,[],[],[],[],[],[],[],0.654,0,392.257,392.754,,,,,,1097,MAS,AGR,150,avión,el,l,392.754,392.755,-0.016203704,-0.372685185,0,0,0,,0,95,95,196,1,,,,
,,,,,,3ff55828764a9275dbfbd477,66a626ef09d4e21e1a8894ec,67371d31411e2f8be82c0f24,2024-11-15_07h07.54.882,Tarea de género gramatical,2024.2.2,Win32,71.94244604,,,,,,,,,,,,,,,,,,,,,,,,392.759,394.054,l,1,0.619,,[],[],[],[],[],[],[],0.619,1,394.058,394.547,,,,,,977,MAS,AGR,150,pico,el,l,394.55,394.554,-0.016203704,-0.372685185,0,0,0,,0,96,96,76,1,,,,
,,,,,,3ff55828764a9275dbfbd477,66a626ef09d4e21e1a8894ec,67371d31411e2f8be82c0f24,2024-11-15_07h07.54.882,Tarea de género gramatical,2024.2.2,Win32,71.94244604,,,,,,,,,,,,,,,,,,,,,,,,394.555,395.859,l,1,0.631,,[],[],[],[],[],[],[],0.631,1,395.859,396.352,,,,,,1290,MAS,CON,150,rostro,,l,396.352,396.352,-0.016203704,-0.372685185,0,0,0,,0,97,97,389,1,,,,
,,,,,,3ff55828764a9275dbfbd477,66a626ef09d4e21e1a8894ec,67371d31411e2f8be82c0f24,2024-11-15_07h07.54.882,Tarea de género gramatical,2024.2.2,Win32,71.94244604,,,,,,,,,,,,,,,,,,,,,,,,396.356,397.45,l,1,0.419,,[],[],[],[],[],[],[],0.419,1,397.453,397.96,,,,,,1133,MAS,AGR,150,golpe,el,l,397.961,397.962,-0.016203704,-0.372685185,0,0,0,,0,98,98,232,1,,,,
,,,,,,3ff55828764a9275dbfbd477,66a626ef09d4e21e1a8894ec,67371d31411e2f8be82c0f24,2024-11-15_07h07.54.882,Tarea de género gramatical,2024.2.2,Win32,71.94244604,,,,,,,,,,,,,,,,,,,,,,,,397.972,399.074,a,1,0.43,,[],[],[],[],[],[],[],0.43,1,399.077,399.574,,,,,,1069,FEM,DIS,150,vista,el,a,399.574,399.575,-0.016203704,-0.372685185,0,0,0,,0,99,99,168,1,,,,
,,,,,,3ff55828764a9275dbfbd477,66a626ef09d4e21e1a8894ec,67371d31411e2f8be82c0f24,2024-11-15_07h07.54.882,Tarea de género gramatical,2024.2.2,Win32,71.94244604,,,,,,,,,,,,,,,,,,,,,,,,399.579,400.917,l,1,0.673,,[],[],[],[],[],[],[],0.673,1,400.917,401.421,,,,,,976,MAS,DIS,150,lujo,la,l,401.421,401.422,-0.016203704,-0.372685185,0,0,0,,0,100,100,75,1,,,,
,,,,,,3ff55828764a9275dbfbd477,66a626ef09d4e21e1a8894ec,67371d31411e2f8be82c0f24,2024-11-15_07h07.54.882,Tarea de género gramatical,2024.2.2,Win32,71.94244604,,,,,,,,,,,,,,,,,,,,,,,,401.427,402.755,a,0,0.654,,[],[],[],[],[],[],[],0.654,0,402.759,403.255,,,,,,1042,MAS,DIS,150,lodo,la,l,403.258,403.263,-0.016203704,-0.372685185,0,0,0,,0,101,101,141,1,,,,
,,,,,,3ff55828764a9275dbfbd477,66a626ef09d4e21e1a8894ec,67371d31411e2f8be82c0f24,2024-11-15_07h07.54.882,Tarea de género gramatical,2024.2.2,Win32,71.94244604,,,,,,,,,,,,,,,,,,,,,,,,403.266,404.433,l,1,0.491,,[],[],[],[],[],[],[],0.491,1,404.435,404.928,,,,,,1314,MAS,CON,150,sótano,,l,404.928,404.929,-0.016203704,-0.372685185,0,0,0,,0,102,102,413,1,,,,
,,,,,,3ff55828764a9275dbfbd477,66a626ef09d4e21e1a8894ec,67371d31411e2f8be82c0f24,2024-11-15_07h07.54.882,Tarea de género gramatical,2024.2.2,Win32,71.94244604,,,,,,,,,,,,,,,,,,,,,,,,404.933,406.386,l,1,0.786,,[],[],[],[],[],[],[],0.786,1,406.388,406.886,,,,,,1128,MAS,CON,150,nivel,,l,406.886,406.887,-0.016203704,-0.372685185,0,0,0,,0,103,103,227,1,,,,
,,,,,,3ff55828764a9275dbfbd477,66a626ef09d4e21e1a8894ec,67371d31411e2f8be82c0f24,2024-11-15_07h07.54.882,Tarea de género gramatical,2024.2.2,Win32,71.94244604,,,,,,,,,,,,,,,,,,,,,,,,406.891,407.986,a,1,0.418,,[],[],[],[],[],[],[],0.418,1,407.987,408.483,,,,,,1028,FEM,AGR,150,leña,la,a,408.484,408.484,-0.016203704,-0.372685185,0,0,0,,0,104,104,127,1,,,,
,,,,,,3ff55828764a9275dbfbd477,66a626ef09d4e21e1a8894ec,67371d31411e2f8be82c0f24,2024-11-15_07h07.54.882,Tarea de género gramatical,2024.2.2,Win32,71.94244604,,,,,,,,,,,,,,,,,,,,,,,,408.488,410.117,a,1,0.958,,[],[],[],[],[],[],[],0.958,1,410.117,410.608,,,,,,1225,FEM,DIS,150,tierra,el,a,410.611,410.614,-0.016203704,-0.372685185,0,0,0,,0,105,105,324,1,,,,
,,,,,,3ff55828764a9275dbfbd477,66a626ef09d4e21e1a8894ec,67371d31411e2f8be82c0f24,2024-11-15_07h07.54.882,Tarea de género gramatical,2024.2.2,Win32,71.94244604,,,,,,,,,,,,,,,,,,,,,,,,410.616,411.784,l,1,0.501,,[],[],[],[],[],[],[],0.501,1,411.785,412.282,,,,,,1312,MAS,DIS,150,espejo,la,l,412.282,412.283,-0.016203704,-0.372685185,0,0,0,,0,106,106,411,1,,,,
,,,,,,3ff55828764a9275dbfbd477,66a626ef09d4e21e1a8894ec,67371d31411e2f8be82c0f24,2024-11-15_07h07.54.882,Tarea de género gramatical,2024.2.2,Win32,71.94244604,,,,,,,,,,,,,,,,,,,,,,,,412.286,413.366,a,1,0.405,,[],[],[],[],[],[],[],0.405,1,413.367,413.858,,,,,,1244,FEM,AGR,150,pareja,la,a,413.858,413.859,-0.016203704,-0.372685185,0,0,0,,0,107,107,343,1,,,,
,,,,,,3ff55828764a9275dbfbd477,66a626ef09d4e21e1a8894ec,67371d31411e2f8be82c0f24,2024-11-15_07h07.54.882,Tarea de género gramatical,2024.2.2,Win32,71.94244604,,,,,,,,,,,,,,,,,,,,,,,,413.863,414.99,a,1,0.458,,[],[],[],[],[],[],[],0.458,1,414.99,415.483,,,,,,1245,FEM,CON,150,pierna,,a,415.483,415.484,-0.016203704,-0.372685185,0,0,0,,0,108,108,344,1,,,,
,,,,,,3ff55828764a9275dbfbd477,66a626ef09d4e21e1a8894ec,67371d31411e2f8be82c0f24,2024-11-15_07h07.54.882,Tarea de género gramatical,2024.2.2,Win32,71.94244604,,,,,,,,,,,,,,,,,,,,,,,,415.487,416.7,l,1,0.542,,[],[],[],[],[],[],[],0.542,1,416.7,417.198,,,,,,940,MAS,DIS,150,dios,la,l,417.198,417.198,-0.016203704,-0.372685185,0,0,0,,0,109,109,39,1,,,,
,,,,,,3ff55828764a9275dbfbd477,66a626ef09d4e21e1a8894ec,67371d31411e2f8be82c0f24,2024-11-15_07h07.54.882,Tarea de género gramatical,2024.2.2,Win32,71.94244604,,,,,,,,,,,,,,,,,,,,,,,,417.201,418.325,a,1,0.453,,[],[],[],[],[],[],[],0.453,1,418.327,418.829,,,,,,1064,FEM,AGR,150,novia,la,a,418.833,418.836,-0.016203704,-0.372685185,0,0,0,,0,110,110,163,1,,,,
,,,,,,3ff55828764a9275dbfbd477,66a626ef09d4e21e1a8894ec,67371d31411e2f8be82c0f24,2024-11-15_07h07.54.882,Tarea de género gramatical,2024.2.2,Win32,71.94244604,,,,,,,,,,,,,,,,,,,,,,,,418.838,419.936,l,1,0.425,,[],[],[],[],[],[],[],0.425,1,419.936,420.441,,,,,,1296,MAS,CON,150,tesoro,,l,420.441,420.442,-0.016203704,-0.372685185,0,0,0,,0,111,111,395,1,,,,
,,,,,,3ff55828764a9275dbfbd477,66a626ef09d4e21e1a8894ec,67371d31411e2f8be82c0f24,2024-11-15_07h07.54.882,Tarea de género gramatical,2024.2.2,Win32,71.94244604,,,,,,,,,,,,,,,,,,,,,,,,420.446,421.474,a,1,0.358,,[],[],[],[],[],[],[],0.358,1,421.474,421.976,,,,,,1029,FEM,CON,150,rana,,a,421.977,421.977,-0.016203704,-0.372685185,0,0,0,,0,112,112,128,1,,,,
,,,,,,3ff55828764a9275dbfbd477,66a626ef09d4e21e1a8894ec,67371d31411e2f8be82c0f24,2024-11-15_07h07.54.882,Tarea de género gramatical,2024.2.2,Win32,71.94244604,,,,,,,,,,,,,,,,,,,,,,,,421.98,423.241,l,1,0.591,,[],[],[],[],[],[],[],0.591,1,423.242,423.739,,,,,,989,MAS,AGR,150,maíz,el,l,423.739,423.74,-0.016203704,-0.372685185,0,0,0,,0,113,113,88,1,,,,
,,,,,,3ff55828764a9275dbfbd477,66a626ef09d4e21e1a8894ec,67371d31411e2f8be82c0f24,2024-11-15_07h07.54.882,Tarea de género gramatical,2024.2.2,Win32,71.94244604,,,,,,,,,,,,,,,,,,,,,,,,423.744,425.317,a,0,0.903,,[],[],[],[],[],[],[],0.903,0,425.32,425.816,,,,,,1090,MAS,DIS,150,campo,la,l,425.818,425.822,-0.016203704,-0.372685185,0,0,0,,0,114,114,189,1,,,,
,,,,,,3ff55828764a9275dbfbd477,66a626ef09d4e21e1a8894ec,67371d31411e2f8be82c0f24,2024-11-15_07h07.54.882,Tarea de género gramatical,2024.2.2,Win32,71.94244604,,,,,,,,,,,,,,,,,,,,,,,,425.824,427.36,l,0,0.857,,[],[],[],[],[],[],[],0.857,0,427.36,427.864,,,,,,1045,FEM,DIS,150,bota,el,a,427.864,427.865,-0.016203704,-0.372685185,0,0,0,,0,115,115,144,1,,,,
,,,,,,3ff55828764a9275dbfbd477,66a626ef09d4e21e1a8894ec,67371d31411e2f8be82c0f24,2024-11-15_07h07.54.882,Tarea de género gramatical,2024.2.2,Win32,71.94244604,,,,,,,,,,,,,,,,,,,,,,,,427.869,429.045,l,1,0.512,,[],[],[],[],[],[],[],0.512,1,429.047,429.546,,,,,,1062,MAS,CON,150,miedo,,l,429.546,429.547,-0.016203704,-0.372685185,0,0,0,,0,116,116,161,1,,,,
,,,,,,3ff55828764a9275dbfbd477,66a626ef09d4e21e1a8894ec,67371d31411e2f8be82c0f24,2024-11-15_07h07.54.882,Tarea de género gramatical,2024.2.2,Win32,71.94244604,,,,,,,,,,,,,,,,,,,,,,,,429.55,430.868,a,0,0.647,,[],[],[],[],[],[],[],0.647,0,430.872,431.374,,,,,,1079,MAS,AGR,150,viaje,el,l,431.375,431.378,-0.016203704,-0.372685185,0,0,0,,0,117,117,178,1,,,,
,,,,,,3ff55828764a9275dbfbd477,66a626ef09d4e21e1a8894ec,67371d31411e2f8be82c0f24,2024-11-15_07h07.54.882,Tarea de género gramatical,2024.2.2,Win32,71.94244604,,,,,,,,,,,,,,,,,,,,,,,,431.385,432.505,l,1,0.453,,[],[],[],[],[],[],[],0.453,1,432.51,432.997,,,,,,904,MAS,DIS,150,hijo,la,l,432.998,432.998,-0.016203704,-0.372685185,0,0,0,,0,118,118,3,1,,,,
,,,,,,3ff55828764a9275dbfbd477,66a626ef09d4e21e1a8894ec,67371d31411e2f8be82c0f24,2024-11-15_07h07.54.882,Tarea de género gramatical,2024.2.2,Win32,71.94244604,,,,,,,,,,,,,,,,,,,,,,,,433.002,434.236,l,1,0.564,,[],[],[],[],[],[],[],0.564,1,434.237,434.733,,,,,,1181,MAS,AGR,150,actor,el,l,434.738,434.743,-0.016203704,-0.372685185,0,0,0,,0,119,119,280,1,,,,
,,,,,,3ff55828764a9275dbfbd477,66a626ef09d4e21e1a8894ec,67371d31411e2f8be82c0f24,2024-11-15_07h07.54.882,Tarea de género gramatical,2024.2.2,Win32,71.94244604,,,,,,,,,,,,,,,,,,,,,,,,434.745,436.122,a,1,0.709,,[],[],[],[],[],[],[],0.709,1,436.122,436.615,,,,,,987,FEM,CON,150,risa,,a,436.615,436.615,-0.016203704,-0.372685185,0,0,0,,0,120,120,86,1,,,,
,,,,,,3ff55828764a9275dbfbd477,66a626ef09d4e21e1a8894ec,67371d31411e2f8be82c0f24,2024-11-15_07h07.54.882,Tarea de género gramatical,2024.2.2,Win32,71.94244604,,,,,,,,,,,,,,,,,,,,,,,,436.62,437.803,a,1,0.508,,[],[],[],[],[],[],[],0.508,1,437.804,438.303,,,,,,1040,FEM,AGR,150,mula,la,a,438.303,438.304,-0.016203704,-0.372685185,0,0,0,,0,121,121,139,1,,,,
,,,,,,3ff55828764a9275dbfbd477,66a626ef09d4e21e1a8894ec,67371d31411e2f8be82c0f24,2024-11-15_07h07.54.882,Tarea de género gramatical,2024.2.2,Win32,71.94244604,,,,,,,,,,,,,,,,,,,,,,,,438.307,439.623,l,0,0.64,,[],[],[],[],[],[],[],0.64,0,439.626,440.121,,,,,,1291,FEM,DIS,150,altura,el,a,440.122,440.122,-0.016203704,-0.372685185,0,0,0,,0,122,122,390,1,,,,
,,,,,,3ff55828764a9275dbfbd477,66a626ef09d4e21e1a8894ec,67371d31411e2f8be82c0f24,2024-11-15_07h07.54.882,Tarea de género gramatical,2024.2.2,Win32,71.94244604,,,,,,,,,,,,,,,,,,,,,,,,440.126,441.421,l,1,0.62,,[],[],[],[],[],[],[],0.62,1,441.426,441.913,,,,,,1217,MAS,AGR,150,número,el,l,441.915,441.919,-0.016203704,-0.372685185,0,0,0,,0,123,123,316,1,,,,
,,,,,,3ff55828764a9275dbfbd477,66a626ef09d4e21e1a8894ec,67371d31411e2f8be82c0f24,2024-11-15_07h07.54.882,Tarea de género gramatical,2024.2.2,Win32,71.94244604,,,,,,,,,,,,,,,,,,,,,,,,441.921,443.316,l,1,0.729,,[],[],[],[],[],[],[],0.729,1,443.317,443.816,,,,,,1210,MAS,DIS,150,nombre,la,l,443.816,443.817,-0.016203704,-0.372685185,0,0,0,,0,124,124,309,1,,,,
,,,,,,3ff55828764a9275dbfbd477,66a626ef09d4e21e1a8894ec,67371d31411e2f8be82c0f24,2024-11-15_07h07.54.882,Tarea de género gramatical,2024.2.2,Win32,71.94244604,,,,,,,,,,,,,,,,,,,,,,,,443.82,445.157,a,1,0.667,,[],[],[],[],[],[],[],0.667,1,445.157,445.682,,,,,,1341,FEM,CON,150,medida,,a,445.682,445.683,-0.016203704,-0.372685185,0,0,0,,0,125,125,440,1,,,,
,,,,,,3ff55828764a9275dbfbd477,66a626ef09d4e21e1a8894ec,67371d31411e2f8be82c0f24,2024-11-15_07h07.54.882,Tarea de género gramatical,2024.2.2,Win32,71.94244604,,,,,,,,,,,,,,,,,,,,,,,,445.684,446.914,l,0,0.557,,[],[],[],[],[],[],[],0.557,0,446.917,447.406,,,,,,1135,FEM,DIS,150,torre,el,a,447.406,447.407,-0.016203704,-0.372685185,0,0,0,,0,126,126,234,1,,,,
,,,,,,3ff55828764a9275dbfbd477,66a626ef09d4e21e1a8894ec,67371d31411e2f8be82c0f24,2024-11-15_07h07.54.882,Tarea de género gramatical,2024.2.2,Win32,71.94244604,,,,,,,,,,,,,,,,,,,,,,,,447.411,448.38,a,1,0.306,,[],[],[],[],[],[],[],0.306,1,448.382,448.871,,,,,,1047,FEM,CON,150,grúa,,a,448.871,448.872,-0.016203704,-0.372685185,0,0,0,,0,127,127,146,1,,,,
,,,,,,3ff55828764a9275dbfbd477,66a626ef09d4e21e1a8894ec,67371d31411e2f8be82c0f24,2024-11-15_07h07.54.882,Tarea de género gramatical,2024.2.2,Win32,71.94244604,,,,,,,,,,,,,,,,,,,,,,,,448.877,449.921,a,0,0.369,,[],[],[],[],[],[],[],0.369,0,449.927,450.413,,,,,,1026,MAS,CON,150,lazo,,l,450.416,450.42,-0.016203704,-0.372685185,0,0,0,,0,128,128,125,1,,,,
,,,,,,3ff55828764a9275dbfbd477,66a626ef09d4e21e1a8894ec,67371d31411e2f8be82c0f24,2024-11-15_07h07.54.882,Tarea de género gramatical,2024.2.2,Win32,71.94244604,,,,,,,,,,,,,,,,,,,,,,,,450.423,452.267,l,1,1.172,,[],[],[],[],[],[],[],1.172,1,452.271,452.767,,,,,,1080,MAS,CON,150,fuego,,l,452.767,452.768,-0.016203704,-0.372685185,0,0,0,,0,129,129,179,1,,,,
,,,,,,3ff55828764a9275dbfbd477,66a626ef09d4e21e1a8894ec,67371d31411e2f8be82c0f24,2024-11-15_07h07.54.882,Tarea de género gramatical,2024.2.2,Win32,71.94244604,,,,,,,,,,,,,,,,,,,,,,,,452.772,453.969,a,0,0.537,,[],[],[],[],[],[],[],0.537,0,453.971,454.469,,,,,,1276,MAS,DIS,150,efecto,la,l,454.469,454.469,-0.016203704,-0.372685185,0,0,0,,0,130,130,375,1,,,,
,,,,,,3ff55828764a9275dbfbd477,66a626ef09d4e21e1a8894ec,67371d31411e2f8be82c0f24,2024-11-15_07h07.54.882,Tarea de género gramatical,2024.2.2,Win32,71.94244604,,,,,,,,,,,,,,,,,,,,,,,,454.472,455.642,a,0,0.5,,[],[],[],[],[],[],[],0.5,0,455.643,456.142,,,,,,1109,MAS,AGR,150,banco,el,l,456.142,456.143,-0.016203704,-0.372685185,0,0,0,,0,131,131,208,1,,,,
,,,,,,3ff55828764a9275dbfbd477,66a626ef09d4e21e1a8894ec,67371d31411e2f8be82c0f24,2024-11-15_07h07.54.882,Tarea de género gramatical,2024.2.2,Win32,71.94244604,,,,,,,,,,,,,,,,,,,,,,,,456.147,457.913,l,1,1.095,,[],[],[],[],[],[],[],1.095,1,457.917,458.416,,,,,,924,MAS,CON,150,voto,,l,458.417,458.419,-0.016203704,-0.372685185,0,0,0,,0,132,132,23,1,,,,
,,,,,,3ff55828764a9275dbfbd477,66a626ef09d4e21e1a8894ec,67371d31411e2f8be82c0f24,2024-11-15_07h07.54.882,Tarea de género gramatical,2024.2.2,Win32,71.94244604,,,,,,,,,,,,,,,,,,,,,,,,458.421,461.065,,0,,,[],[],[],[],[],[],[],1.095,-1,461.068,461.565,,,,,,1231,FEM,DIS,150,cárcel,el,a,461.565,461.566,-0.016203704,-0.372685185,0,0,0,,0,133,133,330,1,,,,
,,,,,,3ff55828764a9275dbfbd477,66a626ef09d4e21e1a8894ec,67371d31411e2f8be82c0f24,2024-11-15_07h07.54.882,Tarea de género gramatical,2024.2.2,Win32,71.94244604,,,,,,,,,,,,,,,,,,,,,,,,461.57,464.208,,0,,,[],[],[],[],[],[],[],1.095,-1,464.209,464.686,,,,,,1115,MAS,AGR,150,hueso,el,l,464.686,464.686,-0.016203704,-0.372685185,0,0,0,,0,134,134,214,1,,,,
,,,,,,3ff55828764a9275dbfbd477,66a626ef09d4e21e1a8894ec,67371d31411e2f8be82c0f24,2024-11-15_07h07.54.882,Tarea de género gramatical,2024.2.2,Win32,71.94244604,,,,,,,,,,,,,,,,,,,,,,,,464.688,466.066,a,1,0.701,,[],[],[],[],[],[],[],0.701,1,466.068,466.565,,,,,,1243,FEM,DIS,150,trampa,el,a,466.565,466.566,-0.016203704,-0.372685185,0,0,0,,0,135,135,342,1,,,,
,,,,,,3ff55828764a9275dbfbd477,66a626ef09d4e21e1a8894ec,67371d31411e2f8be82c0f24,2024-11-15_07h07.54.882,Tarea de género gramatical,2024.2.2,Win32,71.94244604,,,,,,,,,,,,,,,,,,,,,,,,466.568,467.837,l,1,0.603,,[],[],[],[],[],[],[],0.603,1,467.838,468.336,,,,,,936,MAS,CON,150,dedo,,l,468.336,468.336,-0.016203704,-0.372685185,0,0,0,,0,136,136,35,1,,,,
,,,,,,3ff55828764a9275dbfbd477,66a626ef09d4e21e1a8894ec,67371d31411e2f8be82c0f24,2024-11-15_07h07.54.882,Tarea de género gramatical,2024.2.2,Win32,71.94244604,,,,,,,,,,,,,,,,,,,,,,,,468.34,469.721,l,1,0.709,,[],[],[],[],[],[],[],0.709,1,469.725,470.227,,,,,,1295,MAS,AGR,150,correo,el,l,470.236,470.246,-0.016203704,-0.372685185,0,0,0,,0,137,137,394,1,,,,
,,,,,,3ff55828764a9275dbfbd477,66a626ef09d4e21e1a8894ec,67371d31411e2f8be82c0f24,2024-11-15_07h07.54.882,Tarea de género gramatical,2024.2.2,Win32,71.94244604,,,,,,,,,,,,,,,,,,,,,,,,470.253,471.546,l,1,0.62,,[],[],[],[],[],[],[],0.62,1,471.547,472.045,,,,,,1019,MAS,AGR,150,mito,el,l,472.045,472.046,-0.016203704,-0.372685185,0,0,0,,0,138,138,118,1,,,,
,,,,,,3ff55828764a9275dbfbd477,66a626ef09d4e21e1a8894ec,67371d31411e2f8be82c0f24,2024-11-15_07h07.54.882,Tarea de género gramatical,2024.2.2,Win32,71.94244604,,,,,,,,,,,,,,,,,,,,,,,,472.05,473.198,a,1,0.473,,[],[],[],[],[],[],[],0.473,1,473.199,473.691,,,,,,1329,FEM,CON,150,fianza,,a,473.691,473.692,-0.016203704,-0.372685185,0,0,0,,0,139,139,428,1,,,,
,,,,,,3ff55828764a9275dbfbd477,66a626ef09d4e21e1a8894ec,67371d31411e2f8be82c0f24,2024-11-15_07h07.54.882,Tarea de género gramatical,2024.2.2,Win32,71.94244604,,,,,,,,,,,,,,,,,,,,,,,,473.696,474.788,a,1,0.425,,[],[],[],[],[],[],[],0.425,1,474.788,475.287,,,,,,915,FEM,CON,150,cama,,a,475.287,475.288,-0.016203704,-0.372685185,0,0,0,,0,140,140,14,1,,,,
,,,,,,3ff55828764a9275dbfbd477,66a626ef09d4e21e1a8894ec,67371d31411e2f8be82c0f24,2024-11-15_07h07.54.882,Tarea de género gramatical,2024.2.2,Win32,71.94244604,,,,,,,,,,,,,,,,,,,,,,,,475.292,476.385,a,1,0.431,,[],[],[],[],[],[],[],0.431,1,476.386,476.878,,,,,,902,FEM,AGR,150,vida,la,a,476.881,476.887,-0.016203704,-0.372685185,0,0,0,,0,141,141,1,1,,,,
,,,,,,3ff55828764a9275dbfbd477,66a626ef09d4e21e1a8894ec,67371d31411e2f8be82c0f24,2024-11-15_07h07.54.882,Tarea de género gramatical,2024.2.2,Win32,71.94244604,,,,,,,,,,,,,,,,,,,,,,,,476.89,478.018,a,1,0.459,,[],[],[],[],[],[],[],0.459,1,478.018,478.516,,,,,,933,FEM,CON,150,boda,,a,478.517,478.517,-0.016203704,-0.372685185,0,0,0,,0,142,142,32,1,,,,
,,,,,,3ff55828764a9275dbfbd477,66a626ef09d4e21e1a8894ec,67371d31411e2f8be82c0f24,2024-11-15_07h07.54.882,Tarea de género gramatical,2024.2.2,Win32,71.94244604,,,,,,,,,,,,,,,,,,,,,,,,478.521,479.835,l,1,0.647,,[],[],[],[],[],[],[],0.647,1,479.836,480.336,,,,,,1056,MAS,CON,150,amigo,,l,480.336,480.337,-0.016203704,-0.372685185,0,0,0,,0,143,143,155,1,,,,
,,,,,,3ff55828764a9275dbfbd477,66a626ef09d4e21e1a8894ec,67371d31411e2f8be82c0f24,2024-11-15_07h07.54.882,Tarea de género gramatical,2024.2.2,Win32,71.94244604,,,,,,,,,,,,,,,,,,,,,,,,480.341,481.371,a,1,0.36,,[],[],[],[],[],[],[],0.36,1,481.372,481.864,,,,,,969,FEM,CON,150,rata,,a,481.864,481.865,-0.016203704,-0.372685185,0,0,0,,0,144,144,68,1,,,,
,,,,,,3ff55828764a9275dbfbd477,66a626ef09d4e21e1a8894ec,67371d31411e2f8be82c0f24,2024-11-15_07h07.54.882,Tarea de género gramatical,2024.2.2,Win32,71.94244604,,,,,,,,,,,,,,,,,,,,,,,,481.868,483.17,a,0,0.633,,[],[],[],[],[],[],[],0.633,0,483.175,483.662,,,,,,1150,MAS,DIS,150,cerdo,la,l,483.662,483.662,-0.016203704,-0.372685185,0,0,0,,0,145,145,249,1,,,,
,,,,,,3ff55828764a9275dbfbd477,66a626ef09d4e21e1a8894ec,67371d31411e2f8be82c0f24,2024-11-15_07h07.54.882,Tarea de género gramatical,2024.2.2,Win32,71.94244604,,,,,,,,,,,,,,,,,,,,,,,,483.665,485.308,l,1,0.972,,[],[],[],[],[],[],[],0.972,1,485.309,485.801,,,,,,1121,MAS,AGR,150,brazo,el,l,485.805,485.808,-0.016203704,-0.372685185,0,0,0,,0,146,146,220,1,,,,
,,,,,,3ff55828764a9275dbfbd477,66a626ef09d4e21e1a8894ec,67371d31411e2f8be82c0f24,2024-11-15_07h07.54.882,Tarea de género gramatical,2024.2.2,Win32,71.94244604,,,,,,,,,,,,,,,,,,,,,,,,485.81,486.997,a,1,0.509,,[],[],[],[],[],[],[],0.509,1,486.997,487.498,,,,,,1063,FEM,DIS,150,calle,el,a,487.498,487.5,-0.016203704,-0.372685185,0,0,0,,0,147,147,162,1,,,,
,,,,,,3ff55828764a9275dbfbd477,66a626ef09d4e21e1a8894ec,67371d31411e2f8be82c0f24,2024-11-15_07h07.54.882,Tarea de género gramatical,2024.2.2,Win32,71.94244604,,,,,,,,,,,,,,,,,,,,,,,,487.501,488.698,l,1,0.52,,[],[],[],[],[],[],[],0.52,1,488.7,489.19,,,,,,990,MAS,CON,150,león,,l,489.19,489.19,-0.016203704,-0.372685185,0,0,0,,0,148,148,89,1,,,,
,,,,,,3ff55828764a9275dbfbd477,66a626ef09d4e21e1a8894ec,67371d31411e2f8be82c0f24,2024-11-15_07h07.54.882,Tarea de género gramatical,2024.2.2,Win32,71.94244604,,,,,,,,,,,,,,,,,,,,,,,,489.194,490.706,l,1,0.843,,[],[],[],[],[],[],[],0.843,1,490.706,491.206,,,,,,1211,MAS,AGR,150,camino,el,l,491.206,491.207,-0.016203704,-0.372685185,0,0,0,,0,149,149,310,1,,,,
,,,,,,3ff55828764a9275dbfbd477,66a626ef09d4e21e1a8894ec,67371d31411e2f8be82c0f24,2024-11-15_07h07.54.882,Tarea de género gramatical,2024.2.2,Win32,71.94244604,,,,,,,,,,,,,,,,,,,,,,,,491.21,492.39,a,0,0.507,,[],[],[],[],[],[],[],0.507,0,492.393,492.884,,,,,,958,MAS,DIS,150,mono,la,l,492.887,569.335,-0.016203704,-0.372685185,0,0,0,space,0,150,150,57,1,76.4,,,
,,,,,,3ff55828764a9275dbfbd477,66a626ef09d4e21e1a8894ec,67371d31411e2f8be82c0f24,2024-11-15_07h07.54.882,Tarea de género gramatical,2024.2.2,Win32,71.94244604,,,,,,,,,,,,,,,,,,,,,,,,569.354,570.433,a,0,0.418,,[],[],[],[],[],[],[],0.418,0,570.436,570.935,,,,,,965,MAS,AGR,150,rayo,el,l,570.936,570.936,-0.016203704,-0.372685185,0,0,0,,0,151,151,64,1,,,,
,,,,,,3ff55828764a9275dbfbd477,66a626ef09d4e21e1a8894ec,67371d31411e2f8be82c0f24,2024-11-15_07h07.54.882,Tarea de género gramatical,2024.2.2,Win32,71.94244604,,,,,,,,,,,,,,,,,,,,,,,,570.939,572.037,l,1,0.432,,[],[],[],[],[],[],[],0.432,1,572.041,572.536,,,,,,1103,MAS,AGR,150,novio,el,l,572.536,572.536,-0.016203704,-0.372685185,0,0,0,,0,152,152,202,1,,,,
,,,,,,3ff55828764a9275dbfbd477,66a626ef09d4e21e1a8894ec,67371d31411e2f8be82c0f24,2024-11-15_07h07.54.882,Tarea de género gramatical,2024.2.2,Win32,71.94244604,,,,,,,,,,,,,,,,,,,,,,,,572.539,573.688,a,0,0.487,,[],[],[],[],[],[],[],0.487,0,573.695,574.188,,,,,,1104,MAS,CON,150,papel,,l,574.188,574.188,-0.016203704,-0.372685185,0,0,0,,0,153,153,203,1,,,,
,,,,,,3ff55828764a9275dbfbd477,66a626ef09d4e21e1a8894ec,67371d31411e2f8be82c0f24,2024-11-15_07h07.54.882,Tarea de género gramatical,2024.2.2,Win32,71.94244604,,,,,,,,,,,,,,,,,,,,,,,,574.192,575.419,l,1,0.557,,[],[],[],[],[],[],[],0.557,1,575.422,575.91,,,,,,953,MAS,AGR,150,vaso,el,l,575.91,575.911,-0.016203704,-0.372685185,0,0,0,,0,154,154,52,1,,,,
,,,,,,3ff55828764a9275dbfbd477,66a626ef09d4e21e1a8894ec,67371d31411e2f8be82c0f24,2024-11-15_07h07.54.882,Tarea de género gramatical,2024.2.2,Win32,71.94244604,,,,,,,,,,,,,,,,,,,,,,,,575.915,577.05,l,1,0.474,,[],[],[],[],[],[],[],0.474,1,577.051,577.544,,,,,,1301,MAS,AGR,150,abrigo,el,l,577.547,577.551,-0.016203704,-0.372685185,0,0,0,,0,155,155,400,1,,,,
,,,,,,3ff55828764a9275dbfbd477,66a626ef09d4e21e1a8894ec,67371d31411e2f8be82c0f24,2024-11-15_07h07.54.882,Tarea de género gramatical,2024.2.2,Win32,71.94244604,,,,,,,,,,,,,,,,,,,,,,,,577.555,579.023,l,1,0.801,,[],[],[],[],[],[],[],0.801,1,579.023,579.515,,,,,,1277,MAS,AGR,150,jardín,el,l,579.515,579.515,-0.016203704,-0.372685185,0,0,0,,0,156,156,376,1,,,,
,,,,,,3ff55828764a9275dbfbd477,66a626ef09d4e21e1a8894ec,67371d31411e2f8be82c0f24,2024-11-15_07h07.54.882,Tarea de género gramatical,2024.2.2,Win32,71.94244604,,,,,,,,,,,,,,,,,,,,,,,,579.519,580.606,l,1,0.419,,[],[],[],[],[],[],[],0.419,1,580.607,581.109,,,,,,1002,MAS,CON,150,coro,,l,581.109,581.109,-0.016203704,-0.372685185,0,0,0,,0,157,157,101,1,,,,
,,,,,,3ff55828764a9275dbfbd477,66a626ef09d4e21e1a8894ec,67371d31411e2f8be82c0f24,2024-11-15_07h07.54.882,Tarea de género gramatical,2024.2.2,Win32,71.94244604,,,,,,,,,,,,,,,,,,,,,,,,581.111,582.188,a,1,0.405,,[],[],[],[],[],[],[],0.405,1,582.191,582.682,,,,,,1262,FEM,AGR,150,fuente,la,a,582.683,582.686,-0.016203704,-0.372685185,0,0,0,,0,158,158,361,1,,,,
,,,,,,3ff55828764a9275dbfbd477,66a626ef09d4e21e1a8894ec,67371d31411e2f8be82c0f24,2024-11-15_07h07.54.882,Tarea de género gramatical,2024.2.2,Win32,71.94244604,,,,,,,,,,,,,,,,,,,,,,,,582.695,583.746,l,1,0.378,,[],[],[],[],[],[],[],0.378,1,583.747,584.237,,,,,,1012,MAS,DIS,150,reto,la,l,584.24,584.245,-0.016203704,-0.372685185,0,0,0,,0,159,159,111,1,,,,
,,,,,,3ff55828764a9275dbfbd477,66a626ef09d4e21e1a8894ec,67371d31411e2f8be82c0f24,2024-11-15_07h07.54.882,Tarea de género gramatical,2024.2.2,Win32,71.94244604,,,,,,,,,,,,,,,,,,,,,,,,584.248,585.287,a,1,0.362,,[],[],[],[],[],[],[],0.362,1,585.287,585.785,,,,,,920,FEM,AGR,150,ropa,la,a,585.785,585.786,-0.016203704,-0.372685185,0,0,0,,0,160,160,19,1,,,,
,,,,,,3ff55828764a9275dbfbd477,66a626ef09d4e21e1a8894ec,67371d31411e2f8be82c0f24,2024-11-15_07h07.54.882,Tarea de género gramatical,2024.2.2,Win32,71.94244604,,,,,,,,,,,,,,,,,,,,,,,,585.794,586.836,a,1,0.377,,[],[],[],[],[],[],[],0.377,1,586.837,587.34,,,,,,1021,FEM,DIS,150,pila,el,a,587.34,587.341,-0.016203704,-0.372685185,0,0,0,,0,161,161,120,1,,,,
,,,,,,3ff55828764a9275dbfbd477,66a626ef09d4e21e1a8894ec,67371d31411e2f8be82c0f24,2024-11-15_07h07.54.882,Tarea de género gramatical,2024.2.2,Win32,71.94244604,,,,,,,,,,,,,,,,,,,,,,,,587.345,588.383,l,1,0.362,,[],[],[],[],[],[],[],0.362,1,588.384,588.882,,,,,,922,MAS,DIS,150,pelo,la,l,588.882,588.882,-0.016203704,-0.372685185,0,0,0,,0,162,162,21,1,,,,
,,,,,,3ff55828764a9275dbfbd477,66a626ef09d4e21e1a8894ec,67371d31411e2f8be82c0f24,2024-11-15_07h07.54.882,Tarea de género gramatical,2024.2.2,Win32,71.94244604,,,,,,,,,,,,,,,,,,,,,,,,588.887,589.947,l,1,0.39,,[],[],[],[],[],[],[],0.39,1,589.947,590.445,,,,,,1206,MAS,CON,150,dinero,,l,590.445,590.445,-0.016203704,-0.372685185,0,0,0,,0,163,163,305,1,,,,
,,,,,,3ff55828764a9275dbfbd477,66a626ef09d4e21e1a8894ec,67371d31411e2f8be82c0f24,2024-11-15_07h07.54.882,Tarea de género gramatical,2024.2.2,Win32,71.94244604,,,,,,,,,,,,,,,,,,,,,,,,590.449,591.653,l,1,0.536,,[],[],[],[],[],[],[],0.536,1,591.655,592.153,,,,,,1066,MAS,DIS,150,coche,la,l,592.155,592.161,-0.016203704,-0.372685185,0,0,0,,0,164,164,165,1,,,,
,,,,,,3ff55828764a9275dbfbd477,66a626ef09d4e21e1a8894ec,67371d31411e2f8be82c0f24,2024-11-15_07h07.54.882,Tarea de género gramatical,2024.2.2,Win32,71.94244604,,,,,,,,,,,,,,,,,,,,,,,,592.162,593.217,a,1,0.391,,[],[],[],[],[],[],[],0.391,1,593.218,593.716,,,,,,1058,FEM,AGR,150,chica,la,a,593.716,593.716,-0.016203704,-0.372685185,0,0,0,,0,165,165,157,1,,,,
,,,,,,3ff55828764a9275dbfbd477,66a626ef09d4e21e1a8894ec,67371d31411e2f8be82c0f24,2024-11-15_07h07.54.882,Tarea de género gramatical,2024.2.2,Win32,71.94244604,,,,,,,,,,,,,,,,,,,,,,,,593.72,594.735,a,1,0.352,,[],[],[],[],[],[],[],0.352,1,594.735,595.236,,,,,,1004,FEM,AGR,150,vela,la,a,595.236,595.236,-0.016203704,-0.372685185,0,0,0,,0,166,166,103,1,,,,
,,,,,,3ff55828764a9275dbfbd477,66a626ef09d4e21e1a8894ec,67371d31411e2f8be82c0f24,2024-11-15_07h07.54.882,Tarea de género gramatical,2024.2.2,Win32,71.94244604,,,,,,,,,,,,,,,,,,,,,,,,595.24,596.266,l,1,0.361,,[],[],[],[],[],[],[],0.361,1,596.266,596.764,,,,,,1235,MAS,AGR,150,montón,el,l,596.764,596.765,-0.016203704,-0.372685185,0,0,0,,0,167,167,334,1,,,,
,,,,,,3ff55828764a9275dbfbd477,66a626ef09d4e21e1a8894ec,67371d31411e2f8be82c0f24,2024-11-15_07h07.54.882,Tarea de género gramatical,2024.2.2,Win32,71.94244604,,,,,,,,,,,,,,,,,,,,,,,,596.768,597.79,a,0,0.342,,[],[],[],[],[],[],[],0.342,0,597.792,598.292,,,,,,934,MAS,DIS,150,gato,la,l,598.295,598.299,-0.016203704,-0.372685185,0,0,0,,0,168,168,33,1,,,,
,,,,,,3ff55828764a9275dbfbd477,66a626ef09d4e21e1a8894ec,67371d31411e2f8be82c0f24,2024-11-15_07h07.54.882,Tarea de género gramatical,2024.2.2,Win32,71.94244604,,,,,,,,,,,,,,,,,,,,,,,,598.3,599.459,a,1,0.487,,[],[],[],[],[],[],[],0.487,1,599.461,599.951,,,,,,1227,FEM,CON,150,tienda,,a,599.951,599.952,-0.016203704,-0.372685185,0,0,0,,0,169,169,326,1,,,,
,,,,,,3ff55828764a9275dbfbd477,66a626ef09d4e21e1a8894ec,67371d31411e2f8be82c0f24,2024-11-15_07h07.54.882,Tarea de género gramatical,2024.2.2,Win32,71.94244604,,,,,,,,,,,,,,,,,,,,,,,,599.956,601.216,l,1,0.598,,[],[],[],[],[],[],[],0.598,1,601.216,601.716,,,,,,1228,MAS,DIS,150,asunto,la,l,601.716,601.717,-0.016203704,-0.372685185,0,0,0,,0,170,170,327,1,,,,
,,,,,,3ff55828764a9275dbfbd477,66a626ef09d4e21e1a8894ec,67371d31411e2f8be82c0f24,2024-11-15_07h07.54.882,Tarea de género gramatical,2024.2.2,Win32,71.94244604,,,,,,,,,,,,,,,,,,,,,,,,601.721,603.105,l,1,0.717,,[],[],[],[],[],[],[],0.717,1,603.107,603.597,,,,,,946,MAS,DIS,150,odio,la,l,603.597,603.597,-0.016203704,-0.372685185,0,0,0,,0,171,171,45,1,,,,
,,,,,,3ff55828764a9275dbfbd477,66a626ef09d4e21e1a8894ec,67371d31411e2f8be82c0f24,2024-11-15_07h07.54.882,Tarea de género gramatical,2024.2.2,Win32,71.94244604,,,,,,,,,,,,,,,,,,,,,,,,603.601,604.972,a,1,0.701,,[],[],[],[],[],[],[],0.701,1,604.973,605.466,,,,,,1339,FEM,DIS,150,toalla,el,a,605.466,605.467,-0.016203704,-0.372685185,0,0,0,,0,172,172,438,1,,,,
,,,,,,3ff55828764a9275dbfbd477,66a626ef09d4e21e1a8894ec,67371d31411e2f8be82c0f24,2024-11-15_07h07.54.882,Tarea de género gramatical,2024.2.2,Win32,71.94244604,,,,,,,,,,,,,,,,,,,,,,,,605.47,606.787,l,1,0.648,,[],[],[],[],[],[],[],0.648,1,606.787,607.285,,,,,,1302,MAS,CON,150,ladrón,,l,607.289,607.292,-0.016203704,-0.372685185,0,0,0,,0,173,173,401,1,,,,
,,,,,,3ff55828764a9275dbfbd477,66a626ef09d4e21e1a8894ec,67371d31411e2f8be82c0f24,2024-11-15_07h07.54.882,Tarea de género gramatical,2024.2.2,Win32,71.94244604,,,,,,,,,,,,,,,,,,,,,,,,607.293,608.404,a,1,0.439,,[],[],[],[],[],[],[],0.439,1,608.404,608.895,,,,,,939,FEM,CON,150,luna,,a,608.895,608.895,-0.016203704,-0.372685185,0,0,0,,0,174,174,38,1,,,,
,,,,,,3ff55828764a9275dbfbd477,66a626ef09d4e21e1a8894ec,67371d31411e2f8be82c0f24,2024-11-15_07h07.54.882,Tarea de género gramatical,2024.2.2,Win32,71.94244604,,,,,,,,,,,,,,,,,,,,,,,,608.898,610.056,a,1,0.489,,[],[],[],[],[],[],[],0.489,1,610.056,610.547,,,,,,991,FEM,DIS,150,hoja,el,a,610.547,610.548,-0.016203704,-0.372685185,0,0,0,,0,175,175,90,1,,,,
,,,,,,3ff55828764a9275dbfbd477,66a626ef09d4e21e1a8894ec,67371d31411e2f8be82c0f24,2024-11-15_07h07.54.882,Tarea de género gramatical,2024.2.2,Win32,71.94244604,,,,,,,,,,,,,,,,,,,,,,,,610.551,611.606,a,1,0.38,,[],[],[],[],[],[],[],0.38,1,611.607,612.104,,,,,,1322,FEM,AGR,150,rutina,la,a,612.104,612.104,-0.016203704,-0.372685185,0,0,0,,0,176,176,421,1,,,,
,,,,,,3ff55828764a9275dbfbd477,66a626ef09d4e21e1a8894ec,67371d31411e2f8be82c0f24,2024-11-15_07h07.54.882,Tarea de género gramatical,2024.2.2,Win32,71.94244604,,,,,,,,,,,,,,,,,,,,,,,,612.107,613.167,l,1,0.395,,[],[],[],[],[],[],[],0.395,1,613.167,613.666,,,,,,1084,MAS,DIS,150,cielo,la,l,613.669,613.673,-0.016203704,-0.372685185,0,0,0,,0,177,177,183,1,,,,
,,,,,,3ff55828764a9275dbfbd477,66a626ef09d4e21e1a8894ec,67371d31411e2f8be82c0f24,2024-11-15_07h07.54.882,Tarea de género gramatical,2024.2.2,Win32,71.94244604,,,,,,,,,,,,,,,,,,,,,,,,613.675,614.715,l,1,0.369,,[],[],[],[],[],[],[],0.369,1,614.715,615.215,,,,,,1061,MAS,AGR,150,chico,el,l,615.216,615.219,-0.016203704,-0.372685185,0,0,0,,0,178,178,160,1,,,,
,,,,,,3ff55828764a9275dbfbd477,66a626ef09d4e21e1a8894ec,67371d31411e2f8be82c0f24,2024-11-15_07h07.54.882,Tarea de género gramatical,2024.2.2,Win32,71.94244604,,,,,,,,,,,,,,,,,,,,,,,,615.229,616.323,l,1,0.426,,[],[],[],[],[],[],[],0.426,1,616.326,616.827,,,,,,1122,MAS,CON,150,valor,,l,616.827,616.829,-0.016203704,-0.372685185,0,0,0,,0,179,179,221,1,,,,
,,,,,,3ff55828764a9275dbfbd477,66a626ef09d4e21e1a8894ec,67371d31411e2f8be82c0f24,2024-11-15_07h07.54.882,Tarea de género gramatical,2024.2.2,Win32,71.94244604,,,,,,,,,,,,,,,,,,,,,,,,616.835,617.951,a,1,0.448,,[],[],[],[],[],[],[],0.448,1,617.952,618.45,,,,,,1172,FEM,AGR,150,oreja,la,a,618.45,618.451,-0.016203704,-0.372685185,0,0,0,,0,180,180,271,1,,,,
,,,,,,3ff55828764a9275dbfbd477,66a626ef09d4e21e1a8894ec,67371d31411e2f8be82c0f24,2024-11-15_07h07.54.882,Tarea de género gramatical,2024.2.2,Win32,71.94244604,,,,,,,,,,,,,,,,,,,,,,,,618.455,619.988,l,1,0.862,,[],[],[],[],[],[],[],0.862,1,619.988,620.486,,,,,,1018,MAS,DIS,150,baúl,la,l,620.486,620.486,-0.016203704,-0.372685185,0,0,0,,0,181,181,117,1,,,,
,,,,,,3ff55828764a9275dbfbd477,66a626ef09d4e21e1a8894ec,67371d31411e2f8be82c0f24,2024-11-15_07h07.54.882,Tarea de género gramatical,2024.2.2,Win32,71.94244604,,,,,,,,,,,,,,,,,,,,,,,,620.49,621.848,a,1,0.695,,[],[],[],[],[],[],[],0.695,1,621.85,622.348,,,,,,1184,FEM,AGR,150,fruta,la,a,622.352,622.358,-0.016203704,-0.372685185,0,0,0,,0,182,182,283,1,,,,
,,,,,,3ff55828764a9275dbfbd477,66a626ef09d4e21e1a8894ec,67371d31411e2f8be82c0f24,2024-11-15_07h07.54.882,Tarea de género gramatical,2024.2.2,Win32,71.94244604,,,,,,,,,,,,,,,,,,,,,,,,622.362,623.683,l,1,0.648,,[],[],[],[],[],[],[],0.648,1,623.689,624.174,,,,,,1252,MAS,DIS,150,estilo,la,l,624.174,624.175,-0.016203704,-0.372685185,0,0,0,,0,183,183,351,1,,,,
,,,,,,3ff55828764a9275dbfbd477,66a626ef09d4e21e1a8894ec,67371d31411e2f8be82c0f24,2024-11-15_07h07.54.882,Tarea de género gramatical,2024.2.2,Win32,71.94244604,,,,,,,,,,,,,,,,,,,,,,,,624.178,625.258,a,1,0.417,,[],[],[],[],[],[],[],0.417,1,625.258,625.757,,,,,,903,FEM,CON,150,cosa,,a,625.757,625.758,-0.016203704,-0.372685185,0,0,0,,0,184,184,2,1,,,,
,,,,,,3ff55828764a9275dbfbd477,66a626ef09d4e21e1a8894ec,67371d31411e2f8be82c0f24,2024-11-15_07h07.54.882,Tarea de género gramatical,2024.2.2,Win32,71.94244604,,,,,,,,,,,,,,,,,,,,,,,,625.763,626.842,a,1,0.405,,[],[],[],[],[],[],[],0.405,1,626.843,627.346,,,,,,927,FEM,CON,150,mesa,,a,627.346,627.347,-0.016203704,-0.372685185,0,0,0,,0,185,185,26,1,,,,
,,,,,,3ff55828764a9275dbfbd477,66a626ef09d4e21e1a8894ec,67371d31411e2f8be82c0f24,2024-11-15_07h07.54.882,Tarea de género gramatical,2024.2.2,Win32,71.94244604,,,,,,,,,,,,,,,,,,,,,,,,627.35,628.446,l,1,0.418,,[],[],[],[],[],[],[],0.418,1,628.446,628.937,,,,,,1229,MAS,AGR,150,futuro,el,l,628.94,628.946,-0.016203704,-0.372685185,0,0,0,,0,186,186,328,1,,,,
,,,,,,3ff55828764a9275dbfbd477,66a626ef09d4e21e1a8894ec,67371d31411e2f8be82c0f24,2024-11-15_07h07.54.882,Tarea de género gramatical,2024.2.2,Win32,71.94244604,,,,,,,,,,,,,,,,,,,,,,,,628.949,630.314,a,1,0.696,,[],[],[],[],[],[],[],0.696,1,630.316,630.819,,,,,,1095,FEM,CON,150,pared,,a,630.819,630.819,-0.016203704,-0.372685185,0,0,0,,0,187,187,194,1,,,,
,,,,,,3ff55828764a9275dbfbd477,66a626ef09d4e21e1a8894ec,67371d31411e2f8be82c0f24,2024-11-15_07h07.54.882,Tarea de género gramatical,2024.2.2,Win32,71.94244604,,,,,,,,,,,,,,,,,,,,,,,,630.823,631.895,a,1,0.397,,[],[],[],[],[],[],[],0.397,1,631.896,632.395,,,,,,1315,FEM,DIS,150,cabina,el,a,632.395,632.395,-0.016203704,-0.372685185,0,0,0,,0,188,188,414,1,,,,
,,,,,,3ff55828764a9275dbfbd477,66a626ef09d4e21e1a8894ec,67371d31411e2f8be82c0f24,2024-11-15_07h07.54.882,Tarea de género gramatical,2024.2.2,Win32,71.94244604,,,,,,,,,,,,,,,,,,,,,,,,632.398,633.646,a,1,0.585,,[],[],[],[],[],[],[],0.585,1,633.647,634.136,,,,,,1035,FEM,CON,150,raíz,,a,634.136,634.137,-0.016203704,-0.372685185,0,0,0,,0,189,189,134,1,,,,
,,,,,,3ff55828764a9275dbfbd477,66a626ef09d4e21e1a8894ec,67371d31411e2f8be82c0f24,2024-11-15_07h07.54.882,Tarea de género gramatical,2024.2.2,Win32,71.94244604,,,,,,,,,,,,,,,,,,,,,,,,634.139,635.253,a,1,0.444,,[],[],[],[],[],[],[],0.444,1,635.253,635.756,,,,,,1267,FEM,DIS,150,teoría,el,a,635.756,635.756,-0.016203704,-0.372685185,0,0,0,,0,190,190,366,1,,,,
,,,,,,3ff55828764a9275dbfbd477,66a626ef09d4e21e1a8894ec,67371d31411e2f8be82c0f24,2024-11-15_07h07.54.882,Tarea de género gramatical,2024.2.2,Win32,71.94244604,,,,,,,,,,,,,,,,,,,,,,,,635.76,636.854,a,1,0.431,,[],[],[],[],[],[],[],0.431,1,636.854,637.353,,,,,,1105,FEM,DIS,150,reina,el,a,637.357,637.361,-0.016203704,-0.372685185,0,0,0,,0,191,191,204,1,,,,
,,,,,,3ff55828764a9275dbfbd477,66a626ef09d4e21e1a8894ec,67371d31411e2f8be82c0f24,2024-11-15_07h07.54.882,Tarea de género gramatical,2024.2.2,Win32,71.94244604,,,,,,,,,,,,,,,,,,,,,,,,637.363,638.446,l,1,0.419,,[],[],[],[],[],[],[],0.419,1,638.446,638.942,,,,,,1163,MAS,AGR,150,carro,el,l,638.943,638.943,-0.016203704,-0.372685185,0,0,0,,0,192,192,262,1,,,,
,,,,,,3ff55828764a9275dbfbd477,66a626ef09d4e21e1a8894ec,67371d31411e2f8be82c0f24,2024-11-15_07h07.54.882,Tarea de género gramatical,2024.2.2,Win32,71.94244604,,,,,,,,,,,,,,,,,,,,,,,,638.946,639.985,a,1,0.374,,[],[],[],[],[],[],[],0.374,1,639.987,640.479,,,,,,1148,FEM,AGR,150,letra,la,a,640.48,640.48,-0.016203704,-0.372685185,0,0,0,,0,193,193,247,1,,,,
,,,,,,3ff55828764a9275dbfbd477,66a626ef09d4e21e1a8894ec,67371d31411e2f8be82c0f24,2024-11-15_07h07.54.882,Tarea de género gramatical,2024.2.2,Win32,71.94244604,,,,,,,,,,,,,,,,,,,,,,,,640.481,641.53,a,1,0.378,,[],[],[],[],[],[],[],0.378,1,641.53,642.02,,,,,,1087,FEM,DIS,150,lista,el,a,642.02,642.021,-0.016203704,-0.372685185,0,0,0,,0,194,194,186,1,,,,
,,,,,,3ff55828764a9275dbfbd477,66a626ef09d4e21e1a8894ec,67371d31411e2f8be82c0f24,2024-11-15_07h07.54.882,Tarea de género gramatical,2024.2.2,Win32,71.94244604,,,,,,,,,,,,,,,,,,,,,,,,642.025,643.097,a,1,0.405,,[],[],[],[],[],[],[],0.405,1,643.097,643.596,,,,,,1311,FEM,CON,150,actriz,,a,643.598,643.602,-0.016203704,-0.372685185,0,0,0,,0,195,195,410,1,,,,
,,,,,,3ff55828764a9275dbfbd477,66a626ef09d4e21e1a8894ec,67371d31411e2f8be82c0f24,2024-11-15_07h07.54.882,Tarea de género gramatical,2024.2.2,Win32,71.94244604,,,,,,,,,,,,,,,,,,,,,,,,643.604,644.674,l,1,0.404,,[],[],[],[],[],[],[],0.404,1,644.674,645.166,,,,,,1318,MAS,DIS,150,pájaro,la,l,645.166,645.166,-0.016203704,-0.372685185,0,0,0,,0,196,196,417,1,,,,
,,,,,,3ff55828764a9275dbfbd477,66a626ef09d4e21e1a8894ec,67371d31411e2f8be82c0f24,2024-11-15_07h07.54.882,Tarea de género gramatical,2024.2.2,Win32,71.94244604,,,,,,,,,,,,,,,,,,,,,,,,645.169,646.409,a,0,0.57,,[],[],[],[],[],[],[],0.57,0,646.412,646.908,,,,,,1348,MAS,DIS,150,aceite,la,l,646.908,646.909,-0.016203704,-0.372685185,0,0,0,,0,197,197,447,1,,,,
,,,,,,3ff55828764a9275dbfbd477,66a626ef09d4e21e1a8894ec,67371d31411e2f8be82c0f24,2024-11-15_07h07.54.882,Tarea de género gramatical,2024.2.2,Win32,71.94244604,,,,,,,,,,,,,,,,,,,,,,,,646.912,648.058,a,1,0.456,,[],[],[],[],[],[],[],0.456,1,648.069,648.562,,,,,,1335,FEM,CON,150,niebla,,a,648.564,648.568,-0.016203704,-0.372685185,0,0,0,,0,198,198,434,1,,,,
,,,,,,3ff55828764a9275dbfbd477,66a626ef09d4e21e1a8894ec,67371d31411e2f8be82c0f24,2024-11-15_07h07.54.882,Tarea de género gramatical,2024.2.2,Win32,71.94244604,,,,,,,,,,,,,,,,,,,,,,,,648.576,649.514,a,1,0.264,,[],[],[],[],[],[],[],0.264,1,649.516,650.007,,,,,,1305,FEM,CON,150,parada,,a,650.007,650.008,-0.016203704,-0.372685185,0,0,0,,0,199,199,404,1,,,,
,,,,,,3ff55828764a9275dbfbd477,66a626ef09d4e21e1a8894ec,67371d31411e2f8be82c0f24,2024-11-15_07h07.54.882,Tarea de género gramatical,2024.2.2,Win32,71.94244604,,,,,,,,,,,,,,,,,,,,,,,,650.012,651.089,l,1,0.407,,[],[],[],[],[],[],[],0.407,1,651.09,651.59,,,,,,1092,MAS,CON,150,grupo,,l,651.595,651.599,-0.016203704,-0.372685185,0,0,0,,0,200,200,191,1,,,,
,,,,,,3ff55828764a9275dbfbd477,66a626ef09d4e21e1a8894ec,67371d31411e2f8be82c0f24,2024-11-15_07h07.54.882,Tarea de género gramatical,2024.2.2,Win32,71.94244604,,,,,,,,,,,,,,,,,,,,,,,,651.602,652.675,a,1,0.403,,[],[],[],[],[],[],[],0.403,1,652.675,653.164,,,,,,1177,FEM,DIS,150,plaza,el,a,653.164,653.165,-0.016203704,-0.372685185,0,0,0,,0,201,201,276,1,,,,
,,,,,,3ff55828764a9275dbfbd477,66a626ef09d4e21e1a8894ec,67371d31411e2f8be82c0f24,2024-11-15_07h07.54.882,Tarea de género gramatical,2024.2.2,Win32,71.94244604,,,,,,,,,,,,,,,,,,,,,,,,653.169,654.208,a,1,0.367,,[],[],[],[],[],[],[],0.367,1,654.208,654.707,,,,,,1273,FEM,DIS,150,lluvia,el,a,654.708,654.708,-0.016203704,-0.372685185,0,0,0,,0,202,202,372,1,,,,
,,,,,,3ff55828764a9275dbfbd477,66a626ef09d4e21e1a8894ec,67371d31411e2f8be82c0f24,2024-11-15_07h07.54.882,Tarea de género gramatical,2024.2.2,Win32,71.94244604,,,,,,,,,,,,,,,,,,,,,,,,654.714,655.844,a,1,0.456,,[],[],[],[],[],[],[],0.456,1,655.844,656.349,,,,,,1209,FEM,CON,150,esposa,,a,656.349,656.35,-0.016203704,-0.372685185,0,0,0,,0,203,203,308,1,,,,
,,,,,,3ff55828764a9275dbfbd477,66a626ef09d4e21e1a8894ec,67371d31411e2f8be82c0f24,2024-11-15_07h07.54.882,Tarea de género gramatical,2024.2.2,Win32,71.94244604,,,,,,,,,,,,,,,,,,,,,,,,656.351,657.335,a,1,0.32,,[],[],[],[],[],[],[],0.32,1,657.336,657.829,,,,,,1167,FEM,CON,150,barba,,a,657.83,657.834,-0.016203704,-0.372685185,0,0,0,,0,204,204,266,1,,,,
,,,,,,3ff55828764a9275dbfbd477,66a626ef09d4e21e1a8894ec,67371d31411e2f8be82c0f24,2024-11-15_07h07.54.882,Tarea de género gramatical,2024.2.2,Win32,71.94244604,,,,,,,,,,,,,,,,,,,,,,,,657.837,658.803,l,1,0.303,,[],[],[],[],[],[],[],0.303,1,658.803,659.299,,,,,,1188,MAS,CON,150,grado,,l,659.299,659.3,-0.016203704,-0.372685185,0,0,0,,0,205,205,287,1,,,,
,,,,,,3ff55828764a9275dbfbd477,66a626ef09d4e21e1a8894ec,67371d31411e2f8be82c0f24,2024-11-15_07h07.54.882,Tarea de género gramatical,2024.2.2,Win32,71.94244604,,,,,,,,,,,,,,,,,,,,,,,,659.303,660.438,l,1,0.466,,[],[],[],[],[],[],[],0.466,1,660.438,660.93,,,,,,1271,MAS,AGR,150,sonido,el,l,660.93,660.93,-0.016203704,-0.372685185,0,0,0,,0,206,206,370,1,,,,
,,,,,,3ff55828764a9275dbfbd477,66a626ef09d4e21e1a8894ec,67371d31411e2f8be82c0f24,2024-11-15_07h07.54.882,Tarea de género gramatical,2024.2.2,Win32,71.94244604,,,,,,,,,,,,,,,,,,,,,,,,660.932,661.969,a,1,0.374,,[],[],[],[],[],[],[],0.374,1,661.97,662.461,,,,,,955,FEM,DIS,150,taza,el,a,662.461,662.462,-0.016203704,-0.372685185,0,0,0,,0,207,207,54,1,,,,
,,,,,,3ff55828764a9275dbfbd477,66a626ef09d4e21e1a8894ec,67371d31411e2f8be82c0f24,2024-11-15_07h07.54.882,Tarea de género gramatical,2024.2.2,Win32,71.94244604,,,,,,,,,,,,,,,,,,,,,,,,662.464,663.608,l,1,0.477,,[],[],[],[],[],[],[],0.477,1,663.61,664.113,,,,,,1223,MAS,AGR,150,marido,el,l,664.113,664.113,-0.016203704,-0.372685185,0,0,0,,0,208,208,322,1,,,,
,,,,,,3ff55828764a9275dbfbd477,66a626ef09d4e21e1a8894ec,67371d31411e2f8be82c0f24,2024-11-15_07h07.54.882,Tarea de género gramatical,2024.2.2,Win32,71.94244604,,,,,,,,,,,,,,,,,,,,,,,,664.117,665.14,a,1,0.355,,[],[],[],[],[],[],[],0.355,1,665.14,665.632,,,,,,1093,FEM,DIS,150,bolsa,el,a,665.635,665.637,-0.016203704,-0.372685185,0,0,0,,0,209,209,192,1,,,,
,,,,,,3ff55828764a9275dbfbd477,66a626ef09d4e21e1a8894ec,67371d31411e2f8be82c0f24,2024-11-15_07h07.54.882,Tarea de género gramatical,2024.2.2,Win32,71.94244604,,,,,,,,,,,,,,,,,,,,,,,,665.64,666.698,l,1,0.388,,[],[],[],[],[],[],[],0.388,1,666.698,667.196,,,,,,1278,MAS,CON,150,pastel,,l,667.196,667.197,-0.016203704,-0.372685185,0,0,0,,0,210,210,377,1,,,,
,,,,,,3ff55828764a9275dbfbd477,66a626ef09d4e21e1a8894ec,67371d31411e2f8be82c0f24,2024-11-15_07h07.54.882,Tarea de género gramatical,2024.2.2,Win32,71.94244604,,,,,,,,,,,,,,,,,,,,,,,,667.199,668.453,l,1,0.592,,[],[],[],[],[],[],[],0.592,1,668.454,668.95,,,,,,1332,MAS,CON,150,océano,,l,668.95,668.951,-0.016203704,-0.372685185,0,0,0,,0,211,211,431,1,,,,
,,,,,,3ff55828764a9275dbfbd477,66a626ef09d4e21e1a8894ec,67371d31411e2f8be82c0f24,2024-11-15_07h07.54.882,Tarea de género gramatical,2024.2.2,Win32,71.94244604,,,,,,,,,,,,,,,,,,,,,,,,668.955,670.051,a,1,0.42,,[],[],[],[],[],[],[],0.42,1,670.052,670.547,,,,,,1238,FEM,AGR,150,abuela,la,a,670.547,670.547,-0.016203704,-0.372685185,0,0,0,,0,212,212,337,1,,,,
,,,,,,3ff55828764a9275dbfbd477,66a626ef09d4e21e1a8894ec,67371d31411e2f8be82c0f24,2024-11-15_07h07.54.882,Tarea de género gramatical,2024.2.2,Win32,71.94244604,,,,,,,,,,,,,,,,,,,,,,,,670.551,672.071,a,0,0.845,,[],[],[],[],[],[],[],0.845,0,672.073,672.565,,,,,,1170,MAS,CON,150,queso,,l,672.568,672.573,-0.016203704,-0.372685185,0,0,0,,0,213,213,269,1,,,,
,,,,,,3ff55828764a9275dbfbd477,66a626ef09d4e21e1a8894ec,67371d31411e2f8be82c0f24,2024-11-15_07h07.54.882,Tarea de género gramatical,2024.2.2,Win32,71.94244604,,,,,,,,,,,,,,,,,,,,,,,,672.576,673.79,a,1,0.541,,[],[],[],[],[],[],[],0.541,1,673.793,674.282,,,,,,1263,FEM,CON,150,unidad,,a,674.282,674.283,-0.016203704,-0.372685185,0,0,0,,0,214,214,362,1,,,,
,,,,,,3ff55828764a9275dbfbd477,66a626ef09d4e21e1a8894ec,67371d31411e2f8be82c0f24,2024-11-15_07h07.54.882,Tarea de género gramatical,2024.2.2,Win32,71.94244604,,,,,,,,,,,,,,,,,,,,,,,,674.285,675.429,a,1,0.48,,[],[],[],[],[],[],[],0.48,1,675.431,675.935,,,,,,1005,FEM,CON,150,jefa,,a,675.935,675.936,-0.016203704,-0.372685185,0,0,0,,0,215,215,104,1,,,,
,,,,,,3ff55828764a9275dbfbd477,66a626ef09d4e21e1a8894ec,67371d31411e2f8be82c0f24,2024-11-15_07h07.54.882,Tarea de género gramatical,2024.2.2,Win32,71.94244604,,,,,,,,,,,,,,,,,,,,,,,,675.939,677.248,l,1,0.645,,[],[],[],[],[],[],[],0.645,1,677.248,677.747,,,,,,1108,MAS,DIS,150,suelo,la,l,677.747,677.747,-0.016203704,-0.372685185,0,0,0,,0,216,216,207,1,,,,
,,,,,,3ff55828764a9275dbfbd477,66a626ef09d4e21e1a8894ec,67371d31411e2f8be82c0f24,2024-11-15_07h07.54.882,Tarea de género gramatical,2024.2.2,Win32,71.94244604,,,,,,,,,,,,,,,,,,,,,,,,677.752,679.123,l,1,0.708,,[],[],[],[],[],[],[],0.708,1,679.123,679.614,,,,,,1068,MAS,CON,150,sitio,,l,679.614,679.614,-0.016203704,-0.372685185,0,0,0,,0,217,217,167,1,,,,
,,,,,,3ff55828764a9275dbfbd477,66a626ef09d4e21e1a8894ec,67371d31411e2f8be82c0f24,2024-11-15_07h07.54.882,Tarea de género gramatical,2024.2.2,Win32,71.94244604,,,,,,,,,,,,,,,,,,,,,,,,679.616,680.998,a,0,0.713,,[],[],[],[],[],[],[],0.713,0,681.001,681.492,,,,,,1288,MAS,DIS,150,empleo,la,l,681.495,681.498,-0.016203704,-0.372685185,0,0,0,,0,218,218,387,1,,,,
,,,,,,3ff55828764a9275dbfbd477,66a626ef09d4e21e1a8894ec,67371d31411e2f8be82c0f24,2024-11-15_07h07.54.882,Tarea de género gramatical,2024.2.2,Win32,71.94244604,,,,,,,,,,,,,,,,,,,,,,,,681.503,683.119,a,1,0.946,,[],[],[],[],[],[],[],0.946,1,683.123,683.61,,,,,,1111,FEM,DIS,150,salud,el,a,683.61,683.61,-0.016203704,-0.372685185,0,0,0,,0,219,219,210,1,,,,
,,,,,,3ff55828764a9275dbfbd477,66a626ef09d4e21e1a8894ec,67371d31411e2f8be82c0f24,2024-11-15_07h07.54.882,Tarea de género gramatical,2024.2.2,Win32,71.94244604,,,,,,,,,,,,,,,,,,,,,,,,683.614,684.724,a,1,0.438,,[],[],[],[],[],[],[],0.438,1,684.724,685.216,,,,,,1250,FEM,AGR,150,imagen,la,a,685.217,685.22,-0.016203704,-0.372685185,0,0,0,,0,220,220,349,1,,,,
,,,,,,3ff55828764a9275dbfbd477,66a626ef09d4e21e1a8894ec,67371d31411e2f8be82c0f24,2024-11-15_07h07.54.882,Tarea de género gramatical,2024.2.2,Win32,71.94244604,,,,,,,,,,,,,,,,,,,,,,,,685.232,686.291,a,1,0.386,,[],[],[],[],[],[],[],0.386,1,686.293,686.782,,,,,,901,FEM,DIS,150,casa,el,a,686.783,686.784,-0.016203704,-0.372685185,0,0,0,,0,221,221,0,1,,,,
,,,,,,3ff55828764a9275dbfbd477,66a626ef09d4e21e1a8894ec,67371d31411e2f8be82c0f24,2024-11-15_07h07.54.882,Tarea de género gramatical,2024.2.2,Win32,71.94244604,,,,,,,,,,,,,,,,,,,,,,,,686.789,687.893,l,1,0.424,,[],[],[],[],[],[],[],0.424,1,687.894,688.393,,,,,,917,MAS,AGR,150,modo,el,l,688.395,688.401,-0.016203704,-0.372685185,0,0,0,,0,222,222,16,1,,,,
,,,,,,3ff55828764a9275dbfbd477,66a626ef09d4e21e1a8894ec,67371d31411e2f8be82c0f24,2024-11-15_07h07.54.882,Tarea de género gramatical,2024.2.2,Win32,71.94244604,,,,,,,,,,,,,,,,,,,,,,,,688.403,689.778,a,1,0.704,,[],[],[],[],[],[],[],0.704,1,689.778,690.276,,,,,,914,FEM,AGR,150,cara,la,a,690.277,690.277,-0.016203704,-0.372685185,0,0,0,,0,223,223,13,1,,,,
,,,,,,3ff55828764a9275dbfbd477,66a626ef09d4e21e1a8894ec,67371d31411e2f8be82c0f24,2024-11-15_07h07.54.882,Tarea de género gramatical,2024.2.2,Win32,71.94244604,,,,,,,,,,,,,,,,,,,,,,,,690.281,691.485,l,1,0.528,,[],[],[],[],[],[],[],0.528,1,691.487,691.984,,,,,,1134,MAS,CON,150,héroe,,l,691.984,691.985,-0.016203704,-0.372685185,0,0,0,,0,224,224,233,1,,,,
,,,,,,3ff55828764a9275dbfbd477,66a626ef09d4e21e1a8894ec,67371d31411e2f8be82c0f24,2024-11-15_07h07.54.882,Tarea de género gramatical,2024.2.2,Win32,71.94244604,,,,,,,,,,,,,,,,,,,,,,,,691.99,693.068,a,1,0.403,,[],[],[],[],[],[],[],0.403,1,693.068,693.567,,,,,,999,FEM,CON,150,fase,,a,693.567,693.568,-0.016203704,-0.372685185,0,0,0,,0,225,225,98,1,,,,
,,,,,,3ff55828764a9275dbfbd477,66a626ef09d4e21e1a8894ec,67371d31411e2f8be82c0f24,2024-11-15_07h07.54.882,Tarea de género gramatical,2024.2.2,Win32,71.94244604,,,,,,,,,,,,,,,,,,,,,,,,693.572,694.922,l,1,0.675,,[],[],[],[],[],[],[],0.675,1,694.923,695.419,,,,,,1186,MAS,DIS,150,reino,la,l,695.42,695.42,-0.016203704,-0.372685185,0,0,0,,0,226,226,285,1,,,,
,,,,,,3ff55828764a9275dbfbd477,66a626ef09d4e21e1a8894ec,67371d31411e2f8be82c0f24,2024-11-15_07h07.54.882,Tarea de género gramatical,2024.2.2,Win32,71.94244604,,,,,,,,,,,,,,,,,,,,,,,,695.424,696.784,a,1,0.696,,[],[],[],[],[],[],[],0.696,1,696.784,697.286,,,,,,1051,FEM,DIS,150,noche,el,a,697.288,697.292,-0.016203704,-0.372685185,0,0,0,,0,227,227,150,1,,,,
,,,,,,3ff55828764a9275dbfbd477,66a626ef09d4e21e1a8894ec,67371d31411e2f8be82c0f24,2024-11-15_07h07.54.882,Tarea de género gramatical,2024.2.2,Win32,71.94244604,,,,,,,,,,,,,,,,,,,,,,,,697.296,698.443,a,1,0.481,,[],[],[],[],[],[],[],0.481,1,698.443,698.942,,,,,,1022,FEM,AGR,150,loca,la,a,698.942,698.943,-0.016203704,-0.372685185,0,0,0,,0,228,228,121,1,,,,
,,,,,,3ff55828764a9275dbfbd477,66a626ef09d4e21e1a8894ec,67371d31411e2f8be82c0f24,2024-11-15_07h07.54.882,Tarea de género gramatical,2024.2.2,Win32,71.94244604,,,,,,,,,,,,,,,,,,,,,,,,698.947,700.04,a,1,0.43,,[],[],[],[],[],[],[],0.43,1,700.04,700.532,,,,,,1118,FEM,AGR,150,nieve,la,a,700.532,700.533,-0.016203704,-0.372685185,0,0,0,,0,229,229,217,1,,,,
,,,,,,3ff55828764a9275dbfbd477,66a626ef09d4e21e1a8894ec,67371d31411e2f8be82c0f24,2024-11-15_07h07.54.882,Tarea de género gramatical,2024.2.2,Win32,71.94244604,,,,,,,,,,,,,,,,,,,,,,,,700.537,701.575,a,1,0.361,,[],[],[],[],[],[],[],0.361,1,701.575,702.074,,,,,,1076,FEM,AGR,150,línea,la,a,702.074,702.075,-0.016203704,-0.372685185,0,0,0,,0,230,230,175,1,,,,
,,,,,,3ff55828764a9275dbfbd477,66a626ef09d4e21e1a8894ec,67371d31411e2f8be82c0f24,2024-11-15_07h07.54.882,Tarea de género gramatical,2024.2.2,Win32,71.94244604,,,,,,,,,,,,,,,,,,,,,,,,702.079,703.146,l,1,0.391,,[],[],[],[],[],[],[],0.391,1,703.146,703.643,,,,,,1139,MAS,AGR,150,reloj,el,l,703.647,703.65,-0.016203704,-0.372685185,0,0,0,,0,231,231,238,1,,,,
,,,,,,3ff55828764a9275dbfbd477,66a626ef09d4e21e1a8894ec,67371d31411e2f8be82c0f24,2024-11-15_07h07.54.882,Tarea de género gramatical,2024.2.2,Win32,71.94244604,,,,,,,,,,,,,,,,,,,,,,,,703.652,704.672,a,0,0.347,,[],[],[],[],[],[],[],0.347,0,704.676,705.165,,,,,,1138,MAS,DIS,150,norte,la,l,705.165,705.166,-0.016203704,-0.372685185,0,0,0,,0,232,232,237,1,,,,
,,,,,,3ff55828764a9275dbfbd477,66a626ef09d4e21e1a8894ec,67371d31411e2f8be82c0f24,2024-11-15_07h07.54.882,Tarea de género gramatical,2024.2.2,Win32,71.94244604,,,,,,,,,,,,,,,,,,,,,,,,705.17,706.227,a,1,0.391,,[],[],[],[],[],[],[],0.391,1,706.231,706.72,,,,,,1119,FEM,CON,150,costa,,a,706.72,706.72,-0.016203704,-0.372685185,0,0,0,,0,233,233,218,1,,,,
,,,,,,3ff55828764a9275dbfbd477,66a626ef09d4e21e1a8894ec,67371d31411e2f8be82c0f24,2024-11-15_07h07.54.882,Tarea de género gramatical,2024.2.2,Win32,71.94244604,,,,,,,,,,,,,,,,,,,,,,,,706.723,707.672,a,1,0.285,,[],[],[],[],[],[],[],0.285,1,707.674,708.164,,,,,,1107,FEM,CON,150,playa,,a,708.164,708.165,-0.016203704,-0.372685185,0,0,0,,0,234,234,206,1,,,,
,,,,,,3ff55828764a9275dbfbd477,66a626ef09d4e21e1a8894ec,67371d31411e2f8be82c0f24,2024-11-15_07h07.54.882,Tarea de género gramatical,2024.2.2,Win32,71.94244604,,,,,,,,,,,,,,,,,,,,,,,,708.168,709.165,a,1,0.32,,[],[],[],[],[],[],[],0.32,1,709.166,709.664,,,,,,1034,FEM,AGR,150,rama,la,a,709.664,709.665,-0.016203704,-0.372685185,0,0,0,,0,235,235,133,1,,,,
,,,,,,3ff55828764a9275dbfbd477,66a626ef09d4e21e1a8894ec,67371d31411e2f8be82c0f24,2024-11-15_07h07.54.882,Tarea de género gramatical,2024.2.2,Win32,71.94244604,,,,,,,,,,,,,,,,,,,,,,,,709.668,710.734,a,1,0.394,,[],[],[],[],[],[],[],0.394,1,710.734,711.234,,,,,,1088,FEM,AGR,150,bomba,la,a,711.237,711.241,-0.016203704,-0.372685185,0,0,0,,0,236,236,187,1,,,,
,,,,,,3ff55828764a9275dbfbd477,66a626ef09d4e21e1a8894ec,67371d31411e2f8be82c0f24,2024-11-15_07h07.54.882,Tarea de género gramatical,2024.2.2,Win32,71.94244604,,,,,,,,,,,,,,,,,,,,,,,,711.242,712.217,a,1,0.311,,[],[],[],[],[],[],[],0.311,1,712.218,712.719,,,,,,1299,FEM,CON,150,charla,,a,712.719,712.719,-0.016203704,-0.372685185,0,0,0,,0,237,237,398,1,,,,
,,,,,,3ff55828764a9275dbfbd477,66a626ef09d4e21e1a8894ec,67371d31411e2f8be82c0f24,2024-11-15_07h07.54.882,Tarea de género gramatical,2024.2.2,Win32,71.94244604,,,,,,,,,,,,,,,,,,,,,,,,712.722,713.789,a,1,0.397,,[],[],[],[],[],[],[],0.397,1,713.791,714.287,,,,,,956,FEM,AGR,150,bola,la,a,714.287,714.288,-0.016203704,-0.372685185,0,0,0,,0,238,238,55,1,,,,
,,,,,,3ff55828764a9275dbfbd477,66a626ef09d4e21e1a8894ec,67371d31411e2f8be82c0f24,2024-11-15_07h07.54.882,Tarea de género gramatical,2024.2.2,Win32,71.94244604,,,,,,,,,,,,,,,,,,,,,,,,714.291,715.29,a,1,0.334,,[],[],[],[],[],[],[],0.334,1,715.291,715.788,,,,,,1191,FEM,CON,150,aguja,,a,715.788,715.789,-0.016203704,-0.372685185,0,0,0,,0,239,239,290,1,,,,
,,,,,,3ff55828764a9275dbfbd477,66a626ef09d4e21e1a8894ec,67371d31411e2f8be82c0f24,2024-11-15_07h07.54.882,Tarea de género gramatical,2024.2.2,Win32,71.94244604,,,,,,,,,,,,,,,,,,,,,,,,715.791,716.867,l,1,0.404,,[],[],[],[],[],[],[],0.404,1,716.867,717.366,,,,,,1102,MAS,DIS,150,honor,la,l,717.369,717.372,-0.016203704,-0.372685185,0,0,0,,0,240,240,201,1,,,,
,,,,,,3ff55828764a9275dbfbd477,66a626ef09d4e21e1a8894ec,67371d31411e2f8be82c0f24,2024-11-15_07h07.54.882,Tarea de género gramatical,2024.2.2,Win32,71.94244604,,,,,,,,,,,,,,,,,,,,,,,,717.373,718.392,a,0,0.346,,[],[],[],[],[],[],[],0.346,0,718.406,718.881,,,,,,1000,MAS,DIS,150,nido,la,l,718.881,718.887,-0.016203704,-0.372685185,0,0,0,,0,241,241,99,1,,,,
,,,,,,3ff55828764a9275dbfbd477,66a626ef09d4e21e1a8894ec,67371d31411e2f8be82c0f24,2024-11-15_07h07.54.882,Tarea de género gramatical,2024.2.2,Win32,71.94244604,,,,,,,,,,,,,,,,,,,,,,,,718.896,719.986,l,1,0.411,,[],[],[],[],[],[],[],0.411,1,719.991,720.483,,,,,,1132,MAS,DIS,150,calor,la,l,720.483,720.485,-0.016203704,-0.372685185,0,0,0,,0,242,242,231,1,,,,
,,,,,,3ff55828764a9275dbfbd477,66a626ef09d4e21e1a8894ec,67371d31411e2f8be82c0f24,2024-11-15_07h07.54.882,Tarea de género gramatical,2024.2.2,Win32,71.94244604,,,,,,,,,,,,,,,,,,,,,,,,720.491,721.525,l,1,0.361,,[],[],[],[],[],[],[],0.361,1,721.526,722.025,,,,,,1319,MAS,AGR,150,cuento,el,l,722.025,722.026,-0.016203704,-0.372685185,0,0,0,,0,243,243,418,1,,,,
,,,,,,3ff55828764a9275dbfbd477,66a626ef09d4e21e1a8894ec,67371d31411e2f8be82c0f24,2024-11-15_07h07.54.882,Tarea de género gramatical,2024.2.2,Win32,71.94244604,,,,,,,,,,,,,,,,,,,,,,,,722.029,723.269,l,1,0.571,,[],[],[],[],[],[],[],0.571,1,723.269,723.768,,,,,,912,MAS,CON,150,plan,,l,723.768,723.768,-0.016203704,-0.372685185,0,0,0,,0,244,244,11,1,,,,
,,,,,,3ff55828764a9275dbfbd477,66a626ef09d4e21e1a8894ec,67371d31411e2f8be82c0f24,2024-11-15_07h07.54.882,Tarea de género gramatical,2024.2.2,Win32,71.94244604,,,,,,,,,,,,,,,,,,,,,,,,723.773,724.845,a,1,0.404,,[],[],[],[],[],[],[],0.404,1,724.846,725.339,,,,,,1065,FEM,CON,150,amiga,,a,725.344,725.347,-0.016203704,-0.372685185,0,0,0,,0,245,245,164,1,,,,
,,,,,,3ff55828764a9275dbfbd477,66a626ef09d4e21e1a8894ec,67371d31411e2f8be82c0f24,2024-11-15_07h07.54.882,Tarea de género gramatical,2024.2.2,Win32,71.94244604,,,,,,,,,,,,,,,,,,,,,,,,725.349,726.581,a,1,0.557,,[],[],[],[],[],[],[],0.557,1,726.582,727.08,,,,,,1165,FEM,DIS,150,rueda,el,a,727.08,727.081,-0.016203704,-0.372685185,0,0,0,,0,246,246,264,1,,,,
,,,,,,3ff55828764a9275dbfbd477,66a626ef09d4e21e1a8894ec,67371d31411e2f8be82c0f24,2024-11-15_07h07.54.882,Tarea de género gramatical,2024.2.2,Win32,71.94244604,,,,,,,,,,,,,,,,,,,,,,,,727.085,728.428,l,1,0.674,,[],[],[],[],[],[],[],0.674,1,728.429,728.919,,,,,,1320,MAS,CON,150,helado,,l,728.919,728.92,-0.016203704,-0.372685185,0,0,0,,0,247,247,419,1,,,,
,,,,,,3ff55828764a9275dbfbd477,66a626ef09d4e21e1a8894ec,67371d31411e2f8be82c0f24,2024-11-15_07h07.54.882,Tarea de género gramatical,2024.2.2,Win32,71.94244604,,,,,,,,,,,,,,,,,,,,,,,,728.924,730.368,a,0,0.773,,[],[],[],[],[],[],[],0.773,0,730.37,730.858,,,,,,952,MAS,DIS,150,lago,la,l,730.858,730.859,-0.016203704,-0.372685185,0,0,0,,0,248,248,51,1,,,,
,,,,,,3ff55828764a9275dbfbd477,66a626ef09d4e21e1a8894ec,67371d31411e2f8be82c0f24,2024-11-15_07h07.54.882,Tarea de género gramatical,2024.2.2,Win32,71.94244604,,,,,,,,,,,,,,,,,,,,,,,,730.861,731.976,a,1,0.445,,[],[],[],[],[],[],[],0.445,1,731.979,732.463,,,,,,1287,FEM,CON,150,página,,a,732.466,732.471,-0.016203704,-0.372685185,0,0,0,,0,249,249,386,1,,,,
,,,,,,3ff55828764a9275dbfbd477,66a626ef09d4e21e1a8894ec,67371d31411e2f8be82c0f24,2024-11-15_07h07.54.882,Tarea de género gramatical,2024.2.2,Win32,71.94244604,,,,,,,,,,,,,,,,,,,,,,,,732.474,733.63,l,1,0.486,,[],[],[],[],[],[],[],0.486,1,733.63,734.127,,,,,,1234,MAS,DIS,150,ataque,la,l,734.127,734.129,-0.016203704,-0.372685185,0,0,0,,0,250,250,333,1,,,,
,,,,,,3ff55828764a9275dbfbd477,66a626ef09d4e21e1a8894ec,67371d31411e2f8be82c0f24,2024-11-15_07h07.54.882,Tarea de género gramatical,2024.2.2,Win32,71.94244604,,,,,,,,,,,,,,,,,,,,,,,,734.131,735.403,l,1,0.599,,[],[],[],[],[],[],[],0.599,1,735.404,735.906,,,,,,1114,MAS,DIS,150,fondo,la,l,735.907,735.907,-0.016203704,-0.372685185,0,0,0,,0,251,251,213,1,,,,
,,,,,,3ff55828764a9275dbfbd477,66a626ef09d4e21e1a8894ec,67371d31411e2f8be82c0f24,2024-11-15_07h07.54.882,Tarea de género gramatical,2024.2.2,Win32,71.94244604,,,,,,,,,,,,,,,,,,,,,,,,735.911,737.032,l,1,0.445,,[],[],[],[],[],[],[],0.445,1,737.033,737.524,,,,,,954,MAS,CON,150,humo,,l,737.525,737.525,-0.016203704,-0.372685185,0,0,0,,0,252,252,53,1,,,,
,,,,,,3ff55828764a9275dbfbd477,66a626ef09d4e21e1a8894ec,67371d31411e2f8be82c0f24,2024-11-15_07h07.54.882,Tarea de género gramatical,2024.2.2,Win32,71.94244604,,,,,,,,,,,,,,,,,,,,,,,,737.528,738.651,a,1,0.452,,[],[],[],[],[],[],[],0.452,1,738.652,739.149,,,,,,943,FEM,DIS,150,nena,el,a,739.149,739.15,-0.016203704,-0.372685185,0,0,0,,0,253,253,42,1,,,,
,,,,,,3ff55828764a9275dbfbd477,66a626ef09d4e21e1a8894ec,67371d31411e2f8be82c0f24,2024-11-15_07h07.54.882,Tarea de género gramatical,2024.2.2,Win32,71.94244604,,,,,,,,,,,,,,,,,,,,,,,,739.154,740.706,l,1,0.876,,[],[],[],[],[],[],[],0.876,1,740.707,741.198,,,,,,982,MAS,DIS,150,tubo,la,l,741.201,741.205,-0.016203704,-0.372685185,0,0,0,,0,254,254,81,1,,,,
,,,,,,3ff55828764a9275dbfbd477,66a626ef09d4e21e1a8894ec,67371d31411e2f8be82c0f24,2024-11-15_07h07.54.882,Tarea de género gramatical,2024.2.2,Win32,71.94244604,,,,,,,,,,,,,,,,,,,,,,,,741.207,742.435,l,1,0.557,,[],[],[],[],[],[],[],0.557,1,742.435,742.927,,,,,,1343,MAS,AGR,150,templo,el,l,742.927,742.927,-0.016203704,-0.372685185,0,0,0,,0,255,255,442,1,,,,
