counterbalancing_condition,consent_prescreening.block_1/declare_consent,consent_prescreening.block_1/age_years,consent_prescreening.block_1/gender,consent_prescreening.block_1/language_disorder,consent_prescreening.block_1/first_language,PROLIFIC_PID,STUDY_ID,SESSION_ID,date,expName,psychopyVersion,OS,frameRate,check_prescreening_answers.started,check_prescreening_answers.stopped,Instructions.started,Instructions.stopped,instr_done_keyboard.keys,instr_done_keyboard.rt,instr_done_keyboard.duration,instr_done_touch.x,instr_done_touch.y,instr_done_touch.leftButton,instr_done_touch.midButton,instr_done_touch.rightButton,instruction_pages.thisRepN,instruction_pages.thisTrialN,instruction_pages.thisN,instruction_pages.thisIndex,instruction_pages.ran,pageN,phase,instruct_text,has_image,instruct_image,presentTrial.started,presentTrial.stopped,response.keys,response.corr,touch_resp.x,touch_resp.y,touch_resp.leftButton,touch_resp.midButton,touch_resp.rightButton,touch_resp.time,touch_resp.clicked_name,rt,corr,feedback.started,feedback.stopped,practice_trials.thisRepN,practice_trials.thisTrialN,practice_trials.thisN,practice_trials.thisIndex,practice_trials.ran,TrialID,StimulusType,Condition,PrimeDuration,Prime,Flanker,corrAns,response.rt,response.duration,Break.started,Break.stopped,break_done_touch.x,break_done_touch.y,break_done_touch.leftButton,break_done_touch.midButton,break_done_touch.rightButton,break_done_keyboard.keys,experiment_trials.thisRepN,experiment_trials.thisTrialN,experiment_trials.thisN,experiment_trials.thisIndex,experiment_trials.ran,break_done_keyboard.rt,break_done_keyboard.duration,End.started,End.stopped
2,"[""over_18"",""comfortable"",""read_info"",""consent_given""]",30,F,"[""none""]","[""spanish""]",400817dea5b1878180597973,66a626ef09d4e21e1a8894ec,67377f64a0228faaadcf7fe0,2024-11-15_14h10.13.913,Tarea de género gramatical,2024.2.2,Win32,60.24096386,,,,,,,,,,,,,,,,,,,,,,,,,,,,,,,,,,,,,,,,,,,,,,,,,,,,,,,,,,,,,,,,,,,,
,,,,,,400817dea5b1878180597973,66a626ef09d4e21e1a8894ec,67377f64a0228faaadcf7fe0,2024-11-15_14h10.13.913,Tarea de género gramatical,2024.2.2,Win32,60.24096386,80.6492,80.6494,,,,,,,,,,,,,,,,,,,,,,,,,,,,,,,,,,,,,,,,,,,,,,,,,,,,,,,,,,,,,,,,,,
,,,,,,400817dea5b1878180597973,66a626ef09d4e21e1a8894ec,67377f64a0228faaadcf7fe0,2024-11-15_14h10.13.913,Tarea de género gramatical,2024.2.2,Win32,60.24096386,,,80.6898,93.5347,space,12.8103,,-0.255208333,-0.33203125,0,0,0,0,0,0,0,1,1,instructions,"INSTRUCCIONES
Va a realizar una prueba de selección gramatical. Desde el comienzo de la prueba mire siempre al centro de la pantalla. Al cabo de un momento, aparecerán palabras. La tarea consiste en determinar si la palabra del centro (siempre será un sustantivo), pertenece al género masculino o femenino.

Pulse la tecla ESPACIO o toque el botón de abajo para continuar.",0,keyboardresponseFM.png,,,,,,,,,,,,,,,,,,,,,,,,,,,,,,,,,,,,,,,,,,,,,,
,,,,,,400817dea5b1878180597973,66a626ef09d4e21e1a8894ec,67377f64a0228faaadcf7fe0,2024-11-15_14h10.13.913,Tarea de género gramatical,2024.2.2,Win32,60.24096386,,,93.6066,102.3176,space,8.6248,,-0.255208333,-0.33203125,0,0,0,0,1,1,1,1,2,instructions,"Si su dispositivo tiene teclado, pulse la tecla ""A"" para las palabras en femenino (por ejemplo: ""mano"") y la tecla ""L"" para las palabras en masculino(por ejemplo: ""arroz"").
Pulse la tecla ESPACIO o toque el botón de abajo para continuar.",1,keyboardresponseFM.png,,,,,,,,,,,,,,,,,,,,,,,,,,,,,,,,,,,,,,,,,,,,,,
,,,,,,400817dea5b1878180597973,66a626ef09d4e21e1a8894ec,67377f64a0228faaadcf7fe0,2024-11-15_14h10.13.913,Tarea de género gramatical,2024.2.2,Win32,60.24096386,,,102.3375,107.7357,space,5.3535,,-0.255208333,-0.33203125,0,0,0,0,2,2,2,1,3,instructions,"Si utiliza un dispositivo sólo táctil, colóquelo en horizontal y utilice los botones de la pantalla. No utilice el ratón.
Pulse la tecla ESPACIO o toque el botón de abajo para continuar.",2,touchresponseFM.png,,,,,,,,,,,,,,,,,,,,,,,,,,,,,,,,,,,,,,,,,,,,,,
,,,,,,400817dea5b1878180597973,66a626ef09d4e21e1a8894ec,67377f64a0228faaadcf7fe0,2024-11-15_14h10.13.913,Tarea de género gramatical,2024.2.2,Win32,60.24096386,,,107.755,120.949,space,13.1709,,-0.255208333,-0.33203125,0,0,0,0,3,3,3,1,4,instructions,"Es muy importante que responda con la mayor rapidez y precisión posibles, ya que cada cadena de letras sólo estará en pantalla durante un instante. Si no responde en ese tiempo, aparecerá el mensaje ""Muy lento"" y el experimento pasará a la siguiente palabra. Los primeros 15 intentos serán de práctica y habrá dos descansos durante la prueba.
Pulse la tecla ESPACIO o toque el botón de abajo para iniciar la parte de práctica.",0,keyboardresponseFM.png,,,,,,,,,,,,,,,,,,,,,,,,,,,,,,,,,,,,,,,,,,,,,,
,,,,,,400817dea5b1878180597973,66a626ef09d4e21e1a8894ec,67377f64a0228faaadcf7fe0,2024-11-15_14h10.13.913,Tarea de género gramatical,2024.2.2,Win32,60.24096386,,,,,,,,,,,,,,,,,,,,,,,120.988,123.6325,,0,[],[],[],[],[],[],[],,-1,123.633,124.1323,0,0,0,4,1,2005,FEM,CON,150,placa,,a,,,,,,,,,,,,,,,,,,,
,,,,,,400817dea5b1878180597973,66a626ef09d4e21e1a8894ec,67377f64a0228faaadcf7fe0,2024-11-15_14h10.13.913,Tarea de género gramatical,2024.2.2,Win32,60.24096386,,,,,,,,,,,,,,,,,,,,,,,124.1356,125.2153,a,0,[],[],[],[],[],[],[],0.4003,0,125.244,125.7151,0,1,1,8,1,2009,MAS,DIS,150,puerto,la,l,0.4003,,,,,,,,,,,,,,,,,,
,,,,,,400817dea5b1878180597973,66a626ef09d4e21e1a8894ec,67377f64a0228faaadcf7fe0,2024-11-15_14h10.13.913,Tarea de género gramatical,2024.2.2,Win32,60.24096386,,,,,,,,,,,,,,,,,,,,,,,125.7181,126.9487,a,1,[],[],[],[],[],[],[],0.552,1,126.9509,127.4482,0,2,2,2,1,2003,FEM,DIS,150,daga,el,a,0.552,,,,,,,,,,,,,,,,,,
,,,,,,400817dea5b1878180597973,66a626ef09d4e21e1a8894ec,67377f64a0228faaadcf7fe0,2024-11-15_14h10.13.913,Tarea de género gramatical,2024.2.2,Win32,60.24096386,,,,,,,,,,,,,,,,,,,,,,,127.4509,128.4985,a,1,[],[],[],[],[],[],[],0.3837,1,128.4989,128.9984,0,3,3,5,1,2006,FEM,DIS,150,serie,el,a,0.3837,,,,,,,,,,,,,,,,,,
,,,,,,400817dea5b1878180597973,66a626ef09d4e21e1a8894ec,67377f64a0228faaadcf7fe0,2024-11-15_14h10.13.913,Tarea de género gramatical,2024.2.2,Win32,60.24096386,,,,,,,,,,,,,,,,,,,,,,,129.0011,130.0336,a,1,[],[],[],[],[],[],[],0.3631,1,130.0338,130.5312,0,4,4,6,1,2007,FEM,AGR,150,navaja,la,a,0.3631,,,,,,,,,,,,,,,,,,
,,,,,,400817dea5b1878180597973,66a626ef09d4e21e1a8894ec,67377f64a0228faaadcf7fe0,2024-11-15_14h10.13.913,Tarea de género gramatical,2024.2.2,Win32,60.24096386,,,,,,,,,,,,,,,,,,,,,,,130.533,131.6478,a,0,[],[],[],[],[],[],[],0.4365,0,131.6492,132.1478,0,5,5,13,1,2014,MAS,CON,150,siglo,,l,0.4365,,,,,,,,,,,,,,,,,,
,,,,,,400817dea5b1878180597973,66a626ef09d4e21e1a8894ec,67377f64a0228faaadcf7fe0,2024-11-15_14h10.13.913,Tarea de género gramatical,2024.2.2,Win32,60.24096386,,,,,,,,,,,,,,,,,,,,,,,132.1499,133.3812,a,0,[],[],[],[],[],[],[],0.5595,0,133.3815,133.881,0,6,6,11,1,2012,MAS,DIS,150,clima,la,l,0.5595,,,,,,,,,,,,,,,,,,
,,,,,,400817dea5b1878180597973,66a626ef09d4e21e1a8894ec,67377f64a0228faaadcf7fe0,2024-11-15_14h10.13.913,Tarea de género gramatical,2024.2.2,Win32,60.24096386,,,,,,,,,,,,,,,,,,,,,,,133.8827,135.0476,a,1,[],[],[],[],[],[],[],0.4919,1,135.0489,135.5478,0,7,7,3,1,2004,FEM,AGR,150,venta,la,a,0.4919,,,,,,,,,,,,,,,,,,
,,,,,,400817dea5b1878180597973,66a626ef09d4e21e1a8894ec,67377f64a0228faaadcf7fe0,2024-11-15_14h10.13.913,Tarea de género gramatical,2024.2.2,Win32,60.24096386,,,,,,,,,,,,,,,,,,,,,,,135.5495,136.5142,l,1,[],[],[],[],[],[],[],0.2905,1,136.5147,137.0142,0,8,8,9,1,2010,MAS,AGR,150,vecino,el,l,0.2905,,,,,,,,,,,,,,,,,,
,,,,,,400817dea5b1878180597973,66a626ef09d4e21e1a8894ec,67377f64a0228faaadcf7fe0,2024-11-15_14h10.13.913,Tarea de género gramatical,2024.2.2,Win32,60.24096386,,,,,,,,,,,,,,,,,,,,,,,137.016,138.0658,l,0,[],[],[],[],[],[],[],0.3702,0,138.0671,138.5644,0,9,9,7,1,2008,FEM,CON,150,siesta,,a,0.3702,,,,,,,,,,,,,,,,,,
,,,,,,400817dea5b1878180597973,66a626ef09d4e21e1a8894ec,67377f64a0228faaadcf7fe0,2024-11-15_14h10.13.913,Tarea de género gramatical,2024.2.2,Win32,60.24096386,,,,,,,,,,,,,,,,,,,,,,,138.566,139.8138,a,1,[],[],[],[],[],[],[],0.5691,1,139.8151,140.3133,0,10,10,0,1,2001,FEM,AGR,150,nuca,la,a,0.5691,,,,,,,,,,,,,,,,,,
,,,,,,400817dea5b1878180597973,66a626ef09d4e21e1a8894ec,67377f64a0228faaadcf7fe0,2024-11-15_14h10.13.913,Tarea de género gramatical,2024.2.2,Win32,60.24096386,,,,,,,,,,,,,,,,,,,,,,,140.3147,141.5638,l,1,[],[],[],[],[],[],[],0.5741,1,141.5641,142.0647,0,11,11,14,1,2015,MAS,DIS,150,robot,la,l,0.5741,,,,,,,,,,,,,,,,,,
,,,,,,400817dea5b1878180597973,66a626ef09d4e21e1a8894ec,67377f64a0228faaadcf7fe0,2024-11-15_14h10.13.913,Tarea de género gramatical,2024.2.2,Win32,60.24096386,,,,,,,,,,,,,,,,,,,,,,,142.0675,143.4327,l,1,[],[],[],[],[],[],[],0.6971,1,143.4328,143.9304,0,12,12,12,1,2013,MAS,AGR,150,acero,el,l,0.6971,,,,,,,,,,,,,,,,,,
,,,,,,400817dea5b1878180597973,66a626ef09d4e21e1a8894ec,67377f64a0228faaadcf7fe0,2024-11-15_14h10.13.913,Tarea de género gramatical,2024.2.2,Win32,60.24096386,,,,,,,,,,,,,,,,,,,,,,,143.932,145.1135,l,0,[],[],[],[],[],[],[],0.5112,0,145.1146,145.6133,0,13,13,1,1,2002,FEM,CON,150,pala,,a,0.5112,,,,,,,,,,,,,,,,,,
,,,,,,400817dea5b1878180597973,66a626ef09d4e21e1a8894ec,67377f64a0228faaadcf7fe0,2024-11-15_14h10.13.913,Tarea de género gramatical,2024.2.2,Win32,60.24096386,,,,,,,,,,,,,,,,,,,,,,,145.6155,146.7968,l,1,[],[],[],[],[],[],[],0.5019,1,146.7982,147.297,0,14,14,10,1,2011,MAS,CON,150,canal,,l,0.5019,,,,,,,,,,,,,,,,,,
,,,,,,400817dea5b1878180597973,66a626ef09d4e21e1a8894ec,67377f64a0228faaadcf7fe0,2024-11-15_14h10.13.913,Tarea de género gramatical,2024.2.2,Win32,60.24096386,,,148.6347,149.4159,space,0.7699,,-0.255208333,-0.33203125,0,0,0,,,,,,,,,,,149.4804,150.9132,a,1,[],[],[],[],[],[],[],0.7549,1,150.9136,151.4132,,,,,,1220,FEM,AGR,150,fiesta,la,a,0.7549,,151.4139,151.4208,-0.255208333,-0.33203125,0,0,0,,0,0,0,319,1,,,,
,,,,,,400817dea5b1878180597973,66a626ef09d4e21e1a8894ec,67377f64a0228faaadcf7fe0,2024-11-15_14h10.13.913,Tarea de género gramatical,2024.2.2,Win32,60.24096386,,,,,,,,,,,,,,,,,,,,,,,151.4223,152.5968,l,0,[],[],[],[],[],[],[],0.5002,0,152.5974,153.0963,,,,,,1255,FEM,DIS,150,mirada,el,a,0.5002,,153.0964,153.0966,-0.255208333,-0.33203125,0,0,0,,0,1,1,354,1,,,,
,,,,,,400817dea5b1878180597973,66a626ef09d4e21e1a8894ec,67377f64a0228faaadcf7fe0,2024-11-15_14h10.13.913,Tarea de género gramatical,2024.2.2,Win32,60.24096386,,,,,,,,,,,,,,,,,,,,,,,153.0981,154.5463,a,0,[],[],[],[],[],[],[],0.7708,0,154.5468,155.0461,,,,,,1282,MAS,DIS,150,teatro,la,l,0.7708,,155.0486,155.0501,-0.255208333,-0.33203125,0,0,0,,0,2,2,381,1,,,,
,,,,,,400817dea5b1878180597973,66a626ef09d4e21e1a8894ec,67377f64a0228faaadcf7fe0,2024-11-15_14h10.13.913,Tarea de género gramatical,2024.2.2,Win32,60.24096386,,,,,,,,,,,,,,,,,,,,,,,155.0519,156.7963,l,1,[],[],[],[],[],[],[],1.0675,1,156.7977,157.2962,,,,,,1066,MAS,DIS,150,coche,la,l,1.0675,,157.2965,157.2968,-0.255208333,-0.33203125,0,0,0,,0,3,3,165,1,,,,
,,,,,,400817dea5b1878180597973,66a626ef09d4e21e1a8894ec,67377f64a0228faaadcf7fe0,2024-11-15_14h10.13.913,Tarea de género gramatical,2024.2.2,Win32,60.24096386,,,,,,,,,,,,,,,,,,,,,,,157.2982,158.7126,a,1,[],[],[],[],[],[],[],0.7423,1,158.7129,159.2125,,,,,,1201,FEM,DIS,150,verdad,el,a,0.7423,,159.2126,159.2133,-0.255208333,-0.33203125,0,0,0,,0,4,4,300,1,,,,
,,,,,,400817dea5b1878180597973,66a626ef09d4e21e1a8894ec,67377f64a0228faaadcf7fe0,2024-11-15_14h10.13.913,Tarea de género gramatical,2024.2.2,Win32,60.24096386,,,,,,,,,,,,,,,,,,,,,,,159.2146,160.4622,a,1,[],[],[],[],[],[],[],0.5777,1,160.4623,160.9625,,,,,,1237,FEM,DIS,150,escena,el,a,0.5777,,160.9628,160.9633,-0.255208333,-0.33203125,0,0,0,,0,5,5,336,1,,,,
,,,,,,400817dea5b1878180597973,66a626ef09d4e21e1a8894ec,67377f64a0228faaadcf7fe0,2024-11-15_14h10.13.913,Tarea de género gramatical,2024.2.2,Win32,60.24096386,,,,,,,,,,,,,,,,,,,,,,,160.965,162.0291,a,1,[],[],[],[],[],[],[],0.3874,1,162.0297,162.5286,,,,,,1340,FEM,AGR,150,patada,la,a,0.3874,,162.5298,162.5306,-0.255208333,-0.33203125,0,0,0,,0,6,6,439,1,,,,
,,,,,,400817dea5b1878180597973,66a626ef09d4e21e1a8894ec,67377f64a0228faaadcf7fe0,2024-11-15_14h10.13.913,Tarea de género gramatical,2024.2.2,Win32,60.24096386,,,,,,,,,,,,,,,,,,,,,,,162.5314,163.647,a,1,[],[],[],[],[],[],[],0.4458,1,163.6473,164.1451,,,,,,1077,FEM,CON,150,broma,,a,0.4458,,164.1451,164.1454,-0.255208333,-0.33203125,0,0,0,,0,7,7,176,1,,,,
,,,,,,400817dea5b1878180597973,66a626ef09d4e21e1a8894ec,67377f64a0228faaadcf7fe0,2024-11-15_14h10.13.913,Tarea de género gramatical,2024.2.2,Win32,60.24096386,,,,,,,,,,,,,,,,,,,,,,,164.1475,165.1455,a,1,[],[],[],[],[],[],[],0.3189,1,165.1458,165.6454,,,,,,1112,FEM,AGR,150,cinta,la,a,0.3189,,165.6456,165.646,-0.255208333,-0.33203125,0,0,0,,0,8,8,211,1,,,,
,,,,,,400817dea5b1878180597973,66a626ef09d4e21e1a8894ec,67377f64a0228faaadcf7fe0,2024-11-15_14h10.13.913,Tarea de género gramatical,2024.2.2,Win32,60.24096386,,,,,,,,,,,,,,,,,,,,,,,165.6474,166.596,a,1,[],[],[],[],[],[],[],0.2783,1,166.5961,167.0957,,,,,,1189,FEM,DIS,150,tabla,el,a,0.2783,,167.0959,167.0962,-0.255208333,-0.33203125,0,0,0,,0,9,9,288,1,,,,
,,,,,,400817dea5b1878180597973,66a626ef09d4e21e1a8894ec,67377f64a0228faaadcf7fe0,2024-11-15_14h10.13.913,Tarea de género gramatical,2024.2.2,Win32,60.24096386,,,,,,,,,,,,,,,,,,,,,,,167.0981,168.2793,l,1,[],[],[],[],[],[],[],0.5054,1,168.2793,168.778,,,,,,1277,MAS,AGR,150,jardín,el,l,0.5054,,168.7781,168.7782,-0.255208333,-0.33203125,0,0,0,,0,10,10,376,1,,,,
,,,,,,400817dea5b1878180597973,66a626ef09d4e21e1a8894ec,67377f64a0228faaadcf7fe0,2024-11-15_14h10.13.913,Tarea de género gramatical,2024.2.2,Win32,60.24096386,,,,,,,,,,,,,,,,,,,,,,,168.7792,169.7287,l,1,[],[],[],[],[],[],[],0.2686,1,169.7289,170.2318,,,,,,1080,MAS,CON,150,fuego,,l,0.2686,,170.234,170.2352,-0.255208333,-0.33203125,0,0,0,,0,11,11,179,1,,,,
,,,,,,400817dea5b1878180597973,66a626ef09d4e21e1a8894ec,67377f64a0228faaadcf7fe0,2024-11-15_14h10.13.913,Tarea de género gramatical,2024.2.2,Win32,60.24096386,,,,,,,,,,,,,,,,,,,,,,,170.2368,171.2279,l,1,[],[],[],[],[],[],[],0.3206,1,171.2282,171.7282,,,,,,1198,MAS,DIS,150,botón,la,l,0.3206,,171.7284,171.7285,-0.255208333,-0.33203125,0,0,0,,0,12,12,297,1,,,,
,,,,,,400817dea5b1878180597973,66a626ef09d4e21e1a8894ec,67377f64a0228faaadcf7fe0,2024-11-15_14h10.13.913,Tarea de género gramatical,2024.2.2,Win32,60.24096386,,,,,,,,,,,,,,,,,,,,,,,171.7293,172.7783,l,1,[],[],[],[],[],[],[],0.3699,1,172.7785,173.2786,,,,,,966,MAS,CON,150,muro,,l,0.3699,,173.2786,173.279,-0.255208333,-0.33203125,0,0,0,,0,13,13,65,1,,,,
,,,,,,400817dea5b1878180597973,66a626ef09d4e21e1a8894ec,67377f64a0228faaadcf7fe0,2024-11-15_14h10.13.913,Tarea de género gramatical,2024.2.2,Win32,60.24096386,,,,,,,,,,,,,,,,,,,,,,,173.2804,174.395,l,0,[],[],[],[],[],[],[],0.4422,0,174.3962,174.8949,,,,,,956,FEM,AGR,150,bola,la,a,0.4422,,174.8951,174.8953,-0.255208333,-0.33203125,0,0,0,,0,14,14,55,1,,,,
,,,,,,400817dea5b1878180597973,66a626ef09d4e21e1a8894ec,67377f64a0228faaadcf7fe0,2024-11-15_14h10.13.913,Tarea de género gramatical,2024.2.2,Win32,60.24096386,,,,,,,,,,,,,,,,,,,,,,,174.897,176.0781,a,0,[],[],[],[],[],[],[],0.5009,0,176.0784,176.5781,,,,,,1313,MAS,AGR,150,diario,el,l,0.5009,,176.5805,176.5818,-0.255208333,-0.33203125,0,0,0,,0,15,15,412,1,,,,
,,,,,,400817dea5b1878180597973,66a626ef09d4e21e1a8894ec,67377f64a0228faaadcf7fe0,2024-11-15_14h10.13.913,Tarea de género gramatical,2024.2.2,Win32,60.24096386,,,,,,,,,,,,,,,,,,,,,,,176.583,177.7111,l,1,[],[],[],[],[],[],[],0.4623,1,177.712,178.2107,,,,,,978,MAS,CON,150,oído,,l,0.4623,,178.2107,178.2108,-0.255208333,-0.33203125,0,0,0,,0,16,16,77,1,,,,
,,,,,,400817dea5b1878180597973,66a626ef09d4e21e1a8894ec,67377f64a0228faaadcf7fe0,2024-11-15_14h10.13.913,Tarea de género gramatical,2024.2.2,Win32,60.24096386,,,,,,,,,,,,,,,,,,,,,,,178.2119,179.1945,l,1,[],[],[],[],[],[],[],0.3017,1,179.1946,179.6814,,,,,,1343,MAS,AGR,150,templo,el,l,0.3017,,179.6816,179.6816,-0.255208333,-0.33203125,0,0,0,,0,17,17,442,1,,,,
,,,,,,400817dea5b1878180597973,66a626ef09d4e21e1a8894ec,67377f64a0228faaadcf7fe0,2024-11-15_14h10.13.913,Tarea de género gramatical,2024.2.2,Win32,60.24096386,,,,,,,,,,,,,,,,,,,,,,,179.6837,180.8277,l,1,[],[],[],[],[],[],[],0.4651,1,180.8286,181.328,,,,,,1300,MAS,DIS,150,barrio,la,l,0.4651,,181.328,181.3281,-0.255208333,-0.33203125,0,0,0,,0,18,18,399,1,,,,
,,,,,,400817dea5b1878180597973,66a626ef09d4e21e1a8894ec,67377f64a0228faaadcf7fe0,2024-11-15_14h10.13.913,Tarea de género gramatical,2024.2.2,Win32,60.24096386,,,,,,,,,,,,,,,,,,,,,,,181.3291,182.6118,a,1,[],[],[],[],[],[],[],0.6122,1,182.6122,183.111,,,,,,1129,FEM,DIS,150,celda,el,a,0.6122,,183.111,183.1113,-0.255208333,-0.33203125,0,0,0,,0,19,19,228,1,,,,
,,,,,,400817dea5b1878180597973,66a626ef09d4e21e1a8894ec,67377f64a0228faaadcf7fe0,2024-11-15_14h10.13.913,Tarea de género gramatical,2024.2.2,Win32,60.24096386,,,,,,,,,,,,,,,,,,,,,,,183.1128,184.2608,l,1,[],[],[],[],[],[],[],0.469,1,184.2611,184.7608,,,,,,988,MAS,DIS,150,pavo,la,l,0.469,,184.7626,184.7642,-0.255208333,-0.33203125,0,0,0,,0,20,20,87,1,,,,
,,,,,,400817dea5b1878180597973,66a626ef09d4e21e1a8894ec,67377f64a0228faaadcf7fe0,2024-11-15_14h10.13.913,Tarea de género gramatical,2024.2.2,Win32,60.24096386,,,,,,,,,,,,,,,,,,,,,,,184.7656,186.0126,a,1,[],[],[],[],[],[],[],0.5799,1,186.0128,186.5108,,,,,,1082,FEM,AGR,150,prisa,la,a,0.5799,,186.5108,186.5112,-0.255208333,-0.33203125,0,0,0,,0,21,21,181,1,,,,
,,,,,,400817dea5b1878180597973,66a626ef09d4e21e1a8894ec,67377f64a0228faaadcf7fe0,2024-11-15_14h10.13.913,Tarea de género gramatical,2024.2.2,Win32,60.24096386,,,,,,,,,,,,,,,,,,,,,,,186.5134,187.6445,a,1,[],[],[],[],[],[],[],0.4613,1,187.6446,188.1439,,,,,,986,FEM,AGR,150,cruz,la,a,0.4613,,188.1439,188.1441,-0.255208333,-0.33203125,0,0,0,,0,22,22,85,1,,,,
,,,,,,400817dea5b1878180597973,66a626ef09d4e21e1a8894ec,67377f64a0228faaadcf7fe0,2024-11-15_14h10.13.913,Tarea de género gramatical,2024.2.2,Win32,60.24096386,,,,,,,,,,,,,,,,,,,,,,,188.1465,189.4787,a,1,[],[],[],[],[],[],[],0.6627,1,189.4787,189.9766,,,,,,1285,FEM,DIS,150,muñeca,el,a,0.6627,,189.9768,189.9769,-0.255208333,-0.33203125,0,0,0,,0,23,23,384,1,,,,
,,,,,,400817dea5b1878180597973,66a626ef09d4e21e1a8894ec,67377f64a0228faaadcf7fe0,2024-11-15_14h10.13.913,Tarea de género gramatical,2024.2.2,Win32,60.24096386,,,,,,,,,,,,,,,,,,,,,,,189.9776,191.1271,l,1,[],[],[],[],[],[],[],0.4838,1,191.1274,191.6274,,,,,,1254,MAS,CON,150,camión,,l,0.4838,,191.6291,191.6306,-0.255208333,-0.33203125,0,0,0,,0,24,24,353,1,,,,
,,,,,,400817dea5b1878180597973,66a626ef09d4e21e1a8894ec,67377f64a0228faaadcf7fe0,2024-11-15_14h10.13.913,Tarea de género gramatical,2024.2.2,Win32,60.24096386,,,,,,,,,,,,,,,,,,,,,,,191.6319,192.7939,a,1,[],[],[],[],[],[],[],0.4892,1,192.7943,193.2935,,,,,,1347,FEM,CON,150,lógica,,a,0.4892,,193.2936,193.294,-0.255208333,-0.33203125,0,0,0,,0,25,25,446,1,,,,
,,,,,,400817dea5b1878180597973,66a626ef09d4e21e1a8894ec,67377f64a0228faaadcf7fe0,2024-11-15_14h10.13.913,Tarea de género gramatical,2024.2.2,Win32,60.24096386,,,,,,,,,,,,,,,,,,,,,,,193.2954,194.3763,a,1,[],[],[],[],[],[],[],0.4018,1,194.3765,194.8768,,,,,,902,FEM,AGR,150,vida,la,a,0.4018,,194.8768,194.8773,-0.255208333,-0.33203125,0,0,0,,0,26,26,1,1,,,,
,,,,,,400817dea5b1878180597973,66a626ef09d4e21e1a8894ec,67377f64a0228faaadcf7fe0,2024-11-15_14h10.13.913,Tarea de género gramatical,2024.2.2,Win32,60.24096386,,,,,,,,,,,,,,,,,,,,,,,194.8787,195.8934,l,1,[],[],[],[],[],[],[],0.3438,1,195.8934,196.3935,,,,,,1121,MAS,AGR,150,brazo,el,l,0.3438,,196.3936,196.394,-0.255208333,-0.33203125,0,0,0,,0,27,27,220,1,,,,
,,,,,,400817dea5b1878180597973,66a626ef09d4e21e1a8894ec,67377f64a0228faaadcf7fe0,2024-11-15_14h10.13.913,Tarea de género gramatical,2024.2.2,Win32,60.24096386,,,,,,,,,,,,,,,,,,,,,,,196.3955,197.8268,l,1,[],[],[],[],[],[],[],0.7545,1,197.8274,198.3264,,,,,,958,MAS,DIS,150,mono,la,l,0.7545,,198.3265,198.3266,-0.255208333,-0.33203125,0,0,0,,0,28,28,57,1,,,,
,,,,,,400817dea5b1878180597973,66a626ef09d4e21e1a8894ec,67377f64a0228faaadcf7fe0,2024-11-15_14h10.13.913,Tarea de género gramatical,2024.2.2,Win32,60.24096386,,,,,,,,,,,,,,,,,,,,,,,198.329,199.5425,a,1,[],[],[],[],[],[],[],0.5405,1,199.5426,200.043,,,,,,963,FEM,CON,150,fila,,a,0.5405,,200.0449,200.0465,-0.255208333,-0.33203125,0,0,0,,0,29,29,62,1,,,,
,,,,,,400817dea5b1878180597973,66a626ef09d4e21e1a8894ec,67377f64a0228faaadcf7fe0,2024-11-15_14h10.13.913,Tarea de género gramatical,2024.2.2,Win32,60.24096386,,,,,,,,,,,,,,,,,,,,,,,200.0477,201.5766,l,1,[],[],[],[],[],[],[],0.8515,1,201.577,202.0766,,,,,,1290,MAS,CON,150,rostro,,l,0.8515,,202.0767,202.0768,-0.255208333,-0.33203125,0,0,0,,0,30,30,389,1,,,,
,,,,,,400817dea5b1878180597973,66a626ef09d4e21e1a8894ec,67377f64a0228faaadcf7fe0,2024-11-15_14h10.13.913,Tarea de género gramatical,2024.2.2,Win32,60.24096386,,,,,,,,,,,,,,,,,,,,,,,202.0785,203.1594,l,1,[],[],[],[],[],[],[],0.4084,1,203.1597,203.6598,,,,,,924,MAS,CON,150,voto,,l,0.4084,,203.66,203.6602,-0.255208333,-0.33203125,0,0,0,,0,31,31,23,1,,,,
,,,,,,400817dea5b1878180597973,66a626ef09d4e21e1a8894ec,67377f64a0228faaadcf7fe0,2024-11-15_14h10.13.913,Tarea de género gramatical,2024.2.2,Win32,60.24096386,,,,,,,,,,,,,,,,,,,,,,,203.6616,204.7598,a,1,[],[],[],[],[],[],[],0.4175,1,204.7602,205.2594,,,,,,1142,FEM,AGR,150,pizza,la,a,0.4175,,205.2594,205.2597,-0.255208333,-0.33203125,0,0,0,,0,32,32,241,1,,,,
,,,,,,400817dea5b1878180597973,66a626ef09d4e21e1a8894ec,67377f64a0228faaadcf7fe0,2024-11-15_14h10.13.913,Tarea de género gramatical,2024.2.2,Win32,60.24096386,,,,,,,,,,,,,,,,,,,,,,,205.2612,206.393,l,1,[],[],[],[],[],[],[],0.4512,1,206.3935,206.8926,,,,,,1007,MAS,AGR,150,cubo,el,l,0.4512,,206.8945,206.8961,-0.255208333,-0.33203125,0,0,0,,0,33,33,106,1,,,,
,,,,,,400817dea5b1878180597973,66a626ef09d4e21e1a8894ec,67377f64a0228faaadcf7fe0,2024-11-15_14h10.13.913,Tarea de género gramatical,2024.2.2,Win32,60.24096386,,,,,,,,,,,,,,,,,,,,,,,206.8974,208.043,a,1,[],[],[],[],[],[],[],0.4675,1,208.0433,208.5427,,,,,,1191,FEM,CON,150,aguja,,a,0.4675,,208.5429,208.5433,-0.255208333,-0.33203125,0,0,0,,0,34,34,290,1,,,,
,,,,,,400817dea5b1878180597973,66a626ef09d4e21e1a8894ec,67377f64a0228faaadcf7fe0,2024-11-15_14h10.13.913,Tarea de género gramatical,2024.2.2,Win32,60.24096386,,,,,,,,,,,,,,,,,,,,,,,208.5446,209.7258,l,1,[],[],[],[],[],[],[],0.5074,1,209.7261,210.2259,,,,,,1223,MAS,AGR,150,marido,el,l,0.5074,,210.2261,210.2264,-0.255208333,-0.33203125,0,0,0,,0,35,35,322,1,,,,
,,,,,,400817dea5b1878180597973,66a626ef09d4e21e1a8894ec,67377f64a0228faaadcf7fe0,2024-11-15_14h10.13.913,Tarea de género gramatical,2024.2.2,Win32,60.24096386,,,,,,,,,,,,,,,,,,,,,,,210.2278,211.3425,a,1,[],[],[],[],[],[],[],0.4387,1,211.3431,211.8416,,,,,,1100,FEM,AGR,150,silla,la,a,0.4387,,211.8417,211.8417,-0.255208333,-0.33203125,0,0,0,,0,36,36,199,1,,,,
,,,,,,400817dea5b1878180597973,66a626ef09d4e21e1a8894ec,67377f64a0228faaadcf7fe0,2024-11-15_14h10.13.913,Tarea de género gramatical,2024.2.2,Win32,60.24096386,,,,,,,,,,,,,,,,,,,,,,,211.8442,213.5581,a,1,[],[],[],[],[],[],[],1.0429,1,213.5582,214.0588,,,,,,1345,FEM,DIS,150,bondad,el,a,1.0429,,214.059,214.059,-0.255208333,-0.33203125,0,0,0,,0,37,37,444,1,,,,
,,,,,,400817dea5b1878180597973,66a626ef09d4e21e1a8894ec,67377f64a0228faaadcf7fe0,2024-11-15_14h10.13.913,Tarea de género gramatical,2024.2.2,Win32,60.24096386,,,,,,,,,,,,,,,,,,,,,,,214.0601,215.2255,a,0,[],[],[],[],[],[],[],0.4876,0,215.2269,215.7255,,,,,,972,MAS,CON,150,hoyo,,l,0.4876,,215.7274,215.729,-0.255208333,-0.33203125,0,0,0,,0,38,38,71,1,,,,
,,,,,,400817dea5b1878180597973,66a626ef09d4e21e1a8894ec,67377f64a0228faaadcf7fe0,2024-11-15_14h10.13.913,Tarea de género gramatical,2024.2.2,Win32,60.24096386,,,,,,,,,,,,,,,,,,,,,,,215.7307,216.7921,l,1,[],[],[],[],[],[],[],0.388,1,216.7934,217.2923,,,,,,942,MAS,CON,150,show,,l,0.388,,217.2924,217.2926,-0.255208333,-0.33203125,0,0,0,,0,39,39,41,1,,,,
,,,,,,400817dea5b1878180597973,66a626ef09d4e21e1a8894ec,67377f64a0228faaadcf7fe0,2024-11-15_14h10.13.913,Tarea de género gramatical,2024.2.2,Win32,60.24096386,,,,,,,,,,,,,,,,,,,,,,,217.2938,218.3412,a,1,[],[],[],[],[],[],[],0.3707,1,218.3413,218.842,,,,,,987,FEM,CON,150,risa,,a,0.3707,,218.8422,218.8425,-0.255208333,-0.33203125,0,0,0,,0,40,40,86,1,,,,
,,,,,,400817dea5b1878180597973,66a626ef09d4e21e1a8894ec,67377f64a0228faaadcf7fe0,2024-11-15_14h10.13.913,Tarea de género gramatical,2024.2.2,Win32,60.24096386,,,,,,,,,,,,,,,,,,,,,,,218.8439,219.9938,l,1,[],[],[],[],[],[],[],0.4677,1,219.9939,220.492,,,,,,1025,MAS,AGR,150,bate,el,l,0.4677,,220.4923,220.4926,-0.255208333,-0.33203125,0,0,0,,0,41,41,124,1,,,,
,,,,,,400817dea5b1878180597973,66a626ef09d4e21e1a8894ec,67377f64a0228faaadcf7fe0,2024-11-15_14h10.13.913,Tarea de género gramatical,2024.2.2,Win32,60.24096386,,,,,,,,,,,,,,,,,,,,,,,220.4946,221.5251,a,1,[],[],[],[],[],[],[],0.3552,1,221.5253,222.0248,,,,,,1221,FEM,CON,150,comida,,a,0.3552,,222.0263,222.0276,-0.255208333,-0.33203125,0,0,0,,0,42,42,320,1,,,,
,,,,,,400817dea5b1878180597973,66a626ef09d4e21e1a8894ec,67377f64a0228faaadcf7fe0,2024-11-15_14h10.13.913,Tarea de género gramatical,2024.2.2,Win32,60.24096386,,,,,,,,,,,,,,,,,,,,,,,222.0289,223.2087,a,1,[],[],[],[],[],[],[],0.5023,1,223.2089,223.7081,,,,,,957,FEM,CON,150,moda,,a,0.5023,,223.7083,223.7087,-0.255208333,-0.33203125,0,0,0,,0,43,43,56,1,,,,
,,,,,,400817dea5b1878180597973,66a626ef09d4e21e1a8894ec,67377f64a0228faaadcf7fe0,2024-11-15_14h10.13.913,Tarea de género gramatical,2024.2.2,Win32,60.24096386,,,,,,,,,,,,,,,,,,,,,,,223.71,224.9579,a,1,[],[],[],[],[],[],[],0.5677,1,224.9581,225.4581,,,,,,979,FEM,DIS,150,mina,el,a,0.5677,,225.4582,225.4585,-0.255208333,-0.33203125,0,0,0,,0,44,44,78,1,,,,
,,,,,,400817dea5b1878180597973,66a626ef09d4e21e1a8894ec,67377f64a0228faaadcf7fe0,2024-11-15_14h10.13.913,Tarea de género gramatical,2024.2.2,Win32,60.24096386,,,,,,,,,,,,,,,,,,,,,,,225.46,226.5408,a,0,[],[],[],[],[],[],[],0.4004,0,226.5417,227.0412,,,,,,954,MAS,CON,150,humo,,l,0.4004,,227.0414,227.0415,-0.255208333,-0.33203125,0,0,0,,0,45,45,53,1,,,,
,,,,,,400817dea5b1878180597973,66a626ef09d4e21e1a8894ec,67377f64a0228faaadcf7fe0,2024-11-15_14h10.13.913,Tarea de género gramatical,2024.2.2,Win32,60.24096386,,,,,,,,,,,,,,,,,,,,,,,227.0431,228.2082,l,1,[],[],[],[],[],[],[],0.4917,1,228.2099,228.708,,,,,,916,MAS,DIS,150,baño,la,l,0.4917,,228.7083,228.7083,-0.255208333,-0.33203125,0,0,0,,0,46,46,15,1,,,,
,,,,,,400817dea5b1878180597973,66a626ef09d4e21e1a8894ec,67377f64a0228faaadcf7fe0,2024-11-15_14h10.13.913,Tarea de género gramatical,2024.2.2,Win32,60.24096386,,,,,,,,,,,,,,,,,,,,,,,228.7095,229.9071,l,1,[],[],[],[],[],[],[],0.521,1,229.9072,230.407,,,,,,1318,MAS,DIS,150,pájaro,la,l,0.521,,230.4081,230.4088,-0.255208333,-0.33203125,0,0,0,,0,47,47,417,1,,,,
,,,,,,400817dea5b1878180597973,66a626ef09d4e21e1a8894ec,67377f64a0228faaadcf7fe0,2024-11-15_14h10.13.913,Tarea de género gramatical,2024.2.2,Win32,60.24096386,,,,,,,,,,,,,,,,,,,,,,,230.41,231.3597,l,1,[],[],[],[],[],[],[],0.2802,1,231.3598,231.8577,,,,,,1020,MAS,CON,150,puño,,l,0.2802,,231.8579,231.8582,-0.255208333,-0.33203125,0,0,0,,0,48,48,119,1,,,,
,,,,,,400817dea5b1878180597973,66a626ef09d4e21e1a8894ec,67377f64a0228faaadcf7fe0,2024-11-15_14h10.13.913,Tarea de género gramatical,2024.2.2,Win32,60.24096386,,,,,,,,,,,,,,,,,,,,,,,231.8595,232.8764,a,1,[],[],[],[],[],[],[],0.3367,1,232.8765,233.3743,,,,,,992,FEM,AGR,150,masa,la,a,0.3367,,233.3745,233.3748,-0.255208333,-0.33203125,0,0,0,,0,49,49,91,1,,,,
,,,,,,400817dea5b1878180597973,66a626ef09d4e21e1a8894ec,67377f64a0228faaadcf7fe0,2024-11-15_14h10.13.913,Tarea de género gramatical,2024.2.2,Win32,60.24096386,,,,,,,,,,,,,,,,,,,,,,,233.376,234.4409,l,1,[],[],[],[],[],[],[],0.3841,1,234.4414,234.9407,,,,,,905,MAS,AGR,150,tipo,el,l,0.3841,,234.9409,234.9413,-0.255208333,-0.33203125,0,0,0,,0,50,50,4,1,,,,
,,,,,,400817dea5b1878180597973,66a626ef09d4e21e1a8894ec,67377f64a0228faaadcf7fe0,2024-11-15_14h10.13.913,Tarea de género gramatical,2024.2.2,Win32,60.24096386,,,,,,,,,,,,,,,,,,,,,,,234.9425,235.974,l,1,[],[],[],[],[],[],[],0.3538,1,235.9743,236.4741,,,,,,1127,MAS,AGR,150,vuelo,el,l,0.3538,,236.4755,236.4767,-0.255208333,-0.33203125,0,0,0,,0,51,51,226,1,,,,
,,,,,,400817dea5b1878180597973,66a626ef09d4e21e1a8894ec,67377f64a0228faaadcf7fe0,2024-11-15_14h10.13.913,Tarea de género gramatical,2024.2.2,Win32,60.24096386,,,,,,,,,,,,,,,,,,,,,,,236.478,237.5904,a,1,[],[],[],[],[],[],[],0.4368,1,237.5905,238.0906,,,,,,1041,FEM,CON,150,cera,,a,0.4368,,238.0908,238.0912,-0.255208333,-0.33203125,0,0,0,,0,52,52,140,1,,,,
,,,,,,400817dea5b1878180597973,66a626ef09d4e21e1a8894ec,67377f64a0228faaadcf7fe0,2024-11-15_14h10.13.913,Tarea de género gramatical,2024.2.2,Win32,60.24096386,,,,,,,,,,,,,,,,,,,,,,,238.0924,239.1575,a,0,[],[],[],[],[],[],[],0.3843,0,239.1587,239.6573,,,,,,1146,MAS,CON,150,humor,,l,0.3843,,239.6575,239.6577,-0.255208333,-0.33203125,0,0,0,,0,53,53,245,1,,,,
,,,,,,400817dea5b1878180597973,66a626ef09d4e21e1a8894ec,67377f64a0228faaadcf7fe0,2024-11-15_14h10.13.913,Tarea de género gramatical,2024.2.2,Win32,60.24096386,,,,,,,,,,,,,,,,,,,,,,,239.6591,240.8402,l,1,[],[],[],[],[],[],[],0.5022,1,240.8416,241.3402,,,,,,1090,MAS,DIS,150,campo,la,l,0.5022,,241.3404,241.3406,-0.255208333,-0.33203125,0,0,0,,0,54,54,189,1,,,,
,,,,,,400817dea5b1878180597973,66a626ef09d4e21e1a8894ec,67377f64a0228faaadcf7fe0,2024-11-15_14h10.13.913,Tarea de género gramatical,2024.2.2,Win32,60.24096386,,,,,,,,,,,,,,,,,,,,,,,241.3421,242.4395,l,1,[],[],[],[],[],[],[],0.4242,1,242.4396,242.9404,,,,,,1224,MAS,CON,150,cuarto,,l,0.4242,,242.9405,242.9408,-0.255208333,-0.33203125,0,0,0,,0,55,55,323,1,,,,
,,,,,,400817dea5b1878180597973,66a626ef09d4e21e1a8894ec,67377f64a0228faaadcf7fe0,2024-11-15_14h10.13.913,Tarea de género gramatical,2024.2.2,Win32,60.24096386,,,,,,,,,,,,,,,,,,,,,,,242.9421,244.2067,a,1,[],[],[],[],[],[],[],0.5902,1,244.207,244.7064,,,,,,1065,FEM,CON,150,amiga,,a,0.5902,,244.7078,244.7085,-0.255208333,-0.33203125,0,0,0,,0,56,56,164,1,,,,
,,,,,,400817dea5b1878180597973,66a626ef09d4e21e1a8894ec,67377f64a0228faaadcf7fe0,2024-11-15_14h10.13.913,Tarea de género gramatical,2024.2.2,Win32,60.24096386,,,,,,,,,,,,,,,,,,,,,,,244.7092,246.1407,a,1,[],[],[],[],[],[],[],0.762,1,246.1409,246.6401,,,,,,1273,FEM,DIS,150,lluvia,el,a,0.762,,246.6402,246.6404,-0.255208333,-0.33203125,0,0,0,,0,57,57,372,1,,,,
,,,,,,400817dea5b1878180597973,66a626ef09d4e21e1a8894ec,67377f64a0228faaadcf7fe0,2024-11-15_14h10.13.913,Tarea de género gramatical,2024.2.2,Win32,60.24096386,,,,,,,,,,,,,,,,,,,,,,,246.6419,248.2584,a,1,[],[],[],[],[],[],[],0.9467,1,248.2585,248.7566,,,,,,1268,FEM,AGR,150,gracia,la,a,0.9467,,248.7567,248.7571,-0.255208333,-0.33203125,0,0,0,,0,58,58,367,1,,,,
,,,,,,400817dea5b1878180597973,66a626ef09d4e21e1a8894ec,67377f64a0228faaadcf7fe0,2024-11-15_14h10.13.913,Tarea de género gramatical,2024.2.2,Win32,60.24096386,,,,,,,,,,,,,,,,,,,,,,,248.7584,249.9398,l,0,[],[],[],[],[],[],[],0.5014,0,249.9411,250.4398,,,,,,1111,FEM,DIS,150,salud,el,a,0.5014,,250.4399,250.4405,-0.255208333,-0.33203125,0,0,0,,0,59,59,210,1,,,,
,,,,,,400817dea5b1878180597973,66a626ef09d4e21e1a8894ec,67377f64a0228faaadcf7fe0,2024-11-15_14h10.13.913,Tarea de género gramatical,2024.2.2,Win32,60.24096386,,,,,,,,,,,,,,,,,,,,,,,250.4422,251.6728,a,1,[],[],[],[],[],[],[],0.552,1,251.674,252.1729,,,,,,1232,FEM,AGR,150,basura,la,a,0.552,,252.1738,252.1746,-0.255208333,-0.33203125,0,0,0,,0,60,60,331,1,,,,
,,,,,,400817dea5b1878180597973,66a626ef09d4e21e1a8894ec,67377f64a0228faaadcf7fe0,2024-11-15_14h10.13.913,Tarea de género gramatical,2024.2.2,Win32,60.24096386,,,,,,,,,,,,,,,,,,,,,,,252.1756,253.2227,a,1,[],[],[],[],[],[],[],0.3686,1,253.2231,253.7228,,,,,,1184,FEM,AGR,150,fruta,la,a,0.3686,,253.723,253.7234,-0.255208333,-0.33203125,0,0,0,,0,61,61,283,1,,,,
,,,,,,400817dea5b1878180597973,66a626ef09d4e21e1a8894ec,67377f64a0228faaadcf7fe0,2024-11-15_14h10.13.913,Tarea de género gramatical,2024.2.2,Win32,60.24096386,,,,,,,,,,,,,,,,,,,,,,,253.7247,254.922,a,1,[],[],[],[],[],[],[],0.5223,1,254.9222,255.4229,,,,,,1059,FEM,CON,150,clase,,a,0.5223,,255.4231,255.4234,-0.255208333,-0.33203125,0,0,0,,0,62,62,158,1,,,,
,,,,,,400817dea5b1878180597973,66a626ef09d4e21e1a8894ec,67377f64a0228faaadcf7fe0,2024-11-15_14h10.13.913,Tarea de género gramatical,2024.2.2,Win32,60.24096386,,,,,,,,,,,,,,,,,,,,,,,255.4247,256.4559,a,1,[],[],[],[],[],[],[],0.3578,1,256.4561,256.9551,,,,,,1124,FEM,AGR,150,arena,la,a,0.3578,,256.9552,256.9553,-0.255208333,-0.33203125,0,0,0,,0,63,63,223,1,,,,
,,,,,,400817dea5b1878180597973,66a626ef09d4e21e1a8894ec,67377f64a0228faaadcf7fe0,2024-11-15_14h10.13.913,Tarea de género gramatical,2024.2.2,Win32,60.24096386,,,,,,,,,,,,,,,,,,,,,,,256.9563,258.2065,l,1,[],[],[],[],[],[],[],0.5758,1,258.2066,258.7051,,,,,,1006,MAS,DIS,150,test,la,l,0.5758,,258.7051,258.7052,-0.255208333,-0.33203125,0,0,0,,0,64,64,105,1,,,,
,,,,,,400817dea5b1878180597973,66a626ef09d4e21e1a8894ec,67377f64a0228faaadcf7fe0,2024-11-15_14h10.13.913,Tarea de género gramatical,2024.2.2,Win32,60.24096386,,,,,,,,,,,,,,,,,,,,,,,258.7063,259.7889,l,1,[],[],[],[],[],[],[],0.4002,1,259.7892,260.2911,,,,,,1206,MAS,CON,150,dinero,,l,0.4002,,260.2924,260.2937,-0.255208333,-0.33203125,0,0,0,,0,65,65,305,1,,,,
,,,,,,400817dea5b1878180597973,66a626ef09d4e21e1a8894ec,67377f64a0228faaadcf7fe0,2024-11-15_14h10.13.913,Tarea de género gramatical,2024.2.2,Win32,60.24096386,,,,,,,,,,,,,,,,,,,,,,,260.2954,261.6553,l,1,[],[],[],[],[],[],[],0.6841,1,261.6555,262.1549,,,,,,1175,MAS,AGR,150,disco,el,l,0.6841,,262.155,262.155,-0.255208333,-0.33203125,0,0,0,,0,66,66,274,1,,,,
,,,,,,400817dea5b1878180597973,66a626ef09d4e21e1a8894ec,67377f64a0228faaadcf7fe0,2024-11-15_14h10.13.913,Tarea de género gramatical,2024.2.2,Win32,60.24096386,,,,,,,,,,,,,,,,,,,,,,,262.1559,263.6386,l,1,[],[],[],[],[],[],[],0.8255,1,263.6387,264.1411,,,,,,1156,MAS,DIS,150,techo,la,l,0.8255,,264.1412,264.1413,-0.255208333,-0.33203125,0,0,0,,0,67,67,255,1,,,,
,,,,,,400817dea5b1878180597973,66a626ef09d4e21e1a8894ec,67377f64a0228faaadcf7fe0,2024-11-15_14h10.13.913,Tarea de género gramatical,2024.2.2,Win32,60.24096386,,,,,,,,,,,,,,,,,,,,,,,264.1428,265.4218,a,1,[],[],[],[],[],[],[],0.6079,1,265.4221,265.9219,,,,,,1243,FEM,DIS,150,trampa,el,a,0.6079,,265.9219,265.922,-0.255208333,-0.33203125,0,0,0,,0,68,68,342,1,,,,
,,,,,,400817dea5b1878180597973,66a626ef09d4e21e1a8894ec,67377f64a0228faaadcf7fe0,2024-11-15_14h10.13.913,Tarea de género gramatical,2024.2.2,Win32,60.24096386,,,,,,,,,,,,,,,,,,,,,,,265.9238,267.2219,l,1,[],[],[],[],[],[],[],0.6191,1,267.2221,267.7213,,,,,,1050,MAS,CON,150,mozo,,l,0.6191,,267.722,267.7228,-0.255208333,-0.33203125,0,0,0,,0,69,69,149,1,,,,
,,,,,,400817dea5b1878180597973,66a626ef09d4e21e1a8894ec,67377f64a0228faaadcf7fe0,2024-11-15_14h10.13.913,Tarea de género gramatical,2024.2.2,Win32,60.24096386,,,,,,,,,,,,,,,,,,,,,,,267.7236,268.9717,l,1,[],[],[],[],[],[],[],0.5735,1,268.9718,269.4719,,,,,,904,MAS,DIS,150,hijo,la,l,0.5735,,269.4721,269.4723,-0.255208333,-0.33203125,0,0,0,,0,70,70,3,1,,,,
,,,,,,400817dea5b1878180597973,66a626ef09d4e21e1a8894ec,67377f64a0228faaadcf7fe0,2024-11-15_14h10.13.913,Tarea de género gramatical,2024.2.2,Win32,60.24096386,,,,,,,,,,,,,,,,,,,,,,,269.4737,270.6385,a,1,[],[],[],[],[],[],[],0.4827,1,270.639,271.1382,,,,,,932,FEM,AGR,150,caja,la,a,0.4827,,271.1382,271.1383,-0.255208333,-0.33203125,0,0,0,,0,71,71,31,1,,,,
,,,,,,400817dea5b1878180597973,66a626ef09d4e21e1a8894ec,67377f64a0228faaadcf7fe0,2024-11-15_14h10.13.913,Tarea de género gramatical,2024.2.2,Win32,60.24096386,,,,,,,,,,,,,,,,,,,,,,,271.14,272.6215,a,1,[],[],[],[],[],[],[],0.8017,1,272.6217,273.1208,,,,,,1125,FEM,CON,150,pieza,,a,0.8017,,273.1208,273.1209,-0.255208333,-0.33203125,0,0,0,,0,72,72,224,1,,,,
,,,,,,400817dea5b1878180597973,66a626ef09d4e21e1a8894ec,67377f64a0228faaadcf7fe0,2024-11-15_14h10.13.913,Tarea de género gramatical,2024.2.2,Win32,60.24096386,,,,,,,,,,,,,,,,,,,,,,,273.1219,274.1875,a,1,[],[],[],[],[],[],[],0.3873,1,274.1875,274.6879,,,,,,1165,FEM,DIS,150,rueda,el,a,0.3873,,274.688,274.6881,-0.255208333,-0.33203125,0,0,0,,0,73,73,264,1,,,,
,,,,,,400817dea5b1878180597973,66a626ef09d4e21e1a8894ec,67377f64a0228faaadcf7fe0,2024-11-15_14h10.13.913,Tarea de género gramatical,2024.2.2,Win32,60.24096386,,,,,,,,,,,,,,,,,,,,,,,274.6898,275.8214,a,1,[],[],[],[],[],[],[],0.4548,1,275.8215,276.3214,,,,,,1310,FEM,AGR,150,piedad,la,a,0.4548,,276.3227,276.3238,-0.255208333,-0.33203125,0,0,0,,0,74,74,409,1,,,,
,,,,,,400817dea5b1878180597973,66a626ef09d4e21e1a8894ec,67377f64a0228faaadcf7fe0,2024-11-15_14h10.13.913,Tarea de género gramatical,2024.2.2,Win32,60.24096386,,,,,,,,,,,,,,,,,,,,,,,276.325,277.3543,l,1,[],[],[],[],[],[],[],0.3584,1,277.3546,277.8544,,,,,,1008,MAS,CON,150,hilo,,l,0.3584,,277.8544,277.8549,-0.255208333,-0.33203125,0,0,0,,0,75,75,107,1,,,,
,,,,,,400817dea5b1878180597973,66a626ef09d4e21e1a8894ec,67377f64a0228faaadcf7fe0,2024-11-15_14h10.13.913,Tarea de género gramatical,2024.2.2,Win32,60.24096386,,,,,,,,,,,,,,,,,,,,,,,277.8562,279.2543,l,0,[],[],[],[],[],[],[],0.7217,0,279.2556,279.7544,,,,,,968,FEM,AGR,150,pata,la,a,0.7217,,279.7546,279.7549,-0.255208333,-0.33203125,0,0,0,,0,76,76,67,1,,,,
,,,,,,400817dea5b1878180597973,66a626ef09d4e21e1a8894ec,67377f64a0228faaadcf7fe0,2024-11-15_14h10.13.913,Tarea de género gramatical,2024.2.2,Win32,60.24096386,,,,,,,,,,,,,,,,,,,,,,,279.7563,280.8221,l,0,[],[],[],[],[],[],[],0.3955,0,280.8224,281.3209,,,,,,1045,FEM,DIS,150,bota,el,a,0.3955,,281.3209,281.3211,-0.255208333,-0.33203125,0,0,0,,0,77,77,144,1,,,,
,,,,,,400817dea5b1878180597973,66a626ef09d4e21e1a8894ec,67377f64a0228faaadcf7fe0,2024-11-15_14h10.13.913,Tarea de género gramatical,2024.2.2,Win32,60.24096386,,,,,,,,,,,,,,,,,,,,,,,281.3219,282.472,,0,[-0.2552083333333333],[-0.33203125],[1],[0],[0],[0.48450000000002547],"[""button_left""]",0.4845,0,282.4723,282.97,,,,,,911,MAS,AGR,150,país,el,l,,,282.9711,282.9718,-0.255208333,-0.33203125,0,0,0,,0,78,78,10,1,,,,
,,,,,,400817dea5b1878180597973,66a626ef09d4e21e1a8894ec,67377f64a0228faaadcf7fe0,2024-11-15_14h10.13.913,Tarea de género gramatical,2024.2.2,Win32,60.24096386,,,,,,,,,,,,,,,,,,,,,,,282.9728,284.7205,a,1,[],[],[],[],[],[],[],1.0732,1,284.7221,285.2204,,,,,,1207,FEM,DIS,150,suerte,el,a,1.0732,,285.2208,285.221,-0.255208333,-0.33203125,0,0,0,,0,79,79,306,1,,,,
,,,,,,400817dea5b1878180597973,66a626ef09d4e21e1a8894ec,67377f64a0228faaadcf7fe0,2024-11-15_14h10.13.913,Tarea de género gramatical,2024.2.2,Win32,60.24096386,,,,,,,,,,,,,,,,,,,,,,,285.2223,286.954,l,1,[],[],[],[],[],[],[],1.0513,1,286.9542,287.4536,,,,,,1252,MAS,DIS,150,estilo,la,l,1.0513,,287.4539,287.4541,-0.255208333,-0.33203125,0,0,0,,0,80,80,351,1,,,,
,,,,,,400817dea5b1878180597973,66a626ef09d4e21e1a8894ec,67377f64a0228faaadcf7fe0,2024-11-15_14h10.13.913,Tarea de género gramatical,2024.2.2,Win32,60.24096386,,,,,,,,,,,,,,,,,,,,,,,287.4554,288.8556,a,1,[],[],[],[],[],[],[],0.7302,1,288.8557,289.3538,,,,,,931,FEM,DIS,150,edad,el,a,0.7302,,289.354,289.3543,-0.255208333,-0.33203125,0,0,0,,0,81,81,30,1,,,,
,,,,,,400817dea5b1878180597973,66a626ef09d4e21e1a8894ec,67377f64a0228faaadcf7fe0,2024-11-15_14h10.13.913,Tarea de género gramatical,2024.2.2,Win32,60.24096386,,,,,,,,,,,,,,,,,,,,,,,289.3556,290.5707,l,1,[],[],[],[],[],[],[],0.5316,1,290.5708,291.0706,,,,,,1350,MAS,CON,150,conejo,,l,0.5316,,291.0707,291.0708,-0.255208333,-0.33203125,0,0,0,,0,82,82,449,1,,,,
,,,,,,400817dea5b1878180597973,66a626ef09d4e21e1a8894ec,67377f64a0228faaadcf7fe0,2024-11-15_14h10.13.913,Tarea de género gramatical,2024.2.2,Win32,60.24096386,,,,,,,,,,,,,,,,,,,,,,,291.0722,292.1707,l,1,[],[],[],[],[],[],[],0.4251,1,292.1707,292.6711,,,,,,1295,MAS,AGR,150,correo,el,l,0.4251,,292.6723,292.6738,-0.255208333,-0.33203125,0,0,0,,0,83,83,394,1,,,,
,,,,,,400817dea5b1878180597973,66a626ef09d4e21e1a8894ec,67377f64a0228faaadcf7fe0,2024-11-15_14h10.13.913,Tarea de género gramatical,2024.2.2,Win32,60.24096386,,,,,,,,,,,,,,,,,,,,,,,292.6752,294.1546,l,0,[],[],[],[],[],[],[],0.8131,0,294.1559,294.6535,,,,,,1123,FEM,DIS,150,plata,el,a,0.8131,,294.6535,294.6537,-0.255208333,-0.33203125,0,0,0,,0,84,84,222,1,,,,
,,,,,,400817dea5b1878180597973,66a626ef09d4e21e1a8894ec,67377f64a0228faaadcf7fe0,2024-11-15_14h10.13.913,Tarea de género gramatical,2024.2.2,Win32,60.24096386,,,,,,,,,,,,,,,,,,,,,,,294.6555,295.8362,l,1,[],[],[],[],[],[],[],0.4997,1,295.8376,296.3373,,,,,,976,MAS,DIS,150,lujo,la,l,0.4997,,296.3374,296.3375,-0.255208333,-0.33203125,0,0,0,,0,85,85,75,1,,,,
,,,,,,400817dea5b1878180597973,66a626ef09d4e21e1a8894ec,67377f64a0228faaadcf7fe0,2024-11-15_14h10.13.913,Tarea de género gramatical,2024.2.2,Win32,60.24096386,,,,,,,,,,,,,,,,,,,,,,,296.339,297.7203,a,1,[],[],[],[],[],[],[],0.7052,1,297.7204,298.2194,,,,,,1238,FEM,AGR,150,abuela,la,a,0.7052,,298.2194,298.2195,-0.255208333,-0.33203125,0,0,0,,0,86,86,337,1,,,,
,,,,,,400817dea5b1878180597973,66a626ef09d4e21e1a8894ec,67377f64a0228faaadcf7fe0,2024-11-15_14h10.13.913,Tarea de género gramatical,2024.2.2,Win32,60.24096386,,,,,,,,,,,,,,,,,,,,,,,298.2202,299.4366,a,1,[],[],[],[],[],[],[],0.5466,1,299.4367,299.9367,,,,,,985,FEM,DIS,150,gira,el,a,0.5466,,299.9378,299.9389,-0.255208333,-0.33203125,0,0,0,,0,87,87,84,1,,,,
,,,,,,400817dea5b1878180597973,66a626ef09d4e21e1a8894ec,67377f64a0228faaadcf7fe0,2024-11-15_14h10.13.913,Tarea de género gramatical,2024.2.2,Win32,60.24096386,,,,,,,,,,,,,,,,,,,,,,,299.9401,301.1704,a,1,[],[],[],[],[],[],[],0.5691,1,301.1706,301.6698,,,,,,1010,FEM,AGR,150,rosa,la,a,0.5691,,301.6699,301.67,-0.255208333,-0.33203125,0,0,0,,0,88,88,109,1,,,,
,,,,,,400817dea5b1878180597973,66a626ef09d4e21e1a8894ec,67377f64a0228faaadcf7fe0,2024-11-15_14h10.13.913,Tarea de género gramatical,2024.2.2,Win32,60.24096386,,,,,,,,,,,,,,,,,,,,,,,301.6714,303.2357,l,1,[],[],[],[],[],[],[],0.8872,1,303.2357,303.7367,,,,,,935,MAS,AGR,150,taxi,el,l,0.8872,,303.7367,303.7369,-0.255208333,-0.33203125,0,0,0,,0,89,89,34,1,,,,
,,,,,,400817dea5b1878180597973,66a626ef09d4e21e1a8894ec,67377f64a0228faaadcf7fe0,2024-11-15_14h10.13.913,Tarea de género gramatical,2024.2.2,Win32,60.24096386,,,,,,,,,,,,,,,,,,,,,,,303.7389,304.8872,a,1,[],[],[],[],[],[],[],0.4794,1,304.8873,305.3864,,,,,,1064,FEM,AGR,150,novia,la,a,0.4794,,305.3864,305.3865,-0.255208333,-0.33203125,0,0,0,,0,90,90,163,1,,,,
,,,,,,400817dea5b1878180597973,66a626ef09d4e21e1a8894ec,67377f64a0228faaadcf7fe0,2024-11-15_14h10.13.913,Tarea de género gramatical,2024.2.2,Win32,60.24096386,,,,,,,,,,,,,,,,,,,,,,,305.3878,306.5522,l,1,[],[],[],[],[],[],[],0.4918,1,306.5522,307.0528,,,,,,1205,MAS,AGR,150,hombre,el,l,0.4918,,307.0529,307.0531,-0.255208333,-0.33203125,0,0,0,,0,91,91,304,1,,,,
,,,,,,400817dea5b1878180597973,66a626ef09d4e21e1a8894ec,67377f64a0228faaadcf7fe0,2024-11-15_14h10.13.913,Tarea de género gramatical,2024.2.2,Win32,60.24096386,,,,,,,,,,,,,,,,,,,,,,,307.0547,308.3196,a,1,[],[],[],[],[],[],[],0.5855,1,308.3197,308.8194,,,,,,901,FEM,DIS,150,casa,el,a,0.5855,,308.8205,308.8218,-0.255208333,-0.33203125,0,0,0,,0,92,92,0,1,,,,
,,,,,,400817dea5b1878180597973,66a626ef09d4e21e1a8894ec,67377f64a0228faaadcf7fe0,2024-11-15_14h10.13.913,Tarea de género gramatical,2024.2.2,Win32,60.24096386,,,,,,,,,,,,,,,,,,,,,,,308.8231,309.8694,a,1,[],[],[],[],[],[],[],0.3727,1,309.8695,310.3693,,,,,,1058,FEM,AGR,150,chica,la,a,0.3727,,310.3694,310.3695,-0.255208333,-0.33203125,0,0,0,,0,93,93,157,1,,,,
,,,,,,400817dea5b1878180597973,66a626ef09d4e21e1a8894ec,67377f64a0228faaadcf7fe0,2024-11-15_14h10.13.913,Tarea de género gramatical,2024.2.2,Win32,60.24096386,,,,,,,,,,,,,,,,,,,,,,,310.3708,311.5517,l,0,[],[],[],[],[],[],[],0.5041,0,311.5522,312.0527,,,,,,1185,FEM,CON,150,mafia,,a,0.5041,,312.0527,312.0529,-0.255208333,-0.33203125,0,0,0,,0,94,94,284,1,,,,
,,,,,,400817dea5b1878180597973,66a626ef09d4e21e1a8894ec,67377f64a0228faaadcf7fe0,2024-11-15_14h10.13.913,Tarea de género gramatical,2024.2.2,Win32,60.24096386,,,,,,,,,,,,,,,,,,,,,,,312.0546,313.3197,l,1,[],[],[],[],[],[],[],0.5972,1,313.3205,313.8192,,,,,,1211,MAS,AGR,150,camino,el,l,0.5972,,313.8193,313.8194,-0.255208333,-0.33203125,0,0,0,,0,95,95,310,1,,,,
,,,,,,400817dea5b1878180597973,66a626ef09d4e21e1a8894ec,67377f64a0228faaadcf7fe0,2024-11-15_14h10.13.913,Tarea de género gramatical,2024.2.2,Win32,60.24096386,,,,,,,,,,,,,,,,,,,,,,,313.821,314.8688,l,0,[],[],[],[],[],[],[],0.3675,0,314.8697,315.369,,,,,,1081,FEM,DIS,150,tarde,el,a,0.3675,,315.3702,315.3714,-0.255208333,-0.33203125,0,0,0,,0,96,96,180,1,,,,
,,,,,,400817dea5b1878180597973,66a626ef09d4e21e1a8894ec,67377f64a0228faaadcf7fe0,2024-11-15_14h10.13.913,Tarea de género gramatical,2024.2.2,Win32,60.24096386,,,,,,,,,,,,,,,,,,,,,,,315.3725,316.4854,l,1,[],[],[],[],[],[],[],0.4345,1,316.4863,316.9861,,,,,,1061,MAS,AGR,150,chico,el,l,0.4345,,316.9861,316.9863,-0.255208333,-0.33203125,0,0,0,,0,97,97,160,1,,,,
,,,,,,400817dea5b1878180597973,66a626ef09d4e21e1a8894ec,67377f64a0228faaadcf7fe0,2024-11-15_14h10.13.913,Tarea de género gramatical,2024.2.2,Win32,60.24096386,,,,,,,,,,,,,,,,,,,,,,,316.9879,318.2186,l,1,[],[],[],[],[],[],[],0.5563,1,318.2189,318.7188,,,,,,1163,MAS,AGR,150,carro,el,l,0.5563,,318.7188,318.7189,-0.255208333,-0.33203125,0,0,0,,0,98,98,262,1,,,,
,,,,,,400817dea5b1878180597973,66a626ef09d4e21e1a8894ec,67377f64a0228faaadcf7fe0,2024-11-15_14h10.13.913,Tarea de género gramatical,2024.2.2,Win32,60.24096386,,,,,,,,,,,,,,,,,,,,,,,318.7205,319.8688,l,1,[],[],[],[],[],[],[],0.4665,1,319.8688,320.3687,,,,,,1181,MAS,AGR,150,actor,el,l,0.4665,,320.3688,320.3688,-0.255208333,-0.33203125,0,0,0,,0,99,99,280,1,,,,
,,,,,,400817dea5b1878180597973,66a626ef09d4e21e1a8894ec,67377f64a0228faaadcf7fe0,2024-11-15_14h10.13.913,Tarea de género gramatical,2024.2.2,Win32,60.24096386,,,,,,,,,,,,,,,,,,,,,,,320.3704,321.404,l,1,[],[],[],[],[],[],[],0.3622,1,321.404,321.9021,,,,,,918,MAS,CON,150,tren,,l,0.3622,,321.9022,321.9023,-0.255208333,-0.33203125,0,0,0,,0,100,100,17,1,,,,
,,,,,,400817dea5b1878180597973,66a626ef09d4e21e1a8894ec,67377f64a0228faaadcf7fe0,2024-11-15_14h10.13.913,Tarea de género gramatical,2024.2.2,Win32,60.24096386,,,,,,,,,,,,,,,,,,,,,,,321.904,323.0685,a,1,[],[],[],[],[],[],[],0.4835,1,323.0687,323.5686,,,,,,1339,FEM,DIS,150,toalla,el,a,0.4835,,323.57,323.5711,-0.255208333,-0.33203125,0,0,0,,0,101,101,438,1,,,,
,,,,,,400817dea5b1878180597973,66a626ef09d4e21e1a8894ec,67377f64a0228faaadcf7fe0,2024-11-15_14h10.13.913,Tarea de género gramatical,2024.2.2,Win32,60.24096386,,,,,,,,,,,,,,,,,,,,,,,323.5722,324.635,a,1,[],[],[],[],[],[],[],0.3865,1,324.6352,325.136,,,,,,1197,FEM,CON,150,manta,,a,0.3865,,325.1361,325.1366,-0.255208333,-0.33203125,0,0,0,,0,102,102,296,1,,,,
,,,,,,400817dea5b1878180597973,66a626ef09d4e21e1a8894ec,67377f64a0228faaadcf7fe0,2024-11-15_14h10.13.913,Tarea de género gramatical,2024.2.2,Win32,60.24096386,,,,,,,,,,,,,,,,,,,,,,,325.1379,326.3349,l,1,[],[],[],[],[],[],[],0.5182,1,326.335,326.8349,,,,,,1229,MAS,AGR,150,futuro,el,l,0.5182,,326.835,326.8351,-0.255208333,-0.33203125,0,0,0,,0,103,103,328,1,,,,
,,,,,,400817dea5b1878180597973,66a626ef09d4e21e1a8894ec,67377f64a0228faaadcf7fe0,2024-11-15_14h10.13.913,Tarea de género gramatical,2024.2.2,Win32,60.24096386,,,,,,,,,,,,,,,,,,,,,,,326.8368,327.9515,l,1,[],[],[],[],[],[],[],0.4342,1,327.9516,328.4517,,,,,,1060,MAS,DIS,150,señor,la,l,0.4342,,328.4518,328.4519,-0.255208333,-0.33203125,0,0,0,,0,104,104,159,1,,,,
,,,,,,400817dea5b1878180597973,66a626ef09d4e21e1a8894ec,67377f64a0228faaadcf7fe0,2024-11-15_14h10.13.913,Tarea de género gramatical,2024.2.2,Win32,60.24096386,,,,,,,,,,,,,,,,,,,,,,,328.4532,329.5016,l,1,[],[],[],[],[],[],[],0.367,1,329.5017,330.0017,,,,,,1312,MAS,DIS,150,espejo,la,l,0.367,,330.0032,330.0043,-0.255208333,-0.33203125,0,0,0,,0,105,105,411,1,,,,
,,,,,,400817dea5b1878180597973,66a626ef09d4e21e1a8894ec,67377f64a0228faaadcf7fe0,2024-11-15_14h10.13.913,Tarea de género gramatical,2024.2.2,Win32,60.24096386,,,,,,,,,,,,,,,,,,,,,,,330.0056,331.1679,a,1,[],[],[],[],[],[],[],0.4876,1,331.1681,331.6676,,,,,,1281,FEM,CON,150,bebida,,a,0.4876,,331.6677,331.6678,-0.255208333,-0.329427083,0,0,0,,0,106,106,380,1,,,,
,,,,,,400817dea5b1878180597973,66a626ef09d4e21e1a8894ec,67377f64a0228faaadcf7fe0,2024-11-15_14h10.13.913,Tarea de género gramatical,2024.2.2,Win32,60.24096386,,,,,,,,,,,,,,,,,,,,,,,331.6691,332.7012,a,1,[],[],[],[],[],[],[],0.3562,1,332.7013,333.2013,,,,,,903,FEM,CON,150,cosa,,a,0.3562,,333.2014,333.2015,-0.255208333,-0.329427083,0,0,0,,0,107,107,2,1,,,,
,,,,,,400817dea5b1878180597973,66a626ef09d4e21e1a8894ec,67377f64a0228faaadcf7fe0,2024-11-15_14h10.13.913,Tarea de género gramatical,2024.2.2,Win32,60.24096386,,,,,,,,,,,,,,,,,,,,,,,333.2028,334.251,a,1,[],[],[],[],[],[],[],0.3765,1,334.251,334.751,,,,,,944,FEM,AGR,150,zona,la,a,0.3765,,334.7511,334.7513,-0.255208333,-0.329427083,0,0,0,,0,108,108,43,1,,,,
,,,,,,400817dea5b1878180597973,66a626ef09d4e21e1a8894ec,67377f64a0228faaadcf7fe0,2024-11-15_14h10.13.913,Tarea de género gramatical,2024.2.2,Win32,60.24096386,,,,,,,,,,,,,,,,,,,,,,,334.7526,335.8168,l,1,[],[],[],[],[],[],[],0.3837,1,335.8169,336.3173,,,,,,1283,MAS,AGR,150,parque,el,l,0.3837,,336.3173,336.3175,-0.2578125,-0.326822917,0,0,0,,0,109,109,382,1,,,,
,,,,,,400817dea5b1878180597973,66a626ef09d4e21e1a8894ec,67377f64a0228faaadcf7fe0,2024-11-15_14h10.13.913,Tarea de género gramatical,2024.2.2,Win32,60.24096386,,,,,,,,,,,,,,,,,,,,,,,336.3189,337.3174,l,1,[],[],[],[],[],[],[],0.3191,1,337.3175,337.8175,,,,,,1236,MAS,CON,150,crimen,,l,0.3191,,337.8186,337.8197,-0.2578125,-0.326822917,0,0,0,,0,110,110,335,1,,,,
,,,,,,400817dea5b1878180597973,66a626ef09d4e21e1a8894ec,67377f64a0228faaadcf7fe0,2024-11-15_14h10.13.913,Tarea de género gramatical,2024.2.2,Win32,60.24096386,,,,,,,,,,,,,,,,,,,,,,,337.8208,338.8006,l,1,[],[],[],[],[],[],[],0.3041,1,338.8008,339.3006,,,,,,1230,MAS,CON,150,estado,,l,0.3041,,339.3006,339.3007,-0.2578125,-0.326822917,0,0,0,,0,111,111,329,1,,,,
,,,,,,400817dea5b1878180597973,66a626ef09d4e21e1a8894ec,67377f64a0228faaadcf7fe0,2024-11-15_14h10.13.913,Tarea de género gramatical,2024.2.2,Win32,60.24096386,,,,,,,,,,,,,,,,,,,,,,,339.3024,340.4338,a,1,[],[],[],[],[],[],[],0.4584,1,340.4338,340.934,,,,,,1009,FEM,DIS,150,gota,el,a,0.4584,,340.934,340.9342,-0.2578125,-0.326822917,0,0,0,,0,112,112,108,1,,,,
,,,,,,400817dea5b1878180597973,66a626ef09d4e21e1a8894ec,67377f64a0228faaadcf7fe0,2024-11-15_14h10.13.913,Tarea de género gramatical,2024.2.2,Win32,60.24096386,,,,,,,,,,,,,,,,,,,,,,,340.9358,342.0507,l,1,[],[],[],[],[],[],[],0.4458,1,342.051,342.5503,,,,,,1145,MAS,AGR,150,turno,el,l,0.4458,,342.5504,342.5505,-0.2578125,-0.326822917,0,0,0,,0,113,113,244,1,,,,
,,,,,,400817dea5b1878180597973,66a626ef09d4e21e1a8894ec,67377f64a0228faaadcf7fe0,2024-11-15_14h10.13.913,Tarea de género gramatical,2024.2.2,Win32,60.24096386,,,,,,,,,,,,,,,,,,,,,,,342.5522,343.5839,l,1,[],[],[],[],[],[],[],0.3663,1,343.5841,344.0835,,,,,,1216,MAS,DIS,150,cuerpo,la,l,0.3663,,344.0847,344.0859,-0.2578125,-0.326822917,0,0,0,,0,114,114,315,1,,,,
,,,,,,400817dea5b1878180597973,66a626ef09d4e21e1a8894ec,67377f64a0228faaadcf7fe0,2024-11-15_14h10.13.913,Tarea de género gramatical,2024.2.2,Win32,60.24096386,,,,,,,,,,,,,,,,,,,,,,,344.0876,345.1874,l,1,[],[],[],[],[],[],[],0.4174,1,345.1875,345.6865,,,,,,1134,MAS,CON,150,héroe,,l,0.4174,,345.6867,345.6869,-0.2578125,-0.326822917,0,0,0,,0,115,115,233,1,,,,
,,,,,,400817dea5b1878180597973,66a626ef09d4e21e1a8894ec,67377f64a0228faaadcf7fe0,2024-11-15_14h10.13.913,Tarea de género gramatical,2024.2.2,Win32,60.24096386,,,,,,,,,,,,,,,,,,,,,,,345.6886,346.6041,l,1,[],[],[],[],[],[],[],0.2351,1,346.6043,347.1036,,,,,,1109,MAS,AGR,150,banco,el,l,0.2351,,347.1037,347.1039,-0.2578125,-0.326822917,0,0,0,,0,116,116,208,1,,,,
,,,,,,400817dea5b1878180597973,66a626ef09d4e21e1a8894ec,67377f64a0228faaadcf7fe0,2024-11-15_14h10.13.913,Tarea de género gramatical,2024.2.2,Win32,60.24096386,,,,,,,,,,,,,,,,,,,,,,,347.1054,348.2361,a,1,[],[],[],[],[],[],[],0.4619,1,348.2365,348.7362,,,,,,1333,FEM,DIS,150,huella,el,a,0.4619,,348.7363,348.7365,-0.2578125,-0.326822917,0,0,0,,0,117,117,432,1,,,,
,,,,,,400817dea5b1878180597973,66a626ef09d4e21e1a8894ec,67377f64a0228faaadcf7fe0,2024-11-15_14h10.13.913,Tarea de género gramatical,2024.2.2,Win32,60.24096386,,,,,,,,,,,,,,,,,,,,,,,348.7384,350.6535,l,1,[],[],[],[],[],[],[],1.2339,1,350.6535,351.1533,,,,,,1187,MAS,AGR,150,plato,el,l,1.2339,,351.1534,351.1536,-0.2578125,-0.326822917,0,0,0,,0,118,118,286,1,,,,
,,,,,,400817dea5b1878180597973,66a626ef09d4e21e1a8894ec,67377f64a0228faaadcf7fe0,2024-11-15_14h10.13.913,Tarea de género gramatical,2024.2.2,Win32,60.24096386,,,,,,,,,,,,,,,,,,,,,,,351.1551,352.3365,a,1,[],[],[],[],[],[],[],0.5008,1,352.3367,352.8362,,,,,,1069,FEM,DIS,150,vista,el,a,0.5008,,352.8378,352.839,-0.2578125,-0.326822917,0,0,0,,0,119,119,168,1,,,,
,,,,,,400817dea5b1878180597973,66a626ef09d4e21e1a8894ec,67377f64a0228faaadcf7fe0,2024-11-15_14h10.13.913,Tarea de género gramatical,2024.2.2,Win32,60.24096386,,,,,,,,,,,,,,,,,,,,,,,352.8402,353.9861,l,1,[],[],[],[],[],[],[],0.4672,1,353.9861,354.4881,,,,,,1037,MAS,AGR,150,coco,el,l,0.4672,,354.4882,354.4883,-0.2578125,-0.326822917,0,0,0,,0,120,120,136,1,,,,
,,,,,,400817dea5b1878180597973,66a626ef09d4e21e1a8894ec,67377f64a0228faaadcf7fe0,2024-11-15_14h10.13.913,Tarea de género gramatical,2024.2.2,Win32,60.24096386,,,,,,,,,,,,,,,,,,,,,,,354.4901,355.6681,a,1,[],[],[],[],[],[],[],0.4998,1,355.6682,356.1692,,,,,,1118,FEM,AGR,150,nieve,la,a,0.4998,,356.1693,356.1694,-0.2578125,-0.326822917,0,0,0,,0,121,121,217,1,,,,
,,,,,,400817dea5b1878180597973,66a626ef09d4e21e1a8894ec,67377f64a0228faaadcf7fe0,2024-11-15_14h10.13.913,Tarea de género gramatical,2024.2.2,Win32,60.24096386,,,,,,,,,,,,,,,,,,,,,,,356.1713,357.9027,a,1,[],[],[],[],[],[],[],1.0527,1,357.903,358.4024,,,,,,997,FEM,DIS,150,capa,el,a,1.0527,,358.4025,358.4027,-0.2578125,-0.326822917,0,0,0,,0,122,122,96,1,,,,
,,,,,,400817dea5b1878180597973,66a626ef09d4e21e1a8894ec,67377f64a0228faaadcf7fe0,2024-11-15_14h10.13.913,Tarea de género gramatical,2024.2.2,Win32,60.24096386,,,,,,,,,,,,,,,,,,,,,,,358.4044,359.4667,l,1,[],[],[],[],[],[],[],0.3835,1,359.4667,359.9693,,,,,,1078,MAS,DIS,150,punto,la,l,0.3835,,359.9707,359.9717,-0.2578125,-0.326822917,0,0,0,,0,123,123,177,1,,,,
,,,,,,400817dea5b1878180597973,66a626ef09d4e21e1a8894ec,67377f64a0228faaadcf7fe0,2024-11-15_14h10.13.913,Tarea de género gramatical,2024.2.2,Win32,60.24096386,,,,,,,,,,,,,,,,,,,,,,,359.9729,361.0355,l,1,[],[],[],[],[],[],[],0.3836,1,361.0359,361.5355,,,,,,1344,MAS,CON,150,límite,,l,0.3836,,361.5356,361.5358,-0.2578125,-0.326822917,0,0,0,,0,124,124,443,1,,,,
,,,,,,400817dea5b1878180597973,66a626ef09d4e21e1a8894ec,67377f64a0228faaadcf7fe0,2024-11-15_14h10.13.913,Tarea de género gramatical,2024.2.2,Win32,60.24096386,,,,,,,,,,,,,,,,,,,,,,,361.5376,362.6527,l,1,[],[],[],[],[],[],[],0.4339,1,362.6528,363.1522,,,,,,1169,MAS,AGR,150,primo,el,l,0.4339,,363.1525,363.1527,-0.2578125,-0.326822917,0,0,0,,0,125,125,268,1,,,,
,,,,,,400817dea5b1878180597973,66a626ef09d4e21e1a8894ec,67377f64a0228faaadcf7fe0,2024-11-15_14h10.13.913,Tarea de género gramatical,2024.2.2,Win32,60.24096386,,,,,,,,,,,,,,,,,,,,,,,363.1542,364.8644,l,1,[],[],[],[],[],[],[],1.0249,1,364.8645,365.3658,,,,,,1264,MAS,DIS,150,viento,la,l,1.0249,,365.3659,365.366,-0.2578125,-0.326822917,0,0,0,,0,126,126,363,1,,,,
,,,,,,400817dea5b1878180597973,66a626ef09d4e21e1a8894ec,67377f64a0228faaadcf7fe0,2024-11-15_14h10.13.913,Tarea de género gramatical,2024.2.2,Win32,60.24096386,,,,,,,,,,,,,,,,,,,,,,,365.3672,366.4855,a,1,[],[],[],[],[],[],[],0.4507,1,366.4857,366.9825,,,,,,1004,FEM,AGR,150,vela,la,a,0.4507,,366.9825,366.9827,-0.2578125,-0.326822917,0,0,0,,0,127,127,103,1,,,,
,,,,,,400817dea5b1878180597973,66a626ef09d4e21e1a8894ec,67377f64a0228faaadcf7fe0,2024-11-15_14h10.13.913,Tarea de género gramatical,2024.2.2,Win32,60.24096386,,,,,,,,,,,,,,,,,,,,,,,366.9837,368.148,a,1,[],[],[],[],[],[],[],0.4922,1,368.1481,368.6491,,,,,,1298,FEM,AGR,150,hierba,la,a,0.4922,,368.65,368.6507,-0.2578125,-0.326822917,0,0,0,,0,128,128,397,1,,,,
,,,,,,400817dea5b1878180597973,66a626ef09d4e21e1a8894ec,67377f64a0228faaadcf7fe0,2024-11-15_14h10.13.913,Tarea de género gramatical,2024.2.2,Win32,60.24096386,,,,,,,,,,,,,,,,,,,,,,,368.6515,369.818,l,1,[],[],[],[],[],[],[],0.4859,1,369.8181,370.3176,,,,,,1158,MAS,CON,150,polvo,,l,0.4859,,370.3176,370.3178,-0.2578125,-0.326822917,0,0,0,,0,129,129,257,1,,,,
,,,,,,400817dea5b1878180597973,66a626ef09d4e21e1a8894ec,67377f64a0228faaadcf7fe0,2024-11-15_14h10.13.913,Tarea de género gramatical,2024.2.2,Win32,60.24096386,,,,,,,,,,,,,,,,,,,,,,,370.3196,371.386,l,1,[],[],[],[],[],[],[],0.401,1,371.3862,371.8843,,,,,,1319,MAS,AGR,150,cuento,el,l,0.401,,371.8843,371.8844,-0.2578125,-0.326822917,0,0,0,,0,130,130,418,1,,,,
,,,,,,400817dea5b1878180597973,66a626ef09d4e21e1a8894ec,67377f64a0228faaadcf7fe0,2024-11-15_14h10.13.913,Tarea de género gramatical,2024.2.2,Win32,60.24096386,,,,,,,,,,,,,,,,,,,,,,,371.8854,373.1344,l,1,[],[],[],[],[],[],[],0.5669,1,373.1346,373.6365,,,,,,1168,MAS,DIS,150,truco,la,l,0.5669,,373.6366,373.6367,-0.2578125,-0.326822917,0,0,0,,0,131,131,267,1,,,,
,,,,,,400817dea5b1878180597973,66a626ef09d4e21e1a8894ec,67377f64a0228faaadcf7fe0,2024-11-15_14h10.13.913,Tarea de género gramatical,2024.2.2,Win32,60.24096386,,,,,,,,,,,,,,,,,,,,,,,373.6383,374.7677,a,1,[],[],[],[],[],[],[],0.4501,1,374.7677,375.2674,,,,,,1094,FEM,AGR,150,banda,la,a,0.4501,,375.2684,375.269,-0.2578125,-0.326822917,0,0,0,,0,132,132,193,1,,,,
,,,,,,400817dea5b1878180597973,66a626ef09d4e21e1a8894ec,67377f64a0228faaadcf7fe0,2024-11-15_14h10.13.913,Tarea de género gramatical,2024.2.2,Win32,60.24096386,,,,,,,,,,,,,,,,,,,,,,,375.2696,376.3177,l,1,[],[],[],[],[],[],[],0.3673,1,376.3177,376.8166,,,,,,996,MAS,CON,150,pato,,l,0.3673,,376.8167,376.8168,-0.2578125,-0.326822917,0,0,0,,0,133,133,95,1,,,,
,,,,,,400817dea5b1878180597973,66a626ef09d4e21e1a8894ec,67377f64a0228faaadcf7fe0,2024-11-15_14h10.13.913,Tarea de género gramatical,2024.2.2,Win32,60.24096386,,,,,,,,,,,,,,,,,,,,,,,376.8177,377.9182,a,1,[],[],[],[],[],[],[],0.4179,1,377.9183,378.4171,,,,,,908,FEM,AGR,150,idea,la,a,0.4179,,378.4172,378.4173,-0.2578125,-0.326822917,0,0,0,,0,134,134,7,1,,,,
,,,,,,400817dea5b1878180597973,66a626ef09d4e21e1a8894ec,67377f64a0228faaadcf7fe0,2024-11-15_14h10.13.913,Tarea de género gramatical,2024.2.2,Win32,60.24096386,,,,,,,,,,,,,,,,,,,,,,,378.4184,379.8173,a,1,[],[],[],[],[],[],[],0.7169,1,379.8174,380.3135,,,,,,1148,FEM,AGR,150,letra,la,a,0.7169,,380.3137,380.3138,-0.2578125,-0.326822917,0,0,0,,0,135,135,247,1,,,,
,,,,,,400817dea5b1878180597973,66a626ef09d4e21e1a8894ec,67377f64a0228faaadcf7fe0,2024-11-15_14h10.13.913,Tarea de género gramatical,2024.2.2,Win32,60.24096386,,,,,,,,,,,,,,,,,,,,,,,380.3154,381.4343,l,1,[],[],[],[],[],[],[],0.4507,1,381.4344,381.9343,,,,,,1072,MAS,DIS,150,poder,la,l,0.4507,,381.9344,381.9346,-0.2578125,-0.326822917,0,0,0,,0,136,136,171,1,,,,
,,,,,,400817dea5b1878180597973,66a626ef09d4e21e1a8894ec,67377f64a0228faaadcf7fe0,2024-11-15_14h10.13.913,Tarea de género gramatical,2024.2.2,Win32,60.24096386,,,,,,,,,,,,,,,,,,,,,,,381.9361,383.1673,a,1,[],[],[],[],[],[],[],0.5502,1,383.1674,383.6667,,,,,,993,FEM,CON,150,lata,,a,0.5502,,383.6678,383.6684,-0.2578125,-0.326822917,0,0,0,,0,137,137,92,1,,,,
,,,,,,400817dea5b1878180597973,66a626ef09d4e21e1a8894ec,67377f64a0228faaadcf7fe0,2024-11-15_14h10.13.913,Tarea de género gramatical,2024.2.2,Win32,60.24096386,,,,,,,,,,,,,,,,,,,,,,,383.6691,385.334,l,0,[],[],[],[],[],[],[],0.9838,0,385.3345,385.8334,,,,,,1279,FEM,DIS,150,granja,el,a,0.9838,,385.8334,385.8335,-0.2578125,-0.326822917,0,0,0,,0,138,138,378,1,,,,
,,,,,,400817dea5b1878180597973,66a626ef09d4e21e1a8894ec,67377f64a0228faaadcf7fe0,2024-11-15_14h10.13.913,Tarea de género gramatical,2024.2.2,Win32,60.24096386,,,,,,,,,,,,,,,,,,,,,,,385.8345,387.0843,a,1,[],[],[],[],[],[],[],0.5673,1,387.0851,387.5827,,,,,,1323,FEM,CON,150,poesía,,a,0.5673,,387.5828,387.583,-0.2578125,-0.326822917,0,0,0,,0,139,139,422,1,,,,
,,,,,,400817dea5b1878180597973,66a626ef09d4e21e1a8894ec,67377f64a0228faaadcf7fe0,2024-11-15_14h10.13.913,Tarea de género gramatical,2024.2.2,Win32,60.24096386,,,,,,,,,,,,,,,,,,,,,,,387.5848,388.7961,a,1,[],[],[],[],[],[],[],0.5311,1,388.7962,389.299,,,,,,1023,FEM,CON,150,tela,,a,0.5311,,389.2991,389.2991,-0.2578125,-0.326822917,0,0,0,,0,140,140,122,1,,,,
,,,,,,400817dea5b1878180597973,66a626ef09d4e21e1a8894ec,67377f64a0228faaadcf7fe0,2024-11-15_14h10.13.913,Tarea de género gramatical,2024.2.2,Win32,60.24096386,,,,,,,,,,,,,,,,,,,,,,,389.3003,390.5835,a,1,[],[],[],[],[],[],[],0.6003,1,390.5837,391.083,,,,,,1033,FEM,DIS,150,joya,el,a,0.6003,,391.084,391.0849,-0.2578125,-0.326822917,0,0,0,,0,141,141,132,1,,,,
,,,,,,400817dea5b1878180597973,66a626ef09d4e21e1a8894ec,67377f64a0228faaadcf7fe0,2024-11-15_14h10.13.913,Tarea de género gramatical,2024.2.2,Win32,60.24096386,,,,,,,,,,,,,,,,,,,,,,,391.0857,392.2503,a,1,[],[],[],[],[],[],[],0.4839,1,392.2505,392.7478,,,,,,914,FEM,AGR,150,cara,la,a,0.4839,,392.7479,392.7481,-0.2578125,-0.326822917,0,0,0,,0,142,142,13,1,,,,
,,,,,,400817dea5b1878180597973,66a626ef09d4e21e1a8894ec,67377f64a0228faaadcf7fe0,2024-11-15_14h10.13.913,Tarea de género gramatical,2024.2.2,Win32,60.24096386,,,,,,,,,,,,,,,,,,,,,,,392.7497,393.833,a,1,[],[],[],[],[],[],[],0.4168,1,393.8331,394.3331,,,,,,1346,FEM,AGR,150,bañera,la,a,0.4168,,394.3333,394.3334,-0.2578125,-0.326822917,0,0,0,,0,143,143,445,1,,,,
,,,,,,400817dea5b1878180597973,66a626ef09d4e21e1a8894ec,67377f64a0228faaadcf7fe0,2024-11-15_14h10.13.913,Tarea de género gramatical,2024.2.2,Win32,60.24096386,,,,,,,,,,,,,,,,,,,,,,,394.3352,395.6132,l,1,[],[],[],[],[],[],[],0.6027,1,395.6133,396.1124,,,,,,1079,MAS,AGR,150,viaje,el,l,0.6027,,396.1125,396.1126,-0.2578125,-0.326822917,0,0,0,,0,144,144,178,1,,,,
,,,,,,400817dea5b1878180597973,66a626ef09d4e21e1a8894ec,67377f64a0228faaadcf7fe0,2024-11-15_14h10.13.913,Tarea de género gramatical,2024.2.2,Win32,60.24096386,,,,,,,,,,,,,,,,,,,,,,,396.1133,397.4798,a,1,[],[],[],[],[],[],[],0.7005,1,397.4799,397.9791,,,,,,998,FEM,AGR,150,fuga,la,a,0.7005,,397.9791,397.9793,-0.2578125,-0.326822917,0,0,0,,0,145,145,97,1,,,,
,,,,,,400817dea5b1878180597973,66a626ef09d4e21e1a8894ec,67377f64a0228faaadcf7fe0,2024-11-15_14h10.13.913,Tarea de género gramatical,2024.2.2,Win32,60.24096386,,,,,,,,,,,,,,,,,,,,,,,397.98,399.098,a,0,[],[],[],[],[],[],[],0.4636,0,399.0993,399.5955,,,,,,1326,MAS,CON,150,pánico,,l,0.4636,,399.5962,399.597,-0.2578125,-0.326822917,0,0,0,,0,146,146,425,1,,,,
,,,,,,400817dea5b1878180597973,66a626ef09d4e21e1a8894ec,67377f64a0228faaadcf7fe0,2024-11-15_14h10.13.913,Tarea de género gramatical,2024.2.2,Win32,60.24096386,,,,,,,,,,,,,,,,,,,,,,,399.5977,400.8463,a,1,[],[],[],[],[],[],[],0.569,1,400.8471,401.3464,,,,,,1209,FEM,CON,150,esposa,,a,0.569,,401.3465,401.3465,-0.2578125,-0.326822917,0,0,0,,0,147,147,308,1,,,,
,,,,,,400817dea5b1878180597973,66a626ef09d4e21e1a8894ec,67377f64a0228faaadcf7fe0,2024-11-15_14h10.13.913,Tarea de género gramatical,2024.2.2,Win32,60.24096386,,,,,,,,,,,,,,,,,,,,,,,401.348,402.462,l,1,[],[],[],[],[],[],[],0.4336,1,402.4621,402.962,,,,,,1336,MAS,DIS,150,objeto,la,l,0.4336,,402.9621,402.9621,-0.2578125,-0.326822917,0,0,0,,0,148,148,435,1,,,,
,,,,,,400817dea5b1878180597973,66a626ef09d4e21e1a8894ec,67377f64a0228faaadcf7fe0,2024-11-15_14h10.13.913,Tarea de género gramatical,2024.2.2,Win32,60.24096386,,,,,,,,,,,,,,,,,,,,,,,402.9628,404.0631,a,1,[],[],[],[],[],[],[],0.4303,1,404.0632,404.5619,,,,,,1159,FEM,DIS,150,prima,el,a,0.4303,,404.5619,404.5619,-0.2578125,-0.326822917,0,0,0,,0,149,149,258,1,,,,
,,,,,,400817dea5b1878180597973,66a626ef09d4e21e1a8894ec,67377f64a0228faaadcf7fe0,2024-11-15_14h10.13.913,Tarea de género gramatical,2024.2.2,Win32,60.24096386,,,,,,,,,,,,,,,,,,,,,,,404.5627,405.6958,l,1,[],[],[],[],[],[],[],0.4789,1,405.6959,406.1951,,,,,,1289,MAS,AGR,150,tamaño,el,l,0.4789,,406.1957,482.3578,-0.2578125,-0.326822917,0,0,0,space,0,150,150,388,1,76.1502,,,
,,,,,,400817dea5b1878180597973,66a626ef09d4e21e1a8894ec,67377f64a0228faaadcf7fe0,2024-11-15_14h10.13.913,Tarea de género gramatical,2024.2.2,Win32,60.24096386,,,,,,,,,,,,,,,,,,,,,,,482.3767,483.89,l,0,[],[],[],[],[],[],[],0.8342,0,483.8909,484.3904,,,,,,1214,FEM,AGR,150,señora,la,a,0.8342,,484.3904,484.3905,-0.2578125,-0.326822917,0,0,0,,0,151,151,313,1,,,,
,,,,,,400817dea5b1878180597973,66a626ef09d4e21e1a8894ec,67377f64a0228faaadcf7fe0,2024-11-15_14h10.13.913,Tarea de género gramatical,2024.2.2,Win32,60.24096386,,,,,,,,,,,,,,,,,,,,,,,484.3919,485.5236,a,0,[],[],[],[],[],[],[],0.4519,0,485.5238,486.0236,,,,,,1228,MAS,DIS,150,asunto,la,l,0.4519,,486.0237,486.0238,-0.2578125,-0.326822917,0,0,0,,0,152,152,327,1,,,,
,,,,,,400817dea5b1878180597973,66a626ef09d4e21e1a8894ec,67377f64a0228faaadcf7fe0,2024-11-15_14h10.13.913,Tarea de género gramatical,2024.2.2,Win32,60.24096386,,,,,,,,,,,,,,,,,,,,,,,486.0252,487.3078,l,1,[],[],[],[],[],[],[],0.6129,1,487.3089,487.8072,,,,,,952,MAS,DIS,150,lago,la,l,0.6129,,487.8073,487.8074,-0.2578125,-0.326822917,0,0,0,,0,153,153,51,1,,,,
,,,,,,400817dea5b1878180597973,66a626ef09d4e21e1a8894ec,67377f64a0228faaadcf7fe0,2024-11-15_14h10.13.913,Tarea de género gramatical,2024.2.2,Win32,60.24096386,,,,,,,,,,,,,,,,,,,,,,,487.8088,489.1068,a,1,[],[],[],[],[],[],[],0.619,1,489.107,489.6067,,,,,,1179,FEM,CON,150,selva,,a,0.619,,489.6067,489.6068,-0.2578125,-0.326822917,0,0,0,,0,154,154,278,1,,,,
,,,,,,400817dea5b1878180597973,66a626ef09d4e21e1a8894ec,67377f64a0228faaadcf7fe0,2024-11-15_14h10.13.913,Tarea de género gramatical,2024.2.2,Win32,60.24096386,,,,,,,,,,,,,,,,,,,,,,,489.6082,490.9725,a,1,[],[],[],[],[],[],[],0.6827,1,490.9726,491.4735,,,,,,1315,FEM,DIS,150,cabina,el,a,0.6827,,491.4749,491.476,-0.2578125,-0.326822917,0,0,0,,0,155,155,414,1,,,,
,,,,,,400817dea5b1878180597973,66a626ef09d4e21e1a8894ec,67377f64a0228faaadcf7fe0,2024-11-15_14h10.13.913,Tarea de género gramatical,2024.2.2,Win32,60.24096386,,,,,,,,,,,,,,,,,,,,,,,491.4772,492.8233,a,1,[],[],[],[],[],[],[],0.671,1,492.8234,493.3231,,,,,,1195,FEM,DIS,150,grasa,el,a,0.671,,493.3231,493.3232,-0.2578125,-0.326822917,0,0,0,,0,156,156,294,1,,,,
,,,,,,400817dea5b1878180597973,66a626ef09d4e21e1a8894ec,67377f64a0228faaadcf7fe0,2024-11-15_14h10.13.913,Tarea de género gramatical,2024.2.2,Win32,60.24096386,,,,,,,,,,,,,,,,,,,,,,,493.3246,494.4733,a,1,[],[],[],[],[],[],[],0.4683,1,494.4734,494.9726,,,,,,1171,FEM,DIS,150,viuda,el,a,0.4683,,494.9727,494.9728,-0.2578125,-0.326822917,0,0,0,,0,157,157,270,1,,,,
,,,,,,400817dea5b1878180597973,66a626ef09d4e21e1a8894ec,67377f64a0228faaadcf7fe0,2024-11-15_14h10.13.913,Tarea de género gramatical,2024.2.2,Win32,60.24096386,,,,,,,,,,,,,,,,,,,,,,,494.9741,496.0233,l,1,[],[],[],[],[],[],[],0.3659,1,496.0234,496.523,,,,,,959,MAS,AGR,150,lobo,el,l,0.3659,,496.5231,496.5231,-0.2578125,-0.326822917,0,0,0,,0,158,158,58,1,,,,
,,,,,,400817dea5b1878180597973,66a626ef09d4e21e1a8894ec,67377f64a0228faaadcf7fe0,2024-11-15_14h10.13.913,Tarea de género gramatical,2024.2.2,Win32,60.24096386,,,,,,,,,,,,,,,,,,,,,,,496.5245,497.7895,l,1,[],[],[],[],[],[],[],0.5866,1,497.7897,498.2896,,,,,,1092,MAS,CON,150,grupo,,l,0.5866,,498.2906,498.2918,-0.2578125,-0.326822917,0,0,0,,0,159,159,191,1,,,,
,,,,,,400817dea5b1878180597973,66a626ef09d4e21e1a8894ec,67377f64a0228faaadcf7fe0,2024-11-15_14h10.13.913,Tarea de género gramatical,2024.2.2,Win32,60.24096386,,,,,,,,,,,,,,,,,,,,,,,498.293,499.6101,a,1,[],[],[],[],[],[],[],0.6178,1,499.6104,500.1091,,,,,,1256,FEM,AGR,150,piedra,la,a,0.6178,,500.1093,500.1094,-0.2578125,-0.326822917,0,0,0,,0,160,160,355,1,,,,
,,,,,,400817dea5b1878180597973,66a626ef09d4e21e1a8894ec,67377f64a0228faaadcf7fe0,2024-11-15_14h10.13.913,Tarea de género gramatical,2024.2.2,Win32,60.24096386,,,,,,,,,,,,,,,,,,,,,,,500.1112,501.209,a,1,[],[],[],[],[],[],[],0.4164,1,501.2093,501.7091,,,,,,1335,FEM,CON,150,niebla,,a,0.4164,,501.7092,501.7095,-0.2578125,-0.326822917,0,0,0,,0,161,161,434,1,,,,
,,,,,,400817dea5b1878180597973,66a626ef09d4e21e1a8894ec,67377f64a0228faaadcf7fe0,2024-11-15_14h10.13.913,Tarea de género gramatical,2024.2.2,Win32,60.24096386,,,,,,,,,,,,,,,,,,,,,,,501.7111,502.7606,l,1,[],[],[],[],[],[],[],0.3684,1,502.7606,503.259,,,,,,1103,MAS,AGR,150,novio,el,l,0.3684,,503.2591,503.2593,-0.2578125,-0.326822917,0,0,0,,0,162,162,202,1,,,,
,,,,,,400817dea5b1878180597973,66a626ef09d4e21e1a8894ec,67377f64a0228faaadcf7fe0,2024-11-15_14h10.13.913,Tarea de género gramatical,2024.2.2,Win32,60.24096386,,,,,,,,,,,,,,,,,,,,,,,503.2611,504.3933,a,1,[],[],[],[],[],[],[],0.4512,1,504.3935,504.8893,,,,,,1287,FEM,CON,150,página,,a,0.4512,,504.8893,504.8896,-0.2578125,-0.326822917,0,0,0,,0,163,163,386,1,,,,
,,,,,,400817dea5b1878180597973,66a626ef09d4e21e1a8894ec,67377f64a0228faaadcf7fe0,2024-11-15_14h10.13.913,Tarea de género gramatical,2024.2.2,Win32,60.24096386,,,,,,,,,,,,,,,,,,,,,,,504.8908,505.9253,a,1,[],[],[],[],[],[],[],0.3667,1,505.9255,506.4259,,,,,,913,FEM,DIS,150,hija,el,a,0.3667,,506.4269,506.4278,-0.2578125,-0.326822917,0,0,0,,0,164,164,12,1,,,,
,,,,,,400817dea5b1878180597973,66a626ef09d4e21e1a8894ec,67377f64a0228faaadcf7fe0,2024-11-15_14h10.13.913,Tarea de género gramatical,2024.2.2,Win32,60.24096386,,,,,,,,,,,,,,,,,,,,,,,506.4293,507.5255,a,1,[],[],[],[],[],[],[],0.4179,1,507.5255,508.0247,,,,,,1190,FEM,AGR,150,cabra,la,a,0.4179,,508.0247,508.025,-0.2578125,-0.326822917,0,0,0,,0,165,165,289,1,,,,
,,,,,,400817dea5b1878180597973,66a626ef09d4e21e1a8894ec,67377f64a0228faaadcf7fe0,2024-11-15_14h10.13.913,Tarea de género gramatical,2024.2.2,Win32,60.24096386,,,,,,,,,,,,,,,,,,,,,,,508.0265,509.0593,a,1,[],[],[],[],[],[],[],0.351,1,509.0595,509.5586,,,,,,1137,FEM,CON,150,ducha,,a,0.351,,509.5587,509.559,-0.2578125,-0.326822917,0,0,0,,0,166,166,236,1,,,,
,,,,,,400817dea5b1878180597973,66a626ef09d4e21e1a8894ec,67377f64a0228faaadcf7fe0,2024-11-15_14h10.13.913,Tarea de género gramatical,2024.2.2,Win32,60.24096386,,,,,,,,,,,,,,,,,,,,,,,509.5606,510.8591,l,1,[],[],[],[],[],[],[],0.6173,1,510.8592,511.3608,,,,,,995,MAS,AGR,150,tomo,el,l,0.6173,,511.3608,511.361,-0.2578125,-0.326822917,0,0,0,,0,167,167,94,1,,,,
,,,,,,400817dea5b1878180597973,66a626ef09d4e21e1a8894ec,67377f64a0228faaadcf7fe0,2024-11-15_14h10.13.913,Tarea de género gramatical,2024.2.2,Win32,60.24096386,,,,,,,,,,,,,,,,,,,,,,,511.3627,512.5134,a,1,[],[],[],[],[],[],[],0.4704,1,512.5134,513.0056,,,,,,1088,FEM,AGR,150,bomba,la,a,0.4704,,513.0068,513.0076,-0.2578125,-0.326822917,0,0,0,,0,168,168,187,1,,,,
,,,,,,400817dea5b1878180597973,66a626ef09d4e21e1a8894ec,67377f64a0228faaadcf7fe0,2024-11-15_14h10.13.913,Tarea de género gramatical,2024.2.2,Win32,60.24096386,,,,,,,,,,,,,,,,,,,,,,,513.0084,514.0915,l,1,[],[],[],[],[],[],[],0.4002,1,514.0917,514.5889,,,,,,1276,MAS,DIS,150,efecto,la,l,0.4002,,514.5889,514.5891,-0.2578125,-0.326822917,0,0,0,,0,169,169,375,1,,,,
,,,,,,400817dea5b1878180597973,66a626ef09d4e21e1a8894ec,67377f64a0228faaadcf7fe0,2024-11-15_14h10.13.913,Tarea de género gramatical,2024.2.2,Win32,60.24096386,,,,,,,,,,,,,,,,,,,,,,,514.5901,515.671,l,1,[],[],[],[],[],[],[],0.4063,1,515.6711,516.1721,,,,,,1199,MAS,AGR,150,rumbo,el,l,0.4063,,516.1722,516.1723,-0.2578125,-0.326822917,0,0,0,,0,170,170,298,1,,,,
,,,,,,400817dea5b1878180597973,66a626ef09d4e21e1a8894ec,67377f64a0228faaadcf7fe0,2024-11-15_14h10.13.913,Tarea de género gramatical,2024.2.2,Win32,60.24096386,,,,,,,,,,,,,,,,,,,,,,,516.1733,517.3423,a,1,[],[],[],[],[],[],[],0.5008,1,517.3427,517.8412,,,,,,1029,FEM,CON,150,rana,,a,0.5008,,517.8413,517.8415,-0.2578125,-0.326822917,0,0,0,,0,171,171,128,1,,,,
,,,,,,400817dea5b1878180597973,66a626ef09d4e21e1a8894ec,67377f64a0228faaadcf7fe0,2024-11-15_14h10.13.913,Tarea de género gramatical,2024.2.2,Win32,60.24096386,,,,,,,,,,,,,,,,,,,,,,,517.8432,519.0586,l,1,[],[],[],[],[],[],[],0.5339,1,519.0589,519.557,,,,,,1036,MAS,DIS,150,vago,la,l,0.5339,,519.5571,519.5574,-0.2578125,-0.326822917,0,0,0,,0,172,172,135,1,,,,
,,,,,,400817dea5b1878180597973,66a626ef09d4e21e1a8894ec,67377f64a0228faaadcf7fe0,2024-11-15_14h10.13.913,Tarea de género gramatical,2024.2.2,Win32,60.24096386,,,,,,,,,,,,,,,,,,,,,,,519.5998,520.5874,l,1,[],[],[],[],[],[],[],0.3546,1,520.5877,521.0876,,,,,,1217,MAS,AGR,150,número,el,l,0.3546,,521.089,521.09,-0.2578125,-0.326822917,0,0,0,,0,173,173,316,1,,,,
,,,,,,400817dea5b1878180597973,66a626ef09d4e21e1a8894ec,67377f64a0228faaadcf7fe0,2024-11-15_14h10.13.913,Tarea de género gramatical,2024.2.2,Win32,60.24096386,,,,,,,,,,,,,,,,,,,,,,,521.0912,522.072,l,1,[],[],[],[],[],[],[],0.3119,1,522.0721,522.5708,,,,,,1259,MAS,AGR,150,bosque,el,l,0.3119,,522.5708,522.5713,-0.2578125,-0.326822917,0,0,0,,0,174,174,358,1,,,,
,,,,,,400817dea5b1878180597973,66a626ef09d4e21e1a8894ec,67377f64a0228faaadcf7fe0,2024-11-15_14h10.13.913,Tarea de género gramatical,2024.2.2,Win32,60.24096386,,,,,,,,,,,,,,,,,,,,,,,522.5725,523.6043,a,0,[],[],[],[],[],[],[],0.3566,0,523.6053,524.1041,,,,,,906,MAS,CON,150,lado,,l,0.3566,,524.1042,524.1047,-0.2578125,-0.326822917,0,0,0,,0,175,175,5,1,,,,
,,,,,,400817dea5b1878180597973,66a626ef09d4e21e1a8894ec,67377f64a0228faaadcf7fe0,2024-11-15_14h10.13.913,Tarea de género gramatical,2024.2.2,Win32,60.24096386,,,,,,,,,,,,,,,,,,,,,,,524.106,525.3203,l,1,[],[],[],[],[],[],[],0.5335,1,525.3209,525.8206,,,,,,1200,MAS,CON,150,túnel,,l,0.5335,,525.8206,525.8207,-0.2578125,-0.326822917,0,0,0,,0,176,176,299,1,,,,
,,,,,,400817dea5b1878180597973,66a626ef09d4e21e1a8894ec,67377f64a0228faaadcf7fe0,2024-11-15_14h10.13.913,Tarea de género gramatical,2024.2.2,Win32,60.24096386,,,,,,,,,,,,,,,,,,,,,,,525.8216,526.9871,a,1,[],[],[],[],[],[],[],0.4848,1,526.9875,527.487,,,,,,1293,FEM,CON,150,alarma,,a,0.4848,,527.4885,527.4896,-0.2578125,-0.326822917,0,0,0,,0,177,177,392,1,,,,
,,,,,,400817dea5b1878180597973,66a626ef09d4e21e1a8894ec,67377f64a0228faaadcf7fe0,2024-11-15_14h10.13.913,Tarea de género gramatical,2024.2.2,Win32,60.24096386,,,,,,,,,,,,,,,,,,,,,,,527.4907,528.9373,a,1,[],[],[],[],[],[],[],0.7674,1,528.9376,529.4368,,,,,,1070,FEM,AGR,150,carta,la,a,0.7674,,529.4369,529.4374,-0.2578125,-0.326822917,0,0,0,,0,178,178,169,1,,,,
,,,,,,400817dea5b1878180597973,66a626ef09d4e21e1a8894ec,67377f64a0228faaadcf7fe0,2024-11-15_14h10.13.913,Tarea de género gramatical,2024.2.2,Win32,60.24096386,,,,,,,,,,,,,,,,,,,,,,,529.4386,530.5203,l,1,[],[],[],[],[],[],[],0.4031,1,530.5209,531.0203,,,,,,1266,MAS,CON,150,riesgo,,l,0.4031,,531.0205,531.0208,-0.2578125,-0.326822917,0,0,0,,0,179,179,365,1,,,,
,,,,,,400817dea5b1878180597973,66a626ef09d4e21e1a8894ec,67377f64a0228faaadcf7fe0,2024-11-15_14h10.13.913,Tarea de género gramatical,2024.2.2,Win32,60.24096386,,,,,,,,,,,,,,,,,,,,,,,531.0221,532.0704,l,1,[],[],[],[],[],[],[],0.3693,1,532.0707,532.5703,,,,,,1248,MAS,CON,150,anillo,,l,0.3693,,532.5706,532.5707,-0.2578125,-0.326822917,0,0,0,,0,180,180,347,1,,,,
,,,,,,400817dea5b1878180597973,66a626ef09d4e21e1a8894ec,67377f64a0228faaadcf7fe0,2024-11-15_14h10.13.913,Tarea de género gramatical,2024.2.2,Win32,60.24096386,,,,,,,,,,,,,,,,,,,,,,,532.572,533.6207,l,1,[],[],[],[],[],[],[],0.3688,1,533.6209,534.1197,,,,,,1307,MAS,AGR,150,jurado,el,l,0.3688,,534.1199,534.1201,-0.2578125,-0.326822917,0,0,0,,0,181,181,406,1,,,,
,,,,,,400817dea5b1878180597973,66a626ef09d4e21e1a8894ec,67377f64a0228faaadcf7fe0,2024-11-15_14h10.13.913,Tarea de género gramatical,2024.2.2,Win32,60.24096386,,,,,,,,,,,,,,,,,,,,,,,534.1216,535.2869,a,1,[],[],[],[],[],[],[],0.4894,1,535.2872,535.7865,,,,,,1166,FEM,AGR,150,jaula,la,a,0.4894,,535.7878,535.7888,-0.2578125,-0.326822917,0,0,0,,0,182,182,265,1,,,,
,,,,,,400817dea5b1878180597973,66a626ef09d4e21e1a8894ec,67377f64a0228faaadcf7fe0,2024-11-15_14h10.13.913,Tarea de género gramatical,2024.2.2,Win32,60.24096386,,,,,,,,,,,,,,,,,,,,,,,535.79,536.9864,a,1,[],[],[],[],[],[],[],0.5184,1,536.9868,537.4862,,,,,,1233,FEM,CON,150,locura,,a,0.5184,,537.4863,537.4867,-0.2578125,-0.326822917,0,0,0,,0,183,183,332,1,,,,
,,,,,,400817dea5b1878180597973,66a626ef09d4e21e1a8894ec,67377f64a0228faaadcf7fe0,2024-11-15_14h10.13.913,Tarea de género gramatical,2024.2.2,Win32,60.24096386,,,,,,,,,,,,,,,,,,,,,,,537.488,538.6032,l,1,[],[],[],[],[],[],[],0.437,1,538.6035,539.1029,,,,,,1139,MAS,AGR,150,reloj,el,l,0.437,,539.1032,539.1035,-0.2578125,-0.326822917,0,0,0,,0,184,184,238,1,,,,
,,,,,,400817dea5b1878180597973,66a626ef09d4e21e1a8894ec,67377f64a0228faaadcf7fe0,2024-11-15_14h10.13.913,Tarea de género gramatical,2024.2.2,Win32,60.24096386,,,,,,,,,,,,,,,,,,,,,,,539.1047,540.3697,l,1,[],[],[],[],[],[],[],0.5879,1,540.3698,540.8694,,,,,,1320,MAS,CON,150,helado,,l,0.5879,,540.8694,540.8697,-0.2578125,-0.326822917,0,0,0,,0,185,185,419,1,,,,
,,,,,,400817dea5b1878180597973,66a626ef09d4e21e1a8894ec,67377f64a0228faaadcf7fe0,2024-11-15_14h10.13.913,Tarea de género gramatical,2024.2.2,Win32,60.24096386,,,,,,,,,,,,,,,,,,,,,,,540.8718,541.9529,l,1,[],[],[],[],[],[],[],0.408,1,541.9531,542.4527,,,,,,1271,MAS,AGR,150,sonido,el,l,0.408,,542.454,542.4552,-0.2578125,-0.326822917,0,0,0,,0,186,186,370,1,,,,
,,,,,,400817dea5b1878180597973,66a626ef09d4e21e1a8894ec,67377f64a0228faaadcf7fe0,2024-11-15_14h10.13.913,Tarea de género gramatical,2024.2.2,Win32,60.24096386,,,,,,,,,,,,,,,,,,,,,,,542.4563,543.5026,a,1,[],[],[],[],[],[],[],0.3678,1,543.5029,544.0029,,,,,,915,FEM,CON,150,cama,,a,0.3678,,544.0032,544.0035,-0.2578125,-0.326822917,0,0,0,,0,187,187,14,1,,,,
,,,,,,400817dea5b1878180597973,66a626ef09d4e21e1a8894ec,67377f64a0228faaadcf7fe0,2024-11-15_14h10.13.913,Tarea de género gramatical,2024.2.2,Win32,60.24096386,,,,,,,,,,,,,,,,,,,,,,,544.0048,545.4028,l,1,[],[],[],[],[],[],[],0.7149,1,545.4031,545.9023,,,,,,1002,MAS,CON,150,coro,,l,0.7149,,545.9024,545.9026,-0.2578125,-0.326822917,0,0,0,,0,188,188,101,1,,,,
,,,,,,400817dea5b1878180597973,66a626ef09d4e21e1a8894ec,67377f64a0228faaadcf7fe0,2024-11-15_14h10.13.913,Tarea de género gramatical,2024.2.2,Win32,60.24096386,,,,,,,,,,,,,,,,,,,,,,,545.9044,547.0357,l,1,[],[],[],[],[],[],[],0.458,1,547.0359,547.5355,,,,,,1133,MAS,AGR,150,golpe,el,l,0.458,,547.5356,547.5361,-0.2578125,-0.326822917,0,0,0,,0,189,189,232,1,,,,
,,,,,,400817dea5b1878180597973,66a626ef09d4e21e1a8894ec,67377f64a0228faaadcf7fe0,2024-11-15_14h10.13.913,Tarea de género gramatical,2024.2.2,Win32,60.24096386,,,,,,,,,,,,,,,,,,,,,,,547.5373,548.6682,a,1,[],[],[],[],[],[],[],0.4562,1,548.6683,549.1688,,,,,,1202,FEM,AGR,150,cabeza,la,a,0.4562,,549.1688,549.1693,-0.2578125,-0.326822917,0,0,0,,0,190,190,301,1,,,,
,,,,,,400817dea5b1878180597973,66a626ef09d4e21e1a8894ec,67377f64a0228faaadcf7fe0,2024-11-15_14h10.13.913,Tarea de género gramatical,2024.2.2,Win32,60.24096386,,,,,,,,,,,,,,,,,,,,,,,549.1706,550.7685,a,1,[],[],[],[],[],[],[],0.918,1,550.7686,551.2688,,,,,,1322,FEM,AGR,150,rutina,la,a,0.918,,551.2704,551.2715,-0.2578125,-0.326822917,0,0,0,,0,191,191,421,1,,,,
,,,,,,400817dea5b1878180597973,66a626ef09d4e21e1a8894ec,67377f64a0228faaadcf7fe0,2024-11-15_14h10.13.913,Tarea de género gramatical,2024.2.2,Win32,60.24096386,,,,,,,,,,,,,,,,,,,,,,,551.2726,552.5357,a,1,[],[],[],[],[],[],[],0.5861,1,552.536,553.0356,,,,,,1311,FEM,CON,150,actriz,,a,0.5861,,553.0357,553.0359,-0.2578125,-0.326822917,0,0,0,,0,192,192,410,1,,,,
,,,,,,400817dea5b1878180597973,66a626ef09d4e21e1a8894ec,67377f64a0228faaadcf7fe0,2024-11-15_14h10.13.913,Tarea de género gramatical,2024.2.2,Win32,60.24096386,,,,,,,,,,,,,,,,,,,,,,,553.0372,554.1347,a,1,[],[],[],[],[],[],[],0.4212,1,554.1349,554.6354,,,,,,1173,FEM,CON,150,tarta,,a,0.4212,,554.6356,554.6359,-0.2578125,-0.326822917,0,0,0,,0,193,193,272,1,,,,
,,,,,,400817dea5b1878180597973,66a626ef09d4e21e1a8894ec,67377f64a0228faaadcf7fe0,2024-11-15_14h10.13.913,Tarea de género gramatical,2024.2.2,Win32,60.24096386,,,,,,,,,,,,,,,,,,,,,,,554.6371,555.8017,a,0,[],[],[],[],[],[],[],0.493,0,555.8031,556.3008,,,,,,1188,MAS,CON,150,grado,,l,0.493,,556.3009,556.3011,-0.2578125,-0.326822917,0,0,0,,0,194,194,287,1,,,,
,,,,,,400817dea5b1878180597973,66a626ef09d4e21e1a8894ec,67377f64a0228faaadcf7fe0,2024-11-15_14h10.13.913,Tarea de género gramatical,2024.2.2,Win32,60.24096386,,,,,,,,,,,,,,,,,,,,,,,556.3029,557.9517,a,1,[],[],[],[],[],[],[],0.9726,1,557.9528,558.4517,,,,,,1303,FEM,DIS,150,paliza,el,a,0.9726,,558.453,558.4542,-0.2578125,-0.326822917,0,0,0,,0,195,195,402,1,,,,
,,,,,,400817dea5b1878180597973,66a626ef09d4e21e1a8894ec,67377f64a0228faaadcf7fe0,2024-11-15_14h10.13.913,Tarea de género gramatical,2024.2.2,Win32,60.24096386,,,,,,,,,,,,,,,,,,,,,,,558.4558,559.9181,l,1,[],[],[],[],[],[],[],0.7843,1,559.9183,560.4184,,,,,,1091,MAS,AGR,150,dolor,el,l,0.7843,,560.4185,560.4188,-0.2578125,-0.326822917,0,0,0,,0,196,196,190,1,,,,
,,,,,,400817dea5b1878180597973,66a626ef09d4e21e1a8894ec,67377f64a0228faaadcf7fe0,2024-11-15_14h10.13.913,Tarea de género gramatical,2024.2.2,Win32,60.24096386,,,,,,,,,,,,,,,,,,,,,,,560.42,562.3688,a,1,[],[],[],[],[],[],[],1.2788,1,562.3689,562.8717,,,,,,1003,FEM,DIS,150,fama,el,a,1.2788,,562.8719,562.872,-0.2578125,-0.326822917,0,0,0,,0,197,197,102,1,,,,
,,,,,,400817dea5b1878180597973,66a626ef09d4e21e1a8894ec,67377f64a0228faaadcf7fe0,2024-11-15_14h10.13.913,Tarea de género gramatical,2024.2.2,Win32,60.24096386,,,,,,,,,,,,,,,,,,,,,,,562.8743,564.3339,a,1,[],[],[],[],[],[],[],0.7882,1,564.3341,564.8345,,,,,,975,FEM,CON,150,caza,,a,0.7882,,564.8348,564.8349,-0.2578125,-0.326822917,0,0,0,,0,198,198,74,1,,,,
,,,,,,400817dea5b1878180597973,66a626ef09d4e21e1a8894ec,67377f64a0228faaadcf7fe0,2024-11-15_14h10.13.913,Tarea de género gramatical,2024.2.2,Win32,60.24096386,,,,,,,,,,,,,,,,,,,,,,,564.8361,565.918,a,1,[],[],[],[],[],[],[],0.4093,1,565.9181,566.4176,,,,,,1160,FEM,AGR,150,barra,la,a,0.4093,,566.4178,566.4181,-0.2578125,-0.326822917,0,0,0,,0,199,199,259,1,,,,
,,,,,,400817dea5b1878180597973,66a626ef09d4e21e1a8894ec,67377f64a0228faaadcf7fe0,2024-11-15_14h10.13.913,Tarea de género gramatical,2024.2.2,Win32,60.24096386,,,,,,,,,,,,,,,,,,,,,,,566.4193,567.5842,l,1,[],[],[],[],[],[],[],0.494,1,567.5845,568.0844,,,,,,1301,MAS,AGR,150,abrigo,el,l,0.494,,568.0858,568.0874,-0.2578125,-0.326822917,0,0,0,,0,200,200,400,1,,,,
,,,,,,400817dea5b1878180597973,66a626ef09d4e21e1a8894ec,67377f64a0228faaadcf7fe0,2024-11-15_14h10.13.913,Tarea de género gramatical,2024.2.2,Win32,60.24096386,,,,,,,,,,,,,,,,,,,,,,,568.0889,569.2674,a,1,[],[],[],[],[],[],[],0.5071,1,569.2676,569.7675,,,,,,1053,FEM,CON,150,mujer,,a,0.5071,,569.7677,569.768,-0.2578125,-0.326822917,0,0,0,,0,201,201,152,1,,,,
,,,,,,400817dea5b1878180597973,66a626ef09d4e21e1a8894ec,67377f64a0228faaadcf7fe0,2024-11-15_14h10.13.913,Tarea de género gramatical,2024.2.2,Win32,60.24096386,,,,,,,,,,,,,,,,,,,,,,,569.7693,571.2012,l,1,[],[],[],[],[],[],[],0.7545,1,571.2015,571.7006,,,,,,1234,MAS,DIS,150,ataque,la,l,0.7545,,571.7006,571.701,-0.2578125,-0.326822917,0,0,0,,0,202,202,333,1,,,,
,,,,,,400817dea5b1878180597973,66a626ef09d4e21e1a8894ec,67377f64a0228faaadcf7fe0,2024-11-15_14h10.13.913,Tarea de género gramatical,2024.2.2,Win32,60.24096386,,,,,,,,,,,,,,,,,,,,,,,571.7024,572.886,l,1,[],[],[],[],[],[],[],0.5007,1,572.8862,573.3842,,,,,,1331,MAS,AGR,150,veneno,el,l,0.5007,,573.3842,573.3845,-0.2578125,-0.326822917,0,0,0,,0,203,203,430,1,,,,
,,,,,,400817dea5b1878180597973,66a626ef09d4e21e1a8894ec,67377f64a0228faaadcf7fe0,2024-11-15_14h10.13.913,Tarea de género gramatical,2024.2.2,Win32,60.24096386,,,,,,,,,,,,,,,,,,,,,,,573.3858,574.6336,l,1,[],[],[],[],[],[],[],0.5696,1,574.6337,575.1341,,,,,,1084,MAS,DIS,150,cielo,la,l,0.5696,,575.1354,575.1365,-0.2578125,-0.326822917,0,0,0,,0,204,204,183,1,,,,
,,,,,,400817dea5b1878180597973,66a626ef09d4e21e1a8894ec,67377f64a0228faaadcf7fe0,2024-11-15_14h10.13.913,Tarea de género gramatical,2024.2.2,Win32,60.24096386,,,,,,,,,,,,,,,,,,,,,,,575.1376,576.3006,a,1,[],[],[],[],[],[],[],0.4843,1,576.301,576.8003,,,,,,991,FEM,DIS,150,hoja,el,a,0.4843,,576.8006,576.8009,-0.2578125,-0.326822917,0,0,0,,0,205,205,90,1,,,,
,,,,,,400817dea5b1878180597973,66a626ef09d4e21e1a8894ec,67377f64a0228faaadcf7fe0,2024-11-15_14h10.13.913,Tarea de género gramatical,2024.2.2,Win32,60.24096386,,,,,,,,,,,,,,,,,,,,,,,576.8022,578.3167,a,1,[],[],[],[],[],[],[],0.8391,1,578.317,578.8161,,,,,,1034,FEM,AGR,150,rama,la,a,0.8391,,578.8162,578.8163,-0.2578125,-0.326822917,0,0,0,,0,206,206,133,1,,,,
,,,,,,400817dea5b1878180597973,66a626ef09d4e21e1a8894ec,67377f64a0228faaadcf7fe0,2024-11-15_14h10.13.913,Tarea de género gramatical,2024.2.2,Win32,60.24096386,,,,,,,,,,,,,,,,,,,,,,,578.8171,579.8174,l,1,[],[],[],[],[],[],[],0.3287,1,579.8176,580.3169,,,,,,1157,MAS,AGR,150,pecho,el,l,0.3287,,580.317,580.3173,-0.2578125,-0.326822917,0,0,0,,0,207,207,256,1,,,,
,,,,,,400817dea5b1878180597973,66a626ef09d4e21e1a8894ec,67377f64a0228faaadcf7fe0,2024-11-15_14h10.13.913,Tarea de género gramatical,2024.2.2,Win32,60.24096386,,,,,,,,,,,,,,,,,,,,,,,580.3185,581.6348,a,1,[],[],[],[],[],[],[],0.6459,1,581.6349,582.1332,,,,,,925,FEM,DIS,150,nave,el,a,0.6459,,582.1334,582.1337,-0.2578125,-0.326822917,0,0,0,,0,208,208,24,1,,,,
,,,,,,400817dea5b1878180597973,66a626ef09d4e21e1a8894ec,67377f64a0228faaadcf7fe0,2024-11-15_14h10.13.913,Tarea de género gramatical,2024.2.2,Win32,60.24096386,,,,,,,,,,,,,,,,,,,,,,,582.1349,583.2333,a,1,[],[],[],[],[],[],[],0.4225,1,583.2336,583.7334,,,,,,1016,FEM,AGR,150,nube,la,a,0.4225,,583.7347,583.7359,-0.2578125,-0.326822917,0,0,0,,0,209,209,115,1,,,,
,,,,,,400817dea5b1878180597973,66a626ef09d4e21e1a8894ec,67377f64a0228faaadcf7fe0,2024-11-15_14h10.13.913,Tarea de género gramatical,2024.2.2,Win32,60.24096386,,,,,,,,,,,,,,,,,,,,,,,583.7371,585.0324,a,1,[],[],[],[],[],[],[],0.617,1,585.0326,585.533,,,,,,1153,FEM,DIS,150,aldea,el,a,0.617,,585.533,585.5332,-0.2578125,-0.326822917,0,0,0,,0,210,210,252,1,,,,
,,,,,,400817dea5b1878180597973,66a626ef09d4e21e1a8894ec,67377f64a0228faaadcf7fe0,2024-11-15_14h10.13.913,Tarea de género gramatical,2024.2.2,Win32,60.24096386,,,,,,,,,,,,,,,,,,,,,,,585.5348,586.5505,a,1,[],[],[],[],[],[],[],0.3449,1,586.5507,587.0505,,,,,,1226,FEM,AGR,150,música,la,a,0.3449,,587.0505,587.0507,-0.2578125,-0.326822917,0,0,0,,0,211,211,325,1,,,,
,,,,,,400817dea5b1878180597973,66a626ef09d4e21e1a8894ec,67377f64a0228faaadcf7fe0,2024-11-15_14h10.13.913,Tarea de género gramatical,2024.2.2,Win32,60.24096386,,,,,,,,,,,,,,,,,,,,,,,587.0524,588.1495,a,1,[],[],[],[],[],[],[],0.4175,1,588.1497,588.6489,,,,,,1035,FEM,CON,150,raíz,,a,0.4175,,588.6491,588.6492,-0.2578125,-0.326822917,0,0,0,,0,212,212,134,1,,,,
,,,,,,400817dea5b1878180597973,66a626ef09d4e21e1a8894ec,67377f64a0228faaadcf7fe0,2024-11-15_14h10.13.913,Tarea de género gramatical,2024.2.2,Win32,60.24096386,,,,,,,,,,,,,,,,,,,,,,,588.6499,590.0012,l,1,[],[],[],[],[],[],[],0.668,1,590.0014,590.4987,,,,,,1054,MAS,DIS,150,padre,la,l,0.668,,590.4997,590.5003,-0.2578125,-0.326822917,0,0,0,,0,213,213,153,1,,,,
,,,,,,400817dea5b1878180597973,66a626ef09d4e21e1a8894ec,67377f64a0228faaadcf7fe0,2024-11-15_14h10.13.913,Tarea de género gramatical,2024.2.2,Win32,60.24096386,,,,,,,,,,,,,,,,,,,,,,,590.5011,591.6664,l,1,[],[],[],[],[],[],[],0.4844,1,591.6667,592.166,,,,,,946,MAS,DIS,150,odio,la,l,0.4844,,592.1662,592.1665,-0.2578125,-0.326822917,0,0,0,,0,214,214,45,1,,,,
,,,,,,400817dea5b1878180597973,66a626ef09d4e21e1a8894ec,67377f64a0228faaadcf7fe0,2024-11-15_14h10.13.913,Tarea de género gramatical,2024.2.2,Win32,60.24096386,,,,,,,,,,,,,,,,,,,,,,,592.1678,593.216,l,1,[],[],[],[],[],[],[],0.3672,1,593.2162,593.7161,,,,,,1192,MAS,DIS,150,piano,la,l,0.3672,,593.7164,593.7166,-0.2578125,-0.326822917,0,0,0,,0,215,215,291,1,,,,
,,,,,,400817dea5b1878180597973,66a626ef09d4e21e1a8894ec,67377f64a0228faaadcf7fe0,2024-11-15_14h10.13.913,Tarea de género gramatical,2024.2.2,Win32,60.24096386,,,,,,,,,,,,,,,,,,,,,,,593.7179,594.799,a,1,[],[],[],[],[],[],[],0.4017,1,594.7992,595.2991,,,,,,1316,FEM,AGR,150,colina,la,a,0.4017,,595.2993,595.2998,-0.2578125,-0.326822917,0,0,0,,0,216,216,415,1,,,,
,,,,,,400817dea5b1878180597973,66a626ef09d4e21e1a8894ec,67377f64a0228faaadcf7fe0,2024-11-15_14h10.13.913,Tarea de género gramatical,2024.2.2,Win32,60.24096386,,,,,,,,,,,,,,,,,,,,,,,595.3015,596.4157,l,1,[],[],[],[],[],[],[],0.4342,1,596.4162,596.9159,,,,,,1306,MAS,DIS,150,premio,la,l,0.4342,,596.916,596.9163,-0.2578125,-0.326822917,0,0,0,,0,217,217,405,1,,,,
,,,,,,400817dea5b1878180597973,66a626ef09d4e21e1a8894ec,67377f64a0228faaadcf7fe0,2024-11-15_14h10.13.913,Tarea de género gramatical,2024.2.2,Win32,60.24096386,,,,,,,,,,,,,,,,,,,,,,,596.9177,598.1653,l,1,[],[],[],[],[],[],[],0.5671,1,598.1653,598.6653,,,,,,1138,MAS,DIS,150,norte,la,l,0.5671,,598.6668,598.6678,-0.2578125,-0.326822917,0,0,0,,0,218,218,237,1,,,,
,,,,,,400817dea5b1878180597973,66a626ef09d4e21e1a8894ec,67377f64a0228faaadcf7fe0,2024-11-15_14h10.13.913,Tarea de género gramatical,2024.2.2,Win32,60.24096386,,,,,,,,,,,,,,,,,,,,,,,598.6691,599.8653,a,1,[],[],[],[],[],[],[],0.5189,1,599.8655,600.3653,,,,,,1046,FEM,AGR,150,lana,la,a,0.5189,,600.3654,600.3658,-0.2578125,-0.326822917,0,0,0,,0,219,219,145,1,,,,
,,,,,,400817dea5b1878180597973,66a626ef09d4e21e1a8894ec,67377f64a0228faaadcf7fe0,2024-11-15_14h10.13.913,Tarea de género gramatical,2024.2.2,Win32,60.24096386,,,,,,,,,,,,,,,,,,,,,,,600.3671,601.4348,l,1,[],[],[],[],[],[],[],0.3886,1,601.435,601.9317,,,,,,970,MAS,DIS,150,palo,la,l,0.3886,,601.9317,601.9319,-0.2578125,-0.326822917,0,0,0,,0,220,220,69,1,,,,
,,,,,,400817dea5b1878180597973,66a626ef09d4e21e1a8894ec,67377f64a0228faaadcf7fe0,2024-11-15_14h10.13.913,Tarea de género gramatical,2024.2.2,Win32,60.24096386,,,,,,,,,,,,,,,,,,,,,,,601.9334,603.052,l,1,[],[],[],[],[],[],[],0.4503,1,603.0521,603.5507,,,,,,1044,MAS,CON,150,amor,,l,0.4503,,603.551,603.5511,-0.2578125,-0.326822917,0,0,0,,0,221,221,143,1,,,,
,,,,,,400817dea5b1878180597973,66a626ef09d4e21e1a8894ec,67377f64a0228faaadcf7fe0,2024-11-15_14h10.13.913,Tarea de género gramatical,2024.2.2,Win32,60.24096386,,,,,,,,,,,,,,,,,,,,,,,603.5527,604.6362,l,1,[],[],[],[],[],[],[],0.4179,1,604.6363,605.1352,,,,,,1120,MAS,DIS,150,huevo,la,l,0.4179,,605.1367,605.1378,-0.2578125,-0.326822917,0,0,0,,0,222,222,219,1,,,,
,,,,,,400817dea5b1878180597973,66a626ef09d4e21e1a8894ec,67377f64a0228faaadcf7fe0,2024-11-15_14h10.13.913,Tarea de género gramatical,2024.2.2,Win32,60.24096386,,,,,,,,,,,,,,,,,,,,,,,605.1389,606.2697,a,1,[],[],[],[],[],[],[],0.451,1,606.2699,606.7686,,,,,,1051,FEM,DIS,150,noche,el,a,0.451,,606.7686,606.7689,-0.2578125,-0.326822917,0,0,0,,0,223,223,150,1,,,,
,,,,,,400817dea5b1878180597973,66a626ef09d4e21e1a8894ec,67377f64a0228faaadcf7fe0,2024-11-15_14h10.13.913,Tarea de género gramatical,2024.2.2,Win32,60.24096386,,,,,,,,,,,,,,,,,,,,,,,606.7704,607.9192,a,0,[],[],[],[],[],[],[],0.4677,0,607.9204,608.4195,,,,,,1272,MAS,CON,150,delito,,l,0.4677,,608.4195,608.4197,-0.2578125,-0.326822917,0,0,0,,0,224,224,371,1,,,,
,,,,,,400817dea5b1878180597973,66a626ef09d4e21e1a8894ec,67377f64a0228faaadcf7fe0,2024-11-15_14h10.13.913,Tarea de género gramatical,2024.2.2,Win32,60.24096386,,,,,,,,,,,,,,,,,,,,,,,608.4214,609.915,l,1,[],[],[],[],[],[],[],0.8214,1,609.916,610.4145,,,,,,1068,MAS,CON,150,sitio,,l,0.8214,,610.4148,610.415,-0.2578125,-0.326822917,0,0,0,,0,225,225,167,1,,,,
,,,,,,400817dea5b1878180597973,66a626ef09d4e21e1a8894ec,67377f64a0228faaadcf7fe0,2024-11-15_14h10.13.913,Tarea de género gramatical,2024.2.2,Win32,60.24096386,,,,,,,,,,,,,,,,,,,,,,,610.4162,611.3826,l,1,[],[],[],[],[],[],[],0.2959,1,611.3829,611.8811,,,,,,1314,MAS,CON,150,sótano,,l,0.2959,,611.8811,611.8816,-0.2578125,-0.326822917,0,0,0,,0,226,226,413,1,,,,
,,,,,,400817dea5b1878180597973,66a626ef09d4e21e1a8894ec,67377f64a0228faaadcf7fe0,2024-11-15_14h10.13.913,Tarea de género gramatical,2024.2.2,Win32,60.24096386,,,,,,,,,,,,,,,,,,,,,,,611.8829,612.9481,l,1,[],[],[],[],[],[],[],0.3944,1,612.9482,613.4478,,,,,,1302,MAS,CON,150,ladrón,,l,0.3944,,613.4494,613.4505,-0.2578125,-0.326822917,0,0,0,,0,227,227,401,1,,,,
,,,,,,400817dea5b1878180597973,66a626ef09d4e21e1a8894ec,67377f64a0228faaadcf7fe0,2024-11-15_14h10.13.913,Tarea de género gramatical,2024.2.2,Win32,60.24096386,,,,,,,,,,,,,,,,,,,,,,,613.4517,614.5309,l,0,[],[],[],[],[],[],[],0.4029,0,614.532,615.0308,,,,,,1135,FEM,DIS,150,torre,el,a,0.4029,,615.0308,615.0312,-0.2578125,-0.326822917,0,0,0,,0,228,228,234,1,,,,
,,,,,,400817dea5b1878180597973,66a626ef09d4e21e1a8894ec,67377f64a0228faaadcf7fe0,2024-11-15_14h10.13.913,Tarea de género gramatical,2024.2.2,Win32,60.24096386,,,,,,,,,,,,,,,,,,,,,,,615.0326,616.2142,a,1,[],[],[],[],[],[],[],0.5154,1,616.2154,616.7162,,,,,,1183,FEM,DIS,150,pluma,el,a,0.5154,,616.7163,616.7164,-0.2578125,-0.326822917,0,0,0,,0,229,229,282,1,,,,
,,,,,,400817dea5b1878180597973,66a626ef09d4e21e1a8894ec,67377f64a0228faaadcf7fe0,2024-11-15_14h10.13.913,Tarea de género gramatical,2024.2.2,Win32,60.24096386,,,,,,,,,,,,,,,,,,,,,,,616.7181,617.8517,a,1,[],[],[],[],[],[],[],0.4674,1,617.8518,618.3504,,,,,,1196,FEM,AGR,150,feria,la,a,0.4674,,618.3505,618.3506,-0.2578125,-0.326822917,0,0,0,,0,230,230,295,1,,,,
,,,,,,400817dea5b1878180597973,66a626ef09d4e21e1a8894ec,67377f64a0228faaadcf7fe0,2024-11-15_14h10.13.913,Tarea de género gramatical,2024.2.2,Win32,60.24096386,,,,,,,,,,,,,,,,,,,,,,,618.3522,619.5806,a,1,[],[],[],[],[],[],[],0.5523,1,619.5807,620.0807,,,,,,1299,FEM,CON,150,charla,,a,0.5523,,620.0821,620.0831,-0.2578125,-0.326822917,0,0,0,,0,231,231,398,1,,,,
,,,,,,400817dea5b1878180597973,66a626ef09d4e21e1a8894ec,67377f64a0228faaadcf7fe0,2024-11-15_14h10.13.913,Tarea de género gramatical,2024.2.2,Win32,60.24096386,,,,,,,,,,,,,,,,,,,,,,,620.0843,621.1805,a,1,[],[],[],[],[],[],[],0.4194,1,621.1808,621.6806,,,,,,1089,FEM,CON,150,pista,,a,0.4194,,621.6808,621.6811,-0.2578125,-0.326822917,0,0,0,,0,232,232,188,1,,,,
,,,,,,400817dea5b1878180597973,66a626ef09d4e21e1a8894ec,67377f64a0228faaadcf7fe0,2024-11-15_14h10.13.913,Tarea de género gramatical,2024.2.2,Win32,60.24096386,,,,,,,,,,,,,,,,,,,,,,,621.6823,624.3303,,0,[],[],[],[],[],[],[],0.4194,-1,624.3315,624.8306,,,,,,1212,MAS,CON,150,equipo,,l,,,624.8308,624.831,-0.2578125,-0.326822917,0,0,0,,0,233,233,311,1,,,,
,,,,,,400817dea5b1878180597973,66a626ef09d4e21e1a8894ec,67377f64a0228faaadcf7fe0,2024-11-15_14h10.13.913,Tarea de género gramatical,2024.2.2,Win32,60.24096386,,,,,,,,,,,,,,,,,,,,,,,624.8325,625.9636,a,1,[],[],[],[],[],[],[],0.4489,1,625.9646,626.4634,,,,,,1208,FEM,AGR,150,semana,la,a,0.4489,,626.4635,626.4636,-0.2578125,-0.326822917,0,0,0,,0,234,234,307,1,,,,
,,,,,,400817dea5b1878180597973,66a626ef09d4e21e1a8894ec,67377f64a0228faaadcf7fe0,2024-11-15_14h10.13.913,Tarea de género gramatical,2024.2.2,Win32,60.24096386,,,,,,,,,,,,,,,,,,,,,,,626.4652,627.5468,a,1,[],[],[],[],[],[],[],0.4096,1,627.5471,628.0462,,,,,,1143,FEM,CON,150,salsa,,a,0.4096,,628.0464,628.0465,-0.2578125,-0.326822917,0,0,0,,0,235,235,242,1,,,,
,,,,,,400817dea5b1878180597973,66a626ef09d4e21e1a8894ec,67377f64a0228faaadcf7fe0,2024-11-15_14h10.13.913,Tarea de género gramatical,2024.2.2,Win32,60.24096386,,,,,,,,,,,,,,,,,,,,,,,628.0473,629.0966,a,1,[],[],[],[],[],[],[],0.3676,1,629.0969,629.5967,,,,,,961,FEM,DIS,150,ruta,el,a,0.3676,,629.5981,629.5993,-0.2578125,-0.326822917,0,0,0,,0,236,236,60,1,,,,
,,,,,,400817dea5b1878180597973,66a626ef09d4e21e1a8894ec,67377f64a0228faaadcf7fe0,2024-11-15_14h10.13.913,Tarea de género gramatical,2024.2.2,Win32,60.24096386,,,,,,,,,,,,,,,,,,,,,,,629.6006,630.63,a,1,[],[],[],[],[],[],[],0.3516,1,630.6304,631.1299,,,,,,1106,FEM,AGR,150,época,la,a,0.3516,,631.13,631.1305,-0.2578125,-0.326822917,0,0,0,,0,237,237,205,1,,,,
,,,,,,400817dea5b1878180597973,66a626ef09d4e21e1a8894ec,67377f64a0228faaadcf7fe0,2024-11-15_14h10.13.913,Tarea de género gramatical,2024.2.2,Win32,60.24096386,,,,,,,,,,,,,,,,,,,,,,,631.1319,632.4629,l,1,[],[],[],[],[],[],[],0.6556,1,632.4632,632.9631,,,,,,1180,MAS,DIS,150,salón,la,l,0.6556,,632.9633,632.9636,-0.2578125,-0.326822917,0,0,0,,0,238,238,279,1,,,,
,,,,,,400817dea5b1878180597973,66a626ef09d4e21e1a8894ec,67377f64a0228faaadcf7fe0,2024-11-15_14h10.13.913,Tarea de género gramatical,2024.2.2,Win32,60.24096386,,,,,,,,,,,,,,,,,,,,,,,632.9648,634.0298,l,1,[],[],[],[],[],[],[],0.3884,1,634.03,634.5295,,,,,,1258,MAS,DIS,150,motivo,la,l,0.3884,,634.5296,634.5299,-0.2578125,-0.326822917,0,0,0,,0,239,239,357,1,,,,
,,,,,,400817dea5b1878180597973,66a626ef09d4e21e1a8894ec,67377f64a0228faaadcf7fe0,2024-11-15_14h10.13.913,Tarea de género gramatical,2024.2.2,Win32,60.24096386,,,,,,,,,,,,,,,,,,,,,,,634.5313,635.8478,a,1,[],[],[],[],[],[],[],0.6333,1,635.8479,636.346,,,,,,973,FEM,DIS,150,roca,el,a,0.6333,,636.3474,636.3485,-0.2578125,-0.326822917,0,0,0,,0,240,240,72,1,,,,
,,,,,,400817dea5b1878180597973,66a626ef09d4e21e1a8894ec,67377f64a0228faaadcf7fe0,2024-11-15_14h10.13.913,Tarea de género gramatical,2024.2.2,Win32,60.24096386,,,,,,,,,,,,,,,,,,,,,,,636.3497,637.4296,a,1,[],[],[],[],[],[],[],0.4012,1,637.4298,637.9293,,,,,,969,FEM,CON,150,rata,,a,0.4012,,637.9294,637.9298,-0.2578125,-0.326822917,0,0,0,,0,241,241,68,1,,,,
,,,,,,400817dea5b1878180597973,66a626ef09d4e21e1a8894ec,67377f64a0228faaadcf7fe0,2024-11-15_14h10.13.913,Tarea de género gramatical,2024.2.2,Win32,60.24096386,,,,,,,,,,,,,,,,,,,,,,,637.931,638.9634,a,1,[],[],[],[],[],[],[],0.362,1,638.9635,639.4625,,,,,,1245,FEM,CON,150,pierna,,a,0.362,,639.4625,639.4628,-0.2578125,-0.326822917,0,0,0,,0,242,242,344,1,,,,
,,,,,,400817dea5b1878180597973,66a626ef09d4e21e1a8894ec,67377f64a0228faaadcf7fe0,2024-11-15_14h10.13.913,Tarea de género gramatical,2024.2.2,Win32,60.24096386,,,,,,,,,,,,,,,,,,,,,,,639.4643,640.7458,a,1,[],[],[],[],[],[],[],0.6092,1,640.7462,641.246,,,,,,1147,FEM,DIS,150,frase,el,a,0.6092,,641.246,641.2464,-0.2578125,-0.326822917,0,0,0,,0,243,243,246,1,,,,
,,,,,,400817dea5b1878180597973,66a626ef09d4e21e1a8894ec,67377f64a0228faaadcf7fe0,2024-11-15_14h10.13.913,Tarea de género gramatical,2024.2.2,Win32,60.24096386,,,,,,,,,,,,,,,,,,,,,,,641.2481,642.2794,a,1,[],[],[],[],[],[],[],0.3563,1,642.2797,642.7792,,,,,,1052,FEM,AGR,150,gente,la,a,0.3563,,642.7795,642.7797,-0.2578125,-0.326822917,0,0,0,,0,244,244,151,1,,,,
,,,,,,400817dea5b1878180597973,66a626ef09d4e21e1a8894ec,67377f64a0228faaadcf7fe0,2024-11-15_14h10.13.913,Tarea de género gramatical,2024.2.2,Win32,60.24096386,,,,,,,,,,,,,,,,,,,,,,,642.781,644.0456,l,1,[],[],[],[],[],[],[],0.5877,1,644.0458,644.5457,,,,,,1324,MAS,DIS,150,rastro,la,l,0.5877,,644.5473,644.5484,-0.2578125,-0.326822917,0,0,0,,0,245,245,423,1,,,,
,,,,,,400817dea5b1878180597973,66a626ef09d4e21e1a8894ec,67377f64a0228faaadcf7fe0,2024-11-15_14h10.13.913,Tarea de género gramatical,2024.2.2,Win32,60.24096386,,,,,,,,,,,,,,,,,,,,,,,644.5496,645.7164,l,1,[],[],[],[],[],[],[],0.4839,1,645.7165,646.2157,,,,,,923,MAS,AGR,150,rato,el,l,0.4839,,646.2158,646.216,-0.2578125,-0.326822917,0,0,0,,0,246,246,22,1,,,,
,,,,,,400817dea5b1878180597973,66a626ef09d4e21e1a8894ec,67377f64a0228faaadcf7fe0,2024-11-15_14h10.13.913,Tarea de género gramatical,2024.2.2,Win32,60.24096386,,,,,,,,,,,,,,,,,,,,,,,646.2177,647.2845,l,1,[],[],[],[],[],[],[],0.3858,1,647.2847,647.7825,,,,,,1253,MAS,AGR,150,verano,el,l,0.3858,,647.7826,647.7828,-0.2578125,-0.326822917,0,0,0,,0,247,247,352,1,,,,
,,,,,,400817dea5b1878180597973,66a626ef09d4e21e1a8894ec,67377f64a0228faaadcf7fe0,2024-11-15_14h10.13.913,Tarea de género gramatical,2024.2.2,Win32,60.24096386,,,,,,,,,,,,,,,,,,,,,,,647.7843,648.9168,l,0,[],[],[],[],[],[],[],0.451,0,648.9183,649.4177,,,,,,955,FEM,DIS,150,taza,el,a,0.451,,649.4178,649.4179,-0.2578125,-0.326822917,0,0,0,,0,248,248,54,1,,,,
,,,,,,400817dea5b1878180597973,66a626ef09d4e21e1a8894ec,67377f64a0228faaadcf7fe0,2024-11-15_14h10.13.913,Tarea de género gramatical,2024.2.2,Win32,60.24096386,,,,,,,,,,,,,,,,,,,,,,,649.4195,650.5496,l,1,[],[],[],[],[],[],[],0.4518,1,650.5512,651.0486,,,,,,1062,MAS,CON,150,miedo,,l,0.4518,,651.0504,651.0515,-0.2578125,-0.326822917,0,0,0,,0,249,249,161,1,,,,
,,,,,,400817dea5b1878180597973,66a626ef09d4e21e1a8894ec,67377f64a0228faaadcf7fe0,2024-11-15_14h10.13.913,Tarea de género gramatical,2024.2.2,Win32,60.24096386,,,,,,,,,,,,,,,,,,,,,,,651.0527,652.0994,l,1,[],[],[],[],[],[],[],0.3674,1,652.0995,652.5986,,,,,,1235,MAS,AGR,150,montón,el,l,0.3674,,652.5988,652.599,-0.2578125,-0.326822917,0,0,0,,0,250,250,334,1,,,,
,,,,,,400817dea5b1878180597973,66a626ef09d4e21e1a8894ec,67377f64a0228faaadcf7fe0,2024-11-15_14h10.13.913,Tarea de género gramatical,2024.2.2,Win32,60.24096386,,,,,,,,,,,,,,,,,,,,,,,652.6008,653.612,l,1,[],[],[],[],[],[],[],0.3354,1,653.6122,654.1119,,,,,,1222,MAS,DIS,150,minuto,la,l,0.3354,,654.112,654.1121,-0.2578125,-0.326822917,0,0,0,,0,251,251,321,1,,,,
