counterbalancing_condition,consent_prescreening.block_1/declare_consent,consent_prescreening.block_1/age_years,consent_prescreening.block_1/gender,consent_prescreening.block_1/language_disorder,consent_prescreening.block_1/first_language,PROLIFIC_PID,STUDY_ID,SESSION_ID,date,expName,psychopyVersion,OS,frameRate,check_prescreening_answers.started,check_prescreening_answers.stopped,Instructions.started,Instructions.stopped,instr_done_keyboard.keys,instr_done_touch.x,instr_done_touch.y,instr_done_touch.leftButton,instr_done_touch.midButton,instr_done_touch.rightButton,instr_done_touch.clicked_name,instruction_pages.thisRepN,instruction_pages.thisTrialN,instruction_pages.thisN,instruction_pages.thisIndex,instruction_pages.ran,pageN,phase,instruct_text,has_image,instruct_image,instr_done_keyboard.rt,instr_done_keyboard.duration,presentTrial.started,presentTrial.stopped,response.keys,response.corr,response.rt,response.duration,touch_resp.x,touch_resp.y,touch_resp.leftButton,touch_resp.midButton,touch_resp.rightButton,touch_resp.time,touch_resp.clicked_name,rt,corr,feedback.started,feedback.stopped,practice_trials.thisRepN,practice_trials.thisTrialN,practice_trials.thisN,practice_trials.thisIndex,practice_trials.ran,TrialID,StimulusType,Condition,PrimeDuration,Prime,Flanker,corrAns,Break.started,Break.stopped,break_done_touch.x,break_done_touch.y,break_done_touch.leftButton,break_done_touch.midButton,break_done_touch.rightButton,break_done_keyboard.keys,experiment_trials.thisRepN,experiment_trials.thisTrialN,experiment_trials.thisN,experiment_trials.thisIndex,experiment_trials.ran,break_done_touch.clicked_name,break_done_keyboard.rt,break_done_keyboard.duration,End.started,End.stopped
0,"[""over_18"",""comfortable"",""read_info"",""consent_given""]",37,M,"[""none""]","[""spanish""]",40b45f9a70cc0d1df079c7a4,66a626ef09d4e21e1a8894ec,6734d67a93fe5b564f9395fb,2024-11-13_17h43.35.984,Tarea de género gramatical,2024.2.2,Win32,89.92805755,,,,,,,,,,,,,,,,,,,,,,,,,,,,,,,,,,,,,,,,,,,,,,,,,,,,,,,,,,,,,,,,,,,,,,
,,,,,,40b45f9a70cc0d1df079c7a4,66a626ef09d4e21e1a8894ec,6734d67a93fe5b564f9395fb,2024-11-13_17h43.35.984,Tarea de género gramatical,2024.2.2,Win32,89.92805755,25.725,25.725,,,,,,,,,,,,,,,,,,,,,,,,,,,,,,,,,,,,,,,,,,,,,,,,,,,,,,,,,,,,,,,,,,,,
,,,,,,40b45f9a70cc0d1df079c7a4,66a626ef09d4e21e1a8894ec,6734d67a93fe5b564f9395fb,2024-11-13_17h43.35.984,Tarea de género gramatical,2024.2.2,Win32,89.92805755,,,25.761,27.492,,-0.045555556,-0.435555556,1,0,0,,0,0,0,0,1,1,instructions,"INSTRUCCIONES
Va a realizar una prueba de selección gramatical. Desde el comienzo de la prueba mire siempre al centro de la pantalla. Al cabo de un momento, aparecerán palabras. La tarea consiste en determinar si la palabra del centro (siempre será un sustantivo), pertenece al género masculino o femenino.

Pulse la tecla ESPACIO o toque el botón de abajo para continuar.",0,keyboardresponseFM.png,,,,,,,,,,,,,,,,,,,,,,,,,,,,,,,,,,,,,,,,,,,,,,,,,
,,,,,,40b45f9a70cc0d1df079c7a4,66a626ef09d4e21e1a8894ec,6734d67a93fe5b564f9395fb,2024-11-13_17h43.35.984,Tarea de género gramatical,2024.2.2,Win32,89.92805755,,,27.497,29.271,space,-0.045555556,-0.435555556,0,0,0,,0,1,1,1,1,2,instructions,"Si su dispositivo tiene teclado, pulse la tecla ""A"" para las palabras en femenino (por ejemplo: ""mano"") y la tecla ""L"" para las palabras en masculino(por ejemplo: ""arroz"").
Pulse la tecla ESPACIO o toque el botón de abajo para continuar.",1,keyboardresponseFM.png,1.691,,,,,,,,,,,,,,,,,,,,,,,,,,,,,,,,,,,,,,,,,,,,,,,,
,,,,,,40b45f9a70cc0d1df079c7a4,66a626ef09d4e21e1a8894ec,6734d67a93fe5b564f9395fb,2024-11-13_17h43.35.984,Tarea de género gramatical,2024.2.2,Win32,89.92805755,,,29.274,29.778,space,-0.045555556,-0.435555556,0,0,0,,0,2,2,2,1,3,instructions,"Si utiliza un dispositivo sólo táctil, colóquelo en horizontal y utilice los botones de la pantalla. No utilice el ratón.
Pulse la tecla ESPACIO o toque el botón de abajo para continuar.",2,touchresponseFM.png,0.44,,,,,,,,,,,,,,,,,,,,,,,,,,,,,,,,,,,,,,,,,,,,,,,,
,,,,,,40b45f9a70cc0d1df079c7a4,66a626ef09d4e21e1a8894ec,6734d67a93fe5b564f9395fb,2024-11-13_17h43.35.984,Tarea de género gramatical,2024.2.2,Win32,89.92805755,,,29.783,30.18,space,-0.045555556,-0.435555556,0,0,0,,0,3,3,3,1,4,instructions,"Es muy importante que responda con la mayor rapidez y precisión posibles, ya que cada cadena de letras sólo estará en pantalla durante un instante. Si no responde en ese tiempo, aparecerá el mensaje ""Muy lento"" y el experimento pasará a la siguiente palabra. Los primeros 15 intentos serán de práctica y habrá dos descansos durante la prueba.
Pulse la tecla ESPACIO o toque el botón de abajo para iniciar la parte de práctica.",0,keyboardresponseFM.png,0.348,,,,,,,,,,,,,,,,,,,,,,,,,,,,,,,,,,,,,,,,,,,,,,,,
,,,,,,40b45f9a70cc0d1df079c7a4,66a626ef09d4e21e1a8894ec,6734d67a93fe5b564f9395fb,2024-11-13_17h43.35.984,Tarea de género gramatical,2024.2.2,Win32,89.92805755,,,,,,,,,,,,,,,,,,,,,,,,30.215,31.769,l,1,0.88,,[],[],[],[],[],[],[],0.88,1,31.77,32.264,0,0,0,11,1,2012,MAS,DIS,150,clima,la,l,,,,,,,,,,,,,,,,,,
,,,,,,40b45f9a70cc0d1df079c7a4,66a626ef09d4e21e1a8894ec,6734d67a93fe5b564f9395fb,2024-11-13_17h43.35.984,Tarea de género gramatical,2024.2.2,Win32,89.92805755,,,,,,,,,,,,,,,,,,,,,,,,32.27,34.053,l,1,1.112,,[],[],[],[],[],[],[],1.112,1,34.054,34.557,0,1,1,10,1,2011,MAS,CON,150,canal,,l,,,,,,,,,,,,,,,,,,
,,,,,,40b45f9a70cc0d1df079c7a4,66a626ef09d4e21e1a8894ec,6734d67a93fe5b564f9395fb,2024-11-13_17h43.35.984,Tarea de género gramatical,2024.2.2,Win32,89.92805755,,,,,,,,,,,,,,,,,,,,,,,,34.56,35.68,a,1,0.458,,[],[],[],[],[],[],[],0.458,1,35.681,36.18,0,2,2,4,1,2005,FEM,CON,150,placa,,a,,,,,,,,,,,,,,,,,,
,,,,,,40b45f9a70cc0d1df079c7a4,66a626ef09d4e21e1a8894ec,6734d67a93fe5b564f9395fb,2024-11-13_17h43.35.984,Tarea de género gramatical,2024.2.2,Win32,89.92805755,,,,,,,,,,,,,,,,,,,,,,,,36.186,37.246,a,1,0.393,,[],[],[],[],[],[],[],0.393,1,37.248,37.746,0,3,3,1,1,2002,FEM,CON,150,pala,,a,,,,,,,,,,,,,,,,,,
,,,,,,40b45f9a70cc0d1df079c7a4,66a626ef09d4e21e1a8894ec,6734d67a93fe5b564f9395fb,2024-11-13_17h43.35.984,Tarea de género gramatical,2024.2.2,Win32,89.92805755,,,,,,,,,,,,,,,,,,,,,,,,37.75,38.767,a,1,0.347,,[],[],[],[],[],[],[],0.347,1,38.767,39.26,0,4,4,0,1,2001,FEM,AGR,150,nuca,la,a,,,,,,,,,,,,,,,,,,
,,,,,,40b45f9a70cc0d1df079c7a4,66a626ef09d4e21e1a8894ec,6734d67a93fe5b564f9395fb,2024-11-13_17h43.35.984,Tarea de género gramatical,2024.2.2,Win32,89.92805755,,,,,,,,,,,,,,,,,,,,,,,,39.263,40.341,l,1,0.419,,[],[],[],[],[],[],[],0.419,1,40.342,40.835,0,5,5,9,1,2010,MAS,AGR,150,vecino,el,l,,,,,,,,,,,,,,,,,,
,,,,,,40b45f9a70cc0d1df079c7a4,66a626ef09d4e21e1a8894ec,6734d67a93fe5b564f9395fb,2024-11-13_17h43.35.984,Tarea de género gramatical,2024.2.2,Win32,89.92805755,,,,,,,,,,,,,,,,,,,,,,,,40.838,42.165,a,1,0.666,,[],[],[],[],[],[],[],0.666,1,42.166,42.667,0,6,6,7,1,2008,FEM,CON,150,siesta,,a,,,,,,,,,,,,,,,,,,
,,,,,,40b45f9a70cc0d1df079c7a4,66a626ef09d4e21e1a8894ec,6734d67a93fe5b564f9395fb,2024-11-13_17h43.35.984,Tarea de género gramatical,2024.2.2,Win32,89.92805755,,,,,,,,,,,,,,,,,,,,,,,,42.67,43.926,l,1,0.593,,[],[],[],[],[],[],[],0.593,1,43.926,44.425,0,7,7,12,1,2013,MAS,AGR,150,acero,el,l,,,,,,,,,,,,,,,,,,
,,,,,,40b45f9a70cc0d1df079c7a4,66a626ef09d4e21e1a8894ec,6734d67a93fe5b564f9395fb,2024-11-13_17h43.35.984,Tarea de género gramatical,2024.2.2,Win32,89.92805755,,,,,,,,,,,,,,,,,,,,,,,,44.428,45.731,l,1,0.643,,[],[],[],[],[],[],[],0.643,1,45.732,46.231,0,8,8,13,1,2014,MAS,CON,150,siglo,,l,,,,,,,,,,,,,,,,,,
,,,,,,40b45f9a70cc0d1df079c7a4,66a626ef09d4e21e1a8894ec,6734d67a93fe5b564f9395fb,2024-11-13_17h43.35.984,Tarea de género gramatical,2024.2.2,Win32,89.92805755,,,,,,,,,,,,,,,,,,,,,,,,46.233,47.457,l,1,0.558,,[],[],[],[],[],[],[],0.558,1,47.458,47.954,0,9,9,8,1,2009,MAS,DIS,150,puerto,la,l,,,,,,,,,,,,,,,,,,
,,,,,,40b45f9a70cc0d1df079c7a4,66a626ef09d4e21e1a8894ec,6734d67a93fe5b564f9395fb,2024-11-13_17h43.35.984,Tarea de género gramatical,2024.2.2,Win32,89.92805755,,,,,,,,,,,,,,,,,,,,,,,,47.956,49.145,a,1,0.522,,[],[],[],[],[],[],[],0.522,1,49.145,49.637,0,10,10,3,1,2004,FEM,AGR,150,venta,la,a,,,,,,,,,,,,,,,,,,
,,,,,,40b45f9a70cc0d1df079c7a4,66a626ef09d4e21e1a8894ec,6734d67a93fe5b564f9395fb,2024-11-13_17h43.35.984,Tarea de género gramatical,2024.2.2,Win32,89.92805755,,,,,,,,,,,,,,,,,,,,,,,,49.64,51.168,a,1,0.868,,[],[],[],[],[],[],[],0.868,1,51.169,51.662,0,11,11,5,1,2006,FEM,DIS,150,serie,el,a,,,,,,,,,,,,,,,,,,
,,,,,,40b45f9a70cc0d1df079c7a4,66a626ef09d4e21e1a8894ec,6734d67a93fe5b564f9395fb,2024-11-13_17h43.35.984,Tarea de género gramatical,2024.2.2,Win32,89.92805755,,,,,,,,,,,,,,,,,,,,,,,,51.665,52.659,a,1,0.328,,[],[],[],[],[],[],[],0.328,1,52.659,53.156,0,12,12,2,1,2003,FEM,DIS,150,daga,el,a,,,,,,,,,,,,,,,,,,
,,,,,,40b45f9a70cc0d1df079c7a4,66a626ef09d4e21e1a8894ec,6734d67a93fe5b564f9395fb,2024-11-13_17h43.35.984,Tarea de género gramatical,2024.2.2,Win32,89.92805755,,,,,,,,,,,,,,,,,,,,,,,,53.158,54.145,l,1,0.311,,[],[],[],[],[],[],[],0.311,1,54.146,54.646,0,13,13,14,1,2015,MAS,DIS,150,robot,la,l,,,,,,,,,,,,,,,,,,
,,,,,,40b45f9a70cc0d1df079c7a4,66a626ef09d4e21e1a8894ec,6734d67a93fe5b564f9395fb,2024-11-13_17h43.35.984,Tarea de género gramatical,2024.2.2,Win32,89.92805755,,,,,,,,,,,,,,,,,,,,,,,,54.65,56.445,a,1,1.141,,[],[],[],[],[],[],[],1.141,1,56.446,56.943,0,14,14,6,1,2007,FEM,AGR,150,navaja,la,a,,,,,,,,,,,,,,,,,,
,,,,,,40b45f9a70cc0d1df079c7a4,66a626ef09d4e21e1a8894ec,6734d67a93fe5b564f9395fb,2024-11-13_17h43.35.984,Tarea de género gramatical,2024.2.2,Win32,89.92805755,,,65.027,65.539,space,0.295555556,-0.3,0,0,0,,,,,,,,,,,,0.464,,65.611,66.983,a,0,0.705,,[],[],[],[],[],[],[],0.705,0,66.987,67.482,,,,,,168,MAS,DIS,150,sitio,la,l,67.483,67.499,0.295555556,-0.3,0,0,0,,0,0,0,167,1,,,,,
,,,,,,40b45f9a70cc0d1df079c7a4,66a626ef09d4e21e1a8894ec,6734d67a93fe5b564f9395fb,2024-11-13_17h43.35.984,Tarea de género gramatical,2024.2.2,Win32,89.92805755,,,,,,,,,,,,,,,,,,,,,,,,67.504,68.813,l,1,0.633,,[],[],[],[],[],[],[],0.633,1,68.816,69.314,,,,,,102,MAS,DIS,150,coro,la,l,69.314,69.314,0.295555556,-0.3,0,0,0,,0,1,1,101,1,,,,,
,,,,,,40b45f9a70cc0d1df079c7a4,66a626ef09d4e21e1a8894ec,6734d67a93fe5b564f9395fb,2024-11-13_17h43.35.984,Tarea de género gramatical,2024.2.2,Win32,89.92805755,,,,,,,,,,,,,,,,,,,,,,,,69.318,70.413,l,1,0.434,,[],[],[],[],[],[],[],0.434,1,70.413,70.912,,,,,,358,MAS,AGR,150,motivo,el,l,70.916,70.918,0.295555556,-0.3,0,0,0,,0,2,2,357,1,,,,,
,,,,,,40b45f9a70cc0d1df079c7a4,66a626ef09d4e21e1a8894ec,6734d67a93fe5b564f9395fb,2024-11-13_17h43.35.984,Tarea de género gramatical,2024.2.2,Win32,89.92805755,,,,,,,,,,,,,,,,,,,,,,,,70.919,72.005,a,1,0.417,,[],[],[],[],[],[],[],0.417,1,72.006,72.504,,,,,,295,FEM,AGR,150,grasa,la,a,72.504,72.504,0.295555556,-0.3,0,0,0,,0,3,3,294,1,,,,,
,,,,,,40b45f9a70cc0d1df079c7a4,66a626ef09d4e21e1a8894ec,6734d67a93fe5b564f9395fb,2024-11-13_17h43.35.984,Tarea de género gramatical,2024.2.2,Win32,89.92805755,,,,,,,,,,,,,,,,,,,,,,,,72.506,73.489,a,1,0.312,,[],[],[],[],[],[],[],0.312,1,73.489,73.975,,,,,,260,FEM,CON,150,barra,,a,73.975,73.976,0.295555556,-0.3,0,0,0,,0,4,4,259,1,,,,,
,,,,,,40b45f9a70cc0d1df079c7a4,66a626ef09d4e21e1a8894ec,6734d67a93fe5b564f9395fb,2024-11-13_17h43.35.984,Tarea de género gramatical,2024.2.2,Win32,89.92805755,,,,,,,,,,,,,,,,,,,,,,,,73.978,75.022,a,1,0.379,,[],[],[],[],[],[],[],0.379,1,75.023,75.52,,,,,,104,FEM,CON,150,vela,,a,75.52,75.52,0.295555556,-0.3,0,0,0,,0,5,5,103,1,,,,,
,,,,,,40b45f9a70cc0d1df079c7a4,66a626ef09d4e21e1a8894ec,6734d67a93fe5b564f9395fb,2024-11-13_17h43.35.984,Tarea de género gramatical,2024.2.2,Win32,89.92805755,,,,,,,,,,,,,,,,,,,,,,,,75.523,76.524,l,1,0.336,,[],[],[],[],[],[],[],0.336,1,76.524,77.023,,,,,,184,MAS,AGR,150,cielo,el,l,77.026,77.029,0.295555556,-0.3,0,0,0,,0,6,6,183,1,,,,,
,,,,,,40b45f9a70cc0d1df079c7a4,66a626ef09d4e21e1a8894ec,6734d67a93fe5b564f9395fb,2024-11-13_17h43.35.984,Tarea de género gramatical,2024.2.2,Win32,89.92805755,,,,,,,,,,,,,,,,,,,,,,,,77.03,78.12,l,1,0.421,,[],[],[],[],[],[],[],0.421,1,78.121,78.62,,,,,,59,MAS,CON,150,lobo,,l,78.62,78.62,0.295555556,-0.3,0,0,0,,0,7,7,58,1,,,,,
,,,,,,40b45f9a70cc0d1df079c7a4,66a626ef09d4e21e1a8894ec,6734d67a93fe5b564f9395fb,2024-11-13_17h43.35.984,Tarea de género gramatical,2024.2.2,Win32,89.92805755,,,,,,,,,,,,,,,,,,,,,,,,78.622,79.668,a,0,0.38,,[],[],[],[],[],[],[],0.38,0,79.671,80.164,,,,,,210,MAS,DIS,150,baile,la,l,80.164,80.164,0.295555556,-0.3,0,0,0,,0,8,8,209,1,,,,,
,,,,,,40b45f9a70cc0d1df079c7a4,66a626ef09d4e21e1a8894ec,6734d67a93fe5b564f9395fb,2024-11-13_17h43.35.984,Tarea de género gramatical,2024.2.2,Win32,89.92805755,,,,,,,,,,,,,,,,,,,,,,,,80.168,81.601,l,0,0.767,,[],[],[],[],[],[],[],0.767,0,81.602,82.102,,,,,,189,FEM,DIS,150,pista,el,a,82.102,82.102,0.295555556,-0.3,0,0,0,,0,9,9,188,1,,,,,
,,,,,,40b45f9a70cc0d1df079c7a4,66a626ef09d4e21e1a8894ec,6734d67a93fe5b564f9395fb,2024-11-13_17h43.35.984,Tarea de género gramatical,2024.2.2,Win32,89.92805755,,,,,,,,,,,,,,,,,,,,,,,,82.105,83.557,l,1,0.79,,[],[],[],[],[],[],[],0.79,1,83.559,84.057,,,,,,424,MAS,AGR,150,rastro,el,l,84.057,84.057,0.295555556,-0.3,0,0,0,,0,10,10,423,1,,,,,
,,,,,,40b45f9a70cc0d1df079c7a4,66a626ef09d4e21e1a8894ec,6734d67a93fe5b564f9395fb,2024-11-13_17h43.35.984,Tarea de género gramatical,2024.2.2,Win32,89.92805755,,,,,,,,,,,,,,,,,,,,,,,,84.06,85.12,a,1,0.401,,[],[],[],[],[],[],[],0.401,1,85.12,85.62,,,,,,315,FEM,DIS,150,manera,el,a,85.624,85.627,0.295555556,-0.3,0,0,0,,0,11,11,314,1,,,,,
,,,,,,40b45f9a70cc0d1df079c7a4,66a626ef09d4e21e1a8894ec,6734d67a93fe5b564f9395fb,2024-11-13_17h43.35.984,Tarea de género gramatical,2024.2.2,Win32,89.92805755,,,,,,,,,,,,,,,,,,,,,,,,85.627,86.733,l,1,0.435,,[],[],[],[],[],[],[],0.435,1,86.735,87.235,,,,,,328,MAS,AGR,150,asunto,el,l,87.236,87.236,0.295555556,-0.3,0,0,0,,0,12,12,327,1,,,,,
,,,,,,40b45f9a70cc0d1df079c7a4,66a626ef09d4e21e1a8894ec,6734d67a93fe5b564f9395fb,2024-11-13_17h43.35.984,Tarea de género gramatical,2024.2.2,Win32,89.92805755,,,,,,,,,,,,,,,,,,,,,,,,87.238,88.264,l,1,0.365,,[],[],[],[],[],[],[],0.365,1,88.264,88.757,,,,,,347,MAS,CON,150,cuello,,l,88.757,88.757,0.295555556,-0.3,0,0,0,,0,13,13,346,1,,,,,
,,,,,,40b45f9a70cc0d1df079c7a4,66a626ef09d4e21e1a8894ec,6734d67a93fe5b564f9395fb,2024-11-13_17h43.35.984,Tarea de género gramatical,2024.2.2,Win32,89.92805755,,,,,,,,,,,,,,,,,,,,,,,,88.761,89.791,l,1,0.359,,[],[],[],[],[],[],[],0.359,1,89.791,90.285,,,,,,316,MAS,AGR,150,cuerpo,el,l,90.285,90.285,0.295555556,-0.3,0,0,0,,0,14,14,315,1,,,,,
,,,,,,40b45f9a70cc0d1df079c7a4,66a626ef09d4e21e1a8894ec,6734d67a93fe5b564f9395fb,2024-11-13_17h43.35.984,Tarea de género gramatical,2024.2.2,Win32,89.92805755,,,,,,,,,,,,,,,,,,,,,,,,90.287,91.385,a,1,0.43,,[],[],[],[],[],[],[],0.43,1,91.386,91.886,,,,,,327,FEM,DIS,150,tienda,el,a,91.888,91.89,0.295555556,-0.3,0,0,0,,0,15,15,326,1,,,,,
,,,,,,40b45f9a70cc0d1df079c7a4,66a626ef09d4e21e1a8894ec,6734d67a93fe5b564f9395fb,2024-11-13_17h43.35.984,Tarea de género gramatical,2024.2.2,Win32,89.92805755,,,,,,,,,,,,,,,,,,,,,,,,91.893,93.027,a,1,0.471,,[],[],[],[],[],[],[],0.471,1,93.027,93.524,,,,,,379,FEM,AGR,150,granja,la,a,93.524,93.524,0.295555556,-0.3,0,0,0,,0,16,16,378,1,,,,,
,,,,,,40b45f9a70cc0d1df079c7a4,66a626ef09d4e21e1a8894ec,6734d67a93fe5b564f9395fb,2024-11-13_17h43.35.984,Tarea de género gramatical,2024.2.2,Win32,89.92805755,,,,,,,,,,,,,,,,,,,,,,,,93.527,94.558,a,0,0.369,,[],[],[],[],[],[],[],0.369,0,94.56,95.057,,,,,,10,MAS,AGR,150,niño,el,l,95.057,95.057,0.295555556,-0.3,0,0,0,,0,17,17,9,1,,,,,
,,,,,,40b45f9a70cc0d1df079c7a4,66a626ef09d4e21e1a8894ec,6734d67a93fe5b564f9395fb,2024-11-13_17h43.35.984,Tarea de género gramatical,2024.2.2,Win32,89.92805755,,,,,,,,,,,,,,,,,,,,,,,,95.06,96.279,l,1,0.555,,[],[],[],[],[],[],[],0.555,1,96.282,96.777,,,,,,119,MAS,CON,150,mito,,l,96.777,96.777,0.295555556,-0.3,0,0,0,,0,18,18,118,1,,,,,
,,,,,,40b45f9a70cc0d1df079c7a4,66a626ef09d4e21e1a8894ec,6734d67a93fe5b564f9395fb,2024-11-13_17h43.35.984,Tarea de género gramatical,2024.2.2,Win32,89.92805755,,,,,,,,,,,,,,,,,,,,,,,,96.779,97.846,a,1,0.406,,[],[],[],[],[],[],[],0.406,1,97.846,98.346,,,,,,243,FEM,DIS,150,salsa,el,a,98.346,98.346,0.295555556,-0.3,0,0,0,,0,19,19,242,1,,,,,
,,,,,,40b45f9a70cc0d1df079c7a4,66a626ef09d4e21e1a8894ec,6734d67a93fe5b564f9395fb,2024-11-13_17h43.35.984,Tarea de género gramatical,2024.2.2,Win32,89.92805755,,,,,,,,,,,,,,,,,,,,,,,,98.348,99.414,a,1,0.402,,[],[],[],[],[],[],[],0.402,1,99.416,99.911,,,,,,434,FEM,CON,150,corona,,a,99.918,99.923,0.295555556,-0.3,0,0,0,,0,20,20,433,1,,,,,
,,,,,,40b45f9a70cc0d1df079c7a4,66a626ef09d4e21e1a8894ec,6734d67a93fe5b564f9395fb,2024-11-13_17h43.35.984,Tarea de género gramatical,2024.2.2,Win32,89.92805755,,,,,,,,,,,,,,,,,,,,,,,,99.927,101.158,a,1,0.559,,[],[],[],[],[],[],[],0.559,1,101.158,101.654,,,,,,105,FEM,DIS,150,jefa,el,a,101.654,101.655,0.295555556,-0.3,0,0,0,,0,21,21,104,1,,,,,
,,,,,,40b45f9a70cc0d1df079c7a4,66a626ef09d4e21e1a8894ec,6734d67a93fe5b564f9395fb,2024-11-13_17h43.35.984,Tarea de género gramatical,2024.2.2,Win32,89.92805755,,,,,,,,,,,,,,,,,,,,,,,,101.658,102.761,l,1,0.435,,[],[],[],[],[],[],[],0.435,1,102.761,103.254,,,,,,125,MAS,CON,150,bate,,l,103.254,103.254,0.295555556,-0.3,0,0,0,,0,22,22,124,1,,,,,
,,,,,,40b45f9a70cc0d1df079c7a4,66a626ef09d4e21e1a8894ec,6734d67a93fe5b564f9395fb,2024-11-13_17h43.35.984,Tarea de género gramatical,2024.2.2,Win32,89.92805755,,,,,,,,,,,,,,,,,,,,,,,,103.26,104.52,l,1,0.597,,[],[],[],[],[],[],[],0.597,1,104.521,105.019,,,,,,150,MAS,DIS,150,mozo,la,l,105.019,105.02,0.295555556,-0.3,0,0,0,,0,23,23,149,1,,,,,
,,,,,,40b45f9a70cc0d1df079c7a4,66a626ef09d4e21e1a8894ec,6734d67a93fe5b564f9395fb,2024-11-13_17h43.35.984,Tarea de género gramatical,2024.2.2,Win32,89.92805755,,,,,,,,,,,,,,,,,,,,,,,,105.023,106.148,l,1,0.46,,[],[],[],[],[],[],[],0.46,1,106.148,106.645,,,,,,100,MAS,AGR,150,nido,el,l,106.649,106.651,0.295555556,-0.3,0,0,0,,0,24,24,99,1,,,,,
,,,,,,40b45f9a70cc0d1df079c7a4,66a626ef09d4e21e1a8894ec,6734d67a93fe5b564f9395fb,2024-11-13_17h43.35.984,Tarea de género gramatical,2024.2.2,Win32,89.92805755,,,,,,,,,,,,,,,,,,,,,,,,106.653,107.787,a,1,0.461,,[],[],[],[],[],[],[],0.461,1,107.788,108.289,,,,,,56,FEM,CON,150,bola,,a,108.29,108.29,0.295555556,-0.3,0,0,0,,0,25,25,55,1,,,,,
,,,,,,40b45f9a70cc0d1df079c7a4,66a626ef09d4e21e1a8894ec,6734d67a93fe5b564f9395fb,2024-11-13_17h43.35.984,Tarea de género gramatical,2024.2.2,Win32,89.92805755,,,,,,,,,,,,,,,,,,,,,,,,108.291,109.365,l,1,0.412,,[],[],[],[],[],[],[],0.412,1,109.367,109.868,,,,,,408,MAS,DIS,150,cheque,la,l,109.868,109.869,0.295555556,-0.3,0,0,0,,0,26,26,407,1,,,,,
,,,,,,40b45f9a70cc0d1df079c7a4,66a626ef09d4e21e1a8894ec,6734d67a93fe5b564f9395fb,2024-11-13_17h43.35.984,Tarea de género gramatical,2024.2.2,Win32,89.92805755,,,,,,,,,,,,,,,,,,,,,,,,109.871,110.826,l,1,0.295,,[],[],[],[],[],[],[],0.295,1,110.826,111.324,,,,,,329,MAS,CON,150,futuro,,l,111.324,111.325,0.295555556,-0.3,0,0,0,,0,27,27,328,1,,,,,
,,,,,,40b45f9a70cc0d1df079c7a4,66a626ef09d4e21e1a8894ec,6734d67a93fe5b564f9395fb,2024-11-13_17h43.35.984,Tarea de género gramatical,2024.2.2,Win32,89.92805755,,,,,,,,,,,,,,,,,,,,,,,,111.327,112.434,l,0,0.441,,[],[],[],[],[],[],[],0.441,0,112.436,112.926,,,,,,133,FEM,AGR,150,joya,la,a,112.926,112.926,0.295555556,-0.3,0,0,0,,0,28,28,132,1,,,,,
,,,,,,40b45f9a70cc0d1df079c7a4,66a626ef09d4e21e1a8894ec,6734d67a93fe5b564f9395fb,2024-11-13_17h43.35.984,Tarea de género gramatical,2024.2.2,Win32,89.92805755,,,,,,,,,,,,,,,,,,,,,,,,112.928,113.945,a,1,0.355,,[],[],[],[],[],[],[],0.355,1,113.949,114.438,,,,,,307,FEM,AGR,150,suerte,la,a,114.441,114.442,0.295555556,-0.3,0,0,0,,0,29,29,306,1,,,,,
,,,,,,40b45f9a70cc0d1df079c7a4,66a626ef09d4e21e1a8894ec,6734d67a93fe5b564f9395fb,2024-11-13_17h43.35.984,Tarea de género gramatical,2024.2.2,Win32,89.92805755,,,,,,,,,,,,,,,,,,,,,,,,114.445,115.524,l,1,0.415,,[],[],[],[],[],[],[],0.415,1,115.525,116.024,,,,,,449,MAS,CON,150,payaso,,l,116.024,116.024,0.295555556,-0.3,0,0,0,,0,30,30,448,1,,,,,
,,,,,,40b45f9a70cc0d1df079c7a4,66a626ef09d4e21e1a8894ec,6734d67a93fe5b564f9395fb,2024-11-13_17h43.35.984,Tarea de género gramatical,2024.2.2,Win32,89.92805755,,,,,,,,,,,,,,,,,,,,,,,,116.027,117.297,l,1,0.611,,[],[],[],[],[],[],[],0.611,1,117.298,117.791,,,,,,78,MAS,DIS,150,oído,la,l,117.791,117.791,0.295555556,-0.3,0,0,0,,0,31,31,77,1,,,,,
,,,,,,40b45f9a70cc0d1df079c7a4,66a626ef09d4e21e1a8894ec,6734d67a93fe5b564f9395fb,2024-11-13_17h43.35.984,Tarea de género gramatical,2024.2.2,Win32,89.92805755,,,,,,,,,,,,,,,,,,,,,,,,117.793,118.835,l,1,0.381,,[],[],[],[],[],[],[],0.381,1,118.836,119.335,,,,,,293,MAS,CON,150,patio,,l,119.335,119.335,0.295555556,-0.3,0,0,0,,0,32,32,292,1,,,,,
,,,,,,40b45f9a70cc0d1df079c7a4,66a626ef09d4e21e1a8894ec,6734d67a93fe5b564f9395fb,2024-11-13_17h43.35.984,Tarea de género gramatical,2024.2.2,Win32,89.92805755,,,,,,,,,,,,,,,,,,,,,,,,119.337,120.291,a,1,0.285,,[],[],[],[],[],[],[],0.285,1,120.291,120.791,,,,,,249,FEM,DIS,150,crema,el,a,120.793,120.796,0.295555556,-0.3,0,0,0,,0,33,33,248,1,,,,,
,,,,,,40b45f9a70cc0d1df079c7a4,66a626ef09d4e21e1a8894ec,6734d67a93fe5b564f9395fb,2024-11-13_17h43.35.984,Tarea de género gramatical,2024.2.2,Win32,89.92805755,,,,,,,,,,,,,,,,,,,,,,,,120.796,121.776,a,1,0.309,,[],[],[],[],[],[],[],0.309,1,121.777,122.278,,,,,,122,FEM,CON,150,loca,,a,122.278,122.278,0.295555556,-0.3,0,0,0,,0,34,34,121,1,,,,,
,,,,,,40b45f9a70cc0d1df079c7a4,66a626ef09d4e21e1a8894ec,6734d67a93fe5b564f9395fb,2024-11-13_17h43.35.984,Tarea de género gramatical,2024.2.2,Win32,89.92805755,,,,,,,,,,,,,,,,,,,,,,,,122.281,123.331,a,1,0.382,,[],[],[],[],[],[],[],0.382,1,123.331,123.831,,,,,,21,FEM,DIS,150,boca,el,a,123.832,123.832,0.295555556,-0.3,0,0,0,,0,35,35,20,1,,,,,
,,,,,,40b45f9a70cc0d1df079c7a4,66a626ef09d4e21e1a8894ec,6734d67a93fe5b564f9395fb,2024-11-13_17h43.35.984,Tarea de género gramatical,2024.2.2,Win32,89.92805755,,,,,,,,,,,,,,,,,,,,,,,,123.834,124.797,a,1,0.298,,[],[],[],[],[],[],[],0.298,1,124.797,125.289,,,,,,421,FEM,AGR,150,novela,la,a,125.289,125.289,0.295555556,-0.3,0,0,0,,0,36,36,420,1,,,,,
,,,,,,40b45f9a70cc0d1df079c7a4,66a626ef09d4e21e1a8894ec,6734d67a93fe5b564f9395fb,2024-11-13_17h43.35.984,Tarea de género gramatical,2024.2.2,Win32,89.92805755,,,,,,,,,,,,,,,,,,,,,,,,125.292,126.258,l,1,0.301,,[],[],[],[],[],[],[],0.301,1,126.26,126.754,,,,,,179,MAS,CON,150,viaje,,l,126.754,126.754,0.295555556,-0.3,0,0,0,,0,37,37,178,1,,,,,
,,,,,,40b45f9a70cc0d1df079c7a4,66a626ef09d4e21e1a8894ec,6734d67a93fe5b564f9395fb,2024-11-13_17h43.35.984,Tarea de género gramatical,2024.2.2,Win32,89.92805755,,,,,,,,,,,,,,,,,,,,,,,,126.756,127.79,a,1,0.361,,[],[],[],[],[],[],[],0.361,1,127.79,128.291,,,,,,123,FEM,DIS,150,tela,el,a,128.294,128.296,0.295555556,-0.3,0,0,0,,0,38,38,122,1,,,,,
,,,,,,40b45f9a70cc0d1df079c7a4,66a626ef09d4e21e1a8894ec,6734d67a93fe5b564f9395fb,2024-11-13_17h43.35.984,Tarea de género gramatical,2024.2.2,Win32,89.92805755,,,,,,,,,,,,,,,,,,,,,,,,128.297,129.324,a,1,0.357,,[],[],[],[],[],[],[],0.357,1,129.324,129.813,,,,,,91,FEM,AGR,150,hoja,la,a,129.813,129.813,0.295555556,-0.3,0,0,0,,0,39,39,90,1,,,,,
,,,,,,40b45f9a70cc0d1df079c7a4,66a626ef09d4e21e1a8894ec,6734d67a93fe5b564f9395fb,2024-11-13_17h43.35.984,Tarea de género gramatical,2024.2.2,Win32,89.92805755,,,,,,,,,,,,,,,,,,,,,,,,129.815,130.867,a,1,0.386,,[],[],[],[],[],[],[],0.386,1,130.871,131.365,,,,,,2,FEM,CON,150,vida,,a,131.366,131.368,0.295555556,-0.3,0,0,0,,0,40,40,1,1,,,,,
,,,,,,40b45f9a70cc0d1df079c7a4,66a626ef09d4e21e1a8894ec,6734d67a93fe5b564f9395fb,2024-11-13_17h43.35.984,Tarea de género gramatical,2024.2.2,Win32,89.92805755,,,,,,,,,,,,,,,,,,,,,,,,131.375,132.49,l,1,0.46,,[],[],[],[],[],[],[],0.46,1,132.49,132.987,,,,,,244,MAS,AGR,150,hielo,el,l,132.987,132.988,0.295555556,-0.3,0,0,0,,0,41,41,243,1,,,,,
,,,,,,40b45f9a70cc0d1df079c7a4,66a626ef09d4e21e1a8894ec,6734d67a93fe5b564f9395fb,2024-11-13_17h43.35.984,Tarea de género gramatical,2024.2.2,Win32,89.92805755,,,,,,,,,,,,,,,,,,,,,,,,132.991,134.227,l,1,0.573,,[],[],[],[],[],[],[],0.573,1,134.227,134.724,,,,,,82,MAS,AGR,150,tubo,el,l,134.726,134.728,0.295555556,-0.3,0,0,0,,0,42,42,81,1,,,,,
,,,,,,40b45f9a70cc0d1df079c7a4,66a626ef09d4e21e1a8894ec,6734d67a93fe5b564f9395fb,2024-11-13_17h43.35.984,Tarea de género gramatical,2024.2.2,Win32,89.92805755,,,,,,,,,,,,,,,,,,,,,,,,134.732,135.868,l,1,0.472,,[],[],[],[],[],[],[],0.472,1,135.869,136.368,,,,,,340,MAS,AGR,150,pasado,el,l,136.368,136.368,0.295555556,-0.3,0,0,0,,0,43,43,339,1,,,,,
,,,,,,40b45f9a70cc0d1df079c7a4,66a626ef09d4e21e1a8894ec,6734d67a93fe5b564f9395fb,2024-11-13_17h43.35.984,Tarea de género gramatical,2024.2.2,Win32,89.92805755,,,,,,,,,,,,,,,,,,,,,,,,136.371,137.352,a,1,0.312,,[],[],[],[],[],[],[],0.312,1,137.353,137.846,,,,,,212,FEM,CON,150,cinta,,a,137.846,137.846,0.295555556,-0.3,0,0,0,,0,44,44,211,1,,,,,
,,,,,,40b45f9a70cc0d1df079c7a4,66a626ef09d4e21e1a8894ec,6734d67a93fe5b564f9395fb,2024-11-13_17h43.35.984,Tarea de género gramatical,2024.2.2,Win32,89.92805755,,,,,,,,,,,,,,,,,,,,,,,,137.848,138.865,a,1,0.356,,[],[],[],[],[],[],[],0.356,1,138.865,139.358,,,,,,218,FEM,CON,150,nieve,,a,139.358,139.358,0.295555556,-0.3,0,0,0,,0,45,45,217,1,,,,,
,,,,,,40b45f9a70cc0d1df079c7a4,66a626ef09d4e21e1a8894ec,6734d67a93fe5b564f9395fb,2024-11-13_17h43.35.984,Tarea de género gramatical,2024.2.2,Win32,89.92805755,,,,,,,,,,,,,,,,,,,,,,,,139.36,140.379,a,1,0.356,,[],[],[],[],[],[],[],0.356,1,140.381,140.878,,,,,,43,FEM,AGR,150,nena,la,a,140.878,140.879,0.295555556,-0.3,0,0,0,,0,46,46,42,1,,,,,
,,,,,,40b45f9a70cc0d1df079c7a4,66a626ef09d4e21e1a8894ec,6734d67a93fe5b564f9395fb,2024-11-13_17h43.35.984,Tarea de género gramatical,2024.2.2,Win32,89.92805755,,,,,,,,,,,,,,,,,,,,,,,,140.881,141.909,a,1,0.358,,[],[],[],[],[],[],[],0.358,1,141.909,142.409,,,,,,332,FEM,CON,150,basura,,a,142.412,142.415,0.295555556,-0.3,0,0,0,,0,47,47,331,1,,,,,
,,,,,,40b45f9a70cc0d1df079c7a4,66a626ef09d4e21e1a8894ec,6734d67a93fe5b564f9395fb,2024-11-13_17h43.35.984,Tarea de género gramatical,2024.2.2,Win32,89.92805755,,,,,,,,,,,,,,,,,,,,,,,,142.417,143.432,l,1,0.354,,[],[],[],[],[],[],[],0.354,1,143.432,143.935,,,,,,354,MAS,DIS,150,camión,la,l,143.935,143.935,0.295555556,-0.3,0,0,0,,0,48,48,353,1,,,,,
,,,,,,40b45f9a70cc0d1df079c7a4,66a626ef09d4e21e1a8894ec,6734d67a93fe5b564f9395fb,2024-11-13_17h43.35.984,Tarea de género gramatical,2024.2.2,Win32,89.92805755,,,,,,,,,,,,,,,,,,,,,,,,143.937,144.904,l,1,0.292,,[],[],[],[],[],[],[],0.292,1,144.904,145.401,,,,,,251,MAS,CON,150,dueño,,l,145.401,145.401,0.295555556,-0.3,0,0,0,,0,49,49,250,1,,,,,
,,,,,,40b45f9a70cc0d1df079c7a4,66a626ef09d4e21e1a8894ec,6734d67a93fe5b564f9395fb,2024-11-13_17h43.35.984,Tarea de género gramatical,2024.2.2,Win32,89.92805755,,,,,,,,,,,,,,,,,,,,,,,,145.404,146.29,l,1,0.217,,[],[],[],[],[],[],[],0.217,1,146.29,146.791,,,,,,281,MAS,CON,150,actor,,l,146.792,146.792,0.295555556,-0.3,0,0,0,,0,50,50,280,1,,,,,
,,,,,,40b45f9a70cc0d1df079c7a4,66a626ef09d4e21e1a8894ec,6734d67a93fe5b564f9395fb,2024-11-13_17h43.35.984,Tarea de género gramatical,2024.2.2,Win32,89.92805755,,,,,,,,,,,,,,,,,,,,,,,,146.793,147.749,l,1,0.298,,[],[],[],[],[],[],[],0.298,1,147.75,148.248,,,,,,311,MAS,CON,150,camino,,l,148.249,148.25,0.295555556,-0.3,0,0,0,,0,51,51,310,1,,,,,
,,,,,,40b45f9a70cc0d1df079c7a4,66a626ef09d4e21e1a8894ec,6734d67a93fe5b564f9395fb,2024-11-13_17h43.35.984,Tarea de género gramatical,2024.2.2,Win32,89.92805755,,,,,,,,,,,,,,,,,,,,,,,,148.252,149.3,l,1,0.382,,[],[],[],[],[],[],[],0.382,1,149.3,149.8,,,,,,390,MAS,DIS,150,rostro,la,l,149.8,149.8,0.295555556,-0.3,0,0,0,,0,52,52,389,1,,,,,
,,,,,,40b45f9a70cc0d1df079c7a4,66a626ef09d4e21e1a8894ec,6734d67a93fe5b564f9395fb,2024-11-13_17h43.35.984,Tarea de género gramatical,2024.2.2,Win32,89.92805755,,,,,,,,,,,,,,,,,,,,,,,,149.803,150.869,a,1,0.402,,[],[],[],[],[],[],[],0.402,1,150.869,151.367,,,,,,403,FEM,AGR,150,paliza,la,a,151.367,151.367,0.295555556,-0.3,0,0,0,,0,53,53,402,1,,,,,
,,,,,,40b45f9a70cc0d1df079c7a4,66a626ef09d4e21e1a8894ec,6734d67a93fe5b564f9395fb,2024-11-13_17h43.35.984,Tarea de género gramatical,2024.2.2,Win32,89.92805755,,,,,,,,,,,,,,,,,,,,,,,,151.37,152.309,l,1,0.269,,[],[],[],[],[],[],[],0.269,1,152.309,152.809,,,,,,402,MAS,DIS,150,ladrón,la,l,152.809,152.809,0.295555556,-0.3,0,0,0,,0,54,54,401,1,,,,,
,,,,,,40b45f9a70cc0d1df079c7a4,66a626ef09d4e21e1a8894ec,6734d67a93fe5b564f9395fb,2024-11-13_17h43.35.984,Tarea de género gramatical,2024.2.2,Win32,89.92805755,,,,,,,,,,,,,,,,,,,,,,,,152.812,153.836,a,1,0.361,,[],[],[],[],[],[],[],0.361,1,153.837,154.335,,,,,,271,FEM,AGR,150,viuda,la,a,154.335,154.335,0.295555556,-0.3,0,0,0,,0,55,55,270,1,,,,,
,,,,,,40b45f9a70cc0d1df079c7a4,66a626ef09d4e21e1a8894ec,6734d67a93fe5b564f9395fb,2024-11-13_17h43.35.984,Tarea de género gramatical,2024.2.2,Win32,89.92805755,,,,,,,,,,,,,,,,,,,,,,,,154.337,155.29,l,1,0.281,,[],[],[],[],[],[],[],0.281,1,155.29,155.791,,,,,,149,MAS,CON,150,nudo,,l,155.792,155.794,0.295555556,-0.3,0,0,0,,0,56,56,148,1,,,,,
,,,,,,40b45f9a70cc0d1df079c7a4,66a626ef09d4e21e1a8894ec,6734d67a93fe5b564f9395fb,2024-11-13_17h43.35.984,Tarea de género gramatical,2024.2.2,Win32,89.92805755,,,,,,,,,,,,,,,,,,,,,,,,155.795,156.985,l,1,0.53,,[],[],[],[],[],[],[],0.53,1,156.986,157.479,,,,,,366,MAS,DIS,150,riesgo,la,l,157.479,157.479,0.295555556,-0.3,0,0,0,,0,57,57,365,1,,,,,
,,,,,,40b45f9a70cc0d1df079c7a4,66a626ef09d4e21e1a8894ec,6734d67a93fe5b564f9395fb,2024-11-13_17h43.35.984,Tarea de género gramatical,2024.2.2,Win32,89.92805755,,,,,,,,,,,,,,,,,,,,,,,,157.485,158.446,a,0,0.302,,[],[],[],[],[],[],[],0.302,0,158.449,158.946,,,,,,52,MAS,AGR,150,lago,el,l,158.946,158.946,0.295555556,-0.3,0,0,0,,0,58,58,51,1,,,,,
,,,,,,40b45f9a70cc0d1df079c7a4,66a626ef09d4e21e1a8894ec,6734d67a93fe5b564f9395fb,2024-11-13_17h43.35.984,Tarea de género gramatical,2024.2.2,Win32,89.92805755,,,,,,,,,,,,,,,,,,,,,,,,158.948,160.003,l,0,0.394,,[],[],[],[],[],[],[],0.394,0,160.004,160.506,,,,,,81,FEM,DIS,150,cima,el,a,160.506,160.506,0.295555556,-0.3,0,0,0,,0,59,59,80,1,,,,,
,,,,,,40b45f9a70cc0d1df079c7a4,66a626ef09d4e21e1a8894ec,6734d67a93fe5b564f9395fb,2024-11-13_17h43.35.984,Tarea de género gramatical,2024.2.2,Win32,89.92805755,,,,,,,,,,,,,,,,,,,,,,,,160.507,161.878,l,1,0.702,,[],[],[],[],[],[],[],0.702,1,161.88,162.381,,,,,,72,MAS,DIS,150,hoyo,la,l,162.385,162.39,0.295555556,-0.3,0,0,0,,0,60,60,71,1,,,,,
,,,,,,40b45f9a70cc0d1df079c7a4,66a626ef09d4e21e1a8894ec,6734d67a93fe5b564f9395fb,2024-11-13_17h43.35.984,Tarea de género gramatical,2024.2.2,Win32,89.92805755,,,,,,,,,,,,,,,,,,,,,,,,162.394,164.047,l,1,0.99,,[],[],[],[],[],[],[],0.99,1,164.049,164.545,,,,,,192,MAS,DIS,150,grupo,la,l,164.545,164.545,0.295555556,-0.3,0,0,0,,0,61,61,191,1,,,,,
,,,,,,40b45f9a70cc0d1df079c7a4,66a626ef09d4e21e1a8894ec,6734d67a93fe5b564f9395fb,2024-11-13_17h43.35.984,Tarea de género gramatical,2024.2.2,Win32,89.92805755,,,,,,,,,,,,,,,,,,,,,,,,164.549,165.787,l,0,0.579,,[],[],[],[],[],[],[],0.579,0,165.791,166.292,,,,,,439,FEM,AGR,150,toalla,la,a,166.292,166.293,0.295555556,-0.3,0,0,0,,0,62,62,438,1,,,,,
,,,,,,40b45f9a70cc0d1df079c7a4,66a626ef09d4e21e1a8894ec,6734d67a93fe5b564f9395fb,2024-11-13_17h43.35.984,Tarea de género gramatical,2024.2.2,Win32,89.92805755,,,,,,,,,,,,,,,,,,,,,,,,166.294,167.409,a,1,0.444,,[],[],[],[],[],[],[],0.444,1,167.413,167.902,,,,,,355,FEM,AGR,150,mirada,la,a,167.902,167.902,0.295555556,-0.3,0,0,0,,0,63,63,354,1,,,,,
,,,,,,40b45f9a70cc0d1df079c7a4,66a626ef09d4e21e1a8894ec,6734d67a93fe5b564f9395fb,2024-11-13_17h43.35.984,Tarea de género gramatical,2024.2.2,Win32,89.92805755,,,,,,,,,,,,,,,,,,,,,,,,167.904,169.093,l,1,0.525,,[],[],[],[],[],[],[],0.525,1,169.093,169.59,,,,,,365,MAS,CON,150,código,,l,169.59,169.591,0.295555556,-0.3,0,0,0,,0,64,64,364,1,,,,,
,,,,,,40b45f9a70cc0d1df079c7a4,66a626ef09d4e21e1a8894ec,6734d67a93fe5b564f9395fb,2024-11-13_17h43.35.984,Tarea de género gramatical,2024.2.2,Win32,89.92805755,,,,,,,,,,,,,,,,,,,,,,,,169.592,170.614,a,1,0.354,,[],[],[],[],[],[],[],0.354,1,170.614,171.115,,,,,,111,FEM,DIS,150,goma,el,a,171.117,171.119,0.295555556,-0.3,0,0,0,,0,65,65,110,1,,,,,
,,,,,,40b45f9a70cc0d1df079c7a4,66a626ef09d4e21e1a8894ec,6734d67a93fe5b564f9395fb,2024-11-13_17h43.35.984,Tarea de género gramatical,2024.2.2,Win32,89.92805755,,,,,,,,,,,,,,,,,,,,,,,,171.123,172.18,a,1,0.396,,[],[],[],[],[],[],[],0.396,1,172.181,172.679,,,,,,121,FEM,AGR,150,pila,la,a,172.679,172.68,0.295555556,-0.3,0,0,0,,0,66,66,120,1,,,,,
,,,,,,40b45f9a70cc0d1df079c7a4,66a626ef09d4e21e1a8894ec,6734d67a93fe5b564f9395fb,2024-11-13_17h43.35.984,Tarea de género gramatical,2024.2.2,Win32,89.92805755,,,,,,,,,,,,,,,,,,,,,,,,172.683,173.747,a,1,0.392,,[],[],[],[],[],[],[],0.392,1,173.747,174.249,,,,,,194,FEM,CON,150,banda,,a,174.25,174.25,0.295555556,-0.3,0,0,0,,0,67,67,193,1,,,,,
,,,,,,40b45f9a70cc0d1df079c7a4,66a626ef09d4e21e1a8894ec,6734d67a93fe5b564f9395fb,2024-11-13_17h43.35.984,Tarea de género gramatical,2024.2.2,Win32,89.92805755,,,,,,,,,,,,,,,,,,,,,,,,174.252,175.176,l,0,0.265,,[],[],[],[],[],[],[],0.265,0,175.178,175.67,,,,,,404,FEM,CON,150,gloria,,a,175.67,175.67,0.295555556,-0.3,0,0,0,,0,68,68,403,1,,,,,
,,,,,,40b45f9a70cc0d1df079c7a4,66a626ef09d4e21e1a8894ec,6734d67a93fe5b564f9395fb,2024-11-13_17h43.35.984,Tarea de género gramatical,2024.2.2,Win32,89.92805755,,,,,,,,,,,,,,,,,,,,,,,,175.675,176.842,l,1,0.509,,[],[],[],[],[],[],[],0.509,1,176.846,177.342,,,,,,395,MAS,CON,150,correo,,l,177.345,177.349,0.295555556,-0.3,0,0,0,,0,69,69,394,1,,,,,
,,,,,,40b45f9a70cc0d1df079c7a4,66a626ef09d4e21e1a8894ec,6734d67a93fe5b564f9395fb,2024-11-13_17h43.35.984,Tarea de género gramatical,2024.2.2,Win32,89.92805755,,,,,,,,,,,,,,,,,,,,,,,,177.351,178.486,l,1,0.478,,[],[],[],[],[],[],[],0.478,1,178.486,178.989,,,,,,360,MAS,DIS,150,puente,la,l,178.99,178.99,0.295555556,-0.3,0,0,0,,0,70,70,359,1,,,,,
,,,,,,40b45f9a70cc0d1df079c7a4,66a626ef09d4e21e1a8894ec,6734d67a93fe5b564f9395fb,2024-11-13_17h43.35.984,Tarea de género gramatical,2024.2.2,Win32,89.92805755,,,,,,,,,,,,,,,,,,,,,,,,178.992,180.183,l,1,0.528,,[],[],[],[],[],[],[],0.528,1,180.183,180.676,,,,,,342,MAS,DIS,150,abuelo,la,l,180.676,180.676,0.295555556,-0.3,0,0,0,,0,71,71,341,1,,,,,
,,,,,,40b45f9a70cc0d1df079c7a4,66a626ef09d4e21e1a8894ec,6734d67a93fe5b564f9395fb,2024-11-13_17h43.35.984,Tarea de género gramatical,2024.2.2,Win32,89.92805755,,,,,,,,,,,,,,,,,,,,,,,,180.678,181.711,a,1,0.367,,[],[],[],[],[],[],[],0.367,1,181.712,182.201,,,,,,193,FEM,AGR,150,bolsa,la,a,182.201,182.201,0.295555556,-0.3,0,0,0,,0,72,72,192,1,,,,,
,,,,,,40b45f9a70cc0d1df079c7a4,66a626ef09d4e21e1a8894ec,6734d67a93fe5b564f9395fb,2024-11-13_17h43.35.984,Tarea de género gramatical,2024.2.2,Win32,89.92805755,,,,,,,,,,,,,,,,,,,,,,,,182.203,183.215,l,0,0.35,,[],[],[],[],[],[],[],0.35,0,183.217,183.714,,,,,,393,FEM,DIS,150,alarma,el,a,183.714,183.715,0.295555556,-0.3,0,0,0,,0,73,73,392,1,,,,,
,,,,,,40b45f9a70cc0d1df079c7a4,66a626ef09d4e21e1a8894ec,6734d67a93fe5b564f9395fb,2024-11-13_17h43.35.984,Tarea de género gramatical,2024.2.2,Win32,89.92805755,,,,,,,,,,,,,,,,,,,,,,,,183.716,184.925,l,1,0.546,,[],[],[],[],[],[],[],0.546,1,184.926,185.418,,,,,,142,MAS,AGR,150,lodo,el,l,185.42,185.422,0.295555556,-0.3,0,0,0,,0,74,74,141,1,,,,,
,,,,,,40b45f9a70cc0d1df079c7a4,66a626ef09d4e21e1a8894ec,6734d67a93fe5b564f9395fb,2024-11-13_17h43.35.984,Tarea de género gramatical,2024.2.2,Win32,89.92805755,,,,,,,,,,,,,,,,,,,,,,,,185.426,186.468,l,1,0.378,,[],[],[],[],[],[],[],0.378,1,186.47,186.969,,,,,,47,MAS,CON,150,olor,,l,186.969,186.969,0.295555556,-0.3,0,0,0,,0,75,75,46,1,,,,,
,,,,,,40b45f9a70cc0d1df079c7a4,66a626ef09d4e21e1a8894ec,6734d67a93fe5b564f9395fb,2024-11-13_17h43.35.984,Tarea de género gramatical,2024.2.2,Win32,89.92805755,,,,,,,,,,,,,,,,,,,,,,,,186.972,188.205,a,1,0.572,,[],[],[],[],[],[],[],0.572,1,188.205,188.701,,,,,,445,FEM,AGR,150,bondad,la,a,188.701,188.701,0.295555556,-0.3,0,0,0,,0,76,76,444,1,,,,,
,,,,,,40b45f9a70cc0d1df079c7a4,66a626ef09d4e21e1a8894ec,6734d67a93fe5b564f9395fb,2024-11-13_17h43.35.984,Tarea de género gramatical,2024.2.2,Win32,89.92805755,,,,,,,,,,,,,,,,,,,,,,,,188.703,189.724,a,1,0.357,,[],[],[],[],[],[],[],0.357,1,189.726,190.224,,,,,,343,FEM,AGR,150,trampa,la,a,190.224,190.224,0.295555556,-0.3,0,0,0,,0,77,77,342,1,,,,,
,,,,,,40b45f9a70cc0d1df079c7a4,66a626ef09d4e21e1a8894ec,6734d67a93fe5b564f9395fb,2024-11-13_17h43.35.984,Tarea de género gramatical,2024.2.2,Win32,89.92805755,,,,,,,,,,,,,,,,,,,,,,,,190.226,191.213,a,1,0.324,,[],[],[],[],[],[],[],0.324,1,191.213,191.714,,,,,,92,FEM,CON,150,masa,,a,191.716,191.718,0.295555556,-0.3,0,0,0,,0,78,78,91,1,,,,,
,,,,,,40b45f9a70cc0d1df079c7a4,66a626ef09d4e21e1a8894ec,6734d67a93fe5b564f9395fb,2024-11-13_17h43.35.984,Tarea de género gramatical,2024.2.2,Win32,89.92805755,,,,,,,,,,,,,,,,,,,,,,,,191.719,192.724,a,1,0.34,,[],[],[],[],[],[],[],0.34,1,192.724,193.213,,,,,,433,FEM,AGR,150,huella,la,a,193.213,193.213,0.295555556,-0.3,0,0,0,,0,79,79,432,1,,,,,
,,,,,,40b45f9a70cc0d1df079c7a4,66a626ef09d4e21e1a8894ec,6734d67a93fe5b564f9395fb,2024-11-13_17h43.35.984,Tarea de género gramatical,2024.2.2,Win32,89.92805755,,,,,,,,,,,,,,,,,,,,,,,,193.215,194.183,l,1,0.304,,[],[],[],[],[],[],[],0.304,1,194.185,194.684,,,,,,336,MAS,DIS,150,crimen,la,l,194.684,194.685,0.295555556,-0.3,0,0,0,,0,80,80,335,1,,,,,
,,,,,,40b45f9a70cc0d1df079c7a4,66a626ef09d4e21e1a8894ec,6734d67a93fe5b564f9395fb,2024-11-13_17h43.35.984,Tarea de género gramatical,2024.2.2,Win32,89.92805755,,,,,,,,,,,,,,,,,,,,,,,,194.694,195.72,l,1,0.364,,[],[],[],[],[],[],[],0.364,1,195.721,196.214,,,,,,83,MAS,CON,150,nene,,l,196.214,196.215,0.295555556,-0.3,0,0,0,,0,81,81,82,1,,,,,
,,,,,,40b45f9a70cc0d1df079c7a4,66a626ef09d4e21e1a8894ec,6734d67a93fe5b564f9395fb,2024-11-13_17h43.35.984,Tarea de género gramatical,2024.2.2,Win32,89.92805755,,,,,,,,,,,,,,,,,,,,,,,,196.218,197.134,a,0,0.246,,[],[],[],[],[],[],[],0.246,0,197.136,197.635,,,,,,71,MAS,CON,150,pozo,,l,197.636,197.636,0.295555556,-0.3,0,0,0,,0,82,82,70,1,,,,,
,,,,,,40b45f9a70cc0d1df079c7a4,66a626ef09d4e21e1a8894ec,6734d67a93fe5b564f9395fb,2024-11-13_17h43.35.984,Tarea de género gramatical,2024.2.2,Win32,89.92805755,,,,,,,,,,,,,,,,,,,,,,,,197.638,198.625,l,1,0.317,,[],[],[],[],[],[],[],0.317,1,198.628,199.12,,,,,,335,MAS,CON,150,montón,,l,199.124,199.129,0.295555556,-0.3,0,0,0,,0,83,83,334,1,,,,,
,,,,,,40b45f9a70cc0d1df079c7a4,66a626ef09d4e21e1a8894ec,6734d67a93fe5b564f9395fb,2024-11-13_17h43.35.984,Tarea de género gramatical,2024.2.2,Win32,89.92805755,,,,,,,,,,,,,,,,,,,,,,,,199.131,200.204,a,1,0.399,,[],[],[],[],[],[],[],0.399,1,200.206,200.701,,,,,,129,FEM,DIS,150,rana,el,a,200.702,200.702,0.295555556,-0.3,0,0,0,,0,84,84,128,1,,,,,
,,,,,,40b45f9a70cc0d1df079c7a4,66a626ef09d4e21e1a8894ec,6734d67a93fe5b564f9395fb,2024-11-13_17h43.35.984,Tarea de género gramatical,2024.2.2,Win32,89.92805755,,,,,,,,,,,,,,,,,,,,,,,,200.705,201.816,l,1,0.442,,[],[],[],[],[],[],[],0.442,1,201.816,202.309,,,,,,138,MAS,DIS,150,luto,la,l,202.309,202.309,0.295555556,-0.3,0,0,0,,0,85,85,137,1,,,,,
,,,,,,40b45f9a70cc0d1df079c7a4,66a626ef09d4e21e1a8894ec,6734d67a93fe5b564f9395fb,2024-11-13_17h43.35.984,Tarea de género gramatical,2024.2.2,Win32,89.92805755,,,,,,,,,,,,,,,,,,,,,,,,202.312,203.418,l,1,0.443,,[],[],[],[],[],[],[],0.443,1,203.419,203.912,,,,,,406,MAS,AGR,150,premio,el,l,203.912,203.912,0.295555556,-0.3,0,0,0,,0,86,86,405,1,,,,,
,,,,,,40b45f9a70cc0d1df079c7a4,66a626ef09d4e21e1a8894ec,6734d67a93fe5b564f9395fb,2024-11-13_17h43.35.984,Tarea de género gramatical,2024.2.2,Win32,89.92805755,,,,,,,,,,,,,,,,,,,,,,,,203.914,205.023,a,1,0.446,,[],[],[],[],[],[],[],0.446,1,205.024,205.527,,,,,,201,FEM,DIS,150,leche,el,a,205.53,205.535,0.295555556,-0.3,0,0,0,,0,87,87,200,1,,,,,
,,,,,,40b45f9a70cc0d1df079c7a4,66a626ef09d4e21e1a8894ec,6734d67a93fe5b564f9395fb,2024-11-13_17h43.35.984,Tarea de género gramatical,2024.2.2,Win32,89.92805755,,,,,,,,,,,,,,,,,,,,,,,,205.537,206.557,a,1,0.355,,[],[],[],[],[],[],[],0.355,1,206.557,207.06,,,,,,380,FEM,CON,150,madera,,a,207.06,207.06,0.295555556,-0.3,0,0,0,,0,88,88,379,1,,,,,
,,,,,,40b45f9a70cc0d1df079c7a4,66a626ef09d4e21e1a8894ec,6734d67a93fe5b564f9395fb,2024-11-13_17h43.35.984,Tarea de género gramatical,2024.2.2,Win32,89.92805755,,,,,,,,,,,,,,,,,,,,,,,,207.061,208.169,a,1,0.439,,[],[],[],[],[],[],[],0.439,1,208.171,208.665,,,,,,140,FEM,CON,150,mula,,a,208.665,208.666,0.295555556,-0.3,0,0,0,,0,89,89,139,1,,,,,
,,,,,,40b45f9a70cc0d1df079c7a4,66a626ef09d4e21e1a8894ec,6734d67a93fe5b564f9395fb,2024-11-13_17h43.35.984,Tarea de género gramatical,2024.2.2,Win32,89.92805755,,,,,,,,,,,,,,,,,,,,,,,,208.669,209.755,a,1,0.423,,[],[],[],[],[],[],[],0.423,1,209.755,210.258,,,,,,99,FEM,DIS,150,fase,el,a,210.258,210.258,0.295555556,-0.3,0,0,0,,0,90,90,98,1,,,,,
,,,,,,40b45f9a70cc0d1df079c7a4,66a626ef09d4e21e1a8894ec,6734d67a93fe5b564f9395fb,2024-11-13_17h43.35.984,Tarea de género gramatical,2024.2.2,Win32,89.92805755,,,,,,,,,,,,,,,,,,,,,,,,210.261,211.247,l,1,0.318,,[],[],[],[],[],[],[],0.318,1,211.248,211.746,,,,,,383,MAS,CON,150,parque,,l,211.746,211.746,0.295555556,-0.3,0,0,0,,0,91,91,382,1,,,,,
,,,,,,40b45f9a70cc0d1df079c7a4,66a626ef09d4e21e1a8894ec,6734d67a93fe5b564f9395fb,2024-11-13_17h43.35.984,Tarea de género gramatical,2024.2.2,Win32,89.92805755,,,,,,,,,,,,,,,,,,,,,,,,211.748,212.793,a,1,0.383,,[],[],[],[],[],[],[],0.383,1,212.794,213.292,,,,,,345,FEM,DIS,150,pierna,el,a,213.294,213.295,0.295555556,-0.3,0,0,0,,0,92,92,344,1,,,,,
,,,,,,40b45f9a70cc0d1df079c7a4,66a626ef09d4e21e1a8894ec,6734d67a93fe5b564f9395fb,2024-11-13_17h43.35.984,Tarea de género gramatical,2024.2.2,Win32,89.92805755,,,,,,,,,,,,,,,,,,,,,,,,213.296,214.265,l,1,0.301,,[],[],[],[],[],[],[],0.301,1,214.265,214.764,,,,,,144,MAS,DIS,150,amor,la,l,214.764,214.765,0.295555556,-0.3,0,0,0,,0,93,93,143,1,,,,,
,,,,,,40b45f9a70cc0d1df079c7a4,66a626ef09d4e21e1a8894ec,6734d67a93fe5b564f9395fb,2024-11-13_17h43.35.984,Tarea de género gramatical,2024.2.2,Win32,89.92805755,,,,,,,,,,,,,,,,,,,,,,,,214.767,215.791,l,1,0.359,,[],[],[],[],[],[],[],0.359,1,215.791,216.29,,,,,,437,MAS,CON,150,hombro,,l,216.29,216.291,0.295555556,-0.3,0,0,0,,0,94,94,436,1,,,,,
,,,,,,40b45f9a70cc0d1df079c7a4,66a626ef09d4e21e1a8894ec,6734d67a93fe5b564f9395fb,2024-11-13_17h43.35.984,Tarea de género gramatical,2024.2.2,Win32,89.92805755,,,,,,,,,,,,,,,,,,,,,,,,216.292,217.365,l,0,0.409,,[],[],[],[],[],[],[],0.409,0,217.368,217.864,,,,,,381,FEM,DIS,150,bebida,el,a,217.864,217.865,0.295555556,-0.3,0,0,0,,0,95,95,380,1,,,,,
,,,,,,40b45f9a70cc0d1df079c7a4,66a626ef09d4e21e1a8894ec,6734d67a93fe5b564f9395fb,2024-11-13_17h43.35.984,Tarea de género gramatical,2024.2.2,Win32,89.92805755,,,,,,,,,,,,,,,,,,,,,,,,217.87,218.956,a,1,0.423,,[],[],[],[],[],[],[],0.423,1,218.957,219.457,,,,,,225,FEM,DIS,150,pieza,el,a,219.459,219.461,0.295555556,-0.3,0,0,0,,0,96,96,224,1,,,,,
,,,,,,40b45f9a70cc0d1df079c7a4,66a626ef09d4e21e1a8894ec,6734d67a93fe5b564f9395fb,2024-11-13_17h43.35.984,Tarea de género gramatical,2024.2.2,Win32,89.92805755,,,,,,,,,,,,,,,,,,,,,,,,219.463,220.57,l,1,0.439,,[],[],[],[],[],[],[],0.439,1,220.57,221.066,,,,,,114,MAS,DIS,150,menú,la,l,221.066,221.066,0.295555556,-0.3,0,0,0,,0,97,97,113,1,,,,,
,,,,,,40b45f9a70cc0d1df079c7a4,66a626ef09d4e21e1a8894ec,6734d67a93fe5b564f9395fb,2024-11-13_17h43.35.984,Tarea de género gramatical,2024.2.2,Win32,89.92805755,,,,,,,,,,,,,,,,,,,,,,,,221.069,222.245,l,1,0.507,,[],[],[],[],[],[],[],0.507,1,222.246,222.746,,,,,,389,MAS,CON,150,tamaño,,l,222.746,222.746,0.295555556,-0.3,0,0,0,,0,98,98,388,1,,,,,
,,,,,,40b45f9a70cc0d1df079c7a4,66a626ef09d4e21e1a8894ec,6734d67a93fe5b564f9395fb,2024-11-13_17h43.35.984,Tarea de género gramatical,2024.2.2,Win32,89.92805755,,,,,,,,,,,,,,,,,,,,,,,,222.749,223.725,a,1,0.305,,[],[],[],[],[],[],[],0.305,1,223.725,224.226,,,,,,422,FEM,CON,150,rutina,,a,224.226,224.226,0.295555556,-0.3,0,0,0,,0,99,99,421,1,,,,,
,,,,,,40b45f9a70cc0d1df079c7a4,66a626ef09d4e21e1a8894ec,6734d67a93fe5b564f9395fb,2024-11-13_17h43.35.984,Tarea de género gramatical,2024.2.2,Win32,89.92805755,,,,,,,,,,,,,,,,,,,,,,,,224.228,225.18,l,1,0.29,,[],[],[],[],[],[],[],0.29,1,225.18,225.678,,,,,,324,MAS,DIS,150,cuarto,la,l,225.678,225.679,0.295555556,-0.3,0,0,0,,0,100,100,323,1,,,,,
,,,,,,40b45f9a70cc0d1df079c7a4,66a626ef09d4e21e1a8894ec,6734d67a93fe5b564f9395fb,2024-11-13_17h43.35.984,Tarea de género gramatical,2024.2.2,Win32,89.92805755,,,,,,,,,,,,,,,,,,,,,,,,225.68,226.715,a,1,0.363,,[],[],[],[],[],[],[],0.363,1,226.717,227.214,,,,,,391,FEM,AGR,150,altura,la,a,227.218,227.224,0.295555556,-0.3,0,0,0,,0,101,101,390,1,,,,,
,,,,,,40b45f9a70cc0d1df079c7a4,66a626ef09d4e21e1a8894ec,6734d67a93fe5b564f9395fb,2024-11-13_17h43.35.984,Tarea de género gramatical,2024.2.2,Win32,89.92805755,,,,,,,,,,,,,,,,,,,,,,,,227.229,228.227,l,1,0.33,,[],[],[],[],[],[],[],0.33,1,228.227,228.725,,,,,,130,MAS,AGR,150,yate,el,l,228.725,228.725,0.295555556,-0.3,0,0,0,,0,102,102,129,1,,,,,
,,,,,,40b45f9a70cc0d1df079c7a4,66a626ef09d4e21e1a8894ec,6734d67a93fe5b564f9395fb,2024-11-13_17h43.35.984,Tarea de género gramatical,2024.2.2,Win32,89.92805755,,,,,,,,,,,,,,,,,,,,,,,,228.728,229.859,l,1,0.469,,[],[],[],[],[],[],[],0.469,1,229.86,230.359,,,,,,227,MAS,CON,150,vuelo,,l,230.359,230.361,0.295555556,-0.3,0,0,0,,0,103,103,226,1,,,,,
,,,,,,40b45f9a70cc0d1df079c7a4,66a626ef09d4e21e1a8894ec,6734d67a93fe5b564f9395fb,2024-11-13_17h43.35.984,Tarea de género gramatical,2024.2.2,Win32,89.92805755,,,,,,,,,,,,,,,,,,,,,,,,230.362,231.525,l,1,0.484,,[],[],[],[],[],[],[],0.484,1,231.526,232.024,,,,,,382,MAS,AGR,150,teatro,el,l,232.024,232.025,0.295555556,-0.3,0,0,0,,0,104,104,381,1,,,,,
,,,,,,40b45f9a70cc0d1df079c7a4,66a626ef09d4e21e1a8894ec,6734d67a93fe5b564f9395fb,2024-11-13_17h43.35.984,Tarea de género gramatical,2024.2.2,Win32,89.92805755,,,,,,,,,,,,,,,,,,,,,,,,232.027,232.965,a,1,0.277,,[],[],[],[],[],[],[],0.277,1,232.965,233.457,,,,,,320,FEM,CON,150,fiesta,,a,233.462,233.465,0.295555556,-0.3,0,0,0,,0,105,105,319,1,,,,,
,,,,,,40b45f9a70cc0d1df079c7a4,66a626ef09d4e21e1a8894ec,6734d67a93fe5b564f9395fb,2024-11-13_17h43.35.984,Tarea de género gramatical,2024.2.2,Win32,89.92805755,,,,,,,,,,,,,,,,,,,,,,,,233.467,234.454,l,1,0.323,,[],[],[],[],[],[],[],0.323,1,234.454,234.954,,,,,,77,MAS,CON,150,pico,,l,234.954,234.954,0.295555556,-0.3,0,0,0,,0,106,106,76,1,,,,,
,,,,,,40b45f9a70cc0d1df079c7a4,66a626ef09d4e21e1a8894ec,6734d67a93fe5b564f9395fb,2024-11-13_17h43.35.984,Tarea de género gramatical,2024.2.2,Win32,89.92805755,,,,,,,,,,,,,,,,,,,,,,,,234.957,235.842,l,1,0.224,,[],[],[],[],[],[],[],0.224,1,235.844,236.336,,,,,,401,MAS,CON,150,abrigo,,l,236.336,236.336,0.295555556,-0.3,0,0,0,,0,107,107,400,1,,,,,
,,,,,,40b45f9a70cc0d1df079c7a4,66a626ef09d4e21e1a8894ec,6734d67a93fe5b564f9395fb,2024-11-13_17h43.35.984,Tarea de género gramatical,2024.2.2,Win32,89.92805755,,,,,,,,,,,,,,,,,,,,,,,,236.338,237.477,a,1,0.48,,[],[],[],[],[],[],[],0.48,1,237.477,237.98,,,,,,145,FEM,AGR,150,bota,la,a,237.98,237.98,0.295555556,-0.3,0,0,0,,0,108,108,144,1,,,,,
,,,,,,40b45f9a70cc0d1df079c7a4,66a626ef09d4e21e1a8894ec,6734d67a93fe5b564f9395fb,2024-11-13_17h43.35.984,Tarea de género gramatical,2024.2.2,Win32,89.92805755,,,,,,,,,,,,,,,,,,,,,,,,237.982,239.003,l,0,0.347,,[],[],[],[],[],[],[],0.347,0,239.005,239.495,,,,,,349,FEM,AGR,150,prensa,la,a,239.495,239.496,0.295555556,-0.3,0,0,0,,0,109,109,348,1,,,,,
,,,,,,40b45f9a70cc0d1df079c7a4,66a626ef09d4e21e1a8894ec,6734d67a93fe5b564f9395fb,2024-11-13_17h43.35.984,Tarea de género gramatical,2024.2.2,Win32,89.92805755,,,,,,,,,,,,,,,,,,,,,,,,239.497,240.567,l,1,0.409,,[],[],[],[],[],[],[],0.409,1,240.569,241.073,,,,,,420,MAS,DIS,150,helado,la,l,241.075,241.077,0.295555556,-0.3,0,0,0,,0,110,110,419,1,,,,,
,,,,,,40b45f9a70cc0d1df079c7a4,66a626ef09d4e21e1a8894ec,6734d67a93fe5b564f9395fb,2024-11-13_17h43.35.984,Tarea de género gramatical,2024.2.2,Win32,89.92805755,,,,,,,,,,,,,,,,,,,,,,,,241.081,242.147,a,1,0.403,,[],[],[],[],[],[],[],0.403,1,242.147,242.646,,,,,,321,FEM,DIS,150,comida,el,a,242.646,242.647,0.295555556,-0.3,0,0,0,,0,111,111,320,1,,,,,
,,,,,,40b45f9a70cc0d1df079c7a4,66a626ef09d4e21e1a8894ec,6734d67a93fe5b564f9395fb,2024-11-13_17h43.35.984,Tarea de género gramatical,2024.2.2,Win32,89.92805755,,,,,,,,,,,,,,,,,,,,,,,,242.649,243.645,l,0,0.333,,[],[],[],[],[],[],[],0.333,0,243.646,244.15,,,,,,164,FEM,CON,150,novia,,a,244.15,244.15,0.295555556,-0.3,0,0,0,,0,112,112,163,1,,,,,
,,,,,,40b45f9a70cc0d1df079c7a4,66a626ef09d4e21e1a8894ec,6734d67a93fe5b564f9395fb,2024-11-13_17h43.35.984,Tarea de género gramatical,2024.2.2,Win32,89.92805755,,,,,,,,,,,,,,,,,,,,,,,,244.151,245.175,l,1,0.364,,[],[],[],[],[],[],[],0.364,1,245.177,245.667,,,,,,448,MAS,AGR,150,aceite,el,l,245.667,245.668,0.295555556,-0.3,0,0,0,,0,113,113,447,1,,,,,
,,,,,,40b45f9a70cc0d1df079c7a4,66a626ef09d4e21e1a8894ec,6734d67a93fe5b564f9395fb,2024-11-13_17h43.35.984,Tarea de género gramatical,2024.2.2,Win32,89.92805755,,,,,,,,,,,,,,,,,,,,,,,,245.67,246.616,a,1,0.279,,[],[],[],[],[],[],[],0.279,1,246.616,247.118,,,,,,181,FEM,AGR,150,tarde,la,a,247.12,247.124,0.295555556,-0.3,0,0,0,,0,114,114,180,1,,,,,
,,,,,,40b45f9a70cc0d1df079c7a4,66a626ef09d4e21e1a8894ec,6734d67a93fe5b564f9395fb,2024-11-13_17h43.35.984,Tarea de género gramatical,2024.2.2,Win32,89.92805755,,,,,,,,,,,,,,,,,,,,,,,,247.127,248.127,a,1,0.338,,[],[],[],[],[],[],[],0.338,1,248.127,248.625,,,,,,93,FEM,DIS,150,lata,el,a,248.626,248.626,0.295555556,-0.3,0,0,0,,0,115,115,92,1,,,,,
,,,,,,40b45f9a70cc0d1df079c7a4,66a626ef09d4e21e1a8894ec,6734d67a93fe5b564f9395fb,2024-11-13_17h43.35.984,Tarea de género gramatical,2024.2.2,Win32,89.92805755,,,,,,,,,,,,,,,,,,,,,,,,248.627,249.685,a,1,0.377,,[],[],[],[],[],[],[],0.377,1,249.686,250.179,,,,,,170,FEM,CON,150,carta,,a,250.179,250.179,0.295555556,-0.3,0,0,0,,0,116,116,169,1,,,,,
,,,,,,40b45f9a70cc0d1df079c7a4,66a626ef09d4e21e1a8894ec,6734d67a93fe5b564f9395fb,2024-11-13_17h43.35.984,Tarea de género gramatical,2024.2.2,Win32,89.92805755,,,,,,,,,,,,,,,,,,,,,,,,250.181,251.216,l,1,0.375,,[],[],[],[],[],[],[],0.375,1,251.216,251.713,,,,,,186,MAS,DIS,150,error,la,l,251.713,251.713,0.295555556,-0.3,0,0,0,,0,117,117,185,1,,,,,
,,,,,,40b45f9a70cc0d1df079c7a4,66a626ef09d4e21e1a8894ec,6734d67a93fe5b564f9395fb,2024-11-13_17h43.35.984,Tarea de género gramatical,2024.2.2,Win32,89.92805755,,,,,,,,,,,,,,,,,,,,,,,,251.716,252.787,a,1,0.393,,[],[],[],[],[],[],[],0.393,1,252.787,253.287,,,,,,259,FEM,AGR,150,prima,la,a,253.287,253.287,0.295555556,-0.3,0,0,0,,0,118,118,258,1,,,,,
,,,,,,40b45f9a70cc0d1df079c7a4,66a626ef09d4e21e1a8894ec,6734d67a93fe5b564f9395fb,2024-11-13_17h43.35.984,Tarea de género gramatical,2024.2.2,Win32,89.92805755,,,,,,,,,,,,,,,,,,,,,,,,253.293,254.539,l,1,0.577,,[],[],[],[],[],[],[],0.577,1,254.54,255.024,,,,,,196,MAS,AGR,150,barco,el,l,255.026,255.029,0.295555556,-0.3,0,0,0,,0,119,119,195,1,,,,,
,,,,,,40b45f9a70cc0d1df079c7a4,66a626ef09d4e21e1a8894ec,6734d67a93fe5b564f9395fb,2024-11-13_17h43.35.984,Tarea de género gramatical,2024.2.2,Win32,89.92805755,,,,,,,,,,,,,,,,,,,,,,,,255.03,256.383,a,1,0.694,,[],[],[],[],[],[],[],0.694,1,256.384,256.877,,,,,,223,FEM,AGR,150,plata,la,a,256.877,256.877,0.295555556,-0.3,0,0,0,,0,120,120,222,1,,,,,
,,,,,,40b45f9a70cc0d1df079c7a4,66a626ef09d4e21e1a8894ec,6734d67a93fe5b564f9395fb,2024-11-13_17h43.35.984,Tarea de género gramatical,2024.2.2,Win32,89.92805755,,,,,,,,,,,,,,,,,,,,,,,,256.881,257.88,a,1,0.336,,[],[],[],[],[],[],[],0.336,1,257.88,258.382,,,,,,386,FEM,CON,150,sombra,,a,258.382,258.383,0.295555556,-0.3,0,0,0,,0,121,121,385,1,,,,,
,,,,,,40b45f9a70cc0d1df079c7a4,66a626ef09d4e21e1a8894ec,6734d67a93fe5b564f9395fb,2024-11-13_17h43.35.984,Tarea de género gramatical,2024.2.2,Win32,89.92805755,,,,,,,,,,,,,,,,,,,,,,,,258.392,259.359,a,1,0.293,,[],[],[],[],[],[],[],0.293,1,259.361,259.86,,,,,,9,FEM,DIS,150,mamá,el,a,259.861,259.862,0.295555556,-0.3,0,0,0,,0,122,122,8,1,,,,,
,,,,,,40b45f9a70cc0d1df079c7a4,66a626ef09d4e21e1a8894ec,6734d67a93fe5b564f9395fb,2024-11-13_17h43.35.984,Tarea de género gramatical,2024.2.2,Win32,89.92805755,,,,,,,,,,,,,,,,,,,,,,,,259.868,260.869,l,1,0.338,,[],[],[],[],[],[],[],0.338,1,260.869,261.379,,,,,,143,MAS,CON,150,faro,,l,261.381,261.383,0.295555556,-0.3,0,0,0,,0,123,123,142,1,,,,,
,,,,,,40b45f9a70cc0d1df079c7a4,66a626ef09d4e21e1a8894ec,6734d67a93fe5b564f9395fb,2024-11-13_17h43.35.984,Tarea de género gramatical,2024.2.2,Win32,89.92805755,,,,,,,,,,,,,,,,,,,,,,,,261.386,262.391,a,1,0.346,,[],[],[],[],[],[],[],0.346,1,262.391,262.893,,,,,,284,FEM,CON,150,fruta,,a,262.894,262.895,0.295555556,-0.3,0,0,0,,0,124,124,283,1,,,,,
,,,,,,40b45f9a70cc0d1df079c7a4,66a626ef09d4e21e1a8894ec,6734d67a93fe5b564f9395fb,2024-11-13_17h43.35.984,Tarea de género gramatical,2024.2.2,Win32,89.92805755,,,,,,,,,,,,,,,,,,,,,,,,262.897,263.989,a,1,0.422,,[],[],[],[],[],[],[],0.422,1,263.99,264.483,,,,,,331,FEM,AGR,150,cárcel,la,a,264.483,264.483,0.295555556,-0.3,0,0,0,,0,125,125,330,1,,,,,
,,,,,,40b45f9a70cc0d1df079c7a4,66a626ef09d4e21e1a8894ec,6734d67a93fe5b564f9395fb,2024-11-13_17h43.35.984,Tarea de género gramatical,2024.2.2,Win32,89.92805755,,,,,,,,,,,,,,,,,,,,,,,,264.485,265.471,a,1,0.31,,[],[],[],[],[],[],[],0.31,1,265.471,265.957,,,,,,55,FEM,AGR,150,taza,la,a,265.957,265.957,0.295555556,-0.3,0,0,0,,0,126,126,54,1,,,,,
,,,,,,40b45f9a70cc0d1df079c7a4,66a626ef09d4e21e1a8894ec,6734d67a93fe5b564f9395fb,2024-11-13_17h43.35.984,Tarea de género gramatical,2024.2.2,Win32,89.92805755,,,,,,,,,,,,,,,,,,,,,,,,265.96,266.958,l,0,0.333,,[],[],[],[],[],[],[],0.333,0,266.961,267.457,,,,,,219,FEM,DIS,150,costa,el,a,267.457,267.457,0.295555556,-0.3,0,0,0,,0,127,127,218,1,,,,,
,,,,,,40b45f9a70cc0d1df079c7a4,66a626ef09d4e21e1a8894ec,6734d67a93fe5b564f9395fb,2024-11-13_17h43.35.984,Tarea de género gramatical,2024.2.2,Win32,89.92805755,,,,,,,,,,,,,,,,,,,,,,,,267.46,268.469,a,1,0.347,,[],[],[],[],[],[],[],0.347,1,268.472,268.976,,,,,,253,FEM,AGR,150,aldea,la,a,268.978,268.982,0.295555556,-0.3,0,0,0,,0,128,128,252,1,,,,,
,,,,,,40b45f9a70cc0d1df079c7a4,66a626ef09d4e21e1a8894ec,6734d67a93fe5b564f9395fb,2024-11-13_17h43.35.984,Tarea de género gramatical,2024.2.2,Win32,89.92805755,,,,,,,,,,,,,,,,,,,,,,,,268.983,269.981,a,1,0.337,,[],[],[],[],[],[],[],0.337,1,269.981,270.478,,,,,,375,FEM,DIS,150,cadena,el,a,270.479,270.479,0.295555556,-0.3,0,0,0,,0,129,129,374,1,,,,,
,,,,,,40b45f9a70cc0d1df079c7a4,66a626ef09d4e21e1a8894ec,6734d67a93fe5b564f9395fb,2024-11-13_17h43.35.984,Tarea de género gramatical,2024.2.2,Win32,89.92805755,,,,,,,,,,,,,,,,,,,,,,,,270.481,271.48,a,1,0.331,,[],[],[],[],[],[],[],0.331,1,271.481,271.984,,,,,,200,FEM,CON,150,silla,,a,271.985,271.985,0.295555556,-0.3,0,0,0,,0,130,130,199,1,,,,,
,,,,,,40b45f9a70cc0d1df079c7a4,66a626ef09d4e21e1a8894ec,6734d67a93fe5b564f9395fb,2024-11-13_17h43.35.984,Tarea de género gramatical,2024.2.2,Win32,89.92805755,,,,,,,,,,,,,,,,,,,,,,,,271.988,272.934,a,1,0.277,,[],[],[],[],[],[],[],0.277,1,272.936,273.433,,,,,,13,FEM,AGR,150,hija,la,a,273.433,273.434,0.295555556,-0.3,0,0,0,,0,131,131,12,1,,,,,
,,,,,,40b45f9a70cc0d1df079c7a4,66a626ef09d4e21e1a8894ec,6734d67a93fe5b564f9395fb,2024-11-13_17h43.35.984,Tarea de género gramatical,2024.2.2,Win32,89.92805755,,,,,,,,,,,,,,,,,,,,,,,,273.437,274.347,a,1,0.247,,[],[],[],[],[],[],[],0.247,1,274.347,274.835,,,,,,410,FEM,CON,150,piedad,,a,274.837,274.839,0.295555556,-0.3,0,0,0,,0,132,132,409,1,,,,,
,,,,,,40b45f9a70cc0d1df079c7a4,66a626ef09d4e21e1a8894ec,6734d67a93fe5b564f9395fb,2024-11-13_17h43.35.984,Tarea de género gramatical,2024.2.2,Win32,89.92805755,,,,,,,,,,,,,,,,,,,,,,,,274.84,275.868,l,1,0.366,,[],[],[],[],[],[],[],0.366,1,275.868,276.364,,,,,,11,MAS,CON,150,país,,l,276.364,276.365,0.295555556,-0.3,0,0,0,,0,133,133,10,1,,,,,
,,,,,,40b45f9a70cc0d1df079c7a4,66a626ef09d4e21e1a8894ec,6734d67a93fe5b564f9395fb,2024-11-13_17h43.35.984,Tarea de género gramatical,2024.2.2,Win32,89.92805755,,,,,,,,,,,,,,,,,,,,,,,,276.368,277.352,a,1,0.322,,[],[],[],[],[],[],[],0.322,1,277.352,277.854,,,,,,195,FEM,DIS,150,pared,el,a,277.854,277.854,0.295555556,-0.3,0,0,0,,0,134,134,194,1,,,,,
,,,,,,40b45f9a70cc0d1df079c7a4,66a626ef09d4e21e1a8894ec,6734d67a93fe5b564f9395fb,2024-11-13_17h43.35.984,Tarea de género gramatical,2024.2.2,Win32,89.92805755,,,,,,,,,,,,,,,,,,,,,,,,277.857,278.825,a,1,0.301,,[],[],[],[],[],[],[],0.301,1,278.826,279.312,,,,,,8,FEM,CON,150,idea,,a,279.313,279.313,0.295555556,-0.3,0,0,0,,0,135,135,7,1,,,,,
,,,,,,40b45f9a70cc0d1df079c7a4,66a626ef09d4e21e1a8894ec,6734d67a93fe5b564f9395fb,2024-11-13_17h43.35.984,Tarea de género gramatical,2024.2.2,Win32,89.92805755,,,,,,,,,,,,,,,,,,,,,,,,279.315,280.279,a,1,0.302,,[],[],[],[],[],[],[],0.302,1,280.28,280.776,,,,,,325,FEM,AGR,150,tierra,la,a,280.777,280.777,0.295555556,-0.3,0,0,0,,0,136,136,324,1,,,,,
,,,,,,40b45f9a70cc0d1df079c7a4,66a626ef09d4e21e1a8894ec,6734d67a93fe5b564f9395fb,2024-11-13_17h43.35.984,Tarea de género gramatical,2024.2.2,Win32,89.92805755,,,,,,,,,,,,,,,,,,,,,,,,280.781,281.704,a,1,0.26,,[],[],[],[],[],[],[],0.26,1,281.705,282.202,,,,,,207,FEM,DIS,150,playa,el,a,282.203,282.206,0.295555556,-0.3,0,0,0,,0,137,137,206,1,,,,,
,,,,,,40b45f9a70cc0d1df079c7a4,66a626ef09d4e21e1a8894ec,6734d67a93fe5b564f9395fb,2024-11-13_17h43.35.984,Tarea de género gramatical,2024.2.2,Win32,89.92805755,,,,,,,,,,,,,,,,,,,,,,,,282.207,283.123,a,1,0.255,,[],[],[],[],[],[],[],0.255,1,283.123,283.624,,,,,,285,FEM,DIS,150,mafia,el,a,283.624,283.624,0.295555556,-0.3,0,0,0,,0,138,138,284,1,,,,,
,,,,,,40b45f9a70cc0d1df079c7a4,66a626ef09d4e21e1a8894ec,6734d67a93fe5b564f9395fb,2024-11-13_17h43.35.984,Tarea de género gramatical,2024.2.2,Win32,89.92805755,,,,,,,,,,,,,,,,,,,,,,,,283.626,284.615,l,1,0.327,,[],[],[],[],[],[],[],0.327,1,284.615,285.113,,,,,,202,MAS,AGR,150,honor,el,l,285.113,285.113,0.295555556,-0.3,0,0,0,,0,139,139,201,1,,,,,
,,,,,,40b45f9a70cc0d1df079c7a4,66a626ef09d4e21e1a8894ec,6734d67a93fe5b564f9395fb,2024-11-13_17h43.35.984,Tarea de género gramatical,2024.2.2,Win32,89.92805755,,,,,,,,,,,,,,,,,,,,,,,,285.116,286.055,a,1,0.267,,[],[],[],[],[],[],[],0.267,1,286.056,286.561,,,,,,69,FEM,DIS,150,rata,el,a,286.561,286.562,0.295555556,-0.3,0,0,0,,0,140,140,68,1,,,,,
,,,,,,40b45f9a70cc0d1df079c7a4,66a626ef09d4e21e1a8894ec,6734d67a93fe5b564f9395fb,2024-11-13_17h43.35.984,Tarea de género gramatical,2024.2.2,Win32,89.92805755,,,,,,,,,,,,,,,,,,,,,,,,286.564,288.026,l,1,0.793,,[],[],[],[],[],[],[],0.793,1,288.026,288.524,,,,,,444,MAS,DIS,150,límite,la,l,288.525,288.526,0.295555556,-0.3,0,0,0,,0,141,141,443,1,,,,,
,,,,,,40b45f9a70cc0d1df079c7a4,66a626ef09d4e21e1a8894ec,6734d67a93fe5b564f9395fb,2024-11-13_17h43.35.984,Tarea de género gramatical,2024.2.2,Win32,89.92805755,,,,,,,,,,,,,,,,,,,,,,,,288.526,289.524,a,1,0.336,,[],[],[],[],[],[],[],0.336,1,289.525,290.027,,,,,,237,FEM,DIS,150,ducha,el,a,290.027,290.027,0.295555556,-0.3,0,0,0,,0,142,142,236,1,,,,,
,,,,,,40b45f9a70cc0d1df079c7a4,66a626ef09d4e21e1a8894ec,6734d67a93fe5b564f9395fb,2024-11-13_17h43.35.984,Tarea de género gramatical,2024.2.2,Win32,89.92805755,,,,,,,,,,,,,,,,,,,,,,,,290.028,291.003,a,1,0.303,,[],[],[],[],[],[],[],0.303,1,291.005,291.498,,,,,,392,FEM,CON,150,maleta,,a,291.499,291.499,0.295555556,-0.3,0,0,0,,0,143,143,391,1,,,,,
,,,,,,40b45f9a70cc0d1df079c7a4,66a626ef09d4e21e1a8894ec,6734d67a93fe5b564f9395fb,2024-11-13_17h43.35.984,Tarea de género gramatical,2024.2.2,Win32,89.92805755,,,,,,,,,,,,,,,,,,,,,,,,291.505,292.516,l,1,0.352,,[],[],[],[],[],[],[],0.352,1,292.516,293.01,,,,,,414,MAS,DIS,150,sótano,la,l,293.01,293.01,0.295555556,-0.3,0,0,0,,0,144,144,413,1,,,,,
,,,,,,40b45f9a70cc0d1df079c7a4,66a626ef09d4e21e1a8894ec,6734d67a93fe5b564f9395fb,2024-11-13_17h43.35.984,Tarea de género gramatical,2024.2.2,Win32,89.92805755,,,,,,,,,,,,,,,,,,,,,,,,293.013,293.922,a,1,0.245,,[],[],[],[],[],[],[],0.245,1,293.922,294.42,,,,,,127,FEM,AGR,150,cuna,la,a,294.42,294.421,0.295555556,-0.3,0,0,0,,0,145,145,126,1,,,,,
,,,,,,40b45f9a70cc0d1df079c7a4,66a626ef09d4e21e1a8894ec,6734d67a93fe5b564f9395fb,2024-11-13_17h43.35.984,Tarea de género gramatical,2024.2.2,Win32,89.92805755,,,,,,,,,,,,,,,,,,,,,,,,294.424,295.355,a,1,0.267,,[],[],[],[],[],[],[],0.267,1,295.356,295.857,,,,,,273,FEM,DIS,150,tarta,el,a,295.861,295.864,0.295555556,-0.3,0,0,0,,0,146,146,272,1,,,,,
,,,,,,40b45f9a70cc0d1df079c7a4,66a626ef09d4e21e1a8894ec,6734d67a93fe5b564f9395fb,2024-11-13_17h43.35.984,Tarea de género gramatical,2024.2.2,Win32,89.92805755,,,,,,,,,,,,,,,,,,,,,,,,295.866,296.83,a,1,0.29,,[],[],[],[],[],[],[],0.29,1,296.83,297.323,,,,,,49,FEM,AGR,150,piel,la,a,297.323,297.324,0.295555556,-0.3,0,0,0,,0,147,147,48,1,,,,,
,,,,,,40b45f9a70cc0d1df079c7a4,66a626ef09d4e21e1a8894ec,6734d67a93fe5b564f9395fb,2024-11-13_17h43.35.984,Tarea de género gramatical,2024.2.2,Win32,89.92805755,,,,,,,,,,,,,,,,,,,,,,,,297.327,298.302,a,1,0.301,,[],[],[],[],[],[],[],0.301,1,298.303,298.802,,,,,,146,FEM,CON,150,lana,,a,298.802,298.803,0.295555556,-0.3,0,0,0,,0,148,148,145,1,,,,,
,,,,,,40b45f9a70cc0d1df079c7a4,66a626ef09d4e21e1a8894ec,6734d67a93fe5b564f9395fb,2024-11-13_17h43.35.984,Tarea de género gramatical,2024.2.2,Win32,89.92805755,,,,,,,,,,,,,,,,,,,,,,,,298.805,299.902,a,1,0.427,,[],[],[],[],[],[],[],0.427,1,299.904,300.402,,,,,,409,FEM,AGR,150,moneda,la,a,300.402,300.402,0.295555556,-0.3,0,0,0,,0,149,149,408,1,,,,,
,,,,,,40b45f9a70cc0d1df079c7a4,66a626ef09d4e21e1a8894ec,6734d67a93fe5b564f9395fb,2024-11-13_17h43.35.984,Tarea de género gramatical,2024.2.2,Win32,89.92805755,,,,,,,,,,,,,,,,,,,,,,,,300.405,301.631,a,1,0.564,,[],[],[],[],[],[],[],0.564,1,301.631,302.124,,,,,,33,FEM,DIS,150,boda,el,a,302.125,315.292,0.103333333,-0.383333333,1,0,0,,0,150,150,32,1,break_done_button,,,,
,,,,,,40b45f9a70cc0d1df079c7a4,66a626ef09d4e21e1a8894ec,6734d67a93fe5b564f9395fb,2024-11-13_17h43.35.984,Tarea de género gramatical,2024.2.2,Win32,89.92805755,,,,,,,,,,,,,,,,,,,,,,,,315.295,316.405,a,0,0.45,,[],[],[],[],[],[],[],0.45,0,316.407,316.905,,,,,,172,MAS,AGR,150,poder,el,l,316.906,316.906,0.103333333,-0.383333333,0,0,0,,0,151,151,171,1,,,,,
,,,,,,40b45f9a70cc0d1df079c7a4,66a626ef09d4e21e1a8894ec,6734d67a93fe5b564f9395fb,2024-11-13_17h43.35.984,Tarea de género gramatical,2024.2.2,Win32,89.92805755,,,,,,,,,,,,,,,,,,,,,,,,316.907,318.002,a,0,0.422,,[],[],[],[],[],[],[],0.422,0,318.004,318.497,,,,,,352,MAS,AGR,150,estilo,el,l,318.498,318.498,0.103333333,-0.383333333,0,0,0,,0,152,152,351,1,,,,,
,,,,,,40b45f9a70cc0d1df079c7a4,66a626ef09d4e21e1a8894ec,6734d67a93fe5b564f9395fb,2024-11-13_17h43.35.984,Tarea de género gramatical,2024.2.2,Win32,89.92805755,,,,,,,,,,,,,,,,,,,,,,,,318.502,319.714,l,0,0.548,,[],[],[],[],[],[],[],0.548,0,319.714,320.213,,,,,,374,FEM,CON,150,herida,,a,320.213,320.213,0.103333333,-0.383333333,0,0,0,,0,153,153,373,1,,,,,
,,,,,,40b45f9a70cc0d1df079c7a4,66a626ef09d4e21e1a8894ec,6734d67a93fe5b564f9395fb,2024-11-13_17h43.35.984,Tarea de género gramatical,2024.2.2,Win32,89.92805755,,,,,,,,,,,,,,,,,,,,,,,,320.216,321.92,a,1,1.036,,[],[],[],[],[],[],[],1.036,1,321.923,322.422,,,,,,141,FEM,DIS,150,cera,el,a,322.422,322.424,0.103333333,-0.383333333,0,0,0,,0,154,154,140,1,,,,,
,,,,,,40b45f9a70cc0d1df079c7a4,66a626ef09d4e21e1a8894ec,6734d67a93fe5b564f9395fb,2024-11-13_17h43.35.984,Tarea de género gramatical,2024.2.2,Win32,89.92805755,,,,,,,,,,,,,,,,,,,,,,,,322.431,323.447,l,1,0.352,,[],[],[],[],[],[],[],0.352,1,323.45,323.934,,,,,,263,MAS,CON,150,carro,,l,323.937,323.948,0.103333333,-0.383333333,0,0,0,,0,155,155,262,1,,,,,
,,,,,,40b45f9a70cc0d1df079c7a4,66a626ef09d4e21e1a8894ec,6734d67a93fe5b564f9395fb,2024-11-13_17h43.35.984,Tarea de género gramatical,2024.2.2,Win32,89.92805755,,,,,,,,,,,,,,,,,,,,,,,,323.951,324.901,a,1,0.29,,[],[],[],[],[],[],[],0.29,1,324.902,325.398,,,,,,361,FEM,AGR,150,oferta,la,a,325.398,325.399,0.103333333,-0.383333333,0,0,0,,0,156,156,360,1,,,,,
,,,,,,40b45f9a70cc0d1df079c7a4,66a626ef09d4e21e1a8894ec,6734d67a93fe5b564f9395fb,2024-11-13_17h43.35.984,Tarea de género gramatical,2024.2.2,Win32,89.92805755,,,,,,,,,,,,,,,,,,,,,,,,325.402,326.347,l,1,0.278,,[],[],[],[],[],[],[],0.278,1,326.347,326.847,,,,,,161,MAS,CON,150,chico,,l,326.847,326.847,0.103333333,-0.383333333,0,0,0,,0,157,157,160,1,,,,,
,,,,,,40b45f9a70cc0d1df079c7a4,66a626ef09d4e21e1a8894ec,6734d67a93fe5b564f9395fb,2024-11-13_17h43.35.984,Tarea de género gramatical,2024.2.2,Win32,89.92805755,,,,,,,,,,,,,,,,,,,,,,,,326.851,327.925,l,1,0.413,,[],[],[],[],[],[],[],0.413,1,327.926,328.424,,,,,,425,MAS,CON,150,chiste,,l,328.424,328.424,0.103333333,-0.383333333,0,0,0,,0,158,158,424,1,,,,,
,,,,,,40b45f9a70cc0d1df079c7a4,66a626ef09d4e21e1a8894ec,6734d67a93fe5b564f9395fb,2024-11-13_17h43.35.984,Tarea de género gramatical,2024.2.2,Win32,89.92805755,,,,,,,,,,,,,,,,,,,,,,,,328.427,329.669,a,1,0.581,,[],[],[],[],[],[],[],0.581,1,329.67,330.17,,,,,,416,FEM,CON,150,colina,,a,330.172,330.174,0.103333333,-0.383333333,0,0,0,,0,159,159,415,1,,,,,
,,,,,,40b45f9a70cc0d1df079c7a4,66a626ef09d4e21e1a8894ec,6734d67a93fe5b564f9395fb,2024-11-13_17h43.35.984,Tarea de género gramatical,2024.2.2,Win32,89.92805755,,,,,,,,,,,,,,,,,,,,,,,,330.175,331.403,a,1,0.561,,[],[],[],[],[],[],[],0.561,1,331.405,331.903,,,,,,86,FEM,CON,150,cruz,,a,331.903,331.903,0.103333333,-0.383333333,0,0,0,,0,160,160,85,1,,,,,
,,,,,,40b45f9a70cc0d1df079c7a4,66a626ef09d4e21e1a8894ec,6734d67a93fe5b564f9395fb,2024-11-13_17h43.35.984,Tarea de género gramatical,2024.2.2,Win32,89.92805755,,,,,,,,,,,,,,,,,,,,,,,,331.906,333.447,a,0,0.88,,[],[],[],[],[],[],[],0.88,0,333.449,333.945,,,,,,53,MAS,CON,150,vaso,,l,333.945,333.945,0.103333333,-0.383333333,0,0,0,,0,161,161,52,1,,,,,
,,,,,,40b45f9a70cc0d1df079c7a4,66a626ef09d4e21e1a8894ec,6734d67a93fe5b564f9395fb,2024-11-13_17h43.35.984,Tarea de género gramatical,2024.2.2,Win32,89.92805755,,,,,,,,,,,,,,,,,,,,,,,,333.948,335.216,l,1,0.605,,[],[],[],[],[],[],[],0.605,1,335.217,335.714,,,,,,274,MAS,AGR,150,motor,el,l,335.714,335.714,0.103333333,-0.383333333,0,0,0,,0,162,162,273,1,,,,,
,,,,,,40b45f9a70cc0d1df079c7a4,66a626ef09d4e21e1a8894ec,6734d67a93fe5b564f9395fb,2024-11-13_17h43.35.984,Tarea de género gramatical,2024.2.2,Win32,89.92805755,,,,,,,,,,,,,,,,,,,,,,,,335.716,336.728,a,0,0.35,,[],[],[],[],[],[],[],0.35,0,336.731,337.223,,,,,,23,MAS,CON,150,rato,,l,337.223,337.223,0.103333333,-0.383333333,0,0,0,,0,163,163,22,1,,,,,
,,,,,,40b45f9a70cc0d1df079c7a4,66a626ef09d4e21e1a8894ec,6734d67a93fe5b564f9395fb,2024-11-13_17h43.35.984,Tarea de género gramatical,2024.2.2,Win32,89.92805755,,,,,,,,,,,,,,,,,,,,,,,,337.225,338.324,a,0,0.435,,[],[],[],[],[],[],[],0.435,0,338.324,338.825,,,,,,322,MAS,AGR,150,minuto,el,l,338.827,338.829,0.103333333,-0.383333333,0,0,0,,0,164,164,321,1,,,,,
,,,,,,40b45f9a70cc0d1df079c7a4,66a626ef09d4e21e1a8894ec,6734d67a93fe5b564f9395fb,2024-11-13_17h43.35.984,Tarea de género gramatical,2024.2.2,Win32,89.92805755,,,,,,,,,,,,,,,,,,,,,,,,338.83,339.937,l,1,0.444,,[],[],[],[],[],[],[],0.444,1,339.938,340.431,,,,,,29,MAS,CON,150,frío,,l,340.431,340.431,0.103333333,-0.383333333,0,0,0,,0,165,165,28,1,,,,,
,,,,,,40b45f9a70cc0d1df079c7a4,66a626ef09d4e21e1a8894ec,6734d67a93fe5b564f9395fb,2024-11-13_17h43.35.984,Tarea de género gramatical,2024.2.2,Win32,89.92805755,,,,,,,,,,,,,,,,,,,,,,,,340.434,341.62,l,1,0.515,,[],[],[],[],[],[],[],0.515,1,341.621,342.113,,,,,,294,MAS,DIS,150,cable,la,l,342.113,342.113,0.103333333,-0.383333333,0,0,0,,0,166,166,293,1,,,,,
,,,,,,40b45f9a70cc0d1df079c7a4,66a626ef09d4e21e1a8894ec,6734d67a93fe5b564f9395fb,2024-11-13_17h43.35.984,Tarea de género gramatical,2024.2.2,Win32,89.92805755,,,,,,,,,,,,,,,,,,,,,,,,342.117,343.221,a,1,0.445,,[],[],[],[],[],[],[],0.445,1,343.221,343.724,,,,,,255,FEM,DIS,150,tribu,el,a,343.724,343.724,0.103333333,-0.383333333,0,0,0,,0,167,167,254,1,,,,,
,,,,,,40b45f9a70cc0d1df079c7a4,66a626ef09d4e21e1a8894ec,6734d67a93fe5b564f9395fb,2024-11-13_17h43.35.984,Tarea de género gramatical,2024.2.2,Win32,89.92805755,,,,,,,,,,,,,,,,,,,,,,,,343.727,344.756,l,1,0.356,,[],[],[],[],[],[],[],0.356,1,344.756,345.257,,,,,,84,MAS,DIS,150,mago,la,l,345.259,345.262,0.103333333,-0.383333333,0,0,0,,0,168,168,83,1,,,,,
,,,,,,40b45f9a70cc0d1df079c7a4,66a626ef09d4e21e1a8894ec,6734d67a93fe5b564f9395fb,2024-11-13_17h43.35.984,Tarea de género gramatical,2024.2.2,Win32,89.92805755,,,,,,,,,,,,,,,,,,,,,,,,345.263,346.373,l,1,0.441,,[],[],[],[],[],[],[],0.441,1,346.375,346.878,,,,,,106,MAS,AGR,150,test,el,l,346.878,346.879,0.103333333,-0.383333333,0,0,0,,0,169,169,105,1,,,,,
,,,,,,40b45f9a70cc0d1df079c7a4,66a626ef09d4e21e1a8894ec,6734d67a93fe5b564f9395fb,2024-11-13_17h43.35.984,Tarea de género gramatical,2024.2.2,Win32,89.92805755,,,,,,,,,,,,,,,,,,,,,,,,346.881,348.135,l,1,0.589,,[],[],[],[],[],[],[],0.589,1,348.136,348.629,,,,,,436,MAS,AGR,150,objeto,el,l,348.629,348.629,0.103333333,-0.383333333,0,0,0,,0,170,170,435,1,,,,,
,,,,,,40b45f9a70cc0d1df079c7a4,66a626ef09d4e21e1a8894ec,6734d67a93fe5b564f9395fb,2024-11-13_17h43.35.984,Tarea de género gramatical,2024.2.2,Win32,89.92805755,,,,,,,,,,,,,,,,,,,,,,,,348.63,349.669,a,1,0.371,,[],[],[],[],[],[],[],0.371,1,349.671,350.164,,,,,,44,FEM,CON,150,zona,,a,350.164,350.164,0.103333333,-0.383333333,0,0,0,,0,171,171,43,1,,,,,
,,,,,,40b45f9a70cc0d1df079c7a4,66a626ef09d4e21e1a8894ec,6734d67a93fe5b564f9395fb,2024-11-13_17h43.35.984,Tarea de género gramatical,2024.2.2,Win32,89.92805755,,,,,,,,,,,,,,,,,,,,,,,,350.165,351.224,l,1,0.391,,[],[],[],[],[],[],[],0.391,1,351.224,351.721,,,,,,407,MAS,CON,150,jurado,,l,351.721,351.721,0.103333333,-0.383333333,0,0,0,,0,172,172,406,1,,,,,
,,,,,,40b45f9a70cc0d1df079c7a4,66a626ef09d4e21e1a8894ec,6734d67a93fe5b564f9395fb,2024-11-13_17h43.35.984,Tarea de género gramatical,2024.2.2,Win32,89.92805755,,,,,,,,,,,,,,,,,,,,,,,,351.723,352.869,a,1,0.475,,[],[],[],[],[],[],[],0.475,1,352.869,353.369,,,,,,313,FEM,AGR,150,ciudad,la,a,353.371,353.373,0.103333333,-0.383333333,0,0,0,,0,173,173,312,1,,,,,
,,,,,,40b45f9a70cc0d1df079c7a4,66a626ef09d4e21e1a8894ec,6734d67a93fe5b564f9395fb,2024-11-13_17h43.35.984,Tarea de género gramatical,2024.2.2,Win32,89.92805755,,,,,,,,,,,,,,,,,,,,,,,,353.375,354.317,l,1,0.273,,[],[],[],[],[],[],[],0.273,1,354.319,354.822,,,,,,413,MAS,CON,150,diario,,l,354.823,354.824,0.103333333,-0.383333333,0,0,0,,0,174,174,412,1,,,,,
,,,,,,40b45f9a70cc0d1df079c7a4,66a626ef09d4e21e1a8894ec,6734d67a93fe5b564f9395fb,2024-11-13_17h43.35.984,Tarea de género gramatical,2024.2.2,Win32,89.92805755,,,,,,,,,,,,,,,,,,,,,,,,354.83,355.881,l,1,0.386,,[],[],[],[],[],[],[],0.386,1,355.881,356.378,,,,,,191,MAS,CON,150,dolor,,l,356.378,356.379,0.103333333,-0.383333333,0,0,0,,0,175,175,190,1,,,,,
,,,,,,40b45f9a70cc0d1df079c7a4,66a626ef09d4e21e1a8894ec,6734d67a93fe5b564f9395fb,2024-11-13_17h43.35.984,Tarea de género gramatical,2024.2.2,Win32,89.92805755,,,,,,,,,,,,,,,,,,,,,,,,356.381,357.705,l,1,0.659,,[],[],[],[],[],[],[],0.659,1,357.705,358.191,,,,,,18,MAS,DIS,150,tren,la,l,358.191,358.191,0.103333333,-0.383333333,0,0,0,,0,176,176,17,1,,,,,
,,,,,,40b45f9a70cc0d1df079c7a4,66a626ef09d4e21e1a8894ec,6734d67a93fe5b564f9395fb,2024-11-13_17h43.35.984,Tarea de género gramatical,2024.2.2,Win32,89.92805755,,,,,,,,,,,,,,,,,,,,,,,,358.195,359.288,l,1,0.432,,[],[],[],[],[],[],[],0.432,1,359.289,359.78,,,,,,16,MAS,AGR,150,baño,el,l,359.783,359.785,0.103333333,-0.383333333,0,0,0,,0,177,177,15,1,,,,,
,,,,,,40b45f9a70cc0d1df079c7a4,66a626ef09d4e21e1a8894ec,6734d67a93fe5b564f9395fb,2024-11-13_17h43.35.984,Tarea de género gramatical,2024.2.2,Win32,89.92805755,,,,,,,,,,,,,,,,,,,,,,,,359.787,360.814,a,1,0.359,,[],[],[],[],[],[],[],0.359,1,360.815,361.316,,,,,,51,FEM,DIS,150,bala,el,a,361.316,361.316,0.103333333,-0.383333333,0,0,0,,0,178,178,50,1,,,,,
,,,,,,40b45f9a70cc0d1df079c7a4,66a626ef09d4e21e1a8894ec,6734d67a93fe5b564f9395fb,2024-11-13_17h43.35.984,Tarea de género gramatical,2024.2.2,Win32,89.92805755,,,,,,,,,,,,,,,,,,,,,,,,361.318,362.495,l,1,0.517,,[],[],[],[],[],[],[],0.517,1,362.495,362.991,,,,,,257,MAS,CON,150,pecho,,l,362.991,362.992,0.103333333,-0.383333333,0,0,0,,0,179,179,256,1,,,,,
,,,,,,40b45f9a70cc0d1df079c7a4,66a626ef09d4e21e1a8894ec,6734d67a93fe5b564f9395fb,2024-11-13_17h43.35.984,Tarea de género gramatical,2024.2.2,Win32,89.92805755,,,,,,,,,,,,,,,,,,,,,,,,362.995,364.014,a,1,0.359,,[],[],[],[],[],[],[],0.359,1,364.015,364.514,,,,,,415,FEM,AGR,150,cabina,la,a,364.514,364.515,0.103333333,-0.383333333,0,0,0,,0,180,180,414,1,,,,,
,,,,,,40b45f9a70cc0d1df079c7a4,66a626ef09d4e21e1a8894ec,6734d67a93fe5b564f9395fb,2024-11-13_17h43.35.984,Tarea de género gramatical,2024.2.2,Win32,89.92805755,,,,,,,,,,,,,,,,,,,,,,,,364.518,365.566,a,1,0.379,,[],[],[],[],[],[],[],0.379,1,365.566,366.058,,,,,,62,FEM,CON,150,sopa,,a,366.058,366.059,0.103333333,-0.383333333,0,0,0,,0,181,181,61,1,,,,,
,,,,,,40b45f9a70cc0d1df079c7a4,66a626ef09d4e21e1a8894ec,6734d67a93fe5b564f9395fb,2024-11-13_17h43.35.984,Tarea de género gramatical,2024.2.2,Win32,89.92805755,,,,,,,,,,,,,,,,,,,,,,,,366.06,367.146,l,1,0.42,,[],[],[],[],[],[],[],0.42,1,367.146,367.647,,,,,,396,MAS,DIS,150,tesoro,la,l,367.649,367.651,0.103333333,-0.383333333,0,0,0,,0,182,182,395,1,,,,,
,,,,,,40b45f9a70cc0d1df079c7a4,66a626ef09d4e21e1a8894ec,6734d67a93fe5b564f9395fb,2024-11-13_17h43.35.984,Tarea de género gramatical,2024.2.2,Win32,89.92805755,,,,,,,,,,,,,,,,,,,,,,,,367.653,368.745,a,0,0.424,,[],[],[],[],[],[],[],0.424,0,368.748,369.247,,,,,,270,MAS,DIS,150,queso,la,l,369.247,369.247,0.103333333,-0.383333333,0,0,0,,0,183,183,269,1,,,,,
,,,,,,40b45f9a70cc0d1df079c7a4,66a626ef09d4e21e1a8894ec,6734d67a93fe5b564f9395fb,2024-11-13_17h43.35.984,Tarea de género gramatical,2024.2.2,Win32,89.92805755,,,,,,,,,,,,,,,,,,,,,,,,369.249,370.258,a,1,0.345,,[],[],[],[],[],[],[],0.345,1,370.26,370.758,,,,,,158,FEM,CON,150,chica,,a,370.758,370.758,0.103333333,-0.383333333,0,0,0,,0,184,184,157,1,,,,,
,,,,,,40b45f9a70cc0d1df079c7a4,66a626ef09d4e21e1a8894ec,6734d67a93fe5b564f9395fb,2024-11-13_17h43.35.984,Tarea de género gramatical,2024.2.2,Win32,89.92805755,,,,,,,,,,,,,,,,,,,,,,,,370.761,371.779,l,1,0.356,,[],[],[],[],[],[],[],0.356,1,371.779,372.28,,,,,,438,MAS,DIS,150,tanque,la,l,372.28,372.28,0.103333333,-0.383333333,0,0,0,,0,185,185,437,1,,,,,
,,,,,,40b45f9a70cc0d1df079c7a4,66a626ef09d4e21e1a8894ec,6734d67a93fe5b564f9395fb,2024-11-13_17h43.35.984,Tarea de género gramatical,2024.2.2,Win32,89.92805755,,,,,,,,,,,,,,,,,,,,,,,,372.282,373.319,a,1,0.368,,[],[],[],[],[],[],[],0.368,1,373.321,373.823,,,,,,98,FEM,CON,150,fuga,,a,373.825,373.827,0.103333333,-0.383333333,0,0,0,,0,186,186,97,1,,,,,
,,,,,,40b45f9a70cc0d1df079c7a4,66a626ef09d4e21e1a8894ec,6734d67a93fe5b564f9395fb,2024-11-13_17h43.35.984,Tarea de género gramatical,2024.2.2,Win32,89.92805755,,,,,,,,,,,,,,,,,,,,,,,,373.828,374.982,a,0,0.481,,[],[],[],[],[],[],[],0.481,0,374.984,375.479,,,,,,96,MAS,DIS,150,pato,la,l,375.479,375.479,0.103333333,-0.383333333,0,0,0,,0,187,187,95,1,,,,,
,,,,,,40b45f9a70cc0d1df079c7a4,66a626ef09d4e21e1a8894ec,6734d67a93fe5b564f9395fb,2024-11-13_17h43.35.984,Tarea de género gramatical,2024.2.2,Win32,89.92805755,,,,,,,,,,,,,,,,,,,,,,,,375.481,376.559,a,1,0.392,,[],[],[],[],[],[],[],0.392,1,376.56,377.058,,,,,,277,FEM,AGR,150,plaza,la,a,377.058,377.058,0.103333333,-0.383333333,0,0,0,,0,188,188,276,1,,,,,
,,,,,,40b45f9a70cc0d1df079c7a4,66a626ef09d4e21e1a8894ec,6734d67a93fe5b564f9395fb,2024-11-13_17h43.35.984,Tarea de género gramatical,2024.2.2,Win32,89.92805755,,,,,,,,,,,,,,,,,,,,,,,,377.061,378.101,l,1,0.369,,[],[],[],[],[],[],[],0.369,1,378.103,378.603,,,,,,323,MAS,CON,150,marido,,l,378.603,378.603,0.103333333,-0.383333333,0,0,0,,0,189,189,322,1,,,,,
,,,,,,40b45f9a70cc0d1df079c7a4,66a626ef09d4e21e1a8894ec,6734d67a93fe5b564f9395fb,2024-11-13_17h43.35.984,Tarea de género gramatical,2024.2.2,Win32,89.92805755,,,,,,,,,,,,,,,,,,,,,,,,378.605,379.68,l,1,0.414,,[],[],[],[],[],[],[],0.414,1,379.681,380.18,,,,,,185,MAS,CON,150,sueño,,l,380.18,380.18,0.103333333,-0.383333333,0,0,0,,0,190,190,184,1,,,,,
,,,,,,40b45f9a70cc0d1df079c7a4,66a626ef09d4e21e1a8894ec,6734d67a93fe5b564f9395fb,2024-11-13_17h43.35.984,Tarea de género gramatical,2024.2.2,Win32,89.92805755,,,,,,,,,,,,,,,,,,,,,,,,380.183,381.163,a,0,0.318,,[],[],[],[],[],[],[],0.318,0,381.164,381.656,,,,,,174,MAS,DIS,150,perro,la,l,381.658,381.659,0.103333333,-0.383333333,0,0,0,,0,191,191,173,1,,,,,
,,,,,,40b45f9a70cc0d1df079c7a4,66a626ef09d4e21e1a8894ec,6734d67a93fe5b564f9395fb,2024-11-13_17h43.35.984,Tarea de género gramatical,2024.2.2,Win32,89.92805755,,,,,,,,,,,,,,,,,,,,,,,,381.661,382.835,l,1,0.5,,[],[],[],[],[],[],[],0.5,1,382.836,383.335,,,,,,222,MAS,DIS,150,valor,la,l,383.335,383.336,0.103333333,-0.383333333,0,0,0,,0,192,192,221,1,,,,,
,,,,,,40b45f9a70cc0d1df079c7a4,66a626ef09d4e21e1a8894ec,6734d67a93fe5b564f9395fb,2024-11-13_17h43.35.984,Tarea de género gramatical,2024.2.2,Win32,89.92805755,,,,,,,,,,,,,,,,,,,,,,,,383.338,384.425,l,1,0.423,,[],[],[],[],[],[],[],0.423,1,384.425,384.923,,,,,,330,MAS,DIS,150,estado,la,l,384.923,384.923,0.103333333,-0.383333333,0,0,0,,0,193,193,329,1,,,,,
,,,,,,40b45f9a70cc0d1df079c7a4,66a626ef09d4e21e1a8894ec,6734d67a93fe5b564f9395fb,2024-11-13_17h43.35.984,Tarea de género gramatical,2024.2.2,Win32,89.92805755,,,,,,,,,,,,,,,,,,,,,,,,384.926,386.012,l,1,0.422,,[],[],[],[],[],[],[],0.422,1,386.014,386.499,,,,,,256,MAS,AGR,150,techo,el,l,386.5,386.502,0.103333333,-0.383333333,0,0,0,,0,194,194,255,1,,,,,
,,,,,,40b45f9a70cc0d1df079c7a4,66a626ef09d4e21e1a8894ec,6734d67a93fe5b564f9395fb,2024-11-13_17h43.35.984,Tarea de género gramatical,2024.2.2,Win32,89.92805755,,,,,,,,,,,,,,,,,,,,,,,,386.508,387.59,a,1,0.421,,[],[],[],[],[],[],[],0.421,1,387.591,388.076,,,,,,153,FEM,DIS,150,mujer,el,a,388.079,388.082,0.103333333,-0.383333333,0,0,0,,0,195,195,152,1,,,,,
,,,,,,40b45f9a70cc0d1df079c7a4,66a626ef09d4e21e1a8894ec,6734d67a93fe5b564f9395fb,2024-11-13_17h43.35.984,Tarea de género gramatical,2024.2.2,Win32,89.92805755,,,,,,,,,,,,,,,,,,,,,,,,388.084,389.139,a,1,0.394,,[],[],[],[],[],[],[],0.394,1,389.139,389.637,,,,,,350,FEM,CON,150,imagen,,a,389.637,389.637,0.103333333,-0.383333333,0,0,0,,0,196,196,349,1,,,,,
,,,,,,40b45f9a70cc0d1df079c7a4,66a626ef09d4e21e1a8894ec,6734d67a93fe5b564f9395fb,2024-11-13_17h43.35.984,Tarea de género gramatical,2024.2.2,Win32,89.92805755,,,,,,,,,,,,,,,,,,,,,,,,389.639,390.563,l,1,0.253,,[],[],[],[],[],[],[],0.253,1,390.564,391.058,,,,,,154,MAS,AGR,150,padre,el,l,391.058,391.059,0.103333333,-0.383333333,0,0,0,,0,197,197,153,1,,,,,
,,,,,,40b45f9a70cc0d1df079c7a4,66a626ef09d4e21e1a8894ec,6734d67a93fe5b564f9395fb,2024-11-13_17h43.35.984,Tarea de género gramatical,2024.2.2,Win32,89.92805755,,,,,,,,,,,,,,,,,,,,,,,,391.061,392.056,l,1,0.327,,[],[],[],[],[],[],[],0.327,1,392.057,392.558,,,,,,137,MAS,CON,150,coco,,l,392.558,392.558,0.103333333,-0.383333333,0,0,0,,0,198,198,136,1,,,,,
,,,,,,40b45f9a70cc0d1df079c7a4,66a626ef09d4e21e1a8894ec,6734d67a93fe5b564f9395fb,2024-11-13_17h43.35.984,Tarea de género gramatical,2024.2.2,Win32,89.92805755,,,,,,,,,,,,,,,,,,,,,,,,392.56,393.61,l,1,0.38,,[],[],[],[],[],[],[],0.38,1,393.611,394.114,,,,,,36,MAS,DIS,150,dedo,la,l,394.114,394.114,0.103333333,-0.383333333,0,0,0,,0,199,199,35,1,,,,,
,,,,,,40b45f9a70cc0d1df079c7a4,66a626ef09d4e21e1a8894ec,6734d67a93fe5b564f9395fb,2024-11-13_17h43.35.984,Tarea de género gramatical,2024.2.2,Win32,89.92805755,,,,,,,,,,,,,,,,,,,,,,,,394.116,395.297,a,1,0.515,,[],[],[],[],[],[],[],0.515,1,395.298,395.792,,,,,,441,FEM,DIS,150,medida,el,a,395.794,395.795,0.103333333,-0.383333333,0,0,0,,0,200,200,440,1,,,,,
,,,,,,40b45f9a70cc0d1df079c7a4,66a626ef09d4e21e1a8894ec,6734d67a93fe5b564f9395fb,2024-11-13_17h43.35.984,Tarea de género gramatical,2024.2.2,Win32,89.92805755,,,,,,,,,,,,,,,,,,,,,,,,395.796,396.822,a,1,0.358,,[],[],[],[],[],[],[],0.358,1,396.822,397.321,,,,,,187,FEM,AGR,150,lista,la,a,397.321,397.321,0.103333333,-0.383333333,0,0,0,,0,201,201,186,1,,,,,
,,,,,,40b45f9a70cc0d1df079c7a4,66a626ef09d4e21e1a8894ec,6734d67a93fe5b564f9395fb,2024-11-13_17h43.35.984,Tarea de género gramatical,2024.2.2,Win32,89.92805755,,,,,,,,,,,,,,,,,,,,,,,,397.322,398.254,l,1,0.267,,[],[],[],[],[],[],[],0.267,1,398.254,398.755,,,,,,419,MAS,CON,150,cuento,,l,398.755,398.756,0.103333333,-0.383333333,0,0,0,,0,202,202,418,1,,,,,
,,,,,,40b45f9a70cc0d1df079c7a4,66a626ef09d4e21e1a8894ec,6734d67a93fe5b564f9395fb,2024-11-13_17h43.35.984,Tarea de género gramatical,2024.2.2,Win32,89.92805755,,,,,,,,,,,,,,,,,,,,,,,,398.76,399.73,a,1,0.308,,[],[],[],[],[],[],[],0.308,1,399.731,400.232,,,,,,241,FEM,AGR,150,pasta,la,a,400.232,400.233,0.103333333,-0.383333333,0,0,0,,0,203,203,240,1,,,,,
,,,,,,40b45f9a70cc0d1df079c7a4,66a626ef09d4e21e1a8894ec,6734d67a93fe5b564f9395fb,2024-11-13_17h43.35.984,Tarea de género gramatical,2024.2.2,Win32,89.92805755,,,,,,,,,,,,,,,,,,,,,,,,400.236,401.258,a,1,0.359,,[],[],[],[],[],[],[],0.359,1,401.259,401.757,,,,,,326,FEM,CON,150,música,,a,401.76,401.761,0.103333333,-0.383333333,0,0,0,,0,204,204,325,1,,,,,
,,,,,,40b45f9a70cc0d1df079c7a4,66a626ef09d4e21e1a8894ec,6734d67a93fe5b564f9395fb,2024-11-13_17h43.35.984,Tarea de género gramatical,2024.2.2,Win32,89.92805755,,,,,,,,,,,,,,,,,,,,,,,,401.763,402.778,a,1,0.356,,[],[],[],[],[],[],[],0.356,1,402.778,403.276,,,,,,39,FEM,DIS,150,luna,el,a,403.276,403.276,0.103333333,-0.383333333,0,0,0,,0,205,205,38,1,,,,,
,,,,,,40b45f9a70cc0d1df079c7a4,66a626ef09d4e21e1a8894ec,6734d67a93fe5b564f9395fb,2024-11-13_17h43.35.984,Tarea de género gramatical,2024.2.2,Win32,89.92805755,,,,,,,,,,,,,,,,,,,,,,,,403.278,404.283,l,1,0.341,,[],[],[],[],[],[],[],0.341,1,404.284,404.78,,,,,,450,MAS,DIS,150,conejo,la,l,404.78,404.781,0.103333333,-0.383333333,0,0,0,,0,206,206,449,1,,,,,
,,,,,,40b45f9a70cc0d1df079c7a4,66a626ef09d4e21e1a8894ec,6734d67a93fe5b564f9395fb,2024-11-13_17h43.35.984,Tarea de género gramatical,2024.2.2,Win32,89.92805755,,,,,,,,,,,,,,,,,,,,,,,,404.783,405.68,a,1,0.225,,[],[],[],[],[],[],[],0.225,1,405.681,406.181,,,,,,176,FEM,CON,150,línea,,a,406.181,406.181,0.103333333,-0.383333333,0,0,0,,0,207,207,175,1,,,,,
,,,,,,40b45f9a70cc0d1df079c7a4,66a626ef09d4e21e1a8894ec,6734d67a93fe5b564f9395fb,2024-11-13_17h43.35.984,Tarea de género gramatical,2024.2.2,Win32,89.92805755,,,,,,,,,,,,,,,,,,,,,,,,406.182,407.213,a,1,0.365,,[],[],[],[],[],[],[],0.365,1,407.213,407.713,,,,,,80,FEM,CON,150,vaca,,a,407.713,407.714,0.103333333,-0.383333333,0,0,0,,0,208,208,79,1,,,,,
,,,,,,40b45f9a70cc0d1df079c7a4,66a626ef09d4e21e1a8894ec,6734d67a93fe5b564f9395fb,2024-11-13_17h43.35.984,Tarea de género gramatical,2024.2.2,Win32,89.92805755,,,,,,,,,,,,,,,,,,,,,,,,407.716,408.667,a,1,0.279,,[],[],[],[],[],[],[],0.279,1,408.669,409.166,,,,,,75,FEM,DIS,150,caza,el,a,409.168,409.169,0.103333333,-0.383333333,0,0,0,,0,209,209,74,1,,,,,
,,,,,,40b45f9a70cc0d1df079c7a4,66a626ef09d4e21e1a8894ec,6734d67a93fe5b564f9395fb,2024-11-13_17h43.35.984,Tarea de género gramatical,2024.2.2,Win32,89.92805755,,,,,,,,,,,,,,,,,,,,,,,,409.17,410.159,l,0,0.323,,[],[],[],[],[],[],[],0.323,0,410.161,410.658,,,,,,139,FEM,AGR,150,pipa,la,a,410.658,410.658,0.103333333,-0.383333333,0,0,0,,0,210,210,138,1,,,,,
,,,,,,40b45f9a70cc0d1df079c7a4,66a626ef09d4e21e1a8894ec,6734d67a93fe5b564f9395fb,2024-11-13_17h43.35.984,Tarea de género gramatical,2024.2.2,Win32,89.92805755,,,,,,,,,,,,,,,,,,,,,,,,410.66,411.725,l,1,0.402,,[],[],[],[],[],[],[],0.402,1,411.726,412.226,,,,,,400,MAS,AGR,150,barrio,el,l,412.226,412.226,0.103333333,-0.383333333,0,0,0,,0,211,211,399,1,,,,,
,,,,,,40b45f9a70cc0d1df079c7a4,66a626ef09d4e21e1a8894ec,6734d67a93fe5b564f9395fb,2024-11-13_17h43.35.984,Tarea de género gramatical,2024.2.2,Win32,89.92805755,,,,,,,,,,,,,,,,,,,,,,,,412.227,413.212,a,1,0.314,,[],[],[],[],[],[],[],0.314,1,413.214,413.71,,,,,,134,FEM,CON,150,rama,,a,413.71,413.711,0.103333333,-0.383333333,0,0,0,,0,212,212,133,1,,,,,
,,,,,,40b45f9a70cc0d1df079c7a4,66a626ef09d4e21e1a8894ec,6734d67a93fe5b564f9395fb,2024-11-13_17h43.35.984,Tarea de género gramatical,2024.2.2,Win32,89.92805755,,,,,,,,,,,,,,,,,,,,,,,,413.714,414.936,l,1,0.56,,[],[],[],[],[],[],[],0.56,1,414.936,415.435,,,,,,228,MAS,DIS,150,nivel,la,l,415.437,415.439,0.103333333,-0.383333333,0,0,0,,0,213,213,227,1,,,,,
,,,,,,40b45f9a70cc0d1df079c7a4,66a626ef09d4e21e1a8894ec,6734d67a93fe5b564f9395fb,2024-11-13_17h43.35.984,Tarea de género gramatical,2024.2.2,Win32,89.92805755,,,,,,,,,,,,,,,,,,,,,,,,415.44,416.752,l,1,0.65,,[],[],[],[],[],[],[],0.65,1,416.752,417.248,,,,,,124,MAS,AGR,150,clan,el,l,417.248,417.249,0.103333333,-0.383333333,0,0,0,,0,214,214,123,1,,,,,
,,,,,,40b45f9a70cc0d1df079c7a4,66a626ef09d4e21e1a8894ec,6734d67a93fe5b564f9395fb,2024-11-13_17h43.35.984,Tarea de género gramatical,2024.2.2,Win32,89.92805755,,,,,,,,,,,,,,,,,,,,,,,,417.256,418.426,a,1,0.505,,[],[],[],[],[],[],[],0.505,1,418.428,418.925,,,,,,363,FEM,DIS,150,unidad,el,a,418.925,418.925,0.103333333,-0.383333333,0,0,0,,0,215,215,362,1,,,,,
,,,,,,40b45f9a70cc0d1df079c7a4,66a626ef09d4e21e1a8894ec,6734d67a93fe5b564f9395fb,2024-11-13_17h43.35.984,Tarea de género gramatical,2024.2.2,Win32,89.92805755,,,,,,,,,,,,,,,,,,,,,,,,418.929,420.024,l,1,0.434,,[],[],[],[],[],[],[],0.434,1,420.025,420.521,,,,,,42,MAS,DIS,150,show,la,l,420.522,420.522,0.103333333,-0.383333333,0,0,0,,0,216,216,41,1,,,,,
,,,,,,40b45f9a70cc0d1df079c7a4,66a626ef09d4e21e1a8894ec,6734d67a93fe5b564f9395fb,2024-11-13_17h43.35.984,Tarea de género gramatical,2024.2.2,Win32,89.92805755,,,,,,,,,,,,,,,,,,,,,,,,420.525,421.635,a,1,0.446,,[],[],[],[],[],[],[],0.446,1,421.637,422.129,,,,,,278,FEM,CON,150,presa,,a,422.129,422.129,0.103333333,-0.383333333,0,0,0,,0,217,217,277,1,,,,,
,,,,,,40b45f9a70cc0d1df079c7a4,66a626ef09d4e21e1a8894ec,6734d67a93fe5b564f9395fb,2024-11-13_17h43.35.984,Tarea de género gramatical,2024.2.2,Win32,89.92805755,,,,,,,,,,,,,,,,,,,,,,,,422.133,423.344,a,1,0.545,,[],[],[],[],[],[],[],0.545,1,423.345,423.847,,,,,,205,FEM,AGR,150,reina,la,a,423.849,423.852,0.103333333,-0.383333333,0,0,0,,0,218,218,204,1,,,,,
,,,,,,40b45f9a70cc0d1df079c7a4,66a626ef09d4e21e1a8894ec,6734d67a93fe5b564f9395fb,2024-11-13_17h43.35.984,Tarea de género gramatical,2024.2.2,Win32,89.92805755,,,,,,,,,,,,,,,,,,,,,,,,423.853,425.011,a,1,0.49,,[],[],[],[],[],[],[],0.49,1,425.011,425.514,,,,,,261,FEM,DIS,150,cueva,el,a,425.514,425.515,0.103333333,-0.383333333,0,0,0,,0,219,219,260,1,,,,,
,,,,,,40b45f9a70cc0d1df079c7a4,66a626ef09d4e21e1a8894ec,6734d67a93fe5b564f9395fb,2024-11-13_17h43.35.984,Tarea de género gramatical,2024.2.2,Win32,89.92805755,,,,,,,,,,,,,,,,,,,,,,,,425.517,426.599,l,1,0.404,,[],[],[],[],[],[],[],0.404,1,426.601,427.094,,,,,,431,MAS,CON,150,veneno,,l,427.094,427.094,0.103333333,-0.383333333,0,0,0,,0,220,220,430,1,,,,,
,,,,,,40b45f9a70cc0d1df079c7a4,66a626ef09d4e21e1a8894ec,6734d67a93fe5b564f9395fb,2024-11-13_17h43.35.984,Tarea de género gramatical,2024.2.2,Win32,89.92805755,,,,,,,,,,,,,,,,,,,,,,,,427.096,428.515,l,0,0.756,,[],[],[],[],[],[],[],0.756,0,428.517,429.002,,,,,,63,FEM,DIS,150,fila,el,a,429.002,429.003,0.103333333,-0.383333333,0,0,0,,0,221,221,62,1,,,,,
,,,,,,40b45f9a70cc0d1df079c7a4,66a626ef09d4e21e1a8894ec,6734d67a93fe5b564f9395fb,2024-11-13_17h43.35.984,Tarea de género gramatical,2024.2.2,Win32,89.92805755,,,,,,,,,,,,,,,,,,,,,,,,429.004,430.148,a,1,0.474,,[],[],[],[],[],[],[],0.474,1,430.15,430.651,,,,,,333,FEM,DIS,150,locura,el,a,430.653,430.655,0.103333333,-0.383333333,0,0,0,,0,222,222,332,1,,,,,
,,,,,,40b45f9a70cc0d1df079c7a4,66a626ef09d4e21e1a8894ec,6734d67a93fe5b564f9395fb,2024-11-13_17h43.35.984,Tarea de género gramatical,2024.2.2,Win32,89.92805755,,,,,,,,,,,,,,,,,,,,,,,,430.66,432.503,a,1,1.183,,[],[],[],[],[],[],[],1.183,1,432.504,433.003,,,,,,73,FEM,AGR,150,roca,la,a,433.003,433.004,0.103333333,-0.383333333,0,0,0,,0,223,223,72,1,,,,,
,,,,,,40b45f9a70cc0d1df079c7a4,66a626ef09d4e21e1a8894ec,6734d67a93fe5b564f9395fb,2024-11-13_17h43.35.984,Tarea de género gramatical,2024.2.2,Win32,89.92805755,,,,,,,,,,,,,,,,,,,,,,,,433.006,434.114,l,1,0.449,,[],[],[],[],[],[],[],0.449,1,434.115,434.608,,,,,,167,MAS,CON,150,juego,,l,434.608,434.608,0.103333333,-0.383333333,0,0,0,,0,224,224,166,1,,,,,
,,,,,,40b45f9a70cc0d1df079c7a4,66a626ef09d4e21e1a8894ec,6734d67a93fe5b564f9395fb,2024-11-13_17h43.35.984,Tarea de género gramatical,2024.2.2,Win32,89.92805755,,,,,,,,,,,,,,,,,,,,,,,,434.614,435.793,l,1,0.518,,[],[],[],[],[],[],[],0.518,1,435.794,436.292,,,,,,240,MAS,DIS,150,ruido,la,l,436.293,436.293,0.103333333,-0.383333333,0,0,0,,0,225,225,239,1,,,,,
,,,,,,40b45f9a70cc0d1df079c7a4,66a626ef09d4e21e1a8894ec,6734d67a93fe5b564f9395fb,2024-11-13_17h43.35.984,Tarea de género gramatical,2024.2.2,Win32,89.92805755,,,,,,,,,,,,,,,,,,,,,,,,436.294,437.868,l,1,0.909,,[],[],[],[],[],[],[],0.909,1,437.868,438.369,,,,,,162,MAS,DIS,150,miedo,la,l,438.369,438.369,0.103333333,-0.383333333,0,0,0,,0,226,226,161,1,,,,,
,,,,,,40b45f9a70cc0d1df079c7a4,66a626ef09d4e21e1a8894ec,6734d67a93fe5b564f9395fb,2024-11-13_17h43.35.984,Tarea de género gramatical,2024.2.2,Win32,89.92805755,,,,,,,,,,,,,,,,,,,,,,,,438.372,439.759,a,1,0.716,,[],[],[],[],[],[],[],0.716,1,439.76,440.254,,,,,,265,FEM,AGR,150,rueda,la,a,440.257,440.259,0.103333333,-0.383333333,0,0,0,,0,227,227,264,1,,,,,
,,,,,,40b45f9a70cc0d1df079c7a4,66a626ef09d4e21e1a8894ec,6734d67a93fe5b564f9395fb,2024-11-13_17h43.35.984,Tarea de género gramatical,2024.2.2,Win32,89.92805755,,,,,,,,,,,,,,,,,,,,,,,,440.261,441.614,a,1,0.69,,[],[],[],[],[],[],[],0.69,1,441.615,442.112,,,,,,309,FEM,DIS,150,esposa,el,a,442.113,442.113,0.103333333,-0.383333333,0,0,0,,0,228,228,308,1,,,,,
,,,,,,40b45f9a70cc0d1df079c7a4,66a626ef09d4e21e1a8894ec,6734d67a93fe5b564f9395fb,2024-11-13_17h43.35.984,Tarea de género gramatical,2024.2.2,Win32,89.92805755,,,,,,,,,,,,,,,,,,,,,,,,442.114,443.346,l,1,0.566,,[],[],[],[],[],[],[],0.566,1,443.346,443.846,,,,,,282,MAS,DIS,150,bolso,la,l,443.846,443.847,0.103333333,-0.383333333,0,0,0,,0,229,229,281,1,,,,,
,,,,,,40b45f9a70cc0d1df079c7a4,66a626ef09d4e21e1a8894ec,6734d67a93fe5b564f9395fb,2024-11-13_17h43.35.984,Tarea de género gramatical,2024.2.2,Win32,89.92805755,,,,,,,,,,,,,,,,,,,,,,,,443.849,445.373,l,1,0.861,,[],[],[],[],[],[],[],0.861,1,445.374,445.869,,,,,,221,MAS,CON,150,brazo,,l,445.869,445.869,0.103333333,-0.383333333,0,0,0,,0,230,230,220,1,,,,,
,,,,,,40b45f9a70cc0d1df079c7a4,66a626ef09d4e21e1a8894ec,6734d67a93fe5b564f9395fb,2024-11-13_17h43.35.984,Tarea de género gramatical,2024.2.2,Win32,89.92805755,,,,,,,,,,,,,,,,,,,,,,,,445.872,447.013,l,1,0.479,,[],[],[],[],[],[],[],0.479,1,447.015,447.513,,,,,,24,MAS,DIS,150,voto,la,l,447.515,447.518,0.103333333,-0.383333333,0,0,0,,0,231,231,23,1,,,,,
,,,,,,40b45f9a70cc0d1df079c7a4,66a626ef09d4e21e1a8894ec,6734d67a93fe5b564f9395fb,2024-11-13_17h43.35.984,Tarea de género gramatical,2024.2.2,Win32,89.92805755,,,,,,,,,,,,,,,,,,,,,,,,447.518,448.592,l,1,0.414,,[],[],[],[],[],[],[],0.414,1,448.593,449.093,,,,,,232,MAS,AGR,150,calor,el,l,449.094,449.095,0.103333333,-0.383333333,0,0,0,,0,232,232,231,1,,,,,
,,,,,,40b45f9a70cc0d1df079c7a4,66a626ef09d4e21e1a8894ec,6734d67a93fe5b564f9395fb,2024-11-13_17h43.35.984,Tarea de género gramatical,2024.2.2,Win32,89.92805755,,,,,,,,,,,,,,,,,,,,,,,,449.104,450.124,a,1,0.355,,[],[],[],[],[],[],[],0.355,1,450.126,450.628,,,,,,177,FEM,DIS,150,broma,el,a,450.628,450.629,0.103333333,-0.383333333,0,0,0,,0,233,233,176,1,,,,,
,,,,,,40b45f9a70cc0d1df079c7a4,66a626ef09d4e21e1a8894ec,6734d67a93fe5b564f9395fb,2024-11-13_17h43.35.984,Tarea de género gramatical,2024.2.2,Win32,89.92805755,,,,,,,,,,,,,,,,,,,,,,,,450.632,451.744,a,1,0.454,,[],[],[],[],[],[],[],0.454,1,451.744,452.243,,,,,,229,FEM,AGR,150,celda,la,a,452.243,452.243,0.103333333,-0.383333333,0,0,0,,0,234,234,228,1,,,,,
,,,,,,40b45f9a70cc0d1df079c7a4,66a626ef09d4e21e1a8894ec,6734d67a93fe5b564f9395fb,2024-11-13_17h43.35.984,Tarea de género gramatical,2024.2.2,Win32,89.92805755,,,,,,,,,,,,,,,,,,,,,,,,452.247,453.146,l,1,0.235,,[],[],[],[],[],[],[],0.235,1,453.148,453.638,,,,,,306,MAS,DIS,150,dinero,la,l,453.638,453.639,0.103333333,-0.383333333,0,0,0,,0,235,235,305,1,,,,,
,,,,,,40b45f9a70cc0d1df079c7a4,66a626ef09d4e21e1a8894ec,6734d67a93fe5b564f9395fb,2024-11-13_17h43.35.984,Tarea de género gramatical,2024.2.2,Win32,89.92805755,,,,,,,,,,,,,,,,,,,,,,,,453.641,454.702,l,1,0.393,,[],[],[],[],[],[],[],0.393,1,454.703,455.203,,,,,,275,MAS,CON,150,disco,,l,455.205,455.208,0.103333333,-0.383333333,0,0,0,,0,236,236,274,1,,,,,
,,,,,,40b45f9a70cc0d1df079c7a4,66a626ef09d4e21e1a8894ec,6734d67a93fe5b564f9395fb,2024-11-13_17h43.35.984,Tarea de género gramatical,2024.2.2,Win32,89.92805755,,,,,,,,,,,,,,,,,,,,,,,,455.209,456.18,a,1,0.301,,[],[],[],[],[],[],[],0.301,1,456.18,456.68,,,,,,248,FEM,CON,150,letra,,a,456.68,456.68,0.103333333,-0.383333333,0,0,0,,0,237,237,247,1,,,,,
,,,,,,40b45f9a70cc0d1df079c7a4,66a626ef09d4e21e1a8894ec,6734d67a93fe5b564f9395fb,2024-11-13_17h43.35.984,Tarea de género gramatical,2024.2.2,Win32,89.92805755,,,,,,,,,,,,,,,,,,,,,,,,456.684,457.765,a,1,0.419,,[],[],[],[],[],[],[],0.419,1,457.766,458.258,,,,,,25,FEM,AGR,150,nave,la,a,458.258,458.259,0.103333333,-0.383333333,0,0,0,,0,238,238,24,1,,,,,
,,,,,,40b45f9a70cc0d1df079c7a4,66a626ef09d4e21e1a8894ec,6734d67a93fe5b564f9395fb,2024-11-13_17h43.35.984,Tarea de género gramatical,2024.2.2,Win32,89.92805755,,,,,,,,,,,,,,,,,,,,,,,,458.261,459.288,l,1,0.366,,[],[],[],[],[],[],[],0.366,1,459.29,459.792,,,,,,318,MAS,DIS,150,pueblo,la,l,459.792,459.792,0.103333333,-0.383333333,0,0,0,,0,239,239,317,1,,,,,
,,,,,,40b45f9a70cc0d1df079c7a4,66a626ef09d4e21e1a8894ec,6734d67a93fe5b564f9395fb,2024-11-13_17h43.35.984,Tarea de género gramatical,2024.2.2,Win32,89.92805755,,,,,,,,,,,,,,,,,,,,,,,,459.794,460.836,a,1,0.381,,[],[],[],[],[],[],[],0.381,1,460.836,461.336,,,,,,405,FEM,DIS,150,parada,el,a,461.338,461.34,0.103333333,-0.383333333,0,0,0,,0,240,240,404,1,,,,,
,,,,,,40b45f9a70cc0d1df079c7a4,66a626ef09d4e21e1a8894ec,6734d67a93fe5b564f9395fb,2024-11-13_17h43.35.984,Tarea de género gramatical,2024.2.2,Win32,89.92805755,,,,,,,,,,,,,,,,,,,,,,,,461.341,462.473,l,1,0.463,,[],[],[],[],[],[],[],0.463,1,462.473,462.969,,,,,,76,MAS,AGR,150,lujo,el,l,462.97,462.97,0.103333333,-0.383333333,0,0,0,,0,241,241,75,1,,,,,
,,,,,,40b45f9a70cc0d1df079c7a4,66a626ef09d4e21e1a8894ec,6734d67a93fe5b564f9395fb,2024-11-13_17h43.35.984,Tarea de género gramatical,2024.2.2,Win32,89.92805755,,,,,,,,,,,,,,,,,,,,,,,,462.972,464.223,l,1,0.58,,[],[],[],[],[],[],[],0.58,1,464.224,464.725,,,,,,35,MAS,CON,150,taxi,,l,464.725,464.725,0.103333333,-0.383333333,0,0,0,,0,242,242,34,1,,,,,
,,,,,,40b45f9a70cc0d1df079c7a4,66a626ef09d4e21e1a8894ec,6734d67a93fe5b564f9395fb,2024-11-13_17h43.35.984,Tarea de género gramatical,2024.2.2,Win32,89.92805755,,,,,,,,,,,,,,,,,,,,,,,,464.727,465.948,a,1,0.557,,[],[],[],[],[],[],[],0.557,1,465.948,466.444,,,,,,266,FEM,CON,150,jaula,,a,466.445,466.446,0.103333333,-0.383333333,0,0,0,,0,243,243,265,1,,,,,
,,,,,,40b45f9a70cc0d1df079c7a4,66a626ef09d4e21e1a8894ec,6734d67a93fe5b564f9395fb,2024-11-13_17h43.35.984,Tarea de género gramatical,2024.2.2,Win32,89.92805755,,,,,,,,,,,,,,,,,,,,,,,,466.447,467.636,a,1,0.524,,[],[],[],[],[],[],[],0.524,1,467.637,468.136,,,,,,45,FEM,DIS,150,isla,el,a,468.136,468.136,0.103333333,-0.383333333,0,0,0,,0,244,244,44,1,,,,,
,,,,,,40b45f9a70cc0d1df079c7a4,66a626ef09d4e21e1a8894ec,6734d67a93fe5b564f9395fb,2024-11-13_17h43.35.984,Tarea de género gramatical,2024.2.2,Win32,89.92805755,,,,,,,,,,,,,,,,,,,,,,,,468.139,469.345,l,1,0.541,,[],[],[],[],[],[],[],0.541,1,469.345,469.846,,,,,,5,MAS,CON,150,tipo,,l,469.847,469.85,0.103333333,-0.383333333,0,0,0,,0,245,245,4,1,,,,,
,,,,,,40b45f9a70cc0d1df079c7a4,66a626ef09d4e21e1a8894ec,6734d67a93fe5b564f9395fb,2024-11-13_17h43.35.984,Tarea de género gramatical,2024.2.2,Win32,89.92805755,,,,,,,,,,,,,,,,,,,,,,,,469.851,470.956,l,1,0.443,,[],[],[],[],[],[],[],0.443,1,470.957,471.463,,,,,,432,MAS,DIS,150,océano,la,l,471.463,471.463,0.103333333,-0.383333333,0,0,0,,0,246,246,431,1,,,,,
,,,,,,40b45f9a70cc0d1df079c7a4,66a626ef09d4e21e1a8894ec,6734d67a93fe5b564f9395fb,2024-11-13_17h43.35.984,Tarea de género gramatical,2024.2.2,Win32,89.92805755,,,,,,,,,,,,,,,,,,,,,,,,471.466,472.541,a,1,0.41,,[],[],[],[],[],[],[],0.41,1,472.542,473.043,,,,,,267,FEM,DIS,150,barba,el,a,473.043,473.044,0.103333333,-0.383333333,0,0,0,,0,247,247,266,1,,,,,
,,,,,,40b45f9a70cc0d1df079c7a4,66a626ef09d4e21e1a8894ec,6734d67a93fe5b564f9395fb,2024-11-13_17h43.35.984,Tarea de género gramatical,2024.2.2,Win32,89.92805755,,,,,,,,,,,,,,,,,,,,,,,,473.047,474.028,l,1,0.312,,[],[],[],[],[],[],[],0.312,1,474.028,474.524,,,,,,305,MAS,CON,150,hombre,,l,474.525,474.525,0.103333333,-0.383333333,0,0,0,,0,248,248,304,1,,,,,
,,,,,,40b45f9a70cc0d1df079c7a4,66a626ef09d4e21e1a8894ec,6734d67a93fe5b564f9395fb,2024-11-13_17h43.35.984,Tarea de género gramatical,2024.2.2,Win32,89.92805755,,,,,,,,,,,,,,,,,,,,,,,,474.526,475.791,l,1,0.6,,[],[],[],[],[],[],[],0.6,1,475.791,476.285,,,,,,208,MAS,AGR,150,suelo,el,l,476.287,476.293,0.103333333,-0.383333333,0,0,0,,0,249,249,207,1,,,,,
,,,,,,40b45f9a70cc0d1df079c7a4,66a626ef09d4e21e1a8894ec,6734d67a93fe5b564f9395fb,2024-11-13_17h43.35.984,Tarea de género gramatical,2024.2.2,Win32,89.92805755,,,,,,,,,,,,,,,,,,,,,,,,476.296,477.468,l,0,0.504,,[],[],[],[],[],[],[],0.504,0,477.472,477.963,,,,,,387,FEM,DIS,150,página,el,a,477.963,477.963,0.103333333,-0.383333333,0,0,0,,0,250,250,386,1,,,,,
,,,,,,40b45f9a70cc0d1df079c7a4,66a626ef09d4e21e1a8894ec,6734d67a93fe5b564f9395fb,2024-11-13_17h43.35.984,Tarea de género gramatical,2024.2.2,Win32,89.92805755,,,,,,,,,,,,,,,,,,,,,,,,477.965,479.32,a,1,0.689,,[],[],[],[],[],[],[],0.689,1,479.322,479.814,,,,,,427,FEM,AGR,150,agenda,la,a,479.814,479.814,0.103333333,-0.383333333,0,0,0,,0,251,251,426,1,,,,,
,,,,,,40b45f9a70cc0d1df079c7a4,66a626ef09d4e21e1a8894ec,6734d67a93fe5b564f9395fb,2024-11-13_17h43.35.984,Tarea de género gramatical,2024.2.2,Win32,89.92805755,,,,,,,,,,,,,,,,,,,,,,,,479.816,480.919,a,1,0.443,,[],[],[],[],[],[],[],0.443,1,480.922,481.414,,,,,,165,FEM,DIS,150,amiga,el,a,481.414,481.415,0.103333333,-0.383333333,0,0,0,,0,252,252,164,1,,,,,
,,,,,,40b45f9a70cc0d1df079c7a4,66a626ef09d4e21e1a8894ec,6734d67a93fe5b564f9395fb,2024-11-13_17h43.35.984,Tarea de género gramatical,2024.2.2,Win32,89.92805755,,,,,,,,,,,,,,,,,,,,,,,,481.423,482.425,l,1,0.34,,[],[],[],[],[],[],[],0.34,1,482.426,482.923,,,,,,4,MAS,AGR,150,hijo,el,l,482.923,482.924,0.103333333,-0.383333333,0,0,0,,0,253,253,3,1,,,,,
,,,,,,40b45f9a70cc0d1df079c7a4,66a626ef09d4e21e1a8894ec,6734d67a93fe5b564f9395fb,2024-11-13_17h43.35.984,Tarea de género gramatical,2024.2.2,Win32,89.92805755,,,,,,,,,,,,,,,,,,,,,,,,482.926,484.024,l,1,0.426,,[],[],[],[],[],[],[],0.426,1,484.024,484.523,,,,,,245,MAS,CON,150,turno,,l,484.526,484.529,0.103333333,-0.383333333,0,0,0,,0,254,254,244,1,,,,,
,,,,,,40b45f9a70cc0d1df079c7a4,66a626ef09d4e21e1a8894ec,6734d67a93fe5b564f9395fb,2024-11-13_17h43.35.984,Tarea de género gramatical,2024.2.2,Win32,89.92805755,,,,,,,,,,,,,,,,,,,,,,,,484.531,485.619,a,1,0.42,,[],[],[],[],[],[],[],0.42,1,485.621,486.114,,,,,,110,FEM,CON,150,rosa,,a,486.114,486.114,0.103333333,-0.383333333,0,0,0,,0,255,255,109,1,,,,,
,,,,,,40b45f9a70cc0d1df079c7a4,66a626ef09d4e21e1a8894ec,6734d67a93fe5b564f9395fb,2024-11-13_17h43.35.984,Tarea de género gramatical,2024.2.2,Win32,89.92805755,,,,,,,,,,,,,,,,,,,,,,,,486.117,487.243,a,1,0.464,,[],[],[],[],[],[],[],0.464,1,487.243,487.738,,,,,,397,FEM,AGR,150,cuerda,la,a,487.738,487.738,0.103333333,-0.383333333,0,0,0,,0,256,256,396,1,,,,,
,,,,,,40b45f9a70cc0d1df079c7a4,66a626ef09d4e21e1a8894ec,6734d67a93fe5b564f9395fb,2024-11-13_17h43.35.984,Tarea de género gramatical,2024.2.2,Win32,89.92805755,,,,,,,,,,,,,,,,,,,,,,,,487.738,488.826,a,0,0.414,,[],[],[],[],[],[],[],0.414,0,488.828,489.325,,,,,,46,MAS,AGR,150,odio,el,l,489.325,489.325,0.103333333,-0.383333333,0,0,0,,0,257,257,45,1,,,,,
,,,,,,40b45f9a70cc0d1df079c7a4,66a626ef09d4e21e1a8894ec,6734d67a93fe5b564f9395fb,2024-11-13_17h43.35.984,Tarea de género gramatical,2024.2.2,Win32,89.92805755,,,,,,,,,,,,,,,,,,,,,,,,489.328,490.393,l,1,0.403,,[],[],[],[],[],[],[],0.403,1,490.395,490.891,,,,,,268,MAS,AGR,150,truco,el,l,490.893,490.896,0.103333333,-0.383333333,0,0,0,,0,258,258,267,1,,,,,
,,,,,,40b45f9a70cc0d1df079c7a4,66a626ef09d4e21e1a8894ec,6734d67a93fe5b564f9395fb,2024-11-13_17h43.35.984,Tarea de género gramatical,2024.2.2,Win32,89.92805755,,,,,,,,,,,,,,,,,,,,,,,,490.897,491.943,a,1,0.381,,[],[],[],[],[],[],[],0.381,1,491.943,492.444,,,,,,206,FEM,CON,150,época,,a,492.444,492.444,0.103333333,-0.383333333,0,0,0,,0,259,259,205,1,,,,,
