counterbalancing_condition,consent_prescreening.block_1/declare_consent,consent_prescreening.block_1/age_years,consent_prescreening.block_1/gender,consent_prescreening.block_1/language_disorder,consent_prescreening.block_1/first_language,PROLIFIC_PID,STUDY_ID,SESSION_ID,date,expName,psychopyVersion,OS,frameRate,check_prescreening_answers.started,check_prescreening_answers.stopped,Instructions.started,Instructions.stopped,instr_done_keyboard.keys,instr_done_touch.x,instr_done_touch.y,instr_done_touch.leftButton,instr_done_touch.midButton,instr_done_touch.rightButton,instr_done_touch.clicked_name,instruction_pages.thisRepN,instruction_pages.thisTrialN,instruction_pages.thisN,instruction_pages.thisIndex,instruction_pages.ran,pageN,phase,instruct_text,has_image,instruct_image,presentTrial.started,presentTrial.stopped,response.keys,response.corr,touch_resp.x,touch_resp.y,touch_resp.leftButton,touch_resp.midButton,touch_resp.rightButton,touch_resp.time,touch_resp.clicked_name,rt,corr,feedback.started,feedback.stopped,practice_trials.thisRepN,practice_trials.thisTrialN,practice_trials.thisN,practice_trials.thisIndex,practice_trials.ran,TrialID,StimulusType,Condition,PrimeDuration,Prime,Flanker,corrAns,response.rt,response.duration,instr_done_keyboard.rt,instr_done_keyboard.duration,Break.started,Break.stopped,break_done_touch.x,break_done_touch.y,break_done_touch.leftButton,break_done_touch.midButton,break_done_touch.rightButton,break_done_keyboard.keys,experiment_trials.thisRepN,experiment_trials.thisTrialN,experiment_trials.thisN,experiment_trials.thisIndex,experiment_trials.ran,break_done_keyboard.rt,break_done_keyboard.duration,End.started,End.stopped
1,"[""over_18"",""comfortable"",""read_info"",""consent_given""]",32,M,"[""none""]","[""spanish""]",452419b4f4da858c8aa6c3c2,66a626ef09d4e21e1a8894ec,673497f24ad8bb9df84cf938,2024-11-13_13h14.58.350,Tarea de género gramatical,2024.2.2,Win32,59.88023952,,,,,,,,,,,,,,,,,,,,,,,,,,,,,,,,,,,,,,,,,,,,,,,,,,,,,,,,,,,,,,,,,,,,,
,,,,,,452419b4f4da858c8aa6c3c2,66a626ef09d4e21e1a8894ec,673497f24ad8bb9df84cf938,2024-11-13_13h14.58.350,Tarea de género gramatical,2024.2.2,Win32,59.88023952,29.9843,29.9846,,,,,,,,,,,,,,,,,,,,,,,,,,,,,,,,,,,,,,,,,,,,,,,,,,,,,,,,,,,,,,,,,,,
,,,,,,452419b4f4da858c8aa6c3c2,66a626ef09d4e21e1a8894ec,673497f24ad8bb9df84cf938,2024-11-13_13h14.58.350,Tarea de género gramatical,2024.2.2,Win32,59.88023952,,,30.0771,34.289,,0.06640625,-0.40234375,1,0,0,instr_done_button,0,0,0,0,1,1,instructions,"INSTRUCCIONES
Va a realizar una prueba de selección gramatical. Desde el comienzo de la prueba mire siempre al centro de la pantalla. Al cabo de un momento, aparecerán palabras. La tarea consiste en determinar si la palabra del centro (siempre será un sustantivo), pertenece al género masculino o femenino.

Pulse la tecla ESPACIO o toque el botón de abajo para continuar.",0,keyboardresponseMF.png,,,,,,,,,,,,,,,,,,,,,,,,,,,,,,,,,,,,,,,,,,,,,,,,
,,,,,,452419b4f4da858c8aa6c3c2,66a626ef09d4e21e1a8894ec,673497f24ad8bb9df84cf938,2024-11-13_13h14.58.350,Tarea de género gramatical,2024.2.2,Win32,59.88023952,,,34.2978,36.8782,,0.0390625,-0.3984375,1,0,0,instr_done_button,0,1,1,1,1,2,instructions,"Si su dispositivo tiene teclado, pulse la tecla ""A"" para las palabras en masculino (por ejemplo: ""arroz"") y la tecla ""L"" para las palabras en femenino (por ejemplo: ""mano"").
Pulse la tecla ESPACIO o toque el botón de abajo para continuar.",1,keyboardresponseMF.png,,,,,,,,,,,,,,,,,,,,,,,,,,,,,,,,,,,,,,,,,,,,,,,,
,,,,,,452419b4f4da858c8aa6c3c2,66a626ef09d4e21e1a8894ec,673497f24ad8bb9df84cf938,2024-11-13_13h14.58.350,Tarea de género gramatical,2024.2.2,Win32,59.88023952,,,36.8836,39.5616,,0.037760417,-0.397135417,1,0,0,instr_done_button,0,2,2,2,1,3,instructions,"Si utiliza un dispositivo sólo táctil, colóquelo en horizontal y utilice los botones de la pantalla. No utilice el ratón.
Pulse la tecla ESPACIO o toque el botón de abajo para continuar.",2,touchresponseMF.png,,,,,,,,,,,,,,,,,,,,,,,,,,,,,,,,,,,,,,,,,,,,,,,,
,,,,,,452419b4f4da858c8aa6c3c2,66a626ef09d4e21e1a8894ec,673497f24ad8bb9df84cf938,2024-11-13_13h14.58.350,Tarea de género gramatical,2024.2.2,Win32,59.88023952,,,39.5749,45.7247,,0.037760417,-0.397135417,1,0,0,instr_done_button,0,3,3,3,1,4,instructions,"Es muy importante que responda con la mayor rapidez y precisión posibles, ya que cada cadena de letras sólo estará en pantalla durante un instante. Si no responde en ese tiempo, aparecerá el mensaje ""Muy lento"" y el experimento pasará a la siguiente palabra. Los primeros 15 intentos serán de práctica y habrá dos descansos durante la prueba.
Pulse la tecla ESPACIO o toque el botón de abajo para iniciar la parte de práctica.",0,keyboardresponseMF.png,,,,,,,,,,,,,,,,,,,,,,,,,,,,,,,,,,,,,,,,,,,,,,,,
,,,,,,452419b4f4da858c8aa6c3c2,66a626ef09d4e21e1a8894ec,673497f24ad8bb9df84cf938,2024-11-13_13h14.58.350,Tarea de género gramatical,2024.2.2,Win32,59.88023952,,,,,,,,,,,,,,,,,,,,,,45.7712,48.411,,0,[],[],[],[],[],[],[],,-1,48.4124,48.9108,0,0,0,5,1,2006,FEM,DIS,150,serie,el,a,,,,,,,,,,,,,,,,,,,,,
,,,,,,452419b4f4da858c8aa6c3c2,66a626ef09d4e21e1a8894ec,673497f24ad8bb9df84cf938,2024-11-13_13h14.58.350,Tarea de género gramatical,2024.2.2,Win32,59.88023952,,,,,,,,,,,,,,,,,,,,,,48.9159,50.3153,l,1,[],[],[],[],[],[],[],0.7187,1,50.3401,50.8067,0,1,1,6,1,2007,FEM,AGR,150,navaja,la,a,0.7187,,,,,,,,,,,,,,,,,,,,
,,,,,,452419b4f4da858c8aa6c3c2,66a626ef09d4e21e1a8894ec,673497f24ad8bb9df84cf938,2024-11-13_13h14.58.350,Tarea de género gramatical,2024.2.2,Win32,59.88023952,,,,,,,,,,,,,,,,,,,,,,50.8113,51.9771,a,0,[],[],[],[],[],[],[],0.4965,0,51.9799,52.4772,0,2,2,2,1,2003,FEM,DIS,150,daga,el,a,0.4965,,,,,,,,,,,,,,,,,,,,
,,,,,,452419b4f4da858c8aa6c3c2,66a626ef09d4e21e1a8894ec,673497f24ad8bb9df84cf938,2024-11-13_13h14.58.350,Tarea de género gramatical,2024.2.2,Win32,59.88023952,,,,,,,,,,,,,,,,,,,,,,52.4794,53.7097,l,1,[],[],[],[],[],[],[],0.5508,1,53.7135,54.212,0,3,3,3,1,2004,FEM,AGR,150,venta,la,a,0.5508,,,,,,,,,,,,,,,,,,,,
,,,,,,452419b4f4da858c8aa6c3c2,66a626ef09d4e21e1a8894ec,673497f24ad8bb9df84cf938,2024-11-13_13h14.58.350,Tarea de género gramatical,2024.2.2,Win32,59.88023952,,,,,,,,,,,,,,,,,,,,,,54.2156,55.3588,l,1,[],[],[],[],[],[],[],0.4668,1,55.3589,55.8593,0,4,4,1,1,2002,FEM,CON,150,pala,,a,0.4668,,,,,,,,,,,,,,,,,,,,
,,,,,,452419b4f4da858c8aa6c3c2,66a626ef09d4e21e1a8894ec,673497f24ad8bb9df84cf938,2024-11-13_13h14.58.350,Tarea de género gramatical,2024.2.2,Win32,59.88023952,,,,,,,,,,,,,,,,,,,,,,55.8625,56.8928,l,1,[],[],[],[],[],[],[],0.3623,1,56.893,57.3894,0,5,5,4,1,2005,FEM,CON,150,placa,,a,0.3623,,,,,,,,,,,,,,,,,,,,
,,,,,,452419b4f4da858c8aa6c3c2,66a626ef09d4e21e1a8894ec,673497f24ad8bb9df84cf938,2024-11-13_13h14.58.350,Tarea de género gramatical,2024.2.2,Win32,59.88023952,,,,,,,,,,,,,,,,,,,,,,57.3927,58.5117,a,1,[],[],[],[],[],[],[],0.4459,1,58.512,59.0064,0,6,6,14,1,2015,MAS,DIS,150,robot,la,l,0.4459,,,,,,,,,,,,,,,,,,,,
,,,,,,452419b4f4da858c8aa6c3c2,66a626ef09d4e21e1a8894ec,673497f24ad8bb9df84cf938,2024-11-13_13h14.58.350,Tarea de género gramatical,2024.2.2,Win32,59.88023952,,,,,,,,,,,,,,,,,,,,,,59.0121,60.0893,a,1,[],[],[],[],[],[],[],0.4023,1,60.0896,60.5894,0,7,7,8,1,2009,MAS,DIS,150,puerto,la,l,0.4023,,,,,,,,,,,,,,,,,,,,
,,,,,,452419b4f4da858c8aa6c3c2,66a626ef09d4e21e1a8894ec,673497f24ad8bb9df84cf938,2024-11-13_13h14.58.350,Tarea de género gramatical,2024.2.2,Win32,59.88023952,,,,,,,,,,,,,,,,,,,,,,60.5919,61.6235,a,1,[],[],[],[],[],[],[],0.3555,1,61.6237,62.123,0,8,8,13,1,2014,MAS,CON,150,siglo,,l,0.3555,,,,,,,,,,,,,,,,,,,,
,,,,,,452419b4f4da858c8aa6c3c2,66a626ef09d4e21e1a8894ec,673497f24ad8bb9df84cf938,2024-11-13_13h14.58.350,Tarea de género gramatical,2024.2.2,Win32,59.88023952,,,,,,,,,,,,,,,,,,,,,,62.1261,63.1887,a,1,[],[],[],[],[],[],[],0.386,1,63.1889,63.689,0,9,9,9,1,2010,MAS,AGR,150,vecino,el,l,0.386,,,,,,,,,,,,,,,,,,,,
,,,,,,452419b4f4da858c8aa6c3c2,66a626ef09d4e21e1a8894ec,673497f24ad8bb9df84cf938,2024-11-13_13h14.58.350,Tarea de género gramatical,2024.2.2,Win32,59.88023952,,,,,,,,,,,,,,,,,,,,,,63.6908,64.6888,l,1,[],[],[],[],[],[],[],0.3185,1,64.689,65.1887,0,10,10,7,1,2008,FEM,CON,150,siesta,,a,0.3185,,,,,,,,,,,,,,,,,,,,
,,,,,,452419b4f4da858c8aa6c3c2,66a626ef09d4e21e1a8894ec,673497f24ad8bb9df84cf938,2024-11-13_13h14.58.350,Tarea de género gramatical,2024.2.2,Win32,59.88023952,,,,,,,,,,,,,,,,,,,,,,65.1917,66.189,a,1,[],[],[],[],[],[],[],0.3256,1,66.1892,66.6886,0,11,11,12,1,2013,MAS,AGR,150,acero,el,l,0.3256,,,,,,,,,,,,,,,,,,,,
,,,,,,452419b4f4da858c8aa6c3c2,66a626ef09d4e21e1a8894ec,673497f24ad8bb9df84cf938,2024-11-13_13h14.58.350,Tarea de género gramatical,2024.2.2,Win32,59.88023952,,,,,,,,,,,,,,,,,,,,,,66.692,67.6391,l,0,[],[],[],[],[],[],[],0.268,0,67.6405,68.1392,0,12,12,11,1,2012,MAS,DIS,150,clima,la,l,0.268,,,,,,,,,,,,,,,,,,,,
,,,,,,452419b4f4da858c8aa6c3c2,66a626ef09d4e21e1a8894ec,673497f24ad8bb9df84cf938,2024-11-13_13h14.58.350,Tarea de género gramatical,2024.2.2,Win32,59.88023952,,,,,,,,,,,,,,,,,,,,,,68.1413,69.1903,a,1,[],[],[],[],[],[],[],0.3813,1,69.1921,69.6905,0,13,13,10,1,2011,MAS,CON,150,canal,,l,0.3813,,,,,,,,,,,,,,,,,,,,
,,,,,,452419b4f4da858c8aa6c3c2,66a626ef09d4e21e1a8894ec,673497f24ad8bb9df84cf938,2024-11-13_13h14.58.350,Tarea de género gramatical,2024.2.2,Win32,59.88023952,,,,,,,,,,,,,,,,,,,,,,69.6929,70.6737,l,1,[],[],[],[],[],[],[],0.2981,1,70.6738,71.1736,0,14,14,0,1,2001,FEM,AGR,150,nuca,la,a,0.2981,,,,,,,,,,,,,,,,,,,,
,,,,,,452419b4f4da858c8aa6c3c2,66a626ef09d4e21e1a8894ec,673497f24ad8bb9df84cf938,2024-11-13_13h14.58.350,Tarea de género gramatical,2024.2.2,Win32,59.88023952,,,72.3393,73.5593,space,0.040364583,-0.388020833,0,0,0,,,,,,,,,,,,73.7191,75.4214,a,1,[],[],[],[],[],[],[],1.0202,1,75.4217,75.9214,,,,,,491,MAS,DIS,150,bote,la,l,1.0202,,1.2077,,75.922,75.9306,0.040364583,-0.388020833,0,0,0,,0,0,0,40,1,,,,
,,,,,,452419b4f4da858c8aa6c3c2,66a626ef09d4e21e1a8894ec,673497f24ad8bb9df84cf938,2024-11-13_13h14.58.350,Tarea de género gramatical,2024.2.2,Win32,59.88023952,,,,,,,,,,,,,,,,,,,,,,75.9323,76.9878,l,1,[],[],[],[],[],[],[],0.3904,1,76.988,77.4881,,,,,,501,FEM,AGR,150,bala,la,a,0.3904,,,,77.4884,77.4887,0.040364583,-0.388020833,0,0,0,,0,1,1,50,1,,,,
,,,,,,452419b4f4da858c8aa6c3c2,66a626ef09d4e21e1a8894ec,673497f24ad8bb9df84cf938,2024-11-13_13h14.58.350,Tarea de género gramatical,2024.2.2,Win32,59.88023952,,,,,,,,,,,,,,,,,,,,,,77.4921,78.6741,l,1,[],[],[],[],[],[],[],0.5155,1,78.6744,79.1711,,,,,,500,FEM,DIS,150,dama,el,a,0.5155,,,,79.1752,79.177,0.040364583,-0.388020833,0,0,0,,0,2,2,49,1,,,,
,,,,,,452419b4f4da858c8aa6c3c2,66a626ef09d4e21e1a8894ec,673497f24ad8bb9df84cf938,2024-11-13_13h14.58.350,Tarea de género gramatical,2024.2.2,Win32,59.88023952,,,,,,,,,,,,,,,,,,,,,,79.1788,80.1555,a,1,[],[],[],[],[],[],[],0.2942,1,80.1558,80.6579,,,,,,599,MAS,DIS,150,nudo,la,l,0.2942,,,,80.6581,80.6587,0.040364583,-0.388020833,0,0,0,,0,3,3,148,1,,,,
,,,,,,452419b4f4da858c8aa6c3c2,66a626ef09d4e21e1a8894ec,673497f24ad8bb9df84cf938,2024-11-13_13h14.58.350,Tarea de género gramatical,2024.2.2,Win32,59.88023952,,,,,,,,,,,,,,,,,,,,,,80.6633,81.6883,a,1,[],[],[],[],[],[],[],0.3469,1,81.6886,82.1903,,,,,,665,MAS,DIS,150,hueso,la,l,0.3469,,,,82.1904,82.1907,0.040364583,-0.388020833,0,0,0,,0,4,4,214,1,,,,
,,,,,,452419b4f4da858c8aa6c3c2,66a626ef09d4e21e1a8894ec,673497f24ad8bb9df84cf938,2024-11-13_13h14.58.350,Tarea de género gramatical,2024.2.2,Win32,59.88023952,,,,,,,,,,,,,,,,,,,,,,82.1927,83.1881,l,1,[],[],[],[],[],[],[],0.3274,1,83.1886,83.6909,,,,,,831,FEM,AGR,150,bebida,la,a,0.3274,,,,83.691,83.6913,0.040364583,-0.388020833,0,0,0,,0,5,5,380,1,,,,
,,,,,,452419b4f4da858c8aa6c3c2,66a626ef09d4e21e1a8894ec,673497f24ad8bb9df84cf938,2024-11-13_13h14.58.350,Tarea de género gramatical,2024.2.2,Win32,59.88023952,,,,,,,,,,,,,,,,,,,,,,83.6931,84.7209,a,1,[],[],[],[],[],[],[],0.3571,1,84.721,85.2209,,,,,,828,MAS,AGR,150,pastel,el,l,0.3571,,,,85.2261,85.2283,0.040364583,-0.388020833,0,0,0,,0,6,6,377,1,,,,
,,,,,,452419b4f4da858c8aa6c3c2,66a626ef09d4e21e1a8894ec,673497f24ad8bb9df84cf938,2024-11-13_13h14.58.350,Tarea de género gramatical,2024.2.2,Win32,59.88023952,,,,,,,,,,,,,,,,,,,,,,85.2309,86.2243,l,1,[],[],[],[],[],[],[],0.3143,1,86.2247,86.7215,,,,,,770,FEM,DIS,150,fiesta,el,a,0.3143,,,,86.7217,86.722,0.040364583,-0.388020833,0,0,0,,0,7,7,319,1,,,,
,,,,,,452419b4f4da858c8aa6c3c2,66a626ef09d4e21e1a8894ec,673497f24ad8bb9df84cf938,2024-11-13_13h14.58.350,Tarea de género gramatical,2024.2.2,Win32,59.88023952,,,,,,,,,,,,,,,,,,,,,,86.7243,87.7749,a,1,[],[],[],[],[],[],[],0.3679,1,87.775,88.271,,,,,,456,MAS,AGR,150,lado,el,l,0.3679,,,,88.2712,88.2714,0.040364583,-0.388020833,0,0,0,,0,8,8,5,1,,,,
,,,,,,452419b4f4da858c8aa6c3c2,66a626ef09d4e21e1a8894ec,673497f24ad8bb9df84cf938,2024-11-13_13h14.58.350,Tarea de género gramatical,2024.2.2,Win32,59.88023952,,,,,,,,,,,,,,,,,,,,,,88.2732,89.3574,l,1,[],[],[],[],[],[],[],0.4094,1,89.3577,89.8568,,,,,,482,FEM,DIS,150,caja,el,a,0.4094,,,,89.8569,89.8574,0.040364583,-0.388020833,0,0,0,,0,9,9,31,1,,,,
,,,,,,452419b4f4da858c8aa6c3c2,66a626ef09d4e21e1a8894ec,673497f24ad8bb9df84cf938,2024-11-13_13h14.58.350,Tarea de género gramatical,2024.2.2,Win32,59.88023952,,,,,,,,,,,,,,,,,,,,,,89.861,90.889,a,1,[],[],[],[],[],[],[],0.3617,1,90.8892,91.3895,,,,,,720,MAS,AGR,150,queso,el,l,0.3617,,,,91.3896,91.39,0.040364583,-0.388020833,0,0,0,,0,10,10,269,1,,,,
,,,,,,452419b4f4da858c8aa6c3c2,66a626ef09d4e21e1a8894ec,673497f24ad8bb9df84cf938,2024-11-13_13h14.58.350,Tarea de género gramatical,2024.2.2,Win32,59.88023952,,,,,,,,,,,,,,,,,,,,,,91.3921,92.4708,l,1,[],[],[],[],[],[],[],0.3958,1,92.4708,92.971,,,,,,788,FEM,DIS,150,abuela,el,a,0.3958,,,,92.9786,92.9807,0.040364583,-0.388020833,0,0,0,,0,11,11,337,1,,,,
,,,,,,452419b4f4da858c8aa6c3c2,66a626ef09d4e21e1a8894ec,673497f24ad8bb9df84cf938,2024-11-13_13h14.58.350,Tarea de género gramatical,2024.2.2,Win32,59.88023952,,,,,,,,,,,,,,,,,,,,,,92.9829,93.9941,a,1,[],[],[],[],[],[],[],0.3483,1,93.9944,94.4896,,,,,,862,MAS,CON,150,espejo,,l,0.3483,,,,94.4897,94.4901,0.040364583,-0.388020833,0,0,0,,0,12,12,411,1,,,,
,,,,,,452419b4f4da858c8aa6c3c2,66a626ef09d4e21e1a8894ec,673497f24ad8bb9df84cf938,2024-11-13_13h14.58.350,Tarea de género gramatical,2024.2.2,Win32,59.88023952,,,,,,,,,,,,,,,,,,,,,,94.4927,95.5232,l,1,[],[],[],[],[],[],[],0.3644,1,95.5233,96.0211,,,,,,505,FEM,CON,150,taza,,a,0.3644,,,,96.0213,96.0215,0.040364583,-0.388020833,0,0,0,,0,13,13,54,1,,,,
,,,,,,452419b4f4da858c8aa6c3c2,66a626ef09d4e21e1a8894ec,673497f24ad8bb9df84cf938,2024-11-13_13h14.58.350,Tarea de género gramatical,2024.2.2,Win32,59.88023952,,,,,,,,,,,,,,,,,,,,,,96.0245,97.0876,a,1,[],[],[],[],[],[],[],0.3881,1,97.0878,97.5935,,,,,,846,MAS,AGR,150,tesoro,el,l,0.3881,,,,97.5936,97.5939,0.040364583,-0.388020833,0,0,0,,0,14,14,395,1,,,,
,,,,,,452419b4f4da858c8aa6c3c2,66a626ef09d4e21e1a8894ec,673497f24ad8bb9df84cf938,2024-11-13_13h14.58.350,Tarea de género gramatical,2024.2.2,Win32,59.88023952,,,,,,,,,,,,,,,,,,,,,,97.5967,98.5869,a,1,[],[],[],[],[],[],[],0.3085,1,98.587,99.0874,,,,,,796,MAS,CON,150,juicio,,l,0.3085,,,,99.0937,99.0957,0.040364583,-0.388020833,0,0,0,,0,15,15,345,1,,,,
,,,,,,452419b4f4da858c8aa6c3c2,66a626ef09d4e21e1a8894ec,673497f24ad8bb9df84cf938,2024-11-13_13h14.58.350,Tarea de género gramatical,2024.2.2,Win32,59.88023952,,,,,,,,,,,,,,,,,,,,,,99.0985,100.1372,a,1,[],[],[],[],[],[],[],0.3621,1,100.1375,100.6393,,,,,,863,MAS,DIS,150,diario,la,l,0.3621,,,,100.6395,100.6398,0.040364583,-0.388020833,0,0,0,,0,16,16,412,1,,,,
,,,,,,452419b4f4da858c8aa6c3c2,66a626ef09d4e21e1a8894ec,673497f24ad8bb9df84cf938,2024-11-13_13h14.58.350,Tarea de género gramatical,2024.2.2,Win32,59.88023952,,,,,,,,,,,,,,,,,,,,,,100.6421,101.5869,l,1,[],[],[],[],[],[],[],0.2612,1,101.5872,102.0889,,,,,,639,FEM,AGR,150,pista,la,a,0.2612,,,,102.089,102.0892,0.040364583,-0.388020833,0,0,0,,0,17,17,188,1,,,,
,,,,,,452419b4f4da858c8aa6c3c2,66a626ef09d4e21e1a8894ec,673497f24ad8bb9df84cf938,2024-11-13_13h14.58.350,Tarea de género gramatical,2024.2.2,Win32,59.88023952,,,,,,,,,,,,,,,,,,,,,,102.0911,103.0401,a,1,[],[],[],[],[],[],[],0.2799,1,103.0404,103.5372,,,,,,454,MAS,CON,150,hijo,,l,0.2799,,,,103.5373,103.5375,0.040364583,-0.388020833,0,0,0,,0,18,18,3,1,,,,
,,,,,,452419b4f4da858c8aa6c3c2,66a626ef09d4e21e1a8894ec,673497f24ad8bb9df84cf938,2024-11-13_13h14.58.350,Tarea de género gramatical,2024.2.2,Win32,59.88023952,,,,,,,,,,,,,,,,,,,,,,103.5395,104.5068,l,1,[],[],[],[],[],[],[],0.284,1,104.5071,105.0055,,,,,,811,FEM,CON,150,oferta,,a,0.284,,,,105.0057,105.0061,0.040364583,-0.388020833,0,0,0,,0,19,19,360,1,,,,
,,,,,,452419b4f4da858c8aa6c3c2,66a626ef09d4e21e1a8894ec,673497f24ad8bb9df84cf938,2024-11-13_13h14.58.350,Tarea de género gramatical,2024.2.2,Win32,59.88023952,,,,,,,,,,,,,,,,,,,,,,105.0087,106.0202,a,1,[],[],[],[],[],[],[],0.3412,1,106.0203,106.5107,,,,,,820,MAS,CON,150,seguro,,l,0.3412,,,,106.5199,106.5223,0.040364583,-0.388020833,0,0,0,,0,20,20,369,1,,,,
,,,,,,452419b4f4da858c8aa6c3c2,66a626ef09d4e21e1a8894ec,673497f24ad8bb9df84cf938,2024-11-13_13h14.58.350,Tarea de género gramatical,2024.2.2,Win32,59.88023952,,,,,,,,,,,,,,,,,,,,,,106.5255,107.5874,a,0,[],[],[],[],[],[],[],0.376,0,107.5907,108.0884,,,,,,783,FEM,AGR,150,locura,la,a,0.376,,,,108.0885,108.0886,0.040364583,-0.388020833,0,0,0,,0,21,21,332,1,,,,
,,,,,,452419b4f4da858c8aa6c3c2,66a626ef09d4e21e1a8894ec,673497f24ad8bb9df84cf938,2024-11-13_13h14.58.350,Tarea de género gramatical,2024.2.2,Win32,59.88023952,,,,,,,,,,,,,,,,,,,,,,108.0909,109.1569,l,1,[],[],[],[],[],[],[],0.3845,1,109.1599,109.6558,,,,,,741,FEM,AGR,150,aguja,la,a,0.3845,,,,109.6559,109.6563,0.040364583,-0.388020833,0,0,0,,0,22,22,290,1,,,,
,,,,,,452419b4f4da858c8aa6c3c2,66a626ef09d4e21e1a8894ec,673497f24ad8bb9df84cf938,2024-11-13_13h14.58.350,Tarea de género gramatical,2024.2.2,Win32,59.88023952,,,,,,,,,,,,,,,,,,,,,,109.659,110.6903,a,1,[],[],[],[],[],[],[],0.3679,1,110.6905,111.1864,,,,,,834,MAS,AGR,150,pedazo,el,l,0.3679,,,,111.1865,111.1867,0.040364583,-0.388020833,0,0,0,,0,23,23,383,1,,,,
,,,,,,452419b4f4da858c8aa6c3c2,66a626ef09d4e21e1a8894ec,673497f24ad8bb9df84cf938,2024-11-13_13h14.58.350,Tarea de género gramatical,2024.2.2,Win32,59.88023952,,,,,,,,,,,,,,,,,,,,,,111.1887,112.2533,a,1,[],[],[],[],[],[],[],0.4001,1,112.2535,112.753,,,,,,683,MAS,DIS,150,golpe,la,l,0.4001,,,,112.7594,112.7628,0.040364583,-0.388020833,0,0,0,,0,24,24,232,1,,,,
,,,,,,452419b4f4da858c8aa6c3c2,66a626ef09d4e21e1a8894ec,673497f24ad8bb9df84cf938,2024-11-13_13h14.58.350,Tarea de género gramatical,2024.2.2,Win32,59.88023952,,,,,,,,,,,,,,,,,,,,,,112.7656,113.8526,a,1,[],[],[],[],[],[],[],0.4104,1,113.8527,114.3589,,,,,,790,MAS,CON,150,pasado,,l,0.4104,,,,114.3591,114.3594,0.040364583,-0.388020833,0,0,0,,0,25,25,339,1,,,,
,,,,,,452419b4f4da858c8aa6c3c2,66a626ef09d4e21e1a8894ec,673497f24ad8bb9df84cf938,2024-11-13_13h14.58.350,Tarea de género gramatical,2024.2.2,Win32,59.88023952,,,,,,,,,,,,,,,,,,,,,,114.3626,115.3063,l,1,[],[],[],[],[],[],[],0.2692,1,115.3065,115.8086,,,,,,771,FEM,AGR,150,comida,la,a,0.2692,,,,115.8087,115.809,0.040364583,-0.388020833,0,0,0,,0,26,26,320,1,,,,
,,,,,,452419b4f4da858c8aa6c3c2,66a626ef09d4e21e1a8894ec,673497f24ad8bb9df84cf938,2024-11-13_13h14.58.350,Tarea de género gramatical,2024.2.2,Win32,59.88023952,,,,,,,,,,,,,,,,,,,,,,115.8113,116.7562,l,1,[],[],[],[],[],[],[],0.2674,1,116.7565,117.2525,,,,,,595,FEM,CON,150,bota,,a,0.2674,,,,117.2527,117.2529,0.040364583,-0.388020833,0,0,0,,0,27,27,144,1,,,,
,,,,,,452419b4f4da858c8aa6c3c2,66a626ef09d4e21e1a8894ec,673497f24ad8bb9df84cf938,2024-11-13_13h14.58.350,Tarea de género gramatical,2024.2.2,Win32,59.88023952,,,,,,,,,,,,,,,,,,,,,,117.2547,118.2041,l,1,[],[],[],[],[],[],[],0.2818,1,118.2044,118.7052,,,,,,589,FEM,CON,150,pipa,,a,0.2818,,,,118.7054,118.7058,0.040364583,-0.388020833,0,0,0,,0,28,28,138,1,,,,
,,,,,,452419b4f4da858c8aa6c3c2,66a626ef09d4e21e1a8894ec,673497f24ad8bb9df84cf938,2024-11-13_13h14.58.350,Tarea de género gramatical,2024.2.2,Win32,59.88023952,,,,,,,,,,,,,,,,,,,,,,118.7076,119.6696,a,1,[],[],[],[],[],[],[],0.278,1,119.6698,120.1693,,,,,,496,MAS,CON,150,odio,,l,0.278,,,,120.1748,120.1764,0.040364583,-0.388020833,0,0,0,,0,29,29,45,1,,,,
,,,,,,452419b4f4da858c8aa6c3c2,66a626ef09d4e21e1a8894ec,673497f24ad8bb9df84cf938,2024-11-13_13h14.58.350,Tarea de género gramatical,2024.2.2,Win32,59.88023952,,,,,,,,,,,,,,,,,,,,,,120.1779,121.2059,l,1,[],[],[],[],[],[],[],0.3508,1,121.2063,121.7033,,,,,,644,FEM,DIS,150,banda,el,a,0.3508,,,,121.7034,121.7037,0.040364583,-0.388020833,0,0,0,,0,30,30,193,1,,,,
,,,,,,452419b4f4da858c8aa6c3c2,66a626ef09d4e21e1a8894ec,673497f24ad8bb9df84cf938,2024-11-13_13h14.58.350,Tarea de género gramatical,2024.2.2,Win32,59.88023952,,,,,,,,,,,,,,,,,,,,,,121.707,122.6854,a,0,[],[],[],[],[],[],[],0.3037,0,122.6869,123.1864,,,,,,602,FEM,DIS,150,gente,el,a,0.3037,,,,123.1864,123.1868,0.040364583,-0.388020833,0,0,0,,0,31,31,151,1,,,,
,,,,,,452419b4f4da858c8aa6c3c2,66a626ef09d4e21e1a8894ec,673497f24ad8bb9df84cf938,2024-11-13_13h14.58.350,Tarea de género gramatical,2024.2.2,Win32,59.88023952,,,,,,,,,,,,,,,,,,,,,,123.1889,124.2365,l,1,[],[],[],[],[],[],[],0.3716,1,124.2389,124.738,,,,,,543,FEM,AGR,150,lata,la,a,0.3716,,,,124.738,124.7382,0.040364583,-0.388020833,0,0,0,,0,32,32,92,1,,,,
,,,,,,452419b4f4da858c8aa6c3c2,66a626ef09d4e21e1a8894ec,673497f24ad8bb9df84cf938,2024-11-13_13h14.58.350,Tarea de género gramatical,2024.2.2,Win32,59.88023952,,,,,,,,,,,,,,,,,,,,,,124.7402,126.1523,l,1,[],[],[],[],[],[],[],0.7241,1,126.1525,126.6537,,,,,,481,FEM,CON,150,edad,,a,0.7241,,,,126.6608,126.6633,0.040364583,-0.388020833,0,0,0,,0,33,33,30,1,,,,
,,,,,,452419b4f4da858c8aa6c3c2,66a626ef09d4e21e1a8894ec,673497f24ad8bb9df84cf938,2024-11-13_13h14.58.350,Tarea de género gramatical,2024.2.2,Win32,59.88023952,,,,,,,,,,,,,,,,,,,,,,126.6659,127.6565,l,1,[],[],[],[],[],[],[],0.3185,1,127.6568,128.1523,,,,,,789,FEM,AGR,150,salida,la,a,0.3185,,,,128.1524,128.1526,0.040364583,-0.388020833,0,0,0,,0,34,34,338,1,,,,
,,,,,,452419b4f4da858c8aa6c3c2,66a626ef09d4e21e1a8894ec,673497f24ad8bb9df84cf938,2024-11-13_13h14.58.350,Tarea de género gramatical,2024.2.2,Win32,59.88023952,,,,,,,,,,,,,,,,,,,,,,128.1554,129.1189,l,1,[],[],[],[],[],[],[],0.3067,1,129.1192,129.6184,,,,,,699,FEM,AGR,150,crema,la,a,0.3067,,,,129.6185,129.6188,0.040364583,-0.388020833,0,0,0,,0,35,35,248,1,,,,
,,,,,,452419b4f4da858c8aa6c3c2,66a626ef09d4e21e1a8894ec,673497f24ad8bb9df84cf938,2024-11-13_13h14.58.350,Tarea de género gramatical,2024.2.2,Win32,59.88023952,,,,,,,,,,,,,,,,,,,,,,129.6215,130.6056,a,1,[],[],[],[],[],[],[],0.3177,1,130.6059,131.1036,,,,,,528,MAS,AGR,150,oído,el,l,0.3177,,,,131.1039,131.1042,0.040364583,-0.388020833,0,0,0,,0,36,36,77,1,,,,
,,,,,,452419b4f4da858c8aa6c3c2,66a626ef09d4e21e1a8894ec,673497f24ad8bb9df84cf938,2024-11-13_13h14.58.350,Tarea de género gramatical,2024.2.2,Win32,59.88023952,,,,,,,,,,,,,,,,,,,,,,131.1081,132.0555,l,1,[],[],[],[],[],[],[],0.2815,1,132.0561,132.5553,,,,,,817,FEM,CON,150,teoría,,a,0.2815,,,,132.5554,132.5558,0.040364583,-0.388020833,0,0,0,,0,37,37,366,1,,,,
,,,,,,452419b4f4da858c8aa6c3c2,66a626ef09d4e21e1a8894ec,673497f24ad8bb9df84cf938,2024-11-13_13h14.58.350,Tarea de género gramatical,2024.2.2,Win32,59.88023952,,,,,,,,,,,,,,,,,,,,,,132.5584,133.552,l,1,[],[],[],[],[],[],[],0.3086,1,133.5524,134.0511,,,,,,692,FEM,DIS,150,pizza,el,a,0.3086,,,,134.0587,134.0614,0.040364583,-0.388020833,0,0,0,,0,38,38,241,1,,,,
,,,,,,452419b4f4da858c8aa6c3c2,66a626ef09d4e21e1a8894ec,673497f24ad8bb9df84cf938,2024-11-13_13h14.58.350,Tarea de género gramatical,2024.2.2,Win32,59.88023952,,,,,,,,,,,,,,,,,,,,,,134.0653,135.1347,l,1,[],[],[],[],[],[],[],0.4016,1,135.135,135.6386,,,,,,518,FEM,DIS,150,pata,el,a,0.4016,,,,135.6388,135.6391,0.040364583,-0.388020833,0,0,0,,0,39,39,67,1,,,,
,,,,,,452419b4f4da858c8aa6c3c2,66a626ef09d4e21e1a8894ec,673497f24ad8bb9df84cf938,2024-11-13_13h14.58.350,Tarea de género gramatical,2024.2.2,Win32,59.88023952,,,,,,,,,,,,,,,,,,,,,,135.6419,136.6054,a,1,[],[],[],[],[],[],[],0.2843,1,136.6059,137.102,,,,,,628,MAS,CON,150,punto,,l,0.2843,,,,137.1021,137.1024,0.040364583,-0.388020833,0,0,0,,0,40,40,177,1,,,,
,,,,,,452419b4f4da858c8aa6c3c2,66a626ef09d4e21e1a8894ec,673497f24ad8bb9df84cf938,2024-11-13_13h14.58.350,Tarea de género gramatical,2024.2.2,Win32,59.88023952,,,,,,,,,,,,,,,,,,,,,,137.1054,138.0887,a,1,[],[],[],[],[],[],[],0.3171,1,138.0891,138.5871,,,,,,472,MAS,CON,150,pelo,,l,0.3171,,,,138.5871,138.5874,0.040364583,-0.388020833,0,0,0,,0,41,41,21,1,,,,
,,,,,,452419b4f4da858c8aa6c3c2,66a626ef09d4e21e1a8894ec,673497f24ad8bb9df84cf938,2024-11-13_13h14.58.350,Tarea de género gramatical,2024.2.2,Win32,59.88023952,,,,,,,,,,,,,,,,,,,,,,138.59,139.5888,l,1,[],[],[],[],[],[],[],0.3301,1,139.589,140.0847,,,,,,626,FEM,DIS,150,línea,el,a,0.3301,,,,140.0901,140.0925,0.040364583,-0.388020833,0,0,0,,0,42,42,175,1,,,,
,,,,,,452419b4f4da858c8aa6c3c2,66a626ef09d4e21e1a8894ec,673497f24ad8bb9df84cf938,2024-11-13_13h14.58.350,Tarea de género gramatical,2024.2.2,Win32,59.88023952,,,,,,,,,,,,,,,,,,,,,,140.095,141.1845,l,1,[],[],[],[],[],[],[],0.4195,1,141.1849,141.6845,,,,,,651,FEM,AGR,150,leche,la,a,0.4195,,,,141.6846,141.685,0.040364583,-0.388020833,0,0,0,,0,43,43,200,1,,,,
,,,,,,452419b4f4da858c8aa6c3c2,66a626ef09d4e21e1a8894ec,673497f24ad8bb9df84cf938,2024-11-13_13h14.58.350,Tarea de género gramatical,2024.2.2,Win32,59.88023952,,,,,,,,,,,,,,,,,,,,,,141.687,142.7041,a,1,[],[],[],[],[],[],[],0.3466,1,142.7044,143.2039,,,,,,694,MAS,CON,150,hielo,,l,0.3466,,,,143.2041,143.2045,0.040364583,-0.388020833,0,0,0,,0,44,44,243,1,,,,
,,,,,,452419b4f4da858c8aa6c3c2,66a626ef09d4e21e1a8894ec,673497f24ad8bb9df84cf938,2024-11-13_13h14.58.350,Tarea de género gramatical,2024.2.2,Win32,59.88023952,,,,,,,,,,,,,,,,,,,,,,143.2077,144.2358,a,1,[],[],[],[],[],[],[],0.3484,1,144.2361,144.7345,,,,,,816,MAS,AGR,150,riesgo,el,l,0.3484,,,,144.7348,144.7352,0.040364583,-0.388020833,0,0,0,,0,45,45,365,1,,,,
,,,,,,452419b4f4da858c8aa6c3c2,66a626ef09d4e21e1a8894ec,673497f24ad8bb9df84cf938,2024-11-13_13h14.58.350,Tarea de género gramatical,2024.2.2,Win32,59.88023952,,,,,,,,,,,,,,,,,,,,,,144.7386,145.8382,a,1,[],[],[],[],[],[],[],0.4314,1,145.8384,146.3367,,,,,,606,MAS,AGR,150,amigo,el,l,0.4314,,,,146.3368,146.3371,0.040364583,-0.388020833,0,0,0,,0,46,46,155,1,,,,
,,,,,,452419b4f4da858c8aa6c3c2,66a626ef09d4e21e1a8894ec,673497f24ad8bb9df84cf938,2024-11-13_13h14.58.350,Tarea de género gramatical,2024.2.2,Win32,59.88023952,,,,,,,,,,,,,,,,,,,,,,146.3402,147.3506,l,1,[],[],[],[],[],[],[],0.3279,1,147.3509,147.8507,,,,,,675,FEM,AGR,150,pieza,la,a,0.3279,,,,147.8553,147.8565,0.040364583,-0.388020833,0,0,0,,0,47,47,224,1,,,,
,,,,,,452419b4f4da858c8aa6c3c2,66a626ef09d4e21e1a8894ec,673497f24ad8bb9df84cf938,2024-11-13_13h14.58.350,Tarea de género gramatical,2024.2.2,Win32,59.88023952,,,,,,,,,,,,,,,,,,,,,,147.8578,149.0835,a,1,[],[],[],[],[],[],[],0.552,1,149.0837,149.5839,,,,,,527,MAS,DIS,150,pico,la,l,0.552,,,,149.584,149.5843,0.040364583,-0.388020833,0,0,0,,0,48,48,76,1,,,,
,,,,,,452419b4f4da858c8aa6c3c2,66a626ef09d4e21e1a8894ec,673497f24ad8bb9df84cf938,2024-11-13_13h14.58.350,Tarea de género gramatical,2024.2.2,Win32,59.88023952,,,,,,,,,,,,,,,,,,,,,,149.5869,151.2168,l,1,[],[],[],[],[],[],[],0.9607,1,151.2171,151.7178,,,,,,781,FEM,CON,150,cárcel,,a,0.9607,,,,151.7179,151.7182,0.040364583,-0.388020833,0,0,0,,0,49,49,330,1,,,,
,,,,,,452419b4f4da858c8aa6c3c2,66a626ef09d4e21e1a8894ec,673497f24ad8bb9df84cf938,2024-11-13_13h14.58.350,Tarea de género gramatical,2024.2.2,Win32,59.88023952,,,,,,,,,,,,,,,,,,,,,,151.721,152.7188,l,1,[],[],[],[],[],[],[],0.3174,1,152.7189,153.217,,,,,,631,FEM,CON,150,tarde,,a,0.3174,,,,153.2173,153.2177,0.040364583,-0.388020833,0,0,0,,0,50,50,180,1,,,,
,,,,,,452419b4f4da858c8aa6c3c2,66a626ef09d4e21e1a8894ec,673497f24ad8bb9df84cf938,2024-11-13_13h14.58.350,Tarea de género gramatical,2024.2.2,Win32,59.88023952,,,,,,,,,,,,,,,,,,,,,,153.2202,154.2033,a,1,[],[],[],[],[],[],[],0.3177,1,154.2034,154.7004,,,,,,616,MAS,CON,150,coche,,l,0.3177,,,,154.7058,154.7074,0.040364583,-0.388020833,0,0,0,,0,51,51,165,1,,,,
,,,,,,452419b4f4da858c8aa6c3c2,66a626ef09d4e21e1a8894ec,673497f24ad8bb9df84cf938,2024-11-13_13h14.58.350,Tarea de género gramatical,2024.2.2,Win32,59.88023952,,,,,,,,,,,,,,,,,,,,,,154.7091,155.8669,a,1,[],[],[],[],[],[],[],0.4864,1,155.8671,156.3669,,,,,,845,MAS,DIS,150,correo,la,l,0.4864,,,,156.3671,156.3673,0.040364583,-0.388020833,0,0,0,,0,52,52,394,1,,,,
,,,,,,452419b4f4da858c8aa6c3c2,66a626ef09d4e21e1a8894ec,673497f24ad8bb9df84cf938,2024-11-13_13h14.58.350,Tarea de género gramatical,2024.2.2,Win32,59.88023952,,,,,,,,,,,,,,,,,,,,,,156.37,157.4167,a,1,[],[],[],[],[],[],[],0.3703,1,157.4169,157.917,,,,,,868,MAS,CON,150,pájaro,,l,0.3703,,,,157.9172,157.9175,0.040364583,-0.388020833,0,0,0,,0,53,53,417,1,,,,
,,,,,,452419b4f4da858c8aa6c3c2,66a626ef09d4e21e1a8894ec,673497f24ad8bb9df84cf938,2024-11-13_13h14.58.350,Tarea de género gramatical,2024.2.2,Win32,59.88023952,,,,,,,,,,,,,,,,,,,,,,157.9206,158.9496,a,1,[],[],[],[],[],[],[],0.3519,1,158.9498,159.4503,,,,,,778,MAS,CON,150,asunto,,l,0.3519,,,,159.4504,159.4507,0.040364583,-0.388020833,0,0,0,,0,54,54,327,1,,,,
,,,,,,452419b4f4da858c8aa6c3c2,66a626ef09d4e21e1a8894ec,673497f24ad8bb9df84cf938,2024-11-13_13h14.58.350,Tarea de género gramatical,2024.2.2,Win32,59.88023952,,,,,,,,,,,,,,,,,,,,,,159.4538,160.5335,a,1,[],[],[],[],[],[],[],0.4007,1,160.5337,161.033,,,,,,520,MAS,CON,150,palo,,l,0.4007,,,,161.0336,161.0342,0.040364583,-0.388020833,0,0,0,,0,55,55,69,1,,,,
,,,,,,452419b4f4da858c8aa6c3c2,66a626ef09d4e21e1a8894ec,673497f24ad8bb9df84cf938,2024-11-13_13h14.58.350,Tarea de género gramatical,2024.2.2,Win32,59.88023952,,,,,,,,,,,,,,,,,,,,,,161.0374,161.9868,l,1,[],[],[],[],[],[],[],0.2678,1,161.9869,162.4852,,,,,,453,FEM,AGR,150,cosa,la,a,0.2678,,,,162.4882,162.4894,0.040364583,-0.388020833,0,0,0,,0,56,56,2,1,,,,
,,,,,,452419b4f4da858c8aa6c3c2,66a626ef09d4e21e1a8894ec,673497f24ad8bb9df84cf938,2024-11-13_13h14.58.350,Tarea de género gramatical,2024.2.2,Win32,59.88023952,,,,,,,,,,,,,,,,,,,,,,162.4908,163.4999,a,1,[],[],[],[],[],[],[],0.3394,1,163.5006,164.0025,,,,,,587,MAS,DIS,150,coco,la,l,0.3394,,,,164.003,164.004,0.040364583,-0.388020833,0,0,0,,0,57,57,136,1,,,,
,,,,,,452419b4f4da858c8aa6c3c2,66a626ef09d4e21e1a8894ec,673497f24ad8bb9df84cf938,2024-11-13_13h14.58.350,Tarea de género gramatical,2024.2.2,Win32,59.88023952,,,,,,,,,,,,,,,,,,,,,,164.0079,165.0194,l,1,[],[],[],[],[],[],[],0.346,1,165.0195,165.5166,,,,,,716,FEM,DIS,150,jaula,el,a,0.346,,,,165.5167,165.517,0.040364583,-0.388020833,0,0,0,,0,58,58,265,1,,,,
,,,,,,452419b4f4da858c8aa6c3c2,66a626ef09d4e21e1a8894ec,673497f24ad8bb9df84cf938,2024-11-13_13h14.58.350,Tarea de género gramatical,2024.2.2,Win32,59.88023952,,,,,,,,,,,,,,,,,,,,,,165.5196,166.5526,l,1,[],[],[],[],[],[],[],0.3515,1,166.553,167.0511,,,,,,573,FEM,AGR,150,tela,la,a,0.3515,,,,167.0513,167.0515,0.040364583,-0.388020833,0,0,0,,0,59,59,122,1,,,,
,,,,,,452419b4f4da858c8aa6c3c2,66a626ef09d4e21e1a8894ec,673497f24ad8bb9df84cf938,2024-11-13_13h14.58.350,Tarea de género gramatical,2024.2.2,Win32,59.88023952,,,,,,,,,,,,,,,,,,,,,,167.0566,168.019,a,1,[],[],[],[],[],[],[],0.2843,1,168.0193,168.5178,,,,,,498,MAS,AGR,150,loco,el,l,0.2843,,,,168.5228,168.5246,0.040364583,-0.388020833,0,0,0,,0,60,60,47,1,,,,
,,,,,,452419b4f4da858c8aa6c3c2,66a626ef09d4e21e1a8894ec,673497f24ad8bb9df84cf938,2024-11-13_13h14.58.350,Tarea de género gramatical,2024.2.2,Win32,59.88023952,,,,,,,,,,,,,,,,,,,,,,168.5268,169.5665,l,1,[],[],[],[],[],[],[],0.3758,1,169.5668,170.0687,,,,,,567,FEM,AGR,150,raya,la,a,0.3758,,,,170.0688,170.069,0.040364583,-0.388020833,0,0,0,,0,61,61,116,1,,,,
,,,,,,452419b4f4da858c8aa6c3c2,66a626ef09d4e21e1a8894ec,673497f24ad8bb9df84cf938,2024-11-13_13h14.58.350,Tarea de género gramatical,2024.2.2,Win32,59.88023952,,,,,,,,,,,,,,,,,,,,,,170.0713,171.2191,l,1,[],[],[],[],[],[],[],0.4685,1,171.2192,171.7162,,,,,,488,FEM,DIS,150,obra,el,a,0.4685,,,,171.7164,171.7166,0.040364583,-0.388020833,0,0,0,,0,62,62,37,1,,,,
,,,,,,452419b4f4da858c8aa6c3c2,66a626ef09d4e21e1a8894ec,673497f24ad8bb9df84cf938,2024-11-13_13h14.58.350,Tarea de género gramatical,2024.2.2,Win32,59.88023952,,,,,,,,,,,,,,,,,,,,,,171.7182,172.8324,a,0,[],[],[],[],[],[],[],0.4582,0,172.8343,173.3325,,,,,,769,FEM,CON,150,sangre,,a,0.4582,,,,173.3328,173.3331,0.040364583,-0.388020833,0,0,0,,0,63,63,318,1,,,,
,,,,,,452419b4f4da858c8aa6c3c2,66a626ef09d4e21e1a8894ec,673497f24ad8bb9df84cf938,2024-11-13_13h14.58.350,Tarea de género gramatical,2024.2.2,Win32,59.88023952,,,,,,,,,,,,,,,,,,,,,,173.336,174.3992,a,1,[],[],[],[],[],[],[],0.4032,1,174.4016,174.8996,,,,,,850,MAS,CON,150,barrio,,l,0.4032,,,,174.8997,174.9001,0.040364583,-0.388020833,0,0,0,,0,64,64,399,1,,,,
,,,,,,452419b4f4da858c8aa6c3c2,66a626ef09d4e21e1a8894ec,673497f24ad8bb9df84cf938,2024-11-13_13h14.58.350,Tarea de género gramatical,2024.2.2,Win32,59.88023952,,,,,,,,,,,,,,,,,,,,,,174.9029,175.8496,l,1,[],[],[],[],[],[],[],0.2797,1,175.8498,176.3517,,,,,,513,FEM,AGR,150,fila,la,a,0.2797,,,,176.3575,176.3598,0.040364583,-0.388020833,0,0,0,,0,65,65,62,1,,,,
,,,,,,452419b4f4da858c8aa6c3c2,66a626ef09d4e21e1a8894ec,673497f24ad8bb9df84cf938,2024-11-13_13h14.58.350,Tarea de género gramatical,2024.2.2,Win32,59.88023952,,,,,,,,,,,,,,,,,,,,,,176.3618,177.3835,a,1,[],[],[],[],[],[],[],0.3551,1,177.3837,177.8848,,,,,,658,MAS,CON,150,suelo,,l,0.3551,,,,177.885,177.8851,0.040364583,-0.388020833,0,0,0,,0,66,66,207,1,,,,
,,,,,,452419b4f4da858c8aa6c3c2,66a626ef09d4e21e1a8894ec,673497f24ad8bb9df84cf938,2024-11-13_13h14.58.350,Tarea de género gramatical,2024.2.2,Win32,59.88023952,,,,,,,,,,,,,,,,,,,,,,177.8909,178.9822,a,1,[],[],[],[],[],[],[],0.4183,1,178.9825,179.4822,,,,,,706,MAS,CON,150,techo,,l,0.4183,,,,179.4824,179.4828,0.040364583,-0.388020833,0,0,0,,0,67,67,255,1,,,,
,,,,,,452419b4f4da858c8aa6c3c2,66a626ef09d4e21e1a8894ec,673497f24ad8bb9df84cf938,2024-11-13_13h14.58.350,Tarea de género gramatical,2024.2.2,Win32,59.88023952,,,,,,,,,,,,,,,,,,,,,,179.4858,180.5352,l,1,[],[],[],[],[],[],[],0.3679,1,180.5355,181.0372,,,,,,861,FEM,AGR,150,actriz,la,a,0.3679,,,,181.0376,181.038,0.040364583,-0.388020833,0,0,0,,0,68,68,410,1,,,,
,,,,,,452419b4f4da858c8aa6c3c2,66a626ef09d4e21e1a8894ec,673497f24ad8bb9df84cf938,2024-11-13_13h14.58.350,Tarea de género gramatical,2024.2.2,Win32,59.88023952,,,,,,,,,,,,,,,,,,,,,,181.051,182.0337,l,1,[],[],[],[],[],[],[],0.3068,1,182.0339,182.5348,,,,,,597,FEM,AGR,150,grúa,la,a,0.3068,,,,182.5396,182.5414,0.040364583,-0.388020833,0,0,0,,0,69,69,146,1,,,,
,,,,,,452419b4f4da858c8aa6c3c2,66a626ef09d4e21e1a8894ec,673497f24ad8bb9df84cf938,2024-11-13_13h14.58.350,Tarea de género gramatical,2024.2.2,Win32,59.88023952,,,,,,,,,,,,,,,,,,,,,,182.5426,183.6152,l,1,[],[],[],[],[],[],[],0.37,1,183.6153,184.1038,,,,,,829,FEM,CON,150,granja,,a,0.37,,,,184.1039,184.1042,0.040364583,-0.388020833,0,0,0,,0,70,70,378,1,,,,
,,,,,,452419b4f4da858c8aa6c3c2,66a626ef09d4e21e1a8894ec,673497f24ad8bb9df84cf938,2024-11-13_13h14.58.350,Tarea de género gramatical,2024.2.2,Win32,59.88023952,,,,,,,,,,,,,,,,,,,,,,184.1074,185.0654,a,1,[],[],[],[],[],[],[],0.2877,1,185.0657,185.5653,,,,,,893,MAS,DIS,150,templo,la,l,0.2877,,,,185.5657,185.5661,0.040364583,-0.388020833,0,0,0,,0,71,71,442,1,,,,
,,,,,,452419b4f4da858c8aa6c3c2,66a626ef09d4e21e1a8894ec,673497f24ad8bb9df84cf938,2024-11-13_13h14.58.350,Tarea de género gramatical,2024.2.2,Win32,59.88023952,,,,,,,,,,,,,,,,,,,,,,185.5701,186.5488,a,1,[],[],[],[],[],[],[],0.299,1,186.549,187.0485,,,,,,467,MAS,DIS,150,modo,la,l,0.299,,,,187.0488,187.049,0.040364583,-0.388020833,0,0,0,,0,72,72,16,1,,,,
,,,,,,452419b4f4da858c8aa6c3c2,66a626ef09d4e21e1a8894ec,673497f24ad8bb9df84cf938,2024-11-13_13h14.58.350,Tarea de género gramatical,2024.2.2,Win32,59.88023952,,,,,,,,,,,,,,,,,,,,,,187.0519,188.0149,a,1,[],[],[],[],[],[],[],0.2851,1,188.0152,188.5146,,,,,,696,MAS,AGR,150,humor,el,l,0.2851,,,,188.5146,188.5149,0.040364583,-0.388020833,0,0,0,,0,73,73,245,1,,,,
,,,,,,452419b4f4da858c8aa6c3c2,66a626ef09d4e21e1a8894ec,673497f24ad8bb9df84cf938,2024-11-13_13h14.58.350,Tarea de género gramatical,2024.2.2,Win32,59.88023952,,,,,,,,,,,,,,,,,,,,,,188.5172,189.9326,a,1,[],[],[],[],[],[],[],0.7542,1,189.9329,190.431,,,,,,881,MAS,DIS,150,veneno,la,l,0.7542,,,,190.4359,190.4385,0.040364583,-0.388020833,0,0,0,,0,74,74,430,1,,,,
,,,,,,452419b4f4da858c8aa6c3c2,66a626ef09d4e21e1a8894ec,673497f24ad8bb9df84cf938,2024-11-13_13h14.58.350,Tarea de género gramatical,2024.2.2,Win32,59.88023952,,,,,,,,,,,,,,,,,,,,,,190.4407,191.348,l,1,[],[],[],[],[],[],[],0.2412,1,191.3482,191.8494,,,,,,662,FEM,DIS,150,cinta,el,a,0.2412,,,,191.8496,191.8498,0.040364583,-0.388020833,0,0,0,,0,75,75,211,1,,,,
,,,,,,452419b4f4da858c8aa6c3c2,66a626ef09d4e21e1a8894ec,673497f24ad8bb9df84cf938,2024-11-13_13h14.58.350,Tarea de género gramatical,2024.2.2,Win32,59.88023952,,,,,,,,,,,,,,,,,,,,,,191.8531,192.9143,a,1,[],[],[],[],[],[],[],0.3882,1,192.9144,193.4148,,,,,,605,MAS,DIS,150,mundo,la,l,0.3882,,,,193.4149,193.4152,0.040364583,-0.388020833,0,0,0,,0,76,76,154,1,,,,
,,,,,,452419b4f4da858c8aa6c3c2,66a626ef09d4e21e1a8894ec,673497f24ad8bb9df84cf938,2024-11-13_13h14.58.350,Tarea de género gramatical,2024.2.2,Win32,59.88023952,,,,,,,,,,,,,,,,,,,,,,193.4176,194.6148,a,1,[],[],[],[],[],[],[],0.5213,1,194.615,195.1149,,,,,,461,MAS,DIS,150,país,la,l,0.5213,,,,195.115,195.1153,0.040364583,-0.388020833,0,0,0,,0,77,77,10,1,,,,
,,,,,,452419b4f4da858c8aa6c3c2,66a626ef09d4e21e1a8894ec,673497f24ad8bb9df84cf938,2024-11-13_13h14.58.350,Tarea de género gramatical,2024.2.2,Win32,59.88023952,,,,,,,,,,,,,,,,,,,,,,195.1174,196.183,l,1,[],[],[],[],[],[],[],0.3835,1,196.1831,196.6811,,,,,,889,FEM,CON,150,toalla,,a,0.3835,,,,196.687,196.6895,0.040364583,-0.388020833,0,0,0,,0,78,78,438,1,,,,
,,,,,,452419b4f4da858c8aa6c3c2,66a626ef09d4e21e1a8894ec,673497f24ad8bb9df84cf938,2024-11-13_13h14.58.350,Tarea de género gramatical,2024.2.2,Win32,59.88023952,,,,,,,,,,,,,,,,,,,,,,196.6919,197.6975,a,1,[],[],[],[],[],[],[],0.3337,1,197.6975,198.1972,,,,,,604,MAS,CON,150,padre,,l,0.3337,,,,198.1973,198.1974,0.040364583,-0.388020833,0,0,0,,0,79,79,153,1,,,,
,,,,,,452419b4f4da858c8aa6c3c2,66a626ef09d4e21e1a8894ec,673497f24ad8bb9df84cf938,2024-11-13_13h14.58.350,Tarea de género gramatical,2024.2.2,Win32,59.88023952,,,,,,,,,,,,,,,,,,,,,,198.1996,199.3306,a,1,[],[],[],[],[],[],[],0.4524,1,199.3307,199.8314,,,,,,772,MAS,CON,150,minuto,,l,0.4524,,,,199.8316,199.8318,0.040364583,-0.388020833,0,0,0,,0,80,80,321,1,,,,
,,,,,,452419b4f4da858c8aa6c3c2,66a626ef09d4e21e1a8894ec,673497f24ad8bb9df84cf938,2024-11-13_13h14.58.350,Tarea de género gramatical,2024.2.2,Win32,59.88023952,,,,,,,,,,,,,,,,,,,,,,199.8353,200.7973,l,1,[],[],[],[],[],[],[],0.2834,1,200.7975,201.3011,,,,,,525,FEM,AGR,150,caza,la,a,0.2834,,,,201.3011,201.3012,0.040364583,-0.388020833,0,0,0,,0,81,81,74,1,,,,
,,,,,,452419b4f4da858c8aa6c3c2,66a626ef09d4e21e1a8894ec,673497f24ad8bb9df84cf938,2024-11-13_13h14.58.350,Tarea de género gramatical,2024.2.2,Win32,59.88023952,,,,,,,,,,,,,,,,,,,,,,201.3042,202.3636,a,1,[],[],[],[],[],[],[],0.3861,1,202.3637,202.8645,,,,,,899,MAS,DIS,150,payaso,la,l,0.3861,,,,202.8646,202.8649,0.040364583,-0.388020833,0,0,0,,0,82,82,448,1,,,,
,,,,,,452419b4f4da858c8aa6c3c2,66a626ef09d4e21e1a8894ec,673497f24ad8bb9df84cf938,2024-11-13_13h14.58.350,Tarea de género gramatical,2024.2.2,Win32,59.88023952,,,,,,,,,,,,,,,,,,,,,,202.8689,203.8484,a,1,[],[],[],[],[],[],[],0.3082,1,203.8485,204.3475,,,,,,690,MAS,AGR,150,ruido,el,l,0.3082,,,,204.3524,204.3539,0.040364583,-0.388020833,0,0,0,,0,83,83,239,1,,,,
,,,,,,452419b4f4da858c8aa6c3c2,66a626ef09d4e21e1a8894ec,673497f24ad8bb9df84cf938,2024-11-13_13h14.58.350,Tarea de género gramatical,2024.2.2,Win32,59.88023952,,,,,,,,,,,,,,,,,,,,,,204.3558,205.3079,l,1,[],[],[],[],[],[],[],0.2841,1,205.3083,205.7972,,,,,,506,FEM,DIS,150,bola,el,a,0.2841,,,,205.7974,205.7978,0.040364583,-0.388020833,0,0,0,,0,84,84,55,1,,,,
,,,,,,452419b4f4da858c8aa6c3c2,66a626ef09d4e21e1a8894ec,673497f24ad8bb9df84cf938,2024-11-13_13h14.58.350,Tarea de género gramatical,2024.2.2,Win32,59.88023952,,,,,,,,,,,,,,,,,,,,,,205.801,206.7974,a,1,[],[],[],[],[],[],[],0.3054,1,206.7976,207.2996,,,,,,708,MAS,AGR,150,polvo,el,l,0.3054,,,,207.2998,207.3,0.040364583,-0.388020833,0,0,0,,0,85,85,257,1,,,,
,,,,,,452419b4f4da858c8aa6c3c2,66a626ef09d4e21e1a8894ec,673497f24ad8bb9df84cf938,2024-11-13_13h14.58.350,Tarea de género gramatical,2024.2.2,Win32,59.88023952,,,,,,,,,,,,,,,,,,,,,,207.3032,208.347,l,1,[],[],[],[],[],[],[],0.3687,1,208.3472,208.8499,,,,,,489,FEM,AGR,150,luna,la,a,0.3687,,,,208.8501,208.8504,0.040364583,-0.388020833,0,0,0,,0,86,86,38,1,,,,
,,,,,,452419b4f4da858c8aa6c3c2,66a626ef09d4e21e1a8894ec,673497f24ad8bb9df84cf938,2024-11-13_13h14.58.350,Tarea de género gramatical,2024.2.2,Win32,59.88023952,,,,,,,,,,,,,,,,,,,,,,208.8537,209.8177,a,1,[],[],[],[],[],[],[],0.3,1,209.8179,210.3141,,,,,,810,MAS,AGR,150,puente,el,l,0.3,,,,210.3176,210.3188,0.040364583,-0.388020833,0,0,0,,0,87,87,359,1,,,,
,,,,,,452419b4f4da858c8aa6c3c2,66a626ef09d4e21e1a8894ec,673497f24ad8bb9df84cf938,2024-11-13_13h14.58.350,Tarea de género gramatical,2024.2.2,Win32,59.88023952,,,,,,,,,,,,,,,,,,,,,,210.3207,211.3991,a,1,[],[],[],[],[],[],[],0.4157,1,211.3994,211.8992,,,,,,767,MAS,DIS,150,número,la,l,0.4157,,,,211.8993,211.8996,0.040364583,-0.388020833,0,0,0,,0,88,88,316,1,,,,
,,,,,,452419b4f4da858c8aa6c3c2,66a626ef09d4e21e1a8894ec,673497f24ad8bb9df84cf938,2024-11-13_13h14.58.350,Tarea de género gramatical,2024.2.2,Win32,59.88023952,,,,,,,,,,,,,,,,,,,,,,211.9021,212.9005,a,1,[],[],[],[],[],[],[],0.3326,1,212.9007,213.3992,,,,,,682,MAS,CON,150,calor,,l,0.3326,,,,213.3992,213.3994,0.040364583,-0.388020833,0,0,0,,0,89,89,231,1,,,,
,,,,,,452419b4f4da858c8aa6c3c2,66a626ef09d4e21e1a8894ec,673497f24ad8bb9df84cf938,2024-11-13_13h14.58.350,Tarea de género gramatical,2024.2.2,Win32,59.88023952,,,,,,,,,,,,,,,,,,,,,,213.4017,214.4804,a,1,[],[],[],[],[],[],[],0.4012,1,214.4807,214.9829,,,,,,773,MAS,DIS,150,marido,la,l,0.4012,,,,214.983,214.9832,0.040364583,-0.388020833,0,0,0,,0,90,90,322,1,,,,
,,,,,,452419b4f4da858c8aa6c3c2,66a626ef09d4e21e1a8894ec,673497f24ad8bb9df84cf938,2024-11-13_13h14.58.350,Tarea de género gramatical,2024.2.2,Win32,59.88023952,,,,,,,,,,,,,,,,,,,,,,214.9859,216.0332,a,1,[],[],[],[],[],[],[],0.3675,1,216.0333,216.5315,,,,,,600,MAS,AGR,150,mozo,el,l,0.3675,,,,216.5316,216.5318,0.040364583,-0.388020833,0,0,0,,0,91,91,149,1,,,,
,,,,,,452419b4f4da858c8aa6c3c2,66a626ef09d4e21e1a8894ec,673497f24ad8bb9df84cf938,2024-11-13_13h14.58.350,Tarea de género gramatical,2024.2.2,Win32,59.88023952,,,,,,,,,,,,,,,,,,,,,,216.5361,217.4841,l,1,[],[],[],[],[],[],[],0.2837,1,217.4843,217.9801,,,,,,884,FEM,DIS,150,corona,el,a,0.2837,,,,217.9845,217.9859,0.040364583,-0.388020833,0,0,0,,0,92,92,433,1,,,,
,,,,,,452419b4f4da858c8aa6c3c2,66a626ef09d4e21e1a8894ec,673497f24ad8bb9df84cf938,2024-11-13_13h14.58.350,Tarea de género gramatical,2024.2.2,Win32,59.88023952,,,,,,,,,,,,,,,,,,,,,,217.9874,219.0633,a,1,[],[],[],[],[],[],[],0.3894,1,219.0636,219.5631,,,,,,844,MAS,CON,150,examen,,l,0.3894,,,,219.5632,219.5635,0.040364583,-0.388020833,0,0,0,,0,93,93,393,1,,,,
,,,,,,452419b4f4da858c8aa6c3c2,66a626ef09d4e21e1a8894ec,673497f24ad8bb9df84cf938,2024-11-13_13h14.58.350,Tarea de género gramatical,2024.2.2,Win32,59.88023952,,,,,,,,,,,,,,,,,,,,,,219.5661,220.6966,a,1,[],[],[],[],[],[],[],0.4631,1,220.6969,221.1958,,,,,,857,MAS,DIS,150,jurado,la,l,0.4631,,,,221.1959,221.196,0.040364583,-0.388020833,0,0,0,,0,94,94,406,1,,,,
,,,,,,452419b4f4da858c8aa6c3c2,66a626ef09d4e21e1a8894ec,673497f24ad8bb9df84cf938,2024-11-13_13h14.58.350,Tarea de género gramatical,2024.2.2,Win32,59.88023952,,,,,,,,,,,,,,,,,,,,,,221.198,222.4125,a,1,[],[],[],[],[],[],[],0.5396,1,222.4126,222.9127,,,,,,712,MAS,CON,150,video,,l,0.5396,,,,222.9129,222.9134,0.040364583,-0.388020833,0,0,0,,0,95,95,261,1,,,,
,,,,,,452419b4f4da858c8aa6c3c2,66a626ef09d4e21e1a8894ec,673497f24ad8bb9df84cf938,2024-11-13_13h14.58.350,Tarea de género gramatical,2024.2.2,Win32,59.88023952,,,,,,,,,,,,,,,,,,,,,,222.9155,224.0292,l,1,[],[],[],[],[],[],[],0.4406,1,224.0293,224.529,,,,,,561,FEM,AGR,150,goma,la,a,0.4406,,,,224.5321,224.5333,0.040364583,-0.388020833,0,0,0,,0,96,96,110,1,,,,
,,,,,,452419b4f4da858c8aa6c3c2,66a626ef09d4e21e1a8894ec,673497f24ad8bb9df84cf938,2024-11-13_13h14.58.350,Tarea de género gramatical,2024.2.2,Win32,59.88023952,,,,,,,,,,,,,,,,,,,,,,224.5352,225.5793,l,1,[],[],[],[],[],[],[],0.3672,1,225.5796,226.0788,,,,,,729,FEM,AGR,150,selva,la,a,0.3672,,,,226.0789,226.0792,0.040364583,-0.388020833,0,0,0,,0,97,97,278,1,,,,
,,,,,,452419b4f4da858c8aa6c3c2,66a626ef09d4e21e1a8894ec,673497f24ad8bb9df84cf938,2024-11-13_13h14.58.350,Tarea de género gramatical,2024.2.2,Win32,59.88023952,,,,,,,,,,,,,,,,,,,,,,226.0814,227.0495,l,1,[],[],[],[],[],[],[],0.2879,1,227.0497,227.5454,,,,,,693,FEM,AGR,150,salsa,la,a,0.2879,,,,227.5454,227.5461,0.040364583,-0.388020833,0,0,0,,0,98,98,242,1,,,,
,,,,,,452419b4f4da858c8aa6c3c2,66a626ef09d4e21e1a8894ec,673497f24ad8bb9df84cf938,2024-11-13_13h14.58.350,Tarea de género gramatical,2024.2.2,Win32,59.88023952,,,,,,,,,,,,,,,,,,,,,,227.5501,228.512,a,1,[],[],[],[],[],[],[],0.2915,1,228.5122,229.0125,,,,,,502,MAS,CON,150,lago,,l,0.2915,,,,229.0126,229.0128,0.040364583,-0.388020833,0,0,0,,0,99,99,51,1,,,,
,,,,,,452419b4f4da858c8aa6c3c2,66a626ef09d4e21e1a8894ec,673497f24ad8bb9df84cf938,2024-11-13_13h14.58.350,Tarea de género gramatical,2024.2.2,Win32,59.88023952,,,,,,,,,,,,,,,,,,,,,,229.0152,230.0452,l,1,[],[],[],[],[],[],[],0.3634,1,230.0454,230.546,,,,,,859,FEM,CON,150,moneda,,a,0.3634,,,,230.5461,230.5463,0.040364583,-0.388020833,0,0,0,,0,100,100,408,1,,,,
,,,,,,452419b4f4da858c8aa6c3c2,66a626ef09d4e21e1a8894ec,673497f24ad8bb9df84cf938,2024-11-13_13h14.58.350,Tarea de género gramatical,2024.2.2,Win32,59.88023952,,,,,,,,,,,,,,,,,,,,,,230.5488,231.5327,l,1,[],[],[],[],[],[],[],0.3158,1,231.5331,232.029,,,,,,728,FEM,DIS,150,presa,el,a,0.3158,,,,232.0326,232.0342,0.040364583,-0.388020833,0,0,0,,0,101,101,277,1,,,,
,,,,,,452419b4f4da858c8aa6c3c2,66a626ef09d4e21e1a8894ec,673497f24ad8bb9df84cf938,2024-11-13_13h14.58.350,Tarea de género gramatical,2024.2.2,Win32,59.88023952,,,,,,,,,,,,,,,,,,,,,,232.0356,233.2164,l,1,[],[],[],[],[],[],[],0.5022,1,233.2166,233.7122,,,,,,476,FEM,DIS,150,pena,el,a,0.5022,,,,233.7124,233.7127,0.040364583,-0.388020833,0,0,0,,0,102,102,25,1,,,,
,,,,,,452419b4f4da858c8aa6c3c2,66a626ef09d4e21e1a8894ec,673497f24ad8bb9df84cf938,2024-11-13_13h14.58.350,Tarea de género gramatical,2024.2.2,Win32,59.88023952,,,,,,,,,,,,,,,,,,,,,,233.716,234.7291,a,1,[],[],[],[],[],[],[],0.3298,1,234.7292,235.2299,,,,,,730,MAS,CON,150,salón,,l,0.3298,,,,235.2301,235.2302,0.040364583,-0.388020833,0,0,0,,0,103,103,279,1,,,,
,,,,,,452419b4f4da858c8aa6c3c2,66a626ef09d4e21e1a8894ec,673497f24ad8bb9df84cf938,2024-11-13_13h14.58.350,Tarea de género gramatical,2024.2.2,Win32,59.88023952,,,,,,,,,,,,,,,,,,,,,,235.233,236.2495,a,1,[],[],[],[],[],[],[],0.3347,1,236.2498,236.7453,,,,,,676,MAS,CON,150,color,,l,0.3347,,,,236.7454,236.7456,0.040364583,-0.388020833,0,0,0,,0,104,104,225,1,,,,
,,,,,,452419b4f4da858c8aa6c3c2,66a626ef09d4e21e1a8894ec,673497f24ad8bb9df84cf938,2024-11-13_13h14.58.350,Tarea de género gramatical,2024.2.2,Win32,59.88023952,,,,,,,,,,,,,,,,,,,,,,236.7472,237.7617,a,1,[],[],[],[],[],[],[],0.3594,1,237.7622,238.2618,,,,,,808,MAS,CON,150,motivo,,l,0.3594,,,,238.2655,238.267,0.040364583,-0.388020833,0,0,0,,0,105,105,357,1,,,,
,,,,,,452419b4f4da858c8aa6c3c2,66a626ef09d4e21e1a8894ec,673497f24ad8bb9df84cf938,2024-11-13_13h14.58.350,Tarea de género gramatical,2024.2.2,Win32,59.88023952,,,,,,,,,,,,,,,,,,,,,,238.2694,239.2159,l,1,[],[],[],[],[],[],[],0.2917,1,239.2161,239.7134,,,,,,801,FEM,AGR,150,espada,la,a,0.2917,,,,239.7135,239.7142,0.040364583,-0.388020833,0,0,0,,0,106,106,350,1,,,,
,,,,,,452419b4f4da858c8aa6c3c2,66a626ef09d4e21e1a8894ec,673497f24ad8bb9df84cf938,2024-11-13_13h14.58.350,Tarea de género gramatical,2024.2.2,Win32,59.88023952,,,,,,,,,,,,,,,,,,,,,,239.718,240.7295,a,1,[],[],[],[],[],[],[],0.3371,1,240.7299,241.228,,,,,,738,MAS,AGR,150,grado,el,l,0.3371,,,,241.2281,241.2282,0.040364583,-0.388020833,0,0,0,,0,107,107,287,1,,,,
,,,,,,452419b4f4da858c8aa6c3c2,66a626ef09d4e21e1a8894ec,673497f24ad8bb9df84cf938,2024-11-13_13h14.58.350,Tarea de género gramatical,2024.2.2,Win32,59.88023952,,,,,,,,,,,,,,,,,,,,,,241.2316,242.2123,a,1,[],[],[],[],[],[],[],0.3103,1,242.2126,242.7112,,,,,,732,MAS,AGR,150,bolso,el,l,0.3103,,,,242.7114,242.7115,0.040364583,-0.388020833,0,0,0,,0,108,108,281,1,,,,
,,,,,,452419b4f4da858c8aa6c3c2,66a626ef09d4e21e1a8894ec,673497f24ad8bb9df84cf938,2024-11-13_13h14.58.350,Tarea de género gramatical,2024.2.2,Win32,59.88023952,,,,,,,,,,,,,,,,,,,,,,242.7139,243.7159,a,1,[],[],[],[],[],[],[],0.3338,1,243.716,244.2125,,,,,,551,MAS,DIS,150,giro,la,l,0.3338,,,,244.2126,244.2134,0.040364583,-0.388020833,0,0,0,,0,109,109,100,1,,,,
,,,,,,452419b4f4da858c8aa6c3c2,66a626ef09d4e21e1a8894ec,673497f24ad8bb9df84cf938,2024-11-13_13h14.58.350,Tarea de género gramatical,2024.2.2,Win32,59.88023952,,,,,,,,,,,,,,,,,,,,,,244.2155,245.1615,l,1,[],[],[],[],[],[],[],0.27,1,245.1617,245.6631,,,,,,487,FEM,CON,150,sala,,a,0.27,,,,245.6663,245.6675,0.040364583,-0.388020833,0,0,0,,0,110,110,36,1,,,,
,,,,,,452419b4f4da858c8aa6c3c2,66a626ef09d4e21e1a8894ec,673497f24ad8bb9df84cf938,2024-11-13_13h14.58.350,Tarea de género gramatical,2024.2.2,Win32,59.88023952,,,,,,,,,,,,,,,,,,,,,,245.6688,246.7452,a,1,[],[],[],[],[],[],[],0.411,1,246.7453,247.2475,,,,,,670,MAS,CON,150,huevo,,l,0.411,,,,247.2476,247.2478,0.040364583,-0.388020833,0,0,0,,0,111,111,219,1,,,,
,,,,,,452419b4f4da858c8aa6c3c2,66a626ef09d4e21e1a8894ec,673497f24ad8bb9df84cf938,2024-11-13_13h14.58.350,Tarea de género gramatical,2024.2.2,Win32,59.88023952,,,,,,,,,,,,,,,,,,,,,,247.252,248.331,a,1,[],[],[],[],[],[],[],0.4008,1,248.3311,248.828,,,,,,684,MAS,AGR,150,héroe,el,l,0.4008,,,,248.8281,248.8283,0.040364583,-0.388020833,0,0,0,,0,112,112,233,1,,,,
,,,,,,452419b4f4da858c8aa6c3c2,66a626ef09d4e21e1a8894ec,673497f24ad8bb9df84cf938,2024-11-13_13h14.58.350,Tarea de género gramatical,2024.2.2,Win32,59.88023952,,,,,,,,,,,,,,,,,,,,,,248.8308,249.8648,l,1,[],[],[],[],[],[],[],0.363,1,249.865,250.3611,,,,,,895,FEM,CON,150,bondad,,a,0.363,,,,250.3613,250.3615,0.040364583,-0.388020833,0,0,0,,0,113,113,444,1,,,,
,,,,,,452419b4f4da858c8aa6c3c2,66a626ef09d4e21e1a8894ec,673497f24ad8bb9df84cf938,2024-11-13_13h14.58.350,Tarea de género gramatical,2024.2.2,Win32,59.88023952,,,,,,,,,,,,,,,,,,,,,,250.3646,251.3278,l,1,[],[],[],[],[],[],[],0.2967,1,251.3281,251.8278,,,,,,764,FEM,DIS,150,señora,el,a,0.2967,,,,251.8312,251.8329,0.040364583,-0.388020833,0,0,0,,0,114,114,313,1,,,,
,,,,,,452419b4f4da858c8aa6c3c2,66a626ef09d4e21e1a8894ec,673497f24ad8bb9df84cf938,2024-11-13_13h14.58.350,Tarea de género gramatical,2024.2.2,Win32,59.88023952,,,,,,,,,,,,,,,,,,,,,,251.8344,253.1465,a,1,[],[],[],[],[],[],[],0.6349,1,253.1467,253.6458,,,,,,833,MAS,DIS,150,parque,la,l,0.6349,,,,253.6459,253.6461,0.040364583,-0.388020833,0,0,0,,0,115,115,382,1,,,,
,,,,,,452419b4f4da858c8aa6c3c2,66a626ef09d4e21e1a8894ec,673497f24ad8bb9df84cf938,2024-11-13_13h14.58.350,Tarea de género gramatical,2024.2.2,Win32,59.88023952,,,,,,,,,,,,,,,,,,,,,,253.6484,254.7904,a,1,[],[],[],[],[],[],[],0.4704,1,254.7908,255.3007,,,,,,784,MAS,CON,150,ataque,,l,0.4704,,,,255.3009,255.3011,0.040364583,-0.388020833,0,0,0,,0,116,116,333,1,,,,
,,,,,,452419b4f4da858c8aa6c3c2,66a626ef09d4e21e1a8894ec,673497f24ad8bb9df84cf938,2024-11-13_13h14.58.350,Tarea de género gramatical,2024.2.2,Win32,59.88023952,,,,,,,,,,,,,,,,,,,,,,255.3038,256.2995,l,1,[],[],[],[],[],[],[],0.3211,1,256.2997,256.7938,,,,,,572,FEM,DIS,150,loca,el,a,0.3211,,,,256.794,256.7942,0.040364583,-0.388020833,0,0,0,,0,117,117,121,1,,,,
,,,,,,452419b4f4da858c8aa6c3c2,66a626ef09d4e21e1a8894ec,673497f24ad8bb9df84cf938,2024-11-13_13h14.58.350,Tarea de género gramatical,2024.2.2,Win32,59.88023952,,,,,,,,,,,,,,,,,,,,,,256.7968,257.7608,l,1,[],[],[],[],[],[],[],0.2879,1,257.7611,258.2611,,,,,,577,FEM,CON,150,cuna,,a,0.2879,,,,258.2612,258.2615,0.040364583,-0.388020833,0,0,0,,0,118,118,126,1,,,,
,,,,,,452419b4f4da858c8aa6c3c2,66a626ef09d4e21e1a8894ec,673497f24ad8bb9df84cf938,2024-11-13_13h14.58.350,Tarea de género gramatical,2024.2.2,Win32,59.88023952,,,,,,,,,,,,,,,,,,,,,,258.2655,259.2441,a,1,[],[],[],[],[],[],[],0.3137,1,259.2443,259.7436,,,,,,754,MAS,CON,150,tiempo,,l,0.3137,,,,259.7468,259.7481,0.040364583,-0.388020833,0,0,0,,0,119,119,303,1,,,,
,,,,,,452419b4f4da858c8aa6c3c2,66a626ef09d4e21e1a8894ec,673497f24ad8bb9df84cf938,2024-11-13_13h14.58.350,Tarea de género gramatical,2024.2.2,Win32,59.88023952,,,,,,,,,,,,,,,,,,,,,,259.7493,260.7609,l,1,[],[],[],[],[],[],[],0.3461,1,260.7611,261.2606,,,,,,777,FEM,AGR,150,tienda,la,a,0.3461,,,,261.2607,261.2618,0.040364583,-0.388020833,0,0,0,,0,120,120,326,1,,,,
,,,,,,452419b4f4da858c8aa6c3c2,66a626ef09d4e21e1a8894ec,673497f24ad8bb9df84cf938,2024-11-13_13h14.58.350,Tarea de género gramatical,2024.2.2,Win32,59.88023952,,,,,,,,,,,,,,,,,,,,,,261.2654,262.2102,l,1,[],[],[],[],[],[],[],0.2707,1,262.2103,262.7102,,,,,,758,FEM,DIS,150,semana,el,a,0.2707,,,,262.7103,262.7108,0.040364583,-0.388020833,0,0,0,,0,121,121,307,1,,,,
,,,,,,452419b4f4da858c8aa6c3c2,66a626ef09d4e21e1a8894ec,673497f24ad8bb9df84cf938,2024-11-13_13h14.58.350,Tarea de género gramatical,2024.2.2,Win32,59.88023952,,,,,,,,,,,,,,,,,,,,,,262.7128,263.7604,a,1,[],[],[],[],[],[],[],0.3767,1,263.7607,264.2633,,,,,,647,MAS,DIS,150,avión,la,l,0.3767,,,,264.2635,264.2639,0.040364583,-0.388020833,0,0,0,,0,122,122,196,1,,,,
,,,,,,452419b4f4da858c8aa6c3c2,66a626ef09d4e21e1a8894ec,673497f24ad8bb9df84cf938,2024-11-13_13h14.58.350,Tarea de género gramatical,2024.2.2,Win32,59.88023952,,,,,,,,,,,,,,,,,,,,,,264.2667,265.7935,a,1,[],[],[],[],[],[],[],0.8528,1,265.7937,266.2937,,,,,,629,MAS,DIS,150,viaje,la,l,0.8528,,,,266.2967,266.2981,0.040364583,-0.388020833,0,0,0,,0,123,123,178,1,,,,
,,,,,,452419b4f4da858c8aa6c3c2,66a626ef09d4e21e1a8894ec,673497f24ad8bb9df84cf938,2024-11-13_13h14.58.350,Tarea de género gramatical,2024.2.2,Win32,59.88023952,,,,,,,,,,,,,,,,,,,,,,266.3,267.3788,a,1,[],[],[],[],[],[],[],0.4146,1,267.3789,267.8767,,,,,,611,MAS,DIS,150,chico,la,l,0.4146,,,,267.8768,267.8769,0.040364583,-0.388020833,0,0,0,,0,124,124,160,1,,,,
,,,,,,452419b4f4da858c8aa6c3c2,66a626ef09d4e21e1a8894ec,673497f24ad8bb9df84cf938,2024-11-13_13h14.58.350,Tarea de género gramatical,2024.2.2,Win32,59.88023952,,,,,,,,,,,,,,,,,,,,,,267.8787,268.8935,a,1,[],[],[],[],[],[],[],0.3563,1,268.8937,269.3941,,,,,,852,MAS,AGR,150,ladrón,el,l,0.3563,,,,269.3943,269.3946,0.040364583,-0.388020833,0,0,0,,0,125,125,401,1,,,,
,,,,,,452419b4f4da858c8aa6c3c2,66a626ef09d4e21e1a8894ec,673497f24ad8bb9df84cf938,2024-11-13_13h14.58.350,Tarea de género gramatical,2024.2.2,Win32,59.88023952,,,,,,,,,,,,,,,,,,,,,,269.3966,270.4268,a,0,[],[],[],[],[],[],[],0.3527,0,270.4288,270.9279,,,,,,499,FEM,CON,150,piel,,a,0.3527,,,,270.928,270.9284,0.040364583,-0.388020833,0,0,0,,0,126,126,48,1,,,,
,,,,,,452419b4f4da858c8aa6c3c2,66a626ef09d4e21e1a8894ec,673497f24ad8bb9df84cf938,2024-11-13_13h14.58.350,Tarea de género gramatical,2024.2.2,Win32,59.88023952,,,,,,,,,,,,,,,,,,,,,,270.9324,271.8767,l,1,[],[],[],[],[],[],[],0.2759,1,271.8785,272.3763,,,,,,621,FEM,AGR,150,mitad,la,a,0.2759,,,,272.3764,272.3765,0.040364583,-0.388020833,0,0,0,,0,127,127,170,1,,,,
,,,,,,452419b4f4da858c8aa6c3c2,66a626ef09d4e21e1a8894ec,673497f24ad8bb9df84cf938,2024-11-13_13h14.58.350,Tarea de género gramatical,2024.2.2,Win32,59.88023952,,,,,,,,,,,,,,,,,,,,,,272.3783,273.3938,a,1,[],[],[],[],[],[],[],0.3537,1,273.3941,273.8935,,,,,,546,MAS,AGR,150,pato,el,l,0.3537,,,,273.8981,273.8994,0.040364583,-0.388020833,0,0,0,,0,128,128,95,1,,,,
,,,,,,452419b4f4da858c8aa6c3c2,66a626ef09d4e21e1a8894ec,673497f24ad8bb9df84cf938,2024-11-13_13h14.58.350,Tarea de género gramatical,2024.2.2,Win32,59.88023952,,,,,,,,,,,,,,,,,,,,,,273.9007,274.9448,a,1,[],[],[],[],[],[],[],0.3816,1,274.945,275.4453,,,,,,851,MAS,DIS,150,abrigo,la,l,0.3816,,,,275.4454,275.4455,0.040364583,-0.388020833,0,0,0,,0,129,129,400,1,,,,
,,,,,,452419b4f4da858c8aa6c3c2,66a626ef09d4e21e1a8894ec,673497f24ad8bb9df84cf938,2024-11-13_13h14.58.350,Tarea de género gramatical,2024.2.2,Win32,59.88023952,,,,,,,,,,,,,,,,,,,,,,275.4474,276.4625,a,1,[],[],[],[],[],[],[],0.348,1,276.4627,276.9592,,,,,,635,MAS,DIS,150,sueño,la,l,0.348,,,,276.9594,276.9597,0.040364583,-0.388020833,0,0,0,,0,130,130,184,1,,,,
,,,,,,452419b4f4da858c8aa6c3c2,66a626ef09d4e21e1a8894ec,673497f24ad8bb9df84cf938,2024-11-13_13h14.58.350,Tarea de género gramatical,2024.2.2,Win32,59.88023952,,,,,,,,,,,,,,,,,,,,,,276.9622,277.9097,l,1,[],[],[],[],[],[],[],0.281,1,277.9099,278.4095,,,,,,878,FEM,DIS,150,jugada,el,a,0.281,,,,278.4096,278.4099,0.040364583,-0.388020833,0,0,0,,0,131,131,427,1,,,,
,,,,,,452419b4f4da858c8aa6c3c2,66a626ef09d4e21e1a8894ec,673497f24ad8bb9df84cf938,2024-11-13_13h14.58.350,Tarea de género gramatical,2024.2.2,Win32,59.88023952,,,,,,,,,,,,,,,,,,,,,,278.4137,279.4259,a,1,[],[],[],[],[],[],[],0.3447,1,279.4261,279.926,,,,,,804,MAS,AGR,150,camión,el,l,0.3447,,,,279.9313,279.9333,0.040364583,-0.388020833,0,0,0,,0,132,132,353,1,,,,
,,,,,,452419b4f4da858c8aa6c3c2,66a626ef09d4e21e1a8894ec,673497f24ad8bb9df84cf938,2024-11-13_13h14.58.350,Tarea de género gramatical,2024.2.2,Win32,59.88023952,,,,,,,,,,,,,,,,,,,,,,279.9349,280.9255,a,1,[],[],[],[],[],[],[],0.3187,1,280.9256,281.4256,,,,,,688,MAS,CON,150,norte,,l,0.3187,,,,281.4257,281.4259,0.040364583,-0.388020833,0,0,0,,0,133,133,237,1,,,,
,,,,,,452419b4f4da858c8aa6c3c2,66a626ef09d4e21e1a8894ec,673497f24ad8bb9df84cf938,2024-11-13_13h14.58.350,Tarea de género gramatical,2024.2.2,Win32,59.88023952,,,,,,,,,,,,,,,,,,,,,,281.4283,282.3929,l,1,[],[],[],[],[],[],[],0.2952,1,282.3931,282.8925,,,,,,458,FEM,DIS,150,idea,el,a,0.2952,,,,282.8926,282.8932,0.040364583,-0.388020833,0,0,0,,0,134,134,7,1,,,,
,,,,,,452419b4f4da858c8aa6c3c2,66a626ef09d4e21e1a8894ec,673497f24ad8bb9df84cf938,2024-11-13_13h14.58.350,Tarea de género gramatical,2024.2.2,Win32,59.88023952,,,,,,,,,,,,,,,,,,,,,,282.8971,283.9424,a,1,[],[],[],[],[],[],[],0.3675,1,283.9425,284.4424,,,,,,743,MAS,DIS,150,patio,la,l,0.3675,,,,284.4425,284.4427,0.040364583,-0.388020833,0,0,0,,0,135,135,292,1,,,,
,,,,,,452419b4f4da858c8aa6c3c2,66a626ef09d4e21e1a8894ec,673497f24ad8bb9df84cf938,2024-11-13_13h14.58.350,Tarea de género gramatical,2024.2.2,Win32,59.88023952,,,,,,,,,,,,,,,,,,,,,,284.4464,285.5448,a,1,[],[],[],[],[],[],[],0.4204,1,285.5451,286.042,,,,,,552,MAS,AGR,150,coro,el,l,0.4204,,,,286.0421,286.0422,0.040364583,-0.388020833,0,0,0,,0,136,136,101,1,,,,
,,,,,,452419b4f4da858c8aa6c3c2,66a626ef09d4e21e1a8894ec,673497f24ad8bb9df84cf938,2024-11-13_13h14.58.350,Tarea de género gramatical,2024.2.2,Win32,59.88023952,,,,,,,,,,,,,,,,,,,,,,286.0446,287.1092,l,1,[],[],[],[],[],[],[],0.3926,1,287.1094,287.6086,,,,,,620,FEM,DIS,150,carta,el,a,0.3926,,,,287.6127,287.615,0.040364583,-0.388020833,0,0,0,,0,137,137,169,1,,,,
,,,,,,452419b4f4da858c8aa6c3c2,66a626ef09d4e21e1a8894ec,673497f24ad8bb9df84cf938,2024-11-13_13h14.58.350,Tarea de género gramatical,2024.2.2,Win32,59.88023952,,,,,,,,,,,,,,,,,,,,,,287.6172,288.5583,l,1,[],[],[],[],[],[],[],0.2768,1,288.5584,289.0586,,,,,,530,FEM,DIS,150,vaca,el,a,0.2768,,,,289.0588,289.059,0.040364583,-0.388020833,0,0,0,,0,138,138,79,1,,,,
,,,,,,452419b4f4da858c8aa6c3c2,66a626ef09d4e21e1a8894ec,673497f24ad8bb9df84cf938,2024-11-13_13h14.58.350,Tarea de género gramatical,2024.2.2,Win32,59.88023952,,,,,,,,,,,,,,,,,,,,,,289.0615,290.0753,l,1,[],[],[],[],[],[],[],0.34,1,290.0754,290.5755,,,,,,637,FEM,CON,150,lista,,a,0.34,,,,290.5756,290.5758,0.040364583,-0.388020833,0,0,0,,0,139,139,186,1,,,,
,,,,,,452419b4f4da858c8aa6c3c2,66a626ef09d4e21e1a8894ec,673497f24ad8bb9df84cf938,2024-11-13_13h14.58.350,Tarea de género gramatical,2024.2.2,Win32,59.88023952,,,,,,,,,,,,,,,,,,,,,,290.5778,291.61,a,1,[],[],[],[],[],[],[],0.36,1,291.6102,292.1084,,,,,,515,MAS,DIS,150,rayo,la,l,0.36,,,,292.1086,292.1088,0.040364583,-0.388020833,0,0,0,,0,140,140,64,1,,,,
,,,,,,452419b4f4da858c8aa6c3c2,66a626ef09d4e21e1a8894ec,673497f24ad8bb9df84cf938,2024-11-13_13h14.58.350,Tarea de género gramatical,2024.2.2,Win32,59.88023952,,,,,,,,,,,,,,,,,,,,,,292.111,293.1927,l,1,[],[],[],[],[],[],[],0.4122,1,293.1933,293.6946,,,,,,674,FEM,DIS,150,arena,el,a,0.4122,,,,293.6996,293.7022,0.040364583,-0.388020833,0,0,0,,0,141,141,223,1,,,,
,,,,,,452419b4f4da858c8aa6c3c2,66a626ef09d4e21e1a8894ec,673497f24ad8bb9df84cf938,2024-11-13_13h14.58.350,Tarea de género gramatical,2024.2.2,Win32,59.88023952,,,,,,,,,,,,,,,,,,,,,,293.7047,294.6924,a,1,[],[],[],[],[],[],[],0.3204,1,294.6925,295.1921,,,,,,724,MAS,CON,150,motor,,l,0.3204,,,,295.1922,295.1923,0.040364583,-0.388020833,0,0,0,,0,142,142,273,1,,,,
,,,,,,452419b4f4da858c8aa6c3c2,66a626ef09d4e21e1a8894ec,673497f24ad8bb9df84cf938,2024-11-13_13h14.58.350,Tarea de género gramatical,2024.2.2,Win32,59.88023952,,,,,,,,,,,,,,,,,,,,,,295.1944,296.1779,a,1,[],[],[],[],[],[],[],0.3138,1,296.1781,296.6751,,,,,,497,MAS,DIS,150,olor,la,l,0.3138,,,,296.6752,296.6754,0.040364583,-0.388020833,0,0,0,,0,143,143,46,1,,,,
,,,,,,452419b4f4da858c8aa6c3c2,66a626ef09d4e21e1a8894ec,673497f24ad8bb9df84cf938,2024-11-13_13h14.58.350,Tarea de género gramatical,2024.2.2,Win32,59.88023952,,,,,,,,,,,,,,,,,,,,,,296.6774,297.6279,l,1,[],[],[],[],[],[],[],0.2682,1,297.628,298.1267,,,,,,723,FEM,AGR,150,tarta,la,a,0.2682,,,,298.1268,298.1271,0.040364583,-0.388020833,0,0,0,,0,144,144,272,1,,,,
,,,,,,452419b4f4da858c8aa6c3c2,66a626ef09d4e21e1a8894ec,673497f24ad8bb9df84cf938,2024-11-13_13h14.58.350,Tarea de género gramatical,2024.2.2,Win32,59.88023952,,,,,,,,,,,,,,,,,,,,,,298.1303,299.1624,a,0,[],[],[],[],[],[],[],0.3517,0,299.1648,299.6603,,,,,,601,FEM,CON,150,noche,,a,0.3517,,,,299.6605,299.6608,0.040364583,-0.388020833,0,0,0,,0,145,145,150,1,,,,
,,,,,,452419b4f4da858c8aa6c3c2,66a626ef09d4e21e1a8894ec,673497f24ad8bb9df84cf938,2024-11-13_13h14.58.350,Tarea de género gramatical,2024.2.2,Win32,59.88023952,,,,,,,,,,,,,,,,,,,,,,299.6643,300.7117,a,1,[],[],[],[],[],[],[],0.3828,1,300.7134,301.2116,,,,,,840,MAS,AGR,150,rostro,el,l,0.3828,,,,301.2171,301.219,0.040364583,-0.388020833,0,0,0,,0,146,146,389,1,,,,
,,,,,,452419b4f4da858c8aa6c3c2,66a626ef09d4e21e1a8894ec,673497f24ad8bb9df84cf938,2024-11-13_13h14.58.350,Tarea de género gramatical,2024.2.2,Win32,59.88023952,,,,,,,,,,,,,,,,,,,,,,301.2209,302.3247,a,1,[],[],[],[],[],[],[],0.4264,1,302.3249,302.8244,,,,,,580,MAS,CON,150,yate,,l,0.4264,,,,302.8246,302.825,0.040364583,-0.388020833,0,0,0,,0,147,147,129,1,,,,
,,,,,,452419b4f4da858c8aa6c3c2,66a626ef09d4e21e1a8894ec,673497f24ad8bb9df84cf938,2024-11-13_13h14.58.350,Tarea de género gramatical,2024.2.2,Win32,59.88023952,,,,,,,,,,,,,,,,,,,,,,302.828,303.7947,l,1,[],[],[],[],[],[],[],0.3011,1,303.7948,304.2916,,,,,,709,FEM,CON,150,prima,,a,0.3011,,,,304.2918,304.2921,0.040364583,-0.388020833,0,0,0,,0,148,148,258,1,,,,
,,,,,,452419b4f4da858c8aa6c3c2,66a626ef09d4e21e1a8894ec,673497f24ad8bb9df84cf938,2024-11-13_13h14.58.350,Tarea de género gramatical,2024.2.2,Win32,59.88023952,,,,,,,,,,,,,,,,,,,,,,304.295,305.275,a,1,[],[],[],[],[],[],[],0.3094,1,305.2752,305.7768,,,,,,814,MAS,CON,150,viento,,l,0.3094,,,,305.7768,305.7771,0.040364583,-0.388020833,0,0,0,,0,149,149,363,1,,,,
,,,,,,452419b4f4da858c8aa6c3c2,66a626ef09d4e21e1a8894ec,673497f24ad8bb9df84cf938,2024-11-13_13h14.58.350,Tarea de género gramatical,2024.2.2,Win32,59.88023952,,,,,,,,,,,,,,,,,,,,,,305.7789,306.7246,l,1,[],[],[],[],[],[],[],0.2699,1,306.7247,307.2244,,,,,,704,FEM,DIS,150,caída,el,a,0.2699,,,,307.2277,309.6245,0.040364583,-0.388020833,0,0,0,space,0,150,150,253,1,2.3788,,,
,,,,,,452419b4f4da858c8aa6c3c2,66a626ef09d4e21e1a8894ec,673497f24ad8bb9df84cf938,2024-11-13_13h14.58.350,Tarea de género gramatical,2024.2.2,Win32,59.88023952,,,,,,,,,,,,,,,,,,,,,,309.6277,310.7406,a,1,[],[],[],[],[],[],[],0.4498,1,310.7406,311.2405,,,,,,492,MAS,AGR,150,show,el,l,0.4498,,,,311.2406,311.2408,0.040364583,-0.388020833,0,0,0,,0,151,151,41,1,,,,
,,,,,,452419b4f4da858c8aa6c3c2,66a626ef09d4e21e1a8894ec,673497f24ad8bb9df84cf938,2024-11-13_13h14.58.350,Tarea de género gramatical,2024.2.2,Win32,59.88023952,,,,,,,,,,,,,,,,,,,,,,311.243,312.2577,a,1,[],[],[],[],[],[],[],0.337,1,312.258,312.757,,,,,,660,MAS,AGR,150,baile,el,l,0.337,,,,312.7571,312.7573,0.040364583,-0.388020833,0,0,0,,0,152,152,209,1,,,,
,,,,,,452419b4f4da858c8aa6c3c2,66a626ef09d4e21e1a8894ec,673497f24ad8bb9df84cf938,2024-11-13_13h14.58.350,Tarea de género gramatical,2024.2.2,Win32,59.88023952,,,,,,,,,,,,,,,,,,,,,,312.7592,313.907,l,1,[],[],[],[],[],[],[],0.4685,1,313.9072,314.4071,,,,,,824,FEM,DIS,150,herida,el,a,0.4685,,,,314.4072,314.4073,0.040364583,-0.388020833,0,0,0,,0,153,153,373,1,,,,
,,,,,,452419b4f4da858c8aa6c3c2,66a626ef09d4e21e1a8894ec,673497f24ad8bb9df84cf938,2024-11-13_13h14.58.350,Tarea de género gramatical,2024.2.2,Win32,59.88023952,,,,,,,,,,,,,,,,,,,,,,314.409,315.4402,l,1,[],[],[],[],[],[],[],0.3565,1,315.4406,315.9437,,,,,,837,FEM,AGR,150,página,la,a,0.3565,,,,315.9438,315.9441,0.040364583,-0.388020833,0,0,0,,0,154,154,386,1,,,,
,,,,,,452419b4f4da858c8aa6c3c2,66a626ef09d4e21e1a8894ec,673497f24ad8bb9df84cf938,2024-11-13_13h14.58.350,Tarea de género gramatical,2024.2.2,Win32,59.88023952,,,,,,,,,,,,,,,,,,,,,,315.9461,317.1266,l,1,[],[],[],[],[],[],[],0.5138,1,317.1268,317.6251,,,,,,517,FEM,CON,150,miel,,a,0.5138,,,,317.6303,317.6316,0.040364583,-0.388020833,0,0,0,,0,155,155,66,1,,,,
,,,,,,452419b4f4da858c8aa6c3c2,66a626ef09d4e21e1a8894ec,673497f24ad8bb9df84cf938,2024-11-13_13h14.58.350,Tarea de género gramatical,2024.2.2,Win32,59.88023952,,,,,,,,,,,,,,,,,,,,,,317.6332,318.6432,a,1,[],[],[],[],[],[],[],0.3339,1,318.6433,319.1432,,,,,,563,MAS,DIS,150,toro,la,l,0.3339,,,,319.1434,319.1437,0.040364583,-0.388020833,0,0,0,,0,156,156,112,1,,,,
,,,,,,452419b4f4da858c8aa6c3c2,66a626ef09d4e21e1a8894ec,673497f24ad8bb9df84cf938,2024-11-13_13h14.58.350,Tarea de género gramatical,2024.2.2,Win32,59.88023952,,,,,,,,,,,,,,,,,,,,,,319.1461,320.16,l,1,[],[],[],[],[],[],[],0.3237,1,320.1601,320.6571,,,,,,883,FEM,CON,150,huella,,a,0.3237,,,,320.6572,320.6575,0.040364583,-0.388020833,0,0,0,,0,157,157,432,1,,,,
,,,,,,452419b4f4da858c8aa6c3c2,66a626ef09d4e21e1a8894ec,673497f24ad8bb9df84cf938,2024-11-13_13h14.58.350,Tarea de género gramatical,2024.2.2,Win32,59.88023952,,,,,,,,,,,,,,,,,,,,,,320.6611,321.6064,l,1,[],[],[],[],[],[],[],0.2773,1,321.6066,322.1064,,,,,,584,FEM,DIS,150,rama,el,a,0.2773,,,,322.1065,322.1067,0.040364583,-0.388020833,0,0,0,,0,158,158,133,1,,,,
,,,,,,452419b4f4da858c8aa6c3c2,66a626ef09d4e21e1a8894ec,673497f24ad8bb9df84cf938,2024-11-13_13h14.58.350,Tarea de género gramatical,2024.2.2,Win32,59.88023952,,,,,,,,,,,,,,,,,,,,,,322.1086,323.0736,a,1,[],[],[],[],[],[],[],0.2893,1,323.0738,323.5738,,,,,,652,MAS,CON,150,honor,,l,0.2893,,,,323.5781,323.5794,0.040364583,-0.388020833,0,0,0,,0,159,159,201,1,,,,
,,,,,,452419b4f4da858c8aa6c3c2,66a626ef09d4e21e1a8894ec,673497f24ad8bb9df84cf938,2024-11-13_13h14.58.350,Tarea de género gramatical,2024.2.2,Win32,59.88023952,,,,,,,,,,,,,,,,,,,,,,323.5821,324.5065,l,1,[],[],[],[],[],[],[],0.2529,1,324.5068,325.007,,,,,,547,FEM,CON,150,capa,,a,0.2529,,,,325.0071,325.0074,0.040364583,-0.388020833,0,0,0,,0,160,160,96,1,,,,
,,,,,,452419b4f4da858c8aa6c3c2,66a626ef09d4e21e1a8894ec,673497f24ad8bb9df84cf938,2024-11-13_13h14.58.350,Tarea de género gramatical,2024.2.2,Win32,59.88023952,,,,,,,,,,,,,,,,,,,,,,325.0111,325.9896,a,1,[],[],[],[],[],[],[],0.3033,1,325.9898,326.4898,,,,,,522,MAS,AGR,150,hoyo,el,l,0.3033,,,,326.4899,326.4902,0.040364583,-0.388020833,0,0,0,,0,161,161,71,1,,,,
,,,,,,452419b4f4da858c8aa6c3c2,66a626ef09d4e21e1a8894ec,673497f24ad8bb9df84cf938,2024-11-13_13h14.58.350,Tarea de género gramatical,2024.2.2,Win32,59.88023952,,,,,,,,,,,,,,,,,,,,,,326.4923,327.5229,a,1,[],[],[],[],[],[],[],0.3518,1,327.523,328.0237,,,,,,750,MAS,AGR,150,túnel,el,l,0.3518,,,,328.0238,328.0241,0.040364583,-0.388020833,0,0,0,,0,162,162,299,1,,,,
,,,,,,452419b4f4da858c8aa6c3c2,66a626ef09d4e21e1a8894ec,673497f24ad8bb9df84cf938,2024-11-13_13h14.58.350,Tarea de género gramatical,2024.2.2,Win32,59.88023952,,,,,,,,,,,,,,,,,,,,,,328.0265,328.9893,a,1,[],[],[],[],[],[],[],0.2884,1,328.9894,329.4898,,,,,,894,MAS,AGR,150,límite,el,l,0.2884,,,,329.4902,329.4905,0.040364583,-0.388020833,0,0,0,,0,163,163,443,1,,,,
,,,,,,452419b4f4da858c8aa6c3c2,66a626ef09d4e21e1a8894ec,673497f24ad8bb9df84cf938,2024-11-13_13h14.58.350,Tarea de género gramatical,2024.2.2,Win32,59.88023952,,,,,,,,,,,,,,,,,,,,,,329.4938,330.5228,l,1,[],[],[],[],[],[],[],0.3573,1,330.523,331.0229,,,,,,847,FEM,CON,150,cuerda,,a,0.3573,,,,331.0283,331.031,0.040364583,-0.388020833,0,0,0,,0,164,164,396,1,,,,
,,,,,,452419b4f4da858c8aa6c3c2,66a626ef09d4e21e1a8894ec,673497f24ad8bb9df84cf938,2024-11-13_13h14.58.350,Tarea de género gramatical,2024.2.2,Win32,59.88023952,,,,,,,,,,,,,,,,,,,,,,331.033,331.9728,l,1,[],[],[],[],[],[],[],0.2766,1,331.9729,332.4731,,,,,,782,FEM,DIS,150,basura,el,a,0.2766,,,,332.4733,332.4736,0.040364583,-0.388020833,0,0,0,,0,165,165,331,1,,,,
,,,,,,452419b4f4da858c8aa6c3c2,66a626ef09d4e21e1a8894ec,673497f24ad8bb9df84cf938,2024-11-13_13h14.58.350,Tarea de género gramatical,2024.2.2,Win32,59.88023952,,,,,,,,,,,,,,,,,,,,,,332.4772,333.5064,a,1,[],[],[],[],[],[],[],0.3581,1,333.5066,334.0058,,,,,,875,MAS,DIS,150,chiste,la,l,0.3581,,,,334.0059,334.0061,0.040364583,-0.388020833,0,0,0,,0,166,166,424,1,,,,
,,,,,,452419b4f4da858c8aa6c3c2,66a626ef09d4e21e1a8894ec,673497f24ad8bb9df84cf938,2024-11-13_13h14.58.350,Tarea de género gramatical,2024.2.2,Win32,59.88023952,,,,,,,,,,,,,,,,,,,,,,334.0086,335.0725,l,1,[],[],[],[],[],[],[],0.3912,1,335.0726,335.5724,,,,,,603,FEM,AGR,150,mujer,la,a,0.3912,,,,335.5725,335.5727,0.040364583,-0.388020833,0,0,0,,0,167,167,152,1,,,,
,,,,,,452419b4f4da858c8aa6c3c2,66a626ef09d4e21e1a8894ec,673497f24ad8bb9df84cf938,2024-11-13_13h14.58.350,Tarea de género gramatical,2024.2.2,Win32,59.88023952,,,,,,,,,,,,,,,,,,,,,,335.5754,336.6055,a,1,[],[],[],[],[],[],[],0.3606,1,336.6057,337.1079,,,,,,617,MAS,DIS,150,juego,la,l,0.3606,,,,337.1125,337.1147,0.040364583,-0.388020833,0,0,0,,0,168,168,166,1,,,,
,,,,,,452419b4f4da858c8aa6c3c2,66a626ef09d4e21e1a8894ec,673497f24ad8bb9df84cf938,2024-11-13_13h14.58.350,Tarea de género gramatical,2024.2.2,Win32,59.88023952,,,,,,,,,,,,,,,,,,,,,,337.1165,338.1555,l,1,[],[],[],[],[],[],[],0.3771,1,338.1556,338.6563,,,,,,680,FEM,DIS,150,regla,el,a,0.3771,,,,338.6564,338.6568,0.040364583,-0.388020833,0,0,0,,0,169,169,229,1,,,,
,,,,,,452419b4f4da858c8aa6c3c2,66a626ef09d4e21e1a8894ec,673497f24ad8bb9df84cf938,2024-11-13_13h14.58.350,Tarea de género gramatical,2024.2.2,Win32,59.88023952,,,,,,,,,,,,,,,,,,,,,,338.66,339.6393,a,1,[],[],[],[],[],[],[],0.3023,1,339.6395,340.1446,,,,,,792,MAS,AGR,150,abuelo,el,l,0.3023,,,,340.1447,340.1448,0.040364583,-0.388020833,0,0,0,,0,170,170,341,1,,,,
,,,,,,452419b4f4da858c8aa6c3c2,66a626ef09d4e21e1a8894ec,673497f24ad8bb9df84cf938,2024-11-13_13h14.58.350,Tarea de género gramatical,2024.2.2,Win32,59.88023952,,,,,,,,,,,,,,,,,,,,,,340.1478,341.3062,a,1,[],[],[],[],[],[],[],0.4881,1,341.3064,341.8054,,,,,,731,MAS,DIS,150,actor,la,l,0.4881,,,,341.8056,341.8058,0.040364583,-0.388020833,0,0,0,,0,171,171,280,1,,,,
,,,,,,452419b4f4da858c8aa6c3c2,66a626ef09d4e21e1a8894ec,673497f24ad8bb9df84cf938,2024-11-13_13h14.58.350,Tarea de género gramatical,2024.2.2,Win32,59.88023952,,,,,,,,,,,,,,,,,,,,,,341.8088,342.7556,l,1,[],[],[],[],[],[],[],0.2749,1,342.7559,343.2557,,,,,,632,FEM,DIS,150,prisa,el,a,0.2749,,,,343.2559,343.2561,0.040364583,-0.388020833,0,0,0,,0,172,172,181,1,,,,
,,,,,,452419b4f4da858c8aa6c3c2,66a626ef09d4e21e1a8894ec,673497f24ad8bb9df84cf938,2024-11-13_13h14.58.350,Tarea de género gramatical,2024.2.2,Win32,59.88023952,,,,,,,,,,,,,,,,,,,,,,343.259,344.2054,a,1,[],[],[],[],[],[],[],0.2719,1,344.2055,344.7055,,,,,,822,MAS,AGR,150,delito,el,l,0.2719,,,,344.7108,344.7132,0.040364583,-0.388020833,0,0,0,,0,173,173,371,1,,,,
,,,,,,452419b4f4da858c8aa6c3c2,66a626ef09d4e21e1a8894ec,673497f24ad8bb9df84cf938,2024-11-13_13h14.58.350,Tarea de género gramatical,2024.2.2,Win32,59.88023952,,,,,,,,,,,,,,,,,,,,,,344.7155,345.7717,l,1,[],[],[],[],[],[],[],0.3843,1,345.7719,346.2723,,,,,,633,FEM,AGR,150,llave,la,a,0.3843,,,,346.2725,346.2728,0.040364583,-0.388020833,0,0,0,,0,174,174,182,1,,,,
,,,,,,452419b4f4da858c8aa6c3c2,66a626ef09d4e21e1a8894ec,673497f24ad8bb9df84cf938,2024-11-13_13h14.58.350,Tarea de género gramatical,2024.2.2,Win32,59.88023952,,,,,,,,,,,,,,,,,,,,,,346.277,347.2076,l,1,[],[],[],[],[],[],[],0.2651,1,347.2078,347.7068,,,,,,759,FEM,AGR,150,esposa,la,a,0.2651,,,,347.7069,347.7071,0.040364583,-0.388020833,0,0,0,,0,175,175,308,1,,,,
,,,,,,452419b4f4da858c8aa6c3c2,66a626ef09d4e21e1a8894ec,673497f24ad8bb9df84cf938,2024-11-13_13h14.58.350,Tarea de género gramatical,2024.2.2,Win32,59.88023952,,,,,,,,,,,,,,,,,,,,,,347.709,348.7074,l,1,[],[],[],[],[],[],[],0.3241,1,348.708,349.2048,,,,,,795,FEM,AGR,150,pierna,la,a,0.3241,,,,349.2049,349.2051,0.040364583,-0.388020833,0,0,0,,0,176,176,344,1,,,,
,,,,,,452419b4f4da858c8aa6c3c2,66a626ef09d4e21e1a8894ec,673497f24ad8bb9df84cf938,2024-11-13_13h14.58.350,Tarea de género gramatical,2024.2.2,Win32,59.88023952,,,,,,,,,,,,,,,,,,,,,,349.2074,350.1548,a,1,[],[],[],[],[],[],[],0.2733,1,350.1549,350.6564,,,,,,888,MAS,AGR,150,tanque,el,l,0.2733,,,,350.66,350.6614,0.040364583,-0.388020833,0,0,0,,0,177,177,437,1,,,,
,,,,,,452419b4f4da858c8aa6c3c2,66a626ef09d4e21e1a8894ec,673497f24ad8bb9df84cf938,2024-11-13_13h14.58.350,Tarea de género gramatical,2024.2.2,Win32,59.88023952,,,,,,,,,,,,,,,,,,,,,,350.663,351.6392,a,1,[],[],[],[],[],[],[],0.2982,1,351.6393,352.1383,,,,,,756,MAS,AGR,150,dinero,el,l,0.2982,,,,352.1384,352.1386,0.040364583,-0.388020833,0,0,0,,0,178,178,305,1,,,,
,,,,,,452419b4f4da858c8aa6c3c2,66a626ef09d4e21e1a8894ec,673497f24ad8bb9df84cf938,2024-11-13_13h14.58.350,Tarea de género gramatical,2024.2.2,Win32,59.88023952,,,,,,,,,,,,,,,,,,,,,,352.1403,353.1245,l,1,[],[],[],[],[],[],[],0.3304,1,353.1246,353.623,,,,,,745,FEM,CON,150,grasa,,a,0.3304,,,,353.6241,353.6246,0.040364583,-0.388020833,0,0,0,,0,179,179,294,1,,,,
,,,,,,452419b4f4da858c8aa6c3c2,66a626ef09d4e21e1a8894ec,673497f24ad8bb9df84cf938,2024-11-13_13h14.58.350,Tarea de género gramatical,2024.2.2,Win32,59.88023952,,,,,,,,,,,,,,,,,,,,,,353.6276,354.6086,a,1,[],[],[],[],[],[],[],0.313,1,354.6089,355.1061,,,,,,642,MAS,AGR,150,grupo,el,l,0.313,,,,355.1062,355.1064,0.040364583,-0.388020833,0,0,0,,0,180,180,191,1,,,,
,,,,,,452419b4f4da858c8aa6c3c2,66a626ef09d4e21e1a8894ec,673497f24ad8bb9df84cf938,2024-11-13_13h14.58.350,Tarea de género gramatical,2024.2.2,Win32,59.88023952,,,,,,,,,,,,,,,,,,,,,,355.1081,356.1047,a,1,[],[],[],[],[],[],[],0.3338,1,356.1048,356.6076,,,,,,556,MAS,CON,150,test,,l,0.3338,,,,356.6077,356.608,0.040364583,-0.388020833,0,0,0,,0,181,181,105,1,,,,
,,,,,,452419b4f4da858c8aa6c3c2,66a626ef09d4e21e1a8894ec,673497f24ad8bb9df84cf938,2024-11-13_13h14.58.350,Tarea de género gramatical,2024.2.2,Win32,59.88023952,,,,,,,,,,,,,,,,,,,,,,356.6104,357.5552,a,1,[],[],[],[],[],[],[],0.2582,1,357.5554,358.0568,,,,,,582,MAS,AGR,150,velo,el,l,0.2582,,,,358.0623,358.0645,0.040364583,-0.388020833,0,0,0,,0,182,182,131,1,,,,
,,,,,,452419b4f4da858c8aa6c3c2,66a626ef09d4e21e1a8894ec,673497f24ad8bb9df84cf938,2024-11-13_13h14.58.350,Tarea de género gramatical,2024.2.2,Win32,59.88023952,,,,,,,,,,,,,,,,,,,,,,358.0665,359.2212,a,1,[],[],[],[],[],[],[],0.4725,1,359.2213,359.7211,,,,,,479,MAS,DIS,150,frío,la,l,0.4725,,,,359.7213,359.7216,0.040364583,-0.388020833,0,0,0,,0,183,183,28,1,,,,
,,,,,,452419b4f4da858c8aa6c3c2,66a626ef09d4e21e1a8894ec,673497f24ad8bb9df84cf938,2024-11-13_13h14.58.350,Tarea de género gramatical,2024.2.2,Win32,59.88023952,,,,,,,,,,,,,,,,,,,,,,359.7232,360.7915,a,1,[],[],[],[],[],[],[],0.3996,1,360.7916,361.2933,,,,,,713,MAS,DIS,150,carro,la,l,0.3996,,,,361.2933,361.2935,0.040364583,-0.388020833,0,0,0,,0,184,184,262,1,,,,
,,,,,,452419b4f4da858c8aa6c3c2,66a626ef09d4e21e1a8894ec,673497f24ad8bb9df84cf938,2024-11-13_13h14.58.350,Tarea de género gramatical,2024.2.2,Win32,59.88023952,,,,,,,,,,,,,,,,,,,,,,361.2956,362.277,l,1,[],[],[],[],[],[],[],0.3185,1,362.2771,362.7745,,,,,,457,FEM,CON,150,hora,,a,0.3185,,,,362.7747,362.7751,0.040364583,-0.388020833,0,0,0,,0,185,185,6,1,,,,
,,,,,,452419b4f4da858c8aa6c3c2,66a626ef09d4e21e1a8894ec,673497f24ad8bb9df84cf938,2024-11-13_13h14.58.350,Tarea de género gramatical,2024.2.2,Win32,59.88023952,,,,,,,,,,,,,,,,,,,,,,362.7782,363.7905,a,1,[],[],[],[],[],[],[],0.3348,1,363.7906,364.2906,,,,,,785,MAS,DIS,150,montón,la,l,0.3348,,,,364.2959,364.2978,0.040364583,-0.388020833,0,0,0,,0,186,186,334,1,,,,
,,,,,,452419b4f4da858c8aa6c3c2,66a626ef09d4e21e1a8894ec,673497f24ad8bb9df84cf938,2024-11-13_13h14.58.350,Tarea de género gramatical,2024.2.2,Win32,59.88023952,,,,,,,,,,,,,,,,,,,,,,364.2998,365.4052,l,1,[],[],[],[],[],[],[],0.445,1,365.4054,365.9041,,,,,,673,FEM,CON,150,plata,,a,0.445,,,,365.9045,365.9047,0.040364583,-0.388020833,0,0,0,,0,187,187,222,1,,,,
,,,,,,452419b4f4da858c8aa6c3c2,66a626ef09d4e21e1a8894ec,673497f24ad8bb9df84cf938,2024-11-13_13h14.58.350,Tarea de género gramatical,2024.2.2,Win32,59.88023952,,,,,,,,,,,,,,,,,,,,,,365.9077,367.056,l,1,[],[],[],[],[],[],[],0.4803,1,367.0561,367.5541,,,,,,734,FEM,DIS,150,fruta,el,a,0.4803,,,,367.5542,367.5544,0.040364583,-0.388020833,0,0,0,,0,188,188,283,1,,,,
,,,,,,452419b4f4da858c8aa6c3c2,66a626ef09d4e21e1a8894ec,673497f24ad8bb9df84cf938,2024-11-13_13h14.58.350,Tarea de género gramatical,2024.2.2,Win32,59.88023952,,,,,,,,,,,,,,,,,,,,,,367.5561,368.5411,a,1,[],[],[],[],[],[],[],0.3156,1,368.5413,369.037,,,,,,562,MAS,CON,150,reto,,l,0.3156,,,,369.0372,369.0376,0.040364583,-0.388020833,0,0,0,,0,189,189,111,1,,,,
,,,,,,452419b4f4da858c8aa6c3c2,66a626ef09d4e21e1a8894ec,673497f24ad8bb9df84cf938,2024-11-13_13h14.58.350,Tarea de género gramatical,2024.2.2,Win32,59.88023952,,,,,,,,,,,,,,,,,,,,,,369.0392,370.0704,l,1,[],[],[],[],[],[],[],0.3497,1,370.0706,370.5731,,,,,,806,FEM,DIS,150,piedra,el,a,0.3497,,,,370.5733,370.5737,0.040364583,-0.388020833,0,0,0,,0,190,190,355,1,,,,
,,,,,,452419b4f4da858c8aa6c3c2,66a626ef09d4e21e1a8894ec,673497f24ad8bb9df84cf938,2024-11-13_13h14.58.350,Tarea de género gramatical,2024.2.2,Win32,59.88023952,,,,,,,,,,,,,,,,,,,,,,370.5755,371.7557,a,1,[],[],[],[],[],[],[],0.4993,1,371.7559,372.2548,,,,,,455,MAS,DIS,150,tipo,la,l,0.4993,,,,372.2583,372.2596,0.040364583,-0.388020833,0,0,0,,0,191,191,4,1,,,,
,,,,,,452419b4f4da858c8aa6c3c2,66a626ef09d4e21e1a8894ec,673497f24ad8bb9df84cf938,2024-11-13_13h14.58.350,Tarea de género gramatical,2024.2.2,Win32,59.88023952,,,,,,,,,,,,,,,,,,,,,,372.2609,373.2369,l,1,[],[],[],[],[],[],[],0.2977,1,373.237,373.7375,,,,,,860,FEM,DIS,150,piedad,el,a,0.2977,,,,373.7376,373.7379,0.040364583,-0.388020833,0,0,0,,0,192,192,409,1,,,,
,,,,,,452419b4f4da858c8aa6c3c2,66a626ef09d4e21e1a8894ec,673497f24ad8bb9df84cf938,2024-11-13_13h14.58.350,Tarea de género gramatical,2024.2.2,Win32,59.88023952,,,,,,,,,,,,,,,,,,,,,,373.74,374.7577,l,1,[],[],[],[],[],[],[],0.3646,1,374.7578,375.2566,,,,,,661,FEM,CON,150,salud,,a,0.3646,,,,375.2567,375.2569,0.040364583,-0.388020833,0,0,0,,0,193,193,210,1,,,,
,,,,,,452419b4f4da858c8aa6c3c2,66a626ef09d4e21e1a8894ec,673497f24ad8bb9df84cf938,2024-11-13_13h14.58.350,Tarea de género gramatical,2024.2.2,Win32,59.88023952,,,,,,,,,,,,,,,,,,,,,,375.2586,376.2702,l,1,[],[],[],[],[],[],[],0.3408,1,376.2706,376.7703,,,,,,614,FEM,DIS,150,novia,el,a,0.3408,,,,376.7705,376.7709,0.040364583,-0.388020833,0,0,0,,0,194,194,163,1,,,,
,,,,,,452419b4f4da858c8aa6c3c2,66a626ef09d4e21e1a8894ec,673497f24ad8bb9df84cf938,2024-11-13_13h14.58.350,Tarea de género gramatical,2024.2.2,Win32,59.88023952,,,,,,,,,,,,,,,,,,,,,,376.7733,377.8054,a,1,[],[],[],[],[],[],[],0.3497,1,377.8056,378.3043,,,,,,749,MAS,DIS,150,rumbo,la,l,0.3497,,,,378.3095,378.3117,0.040364583,-0.388020833,0,0,0,,0,195,195,298,1,,,,
,,,,,,452419b4f4da858c8aa6c3c2,66a626ef09d4e21e1a8894ec,673497f24ad8bb9df84cf938,2024-11-13_13h14.58.350,Tarea de género gramatical,2024.2.2,Win32,59.88023952,,,,,,,,,,,,,,,,,,,,,,378.3138,379.4227,a,1,[],[],[],[],[],[],[],0.4491,1,379.4228,379.922,,,,,,737,MAS,DIS,150,plato,la,l,0.4491,,,,379.9222,379.9225,0.040364583,-0.388020833,0,0,0,,0,196,196,286,1,,,,
,,,,,,452419b4f4da858c8aa6c3c2,66a626ef09d4e21e1a8894ec,673497f24ad8bb9df84cf938,2024-11-13_13h14.58.350,Tarea de género gramatical,2024.2.2,Win32,59.88023952,,,,,,,,,,,,,,,,,,,,,,379.9243,380.9392,l,1,[],[],[],[],[],[],[],0.3458,1,380.9393,381.4365,,,,,,722,FEM,DIS,150,oreja,el,a,0.3458,,,,381.4366,381.4369,0.040364583,-0.388020833,0,0,0,,0,197,197,271,1,,,,
,,,,,,452419b4f4da858c8aa6c3c2,66a626ef09d4e21e1a8894ec,673497f24ad8bb9df84cf938,2024-11-13_13h14.58.350,Tarea de género gramatical,2024.2.2,Win32,59.88023952,,,,,,,,,,,,,,,,,,,,,,381.439,382.4697,l,1,[],[],[],[],[],[],[],0.3604,1,382.47,382.9696,,,,,,643,FEM,CON,150,bolsa,,a,0.3604,,,,382.9697,382.9699,0.040364583,-0.388020833,0,0,0,,0,198,198,192,1,,,,
,,,,,,452419b4f4da858c8aa6c3c2,66a626ef09d4e21e1a8894ec,673497f24ad8bb9df84cf938,2024-11-13_13h14.58.350,Tarea de género gramatical,2024.2.2,Win32,59.88023952,,,,,,,,,,,,,,,,,,,,,,382.9717,383.9695,a,1,[],[],[],[],[],[],[],0.324,1,383.9696,384.4701,,,,,,460,MAS,CON,150,niño,,l,0.324,,,,384.4701,384.4704,0.040364583,-0.388020833,0,0,0,,0,199,199,9,1,,,,
,,,,,,452419b4f4da858c8aa6c3c2,66a626ef09d4e21e1a8894ec,673497f24ad8bb9df84cf938,2024-11-13_13h14.58.350,Tarea de género gramatical,2024.2.2,Win32,59.88023952,,,,,,,,,,,,,,,,,,,,,,384.4727,385.4372,l,1,[],[],[],[],[],[],[],0.2957,1,385.4374,385.9364,,,,,,843,FEM,AGR,150,alarma,la,a,0.2957,,,,385.9408,385.9419,0.040364583,-0.388020833,0,0,0,,0,200,200,392,1,,,,
,,,,,,452419b4f4da858c8aa6c3c2,66a626ef09d4e21e1a8894ec,673497f24ad8bb9df84cf938,2024-11-13_13h14.58.350,Tarea de género gramatical,2024.2.2,Win32,59.88023952,,,,,,,,,,,,,,,,,,,,,,385.9432,387.0027,a,1,[],[],[],[],[],[],[],0.3857,1,387.0028,387.5026,,,,,,869,MAS,DIS,150,cuento,la,l,0.3857,,,,387.5026,387.5028,0.040364583,-0.388020833,0,0,0,,0,201,201,418,1,,,,
,,,,,,452419b4f4da858c8aa6c3c2,66a626ef09d4e21e1a8894ec,673497f24ad8bb9df84cf938,2024-11-13_13h14.58.350,Tarea de género gramatical,2024.2.2,Win32,59.88023952,,,,,,,,,,,,,,,,,,,,,,387.5047,388.6031,a,1,[],[],[],[],[],[],[],0.4184,1,388.6033,389.1029,,,,,,654,MAS,AGR,150,papel,el,l,0.4184,,,,389.1029,389.1032,0.040364583,-0.388020833,0,0,0,,0,202,202,203,1,,,,
,,,,,,452419b4f4da858c8aa6c3c2,66a626ef09d4e21e1a8894ec,673497f24ad8bb9df84cf938,2024-11-13_13h14.58.350,Tarea de género gramatical,2024.2.2,Win32,59.88023952,,,,,,,,,,,,,,,,,,,,,,389.1058,390.1527,l,1,[],[],[],[],[],[],[],0.3699,1,390.1528,390.6528,,,,,,855,FEM,AGR,150,parada,la,a,0.3699,,,,390.6529,390.6532,0.040364583,-0.388020833,0,0,0,,0,203,203,404,1,,,,
,,,,,,452419b4f4da858c8aa6c3c2,66a626ef09d4e21e1a8894ec,673497f24ad8bb9df84cf938,2024-11-13_13h14.58.350,Tarea de género gramatical,2024.2.2,Win32,59.88023952,,,,,,,,,,,,,,,,,,,,,,390.6558,391.9027,l,1,[],[],[],[],[],[],[],0.5771,1,391.9029,392.4028,,,,,,645,FEM,AGR,150,pared,la,a,0.5771,,,,392.4072,392.4086,0.040364583,-0.388020833,0,0,0,,0,204,204,194,1,,,,
,,,,,,452419b4f4da858c8aa6c3c2,66a626ef09d4e21e1a8894ec,673497f24ad8bb9df84cf938,2024-11-13_13h14.58.350,Tarea de género gramatical,2024.2.2,Win32,59.88023952,,,,,,,,,,,,,,,,,,,,,,392.41,393.4207,l,1,[],[],[],[],[],[],[],0.3478,1,393.4209,393.9191,,,,,,710,FEM,DIS,150,barra,el,a,0.3478,,,,393.9192,393.9195,0.040364583,-0.388020833,0,0,0,,0,205,205,259,1,,,,
,,,,,,452419b4f4da858c8aa6c3c2,66a626ef09d4e21e1a8894ec,673497f24ad8bb9df84cf938,2024-11-13_13h14.58.350,Tarea de género gramatical,2024.2.2,Win32,59.88023952,,,,,,,,,,,,,,,,,,,,,,393.9214,394.9028,l,1,[],[],[],[],[],[],[],0.3076,1,394.903,395.402,,,,,,591,FEM,AGR,150,cera,la,a,0.3076,,,,395.4021,395.4022,0.040364583,-0.388020833,0,0,0,,0,206,206,140,1,,,,
,,,,,,452419b4f4da858c8aa6c3c2,66a626ef09d4e21e1a8894ec,673497f24ad8bb9df84cf938,2024-11-13_13h14.58.350,Tarea de género gramatical,2024.2.2,Win32,59.88023952,,,,,,,,,,,,,,,,,,,,,,395.4045,396.3701,l,1,[],[],[],[],[],[],[],0.2844,1,396.3702,396.8687,,,,,,579,FEM,AGR,150,rana,la,a,0.2844,,,,396.8688,396.869,0.040364583,-0.388020833,0,0,0,,0,207,207,128,1,,,,
,,,,,,452419b4f4da858c8aa6c3c2,66a626ef09d4e21e1a8894ec,673497f24ad8bb9df84cf938,2024-11-13_13h14.58.350,Tarea de género gramatical,2024.2.2,Win32,59.88023952,,,,,,,,,,,,,,,,,,,,,,396.8716,397.8869,a,0,[],[],[],[],[],[],[],0.3339,0,397.8908,398.3856,,,,,,705,FEM,AGR,150,tribu,la,a,0.3339,,,,398.3857,398.386,0.040364583,-0.388020833,0,0,0,,0,208,208,254,1,,,,
,,,,,,452419b4f4da858c8aa6c3c2,66a626ef09d4e21e1a8894ec,673497f24ad8bb9df84cf938,2024-11-13_13h14.58.350,Tarea de género gramatical,2024.2.2,Win32,59.88023952,,,,,,,,,,,,,,,,,,,,,,398.388,399.3853,a,1,[],[],[],[],[],[],[],0.3202,1,399.3871,399.8853,,,,,,623,MAS,DIS,150,libro,la,l,0.3202,,,,399.8903,399.893,0.040364583,-0.388020833,0,0,0,,0,209,209,172,1,,,,
,,,,,,452419b4f4da858c8aa6c3c2,66a626ef09d4e21e1a8894ec,673497f24ad8bb9df84cf938,2024-11-13_13h14.58.350,Tarea de género gramatical,2024.2.2,Win32,59.88023952,,,,,,,,,,,,,,,,,,,,,,399.8954,400.9686,a,1,[],[],[],[],[],[],[],0.3994,1,400.9689,401.4707,,,,,,803,MAS,DIS,150,verano,la,l,0.3994,,,,401.4708,401.4711,0.040364583,-0.388020833,0,0,0,,0,210,210,352,1,,,,
,,,,,,452419b4f4da858c8aa6c3c2,66a626ef09d4e21e1a8894ec,673497f24ad8bb9df84cf938,2024-11-13_13h14.58.350,Tarea de género gramatical,2024.2.2,Win32,59.88023952,,,,,,,,,,,,,,,,,,,,,,401.4731,402.535,a,1,[],[],[],[],[],[],[],0.3697,1,402.5352,403.0352,,,,,,761,MAS,DIS,150,camino,la,l,0.3697,,,,403.0354,403.0358,0.040364583,-0.388020833,0,0,0,,0,211,211,310,1,,,,
,,,,,,452419b4f4da858c8aa6c3c2,66a626ef09d4e21e1a8894ec,673497f24ad8bb9df84cf938,2024-11-13_13h14.58.350,Tarea de género gramatical,2024.2.2,Win32,59.88023952,,,,,,,,,,,,,,,,,,,,,,403.0375,404.1383,a,1,[],[],[],[],[],[],[],0.4301,1,404.1385,404.6384,,,,,,671,MAS,DIS,150,brazo,la,l,0.4301,,,,404.6385,404.6391,0.040364583,-0.388020833,0,0,0,,0,212,212,220,1,,,,
,,,,,,452419b4f4da858c8aa6c3c2,66a626ef09d4e21e1a8894ec,673497f24ad8bb9df84cf938,2024-11-13_13h14.58.350,Tarea de género gramatical,2024.2.2,Win32,59.88023952,,,,,,,,,,,,,,,,,,,,,,404.6417,405.6685,a,1,[],[],[],[],[],[],[],0.3424,1,405.669,406.1705,,,,,,760,MAS,CON,150,nombre,,l,0.3424,,,,406.1735,406.1748,0.040364583,-0.388020833,0,0,0,,0,213,213,309,1,,,,
,,,,,,452419b4f4da858c8aa6c3c2,66a626ef09d4e21e1a8894ec,673497f24ad8bb9df84cf938,2024-11-13_13h14.58.350,Tarea de género gramatical,2024.2.2,Win32,59.88023952,,,,,,,,,,,,,,,,,,,,,,406.1761,407.2729,l,1,[],[],[],[],[],[],[],0.4304,1,407.2737,407.7681,,,,,,800,FEM,DIS,150,imagen,el,a,0.4304,,,,407.7682,407.7684,0.040364583,-0.388020833,0,0,0,,0,214,214,349,1,,,,
,,,,,,452419b4f4da858c8aa6c3c2,66a626ef09d4e21e1a8894ec,673497f24ad8bb9df84cf938,2024-11-13_13h14.58.350,Tarea de género gramatical,2024.2.2,Win32,59.88023952,,,,,,,,,,,,,,,,,,,,,,407.7703,408.921,a,1,[],[],[],[],[],[],[],0.4818,1,408.9211,409.4185,,,,,,485,MAS,DIS,150,taxi,la,l,0.4818,,,,409.4186,409.4189,0.040364583,-0.388020833,0,0,0,,0,215,215,34,1,,,,
,,,,,,452419b4f4da858c8aa6c3c2,66a626ef09d4e21e1a8894ec,673497f24ad8bb9df84cf938,2024-11-13_13h14.58.350,Tarea de género gramatical,2024.2.2,Win32,59.88023952,,,,,,,,,,,,,,,,,,,,,,409.4213,410.4887,a,1,[],[],[],[],[],[],[],0.3992,1,410.4888,410.9846,,,,,,832,MAS,CON,150,teatro,,l,0.3992,,,,410.9857,410.9861,0.040364583,-0.388020833,0,0,0,,0,216,216,381,1,,,,
,,,,,,452419b4f4da858c8aa6c3c2,66a626ef09d4e21e1a8894ec,673497f24ad8bb9df84cf938,2024-11-13_13h14.58.350,Tarea de género gramatical,2024.2.2,Win32,59.88023952,,,,,,,,,,,,,,,,,,,,,,410.9879,412.0518,l,1,[],[],[],[],[],[],[],0.3764,1,412.052,412.5548,,,,,,866,FEM,DIS,150,colina,el,a,0.3764,,,,412.5549,412.5552,0.040364583,-0.388020833,0,0,0,,0,217,217,415,1,,,,
,,,,,,452419b4f4da858c8aa6c3c2,66a626ef09d4e21e1a8894ec,673497f24ad8bb9df84cf938,2024-11-13_13h14.58.350,Tarea de género gramatical,2024.2.2,Win32,59.88023952,,,,,,,,,,,,,,,,,,,,,,412.5574,413.5681,l,1,[],[],[],[],[],[],[],0.3282,1,413.5682,414.0701,,,,,,553,FEM,CON,150,fama,,a,0.3282,,,,414.0758,414.0782,0.040364583,-0.388020833,0,0,0,,0,218,218,102,1,,,,
,,,,,,452419b4f4da858c8aa6c3c2,66a626ef09d4e21e1a8894ec,673497f24ad8bb9df84cf938,2024-11-13_13h14.58.350,Tarea de género gramatical,2024.2.2,Win32,59.88023952,,,,,,,,,,,,,,,,,,,,,,414.081,415.118,a,1,[],[],[],[],[],[],[],0.3562,1,415.1182,415.6183,,,,,,534,MAS,AGR,150,mago,el,l,0.3562,,,,415.6185,415.6203,0.040364583,-0.388020833,0,0,0,,0,219,219,83,1,,,,
,,,,,,452419b4f4da858c8aa6c3c2,66a626ef09d4e21e1a8894ec,673497f24ad8bb9df84cf938,2024-11-13_13h14.58.350,Tarea de género gramatical,2024.2.2,Win32,59.88023952,,,,,,,,,,,,,,,,,,,,,,415.6218,416.7016,a,1,[],[],[],[],[],[],[],0.3886,1,416.7018,417.2013,,,,,,544,MAS,CON,150,cabo,,l,0.3886,,,,417.2014,417.2018,0.040364583,-0.388020833,0,0,0,,0,220,220,93,1,,,,
,,,,,,452419b4f4da858c8aa6c3c2,66a626ef09d4e21e1a8894ec,673497f24ad8bb9df84cf938,2024-11-13_13h14.58.350,Tarea de género gramatical,2024.2.2,Win32,59.88023952,,,,,,,,,,,,,,,,,,,,,,417.2039,418.2005,l,1,[],[],[],[],[],[],[],0.3283,1,418.2007,418.7013,,,,,,854,FEM,DIS,150,gloria,el,a,0.3283,,,,418.7014,418.7017,0.040364583,-0.388020833,0,0,0,,0,221,221,403,1,,,,
,,,,,,452419b4f4da858c8aa6c3c2,66a626ef09d4e21e1a8894ec,673497f24ad8bb9df84cf938,2024-11-13_13h14.58.350,Tarea de género gramatical,2024.2.2,Win32,59.88023952,,,,,,,,,,,,,,,,,,,,,,418.7043,419.7201,a,1,[],[],[],[],[],[],[],0.3337,1,419.7203,420.2183,,,,,,466,MAS,CON,150,baño,,l,0.3337,,,,420.2235,420.226,0.040364583,-0.388020833,0,0,0,,0,222,222,15,1,,,,
,,,,,,452419b4f4da858c8aa6c3c2,66a626ef09d4e21e1a8894ec,673497f24ad8bb9df84cf938,2024-11-13_13h14.58.350,Tarea de género gramatical,2024.2.2,Win32,59.88023952,,,,,,,,,,,,,,,,,,,,,,420.2282,421.2677,a,1,[],[],[],[],[],[],[],0.3654,1,421.2679,421.7677,,,,,,858,MAS,AGR,150,cheque,el,l,0.3654,,,,421.7679,421.7681,0.040364583,-0.388020833,0,0,0,,0,223,223,407,1,,,,
,,,,,,452419b4f4da858c8aa6c3c2,66a626ef09d4e21e1a8894ec,673497f24ad8bb9df84cf938,2024-11-13_13h14.58.350,Tarea de género gramatical,2024.2.2,Win32,59.88023952,,,,,,,,,,,,,,,,,,,,,,421.7706,422.7343,l,1,[],[],[],[],[],[],[],0.2955,1,422.7345,423.234,,,,,,841,FEM,CON,150,altura,,a,0.2955,,,,423.2342,423.2346,0.040364583,-0.388020833,0,0,0,,0,224,224,390,1,,,,
,,,,,,452419b4f4da858c8aa6c3c2,66a626ef09d4e21e1a8894ec,673497f24ad8bb9df84cf938,2024-11-13_13h14.58.350,Tarea de género gramatical,2024.2.2,Win32,59.88023952,,,,,,,,,,,,,,,,,,,,,,423.2375,424.2338,l,1,[],[],[],[],[],[],[],0.3186,1,424.2339,424.7338,,,,,,493,FEM,CON,150,nena,,a,0.3186,,,,424.7338,424.734,0.040364583,-0.388020833,0,0,0,,0,225,225,42,1,,,,
,,,,,,452419b4f4da858c8aa6c3c2,66a626ef09d4e21e1a8894ec,673497f24ad8bb9df84cf938,2024-11-13_13h14.58.350,Tarea de género gramatical,2024.2.2,Win32,59.88023952,,,,,,,,,,,,,,,,,,,,,,424.7365,425.7339,l,1,[],[],[],[],[],[],[],0.3201,1,425.7341,426.2338,,,,,,452,FEM,DIS,150,vida,el,a,0.3201,,,,426.234,426.2343,0.040364583,-0.388020833,0,0,0,,0,226,226,1,1,,,,
,,,,,,452419b4f4da858c8aa6c3c2,66a626ef09d4e21e1a8894ec,673497f24ad8bb9df84cf938,2024-11-13_13h14.58.350,Tarea de género gramatical,2024.2.2,Win32,59.88023952,,,,,,,,,,,,,,,,,,,,,,426.2374,427.2005,l,1,[],[],[],[],[],[],[],0.2865,1,427.2006,427.703,,,,,,849,FEM,AGR,150,charla,la,a,0.2865,,,,427.7085,427.7108,0.040364583,-0.388020833,0,0,0,,0,227,227,398,1,,,,
,,,,,,452419b4f4da858c8aa6c3c2,66a626ef09d4e21e1a8894ec,673497f24ad8bb9df84cf938,2024-11-13_13h14.58.350,Tarea de género gramatical,2024.2.2,Win32,59.88023952,,,,,,,,,,,,,,,,,,,,,,427.7128,428.7208,a,1,[],[],[],[],[],[],[],0.3344,1,428.721,429.2206,,,,,,880,MAS,CON,150,título,,l,0.3344,,,,429.2207,429.2212,0.040364583,-0.388020833,0,0,0,,0,228,228,429,1,,,,
,,,,,,452419b4f4da858c8aa6c3c2,66a626ef09d4e21e1a8894ec,673497f24ad8bb9df84cf938,2024-11-13_13h14.58.350,Tarea de género gramatical,2024.2.2,Win32,59.88023952,,,,,,,,,,,,,,,,,,,,,,429.2251,430.3041,l,1,[],[],[],[],[],[],[],0.4152,1,430.3042,430.8013,,,,,,836,FEM,DIS,150,sombra,el,a,0.4152,,,,430.8015,430.802,0.040364583,-0.388020833,0,0,0,,0,229,229,385,1,,,,
,,,,,,452419b4f4da858c8aa6c3c2,66a626ef09d4e21e1a8894ec,673497f24ad8bb9df84cf938,2024-11-13_13h14.58.350,Tarea de género gramatical,2024.2.2,Win32,59.88023952,,,,,,,,,,,,,,,,,,,,,,430.8057,431.8839,a,1,[],[],[],[],[],[],[],0.3891,1,431.8841,432.3843,,,,,,798,MAS,AGR,150,anillo,el,l,0.3891,,,,432.3845,432.3847,0.040364583,-0.388020833,0,0,0,,0,230,230,347,1,,,,
,,,,,,452419b4f4da858c8aa6c3c2,66a626ef09d4e21e1a8894ec,673497f24ad8bb9df84cf938,2024-11-13_13h14.58.350,Tarea de género gramatical,2024.2.2,Win32,59.88023952,,,,,,,,,,,,,,,,,,,,,,432.3872,433.4332,a,1,[],[],[],[],[],[],[],0.3605,1,433.4334,433.9361,,,,,,755,MAS,DIS,150,hombre,la,l,0.3605,,,,433.9401,433.9416,0.040364583,-0.388020833,0,0,0,,0,231,231,304,1,,,,
,,,,,,452419b4f4da858c8aa6c3c2,66a626ef09d4e21e1a8894ec,673497f24ad8bb9df84cf938,2024-11-13_13h14.58.350,Tarea de género gramatical,2024.2.2,Win32,59.88023952,,,,,,,,,,,,,,,,,,,,,,433.9444,435.0032,a,1,[],[],[],[],[],[],[],0.384,1,435.0035,435.5009,,,,,,870,MAS,AGR,150,helado,el,l,0.384,,,,435.5009,435.5012,0.040364583,-0.388020833,0,0,0,,0,232,232,419,1,,,,
,,,,,,452419b4f4da858c8aa6c3c2,66a626ef09d4e21e1a8894ec,673497f24ad8bb9df84cf938,2024-11-13_13h14.58.350,Tarea de género gramatical,2024.2.2,Win32,59.88023952,,,,,,,,,,,,,,,,,,,,,,435.5031,436.5044,a,1,[],[],[],[],[],[],[],0.3449,1,436.5047,437.0007,,,,,,648,MAS,AGR,150,hotel,el,l,0.3449,,,,437.0009,437.0012,0.040364583,-0.388020833,0,0,0,,0,233,233,197,1,,,,
,,,,,,452419b4f4da858c8aa6c3c2,66a626ef09d4e21e1a8894ec,673497f24ad8bb9df84cf938,2024-11-13_13h14.58.350,Tarea de género gramatical,2024.2.2,Win32,59.88023952,,,,,,,,,,,,,,,,,,,,,,437.0035,438.0835,l,1,[],[],[],[],[],[],[],0.3883,1,438.0837,438.5856,,,,,,721,FEM,CON,150,viuda,,a,0.3883,,,,438.5858,438.5861,0.040364583,-0.388020833,0,0,0,,0,234,234,270,1,,,,
,,,,,,452419b4f4da858c8aa6c3c2,66a626ef09d4e21e1a8894ec,673497f24ad8bb9df84cf938,2024-11-13_13h14.58.350,Tarea de género gramatical,2024.2.2,Win32,59.88023952,,,,,,,,,,,,,,,,,,,,,,438.588,439.6365,l,1,[],[],[],[],[],[],[],0.3682,1,439.6366,440.1335,,,,,,548,FEM,DIS,150,fuga,el,a,0.3682,,,,440.1336,440.1339,0.040364583,-0.388020833,0,0,0,,0,235,235,97,1,,,,
,,,,,,452419b4f4da858c8aa6c3c2,66a626ef09d4e21e1a8894ec,673497f24ad8bb9df84cf938,2024-11-13_13h14.58.350,Tarea de género gramatical,2024.2.2,Win32,59.88023952,,,,,,,,,,,,,,,,,,,,,,440.1353,441.1336,a,1,[],[],[],[],[],[],[],0.3169,1,441.1338,441.6358,,,,,,766,MAS,CON,150,cuerpo,,l,0.3169,,,,441.6403,441.6424,0.040364583,-0.388020833,0,0,0,,0,236,236,315,1,,,,
,,,,,,452419b4f4da858c8aa6c3c2,66a626ef09d4e21e1a8894ec,673497f24ad8bb9df84cf938,2024-11-13_13h14.58.350,Tarea de género gramatical,2024.2.2,Win32,59.88023952,,,,,,,,,,,,,,,,,,,,,,441.644,442.5996,a,1,[],[],[],[],[],[],[],0.2913,1,442.5998,443.1025,,,,,,802,MAS,CON,150,estilo,,l,0.2913,,,,443.1027,443.103,0.040364583,-0.388020833,0,0,0,,0,237,237,351,1,,,,
,,,,,,452419b4f4da858c8aa6c3c2,66a626ef09d4e21e1a8894ec,673497f24ad8bb9df84cf938,2024-11-13_13h14.58.350,Tarea de género gramatical,2024.2.2,Win32,59.88023952,,,,,,,,,,,,,,,,,,,,,,443.1055,444.1497,l,1,[],[],[],[],[],[],[],0.3558,1,444.1499,444.6525,,,,,,477,FEM,AGR,150,mesa,la,a,0.3558,,,,444.6527,444.6536,0.040364583,-0.388020833,0,0,0,,0,238,238,26,1,,,,
,,,,,,452419b4f4da858c8aa6c3c2,66a626ef09d4e21e1a8894ec,673497f24ad8bb9df84cf938,2024-11-13_13h14.58.350,Tarea de género gramatical,2024.2.2,Win32,59.88023952,,,,,,,,,,,,,,,,,,,,,,444.6565,445.6357,l,1,[],[],[],[],[],[],[],0.3138,1,445.6359,446.1326,,,,,,681,FEM,AGR,150,bruja,la,a,0.3138,,,,446.1327,446.133,0.040364583,-0.388020833,0,0,0,,0,239,239,230,1,,,,
,,,,,,452419b4f4da858c8aa6c3c2,66a626ef09d4e21e1a8894ec,673497f24ad8bb9df84cf938,2024-11-13_13h14.58.350,Tarea de género gramatical,2024.2.2,Win32,59.88023952,,,,,,,,,,,,,,,,,,,,,,446.1352,447.0829,l,1,[],[],[],[],[],[],[],0.2692,1,447.0831,447.5851,,,,,,519,FEM,AGR,150,rata,la,a,0.2692,,,,447.5899,447.5918,0.040364583,-0.388020833,0,0,0,,0,240,240,68,1,,,,
,,,,,,452419b4f4da858c8aa6c3c2,66a626ef09d4e21e1a8894ec,673497f24ad8bb9df84cf938,2024-11-13_13h14.58.350,Tarea de género gramatical,2024.2.2,Win32,59.88023952,,,,,,,,,,,,,,,,,,,,,,447.5938,448.5357,a,1,[],[],[],[],[],[],[],0.2682,1,448.5358,449.0346,,,,,,826,MAS,CON,150,efecto,,l,0.2682,,,,449.0347,449.035,0.040364583,-0.388020833,0,0,0,,0,241,241,375,1,,,,
,,,,,,452419b4f4da858c8aa6c3c2,66a626ef09d4e21e1a8894ec,673497f24ad8bb9df84cf938,2024-11-13_13h14.58.350,Tarea de género gramatical,2024.2.2,Win32,59.88023952,,,,,,,,,,,,,,,,,,,,,,449.0376,450.0661,l,1,[],[],[],[],[],[],[],0.3573,1,450.0663,450.5685,,,,,,897,FEM,AGR,150,lógica,la,a,0.3573,,,,450.5686,450.5692,0.040364583,-0.388020833,0,0,0,,0,242,242,446,1,,,,
,,,,,,452419b4f4da858c8aa6c3c2,66a626ef09d4e21e1a8894ec,673497f24ad8bb9df84cf938,2024-11-13_13h14.58.350,Tarea de género gramatical,2024.2.2,Win32,59.88023952,,,,,,,,,,,,,,,,,,,,,,450.5713,451.5165,l,1,[],[],[],[],[],[],[],0.2715,1,451.5166,452.0182,,,,,,555,FEM,AGR,150,jefa,la,a,0.2715,,,,452.0184,452.0186,0.040364583,-0.388020833,0,0,0,,0,243,243,104,1,,,,
,,,,,,452419b4f4da858c8aa6c3c2,66a626ef09d4e21e1a8894ec,673497f24ad8bb9df84cf938,2024-11-13_13h14.58.350,Tarea de género gramatical,2024.2.2,Win32,59.88023952,,,,,,,,,,,,,,,,,,,,,,452.0205,453.0021,l,1,[],[],[],[],[],[],[],0.3121,1,453.0023,453.4994,,,,,,739,FEM,CON,150,tabla,,a,0.3121,,,,453.4996,453.4997,0.040364583,-0.388020833,0,0,0,,0,244,244,288,1,,,,
,,,,,,452419b4f4da858c8aa6c3c2,66a626ef09d4e21e1a8894ec,673497f24ad8bb9df84cf938,2024-11-13_13h14.58.350,Tarea de género gramatical,2024.2.2,Win32,59.88023952,,,,,,,,,,,,,,,,,,,,,,453.5019,454.4694,l,0,[],[],[],[],[],[],[],0.2843,0,454.4718,454.9653,,,,,,462,MAS,AGR,150,plan,el,l,0.2843,,,,454.9687,454.9705,0.040364583,-0.388020833,0,0,0,,0,245,245,11,1,,,,
,,,,,,452419b4f4da858c8aa6c3c2,66a626ef09d4e21e1a8894ec,673497f24ad8bb9df84cf938,2024-11-13_13h14.58.350,Tarea de género gramatical,2024.2.2,Win32,59.88023952,,,,,,,,,,,,,,,,,,,,,,454.972,456.0156,a,0,[],[],[],[],[],[],[],0.3673,0,456.0157,456.5177,,,,,,685,FEM,CON,150,torre,,a,0.3673,,,,456.5179,456.5182,0.040364583,-0.388020833,0,0,0,,0,246,246,234,1,,,,
,,,,,,452419b4f4da858c8aa6c3c2,66a626ef09d4e21e1a8894ec,673497f24ad8bb9df84cf938,2024-11-13_13h14.58.350,Tarea de género gramatical,2024.2.2,Win32,59.88023952,,,,,,,,,,,,,,,,,,,,,,456.5209,457.5838,a,1,[],[],[],[],[],[],[],0.3951,1,457.5855,458.0886,,,,,,576,MAS,AGR,150,lazo,el,l,0.3951,,,,458.0887,458.0891,0.040364583,-0.388020833,0,0,0,,0,247,247,125,1,,,,
,,,,,,452419b4f4da858c8aa6c3c2,66a626ef09d4e21e1a8894ec,673497f24ad8bb9df84cf938,2024-11-13_13h14.58.350,Tarea de género gramatical,2024.2.2,Win32,59.88023952,,,,,,,,,,,,,,,,,,,,,,458.0914,459.0849,l,1,[],[],[],[],[],[],[],0.331,1,459.0849,459.5825,,,,,,608,FEM,DIS,150,chica,el,a,0.331,,,,459.5826,459.583,0.040364583,-0.388020833,0,0,0,,0,248,248,157,1,,,,
,,,,,,452419b4f4da858c8aa6c3c2,66a626ef09d4e21e1a8894ec,673497f24ad8bb9df84cf938,2024-11-13_13h14.58.350,Tarea de género gramatical,2024.2.2,Win32,59.88023952,,,,,,,,,,,,,,,,,,,,,,459.5854,460.566,l,1,[],[],[],[],[],[],[],0.29,1,460.5662,461.0668,,,,,,679,FEM,CON,150,celda,,a,0.29,,,,461.0718,461.0738,0.040364583,-0.388020833,0,0,0,,0,249,249,228,1,,,,
,,,,,,452419b4f4da858c8aa6c3c2,66a626ef09d4e21e1a8894ec,673497f24ad8bb9df84cf938,2024-11-13_13h14.58.350,Tarea de género gramatical,2024.2.2,Win32,59.88023952,,,,,,,,,,,,,,,,,,,,,,461.076,462.0683,l,1,[],[],[],[],[],[],[],0.3184,1,462.0683,462.5652,,,,,,825,FEM,AGR,150,cadena,la,a,0.3184,,,,462.5653,462.5658,0.040364583,-0.388020833,0,0,0,,0,250,250,374,1,,,,
,,,,,,452419b4f4da858c8aa6c3c2,66a626ef09d4e21e1a8894ec,673497f24ad8bb9df84cf938,2024-11-13_13h14.58.350,Tarea de género gramatical,2024.2.2,Win32,59.88023952,,,,,,,,,,,,,,,,,,,,,,462.5676,463.6179,l,1,[],[],[],[],[],[],[],0.3678,1,463.618,464.1159,,,,,,794,FEM,DIS,150,pareja,el,a,0.3678,,,,464.116,464.1162,0.040364583,-0.388020833,0,0,0,,0,251,251,343,1,,,,
