counterbalancing_condition,consent_prescreening.block_1/declare_consent,consent_prescreening.block_1/age_years,consent_prescreening.block_1/gender,consent_prescreening.block_1/language_disorder,consent_prescreening.block_1/first_language,PROLIFIC_PID,STUDY_ID,SESSION_ID,date,expName,psychopyVersion,OS,frameRate,check_prescreening_answers.started,check_prescreening_answers.stopped,Instructions.started,Instructions.stopped,instr_done_keyboard.keys,instr_done_keyboard.rt,instr_done_keyboard.duration,instr_done_touch.x,instr_done_touch.y,instr_done_touch.leftButton,instr_done_touch.midButton,instr_done_touch.rightButton,instruction_pages.thisRepN,instruction_pages.thisTrialN,instruction_pages.thisN,instruction_pages.thisIndex,instruction_pages.ran,pageN,phase,instruct_text,has_image,instruct_image,presentTrial.started,presentTrial.stopped,response.keys,response.corr,response.rt,response.duration,touch_resp.x,touch_resp.y,touch_resp.leftButton,touch_resp.midButton,touch_resp.rightButton,touch_resp.time,touch_resp.clicked_name,rt,corr,feedback.started,feedback.stopped,practice_trials.thisRepN,practice_trials.thisTrialN,practice_trials.thisN,practice_trials.thisIndex,practice_trials.ran,TrialID,StimulusType,Condition,PrimeDuration,Prime,Flanker,corrAns,Break.started,Break.stopped,break_done_touch.x,break_done_touch.y,break_done_touch.leftButton,break_done_touch.midButton,break_done_touch.rightButton,break_done_keyboard.keys,experiment_trials.thisRepN,experiment_trials.thisTrialN,experiment_trials.thisN,experiment_trials.thisIndex,experiment_trials.ran,break_done_keyboard.rt,break_done_keyboard.duration,End.started,End.stopped
1,"[""over_18"",""comfortable"",""read_info"",""consent_given""]",25,F,"[""none""]","[""spanish""]",48680137daadec4bef69ebb7,66a626ef09d4e21e1a8894ec,6734e03a62302425b1db7e20,2024-11-13_11h22.42.826,Tarea de género gramatical,2024.2.2,MacIntel,60.97560976,,,,,,,,,,,,,,,,,,,,,,,,,,,,,,,,,,,,,,,,,,,,,,,,,,,,,,,,,,,,,,,,,,,,
,,,,,,48680137daadec4bef69ebb7,66a626ef09d4e21e1a8894ec,6734e03a62302425b1db7e20,2024-11-13_11h22.42.826,Tarea de género gramatical,2024.2.2,MacIntel,60.97560976,28.8158,28.8159,,,,,,,,,,,,,,,,,,,,,,,,,,,,,,,,,,,,,,,,,,,,,,,,,,,,,,,,,,,,,,,,,,
,,,,,,48680137daadec4bef69ebb7,66a626ef09d4e21e1a8894ec,6734e03a62302425b1db7e20,2024-11-13_11h22.42.826,Tarea de género gramatical,2024.2.2,MacIntel,60.97560976,,,28.8342,50.7583,space,21.8732,,0.296373967,-0.356801823,0,0,0,0,0,0,0,1,1,instructions,"INSTRUCCIONES
Va a realizar una prueba de selección gramatical. Desde el comienzo de la prueba mire siempre al centro de la pantalla. Al cabo de un momento, aparecerán palabras. La tarea consiste en determinar si la palabra del centro (siempre será un sustantivo), pertenece al género masculino o femenino.

Pulse la tecla ESPACIO o toque el botón de abajo para continuar.",0,keyboardresponseFM.png,,,,,,,,,,,,,,,,,,,,,,,,,,,,,,,,,,,,,,,,,,,,,,
,,,,,,48680137daadec4bef69ebb7,66a626ef09d4e21e1a8894ec,6734e03a62302425b1db7e20,2024-11-13_11h22.42.826,Tarea de género gramatical,2024.2.2,MacIntel,60.97560976,,,50.7599,60.31,space,9.4777,,0.296373967,-0.356801823,0,0,0,0,1,1,1,1,2,instructions,"Si su dispositivo tiene teclado, pulse la tecla ""A"" para las palabras en femenino (por ejemplo: ""mano"") y la tecla ""L"" para las palabras en masculino(por ejemplo: ""arroz"").
Pulse la tecla ESPACIO o toque el botón de abajo para continuar.",1,keyboardresponseFM.png,,,,,,,,,,,,,,,,,,,,,,,,,,,,,,,,,,,,,,,,,,,,,,
,,,,,,48680137daadec4bef69ebb7,66a626ef09d4e21e1a8894ec,6734e03a62302425b1db7e20,2024-11-13_11h22.42.826,Tarea de género gramatical,2024.2.2,MacIntel,60.97560976,,,60.3115,70.2577,space,9.8879,,0.296373967,-0.356801823,0,0,0,0,2,2,2,1,3,instructions,"Si utiliza un dispositivo sólo táctil, colóquelo en horizontal y utilice los botones de la pantalla. No utilice el ratón.
Pulse la tecla ESPACIO o toque el botón de abajo para continuar.",2,touchresponseFM.png,,,,,,,,,,,,,,,,,,,,,,,,,,,,,,,,,,,,,,,,,,,,,,
,,,,,,48680137daadec4bef69ebb7,66a626ef09d4e21e1a8894ec,6734e03a62302425b1db7e20,2024-11-13_11h22.42.826,Tarea de género gramatical,2024.2.2,MacIntel,60.97560976,,,70.2598,85.4136,space,15.129,,0.296373967,-0.356801823,0,0,0,0,3,3,3,1,4,instructions,"Es muy importante que responda con la mayor rapidez y precisión posibles, ya que cada cadena de letras sólo estará en pantalla durante un instante. Si no responde en ese tiempo, aparecerá el mensaje ""Muy lento"" y el experimento pasará a la siguiente palabra. Los primeros 15 intentos serán de práctica y habrá dos descansos durante la prueba.
Pulse la tecla ESPACIO o toque el botón de abajo para iniciar la parte de práctica.",0,keyboardresponseFM.png,,,,,,,,,,,,,,,,,,,,,,,,,,,,,,,,,,,,,,,,,,,,,,
,,,,,,48680137daadec4bef69ebb7,66a626ef09d4e21e1a8894ec,6734e03a62302425b1db7e20,2024-11-13_11h22.42.826,Tarea de género gramatical,2024.2.2,MacIntel,60.97560976,,,,,,,,,,,,,,,,,,,,,,,85.4274,87.4287,a,0,1.3314,,[],[],[],[],[],[],[],1.3314,0,87.4289,87.928,0,0,0,8,1,2009,MAS,DIS,150,puerto,la,l,,,,,,,,,,,,,,,,,
,,,,,,48680137daadec4bef69ebb7,66a626ef09d4e21e1a8894ec,6734e03a62302425b1db7e20,2024-11-13_11h22.42.826,Tarea de género gramatical,2024.2.2,MacIntel,60.97560976,,,,,,,,,,,,,,,,,,,,,,,87.9288,89.2117,l,1,0.618,,[],[],[],[],[],[],[],0.618,1,89.2124,89.7113,0,1,1,9,1,2010,MAS,AGR,150,vecino,el,l,,,,,,,,,,,,,,,,,
,,,,,,48680137daadec4bef69ebb7,66a626ef09d4e21e1a8894ec,6734e03a62302425b1db7e20,2024-11-13_11h22.42.826,Tarea de género gramatical,2024.2.2,MacIntel,60.97560976,,,,,,,,,,,,,,,,,,,,,,,89.712,90.7906,a,1,0.4016,,[],[],[],[],[],[],[],0.4016,1,90.7907,91.2991,0,2,2,0,1,2001,FEM,AGR,150,nuca,la,a,,,,,,,,,,,,,,,,,
,,,,,,48680137daadec4bef69ebb7,66a626ef09d4e21e1a8894ec,6734e03a62302425b1db7e20,2024-11-13_11h22.42.826,Tarea de género gramatical,2024.2.2,MacIntel,60.97560976,,,,,,,,,,,,,,,,,,,,,,,91.2997,92.5412,l,1,0.5659,,[],[],[],[],[],[],[],0.5659,1,92.5413,93.0407,0,3,3,12,1,2013,MAS,AGR,150,acero,el,l,,,,,,,,,,,,,,,,,
,,,,,,48680137daadec4bef69ebb7,66a626ef09d4e21e1a8894ec,6734e03a62302425b1db7e20,2024-11-13_11h22.42.826,Tarea de género gramatical,2024.2.2,MacIntel,60.97560976,,,,,,,,,,,,,,,,,,,,,,,93.0415,94.2614,a,1,0.5543,,[],[],[],[],[],[],[],0.5543,1,94.2615,94.7581,0,4,4,7,1,2008,FEM,CON,150,siesta,,a,,,,,,,,,,,,,,,,,
,,,,,,48680137daadec4bef69ebb7,66a626ef09d4e21e1a8894ec,6734e03a62302425b1db7e20,2024-11-13_11h22.42.826,Tarea de género gramatical,2024.2.2,MacIntel,60.97560976,,,,,,,,,,,,,,,,,,,,,,,94.7588,96.0111,l,1,0.5813,,[],[],[],[],[],[],[],0.5813,1,96.0111,96.5078,0,5,5,13,1,2014,MAS,CON,150,siglo,,l,,,,,,,,,,,,,,,,,
,,,,,,48680137daadec4bef69ebb7,66a626ef09d4e21e1a8894ec,6734e03a62302425b1db7e20,2024-11-13_11h22.42.826,Tarea de género gramatical,2024.2.2,MacIntel,60.97560976,,,,,,,,,,,,,,,,,,,,,,,96.5085,97.6916,a,0,0.5186,,[],[],[],[],[],[],[],0.5186,0,97.692,98.1913,0,6,6,11,1,2012,MAS,DIS,150,clima,la,l,,,,,,,,,,,,,,,,,
,,,,,,48680137daadec4bef69ebb7,66a626ef09d4e21e1a8894ec,6734e03a62302425b1db7e20,2024-11-13_11h22.42.826,Tarea de género gramatical,2024.2.2,MacIntel,60.97560976,,,,,,,,,,,,,,,,,,,,,,,98.1918,99.3744,a,1,0.5006,,[],[],[],[],[],[],[],0.5006,1,99.3749,99.875,0,7,7,4,1,2005,FEM,CON,150,placa,,a,,,,,,,,,,,,,,,,,
,,,,,,48680137daadec4bef69ebb7,66a626ef09d4e21e1a8894ec,6734e03a62302425b1db7e20,2024-11-13_11h22.42.826,Tarea de género gramatical,2024.2.2,MacIntel,60.97560976,,,,,,,,,,,,,,,,,,,,,,,99.8756,101.1414,l,0,0.5915,,[],[],[],[],[],[],[],0.5915,0,101.1419,101.6416,0,8,8,5,1,2006,FEM,DIS,150,serie,el,a,,,,,,,,,,,,,,,,,
,,,,,,48680137daadec4bef69ebb7,66a626ef09d4e21e1a8894ec,6734e03a62302425b1db7e20,2024-11-13_11h22.42.826,Tarea de género gramatical,2024.2.2,MacIntel,60.97560976,,,,,,,,,,,,,,,,,,,,,,,101.6422,103.9574,l,1,1.6325,,[],[],[],[],[],[],[],1.6325,1,103.958,104.4583,0,9,9,14,1,2015,MAS,DIS,150,robot,la,l,,,,,,,,,,,,,,,,,
,,,,,,48680137daadec4bef69ebb7,66a626ef09d4e21e1a8894ec,6734e03a62302425b1db7e20,2024-11-13_11h22.42.826,Tarea de género gramatical,2024.2.2,MacIntel,60.97560976,,,,,,,,,,,,,,,,,,,,,,,104.4589,105.5739,a,0,0.4488,,[],[],[],[],[],[],[],0.4488,0,105.5745,106.0749,0,10,10,10,1,2011,MAS,CON,150,canal,,l,,,,,,,,,,,,,,,,,
,,,,,,48680137daadec4bef69ebb7,66a626ef09d4e21e1a8894ec,6734e03a62302425b1db7e20,2024-11-13_11h22.42.826,Tarea de género gramatical,2024.2.2,MacIntel,60.97560976,,,,,,,,,,,,,,,,,,,,,,,106.0755,107.2083,a,1,0.4654,,[],[],[],[],[],[],[],0.4654,1,107.2088,107.7076,0,11,11,1,1,2002,FEM,CON,150,pala,,a,,,,,,,,,,,,,,,,,
,,,,,,48680137daadec4bef69ebb7,66a626ef09d4e21e1a8894ec,6734e03a62302425b1db7e20,2024-11-13_11h22.42.826,Tarea de género gramatical,2024.2.2,MacIntel,60.97560976,,,,,,,,,,,,,,,,,,,,,,,107.7083,109.3081,a,1,0.9337,,[],[],[],[],[],[],[],0.9337,1,109.3082,109.8079,0,12,12,3,1,2004,FEM,AGR,150,venta,la,a,,,,,,,,,,,,,,,,,
,,,,,,48680137daadec4bef69ebb7,66a626ef09d4e21e1a8894ec,6734e03a62302425b1db7e20,2024-11-13_11h22.42.826,Tarea de género gramatical,2024.2.2,MacIntel,60.97560976,,,,,,,,,,,,,,,,,,,,,,,109.8086,111.1581,a,1,0.6671,,[],[],[],[],[],[],[],0.6671,1,111.1582,111.667,0,13,13,2,1,2003,FEM,DIS,150,daga,el,a,,,,,,,,,,,,,,,,,
,,,,,,48680137daadec4bef69ebb7,66a626ef09d4e21e1a8894ec,6734e03a62302425b1db7e20,2024-11-13_11h22.42.826,Tarea de género gramatical,2024.2.2,MacIntel,60.97560976,,,,,,,,,,,,,,,,,,,,,,,111.6677,112.8577,a,1,0.5072,,[],[],[],[],[],[],[],0.5072,1,112.8577,113.3454,0,14,14,6,1,2007,FEM,AGR,150,navaja,la,a,,,,,,,,,,,,,,,,,
,,,,,,48680137daadec4bef69ebb7,66a626ef09d4e21e1a8894ec,6734e03a62302425b1db7e20,2024-11-13_11h22.42.826,Tarea de género gramatical,2024.2.2,MacIntel,60.97560976,,,118.3768,129.6077,space,11.2056,,0.296373967,-0.356801823,0,0,0,,,,,,,,,,,129.644,131.0077,l,1,0.6852,,[],[],[],[],[],[],[],0.6852,1,131.0079,131.5084,,,,,,570,MAS,AGR,150,puño,el,l,131.5087,131.5113,0.296373967,-0.356801823,0,0,0,,0,0,0,119,1,,,,
,,,,,,48680137daadec4bef69ebb7,66a626ef09d4e21e1a8894ec,6734e03a62302425b1db7e20,2024-11-13_11h22.42.826,Tarea de género gramatical,2024.2.2,MacIntel,60.97560976,,,,,,,,,,,,,,,,,,,,,,,131.5126,132.7583,l,1,0.5662,,[],[],[],[],[],[],[],0.5662,1,132.7584,133.2585,,,,,,730,MAS,CON,150,salón,,l,133.2586,133.2588,0.296373967,-0.356801823,0,0,0,,0,1,1,279,1,,,,
,,,,,,48680137daadec4bef69ebb7,66a626ef09d4e21e1a8894ec,6734e03a62302425b1db7e20,2024-11-13_11h22.42.826,Tarea de género gramatical,2024.2.2,MacIntel,60.97560976,,,,,,,,,,,,,,,,,,,,,,,133.2593,134.4078,a,1,0.4661,,[],[],[],[],[],[],[],0.4661,1,134.4078,134.9074,,,,,,590,FEM,DIS,150,mula,el,a,134.9083,134.9088,0.296373967,-0.356801823,0,0,0,,0,2,2,139,1,,,,
,,,,,,48680137daadec4bef69ebb7,66a626ef09d4e21e1a8894ec,6734e03a62302425b1db7e20,2024-11-13_11h22.42.826,Tarea de género gramatical,2024.2.2,MacIntel,60.97560976,,,,,,,,,,,,,,,,,,,,,,,134.9092,135.9755,a,1,0.3854,,[],[],[],[],[],[],[],0.3854,1,135.9756,136.4741,,,,,,789,FEM,AGR,150,salida,la,a,136.4741,136.4742,0.296373967,-0.356801823,0,0,0,,0,3,3,338,1,,,,
,,,,,,48680137daadec4bef69ebb7,66a626ef09d4e21e1a8894ec,6734e03a62302425b1db7e20,2024-11-13_11h22.42.826,Tarea de género gramatical,2024.2.2,MacIntel,60.97560976,,,,,,,,,,,,,,,,,,,,,,,136.4749,137.5294,a,1,0.3886,,[],[],[],[],[],[],[],0.3886,1,137.5294,138.0252,,,,,,883,FEM,CON,150,huella,,a,138.0252,138.0254,0.296373967,-0.356801823,0,0,0,,0,4,4,432,1,,,,
,,,,,,48680137daadec4bef69ebb7,66a626ef09d4e21e1a8894ec,6734e03a62302425b1db7e20,2024-11-13_11h22.42.826,Tarea de género gramatical,2024.2.2,MacIntel,60.97560976,,,,,,,,,,,,,,,,,,,,,,,138.0259,139.2147,l,1,0.5075,,[],[],[],[],[],[],[],0.5075,1,139.2147,139.7079,,,,,,724,MAS,CON,150,motor,,l,139.7079,139.708,0.296373967,-0.356801823,0,0,0,,0,5,5,273,1,,,,
,,,,,,48680137daadec4bef69ebb7,66a626ef09d4e21e1a8894ec,6734e03a62302425b1db7e20,2024-11-13_11h22.42.826,Tarea de género gramatical,2024.2.2,MacIntel,60.97560976,,,,,,,,,,,,,,,,,,,,,,,139.7086,140.9575,a,1,0.5668,,[],[],[],[],[],[],[],0.5668,1,140.9576,141.4586,,,,,,489,FEM,AGR,150,luna,la,a,141.4594,141.4601,0.296373967,-0.356801823,0,0,0,,0,6,6,38,1,,,,
,,,,,,48680137daadec4bef69ebb7,66a626ef09d4e21e1a8894ec,6734e03a62302425b1db7e20,2024-11-13_11h22.42.826,Tarea de género gramatical,2024.2.2,MacIntel,60.97560976,,,,,,,,,,,,,,,,,,,,,,,141.4607,142.5114,a,1,0.3706,,[],[],[],[],[],[],[],0.3706,1,142.5115,143.0086,,,,,,464,FEM,DIS,150,cara,el,a,143.0086,143.0087,0.296373967,-0.356801823,0,0,0,,0,7,7,13,1,,,,
,,,,,,48680137daadec4bef69ebb7,66a626ef09d4e21e1a8894ec,6734e03a62302425b1db7e20,2024-11-13_11h22.42.826,Tarea de género gramatical,2024.2.2,MacIntel,60.97560976,,,,,,,,,,,,,,,,,,,,,,,143.0093,144.0243,a,1,0.3339,,[],[],[],[],[],[],[],0.3339,1,144.0244,144.5252,,,,,,801,FEM,AGR,150,espada,la,a,144.5252,144.5253,0.296373967,-0.356801823,0,0,0,,0,8,8,350,1,,,,
,,,,,,48680137daadec4bef69ebb7,66a626ef09d4e21e1a8894ec,6734e03a62302425b1db7e20,2024-11-13_11h22.42.826,Tarea de género gramatical,2024.2.2,MacIntel,60.97560976,,,,,,,,,,,,,,,,,,,,,,,144.526,145.4582,a,1,0.2507,,[],[],[],[],[],[],[],0.2507,1,145.4582,145.9581,,,,,,693,FEM,AGR,150,salsa,la,a,145.9582,145.9582,0.296373967,-0.356801823,0,0,0,,0,9,9,242,1,,,,
,,,,,,48680137daadec4bef69ebb7,66a626ef09d4e21e1a8894ec,6734e03a62302425b1db7e20,2024-11-13_11h22.42.826,Tarea de género gramatical,2024.2.2,MacIntel,60.97560976,,,,,,,,,,,,,,,,,,,,,,,145.9589,146.9578,l,1,0.3338,,[],[],[],[],[],[],[],0.3338,1,146.9579,147.4585,,,,,,676,MAS,CON,150,color,,l,147.4585,147.4586,0.296373967,-0.356801823,0,0,0,,0,10,10,225,1,,,,
,,,,,,48680137daadec4bef69ebb7,66a626ef09d4e21e1a8894ec,6734e03a62302425b1db7e20,2024-11-13_11h22.42.826,Tarea de género gramatical,2024.2.2,MacIntel,60.97560976,,,,,,,,,,,,,,,,,,,,,,,147.4592,148.5083,l,1,0.3691,,[],[],[],[],[],[],[],0.3691,1,148.5084,149.0086,,,,,,504,MAS,AGR,150,humo,el,l,149.0094,149.0099,0.296373967,-0.356801823,0,0,0,,0,11,11,53,1,,,,
,,,,,,48680137daadec4bef69ebb7,66a626ef09d4e21e1a8894ec,6734e03a62302425b1db7e20,2024-11-13_11h22.42.826,Tarea de género gramatical,2024.2.2,MacIntel,60.97560976,,,,,,,,,,,,,,,,,,,,,,,149.0104,150.1915,l,1,0.4987,,[],[],[],[],[],[],[],0.4987,1,150.1915,150.691,,,,,,738,MAS,AGR,150,grado,el,l,150.691,150.6912,0.296373967,-0.356801823,0,0,0,,0,12,12,287,1,,,,
,,,,,,48680137daadec4bef69ebb7,66a626ef09d4e21e1a8894ec,6734e03a62302425b1db7e20,2024-11-13_11h22.42.826,Tarea de género gramatical,2024.2.2,MacIntel,60.97560976,,,,,,,,,,,,,,,,,,,,,,,150.6918,151.742,l,1,0.3694,,[],[],[],[],[],[],[],0.3694,1,151.742,152.2411,,,,,,882,MAS,AGR,150,océano,el,l,152.2412,152.2413,0.296373967,-0.356801823,0,0,0,,0,13,13,431,1,,,,
,,,,,,48680137daadec4bef69ebb7,66a626ef09d4e21e1a8894ec,6734e03a62302425b1db7e20,2024-11-13_11h22.42.826,Tarea de género gramatical,2024.2.2,MacIntel,60.97560976,,,,,,,,,,,,,,,,,,,,,,,152.2418,153.2628,a,1,0.3385,,[],[],[],[],[],[],[],0.3385,1,153.2629,153.7585,,,,,,717,FEM,AGR,150,barba,la,a,153.7586,153.7586,0.296373967,-0.356801823,0,0,0,,0,14,14,266,1,,,,
,,,,,,48680137daadec4bef69ebb7,66a626ef09d4e21e1a8894ec,6734e03a62302425b1db7e20,2024-11-13_11h22.42.826,Tarea de género gramatical,2024.2.2,MacIntel,60.97560976,,,,,,,,,,,,,,,,,,,,,,,153.7592,154.9246,l,1,0.4843,,[],[],[],[],[],[],[],0.4843,1,154.9246,155.4247,,,,,,731,MAS,DIS,150,actor,la,l,155.4256,155.426,0.296373967,-0.356801823,0,0,0,,0,15,15,280,1,,,,
,,,,,,48680137daadec4bef69ebb7,66a626ef09d4e21e1a8894ec,6734e03a62302425b1db7e20,2024-11-13_11h22.42.826,Tarea de género gramatical,2024.2.2,MacIntel,60.97560976,,,,,,,,,,,,,,,,,,,,,,,155.4265,156.7586,l,0,0.6505,,[],[],[],[],[],[],[],0.6505,0,156.7592,157.2586,,,,,,769,FEM,CON,150,sangre,,a,157.2586,157.2587,0.296373967,-0.356801823,0,0,0,,0,16,16,318,1,,,,
,,,,,,48680137daadec4bef69ebb7,66a626ef09d4e21e1a8894ec,6734e03a62302425b1db7e20,2024-11-13_11h22.42.826,Tarea de género gramatical,2024.2.2,MacIntel,60.97560976,,,,,,,,,,,,,,,,,,,,,,,157.2592,158.8078,a,1,0.8791,,[],[],[],[],[],[],[],0.8791,1,158.8083,159.3086,,,,,,847,FEM,CON,150,cuerda,,a,159.3087,159.3087,0.296373967,-0.356801823,0,0,0,,0,17,17,396,1,,,,
,,,,,,48680137daadec4bef69ebb7,66a626ef09d4e21e1a8894ec,6734e03a62302425b1db7e20,2024-11-13_11h22.42.826,Tarea de género gramatical,2024.2.2,MacIntel,60.97560976,,,,,,,,,,,,,,,,,,,,,,,159.3094,160.6161,l,1,0.6251,,[],[],[],[],[],[],[],0.6251,1,160.6161,161.1165,,,,,,533,MAS,DIS,150,nene,la,l,161.1165,161.1166,0.296373967,-0.356801823,0,0,0,,0,18,18,82,1,,,,
,,,,,,48680137daadec4bef69ebb7,66a626ef09d4e21e1a8894ec,6734e03a62302425b1db7e20,2024-11-13_11h22.42.826,Tarea de género gramatical,2024.2.2,MacIntel,60.97560976,,,,,,,,,,,,,,,,,,,,,,,161.1171,162.3752,l,1,0.5843,,[],[],[],[],[],[],[],0.5843,1,162.3753,162.8797,,,,,,695,MAS,DIS,150,turno,la,l,162.8797,162.8797,0.296373967,-0.356801823,0,0,0,,0,19,19,244,1,,,,
,,,,,,48680137daadec4bef69ebb7,66a626ef09d4e21e1a8894ec,6734e03a62302425b1db7e20,2024-11-13_11h22.42.826,Tarea de género gramatical,2024.2.2,MacIntel,60.97560976,,,,,,,,,,,,,,,,,,,,,,,162.8804,164.0584,l,1,0.4984,,[],[],[],[],[],[],[],0.4984,1,164.0584,164.5588,,,,,,496,MAS,CON,150,odio,,l,164.5595,164.5601,0.296373967,-0.356801823,0,0,0,,0,20,20,45,1,,,,
,,,,,,48680137daadec4bef69ebb7,66a626ef09d4e21e1a8894ec,6734e03a62302425b1db7e20,2024-11-13_11h22.42.826,Tarea de género gramatical,2024.2.2,MacIntel,60.97560976,,,,,,,,,,,,,,,,,,,,,,,164.5606,165.8583,l,1,0.6289,,[],[],[],[],[],[],[],0.6289,1,165.8584,166.3577,,,,,,786,MAS,AGR,150,crimen,el,l,166.3577,166.3578,0.296373967,-0.356801823,0,0,0,,0,21,21,335,1,,,,
,,,,,,48680137daadec4bef69ebb7,66a626ef09d4e21e1a8894ec,6734e03a62302425b1db7e20,2024-11-13_11h22.42.826,Tarea de género gramatical,2024.2.2,MacIntel,60.97560976,,,,,,,,,,,,,,,,,,,,,,,166.3584,167.8083,a,1,0.7807,,[],[],[],[],[],[],[],0.7807,1,167.8084,168.3081,,,,,,565,FEM,CON,150,seda,,a,168.3082,168.3082,0.296373967,-0.356801823,0,0,0,,0,22,22,114,1,,,,
,,,,,,48680137daadec4bef69ebb7,66a626ef09d4e21e1a8894ec,6734e03a62302425b1db7e20,2024-11-13_11h22.42.826,Tarea de género gramatical,2024.2.2,MacIntel,60.97560976,,,,,,,,,,,,,,,,,,,,,,,168.3087,169.6253,a,1,0.6465,,[],[],[],[],[],[],[],0.6465,1,169.6254,170.1252,,,,,,895,FEM,CON,150,bondad,,a,170.1252,170.1253,0.296373967,-0.356801823,0,0,0,,0,23,23,444,1,,,,
,,,,,,48680137daadec4bef69ebb7,66a626ef09d4e21e1a8894ec,6734e03a62302425b1db7e20,2024-11-13_11h22.42.826,Tarea de género gramatical,2024.2.2,MacIntel,60.97560976,,,,,,,,,,,,,,,,,,,,,,,170.1259,171.2586,a,1,0.4469,,[],[],[],[],[],[],[],0.4469,1,171.2586,171.7585,,,,,,709,FEM,CON,150,prima,,a,171.7592,171.7596,0.296373967,-0.356801823,0,0,0,,0,24,24,258,1,,,,
,,,,,,48680137daadec4bef69ebb7,66a626ef09d4e21e1a8894ec,6734e03a62302425b1db7e20,2024-11-13_11h22.42.826,Tarea de género gramatical,2024.2.2,MacIntel,60.97560976,,,,,,,,,,,,,,,,,,,,,,,171.76,172.9246,l,1,0.496,,[],[],[],[],[],[],[],0.496,1,172.9247,173.4245,,,,,,743,MAS,DIS,150,patio,la,l,173.4246,173.4246,0.296373967,-0.356801823,0,0,0,,0,25,25,292,1,,,,
,,,,,,48680137daadec4bef69ebb7,66a626ef09d4e21e1a8894ec,6734e03a62302425b1db7e20,2024-11-13_11h22.42.826,Tarea de género gramatical,2024.2.2,MacIntel,60.97560976,,,,,,,,,,,,,,,,,,,,,,,173.4251,174.6248,a,1,0.531,,[],[],[],[],[],[],[],0.531,1,174.6248,175.126,,,,,,740,FEM,DIS,150,cabra,el,a,175.126,175.1261,0.296373967,-0.356801823,0,0,0,,0,26,26,289,1,,,,
,,,,,,48680137daadec4bef69ebb7,66a626ef09d4e21e1a8894ec,6734e03a62302425b1db7e20,2024-11-13_11h22.42.826,Tarea de género gramatical,2024.2.2,MacIntel,60.97560976,,,,,,,,,,,,,,,,,,,,,,,175.127,176.3639,a,1,0.5558,,[],[],[],[],[],[],[],0.5558,1,176.364,176.8578,,,,,,819,FEM,AGR,150,camisa,la,a,176.8579,176.858,0.296373967,-0.356801823,0,0,0,,0,27,27,368,1,,,,
,,,,,,48680137daadec4bef69ebb7,66a626ef09d4e21e1a8894ec,6734e03a62302425b1db7e20,2024-11-13_11h22.42.826,Tarea de género gramatical,2024.2.2,MacIntel,60.97560976,,,,,,,,,,,,,,,,,,,,,,,176.8588,177.9084,l,1,0.3833,,[],[],[],[],[],[],[],0.3833,1,177.9084,178.4088,,,,,,696,MAS,AGR,150,humor,el,l,178.4089,178.4089,0.296373967,-0.356801823,0,0,0,,0,28,28,245,1,,,,
,,,,,,48680137daadec4bef69ebb7,66a626ef09d4e21e1a8894ec,6734e03a62302425b1db7e20,2024-11-13_11h22.42.826,Tarea de género gramatical,2024.2.2,MacIntel,60.97560976,,,,,,,,,,,,,,,,,,,,,,,178.4098,179.6857,l,1,0.6112,,[],[],[],[],[],[],[],0.6112,1,179.6858,180.1753,,,,,,844,MAS,CON,150,examen,,l,180.176,180.1764,0.296373967,-0.356801823,0,0,0,,0,29,29,393,1,,,,
,,,,,,48680137daadec4bef69ebb7,66a626ef09d4e21e1a8894ec,6734e03a62302425b1db7e20,2024-11-13_11h22.42.826,Tarea de género gramatical,2024.2.2,MacIntel,60.97560976,,,,,,,,,,,,,,,,,,,,,,,180.1769,181.3915,l,1,0.5497,,[],[],[],[],[],[],[],0.5497,1,181.3915,181.8921,,,,,,894,MAS,AGR,150,límite,el,l,181.8922,181.8923,0.296373967,-0.356801823,0,0,0,,0,30,30,443,1,,,,
,,,,,,48680137daadec4bef69ebb7,66a626ef09d4e21e1a8894ec,6734e03a62302425b1db7e20,2024-11-13_11h22.42.826,Tarea de género gramatical,2024.2.2,MacIntel,60.97560976,,,,,,,,,,,,,,,,,,,,,,,181.8931,183.0246,l,1,0.4494,,[],[],[],[],[],[],[],0.4494,1,183.0246,183.5252,,,,,,515,MAS,DIS,150,rayo,la,l,183.5253,183.5254,0.296373967,-0.356801823,0,0,0,,0,31,31,64,1,,,,
,,,,,,48680137daadec4bef69ebb7,66a626ef09d4e21e1a8894ec,6734e03a62302425b1db7e20,2024-11-13_11h22.42.826,Tarea de género gramatical,2024.2.2,MacIntel,60.97560976,,,,,,,,,,,,,,,,,,,,,,,183.5264,184.692,a,1,0.485,,[],[],[],[],[],[],[],0.485,1,184.692,185.1925,,,,,,811,FEM,CON,150,oferta,,a,185.1926,185.1927,0.296373967,-0.356801823,0,0,0,,0,32,32,360,1,,,,
,,,,,,48680137daadec4bef69ebb7,66a626ef09d4e21e1a8894ec,6734e03a62302425b1db7e20,2024-11-13_11h22.42.826,Tarea de género gramatical,2024.2.2,MacIntel,60.97560976,,,,,,,,,,,,,,,,,,,,,,,185.1934,186.791,l,1,0.9164,,[],[],[],[],[],[],[],0.9164,1,186.791,187.2922,,,,,,538,MAS,CON,150,pavo,,l,187.2931,187.2936,0.296373967,-0.356801823,0,0,0,,0,33,33,87,1,,,,
,,,,,,48680137daadec4bef69ebb7,66a626ef09d4e21e1a8894ec,6734e03a62302425b1db7e20,2024-11-13_11h22.42.826,Tarea de género gramatical,2024.2.2,MacIntel,60.97560976,,,,,,,,,,,,,,,,,,,,,,,187.2942,188.609,l,1,0.6335,,[],[],[],[],[],[],[],0.6335,1,188.6091,189.109,,,,,,888,MAS,AGR,150,tanque,el,l,189.1092,189.1093,0.296373967,-0.356801823,0,0,0,,0,34,34,437,1,,,,
,,,,,,48680137daadec4bef69ebb7,66a626ef09d4e21e1a8894ec,6734e03a62302425b1db7e20,2024-11-13_11h22.42.826,Tarea de género gramatical,2024.2.2,MacIntel,60.97560976,,,,,,,,,,,,,,,,,,,,,,,189.1102,190.2088,l,1,0.4279,,[],[],[],[],[],[],[],0.4279,1,190.2088,190.709,,,,,,773,MAS,DIS,150,marido,la,l,190.709,190.7092,0.296373967,-0.356801823,0,0,0,,0,35,35,322,1,,,,
,,,,,,48680137daadec4bef69ebb7,66a626ef09d4e21e1a8894ec,6734e03a62302425b1db7e20,2024-11-13_11h22.42.826,Tarea de género gramatical,2024.2.2,MacIntel,60.97560976,,,,,,,,,,,,,,,,,,,,,,,190.71,191.8244,l,1,0.4345,,[],[],[],[],[],[],[],0.4345,1,191.8245,192.3255,,,,,,636,MAS,AGR,150,error,el,l,192.3256,192.3256,0.296373967,-0.356801823,0,0,0,,0,36,36,185,1,,,,
,,,,,,48680137daadec4bef69ebb7,66a626ef09d4e21e1a8894ec,6734e03a62302425b1db7e20,2024-11-13_11h22.42.826,Tarea de género gramatical,2024.2.2,MacIntel,60.97560976,,,,,,,,,,,,,,,,,,,,,,,192.3264,193.3749,l,1,0.3658,,[],[],[],[],[],[],[],0.3658,1,193.375,193.8757,,,,,,648,MAS,AGR,150,hotel,el,l,193.8757,193.8757,0.296373967,-0.356801823,0,0,0,,0,37,37,197,1,,,,
,,,,,,48680137daadec4bef69ebb7,66a626ef09d4e21e1a8894ec,6734e03a62302425b1db7e20,2024-11-13_11h22.42.826,Tarea de género gramatical,2024.2.2,MacIntel,60.97560976,,,,,,,,,,,,,,,,,,,,,,,193.8764,194.9428,l,1,0.3871,,[],[],[],[],[],[],[],0.3871,1,194.9429,195.4426,,,,,,803,MAS,DIS,150,verano,la,l,195.4436,195.4442,0.296373967,-0.356801823,0,0,0,,0,38,38,352,1,,,,
,,,,,,48680137daadec4bef69ebb7,66a626ef09d4e21e1a8894ec,6734e03a62302425b1db7e20,2024-11-13_11h22.42.826,Tarea de género gramatical,2024.2.2,MacIntel,60.97560976,,,,,,,,,,,,,,,,,,,,,,,195.4449,196.6083,a,1,0.4884,,[],[],[],[],[],[],[],0.4884,1,196.6084,197.1088,,,,,,531,FEM,AGR,150,cima,la,a,197.1089,197.109,0.296373967,-0.356801823,0,0,0,,0,39,39,80,1,,,,
,,,,,,48680137daadec4bef69ebb7,66a626ef09d4e21e1a8894ec,6734e03a62302425b1db7e20,2024-11-13_11h22.42.826,Tarea de género gramatical,2024.2.2,MacIntel,60.97560976,,,,,,,,,,,,,,,,,,,,,,,197.1098,198.275,a,1,0.4963,,[],[],[],[],[],[],[],0.4963,1,198.2751,198.7753,,,,,,711,FEM,AGR,150,cueva,la,a,198.7754,198.7755,0.296373967,-0.356801823,0,0,0,,0,40,40,260,1,,,,
,,,,,,48680137daadec4bef69ebb7,66a626ef09d4e21e1a8894ec,6734e03a62302425b1db7e20,2024-11-13_11h22.42.826,Tarea de género gramatical,2024.2.2,MacIntel,60.97560976,,,,,,,,,,,,,,,,,,,,,,,198.7762,199.9088,l,1,0.4626,,[],[],[],[],[],[],[],0.4626,1,199.9089,200.4079,,,,,,664,MAS,CON,150,fondo,,l,200.4079,200.408,0.296373967,-0.356801823,0,0,0,,0,41,41,213,1,,,,
,,,,,,48680137daadec4bef69ebb7,66a626ef09d4e21e1a8894ec,6734e03a62302425b1db7e20,2024-11-13_11h22.42.826,Tarea de género gramatical,2024.2.2,MacIntel,60.97560976,,,,,,,,,,,,,,,,,,,,,,,200.4088,201.5422,a,1,0.4654,,[],[],[],[],[],[],[],0.4654,1,201.5423,202.0422,,,,,,842,FEM,DIS,150,maleta,el,a,202.043,202.0436,0.296373967,-0.356801823,0,0,0,,0,42,42,391,1,,,,
,,,,,,48680137daadec4bef69ebb7,66a626ef09d4e21e1a8894ec,6734e03a62302425b1db7e20,2024-11-13_11h22.42.826,Tarea de género gramatical,2024.2.2,MacIntel,60.97560976,,,,,,,,,,,,,,,,,,,,,,,202.0441,203.1086,a,1,0.3956,,[],[],[],[],[],[],[],0.3956,1,203.1086,203.6087,,,,,,554,FEM,DIS,150,vela,el,a,203.6087,203.6087,0.296373967,-0.356801823,0,0,0,,0,43,43,103,1,,,,
,,,,,,48680137daadec4bef69ebb7,66a626ef09d4e21e1a8894ec,6734e03a62302425b1db7e20,2024-11-13_11h22.42.826,Tarea de género gramatical,2024.2.2,MacIntel,60.97560976,,,,,,,,,,,,,,,,,,,,,,,203.6096,204.6414,a,1,0.3524,,[],[],[],[],[],[],[],0.3524,1,204.6415,205.1426,,,,,,759,FEM,AGR,150,esposa,la,a,205.1426,205.1427,0.296373967,-0.356801823,0,0,0,,0,44,44,308,1,,,,
,,,,,,48680137daadec4bef69ebb7,66a626ef09d4e21e1a8894ec,6734e03a62302425b1db7e20,2024-11-13_11h22.42.826,Tarea de género gramatical,2024.2.2,MacIntel,60.97560976,,,,,,,,,,,,,,,,,,,,,,,205.1434,206.1753,l,1,0.3478,,[],[],[],[],[],[],[],0.3478,1,206.1753,206.6747,,,,,,634,MAS,CON,150,cielo,,l,206.6747,206.6748,0.296373967,-0.356801823,0,0,0,,0,45,45,183,1,,,,
,,,,,,48680137daadec4bef69ebb7,66a626ef09d4e21e1a8894ec,6734e03a62302425b1db7e20,2024-11-13_11h22.42.826,Tarea de género gramatical,2024.2.2,MacIntel,60.97560976,,,,,,,,,,,,,,,,,,,,,,,206.6756,207.7098,l,1,0.3658,,[],[],[],[],[],[],[],0.3658,1,207.7099,208.2088,,,,,,647,MAS,DIS,150,avión,la,l,208.2088,208.2088,0.296373967,-0.356801823,0,0,0,,0,46,46,196,1,,,,
,,,,,,48680137daadec4bef69ebb7,66a626ef09d4e21e1a8894ec,6734e03a62302425b1db7e20,2024-11-13_11h22.42.826,Tarea de género gramatical,2024.2.2,MacIntel,60.97560976,,,,,,,,,,,,,,,,,,,,,,,208.2096,209.2257,a,1,0.3417,,[],[],[],[],[],[],[],0.3417,1,209.2258,209.7253,,,,,,787,FEM,CON,150,escena,,a,209.7262,209.7267,0.296373967,-0.356801823,0,0,0,,0,47,47,336,1,,,,
,,,,,,48680137daadec4bef69ebb7,66a626ef09d4e21e1a8894ec,6734e03a62302425b1db7e20,2024-11-13_11h22.42.826,Tarea de género gramatical,2024.2.2,MacIntel,60.97560976,,,,,,,,,,,,,,,,,,,,,,,209.7273,210.8417,a,0,0.4414,,[],[],[],[],[],[],[],0.4414,0,210.8428,211.3431,,,,,,899,MAS,DIS,150,payaso,la,l,211.3432,211.3433,0.296373967,-0.356801823,0,0,0,,0,48,48,448,1,,,,
,,,,,,48680137daadec4bef69ebb7,66a626ef09d4e21e1a8894ec,6734e03a62302425b1db7e20,2024-11-13_11h22.42.826,Tarea de género gramatical,2024.2.2,MacIntel,60.97560976,,,,,,,,,,,,,,,,,,,,,,,211.3443,212.4255,a,1,0.4009,,[],[],[],[],[],[],[],0.4009,1,212.4261,212.9252,,,,,,878,FEM,DIS,150,jugada,el,a,212.9252,212.9253,0.296373967,-0.356801823,0,0,0,,0,49,49,427,1,,,,
,,,,,,48680137daadec4bef69ebb7,66a626ef09d4e21e1a8894ec,6734e03a62302425b1db7e20,2024-11-13_11h22.42.826,Tarea de género gramatical,2024.2.2,MacIntel,60.97560976,,,,,,,,,,,,,,,,,,,,,,,212.9261,214.3587,a,1,0.7662,,[],[],[],[],[],[],[],0.7662,1,214.3588,214.8599,,,,,,609,FEM,AGR,150,clase,la,a,214.8599,214.86,0.296373967,-0.356801823,0,0,0,,0,50,50,158,1,,,,
,,,,,,48680137daadec4bef69ebb7,66a626ef09d4e21e1a8894ec,6734e03a62302425b1db7e20,2024-11-13_11h22.42.826,Tarea de género gramatical,2024.2.2,MacIntel,60.97560976,,,,,,,,,,,,,,,,,,,,,,,214.8608,216.2758,l,1,0.7434,,[],[],[],[],[],[],[],0.7434,1,216.2759,216.7752,,,,,,870,MAS,AGR,150,helado,el,l,216.776,216.7766,0.296373967,-0.356801823,0,0,0,,0,51,51,419,1,,,,
,,,,,,48680137daadec4bef69ebb7,66a626ef09d4e21e1a8894ec,6734e03a62302425b1db7e20,2024-11-13_11h22.42.826,Tarea de género gramatical,2024.2.2,MacIntel,60.97560976,,,,,,,,,,,,,,,,,,,,,,,216.7771,217.9088,l,1,0.4633,,[],[],[],[],[],[],[],0.4633,1,217.9089,218.4081,,,,,,808,MAS,CON,150,motivo,,l,218.4081,218.4083,0.296373967,-0.356801823,0,0,0,,0,52,52,357,1,,,,
,,,,,,48680137daadec4bef69ebb7,66a626ef09d4e21e1a8894ec,6734e03a62302425b1db7e20,2024-11-13_11h22.42.826,Tarea de género gramatical,2024.2.2,MacIntel,60.97560976,,,,,,,,,,,,,,,,,,,,,,,218.4091,219.5589,l,1,0.4743,,[],[],[],[],[],[],[],0.4743,1,219.5589,220.0593,,,,,,617,MAS,DIS,150,juego,la,l,220.0593,220.0594,0.296373967,-0.356801823,0,0,0,,0,53,53,166,1,,,,
,,,,,,48680137daadec4bef69ebb7,66a626ef09d4e21e1a8894ec,6734e03a62302425b1db7e20,2024-11-13_11h22.42.826,Tarea de género gramatical,2024.2.2,MacIntel,60.97560976,,,,,,,,,,,,,,,,,,,,,,,220.0603,221.1089,l,1,0.3771,,[],[],[],[],[],[],[],0.3771,1,221.1089,221.6092,,,,,,846,MAS,AGR,150,tesoro,el,l,221.6093,221.6093,0.296373967,-0.356801823,0,0,0,,0,54,54,395,1,,,,
,,,,,,48680137daadec4bef69ebb7,66a626ef09d4e21e1a8894ec,6734e03a62302425b1db7e20,2024-11-13_11h22.42.826,Tarea de género gramatical,2024.2.2,MacIntel,60.97560976,,,,,,,,,,,,,,,,,,,,,,,221.6101,222.6429,l,1,0.3661,,[],[],[],[],[],[],[],0.3661,1,222.643,223.1424,,,,,,492,MAS,AGR,150,show,el,l,223.1425,223.1426,0.296373967,-0.356801823,0,0,0,,0,55,55,41,1,,,,
,,,,,,48680137daadec4bef69ebb7,66a626ef09d4e21e1a8894ec,6734e03a62302425b1db7e20,2024-11-13_11h22.42.826,Tarea de género gramatical,2024.2.2,MacIntel,60.97560976,,,,,,,,,,,,,,,,,,,,,,,223.1434,224.1589,a,1,0.3469,,[],[],[],[],[],[],[],0.3469,1,224.159,224.6591,,,,,,615,FEM,AGR,150,amiga,la,a,224.6601,224.6606,0.296373967,-0.356801823,0,0,0,,0,56,56,164,1,,,,
,,,,,,48680137daadec4bef69ebb7,66a626ef09d4e21e1a8894ec,6734e03a62302425b1db7e20,2024-11-13_11h22.42.826,Tarea de género gramatical,2024.2.2,MacIntel,60.97560976,,,,,,,,,,,,,,,,,,,,,,,224.6611,225.909,a,1,0.5728,,[],[],[],[],[],[],[],0.5728,1,225.909,226.4095,,,,,,758,FEM,DIS,150,semana,el,a,226.4095,226.4096,0.296373967,-0.356801823,0,0,0,,0,57,57,307,1,,,,
,,,,,,48680137daadec4bef69ebb7,66a626ef09d4e21e1a8894ec,6734e03a62302425b1db7e20,2024-11-13_11h22.42.826,Tarea de género gramatical,2024.2.2,MacIntel,60.97560976,,,,,,,,,,,,,,,,,,,,,,,226.4102,227.6253,l,1,0.5475,,[],[],[],[],[],[],[],0.5475,1,227.6254,228.1246,,,,,,792,MAS,AGR,150,abuelo,el,l,228.1246,228.1246,0.296373967,-0.356801823,0,0,0,,0,58,58,341,1,,,,
,,,,,,48680137daadec4bef69ebb7,66a626ef09d4e21e1a8894ec,6734e03a62302425b1db7e20,2024-11-13_11h22.42.826,Tarea de género gramatical,2024.2.2,MacIntel,60.97560976,,,,,,,,,,,,,,,,,,,,,,,228.1251,229.4087,l,1,0.6082,,[],[],[],[],[],[],[],0.6082,1,229.4088,229.9092,,,,,,720,MAS,AGR,150,queso,el,l,229.9092,229.9093,0.296373967,-0.356801823,0,0,0,,0,59,59,269,1,,,,
,,,,,,48680137daadec4bef69ebb7,66a626ef09d4e21e1a8894ec,6734e03a62302425b1db7e20,2024-11-13_11h22.42.826,Tarea de género gramatical,2024.2.2,MacIntel,60.97560976,,,,,,,,,,,,,,,,,,,,,,,229.9101,230.959,l,1,0.3634,,[],[],[],[],[],[],[],0.3634,1,230.9591,231.4595,,,,,,881,MAS,DIS,150,veneno,la,l,231.4604,231.4609,0.296373967,-0.356801823,0,0,0,,0,60,60,430,1,,,,
,,,,,,48680137daadec4bef69ebb7,66a626ef09d4e21e1a8894ec,6734e03a62302425b1db7e20,2024-11-13_11h22.42.826,Tarea de género gramatical,2024.2.2,MacIntel,60.97560976,,,,,,,,,,,,,,,,,,,,,,,231.4614,232.5091,l,1,0.3728,,[],[],[],[],[],[],[],0.3728,1,232.5091,233.0092,,,,,,856,MAS,CON,150,premio,,l,233.0092,233.0093,0.296373967,-0.356801823,0,0,0,,0,61,61,405,1,,,,
,,,,,,48680137daadec4bef69ebb7,66a626ef09d4e21e1a8894ec,6734e03a62302425b1db7e20,2024-11-13_11h22.42.826,Tarea de género gramatical,2024.2.2,MacIntel,60.97560976,,,,,,,,,,,,,,,,,,,,,,,233.01,234.2095,l,0,0.5259,,[],[],[],[],[],[],[],0.5259,0,234.2102,234.7092,,,,,,631,FEM,CON,150,tarde,,a,234.7093,234.7093,0.296373967,-0.356801823,0,0,0,,0,62,62,180,1,,,,
,,,,,,48680137daadec4bef69ebb7,66a626ef09d4e21e1a8894ec,6734e03a62302425b1db7e20,2024-11-13_11h22.42.826,Tarea de género gramatical,2024.2.2,MacIntel,60.97560976,,,,,,,,,,,,,,,,,,,,,,,234.7104,235.8915,l,1,0.5026,,[],[],[],[],[],[],[],0.5026,1,235.8921,236.3933,,,,,,702,MAS,AGR,150,viejo,el,l,236.3934,236.3934,0.296373967,-0.356801823,0,0,0,,0,63,63,251,1,,,,
,,,,,,48680137daadec4bef69ebb7,66a626ef09d4e21e1a8894ec,6734e03a62302425b1db7e20,2024-11-13_11h22.42.826,Tarea de género gramatical,2024.2.2,MacIntel,60.97560976,,,,,,,,,,,,,,,,,,,,,,,236.3941,237.6756,a,1,0.5998,,[],[],[],[],[],[],[],0.5998,1,237.6757,238.1768,,,,,,896,FEM,DIS,150,bañera,el,a,238.1769,238.1769,0.296373967,-0.356801823,0,0,0,,0,64,64,445,1,,,,
,,,,,,48680137daadec4bef69ebb7,66a626ef09d4e21e1a8894ec,6734e03a62302425b1db7e20,2024-11-13_11h22.42.826,Tarea de género gramatical,2024.2.2,MacIntel,60.97560976,,,,,,,,,,,,,,,,,,,,,,,238.1777,239.3424,l,1,0.4958,,[],[],[],[],[],[],[],0.4958,1,239.3425,239.8421,,,,,,550,MAS,CON,150,nido,,l,239.843,239.8434,0.296373967,-0.356801823,0,0,0,,0,65,65,99,1,,,,
,,,,,,48680137daadec4bef69ebb7,66a626ef09d4e21e1a8894ec,6734e03a62302425b1db7e20,2024-11-13_11h22.42.826,Tarea de género gramatical,2024.2.2,MacIntel,60.97560976,,,,,,,,,,,,,,,,,,,,,,,239.844,241.0146,l,1,0.4933,,[],[],[],[],[],[],[],0.4933,1,241.0146,241.51,,,,,,653,MAS,DIS,150,novio,la,l,241.51,241.51,0.296373967,-0.356801823,0,0,0,,0,66,66,202,1,,,,
,,,,,,48680137daadec4bef69ebb7,66a626ef09d4e21e1a8894ec,6734e03a62302425b1db7e20,2024-11-13_11h22.42.826,Tarea de género gramatical,2024.2.2,MacIntel,60.97560976,,,,,,,,,,,,,,,,,,,,,,,241.5108,242.7091,a,1,0.5161,,[],[],[],[],[],[],[],0.5161,1,242.7091,243.2091,,,,,,771,FEM,AGR,150,comida,la,a,243.2091,243.2092,0.296373967,-0.356801823,0,0,0,,0,67,67,320,1,,,,
,,,,,,48680137daadec4bef69ebb7,66a626ef09d4e21e1a8894ec,6734e03a62302425b1db7e20,2024-11-13_11h22.42.826,Tarea de género gramatical,2024.2.2,MacIntel,60.97560976,,,,,,,,,,,,,,,,,,,,,,,243.2099,244.4257,l,1,0.5346,,[],[],[],[],[],[],[],0.5346,1,244.4258,244.9253,,,,,,624,MAS,AGR,150,perro,el,l,244.9253,244.9254,0.296373967,-0.356801823,0,0,0,,0,68,68,173,1,,,,
,,,,,,48680137daadec4bef69ebb7,66a626ef09d4e21e1a8894ec,6734e03a62302425b1db7e20,2024-11-13_11h22.42.826,Tarea de género gramatical,2024.2.2,MacIntel,60.97560976,,,,,,,,,,,,,,,,,,,,,,,244.9262,246.5429,l,1,0.9525,,[],[],[],[],[],[],[],0.9525,1,246.5429,247.0431,,,,,,827,MAS,DIS,150,jardín,la,l,247.0439,247.0445,0.296373967,-0.356801823,0,0,0,,0,69,69,376,1,,,,
,,,,,,48680137daadec4bef69ebb7,66a626ef09d4e21e1a8894ec,6734e03a62302425b1db7e20,2024-11-13_11h22.42.826,Tarea de género gramatical,2024.2.2,MacIntel,60.97560976,,,,,,,,,,,,,,,,,,,,,,,247.0451,248.3091,l,1,0.5826,,[],[],[],[],[],[],[],0.5826,1,248.3092,248.8091,,,,,,850,MAS,CON,150,barrio,,l,248.8091,248.8091,0.296373967,-0.356801823,0,0,0,,0,70,70,399,1,,,,
,,,,,,48680137daadec4bef69ebb7,66a626ef09d4e21e1a8894ec,6734e03a62302425b1db7e20,2024-11-13_11h22.42.826,Tarea de género gramatical,2024.2.2,MacIntel,60.97560976,,,,,,,,,,,,,,,,,,,,,,,248.8098,250.0259,l,1,0.5296,,[],[],[],[],[],[],[],0.5296,1,250.026,250.5267,,,,,,462,MAS,AGR,150,plan,el,l,250.5268,250.5268,0.296373967,-0.356801823,0,0,0,,0,71,71,11,1,,,,
,,,,,,48680137daadec4bef69ebb7,66a626ef09d4e21e1a8894ec,6734e03a62302425b1db7e20,2024-11-13_11h22.42.826,Tarea de género gramatical,2024.2.2,MacIntel,60.97560976,,,,,,,,,,,,,,,,,,,,,,,250.5274,251.7748,a,1,0.5821,,[],[],[],[],[],[],[],0.5821,1,251.7748,252.2758,,,,,,643,FEM,CON,150,bolsa,,a,252.2758,252.2759,0.296373967,-0.356801823,0,0,0,,0,72,72,192,1,,,,
,,,,,,48680137daadec4bef69ebb7,66a626ef09d4e21e1a8894ec,6734e03a62302425b1db7e20,2024-11-13_11h22.42.826,Tarea de género gramatical,2024.2.2,MacIntel,60.97560976,,,,,,,,,,,,,,,,,,,,,,,252.2767,253.5582,l,1,0.5987,,[],[],[],[],[],[],[],0.5987,1,253.5583,254.0591,,,,,,868,MAS,CON,150,pájaro,,l,254.0591,254.0591,0.296373967,-0.356801823,0,0,0,,0,73,73,417,1,,,,
,,,,,,48680137daadec4bef69ebb7,66a626ef09d4e21e1a8894ec,6734e03a62302425b1db7e20,2024-11-13_11h22.42.826,Tarea de género gramatical,2024.2.2,MacIntel,60.97560976,,,,,,,,,,,,,,,,,,,,,,,254.0598,255.4751,a,1,0.7466,,[],[],[],[],[],[],[],0.7466,1,255.4751,255.976,,,,,,477,FEM,AGR,150,mesa,la,a,255.9769,255.9775,0.296373967,-0.356801823,0,0,0,,0,74,74,26,1,,,,
,,,,,,48680137daadec4bef69ebb7,66a626ef09d4e21e1a8894ec,6734e03a62302425b1db7e20,2024-11-13_11h22.42.826,Tarea de género gramatical,2024.2.2,MacIntel,60.97560976,,,,,,,,,,,,,,,,,,,,,,,255.978,257.275,l,1,0.628,,[],[],[],[],[],[],[],0.628,1,257.2751,257.7758,,,,,,797,MAS,DIS,150,cuello,la,l,257.7759,257.776,0.296373967,-0.356801823,0,0,0,,0,75,75,346,1,,,,
,,,,,,48680137daadec4bef69ebb7,66a626ef09d4e21e1a8894ec,6734e03a62302425b1db7e20,2024-11-13_11h22.42.826,Tarea de género gramatical,2024.2.2,MacIntel,60.97560976,,,,,,,,,,,,,,,,,,,,,,,257.7766,259.0087,l,1,0.5638,,[],[],[],[],[],[],[],0.5638,1,259.0088,259.5106,,,,,,658,MAS,CON,150,suelo,,l,259.5107,259.5107,0.296373967,-0.356801823,0,0,0,,0,76,76,207,1,,,,
,,,,,,48680137daadec4bef69ebb7,66a626ef09d4e21e1a8894ec,6734e03a62302425b1db7e20,2024-11-13_11h22.42.826,Tarea de género gramatical,2024.2.2,MacIntel,60.97560976,,,,,,,,,,,,,,,,,,,,,,,259.5114,260.6759,l,1,0.4785,,[],[],[],[],[],[],[],0.4785,1,260.6759,261.1748,,,,,,557,MAS,DIS,150,cubo,la,l,261.1748,261.1749,0.296373967,-0.356801823,0,0,0,,0,77,77,106,1,,,,
,,,,,,48680137daadec4bef69ebb7,66a626ef09d4e21e1a8894ec,6734e03a62302425b1db7e20,2024-11-13_11h22.42.826,Tarea de género gramatical,2024.2.2,MacIntel,60.97560976,,,,,,,,,,,,,,,,,,,,,,,261.1755,262.4592,a,1,0.6116,,[],[],[],[],[],[],[],0.6116,1,262.4592,262.9587,,,,,,536,FEM,DIS,150,cruz,el,a,262.9596,262.9602,0.296373967,-0.356801823,0,0,0,,0,78,78,85,1,,,,
,,,,,,48680137daadec4bef69ebb7,66a626ef09d4e21e1a8894ec,6734e03a62302425b1db7e20,2024-11-13_11h22.42.826,Tarea de género gramatical,2024.2.2,MacIntel,60.97560976,,,,,,,,,,,,,,,,,,,,,,,262.9607,264.2087,l,1,0.5645,,[],[],[],[],[],[],[],0.5645,1,264.2087,264.7093,,,,,,616,MAS,CON,150,coche,,l,264.7094,264.7094,0.296373967,-0.356801823,0,0,0,,0,79,79,165,1,,,,
,,,,,,48680137daadec4bef69ebb7,66a626ef09d4e21e1a8894ec,6734e03a62302425b1db7e20,2024-11-13_11h22.42.826,Tarea de género gramatical,2024.2.2,MacIntel,60.97560976,,,,,,,,,,,,,,,,,,,,,,,264.7104,266.0091,a,1,0.6294,,[],[],[],[],[],[],[],0.6294,1,266.0092,266.5094,,,,,,530,FEM,DIS,150,vaca,el,a,266.5095,266.5095,0.296373967,-0.356801823,0,0,0,,0,80,80,79,1,,,,
,,,,,,48680137daadec4bef69ebb7,66a626ef09d4e21e1a8894ec,6734e03a62302425b1db7e20,2024-11-13_11h22.42.826,Tarea de género gramatical,2024.2.2,MacIntel,60.97560976,,,,,,,,,,,,,,,,,,,,,,,266.5104,268.2248,l,1,1.0314,,[],[],[],[],[],[],[],1.0314,1,268.2248,268.726,,,,,,545,MAS,DIS,150,tomo,la,l,268.726,268.7261,0.296373967,-0.356801823,0,0,0,,0,81,81,94,1,,,,
,,,,,,48680137daadec4bef69ebb7,66a626ef09d4e21e1a8894ec,6734e03a62302425b1db7e20,2024-11-13_11h22.42.826,Tarea de género gramatical,2024.2.2,MacIntel,60.97560976,,,,,,,,,,,,,,,,,,,,,,,268.7269,269.8279,a,1,0.4335,,[],[],[],[],[],[],[],0.4335,1,269.828,270.3272,,,,,,747,FEM,AGR,150,manta,la,a,270.3273,270.3273,0.296373967,-0.356801823,0,0,0,,0,82,82,296,1,,,,
,,,,,,48680137daadec4bef69ebb7,66a626ef09d4e21e1a8894ec,6734e03a62302425b1db7e20,2024-11-13_11h22.42.826,Tarea de género gramatical,2024.2.2,MacIntel,60.97560976,,,,,,,,,,,,,,,,,,,,,,,270.3279,271.5085,l,1,0.5082,,[],[],[],[],[],[],[],0.5082,1,271.5085,272.0092,,,,,,593,MAS,DIS,150,faro,la,l,272.0102,272.0108,0.296373967,-0.356801823,0,0,0,,0,83,83,142,1,,,,
,,,,,,48680137daadec4bef69ebb7,66a626ef09d4e21e1a8894ec,6734e03a62302425b1db7e20,2024-11-13_11h22.42.826,Tarea de género gramatical,2024.2.2,MacIntel,60.97560976,,,,,,,,,,,,,,,,,,,,,,,272.0113,273.2415,l,1,0.549,,[],[],[],[],[],[],[],0.549,1,273.2416,273.7427,,,,,,474,MAS,AGR,150,voto,el,l,273.7428,273.7428,0.296373967,-0.356801823,0,0,0,,0,84,84,23,1,,,,
,,,,,,48680137daadec4bef69ebb7,66a626ef09d4e21e1a8894ec,6734e03a62302425b1db7e20,2024-11-13_11h22.42.826,Tarea de género gramatical,2024.2.2,MacIntel,60.97560976,,,,,,,,,,,,,,,,,,,,,,,273.7437,274.8591,a,1,0.4348,,[],[],[],[],[],[],[],0.4348,1,274.8592,275.3585,,,,,,471,FEM,AGR,150,boca,la,a,275.3585,275.3586,0.296373967,-0.356801823,0,0,0,,0,85,85,20,1,,,,
,,,,,,48680137daadec4bef69ebb7,66a626ef09d4e21e1a8894ec,6734e03a62302425b1db7e20,2024-11-13_11h22.42.826,Tarea de género gramatical,2024.2.2,MacIntel,60.97560976,,,,,,,,,,,,,,,,,,,,,,,275.3593,276.4749,a,1,0.4519,,[],[],[],[],[],[],[],0.4519,1,276.475,276.9774,,,,,,644,FEM,DIS,150,banda,el,a,276.9775,276.9775,0.296373967,-0.356801823,0,0,0,,0,86,86,193,1,,,,
,,,,,,48680137daadec4bef69ebb7,66a626ef09d4e21e1a8894ec,6734e03a62302425b1db7e20,2024-11-13_11h22.42.826,Tarea de género gramatical,2024.2.2,MacIntel,60.97560976,,,,,,,,,,,,,,,,,,,,,,,276.9782,278.4087,a,1,0.7589,,[],[],[],[],[],[],[],0.7589,1,278.4087,278.9116,,,,,,572,FEM,DIS,150,loca,el,a,278.9125,278.9132,0.296373967,-0.356801823,0,0,0,,0,87,87,121,1,,,,
,,,,,,48680137daadec4bef69ebb7,66a626ef09d4e21e1a8894ec,6734e03a62302425b1db7e20,2024-11-13_11h22.42.826,Tarea de género gramatical,2024.2.2,MacIntel,60.97560976,,,,,,,,,,,,,,,,,,,,,,,278.9136,280.1093,a,1,0.5144,,[],[],[],[],[],[],[],0.5144,1,280.1094,280.6102,,,,,,861,FEM,AGR,150,actriz,la,a,280.6103,280.6103,0.296373967,-0.356801823,0,0,0,,0,88,88,410,1,,,,
,,,,,,48680137daadec4bef69ebb7,66a626ef09d4e21e1a8894ec,6734e03a62302425b1db7e20,2024-11-13_11h22.42.826,Tarea de género gramatical,2024.2.2,MacIntel,60.97560976,,,,,,,,,,,,,,,,,,,,,,,280.611,281.7251,a,1,0.4341,,[],[],[],[],[],[],[],0.4341,1,281.7253,282.2274,,,,,,824,FEM,DIS,150,herida,el,a,282.2275,282.2275,0.296373967,-0.356801823,0,0,0,,0,89,89,373,1,,,,
,,,,,,48680137daadec4bef69ebb7,66a626ef09d4e21e1a8894ec,6734e03a62302425b1db7e20,2024-11-13_11h22.42.826,Tarea de género gramatical,2024.2.2,MacIntel,60.97560976,,,,,,,,,,,,,,,,,,,,,,,282.2281,283.4425,l,1,0.5341,,[],[],[],[],[],[],[],0.5341,1,283.4426,283.9418,,,,,,690,MAS,AGR,150,ruido,el,l,283.9418,283.9419,0.296373967,-0.356801823,0,0,0,,0,90,90,239,1,,,,
,,,,,,48680137daadec4bef69ebb7,66a626ef09d4e21e1a8894ec,6734e03a62302425b1db7e20,2024-11-13_11h22.42.826,Tarea de género gramatical,2024.2.2,MacIntel,60.97560976,,,,,,,,,,,,,,,,,,,,,,,283.9426,285.0753,a,1,0.4503,,[],[],[],[],[],[],[],0.4503,1,285.0754,285.5781,,,,,,703,FEM,CON,150,aldea,,a,285.5781,285.5782,0.296373967,-0.356801823,0,0,0,,0,91,91,252,1,,,,
,,,,,,48680137daadec4bef69ebb7,66a626ef09d4e21e1a8894ec,6734e03a62302425b1db7e20,2024-11-13_11h22.42.826,Tarea de género gramatical,2024.2.2,MacIntel,60.97560976,,,,,,,,,,,,,,,,,,,,,,,285.5788,286.776,l,1,0.5237,,[],[],[],[],[],[],[],0.5237,1,286.7761,287.2755,,,,,,628,MAS,CON,150,punto,,l,287.2764,287.2769,0.296373967,-0.356801823,0,0,0,,0,92,92,177,1,,,,
,,,,,,48680137daadec4bef69ebb7,66a626ef09d4e21e1a8894ec,6734e03a62302425b1db7e20,2024-11-13_11h22.42.826,Tarea de género gramatical,2024.2.2,MacIntel,60.97560976,,,,,,,,,,,,,,,,,,,,,,,287.2773,288.4592,l,1,0.5053,,[],[],[],[],[],[],[],0.5053,1,288.4594,288.9594,,,,,,466,MAS,CON,150,baño,,l,288.9595,288.9595,0.296373967,-0.356801823,0,0,0,,0,93,93,15,1,,,,
,,,,,,48680137daadec4bef69ebb7,66a626ef09d4e21e1a8894ec,6734e03a62302425b1db7e20,2024-11-13_11h22.42.826,Tarea de género gramatical,2024.2.2,MacIntel,60.97560976,,,,,,,,,,,,,,,,,,,,,,,288.9603,290.2087,l,1,0.5745,,[],[],[],[],[],[],[],0.5745,1,290.2088,290.7089,,,,,,497,MAS,DIS,150,olor,la,l,290.709,290.7091,0.296373967,-0.356801823,0,0,0,,0,94,94,46,1,,,,
,,,,,,48680137daadec4bef69ebb7,66a626ef09d4e21e1a8894ec,6734e03a62302425b1db7e20,2024-11-13_11h22.42.826,Tarea de género gramatical,2024.2.2,MacIntel,60.97560976,,,,,,,,,,,,,,,,,,,,,,,290.7099,291.8422,l,1,0.4491,,[],[],[],[],[],[],[],0.4491,1,291.8422,292.342,,,,,,503,MAS,DIS,150,vaso,la,l,292.342,292.3421,0.296373967,-0.356801823,0,0,0,,0,95,95,52,1,,,,
,,,,,,48680137daadec4bef69ebb7,66a626ef09d4e21e1a8894ec,6734e03a62302425b1db7e20,2024-11-13_11h22.42.826,Tarea de género gramatical,2024.2.2,MacIntel,60.97560976,,,,,,,,,,,,,,,,,,,,,,,292.3426,293.4585,l,1,0.4337,,[],[],[],[],[],[],[],0.4337,1,293.4587,293.9594,,,,,,520,MAS,CON,150,palo,,l,293.9604,293.9615,0.296373967,-0.356801823,0,0,0,,0,96,96,69,1,,,,
,,,,,,48680137daadec4bef69ebb7,66a626ef09d4e21e1a8894ec,6734e03a62302425b1db7e20,2024-11-13_11h22.42.826,Tarea de género gramatical,2024.2.2,MacIntel,60.97560976,,,,,,,,,,,,,,,,,,,,,,,293.9621,295.0419,a,1,0.4076,,[],[],[],[],[],[],[],0.4076,1,295.042,295.5422,,,,,,753,FEM,AGR,150,maldad,la,a,295.5422,295.5424,0.296373967,-0.356801823,0,0,0,,0,97,97,302,1,,,,
,,,,,,48680137daadec4bef69ebb7,66a626ef09d4e21e1a8894ec,6734e03a62302425b1db7e20,2024-11-13_11h22.42.826,Tarea de género gramatical,2024.2.2,MacIntel,60.97560976,,,,,,,,,,,,,,,,,,,,,,,295.5432,296.9086,a,1,0.6845,,[],[],[],[],[],[],[],0.6845,1,296.9087,297.4087,,,,,,584,FEM,DIS,150,rama,el,a,297.4087,297.4088,0.296373967,-0.356801823,0,0,0,,0,98,98,133,1,,,,
,,,,,,48680137daadec4bef69ebb7,66a626ef09d4e21e1a8894ec,6734e03a62302425b1db7e20,2024-11-13_11h22.42.826,Tarea de género gramatical,2024.2.2,MacIntel,60.97560976,,,,,,,,,,,,,,,,,,,,,,,297.4096,298.4921,l,1,0.398,,[],[],[],[],[],[],[],0.398,1,298.4921,298.9929,,,,,,563,MAS,DIS,150,toro,la,l,298.993,298.993,0.296373967,-0.356801823,0,0,0,,0,99,99,112,1,,,,
,,,,,,48680137daadec4bef69ebb7,66a626ef09d4e21e1a8894ec,6734e03a62302425b1db7e20,2024-11-13_11h22.42.826,Tarea de género gramatical,2024.2.2,MacIntel,60.97560976,,,,,,,,,,,,,,,,,,,,,,,298.9938,300.2585,a,1,0.583,,[],[],[],[],[],[],[],0.583,1,300.2586,300.7587,,,,,,482,FEM,DIS,150,caja,el,a,300.7588,300.7588,0.296373967,-0.356801823,0,0,0,,0,100,100,31,1,,,,
,,,,,,48680137daadec4bef69ebb7,66a626ef09d4e21e1a8894ec,6734e03a62302425b1db7e20,2024-11-13_11h22.42.826,Tarea de género gramatical,2024.2.2,MacIntel,60.97560976,,,,,,,,,,,,,,,,,,,,,,,300.7595,301.826,l,1,0.3954,,[],[],[],[],[],[],[],0.3954,1,301.8261,302.3254,,,,,,454,MAS,CON,150,hijo,,l,302.3262,302.3268,0.296373967,-0.356801823,0,0,0,,0,101,101,3,1,,,,
,,,,,,48680137daadec4bef69ebb7,66a626ef09d4e21e1a8894ec,6734e03a62302425b1db7e20,2024-11-13_11h22.42.826,Tarea de género gramatical,2024.2.2,MacIntel,60.97560976,,,,,,,,,,,,,,,,,,,,,,,302.3272,303.5083,l,1,0.5121,,[],[],[],[],[],[],[],0.5121,1,303.5084,304.0094,,,,,,821,MAS,DIS,150,sonido,la,l,304.0094,304.0095,0.296373967,-0.356801823,0,0,0,,0,102,102,370,1,,,,
,,,,,,48680137daadec4bef69ebb7,66a626ef09d4e21e1a8894ec,6734e03a62302425b1db7e20,2024-11-13_11h22.42.826,Tarea de género gramatical,2024.2.2,MacIntel,60.97560976,,,,,,,,,,,,,,,,,,,,,,,304.0103,305.0918,l,1,0.3989,,[],[],[],[],[],[],[],0.3989,1,305.0919,305.5919,,,,,,874,MAS,CON,150,rastro,,l,305.592,305.5921,0.296373967,-0.356801823,0,0,0,,0,103,103,423,1,,,,
,,,,,,48680137daadec4bef69ebb7,66a626ef09d4e21e1a8894ec,6734e03a62302425b1db7e20,2024-11-13_11h22.42.826,Tarea de género gramatical,2024.2.2,MacIntel,60.97560976,,,,,,,,,,,,,,,,,,,,,,,305.5929,306.609,l,1,0.3395,,[],[],[],[],[],[],[],0.3395,1,306.6091,307.1095,,,,,,516,MAS,AGR,150,muro,el,l,307.1096,307.1097,0.296373967,-0.356801823,0,0,0,,0,104,104,65,1,,,,
,,,,,,48680137daadec4bef69ebb7,66a626ef09d4e21e1a8894ec,6734e03a62302425b1db7e20,2024-11-13_11h22.42.826,Tarea de género gramatical,2024.2.2,MacIntel,60.97560976,,,,,,,,,,,,,,,,,,,,,,,307.1105,308.2584,a,1,0.4741,,[],[],[],[],[],[],[],0.4741,1,308.2584,308.7587,,,,,,650,FEM,DIS,150,silla,el,a,308.7596,308.7602,0.296373967,-0.356801823,0,0,0,,0,105,105,199,1,,,,
,,,,,,48680137daadec4bef69ebb7,66a626ef09d4e21e1a8894ec,6734e03a62302425b1db7e20,2024-11-13_11h22.42.826,Tarea de género gramatical,2024.2.2,MacIntel,60.97560976,,,,,,,,,,,,,,,,,,,,,,,308.7607,309.8928,a,1,0.4488,,[],[],[],[],[],[],[],0.4488,1,309.8929,310.3917,,,,,,548,FEM,DIS,150,fuga,el,a,310.3918,310.3919,0.296373967,-0.356801823,0,0,0,,0,106,106,97,1,,,,
,,,,,,48680137daadec4bef69ebb7,66a626ef09d4e21e1a8894ec,6734e03a62302425b1db7e20,2024-11-13_11h22.42.826,Tarea de género gramatical,2024.2.2,MacIntel,60.97560976,,,,,,,,,,,,,,,,,,,,,,,310.3925,311.3925,a,1,0.3314,,[],[],[],[],[],[],[],0.3314,1,311.3925,311.8928,,,,,,543,FEM,AGR,150,lata,la,a,311.8928,311.8929,0.296373967,-0.356801823,0,0,0,,0,107,107,92,1,,,,
,,,,,,48680137daadec4bef69ebb7,66a626ef09d4e21e1a8894ec,6734e03a62302425b1db7e20,2024-11-13_11h22.42.826,Tarea de género gramatical,2024.2.2,MacIntel,60.97560976,,,,,,,,,,,,,,,,,,,,,,,311.8937,313.0261,l,1,0.449,,[],[],[],[],[],[],[],0.449,1,313.0262,313.5262,,,,,,820,MAS,CON,150,seguro,,l,313.5262,313.5262,0.296373967,-0.356801823,0,0,0,,0,108,108,369,1,,,,
,,,,,,48680137daadec4bef69ebb7,66a626ef09d4e21e1a8894ec,6734e03a62302425b1db7e20,2024-11-13_11h22.42.826,Tarea de género gramatical,2024.2.2,MacIntel,60.97560976,,,,,,,,,,,,,,,,,,,,,,,313.5268,315.1094,a,1,0.8977,,[],[],[],[],[],[],[],0.8977,1,315.1095,315.6084,,,,,,884,FEM,DIS,150,corona,el,a,315.6084,315.6084,0.296373967,-0.356801823,0,0,0,,0,109,109,433,1,,,,
,,,,,,48680137daadec4bef69ebb7,66a626ef09d4e21e1a8894ec,6734e03a62302425b1db7e20,2024-11-13_11h22.42.826,Tarea de género gramatical,2024.2.2,MacIntel,60.97560976,,,,,,,,,,,,,,,,,,,,,,,315.609,316.8594,l,1,0.5826,,[],[],[],[],[],[],[],0.5826,1,316.8595,317.3586,,,,,,761,MAS,DIS,150,camino,la,l,317.3595,317.36,0.296373967,-0.356801823,0,0,0,,0,110,110,310,1,,,,
,,,,,,48680137daadec4bef69ebb7,66a626ef09d4e21e1a8894ec,6734e03a62302425b1db7e20,2024-11-13_11h22.42.826,Tarea de género gramatical,2024.2.2,MacIntel,60.97560976,,,,,,,,,,,,,,,,,,,,,,,317.3605,318.4593,l,0,0.4245,,[],[],[],[],[],[],[],0.4245,0,318.4598,318.9585,,,,,,783,FEM,AGR,150,locura,la,a,318.9585,318.9586,0.296373967,-0.356801823,0,0,0,,0,111,111,332,1,,,,
,,,,,,48680137daadec4bef69ebb7,66a626ef09d4e21e1a8894ec,6734e03a62302425b1db7e20,2024-11-13_11h22.42.826,Tarea de género gramatical,2024.2.2,MacIntel,60.97560976,,,,,,,,,,,,,,,,,,,,,,,318.9593,320.1251,a,1,0.4992,,[],[],[],[],[],[],[],0.4992,1,320.1256,320.6254,,,,,,483,FEM,AGR,150,boda,la,a,320.6254,320.6255,0.296373967,-0.356801823,0,0,0,,0,112,112,32,1,,,,
,,,,,,48680137daadec4bef69ebb7,66a626ef09d4e21e1a8894ec,6734e03a62302425b1db7e20,2024-11-13_11h22.42.826,Tarea de género gramatical,2024.2.2,MacIntel,60.97560976,,,,,,,,,,,,,,,,,,,,,,,320.6261,321.6753,a,1,0.3655,,[],[],[],[],[],[],[],0.3655,1,321.6753,322.1763,,,,,,637,FEM,CON,150,lista,,a,322.1763,322.1764,0.296373967,-0.356801823,0,0,0,,0,113,113,186,1,,,,
,,,,,,48680137daadec4bef69ebb7,66a626ef09d4e21e1a8894ec,6734e03a62302425b1db7e20,2024-11-13_11h22.42.826,Tarea de género gramatical,2024.2.2,MacIntel,60.97560976,,,,,,,,,,,,,,,,,,,,,,,322.1773,323.2754,l,1,0.4148,,[],[],[],[],[],[],[],0.4148,1,323.2755,323.7763,,,,,,640,MAS,CON,150,campo,,l,323.7772,323.7779,0.296373967,-0.356801823,0,0,0,,0,114,114,189,1,,,,
,,,,,,48680137daadec4bef69ebb7,66a626ef09d4e21e1a8894ec,6734e03a62302425b1db7e20,2024-11-13_11h22.42.826,Tarea de género gramatical,2024.2.2,MacIntel,60.97560976,,,,,,,,,,,,,,,,,,,,,,,323.7785,325.1594,l,1,0.7003,,[],[],[],[],[],[],[],0.7003,1,325.1596,325.6589,,,,,,568,MAS,CON,150,baúl,,l,325.659,325.6591,0.296373967,-0.356801823,0,0,0,,0,115,115,117,1,,,,
,,,,,,48680137daadec4bef69ebb7,66a626ef09d4e21e1a8894ec,6734e03a62302425b1db7e20,2024-11-13_11h22.42.826,Tarea de género gramatical,2024.2.2,MacIntel,60.97560976,,,,,,,,,,,,,,,,,,,,,,,325.6598,326.9428,l,1,0.5977,,[],[],[],[],[],[],[],0.5977,1,326.9428,327.4426,,,,,,582,MAS,AGR,150,velo,el,l,327.4426,327.4427,0.296373967,-0.356801823,0,0,0,,0,116,116,131,1,,,,
,,,,,,48680137daadec4bef69ebb7,66a626ef09d4e21e1a8894ec,6734e03a62302425b1db7e20,2024-11-13_11h22.42.826,Tarea de género gramatical,2024.2.2,MacIntel,60.97560976,,,,,,,,,,,,,,,,,,,,,,,327.4435,328.5594,a,1,0.4325,,[],[],[],[],[],[],[],0.4325,1,328.5595,329.0586,,,,,,597,FEM,AGR,150,grúa,la,a,329.0586,329.0587,0.296373967,-0.356801823,0,0,0,,0,117,117,146,1,,,,
,,,,,,48680137daadec4bef69ebb7,66a626ef09d4e21e1a8894ec,6734e03a62302425b1db7e20,2024-11-13_11h22.42.826,Tarea de género gramatical,2024.2.2,MacIntel,60.97560976,,,,,,,,,,,,,,,,,,,,,,,329.0594,330.5089,a,1,0.7854,,[],[],[],[],[],[],[],0.7854,1,330.5089,331.0096,,,,,,781,FEM,CON,150,cárcel,,a,331.0096,331.0097,0.296373967,-0.356801823,0,0,0,,0,118,118,330,1,,,,
,,,,,,48680137daadec4bef69ebb7,66a626ef09d4e21e1a8894ec,6734e03a62302425b1db7e20,2024-11-13_11h22.42.826,Tarea de género gramatical,2024.2.2,MacIntel,60.97560976,,,,,,,,,,,,,,,,,,,,,,,331.0106,332.8088,l,1,1.1165,,[],[],[],[],[],[],[],1.1165,1,332.8089,333.3091,,,,,,588,MAS,AGR,150,luto,el,l,333.31,333.3105,0.296373967,-0.356801823,0,0,0,,0,119,119,137,1,,,,
,,,,,,48680137daadec4bef69ebb7,66a626ef09d4e21e1a8894ec,6734e03a62302425b1db7e20,2024-11-13_11h22.42.826,Tarea de género gramatical,2024.2.2,MacIntel,60.97560976,,,,,,,,,,,,,,,,,,,,,,,333.3109,334.8596,a,1,0.8727,,[],[],[],[],[],[],[],0.8727,1,334.8596,335.3595,,,,,,608,FEM,DIS,150,chica,el,a,335.3596,335.3597,0.296373967,-0.356801823,0,0,0,,0,120,120,157,1,,,,
,,,,,,48680137daadec4bef69ebb7,66a626ef09d4e21e1a8894ec,6734e03a62302425b1db7e20,2024-11-13_11h22.42.826,Tarea de género gramatical,2024.2.2,MacIntel,60.97560976,,,,,,,,,,,,,,,,,,,,,,,335.3605,336.6371,a,1,0.606,,[],[],[],[],[],[],[],0.606,1,336.6372,337.1266,,,,,,722,FEM,DIS,150,oreja,el,a,337.1267,337.1268,0.296373967,-0.356801823,0,0,0,,0,121,121,271,1,,,,
,,,,,,48680137daadec4bef69ebb7,66a626ef09d4e21e1a8894ec,6734e03a62302425b1db7e20,2024-11-13_11h22.42.826,Tarea de género gramatical,2024.2.2,MacIntel,60.97560976,,,,,,,,,,,,,,,,,,,,,,,337.1276,338.3759,a,1,0.5787,,[],[],[],[],[],[],[],0.5787,1,338.3759,338.8759,,,,,,680,FEM,DIS,150,regla,el,a,338.8759,338.876,0.296373967,-0.356801823,0,0,0,,0,122,122,229,1,,,,
,,,,,,48680137daadec4bef69ebb7,66a626ef09d4e21e1a8894ec,6734e03a62302425b1db7e20,2024-11-13_11h22.42.826,Tarea de género gramatical,2024.2.2,MacIntel,60.97560976,,,,,,,,,,,,,,,,,,,,,,,338.8765,340.0262,a,1,0.4829,,[],[],[],[],[],[],[],0.4829,1,340.0263,340.5259,,,,,,603,FEM,AGR,150,mujer,la,a,340.5265,340.5269,0.296373967,-0.356801823,0,0,0,,0,123,123,152,1,,,,
,,,,,,48680137daadec4bef69ebb7,66a626ef09d4e21e1a8894ec,6734e03a62302425b1db7e20,2024-11-13_11h22.42.826,Tarea de género gramatical,2024.2.2,MacIntel,60.97560976,,,,,,,,,,,,,,,,,,,,,,,340.5273,341.6589,a,0,0.4495,,[],[],[],[],[],[],[],0.4495,0,341.6594,342.1588,,,,,,784,MAS,CON,150,ataque,,l,342.1589,342.159,0.296373967,-0.356801823,0,0,0,,0,124,124,333,1,,,,
,,,,,,48680137daadec4bef69ebb7,66a626ef09d4e21e1a8894ec,6734e03a62302425b1db7e20,2024-11-13_11h22.42.826,Tarea de género gramatical,2024.2.2,MacIntel,60.97560976,,,,,,,,,,,,,,,,,,,,,,,342.1596,343.6423,l,1,0.8094,,[],[],[],[],[],[],[],0.8094,1,343.6429,344.1428,,,,,,682,MAS,CON,150,calor,,l,344.1429,344.143,0.296373967,-0.356801823,0,0,0,,0,125,125,231,1,,,,
,,,,,,48680137daadec4bef69ebb7,66a626ef09d4e21e1a8894ec,6734e03a62302425b1db7e20,2024-11-13_11h22.42.826,Tarea de género gramatical,2024.2.2,MacIntel,60.97560976,,,,,,,,,,,,,,,,,,,,,,,344.1436,345.259,a,1,0.4336,,[],[],[],[],[],[],[],0.4336,1,345.259,345.7597,,,,,,500,FEM,DIS,150,dama,el,a,345.7597,345.7598,0.296373967,-0.356801823,0,0,0,,0,126,126,49,1,,,,
,,,,,,48680137daadec4bef69ebb7,66a626ef09d4e21e1a8894ec,6734e03a62302425b1db7e20,2024-11-13_11h22.42.826,Tarea de género gramatical,2024.2.2,MacIntel,60.97560976,,,,,,,,,,,,,,,,,,,,,,,345.7605,346.8928,a,0,0.4509,,[],[],[],[],[],[],[],0.4509,0,346.8933,347.3932,,,,,,660,MAS,AGR,150,baile,el,l,347.3932,347.3933,0.296373967,-0.356801823,0,0,0,,0,127,127,209,1,,,,
,,,,,,48680137daadec4bef69ebb7,66a626ef09d4e21e1a8894ec,6734e03a62302425b1db7e20,2024-11-13_11h22.42.826,Tarea de género gramatical,2024.2.2,MacIntel,60.97560976,,,,,,,,,,,,,,,,,,,,,,,347.394,348.6585,l,1,0.5832,,[],[],[],[],[],[],[],0.5832,1,348.659,349.1597,,,,,,840,MAS,AGR,150,rostro,el,l,349.1606,349.1612,0.296373967,-0.356801823,0,0,0,,0,128,128,389,1,,,,
,,,,,,48680137daadec4bef69ebb7,66a626ef09d4e21e1a8894ec,6734e03a62302425b1db7e20,2024-11-13_11h22.42.826,Tarea de género gramatical,2024.2.2,MacIntel,60.97560976,,,,,,,,,,,,,,,,,,,,,,,349.1616,350.5379,l,1,0.7027,,[],[],[],[],[],[],[],0.7027,1,350.5379,351.0264,,,,,,791,MAS,DIS,150,precio,la,l,351.0264,351.0265,0.296373967,-0.356801823,0,0,0,,0,129,129,340,1,,,,
,,,,,,48680137daadec4bef69ebb7,66a626ef09d4e21e1a8894ec,6734e03a62302425b1db7e20,2024-11-13_11h22.42.826,Tarea de género gramatical,2024.2.2,MacIntel,60.97560976,,,,,,,,,,,,,,,,,,,,,,,351.0272,352.2586,a,1,0.5507,,[],[],[],[],[],[],[],0.5507,1,352.2587,352.7587,,,,,,889,FEM,CON,150,toalla,,a,352.7587,352.7588,0.296373967,-0.356801823,0,0,0,,0,130,130,438,1,,,,
,,,,,,48680137daadec4bef69ebb7,66a626ef09d4e21e1a8894ec,6734e03a62302425b1db7e20,2024-11-13_11h22.42.826,Tarea de género gramatical,2024.2.2,MacIntel,60.97560976,,,,,,,,,,,,,,,,,,,,,,,352.7593,354.6537,l,1,1.2237,,[],[],[],[],[],[],[],1.2237,1,354.6537,355.1423,,,,,,490,MAS,CON,150,dios,,l,355.1424,355.1425,0.296373967,-0.356801823,0,0,0,,0,131,131,39,1,,,,
,,,,,,48680137daadec4bef69ebb7,66a626ef09d4e21e1a8894ec,6734e03a62302425b1db7e20,2024-11-13_11h22.42.826,Tarea de género gramatical,2024.2.2,MacIntel,60.97560976,,,,,,,,,,,,,,,,,,,,,,,355.1431,356.5755,a,1,0.7499,,[],[],[],[],[],[],[],0.7499,1,356.5755,357.0762,,,,,,595,FEM,CON,150,bota,,a,357.0767,357.0771,0.296373967,-0.356801823,0,0,0,,0,132,132,144,1,,,,
,,,,,,48680137daadec4bef69ebb7,66a626ef09d4e21e1a8894ec,6734e03a62302425b1db7e20,2024-11-13_11h22.42.826,Tarea de género gramatical,2024.2.2,MacIntel,60.97560976,,,,,,,,,,,,,,,,,,,,,,,357.0776,358.509,l,1,0.7624,,[],[],[],[],[],[],[],0.7624,1,358.509,359.0089,,,,,,456,MAS,AGR,150,lado,el,l,359.0089,359.009,0.296373967,-0.356801823,0,0,0,,0,133,133,5,1,,,,
,,,,,,48680137daadec4bef69ebb7,66a626ef09d4e21e1a8894ec,6734e03a62302425b1db7e20,2024-11-13_11h22.42.826,Tarea de género gramatical,2024.2.2,MacIntel,60.97560976,,,,,,,,,,,,,,,,,,,,,,,359.0098,360.5929,l,1,0.9138,,[],[],[],[],[],[],[],0.9138,1,360.5931,361.093,,,,,,461,MAS,DIS,150,país,la,l,361.0931,361.0931,0.296373967,-0.356801823,0,0,0,,0,134,134,10,1,,,,
,,,,,,48680137daadec4bef69ebb7,66a626ef09d4e21e1a8894ec,6734e03a62302425b1db7e20,2024-11-13_11h22.42.826,Tarea de género gramatical,2024.2.2,MacIntel,60.97560976,,,,,,,,,,,,,,,,,,,,,,,361.0938,362.3597,a,1,0.593,,[],[],[],[],[],[],[],0.593,1,362.3598,362.8594,,,,,,493,FEM,CON,150,nena,,a,362.8594,362.8594,0.296373967,-0.356801823,0,0,0,,0,135,135,42,1,,,,
,,,,,,48680137daadec4bef69ebb7,66a626ef09d4e21e1a8894ec,6734e03a62302425b1db7e20,2024-11-13_11h22.42.826,Tarea de género gramatical,2024.2.2,MacIntel,60.97560976,,,,,,,,,,,,,,,,,,,,,,,362.86,364.1088,l,1,0.5784,,[],[],[],[],[],[],[],0.5784,1,364.1089,364.6087,,,,,,672,MAS,AGR,150,valor,el,l,364.6087,364.6087,0.296373967,-0.356801823,0,0,0,,0,136,136,221,1,,,,
,,,,,,48680137daadec4bef69ebb7,66a626ef09d4e21e1a8894ec,6734e03a62302425b1db7e20,2024-11-13_11h22.42.826,Tarea de género gramatical,2024.2.2,MacIntel,60.97560976,,,,,,,,,,,,,,,,,,,,,,,364.6094,365.7927,l,1,0.5058,,[],[],[],[],[],[],[],0.5058,1,365.7927,366.2924,,,,,,732,MAS,AGR,150,bolso,el,l,366.2932,366.2936,0.296373967,-0.356801823,0,0,0,,0,137,137,281,1,,,,
,,,,,,48680137daadec4bef69ebb7,66a626ef09d4e21e1a8894ec,6734e03a62302425b1db7e20,2024-11-13_11h22.42.826,Tarea de género gramatical,2024.2.2,MacIntel,60.97560976,,,,,,,,,,,,,,,,,,,,,,,366.2942,367.4588,l,1,0.4847,,[],[],[],[],[],[],[],0.4847,1,367.4589,367.9587,,,,,,527,MAS,DIS,150,pico,la,l,367.9588,367.9589,0.296373967,-0.356801823,0,0,0,,0,138,138,76,1,,,,
,,,,,,48680137daadec4bef69ebb7,66a626ef09d4e21e1a8894ec,6734e03a62302425b1db7e20,2024-11-13_11h22.42.826,Tarea de género gramatical,2024.2.2,MacIntel,60.97560976,,,,,,,,,,,,,,,,,,,,,,,367.9595,369.0647,l,1,0.4304,,[],[],[],[],[],[],[],0.4304,1,369.0647,369.5589,,,,,,864,MAS,AGR,150,sótano,el,l,369.5589,369.5591,0.296373967,-0.356801823,0,0,0,,0,139,139,413,1,,,,
,,,,,,48680137daadec4bef69ebb7,66a626ef09d4e21e1a8894ec,6734e03a62302425b1db7e20,2024-11-13_11h22.42.826,Tarea de género gramatical,2024.2.2,MacIntel,60.97560976,,,,,,,,,,,,,,,,,,,,,,,369.5596,370.6586,a,1,0.4154,,[],[],[],[],[],[],[],0.4154,1,370.6587,371.1597,,,,,,573,FEM,AGR,150,tela,la,a,371.1598,371.1598,0.296373967,-0.356801823,0,0,0,,0,140,140,122,1,,,,
,,,,,,48680137daadec4bef69ebb7,66a626ef09d4e21e1a8894ec,6734e03a62302425b1db7e20,2024-11-13_11h22.42.826,Tarea de género gramatical,2024.2.2,MacIntel,60.97560976,,,,,,,,,,,,,,,,,,,,,,,371.1605,372.2597,l,1,0.4161,,[],[],[],[],[],[],[],0.4161,1,372.2598,372.7596,,,,,,802,MAS,CON,150,estilo,,l,372.7602,372.7606,0.296373967,-0.356801823,0,0,0,,0,141,141,351,1,,,,
,,,,,,48680137daadec4bef69ebb7,66a626ef09d4e21e1a8894ec,6734e03a62302425b1db7e20,2024-11-13_11h22.42.826,Tarea de género gramatical,2024.2.2,MacIntel,60.97560976,,,,,,,,,,,,,,,,,,,,,,,372.761,374.0087,a,1,0.5654,,[],[],[],[],[],[],[],0.5654,1,374.0087,374.5096,,,,,,529,FEM,CON,150,mina,,a,374.5096,374.5097,0.296373967,-0.356801823,0,0,0,,0,142,142,78,1,,,,
,,,,,,48680137daadec4bef69ebb7,66a626ef09d4e21e1a8894ec,6734e03a62302425b1db7e20,2024-11-13_11h22.42.826,Tarea de género gramatical,2024.2.2,MacIntel,60.97560976,,,,,,,,,,,,,,,,,,,,,,,374.5104,375.709,a,1,0.5161,,[],[],[],[],[],[],[],0.5161,1,375.709,376.2088,,,,,,583,FEM,CON,150,joya,,a,376.2088,376.2089,0.296373967,-0.356801823,0,0,0,,0,143,143,132,1,,,,
,,,,,,48680137daadec4bef69ebb7,66a626ef09d4e21e1a8894ec,6734e03a62302425b1db7e20,2024-11-13_11h22.42.826,Tarea de género gramatical,2024.2.2,MacIntel,60.97560976,,,,,,,,,,,,,,,,,,,,,,,376.2096,377.3755,l,1,0.4992,,[],[],[],[],[],[],[],0.4992,1,377.3755,377.8756,,,,,,491,MAS,DIS,150,bote,la,l,377.8756,377.8757,0.296373967,-0.356801823,0,0,0,,0,144,144,40,1,,,,
,,,,,,48680137daadec4bef69ebb7,66a626ef09d4e21e1a8894ec,6734e03a62302425b1db7e20,2024-11-13_11h22.42.826,Tarea de género gramatical,2024.2.2,MacIntel,60.97560976,,,,,,,,,,,,,,,,,,,,,,,377.8764,379.4928,l,0,0.9504,,[],[],[],[],[],[],[],0.9504,0,379.4933,379.9927,,,,,,524,FEM,DIS,150,flor,el,a,379.9927,379.9927,0.296373967,-0.356801823,0,0,0,,0,145,145,73,1,,,,
,,,,,,48680137daadec4bef69ebb7,66a626ef09d4e21e1a8894ec,6734e03a62302425b1db7e20,2024-11-13_11h22.42.826,Tarea de género gramatical,2024.2.2,MacIntel,60.97560976,,,,,,,,,,,,,,,,,,,,,,,379.9935,381.5258,a,1,0.8507,,[],[],[],[],[],[],[],0.8507,1,381.5262,382.0267,,,,,,470,FEM,DIS,150,ropa,el,a,382.0278,382.0283,0.296373967,-0.356801823,0,0,0,,0,146,146,19,1,,,,
,,,,,,48680137daadec4bef69ebb7,66a626ef09d4e21e1a8894ec,6734e03a62302425b1db7e20,2024-11-13_11h22.42.826,Tarea de género gramatical,2024.2.2,MacIntel,60.97560976,,,,,,,,,,,,,,,,,,,,,,,382.029,383.1757,l,1,0.4665,,[],[],[],[],[],[],[],0.4665,1,383.1758,383.6756,,,,,,737,MAS,DIS,150,plato,la,l,383.6756,383.6757,0.296373967,-0.356801823,0,0,0,,0,147,147,286,1,,,,
,,,,,,48680137daadec4bef69ebb7,66a626ef09d4e21e1a8894ec,6734e03a62302425b1db7e20,2024-11-13_11h22.42.826,Tarea de género gramatical,2024.2.2,MacIntel,60.97560976,,,,,,,,,,,,,,,,,,,,,,,383.6764,385.0425,l,1,0.6818,,[],[],[],[],[],[],[],0.6818,1,385.0426,385.5433,,,,,,834,MAS,AGR,150,pedazo,el,l,385.5433,385.5434,0.296373967,-0.356801823,0,0,0,,0,148,148,383,1,,,,
,,,,,,48680137daadec4bef69ebb7,66a626ef09d4e21e1a8894ec,6734e03a62302425b1db7e20,2024-11-13_11h22.42.826,Tarea de género gramatical,2024.2.2,MacIntel,60.97560976,,,,,,,,,,,,,,,,,,,,,,,385.5442,386.7593,l,1,0.5341,,[],[],[],[],[],[],[],0.5341,1,386.7594,387.26,,,,,,779,MAS,DIS,150,futuro,la,l,387.26,387.26,0.296373967,-0.356801823,0,0,0,,0,149,149,328,1,,,,
,,,,,,48680137daadec4bef69ebb7,66a626ef09d4e21e1a8894ec,6734e03a62302425b1db7e20,2024-11-13_11h22.42.826,Tarea de género gramatical,2024.2.2,MacIntel,60.97560976,,,,,,,,,,,,,,,,,,,,,,,387.2608,388.4593,l,1,0.519,,[],[],[],[],[],[],[],0.519,1,388.4594,388.9598,,,,,,684,MAS,AGR,150,héroe,el,l,388.9607,423.9091,0.296373967,-0.356801823,0,0,0,space,0,150,150,233,1,34.9045,,,
,,,,,,48680137daadec4bef69ebb7,66a626ef09d4e21e1a8894ec,6734e03a62302425b1db7e20,2024-11-13_11h22.42.826,Tarea de género gramatical,2024.2.2,MacIntel,60.97560976,,,,,,,,,,,,,,,,,,,,,,,423.9096,425.2099,l,1,0.6333,,[],[],[],[],[],[],[],0.6333,1,425.21,425.71,,,,,,886,MAS,CON,150,objeto,,l,425.7101,425.7102,0.296373967,-0.356801823,0,0,0,,0,151,151,435,1,,,,
,,,,,,48680137daadec4bef69ebb7,66a626ef09d4e21e1a8894ec,6734e03a62302425b1db7e20,2024-11-13_11h22.42.826,Tarea de género gramatical,2024.2.2,MacIntel,60.97560976,,,,,,,,,,,,,,,,,,,,,,,425.7108,426.8595,a,1,0.4675,,[],[],[],[],[],[],[],0.4675,1,426.8595,427.3599,,,,,,891,FEM,AGR,150,medida,la,a,427.36,427.36,0.296373967,-0.356801823,0,0,0,,0,152,152,440,1,,,,
,,,,,,48680137daadec4bef69ebb7,66a626ef09d4e21e1a8894ec,6734e03a62302425b1db7e20,2024-11-13_11h22.42.826,Tarea de género gramatical,2024.2.2,MacIntel,60.97560976,,,,,,,,,,,,,,,,,,,,,,,427.3607,428.4433,a,1,0.3994,,[],[],[],[],[],[],[],0.3994,1,428.4434,428.9429,,,,,,764,FEM,DIS,150,señora,el,a,428.9429,428.943,0.296373967,-0.356801823,0,0,0,,0,153,153,313,1,,,,
,,,,,,48680137daadec4bef69ebb7,66a626ef09d4e21e1a8894ec,6734e03a62302425b1db7e20,2024-11-13_11h22.42.826,Tarea de género gramatical,2024.2.2,MacIntel,60.97560976,,,,,,,,,,,,,,,,,,,,,,,428.9438,430.16,l,1,0.5405,,[],[],[],[],[],[],[],0.5405,1,430.16,430.66,,,,,,606,MAS,AGR,150,amigo,el,l,430.66,430.6601,0.296373967,-0.356801823,0,0,0,,0,154,154,155,1,,,,
,,,,,,48680137daadec4bef69ebb7,66a626ef09d4e21e1a8894ec,6734e03a62302425b1db7e20,2024-11-13_11h22.42.826,Tarea de género gramatical,2024.2.2,MacIntel,60.97560976,,,,,,,,,,,,,,,,,,,,,,,430.6608,432.1925,a,1,0.8501,,[],[],[],[],[],[],[],0.8501,1,432.1925,432.6925,,,,,,805,FEM,CON,150,mirada,,a,432.6932,432.6939,0.296373967,-0.356801823,0,0,0,,0,155,155,354,1,,,,
,,,,,,48680137daadec4bef69ebb7,66a626ef09d4e21e1a8894ec,6734e03a62302425b1db7e20,2024-11-13_11h22.42.826,Tarea de género gramatical,2024.2.2,MacIntel,60.97560976,,,,,,,,,,,,,,,,,,,,,,,432.6945,434.243,a,1,0.8679,,[],[],[],[],[],[],[],0.8679,1,434.243,434.7434,,,,,,578,FEM,DIS,150,leña,el,a,434.7435,434.7435,0.296373967,-0.356801823,0,0,0,,0,156,156,127,1,,,,
,,,,,,48680137daadec4bef69ebb7,66a626ef09d4e21e1a8894ec,6734e03a62302425b1db7e20,2024-11-13_11h22.42.826,Tarea de género gramatical,2024.2.2,MacIntel,60.97560976,,,,,,,,,,,,,,,,,,,,,,,434.7443,435.8122,l,1,0.3885,,[],[],[],[],[],[],[],0.3885,1,435.8122,436.31,,,,,,826,MAS,CON,150,efecto,,l,436.31,436.3101,0.296373967,-0.356801823,0,0,0,,0,157,157,375,1,,,,
,,,,,,48680137daadec4bef69ebb7,66a626ef09d4e21e1a8894ec,6734e03a62302425b1db7e20,2024-11-13_11h22.42.826,Tarea de género gramatical,2024.2.2,MacIntel,60.97560976,,,,,,,,,,,,,,,,,,,,,,,436.3106,437.743,l,1,0.7488,,[],[],[],[],[],[],[],0.7488,1,437.7431,438.2424,,,,,,778,MAS,CON,150,asunto,,l,438.2425,438.2425,0.296373967,-0.356801823,0,0,0,,0,158,158,327,1,,,,
,,,,,,48680137daadec4bef69ebb7,66a626ef09d4e21e1a8894ec,6734e03a62302425b1db7e20,2024-11-13_11h22.42.826,Tarea de género gramatical,2024.2.2,MacIntel,60.97560976,,,,,,,,,,,,,,,,,,,,,,,438.2432,439.6093,a,1,0.7001,,[],[],[],[],[],[],[],0.7001,1,439.6093,440.1096,,,,,,806,FEM,DIS,150,piedra,el,a,440.1103,440.1107,0.296373967,-0.356801823,0,0,0,,0,159,159,355,1,,,,
,,,,,,48680137daadec4bef69ebb7,66a626ef09d4e21e1a8894ec,6734e03a62302425b1db7e20,2024-11-13_11h22.42.826,Tarea de género gramatical,2024.2.2,MacIntel,60.97560976,,,,,,,,,,,,,,,,,,,,,,,440.1112,441.3599,l,1,0.5685,,[],[],[],[],[],[],[],0.5685,1,441.36,441.8602,,,,,,790,MAS,CON,150,pasado,,l,441.8602,441.8604,0.296373967,-0.356801823,0,0,0,,0,160,160,339,1,,,,
,,,,,,48680137daadec4bef69ebb7,66a626ef09d4e21e1a8894ec,6734e03a62302425b1db7e20,2024-11-13_11h22.42.826,Tarea de género gramatical,2024.2.2,MacIntel,60.97560976,,,,,,,,,,,,,,,,,,,,,,,441.8611,442.9759,l,1,0.4357,,[],[],[],[],[],[],[],0.4357,1,442.9761,443.4759,,,,,,618,MAS,AGR,150,sitio,el,l,443.476,443.476,0.296373967,-0.356801823,0,0,0,,0,161,161,167,1,,,,
,,,,,,48680137daadec4bef69ebb7,66a626ef09d4e21e1a8894ec,6734e03a62302425b1db7e20,2024-11-13_11h22.42.826,Tarea de género gramatical,2024.2.2,MacIntel,60.97560976,,,,,,,,,,,,,,,,,,,,,,,443.4766,444.643,a,1,0.4985,,[],[],[],[],[],[],[],0.4985,1,444.643,445.1437,,,,,,627,FEM,AGR,150,broma,la,a,445.1438,445.1438,0.296373967,-0.356801823,0,0,0,,0,162,162,176,1,,,,
,,,,,,48680137daadec4bef69ebb7,66a626ef09d4e21e1a8894ec,6734e03a62302425b1db7e20,2024-11-13_11h22.42.826,Tarea de género gramatical,2024.2.2,MacIntel,60.97560976,,,,,,,,,,,,,,,,,,,,,,,445.1446,446.3096,a,1,0.4831,,[],[],[],[],[],[],[],0.4831,1,446.3097,446.8103,,,,,,872,FEM,DIS,150,rutina,el,a,446.8104,446.8105,0.296373967,-0.356801823,0,0,0,,0,163,163,421,1,,,,
,,,,,,48680137daadec4bef69ebb7,66a626ef09d4e21e1a8894ec,6734e03a62302425b1db7e20,2024-11-13_11h22.42.826,Tarea de género gramatical,2024.2.2,MacIntel,60.97560976,,,,,,,,,,,,,,,,,,,,,,,446.8114,447.8927,a,1,0.3986,,[],[],[],[],[],[],[],0.3986,1,447.8927,448.3933,,,,,,716,FEM,DIS,150,jaula,el,a,448.3943,448.3948,0.296373967,-0.356801823,0,0,0,,0,164,164,265,1,,,,
,,,,,,48680137daadec4bef69ebb7,66a626ef09d4e21e1a8894ec,6734e03a62302425b1db7e20,2024-11-13_11h22.42.826,Tarea de género gramatical,2024.2.2,MacIntel,60.97560976,,,,,,,,,,,,,,,,,,,,,,,448.3952,449.5263,l,1,0.4503,,[],[],[],[],[],[],[],0.4503,1,449.5264,450.0266,,,,,,480,MAS,AGR,150,cine,el,l,450.0266,450.0267,0.296373967,-0.356801823,0,0,0,,0,165,165,29,1,,,,
,,,,,,48680137daadec4bef69ebb7,66a626ef09d4e21e1a8894ec,6734e03a62302425b1db7e20,2024-11-13_11h22.42.826,Tarea de género gramatical,2024.2.2,MacIntel,60.97560976,,,,,,,,,,,,,,,,,,,,,,,450.0273,451.2095,a,1,0.5004,,[],[],[],[],[],[],[],0.5004,1,451.2095,451.7092,,,,,,651,FEM,AGR,150,leche,la,a,451.7092,451.7093,0.296373967,-0.356801823,0,0,0,,0,166,166,200,1,,,,
,,,,,,48680137daadec4bef69ebb7,66a626ef09d4e21e1a8894ec,6734e03a62302425b1db7e20,2024-11-13_11h22.42.826,Tarea de género gramatical,2024.2.2,MacIntel,60.97560976,,,,,,,,,,,,,,,,,,,,,,,451.71,453.4263,a,1,1.0373,,[],[],[],[],[],[],[],1.0373,1,453.4263,453.9259,,,,,,668,FEM,DIS,150,nieve,el,a,453.926,453.926,0.296373967,-0.356801823,0,0,0,,0,167,167,217,1,,,,
,,,,,,48680137daadec4bef69ebb7,66a626ef09d4e21e1a8894ec,6734e03a62302425b1db7e20,2024-11-13_11h22.42.826,Tarea de género gramatical,2024.2.2,MacIntel,60.97560976,,,,,,,,,,,,,,,,,,,,,,,453.9268,455.1598,a,0,0.5653,,[],[],[],[],[],[],[],0.5653,0,455.1604,455.6596,,,,,,574,MAS,CON,150,clan,,l,455.6604,455.661,0.296373967,-0.356801823,0,0,0,,0,168,168,123,1,,,,
,,,,,,48680137daadec4bef69ebb7,66a626ef09d4e21e1a8894ec,6734e03a62302425b1db7e20,2024-11-13_11h22.42.826,Tarea de género gramatical,2024.2.2,MacIntel,60.97560976,,,,,,,,,,,,,,,,,,,,,,,455.6615,457.1102,l,1,0.7667,,[],[],[],[],[],[],[],0.7667,1,457.1108,457.6094,,,,,,767,MAS,DIS,150,número,la,l,457.6094,457.6095,0.296373967,-0.356801823,0,0,0,,0,169,169,316,1,,,,
,,,,,,48680137daadec4bef69ebb7,66a626ef09d4e21e1a8894ec,6734e03a62302425b1db7e20,2024-11-13_11h22.42.826,Tarea de género gramatical,2024.2.2,MacIntel,60.97560976,,,,,,,,,,,,,,,,,,,,,,,457.6103,458.9092,l,1,0.6326,,[],[],[],[],[],[],[],0.6326,1,458.9093,459.4096,,,,,,532,MAS,CON,150,tubo,,l,459.4096,459.4097,0.296373967,-0.356801823,0,0,0,,0,170,170,81,1,,,,
,,,,,,48680137daadec4bef69ebb7,66a626ef09d4e21e1a8894ec,6734e03a62302425b1db7e20,2024-11-13_11h22.42.826,Tarea de género gramatical,2024.2.2,MacIntel,60.97560976,,,,,,,,,,,,,,,,,,,,,,,459.4103,461.0929,a,1,0.9996,,[],[],[],[],[],[],[],0.9996,1,461.0929,461.5937,,,,,,818,FEM,DIS,150,gracia,el,a,461.5938,461.5938,0.296373967,-0.356801823,0,0,0,,0,171,171,367,1,,,,
,,,,,,48680137daadec4bef69ebb7,66a626ef09d4e21e1a8894ec,6734e03a62302425b1db7e20,2024-11-13_11h22.42.826,Tarea de género gramatical,2024.2.2,MacIntel,60.97560976,,,,,,,,,,,,,,,,,,,,,,,461.5947,462.9093,l,1,0.6333,,[],[],[],[],[],[],[],0.6333,1,462.9094,463.4101,,,,,,683,MAS,DIS,150,golpe,la,l,463.4101,463.4102,0.296373967,-0.356801823,0,0,0,,0,172,172,232,1,,,,
,,,,,,48680137daadec4bef69ebb7,66a626ef09d4e21e1a8894ec,6734e03a62302425b1db7e20,2024-11-13_11h22.42.826,Tarea de género gramatical,2024.2.2,MacIntel,60.97560976,,,,,,,,,,,,,,,,,,,,,,,463.4108,464.5258,l,1,0.4494,,[],[],[],[],[],[],[],0.4494,1,464.5259,465.0262,,,,,,562,MAS,CON,150,reto,,l,465.0271,465.0276,0.296373967,-0.356801823,0,0,0,,0,173,173,111,1,,,,
,,,,,,48680137daadec4bef69ebb7,66a626ef09d4e21e1a8894ec,6734e03a62302425b1db7e20,2024-11-13_11h22.42.826,Tarea de género gramatical,2024.2.2,MacIntel,60.97560976,,,,,,,,,,,,,,,,,,,,,,,465.0281,466.2603,a,1,0.5509,,[],[],[],[],[],[],[],0.5509,1,466.2603,466.7599,,,,,,667,FEM,CON,150,tarea,,a,466.7599,466.76,0.296373967,-0.356801823,0,0,0,,0,174,174,216,1,,,,
,,,,,,48680137daadec4bef69ebb7,66a626ef09d4e21e1a8894ec,6734e03a62302425b1db7e20,2024-11-13_11h22.42.826,Tarea de género gramatical,2024.2.2,MacIntel,60.97560976,,,,,,,,,,,,,,,,,,,,,,,466.7607,468.2602,a,1,0.816,,[],[],[],[],[],[],[],0.816,1,468.2602,468.7594,,,,,,825,FEM,AGR,150,cadena,la,a,468.7595,468.7596,0.296373967,-0.356801823,0,0,0,,0,175,175,374,1,,,,
,,,,,,48680137daadec4bef69ebb7,66a626ef09d4e21e1a8894ec,6734e03a62302425b1db7e20,2024-11-13_11h22.42.826,Tarea de género gramatical,2024.2.2,MacIntel,60.97560976,,,,,,,,,,,,,,,,,,,,,,,468.7605,469.876,a,1,0.4325,,[],[],[],[],[],[],[],0.4325,1,469.876,470.3761,,,,,,507,FEM,AGR,150,moda,la,a,470.3762,470.3763,0.296373967,-0.356801823,0,0,0,,0,176,176,56,1,,,,
,,,,,,48680137daadec4bef69ebb7,66a626ef09d4e21e1a8894ec,6734e03a62302425b1db7e20,2024-11-13_11h22.42.826,Tarea de género gramatical,2024.2.2,MacIntel,60.97560976,,,,,,,,,,,,,,,,,,,,,,,470.377,471.4937,a,1,0.4352,,[],[],[],[],[],[],[],0.4352,1,471.4937,471.9936,,,,,,459,FEM,AGR,150,mamá,la,a,471.9945,471.9951,0.296373967,-0.356801823,0,0,0,,0,177,177,8,1,,,,
,,,,,,48680137daadec4bef69ebb7,66a626ef09d4e21e1a8894ec,6734e03a62302425b1db7e20,2024-11-13_11h22.42.826,Tarea de género gramatical,2024.2.2,MacIntel,60.97560976,,,,,,,,,,,,,,,,,,,,,,,471.9956,473.1096,l,1,0.4333,,[],[],[],[],[],[],[],0.4333,1,473.1096,473.6098,,,,,,610,MAS,CON,150,señor,,l,473.6098,473.6099,0.296373967,-0.356801823,0,0,0,,0,178,178,159,1,,,,
,,,,,,48680137daadec4bef69ebb7,66a626ef09d4e21e1a8894ec,6734e03a62302425b1db7e20,2024-11-13_11h22.42.826,Tarea de género gramatical,2024.2.2,MacIntel,60.97560976,,,,,,,,,,,,,,,,,,,,,,,473.6106,474.9602,a,1,0.6806,,[],[],[],[],[],[],[],0.6806,1,474.9603,475.4598,,,,,,704,FEM,DIS,150,caída,el,a,475.4598,475.4598,0.296373967,-0.356801823,0,0,0,,0,179,179,253,1,,,,
,,,,,,48680137daadec4bef69ebb7,66a626ef09d4e21e1a8894ec,6734e03a62302425b1db7e20,2024-11-13_11h22.42.826,Tarea de género gramatical,2024.2.2,MacIntel,60.97560976,,,,,,,,,,,,,,,,,,,,,,,475.4606,476.6266,l,1,0.4831,,[],[],[],[],[],[],[],0.4831,1,476.6266,477.1259,,,,,,600,MAS,AGR,150,mozo,el,l,477.1261,477.1261,0.296373967,-0.356801823,0,0,0,,0,180,180,149,1,,,,
,,,,,,48680137daadec4bef69ebb7,66a626ef09d4e21e1a8894ec,6734e03a62302425b1db7e20,2024-11-13_11h22.42.826,Tarea de género gramatical,2024.2.2,MacIntel,60.97560976,,,,,,,,,,,,,,,,,,,,,,,477.1267,478.377,a,1,0.5841,,[],[],[],[],[],[],[],0.5841,1,478.3771,478.8762,,,,,,638,FEM,DIS,150,bomba,el,a,478.8763,478.8763,0.296373967,-0.356801823,0,0,0,,0,181,181,187,1,,,,
,,,,,,48680137daadec4bef69ebb7,66a626ef09d4e21e1a8894ec,6734e03a62302425b1db7e20,2024-11-13_11h22.42.826,Tarea de género gramatical,2024.2.2,MacIntel,60.97560976,,,,,,,,,,,,,,,,,,,,,,,478.877,480.1263,l,1,0.5658,,[],[],[],[],[],[],[],0.5658,1,480.1263,480.6265,,,,,,581,MAS,DIS,150,kilo,la,l,480.6272,480.6277,0.296373967,-0.356801823,0,0,0,,0,182,182,130,1,,,,
,,,,,,48680137daadec4bef69ebb7,66a626ef09d4e21e1a8894ec,6734e03a62302425b1db7e20,2024-11-13_11h22.42.826,Tarea de género gramatical,2024.2.2,MacIntel,60.97560976,,,,,,,,,,,,,,,,,,,,,,,480.6281,481.7617,l,1,0.4499,,[],[],[],[],[],[],[],0.4499,1,481.7617,482.2603,,,,,,706,MAS,CON,150,techo,,l,482.2604,482.2605,0.296373967,-0.356801823,0,0,0,,0,183,183,255,1,,,,
,,,,,,48680137daadec4bef69ebb7,66a626ef09d4e21e1a8894ec,6734e03a62302425b1db7e20,2024-11-13_11h22.42.826,Tarea de género gramatical,2024.2.2,MacIntel,60.97560976,,,,,,,,,,,,,,,,,,,,,,,482.2612,483.4435,a,1,0.4995,,[],[],[],[],[],[],[],0.4995,1,483.4436,483.9436,,,,,,542,FEM,DIS,150,masa,el,a,483.9436,483.9437,0.296373967,-0.356801823,0,0,0,,0,184,184,91,1,,,,
,,,,,,48680137daadec4bef69ebb7,66a626ef09d4e21e1a8894ec,6734e03a62302425b1db7e20,2024-11-13_11h22.42.826,Tarea de género gramatical,2024.2.2,MacIntel,60.97560976,,,,,,,,,,,,,,,,,,,,,,,483.9442,485.1098,a,1,0.4827,,[],[],[],[],[],[],[],0.4827,1,485.1099,485.6104,,,,,,537,FEM,AGR,150,risa,la,a,485.6105,485.6105,0.296373967,-0.356801823,0,0,0,,0,185,185,86,1,,,,
,,,,,,48680137daadec4bef69ebb7,66a626ef09d4e21e1a8894ec,6734e03a62302425b1db7e20,2024-11-13_11h22.42.826,Tarea de género gramatical,2024.2.2,MacIntel,60.97560976,,,,,,,,,,,,,,,,,,,,,,,485.6113,486.7101,a,1,0.4159,,[],[],[],[],[],[],[],0.4159,1,486.7102,487.2104,,,,,,553,FEM,CON,150,fama,,a,487.2113,487.2119,0.296373967,-0.356801823,0,0,0,,0,186,186,102,1,,,,
,,,,,,48680137daadec4bef69ebb7,66a626ef09d4e21e1a8894ec,6734e03a62302425b1db7e20,2024-11-13_11h22.42.826,Tarea de género gramatical,2024.2.2,MacIntel,60.97560976,,,,,,,,,,,,,,,,,,,,,,,487.2123,488.4096,l,1,0.5143,,[],[],[],[],[],[],[],0.5143,1,488.4097,488.9095,,,,,,785,MAS,DIS,150,montón,la,l,488.9096,488.9097,0.296373967,-0.356801823,0,0,0,,0,187,187,334,1,,,,
,,,,,,48680137daadec4bef69ebb7,66a626ef09d4e21e1a8894ec,6734e03a62302425b1db7e20,2024-11-13_11h22.42.826,Tarea de género gramatical,2024.2.2,MacIntel,60.97560976,,,,,,,,,,,,,,,,,,,,,,,488.9105,490.0933,a,1,0.5012,,[],[],[],[],[],[],[],0.5012,1,490.0934,490.5938,,,,,,817,FEM,CON,150,teoría,,a,490.5938,490.5939,0.296373967,-0.356801823,0,0,0,,0,188,188,366,1,,,,
,,,,,,48680137daadec4bef69ebb7,66a626ef09d4e21e1a8894ec,6734e03a62302425b1db7e20,2024-11-13_11h22.42.826,Tarea de género gramatical,2024.2.2,MacIntel,60.97560976,,,,,,,,,,,,,,,,,,,,,,,490.5945,491.8765,l,1,0.6009,,[],[],[],[],[],[],[],0.6009,1,491.8765,492.376,,,,,,502,MAS,CON,150,lago,,l,492.376,492.376,0.296373967,-0.356801823,0,0,0,,0,189,189,51,1,,,,
,,,,,,48680137daadec4bef69ebb7,66a626ef09d4e21e1a8894ec,6734e03a62302425b1db7e20,2024-11-13_11h22.42.826,Tarea de género gramatical,2024.2.2,MacIntel,60.97560976,,,,,,,,,,,,,,,,,,,,,,,492.3767,493.4937,l,1,0.4328,,[],[],[],[],[],[],[],0.4328,1,493.4937,493.9928,,,,,,707,MAS,DIS,150,pecho,la,l,493.9929,493.9929,0.296373967,-0.356801823,0,0,0,,0,190,190,256,1,,,,
,,,,,,48680137daadec4bef69ebb7,66a626ef09d4e21e1a8894ec,6734e03a62302425b1db7e20,2024-11-13_11h22.42.826,Tarea de género gramatical,2024.2.2,MacIntel,60.97560976,,,,,,,,,,,,,,,,,,,,,,,493.9937,495.2094,l,1,0.5321,,[],[],[],[],[],[],[],0.5321,1,495.2094,495.7103,,,,,,629,MAS,DIS,150,viaje,la,l,495.7114,495.712,0.296373967,-0.356801823,0,0,0,,0,191,191,178,1,,,,
,,,,,,48680137daadec4bef69ebb7,66a626ef09d4e21e1a8894ec,6734e03a62302425b1db7e20,2024-11-13_11h22.42.826,Tarea de género gramatical,2024.2.2,MacIntel,60.97560976,,,,,,,,,,,,,,,,,,,,,,,495.7125,497.0266,l,1,0.6334,,[],[],[],[],[],[],[],0.6334,1,497.0267,497.5264,,,,,,546,MAS,AGR,150,pato,el,l,497.5264,497.5265,0.296373967,-0.356801823,0,0,0,,0,192,192,95,1,,,,
,,,,,,48680137daadec4bef69ebb7,66a626ef09d4e21e1a8894ec,6734e03a62302425b1db7e20,2024-11-13_11h22.42.826,Tarea de género gramatical,2024.2.2,MacIntel,60.97560976,,,,,,,,,,,,,,,,,,,,,,,497.5272,498.7598,l,1,0.5498,,[],[],[],[],[],[],[],0.5498,1,498.7598,499.2594,,,,,,544,MAS,CON,150,cabo,,l,499.2595,499.2596,0.296373967,-0.356801823,0,0,0,,0,193,193,93,1,,,,
,,,,,,48680137daadec4bef69ebb7,66a626ef09d4e21e1a8894ec,6734e03a62302425b1db7e20,2024-11-13_11h22.42.826,Tarea de género gramatical,2024.2.2,MacIntel,60.97560976,,,,,,,,,,,,,,,,,,,,,,,499.2603,500.5605,a,1,0.6348,,[],[],[],[],[],[],[],0.6348,1,500.5606,501.0603,,,,,,602,FEM,DIS,150,gente,el,a,501.0603,501.0603,0.296373967,-0.356801823,0,0,0,,0,194,194,151,1,,,,
,,,,,,48680137daadec4bef69ebb7,66a626ef09d4e21e1a8894ec,6734e03a62302425b1db7e20,2024-11-13_11h22.42.826,Tarea de género gramatical,2024.2.2,MacIntel,60.97560976,,,,,,,,,,,,,,,,,,,,,,,501.0609,502.1933,a,1,0.4489,,[],[],[],[],[],[],[],0.4489,1,502.1934,502.6938,,,,,,451,FEM,CON,150,casa,,a,502.6947,502.6952,0.296373967,-0.356801823,0,0,0,,0,195,195,0,1,,,,
,,,,,,48680137daadec4bef69ebb7,66a626ef09d4e21e1a8894ec,6734e03a62302425b1db7e20,2024-11-13_11h22.42.826,Tarea de género gramatical,2024.2.2,MacIntel,60.97560976,,,,,,,,,,,,,,,,,,,,,,,502.6959,504.4099,a,1,1.0341,,[],[],[],[],[],[],[],1.0341,1,504.4099,504.9097,,,,,,561,FEM,AGR,150,goma,la,a,504.9097,504.9098,0.296373967,-0.356801823,0,0,0,,0,196,196,110,1,,,,
,,,,,,48680137daadec4bef69ebb7,66a626ef09d4e21e1a8894ec,6734e03a62302425b1db7e20,2024-11-13_11h22.42.826,Tarea de género gramatical,2024.2.2,MacIntel,60.97560976,,,,,,,,,,,,,,,,,,,,,,,504.9105,506.1762,l,1,0.5842,,[],[],[],[],[],[],[],0.5842,1,506.1763,506.6771,,,,,,755,MAS,DIS,150,hombre,la,l,506.6772,506.6772,0.296373967,-0.356801823,0,0,0,,0,197,197,304,1,,,,
,,,,,,48680137daadec4bef69ebb7,66a626ef09d4e21e1a8894ec,6734e03a62302425b1db7e20,2024-11-13_11h22.42.826,Tarea de género gramatical,2024.2.2,MacIntel,60.97560976,,,,,,,,,,,,,,,,,,,,,,,506.6779,507.9438,a,1,0.5812,,[],[],[],[],[],[],[],0.5812,1,507.9439,508.4437,,,,,,655,FEM,CON,150,reina,,a,508.4437,508.4438,0.296373967,-0.356801823,0,0,0,,0,198,198,204,1,,,,
,,,,,,48680137daadec4bef69ebb7,66a626ef09d4e21e1a8894ec,6734e03a62302425b1db7e20,2024-11-13_11h22.42.826,Tarea de género gramatical,2024.2.2,MacIntel,60.97560976,,,,,,,,,,,,,,,,,,,,,,,508.4447,509.6096,a,1,0.4843,,[],[],[],[],[],[],[],0.4843,1,509.6096,510.1104,,,,,,506,FEM,DIS,150,bola,el,a,510.1105,510.1105,0.296373967,-0.356801823,0,0,0,,0,199,199,55,1,,,,
,,,,,,48680137daadec4bef69ebb7,66a626ef09d4e21e1a8894ec,6734e03a62302425b1db7e20,2024-11-13_11h22.42.826,Tarea de género gramatical,2024.2.2,MacIntel,60.97560976,,,,,,,,,,,,,,,,,,,,,,,510.1111,511.2429,a,1,0.4493,,[],[],[],[],[],[],[],0.4493,1,511.2429,511.744,,,,,,746,FEM,DIS,150,feria,el,a,511.7449,511.7454,0.296373967,-0.356801823,0,0,0,,0,200,200,295,1,,,,
,,,,,,48680137daadec4bef69ebb7,66a626ef09d4e21e1a8894ec,6734e03a62302425b1db7e20,2024-11-13_11h22.42.826,Tarea de género gramatical,2024.2.2,MacIntel,60.97560976,,,,,,,,,,,,,,,,,,,,,,,511.746,512.8435,l,1,0.4149,,[],[],[],[],[],[],[],0.4149,1,512.8436,513.3438,,,,,,714,MAS,AGR,150,pollo,el,l,513.3438,513.344,0.296373967,-0.356801823,0,0,0,,0,201,201,263,1,,,,
,,,,,,48680137daadec4bef69ebb7,66a626ef09d4e21e1a8894ec,6734e03a62302425b1db7e20,2024-11-13_11h22.42.826,Tarea de género gramatical,2024.2.2,MacIntel,60.97560976,,,,,,,,,,,,,,,,,,,,,,,513.3446,514.5769,a,1,0.5489,,[],[],[],[],[],[],[],0.5489,1,514.5769,515.0769,,,,,,853,FEM,CON,150,paliza,,a,515.0769,515.077,0.296373967,-0.356801823,0,0,0,,0,202,202,402,1,,,,
,,,,,,48680137daadec4bef69ebb7,66a626ef09d4e21e1a8894ec,6734e03a62302425b1db7e20,2024-11-13_11h22.42.826,Tarea de género gramatical,2024.2.2,MacIntel,60.97560976,,,,,,,,,,,,,,,,,,,,,,,515.0778,516.2764,a,0,0.5171,,[],[],[],[],[],[],[],0.5171,0,516.2769,516.7762,,,,,,708,MAS,AGR,150,polvo,el,l,516.7763,516.7763,0.296373967,-0.356801823,0,0,0,,0,203,203,257,1,,,,
,,,,,,48680137daadec4bef69ebb7,66a626ef09d4e21e1a8894ec,6734e03a62302425b1db7e20,2024-11-13_11h22.42.826,Tarea de género gramatical,2024.2.2,MacIntel,60.97560976,,,,,,,,,,,,,,,,,,,,,,,516.7769,518.0104,a,1,0.5496,,[],[],[],[],[],[],[],0.5496,1,518.011,518.5098,,,,,,879,FEM,AGR,150,fianza,la,a,518.5106,518.511,0.296373967,-0.356801823,0,0,0,,0,204,204,428,1,,,,
,,,,,,48680137daadec4bef69ebb7,66a626ef09d4e21e1a8894ec,6734e03a62302425b1db7e20,2024-11-13_11h22.42.826,Tarea de género gramatical,2024.2.2,MacIntel,60.97560976,,,,,,,,,,,,,,,,,,,,,,,518.5115,519.7762,a,1,0.5833,,[],[],[],[],[],[],[],0.5833,1,519.7763,520.2765,,,,,,836,FEM,DIS,150,sombra,el,a,520.2766,520.2766,0.296373967,-0.356801823,0,0,0,,0,205,205,385,1,,,,
,,,,,,48680137daadec4bef69ebb7,66a626ef09d4e21e1a8894ec,6734e03a62302425b1db7e20,2024-11-13_11h22.42.826,Tarea de género gramatical,2024.2.2,MacIntel,60.97560976,,,,,,,,,,,,,,,,,,,,,,,520.2773,521.4772,l,1,0.5327,,[],[],[],[],[],[],[],0.5327,1,521.4773,521.9769,,,,,,742,MAS,CON,150,piano,,l,521.9769,521.977,0.296373967,-0.356801823,0,0,0,,0,206,206,291,1,,,,
,,,,,,48680137daadec4bef69ebb7,66a626ef09d4e21e1a8894ec,6734e03a62302425b1db7e20,2024-11-13_11h22.42.826,Tarea de género gramatical,2024.2.2,MacIntel,60.97560976,,,,,,,,,,,,,,,,,,,,,,,521.9776,523.6596,l,1,1.0006,,[],[],[],[],[],[],[],1.0006,1,523.6597,524.1597,,,,,,509,MAS,DIS,150,lobo,la,l,524.1597,524.1598,0.296373967,-0.356801823,0,0,0,,0,207,207,58,1,,,,
,,,,,,48680137daadec4bef69ebb7,66a626ef09d4e21e1a8894ec,6734e03a62302425b1db7e20,2024-11-13_11h22.42.826,Tarea de género gramatical,2024.2.2,MacIntel,60.97560976,,,,,,,,,,,,,,,,,,,,,,,524.1604,525.3602,l,1,0.533,,[],[],[],[],[],[],[],0.533,1,525.3602,525.8605,,,,,,875,MAS,DIS,150,chiste,la,l,525.8606,525.8606,0.296373967,-0.356801823,0,0,0,,0,208,208,424,1,,,,
,,,,,,48680137daadec4bef69ebb7,66a626ef09d4e21e1a8894ec,6734e03a62302425b1db7e20,2024-11-13_11h22.42.826,Tarea de género gramatical,2024.2.2,MacIntel,60.97560976,,,,,,,,,,,,,,,,,,,,,,,525.8614,526.9105,a,1,0.3637,,[],[],[],[],[],[],[],0.3637,1,526.9106,527.4108,,,,,,452,FEM,DIS,150,vida,el,a,527.4118,527.4124,0.296373967,-0.356801823,0,0,0,,0,209,209,1,1,,,,
,,,,,,48680137daadec4bef69ebb7,66a626ef09d4e21e1a8894ec,6734e03a62302425b1db7e20,2024-11-13_11h22.42.826,Tarea de género gramatical,2024.2.2,MacIntel,60.97560976,,,,,,,,,,,,,,,,,,,,,,,527.413,528.5266,l,1,0.435,,[],[],[],[],[],[],[],0.435,1,528.5267,529.0265,,,,,,768,MAS,AGR,150,pueblo,el,l,529.0265,529.0265,0.296373967,-0.356801823,0,0,0,,0,210,210,317,1,,,,
,,,,,,48680137daadec4bef69ebb7,66a626ef09d4e21e1a8894ec,6734e03a62302425b1db7e20,2024-11-13_11h22.42.826,Tarea de género gramatical,2024.2.2,MacIntel,60.97560976,,,,,,,,,,,,,,,,,,,,,,,529.0273,530.2103,l,1,0.5001,,[],[],[],[],[],[],[],0.5001,1,530.2104,530.7108,,,,,,646,MAS,CON,150,barco,,l,530.7108,530.7109,0.296373967,-0.356801823,0,0,0,,0,211,211,195,1,,,,
,,,,,,48680137daadec4bef69ebb7,66a626ef09d4e21e1a8894ec,6734e03a62302425b1db7e20,2024-11-13_11h22.42.826,Tarea de género gramatical,2024.2.2,MacIntel,60.97560976,,,,,,,,,,,,,,,,,,,,,,,530.7118,531.7933,l,1,0.4023,,[],[],[],[],[],[],[],0.4023,1,531.7933,532.2938,,,,,,654,MAS,AGR,150,papel,el,l,532.2939,532.2939,0.296373967,-0.356801823,0,0,0,,0,212,212,203,1,,,,
,,,,,,48680137daadec4bef69ebb7,66a626ef09d4e21e1a8894ec,6734e03a62302425b1db7e20,2024-11-13_11h22.42.826,Tarea de género gramatical,2024.2.2,MacIntel,60.97560976,,,,,,,,,,,,,,,,,,,,,,,532.2945,533.3605,a,1,0.383,,[],[],[],[],[],[],[],0.383,1,533.3607,533.8605,,,,,,788,FEM,DIS,150,abuela,el,a,533.8612,533.8618,0.296373967,-0.356801823,0,0,0,,0,213,213,337,1,,,,
,,,,,,48680137daadec4bef69ebb7,66a626ef09d4e21e1a8894ec,6734e03a62302425b1db7e20,2024-11-13_11h22.42.826,Tarea de género gramatical,2024.2.2,MacIntel,60.97560976,,,,,,,,,,,,,,,,,,,,,,,533.8623,534.9772,l,1,0.4362,,[],[],[],[],[],[],[],0.4362,1,534.9772,535.4774,,,,,,750,MAS,AGR,150,túnel,el,l,535.4775,535.4777,0.296373967,-0.356801823,0,0,0,,0,214,214,299,1,,,,
,,,,,,48680137daadec4bef69ebb7,66a626ef09d4e21e1a8894ec,6734e03a62302425b1db7e20,2024-11-13_11h22.42.826,Tarea de género gramatical,2024.2.2,MacIntel,60.97560976,,,,,,,,,,,,,,,,,,,,,,,535.4785,536.6599,a,1,0.5006,,[],[],[],[],[],[],[],0.5006,1,536.6599,537.1596,,,,,,566,FEM,DIS,150,nube,el,a,537.1596,537.1597,0.296373967,-0.356801823,0,0,0,,0,215,215,115,1,,,,
,,,,,,48680137daadec4bef69ebb7,66a626ef09d4e21e1a8894ec,6734e03a62302425b1db7e20,2024-11-13_11h22.42.826,Tarea de género gramatical,2024.2.2,MacIntel,60.97560976,,,,,,,,,,,,,,,,,,,,,,,537.1602,538.377,l,1,0.5512,,[],[],[],[],[],[],[],0.5512,1,538.3771,538.8772,,,,,,671,MAS,DIS,150,brazo,la,l,538.8772,538.8773,0.296373967,-0.356801823,0,0,0,,0,216,216,220,1,,,,
,,,,,,48680137daadec4bef69ebb7,66a626ef09d4e21e1a8894ec,6734e03a62302425b1db7e20,2024-11-13_11h22.42.826,Tarea de género gramatical,2024.2.2,MacIntel,60.97560976,,,,,,,,,,,,,,,,,,,,,,,538.8779,540.0769,l,1,0.5175,,[],[],[],[],[],[],[],0.5175,1,540.077,540.577,,,,,,534,MAS,AGR,150,mago,el,l,540.577,540.5771,0.296373967,-0.356801823,0,0,0,,0,217,217,83,1,,,,
,,,,,,48680137daadec4bef69ebb7,66a626ef09d4e21e1a8894ec,6734e03a62302425b1db7e20,2024-11-13_11h22.42.826,Tarea de género gramatical,2024.2.2,MacIntel,60.97560976,,,,,,,,,,,,,,,,,,,,,,,540.5778,541.7273,a,1,0.4644,,[],[],[],[],[],[],[],0.4644,1,541.7275,542.2265,,,,,,535,FEM,CON,150,gira,,a,542.2272,542.2277,0.296373967,-0.356801823,0,0,0,,0,218,218,84,1,,,,
,,,,,,48680137daadec4bef69ebb7,66a626ef09d4e21e1a8894ec,6734e03a62302425b1db7e20,2024-11-13_11h22.42.826,Tarea de género gramatical,2024.2.2,MacIntel,60.97560976,,,,,,,,,,,,,,,,,,,,,,,542.2282,543.3099,l,1,0.3986,,[],[],[],[],[],[],[],0.3986,1,543.31,543.8106,,,,,,726,MAS,AGR,150,ritmo,el,l,543.8106,543.8108,0.296373967,-0.356801823,0,0,0,,0,219,219,275,1,,,,
,,,,,,48680137daadec4bef69ebb7,66a626ef09d4e21e1a8894ec,6734e03a62302425b1db7e20,2024-11-13_11h22.42.826,Tarea de género gramatical,2024.2.2,MacIntel,60.97560976,,,,,,,,,,,,,,,,,,,,,,,543.8114,544.9273,a,1,0.4339,,[],[],[],[],[],[],[],0.4339,1,544.9274,545.4265,,,,,,831,FEM,AGR,150,bebida,la,a,545.4265,545.4266,0.296373967,-0.356801823,0,0,0,,0,220,220,380,1,,,,
,,,,,,48680137daadec4bef69ebb7,66a626ef09d4e21e1a8894ec,6734e03a62302425b1db7e20,2024-11-13_11h22.42.826,Tarea de género gramatical,2024.2.2,MacIntel,60.97560976,,,,,,,,,,,,,,,,,,,,,,,545.4272,546.5271,l,1,0.435,,[],[],[],[],[],[],[],0.435,1,546.5272,547.0266,,,,,,845,MAS,DIS,150,correo,la,l,547.0266,547.0267,0.296373967,-0.356801823,0,0,0,,0,221,221,394,1,,,,
,,,,,,48680137daadec4bef69ebb7,66a626ef09d4e21e1a8894ec,6734e03a62302425b1db7e20,2024-11-13_11h22.42.826,Tarea de género gramatical,2024.2.2,MacIntel,60.97560976,,,,,,,,,,,,,,,,,,,,,,,547.0275,548.1437,a,1,0.4496,,[],[],[],[],[],[],[],0.4496,1,548.1438,548.6439,,,,,,873,FEM,AGR,150,poesía,la,a,548.6448,548.6455,0.296373967,-0.356801823,0,0,0,,0,222,222,422,1,,,,
,,,,,,48680137daadec4bef69ebb7,66a626ef09d4e21e1a8894ec,6734e03a62302425b1db7e20,2024-11-13_11h22.42.826,Tarea de género gramatical,2024.2.2,MacIntel,60.97560976,,,,,,,,,,,,,,,,,,,,,,,548.6461,549.9097,a,1,0.5812,,[],[],[],[],[],[],[],0.5812,1,549.9097,550.4096,,,,,,813,FEM,AGR,150,unidad,la,a,550.4098,550.4098,0.296373967,-0.356801823,0,0,0,,0,223,223,362,1,,,,
,,,,,,48680137daadec4bef69ebb7,66a626ef09d4e21e1a8894ec,6734e03a62302425b1db7e20,2024-11-13_11h22.42.826,Tarea de género gramatical,2024.2.2,MacIntel,60.97560976,,,,,,,,,,,,,,,,,,,,,,,550.4104,551.4764,a,1,0.4017,,[],[],[],[],[],[],[],0.4017,1,551.4764,551.9774,,,,,,867,FEM,AGR,150,cabaña,la,a,551.9774,551.9775,0.296373967,-0.356801823,0,0,0,,0,224,224,416,1,,,,
,,,,,,48680137daadec4bef69ebb7,66a626ef09d4e21e1a8894ec,6734e03a62302425b1db7e20,2024-11-13_11h22.42.826,Tarea de género gramatical,2024.2.2,MacIntel,60.97560976,,,,,,,,,,,,,,,,,,,,,,,551.9782,553.0774,l,1,0.4165,,[],[],[],[],[],[],[],0.4165,1,553.0774,553.5774,,,,,,522,MAS,AGR,150,hoyo,el,l,553.5774,553.5775,0.296373967,-0.356801823,0,0,0,,0,225,225,71,1,,,,
,,,,,,48680137daadec4bef69ebb7,66a626ef09d4e21e1a8894ec,6734e03a62302425b1db7e20,2024-11-13_11h22.42.826,Tarea de género gramatical,2024.2.2,MacIntel,60.97560976,,,,,,,,,,,,,,,,,,,,,,,553.5781,554.8101,l,1,0.551,,[],[],[],[],[],[],[],0.551,1,554.8102,555.3111,,,,,,748,MAS,CON,150,botón,,l,555.3112,555.3112,0.296373967,-0.356801823,0,0,0,,0,226,226,297,1,,,,
,,,,,,48680137daadec4bef69ebb7,66a626ef09d4e21e1a8894ec,6734e03a62302425b1db7e20,2024-11-13_11h22.42.826,Tarea de género gramatical,2024.2.2,MacIntel,60.97560976,,,,,,,,,,,,,,,,,,,,,,,555.3122,556.4607,a,1,0.4641,,[],[],[],[],[],[],[],0.4641,1,556.4607,556.9608,,,,,,705,FEM,AGR,150,tribu,la,a,556.9617,556.9622,0.296373967,-0.356801823,0,0,0,,0,227,227,254,1,,,,
,,,,,,48680137daadec4bef69ebb7,66a626ef09d4e21e1a8894ec,6734e03a62302425b1db7e20,2024-11-13_11h22.42.826,Tarea de género gramatical,2024.2.2,MacIntel,60.97560976,,,,,,,,,,,,,,,,,,,,,,,556.9627,558.0774,l,1,0.4321,,[],[],[],[],[],[],[],0.4321,1,558.0774,558.5772,,,,,,622,MAS,CON,150,poder,,l,558.5772,558.5773,0.296373967,-0.356801823,0,0,0,,0,228,228,171,1,,,,
,,,,,,48680137daadec4bef69ebb7,66a626ef09d4e21e1a8894ec,6734e03a62302425b1db7e20,2024-11-13_11h22.42.826,Tarea de género gramatical,2024.2.2,MacIntel,60.97560976,,,,,,,,,,,,,,,,,,,,,,,558.5781,559.8265,a,1,0.565,,[],[],[],[],[],[],[],0.565,1,559.8265,560.3274,,,,,,776,FEM,DIS,150,música,el,a,560.3275,560.3275,0.296373967,-0.356801823,0,0,0,,0,229,229,325,1,,,,
,,,,,,48680137daadec4bef69ebb7,66a626ef09d4e21e1a8894ec,6734e03a62302425b1db7e20,2024-11-13_11h22.42.826,Tarea de género gramatical,2024.2.2,MacIntel,60.97560976,,,,,,,,,,,,,,,,,,,,,,,560.3282,561.4607,l,1,0.4513,,[],[],[],[],[],[],[],0.4513,1,561.4608,561.9597,,,,,,678,MAS,AGR,150,nivel,el,l,561.9597,561.9598,0.296373967,-0.356801823,0,0,0,,0,230,230,227,1,,,,
,,,,,,48680137daadec4bef69ebb7,66a626ef09d4e21e1a8894ec,6734e03a62302425b1db7e20,2024-11-13_11h22.42.826,Tarea de género gramatical,2024.2.2,MacIntel,60.97560976,,,,,,,,,,,,,,,,,,,,,,,561.9604,563.0774,l,0,0.4492,,[],[],[],[],[],[],[],0.4492,0,563.078,563.5775,,,,,,697,FEM,CON,150,frase,,a,563.5783,563.5789,0.296373967,-0.356801823,0,0,0,,0,231,231,246,1,,,,
,,,,,,48680137daadec4bef69ebb7,66a626ef09d4e21e1a8894ec,6734e03a62302425b1db7e20,2024-11-13_11h22.42.826,Tarea de género gramatical,2024.2.2,MacIntel,60.97560976,,,,,,,,,,,,,,,,,,,,,,,563.5793,564.7774,l,1,0.5174,,[],[],[],[],[],[],[],0.5174,1,564.778,565.2773,,,,,,556,MAS,CON,150,test,,l,565.2773,565.2774,0.296373967,-0.356801823,0,0,0,,0,232,232,105,1,,,,
,,,,,,48680137daadec4bef69ebb7,66a626ef09d4e21e1a8894ec,6734e03a62302425b1db7e20,2024-11-13_11h22.42.826,Tarea de género gramatical,2024.2.2,MacIntel,60.97560976,,,,,,,,,,,,,,,,,,,,,,,565.2781,566.5104,a,1,0.5492,,[],[],[],[],[],[],[],0.5492,1,566.5105,567.0098,,,,,,681,FEM,AGR,150,bruja,la,a,567.0098,567.0099,0.296373967,-0.356801823,0,0,0,,0,233,233,230,1,,,,
,,,,,,48680137daadec4bef69ebb7,66a626ef09d4e21e1a8894ec,6734e03a62302425b1db7e20,2024-11-13_11h22.42.826,Tarea de género gramatical,2024.2.2,MacIntel,60.97560976,,,,,,,,,,,,,,,,,,,,,,,567.0105,568.1608,l,1,0.4825,,[],[],[],[],[],[],[],0.4825,1,568.1608,568.6609,,,,,,460,MAS,CON,150,niño,,l,568.6609,568.6609,0.296373967,-0.356801823,0,0,0,,0,234,234,9,1,,,,
,,,,,,48680137daadec4bef69ebb7,66a626ef09d4e21e1a8894ec,6734e03a62302425b1db7e20,2024-11-13_11h22.42.826,Tarea de género gramatical,2024.2.2,MacIntel,60.97560976,,,,,,,,,,,,,,,,,,,,,,,568.6617,569.9274,l,1,0.5853,,[],[],[],[],[],[],[],0.5853,1,569.9275,570.4267,,,,,,635,MAS,DIS,150,sueño,la,l,570.4268,570.4269,0.296373967,-0.356801823,0,0,0,,0,235,235,184,1,,,,
,,,,,,48680137daadec4bef69ebb7,66a626ef09d4e21e1a8894ec,6734e03a62302425b1db7e20,2024-11-13_11h22.42.826,Tarea de género gramatical,2024.2.2,MacIntel,60.97560976,,,,,,,,,,,,,,,,,,,,,,,570.4274,571.6103,a,1,0.5146,,[],[],[],[],[],[],[],0.5146,1,571.6104,572.1108,,,,,,547,FEM,CON,150,capa,,a,572.1118,572.1123,0.296373967,-0.356801823,0,0,0,,0,236,236,96,1,,,,
,,,,,,48680137daadec4bef69ebb7,66a626ef09d4e21e1a8894ec,6734e03a62302425b1db7e20,2024-11-13_11h22.42.826,Tarea de género gramatical,2024.2.2,MacIntel,60.97560976,,,,,,,,,,,,,,,,,,,,,,,572.1128,573.2266,l,1,0.4348,,[],[],[],[],[],[],[],0.4348,1,573.2267,573.7271,,,,,,814,MAS,CON,150,viento,,l,573.7271,573.7272,0.296373967,-0.356801823,0,0,0,,0,237,237,363,1,,,,
,,,,,,48680137daadec4bef69ebb7,66a626ef09d4e21e1a8894ec,6734e03a62302425b1db7e20,2024-11-13_11h22.42.826,Tarea de género gramatical,2024.2.2,MacIntel,60.97560976,,,,,,,,,,,,,,,,,,,,,,,573.7277,575.1598,a,1,0.7498,,[],[],[],[],[],[],[],0.7498,1,575.16,575.6609,,,,,,735,FEM,AGR,150,mafia,la,a,575.6609,575.661,0.296373967,-0.356801823,0,0,0,,0,238,238,284,1,,,,
,,,,,,48680137daadec4bef69ebb7,66a626ef09d4e21e1a8894ec,6734e03a62302425b1db7e20,2024-11-13_11h22.42.826,Tarea de género gramatical,2024.2.2,MacIntel,60.97560976,,,,,,,,,,,,,,,,,,,,,,,575.6618,577.0932,a,1,0.7505,,[],[],[],[],[],[],[],0.7505,1,577.0932,577.5944,,,,,,710,FEM,DIS,150,barra,el,a,577.5944,577.5946,0.296373967,-0.356801823,0,0,0,,0,239,239,259,1,,,,
,,,,,,48680137daadec4bef69ebb7,66a626ef09d4e21e1a8894ec,6734e03a62302425b1db7e20,2024-11-13_11h22.42.826,Tarea de género gramatical,2024.2.2,MacIntel,60.97560976,,,,,,,,,,,,,,,,,,,,,,,577.5955,578.9108,a,1,0.6315,,[],[],[],[],[],[],[],0.6315,1,578.9109,579.4106,,,,,,807,FEM,AGR,150,lengua,la,a,579.4115,579.412,0.296373967,-0.356801823,0,0,0,,0,240,240,356,1,,,,
,,,,,,48680137daadec4bef69ebb7,66a626ef09d4e21e1a8894ec,6734e03a62302425b1db7e20,2024-11-13_11h22.42.826,Tarea de género gramatical,2024.2.2,MacIntel,60.97560976,,,,,,,,,,,,,,,,,,,,,,,579.4125,580.5273,l,1,0.43,,[],[],[],[],[],[],[],0.43,1,580.5273,581.0267,,,,,,484,MAS,CON,150,gato,,l,581.0267,581.0268,0.296373967,-0.356801823,0,0,0,,0,241,241,33,1,,,,
,,,,,,48680137daadec4bef69ebb7,66a626ef09d4e21e1a8894ec,6734e03a62302425b1db7e20,2024-11-13_11h22.42.826,Tarea de género gramatical,2024.2.2,MacIntel,60.97560976,,,,,,,,,,,,,,,,,,,,,,,581.0273,582.2599,l,1,0.5507,,[],[],[],[],[],[],[],0.5507,1,582.26,582.76,,,,,,611,MAS,DIS,150,chico,la,l,582.76,582.7601,0.296373967,-0.356801823,0,0,0,,0,242,242,160,1,,,,
,,,,,,48680137daadec4bef69ebb7,66a626ef09d4e21e1a8894ec,6734e03a62302425b1db7e20,2024-11-13_11h22.42.826,Tarea de género gramatical,2024.2.2,MacIntel,60.97560976,,,,,,,,,,,,,,,,,,,,,,,582.7607,583.8434,l,1,0.416,,[],[],[],[],[],[],[],0.416,1,583.8434,584.3439,,,,,,700,MAS,CON,150,cerdo,,l,584.3439,584.344,0.296373967,-0.356801823,0,0,0,,0,243,243,249,1,,,,
,,,,,,48680137daadec4bef69ebb7,66a626ef09d4e21e1a8894ec,6734e03a62302425b1db7e20,2024-11-13_11h22.42.826,Tarea de género gramatical,2024.2.2,MacIntel,60.97560976,,,,,,,,,,,,,,,,,,,,,,,584.3446,585.3603,l,1,0.3347,,[],[],[],[],[],[],[],0.3347,1,585.3604,585.8612,,,,,,838,MAS,CON,150,empleo,,l,585.8613,585.8614,0.296373967,-0.356801823,0,0,0,,0,244,244,387,1,,,,
,,,,,,48680137daadec4bef69ebb7,66a626ef09d4e21e1a8894ec,6734e03a62302425b1db7e20,2024-11-13_11h22.42.826,Tarea de género gramatical,2024.2.2,MacIntel,60.97560976,,,,,,,,,,,,,,,,,,,,,,,585.8623,586.8101,l,1,0.2657,,[],[],[],[],[],[],[],0.2657,1,586.8103,587.3111,,,,,,508,MAS,CON,150,mono,,l,587.3121,587.3126,0.296373967,-0.356801823,0,0,0,,0,245,245,57,1,,,,
,,,,,,48680137daadec4bef69ebb7,66a626ef09d4e21e1a8894ec,6734e03a62302425b1db7e20,2024-11-13_11h22.42.826,Tarea de género gramatical,2024.2.2,MacIntel,60.97560976,,,,,,,,,,,,,,,,,,,,,,,587.3131,588.3774,a,1,0.3799,,[],[],[],[],[],[],[],0.3799,1,588.3776,588.8774,,,,,,723,FEM,AGR,150,tarta,la,a,588.8774,588.8775,0.296373967,-0.356801823,0,0,0,,0,246,246,272,1,,,,
,,,,,,48680137daadec4bef69ebb7,66a626ef09d4e21e1a8894ec,6734e03a62302425b1db7e20,2024-11-13_11h22.42.826,Tarea de género gramatical,2024.2.2,MacIntel,60.97560976,,,,,,,,,,,,,,,,,,,,,,,588.8783,589.9934,l,1,0.4345,,[],[],[],[],[],[],[],0.4345,1,589.9935,590.4941,,,,,,642,MAS,AGR,150,grupo,el,l,590.4942,590.4943,0.296373967,-0.356801823,0,0,0,,0,247,247,191,1,,,,
,,,,,,48680137daadec4bef69ebb7,66a626ef09d4e21e1a8894ec,6734e03a62302425b1db7e20,2024-11-13_11h22.42.826,Tarea de género gramatical,2024.2.2,MacIntel,60.97560976,,,,,,,,,,,,,,,,,,,,,,,590.4949,591.8775,a,1,0.6992,,[],[],[],[],[],[],[],0.6992,1,591.8775,592.3765,,,,,,871,FEM,CON,150,novela,,a,592.3766,592.3766,0.296373967,-0.356801823,0,0,0,,0,248,248,420,1,,,,
,,,,,,48680137daadec4bef69ebb7,66a626ef09d4e21e1a8894ec,6734e03a62302425b1db7e20,2024-11-13_11h22.42.826,Tarea de género gramatical,2024.2.2,MacIntel,60.97560976,,,,,,,,,,,,,,,,,,,,,,,592.3772,593.4771,l,1,0.4179,,[],[],[],[],[],[],[],0.4179,1,593.4772,593.9777,,,,,,540,MAS,AGR,150,león,el,l,593.9788,593.9795,0.296373967,-0.356801823,0,0,0,,0,249,249,89,1,,,,
