counterbalancing_condition,consent_prescreening.block_1/declare_consent,consent_prescreening.block_1/age_years,consent_prescreening.block_1/gender,consent_prescreening.block_1/language_disorder,consent_prescreening.block_1/first_language,PROLIFIC_PID,STUDY_ID,SESSION_ID,date,expName,psychopyVersion,OS,frameRate,check_prescreening_answers.started,check_prescreening_answers.stopped,Instructions.started,Instructions.stopped,instr_done_keyboard.keys,instr_done_keyboard.rt,instr_done_keyboard.duration,instr_done_touch.x,instr_done_touch.y,instr_done_touch.leftButton,instr_done_touch.midButton,instr_done_touch.rightButton,instruction_pages.thisRepN,instruction_pages.thisTrialN,instruction_pages.thisN,instruction_pages.thisIndex,instruction_pages.ran,pageN,phase,instruct_text,has_image,instruct_image,presentTrial.started,presentTrial.stopped,response.keys,response.corr,response.rt,response.duration,touch_resp.x,touch_resp.y,touch_resp.leftButton,touch_resp.midButton,touch_resp.rightButton,touch_resp.time,touch_resp.clicked_name,rt,corr,feedback.started,feedback.stopped,practice_trials.thisRepN,practice_trials.thisTrialN,practice_trials.thisN,practice_trials.thisIndex,practice_trials.ran,TrialID,StimulusType,Condition,PrimeDuration,Prime,Flanker,corrAns,Break.started,Break.stopped,break_done_touch.x,break_done_touch.y,break_done_touch.leftButton,break_done_touch.midButton,break_done_touch.rightButton,break_done_keyboard.keys,experiment_trials.thisRepN,experiment_trials.thisTrialN,experiment_trials.thisN,experiment_trials.thisIndex,experiment_trials.ran,break_done_keyboard.rt,break_done_keyboard.duration,End.started,End.stopped
0,"[""over_18"",""comfortable"",""read_info"",""consent_given""]",18,M,"[""none""]","[""spanish""]",4a0ba20ae1f363a011832cce,66a626ef09d4e21e1a8894ec,6734d6999015dcf6c8e0fb59,2024-11-13_17h53.25.246,Tarea de género gramatical,2024.2.2,Win32,119.047619,,,,,,,,,,,,,,,,,,,,,,,,,,,,,,,,,,,,,,,,,,,,,,,,,,,,,,,,,,,,,,,,,,,,
,,,,,,4a0ba20ae1f363a011832cce,66a626ef09d4e21e1a8894ec,6734d6999015dcf6c8e0fb59,2024-11-13_17h53.25.246,Tarea de género gramatical,2024.2.2,Win32,119.047619,65.3259,65.3261,,,,,,,,,,,,,,,,,,,,,,,,,,,,,,,,,,,,,,,,,,,,,,,,,,,,,,,,,,,,,,,,,,
,,,,,,4a0ba20ae1f363a011832cce,66a626ef09d4e21e1a8894ec,6734d6999015dcf6c8e0fb59,2024-11-13_17h53.25.246,Tarea de género gramatical,2024.2.2,Win32,119.047619,,,65.3422,75.5203,space,10.1471,,-0.1296875,-0.096875,0,0,0,0,0,0,0,1,1,instructions,"INSTRUCCIONES
Va a realizar una prueba de selección gramatical. Desde el comienzo de la prueba mire siempre al centro de la pantalla. Al cabo de un momento, aparecerán palabras. La tarea consiste en determinar si la palabra del centro (siempre será un sustantivo), pertenece al género masculino o femenino.

Pulse la tecla ESPACIO o toque el botón de abajo para continuar.",0,keyboardresponseFM.png,,,,,,,,,,,,,,,,,,,,,,,,,,,,,,,,,,,,,,,,,,,,,,
,,,,,,4a0ba20ae1f363a011832cce,66a626ef09d4e21e1a8894ec,6734d6999015dcf6c8e0fb59,2024-11-13_17h53.25.246,Tarea de género gramatical,2024.2.2,Win32,119.047619,,,75.5238,86.1443,space,10.5748,,-0.1296875,-0.096875,0,0,0,0,1,1,1,1,2,instructions,"Si su dispositivo tiene teclado, pulse la tecla ""A"" para las palabras en femenino (por ejemplo: ""mano"") y la tecla ""L"" para las palabras en masculino(por ejemplo: ""arroz"").
Pulse la tecla ESPACIO o toque el botón de abajo para continuar.",1,keyboardresponseFM.png,,,,,,,,,,,,,,,,,,,,,,,,,,,,,,,,,,,,,,,,,,,,,,
,,,,,,4a0ba20ae1f363a011832cce,66a626ef09d4e21e1a8894ec,6734d6999015dcf6c8e0fb59,2024-11-13_17h53.25.246,Tarea de género gramatical,2024.2.2,Win32,119.047619,,,86.1476,93.0097,space,6.8233,,-0.1296875,-0.096875,0,0,0,0,2,2,2,1,3,instructions,"Si utiliza un dispositivo sólo táctil, colóquelo en horizontal y utilice los botones de la pantalla. No utilice el ratón.
Pulse la tecla ESPACIO o toque el botón de abajo para continuar.",2,touchresponseFM.png,,,,,,,,,,,,,,,,,,,,,,,,,,,,,,,,,,,,,,,,,,,,,,
,,,,,,4a0ba20ae1f363a011832cce,66a626ef09d4e21e1a8894ec,6734d6999015dcf6c8e0fb59,2024-11-13_17h53.25.246,Tarea de género gramatical,2024.2.2,Win32,119.047619,,,93.0139,105.177,space,12.1474,,-0.1296875,-0.096875,0,0,0,0,3,3,3,1,4,instructions,"Es muy importante que responda con la mayor rapidez y precisión posibles, ya que cada cadena de letras sólo estará en pantalla durante un instante. Si no responde en ese tiempo, aparecerá el mensaje ""Muy lento"" y el experimento pasará a la siguiente palabra. Los primeros 15 intentos serán de práctica y habrá dos descansos durante la prueba.
Pulse la tecla ESPACIO o toque el botón de abajo para iniciar la parte de práctica.",0,keyboardresponseFM.png,,,,,,,,,,,,,,,,,,,,,,,,,,,,,,,,,,,,,,,,,,,,,,
,,,,,,4a0ba20ae1f363a011832cce,66a626ef09d4e21e1a8894ec,6734d6999015dcf6c8e0fb59,2024-11-13_17h53.25.246,Tarea de género gramatical,2024.2.2,Win32,119.047619,,,,,,,,,,,,,,,,,,,,,,,105.189,106.7518,a,0,0.8991,,[],[],[],[],[],[],[],0.8991,0,106.7522,107.2504,0,0,0,11,1,2012,MAS,DIS,150,clima,la,l,,,,,,,,,,,,,,,,,
,,,,,,4a0ba20ae1f363a011832cce,66a626ef09d4e21e1a8894ec,6734d6999015dcf6c8e0fb59,2024-11-13_17h53.25.246,Tarea de género gramatical,2024.2.2,Win32,119.047619,,,,,,,,,,,,,,,,,,,,,,,107.2534,108.3202,l,1,0.4043,,[],[],[],[],[],[],[],0.4043,1,108.3217,108.8149,0,1,1,13,1,2014,MAS,CON,150,siglo,,l,,,,,,,,,,,,,,,,,
,,,,,,4a0ba20ae1f363a011832cce,66a626ef09d4e21e1a8894ec,6734d6999015dcf6c8e0fb59,2024-11-13_17h53.25.246,Tarea de género gramatical,2024.2.2,Win32,119.047619,,,,,,,,,,,,,,,,,,,,,,,108.8163,109.9996,l,0,0.5194,,[],[],[],[],[],[],[],0.5194,0,110.0009,110.4993,0,2,2,0,1,2001,FEM,AGR,150,nuca,la,a,,,,,,,,,,,,,,,,,
,,,,,,4a0ba20ae1f363a011832cce,66a626ef09d4e21e1a8894ec,6734d6999015dcf6c8e0fb59,2024-11-13_17h53.25.246,Tarea de género gramatical,2024.2.2,Win32,119.047619,,,,,,,,,,,,,,,,,,,,,,,110.5008,111.6393,l,1,0.474,,[],[],[],[],[],[],[],0.474,1,111.6406,112.1463,0,3,3,10,1,2011,MAS,CON,150,canal,,l,,,,,,,,,,,,,,,,,
,,,,,,4a0ba20ae1f363a011832cce,66a626ef09d4e21e1a8894ec,6734d6999015dcf6c8e0fb59,2024-11-13_17h53.25.246,Tarea de género gramatical,2024.2.2,Win32,119.047619,,,,,,,,,,,,,,,,,,,,,,,112.1485,113.1409,l,0,0.314,,[],[],[],[],[],[],[],0.314,0,113.1421,113.6397,0,4,4,7,1,2008,FEM,CON,150,siesta,,a,,,,,,,,,,,,,,,,,
,,,,,,4a0ba20ae1f363a011832cce,66a626ef09d4e21e1a8894ec,6734d6999015dcf6c8e0fb59,2024-11-13_17h53.25.246,Tarea de género gramatical,2024.2.2,Win32,119.047619,,,,,,,,,,,,,,,,,,,,,,,113.6423,116.2816,,0,,,[],[],[],[],[],[],[],0.314,-1,116.2836,116.7906,0,5,5,2,1,2003,FEM,DIS,150,daga,el,a,,,,,,,,,,,,,,,,,
,,,,,,4a0ba20ae1f363a011832cce,66a626ef09d4e21e1a8894ec,6734d6999015dcf6c8e0fb59,2024-11-13_17h53.25.246,Tarea de género gramatical,2024.2.2,Win32,119.047619,,,,,,,,,,,,,,,,,,,,,,,116.793,117.8836,a,1,0.4186,,[],[],[],[],[],[],[],0.4186,1,117.8846,118.3917,0,6,6,1,1,2002,FEM,CON,150,pala,,a,,,,,,,,,,,,,,,,,
,,,,,,4a0ba20ae1f363a011832cce,66a626ef09d4e21e1a8894ec,6734d6999015dcf6c8e0fb59,2024-11-13_17h53.25.246,Tarea de género gramatical,2024.2.2,Win32,119.047619,,,,,,,,,,,,,,,,,,,,,,,118.3933,119.5431,a,1,0.4702,,[],[],[],[],[],[],[],0.4702,1,119.5433,120.0409,0,7,7,4,1,2005,FEM,CON,150,placa,,a,,,,,,,,,,,,,,,,,
,,,,,,4a0ba20ae1f363a011832cce,66a626ef09d4e21e1a8894ec,6734d6999015dcf6c8e0fb59,2024-11-13_17h53.25.246,Tarea de género gramatical,2024.2.2,Win32,119.047619,,,,,,,,,,,,,,,,,,,,,,,120.0436,121.1872,a,1,0.4703,,[],[],[],[],[],[],[],0.4703,1,121.1873,121.6989,0,8,8,3,1,2004,FEM,AGR,150,venta,la,a,,,,,,,,,,,,,,,,,
,,,,,,4a0ba20ae1f363a011832cce,66a626ef09d4e21e1a8894ec,6734d6999015dcf6c8e0fb59,2024-11-13_17h53.25.246,Tarea de género gramatical,2024.2.2,Win32,119.047619,,,,,,,,,,,,,,,,,,,,,,,121.7008,122.8888,l,1,0.5244,,[],[],[],[],[],[],[],0.5244,1,122.8889,123.3853,0,9,9,9,1,2010,MAS,AGR,150,vecino,el,l,,,,,,,,,,,,,,,,,
,,,,,,4a0ba20ae1f363a011832cce,66a626ef09d4e21e1a8894ec,6734d6999015dcf6c8e0fb59,2024-11-13_17h53.25.246,Tarea de género gramatical,2024.2.2,Win32,119.047619,,,,,,,,,,,,,,,,,,,,,,,123.3872,124.5274,a,1,0.4711,,[],[],[],[],[],[],[],0.4711,1,124.5276,125.0188,0,10,10,6,1,2007,FEM,AGR,150,navaja,la,a,,,,,,,,,,,,,,,,,
,,,,,,4a0ba20ae1f363a011832cce,66a626ef09d4e21e1a8894ec,6734d6999015dcf6c8e0fb59,2024-11-13_17h53.25.246,Tarea de género gramatical,2024.2.2,Win32,119.047619,,,,,,,,,,,,,,,,,,,,,,,125.0213,126.1494,l,1,0.4668,,[],[],[],[],[],[],[],0.4668,1,126.1496,126.6449,0,11,11,14,1,2015,MAS,DIS,150,robot,la,l,,,,,,,,,,,,,,,,,
,,,,,,4a0ba20ae1f363a011832cce,66a626ef09d4e21e1a8894ec,6734d6999015dcf6c8e0fb59,2024-11-13_17h53.25.246,Tarea de género gramatical,2024.2.2,Win32,119.047619,,,,,,,,,,,,,,,,,,,,,,,126.6466,127.8664,a,1,0.5574,,[],[],[],[],[],[],[],0.5574,1,127.8666,128.3565,0,12,12,5,1,2006,FEM,DIS,150,serie,el,a,,,,,,,,,,,,,,,,,
,,,,,,4a0ba20ae1f363a011832cce,66a626ef09d4e21e1a8894ec,6734d6999015dcf6c8e0fb59,2024-11-13_17h53.25.246,Tarea de género gramatical,2024.2.2,Win32,119.047619,,,,,,,,,,,,,,,,,,,,,,,128.3582,129.4226,l,1,0.4012,,[],[],[],[],[],[],[],0.4012,1,129.4227,129.9168,0,13,13,12,1,2013,MAS,AGR,150,acero,el,l,,,,,,,,,,,,,,,,,
,,,,,,4a0ba20ae1f363a011832cce,66a626ef09d4e21e1a8894ec,6734d6999015dcf6c8e0fb59,2024-11-13_17h53.25.246,Tarea de género gramatical,2024.2.2,Win32,119.047619,,,,,,,,,,,,,,,,,,,,,,,129.918,130.9701,l,1,0.3879,,[],[],[],[],[],[],[],0.3879,1,130.9702,131.4692,0,14,14,8,1,2009,MAS,DIS,150,puerto,la,l,,,,,,,,,,,,,,,,,
,,,,,,4a0ba20ae1f363a011832cce,66a626ef09d4e21e1a8894ec,6734d6999015dcf6c8e0fb59,2024-11-13_17h53.25.246,Tarea de género gramatical,2024.2.2,Win32,119.047619,,,134.9686,143.9186,space,8.9377,,-0.1296875,-0.096875,0,0,0,,,,,,,,,,,143.9441,144.9913,l,1,0.3796,,[],[],[],[],[],[],[],0.3796,1,144.9915,145.4988,,,,,,341,MAS,CON,150,precio,,l,145.4995,145.5061,-0.1296875,-0.096875,0,0,0,,0,0,0,340,1,,,,
,,,,,,4a0ba20ae1f363a011832cce,66a626ef09d4e21e1a8894ec,6734d6999015dcf6c8e0fb59,2024-11-13_17h53.25.246,Tarea de género gramatical,2024.2.2,Win32,119.047619,,,,,,,,,,,,,,,,,,,,,,,145.5071,146.5409,a,1,0.368,,[],[],[],[],[],[],[],0.368,1,146.541,147.0482,,,,,,45,FEM,DIS,150,isla,el,a,147.0484,147.0485,-0.1296875,-0.096875,0,0,0,,0,1,1,44,1,,,,
,,,,,,4a0ba20ae1f363a011832cce,66a626ef09d4e21e1a8894ec,6734d6999015dcf6c8e0fb59,2024-11-13_17h53.25.246,Tarea de género gramatical,2024.2.2,Win32,119.047619,,,,,,,,,,,,,,,,,,,,,,,147.0506,148.4244,l,0,0.7051,,[],[],[],[],[],[],[],0.7051,0,148.4257,148.92,,,,,,99,FEM,DIS,150,fase,el,a,148.922,148.923,-0.1296875,-0.096875,0,0,0,,0,2,2,98,1,,,,
,,,,,,4a0ba20ae1f363a011832cce,66a626ef09d4e21e1a8894ec,6734d6999015dcf6c8e0fb59,2024-11-13_17h53.25.246,Tarea de género gramatical,2024.2.2,Win32,119.047619,,,,,,,,,,,,,,,,,,,,,,,148.9238,150.1535,a,1,0.5644,,[],[],[],[],[],[],[],0.5644,1,150.1542,150.657,,,,,,133,FEM,AGR,150,joya,la,a,150.6572,150.6573,-0.1296875,-0.096875,0,0,0,,0,3,3,132,1,,,,
,,,,,,4a0ba20ae1f363a011832cce,66a626ef09d4e21e1a8894ec,6734d6999015dcf6c8e0fb59,2024-11-13_17h53.25.246,Tarea de género gramatical,2024.2.2,Win32,119.047619,,,,,,,,,,,,,,,,,,,,,,,150.6593,151.9148,l,1,0.5899,,[],[],[],[],[],[],[],0.5899,1,151.9149,152.4163,,,,,,214,MAS,AGR,150,fondo,el,l,152.4165,152.4166,-0.1296875,-0.096875,0,0,0,,0,4,4,213,1,,,,
,,,,,,4a0ba20ae1f363a011832cce,66a626ef09d4e21e1a8894ec,6734d6999015dcf6c8e0fb59,2024-11-13_17h53.25.246,Tarea de género gramatical,2024.2.2,Win32,119.047619,,,,,,,,,,,,,,,,,,,,,,,152.4189,153.9405,a,0,0.851,,[],[],[],[],[],[],[],0.851,0,153.9419,154.4325,,,,,,202,MAS,AGR,150,honor,el,l,154.4326,154.4329,-0.1296875,-0.096875,0,0,0,,0,5,5,201,1,,,,
,,,,,,4a0ba20ae1f363a011832cce,66a626ef09d4e21e1a8894ec,6734d6999015dcf6c8e0fb59,2024-11-13_17h53.25.246,Tarea de género gramatical,2024.2.2,Win32,119.047619,,,,,,,,,,,,,,,,,,,,,,,154.4346,155.537,l,1,0.4282,,[],[],[],[],[],[],[],0.4282,1,155.5382,156.0343,,,,,,306,MAS,DIS,150,dinero,la,l,156.0358,156.0364,-0.1296875,-0.096875,0,0,0,,0,6,6,305,1,,,,
,,,,,,4a0ba20ae1f363a011832cce,66a626ef09d4e21e1a8894ec,6734d6999015dcf6c8e0fb59,2024-11-13_17h53.25.246,Tarea de género gramatical,2024.2.2,Win32,119.047619,,,,,,,,,,,,,,,,,,,,,,,156.037,157.1114,a,1,0.4141,,[],[],[],[],[],[],[],0.4141,1,157.1115,157.6058,,,,,,26,FEM,CON,150,pena,,a,157.606,157.6061,-0.1296875,-0.096875,0,0,0,,0,7,7,25,1,,,,
,,,,,,4a0ba20ae1f363a011832cce,66a626ef09d4e21e1a8894ec,6734d6999015dcf6c8e0fb59,2024-11-13_17h53.25.246,Tarea de género gramatical,2024.2.2,Win32,119.047619,,,,,,,,,,,,,,,,,,,,,,,157.6075,158.705,a,1,0.4317,,[],[],[],[],[],[],[],0.4317,1,158.7052,159.1986,,,,,,170,FEM,CON,150,carta,,a,159.1987,159.199,-0.1296875,-0.096875,0,0,0,,0,8,8,169,1,,,,
,,,,,,4a0ba20ae1f363a011832cce,66a626ef09d4e21e1a8894ec,6734d6999015dcf6c8e0fb59,2024-11-13_17h53.25.246,Tarea de género gramatical,2024.2.2,Win32,119.047619,,,,,,,,,,,,,,,,,,,,,,,159.2006,160.3308,a,1,0.458,,[],[],[],[],[],[],[],0.458,1,160.331,160.821,,,,,,333,FEM,DIS,150,locura,el,a,160.8211,160.8215,-0.1296875,-0.096875,0,0,0,,0,9,9,332,1,,,,
,,,,,,4a0ba20ae1f363a011832cce,66a626ef09d4e21e1a8894ec,6734d6999015dcf6c8e0fb59,2024-11-13_17h53.25.246,Tarea de género gramatical,2024.2.2,Win32,119.047619,,,,,,,,,,,,,,,,,,,,,,,160.8234,161.8405,l,0,0.3565,,[],[],[],[],[],[],[],0.3565,0,161.8417,162.3486,,,,,,8,FEM,CON,150,idea,,a,162.3487,162.3489,-0.1296875,-0.096875,0,0,0,,0,10,10,7,1,,,,
,,,,,,4a0ba20ae1f363a011832cce,66a626ef09d4e21e1a8894ec,6734d6999015dcf6c8e0fb59,2024-11-13_17h53.25.246,Tarea de género gramatical,2024.2.2,Win32,119.047619,,,,,,,,,,,,,,,,,,,,,,,162.3512,163.5311,l,1,0.5084,,[],[],[],[],[],[],[],0.5084,1,163.5324,164.023,,,,,,29,MAS,CON,150,frío,,l,164.0256,164.0266,-0.1296875,-0.096875,0,0,0,,0,11,11,28,1,,,,
,,,,,,4a0ba20ae1f363a011832cce,66a626ef09d4e21e1a8894ec,6734d6999015dcf6c8e0fb59,2024-11-13_17h53.25.246,Tarea de género gramatical,2024.2.2,Win32,119.047619,,,,,,,,,,,,,,,,,,,,,,,164.0274,165.49,a,1,0.7881,,[],[],[],[],[],[],[],0.7881,1,165.4902,165.997,,,,,,410,FEM,CON,150,piedad,,a,165.9971,165.9971,-0.1296875,-0.096875,0,0,0,,0,12,12,409,1,,,,
,,,,,,4a0ba20ae1f363a011832cce,66a626ef09d4e21e1a8894ec,6734d6999015dcf6c8e0fb59,2024-11-13_17h53.25.246,Tarea de género gramatical,2024.2.2,Win32,119.047619,,,,,,,,,,,,,,,,,,,,,,,165.998,167.0657,a,1,0.3978,,[],[],[],[],[],[],[],0.3978,1,167.0658,167.5612,,,,,,153,FEM,DIS,150,mujer,el,a,167.5613,167.5614,-0.1296875,-0.096875,0,0,0,,0,13,13,152,1,,,,
,,,,,,4a0ba20ae1f363a011832cce,66a626ef09d4e21e1a8894ec,6734d6999015dcf6c8e0fb59,2024-11-13_17h53.25.246,Tarea de género gramatical,2024.2.2,Win32,119.047619,,,,,,,,,,,,,,,,,,,,,,,167.5629,168.6317,l,1,0.3988,,[],[],[],[],[],[],[],0.3988,1,168.6319,169.1278,,,,,,449,MAS,CON,150,payaso,,l,169.1279,169.128,-0.1296875,-0.096875,0,0,0,,0,14,14,448,1,,,,
,,,,,,4a0ba20ae1f363a011832cce,66a626ef09d4e21e1a8894ec,6734d6999015dcf6c8e0fb59,2024-11-13_17h53.25.246,Tarea de género gramatical,2024.2.2,Win32,119.047619,,,,,,,,,,,,,,,,,,,,,,,169.1298,170.1911,a,1,0.3933,,[],[],[],[],[],[],[],0.3933,1,170.1912,170.6782,,,,,,284,FEM,CON,150,fruta,,a,170.6809,170.6822,-0.1296875,-0.096875,0,0,0,,0,15,15,283,1,,,,
,,,,,,4a0ba20ae1f363a011832cce,66a626ef09d4e21e1a8894ec,6734d6999015dcf6c8e0fb59,2024-11-13_17h53.25.246,Tarea de género gramatical,2024.2.2,Win32,119.047619,,,,,,,,,,,,,,,,,,,,,,,170.683,171.8495,a,1,0.4945,,[],[],[],[],[],[],[],0.4945,1,171.8498,172.3541,,,,,,121,FEM,AGR,150,pila,la,a,172.3542,172.3543,-0.1296875,-0.096875,0,0,0,,0,16,16,120,1,,,,
,,,,,,4a0ba20ae1f363a011832cce,66a626ef09d4e21e1a8894ec,6734d6999015dcf6c8e0fb59,2024-11-13_17h53.25.246,Tarea de género gramatical,2024.2.2,Win32,119.047619,,,,,,,,,,,,,,,,,,,,,,,172.3562,173.373,l,1,0.3503,,[],[],[],[],[],[],[],0.3503,1,173.3732,173.8735,,,,,,28,MAS,AGR,150,club,el,l,173.8738,173.874,-0.1296875,-0.096875,0,0,0,,0,17,17,27,1,,,,
,,,,,,4a0ba20ae1f363a011832cce,66a626ef09d4e21e1a8894ec,6734d6999015dcf6c8e0fb59,2024-11-13_17h53.25.246,Tarea de género gramatical,2024.2.2,Win32,119.047619,,,,,,,,,,,,,,,,,,,,,,,173.8756,174.8909,a,1,0.3524,,[],[],[],[],[],[],[],0.3524,1,174.8911,175.3968,,,,,,321,FEM,DIS,150,comida,el,a,175.3968,175.3969,-0.1296875,-0.096875,0,0,0,,0,18,18,320,1,,,,
,,,,,,4a0ba20ae1f363a011832cce,66a626ef09d4e21e1a8894ec,6734d6999015dcf6c8e0fb59,2024-11-13_17h53.25.246,Tarea de género gramatical,2024.2.2,Win32,119.047619,,,,,,,,,,,,,,,,,,,,,,,175.3977,176.439,l,0,0.3755,,[],[],[],[],[],[],[],0.3755,0,176.4398,176.9342,,,,,,338,FEM,CON,150,abuela,,a,176.9343,176.9344,-0.1296875,-0.096875,0,0,0,,0,19,19,337,1,,,,
,,,,,,4a0ba20ae1f363a011832cce,66a626ef09d4e21e1a8894ec,6734d6999015dcf6c8e0fb59,2024-11-13_17h53.25.246,Tarea de género gramatical,2024.2.2,Win32,119.047619,,,,,,,,,,,,,,,,,,,,,,,176.9356,177.9999,a,1,0.3936,,[],[],[],[],[],[],[],0.3936,1,178.001,178.4896,,,,,,93,FEM,DIS,150,lata,el,a,178.4929,178.4942,-0.1296875,-0.096875,0,0,0,,0,20,20,92,1,,,,
,,,,,,4a0ba20ae1f363a011832cce,66a626ef09d4e21e1a8894ec,6734d6999015dcf6c8e0fb59,2024-11-13_17h53.25.246,Tarea de género gramatical,2024.2.2,Win32,119.047619,,,,,,,,,,,,,,,,,,,,,,,178.4955,179.5869,l,1,0.4188,,[],[],[],[],[],[],[],0.4188,1,179.587,180.0884,,,,,,210,MAS,DIS,150,baile,la,l,180.0884,180.0885,-0.1296875,-0.096875,0,0,0,,0,21,21,209,1,,,,
,,,,,,4a0ba20ae1f363a011832cce,66a626ef09d4e21e1a8894ec,6734d6999015dcf6c8e0fb59,2024-11-13_17h53.25.246,Tarea de género gramatical,2024.2.2,Win32,119.047619,,,,,,,,,,,,,,,,,,,,,,,180.0906,181.1258,a,1,0.3704,,[],[],[],[],[],[],[],0.3704,1,181.1259,181.6206,,,,,,39,FEM,DIS,150,luna,el,a,181.6206,181.6206,-0.1296875,-0.096875,0,0,0,,0,22,22,38,1,,,,
,,,,,,4a0ba20ae1f363a011832cce,66a626ef09d4e21e1a8894ec,6734d6999015dcf6c8e0fb59,2024-11-13_17h53.25.246,Tarea de género gramatical,2024.2.2,Win32,119.047619,,,,,,,,,,,,,,,,,,,,,,,181.6218,182.8039,l,0,0.5222,,[],[],[],[],[],[],[],0.5222,0,182.8051,183.3066,,,,,,195,FEM,DIS,150,pared,el,a,183.3067,183.3068,-0.1296875,-0.096875,0,0,0,,0,23,23,194,1,,,,
,,,,,,4a0ba20ae1f363a011832cce,66a626ef09d4e21e1a8894ec,6734d6999015dcf6c8e0fb59,2024-11-13_17h53.25.246,Tarea de género gramatical,2024.2.2,Win32,119.047619,,,,,,,,,,,,,,,,,,,,,,,183.3087,184.7664,l,0,0.7896,,[],[],[],[],[],[],[],0.7896,0,184.7665,185.2731,,,,,,255,FEM,DIS,150,tribu,el,a,185.2754,185.2763,-0.1296875,-0.096875,0,0,0,,0,24,24,254,1,,,,
,,,,,,4a0ba20ae1f363a011832cce,66a626ef09d4e21e1a8894ec,6734d6999015dcf6c8e0fb59,2024-11-13_17h53.25.246,Tarea de género gramatical,2024.2.2,Win32,119.047619,,,,,,,,,,,,,,,,,,,,,,,185.2782,186.3243,l,1,0.373,,[],[],[],[],[],[],[],0.373,1,186.3254,186.8207,,,,,,160,MAS,AGR,150,señor,el,l,186.8208,186.8208,-0.1296875,-0.096875,0,0,0,,0,25,25,159,1,,,,
,,,,,,4a0ba20ae1f363a011832cce,66a626ef09d4e21e1a8894ec,6734d6999015dcf6c8e0fb59,2024-11-13_17h53.25.246,Tarea de género gramatical,2024.2.2,Win32,119.047619,,,,,,,,,,,,,,,,,,,,,,,186.8228,188.0847,a,1,0.5948,,[],[],[],[],[],[],[],0.5948,1,188.0849,188.5815,,,,,,171,FEM,DIS,150,mitad,el,a,188.5817,188.5817,-0.1296875,-0.096875,0,0,0,,0,26,26,170,1,,,,
,,,,,,4a0ba20ae1f363a011832cce,66a626ef09d4e21e1a8894ec,6734d6999015dcf6c8e0fb59,2024-11-13_17h53.25.246,Tarea de género gramatical,2024.2.2,Win32,119.047619,,,,,,,,,,,,,,,,,,,,,,,188.5833,189.8487,l,1,0.5934,,[],[],[],[],[],[],[],0.5934,1,189.8489,190.3506,,,,,,156,MAS,DIS,150,amigo,la,l,190.3506,190.3507,-0.1296875,-0.096875,0,0,0,,0,27,27,155,1,,,,
,,,,,,4a0ba20ae1f363a011832cce,66a626ef09d4e21e1a8894ec,6734d6999015dcf6c8e0fb59,2024-11-13_17h53.25.246,Tarea de género gramatical,2024.2.2,Win32,119.047619,,,,,,,,,,,,,,,,,,,,,,,190.3522,191.4812,l,1,0.4558,,[],[],[],[],[],[],[],0.4558,1,191.4813,191.9783,,,,,,293,MAS,CON,150,patio,,l,191.9784,191.9785,-0.1296875,-0.096875,0,0,0,,0,28,28,292,1,,,,
,,,,,,4a0ba20ae1f363a011832cce,66a626ef09d4e21e1a8894ec,6734d6999015dcf6c8e0fb59,2024-11-13_17h53.25.246,Tarea de género gramatical,2024.2.2,Win32,119.047619,,,,,,,,,,,,,,,,,,,,,,,191.9801,193.0225,l,1,0.3787,,[],[],[],[],[],[],[],0.3787,1,193.0226,193.5296,,,,,,252,MAS,DIS,150,viejo,la,l,193.5318,193.5326,-0.1296875,-0.096875,0,0,0,,0,29,29,251,1,,,,
,,,,,,4a0ba20ae1f363a011832cce,66a626ef09d4e21e1a8894ec,6734d6999015dcf6c8e0fb59,2024-11-13_17h53.25.246,Tarea de género gramatical,2024.2.2,Win32,119.047619,,,,,,,,,,,,,,,,,,,,,,,193.5334,194.6521,a,1,0.4467,,[],[],[],[],[],[],[],0.4467,1,194.6522,195.1555,,,,,,146,FEM,CON,150,lana,,a,195.1556,195.1557,-0.1296875,-0.096875,0,0,0,,0,30,30,145,1,,,,
,,,,,,4a0ba20ae1f363a011832cce,66a626ef09d4e21e1a8894ec,6734d6999015dcf6c8e0fb59,2024-11-13_17h53.25.246,Tarea de género gramatical,2024.2.2,Win32,119.047619,,,,,,,,,,,,,,,,,,,,,,,195.1573,196.2309,l,1,0.3965,,[],[],[],[],[],[],[],0.3965,1,196.2311,196.7162,,,,,,41,MAS,CON,150,bote,,l,196.7164,196.7165,-0.1296875,-0.096875,0,0,0,,0,31,31,40,1,,,,
,,,,,,4a0ba20ae1f363a011832cce,66a626ef09d4e21e1a8894ec,6734d6999015dcf6c8e0fb59,2024-11-13_17h53.25.246,Tarea de género gramatical,2024.2.2,Win32,119.047619,,,,,,,,,,,,,,,,,,,,,,,196.7183,197.8065,a,1,0.411,,[],[],[],[],[],[],[],0.411,1,197.8066,198.3104,,,,,,423,FEM,DIS,150,poesía,el,a,198.3105,198.3105,-0.1296875,-0.096875,0,0,0,,0,32,32,422,1,,,,
,,,,,,4a0ba20ae1f363a011832cce,66a626ef09d4e21e1a8894ec,6734d6999015dcf6c8e0fb59,2024-11-13_17h53.25.246,Tarea de género gramatical,2024.2.2,Win32,119.047619,,,,,,,,,,,,,,,,,,,,,,,198.312,199.3342,l,1,0.3572,,[],[],[],[],[],[],[],0.3572,1,199.3343,199.8272,,,,,,18,MAS,DIS,150,tren,la,l,199.8299,199.8308,-0.1296875,-0.096875,0,0,0,,0,33,33,17,1,,,,
,,,,,,4a0ba20ae1f363a011832cce,66a626ef09d4e21e1a8894ec,6734d6999015dcf6c8e0fb59,2024-11-13_17h53.25.246,Tarea de género gramatical,2024.2.2,Win32,119.047619,,,,,,,,,,,,,,,,,,,,,,,199.8317,200.8738,l,1,0.3735,,[],[],[],[],[],[],[],0.3735,1,200.8739,201.3733,,,,,,101,MAS,CON,150,giro,,l,201.3735,201.3737,-0.1296875,-0.096875,0,0,0,,0,34,34,100,1,,,,
,,,,,,4a0ba20ae1f363a011832cce,66a626ef09d4e21e1a8894ec,6734d6999015dcf6c8e0fb59,2024-11-13_17h53.25.246,Tarea de género gramatical,2024.2.2,Win32,119.047619,,,,,,,,,,,,,,,,,,,,,,,201.3758,202.7683,l,1,0.7259,,[],[],[],[],[],[],[],0.7259,1,202.7685,203.258,,,,,,144,MAS,DIS,150,amor,la,l,203.258,203.2581,-0.1296875,-0.096875,0,0,0,,0,35,35,143,1,,,,
,,,,,,4a0ba20ae1f363a011832cce,66a626ef09d4e21e1a8894ec,6734d6999015dcf6c8e0fb59,2024-11-13_17h53.25.246,Tarea de género gramatical,2024.2.2,Win32,119.047619,,,,,,,,,,,,,,,,,,,,,,,203.2594,204.5398,a,1,0.6151,,[],[],[],[],[],[],[],0.6151,1,204.5402,205.0322,,,,,,237,FEM,DIS,150,ducha,el,a,205.0323,205.0324,-0.1296875,-0.096875,0,0,0,,0,36,36,236,1,,,,
,,,,,,4a0ba20ae1f363a011832cce,66a626ef09d4e21e1a8894ec,6734d6999015dcf6c8e0fb59,2024-11-13_17h53.25.246,Tarea de género gramatical,2024.2.2,Win32,119.047619,,,,,,,,,,,,,,,,,,,,,,,205.0332,206.2168,l,1,0.5099,,[],[],[],[],[],[],[],0.5099,1,206.2169,206.7192,,,,,,390,MAS,DIS,150,rostro,la,l,206.7194,206.7195,-0.1296875,-0.096875,0,0,0,,0,37,37,389,1,,,,
,,,,,,4a0ba20ae1f363a011832cce,66a626ef09d4e21e1a8894ec,6734d6999015dcf6c8e0fb59,2024-11-13_17h53.25.246,Tarea de género gramatical,2024.2.2,Win32,119.047619,,,,,,,,,,,,,,,,,,,,,,,206.7217,207.8061,l,1,0.4061,,[],[],[],[],[],[],[],0.4061,1,207.8063,208.3005,,,,,,298,MAS,AGR,150,botón,el,l,208.3024,208.3034,-0.1296875,-0.096875,0,0,0,,0,38,38,297,1,,,,
,,,,,,4a0ba20ae1f363a011832cce,66a626ef09d4e21e1a8894ec,6734d6999015dcf6c8e0fb59,2024-11-13_17h53.25.246,Tarea de género gramatical,2024.2.2,Win32,119.047619,,,,,,,,,,,,,,,,,,,,,,,208.3045,209.2789,l,1,0.3077,,[],[],[],[],[],[],[],0.3077,1,209.279,209.7724,,,,,,305,MAS,CON,150,hombre,,l,209.7725,209.7725,-0.1296875,-0.096875,0,0,0,,0,39,39,304,1,,,,
,,,,,,4a0ba20ae1f363a011832cce,66a626ef09d4e21e1a8894ec,6734d6999015dcf6c8e0fb59,2024-11-13_17h53.25.246,Tarea de género gramatical,2024.2.2,Win32,119.047619,,,,,,,,,,,,,,,,,,,,,,,209.7739,210.8454,a,1,0.4105,,[],[],[],[],[],[],[],0.4105,1,210.8456,211.3444,,,,,,422,FEM,CON,150,rutina,,a,211.3444,211.3445,-0.1296875,-0.096875,0,0,0,,0,40,40,421,1,,,,
,,,,,,4a0ba20ae1f363a011832cce,66a626ef09d4e21e1a8894ec,6734d6999015dcf6c8e0fb59,2024-11-13_17h53.25.246,Tarea de género gramatical,2024.2.2,Win32,119.047619,,,,,,,,,,,,,,,,,,,,,,,211.3459,212.7277,l,1,0.7203,,[],[],[],[],[],[],[],0.7203,1,212.7278,213.2276,,,,,,358,MAS,AGR,150,motivo,el,l,213.2276,213.2277,-0.1296875,-0.096875,0,0,0,,0,41,41,357,1,,,,
,,,,,,4a0ba20ae1f363a011832cce,66a626ef09d4e21e1a8894ec,6734d6999015dcf6c8e0fb59,2024-11-13_17h53.25.246,Tarea de género gramatical,2024.2.2,Win32,119.047619,,,,,,,,,,,,,,,,,,,,,,,213.229,214.5185,l,1,0.6282,,[],[],[],[],[],[],[],0.6282,1,214.5186,215.0154,,,,,,370,MAS,AGR,150,seguro,el,l,215.0167,215.0174,-0.1296875,-0.096875,0,0,0,,0,42,42,369,1,,,,
,,,,,,4a0ba20ae1f363a011832cce,66a626ef09d4e21e1a8894ec,6734d6999015dcf6c8e0fb59,2024-11-13_17h53.25.246,Tarea de género gramatical,2024.2.2,Win32,119.047619,,,,,,,,,,,,,,,,,,,,,,,215.0179,216.0779,a,1,0.4017,,[],[],[],[],[],[],[],0.4017,1,216.078,216.5734,,,,,,241,FEM,AGR,150,pasta,la,a,216.5735,216.5736,-0.1296875,-0.096875,0,0,0,,0,43,43,240,1,,,,
,,,,,,4a0ba20ae1f363a011832cce,66a626ef09d4e21e1a8894ec,6734d6999015dcf6c8e0fb59,2024-11-13_17h53.25.246,Tarea de género gramatical,2024.2.2,Win32,119.047619,,,,,,,,,,,,,,,,,,,,,,,216.5752,218.1938,l,1,0.9589,,[],[],[],[],[],[],[],0.9589,1,218.194,218.6943,,,,,,384,MAS,DIS,150,pedazo,la,l,218.6945,218.6945,-0.1296875,-0.096875,0,0,0,,0,44,44,383,1,,,,
,,,,,,4a0ba20ae1f363a011832cce,66a626ef09d4e21e1a8894ec,6734d6999015dcf6c8e0fb59,2024-11-13_17h53.25.246,Tarea de género gramatical,2024.2.2,Win32,119.047619,,,,,,,,,,,,,,,,,,,,,,,218.6961,219.9183,a,1,0.5659,,[],[],[],[],[],[],[],0.5659,1,219.9184,220.4187,,,,,,236,FEM,CON,150,deuda,,a,220.4189,220.4189,-0.1296875,-0.096875,0,0,0,,0,45,45,235,1,,,,
,,,,,,4a0ba20ae1f363a011832cce,66a626ef09d4e21e1a8894ec,6734d6999015dcf6c8e0fb59,2024-11-13_17h53.25.246,Tarea de género gramatical,2024.2.2,Win32,119.047619,,,,,,,,,,,,,,,,,,,,,,,220.4197,221.8573,a,1,0.7777,,[],[],[],[],[],[],[],0.7777,1,221.8574,222.3522,,,,,,446,FEM,CON,150,bañera,,a,222.3522,222.3523,-0.1296875,-0.096875,0,0,0,,0,46,46,445,1,,,,
,,,,,,4a0ba20ae1f363a011832cce,66a626ef09d4e21e1a8894ec,6734d6999015dcf6c8e0fb59,2024-11-13_17h53.25.246,Tarea de género gramatical,2024.2.2,Win32,119.047619,,,,,,,,,,,,,,,,,,,,,,,222.353,223.3877,l,1,0.3768,,[],[],[],[],[],[],[],0.3768,1,223.3879,223.8868,,,,,,251,MAS,CON,150,dueño,,l,223.8886,223.8896,-0.1296875,-0.096875,0,0,0,,0,47,47,250,1,,,,
,,,,,,4a0ba20ae1f363a011832cce,66a626ef09d4e21e1a8894ec,6734d6999015dcf6c8e0fb59,2024-11-13_17h53.25.246,Tarea de género gramatical,2024.2.2,Win32,119.047619,,,,,,,,,,,,,,,,,,,,,,,223.8902,224.8848,a,1,0.3262,,[],[],[],[],[],[],[],0.3262,1,224.8848,225.3806,,,,,,356,FEM,CON,150,piedra,,a,225.3807,225.3808,-0.1296875,-0.096875,0,0,0,,0,48,48,355,1,,,,
,,,,,,4a0ba20ae1f363a011832cce,66a626ef09d4e21e1a8894ec,6734d6999015dcf6c8e0fb59,2024-11-13_17h53.25.246,Tarea de género gramatical,2024.2.2,Win32,119.047619,,,,,,,,,,,,,,,,,,,,,,,225.3823,226.4666,l,1,0.4249,,[],[],[],[],[],[],[],0.4249,1,226.4667,226.9623,,,,,,250,MAS,AGR,150,cerdo,el,l,226.9625,226.9628,-0.1296875,-0.096875,0,0,0,,0,49,49,249,1,,,,
,,,,,,4a0ba20ae1f363a011832cce,66a626ef09d4e21e1a8894ec,6734d6999015dcf6c8e0fb59,2024-11-13_17h53.25.246,Tarea de género gramatical,2024.2.2,Win32,119.047619,,,,,,,,,,,,,,,,,,,,,,,226.9648,227.9569,l,1,0.327,,[],[],[],[],[],[],[],0.327,1,227.957,228.4565,,,,,,174,MAS,DIS,150,perro,la,l,228.4566,228.4566,-0.1296875,-0.096875,0,0,0,,0,50,50,173,1,,,,
,,,,,,4a0ba20ae1f363a011832cce,66a626ef09d4e21e1a8894ec,6734d6999015dcf6c8e0fb59,2024-11-13_17h53.25.246,Tarea de género gramatical,2024.2.2,Win32,119.047619,,,,,,,,,,,,,,,,,,,,,,,228.4587,229.8782,l,1,0.753,,[],[],[],[],[],[],[],0.753,1,229.8783,230.3597,,,,,,238,MAS,AGR,150,norte,el,l,230.3616,230.3628,-0.1296875,-0.096875,0,0,0,,0,51,51,237,1,,,,
,,,,,,4a0ba20ae1f363a011832cce,66a626ef09d4e21e1a8894ec,6734d6999015dcf6c8e0fb59,2024-11-13_17h53.25.246,Tarea de género gramatical,2024.2.2,Win32,119.047619,,,,,,,,,,,,,,,,,,,,,,,230.3641,231.6214,l,1,0.583,,[],[],[],[],[],[],[],0.583,1,231.6216,232.1172,,,,,,432,MAS,DIS,150,océano,la,l,232.1173,232.1174,-0.1296875,-0.096875,0,0,0,,0,52,52,431,1,,,,
,,,,,,4a0ba20ae1f363a011832cce,66a626ef09d4e21e1a8894ec,6734d6999015dcf6c8e0fb59,2024-11-13_17h53.25.246,Tarea de género gramatical,2024.2.2,Win32,119.047619,,,,,,,,,,,,,,,,,,,,,,,232.1188,233.1625,a,1,0.3795,,[],[],[],[],[],[],[],0.3795,1,233.1626,233.673,,,,,,205,FEM,AGR,150,reina,la,a,233.6731,233.6732,-0.1296875,-0.096875,0,0,0,,0,53,53,204,1,,,,
,,,,,,4a0ba20ae1f363a011832cce,66a626ef09d4e21e1a8894ec,6734d6999015dcf6c8e0fb59,2024-11-13_17h53.25.246,Tarea de género gramatical,2024.2.2,Win32,119.047619,,,,,,,,,,,,,,,,,,,,,,,233.6754,234.6776,a,1,0.3363,,[],[],[],[],[],[],[],0.3363,1,234.6778,235.1735,,,,,,165,FEM,DIS,150,amiga,el,a,235.1736,235.1738,-0.1296875,-0.096875,0,0,0,,0,54,54,164,1,,,,
,,,,,,4a0ba20ae1f363a011832cce,66a626ef09d4e21e1a8894ec,6734d6999015dcf6c8e0fb59,2024-11-13_17h53.25.246,Tarea de género gramatical,2024.2.2,Win32,119.047619,,,,,,,,,,,,,,,,,,,,,,,235.1758,236.4307,a,1,0.5842,,[],[],[],[],[],[],[],0.5842,1,236.4308,236.9219,,,,,,301,FEM,AGR,150,verdad,la,a,236.922,236.9221,-0.1296875,-0.096875,0,0,0,,0,55,55,300,1,,,,
,,,,,,4a0ba20ae1f363a011832cce,66a626ef09d4e21e1a8894ec,6734d6999015dcf6c8e0fb59,2024-11-13_17h53.25.246,Tarea de género gramatical,2024.2.2,Win32,119.047619,,,,,,,,,,,,,,,,,,,,,,,236.9236,238.0178,a,1,0.4213,,[],[],[],[],[],[],[],0.4213,1,238.0179,238.5144,,,,,,122,FEM,CON,150,loca,,a,238.5162,238.5173,-0.1296875,-0.096875,0,0,0,,0,56,56,121,1,,,,
,,,,,,4a0ba20ae1f363a011832cce,66a626ef09d4e21e1a8894ec,6734d6999015dcf6c8e0fb59,2024-11-13_17h53.25.246,Tarea de género gramatical,2024.2.2,Win32,119.047619,,,,,,,,,,,,,,,,,,,,,,,238.5183,239.6471,l,1,0.4506,,[],[],[],[],[],[],[],0.4506,1,239.6472,240.1551,,,,,,408,MAS,DIS,150,cheque,la,l,240.1552,240.1553,-0.1296875,-0.096875,0,0,0,,0,57,57,407,1,,,,
,,,,,,4a0ba20ae1f363a011832cce,66a626ef09d4e21e1a8894ec,6734d6999015dcf6c8e0fb59,2024-11-13_17h53.25.246,Tarea de género gramatical,2024.2.2,Win32,119.047619,,,,,,,,,,,,,,,,,,,,,,,240.1573,241.1602,l,1,0.3363,,[],[],[],[],[],[],[],0.3363,1,241.1604,241.6729,,,,,,82,MAS,AGR,150,tubo,el,l,241.6729,241.6732,-0.1296875,-0.096875,0,0,0,,0,58,58,81,1,,,,
,,,,,,4a0ba20ae1f363a011832cce,66a626ef09d4e21e1a8894ec,6734d6999015dcf6c8e0fb59,2024-11-13_17h53.25.246,Tarea de género gramatical,2024.2.2,Win32,119.047619,,,,,,,,,,,,,,,,,,,,,,,241.6751,243.1862,l,1,0.8483,,[],[],[],[],[],[],[],0.8483,1,243.1862,243.6922,,,,,,30,MAS,DIS,150,cine,la,l,243.6922,243.6924,-0.1296875,-0.096875,0,0,0,,0,59,59,29,1,,,,
,,,,,,4a0ba20ae1f363a011832cce,66a626ef09d4e21e1a8894ec,6734d6999015dcf6c8e0fb59,2024-11-13_17h53.25.246,Tarea de género gramatical,2024.2.2,Win32,119.047619,,,,,,,,,,,,,,,,,,,,,,,243.6938,245.1554,l,1,0.7921,,[],[],[],[],[],[],[],0.7921,1,245.1555,245.6566,,,,,,425,MAS,CON,150,chiste,,l,245.6586,245.6597,-0.1296875,-0.096875,0,0,0,,0,60,60,424,1,,,,
,,,,,,4a0ba20ae1f363a011832cce,66a626ef09d4e21e1a8894ec,6734d6999015dcf6c8e0fb59,2024-11-13_17h53.25.246,Tarea de género gramatical,2024.2.2,Win32,119.047619,,,,,,,,,,,,,,,,,,,,,,,245.6608,247.079,a,1,0.7573,,[],[],[],[],[],[],[],0.7573,1,247.0791,247.5721,,,,,,375,FEM,DIS,150,cadena,el,a,247.5722,247.5723,-0.1296875,-0.096875,0,0,0,,0,61,61,374,1,,,,
,,,,,,4a0ba20ae1f363a011832cce,66a626ef09d4e21e1a8894ec,6734d6999015dcf6c8e0fb59,2024-11-13_17h53.25.246,Tarea de género gramatical,2024.2.2,Win32,119.047619,,,,,,,,,,,,,,,,,,,,,,,247.5737,248.7099,a,1,0.4655,,[],[],[],[],[],[],[],0.4655,1,248.7099,249.2097,,,,,,440,FEM,CON,150,patada,,a,249.2099,249.2099,-0.1296875,-0.096875,0,0,0,,0,62,62,439,1,,,,
,,,,,,4a0ba20ae1f363a011832cce,66a626ef09d4e21e1a8894ec,6734d6999015dcf6c8e0fb59,2024-11-13_17h53.25.246,Tarea de género gramatical,2024.2.2,Win32,119.047619,,,,,,,,,,,,,,,,,,,,,,,249.2108,250.3427,l,1,0.4672,,[],[],[],[],[],[],[],0.4672,1,250.3427,250.8427,,,,,,136,MAS,AGR,150,vago,el,l,250.8427,250.8427,-0.1296875,-0.096875,0,0,0,,0,63,63,135,1,,,,
,,,,,,4a0ba20ae1f363a011832cce,66a626ef09d4e21e1a8894ec,6734d6999015dcf6c8e0fb59,2024-11-13_17h53.25.246,Tarea de género gramatical,2024.2.2,Win32,119.047619,,,,,,,,,,,,,,,,,,,,,,,250.8436,252.002,a,1,0.4921,,[],[],[],[],[],[],[],0.4921,1,252.0021,252.5097,,,,,,362,FEM,CON,150,fuente,,a,252.5097,252.5098,-0.1296875,-0.096875,0,0,0,,0,64,64,361,1,,,,
,,,,,,4a0ba20ae1f363a011832cce,66a626ef09d4e21e1a8894ec,6734d6999015dcf6c8e0fb59,2024-11-13_17h53.25.246,Tarea de género gramatical,2024.2.2,Win32,119.047619,,,,,,,,,,,,,,,,,,,,,,,252.5111,253.6671,l,0,0.4907,,[],[],[],[],[],[],[],0.4907,0,253.6681,254.1684,,,,,,374,FEM,CON,150,herida,,a,254.1695,254.1703,-0.1296875,-0.096875,0,0,0,,0,65,65,373,1,,,,
,,,,,,4a0ba20ae1f363a011832cce,66a626ef09d4e21e1a8894ec,6734d6999015dcf6c8e0fb59,2024-11-13_17h53.25.246,Tarea de género gramatical,2024.2.2,Win32,119.047619,,,,,,,,,,,,,,,,,,,,,,,254.1711,255.3462,l,0,0.5101,,[],[],[],[],[],[],[],0.5101,0,255.3462,255.8432,,,,,,201,FEM,DIS,150,leche,el,a,255.8432,255.8432,-0.1296875,-0.096875,0,0,0,,0,66,66,200,1,,,,
,,,,,,4a0ba20ae1f363a011832cce,66a626ef09d4e21e1a8894ec,6734d6999015dcf6c8e0fb59,2024-11-13_17h53.25.246,Tarea de género gramatical,2024.2.2,Win32,119.047619,,,,,,,,,,,,,,,,,,,,,,,255.8444,257.5183,l,1,1.0092,,[],[],[],[],[],[],[],1.0092,1,257.5192,258.0174,,,,,,102,MAS,DIS,150,coro,la,l,258.0174,258.0176,-0.1296875,-0.096875,0,0,0,,0,67,67,101,1,,,,
,,,,,,4a0ba20ae1f363a011832cce,66a626ef09d4e21e1a8894ec,6734d6999015dcf6c8e0fb59,2024-11-13_17h53.25.246,Tarea de género gramatical,2024.2.2,Win32,119.047619,,,,,,,,,,,,,,,,,,,,,,,258.0188,259.1769,a,1,0.4968,,[],[],[],[],[],[],[],0.4968,1,259.177,259.6765,,,,,,416,FEM,CON,150,colina,,a,259.6765,259.6766,-0.1296875,-0.096875,0,0,0,,0,68,68,415,1,,,,
,,,,,,4a0ba20ae1f363a011832cce,66a626ef09d4e21e1a8894ec,6734d6999015dcf6c8e0fb59,2024-11-13_17h53.25.246,Tarea de género gramatical,2024.2.2,Win32,119.047619,,,,,,,,,,,,,,,,,,,,,,,259.6782,260.8383,l,1,0.5041,,[],[],[],[],[],[],[],0.5041,1,260.8383,261.3367,,,,,,401,MAS,CON,150,abrigo,,l,261.3384,261.3393,-0.1296875,-0.096875,0,0,0,,0,69,69,400,1,,,,
,,,,,,4a0ba20ae1f363a011832cce,66a626ef09d4e21e1a8894ec,6734d6999015dcf6c8e0fb59,2024-11-13_17h53.25.246,Tarea de género gramatical,2024.2.2,Win32,119.047619,,,,,,,,,,,,,,,,,,,,,,,261.34,262.4081,l,1,0.3905,,[],[],[],[],[],[],[],0.3905,1,262.4082,262.9128,,,,,,299,MAS,CON,150,rumbo,,l,262.9129,262.913,-0.1296875,-0.096875,0,0,0,,0,70,70,298,1,,,,
,,,,,,4a0ba20ae1f363a011832cce,66a626ef09d4e21e1a8894ec,6734d6999015dcf6c8e0fb59,2024-11-13_17h53.25.246,Tarea de género gramatical,2024.2.2,Win32,119.047619,,,,,,,,,,,,,,,,,,,,,,,262.9147,263.9476,l,1,0.3679,,[],[],[],[],[],[],[],0.3679,1,263.9478,264.4453,,,,,,22,MAS,AGR,150,pelo,el,l,264.4453,264.4453,-0.1296875,-0.096875,0,0,0,,0,71,71,21,1,,,,
,,,,,,4a0ba20ae1f363a011832cce,66a626ef09d4e21e1a8894ec,6734d6999015dcf6c8e0fb59,2024-11-13_17h53.25.246,Tarea de género gramatical,2024.2.2,Win32,119.047619,,,,,,,,,,,,,,,,,,,,,,,264.4462,265.4996,l,1,0.3946,,[],[],[],[],[],[],[],0.3946,1,265.4998,265.9955,,,,,,155,MAS,CON,150,mundo,,l,265.9955,265.9956,-0.1296875,-0.096875,0,0,0,,0,72,72,154,1,,,,
,,,,,,4a0ba20ae1f363a011832cce,66a626ef09d4e21e1a8894ec,6734d6999015dcf6c8e0fb59,2024-11-13_17h53.25.246,Tarea de género gramatical,2024.2.2,Win32,119.047619,,,,,,,,,,,,,,,,,,,,,,,265.9967,267.0384,a,1,0.382,,[],[],[],[],[],[],[],0.382,1,267.0386,267.5376,,,,,,37,FEM,AGR,150,sala,la,a,267.5377,267.5378,-0.1296875,-0.096875,0,0,0,,0,73,73,36,1,,,,
,,,,,,4a0ba20ae1f363a011832cce,66a626ef09d4e21e1a8894ec,6734d6999015dcf6c8e0fb59,2024-11-13_17h53.25.246,Tarea de género gramatical,2024.2.2,Win32,119.047619,,,,,,,,,,,,,,,,,,,,,,,267.5388,268.5156,a,1,0.3024,,[],[],[],[],[],[],[],0.3024,1,268.5157,269.0171,,,,,,68,FEM,CON,150,pata,,a,269.0186,269.0192,-0.1296875,-0.096875,0,0,0,,0,74,74,67,1,,,,
,,,,,,4a0ba20ae1f363a011832cce,66a626ef09d4e21e1a8894ec,6734d6999015dcf6c8e0fb59,2024-11-13_17h53.25.246,Tarea de género gramatical,2024.2.2,Win32,119.047619,,,,,,,,,,,,,,,,,,,,,,,269.0203,270.2336,a,1,0.5545,,[],[],[],[],[],[],[],0.5545,1,270.2338,270.7316,,,,,,139,FEM,AGR,150,pipa,la,a,270.7317,270.7318,-0.1296875,-0.096875,0,0,0,,0,75,75,138,1,,,,
,,,,,,4a0ba20ae1f363a011832cce,66a626ef09d4e21e1a8894ec,6734d6999015dcf6c8e0fb59,2024-11-13_17h53.25.246,Tarea de género gramatical,2024.2.2,Win32,119.047619,,,,,,,,,,,,,,,,,,,,,,,270.733,271.7396,a,1,0.3431,,[],[],[],[],[],[],[],0.3431,1,271.7398,272.2342,,,,,,399,FEM,DIS,150,charla,el,a,272.2343,272.2344,-0.1296875,-0.096875,0,0,0,,0,76,76,398,1,,,,
,,,,,,4a0ba20ae1f363a011832cce,66a626ef09d4e21e1a8894ec,6734d6999015dcf6c8e0fb59,2024-11-13_17h53.25.246,Tarea de género gramatical,2024.2.2,Win32,119.047619,,,,,,,,,,,,,,,,,,,,,,,272.2357,273.2384,a,1,0.3386,,[],[],[],[],[],[],[],0.3386,1,273.2385,273.7474,,,,,,231,FEM,DIS,150,bruja,el,a,273.7475,273.748,-0.1296875,-0.096875,0,0,0,,0,77,77,230,1,,,,
,,,,,,4a0ba20ae1f363a011832cce,66a626ef09d4e21e1a8894ec,6734d6999015dcf6c8e0fb59,2024-11-13_17h53.25.246,Tarea de género gramatical,2024.2.2,Win32,119.047619,,,,,,,,,,,,,,,,,,,,,,,273.7496,274.9164,l,1,0.4996,,[],[],[],[],[],[],[],0.4996,1,274.9165,275.4172,,,,,,294,MAS,DIS,150,cable,la,l,275.4187,275.4198,-0.1296875,-0.096875,0,0,0,,0,78,78,293,1,,,,
,,,,,,4a0ba20ae1f363a011832cce,66a626ef09d4e21e1a8894ec,6734d6999015dcf6c8e0fb59,2024-11-13_17h53.25.246,Tarea de género gramatical,2024.2.2,Win32,119.047619,,,,,,,,,,,,,,,,,,,,,,,275.4208,276.4988,l,1,0.4041,,[],[],[],[],[],[],[],0.4041,1,276.4989,276.9977,,,,,,244,MAS,AGR,150,hielo,el,l,276.9978,276.9979,-0.1296875,-0.096875,0,0,0,,0,79,79,243,1,,,,
,,,,,,4a0ba20ae1f363a011832cce,66a626ef09d4e21e1a8894ec,6734d6999015dcf6c8e0fb59,2024-11-13_17h53.25.246,Tarea de género gramatical,2024.2.2,Win32,119.047619,,,,,,,,,,,,,,,,,,,,,,,277.0001,278.1302,a,1,0.4591,,[],[],[],[],[],[],[],0.4591,1,278.1304,278.6302,,,,,,175,FEM,AGR,150,señal,la,a,278.6303,278.6304,-0.1296875,-0.096875,0,0,0,,0,80,80,174,1,,,,
,,,,,,4a0ba20ae1f363a011832cce,66a626ef09d4e21e1a8894ec,6734d6999015dcf6c8e0fb59,2024-11-13_17h53.25.246,Tarea de género gramatical,2024.2.2,Win32,119.047619,,,,,,,,,,,,,,,,,,,,,,,278.6319,279.647,a,1,0.3547,,[],[],[],[],[],[],[],0.3547,1,279.6471,280.1469,,,,,,217,FEM,AGR,150,tarea,la,a,280.147,280.1471,-0.1296875,-0.096875,0,0,0,,0,81,81,216,1,,,,
,,,,,,4a0ba20ae1f363a011832cce,66a626ef09d4e21e1a8894ec,6734d6999015dcf6c8e0fb59,2024-11-13_17h53.25.246,Tarea de género gramatical,2024.2.2,Win32,119.047619,,,,,,,,,,,,,,,,,,,,,,,280.1491,281.1892,a,1,0.3758,,[],[],[],[],[],[],[],0.3758,1,281.1893,281.6911,,,,,,368,FEM,CON,150,gracia,,a,281.6912,281.6913,-0.1296875,-0.096875,0,0,0,,0,82,82,367,1,,,,
,,,,,,4a0ba20ae1f363a011832cce,66a626ef09d4e21e1a8894ec,6734d6999015dcf6c8e0fb59,2024-11-13_17h53.25.246,Tarea de género gramatical,2024.2.2,Win32,119.047619,,,,,,,,,,,,,,,,,,,,,,,281.6928,282.8465,l,1,0.4916,,[],[],[],[],[],[],[],0.4916,1,282.8465,283.3424,,,,,,365,MAS,CON,150,código,,l,283.3444,283.3457,-0.1296875,-0.096875,0,0,0,,0,83,83,364,1,,,,
,,,,,,4a0ba20ae1f363a011832cce,66a626ef09d4e21e1a8894ec,6734d6999015dcf6c8e0fb59,2024-11-13_17h53.25.246,Tarea de género gramatical,2024.2.2,Win32,119.047619,,,,,,,,,,,,,,,,,,,,,,,283.3468,284.4887,l,1,0.474,,[],[],[],[],[],[],[],0.474,1,284.4889,284.9771,,,,,,395,MAS,CON,150,correo,,l,284.9771,284.9773,-0.1296875,-0.096875,0,0,0,,0,84,84,394,1,,,,
,,,,,,4a0ba20ae1f363a011832cce,66a626ef09d4e21e1a8894ec,6734d6999015dcf6c8e0fb59,2024-11-13_17h53.25.246,Tarea de género gramatical,2024.2.2,Win32,119.047619,,,,,,,,,,,,,,,,,,,,,,,284.9793,286.0806,a,1,0.4399,,[],[],[],[],[],[],[],0.4399,1,286.0808,286.5766,,,,,,314,FEM,CON,150,señora,,a,286.5767,286.5767,-0.1296875,-0.096875,0,0,0,,0,85,85,313,1,,,,
,,,,,,4a0ba20ae1f363a011832cce,66a626ef09d4e21e1a8894ec,6734d6999015dcf6c8e0fb59,2024-11-13_17h53.25.246,Tarea de género gramatical,2024.2.2,Win32,119.047619,,,,,,,,,,,,,,,,,,,,,,,286.5786,287.8715,l,1,0.6298,,[],[],[],[],[],[],[],0.6298,1,287.8716,288.3804,,,,,,228,MAS,DIS,150,nivel,la,l,288.3806,288.3808,-0.1296875,-0.096875,0,0,0,,0,86,86,227,1,,,,
,,,,,,4a0ba20ae1f363a011832cce,66a626ef09d4e21e1a8894ec,6734d6999015dcf6c8e0fb59,2024-11-13_17h53.25.246,Tarea de género gramatical,2024.2.2,Win32,119.047619,,,,,,,,,,,,,,,,,,,,,,,288.3834,289.4538,l,1,0.4047,,[],[],[],[],[],[],[],0.4047,1,289.4541,289.9551,,,,,,118,MAS,AGR,150,baúl,el,l,289.9568,289.9578,-0.1296875,-0.096875,0,0,0,,0,87,87,117,1,,,,
,,,,,,4a0ba20ae1f363a011832cce,66a626ef09d4e21e1a8894ec,6734d6999015dcf6c8e0fb59,2024-11-13_17h53.25.246,Tarea de género gramatical,2024.2.2,Win32,119.047619,,,,,,,,,,,,,,,,,,,,,,,289.9588,290.9355,l,1,0.302,,[],[],[],[],[],[],[],0.302,1,290.9356,291.4348,,,,,,17,MAS,CON,150,modo,,l,291.4349,291.435,-0.1296875,-0.096875,0,0,0,,0,88,88,16,1,,,,
,,,,,,4a0ba20ae1f363a011832cce,66a626ef09d4e21e1a8894ec,6734d6999015dcf6c8e0fb59,2024-11-13_17h53.25.246,Tarea de género gramatical,2024.2.2,Win32,119.047619,,,,,,,,,,,,,,,,,,,,,,,291.4369,292.4871,a,1,0.3855,,[],[],[],[],[],[],[],0.3855,1,292.4873,292.9839,,,,,,62,FEM,CON,150,sopa,,a,292.9839,292.984,-0.1296875,-0.096875,0,0,0,,0,89,89,61,1,,,,
,,,,,,4a0ba20ae1f363a011832cce,66a626ef09d4e21e1a8894ec,6734d6999015dcf6c8e0fb59,2024-11-13_17h53.25.246,Tarea de género gramatical,2024.2.2,Win32,119.047619,,,,,,,,,,,,,,,,,,,,,,,292.9856,294.23,l,1,0.5804,,[],[],[],[],[],[],[],0.5804,1,294.2301,294.7244,,,,,,360,MAS,DIS,150,puente,la,l,294.7244,294.7245,-0.1296875,-0.096875,0,0,0,,0,90,90,359,1,,,,
,,,,,,4a0ba20ae1f363a011832cce,66a626ef09d4e21e1a8894ec,6734d6999015dcf6c8e0fb59,2024-11-13_17h53.25.246,Tarea de género gramatical,2024.2.2,Win32,119.047619,,,,,,,,,,,,,,,,,,,,,,,294.726,295.8887,l,1,0.4974,,[],[],[],[],[],[],[],0.4974,1,295.8889,296.3899,,,,,,448,MAS,AGR,150,aceite,el,l,296.3899,296.3899,-0.1296875,-0.096875,0,0,0,,0,91,91,447,1,,,,
,,,,,,4a0ba20ae1f363a011832cce,66a626ef09d4e21e1a8894ec,6734d6999015dcf6c8e0fb59,2024-11-13_17h53.25.246,Tarea de género gramatical,2024.2.2,Win32,119.047619,,,,,,,,,,,,,,,,,,,,,,,296.3919,297.4038,l,1,0.3447,,[],[],[],[],[],[],[],0.3447,1,297.4039,297.9025,,,,,,287,MAS,CON,150,plato,,l,297.9048,297.9057,-0.1296875,-0.096875,0,0,0,,0,92,92,286,1,,,,
,,,,,,4a0ba20ae1f363a011832cce,66a626ef09d4e21e1a8894ec,6734d6999015dcf6c8e0fb59,2024-11-13_17h53.25.246,Tarea de género gramatical,2024.2.2,Win32,119.047619,,,,,,,,,,,,,,,,,,,,,,,297.9064,298.9311,a,1,0.3588,,[],[],[],[],[],[],[],0.3588,1,298.9312,299.4202,,,,,,428,FEM,CON,150,jugada,,a,299.4203,299.4204,-0.1296875,-0.096875,0,0,0,,0,93,93,427,1,,,,
,,,,,,4a0ba20ae1f363a011832cce,66a626ef09d4e21e1a8894ec,6734d6999015dcf6c8e0fb59,2024-11-13_17h53.25.246,Tarea de género gramatical,2024.2.2,Win32,119.047619,,,,,,,,,,,,,,,,,,,,,,,299.4226,300.5704,l,1,0.4869,,[],[],[],[],[],[],[],0.4869,1,300.5705,301.0602,,,,,,42,MAS,DIS,150,show,la,l,301.0603,301.0604,-0.1296875,-0.096875,0,0,0,,0,94,94,41,1,,,,
,,,,,,4a0ba20ae1f363a011832cce,66a626ef09d4e21e1a8894ec,6734d6999015dcf6c8e0fb59,2024-11-13_17h53.25.246,Tarea de género gramatical,2024.2.2,Win32,119.047619,,,,,,,,,,,,,,,,,,,,,,,301.0623,302.1838,l,1,0.4583,,[],[],[],[],[],[],[],0.4583,1,302.1839,302.6775,,,,,,113,MAS,CON,150,toro,,l,302.6776,302.6777,-0.1296875,-0.096875,0,0,0,,0,95,95,112,1,,,,
,,,,,,4a0ba20ae1f363a011832cce,66a626ef09d4e21e1a8894ec,6734d6999015dcf6c8e0fb59,2024-11-13_17h53.25.246,Tarea de género gramatical,2024.2.2,Win32,119.047619,,,,,,,,,,,,,,,,,,,,,,,302.6793,304.0608,l,1,0.7177,,[],[],[],[],[],[],[],0.7177,1,304.061,304.5602,,,,,,100,MAS,AGR,150,nido,el,l,304.5616,304.5627,-0.1296875,-0.096875,0,0,0,,0,96,96,99,1,,,,
,,,,,,4a0ba20ae1f363a011832cce,66a626ef09d4e21e1a8894ec,6734d6999015dcf6c8e0fb59,2024-11-13_17h53.25.246,Tarea de género gramatical,2024.2.2,Win32,119.047619,,,,,,,,,,,,,,,,,,,,,,,304.5635,305.6246,l,1,0.3944,,[],[],[],[],[],[],[],0.3944,1,305.6249,306.1207,,,,,,12,MAS,DIS,150,plan,la,l,306.1208,306.1209,-0.1296875,-0.096875,0,0,0,,0,97,97,11,1,,,,
,,,,,,4a0ba20ae1f363a011832cce,66a626ef09d4e21e1a8894ec,6734d6999015dcf6c8e0fb59,2024-11-13_17h53.25.246,Tarea de género gramatical,2024.2.2,Win32,119.047619,,,,,,,,,,,,,,,,,,,,,,,306.123,307.132,a,1,0.3416,,[],[],[],[],[],[],[],0.3416,1,307.1322,307.6382,,,,,,434,FEM,CON,150,corona,,a,307.6384,307.6386,-0.1296875,-0.096875,0,0,0,,0,98,98,433,1,,,,
,,,,,,4a0ba20ae1f363a011832cce,66a626ef09d4e21e1a8894ec,6734d6999015dcf6c8e0fb59,2024-11-13_17h53.25.246,Tarea de género gramatical,2024.2.2,Win32,119.047619,,,,,,,,,,,,,,,,,,,,,,,307.6403,308.6711,a,1,0.3638,,[],[],[],[],[],[],[],0.3638,1,308.6713,309.1701,,,,,,33,FEM,DIS,150,boda,el,a,309.1702,309.1703,-0.1296875,-0.096875,0,0,0,,0,99,99,32,1,,,,
,,,,,,4a0ba20ae1f363a011832cce,66a626ef09d4e21e1a8894ec,6734d6999015dcf6c8e0fb59,2024-11-13_17h53.25.246,Tarea de género gramatical,2024.2.2,Win32,119.047619,,,,,,,,,,,,,,,,,,,,,,,309.1726,310.1954,a,1,0.349,,[],[],[],[],[],[],[],0.349,1,310.1955,310.6958,,,,,,213,FEM,DIS,150,magia,el,a,310.6958,310.696,-0.1296875,-0.096875,0,0,0,,0,100,100,212,1,,,,
,,,,,,4a0ba20ae1f363a011832cce,66a626ef09d4e21e1a8894ec,6734d6999015dcf6c8e0fb59,2024-11-13_17h53.25.246,Tarea de género gramatical,2024.2.2,Win32,119.047619,,,,,,,,,,,,,,,,,,,,,,,310.697,311.6704,l,1,0.3102,,[],[],[],[],[],[],[],0.3102,1,311.6705,312.1627,,,,,,78,MAS,DIS,150,oído,la,l,312.1645,312.1657,-0.1296875,-0.096875,0,0,0,,0,101,101,77,1,,,,
,,,,,,4a0ba20ae1f363a011832cce,66a626ef09d4e21e1a8894ec,6734d6999015dcf6c8e0fb59,2024-11-13_17h53.25.246,Tarea de género gramatical,2024.2.2,Win32,119.047619,,,,,,,,,,,,,,,,,,,,,,,312.167,313.4178,l,1,0.585,,[],[],[],[],[],[],[],0.585,1,313.4178,313.9131,,,,,,47,MAS,CON,150,olor,,l,313.9131,313.9132,-0.1296875,-0.096875,0,0,0,,0,102,102,46,1,,,,
,,,,,,4a0ba20ae1f363a011832cce,66a626ef09d4e21e1a8894ec,6734d6999015dcf6c8e0fb59,2024-11-13_17h53.25.246,Tarea de género gramatical,2024.2.2,Win32,119.047619,,,,,,,,,,,,,,,,,,,,,,,313.9151,314.9789,a,1,0.3938,,[],[],[],[],[],[],[],0.3938,1,314.979,315.4782,,,,,,271,FEM,AGR,150,viuda,la,a,315.4782,315.4782,-0.1296875,-0.096875,0,0,0,,0,103,103,270,1,,,,
,,,,,,4a0ba20ae1f363a011832cce,66a626ef09d4e21e1a8894ec,6734d6999015dcf6c8e0fb59,2024-11-13_17h53.25.246,Tarea de género gramatical,2024.2.2,Win32,119.047619,,,,,,,,,,,,,,,,,,,,,,,315.479,316.8368,l,1,0.695,,[],[],[],[],[],[],[],0.695,1,316.8369,317.3391,,,,,,424,MAS,AGR,150,rastro,el,l,317.3391,317.3395,-0.1296875,-0.096875,0,0,0,,0,104,104,423,1,,,,
,,,,,,4a0ba20ae1f363a011832cce,66a626ef09d4e21e1a8894ec,6734d6999015dcf6c8e0fb59,2024-11-13_17h53.25.246,Tarea de género gramatical,2024.2.2,Win32,119.047619,,,,,,,,,,,,,,,,,,,,,,,317.3413,318.5982,l,0,0.5807,,[],[],[],[],[],[],[],0.5807,0,318.599,319.0963,,,,,,350,FEM,CON,150,imagen,,a,319.0972,319.0978,-0.1296875,-0.096875,0,0,0,,0,105,105,349,1,,,,
,,,,,,4a0ba20ae1f363a011832cce,66a626ef09d4e21e1a8894ec,6734d6999015dcf6c8e0fb59,2024-11-13_17h53.25.246,Tarea de género gramatical,2024.2.2,Win32,119.047619,,,,,,,,,,,,,,,,,,,,,,,319.0982,320.2389,a,1,0.4685,,[],[],[],[],[],[],[],0.4685,1,320.2397,320.7363,,,,,,21,FEM,DIS,150,boca,el,a,320.7363,320.7364,-0.1296875,-0.096875,0,0,0,,0,106,106,20,1,,,,
,,,,,,4a0ba20ae1f363a011832cce,66a626ef09d4e21e1a8894ec,6734d6999015dcf6c8e0fb59,2024-11-13_17h53.25.246,Tarea de género gramatical,2024.2.2,Win32,119.047619,,,,,,,,,,,,,,,,,,,,,,,320.738,321.9115,l,1,0.5094,,[],[],[],[],[],[],[],0.5094,1,321.9116,322.4143,,,,,,317,MAS,CON,150,número,,l,322.4144,322.4144,-0.1296875,-0.096875,0,0,0,,0,107,107,316,1,,,,
,,,,,,4a0ba20ae1f363a011832cce,66a626ef09d4e21e1a8894ec,6734d6999015dcf6c8e0fb59,2024-11-13_17h53.25.246,Tarea de género gramatical,2024.2.2,Win32,119.047619,,,,,,,,,,,,,,,,,,,,,,,322.4158,323.5212,l,1,0.4426,,[],[],[],[],[],[],[],0.4426,1,323.5213,324.0111,,,,,,240,MAS,DIS,150,ruido,la,l,324.0112,324.0112,-0.1296875,-0.096875,0,0,0,,0,108,108,239,1,,,,
,,,,,,4a0ba20ae1f363a011832cce,66a626ef09d4e21e1a8894ec,6734d6999015dcf6c8e0fb59,2024-11-13_17h53.25.246,Tarea de género gramatical,2024.2.2,Win32,119.047619,,,,,,,,,,,,,,,,,,,,,,,324.0125,325.0967,l,1,0.4228,,[],[],[],[],[],[],[],0.4228,1,325.0968,325.5931,,,,,,426,MAS,DIS,150,pánico,la,l,325.5932,325.5932,-0.1296875,-0.096875,0,0,0,,0,109,109,425,1,,,,
,,,,,,4a0ba20ae1f363a011832cce,66a626ef09d4e21e1a8894ec,6734d6999015dcf6c8e0fb59,2024-11-13_17h53.25.246,Tarea de género gramatical,2024.2.2,Win32,119.047619,,,,,,,,,,,,,,,,,,,,,,,325.5945,326.7138,l,1,0.4384,,[],[],[],[],[],[],[],0.4384,1,326.7139,327.2134,,,,,,66,MAS,DIS,150,muro,la,l,327.2157,327.2167,-0.1296875,-0.096875,0,0,0,,0,110,110,65,1,,,,
,,,,,,4a0ba20ae1f363a011832cce,66a626ef09d4e21e1a8894ec,6734d6999015dcf6c8e0fb59,2024-11-13_17h53.25.246,Tarea de género gramatical,2024.2.2,Win32,119.047619,,,,,,,,,,,,,,,,,,,,,,,327.2179,328.2752,a,1,0.3802,,[],[],[],[],[],[],[],0.3802,1,328.2754,328.7695,,,,,,248,FEM,CON,150,letra,,a,328.7695,328.7696,-0.1296875,-0.096875,0,0,0,,0,111,111,247,1,,,,
,,,,,,4a0ba20ae1f363a011832cce,66a626ef09d4e21e1a8894ec,6734d6999015dcf6c8e0fb59,2024-11-13_17h53.25.246,Tarea de género gramatical,2024.2.2,Win32,119.047619,,,,,,,,,,,,,,,,,,,,,,,328.7715,330.0177,a,1,0.5807,,[],[],[],[],[],[],[],0.5807,1,330.0177,330.5126,,,,,,307,FEM,AGR,150,suerte,la,a,330.5127,330.5127,-0.1296875,-0.096875,0,0,0,,0,112,112,306,1,,,,
,,,,,,4a0ba20ae1f363a011832cce,66a626ef09d4e21e1a8894ec,6734d6999015dcf6c8e0fb59,2024-11-13_17h53.25.246,Tarea de género gramatical,2024.2.2,Win32,119.047619,,,,,,,,,,,,,,,,,,,,,,,330.5143,331.5298,l,1,0.3504,,[],[],[],[],[],[],[],0.3504,1,331.53,332.0259,,,,,,263,MAS,CON,150,carro,,l,332.0259,332.026,-0.1296875,-0.096875,0,0,0,,0,113,113,262,1,,,,
,,,,,,4a0ba20ae1f363a011832cce,66a626ef09d4e21e1a8894ec,6734d6999015dcf6c8e0fb59,2024-11-13_17h53.25.246,Tarea de género gramatical,2024.2.2,Win32,119.047619,,,,,,,,,,,,,,,,,,,,,,,332.0275,333.0327,l,1,0.3444,,[],[],[],[],[],[],[],0.3444,1,333.0327,333.5249,,,,,,311,MAS,CON,150,camino,,l,333.5269,333.528,-0.1296875,-0.096875,0,0,0,,0,114,114,310,1,,,,
,,,,,,4a0ba20ae1f363a011832cce,66a626ef09d4e21e1a8894ec,6734d6999015dcf6c8e0fb59,2024-11-13_17h53.25.246,Tarea de género gramatical,2024.2.2,Win32,119.047619,,,,,,,,,,,,,,,,,,,,,,,333.529,334.4534,l,1,0.2586,,[],[],[],[],[],[],[],0.2586,1,334.4536,334.9616,,,,,,353,MAS,CON,150,verano,,l,334.9616,334.9617,-0.1296875,-0.096875,0,0,0,,0,115,115,352,1,,,,
,,,,,,4a0ba20ae1f363a011832cce,66a626ef09d4e21e1a8894ec,6734d6999015dcf6c8e0fb59,2024-11-13_17h53.25.246,Tarea de género gramatical,2024.2.2,Win32,119.047619,,,,,,,,,,,,,,,,,,,,,,,334.9631,335.8713,l,1,0.2486,,[],[],[],[],[],[],[],0.2486,1,335.8714,336.3678,,,,,,431,MAS,CON,150,veneno,,l,336.3678,336.3678,-0.1296875,-0.096875,0,0,0,,0,116,116,430,1,,,,
,,,,,,4a0ba20ae1f363a011832cce,66a626ef09d4e21e1a8894ec,6734d6999015dcf6c8e0fb59,2024-11-13_17h53.25.246,Tarea de género gramatical,2024.2.2,Win32,119.047619,,,,,,,,,,,,,,,,,,,,,,,336.3691,337.3788,a,1,0.3467,,[],[],[],[],[],[],[],0.3467,1,337.3789,337.8788,,,,,,159,FEM,DIS,150,clase,el,a,337.8789,337.879,-0.1296875,-0.096875,0,0,0,,0,117,117,158,1,,,,
,,,,,,4a0ba20ae1f363a011832cce,66a626ef09d4e21e1a8894ec,6734d6999015dcf6c8e0fb59,2024-11-13_17h53.25.246,Tarea de género gramatical,2024.2.2,Win32,119.047619,,,,,,,,,,,,,,,,,,,,,,,337.8807,338.8473,l,1,0.2895,,[],[],[],[],[],[],[],0.2895,1,338.8474,339.3549,,,,,,35,MAS,CON,150,taxi,,l,339.3549,339.355,-0.1296875,-0.096875,0,0,0,,0,118,118,34,1,,,,
,,,,,,4a0ba20ae1f363a011832cce,66a626ef09d4e21e1a8894ec,6734d6999015dcf6c8e0fb59,2024-11-13_17h53.25.246,Tarea de género gramatical,2024.2.2,Win32,119.047619,,,,,,,,,,,,,,,,,,,,,,,339.357,340.3553,l,1,0.3275,,[],[],[],[],[],[],[],0.3275,1,340.3553,340.858,,,,,,371,MAS,CON,150,sonido,,l,340.86,340.8614,-0.1296875,-0.096875,0,0,0,,0,119,119,370,1,,,,
,,,,,,4a0ba20ae1f363a011832cce,66a626ef09d4e21e1a8894ec,6734d6999015dcf6c8e0fb59,2024-11-13_17h53.25.246,Tarea de género gramatical,2024.2.2,Win32,119.047619,,,,,,,,,,,,,,,,,,,,,,,340.8622,341.8579,l,1,0.3207,,[],[],[],[],[],[],[],0.3207,1,341.858,342.3521,,,,,,288,MAS,DIS,150,grado,la,l,342.3521,342.3522,-0.1296875,-0.096875,0,0,0,,0,120,120,287,1,,,,
,,,,,,4a0ba20ae1f363a011832cce,66a626ef09d4e21e1a8894ec,6734d6999015dcf6c8e0fb59,2024-11-13_17h53.25.246,Tarea de género gramatical,2024.2.2,Win32,119.047619,,,,,,,,,,,,,,,,,,,,,,,342.3538,343.2829,l,1,0.2493,,[],[],[],[],[],[],[],0.2493,1,343.2829,343.7744,,,,,,209,MAS,CON,150,banco,,l,343.7744,343.7745,-0.1296875,-0.096875,0,0,0,,0,121,121,208,1,,,,
,,,,,,4a0ba20ae1f363a011832cce,66a626ef09d4e21e1a8894ec,6734d6999015dcf6c8e0fb59,2024-11-13_17h53.25.246,Tarea de género gramatical,2024.2.2,Win32,119.047619,,,,,,,,,,,,,,,,,,,,,,,343.776,344.8476,a,1,0.4059,,[],[],[],[],[],[],[],0.4059,1,344.8478,345.3452,,,,,,218,FEM,CON,150,nieve,,a,345.3452,345.3453,-0.1296875,-0.096875,0,0,0,,0,122,122,217,1,,,,
,,,,,,4a0ba20ae1f363a011832cce,66a626ef09d4e21e1a8894ec,6734d6999015dcf6c8e0fb59,2024-11-13_17h53.25.246,Tarea de género gramatical,2024.2.2,Win32,119.047619,,,,,,,,,,,,,,,,,,,,,,,345.3471,346.3531,a,1,0.3457,,[],[],[],[],[],[],[],0.3457,1,346.3532,346.8414,,,,,,67,FEM,AGR,150,miel,la,a,346.843,346.8443,-0.1296875,-0.096875,0,0,0,,0,123,123,66,1,,,,
,,,,,,4a0ba20ae1f363a011832cce,66a626ef09d4e21e1a8894ec,6734d6999015dcf6c8e0fb59,2024-11-13_17h53.25.246,Tarea de género gramatical,2024.2.2,Win32,119.047619,,,,,,,,,,,,,,,,,,,,,,,346.8456,347.8665,a,1,0.3556,,[],[],[],[],[],[],[],0.3556,1,347.8667,348.359,,,,,,43,FEM,AGR,150,nena,la,a,348.359,348.3592,-0.1296875,-0.096875,0,0,0,,0,124,124,42,1,,,,
,,,,,,4a0ba20ae1f363a011832cce,66a626ef09d4e21e1a8894ec,6734d6999015dcf6c8e0fb59,2024-11-13_17h53.25.246,Tarea de género gramatical,2024.2.2,Win32,119.047619,,,,,,,,,,,,,,,,,,,,,,,348.3612,349.3287,l,1,0.305,,[],[],[],[],[],[],[],0.305,1,349.3289,349.8248,,,,,,180,MAS,DIS,150,fuego,la,l,349.8249,349.8252,-0.1296875,-0.096875,0,0,0,,0,125,125,179,1,,,,
,,,,,,4a0ba20ae1f363a011832cce,66a626ef09d4e21e1a8894ec,6734d6999015dcf6c8e0fb59,2024-11-13_17h53.25.246,Tarea de género gramatical,2024.2.2,Win32,119.047619,,,,,,,,,,,,,,,,,,,,,,,349.827,350.9508,a,1,0.4627,,[],[],[],[],[],[],[],0.4627,1,350.9509,351.4456,,,,,,393,FEM,DIS,150,alarma,el,a,351.4457,351.4459,-0.1296875,-0.096875,0,0,0,,0,126,126,392,1,,,,
,,,,,,4a0ba20ae1f363a011832cce,66a626ef09d4e21e1a8894ec,6734d6999015dcf6c8e0fb59,2024-11-13_17h53.25.246,Tarea de género gramatical,2024.2.2,Win32,119.047619,,,,,,,,,,,,,,,,,,,,,,,351.4476,352.8249,l,1,0.7135,,[],[],[],[],[],[],[],0.7135,1,352.825,353.3218,,,,,,114,MAS,DIS,150,menú,la,l,353.3219,353.3221,-0.1296875,-0.096875,0,0,0,,0,127,127,113,1,,,,
,,,,,,4a0ba20ae1f363a011832cce,66a626ef09d4e21e1a8894ec,6734d6999015dcf6c8e0fb59,2024-11-13_17h53.25.246,Tarea de género gramatical,2024.2.2,Win32,119.047619,,,,,,,,,,,,,,,,,,,,,,,353.3237,354.5945,l,0,0.596,,[],[],[],[],[],[],[],0.596,0,354.5951,355.0882,,,,,,63,FEM,DIS,150,fila,el,a,355.0897,355.0905,-0.1296875,-0.096875,0,0,0,,0,128,128,62,1,,,,
,,,,,,4a0ba20ae1f363a011832cce,66a626ef09d4e21e1a8894ec,6734d6999015dcf6c8e0fb59,2024-11-13_17h53.25.246,Tarea de género gramatical,2024.2.2,Win32,119.047619,,,,,,,,,,,,,,,,,,,,,,,355.0911,356.4129,l,1,0.6518,,[],[],[],[],[],[],[],0.6518,1,356.4135,356.911,,,,,,142,MAS,AGR,150,lodo,el,l,356.911,356.911,-0.1296875,-0.096875,0,0,0,,0,129,129,141,1,,,,
,,,,,,4a0ba20ae1f363a011832cce,66a626ef09d4e21e1a8894ec,6734d6999015dcf6c8e0fb59,2024-11-13_17h53.25.246,Tarea de género gramatical,2024.2.2,Win32,119.047619,,,,,,,,,,,,,,,,,,,,,,,356.9119,358.4223,l,1,0.8494,,[],[],[],[],[],[],[],0.8494,1,358.4225,358.919,,,,,,340,MAS,AGR,150,pasado,el,l,358.9191,358.9192,-0.1296875,-0.096875,0,0,0,,0,130,130,339,1,,,,
,,,,,,4a0ba20ae1f363a011832cce,66a626ef09d4e21e1a8894ec,6734d6999015dcf6c8e0fb59,2024-11-13_17h53.25.246,Tarea de género gramatical,2024.2.2,Win32,119.047619,,,,,,,,,,,,,,,,,,,,,,,358.9208,360.07,l,1,0.4717,,[],[],[],[],[],[],[],0.4717,1,360.0701,360.566,,,,,,192,MAS,DIS,150,grupo,la,l,360.5661,360.5661,-0.1296875,-0.096875,0,0,0,,0,131,131,191,1,,,,
,,,,,,4a0ba20ae1f363a011832cce,66a626ef09d4e21e1a8894ec,6734d6999015dcf6c8e0fb59,2024-11-13_17h53.25.246,Tarea de género gramatical,2024.2.2,Win32,119.047619,,,,,,,,,,,,,,,,,,,,,,,360.5671,361.926,a,1,0.6989,,[],[],[],[],[],[],[],0.6989,1,361.9261,362.4246,,,,,,152,FEM,CON,150,gente,,a,362.4263,362.4273,-0.1296875,-0.096875,0,0,0,,0,132,132,151,1,,,,
,,,,,,4a0ba20ae1f363a011832cce,66a626ef09d4e21e1a8894ec,6734d6999015dcf6c8e0fb59,2024-11-13_17h53.25.246,Tarea de género gramatical,2024.2.2,Win32,119.047619,,,,,,,,,,,,,,,,,,,,,,,362.4284,363.6591,l,1,0.5643,,[],[],[],[],[],[],[],0.5643,1,363.6591,364.1589,,,,,,106,MAS,AGR,150,test,el,l,364.1589,364.159,-0.1296875,-0.096875,0,0,0,,0,133,133,105,1,,,,
,,,,,,4a0ba20ae1f363a011832cce,66a626ef09d4e21e1a8894ec,6734d6999015dcf6c8e0fb59,2024-11-13_17h53.25.246,Tarea de género gramatical,2024.2.2,Win32,119.047619,,,,,,,,,,,,,,,,,,,,,,,364.1601,365.502,l,1,0.6761,,[],[],[],[],[],[],[],0.6761,1,365.5022,366.0024,,,,,,161,MAS,CON,150,chico,,l,366.0025,366.0025,-0.1296875,-0.096875,0,0,0,,0,134,134,160,1,,,,
,,,,,,4a0ba20ae1f363a011832cce,66a626ef09d4e21e1a8894ec,6734d6999015dcf6c8e0fb59,2024-11-13_17h53.25.246,Tarea de género gramatical,2024.2.2,Win32,119.047619,,,,,,,,,,,,,,,,,,,,,,,366.0038,367.1193,l,1,0.4517,,[],[],[],[],[],[],[],0.4517,1,367.1195,367.6174,,,,,,52,MAS,AGR,150,lago,el,l,367.6175,367.6176,-0.1296875,-0.096875,0,0,0,,0,135,135,51,1,,,,
,,,,,,4a0ba20ae1f363a011832cce,66a626ef09d4e21e1a8894ec,6734d6999015dcf6c8e0fb59,2024-11-13_17h53.25.246,Tarea de género gramatical,2024.2.2,Win32,119.047619,,,,,,,,,,,,,,,,,,,,,,,367.6188,368.6752,a,1,0.3924,,[],[],[],[],[],[],[],0.3924,1,368.6753,369.1749,,,,,,109,FEM,AGR,150,gota,la,a,369.175,369.175,-0.1296875,-0.096875,0,0,0,,0,136,136,108,1,,,,
,,,,,,4a0ba20ae1f363a011832cce,66a626ef09d4e21e1a8894ec,6734d6999015dcf6c8e0fb59,2024-11-13_17h53.25.246,Tarea de género gramatical,2024.2.2,Win32,119.047619,,,,,,,,,,,,,,,,,,,,,,,369.1761,370.5835,a,1,0.7428,,[],[],[],[],[],[],[],0.7428,1,370.5837,371.083,,,,,,411,FEM,DIS,150,actriz,el,a,371.0842,371.0849,-0.1296875,-0.096875,0,0,0,,0,137,137,410,1,,,,
,,,,,,4a0ba20ae1f363a011832cce,66a626ef09d4e21e1a8894ec,6734d6999015dcf6c8e0fb59,2024-11-13_17h53.25.246,Tarea de género gramatical,2024.2.2,Win32,119.047619,,,,,,,,,,,,,,,,,,,,,,,371.0856,372.4808,a,1,0.7313,,[],[],[],[],[],[],[],0.7313,1,372.4809,372.9753,,,,,,189,FEM,DIS,150,pista,el,a,372.9753,372.9753,-0.1296875,-0.096875,0,0,0,,0,138,138,188,1,,,,
,,,,,,4a0ba20ae1f363a011832cce,66a626ef09d4e21e1a8894ec,6734d6999015dcf6c8e0fb59,2024-11-13_17h53.25.246,Tarea de género gramatical,2024.2.2,Win32,119.047619,,,,,,,,,,,,,,,,,,,,,,,372.9764,374.1249,a,1,0.4838,,[],[],[],[],[],[],[],0.4838,1,374.125,374.6252,,,,,,441,FEM,DIS,150,medida,el,a,374.6252,374.6253,-0.1296875,-0.096875,0,0,0,,0,139,139,440,1,,,,
,,,,,,4a0ba20ae1f363a011832cce,66a626ef09d4e21e1a8894ec,6734d6999015dcf6c8e0fb59,2024-11-13_17h53.25.246,Tarea de género gramatical,2024.2.2,Win32,119.047619,,,,,,,,,,,,,,,,,,,,,,,374.6263,375.7333,l,1,0.4424,,[],[],[],[],[],[],[],0.4424,1,375.7333,376.233,,,,,,312,MAS,DIS,150,equipo,la,l,376.233,376.2331,-0.1296875,-0.096875,0,0,0,,0,140,140,311,1,,,,
,,,,,,4a0ba20ae1f363a011832cce,66a626ef09d4e21e1a8894ec,6734d6999015dcf6c8e0fb59,2024-11-13_17h53.25.246,Tarea de género gramatical,2024.2.2,Win32,119.047619,,,,,,,,,,,,,,,,,,,,,,,376.2344,377.2842,l,1,0.3852,,[],[],[],[],[],[],[],0.3852,1,377.2843,377.7838,,,,,,232,MAS,AGR,150,calor,el,l,377.7855,377.7864,-0.1296875,-0.096875,0,0,0,,0,141,141,231,1,,,,
,,,,,,4a0ba20ae1f363a011832cce,66a626ef09d4e21e1a8894ec,6734d6999015dcf6c8e0fb59,2024-11-13_17h53.25.246,Tarea de género gramatical,2024.2.2,Win32,119.047619,,,,,,,,,,,,,,,,,,,,,,,377.7872,378.8593,l,1,0.409,,[],[],[],[],[],[],[],0.409,1,378.8593,379.3619,,,,,,264,MAS,DIS,150,pollo,la,l,379.3619,379.362,-0.1296875,-0.096875,0,0,0,,0,142,142,263,1,,,,
,,,,,,4a0ba20ae1f363a011832cce,66a626ef09d4e21e1a8894ec,6734d6999015dcf6c8e0fb59,2024-11-13_17h53.25.246,Tarea de género gramatical,2024.2.2,Win32,119.047619,,,,,,,,,,,,,,,,,,,,,,,379.363,380.4744,l,1,0.4351,,[],[],[],[],[],[],[],0.4351,1,380.4745,380.9776,,,,,,364,MAS,AGR,150,viento,el,l,380.9777,380.978,-0.1296875,-0.096875,0,0,0,,0,143,143,363,1,,,,
,,,,,,4a0ba20ae1f363a011832cce,66a626ef09d4e21e1a8894ec,6734d6999015dcf6c8e0fb59,2024-11-13_17h53.25.246,Tarea de género gramatical,2024.2.2,Win32,119.047619,,,,,,,,,,,,,,,,,,,,,,,380.9795,382.2526,l,1,0.6097,,[],[],[],[],[],[],[],0.6097,1,382.2527,382.7497,,,,,,132,MAS,DIS,150,velo,la,l,382.7498,382.7499,-0.1296875,-0.096875,0,0,0,,0,144,144,131,1,,,,
,,,,,,4a0ba20ae1f363a011832cce,66a626ef09d4e21e1a8894ec,6734d6999015dcf6c8e0fb59,2024-11-13_17h53.25.246,Tarea de género gramatical,2024.2.2,Win32,119.047619,,,,,,,,,,,,,,,,,,,,,,,382.7518,384.0862,a,1,0.6602,,[],[],[],[],[],[],[],0.6602,1,384.0863,384.5826,,,,,,19,FEM,AGR,150,niña,la,a,384.5826,384.5828,-0.1296875,-0.096875,0,0,0,,0,145,145,18,1,,,,
,,,,,,4a0ba20ae1f363a011832cce,66a626ef09d4e21e1a8894ec,6734d6999015dcf6c8e0fb59,2024-11-13_17h53.25.246,Tarea de género gramatical,2024.2.2,Win32,119.047619,,,,,,,,,,,,,,,,,,,,,,,384.5843,385.7226,l,1,0.4703,,[],[],[],[],[],[],[],0.4703,1,385.7227,386.2189,,,,,,185,MAS,CON,150,sueño,,l,386.221,386.2221,-0.1296875,-0.096875,0,0,0,,0,146,146,184,1,,,,
,,,,,,4a0ba20ae1f363a011832cce,66a626ef09d4e21e1a8894ec,6734d6999015dcf6c8e0fb59,2024-11-13_17h53.25.246,Tarea de género gramatical,2024.2.2,Win32,119.047619,,,,,,,,,,,,,,,,,,,,,,,386.2232,387.2573,l,1,0.3701,,[],[],[],[],[],[],[],0.3701,1,387.2574,387.7482,,,,,,450,MAS,DIS,150,conejo,la,l,387.7482,387.7484,-0.1296875,-0.096875,0,0,0,,0,147,147,449,1,,,,
,,,,,,4a0ba20ae1f363a011832cce,66a626ef09d4e21e1a8894ec,6734d6999015dcf6c8e0fb59,2024-11-13_17h53.25.246,Tarea de género gramatical,2024.2.2,Win32,119.047619,,,,,,,,,,,,,,,,,,,,,,,387.75,388.7528,a,1,0.334,,[],[],[],[],[],[],[],0.334,1,388.7529,389.2559,,,,,,295,FEM,AGR,150,grasa,la,a,389.2559,389.2561,-0.1296875,-0.096875,0,0,0,,0,148,148,294,1,,,,
,,,,,,4a0ba20ae1f363a011832cce,66a626ef09d4e21e1a8894ec,6734d6999015dcf6c8e0fb59,2024-11-13_17h53.25.246,Tarea de género gramatical,2024.2.2,Win32,119.047619,,,,,,,,,,,,,,,,,,,,,,,389.2576,390.1896,l,1,0.2746,,[],[],[],[],[],[],[],0.2746,1,390.1897,390.7034,,,,,,376,MAS,AGR,150,efecto,el,l,390.7034,390.7038,-0.1296875,-0.096875,0,0,0,,0,149,149,375,1,,,,
,,,,,,4a0ba20ae1f363a011832cce,66a626ef09d4e21e1a8894ec,6734d6999015dcf6c8e0fb59,2024-11-13_17h53.25.246,Tarea de género gramatical,2024.2.2,Win32,119.047619,,,,,,,,,,,,,,,,,,,,,,,390.7054,391.739,l,1,0.3731,,[],[],[],[],[],[],[],0.3731,1,391.739,392.2362,,,,,,342,MAS,DIS,150,abuelo,la,l,392.2375,396.1969,-0.1296875,-0.096875,0,0,0,space,0,150,150,341,1,3.9392,,,
,,,,,,4a0ba20ae1f363a011832cce,66a626ef09d4e21e1a8894ec,6734d6999015dcf6c8e0fb59,2024-11-13_17h53.25.246,Tarea de género gramatical,2024.2.2,Win32,119.047619,,,,,,,,,,,,,,,,,,,,,,,396.1981,397.2994,a,1,0.4421,,[],[],[],[],[],[],[],0.4421,1,397.2995,397.7952,,,,,,345,FEM,DIS,150,pierna,el,a,397.7953,397.7954,-0.1296875,-0.096875,0,0,0,,0,151,151,344,1,,,,
,,,,,,4a0ba20ae1f363a011832cce,66a626ef09d4e21e1a8894ec,6734d6999015dcf6c8e0fb59,2024-11-13_17h53.25.246,Tarea de género gramatical,2024.2.2,Win32,119.047619,,,,,,,,,,,,,,,,,,,,,,,397.7965,398.7889,a,1,0.3312,,[],[],[],[],[],[],[],0.3312,1,398.789,399.2916,,,,,,363,FEM,DIS,150,unidad,el,a,399.2916,399.2916,-0.1296875,-0.096875,0,0,0,,0,152,152,362,1,,,,
,,,,,,4a0ba20ae1f363a011832cce,66a626ef09d4e21e1a8894ec,6734d6999015dcf6c8e0fb59,2024-11-13_17h53.25.246,Tarea de género gramatical,2024.2.2,Win32,119.047619,,,,,,,,,,,,,,,,,,,,,,,399.2925,400.3012,a,1,0.3442,,[],[],[],[],[],[],[],0.3442,1,400.3012,400.8075,,,,,,349,FEM,AGR,150,prensa,la,a,400.8075,400.8075,-0.1296875,-0.096875,0,0,0,,0,153,153,348,1,,,,
,,,,,,4a0ba20ae1f363a011832cce,66a626ef09d4e21e1a8894ec,6734d6999015dcf6c8e0fb59,2024-11-13_17h53.25.246,Tarea de género gramatical,2024.2.2,Win32,119.047619,,,,,,,,,,,,,,,,,,,,,,,400.8083,401.7823,a,1,0.3127,,[],[],[],[],[],[],[],0.3127,1,401.7824,402.2771,,,,,,409,FEM,AGR,150,moneda,la,a,402.2772,402.2772,-0.1296875,-0.096875,0,0,0,,0,154,154,408,1,,,,
,,,,,,4a0ba20ae1f363a011832cce,66a626ef09d4e21e1a8894ec,6734d6999015dcf6c8e0fb59,2024-11-13_17h53.25.246,Tarea de género gramatical,2024.2.2,Win32,119.047619,,,,,,,,,,,,,,,,,,,,,,,402.2788,403.4005,l,1,0.4663,,[],[],[],[],[],[],[],0.4663,1,403.4007,403.8941,,,,,,54,MAS,DIS,150,humo,la,l,403.8955,403.8961,-0.1296875,-0.096875,0,0,0,,0,155,155,53,1,,,,
,,,,,,4a0ba20ae1f363a011832cce,66a626ef09d4e21e1a8894ec,6734d6999015dcf6c8e0fb59,2024-11-13_17h53.25.246,Tarea de género gramatical,2024.2.2,Win32,119.047619,,,,,,,,,,,,,,,,,,,,,,,403.8971,404.9535,l,1,0.4012,,[],[],[],[],[],[],[],0.4012,1,404.9536,405.4543,,,,,,154,MAS,AGR,150,padre,el,l,405.4544,405.4545,-0.1296875,-0.096875,0,0,0,,0,156,156,153,1,,,,
,,,,,,4a0ba20ae1f363a011832cce,66a626ef09d4e21e1a8894ec,6734d6999015dcf6c8e0fb59,2024-11-13_17h53.25.246,Tarea de género gramatical,2024.2.2,Win32,119.047619,,,,,,,,,,,,,,,,,,,,,,,405.4555,406.4956,l,1,0.3718,,[],[],[],[],[],[],[],0.3718,1,406.4957,406.9864,,,,,,59,MAS,CON,150,lobo,,l,406.9866,406.9866,-0.1296875,-0.096875,0,0,0,,0,157,157,58,1,,,,
,,,,,,4a0ba20ae1f363a011832cce,66a626ef09d4e21e1a8894ec,6734d6999015dcf6c8e0fb59,2024-11-13_17h53.25.246,Tarea de género gramatical,2024.2.2,Win32,119.047619,,,,,,,,,,,,,,,,,,,,,,,406.9883,407.8774,l,1,0.2256,,[],[],[],[],[],[],[],0.2256,1,407.8775,408.3736,,,,,,23,MAS,CON,150,rato,,l,408.3737,408.3737,-0.1296875,-0.096875,0,0,0,,0,158,158,22,1,,,,
,,,,,,4a0ba20ae1f363a011832cce,66a626ef09d4e21e1a8894ec,6734d6999015dcf6c8e0fb59,2024-11-13_17h53.25.246,Tarea de género gramatical,2024.2.2,Win32,119.047619,,,,,,,,,,,,,,,,,,,,,,,408.3753,409.3328,a,1,0.2903,,[],[],[],[],[],[],[],0.2903,1,409.333,409.831,,,,,,181,FEM,AGR,150,tarde,la,a,409.8327,409.8341,-0.1296875,-0.096875,0,0,0,,0,159,159,180,1,,,,
,,,,,,4a0ba20ae1f363a011832cce,66a626ef09d4e21e1a8894ec,6734d6999015dcf6c8e0fb59,2024-11-13_17h53.25.246,Tarea de género gramatical,2024.2.2,Win32,119.047619,,,,,,,,,,,,,,,,,,,,,,,409.8354,410.7869,a,1,0.2843,,[],[],[],[],[],[],[],0.2843,1,410.787,411.2864,,,,,,182,FEM,CON,150,prisa,,a,411.2864,411.2865,-0.1296875,-0.096875,0,0,0,,0,160,160,181,1,,,,
,,,,,,4a0ba20ae1f363a011832cce,66a626ef09d4e21e1a8894ec,6734d6999015dcf6c8e0fb59,2024-11-13_17h53.25.246,Tarea de género gramatical,2024.2.2,Win32,119.047619,,,,,,,,,,,,,,,,,,,,,,,411.2882,412.295,a,1,0.334,,[],[],[],[],[],[],[],0.334,1,412.2951,412.8037,,,,,,417,FEM,DIS,150,cabaña,el,a,412.8038,412.8039,-0.1296875,-0.096875,0,0,0,,0,161,161,416,1,,,,
,,,,,,4a0ba20ae1f363a011832cce,66a626ef09d4e21e1a8894ec,6734d6999015dcf6c8e0fb59,2024-11-13_17h53.25.246,Tarea de género gramatical,2024.2.2,Win32,119.047619,,,,,,,,,,,,,,,,,,,,,,,412.8055,413.7116,l,1,0.2402,,[],[],[],[],[],[],[],0.2402,1,413.7117,414.214,,,,,,10,MAS,AGR,150,niño,el,l,414.214,414.2141,-0.1296875,-0.096875,0,0,0,,0,162,162,9,1,,,,
,,,,,,4a0ba20ae1f363a011832cce,66a626ef09d4e21e1a8894ec,6734d6999015dcf6c8e0fb59,2024-11-13_17h53.25.246,Tarea de género gramatical,2024.2.2,Win32,119.047619,,,,,,,,,,,,,,,,,,,,,,,414.2156,415.3775,a,1,0.5006,,[],[],[],[],[],[],[],0.5006,1,415.3777,415.8696,,,,,,369,FEM,DIS,150,camisa,el,a,415.8697,415.8701,-0.1296875,-0.096875,0,0,0,,0,163,163,368,1,,,,
,,,,,,4a0ba20ae1f363a011832cce,66a626ef09d4e21e1a8894ec,6734d6999015dcf6c8e0fb59,2024-11-13_17h53.25.246,Tarea de género gramatical,2024.2.2,Win32,119.047619,,,,,,,,,,,,,,,,,,,,,,,415.8719,416.9205,l,1,0.3766,,[],[],[],[],[],[],[],0.3766,1,416.9207,417.4181,,,,,,60,MAS,DIS,150,tono,la,l,417.4197,417.4206,-0.1296875,-0.096875,0,0,0,,0,164,164,59,1,,,,
,,,,,,4a0ba20ae1f363a011832cce,66a626ef09d4e21e1a8894ec,6734d6999015dcf6c8e0fb59,2024-11-13_17h53.25.246,Tarea de género gramatical,2024.2.2,Win32,119.047619,,,,,,,,,,,,,,,,,,,,,,,417.4213,418.5164,l,1,0.4295,,[],[],[],[],[],[],[],0.4295,1,418.5165,419.0196,,,,,,406,MAS,AGR,150,premio,el,l,419.0196,419.0199,-0.1296875,-0.096875,0,0,0,,0,165,165,405,1,,,,
,,,,,,4a0ba20ae1f363a011832cce,66a626ef09d4e21e1a8894ec,6734d6999015dcf6c8e0fb59,2024-11-13_17h53.25.246,Tarea de género gramatical,2024.2.2,Win32,119.047619,,,,,,,,,,,,,,,,,,,,,,,419.0214,420.0408,l,0,0.3543,,[],[],[],[],[],[],[],0.3543,0,420.0418,420.5456,,,,,,253,FEM,AGR,150,aldea,la,a,420.5458,420.5459,-0.1296875,-0.096875,0,0,0,,0,166,166,252,1,,,,
,,,,,,4a0ba20ae1f363a011832cce,66a626ef09d4e21e1a8894ec,6734d6999015dcf6c8e0fb59,2024-11-13_17h53.25.246,Tarea de género gramatical,2024.2.2,Win32,119.047619,,,,,,,,,,,,,,,,,,,,,,,420.5476,421.8117,l,1,0.599,,[],[],[],[],[],[],[],0.599,1,421.8129,422.3015,,,,,,239,MAS,CON,150,reloj,,l,422.3016,422.3017,-0.1296875,-0.096875,0,0,0,,0,167,167,238,1,,,,
,,,,,,4a0ba20ae1f363a011832cce,66a626ef09d4e21e1a8894ec,6734d6999015dcf6c8e0fb59,2024-11-13_17h53.25.246,Tarea de género gramatical,2024.2.2,Win32,119.047619,,,,,,,,,,,,,,,,,,,,,,,422.3036,423.5229,a,1,0.5432,,[],[],[],[],[],[],[],0.5432,1,423.5231,424.0238,,,,,,331,FEM,AGR,150,cárcel,la,a,424.0257,424.027,-0.1296875,-0.096875,0,0,0,,0,168,168,330,1,,,,
,,,,,,4a0ba20ae1f363a011832cce,66a626ef09d4e21e1a8894ec,6734d6999015dcf6c8e0fb59,2024-11-13_17h53.25.246,Tarea de género gramatical,2024.2.2,Win32,119.047619,,,,,,,,,,,,,,,,,,,,,,,424.028,425.2968,l,1,0.6023,,[],[],[],[],[],[],[],0.6023,1,425.297,425.7783,,,,,,438,MAS,DIS,150,tanque,la,l,425.7784,425.7785,-0.1296875,-0.096875,0,0,0,,0,169,169,437,1,,,,
,,,,,,4a0ba20ae1f363a011832cce,66a626ef09d4e21e1a8894ec,6734d6999015dcf6c8e0fb59,2024-11-13_17h53.25.246,Tarea de género gramatical,2024.2.2,Win32,119.047619,,,,,,,,,,,,,,,,,,,,,,,425.7805,426.9446,l,1,0.4961,,[],[],[],[],[],[],[],0.4961,1,426.9446,427.443,,,,,,281,MAS,CON,150,actor,,l,427.4431,427.4432,-0.1296875,-0.096875,0,0,0,,0,170,170,280,1,,,,
,,,,,,4a0ba20ae1f363a011832cce,66a626ef09d4e21e1a8894ec,6734d6999015dcf6c8e0fb59,2024-11-13_17h53.25.246,Tarea de género gramatical,2024.2.2,Win32,119.047619,,,,,,,,,,,,,,,,,,,,,,,427.4451,428.5638,a,1,0.4416,,[],[],[],[],[],[],[],0.4416,1,428.5639,429.0643,,,,,,193,FEM,AGR,150,bolsa,la,a,429.0644,429.0645,-0.1296875,-0.096875,0,0,0,,0,171,171,192,1,,,,
,,,,,,4a0ba20ae1f363a011832cce,66a626ef09d4e21e1a8894ec,6734d6999015dcf6c8e0fb59,2024-11-13_17h53.25.246,Tarea de género gramatical,2024.2.2,Win32,119.047619,,,,,,,,,,,,,,,,,,,,,,,429.0657,430.1129,l,1,0.3891,,[],[],[],[],[],[],[],0.3891,1,430.1129,430.6127,,,,,,354,MAS,DIS,150,camión,la,l,430.6128,430.6129,-0.1296875,-0.096875,0,0,0,,0,172,172,353,1,,,,
,,,,,,4a0ba20ae1f363a011832cce,66a626ef09d4e21e1a8894ec,6734d6999015dcf6c8e0fb59,2024-11-13_17h53.25.246,Tarea de género gramatical,2024.2.2,Win32,119.047619,,,,,,,,,,,,,,,,,,,,,,,430.6142,431.7528,a,1,0.4734,,[],[],[],[],[],[],[],0.4734,1,431.753,432.261,,,,,,38,FEM,CON,150,obra,,a,432.2627,432.2636,-0.1296875,-0.096875,0,0,0,,0,173,173,37,1,,,,
,,,,,,4a0ba20ae1f363a011832cce,66a626ef09d4e21e1a8894ec,6734d6999015dcf6c8e0fb59,2024-11-13_17h53.25.246,Tarea de género gramatical,2024.2.2,Win32,119.047619,,,,,,,,,,,,,,,,,,,,,,,432.2647,433.6949,a,1,0.7474,,[],[],[],[],[],[],[],0.7474,1,433.695,434.1938,,,,,,379,FEM,AGR,150,granja,la,a,434.1938,434.194,-0.1296875,-0.096875,0,0,0,,0,174,174,378,1,,,,
,,,,,,4a0ba20ae1f363a011832cce,66a626ef09d4e21e1a8894ec,6734d6999015dcf6c8e0fb59,2024-11-13_17h53.25.246,Tarea de género gramatical,2024.2.2,Win32,119.047619,,,,,,,,,,,,,,,,,,,,,,,434.1955,435.2437,a,1,0.3878,,[],[],[],[],[],[],[],0.3878,1,435.2438,435.7387,,,,,,381,FEM,DIS,150,bebida,el,a,435.7388,435.739,-0.1296875,-0.096875,0,0,0,,0,175,175,380,1,,,,
,,,,,,4a0ba20ae1f363a011832cce,66a626ef09d4e21e1a8894ec,6734d6999015dcf6c8e0fb59,2024-11-13_17h53.25.246,Tarea de género gramatical,2024.2.2,Win32,119.047619,,,,,,,,,,,,,,,,,,,,,,,435.7402,436.7033,l,1,0.2982,,[],[],[],[],[],[],[],0.2982,1,436.7033,437.1984,,,,,,149,MAS,CON,150,nudo,,l,437.1986,437.1986,-0.1296875,-0.096875,0,0,0,,0,176,176,148,1,,,,
,,,,,,4a0ba20ae1f363a011832cce,66a626ef09d4e21e1a8894ec,6734d6999015dcf6c8e0fb59,2024-11-13_17h53.25.246,Tarea de género gramatical,2024.2.2,Win32,119.047619,,,,,,,,,,,,,,,,,,,,,,,437.1999,438.8112,l,1,0.9433,,[],[],[],[],[],[],[],0.9433,1,438.8114,439.311,,,,,,168,MAS,DIS,150,sitio,la,l,439.3122,439.3132,-0.1296875,-0.096875,0,0,0,,0,177,177,167,1,,,,
,,,,,,4a0ba20ae1f363a011832cce,66a626ef09d4e21e1a8894ec,6734d6999015dcf6c8e0fb59,2024-11-13_17h53.25.246,Tarea de género gramatical,2024.2.2,Win32,119.047619,,,,,,,,,,,,,,,,,,,,,,,439.314,440.4312,l,1,0.4431,,[],[],[],[],[],[],[],0.4431,1,440.4313,440.9224,,,,,,227,MAS,CON,150,vuelo,,l,440.9224,440.9225,-0.1296875,-0.096875,0,0,0,,0,178,178,226,1,,,,
,,,,,,4a0ba20ae1f363a011832cce,66a626ef09d4e21e1a8894ec,6734d6999015dcf6c8e0fb59,2024-11-13_17h53.25.246,Tarea de género gramatical,2024.2.2,Win32,119.047619,,,,,,,,,,,,,,,,,,,,,,,440.9239,442.2023,l,1,0.621,,[],[],[],[],[],[],[],0.621,1,442.2024,442.6996,,,,,,269,MAS,CON,150,primo,,l,442.6997,442.6998,-0.1296875,-0.096875,0,0,0,,0,179,179,268,1,,,,
,,,,,,4a0ba20ae1f363a011832cce,66a626ef09d4e21e1a8894ec,6734d6999015dcf6c8e0fb59,2024-11-13_17h53.25.246,Tarea de género gramatical,2024.2.2,Win32,119.047619,,,,,,,,,,,,,,,,,,,,,,,442.7019,443.6941,a,0,0.3308,,[],[],[],[],[],[],[],0.3308,0,443.6952,444.1948,,,,,,24,MAS,DIS,150,voto,la,l,444.1948,444.1949,-0.1296875,-0.096875,0,0,0,,0,180,180,23,1,,,,
,,,,,,4a0ba20ae1f363a011832cce,66a626ef09d4e21e1a8894ec,6734d6999015dcf6c8e0fb59,2024-11-13_17h53.25.246,Tarea de género gramatical,2024.2.2,Win32,119.047619,,,,,,,,,,,,,,,,,,,,,,,444.196,445.8042,a,1,0.9453,,[],[],[],[],[],[],[],0.9453,1,445.8051,446.2956,,,,,,387,FEM,DIS,150,página,el,a,446.2957,446.2958,-0.1296875,-0.096875,0,0,0,,0,181,181,386,1,,,,
,,,,,,4a0ba20ae1f363a011832cce,66a626ef09d4e21e1a8894ec,6734d6999015dcf6c8e0fb59,2024-11-13_17h53.25.246,Tarea de género gramatical,2024.2.2,Win32,119.047619,,,,,,,,,,,,,,,,,,,,,,,446.2973,447.4324,l,1,0.4748,,[],[],[],[],[],[],[],0.4748,1,447.4324,447.9291,,,,,,414,MAS,DIS,150,sótano,la,l,447.9304,447.9312,-0.1296875,-0.096875,0,0,0,,0,182,182,413,1,,,,
,,,,,,4a0ba20ae1f363a011832cce,66a626ef09d4e21e1a8894ec,6734d6999015dcf6c8e0fb59,2024-11-13_17h53.25.246,Tarea de género gramatical,2024.2.2,Win32,119.047619,,,,,,,,,,,,,,,,,,,,,,,447.9318,448.915,a,1,0.325,,[],[],[],[],[],[],[],0.325,1,448.9151,449.4121,,,,,,158,FEM,CON,150,chica,,a,449.4122,449.4123,-0.1296875,-0.096875,0,0,0,,0,183,183,157,1,,,,
,,,,,,4a0ba20ae1f363a011832cce,66a626ef09d4e21e1a8894ec,6734d6999015dcf6c8e0fb59,2024-11-13_17h53.25.246,Tarea de género gramatical,2024.2.2,Win32,119.047619,,,,,,,,,,,,,,,,,,,,,,,449.4135,451.1001,l,1,1.0319,,[],[],[],[],[],[],[],1.0319,1,451.1002,451.5993,,,,,,444,MAS,DIS,150,límite,la,l,451.5993,451.5994,-0.1296875,-0.096875,0,0,0,,0,184,184,443,1,,,,
,,,,,,4a0ba20ae1f363a011832cce,66a626ef09d4e21e1a8894ec,6734d6999015dcf6c8e0fb59,2024-11-13_17h53.25.246,Tarea de género gramatical,2024.2.2,Win32,119.047619,,,,,,,,,,,,,,,,,,,,,,,451.6007,452.6874,a,1,0.4233,,[],[],[],[],[],[],[],0.4233,1,452.6875,453.1899,,,,,,219,FEM,DIS,150,costa,el,a,453.1899,453.19,-0.1296875,-0.096875,0,0,0,,0,185,185,218,1,,,,
,,,,,,4a0ba20ae1f363a011832cce,66a626ef09d4e21e1a8894ec,6734d6999015dcf6c8e0fb59,2024-11-13_17h53.25.246,Tarea de género gramatical,2024.2.2,Win32,119.047619,,,,,,,,,,,,,,,,,,,,,,,453.1911,454.3984,a,1,0.5524,,[],[],[],[],[],[],[],0.5524,1,454.3985,454.8986,,,,,,325,FEM,AGR,150,tierra,la,a,454.8999,454.9008,-0.1296875,-0.096875,0,0,0,,0,186,186,324,1,,,,
,,,,,,4a0ba20ae1f363a011832cce,66a626ef09d4e21e1a8894ec,6734d6999015dcf6c8e0fb59,2024-11-13_17h53.25.246,Tarea de género gramatical,2024.2.2,Win32,119.047619,,,,,,,,,,,,,,,,,,,,,,,454.9018,456.0319,l,1,0.4707,,[],[],[],[],[],[],[],0.4707,1,456.032,456.5308,,,,,,48,MAS,DIS,150,loco,la,l,456.5309,456.5309,-0.1296875,-0.096875,0,0,0,,0,187,187,47,1,,,,
,,,,,,4a0ba20ae1f363a011832cce,66a626ef09d4e21e1a8894ec,6734d6999015dcf6c8e0fb59,2024-11-13_17h53.25.246,Tarea de género gramatical,2024.2.2,Win32,119.047619,,,,,,,,,,,,,,,,,,,,,,,456.5319,458.0733,l,1,0.8835,,[],[],[],[],[],[],[],0.8835,1,458.0734,458.5703,,,,,,442,MAS,AGR,150,cuadro,el,l,458.5704,458.5704,-0.1296875,-0.096875,0,0,0,,0,188,188,441,1,,,,
,,,,,,4a0ba20ae1f363a011832cce,66a626ef09d4e21e1a8894ec,6734d6999015dcf6c8e0fb59,2024-11-13_17h53.25.246,Tarea de género gramatical,2024.2.2,Win32,119.047619,,,,,,,,,,,,,,,,,,,,,,,458.5719,459.6988,a,1,0.4588,,[],[],[],[],[],[],[],0.4588,1,459.6988,460.1938,,,,,,433,FEM,AGR,150,huella,la,a,460.1939,460.1941,-0.1296875,-0.096875,0,0,0,,0,189,189,432,1,,,,
,,,,,,4a0ba20ae1f363a011832cce,66a626ef09d4e21e1a8894ec,6734d6999015dcf6c8e0fb59,2024-11-13_17h53.25.246,Tarea de género gramatical,2024.2.2,Win32,119.047619,,,,,,,,,,,,,,,,,,,,,,,460.1954,461.1748,a,1,0.3212,,[],[],[],[],[],[],[],0.3212,1,461.1749,461.6742,,,,,,326,FEM,CON,150,música,,a,461.6743,461.6745,-0.1296875,-0.096875,0,0,0,,0,190,190,325,1,,,,
,,,,,,4a0ba20ae1f363a011832cce,66a626ef09d4e21e1a8894ec,6734d6999015dcf6c8e0fb59,2024-11-13_17h53.25.246,Tarea de género gramatical,2024.2.2,Win32,119.047619,,,,,,,,,,,,,,,,,,,,,,,461.6757,462.6927,l,1,0.353,,[],[],[],[],[],[],[],0.353,1,462.6929,463.1906,,,,,,419,MAS,CON,150,cuento,,l,463.1919,463.193,-0.1296875,-0.096875,0,0,0,,0,191,191,418,1,,,,
,,,,,,4a0ba20ae1f363a011832cce,66a626ef09d4e21e1a8894ec,6734d6999015dcf6c8e0fb59,2024-11-13_17h53.25.246,Tarea de género gramatical,2024.2.2,Win32,119.047619,,,,,,,,,,,,,,,,,,,,,,,463.1939,464.2911,a,1,0.4374,,[],[],[],[],[],[],[],0.4374,1,464.2912,464.7905,,,,,,249,FEM,DIS,150,crema,el,a,464.7905,464.7907,-0.1296875,-0.096875,0,0,0,,0,192,192,248,1,,,,
,,,,,,4a0ba20ae1f363a011832cce,66a626ef09d4e21e1a8894ec,6734d6999015dcf6c8e0fb59,2024-11-13_17h53.25.246,Tarea de género gramatical,2024.2.2,Win32,119.047619,,,,,,,,,,,,,,,,,,,,,,,464.7925,466.0415,l,1,0.5845,,[],[],[],[],[],[],[],0.5845,1,466.0416,466.5402,,,,,,323,MAS,CON,150,marido,,l,466.5403,466.5403,-0.1296875,-0.096875,0,0,0,,0,193,193,322,1,,,,
,,,,,,4a0ba20ae1f363a011832cce,66a626ef09d4e21e1a8894ec,6734d6999015dcf6c8e0fb59,2024-11-13_17h53.25.246,Tarea de género gramatical,2024.2.2,Win32,119.047619,,,,,,,,,,,,,,,,,,,,,,,466.5415,467.6539,l,1,0.4503,,[],[],[],[],[],[],[],0.4503,1,467.654,468.1598,,,,,,262,MAS,AGR,150,video,el,l,468.1599,468.1602,-0.1296875,-0.096875,0,0,0,,0,194,194,261,1,,,,
,,,,,,4a0ba20ae1f363a011832cce,66a626ef09d4e21e1a8894ec,6734d6999015dcf6c8e0fb59,2024-11-13_17h53.25.246,Tarea de género gramatical,2024.2.2,Win32,119.047619,,,,,,,,,,,,,,,,,,,,,,,468.162,469.3367,a,0,0.5051,,[],[],[],[],[],[],[],0.5051,0,469.3377,469.8385,,,,,,120,MAS,DIS,150,puño,la,l,469.8402,469.8412,-0.1296875,-0.096875,0,0,0,,0,195,195,119,1,,,,
,,,,,,4a0ba20ae1f363a011832cce,66a626ef09d4e21e1a8894ec,6734d6999015dcf6c8e0fb59,2024-11-13_17h53.25.246,Tarea de género gramatical,2024.2.2,Win32,119.047619,,,,,,,,,,,,,,,,,,,,,,,469.8425,471.4552,l,1,0.9411,,[],[],[],[],[],[],[],0.9411,1,471.4563,471.9691,,,,,,383,MAS,CON,150,parque,,l,471.9691,471.9692,-0.1296875,-0.096875,0,0,0,,0,196,196,382,1,,,,
,,,,,,4a0ba20ae1f363a011832cce,66a626ef09d4e21e1a8894ec,6734d6999015dcf6c8e0fb59,2024-11-13_17h53.25.246,Tarea de género gramatical,2024.2.2,Win32,119.047619,,,,,,,,,,,,,,,,,,,,,,,471.9711,473.2392,a,1,0.6013,,[],[],[],[],[],[],[],0.6013,1,473.2393,473.7321,,,,,,380,FEM,CON,150,madera,,a,473.7322,473.7323,-0.1296875,-0.096875,0,0,0,,0,197,197,379,1,,,,
,,,,,,4a0ba20ae1f363a011832cce,66a626ef09d4e21e1a8894ec,6734d6999015dcf6c8e0fb59,2024-11-13_17h53.25.246,Tarea de género gramatical,2024.2.2,Win32,119.047619,,,,,,,,,,,,,,,,,,,,,,,473.7344,475.5796,l,1,1.1732,,[],[],[],[],[],[],[],1.1732,1,475.5797,476.0733,,,,,,184,MAS,AGR,150,cielo,el,l,476.0733,476.0734,-0.1296875,-0.096875,0,0,0,,0,198,198,183,1,,,,
,,,,,,4a0ba20ae1f363a011832cce,66a626ef09d4e21e1a8894ec,6734d6999015dcf6c8e0fb59,2024-11-13_17h53.25.246,Tarea de género gramatical,2024.2.2,Win32,119.047619,,,,,,,,,,,,,,,,,,,,,,,476.075,477.468,l,1,0.728,,[],[],[],[],[],[],[],0.728,1,477.4681,477.9729,,,,,,280,MAS,AGR,150,salón,el,l,477.973,477.9731,-0.1296875,-0.096875,0,0,0,,0,199,199,279,1,,,,
,,,,,,4a0ba20ae1f363a011832cce,66a626ef09d4e21e1a8894ec,6734d6999015dcf6c8e0fb59,2024-11-13_17h53.25.246,Tarea de género gramatical,2024.2.2,Win32,119.047619,,,,,,,,,,,,,,,,,,,,,,,477.9748,479.6095,a,1,0.9708,,[],[],[],[],[],[],[],0.9708,1,479.6096,480.1104,,,,,,157,FEM,AGR,150,madre,la,a,480.1124,480.1134,-0.1296875,-0.096875,0,0,0,,0,200,200,156,1,,,,
,,,,,,4a0ba20ae1f363a011832cce,66a626ef09d4e21e1a8894ec,6734d6999015dcf6c8e0fb59,2024-11-13_17h53.25.246,Tarea de género gramatical,2024.2.2,Win32,119.047619,,,,,,,,,,,,,,,,,,,,,,,480.1142,481.3418,l,1,0.5656,,[],[],[],[],[],[],[],0.5656,1,481.342,481.8352,,,,,,216,MAS,DIS,150,éxito,la,l,481.8353,481.8355,-0.1296875,-0.096875,0,0,0,,0,201,201,215,1,,,,
,,,,,,4a0ba20ae1f363a011832cce,66a626ef09d4e21e1a8894ec,6734d6999015dcf6c8e0fb59,2024-11-13_17h53.25.246,Tarea de género gramatical,2024.2.2,Win32,119.047619,,,,,,,,,,,,,,,,,,,,,,,481.8373,482.945,a,1,0.4408,,[],[],[],[],[],[],[],0.4408,1,482.9451,483.4444,,,,,,273,FEM,DIS,150,tarta,el,a,483.4445,483.4446,-0.1296875,-0.096875,0,0,0,,0,202,202,272,1,,,,
,,,,,,4a0ba20ae1f363a011832cce,66a626ef09d4e21e1a8894ec,6734d6999015dcf6c8e0fb59,2024-11-13_17h53.25.246,Tarea de género gramatical,2024.2.2,Win32,119.047619,,,,,,,,,,,,,,,,,,,,,,,483.4463,484.4813,l,1,0.3629,,[],[],[],[],[],[],[],0.3629,1,484.4814,484.9769,,,,,,179,MAS,CON,150,viaje,,l,484.9769,484.9771,-0.1296875,-0.096875,0,0,0,,0,203,203,178,1,,,,
,,,,,,4a0ba20ae1f363a011832cce,66a626ef09d4e21e1a8894ec,6734d6999015dcf6c8e0fb59,2024-11-13_17h53.25.246,Tarea de género gramatical,2024.2.2,Win32,119.047619,,,,,,,,,,,,,,,,,,,,,,,484.9787,486.0943,l,0,0.45,,[],[],[],[],[],[],[],0.45,0,486.0955,486.5902,,,,,,267,FEM,DIS,150,barba,el,a,486.5922,486.5934,-0.1296875,-0.096875,0,0,0,,0,204,204,266,1,,,,
,,,,,,4a0ba20ae1f363a011832cce,66a626ef09d4e21e1a8894ec,6734d6999015dcf6c8e0fb59,2024-11-13_17h53.25.246,Tarea de género gramatical,2024.2.2,Win32,119.047619,,,,,,,,,,,,,,,,,,,,,,,486.5944,487.9028,l,1,0.6346,,[],[],[],[],[],[],[],0.6346,1,487.9043,488.4072,,,,,,208,MAS,AGR,150,suelo,el,l,488.4073,488.4074,-0.1296875,-0.096875,0,0,0,,0,205,205,207,1,,,,
,,,,,,4a0ba20ae1f363a011832cce,66a626ef09d4e21e1a8894ec,6734d6999015dcf6c8e0fb59,2024-11-13_17h53.25.246,Tarea de género gramatical,2024.2.2,Win32,119.047619,,,,,,,,,,,,,,,,,,,,,,,488.4092,489.6309,a,1,0.5561,,[],[],[],[],[],[],[],0.5561,1,489.631,490.1302,,,,,,386,FEM,CON,150,sombra,,a,490.1302,490.1304,-0.1296875,-0.096875,0,0,0,,0,206,206,385,1,,,,
,,,,,,4a0ba20ae1f363a011832cce,66a626ef09d4e21e1a8894ec,6734d6999015dcf6c8e0fb59,2024-11-13_17h53.25.246,Tarea de género gramatical,2024.2.2,Win32,119.047619,,,,,,,,,,,,,,,,,,,,,,,490.1312,491.1177,a,1,0.3179,,[],[],[],[],[],[],[],0.3179,1,491.1178,491.6215,,,,,,14,FEM,CON,150,cara,,a,491.6216,491.6217,-0.1296875,-0.096875,0,0,0,,0,207,207,13,1,,,,
,,,,,,4a0ba20ae1f363a011832cce,66a626ef09d4e21e1a8894ec,6734d6999015dcf6c8e0fb59,2024-11-13_17h53.25.246,Tarea de género gramatical,2024.2.2,Win32,119.047619,,,,,,,,,,,,,,,,,,,,,,,491.6224,492.7929,a,1,0.4979,,[],[],[],[],[],[],[],0.4979,1,492.7929,493.2914,,,,,,92,FEM,CON,150,masa,,a,493.2914,493.2915,-0.1296875,-0.096875,0,0,0,,0,208,208,91,1,,,,
,,,,,,4a0ba20ae1f363a011832cce,66a626ef09d4e21e1a8894ec,6734d6999015dcf6c8e0fb59,2024-11-13_17h53.25.246,Tarea de género gramatical,2024.2.2,Win32,119.047619,,,,,,,,,,,,,,,,,,,,,,,493.2923,494.5128,l,1,0.5538,,[],[],[],[],[],[],[],0.5538,1,494.513,495.011,,,,,,89,MAS,CON,150,maíz,,l,495.0125,495.0132,-0.1296875,-0.096875,0,0,0,,0,209,209,88,1,,,,
,,,,,,4a0ba20ae1f363a011832cce,66a626ef09d4e21e1a8894ec,6734d6999015dcf6c8e0fb59,2024-11-13_17h53.25.246,Tarea de género gramatical,2024.2.2,Win32,119.047619,,,,,,,,,,,,,,,,,,,,,,,495.0141,496.1305,l,1,0.4462,,[],[],[],[],[],[],[],0.4462,1,496.1307,496.6239,,,,,,178,MAS,AGR,150,punto,el,l,496.6239,496.6241,-0.1296875,-0.096875,0,0,0,,0,210,210,177,1,,,,
,,,,,,4a0ba20ae1f363a011832cce,66a626ef09d4e21e1a8894ec,6734d6999015dcf6c8e0fb59,2024-11-13_17h53.25.246,Tarea de género gramatical,2024.2.2,Win32,119.047619,,,,,,,,,,,,,,,,,,,,,,,496.6258,498.4296,l,1,1.1247,,[],[],[],[],[],[],[],1.1247,1,498.4296,498.9251,,,,,,436,MAS,AGR,150,objeto,el,l,498.9251,498.9255,-0.1296875,-0.096875,0,0,0,,0,211,211,435,1,,,,
,,,,,,4a0ba20ae1f363a011832cce,66a626ef09d4e21e1a8894ec,6734d6999015dcf6c8e0fb59,2024-11-13_17h53.25.246,Tarea de género gramatical,2024.2.2,Win32,119.047619,,,,,,,,,,,,,,,,,,,,,,,498.9267,500.0768,l,1,0.4899,,[],[],[],[],[],[],[],0.4899,1,500.0769,500.565,,,,,,304,MAS,AGR,150,tiempo,el,l,500.5651,500.5652,-0.1296875,-0.096875,0,0,0,,0,212,212,303,1,,,,
,,,,,,4a0ba20ae1f363a011832cce,66a626ef09d4e21e1a8894ec,6734d6999015dcf6c8e0fb59,2024-11-13_17h53.25.246,Tarea de género gramatical,2024.2.2,Win32,119.047619,,,,,,,,,,,,,,,,,,,,,,,500.5669,501.4308,l,1,0.1963,,[],[],[],[],[],[],[],0.1963,1,501.4309,501.9296,,,,,,233,MAS,CON,150,golpe,,l,501.9308,501.9313,-0.1296875,-0.096875,0,0,0,,0,213,213,232,1,,,,
,,,,,,4a0ba20ae1f363a011832cce,66a626ef09d4e21e1a8894ec,6734d6999015dcf6c8e0fb59,2024-11-13_17h53.25.246,Tarea de género gramatical,2024.2.2,Win32,119.047619,,,,,,,,,,,,,,,,,,,,,,,501.932,502.9526,a,1,0.3516,,[],[],[],[],[],[],[],0.3516,1,502.9527,503.4511,,,,,,49,FEM,AGR,150,piel,la,a,503.4512,503.4514,-0.1296875,-0.096875,0,0,0,,0,214,214,48,1,,,,
,,,,,,4a0ba20ae1f363a011832cce,66a626ef09d4e21e1a8894ec,6734d6999015dcf6c8e0fb59,2024-11-13_17h53.25.246,Tarea de género gramatical,2024.2.2,Win32,119.047619,,,,,,,,,,,,,,,,,,,,,,,503.4529,504.9348,l,1,0.8225,,[],[],[],[],[],[],[],0.8225,1,504.935,505.4353,,,,,,420,MAS,DIS,150,helado,la,l,505.4354,505.4356,-0.1296875,-0.096875,0,0,0,,0,215,215,419,1,,,,
,,,,,,4a0ba20ae1f363a011832cce,66a626ef09d4e21e1a8894ec,6734d6999015dcf6c8e0fb59,2024-11-13_17h53.25.246,Tarea de género gramatical,2024.2.2,Win32,119.047619,,,,,,,,,,,,,,,,,,,,,,,505.4376,506.7654,a,1,0.6569,,[],[],[],[],[],[],[],0.6569,1,506.7655,507.2636,,,,,,397,FEM,AGR,150,cuerda,la,a,507.2637,507.2638,-0.1296875,-0.096875,0,0,0,,0,216,216,396,1,,,,
,,,,,,4a0ba20ae1f363a011832cce,66a626ef09d4e21e1a8894ec,6734d6999015dcf6c8e0fb59,2024-11-13_17h53.25.246,Tarea de género gramatical,2024.2.2,Win32,119.047619,,,,,,,,,,,,,,,,,,,,,,,507.2653,508.7389,l,1,0.8083,,[],[],[],[],[],[],[],0.8083,1,508.739,509.2227,,,,,,276,MAS,DIS,150,ritmo,la,l,509.2229,509.2229,-0.1296875,-0.096875,0,0,0,,0,217,217,275,1,,,,
,,,,,,4a0ba20ae1f363a011832cce,66a626ef09d4e21e1a8894ec,6734d6999015dcf6c8e0fb59,2024-11-13_17h53.25.246,Tarea de género gramatical,2024.2.2,Win32,119.047619,,,,,,,,,,,,,,,,,,,,,,,509.2246,510.4085,l,1,0.516,,[],[],[],[],[],[],[],0.516,1,510.4086,510.9056,,,,,,4,MAS,AGR,150,hijo,el,l,510.9072,510.9079,-0.1296875,-0.096875,0,0,0,,0,218,218,3,1,,,,
,,,,,,4a0ba20ae1f363a011832cce,66a626ef09d4e21e1a8894ec,6734d6999015dcf6c8e0fb59,2024-11-13_17h53.25.246,Tarea de género gramatical,2024.2.2,Win32,119.047619,,,,,,,,,,,,,,,,,,,,,,,510.9088,511.9507,a,1,0.3813,,[],[],[],[],[],[],[],0.3813,1,511.9509,512.4437,,,,,,20,FEM,CON,150,ropa,,a,512.4438,512.4439,-0.1296875,-0.096875,0,0,0,,0,219,219,19,1,,,,
,,,,,,4a0ba20ae1f363a011832cce,66a626ef09d4e21e1a8894ec,6734d6999015dcf6c8e0fb59,2024-11-13_17h53.25.246,Tarea de género gramatical,2024.2.2,Win32,119.047619,,,,,,,,,,,,,,,,,,,,,,,512.4462,513.6507,l,1,0.5415,,[],[],[],[],[],[],[],0.5415,1,513.6508,514.1483,,,,,,268,MAS,AGR,150,truco,el,l,514.1483,514.1484,-0.1296875,-0.096875,0,0,0,,0,220,220,267,1,,,,
,,,,,,4a0ba20ae1f363a011832cce,66a626ef09d4e21e1a8894ec,6734d6999015dcf6c8e0fb59,2024-11-13_17h53.25.246,Tarea de género gramatical,2024.2.2,Win32,119.047619,,,,,,,,,,,,,,,,,,,,,,,514.15,515.1344,l,1,0.3197,,[],[],[],[],[],[],[],0.3197,1,515.1346,515.6292,,,,,,234,MAS,DIS,150,héroe,la,l,515.6292,515.6294,-0.1296875,-0.096875,0,0,0,,0,221,221,233,1,,,,
,,,,,,4a0ba20ae1f363a011832cce,66a626ef09d4e21e1a8894ec,6734d6999015dcf6c8e0fb59,2024-11-13_17h53.25.246,Tarea de género gramatical,2024.2.2,Win32,119.047619,,,,,,,,,,,,,,,,,,,,,,,515.6304,516.9519,a,1,0.6489,,[],[],[],[],[],[],[],0.6489,1,516.952,517.4482,,,,,,27,FEM,DIS,150,mesa,el,a,517.4497,517.4508,-0.1296875,-0.096875,0,0,0,,0,222,222,26,1,,,,
,,,,,,4a0ba20ae1f363a011832cce,66a626ef09d4e21e1a8894ec,6734d6999015dcf6c8e0fb59,2024-11-13_17h53.25.246,Tarea de género gramatical,2024.2.2,Win32,119.047619,,,,,,,,,,,,,,,,,,,,,,,517.4515,518.7764,l,1,0.6547,,[],[],[],[],[],[],[],0.6547,1,518.7765,519.2769,,,,,,77,MAS,CON,150,pico,,l,519.2771,519.2772,-0.1296875,-0.096875,0,0,0,,0,223,223,76,1,,,,
,,,,,,4a0ba20ae1f363a011832cce,66a626ef09d4e21e1a8894ec,6734d6999015dcf6c8e0fb59,2024-11-13_17h53.25.246,Tarea de género gramatical,2024.2.2,Win32,119.047619,,,,,,,,,,,,,,,,,,,,,,,519.2792,520.272,a,1,0.3209,,[],[],[],[],[],[],[],0.3209,1,520.2722,520.7851,,,,,,127,FEM,AGR,150,cuna,la,a,520.7852,520.7853,-0.1296875,-0.096875,0,0,0,,0,224,224,126,1,,,,
,,,,,,4a0ba20ae1f363a011832cce,66a626ef09d4e21e1a8894ec,6734d6999015dcf6c8e0fb59,2024-11-13_17h53.25.246,Tarea de género gramatical,2024.2.2,Win32,119.047619,,,,,,,,,,,,,,,,,,,,,,,520.787,522.008,a,1,0.5572,,[],[],[],[],[],[],[],0.5572,1,522.0081,522.5119,,,,,,169,FEM,AGR,150,vista,la,a,522.512,522.5121,-0.1296875,-0.096875,0,0,0,,0,225,225,168,1,,,,
,,,,,,4a0ba20ae1f363a011832cce,66a626ef09d4e21e1a8894ec,6734d6999015dcf6c8e0fb59,2024-11-13_17h53.25.246,Tarea de género gramatical,2024.2.2,Win32,119.047619,,,,,,,,,,,,,,,,,,,,,,,522.5137,523.5757,a,1,0.3926,,[],[],[],[],[],[],[],0.3926,1,523.5758,524.0671,,,,,,75,FEM,DIS,150,caza,el,a,524.0672,524.0672,-0.1296875,-0.096875,0,0,0,,0,226,226,74,1,,,,
,,,,,,4a0ba20ae1f363a011832cce,66a626ef09d4e21e1a8894ec,6734d6999015dcf6c8e0fb59,2024-11-13_17h53.25.246,Tarea de género gramatical,2024.2.2,Win32,119.047619,,,,,,,,,,,,,,,,,,,,,,,524.069,525.5058,l,1,0.7689,,[],[],[],[],[],[],[],0.7689,1,525.5059,526.0185,,,,,,124,MAS,AGR,150,clan,el,l,526.0205,526.0214,-0.1296875,-0.096875,0,0,0,,0,227,227,123,1,,,,
,,,,,,4a0ba20ae1f363a011832cce,66a626ef09d4e21e1a8894ec,6734d6999015dcf6c8e0fb59,2024-11-13_17h53.25.246,Tarea de género gramatical,2024.2.2,Win32,119.047619,,,,,,,,,,,,,,,,,,,,,,,526.0223,527.0347,l,1,0.3422,,[],[],[],[],[],[],[],0.3422,1,527.035,527.526,,,,,,36,MAS,DIS,150,dedo,la,l,527.5261,527.5262,-0.1296875,-0.096875,0,0,0,,0,228,228,35,1,,,,
,,,,,,4a0ba20ae1f363a011832cce,66a626ef09d4e21e1a8894ec,6734d6999015dcf6c8e0fb59,2024-11-13_17h53.25.246,Tarea de género gramatical,2024.2.2,Win32,119.047619,,,,,,,,,,,,,,,,,,,,,,,527.5284,528.5231,a,1,0.3288,,[],[],[],[],[],[],[],0.3288,1,528.5232,529.0263,,,,,,50,FEM,CON,150,dama,,a,529.0263,529.0264,-0.1296875,-0.096875,0,0,0,,0,229,229,49,1,,,,
,,,,,,4a0ba20ae1f363a011832cce,66a626ef09d4e21e1a8894ec,6734d6999015dcf6c8e0fb59,2024-11-13_17h53.25.246,Tarea de género gramatical,2024.2.2,Win32,119.047619,,,,,,,,,,,,,,,,,,,,,,,529.0279,530.3266,l,1,0.6254,,[],[],[],[],[],[],[],0.6254,1,530.3267,530.8093,,,,,,394,MAS,AGR,150,examen,el,l,530.8094,530.8095,-0.1296875,-0.096875,0,0,0,,0,230,230,393,1,,,,
,,,,,,4a0ba20ae1f363a011832cce,66a626ef09d4e21e1a8894ec,6734d6999015dcf6c8e0fb59,2024-11-13_17h53.25.246,Tarea de género gramatical,2024.2.2,Win32,119.047619,,,,,,,,,,,,,,,,,,,,,,,530.8114,531.9598,a,1,0.476,,[],[],[],[],[],[],[],0.476,1,531.96,532.4599,,,,,,290,FEM,CON,150,cabra,,a,532.462,532.4629,-0.1296875,-0.096875,0,0,0,,0,231,231,289,1,,,,
,,,,,,4a0ba20ae1f363a011832cce,66a626ef09d4e21e1a8894ec,6734d6999015dcf6c8e0fb59,2024-11-13_17h53.25.246,Tarea de género gramatical,2024.2.2,Win32,119.047619,,,,,,,,,,,,,,,,,,,,,,,532.4639,533.8334,l,1,0.7074,,[],[],[],[],[],[],[],0.7074,1,533.8334,534.3249,,,,,,83,MAS,CON,150,nene,,l,534.325,534.3251,-0.1296875,-0.096875,0,0,0,,0,232,232,82,1,,,,
,,,,,,4a0ba20ae1f363a011832cce,66a626ef09d4e21e1a8894ec,6734d6999015dcf6c8e0fb59,2024-11-13_17h53.25.246,Tarea de género gramatical,2024.2.2,Win32,119.047619,,,,,,,,,,,,,,,,,,,,,,,534.3263,535.7612,l,1,0.7617,,[],[],[],[],[],[],[],0.7617,1,535.7614,536.259,,,,,,372,MAS,DIS,150,delito,la,l,536.2591,536.2592,-0.1296875,-0.096875,0,0,0,,0,233,233,371,1,,,,
,,,,,,4a0ba20ae1f363a011832cce,66a626ef09d4e21e1a8894ec,6734d6999015dcf6c8e0fb59,2024-11-13_17h53.25.246,Tarea de género gramatical,2024.2.2,Win32,119.047619,,,,,,,,,,,,,,,,,,,,,,,536.2605,537.3935,a,1,0.4601,,[],[],[],[],[],[],[],0.4601,1,537.3937,537.8931,,,,,,200,FEM,CON,150,silla,,a,537.8932,537.8934,-0.1296875,-0.096875,0,0,0,,0,234,234,199,1,,,,
,,,,,,4a0ba20ae1f363a011832cce,66a626ef09d4e21e1a8894ec,6734d6999015dcf6c8e0fb59,2024-11-13_17h53.25.246,Tarea de género gramatical,2024.2.2,Win32,119.047619,,,,,,,,,,,,,,,,,,,,,,,537.8952,539.1522,a,1,0.5816,,[],[],[],[],[],[],[],0.5816,1,539.1524,539.6418,,,,,,9,FEM,DIS,150,mamá,el,a,539.6419,539.642,-0.1296875,-0.096875,0,0,0,,0,235,235,8,1,,,,
,,,,,,4a0ba20ae1f363a011832cce,66a626ef09d4e21e1a8894ec,6734d6999015dcf6c8e0fb59,2024-11-13_17h53.25.246,Tarea de género gramatical,2024.2.2,Win32,119.047619,,,,,,,,,,,,,,,,,,,,,,,539.6428,540.643,a,1,0.3407,,[],[],[],[],[],[],[],0.3407,1,540.6432,541.1449,,,,,,398,FEM,CON,150,hierba,,a,541.1466,541.1475,-0.1296875,-0.096875,0,0,0,,0,236,236,397,1,,,,
,,,,,,4a0ba20ae1f363a011832cce,66a626ef09d4e21e1a8894ec,6734d6999015dcf6c8e0fb59,2024-11-13_17h53.25.246,Tarea de género gramatical,2024.2.2,Win32,119.047619,,,,,,,,,,,,,,,,,,,,,,,541.1484,542.2147,l,1,0.4032,,[],[],[],[],[],[],[],0.4032,1,542.2148,542.7144,,,,,,258,MAS,DIS,150,polvo,la,l,542.7145,542.7146,-0.1296875,-0.096875,0,0,0,,0,237,237,257,1,,,,
,,,,,,4a0ba20ae1f363a011832cce,66a626ef09d4e21e1a8894ec,6734d6999015dcf6c8e0fb59,2024-11-13_17h53.25.246,Tarea de género gramatical,2024.2.2,Win32,119.047619,,,,,,,,,,,,,,,,,,,,,,,542.7165,543.7103,a,1,0.3337,,[],[],[],[],[],[],[],0.3337,1,543.7104,544.2098,,,,,,98,FEM,CON,150,fuga,,a,544.2099,544.21,-0.1296875,-0.096875,0,0,0,,0,238,238,97,1,,,,
,,,,,,4a0ba20ae1f363a011832cce,66a626ef09d4e21e1a8894ec,6734d6999015dcf6c8e0fb59,2024-11-13_17h53.25.246,Tarea de género gramatical,2024.2.2,Win32,119.047619,,,,,,,,,,,,,,,,,,,,,,,544.2124,545.3334,l,1,0.4627,,[],[],[],[],[],[],[],0.4627,1,545.3336,545.8253,,,,,,204,MAS,DIS,150,papel,la,l,545.8254,545.8255,-0.1296875,-0.096875,0,0,0,,0,239,239,203,1,,,,
,,,,,,4a0ba20ae1f363a011832cce,66a626ef09d4e21e1a8894ec,6734d6999015dcf6c8e0fb59,2024-11-13_17h53.25.246,Tarea de género gramatical,2024.2.2,Win32,119.047619,,,,,,,,,,,,,,,,,,,,,,,545.8269,546.892,a,1,0.4014,,[],[],[],[],[],[],[],0.4014,1,546.8921,547.4002,,,,,,51,FEM,DIS,150,bala,el,a,547.4015,547.4022,-0.1296875,-0.096875,0,0,0,,0,240,240,50,1,,,,
,,,,,,4a0ba20ae1f363a011832cce,66a626ef09d4e21e1a8894ec,6734d6999015dcf6c8e0fb59,2024-11-13_17h53.25.246,Tarea de género gramatical,2024.2.2,Win32,119.047619,,,,,,,,,,,,,,,,,,,,,,,547.4027,548.5016,l,1,0.4246,,[],[],[],[],[],[],[],0.4246,1,548.5019,549.0013,,,,,,378,MAS,DIS,150,pastel,la,l,549.0014,549.0015,-0.1296875,-0.096875,0,0,0,,0,241,241,377,1,,,,
,,,,,,4a0ba20ae1f363a011832cce,66a626ef09d4e21e1a8894ec,6734d6999015dcf6c8e0fb59,2024-11-13_17h53.25.246,Tarea de género gramatical,2024.2.2,Win32,119.047619,,,,,,,,,,,,,,,,,,,,,,,549.0031,550.0414,a,1,0.376,,[],[],[],[],[],[],[],0.376,1,550.0415,550.5304,,,,,,7,FEM,AGR,150,hora,la,a,550.5305,550.5306,-0.1296875,-0.096875,0,0,0,,0,242,242,6,1,,,,
,,,,,,4a0ba20ae1f363a011832cce,66a626ef09d4e21e1a8894ec,6734d6999015dcf6c8e0fb59,2024-11-13_17h53.25.246,Tarea de género gramatical,2024.2.2,Win32,119.047619,,,,,,,,,,,,,,,,,,,,,,,550.5328,551.6832,l,1,0.4829,,[],[],[],[],[],[],[],0.4829,1,551.6833,552.1669,,,,,,366,MAS,DIS,150,riesgo,la,l,552.167,552.1671,-0.1296875,-0.096875,0,0,0,,0,243,243,365,1,,,,
,,,,,,4a0ba20ae1f363a011832cce,66a626ef09d4e21e1a8894ec,6734d6999015dcf6c8e0fb59,2024-11-13_17h53.25.246,Tarea de género gramatical,2024.2.2,Win32,119.047619,,,,,,,,,,,,,,,,,,,,,,,552.1687,553.2267,l,1,0.388,,[],[],[],[],[],[],[],0.388,1,553.227,553.721,,,,,,198,MAS,DIS,150,hotel,la,l,553.7211,553.7212,-0.1296875,-0.096875,0,0,0,,0,244,244,197,1,,,,
,,,,,,4a0ba20ae1f363a011832cce,66a626ef09d4e21e1a8894ec,6734d6999015dcf6c8e0fb59,2024-11-13_17h53.25.246,Tarea de género gramatical,2024.2.2,Win32,119.047619,,,,,,,,,,,,,,,,,,,,,,,553.7229,554.7342,l,1,0.3425,,[],[],[],[],[],[],[],0.3425,1,554.7344,555.2336,,,,,,402,MAS,DIS,150,ladrón,la,l,555.2355,555.2364,-0.1296875,-0.096875,0,0,0,,0,245,245,401,1,,,,
,,,,,,4a0ba20ae1f363a011832cce,66a626ef09d4e21e1a8894ec,6734d6999015dcf6c8e0fb59,2024-11-13_17h53.25.246,Tarea de género gramatical,2024.2.2,Win32,119.047619,,,,,,,,,,,,,,,,,,,,,,,555.2372,556.2764,l,1,0.3716,,[],[],[],[],[],[],[],0.3716,1,556.2765,556.7695,,,,,,334,MAS,AGR,150,ataque,el,l,556.7696,556.7697,-0.1296875,-0.096875,0,0,0,,0,246,246,333,1,,,,
,,,,,,4a0ba20ae1f363a011832cce,66a626ef09d4e21e1a8894ec,6734d6999015dcf6c8e0fb59,2024-11-13_17h53.25.246,Tarea de género gramatical,2024.2.2,Win32,119.047619,,,,,,,,,,,,,,,,,,,,,,,556.7713,557.7616,l,1,0.3222,,[],[],[],[],[],[],[],0.3222,1,557.7618,558.257,,,,,,137,MAS,CON,150,coco,,l,558.257,558.2571,-0.1296875,-0.096875,0,0,0,,0,247,247,136,1,,,,
,,,,,,4a0ba20ae1f363a011832cce,66a626ef09d4e21e1a8894ec,6734d6999015dcf6c8e0fb59,2024-11-13_17h53.25.246,Tarea de género gramatical,2024.2.2,Win32,119.047619,,,,,,,,,,,,,,,,,,,,,,,558.2589,559.1795,l,1,0.2578,,[],[],[],[],[],[],[],0.2578,1,559.1796,559.6757,,,,,,443,MAS,CON,150,templo,,l,559.6757,559.6759,-0.1296875,-0.096875,0,0,0,,0,248,248,442,1,,,,
,,,,,,4a0ba20ae1f363a011832cce,66a626ef09d4e21e1a8894ec,6734d6999015dcf6c8e0fb59,2024-11-13_17h53.25.246,Tarea de género gramatical,2024.2.2,Win32,119.047619,,,,,,,,,,,,,,,,,,,,,,,559.6775,560.6644,l,1,0.3157,,[],[],[],[],[],[],[],0.3157,1,560.6645,561.1649,,,,,,257,MAS,CON,150,pecho,,l,561.1667,561.1676,-0.1296875,-0.096875,0,0,0,,0,249,249,256,1,,,,
,,,,,,4a0ba20ae1f363a011832cce,66a626ef09d4e21e1a8894ec,6734d6999015dcf6c8e0fb59,2024-11-13_17h53.25.246,Tarea de género gramatical,2024.2.2,Win32,119.047619,,,,,,,,,,,,,,,,,,,,,,,561.1687,562.4013,l,1,0.5663,,[],[],[],[],[],[],[],0.5663,1,562.4015,562.8951,,,,,,330,MAS,DIS,150,estado,la,l,562.8952,562.8953,-0.1296875,-0.096875,0,0,0,,0,250,250,329,1,,,,
,,,,,,4a0ba20ae1f363a011832cce,66a626ef09d4e21e1a8894ec,6734d6999015dcf6c8e0fb59,2024-11-13_17h53.25.246,Tarea de género gramatical,2024.2.2,Win32,119.047619,,,,,,,,,,,,,,,,,,,,,,,562.8966,563.9748,a,1,0.4128,,[],[],[],[],[],[],[],0.4128,1,563.975,564.4735,,,,,,91,FEM,AGR,150,hoja,la,a,564.4736,564.4737,-0.1296875,-0.096875,0,0,0,,0,251,251,90,1,,,,
,,,,,,4a0ba20ae1f363a011832cce,66a626ef09d4e21e1a8894ec,6734d6999015dcf6c8e0fb59,2024-11-13_17h53.25.246,Tarea de género gramatical,2024.2.2,Win32,119.047619,,,,,,,,,,,,,,,,,,,,,,,564.4751,565.5995,a,1,0.4629,,[],[],[],[],[],[],[],0.4629,1,565.5996,566.0984,,,,,,259,FEM,AGR,150,prima,la,a,566.0984,566.0986,-0.1296875,-0.096875,0,0,0,,0,252,252,258,1,,,,
,,,,,,4a0ba20ae1f363a011832cce,66a626ef09d4e21e1a8894ec,6734d6999015dcf6c8e0fb59,2024-11-13_17h53.25.246,Tarea de género gramatical,2024.2.2,Win32,119.047619,,,,,,,,,,,,,,,,,,,,,,,566.1004,567.637,a,1,0.874,,[],[],[],[],[],[],[],0.874,1,567.6372,568.1383,,,,,,147,FEM,DIS,150,grúa,el,a,568.1384,568.1384,-0.1296875,-0.096875,0,0,0,,0,253,253,146,1,,,,
,,,,,,4a0ba20ae1f363a011832cce,66a626ef09d4e21e1a8894ec,6734d6999015dcf6c8e0fb59,2024-11-13_17h53.25.246,Tarea de género gramatical,2024.2.2,Win32,119.047619,,,,,,,,,,,,,,,,,,,,,,,568.1393,569.448,l,1,0.6427,,[],[],[],[],[],[],[],0.6427,1,569.4481,569.9472,,,,,,292,MAS,AGR,150,piano,el,l,569.9494,569.9505,-0.1296875,-0.096875,0,0,0,,0,254,254,291,1,,,,
,,,,,,4a0ba20ae1f363a011832cce,66a626ef09d4e21e1a8894ec,6734d6999015dcf6c8e0fb59,2024-11-13_17h53.25.246,Tarea de género gramatical,2024.2.2,Win32,119.047619,,,,,,,,,,,,,,,,,,,,,,,569.9515,571.4756,a,1,0.8598,,[],[],[],[],[],[],[],0.8598,1,571.4758,571.9673,,,,,,117,FEM,DIS,150,raya,el,a,571.9673,571.9674,-0.1296875,-0.096875,0,0,0,,0,255,255,116,1,,,,
