counterbalancing_condition,consent_prescreening.block_1/declare_consent,consent_prescreening.block_1/age_years,consent_prescreening.block_1/gender,consent_prescreening.block_1/language_disorder,consent_prescreening.block_1/first_language,PROLIFIC_PID,STUDY_ID,SESSION_ID,date,expName,psychopyVersion,OS,frameRate,check_prescreening_answers.started,check_prescreening_answers.stopped,Instructions.started,Instructions.stopped,instr_done_keyboard.keys,instr_done_keyboard.rt,instr_done_keyboard.duration,instr_done_touch.x,instr_done_touch.y,instr_done_touch.leftButton,instr_done_touch.midButton,instr_done_touch.rightButton,instruction_pages.thisRepN,instruction_pages.thisTrialN,instruction_pages.thisN,instruction_pages.thisIndex,instruction_pages.ran,pageN,phase,instruct_text,has_image,instruct_image,presentTrial.started,presentTrial.stopped,response.keys,response.corr,response.rt,response.duration,touch_resp.x,touch_resp.y,touch_resp.leftButton,touch_resp.midButton,touch_resp.rightButton,touch_resp.time,touch_resp.clicked_name,rt,corr,feedback.started,feedback.stopped,practice_trials.thisRepN,practice_trials.thisTrialN,practice_trials.thisN,practice_trials.thisIndex,practice_trials.ran,TrialID,StimulusType,Condition,PrimeDuration,Prime,Flanker,corrAns,instr_done_touch.clicked_name,Break.started,Break.stopped,break_done_touch.x,break_done_touch.y,break_done_touch.leftButton,break_done_touch.midButton,break_done_touch.rightButton,break_done_keyboard.keys,experiment_trials.thisRepN,experiment_trials.thisTrialN,experiment_trials.thisN,experiment_trials.thisIndex,experiment_trials.ran,break_done_keyboard.rt,break_done_keyboard.duration,End.started,End.stopped
2,"[""over_18"",""comfortable"",""read_info"",""consent_given""]",25,F,"[""none""]","[""spanish""]",4abe905ba7adfc087a0af385,66a626ef09d4e21e1a8894ec,6734a02d2b5a663439a4f70b,2024-11-13_09h49.00.754,Tarea de género gramatical,2024.2.2,Win32,59.88023952,,,,,,,,,,,,,,,,,,,,,,,,,,,,,,,,,,,,,,,,,,,,,,,,,,,,,,,,,,,,,,,,,,,,,
,,,,,,4abe905ba7adfc087a0af385,66a626ef09d4e21e1a8894ec,6734a02d2b5a663439a4f70b,2024-11-13_09h49.00.754,Tarea de género gramatical,2024.2.2,Win32,59.88023952,18.844,18.8445,,,,,,,,,,,,,,,,,,,,,,,,,,,,,,,,,,,,,,,,,,,,,,,,,,,,,,,,,,,,,,,,,,,
,,,,,,4abe905ba7adfc087a0af385,66a626ef09d4e21e1a8894ec,6734a02d2b5a663439a4f70b,2024-11-13_09h49.00.754,Tarea de género gramatical,2024.2.2,Win32,59.88023952,,,18.8783,31.9927,space,13.086,,0.059895833,-0.40234375,0,0,0,0,0,0,0,1,1,instructions,"INSTRUCCIONES
Va a realizar una prueba de selección gramatical. Desde el comienzo de la prueba mire siempre al centro de la pantalla. Al cabo de un momento, aparecerán palabras. La tarea consiste en determinar si la palabra del centro (siempre será un sustantivo), pertenece al género masculino o femenino.

Pulse la tecla ESPACIO o toque el botón de abajo para continuar.",0,keyboardresponseFM.png,,,,,,,,,,,,,,,,,,,,,,,,,,,,,,,,,,,,,,,,,,,,,,,
,,,,,,4abe905ba7adfc087a0af385,66a626ef09d4e21e1a8894ec,6734a02d2b5a663439a4f70b,2024-11-13_09h49.00.754,Tarea de género gramatical,2024.2.2,Win32,59.88023952,,,32.0009,40.2002,space,8.1348,,0.048177083,0.205729167,0,0,0,0,1,1,1,1,2,instructions,"Si su dispositivo tiene teclado, pulse la tecla ""A"" para las palabras en femenino (por ejemplo: ""mano"") y la tecla ""L"" para las palabras en masculino(por ejemplo: ""arroz"").
Pulse la tecla ESPACIO o toque el botón de abajo para continuar.",1,keyboardresponseFM.png,,,,,,,,,,,,,,,,,,,,,,,,,,,,,,,,,,,,,,,,,,,,,,,
,,,,,,4abe905ba7adfc087a0af385,66a626ef09d4e21e1a8894ec,6734a02d2b5a663439a4f70b,2024-11-13_09h49.00.754,Tarea de género gramatical,2024.2.2,Win32,59.88023952,,,40.2048,48.4316,space,8.1832,,0.048177083,0.205729167,0,0,0,0,2,2,2,1,3,instructions,"Si utiliza un dispositivo sólo táctil, colóquelo en horizontal y utilice los botones de la pantalla. No utilice el ratón.
Pulse la tecla ESPACIO o toque el botón de abajo para continuar.",2,touchresponseFM.png,,,,,,,,,,,,,,,,,,,,,,,,,,,,,,,,,,,,,,,,,,,,,,,
,,,,,,4abe905ba7adfc087a0af385,66a626ef09d4e21e1a8894ec,6734a02d2b5a663439a4f70b,2024-11-13_09h49.00.754,Tarea de género gramatical,2024.2.2,Win32,59.88023952,,,48.4374,61.6131,space,13.1588,,0.048177083,0.205729167,0,0,0,0,3,3,3,1,4,instructions,"Es muy importante que responda con la mayor rapidez y precisión posibles, ya que cada cadena de letras sólo estará en pantalla durante un instante. Si no responde en ese tiempo, aparecerá el mensaje ""Muy lento"" y el experimento pasará a la siguiente palabra. Los primeros 15 intentos serán de práctica y habrá dos descansos durante la prueba.
Pulse la tecla ESPACIO o toque el botón de abajo para iniciar la parte de práctica.",0,keyboardresponseFM.png,,,,,,,,,,,,,,,,,,,,,,,,,,,,,,,,,,,,,,,,,,,,,,,
,,,,,,4abe905ba7adfc087a0af385,66a626ef09d4e21e1a8894ec,6734a02d2b5a663439a4f70b,2024-11-13_09h49.00.754,Tarea de género gramatical,2024.2.2,Win32,59.88023952,,,,,,,,,,,,,,,,,,,,,,,61.6502,62.7946,a,0,0.474,,[],[],[],[],[],[],[],0.474,0,62.795,63.3001,0,0,0,12,1,2013,MAS,AGR,150,acero,el,l,,,,,,,,,,,,,,,,,,
,,,,,,4abe905ba7adfc087a0af385,66a626ef09d4e21e1a8894ec,6734a02d2b5a663439a4f70b,2024-11-13_09h49.00.754,Tarea de género gramatical,2024.2.2,Win32,59.88023952,,,,,,,,,,,,,,,,,,,,,,,63.3046,64.3968,a,1,0.4159,,[],[],[],[],[],[],[],0.4159,1,64.3977,64.8923,0,1,1,6,1,2007,FEM,AGR,150,navaja,la,a,,,,,,,,,,,,,,,,,,
,,,,,,4abe905ba7adfc087a0af385,66a626ef09d4e21e1a8894ec,6734a02d2b5a663439a4f70b,2024-11-13_09h49.00.754,Tarea de género gramatical,2024.2.2,Win32,59.88023952,,,,,,,,,,,,,,,,,,,,,,,64.8947,66.0746,a,0,0.4905,,[],[],[],[],[],[],[],0.4905,0,66.0763,66.5786,0,2,2,14,1,2015,MAS,DIS,150,robot,la,l,,,,,,,,,,,,,,,,,,
,,,,,,4abe905ba7adfc087a0af385,66a626ef09d4e21e1a8894ec,6734a02d2b5a663439a4f70b,2024-11-13_09h49.00.754,Tarea de género gramatical,2024.2.2,Win32,59.88023952,,,,,,,,,,,,,,,,,,,,,,,66.581,67.7296,l,1,0.4685,,[],[],[],[],[],[],[],0.4685,1,67.7315,68.2279,0,3,3,9,1,2010,MAS,AGR,150,vecino,el,l,,,,,,,,,,,,,,,,,,
,,,,,,4abe905ba7adfc087a0af385,66a626ef09d4e21e1a8894ec,6734a02d2b5a663439a4f70b,2024-11-13_09h49.00.754,Tarea de género gramatical,2024.2.2,Win32,59.88023952,,,,,,,,,,,,,,,,,,,,,,,68.2313,69.3095,a,1,0.4006,,[],[],[],[],[],[],[],0.4006,1,69.3096,69.809,0,4,4,7,1,2008,FEM,CON,150,siesta,,a,,,,,,,,,,,,,,,,,,
,,,,,,4abe905ba7adfc087a0af385,66a626ef09d4e21e1a8894ec,6734a02d2b5a663439a4f70b,2024-11-13_09h49.00.754,Tarea de género gramatical,2024.2.2,Win32,59.88023952,,,,,,,,,,,,,,,,,,,,,,,69.8118,70.7861,a,0,0.2911,,[],[],[],[],[],[],[],0.2911,0,70.7879,71.2744,0,5,5,13,1,2014,MAS,CON,150,siglo,,l,,,,,,,,,,,,,,,,,,
,,,,,,4abe905ba7adfc087a0af385,66a626ef09d4e21e1a8894ec,6734a02d2b5a663439a4f70b,2024-11-13_09h49.00.754,Tarea de género gramatical,2024.2.2,Win32,59.88023952,,,,,,,,,,,,,,,,,,,,,,,71.2777,72.5574,l,1,0.6118,,[],[],[],[],[],[],[],0.6118,1,72.5592,73.0519,0,6,6,8,1,2009,MAS,DIS,150,puerto,la,l,,,,,,,,,,,,,,,,,,
,,,,,,4abe905ba7adfc087a0af385,66a626ef09d4e21e1a8894ec,6734a02d2b5a663439a4f70b,2024-11-13_09h49.00.754,Tarea de género gramatical,2024.2.2,Win32,59.88023952,,,,,,,,,,,,,,,,,,,,,,,73.0561,75.7038,,0,,,[],[],[],[],[],[],[],0.6118,-1,75.7074,76.2029,0,7,7,11,1,2012,MAS,DIS,150,clima,la,l,,,,,,,,,,,,,,,,,,
,,,,,,4abe905ba7adfc087a0af385,66a626ef09d4e21e1a8894ec,6734a02d2b5a663439a4f70b,2024-11-13_09h49.00.754,Tarea de género gramatical,2024.2.2,Win32,59.88023952,,,,,,,,,,,,,,,,,,,,,,,76.2051,77.6027,a,1,0.728,,[],[],[],[],[],[],[],0.728,1,77.6047,78.096,0,8,8,0,1,2001,FEM,AGR,150,nuca,la,a,,,,,,,,,,,,,,,,,,
,,,,,,4abe905ba7adfc087a0af385,66a626ef09d4e21e1a8894ec,6734a02d2b5a663439a4f70b,2024-11-13_09h49.00.754,Tarea de género gramatical,2024.2.2,Win32,59.88023952,,,,,,,,,,,,,,,,,,,,,,,78.0979,79.3009,a,1,0.518,,[],[],[],[],[],[],[],0.518,1,79.3011,79.8,0,9,9,1,1,2002,FEM,CON,150,pala,,a,,,,,,,,,,,,,,,,,,
,,,,,,4abe905ba7adfc087a0af385,66a626ef09d4e21e1a8894ec,6734a02d2b5a663439a4f70b,2024-11-13_09h49.00.754,Tarea de género gramatical,2024.2.2,Win32,59.88023952,,,,,,,,,,,,,,,,,,,,,,,79.8023,80.8614,a,1,0.375,,[],[],[],[],[],[],[],0.375,1,80.8617,81.3602,0,10,10,3,1,2004,FEM,AGR,150,venta,la,a,,,,,,,,,,,,,,,,,,
,,,,,,4abe905ba7adfc087a0af385,66a626ef09d4e21e1a8894ec,6734a02d2b5a663439a4f70b,2024-11-13_09h49.00.754,Tarea de género gramatical,2024.2.2,Win32,59.88023952,,,,,,,,,,,,,,,,,,,,,,,81.3638,82.4606,l,0,0.4311,,[],[],[],[],[],[],[],0.4311,0,82.4615,82.9587,0,11,11,2,1,2003,FEM,DIS,150,daga,el,a,,,,,,,,,,,,,,,,,,
,,,,,,4abe905ba7adfc087a0af385,66a626ef09d4e21e1a8894ec,6734a02d2b5a663439a4f70b,2024-11-13_09h49.00.754,Tarea de género gramatical,2024.2.2,Win32,59.88023952,,,,,,,,,,,,,,,,,,,,,,,82.9613,84.0409,a,1,0.4175,,[],[],[],[],[],[],[],0.4175,1,84.043,84.5452,0,12,12,4,1,2005,FEM,CON,150,placa,,a,,,,,,,,,,,,,,,,,,
,,,,,,4abe905ba7adfc087a0af385,66a626ef09d4e21e1a8894ec,6734a02d2b5a663439a4f70b,2024-11-13_09h49.00.754,Tarea de género gramatical,2024.2.2,Win32,59.88023952,,,,,,,,,,,,,,,,,,,,,,,84.5478,85.7449,l,0,0.5283,,[],[],[],[],[],[],[],0.5283,0,85.7471,86.2387,0,13,13,5,1,2006,FEM,DIS,150,serie,el,a,,,,,,,,,,,,,,,,,,
,,,,,,4abe905ba7adfc087a0af385,66a626ef09d4e21e1a8894ec,6734a02d2b5a663439a4f70b,2024-11-13_09h49.00.754,Tarea de género gramatical,2024.2.2,Win32,59.88023952,,,,,,,,,,,,,,,,,,,,,,,86.2413,87.3264,a,0,0.4133,,[],[],[],[],[],[],[],0.4133,0,87.3266,87.8254,0,14,14,10,1,2011,MAS,CON,150,canal,,l,,,,,,,,,,,,,,,,,,
,,,,,,4abe905ba7adfc087a0af385,66a626ef09d4e21e1a8894ec,6734a02d2b5a663439a4f70b,2024-11-13_09h49.00.754,Tarea de género gramatical,2024.2.2,Win32,59.88023952,,,90.0762,92.9001,,2.2134,,0.009114583,-0.395833333,1,0,0,,,,,,,,,,,92.9485,94.0309,a,1,0.3998,,[],[],[],[],[],[],[],0.3998,1,94.0329,94.5304,,,,,,1214,FEM,AGR,150,señora,la,a,instr_done_button,94.5312,94.5417,0.178385417,-0.2265625,0,0,0,,0,0,0,313,1,,,,
,,,,,,4abe905ba7adfc087a0af385,66a626ef09d4e21e1a8894ec,6734a02d2b5a663439a4f70b,2024-11-13_09h49.00.754,Tarea de género gramatical,2024.2.2,Win32,59.88023952,,,,,,,,,,,,,,,,,,,,,,,94.5433,95.5129,l,1,0.3009,,[],[],[],[],[],[],[],0.3009,1,95.5134,96.0123,,,,,,959,MAS,AGR,150,lobo,el,l,,96.0125,96.0128,0.178385417,-0.2265625,0,0,0,,0,1,1,58,1,,,,
,,,,,,4abe905ba7adfc087a0af385,66a626ef09d4e21e1a8894ec,6734a02d2b5a663439a4f70b,2024-11-13_09h49.00.754,Tarea de género gramatical,2024.2.2,Win32,59.88023952,,,,,,,,,,,,,,,,,,,,,,,96.0161,97.028,a,1,0.3375,,[],[],[],[],[],[],[],0.3375,1,97.0282,97.5274,,,,,,1297,FEM,DIS,150,cuerda,el,a,,97.5317,97.5342,0.178385417,-0.2265625,0,0,0,,0,2,2,396,1,,,,
,,,,,,4abe905ba7adfc087a0af385,66a626ef09d4e21e1a8894ec,6734a02d2b5a663439a4f70b,2024-11-13_09h49.00.754,Tarea de género gramatical,2024.2.2,Win32,59.88023952,,,,,,,,,,,,,,,,,,,,,,,97.5367,98.5765,a,1,0.3721,,[],[],[],[],[],[],[],0.3721,1,98.5767,99.076,,,,,,1311,FEM,CON,150,actriz,,a,,99.0761,99.0765,0.178385417,-0.2265625,0,0,0,,0,3,3,410,1,,,,
,,,,,,4abe905ba7adfc087a0af385,66a626ef09d4e21e1a8894ec,6734a02d2b5a663439a4f70b,2024-11-13_09h49.00.754,Tarea de género gramatical,2024.2.2,Win32,59.88023952,,,,,,,,,,,,,,,,,,,,,,,99.079,100.0744,a,0,0.3257,,[],[],[],[],[],[],[],0.3257,0,100.0763,100.5743,,,,,,1348,MAS,DIS,150,aceite,la,l,,100.5744,100.5747,0.178385417,-0.2265625,0,0,0,,0,4,4,447,1,,,,
,,,,,,4abe905ba7adfc087a0af385,66a626ef09d4e21e1a8894ec,6734a02d2b5a663439a4f70b,2024-11-13_09h49.00.754,Tarea de género gramatical,2024.2.2,Win32,59.88023952,,,,,,,,,,,,,,,,,,,,,,,100.5773,101.7063,a,0,0.4568,,[],[],[],[],[],[],[],0.4568,0,101.7066,102.2062,,,,,,953,MAS,AGR,150,vaso,el,l,,102.2064,102.207,0.178385417,-0.2265625,0,0,0,,0,5,5,52,1,,,,
,,,,,,4abe905ba7adfc087a0af385,66a626ef09d4e21e1a8894ec,6734a02d2b5a663439a4f70b,2024-11-13_09h49.00.754,Tarea de género gramatical,2024.2.2,Win32,59.88023952,,,,,,,,,,,,,,,,,,,,,,,102.2103,103.2885,a,1,0.405,,[],[],[],[],[],[],[],0.405,1,103.2906,103.7882,,,,,,1064,FEM,AGR,150,novia,la,a,,103.7929,103.7976,0.178385417,-0.2265625,0,0,0,,0,6,6,163,1,,,,
,,,,,,4abe905ba7adfc087a0af385,66a626ef09d4e21e1a8894ec,6734a02d2b5a663439a4f70b,2024-11-13_09h49.00.754,Tarea de género gramatical,2024.2.2,Win32,59.88023952,,,,,,,,,,,,,,,,,,,,,,,103.7994,105.0368,a,1,0.5679,,[],[],[],[],[],[],[],0.5679,1,105.0371,105.5363,,,,,,993,FEM,CON,150,lata,,a,,105.5364,105.5368,0.178385417,-0.2265625,0,0,0,,0,7,7,92,1,,,,
,,,,,,4abe905ba7adfc087a0af385,66a626ef09d4e21e1a8894ec,6734a02d2b5a663439a4f70b,2024-11-13_09h49.00.754,Tarea de género gramatical,2024.2.2,Win32,59.88023952,,,,,,,,,,,,,,,,,,,,,,,105.5391,106.4851,l,1,0.2669,,[],[],[],[],[],[],[],0.2669,1,106.4853,106.9843,,,,,,1284,MAS,CON,150,pedazo,,l,,106.9843,106.9846,0.178385417,-0.2265625,0,0,0,,0,8,8,383,1,,,,
,,,,,,4abe905ba7adfc087a0af385,66a626ef09d4e21e1a8894ec,6734a02d2b5a663439a4f70b,2024-11-13_09h49.00.754,Tarea de género gramatical,2024.2.2,Win32,59.88023952,,,,,,,,,,,,,,,,,,,,,,,106.9866,107.9506,l,1,0.2889,,[],[],[],[],[],[],[],0.2889,1,107.9509,108.4494,,,,,,1122,MAS,CON,150,valor,,l,,108.4494,108.4496,0.178385417,-0.2265625,0,0,0,,0,9,9,221,1,,,,
,,,,,,4abe905ba7adfc087a0af385,66a626ef09d4e21e1a8894ec,6734a02d2b5a663439a4f70b,2024-11-13_09h49.00.754,Tarea de género gramatical,2024.2.2,Win32,59.88023952,,,,,,,,,,,,,,,,,,,,,,,108.4507,109.4326,l,1,0.3039,,[],[],[],[],[],[],[],0.3039,1,109.4328,109.9318,,,,,,1212,MAS,CON,150,equipo,,l,,109.9319,109.9322,0.178385417,-0.2265625,0,0,0,,0,10,10,311,1,,,,
,,,,,,4abe905ba7adfc087a0af385,66a626ef09d4e21e1a8894ec,6734a02d2b5a663439a4f70b,2024-11-13_09h49.00.754,Tarea de género gramatical,2024.2.2,Win32,59.88023952,,,,,,,,,,,,,,,,,,,,,,,109.9362,110.8645,a,1,0.252,,[],[],[],[],[],[],[],0.252,1,110.8648,111.3639,,,,,,1003,FEM,DIS,150,fama,el,a,,111.3682,111.3704,0.178385417,-0.2265625,0,0,0,,0,11,11,102,1,,,,
,,,,,,4abe905ba7adfc087a0af385,66a626ef09d4e21e1a8894ec,6734a02d2b5a663439a4f70b,2024-11-13_09h49.00.754,Tarea de género gramatical,2024.2.2,Win32,59.88023952,,,,,,,,,,,,,,,,,,,,,,,111.3725,112.4463,a,0,0.4004,,[],[],[],[],[],[],[],0.4004,0,112.4482,112.9456,,,,,,1282,MAS,DIS,150,teatro,la,l,,112.9458,112.946,0.178385417,-0.2265625,0,0,0,,0,12,12,381,1,,,,
,,,,,,4abe905ba7adfc087a0af385,66a626ef09d4e21e1a8894ec,6734a02d2b5a663439a4f70b,2024-11-13_09h49.00.754,Tarea de género gramatical,2024.2.2,Win32,59.88023952,,,,,,,,,,,,,,,,,,,,,,,112.9485,114.0445,l,1,0.4203,,[],[],[],[],[],[],[],0.4203,1,114.0466,114.5442,,,,,,1272,MAS,CON,150,delito,,l,,114.5443,114.5446,0.178385417,-0.2265625,0,0,0,,0,13,13,371,1,,,,
,,,,,,4abe905ba7adfc087a0af385,66a626ef09d4e21e1a8894ec,6734a02d2b5a663439a4f70b,2024-11-13_09h49.00.754,Tarea de género gramatical,2024.2.2,Win32,59.88023952,,,,,,,,,,,,,,,,,,,,,,,114.547,115.7098,a,1,0.4877,,[],[],[],[],[],[],[],0.4877,1,115.7101,116.2091,,,,,,1119,FEM,CON,150,costa,,a,,116.2092,116.2094,0.178385417,-0.2265625,0,0,0,,0,14,14,218,1,,,,
,,,,,,4abe905ba7adfc087a0af385,66a626ef09d4e21e1a8894ec,6734a02d2b5a663439a4f70b,2024-11-13_09h49.00.754,Tarea de género gramatical,2024.2.2,Win32,59.88023952,,,,,,,,,,,,,,,,,,,,,,,116.2119,117.208,a,1,0.3204,,[],[],[],[],[],[],[],0.3204,1,117.2082,117.7078,,,,,,1202,FEM,AGR,150,cabeza,la,a,,117.7122,117.7145,0.178385417,-0.2265625,0,0,0,,0,15,15,301,1,,,,
,,,,,,4abe905ba7adfc087a0af385,66a626ef09d4e21e1a8894ec,6734a02d2b5a663439a4f70b,2024-11-13_09h49.00.754,Tarea de género gramatical,2024.2.2,Win32,59.88023952,,,,,,,,,,,,,,,,,,,,,,,117.7161,118.8391,l,0,0.4482,,[],[],[],[],[],[],[],0.4482,0,118.8402,119.3387,,,,,,1203,FEM,CON,150,maldad,,a,,119.3388,119.3389,0.178385417,-0.2265625,0,0,0,,0,16,16,302,1,,,,
,,,,,,4abe905ba7adfc087a0af385,66a626ef09d4e21e1a8894ec,6734a02d2b5a663439a4f70b,2024-11-13_09h49.00.754,Tarea de género gramatical,2024.2.2,Win32,59.88023952,,,,,,,,,,,,,,,,,,,,,,,119.3399,120.5378,l,1,0.5199,,[],[],[],[],[],[],[],0.5199,1,120.5389,121.0372,,,,,,1312,MAS,DIS,150,espejo,la,l,,121.0373,121.0375,0.178385417,-0.2265625,0,0,0,,0,17,17,411,1,,,,
,,,,,,4abe905ba7adfc087a0af385,66a626ef09d4e21e1a8894ec,6734a02d2b5a663439a4f70b,2024-11-13_09h49.00.754,Tarea de género gramatical,2024.2.2,Win32,59.88023952,,,,,,,,,,,,,,,,,,,,,,,121.0393,122.2697,l,1,0.5509,,[],[],[],[],[],[],[],0.5509,1,122.27,122.7695,,,,,,1085,MAS,AGR,150,sueño,el,l,,122.7697,122.7699,0.178385417,-0.2265625,0,0,0,,0,18,18,184,1,,,,
,,,,,,4abe905ba7adfc087a0af385,66a626ef09d4e21e1a8894ec,6734a02d2b5a663439a4f70b,2024-11-13_09h49.00.754,Tarea de género gramatical,2024.2.2,Win32,59.88023952,,,,,,,,,,,,,,,,,,,,,,,122.7724,123.8682,l,1,0.4231,,[],[],[],[],[],[],[],0.4231,1,123.8684,124.3672,,,,,,1313,MAS,AGR,150,diario,el,l,,124.3673,124.3675,0.178385417,-0.2265625,0,0,0,,0,19,19,412,1,,,,
,,,,,,4abe905ba7adfc087a0af385,66a626ef09d4e21e1a8894ec,6734a02d2b5a663439a4f70b,2024-11-13_09h49.00.754,Tarea de género gramatical,2024.2.2,Win32,59.88023952,,,,,,,,,,,,,,,,,,,,,,,124.3688,125.4668,a,1,0.417,,[],[],[],[],[],[],[],0.417,1,125.467,125.9664,,,,,,975,FEM,CON,150,caza,,a,,125.9709,125.9729,0.178385417,-0.2265625,0,0,0,,0,20,20,74,1,,,,
,,,,,,4abe905ba7adfc087a0af385,66a626ef09d4e21e1a8894ec,6734a02d2b5a663439a4f70b,2024-11-13_09h49.00.754,Tarea de género gramatical,2024.2.2,Win32,59.88023952,,,,,,,,,,,,,,,,,,,,,,,125.9751,127.0986,l,0,0.4526,,[],[],[],[],[],[],[],0.4526,0,127.1004,127.598,,,,,,1093,FEM,DIS,150,bolsa,el,a,,127.5981,127.5983,0.178385417,-0.2265625,0,0,0,,0,21,21,192,1,,,,
,,,,,,4abe905ba7adfc087a0af385,66a626ef09d4e21e1a8894ec,6734a02d2b5a663439a4f70b,2024-11-13_09h49.00.754,Tarea de género gramatical,2024.2.2,Win32,59.88023952,,,,,,,,,,,,,,,,,,,,,,,127.6025,128.7302,a,1,0.4558,,[],[],[],[],[],[],[],0.4558,1,128.7319,129.2298,,,,,,1233,FEM,CON,150,locura,,a,,129.2298,129.2301,0.178385417,-0.2265625,0,0,0,,0,22,22,332,1,,,,
,,,,,,4abe905ba7adfc087a0af385,66a626ef09d4e21e1a8894ec,6734a02d2b5a663439a4f70b,2024-11-13_09h49.00.754,Tarea de género gramatical,2024.2.2,Win32,59.88023952,,,,,,,,,,,,,,,,,,,,,,,129.2343,130.6448,l,0,0.7419,,[],[],[],[],[],[],[],0.7419,0,130.6467,131.1441,,,,,,1333,FEM,DIS,150,huella,el,a,,131.1444,131.1447,0.178385417,-0.2265625,0,0,0,,0,23,23,432,1,,,,
,,,,,,4abe905ba7adfc087a0af385,66a626ef09d4e21e1a8894ec,6734a02d2b5a663439a4f70b,2024-11-13_09h49.00.754,Tarea de género gramatical,2024.2.2,Win32,59.88023952,,,,,,,,,,,,,,,,,,,,,,,131.1477,132.2602,a,1,0.4333,,[],[],[],[],[],[],[],0.4333,1,132.2619,132.7596,,,,,,1129,FEM,DIS,150,celda,el,a,,132.7644,132.7665,0.178385417,-0.2265625,0,0,0,,0,24,24,228,1,,,,
,,,,,,4abe905ba7adfc087a0af385,66a626ef09d4e21e1a8894ec,6734a02d2b5a663439a4f70b,2024-11-13_09h49.00.754,Tarea de género gramatical,2024.2.2,Win32,59.88023952,,,,,,,,,,,,,,,,,,,,,,,132.7686,133.8251,a,1,0.3827,,[],[],[],[],[],[],[],0.3827,1,133.8255,134.3245,,,,,,931,FEM,DIS,150,edad,el,a,,134.3246,134.3249,0.178385417,-0.2265625,0,0,0,,0,25,25,30,1,,,,
,,,,,,4abe905ba7adfc087a0af385,66a626ef09d4e21e1a8894ec,6734a02d2b5a663439a4f70b,2024-11-13_09h49.00.754,Tarea de género gramatical,2024.2.2,Win32,59.88023952,,,,,,,,,,,,,,,,,,,,,,,134.3278,135.3737,l,1,0.3693,,[],[],[],[],[],[],[],0.3693,1,135.374,135.8733,,,,,,988,MAS,DIS,150,pavo,la,l,,135.8734,135.8736,0.178385417,-0.2265625,0,0,0,,0,26,26,87,1,,,,
,,,,,,4abe905ba7adfc087a0af385,66a626ef09d4e21e1a8894ec,6734a02d2b5a663439a4f70b,2024-11-13_09h49.00.754,Tarea de género gramatical,2024.2.2,Win32,59.88023952,,,,,,,,,,,,,,,,,,,,,,,135.8758,137.0382,l,0,0.4868,,[],[],[],[],[],[],[],0.4868,0,137.0394,137.5382,,,,,,1125,FEM,CON,150,pieza,,a,,137.5383,137.5385,0.178385417,-0.2265625,0,0,0,,0,27,27,224,1,,,,
,,,,,,4abe905ba7adfc087a0af385,66a626ef09d4e21e1a8894ec,6734a02d2b5a663439a4f70b,2024-11-13_09h49.00.754,Tarea de género gramatical,2024.2.2,Win32,59.88023952,,,,,,,,,,,,,,,,,,,,,,,137.5411,138.8195,a,1,0.6081,,[],[],[],[],[],[],[],0.6081,1,138.821,139.3196,,,,,,1327,FEM,DIS,150,agenda,el,a,,139.3197,139.3199,0.178385417,-0.2265625,0,0,0,,0,28,28,426,1,,,,
,,,,,,4abe905ba7adfc087a0af385,66a626ef09d4e21e1a8894ec,6734a02d2b5a663439a4f70b,2024-11-13_09h49.00.754,Tarea de género gramatical,2024.2.2,Win32,59.88023952,,,,,,,,,,,,,,,,,,,,,,,139.3219,140.4348,a,0,0.4409,,[],[],[],[],[],[],[],0.4409,0,140.4367,140.9347,,,,,,1188,MAS,CON,150,grado,,l,,140.9388,140.9409,0.178385417,-0.2265625,0,0,0,,0,29,29,287,1,,,,
,,,,,,4abe905ba7adfc087a0af385,66a626ef09d4e21e1a8894ec,6734a02d2b5a663439a4f70b,2024-11-13_09h49.00.754,Tarea de género gramatical,2024.2.2,Win32,59.88023952,,,,,,,,,,,,,,,,,,,,,,,140.9428,142.1338,a,1,0.5215,,[],[],[],[],[],[],[],0.5215,1,142.1355,142.6334,,,,,,950,FEM,AGR,150,dama,la,a,,142.6336,142.6337,0.178385417,-0.2265625,0,0,0,,0,30,30,49,1,,,,
,,,,,,4abe905ba7adfc087a0af385,66a626ef09d4e21e1a8894ec,6734a02d2b5a663439a4f70b,2024-11-13_09h49.00.754,Tarea de género gramatical,2024.2.2,Win32,59.88023952,,,,,,,,,,,,,,,,,,,,,,,142.6365,143.6319,l,1,0.3246,,[],[],[],[],[],[],[],0.3246,1,143.6321,144.1317,,,,,,1253,MAS,AGR,150,verano,el,l,,144.1319,144.1321,0.178385417,-0.2265625,0,0,0,,0,31,31,352,1,,,,
,,,,,,4abe905ba7adfc087a0af385,66a626ef09d4e21e1a8894ec,6734a02d2b5a663439a4f70b,2024-11-13_09h49.00.754,Tarea de género gramatical,2024.2.2,Win32,59.88023952,,,,,,,,,,,,,,,,,,,,,,,144.1345,145.3306,a,1,0.5177,,[],[],[],[],[],[],[],0.5177,1,145.3308,145.8301,,,,,,1016,FEM,AGR,150,nube,la,a,,145.8303,145.8305,0.178385417,-0.2265625,0,0,0,,0,32,32,115,1,,,,
,,,,,,4abe905ba7adfc087a0af385,66a626ef09d4e21e1a8894ec,6734a02d2b5a663439a4f70b,2024-11-13_09h49.00.754,Tarea de género gramatical,2024.2.2,Win32,59.88023952,,,,,,,,,,,,,,,,,,,,,,,145.8329,146.8784,a,1,0.3679,,[],[],[],[],[],[],[],0.3679,1,146.8786,147.3787,,,,,,1088,FEM,AGR,150,bomba,la,a,,147.3833,147.385,0.178385417,-0.2265625,0,0,0,,0,33,33,187,1,,,,
,,,,,,4abe905ba7adfc087a0af385,66a626ef09d4e21e1a8894ec,6734a02d2b5a663439a4f70b,2024-11-13_09h49.00.754,Tarea de género gramatical,2024.2.2,Win32,59.88023952,,,,,,,,,,,,,,,,,,,,,,,147.3861,148.4443,l,0,0.3831,,[],[],[],[],[],[],[],0.3831,0,148.4467,148.9437,,,,,,1009,FEM,DIS,150,gota,el,a,,148.9439,148.944,0.178385417,-0.2265625,0,0,0,,0,34,34,108,1,,,,
,,,,,,4abe905ba7adfc087a0af385,66a626ef09d4e21e1a8894ec,6734a02d2b5a663439a4f70b,2024-11-13_09h49.00.754,Tarea de género gramatical,2024.2.2,Win32,59.88023952,,,,,,,,,,,,,,,,,,,,,,,148.9461,150.0755,a,1,0.4578,,[],[],[],[],[],[],[],0.4578,1,150.0775,150.5752,,,,,,1023,FEM,CON,150,tela,,a,,150.5754,150.5757,0.178385417,-0.2265625,0,0,0,,0,35,35,122,1,,,,
,,,,,,4abe905ba7adfc087a0af385,66a626ef09d4e21e1a8894ec,6734a02d2b5a663439a4f70b,2024-11-13_09h49.00.754,Tarea de género gramatical,2024.2.2,Win32,59.88023952,,,,,,,,,,,,,,,,,,,,,,,150.5783,151.7243,a,1,0.4724,,[],[],[],[],[],[],[],0.4724,1,151.7245,152.2239,,,,,,1177,FEM,DIS,150,plaza,el,a,,152.224,152.2243,0.178385417,-0.2265625,0,0,0,,0,36,36,276,1,,,,
,,,,,,4abe905ba7adfc087a0af385,66a626ef09d4e21e1a8894ec,6734a02d2b5a663439a4f70b,2024-11-13_09h49.00.754,Tarea de género gramatical,2024.2.2,Win32,59.88023952,,,,,,,,,,,,,,,,,,,,,,,152.2265,154.1052,l,1,1.2045,,[],[],[],[],[],[],[],1.2045,1,154.1054,154.6046,,,,,,1092,MAS,CON,150,grupo,,l,,154.6048,154.605,0.178385417,-0.2265625,0,0,0,,0,37,37,191,1,,,,
,,,,,,4abe905ba7adfc087a0af385,66a626ef09d4e21e1a8894ec,6734a02d2b5a663439a4f70b,2024-11-13_09h49.00.754,Tarea de género gramatical,2024.2.2,Win32,59.88023952,,,,,,,,,,,,,,,,,,,,,,,154.6075,155.7871,l,1,0.5016,,[],[],[],[],[],[],[],0.5016,1,155.7873,156.2864,,,,,,1114,MAS,DIS,150,fondo,la,l,,156.291,156.2925,0.178385417,-0.2265625,0,0,0,,0,38,38,213,1,,,,
,,,,,,4abe905ba7adfc087a0af385,66a626ef09d4e21e1a8894ec,6734a02d2b5a663439a4f70b,2024-11-13_09h49.00.754,Tarea de género gramatical,2024.2.2,Win32,59.88023952,,,,,,,,,,,,,,,,,,,,,,,156.2938,157.4509,a,1,0.486,,[],[],[],[],[],[],[],0.486,1,157.451,157.9516,,,,,,1213,FEM,DIS,150,ciudad,el,a,,157.9517,157.9519,0.178385417,-0.2265625,0,0,0,,0,39,39,312,1,,,,
,,,,,,4abe905ba7adfc087a0af385,66a626ef09d4e21e1a8894ec,6734a02d2b5a663439a4f70b,2024-11-13_09h49.00.754,Tarea de género gramatical,2024.2.2,Win32,59.88023952,,,,,,,,,,,,,,,,,,,,,,,157.9554,158.9668,l,1,0.3358,,[],[],[],[],[],[],[],0.3358,1,158.967,159.4668,,,,,,1330,MAS,DIS,150,título,la,l,,159.4669,159.4672,0.178385417,-0.2265625,0,0,0,,0,40,40,429,1,,,,
,,,,,,4abe905ba7adfc087a0af385,66a626ef09d4e21e1a8894ec,6734a02d2b5a663439a4f70b,2024-11-13_09h49.00.754,Tarea de género gramatical,2024.2.2,Win32,59.88023952,,,,,,,,,,,,,,,,,,,,,,,159.47,160.499,a,1,0.3564,,[],[],[],[],[],[],[],0.3564,1,160.4992,160.9981,,,,,,937,FEM,DIS,150,sala,el,a,,160.9982,160.9985,0.178385417,-0.2265625,0,0,0,,0,41,41,36,1,,,,
,,,,,,4abe905ba7adfc087a0af385,66a626ef09d4e21e1a8894ec,6734a02d2b5a663439a4f70b,2024-11-13_09h49.00.754,Tarea de género gramatical,2024.2.2,Win32,59.88023952,,,,,,,,,,,,,,,,,,,,,,,161.0012,162.0969,l,1,0.4208,,[],[],[],[],[],[],[],0.4208,1,162.0971,162.597,,,,,,1060,MAS,DIS,150,señor,la,l,,162.6,162.6018,0.178385417,-0.2265625,0,0,0,,0,42,42,159,1,,,,
,,,,,,4abe905ba7adfc087a0af385,66a626ef09d4e21e1a8894ec,6734a02d2b5a663439a4f70b,2024-11-13_09h49.00.754,Tarea de género gramatical,2024.2.2,Win32,59.88023952,,,,,,,,,,,,,,,,,,,,,,,162.6032,163.5961,a,1,0.3202,,[],[],[],[],[],[],[],0.3202,1,163.5965,164.0954,,,,,,1117,FEM,DIS,150,tarea,el,a,,164.0956,164.0959,0.178385417,-0.2265625,0,0,0,,0,43,43,216,1,,,,
,,,,,,4abe905ba7adfc087a0af385,66a626ef09d4e21e1a8894ec,6734a02d2b5a663439a4f70b,2024-11-13_09h49.00.754,Tarea de género gramatical,2024.2.2,Win32,59.88023952,,,,,,,,,,,,,,,,,,,,,,,164.0983,165.1279,l,0,0.3507,,[],[],[],[],[],[],[],0.3507,0,165.1297,165.6275,,,,,,1095,FEM,CON,150,pared,,a,,165.6276,165.6279,0.178385417,-0.2265625,0,0,0,,0,44,44,194,1,,,,
,,,,,,4abe905ba7adfc087a0af385,66a626ef09d4e21e1a8894ec,6734a02d2b5a663439a4f70b,2024-11-13_09h49.00.754,Tarea de género gramatical,2024.2.2,Win32,59.88023952,,,,,,,,,,,,,,,,,,,,,,,165.6302,166.7597,a,1,0.4534,,[],[],[],[],[],[],[],0.4534,1,166.7615,167.2591,,,,,,1321,FEM,DIS,150,novela,el,a,,167.2592,167.2595,0.178385417,-0.2265625,0,0,0,,0,45,45,420,1,,,,
,,,,,,4abe905ba7adfc087a0af385,66a626ef09d4e21e1a8894ec,6734a02d2b5a663439a4f70b,2024-11-13_09h49.00.754,Tarea de género gramatical,2024.2.2,Win32,59.88023952,,,,,,,,,,,,,,,,,,,,,,,167.2621,168.3073,a,1,0.3671,,[],[],[],[],[],[],[],0.3671,1,168.3075,168.8075,,,,,,1185,FEM,CON,150,mafia,,a,,168.8077,168.8079,0.178385417,-0.2265625,0,0,0,,0,46,46,284,1,,,,
,,,,,,4abe905ba7adfc087a0af385,66a626ef09d4e21e1a8894ec,6734a02d2b5a663439a4f70b,2024-11-13_09h49.00.754,Tarea de género gramatical,2024.2.2,Win32,59.88023952,,,,,,,,,,,,,,,,,,,,,,,168.8118,169.84,l,1,0.3517,,[],[],[],[],[],[],[],0.3517,1,169.8402,170.3387,,,,,,1180,MAS,DIS,150,salón,la,l,,170.3401,170.3419,0.178385417,-0.2265625,0,0,0,,0,47,47,279,1,,,,
,,,,,,4abe905ba7adfc087a0af385,66a626ef09d4e21e1a8894ec,6734a02d2b5a663439a4f70b,2024-11-13_09h49.00.754,Tarea de género gramatical,2024.2.2,Win32,59.88023952,,,,,,,,,,,,,,,,,,,,,,,170.3426,171.5045,a,1,0.4931,,[],[],[],[],[],[],[],0.4931,1,171.5048,172.0041,,,,,,1155,FEM,CON,150,tribu,,a,,172.0043,172.0046,0.178385417,-0.2265625,0,0,0,,0,48,48,254,1,,,,
,,,,,,4abe905ba7adfc087a0af385,66a626ef09d4e21e1a8894ec,6734a02d2b5a663439a4f70b,2024-11-13_09h49.00.754,Tarea de género gramatical,2024.2.2,Win32,59.88023952,,,,,,,,,,,,,,,,,,,,,,,172.0069,173.2529,l,1,0.5766,,[],[],[],[],[],[],[],0.5766,1,173.2531,173.7519,,,,,,906,MAS,CON,150,lado,,l,,173.752,173.7521,0.178385417,-0.2265625,0,0,0,,0,49,49,5,1,,,,
,,,,,,4abe905ba7adfc087a0af385,66a626ef09d4e21e1a8894ec,6734a02d2b5a663439a4f70b,2024-11-13_09h49.00.754,Tarea de género gramatical,2024.2.2,Win32,59.88023952,,,,,,,,,,,,,,,,,,,,,,,173.753,174.7686,a,1,0.3371,,[],[],[],[],[],[],[],0.3371,1,174.7688,175.2678,,,,,,1220,FEM,AGR,150,fiesta,la,a,,175.2679,175.2683,0.178385417,-0.2265625,0,0,0,,0,50,50,319,1,,,,
,,,,,,4abe905ba7adfc087a0af385,66a626ef09d4e21e1a8894ec,6734a02d2b5a663439a4f70b,2024-11-13_09h49.00.754,Tarea de género gramatical,2024.2.2,Win32,59.88023952,,,,,,,,,,,,,,,,,,,,,,,175.271,176.4501,a,1,0.5043,,[],[],[],[],[],[],[],0.5043,1,176.4504,176.9494,,,,,,908,FEM,AGR,150,idea,la,a,,176.9528,176.9553,0.178385417,-0.2265625,0,0,0,,0,51,51,7,1,,,,
,,,,,,4abe905ba7adfc087a0af385,66a626ef09d4e21e1a8894ec,6734a02d2b5a663439a4f70b,2024-11-13_09h49.00.754,Tarea de género gramatical,2024.2.2,Win32,59.88023952,,,,,,,,,,,,,,,,,,,,,,,176.9578,178.0487,l,1,0.42,,[],[],[],[],[],[],[],0.42,1,178.049,178.5481,,,,,,1349,MAS,AGR,150,payaso,el,l,,178.5483,178.5485,0.178385417,-0.2265625,0,0,0,,0,52,52,448,1,,,,
,,,,,,4abe905ba7adfc087a0af385,66a626ef09d4e21e1a8894ec,6734a02d2b5a663439a4f70b,2024-11-13_09h49.00.754,Tarea de género gramatical,2024.2.2,Win32,59.88023952,,,,,,,,,,,,,,,,,,,,,,,178.5524,179.6804,l,1,0.4546,,[],[],[],[],[],[],[],0.4546,1,179.6806,180.1801,,,,,,1150,MAS,DIS,150,cerdo,la,l,,180.1802,180.1806,0.178385417,-0.2265625,0,0,0,,0,53,53,249,1,,,,
,,,,,,4abe905ba7adfc087a0af385,66a626ef09d4e21e1a8894ec,6734a02d2b5a663439a4f70b,2024-11-13_09h49.00.754,Tarea de género gramatical,2024.2.2,Win32,59.88023952,,,,,,,,,,,,,,,,,,,,,,,180.1832,181.2787,a,1,0.4199,,[],[],[],[],[],[],[],0.4199,1,181.2789,181.7782,,,,,,1035,FEM,CON,150,raíz,,a,,181.7783,181.7785,0.178385417,-0.2265625,0,0,0,,0,54,54,134,1,,,,
,,,,,,4abe905ba7adfc087a0af385,66a626ef09d4e21e1a8894ec,6734a02d2b5a663439a4f70b,2024-11-13_09h49.00.754,Tarea de género gramatical,2024.2.2,Win32,59.88023952,,,,,,,,,,,,,,,,,,,,,,,181.7808,182.8763,a,1,0.4175,,[],[],[],[],[],[],[],0.4175,1,182.8764,183.3768,,,,,,1065,FEM,CON,150,amiga,,a,,183.3769,183.3771,0.178385417,-0.2265625,0,0,0,,0,55,55,164,1,,,,
,,,,,,4abe905ba7adfc087a0af385,66a626ef09d4e21e1a8894ec,6734a02d2b5a663439a4f70b,2024-11-13_09h49.00.754,Tarea de género gramatical,2024.2.2,Win32,59.88023952,,,,,,,,,,,,,,,,,,,,,,,183.3796,184.6923,a,1,0.6342,,[],[],[],[],[],[],[],0.6342,1,184.6926,185.1916,,,,,,1255,FEM,DIS,150,mirada,el,a,,185.1955,185.1977,0.178385417,-0.2265625,0,0,0,,0,56,56,354,1,,,,
,,,,,,4abe905ba7adfc087a0af385,66a626ef09d4e21e1a8894ec,6734a02d2b5a663439a4f70b,2024-11-13_09h49.00.754,Tarea de género gramatical,2024.2.2,Win32,59.88023952,,,,,,,,,,,,,,,,,,,,,,,185.1995,186.3071,a,1,0.4357,,[],[],[],[],[],[],[],0.4357,1,186.3073,186.8064,,,,,,969,FEM,CON,150,rata,,a,,186.8065,186.8067,0.178385417,-0.2265625,0,0,0,,0,57,57,68,1,,,,
,,,,,,4abe905ba7adfc087a0af385,66a626ef09d4e21e1a8894ec,6734a02d2b5a663439a4f70b,2024-11-13_09h49.00.754,Tarea de género gramatical,2024.2.2,Win32,59.88023952,,,,,,,,,,,,,,,,,,,,,,,186.8095,187.8888,l,1,0.4107,,[],[],[],[],[],[],[],0.4107,1,187.8891,188.388,,,,,,1228,MAS,DIS,150,asunto,la,l,,188.3882,188.3884,0.178385417,-0.2265625,0,0,0,,0,58,58,327,1,,,,
,,,,,,4abe905ba7adfc087a0af385,66a626ef09d4e21e1a8894ec,6734a02d2b5a663439a4f70b,2024-11-13_09h49.00.754,Tarea de género gramatical,2024.2.2,Win32,59.88023952,,,,,,,,,,,,,,,,,,,,,,,188.3915,189.4874,a,1,0.4193,,[],[],[],[],[],[],[],0.4193,1,189.4876,189.9868,,,,,,1034,FEM,AGR,150,rama,la,a,,189.987,189.9873,0.178385417,-0.2265625,0,0,0,,0,59,59,133,1,,,,
,,,,,,4abe905ba7adfc087a0af385,66a626ef09d4e21e1a8894ec,6734a02d2b5a663439a4f70b,2024-11-13_09h49.00.754,Tarea de género gramatical,2024.2.2,Win32,59.88023952,,,,,,,,,,,,,,,,,,,,,,,189.9898,191.2691,l,1,0.6038,,[],[],[],[],[],[],[],0.6038,1,191.2693,191.7688,,,,,,1073,MAS,AGR,150,libro,el,l,,191.7722,191.7748,0.178385417,-0.2265625,0,0,0,,0,60,60,172,1,,,,
,,,,,,4abe905ba7adfc087a0af385,66a626ef09d4e21e1a8894ec,6734a02d2b5a663439a4f70b,2024-11-13_09h49.00.754,Tarea de género gramatical,2024.2.2,Win32,59.88023952,,,,,,,,,,,,,,,,,,,,,,,191.7768,193.0004,a,1,0.5502,,[],[],[],[],[],[],[],0.5502,1,193.0006,193.4999,,,,,,1280,FEM,AGR,150,madera,la,a,,193.5001,193.5003,0.178385417,-0.2265625,0,0,0,,0,61,61,379,1,,,,
,,,,,,4abe905ba7adfc087a0af385,66a626ef09d4e21e1a8894ec,6734a02d2b5a663439a4f70b,2024-11-13_09h49.00.754,Tarea de género gramatical,2024.2.2,Win32,59.88023952,,,,,,,,,,,,,,,,,,,,,,,193.5031,194.582,l,1,0.4014,,[],[],[],[],[],[],[],0.4014,1,194.5822,195.0819,,,,,,1306,MAS,DIS,150,premio,la,l,,195.082,195.0822,0.178385417,-0.2265625,0,0,0,,0,62,62,405,1,,,,
,,,,,,4abe905ba7adfc087a0af385,66a626ef09d4e21e1a8894ec,6734a02d2b5a663439a4f70b,2024-11-13_09h49.00.754,Tarea de género gramatical,2024.2.2,Win32,59.88023952,,,,,,,,,,,,,,,,,,,,,,,195.0845,196.1642,l,1,0.4038,,[],[],[],[],[],[],[],0.4038,1,196.1644,196.6638,,,,,,1187,MAS,AGR,150,plato,el,l,,196.6639,196.6641,0.178385417,-0.2265625,0,0,0,,0,63,63,286,1,,,,
,,,,,,4abe905ba7adfc087a0af385,66a626ef09d4e21e1a8894ec,6734a02d2b5a663439a4f70b,2024-11-13_09h49.00.754,Tarea de género gramatical,2024.2.2,Win32,59.88023952,,,,,,,,,,,,,,,,,,,,,,,196.6665,197.6458,l,1,0.3036,,[],[],[],[],[],[],[],0.3036,1,197.6461,198.1454,,,,,,1194,MAS,CON,150,cable,,l,,198.1456,198.1458,0.178385417,-0.2265625,0,0,0,,0,64,64,293,1,,,,
,,,,,,4abe905ba7adfc087a0af385,66a626ef09d4e21e1a8894ec,6734a02d2b5a663439a4f70b,2024-11-13_09h49.00.754,Tarea de género gramatical,2024.2.2,Win32,59.88023952,,,,,,,,,,,,,,,,,,,,,,,198.1482,199.1939,a,1,0.3743,,[],[],[],[],[],[],[],0.3743,1,199.1942,199.6941,,,,,,1315,FEM,DIS,150,cabina,el,a,,199.6973,199.6995,0.178385417,-0.2265625,0,0,0,,0,65,65,414,1,,,,
,,,,,,4abe905ba7adfc087a0af385,66a626ef09d4e21e1a8894ec,6734a02d2b5a663439a4f70b,2024-11-13_09h49.00.754,Tarea de género gramatical,2024.2.2,Win32,59.88023952,,,,,,,,,,,,,,,,,,,,,,,199.7015,200.8096,l,1,0.4426,,[],[],[],[],[],[],[],0.4426,1,200.8098,201.3089,,,,,,1127,MAS,AGR,150,vuelo,el,l,,201.309,201.3093,0.178385417,-0.2265625,0,0,0,,0,66,66,226,1,,,,
,,,,,,4abe905ba7adfc087a0af385,66a626ef09d4e21e1a8894ec,6734a02d2b5a663439a4f70b,2024-11-13_09h49.00.754,Tarea de género gramatical,2024.2.2,Win32,59.88023952,,,,,,,,,,,,,,,,,,,,,,,201.3122,202.4413,l,1,0.4516,,[],[],[],[],[],[],[],0.4516,1,202.4415,202.9408,,,,,,1144,MAS,DIS,150,hielo,la,l,,202.9409,202.9412,0.178385417,-0.2265625,0,0,0,,0,67,67,243,1,,,,
,,,,,,4abe905ba7adfc087a0af385,66a626ef09d4e21e1a8894ec,6734a02d2b5a663439a4f70b,2024-11-13_09h49.00.754,Tarea de género gramatical,2024.2.2,Win32,59.88023952,,,,,,,,,,,,,,,,,,,,,,,202.9437,204.073,a,1,0.4572,,[],[],[],[],[],[],[],0.4572,1,204.0732,204.5724,,,,,,1183,FEM,DIS,150,pluma,el,a,,204.5726,204.5729,0.178385417,-0.2265625,0,0,0,,0,68,68,282,1,,,,
,,,,,,4abe905ba7adfc087a0af385,66a626ef09d4e21e1a8894ec,6734a02d2b5a663439a4f70b,2024-11-13_09h49.00.754,Tarea de género gramatical,2024.2.2,Win32,59.88023952,,,,,,,,,,,,,,,,,,,,,,,204.5754,205.8711,a,1,0.6173,,[],[],[],[],[],[],[],0.6173,1,205.8713,206.3707,,,,,,1232,FEM,AGR,150,basura,la,a,,206.3739,206.3763,0.178385417,-0.2265625,0,0,0,,0,69,69,331,1,,,,
,,,,,,4abe905ba7adfc087a0af385,66a626ef09d4e21e1a8894ec,6734a02d2b5a663439a4f70b,2024-11-13_09h49.00.754,Tarea de género gramatical,2024.2.2,Win32,59.88023952,,,,,,,,,,,,,,,,,,,,,,,206.3784,208.3189,l,1,1.2676,,[],[],[],[],[],[],[],1.2676,1,208.3191,208.8184,,,,,,1270,MAS,DIS,150,seguro,la,l,,208.8185,208.8187,0.178385417,-0.2265625,0,0,0,,0,70,70,369,1,,,,
,,,,,,4abe905ba7adfc087a0af385,66a626ef09d4e21e1a8894ec,6734a02d2b5a663439a4f70b,2024-11-13_09h49.00.754,Tarea de género gramatical,2024.2.2,Win32,59.88023952,,,,,,,,,,,,,,,,,,,,,,,208.8226,210.1165,a,1,0.615,,[],[],[],[],[],[],[],0.615,1,210.1165,210.6166,,,,,,1231,FEM,DIS,150,cárcel,el,a,,210.6167,210.6169,0.178385417,-0.2265625,0,0,0,,0,71,71,330,1,,,,
,,,,,,4abe905ba7adfc087a0af385,66a626ef09d4e21e1a8894ec,6734a02d2b5a663439a4f70b,2024-11-13_09h49.00.754,Tarea de género gramatical,2024.2.2,Win32,59.88023952,,,,,,,,,,,,,,,,,,,,,,,210.619,211.7487,l,1,0.4511,,[],[],[],[],[],[],[],0.4511,1,211.7489,212.2483,,,,,,1302,MAS,CON,150,ladrón,,l,,212.2484,212.2486,0.178385417,-0.2265625,0,0,0,,0,72,72,401,1,,,,
,,,,,,4abe905ba7adfc087a0af385,66a626ef09d4e21e1a8894ec,6734a02d2b5a663439a4f70b,2024-11-13_09h49.00.754,Tarea de género gramatical,2024.2.2,Win32,59.88023952,,,,,,,,,,,,,,,,,,,,,,,212.2512,213.3473,l,1,0.418,,[],[],[],[],[],[],[],0.418,1,213.3475,213.8465,,,,,,905,MAS,AGR,150,tipo,el,l,,213.8466,213.8468,0.178385417,-0.2265625,0,0,0,,0,73,73,4,1,,,,
,,,,,,4abe905ba7adfc087a0af385,66a626ef09d4e21e1a8894ec,6734a02d2b5a663439a4f70b,2024-11-13_09h49.00.754,Tarea de género gramatical,2024.2.2,Win32,59.88023952,,,,,,,,,,,,,,,,,,,,,,,213.8491,214.9953,l,1,0.4746,,[],[],[],[],[],[],[],0.4746,1,214.9954,215.4953,,,,,,948,MAS,CON,150,loco,,l,,215.4987,215.5014,0.178385417,-0.2265625,0,0,0,,0,74,74,47,1,,,,
,,,,,,4abe905ba7adfc087a0af385,66a626ef09d4e21e1a8894ec,6734a02d2b5a663439a4f70b,2024-11-13_09h49.00.754,Tarea de género gramatical,2024.2.2,Win32,59.88023952,,,,,,,,,,,,,,,,,,,,,,,215.5034,216.6431,l,1,0.473,,[],[],[],[],[],[],[],0.473,1,216.6433,217.1434,,,,,,1032,MAS,CON,150,velo,,l,,217.1435,217.1438,0.178385417,-0.2265625,0,0,0,,0,75,75,131,1,,,,
,,,,,,4abe905ba7adfc087a0af385,66a626ef09d4e21e1a8894ec,6734a02d2b5a663439a4f70b,2024-11-13_09h49.00.754,Tarea de género gramatical,2024.2.2,Win32,59.88023952,,,,,,,,,,,,,,,,,,,,,,,217.1465,218.2087,l,1,0.3842,,[],[],[],[],[],[],[],0.3842,1,218.2087,218.7089,,,,,,1174,MAS,DIS,150,motor,la,l,,218.709,218.7091,0.178385417,-0.2265625,0,0,0,,0,76,76,273,1,,,,
,,,,,,4abe905ba7adfc087a0af385,66a626ef09d4e21e1a8894ec,6734a02d2b5a663439a4f70b,2024-11-13_09h49.00.754,Tarea de género gramatical,2024.2.2,Win32,59.88023952,,,,,,,,,,,,,,,,,,,,,,,218.7122,219.8911,a,1,0.502,,[],[],[],[],[],[],[],0.502,1,219.8913,220.3904,,,,,,1005,FEM,CON,150,jefa,,a,,220.3905,220.3908,0.178385417,-0.2265625,0,0,0,,0,77,77,104,1,,,,
,,,,,,4abe905ba7adfc087a0af385,66a626ef09d4e21e1a8894ec,6734a02d2b5a663439a4f70b,2024-11-13_09h49.00.754,Tarea de género gramatical,2024.2.2,Win32,59.88023952,,,,,,,,,,,,,,,,,,,,,,,220.393,221.7058,a,0,0.6326,,[],[],[],[],[],[],[],0.6326,0,221.7079,222.2053,,,,,,1210,MAS,DIS,150,nombre,la,l,,222.2112,222.2129,0.178385417,-0.2265625,0,0,0,,0,78,78,309,1,,,,
,,,,,,4abe905ba7adfc087a0af385,66a626ef09d4e21e1a8894ec,6734a02d2b5a663439a4f70b,2024-11-13_09h49.00.754,Tarea de género gramatical,2024.2.2,Win32,59.88023952,,,,,,,,,,,,,,,,,,,,,,,222.2141,223.6202,a,1,0.7423,,[],[],[],[],[],[],[],0.7423,1,223.6218,224.1199,,,,,,1209,FEM,CON,150,esposa,,a,,224.1202,224.1208,0.178385417,-0.2265625,0,0,0,,0,79,79,308,1,,,,
,,,,,,4abe905ba7adfc087a0af385,66a626ef09d4e21e1a8894ec,6734a02d2b5a663439a4f70b,2024-11-13_09h49.00.754,Tarea de género gramatical,2024.2.2,Win32,59.88023952,,,,,,,,,,,,,,,,,,,,,,,224.1248,225.2527,l,0,0.4616,,[],[],[],[],[],[],[],0.4616,0,225.2544,225.7518,,,,,,1249,FEM,DIS,150,prensa,el,a,,225.7519,225.7521,0.178385417,-0.2265625,0,0,0,,0,80,80,348,1,,,,
,,,,,,4abe905ba7adfc087a0af385,66a626ef09d4e21e1a8894ec,6734a02d2b5a663439a4f70b,2024-11-13_09h49.00.754,Tarea de género gramatical,2024.2.2,Win32,59.88023952,,,,,,,,,,,,,,,,,,,,,,,225.7547,227.317,l,1,0.8828,,[],[],[],[],[],[],[],0.8828,1,227.3187,227.8164,,,,,,1074,MAS,CON,150,perro,,l,,227.8165,227.8167,0.178385417,-0.2265625,0,0,0,,0,81,81,173,1,,,,
,,,,,,4abe905ba7adfc087a0af385,66a626ef09d4e21e1a8894ec,6734a02d2b5a663439a4f70b,2024-11-13_09h49.00.754,Tarea de género gramatical,2024.2.2,Win32,59.88023952,,,,,,,,,,,,,,,,,,,,,,,227.8192,229.2819,l,1,0.7839,,[],[],[],[],[],[],[],0.7839,1,229.2822,229.7809,,,,,,1192,MAS,DIS,150,piano,la,l,,229.7811,229.7814,0.178385417,-0.2265625,0,0,0,,0,82,82,291,1,,,,
,,,,,,4abe905ba7adfc087a0af385,66a626ef09d4e21e1a8894ec,6734a02d2b5a663439a4f70b,2024-11-13_09h49.00.754,Tarea de género gramatical,2024.2.2,Win32,59.88023952,,,,,,,,,,,,,,,,,,,,,,,229.7835,230.8468,l,1,0.3906,,[],[],[],[],[],[],[],0.3906,1,230.847,231.3461,,,,,,1020,MAS,CON,150,puño,,l,,231.3495,231.3517,0.178385417,-0.2265625,0,0,0,,0,83,83,119,1,,,,
,,,,,,4abe905ba7adfc087a0af385,66a626ef09d4e21e1a8894ec,6734a02d2b5a663439a4f70b,2024-11-13_09h49.00.754,Tarea de género gramatical,2024.2.2,Win32,59.88023952,,,,,,,,,,,,,,,,,,,,,,,231.3536,232.5284,a,1,0.502,,[],[],[],[],[],[],[],0.502,1,232.5288,233.0277,,,,,,1226,FEM,AGR,150,música,la,a,,233.0278,233.0279,0.178385417,-0.2265625,0,0,0,,0,84,84,325,1,,,,
,,,,,,4abe905ba7adfc087a0af385,66a626ef09d4e21e1a8894ec,6734a02d2b5a663439a4f70b,2024-11-13_09h49.00.754,Tarea de género gramatical,2024.2.2,Win32,59.88023952,,,,,,,,,,,,,,,,,,,,,,,233.0299,234.0933,l,1,0.3817,,[],[],[],[],[],[],[],0.3817,1,234.0935,234.5932,,,,,,917,MAS,AGR,150,modo,el,l,,234.5933,234.5938,0.178385417,-0.2265625,0,0,0,,0,85,85,16,1,,,,
,,,,,,4abe905ba7adfc087a0af385,66a626ef09d4e21e1a8894ec,6734a02d2b5a663439a4f70b,2024-11-13_09h49.00.754,Tarea de género gramatical,2024.2.2,Win32,59.88023952,,,,,,,,,,,,,,,,,,,,,,,234.5963,235.6585,a,1,0.3913,,[],[],[],[],[],[],[],0.3913,1,235.6588,236.1576,,,,,,909,FEM,CON,150,mamá,,a,,236.1577,236.1579,0.178385417,-0.2265625,0,0,0,,0,86,86,8,1,,,,
,,,,,,4abe905ba7adfc087a0af385,66a626ef09d4e21e1a8894ec,6734a02d2b5a663439a4f70b,2024-11-13_09h49.00.754,Tarea de género gramatical,2024.2.2,Win32,59.88023952,,,,,,,,,,,,,,,,,,,,,,,236.1591,237.3236,l,1,0.4812,,[],[],[],[],[],[],[],0.4812,1,237.3237,237.8233,,,,,,1115,MAS,AGR,150,hueso,el,l,,237.8276,237.8297,0.178385417,-0.2265625,0,0,0,,0,87,87,214,1,,,,
,,,,,,4abe905ba7adfc087a0af385,66a626ef09d4e21e1a8894ec,6734a02d2b5a663439a4f70b,2024-11-13_09h49.00.754,Tarea de género gramatical,2024.2.2,Win32,59.88023952,,,,,,,,,,,,,,,,,,,,,,,237.8314,238.9222,l,1,0.4207,,[],[],[],[],[],[],[],0.4207,1,238.9225,239.4212,,,,,,1242,MAS,CON,150,abuelo,,l,,239.4213,239.4215,0.178385417,-0.2265625,0,0,0,,0,88,88,341,1,,,,
,,,,,,4abe905ba7adfc087a0af385,66a626ef09d4e21e1a8894ec,6734a02d2b5a663439a4f70b,2024-11-13_09h49.00.754,Tarea de género gramatical,2024.2.2,Win32,59.88023952,,,,,,,,,,,,,,,,,,,,,,,239.4233,240.6037,l,1,0.5048,,[],[],[],[],[],[],[],0.5048,1,240.604,241.1034,,,,,,947,MAS,AGR,150,olor,el,l,,241.1036,241.1037,0.178385417,-0.2265625,0,0,0,,0,89,89,46,1,,,,
,,,,,,4abe905ba7adfc087a0af385,66a626ef09d4e21e1a8894ec,6734a02d2b5a663439a4f70b,2024-11-13_09h49.00.754,Tarea de género gramatical,2024.2.2,Win32,59.88023952,,,,,,,,,,,,,,,,,,,,,,,241.106,242.3356,a,1,0.5501,,[],[],[],[],[],[],[],0.5501,1,242.3358,242.8343,,,,,,1334,FEM,AGR,150,corona,la,a,,242.8344,242.8345,0.178385417,-0.2265625,0,0,0,,0,90,90,433,1,,,,
,,,,,,4abe905ba7adfc087a0af385,66a626ef09d4e21e1a8894ec,6734a02d2b5a663439a4f70b,2024-11-13_09h49.00.754,Tarea de género gramatical,2024.2.2,Win32,59.88023952,,,,,,,,,,,,,,,,,,,,,,,242.8359,243.9502,l,1,0.4334,,[],[],[],[],[],[],[],0.4334,1,243.9504,244.4502,,,,,,984,MAS,CON,150,mago,,l,,244.4504,244.4506,0.178385417,-0.2265625,0,0,0,,0,91,91,83,1,,,,
,,,,,,4abe905ba7adfc087a0af385,66a626ef09d4e21e1a8894ec,6734a02d2b5a663439a4f70b,2024-11-13_09h49.00.754,Tarea de género gramatical,2024.2.2,Win32,59.88023952,,,,,,,,,,,,,,,,,,,,,,,244.4532,246.1813,l,1,1.0536,,[],[],[],[],[],[],[],1.0536,1,246.1814,246.6814,,,,,,1000,MAS,DIS,150,nido,la,l,,246.6847,246.6874,0.178385417,-0.2265625,0,0,0,,0,92,92,99,1,,,,
,,,,,,4abe905ba7adfc087a0af385,66a626ef09d4e21e1a8894ec,6734a02d2b5a663439a4f70b,2024-11-13_09h49.00.754,Tarea de género gramatical,2024.2.2,Win32,59.88023952,,,,,,,,,,,,,,,,,,,,,,,246.6894,247.697,l,1,0.3352,,[],[],[],[],[],[],[],0.3352,1,247.6972,248.1961,,,,,,964,MAS,DIS,150,saco,la,l,,248.1963,248.1965,0.178385417,-0.2265625,0,0,0,,0,93,93,63,1,,,,
,,,,,,4abe905ba7adfc087a0af385,66a626ef09d4e21e1a8894ec,6734a02d2b5a663439a4f70b,2024-11-13_09h49.00.754,Tarea de género gramatical,2024.2.2,Win32,59.88023952,,,,,,,,,,,,,,,,,,,,,,,248.1989,249.2951,a,1,0.4168,,[],[],[],[],[],[],[],0.4168,1,249.2954,249.795,,,,,,926,FEM,AGR,150,pena,la,a,,249.7951,249.7954,0.178385417,-0.2265625,0,0,0,,0,94,94,25,1,,,,
,,,,,,4abe905ba7adfc087a0af385,66a626ef09d4e21e1a8894ec,6734a02d2b5a663439a4f70b,2024-11-13_09h49.00.754,Tarea de género gramatical,2024.2.2,Win32,59.88023952,,,,,,,,,,,,,,,,,,,,,,,249.7978,250.8765,a,1,0.399,,[],[],[],[],[],[],[],0.399,1,250.8767,251.3764,,,,,,1298,FEM,AGR,150,hierba,la,a,,251.3765,251.3767,0.178385417,-0.2265625,0,0,0,,0,95,95,397,1,,,,
,,,,,,4abe905ba7adfc087a0af385,66a626ef09d4e21e1a8894ec,6734a02d2b5a663439a4f70b,2024-11-13_09h49.00.754,Tarea de género gramatical,2024.2.2,Win32,59.88023952,,,,,,,,,,,,,,,,,,,,,,,251.3786,252.6755,l,1,0.6179,,[],[],[],[],[],[],[],0.6179,1,252.6757,253.1747,,,,,,1042,MAS,DIS,150,lodo,la,l,,253.178,253.1804,0.178385417,-0.2265625,0,0,0,,0,96,96,141,1,,,,
,,,,,,4abe905ba7adfc087a0af385,66a626ef09d4e21e1a8894ec,6734a02d2b5a663439a4f70b,2024-11-13_09h49.00.754,Tarea de género gramatical,2024.2.2,Win32,59.88023952,,,,,,,,,,,,,,,,,,,,,,,253.1822,254.224,l,1,0.3701,,[],[],[],[],[],[],[],0.3701,1,254.2241,254.7233,,,,,,966,MAS,CON,150,muro,,l,,254.7235,254.7237,0.178385417,-0.2265625,0,0,0,,0,97,97,65,1,,,,
,,,,,,4abe905ba7adfc087a0af385,66a626ef09d4e21e1a8894ec,6734a02d2b5a663439a4f70b,2024-11-13_09h49.00.754,Tarea de género gramatical,2024.2.2,Win32,59.88023952,,,,,,,,,,,,,,,,,,,,,,,254.726,255.8557,a,1,0.455,,[],[],[],[],[],[],[],0.455,1,255.8558,256.3552,,,,,,1197,FEM,CON,150,manta,,a,,256.3552,256.3556,0.178385417,-0.2265625,0,0,0,,0,98,98,296,1,,,,
,,,,,,4abe905ba7adfc087a0af385,66a626ef09d4e21e1a8894ec,6734a02d2b5a663439a4f70b,2024-11-13_09h49.00.754,Tarea de género gramatical,2024.2.2,Win32,59.88023952,,,,,,,,,,,,,,,,,,,,,,,256.3591,257.4543,l,0,0.4194,,[],[],[],[],[],[],[],0.4194,0,257.4563,257.9536,,,,,,1137,FEM,CON,150,ducha,,a,,257.9536,257.9539,0.178385417,-0.2265625,0,0,0,,0,99,99,236,1,,,,
,,,,,,4abe905ba7adfc087a0af385,66a626ef09d4e21e1a8894ec,6734a02d2b5a663439a4f70b,2024-11-13_09h49.00.754,Tarea de género gramatical,2024.2.2,Win32,59.88023952,,,,,,,,,,,,,,,,,,,,,,,257.9561,259.1357,l,0,0.5033,,[],[],[],[],[],[],[],0.5033,0,259.136,259.6349,,,,,,1189,FEM,DIS,150,tabla,el,a,,259.635,259.6355,0.178385417,-0.2265625,0,0,0,,0,100,100,288,1,,,,
,,,,,,4abe905ba7adfc087a0af385,66a626ef09d4e21e1a8894ec,6734a02d2b5a663439a4f70b,2024-11-13_09h49.00.754,Tarea de género gramatical,2024.2.2,Win32,59.88023952,,,,,,,,,,,,,,,,,,,,,,,259.6382,260.9505,a,1,0.6373,,[],[],[],[],[],[],[],0.6373,1,260.9521,261.45,,,,,,1281,FEM,CON,150,bebida,,a,,261.453,261.4556,0.178385417,-0.2265625,0,0,0,,0,101,101,380,1,,,,
,,,,,,4abe905ba7adfc087a0af385,66a626ef09d4e21e1a8894ec,6734a02d2b5a663439a4f70b,2024-11-13_09h49.00.754,Tarea de género gramatical,2024.2.2,Win32,59.88023952,,,,,,,,,,,,,,,,,,,,,,,261.4575,262.565,a,1,0.433,,[],[],[],[],[],[],[],0.433,1,262.565,263.065,,,,,,956,FEM,AGR,150,bola,la,a,,263.0652,263.0655,0.178385417,-0.2265625,0,0,0,,0,102,102,55,1,,,,
,,,,,,4abe905ba7adfc087a0af385,66a626ef09d4e21e1a8894ec,6734a02d2b5a663439a4f70b,2024-11-13_09h49.00.754,Tarea de género gramatical,2024.2.2,Win32,59.88023952,,,,,,,,,,,,,,,,,,,,,,,263.0681,264.1308,l,1,0.3852,,[],[],[],[],[],[],[],0.3852,1,264.131,264.6304,,,,,,1308,MAS,CON,150,cheque,,l,,264.6305,264.6308,0.178385417,-0.2265625,0,0,0,,0,103,103,407,1,,,,
,,,,,,4abe905ba7adfc087a0af385,66a626ef09d4e21e1a8894ec,6734a02d2b5a663439a4f70b,2024-11-13_09h49.00.754,Tarea de género gramatical,2024.2.2,Win32,59.88023952,,,,,,,,,,,,,,,,,,,,,,,264.6331,265.9287,l,1,0.6167,,[],[],[],[],[],[],[],0.6167,1,265.9288,266.4287,,,,,,989,MAS,AGR,150,maíz,el,l,,266.4289,266.4291,0.178385417,-0.2265625,0,0,0,,0,104,104,88,1,,,,
,,,,,,4abe905ba7adfc087a0af385,66a626ef09d4e21e1a8894ec,6734a02d2b5a663439a4f70b,2024-11-13_09h49.00.754,Tarea de género gramatical,2024.2.2,Win32,59.88023952,,,,,,,,,,,,,,,,,,,,,,,266.4322,267.6107,l,1,0.5033,,[],[],[],[],[],[],[],0.5033,1,267.6108,268.1103,,,,,,1044,MAS,CON,150,amor,,l,,268.1134,268.1163,0.178385417,-0.2265625,0,0,0,,0,105,105,143,1,,,,
,,,,,,4abe905ba7adfc087a0af385,66a626ef09d4e21e1a8894ec,6734a02d2b5a663439a4f70b,2024-11-13_09h49.00.754,Tarea de género gramatical,2024.2.2,Win32,59.88023952,,,,,,,,,,,,,,,,,,,,,,,268.1182,269.4255,l,1,0.633,,[],[],[],[],[],[],[],0.633,1,269.4256,269.9249,,,,,,1109,MAS,AGR,150,banco,el,l,,269.9249,269.9251,0.178385417,-0.2265625,0,0,0,,0,106,106,208,1,,,,
,,,,,,4abe905ba7adfc087a0af385,66a626ef09d4e21e1a8894ec,6734a02d2b5a663439a4f70b,2024-11-13_09h49.00.754,Tarea de género gramatical,2024.2.2,Win32,59.88023952,,,,,,,,,,,,,,,,,,,,,,,269.927,270.9908,a,1,0.3846,,[],[],[],[],[],[],[],0.3846,1,270.991,271.4904,,,,,,1131,FEM,CON,150,bruja,,a,,271.4904,271.4906,0.178385417,-0.2265625,0,0,0,,0,107,107,230,1,,,,
,,,,,,4abe905ba7adfc087a0af385,66a626ef09d4e21e1a8894ec,6734a02d2b5a663439a4f70b,2024-11-13_09h49.00.754,Tarea de género gramatical,2024.2.2,Win32,59.88023952,,,,,,,,,,,,,,,,,,,,,,,271.4927,273.0054,a,1,0.8341,,[],[],[],[],[],[],[],0.8341,1,273.0056,273.505,,,,,,1347,FEM,CON,150,lógica,,a,,273.5051,273.5053,0.178385417,-0.2265625,0,0,0,,0,108,108,446,1,,,,
,,,,,,4abe905ba7adfc087a0af385,66a626ef09d4e21e1a8894ec,6734a02d2b5a663439a4f70b,2024-11-13_09h49.00.754,Tarea de género gramatical,2024.2.2,Win32,59.88023952,,,,,,,,,,,,,,,,,,,,,,,273.5074,274.5701,a,0,0.395,,[],[],[],[],[],[],[],0.395,0,274.5715,275.0699,,,,,,1200,MAS,CON,150,túnel,,l,,275.07,275.0702,0.178385417,-0.2265625,0,0,0,,0,109,109,299,1,,,,
,,,,,,4abe905ba7adfc087a0af385,66a626ef09d4e21e1a8894ec,6734a02d2b5a663439a4f70b,2024-11-13_09h49.00.754,Tarea de género gramatical,2024.2.2,Win32,59.88023952,,,,,,,,,,,,,,,,,,,,,,,275.0722,276.3352,l,1,0.5911,,[],[],[],[],[],[],[],0.5911,1,276.3369,276.835,,,,,,911,MAS,AGR,150,país,el,l,,276.8379,276.8403,0.178385417,-0.2265625,0,0,0,,0,110,110,10,1,,,,
,,,,,,4abe905ba7adfc087a0af385,66a626ef09d4e21e1a8894ec,6734a02d2b5a663439a4f70b,2024-11-13_09h49.00.754,Tarea de género gramatical,2024.2.2,Win32,59.88023952,,,,,,,,,,,,,,,,,,,,,,,276.8422,278.1335,a,1,0.6235,,[],[],[],[],[],[],[],0.6235,1,278.1336,278.6334,,,,,,955,FEM,DIS,150,taza,el,a,,278.6336,278.6337,0.178385417,-0.2265625,0,0,0,,0,111,111,54,1,,,,
,,,,,,4abe905ba7adfc087a0af385,66a626ef09d4e21e1a8894ec,6734a02d2b5a663439a4f70b,2024-11-13_09h49.00.754,Tarea de género gramatical,2024.2.2,Win32,59.88023952,,,,,,,,,,,,,,,,,,,,,,,278.6365,279.9817,a,1,0.6753,,[],[],[],[],[],[],[],0.6753,1,279.9819,280.4814,,,,,,999,FEM,CON,150,fase,,a,,280.4816,280.4818,0.178385417,-0.2265625,0,0,0,,0,112,112,98,1,,,,
,,,,,,4abe905ba7adfc087a0af385,66a626ef09d4e21e1a8894ec,6734a02d2b5a663439a4f70b,2024-11-13_09h49.00.754,Tarea de género gramatical,2024.2.2,Win32,59.88023952,,,,,,,,,,,,,,,,,,,,,,,280.4843,281.5633,l,1,0.4009,,[],[],[],[],[],[],[],0.4009,1,281.5635,282.0628,,,,,,910,MAS,DIS,150,niño,la,l,,282.063,282.0631,0.178385417,-0.2265625,0,0,0,,0,113,113,9,1,,,,
,,,,,,4abe905ba7adfc087a0af385,66a626ef09d4e21e1a8894ec,6734a02d2b5a663439a4f70b,2024-11-13_09h49.00.754,Tarea de género gramatical,2024.2.2,Win32,59.88023952,,,,,,,,,,,,,,,,,,,,,,,282.0646,283.1777,l,1,0.4328,,[],[],[],[],[],[],[],0.4328,1,283.1777,283.6782,,,,,,1252,MAS,DIS,150,estilo,la,l,,283.6812,283.6835,0.178385417,-0.2265625,0,0,0,,0,114,114,351,1,,,,
,,,,,,4abe905ba7adfc087a0af385,66a626ef09d4e21e1a8894ec,6734a02d2b5a663439a4f70b,2024-11-13_09h49.00.754,Tarea de género gramatical,2024.2.2,Win32,59.88023952,,,,,,,,,,,,,,,,,,,,,,,283.6852,284.7438,a,1,0.3856,,[],[],[],[],[],[],[],0.3856,1,284.744,285.243,,,,,,1130,FEM,AGR,150,regla,la,a,,285.2431,285.2432,0.178385417,-0.2265625,0,0,0,,0,115,115,229,1,,,,
,,,,,,4abe905ba7adfc087a0af385,66a626ef09d4e21e1a8894ec,6734a02d2b5a663439a4f70b,2024-11-13_09h49.00.754,Tarea de género gramatical,2024.2.2,Win32,59.88023952,,,,,,,,,,,,,,,,,,,,,,,285.2455,286.7421,a,1,0.8186,,[],[],[],[],[],[],[],0.8186,1,286.7423,287.2408,,,,,,1087,FEM,DIS,150,lista,el,a,,287.2408,287.241,0.178385417,-0.2265625,0,0,0,,0,116,116,186,1,,,,
,,,,,,4abe905ba7adfc087a0af385,66a626ef09d4e21e1a8894ec,6734a02d2b5a663439a4f70b,2024-11-13_09h49.00.754,Tarea de género gramatical,2024.2.2,Win32,59.88023952,,,,,,,,,,,,,,,,,,,,,,,287.242,288.3904,a,1,0.4679,,[],[],[],[],[],[],[],0.4679,1,288.3906,288.8901,,,,,,1101,FEM,CON,150,leche,,a,,288.8902,288.8905,0.178385417,-0.2265625,0,0,0,,0,117,117,200,1,,,,
,,,,,,4abe905ba7adfc087a0af385,66a626ef09d4e21e1a8894ec,6734a02d2b5a663439a4f70b,2024-11-13_09h49.00.754,Tarea de género gramatical,2024.2.2,Win32,59.88023952,,,,,,,,,,,,,,,,,,,,,,,288.8929,289.9725,a,1,0.4028,,[],[],[],[],[],[],[],0.4028,1,289.9726,290.4715,,,,,,1292,FEM,AGR,150,maleta,la,a,,290.4716,290.4718,0.178385417,-0.2265625,0,0,0,,0,118,118,391,1,,,,
,,,,,,4abe905ba7adfc087a0af385,66a626ef09d4e21e1a8894ec,6734a02d2b5a663439a4f70b,2024-11-13_09h49.00.754,Tarea de género gramatical,2024.2.2,Win32,59.88023952,,,,,,,,,,,,,,,,,,,,,,,290.4741,291.7039,l,1,0.5517,,[],[],[],[],[],[],[],0.5517,1,291.7042,292.2034,,,,,,1217,MAS,AGR,150,número,el,l,,292.2064,292.2093,0.178385417,-0.2265625,0,0,0,,0,119,119,316,1,,,,
,,,,,,4abe905ba7adfc087a0af385,66a626ef09d4e21e1a8894ec,6734a02d2b5a663439a4f70b,2024-11-13_09h49.00.754,Tarea de género gramatical,2024.2.2,Win32,59.88023952,,,,,,,,,,,,,,,,,,,,,,,292.2112,294.8507,,0,,,[],[],[],[],[],[],[],0.5517,-1,294.8525,295.3502,,,,,,1071,FEM,CON,150,mitad,,a,,295.3503,295.3507,0.178385417,-0.2265625,0,0,0,,0,120,120,170,1,,,,
,,,,,,4abe905ba7adfc087a0af385,66a626ef09d4e21e1a8894ec,6734a02d2b5a663439a4f70b,2024-11-13_09h49.00.754,Tarea de género gramatical,2024.2.2,Win32,59.88023952,,,,,,,,,,,,,,,,,,,,,,,295.3533,296.5316,a,1,0.5036,,[],[],[],[],[],[],[],0.5036,1,296.5327,297.0311,,,,,,927,FEM,CON,150,mesa,,a,,297.0311,297.0311,0.178385417,-0.2265625,0,0,0,,0,121,121,26,1,,,,
,,,,,,4abe905ba7adfc087a0af385,66a626ef09d4e21e1a8894ec,6734a02d2b5a663439a4f70b,2024-11-13_09h49.00.754,Tarea de género gramatical,2024.2.2,Win32,59.88023952,,,,,,,,,,,,,,,,,,,,,,,297.032,298.114,l,1,0.3983,,[],[],[],[],[],[],[],0.3983,1,298.1141,298.6134,,,,,,1049,MAS,AGR,150,nudo,el,l,,298.6136,298.6137,0.178385417,-0.2265625,0,0,0,,0,122,122,148,1,,,,
,,,,,,4abe905ba7adfc087a0af385,66a626ef09d4e21e1a8894ec,6734a02d2b5a663439a4f70b,2024-11-13_09h49.00.754,Tarea de género gramatical,2024.2.2,Win32,59.88023952,,,,,,,,,,,,,,,,,,,,,,,298.6159,299.879,a,1,0.5885,,[],[],[],[],[],[],[],0.5885,1,299.8792,300.3787,,,,,,1179,FEM,CON,150,selva,,a,,300.3819,300.3843,0.178385417,-0.2265625,0,0,0,,0,123,123,278,1,,,,
,,,,,,4abe905ba7adfc087a0af385,66a626ef09d4e21e1a8894ec,6734a02d2b5a663439a4f70b,2024-11-13_09h49.00.754,Tarea de género gramatical,2024.2.2,Win32,59.88023952,,,,,,,,,,,,,,,,,,,,,,,300.3864,301.4276,l,1,0.3745,,[],[],[],[],[],[],[],0.3745,1,301.4278,301.927,,,,,,1205,MAS,AGR,150,hombre,el,l,,301.9271,301.9273,0.178385417,-0.2265625,0,0,0,,0,124,124,304,1,,,,
,,,,,,4abe905ba7adfc087a0af385,66a626ef09d4e21e1a8894ec,6734a02d2b5a663439a4f70b,2024-11-13_09h49.00.754,Tarea de género gramatical,2024.2.2,Win32,59.88023952,,,,,,,,,,,,,,,,,,,,,,,301.9297,303.2758,a,0,0.6676,,[],[],[],[],[],[],[],0.6676,0,303.2774,303.7754,,,,,,1337,MAS,AGR,150,hombro,el,l,,303.7756,303.7759,0.178385417,-0.2265625,0,0,0,,0,125,125,436,1,,,,
,,,,,,4abe905ba7adfc087a0af385,66a626ef09d4e21e1a8894ec,6734a02d2b5a663439a4f70b,2024-11-13_09h49.00.754,Tarea de género gramatical,2024.2.2,Win32,59.88023952,,,,,,,,,,,,,,,,,,,,,,,303.7784,304.8738,a,1,0.4261,,[],[],[],[],[],[],[],0.4261,1,304.8757,305.3736,,,,,,914,FEM,AGR,150,cara,la,a,,305.3738,305.374,0.178385417,-0.2265625,0,0,0,,0,126,126,13,1,,,,
,,,,,,4abe905ba7adfc087a0af385,66a626ef09d4e21e1a8894ec,6734a02d2b5a663439a4f70b,2024-11-13_09h49.00.754,Tarea de género gramatical,2024.2.2,Win32,59.88023952,,,,,,,,,,,,,,,,,,,,,,,305.3764,307.0718,l,1,1.0189,,[],[],[],[],[],[],[],1.0189,1,307.072,307.5714,,,,,,952,MAS,DIS,150,lago,la,l,,307.5715,307.5717,0.178385417,-0.2265625,0,0,0,,0,127,127,51,1,,,,
,,,,,,4abe905ba7adfc087a0af385,66a626ef09d4e21e1a8894ec,6734a02d2b5a663439a4f70b,2024-11-13_09h49.00.754,Tarea de género gramatical,2024.2.2,Win32,59.88023952,,,,,,,,,,,,,,,,,,,,,,,307.5738,308.8865,a,1,0.6371,,[],[],[],[],[],[],[],0.6371,1,308.8866,309.3862,,,,,,907,FEM,DIS,150,hora,el,a,,309.389,309.3916,0.178385417,-0.2265625,0,0,0,,0,128,128,6,1,,,,
,,,,,,4abe905ba7adfc087a0af385,66a626ef09d4e21e1a8894ec,6734a02d2b5a663439a4f70b,2024-11-13_09h49.00.754,Tarea de género gramatical,2024.2.2,Win32,59.88023952,,,,,,,,,,,,,,,,,,,,,,,309.3936,310.5852,l,1,0.5201,,[],[],[],[],[],[],[],0.5201,1,310.5853,311.0846,,,,,,929,MAS,AGR,150,frío,el,l,,311.0847,311.0849,0.178385417,-0.2265625,0,0,0,,0,129,129,28,1,,,,
,,,,,,4abe905ba7adfc087a0af385,66a626ef09d4e21e1a8894ec,6734a02d2b5a663439a4f70b,2024-11-13_09h49.00.754,Tarea de género gramatical,2024.2.2,Win32,59.88023952,,,,,,,,,,,,,,,,,,,,,,,311.0873,312.3668,l,1,0.6014,,[],[],[],[],[],[],[],0.6014,1,312.367,312.8664,,,,,,935,MAS,AGR,150,taxi,el,l,,312.8666,312.8669,0.178385417,-0.2265625,0,0,0,,0,130,130,34,1,,,,
,,,,,,4abe905ba7adfc087a0af385,66a626ef09d4e21e1a8894ec,6734a02d2b5a663439a4f70b,2024-11-13_09h49.00.754,Tarea de género gramatical,2024.2.2,Win32,59.88023952,,,,,,,,,,,,,,,,,,,,,,,312.8696,314.1651,l,1,0.6201,,[],[],[],[],[],[],[],0.6201,1,314.1655,314.6637,,,,,,1326,MAS,CON,150,pánico,,l,,314.6638,314.664,0.178385417,-0.2265625,0,0,0,,0,131,131,425,1,,,,
,,,,,,4abe905ba7adfc087a0af385,66a626ef09d4e21e1a8894ec,6734a02d2b5a663439a4f70b,2024-11-13_09h49.00.754,Tarea de género gramatical,2024.2.2,Win32,59.88023952,,,,,,,,,,,,,,,,,,,,,,,314.6654,315.7802,a,1,0.4369,,[],[],[],[],[],[],[],0.4369,1,315.7803,316.2797,,,,,,1022,FEM,AGR,150,loca,la,a,,316.2828,316.2852,0.178385417,-0.2265625,0,0,0,,0,132,132,121,1,,,,
,,,,,,4abe905ba7adfc087a0af385,66a626ef09d4e21e1a8894ec,6734a02d2b5a663439a4f70b,2024-11-13_09h49.00.754,Tarea de género gramatical,2024.2.2,Win32,59.88023952,,,,,,,,,,,,,,,,,,,,,,,316.2872,317.4619,l,0,0.5053,,[],[],[],[],[],[],[],0.5053,0,317.4635,317.9613,,,,,,1141,FEM,DIS,150,pasta,el,a,,317.9614,317.9617,0.178385417,-0.2265625,0,0,0,,0,133,133,240,1,,,,
,,,,,,4abe905ba7adfc087a0af385,66a626ef09d4e21e1a8894ec,6734a02d2b5a663439a4f70b,2024-11-13_09h49.00.754,Tarea de género gramatical,2024.2.2,Win32,59.88023952,,,,,,,,,,,,,,,,,,,,,,,317.9641,319.8432,a,1,1.2031,,[],[],[],[],[],[],[],1.2031,1,319.8451,320.3425,,,,,,1075,FEM,DIS,150,señal,el,a,,320.3426,320.3427,0.178385417,-0.2265625,0,0,0,,0,134,134,174,1,,,,
,,,,,,4abe905ba7adfc087a0af385,66a626ef09d4e21e1a8894ec,6734a02d2b5a663439a4f70b,2024-11-13_09h49.00.754,Tarea de género gramatical,2024.2.2,Win32,59.88023952,,,,,,,,,,,,,,,,,,,,,,,320.3451,321.708,a,1,0.6843,,[],[],[],[],[],[],[],0.6843,1,321.7082,322.2074,,,,,,1171,FEM,DIS,150,viuda,el,a,,322.2075,322.2077,0.178385417,-0.2265625,0,0,0,,0,135,135,270,1,,,,
,,,,,,4abe905ba7adfc087a0af385,66a626ef09d4e21e1a8894ec,6734a02d2b5a663439a4f70b,2024-11-13_09h49.00.754,Tarea de género gramatical,2024.2.2,Win32,59.88023952,,,,,,,,,,,,,,,,,,,,,,,322.2103,323.4223,l,1,0.5403,,[],[],[],[],[],[],[],0.5403,1,323.4224,323.922,,,,,,1078,MAS,DIS,150,punto,la,l,,323.9222,323.9223,0.178385417,-0.2265625,0,0,0,,0,136,136,177,1,,,,
,,,,,,4abe905ba7adfc087a0af385,66a626ef09d4e21e1a8894ec,6734a02d2b5a663439a4f70b,2024-11-13_09h49.00.754,Tarea de género gramatical,2024.2.2,Win32,59.88023952,,,,,,,,,,,,,,,,,,,,,,,323.925,325.071,l,1,0.472,,[],[],[],[],[],[],[],0.472,1,325.0712,325.5705,,,,,,982,MAS,DIS,150,tubo,la,l,,325.5731,325.5756,0.178385417,-0.2265625,0,0,0,,0,137,137,81,1,,,,
,,,,,,4abe905ba7adfc087a0af385,66a626ef09d4e21e1a8894ec,6734a02d2b5a663439a4f70b,2024-11-13_09h49.00.754,Tarea de género gramatical,2024.2.2,Win32,59.88023952,,,,,,,,,,,,,,,,,,,,,,,325.5774,326.7025,l,1,0.4601,,[],[],[],[],[],[],[],0.4601,1,326.7027,327.2023,,,,,,1288,MAS,DIS,150,empleo,la,l,,327.2024,327.2026,0.178385417,-0.2265625,0,0,0,,0,138,138,387,1,,,,
,,,,,,4abe905ba7adfc087a0af385,66a626ef09d4e21e1a8894ec,6734a02d2b5a663439a4f70b,2024-11-13_09h49.00.754,Tarea de género gramatical,2024.2.2,Win32,59.88023952,,,,,,,,,,,,,,,,,,,,,,,327.2053,328.4341,a,1,0.5509,,[],[],[],[],[],[],[],0.5509,1,328.4342,328.9342,,,,,,997,FEM,DIS,150,capa,el,a,,328.9343,328.9344,0.178385417,-0.2265625,0,0,0,,0,139,139,96,1,,,,
,,,,,,4abe905ba7adfc087a0af385,66a626ef09d4e21e1a8894ec,6734a02d2b5a663439a4f70b,2024-11-13_09h49.00.754,Tarea de género gramatical,2024.2.2,Win32,59.88023952,,,,,,,,,,,,,,,,,,,,,,,328.9371,330.0327,l,1,0.419,,[],[],[],[],[],[],[],0.419,1,330.033,330.5323,,,,,,1247,MAS,AGR,150,cuello,el,l,,330.5324,330.5329,0.178385417,-0.2265625,0,0,0,,0,140,140,346,1,,,,
,,,,,,4abe905ba7adfc087a0af385,66a626ef09d4e21e1a8894ec,6734a02d2b5a663439a4f70b,2024-11-13_09h49.00.754,Tarea de género gramatical,2024.2.2,Win32,59.88023952,,,,,,,,,,,,,,,,,,,,,,,330.5364,331.7477,a,1,0.536,,[],[],[],[],[],[],[],0.536,1,331.7478,332.2474,,,,,,992,FEM,AGR,150,masa,la,a,,332.2502,332.2527,0.178385417,-0.2265625,0,0,0,,0,141,141,91,1,,,,
,,,,,,4abe905ba7adfc087a0af385,66a626ef09d4e21e1a8894ec,6734a02d2b5a663439a4f70b,2024-11-13_09h49.00.754,Tarea de género gramatical,2024.2.2,Win32,59.88023952,,,,,,,,,,,,,,,,,,,,,,,332.2548,333.2964,a,1,0.3695,,[],[],[],[],[],[],[],0.3695,1,333.2967,333.7955,,,,,,1191,FEM,CON,150,aguja,,a,,333.7956,333.7959,0.178385417,-0.2265625,0,0,0,,0,142,142,290,1,,,,
,,,,,,4abe905ba7adfc087a0af385,66a626ef09d4e21e1a8894ec,6734a02d2b5a663439a4f70b,2024-11-13_09h49.00.754,Tarea de género gramatical,2024.2.2,Win32,59.88023952,,,,,,,,,,,,,,,,,,,,,,,333.7983,334.7618,l,1,0.2839,,[],[],[],[],[],[],[],0.2839,1,334.762,335.2608,,,,,,1043,MAS,AGR,150,faro,el,l,,335.2609,335.2611,0.178385417,-0.2265625,0,0,0,,0,143,143,142,1,,,,
,,,,,,4abe905ba7adfc087a0af385,66a626ef09d4e21e1a8894ec,6734a02d2b5a663439a4f70b,2024-11-13_09h49.00.754,Tarea de género gramatical,2024.2.2,Win32,59.88023952,,,,,,,,,,,,,,,,,,,,,,,335.2639,336.5099,a,1,0.5714,,[],[],[],[],[],[],[],0.5714,1,336.5101,337.0094,,,,,,1239,FEM,CON,150,salida,,a,,337.0095,337.0098,0.178385417,-0.2265625,0,0,0,,0,144,144,338,1,,,,
,,,,,,4abe905ba7adfc087a0af385,66a626ef09d4e21e1a8894ec,6734a02d2b5a663439a4f70b,2024-11-13_09h49.00.754,Tarea de género gramatical,2024.2.2,Win32,59.88023952,,,,,,,,,,,,,,,,,,,,,,,337.0141,338.3581,a,1,0.6687,,[],[],[],[],[],[],[],0.6687,1,338.3583,338.8576,,,,,,1160,FEM,AGR,150,barra,la,a,,338.8577,338.8579,0.178385417,-0.2265625,0,0,0,,0,145,145,259,1,,,,
,,,,,,4abe905ba7adfc087a0af385,66a626ef09d4e21e1a8894ec,6734a02d2b5a663439a4f70b,2024-11-13_09h49.00.754,Tarea de género gramatical,2024.2.2,Win32,59.88023952,,,,,,,,,,,,,,,,,,,,,,,338.8603,340.0396,l,1,0.5029,,[],[],[],[],[],[],[],0.5029,1,340.0397,340.5393,,,,,,1216,MAS,DIS,150,cuerpo,la,l,,340.5421,340.545,0.178385417,-0.2265625,0,0,0,,0,146,146,315,1,,,,
,,,,,,4abe905ba7adfc087a0af385,66a626ef09d4e21e1a8894ec,6734a02d2b5a663439a4f70b,2024-11-13_09h49.00.754,Tarea de género gramatical,2024.2.2,Win32,59.88023952,,,,,,,,,,,,,,,,,,,,,,,340.5469,341.622,l,1,0.4021,,[],[],[],[],[],[],[],0.4021,1,341.6222,342.1212,,,,,,1314,MAS,CON,150,sótano,,l,,342.1212,342.1214,0.178385417,-0.2265625,0,0,0,,0,147,147,413,1,,,,
,,,,,,4abe905ba7adfc087a0af385,66a626ef09d4e21e1a8894ec,6734a02d2b5a663439a4f70b,2024-11-13_09h49.00.754,Tarea de género gramatical,2024.2.2,Win32,59.88023952,,,,,,,,,,,,,,,,,,,,,,,342.1244,343.2202,a,1,0.4204,,[],[],[],[],[],[],[],0.4204,1,343.2205,343.7189,,,,,,1195,FEM,DIS,150,grasa,el,a,,343.719,343.7192,0.178385417,-0.2265625,0,0,0,,0,148,148,294,1,,,,
,,,,,,4abe905ba7adfc087a0af385,66a626ef09d4e21e1a8894ec,6734a02d2b5a663439a4f70b,2024-11-13_09h49.00.754,Tarea de género gramatical,2024.2.2,Win32,59.88023952,,,,,,,,,,,,,,,,,,,,,,,343.7205,344.9682,a,1,0.5681,,[],[],[],[],[],[],[],0.5681,1,344.9685,345.4678,,,,,,1107,FEM,CON,150,playa,,a,,345.4678,345.4681,0.178385417,-0.2265625,0,0,0,,0,149,149,206,1,,,,
,,,,,,4abe905ba7adfc087a0af385,66a626ef09d4e21e1a8894ec,6734a02d2b5a663439a4f70b,2024-11-13_09h49.00.754,Tarea de género gramatical,2024.2.2,Win32,59.88023952,,,,,,,,,,,,,,,,,,,,,,,345.4709,346.8498,a,1,0.7026,,[],[],[],[],[],[],[],0.7026,1,346.85,347.3491,,,,,,1147,FEM,DIS,150,frase,el,a,,347.352,354.6923,0.178385417,-0.2265625,0,0,0,space,0,150,150,246,1,7.3274,,,
,,,,,,4abe905ba7adfc087a0af385,66a626ef09d4e21e1a8894ec,6734a02d2b5a663439a4f70b,2024-11-13_09h49.00.754,Tarea de género gramatical,2024.2.2,Win32,59.88023952,,,,,,,,,,,,,,,,,,,,,,,354.6956,355.9911,l,0,0.6239,,[],[],[],[],[],[],[],0.6239,0,355.9932,356.4953,,,,,,1165,FEM,DIS,150,rueda,el,a,,356.4954,356.4957,0.178385417,-0.2265625,0,0,0,,0,151,151,264,1,,,,
,,,,,,4abe905ba7adfc087a0af385,66a626ef09d4e21e1a8894ec,6734a02d2b5a663439a4f70b,2024-11-13_09h49.00.754,Tarea de género gramatical,2024.2.2,Win32,59.88023952,,,,,,,,,,,,,,,,,,,,,,,356.4978,357.5232,a,1,0.3422,,[],[],[],[],[],[],[],0.3422,1,357.5253,358.0231,,,,,,1143,FEM,CON,150,salsa,,a,,358.0236,358.0238,0.178385417,-0.2265625,0,0,0,,0,152,152,242,1,,,,
,,,,,,4abe905ba7adfc087a0af385,66a626ef09d4e21e1a8894ec,6734a02d2b5a663439a4f70b,2024-11-13_09h49.00.754,Tarea de género gramatical,2024.2.2,Win32,59.88023952,,,,,,,,,,,,,,,,,,,,,,,358.0261,359.0881,l,1,0.4048,,[],[],[],[],[],[],[],0.4048,1,359.0885,359.5879,,,,,,1104,MAS,CON,150,papel,,l,,359.5881,359.5883,0.178385417,-0.2265625,0,0,0,,0,153,153,203,1,,,,
,,,,,,4abe905ba7adfc087a0af385,66a626ef09d4e21e1a8894ec,6734a02d2b5a663439a4f70b,2024-11-13_09h49.00.754,Tarea de género gramatical,2024.2.2,Win32,59.88023952,,,,,,,,,,,,,,,,,,,,,,,359.5904,360.9351,l,1,0.6785,,[],[],[],[],[],[],[],0.6785,1,360.9354,361.4401,,,,,,976,MAS,DIS,150,lujo,la,l,,361.4402,361.4406,0.178385417,-0.2265625,0,0,0,,0,154,154,75,1,,,,
,,,,,,4abe905ba7adfc087a0af385,66a626ef09d4e21e1a8894ec,6734a02d2b5a663439a4f70b,2024-11-13_09h49.00.754,Tarea de género gramatical,2024.2.2,Win32,59.88023952,,,,,,,,,,,,,,,,,,,,,,,361.4431,362.6047,a,1,0.4933,,[],[],[],[],[],[],[],0.4933,1,362.6048,363.1006,,,,,,1076,FEM,AGR,150,línea,la,a,,363.1029,363.104,0.178385417,-0.2265625,0,0,0,,0,155,155,175,1,,,,
,,,,,,4abe905ba7adfc087a0af385,66a626ef09d4e21e1a8894ec,6734a02d2b5a663439a4f70b,2024-11-13_09h49.00.754,Tarea de género gramatical,2024.2.2,Win32,59.88023952,,,,,,,,,,,,,,,,,,,,,,,363.1053,364.2332,l,1,0.4409,,[],[],[],[],[],[],[],0.4409,1,364.2336,364.7324,,,,,,1036,MAS,DIS,150,vago,la,l,,364.7326,364.733,0.178385417,-0.2265625,0,0,0,,0,156,156,135,1,,,,
,,,,,,4abe905ba7adfc087a0af385,66a626ef09d4e21e1a8894ec,6734a02d2b5a663439a4f70b,2024-11-13_09h49.00.754,Tarea de género gramatical,2024.2.2,Win32,59.88023952,,,,,,,,,,,,,,,,,,,,,,,364.7354,365.7815,l,1,0.3672,,[],[],[],[],[],[],[],0.3672,1,365.7819,366.2843,,,,,,1007,MAS,AGR,150,cubo,el,l,,366.2845,366.2848,0.178385417,-0.2265625,0,0,0,,0,157,157,106,1,,,,
,,,,,,4abe905ba7adfc087a0af385,66a626ef09d4e21e1a8894ec,6734a02d2b5a663439a4f70b,2024-11-13_09h49.00.754,Tarea de género gramatical,2024.2.2,Win32,59.88023952,,,,,,,,,,,,,,,,,,,,,,,366.287,367.3343,a,1,0.377,,[],[],[],[],[],[],[],0.377,1,367.3344,367.8297,,,,,,1250,FEM,AGR,150,imagen,la,a,,367.8299,367.8305,0.178385417,-0.2265625,0,0,0,,0,158,158,349,1,,,,
,,,,,,4abe905ba7adfc087a0af385,66a626ef09d4e21e1a8894ec,6734a02d2b5a663439a4f70b,2024-11-13_09h49.00.754,Tarea de género gramatical,2024.2.2,Win32,59.88023952,,,,,,,,,,,,,,,,,,,,,,,367.8327,368.917,a,1,0.4181,,[],[],[],[],[],[],[],0.4181,1,368.9173,369.4115,,,,,,1257,FEM,CON,150,lengua,,a,,369.4148,369.4167,0.178385417,-0.2265625,0,0,0,,0,159,159,356,1,,,,
,,,,,,4abe905ba7adfc087a0af385,66a626ef09d4e21e1a8894ec,6734a02d2b5a663439a4f70b,2024-11-13_09h49.00.754,Tarea de género gramatical,2024.2.2,Win32,59.88023952,,,,,,,,,,,,,,,,,,,,,,,369.4187,370.6483,a,1,0.5504,,[],[],[],[],[],[],[],0.5504,1,370.6485,371.1463,,,,,,1279,FEM,DIS,150,granja,el,a,,371.1464,371.1465,0.178385417,-0.2265625,0,0,0,,0,160,160,378,1,,,,
,,,,,,4abe905ba7adfc087a0af385,66a626ef09d4e21e1a8894ec,6734a02d2b5a663439a4f70b,2024-11-13_09h49.00.754,Tarea de género gramatical,2024.2.2,Win32,59.88023952,,,,,,,,,,,,,,,,,,,,,,,371.1476,372.2634,l,1,0.4452,,[],[],[],[],[],[],[],0.4452,1,372.2635,372.7582,,,,,,912,MAS,CON,150,plan,,l,,372.7585,372.7591,0.178385417,-0.2265625,0,0,0,,0,161,161,11,1,,,,
,,,,,,4abe905ba7adfc087a0af385,66a626ef09d4e21e1a8894ec,6734a02d2b5a663439a4f70b,2024-11-13_09h49.00.754,Tarea de género gramatical,2024.2.2,Win32,59.88023952,,,,,,,,,,,,,,,,,,,,,,,372.7614,373.8279,a,1,0.3938,,[],[],[],[],[],[],[],0.3938,1,373.828,374.3233,,,,,,985,FEM,DIS,150,gira,el,a,,374.3237,374.324,0.178385417,-0.2265625,0,0,0,,0,162,162,84,1,,,,
,,,,,,4abe905ba7adfc087a0af385,66a626ef09d4e21e1a8894ec,6734a02d2b5a663439a4f70b,2024-11-13_09h49.00.754,Tarea de género gramatical,2024.2.2,Win32,59.88023952,,,,,,,,,,,,,,,,,,,,,,,374.3265,376.0384,a,1,1.0466,,[],[],[],[],[],[],[],1.0466,1,376.0388,376.5375,,,,,,1118,FEM,AGR,150,nieve,la,a,,376.5377,376.5382,0.178385417,-0.2265625,0,0,0,,0,163,163,217,1,,,,
,,,,,,4abe905ba7adfc087a0af385,66a626ef09d4e21e1a8894ec,6734a02d2b5a663439a4f70b,2024-11-13_09h49.00.754,Tarea de género gramatical,2024.2.2,Win32,59.88023952,,,,,,,,,,,,,,,,,,,,,,,376.5409,377.8743,a,1,0.6675,,[],[],[],[],[],[],[],0.6675,1,377.8745,378.369,,,,,,1329,FEM,CON,150,fianza,,a,,378.372,378.3736,0.178385417,-0.2265625,0,0,0,,0,164,164,428,1,,,,
,,,,,,4abe905ba7adfc087a0af385,66a626ef09d4e21e1a8894ec,6734a02d2b5a663439a4f70b,2024-11-13_09h49.00.754,Tarea de género gramatical,2024.2.2,Win32,59.88023952,,,,,,,,,,,,,,,,,,,,,,,378.3752,379.7057,l,1,0.6617,,[],[],[],[],[],[],[],0.6617,1,379.7058,380.2046,,,,,,1222,MAS,DIS,150,minuto,la,l,,380.2046,380.2048,0.178385417,-0.2265625,0,0,0,,0,165,165,321,1,,,,
,,,,,,4abe905ba7adfc087a0af385,66a626ef09d4e21e1a8894ec,6734a02d2b5a663439a4f70b,2024-11-13_09h49.00.754,Tarea de género gramatical,2024.2.2,Win32,59.88023952,,,,,,,,,,,,,,,,,,,,,,,380.2068,381.5381,a,0,0.6612,,[],[],[],[],[],[],[],0.6612,0,381.5398,382.0364,,,,,,1126,MAS,DIS,150,color,la,l,,382.0365,382.0367,0.178385417,-0.2265625,0,0,0,,0,166,166,225,1,,,,
,,,,,,4abe905ba7adfc087a0af385,66a626ef09d4e21e1a8894ec,6734a02d2b5a663439a4f70b,2024-11-13_09h49.00.754,Tarea de género gramatical,2024.2.2,Win32,59.88023952,,,,,,,,,,,,,,,,,,,,,,,382.0388,383.1812,l,1,0.4704,,[],[],[],[],[],[],[],0.4704,1,383.1833,383.6854,,,,,,936,MAS,CON,150,dedo,,l,,383.6856,383.6859,0.178385417,-0.2265625,0,0,0,,0,167,167,35,1,,,,
,,,,,,4abe905ba7adfc087a0af385,66a626ef09d4e21e1a8894ec,6734a02d2b5a663439a4f70b,2024-11-13_09h49.00.754,Tarea de género gramatical,2024.2.2,Win32,59.88023952,,,,,,,,,,,,,,,,,,,,,,,383.6881,384.7843,a,1,0.4179,,[],[],[],[],[],[],[],0.4179,1,384.7844,385.2793,,,,,,1317,FEM,CON,150,cabaña,,a,,385.2826,385.2848,0.178385417,-0.2265625,0,0,0,,0,168,168,416,1,,,,
,,,,,,4abe905ba7adfc087a0af385,66a626ef09d4e21e1a8894ec,6734a02d2b5a663439a4f70b,2024-11-13_09h49.00.754,Tarea de género gramatical,2024.2.2,Win32,59.88023952,,,,,,,,,,,,,,,,,,,,,,,385.2867,386.6445,l,1,0.6772,,[],[],[],[],[],[],[],0.6772,1,386.6449,387.1488,,,,,,1264,MAS,DIS,150,viento,la,l,,387.149,387.1492,0.178385417,-0.2265625,0,0,0,,0,169,169,363,1,,,,
,,,,,,4abe905ba7adfc087a0af385,66a626ef09d4e21e1a8894ec,6734a02d2b5a663439a4f70b,2024-11-13_09h49.00.754,Tarea de género gramatical,2024.2.2,Win32,59.88023952,,,,,,,,,,,,,,,,,,,,,,,387.1514,388.4481,a,1,0.6175,,[],[],[],[],[],[],[],0.6175,1,388.4483,388.9471,,,,,,1303,FEM,DIS,150,paliza,el,a,,388.9473,388.9476,0.178385417,-0.2265625,0,0,0,,0,170,170,402,1,,,,
,,,,,,4abe905ba7adfc087a0af385,66a626ef09d4e21e1a8894ec,6734a02d2b5a663439a4f70b,2024-11-13_09h49.00.754,Tarea de género gramatical,2024.2.2,Win32,59.88023952,,,,,,,,,,,,,,,,,,,,,,,388.95,390.1749,a,1,0.5428,,[],[],[],[],[],[],[],0.5428,1,390.1752,390.6741,,,,,,932,FEM,AGR,150,caja,la,a,,390.6744,390.675,0.178385417,-0.2265625,0,0,0,,0,171,171,31,1,,,,
,,,,,,4abe905ba7adfc087a0af385,66a626ef09d4e21e1a8894ec,6734a02d2b5a663439a4f70b,2024-11-13_09h49.00.754,Tarea de género gramatical,2024.2.2,Win32,59.88023952,,,,,,,,,,,,,,,,,,,,,,,390.6775,391.7947,a,1,0.4611,,[],[],[],[],[],[],[],0.4611,1,391.7949,392.2928,,,,,,1113,FEM,CON,150,magia,,a,,392.2928,392.293,0.178385417,-0.2265625,0,0,0,,0,172,172,212,1,,,,
,,,,,,4abe905ba7adfc087a0af385,66a626ef09d4e21e1a8894ec,6734a02d2b5a663439a4f70b,2024-11-13_09h49.00.754,Tarea de género gramatical,2024.2.2,Win32,59.88023952,,,,,,,,,,,,,,,,,,,,,,,392.2948,393.4709,l,1,0.5014,,[],[],[],[],[],[],[],0.5014,1,393.4712,393.9754,,,,,,1325,MAS,AGR,150,chiste,el,l,,393.9782,393.9806,0.178385417,-0.2265625,0,0,0,,0,173,173,424,1,,,,
,,,,,,4abe905ba7adfc087a0af385,66a626ef09d4e21e1a8894ec,6734a02d2b5a663439a4f70b,2024-11-13_09h49.00.754,Tarea de género gramatical,2024.2.2,Win32,59.88023952,,,,,,,,,,,,,,,,,,,,,,,393.9825,395.0696,a,1,0.4077,,[],[],[],[],[],[],[],0.4077,1,395.07,395.5685,,,,,,1045,FEM,DIS,150,bota,el,a,,395.5688,395.5691,0.178385417,-0.2265625,0,0,0,,0,174,174,144,1,,,,
,,,,,,4abe905ba7adfc087a0af385,66a626ef09d4e21e1a8894ec,6734a02d2b5a663439a4f70b,2024-11-13_09h49.00.754,Tarea de género gramatical,2024.2.2,Win32,59.88023952,,,,,,,,,,,,,,,,,,,,,,,395.5709,396.7063,a,1,0.4613,,[],[],[],[],[],[],[],0.4613,1,396.7065,397.2055,,,,,,1046,FEM,AGR,150,lana,la,a,,397.2056,397.2058,0.178385417,-0.2265625,0,0,0,,0,175,175,145,1,,,,
,,,,,,4abe905ba7adfc087a0af385,66a626ef09d4e21e1a8894ec,6734a02d2b5a663439a4f70b,2024-11-13_09h49.00.754,Tarea de género gramatical,2024.2.2,Win32,59.88023952,,,,,,,,,,,,,,,,,,,,,,,397.2082,398.3716,l,1,0.4845,,[],[],[],[],[],[],[],0.4845,1,398.3718,398.87,,,,,,1133,MAS,AGR,150,golpe,el,l,,398.8701,398.8702,0.178385417,-0.2265625,0,0,0,,0,176,176,232,1,,,,
,,,,,,4abe905ba7adfc087a0af385,66a626ef09d4e21e1a8894ec,6734a02d2b5a663439a4f70b,2024-11-13_09h49.00.754,Tarea de género gramatical,2024.2.2,Win32,59.88023952,,,,,,,,,,,,,,,,,,,,,,,398.8721,399.9314,l,1,0.3798,,[],[],[],[],[],[],[],0.3798,1,399.9317,400.435,,,,,,1350,MAS,CON,150,conejo,,l,,400.4374,400.439,0.178385417,-0.2265625,0,0,0,,0,177,177,449,1,,,,
,,,,,,4abe905ba7adfc087a0af385,66a626ef09d4e21e1a8894ec,6734a02d2b5a663439a4f70b,2024-11-13_09h49.00.754,Tarea de género gramatical,2024.2.2,Win32,59.88023952,,,,,,,,,,,,,,,,,,,,,,,400.4406,401.4188,a,1,0.3015,,[],[],[],[],[],[],[],0.3015,1,401.4191,401.9129,,,,,,938,FEM,AGR,150,obra,la,a,,401.9131,401.9134,0.178385417,-0.2265625,0,0,0,,0,178,178,37,1,,,,
,,,,,,4abe905ba7adfc087a0af385,66a626ef09d4e21e1a8894ec,6734a02d2b5a663439a4f70b,2024-11-13_09h49.00.754,Tarea de género gramatical,2024.2.2,Win32,59.88023952,,,,,,,,,,,,,,,,,,,,,,,401.9158,402.9618,a,1,0.3563,,[],[],[],[],[],[],[],0.3563,1,402.9622,403.4656,,,,,,1028,FEM,AGR,150,leña,la,a,,403.4656,403.4659,0.178385417,-0.2265625,0,0,0,,0,179,179,127,1,,,,
,,,,,,4abe905ba7adfc087a0af385,66a626ef09d4e21e1a8894ec,6734a02d2b5a663439a4f70b,2024-11-13_09h49.00.754,Tarea de género gramatical,2024.2.2,Win32,59.88023952,,,,,,,,,,,,,,,,,,,,,,,403.4678,404.5637,l,1,0.4307,,[],[],[],[],[],[],[],0.4307,1,404.5638,405.0643,,,,,,1199,MAS,AGR,150,rumbo,el,l,,405.0645,405.0647,0.178385417,-0.2265625,0,0,0,,0,180,180,298,1,,,,
,,,,,,4abe905ba7adfc087a0af385,66a626ef09d4e21e1a8894ec,6734a02d2b5a663439a4f70b,2024-11-13_09h49.00.754,Tarea de género gramatical,2024.2.2,Win32,59.88023952,,,,,,,,,,,,,,,,,,,,,,,405.0669,406.2956,l,1,0.5509,,[],[],[],[],[],[],[],0.5509,1,406.2958,406.7961,,,,,,1266,MAS,CON,150,riesgo,,l,,406.7962,406.7964,0.178385417,-0.2265625,0,0,0,,0,181,181,365,1,,,,
,,,,,,4abe905ba7adfc087a0af385,66a626ef09d4e21e1a8894ec,6734a02d2b5a663439a4f70b,2024-11-13_09h49.00.754,Tarea de género gramatical,2024.2.2,Win32,59.88023952,,,,,,,,,,,,,,,,,,,,,,,406.7989,408.0785,l,1,0.6156,,[],[],[],[],[],[],[],0.6156,1,408.0787,408.5728,,,,,,1204,MAS,DIS,150,tiempo,la,l,,408.5757,408.5773,0.178385417,-0.2265625,0,0,0,,0,182,182,303,1,,,,
,,,,,,4abe905ba7adfc087a0af385,66a626ef09d4e21e1a8894ec,6734a02d2b5a663439a4f70b,2024-11-13_09h49.00.754,Tarea de género gramatical,2024.2.2,Win32,59.88023952,,,,,,,,,,,,,,,,,,,,,,,408.5789,409.7437,l,1,0.4844,,[],[],[],[],[],[],[],0.4844,1,409.7439,410.2425,,,,,,1121,MAS,AGR,150,brazo,el,l,,410.2427,410.243,0.178385417,-0.2265625,0,0,0,,0,183,183,220,1,,,,
,,,,,,4abe905ba7adfc087a0af385,66a626ef09d4e21e1a8894ec,6734a02d2b5a663439a4f70b,2024-11-13_09h49.00.754,Tarea de género gramatical,2024.2.2,Win32,59.88023952,,,,,,,,,,,,,,,,,,,,,,,410.2453,411.492,a,1,0.5683,,[],[],[],[],[],[],[],0.5683,1,411.4922,411.9861,,,,,,1172,FEM,AGR,150,oreja,la,a,,411.9864,411.9869,0.178385417,-0.2265625,0,0,0,,0,184,184,271,1,,,,
,,,,,,4abe905ba7adfc087a0af385,66a626ef09d4e21e1a8894ec,6734a02d2b5a663439a4f70b,2024-11-13_09h49.00.754,Tarea de género gramatical,2024.2.2,Win32,59.88023952,,,,,,,,,,,,,,,,,,,,,,,411.9894,413.5016,a,1,0.8401,,[],[],[],[],[],[],[],0.8401,1,413.502,414.0008,,,,,,1135,FEM,DIS,150,torre,el,a,,414.001,414.0014,0.178385417,-0.2265625,0,0,0,,0,185,185,234,1,,,,
,,,,,,4abe905ba7adfc087a0af385,66a626ef09d4e21e1a8894ec,6734a02d2b5a663439a4f70b,2024-11-13_09h49.00.754,Tarea de género gramatical,2024.2.2,Win32,59.88023952,,,,,,,,,,,,,,,,,,,,,,,414.0039,415.2879,l,1,0.6172,,[],[],[],[],[],[],[],0.6172,1,415.2881,415.7827,,,,,,972,MAS,CON,150,hoyo,,l,,415.7858,415.7879,0.178385417,-0.2265625,0,0,0,,0,186,186,71,1,,,,
,,,,,,4abe905ba7adfc087a0af385,66a626ef09d4e21e1a8894ec,6734a02d2b5a663439a4f70b,2024-11-13_09h49.00.754,Tarea de género gramatical,2024.2.2,Win32,59.88023952,,,,,,,,,,,,,,,,,,,,,,,415.7899,416.8646,l,1,0.3924,,[],[],[],[],[],[],[],0.3924,1,416.8648,417.3689,,,,,,1235,MAS,AGR,150,montón,el,l,,417.3691,417.3693,0.178385417,-0.2265625,0,0,0,,0,187,187,334,1,,,,
,,,,,,4abe905ba7adfc087a0af385,66a626ef09d4e21e1a8894ec,6734a02d2b5a663439a4f70b,2024-11-13_09h49.00.754,Tarea de género gramatical,2024.2.2,Win32,59.88023952,,,,,,,,,,,,,,,,,,,,,,,417.3714,418.4471,a,1,0.4068,,[],[],[],[],[],[],[],0.4068,1,418.4474,418.9462,,,,,,903,FEM,CON,150,cosa,,a,,418.9463,418.9466,0.178385417,-0.2265625,0,0,0,,0,188,188,2,1,,,,
,,,,,,4abe905ba7adfc087a0af385,66a626ef09d4e21e1a8894ec,6734a02d2b5a663439a4f70b,2024-11-13_09h49.00.754,Tarea de género gramatical,2024.2.2,Win32,59.88023952,,,,,,,,,,,,,,,,,,,,,,,418.949,420.128,a,1,0.5039,,[],[],[],[],[],[],[],0.5039,1,420.1284,420.6283,,,,,,962,FEM,AGR,150,sopa,la,a,,420.6285,420.6288,0.178385417,-0.2265625,0,0,0,,0,189,189,61,1,,,,
,,,,,,4abe905ba7adfc087a0af385,66a626ef09d4e21e1a8894ec,6734a02d2b5a663439a4f70b,2024-11-13_09h49.00.754,Tarea de género gramatical,2024.2.2,Win32,59.88023952,,,,,,,,,,,,,,,,,,,,,,,420.6312,421.7606,l,1,0.441,,[],[],[],[],[],[],[],0.441,1,421.7612,422.2593,,,,,,1176,MAS,CON,150,ritmo,,l,,422.2595,422.2599,0.178385417,-0.2265625,0,0,0,,0,190,190,275,1,,,,
,,,,,,4abe905ba7adfc087a0af385,66a626ef09d4e21e1a8894ec,6734a02d2b5a663439a4f70b,2024-11-13_09h49.00.754,Tarea de género gramatical,2024.2.2,Win32,59.88023952,,,,,,,,,,,,,,,,,,,,,,,422.262,423.3088,l,1,0.368,,[],[],[],[],[],[],[],0.368,1,423.3091,423.808,,,,,,1169,MAS,AGR,150,primo,el,l,,423.8111,423.8131,0.178385417,-0.2265625,0,0,0,,0,191,191,268,1,,,,
,,,,,,4abe905ba7adfc087a0af385,66a626ef09d4e21e1a8894ec,6734a02d2b5a663439a4f70b,2024-11-13_09h49.00.754,Tarea de género gramatical,2024.2.2,Win32,59.88023952,,,,,,,,,,,,,,,,,,,,,,,423.815,424.8956,a,1,0.4118,,[],[],[],[],[],[],[],0.4118,1,424.8957,425.3899,,,,,,944,FEM,AGR,150,zona,la,a,,425.3902,425.3906,0.178385417,-0.2265625,0,0,0,,0,192,192,43,1,,,,
,,,,,,4abe905ba7adfc087a0af385,66a626ef09d4e21e1a8894ec,6734a02d2b5a663439a4f70b,2024-11-13_09h49.00.754,Tarea de género gramatical,2024.2.2,Win32,59.88023952,,,,,,,,,,,,,,,,,,,,,,,425.3927,426.6932,a,1,0.617,,[],[],[],[],[],[],[],0.617,1,426.6933,427.1927,,,,,,1237,FEM,DIS,150,escena,el,a,,427.1928,427.193,0.178385417,-0.2265625,0,0,0,,0,193,193,336,1,,,,
,,,,,,4abe905ba7adfc087a0af385,66a626ef09d4e21e1a8894ec,6734a02d2b5a663439a4f70b,2024-11-13_09h49.00.754,Tarea de género gramatical,2024.2.2,Win32,59.88023952,,,,,,,,,,,,,,,,,,,,,,,427.1954,428.3757,a,1,0.5011,,[],[],[],[],[],[],[],0.5011,1,428.3759,428.8743,,,,,,1029,FEM,CON,150,rana,,a,,428.8744,428.8747,0.178385417,-0.2265625,0,0,0,,0,194,194,128,1,,,,
,,,,,,4abe905ba7adfc087a0af385,66a626ef09d4e21e1a8894ec,6734a02d2b5a663439a4f70b,2024-11-13_09h49.00.754,Tarea de género gramatical,2024.2.2,Win32,59.88023952,,,,,,,,,,,,,,,,,,,,,,,428.877,430.2516,a,1,0.7029,,[],[],[],[],[],[],[],0.7029,1,430.252,430.7513,,,,,,1051,FEM,DIS,150,noche,el,a,,430.7544,430.7564,0.178385417,-0.2265625,0,0,0,,0,195,195,150,1,,,,
,,,,,,4abe905ba7adfc087a0af385,66a626ef09d4e21e1a8894ec,6734a02d2b5a663439a4f70b,2024-11-13_09h49.00.754,Tarea de género gramatical,2024.2.2,Win32,59.88023952,,,,,,,,,,,,,,,,,,,,,,,430.7584,432.066,l,1,0.6378,,[],[],[],[],[],[],[],0.6378,1,432.0663,432.5663,,,,,,1246,MAS,DIS,150,juicio,la,l,,432.5665,432.5669,0.178385417,-0.2265625,0,0,0,,0,196,196,345,1,,,,
,,,,,,4abe905ba7adfc087a0af385,66a626ef09d4e21e1a8894ec,6734a02d2b5a663439a4f70b,2024-11-13_09h49.00.754,Tarea de género gramatical,2024.2.2,Win32,59.88023952,,,,,,,,,,,,,,,,,,,,,,,432.5692,433.6701,a,0,0.4277,,[],[],[],[],[],[],[],0.4277,0,433.6712,434.1647,,,,,,1182,MAS,CON,150,bolso,,l,,434.1649,434.1653,0.178385417,-0.2265625,0,0,0,,0,197,197,281,1,,,,
,,,,,,4abe905ba7adfc087a0af385,66a626ef09d4e21e1a8894ec,6734a02d2b5a663439a4f70b,2024-11-13_09h49.00.754,Tarea de género gramatical,2024.2.2,Win32,59.88023952,,,,,,,,,,,,,,,,,,,,,,,434.1675,435.2963,l,1,0.4664,,[],[],[],[],[],[],[],0.4664,1,435.2979,435.8009,,,,,,1230,MAS,CON,150,estado,,l,,435.801,435.8012,0.178385417,-0.2265625,0,0,0,,0,198,198,329,1,,,,
,,,,,,4abe905ba7adfc087a0af385,66a626ef09d4e21e1a8894ec,6734a02d2b5a663439a4f70b,2024-11-13_09h49.00.754,Tarea de género gramatical,2024.2.2,Win32,59.88023952,,,,,,,,,,,,,,,,,,,,,,,435.8037,437.0835,a,1,0.6108,,[],[],[],[],[],[],[],0.6108,1,437.0839,437.5824,,,,,,1136,FEM,AGR,150,deuda,la,a,,437.5826,437.5827,0.178385417,-0.2265625,0,0,0,,0,199,199,235,1,,,,
,,,,,,4abe905ba7adfc087a0af385,66a626ef09d4e21e1a8894ec,6734a02d2b5a663439a4f70b,2024-11-13_09h49.00.754,Tarea de género gramatical,2024.2.2,Win32,59.88023952,,,,,,,,,,,,,,,,,,,,,,,437.5851,438.6269,l,1,0.3634,,[],[],[],[],[],[],[],0.3634,1,438.6273,439.1262,,,,,,1236,MAS,CON,150,crimen,,l,,439.1296,439.1315,0.178385417,-0.2265625,0,0,0,,0,200,200,335,1,,,,
,,,,,,4abe905ba7adfc087a0af385,66a626ef09d4e21e1a8894ec,6734a02d2b5a663439a4f70b,2024-11-13_09h49.00.754,Tarea de género gramatical,2024.2.2,Win32,59.88023952,,,,,,,,,,,,,,,,,,,,,,,439.1334,440.2584,a,1,0.4452,,[],[],[],[],[],[],[],0.4452,1,440.2588,440.7577,,,,,,986,FEM,AGR,150,cruz,la,a,,440.758,440.7584,0.178385417,-0.2265625,0,0,0,,0,201,201,85,1,,,,
,,,,,,4abe905ba7adfc087a0af385,66a626ef09d4e21e1a8894ec,6734a02d2b5a663439a4f70b,2024-11-13_09h49.00.754,Tarea de género gramatical,2024.2.2,Win32,59.88023952,,,,,,,,,,,,,,,,,,,,,,,440.7598,441.8739,l,1,0.4263,,[],[],[],[],[],[],[],0.4263,1,441.8741,442.3731,,,,,,990,MAS,CON,150,león,,l,,442.3733,442.3737,0.178385417,-0.2265625,0,0,0,,0,202,202,89,1,,,,
,,,,,,4abe905ba7adfc087a0af385,66a626ef09d4e21e1a8894ec,6734a02d2b5a663439a4f70b,2024-11-13_09h49.00.754,Tarea de género gramatical,2024.2.2,Win32,59.88023952,,,,,,,,,,,,,,,,,,,,,,,442.3762,443.4438,a,1,0.4007,,[],[],[],[],[],[],[],0.4007,1,443.444,443.938,,,,,,1268,FEM,AGR,150,gracia,la,a,,443.9382,443.9387,0.178385417,-0.2265625,0,0,0,,0,203,203,367,1,,,,
,,,,,,4abe905ba7adfc087a0af385,66a626ef09d4e21e1a8894ec,6734a02d2b5a663439a4f70b,2024-11-13_09h49.00.754,Tarea de género gramatical,2024.2.2,Win32,59.88023952,,,,,,,,,,,,,,,,,,,,,,,443.9408,444.959,l,1,0.3621,,[],[],[],[],[],[],[],0.3621,1,444.9591,445.4537,,,,,,1181,MAS,AGR,150,actor,el,l,,445.4568,445.4588,0.178385417,-0.2265625,0,0,0,,0,204,204,280,1,,,,
,,,,,,4abe905ba7adfc087a0af385,66a626ef09d4e21e1a8894ec,6734a02d2b5a663439a4f70b,2024-11-13_09h49.00.754,Tarea de género gramatical,2024.2.2,Win32,59.88023952,,,,,,,,,,,,,,,,,,,,,,,445.4606,446.5357,a,1,0.4015,,[],[],[],[],[],[],[],0.4015,1,446.5359,447.04,,,,,,1274,FEM,AGR,150,herida,la,a,,447.0401,447.0404,0.178385417,-0.2265625,0,0,0,,0,205,205,373,1,,,,
,,,,,,4abe905ba7adfc087a0af385,66a626ef09d4e21e1a8894ec,6734a02d2b5a663439a4f70b,2024-11-13_09h49.00.754,Tarea de género gramatical,2024.2.2,Win32,59.88023952,,,,,,,,,,,,,,,,,,,,,,,447.0426,448.1562,l,1,0.4342,,[],[],[],[],[],[],[],0.4342,1,448.1564,448.6502,,,,,,983,MAS,AGR,150,nene,el,l,,448.6503,448.6507,0.178385417,-0.2265625,0,0,0,,0,206,206,82,1,,,,
,,,,,,4abe905ba7adfc087a0af385,66a626ef09d4e21e1a8894ec,6734a02d2b5a663439a4f70b,2024-11-13_09h49.00.754,Tarea de género gramatical,2024.2.2,Win32,59.88023952,,,,,,,,,,,,,,,,,,,,,,,448.6528,449.9711,a,1,0.6454,,[],[],[],[],[],[],[],0.6454,1,449.9712,450.4689,,,,,,1069,FEM,DIS,150,vista,el,a,,450.469,450.4692,0.178385417,-0.2265625,0,0,0,,0,207,207,168,1,,,,
,,,,,,4abe905ba7adfc087a0af385,66a626ef09d4e21e1a8894ec,6734a02d2b5a663439a4f70b,2024-11-13_09h49.00.754,Tarea de género gramatical,2024.2.2,Win32,59.88023952,,,,,,,,,,,,,,,,,,,,,,,450.4712,451.6189,l,1,0.4782,,[],[],[],[],[],[],[],0.4782,1,451.6191,452.1127,,,,,,1096,MAS,DIS,150,barco,la,l,,452.1129,452.1132,0.178385417,-0.2265625,0,0,0,,0,208,208,195,1,,,,
,,,,,,4abe905ba7adfc087a0af385,66a626ef09d4e21e1a8894ec,6734a02d2b5a663439a4f70b,2024-11-13_09h49.00.754,Tarea de género gramatical,2024.2.2,Win32,59.88023952,,,,,,,,,,,,,,,,,,,,,,,452.1146,453.2178,l,1,0.4471,,[],[],[],[],[],[],[],0.4471,1,453.2181,453.7168,,,,,,1098,MAS,CON,150,hotel,,l,,453.7195,453.7214,0.178385417,-0.2265625,0,0,0,,0,209,209,197,1,,,,
,,,,,,4abe905ba7adfc087a0af385,66a626ef09d4e21e1a8894ec,6734a02d2b5a663439a4f70b,2024-11-13_09h49.00.754,Tarea de género gramatical,2024.2.2,Win32,59.88023952,,,,,,,,,,,,,,,,,,,,,,,453.7232,454.8276,a,1,0.4333,,[],[],[],[],[],[],[],0.4333,1,454.8279,455.3318,,,,,,1017,FEM,CON,150,raya,,a,,455.3318,455.3321,0.178385417,-0.2265625,0,0,0,,0,210,210,116,1,,,,
,,,,,,4abe905ba7adfc087a0af385,66a626ef09d4e21e1a8894ec,6734a02d2b5a663439a4f70b,2024-11-13_09h49.00.754,Tarea de género gramatical,2024.2.2,Win32,59.88023952,,,,,,,,,,,,,,,,,,,,,,,455.3342,456.3929,a,1,0.374,,[],[],[],[],[],[],[],0.374,1,456.3931,456.8969,,,,,,1059,FEM,CON,150,clase,,a,,456.897,456.8972,0.178385417,-0.2265625,0,0,0,,0,211,211,158,1,,,,
,,,,,,4abe905ba7adfc087a0af385,66a626ef09d4e21e1a8894ec,6734a02d2b5a663439a4f70b,2024-11-13_09h49.00.754,Tarea de género gramatical,2024.2.2,Win32,59.88023952,,,,,,,,,,,,,,,,,,,,,,,456.8994,458.1119,l,1,0.5432,,[],[],[],[],[],[],[],0.5432,1,458.1121,458.612,,,,,,1168,MAS,DIS,150,truco,la,l,,458.6122,458.6125,0.178385417,-0.2265625,0,0,0,,0,212,212,267,1,,,,
,,,,,,4abe905ba7adfc087a0af385,66a626ef09d4e21e1a8894ec,6734a02d2b5a663439a4f70b,2024-11-13_09h49.00.754,Tarea de género gramatical,2024.2.2,Win32,59.88023952,,,,,,,,,,,,,,,,,,,,,,,458.6151,460.2274,l,1,0.934,,[],[],[],[],[],[],[],0.934,1,460.2275,460.7266,,,,,,1331,MAS,AGR,150,veneno,el,l,,460.7295,460.7315,0.178385417,-0.2265625,0,0,0,,0,213,213,430,1,,,,
,,,,,,4abe905ba7adfc087a0af385,66a626ef09d4e21e1a8894ec,6734a02d2b5a663439a4f70b,2024-11-13_09h49.00.754,Tarea de género gramatical,2024.2.2,Win32,59.88023952,,,,,,,,,,,,,,,,,,,,,,,460.7337,461.8594,a,1,0.4613,,[],[],[],[],[],[],[],0.4613,1,461.8596,462.3537,,,,,,1286,FEM,AGR,150,sombra,la,a,,462.354,462.3543,0.178385417,-0.2265625,0,0,0,,0,214,214,385,1,,,,
,,,,,,4abe905ba7adfc087a0af385,66a626ef09d4e21e1a8894ec,6734a02d2b5a663439a4f70b,2024-11-13_09h49.00.754,Tarea de género gramatical,2024.2.2,Win32,59.88023952,,,,,,,,,,,,,,,,,,,,,,,462.3556,463.4581,a,1,0.4436,,[],[],[],[],[],[],[],0.4436,1,463.4583,463.952,,,,,,1070,FEM,AGR,150,carta,la,a,,463.9523,463.953,0.178385417,-0.2265625,0,0,0,,0,215,215,169,1,,,,
,,,,,,4abe905ba7adfc087a0af385,66a626ef09d4e21e1a8894ec,6734a02d2b5a663439a4f70b,2024-11-13_09h49.00.754,Tarea de género gramatical,2024.2.2,Win32,59.88023952,,,,,,,,,,,,,,,,,,,,,,,463.9552,465.1173,a,1,0.4738,,[],[],[],[],[],[],[],0.4738,1,465.1176,465.6172,,,,,,1159,FEM,DIS,150,prima,el,a,,465.6174,465.6178,0.178385417,-0.2265625,0,0,0,,0,216,216,258,1,,,,
,,,,,,4abe905ba7adfc087a0af385,66a626ef09d4e21e1a8894ec,6734a02d2b5a663439a4f70b,2024-11-13_09h49.00.754,Tarea de género gramatical,2024.2.2,Win32,59.88023952,,,,,,,,,,,,,,,,,,,,,,,465.6203,466.6713,a,1,0.3846,,[],[],[],[],[],[],[],0.3846,1,466.6715,467.1655,,,,,,1190,FEM,AGR,150,cabra,la,a,,467.1657,467.1661,0.178385417,-0.2265625,0,0,0,,0,217,217,289,1,,,,
,,,,,,4abe905ba7adfc087a0af385,66a626ef09d4e21e1a8894ec,6734a02d2b5a663439a4f70b,2024-11-13_09h49.00.754,Tarea de género gramatical,2024.2.2,Win32,59.88023952,,,,,,,,,,,,,,,,,,,,,,,467.1689,468.3151,l,1,0.4684,,[],[],[],[],[],[],[],0.4684,1,468.3154,468.8142,,,,,,1294,MAS,DIS,150,examen,la,l,,468.8175,468.8195,0.178385417,-0.2265625,0,0,0,,0,218,218,393,1,,,,
,,,,,,4abe905ba7adfc087a0af385,66a626ef09d4e21e1a8894ec,6734a02d2b5a663439a4f70b,2024-11-13_09h49.00.754,Tarea de género gramatical,2024.2.2,Win32,59.88023952,,,,,,,,,,,,,,,,,,,,,,,468.8214,470.0659,a,1,0.5763,,[],[],[],[],[],[],[],0.5763,1,470.066,470.5669,,,,,,1111,FEM,DIS,150,salud,el,a,,470.567,470.5672,0.178385417,-0.2265625,0,0,0,,0,219,219,210,1,,,,
,,,,,,4abe905ba7adfc087a0af385,66a626ef09d4e21e1a8894ec,6734a02d2b5a663439a4f70b,2024-11-13_09h49.00.754,Tarea de género gramatical,2024.2.2,Win32,59.88023952,,,,,,,,,,,,,,,,,,,,,,,470.5694,471.6784,l,1,0.4297,,[],[],[],[],[],[],[],0.4297,1,471.6786,472.1774,,,,,,1290,MAS,CON,150,rostro,,l,,472.1777,472.1782,0.178385417,-0.2265625,0,0,0,,0,220,220,389,1,,,,
,,,,,,4abe905ba7adfc087a0af385,66a626ef09d4e21e1a8894ec,6734a02d2b5a663439a4f70b,2024-11-13_09h49.00.754,Tarea de género gramatical,2024.2.2,Win32,59.88023952,,,,,,,,,,,,,,,,,,,,,,,472.1802,473.4812,l,1,0.634,,[],[],[],[],[],[],[],0.634,1,473.4814,473.9754,,,,,,1080,MAS,CON,150,fuego,,l,,473.9757,473.9761,0.178385417,-0.2265625,0,0,0,,0,221,221,179,1,,,,
,,,,,,4abe905ba7adfc087a0af385,66a626ef09d4e21e1a8894ec,6734a02d2b5a663439a4f70b,2024-11-13_09h49.00.754,Tarea de género gramatical,2024.2.2,Win32,59.88023952,,,,,,,,,,,,,,,,,,,,,,,473.9786,475.2741,l,1,0.6103,,[],[],[],[],[],[],[],0.6103,1,475.2746,475.778,,,,,,958,MAS,DIS,150,mono,la,l,,475.7805,475.7821,0.178385417,-0.2265625,0,0,0,,0,222,222,57,1,,,,
,,,,,,4abe905ba7adfc087a0af385,66a626ef09d4e21e1a8894ec,6734a02d2b5a663439a4f70b,2024-11-13_09h49.00.754,Tarea de género gramatical,2024.2.2,Win32,59.88023952,,,,,,,,,,,,,,,,,,,,,,,475.7837,476.8281,l,1,0.3793,,[],[],[],[],[],[],[],0.3793,1,476.8283,477.3271,,,,,,1014,MAS,CON,150,menú,,l,,477.3272,477.3275,0.178385417,-0.2265625,0,0,0,,0,223,223,113,1,,,,
,,,,,,4abe905ba7adfc087a0af385,66a626ef09d4e21e1a8894ec,6734a02d2b5a663439a4f70b,2024-11-13_09h49.00.754,Tarea de género gramatical,2024.2.2,Win32,59.88023952,,,,,,,,,,,,,,,,,,,,,,,477.3296,478.3709,a,1,0.3606,,[],[],[],[],[],[],[],0.3606,1,478.3713,478.8748,,,,,,1316,FEM,AGR,150,colina,la,a,,478.8749,478.8751,0.178385417,-0.2265625,0,0,0,,0,224,224,415,1,,,,
,,,,,,4abe905ba7adfc087a0af385,66a626ef09d4e21e1a8894ec,6734a02d2b5a663439a4f70b,2024-11-13_09h49.00.754,Tarea de género gramatical,2024.2.2,Win32,59.88023952,,,,,,,,,,,,,,,,,,,,,,,478.8771,480.2359,a,1,0.6839,,[],[],[],[],[],[],[],0.6839,1,480.2362,480.74,,,,,,1166,FEM,AGR,150,jaula,la,a,,480.7402,480.7405,0.178385417,-0.2265625,0,0,0,,0,225,225,265,1,,,,
,,,,,,4abe905ba7adfc087a0af385,66a626ef09d4e21e1a8894ec,6734a02d2b5a663439a4f70b,2024-11-13_09h49.00.754,Tarea de género gramatical,2024.2.2,Win32,59.88023952,,,,,,,,,,,,,,,,,,,,,,,480.7428,481.801,l,1,0.3899,,[],[],[],[],[],[],[],0.3899,1,481.8013,482.3006,,,,,,1050,MAS,CON,150,mozo,,l,,482.3007,482.3012,0.178385417,-0.2265625,0,0,0,,0,226,226,149,1,,,,
,,,,,,4abe905ba7adfc087a0af385,66a626ef09d4e21e1a8894ec,6734a02d2b5a663439a4f70b,2024-11-13_09h49.00.754,Tarea de género gramatical,2024.2.2,Win32,59.88023952,,,,,,,,,,,,,,,,,,,,,,,482.3034,483.4882,a,1,0.5116,,[],[],[],[],[],[],[],0.5116,1,483.4884,483.9869,,,,,,943,FEM,DIS,150,nena,el,a,,483.9898,483.992,0.178385417,-0.2265625,0,0,0,,0,227,227,42,1,,,,
,,,,,,4abe905ba7adfc087a0af385,66a626ef09d4e21e1a8894ec,6734a02d2b5a663439a4f70b,2024-11-13_09h49.00.754,Tarea de género gramatical,2024.2.2,Win32,59.88023952,,,,,,,,,,,,,,,,,,,,,,,483.9939,485.2366,a,1,0.5681,,[],[],[],[],[],[],[],0.5681,1,485.2368,485.7305,,,,,,1335,FEM,CON,150,niebla,,a,,485.7308,485.7311,0.178385417,-0.2265625,0,0,0,,0,228,228,434,1,,,,
,,,,,,4abe905ba7adfc087a0af385,66a626ef09d4e21e1a8894ec,6734a02d2b5a663439a4f70b,2024-11-13_09h49.00.754,Tarea de género gramatical,2024.2.2,Win32,59.88023952,,,,,,,,,,,,,,,,,,,,,,,485.7337,486.9179,a,1,0.5276,,[],[],[],[],[],[],[],0.5276,1,486.918,487.4166,,,,,,1040,FEM,AGR,150,mula,la,a,,487.4167,487.4169,0.178385417,-0.2265625,0,0,0,,0,229,229,139,1,,,,
,,,,,,4abe905ba7adfc087a0af385,66a626ef09d4e21e1a8894ec,6734a02d2b5a663439a4f70b,2024-11-13_09h49.00.754,Tarea de género gramatical,2024.2.2,Win32,59.88023952,,,,,,,,,,,,,,,,,,,,,,,487.4187,488.5613,l,1,0.4689,,[],[],[],[],[],[],[],0.4689,1,488.5617,489.0608,,,,,,960,MAS,CON,150,tono,,l,,489.061,489.0617,0.178385417,-0.2265625,0,0,0,,0,230,230,59,1,,,,
,,,,,,4abe905ba7adfc087a0af385,66a626ef09d4e21e1a8894ec,6734a02d2b5a663439a4f70b,2024-11-13_09h49.00.754,Tarea de género gramatical,2024.2.2,Win32,59.88023952,,,,,,,,,,,,,,,,,,,,,,,489.0636,489.997,a,1,0.2603,,[],[],[],[],[],[],[],0.2603,1,489.9971,490.4927,,,,,,1275,FEM,CON,150,cadena,,a,,490.4962,490.4983,0.178385417,-0.2265625,0,0,0,,0,231,231,374,1,,,,
,,,,,,4abe905ba7adfc087a0af385,66a626ef09d4e21e1a8894ec,6734a02d2b5a663439a4f70b,2024-11-13_09h49.00.754,Tarea de género gramatical,2024.2.2,Win32,59.88023952,,,,,,,,,,,,,,,,,,,,,,,490.5001,491.6301,a,1,0.4613,,[],[],[],[],[],[],[],0.4613,1,491.6305,492.1244,,,,,,1221,FEM,CON,150,comida,,a,,492.1246,492.125,0.178385417,-0.2265625,0,0,0,,0,232,232,320,1,,,,
,,,,,,4abe905ba7adfc087a0af385,66a626ef09d4e21e1a8894ec,6734a02d2b5a663439a4f70b,2024-11-13_09h49.00.754,Tarea de género gramatical,2024.2.2,Win32,59.88023952,,,,,,,,,,,,,,,,,,,,,,,492.1274,493.2619,l,1,0.4613,,[],[],[],[],[],[],[],0.4613,1,493.2621,493.7558,,,,,,1084,MAS,DIS,150,cielo,la,l,,493.756,493.7564,0.178385417,-0.2265625,0,0,0,,0,233,233,183,1,,,,
,,,,,,4abe905ba7adfc087a0af385,66a626ef09d4e21e1a8894ec,6734a02d2b5a663439a4f70b,2024-11-13_09h49.00.754,Tarea de género gramatical,2024.2.2,Win32,59.88023952,,,,,,,,,,,,,,,,,,,,,,,493.7585,494.8271,a,1,0.4145,,[],[],[],[],[],[],[],0.4145,1,494.8273,495.3213,,,,,,925,FEM,DIS,150,nave,el,a,,495.3215,495.3222,0.178385417,-0.2265625,0,0,0,,0,234,234,24,1,,,,
,,,,,,4abe905ba7adfc087a0af385,66a626ef09d4e21e1a8894ec,6734a02d2b5a663439a4f70b,2024-11-13_09h49.00.754,Tarea de género gramatical,2024.2.2,Win32,59.88023952,,,,,,,,,,,,,,,,,,,,,,,495.3242,497.0857,l,0,1.0938,,[],[],[],[],[],[],[],1.0938,0,497.088,497.586,,,,,,1245,FEM,CON,150,pierna,,a,,497.5863,497.5867,0.178385417,-0.2265625,0,0,0,,0,235,235,344,1,,,,
,,,,,,4abe905ba7adfc087a0af385,66a626ef09d4e21e1a8894ec,6734a02d2b5a663439a4f70b,2024-11-13_09h49.00.754,Tarea de género gramatical,2024.2.2,Win32,59.88023952,,,,,,,,,,,,,,,,,,,,,,,497.5891,499.0895,a,1,0.8445,,[],[],[],[],[],[],[],0.8445,1,499.0913,499.5839,,,,,,919,FEM,DIS,150,niña,el,a,,499.587,499.5886,0.178385417,-0.2265625,0,0,0,,0,236,236,18,1,,,,
,,,,,,4abe905ba7adfc087a0af385,66a626ef09d4e21e1a8894ec,6734a02d2b5a663439a4f70b,2024-11-13_09h49.00.754,Tarea de género gramatical,2024.2.2,Win32,59.88023952,,,,,,,,,,,,,,,,,,,,,,,499.5898,500.8492,l,1,0.5765,,[],[],[],[],[],[],[],0.5765,1,500.8496,501.3529,,,,,,1006,MAS,DIS,150,test,la,l,,501.353,501.3533,0.178385417,-0.2265625,0,0,0,,0,237,237,105,1,,,,
,,,,,,4abe905ba7adfc087a0af385,66a626ef09d4e21e1a8894ec,6734a02d2b5a663439a4f70b,2024-11-13_09h49.00.754,Tarea de género gramatical,2024.2.2,Win32,59.88023952,,,,,,,,,,,,,,,,,,,,,,,501.3553,503.1855,l,1,1.1508,,[],[],[],[],[],[],[],1.1508,1,503.1857,503.6796,,,,,,941,MAS,AGR,150,bote,el,l,,503.6798,503.6806,0.178385417,-0.2265625,0,0,0,,0,238,238,40,1,,,,
,,,,,,4abe905ba7adfc087a0af385,66a626ef09d4e21e1a8894ec,6734a02d2b5a663439a4f70b,2024-11-13_09h49.00.754,Tarea de género gramatical,2024.2.2,Win32,59.88023952,,,,,,,,,,,,,,,,,,,,,,,503.6839,504.7174,l,1,0.3513,,[],[],[],[],[],[],[],0.3513,1,504.7176,505.2158,,,,,,1031,MAS,AGR,150,kilo,el,l,,505.2159,505.2163,0.178385417,-0.2265625,0,0,0,,0,239,239,130,1,,,,
,,,,,,4abe905ba7adfc087a0af385,66a626ef09d4e21e1a8894ec,6734a02d2b5a663439a4f70b,2024-11-13_09h49.00.754,Tarea de género gramatical,2024.2.2,Win32,59.88023952,,,,,,,,,,,,,,,,,,,,,,,505.2185,506.2995,l,1,0.4129,,[],[],[],[],[],[],[],0.4129,1,506.2998,506.7981,,,,,,995,MAS,AGR,150,tomo,el,l,,506.801,506.803,0.178385417,-0.2265625,0,0,0,,0,240,240,94,1,,,,
,,,,,,4abe905ba7adfc087a0af385,66a626ef09d4e21e1a8894ec,6734a02d2b5a663439a4f70b,2024-11-13_09h49.00.754,Tarea de género gramatical,2024.2.2,Win32,59.88023952,,,,,,,,,,,,,,,,,,,,,,,506.8049,507.9642,a,0,0.4848,,[],[],[],[],[],[],[],0.4848,0,507.9659,508.4633,,,,,,1234,MAS,DIS,150,ataque,la,l,,508.4634,508.4637,0.178385417,-0.2265625,0,0,0,,0,241,241,333,1,,,,
,,,,,,4abe905ba7adfc087a0af385,66a626ef09d4e21e1a8894ec,6734a02d2b5a663439a4f70b,2024-11-13_09h49.00.754,Tarea de género gramatical,2024.2.2,Win32,59.88023952,,,,,,,,,,,,,,,,,,,,,,,508.4657,509.8286,a,1,0.684,,[],[],[],[],[],[],[],0.684,1,509.8301,510.3278,,,,,,945,FEM,CON,150,isla,,a,,510.3279,510.3281,0.178385417,-0.2265625,0,0,0,,0,242,242,44,1,,,,
,,,,,,4abe905ba7adfc087a0af385,66a626ef09d4e21e1a8894ec,6734a02d2b5a663439a4f70b,2024-11-13_09h49.00.754,Tarea de género gramatical,2024.2.2,Win32,59.88023952,,,,,,,,,,,,,,,,,,,,,,,510.3305,512.3758,l,1,1.3662,,[],[],[],[],[],[],[],1.3662,1,512.376,512.871,,,,,,965,MAS,AGR,150,rayo,el,l,,512.8712,512.8718,0.178385417,-0.2265625,0,0,0,,0,243,243,64,1,,,,
,,,,,,4abe905ba7adfc087a0af385,66a626ef09d4e21e1a8894ec,6734a02d2b5a663439a4f70b,2024-11-13_09h49.00.754,Tarea de género gramatical,2024.2.2,Win32,59.88023952,,,,,,,,,,,,,,,,,,,,,,,512.8741,514.225,l,1,0.6782,,[],[],[],[],[],[],[],0.6782,1,514.2252,514.7229,,,,,,1248,MAS,CON,150,anillo,,l,,514.7229,514.7233,0.178385417,-0.2265625,0,0,0,,0,244,244,347,1,,,,
,,,,,,4abe905ba7adfc087a0af385,66a626ef09d4e21e1a8894ec,6734a02d2b5a663439a4f70b,2024-11-13_09h49.00.754,Tarea de género gramatical,2024.2.2,Win32,59.88023952,,,,,,,,,,,,,,,,,,,,,,,514.7255,515.8895,l,1,0.4989,,[],[],[],[],[],[],[],0.4989,1,515.8897,516.3892,,,,,,1072,MAS,DIS,150,poder,la,l,,516.3923,516.3942,0.178385417,-0.2265625,0,0,0,,0,245,245,171,1,,,,
,,,,,,4abe905ba7adfc087a0af385,66a626ef09d4e21e1a8894ec,6734a02d2b5a663439a4f70b,2024-11-13_09h49.00.754,Tarea de género gramatical,2024.2.2,Win32,59.88023952,,,,,,,,,,,,,,,,,,,,,,,516.3961,517.5541,a,1,0.484,,[],[],[],[],[],[],[],0.484,1,517.5543,518.0519,,,,,,1004,FEM,AGR,150,vela,la,a,,518.052,518.052,0.178385417,-0.2265625,0,0,0,,0,246,246,103,1,,,,
,,,,,,4abe905ba7adfc087a0af385,66a626ef09d4e21e1a8894ec,6734a02d2b5a663439a4f70b,2024-11-13_09h49.00.754,Tarea de género gramatical,2024.2.2,Win32,59.88023952,,,,,,,,,,,,,,,,,,,,,,,518.0529,519.5356,l,1,0.811,,[],[],[],[],[],[],[],0.811,1,519.5358,520.0302,,,,,,1025,MAS,AGR,150,bate,el,l,,520.0304,520.0309,0.178385417,-0.2265625,0,0,0,,0,247,247,124,1,,,,
,,,,,,4abe905ba7adfc087a0af385,66a626ef09d4e21e1a8894ec,6734a02d2b5a663439a4f70b,2024-11-13_09h49.00.754,Tarea de género gramatical,2024.2.2,Win32,59.88023952,,,,,,,,,,,,,,,,,,,,,,,520.0333,521.301,a,1,0.6115,,[],[],[],[],[],[],[],0.6115,1,521.3012,521.7952,,,,,,901,FEM,DIS,150,casa,el,a,,521.7954,521.7957,0.178385417,-0.2265625,0,0,0,,0,248,248,0,1,,,,
,,,,,,4abe905ba7adfc087a0af385,66a626ef09d4e21e1a8894ec,6734a02d2b5a663439a4f70b,2024-11-13_09h49.00.754,Tarea de género gramatical,2024.2.2,Win32,59.88023952,,,,,,,,,,,,,,,,,,,,,,,521.7978,522.9446,a,1,0.4692,,[],[],[],[],[],[],[],0.4692,1,522.9449,523.4484,,,,,,1124,FEM,AGR,150,arena,la,a,,523.4513,523.4532,0.178385417,-0.2265625,0,0,0,,0,249,249,223,1,,,,
,,,,,,4abe905ba7adfc087a0af385,66a626ef09d4e21e1a8894ec,6734a02d2b5a663439a4f70b,2024-11-13_09h49.00.754,Tarea de género gramatical,2024.2.2,Win32,59.88023952,,,,,,,,,,,,,,,,,,,,,,,523.4555,524.8146,l,1,0.6942,,[],[],[],[],[],[],[],0.6942,1,524.8148,525.3087,,,,,,1008,MAS,CON,150,hilo,,l,,525.3089,525.3093,0.178385417,-0.2265625,0,0,0,,0,250,250,107,1,,,,
,,,,,,4abe905ba7adfc087a0af385,66a626ef09d4e21e1a8894ec,6734a02d2b5a663439a4f70b,2024-11-13_09h49.00.754,Tarea de género gramatical,2024.2.2,Win32,59.88023952,,,,,,,,,,,,,,,,,,,,,,,525.3117,526.4789,l,1,0.5004,,[],[],[],[],[],[],[],0.5004,1,526.4791,526.9776,,,,,,1211,MAS,AGR,150,camino,el,l,,526.9778,526.978,0.178385417,-0.2265625,0,0,0,,0,251,251,310,1,,,,
