counterbalancing_condition,consent_prescreening.block_1/declare_consent,consent_prescreening.block_1/age_years,consent_prescreening.block_1/gender,consent_prescreening.block_1/language_disorder,consent_prescreening.block_1/first_language,PROLIFIC_PID,STUDY_ID,SESSION_ID,date,expName,psychopyVersion,OS,frameRate,check_prescreening_answers.started,check_prescreening_answers.stopped,Instructions.started,Instructions.stopped,instr_done_keyboard.keys,instr_done_keyboard.rt,instr_done_keyboard.duration,instr_done_touch.x,instr_done_touch.y,instr_done_touch.leftButton,instr_done_touch.midButton,instr_done_touch.rightButton,instruction_pages.thisRepN,instruction_pages.thisTrialN,instruction_pages.thisN,instruction_pages.thisIndex,instruction_pages.ran,pageN,phase,instruct_text,has_image,instruct_image,presentTrial.started,presentTrial.stopped,response.keys,response.corr,touch_resp.x,touch_resp.y,touch_resp.leftButton,touch_resp.midButton,touch_resp.rightButton,touch_resp.time,touch_resp.clicked_name,rt,corr,feedback.started,feedback.stopped,practice_trials.thisRepN,practice_trials.thisTrialN,practice_trials.thisN,practice_trials.thisIndex,practice_trials.ran,TrialID,StimulusType,Condition,PrimeDuration,Prime,Flanker,corrAns,response.rt,response.duration,Break.started,Break.stopped,break_done_touch.x,break_done_touch.y,break_done_touch.leftButton,break_done_touch.midButton,break_done_touch.rightButton,break_done_keyboard.keys,experiment_trials.thisRepN,experiment_trials.thisTrialN,experiment_trials.thisN,experiment_trials.thisIndex,experiment_trials.ran,break_done_keyboard.rt,break_done_keyboard.duration,End.started,End.stopped
2,"[""over_18"",""comfortable"",""read_info"",""consent_given""]",18,F,"[""none""]","[""spanish""]",4cea6e54f3b0873e2f81a3a2,66a626ef09d4e21e1a8894ec,673772678c1d289156a5d34e,2024-11-15_10h21.26.683,Tarea de género gramatical,2024.2.2,MacIntel,59.52380952,,,,,,,,,,,,,,,,,,,,,,,,,,,,,,,,,,,,,,,,,,,,,,,,,,,,,,,,,,,,,,,,,,,,
,,,,,,4cea6e54f3b0873e2f81a3a2,66a626ef09d4e21e1a8894ec,673772678c1d289156a5d34e,2024-11-15_10h21.26.683,Tarea de género gramatical,2024.2.2,MacIntel,59.52380952,102.675,102.6754,,,,,,,,,,,,,,,,,,,,,,,,,,,,,,,,,,,,,,,,,,,,,,,,,,,,,,,,,,,,,,,,,,
,,,,,,4cea6e54f3b0873e2f81a3a2,66a626ef09d4e21e1a8894ec,673772678c1d289156a5d34e,2024-11-15_10h21.26.683,Tarea de género gramatical,2024.2.2,MacIntel,59.52380952,,,102.7016,132.1251,space,29.3854,,-0.269622396,-0.108420139,0,0,0,0,0,0,0,1,1,instructions,"INSTRUCCIONES
Va a realizar una prueba de selección gramatical. Desde el comienzo de la prueba mire siempre al centro de la pantalla. Al cabo de un momento, aparecerán palabras. La tarea consiste en determinar si la palabra del centro (siempre será un sustantivo), pertenece al género masculino o femenino.

Pulse la tecla ESPACIO o toque el botón de abajo para continuar.",0,keyboardresponseMF.png,,,,,,,,,,,,,,,,,,,,,,,,,,,,,,,,,,,,,,,,,,,,,,
,,,,,,4cea6e54f3b0873e2f81a3a2,66a626ef09d4e21e1a8894ec,673772678c1d289156a5d34e,2024-11-15_10h21.26.683,Tarea de género gramatical,2024.2.2,MacIntel,59.52380952,,,132.1283,144.6746,space,12.4952,,-0.269622396,-0.108420139,0,0,0,0,1,1,1,1,2,instructions,"Si su dispositivo tiene teclado, pulse la tecla ""A"" para las palabras en masculino (por ejemplo: ""arroz"") y la tecla ""L"" para las palabras en femenino (por ejemplo: ""mano"").
Pulse la tecla ESPACIO o toque el botón de abajo para continuar.",1,keyboardresponseMF.png,,,,,,,,,,,,,,,,,,,,,,,,,,,,,,,,,,,,,,,,,,,,,,
,,,,,,4cea6e54f3b0873e2f81a3a2,66a626ef09d4e21e1a8894ec,673772678c1d289156a5d34e,2024-11-15_10h21.26.683,Tarea de género gramatical,2024.2.2,MacIntel,59.52380952,,,144.677,151.0747,space,6.354,,-0.269622396,-0.108420139,0,0,0,0,2,2,2,1,3,instructions,"Si utiliza un dispositivo sólo táctil, colóquelo en horizontal y utilice los botones de la pantalla. No utilice el ratón.
Pulse la tecla ESPACIO o toque el botón de abajo para continuar.",2,touchresponseMF.png,,,,,,,,,,,,,,,,,,,,,,,,,,,,,,,,,,,,,,,,,,,,,,
,,,,,,4cea6e54f3b0873e2f81a3a2,66a626ef09d4e21e1a8894ec,673772678c1d289156a5d34e,2024-11-15_10h21.26.683,Tarea de género gramatical,2024.2.2,MacIntel,59.52380952,,,151.0782,162.4081,space,11.3043,,-0.269622396,-0.108420139,0,0,0,0,3,3,3,1,4,instructions,"Es muy importante que responda con la mayor rapidez y precisión posibles, ya que cada cadena de letras sólo estará en pantalla durante un instante. Si no responde en ese tiempo, aparecerá el mensaje ""Muy lento"" y el experimento pasará a la siguiente palabra. Los primeros 15 intentos serán de práctica y habrá dos descansos durante la prueba.
Pulse la tecla ESPACIO o toque el botón de abajo para iniciar la parte de práctica.",0,keyboardresponseMF.png,,,,,,,,,,,,,,,,,,,,,,,,,,,,,,,,,,,,,,,,,,,,,,
,,,,,,4cea6e54f3b0873e2f81a3a2,66a626ef09d4e21e1a8894ec,673772678c1d289156a5d34e,2024-11-15_10h21.26.683,Tarea de género gramatical,2024.2.2,MacIntel,59.52380952,,,,,,,,,,,,,,,,,,,,,,,162.4327,165.074,,0,[],[],[],[],[],[],[],,-1,165.0744,165.5748,0,0,0,4,1,2005,FEM,CON,150,placa,,a,,,,,,,,,,,,,,,,,,,
,,,,,,4cea6e54f3b0873e2f81a3a2,66a626ef09d4e21e1a8894ec,673772678c1d289156a5d34e,2024-11-15_10h21.26.683,Tarea de género gramatical,2024.2.2,MacIntel,59.52380952,,,,,,,,,,,,,,,,,,,,,,,165.5762,167.475,l,0,[],[],[],[],[],[],[],1.221,0,167.5099,167.9746,0,1,1,8,1,2009,MAS,DIS,150,puerto,la,l,1.221,,,,,,,,,,,,,,,,,,
,,,,,,4cea6e54f3b0873e2f81a3a2,66a626ef09d4e21e1a8894ec,673772678c1d289156a5d34e,2024-11-15_10h21.26.683,Tarea de género gramatical,2024.2.2,MacIntel,59.52380952,,,,,,,,,,,,,,,,,,,,,,,167.9762,169.1245,a,1,[],[],[],[],[],[],[],0.4773,1,169.1254,169.6246,0,2,2,9,1,2010,MAS,AGR,150,vecino,el,l,0.4773,,,,,,,,,,,,,,,,,,
,,,,,,4cea6e54f3b0873e2f81a3a2,66a626ef09d4e21e1a8894ec,673772678c1d289156a5d34e,2024-11-15_10h21.26.683,Tarea de género gramatical,2024.2.2,MacIntel,59.52380952,,,,,,,,,,,,,,,,,,,,,,,169.6259,170.7069,l,0,[],[],[],[],[],[],[],0.4112,0,170.7081,171.208,0,3,3,11,1,2012,MAS,DIS,150,clima,la,l,0.4112,,,,,,,,,,,,,,,,,,
,,,,,,4cea6e54f3b0873e2f81a3a2,66a626ef09d4e21e1a8894ec,673772678c1d289156a5d34e,2024-11-15_10h21.26.683,Tarea de género gramatical,2024.2.2,MacIntel,59.52380952,,,,,,,,,,,,,,,,,,,,,,,171.2096,172.3747,l,1,[],[],[],[],[],[],[],0.4952,1,172.3758,172.8744,0,4,4,7,1,2008,FEM,CON,150,siesta,,a,0.4952,,,,,,,,,,,,,,,,,,
,,,,,,4cea6e54f3b0873e2f81a3a2,66a626ef09d4e21e1a8894ec,673772678c1d289156a5d34e,2024-11-15_10h21.26.683,Tarea de género gramatical,2024.2.2,MacIntel,59.52380952,,,,,,,,,,,,,,,,,,,,,,,172.876,174.1902,l,1,[],[],[],[],[],[],[],0.6368,1,174.1904,174.6912,0,5,5,2,1,2003,FEM,DIS,150,daga,el,a,0.6368,,,,,,,,,,,,,,,,,,
,,,,,,4cea6e54f3b0873e2f81a3a2,66a626ef09d4e21e1a8894ec,673772678c1d289156a5d34e,2024-11-15_10h21.26.683,Tarea de género gramatical,2024.2.2,MacIntel,59.52380952,,,,,,,,,,,,,,,,,,,,,,,174.6924,175.7416,l,1,[],[],[],[],[],[],[],0.3669,1,175.7418,176.2415,0,6,6,1,1,2002,FEM,CON,150,pala,,a,0.3669,,,,,,,,,,,,,,,,,,
,,,,,,4cea6e54f3b0873e2f81a3a2,66a626ef09d4e21e1a8894ec,673772678c1d289156a5d34e,2024-11-15_10h21.26.683,Tarea de género gramatical,2024.2.2,MacIntel,59.52380952,,,,,,,,,,,,,,,,,,,,,,,176.2426,177.4079,l,1,[],[],[],[],[],[],[],0.4948,1,177.4081,177.9077,0,7,7,3,1,2004,FEM,AGR,150,venta,la,a,0.4948,,,,,,,,,,,,,,,,,,
,,,,,,4cea6e54f3b0873e2f81a3a2,66a626ef09d4e21e1a8894ec,673772678c1d289156a5d34e,2024-11-15_10h21.26.683,Tarea de género gramatical,2024.2.2,MacIntel,59.52380952,,,,,,,,,,,,,,,,,,,,,,,177.9088,179.1905,a,0,[],[],[],[],[],[],[],0.6105,0,179.1914,179.6913,0,8,8,5,1,2006,FEM,DIS,150,serie,el,a,0.6105,,,,,,,,,,,,,,,,,,
,,,,,,4cea6e54f3b0873e2f81a3a2,66a626ef09d4e21e1a8894ec,673772678c1d289156a5d34e,2024-11-15_10h21.26.683,Tarea de género gramatical,2024.2.2,MacIntel,59.52380952,,,,,,,,,,,,,,,,,,,,,,,179.6926,181.3415,a,1,[],[],[],[],[],[],[],0.9665,1,181.3424,181.8408,0,9,9,13,1,2014,MAS,CON,150,siglo,,l,0.9665,,,,,,,,,,,,,,,,,,
,,,,,,4cea6e54f3b0873e2f81a3a2,66a626ef09d4e21e1a8894ec,673772678c1d289156a5d34e,2024-11-15_10h21.26.683,Tarea de género gramatical,2024.2.2,MacIntel,59.52380952,,,,,,,,,,,,,,,,,,,,,,,181.8419,183.4071,a,1,[],[],[],[],[],[],[],0.8835,1,183.4073,183.9081,0,10,10,14,1,2015,MAS,DIS,150,robot,la,l,0.8835,,,,,,,,,,,,,,,,,,
,,,,,,4cea6e54f3b0873e2f81a3a2,66a626ef09d4e21e1a8894ec,673772678c1d289156a5d34e,2024-11-15_10h21.26.683,Tarea de género gramatical,2024.2.2,MacIntel,59.52380952,,,,,,,,,,,,,,,,,,,,,,,183.9094,185.0405,l,1,[],[],[],[],[],[],[],0.4506,1,185.0406,185.5415,0,11,11,6,1,2007,FEM,AGR,150,navaja,la,a,0.4506,,,,,,,,,,,,,,,,,,
,,,,,,4cea6e54f3b0873e2f81a3a2,66a626ef09d4e21e1a8894ec,673772678c1d289156a5d34e,2024-11-15_10h21.26.683,Tarea de género gramatical,2024.2.2,MacIntel,59.52380952,,,,,,,,,,,,,,,,,,,,,,,185.5428,187.1082,a,1,[],[],[],[],[],[],[],0.8832,1,187.1083,187.6083,0,12,12,12,1,2013,MAS,AGR,150,acero,el,l,0.8832,,,,,,,,,,,,,,,,,,
,,,,,,4cea6e54f3b0873e2f81a3a2,66a626ef09d4e21e1a8894ec,673772678c1d289156a5d34e,2024-11-15_10h21.26.683,Tarea de género gramatical,2024.2.2,MacIntel,59.52380952,,,,,,,,,,,,,,,,,,,,,,,187.6096,188.8083,l,1,[],[],[],[],[],[],[],0.5186,1,188.8084,189.3072,0,13,13,0,1,2001,FEM,AGR,150,nuca,la,a,0.5186,,,,,,,,,,,,,,,,,,
,,,,,,4cea6e54f3b0873e2f81a3a2,66a626ef09d4e21e1a8894ec,673772678c1d289156a5d34e,2024-11-15_10h21.26.683,Tarea de género gramatical,2024.2.2,MacIntel,59.52380952,,,,,,,,,,,,,,,,,,,,,,,189.3085,190.8252,a,1,[],[],[],[],[],[],[],0.8494,1,190.8253,191.3249,0,14,14,10,1,2011,MAS,CON,150,canal,,l,0.8494,,,,,,,,,,,,,,,,,,
,,,,,,4cea6e54f3b0873e2f81a3a2,66a626ef09d4e21e1a8894ec,673772678c1d289156a5d34e,2024-11-15_10h21.26.683,Tarea de género gramatical,2024.2.2,MacIntel,59.52380952,,,195.1126,264.4755,space,69.3396,,-0.269622396,-0.108420139,0,0,0,,,,,,,,,,,264.5163,266.0424,a,1,[],[],[],[],[],[],[],0.8504,1,266.0426,266.5423,,,,,,904,MAS,DIS,150,hijo,la,l,0.8504,,266.5428,266.5465,-0.269622396,-0.108420139,0,0,0,,0,0,0,3,1,,,,
,,,,,,4cea6e54f3b0873e2f81a3a2,66a626ef09d4e21e1a8894ec,673772678c1d289156a5d34e,2024-11-15_10h21.26.683,Tarea de género gramatical,2024.2.2,MacIntel,59.52380952,,,,,,,,,,,,,,,,,,,,,,,266.5477,267.8091,l,1,[],[],[],[],[],[],[],0.5827,1,267.8094,268.3091,,,,,,1238,FEM,AGR,150,abuela,la,a,0.5827,,268.3092,268.3093,-0.269622396,-0.108420139,0,0,0,,0,1,1,337,1,,,,
,,,,,,4cea6e54f3b0873e2f81a3a2,66a626ef09d4e21e1a8894ec,673772678c1d289156a5d34e,2024-11-15_10h21.26.683,Tarea de género gramatical,2024.2.2,MacIntel,59.52380952,,,,,,,,,,,,,,,,,,,,,,,268.3108,269.509,l,1,[],[],[],[],[],[],[],0.5283,1,269.5091,270.009,,,,,,980,FEM,AGR,150,vaca,la,a,0.5283,,270.011,270.0123,-0.269622396,-0.108420139,0,0,0,,0,2,2,79,1,,,,
,,,,,,4cea6e54f3b0873e2f81a3a2,66a626ef09d4e21e1a8894ec,673772678c1d289156a5d34e,2024-11-15_10h21.26.683,Tarea de género gramatical,2024.2.2,MacIntel,59.52380952,,,,,,,,,,,,,,,,,,,,,,,270.0132,271.3427,a,1,[],[],[],[],[],[],[],0.6617,1,271.3429,271.8425,,,,,,1110,MAS,CON,150,baile,,l,0.6617,,271.8426,271.8428,-0.269622396,-0.108420139,0,0,0,,0,3,3,209,1,,,,
,,,,,,4cea6e54f3b0873e2f81a3a2,66a626ef09d4e21e1a8894ec,673772678c1d289156a5d34e,2024-11-15_10h21.26.683,Tarea de género gramatical,2024.2.2,MacIntel,59.52380952,,,,,,,,,,,,,,,,,,,,,,,271.8441,273.4593,l,1,[],[],[],[],[],[],[],0.9358,1,273.4594,273.9593,,,,,,913,FEM,DIS,150,hija,el,a,0.9358,,273.9594,273.9595,-0.269622396,-0.108420139,0,0,0,,0,4,4,12,1,,,,
,,,,,,4cea6e54f3b0873e2f81a3a2,66a626ef09d4e21e1a8894ec,673772678c1d289156a5d34e,2024-11-15_10h21.26.683,Tarea de género gramatical,2024.2.2,MacIntel,59.52380952,,,,,,,,,,,,,,,,,,,,,,,273.9607,275.3592,a,0,[],[],[],[],[],[],[],0.7176,0,275.3605,275.8592,,,,,,1039,FEM,DIS,150,pipa,el,a,0.7176,,275.8593,275.8596,-0.269622396,-0.108420139,0,0,0,,0,5,5,138,1,,,,
,,,,,,4cea6e54f3b0873e2f81a3a2,66a626ef09d4e21e1a8894ec,673772678c1d289156a5d34e,2024-11-15_10h21.26.683,Tarea de género gramatical,2024.2.2,MacIntel,59.52380952,,,,,,,,,,,,,,,,,,,,,,,275.8607,277.4758,a,1,[],[],[],[],[],[],[],0.9344,1,277.4768,277.9759,,,,,,1032,MAS,CON,150,velo,,l,0.9344,,277.9771,277.978,-0.269622396,-0.108420139,0,0,0,,0,6,6,131,1,,,,
,,,,,,4cea6e54f3b0873e2f81a3a2,66a626ef09d4e21e1a8894ec,673772678c1d289156a5d34e,2024-11-15_10h21.26.683,Tarea de género gramatical,2024.2.2,MacIntel,59.52380952,,,,,,,,,,,,,,,,,,,,,,,277.9787,279.1926,l,1,[],[],[],[],[],[],[],0.5337,1,279.1927,279.6924,,,,,,1227,FEM,CON,150,tienda,,a,0.5337,,279.6926,279.6927,-0.269622396,-0.108420139,0,0,0,,0,7,7,326,1,,,,
,,,,,,4cea6e54f3b0873e2f81a3a2,66a626ef09d4e21e1a8894ec,673772678c1d289156a5d34e,2024-11-15_10h21.26.683,Tarea de género gramatical,2024.2.2,MacIntel,59.52380952,,,,,,,,,,,,,,,,,,,,,,,279.6942,281.0258,a,1,[],[],[],[],[],[],[],0.6524,1,281.026,281.5261,,,,,,1235,MAS,AGR,150,montón,el,l,0.6524,,281.5261,281.5263,-0.269622396,-0.108420139,0,0,0,,0,8,8,334,1,,,,
,,,,,,4cea6e54f3b0873e2f81a3a2,66a626ef09d4e21e1a8894ec,673772678c1d289156a5d34e,2024-11-15_10h21.26.683,Tarea de género gramatical,2024.2.2,MacIntel,59.52380952,,,,,,,,,,,,,,,,,,,,,,,281.5276,282.8257,a,1,[],[],[],[],[],[],[],0.6274,1,282.8259,283.3259,,,,,,917,MAS,AGR,150,modo,el,l,0.6274,,283.326,283.3262,-0.269622396,-0.108420139,0,0,0,,0,9,9,16,1,,,,
,,,,,,4cea6e54f3b0873e2f81a3a2,66a626ef09d4e21e1a8894ec,673772678c1d289156a5d34e,2024-11-15_10h21.26.683,Tarea de género gramatical,2024.2.2,MacIntel,59.52380952,,,,,,,,,,,,,,,,,,,,,,,283.3275,284.5758,l,1,[],[],[],[],[],[],[],0.568,1,284.576,285.0753,,,,,,1304,FEM,AGR,150,gloria,la,a,0.568,,285.0754,285.0754,-0.269622396,-0.108420139,0,0,0,,0,10,10,403,1,,,,
,,,,,,4cea6e54f3b0873e2f81a3a2,66a626ef09d4e21e1a8894ec,673772678c1d289156a5d34e,2024-11-15_10h21.26.683,Tarea de género gramatical,2024.2.2,MacIntel,59.52380952,,,,,,,,,,,,,,,,,,,,,,,285.076,286.975,a,1,[],[],[],[],[],[],[],1.2193,1,286.9751,287.4755,,,,,,1276,MAS,DIS,150,efecto,la,l,1.2193,,287.4772,287.4786,-0.269622396,-0.108420139,0,0,0,,0,11,11,375,1,,,,
,,,,,,4cea6e54f3b0873e2f81a3a2,66a626ef09d4e21e1a8894ec,673772678c1d289156a5d34e,2024-11-15_10h21.26.683,Tarea de género gramatical,2024.2.2,MacIntel,59.52380952,,,,,,,,,,,,,,,,,,,,,,,287.4795,288.6264,l,1,[],[],[],[],[],[],[],0.4783,1,288.6265,289.1261,,,,,,1239,FEM,CON,150,salida,,a,0.4783,,289.1262,289.1263,-0.269622396,-0.108420139,0,0,0,,0,12,12,338,1,,,,
,,,,,,4cea6e54f3b0873e2f81a3a2,66a626ef09d4e21e1a8894ec,673772678c1d289156a5d34e,2024-11-15_10h21.26.683,Tarea de género gramatical,2024.2.2,MacIntel,59.52380952,,,,,,,,,,,,,,,,,,,,,,,289.1277,290.3426,l,1,[],[],[],[],[],[],[],0.5349,1,290.3428,290.8426,,,,,,1035,FEM,CON,150,raíz,,a,0.5349,,290.8427,290.8428,-0.269622396,-0.108420139,0,0,0,,0,13,13,134,1,,,,
,,,,,,4cea6e54f3b0873e2f81a3a2,66a626ef09d4e21e1a8894ec,673772678c1d289156a5d34e,2024-11-15_10h21.26.683,Tarea de género gramatical,2024.2.2,MacIntel,59.52380952,,,,,,,,,,,,,,,,,,,,,,,290.8439,292.2595,a,1,[],[],[],[],[],[],[],0.7344,1,292.2597,292.7592,,,,,,1019,MAS,AGR,150,mito,el,l,0.7344,,292.7593,292.7595,-0.269622396,-0.108420139,0,0,0,,0,14,14,118,1,,,,
,,,,,,4cea6e54f3b0873e2f81a3a2,66a626ef09d4e21e1a8894ec,673772678c1d289156a5d34e,2024-11-15_10h21.26.683,Tarea de género gramatical,2024.2.2,MacIntel,59.52380952,,,,,,,,,,,,,,,,,,,,,,,292.761,294.0589,a,1,[],[],[],[],[],[],[],0.6168,1,294.0591,294.5593,,,,,,972,MAS,CON,150,hoyo,,l,0.6168,,294.5607,294.5617,-0.269622396,-0.108420139,0,0,0,,0,15,15,71,1,,,,
,,,,,,4cea6e54f3b0873e2f81a3a2,66a626ef09d4e21e1a8894ec,673772678c1d289156a5d34e,2024-11-15_10h21.26.683,Tarea de género gramatical,2024.2.2,MacIntel,59.52380952,,,,,,,,,,,,,,,,,,,,,,,294.5625,295.7759,a,1,[],[],[],[],[],[],[],0.5336,1,295.7761,296.2759,,,,,,1002,MAS,CON,150,coro,,l,0.5336,,296.2759,296.2761,-0.269622396,-0.108420139,0,0,0,,0,16,16,101,1,,,,
,,,,,,4cea6e54f3b0873e2f81a3a2,66a626ef09d4e21e1a8894ec,673772678c1d289156a5d34e,2024-11-15_10h21.26.683,Tarea de género gramatical,2024.2.2,MacIntel,59.52380952,,,,,,,,,,,,,,,,,,,,,,,296.2772,297.4592,a,1,[],[],[],[],[],[],[],0.5004,1,297.4594,297.9594,,,,,,1241,MAS,AGR,150,precio,el,l,0.5004,,297.9595,297.9596,-0.269622396,-0.108420139,0,0,0,,0,17,17,340,1,,,,
,,,,,,4cea6e54f3b0873e2f81a3a2,66a626ef09d4e21e1a8894ec,673772678c1d289156a5d34e,2024-11-15_10h21.26.683,Tarea de género gramatical,2024.2.2,MacIntel,59.52380952,,,,,,,,,,,,,,,,,,,,,,,297.9613,299.0094,a,1,[],[],[],[],[],[],[],0.3678,1,299.0096,299.5089,,,,,,1007,MAS,AGR,150,cubo,el,l,0.3678,,299.5089,299.5091,-0.269622396,-0.108420139,0,0,0,,0,18,18,106,1,,,,
,,,,,,4cea6e54f3b0873e2f81a3a2,66a626ef09d4e21e1a8894ec,673772678c1d289156a5d34e,2024-11-15_10h21.26.683,Tarea de género gramatical,2024.2.2,MacIntel,59.52380952,,,,,,,,,,,,,,,,,,,,,,,299.5105,300.6083,a,1,[],[],[],[],[],[],[],0.4206,1,300.6085,301.1093,,,,,,1206,MAS,CON,150,dinero,,l,0.4206,,301.1094,301.1095,-0.269622396,-0.108420139,0,0,0,,0,19,19,305,1,,,,
,,,,,,4cea6e54f3b0873e2f81a3a2,66a626ef09d4e21e1a8894ec,673772678c1d289156a5d34e,2024-11-15_10h21.26.683,Tarea de género gramatical,2024.2.2,MacIntel,59.52380952,,,,,,,,,,,,,,,,,,,,,,,301.1106,302.426,l,1,[],[],[],[],[],[],[],0.6322,1,302.4261,302.926,,,,,,967,FEM,DIS,150,miel,el,a,0.6322,,302.9276,302.9285,-0.269622396,-0.108420139,0,0,0,,0,20,20,66,1,,,,
,,,,,,4cea6e54f3b0873e2f81a3a2,66a626ef09d4e21e1a8894ec,673772678c1d289156a5d34e,2024-11-15_10h21.26.683,Tarea de género gramatical,2024.2.2,MacIntel,59.52380952,,,,,,,,,,,,,,,,,,,,,,,302.9293,304.0094,a,1,[],[],[],[],[],[],[],0.3997,1,304.0095,304.5094,,,,,,1182,MAS,CON,150,bolso,,l,0.3997,,304.5095,304.5096,-0.269622396,-0.108420139,0,0,0,,0,21,21,281,1,,,,
,,,,,,4cea6e54f3b0873e2f81a3a2,66a626ef09d4e21e1a8894ec,673772678c1d289156a5d34e,2024-11-15_10h21.26.683,Tarea de género gramatical,2024.2.2,MacIntel,59.52380952,,,,,,,,,,,,,,,,,,,,,,,304.5109,305.6428,l,1,[],[],[],[],[],[],[],0.4507,1,305.6431,306.1429,,,,,,975,FEM,CON,150,caza,,a,0.4507,,306.143,306.1431,-0.269622396,-0.108420139,0,0,0,,0,22,22,74,1,,,,
,,,,,,4cea6e54f3b0873e2f81a3a2,66a626ef09d4e21e1a8894ec,673772678c1d289156a5d34e,2024-11-15_10h21.26.683,Tarea de género gramatical,2024.2.2,MacIntel,59.52380952,,,,,,,,,,,,,,,,,,,,,,,306.1445,307.2917,l,1,[],[],[],[],[],[],[],0.4673,1,307.2918,307.7928,,,,,,1161,FEM,CON,150,cueva,,a,0.4673,,307.793,307.793,-0.269622396,-0.108420139,0,0,0,,0,23,23,260,1,,,,
,,,,,,4cea6e54f3b0873e2f81a3a2,66a626ef09d4e21e1a8894ec,673772678c1d289156a5d34e,2024-11-15_10h21.26.683,Tarea de género gramatical,2024.2.2,MacIntel,59.52380952,,,,,,,,,,,,,,,,,,,,,,,307.7944,308.8761,l,1,[],[],[],[],[],[],[],0.4004,1,308.8762,309.3752,,,,,,1124,FEM,AGR,150,arena,la,a,0.4004,,309.3768,309.3776,-0.269622396,-0.108420139,0,0,0,,0,24,24,223,1,,,,
,,,,,,4cea6e54f3b0873e2f81a3a2,66a626ef09d4e21e1a8894ec,673772678c1d289156a5d34e,2024-11-15_10h21.26.683,Tarea de género gramatical,2024.2.2,MacIntel,59.52380952,,,,,,,,,,,,,,,,,,,,,,,309.3783,310.3759,l,1,[],[],[],[],[],[],[],0.3289,1,310.3761,310.8761,,,,,,1065,FEM,CON,150,amiga,,a,0.3289,,310.8762,310.8764,-0.269622396,-0.108420139,0,0,0,,0,25,25,164,1,,,,
,,,,,,4cea6e54f3b0873e2f81a3a2,66a626ef09d4e21e1a8894ec,673772678c1d289156a5d34e,2024-11-15_10h21.26.683,Tarea de género gramatical,2024.2.2,MacIntel,59.52380952,,,,,,,,,,,,,,,,,,,,,,,310.8776,312.1595,a,0,[],[],[],[],[],[],[],0.5996,0,312.1606,312.6594,,,,,,1231,FEM,DIS,150,cárcel,el,a,0.5996,,312.6595,312.6596,-0.269622396,-0.108420139,0,0,0,,0,26,26,330,1,,,,
,,,,,,4cea6e54f3b0873e2f81a3a2,66a626ef09d4e21e1a8894ec,673772678c1d289156a5d34e,2024-11-15_10h21.26.683,Tarea de género gramatical,2024.2.2,MacIntel,59.52380952,,,,,,,,,,,,,,,,,,,,,,,312.6608,313.9928,a,1,[],[],[],[],[],[],[],0.6615,1,313.994,314.4928,,,,,,1343,MAS,AGR,150,templo,el,l,0.6615,,314.4928,314.4931,-0.269622396,-0.108420139,0,0,0,,0,27,27,442,1,,,,
,,,,,,4cea6e54f3b0873e2f81a3a2,66a626ef09d4e21e1a8894ec,673772678c1d289156a5d34e,2024-11-15_10h21.26.683,Tarea de género gramatical,2024.2.2,MacIntel,59.52380952,,,,,,,,,,,,,,,,,,,,,,,314.4943,315.7419,a,1,[],[],[],[],[],[],[],0.5671,1,315.7421,316.242,,,,,,1199,MAS,AGR,150,rumbo,el,l,0.5671,,316.2421,316.2422,-0.269622396,-0.108420139,0,0,0,,0,28,28,298,1,,,,
,,,,,,4cea6e54f3b0873e2f81a3a2,66a626ef09d4e21e1a8894ec,673772678c1d289156a5d34e,2024-11-15_10h21.26.683,Tarea de género gramatical,2024.2.2,MacIntel,59.52380952,,,,,,,,,,,,,,,,,,,,,,,316.2435,317.4261,a,1,[],[],[],[],[],[],[],0.4991,1,317.4263,317.9262,,,,,,1187,MAS,AGR,150,plato,el,l,0.4991,,317.9278,317.929,-0.269622396,-0.108420139,0,0,0,,0,29,29,286,1,,,,
,,,,,,4cea6e54f3b0873e2f81a3a2,66a626ef09d4e21e1a8894ec,673772678c1d289156a5d34e,2024-11-15_10h21.26.683,Tarea de género gramatical,2024.2.2,MacIntel,59.52380952,,,,,,,,,,,,,,,,,,,,,,,317.9299,318.9929,l,1,[],[],[],[],[],[],[],0.3853,1,318.9931,319.493,,,,,,1029,FEM,CON,150,rana,,a,0.3853,,319.4931,319.4933,-0.269622396,-0.108420139,0,0,0,,0,30,30,128,1,,,,
,,,,,,4cea6e54f3b0873e2f81a3a2,66a626ef09d4e21e1a8894ec,673772678c1d289156a5d34e,2024-11-15_10h21.26.683,Tarea de género gramatical,2024.2.2,MacIntel,59.52380952,,,,,,,,,,,,,,,,,,,,,,,319.4944,320.6928,l,1,[],[],[],[],[],[],[],0.5162,1,320.693,321.1923,,,,,,1305,FEM,CON,150,parada,,a,0.5162,,321.1924,321.1925,-0.269622396,-0.108420139,0,0,0,,0,31,31,404,1,,,,
,,,,,,4cea6e54f3b0873e2f81a3a2,66a626ef09d4e21e1a8894ec,673772678c1d289156a5d34e,2024-11-15_10h21.26.683,Tarea de género gramatical,2024.2.2,MacIntel,59.52380952,,,,,,,,,,,,,,,,,,,,,,,321.1938,322.8429,l,1,[],[],[],[],[],[],[],0.9669,1,322.843,323.343,,,,,,1183,FEM,DIS,150,pluma,el,a,0.9669,,323.3431,323.3432,-0.269622396,-0.108420139,0,0,0,,0,32,32,282,1,,,,
,,,,,,4cea6e54f3b0873e2f81a3a2,66a626ef09d4e21e1a8894ec,673772678c1d289156a5d34e,2024-11-15_10h21.26.683,Tarea de género gramatical,2024.2.2,MacIntel,59.52380952,,,,,,,,,,,,,,,,,,,,,,,323.3444,324.4096,l,0,[],[],[],[],[],[],[],0.3954,0,324.4104,324.9096,,,,,,1176,MAS,CON,150,ritmo,,l,0.3954,,324.9114,324.9125,-0.269622396,-0.108420139,0,0,0,,0,33,33,275,1,,,,
,,,,,,4cea6e54f3b0873e2f81a3a2,66a626ef09d4e21e1a8894ec,673772678c1d289156a5d34e,2024-11-15_10h21.26.683,Tarea de género gramatical,2024.2.2,MacIntel,59.52380952,,,,,,,,,,,,,,,,,,,,,,,324.9136,325.9753,l,1,[],[],[],[],[],[],[],0.3832,1,325.9765,326.4763,,,,,,1131,FEM,CON,150,bruja,,a,0.3832,,326.4763,326.4765,-0.269622396,-0.108420139,0,0,0,,0,34,34,230,1,,,,
,,,,,,4cea6e54f3b0873e2f81a3a2,66a626ef09d4e21e1a8894ec,673772678c1d289156a5d34e,2024-11-15_10h21.26.683,Tarea de género gramatical,2024.2.2,MacIntel,59.52380952,,,,,,,,,,,,,,,,,,,,,,,326.478,328.1763,l,1,[],[],[],[],[],[],[],1.0194,1,328.1764,328.6763,,,,,,1009,FEM,DIS,150,gota,el,a,1.0194,,328.6764,328.6766,-0.269622396,-0.108420139,0,0,0,,0,35,35,108,1,,,,
,,,,,,4cea6e54f3b0873e2f81a3a2,66a626ef09d4e21e1a8894ec,673772678c1d289156a5d34e,2024-11-15_10h21.26.683,Tarea de género gramatical,2024.2.2,MacIntel,59.52380952,,,,,,,,,,,,,,,,,,,,,,,328.678,329.9753,a,1,[],[],[],[],[],[],[],0.6183,1,329.9755,330.4763,,,,,,1307,MAS,AGR,150,jurado,el,l,0.6183,,330.4763,330.4765,-0.269622396,-0.108420139,0,0,0,,0,36,36,406,1,,,,
,,,,,,4cea6e54f3b0873e2f81a3a2,66a626ef09d4e21e1a8894ec,673772678c1d289156a5d34e,2024-11-15_10h21.26.683,Tarea de género gramatical,2024.2.2,MacIntel,59.52380952,,,,,,,,,,,,,,,,,,,,,,,330.4779,332.543,a,1,[],[],[],[],[],[],[],1.3836,1,332.5432,333.0421,,,,,,971,MAS,AGR,150,pozo,el,l,1.3836,,333.0422,333.0423,-0.269622396,-0.108420139,0,0,0,,0,37,37,70,1,,,,
,,,,,,4cea6e54f3b0873e2f81a3a2,66a626ef09d4e21e1a8894ec,673772678c1d289156a5d34e,2024-11-15_10h21.26.683,Tarea de género gramatical,2024.2.2,MacIntel,59.52380952,,,,,,,,,,,,,,,,,,,,,,,333.0438,335.6931,,0,[],[],[],[],[],[],[],1.3836,-1,335.6941,336.193,,,,,,1031,MAS,AGR,150,kilo,el,l,,,336.1945,336.1954,-0.269622396,-0.108420139,0,0,0,,0,38,38,130,1,,,,
,,,,,,4cea6e54f3b0873e2f81a3a2,66a626ef09d4e21e1a8894ec,673772678c1d289156a5d34e,2024-11-15_10h21.26.683,Tarea de género gramatical,2024.2.2,MacIntel,59.52380952,,,,,,,,,,,,,,,,,,,,,,,336.1965,338.8432,,0,[],[],[],[],[],[],[],1.3836,-1,338.8433,339.3432,,,,,,1289,MAS,AGR,150,tamaño,el,l,,,339.3433,339.3434,-0.269622396,-0.108420139,0,0,0,,0,39,39,388,1,,,,
,,,,,,4cea6e54f3b0873e2f81a3a2,66a626ef09d4e21e1a8894ec,673772678c1d289156a5d34e,2024-11-15_10h21.26.683,Tarea de género gramatical,2024.2.2,MacIntel,59.52380952,,,,,,,,,,,,,,,,,,,,,,,339.3446,340.5432,l,1,[],[],[],[],[],[],[],0.5173,1,340.5442,341.0432,,,,,,1083,FEM,CON,150,llave,,a,0.5173,,341.0433,341.0434,-0.269622396,-0.108420139,0,0,0,,0,40,40,182,1,,,,
,,,,,,4cea6e54f3b0873e2f81a3a2,66a626ef09d4e21e1a8894ec,673772678c1d289156a5d34e,2024-11-15_10h21.26.683,Tarea de género gramatical,2024.2.2,MacIntel,59.52380952,,,,,,,,,,,,,,,,,,,,,,,341.0445,342.9765,a,1,[],[],[],[],[],[],[],1.2501,1,342.9766,343.4766,,,,,,1078,MAS,DIS,150,punto,la,l,1.2501,,343.4767,343.4769,-0.269622396,-0.108420139,0,0,0,,0,41,41,177,1,,,,
,,,,,,4cea6e54f3b0873e2f81a3a2,66a626ef09d4e21e1a8894ec,673772678c1d289156a5d34e,2024-11-15_10h21.26.683,Tarea de género gramatical,2024.2.2,MacIntel,59.52380952,,,,,,,,,,,,,,,,,,,,,,,343.4783,345.2262,l,1,[],[],[],[],[],[],[],1.0761,1,345.2263,345.7266,,,,,,1112,FEM,AGR,150,cinta,la,a,1.0761,,345.7282,345.7294,-0.269622396,-0.108420139,0,0,0,,0,42,42,211,1,,,,
,,,,,,4cea6e54f3b0873e2f81a3a2,66a626ef09d4e21e1a8894ec,673772678c1d289156a5d34e,2024-11-15_10h21.26.683,Tarea de género gramatical,2024.2.2,MacIntel,59.52380952,,,,,,,,,,,,,,,,,,,,,,,345.7303,348.3767,,0,[],[],[],[],[],[],[],1.0761,-1,348.3778,348.8765,,,,,,1037,MAS,AGR,150,coco,el,l,,,348.8765,348.8766,-0.269622396,-0.108420139,0,0,0,,0,43,43,136,1,,,,
,,,,,,4cea6e54f3b0873e2f81a3a2,66a626ef09d4e21e1a8894ec,673772678c1d289156a5d34e,2024-11-15_10h21.26.683,Tarea de género gramatical,2024.2.2,MacIntel,59.52380952,,,,,,,,,,,,,,,,,,,,,,,348.8782,349.8256,l,1,[],[],[],[],[],[],[],0.2671,1,349.8266,350.3258,,,,,,969,FEM,CON,150,rata,,a,0.2671,,350.3258,350.326,-0.269622396,-0.108420139,0,0,0,,0,44,44,68,1,,,,
,,,,,,4cea6e54f3b0873e2f81a3a2,66a626ef09d4e21e1a8894ec,673772678c1d289156a5d34e,2024-11-15_10h21.26.683,Tarea de género gramatical,2024.2.2,MacIntel,59.52380952,,,,,,,,,,,,,,,,,,,,,,,350.3274,351.3767,l,0,[],[],[],[],[],[],[],0.3674,0,351.3776,351.8766,,,,,,983,MAS,AGR,150,nene,el,l,0.3674,,351.8766,351.8768,-0.269622396,-0.108420139,0,0,0,,0,45,45,82,1,,,,
,,,,,,4cea6e54f3b0873e2f81a3a2,66a626ef09d4e21e1a8894ec,673772678c1d289156a5d34e,2024-11-15_10h21.26.683,Tarea de género gramatical,2024.2.2,MacIntel,59.52380952,,,,,,,,,,,,,,,,,,,,,,,351.8779,353.1102,l,1,[],[],[],[],[],[],[],0.5507,1,353.1112,353.61,,,,,,1237,FEM,DIS,150,escena,el,a,0.5507,,353.61,353.6102,-0.269622396,-0.108420139,0,0,0,,0,46,46,336,1,,,,
,,,,,,4cea6e54f3b0873e2f81a3a2,66a626ef09d4e21e1a8894ec,673772678c1d289156a5d34e,2024-11-15_10h21.26.683,Tarea de género gramatical,2024.2.2,MacIntel,59.52380952,,,,,,,,,,,,,,,,,,,,,,,353.6112,355.01,l,1,[],[],[],[],[],[],[],0.7278,1,355.01,355.51,,,,,,968,FEM,AGR,150,pata,la,a,0.7278,,355.5113,355.5123,-0.269622396,-0.108420139,0,0,0,,0,47,47,67,1,,,,
,,,,,,4cea6e54f3b0873e2f81a3a2,66a626ef09d4e21e1a8894ec,673772678c1d289156a5d34e,2024-11-15_10h21.26.683,Tarea de género gramatical,2024.2.2,MacIntel,59.52380952,,,,,,,,,,,,,,,,,,,,,,,355.5131,357.059,a,1,[],[],[],[],[],[],[],0.877,1,357.0592,357.56,,,,,,1132,MAS,DIS,150,calor,la,l,0.877,,357.5602,357.5602,-0.269622396,-0.108420139,0,0,0,,0,48,48,231,1,,,,
,,,,,,4cea6e54f3b0873e2f81a3a2,66a626ef09d4e21e1a8894ec,673772678c1d289156a5d34e,2024-11-15_10h21.26.683,Tarea de género gramatical,2024.2.2,MacIntel,59.52380952,,,,,,,,,,,,,,,,,,,,,,,357.5612,358.8101,a,1,[],[],[],[],[],[],[],0.5671,1,358.8102,359.31,,,,,,978,MAS,CON,150,oído,,l,0.5671,,359.3101,359.3101,-0.269622396,-0.108420139,0,0,0,,0,49,49,77,1,,,,
,,,,,,4cea6e54f3b0873e2f81a3a2,66a626ef09d4e21e1a8894ec,673772678c1d289156a5d34e,2024-11-15_10h21.26.683,Tarea de género gramatical,2024.2.2,MacIntel,59.52380952,,,,,,,,,,,,,,,,,,,,,,,359.3112,360.86,l,1,[],[],[],[],[],[],[],0.8689,1,360.8602,361.3601,,,,,,1232,FEM,AGR,150,basura,la,a,0.8689,,361.3603,361.3604,-0.269622396,-0.108420139,0,0,0,,0,50,50,331,1,,,,
,,,,,,4cea6e54f3b0873e2f81a3a2,66a626ef09d4e21e1a8894ec,673772678c1d289156a5d34e,2024-11-15_10h21.26.683,Tarea de género gramatical,2024.2.2,MacIntel,59.52380952,,,,,,,,,,,,,,,,,,,,,,,361.3614,362.7092,l,1,[],[],[],[],[],[],[],0.6657,1,362.7093,363.2102,,,,,,931,FEM,DIS,150,edad,el,a,0.6657,,363.2117,363.2129,-0.269622396,-0.108420139,0,0,0,,0,51,51,30,1,,,,
,,,,,,4cea6e54f3b0873e2f81a3a2,66a626ef09d4e21e1a8894ec,673772678c1d289156a5d34e,2024-11-15_10h21.26.683,Tarea de género gramatical,2024.2.2,MacIntel,59.52380952,,,,,,,,,,,,,,,,,,,,,,,363.2137,364.6602,l,1,[],[],[],[],[],[],[],0.7774,1,364.6603,365.1602,,,,,,1214,FEM,AGR,150,señora,la,a,0.7774,,365.1603,365.1605,-0.269622396,-0.108420139,0,0,0,,0,52,52,313,1,,,,
,,,,,,4cea6e54f3b0873e2f81a3a2,66a626ef09d4e21e1a8894ec,673772678c1d289156a5d34e,2024-11-15_10h21.26.683,Tarea de género gramatical,2024.2.2,MacIntel,59.52380952,,,,,,,,,,,,,,,,,,,,,,,365.1619,366.4093,l,1,[],[],[],[],[],[],[],0.5672,1,366.4094,366.9101,,,,,,1327,FEM,DIS,150,agenda,el,a,0.5672,,366.9102,366.9103,-0.269622396,-0.108420139,0,0,0,,0,53,53,426,1,,,,
,,,,,,4cea6e54f3b0873e2f81a3a2,66a626ef09d4e21e1a8894ec,673772678c1d289156a5d34e,2024-11-15_10h21.26.683,Tarea de género gramatical,2024.2.2,MacIntel,59.52380952,,,,,,,,,,,,,,,,,,,,,,,366.9114,368.5429,l,0,[],[],[],[],[],[],[],0.9509,0,368.5439,369.0434,,,,,,994,MAS,DIS,150,cabo,la,l,0.9509,,369.0435,369.0436,-0.269622396,-0.108420139,0,0,0,,0,54,54,93,1,,,,
,,,,,,4cea6e54f3b0873e2f81a3a2,66a626ef09d4e21e1a8894ec,673772678c1d289156a5d34e,2024-11-15_10h21.26.683,Tarea de género gramatical,2024.2.2,MacIntel,59.52380952,,,,,,,,,,,,,,,,,,,,,,,369.0447,371.6932,,0,[],[],[],[],[],[],[],0.9509,-1,371.6934,372.1927,,,,,,1104,MAS,CON,150,papel,,l,,,372.1927,372.1928,-0.269622396,-0.108420139,0,0,0,,0,55,55,203,1,,,,
,,,,,,4cea6e54f3b0873e2f81a3a2,66a626ef09d4e21e1a8894ec,673772678c1d289156a5d34e,2024-11-15_10h21.26.683,Tarea de género gramatical,2024.2.2,MacIntel,59.52380952,,,,,,,,,,,,,,,,,,,,,,,372.1941,373.4102,l,1,[],[],[],[],[],[],[],0.5488,1,373.4112,373.9099,,,,,,1155,FEM,CON,150,tribu,,a,0.5488,,373.9102,373.9104,-0.269622396,-0.108420139,0,0,0,,0,56,56,254,1,,,,
,,,,,,4cea6e54f3b0873e2f81a3a2,66a626ef09d4e21e1a8894ec,673772678c1d289156a5d34e,2024-11-15_10h21.26.683,Tarea de género gramatical,2024.2.2,MacIntel,59.52380952,,,,,,,,,,,,,,,,,,,,,,,373.9107,375.0435,a,1,[],[],[],[],[],[],[],0.4613,1,375.0437,375.5435,,,,,,1092,MAS,CON,150,grupo,,l,0.4613,,375.5436,375.5438,-0.269622396,-0.108420139,0,0,0,,0,57,57,191,1,,,,
,,,,,,4cea6e54f3b0873e2f81a3a2,66a626ef09d4e21e1a8894ec,673772678c1d289156a5d34e,2024-11-15_10h21.26.683,Tarea de género gramatical,2024.2.2,MacIntel,59.52380952,,,,,,,,,,,,,,,,,,,,,,,375.5448,378.1936,,0,[],[],[],[],[],[],[],0.4613,-1,378.1944,378.6937,,,,,,1208,FEM,AGR,150,semana,la,a,,,378.6937,378.6939,-0.269622396,-0.108420139,0,0,0,,0,58,58,307,1,,,,
,,,,,,4cea6e54f3b0873e2f81a3a2,66a626ef09d4e21e1a8894ec,673772678c1d289156a5d34e,2024-11-15_10h21.26.683,Tarea de género gramatical,2024.2.2,MacIntel,59.52380952,,,,,,,,,,,,,,,,,,,,,,,378.695,379.5436,l,1,[],[],[],[],[],[],[],0.171,1,379.5445,380.0435,,,,,,1011,FEM,CON,150,goma,,a,0.171,,380.0435,380.0437,-0.269622396,-0.108420139,0,0,0,,0,59,59,110,1,,,,
,,,,,,4cea6e54f3b0873e2f81a3a2,66a626ef09d4e21e1a8894ec,673772678c1d289156a5d34e,2024-11-15_10h21.26.683,Tarea de género gramatical,2024.2.2,MacIntel,59.52380952,,,,,,,,,,,,,,,,,,,,,,,380.0448,381.0438,l,1,[],[],[],[],[],[],[],0.3168,1,381.0439,381.5434,,,,,,1136,FEM,AGR,150,deuda,la,a,0.3168,,381.5446,381.5454,-0.269622396,-0.108420139,0,0,0,,0,60,60,235,1,,,,
,,,,,,4cea6e54f3b0873e2f81a3a2,66a626ef09d4e21e1a8894ec,673772678c1d289156a5d34e,2024-11-15_10h21.26.683,Tarea de género gramatical,2024.2.2,MacIntel,59.52380952,,,,,,,,,,,,,,,,,,,,,,,381.5462,382.6436,a,1,[],[],[],[],[],[],[],0.418,1,382.6439,383.1436,,,,,,1308,MAS,CON,150,cheque,,l,0.418,,383.1437,383.1438,-0.269622396,-0.108420139,0,0,0,,0,61,61,407,1,,,,
,,,,,,4cea6e54f3b0873e2f81a3a2,66a626ef09d4e21e1a8894ec,673772678c1d289156a5d34e,2024-11-15_10h21.26.683,Tarea de género gramatical,2024.2.2,MacIntel,59.52380952,,,,,,,,,,,,,,,,,,,,,,,383.1451,384.1771,l,1,[],[],[],[],[],[],[],0.3512,1,384.1772,384.677,,,,,,1087,FEM,DIS,150,lista,el,a,0.3512,,384.6771,384.6772,-0.269622396,-0.108420139,0,0,0,,0,62,62,186,1,,,,
,,,,,,4cea6e54f3b0873e2f81a3a2,66a626ef09d4e21e1a8894ec,673772678c1d289156a5d34e,2024-11-15_10h21.26.683,Tarea de género gramatical,2024.2.2,MacIntel,59.52380952,,,,,,,,,,,,,,,,,,,,,,,384.6783,387.3271,,0,[],[],[],[],[],[],[],0.3512,-1,387.3282,387.827,,,,,,1133,MAS,AGR,150,golpe,el,l,,,387.8272,387.8273,-0.269622396,-0.108420139,0,0,0,,0,63,63,232,1,,,,
,,,,,,4cea6e54f3b0873e2f81a3a2,66a626ef09d4e21e1a8894ec,673772678c1d289156a5d34e,2024-11-15_10h21.26.683,Tarea de género gramatical,2024.2.2,MacIntel,59.52380952,,,,,,,,,,,,,,,,,,,,,,,387.8283,390.4772,,0,[],[],[],[],[],[],[],0.3512,-1,390.4773,390.9771,,,,,,1041,FEM,CON,150,cera,,a,,,390.9773,390.9774,-0.269622396,-0.108420139,0,0,0,,0,64,64,140,1,,,,
,,,,,,4cea6e54f3b0873e2f81a3a2,66a626ef09d4e21e1a8894ec,673772678c1d289156a5d34e,2024-11-15_10h21.26.683,Tarea de género gramatical,2024.2.2,MacIntel,59.52380952,,,,,,,,,,,,,,,,,,,,,,,390.9784,392.3603,a,1,[],[],[],[],[],[],[],0.7012,1,392.3611,392.8606,,,,,,1097,MAS,AGR,150,avión,el,l,0.7012,,392.8622,392.8633,-0.269622396,-0.108420139,0,0,0,,0,65,65,196,1,,,,
,,,,,,4cea6e54f3b0873e2f81a3a2,66a626ef09d4e21e1a8894ec,673772678c1d289156a5d34e,2024-11-15_10h21.26.683,Tarea de género gramatical,2024.2.2,MacIntel,59.52380952,,,,,,,,,,,,,,,,,,,,,,,392.8642,393.8604,l,0,[],[],[],[],[],[],[],0.3268,0,393.8614,394.3605,,,,,,1060,MAS,DIS,150,señor,la,l,0.3268,,394.3605,394.3607,-0.269622396,-0.108420139,0,0,0,,0,66,66,159,1,,,,
,,,,,,4cea6e54f3b0873e2f81a3a2,66a626ef09d4e21e1a8894ec,673772678c1d289156a5d34e,2024-11-15_10h21.26.683,Tarea de género gramatical,2024.2.2,MacIntel,59.52380952,,,,,,,,,,,,,,,,,,,,,,,394.3618,395.577,a,1,[],[],[],[],[],[],[],0.5447,1,395.5779,396.0763,,,,,,959,MAS,AGR,150,lobo,el,l,0.5447,,396.0764,396.0765,-0.269622396,-0.108420139,0,0,0,,0,67,67,58,1,,,,
,,,,,,4cea6e54f3b0873e2f81a3a2,66a626ef09d4e21e1a8894ec,673772678c1d289156a5d34e,2024-11-15_10h21.26.683,Tarea de género gramatical,2024.2.2,MacIntel,59.52380952,,,,,,,,,,,,,,,,,,,,,,,396.0779,397.1107,l,1,[],[],[],[],[],[],[],0.3635,1,397.1108,397.6106,,,,,,919,FEM,DIS,150,niña,el,a,0.3635,,397.6107,397.6109,-0.269622396,-0.108420139,0,0,0,,0,68,68,18,1,,,,
,,,,,,4cea6e54f3b0873e2f81a3a2,66a626ef09d4e21e1a8894ec,673772678c1d289156a5d34e,2024-11-15_10h21.26.683,Tarea de género gramatical,2024.2.2,MacIntel,59.52380952,,,,,,,,,,,,,,,,,,,,,,,397.6121,398.8274,a,1,[],[],[],[],[],[],[],0.5333,1,398.8276,399.3273,,,,,,1296,MAS,CON,150,tesoro,,l,0.5333,,399.3285,399.3294,-0.269622396,-0.108420139,0,0,0,,0,69,69,395,1,,,,
,,,,,,4cea6e54f3b0873e2f81a3a2,66a626ef09d4e21e1a8894ec,673772678c1d289156a5d34e,2024-11-15_10h21.26.683,Tarea de género gramatical,2024.2.2,MacIntel,59.52380952,,,,,,,,,,,,,,,,,,,,,,,399.3301,400.6441,a,1,[],[],[],[],[],[],[],0.6369,1,400.6442,401.1439,,,,,,1349,MAS,AGR,150,payaso,el,l,0.6369,,401.144,401.144,-0.269622396,-0.108420139,0,0,0,,0,70,70,448,1,,,,
,,,,,,4cea6e54f3b0873e2f81a3a2,66a626ef09d4e21e1a8894ec,673772678c1d289156a5d34e,2024-11-15_10h21.26.683,Tarea de género gramatical,2024.2.2,MacIntel,59.52380952,,,,,,,,,,,,,,,,,,,,,,,401.1453,403.7936,,0,[],[],[],[],[],[],[],0.6369,-1,403.7946,404.2939,,,,,,1348,MAS,DIS,150,aceite,la,l,,,404.294,404.2941,-0.269622396,-0.108420139,0,0,0,,0,71,71,447,1,,,,
,,,,,,4cea6e54f3b0873e2f81a3a2,66a626ef09d4e21e1a8894ec,673772678c1d289156a5d34e,2024-11-15_10h21.26.683,Tarea de género gramatical,2024.2.2,MacIntel,59.52380952,,,,,,,,,,,,,,,,,,,,,,,404.2952,405.3607,a,1,[],[],[],[],[],[],[],0.3829,1,405.3615,405.8607,,,,,,1205,MAS,AGR,150,hombre,el,l,0.3829,,405.8608,405.8609,-0.269622396,-0.108420139,0,0,0,,0,72,72,304,1,,,,
,,,,,,4cea6e54f3b0873e2f81a3a2,66a626ef09d4e21e1a8894ec,673772678c1d289156a5d34e,2024-11-15_10h21.26.683,Tarea de género gramatical,2024.2.2,MacIntel,59.52380952,,,,,,,,,,,,,,,,,,,,,,,405.8623,407.4605,l,0,[],[],[],[],[],[],[],0.9163,0,407.4614,407.9606,,,,,,1264,MAS,DIS,150,viento,la,l,0.9163,,407.9607,407.9609,-0.269622396,-0.108420139,0,0,0,,0,73,73,363,1,,,,
,,,,,,4cea6e54f3b0873e2f81a3a2,66a626ef09d4e21e1a8894ec,673772678c1d289156a5d34e,2024-11-15_10h21.26.683,Tarea de género gramatical,2024.2.2,MacIntel,59.52380952,,,,,,,,,,,,,,,,,,,,,,,407.9621,409.1604,l,1,[],[],[],[],[],[],[],0.5261,1,409.1612,409.6606,,,,,,1154,FEM,AGR,150,caída,la,a,0.5261,,409.6622,409.6633,-0.269622396,-0.108420139,0,0,0,,0,74,74,253,1,,,,
,,,,,,4cea6e54f3b0873e2f81a3a2,66a626ef09d4e21e1a8894ec,673772678c1d289156a5d34e,2024-11-15_10h21.26.683,Tarea de género gramatical,2024.2.2,MacIntel,59.52380952,,,,,,,,,,,,,,,,,,,,,,,409.6642,410.9097,l,1,[],[],[],[],[],[],[],0.5668,1,410.9098,411.4098,,,,,,1243,FEM,DIS,150,trampa,el,a,0.5668,,411.4099,411.4101,-0.269622396,-0.108420139,0,0,0,,0,75,75,342,1,,,,
,,,,,,4cea6e54f3b0873e2f81a3a2,66a626ef09d4e21e1a8894ec,673772678c1d289156a5d34e,2024-11-15_10h21.26.683,Tarea de género gramatical,2024.2.2,MacIntel,59.52380952,,,,,,,,,,,,,,,,,,,,,,,411.4115,412.5272,l,1,[],[],[],[],[],[],[],0.4428,1,412.5274,413.0271,,,,,,1069,FEM,DIS,150,vista,el,a,0.4428,,413.0272,413.0273,-0.269622396,-0.108420139,0,0,0,,0,76,76,168,1,,,,
,,,,,,4cea6e54f3b0873e2f81a3a2,66a626ef09d4e21e1a8894ec,673772678c1d289156a5d34e,2024-11-15_10h21.26.683,Tarea de género gramatical,2024.2.2,MacIntel,59.52380952,,,,,,,,,,,,,,,,,,,,,,,413.0285,414.2108,a,0,[],[],[],[],[],[],[],0.502,0,414.212,414.7109,,,,,,999,FEM,CON,150,fase,,a,0.502,,414.7109,414.7111,-0.269622396,-0.108420139,0,0,0,,0,77,77,98,1,,,,
,,,,,,4cea6e54f3b0873e2f81a3a2,66a626ef09d4e21e1a8894ec,673772678c1d289156a5d34e,2024-11-15_10h21.26.683,Tarea de género gramatical,2024.2.2,MacIntel,59.52380952,,,,,,,,,,,,,,,,,,,,,,,414.7123,416.1776,l,1,[],[],[],[],[],[],[],0.7845,1,416.1786,416.6775,,,,,,1268,FEM,AGR,150,gracia,la,a,0.7845,,416.6788,416.6796,-0.269622396,-0.108420139,0,0,0,,0,78,78,367,1,,,,
,,,,,,4cea6e54f3b0873e2f81a3a2,66a626ef09d4e21e1a8894ec,673772678c1d289156a5d34e,2024-11-15_10h21.26.683,Tarea de género gramatical,2024.2.2,MacIntel,59.52380952,,,,,,,,,,,,,,,,,,,,,,,416.6803,417.8773,a,1,[],[],[],[],[],[],[],0.5158,1,417.8775,418.3764,,,,,,1174,MAS,DIS,150,motor,la,l,0.5158,,418.3764,418.3766,-0.269622396,-0.108420139,0,0,0,,0,79,79,273,1,,,,
,,,,,,4cea6e54f3b0873e2f81a3a2,66a626ef09d4e21e1a8894ec,673772678c1d289156a5d34e,2024-11-15_10h21.26.683,Tarea de género gramatical,2024.2.2,MacIntel,59.52380952,,,,,,,,,,,,,,,,,,,,,,,418.3781,419.544,l,0,[],[],[],[],[],[],[],0.4851,0,419.5449,420.044,,,,,,1067,MAS,AGR,150,juego,el,l,0.4851,,420.0441,420.0442,-0.269622396,-0.108420139,0,0,0,,0,80,80,166,1,,,,
,,,,,,4cea6e54f3b0873e2f81a3a2,66a626ef09d4e21e1a8894ec,673772678c1d289156a5d34e,2024-11-15_10h21.26.683,Tarea de género gramatical,2024.2.2,MacIntel,59.52380952,,,,,,,,,,,,,,,,,,,,,,,420.0452,421.3109,l,1,[],[],[],[],[],[],[],0.5843,1,421.3119,421.8107,,,,,,1045,FEM,DIS,150,bota,el,a,0.5843,,421.8109,421.8111,-0.269622396,-0.108420139,0,0,0,,0,81,81,144,1,,,,
,,,,,,4cea6e54f3b0873e2f81a3a2,66a626ef09d4e21e1a8894ec,673772678c1d289156a5d34e,2024-11-15_10h21.26.683,Tarea de género gramatical,2024.2.2,MacIntel,59.52380952,,,,,,,,,,,,,,,,,,,,,,,421.8123,422.7441,a,0,[],[],[],[],[],[],[],0.25,0,422.745,423.243,,,,,,1179,FEM,CON,150,selva,,a,0.25,,423.2432,423.2432,-0.269622396,-0.108420139,0,0,0,,0,82,82,278,1,,,,
,,,,,,4cea6e54f3b0873e2f81a3a2,66a626ef09d4e21e1a8894ec,673772678c1d289156a5d34e,2024-11-15_10h21.26.683,Tarea de género gramatical,2024.2.2,MacIntel,59.52380952,,,,,,,,,,,,,,,,,,,,,,,423.2445,424.2277,l,1,[],[],[],[],[],[],[],0.3282,1,424.229,424.7275,,,,,,1107,FEM,CON,150,playa,,a,0.3282,,424.7291,424.7303,-0.269622396,-0.108420139,0,0,0,,0,83,83,206,1,,,,
,,,,,,4cea6e54f3b0873e2f81a3a2,66a626ef09d4e21e1a8894ec,673772678c1d289156a5d34e,2024-11-15_10h21.26.683,Tarea de género gramatical,2024.2.2,MacIntel,59.52380952,,,,,,,,,,,,,,,,,,,,,,,424.7314,425.8109,l,1,[],[],[],[],[],[],[],0.404,1,425.811,426.3109,,,,,,1034,FEM,AGR,150,rama,la,a,0.404,,426.311,426.3112,-0.269622396,-0.108420139,0,0,0,,0,84,84,133,1,,,,
,,,,,,4cea6e54f3b0873e2f81a3a2,66a626ef09d4e21e1a8894ec,673772678c1d289156a5d34e,2024-11-15_10h21.26.683,Tarea de género gramatical,2024.2.2,MacIntel,59.52380952,,,,,,,,,,,,,,,,,,,,,,,426.3125,427.5109,a,1,[],[],[],[],[],[],[],0.5171,1,427.511,428.0108,,,,,,958,MAS,DIS,150,mono,la,l,0.5171,,428.0109,428.011,-0.269622396,-0.108420139,0,0,0,,0,85,85,57,1,,,,
,,,,,,4cea6e54f3b0873e2f81a3a2,66a626ef09d4e21e1a8894ec,673772678c1d289156a5d34e,2024-11-15_10h21.26.683,Tarea de género gramatical,2024.2.2,MacIntel,59.52380952,,,,,,,,,,,,,,,,,,,,,,,428.0123,429.0941,l,1,[],[],[],[],[],[],[],0.4004,1,429.0943,429.5942,,,,,,1257,FEM,CON,150,lengua,,a,0.4004,,429.5943,429.5944,-0.269622396,-0.108420139,0,0,0,,0,86,86,356,1,,,,
,,,,,,4cea6e54f3b0873e2f81a3a2,66a626ef09d4e21e1a8894ec,673772678c1d289156a5d34e,2024-11-15_10h21.26.683,Tarea de género gramatical,2024.2.2,MacIntel,59.52380952,,,,,,,,,,,,,,,,,,,,,,,429.5956,430.8608,a,1,[],[],[],[],[],[],[],0.5836,1,430.861,431.3598,,,,,,1312,MAS,DIS,150,espejo,la,l,0.5836,,431.3613,431.3621,-0.269622396,-0.108420139,0,0,0,,0,87,87,411,1,,,,
,,,,,,4cea6e54f3b0873e2f81a3a2,66a626ef09d4e21e1a8894ec,673772678c1d289156a5d34e,2024-11-15_10h21.26.683,Tarea de género gramatical,2024.2.2,MacIntel,59.52380952,,,,,,,,,,,,,,,,,,,,,,,431.3629,432.4441,l,0,[],[],[],[],[],[],[],0.4001,0,432.445,432.9442,,,,,,1320,MAS,CON,150,helado,,l,0.4001,,432.9443,432.9444,-0.269622396,-0.108420139,0,0,0,,0,88,88,419,1,,,,
,,,,,,4cea6e54f3b0873e2f81a3a2,66a626ef09d4e21e1a8894ec,673772678c1d289156a5d34e,2024-11-15_10h21.26.683,Tarea de género gramatical,2024.2.2,MacIntel,59.52380952,,,,,,,,,,,,,,,,,,,,,,,432.9454,434.7606,a,1,[],[],[],[],[],[],[],1.1339,1,434.7619,435.2608,,,,,,1288,MAS,DIS,150,empleo,la,l,1.1339,,435.261,435.2611,-0.269622396,-0.108420139,0,0,0,,0,89,89,387,1,,,,
,,,,,,4cea6e54f3b0873e2f81a3a2,66a626ef09d4e21e1a8894ec,673772678c1d289156a5d34e,2024-11-15_10h21.26.683,Tarea de género gramatical,2024.2.2,MacIntel,59.52380952,,,,,,,,,,,,,,,,,,,,,,,435.2624,436.2943,l,1,[],[],[],[],[],[],[],0.352,1,436.2945,436.7932,,,,,,1004,FEM,AGR,150,vela,la,a,0.352,,436.7933,436.7935,-0.269622396,-0.108420139,0,0,0,,0,90,90,103,1,,,,
,,,,,,4cea6e54f3b0873e2f81a3a2,66a626ef09d4e21e1a8894ec,673772678c1d289156a5d34e,2024-11-15_10h21.26.683,Tarea de género gramatical,2024.2.2,MacIntel,59.52380952,,,,,,,,,,,,,,,,,,,,,,,436.7947,437.86,l,1,[],[],[],[],[],[],[],0.4004,1,437.8601,438.3609,,,,,,1287,FEM,CON,150,página,,a,0.4004,,438.361,438.3612,-0.269622396,-0.108420139,0,0,0,,0,91,91,386,1,,,,
,,,,,,4cea6e54f3b0873e2f81a3a2,66a626ef09d4e21e1a8894ec,673772678c1d289156a5d34e,2024-11-15_10h21.26.683,Tarea de género gramatical,2024.2.2,MacIntel,59.52380952,,,,,,,,,,,,,,,,,,,,,,,438.3624,439.8438,a,1,[],[],[],[],[],[],[],0.8007,1,439.8439,440.3445,,,,,,1043,MAS,AGR,150,faro,el,l,0.8007,,440.3459,440.3469,-0.269622396,-0.108420139,0,0,0,,0,92,92,142,1,,,,
,,,,,,4cea6e54f3b0873e2f81a3a2,66a626ef09d4e21e1a8894ec,673772678c1d289156a5d34e,2024-11-15_10h21.26.683,Tarea de género gramatical,2024.2.2,MacIntel,59.52380952,,,,,,,,,,,,,,,,,,,,,,,440.3478,441.5267,l,0,[],[],[],[],[],[],[],0.5008,0,441.5278,442.0277,,,,,,1229,MAS,AGR,150,futuro,el,l,0.5008,,442.0277,442.0279,-0.269622396,-0.108420139,0,0,0,,0,93,93,328,1,,,,
,,,,,,4cea6e54f3b0873e2f81a3a2,66a626ef09d4e21e1a8894ec,673772678c1d289156a5d34e,2024-11-15_10h21.26.683,Tarea de género gramatical,2024.2.2,MacIntel,59.52380952,,,,,,,,,,,,,,,,,,,,,,,442.0291,443.0438,l,0,[],[],[],[],[],[],[],0.3328,0,443.044,443.5443,,,,,,960,MAS,CON,150,tono,,l,0.3328,,443.5444,443.5446,-0.269622396,-0.108420139,0,0,0,,0,94,94,59,1,,,,
,,,,,,4cea6e54f3b0873e2f81a3a2,66a626ef09d4e21e1a8894ec,673772678c1d289156a5d34e,2024-11-15_10h21.26.683,Tarea de género gramatical,2024.2.2,MacIntel,59.52380952,,,,,,,,,,,,,,,,,,,,,,,443.5458,444.6111,l,0,[],[],[],[],[],[],[],0.3853,0,444.6112,445.111,,,,,,1246,MAS,DIS,150,juicio,la,l,0.3853,,445.111,445.1113,-0.269622396,-0.108420139,0,0,0,,0,95,95,345,1,,,,
,,,,,,4cea6e54f3b0873e2f81a3a2,66a626ef09d4e21e1a8894ec,673772678c1d289156a5d34e,2024-11-15_10h21.26.683,Tarea de género gramatical,2024.2.2,MacIntel,59.52380952,,,,,,,,,,,,,,,,,,,,,,,445.1126,446.4772,l,0,[],[],[],[],[],[],[],0.6926,0,446.4773,446.9777,,,,,,1228,MAS,DIS,150,asunto,la,l,0.6926,,446.9794,446.9805,-0.269622396,-0.108420139,0,0,0,,0,96,96,327,1,,,,
,,,,,,4cea6e54f3b0873e2f81a3a2,66a626ef09d4e21e1a8894ec,673772678c1d289156a5d34e,2024-11-15_10h21.26.683,Tarea de género gramatical,2024.2.2,MacIntel,59.52380952,,,,,,,,,,,,,,,,,,,,,,,446.9814,448.5603,a,1,[],[],[],[],[],[],[],0.8999,1,448.5613,449.061,,,,,,1114,MAS,DIS,150,fondo,la,l,0.8999,,449.0611,449.0613,-0.269622396,-0.108420139,0,0,0,,0,97,97,213,1,,,,
,,,,,,4cea6e54f3b0873e2f81a3a2,66a626ef09d4e21e1a8894ec,673772678c1d289156a5d34e,2024-11-15_10h21.26.683,Tarea de género gramatical,2024.2.2,MacIntel,59.52380952,,,,,,,,,,,,,,,,,,,,,,,449.0626,450.2774,a,0,[],[],[],[],[],[],[],0.5343,0,450.2783,450.7767,,,,,,903,FEM,CON,150,cosa,,a,0.5343,,450.7767,450.7769,-0.269622396,-0.108420139,0,0,0,,0,98,98,2,1,,,,
,,,,,,4cea6e54f3b0873e2f81a3a2,66a626ef09d4e21e1a8894ec,673772678c1d289156a5d34e,2024-11-15_10h21.26.683,Tarea de género gramatical,2024.2.2,MacIntel,59.52380952,,,,,,,,,,,,,,,,,,,,,,,450.7782,451.9443,l,1,[],[],[],[],[],[],[],0.4997,1,451.9451,452.4444,,,,,,1309,FEM,DIS,150,moneda,el,a,0.4997,,452.4444,452.4446,-0.269622396,-0.108420139,0,0,0,,0,99,99,408,1,,,,
,,,,,,4cea6e54f3b0873e2f81a3a2,66a626ef09d4e21e1a8894ec,673772678c1d289156a5d34e,2024-11-15_10h21.26.683,Tarea de género gramatical,2024.2.2,MacIntel,59.52380952,,,,,,,,,,,,,,,,,,,,,,,452.4459,453.5611,a,1,[],[],[],[],[],[],[],0.434,1,453.5613,454.0602,,,,,,1072,MAS,DIS,150,poder,la,l,0.434,,454.0602,454.0604,-0.269622396,-0.108420139,0,0,0,,0,100,100,171,1,,,,
,,,,,,4cea6e54f3b0873e2f81a3a2,66a626ef09d4e21e1a8894ec,673772678c1d289156a5d34e,2024-11-15_10h21.26.683,Tarea de género gramatical,2024.2.2,MacIntel,59.52380952,,,,,,,,,,,,,,,,,,,,,,,454.0617,455.7276,l,1,[],[],[],[],[],[],[],1.0104,1,455.7277,456.2278,,,,,,1052,FEM,AGR,150,gente,la,a,1.0104,,456.2293,456.2306,-0.269622396,-0.108420139,0,0,0,,0,101,101,151,1,,,,
,,,,,,4cea6e54f3b0873e2f81a3a2,66a626ef09d4e21e1a8894ec,673772678c1d289156a5d34e,2024-11-15_10h21.26.683,Tarea de género gramatical,2024.2.2,MacIntel,59.52380952,,,,,,,,,,,,,,,,,,,,,,,456.2315,458.8604,l,1,[],[],[],[],[],[],[],1.9612,1,458.8605,459.3611,,,,,,1189,FEM,DIS,150,tabla,el,a,1.9612,,459.3611,459.3614,-0.269622396,-0.108420139,0,0,0,,0,102,102,288,1,,,,
,,,,,,4cea6e54f3b0873e2f81a3a2,66a626ef09d4e21e1a8894ec,673772678c1d289156a5d34e,2024-11-15_10h21.26.683,Tarea de género gramatical,2024.2.2,MacIntel,59.52380952,,,,,,,,,,,,,,,,,,,,,,,459.3627,460.6272,l,1,[],[],[],[],[],[],[],0.5835,1,460.6273,461.1279,,,,,,1292,FEM,AGR,150,maleta,la,a,0.5835,,461.1279,461.128,-0.269622396,-0.108420139,0,0,0,,0,103,103,391,1,,,,
,,,,,,4cea6e54f3b0873e2f81a3a2,66a626ef09d4e21e1a8894ec,673772678c1d289156a5d34e,2024-11-15_10h21.26.683,Tarea de género gramatical,2024.2.2,MacIntel,59.52380952,,,,,,,,,,,,,,,,,,,,,,,461.1293,462.2444,l,0,[],[],[],[],[],[],[],0.4357,0,462.2455,462.7445,,,,,,1270,MAS,DIS,150,seguro,la,l,0.4357,,462.7446,462.7448,-0.269622396,-0.108420139,0,0,0,,0,104,104,369,1,,,,
,,,,,,4cea6e54f3b0873e2f81a3a2,66a626ef09d4e21e1a8894ec,673772678c1d289156a5d34e,2024-11-15_10h21.26.683,Tarea de género gramatical,2024.2.2,MacIntel,59.52380952,,,,,,,,,,,,,,,,,,,,,,,462.7461,463.8446,a,0,[],[],[],[],[],[],[],0.4162,0,463.8447,464.3444,,,,,,938,FEM,AGR,150,obra,la,a,0.4162,,464.3457,464.3466,-0.269622396,-0.108420139,0,0,0,,0,105,105,37,1,,,,
,,,,,,4cea6e54f3b0873e2f81a3a2,66a626ef09d4e21e1a8894ec,673772678c1d289156a5d34e,2024-11-15_10h21.26.683,Tarea de género gramatical,2024.2.2,MacIntel,59.52380952,,,,,,,,,,,,,,,,,,,,,,,464.3474,465.3447,l,0,[],[],[],[],[],[],[],0.3171,0,465.3449,465.8445,,,,,,1194,MAS,CON,150,cable,,l,0.3171,,465.8446,465.8448,-0.269622396,-0.108420139,0,0,0,,0,106,106,293,1,,,,
,,,,,,4cea6e54f3b0873e2f81a3a2,66a626ef09d4e21e1a8894ec,673772678c1d289156a5d34e,2024-11-15_10h21.26.683,Tarea de género gramatical,2024.2.2,MacIntel,59.52380952,,,,,,,,,,,,,,,,,,,,,,,465.8459,468.4946,,0,[],[],[],[],[],[],[],0.3171,-1,468.4956,468.9935,,,,,,1146,MAS,CON,150,humor,,l,,,468.9937,468.9938,-0.269622396,-0.108420139,0,0,0,,0,107,107,245,1,,,,
,,,,,,4cea6e54f3b0873e2f81a3a2,66a626ef09d4e21e1a8894ec,673772678c1d289156a5d34e,2024-11-15_10h21.26.683,Tarea de género gramatical,2024.2.2,MacIntel,59.52380952,,,,,,,,,,,,,,,,,,,,,,,468.995,470.1779,a,1,[],[],[],[],[],[],[],0.4988,1,470.1788,470.6779,,,,,,1062,MAS,CON,150,miedo,,l,0.4988,,470.678,470.6781,-0.269622396,-0.108420139,0,0,0,,0,108,108,161,1,,,,
,,,,,,4cea6e54f3b0873e2f81a3a2,66a626ef09d4e21e1a8894ec,673772678c1d289156a5d34e,2024-11-15_10h21.26.683,Tarea de género gramatical,2024.2.2,MacIntel,59.52380952,,,,,,,,,,,,,,,,,,,,,,,470.6792,471.9112,l,1,[],[],[],[],[],[],[],0.5511,1,471.9113,472.4112,,,,,,1335,FEM,CON,150,niebla,,a,0.5511,,472.4113,472.4115,-0.269622396,-0.108420139,0,0,0,,0,109,109,434,1,,,,
,,,,,,4cea6e54f3b0873e2f81a3a2,66a626ef09d4e21e1a8894ec,673772678c1d289156a5d34e,2024-11-15_10h21.26.683,Tarea de género gramatical,2024.2.2,MacIntel,59.52380952,,,,,,,,,,,,,,,,,,,,,,,472.4127,473.6613,a,1,[],[],[],[],[],[],[],0.5711,1,473.6614,474.1605,,,,,,1122,MAS,CON,150,valor,,l,0.5711,,474.1622,474.1629,-0.269622396,-0.108420139,0,0,0,,0,110,110,221,1,,,,
,,,,,,4cea6e54f3b0873e2f81a3a2,66a626ef09d4e21e1a8894ec,673772678c1d289156a5d34e,2024-11-15_10h21.26.683,Tarea de género gramatical,2024.2.2,MacIntel,59.52380952,,,,,,,,,,,,,,,,,,,,,,,474.1636,475.328,l,0,[],[],[],[],[],[],[],0.4828,0,475.329,475.828,,,,,,934,MAS,DIS,150,gato,la,l,0.4828,,475.8281,475.8282,-0.269622396,-0.108420139,0,0,0,,0,111,111,33,1,,,,
,,,,,,4cea6e54f3b0873e2f81a3a2,66a626ef09d4e21e1a8894ec,673772678c1d289156a5d34e,2024-11-15_10h21.26.683,Tarea de género gramatical,2024.2.2,MacIntel,59.52380952,,,,,,,,,,,,,,,,,,,,,,,475.8298,477.1281,l,1,[],[],[],[],[],[],[],0.6278,1,477.1292,477.6282,,,,,,1071,FEM,CON,150,mitad,,a,0.6278,,477.6283,477.6284,-0.269622396,-0.108420139,0,0,0,,0,112,112,170,1,,,,
,,,,,,4cea6e54f3b0873e2f81a3a2,66a626ef09d4e21e1a8894ec,673772678c1d289156a5d34e,2024-11-15_10h21.26.683,Tarea de género gramatical,2024.2.2,MacIntel,59.52380952,,,,,,,,,,,,,,,,,,,,,,,477.6297,478.7446,l,1,[],[],[],[],[],[],[],0.4327,1,478.7447,479.2447,,,,,,998,FEM,AGR,150,fuga,la,a,0.4327,,479.2448,479.245,-0.269622396,-0.108420139,0,0,0,,0,113,113,97,1,,,,
,,,,,,4cea6e54f3b0873e2f81a3a2,66a626ef09d4e21e1a8894ec,673772678c1d289156a5d34e,2024-11-15_10h21.26.683,Tarea de género gramatical,2024.2.2,MacIntel,59.52380952,,,,,,,,,,,,,,,,,,,,,,,479.2462,480.5448,a,1,[],[],[],[],[],[],[],0.6173,1,480.5449,481.0447,,,,,,1198,MAS,DIS,150,botón,la,l,0.6173,,481.0463,481.0474,-0.269622396,-0.108420139,0,0,0,,0,114,114,297,1,,,,
,,,,,,4cea6e54f3b0873e2f81a3a2,66a626ef09d4e21e1a8894ec,673772678c1d289156a5d34e,2024-11-15_10h21.26.683,Tarea de género gramatical,2024.2.2,MacIntel,59.52380952,,,,,,,,,,,,,,,,,,,,,,,481.0483,482.2449,l,1,[],[],[],[],[],[],[],0.5172,1,482.2451,482.7446,,,,,,1077,FEM,CON,150,broma,,a,0.5172,,482.7447,482.7449,-0.269622396,-0.108420139,0,0,0,,0,115,115,176,1,,,,
,,,,,,4cea6e54f3b0873e2f81a3a2,66a626ef09d4e21e1a8894ec,673772678c1d289156a5d34e,2024-11-15_10h21.26.683,Tarea de género gramatical,2024.2.2,MacIntel,59.52380952,,,,,,,,,,,,,,,,,,,,,,,482.7462,483.8608,l,1,[],[],[],[],[],[],[],0.434,1,483.861,484.3613,,,,,,1142,FEM,AGR,150,pizza,la,a,0.434,,484.3614,484.3616,-0.269622396,-0.108420139,0,0,0,,0,116,116,241,1,,,,
,,,,,,4cea6e54f3b0873e2f81a3a2,66a626ef09d4e21e1a8894ec,673772678c1d289156a5d34e,2024-11-15_10h21.26.683,Tarea de género gramatical,2024.2.2,MacIntel,59.52380952,,,,,,,,,,,,,,,,,,,,,,,484.3632,485.3781,l,1,[],[],[],[],[],[],[],0.3345,1,485.3783,485.878,,,,,,1321,FEM,DIS,150,novela,el,a,0.3345,,485.8781,485.8783,-0.269622396,-0.108420139,0,0,0,,0,117,117,420,1,,,,
,,,,,,4cea6e54f3b0873e2f81a3a2,66a626ef09d4e21e1a8894ec,673772678c1d289156a5d34e,2024-11-15_10h21.26.683,Tarea de género gramatical,2024.2.2,MacIntel,59.52380952,,,,,,,,,,,,,,,,,,,,,,,485.8795,488.5282,,0,[],[],[],[],[],[],[],0.3345,-1,488.5291,489.028,,,,,,1082,FEM,AGR,150,prisa,la,a,,,489.0282,489.0284,-0.269622396,-0.108420139,0,0,0,,0,118,118,181,1,,,,
,,,,,,4cea6e54f3b0873e2f81a3a2,66a626ef09d4e21e1a8894ec,673772678c1d289156a5d34e,2024-11-15_10h21.26.683,Tarea de género gramatical,2024.2.2,MacIntel,59.52380952,,,,,,,,,,,,,,,,,,,,,,,489.0296,490.0614,l,1,[],[],[],[],[],[],[],0.3505,1,490.0623,490.5605,,,,,,1094,FEM,AGR,150,banda,la,a,0.3505,,490.5622,490.563,-0.269622396,-0.108420139,0,0,0,,0,119,119,193,1,,,,
,,,,,,4cea6e54f3b0873e2f81a3a2,66a626ef09d4e21e1a8894ec,673772678c1d289156a5d34e,2024-11-15_10h21.26.683,Tarea de género gramatical,2024.2.2,MacIntel,59.52380952,,,,,,,,,,,,,,,,,,,,,,,490.5639,491.6949,a,0,[],[],[],[],[],[],[],0.4505,0,491.696,492.1948,,,,,,1315,FEM,DIS,150,cabina,el,a,0.4505,,492.1949,492.1951,-0.269622396,-0.108420139,0,0,0,,0,120,120,414,1,,,,
,,,,,,4cea6e54f3b0873e2f81a3a2,66a626ef09d4e21e1a8894ec,673772678c1d289156a5d34e,2024-11-15_10h21.26.683,Tarea de género gramatical,2024.2.2,MacIntel,59.52380952,,,,,,,,,,,,,,,,,,,,,,,492.1964,493.5447,a,1,[],[],[],[],[],[],[],0.6674,1,493.5458,494.0449,,,,,,1061,MAS,AGR,150,chico,el,l,0.6674,,494.045,494.0451,-0.269622396,-0.108420139,0,0,0,,0,121,121,160,1,,,,
,,,,,,4cea6e54f3b0873e2f81a3a2,66a626ef09d4e21e1a8894ec,673772678c1d289156a5d34e,2024-11-15_10h21.26.683,Tarea de género gramatical,2024.2.2,MacIntel,59.52380952,,,,,,,,,,,,,,,,,,,,,,,494.0464,495.1114,l,1,[],[],[],[],[],[],[],0.383,1,495.1115,495.6115,,,,,,1345,FEM,DIS,150,bondad,el,a,0.383,,495.6116,495.6117,-0.269622396,-0.108420139,0,0,0,,0,122,122,444,1,,,,
,,,,,,4cea6e54f3b0873e2f81a3a2,66a626ef09d4e21e1a8894ec,673772678c1d289156a5d34e,2024-11-15_10h21.26.683,Tarea de género gramatical,2024.2.2,MacIntel,59.52380952,,,,,,,,,,,,,,,,,,,,,,,495.6131,496.8949,a,1,[],[],[],[],[],[],[],0.6033,1,496.895,497.3949,,,,,,1008,MAS,CON,150,hilo,,l,0.6033,,497.3964,497.3973,-0.269622396,-0.108420139,0,0,0,,0,123,123,107,1,,,,
,,,,,,4cea6e54f3b0873e2f81a3a2,66a626ef09d4e21e1a8894ec,673772678c1d289156a5d34e,2024-11-15_10h21.26.683,Tarea de género gramatical,2024.2.2,MacIntel,59.52380952,,,,,,,,,,,,,,,,,,,,,,,497.3982,498.6949,l,0,[],[],[],[],[],[],[],0.6174,0,498.696,499.1949,,,,,,1342,MAS,DIS,150,cuadro,la,l,0.6174,,499.1949,499.1951,-0.269622396,-0.108420139,0,0,0,,0,124,124,441,1,,,,
,,,,,,4cea6e54f3b0873e2f81a3a2,66a626ef09d4e21e1a8894ec,673772678c1d289156a5d34e,2024-11-15_10h21.26.683,Tarea de género gramatical,2024.2.2,MacIntel,59.52380952,,,,,,,,,,,,,,,,,,,,,,,499.1963,500.3115,l,1,[],[],[],[],[],[],[],0.4335,1,500.3126,500.8116,,,,,,1203,FEM,CON,150,maldad,,a,0.4335,,500.8116,500.8119,-0.269622396,-0.108420139,0,0,0,,0,125,125,302,1,,,,
,,,,,,4cea6e54f3b0873e2f81a3a2,66a626ef09d4e21e1a8894ec,673772678c1d289156a5d34e,2024-11-15_10h21.26.683,Tarea de género gramatical,2024.2.2,MacIntel,59.52380952,,,,,,,,,,,,,,,,,,,,,,,500.8132,501.9117,l,1,[],[],[],[],[],[],[],0.4172,1,501.9119,502.4114,,,,,,1137,FEM,CON,150,ducha,,a,0.4172,,502.4115,502.4117,-0.269622396,-0.108420139,0,0,0,,0,126,126,236,1,,,,
,,,,,,4cea6e54f3b0873e2f81a3a2,66a626ef09d4e21e1a8894ec,673772678c1d289156a5d34e,2024-11-15_10h21.26.683,Tarea de género gramatical,2024.2.2,MacIntel,59.52380952,,,,,,,,,,,,,,,,,,,,,,,502.4131,503.7949,l,1,[],[],[],[],[],[],[],0.7008,1,503.7951,504.2949,,,,,,1197,FEM,CON,150,manta,,a,0.7008,,504.2949,504.2952,-0.269622396,-0.108420139,0,0,0,,0,127,127,296,1,,,,
,,,,,,4cea6e54f3b0873e2f81a3a2,66a626ef09d4e21e1a8894ec,673772678c1d289156a5d34e,2024-11-15_10h21.26.683,Tarea de género gramatical,2024.2.2,MacIntel,59.52380952,,,,,,,,,,,,,,,,,,,,,,,504.2965,505.3617,a,1,[],[],[],[],[],[],[],0.3826,1,505.3619,505.8614,,,,,,1018,MAS,DIS,150,baúl,la,l,0.3826,,505.8627,505.8636,-0.269622396,-0.108420139,0,0,0,,0,128,128,117,1,,,,
,,,,,,4cea6e54f3b0873e2f81a3a2,66a626ef09d4e21e1a8894ec,673772678c1d289156a5d34e,2024-11-15_10h21.26.683,Tarea de género gramatical,2024.2.2,MacIntel,59.52380952,,,,,,,,,,,,,,,,,,,,,,,505.8645,506.8439,l,0,[],[],[],[],[],[],[],0.299,0,506.8449,507.3449,,,,,,1253,MAS,AGR,150,verano,el,l,0.299,,507.345,507.3452,-0.269622396,-0.108420139,0,0,0,,0,129,129,352,1,,,,
,,,,,,4cea6e54f3b0873e2f81a3a2,66a626ef09d4e21e1a8894ec,673772678c1d289156a5d34e,2024-11-15_10h21.26.683,Tarea de género gramatical,2024.2.2,MacIntel,59.52380952,,,,,,,,,,,,,,,,,,,,,,,507.3465,508.6107,l,0,[],[],[],[],[],[],[],0.5839,0,508.6109,509.1116,,,,,,918,MAS,CON,150,tren,,l,0.5839,,509.1117,509.1119,-0.269622396,-0.108420139,0,0,0,,0,130,130,17,1,,,,
,,,,,,4cea6e54f3b0873e2f81a3a2,66a626ef09d4e21e1a8894ec,673772678c1d289156a5d34e,2024-11-15_10h21.26.683,Tarea de género gramatical,2024.2.2,MacIntel,59.52380952,,,,,,,,,,,,,,,,,,,,,,,509.1132,510.495,a,1,[],[],[],[],[],[],[],0.7108,1,510.4959,510.995,,,,,,1036,MAS,DIS,150,vago,la,l,0.7108,,510.9951,510.9953,-0.269622396,-0.108420139,0,0,0,,0,131,131,135,1,,,,
,,,,,,4cea6e54f3b0873e2f81a3a2,66a626ef09d4e21e1a8894ec,673772678c1d289156a5d34e,2024-11-15_10h21.26.683,Tarea de género gramatical,2024.2.2,MacIntel,59.52380952,,,,,,,,,,,,,,,,,,,,,,,510.9965,512.095,l,1,[],[],[],[],[],[],[],0.4189,1,512.0951,512.595,,,,,,1130,FEM,AGR,150,regla,la,a,0.4189,,512.5965,512.5976,-0.269622396,-0.108420139,0,0,0,,0,132,132,229,1,,,,
,,,,,,4cea6e54f3b0873e2f81a3a2,66a626ef09d4e21e1a8894ec,673772678c1d289156a5d34e,2024-11-15_10h21.26.683,Tarea de género gramatical,2024.2.2,MacIntel,59.52380952,,,,,,,,,,,,,,,,,,,,,,,512.5985,513.7275,a,1,[],[],[],[],[],[],[],0.4506,1,513.7276,514.2283,,,,,,1272,MAS,CON,150,delito,,l,0.4506,,514.2284,514.2286,-0.269622396,-0.108420139,0,0,0,,0,133,133,371,1,,,,
,,,,,,4cea6e54f3b0873e2f81a3a2,66a626ef09d4e21e1a8894ec,673772678c1d289156a5d34e,2024-11-15_10h21.26.683,Tarea de género gramatical,2024.2.2,MacIntel,59.52380952,,,,,,,,,,,,,,,,,,,,,,,514.23,515.2951,l,1,[],[],[],[],[],[],[],0.3845,1,515.2952,515.7949,,,,,,1100,FEM,AGR,150,silla,la,a,0.3845,,515.795,515.7952,-0.269622396,-0.108420139,0,0,0,,0,134,134,199,1,,,,
,,,,,,4cea6e54f3b0873e2f81a3a2,66a626ef09d4e21e1a8894ec,673772678c1d289156a5d34e,2024-11-15_10h21.26.683,Tarea de género gramatical,2024.2.2,MacIntel,59.52380952,,,,,,,,,,,,,,,,,,,,,,,515.7964,516.9776,l,1,[],[],[],[],[],[],[],0.5032,1,516.9777,517.4783,,,,,,1250,FEM,AGR,150,imagen,la,a,0.5032,,517.4784,517.4785,-0.269622396,-0.108420139,0,0,0,,0,135,135,349,1,,,,
,,,,,,4cea6e54f3b0873e2f81a3a2,66a626ef09d4e21e1a8894ec,673772678c1d289156a5d34e,2024-11-15_10h21.26.683,Tarea de género gramatical,2024.2.2,MacIntel,59.52380952,,,,,,,,,,,,,,,,,,,,,,,517.4793,518.4784,a,1,[],[],[],[],[],[],[],0.3279,1,518.4784,518.9784,,,,,,995,MAS,AGR,150,tomo,el,l,0.3279,,518.9785,518.9786,-0.269622396,-0.108420139,0,0,0,,0,136,136,94,1,,,,
,,,,,,4cea6e54f3b0873e2f81a3a2,66a626ef09d4e21e1a8894ec,673772678c1d289156a5d34e,2024-11-15_10h21.26.683,Tarea de género gramatical,2024.2.2,MacIntel,59.52380952,,,,,,,,,,,,,,,,,,,,,,,518.9799,520.2453,a,1,[],[],[],[],[],[],[],0.5835,1,520.2454,520.7451,,,,,,1216,MAS,DIS,150,cuerpo,la,l,0.5835,,520.7465,520.7475,-0.269622396,-0.108420139,0,0,0,,0,137,137,315,1,,,,
,,,,,,4cea6e54f3b0873e2f81a3a2,66a626ef09d4e21e1a8894ec,673772678c1d289156a5d34e,2024-11-15_10h21.26.683,Tarea de género gramatical,2024.2.2,MacIntel,59.52380952,,,,,,,,,,,,,,,,,,,,,,,520.7483,522.1451,l,1,[],[],[],[],[],[],[],0.7203,1,522.1452,522.645,,,,,,1279,FEM,DIS,150,granja,el,a,0.7203,,522.6452,522.6454,-0.269622396,-0.108420139,0,0,0,,0,138,138,378,1,,,,
,,,,,,4cea6e54f3b0873e2f81a3a2,66a626ef09d4e21e1a8894ec,673772678c1d289156a5d34e,2024-11-15_10h21.26.683,Tarea de género gramatical,2024.2.2,MacIntel,59.52380952,,,,,,,,,,,,,,,,,,,,,,,522.6466,524.2285,a,1,[],[],[],[],[],[],[],0.9007,1,524.2286,524.7284,,,,,,1042,MAS,DIS,150,lodo,la,l,0.9007,,524.7285,524.7287,-0.269622396,-0.108420139,0,0,0,,0,139,139,141,1,,,,
,,,,,,4cea6e54f3b0873e2f81a3a2,66a626ef09d4e21e1a8894ec,673772678c1d289156a5d34e,2024-11-15_10h21.26.683,Tarea de género gramatical,2024.2.2,MacIntel,59.52380952,,,,,,,,,,,,,,,,,,,,,,,524.73,526.0112,l,1,[],[],[],[],[],[],[],0.6005,1,526.0114,526.5118,,,,,,1196,FEM,AGR,150,feria,la,a,0.6005,,526.5119,526.5121,-0.269622396,-0.108420139,0,0,0,,0,140,140,295,1,,,,
,,,,,,4cea6e54f3b0873e2f81a3a2,66a626ef09d4e21e1a8894ec,673772678c1d289156a5d34e,2024-11-15_10h21.26.683,Tarea de género gramatical,2024.2.2,MacIntel,59.52380952,,,,,,,,,,,,,,,,,,,,,,,526.5134,528.0118,l,1,[],[],[],[],[],[],[],0.8174,1,528.012,528.5118,,,,,,1267,FEM,DIS,150,teoría,el,a,0.8174,,528.5134,528.5143,-0.269622396,-0.108420139,0,0,0,,0,141,141,366,1,,,,
,,,,,,4cea6e54f3b0873e2f81a3a2,66a626ef09d4e21e1a8894ec,673772678c1d289156a5d34e,2024-11-15_10h21.26.683,Tarea de género gramatical,2024.2.2,MacIntel,59.52380952,,,,,,,,,,,,,,,,,,,,,,,528.5152,529.5951,l,1,[],[],[],[],[],[],[],0.4006,1,529.5953,530.0952,,,,,,1317,FEM,CON,150,cabaña,,a,0.4006,,530.0952,530.0954,-0.269622396,-0.108420139,0,0,0,,0,142,142,416,1,,,,
,,,,,,4cea6e54f3b0873e2f81a3a2,66a626ef09d4e21e1a8894ec,673772678c1d289156a5d34e,2024-11-15_10h21.26.683,Tarea de género gramatical,2024.2.2,MacIntel,59.52380952,,,,,,,,,,,,,,,,,,,,,,,530.0968,531.1943,a,1,[],[],[],[],[],[],[],0.4172,1,531.1944,531.6952,,,,,,1223,MAS,AGR,150,marido,el,l,0.4172,,531.6953,531.6955,-0.269622396,-0.108420139,0,0,0,,0,143,143,322,1,,,,
,,,,,,4cea6e54f3b0873e2f81a3a2,66a626ef09d4e21e1a8894ec,673772678c1d289156a5d34e,2024-11-15_10h21.26.683,Tarea de género gramatical,2024.2.2,MacIntel,59.52380952,,,,,,,,,,,,,,,,,,,,,,,531.6966,532.6452,l,1,[],[],[],[],[],[],[],0.2673,1,532.6453,533.145,,,,,,927,FEM,CON,150,mesa,,a,0.2673,,533.145,533.1452,-0.269622396,-0.108420139,0,0,0,,0,144,144,26,1,,,,
,,,,,,4cea6e54f3b0873e2f81a3a2,66a626ef09d4e21e1a8894ec,673772678c1d289156a5d34e,2024-11-15_10h21.26.683,Tarea de género gramatical,2024.2.2,MacIntel,59.52380952,,,,,,,,,,,,,,,,,,,,,,,533.1464,534.2787,l,1,[],[],[],[],[],[],[],0.4504,1,534.2788,534.7786,,,,,,1040,FEM,AGR,150,mula,la,a,0.4504,,534.7787,534.7788,-0.269622396,-0.108420139,0,0,0,,0,145,145,139,1,,,,
,,,,,,4cea6e54f3b0873e2f81a3a2,66a626ef09d4e21e1a8894ec,673772678c1d289156a5d34e,2024-11-15_10h21.26.683,Tarea de género gramatical,2024.2.2,MacIntel,59.52380952,,,,,,,,,,,,,,,,,,,,,,,534.7801,535.7786,a,1,[],[],[],[],[],[],[],0.3178,1,535.7787,536.2786,,,,,,1056,MAS,CON,150,amigo,,l,0.3178,,536.28,536.2812,-0.269622396,-0.108420139,0,0,0,,0,146,146,155,1,,,,
,,,,,,4cea6e54f3b0873e2f81a3a2,66a626ef09d4e21e1a8894ec,673772678c1d289156a5d34e,2024-11-15_10h21.26.683,Tarea de género gramatical,2024.2.2,MacIntel,59.52380952,,,,,,,,,,,,,,,,,,,,,,,536.2821,537.4116,l,1,[],[],[],[],[],[],[],0.4506,1,537.4117,537.9109,,,,,,1261,FEM,DIS,150,oferta,el,a,0.4506,,537.911,537.9111,-0.269622396,-0.108420139,0,0,0,,0,147,147,360,1,,,,
,,,,,,4cea6e54f3b0873e2f81a3a2,66a626ef09d4e21e1a8894ec,673772678c1d289156a5d34e,2024-11-15_10h21.26.683,Tarea de género gramatical,2024.2.2,MacIntel,59.52380952,,,,,,,,,,,,,,,,,,,,,,,537.9125,539.1119,l,1,[],[],[],[],[],[],[],0.5164,1,539.112,539.6119,,,,,,1165,FEM,DIS,150,rueda,el,a,0.5164,,539.6121,539.6123,-0.269622396,-0.108420139,0,0,0,,0,148,148,264,1,,,,
,,,,,,4cea6e54f3b0873e2f81a3a2,66a626ef09d4e21e1a8894ec,673772678c1d289156a5d34e,2024-11-15_10h21.26.683,Tarea de género gramatical,2024.2.2,MacIntel,59.52380952,,,,,,,,,,,,,,,,,,,,,,,539.6135,540.8121,l,1,[],[],[],[],[],[],[],0.5172,1,540.8122,541.312,,,,,,950,FEM,AGR,150,dama,la,a,0.5172,,541.3121,541.3124,-0.269622396,-0.108420139,0,0,0,,0,149,149,49,1,,,,
,,,,,,4cea6e54f3b0873e2f81a3a2,66a626ef09d4e21e1a8894ec,673772678c1d289156a5d34e,2024-11-15_10h21.26.683,Tarea de género gramatical,2024.2.2,MacIntel,59.52380952,,,,,,,,,,,,,,,,,,,,,,,541.3138,542.5283,a,1,[],[],[],[],[],[],[],0.5339,1,542.5284,543.0287,,,,,,929,MAS,AGR,150,frío,el,l,0.5339,,543.0304,938.5505,-0.269622396,-0.108420139,0,0,0,space,0,150,150,28,1,395.503,,,
,,,,,,4cea6e54f3b0873e2f81a3a2,66a626ef09d4e21e1a8894ec,673772678c1d289156a5d34e,2024-11-15_10h21.26.683,Tarea de género gramatical,2024.2.2,MacIntel,59.52380952,,,,,,,,,,,,,,,,,,,,,,,938.5514,940.2831,a,1,[],[],[],[],[],[],[],1.0506,1,940.2833,940.7831,,,,,,1319,MAS,AGR,150,cuento,el,l,1.0506,,940.7832,940.7833,-0.269622396,-0.108420139,0,0,0,,0,151,151,418,1,,,,
,,,,,,4cea6e54f3b0873e2f81a3a2,66a626ef09d4e21e1a8894ec,673772678c1d289156a5d34e,2024-11-15_10h21.26.683,Tarea de género gramatical,2024.2.2,MacIntel,59.52380952,,,,,,,,,,,,,,,,,,,,,,,940.7845,942.0321,a,1,[],[],[],[],[],[],[],0.5688,1,942.0324,942.533,,,,,,1217,MAS,AGR,150,número,el,l,0.5688,,942.533,942.5332,-0.269622396,-0.108420139,0,0,0,,0,152,152,316,1,,,,
,,,,,,4cea6e54f3b0873e2f81a3a2,66a626ef09d4e21e1a8894ec,673772678c1d289156a5d34e,2024-11-15_10h21.26.683,Tarea de género gramatical,2024.2.2,MacIntel,59.52380952,,,,,,,,,,,,,,,,,,,,,,,942.5345,943.5497,l,1,[],[],[],[],[],[],[],0.3346,1,943.5498,944.0492,,,,,,914,FEM,AGR,150,cara,la,a,0.3346,,944.0492,944.0493,-0.269622396,-0.108420139,0,0,0,,0,153,153,13,1,,,,
,,,,,,4cea6e54f3b0873e2f81a3a2,66a626ef09d4e21e1a8894ec,673772678c1d289156a5d34e,2024-11-15_10h21.26.683,Tarea de género gramatical,2024.2.2,MacIntel,59.52380952,,,,,,,,,,,,,,,,,,,,,,,944.0499,945.3829,a,1,[],[],[],[],[],[],[],0.652,1,945.383,945.882,,,,,,916,MAS,DIS,150,baño,la,l,0.652,,945.8821,945.8822,-0.269622396,-0.108420139,0,0,0,,0,154,154,15,1,,,,
,,,,,,4cea6e54f3b0873e2f81a3a2,66a626ef09d4e21e1a8894ec,673772678c1d289156a5d34e,2024-11-15_10h21.26.683,Tarea de género gramatical,2024.2.2,MacIntel,59.52380952,,,,,,,,,,,,,,,,,,,,,,,945.8836,946.9665,a,1,[],[],[],[],[],[],[],0.4168,1,946.9665,947.4655,,,,,,1326,MAS,CON,150,pánico,,l,0.4168,,947.4665,947.4673,-0.269622396,-0.108420139,0,0,0,,0,155,155,425,1,,,,
,,,,,,4cea6e54f3b0873e2f81a3a2,66a626ef09d4e21e1a8894ec,673772678c1d289156a5d34e,2024-11-15_10h21.26.683,Tarea de género gramatical,2024.2.2,MacIntel,59.52380952,,,,,,,,,,,,,,,,,,,,,,,947.4679,948.5829,a,1,[],[],[],[],[],[],[],0.4338,1,948.583,949.0831,,,,,,1103,MAS,AGR,150,novio,el,l,0.4338,,949.0832,949.0833,-0.269622396,-0.108420139,0,0,0,,0,156,156,202,1,,,,
,,,,,,4cea6e54f3b0873e2f81a3a2,66a626ef09d4e21e1a8894ec,673772678c1d289156a5d34e,2024-11-15_10h21.26.683,Tarea de género gramatical,2024.2.2,MacIntel,59.52380952,,,,,,,,,,,,,,,,,,,,,,,949.0846,950.0997,a,1,[],[],[],[],[],[],[],0.334,1,950.0999,950.5997,,,,,,1222,MAS,DIS,150,minuto,la,l,0.334,,950.5999,950.6,-0.269622396,-0.108420139,0,0,0,,0,157,157,321,1,,,,
,,,,,,4cea6e54f3b0873e2f81a3a2,66a626ef09d4e21e1a8894ec,673772678c1d289156a5d34e,2024-11-15_10h21.26.683,Tarea de género gramatical,2024.2.2,MacIntel,59.52380952,,,,,,,,,,,,,,,,,,,,,,,950.6014,951.6331,a,1,[],[],[],[],[],[],[],0.3531,1,951.6333,952.133,,,,,,1163,MAS,AGR,150,carro,el,l,0.3531,,952.1331,952.1334,-0.269622396,-0.108420139,0,0,0,,0,158,158,262,1,,,,
,,,,,,4cea6e54f3b0873e2f81a3a2,66a626ef09d4e21e1a8894ec,673772678c1d289156a5d34e,2024-11-15_10h21.26.683,Tarea de género gramatical,2024.2.2,MacIntel,59.52380952,,,,,,,,,,,,,,,,,,,,,,,952.1347,953.283,l,1,[],[],[],[],[],[],[],0.4674,1,953.2832,953.7832,,,,,,1111,FEM,DIS,150,salud,el,a,0.4674,,953.7847,953.7857,-0.269622396,-0.108420139,0,0,0,,0,159,159,210,1,,,,
,,,,,,4cea6e54f3b0873e2f81a3a2,66a626ef09d4e21e1a8894ec,673772678c1d289156a5d34e,2024-11-15_10h21.26.683,Tarea de género gramatical,2024.2.2,MacIntel,59.52380952,,,,,,,,,,,,,,,,,,,,,,,953.7867,954.9329,l,1,[],[],[],[],[],[],[],0.4774,1,954.9331,955.4331,,,,,,1003,FEM,DIS,150,fama,el,a,0.4774,,955.4331,955.4332,-0.269622396,-0.108420139,0,0,0,,0,160,160,102,1,,,,
,,,,,,4cea6e54f3b0873e2f81a3a2,66a626ef09d4e21e1a8894ec,673772678c1d289156a5d34e,2024-11-15_10h21.26.683,Tarea de género gramatical,2024.2.2,MacIntel,59.52380952,,,,,,,,,,,,,,,,,,,,,,,955.4346,956.6326,l,1,[],[],[],[],[],[],[],0.5172,1,956.6328,957.1332,,,,,,1298,FEM,AGR,150,hierba,la,a,0.5172,,957.1332,957.1334,-0.269622396,-0.108420139,0,0,0,,0,161,161,397,1,,,,
,,,,,,4cea6e54f3b0873e2f81a3a2,66a626ef09d4e21e1a8894ec,673772678c1d289156a5d34e,2024-11-15_10h21.26.683,Tarea de género gramatical,2024.2.2,MacIntel,59.52380952,,,,,,,,,,,,,,,,,,,,,,,957.1347,958.2995,l,1,[],[],[],[],[],[],[],0.4936,1,958.2996,958.7998,,,,,,973,FEM,DIS,150,roca,el,a,0.4936,,958.7999,958.8,-0.269622396,-0.108420139,0,0,0,,0,162,162,72,1,,,,
,,,,,,4cea6e54f3b0873e2f81a3a2,66a626ef09d4e21e1a8894ec,673772678c1d289156a5d34e,2024-11-15_10h21.26.683,Tarea de género gramatical,2024.2.2,MacIntel,59.52380952,,,,,,,,,,,,,,,,,,,,,,,958.8013,959.8665,l,1,[],[],[],[],[],[],[],0.3835,1,959.8667,960.3665,,,,,,1177,FEM,DIS,150,plaza,el,a,0.3835,,960.3665,960.3667,-0.269622396,-0.108420139,0,0,0,,0,163,163,276,1,,,,
,,,,,,4cea6e54f3b0873e2f81a3a2,66a626ef09d4e21e1a8894ec,673772678c1d289156a5d34e,2024-11-15_10h21.26.683,Tarea de género gramatical,2024.2.2,MacIntel,59.52380952,,,,,,,,,,,,,,,,,,,,,,,960.368,961.4829,a,1,[],[],[],[],[],[],[],0.4358,1,961.4831,961.9831,,,,,,1314,MAS,CON,150,sótano,,l,0.4358,,961.9847,961.9858,-0.269622396,-0.108420139,0,0,0,,0,164,164,413,1,,,,
,,,,,,4cea6e54f3b0873e2f81a3a2,66a626ef09d4e21e1a8894ec,673772678c1d289156a5d34e,2024-11-15_10h21.26.683,Tarea de género gramatical,2024.2.2,MacIntel,59.52380952,,,,,,,,,,,,,,,,,,,,,,,961.9868,963.0332,l,1,[],[],[],[],[],[],[],0.3677,1,963.0335,963.5322,,,,,,1341,FEM,CON,150,medida,,a,0.3677,,963.5323,963.5323,-0.269622396,-0.108420139,0,0,0,,0,165,165,440,1,,,,
,,,,,,4cea6e54f3b0873e2f81a3a2,66a626ef09d4e21e1a8894ec,673772678c1d289156a5d34e,2024-11-15_10h21.26.683,Tarea de género gramatical,2024.2.2,MacIntel,59.52380952,,,,,,,,,,,,,,,,,,,,,,,963.5337,964.6,l,1,[],[],[],[],[],[],[],0.4007,1,964.6001,965.0999,,,,,,1027,FEM,DIS,150,cuna,el,a,0.4007,,965.1,965.1002,-0.269622396,-0.108420139,0,0,0,,0,166,166,126,1,,,,
,,,,,,4cea6e54f3b0873e2f81a3a2,66a626ef09d4e21e1a8894ec,673772678c1d289156a5d34e,2024-11-15_10h21.26.683,Tarea de género gramatical,2024.2.2,MacIntel,59.52380952,,,,,,,,,,,,,,,,,,,,,,,965.1013,966.1831,l,1,[],[],[],[],[],[],[],0.4093,1,966.1831,966.6829,,,,,,1347,FEM,CON,150,lógica,,a,0.4093,,966.6831,966.6832,-0.269622396,-0.108420139,0,0,0,,0,167,167,446,1,,,,
,,,,,,4cea6e54f3b0873e2f81a3a2,66a626ef09d4e21e1a8894ec,673772678c1d289156a5d34e,2024-11-15_10h21.26.683,Tarea de género gramatical,2024.2.2,MacIntel,59.52380952,,,,,,,,,,,,,,,,,,,,,,,966.6845,967.6665,a,1,[],[],[],[],[],[],[],0.3026,1,967.6666,968.1666,,,,,,928,MAS,DIS,150,club,la,l,0.3026,,968.1681,968.1693,-0.269622396,-0.108420139,0,0,0,,0,168,168,27,1,,,,
,,,,,,4cea6e54f3b0873e2f81a3a2,66a626ef09d4e21e1a8894ec,673772678c1d289156a5d34e,2024-11-15_10h21.26.683,Tarea de género gramatical,2024.2.2,MacIntel,59.52380952,,,,,,,,,,,,,,,,,,,,,,,968.1703,969.2499,l,0,[],[],[],[],[],[],[],0.4004,0,969.2508,969.749,,,,,,1120,MAS,DIS,150,huevo,la,l,0.4004,,969.749,969.7492,-0.269622396,-0.108420139,0,0,0,,0,169,169,219,1,,,,
,,,,,,4cea6e54f3b0873e2f81a3a2,66a626ef09d4e21e1a8894ec,673772678c1d289156a5d34e,2024-11-15_10h21.26.683,Tarea de género gramatical,2024.2.2,MacIntel,59.52380952,,,,,,,,,,,,,,,,,,,,,,,969.7505,970.8332,l,1,[],[],[],[],[],[],[],0.4175,1,970.8341,971.3332,,,,,,1245,FEM,CON,150,pierna,,a,0.4175,,971.3333,971.3335,-0.269622396,-0.108420139,0,0,0,,0,170,170,344,1,,,,
,,,,,,4cea6e54f3b0873e2f81a3a2,66a626ef09d4e21e1a8894ec,673772678c1d289156a5d34e,2024-11-15_10h21.26.683,Tarea de género gramatical,2024.2.2,MacIntel,59.52380952,,,,,,,,,,,,,,,,,,,,,,,971.3347,972.6499,a,1,[],[],[],[],[],[],[],0.6344,1,972.65,973.15,,,,,,1020,MAS,CON,150,puño,,l,0.6344,,973.1501,973.1502,-0.269622396,-0.108420139,0,0,0,,0,171,171,119,1,,,,
,,,,,,4cea6e54f3b0873e2f81a3a2,66a626ef09d4e21e1a8894ec,673772678c1d289156a5d34e,2024-11-15_10h21.26.683,Tarea de género gramatical,2024.2.2,MacIntel,59.52380952,,,,,,,,,,,,,,,,,,,,,,,973.1515,974.2333,a,1,[],[],[],[],[],[],[],0.4043,1,974.2334,974.7333,,,,,,1134,MAS,CON,150,héroe,,l,0.4043,,974.7334,974.7336,-0.269622396,-0.108420139,0,0,0,,0,172,172,233,1,,,,
,,,,,,4cea6e54f3b0873e2f81a3a2,66a626ef09d4e21e1a8894ec,673772678c1d289156a5d34e,2024-11-15_10h21.26.683,Tarea de género gramatical,2024.2.2,MacIntel,59.52380952,,,,,,,,,,,,,,,,,,,,,,,974.7348,975.8334,a,1,[],[],[],[],[],[],[],0.4171,1,975.8335,976.333,,,,,,1139,MAS,AGR,150,reloj,el,l,0.4171,,976.3347,976.3359,-0.269622396,-0.108420139,0,0,0,,0,173,173,238,1,,,,
,,,,,,4cea6e54f3b0873e2f81a3a2,66a626ef09d4e21e1a8894ec,673772678c1d289156a5d34e,2024-11-15_10h21.26.683,Tarea de género gramatical,2024.2.2,MacIntel,59.52380952,,,,,,,,,,,,,,,,,,,,,,,976.3367,977.3831,a,1,[],[],[],[],[],[],[],0.3677,1,977.3833,977.8833,,,,,,922,MAS,DIS,150,pelo,la,l,0.3677,,977.8835,977.8836,-0.269622396,-0.108420139,0,0,0,,0,174,174,21,1,,,,
,,,,,,4cea6e54f3b0873e2f81a3a2,66a626ef09d4e21e1a8894ec,673772678c1d289156a5d34e,2024-11-15_10h21.26.683,Tarea de género gramatical,2024.2.2,MacIntel,59.52380952,,,,,,,,,,,,,,,,,,,,,,,977.8849,979.1335,a,1,[],[],[],[],[],[],[],0.5671,1,979.1337,979.633,,,,,,976,MAS,DIS,150,lujo,la,l,0.5671,,979.6331,979.6333,-0.269622396,-0.108420139,0,0,0,,0,175,175,75,1,,,,
,,,,,,4cea6e54f3b0873e2f81a3a2,66a626ef09d4e21e1a8894ec,673772678c1d289156a5d34e,2024-11-15_10h21.26.683,Tarea de género gramatical,2024.2.2,MacIntel,59.52380952,,,,,,,,,,,,,,,,,,,,,,,979.6346,980.7001,a,1,[],[],[],[],[],[],[],0.3828,1,980.7002,981.2,,,,,,935,MAS,AGR,150,taxi,el,l,0.3828,,981.2001,981.2003,-0.269622396,-0.108420139,0,0,0,,0,176,176,34,1,,,,
,,,,,,4cea6e54f3b0873e2f81a3a2,66a626ef09d4e21e1a8894ec,673772678c1d289156a5d34e,2024-11-15_10h21.26.683,Tarea de género gramatical,2024.2.2,MacIntel,59.52380952,,,,,,,,,,,,,,,,,,,,,,,981.2016,982.2168,a,1,[],[],[],[],[],[],[],0.334,1,982.217,982.7166,,,,,,911,MAS,AGR,150,país,el,l,0.334,,982.7182,982.7195,-0.269622396,-0.108420139,0,0,0,,0,177,177,10,1,,,,
,,,,,,4cea6e54f3b0873e2f81a3a2,66a626ef09d4e21e1a8894ec,673772678c1d289156a5d34e,2024-11-15_10h21.26.683,Tarea de género gramatical,2024.2.2,MacIntel,59.52380952,,,,,,,,,,,,,,,,,,,,,,,982.7205,983.7167,a,1,[],[],[],[],[],[],[],0.3172,1,983.7169,984.2167,,,,,,1204,MAS,DIS,150,tiempo,la,l,0.3172,,984.2168,984.217,-0.269622396,-0.108420139,0,0,0,,0,178,178,303,1,,,,
,,,,,,4cea6e54f3b0873e2f81a3a2,66a626ef09d4e21e1a8894ec,673772678c1d289156a5d34e,2024-11-15_10h21.26.683,Tarea de género gramatical,2024.2.2,MacIntel,59.52380952,,,,,,,,,,,,,,,,,,,,,,,984.2184,985.9169,l,1,[],[],[],[],[],[],[],1.018,1,985.917,986.4158,,,,,,956,FEM,AGR,150,bola,la,a,1.018,,986.4158,986.4159,-0.269622396,-0.108420139,0,0,0,,0,179,179,55,1,,,,
,,,,,,4cea6e54f3b0873e2f81a3a2,66a626ef09d4e21e1a8894ec,673772678c1d289156a5d34e,2024-11-15_10h21.26.683,Tarea de género gramatical,2024.2.2,MacIntel,59.52380952,,,,,,,,,,,,,,,,,,,,,,,986.4173,987.5834,l,1,[],[],[],[],[],[],[],0.4842,1,987.5835,988.0835,,,,,,1166,FEM,AGR,150,jaula,la,a,0.4842,,988.0836,988.0837,-0.269622396,-0.108420139,0,0,0,,0,180,180,265,1,,,,
,,,,,,4cea6e54f3b0873e2f81a3a2,66a626ef09d4e21e1a8894ec,673772678c1d289156a5d34e,2024-11-15_10h21.26.683,Tarea de género gramatical,2024.2.2,MacIntel,59.52380952,,,,,,,,,,,,,,,,,,,,,,,988.0852,989.2669,l,1,[],[],[],[],[],[],[],0.5008,1,989.2671,989.7668,,,,,,1285,FEM,DIS,150,muñeca,el,a,0.5008,,989.767,989.7671,-0.269622396,-0.108420139,0,0,0,,0,181,181,384,1,,,,
,,,,,,4cea6e54f3b0873e2f81a3a2,66a626ef09d4e21e1a8894ec,673772678c1d289156a5d34e,2024-11-15_10h21.26.683,Tarea de género gramatical,2024.2.2,MacIntel,59.52380952,,,,,,,,,,,,,,,,,,,,,,,989.7684,991.1668,l,1,[],[],[],[],[],[],[],0.72,1,991.1669,991.6668,,,,,,985,FEM,DIS,150,gira,el,a,0.72,,991.6683,991.6694,-0.269622396,-0.108420139,0,0,0,,0,182,182,84,1,,,,
,,,,,,4cea6e54f3b0873e2f81a3a2,66a626ef09d4e21e1a8894ec,673772678c1d289156a5d34e,2024-11-15_10h21.26.683,Tarea de género gramatical,2024.2.2,MacIntel,59.52380952,,,,,,,,,,,,,,,,,,,,,,,991.6703,992.8334,a,1,[],[],[],[],[],[],[],0.4854,1,992.8336,993.3335,,,,,,1301,MAS,AGR,150,abrigo,el,l,0.4854,,993.3335,993.3338,-0.269622396,-0.108420139,0,0,0,,0,183,183,400,1,,,,
,,,,,,4cea6e54f3b0873e2f81a3a2,66a626ef09d4e21e1a8894ec,673772678c1d289156a5d34e,2024-11-15_10h21.26.683,Tarea de género gramatical,2024.2.2,MacIntel,59.52380952,,,,,,,,,,,,,,,,,,,,,,,993.335,994.6669,l,1,[],[],[],[],[],[],[],0.6508,1,994.667,995.1668,,,,,,991,FEM,DIS,150,hoja,el,a,0.6508,,995.1669,995.1671,-0.269622396,-0.108420139,0,0,0,,0,184,184,90,1,,,,
,,,,,,4cea6e54f3b0873e2f81a3a2,66a626ef09d4e21e1a8894ec,673772678c1d289156a5d34e,2024-11-15_10h21.26.683,Tarea de género gramatical,2024.2.2,MacIntel,59.52380952,,,,,,,,,,,,,,,,,,,,,,,995.1684,996.4002,l,1,[],[],[],[],[],[],[],0.5497,1,996.4003,996.8992,,,,,,1075,FEM,DIS,150,señal,el,a,0.5497,,996.8993,996.8994,-0.269622396,-0.108420139,0,0,0,,0,185,185,174,1,,,,
,,,,,,4cea6e54f3b0873e2f81a3a2,66a626ef09d4e21e1a8894ec,673772678c1d289156a5d34e,2024-11-15_10h21.26.683,Tarea de género gramatical,2024.2.2,MacIntel,59.52380952,,,,,,,,,,,,,,,,,,,,,,,996.9004,997.9336,l,1,[],[],[],[],[],[],[],0.3676,1,997.9336,998.4335,,,,,,1233,FEM,CON,150,locura,,a,0.3676,,998.4346,998.4354,-0.269622396,-0.108420139,0,0,0,,0,186,186,332,1,,,,
,,,,,,4cea6e54f3b0873e2f81a3a2,66a626ef09d4e21e1a8894ec,673772678c1d289156a5d34e,2024-11-15_10h21.26.683,Tarea de género gramatical,2024.2.2,MacIntel,59.52380952,,,,,,,,,,,,,,,,,,,,,,,998.4363,999.4337,l,1,[],[],[],[],[],[],[],0.3171,1,999.4338,999.9337,,,,,,1095,FEM,CON,150,pared,,a,0.3171,,999.9338,999.934,-0.269622396,-0.108420139,0,0,0,,0,187,187,194,1,,,,
,,,,,,4cea6e54f3b0873e2f81a3a2,66a626ef09d4e21e1a8894ec,673772678c1d289156a5d34e,2024-11-15_10h21.26.683,Tarea de género gramatical,2024.2.2,MacIntel,59.52380952,,,,,,,,,,,,,,,,,,,,,,,999.9352,1001.0168,l,1,[],[],[],[],[],[],[],0.402,1,1001.017,1001.5164,,,,,,1207,FEM,DIS,150,suerte,el,a,0.402,,1001.5164,1001.5166,-0.269622396,-0.108420139,0,0,0,,0,188,188,306,1,,,,
,,,,,,4cea6e54f3b0873e2f81a3a2,66a626ef09d4e21e1a8894ec,673772678c1d289156a5d34e,2024-11-15_10h21.26.683,Tarea de género gramatical,2024.2.2,MacIntel,59.52380952,,,,,,,,,,,,,,,,,,,,,,,1001.5179,1002.567,a,1,[],[],[],[],[],[],[],0.3678,1,1002.5671,1003.0669,,,,,,1295,MAS,AGR,150,correo,el,l,0.3678,,1003.067,1003.0672,-0.269622396,-0.108420139,0,0,0,,0,189,189,394,1,,,,
,,,,,,4cea6e54f3b0873e2f81a3a2,66a626ef09d4e21e1a8894ec,673772678c1d289156a5d34e,2024-11-15_10h21.26.683,Tarea de género gramatical,2024.2.2,MacIntel,59.52380952,,,,,,,,,,,,,,,,,,,,,,,1003.0685,1004.1501,a,1,[],[],[],[],[],[],[],0.4005,1,1004.1503,1004.6503,,,,,,1144,MAS,DIS,150,hielo,la,l,0.4005,,1004.6504,1004.6506,-0.269622396,-0.108420139,0,0,0,,0,190,190,243,1,,,,
,,,,,,4cea6e54f3b0873e2f81a3a2,66a626ef09d4e21e1a8894ec,673772678c1d289156a5d34e,2024-11-15_10h21.26.683,Tarea de género gramatical,2024.2.2,MacIntel,59.52380952,,,,,,,,,,,,,,,,,,,,,,,1004.6518,1005.7001,l,1,[],[],[],[],[],[],[],0.3765,1,1005.7002,1006.2003,,,,,,1160,FEM,AGR,150,barra,la,a,0.3765,,1006.2018,1006.2028,-0.269622396,-0.108420139,0,0,0,,0,191,191,259,1,,,,
,,,,,,4cea6e54f3b0873e2f81a3a2,66a626ef09d4e21e1a8894ec,673772678c1d289156a5d34e,2024-11-15_10h21.26.683,Tarea de género gramatical,2024.2.2,MacIntel,59.52380952,,,,,,,,,,,,,,,,,,,,,,,1006.2037,1007.2169,a,1,[],[],[],[],[],[],[],0.3365,1,1007.217,1007.717,,,,,,1331,MAS,AGR,150,veneno,el,l,0.3365,,1007.7172,1007.7173,-0.269622396,-0.108420139,0,0,0,,0,192,192,430,1,,,,
,,,,,,4cea6e54f3b0873e2f81a3a2,66a626ef09d4e21e1a8894ec,673772678c1d289156a5d34e,2024-11-15_10h21.26.683,Tarea de género gramatical,2024.2.2,MacIntel,59.52380952,,,,,,,,,,,,,,,,,,,,,,,1007.7186,1008.8003,l,1,[],[],[],[],[],[],[],0.4029,1,1008.8004,1009.3004,,,,,,908,FEM,AGR,150,idea,la,a,0.4029,,1009.3004,1009.3005,-0.269622396,-0.108420139,0,0,0,,0,193,193,7,1,,,,
,,,,,,4cea6e54f3b0873e2f81a3a2,66a626ef09d4e21e1a8894ec,673772678c1d289156a5d34e,2024-11-15_10h21.26.683,Tarea de género gramatical,2024.2.2,MacIntel,59.52380952,,,,,,,,,,,,,,,,,,,,,,,1009.3019,1010.317,a,1,[],[],[],[],[],[],[],0.3327,1,1010.3172,1010.817,,,,,,1336,MAS,DIS,150,objeto,la,l,0.3327,,1010.8171,1010.8173,-0.269622396,-0.108420139,0,0,0,,0,194,194,435,1,,,,
,,,,,,4cea6e54f3b0873e2f81a3a2,66a626ef09d4e21e1a8894ec,673772678c1d289156a5d34e,2024-11-15_10h21.26.683,Tarea de género gramatical,2024.2.2,MacIntel,59.52380952,,,,,,,,,,,,,,,,,,,,,,,1010.8184,1011.8837,l,1,[],[],[],[],[],[],[],0.3857,1,1011.8839,1012.3826,,,,,,1017,FEM,CON,150,raya,,a,0.3857,,1012.3842,1012.3852,-0.269622396,-0.108420139,0,0,0,,0,195,195,116,1,,,,
,,,,,,4cea6e54f3b0873e2f81a3a2,66a626ef09d4e21e1a8894ec,673772678c1d289156a5d34e,2024-11-15_10h21.26.683,Tarea de género gramatical,2024.2.2,MacIntel,59.52380952,,,,,,,,,,,,,,,,,,,,,,,1012.3861,1013.3992,a,1,[],[],[],[],[],[],[],0.3349,1,1013.3994,1013.8993,,,,,,1098,MAS,CON,150,hotel,,l,0.3349,,1013.8994,1013.8996,-0.269622396,-0.108420139,0,0,0,,0,196,196,197,1,,,,
,,,,,,4cea6e54f3b0873e2f81a3a2,66a626ef09d4e21e1a8894ec,673772678c1d289156a5d34e,2024-11-15_10h21.26.683,Tarea de género gramatical,2024.2.2,MacIntel,59.52380952,,,,,,,,,,,,,,,,,,,,,,,1013.9008,1014.9159,l,1,[],[],[],[],[],[],[],0.3504,1,1014.9161,1015.417,,,,,,1209,FEM,CON,150,esposa,,a,0.3504,,1015.4171,1015.4172,-0.269622396,-0.108420139,0,0,0,,0,197,197,308,1,,,,
,,,,,,4cea6e54f3b0873e2f81a3a2,66a626ef09d4e21e1a8894ec,673772678c1d289156a5d34e,2024-11-15_10h21.26.683,Tarea de género gramatical,2024.2.2,MacIntel,59.52380952,,,,,,,,,,,,,,,,,,,,,,,1015.4185,1016.6504,l,1,[],[],[],[],[],[],[],0.5612,1,1016.6506,1017.1503,,,,,,997,FEM,DIS,150,capa,el,a,0.5612,,1017.1504,1017.1505,-0.269622396,-0.108420139,0,0,0,,0,198,198,96,1,,,,
,,,,,,4cea6e54f3b0873e2f81a3a2,66a626ef09d4e21e1a8894ec,673772678c1d289156a5d34e,2024-11-15_10h21.26.683,Tarea de género gramatical,2024.2.2,MacIntel,59.52380952,,,,,,,,,,,,,,,,,,,,,,,1017.1517,1018.1839,l,1,[],[],[],[],[],[],[],0.3507,1,1018.184,1018.6839,,,,,,1286,FEM,AGR,150,sombra,la,a,0.3507,,1018.684,1018.6842,-0.269622396,-0.108420139,0,0,0,,0,199,199,385,1,,,,
,,,,,,4cea6e54f3b0873e2f81a3a2,66a626ef09d4e21e1a8894ec,673772678c1d289156a5d34e,2024-11-15_10h21.26.683,Tarea de género gramatical,2024.2.2,MacIntel,59.52380952,,,,,,,,,,,,,,,,,,,,,,,1018.6853,1019.7838,a,1,[],[],[],[],[],[],[],0.4177,1,1019.784,1020.2838,,,,,,1318,MAS,DIS,150,pájaro,la,l,0.4177,,1020.285,1020.2858,-0.269622396,-0.108420139,0,0,0,,0,200,200,417,1,,,,
,,,,,,4cea6e54f3b0873e2f81a3a2,66a626ef09d4e21e1a8894ec,673772678c1d289156a5d34e,2024-11-15_10h21.26.683,Tarea de género gramatical,2024.2.2,MacIntel,59.52380952,,,,,,,,,,,,,,,,,,,,,,,1020.2866,1021.3004,l,1,[],[],[],[],[],[],[],0.3334,1,1021.3005,1021.8005,,,,,,1323,FEM,CON,150,poesía,,a,0.3334,,1021.8006,1021.8007,-0.269622396,-0.108420139,0,0,0,,0,201,201,422,1,,,,
,,,,,,4cea6e54f3b0873e2f81a3a2,66a626ef09d4e21e1a8894ec,673772678c1d289156a5d34e,2024-11-15_10h21.26.683,Tarea de género gramatical,2024.2.2,MacIntel,59.52380952,,,,,,,,,,,,,,,,,,,,,,,1021.8018,1022.8339,l,1,[],[],[],[],[],[],[],0.3501,1,1022.834,1023.334,,,,,,961,FEM,DIS,150,ruta,el,a,0.3501,,1023.3341,1023.3342,-0.269622396,-0.108420139,0,0,0,,0,202,202,60,1,,,,
,,,,,,4cea6e54f3b0873e2f81a3a2,66a626ef09d4e21e1a8894ec,673772678c1d289156a5d34e,2024-11-15_10h21.26.683,Tarea de género gramatical,2024.2.2,MacIntel,59.52380952,,,,,,,,,,,,,,,,,,,,,,,1023.3356,1024.2839,l,1,[],[],[],[],[],[],[],0.2679,1,1024.284,1024.7841,,,,,,939,FEM,CON,150,luna,,a,0.2679,,1024.7842,1024.7843,-0.269622396,-0.108420139,0,0,0,,0,203,203,38,1,,,,
,,,,,,4cea6e54f3b0873e2f81a3a2,66a626ef09d4e21e1a8894ec,673772678c1d289156a5d34e,2024-11-15_10h21.26.683,Tarea de género gramatical,2024.2.2,MacIntel,59.52380952,,,,,,,,,,,,,,,,,,,,,,,1024.7857,1025.8673,a,1,[],[],[],[],[],[],[],0.4033,1,1025.8673,1026.3673,,,,,,910,MAS,DIS,150,niño,la,l,0.4033,,1026.3688,1026.3699,-0.269622396,-0.108420139,0,0,0,,0,204,204,9,1,,,,
,,,,,,4cea6e54f3b0873e2f81a3a2,66a626ef09d4e21e1a8894ec,673772678c1d289156a5d34e,2024-11-15_10h21.26.683,Tarea de género gramatical,2024.2.2,MacIntel,59.52380952,,,,,,,,,,,,,,,,,,,,,,,1026.3707,1027.3839,a,1,[],[],[],[],[],[],[],0.3332,1,1027.3841,1027.8829,,,,,,1050,MAS,CON,150,mozo,,l,0.3332,,1027.8829,1027.8831,-0.269622396,-0.108420139,0,0,0,,0,205,205,149,1,,,,
,,,,,,4cea6e54f3b0873e2f81a3a2,66a626ef09d4e21e1a8894ec,673772678c1d289156a5d34e,2024-11-15_10h21.26.683,Tarea de género gramatical,2024.2.2,MacIntel,59.52380952,,,,,,,,,,,,,,,,,,,,,,,1027.8841,1028.8674,l,0,[],[],[],[],[],[],[],0.3202,0,1028.8687,1029.3675,,,,,,1151,MAS,AGR,150,dueño,el,l,0.3202,,1029.3676,1029.3678,-0.269622396,-0.108420139,0,0,0,,0,206,206,250,1,,,,
,,,,,,4cea6e54f3b0873e2f81a3a2,66a626ef09d4e21e1a8894ec,673772678c1d289156a5d34e,2024-11-15_10h21.26.683,Tarea de género gramatical,2024.2.2,MacIntel,59.52380952,,,,,,,,,,,,,,,,,,,,,,,1029.3693,1030.3668,a,0,[],[],[],[],[],[],[],0.3169,0,1030.3669,1030.8674,,,,,,1256,FEM,AGR,150,piedra,la,a,0.3169,,1030.8675,1030.8676,-0.269622396,-0.108420139,0,0,0,,0,207,207,355,1,,,,
,,,,,,4cea6e54f3b0873e2f81a3a2,66a626ef09d4e21e1a8894ec,673772678c1d289156a5d34e,2024-11-15_10h21.26.683,Tarea de género gramatical,2024.2.2,MacIntel,59.52380952,,,,,,,,,,,,,,,,,,,,,,,1030.8686,1032.1507,a,1,[],[],[],[],[],[],[],0.603,1,1032.1515,1032.6496,,,,,,1282,MAS,DIS,150,teatro,la,l,0.603,,1032.6496,1032.6498,-0.269622396,-0.108420139,0,0,0,,0,208,208,381,1,,,,
,,,,,,4cea6e54f3b0873e2f81a3a2,66a626ef09d4e21e1a8894ec,673772678c1d289156a5d34e,2024-11-15_10h21.26.683,Tarea de género gramatical,2024.2.2,MacIntel,59.52380952,,,,,,,,,,,,,,,,,,,,,,,1032.6508,1033.6506,l,1,[],[],[],[],[],[],[],0.3328,1,1033.6508,1034.1507,,,,,,957,FEM,CON,150,moda,,a,0.3328,,1034.1522,1034.1534,-0.269622396,-0.108420139,0,0,0,,0,209,209,56,1,,,,
,,,,,,4cea6e54f3b0873e2f81a3a2,66a626ef09d4e21e1a8894ec,673772678c1d289156a5d34e,2024-11-15_10h21.26.683,Tarea de género gramatical,2024.2.2,MacIntel,59.52380952,,,,,,,,,,,,,,,,,,,,,,,1034.1542,1035.3173,l,1,[],[],[],[],[],[],[],0.4852,1,1035.3175,1035.8173,,,,,,1328,FEM,AGR,150,jugada,la,a,0.4852,,1035.8174,1035.8176,-0.269622396,-0.108420139,0,0,0,,0,210,210,427,1,,,,
,,,,,,4cea6e54f3b0873e2f81a3a2,66a626ef09d4e21e1a8894ec,673772678c1d289156a5d34e,2024-11-15_10h21.26.683,Tarea de género gramatical,2024.2.2,MacIntel,59.52380952,,,,,,,,,,,,,,,,,,,,,,,1035.8186,1036.8836,l,1,[],[],[],[],[],[],[],0.3837,1,1036.8837,1037.3841,,,,,,1047,FEM,CON,150,grúa,,a,0.3837,,1037.3842,1037.3844,-0.269622396,-0.108420139,0,0,0,,0,211,211,146,1,,,,
,,,,,,4cea6e54f3b0873e2f81a3a2,66a626ef09d4e21e1a8894ec,673772678c1d289156a5d34e,2024-11-15_10h21.26.683,Tarea de género gramatical,2024.2.2,MacIntel,59.52380952,,,,,,,,,,,,,,,,,,,,,,,1037.3859,1038.4674,a,1,[],[],[],[],[],[],[],0.4047,1,1038.4675,1038.9664,,,,,,1248,MAS,CON,150,anillo,,l,0.4047,,1038.9665,1038.9665,-0.269622396,-0.108420139,0,0,0,,0,212,212,347,1,,,,
,,,,,,4cea6e54f3b0873e2f81a3a2,66a626ef09d4e21e1a8894ec,673772678c1d289156a5d34e,2024-11-15_10h21.26.683,Tarea de género gramatical,2024.2.2,MacIntel,59.52380952,,,,,,,,,,,,,,,,,,,,,,,1038.9678,1040.0342,a,1,[],[],[],[],[],[],[],0.403,1,1040.0343,1040.5342,,,,,,1181,MAS,AGR,150,actor,el,l,0.403,,1040.5357,1040.5367,-0.269622396,-0.108420139,0,0,0,,0,213,213,280,1,,,,
,,,,,,4cea6e54f3b0873e2f81a3a2,66a626ef09d4e21e1a8894ec,673772678c1d289156a5d34e,2024-11-15_10h21.26.683,Tarea de género gramatical,2024.2.2,MacIntel,59.52380952,,,,,,,,,,,,,,,,,,,,,,,1040.5375,1041.6831,l,1,[],[],[],[],[],[],[],0.4676,1,1041.6832,1042.1841,,,,,,1105,FEM,DIS,150,reina,el,a,0.4676,,1042.1843,1042.1844,-0.269622396,-0.108420139,0,0,0,,0,214,214,204,1,,,,
,,,,,,4cea6e54f3b0873e2f81a3a2,66a626ef09d4e21e1a8894ec,673772678c1d289156a5d34e,2024-11-15_10h21.26.683,Tarea de género gramatical,2024.2.2,MacIntel,59.52380952,,,,,,,,,,,,,,,,,,,,,,,1042.1857,1043.2341,l,1,[],[],[],[],[],[],[],0.3672,1,1043.2343,1043.7341,,,,,,1081,FEM,DIS,150,tarde,el,a,0.3672,,1043.7341,1043.7342,-0.269622396,-0.108420139,0,0,0,,0,215,215,180,1,,,,
,,,,,,4cea6e54f3b0873e2f81a3a2,66a626ef09d4e21e1a8894ec,673772678c1d289156a5d34e,2024-11-15_10h21.26.683,Tarea de género gramatical,2024.2.2,MacIntel,59.52380952,,,,,,,,,,,,,,,,,,,,,,,1043.7356,1044.8339,a,1,[],[],[],[],[],[],[],0.4169,1,1044.8341,1045.3341,,,,,,1290,MAS,CON,150,rostro,,l,0.4169,,1045.3343,1045.3344,-0.269622396,-0.108420139,0,0,0,,0,216,216,389,1,,,,
,,,,,,4cea6e54f3b0873e2f81a3a2,66a626ef09d4e21e1a8894ec,673772678c1d289156a5d34e,2024-11-15_10h21.26.683,Tarea de género gramatical,2024.2.2,MacIntel,59.52380952,,,,,,,,,,,,,,,,,,,,,,,1045.3355,1046.4342,a,1,[],[],[],[],[],[],[],0.419,1,1046.4343,1046.9341,,,,,,1066,MAS,DIS,150,coche,la,l,0.419,,1046.9342,1046.9343,-0.269622396,-0.108420139,0,0,0,,0,217,217,165,1,,,,
,,,,,,4cea6e54f3b0873e2f81a3a2,66a626ef09d4e21e1a8894ec,673772678c1d289156a5d34e,2024-11-15_10h21.26.683,Tarea de género gramatical,2024.2.2,MacIntel,59.52380952,,,,,,,,,,,,,,,,,,,,,,,1046.9354,1048.0009,a,1,[],[],[],[],[],[],[],0.3837,1,1048.001,1048.5007,,,,,,1265,MAS,AGR,150,código,el,l,0.3837,,1048.5021,1048.5029,-0.269622396,-0.108420139,0,0,0,,0,218,218,364,1,,,,
,,,,,,4cea6e54f3b0873e2f81a3a2,66a626ef09d4e21e1a8894ec,673772678c1d289156a5d34e,2024-11-15_10h21.26.683,Tarea de género gramatical,2024.2.2,MacIntel,59.52380952,,,,,,,,,,,,,,,,,,,,,,,1048.5037,1049.4509,a,0,[],[],[],[],[],[],[],0.267,0,1049.4517,1049.9508,,,,,,1178,FEM,AGR,150,presa,la,a,0.267,,1049.9509,1049.951,-0.269622396,-0.108420139,0,0,0,,0,219,219,277,1,,,,
,,,,,,4cea6e54f3b0873e2f81a3a2,66a626ef09d4e21e1a8894ec,673772678c1d289156a5d34e,2024-11-15_10h21.26.683,Tarea de género gramatical,2024.2.2,MacIntel,59.52380952,,,,,,,,,,,,,,,,,,,,,,,1049.9521,1051.0509,a,1,[],[],[],[],[],[],[],0.4169,1,1051.0518,1051.5509,,,,,,1212,MAS,CON,150,equipo,,l,0.4169,,1051.551,1051.5511,-0.269622396,-0.108420139,0,0,0,,0,220,220,311,1,,,,
,,,,,,4cea6e54f3b0873e2f81a3a2,66a626ef09d4e21e1a8894ec,673772678c1d289156a5d34e,2024-11-15_10h21.26.683,Tarea de género gramatical,2024.2.2,MacIntel,59.52380952,,,,,,,,,,,,,,,,,,,,,,,1051.5522,1052.6006,a,1,[],[],[],[],[],[],[],0.3675,1,1052.6007,1053.101,,,,,,1169,MAS,AGR,150,primo,el,l,0.3675,,1053.1011,1053.1013,-0.269622396,-0.108420139,0,0,0,,0,221,221,268,1,,,,
,,,,,,4cea6e54f3b0873e2f81a3a2,66a626ef09d4e21e1a8894ec,673772678c1d289156a5d34e,2024-11-15_10h21.26.683,Tarea de género gramatical,2024.2.2,MacIntel,59.52380952,,,,,,,,,,,,,,,,,,,,,,,1053.1026,1054.1672,a,1,[],[],[],[],[],[],[],0.3833,1,1054.1674,1054.6676,,,,,,982,MAS,DIS,150,tubo,la,l,0.3833,,1054.6688,1054.6699,-0.269622396,-0.108420139,0,0,0,,0,222,222,81,1,,,,
,,,,,,4cea6e54f3b0873e2f81a3a2,66a626ef09d4e21e1a8894ec,673772678c1d289156a5d34e,2024-11-15_10h21.26.683,Tarea de género gramatical,2024.2.2,MacIntel,59.52380952,,,,,,,,,,,,,,,,,,,,,,,1054.6708,1055.7343,l,1,[],[],[],[],[],[],[],0.3831,1,1055.7344,1056.2343,,,,,,1022,FEM,AGR,150,loca,la,a,0.3831,,1056.2344,1056.2346,-0.269622396,-0.108420139,0,0,0,,0,223,223,121,1,,,,
,,,,,,4cea6e54f3b0873e2f81a3a2,66a626ef09d4e21e1a8894ec,673772678c1d289156a5d34e,2024-11-15_10h21.26.683,Tarea de género gramatical,2024.2.2,MacIntel,59.52380952,,,,,,,,,,,,,,,,,,,,,,,1056.2355,1057.2344,a,1,[],[],[],[],[],[],[],0.3173,1,1057.2346,1057.7333,,,,,,1158,MAS,CON,150,polvo,,l,0.3173,,1057.7333,1057.7335,-0.269622396,-0.108420139,0,0,0,,0,224,224,257,1,,,,
,,,,,,4cea6e54f3b0873e2f81a3a2,66a626ef09d4e21e1a8894ec,673772678c1d289156a5d34e,2024-11-15_10h21.26.683,Tarea de género gramatical,2024.2.2,MacIntel,59.52380952,,,,,,,,,,,,,,,,,,,,,,,1057.7346,1058.7511,l,1,[],[],[],[],[],[],[],0.3506,1,1058.7512,1059.2509,,,,,,1333,FEM,DIS,150,huella,el,a,0.3506,,1059.251,1059.251,-0.269622396,-0.108420139,0,0,0,,0,225,225,432,1,,,,
,,,,,,4cea6e54f3b0873e2f81a3a2,66a626ef09d4e21e1a8894ec,673772678c1d289156a5d34e,2024-11-15_10h21.26.683,Tarea de género gramatical,2024.2.2,MacIntel,59.52380952,,,,,,,,,,,,,,,,,,,,,,,1059.2518,1060.2011,a,1,[],[],[],[],[],[],[],0.2765,1,1060.2011,1060.7011,,,,,,1162,MAS,DIS,150,video,la,l,0.2765,,1060.7011,1060.7013,-0.269622396,-0.108420139,0,0,0,,0,226,226,261,1,,,,
,,,,,,4cea6e54f3b0873e2f81a3a2,66a626ef09d4e21e1a8894ec,673772678c1d289156a5d34e,2024-11-15_10h21.26.683,Tarea de género gramatical,2024.2.2,MacIntel,59.52380952,,,,,,,,,,,,,,,,,,,,,,,1060.7027,1061.7177,a,1,[],[],[],[],[],[],[],0.3341,1,1061.7178,1062.2176,,,,,,1168,MAS,DIS,150,truco,la,l,0.3341,,1062.2189,1062.2197,-0.269622396,-0.108420139,0,0,0,,0,227,227,267,1,,,,
,,,,,,4cea6e54f3b0873e2f81a3a2,66a626ef09d4e21e1a8894ec,673772678c1d289156a5d34e,2024-11-15_10h21.26.683,Tarea de género gramatical,2024.2.2,MacIntel,59.52380952,,,,,,,,,,,,,,,,,,,,,,,1062.2206,1063.1844,l,1,[],[],[],[],[],[],[],0.287,1,1063.1845,1063.6845,,,,,,909,FEM,CON,150,mamá,,a,0.287,,1063.6847,1063.6848,-0.269622396,-0.108420139,0,0,0,,0,228,228,8,1,,,,
,,,,,,4cea6e54f3b0873e2f81a3a2,66a626ef09d4e21e1a8894ec,673772678c1d289156a5d34e,2024-11-15_10h21.26.683,Tarea de género gramatical,2024.2.2,MacIntel,59.52380952,,,,,,,,,,,,,,,,,,,,,,,1063.686,1064.6843,a,1,[],[],[],[],[],[],[],0.3274,1,1064.6845,1065.1843,,,,,,1079,MAS,AGR,150,viaje,el,l,0.3274,,1065.1844,1065.1845,-0.269622396,-0.108420139,0,0,0,,0,229,229,178,1,,,,
,,,,,,4cea6e54f3b0873e2f81a3a2,66a626ef09d4e21e1a8894ec,673772678c1d289156a5d34e,2024-11-15_10h21.26.683,Tarea de género gramatical,2024.2.2,MacIntel,59.52380952,,,,,,,,,,,,,,,,,,,,,,,1065.1856,1066.1841,a,0,[],[],[],[],[],[],[],0.3178,0,1066.1846,1066.6844,,,,,,925,FEM,DIS,150,nave,el,a,0.3178,,1066.6846,1066.6848,-0.269622396,-0.108420139,0,0,0,,0,230,230,24,1,,,,
,,,,,,4cea6e54f3b0873e2f81a3a2,66a626ef09d4e21e1a8894ec,673772678c1d289156a5d34e,2024-11-15_10h21.26.683,Tarea de género gramatical,2024.2.2,MacIntel,59.52380952,,,,,,,,,,,,,,,,,,,,,,,1066.6859,1067.7335,a,1,[],[],[],[],[],[],[],0.3672,1,1067.7347,1068.2344,,,,,,948,MAS,CON,150,loco,,l,0.3672,,1068.2357,1068.2366,-0.269622396,-0.108420139,0,0,0,,0,231,231,47,1,,,,
,,,,,,4cea6e54f3b0873e2f81a3a2,66a626ef09d4e21e1a8894ec,673772678c1d289156a5d34e,2024-11-15_10h21.26.683,Tarea de género gramatical,2024.2.2,MacIntel,59.52380952,,,,,,,,,,,,,,,,,,,,,,,1068.2375,1069.3011,l,1,[],[],[],[],[],[],[],0.3946,1,1069.3013,1069.8006,,,,,,1106,FEM,AGR,150,época,la,a,0.3946,,1069.8006,1069.8008,-0.269622396,-0.108420139,0,0,0,,0,232,232,205,1,,,,
,,,,,,4cea6e54f3b0873e2f81a3a2,66a626ef09d4e21e1a8894ec,673772678c1d289156a5d34e,2024-11-15_10h21.26.683,Tarea de género gramatical,2024.2.2,MacIntel,59.52380952,,,,,,,,,,,,,,,,,,,,,,,1069.8021,1071.0341,a,1,[],[],[],[],[],[],[],0.5495,1,1071.0343,1071.5341,,,,,,1266,MAS,CON,150,riesgo,,l,0.5495,,1071.5342,1071.5343,-0.269622396,-0.108420139,0,0,0,,0,233,233,365,1,,,,
,,,,,,4cea6e54f3b0873e2f81a3a2,66a626ef09d4e21e1a8894ec,673772678c1d289156a5d34e,2024-11-15_10h21.26.683,Tarea de género gramatical,2024.2.2,MacIntel,59.52380952,,,,,,,,,,,,,,,,,,,,,,,1071.5355,1072.5668,a,1,[],[],[],[],[],[],[],0.3501,1,1072.5669,1073.0679,,,,,,1102,MAS,DIS,150,honor,la,l,0.3501,,1073.068,1073.0682,-0.269622396,-0.108420139,0,0,0,,0,234,234,201,1,,,,
,,,,,,4cea6e54f3b0873e2f81a3a2,66a626ef09d4e21e1a8894ec,673772678c1d289156a5d34e,2024-11-15_10h21.26.683,Tarea de género gramatical,2024.2.2,MacIntel,59.52380952,,,,,,,,,,,,,,,,,,,,,,,1073.0697,1074.0679,a,1,[],[],[],[],[],[],[],0.3174,1,1074.0682,1074.568,,,,,,1337,MAS,AGR,150,hombro,el,l,0.3174,,1074.5681,1074.5683,-0.269622396,-0.108420139,0,0,0,,0,235,235,436,1,,,,
,,,,,,4cea6e54f3b0873e2f81a3a2,66a626ef09d4e21e1a8894ec,673772678c1d289156a5d34e,2024-11-15_10h21.26.683,Tarea de género gramatical,2024.2.2,MacIntel,59.52380952,,,,,,,,,,,,,,,,,,,,,,,1074.5695,1075.668,a,1,[],[],[],[],[],[],[],0.4177,1,1075.6681,1076.1669,,,,,,1000,MAS,DIS,150,nido,la,l,0.4177,,1076.1686,1076.1697,-0.269622396,-0.108420139,0,0,0,,0,236,236,99,1,,,,
,,,,,,4cea6e54f3b0873e2f81a3a2,66a626ef09d4e21e1a8894ec,673772678c1d289156a5d34e,2024-11-15_10h21.26.683,Tarea de género gramatical,2024.2.2,MacIntel,59.52380952,,,,,,,,,,,,,,,,,,,,,,,1076.1706,1077.118,a,1,[],[],[],[],[],[],[],0.2673,1,1077.1182,1077.6177,,,,,,1313,MAS,AGR,150,diario,el,l,0.2673,,1077.6178,1077.618,-0.269622396,-0.108420139,0,0,0,,0,237,237,412,1,,,,
,,,,,,4cea6e54f3b0873e2f81a3a2,66a626ef09d4e21e1a8894ec,673772678c1d289156a5d34e,2024-11-15_10h21.26.683,Tarea de género gramatical,2024.2.2,MacIntel,59.52380952,,,,,,,,,,,,,,,,,,,,,,,1077.6193,1078.6514,l,1,[],[],[],[],[],[],[],0.3502,1,1078.6514,1079.1512,,,,,,1053,FEM,CON,150,mujer,,a,0.3502,,1079.1512,1079.1513,-0.269622396,-0.108420139,0,0,0,,0,238,238,152,1,,,,
,,,,,,4cea6e54f3b0873e2f81a3a2,66a626ef09d4e21e1a8894ec,673772678c1d289156a5d34e,2024-11-15_10h21.26.683,Tarea de género gramatical,2024.2.2,MacIntel,59.52380952,,,,,,,,,,,,,,,,,,,,,,,1079.1525,1080.1342,a,1,[],[],[],[],[],[],[],0.3019,1,1080.1345,1080.6345,,,,,,912,MAS,CON,150,plan,,l,0.3019,,1080.6346,1080.6348,-0.269622396,-0.108420139,0,0,0,,0,239,239,11,1,,,,
,,,,,,4cea6e54f3b0873e2f81a3a2,66a626ef09d4e21e1a8894ec,673772678c1d289156a5d34e,2024-11-15_10h21.26.683,Tarea de género gramatical,2024.2.2,MacIntel,59.52380952,,,,,,,,,,,,,,,,,,,,,,,1080.6358,1081.6513,a,1,[],[],[],[],[],[],[],0.3341,1,1081.6515,1082.151,,,,,,1140,MAS,CON,150,ruido,,l,0.3341,,1082.1522,1082.153,-0.269622396,-0.108420139,0,0,0,,0,240,240,239,1,,,,
,,,,,,4cea6e54f3b0873e2f81a3a2,66a626ef09d4e21e1a8894ec,673772678c1d289156a5d34e,2024-11-15_10h21.26.683,Tarea de género gramatical,2024.2.2,MacIntel,59.52380952,,,,,,,,,,,,,,,,,,,,,,,1082.1537,1083.4012,l,1,[],[],[],[],[],[],[],0.5767,1,1083.4013,1083.9004,,,,,,1303,FEM,DIS,150,paliza,el,a,0.5767,,1083.9004,1083.9006,-0.269622396,-0.108420139,0,0,0,,0,241,241,402,1,,,,
,,,,,,4cea6e54f3b0873e2f81a3a2,66a626ef09d4e21e1a8894ec,673772678c1d289156a5d34e,2024-11-15_10h21.26.683,Tarea de género gramatical,2024.2.2,MacIntel,59.52380952,,,,,,,,,,,,,,,,,,,,,,,1083.902,1085.0846,l,1,[],[],[],[],[],[],[],0.5,1,1085.0848,1085.5844,,,,,,1129,FEM,DIS,150,celda,el,a,0.5,,1085.5844,1085.5847,-0.269622396,-0.108420139,0,0,0,,0,242,242,228,1,,,,
,,,,,,4cea6e54f3b0873e2f81a3a2,66a626ef09d4e21e1a8894ec,673772678c1d289156a5d34e,2024-11-15_10h21.26.683,Tarea de género gramatical,2024.2.2,MacIntel,59.52380952,,,,,,,,,,,,,,,,,,,,,,,1085.5859,1086.6514,l,1,[],[],[],[],[],[],[],0.3878,1,1086.6516,1087.1514,,,,,,1173,FEM,CON,150,tarta,,a,0.3878,,1087.1514,1087.1517,-0.269622396,-0.108420139,0,0,0,,0,243,243,272,1,,,,
,,,,,,4cea6e54f3b0873e2f81a3a2,66a626ef09d4e21e1a8894ec,673772678c1d289156a5d34e,2024-11-15_10h21.26.683,Tarea de género gramatical,2024.2.2,MacIntel,59.52380952,,,,,,,,,,,,,,,,,,,,,,,1087.153,1088.3014,a,1,[],[],[],[],[],[],[],0.4777,1,1088.3015,1088.8005,,,,,,1024,MAS,DIS,150,clan,la,l,0.4777,,1088.8005,1088.8007,-0.269622396,-0.108420139,0,0,0,,0,244,244,123,1,,,,
,,,,,,4cea6e54f3b0873e2f81a3a2,66a626ef09d4e21e1a8894ec,673772678c1d289156a5d34e,2024-11-15_10h21.26.683,Tarea de género gramatical,2024.2.2,MacIntel,59.52380952,,,,,,,,,,,,,,,,,,,,,,,1088.8021,1089.7681,l,0,[],[],[],[],[],[],[],0.2859,0,1089.7691,1090.2679,,,,,,1306,MAS,DIS,150,premio,la,l,0.2859,,1090.2691,1090.27,-0.269622396,-0.108420139,0,0,0,,0,245,245,405,1,,,,
,,,,,,4cea6e54f3b0873e2f81a3a2,66a626ef09d4e21e1a8894ec,673772678c1d289156a5d34e,2024-11-15_10h21.26.683,Tarea de género gramatical,2024.2.2,MacIntel,59.52380952,,,,,,,,,,,,,,,,,,,,,,,1090.2709,1091.3346,l,1,[],[],[],[],[],[],[],0.3843,1,1091.3357,1091.8338,,,,,,1172,FEM,AGR,150,oreja,la,a,0.3843,,1091.8339,1091.834,-0.269622396,-0.108420139,0,0,0,,0,246,246,271,1,,,,
,,,,,,4cea6e54f3b0873e2f81a3a2,66a626ef09d4e21e1a8894ec,673772678c1d289156a5d34e,2024-11-15_10h21.26.683,Tarea de género gramatical,2024.2.2,MacIntel,59.52380952,,,,,,,,,,,,,,,,,,,,,,,1091.8349,1092.9176,l,1,[],[],[],[],[],[],[],0.4155,1,1092.9179,1093.4178,,,,,,921,FEM,CON,150,boca,,a,0.4155,,1093.418,1093.4182,-0.269622396,-0.108420139,0,0,0,,0,247,247,20,1,,,,
