counterbalancing_condition,consent_prescreening.block_1/declare_consent,consent_prescreening.block_1/age_years,consent_prescreening.block_1/gender,consent_prescreening.block_1/language_disorder,consent_prescreening.block_1/first_language,PROLIFIC_PID,STUDY_ID,SESSION_ID,date,expName,psychopyVersion,OS,frameRate,check_prescreening_answers.started,check_prescreening_answers.stopped,Instructions.started,Instructions.stopped,instr_done_keyboard.keys,instr_done_keyboard.rt,instr_done_keyboard.duration,instr_done_touch.x,instr_done_touch.y,instr_done_touch.leftButton,instr_done_touch.midButton,instr_done_touch.rightButton,instruction_pages.thisRepN,instruction_pages.thisTrialN,instruction_pages.thisN,instruction_pages.thisIndex,instruction_pages.ran,pageN,phase,instruct_text,has_image,instruct_image,presentTrial.started,presentTrial.stopped,response.keys,response.corr,touch_resp.x,touch_resp.y,touch_resp.leftButton,touch_resp.midButton,touch_resp.rightButton,touch_resp.time,touch_resp.clicked_name,rt,corr,feedback.started,feedback.stopped,practice_trials.thisRepN,practice_trials.thisTrialN,practice_trials.thisN,practice_trials.thisIndex,practice_trials.ran,TrialID,StimulusType,Condition,PrimeDuration,Prime,Flanker,corrAns,response.rt,response.duration,Break.started,Break.stopped,break_done_touch.x,break_done_touch.y,break_done_touch.leftButton,break_done_touch.midButton,break_done_touch.rightButton,break_done_keyboard.keys,experiment_trials.thisRepN,experiment_trials.thisTrialN,experiment_trials.thisN,experiment_trials.thisIndex,experiment_trials.ran,break_done_keyboard.rt,break_done_keyboard.duration,End.started,End.stopped
0,"[""over_18"",""comfortable"",""read_info"",""consent_given""]",45,F,"[""none""]","[""spanish""]",4e44e4e60beae01c984b3acf,66a626ef09d4e21e1a8894ec,6735ed13b4cf8e3c051ddcae,2024-11-14_13h35.23.509,Tarea de género gramatical,2024.2.2,Win32,59.52380952,,,,,,,,,,,,,,,,,,,,,,,,,,,,,,,,,,,,,,,,,,,,,,,,,,,,,,,,,,,,,,,,,,,,
,,,,,,4e44e4e60beae01c984b3acf,66a626ef09d4e21e1a8894ec,6735ed13b4cf8e3c051ddcae,2024-11-14_13h35.23.509,Tarea de género gramatical,2024.2.2,Win32,59.52380952,34.1512,34.1516,,,,,,,,,,,,,,,,,,,,,,,,,,,,,,,,,,,,,,,,,,,,,,,,,,,,,,,,,,,,,,,,,,
,,,,,,4e44e4e60beae01c984b3acf,66a626ef09d4e21e1a8894ec,6735ed13b4cf8e3c051ddcae,2024-11-14_13h35.23.509,Tarea de género gramatical,2024.2.2,Win32,59.52380952,,,34.1673,48.2652,space,14.0733,,-0.318359375,0.008789063,0,0,0,0,0,0,0,1,1,instructions,"INSTRUCCIONES
Va a realizar una prueba de selección gramatical. Desde el comienzo de la prueba mire siempre al centro de la pantalla. Al cabo de un momento, aparecerán palabras. La tarea consiste en determinar si la palabra del centro (siempre será un sustantivo), pertenece al género masculino o femenino.

Pulse la tecla ESPACIO o toque el botón de abajo para continuar.",0,keyboardresponseMF.png,,,,,,,,,,,,,,,,,,,,,,,,,,,,,,,,,,,,,,,,,,,,,,
,,,,,,4e44e4e60beae01c984b3acf,66a626ef09d4e21e1a8894ec,6735ed13b4cf8e3c051ddcae,2024-11-14_13h35.23.509,Tarea de género gramatical,2024.2.2,Win32,59.52380952,,,48.2745,76.1665,space,27.8309,,-0.318359375,0.008789063,0,0,0,0,1,1,1,1,2,instructions,"Si su dispositivo tiene teclado, pulse la tecla ""A"" para las palabras en masculino (por ejemplo: ""arroz"") y la tecla ""L"" para las palabras en femenino (por ejemplo: ""mano"").
Pulse la tecla ESPACIO o toque el botón de abajo para continuar.",1,keyboardresponseMF.png,,,,,,,,,,,,,,,,,,,,,,,,,,,,,,,,,,,,,,,,,,,,,,
,,,,,,4e44e4e60beae01c984b3acf,66a626ef09d4e21e1a8894ec,6735ed13b4cf8e3c051ddcae,2024-11-14_13h35.23.509,Tarea de género gramatical,2024.2.2,Win32,59.52380952,,,76.1717,83.4879,space,7.2664,,-0.318359375,0.008789063,0,0,0,0,2,2,2,1,3,instructions,"Si utiliza un dispositivo sólo táctil, colóquelo en horizontal y utilice los botones de la pantalla. No utilice el ratón.
Pulse la tecla ESPACIO o toque el botón de abajo para continuar.",2,touchresponseMF.png,,,,,,,,,,,,,,,,,,,,,,,,,,,,,,,,,,,,,,,,,,,,,,
,,,,,,4e44e4e60beae01c984b3acf,66a626ef09d4e21e1a8894ec,6735ed13b4cf8e3c051ddcae,2024-11-14_13h35.23.509,Tarea de género gramatical,2024.2.2,Win32,59.52380952,,,83.4941,94.5118,space,11.0019,,-0.318359375,0.008789063,0,0,0,0,3,3,3,1,4,instructions,"Es muy importante que responda con la mayor rapidez y precisión posibles, ya que cada cadena de letras sólo estará en pantalla durante un instante. Si no responde en ese tiempo, aparecerá el mensaje ""Muy lento"" y el experimento pasará a la siguiente palabra. Los primeros 15 intentos serán de práctica y habrá dos descansos durante la prueba.
Pulse la tecla ESPACIO o toque el botón de abajo para iniciar la parte de práctica.",0,keyboardresponseMF.png,,,,,,,,,,,,,,,,,,,,,,,,,,,,,,,,,,,,,,,,,,,,,,
,,,,,,4e44e4e60beae01c984b3acf,66a626ef09d4e21e1a8894ec,6735ed13b4cf8e3c051ddcae,2024-11-14_13h35.23.509,Tarea de género gramatical,2024.2.2,Win32,59.52380952,,,,,,,,,,,,,,,,,,,,,,,94.5425,97.1808,,0,[],[],[],[],[],[],[],,-1,97.1815,97.6808,0,0,0,6,1,2007,FEM,AGR,150,navaja,la,a,,,,,,,,,,,,,,,,,,,
,,,,,,4e44e4e60beae01c984b3acf,66a626ef09d4e21e1a8894ec,6735ed13b4cf8e3c051ddcae,2024-11-14_13h35.23.509,Tarea de género gramatical,2024.2.2,Win32,59.52380952,,,,,,,,,,,,,,,,,,,,,,,97.6842,99.4651,a,1,[],[],[],[],[],[],[],1.1014,1,99.4824,99.9653,0,1,1,10,1,2011,MAS,CON,150,canal,,l,1.1014,,,,,,,,,,,,,,,,,,
,,,,,,4e44e4e60beae01c984b3acf,66a626ef09d4e21e1a8894ec,6735ed13b4cf8e3c051ddcae,2024-11-14_13h35.23.509,Tarea de género gramatical,2024.2.2,Win32,59.52380952,,,,,,,,,,,,,,,,,,,,,,,99.9689,101.7661,l,1,[],[],[],[],[],[],[],1.1252,1,101.7663,102.2669,0,2,2,3,1,2004,FEM,AGR,150,venta,la,a,1.1252,,,,,,,,,,,,,,,,,,
,,,,,,4e44e4e60beae01c984b3acf,66a626ef09d4e21e1a8894ec,6735ed13b4cf8e3c051ddcae,2024-11-14_13h35.23.509,Tarea de género gramatical,2024.2.2,Win32,59.52380952,,,,,,,,,,,,,,,,,,,,,,,102.2703,103.868,a,1,[],[],[],[],[],[],[],0.9218,1,103.8682,104.3683,0,3,3,9,1,2010,MAS,AGR,150,vecino,el,l,0.9218,,,,,,,,,,,,,,,,,,
,,,,,,4e44e4e60beae01c984b3acf,66a626ef09d4e21e1a8894ec,6735ed13b4cf8e3c051ddcae,2024-11-14_13h35.23.509,Tarea de género gramatical,2024.2.2,Win32,59.52380952,,,,,,,,,,,,,,,,,,,,,,,104.3713,106.0861,a,1,[],[],[],[],[],[],[],1.0443,1,106.0863,106.5866,0,4,4,12,1,2013,MAS,AGR,150,acero,el,l,1.0443,,,,,,,,,,,,,,,,,,
,,,,,,4e44e4e60beae01c984b3acf,66a626ef09d4e21e1a8894ec,6735ed13b4cf8e3c051ddcae,2024-11-14_13h35.23.509,Tarea de género gramatical,2024.2.2,Win32,59.52380952,,,,,,,,,,,,,,,,,,,,,,,106.59,107.9207,l,0,[],[],[],[],[],[],[],0.6564,0,107.9234,108.4211,0,5,5,8,1,2009,MAS,DIS,150,puerto,la,l,0.6564,,,,,,,,,,,,,,,,,,
,,,,,,4e44e4e60beae01c984b3acf,66a626ef09d4e21e1a8894ec,6735ed13b4cf8e3c051ddcae,2024-11-14_13h35.23.509,Tarea de género gramatical,2024.2.2,Win32,59.52380952,,,,,,,,,,,,,,,,,,,,,,,108.4241,109.9889,a,1,[],[],[],[],[],[],[],0.8944,1,109.9902,110.4892,0,6,6,14,1,2015,MAS,DIS,150,robot,la,l,0.8944,,,,,,,,,,,,,,,,,,
,,,,,,4e44e4e60beae01c984b3acf,66a626ef09d4e21e1a8894ec,6735ed13b4cf8e3c051ddcae,2024-11-14_13h35.23.509,Tarea de género gramatical,2024.2.2,Win32,59.52380952,,,,,,,,,,,,,,,,,,,,,,,110.4919,112.6071,a,0,[],[],[],[],[],[],[],1.4378,0,112.6085,113.107,0,7,7,7,1,2008,FEM,CON,150,siesta,,a,1.4378,,,,,,,,,,,,,,,,,,
,,,,,,4e44e4e60beae01c984b3acf,66a626ef09d4e21e1a8894ec,6735ed13b4cf8e3c051ddcae,2024-11-14_13h35.23.509,Tarea de género gramatical,2024.2.2,Win32,59.52380952,,,,,,,,,,,,,,,,,,,,,,,113.108,114.7586,l,0,[],[],[],[],[],[],[],0.9849,0,114.7587,115.2585,0,8,8,11,1,2012,MAS,DIS,150,clima,la,l,0.9849,,,,,,,,,,,,,,,,,,
,,,,,,4e44e4e60beae01c984b3acf,66a626ef09d4e21e1a8894ec,6735ed13b4cf8e3c051ddcae,2024-11-14_13h35.23.509,Tarea de género gramatical,2024.2.2,Win32,59.52380952,,,,,,,,,,,,,,,,,,,,,,,115.2591,116.7432,l,1,[],[],[],[],[],[],[],0.8263,1,116.7445,117.2431,0,9,9,0,1,2001,FEM,AGR,150,nuca,la,a,0.8263,,,,,,,,,,,,,,,,,,
,,,,,,4e44e4e60beae01c984b3acf,66a626ef09d4e21e1a8894ec,6735ed13b4cf8e3c051ddcae,2024-11-14_13h35.23.509,Tarea de género gramatical,2024.2.2,Win32,59.52380952,,,,,,,,,,,,,,,,,,,,,,,117.2436,118.4111,l,1,[],[],[],[],[],[],[],0.5012,1,118.4112,118.9114,0,10,10,1,1,2002,FEM,CON,150,pala,,a,0.5012,,,,,,,,,,,,,,,,,,
,,,,,,4e44e4e60beae01c984b3acf,66a626ef09d4e21e1a8894ec,6735ed13b4cf8e3c051ddcae,2024-11-14_13h35.23.509,Tarea de género gramatical,2024.2.2,Win32,59.52380952,,,,,,,,,,,,,,,,,,,,,,,118.9143,120.3122,a,1,[],[],[],[],[],[],[],0.7175,1,120.3124,120.8124,0,11,11,13,1,2014,MAS,CON,150,siglo,,l,0.7175,,,,,,,,,,,,,,,,,,
,,,,,,4e44e4e60beae01c984b3acf,66a626ef09d4e21e1a8894ec,6735ed13b4cf8e3c051ddcae,2024-11-14_13h35.23.509,Tarea de género gramatical,2024.2.2,Win32,59.52380952,,,,,,,,,,,,,,,,,,,,,,,120.8148,122.0965,l,1,[],[],[],[],[],[],[],0.6241,1,122.0966,122.5972,0,12,12,2,1,2003,FEM,DIS,150,daga,el,a,0.6241,,,,,,,,,,,,,,,,,,
,,,,,,4e44e4e60beae01c984b3acf,66a626ef09d4e21e1a8894ec,6735ed13b4cf8e3c051ddcae,2024-11-14_13h35.23.509,Tarea de género gramatical,2024.2.2,Win32,59.52380952,,,,,,,,,,,,,,,,,,,,,,,122.5989,124.1649,l,1,[],[],[],[],[],[],[],0.8956,1,124.165,124.6653,0,13,13,5,1,2006,FEM,DIS,150,serie,el,a,0.8956,,,,,,,,,,,,,,,,,,
,,,,,,4e44e4e60beae01c984b3acf,66a626ef09d4e21e1a8894ec,6735ed13b4cf8e3c051ddcae,2024-11-14_13h35.23.509,Tarea de género gramatical,2024.2.2,Win32,59.52380952,,,,,,,,,,,,,,,,,,,,,,,124.6671,125.7827,l,1,[],[],[],[],[],[],[],0.4421,1,125.7828,126.2829,0,14,14,4,1,2005,FEM,CON,150,placa,,a,0.4421,,,,,,,,,,,,,,,,,,
,,,,,,4e44e4e60beae01c984b3acf,66a626ef09d4e21e1a8894ec,6735ed13b4cf8e3c051ddcae,2024-11-14_13h35.23.509,Tarea de género gramatical,2024.2.2,Win32,59.52380952,,,131.0616,137.6074,space,6.5245,,-0.318359375,0.008789063,0,0,0,,,,,,,,,,,137.659,139.5587,l,1,[],[],[],[],[],[],[],1.2186,1,139.5591,140.0589,,,,,,291,FEM,DIS,150,aguja,el,a,1.2186,,140.0595,140.0697,-0.318359375,0.008789063,0,0,0,,0,0,0,290,1,,,,
,,,,,,4e44e4e60beae01c984b3acf,66a626ef09d4e21e1a8894ec,6735ed13b4cf8e3c051ddcae,2024-11-14_13h35.23.509,Tarea de género gramatical,2024.2.2,Win32,59.52380952,,,,,,,,,,,,,,,,,,,,,,,140.0718,141.4765,l,1,[],[],[],[],[],[],[],0.7376,1,141.4767,141.9768,,,,,,152,FEM,CON,150,gente,,a,0.7376,,141.9769,141.9772,-0.318359375,0.008789063,0,0,0,,0,1,1,151,1,,,,
,,,,,,4e44e4e60beae01c984b3acf,66a626ef09d4e21e1a8894ec,6735ed13b4cf8e3c051ddcae,2024-11-14_13h35.23.509,Tarea de género gramatical,2024.2.2,Win32,59.52380952,,,,,,,,,,,,,,,,,,,,,,,141.9791,143.1276,a,1,[],[],[],[],[],[],[],0.476,1,143.1278,143.6279,,,,,,22,MAS,AGR,150,pelo,el,l,0.476,,143.6313,143.6329,-0.318359375,0.008789063,0,0,0,,0,2,2,21,1,,,,
,,,,,,4e44e4e60beae01c984b3acf,66a626ef09d4e21e1a8894ec,6735ed13b4cf8e3c051ddcae,2024-11-14_13h35.23.509,Tarea de género gramatical,2024.2.2,Win32,59.52380952,,,,,,,,,,,,,,,,,,,,,,,143.6343,144.8117,a,1,[],[],[],[],[],[],[],0.5116,1,144.8118,145.3125,,,,,,5,MAS,CON,150,tipo,,l,0.5116,,145.3126,145.3128,-0.318359375,0.008789063,0,0,0,,0,3,3,4,1,,,,
,,,,,,4e44e4e60beae01c984b3acf,66a626ef09d4e21e1a8894ec,6735ed13b4cf8e3c051ddcae,2024-11-14_13h35.23.509,Tarea de género gramatical,2024.2.2,Win32,59.52380952,,,,,,,,,,,,,,,,,,,,,,,145.315,146.4128,l,1,[],[],[],[],[],[],[],0.4262,1,146.4128,146.9131,,,,,,213,FEM,DIS,150,magia,el,a,0.4262,,146.9132,146.9133,-0.318359375,0.008789063,0,0,0,,0,4,4,212,1,,,,
,,,,,,4e44e4e60beae01c984b3acf,66a626ef09d4e21e1a8894ec,6735ed13b4cf8e3c051ddcae,2024-11-14_13h35.23.509,Tarea de género gramatical,2024.2.2,Win32,59.52380952,,,,,,,,,,,,,,,,,,,,,,,146.9149,147.9806,a,1,[],[],[],[],[],[],[],0.4018,1,147.9806,148.4808,,,,,,300,MAS,DIS,150,túnel,la,l,0.4018,,148.4808,148.481,-0.318359375,0.008789063,0,0,0,,0,5,5,299,1,,,,
,,,,,,4e44e4e60beae01c984b3acf,66a626ef09d4e21e1a8894ec,6735ed13b4cf8e3c051ddcae,2024-11-14_13h35.23.509,Tarea de género gramatical,2024.2.2,Win32,59.52380952,,,,,,,,,,,,,,,,,,,,,,,148.4816,149.5149,l,1,[],[],[],[],[],[],[],0.3701,1,149.5149,150.0153,,,,,,267,FEM,DIS,150,barba,el,a,0.3701,,150.0169,150.0182,-0.318359375,0.008789063,0,0,0,,0,6,6,266,1,,,,
,,,,,,4e44e4e60beae01c984b3acf,66a626ef09d4e21e1a8894ec,6735ed13b4cf8e3c051ddcae,2024-11-14_13h35.23.509,Tarea de género gramatical,2024.2.2,Win32,59.52380952,,,,,,,,,,,,,,,,,,,,,,,150.0189,151.233,a,1,[],[],[],[],[],[],[],0.5364,1,151.2331,151.7334,,,,,,299,MAS,CON,150,rumbo,,l,0.5364,,151.7335,151.7337,-0.318359375,0.008789063,0,0,0,,0,7,7,298,1,,,,
,,,,,,4e44e4e60beae01c984b3acf,66a626ef09d4e21e1a8894ec,6735ed13b4cf8e3c051ddcae,2024-11-14_13h35.23.509,Tarea de género gramatical,2024.2.2,Win32,59.52380952,,,,,,,,,,,,,,,,,,,,,,,151.7369,153.0342,a,1,[],[],[],[],[],[],[],0.6247,1,153.0343,153.5345,,,,,,432,MAS,DIS,150,océano,la,l,0.6247,,153.5347,153.5349,-0.318359375,0.008789063,0,0,0,,0,8,8,431,1,,,,
,,,,,,4e44e4e60beae01c984b3acf,66a626ef09d4e21e1a8894ec,6735ed13b4cf8e3c051ddcae,2024-11-14_13h35.23.509,Tarea de género gramatical,2024.2.2,Win32,59.52380952,,,,,,,,,,,,,,,,,,,,,,,153.5376,154.652,l,1,[],[],[],[],[],[],[],0.4377,1,154.6523,155.1524,,,,,,302,FEM,CON,150,cabeza,,a,0.4377,,155.1525,155.1527,-0.318359375,0.008789063,0,0,0,,0,9,9,301,1,,,,
,,,,,,4e44e4e60beae01c984b3acf,66a626ef09d4e21e1a8894ec,6735ed13b4cf8e3c051ddcae,2024-11-14_13h35.23.509,Tarea de género gramatical,2024.2.2,Win32,59.52380952,,,,,,,,,,,,,,,,,,,,,,,155.1557,156.3861,a,1,[],[],[],[],[],[],[],0.5507,1,156.3862,156.8865,,,,,,16,MAS,AGR,150,baño,el,l,0.5507,,156.8865,156.8866,-0.318359375,0.008789063,0,0,0,,0,10,10,15,1,,,,
,,,,,,4e44e4e60beae01c984b3acf,66a626ef09d4e21e1a8894ec,6735ed13b4cf8e3c051ddcae,2024-11-14_13h35.23.509,Tarea de género gramatical,2024.2.2,Win32,59.52380952,,,,,,,,,,,,,,,,,,,,,,,156.8883,158.0376,l,1,[],[],[],[],[],[],[],0.4781,1,158.0378,158.5379,,,,,,399,FEM,DIS,150,charla,el,a,0.4781,,158.5411,158.5418,-0.318359375,0.008789063,0,0,0,,0,11,11,398,1,,,,
,,,,,,4e44e4e60beae01c984b3acf,66a626ef09d4e21e1a8894ec,6735ed13b4cf8e3c051ddcae,2024-11-14_13h35.23.509,Tarea de género gramatical,2024.2.2,Win32,59.52380952,,,,,,,,,,,,,,,,,,,,,,,158.5423,159.6721,l,1,[],[],[],[],[],[],[],0.4574,1,159.6723,160.1724,,,,,,193,FEM,AGR,150,bolsa,la,a,0.4574,,160.1724,160.1726,-0.318359375,0.008789063,0,0,0,,0,12,12,192,1,,,,
,,,,,,4e44e4e60beae01c984b3acf,66a626ef09d4e21e1a8894ec,6735ed13b4cf8e3c051ddcae,2024-11-14_13h35.23.509,Tarea de género gramatical,2024.2.2,Win32,59.52380952,,,,,,,,,,,,,,,,,,,,,,,160.175,161.2063,l,1,[],[],[],[],[],[],[],0.3536,1,161.2066,161.7067,,,,,,181,FEM,AGR,150,tarde,la,a,0.3536,,161.7068,161.707,-0.318359375,0.008789063,0,0,0,,0,13,13,180,1,,,,
,,,,,,4e44e4e60beae01c984b3acf,66a626ef09d4e21e1a8894ec,6735ed13b4cf8e3c051ddcae,2024-11-14_13h35.23.509,Tarea de género gramatical,2024.2.2,Win32,59.52380952,,,,,,,,,,,,,,,,,,,,,,,161.7087,162.8575,l,1,[],[],[],[],[],[],[],0.4742,1,162.8576,163.3578,,,,,,38,FEM,CON,150,obra,,a,0.4742,,163.358,163.3581,-0.318359375,0.008789063,0,0,0,,0,14,14,37,1,,,,
,,,,,,4e44e4e60beae01c984b3acf,66a626ef09d4e21e1a8894ec,6735ed13b4cf8e3c051ddcae,2024-11-14_13h35.23.509,Tarea de género gramatical,2024.2.2,Win32,59.52380952,,,,,,,,,,,,,,,,,,,,,,,163.36,164.4418,l,1,[],[],[],[],[],[],[],0.4029,1,164.442,164.9422,,,,,,379,FEM,AGR,150,granja,la,a,0.4029,,164.9456,164.9471,-0.318359375,0.008789063,0,0,0,,0,15,15,378,1,,,,
,,,,,,4e44e4e60beae01c984b3acf,66a626ef09d4e21e1a8894ec,6735ed13b4cf8e3c051ddcae,2024-11-14_13h35.23.509,Tarea de género gramatical,2024.2.2,Win32,59.52380952,,,,,,,,,,,,,,,,,,,,,,,164.9487,165.9595,l,1,[],[],[],[],[],[],[],0.3426,1,165.9597,166.4595,,,,,,403,FEM,AGR,150,paliza,la,a,0.3426,,166.4595,166.4596,-0.318359375,0.008789063,0,0,0,,0,16,16,402,1,,,,
,,,,,,4e44e4e60beae01c984b3acf,66a626ef09d4e21e1a8894ec,6735ed13b4cf8e3c051ddcae,2024-11-14_13h35.23.509,Tarea de género gramatical,2024.2.2,Win32,59.52380952,,,,,,,,,,,,,,,,,,,,,,,166.4601,167.4938,a,1,[],[],[],[],[],[],[],0.3756,1,167.4939,167.9943,,,,,,304,MAS,AGR,150,tiempo,el,l,0.3756,,167.9944,167.9947,-0.318359375,0.008789063,0,0,0,,0,17,17,303,1,,,,
,,,,,,4e44e4e60beae01c984b3acf,66a626ef09d4e21e1a8894ec,6735ed13b4cf8e3c051ddcae,2024-11-14_13h35.23.509,Tarea de género gramatical,2024.2.2,Win32,59.52380952,,,,,,,,,,,,,,,,,,,,,,,167.9966,169.0617,a,1,[],[],[],[],[],[],[],0.3947,1,169.0618,169.5621,,,,,,220,MAS,AGR,150,huevo,el,l,0.3947,,169.5622,169.5624,-0.318359375,0.008789063,0,0,0,,0,18,18,219,1,,,,
,,,,,,4e44e4e60beae01c984b3acf,66a626ef09d4e21e1a8894ec,6735ed13b4cf8e3c051ddcae,2024-11-14_13h35.23.509,Tarea de género gramatical,2024.2.2,Win32,59.52380952,,,,,,,,,,,,,,,,,,,,,,,169.5643,170.729,l,0,[],[],[],[],[],[],[],0.4902,0,170.7296,171.2298,,,,,,372,MAS,DIS,150,delito,la,l,0.4902,,171.2299,171.23,-0.318359375,0.008789063,0,0,0,,0,19,19,371,1,,,,
,,,,,,4e44e4e60beae01c984b3acf,66a626ef09d4e21e1a8894ec,6735ed13b4cf8e3c051ddcae,2024-11-14_13h35.23.509,Tarea de género gramatical,2024.2.2,Win32,59.52380952,,,,,,,,,,,,,,,,,,,,,,,171.233,173.2812,a,0,[],[],[],[],[],[],[],1.3684,0,173.2814,173.781,,,,,,63,FEM,DIS,150,fila,el,a,1.3684,,173.7819,173.7832,-0.318359375,0.008789063,0,0,0,,0,20,20,62,1,,,,
,,,,,,4e44e4e60beae01c984b3acf,66a626ef09d4e21e1a8894ec,6735ed13b4cf8e3c051ddcae,2024-11-14_13h35.23.509,Tarea de género gramatical,2024.2.2,Win32,59.52380952,,,,,,,,,,,,,,,,,,,,,,,173.7838,174.9822,a,1,[],[],[],[],[],[],[],0.5205,1,174.9836,175.4823,,,,,,28,MAS,AGR,150,club,el,l,0.5205,,175.4823,175.4823,-0.318359375,0.008789063,0,0,0,,0,21,21,27,1,,,,
,,,,,,4e44e4e60beae01c984b3acf,66a626ef09d4e21e1a8894ec,6735ed13b4cf8e3c051ddcae,2024-11-14_13h35.23.509,Tarea de género gramatical,2024.2.2,Win32,59.52380952,,,,,,,,,,,,,,,,,,,,,,,175.4829,176.7835,a,1,[],[],[],[],[],[],[],0.6411,1,176.7836,177.2838,,,,,,53,MAS,CON,150,vaso,,l,0.6411,,177.2839,177.284,-0.318359375,0.008789063,0,0,0,,0,22,22,52,1,,,,
,,,,,,4e44e4e60beae01c984b3acf,66a626ef09d4e21e1a8894ec,6735ed13b4cf8e3c051ddcae,2024-11-14_13h35.23.509,Tarea de género gramatical,2024.2.2,Win32,59.52380952,,,,,,,,,,,,,,,,,,,,,,,177.2859,178.468,l,1,[],[],[],[],[],[],[],0.5015,1,178.4681,178.9683,,,,,,435,FEM,DIS,150,niebla,el,a,0.5015,,178.9685,178.9685,-0.318359375,0.008789063,0,0,0,,0,23,23,434,1,,,,
,,,,,,4e44e4e60beae01c984b3acf,66a626ef09d4e21e1a8894ec,6735ed13b4cf8e3c051ddcae,2024-11-14_13h35.23.509,Tarea de género gramatical,2024.2.2,Win32,59.52380952,,,,,,,,,,,,,,,,,,,,,,,178.9706,180.1357,a,1,[],[],[],[],[],[],[],0.4911,1,180.1359,180.6362,,,,,,238,MAS,AGR,150,norte,el,l,0.4911,,180.6396,180.6411,-0.318359375,0.008789063,0,0,0,,0,24,24,237,1,,,,
,,,,,,4e44e4e60beae01c984b3acf,66a626ef09d4e21e1a8894ec,6735ed13b4cf8e3c051ddcae,2024-11-14_13h35.23.509,Tarea de género gramatical,2024.2.2,Win32,59.52380952,,,,,,,,,,,,,,,,,,,,,,,180.6427,182.0703,a,1,[],[],[],[],[],[],[],0.7513,1,182.0705,182.5703,,,,,,125,MAS,CON,150,bate,,l,0.7513,,182.5703,182.5703,-0.318359375,0.008789063,0,0,0,,0,25,25,124,1,,,,
,,,,,,4e44e4e60beae01c984b3acf,66a626ef09d4e21e1a8894ec,6735ed13b4cf8e3c051ddcae,2024-11-14_13h35.23.509,Tarea de género gramatical,2024.2.2,Win32,59.52380952,,,,,,,,,,,,,,,,,,,,,,,182.5709,183.6381,a,1,[],[],[],[],[],[],[],0.4021,1,183.6382,184.1384,,,,,,311,MAS,CON,150,camino,,l,0.4021,,184.1385,184.1387,-0.318359375,0.008789063,0,0,0,,0,26,26,310,1,,,,
,,,,,,4e44e4e60beae01c984b3acf,66a626ef09d4e21e1a8894ec,6735ed13b4cf8e3c051ddcae,2024-11-14_13h35.23.509,Tarea de género gramatical,2024.2.2,Win32,59.52380952,,,,,,,,,,,,,,,,,,,,,,,184.1405,185.2559,l,1,[],[],[],[],[],[],[],0.4366,1,185.256,185.7561,,,,,,116,FEM,CON,150,nube,,a,0.4366,,185.7562,185.7563,-0.318359375,0.008789063,0,0,0,,0,27,27,115,1,,,,
,,,,,,4e44e4e60beae01c984b3acf,66a626ef09d4e21e1a8894ec,6735ed13b4cf8e3c051ddcae,2024-11-14_13h35.23.509,Tarea de género gramatical,2024.2.2,Win32,59.52380952,,,,,,,,,,,,,,,,,,,,,,,185.7592,186.8736,l,1,[],[],[],[],[],[],[],0.4348,1,186.8737,187.3739,,,,,,127,FEM,AGR,150,cuna,la,a,0.4348,,187.374,187.3741,-0.318359375,0.008789063,0,0,0,,0,28,28,126,1,,,,
,,,,,,4e44e4e60beae01c984b3acf,66a626ef09d4e21e1a8894ec,6735ed13b4cf8e3c051ddcae,2024-11-14_13h35.23.509,Tarea de género gramatical,2024.2.2,Win32,59.52380952,,,,,,,,,,,,,,,,,,,,,,,187.3761,188.4746,a,1,[],[],[],[],[],[],[],0.423,1,188.4748,188.9745,,,,,,282,MAS,DIS,150,bolso,la,l,0.423,,188.9753,188.9763,-0.318359375,0.008789063,0,0,0,,0,29,29,281,1,,,,
,,,,,,4e44e4e60beae01c984b3acf,66a626ef09d4e21e1a8894ec,6735ed13b4cf8e3c051ddcae,2024-11-14_13h35.23.509,Tarea de género gramatical,2024.2.2,Win32,59.52380952,,,,,,,,,,,,,,,,,,,,,,,188.9771,190.2922,l,1,[],[],[],[],[],[],[],0.6453,1,190.2923,190.7925,,,,,,177,FEM,DIS,150,broma,el,a,0.6453,,190.7925,190.7926,-0.318359375,0.008789063,0,0,0,,0,30,30,176,1,,,,
,,,,,,4e44e4e60beae01c984b3acf,66a626ef09d4e21e1a8894ec,6735ed13b4cf8e3c051ddcae,2024-11-14_13h35.23.509,Tarea de género gramatical,2024.2.2,Win32,59.52380952,,,,,,,,,,,,,,,,,,,,,,,190.7942,192.0606,a,1,[],[],[],[],[],[],[],0.5974,1,192.0607,192.5607,,,,,,72,MAS,DIS,150,hoyo,la,l,0.5974,,192.5608,192.5609,-0.318359375,0.008789063,0,0,0,,0,31,31,71,1,,,,
,,,,,,4e44e4e60beae01c984b3acf,66a626ef09d4e21e1a8894ec,6735ed13b4cf8e3c051ddcae,2024-11-14_13h35.23.509,Tarea de género gramatical,2024.2.2,Win32,59.52380952,,,,,,,,,,,,,,,,,,,,,,,192.5627,193.5446,l,1,[],[],[],[],[],[],[],0.3079,1,193.5447,194.0446,,,,,,230,FEM,CON,150,regla,,a,0.3079,,194.0446,194.0447,-0.318359375,0.008789063,0,0,0,,0,32,32,229,1,,,,
,,,,,,4e44e4e60beae01c984b3acf,66a626ef09d4e21e1a8894ec,6735ed13b4cf8e3c051ddcae,2024-11-14_13h35.23.509,Tarea de género gramatical,2024.2.2,Win32,59.52380952,,,,,,,,,,,,,,,,,,,,,,,194.0454,195.1788,a,1,[],[],[],[],[],[],[],0.472,1,195.1789,195.6792,,,,,,185,MAS,CON,150,sueño,,l,0.472,,195.6803,195.6823,-0.318359375,0.008789063,0,0,0,,0,33,33,184,1,,,,
,,,,,,4e44e4e60beae01c984b3acf,66a626ef09d4e21e1a8894ec,6735ed13b4cf8e3c051ddcae,2024-11-14_13h35.23.509,Tarea de género gramatical,2024.2.2,Win32,59.52380952,,,,,,,,,,,,,,,,,,,,,,,195.6828,197.2468,a,1,[],[],[],[],[],[],[],0.8911,1,197.2469,197.7476,,,,,,288,MAS,DIS,150,grado,la,l,0.8911,,197.7477,197.7478,-0.318359375,0.008789063,0,0,0,,0,34,34,287,1,,,,
,,,,,,4e44e4e60beae01c984b3acf,66a626ef09d4e21e1a8894ec,6735ed13b4cf8e3c051ddcae,2024-11-14_13h35.23.509,Tarea de género gramatical,2024.2.2,Win32,59.52380952,,,,,,,,,,,,,,,,,,,,,,,197.7496,198.8482,l,1,[],[],[],[],[],[],[],0.4195,1,198.8484,199.3483,,,,,,43,FEM,AGR,150,nena,la,a,0.4195,,199.3483,199.3484,-0.318359375,0.008789063,0,0,0,,0,35,35,42,1,,,,
,,,,,,4e44e4e60beae01c984b3acf,66a626ef09d4e21e1a8894ec,6735ed13b4cf8e3c051ddcae,2024-11-14_13h35.23.509,Tarea de género gramatical,2024.2.2,Win32,59.52380952,,,,,,,,,,,,,,,,,,,,,,,199.3494,200.3992,a,1,[],[],[],[],[],[],[],0.3909,1,200.3993,200.8996,,,,,,252,MAS,DIS,150,viejo,la,l,0.3909,,200.8998,200.8999,-0.318359375,0.008789063,0,0,0,,0,36,36,251,1,,,,
,,,,,,4e44e4e60beae01c984b3acf,66a626ef09d4e21e1a8894ec,6735ed13b4cf8e3c051ddcae,2024-11-14_13h35.23.509,Tarea de género gramatical,2024.2.2,Win32,59.52380952,,,,,,,,,,,,,,,,,,,,,,,200.903,202.0171,l,1,[],[],[],[],[],[],[],0.4423,1,202.0173,202.5173,,,,,,423,FEM,DIS,150,poesía,el,a,0.4423,,202.5173,202.5175,-0.318359375,0.008789063,0,0,0,,0,37,37,422,1,,,,
,,,,,,4e44e4e60beae01c984b3acf,66a626ef09d4e21e1a8894ec,6735ed13b4cf8e3c051ddcae,2024-11-14_13h35.23.509,Tarea de género gramatical,2024.2.2,Win32,59.52380952,,,,,,,,,,,,,,,,,,,,,,,202.5192,203.6014,l,1,[],[],[],[],[],[],[],0.4096,1,203.6016,204.1017,,,,,,242,FEM,CON,150,pizza,,a,0.4096,,204.1053,204.1069,-0.318359375,0.008789063,0,0,0,,0,38,38,241,1,,,,
,,,,,,4e44e4e60beae01c984b3acf,66a626ef09d4e21e1a8894ec,6735ed13b4cf8e3c051ddcae,2024-11-14_13h35.23.509,Tarea de género gramatical,2024.2.2,Win32,59.52380952,,,,,,,,,,,,,,,,,,,,,,,204.1083,205.2359,a,1,[],[],[],[],[],[],[],0.4558,1,205.236,205.7362,,,,,,24,MAS,DIS,150,voto,la,l,0.4558,,205.7363,205.7365,-0.318359375,0.008789063,0,0,0,,0,39,39,23,1,,,,
,,,,,,4e44e4e60beae01c984b3acf,66a626ef09d4e21e1a8894ec,6735ed13b4cf8e3c051ddcae,2024-11-14_13h35.23.509,Tarea de género gramatical,2024.2.2,Win32,59.52380952,,,,,,,,,,,,,,,,,,,,,,,205.7384,206.7869,a,1,[],[],[],[],[],[],[],0.3667,1,206.7871,207.2873,,,,,,120,MAS,DIS,150,puño,la,l,0.3667,,207.2874,207.2875,-0.318359375,0.008789063,0,0,0,,0,40,40,119,1,,,,
,,,,,,4e44e4e60beae01c984b3acf,66a626ef09d4e21e1a8894ec,6735ed13b4cf8e3c051ddcae,2024-11-14_13h35.23.509,Tarea de género gramatical,2024.2.2,Win32,59.52380952,,,,,,,,,,,,,,,,,,,,,,,207.2892,208.3713,l,1,[],[],[],[],[],[],[],0.4016,1,208.3715,208.8716,,,,,,104,FEM,CON,150,vela,,a,0.4016,,208.8717,208.8719,-0.318359375,0.008789063,0,0,0,,0,41,41,103,1,,,,
,,,,,,4e44e4e60beae01c984b3acf,66a626ef09d4e21e1a8894ec,6735ed13b4cf8e3c051ddcae,2024-11-14_13h35.23.509,Tarea de género gramatical,2024.2.2,Win32,59.52380952,,,,,,,,,,,,,,,,,,,,,,,208.8736,210.2389,l,1,[],[],[],[],[],[],[],0.6922,1,210.2389,210.7396,,,,,,86,FEM,CON,150,cruz,,a,0.6922,,210.7421,210.7439,-0.318359375,0.008789063,0,0,0,,0,42,42,85,1,,,,
,,,,,,4e44e4e60beae01c984b3acf,66a626ef09d4e21e1a8894ec,6735ed13b4cf8e3c051ddcae,2024-11-14_13h35.23.509,Tarea de género gramatical,2024.2.2,Win32,59.52380952,,,,,,,,,,,,,,,,,,,,,,,210.7455,211.9737,l,1,[],[],[],[],[],[],[],0.5613,1,211.9739,212.4741,,,,,,151,FEM,AGR,150,noche,la,a,0.5613,,212.4742,212.4743,-0.318359375,0.008789063,0,0,0,,0,43,43,150,1,,,,
,,,,,,4e44e4e60beae01c984b3acf,66a626ef09d4e21e1a8894ec,6735ed13b4cf8e3c051ddcae,2024-11-14_13h35.23.509,Tarea de género gramatical,2024.2.2,Win32,59.52380952,,,,,,,,,,,,,,,,,,,,,,,212.4763,213.4581,l,1,[],[],[],[],[],[],[],0.2997,1,213.4582,213.9583,,,,,,194,FEM,CON,150,banda,,a,0.2997,,213.9584,213.9585,-0.318359375,0.008789063,0,0,0,,0,44,44,193,1,,,,
,,,,,,4e44e4e60beae01c984b3acf,66a626ef09d4e21e1a8894ec,6735ed13b4cf8e3c051ddcae,2024-11-14_13h35.23.509,Tarea de género gramatical,2024.2.2,Win32,59.52380952,,,,,,,,,,,,,,,,,,,,,,,213.9603,215.2593,l,1,[],[],[],[],[],[],[],0.6196,1,215.2594,215.7596,,,,,,123,FEM,DIS,150,tela,el,a,0.6196,,215.7597,215.7599,-0.318359375,0.008789063,0,0,0,,0,45,45,122,1,,,,
,,,,,,4e44e4e60beae01c984b3acf,66a626ef09d4e21e1a8894ec,6735ed13b4cf8e3c051ddcae,2024-11-14_13h35.23.509,Tarea de género gramatical,2024.2.2,Win32,59.52380952,,,,,,,,,,,,,,,,,,,,,,,215.7617,216.9101,a,1,[],[],[],[],[],[],[],0.4688,1,216.9101,217.4104,,,,,,371,MAS,CON,150,sonido,,l,0.4688,,217.4105,217.4105,-0.318359375,0.008789063,0,0,0,,0,46,46,370,1,,,,
,,,,,,4e44e4e60beae01c984b3acf,66a626ef09d4e21e1a8894ec,6735ed13b4cf8e3c051ddcae,2024-11-14_13h35.23.509,Tarea de género gramatical,2024.2.2,Win32,59.52380952,,,,,,,,,,,,,,,,,,,,,,,217.4112,218.4777,a,1,[],[],[],[],[],[],[],0.4093,1,218.4778,218.9783,,,,,,191,MAS,CON,150,dolor,,l,0.4093,,218.9801,218.9819,-0.318359375,0.008789063,0,0,0,,0,47,47,190,1,,,,
,,,,,,4e44e4e60beae01c984b3acf,66a626ef09d4e21e1a8894ec,6735ed13b4cf8e3c051ddcae,2024-11-14_13h35.23.509,Tarea de género gramatical,2024.2.2,Win32,59.52380952,,,,,,,,,,,,,,,,,,,,,,,218.9828,220.0292,a,1,[],[],[],[],[],[],[],0.3706,1,220.0294,220.5295,,,,,,154,MAS,AGR,150,padre,el,l,0.3706,,220.5296,220.5298,-0.318359375,0.008789063,0,0,0,,0,48,48,153,1,,,,
,,,,,,4e44e4e60beae01c984b3acf,66a626ef09d4e21e1a8894ec,6735ed13b4cf8e3c051ddcae,2024-11-14_13h35.23.509,Tarea de género gramatical,2024.2.2,Win32,59.52380952,,,,,,,,,,,,,,,,,,,,,,,220.5319,221.8136,a,1,[],[],[],[],[],[],[],0.6024,1,221.8138,222.314,,,,,,48,MAS,DIS,150,loco,la,l,0.6024,,222.3141,222.3143,-0.318359375,0.008789063,0,0,0,,0,49,49,47,1,,,,
,,,,,,4e44e4e60beae01c984b3acf,66a626ef09d4e21e1a8894ec,6735ed13b4cf8e3c051ddcae,2024-11-14_13h35.23.509,Tarea de género gramatical,2024.2.2,Win32,59.52380952,,,,,,,,,,,,,,,,,,,,,,,222.3158,223.4143,a,0,[],[],[],[],[],[],[],0.4246,0,223.4149,223.9151,,,,,,236,FEM,CON,150,deuda,,a,0.4246,,223.9151,223.9154,-0.318359375,0.008789063,0,0,0,,0,50,50,235,1,,,,
,,,,,,4e44e4e60beae01c984b3acf,66a626ef09d4e21e1a8894ec,6735ed13b4cf8e3c051ddcae,2024-11-14_13h35.23.509,Tarea de género gramatical,2024.2.2,Win32,59.52380952,,,,,,,,,,,,,,,,,,,,,,,223.9172,225.0158,l,1,[],[],[],[],[],[],[],0.426,1,225.017,225.5161,,,,,,129,FEM,DIS,150,rana,el,a,0.426,,225.5185,225.5203,-0.318359375,0.008789063,0,0,0,,0,51,51,128,1,,,,
,,,,,,4e44e4e60beae01c984b3acf,66a626ef09d4e21e1a8894ec,6735ed13b4cf8e3c051ddcae,2024-11-14_13h35.23.509,Tarea de género gramatical,2024.2.2,Win32,59.52380952,,,,,,,,,,,,,,,,,,,,,,,225.5219,226.5668,a,1,[],[],[],[],[],[],[],0.3751,1,226.567,227.0671,,,,,,60,MAS,DIS,150,tono,la,l,0.3751,,227.0673,227.0674,-0.318359375,0.008789063,0,0,0,,0,52,52,59,1,,,,
,,,,,,4e44e4e60beae01c984b3acf,66a626ef09d4e21e1a8894ec,6735ed13b4cf8e3c051ddcae,2024-11-14_13h35.23.509,Tarea de género gramatical,2024.2.2,Win32,59.52380952,,,,,,,,,,,,,,,,,,,,,,,227.069,228.268,a,1,[],[],[],[],[],[],[],0.5181,1,228.2682,228.7684,,,,,,29,MAS,CON,150,frío,,l,0.5181,,228.7685,228.7686,-0.318359375,0.008789063,0,0,0,,0,53,53,28,1,,,,
,,,,,,4e44e4e60beae01c984b3acf,66a626ef09d4e21e1a8894ec,6735ed13b4cf8e3c051ddcae,2024-11-14_13h35.23.509,Tarea de género gramatical,2024.2.2,Win32,59.52380952,,,,,,,,,,,,,,,,,,,,,,,228.7705,229.8858,a,1,[],[],[],[],[],[],[],0.4457,1,229.886,230.386,,,,,,346,MAS,AGR,150,juicio,el,l,0.4457,,230.386,230.3863,-0.318359375,0.008789063,0,0,0,,0,54,54,345,1,,,,
,,,,,,4e44e4e60beae01c984b3acf,66a626ef09d4e21e1a8894ec,6735ed13b4cf8e3c051ddcae,2024-11-14_13h35.23.509,Tarea de género gramatical,2024.2.2,Win32,59.52380952,,,,,,,,,,,,,,,,,,,,,,,230.3884,231.9372,a,1,[],[],[],[],[],[],[],0.8709,1,231.9373,232.4374,,,,,,138,MAS,DIS,150,luto,la,l,0.8709,,232.4376,232.4377,-0.318359375,0.008789063,0,0,0,,0,55,55,137,1,,,,
,,,,,,4e44e4e60beae01c984b3acf,66a626ef09d4e21e1a8894ec,6735ed13b4cf8e3c051ddcae,2024-11-14_13h35.23.509,Tarea de género gramatical,2024.2.2,Win32,59.52380952,,,,,,,,,,,,,,,,,,,,,,,232.4395,233.5711,l,1,[],[],[],[],[],[],[],0.4546,1,233.5711,234.0719,,,,,,79,FEM,AGR,150,mina,la,a,0.4546,,234.0744,234.0761,-0.318359375,0.008789063,0,0,0,,0,56,56,78,1,,,,
,,,,,,4e44e4e60beae01c984b3acf,66a626ef09d4e21e1a8894ec,6735ed13b4cf8e3c051ddcae,2024-11-14_13h35.23.509,Tarea de género gramatical,2024.2.2,Win32,59.52380952,,,,,,,,,,,,,,,,,,,,,,,234.0776,235.1892,l,1,[],[],[],[],[],[],[],0.4375,1,235.1894,235.6896,,,,,,212,FEM,CON,150,cinta,,a,0.4375,,235.6897,235.6899,-0.318359375,0.008789063,0,0,0,,0,57,57,211,1,,,,
,,,,,,4e44e4e60beae01c984b3acf,66a626ef09d4e21e1a8894ec,6735ed13b4cf8e3c051ddcae,2024-11-14_13h35.23.509,Tarea de género gramatical,2024.2.2,Win32,59.52380952,,,,,,,,,,,,,,,,,,,,,,,235.6916,237.0572,a,1,[],[],[],[],[],[],[],0.6912,1,237.0574,237.5574,,,,,,322,MAS,AGR,150,minuto,el,l,0.6912,,237.5575,237.5577,-0.318359375,0.008789063,0,0,0,,0,58,58,321,1,,,,
,,,,,,4e44e4e60beae01c984b3acf,66a626ef09d4e21e1a8894ec,6735ed13b4cf8e3c051ddcae,2024-11-14_13h35.23.509,Tarea de género gramatical,2024.2.2,Win32,59.52380952,,,,,,,,,,,,,,,,,,,,,,,237.5595,238.6245,l,1,[],[],[],[],[],[],[],0.3904,1,238.6247,239.1253,,,,,,327,FEM,DIS,150,tienda,el,a,0.3904,,239.1253,239.1255,-0.318359375,0.008789063,0,0,0,,0,59,59,326,1,,,,
,,,,,,4e44e4e60beae01c984b3acf,66a626ef09d4e21e1a8894ec,6735ed13b4cf8e3c051ddcae,2024-11-14_13h35.23.509,Tarea de género gramatical,2024.2.2,Win32,59.52380952,,,,,,,,,,,,,,,,,,,,,,,239.1277,240.226,a,1,[],[],[],[],[],[],[],0.4195,1,240.2262,240.7263,,,,,,101,MAS,CON,150,giro,,l,0.4195,,240.7287,240.7306,-0.318359375,0.008789063,0,0,0,,0,60,60,100,1,,,,
,,,,,,4e44e4e60beae01c984b3acf,66a626ef09d4e21e1a8894ec,6735ed13b4cf8e3c051ddcae,2024-11-14_13h35.23.509,Tarea de género gramatical,2024.2.2,Win32,59.52380952,,,,,,,,,,,,,,,,,,,,,,,240.7316,241.8605,l,1,[],[],[],[],[],[],[],0.4514,1,241.8606,242.3608,,,,,,44,FEM,CON,150,zona,,a,0.4514,,242.3609,242.361,-0.318359375,0.008789063,0,0,0,,0,61,61,43,1,,,,
,,,,,,4e44e4e60beae01c984b3acf,66a626ef09d4e21e1a8894ec,6735ed13b4cf8e3c051ddcae,2024-11-14_13h35.23.509,Tarea de género gramatical,2024.2.2,Win32,59.52380952,,,,,,,,,,,,,,,,,,,,,,,242.3642,243.6947,a,1,[],[],[],[],[],[],[],0.6516,1,243.6947,244.195,,,,,,426,MAS,DIS,150,pánico,la,l,0.6516,,244.195,244.1951,-0.318359375,0.008789063,0,0,0,,0,62,62,425,1,,,,
,,,,,,4e44e4e60beae01c984b3acf,66a626ef09d4e21e1a8894ec,6735ed13b4cf8e3c051ddcae,2024-11-14_13h35.23.509,Tarea de género gramatical,2024.2.2,Win32,59.52380952,,,,,,,,,,,,,,,,,,,,,,,244.1959,245.3958,l,1,[],[],[],[],[],[],[],0.5441,1,245.3958,245.8962,,,,,,278,FEM,CON,150,presa,,a,0.5441,,245.8962,245.8963,-0.318359375,0.008789063,0,0,0,,0,63,63,277,1,,,,
,,,,,,4e44e4e60beae01c984b3acf,66a626ef09d4e21e1a8894ec,6735ed13b4cf8e3c051ddcae,2024-11-14_13h35.23.509,Tarea de género gramatical,2024.2.2,Win32,59.52380952,,,,,,,,,,,,,,,,,,,,,,,245.897,247.2473,a,1,[],[],[],[],[],[],[],0.6839,1,247.2475,247.7474,,,,,,149,MAS,CON,150,nudo,,l,0.6839,,247.7474,247.7475,-0.318359375,0.008789063,0,0,0,,0,64,64,148,1,,,,
,,,,,,4e44e4e60beae01c984b3acf,66a626ef09d4e21e1a8894ec,6735ed13b4cf8e3c051ddcae,2024-11-14_13h35.23.509,Tarea de género gramatical,2024.2.2,Win32,59.52380952,,,,,,,,,,,,,,,,,,,,,,,247.7481,248.7481,a,1,[],[],[],[],[],[],[],0.3446,1,248.7481,249.2487,,,,,,71,MAS,CON,150,pozo,,l,0.3446,,249.2513,249.2531,-0.318359375,0.008789063,0,0,0,,0,65,65,70,1,,,,
,,,,,,4e44e4e60beae01c984b3acf,66a626ef09d4e21e1a8894ec,6735ed13b4cf8e3c051ddcae,2024-11-14_13h35.23.509,Tarea de género gramatical,2024.2.2,Win32,59.52380952,,,,,,,,,,,,,,,,,,,,,,,249.2546,250.4161,l,1,[],[],[],[],[],[],[],0.4931,1,250.4163,250.9165,,,,,,393,FEM,DIS,150,alarma,el,a,0.4931,,250.9167,250.9168,-0.318359375,0.008789063,0,0,0,,0,66,66,392,1,,,,
,,,,,,4e44e4e60beae01c984b3acf,66a626ef09d4e21e1a8894ec,6735ed13b4cf8e3c051ddcae,2024-11-14_13h35.23.509,Tarea de género gramatical,2024.2.2,Win32,59.52380952,,,,,,,,,,,,,,,,,,,,,,,250.9187,251.9839,l,1,[],[],[],[],[],[],[],0.3839,1,251.984,252.4842,,,,,,385,FEM,AGR,150,muñeca,la,a,0.3839,,252.4843,252.4844,-0.318359375,0.008789063,0,0,0,,0,67,67,384,1,,,,
,,,,,,4e44e4e60beae01c984b3acf,66a626ef09d4e21e1a8894ec,6735ed13b4cf8e3c051ddcae,2024-11-14_13h35.23.509,Tarea de género gramatical,2024.2.2,Win32,59.52380952,,,,,,,,,,,,,,,,,,,,,,,252.4863,253.5682,a,1,[],[],[],[],[],[],[],0.4087,1,253.5684,254.0686,,,,,,334,MAS,AGR,150,ataque,el,l,0.4087,,254.0686,254.0688,-0.318359375,0.008789063,0,0,0,,0,68,68,333,1,,,,
,,,,,,4e44e4e60beae01c984b3acf,66a626ef09d4e21e1a8894ec,6735ed13b4cf8e3c051ddcae,2024-11-14_13h35.23.509,Tarea de género gramatical,2024.2.2,Win32,59.52380952,,,,,,,,,,,,,,,,,,,,,,,254.0706,255.1026,l,1,[],[],[],[],[],[],[],0.3526,1,255.1028,255.6029,,,,,,205,FEM,AGR,150,reina,la,a,0.3526,,255.6062,255.6078,-0.318359375,0.008789063,0,0,0,,0,69,69,204,1,,,,
,,,,,,4e44e4e60beae01c984b3acf,66a626ef09d4e21e1a8894ec,6735ed13b4cf8e3c051ddcae,2024-11-14_13h35.23.509,Tarea de género gramatical,2024.2.2,Win32,59.52380952,,,,,,,,,,,,,,,,,,,,,,,255.6092,256.7871,a,1,[],[],[],[],[],[],[],0.5015,1,256.7873,257.2873,,,,,,64,MAS,AGR,150,saco,el,l,0.5015,,257.2875,257.2876,-0.318359375,0.008789063,0,0,0,,0,70,70,63,1,,,,
,,,,,,4e44e4e60beae01c984b3acf,66a626ef09d4e21e1a8894ec,6735ed13b4cf8e3c051ddcae,2024-11-14_13h35.23.509,Tarea de género gramatical,2024.2.2,Win32,59.52380952,,,,,,,,,,,,,,,,,,,,,,,257.2894,258.4211,a,1,[],[],[],[],[],[],[],0.4511,1,258.4212,258.9215,,,,,,420,MAS,DIS,150,helado,la,l,0.4511,,258.9215,258.9216,-0.318359375,0.008789063,0,0,0,,0,71,71,419,1,,,,
,,,,,,4e44e4e60beae01c984b3acf,66a626ef09d4e21e1a8894ec,6735ed13b4cf8e3c051ddcae,2024-11-14_13h35.23.509,Tarea de género gramatical,2024.2.2,Win32,59.52380952,,,,,,,,,,,,,,,,,,,,,,,258.9222,260.106,a,1,[],[],[],[],[],[],[],0.518,1,260.1061,260.6064,,,,,,286,MAS,AGR,150,reino,el,l,0.518,,260.6064,260.6066,-0.318359375,0.008789063,0,0,0,,0,72,72,285,1,,,,
,,,,,,4e44e4e60beae01c984b3acf,66a626ef09d4e21e1a8894ec,6735ed13b4cf8e3c051ddcae,2024-11-14_13h35.23.509,Tarea de género gramatical,2024.2.2,Win32,59.52380952,,,,,,,,,,,,,,,,,,,,,,,260.6084,262.0235,l,1,[],[],[],[],[],[],[],0.7422,1,262.0236,262.524,,,,,,237,FEM,DIS,150,ducha,el,a,0.7422,,262.524,262.5241,-0.318359375,0.008789063,0,0,0,,0,73,73,236,1,,,,
,,,,,,4e44e4e60beae01c984b3acf,66a626ef09d4e21e1a8894ec,6735ed13b4cf8e3c051ddcae,2024-11-14_13h35.23.509,Tarea de género gramatical,2024.2.2,Win32,59.52380952,,,,,,,,,,,,,,,,,,,,,,,262.5251,263.675,a,1,[],[],[],[],[],[],[],0.471,1,263.6752,264.1753,,,,,,88,MAS,AGR,150,pavo,el,l,0.471,,264.1778,264.1796,-0.318359375,0.008789063,0,0,0,,0,74,74,87,1,,,,
,,,,,,4e44e4e60beae01c984b3acf,66a626ef09d4e21e1a8894ec,6735ed13b4cf8e3c051ddcae,2024-11-14_13h35.23.509,Tarea de género gramatical,2024.2.2,Win32,59.52380952,,,,,,,,,,,,,,,,,,,,,,,264.1819,265.477,a,1,[],[],[],[],[],[],[],0.6166,1,265.4771,265.9765,,,,,,402,MAS,DIS,150,ladrón,la,l,0.6166,,265.9766,265.9769,-0.318359375,0.008789063,0,0,0,,0,75,75,401,1,,,,
,,,,,,4e44e4e60beae01c984b3acf,66a626ef09d4e21e1a8894ec,6735ed13b4cf8e3c051ddcae,2024-11-14_13h35.23.509,Tarea de género gramatical,2024.2.2,Win32,59.52380952,,,,,,,,,,,,,,,,,,,,,,,265.9788,267.0436,a,1,[],[],[],[],[],[],[],0.3957,1,267.0437,267.5443,,,,,,84,MAS,DIS,150,mago,la,l,0.3957,,267.5444,267.5445,-0.318359375,0.008789063,0,0,0,,0,76,76,83,1,,,,
,,,,,,4e44e4e60beae01c984b3acf,66a626ef09d4e21e1a8894ec,6735ed13b4cf8e3c051ddcae,2024-11-14_13h35.23.509,Tarea de género gramatical,2024.2.2,Win32,59.52380952,,,,,,,,,,,,,,,,,,,,,,,267.5462,268.5617,l,1,[],[],[],[],[],[],[],0.3405,1,268.562,269.0616,,,,,,266,FEM,CON,150,jaula,,a,0.3405,,269.0617,269.0617,-0.318359375,0.008789063,0,0,0,,0,77,77,265,1,,,,
,,,,,,4e44e4e60beae01c984b3acf,66a626ef09d4e21e1a8894ec,6735ed13b4cf8e3c051ddcae,2024-11-14_13h35.23.509,Tarea de género gramatical,2024.2.2,Win32,59.52380952,,,,,,,,,,,,,,,,,,,,,,,269.0623,270.096,l,1,[],[],[],[],[],[],[],0.3743,1,270.0963,270.5965,,,,,,32,FEM,CON,150,caja,,a,0.3743,,270.599,270.6007,-0.318359375,0.008789063,0,0,0,,0,78,78,31,1,,,,
,,,,,,4e44e4e60beae01c984b3acf,66a626ef09d4e21e1a8894ec,6735ed13b4cf8e3c051ddcae,2024-11-14_13h35.23.509,Tarea de género gramatical,2024.2.2,Win32,59.52380952,,,,,,,,,,,,,,,,,,,,,,,270.6021,271.6471,l,1,[],[],[],[],[],[],[],0.375,1,271.6472,272.1474,,,,,,404,FEM,CON,150,gloria,,a,0.375,,272.1475,272.1477,-0.318359375,0.008789063,0,0,0,,0,79,79,403,1,,,,
,,,,,,4e44e4e60beae01c984b3acf,66a626ef09d4e21e1a8894ec,6735ed13b4cf8e3c051ddcae,2024-11-14_13h35.23.509,Tarea de género gramatical,2024.2.2,Win32,59.52380952,,,,,,,,,,,,,,,,,,,,,,,272.15,273.2148,a,1,[],[],[],[],[],[],[],0.3947,1,273.2149,273.7151,,,,,,364,MAS,AGR,150,viento,el,l,0.3947,,273.7152,273.7155,-0.318359375,0.008789063,0,0,0,,0,80,80,363,1,,,,
,,,,,,4e44e4e60beae01c984b3acf,66a626ef09d4e21e1a8894ec,6735ed13b4cf8e3c051ddcae,2024-11-14_13h35.23.509,Tarea de género gramatical,2024.2.2,Win32,59.52380952,,,,,,,,,,,,,,,,,,,,,,,273.7179,274.7157,a,1,[],[],[],[],[],[],[],0.3218,1,274.7159,275.2156,,,,,,329,MAS,CON,150,futuro,,l,0.3218,,275.2156,275.2158,-0.318359375,0.008789063,0,0,0,,0,81,81,328,1,,,,
,,,,,,4e44e4e60beae01c984b3acf,66a626ef09d4e21e1a8894ec,6735ed13b4cf8e3c051ddcae,2024-11-14_13h35.23.509,Tarea de género gramatical,2024.2.2,Win32,59.52380952,,,,,,,,,,,,,,,,,,,,,,,275.2164,276.2835,a,1,[],[],[],[],[],[],[],0.4039,1,276.2836,276.7836,,,,,,70,MAS,AGR,150,palo,el,l,0.4039,,276.7837,276.7838,-0.318359375,0.008789063,0,0,0,,0,82,82,69,1,,,,
,,,,,,4e44e4e60beae01c984b3acf,66a626ef09d4e21e1a8894ec,6735ed13b4cf8e3c051ddcae,2024-11-14_13h35.23.509,Tarea de género gramatical,2024.2.2,Win32,59.52380952,,,,,,,,,,,,,,,,,,,,,,,276.7854,277.8513,a,1,[],[],[],[],[],[],[],0.3859,1,277.8514,278.3512,,,,,,108,MAS,DIS,150,hilo,la,l,0.3859,,278.3521,278.3534,-0.318359375,0.008789063,0,0,0,,0,83,83,107,1,,,,
,,,,,,4e44e4e60beae01c984b3acf,66a626ef09d4e21e1a8894ec,6735ed13b4cf8e3c051ddcae,2024-11-14_13h35.23.509,Tarea de género gramatical,2024.2.2,Win32,59.52380952,,,,,,,,,,,,,,,,,,,,,,,278.3542,279.3851,l,0,[],[],[],[],[],[],[],0.3564,0,279.3858,279.8855,,,,,,418,MAS,AGR,150,pájaro,el,l,0.3564,,279.8856,279.8857,-0.318359375,0.008789063,0,0,0,,0,84,84,417,1,,,,
,,,,,,4e44e4e60beae01c984b3acf,66a626ef09d4e21e1a8894ec,6735ed13b4cf8e3c051ddcae,2024-11-14_13h35.23.509,Tarea de género gramatical,2024.2.2,Win32,59.52380952,,,,,,,,,,,,,,,,,,,,,,,279.8865,280.97,a,1,[],[],[],[],[],[],[],0.4158,1,280.9713,281.4699,,,,,,348,MAS,DIS,150,anillo,la,l,0.4158,,281.47,281.4701,-0.318359375,0.008789063,0,0,0,,0,85,85,347,1,,,,
,,,,,,4e44e4e60beae01c984b3acf,66a626ef09d4e21e1a8894ec,6735ed13b4cf8e3c051ddcae,2024-11-14_13h35.23.509,Tarea de género gramatical,2024.2.2,Win32,59.52380952,,,,,,,,,,,,,,,,,,,,,,,281.471,282.5207,a,1,[],[],[],[],[],[],[],0.3891,1,282.5207,283.0211,,,,,,450,MAS,DIS,150,conejo,la,l,0.3891,,283.0211,283.0211,-0.318359375,0.008789063,0,0,0,,0,86,86,449,1,,,,
,,,,,,4e44e4e60beae01c984b3acf,66a626ef09d4e21e1a8894ec,6735ed13b4cf8e3c051ddcae,2024-11-14_13h35.23.509,Tarea de género gramatical,2024.2.2,Win32,59.52380952,,,,,,,,,,,,,,,,,,,,,,,283.0221,284.1721,a,1,[],[],[],[],[],[],[],0.4847,1,284.1722,284.6725,,,,,,340,MAS,AGR,150,pasado,el,l,0.4847,,284.6748,284.6766,-0.318359375,0.008789063,0,0,0,,0,87,87,339,1,,,,
,,,,,,4e44e4e60beae01c984b3acf,66a626ef09d4e21e1a8894ec,6735ed13b4cf8e3c051ddcae,2024-11-14_13h35.23.509,Tarea de género gramatical,2024.2.2,Win32,59.52380952,,,,,,,,,,,,,,,,,,,,,,,284.6781,285.7732,a,1,[],[],[],[],[],[],[],0.4187,1,285.7734,286.2736,,,,,,390,MAS,DIS,150,rostro,la,l,0.4187,,286.2737,286.2738,-0.318359375,0.008789063,0,0,0,,0,88,88,389,1,,,,
,,,,,,4e44e4e60beae01c984b3acf,66a626ef09d4e21e1a8894ec,6735ed13b4cf8e3c051ddcae,2024-11-14_13h35.23.509,Tarea de género gramatical,2024.2.2,Win32,59.52380952,,,,,,,,,,,,,,,,,,,,,,,286.2757,287.4575,l,1,[],[],[],[],[],[],[],0.5058,1,287.4577,287.958,,,,,,285,FEM,DIS,150,mafia,el,a,0.5058,,287.958,287.9582,-0.318359375,0.008789063,0,0,0,,0,89,89,284,1,,,,
,,,,,,4e44e4e60beae01c984b3acf,66a626ef09d4e21e1a8894ec,6735ed13b4cf8e3c051ddcae,2024-11-14_13h35.23.509,Tarea de género gramatical,2024.2.2,Win32,59.52380952,,,,,,,,,,,,,,,,,,,,,,,287.9602,289.0586,a,1,[],[],[],[],[],[],[],0.4229,1,289.0588,289.559,,,,,,366,MAS,DIS,150,riesgo,la,l,0.4229,,289.5591,289.5593,-0.318359375,0.008789063,0,0,0,,0,90,90,365,1,,,,
,,,,,,4e44e4e60beae01c984b3acf,66a626ef09d4e21e1a8894ec,6735ed13b4cf8e3c051ddcae,2024-11-14_13h35.23.509,Tarea de género gramatical,2024.2.2,Win32,59.52380952,,,,,,,,,,,,,,,,,,,,,,,289.5612,290.6098,a,1,[],[],[],[],[],[],[],0.3662,1,290.6099,291.1101,,,,,,180,MAS,DIS,150,fuego,la,l,0.3662,,291.1101,291.1103,-0.318359375,0.008789063,0,0,0,,0,91,91,179,1,,,,
,,,,,,4e44e4e60beae01c984b3acf,66a626ef09d4e21e1a8894ec,6735ed13b4cf8e3c051ddcae,2024-11-14_13h35.23.509,Tarea de género gramatical,2024.2.2,Win32,59.52380952,,,,,,,,,,,,,,,,,,,,,,,291.1123,292.1775,a,1,[],[],[],[],[],[],[],0.3844,1,292.1776,292.6777,,,,,,292,MAS,AGR,150,piano,el,l,0.3844,,292.6802,292.6823,-0.318359375,0.008789063,0,0,0,,0,92,92,291,1,,,,
,,,,,,4e44e4e60beae01c984b3acf,66a626ef09d4e21e1a8894ec,6735ed13b4cf8e3c051ddcae,2024-11-14_13h35.23.509,Tarea de género gramatical,2024.2.2,Win32,59.52380952,,,,,,,,,,,,,,,,,,,,,,,292.6839,293.6618,l,1,[],[],[],[],[],[],[],0.3117,1,293.662,294.1622,,,,,,339,FEM,DIS,150,salida,el,a,0.3117,,294.1622,294.1624,-0.318359375,0.008789063,0,0,0,,0,93,93,338,1,,,,
,,,,,,4e44e4e60beae01c984b3acf,66a626ef09d4e21e1a8894ec,6735ed13b4cf8e3c051ddcae,2024-11-14_13h35.23.509,Tarea de género gramatical,2024.2.2,Win32,59.52380952,,,,,,,,,,,,,,,,,,,,,,,294.1645,295.1962,a,1,[],[],[],[],[],[],[],0.3498,1,295.1963,295.6965,,,,,,305,MAS,CON,150,hombre,,l,0.3498,,295.6965,295.6967,-0.318359375,0.008789063,0,0,0,,0,94,94,304,1,,,,
,,,,,,4e44e4e60beae01c984b3acf,66a626ef09d4e21e1a8894ec,6735ed13b4cf8e3c051ddcae,2024-11-14_13h35.23.509,Tarea de género gramatical,2024.2.2,Win32,59.52380952,,,,,,,,,,,,,,,,,,,,,,,295.6986,296.7639,l,1,[],[],[],[],[],[],[],0.3847,1,296.764,297.2643,,,,,,427,FEM,AGR,150,agenda,la,a,0.3847,,297.2643,297.2645,-0.318359375,0.008789063,0,0,0,,0,95,95,426,1,,,,
,,,,,,4e44e4e60beae01c984b3acf,66a626ef09d4e21e1a8894ec,6735ed13b4cf8e3c051ddcae,2024-11-14_13h35.23.509,Tarea de género gramatical,2024.2.2,Win32,59.52380952,,,,,,,,,,,,,,,,,,,,,,,297.2661,298.3483,l,1,[],[],[],[],[],[],[],0.4046,1,298.3485,298.8484,,,,,,380,FEM,CON,150,madera,,a,0.4046,,298.8503,298.8517,-0.318359375,0.008789063,0,0,0,,0,96,96,379,1,,,,
,,,,,,4e44e4e60beae01c984b3acf,66a626ef09d4e21e1a8894ec,6735ed13b4cf8e3c051ddcae,2024-11-14_13h35.23.509,Tarea de género gramatical,2024.2.2,Win32,59.52380952,,,,,,,,,,,,,,,,,,,,,,,298.8529,299.9327,a,1,[],[],[],[],[],[],[],0.4125,1,299.9328,300.433,,,,,,384,MAS,DIS,150,pedazo,la,l,0.4125,,300.433,300.4333,-0.318359375,0.008789063,0,0,0,,0,97,97,383,1,,,,
,,,,,,4e44e4e60beae01c984b3acf,66a626ef09d4e21e1a8894ec,6735ed13b4cf8e3c051ddcae,2024-11-14_13h35.23.509,Tarea de género gramatical,2024.2.2,Win32,59.52380952,,,,,,,,,,,,,,,,,,,,,,,300.4358,301.4999,l,1,[],[],[],[],[],[],[],0.3871,1,301.5,302.0007,,,,,,421,FEM,AGR,150,novela,la,a,0.3871,,302.0008,302.001,-0.318359375,0.008789063,0,0,0,,0,98,98,420,1,,,,
,,,,,,4e44e4e60beae01c984b3acf,66a626ef09d4e21e1a8894ec,6735ed13b4cf8e3c051ddcae,2024-11-14_13h35.23.509,Tarea de género gramatical,2024.2.2,Win32,59.52380952,,,,,,,,,,,,,,,,,,,,,,,302.0053,303.1015,a,1,[],[],[],[],[],[],[],0.4214,1,303.1017,303.6018,,,,,,376,MAS,AGR,150,efecto,el,l,0.4214,,303.6018,303.602,-0.318359375,0.008789063,0,0,0,,0,99,99,375,1,,,,
,,,,,,4e44e4e60beae01c984b3acf,66a626ef09d4e21e1a8894ec,6735ed13b4cf8e3c051ddcae,2024-11-14_13h35.23.509,Tarea de género gramatical,2024.2.2,Win32,59.52380952,,,,,,,,,,,,,,,,,,,,,,,303.6035,304.6358,a,1,[],[],[],[],[],[],[],0.3534,1,304.6359,305.1361,,,,,,113,MAS,CON,150,toro,,l,0.3534,,305.1362,305.1363,-0.318359375,0.008789063,0,0,0,,0,100,100,112,1,,,,
,,,,,,4e44e4e60beae01c984b3acf,66a626ef09d4e21e1a8894ec,6735ed13b4cf8e3c051ddcae,2024-11-14_13h35.23.509,Tarea de género gramatical,2024.2.2,Win32,59.52380952,,,,,,,,,,,,,,,,,,,,,,,305.1379,306.1198,a,1,[],[],[],[],[],[],[],0.3094,1,306.1198,306.6206,,,,,,431,MAS,CON,150,veneno,,l,0.3094,,306.623,306.6251,-0.318359375,0.008789063,0,0,0,,0,101,101,430,1,,,,
,,,,,,4e44e4e60beae01c984b3acf,66a626ef09d4e21e1a8894ec,6735ed13b4cf8e3c051ddcae,2024-11-14_13h35.23.509,Tarea de género gramatical,2024.2.2,Win32,59.52380952,,,,,,,,,,,,,,,,,,,,,,,306.6262,307.9714,a,1,[],[],[],[],[],[],[],0.6682,1,307.9715,308.4716,,,,,,130,MAS,AGR,150,yate,el,l,0.6682,,308.4717,308.472,-0.318359375,0.008789063,0,0,0,,0,102,102,129,1,,,,
,,,,,,4e44e4e60beae01c984b3acf,66a626ef09d4e21e1a8894ec,6735ed13b4cf8e3c051ddcae,2024-11-14_13h35.23.509,Tarea de género gramatical,2024.2.2,Win32,59.52380952,,,,,,,,,,,,,,,,,,,,,,,308.4739,309.422,a,1,[],[],[],[],[],[],[],0.2669,1,309.422,309.9227,,,,,,250,MAS,AGR,150,cerdo,el,l,0.2669,,309.9228,309.9229,-0.318359375,0.008789063,0,0,0,,0,103,103,249,1,,,,
,,,,,,4e44e4e60beae01c984b3acf,66a626ef09d4e21e1a8894ec,6735ed13b4cf8e3c051ddcae,2024-11-14_13h35.23.509,Tarea de género gramatical,2024.2.2,Win32,59.52380952,,,,,,,,,,,,,,,,,,,,,,,309.9249,310.8563,a,1,[],[],[],[],[],[],[],0.2506,1,310.8564,311.3567,,,,,,160,MAS,AGR,150,señor,el,l,0.2506,,311.3567,311.3568,-0.318359375,0.008789063,0,0,0,,0,104,104,159,1,,,,
,,,,,,4e44e4e60beae01c984b3acf,66a626ef09d4e21e1a8894ec,6735ed13b4cf8e3c051ddcae,2024-11-14_13h35.23.509,Tarea de género gramatical,2024.2.2,Win32,59.52380952,,,,,,,,,,,,,,,,,,,,,,,311.3576,312.4239,a,0,[],[],[],[],[],[],[],0.4009,0,312.4246,312.9242,,,,,,255,FEM,DIS,150,tribu,el,a,0.4009,,312.9248,312.9257,-0.318359375,0.008789063,0,0,0,,0,105,105,254,1,,,,
,,,,,,4e44e4e60beae01c984b3acf,66a626ef09d4e21e1a8894ec,6735ed13b4cf8e3c051ddcae,2024-11-14_13h35.23.509,Tarea de género gramatical,2024.2.2,Win32,59.52380952,,,,,,,,,,,,,,,,,,,,,,,312.9268,314.1422,l,1,[],[],[],[],[],[],[],0.5426,1,314.1433,314.6421,,,,,,297,FEM,DIS,150,manta,el,a,0.5426,,314.6421,314.6421,-0.318359375,0.008789063,0,0,0,,0,106,106,296,1,,,,
,,,,,,4e44e4e60beae01c984b3acf,66a626ef09d4e21e1a8894ec,6735ed13b4cf8e3c051ddcae,2024-11-14_13h35.23.509,Tarea de género gramatical,2024.2.2,Win32,59.52380952,,,,,,,,,,,,,,,,,,,,,,,314.6427,315.6427,a,1,[],[],[],[],[],[],[],0.3368,1,315.6429,316.1435,,,,,,196,MAS,AGR,150,barco,el,l,0.3368,,316.1435,316.1436,-0.318359375,0.008789063,0,0,0,,0,107,107,195,1,,,,
,,,,,,4e44e4e60beae01c984b3acf,66a626ef09d4e21e1a8894ec,6735ed13b4cf8e3c051ddcae,2024-11-14_13h35.23.509,Tarea de género gramatical,2024.2.2,Win32,59.52380952,,,,,,,,,,,,,,,,,,,,,,,316.1451,317.1943,a,1,[],[],[],[],[],[],[],0.3679,1,317.1944,317.6942,,,,,,268,MAS,AGR,150,truco,el,l,0.3679,,317.6943,317.6943,-0.318359375,0.008789063,0,0,0,,0,108,108,267,1,,,,
,,,,,,4e44e4e60beae01c984b3acf,66a626ef09d4e21e1a8894ec,6735ed13b4cf8e3c051ddcae,2024-11-14_13h35.23.509,Tarea de género gramatical,2024.2.2,Win32,59.52380952,,,,,,,,,,,,,,,,,,,,,,,317.6949,318.6953,l,1,[],[],[],[],[],[],[],0.333,1,318.6954,319.1953,,,,,,117,FEM,DIS,150,raya,el,a,0.333,,319.1954,319.1955,-0.318359375,0.008789063,0,0,0,,0,109,109,116,1,,,,
,,,,,,4e44e4e60beae01c984b3acf,66a626ef09d4e21e1a8894ec,6735ed13b4cf8e3c051ddcae,2024-11-14_13h35.23.509,Tarea de género gramatical,2024.2.2,Win32,59.52380952,,,,,,,,,,,,,,,,,,,,,,,319.1965,320.1462,a,1,[],[],[],[],[],[],[],0.2886,1,320.1463,320.6464,,,,,,209,MAS,CON,150,banco,,l,0.2886,,320.6489,320.6509,-0.318359375,0.008789063,0,0,0,,0,110,110,208,1,,,,
,,,,,,4e44e4e60beae01c984b3acf,66a626ef09d4e21e1a8894ec,6735ed13b4cf8e3c051ddcae,2024-11-14_13h35.23.509,Tarea de género gramatical,2024.2.2,Win32,59.52380952,,,,,,,,,,,,,,,,,,,,,,,320.6525,321.7637,l,1,[],[],[],[],[],[],[],0.447,1,321.7638,322.2642,,,,,,391,FEM,AGR,150,altura,la,a,0.447,,322.2643,322.2644,-0.318359375,0.008789063,0,0,0,,0,111,111,390,1,,,,
,,,,,,4e44e4e60beae01c984b3acf,66a626ef09d4e21e1a8894ec,6735ed13b4cf8e3c051ddcae,2024-11-14_13h35.23.509,Tarea de género gramatical,2024.2.2,Win32,59.52380952,,,,,,,,,,,,,,,,,,,,,,,322.267,323.732,l,1,[],[],[],[],[],[],[],0.7851,1,323.7321,324.2322,,,,,,279,FEM,DIS,150,selva,el,a,0.7851,,324.2324,324.2325,-0.318359375,0.008789063,0,0,0,,0,112,112,278,1,,,,
,,,,,,4e44e4e60beae01c984b3acf,66a626ef09d4e21e1a8894ec,6735ed13b4cf8e3c051ddcae,2024-11-14_13h35.23.509,Tarea de género gramatical,2024.2.2,Win32,59.52380952,,,,,,,,,,,,,,,,,,,,,,,324.2343,325.4331,l,1,[],[],[],[],[],[],[],0.5246,1,325.4333,325.9334,,,,,,7,FEM,AGR,150,hora,la,a,0.5246,,325.9335,325.9338,-0.318359375,0.008789063,0,0,0,,0,113,113,6,1,,,,
,,,,,,4e44e4e60beae01c984b3acf,66a626ef09d4e21e1a8894ec,6735ed13b4cf8e3c051ddcae,2024-11-14_13h35.23.509,Tarea de género gramatical,2024.2.2,Win32,59.52380952,,,,,,,,,,,,,,,,,,,,,,,325.9361,327.0337,l,1,[],[],[],[],[],[],[],0.4177,1,327.0337,327.5344,,,,,,189,FEM,DIS,150,pista,el,a,0.4177,,327.5355,327.5371,-0.318359375,0.008789063,0,0,0,,0,114,114,188,1,,,,
,,,,,,4e44e4e60beae01c984b3acf,66a626ef09d4e21e1a8894ec,6735ed13b4cf8e3c051ddcae,2024-11-14_13h35.23.509,Tarea de género gramatical,2024.2.2,Win32,59.52380952,,,,,,,,,,,,,,,,,,,,,,,327.5379,328.7353,l,1,[],[],[],[],[],[],[],0.5189,1,328.7354,329.2356,,,,,,261,FEM,DIS,150,cueva,el,a,0.5189,,329.2357,329.2358,-0.318359375,0.008789063,0,0,0,,0,115,115,260,1,,,,
,,,,,,4e44e4e60beae01c984b3acf,66a626ef09d4e21e1a8894ec,6735ed13b4cf8e3c051ddcae,2024-11-14_13h35.23.509,Tarea de género gramatical,2024.2.2,Win32,59.52380952,,,,,,,,,,,,,,,,,,,,,,,329.2376,330.4699,l,1,[],[],[],[],[],[],[],0.5597,1,330.47,330.9701,,,,,,147,FEM,DIS,150,grúa,el,a,0.5597,,330.9702,330.9703,-0.318359375,0.008789063,0,0,0,,0,116,116,146,1,,,,
,,,,,,4e44e4e60beae01c984b3acf,66a626ef09d4e21e1a8894ec,6735ed13b4cf8e3c051ddcae,2024-11-14_13h35.23.509,Tarea de género gramatical,2024.2.2,Win32,59.52380952,,,,,,,,,,,,,,,,,,,,,,,330.9729,332.271,a,1,[],[],[],[],[],[],[],0.6252,1,332.2712,332.771,,,,,,360,MAS,DIS,150,puente,la,l,0.6252,,332.771,332.7711,-0.318359375,0.008789063,0,0,0,,0,117,117,359,1,,,,
,,,,,,4e44e4e60beae01c984b3acf,66a626ef09d4e21e1a8894ec,6735ed13b4cf8e3c051ddcae,2024-11-14_13h35.23.509,Tarea de género gramatical,2024.2.2,Win32,59.52380952,,,,,,,,,,,,,,,,,,,,,,,332.7721,334.189,l,1,[],[],[],[],[],[],[],0.7605,1,334.1891,334.6894,,,,,,351,FEM,DIS,150,espada,el,a,0.7605,,334.6895,334.6896,-0.318359375,0.008789063,0,0,0,,0,118,118,350,1,,,,
,,,,,,4e44e4e60beae01c984b3acf,66a626ef09d4e21e1a8894ec,6735ed13b4cf8e3c051ddcae,2024-11-14_13h35.23.509,Tarea de género gramatical,2024.2.2,Win32,59.52380952,,,,,,,,,,,,,,,,,,,,,,,334.6917,335.9564,l,1,[],[],[],[],[],[],[],0.588,1,335.9564,336.4568,,,,,,169,FEM,AGR,150,vista,la,a,0.588,,336.4578,336.4592,-0.318359375,0.008789063,0,0,0,,0,119,119,168,1,,,,
,,,,,,4e44e4e60beae01c984b3acf,66a626ef09d4e21e1a8894ec,6735ed13b4cf8e3c051ddcae,2024-11-14_13h35.23.509,Tarea de género gramatical,2024.2.2,Win32,59.52380952,,,,,,,,,,,,,,,,,,,,,,,336.4601,337.7246,l,1,[],[],[],[],[],[],[],0.5863,1,337.7248,338.2246,,,,,,49,FEM,AGR,150,piel,la,a,0.5863,,338.2246,338.2248,-0.318359375,0.008789063,0,0,0,,0,120,120,48,1,,,,
,,,,,,4e44e4e60beae01c984b3acf,66a626ef09d4e21e1a8894ec,6735ed13b4cf8e3c051ddcae,2024-11-14_13h35.23.509,Tarea de género gramatical,2024.2.2,Win32,59.52380952,,,,,,,,,,,,,,,,,,,,,,,338.2255,339.3091,a,1,[],[],[],[],[],[],[],0.4203,1,339.3092,339.8093,,,,,,274,MAS,AGR,150,motor,el,l,0.4203,,339.8094,339.8095,-0.318359375,0.008789063,0,0,0,,0,121,121,273,1,,,,
,,,,,,4e44e4e60beae01c984b3acf,66a626ef09d4e21e1a8894ec,6735ed13b4cf8e3c051ddcae,2024-11-14_13h35.23.509,Tarea de género gramatical,2024.2.2,Win32,59.52380952,,,,,,,,,,,,,,,,,,,,,,,339.8113,340.8768,l,1,[],[],[],[],[],[],[],0.3859,1,340.877,341.3771,,,,,,175,FEM,AGR,150,señal,la,a,0.3859,,341.3772,341.3774,-0.318359375,0.008789063,0,0,0,,0,122,122,174,1,,,,
,,,,,,4e44e4e60beae01c984b3acf,66a626ef09d4e21e1a8894ec,6735ed13b4cf8e3c051ddcae,2024-11-14_13h35.23.509,Tarea de género gramatical,2024.2.2,Win32,59.52380952,,,,,,,,,,,,,,,,,,,,,,,341.3791,342.5446,a,1,[],[],[],[],[],[],[],0.4845,1,342.5448,343.0448,,,,,,444,MAS,DIS,150,límite,la,l,0.4845,,343.0472,343.0489,-0.318359375,0.008789063,0,0,0,,0,123,123,443,1,,,,
,,,,,,4e44e4e60beae01c984b3acf,66a626ef09d4e21e1a8894ec,6735ed13b4cf8e3c051ddcae,2024-11-14_13h35.23.509,Tarea de género gramatical,2024.2.2,Win32,59.52380952,,,,,,,,,,,,,,,,,,,,,,,343.0504,344.3124,a,1,[],[],[],[],[],[],[],0.5846,1,344.3125,344.8127,,,,,,328,MAS,AGR,150,asunto,el,l,0.5846,,344.8127,344.8129,-0.318359375,0.008789063,0,0,0,,0,124,124,327,1,,,,
,,,,,,4e44e4e60beae01c984b3acf,66a626ef09d4e21e1a8894ec,6735ed13b4cf8e3c051ddcae,2024-11-14_13h35.23.509,Tarea de género gramatical,2024.2.2,Win32,59.52380952,,,,,,,,,,,,,,,,,,,,,,,344.8145,345.9469,l,1,[],[],[],[],[],[],[],0.4574,1,345.9469,346.4471,,,,,,128,FEM,CON,150,leña,,a,0.4574,,346.4472,346.4474,-0.318359375,0.008789063,0,0,0,,0,125,125,127,1,,,,
,,,,,,4e44e4e60beae01c984b3acf,66a626ef09d4e21e1a8894ec,6735ed13b4cf8e3c051ddcae,2024-11-14_13h35.23.509,Tarea de género gramatical,2024.2.2,Win32,59.52380952,,,,,,,,,,,,,,,,,,,,,,,346.449,347.8314,a,1,[],[],[],[],[],[],[],0.7097,1,347.8315,348.3318,,,,,,341,MAS,CON,150,precio,,l,0.7097,,348.3319,348.332,-0.318359375,0.008789063,0,0,0,,0,126,126,340,1,,,,
,,,,,,4e44e4e60beae01c984b3acf,66a626ef09d4e21e1a8894ec,6735ed13b4cf8e3c051ddcae,2024-11-14_13h35.23.509,Tarea de género gramatical,2024.2.2,Win32,59.52380952,,,,,,,,,,,,,,,,,,,,,,,348.3339,349.534,l,0,[],[],[],[],[],[],[],0.5294,0,349.5352,350.0326,,,,,,102,MAS,DIS,150,coro,la,l,0.5294,,350.0326,350.0326,-0.318359375,0.008789063,0,0,0,,0,127,127,101,1,,,,
,,,,,,4e44e4e60beae01c984b3acf,66a626ef09d4e21e1a8894ec,6735ed13b4cf8e3c051ddcae,2024-11-14_13h35.23.509,Tarea de género gramatical,2024.2.2,Win32,59.52380952,,,,,,,,,,,,,,,,,,,,,,,350.0333,351.8508,a,1,[],[],[],[],[],[],[],1.1551,1,351.852,352.3511,,,,,,144,MAS,DIS,150,amor,la,l,1.1551,,352.3534,352.3552,-0.318359375,0.008789063,0,0,0,,0,128,128,143,1,,,,
,,,,,,4e44e4e60beae01c984b3acf,66a626ef09d4e21e1a8894ec,6735ed13b4cf8e3c051ddcae,2024-11-14_13h35.23.509,Tarea de género gramatical,2024.2.2,Win32,59.52380952,,,,,,,,,,,,,,,,,,,,,,,352.3567,353.5852,l,1,[],[],[],[],[],[],[],0.5511,1,353.5853,354.0853,,,,,,331,FEM,AGR,150,cárcel,la,a,0.5511,,354.0854,354.0854,-0.318359375,0.008789063,0,0,0,,0,129,129,330,1,,,,
,,,,,,4e44e4e60beae01c984b3acf,66a626ef09d4e21e1a8894ec,6735ed13b4cf8e3c051ddcae,2024-11-14_13h35.23.509,Tarea de género gramatical,2024.2.2,Win32,59.52380952,,,,,,,,,,,,,,,,,,,,,,,354.0862,355.6033,a,1,[],[],[],[],[],[],[],0.8515,1,355.6035,356.1036,,,,,,336,MAS,DIS,150,crimen,la,l,0.8515,,356.1037,356.1038,-0.318359375,0.008789063,0,0,0,,0,130,130,335,1,,,,
,,,,,,4e44e4e60beae01c984b3acf,66a626ef09d4e21e1a8894ec,6735ed13b4cf8e3c051ddcae,2024-11-14_13h35.23.509,Tarea de género gramatical,2024.2.2,Win32,59.52380952,,,,,,,,,,,,,,,,,,,,,,,356.1057,357.1377,l,1,[],[],[],[],[],[],[],0.3583,1,357.1378,357.638,,,,,,13,FEM,AGR,150,hija,la,a,0.3583,,357.638,357.6383,-0.318359375,0.008789063,0,0,0,,0,131,131,12,1,,,,
,,,,,,4e44e4e60beae01c984b3acf,66a626ef09d4e21e1a8894ec,6735ed13b4cf8e3c051ddcae,2024-11-14_13h35.23.509,Tarea de género gramatical,2024.2.2,Win32,59.52380952,,,,,,,,,,,,,,,,,,,,,,,357.6401,358.8221,a,1,[],[],[],[],[],[],[],0.5036,1,358.8222,359.3224,,,,,,370,MAS,AGR,150,seguro,el,l,0.5036,,359.3247,359.3265,-0.318359375,0.008789063,0,0,0,,0,132,132,369,1,,,,
,,,,,,4e44e4e60beae01c984b3acf,66a626ef09d4e21e1a8894ec,6735ed13b4cf8e3c051ddcae,2024-11-14_13h35.23.509,Tarea de género gramatical,2024.2.2,Win32,59.52380952,,,,,,,,,,,,,,,,,,,,,,,359.3278,360.4562,l,1,[],[],[],[],[],[],[],0.4583,1,360.4562,360.9565,,,,,,440,FEM,CON,150,patada,,a,0.4583,,360.9566,360.9567,-0.318359375,0.008789063,0,0,0,,0,133,133,439,1,,,,
,,,,,,4e44e4e60beae01c984b3acf,66a626ef09d4e21e1a8894ec,6735ed13b4cf8e3c051ddcae,2024-11-14_13h35.23.509,Tarea de género gramatical,2024.2.2,Win32,59.52380952,,,,,,,,,,,,,,,,,,,,,,,360.9574,362.1076,a,1,[],[],[],[],[],[],[],0.4878,1,362.1077,362.608,,,,,,276,MAS,DIS,150,ritmo,la,l,0.4878,,362.6081,362.6083,-0.318359375,0.008789063,0,0,0,,0,134,134,275,1,,,,
,,,,,,4e44e4e60beae01c984b3acf,66a626ef09d4e21e1a8894ec,6735ed13b4cf8e3c051ddcae,2024-11-14_13h35.23.509,Tarea de género gramatical,2024.2.2,Win32,59.52380952,,,,,,,,,,,,,,,,,,,,,,,362.6111,363.7255,a,1,[],[],[],[],[],[],[],0.446,1,363.7256,364.2258,,,,,,131,MAS,CON,150,kilo,,l,0.446,,364.2259,364.2261,-0.318359375,0.008789063,0,0,0,,0,135,135,130,1,,,,
,,,,,,4e44e4e60beae01c984b3acf,66a626ef09d4e21e1a8894ec,6735ed13b4cf8e3c051ddcae,2024-11-14_13h35.23.509,Tarea de género gramatical,2024.2.2,Win32,59.52380952,,,,,,,,,,,,,,,,,,,,,,,364.228,365.3431,l,1,[],[],[],[],[],[],[],0.4417,1,365.3434,365.8435,,,,,,69,FEM,DIS,150,rata,el,a,0.4417,,365.8436,365.8437,-0.318359375,0.008789063,0,0,0,,0,136,136,68,1,,,,
,,,,,,4e44e4e60beae01c984b3acf,66a626ef09d4e21e1a8894ec,6735ed13b4cf8e3c051ddcae,2024-11-14_13h35.23.509,Tarea de género gramatical,2024.2.2,Win32,59.52380952,,,,,,,,,,,,,,,,,,,,,,,365.8453,366.9776,a,1,[],[],[],[],[],[],[],0.4573,1,366.9777,367.4778,,,,,,263,MAS,CON,150,carro,,l,0.4573,,367.4802,367.4822,-0.318359375,0.008789063,0,0,0,,0,137,137,262,1,,,,
,,,,,,4e44e4e60beae01c984b3acf,66a626ef09d4e21e1a8894ec,6735ed13b4cf8e3c051ddcae,2024-11-14_13h35.23.509,Tarea de género gramatical,2024.2.2,Win32,59.52380952,,,,,,,,,,,,,,,,,,,,,,,367.4827,368.5454,a,1,[],[],[],[],[],[],[],0.3842,1,368.5456,369.0456,,,,,,443,MAS,CON,150,templo,,l,0.3842,,369.0458,369.046,-0.318359375,0.008789063,0,0,0,,0,138,138,442,1,,,,
,,,,,,4e44e4e60beae01c984b3acf,66a626ef09d4e21e1a8894ec,6735ed13b4cf8e3c051ddcae,2024-11-14_13h35.23.509,Tarea de género gramatical,2024.2.2,Win32,59.52380952,,,,,,,,,,,,,,,,,,,,,,,369.048,370.1964,l,1,[],[],[],[],[],[],[],0.4661,1,370.1965,370.6967,,,,,,320,FEM,CON,150,fiesta,,a,0.4661,,370.6968,370.697,-0.318359375,0.008789063,0,0,0,,0,139,139,319,1,,,,
,,,,,,4e44e4e60beae01c984b3acf,66a626ef09d4e21e1a8894ec,6735ed13b4cf8e3c051ddcae,2024-11-14_13h35.23.509,Tarea de género gramatical,2024.2.2,Win32,59.52380952,,,,,,,,,,,,,,,,,,,,,,,370.6986,371.8975,l,1,[],[],[],[],[],[],[],0.5237,1,371.8977,372.3976,,,,,,447,FEM,DIS,150,lógica,el,a,0.5237,,372.3976,372.3977,-0.318359375,0.008789063,0,0,0,,0,140,140,446,1,,,,
,,,,,,4e44e4e60beae01c984b3acf,66a626ef09d4e21e1a8894ec,6735ed13b4cf8e3c051ddcae,2024-11-14_13h35.23.509,Tarea de género gramatical,2024.2.2,Win32,59.52380952,,,,,,,,,,,,,,,,,,,,,,,372.3986,373.6154,l,1,[],[],[],[],[],[],[],0.5578,1,373.6155,374.1157,,,,,,3,FEM,DIS,150,cosa,el,a,0.5578,,374.1182,374.1199,-0.318359375,0.008789063,0,0,0,,0,141,141,2,1,,,,
,,,,,,4e44e4e60beae01c984b3acf,66a626ef09d4e21e1a8894ec,6735ed13b4cf8e3c051ddcae,2024-11-14_13h35.23.509,Tarea de género gramatical,2024.2.2,Win32,59.52380952,,,,,,,,,,,,,,,,,,,,,,,374.1214,375.1998,l,1,[],[],[],[],[],[],[],0.4091,1,375.2,375.7002,,,,,,153,FEM,DIS,150,mujer,el,a,0.4091,,375.7002,375.7004,-0.318359375,0.008789063,0,0,0,,0,142,142,152,1,,,,
,,,,,,4e44e4e60beae01c984b3acf,66a626ef09d4e21e1a8894ec,6735ed13b4cf8e3c051ddcae,2024-11-14_13h35.23.509,Tarea de género gramatical,2024.2.2,Win32,59.52380952,,,,,,,,,,,,,,,,,,,,,,,375.7022,376.8675,a,1,[],[],[],[],[],[],[],0.4847,1,376.8676,377.3679,,,,,,408,MAS,DIS,150,cheque,la,l,0.4847,,377.3679,377.368,-0.318359375,0.008789063,0,0,0,,0,143,143,407,1,,,,
,,,,,,4e44e4e60beae01c984b3acf,66a626ef09d4e21e1a8894ec,6735ed13b4cf8e3c051ddcae,2024-11-14_13h35.23.509,Tarea de género gramatical,2024.2.2,Win32,59.52380952,,,,,,,,,,,,,,,,,,,,,,,377.3698,378.5687,a,1,[],[],[],[],[],[],[],0.5248,1,378.5688,379.069,,,,,,388,MAS,AGR,150,empleo,el,l,0.5248,,379.069,379.0692,-0.318359375,0.008789063,0,0,0,,0,144,144,387,1,,,,
,,,,,,4e44e4e60beae01c984b3acf,66a626ef09d4e21e1a8894ec,6735ed13b4cf8e3c051ddcae,2024-11-14_13h35.23.509,Tarea de género gramatical,2024.2.2,Win32,59.52380952,,,,,,,,,,,,,,,,,,,,,,,379.0709,380.4696,a,1,[],[],[],[],[],[],[],0.7176,1,380.4697,380.9704,,,,,,90,MAS,DIS,150,león,la,l,0.7176,,380.9705,380.9706,-0.318359375,0.008789063,0,0,0,,0,145,145,89,1,,,,
,,,,,,4e44e4e60beae01c984b3acf,66a626ef09d4e21e1a8894ec,6735ed13b4cf8e3c051ddcae,2024-11-14_13h35.23.509,Tarea de género gramatical,2024.2.2,Win32,59.52380952,,,,,,,,,,,,,,,,,,,,,,,380.9723,382.3709,a,1,[],[],[],[],[],[],[],0.7167,1,382.371,382.8715,,,,,,17,MAS,CON,150,modo,,l,0.7167,,382.8739,382.8756,-0.318359375,0.008789063,0,0,0,,0,146,146,16,1,,,,
,,,,,,4e44e4e60beae01c984b3acf,66a626ef09d4e21e1a8894ec,6735ed13b4cf8e3c051ddcae,2024-11-14_13h35.23.509,Tarea de género gramatical,2024.2.2,Win32,59.52380952,,,,,,,,,,,,,,,,,,,,,,,382.877,383.9556,l,1,[],[],[],[],[],[],[],0.402,1,383.9557,384.4559,,,,,,122,FEM,CON,150,loca,,a,0.402,,384.456,384.4562,-0.318359375,0.008789063,0,0,0,,0,147,147,121,1,,,,
,,,,,,4e44e4e60beae01c984b3acf,66a626ef09d4e21e1a8894ec,6735ed13b4cf8e3c051ddcae,2024-11-14_13h35.23.509,Tarea de género gramatical,2024.2.2,Win32,59.52380952,,,,,,,,,,,,,,,,,,,,,,,384.4578,385.6234,a,1,[],[],[],[],[],[],[],0.4851,1,385.6235,386.1234,,,,,,155,MAS,CON,150,mundo,,l,0.4851,,386.1235,386.1236,-0.318359375,0.008789063,0,0,0,,0,148,148,154,1,,,,
,,,,,,4e44e4e60beae01c984b3acf,66a626ef09d4e21e1a8894ec,6735ed13b4cf8e3c051ddcae,2024-11-14_13h35.23.509,Tarea de género gramatical,2024.2.2,Win32,59.52380952,,,,,,,,,,,,,,,,,,,,,,,386.1245,387.2578,a,1,[],[],[],[],[],[],[],0.4721,1,387.2579,387.7581,,,,,,204,MAS,DIS,150,papel,la,l,0.4721,,387.7582,387.7584,-0.318359375,0.008789063,0,0,0,,0,149,149,203,1,,,,
,,,,,,4e44e4e60beae01c984b3acf,66a626ef09d4e21e1a8894ec,6735ed13b4cf8e3c051ddcae,2024-11-14_13h35.23.509,Tarea de género gramatical,2024.2.2,Win32,59.52380952,,,,,,,,,,,,,,,,,,,,,,,387.7601,388.8089,a,0,[],[],[],[],[],[],[],0.3747,0,388.8102,389.3093,,,,,,235,FEM,AGR,150,torre,la,a,0.3747,,389.3116,460.4904,-0.318359375,0.008789063,0,0,0,space,0,150,150,234,1,71.1553,,,
,,,,,,4e44e4e60beae01c984b3acf,66a626ef09d4e21e1a8894ec,6735ed13b4cf8e3c051ddcae,2024-11-14_13h35.23.509,Tarea de género gramatical,2024.2.2,Win32,59.52380952,,,,,,,,,,,,,,,,,,,,,,,460.4926,462.0412,l,1,[],[],[],[],[],[],[],0.8729,1,462.0424,462.5412,,,,,,303,FEM,DIS,150,maldad,el,a,0.8729,,462.5412,462.5412,-0.318359375,0.008789063,0,0,0,,0,151,151,302,1,,,,
,,,,,,4e44e4e60beae01c984b3acf,66a626ef09d4e21e1a8894ec,6735ed13b4cf8e3c051ddcae,2024-11-14_13h35.23.509,Tarea de género gramatical,2024.2.2,Win32,59.52380952,,,,,,,,,,,,,,,,,,,,,,,462.5418,463.6927,a,1,[],[],[],[],[],[],[],0.4945,1,463.6928,464.1923,,,,,,172,MAS,AGR,150,poder,el,l,0.4945,,464.1924,464.1924,-0.318359375,0.008789063,0,0,0,,0,152,152,171,1,,,,
,,,,,,4e44e4e60beae01c984b3acf,66a626ef09d4e21e1a8894ec,6735ed13b4cf8e3c051ddcae,2024-11-14_13h35.23.509,Tarea de género gramatical,2024.2.2,Win32,59.52380952,,,,,,,,,,,,,,,,,,,,,,,464.193,465.3768,l,1,[],[],[],[],[],[],[],0.5231,1,465.377,465.8772,,,,,,92,FEM,CON,150,masa,,a,0.5231,,465.8773,465.8774,-0.318359375,0.008789063,0,0,0,,0,153,153,91,1,,,,
,,,,,,4e44e4e60beae01c984b3acf,66a626ef09d4e21e1a8894ec,6735ed13b4cf8e3c051ddcae,2024-11-14_13h35.23.509,Tarea de género gramatical,2024.2.2,Win32,59.52380952,,,,,,,,,,,,,,,,,,,,,,,465.8792,467.0613,l,1,[],[],[],[],[],[],[],0.51,1,467.0615,467.5617,,,,,,163,FEM,AGR,150,calle,la,a,0.51,,467.5617,467.562,-0.318359375,0.008789063,0,0,0,,0,154,154,162,1,,,,
,,,,,,4e44e4e60beae01c984b3acf,66a626ef09d4e21e1a8894ec,6735ed13b4cf8e3c051ddcae,2024-11-14_13h35.23.509,Tarea de género gramatical,2024.2.2,Win32,59.52380952,,,,,,,,,,,,,,,,,,,,,,,467.5639,468.7286,a,1,[],[],[],[],[],[],[],0.4919,1,468.7287,469.2291,,,,,,323,MAS,CON,150,marido,,l,0.4919,,469.2301,469.2314,-0.318359375,0.008789063,0,0,0,,0,155,155,322,1,,,,
,,,,,,4e44e4e60beae01c984b3acf,66a626ef09d4e21e1a8894ec,6735ed13b4cf8e3c051ddcae,2024-11-14_13h35.23.509,Tarea de género gramatical,2024.2.2,Win32,59.52380952,,,,,,,,,,,,,,,,,,,,,,,469.2321,470.4135,l,1,[],[],[],[],[],[],[],0.5098,1,470.4136,470.9139,,,,,,146,FEM,CON,150,lana,,a,0.5098,,470.914,470.9142,-0.318359375,0.008789063,0,0,0,,0,156,156,145,1,,,,
,,,,,,4e44e4e60beae01c984b3acf,66a626ef09d4e21e1a8894ec,6735ed13b4cf8e3c051ddcae,2024-11-14_13h35.23.509,Tarea de género gramatical,2024.2.2,Win32,59.52380952,,,,,,,,,,,,,,,,,,,,,,,470.9159,472.9652,a,0,[],[],[],[],[],[],[],1.3706,0,472.9664,473.4655,,,,,,441,FEM,DIS,150,medida,el,a,1.3706,,473.4655,473.4657,-0.318359375,0.008789063,0,0,0,,0,157,157,440,1,,,,
,,,,,,4e44e4e60beae01c984b3acf,66a626ef09d4e21e1a8894ec,6735ed13b4cf8e3c051ddcae,2024-11-14_13h35.23.509,Tarea de género gramatical,2024.2.2,Win32,59.52380952,,,,,,,,,,,,,,,,,,,,,,,473.4671,474.8999,a,1,[],[],[],[],[],[],[],0.7536,1,474.9011,475.4002,,,,,,306,MAS,DIS,150,dinero,la,l,0.7536,,475.4003,475.4005,-0.318359375,0.008789063,0,0,0,,0,158,158,305,1,,,,
,,,,,,4e44e4e60beae01c984b3acf,66a626ef09d4e21e1a8894ec,6735ed13b4cf8e3c051ddcae,2024-11-14_13h35.23.509,Tarea de género gramatical,2024.2.2,Win32,59.52380952,,,,,,,,,,,,,,,,,,,,,,,475.4022,476.7675,a,1,[],[],[],[],[],[],[],0.6905,1,476.7676,477.2682,,,,,,76,MAS,AGR,150,lujo,el,l,0.6905,,477.2704,477.2722,-0.318359375,0.008789063,0,0,0,,0,159,159,75,1,,,,
,,,,,,4e44e4e60beae01c984b3acf,66a626ef09d4e21e1a8894ec,6735ed13b4cf8e3c051ddcae,2024-11-14_13h35.23.509,Tarea de género gramatical,2024.2.2,Win32,59.52380952,,,,,,,,,,,,,,,,,,,,,,,477.2736,478.4357,a,1,[],[],[],[],[],[],[],0.4868,1,478.4358,478.9359,,,,,,232,MAS,AGR,150,calor,el,l,0.4868,,478.9361,478.9362,-0.318359375,0.008789063,0,0,0,,0,160,160,231,1,,,,
,,,,,,4e44e4e60beae01c984b3acf,66a626ef09d4e21e1a8894ec,6735ed13b4cf8e3c051ddcae,2024-11-14_13h35.23.509,Tarea de género gramatical,2024.2.2,Win32,59.52380952,,,,,,,,,,,,,,,,,,,,,,,478.938,480.0199,l,1,[],[],[],[],[],[],[],0.4012,1,480.0201,480.5204,,,,,,85,FEM,AGR,150,gira,la,a,0.4012,,480.5204,480.5206,-0.318359375,0.008789063,0,0,0,,0,161,161,84,1,,,,
,,,,,,4e44e4e60beae01c984b3acf,66a626ef09d4e21e1a8894ec,6735ed13b4cf8e3c051ddcae,2024-11-14_13h35.23.509,Tarea de género gramatical,2024.2.2,Win32,59.52380952,,,,,,,,,,,,,,,,,,,,,,,480.5223,481.605,l,1,[],[],[],[],[],[],[],0.4125,1,481.6051,482.1048,,,,,,241,FEM,AGR,150,pasta,la,a,0.4125,,482.1049,482.1051,-0.318359375,0.008789063,0,0,0,,0,162,162,240,1,,,,
,,,,,,4e44e4e60beae01c984b3acf,66a626ef09d4e21e1a8894ec,6735ed13b4cf8e3c051ddcae,2024-11-14_13h35.23.509,Tarea de género gramatical,2024.2.2,Win32,59.52380952,,,,,,,,,,,,,,,,,,,,,,,482.1069,483.2889,a,1,[],[],[],[],[],[],[],0.5011,1,483.289,483.7892,,,,,,126,MAS,DIS,150,lazo,la,l,0.5011,,483.7892,483.7894,-0.318359375,0.008789063,0,0,0,,0,163,163,125,1,,,,
,,,,,,4e44e4e60beae01c984b3acf,66a626ef09d4e21e1a8894ec,6735ed13b4cf8e3c051ddcae,2024-11-14_13h35.23.509,Tarea de género gramatical,2024.2.2,Win32,59.52380952,,,,,,,,,,,,,,,,,,,,,,,483.7909,484.9228,a,1,[],[],[],[],[],[],[],0.4551,1,484.9229,485.4236,,,,,,449,MAS,CON,150,payaso,,l,0.4551,,485.4255,485.4275,-0.318359375,0.008789063,0,0,0,,0,164,164,448,1,,,,
,,,,,,4e44e4e60beae01c984b3acf,66a626ef09d4e21e1a8894ec,6735ed13b4cf8e3c051ddcae,2024-11-14_13h35.23.509,Tarea de género gramatical,2024.2.2,Win32,59.52380952,,,,,,,,,,,,,,,,,,,,,,,485.4287,486.5744,a,1,[],[],[],[],[],[],[],0.468,1,486.5745,487.0747,,,,,,424,MAS,AGR,150,rastro,el,l,0.468,,487.0748,487.0749,-0.318359375,0.008789063,0,0,0,,0,165,165,423,1,,,,
,,,,,,4e44e4e60beae01c984b3acf,66a626ef09d4e21e1a8894ec,6735ed13b4cf8e3c051ddcae,2024-11-14_13h35.23.509,Tarea de género gramatical,2024.2.2,Win32,59.52380952,,,,,,,,,,,,,,,,,,,,,,,487.0765,488.3755,l,1,[],[],[],[],[],[],[],0.6262,1,488.3757,488.8758,,,,,,218,FEM,CON,150,nieve,,a,0.6262,,488.8759,488.8762,-0.318359375,0.008789063,0,0,0,,0,166,166,217,1,,,,
,,,,,,4e44e4e60beae01c984b3acf,66a626ef09d4e21e1a8894ec,6735ed13b4cf8e3c051ddcae,2024-11-14_13h35.23.509,Tarea de género gramatical,2024.2.2,Win32,59.52380952,,,,,,,,,,,,,,,,,,,,,,,488.8777,490.2101,a,1,[],[],[],[],[],[],[],0.655,1,490.2102,490.7102,,,,,,94,MAS,AGR,150,cabo,el,l,0.655,,490.7102,490.7103,-0.318359375,0.008789063,0,0,0,,0,167,167,93,1,,,,
,,,,,,4e44e4e60beae01c984b3acf,66a626ef09d4e21e1a8894ec,6735ed13b4cf8e3c051ddcae,2024-11-14_13h35.23.509,Tarea de género gramatical,2024.2.2,Win32,59.52380952,,,,,,,,,,,,,,,,,,,,,,,490.7112,491.8279,a,1,[],[],[],[],[],[],[],0.4535,1,491.828,492.3282,,,,,,148,MAS,AGR,150,surf,el,l,0.4535,,492.3305,492.3322,-0.318359375,0.008789063,0,0,0,,0,168,168,147,1,,,,
,,,,,,4e44e4e60beae01c984b3acf,66a626ef09d4e21e1a8894ec,6735ed13b4cf8e3c051ddcae,2024-11-14_13h35.23.509,Tarea de género gramatical,2024.2.2,Win32,59.52380952,,,,,,,,,,,,,,,,,,,,,,,492.3337,493.6959,a,1,[],[],[],[],[],[],[],0.6846,1,493.696,494.1961,,,,,,401,MAS,CON,150,abrigo,,l,0.6846,,494.1961,494.1963,-0.318359375,0.008789063,0,0,0,,0,169,169,400,1,,,,
,,,,,,4e44e4e60beae01c984b3acf,66a626ef09d4e21e1a8894ec,6735ed13b4cf8e3c051ddcae,2024-11-14_13h35.23.509,Tarea de género gramatical,2024.2.2,Win32,59.52380952,,,,,,,,,,,,,,,,,,,,,,,494.1979,495.2468,a,1,[],[],[],[],[],[],[],0.368,1,495.247,495.7472,,,,,,221,MAS,CON,150,brazo,,l,0.368,,495.7473,495.7475,-0.318359375,0.008789063,0,0,0,,0,170,170,220,1,,,,
,,,,,,4e44e4e60beae01c984b3acf,66a626ef09d4e21e1a8894ec,6735ed13b4cf8e3c051ddcae,2024-11-14_13h35.23.509,Tarea de género gramatical,2024.2.2,Win32,59.52380952,,,,,,,,,,,,,,,,,,,,,,,495.7491,496.8146,l,1,[],[],[],[],[],[],[],0.3924,1,496.8147,497.3148,,,,,,386,FEM,CON,150,sombra,,a,0.3924,,497.3149,497.3151,-0.318359375,0.008789063,0,0,0,,0,171,171,385,1,,,,
,,,,,,4e44e4e60beae01c984b3acf,66a626ef09d4e21e1a8894ec,6735ed13b4cf8e3c051ddcae,2024-11-14_13h35.23.509,Tarea de género gramatical,2024.2.2,Win32,59.52380952,,,,,,,,,,,,,,,,,,,,,,,497.3166,498.5654,l,1,[],[],[],[],[],[],[],0.5756,1,498.5654,499.0657,,,,,,374,FEM,CON,150,herida,,a,0.5756,,499.0657,499.0659,-0.318359375,0.008789063,0,0,0,,0,172,172,373,1,,,,
,,,,,,4e44e4e60beae01c984b3acf,66a626ef09d4e21e1a8894ec,6735ed13b4cf8e3c051ddcae,2024-11-14_13h35.23.509,Tarea de género gramatical,2024.2.2,Win32,59.52380952,,,,,,,,,,,,,,,,,,,,,,,499.0667,500.2168,a,1,[],[],[],[],[],[],[],0.483,1,500.217,500.7172,,,,,,214,MAS,AGR,150,fondo,el,l,0.483,,500.7194,500.7212,-0.318359375,0.008789063,0,0,0,,0,173,173,213,1,,,,
,,,,,,4e44e4e60beae01c984b3acf,66a626ef09d4e21e1a8894ec,6735ed13b4cf8e3c051ddcae,2024-11-14_13h35.23.509,Tarea de género gramatical,2024.2.2,Win32,59.52380952,,,,,,,,,,,,,,,,,,,,,,,500.7227,501.818,l,1,[],[],[],[],[],[],[],0.4235,1,501.818,502.3182,,,,,,409,FEM,AGR,150,moneda,la,a,0.4235,,502.3183,502.3185,-0.318359375,0.008789063,0,0,0,,0,174,174,408,1,,,,
,,,,,,4e44e4e60beae01c984b3acf,66a626ef09d4e21e1a8894ec,6735ed13b4cf8e3c051ddcae,2024-11-14_13h35.23.509,Tarea de género gramatical,2024.2.2,Win32,59.52380952,,,,,,,,,,,,,,,,,,,,,,,502.3202,503.369,l,1,[],[],[],[],[],[],[],0.3744,1,503.3691,503.8693,,,,,,1,FEM,AGR,150,casa,la,a,0.3744,,503.8693,503.8695,-0.318359375,0.008789063,0,0,0,,0,175,175,0,1,,,,
,,,,,,4e44e4e60beae01c984b3acf,66a626ef09d4e21e1a8894ec,6735ed13b4cf8e3c051ddcae,2024-11-14_13h35.23.509,Tarea de género gramatical,2024.2.2,Win32,59.52380952,,,,,,,,,,,,,,,,,,,,,,,503.871,505.1368,a,1,[],[],[],[],[],[],[],0.5911,1,505.137,505.6372,,,,,,197,MAS,CON,150,avión,,l,0.5911,,505.6372,505.6374,-0.318359375,0.008789063,0,0,0,,0,176,176,196,1,,,,
,,,,,,4e44e4e60beae01c984b3acf,66a626ef09d4e21e1a8894ec,6735ed13b4cf8e3c051ddcae,2024-11-14_13h35.23.509,Tarea de género gramatical,2024.2.2,Win32,59.52380952,,,,,,,,,,,,,,,,,,,,,,,505.639,507.0715,a,1,[],[],[],[],[],[],[],0.7596,1,507.0716,507.5718,,,,,,66,MAS,DIS,150,muro,la,l,0.7596,,507.5743,507.576,-0.318359375,0.008789063,0,0,0,,0,177,177,65,1,,,,
,,,,,,4e44e4e60beae01c984b3acf,66a626ef09d4e21e1a8894ec,6735ed13b4cf8e3c051ddcae,2024-11-14_13h35.23.509,Tarea de género gramatical,2024.2.2,Win32,59.52380952,,,,,,,,,,,,,,,,,,,,,,,507.5773,509.6065,a,1,[],[],[],[],[],[],[],1.3532,1,509.6066,510.1068,,,,,,89,MAS,CON,150,maíz,,l,1.3532,,510.1068,510.107,-0.318359375,0.008789063,0,0,0,,0,178,178,88,1,,,,
,,,,,,4e44e4e60beae01c984b3acf,66a626ef09d4e21e1a8894ec,6735ed13b4cf8e3c051ddcae,2024-11-14_13h35.23.509,Tarea de género gramatical,2024.2.2,Win32,59.52380952,,,,,,,,,,,,,,,,,,,,,,,510.1087,511.3744,a,1,[],[],[],[],[],[],[],0.5846,1,511.3745,511.8747,,,,,,174,MAS,DIS,150,perro,la,l,0.5846,,511.8748,511.875,-0.318359375,0.008789063,0,0,0,,0,179,179,173,1,,,,
,,,,,,4e44e4e60beae01c984b3acf,66a626ef09d4e21e1a8894ec,6735ed13b4cf8e3c051ddcae,2024-11-14_13h35.23.509,Tarea de género gramatical,2024.2.2,Win32,59.52380952,,,,,,,,,,,,,,,,,,,,,,,511.8765,512.9587,a,1,[],[],[],[],[],[],[],0.4014,1,512.9589,513.459,,,,,,437,MAS,CON,150,hombro,,l,0.4014,,513.4591,513.4593,-0.318359375,0.008789063,0,0,0,,0,180,180,436,1,,,,
,,,,,,4e44e4e60beae01c984b3acf,66a626ef09d4e21e1a8894ec,6735ed13b4cf8e3c051ddcae,2024-11-14_13h35.23.509,Tarea de género gramatical,2024.2.2,Win32,59.52380952,,,,,,,,,,,,,,,,,,,,,,,513.4609,514.5597,l,1,[],[],[],[],[],[],[],0.418,1,514.5599,515.06,,,,,,296,FEM,CON,150,feria,,a,0.418,,515.0602,515.0603,-0.318359375,0.008789063,0,0,0,,0,181,181,295,1,,,,
,,,,,,4e44e4e60beae01c984b3acf,66a626ef09d4e21e1a8894ec,6735ed13b4cf8e3c051ddcae,2024-11-14_13h35.23.509,Tarea de género gramatical,2024.2.2,Win32,59.52380952,,,,,,,,,,,,,,,,,,,,,,,515.0619,516.094,l,1,[],[],[],[],[],[],[],0.3603,1,516.0942,516.5945,,,,,,224,FEM,CON,150,arena,,a,0.3603,,516.5968,516.5986,-0.318359375,0.008789063,0,0,0,,0,182,182,223,1,,,,
,,,,,,4e44e4e60beae01c984b3acf,66a626ef09d4e21e1a8894ec,6735ed13b4cf8e3c051ddcae,2024-11-14_13h35.23.509,Tarea de género gramatical,2024.2.2,Win32,59.52380952,,,,,,,,,,,,,,,,,,,,,,,516.6001,517.695,a,1,[],[],[],[],[],[],[],0.4258,1,517.695,518.1956,,,,,,162,MAS,DIS,150,miedo,la,l,0.4258,,518.1956,518.1958,-0.318359375,0.008789063,0,0,0,,0,183,183,161,1,,,,
,,,,,,4e44e4e60beae01c984b3acf,66a626ef09d4e21e1a8894ec,6735ed13b4cf8e3c051ddcae,2024-11-14_13h35.23.509,Tarea de género gramatical,2024.2.2,Win32,59.52380952,,,,,,,,,,,,,,,,,,,,,,,518.1976,519.4292,l,1,[],[],[],[],[],[],[],0.559,1,519.4294,519.9301,,,,,,31,FEM,AGR,150,edad,la,a,0.559,,519.9302,519.9303,-0.318359375,0.008789063,0,0,0,,0,184,184,30,1,,,,
,,,,,,4e44e4e60beae01c984b3acf,66a626ef09d4e21e1a8894ec,6735ed13b4cf8e3c051ddcae,2024-11-14_13h35.23.509,Tarea de género gramatical,2024.2.2,Win32,59.52380952,,,,,,,,,,,,,,,,,,,,,,,519.9321,520.9808,l,1,[],[],[],[],[],[],[],0.3706,1,520.9809,521.4807,,,,,,133,FEM,AGR,150,joya,la,a,0.3706,,521.4808,521.4808,-0.318359375,0.008789063,0,0,0,,0,185,185,132,1,,,,
,,,,,,4e44e4e60beae01c984b3acf,66a626ef09d4e21e1a8894ec,6735ed13b4cf8e3c051ddcae,2024-11-14_13h35.23.509,Tarea de género gramatical,2024.2.2,Win32,59.52380952,,,,,,,,,,,,,,,,,,,,,,,521.4816,522.6148,l,1,[],[],[],[],[],[],[],0.4665,1,522.6148,523.1152,,,,,,433,FEM,AGR,150,huella,la,a,0.4665,,523.1159,523.1168,-0.318359375,0.008789063,0,0,0,,0,186,186,432,1,,,,
,,,,,,4e44e4e60beae01c984b3acf,66a626ef09d4e21e1a8894ec,6735ed13b4cf8e3c051ddcae,2024-11-14_13h35.23.509,Tarea de género gramatical,2024.2.2,Win32,59.52380952,,,,,,,,,,,,,,,,,,,,,,,523.1178,524.149,l,1,[],[],[],[],[],[],[],0.3601,1,524.1491,524.6497,,,,,,373,FEM,AGR,150,lluvia,la,a,0.3601,,524.6497,524.6498,-0.318359375,0.008789063,0,0,0,,0,187,187,372,1,,,,
,,,,,,4e44e4e60beae01c984b3acf,66a626ef09d4e21e1a8894ec,6735ed13b4cf8e3c051ddcae,2024-11-14_13h35.23.509,Tarea de género gramatical,2024.2.2,Win32,59.52380952,,,,,,,,,,,,,,,,,,,,,,,524.6506,525.7673,a,1,[],[],[],[],[],[],[],0.4429,1,525.7675,526.2677,,,,,,256,MAS,AGR,150,techo,el,l,0.4429,,526.2677,526.2679,-0.318359375,0.008789063,0,0,0,,0,188,188,255,1,,,,
,,,,,,4e44e4e60beae01c984b3acf,66a626ef09d4e21e1a8894ec,6735ed13b4cf8e3c051ddcae,2024-11-14_13h35.23.509,Tarea de género gramatical,2024.2.2,Win32,59.52380952,,,,,,,,,,,,,,,,,,,,,,,526.2696,527.4017,a,1,[],[],[],[],[],[],[],0.4582,1,527.4019,527.902,,,,,,382,MAS,AGR,150,teatro,el,l,0.4582,,527.9021,527.9023,-0.318359375,0.008789063,0,0,0,,0,189,189,381,1,,,,
,,,,,,4e44e4e60beae01c984b3acf,66a626ef09d4e21e1a8894ec,6735ed13b4cf8e3c051ddcae,2024-11-14_13h35.23.509,Tarea de género gramatical,2024.2.2,Win32,59.52380952,,,,,,,,,,,,,,,,,,,,,,,527.9038,528.9862,a,1,[],[],[],[],[],[],[],0.4065,1,528.9863,529.4865,,,,,,377,MAS,CON,150,jardín,,l,0.4065,,529.4865,529.4867,-0.318359375,0.008789063,0,0,0,,0,190,190,376,1,,,,
,,,,,,4e44e4e60beae01c984b3acf,66a626ef09d4e21e1a8894ec,6735ed13b4cf8e3c051ddcae,2024-11-14_13h35.23.509,Tarea de género gramatical,2024.2.2,Win32,59.52380952,,,,,,,,,,,,,,,,,,,,,,,529.4885,530.7873,a,1,[],[],[],[],[],[],[],0.6196,1,530.7875,531.2876,,,,,,156,MAS,DIS,150,amigo,la,l,0.6196,,531.2898,531.2917,-0.318359375,0.008789063,0,0,0,,0,191,191,155,1,,,,
,,,,,,4e44e4e60beae01c984b3acf,66a626ef09d4e21e1a8894ec,6735ed13b4cf8e3c051ddcae,2024-11-14_13h35.23.509,Tarea de género gramatical,2024.2.2,Win32,59.52380952,,,,,,,,,,,,,,,,,,,,,,,531.2931,532.5385,a,1,[],[],[],[],[],[],[],0.5722,1,532.5385,533.0385,,,,,,192,MAS,DIS,150,grupo,la,l,0.5722,,533.0385,533.0387,-0.318359375,0.008789063,0,0,0,,0,192,192,191,1,,,,
,,,,,,4e44e4e60beae01c984b3acf,66a626ef09d4e21e1a8894ec,6735ed13b4cf8e3c051ddcae,2024-11-14_13h35.23.509,Tarea de género gramatical,2024.2.2,Win32,59.52380952,,,,,,,,,,,,,,,,,,,,,,,533.0395,534.1229,a,1,[],[],[],[],[],[],[],0.4042,1,534.123,534.6229,,,,,,400,MAS,AGR,150,barrio,el,l,0.4042,,534.6229,534.623,-0.318359375,0.008789063,0,0,0,,0,193,193,399,1,,,,
,,,,,,4e44e4e60beae01c984b3acf,66a626ef09d4e21e1a8894ec,6735ed13b4cf8e3c051ddcae,2024-11-14_13h35.23.509,Tarea de género gramatical,2024.2.2,Win32,59.52380952,,,,,,,,,,,,,,,,,,,,,,,534.6238,535.6903,a,1,[],[],[],[],[],[],[],0.4039,1,535.6903,536.1906,,,,,,10,MAS,AGR,150,niño,el,l,0.4039,,536.1907,536.1908,-0.318359375,0.008789063,0,0,0,,0,194,194,9,1,,,,
,,,,,,4e44e4e60beae01c984b3acf,66a626ef09d4e21e1a8894ec,6735ed13b4cf8e3c051ddcae,2024-11-14_13h35.23.509,Tarea de género gramatical,2024.2.2,Win32,59.52380952,,,,,,,,,,,,,,,,,,,,,,,536.1915,537.5086,l,1,[],[],[],[],[],[],[],0.6544,1,537.5087,538.0089,,,,,,27,FEM,DIS,150,mesa,el,a,0.6544,,538.0111,538.0131,-0.318359375,0.008789063,0,0,0,,0,195,195,26,1,,,,
,,,,,,4e44e4e60beae01c984b3acf,66a626ef09d4e21e1a8894ec,6735ed13b4cf8e3c051ddcae,2024-11-14_13h35.23.509,Tarea de género gramatical,2024.2.2,Win32,59.52380952,,,,,,,,,,,,,,,,,,,,,,,538.0146,539.1096,l,1,[],[],[],[],[],[],[],0.4202,1,539.1097,539.6099,,,,,,397,FEM,AGR,150,cuerda,la,a,0.4202,,539.61,539.6101,-0.318359375,0.008789063,0,0,0,,0,196,196,396,1,,,,
,,,,,,4e44e4e60beae01c984b3acf,66a626ef09d4e21e1a8894ec,6735ed13b4cf8e3c051ddcae,2024-11-14_13h35.23.509,Tarea de género gramatical,2024.2.2,Win32,59.52380952,,,,,,,,,,,,,,,,,,,,,,,539.6118,540.794,l,1,[],[],[],[],[],[],[],0.5053,1,540.7942,541.2945,,,,,,434,FEM,CON,150,corona,,a,0.5053,,541.2945,541.2947,-0.318359375,0.008789063,0,0,0,,0,197,197,433,1,,,,
,,,,,,4e44e4e60beae01c984b3acf,66a626ef09d4e21e1a8894ec,6735ed13b4cf8e3c051ddcae,2024-11-14_13h35.23.509,Tarea de género gramatical,2024.2.2,Win32,59.52380952,,,,,,,,,,,,,,,,,,,,,,,541.2964,542.5116,l,1,[],[],[],[],[],[],[],0.5343,1,542.5117,543.0119,,,,,,273,FEM,DIS,150,tarta,el,a,0.5343,,543.0119,543.0119,-0.318359375,0.008789063,0,0,0,,0,198,198,272,1,,,,
,,,,,,4e44e4e60beae01c984b3acf,66a626ef09d4e21e1a8894ec,6735ed13b4cf8e3c051ddcae,2024-11-14_13h35.23.509,Tarea de género gramatical,2024.2.2,Win32,59.52380952,,,,,,,,,,,,,,,,,,,,,,,543.0128,544.0459,l,1,[],[],[],[],[],[],[],0.367,1,544.0459,544.5461,,,,,,446,FEM,CON,150,bañera,,a,0.367,,544.5461,544.5462,-0.318359375,0.008789063,0,0,0,,0,199,199,445,1,,,,
,,,,,,4e44e4e60beae01c984b3acf,66a626ef09d4e21e1a8894ec,6735ed13b4cf8e3c051ddcae,2024-11-14_13h35.23.509,Tarea de género gramatical,2024.2.2,Win32,59.52380952,,,,,,,,,,,,,,,,,,,,,,,544.5468,545.597,l,1,[],[],[],[],[],[],[],0.3927,1,545.597,546.0973,,,,,,333,FEM,DIS,150,locura,el,a,0.3927,,546.0986,546.1,-0.318359375,0.008789063,0,0,0,,0,200,200,332,1,,,,
,,,,,,4e44e4e60beae01c984b3acf,66a626ef09d4e21e1a8894ec,6735ed13b4cf8e3c051ddcae,2024-11-14_13h35.23.509,Tarea de género gramatical,2024.2.2,Win32,59.52380952,,,,,,,,,,,,,,,,,,,,,,,546.1007,547.2817,l,1,[],[],[],[],[],[],[],0.4998,1,547.2819,547.782,,,,,,362,FEM,CON,150,fuente,,a,0.4998,,547.7821,547.7822,-0.318359375,0.008789063,0,0,0,,0,201,201,361,1,,,,
,,,,,,4e44e4e60beae01c984b3acf,66a626ef09d4e21e1a8894ec,6735ed13b4cf8e3c051ddcae,2024-11-14_13h35.23.509,Tarea de género gramatical,2024.2.2,Win32,59.52380952,,,,,,,,,,,,,,,,,,,,,,,547.7838,548.9995,a,1,[],[],[],[],[],[],[],0.5344,1,548.9997,549.4999,,,,,,287,MAS,CON,150,plato,,l,0.5344,,549.5,549.5001,-0.318359375,0.008789063,0,0,0,,0,202,202,286,1,,,,
,,,,,,4e44e4e60beae01c984b3acf,66a626ef09d4e21e1a8894ec,6735ed13b4cf8e3c051ddcae,2024-11-14_13h35.23.509,Tarea de género gramatical,2024.2.2,Win32,59.52380952,,,,,,,,,,,,,,,,,,,,,,,549.5017,550.6673,a,1,[],[],[],[],[],[],[],0.4872,1,550.6674,551.1677,,,,,,95,MAS,CON,150,tomo,,l,0.4872,,551.1677,551.1679,-0.318359375,0.008789063,0,0,0,,0,203,203,94,1,,,,
,,,,,,4e44e4e60beae01c984b3acf,66a626ef09d4e21e1a8894ec,6735ed13b4cf8e3c051ddcae,2024-11-14_13h35.23.509,Tarea de género gramatical,2024.2.2,Win32,59.52380952,,,,,,,,,,,,,,,,,,,,,,,551.1696,552.2016,a,1,[],[],[],[],[],[],[],0.3529,1,552.2017,552.702,,,,,,161,MAS,CON,150,chico,,l,0.3529,,552.7043,552.706,-0.318359375,0.008789063,0,0,0,,0,204,204,160,1,,,,
,,,,,,4e44e4e60beae01c984b3acf,66a626ef09d4e21e1a8894ec,6735ed13b4cf8e3c051ddcae,2024-11-14_13h35.23.509,Tarea de género gramatical,2024.2.2,Win32,59.52380952,,,,,,,,,,,,,,,,,,,,,,,552.7074,553.7026,l,1,[],[],[],[],[],[],[],0.3196,1,553.7028,554.203,,,,,,368,FEM,CON,150,gracia,,a,0.3196,,554.2031,554.2032,-0.318359375,0.008789063,0,0,0,,0,205,205,367,1,,,,
,,,,,,4e44e4e60beae01c984b3acf,66a626ef09d4e21e1a8894ec,6735ed13b4cf8e3c051ddcae,2024-11-14_13h35.23.509,Tarea de género gramatical,2024.2.2,Win32,59.52380952,,,,,,,,,,,,,,,,,,,,,,,554.205,555.2704,l,1,[],[],[],[],[],[],[],0.3922,1,555.2706,555.7706,,,,,,349,FEM,AGR,150,prensa,la,a,0.3922,,555.7708,555.7708,-0.318359375,0.008789063,0,0,0,,0,206,206,348,1,,,,
,,,,,,4e44e4e60beae01c984b3acf,66a626ef09d4e21e1a8894ec,6735ed13b4cf8e3c051ddcae,2024-11-14_13h35.23.509,Tarea de género gramatical,2024.2.2,Win32,59.52380952,,,,,,,,,,,,,,,,,,,,,,,555.7724,556.8382,l,1,[],[],[],[],[],[],[],0.3852,1,556.8383,557.3385,,,,,,260,FEM,CON,150,barra,,a,0.3852,,557.3386,557.3388,-0.318359375,0.008789063,0,0,0,,0,207,207,259,1,,,,
,,,,,,4e44e4e60beae01c984b3acf,66a626ef09d4e21e1a8894ec,6735ed13b4cf8e3c051ddcae,2024-11-14_13h35.23.509,Tarea de género gramatical,2024.2.2,Win32,59.52380952,,,,,,,,,,,,,,,,,,,,,,,557.3404,558.3891,a,1,[],[],[],[],[],[],[],0.3767,1,558.3892,558.8895,,,,,,269,MAS,CON,150,primo,,l,0.3767,,558.8895,558.8898,-0.318359375,0.008789063,0,0,0,,0,208,208,268,1,,,,
,,,,,,4e44e4e60beae01c984b3acf,66a626ef09d4e21e1a8894ec,6735ed13b4cf8e3c051ddcae,2024-11-14_13h35.23.509,Tarea de género gramatical,2024.2.2,Win32,59.52380952,,,,,,,,,,,,,,,,,,,,,,,558.8915,559.9402,l,1,[],[],[],[],[],[],[],0.371,1,559.9404,560.4403,,,,,,39,FEM,DIS,150,luna,el,a,0.371,,560.4414,560.443,-0.318359375,0.008789063,0,0,0,,0,209,209,38,1,,,,
,,,,,,4e44e4e60beae01c984b3acf,66a626ef09d4e21e1a8894ec,6735ed13b4cf8e3c051ddcae,2024-11-14_13h35.23.509,Tarea de género gramatical,2024.2.2,Win32,59.52380952,,,,,,,,,,,,,,,,,,,,,,,560.4438,561.508,a,1,[],[],[],[],[],[],[],0.3866,1,561.5081,562.0079,,,,,,298,MAS,AGR,150,botón,el,l,0.3866,,562.0079,562.008,-0.318359375,0.008789063,0,0,0,,0,210,210,297,1,,,,
,,,,,,4e44e4e60beae01c984b3acf,66a626ef09d4e21e1a8894ec,6735ed13b4cf8e3c051ddcae,2024-11-14_13h35.23.509,Tarea de género gramatical,2024.2.2,Win32,59.52380952,,,,,,,,,,,,,,,,,,,,,,,562.0086,563.1424,l,1,[],[],[],[],[],[],[],0.4757,1,563.1425,563.6427,,,,,,115,FEM,AGR,150,seda,la,a,0.4757,,563.6428,563.643,-0.318359375,0.008789063,0,0,0,,0,211,211,114,1,,,,
,,,,,,4e44e4e60beae01c984b3acf,66a626ef09d4e21e1a8894ec,6735ed13b4cf8e3c051ddcae,2024-11-14_13h35.23.509,Tarea de género gramatical,2024.2.2,Win32,59.52380952,,,,,,,,,,,,,,,,,,,,,,,563.6447,564.76,a,1,[],[],[],[],[],[],[],0.4345,1,564.7602,565.2604,,,,,,228,MAS,DIS,150,nivel,la,l,0.4345,,565.2604,565.2606,-0.318359375,0.008789063,0,0,0,,0,212,212,227,1,,,,
,,,,,,4e44e4e60beae01c984b3acf,66a626ef09d4e21e1a8894ec,6735ed13b4cf8e3c051ddcae,2024-11-14_13h35.23.509,Tarea de género gramatical,2024.2.2,Win32,59.52380952,,,,,,,,,,,,,,,,,,,,,,,565.2622,566.4114,l,1,[],[],[],[],[],[],[],0.4722,1,566.4115,566.9116,,,,,,56,FEM,CON,150,bola,,a,0.4722,,566.9139,566.9157,-0.318359375,0.008789063,0,0,0,,0,213,213,55,1,,,,
,,,,,,4e44e4e60beae01c984b3acf,66a626ef09d4e21e1a8894ec,6735ed13b4cf8e3c051ddcae,2024-11-14_13h35.23.509,Tarea de género gramatical,2024.2.2,Win32,59.52380952,,,,,,,,,,,,,,,,,,,,,,,566.9172,568.1624,a,1,[],[],[],[],[],[],[],0.5742,1,568.1625,568.6625,,,,,,226,MAS,AGR,150,color,el,l,0.5742,,568.6625,568.6627,-0.318359375,0.008789063,0,0,0,,0,214,214,225,1,,,,
,,,,,,4e44e4e60beae01c984b3acf,66a626ef09d4e21e1a8894ec,6735ed13b4cf8e3c051ddcae,2024-11-14_13h35.23.509,Tarea de género gramatical,2024.2.2,Win32,59.52380952,,,,,,,,,,,,,,,,,,,,,,,568.6636,569.6467,l,1,[],[],[],[],[],[],[],0.325,1,569.6468,570.1472,,,,,,68,FEM,CON,150,pata,,a,0.325,,570.1472,570.1473,-0.318359375,0.008789063,0,0,0,,0,215,215,67,1,,,,
,,,,,,4e44e4e60beae01c984b3acf,66a626ef09d4e21e1a8894ec,6735ed13b4cf8e3c051ddcae,2024-11-14_13h35.23.509,Tarea de género gramatical,2024.2.2,Win32,59.52380952,,,,,,,,,,,,,,,,,,,,,,,570.1492,571.1977,l,1,[],[],[],[],[],[],[],0.3694,1,571.1979,571.6981,,,,,,283,FEM,AGR,150,pluma,la,a,0.3694,,571.6982,571.6983,-0.318359375,0.008789063,0,0,0,,0,216,216,282,1,,,,
,,,,,,4e44e4e60beae01c984b3acf,66a626ef09d4e21e1a8894ec,6735ed13b4cf8e3c051ddcae,2024-11-14_13h35.23.509,Tarea de género gramatical,2024.2.2,Win32,59.52380952,,,,,,,,,,,,,,,,,,,,,,,571.7002,572.7487,a,1,[],[],[],[],[],[],[],0.3786,1,572.7489,573.2492,,,,,,359,MAS,CON,150,bosque,,l,0.3786,,573.2492,573.2494,-0.318359375,0.008789063,0,0,0,,0,217,217,358,1,,,,
,,,,,,4e44e4e60beae01c984b3acf,66a626ef09d4e21e1a8894ec,6735ed13b4cf8e3c051ddcae,2024-11-14_13h35.23.509,Tarea de género gramatical,2024.2.2,Win32,59.52380952,,,,,,,,,,,,,,,,,,,,,,,573.2511,574.3498,a,1,[],[],[],[],[],[],[],0.4198,1,574.35,574.8502,,,,,,100,MAS,AGR,150,nido,el,l,0.4198,,574.8524,574.8542,-0.318359375,0.008789063,0,0,0,,0,218,218,99,1,,,,
,,,,,,4e44e4e60beae01c984b3acf,66a626ef09d4e21e1a8894ec,6735ed13b4cf8e3c051ddcae,2024-11-14_13h35.23.509,Tarea de género gramatical,2024.2.2,Win32,59.52380952,,,,,,,,,,,,,,,,,,,,,,,574.8556,575.9175,a,1,[],[],[],[],[],[],[],0.385,1,575.9177,576.418,,,,,,178,MAS,AGR,150,punto,el,l,0.385,,576.418,576.4181,-0.318359375,0.008789063,0,0,0,,0,219,219,177,1,,,,
,,,,,,4e44e4e60beae01c984b3acf,66a626ef09d4e21e1a8894ec,6735ed13b4cf8e3c051ddcae,2024-11-14_13h35.23.509,Tarea de género gramatical,2024.2.2,Win32,59.52380952,,,,,,,,,,,,,,,,,,,,,,,576.4199,577.4186,l,1,[],[],[],[],[],[],[],0.3213,1,577.4187,577.919,,,,,,187,FEM,AGR,150,lista,la,a,0.3213,,577.9191,577.9193,-0.318359375,0.008789063,0,0,0,,0,220,220,186,1,,,,
,,,,,,4e44e4e60beae01c984b3acf,66a626ef09d4e21e1a8894ec,6735ed13b4cf8e3c051ddcae,2024-11-14_13h35.23.509,Tarea de género gramatical,2024.2.2,Win32,59.52380952,,,,,,,,,,,,,,,,,,,,,,,577.9212,578.9863,a,0,[],[],[],[],[],[],[],0.3855,0,578.9875,579.4867,,,,,,57,FEM,DIS,150,moda,el,a,0.3855,,579.4868,579.487,-0.318359375,0.008789063,0,0,0,,0,221,221,56,1,,,,
,,,,,,4e44e4e60beae01c984b3acf,66a626ef09d4e21e1a8894ec,6735ed13b4cf8e3c051ddcae,2024-11-14_13h35.23.509,Tarea de género gramatical,2024.2.2,Win32,59.52380952,,,,,,,,,,,,,,,,,,,,,,,579.4888,580.6208,a,1,[],[],[],[],[],[],[],0.4527,1,580.6219,581.1211,,,,,,438,MAS,DIS,150,tanque,la,l,0.4527,,581.1233,581.125,-0.318359375,0.008789063,0,0,0,,0,222,222,437,1,,,,
,,,,,,4e44e4e60beae01c984b3acf,66a626ef09d4e21e1a8894ec,6735ed13b4cf8e3c051ddcae,2024-11-14_13h35.23.509,Tarea de género gramatical,2024.2.2,Win32,59.52380952,,,,,,,,,,,,,,,,,,,,,,,581.1264,582.2381,a,1,[],[],[],[],[],[],[],0.442,1,582.2381,582.7385,,,,,,168,MAS,DIS,150,sitio,la,l,0.442,,582.7385,582.7387,-0.318359375,0.008789063,0,0,0,,0,223,223,167,1,,,,
,,,,,,4e44e4e60beae01c984b3acf,66a626ef09d4e21e1a8894ec,6735ed13b4cf8e3c051ddcae,2024-11-14_13h35.23.509,Tarea de género gramatical,2024.2.2,Win32,59.52380952,,,,,,,,,,,,,,,,,,,,,,,582.7396,584.0397,a,1,[],[],[],[],[],[],[],0.6185,1,584.0398,584.54,,,,,,198,MAS,DIS,150,hotel,la,l,0.6185,,584.5401,584.5403,-0.318359375,0.008789063,0,0,0,,0,224,224,197,1,,,,
,,,,,,4e44e4e60beae01c984b3acf,66a626ef09d4e21e1a8894ec,6735ed13b4cf8e3c051ddcae,2024-11-14_13h35.23.509,Tarea de género gramatical,2024.2.2,Win32,59.52380952,,,,,,,,,,,,,,,,,,,,,,,584.542,585.6075,l,1,[],[],[],[],[],[],[],0.3926,1,585.6075,586.1077,,,,,,259,FEM,AGR,150,prima,la,a,0.3926,,586.1078,586.1081,-0.318359375,0.008789063,0,0,0,,0,225,225,258,1,,,,
,,,,,,4e44e4e60beae01c984b3acf,66a626ef09d4e21e1a8894ec,6735ed13b4cf8e3c051ddcae,2024-11-14_13h35.23.509,Tarea de género gramatical,2024.2.2,Win32,59.52380952,,,,,,,,,,,,,,,,,,,,,,,586.1097,587.6754,a,1,[],[],[],[],[],[],[],0.8851,1,587.6755,588.1758,,,,,,166,MAS,AGR,150,coche,el,l,0.8851,,588.1759,588.1761,-0.318359375,0.008789063,0,0,0,,0,226,226,165,1,,,,
,,,,,,4e44e4e60beae01c984b3acf,66a626ef09d4e21e1a8894ec,6735ed13b4cf8e3c051ddcae,2024-11-14_13h35.23.509,Tarea de género gramatical,2024.2.2,Win32,59.52380952,,,,,,,,,,,,,,,,,,,,,,,588.1776,589.3933,l,1,[],[],[],[],[],[],[],0.5409,1,589.3933,589.8937,,,,,,410,FEM,CON,150,piedad,,a,0.5409,,589.896,589.8977,-0.318359375,0.008789063,0,0,0,,0,227,227,409,1,,,,
,,,,,,4e44e4e60beae01c984b3acf,66a626ef09d4e21e1a8894ec,6735ed13b4cf8e3c051ddcae,2024-11-14_13h35.23.509,Tarea de género gramatical,2024.2.2,Win32,59.52380952,,,,,,,,,,,,,,,,,,,,,,,589.8991,591.0277,l,1,[],[],[],[],[],[],[],0.4553,1,591.0278,591.528,,,,,,201,FEM,DIS,150,leche,el,a,0.4553,,591.5281,591.5283,-0.318359375,0.008789063,0,0,0,,0,228,228,200,1,,,,
,,,,,,4e44e4e60beae01c984b3acf,66a626ef09d4e21e1a8894ec,6735ed13b4cf8e3c051ddcae,2024-11-14_13h35.23.509,Tarea de género gramatical,2024.2.2,Win32,59.52380952,,,,,,,,,,,,,,,,,,,,,,,591.5299,592.5954,a,1,[],[],[],[],[],[],[],0.3889,1,592.5956,593.0957,,,,,,119,MAS,CON,150,mito,,l,0.3889,,593.0959,593.096,-0.318359375,0.008789063,0,0,0,,0,229,229,118,1,,,,
,,,,,,4e44e4e60beae01c984b3acf,66a626ef09d4e21e1a8894ec,6735ed13b4cf8e3c051ddcae,2024-11-14_13h35.23.509,Tarea de género gramatical,2024.2.2,Win32,59.52380952,,,,,,,,,,,,,,,,,,,,,,,593.0977,594.1465,a,1,[],[],[],[],[],[],[],0.3729,1,594.1466,594.6469,,,,,,137,MAS,CON,150,coco,,l,0.3729,,594.6469,594.6471,-0.318359375,0.008789063,0,0,0,,0,230,230,136,1,,,,
,,,,,,4e44e4e60beae01c984b3acf,66a626ef09d4e21e1a8894ec,6735ed13b4cf8e3c051ddcae,2024-11-14_13h35.23.509,Tarea de género gramatical,2024.2.2,Win32,59.52380952,,,,,,,,,,,,,,,,,,,,,,,594.6488,595.6809,a,1,[],[],[],[],[],[],[],0.3524,1,595.681,596.1812,,,,,,246,MAS,DIS,150,humor,la,l,0.3524,,596.1832,596.1851,-0.318359375,0.008789063,0,0,0,,0,231,231,245,1,,,,
,,,,,,4e44e4e60beae01c984b3acf,66a626ef09d4e21e1a8894ec,6735ed13b4cf8e3c051ddcae,2024-11-14_13h35.23.509,Tarea de género gramatical,2024.2.2,Win32,59.52380952,,,,,,,,,,,,,,,,,,,,,,,596.1865,597.1317,a,1,[],[],[],[],[],[],[],0.2695,1,597.1319,597.632,,,,,,275,MAS,CON,150,disco,,l,0.2695,,597.6322,597.6323,-0.318359375,0.008789063,0,0,0,,0,232,232,274,1,,,,
,,,,,,4e44e4e60beae01c984b3acf,66a626ef09d4e21e1a8894ec,6735ed13b4cf8e3c051ddcae,2024-11-14_13h35.23.509,Tarea de género gramatical,2024.2.2,Win32,59.52380952,,,,,,,,,,,,,,,,,,,,,,,597.6341,598.7496,l,1,[],[],[],[],[],[],[],0.4445,1,598.7497,599.2499,,,,,,211,FEM,AGR,150,salud,la,a,0.4445,,599.2499,599.2501,-0.318359375,0.008789063,0,0,0,,0,233,233,210,1,,,,
,,,,,,4e44e4e60beae01c984b3acf,66a626ef09d4e21e1a8894ec,6735ed13b4cf8e3c051ddcae,2024-11-14_13h35.23.509,Tarea de género gramatical,2024.2.2,Win32,59.52380952,,,,,,,,,,,,,,,,,,,,,,,599.2518,600.3172,a,0,[],[],[],[],[],[],[],0.3853,0,600.3184,600.8176,,,,,,75,FEM,DIS,150,caza,el,a,0.3853,,600.8177,600.8178,-0.318359375,0.008789063,0,0,0,,0,234,234,74,1,,,,
,,,,,,4e44e4e60beae01c984b3acf,66a626ef09d4e21e1a8894ec,6735ed13b4cf8e3c051ddcae,2024-11-14_13h35.23.509,Tarea de género gramatical,2024.2.2,Win32,59.52380952,,,,,,,,,,,,,,,,,,,,,,,600.8198,601.9517,a,0,[],[],[],[],[],[],[],0.4512,0,601.9518,602.4521,,,,,,416,FEM,CON,150,colina,,a,0.4512,,602.4521,602.4523,-0.318359375,0.008789063,0,0,0,,0,235,235,415,1,,,,
,,,,,,4e44e4e60beae01c984b3acf,66a626ef09d4e21e1a8894ec,6735ed13b4cf8e3c051ddcae,2024-11-14_13h35.23.509,Tarea de género gramatical,2024.2.2,Win32,59.52380952,,,,,,,,,,,,,,,,,,,,,,,602.4539,603.6859,a,1,[],[],[],[],[],[],[],0.5531,1,603.6864,604.1862,,,,,,11,MAS,CON,150,país,,l,0.5531,,604.1874,604.1889,-0.318359375,0.008789063,0,0,0,,0,236,236,10,1,,,,
,,,,,,4e44e4e60beae01c984b3acf,66a626ef09d4e21e1a8894ec,6735ed13b4cf8e3c051ddcae,2024-11-14_13h35.23.509,Tarea de género gramatical,2024.2.2,Win32,59.52380952,,,,,,,,,,,,,,,,,,,,,,,604.1896,605.5708,l,1,[],[],[],[],[],[],[],0.7013,1,605.5709,606.0711,,,,,,81,FEM,DIS,150,cima,el,a,0.7013,,606.0711,606.0714,-0.318359375,0.008789063,0,0,0,,0,237,237,80,1,,,,
,,,,,,4e44e4e60beae01c984b3acf,66a626ef09d4e21e1a8894ec,6735ed13b4cf8e3c051ddcae,2024-11-14_13h35.23.509,Tarea de género gramatical,2024.2.2,Win32,59.52380952,,,,,,,,,,,,,,,,,,,,,,,606.073,607.1218,l,1,[],[],[],[],[],[],[],0.368,1,607.1219,607.6221,,,,,,308,FEM,CON,150,semana,,a,0.368,,607.6223,607.6223,-0.318359375,0.008789063,0,0,0,,0,238,238,307,1,,,,
,,,,,,4e44e4e60beae01c984b3acf,66a626ef09d4e21e1a8894ec,6735ed13b4cf8e3c051ddcae,2024-11-14_13h35.23.509,Tarea de género gramatical,2024.2.2,Win32,59.52380952,,,,,,,,,,,,,,,,,,,,,,,607.6241,608.7562,l,1,[],[],[],[],[],[],[],0.4513,1,608.7563,609.2566,,,,,,343,FEM,AGR,150,trampa,la,a,0.4513,,609.2566,609.2569,-0.318359375,0.008789063,0,0,0,,0,239,239,342,1,,,,
,,,,,,4e44e4e60beae01c984b3acf,66a626ef09d4e21e1a8894ec,6735ed13b4cf8e3c051ddcae,2024-11-14_13h35.23.509,Tarea de género gramatical,2024.2.2,Win32,59.52380952,,,,,,,,,,,,,,,,,,,,,,,609.2584,610.3073,l,1,[],[],[],[],[],[],[],0.3667,1,610.3075,610.8076,,,,,,326,FEM,CON,150,música,,a,0.3667,,610.81,610.8117,-0.318359375,0.008789063,0,0,0,,0,240,240,325,1,,,,
,,,,,,4e44e4e60beae01c984b3acf,66a626ef09d4e21e1a8894ec,6735ed13b4cf8e3c051ddcae,2024-11-14_13h35.23.509,Tarea de género gramatical,2024.2.2,Win32,59.52380952,,,,,,,,,,,,,,,,,,,,,,,610.8131,611.9084,a,1,[],[],[],[],[],[],[],0.4178,1,611.9084,612.4086,,,,,,414,MAS,DIS,150,sótano,la,l,0.4178,,612.4087,612.4089,-0.318359375,0.008789063,0,0,0,,0,241,241,413,1,,,,
,,,,,,4e44e4e60beae01c984b3acf,66a626ef09d4e21e1a8894ec,6735ed13b4cf8e3c051ddcae,2024-11-14_13h35.23.509,Tarea de género gramatical,2024.2.2,Win32,59.52380952,,,,,,,,,,,,,,,,,,,,,,,612.4106,613.8764,a,1,[],[],[],[],[],[],[],0.7892,1,613.8765,614.3767,,,,,,124,MAS,AGR,150,clan,el,l,0.7892,,614.3768,614.3769,-0.318359375,0.008789063,0,0,0,,0,242,242,123,1,,,,
,,,,,,4e44e4e60beae01c984b3acf,66a626ef09d4e21e1a8894ec,6735ed13b4cf8e3c051ddcae,2024-11-14_13h35.23.509,Tarea de género gramatical,2024.2.2,Win32,59.52380952,,,,,,,,,,,,,,,,,,,,,,,614.3785,615.4273,l,1,[],[],[],[],[],[],[],0.3662,1,615.4275,615.9277,,,,,,158,FEM,CON,150,chica,,a,0.3662,,615.9278,615.928,-0.318359375,0.008789063,0,0,0,,0,243,243,157,1,,,,
,,,,,,4e44e4e60beae01c984b3acf,66a626ef09d4e21e1a8894ec,6735ed13b4cf8e3c051ddcae,2024-11-14_13h35.23.509,Tarea de género gramatical,2024.2.2,Win32,59.52380952,,,,,,,,,,,,,,,,,,,,,,,615.9311,617.2285,a,1,[],[],[],[],[],[],[],0.6275,1,617.2287,617.7286,,,,,,42,MAS,DIS,150,show,la,l,0.6275,,617.7286,617.7287,-0.318359375,0.008789063,0,0,0,,0,244,244,41,1,,,,
,,,,,,4e44e4e60beae01c984b3acf,66a626ef09d4e21e1a8894ec,6735ed13b4cf8e3c051ddcae,2024-11-14_13h35.23.509,Tarea de género gramatical,2024.2.2,Win32,59.52380952,,,,,,,,,,,,,,,,,,,,,,,617.7296,618.8626,l,1,[],[],[],[],[],[],[],0.4744,1,618.8627,619.3629,,,,,,231,FEM,DIS,150,bruja,el,a,0.4744,,619.3635,619.3642,-0.318359375,0.008789063,0,0,0,,0,245,245,230,1,,,,
,,,,,,4e44e4e60beae01c984b3acf,66a626ef09d4e21e1a8894ec,6735ed13b4cf8e3c051ddcae,2024-11-14_13h35.23.509,Tarea de género gramatical,2024.2.2,Win32,59.52380952,,,,,,,,,,,,,,,,,,,,,,,619.3654,620.3971,l,0,[],[],[],[],[],[],[],0.3591,0,620.3977,620.8975,,,,,,59,MAS,CON,150,lobo,,l,0.3591,,620.8975,620.8976,-0.318359375,0.008789063,0,0,0,,0,246,246,58,1,,,,
,,,,,,4e44e4e60beae01c984b3acf,66a626ef09d4e21e1a8894ec,6735ed13b4cf8e3c051ddcae,2024-11-14_13h35.23.509,Tarea de género gramatical,2024.2.2,Win32,59.52380952,,,,,,,,,,,,,,,,,,,,,,,620.8987,622.0152,l,1,[],[],[],[],[],[],[],0.4335,1,622.0163,622.5151,,,,,,45,FEM,DIS,150,isla,el,a,0.4335,,622.5152,622.5152,-0.318359375,0.008789063,0,0,0,,0,247,247,44,1,,,,
,,,,,,4e44e4e60beae01c984b3acf,66a626ef09d4e21e1a8894ec,6735ed13b4cf8e3c051ddcae,2024-11-14_13h35.23.509,Tarea de género gramatical,2024.2.2,Win32,59.52380952,,,,,,,,,,,,,,,,,,,,,,,622.5159,623.9998,a,1,[],[],[],[],[],[],[],0.8256,1,623.9999,624.5002,,,,,,132,MAS,DIS,150,velo,la,l,0.8256,,624.5002,624.5004,-0.318359375,0.008789063,0,0,0,,0,248,248,131,1,,,,
,,,,,,4e44e4e60beae01c984b3acf,66a626ef09d4e21e1a8894ec,6735ed13b4cf8e3c051ddcae,2024-11-14_13h35.23.509,Tarea de género gramatical,2024.2.2,Win32,59.52380952,,,,,,,,,,,,,,,,,,,,,,,624.502,625.7181,a,0,[],[],[],[],[],[],[],0.5352,0,625.7193,626.2179,,,,,,350,FEM,CON,150,imagen,,a,0.5352,,626.2203,626.222,-0.318359375,0.008789063,0,0,0,,0,249,249,349,1,,,,
,,,,,,4e44e4e60beae01c984b3acf,66a626ef09d4e21e1a8894ec,6735ed13b4cf8e3c051ddcae,2024-11-14_13h35.23.509,Tarea de género gramatical,2024.2.2,Win32,59.52380952,,,,,,,,,,,,,,,,,,,,,,,626.2236,627.4188,l,1,[],[],[],[],[],[],[],0.5213,1,627.4199,627.9191,,,,,,417,FEM,DIS,150,cabaña,el,a,0.5213,,627.9192,627.9193,-0.318359375,0.008789063,0,0,0,,0,250,250,416,1,,,,
,,,,,,4e44e4e60beae01c984b3acf,66a626ef09d4e21e1a8894ec,6735ed13b4cf8e3c051ddcae,2024-11-14_13h35.23.509,Tarea de género gramatical,2024.2.2,Win32,59.52380952,,,,,,,,,,,,,,,,,,,,,,,627.9211,629.1199,a,1,[],[],[],[],[],[],[],0.5242,1,629.12,629.6202,,,,,,202,MAS,AGR,150,honor,el,l,0.5242,,629.6202,629.6204,-0.318359375,0.008789063,0,0,0,,0,251,251,201,1,,,,
