counterbalancing_condition,consent_prescreening.block_1/declare_consent,consent_prescreening.block_1/age_years,consent_prescreening.block_1/gender,consent_prescreening.block_1/language_disorder,consent_prescreening.block_1/first_language,PROLIFIC_PID,STUDY_ID,SESSION_ID,date,expName,psychopyVersion,OS,frameRate,check_prescreening_answers.started,check_prescreening_answers.stopped,Instructions.started,Instructions.stopped,instr_done_keyboard.keys,instr_done_touch.x,instr_done_touch.y,instr_done_touch.leftButton,instr_done_touch.midButton,instr_done_touch.rightButton,instr_done_touch.clicked_name,instruction_pages.thisRepN,instruction_pages.thisTrialN,instruction_pages.thisN,instruction_pages.thisIndex,instruction_pages.ran,pageN,phase,instruct_text,has_image,instruct_image,instr_done_keyboard.rt,instr_done_keyboard.duration,presentTrial.started,presentTrial.stopped,response.keys,response.corr,response.rt,response.duration,touch_resp.x,touch_resp.y,touch_resp.leftButton,touch_resp.midButton,touch_resp.rightButton,touch_resp.time,touch_resp.clicked_name,rt,corr,feedback.started,feedback.stopped,practice_trials.thisRepN,practice_trials.thisTrialN,practice_trials.thisN,practice_trials.thisIndex,practice_trials.ran,TrialID,StimulusType,Condition,PrimeDuration,Prime,Flanker,corrAns,Break.started,Break.stopped,break_done_touch.x,break_done_touch.y,break_done_touch.leftButton,break_done_touch.midButton,break_done_touch.rightButton,break_done_keyboard.keys,experiment_trials.thisRepN,experiment_trials.thisTrialN,experiment_trials.thisN,experiment_trials.thisIndex,experiment_trials.ran,break_done_keyboard.rt,break_done_keyboard.duration,End.started,End.stopped
2,"[""over_18"",""comfortable"",""read_info"",""consent_given""]",23,M,"[""none""]","[""spanish""]",4ebd8e545ee0f85d41ff7919,66a626ef09d4e21e1a8894ec,6734a14de3ffd52ac6321921,2024-11-13_07h16.01.194,Tarea de género gramatical,2024.2.2,MacIntel,60.24096386,,,,,,,,,,,,,,,,,,,,,,,,,,,,,,,,,,,,,,,,,,,,,,,,,,,,,,,,,,,,,,,,,,,,,
,,,,,,4ebd8e545ee0f85d41ff7919,66a626ef09d4e21e1a8894ec,6734a14de3ffd52ac6321921,2024-11-13_07h16.01.194,Tarea de género gramatical,2024.2.2,MacIntel,60.24096386,22.487,22.4873,,,,,,,,,,,,,,,,,,,,,,,,,,,,,,,,,,,,,,,,,,,,,,,,,,,,,,,,,,,,,,,,,,,
,,,,,,4ebd8e545ee0f85d41ff7919,66a626ef09d4e21e1a8894ec,6734a14de3ffd52ac6321921,2024-11-13_07h16.01.194,Tarea de género gramatical,2024.2.2,MacIntel,60.24096386,,,22.5139,23.638,,0.120539904,-0.365172545,1,0,0,instr_done_button,0,0,0,0,1,1,instructions,"INSTRUCCIONES
Va a realizar una prueba de selección gramatical. Desde el comienzo de la prueba mire siempre al centro de la pantalla. Al cabo de un momento, aparecerán palabras. La tarea consiste en determinar si la palabra del centro (siempre será un sustantivo), pertenece al género masculino o femenino.

Pulse la tecla ESPACIO o toque el botón de abajo para continuar.",0,keyboardresponseMF.png,,,,,,,,,,,,,,,,,,,,,,,,,,,,,,,,,,,,,,,,,,,,,,,,
,,,,,,4ebd8e545ee0f85d41ff7919,66a626ef09d4e21e1a8894ec,6734a14de3ffd52ac6321921,2024-11-13_07h16.01.194,Tarea de género gramatical,2024.2.2,MacIntel,60.24096386,,,23.6406,24.4203,,0.116075516,-0.365767797,1,0,0,instr_done_button,0,1,1,1,1,2,instructions,"Si su dispositivo tiene teclado, pulse la tecla ""A"" para las palabras en masculino (por ejemplo: ""arroz"") y la tecla ""L"" para las palabras en femenino (por ejemplo: ""mano"").
Pulse la tecla ESPACIO o toque el botón de abajo para continuar.",1,keyboardresponseMF.png,,,,,,,,,,,,,,,,,,,,,,,,,,,,,,,,,,,,,,,,,,,,,,,,
,,,,,,4ebd8e545ee0f85d41ff7919,66a626ef09d4e21e1a8894ec,6734a14de3ffd52ac6321921,2024-11-13_07h16.01.194,Tarea de género gramatical,2024.2.2,MacIntel,60.24096386,,,24.4229,25.9702,space,0.110174815,-0.377086322,0,0,0,,0,2,2,2,1,3,instructions,"Si utiliza un dispositivo sólo táctil, colóquelo en horizontal y utilice los botones de la pantalla. No utilice el ratón.
Pulse la tecla ESPACIO o toque el botón de abajo para continuar.",2,touchresponseMF.png,1.4992,,,,,,,,,,,,,,,,,,,,,,,,,,,,,,,,,,,,,,,,,,,,,,,
,,,,,,4ebd8e545ee0f85d41ff7919,66a626ef09d4e21e1a8894ec,6734a14de3ffd52ac6321921,2024-11-13_07h16.01.194,Tarea de género gramatical,2024.2.2,MacIntel,60.24096386,,,25.9735,27.5196,space,0.110174815,-0.377086322,0,0,0,,0,3,3,3,1,4,instructions,"Es muy importante que responda con la mayor rapidez y precisión posibles, ya que cada cadena de letras sólo estará en pantalla durante un instante. Si no responde en ese tiempo, aparecerá el mensaje ""Muy lento"" y el experimento pasará a la siguiente palabra. Los primeros 15 intentos serán de práctica y habrá dos descansos durante la prueba.
Pulse la tecla ESPACIO o toque el botón de abajo para iniciar la parte de práctica.",0,keyboardresponseMF.png,1.5339,,,,,,,,,,,,,,,,,,,,,,,,,,,,,,,,,,,,,,,,,,,,,,,
,,,,,,4ebd8e545ee0f85d41ff7919,66a626ef09d4e21e1a8894ec,6734a14de3ffd52ac6321921,2024-11-13_07h16.01.194,Tarea de género gramatical,2024.2.2,MacIntel,60.24096386,,,,,,,,,,,,,,,,,,,,,,,,27.5379,28.4694,a,1,0.2535,,[],[],[],[],[],[],[],0.2535,1,28.47,28.9682,0,0,0,11,1,2012,MAS,DIS,150,clima,la,l,,,,,,,,,,,,,,,,,
,,,,,,4ebd8e545ee0f85d41ff7919,66a626ef09d4e21e1a8894ec,6734a14de3ffd52ac6321921,2024-11-13_07h16.01.194,Tarea de género gramatical,2024.2.2,MacIntel,60.24096386,,,,,,,,,,,,,,,,,,,,,,,,28.9697,29.9521,a,1,0.3,,[],[],[],[],[],[],[],0.3,1,29.9523,30.4518,0,1,1,13,1,2014,MAS,CON,150,siglo,,l,,,,,,,,,,,,,,,,,
,,,,,,4ebd8e545ee0f85d41ff7919,66a626ef09d4e21e1a8894ec,6734a14de3ffd52ac6321921,2024-11-13_07h16.01.194,Tarea de género gramatical,2024.2.2,MacIntel,60.24096386,,,,,,,,,,,,,,,,,,,,,,,,30.4531,31.235,a,1,0.1098,,[],[],[],[],[],[],[],0.1098,1,31.2351,31.7344,0,2,2,8,1,2009,MAS,DIS,150,puerto,la,l,,,,,,,,,,,,,,,,,
,,,,,,4ebd8e545ee0f85d41ff7919,66a626ef09d4e21e1a8894ec,6734a14de3ffd52ac6321921,2024-11-13_07h16.01.194,Tarea de género gramatical,2024.2.2,MacIntel,60.24096386,,,,,,,,,,,,,,,,,,,,,,,,31.7357,32.5348,a,0,0.1248,,[],[],[],[],[],[],[],0.1248,0,32.536,33.0347,0,3,3,0,1,2001,FEM,AGR,150,nuca,la,a,,,,,,,,,,,,,,,,,
,,,,,,4ebd8e545ee0f85d41ff7919,66a626ef09d4e21e1a8894ec,6734a14de3ffd52ac6321921,2024-11-13_07h16.01.194,Tarea de género gramatical,2024.2.2,MacIntel,60.24096386,,,,,,,,,,,,,,,,,,,,,,,,33.0358,34.0175,a,0,0.3079,,[],[],[],[],[],[],[],0.3079,0,34.0176,34.5173,0,4,4,5,1,2006,FEM,DIS,150,serie,el,a,,,,,,,,,,,,,,,,,
,,,,,,4ebd8e545ee0f85d41ff7919,66a626ef09d4e21e1a8894ec,6734a14de3ffd52ac6321921,2024-11-13_07h16.01.194,Tarea de género gramatical,2024.2.2,MacIntel,60.24096386,,,,,,,,,,,,,,,,,,,,,,,,34.5186,35.8497,a,0,0.6603,,[],[],[],[],[],[],[],0.6603,0,35.8497,36.3506,0,5,5,1,1,2002,FEM,CON,150,pala,,a,,,,,,,,,,,,,,,,,
,,,,,,4ebd8e545ee0f85d41ff7919,66a626ef09d4e21e1a8894ec,6734a14de3ffd52ac6321921,2024-11-13_07h16.01.194,Tarea de género gramatical,2024.2.2,MacIntel,60.24096386,,,,,,,,,,,,,,,,,,,,,,,,36.3516,37.1502,l,0,0.1251,,[],[],[],[],[],[],[],0.1251,0,37.1504,37.6501,0,6,6,10,1,2011,MAS,CON,150,canal,,l,,,,,,,,,,,,,,,,,
,,,,,,4ebd8e545ee0f85d41ff7919,66a626ef09d4e21e1a8894ec,6734a14de3ffd52ac6321921,2024-11-13_07h16.01.194,Tarea de género gramatical,2024.2.2,MacIntel,60.24096386,,,,,,,,,,,,,,,,,,,,,,,,37.6514,38.4167,a,1,0.0891,,[],[],[],[],[],[],[],0.0891,1,38.4177,38.9166,0,7,7,9,1,2010,MAS,AGR,150,vecino,el,l,,,,,,,,,,,,,,,,,
,,,,,,4ebd8e545ee0f85d41ff7919,66a626ef09d4e21e1a8894ec,6734a14de3ffd52ac6321921,2024-11-13_07h16.01.194,Tarea de género gramatical,2024.2.2,MacIntel,60.24096386,,,,,,,,,,,,,,,,,,,,,,,,38.9178,39.7664,a,0,0.17,,[],[],[],[],[],[],[],0.17,0,39.7675,40.2662,0,8,8,4,1,2005,FEM,CON,150,placa,,a,,,,,,,,,,,,,,,,,
,,,,,,4ebd8e545ee0f85d41ff7919,66a626ef09d4e21e1a8894ec,6734a14de3ffd52ac6321921,2024-11-13_07h16.01.194,Tarea de género gramatical,2024.2.2,MacIntel,60.24096386,,,,,,,,,,,,,,,,,,,,,,,,40.2677,41.0494,l,0,0.0994,,[],[],[],[],[],[],[],0.0994,0,41.0495,41.5492,0,9,9,14,1,2015,MAS,DIS,150,robot,la,l,,,,,,,,,,,,,,,,,
,,,,,,4ebd8e545ee0f85d41ff7919,66a626ef09d4e21e1a8894ec,6734a14de3ffd52ac6321921,2024-11-13_07h16.01.194,Tarea de género gramatical,2024.2.2,MacIntel,60.24096386,,,,,,,,,,,,,,,,,,,,,,,,41.5506,42.3157,a,0,0.0879,,[],[],[],[],[],[],[],0.0879,0,42.3159,42.8156,0,10,10,2,1,2003,FEM,DIS,150,daga,el,a,,,,,,,,,,,,,,,,,
,,,,,,4ebd8e545ee0f85d41ff7919,66a626ef09d4e21e1a8894ec,6734a14de3ffd52ac6321921,2024-11-13_07h16.01.194,Tarea de género gramatical,2024.2.2,MacIntel,60.24096386,,,,,,,,,,,,,,,,,,,,,,,,42.8168,44.2811,a,0,0.7829,,[],[],[],[],[],[],[],0.7829,0,44.2812,44.7819,0,11,11,6,1,2007,FEM,AGR,150,navaja,la,a,,,,,,,,,,,,,,,,,
,,,,,,4ebd8e545ee0f85d41ff7919,66a626ef09d4e21e1a8894ec,6734a14de3ffd52ac6321921,2024-11-13_07h16.01.194,Tarea de género gramatical,2024.2.2,MacIntel,60.24096386,,,,,,,,,,,,,,,,,,,,,,,,44.7829,45.6482,l,1,0.1896,,[],[],[],[],[],[],[],0.1896,1,45.6493,46.1482,0,12,12,7,1,2008,FEM,CON,150,siesta,,a,,,,,,,,,,,,,,,,,
,,,,,,4ebd8e545ee0f85d41ff7919,66a626ef09d4e21e1a8894ec,6734a14de3ffd52ac6321921,2024-11-13_07h16.01.194,Tarea de género gramatical,2024.2.2,MacIntel,60.24096386,,,,,,,,,,,,,,,,,,,,,,,,46.1495,46.9646,l,0,0.1369,,[],[],[],[],[],[],[],0.1369,0,46.9658,47.4644,0,13,13,12,1,2013,MAS,AGR,150,acero,el,l,,,,,,,,,,,,,,,,,
,,,,,,4ebd8e545ee0f85d41ff7919,66a626ef09d4e21e1a8894ec,6734a14de3ffd52ac6321921,2024-11-13_07h16.01.194,Tarea de género gramatical,2024.2.2,MacIntel,60.24096386,,,,,,,,,,,,,,,,,,,,,,,,47.4656,48.181,a,0,0.0396,,[],[],[],[],[],[],[],0.0396,0,48.1811,48.6808,0,14,14,3,1,2004,FEM,AGR,150,venta,la,a,,,,,,,,,,,,,,,,,
,,,,,,4ebd8e545ee0f85d41ff7919,66a626ef09d4e21e1a8894ec,6734a14de3ffd52ac6321921,2024-11-13_07h16.01.194,Tarea de género gramatical,2024.2.2,MacIntel,60.24096386,,,50.6668,52.0303,space,0.110174815,-0.377086322,0,0,0,,,,,,,,,,,,1.3479,,52.0693,53.0507,a,1,0.3163,,[],[],[],[],[],[],[],0.3163,1,53.0518,53.5459,,,,,,1096,MAS,DIS,150,barco,la,l,53.5463,53.5497,0.110174815,-0.377086322,0,0,0,,0,0,0,195,1,,,,
,,,,,,4ebd8e545ee0f85d41ff7919,66a626ef09d4e21e1a8894ec,6734a14de3ffd52ac6321921,2024-11-13_07h16.01.194,Tarea de género gramatical,2024.2.2,MacIntel,60.24096386,,,,,,,,,,,,,,,,,,,,,,,,53.5505,54.6293,a,1,0.4049,,[],[],[],[],[],[],[],0.4049,1,54.6294,55.1291,,,,,,1234,MAS,DIS,150,ataque,la,l,55.1292,55.1293,0.110174815,-0.377086322,0,0,0,,0,1,1,333,1,,,,
,,,,,,4ebd8e545ee0f85d41ff7919,66a626ef09d4e21e1a8894ec,6734a14de3ffd52ac6321921,2024-11-13_07h16.01.194,Tarea de género gramatical,2024.2.2,MacIntel,60.24096386,,,,,,,,,,,,,,,,,,,,,,,,55.1305,56.4949,l,0,0.6894,,[],[],[],[],[],[],[],0.6894,0,56.4959,56.9953,,,,,,1182,MAS,CON,150,bolso,,l,56.9969,56.998,0.110174815,-0.377086322,0,0,0,,0,2,2,281,1,,,,
,,,,,,4ebd8e545ee0f85d41ff7919,66a626ef09d4e21e1a8894ec,6734a14de3ffd52ac6321921,2024-11-13_07h16.01.194,Tarea de género gramatical,2024.2.2,MacIntel,60.24096386,,,,,,,,,,,,,,,,,,,,,,,,56.9986,57.845,a,0,0.176,,[],[],[],[],[],[],[],0.176,0,57.8452,58.344,,,,,,1269,FEM,CON,150,camisa,,a,58.3441,58.3442,0.110174815,-0.377086322,0,0,0,,0,3,3,368,1,,,,
,,,,,,4ebd8e545ee0f85d41ff7919,66a626ef09d4e21e1a8894ec,6734a14de3ffd52ac6321921,2024-11-13_07h16.01.194,Tarea de género gramatical,2024.2.2,MacIntel,60.24096386,,,,,,,,,,,,,,,,,,,,,,,,58.3454,59.5613,l,1,0.5486,,[],[],[],[],[],[],[],0.5486,1,59.5624,60.0612,,,,,,1119,FEM,CON,150,costa,,a,60.0613,60.0614,0.110174815,-0.377086322,0,0,0,,0,4,4,218,1,,,,
,,,,,,4ebd8e545ee0f85d41ff7919,66a626ef09d4e21e1a8894ec,6734a14de3ffd52ac6321921,2024-11-13_07h16.01.194,Tarea de género gramatical,2024.2.2,MacIntel,60.24096386,,,,,,,,,,,,,,,,,,,,,,,,60.0628,60.9108,l,0,0.1748,,[],[],[],[],[],[],[],0.1748,0,60.9115,61.4108,,,,,,953,MAS,AGR,150,vaso,el,l,61.4109,61.4111,0.110174815,-0.377086322,0,0,0,,0,5,5,52,1,,,,
,,,,,,4ebd8e545ee0f85d41ff7919,66a626ef09d4e21e1a8894ec,6734a14de3ffd52ac6321921,2024-11-13_07h16.01.194,Tarea de género gramatical,2024.2.2,MacIntel,60.24096386,,,,,,,,,,,,,,,,,,,,,,,,61.4124,62.294,a,0,0.2026,,[],[],[],[],[],[],[],0.2026,0,62.2941,62.7935,,,,,,1099,FEM,DIS,150,nariz,el,a,62.7952,62.7964,0.110174815,-0.377086322,0,0,0,,0,6,6,198,1,,,,
,,,,,,4ebd8e545ee0f85d41ff7919,66a626ef09d4e21e1a8894ec,6734a14de3ffd52ac6321921,2024-11-13_07h16.01.194,Tarea de género gramatical,2024.2.2,MacIntel,60.24096386,,,,,,,,,,,,,,,,,,,,,,,,62.7972,63.5936,a,1,0.1224,,[],[],[],[],[],[],[],0.1224,1,63.5947,64.0935,,,,,,1132,MAS,DIS,150,calor,la,l,64.0936,64.0937,0.110174815,-0.377086322,0,0,0,,0,7,7,231,1,,,,
,,,,,,4ebd8e545ee0f85d41ff7919,66a626ef09d4e21e1a8894ec,6734a14de3ffd52ac6321921,2024-11-13_07h16.01.194,Tarea de género gramatical,2024.2.2,MacIntel,60.24096386,,,,,,,,,,,,,,,,,,,,,,,,64.0948,65.0599,a,0,0.2894,,[],[],[],[],[],[],[],0.2894,0,65.0608,65.5599,,,,,,1293,FEM,CON,150,alarma,,a,65.56,65.56,0.110174815,-0.377086322,0,0,0,,0,8,8,392,1,,,,
,,,,,,4ebd8e545ee0f85d41ff7919,66a626ef09d4e21e1a8894ec,6734a14de3ffd52ac6321921,2024-11-13_07h16.01.194,Tarea de género gramatical,2024.2.2,MacIntel,60.24096386,,,,,,,,,,,,,,,,,,,,,,,,65.5614,66.3596,a,1,0.1179,,[],[],[],[],[],[],[],0.1179,1,66.361,66.8595,,,,,,923,MAS,AGR,150,rato,el,l,66.8596,66.8597,0.110174815,-0.377086322,0,0,0,,0,9,9,22,1,,,,
,,,,,,4ebd8e545ee0f85d41ff7919,66a626ef09d4e21e1a8894ec,6734a14de3ffd52ac6321921,2024-11-13_07h16.01.194,Tarea de género gramatical,2024.2.2,MacIntel,60.24096386,,,,,,,,,,,,,,,,,,,,,,,,66.8609,67.7091,a,1,0.176,,[],[],[],[],[],[],[],0.176,1,67.7091,68.2085,,,,,,940,MAS,DIS,150,dios,la,l,68.2086,68.2088,0.110174815,-0.377086322,0,0,0,,0,10,10,39,1,,,,
,,,,,,4ebd8e545ee0f85d41ff7919,66a626ef09d4e21e1a8894ec,6734a14de3ffd52ac6321921,2024-11-13_07h16.01.194,Tarea de género gramatical,2024.2.2,MacIntel,60.24096386,,,,,,,,,,,,,,,,,,,,,,,,68.2101,69.0423,a,1,0.1485,,[],[],[],[],[],[],[],0.1485,1,69.0424,69.5416,,,,,,1068,MAS,CON,150,sitio,,l,69.5434,69.5446,0.110174815,-0.377086322,0,0,0,,0,11,11,167,1,,,,
,,,,,,4ebd8e545ee0f85d41ff7919,66a626ef09d4e21e1a8894ec,6734a14de3ffd52ac6321921,2024-11-13_07h16.01.194,Tarea de género gramatical,2024.2.2,MacIntel,60.24096386,,,,,,,,,,,,,,,,,,,,,,,,69.5454,70.3587,a,1,0.1351,,[],[],[],[],[],[],[],0.1351,1,70.3587,70.8585,,,,,,1198,MAS,DIS,150,botón,la,l,70.8585,70.8587,0.110174815,-0.377086322,0,0,0,,0,12,12,297,1,,,,
,,,,,,4ebd8e545ee0f85d41ff7919,66a626ef09d4e21e1a8894ec,6734a14de3ffd52ac6321921,2024-11-13_07h16.01.194,Tarea de género gramatical,2024.2.2,MacIntel,60.24096386,,,,,,,,,,,,,,,,,,,,,,,,70.8599,71.6416,a,1,0.1065,,[],[],[],[],[],[],[],0.1065,1,71.6417,72.1415,,,,,,965,MAS,AGR,150,rayo,el,l,72.1415,72.1416,0.110174815,-0.377086322,0,0,0,,0,13,13,64,1,,,,
,,,,,,4ebd8e545ee0f85d41ff7919,66a626ef09d4e21e1a8894ec,6734a14de3ffd52ac6321921,2024-11-13_07h16.01.194,Tarea de género gramatical,2024.2.2,MacIntel,60.24096386,,,,,,,,,,,,,,,,,,,,,,,,72.1429,72.8903,a,0,0.0779,,[],[],[],[],[],[],[],0.0779,0,72.8912,73.3902,,,,,,1057,FEM,DIS,150,madre,el,a,73.3902,73.3904,0.110174815,-0.377086322,0,0,0,,0,14,14,156,1,,,,
,,,,,,4ebd8e545ee0f85d41ff7919,66a626ef09d4e21e1a8894ec,6734a14de3ffd52ac6321921,2024-11-13_07h16.01.194,Tarea de género gramatical,2024.2.2,MacIntel,60.24096386,,,,,,,,,,,,,,,,,,,,,,,,73.391,74.1411,l,1,0.0866,,[],[],[],[],[],[],[],0.0866,1,74.1422,74.6409,,,,,,1046,FEM,AGR,150,lana,la,a,74.6427,74.6437,0.110174815,-0.377086322,0,0,0,,0,15,15,145,1,,,,
,,,,,,4ebd8e545ee0f85d41ff7919,66a626ef09d4e21e1a8894ec,6734a14de3ffd52ac6321921,2024-11-13_07h16.01.194,Tarea de género gramatical,2024.2.2,MacIntel,60.24096386,,,,,,,,,,,,,,,,,,,,,,,,74.6444,75.5236,l,0,0.2059,,[],[],[],[],[],[],[],0.2059,0,75.5248,76.0229,,,,,,1222,MAS,DIS,150,minuto,la,l,76.023,76.023,0.110174815,-0.377086322,0,0,0,,0,16,16,321,1,,,,
,,,,,,4ebd8e545ee0f85d41ff7919,66a626ef09d4e21e1a8894ec,6734a14de3ffd52ac6321921,2024-11-13_07h16.01.194,Tarea de género gramatical,2024.2.2,MacIntel,60.24096386,,,,,,,,,,,,,,,,,,,,,,,,76.0242,76.707,a,1,0.005,,[],[],[],[],[],[],[],0.005,1,76.7082,77.2067,,,,,,976,MAS,DIS,150,lujo,la,l,77.2067,77.2068,0.110174815,-0.377086322,0,0,0,,0,17,17,75,1,,,,
,,,,,,4ebd8e545ee0f85d41ff7919,66a626ef09d4e21e1a8894ec,6734a14de3ffd52ac6321921,2024-11-13_07h16.01.194,Tarea de género gramatical,2024.2.2,MacIntel,60.24096386,,,,,,,,,,,,,,,,,,,,,,,,77.2077,78.0067,a,0,0.1247,,[],[],[],[],[],[],[],0.1247,0,78.0076,78.5066,,,,,,1201,FEM,DIS,150,verdad,el,a,78.5066,78.5067,0.110174815,-0.377086322,0,0,0,,0,18,18,300,1,,,,
,,,,,,4ebd8e545ee0f85d41ff7919,66a626ef09d4e21e1a8894ec,6734a14de3ffd52ac6321921,2024-11-13_07h16.01.194,Tarea de género gramatical,2024.2.2,MacIntel,60.24096386,,,,,,,,,,,,,,,,,,,,,,,,78.508,79.6227,l,0,0.44,,[],[],[],[],[],[],[],0.44,0,79.6228,80.1228,,,,,,1349,MAS,AGR,150,payaso,el,l,80.1228,80.123,0.110174815,-0.377086322,0,0,0,,0,19,19,448,1,,,,
,,,,,,4ebd8e545ee0f85d41ff7919,66a626ef09d4e21e1a8894ec,6734a14de3ffd52ac6321921,2024-11-13_07h16.01.194,Tarea de género gramatical,2024.2.2,MacIntel,60.24096386,,,,,,,,,,,,,,,,,,,,,,,,80.124,81.3051,a,0,0.5081,,[],[],[],[],[],[],[],0.5081,0,81.3051,81.8047,,,,,,1202,FEM,AGR,150,cabeza,la,a,81.8065,81.8075,0.110174815,-0.377086322,0,0,0,,0,20,20,301,1,,,,
,,,,,,4ebd8e545ee0f85d41ff7919,66a626ef09d4e21e1a8894ec,6734a14de3ffd52ac6321921,2024-11-13_07h16.01.194,Tarea de género gramatical,2024.2.2,MacIntel,60.24096386,,,,,,,,,,,,,,,,,,,,,,,,81.8082,82.5883,l,0,0.1031,,[],[],[],[],[],[],[],0.1031,0,82.5884,83.0877,,,,,,1223,MAS,AGR,150,marido,el,l,83.0877,83.0878,0.110174815,-0.377086322,0,0,0,,0,21,21,322,1,,,,
,,,,,,4ebd8e545ee0f85d41ff7919,66a626ef09d4e21e1a8894ec,6734a14de3ffd52ac6321921,2024-11-13_07h16.01.194,Tarea de género gramatical,2024.2.2,MacIntel,60.24096386,,,,,,,,,,,,,,,,,,,,,,,,83.089,84.172,a,0,0.4042,,[],[],[],[],[],[],[],0.4042,0,84.1721,84.6717,,,,,,1125,FEM,CON,150,pieza,,a,84.6718,84.6719,0.110174815,-0.377086322,0,0,0,,0,22,22,224,1,,,,
,,,,,,4ebd8e545ee0f85d41ff7919,66a626ef09d4e21e1a8894ec,6734a14de3ffd52ac6321921,2024-11-13_07h16.01.194,Tarea de género gramatical,2024.2.2,MacIntel,60.24096386,,,,,,,,,,,,,,,,,,,,,,,,84.6734,85.4381,l,1,0.0919,,[],[],[],[],[],[],[],0.0919,1,85.4392,85.9377,,,,,,1255,FEM,DIS,150,mirada,el,a,85.9378,85.9379,0.110174815,-0.377086322,0,0,0,,0,23,23,354,1,,,,
,,,,,,4ebd8e545ee0f85d41ff7919,66a626ef09d4e21e1a8894ec,6734a14de3ffd52ac6321921,2024-11-13_07h16.01.194,Tarea de género gramatical,2024.2.2,MacIntel,60.24096386,,,,,,,,,,,,,,,,,,,,,,,,85.9391,86.7042,a,1,0.0829,,[],[],[],[],[],[],[],0.0829,1,86.7044,87.2032,,,,,,1278,MAS,CON,150,pastel,,l,87.205,87.2061,0.110174815,-0.377086322,0,0,0,,0,24,24,377,1,,,,
,,,,,,4ebd8e545ee0f85d41ff7919,66a626ef09d4e21e1a8894ec,6734a14de3ffd52ac6321921,2024-11-13_07h16.01.194,Tarea de género gramatical,2024.2.2,MacIntel,60.24096386,,,,,,,,,,,,,,,,,,,,,,,,87.2071,88.0029,a,1,0.1269,,[],[],[],[],[],[],[],0.1269,1,88.003,88.5035,,,,,,1061,MAS,AGR,150,chico,el,l,88.5035,88.5036,0.110174815,-0.377086322,0,0,0,,0,25,25,160,1,,,,
,,,,,,4ebd8e545ee0f85d41ff7919,66a626ef09d4e21e1a8894ec,6734a14de3ffd52ac6321921,2024-11-13_07h16.01.194,Tarea de género gramatical,2024.2.2,MacIntel,60.24096386,,,,,,,,,,,,,,,,,,,,,,,,88.5048,89.3364,a,1,0.1622,,[],[],[],[],[],[],[],0.1622,1,89.3364,89.837,,,,,,1210,MAS,DIS,150,nombre,la,l,89.8371,89.8371,0.110174815,-0.377086322,0,0,0,,0,26,26,309,1,,,,
,,,,,,4ebd8e545ee0f85d41ff7919,66a626ef09d4e21e1a8894ec,6734a14de3ffd52ac6321921,2024-11-13_07h16.01.194,Tarea de género gramatical,2024.2.2,MacIntel,60.24096386,,,,,,,,,,,,,,,,,,,,,,,,89.8385,90.5869,a,0,0.0709,,[],[],[],[],[],[],[],0.0709,0,90.5879,91.0869,,,,,,1065,FEM,CON,150,amiga,,a,91.0869,91.087,0.110174815,-0.377086322,0,0,0,,0,27,27,164,1,,,,
,,,,,,4ebd8e545ee0f85d41ff7919,66a626ef09d4e21e1a8894ec,6734a14de3ffd52ac6321921,2024-11-13_07h16.01.194,Tarea de género gramatical,2024.2.2,MacIntel,60.24096386,,,,,,,,,,,,,,,,,,,,,,,,91.0884,91.8366,l,1,0.0758,,[],[],[],[],[],[],[],0.0758,1,91.8375,92.3354,,,,,,1292,FEM,AGR,150,maleta,la,a,92.3354,92.3355,0.110174815,-0.377086322,0,0,0,,0,28,28,391,1,,,,
,,,,,,4ebd8e545ee0f85d41ff7919,66a626ef09d4e21e1a8894ec,6734a14de3ffd52ac6321921,2024-11-13_07h16.01.194,Tarea de género gramatical,2024.2.2,MacIntel,60.24096386,,,,,,,,,,,,,,,,,,,,,,,,92.3368,93.1034,l,0,0.0853,,[],[],[],[],[],[],[],0.0853,0,93.1046,93.6027,,,,,,1169,MAS,AGR,150,primo,el,l,93.6045,93.6054,0.110174815,-0.377086322,0,0,0,,0,29,29,268,1,,,,
,,,,,,4ebd8e545ee0f85d41ff7919,66a626ef09d4e21e1a8894ec,6734a14de3ffd52ac6321921,2024-11-13_07h16.01.194,Tarea de género gramatical,2024.2.2,MacIntel,60.24096386,,,,,,,,,,,,,,,,,,,,,,,,93.6062,94.4359,a,1,0.1549,,[],[],[],[],[],[],[],0.1549,1,94.4372,94.9354,,,,,,1342,MAS,DIS,150,cuadro,la,l,94.9354,94.9355,0.110174815,-0.377086322,0,0,0,,0,30,30,441,1,,,,
,,,,,,4ebd8e545ee0f85d41ff7919,66a626ef09d4e21e1a8894ec,6734a14de3ffd52ac6321921,2024-11-13_07h16.01.194,Tarea de género gramatical,2024.2.2,MacIntel,60.24096386,,,,,,,,,,,,,,,,,,,,,,,,94.9368,95.6187,a,0,0.01,,[],[],[],[],[],[],[],0.01,0,95.6193,96.1182,,,,,,1239,FEM,CON,150,salida,,a,96.1182,96.1182,0.110174815,-0.377086322,0,0,0,,0,31,31,338,1,,,,
,,,,,,4ebd8e545ee0f85d41ff7919,66a626ef09d4e21e1a8894ec,6734a14de3ffd52ac6321921,2024-11-13_07h16.01.194,Tarea de género gramatical,2024.2.2,MacIntel,60.24096386,,,,,,,,,,,,,,,,,,,,,,,,96.1189,97.0352,l,1,0.2567,,[],[],[],[],[],[],[],0.2567,1,97.0365,97.5347,,,,,,903,FEM,CON,150,cosa,,a,97.5347,97.5347,0.110174815,-0.377086322,0,0,0,,0,32,32,2,1,,,,
,,,,,,4ebd8e545ee0f85d41ff7919,66a626ef09d4e21e1a8894ec,6734a14de3ffd52ac6321921,2024-11-13_07h16.01.194,Tarea de género gramatical,2024.2.2,MacIntel,60.24096386,,,,,,,,,,,,,,,,,,,,,,,,97.5355,98.3838,l,0,0.182,,[],[],[],[],[],[],[],0.182,0,98.3849,98.8848,,,,,,1037,MAS,AGR,150,coco,el,l,98.8863,98.8874,0.110174815,-0.377086322,0,0,0,,0,33,33,136,1,,,,
,,,,,,4ebd8e545ee0f85d41ff7919,66a626ef09d4e21e1a8894ec,6734a14de3ffd52ac6321921,2024-11-13_07h16.01.194,Tarea de género gramatical,2024.2.2,MacIntel,60.24096386,,,,,,,,,,,,,,,,,,,,,,,,98.8881,99.7012,a,0,0.143,,[],[],[],[],[],[],[],0.143,0,99.7013,100.2001,,,,,,1059,FEM,CON,150,clase,,a,100.2001,100.2002,0.110174815,-0.377086322,0,0,0,,0,34,34,158,1,,,,
,,,,,,4ebd8e545ee0f85d41ff7919,66a626ef09d4e21e1a8894ec,6734a14de3ffd52ac6321921,2024-11-13_07h16.01.194,Tarea de género gramatical,2024.2.2,MacIntel,60.24096386,,,,,,,,,,,,,,,,,,,,,,,,100.2015,100.9509,a,1,0.0855,,[],[],[],[],[],[],[],0.0855,1,100.952,101.4508,,,,,,1200,MAS,CON,150,túnel,,l,101.4508,101.4509,0.110174815,-0.377086322,0,0,0,,0,35,35,299,1,,,,
,,,,,,4ebd8e545ee0f85d41ff7919,66a626ef09d4e21e1a8894ec,6734a14de3ffd52ac6321921,2024-11-13_07h16.01.194,Tarea de género gramatical,2024.2.2,MacIntel,60.24096386,,,,,,,,,,,,,,,,,,,,,,,,101.452,102.2173,a,0,0.0831,,[],[],[],[],[],[],[],0.0831,0,102.2184,102.7172,,,,,,1083,FEM,CON,150,llave,,a,102.7172,102.7173,0.110174815,-0.377086322,0,0,0,,0,36,36,182,1,,,,
,,,,,,4ebd8e545ee0f85d41ff7919,66a626ef09d4e21e1a8894ec,6734a14de3ffd52ac6321921,2024-11-13_07h16.01.194,Tarea de género gramatical,2024.2.2,MacIntel,60.24096386,,,,,,,,,,,,,,,,,,,,,,,,102.7187,103.5671,l,0,0.1671,,[],[],[],[],[],[],[],0.1671,0,103.5672,104.0668,,,,,,954,MAS,CON,150,humo,,l,104.0668,104.067,0.110174815,-0.377086322,0,0,0,,0,37,37,53,1,,,,
,,,,,,4ebd8e545ee0f85d41ff7919,66a626ef09d4e21e1a8894ec,6734a14de3ffd52ac6321921,2024-11-13_07h16.01.194,Tarea de género gramatical,2024.2.2,MacIntel,60.24096386,,,,,,,,,,,,,,,,,,,,,,,,104.0683,104.7666,l,0,0.0245,,[],[],[],[],[],[],[],0.0245,0,104.7667,105.2664,,,,,,948,MAS,CON,150,loco,,l,105.2682,105.2693,0.110174815,-0.377086322,0,0,0,,0,38,38,47,1,,,,
,,,,,,4ebd8e545ee0f85d41ff7919,66a626ef09d4e21e1a8894ec,6734a14de3ffd52ac6321921,2024-11-13_07h16.01.194,Tarea de género gramatical,2024.2.2,MacIntel,60.24096386,,,,,,,,,,,,,,,,,,,,,,,,105.27,105.9825,l,0,0.0346,,[],[],[],[],[],[],[],0.0346,0,105.9826,106.4818,,,,,,983,MAS,AGR,150,nene,el,l,106.4818,106.482,0.110174815,-0.377086322,0,0,0,,0,39,39,82,1,,,,
,,,,,,4ebd8e545ee0f85d41ff7919,66a626ef09d4e21e1a8894ec,6734a14de3ffd52ac6321921,2024-11-13_07h16.01.194,Tarea de género gramatical,2024.2.2,MacIntel,60.24096386,,,,,,,,,,,,,,,,,,,,,,,,106.4834,107.9153,l,0,0.7544,,[],[],[],[],[],[],[],0.7544,0,107.9154,108.4147,,,,,,1277,MAS,AGR,150,jardín,el,l,108.4148,108.4149,0.110174815,-0.377086322,0,0,0,,0,40,40,376,1,,,,
,,,,,,4ebd8e545ee0f85d41ff7919,66a626ef09d4e21e1a8894ec,6734a14de3ffd52ac6321921,2024-11-13_07h16.01.194,Tarea de género gramatical,2024.2.2,MacIntel,60.24096386,,,,,,,,,,,,,,,,,,,,,,,,108.4161,109.1488,a,1,0.0535,,[],[],[],[],[],[],[],0.0535,1,109.1498,109.6487,,,,,,1240,MAS,DIS,150,pasado,la,l,109.6487,109.6488,0.110174815,-0.377086322,0,0,0,,0,41,41,339,1,,,,
,,,,,,4ebd8e545ee0f85d41ff7919,66a626ef09d4e21e1a8894ec,6734a14de3ffd52ac6321921,2024-11-13_07h16.01.194,Tarea de género gramatical,2024.2.2,MacIntel,60.24096386,,,,,,,,,,,,,,,,,,,,,,,,109.6499,110.6149,a,1,0.2848,,[],[],[],[],[],[],[],0.2848,1,110.6151,111.1142,,,,,,1236,MAS,CON,150,crimen,,l,111.1156,111.1166,0.110174815,-0.377086322,0,0,0,,0,42,42,335,1,,,,
,,,,,,4ebd8e545ee0f85d41ff7919,66a626ef09d4e21e1a8894ec,6734a14de3ffd52ac6321921,2024-11-13_07h16.01.194,Tarea de género gramatical,2024.2.2,MacIntel,60.24096386,,,,,,,,,,,,,,,,,,,,,,,,111.1176,111.8972,a,0,0.1108,,[],[],[],[],[],[],[],0.1108,0,111.8981,112.3969,,,,,,962,FEM,AGR,150,sopa,la,a,112.3969,112.397,0.110174815,-0.377086322,0,0,0,,0,43,43,61,1,,,,
,,,,,,4ebd8e545ee0f85d41ff7919,66a626ef09d4e21e1a8894ec,6734a14de3ffd52ac6321921,2024-11-13_07h16.01.194,Tarea de género gramatical,2024.2.2,MacIntel,60.24096386,,,,,,,,,,,,,,,,,,,,,,,,112.3983,113.1979,a,1,0.1252,,[],[],[],[],[],[],[],0.1252,1,113.1991,113.6977,,,,,,1092,MAS,CON,150,grupo,,l,113.6978,113.6979,0.110174815,-0.377086322,0,0,0,,0,44,44,191,1,,,,
,,,,,,4ebd8e545ee0f85d41ff7919,66a626ef09d4e21e1a8894ec,6734a14de3ffd52ac6321921,2024-11-13_07h16.01.194,Tarea de género gramatical,2024.2.2,MacIntel,60.24096386,,,,,,,,,,,,,,,,,,,,,,,,113.6991,114.6142,a,0,0.2344,,[],[],[],[],[],[],[],0.2344,0,114.6152,115.1138,,,,,,1347,FEM,CON,150,lógica,,a,115.1139,115.114,0.110174815,-0.377086322,0,0,0,,0,45,45,446,1,,,,
,,,,,,4ebd8e545ee0f85d41ff7919,66a626ef09d4e21e1a8894ec,6734a14de3ffd52ac6321921,2024-11-13_07h16.01.194,Tarea de género gramatical,2024.2.2,MacIntel,60.24096386,,,,,,,,,,,,,,,,,,,,,,,,115.1151,116.0303,l,0,0.2414,,[],[],[],[],[],[],[],0.2414,0,116.0305,116.5301,,,,,,1139,MAS,AGR,150,reloj,el,l,116.5301,116.5302,0.110174815,-0.377086322,0,0,0,,0,46,46,238,1,,,,
,,,,,,4ebd8e545ee0f85d41ff7919,66a626ef09d4e21e1a8894ec,6734a14de3ffd52ac6321921,2024-11-13_07h16.01.194,Tarea de género gramatical,2024.2.2,MacIntel,60.24096386,,,,,,,,,,,,,,,,,,,,,,,,116.5315,117.4133,l,0,0.2,,[],[],[],[],[],[],[],0.2,0,117.4133,117.9133,,,,,,906,MAS,CON,150,lado,,l,117.9151,117.9161,0.110174815,-0.377086322,0,0,0,,0,47,47,5,1,,,,
,,,,,,4ebd8e545ee0f85d41ff7919,66a626ef09d4e21e1a8894ec,6734a14de3ffd52ac6321921,2024-11-13_07h16.01.194,Tarea de género gramatical,2024.2.2,MacIntel,60.24096386,,,,,,,,,,,,,,,,,,,,,,,,117.9168,118.8131,l,1,0.2278,,[],[],[],[],[],[],[],0.2278,1,118.8141,119.3129,,,,,,1075,FEM,DIS,150,señal,el,a,119.313,119.3131,0.110174815,-0.377086322,0,0,0,,0,48,48,174,1,,,,
,,,,,,4ebd8e545ee0f85d41ff7919,66a626ef09d4e21e1a8894ec,6734a14de3ffd52ac6321921,2024-11-13_07h16.01.194,Tarea de género gramatical,2024.2.2,MacIntel,60.24096386,,,,,,,,,,,,,,,,,,,,,,,,119.3145,120.1462,a,1,0.1565,,[],[],[],[],[],[],[],0.1565,1,120.1462,120.6452,,,,,,1120,MAS,DIS,150,huevo,la,l,120.6453,120.6453,0.110174815,-0.377086322,0,0,0,,0,49,49,219,1,,,,
,,,,,,4ebd8e545ee0f85d41ff7919,66a626ef09d4e21e1a8894ec,6734a14de3ffd52ac6321921,2024-11-13_07h16.01.194,Tarea de género gramatical,2024.2.2,MacIntel,60.24096386,,,,,,,,,,,,,,,,,,,,,,,,120.6469,121.4278,a,0,0.1257,,[],[],[],[],[],[],[],0.1257,0,121.4287,121.929,,,,,,1329,FEM,CON,150,fianza,,a,121.9291,121.9292,0.110174815,-0.377086322,0,0,0,,0,50,50,428,1,,,,
,,,,,,4ebd8e545ee0f85d41ff7919,66a626ef09d4e21e1a8894ec,6734a14de3ffd52ac6321921,2024-11-13_07h16.01.194,Tarea de género gramatical,2024.2.2,MacIntel,60.24096386,,,,,,,,,,,,,,,,,,,,,,,,121.9304,122.8288,l,0,0.2193,,[],[],[],[],[],[],[],0.2193,0,122.8288,123.3277,,,,,,966,MAS,CON,150,muro,,l,123.3293,123.3304,0.110174815,-0.377086322,0,0,0,,0,51,51,65,1,,,,
,,,,,,4ebd8e545ee0f85d41ff7919,66a626ef09d4e21e1a8894ec,6734a14de3ffd52ac6321921,2024-11-13_07h16.01.194,Tarea de género gramatical,2024.2.2,MacIntel,60.24096386,,,,,,,,,,,,,,,,,,,,,,,,123.3314,124.1451,l,0,0.1395,,[],[],[],[],[],[],[],0.1395,0,124.1452,124.6449,,,,,,1060,MAS,DIS,150,señor,la,l,124.6451,124.6452,0.110174815,-0.377086322,0,0,0,,0,52,52,159,1,,,,
,,,,,,4ebd8e545ee0f85d41ff7919,66a626ef09d4e21e1a8894ec,6734a14de3ffd52ac6321921,2024-11-13_07h16.01.194,Tarea de género gramatical,2024.2.2,MacIntel,60.24096386,,,,,,,,,,,,,,,,,,,,,,,,124.6463,125.4281,l,0,0.1042,,[],[],[],[],[],[],[],0.1042,0,125.4282,125.928,,,,,,1344,MAS,CON,150,límite,,l,125.928,125.9281,0.110174815,-0.377086322,0,0,0,,0,53,53,443,1,,,,
,,,,,,4ebd8e545ee0f85d41ff7919,66a626ef09d4e21e1a8894ec,6734a14de3ffd52ac6321921,2024-11-13_07h16.01.194,Tarea de género gramatical,2024.2.2,MacIntel,60.24096386,,,,,,,,,,,,,,,,,,,,,,,,125.9293,127.2443,a,1,0.6388,,[],[],[],[],[],[],[],0.6388,1,127.2453,127.7439,,,,,,984,MAS,CON,150,mago,,l,127.7439,127.744,0.110174815,-0.377086322,0,0,0,,0,54,54,83,1,,,,
,,,,,,4ebd8e545ee0f85d41ff7919,66a626ef09d4e21e1a8894ec,6734a14de3ffd52ac6321921,2024-11-13_07h16.01.194,Tarea de género gramatical,2024.2.2,MacIntel,60.24096386,,,,,,,,,,,,,,,,,,,,,,,,127.7449,128.5606,a,1,0.1345,,[],[],[],[],[],[],[],0.1345,1,128.5607,129.0604,,,,,,1121,MAS,AGR,150,brazo,el,l,129.0605,129.0606,0.110174815,-0.377086322,0,0,0,,0,55,55,220,1,,,,
,,,,,,4ebd8e545ee0f85d41ff7919,66a626ef09d4e21e1a8894ec,6734a14de3ffd52ac6321921,2024-11-13_07h16.01.194,Tarea de género gramatical,2024.2.2,MacIntel,60.24096386,,,,,,,,,,,,,,,,,,,,,,,,129.0619,129.893,a,0,0.1591,,[],[],[],[],[],[],[],0.1591,0,129.8937,130.3935,,,,,,1034,FEM,AGR,150,rama,la,a,130.3949,130.3959,0.110174815,-0.377086322,0,0,0,,0,56,56,133,1,,,,
,,,,,,4ebd8e545ee0f85d41ff7919,66a626ef09d4e21e1a8894ec,6734a14de3ffd52ac6321921,2024-11-13_07h16.01.194,Tarea de género gramatical,2024.2.2,MacIntel,60.24096386,,,,,,,,,,,,,,,,,,,,,,,,130.3967,131.2923,l,1,0.2247,,[],[],[],[],[],[],[],0.2247,1,131.2933,131.7931,,,,,,1070,FEM,AGR,150,carta,la,a,131.7932,131.7932,0.110174815,-0.377086322,0,0,0,,0,57,57,169,1,,,,
,,,,,,4ebd8e545ee0f85d41ff7919,66a626ef09d4e21e1a8894ec,6734a14de3ffd52ac6321921,2024-11-13_07h16.01.194,Tarea de género gramatical,2024.2.2,MacIntel,60.24096386,,,,,,,,,,,,,,,,,,,,,,,,131.7943,132.6094,l,0,0.1393,,[],[],[],[],[],[],[],0.1393,0,132.6104,133.1084,,,,,,1020,MAS,CON,150,puño,,l,133.1084,133.1085,0.110174815,-0.377086322,0,0,0,,0,58,58,119,1,,,,
,,,,,,4ebd8e545ee0f85d41ff7919,66a626ef09d4e21e1a8894ec,6734a14de3ffd52ac6321921,2024-11-13_07h16.01.194,Tarea de género gramatical,2024.2.2,MacIntel,60.24096386,,,,,,,,,,,,,,,,,,,,,,,,133.1098,133.9758,a,1,0.2004,,[],[],[],[],[],[],[],0.2004,1,133.9767,134.4758,,,,,,929,MAS,AGR,150,frío,el,l,134.4759,134.476,0.110174815,-0.377086322,0,0,0,,0,59,59,28,1,,,,
,,,,,,4ebd8e545ee0f85d41ff7919,66a626ef09d4e21e1a8894ec,6734a14de3ffd52ac6321921,2024-11-13_07h16.01.194,Tarea de género gramatical,2024.2.2,MacIntel,60.24096386,,,,,,,,,,,,,,,,,,,,,,,,134.4772,135.2414,a,1,0.094,,[],[],[],[],[],[],[],0.094,1,135.2414,135.7421,,,,,,1133,MAS,AGR,150,golpe,el,l,135.7438,135.7448,0.110174815,-0.377086322,0,0,0,,0,60,60,232,1,,,,
,,,,,,4ebd8e545ee0f85d41ff7919,66a626ef09d4e21e1a8894ec,6734a14de3ffd52ac6321921,2024-11-13_07h16.01.194,Tarea de género gramatical,2024.2.2,MacIntel,60.24096386,,,,,,,,,,,,,,,,,,,,,,,,135.7455,136.4919,a,1,0.0705,,[],[],[],[],[],[],[],0.0705,1,136.4921,136.9919,,,,,,1002,MAS,CON,150,coro,,l,136.9919,136.992,0.110174815,-0.377086322,0,0,0,,0,61,61,101,1,,,,
,,,,,,4ebd8e545ee0f85d41ff7919,66a626ef09d4e21e1a8894ec,6734a14de3ffd52ac6321921,2024-11-13_07h16.01.194,Tarea de género gramatical,2024.2.2,MacIntel,60.24096386,,,,,,,,,,,,,,,,,,,,,,,,136.9931,137.6748,a,1,0.0102,,[],[],[],[],[],[],[],0.0102,1,137.6748,138.1748,,,,,,1146,MAS,CON,150,humor,,l,138.1749,138.175,0.110174815,-0.377086322,0,0,0,,0,62,62,245,1,,,,
,,,,,,4ebd8e545ee0f85d41ff7919,66a626ef09d4e21e1a8894ec,6734a14de3ffd52ac6321921,2024-11-13_07h16.01.194,Tarea de género gramatical,2024.2.2,MacIntel,60.24096386,,,,,,,,,,,,,,,,,,,,,,,,138.1762,138.9414,a,1,0.0891,,[],[],[],[],[],[],[],0.0891,1,138.9415,139.4413,,,,,,1338,MAS,CON,150,tanque,,l,139.4413,139.4415,0.110174815,-0.377086322,0,0,0,,0,63,63,437,1,,,,
,,,,,,4ebd8e545ee0f85d41ff7919,66a626ef09d4e21e1a8894ec,6734a14de3ffd52ac6321921,2024-11-13_07h16.01.194,Tarea de género gramatical,2024.2.2,MacIntel,60.24096386,,,,,,,,,,,,,,,,,,,,,,,,139.4427,140.1738,a,1,0.0583,,[],[],[],[],[],[],[],0.0583,1,140.174,140.6731,,,,,,1265,MAS,AGR,150,código,el,l,140.6731,140.6732,0.110174815,-0.377086322,0,0,0,,0,64,64,364,1,,,,
,,,,,,4ebd8e545ee0f85d41ff7919,66a626ef09d4e21e1a8894ec,6734a14de3ffd52ac6321921,2024-11-13_07h16.01.194,Tarea de género gramatical,2024.2.2,MacIntel,60.24096386,,,,,,,,,,,,,,,,,,,,,,,,140.6744,141.5238,a,1,0.1763,,[],[],[],[],[],[],[],0.1763,1,141.5239,142.024,,,,,,1140,MAS,CON,150,ruido,,l,142.0248,142.0257,0.110174815,-0.377086322,0,0,0,,0,65,65,239,1,,,,
,,,,,,4ebd8e545ee0f85d41ff7919,66a626ef09d4e21e1a8894ec,6734a14de3ffd52ac6321921,2024-11-13_07h16.01.194,Tarea de género gramatical,2024.2.2,MacIntel,60.24096386,,,,,,,,,,,,,,,,,,,,,,,,142.0267,142.7571,a,1,0.0533,,[],[],[],[],[],[],[],0.0533,1,142.7571,143.2566,,,,,,1276,MAS,DIS,150,efecto,la,l,143.2566,143.2567,0.110174815,-0.377086322,0,0,0,,0,66,66,375,1,,,,
,,,,,,4ebd8e545ee0f85d41ff7919,66a626ef09d4e21e1a8894ec,6734a14de3ffd52ac6321921,2024-11-13_07h16.01.194,Tarea de género gramatical,2024.2.2,MacIntel,60.24096386,,,,,,,,,,,,,,,,,,,,,,,,143.258,144.4724,a,0,0.5319,,[],[],[],[],[],[],[],0.5319,0,144.4733,144.9731,,,,,,1281,FEM,CON,150,bebida,,a,144.9732,144.9733,0.110174815,-0.377086322,0,0,0,,0,67,67,380,1,,,,
,,,,,,4ebd8e545ee0f85d41ff7919,66a626ef09d4e21e1a8894ec,6734a14de3ffd52ac6321921,2024-11-13_07h16.01.194,Tarea de género gramatical,2024.2.2,MacIntel,60.24096386,,,,,,,,,,,,,,,,,,,,,,,,144.9746,145.7396,l,1,0.0876,,[],[],[],[],[],[],[],0.0876,1,145.7413,146.2385,,,,,,927,FEM,CON,150,mesa,,a,146.2386,146.2386,0.110174815,-0.377086322,0,0,0,,0,68,68,26,1,,,,
,,,,,,4ebd8e545ee0f85d41ff7919,66a626ef09d4e21e1a8894ec,6734a14de3ffd52ac6321921,2024-11-13_07h16.01.194,Tarea de género gramatical,2024.2.2,MacIntel,60.24096386,,,,,,,,,,,,,,,,,,,,,,,,146.2396,147.0892,l,1,0.1815,,[],[],[],[],[],[],[],0.1815,1,147.0893,147.5891,,,,,,1003,FEM,DIS,150,fama,el,a,147.5906,147.5916,0.110174815,-0.377086322,0,0,0,,0,69,69,102,1,,,,
,,,,,,4ebd8e545ee0f85d41ff7919,66a626ef09d4e21e1a8894ec,6734a14de3ffd52ac6321921,2024-11-13_07h16.01.194,Tarea de género gramatical,2024.2.2,MacIntel,60.24096386,,,,,,,,,,,,,,,,,,,,,,,,147.5923,148.3876,l,0,0.1252,,[],[],[],[],[],[],[],0.1252,0,148.3883,148.8889,,,,,,1080,MAS,CON,150,fuego,,l,148.889,148.8891,0.110174815,-0.377086322,0,0,0,,0,70,70,179,1,,,,
,,,,,,4ebd8e545ee0f85d41ff7919,66a626ef09d4e21e1a8894ec,6734a14de3ffd52ac6321921,2024-11-13_07h16.01.194,Tarea de género gramatical,2024.2.2,MacIntel,60.24096386,,,,,,,,,,,,,,,,,,,,,,,,148.8904,149.8386,a,1,0.2689,,[],[],[],[],[],[],[],0.2689,1,149.8395,150.3374,,,,,,1157,MAS,AGR,150,pecho,el,l,150.3375,150.3376,0.110174815,-0.377086322,0,0,0,,0,71,71,256,1,,,,
,,,,,,4ebd8e545ee0f85d41ff7919,66a626ef09d4e21e1a8894ec,6734a14de3ffd52ac6321921,2024-11-13_07h16.01.194,Tarea de género gramatical,2024.2.2,MacIntel,60.24096386,,,,,,,,,,,,,,,,,,,,,,,,150.3388,151.0216,a,0,0.0253,,[],[],[],[],[],[],[],0.0253,0,151.0226,151.5214,,,,,,944,FEM,AGR,150,zona,la,a,151.5215,151.5216,0.110174815,-0.377086322,0,0,0,,0,72,72,43,1,,,,
,,,,,,4ebd8e545ee0f85d41ff7919,66a626ef09d4e21e1a8894ec,6734a14de3ffd52ac6321921,2024-11-13_07h16.01.194,Tarea de género gramatical,2024.2.2,MacIntel,60.24096386,,,,,,,,,,,,,,,,,,,,,,,,151.5227,152.521,l,1,0.322,,[],[],[],[],[],[],[],0.322,1,152.522,153.0204,,,,,,1340,FEM,AGR,150,patada,la,a,153.0204,153.0205,0.110174815,-0.377086322,0,0,0,,0,73,73,439,1,,,,
,,,,,,4ebd8e545ee0f85d41ff7919,66a626ef09d4e21e1a8894ec,6734a14de3ffd52ac6321921,2024-11-13_07h16.01.194,Tarea de género gramatical,2024.2.2,MacIntel,60.24096386,,,,,,,,,,,,,,,,,,,,,,,,153.0216,153.8376,a,1,0.1419,,[],[],[],[],[],[],[],0.1419,1,153.8376,154.3375,,,,,,1043,MAS,AGR,150,faro,el,l,154.3388,154.3399,0.110174815,-0.377086322,0,0,0,,0,74,74,142,1,,,,
,,,,,,4ebd8e545ee0f85d41ff7919,66a626ef09d4e21e1a8894ec,6734a14de3ffd52ac6321921,2024-11-13_07h16.01.194,Tarea de género gramatical,2024.2.2,MacIntel,60.24096386,,,,,,,,,,,,,,,,,,,,,,,,154.3409,155.153,l,1,0.1446,,[],[],[],[],[],[],[],0.1446,1,155.1531,155.6537,,,,,,1153,FEM,DIS,150,aldea,el,a,155.6537,155.6538,0.110174815,-0.377086322,0,0,0,,0,75,75,252,1,,,,
,,,,,,4ebd8e545ee0f85d41ff7919,66a626ef09d4e21e1a8894ec,6734a14de3ffd52ac6321921,2024-11-13_07h16.01.194,Tarea de género gramatical,2024.2.2,MacIntel,60.24096386,,,,,,,,,,,,,,,,,,,,,,,,155.6554,156.5534,a,0,0.2166,,[],[],[],[],[],[],[],0.2166,0,156.5544,157.0536,,,,,,961,FEM,DIS,150,ruta,el,a,157.0537,157.0538,0.110174815,-0.377086322,0,0,0,,0,76,76,60,1,,,,
,,,,,,4ebd8e545ee0f85d41ff7919,66a626ef09d4e21e1a8894ec,6734a14de3ffd52ac6321921,2024-11-13_07h16.01.194,Tarea de género gramatical,2024.2.2,MacIntel,60.24096386,,,,,,,,,,,,,,,,,,,,,,,,157.0548,157.7697,l,1,0.0333,,[],[],[],[],[],[],[],0.0333,1,157.7704,158.2696,,,,,,1082,FEM,AGR,150,prisa,la,a,158.2697,158.2698,0.110174815,-0.377086322,0,0,0,,0,77,77,181,1,,,,
,,,,,,4ebd8e545ee0f85d41ff7919,66a626ef09d4e21e1a8894ec,6734a14de3ffd52ac6321921,2024-11-13_07h16.01.194,Tarea de género gramatical,2024.2.2,MacIntel,60.24096386,,,,,,,,,,,,,,,,,,,,,,,,158.2708,159.0529,l,0,0.1098,,[],[],[],[],[],[],[],0.1098,0,159.0538,159.5528,,,,,,941,MAS,AGR,150,bote,el,l,159.5544,159.5555,0.110174815,-0.377086322,0,0,0,,0,78,78,40,1,,,,
,,,,,,4ebd8e545ee0f85d41ff7919,66a626ef09d4e21e1a8894ec,6734a14de3ffd52ac6321921,2024-11-13_07h16.01.194,Tarea de género gramatical,2024.2.2,MacIntel,60.24096386,,,,,,,,,,,,,,,,,,,,,,,,159.5564,160.5015,a,0,0.2772,,[],[],[],[],[],[],[],0.2772,0,160.5015,161.0018,,,,,,925,FEM,DIS,150,nave,el,a,161.0019,161.002,0.110174815,-0.377086322,0,0,0,,0,79,79,24,1,,,,
,,,,,,4ebd8e545ee0f85d41ff7919,66a626ef09d4e21e1a8894ec,6734a14de3ffd52ac6321921,2024-11-13_07h16.01.194,Tarea de género gramatical,2024.2.2,MacIntel,60.24096386,,,,,,,,,,,,,,,,,,,,,,,,161.0032,162.4521,l,0,0.7718,,[],[],[],[],[],[],[],0.7718,0,162.4522,162.952,,,,,,917,MAS,AGR,150,modo,el,l,162.952,162.9521,0.110174815,-0.377086322,0,0,0,,0,80,80,16,1,,,,
,,,,,,4ebd8e545ee0f85d41ff7919,66a626ef09d4e21e1a8894ec,6734a14de3ffd52ac6321921,2024-11-13_07h16.01.194,Tarea de género gramatical,2024.2.2,MacIntel,60.24096386,,,,,,,,,,,,,,,,,,,,,,,,162.9533,164.302,a,1,0.6747,,[],[],[],[],[],[],[],0.6747,1,164.3032,164.8014,,,,,,1260,MAS,CON,150,puente,,l,164.8015,164.8015,0.110174815,-0.377086322,0,0,0,,0,81,81,359,1,,,,
,,,,,,4ebd8e545ee0f85d41ff7919,66a626ef09d4e21e1a8894ec,6734a14de3ffd52ac6321921,2024-11-13_07h16.01.194,Tarea de género gramatical,2024.2.2,MacIntel,60.24096386,,,,,,,,,,,,,,,,,,,,,,,,164.8027,165.5178,a,1,0.0409,,[],[],[],[],[],[],[],0.0409,1,165.5179,166.0175,,,,,,1050,MAS,CON,150,mozo,,l,166.0176,166.0177,0.110174815,-0.377086322,0,0,0,,0,82,82,149,1,,,,
,,,,,,4ebd8e545ee0f85d41ff7919,66a626ef09d4e21e1a8894ec,6734a14de3ffd52ac6321921,2024-11-13_07h16.01.194,Tarea de género gramatical,2024.2.2,MacIntel,60.24096386,,,,,,,,,,,,,,,,,,,,,,,,166.019,166.951,a,1,0.2568,,[],[],[],[],[],[],[],0.2568,1,166.9512,167.4508,,,,,,1151,MAS,AGR,150,dueño,el,l,167.4522,167.4531,0.110174815,-0.377086322,0,0,0,,0,83,83,250,1,,,,
,,,,,,4ebd8e545ee0f85d41ff7919,66a626ef09d4e21e1a8894ec,6734a14de3ffd52ac6321921,2024-11-13_07h16.01.194,Tarea de género gramatical,2024.2.2,MacIntel,60.24096386,,,,,,,,,,,,,,,,,,,,,,,,167.4539,168.2837,a,0,0.1594,,[],[],[],[],[],[],[],0.1594,0,168.2845,168.7831,,,,,,1143,FEM,CON,150,salsa,,a,168.7831,168.7831,0.110174815,-0.377086322,0,0,0,,0,84,84,242,1,,,,
,,,,,,4ebd8e545ee0f85d41ff7919,66a626ef09d4e21e1a8894ec,6734a14de3ffd52ac6321921,2024-11-13_07h16.01.194,Tarea de género gramatical,2024.2.2,MacIntel,60.24096386,,,,,,,,,,,,,,,,,,,,,,,,168.7844,169.6836,l,1,0.228,,[],[],[],[],[],[],[],0.228,1,169.6843,170.1835,,,,,,932,FEM,AGR,150,caja,la,a,170.1835,170.1836,0.110174815,-0.377086322,0,0,0,,0,85,85,31,1,,,,
,,,,,,4ebd8e545ee0f85d41ff7919,66a626ef09d4e21e1a8894ec,6734a14de3ffd52ac6321921,2024-11-13_07h16.01.194,Tarea de género gramatical,2024.2.2,MacIntel,60.24096386,,,,,,,,,,,,,,,,,,,,,,,,170.1847,170.9154,l,1,0.0608,,[],[],[],[],[],[],[],0.0608,1,170.9155,171.4162,,,,,,949,FEM,DIS,150,piel,el,a,171.4163,171.4164,0.110174815,-0.377086322,0,0,0,,0,86,86,48,1,,,,
,,,,,,4ebd8e545ee0f85d41ff7919,66a626ef09d4e21e1a8894ec,6734a14de3ffd52ac6321921,2024-11-13_07h16.01.194,Tarea de género gramatical,2024.2.2,MacIntel,60.24096386,,,,,,,,,,,,,,,,,,,,,,,,171.4176,172.1163,a,0,0.0221,,[],[],[],[],[],[],[],0.0221,0,172.1174,172.6161,,,,,,1310,FEM,AGR,150,piedad,la,a,172.6177,172.6187,0.110174815,-0.377086322,0,0,0,,0,87,87,409,1,,,,
,,,,,,4ebd8e545ee0f85d41ff7919,66a626ef09d4e21e1a8894ec,6734a14de3ffd52ac6321921,2024-11-13_07h16.01.194,Tarea de género gramatical,2024.2.2,MacIntel,60.24096386,,,,,,,,,,,,,,,,,,,,,,,,172.6194,173.4159,l,0,0.1175,,[],[],[],[],[],[],[],0.1175,0,173.416,173.9156,,,,,,1086,MAS,CON,150,error,,l,173.9156,173.9157,0.110174815,-0.377086322,0,0,0,,0,88,88,185,1,,,,
,,,,,,4ebd8e545ee0f85d41ff7919,66a626ef09d4e21e1a8894ec,6734a14de3ffd52ac6321921,2024-11-13_07h16.01.194,Tarea de género gramatical,2024.2.2,MacIntel,60.24096386,,,,,,,,,,,,,,,,,,,,,,,,173.9165,174.6322,l,0,0.0336,,[],[],[],[],[],[],[],0.0336,0,174.6323,175.1317,,,,,,1162,MAS,DIS,150,video,la,l,175.1318,175.1319,0.110174815,-0.377086322,0,0,0,,0,89,89,261,1,,,,
,,,,,,4ebd8e545ee0f85d41ff7919,66a626ef09d4e21e1a8894ec,6734a14de3ffd52ac6321921,2024-11-13_07h16.01.194,Tarea de género gramatical,2024.2.2,MacIntel,60.24096386,,,,,,,,,,,,,,,,,,,,,,,,175.1332,176.0486,a,0,0.2389,,[],[],[],[],[],[],[],0.2389,0,176.0487,176.5481,,,,,,1011,FEM,CON,150,goma,,a,176.5481,176.5482,0.110174815,-0.377086322,0,0,0,,0,90,90,110,1,,,,
,,,,,,4ebd8e545ee0f85d41ff7919,66a626ef09d4e21e1a8894ec,6734a14de3ffd52ac6321921,2024-11-13_07h16.01.194,Tarea de género gramatical,2024.2.2,MacIntel,60.24096386,,,,,,,,,,,,,,,,,,,,,,,,176.5492,177.3315,a,1,0.1095,,[],[],[],[],[],[],[],0.1095,1,177.3322,177.8308,,,,,,1032,MAS,CON,150,velo,,l,177.8308,177.8309,0.110174815,-0.377086322,0,0,0,,0,91,91,131,1,,,,
,,,,,,4ebd8e545ee0f85d41ff7919,66a626ef09d4e21e1a8894ec,6734a14de3ffd52ac6321921,2024-11-13_07h16.01.194,Tarea de género gramatical,2024.2.2,MacIntel,60.24096386,,,,,,,,,,,,,,,,,,,,,,,,177.8321,178.5647,a,0,0.0534,,[],[],[],[],[],[],[],0.0534,0,178.5655,179.0644,,,,,,902,FEM,AGR,150,vida,la,a,179.066,179.067,0.110174815,-0.377086322,0,0,0,,0,92,92,1,1,,,,
,,,,,,4ebd8e545ee0f85d41ff7919,66a626ef09d4e21e1a8894ec,6734a14de3ffd52ac6321921,2024-11-13_07h16.01.194,Tarea de género gramatical,2024.2.2,MacIntel,60.24096386,,,,,,,,,,,,,,,,,,,,,,,,179.0677,179.8143,l,1,0.0684,,[],[],[],[],[],[],[],0.0684,1,179.8152,180.3143,,,,,,909,FEM,CON,150,mamá,,a,180.3144,180.3144,0.110174815,-0.377086322,0,0,0,,0,93,93,8,1,,,,
,,,,,,4ebd8e545ee0f85d41ff7919,66a626ef09d4e21e1a8894ec,6734a14de3ffd52ac6321921,2024-11-13_07h16.01.194,Tarea de género gramatical,2024.2.2,MacIntel,60.24096386,,,,,,,,,,,,,,,,,,,,,,,,180.3156,181.0974,l,1,0.1072,,[],[],[],[],[],[],[],0.1072,1,181.0975,181.5972,,,,,,1017,FEM,CON,150,raya,,a,181.5972,181.5974,0.110174815,-0.377086322,0,0,0,,0,94,94,116,1,,,,
,,,,,,4ebd8e545ee0f85d41ff7919,66a626ef09d4e21e1a8894ec,6734a14de3ffd52ac6321921,2024-11-13_07h16.01.194,Tarea de género gramatical,2024.2.2,MacIntel,60.24096386,,,,,,,,,,,,,,,,,,,,,,,,181.5985,182.497,l,1,0.2159,,[],[],[],[],[],[],[],0.2159,1,182.497,182.9968,,,,,,1297,FEM,DIS,150,cuerda,el,a,182.997,182.9971,0.110174815,-0.377086322,0,0,0,,0,95,95,396,1,,,,
,,,,,,4ebd8e545ee0f85d41ff7919,66a626ef09d4e21e1a8894ec,6734a14de3ffd52ac6321921,2024-11-13_07h16.01.194,Tarea de género gramatical,2024.2.2,MacIntel,60.24096386,,,,,,,,,,,,,,,,,,,,,,,,182.9983,183.78,l,0,0.1041,,[],[],[],[],[],[],[],0.1041,0,183.781,184.2799,,,,,,1319,MAS,AGR,150,cuento,el,l,184.2813,184.2823,0.110174815,-0.377086322,0,0,0,,0,96,96,418,1,,,,
,,,,,,4ebd8e545ee0f85d41ff7919,66a626ef09d4e21e1a8894ec,6734a14de3ffd52ac6321921,2024-11-13_07h16.01.194,Tarea de género gramatical,2024.2.2,MacIntel,60.24096386,,,,,,,,,,,,,,,,,,,,,,,,184.2833,185.2463,a,0,0.2848,,[],[],[],[],[],[],[],0.2848,0,185.2463,185.7462,,,,,,1039,FEM,DIS,150,pipa,el,a,185.7462,185.7463,0.110174815,-0.377086322,0,0,0,,0,97,97,138,1,,,,
,,,,,,4ebd8e545ee0f85d41ff7919,66a626ef09d4e21e1a8894ec,6734a14de3ffd52ac6321921,2024-11-13_07h16.01.194,Tarea de género gramatical,2024.2.2,MacIntel,60.24096386,,,,,,,,,,,,,,,,,,,,,,,,185.7476,186.5458,l,0,0.1219,,[],[],[],[],[],[],[],0.1219,0,186.546,187.0449,,,,,,1193,MAS,AGR,150,patio,el,l,187.0449,187.045,0.110174815,-0.377086322,0,0,0,,0,98,98,292,1,,,,
,,,,,,4ebd8e545ee0f85d41ff7919,66a626ef09d4e21e1a8894ec,6734a14de3ffd52ac6321921,2024-11-13_07h16.01.194,Tarea de género gramatical,2024.2.2,MacIntel,60.24096386,,,,,,,,,,,,,,,,,,,,,,,,187.0462,188.5621,a,0,0.8321,,[],[],[],[],[],[],[],0.8321,0,188.5622,189.062,,,,,,1041,FEM,CON,150,cera,,a,189.062,189.0622,0.110174815,-0.377086322,0,0,0,,0,99,99,140,1,,,,
,,,,,,4ebd8e545ee0f85d41ff7919,66a626ef09d4e21e1a8894ec,6734a14de3ffd52ac6321921,2024-11-13_07h16.01.194,Tarea de género gramatical,2024.2.2,MacIntel,60.24096386,,,,,,,,,,,,,,,,,,,,,,,,189.0632,189.8618,a,0,0.1208,,[],[],[],[],[],[],[],0.1208,0,189.862,190.3613,,,,,,1233,FEM,CON,150,locura,,a,190.3615,190.3615,0.110174815,-0.377086322,0,0,0,,0,100,100,332,1,,,,
,,,,,,4ebd8e545ee0f85d41ff7919,66a626ef09d4e21e1a8894ec,6734a14de3ffd52ac6321921,2024-11-13_07h16.01.194,Tarea de género gramatical,2024.2.2,MacIntel,60.24096386,,,,,,,,,,,,,,,,,,,,,,,,190.3623,191.1774,l,0,0.1325,,[],[],[],[],[],[],[],0.1325,0,191.1775,191.6781,,,,,,1170,MAS,CON,150,queso,,l,191.6797,191.6807,0.110174815,-0.377086322,0,0,0,,0,101,101,269,1,,,,
,,,,,,4ebd8e545ee0f85d41ff7919,66a626ef09d4e21e1a8894ec,6734a14de3ffd52ac6321921,2024-11-13_07h16.01.194,Tarea de género gramatical,2024.2.2,MacIntel,60.24096386,,,,,,,,,,,,,,,,,,,,,,,,191.6814,192.4611,l,1,0.1096,,[],[],[],[],[],[],[],0.1096,1,192.462,192.961,,,,,,933,FEM,CON,150,boda,,a,192.9611,192.9611,0.110174815,-0.377086322,0,0,0,,0,102,102,32,1,,,,
,,,,,,4ebd8e545ee0f85d41ff7919,66a626ef09d4e21e1a8894ec,6734a14de3ffd52ac6321921,2024-11-13_07h16.01.194,Tarea de género gramatical,2024.2.2,MacIntel,60.24096386,,,,,,,,,,,,,,,,,,,,,,,,192.9623,193.7931,l,0,0.1605,,[],[],[],[],[],[],[],0.1605,0,193.7938,194.2937,,,,,,1294,MAS,DIS,150,examen,la,l,194.2937,194.2938,0.110174815,-0.377086322,0,0,0,,0,103,103,393,1,,,,
,,,,,,4ebd8e545ee0f85d41ff7919,66a626ef09d4e21e1a8894ec,6734a14de3ffd52ac6321921,2024-11-13_07h16.01.194,Tarea de género gramatical,2024.2.2,MacIntel,60.24096386,,,,,,,,,,,,,,,,,,,,,,,,194.295,195.0594,l,1,0.0884,,[],[],[],[],[],[],[],0.0884,1,195.0601,195.5595,,,,,,926,FEM,AGR,150,pena,la,a,195.5596,195.5596,0.110174815,-0.377086322,0,0,0,,0,104,104,25,1,,,,
,,,,,,4ebd8e545ee0f85d41ff7919,66a626ef09d4e21e1a8894ec,6734a14de3ffd52ac6321921,2024-11-13_07h16.01.194,Tarea de género gramatical,2024.2.2,MacIntel,60.24096386,,,,,,,,,,,,,,,,,,,,,,,,195.5609,196.4089,a,0,0.1777,,[],[],[],[],[],[],[],0.1777,0,196.4096,196.9099,,,,,,1177,FEM,DIS,150,plaza,el,a,196.9115,196.9124,0.110174815,-0.377086322,0,0,0,,0,105,105,276,1,,,,
,,,,,,4ebd8e545ee0f85d41ff7919,66a626ef09d4e21e1a8894ec,6734a14de3ffd52ac6321921,2024-11-13_07h16.01.194,Tarea de género gramatical,2024.2.2,MacIntel,60.24096386,,,,,,,,,,,,,,,,,,,,,,,,196.9132,197.7763,l,1,0.189,,[],[],[],[],[],[],[],0.189,1,197.7774,198.2761,,,,,,1159,FEM,DIS,150,prima,el,a,198.2762,198.2763,0.110174815,-0.377086322,0,0,0,,0,106,106,258,1,,,,
,,,,,,4ebd8e545ee0f85d41ff7919,66a626ef09d4e21e1a8894ec,6734a14de3ffd52ac6321921,2024-11-13_07h16.01.194,Tarea de género gramatical,2024.2.2,MacIntel,60.24096386,,,,,,,,,,,,,,,,,,,,,,,,198.2775,199.1424,l,1,0.1909,,[],[],[],[],[],[],[],0.1909,1,199.1425,199.6426,,,,,,986,FEM,AGR,150,cruz,la,a,199.6426,199.6427,0.110174815,-0.377086322,0,0,0,,0,107,107,85,1,,,,
,,,,,,4ebd8e545ee0f85d41ff7919,66a626ef09d4e21e1a8894ec,6734a14de3ffd52ac6321921,2024-11-13_07h16.01.194,Tarea de género gramatical,2024.2.2,MacIntel,60.24096386,,,,,,,,,,,,,,,,,,,,,,,,199.644,200.4756,l,1,0.1607,,[],[],[],[],[],[],[],0.1607,1,200.4757,200.9754,,,,,,1021,FEM,DIS,150,pila,el,a,200.9755,200.9756,0.110174815,-0.377086322,0,0,0,,0,108,108,120,1,,,,
,,,,,,4ebd8e545ee0f85d41ff7919,66a626ef09d4e21e1a8894ec,6734a14de3ffd52ac6321921,2024-11-13_07h16.01.194,Tarea de género gramatical,2024.2.2,MacIntel,60.24096386,,,,,,,,,,,,,,,,,,,,,,,,200.9768,201.7921,l,1,0.1416,,[],[],[],[],[],[],[],0.1416,1,201.7922,202.2921,,,,,,1112,FEM,AGR,150,cinta,la,a,202.2921,202.2922,0.110174815,-0.377086322,0,0,0,,0,109,109,211,1,,,,
,,,,,,4ebd8e545ee0f85d41ff7919,66a626ef09d4e21e1a8894ec,6734a14de3ffd52ac6321921,2024-11-13_07h16.01.194,Tarea de género gramatical,2024.2.2,MacIntel,60.24096386,,,,,,,,,,,,,,,,,,,,,,,,202.2932,204.4913,l,0,1.5261,,[],[],[],[],[],[],[],1.5261,0,204.4919,204.9911,,,,,,1206,MAS,CON,150,dinero,,l,204.9926,204.9936,0.110174815,-0.377086322,0,0,0,,0,110,110,305,1,,,,
,,,,,,4ebd8e545ee0f85d41ff7919,66a626ef09d4e21e1a8894ec,6734a14de3ffd52ac6321921,2024-11-13_07h16.01.194,Tarea de género gramatical,2024.2.2,MacIntel,60.24096386,,,,,,,,,,,,,,,,,,,,,,,,204.9946,205.7911,l,0,0.1234,,[],[],[],[],[],[],[],0.1234,0,205.7912,206.291,,,,,,1026,MAS,CON,150,lazo,,l,206.291,206.2912,0.110174815,-0.377086322,0,0,0,,0,111,111,125,1,,,,
,,,,,,4ebd8e545ee0f85d41ff7919,66a626ef09d4e21e1a8894ec,6734a14de3ffd52ac6321921,2024-11-13_07h16.01.194,Tarea de género gramatical,2024.2.2,MacIntel,60.24096386,,,,,,,,,,,,,,,,,,,,,,,,206.2924,207.4895,l,0,0.5266,,[],[],[],[],[],[],[],0.5266,0,207.4896,207.9905,,,,,,911,MAS,AGR,150,país,el,l,207.9906,207.9906,0.110174815,-0.377086322,0,0,0,,0,112,112,10,1,,,,
,,,,,,4ebd8e545ee0f85d41ff7919,66a626ef09d4e21e1a8894ec,6734a14de3ffd52ac6321921,2024-11-13_07h16.01.194,Tarea de género gramatical,2024.2.2,MacIntel,60.24096386,,,,,,,,,,,,,,,,,,,,,,,,207.9917,208.857,l,0,0.189,,[],[],[],[],[],[],[],0.189,0,208.8572,209.3569,,,,,,912,MAS,CON,150,plan,,l,209.3569,209.357,0.110174815,-0.377086322,0,0,0,,0,113,113,11,1,,,,
,,,,,,4ebd8e545ee0f85d41ff7919,66a626ef09d4e21e1a8894ec,6734a14de3ffd52ac6321921,2024-11-13_07h16.01.194,Tarea de género gramatical,2024.2.2,MacIntel,60.24096386,,,,,,,,,,,,,,,,,,,,,,,,209.3581,210.0569,a,0,0.0156,,[],[],[],[],[],[],[],0.0156,0,210.057,210.5565,,,,,,1317,FEM,CON,150,cabaña,,a,210.5579,210.559,0.110174815,-0.377086322,0,0,0,,0,114,114,416,1,,,,
,,,,,,4ebd8e545ee0f85d41ff7919,66a626ef09d4e21e1a8894ec,6734a14de3ffd52ac6321921,2024-11-13_07h16.01.194,Tarea de género gramatical,2024.2.2,MacIntel,60.24096386,,,,,,,,,,,,,,,,,,,,,,,,210.5596,211.4063,a,1,0.1747,,[],[],[],[],[],[],[],0.1747,1,211.4073,211.906,,,,,,1296,MAS,CON,150,tesoro,,l,211.906,211.9062,0.110174815,-0.377086322,0,0,0,,0,115,115,395,1,,,,
,,,,,,4ebd8e545ee0f85d41ff7919,66a626ef09d4e21e1a8894ec,6734a14de3ffd52ac6321921,2024-11-13_07h16.01.194,Tarea de género gramatical,2024.2.2,MacIntel,60.24096386,,,,,,,,,,,,,,,,,,,,,,,,211.9074,212.6893,a,1,0.1058,,[],[],[],[],[],[],[],0.1058,1,212.6894,213.1888,,,,,,1205,MAS,AGR,150,hombre,el,l,213.1888,213.1889,0.110174815,-0.377086322,0,0,0,,0,116,116,304,1,,,,
,,,,,,4ebd8e545ee0f85d41ff7919,66a626ef09d4e21e1a8894ec,6734a14de3ffd52ac6321921,2024-11-13_07h16.01.194,Tarea de género gramatical,2024.2.2,MacIntel,60.24096386,,,,,,,,,,,,,,,,,,,,,,,,213.19,213.989,a,1,0.1255,,[],[],[],[],[],[],[],0.1255,1,213.9891,214.4879,,,,,,1272,MAS,CON,150,delito,,l,214.488,214.4881,0.110174815,-0.377086322,0,0,0,,0,117,117,371,1,,,,
,,,,,,4ebd8e545ee0f85d41ff7919,66a626ef09d4e21e1a8894ec,6734a14de3ffd52ac6321921,2024-11-13_07h16.01.194,Tarea de género gramatical,2024.2.2,MacIntel,60.24096386,,,,,,,,,,,,,,,,,,,,,,,,214.4892,215.2208,a,0,0.0751,,[],[],[],[],[],[],[],0.0751,0,215.2214,215.722,,,,,,1035,FEM,CON,150,raíz,,a,215.7221,215.7221,0.110174815,-0.377086322,0,0,0,,0,118,118,134,1,,,,
,,,,,,4ebd8e545ee0f85d41ff7919,66a626ef09d4e21e1a8894ec,6734a14de3ffd52ac6321921,2024-11-13_07h16.01.194,Tarea de género gramatical,2024.2.2,MacIntel,60.24096386,,,,,,,,,,,,,,,,,,,,,,,,215.7234,216.5051,l,1,0.1003,,[],[],[],[],[],[],[],0.1003,1,216.506,217.0048,,,,,,1244,FEM,AGR,150,pareja,la,a,217.0063,217.0074,0.110174815,-0.377086322,0,0,0,,0,119,119,343,1,,,,
,,,,,,4ebd8e545ee0f85d41ff7919,66a626ef09d4e21e1a8894ec,6734a14de3ffd52ac6321921,2024-11-13_07h16.01.194,Tarea de género gramatical,2024.2.2,MacIntel,60.24096386,,,,,,,,,,,,,,,,,,,,,,,,217.0082,217.9044,l,1,0.2164,,[],[],[],[],[],[],[],0.2164,1,217.9045,218.4036,,,,,,1101,FEM,CON,150,leche,,a,218.4036,218.4038,0.110174815,-0.377086322,0,0,0,,0,120,120,200,1,,,,
,,,,,,4ebd8e545ee0f85d41ff7919,66a626ef09d4e21e1a8894ec,6734a14de3ffd52ac6321921,2024-11-13_07h16.01.194,Tarea de género gramatical,2024.2.2,MacIntel,60.24096386,,,,,,,,,,,,,,,,,,,,,,,,218.4049,219.2377,l,1,0.1586,,[],[],[],[],[],[],[],0.1586,1,219.2378,219.737,,,,,,921,FEM,CON,150,boca,,a,219.7371,219.7371,0.110174815,-0.377086322,0,0,0,,0,121,121,20,1,,,,
,,,,,,4ebd8e545ee0f85d41ff7919,66a626ef09d4e21e1a8894ec,6734a14de3ffd52ac6321921,2024-11-13_07h16.01.194,Tarea de género gramatical,2024.2.2,MacIntel,60.24096386,,,,,,,,,,,,,,,,,,,,,,,,219.7384,220.4874,l,1,0.0678,,[],[],[],[],[],[],[],0.0678,1,220.4876,220.9873,,,,,,1334,FEM,AGR,150,corona,la,a,220.9873,220.9874,0.110174815,-0.377086322,0,0,0,,0,122,122,433,1,,,,
,,,,,,4ebd8e545ee0f85d41ff7919,66a626ef09d4e21e1a8894ec,6734a14de3ffd52ac6321921,2024-11-13_07h16.01.194,Tarea de género gramatical,2024.2.2,MacIntel,60.24096386,,,,,,,,,,,,,,,,,,,,,,,,220.9885,221.7371,l,0,0.0727,,[],[],[],[],[],[],[],0.0727,0,221.738,222.2369,,,,,,1014,MAS,CON,150,menú,,l,222.2385,222.2395,0.110174815,-0.377086322,0,0,0,,0,123,123,113,1,,,,
,,,,,,4ebd8e545ee0f85d41ff7919,66a626ef09d4e21e1a8894ec,6734a14de3ffd52ac6321921,2024-11-13_07h16.01.194,Tarea de género gramatical,2024.2.2,MacIntel,60.24096386,,,,,,,,,,,,,,,,,,,,,,,,222.2402,223.1533,a,0,0.2333,,[],[],[],[],[],[],[],0.2333,0,223.1534,223.6532,,,,,,1333,FEM,DIS,150,huella,el,a,223.6532,223.6534,0.110174815,-0.377086322,0,0,0,,0,124,124,432,1,,,,
,,,,,,4ebd8e545ee0f85d41ff7919,66a626ef09d4e21e1a8894ec,6734a14de3ffd52ac6321921,2024-11-13_07h16.01.194,Tarea de género gramatical,2024.2.2,MacIntel,60.24096386,,,,,,,,,,,,,,,,,,,,,,,,223.6546,224.4196,a,1,0.0922,,[],[],[],[],[],[],[],0.0922,1,224.4202,224.9195,,,,,,1042,MAS,DIS,150,lodo,la,l,224.9195,224.9197,0.110174815,-0.377086322,0,0,0,,0,125,125,141,1,,,,
,,,,,,4ebd8e545ee0f85d41ff7919,66a626ef09d4e21e1a8894ec,6734a14de3ffd52ac6321921,2024-11-13_07h16.01.194,Tarea de género gramatical,2024.2.2,MacIntel,60.24096386,,,,,,,,,,,,,,,,,,,,,,,,224.9209,225.8015,a,1,0.2104,,[],[],[],[],[],[],[],0.2104,1,225.8017,226.3023,,,,,,1007,MAS,AGR,150,cubo,el,l,226.3024,226.3025,0.110174815,-0.377086322,0,0,0,,0,126,126,106,1,,,,
,,,,,,4ebd8e545ee0f85d41ff7919,66a626ef09d4e21e1a8894ec,6734a14de3ffd52ac6321921,2024-11-13_07h16.01.194,Tarea de género gramatical,2024.2.2,MacIntel,60.24096386,,,,,,,,,,,,,,,,,,,,,,,,226.304,226.9859,a,0,0.0005,,[],[],[],[],[],[],[],0.0005,0,226.9869,227.4856,,,,,,1166,FEM,AGR,150,jaula,la,a,227.4857,227.4858,0.110174815,-0.377086322,0,0,0,,0,127,127,265,1,,,,
,,,,,,4ebd8e545ee0f85d41ff7919,66a626ef09d4e21e1a8894ec,6734a14de3ffd52ac6321921,2024-11-13_07h16.01.194,Tarea de género gramatical,2024.2.2,MacIntel,60.24096386,,,,,,,,,,,,,,,,,,,,,,,,227.487,228.3344,l,1,0.1725,,[],[],[],[],[],[],[],0.1725,1,228.3353,228.8353,,,,,,973,FEM,DIS,150,roca,el,a,228.8371,228.8381,0.110174815,-0.377086322,0,0,0,,0,128,128,72,1,,,,
,,,,,,4ebd8e545ee0f85d41ff7919,66a626ef09d4e21e1a8894ec,6734a14de3ffd52ac6321921,2024-11-13_07h16.01.194,Tarea de género gramatical,2024.2.2,MacIntel,60.24096386,,,,,,,,,,,,,,,,,,,,,,,,228.8389,229.7183,l,1,0.2024,,[],[],[],[],[],[],[],0.2024,1,229.7184,230.2183,,,,,,1279,FEM,DIS,150,granja,el,a,230.2183,230.2184,0.110174815,-0.377086322,0,0,0,,0,129,129,378,1,,,,
,,,,,,4ebd8e545ee0f85d41ff7919,66a626ef09d4e21e1a8894ec,6734a14de3ffd52ac6321921,2024-11-13_07h16.01.194,Tarea de género gramatical,2024.2.2,MacIntel,60.24096386,,,,,,,,,,,,,,,,,,,,,,,,230.2195,231.0847,l,0,0.1916,,[],[],[],[],[],[],[],0.1916,0,231.0856,231.5845,,,,,,1109,MAS,AGR,150,banco,el,l,231.5846,231.5847,0.110174815,-0.377086322,0,0,0,,0,130,130,208,1,,,,
,,,,,,4ebd8e545ee0f85d41ff7919,66a626ef09d4e21e1a8894ec,6734a14de3ffd52ac6321921,2024-11-13_07h16.01.194,Tarea de género gramatical,2024.2.2,MacIntel,60.24096386,,,,,,,,,,,,,,,,,,,,,,,,231.5859,232.9841,a,0,0.7185,,[],[],[],[],[],[],[],0.7185,0,232.9841,233.4832,,,,,,1053,FEM,CON,150,mujer,,a,233.4832,233.4834,0.110174815,-0.377086322,0,0,0,,0,131,131,152,1,,,,
,,,,,,4ebd8e545ee0f85d41ff7919,66a626ef09d4e21e1a8894ec,6734a14de3ffd52ac6321921,2024-11-13_07h16.01.194,Tarea de género gramatical,2024.2.2,MacIntel,60.24096386,,,,,,,,,,,,,,,,,,,,,,,,233.4846,234.3506,a,1,0.1865,,[],[],[],[],[],[],[],0.1865,1,234.3516,234.8504,,,,,,1186,MAS,DIS,150,reino,la,l,234.8517,234.8528,0.110174815,-0.377086322,0,0,0,,0,132,132,285,1,,,,
,,,,,,4ebd8e545ee0f85d41ff7919,66a626ef09d4e21e1a8894ec,6734a14de3ffd52ac6321921,2024-11-13_07h16.01.194,Tarea de género gramatical,2024.2.2,MacIntel,60.24096386,,,,,,,,,,,,,,,,,,,,,,,,234.8536,235.7336,a,0,0.2038,,[],[],[],[],[],[],[],0.2038,0,235.7346,236.2333,,,,,,1263,FEM,CON,150,unidad,,a,236.2334,236.2334,0.110174815,-0.377086322,0,0,0,,0,133,133,362,1,,,,
,,,,,,4ebd8e545ee0f85d41ff7919,66a626ef09d4e21e1a8894ec,6734a14de3ffd52ac6321921,2024-11-13_07h16.01.194,Tarea de género gramatical,2024.2.2,MacIntel,60.24096386,,,,,,,,,,,,,,,,,,,,,,,,236.2347,237.0665,a,0,0.1549,,[],[],[],[],[],[],[],0.1549,0,237.0666,237.5664,,,,,,1303,FEM,DIS,150,paliza,el,a,237.5664,237.5665,0.110174815,-0.377086322,0,0,0,,0,134,134,402,1,,,,
,,,,,,4ebd8e545ee0f85d41ff7919,66a626ef09d4e21e1a8894ec,6734a14de3ffd52ac6321921,2024-11-13_07h16.01.194,Tarea de género gramatical,2024.2.2,MacIntel,60.24096386,,,,,,,,,,,,,,,,,,,,,,,,237.5676,238.3495,l,1,0.1095,,[],[],[],[],[],[],[],0.1095,1,238.3504,238.8495,,,,,,1213,FEM,DIS,150,ciudad,el,a,238.8496,238.8496,0.110174815,-0.377086322,0,0,0,,0,135,135,312,1,,,,
,,,,,,4ebd8e545ee0f85d41ff7919,66a626ef09d4e21e1a8894ec,6734a14de3ffd52ac6321921,2024-11-13_07h16.01.194,Tarea de género gramatical,2024.2.2,MacIntel,60.24096386,,,,,,,,,,,,,,,,,,,,,,,,238.8508,239.799,a,1,0.2695,,[],[],[],[],[],[],[],0.2695,1,239.799,240.2984,,,,,,977,MAS,AGR,150,pico,el,l,240.2984,240.2985,0.110174815,-0.377086322,0,0,0,,0,136,136,76,1,,,,
,,,,,,4ebd8e545ee0f85d41ff7919,66a626ef09d4e21e1a8894ec,6734a14de3ffd52ac6321921,2024-11-13_07h16.01.194,Tarea de género gramatical,2024.2.2,MacIntel,60.24096386,,,,,,,,,,,,,,,,,,,,,,,,240.2997,241.2324,a,1,0.2506,,[],[],[],[],[],[],[],0.2506,1,241.2325,241.732,,,,,,1110,MAS,CON,150,baile,,l,241.7336,241.7346,0.110174815,-0.377086322,0,0,0,,0,137,137,209,1,,,,
,,,,,,4ebd8e545ee0f85d41ff7919,66a626ef09d4e21e1a8894ec,6734a14de3ffd52ac6321921,2024-11-13_07h16.01.194,Tarea de género gramatical,2024.2.2,MacIntel,60.24096386,,,,,,,,,,,,,,,,,,,,,,,,241.7357,242.5816,a,0,0.1751,,[],[],[],[],[],[],[],0.1751,0,242.5822,243.0817,,,,,,1069,FEM,DIS,150,vista,el,a,243.0817,243.0819,0.110174815,-0.377086322,0,0,0,,0,138,138,168,1,,,,
,,,,,,4ebd8e545ee0f85d41ff7919,66a626ef09d4e21e1a8894ec,6734a14de3ffd52ac6321921,2024-11-13_07h16.01.194,Tarea de género gramatical,2024.2.2,MacIntel,60.24096386,,,,,,,,,,,,,,,,,,,,,,,,243.0829,243.8976,l,0,0.1322,,[],[],[],[],[],[],[],0.1322,0,243.8977,244.3978,,,,,,1122,MAS,CON,150,valor,,l,244.3978,244.3979,0.110174815,-0.377086322,0,0,0,,0,139,139,221,1,,,,
,,,,,,4ebd8e545ee0f85d41ff7919,66a626ef09d4e21e1a8894ec,6734a14de3ffd52ac6321921,2024-11-13_07h16.01.194,Tarea de género gramatical,2024.2.2,MacIntel,60.24096386,,,,,,,,,,,,,,,,,,,,,,,,244.3987,245.3977,l,0,0.3192,,[],[],[],[],[],[],[],0.3192,0,245.3978,245.8976,,,,,,1242,MAS,CON,150,abuelo,,l,245.8976,245.8977,0.110174815,-0.377086322,0,0,0,,0,140,140,341,1,,,,
,,,,,,4ebd8e545ee0f85d41ff7919,66a626ef09d4e21e1a8894ec,6734a14de3ffd52ac6321921,2024-11-13_07h16.01.194,Tarea de género gramatical,2024.2.2,MacIntel,60.24096386,,,,,,,,,,,,,,,,,,,,,,,,245.8989,246.7471,l,0,0.1689,,[],[],[],[],[],[],[],0.1689,0,246.7472,247.2467,,,,,,1337,MAS,AGR,150,hombro,el,l,247.248,247.2495,0.110174815,-0.377086322,0,0,0,,0,141,141,436,1,,,,
,,,,,,4ebd8e545ee0f85d41ff7919,66a626ef09d4e21e1a8894ec,6734a14de3ffd52ac6321921,2024-11-13_07h16.01.194,Tarea de género gramatical,2024.2.2,MacIntel,60.24096386,,,,,,,,,,,,,,,,,,,,,,,,247.2502,248.0803,a,1,0.1555,,[],[],[],[],[],[],[],0.1555,1,248.0815,248.5803,,,,,,952,MAS,DIS,150,lago,la,l,248.5804,248.5805,0.110174815,-0.377086322,0,0,0,,0,142,142,51,1,,,,
,,,,,,4ebd8e545ee0f85d41ff7919,66a626ef09d4e21e1a8894ec,6734a14de3ffd52ac6321921,2024-11-13_07h16.01.194,Tarea de género gramatical,2024.2.2,MacIntel,60.24096386,,,,,,,,,,,,,,,,,,,,,,,,248.5816,249.6965,a,1,0.4322,,[],[],[],[],[],[],[],0.4322,1,249.6965,250.1958,,,,,,1163,MAS,AGR,150,carro,el,l,250.1959,250.196,0.110174815,-0.377086322,0,0,0,,0,143,143,262,1,,,,
,,,,,,4ebd8e545ee0f85d41ff7919,66a626ef09d4e21e1a8894ec,6734a14de3ffd52ac6321921,2024-11-13_07h16.01.194,Tarea de género gramatical,2024.2.2,MacIntel,60.24096386,,,,,,,,,,,,,,,,,,,,,,,,250.1971,251.1451,a,0,0.2778,,[],[],[],[],[],[],[],0.2778,0,251.1458,251.6462,,,,,,1005,FEM,CON,150,jefa,,a,251.6463,251.6464,0.110174815,-0.377086322,0,0,0,,0,144,144,104,1,,,,
,,,,,,4ebd8e545ee0f85d41ff7919,66a626ef09d4e21e1a8894ec,6734a14de3ffd52ac6321921,2024-11-13_07h16.01.194,Tarea de género gramatical,2024.2.2,MacIntel,60.24096386,,,,,,,,,,,,,,,,,,,,,,,,251.6475,252.5452,a,0,0.2289,,[],[],[],[],[],[],[],0.2289,0,252.5453,253.0459,,,,,,1077,FEM,CON,150,broma,,a,253.0459,253.046,0.110174815,-0.377086322,0,0,0,,0,145,145,176,1,,,,
,,,,,,4ebd8e545ee0f85d41ff7919,66a626ef09d4e21e1a8894ec,6734a14de3ffd52ac6321921,2024-11-13_07h16.01.194,Tarea de género gramatical,2024.2.2,MacIntel,60.24096386,,,,,,,,,,,,,,,,,,,,,,,,253.0472,254.0453,a,1,0.3271,,[],[],[],[],[],[],[],0.3271,1,254.046,254.5453,,,,,,936,MAS,CON,150,dedo,,l,254.5467,254.5477,0.110174815,-0.377086322,0,0,0,,0,146,146,35,1,,,,
,,,,,,4ebd8e545ee0f85d41ff7919,66a626ef09d4e21e1a8894ec,6734a14de3ffd52ac6321921,2024-11-13_07h16.01.194,Tarea de género gramatical,2024.2.2,MacIntel,60.24096386,,,,,,,,,,,,,,,,,,,,,,,,254.5487,255.3613,a,0,0.1452,,[],[],[],[],[],[],[],0.1452,0,255.3622,255.8616,,,,,,1129,FEM,DIS,150,celda,el,a,255.8617,255.8618,0.110174815,-0.377086322,0,0,0,,0,147,147,228,1,,,,
,,,,,,4ebd8e545ee0f85d41ff7919,66a626ef09d4e21e1a8894ec,6734a14de3ffd52ac6321921,2024-11-13_07h16.01.194,Tarea de género gramatical,2024.2.2,MacIntel,60.24096386,,,,,,,,,,,,,,,,,,,,,,,,255.863,256.6613,a,1,0.1188,,[],[],[],[],[],[],[],0.1188,1,256.6618,257.1615,,,,,,1108,MAS,DIS,150,suelo,la,l,257.1615,257.1617,0.110174815,-0.377086322,0,0,0,,0,148,148,207,1,,,,
,,,,,,4ebd8e545ee0f85d41ff7919,66a626ef09d4e21e1a8894ec,6734a14de3ffd52ac6321921,2024-11-13_07h16.01.194,Tarea de género gramatical,2024.2.2,MacIntel,60.24096386,,,,,,,,,,,,,,,,,,,,,,,,257.1629,258.0111,l,0,0.1712,,[],[],[],[],[],[],[],0.1712,0,258.012,258.5111,,,,,,1084,MAS,DIS,150,cielo,la,l,258.5112,258.5113,0.110174815,-0.377086322,0,0,0,,0,149,149,183,1,,,,
,,,,,,4ebd8e545ee0f85d41ff7919,66a626ef09d4e21e1a8894ec,6734a14de3ffd52ac6321921,2024-11-13_07h16.01.194,Tarea de género gramatical,2024.2.2,MacIntel,60.24096386,,,,,,,,,,,,,,,,,,,,,,,,258.5126,259.4109,a,0,0.2209,,[],[],[],[],[],[],[],0.2209,0,259.4111,259.9107,,,,,,1171,FEM,DIS,150,viuda,el,a,259.9125,270.4417,0.110174815,-0.377086322,0,0,0,space,0,150,150,270,1,10.5179,,,
,,,,,,4ebd8e545ee0f85d41ff7919,66a626ef09d4e21e1a8894ec,6734a14de3ffd52ac6321921,2024-11-13_07h16.01.194,Tarea de género gramatical,2024.2.2,MacIntel,60.24096386,,,,,,,,,,,,,,,,,,,,,,,,270.4429,271.4412,l,0,0.3154,,[],[],[],[],[],[],[],0.3154,0,271.4413,271.9413,,,,,,1283,MAS,AGR,150,parque,el,l,271.9413,271.9415,0.110174815,-0.377086322,0,0,0,,0,151,151,382,1,,,,
,,,,,,4ebd8e545ee0f85d41ff7919,66a626ef09d4e21e1a8894ec,6734a14de3ffd52ac6321921,2024-11-13_07h16.01.194,Tarea de género gramatical,2024.2.2,MacIntel,60.24096386,,,,,,,,,,,,,,,,,,,,,,,,271.9426,272.7742,a,0,0.1576,,[],[],[],[],[],[],[],0.1576,0,272.7743,273.2741,,,,,,1316,FEM,AGR,150,colina,la,a,273.2741,273.2742,0.110174815,-0.377086322,0,0,0,,0,152,152,415,1,,,,
,,,,,,4ebd8e545ee0f85d41ff7919,66a626ef09d4e21e1a8894ec,6734a14de3ffd52ac6321921,2024-11-13_07h16.01.194,Tarea de género gramatical,2024.2.2,MacIntel,60.24096386,,,,,,,,,,,,,,,,,,,,,,,,273.2753,274.4071,l,1,0.4572,,[],[],[],[],[],[],[],0.4572,1,274.408,274.9061,,,,,,950,FEM,AGR,150,dama,la,a,274.9061,274.9063,0.110174815,-0.377086322,0,0,0,,0,153,153,49,1,,,,
,,,,,,4ebd8e545ee0f85d41ff7919,66a626ef09d4e21e1a8894ec,6734a14de3ffd52ac6321921,2024-11-13_07h16.01.194,Tarea de género gramatical,2024.2.2,MacIntel,60.24096386,,,,,,,,,,,,,,,,,,,,,,,,274.9071,275.6902,a,1,0.1218,,[],[],[],[],[],[],[],0.1218,1,275.6902,276.19,,,,,,1312,MAS,DIS,150,espejo,la,l,276.1901,276.1901,0.110174815,-0.377086322,0,0,0,,0,154,154,411,1,,,,
,,,,,,4ebd8e545ee0f85d41ff7919,66a626ef09d4e21e1a8894ec,6734a14de3ffd52ac6321921,2024-11-13_07h16.01.194,Tarea de género gramatical,2024.2.2,MacIntel,60.24096386,,,,,,,,,,,,,,,,,,,,,,,,276.1914,276.9064,a,0,0.0375,,[],[],[],[],[],[],[],0.0375,0,276.9073,277.4064,,,,,,1321,FEM,DIS,150,novela,el,a,277.4078,277.4088,0.110174815,-0.377086322,0,0,0,,0,155,155,420,1,,,,
,,,,,,4ebd8e545ee0f85d41ff7919,66a626ef09d4e21e1a8894ec,6734a14de3ffd52ac6321921,2024-11-13_07h16.01.194,Tarea de género gramatical,2024.2.2,MacIntel,60.24096386,,,,,,,,,,,,,,,,,,,,,,,,277.4097,278.2895,l,0,0.1986,,[],[],[],[],[],[],[],0.1986,0,278.2896,278.7882,,,,,,1350,MAS,CON,150,conejo,,l,278.7883,278.7884,0.110174815,-0.377086322,0,0,0,,0,156,156,449,1,,,,
,,,,,,4ebd8e545ee0f85d41ff7919,66a626ef09d4e21e1a8894ec,6734a14de3ffd52ac6321921,2024-11-13_07h16.01.194,Tarea de género gramatical,2024.2.2,MacIntel,60.24096386,,,,,,,,,,,,,,,,,,,,,,,,278.7893,279.6386,l,0,0.1852,,[],[],[],[],[],[],[],0.1852,0,279.6387,280.1379,,,,,,1284,MAS,CON,150,pedazo,,l,280.138,280.1381,0.110174815,-0.377086322,0,0,0,,0,157,157,383,1,,,,
,,,,,,4ebd8e545ee0f85d41ff7919,66a626ef09d4e21e1a8894ec,6734a14de3ffd52ac6321921,2024-11-13_07h16.01.194,Tarea de género gramatical,2024.2.2,MacIntel,60.24096386,,,,,,,,,,,,,,,,,,,,,,,,280.1394,280.9721,l,1,0.1554,,[],[],[],[],[],[],[],0.1554,1,280.9731,281.472,,,,,,920,FEM,AGR,150,ropa,la,a,281.472,281.4721,0.110174815,-0.377086322,0,0,0,,0,158,158,19,1,,,,
,,,,,,4ebd8e545ee0f85d41ff7919,66a626ef09d4e21e1a8894ec,6734a14de3ffd52ac6321921,2024-11-13_07h16.01.194,Tarea de género gramatical,2024.2.2,MacIntel,60.24096386,,,,,,,,,,,,,,,,,,,,,,,,281.4733,282.305,l,1,0.1507,,[],[],[],[],[],[],[],0.1507,1,282.305,282.8049,,,,,,945,FEM,CON,150,isla,,a,282.8063,282.8073,0.110174815,-0.377086322,0,0,0,,0,159,159,44,1,,,,
,,,,,,4ebd8e545ee0f85d41ff7919,66a626ef09d4e21e1a8894ec,6734a14de3ffd52ac6321921,2024-11-13_07h16.01.194,Tarea de género gramatical,2024.2.2,MacIntel,60.24096386,,,,,,,,,,,,,,,,,,,,,,,,282.8082,283.5547,a,0,0.072,,[],[],[],[],[],[],[],0.072,0,283.5557,284.0546,,,,,,938,FEM,AGR,150,obra,la,a,284.0547,284.0548,0.110174815,-0.377086322,0,0,0,,0,160,160,37,1,,,,
,,,,,,4ebd8e545ee0f85d41ff7919,66a626ef09d4e21e1a8894ec,6734a14de3ffd52ac6321921,2024-11-13_07h16.01.194,Tarea de género gramatical,2024.2.2,MacIntel,60.24096386,,,,,,,,,,,,,,,,,,,,,,,,284.056,284.821,a,1,0.0924,,[],[],[],[],[],[],[],0.0924,1,284.8219,285.3209,,,,,,1152,MAS,CON,150,viejo,,l,285.321,285.3211,0.110174815,-0.377086322,0,0,0,,0,161,161,251,1,,,,
,,,,,,4ebd8e545ee0f85d41ff7919,66a626ef09d4e21e1a8894ec,6734a14de3ffd52ac6321921,2024-11-13_07h16.01.194,Tarea de género gramatical,2024.2.2,MacIntel,60.24096386,,,,,,,,,,,,,,,,,,,,,,,,285.3224,286.2207,a,0,0.2206,,[],[],[],[],[],[],[],0.2206,0,286.2217,286.7207,,,,,,1304,FEM,AGR,150,gloria,la,a,286.7207,286.7209,0.110174815,-0.377086322,0,0,0,,0,162,162,403,1,,,,
,,,,,,4ebd8e545ee0f85d41ff7919,66a626ef09d4e21e1a8894ec,6734a14de3ffd52ac6321921,2024-11-13_07h16.01.194,Tarea de género gramatical,2024.2.2,MacIntel,60.24096386,,,,,,,,,,,,,,,,,,,,,,,,286.7221,287.4872,l,1,0.0904,,[],[],[],[],[],[],[],0.0904,1,287.4882,287.9863,,,,,,1237,FEM,DIS,150,escena,el,a,287.9864,287.9865,0.110174815,-0.377086322,0,0,0,,0,163,163,336,1,,,,
,,,,,,4ebd8e545ee0f85d41ff7919,66a626ef09d4e21e1a8894ec,6734a14de3ffd52ac6321921,2024-11-13_07h16.01.194,Tarea de género gramatical,2024.2.2,MacIntel,60.24096386,,,,,,,,,,,,,,,,,,,,,,,,287.9876,288.8198,l,0,0.1591,,[],[],[],[],[],[],[],0.1591,0,288.8207,289.3187,,,,,,1343,MAS,AGR,150,templo,el,l,289.3198,289.3205,0.110174815,-0.377086322,0,0,0,,0,164,164,442,1,,,,
,,,,,,4ebd8e545ee0f85d41ff7919,66a626ef09d4e21e1a8894ec,6734a14de3ffd52ac6321921,2024-11-13_07h16.01.194,Tarea de género gramatical,2024.2.2,MacIntel,60.24096386,,,,,,,,,,,,,,,,,,,,,,,,289.3212,290.1364,l,0,0.1328,,[],[],[],[],[],[],[],0.1328,0,290.1365,290.6362,,,,,,1079,MAS,AGR,150,viaje,el,l,290.6363,290.6364,0.110174815,-0.377086322,0,0,0,,0,165,165,178,1,,,,
,,,,,,4ebd8e545ee0f85d41ff7919,66a626ef09d4e21e1a8894ec,6734a14de3ffd52ac6321921,2024-11-13_07h16.01.194,Tarea de género gramatical,2024.2.2,MacIntel,60.24096386,,,,,,,,,,,,,,,,,,,,,,,,290.6374,291.4186,a,1,0.1032,,[],[],[],[],[],[],[],0.1032,1,291.4193,291.9192,,,,,,1158,MAS,CON,150,polvo,,l,291.9193,291.9194,0.110174815,-0.377086322,0,0,0,,0,166,166,257,1,,,,
,,,,,,4ebd8e545ee0f85d41ff7919,66a626ef09d4e21e1a8894ec,6734a14de3ffd52ac6321921,2024-11-13_07h16.01.194,Tarea de género gramatical,2024.2.2,MacIntel,60.24096386,,,,,,,,,,,,,,,,,,,,,,,,291.9205,292.7523,a,0,0.1556,,[],[],[],[],[],[],[],0.1556,0,292.7532,293.2515,,,,,,1238,FEM,AGR,150,abuela,la,a,293.2516,293.2516,0.110174815,-0.377086322,0,0,0,,0,167,167,337,1,,,,
,,,,,,4ebd8e545ee0f85d41ff7919,66a626ef09d4e21e1a8894ec,6734a14de3ffd52ac6321921,2024-11-13_07h16.01.194,Tarea de género gramatical,2024.2.2,MacIntel,60.24096386,,,,,,,,,,,,,,,,,,,,,,,,293.2528,294.0855,l,0,0.1527,,[],[],[],[],[],[],[],0.1527,0,294.0856,294.5853,,,,,,910,MAS,DIS,150,niño,la,l,294.5868,294.5878,0.110174815,-0.377086322,0,0,0,,0,168,168,9,1,,,,
,,,,,,4ebd8e545ee0f85d41ff7919,66a626ef09d4e21e1a8894ec,6734a14de3ffd52ac6321921,2024-11-13_07h16.01.194,Tarea de género gramatical,2024.2.2,MacIntel,60.24096386,,,,,,,,,,,,,,,,,,,,,,,,294.5889,295.3008,a,1,0.0364,,[],[],[],[],[],[],[],0.0364,1,295.3018,295.8017,,,,,,1145,MAS,AGR,150,turno,el,l,295.8017,295.8019,0.110174815,-0.377086322,0,0,0,,0,169,169,244,1,,,,
,,,,,,4ebd8e545ee0f85d41ff7919,66a626ef09d4e21e1a8894ec,6734a14de3ffd52ac6321921,2024-11-13_07h16.01.194,Tarea de género gramatical,2024.2.2,MacIntel,60.24096386,,,,,,,,,,,,,,,,,,,,,,,,295.8032,296.6182,a,0,0.1329,,[],[],[],[],[],[],[],0.1329,0,296.6191,297.1172,,,,,,1339,FEM,DIS,150,toalla,el,a,297.1172,297.1173,0.110174815,-0.377086322,0,0,0,,0,170,170,438,1,,,,
,,,,,,4ebd8e545ee0f85d41ff7919,66a626ef09d4e21e1a8894ec,6734a14de3ffd52ac6321921,2024-11-13_07h16.01.194,Tarea de género gramatical,2024.2.2,MacIntel,60.24096386,,,,,,,,,,,,,,,,,,,,,,,,297.1185,297.901,l,1,0.1087,,[],[],[],[],[],[],[],0.1087,1,297.902,298.401,,,,,,1052,FEM,AGR,150,gente,la,a,298.401,298.4012,0.110174815,-0.377086322,0,0,0,,0,171,171,151,1,,,,
,,,,,,4ebd8e545ee0f85d41ff7919,66a626ef09d4e21e1a8894ec,6734a14de3ffd52ac6321921,2024-11-13_07h16.01.194,Tarea de género gramatical,2024.2.2,MacIntel,60.24096386,,,,,,,,,,,,,,,,,,,,,,,,298.4023,299.1008,l,0,0.0258,,[],[],[],[],[],[],[],0.0258,0,299.1018,299.6007,,,,,,1241,MAS,AGR,150,precio,el,l,299.6008,299.6009,0.110174815,-0.377086322,0,0,0,,0,172,172,340,1,,,,
,,,,,,4ebd8e545ee0f85d41ff7919,66a626ef09d4e21e1a8894ec,6734a14de3ffd52ac6321921,2024-11-13_07h16.01.194,Tarea de género gramatical,2024.2.2,MacIntel,60.24096386,,,,,,,,,,,,,,,,,,,,,,,,299.6021,300.3005,l,0,0.0257,,[],[],[],[],[],[],[],0.0257,0,300.3006,300.8003,,,,,,1211,MAS,AGR,150,camino,el,l,300.8018,300.8028,0.110174815,-0.377086322,0,0,0,,0,173,173,310,1,,,,
,,,,,,4ebd8e545ee0f85d41ff7919,66a626ef09d4e21e1a8894ec,6734a14de3ffd52ac6321921,2024-11-13_07h16.01.194,Tarea de género gramatical,2024.2.2,MacIntel,60.24096386,,,,,,,,,,,,,,,,,,,,,,,,300.8035,301.5828,a,1,0.1062,,[],[],[],[],[],[],[],0.1062,1,301.5836,302.0834,,,,,,1013,MAS,AGR,150,toro,el,l,302.0834,302.0836,0.110174815,-0.377086322,0,0,0,,0,174,174,112,1,,,,
,,,,,,4ebd8e545ee0f85d41ff7919,66a626ef09d4e21e1a8894ec,6734a14de3ffd52ac6321921,2024-11-13_07h16.01.194,Tarea de género gramatical,2024.2.2,MacIntel,60.24096386,,,,,,,,,,,,,,,,,,,,,,,,302.0848,302.8492,a,0,0.0819,,[],[],[],[],[],[],[],0.0819,0,302.8501,303.3497,,,,,,1249,FEM,DIS,150,prensa,el,a,303.3498,303.3499,0.110174815,-0.377086322,0,0,0,,0,175,175,348,1,,,,
,,,,,,4ebd8e545ee0f85d41ff7919,66a626ef09d4e21e1a8894ec,6734a14de3ffd52ac6321921,2024-11-13_07h16.01.194,Tarea de género gramatical,2024.2.2,MacIntel,60.24096386,,,,,,,,,,,,,,,,,,,,,,,,303.3511,304.2815,a,0,0.2605,,[],[],[],[],[],[],[],0.2605,0,304.2816,304.7824,,,,,,1009,FEM,DIS,150,gota,el,a,304.7825,304.7826,0.110174815,-0.377086322,0,0,0,,0,176,176,108,1,,,,
,,,,,,4ebd8e545ee0f85d41ff7919,66a626ef09d4e21e1a8894ec,6734a14de3ffd52ac6321921,2024-11-13_07h16.01.194,Tarea de género gramatical,2024.2.2,MacIntel,60.24096386,,,,,,,,,,,,,,,,,,,,,,,,304.7838,305.5826,a,1,0.118,,[],[],[],[],[],[],[],0.118,1,305.5835,306.0824,,,,,,1102,MAS,DIS,150,honor,la,l,306.0837,306.0847,0.110174815,-0.377086322,0,0,0,,0,177,177,201,1,,,,
,,,,,,4ebd8e545ee0f85d41ff7919,66a626ef09d4e21e1a8894ec,6734a14de3ffd52ac6321921,2024-11-13_07h16.01.194,Tarea de género gramatical,2024.2.2,MacIntel,60.24096386,,,,,,,,,,,,,,,,,,,,,,,,306.0855,306.8816,a,0,0.1208,,[],[],[],[],[],[],[],0.1208,0,306.8825,307.3822,,,,,,1245,FEM,CON,150,pierna,,a,307.3823,307.3824,0.110174815,-0.377086322,0,0,0,,0,178,178,344,1,,,,
,,,,,,4ebd8e545ee0f85d41ff7919,66a626ef09d4e21e1a8894ec,6734a14de3ffd52ac6321921,2024-11-13_07h16.01.194,Tarea de género gramatical,2024.2.2,MacIntel,60.24096386,,,,,,,,,,,,,,,,,,,,,,,,307.3834,308.365,a,0,0.3098,,[],[],[],[],[],[],[],0.3098,0,308.3651,308.8651,,,,,,963,FEM,CON,150,fila,,a,308.8652,308.8653,0.110174815,-0.377086322,0,0,0,,0,179,179,62,1,,,,
,,,,,,4ebd8e545ee0f85d41ff7919,66a626ef09d4e21e1a8894ec,6734a14de3ffd52ac6321921,2024-11-13_07h16.01.194,Tarea de género gramatical,2024.2.2,MacIntel,60.24096386,,,,,,,,,,,,,,,,,,,,,,,,308.8663,309.6973,a,0,0.1612,,[],[],[],[],[],[],[],0.1612,0,309.6973,310.198,,,,,,1058,FEM,AGR,150,chica,la,a,310.198,310.1981,0.110174815,-0.377086322,0,0,0,,0,180,180,157,1,,,,
,,,,,,4ebd8e545ee0f85d41ff7919,66a626ef09d4e21e1a8894ec,6734a14de3ffd52ac6321921,2024-11-13_07h16.01.194,Tarea de género gramatical,2024.2.2,MacIntel,60.24096386,,,,,,,,,,,,,,,,,,,,,,,,310.1994,310.8979,l,1,0.0228,,[],[],[],[],[],[],[],0.0228,1,310.8989,311.3977,,,,,,1219,FEM,DIS,150,sangre,el,a,311.3978,311.3979,0.110174815,-0.377086322,0,0,0,,0,181,181,318,1,,,,
,,,,,,4ebd8e545ee0f85d41ff7919,66a626ef09d4e21e1a8894ec,6734a14de3ffd52ac6321921,2024-11-13_07h16.01.194,Tarea de género gramatical,2024.2.2,MacIntel,60.24096386,,,,,,,,,,,,,,,,,,,,,,,,311.3991,312.2136,l,1,0.1436,,[],[],[],[],[],[],[],0.1436,1,312.2137,312.7139,,,,,,1208,FEM,AGR,150,semana,la,a,312.7154,312.7164,0.110174815,-0.377086322,0,0,0,,0,182,182,307,1,,,,
,,,,,,4ebd8e545ee0f85d41ff7919,66a626ef09d4e21e1a8894ec,6734a14de3ffd52ac6321921,2024-11-13_07h16.01.194,Tarea de género gramatical,2024.2.2,MacIntel,60.24096386,,,,,,,,,,,,,,,,,,,,,,,,312.7173,313.6471,a,0,0.2587,,[],[],[],[],[],[],[],0.2587,0,313.648,314.147,,,,,,956,FEM,AGR,150,bola,la,a,314.147,314.1471,0.110174815,-0.377086322,0,0,0,,0,183,183,55,1,,,,
,,,,,,4ebd8e545ee0f85d41ff7919,66a626ef09d4e21e1a8894ec,6734a14de3ffd52ac6321921,2024-11-13_07h16.01.194,Tarea de género gramatical,2024.2.2,MacIntel,60.24096386,,,,,,,,,,,,,,,,,,,,,,,,314.1484,314.9135,l,0,0.0889,,[],[],[],[],[],[],[],0.0889,0,314.9135,315.4133,,,,,,1295,MAS,AGR,150,correo,el,l,315.4134,315.4135,0.110174815,-0.377086322,0,0,0,,0,184,184,394,1,,,,
,,,,,,4ebd8e545ee0f85d41ff7919,66a626ef09d4e21e1a8894ec,6734a14de3ffd52ac6321921,2024-11-13_07h16.01.194,Tarea de género gramatical,2024.2.2,MacIntel,60.24096386,,,,,,,,,,,,,,,,,,,,,,,,315.4147,316.2132,l,1,0.1257,,[],[],[],[],[],[],[],0.1257,1,316.214,316.713,,,,,,1033,FEM,DIS,150,joya,el,a,316.7131,316.7132,0.110174815,-0.377086322,0,0,0,,0,185,185,132,1,,,,
,,,,,,4ebd8e545ee0f85d41ff7919,66a626ef09d4e21e1a8894ec,6734a14de3ffd52ac6321921,2024-11-13_07h16.01.194,Tarea de género gramatical,2024.2.2,MacIntel,60.24096386,,,,,,,,,,,,,,,,,,,,,,,,316.7145,317.4129,l,1,0.0266,,[],[],[],[],[],[],[],0.0266,1,317.4129,317.912,,,,,,1016,FEM,AGR,150,nube,la,a,317.9135,317.9145,0.110174815,-0.377086322,0,0,0,,0,186,186,115,1,,,,
,,,,,,4ebd8e545ee0f85d41ff7919,66a626ef09d4e21e1a8894ec,6734a14de3ffd52ac6321921,2024-11-13_07h16.01.194,Tarea de género gramatical,2024.2.2,MacIntel,60.24096386,,,,,,,,,,,,,,,,,,,,,,,,317.9153,318.6292,l,1,0.0427,,[],[],[],[],[],[],[],0.0427,1,318.6293,319.129,,,,,,992,FEM,AGR,150,masa,la,a,319.1291,319.1292,0.110174815,-0.377086322,0,0,0,,0,187,187,91,1,,,,
,,,,,,4ebd8e545ee0f85d41ff7919,66a626ef09d4e21e1a8894ec,6734a14de3ffd52ac6321921,2024-11-13_07h16.01.194,Tarea de género gramatical,2024.2.2,MacIntel,60.24096386,,,,,,,,,,,,,,,,,,,,,,,,319.1304,319.9289,l,0,0.1222,,[],[],[],[],[],[],[],0.1222,0,319.9298,320.4287,,,,,,1181,MAS,AGR,150,actor,el,l,320.4287,320.4289,0.110174815,-0.377086322,0,0,0,,0,188,188,280,1,,,,
,,,,,,4ebd8e545ee0f85d41ff7919,66a626ef09d4e21e1a8894ec,6734a14de3ffd52ac6321921,2024-11-13_07h16.01.194,Tarea de género gramatical,2024.2.2,MacIntel,60.24096386,,,,,,,,,,,,,,,,,,,,,,,,320.4302,321.3618,a,1,0.2558,,[],[],[],[],[],[],[],0.2558,1,321.3628,321.8617,,,,,,1235,MAS,AGR,150,montón,el,l,321.8617,321.8619,0.110174815,-0.377086322,0,0,0,,0,189,189,334,1,,,,
,,,,,,4ebd8e545ee0f85d41ff7919,66a626ef09d4e21e1a8894ec,6734a14de3ffd52ac6321921,2024-11-13_07h16.01.194,Tarea de género gramatical,2024.2.2,MacIntel,60.24096386,,,,,,,,,,,,,,,,,,,,,,,,321.863,322.6444,a,0,0.1104,,[],[],[],[],[],[],[],0.1104,0,322.6451,323.1445,,,,,,980,FEM,AGR,150,vaca,la,a,323.1446,323.1447,0.110174815,-0.377086322,0,0,0,,0,190,190,79,1,,,,
,,,,,,4ebd8e545ee0f85d41ff7919,66a626ef09d4e21e1a8894ec,6734a14de3ffd52ac6321921,2024-11-13_07h16.01.194,Tarea de género gramatical,2024.2.2,MacIntel,60.24096386,,,,,,,,,,,,,,,,,,,,,,,,323.1458,323.9935,l,1,0.1772,,[],[],[],[],[],[],[],0.1772,1,323.9942,324.494,,,,,,1149,FEM,CON,150,crema,,a,324.4956,324.4966,0.110174815,-0.377086322,0,0,0,,0,191,191,248,1,,,,
,,,,,,4ebd8e545ee0f85d41ff7919,66a626ef09d4e21e1a8894ec,6734a14de3ffd52ac6321921,2024-11-13_07h16.01.194,Tarea de género gramatical,2024.2.2,MacIntel,60.24096386,,,,,,,,,,,,,,,,,,,,,,,,324.4975,325.4439,l,1,0.2762,,[],[],[],[],[],[],[],0.2762,1,325.444,325.943,,,,,,1135,FEM,DIS,150,torre,el,a,325.9431,325.9432,0.110174815,-0.377086322,0,0,0,,0,192,192,234,1,,,,
,,,,,,4ebd8e545ee0f85d41ff7919,66a626ef09d4e21e1a8894ec,6734a14de3ffd52ac6321921,2024-11-13_07h16.01.194,Tarea de género gramatical,2024.2.2,MacIntel,60.24096386,,,,,,,,,,,,,,,,,,,,,,,,325.9442,326.7096,l,1,0.1022,,[],[],[],[],[],[],[],0.1022,1,326.7097,327.2094,,,,,,993,FEM,CON,150,lata,,a,327.2095,327.2096,0.110174815,-0.377086322,0,0,0,,0,193,193,92,1,,,,
,,,,,,4ebd8e545ee0f85d41ff7919,66a626ef09d4e21e1a8894ec,6734a14de3ffd52ac6321921,2024-11-13_07h16.01.194,Tarea de género gramatical,2024.2.2,MacIntel,60.24096386,,,,,,,,,,,,,,,,,,,,,,,,327.2103,328.0763,l,1,0.1929,,[],[],[],[],[],[],[],0.1929,1,328.0763,328.5759,,,,,,1172,FEM,AGR,150,oreja,la,a,328.576,328.5761,0.110174815,-0.377086322,0,0,0,,0,194,194,271,1,,,,
,,,,,,4ebd8e545ee0f85d41ff7919,66a626ef09d4e21e1a8894ec,6734a14de3ffd52ac6321921,2024-11-13_07h16.01.194,Tarea de género gramatical,2024.2.2,MacIntel,60.24096386,,,,,,,,,,,,,,,,,,,,,,,,328.5772,329.4095,l,0,0.1782,,[],[],[],[],[],[],[],0.1782,0,329.4103,329.9096,,,,,,988,MAS,DIS,150,pavo,la,l,329.9112,329.9122,0.110174815,-0.377086322,0,0,0,,0,195,195,87,1,,,,
,,,,,,4ebd8e545ee0f85d41ff7919,66a626ef09d4e21e1a8894ec,6734a14de3ffd52ac6321921,2024-11-13_07h16.01.194,Tarea de género gramatical,2024.2.2,MacIntel,60.24096386,,,,,,,,,,,,,,,,,,,,,,,,329.9133,330.7762,a,0,0.1892,,[],[],[],[],[],[],[],0.1892,0,330.7762,331.2761,,,,,,1226,FEM,AGR,150,música,la,a,331.2761,331.2762,0.110174815,-0.377086322,0,0,0,,0,196,196,325,1,,,,
,,,,,,4ebd8e545ee0f85d41ff7919,66a626ef09d4e21e1a8894ec,6734a14de3ffd52ac6321921,2024-11-13_07h16.01.194,Tarea de género gramatical,2024.2.2,MacIntel,60.24096386,,,,,,,,,,,,,,,,,,,,,,,,331.2773,332.0248,l,1,0.0782,,[],[],[],[],[],[],[],0.0782,1,332.0257,332.5256,,,,,,1137,FEM,CON,150,ducha,,a,332.5258,332.5258,0.110174815,-0.377086322,0,0,0,,0,197,197,236,1,,,,
,,,,,,4ebd8e545ee0f85d41ff7919,66a626ef09d4e21e1a8894ec,6734a14de3ffd52ac6321921,2024-11-13_07h16.01.194,Tarea de género gramatical,2024.2.2,MacIntel,60.24096386,,,,,,,,,,,,,,,,,,,,,,,,332.5274,333.5755,l,1,0.3748,,[],[],[],[],[],[],[],0.3748,1,333.5756,334.0754,,,,,,1106,FEM,AGR,150,época,la,a,334.0754,334.0755,0.110174815,-0.377086322,0,0,0,,0,198,198,205,1,,,,
,,,,,,4ebd8e545ee0f85d41ff7919,66a626ef09d4e21e1a8894ec,6734a14de3ffd52ac6321921,2024-11-13_07h16.01.194,Tarea de género gramatical,2024.2.2,MacIntel,60.24096386,,,,,,,,,,,,,,,,,,,,,,,,334.0765,335.4417,a,0,0.689,,[],[],[],[],[],[],[],0.689,0,335.4426,335.9413,,,,,,915,FEM,CON,150,cama,,a,335.9413,335.9414,0.110174815,-0.377086322,0,0,0,,0,199,199,14,1,,,,
,,,,,,4ebd8e545ee0f85d41ff7919,66a626ef09d4e21e1a8894ec,6734a14de3ffd52ac6321921,2024-11-13_07h16.01.194,Tarea de género gramatical,2024.2.2,MacIntel,60.24096386,,,,,,,,,,,,,,,,,,,,,,,,335.9426,336.8412,l,0,0.2224,,[],[],[],[],[],[],[],0.2224,0,336.8413,337.3402,,,,,,1128,MAS,CON,150,nivel,,l,337.3412,337.342,0.110174815,-0.377086322,0,0,0,,0,200,200,227,1,,,,
,,,,,,4ebd8e545ee0f85d41ff7919,66a626ef09d4e21e1a8894ec,6734a14de3ffd52ac6321921,2024-11-13_07h16.01.194,Tarea de género gramatical,2024.2.2,MacIntel,60.24096386,,,,,,,,,,,,,,,,,,,,,,,,337.3427,338.1239,a,1,0.1093,,[],[],[],[],[],[],[],0.1093,1,338.1245,338.6231,,,,,,1036,MAS,DIS,150,vago,la,l,338.6231,338.6233,0.110174815,-0.377086322,0,0,0,,0,201,201,135,1,,,,
,,,,,,4ebd8e545ee0f85d41ff7919,66a626ef09d4e21e1a8894ec,6734a14de3ffd52ac6321921,2024-11-13_07h16.01.194,Tarea de género gramatical,2024.2.2,MacIntel,60.24096386,,,,,,,,,,,,,,,,,,,,,,,,338.6244,339.4906,a,1,0.1815,,[],[],[],[],[],[],[],0.1815,1,339.4907,339.9905,,,,,,1216,MAS,DIS,150,cuerpo,la,l,339.9905,339.9906,0.110174815,-0.377086322,0,0,0,,0,202,202,315,1,,,,
,,,,,,4ebd8e545ee0f85d41ff7919,66a626ef09d4e21e1a8894ec,6734a14de3ffd52ac6321921,2024-11-13_07h16.01.194,Tarea de género gramatical,2024.2.2,MacIntel,60.24096386,,,,,,,,,,,,,,,,,,,,,,,,339.9918,340.8735,a,1,0.1991,,[],[],[],[],[],[],[],0.1991,1,340.8737,341.3735,,,,,,1078,MAS,DIS,150,punto,la,l,341.3735,341.3737,0.110174815,-0.377086322,0,0,0,,0,203,203,177,1,,,,
,,,,,,4ebd8e545ee0f85d41ff7919,66a626ef09d4e21e1a8894ec,6734a14de3ffd52ac6321921,2024-11-13_07h16.01.194,Tarea de género gramatical,2024.2.2,MacIntel,60.24096386,,,,,,,,,,,,,,,,,,,,,,,,341.3746,342.2064,a,0,0.1581,,[],[],[],[],[],[],[],0.1581,0,342.207,342.7065,,,,,,951,FEM,CON,150,bala,,a,342.708,342.709,0.110174815,-0.377086322,0,0,0,,0,204,204,50,1,,,,
,,,,,,4ebd8e545ee0f85d41ff7919,66a626ef09d4e21e1a8894ec,6734a14de3ffd52ac6321921,2024-11-13_07h16.01.194,Tarea de género gramatical,2024.2.2,MacIntel,60.24096386,,,,,,,,,,,,,,,,,,,,,,,,342.7097,343.5896,l,0,0.2063,,[],[],[],[],[],[],[],0.2063,0,343.5896,344.0894,,,,,,1098,MAS,CON,150,hotel,,l,344.0895,344.0896,0.110174815,-0.377086322,0,0,0,,0,205,205,197,1,,,,
,,,,,,4ebd8e545ee0f85d41ff7919,66a626ef09d4e21e1a8894ec,6734a14de3ffd52ac6321921,2024-11-13_07h16.01.194,Tarea de género gramatical,2024.2.2,MacIntel,60.24096386,,,,,,,,,,,,,,,,,,,,,,,,344.0906,344.9887,l,1,0.2198,,[],[],[],[],[],[],[],0.2198,1,344.9895,345.489,,,,,,1191,FEM,CON,150,aguja,,a,345.489,345.4892,0.110174815,-0.377086322,0,0,0,,0,206,206,290,1,,,,
,,,,,,4ebd8e545ee0f85d41ff7919,66a626ef09d4e21e1a8894ec,6734a14de3ffd52ac6321921,2024-11-13_07h16.01.194,Tarea de género gramatical,2024.2.2,MacIntel,60.24096386,,,,,,,,,,,,,,,,,,,,,,,,345.4902,346.389,l,0,0.2211,,[],[],[],[],[],[],[],0.2211,0,346.3899,346.8888,,,,,,918,MAS,CON,150,tren,,l,346.8889,346.889,0.110174815,-0.377086322,0,0,0,,0,207,207,17,1,,,,
,,,,,,4ebd8e545ee0f85d41ff7919,66a626ef09d4e21e1a8894ec,6734a14de3ffd52ac6321921,2024-11-13_07h16.01.194,Tarea de género gramatical,2024.2.2,MacIntel,60.24096386,,,,,,,,,,,,,,,,,,,,,,,,346.8901,347.9718,l,1,0.4036,,[],[],[],[],[],[],[],0.4036,1,347.9726,348.4716,,,,,,1173,FEM,CON,150,tarta,,a,348.4717,348.4719,0.110174815,-0.377086322,0,0,0,,0,208,208,272,1,,,,
,,,,,,4ebd8e545ee0f85d41ff7919,66a626ef09d4e21e1a8894ec,6734a14de3ffd52ac6321921,2024-11-13_07h16.01.194,Tarea de género gramatical,2024.2.2,MacIntel,60.24096386,,,,,,,,,,,,,,,,,,,,,,,,348.473,349.4549,l,0,0.3015,,[],[],[],[],[],[],[],0.3015,0,349.4558,349.9544,,,,,,1336,MAS,DIS,150,objeto,la,l,349.9559,349.9569,0.110174815,-0.377086322,0,0,0,,0,209,209,435,1,,,,
,,,,,,4ebd8e545ee0f85d41ff7919,66a626ef09d4e21e1a8894ec,6734a14de3ffd52ac6321921,2024-11-13_07h16.01.194,Tarea de género gramatical,2024.2.2,MacIntel,60.24096386,,,,,,,,,,,,,,,,,,,,,,,,349.9577,350.9045,l,0,0.2662,,[],[],[],[],[],[],[],0.2662,0,350.9046,351.4043,,,,,,989,MAS,AGR,150,maíz,el,l,351.4043,351.4044,0.110174815,-0.377086322,0,0,0,,0,210,210,88,1,,,,
,,,,,,4ebd8e545ee0f85d41ff7919,66a626ef09d4e21e1a8894ec,6734a14de3ffd52ac6321921,2024-11-13_07h16.01.194,Tarea de género gramatical,2024.2.2,MacIntel,60.24096386,,,,,,,,,,,,,,,,,,,,,,,,351.4055,352.304,a,1,0.2231,,[],[],[],[],[],[],[],0.2231,1,352.3049,352.8039,,,,,,972,MAS,CON,150,hoyo,,l,352.804,352.8042,0.110174815,-0.377086322,0,0,0,,0,211,211,71,1,,,,
,,,,,,4ebd8e545ee0f85d41ff7919,66a626ef09d4e21e1a8894ec,6734a14de3ffd52ac6321921,2024-11-13_07h16.01.194,Tarea de género gramatical,2024.2.2,MacIntel,60.24096386,,,,,,,,,,,,,,,,,,,,,,,,352.8054,353.5861,a,0,0.1053,,[],[],[],[],[],[],[],0.1053,0,353.5868,354.087,,,,,,1183,FEM,DIS,150,pluma,el,a,354.087,354.0872,0.110174815,-0.377086322,0,0,0,,0,212,212,282,1,,,,
,,,,,,4ebd8e545ee0f85d41ff7919,66a626ef09d4e21e1a8894ec,6734a14de3ffd52ac6321921,2024-11-13_07h16.01.194,Tarea de género gramatical,2024.2.2,MacIntel,60.24096386,,,,,,,,,,,,,,,,,,,,,,,,354.0883,354.9855,a,1,0.2269,,[],[],[],[],[],[],[],0.2269,1,354.9863,355.4857,,,,,,1134,MAS,CON,150,héroe,,l,355.487,355.4882,0.110174815,-0.377086322,0,0,0,,0,213,213,233,1,,,,
,,,,,,4ebd8e545ee0f85d41ff7919,66a626ef09d4e21e1a8894ec,6734a14de3ffd52ac6321921,2024-11-13_07h16.01.194,Tarea de género gramatical,2024.2.2,MacIntel,60.24096386,,,,,,,,,,,,,,,,,,,,,,,,355.4892,356.603,a,0,0.4373,,[],[],[],[],[],[],[],0.4373,0,356.604,357.1031,,,,,,1111,FEM,DIS,150,salud,el,a,357.1031,357.1033,0.110174815,-0.377086322,0,0,0,,0,214,214,210,1,,,,
,,,,,,4ebd8e545ee0f85d41ff7919,66a626ef09d4e21e1a8894ec,6734a14de3ffd52ac6321921,2024-11-13_07h16.01.194,Tarea de género gramatical,2024.2.2,MacIntel,60.24096386,,,,,,,,,,,,,,,,,,,,,,,,357.1045,358.0191,a,1,0.2451,,[],[],[],[],[],[],[],0.2451,1,358.0197,358.5187,,,,,,1044,MAS,CON,150,amor,,l,358.5187,358.5188,0.110174815,-0.377086322,0,0,0,,0,215,215,143,1,,,,
,,,,,,4ebd8e545ee0f85d41ff7919,66a626ef09d4e21e1a8894ec,6734a14de3ffd52ac6321921,2024-11-13_07h16.01.194,Tarea de género gramatical,2024.2.2,MacIntel,60.24096386,,,,,,,,,,,,,,,,,,,,,,,,358.52,359.5523,l,1,0.3557,,[],[],[],[],[],[],[],0.3557,1,359.5524,360.0521,,,,,,1004,FEM,AGR,150,vela,la,a,360.0521,360.0523,0.110174815,-0.377086322,0,0,0,,0,216,216,103,1,,,,
,,,,,,4ebd8e545ee0f85d41ff7919,66a626ef09d4e21e1a8894ec,6734a14de3ffd52ac6321921,2024-11-13_07h16.01.194,Tarea de género gramatical,2024.2.2,MacIntel,60.24096386,,,,,,,,,,,,,,,,,,,,,,,,360.0534,360.9175,a,1,0.185,,[],[],[],[],[],[],[],0.185,1,360.9175,361.4185,,,,,,1307,MAS,AGR,150,jurado,el,l,361.4185,361.4187,0.110174815,-0.377086322,0,0,0,,0,217,217,406,1,,,,
,,,,,,4ebd8e545ee0f85d41ff7919,66a626ef09d4e21e1a8894ec,6734a14de3ffd52ac6321921,2024-11-13_07h16.01.194,Tarea de género gramatical,2024.2.2,MacIntel,60.24096386,,,,,,,,,,,,,,,,,,,,,,,,361.4199,362.4173,a,1,0.3283,,[],[],[],[],[],[],[],0.3283,1,362.4174,362.917,,,,,,1187,MAS,AGR,150,plato,el,l,362.9185,362.9195,0.110174815,-0.377086322,0,0,0,,0,218,218,286,1,,,,
,,,,,,4ebd8e545ee0f85d41ff7919,66a626ef09d4e21e1a8894ec,6734a14de3ffd52ac6321921,2024-11-13_07h16.01.194,Tarea de género gramatical,2024.2.2,MacIntel,60.24096386,,,,,,,,,,,,,,,,,,,,,,,,362.9204,364.6831,a,1,1.0924,,[],[],[],[],[],[],[],1.0924,1,364.6831,365.183,,,,,,1325,MAS,AGR,150,chiste,el,l,365.183,365.1832,0.110174815,-0.377086322,0,0,0,,0,219,219,424,1,,,,
,,,,,,4ebd8e545ee0f85d41ff7919,66a626ef09d4e21e1a8894ec,6734a14de3ffd52ac6321921,2024-11-13_07h16.01.194,Tarea de género gramatical,2024.2.2,MacIntel,60.24096386,,,,,,,,,,,,,,,,,,,,,,,,365.1842,366.1839,a,0,0.3408,,[],[],[],[],[],[],[],0.3408,0,366.1848,366.6838,,,,,,1323,FEM,CON,150,poesía,,a,366.6838,366.6839,0.110174815,-0.377086322,0,0,0,,0,220,220,422,1,,,,
,,,,,,4ebd8e545ee0f85d41ff7919,66a626ef09d4e21e1a8894ec,6734a14de3ffd52ac6321921,2024-11-13_07h16.01.194,Tarea de género gramatical,2024.2.2,MacIntel,60.24096386,,,,,,,,,,,,,,,,,,,,,,,,366.6852,368.0165,a,1,0.6487,,[],[],[],[],[],[],[],0.6487,1,368.0172,368.5166,,,,,,1018,MAS,DIS,150,baúl,la,l,368.5166,368.5168,0.110174815,-0.377086322,0,0,0,,0,221,221,117,1,,,,
,,,,,,4ebd8e545ee0f85d41ff7919,66a626ef09d4e21e1a8894ec,6734a14de3ffd52ac6321921,2024-11-13_07h16.01.194,Tarea de género gramatical,2024.2.2,MacIntel,60.24096386,,,,,,,,,,,,,,,,,,,,,,,,368.518,369.7496,a,1,0.5587,,[],[],[],[],[],[],[],0.5587,1,369.7497,370.2485,,,,,,1212,MAS,CON,150,equipo,,l,370.2501,370.251,0.110174815,-0.377086322,0,0,0,,0,222,222,311,1,,,,
,,,,,,4ebd8e545ee0f85d41ff7919,66a626ef09d4e21e1a8894ec,6734a14de3ffd52ac6321921,2024-11-13_07h16.01.194,Tarea de género gramatical,2024.2.2,MacIntel,60.24096386,,,,,,,,,,,,,,,,,,,,,,,,370.2521,371.7815,l,1,0.8507,,[],[],[],[],[],[],[],0.8507,1,371.7816,372.2824,,,,,,1015,FEM,DIS,150,seda,el,a,372.2824,372.2824,0.110174815,-0.377086322,0,0,0,,0,223,223,114,1,,,,
,,,,,,4ebd8e545ee0f85d41ff7919,66a626ef09d4e21e1a8894ec,6734a14de3ffd52ac6321921,2024-11-13_07h16.01.194,Tarea de género gramatical,2024.2.2,MacIntel,60.24096386,,,,,,,,,,,,,,,,,,,,,,,,372.2836,373.1488,l,1,0.1875,,[],[],[],[],[],[],[],0.1875,1,373.1489,373.6487,,,,,,1107,FEM,CON,150,playa,,a,373.6488,373.6488,0.110174815,-0.377086322,0,0,0,,0,224,224,206,1,,,,
,,,,,,4ebd8e545ee0f85d41ff7919,66a626ef09d4e21e1a8894ec,6734a14de3ffd52ac6321921,2024-11-13_07h16.01.194,Tarea de género gramatical,2024.2.2,MacIntel,60.24096386,,,,,,,,,,,,,,,,,,,,,,,,373.6499,375.4815,l,1,1.1557,,[],[],[],[],[],[],[],1.1557,1,375.4817,375.9814,,,,,,1029,FEM,CON,150,rana,,a,375.9815,375.9816,0.110174815,-0.377086322,0,0,0,,0,225,225,128,1,,,,
,,,,,,4ebd8e545ee0f85d41ff7919,66a626ef09d4e21e1a8894ec,6734a14de3ffd52ac6321921,2024-11-13_07h16.01.194,Tarea de género gramatical,2024.2.2,MacIntel,60.24096386,,,,,,,,,,,,,,,,,,,,,,,,375.9827,376.9478,l,1,0.2894,,[],[],[],[],[],[],[],0.2894,1,376.9479,377.447,,,,,,1220,FEM,AGR,150,fiesta,la,a,377.4471,377.4472,0.110174815,-0.377086322,0,0,0,,0,226,226,319,1,,,,
,,,,,,4ebd8e545ee0f85d41ff7919,66a626ef09d4e21e1a8894ec,6734a14de3ffd52ac6321921,2024-11-13_07h16.01.194,Tarea de género gramatical,2024.2.2,MacIntel,60.24096386,,,,,,,,,,,,,,,,,,,,,,,,377.4485,378.3306,l,0,0.2096,,[],[],[],[],[],[],[],0.2096,0,378.3315,378.8303,,,,,,1115,MAS,AGR,150,hueso,el,l,378.8317,378.8327,0.110174815,-0.377086322,0,0,0,,0,227,227,214,1,,,,
,,,,,,4ebd8e545ee0f85d41ff7919,66a626ef09d4e21e1a8894ec,6734a14de3ffd52ac6321921,2024-11-13_07h16.01.194,Tarea de género gramatical,2024.2.2,MacIntel,60.24096386,,,,,,,,,,,,,,,,,,,,,,,,378.8335,379.9304,a,0,0.4165,,[],[],[],[],[],[],[],0.4165,0,379.9305,380.4302,,,,,,1195,FEM,DIS,150,grasa,el,a,380.4303,380.4305,0.110174815,-0.377086322,0,0,0,,0,228,228,294,1,,,,
,,,,,,4ebd8e545ee0f85d41ff7919,66a626ef09d4e21e1a8894ec,6734a14de3ffd52ac6321921,2024-11-13_07h16.01.194,Tarea de género gramatical,2024.2.2,MacIntel,60.24096386,,,,,,,,,,,,,,,,,,,,,,,,380.4316,381.3467,a,0,0.2386,,[],[],[],[],[],[],[],0.2386,0,381.3468,381.8466,,,,,,1118,FEM,AGR,150,nieve,la,a,381.8466,381.8467,0.110174815,-0.377086322,0,0,0,,0,229,229,217,1,,,,
,,,,,,4ebd8e545ee0f85d41ff7919,66a626ef09d4e21e1a8894ec,6734a14de3ffd52ac6321921,2024-11-13_07h16.01.194,Tarea de género gramatical,2024.2.2,MacIntel,60.24096386,,,,,,,,,,,,,,,,,,,,,,,,381.848,382.8297,l,0,0.3023,,[],[],[],[],[],[],[],0.3023,0,382.8298,383.3295,,,,,,1067,MAS,AGR,150,juego,el,l,383.3295,383.3297,0.110174815,-0.377086322,0,0,0,,0,230,230,166,1,,,,
,,,,,,4ebd8e545ee0f85d41ff7919,66a626ef09d4e21e1a8894ec,6734a14de3ffd52ac6321921,2024-11-13_07h16.01.194,Tarea de género gramatical,2024.2.2,MacIntel,60.24096386,,,,,,,,,,,,,,,,,,,,,,,,383.3308,384.246,a,0,0.2357,,[],[],[],[],[],[],[],0.2357,0,384.2461,384.7458,,,,,,1215,FEM,CON,150,manera,,a,384.7473,384.7484,0.110174815,-0.377086322,0,0,0,,0,231,231,314,1,,,,
,,,,,,4ebd8e545ee0f85d41ff7919,66a626ef09d4e21e1a8894ec,6734a14de3ffd52ac6321921,2024-11-13_07h16.01.194,Tarea de género gramatical,2024.2.2,MacIntel,60.24096386,,,,,,,,,,,,,,,,,,,,,,,,384.7491,385.5123,a,1,0.0833,,[],[],[],[],[],[],[],0.0833,1,385.5132,386.0122,,,,,,1168,MAS,DIS,150,truco,la,l,386.0122,386.0123,0.110174815,-0.377086322,0,0,0,,0,232,232,267,1,,,,
,,,,,,4ebd8e545ee0f85d41ff7919,66a626ef09d4e21e1a8894ec,6734a14de3ffd52ac6321921,2024-11-13_07h16.01.194,Tarea de género gramatical,2024.2.2,MacIntel,60.24096386,,,,,,,,,,,,,,,,,,,,,,,,386.0136,386.9787,a,1,0.2894,,[],[],[],[],[],[],[],0.2894,1,386.9788,387.478,,,,,,1204,MAS,DIS,150,tiempo,la,l,387.4781,387.4782,0.110174815,-0.377086322,0,0,0,,0,233,233,303,1,,,,
,,,,,,4ebd8e545ee0f85d41ff7919,66a626ef09d4e21e1a8894ec,6734a14de3ffd52ac6321921,2024-11-13_07h16.01.194,Tarea de género gramatical,2024.2.2,MacIntel,60.24096386,,,,,,,,,,,,,,,,,,,,,,,,387.4793,388.3449,a,0,0.1893,,[],[],[],[],[],[],[],0.1893,0,388.3459,388.8447,,,,,,1257,FEM,CON,150,lengua,,a,388.8448,388.8449,0.110174815,-0.377086322,0,0,0,,0,234,234,356,1,,,,
,,,,,,4ebd8e545ee0f85d41ff7919,66a626ef09d4e21e1a8894ec,6734a14de3ffd52ac6321921,2024-11-13_07h16.01.194,Tarea de género gramatical,2024.2.2,MacIntel,60.24096386,,,,,,,,,,,,,,,,,,,,,,,,388.8462,389.6612,a,0,0.1421,,[],[],[],[],[],[],[],0.1421,0,389.6612,390.1613,,,,,,1160,FEM,AGR,150,barra,la,a,390.1613,390.1614,0.110174815,-0.377086322,0,0,0,,0,235,235,259,1,,,,
,,,,,,4ebd8e545ee0f85d41ff7919,66a626ef09d4e21e1a8894ec,6734a14de3ffd52ac6321921,2024-11-13_07h16.01.194,Tarea de género gramatical,2024.2.2,MacIntel,60.24096386,,,,,,,,,,,,,,,,,,,,,,,,390.1625,390.9779,l,1,0.1326,,[],[],[],[],[],[],[],0.1326,1,390.9788,391.4775,,,,,,987,FEM,CON,150,risa,,a,391.4791,391.4801,0.110174815,-0.377086322,0,0,0,,0,236,236,86,1,,,,
,,,,,,4ebd8e545ee0f85d41ff7919,66a626ef09d4e21e1a8894ec,6734a14de3ffd52ac6321921,2024-11-13_07h16.01.194,Tarea de género gramatical,2024.2.2,MacIntel,60.24096386,,,,,,,,,,,,,,,,,,,,,,,,391.4811,392.3597,l,1,0.206,,[],[],[],[],[],[],[],0.206,1,392.3598,392.8596,,,,,,1179,FEM,CON,150,selva,,a,392.8596,392.8597,0.110174815,-0.377086322,0,0,0,,0,237,237,278,1,,,,
,,,,,,4ebd8e545ee0f85d41ff7919,66a626ef09d4e21e1a8894ec,6734a14de3ffd52ac6321921,2024-11-13_07h16.01.194,Tarea de género gramatical,2024.2.2,MacIntel,60.24096386,,,,,,,,,,,,,,,,,,,,,,,,392.861,393.8097,l,0,0.2655,,[],[],[],[],[],[],[],0.2655,0,393.8106,394.3097,,,,,,1229,MAS,AGR,150,futuro,el,l,394.3097,394.3098,0.110174815,-0.377086322,0,0,0,,0,238,238,328,1,,,,
,,,,,,4ebd8e545ee0f85d41ff7919,66a626ef09d4e21e1a8894ec,6734a14de3ffd52ac6321921,2024-11-13_07h16.01.194,Tarea de género gramatical,2024.2.2,MacIntel,60.24096386,,,,,,,,,,,,,,,,,,,,,,,,394.311,395.1423,a,1,0.1512,,[],[],[],[],[],[],[],0.1512,1,395.1432,395.6431,,,,,,1264,MAS,DIS,150,viento,la,l,395.6432,395.6433,0.110174815,-0.377086322,0,0,0,,0,239,239,363,1,,,,
,,,,,,4ebd8e545ee0f85d41ff7919,66a626ef09d4e21e1a8894ec,6734a14de3ffd52ac6321921,2024-11-13_07h16.01.194,Tarea de género gramatical,2024.2.2,MacIntel,60.24096386,,,,,,,,,,,,,,,,,,,,,,,,395.6446,396.943,a,1,0.626,,[],[],[],[],[],[],[],0.626,1,396.9431,397.4414,,,,,,1103,MAS,AGR,150,novio,el,l,397.4424,397.4431,0.110174815,-0.377086322,0,0,0,,0,240,240,202,1,,,,
,,,,,,4ebd8e545ee0f85d41ff7919,66a626ef09d4e21e1a8894ec,6734a14de3ffd52ac6321921,2024-11-13_07h16.01.194,Tarea de género gramatical,2024.2.2,MacIntel,60.24096386,,,,,,,,,,,,,,,,,,,,,,,,397.4438,398.7747,a,1,0.6518,,[],[],[],[],[],[],[],0.6518,1,398.7748,399.2755,,,,,,978,MAS,CON,150,oído,,l,399.2756,399.2757,0.110174815,-0.377086322,0,0,0,,0,241,241,77,1,,,,
,,,,,,4ebd8e545ee0f85d41ff7919,66a626ef09d4e21e1a8894ec,6734a14de3ffd52ac6321921,2024-11-13_07h16.01.194,Tarea de género gramatical,2024.2.2,MacIntel,60.24096386,,,,,,,,,,,,,,,,,,,,,,,,399.2769,400.3918,l,0,0.4345,,[],[],[],[],[],[],[],0.4345,0,400.3927,400.891,,,,,,1314,MAS,CON,150,sótano,,l,400.8911,400.8911,0.110174815,-0.377086322,0,0,0,,0,242,242,413,1,,,,
,,,,,,4ebd8e545ee0f85d41ff7919,66a626ef09d4e21e1a8894ec,6734a14de3ffd52ac6321921,2024-11-13_07h16.01.194,Tarea de género gramatical,2024.2.2,MacIntel,60.24096386,,,,,,,,,,,,,,,,,,,,,,,,400.8924,401.8078,a,0,0.2556,,[],[],[],[],[],[],[],0.2556,0,401.8079,402.3081,,,,,,1251,FEM,CON,150,espada,,a,402.3082,402.3083,0.110174815,-0.377086322,0,0,0,,0,243,243,350,1,,,,
,,,,,,4ebd8e545ee0f85d41ff7919,66a626ef09d4e21e1a8894ec,6734a14de3ffd52ac6321921,2024-11-13_07h16.01.194,Tarea de género gramatical,2024.2.2,MacIntel,60.24096386,,,,,,,,,,,,,,,,,,,,,,,,402.3093,403.2245,a,1,0.2337,,[],[],[],[],[],[],[],0.2337,1,403.2256,403.7244,,,,,,1164,MAS,CON,150,pollo,,l,403.7244,403.7246,0.110174815,-0.377086322,0,0,0,,0,244,244,263,1,,,,
,,,,,,4ebd8e545ee0f85d41ff7919,66a626ef09d4e21e1a8894ec,6734a14de3ffd52ac6321921,2024-11-13_07h16.01.194,Tarea de género gramatical,2024.2.2,MacIntel,60.24096386,,,,,,,,,,,,,,,,,,,,,,,,403.7258,404.5408,a,1,0.1362,,[],[],[],[],[],[],[],0.1362,1,404.541,405.0408,,,,,,970,MAS,DIS,150,palo,la,l,405.0421,405.0431,0.110174815,-0.377086322,0,0,0,,0,245,245,69,1,,,,
,,,,,,4ebd8e545ee0f85d41ff7919,66a626ef09d4e21e1a8894ec,6734a14de3ffd52ac6321921,2024-11-13_07h16.01.194,Tarea de género gramatical,2024.2.2,MacIntel,60.24096386,,,,,,,,,,,,,,,,,,,,,,,,405.0439,405.8736,a,0,0.1619,,[],[],[],[],[],[],[],0.1619,0,405.8742,406.3733,,,,,,1045,FEM,DIS,150,bota,el,a,406.3734,406.3735,0.110174815,-0.377086322,0,0,0,,0,246,246,144,1,,,,
,,,,,,4ebd8e545ee0f85d41ff7919,66a626ef09d4e21e1a8894ec,6734a14de3ffd52ac6321921,2024-11-13_07h16.01.194,Tarea de género gramatical,2024.2.2,MacIntel,60.24096386,,,,,,,,,,,,,,,,,,,,,,,,406.3746,407.2903,a,1,0.2387,,[],[],[],[],[],[],[],0.2387,1,407.2912,407.7898,,,,,,994,MAS,DIS,150,cabo,la,l,407.7899,407.79,0.110174815,-0.377086322,0,0,0,,0,247,247,93,1,,,,
,,,,,,4ebd8e545ee0f85d41ff7919,66a626ef09d4e21e1a8894ec,6734a14de3ffd52ac6321921,2024-11-13_07h16.01.194,Tarea de género gramatical,2024.2.2,MacIntel,60.24096386,,,,,,,,,,,,,,,,,,,,,,,,407.7912,409.8563,a,0,1.3848,,[],[],[],[],[],[],[],1.3848,0,409.8572,410.3556,,,,,,1178,FEM,AGR,150,presa,la,a,410.3556,410.3558,0.110174815,-0.377086322,0,0,0,,0,248,248,277,1,,,,
