counterbalancing_condition,consent_prescreening.block_1/declare_consent,consent_prescreening.block_1/age_years,consent_prescreening.block_1/gender,consent_prescreening.block_1/language_disorder,consent_prescreening.block_1/first_language,PROLIFIC_PID,STUDY_ID,SESSION_ID,date,expName,psychopyVersion,OS,frameRate,check_prescreening_answers.started,check_prescreening_answers.stopped,Instructions.started,Instructions.stopped,instr_done_keyboard.keys,instr_done_keyboard.rt,instr_done_keyboard.duration,instr_done_touch.x,instr_done_touch.y,instr_done_touch.leftButton,instr_done_touch.midButton,instr_done_touch.rightButton,instruction_pages.thisRepN,instruction_pages.thisTrialN,instruction_pages.thisN,instruction_pages.thisIndex,instruction_pages.ran,pageN,phase,instruct_text,has_image,instruct_image,presentTrial.started,presentTrial.stopped,response.keys,response.corr,touch_resp.x,touch_resp.y,touch_resp.leftButton,touch_resp.midButton,touch_resp.rightButton,touch_resp.time,touch_resp.clicked_name,rt,corr,feedback.started,feedback.stopped,practice_trials.thisRepN,practice_trials.thisTrialN,practice_trials.thisN,practice_trials.thisIndex,practice_trials.ran,TrialID,StimulusType,Condition,PrimeDuration,Prime,Flanker,corrAns,response.rt,response.duration,Break.started,Break.stopped,break_done_touch.x,break_done_touch.y,break_done_touch.leftButton,break_done_touch.midButton,break_done_touch.rightButton,break_done_keyboard.keys,experiment_trials.thisRepN,experiment_trials.thisTrialN,experiment_trials.thisN,experiment_trials.thisIndex,experiment_trials.ran,break_done_keyboard.rt,break_done_keyboard.duration,End.started,End.stopped
2,"[""over_18"",""comfortable"",""read_info"",""consent_given""]",18,M,"[""none""]","[""spanish""]",5105255cbf9f9aef01b09698,66a626ef09d4e21e1a8894ec,6734f03edc1090495fb7b9ed,2024-11-13_11h30.51.305,Tarea de género gramatical,2024.2.2,MacIntel,57.47126437,,,,,,,,,,,,,,,,,,,,,,,,,,,,,,,,,,,,,,,,,,,,,,,,,,,,,,,,,,,,,,,,,,,,
,,,,,,5105255cbf9f9aef01b09698,66a626ef09d4e21e1a8894ec,6734f03edc1090495fb7b9ed,2024-11-13_11h30.51.305,Tarea de género gramatical,2024.2.2,MacIntel,57.47126437,240.9181,240.9183,,,,,,,,,,,,,,,,,,,,,,,,,,,,,,,,,,,,,,,,,,,,,,,,,,,,,,,,,,,,,,,,,,
,,,,,,5105255cbf9f9aef01b09698,66a626ef09d4e21e1a8894ec,6734f03edc1090495fb7b9ed,2024-11-13_11h30.51.305,Tarea de género gramatical,2024.2.2,MacIntel,57.47126437,,,240.9312,275.3963,space,34.4405,,-0.476848958,-0.057052951,0,0,0,0,0,0,0,1,1,instructions,"INSTRUCCIONES
Va a realizar una prueba de selección gramatical. Desde el comienzo de la prueba mire siempre al centro de la pantalla. Al cabo de un momento, aparecerán palabras. La tarea consiste en determinar si la palabra del centro (siempre será un sustantivo), pertenece al género masculino o femenino.

Pulse la tecla ESPACIO o toque el botón de abajo para continuar.",0,keyboardresponseFM.png,,,,,,,,,,,,,,,,,,,,,,,,,,,,,,,,,,,,,,,,,,,,,,
,,,,,,5105255cbf9f9aef01b09698,66a626ef09d4e21e1a8894ec,6734f03edc1090495fb7b9ed,2024-11-13_11h30.51.305,Tarea de género gramatical,2024.2.2,MacIntel,57.47126437,,,275.3994,291.4787,space,16.0204,,-0.476848958,-0.057052951,0,0,0,0,1,1,1,1,2,instructions,"Si su dispositivo tiene teclado, pulse la tecla ""A"" para las palabras en femenino (por ejemplo: ""mano"") y la tecla ""L"" para las palabras en masculino(por ejemplo: ""arroz"").
Pulse la tecla ESPACIO o toque el botón de abajo para continuar.",1,keyboardresponseFM.png,,,,,,,,,,,,,,,,,,,,,,,,,,,,,,,,,,,,,,,,,,,,,,
,,,,,,5105255cbf9f9aef01b09698,66a626ef09d4e21e1a8894ec,6734f03edc1090495fb7b9ed,2024-11-13_11h30.51.305,Tarea de género gramatical,2024.2.2,MacIntel,57.47126437,,,291.481,301.88,space,10.358,,-0.476848958,-0.057052951,0,0,0,0,2,2,2,1,3,instructions,"Si utiliza un dispositivo sólo táctil, colóquelo en horizontal y utilice los botones de la pantalla. No utilice el ratón.
Pulse la tecla ESPACIO o toque el botón de abajo para continuar.",2,touchresponseFM.png,,,,,,,,,,,,,,,,,,,,,,,,,,,,,,,,,,,,,,,,,,,,,,
,,,,,,5105255cbf9f9aef01b09698,66a626ef09d4e21e1a8894ec,6734f03edc1090495fb7b9ed,2024-11-13_11h30.51.305,Tarea de género gramatical,2024.2.2,MacIntel,57.47126437,,,301.8832,316.8795,space,14.9717,,-0.476848958,-0.057052951,0,0,0,0,3,3,3,1,4,instructions,"Es muy importante que responda con la mayor rapidez y precisión posibles, ya que cada cadena de letras sólo estará en pantalla durante un instante. Si no responde en ese tiempo, aparecerá el mensaje ""Muy lento"" y el experimento pasará a la siguiente palabra. Los primeros 15 intentos serán de práctica y habrá dos descansos durante la prueba.
Pulse la tecla ESPACIO o toque el botón de abajo para iniciar la parte de práctica.",0,keyboardresponseFM.png,,,,,,,,,,,,,,,,,,,,,,,,,,,,,,,,,,,,,,,,,,,,,,
,,,,,,5105255cbf9f9aef01b09698,66a626ef09d4e21e1a8894ec,6734f03edc1090495fb7b9ed,2024-11-13_11h30.51.305,Tarea de género gramatical,2024.2.2,MacIntel,57.47126437,,,,,,,,,,,,,,,,,,,,,,,316.9044,319.5475,,0,[],[],[],[],[],[],[],,-1,319.548,320.0472,0,0,0,4,1,2005,FEM,CON,150,placa,,a,,,,,,,,,,,,,,,,,,,
,,,,,,5105255cbf9f9aef01b09698,66a626ef09d4e21e1a8894ec,6734f03edc1090495fb7b9ed,2024-11-13_11h30.51.305,Tarea de género gramatical,2024.2.2,MacIntel,57.47126437,,,,,,,,,,,,,,,,,,,,,,,320.0486,321.8138,l,1,[],[],[],[],[],[],[],1.0948,1,321.8537,322.3137,0,1,1,10,1,2011,MAS,CON,150,canal,,l,1.0948,,,,,,,,,,,,,,,,,,
,,,,,,5105255cbf9f9aef01b09698,66a626ef09d4e21e1a8894ec,6734f03edc1090495fb7b9ed,2024-11-13_11h30.51.305,Tarea de género gramatical,2024.2.2,MacIntel,57.47126437,,,,,,,,,,,,,,,,,,,,,,,322.315,323.7798,a,1,[],[],[],[],[],[],[],0.794,1,323.7799,324.2804,0,2,2,7,1,2008,FEM,CON,150,siesta,,a,0.794,,,,,,,,,,,,,,,,,,
,,,,,,5105255cbf9f9aef01b09698,66a626ef09d4e21e1a8894ec,6734f03edc1090495fb7b9ed,2024-11-13_11h30.51.305,Tarea de género gramatical,2024.2.2,MacIntel,57.47126437,,,,,,,,,,,,,,,,,,,,,,,324.2817,325.8472,l,0,[],[],[],[],[],[],[],0.8849,0,325.8477,326.3472,0,3,3,5,1,2006,FEM,DIS,150,serie,el,a,0.8849,,,,,,,,,,,,,,,,,,
,,,,,,5105255cbf9f9aef01b09698,66a626ef09d4e21e1a8894ec,6734f03edc1090495fb7b9ed,2024-11-13_11h30.51.305,Tarea de género gramatical,2024.2.2,MacIntel,57.47126437,,,,,,,,,,,,,,,,,,,,,,,326.3486,327.8963,a,1,[],[],[],[],[],[],[],0.868,1,327.8972,328.3974,0,4,4,1,1,2002,FEM,CON,150,pala,,a,0.868,,,,,,,,,,,,,,,,,,
,,,,,,5105255cbf9f9aef01b09698,66a626ef09d4e21e1a8894ec,6734f03edc1090495fb7b9ed,2024-11-13_11h30.51.305,Tarea de género gramatical,2024.2.2,MacIntel,57.47126437,,,,,,,,,,,,,,,,,,,,,,,328.3987,330.0642,l,0,[],[],[],[],[],[],[],0.9962,0,330.0651,330.5641,0,5,5,2,1,2003,FEM,DIS,150,daga,el,a,0.9962,,,,,,,,,,,,,,,,,,
,,,,,,5105255cbf9f9aef01b09698,66a626ef09d4e21e1a8894ec,6734f03edc1090495fb7b9ed,2024-11-13_11h30.51.305,Tarea de género gramatical,2024.2.2,MacIntel,57.47126437,,,,,,,,,,,,,,,,,,,,,,,330.5654,332.0642,l,1,[],[],[],[],[],[],[],0.8171,1,332.0652,332.5643,0,6,6,13,1,2014,MAS,CON,150,siglo,,l,0.8171,,,,,,,,,,,,,,,,,,
,,,,,,5105255cbf9f9aef01b09698,66a626ef09d4e21e1a8894ec,6734f03edc1090495fb7b9ed,2024-11-13_11h30.51.305,Tarea de género gramatical,2024.2.2,MacIntel,57.47126437,,,,,,,,,,,,,,,,,,,,,,,332.5653,333.9642,a,0,[],[],[],[],[],[],[],0.7186,0,333.9651,334.4635,0,7,7,11,1,2012,MAS,DIS,150,clima,la,l,0.7186,,,,,,,,,,,,,,,,,,
,,,,,,5105255cbf9f9aef01b09698,66a626ef09d4e21e1a8894ec,6734f03edc1090495fb7b9ed,2024-11-13_11h30.51.305,Tarea de género gramatical,2024.2.2,MacIntel,57.47126437,,,,,,,,,,,,,,,,,,,,,,,334.4649,335.9132,a,1,[],[],[],[],[],[],[],0.7688,1,335.9141,336.4133,0,8,8,0,1,2001,FEM,AGR,150,nuca,la,a,0.7688,,,,,,,,,,,,,,,,,,
,,,,,,5105255cbf9f9aef01b09698,66a626ef09d4e21e1a8894ec,6734f03edc1090495fb7b9ed,2024-11-13_11h30.51.305,Tarea de género gramatical,2024.2.2,MacIntel,57.47126437,,,,,,,,,,,,,,,,,,,,,,,336.4146,337.68,l,1,[],[],[],[],[],[],[],0.5854,1,337.6801,338.1809,0,9,9,9,1,2010,MAS,AGR,150,vecino,el,l,0.5854,,,,,,,,,,,,,,,,,,
,,,,,,5105255cbf9f9aef01b09698,66a626ef09d4e21e1a8894ec,6734f03edc1090495fb7b9ed,2024-11-13_11h30.51.305,Tarea de género gramatical,2024.2.2,MacIntel,57.47126437,,,,,,,,,,,,,,,,,,,,,,,338.1821,339.3643,a,0,[],[],[],[],[],[],[],0.4996,0,339.3653,339.8634,0,10,10,14,1,2015,MAS,DIS,150,robot,la,l,0.4996,,,,,,,,,,,,,,,,,,
,,,,,,5105255cbf9f9aef01b09698,66a626ef09d4e21e1a8894ec,6734f03edc1090495fb7b9ed,2024-11-13_11h30.51.305,Tarea de género gramatical,2024.2.2,MacIntel,57.47126437,,,,,,,,,,,,,,,,,,,,,,,339.8646,341.3135,a,1,[],[],[],[],[],[],[],0.7846,1,341.3144,341.8135,0,11,11,6,1,2007,FEM,AGR,150,navaja,la,a,0.7846,,,,,,,,,,,,,,,,,,
,,,,,,5105255cbf9f9aef01b09698,66a626ef09d4e21e1a8894ec,6734f03edc1090495fb7b9ed,2024-11-13_11h30.51.305,Tarea de género gramatical,2024.2.2,MacIntel,57.47126437,,,,,,,,,,,,,,,,,,,,,,,341.8149,343.1312,l,1,[],[],[],[],[],[],[],0.6614,1,343.1314,343.6302,0,12,12,8,1,2009,MAS,DIS,150,puerto,la,l,0.6614,,,,,,,,,,,,,,,,,,
,,,,,,5105255cbf9f9aef01b09698,66a626ef09d4e21e1a8894ec,6734f03edc1090495fb7b9ed,2024-11-13_11h30.51.305,Tarea de género gramatical,2024.2.2,MacIntel,57.47126437,,,,,,,,,,,,,,,,,,,,,,,343.6315,345.081,l,1,[],[],[],[],[],[],[],0.7945,1,345.0812,345.5812,0,13,13,12,1,2013,MAS,AGR,150,acero,el,l,0.7945,,,,,,,,,,,,,,,,,,
,,,,,,5105255cbf9f9aef01b09698,66a626ef09d4e21e1a8894ec,6734f03edc1090495fb7b9ed,2024-11-13_11h30.51.305,Tarea de género gramatical,2024.2.2,MacIntel,57.47126437,,,,,,,,,,,,,,,,,,,,,,,345.5825,346.7643,a,1,[],[],[],[],[],[],[],0.5126,1,346.7645,347.2642,0,14,14,3,1,2004,FEM,AGR,150,venta,la,a,0.5126,,,,,,,,,,,,,,,,,,
,,,,,,5105255cbf9f9aef01b09698,66a626ef09d4e21e1a8894ec,6734f03edc1090495fb7b9ed,2024-11-13_11h30.51.305,Tarea de género gramatical,2024.2.2,MacIntel,57.47126437,,,353.2159,361.4486,space,8.214,,-0.476848958,-0.057052951,0,0,0,,,,,,,,,,,361.4914,362.9818,a,1,[],[],[],[],[],[],[],0.8179,1,362.982,363.4821,,,,,,1327,FEM,DIS,150,agenda,el,a,0.8179,,363.4826,363.4859,-0.476848958,-0.057052951,0,0,0,,0,0,0,426,1,,,,
,,,,,,5105255cbf9f9aef01b09698,66a626ef09d4e21e1a8894ec,6734f03edc1090495fb7b9ed,2024-11-13_11h30.51.305,Tarea de género gramatical,2024.2.2,MacIntel,57.47126437,,,,,,,,,,,,,,,,,,,,,,,363.4871,364.6654,a,1,[],[],[],[],[],[],[],0.5121,1,364.6656,365.1649,,,,,,1147,FEM,DIS,150,frase,el,a,0.5121,,365.1649,365.165,-0.476848958,-0.057052951,0,0,0,,0,1,1,246,1,,,,
,,,,,,5105255cbf9f9aef01b09698,66a626ef09d4e21e1a8894ec,6734f03edc1090495fb7b9ed,2024-11-13_11h30.51.305,Tarea de género gramatical,2024.2.2,MacIntel,57.47126437,,,,,,,,,,,,,,,,,,,,,,,365.1657,366.3486,l,1,[],[],[],[],[],[],[],0.5027,1,366.3487,366.8485,,,,,,965,MAS,AGR,150,rayo,el,l,0.5027,,366.85,366.851,-0.476848958,-0.057052951,0,0,0,,0,2,2,64,1,,,,
,,,,,,5105255cbf9f9aef01b09698,66a626ef09d4e21e1a8894ec,6734f03edc1090495fb7b9ed,2024-11-13_11h30.51.305,Tarea de género gramatical,2024.2.2,MacIntel,57.47126437,,,,,,,,,,,,,,,,,,,,,,,366.8518,368.0654,a,1,[],[],[],[],[],[],[],0.5451,1,368.0655,368.5653,,,,,,921,FEM,CON,150,boca,,a,0.5451,,368.5653,368.5655,-0.476848958,-0.057052951,0,0,0,,0,3,3,20,1,,,,
,,,,,,5105255cbf9f9aef01b09698,66a626ef09d4e21e1a8894ec,6734f03edc1090495fb7b9ed,2024-11-13_11h30.51.305,Tarea de género gramatical,2024.2.2,MacIntel,57.47126437,,,,,,,,,,,,,,,,,,,,,,,368.5667,369.932,a,1,[],[],[],[],[],[],[],0.6964,1,369.9321,370.4322,,,,,,1051,FEM,DIS,150,noche,el,a,0.6964,,370.4323,370.4324,-0.476848958,-0.057052951,0,0,0,,0,4,4,150,1,,,,
,,,,,,5105255cbf9f9aef01b09698,66a626ef09d4e21e1a8894ec,6734f03edc1090495fb7b9ed,2024-11-13_11h30.51.305,Tarea de género gramatical,2024.2.2,MacIntel,57.47126437,,,,,,,,,,,,,,,,,,,,,,,370.4334,371.782,l,1,[],[],[],[],[],[],[],0.6668,1,371.7822,372.2822,,,,,,1120,MAS,DIS,150,huevo,la,l,0.6668,,372.2823,372.2827,-0.476848958,-0.057052951,0,0,0,,0,5,5,219,1,,,,
,,,,,,5105255cbf9f9aef01b09698,66a626ef09d4e21e1a8894ec,6734f03edc1090495fb7b9ed,2024-11-13_11h30.51.305,Tarea de género gramatical,2024.2.2,MacIntel,57.47126437,,,,,,,,,,,,,,,,,,,,,,,372.284,373.4986,a,1,[],[],[],[],[],[],[],0.5364,1,373.4987,373.9989,,,,,,1034,FEM,AGR,150,rama,la,a,0.5364,,374.0003,374.0013,-0.476848958,-0.057052951,0,0,0,,0,6,6,133,1,,,,
,,,,,,5105255cbf9f9aef01b09698,66a626ef09d4e21e1a8894ec,6734f03edc1090495fb7b9ed,2024-11-13_11h30.51.305,Tarea de género gramatical,2024.2.2,MacIntel,57.47126437,,,,,,,,,,,,,,,,,,,,,,,374.0037,375.1488,l,1,[],[],[],[],[],[],[],0.4676,1,375.1489,375.6488,,,,,,1122,MAS,CON,150,valor,,l,0.4676,,375.6488,375.649,-0.476848958,-0.057052951,0,0,0,,0,7,7,221,1,,,,
,,,,,,5105255cbf9f9aef01b09698,66a626ef09d4e21e1a8894ec,6734f03edc1090495fb7b9ed,2024-11-13_11h30.51.305,Tarea de género gramatical,2024.2.2,MacIntel,57.47126437,,,,,,,,,,,,,,,,,,,,,,,375.6498,376.9655,a,0,[],[],[],[],[],[],[],0.6339,0,376.9666,377.4657,,,,,,1248,MAS,CON,150,anillo,,l,0.6339,,377.4658,377.4659,-0.476848958,-0.057052951,0,0,0,,0,8,8,347,1,,,,
,,,,,,5105255cbf9f9aef01b09698,66a626ef09d4e21e1a8894ec,6734f03edc1090495fb7b9ed,2024-11-13_11h30.51.305,Tarea de género gramatical,2024.2.2,MacIntel,57.47126437,,,,,,,,,,,,,,,,,,,,,,,377.4669,378.8656,l,1,[],[],[],[],[],[],[],0.7172,1,378.8667,379.3657,,,,,,954,MAS,CON,150,humo,,l,0.7172,,379.3657,379.366,-0.476848958,-0.057052951,0,0,0,,0,9,9,53,1,,,,
,,,,,,5105255cbf9f9aef01b09698,66a626ef09d4e21e1a8894ec,6734f03edc1090495fb7b9ed,2024-11-13_11h30.51.305,Tarea de género gramatical,2024.2.2,MacIntel,57.47126437,,,,,,,,,,,,,,,,,,,,,,,379.367,380.7992,a,0,[],[],[],[],[],[],[],0.7516,0,380.8003,381.2981,,,,,,1048,MAS,DIS,150,surf,la,l,0.7516,,381.2982,381.2983,-0.476848958,-0.057052951,0,0,0,,0,10,10,147,1,,,,
,,,,,,5105255cbf9f9aef01b09698,66a626ef09d4e21e1a8894ec,6734f03edc1090495fb7b9ed,2024-11-13_11h30.51.305,Tarea de género gramatical,2024.2.2,MacIntel,57.47126437,,,,,,,,,,,,,,,,,,,,,,,381.2996,382.5493,a,1,[],[],[],[],[],[],[],0.584,1,382.5502,383.0492,,,,,,1069,FEM,DIS,150,vista,el,a,0.584,,383.0509,383.0523,-0.476848958,-0.057052951,0,0,0,,0,11,11,168,1,,,,
,,,,,,5105255cbf9f9aef01b09698,66a626ef09d4e21e1a8894ec,6734f03edc1090495fb7b9ed,2024-11-13_11h30.51.305,Tarea de género gramatical,2024.2.2,MacIntel,57.47126437,,,,,,,,,,,,,,,,,,,,,,,383.0532,384.5992,l,0,[],[],[],[],[],[],[],0.8689,0,384.6004,385.0992,,,,,,1304,FEM,AGR,150,gloria,la,a,0.8689,,385.0993,385.0994,-0.476848958,-0.057052951,0,0,0,,0,12,12,403,1,,,,
,,,,,,5105255cbf9f9aef01b09698,66a626ef09d4e21e1a8894ec,6734f03edc1090495fb7b9ed,2024-11-13_11h30.51.305,Tarea de género gramatical,2024.2.2,MacIntel,57.47126437,,,,,,,,,,,,,,,,,,,,,,,385.1008,386.3659,l,1,[],[],[],[],[],[],[],0.5839,1,386.3669,386.866,,,,,,1331,MAS,AGR,150,veneno,el,l,0.5839,,386.8661,386.8663,-0.476848958,-0.057052951,0,0,0,,0,13,13,430,1,,,,
,,,,,,5105255cbf9f9aef01b09698,66a626ef09d4e21e1a8894ec,6734f03edc1090495fb7b9ed,2024-11-13_11h30.51.305,Tarea de género gramatical,2024.2.2,MacIntel,57.47126437,,,,,,,,,,,,,,,,,,,,,,,386.8677,388.2992,l,1,[],[],[],[],[],[],[],0.7547,1,388.2993,388.7993,,,,,,1114,MAS,DIS,150,fondo,la,l,0.7547,,388.7995,388.7996,-0.476848958,-0.057052951,0,0,0,,0,14,14,213,1,,,,
,,,,,,5105255cbf9f9aef01b09698,66a626ef09d4e21e1a8894ec,6734f03edc1090495fb7b9ed,2024-11-13_11h30.51.305,Tarea de género gramatical,2024.2.2,MacIntel,57.47126437,,,,,,,,,,,,,,,,,,,,,,,388.8007,389.9662,l,1,[],[],[],[],[],[],[],0.4842,1,389.9663,390.466,,,,,,948,MAS,CON,150,loco,,l,0.4842,,390.4678,390.469,-0.476848958,-0.057052951,0,0,0,,0,15,15,47,1,,,,
,,,,,,5105255cbf9f9aef01b09698,66a626ef09d4e21e1a8894ec,6734f03edc1090495fb7b9ed,2024-11-13_11h30.51.305,Tarea de género gramatical,2024.2.2,MacIntel,57.47126437,,,,,,,,,,,,,,,,,,,,,,,390.47,391.783,a,1,[],[],[],[],[],[],[],0.6342,1,391.7832,392.2829,,,,,,1149,FEM,CON,150,crema,,a,0.6342,,392.2829,392.2831,-0.476848958,-0.057052951,0,0,0,,0,16,16,248,1,,,,
,,,,,,5105255cbf9f9aef01b09698,66a626ef09d4e21e1a8894ec,6734f03edc1090495fb7b9ed,2024-11-13_11h30.51.305,Tarea de género gramatical,2024.2.2,MacIntel,57.47126437,,,,,,,,,,,,,,,,,,,,,,,392.2844,393.5496,a,1,[],[],[],[],[],[],[],0.5835,1,393.5497,394.0495,,,,,,1137,FEM,CON,150,ducha,,a,0.5835,,394.0496,394.0498,-0.476848958,-0.057052951,0,0,0,,0,17,17,236,1,,,,
,,,,,,5105255cbf9f9aef01b09698,66a626ef09d4e21e1a8894ec,6734f03edc1090495fb7b9ed,2024-11-13_11h30.51.305,Tarea de género gramatical,2024.2.2,MacIntel,57.47126437,,,,,,,,,,,,,,,,,,,,,,,394.0513,395.2826,l,1,[],[],[],[],[],[],[],0.5485,1,395.2827,395.7831,,,,,,989,MAS,AGR,150,maíz,el,l,0.5485,,395.7833,395.7834,-0.476848958,-0.057052951,0,0,0,,0,18,18,88,1,,,,
,,,,,,5105255cbf9f9aef01b09698,66a626ef09d4e21e1a8894ec,6734f03edc1090495fb7b9ed,2024-11-13_11h30.51.305,Tarea de género gramatical,2024.2.2,MacIntel,57.47126437,,,,,,,,,,,,,,,,,,,,,,,395.7847,397.0997,a,1,[],[],[],[],[],[],[],0.6337,1,397.0998,397.5997,,,,,,913,FEM,DIS,150,hija,el,a,0.6337,,397.5998,397.5999,-0.476848958,-0.057052951,0,0,0,,0,19,19,12,1,,,,
,,,,,,5105255cbf9f9aef01b09698,66a626ef09d4e21e1a8894ec,6734f03edc1090495fb7b9ed,2024-11-13_11h30.51.305,Tarea de género gramatical,2024.2.2,MacIntel,57.47126437,,,,,,,,,,,,,,,,,,,,,,,397.6014,398.7497,l,1,[],[],[],[],[],[],[],0.4691,1,398.7498,399.2497,,,,,,1180,MAS,DIS,150,salón,la,l,0.4691,,399.2514,399.2525,-0.476848958,-0.057052951,0,0,0,,0,20,20,279,1,,,,
,,,,,,5105255cbf9f9aef01b09698,66a626ef09d4e21e1a8894ec,6734f03edc1090495fb7b9ed,2024-11-13_11h30.51.305,Tarea de género gramatical,2024.2.2,MacIntel,57.47126437,,,,,,,,,,,,,,,,,,,,,,,399.2534,400.4831,a,1,[],[],[],[],[],[],[],0.5507,1,400.4832,400.9831,,,,,,1317,FEM,CON,150,cabaña,,a,0.5507,,400.9832,400.9833,-0.476848958,-0.057052951,0,0,0,,0,21,21,416,1,,,,
,,,,,,5105255cbf9f9aef01b09698,66a626ef09d4e21e1a8894ec,6734f03edc1090495fb7b9ed,2024-11-13_11h30.51.305,Tarea de género gramatical,2024.2.2,MacIntel,57.47126437,,,,,,,,,,,,,,,,,,,,,,,400.9847,402.1997,l,1,[],[],[],[],[],[],[],0.5369,1,402.1998,402.6998,,,,,,1349,MAS,AGR,150,payaso,el,l,0.5369,,402.6999,402.7001,-0.476848958,-0.057052951,0,0,0,,0,22,22,448,1,,,,
,,,,,,5105255cbf9f9aef01b09698,66a626ef09d4e21e1a8894ec,6734f03edc1090495fb7b9ed,2024-11-13_11h30.51.305,Tarea de género gramatical,2024.2.2,MacIntel,57.47126437,,,,,,,,,,,,,,,,,,,,,,,402.7011,403.8493,l,1,[],[],[],[],[],[],[],0.4692,1,403.8494,404.35,,,,,,1014,MAS,CON,150,menú,,l,0.4692,,404.3501,404.3503,-0.476848958,-0.057052951,0,0,0,,0,23,23,113,1,,,,
,,,,,,5105255cbf9f9aef01b09698,66a626ef09d4e21e1a8894ec,6734f03edc1090495fb7b9ed,2024-11-13_11h30.51.305,Tarea de género gramatical,2024.2.2,MacIntel,57.47126437,,,,,,,,,,,,,,,,,,,,,,,404.3517,405.8162,a,1,[],[],[],[],[],[],[],0.7848,1,405.8162,406.3167,,,,,,999,FEM,CON,150,fase,,a,0.7848,,406.3184,406.3195,-0.476848958,-0.057052951,0,0,0,,0,24,24,98,1,,,,
,,,,,,5105255cbf9f9aef01b09698,66a626ef09d4e21e1a8894ec,6734f03edc1090495fb7b9ed,2024-11-13_11h30.51.305,Tarea de género gramatical,2024.2.2,MacIntel,57.47126437,,,,,,,,,,,,,,,,,,,,,,,406.3206,407.5168,a,1,[],[],[],[],[],[],[],0.5175,1,407.517,408.0168,,,,,,969,FEM,CON,150,rata,,a,0.5175,,408.0169,408.0172,-0.476848958,-0.057052951,0,0,0,,0,25,25,68,1,,,,
,,,,,,5105255cbf9f9aef01b09698,66a626ef09d4e21e1a8894ec,6734f03edc1090495fb7b9ed,2024-11-13_11h30.51.305,Tarea de género gramatical,2024.2.2,MacIntel,57.47126437,,,,,,,,,,,,,,,,,,,,,,,408.0183,409.2166,l,1,[],[],[],[],[],[],[],0.5173,1,409.2168,409.7168,,,,,,1128,MAS,CON,150,nivel,,l,0.5173,,409.7169,409.7171,-0.476848958,-0.057052951,0,0,0,,0,26,26,227,1,,,,
,,,,,,5105255cbf9f9aef01b09698,66a626ef09d4e21e1a8894ec,6734f03edc1090495fb7b9ed,2024-11-13_11h30.51.305,Tarea de género gramatical,2024.2.2,MacIntel,57.47126437,,,,,,,,,,,,,,,,,,,,,,,409.7184,411.0334,l,0,[],[],[],[],[],[],[],0.6341,0,411.0344,411.5336,,,,,,1262,FEM,AGR,150,fuente,la,a,0.6341,,411.5337,411.5338,-0.476848958,-0.057052951,0,0,0,,0,27,27,361,1,,,,
,,,,,,5105255cbf9f9aef01b09698,66a626ef09d4e21e1a8894ec,6734f03edc1090495fb7b9ed,2024-11-13_11h30.51.305,Tarea de género gramatical,2024.2.2,MacIntel,57.47126437,,,,,,,,,,,,,,,,,,,,,,,411.5351,412.6667,l,0,[],[],[],[],[],[],[],0.4512,0,412.6669,413.1665,,,,,,1135,FEM,DIS,150,torre,el,a,0.4512,,413.1666,413.1666,-0.476848958,-0.057052951,0,0,0,,0,28,28,234,1,,,,
,,,,,,5105255cbf9f9aef01b09698,66a626ef09d4e21e1a8894ec,6734f03edc1090495fb7b9ed,2024-11-13_11h30.51.305,Tarea de género gramatical,2024.2.2,MacIntel,57.47126437,,,,,,,,,,,,,,,,,,,,,,,413.1672,414.4835,l,1,[],[],[],[],[],[],[],0.6342,1,414.4845,414.9835,,,,,,1288,MAS,DIS,150,empleo,la,l,0.6342,,414.985,414.9858,-0.476848958,-0.057052951,0,0,0,,0,29,29,387,1,,,,
,,,,,,5105255cbf9f9aef01b09698,66a626ef09d4e21e1a8894ec,6734f03edc1090495fb7b9ed,2024-11-13_11h30.51.305,Tarea de género gramatical,2024.2.2,MacIntel,57.47126437,,,,,,,,,,,,,,,,,,,,,,,414.9866,416.3169,a,1,[],[],[],[],[],[],[],0.6509,1,416.3171,416.817,,,,,,1239,FEM,CON,150,salida,,a,0.6509,,416.817,416.8172,-0.476848958,-0.057052951,0,0,0,,0,30,30,338,1,,,,
,,,,,,5105255cbf9f9aef01b09698,66a626ef09d4e21e1a8894ec,6734f03edc1090495fb7b9ed,2024-11-13_11h30.51.305,Tarea de género gramatical,2024.2.2,MacIntel,57.47126437,,,,,,,,,,,,,,,,,,,,,,,416.8187,418.1671,a,1,[],[],[],[],[],[],[],0.6674,1,418.1673,418.667,,,,,,957,FEM,CON,150,moda,,a,0.6674,,418.6671,418.6672,-0.476848958,-0.057052951,0,0,0,,0,31,31,56,1,,,,
,,,,,,5105255cbf9f9aef01b09698,66a626ef09d4e21e1a8894ec,6734f03edc1090495fb7b9ed,2024-11-13_11h30.51.305,Tarea de género gramatical,2024.2.2,MacIntel,57.47126437,,,,,,,,,,,,,,,,,,,,,,,418.6687,419.9171,l,1,[],[],[],[],[],[],[],0.5689,1,419.9172,420.4171,,,,,,1216,MAS,DIS,150,cuerpo,la,l,0.5689,,420.4172,420.4173,-0.476848958,-0.057052951,0,0,0,,0,32,32,315,1,,,,
,,,,,,5105255cbf9f9aef01b09698,66a626ef09d4e21e1a8894ec,6734f03edc1090495fb7b9ed,2024-11-13_11h30.51.305,Tarea de género gramatical,2024.2.2,MacIntel,57.47126437,,,,,,,,,,,,,,,,,,,,,,,420.4184,421.6504,a,0,[],[],[],[],[],[],[],0.5517,0,421.6514,422.1505,,,,,,1326,MAS,CON,150,pánico,,l,0.5517,,422.1522,422.1535,-0.476848958,-0.057052951,0,0,0,,0,33,33,425,1,,,,
,,,,,,5105255cbf9f9aef01b09698,66a626ef09d4e21e1a8894ec,6734f03edc1090495fb7b9ed,2024-11-13_11h30.51.305,Tarea de género gramatical,2024.2.2,MacIntel,57.47126437,,,,,,,,,,,,,,,,,,,,,,,422.1544,423.4173,l,1,[],[],[],[],[],[],[],0.5841,1,423.4184,423.9172,,,,,,1176,MAS,CON,150,ritmo,,l,0.5841,,423.9173,423.9175,-0.476848958,-0.057052951,0,0,0,,0,34,34,275,1,,,,
,,,,,,5105255cbf9f9aef01b09698,66a626ef09d4e21e1a8894ec,6734f03edc1090495fb7b9ed,2024-11-13_11h30.51.305,Tarea de género gramatical,2024.2.2,MacIntel,57.47126437,,,,,,,,,,,,,,,,,,,,,,,423.9189,425.1005,a,1,[],[],[],[],[],[],[],0.5008,1,425.1007,425.6003,,,,,,1286,FEM,AGR,150,sombra,la,a,0.5008,,425.6003,425.6005,-0.476848958,-0.057052951,0,0,0,,0,35,35,385,1,,,,
,,,,,,5105255cbf9f9aef01b09698,66a626ef09d4e21e1a8894ec,6734f03edc1090495fb7b9ed,2024-11-13_11h30.51.305,Tarea de género gramatical,2024.2.2,MacIntel,57.47126437,,,,,,,,,,,,,,,,,,,,,,,425.6013,427.1674,a,1,[],[],[],[],[],[],[],0.8846,1,427.1675,427.6674,,,,,,1315,FEM,DIS,150,cabina,el,a,0.8846,,427.6674,427.6676,-0.476848958,-0.057052951,0,0,0,,0,36,36,414,1,,,,
,,,,,,5105255cbf9f9aef01b09698,66a626ef09d4e21e1a8894ec,6734f03edc1090495fb7b9ed,2024-11-13_11h30.51.305,Tarea de género gramatical,2024.2.2,MacIntel,57.47126437,,,,,,,,,,,,,,,,,,,,,,,427.669,428.8175,l,1,[],[],[],[],[],[],[],0.4705,1,428.8176,429.3173,,,,,,1060,MAS,DIS,150,señor,la,l,0.4705,,429.3174,429.3175,-0.476848958,-0.057052951,0,0,0,,0,37,37,159,1,,,,
,,,,,,5105255cbf9f9aef01b09698,66a626ef09d4e21e1a8894ec,6734f03edc1090495fb7b9ed,2024-11-13_11h30.51.305,Tarea de género gramatical,2024.2.2,MacIntel,57.47126437,,,,,,,,,,,,,,,,,,,,,,,429.3187,430.5672,a,1,[],[],[],[],[],[],[],0.5668,1,430.5674,431.0675,,,,,,1280,FEM,AGR,150,madera,la,a,0.5668,,431.0688,431.0698,-0.476848958,-0.057052951,0,0,0,,0,38,38,379,1,,,,
,,,,,,5105255cbf9f9aef01b09698,66a626ef09d4e21e1a8894ec,6734f03edc1090495fb7b9ed,2024-11-13_11h30.51.305,Tarea de género gramatical,2024.2.2,MacIntel,57.47126437,,,,,,,,,,,,,,,,,,,,,,,431.0706,432.9009,a,1,[],[],[],[],[],[],[],1.1513,1,432.901,433.4008,,,,,,1316,FEM,AGR,150,colina,la,a,1.1513,,433.4008,433.401,-0.476848958,-0.057052951,0,0,0,,0,39,39,415,1,,,,
,,,,,,5105255cbf9f9aef01b09698,66a626ef09d4e21e1a8894ec,6734f03edc1090495fb7b9ed,2024-11-13_11h30.51.305,Tarea de género gramatical,2024.2.2,MacIntel,57.47126437,,,,,,,,,,,,,,,,,,,,,,,433.4022,434.6508,l,1,[],[],[],[],[],[],[],0.568,1,434.651,435.1509,,,,,,1162,MAS,DIS,150,video,la,l,0.568,,435.151,435.1511,-0.476848958,-0.057052951,0,0,0,,0,40,40,261,1,,,,
,,,,,,5105255cbf9f9aef01b09698,66a626ef09d4e21e1a8894ec,6734f03edc1090495fb7b9ed,2024-11-13_11h30.51.305,Tarea de género gramatical,2024.2.2,MacIntel,57.47126437,,,,,,,,,,,,,,,,,,,,,,,435.1521,436.6841,a,0,[],[],[],[],[],[],[],0.8611,0,436.6849,437.184,,,,,,994,MAS,DIS,150,cabo,la,l,0.8611,,437.184,437.184,-0.476848958,-0.057052951,0,0,0,,0,41,41,93,1,,,,
,,,,,,5105255cbf9f9aef01b09698,66a626ef09d4e21e1a8894ec,6734f03edc1090495fb7b9ed,2024-11-13_11h30.51.305,Tarea de género gramatical,2024.2.2,MacIntel,57.47126437,,,,,,,,,,,,,,,,,,,,,,,437.1846,438.3679,l,1,[],[],[],[],[],[],[],0.5003,1,438.3688,438.8676,,,,,,1312,MAS,DIS,150,espejo,la,l,0.5003,,438.8689,438.8698,-0.476848958,-0.057052951,0,0,0,,0,42,42,411,1,,,,
,,,,,,5105255cbf9f9aef01b09698,66a626ef09d4e21e1a8894ec,6734f03edc1090495fb7b9ed,2024-11-13_11h30.51.305,Tarea de género gramatical,2024.2.2,MacIntel,57.47126437,,,,,,,,,,,,,,,,,,,,,,,438.8706,440.1012,a,1,[],[],[],[],[],[],[],0.5618,1,440.1012,440.601,,,,,,1219,FEM,DIS,150,sangre,el,a,0.5618,,440.6011,440.6012,-0.476848958,-0.057052951,0,0,0,,0,43,43,318,1,,,,
,,,,,,5105255cbf9f9aef01b09698,66a626ef09d4e21e1a8894ec,6734f03edc1090495fb7b9ed,2024-11-13_11h30.51.305,Tarea de género gramatical,2024.2.2,MacIntel,57.47126437,,,,,,,,,,,,,,,,,,,,,,,440.6021,441.8177,l,1,[],[],[],[],[],[],[],0.533,1,441.8179,442.3177,,,,,,1108,MAS,DIS,150,suelo,la,l,0.533,,442.3178,442.3179,-0.476848958,-0.057052951,0,0,0,,0,44,44,207,1,,,,
,,,,,,5105255cbf9f9aef01b09698,66a626ef09d4e21e1a8894ec,6734f03edc1090495fb7b9ed,2024-11-13_11h30.51.305,Tarea de género gramatical,2024.2.2,MacIntel,57.47126437,,,,,,,,,,,,,,,,,,,,,,,442.3188,443.434,a,0,[],[],[],[],[],[],[],0.4364,0,443.4348,443.9345,,,,,,1020,MAS,CON,150,puño,,l,0.4364,,443.9346,443.9346,-0.476848958,-0.057052951,0,0,0,,0,45,45,119,1,,,,
,,,,,,5105255cbf9f9aef01b09698,66a626ef09d4e21e1a8894ec,6734f03edc1090495fb7b9ed,2024-11-13_11h30.51.305,Tarea de género gramatical,2024.2.2,MacIntel,57.47126437,,,,,,,,,,,,,,,,,,,,,,,443.9358,445.2676,l,1,[],[],[],[],[],[],[],0.6575,1,445.2679,445.7679,,,,,,1150,MAS,DIS,150,cerdo,la,l,0.6575,,445.768,445.7681,-0.476848958,-0.057052951,0,0,0,,0,46,46,249,1,,,,
,,,,,,5105255cbf9f9aef01b09698,66a626ef09d4e21e1a8894ec,6734f03edc1090495fb7b9ed,2024-11-13_11h30.51.305,Tarea de género gramatical,2024.2.2,MacIntel,57.47126437,,,,,,,,,,,,,,,,,,,,,,,445.7693,447.2346,a,1,[],[],[],[],[],[],[],0.7846,1,447.2348,447.7337,,,,,,1125,FEM,CON,150,pieza,,a,0.7846,,447.7351,447.7361,-0.476848958,-0.057052951,0,0,0,,0,47,47,224,1,,,,
,,,,,,5105255cbf9f9aef01b09698,66a626ef09d4e21e1a8894ec,6734f03edc1090495fb7b9ed,2024-11-13_11h30.51.305,Tarea de género gramatical,2024.2.2,MacIntel,57.47126437,,,,,,,,,,,,,,,,,,,,,,,447.737,448.9172,l,1,[],[],[],[],[],[],[],0.5006,1,448.9174,449.4179,,,,,,1314,MAS,CON,150,sótano,,l,0.5006,,449.418,449.4181,-0.476848958,-0.057052951,0,0,0,,0,48,48,413,1,,,,
,,,,,,5105255cbf9f9aef01b09698,66a626ef09d4e21e1a8894ec,6734f03edc1090495fb7b9ed,2024-11-13_11h30.51.305,Tarea de género gramatical,2024.2.2,MacIntel,57.47126437,,,,,,,,,,,,,,,,,,,,,,,449.4189,451.0013,a,1,[],[],[],[],[],[],[],0.9032,1,451.0014,451.5016,,,,,,1083,FEM,CON,150,llave,,a,0.9032,,451.5017,451.5018,-0.476848958,-0.057052951,0,0,0,,0,49,49,182,1,,,,
,,,,,,5105255cbf9f9aef01b09698,66a626ef09d4e21e1a8894ec,6734f03edc1090495fb7b9ed,2024-11-13_11h30.51.305,Tarea de género gramatical,2024.2.2,MacIntel,57.47126437,,,,,,,,,,,,,,,,,,,,,,,451.503,452.8181,l,1,[],[],[],[],[],[],[],0.6355,1,452.8182,453.3171,,,,,,1086,MAS,CON,150,error,,l,0.6355,,453.3172,453.3173,-0.476848958,-0.057052951,0,0,0,,0,50,50,185,1,,,,
,,,,,,5105255cbf9f9aef01b09698,66a626ef09d4e21e1a8894ec,6734f03edc1090495fb7b9ed,2024-11-13_11h30.51.305,Tarea de género gramatical,2024.2.2,MacIntel,57.47126437,,,,,,,,,,,,,,,,,,,,,,,453.3183,454.7171,a,1,[],[],[],[],[],[],[],0.7425,1,454.7172,455.2179,,,,,,1273,FEM,DIS,150,lluvia,el,a,0.7425,,455.2184,455.2189,-0.476848958,-0.057052951,0,0,0,,0,51,51,372,1,,,,
,,,,,,5105255cbf9f9aef01b09698,66a626ef09d4e21e1a8894ec,6734f03edc1090495fb7b9ed,2024-11-13_11h30.51.305,Tarea de género gramatical,2024.2.2,MacIntel,57.47126437,,,,,,,,,,,,,,,,,,,,,,,455.2192,456.5682,a,1,[],[],[],[],[],[],[],0.678,1,456.5683,457.0673,,,,,,1255,FEM,DIS,150,mirada,el,a,0.678,,457.0673,457.0675,-0.476848958,-0.057052951,0,0,0,,0,52,52,354,1,,,,
,,,,,,5105255cbf9f9aef01b09698,66a626ef09d4e21e1a8894ec,6734f03edc1090495fb7b9ed,2024-11-13_11h30.51.305,Tarea de género gramatical,2024.2.2,MacIntel,57.47126437,,,,,,,,,,,,,,,,,,,,,,,457.0683,458.1849,l,1,[],[],[],[],[],[],[],0.4448,1,458.185,458.6845,,,,,,959,MAS,AGR,150,lobo,el,l,0.4448,,458.6846,458.6847,-0.476848958,-0.057052951,0,0,0,,0,53,53,58,1,,,,
,,,,,,5105255cbf9f9aef01b09698,66a626ef09d4e21e1a8894ec,6734f03edc1090495fb7b9ed,2024-11-13_11h30.51.305,Tarea de género gramatical,2024.2.2,MacIntel,57.47126437,,,,,,,,,,,,,,,,,,,,,,,458.6856,459.885,a,1,[],[],[],[],[],[],[],0.5168,1,459.8851,460.384,,,,,,1142,FEM,AGR,150,pizza,la,a,0.5168,,460.3841,460.3842,-0.476848958,-0.057052951,0,0,0,,0,54,54,241,1,,,,
,,,,,,5105255cbf9f9aef01b09698,66a626ef09d4e21e1a8894ec,6734f03edc1090495fb7b9ed,2024-11-13_11h30.51.305,Tarea de género gramatical,2024.2.2,MacIntel,57.47126437,,,,,,,,,,,,,,,,,,,,,,,460.3852,461.535,l,1,[],[],[],[],[],[],[],0.4929,1,461.5351,462.0341,,,,,,935,MAS,AGR,150,taxi,el,l,0.4929,,462.0341,462.0342,-0.476848958,-0.057052951,0,0,0,,0,55,55,34,1,,,,
,,,,,,5105255cbf9f9aef01b09698,66a626ef09d4e21e1a8894ec,6734f03edc1090495fb7b9ed,2024-11-13_11h30.51.305,Tarea de género gramatical,2024.2.2,MacIntel,57.47126437,,,,,,,,,,,,,,,,,,,,,,,462.0352,463.5351,l,1,[],[],[],[],[],[],[],0.8448,1,463.5352,464.0351,,,,,,1097,MAS,AGR,150,avión,el,l,0.8448,,464.0362,464.037,-0.476848958,-0.057052951,0,0,0,,0,56,56,196,1,,,,
,,,,,,5105255cbf9f9aef01b09698,66a626ef09d4e21e1a8894ec,6734f03edc1090495fb7b9ed,2024-11-13_11h30.51.305,Tarea de género gramatical,2024.2.2,MacIntel,57.47126437,,,,,,,,,,,,,,,,,,,,,,,464.0377,465.302,a,1,[],[],[],[],[],[],[],0.5837,1,465.3021,465.801,,,,,,1011,FEM,CON,150,goma,,a,0.5837,,465.801,465.801,-0.476848958,-0.057052951,0,0,0,,0,57,57,110,1,,,,
,,,,,,5105255cbf9f9aef01b09698,66a626ef09d4e21e1a8894ec,6734f03edc1090495fb7b9ed,2024-11-13_11h30.51.305,Tarea de género gramatical,2024.2.2,MacIntel,57.47126437,,,,,,,,,,,,,,,,,,,,,,,465.8018,467.1516,l,1,[],[],[],[],[],[],[],0.6724,1,467.1517,467.6519,,,,,,1186,MAS,DIS,150,reino,la,l,0.6724,,467.652,467.6521,-0.476848958,-0.057052951,0,0,0,,0,58,58,285,1,,,,
,,,,,,5105255cbf9f9aef01b09698,66a626ef09d4e21e1a8894ec,6734f03edc1090495fb7b9ed,2024-11-13_11h30.51.305,Tarea de género gramatical,2024.2.2,MacIntel,57.47126437,,,,,,,,,,,,,,,,,,,,,,,467.653,469.2187,a,1,[],[],[],[],[],[],[],0.8865,1,469.2188,469.7177,,,,,,1021,FEM,DIS,150,pila,el,a,0.8865,,469.7178,469.7179,-0.476848958,-0.057052951,0,0,0,,0,59,59,120,1,,,,
,,,,,,5105255cbf9f9aef01b09698,66a626ef09d4e21e1a8894ec,6734f03edc1090495fb7b9ed,2024-11-13_11h30.51.305,Tarea de género gramatical,2024.2.2,MacIntel,57.47126437,,,,,,,,,,,,,,,,,,,,,,,469.7191,471.0678,l,1,[],[],[],[],[],[],[],0.6689,1,471.068,471.5679,,,,,,1332,MAS,CON,150,océano,,l,0.6689,,471.5691,471.5701,-0.476848958,-0.057052951,0,0,0,,0,60,60,431,1,,,,
,,,,,,5105255cbf9f9aef01b09698,66a626ef09d4e21e1a8894ec,6734f03edc1090495fb7b9ed,2024-11-13_11h30.51.305,Tarea de género gramatical,2024.2.2,MacIntel,57.47126437,,,,,,,,,,,,,,,,,,,,,,,471.5708,472.8178,a,1,[],[],[],[],[],[],[],0.5687,1,472.818,473.319,,,,,,1041,FEM,CON,150,cera,,a,0.5687,,473.3191,473.3192,-0.476848958,-0.057052951,0,0,0,,0,61,61,140,1,,,,
,,,,,,5105255cbf9f9aef01b09698,66a626ef09d4e21e1a8894ec,6734f03edc1090495fb7b9ed,2024-11-13_11h30.51.305,Tarea de género gramatical,2024.2.2,MacIntel,57.47126437,,,,,,,,,,,,,,,,,,,,,,,473.3202,474.6023,a,1,[],[],[],[],[],[],[],0.6039,1,474.6024,475.1013,,,,,,1023,FEM,CON,150,tela,,a,0.6039,,475.1014,475.1015,-0.476848958,-0.057052951,0,0,0,,0,62,62,122,1,,,,
,,,,,,5105255cbf9f9aef01b09698,66a626ef09d4e21e1a8894ec,6734f03edc1090495fb7b9ed,2024-11-13_11h30.51.305,Tarea de género gramatical,2024.2.2,MacIntel,57.47126437,,,,,,,,,,,,,,,,,,,,,,,475.1027,476.3514,l,1,[],[],[],[],[],[],[],0.5684,1,476.3515,476.8521,,,,,,1036,MAS,DIS,150,vago,la,l,0.5684,,476.8522,476.8524,-0.476848958,-0.057052951,0,0,0,,0,63,63,135,1,,,,
,,,,,,5105255cbf9f9aef01b09698,66a626ef09d4e21e1a8894ec,6734f03edc1090495fb7b9ed,2024-11-13_11h30.51.305,Tarea de género gramatical,2024.2.2,MacIntel,57.47126437,,,,,,,,,,,,,,,,,,,,,,,476.8535,478.1356,a,1,[],[],[],[],[],[],[],0.6004,1,478.1357,478.6353,,,,,,907,FEM,DIS,150,hora,el,a,0.6004,,478.6353,478.6355,-0.476848958,-0.057052951,0,0,0,,0,64,64,6,1,,,,
,,,,,,5105255cbf9f9aef01b09698,66a626ef09d4e21e1a8894ec,6734f03edc1090495fb7b9ed,2024-11-13_11h30.51.305,Tarea de género gramatical,2024.2.2,MacIntel,57.47126437,,,,,,,,,,,,,,,,,,,,,,,478.6366,479.9348,l,1,[],[],[],[],[],[],[],0.618,1,479.935,480.4357,,,,,,1300,MAS,DIS,150,barrio,la,l,0.618,,480.437,480.4379,-0.476848958,-0.057052951,0,0,0,,0,65,65,399,1,,,,
,,,,,,5105255cbf9f9aef01b09698,66a626ef09d4e21e1a8894ec,6734f03edc1090495fb7b9ed,2024-11-13_11h30.51.305,Tarea de género gramatical,2024.2.2,MacIntel,57.47126437,,,,,,,,,,,,,,,,,,,,,,,480.4386,481.5525,a,1,[],[],[],[],[],[],[],0.445,1,481.5526,482.0515,,,,,,1287,FEM,CON,150,página,,a,0.445,,482.0515,482.0517,-0.476848958,-0.057052951,0,0,0,,0,66,66,386,1,,,,
,,,,,,5105255cbf9f9aef01b09698,66a626ef09d4e21e1a8894ec,6734f03edc1090495fb7b9ed,2024-11-13_11h30.51.305,Tarea de género gramatical,2024.2.2,MacIntel,57.47126437,,,,,,,,,,,,,,,,,,,,,,,482.0526,483.185,l,1,[],[],[],[],[],[],[],0.4671,1,483.1851,483.6859,,,,,,1200,MAS,CON,150,túnel,,l,0.4671,,483.686,483.686,-0.476848958,-0.057052951,0,0,0,,0,67,67,299,1,,,,
,,,,,,5105255cbf9f9aef01b09698,66a626ef09d4e21e1a8894ec,6734f03edc1090495fb7b9ed,2024-11-13_11h30.51.305,Tarea de género gramatical,2024.2.2,MacIntel,57.47126437,,,,,,,,,,,,,,,,,,,,,,,483.6869,484.8354,a,1,[],[],[],[],[],[],[],0.4677,1,484.8355,485.3359,,,,,,1232,FEM,AGR,150,basura,la,a,0.4677,,485.336,485.3361,-0.476848958,-0.057052951,0,0,0,,0,68,68,331,1,,,,
,,,,,,5105255cbf9f9aef01b09698,66a626ef09d4e21e1a8894ec,6734f03edc1090495fb7b9ed,2024-11-13_11h30.51.305,Tarea de género gramatical,2024.2.2,MacIntel,57.47126437,,,,,,,,,,,,,,,,,,,,,,,485.3372,486.5688,l,0,[],[],[],[],[],[],[],0.5507,0,486.5698,487.0683,,,,,,1231,FEM,DIS,150,cárcel,el,a,0.5507,,487.0695,487.0706,-0.476848958,-0.057052951,0,0,0,,0,69,69,330,1,,,,
,,,,,,5105255cbf9f9aef01b09698,66a626ef09d4e21e1a8894ec,6734f03edc1090495fb7b9ed,2024-11-13_11h30.51.305,Tarea de género gramatical,2024.2.2,MacIntel,57.47126437,,,,,,,,,,,,,,,,,,,,,,,487.0714,488.3863,a,1,[],[],[],[],[],[],[],0.6464,1,488.3872,488.8861,,,,,,1238,FEM,AGR,150,abuela,la,a,0.6464,,488.8861,488.8863,-0.476848958,-0.057052951,0,0,0,,0,70,70,337,1,,,,
,,,,,,5105255cbf9f9aef01b09698,66a626ef09d4e21e1a8894ec,6734f03edc1090495fb7b9ed,2024-11-13_11h30.51.305,Tarea de género gramatical,2024.2.2,MacIntel,57.47126437,,,,,,,,,,,,,,,,,,,,,,,488.8874,490.1528,l,1,[],[],[],[],[],[],[],0.5866,1,490.153,490.6527,,,,,,1235,MAS,AGR,150,montón,el,l,0.5866,,490.6527,490.6529,-0.476848958,-0.057052951,0,0,0,,0,71,71,334,1,,,,
,,,,,,5105255cbf9f9aef01b09698,66a626ef09d4e21e1a8894ec,6734f03edc1090495fb7b9ed,2024-11-13_11h30.51.305,Tarea de género gramatical,2024.2.2,MacIntel,57.47126437,,,,,,,,,,,,,,,,,,,,,,,490.6537,491.8352,a,1,[],[],[],[],[],[],[],0.5011,1,491.8353,492.3352,,,,,,1335,FEM,CON,150,niebla,,a,0.5011,,492.3352,492.3353,-0.476848958,-0.057052951,0,0,0,,0,72,72,434,1,,,,
,,,,,,5105255cbf9f9aef01b09698,66a626ef09d4e21e1a8894ec,6734f03edc1090495fb7b9ed,2024-11-13_11h30.51.305,Tarea de género gramatical,2024.2.2,MacIntel,57.47126437,,,,,,,,,,,,,,,,,,,,,,,492.3366,493.5696,l,1,[],[],[],[],[],[],[],0.567,1,493.5696,494.0686,,,,,,1252,MAS,DIS,150,estilo,la,l,0.567,,494.0687,494.0688,-0.476848958,-0.057052951,0,0,0,,0,73,73,351,1,,,,
,,,,,,5105255cbf9f9aef01b09698,66a626ef09d4e21e1a8894ec,6734f03edc1090495fb7b9ed,2024-11-13_11h30.51.305,Tarea de género gramatical,2024.2.2,MacIntel,57.47126437,,,,,,,,,,,,,,,,,,,,,,,494.0699,495.2529,l,1,[],[],[],[],[],[],[],0.5206,1,495.2531,495.7519,,,,,,1102,MAS,DIS,150,honor,la,l,0.5206,,495.7529,495.7536,-0.476848958,-0.057052951,0,0,0,,0,74,74,201,1,,,,
,,,,,,5105255cbf9f9aef01b09698,66a626ef09d4e21e1a8894ec,6734f03edc1090495fb7b9ed,2024-11-13_11h30.51.305,Tarea de género gramatical,2024.2.2,MacIntel,57.47126437,,,,,,,,,,,,,,,,,,,,,,,495.7542,497.1188,a,1,[],[],[],[],[],[],[],0.6839,1,497.1189,497.6188,,,,,,1119,FEM,CON,150,costa,,a,0.6839,,497.6188,497.619,-0.476848958,-0.057052951,0,0,0,,0,75,75,218,1,,,,
,,,,,,5105255cbf9f9aef01b09698,66a626ef09d4e21e1a8894ec,6734f03edc1090495fb7b9ed,2024-11-13_11h30.51.305,Tarea de género gramatical,2024.2.2,MacIntel,57.47126437,,,,,,,,,,,,,,,,,,,,,,,497.6202,498.8531,l,1,[],[],[],[],[],[],[],0.5663,1,498.8533,499.353,,,,,,1156,MAS,DIS,150,techo,la,l,0.5663,,499.3531,499.3533,-0.476848958,-0.057052951,0,0,0,,0,76,76,255,1,,,,
,,,,,,5105255cbf9f9aef01b09698,66a626ef09d4e21e1a8894ec,6734f03edc1090495fb7b9ed,2024-11-13_11h30.51.305,Tarea de género gramatical,2024.2.2,MacIntel,57.47126437,,,,,,,,,,,,,,,,,,,,,,,499.3545,500.7199,l,1,[],[],[],[],[],[],[],0.6855,1,500.72,501.2198,,,,,,1007,MAS,AGR,150,cubo,el,l,0.6855,,501.2199,501.2201,-0.476848958,-0.057052951,0,0,0,,0,77,77,106,1,,,,
,,,,,,5105255cbf9f9aef01b09698,66a626ef09d4e21e1a8894ec,6734f03edc1090495fb7b9ed,2024-11-13_11h30.51.305,Tarea de género gramatical,2024.2.2,MacIntel,57.47126437,,,,,,,,,,,,,,,,,,,,,,,501.2211,502.4699,l,1,[],[],[],[],[],[],[],0.5674,1,502.47,502.969,,,,,,904,MAS,DIS,150,hijo,la,l,0.5674,,502.9701,502.9711,-0.476848958,-0.057052951,0,0,0,,0,78,78,3,1,,,,
,,,,,,5105255cbf9f9aef01b09698,66a626ef09d4e21e1a8894ec,6734f03edc1090495fb7b9ed,2024-11-13_11h30.51.305,Tarea de género gramatical,2024.2.2,MacIntel,57.47126437,,,,,,,,,,,,,,,,,,,,,,,502.9718,504.1691,a,1,[],[],[],[],[],[],[],0.517,1,504.1692,504.6691,,,,,,1058,FEM,AGR,150,chica,la,a,0.517,,504.6691,504.6692,-0.476848958,-0.057052951,0,0,0,,0,79,79,157,1,,,,
,,,,,,5105255cbf9f9aef01b09698,66a626ef09d4e21e1a8894ec,6734f03edc1090495fb7b9ed,2024-11-13_11h30.51.305,Tarea de género gramatical,2024.2.2,MacIntel,57.47126437,,,,,,,,,,,,,,,,,,,,,,,504.6704,505.8857,l,0,[],[],[],[],[],[],[],0.5345,0,505.8865,506.3867,,,,,,1028,FEM,AGR,150,leña,la,a,0.5345,,506.3868,506.3869,-0.476848958,-0.057052951,0,0,0,,0,80,80,127,1,,,,
,,,,,,5105255cbf9f9aef01b09698,66a626ef09d4e21e1a8894ec,6734f03edc1090495fb7b9ed,2024-11-13_11h30.51.305,Tarea de género gramatical,2024.2.2,MacIntel,57.47126437,,,,,,,,,,,,,,,,,,,,,,,506.388,507.7534,l,1,[],[],[],[],[],[],[],0.6841,1,507.7546,508.2524,,,,,,1044,MAS,CON,150,amor,,l,0.6841,,508.2525,508.2526,-0.476848958,-0.057052951,0,0,0,,0,81,81,143,1,,,,
,,,,,,5105255cbf9f9aef01b09698,66a626ef09d4e21e1a8894ec,6734f03edc1090495fb7b9ed,2024-11-13_11h30.51.305,Tarea de género gramatical,2024.2.2,MacIntel,57.47126437,,,,,,,,,,,,,,,,,,,,,,,508.2543,509.5868,a,1,[],[],[],[],[],[],[],0.6517,1,509.5869,510.0869,,,,,,1059,FEM,CON,150,clase,,a,0.6517,,510.087,510.087,-0.476848958,-0.057052951,0,0,0,,0,82,82,158,1,,,,
,,,,,,5105255cbf9f9aef01b09698,66a626ef09d4e21e1a8894ec,6734f03edc1090495fb7b9ed,2024-11-13_11h30.51.305,Tarea de género gramatical,2024.2.2,MacIntel,57.47126437,,,,,,,,,,,,,,,,,,,,,,,510.0881,511.4525,a,1,[],[],[],[],[],[],[],0.6894,1,511.4526,511.9526,,,,,,915,FEM,CON,150,cama,,a,0.6894,,511.9536,511.9543,-0.476848958,-0.057052951,0,0,0,,0,83,83,14,1,,,,
,,,,,,5105255cbf9f9aef01b09698,66a626ef09d4e21e1a8894ec,6734f03edc1090495fb7b9ed,2024-11-13_11h30.51.305,Tarea de género gramatical,2024.2.2,MacIntel,57.47126437,,,,,,,,,,,,,,,,,,,,,,,511.9548,513.2361,a,1,[],[],[],[],[],[],[],0.6007,1,513.2362,513.737,,,,,,1333,FEM,DIS,150,huella,el,a,0.6007,,513.7371,513.7372,-0.476848958,-0.057052951,0,0,0,,0,84,84,432,1,,,,
,,,,,,5105255cbf9f9aef01b09698,66a626ef09d4e21e1a8894ec,6734f03edc1090495fb7b9ed,2024-11-13_11h30.51.305,Tarea de género gramatical,2024.2.2,MacIntel,57.47126437,,,,,,,,,,,,,,,,,,,,,,,513.7383,514.9036,a,1,[],[],[],[],[],[],[],0.485,1,514.9038,515.4036,,,,,,1046,FEM,AGR,150,lana,la,a,0.485,,515.4037,515.4039,-0.476848958,-0.057052951,0,0,0,,0,85,85,145,1,,,,
,,,,,,5105255cbf9f9aef01b09698,66a626ef09d4e21e1a8894ec,6734f03edc1090495fb7b9ed,2024-11-13_11h30.51.305,Tarea de género gramatical,2024.2.2,MacIntel,57.47126437,,,,,,,,,,,,,,,,,,,,,,,515.4051,516.5535,a,1,[],[],[],[],[],[],[],0.477,1,516.5537,517.0528,,,,,,1208,FEM,AGR,150,semana,la,a,0.477,,517.0528,517.053,-0.476848958,-0.057052951,0,0,0,,0,86,86,307,1,,,,
,,,,,,5105255cbf9f9aef01b09698,66a626ef09d4e21e1a8894ec,6734f03edc1090495fb7b9ed,2024-11-13_11h30.51.305,Tarea de género gramatical,2024.2.2,MacIntel,57.47126437,,,,,,,,,,,,,,,,,,,,,,,517.054,518.1695,l,1,[],[],[],[],[],[],[],0.4543,1,518.1696,518.6694,,,,,,1283,MAS,AGR,150,parque,el,l,0.4543,,518.6705,518.6713,-0.476848958,-0.057052951,0,0,0,,0,87,87,382,1,,,,
,,,,,,5105255cbf9f9aef01b09698,66a626ef09d4e21e1a8894ec,6734f03edc1090495fb7b9ed,2024-11-13_11h30.51.305,Tarea de género gramatical,2024.2.2,MacIntel,57.47126437,,,,,,,,,,,,,,,,,,,,,,,518.6719,519.9038,a,1,[],[],[],[],[],[],[],0.5514,1,519.904,520.404,,,,,,986,FEM,AGR,150,cruz,la,a,0.5514,,520.4041,520.4042,-0.476848958,-0.057052951,0,0,0,,0,88,88,85,1,,,,
,,,,,,5105255cbf9f9aef01b09698,66a626ef09d4e21e1a8894ec,6734f03edc1090495fb7b9ed,2024-11-13_11h30.51.305,Tarea de género gramatical,2024.2.2,MacIntel,57.47126437,,,,,,,,,,,,,,,,,,,,,,,520.4053,521.5538,a,1,[],[],[],[],[],[],[],0.4665,1,521.5541,522.0539,,,,,,1261,FEM,DIS,150,oferta,el,a,0.4665,,522.0539,522.0541,-0.476848958,-0.057052951,0,0,0,,0,89,89,360,1,,,,
,,,,,,5105255cbf9f9aef01b09698,66a626ef09d4e21e1a8894ec,6734f03edc1090495fb7b9ed,2024-11-13_11h30.51.305,Tarea de género gramatical,2024.2.2,MacIntel,57.47126437,,,,,,,,,,,,,,,,,,,,,,,522.0551,523.5364,l,0,[],[],[],[],[],[],[],0.8004,0,523.5372,524.0364,,,,,,1263,FEM,CON,150,unidad,,a,0.8004,,524.0364,524.0365,-0.476848958,-0.057052951,0,0,0,,0,90,90,362,1,,,,
,,,,,,5105255cbf9f9aef01b09698,66a626ef09d4e21e1a8894ec,6734f03edc1090495fb7b9ed,2024-11-13_11h30.51.305,Tarea de género gramatical,2024.2.2,MacIntel,57.47126437,,,,,,,,,,,,,,,,,,,,,,,524.0377,525.2206,l,1,[],[],[],[],[],[],[],0.5015,1,525.2216,525.7205,,,,,,1139,MAS,AGR,150,reloj,el,l,0.5015,,525.7205,525.7206,-0.476848958,-0.057052951,0,0,0,,0,91,91,238,1,,,,
,,,,,,5105255cbf9f9aef01b09698,66a626ef09d4e21e1a8894ec,6734f03edc1090495fb7b9ed,2024-11-13_11h30.51.305,Tarea de género gramatical,2024.2.2,MacIntel,57.47126437,,,,,,,,,,,,,,,,,,,,,,,525.7215,526.9198,l,1,[],[],[],[],[],[],[],0.5164,1,526.9199,527.4207,,,,,,1090,MAS,DIS,150,campo,la,l,0.5164,,527.4219,527.4227,-0.476848958,-0.057052951,0,0,0,,0,92,92,189,1,,,,
,,,,,,5105255cbf9f9aef01b09698,66a626ef09d4e21e1a8894ec,6734f03edc1090495fb7b9ed,2024-11-13_11h30.51.305,Tarea de género gramatical,2024.2.2,MacIntel,57.47126437,,,,,,,,,,,,,,,,,,,,,,,527.4236,528.7532,a,1,[],[],[],[],[],[],[],0.6549,1,528.7533,529.2541,,,,,,1197,FEM,CON,150,manta,,a,0.6549,,529.2542,529.2543,-0.476848958,-0.057052951,0,0,0,,0,93,93,296,1,,,,
,,,,,,5105255cbf9f9aef01b09698,66a626ef09d4e21e1a8894ec,6734f03edc1090495fb7b9ed,2024-11-13_11h30.51.305,Tarea de género gramatical,2024.2.2,MacIntel,57.47126437,,,,,,,,,,,,,,,,,,,,,,,529.2554,530.4532,l,1,[],[],[],[],[],[],[],0.518,1,530.4533,530.9532,,,,,,1152,MAS,CON,150,viejo,,l,0.518,,530.9533,530.9534,-0.476848958,-0.057052951,0,0,0,,0,94,94,251,1,,,,
,,,,,,5105255cbf9f9aef01b09698,66a626ef09d4e21e1a8894ec,6734f03edc1090495fb7b9ed,2024-11-13_11h30.51.305,Tarea de género gramatical,2024.2.2,MacIntel,57.47126437,,,,,,,,,,,,,,,,,,,,,,,530.9545,532.2043,a,1,[],[],[],[],[],[],[],0.5846,1,532.2044,532.7042,,,,,,1233,FEM,CON,150,locura,,a,0.5846,,532.7044,532.7044,-0.476848958,-0.057052951,0,0,0,,0,95,95,332,1,,,,
,,,,,,5105255cbf9f9aef01b09698,66a626ef09d4e21e1a8894ec,6734f03edc1090495fb7b9ed,2024-11-13_11h30.51.305,Tarea de género gramatical,2024.2.2,MacIntel,57.47126437,,,,,,,,,,,,,,,,,,,,,,,532.7054,533.871,l,1,[],[],[],[],[],[],[],0.4832,1,533.8711,534.3708,,,,,,1343,MAS,AGR,150,templo,el,l,0.4832,,534.3722,534.3731,-0.476848958,-0.057052951,0,0,0,,0,96,96,442,1,,,,
,,,,,,5105255cbf9f9aef01b09698,66a626ef09d4e21e1a8894ec,6734f03edc1090495fb7b9ed,2024-11-13_11h30.51.305,Tarea de género gramatical,2024.2.2,MacIntel,57.47126437,,,,,,,,,,,,,,,,,,,,,,,534.3737,535.7211,l,1,[],[],[],[],[],[],[],0.6668,1,535.7212,536.2211,,,,,,982,MAS,DIS,150,tubo,la,l,0.6668,,536.2211,536.2213,-0.476848958,-0.057052951,0,0,0,,0,97,97,81,1,,,,
,,,,,,5105255cbf9f9aef01b09698,66a626ef09d4e21e1a8894ec,6734f03edc1090495fb7b9ed,2024-11-13_11h30.51.305,Tarea de género gramatical,2024.2.2,MacIntel,57.47126437,,,,,,,,,,,,,,,,,,,,,,,536.2224,537.6544,l,1,[],[],[],[],[],[],[],0.753,1,537.6546,538.1545,,,,,,1348,MAS,DIS,150,aceite,la,l,0.753,,538.1546,538.1546,-0.476848958,-0.057052951,0,0,0,,0,98,98,447,1,,,,
,,,,,,5105255cbf9f9aef01b09698,66a626ef09d4e21e1a8894ec,6734f03edc1090495fb7b9ed,2024-11-13_11h30.51.305,Tarea de género gramatical,2024.2.2,MacIntel,57.47126437,,,,,,,,,,,,,,,,,,,,,,,538.1557,539.4712,l,1,[],[],[],[],[],[],[],0.6367,1,539.4714,539.9709,,,,,,1008,MAS,CON,150,hilo,,l,0.6367,,539.971,539.9711,-0.476848958,-0.057052951,0,0,0,,0,99,99,107,1,,,,
,,,,,,5105255cbf9f9aef01b09698,66a626ef09d4e21e1a8894ec,6734f03edc1090495fb7b9ed,2024-11-13_11h30.51.305,Tarea de género gramatical,2024.2.2,MacIntel,57.47126437,,,,,,,,,,,,,,,,,,,,,,,539.9723,541.3545,l,1,[],[],[],[],[],[],[],0.7042,1,541.3546,541.854,,,,,,1308,MAS,CON,150,cheque,,l,0.7042,,541.8541,541.8542,-0.476848958,-0.057052951,0,0,0,,0,100,100,407,1,,,,
,,,,,,5105255cbf9f9aef01b09698,66a626ef09d4e21e1a8894ec,6734f03edc1090495fb7b9ed,2024-11-13_11h30.51.305,Tarea de género gramatical,2024.2.2,MacIntel,57.47126437,,,,,,,,,,,,,,,,,,,,,,,541.8552,543.0379,a,1,[],[],[],[],[],[],[],0.5004,1,543.0381,543.5371,,,,,,1065,FEM,CON,150,amiga,,a,0.5004,,543.5383,543.5389,-0.476848958,-0.057052951,0,0,0,,0,101,101,164,1,,,,
,,,,,,5105255cbf9f9aef01b09698,66a626ef09d4e21e1a8894ec,6734f03edc1090495fb7b9ed,2024-11-13_11h30.51.305,Tarea de género gramatical,2024.2.2,MacIntel,57.47126437,,,,,,,,,,,,,,,,,,,,,,,543.5397,544.8713,l,1,[],[],[],[],[],[],[],0.6502,1,544.8715,545.3715,,,,,,1025,MAS,AGR,150,bate,el,l,0.6502,,545.3715,545.3717,-0.476848958,-0.057052951,0,0,0,,0,102,102,124,1,,,,
,,,,,,5105255cbf9f9aef01b09698,66a626ef09d4e21e1a8894ec,6734f03edc1090495fb7b9ed,2024-11-13_11h30.51.305,Tarea de género gramatical,2024.2.2,MacIntel,57.47126437,,,,,,,,,,,,,,,,,,,,,,,545.373,547.0044,l,1,[],[],[],[],[],[],[],0.9613,1,547.0044,547.5038,,,,,,1062,MAS,CON,150,miedo,,l,0.9613,,547.5039,547.504,-0.476848958,-0.057052951,0,0,0,,0,103,103,161,1,,,,
,,,,,,5105255cbf9f9aef01b09698,66a626ef09d4e21e1a8894ec,6734f03edc1090495fb7b9ed,2024-11-13_11h30.51.305,Tarea de género gramatical,2024.2.2,MacIntel,57.47126437,,,,,,,,,,,,,,,,,,,,,,,547.5051,548.6548,a,1,[],[],[],[],[],[],[],0.4834,1,548.6549,549.1549,,,,,,998,FEM,AGR,150,fuga,la,a,0.4834,,549.1549,549.155,-0.476848958,-0.057052951,0,0,0,,0,104,104,97,1,,,,
,,,,,,5105255cbf9f9aef01b09698,66a626ef09d4e21e1a8894ec,6734f03edc1090495fb7b9ed,2024-11-13_11h30.51.305,Tarea de género gramatical,2024.2.2,MacIntel,57.47126437,,,,,,,,,,,,,,,,,,,,,,,549.1561,550.4717,l,1,[],[],[],[],[],[],[],0.6369,1,550.4718,550.9715,,,,,,1038,MAS,CON,150,luto,,l,0.6369,,550.9726,550.9733,-0.476848958,-0.057052951,0,0,0,,0,105,105,137,1,,,,
,,,,,,5105255cbf9f9aef01b09698,66a626ef09d4e21e1a8894ec,6734f03edc1090495fb7b9ed,2024-11-13_11h30.51.305,Tarea de género gramatical,2024.2.2,MacIntel,57.47126437,,,,,,,,,,,,,,,,,,,,,,,550.974,552.255,l,1,[],[],[],[],[],[],[],0.6015,1,552.2551,552.7548,,,,,,1192,MAS,DIS,150,piano,la,l,0.6015,,552.7548,552.755,-0.476848958,-0.057052951,0,0,0,,0,106,106,291,1,,,,
,,,,,,5105255cbf9f9aef01b09698,66a626ef09d4e21e1a8894ec,6734f03edc1090495fb7b9ed,2024-11-13_11h30.51.305,Tarea de género gramatical,2024.2.2,MacIntel,57.47126437,,,,,,,,,,,,,,,,,,,,,,,552.7561,553.9876,a,1,[],[],[],[],[],[],[],0.5506,1,553.9878,554.4873,,,,,,1183,FEM,DIS,150,pluma,el,a,0.5506,,554.4874,554.4875,-0.476848958,-0.057052951,0,0,0,,0,107,107,282,1,,,,
,,,,,,5105255cbf9f9aef01b09698,66a626ef09d4e21e1a8894ec,6734f03edc1090495fb7b9ed,2024-11-13_11h30.51.305,Tarea de género gramatical,2024.2.2,MacIntel,57.47126437,,,,,,,,,,,,,,,,,,,,,,,554.4884,555.6716,l,0,[],[],[],[],[],[],[],0.5,0,555.6723,556.1716,,,,,,967,FEM,DIS,150,miel,el,a,0.5,,556.1718,556.1719,-0.476848958,-0.057052951,0,0,0,,0,108,108,66,1,,,,
,,,,,,5105255cbf9f9aef01b09698,66a626ef09d4e21e1a8894ec,6734f03edc1090495fb7b9ed,2024-11-13_11h30.51.305,Tarea de género gramatical,2024.2.2,MacIntel,57.47126437,,,,,,,,,,,,,,,,,,,,,,,556.1728,557.3384,l,1,[],[],[],[],[],[],[],0.4903,1,557.3395,557.8386,,,,,,1096,MAS,DIS,150,barco,la,l,0.4903,,557.8387,557.8389,-0.476848958,-0.057052951,0,0,0,,0,109,109,195,1,,,,
,,,,,,5105255cbf9f9aef01b09698,66a626ef09d4e21e1a8894ec,6734f03edc1090495fb7b9ed,2024-11-13_11h30.51.305,Tarea de género gramatical,2024.2.2,MacIntel,57.47126437,,,,,,,,,,,,,,,,,,,,,,,557.8402,558.9546,a,1,[],[],[],[],[],[],[],0.4456,1,558.9548,559.4552,,,,,,902,FEM,AGR,150,vida,la,a,0.4456,,559.4564,559.4574,-0.476848958,-0.057052951,0,0,0,,0,110,110,1,1,,,,
,,,,,,5105255cbf9f9aef01b09698,66a626ef09d4e21e1a8894ec,6734f03edc1090495fb7b9ed,2024-11-13_11h30.51.305,Tarea de género gramatical,2024.2.2,MacIntel,57.47126437,,,,,,,,,,,,,,,,,,,,,,,559.4582,560.6718,l,1,[],[],[],[],[],[],[],0.5344,1,560.672,561.1719,,,,,,1228,MAS,DIS,150,asunto,la,l,0.5344,,561.172,561.1721,-0.476848958,-0.057052951,0,0,0,,0,111,111,327,1,,,,
,,,,,,5105255cbf9f9aef01b09698,66a626ef09d4e21e1a8894ec,6734f03edc1090495fb7b9ed,2024-11-13_11h30.51.305,Tarea de género gramatical,2024.2.2,MacIntel,57.47126437,,,,,,,,,,,,,,,,,,,,,,,561.1733,562.2877,l,0,[],[],[],[],[],[],[],0.4336,0,562.2886,562.7877,,,,,,1040,FEM,AGR,150,mula,la,a,0.4336,,562.7877,562.7879,-0.476848958,-0.057052951,0,0,0,,0,112,112,139,1,,,,
,,,,,,5105255cbf9f9aef01b09698,66a626ef09d4e21e1a8894ec,6734f03edc1090495fb7b9ed,2024-11-13_11h30.51.305,Tarea de género gramatical,2024.2.2,MacIntel,57.47126437,,,,,,,,,,,,,,,,,,,,,,,562.789,564.0043,a,1,[],[],[],[],[],[],[],0.5501,1,564.0052,564.5055,,,,,,1093,FEM,DIS,150,bolsa,el,a,0.5501,,564.5055,564.5056,-0.476848958,-0.057052951,0,0,0,,0,113,113,192,1,,,,
,,,,,,5105255cbf9f9aef01b09698,66a626ef09d4e21e1a8894ec,6734f03edc1090495fb7b9ed,2024-11-13_11h30.51.305,Tarea de género gramatical,2024.2.2,MacIntel,57.47126437,,,,,,,,,,,,,,,,,,,,,,,564.507,565.8054,l,1,[],[],[],[],[],[],[],0.6174,1,565.8055,566.3044,,,,,,972,MAS,CON,150,hoyo,,l,0.6174,,566.3056,566.3065,-0.476848958,-0.057052951,0,0,0,,0,114,114,71,1,,,,
,,,,,,5105255cbf9f9aef01b09698,66a626ef09d4e21e1a8894ec,6734f03edc1090495fb7b9ed,2024-11-13_11h30.51.305,Tarea de género gramatical,2024.2.2,MacIntel,57.47126437,,,,,,,,,,,,,,,,,,,,,,,566.3071,567.6556,l,1,[],[],[],[],[],[],[],0.6673,1,567.6557,568.1554,,,,,,1006,MAS,DIS,150,test,la,l,0.6673,,568.1555,568.1557,-0.476848958,-0.057052951,0,0,0,,0,115,115,105,1,,,,
,,,,,,5105255cbf9f9aef01b09698,66a626ef09d4e21e1a8894ec,6734f03edc1090495fb7b9ed,2024-11-13_11h30.51.305,Tarea de género gramatical,2024.2.2,MacIntel,57.47126437,,,,,,,,,,,,,,,,,,,,,,,568.1567,569.3385,a,1,[],[],[],[],[],[],[],0.5109,1,569.3385,569.8379,,,,,,909,FEM,CON,150,mamá,,a,0.5109,,569.838,569.8381,-0.476848958,-0.057052951,0,0,0,,0,116,116,8,1,,,,
,,,,,,5105255cbf9f9aef01b09698,66a626ef09d4e21e1a8894ec,6734f03edc1090495fb7b9ed,2024-11-13_11h30.51.305,Tarea de género gramatical,2024.2.2,MacIntel,57.47126437,,,,,,,,,,,,,,,,,,,,,,,569.8394,571.0054,l,1,[],[],[],[],[],[],[],0.5006,1,571.0056,571.5056,,,,,,1030,MAS,DIS,150,yate,la,l,0.5006,,571.5056,571.5057,-0.476848958,-0.057052951,0,0,0,,0,117,117,129,1,,,,
,,,,,,5105255cbf9f9aef01b09698,66a626ef09d4e21e1a8894ec,6734f03edc1090495fb7b9ed,2024-11-13_11h30.51.305,Tarea de género gramatical,2024.2.2,MacIntel,57.47126437,,,,,,,,,,,,,,,,,,,,,,,571.5067,572.6723,a,1,[],[],[],[],[],[],[],0.4877,1,572.6725,573.1722,,,,,,975,FEM,CON,150,caza,,a,0.4877,,573.1723,573.1725,-0.476848958,-0.057052951,0,0,0,,0,118,118,74,1,,,,
,,,,,,5105255cbf9f9aef01b09698,66a626ef09d4e21e1a8894ec,6734f03edc1090495fb7b9ed,2024-11-13_11h30.51.305,Tarea de género gramatical,2024.2.2,MacIntel,57.47126437,,,,,,,,,,,,,,,,,,,,,,,573.1734,574.322,l,1,[],[],[],[],[],[],[],0.467,1,574.3222,574.8223,,,,,,1091,MAS,AGR,150,dolor,el,l,0.467,,574.8236,574.8245,-0.476848958,-0.057052951,0,0,0,,0,119,119,190,1,,,,
,,,,,,5105255cbf9f9aef01b09698,66a626ef09d4e21e1a8894ec,6734f03edc1090495fb7b9ed,2024-11-13_11h30.51.305,Tarea de género gramatical,2024.2.2,MacIntel,57.47126437,,,,,,,,,,,,,,,,,,,,,,,574.8254,576.2226,a,1,[],[],[],[],[],[],[],0.7293,1,576.2228,576.7214,,,,,,1346,FEM,AGR,150,bañera,la,a,0.7293,,576.7215,576.7216,-0.476848958,-0.057052951,0,0,0,,0,120,120,445,1,,,,
,,,,,,5105255cbf9f9aef01b09698,66a626ef09d4e21e1a8894ec,6734f03edc1090495fb7b9ed,2024-11-13_11h30.51.305,Tarea de género gramatical,2024.2.2,MacIntel,57.47126437,,,,,,,,,,,,,,,,,,,,,,,576.7227,577.8389,l,1,[],[],[],[],[],[],[],0.4455,1,577.8391,578.3391,,,,,,1037,MAS,AGR,150,coco,el,l,0.4455,,578.3392,578.3393,-0.476848958,-0.057052951,0,0,0,,0,121,121,136,1,,,,
,,,,,,5105255cbf9f9aef01b09698,66a626ef09d4e21e1a8894ec,6734f03edc1090495fb7b9ed,2024-11-13_11h30.51.305,Tarea de género gramatical,2024.2.2,MacIntel,57.47126437,,,,,,,,,,,,,,,,,,,,,,,578.3404,579.6724,a,1,[],[],[],[],[],[],[],0.6508,1,579.6725,580.1726,,,,,,1179,FEM,CON,150,selva,,a,0.6508,,580.1728,580.1729,-0.476848958,-0.057052951,0,0,0,,0,122,122,278,1,,,,
,,,,,,5105255cbf9f9aef01b09698,66a626ef09d4e21e1a8894ec,6734f03edc1090495fb7b9ed,2024-11-13_11h30.51.305,Tarea de género gramatical,2024.2.2,MacIntel,57.47126437,,,,,,,,,,,,,,,,,,,,,,,580.1746,581.2555,l,1,[],[],[],[],[],[],[],0.3995,1,581.2556,581.7558,,,,,,1013,MAS,AGR,150,toro,el,l,0.3995,,581.7572,581.7581,-0.476848958,-0.057052951,0,0,0,,0,123,123,112,1,,,,
,,,,,,5105255cbf9f9aef01b09698,66a626ef09d4e21e1a8894ec,6734f03edc1090495fb7b9ed,2024-11-13_11h30.51.305,Tarea de género gramatical,2024.2.2,MacIntel,57.47126437,,,,,,,,,,,,,,,,,,,,,,,581.759,583.0894,a,1,[],[],[],[],[],[],[],0.6503,1,583.0895,583.5893,,,,,,1099,FEM,DIS,150,nariz,el,a,0.6503,,583.5893,583.5894,-0.476848958,-0.057052951,0,0,0,,0,124,124,198,1,,,,
,,,,,,5105255cbf9f9aef01b09698,66a626ef09d4e21e1a8894ec,6734f03edc1090495fb7b9ed,2024-11-13_11h30.51.305,Tarea de género gramatical,2024.2.2,MacIntel,57.47126437,,,,,,,,,,,,,,,,,,,,,,,583.5903,585.0062,a,1,[],[],[],[],[],[],[],0.7454,1,585.0064,585.506,,,,,,1279,FEM,DIS,150,granja,el,a,0.7454,,585.506,585.5061,-0.476848958,-0.057052951,0,0,0,,0,125,125,378,1,,,,
,,,,,,5105255cbf9f9aef01b09698,66a626ef09d4e21e1a8894ec,6734f03edc1090495fb7b9ed,2024-11-13_11h30.51.305,Tarea de género gramatical,2024.2.2,MacIntel,57.47126437,,,,,,,,,,,,,,,,,,,,,,,585.5073,586.8227,l,1,[],[],[],[],[],[],[],0.6328,1,586.8228,587.3224,,,,,,1319,MAS,AGR,150,cuento,el,l,0.6328,,587.3225,587.3225,-0.476848958,-0.057052951,0,0,0,,0,126,126,418,1,,,,
,,,,,,5105255cbf9f9aef01b09698,66a626ef09d4e21e1a8894ec,6734f03edc1090495fb7b9ed,2024-11-13_11h30.51.305,Tarea de género gramatical,2024.2.2,MacIntel,57.47126437,,,,,,,,,,,,,,,,,,,,,,,587.3232,588.5394,l,1,[],[],[],[],[],[],[],0.5336,1,588.5395,589.039,,,,,,1270,MAS,DIS,150,seguro,la,l,0.5336,,589.0391,589.0392,-0.476848958,-0.057052951,0,0,0,,0,127,127,369,1,,,,
,,,,,,5105255cbf9f9aef01b09698,66a626ef09d4e21e1a8894ec,6734f03edc1090495fb7b9ed,2024-11-13_11h30.51.305,Tarea de género gramatical,2024.2.2,MacIntel,57.47126437,,,,,,,,,,,,,,,,,,,,,,,589.0402,590.4562,l,1,[],[],[],[],[],[],[],0.7356,1,590.4563,590.9562,,,,,,1301,MAS,AGR,150,abrigo,el,l,0.7356,,590.9574,590.9582,-0.476848958,-0.057052951,0,0,0,,0,128,128,400,1,,,,
,,,,,,5105255cbf9f9aef01b09698,66a626ef09d4e21e1a8894ec,6734f03edc1090495fb7b9ed,2024-11-13_11h30.51.305,Tarea de género gramatical,2024.2.2,MacIntel,57.47126437,,,,,,,,,,,,,,,,,,,,,,,590.959,592.1895,l,0,[],[],[],[],[],[],[],0.5509,0,592.1903,592.6895,,,,,,1185,FEM,CON,150,mafia,,a,0.5509,,592.6896,592.6897,-0.476848958,-0.057052951,0,0,0,,0,129,129,284,1,,,,
,,,,,,5105255cbf9f9aef01b09698,66a626ef09d4e21e1a8894ec,6734f03edc1090495fb7b9ed,2024-11-13_11h30.51.305,Tarea de género gramatical,2024.2.2,MacIntel,57.47126437,,,,,,,,,,,,,,,,,,,,,,,592.6907,593.923,l,1,[],[],[],[],[],[],[],0.5492,1,593.9238,594.4231,,,,,,1234,MAS,DIS,150,ataque,la,l,0.5492,,594.4232,594.4235,-0.476848958,-0.057052951,0,0,0,,0,130,130,333,1,,,,
,,,,,,5105255cbf9f9aef01b09698,66a626ef09d4e21e1a8894ec,6734f03edc1090495fb7b9ed,2024-11-13_11h30.51.305,Tarea de género gramatical,2024.2.2,MacIntel,57.47126437,,,,,,,,,,,,,,,,,,,,,,,594.4247,596.0564,l,1,[],[],[],[],[],[],[],0.9507,1,596.0565,596.5566,,,,,,1272,MAS,CON,150,delito,,l,0.9507,,596.5566,596.5569,-0.476848958,-0.057052951,0,0,0,,0,131,131,371,1,,,,
,,,,,,5105255cbf9f9aef01b09698,66a626ef09d4e21e1a8894ec,6734f03edc1090495fb7b9ed,2024-11-13_11h30.51.305,Tarea de género gramatical,2024.2.2,MacIntel,57.47126437,,,,,,,,,,,,,,,,,,,,,,,596.558,597.8399,l,1,[],[],[],[],[],[],[],0.5993,1,597.8401,598.34,,,,,,978,MAS,CON,150,oído,,l,0.5993,,598.3415,598.3425,-0.476848958,-0.057052951,0,0,0,,0,132,132,77,1,,,,
,,,,,,5105255cbf9f9aef01b09698,66a626ef09d4e21e1a8894ec,6734f03edc1090495fb7b9ed,2024-11-13_11h30.51.305,Tarea de género gramatical,2024.2.2,MacIntel,57.47126437,,,,,,,,,,,,,,,,,,,,,,,598.3434,599.6398,l,1,[],[],[],[],[],[],[],0.6172,1,599.6398,600.14,,,,,,977,MAS,AGR,150,pico,el,l,0.6172,,600.14,600.1402,-0.476848958,-0.057052951,0,0,0,,0,133,133,76,1,,,,
,,,,,,5105255cbf9f9aef01b09698,66a626ef09d4e21e1a8894ec,6734f03edc1090495fb7b9ed,2024-11-13_11h30.51.305,Tarea de género gramatical,2024.2.2,MacIntel,57.47126437,,,,,,,,,,,,,,,,,,,,,,,600.1415,601.3065,l,1,[],[],[],[],[],[],[],0.4841,1,601.3066,601.8067,,,,,,988,MAS,DIS,150,pavo,la,l,0.4841,,601.8067,601.8067,-0.476848958,-0.057052951,0,0,0,,0,134,134,87,1,,,,
,,,,,,5105255cbf9f9aef01b09698,66a626ef09d4e21e1a8894ec,6734f03edc1090495fb7b9ed,2024-11-13_11h30.51.305,Tarea de género gramatical,2024.2.2,MacIntel,57.47126437,,,,,,,,,,,,,,,,,,,,,,,601.8078,603.1066,a,1,[],[],[],[],[],[],[],0.6175,1,603.1068,603.6066,,,,,,961,FEM,DIS,150,ruta,el,a,0.6175,,603.6068,603.6069,-0.476848958,-0.057052951,0,0,0,,0,135,135,60,1,,,,
,,,,,,5105255cbf9f9aef01b09698,66a626ef09d4e21e1a8894ec,6734f03edc1090495fb7b9ed,2024-11-13_11h30.51.305,Tarea de género gramatical,2024.2.2,MacIntel,57.47126437,,,,,,,,,,,,,,,,,,,,,,,603.6083,604.8066,a,1,[],[],[],[],[],[],[],0.5171,1,604.8067,605.3066,,,,,,1226,FEM,AGR,150,música,la,a,0.5171,,605.3067,605.307,-0.476848958,-0.057052951,0,0,0,,0,136,136,325,1,,,,
,,,,,,5105255cbf9f9aef01b09698,66a626ef09d4e21e1a8894ec,6734f03edc1090495fb7b9ed,2024-11-13_11h30.51.305,Tarea de género gramatical,2024.2.2,MacIntel,57.47126437,,,,,,,,,,,,,,,,,,,,,,,605.308,606.5067,l,1,[],[],[],[],[],[],[],0.5173,1,606.5068,607.0069,,,,,,1080,MAS,CON,150,fuego,,l,0.5173,,607.0086,607.0099,-0.476848958,-0.057052951,0,0,0,,0,137,137,179,1,,,,
,,,,,,5105255cbf9f9aef01b09698,66a626ef09d4e21e1a8894ec,6734f03edc1090495fb7b9ed,2024-11-13_11h30.51.305,Tarea de género gramatical,2024.2.2,MacIntel,57.47126437,,,,,,,,,,,,,,,,,,,,,,,607.0108,608.2068,l,0,[],[],[],[],[],[],[],0.5173,0,608.2077,608.7068,,,,,,931,FEM,DIS,150,edad,el,a,0.5173,,608.7069,608.707,-0.476848958,-0.057052951,0,0,0,,0,138,138,30,1,,,,
,,,,,,5105255cbf9f9aef01b09698,66a626ef09d4e21e1a8894ec,6734f03edc1090495fb7b9ed,2024-11-13_11h30.51.305,Tarea de género gramatical,2024.2.2,MacIntel,57.47126437,,,,,,,,,,,,,,,,,,,,,,,608.7081,609.9568,a,1,[],[],[],[],[],[],[],0.5763,1,609.9576,610.457,,,,,,1027,FEM,DIS,150,cuna,el,a,0.5763,,610.457,610.4571,-0.476848958,-0.057052951,0,0,0,,0,139,139,126,1,,,,
,,,,,,5105255cbf9f9aef01b09698,66a626ef09d4e21e1a8894ec,6734f03edc1090495fb7b9ed,2024-11-13_11h30.51.305,Tarea de género gramatical,2024.2.2,MacIntel,57.47126437,,,,,,,,,,,,,,,,,,,,,,,610.4582,611.8903,l,1,[],[],[],[],[],[],[],0.7506,1,611.8904,612.3894,,,,,,1050,MAS,CON,150,mozo,,l,0.7506,,612.3894,612.3896,-0.476848958,-0.057052951,0,0,0,,0,140,140,149,1,,,,
,,,,,,5105255cbf9f9aef01b09698,66a626ef09d4e21e1a8894ec,6734f03edc1090495fb7b9ed,2024-11-13_11h30.51.305,Tarea de género gramatical,2024.2.2,MacIntel,57.47126437,,,,,,,,,,,,,,,,,,,,,,,612.3906,613.5238,l,1,[],[],[],[],[],[],[],0.4681,1,613.5239,614.0233,,,,,,1002,MAS,CON,150,coro,,l,0.4681,,614.025,614.0261,-0.476848958,-0.057052951,0,0,0,,0,141,141,101,1,,,,
,,,,,,5105255cbf9f9aef01b09698,66a626ef09d4e21e1a8894ec,6734f03edc1090495fb7b9ed,2024-11-13_11h30.51.305,Tarea de género gramatical,2024.2.2,MacIntel,57.47126437,,,,,,,,,,,,,,,,,,,,,,,614.0269,615.3404,a,1,[],[],[],[],[],[],[],0.6341,1,615.3405,615.8403,,,,,,1112,FEM,AGR,150,cinta,la,a,0.6341,,615.8403,615.8405,-0.476848958,-0.057052951,0,0,0,,0,142,142,211,1,,,,
,,,,,,5105255cbf9f9aef01b09698,66a626ef09d4e21e1a8894ec,6734f03edc1090495fb7b9ed,2024-11-13_11h30.51.305,Tarea de género gramatical,2024.2.2,MacIntel,57.47126437,,,,,,,,,,,,,,,,,,,,,,,615.8415,617.0571,a,0,[],[],[],[],[],[],[],0.5336,0,617.058,617.5574,,,,,,1204,MAS,DIS,150,tiempo,la,l,0.5336,,617.5574,617.5575,-0.476848958,-0.057052951,0,0,0,,0,143,143,303,1,,,,
,,,,,,5105255cbf9f9aef01b09698,66a626ef09d4e21e1a8894ec,6734f03edc1090495fb7b9ed,2024-11-13_11h30.51.305,Tarea de género gramatical,2024.2.2,MacIntel,57.47126437,,,,,,,,,,,,,,,,,,,,,,,617.559,619.6239,a,1,[],[],[],[],[],[],[],1.384,1,619.6247,620.1241,,,,,,1191,FEM,CON,150,aguja,,a,1.384,,620.1241,620.1242,-0.476848958,-0.057052951,0,0,0,,0,144,144,290,1,,,,
,,,,,,5105255cbf9f9aef01b09698,66a626ef09d4e21e1a8894ec,6734f03edc1090495fb7b9ed,2024-11-13_11h30.51.305,Tarea de género gramatical,2024.2.2,MacIntel,57.47126437,,,,,,,,,,,,,,,,,,,,,,,620.1255,621.2739,l,0,[],[],[],[],[],[],[],0.4663,0,621.2748,621.7732,,,,,,1347,FEM,CON,150,lógica,,a,0.4663,,621.7733,621.7735,-0.476848958,-0.057052951,0,0,0,,0,145,145,446,1,,,,
,,,,,,5105255cbf9f9aef01b09698,66a626ef09d4e21e1a8894ec,6734f03edc1090495fb7b9ed,2024-11-13_11h30.51.305,Tarea de género gramatical,2024.2.2,MacIntel,57.47126437,,,,,,,,,,,,,,,,,,,,,,,621.775,622.974,a,1,[],[],[],[],[],[],[],0.5172,1,622.9748,623.474,,,,,,1293,FEM,CON,150,alarma,,a,0.5172,,623.4752,623.4762,-0.476848958,-0.057052951,0,0,0,,0,146,146,392,1,,,,
,,,,,,5105255cbf9f9aef01b09698,66a626ef09d4e21e1a8894ec,6734f03edc1090495fb7b9ed,2024-11-13_11h30.51.305,Tarea de género gramatical,2024.2.2,MacIntel,57.47126437,,,,,,,,,,,,,,,,,,,,,,,623.477,624.6907,l,1,[],[],[],[],[],[],[],0.534,1,624.6909,625.1907,,,,,,911,MAS,AGR,150,país,el,l,0.534,,625.1907,625.1908,-0.476848958,-0.057052951,0,0,0,,0,147,147,10,1,,,,
,,,,,,5105255cbf9f9aef01b09698,66a626ef09d4e21e1a8894ec,6734f03edc1090495fb7b9ed,2024-11-13_11h30.51.305,Tarea de género gramatical,2024.2.2,MacIntel,57.47126437,,,,,,,,,,,,,,,,,,,,,,,625.1918,626.4407,a,1,[],[],[],[],[],[],[],0.5668,1,626.4408,626.9408,,,,,,1221,FEM,CON,150,comida,,a,0.5668,,626.9409,626.9413,-0.476848958,-0.057052951,0,0,0,,0,148,148,320,1,,,,
,,,,,,5105255cbf9f9aef01b09698,66a626ef09d4e21e1a8894ec,6734f03edc1090495fb7b9ed,2024-11-13_11h30.51.305,Tarea de género gramatical,2024.2.2,MacIntel,57.47126437,,,,,,,,,,,,,,,,,,,,,,,626.9425,628.2741,a,1,[],[],[],[],[],[],[],0.6505,1,628.2743,628.7742,,,,,,974,FEM,AGR,150,flor,la,a,0.6505,,628.7743,628.7744,-0.476848958,-0.057052951,0,0,0,,0,149,149,73,1,,,,
,,,,,,5105255cbf9f9aef01b09698,66a626ef09d4e21e1a8894ec,6734f03edc1090495fb7b9ed,2024-11-13_11h30.51.305,Tarea de género gramatical,2024.2.2,MacIntel,57.47126437,,,,,,,,,,,,,,,,,,,,,,,628.7757,630.1244,l,1,[],[],[],[],[],[],[],0.6781,1,630.1247,630.6245,,,,,,1218,MAS,CON,150,pueblo,,l,0.6781,,630.626,647.8248,-0.476848958,-0.057052951,0,0,0,space,0,150,150,317,1,17.1711,,,
,,,,,,5105255cbf9f9aef01b09698,66a626ef09d4e21e1a8894ec,6734f03edc1090495fb7b9ed,2024-11-13_11h30.51.305,Tarea de género gramatical,2024.2.2,MacIntel,57.47126437,,,,,,,,,,,,,,,,,,,,,,,647.8258,649.3407,a,0,[],[],[],[],[],[],[],0.8342,0,649.3416,649.8417,,,,,,928,MAS,DIS,150,club,la,l,0.8342,,649.8418,649.842,-0.476848958,-0.057052951,0,0,0,,0,151,151,27,1,,,,
,,,,,,5105255cbf9f9aef01b09698,66a626ef09d4e21e1a8894ec,6734f03edc1090495fb7b9ed,2024-11-13_11h30.51.305,Tarea de género gramatical,2024.2.2,MacIntel,57.47126437,,,,,,,,,,,,,,,,,,,,,,,649.8432,651.1583,a,1,[],[],[],[],[],[],[],0.634,1,651.1593,651.6583,,,,,,1299,FEM,CON,150,charla,,a,0.634,,651.6584,651.6585,-0.476848958,-0.057052951,0,0,0,,0,152,152,398,1,,,,
,,,,,,5105255cbf9f9aef01b09698,66a626ef09d4e21e1a8894ec,6734f03edc1090495fb7b9ed,2024-11-13_11h30.51.305,Tarea de género gramatical,2024.2.2,MacIntel,57.47126437,,,,,,,,,,,,,,,,,,,,,,,651.6595,652.8417,l,1,[],[],[],[],[],[],[],0.5003,1,652.8419,653.3418,,,,,,917,MAS,AGR,150,modo,el,l,0.5003,,653.3418,653.342,-0.476848958,-0.057052951,0,0,0,,0,153,153,16,1,,,,
,,,,,,5105255cbf9f9aef01b09698,66a626ef09d4e21e1a8894ec,6734f03edc1090495fb7b9ed,2024-11-13_11h30.51.305,Tarea de género gramatical,2024.2.2,MacIntel,57.47126437,,,,,,,,,,,,,,,,,,,,,,,653.3433,654.7248,a,1,[],[],[],[],[],[],[],0.7103,1,654.7249,655.2251,,,,,,1213,FEM,DIS,150,ciudad,el,a,0.7103,,655.2252,655.2252,-0.476848958,-0.057052951,0,0,0,,0,154,154,312,1,,,,
,,,,,,5105255cbf9f9aef01b09698,66a626ef09d4e21e1a8894ec,6734f03edc1090495fb7b9ed,2024-11-13_11h30.51.305,Tarea de género gramatical,2024.2.2,MacIntel,57.47126437,,,,,,,,,,,,,,,,,,,,,,,655.2269,656.4584,l,1,[],[],[],[],[],[],[],0.5499,1,656.4585,656.9585,,,,,,1019,MAS,AGR,150,mito,el,l,0.5499,,656.9598,656.9608,-0.476848958,-0.057052951,0,0,0,,0,155,155,118,1,,,,
,,,,,,5105255cbf9f9aef01b09698,66a626ef09d4e21e1a8894ec,6734f03edc1090495fb7b9ed,2024-11-13_11h30.51.305,Tarea de género gramatical,2024.2.2,MacIntel,57.47126437,,,,,,,,,,,,,,,,,,,,,,,656.9616,658.1584,a,1,[],[],[],[],[],[],[],0.5277,1,658.1587,658.6585,,,,,,1017,FEM,CON,150,raya,,a,0.5277,,658.6588,658.6588,-0.476848958,-0.057052951,0,0,0,,0,156,156,116,1,,,,
,,,,,,5105255cbf9f9aef01b09698,66a626ef09d4e21e1a8894ec,6734f03edc1090495fb7b9ed,2024-11-13_11h30.51.305,Tarea de género gramatical,2024.2.2,MacIntel,57.47126437,,,,,,,,,,,,,,,,,,,,,,,658.6599,659.8408,l,1,[],[],[],[],[],[],[],0.5007,1,659.8409,660.3418,,,,,,1282,MAS,DIS,150,teatro,la,l,0.5007,,660.342,660.342,-0.476848958,-0.057052951,0,0,0,,0,157,157,381,1,,,,
,,,,,,5105255cbf9f9aef01b09698,66a626ef09d4e21e1a8894ec,6734f03edc1090495fb7b9ed,2024-11-13_11h30.51.305,Tarea de género gramatical,2024.2.2,MacIntel,57.47126437,,,,,,,,,,,,,,,,,,,,,,,660.3432,661.4753,l,1,[],[],[],[],[],[],[],0.4529,1,661.4755,661.9743,,,,,,1264,MAS,DIS,150,viento,la,l,0.4529,,661.9744,661.9745,-0.476848958,-0.057052951,0,0,0,,0,158,158,363,1,,,,
,,,,,,5105255cbf9f9aef01b09698,66a626ef09d4e21e1a8894ec,6734f03edc1090495fb7b9ed,2024-11-13_11h30.51.305,Tarea de género gramatical,2024.2.2,MacIntel,57.47126437,,,,,,,,,,,,,,,,,,,,,,,661.9754,663.092,a,1,[],[],[],[],[],[],[],0.4333,1,663.0921,663.5916,,,,,,1009,FEM,DIS,150,gota,el,a,0.4333,,663.5926,663.5933,-0.476848958,-0.057052951,0,0,0,,0,159,159,108,1,,,,
,,,,,,5105255cbf9f9aef01b09698,66a626ef09d4e21e1a8894ec,6734f03edc1090495fb7b9ed,2024-11-13_11h30.51.305,Tarea de género gramatical,2024.2.2,MacIntel,57.47126437,,,,,,,,,,,,,,,,,,,,,,,663.5939,664.991,a,1,[],[],[],[],[],[],[],0.718,1,664.9912,665.4921,,,,,,1052,FEM,AGR,150,gente,la,a,0.718,,665.4921,665.4923,-0.476848958,-0.057052951,0,0,0,,0,160,160,151,1,,,,
,,,,,,5105255cbf9f9aef01b09698,66a626ef09d4e21e1a8894ec,6734f03edc1090495fb7b9ed,2024-11-13_11h30.51.305,Tarea de género gramatical,2024.2.2,MacIntel,57.47126437,,,,,,,,,,,,,,,,,,,,,,,665.4934,666.6587,l,1,[],[],[],[],[],[],[],0.493,1,666.6589,667.1583,,,,,,1258,MAS,DIS,150,motivo,la,l,0.493,,667.1584,667.1585,-0.476848958,-0.057052951,0,0,0,,0,161,161,357,1,,,,
,,,,,,5105255cbf9f9aef01b09698,66a626ef09d4e21e1a8894ec,6734f03edc1090495fb7b9ed,2024-11-13_11h30.51.305,Tarea de género gramatical,2024.2.2,MacIntel,57.47126437,,,,,,,,,,,,,,,,,,,,,,,667.1596,668.3915,a,1,[],[],[],[],[],[],[],0.5606,1,668.3916,668.8923,,,,,,1281,FEM,CON,150,bebida,,a,0.5606,,668.8924,668.8926,-0.476848958,-0.057052951,0,0,0,,0,162,162,380,1,,,,
,,,,,,5105255cbf9f9aef01b09698,66a626ef09d4e21e1a8894ec,6734f03edc1090495fb7b9ed,2024-11-13_11h30.51.305,Tarea de género gramatical,2024.2.2,MacIntel,57.47126437,,,,,,,,,,,,,,,,,,,,,,,668.894,670.0248,l,1,[],[],[],[],[],[],[],0.4518,1,670.0249,670.5256,,,,,,1206,MAS,CON,150,dinero,,l,0.4518,,670.5257,670.5258,-0.476848958,-0.057052951,0,0,0,,0,163,163,305,1,,,,
,,,,,,5105255cbf9f9aef01b09698,66a626ef09d4e21e1a8894ec,6734f03edc1090495fb7b9ed,2024-11-13_11h30.51.305,Tarea de género gramatical,2024.2.2,MacIntel,57.47126437,,,,,,,,,,,,,,,,,,,,,,,670.5272,671.7423,a,1,[],[],[],[],[],[],[],0.534,1,671.7424,672.2412,,,,,,1039,FEM,DIS,150,pipa,el,a,0.534,,672.2423,672.2431,-0.476848958,-0.057052951,0,0,0,,0,164,164,138,1,,,,
,,,,,,5105255cbf9f9aef01b09698,66a626ef09d4e21e1a8894ec,6734f03edc1090495fb7b9ed,2024-11-13_11h30.51.305,Tarea de género gramatical,2024.2.2,MacIntel,57.47126437,,,,,,,,,,,,,,,,,,,,,,,672.2437,673.5415,a,1,[],[],[],[],[],[],[],0.618,1,673.5417,674.0423,,,,,,1160,FEM,AGR,150,barra,la,a,0.618,,674.0424,674.0425,-0.476848958,-0.057052951,0,0,0,,0,165,165,259,1,,,,
,,,,,,5105255cbf9f9aef01b09698,66a626ef09d4e21e1a8894ec,6734f03edc1090495fb7b9ed,2024-11-13_11h30.51.305,Tarea de género gramatical,2024.2.2,MacIntel,57.47126437,,,,,,,,,,,,,,,,,,,,,,,674.0438,675.3248,a,1,[],[],[],[],[],[],[],0.6015,1,675.325,675.8258,,,,,,1082,FEM,AGR,150,prisa,la,a,0.6015,,675.8258,675.826,-0.476848958,-0.057052951,0,0,0,,0,166,166,181,1,,,,
,,,,,,5105255cbf9f9aef01b09698,66a626ef09d4e21e1a8894ec,6734f03edc1090495fb7b9ed,2024-11-13_11h30.51.305,Tarea de género gramatical,2024.2.2,MacIntel,57.47126437,,,,,,,,,,,,,,,,,,,,,,,675.8273,677.0423,l,1,[],[],[],[],[],[],[],0.5352,1,677.0424,677.5415,,,,,,1253,MAS,AGR,150,verano,el,l,0.5352,,677.5416,677.5416,-0.476848958,-0.057052951,0,0,0,,0,167,167,352,1,,,,
,,,,,,5105255cbf9f9aef01b09698,66a626ef09d4e21e1a8894ec,6734f03edc1090495fb7b9ed,2024-11-13_11h30.51.305,Tarea de género gramatical,2024.2.2,MacIntel,57.47126437,,,,,,,,,,,,,,,,,,,,,,,677.5429,678.7425,a,1,[],[],[],[],[],[],[],0.5364,1,678.7427,679.2425,,,,,,1033,FEM,DIS,150,joya,el,a,0.5364,,679.2436,679.2442,-0.476848958,-0.057052951,0,0,0,,0,168,168,132,1,,,,
,,,,,,5105255cbf9f9aef01b09698,66a626ef09d4e21e1a8894ec,6734f03edc1090495fb7b9ed,2024-11-13_11h30.51.305,Tarea de género gramatical,2024.2.2,MacIntel,57.47126437,,,,,,,,,,,,,,,,,,,,,,,679.245,680.4749,a,1,[],[],[],[],[],[],[],0.5535,1,680.4749,680.9749,,,,,,1220,FEM,AGR,150,fiesta,la,a,0.5535,,680.9751,680.9752,-0.476848958,-0.057052951,0,0,0,,0,169,169,319,1,,,,
,,,,,,5105255cbf9f9aef01b09698,66a626ef09d4e21e1a8894ec,6734f03edc1090495fb7b9ed,2024-11-13_11h30.51.305,Tarea de género gramatical,2024.2.2,MacIntel,57.47126437,,,,,,,,,,,,,,,,,,,,,,,680.9764,682.1594,l,1,[],[],[],[],[],[],[],0.5102,1,682.1596,682.6583,,,,,,996,MAS,CON,150,pato,,l,0.5102,,682.6584,682.6584,-0.476848958,-0.057052951,0,0,0,,0,170,170,95,1,,,,
,,,,,,5105255cbf9f9aef01b09698,66a626ef09d4e21e1a8894ec,6734f03edc1090495fb7b9ed,2024-11-13_11h30.51.305,Tarea de género gramatical,2024.2.2,MacIntel,57.47126437,,,,,,,,,,,,,,,,,,,,,,,682.6593,683.7596,a,1,[],[],[],[],[],[],[],0.4349,1,683.7597,684.2585,,,,,,993,FEM,CON,150,lata,,a,0.4349,,684.2586,684.2587,-0.476848958,-0.057052951,0,0,0,,0,171,171,92,1,,,,
,,,,,,5105255cbf9f9aef01b09698,66a626ef09d4e21e1a8894ec,6734f03edc1090495fb7b9ed,2024-11-13_11h30.51.305,Tarea de género gramatical,2024.2.2,MacIntel,57.47126437,,,,,,,,,,,,,,,,,,,,,,,684.2599,685.3429,l,1,[],[],[],[],[],[],[],0.4032,1,685.343,685.8429,,,,,,970,MAS,DIS,150,palo,la,l,0.4032,,685.843,685.8431,-0.476848958,-0.057052951,0,0,0,,0,172,172,69,1,,,,
,,,,,,5105255cbf9f9aef01b09698,66a626ef09d4e21e1a8894ec,6734f03edc1090495fb7b9ed,2024-11-13_11h30.51.305,Tarea de género gramatical,2024.2.2,MacIntel,57.47126437,,,,,,,,,,,,,,,,,,,,,,,685.8446,686.9428,l,0,[],[],[],[],[],[],[],0.4172,0,686.9438,687.4419,,,,,,951,FEM,CON,150,bala,,a,0.4172,,687.4431,687.4439,-0.476848958,-0.057052951,0,0,0,,0,173,173,50,1,,,,
,,,,,,5105255cbf9f9aef01b09698,66a626ef09d4e21e1a8894ec,6734f03edc1090495fb7b9ed,2024-11-13_11h30.51.305,Tarea de género gramatical,2024.2.2,MacIntel,57.47126437,,,,,,,,,,,,,,,,,,,,,,,687.4446,688.7262,l,1,[],[],[],[],[],[],[],0.6022,1,688.7271,689.2259,,,,,,1277,MAS,AGR,150,jardín,el,l,0.6022,,689.2259,689.226,-0.476848958,-0.057052951,0,0,0,,0,174,174,376,1,,,,
,,,,,,5105255cbf9f9aef01b09698,66a626ef09d4e21e1a8894ec,6734f03edc1090495fb7b9ed,2024-11-13_11h30.51.305,Tarea de género gramatical,2024.2.2,MacIntel,57.47126437,,,,,,,,,,,,,,,,,,,,,,,689.2266,690.5086,l,1,[],[],[],[],[],[],[],0.6005,1,690.5088,691.0098,,,,,,1109,MAS,AGR,150,banco,el,l,0.6005,,691.0098,691.01,-0.476848958,-0.057052951,0,0,0,,0,175,175,208,1,,,,
,,,,,,5105255cbf9f9aef01b09698,66a626ef09d4e21e1a8894ec,6734f03edc1090495fb7b9ed,2024-11-13_11h30.51.305,Tarea de género gramatical,2024.2.2,MacIntel,57.47126437,,,,,,,,,,,,,,,,,,,,,,,691.0111,692.2085,l,1,[],[],[],[],[],[],[],0.5148,1,692.2085,692.7087,,,,,,1079,MAS,AGR,150,viaje,el,l,0.5148,,692.7088,692.7089,-0.476848958,-0.057052951,0,0,0,,0,176,176,178,1,,,,
,,,,,,5105255cbf9f9aef01b09698,66a626ef09d4e21e1a8894ec,6734f03edc1090495fb7b9ed,2024-11-13_11h30.51.305,Tarea de género gramatical,2024.2.2,MacIntel,57.47126437,,,,,,,,,,,,,,,,,,,,,,,692.7101,694.0587,a,1,[],[],[],[],[],[],[],0.6841,1,694.0589,694.5598,,,,,,1297,FEM,DIS,150,cuerda,el,a,0.6841,,694.561,694.5619,-0.476848958,-0.057052951,0,0,0,,0,177,177,396,1,,,,
,,,,,,5105255cbf9f9aef01b09698,66a626ef09d4e21e1a8894ec,6734f03edc1090495fb7b9ed,2024-11-13_11h30.51.305,Tarea de género gramatical,2024.2.2,MacIntel,57.47126437,,,,,,,,,,,,,,,,,,,,,,,694.5625,696.2422,l,1,[],[],[],[],[],[],[],1.0051,1,696.2423,696.7421,,,,,,1212,MAS,CON,150,equipo,,l,1.0051,,696.7422,696.7423,-0.476848958,-0.057052951,0,0,0,,0,178,178,311,1,,,,
,,,,,,5105255cbf9f9aef01b09698,66a626ef09d4e21e1a8894ec,6734f03edc1090495fb7b9ed,2024-11-13_11h30.51.305,Tarea de género gramatical,2024.2.2,MacIntel,57.47126437,,,,,,,,,,,,,,,,,,,,,,,696.7435,697.9099,a,1,[],[],[],[],[],[],[],0.5008,1,697.9101,698.4099,,,,,,1202,FEM,AGR,150,cabeza,la,a,0.5008,,698.41,698.4101,-0.476848958,-0.057052951,0,0,0,,0,179,179,301,1,,,,
,,,,,,5105255cbf9f9aef01b09698,66a626ef09d4e21e1a8894ec,6734f03edc1090495fb7b9ed,2024-11-13_11h30.51.305,Tarea de género gramatical,2024.2.2,MacIntel,57.47126437,,,,,,,,,,,,,,,,,,,,,,,698.4111,699.5765,a,1,[],[],[],[],[],[],[],0.487,1,699.5767,700.0767,,,,,,1178,FEM,AGR,150,presa,la,a,0.487,,700.0767,700.0768,-0.476848958,-0.057052951,0,0,0,,0,180,180,277,1,,,,
,,,,,,5105255cbf9f9aef01b09698,66a626ef09d4e21e1a8894ec,6734f03edc1090495fb7b9ed,2024-11-13_11h30.51.305,Tarea de género gramatical,2024.2.2,MacIntel,57.47126437,,,,,,,,,,,,,,,,,,,,,,,700.0779,701.2264,l,1,[],[],[],[],[],[],[],0.47,1,701.2265,701.7257,,,,,,947,MAS,AGR,150,olor,el,l,0.47,,701.7257,701.7258,-0.476848958,-0.057052951,0,0,0,,0,181,181,46,1,,,,
,,,,,,5105255cbf9f9aef01b09698,66a626ef09d4e21e1a8894ec,6734f03edc1090495fb7b9ed,2024-11-13_11h30.51.305,Tarea de género gramatical,2024.2.2,MacIntel,57.47126437,,,,,,,,,,,,,,,,,,,,,,,701.7271,703.109,a,0,[],[],[],[],[],[],[],0.7007,0,703.1099,703.61,,,,,,1325,MAS,AGR,150,chiste,el,l,0.7007,,703.6113,703.6122,-0.476848958,-0.057052951,0,0,0,,0,182,182,424,1,,,,
,,,,,,5105255cbf9f9aef01b09698,66a626ef09d4e21e1a8894ec,6734f03edc1090495fb7b9ed,2024-11-13_11h30.51.305,Tarea de género gramatical,2024.2.2,MacIntel,57.47126437,,,,,,,,,,,,,,,,,,,,,,,703.613,704.8935,l,1,[],[],[],[],[],[],[],0.6028,1,704.8944,705.3924,,,,,,1132,MAS,DIS,150,calor,la,l,0.6028,,705.3926,705.3927,-0.476848958,-0.057052951,0,0,0,,0,183,183,231,1,,,,
,,,,,,5105255cbf9f9aef01b09698,66a626ef09d4e21e1a8894ec,6734f03edc1090495fb7b9ed,2024-11-13_11h30.51.305,Tarea de género gramatical,2024.2.2,MacIntel,57.47126437,,,,,,,,,,,,,,,,,,,,,,,705.3938,706.5935,l,1,[],[],[],[],[],[],[],0.5345,1,706.5936,707.0935,,,,,,1116,MAS,CON,150,éxito,,l,0.5345,,707.0935,707.0938,-0.476848958,-0.057052951,0,0,0,,0,184,184,215,1,,,,
,,,,,,5105255cbf9f9aef01b09698,66a626ef09d4e21e1a8894ec,6734f03edc1090495fb7b9ed,2024-11-13_11h30.51.305,Tarea de género gramatical,2024.2.2,MacIntel,57.47126437,,,,,,,,,,,,,,,,,,,,,,,707.0948,708.3768,l,1,[],[],[],[],[],[],[],0.6109,1,708.3769,708.8772,,,,,,1211,MAS,AGR,150,camino,el,l,0.6109,,708.8772,708.8774,-0.476848958,-0.057052951,0,0,0,,0,185,185,310,1,,,,
,,,,,,5105255cbf9f9aef01b09698,66a626ef09d4e21e1a8894ec,6734f03edc1090495fb7b9ed,2024-11-13_11h30.51.305,Tarea de género gramatical,2024.2.2,MacIntel,57.47126437,,,,,,,,,,,,,,,,,,,,,,,708.8788,710.0268,l,1,[],[],[],[],[],[],[],0.4705,1,710.027,710.527,,,,,,1181,MAS,AGR,150,actor,el,l,0.4705,,710.528,710.5287,-0.476848958,-0.057052951,0,0,0,,0,186,186,280,1,,,,
,,,,,,5105255cbf9f9aef01b09698,66a626ef09d4e21e1a8894ec,6734f03edc1090495fb7b9ed,2024-11-13_11h30.51.305,Tarea de género gramatical,2024.2.2,MacIntel,57.47126437,,,,,,,,,,,,,,,,,,,,,,,710.5293,711.8261,l,1,[],[],[],[],[],[],[],0.6204,1,711.8262,712.326,,,,,,1266,MAS,CON,150,riesgo,,l,0.6204,,712.3261,712.3261,-0.476848958,-0.054917535,0,0,0,,0,187,187,365,1,,,,
,,,,,,5105255cbf9f9aef01b09698,66a626ef09d4e21e1a8894ec,6734f03edc1090495fb7b9ed,2024-11-13_11h30.51.305,Tarea de género gramatical,2024.2.2,MacIntel,57.47126437,,,,,,,,,,,,,,,,,,,,,,,712.327,713.4938,a,1,[],[],[],[],[],[],[],0.4939,1,713.4938,713.9937,,,,,,932,FEM,AGR,150,caja,la,a,0.4939,,713.9938,713.9939,-0.476848958,-0.054917535,0,0,0,,0,188,188,31,1,,,,
,,,,,,5105255cbf9f9aef01b09698,66a626ef09d4e21e1a8894ec,6734f03edc1090495fb7b9ed,2024-11-13_11h30.51.305,Tarea de género gramatical,2024.2.2,MacIntel,57.47126437,,,,,,,,,,,,,,,,,,,,,,,713.995,715.2426,l,1,[],[],[],[],[],[],[],0.5669,1,715.2428,715.7438,,,,,,1210,MAS,DIS,150,nombre,la,l,0.5669,,715.7439,715.744,-0.476848958,-0.054917535,0,0,0,,0,189,189,309,1,,,,
,,,,,,5105255cbf9f9aef01b09698,66a626ef09d4e21e1a8894ec,6734f03edc1090495fb7b9ed,2024-11-13_11h30.51.305,Tarea de género gramatical,2024.2.2,MacIntel,57.47126437,,,,,,,,,,,,,,,,,,,,,,,715.7451,717.2439,a,1,[],[],[],[],[],[],[],0.8168,1,717.244,717.7439,,,,,,1340,FEM,AGR,150,patada,la,a,0.8168,,717.744,717.7442,-0.476848958,-0.053133681,0,0,0,,0,190,190,439,1,,,,
,,,,,,5105255cbf9f9aef01b09698,66a626ef09d4e21e1a8894ec,6734f03edc1090495fb7b9ed,2024-11-13_11h30.51.305,Tarea de género gramatical,2024.2.2,MacIntel,57.47126437,,,,,,,,,,,,,,,,,,,,,,,717.7452,718.894,l,1,[],[],[],[],[],[],[],0.4668,1,718.8941,719.3929,,,,,,1074,MAS,CON,150,perro,,l,0.4668,,719.3944,719.3953,-0.476848958,-0.053133681,0,0,0,,0,191,191,173,1,,,,
,,,,,,5105255cbf9f9aef01b09698,66a626ef09d4e21e1a8894ec,6734f03edc1090495fb7b9ed,2024-11-13_11h30.51.305,Tarea de género gramatical,2024.2.2,MacIntel,57.47126437,,,,,,,,,,,,,,,,,,,,,,,719.3962,720.5773,a,1,[],[],[],[],[],[],[],0.501,1,720.5773,721.0773,,,,,,1321,FEM,DIS,150,novela,el,a,0.501,,721.0773,721.0774,-0.476848958,-0.053133681,0,0,0,,0,192,192,420,1,,,,
,,,,,,5105255cbf9f9aef01b09698,66a626ef09d4e21e1a8894ec,6734f03edc1090495fb7b9ed,2024-11-13_11h30.51.305,Tarea de género gramatical,2024.2.2,MacIntel,57.47126437,,,,,,,,,,,,,,,,,,,,,,,721.0782,722.2441,l,1,[],[],[],[],[],[],[],0.4888,1,722.2442,722.7431,,,,,,1146,MAS,CON,150,humor,,l,0.4888,,722.7432,722.7433,-0.476848958,-0.053133681,0,0,0,,0,193,193,245,1,,,,
,,,,,,5105255cbf9f9aef01b09698,66a626ef09d4e21e1a8894ec,6734f03edc1090495fb7b9ed,2024-11-13_11h30.51.305,Tarea de género gramatical,2024.2.2,MacIntel,57.47126437,,,,,,,,,,,,,,,,,,,,,,,722.7444,723.9774,a,1,[],[],[],[],[],[],[],0.5662,1,723.9775,724.4775,,,,,,1095,FEM,CON,150,pared,,a,0.5662,,724.4775,724.4776,-0.476848958,-0.053133681,0,0,0,,0,194,194,194,1,,,,
,,,,,,5105255cbf9f9aef01b09698,66a626ef09d4e21e1a8894ec,6734f03edc1090495fb7b9ed,2024-11-13_11h30.51.305,Tarea de género gramatical,2024.2.2,MacIntel,57.47126437,,,,,,,,,,,,,,,,,,,,,,,724.4794,725.8439,l,1,[],[],[],[],[],[],[],0.6848,1,725.8441,726.3443,,,,,,906,MAS,CON,150,lado,,l,0.6848,,726.3454,726.3465,-0.476848958,-0.053133681,0,0,0,,0,195,195,5,1,,,,
,,,,,,5105255cbf9f9aef01b09698,66a626ef09d4e21e1a8894ec,6734f03edc1090495fb7b9ed,2024-11-13_11h30.51.305,Tarea de género gramatical,2024.2.2,MacIntel,57.47126437,,,,,,,,,,,,,,,,,,,,,,,726.3474,727.6943,l,0,[],[],[],[],[],[],[],0.6682,0,727.6957,728.1943,,,,,,1131,FEM,CON,150,bruja,,a,0.6682,,728.1943,728.1944,-0.476848958,-0.053133681,0,0,0,,0,196,196,230,1,,,,
,,,,,,5105255cbf9f9aef01b09698,66a626ef09d4e21e1a8894ec,6734f03edc1090495fb7b9ed,2024-11-13_11h30.51.305,Tarea de género gramatical,2024.2.2,MacIntel,57.47126437,,,,,,,,,,,,,,,,,,,,,,,728.1955,729.6777,l,1,[],[],[],[],[],[],[],0.8032,1,729.6786,730.1767,,,,,,1344,MAS,CON,150,límite,,l,0.8032,,730.1768,730.1768,-0.476848958,-0.053133681,0,0,0,,0,197,197,443,1,,,,
,,,,,,5105255cbf9f9aef01b09698,66a626ef09d4e21e1a8894ec,6734f03edc1090495fb7b9ed,2024-11-13_11h30.51.305,Tarea de género gramatical,2024.2.2,MacIntel,57.47126437,,,,,,,,,,,,,,,,,,,,,,,730.1778,731.2773,a,1,[],[],[],[],[],[],[],0.4329,1,731.2774,731.7777,,,,,,1029,FEM,CON,150,rana,,a,0.4329,,731.7777,731.7778,-0.476848958,-0.053133681,0,0,0,,0,198,198,128,1,,,,
,,,,,,5105255cbf9f9aef01b09698,66a626ef09d4e21e1a8894ec,6734f03edc1090495fb7b9ed,2024-11-13_11h30.51.305,Tarea de género gramatical,2024.2.2,MacIntel,57.47126437,,,,,,,,,,,,,,,,,,,,,,,731.779,733.1102,l,1,[],[],[],[],[],[],[],0.6503,1,733.1103,733.6102,,,,,,1085,MAS,AGR,150,sueño,el,l,0.6503,,733.6102,733.6103,-0.476848958,-0.053133681,0,0,0,,0,199,199,184,1,,,,
,,,,,,5105255cbf9f9aef01b09698,66a626ef09d4e21e1a8894ec,6734f03edc1090495fb7b9ed,2024-11-13_11h30.51.305,Tarea de género gramatical,2024.2.2,MacIntel,57.47126437,,,,,,,,,,,,,,,,,,,,,,,733.6114,734.9278,a,1,[],[],[],[],[],[],[],0.6501,1,734.9279,735.4278,,,,,,1165,FEM,DIS,150,rueda,el,a,0.6501,,735.4291,735.4301,-0.476848958,-0.053133681,0,0,0,,0,200,200,264,1,,,,
,,,,,,5105255cbf9f9aef01b09698,66a626ef09d4e21e1a8894ec,6734f03edc1090495fb7b9ed,2024-11-13_11h30.51.305,Tarea de género gramatical,2024.2.2,MacIntel,57.47126437,,,,,,,,,,,,,,,,,,,,,,,735.431,736.7611,a,1,[],[],[],[],[],[],[],0.6533,1,736.7613,737.2599,,,,,,1124,FEM,AGR,150,arena,la,a,0.6533,,737.26,737.26,-0.476848958,-0.053133681,0,0,0,,0,201,201,223,1,,,,
,,,,,,5105255cbf9f9aef01b09698,66a626ef09d4e21e1a8894ec,6734f03edc1090495fb7b9ed,2024-11-13_11h30.51.305,Tarea de género gramatical,2024.2.2,MacIntel,57.47126437,,,,,,,,,,,,,,,,,,,,,,,737.2607,738.5604,a,1,[],[],[],[],[],[],[],0.6357,1,738.5606,739.0613,,,,,,1123,FEM,DIS,150,plata,el,a,0.6357,,739.0613,739.0615,-0.476848958,-0.053133681,0,0,0,,0,202,202,222,1,,,,
,,,,,,5105255cbf9f9aef01b09698,66a626ef09d4e21e1a8894ec,6734f03edc1090495fb7b9ed,2024-11-13_11h30.51.305,Tarea de género gramatical,2024.2.2,MacIntel,57.47126437,,,,,,,,,,,,,,,,,,,,,,,739.0625,740.328,a,1,[],[],[],[],[],[],[],0.5824,1,740.3281,740.827,,,,,,1190,FEM,AGR,150,cabra,la,a,0.5824,,740.8271,740.8271,-0.476848958,-0.053133681,0,0,0,,0,203,203,289,1,,,,
,,,,,,5105255cbf9f9aef01b09698,66a626ef09d4e21e1a8894ec,6734f03edc1090495fb7b9ed,2024-11-13_11h30.51.305,Tarea de género gramatical,2024.2.2,MacIntel,57.47126437,,,,,,,,,,,,,,,,,,,,,,,740.8281,742.1278,l,1,[],[],[],[],[],[],[],0.6332,1,742.128,742.6278,,,,,,1318,MAS,DIS,150,pájaro,la,l,0.6332,,742.629,742.6299,-0.476848958,-0.053133681,0,0,0,,0,204,204,417,1,,,,
,,,,,,5105255cbf9f9aef01b09698,66a626ef09d4e21e1a8894ec,6734f03edc1090495fb7b9ed,2024-11-13_11h30.51.305,Tarea de género gramatical,2024.2.2,MacIntel,57.47126437,,,,,,,,,,,,,,,,,,,,,,,742.6306,743.9605,l,1,[],[],[],[],[],[],[],0.6515,1,743.9606,744.4615,,,,,,1169,MAS,AGR,150,primo,el,l,0.6515,,744.4615,744.4616,-0.476848958,-0.053133681,0,0,0,,0,205,205,268,1,,,,
,,,,,,5105255cbf9f9aef01b09698,66a626ef09d4e21e1a8894ec,6734f03edc1090495fb7b9ed,2024-11-13_11h30.51.305,Tarea de género gramatical,2024.2.2,MacIntel,57.47126437,,,,,,,,,,,,,,,,,,,,,,,744.4628,745.6283,a,1,[],[],[],[],[],[],[],0.4834,1,745.6284,746.1283,,,,,,1189,FEM,DIS,150,tabla,el,a,0.4834,,746.1283,746.1284,-0.476848958,-0.053133681,0,0,0,,0,206,206,288,1,,,,
,,,,,,5105255cbf9f9aef01b09698,66a626ef09d4e21e1a8894ec,6734f03edc1090495fb7b9ed,2024-11-13_11h30.51.305,Tarea de género gramatical,2024.2.2,MacIntel,57.47126437,,,,,,,,,,,,,,,,,,,,,,,746.1299,747.2449,a,1,[],[],[],[],[],[],[],0.4343,1,747.245,747.7447,,,,,,1243,FEM,DIS,150,trampa,el,a,0.4343,,747.7449,747.745,-0.476848958,-0.053133681,0,0,0,,0,207,207,342,1,,,,
,,,,,,5105255cbf9f9aef01b09698,66a626ef09d4e21e1a8894ec,6734f03edc1090495fb7b9ed,2024-11-13_11h30.51.305,Tarea de género gramatical,2024.2.2,MacIntel,57.47126437,,,,,,,,,,,,,,,,,,,,,,,747.746,748.8782,a,1,[],[],[],[],[],[],[],0.4539,1,748.8784,749.3774,,,,,,1334,FEM,AGR,150,corona,la,a,0.4539,,749.3776,749.3777,-0.476848958,-0.053133681,0,0,0,,0,208,208,433,1,,,,
,,,,,,5105255cbf9f9aef01b09698,66a626ef09d4e21e1a8894ec,6734f03edc1090495fb7b9ed,2024-11-13_11h30.51.305,Tarea de género gramatical,2024.2.2,MacIntel,57.47126437,,,,,,,,,,,,,,,,,,,,,,,749.3789,750.6948,a,1,[],[],[],[],[],[],[],0.6364,1,750.6948,751.1941,,,,,,1063,FEM,DIS,150,calle,el,a,0.6364,,751.1953,751.1962,-0.476848958,-0.053133681,0,0,0,,0,209,209,162,1,,,,
,,,,,,5105255cbf9f9aef01b09698,66a626ef09d4e21e1a8894ec,6734f03edc1090495fb7b9ed,2024-11-13_11h30.51.305,Tarea de género gramatical,2024.2.2,MacIntel,57.47126437,,,,,,,,,,,,,,,,,,,,,,,751.1971,752.5617,a,0,[],[],[],[],[],[],[],0.6841,0,752.5626,753.0618,,,,,,1324,MAS,DIS,150,rastro,la,l,0.6841,,753.0619,753.062,-0.476848958,-0.053133681,0,0,0,,0,210,210,423,1,,,,
,,,,,,5105255cbf9f9aef01b09698,66a626ef09d4e21e1a8894ec,6734f03edc1090495fb7b9ed,2024-11-13_11h30.51.305,Tarea de género gramatical,2024.2.2,MacIntel,57.47126437,,,,,,,,,,,,,,,,,,,,,,,753.063,754.2619,a,1,[],[],[],[],[],[],[],0.5186,1,754.263,754.7619,,,,,,1064,FEM,AGR,150,novia,la,a,0.5186,,754.762,754.7621,-0.476848958,-0.053133681,0,0,0,,0,211,211,163,1,,,,
,,,,,,5105255cbf9f9aef01b09698,66a626ef09d4e21e1a8894ec,6734f03edc1090495fb7b9ed,2024-11-13_11h30.51.305,Tarea de género gramatical,2024.2.2,MacIntel,57.47126437,,,,,,,,,,,,,,,,,,,,,,,754.7632,755.9619,l,1,[],[],[],[],[],[],[],0.5187,1,755.962,756.4612,,,,,,1289,MAS,AGR,150,tamaño,el,l,0.5187,,756.4613,756.4613,-0.476848958,-0.053133681,0,0,0,,0,212,212,388,1,,,,
,,,,,,5105255cbf9f9aef01b09698,66a626ef09d4e21e1a8894ec,6734f03edc1090495fb7b9ed,2024-11-13_11h30.51.305,Tarea de género gramatical,2024.2.2,MacIntel,57.47126437,,,,,,,,,,,,,,,,,,,,,,,756.4623,757.8948,l,1,[],[],[],[],[],[],[],0.7768,1,757.8949,758.395,,,,,,916,MAS,DIS,150,baño,la,l,0.7768,,758.3962,758.3971,-0.476848958,-0.053133681,0,0,0,,0,213,213,15,1,,,,
,,,,,,5105255cbf9f9aef01b09698,66a626ef09d4e21e1a8894ec,6734f03edc1090495fb7b9ed,2024-11-13_11h30.51.305,Tarea de género gramatical,2024.2.2,MacIntel,57.47126437,,,,,,,,,,,,,,,,,,,,,,,758.3981,759.9788,l,1,[],[],[],[],[],[],[],0.9003,1,759.9789,760.4788,,,,,,1055,MAS,AGR,150,mundo,el,l,0.9003,,760.4789,760.4791,-0.476848958,-0.053133681,0,0,0,,0,214,214,154,1,,,,
,,,,,,5105255cbf9f9aef01b09698,66a626ef09d4e21e1a8894ec,6734f03edc1090495fb7b9ed,2024-11-13_11h30.51.305,Tarea de género gramatical,2024.2.2,MacIntel,57.47126437,,,,,,,,,,,,,,,,,,,,,,,760.4802,761.962,a,1,[],[],[],[],[],[],[],0.8001,1,761.9622,762.462,,,,,,1130,FEM,AGR,150,regla,la,a,0.8001,,762.4623,762.4624,-0.476848958,-0.053133681,0,0,0,,0,215,215,229,1,,,,
,,,,,,5105255cbf9f9aef01b09698,66a626ef09d4e21e1a8894ec,6734f03edc1090495fb7b9ed,2024-11-13_11h30.51.305,Tarea de género gramatical,2024.2.2,MacIntel,57.47126437,,,,,,,,,,,,,,,,,,,,,,,762.4634,763.6112,a,1,[],[],[],[],[],[],[],0.466,1,763.6113,764.1122,,,,,,1328,FEM,AGR,150,jugada,la,a,0.466,,764.1124,764.1124,-0.476848958,-0.053133681,0,0,0,,0,216,216,427,1,,,,
,,,,,,5105255cbf9f9aef01b09698,66a626ef09d4e21e1a8894ec,6734f03edc1090495fb7b9ed,2024-11-13_11h30.51.305,Tarea de género gramatical,2024.2.2,MacIntel,57.47126437,,,,,,,,,,,,,,,,,,,,,,,764.1138,765.4122,l,1,[],[],[],[],[],[],[],0.6157,1,765.4123,765.912,,,,,,1242,MAS,CON,150,abuelo,,l,0.6157,,765.9121,765.9122,-0.476848958,-0.053133681,0,0,0,,0,217,217,341,1,,,,
,,,,,,5105255cbf9f9aef01b09698,66a626ef09d4e21e1a8894ec,6734f03edc1090495fb7b9ed,2024-11-13_11h30.51.305,Tarea de género gramatical,2024.2.2,MacIntel,57.47126437,,,,,,,,,,,,,,,,,,,,,,,765.913,767.0779,l,1,[],[],[],[],[],[],[],0.4825,1,767.078,767.579,,,,,,1337,MAS,AGR,150,hombro,el,l,0.4825,,767.5802,767.5811,-0.476848958,-0.053133681,0,0,0,,0,218,218,436,1,,,,
,,,,,,5105255cbf9f9aef01b09698,66a626ef09d4e21e1a8894ec,6734f03edc1090495fb7b9ed,2024-11-13_11h30.51.305,Tarea de género gramatical,2024.2.2,MacIntel,57.47126437,,,,,,,,,,,,,,,,,,,,,,,767.582,769.2115,l,1,[],[],[],[],[],[],[],0.9499,1,769.2116,769.7124,,,,,,952,MAS,DIS,150,lago,la,l,0.9499,,769.7125,769.7127,-0.476848958,-0.053133681,0,0,0,,0,219,219,51,1,,,,
,,,,,,5105255cbf9f9aef01b09698,66a626ef09d4e21e1a8894ec,6734f03edc1090495fb7b9ed,2024-11-13_11h30.51.305,Tarea de género gramatical,2024.2.2,MacIntel,57.47126437,,,,,,,,,,,,,,,,,,,,,,,769.7136,770.9624,l,1,[],[],[],[],[],[],[],0.5674,1,770.9625,771.4625,,,,,,1320,MAS,CON,150,helado,,l,0.5674,,771.4626,771.4627,-0.476848958,-0.053133681,0,0,0,,0,220,220,419,1,,,,
,,,,,,5105255cbf9f9aef01b09698,66a626ef09d4e21e1a8894ec,6734f03edc1090495fb7b9ed,2024-11-13_11h30.51.305,Tarea de género gramatical,2024.2.2,MacIntel,57.47126437,,,,,,,,,,,,,,,,,,,,,,,771.4637,772.6619,a,1,[],[],[],[],[],[],[],0.5195,1,772.662,773.162,,,,,,1053,FEM,CON,150,mujer,,a,0.5195,,773.162,773.162,-0.476848958,-0.053133681,0,0,0,,0,221,221,152,1,,,,
,,,,,,5105255cbf9f9aef01b09698,66a626ef09d4e21e1a8894ec,6734f03edc1090495fb7b9ed,2024-11-13_11h30.51.305,Tarea de género gramatical,2024.2.2,MacIntel,57.47126437,,,,,,,,,,,,,,,,,,,,,,,773.1625,774.6458,l,1,[],[],[],[],[],[],[],0.8289,1,774.646,775.1459,,,,,,1246,MAS,DIS,150,juicio,la,l,0.8289,,775.1473,775.1483,-0.476848958,-0.053133681,0,0,0,,0,222,222,345,1,,,,
,,,,,,5105255cbf9f9aef01b09698,66a626ef09d4e21e1a8894ec,6734f03edc1090495fb7b9ed,2024-11-13_11h30.51.305,Tarea de género gramatical,2024.2.2,MacIntel,57.47126437,,,,,,,,,,,,,,,,,,,,,,,775.1492,776.3794,l,1,[],[],[],[],[],[],[],0.551,1,776.3796,776.8783,,,,,,1342,MAS,DIS,150,cuadro,la,l,0.551,,776.8784,776.8784,-0.476848958,-0.053133681,0,0,0,,0,223,223,441,1,,,,
,,,,,,5105255cbf9f9aef01b09698,66a626ef09d4e21e1a8894ec,6734f03edc1090495fb7b9ed,2024-11-13_11h30.51.305,Tarea de género gramatical,2024.2.2,MacIntel,57.47126437,,,,,,,,,,,,,,,,,,,,,,,776.8796,778.0293,l,1,[],[],[],[],[],[],[],0.4882,1,778.0294,778.5292,,,,,,1078,MAS,DIS,150,punto,la,l,0.4882,,778.5293,778.5295,-0.476848958,-0.053133681,0,0,0,,0,224,224,177,1,,,,
,,,,,,5105255cbf9f9aef01b09698,66a626ef09d4e21e1a8894ec,6734f03edc1090495fb7b9ed,2024-11-13_11h30.51.305,Tarea de género gramatical,2024.2.2,MacIntel,57.47126437,,,,,,,,,,,,,,,,,,,,,,,778.5309,780.1792,l,1,[],[],[],[],[],[],[],0.9807,1,780.1794,780.6793,,,,,,1043,MAS,AGR,150,faro,el,l,0.9807,,780.6794,780.6794,-0.476848958,-0.053133681,0,0,0,,0,225,225,142,1,,,,
,,,,,,5105255cbf9f9aef01b09698,66a626ef09d4e21e1a8894ec,6734f03edc1090495fb7b9ed,2024-11-13_11h30.51.305,Tarea de género gramatical,2024.2.2,MacIntel,57.47126437,,,,,,,,,,,,,,,,,,,,,,,780.6805,782.1293,l,1,[],[],[],[],[],[],[],0.7664,1,782.1294,782.6295,,,,,,934,MAS,DIS,150,gato,la,l,0.7664,,782.6296,782.6296,-0.476848958,-0.053133681,0,0,0,,0,226,226,33,1,,,,
,,,,,,5105255cbf9f9aef01b09698,66a626ef09d4e21e1a8894ec,6734f03edc1090495fb7b9ed,2024-11-13_11h30.51.305,Tarea de género gramatical,2024.2.2,MacIntel,57.47126437,,,,,,,,,,,,,,,,,,,,,,,782.6307,783.8461,l,1,[],[],[],[],[],[],[],0.5342,1,783.8462,784.346,,,,,,1115,MAS,AGR,150,hueso,el,l,0.5342,,784.3476,784.349,-0.476848958,-0.053133681,0,0,0,,0,227,227,214,1,,,,
,,,,,,5105255cbf9f9aef01b09698,66a626ef09d4e21e1a8894ec,6734f03edc1090495fb7b9ed,2024-11-13_11h30.51.305,Tarea de género gramatical,2024.2.2,MacIntel,57.47126437,,,,,,,,,,,,,,,,,,,,,,,784.3499,785.6129,l,1,[],[],[],[],[],[],[],0.5867,1,785.613,786.112,,,,,,1067,MAS,AGR,150,juego,el,l,0.5867,,786.112,786.1121,-0.476848958,-0.053133681,0,0,0,,0,228,228,166,1,,,,
,,,,,,5105255cbf9f9aef01b09698,66a626ef09d4e21e1a8894ec,6734f03edc1090495fb7b9ed,2024-11-13_11h30.51.305,Tarea de género gramatical,2024.2.2,MacIntel,57.47126437,,,,,,,,,,,,,,,,,,,,,,,786.1134,787.6629,a,1,[],[],[],[],[],[],[],0.8832,1,787.6631,788.1629,,,,,,1173,FEM,CON,150,tarta,,a,0.8832,,788.1631,788.1633,-0.476848958,-0.053133681,0,0,0,,0,229,229,272,1,,,,
,,,,,,5105255cbf9f9aef01b09698,66a626ef09d4e21e1a8894ec,6734f03edc1090495fb7b9ed,2024-11-13_11h30.51.305,Tarea de género gramatical,2024.2.2,MacIntel,57.47126437,,,,,,,,,,,,,,,,,,,,,,,788.1643,789.3298,a,1,[],[],[],[],[],[],[],0.4843,1,789.3299,789.8298,,,,,,980,FEM,AGR,150,vaca,la,a,0.4843,,789.8298,789.83,-0.476848958,-0.053133681,0,0,0,,0,230,230,79,1,,,,
,,,,,,5105255cbf9f9aef01b09698,66a626ef09d4e21e1a8894ec,6734f03edc1090495fb7b9ed,2024-11-13_11h30.51.305,Tarea de género gramatical,2024.2.2,MacIntel,57.47126437,,,,,,,,,,,,,,,,,,,,,,,789.8311,791.029,a,1,[],[],[],[],[],[],[],0.5206,1,791.0291,791.5295,,,,,,1244,FEM,AGR,150,pareja,la,a,0.5206,,791.5308,791.5317,-0.476848958,-0.053133681,0,0,0,,0,231,231,343,1,,,,
,,,,,,5105255cbf9f9aef01b09698,66a626ef09d4e21e1a8894ec,6734f03edc1090495fb7b9ed,2024-11-13_11h30.51.305,Tarea de género gramatical,2024.2.2,MacIntel,57.47126437,,,,,,,,,,,,,,,,,,,,,,,791.5326,792.7298,a,1,[],[],[],[],[],[],[],0.5181,1,792.7299,793.2289,,,,,,1275,FEM,CON,150,cadena,,a,0.5181,,793.229,793.2291,-0.476848958,-0.053133681,0,0,0,,0,232,232,374,1,,,,
,,,,,,5105255cbf9f9aef01b09698,66a626ef09d4e21e1a8894ec,6734f03edc1090495fb7b9ed,2024-11-13_11h30.51.305,Tarea de género gramatical,2024.2.2,MacIntel,57.47126437,,,,,,,,,,,,,,,,,,,,,,,793.2303,794.2799,l,1,[],[],[],[],[],[],[],0.3825,1,794.28,794.7789,,,,,,1092,MAS,CON,150,grupo,,l,0.3825,,794.779,794.7791,-0.476848958,-0.053133681,0,0,0,,0,233,233,191,1,,,,
,,,,,,5105255cbf9f9aef01b09698,66a626ef09d4e21e1a8894ec,6734f03edc1090495fb7b9ed,2024-11-13_11h30.51.305,Tarea de género gramatical,2024.2.2,MacIntel,57.47126437,,,,,,,,,,,,,,,,,,,,,,,794.7804,795.8965,a,1,[],[],[],[],[],[],[],0.4367,1,795.8967,796.3967,,,,,,1329,FEM,CON,150,fianza,,a,0.4367,,796.3968,796.3969,-0.476848958,-0.053133681,0,0,0,,0,234,234,428,1,,,,
,,,,,,5105255cbf9f9aef01b09698,66a626ef09d4e21e1a8894ec,6734f03edc1090495fb7b9ed,2024-11-13_11h30.51.305,Tarea de género gramatical,2024.2.2,MacIntel,57.47126437,,,,,,,,,,,,,,,,,,,,,,,796.398,797.4299,l,0,[],[],[],[],[],[],[],0.3518,0,797.4309,797.93,,,,,,1305,FEM,CON,150,parada,,a,0.3518,,797.93,797.9302,-0.476848958,-0.053133681,0,0,0,,0,235,235,404,1,,,,
,,,,,,5105255cbf9f9aef01b09698,66a626ef09d4e21e1a8894ec,6734f03edc1090495fb7b9ed,2024-11-13_11h30.51.305,Tarea de género gramatical,2024.2.2,MacIntel,57.47126437,,,,,,,,,,,,,,,,,,,,,,,797.9315,799.1966,a,1,[],[],[],[],[],[],[],0.596,1,799.1974,799.6966,,,,,,1345,FEM,DIS,150,bondad,el,a,0.596,,799.6978,799.6987,-0.476848958,-0.053133681,0,0,0,,0,236,236,444,1,,,,
,,,,,,5105255cbf9f9aef01b09698,66a626ef09d4e21e1a8894ec,6734f03edc1090495fb7b9ed,2024-11-13_11h30.51.305,Tarea de género gramatical,2024.2.2,MacIntel,57.47126437,,,,,,,,,,,,,,,,,,,,,,,799.6996,800.8468,a,1,[],[],[],[],[],[],[],0.4687,1,800.8469,801.3467,,,,,,1005,FEM,CON,150,jefa,,a,0.4687,,801.3468,801.347,-0.476848958,-0.053133681,0,0,0,,0,237,237,104,1,,,,
,,,,,,5105255cbf9f9aef01b09698,66a626ef09d4e21e1a8894ec,6734f03edc1090495fb7b9ed,2024-11-13_11h30.51.305,Tarea de género gramatical,2024.2.2,MacIntel,57.47126437,,,,,,,,,,,,,,,,,,,,,,,801.3479,802.6469,l,0,[],[],[],[],[],[],[],0.6172,0,802.6477,803.1467,,,,,,1203,FEM,CON,150,maldad,,a,0.6172,,803.1468,803.1468,-0.476848958,-0.053133681,0,0,0,,0,238,238,302,1,,,,
,,,,,,5105255cbf9f9aef01b09698,66a626ef09d4e21e1a8894ec,6734f03edc1090495fb7b9ed,2024-11-13_11h30.51.305,Tarea de género gramatical,2024.2.2,MacIntel,57.47126437,,,,,,,,,,,,,,,,,,,,,,,803.1477,804.2794,l,1,[],[],[],[],[],[],[],0.4504,1,804.2804,804.7799,,,,,,1247,MAS,AGR,150,cuello,el,l,0.4504,,804.78,804.7801,-0.476848958,-0.053133681,0,0,0,,0,239,239,346,1,,,,
,,,,,,5105255cbf9f9aef01b09698,66a626ef09d4e21e1a8894ec,6734f03edc1090495fb7b9ed,2024-11-13_11h30.51.305,Tarea de género gramatical,2024.2.2,MacIntel,57.47126437,,,,,,,,,,,,,,,,,,,,,,,804.7814,806.1624,a,1,[],[],[],[],[],[],[],0.7002,1,806.1626,806.6635,,,,,,1309,FEM,DIS,150,moneda,el,a,0.7002,,806.6647,806.6657,-0.476848958,-0.053133681,0,0,0,,0,240,240,408,1,,,,
,,,,,,5105255cbf9f9aef01b09698,66a626ef09d4e21e1a8894ec,6734f03edc1090495fb7b9ed,2024-11-13_11h30.51.305,Tarea de género gramatical,2024.2.2,MacIntel,57.47126437,,,,,,,,,,,,,,,,,,,,,,,806.6666,807.9633,l,1,[],[],[],[],[],[],[],0.6194,1,807.9634,808.4636,,,,,,1313,MAS,AGR,150,diario,el,l,0.6194,,808.4637,808.4639,-0.476848958,-0.053133681,0,0,0,,0,241,241,412,1,,,,
,,,,,,5105255cbf9f9aef01b09698,66a626ef09d4e21e1a8894ec,6734f03edc1090495fb7b9ed,2024-11-13_11h30.51.305,Tarea de género gramatical,2024.2.2,MacIntel,57.47126437,,,,,,,,,,,,,,,,,,,,,,,808.4653,809.747,a,1,[],[],[],[],[],[],[],0.6,1,809.7471,810.2462,,,,,,1303,FEM,DIS,150,paliza,el,a,0.6,,810.2462,810.2464,-0.476848958,-0.053133681,0,0,0,,0,242,242,402,1,,,,
,,,,,,5105255cbf9f9aef01b09698,66a626ef09d4e21e1a8894ec,6734f03edc1090495fb7b9ed,2024-11-13_11h30.51.305,Tarea de género gramatical,2024.2.2,MacIntel,57.47126437,,,,,,,,,,,,,,,,,,,,,,,810.2475,811.397,a,1,[],[],[],[],[],[],[],0.4942,1,811.3971,811.8971,,,,,,1167,FEM,CON,150,barba,,a,0.4942,,811.8972,811.8973,-0.476848958,-0.053133681,0,0,0,,0,243,243,266,1,,,,
,,,,,,5105255cbf9f9aef01b09698,66a626ef09d4e21e1a8894ec,6734f03edc1090495fb7b9ed,2024-11-13_11h30.51.305,Tarea de género gramatical,2024.2.2,MacIntel,57.47126437,,,,,,,,,,,,,,,,,,,,,,,811.8983,813.2305,a,1,[],[],[],[],[],[],[],0.6527,1,813.2306,813.73,,,,,,933,FEM,CON,150,boda,,a,0.6527,,813.7301,813.7302,-0.476848958,-0.053133681,0,0,0,,0,244,244,32,1,,,,
,,,,,,5105255cbf9f9aef01b09698,66a626ef09d4e21e1a8894ec,6734f03edc1090495fb7b9ed,2024-11-13_11h30.51.305,Tarea de género gramatical,2024.2.2,MacIntel,57.47126437,,,,,,,,,,,,,,,,,,,,,,,813.7314,814.9299,a,1,[],[],[],[],[],[],[],0.5193,1,814.9301,815.4306,,,,,,1087,FEM,DIS,150,lista,el,a,0.5193,,815.4317,815.4328,-0.476848958,-0.053133681,0,0,0,,0,245,245,186,1,,,,
,,,,,,5105255cbf9f9aef01b09698,66a626ef09d4e21e1a8894ec,6734f03edc1090495fb7b9ed,2024-11-13_11h30.51.305,Tarea de género gramatical,2024.2.2,MacIntel,57.47126437,,,,,,,,,,,,,,,,,,,,,,,815.4336,816.5969,a,1,[],[],[],[],[],[],[],0.4943,1,816.5969,817.0973,,,,,,1257,FEM,CON,150,lengua,,a,0.4943,,817.0973,817.0975,-0.476848958,-0.053133681,0,0,0,,0,246,246,356,1,,,,
,,,,,,5105255cbf9f9aef01b09698,66a626ef09d4e21e1a8894ec,6734f03edc1090495fb7b9ed,2024-11-13_11h30.51.305,Tarea de género gramatical,2024.2.2,MacIntel,57.47126437,,,,,,,,,,,,,,,,,,,,,,,817.0985,818.4143,a,1,[],[],[],[],[],[],[],0.6447,1,818.4144,818.914,,,,,,987,FEM,CON,150,risa,,a,0.6447,,818.9141,818.9142,-0.476848958,-0.053133681,0,0,0,,0,247,247,86,1,,,,
,,,,,,5105255cbf9f9aef01b09698,66a626ef09d4e21e1a8894ec,6734f03edc1090495fb7b9ed,2024-11-13_11h30.51.305,Tarea de género gramatical,2024.2.2,MacIntel,57.47126437,,,,,,,,,,,,,,,,,,,,,,,818.9152,820.0808,a,1,[],[],[],[],[],[],[],0.4843,1,820.0809,820.5809,,,,,,1004,FEM,AGR,150,vela,la,a,0.4843,,820.5811,820.5814,-0.476848958,-0.053133681,0,0,0,,0,248,248,103,1,,,,
