counterbalancing_condition,consent_prescreening.block_1/declare_consent,consent_prescreening.block_1/age_years,consent_prescreening.block_1/gender,consent_prescreening.block_1/language_disorder,consent_prescreening.block_1/first_language,PROLIFIC_PID,STUDY_ID,SESSION_ID,date,expName,psychopyVersion,OS,frameRate,check_prescreening_answers.started,check_prescreening_answers.stopped,Instructions.started,Instructions.stopped,instr_done_keyboard.keys,instr_done_keyboard.rt,instr_done_keyboard.duration,instr_done_touch.x,instr_done_touch.y,instr_done_touch.leftButton,instr_done_touch.midButton,instr_done_touch.rightButton,instruction_pages.thisRepN,instruction_pages.thisTrialN,instruction_pages.thisN,instruction_pages.thisIndex,instruction_pages.ran,pageN,phase,instruct_text,has_image,instruct_image,presentTrial.started,presentTrial.stopped,response.keys,response.corr,touch_resp.x,touch_resp.y,touch_resp.leftButton,touch_resp.midButton,touch_resp.rightButton,touch_resp.time,touch_resp.clicked_name,rt,corr,feedback.started,feedback.stopped,practice_trials.thisRepN,practice_trials.thisTrialN,practice_trials.thisN,practice_trials.thisIndex,practice_trials.ran,TrialID,StimulusType,Condition,PrimeDuration,Prime,Flanker,corrAns,response.rt,response.duration,Break.started,Break.stopped,break_done_touch.x,break_done_touch.y,break_done_touch.leftButton,break_done_touch.midButton,break_done_touch.rightButton,break_done_keyboard.keys,experiment_trials.thisRepN,experiment_trials.thisTrialN,experiment_trials.thisN,experiment_trials.thisIndex,experiment_trials.ran,break_done_keyboard.rt,break_done_keyboard.duration,End.started,End.stopped
0,"[""over_18"",""read_info"",""comfortable"",""consent_given""]",25,F,"[""none""]","[""spanish""]",5132aa126e564394813288ca,66a626ef09d4e21e1a8894ec,6735ed1112d949321619a187,2024-11-14_12h29.04.996,Tarea de género gramatical,2024.2.2,Win32,59.88023952,,,,,,,,,,,,,,,,,,,,,,,,,,,,,,,,,,,,,,,,,,,,,,,,,,,,,,,,,,,,,,,,,,,,
,,,,,,5132aa126e564394813288ca,66a626ef09d4e21e1a8894ec,6735ed1112d949321619a187,2024-11-14_12h29.04.996,Tarea de género gramatical,2024.2.2,Win32,59.88023952,40.9735,40.9737,,,,,,,,,,,,,,,,,,,,,,,,,,,,,,,,,,,,,,,,,,,,,,,,,,,,,,,,,,,,,,,,,,
,,,,,,5132aa126e564394813288ca,66a626ef09d4e21e1a8894ec,6735ed1112d949321619a187,2024-11-14_12h29.04.996,Tarea de género gramatical,2024.2.2,Win32,59.88023952,,,41.0013,52.492,space,11.4508,,-0.080555527,-0.375,0,0,0,0,0,0,0,1,1,instructions,"INSTRUCCIONES
Va a realizar una prueba de selección gramatical. Desde el comienzo de la prueba mire siempre al centro de la pantalla. Al cabo de un momento, aparecerán palabras. La tarea consiste en determinar si la palabra del centro (siempre será un sustantivo), pertenece al género masculino o femenino.

Pulse la tecla ESPACIO o toque el botón de abajo para continuar.",0,keyboardresponseMF.png,,,,,,,,,,,,,,,,,,,,,,,,,,,,,,,,,,,,,,,,,,,,,,
,,,,,,5132aa126e564394813288ca,66a626ef09d4e21e1a8894ec,6735ed1112d949321619a187,2024-11-14_12h29.04.996,Tarea de género gramatical,2024.2.2,Win32,59.88023952,,,52.5001,56.8051,space,4.244,,-0.080555527,-0.375,0,0,0,0,1,1,1,1,2,instructions,"Si su dispositivo tiene teclado, pulse la tecla ""A"" para las palabras en masculino (por ejemplo: ""arroz"") y la tecla ""L"" para las palabras en femenino (por ejemplo: ""mano"").
Pulse la tecla ESPACIO o toque el botón de abajo para continuar.",1,keyboardresponseMF.png,,,,,,,,,,,,,,,,,,,,,,,,,,,,,,,,,,,,,,,,,,,,,,
,,,,,,5132aa126e564394813288ca,66a626ef09d4e21e1a8894ec,6735ed1112d949321619a187,2024-11-14_12h29.04.996,Tarea de género gramatical,2024.2.2,Win32,59.88023952,,,56.8073,61.7381,space,4.8984,,-0.080555527,-0.375,0,0,0,0,2,2,2,1,3,instructions,"Si utiliza un dispositivo sólo táctil, colóquelo en horizontal y utilice los botones de la pantalla. No utilice el ratón.
Pulse la tecla ESPACIO o toque el botón de abajo para continuar.",2,touchresponseMF.png,,,,,,,,,,,,,,,,,,,,,,,,,,,,,,,,,,,,,,,,,,,,,,
,,,,,,5132aa126e564394813288ca,66a626ef09d4e21e1a8894ec,6735ed1112d949321619a187,2024-11-14_12h29.04.996,Tarea de género gramatical,2024.2.2,Win32,59.88023952,,,61.7455,73.105,space,11.3449,,-0.080555527,-0.375,0,0,0,0,3,3,3,1,4,instructions,"Es muy importante que responda con la mayor rapidez y precisión posibles, ya que cada cadena de letras sólo estará en pantalla durante un instante. Si no responde en ese tiempo, aparecerá el mensaje ""Muy lento"" y el experimento pasará a la siguiente palabra. Los primeros 15 intentos serán de práctica y habrá dos descansos durante la prueba.
Pulse la tecla ESPACIO o toque el botón de abajo para iniciar la parte de práctica.",0,keyboardresponseMF.png,,,,,,,,,,,,,,,,,,,,,,,,,,,,,,,,,,,,,,,,,,,,,,
,,,,,,5132aa126e564394813288ca,66a626ef09d4e21e1a8894ec,6735ed1112d949321619a187,2024-11-14_12h29.04.996,Tarea de género gramatical,2024.2.2,Win32,59.88023952,,,,,,,,,,,,,,,,,,,,,,,73.1267,75.7678,,0,[],[],[],[],[],[],[],,-1,75.7686,76.2667,0,0,0,6,1,2007,FEM,AGR,150,navaja,la,a,,,,,,,,,,,,,,,,,,,
,,,,,,5132aa126e564394813288ca,66a626ef09d4e21e1a8894ec,6735ed1112d949321619a187,2024-11-14_12h29.04.996,Tarea de género gramatical,2024.2.2,Win32,59.88023952,,,,,,,,,,,,,,,,,,,,,,,76.2711,77.6649,a,1,[],[],[],[],[],[],[],0.7155,1,77.6829,78.1642,0,1,1,11,1,2012,MAS,DIS,150,clima,la,l,0.7155,,,,,,,,,,,,,,,,,,
,,,,,,5132aa126e564394813288ca,66a626ef09d4e21e1a8894ec,6735ed1112d949321619a187,2024-11-14_12h29.04.996,Tarea de género gramatical,2024.2.2,Win32,59.88023952,,,,,,,,,,,,,,,,,,,,,,,78.1647,79.699,a,1,[],[],[],[],[],[],[],0.8654,1,79.6993,80.1986,0,2,2,10,1,2011,MAS,CON,150,canal,,l,0.8654,,,,,,,,,,,,,,,,,,
,,,,,,5132aa126e564394813288ca,66a626ef09d4e21e1a8894ec,6735ed1112d949321619a187,2024-11-14_12h29.04.996,Tarea de género gramatical,2024.2.2,Win32,59.88023952,,,,,,,,,,,,,,,,,,,,,,,80.2017,81.4806,l,1,[],[],[],[],[],[],[],0.6017,1,81.4809,81.9806,0,3,3,0,1,2001,FEM,AGR,150,nuca,la,a,0.6017,,,,,,,,,,,,,,,,,,
,,,,,,5132aa126e564394813288ca,66a626ef09d4e21e1a8894ec,6735ed1112d949321619a187,2024-11-14_12h29.04.996,Tarea de género gramatical,2024.2.2,Win32,59.88023952,,,,,,,,,,,,,,,,,,,,,,,81.9836,83.2474,l,1,[],[],[],[],[],[],[],0.5821,1,83.2476,83.7474,0,4,4,4,1,2005,FEM,CON,150,placa,,a,0.5821,,,,,,,,,,,,,,,,,,
,,,,,,5132aa126e564394813288ca,66a626ef09d4e21e1a8894ec,6735ed1112d949321619a187,2024-11-14_12h29.04.996,Tarea de género gramatical,2024.2.2,Win32,59.88023952,,,,,,,,,,,,,,,,,,,,,,,83.7497,84.8796,l,1,[],[],[],[],[],[],[],0.4518,1,84.8799,85.3797,0,5,5,1,1,2002,FEM,CON,150,pala,,a,0.4518,,,,,,,,,,,,,,,,,,
,,,,,,5132aa126e564394813288ca,66a626ef09d4e21e1a8894ec,6735ed1112d949321619a187,2024-11-14_12h29.04.996,Tarea de género gramatical,2024.2.2,Win32,59.88023952,,,,,,,,,,,,,,,,,,,,,,,85.3835,86.6458,l,1,[],[],[],[],[],[],[],0.5826,1,86.6459,87.1457,0,6,6,2,1,2003,FEM,DIS,150,daga,el,a,0.5826,,,,,,,,,,,,,,,,,,
,,,,,,5132aa126e564394813288ca,66a626ef09d4e21e1a8894ec,6735ed1112d949321619a187,2024-11-14_12h29.04.996,Tarea de género gramatical,2024.2.2,Win32,59.88023952,,,,,,,,,,,,,,,,,,,,,,,87.1484,88.1785,a,1,[],[],[],[],[],[],[],0.3573,1,88.1786,88.6778,0,7,7,9,1,2010,MAS,AGR,150,vecino,el,l,0.3573,,,,,,,,,,,,,,,,,,
,,,,,,5132aa126e564394813288ca,66a626ef09d4e21e1a8894ec,6735ed1112d949321619a187,2024-11-14_12h29.04.996,Tarea de género gramatical,2024.2.2,Win32,59.88023952,,,,,,,,,,,,,,,,,,,,,,,88.6808,89.8285,a,1,[],[],[],[],[],[],[],0.4671,1,89.8288,90.3283,0,8,8,12,1,2013,MAS,AGR,150,acero,el,l,0.4671,,,,,,,,,,,,,,,,,,
,,,,,,5132aa126e564394813288ca,66a626ef09d4e21e1a8894ec,6735ed1112d949321619a187,2024-11-14_12h29.04.996,Tarea de género gramatical,2024.2.2,Win32,59.88023952,,,,,,,,,,,,,,,,,,,,,,,90.3309,91.6609,a,0,[],[],[],[],[],[],[],0.6513,0,91.6635,92.1612,0,9,9,5,1,2006,FEM,DIS,150,serie,el,a,0.6513,,,,,,,,,,,,,,,,,,
,,,,,,5132aa126e564394813288ca,66a626ef09d4e21e1a8894ec,6735ed1112d949321619a187,2024-11-14_12h29.04.996,Tarea de género gramatical,2024.2.2,Win32,59.88023952,,,,,,,,,,,,,,,,,,,,,,,92.1644,93.4441,l,1,[],[],[],[],[],[],[],0.5981,1,93.4448,93.9436,0,10,10,7,1,2008,FEM,CON,150,siesta,,a,0.5981,,,,,,,,,,,,,,,,,,
,,,,,,5132aa126e564394813288ca,66a626ef09d4e21e1a8894ec,6735ed1112d949321619a187,2024-11-14_12h29.04.996,Tarea de género gramatical,2024.2.2,Win32,59.88023952,,,,,,,,,,,,,,,,,,,,,,,93.9455,95.1763,a,1,[],[],[],[],[],[],[],0.5499,1,95.1766,95.6766,0,11,11,8,1,2009,MAS,DIS,150,puerto,la,l,0.5499,,,,,,,,,,,,,,,,,,
,,,,,,5132aa126e564394813288ca,66a626ef09d4e21e1a8894ec,6735ed1112d949321619a187,2024-11-14_12h29.04.996,Tarea de género gramatical,2024.2.2,Win32,59.88023952,,,,,,,,,,,,,,,,,,,,,,,95.6785,96.9755,l,1,[],[],[],[],[],[],[],0.6134,1,96.9755,97.4758,0,12,12,3,1,2004,FEM,AGR,150,venta,la,a,0.6134,,,,,,,,,,,,,,,,,,
,,,,,,5132aa126e564394813288ca,66a626ef09d4e21e1a8894ec,6735ed1112d949321619a187,2024-11-14_12h29.04.996,Tarea de género gramatical,2024.2.2,Win32,59.88023952,,,,,,,,,,,,,,,,,,,,,,,97.4777,98.7086,a,1,[],[],[],[],[],[],[],0.5593,1,98.7088,99.2086,0,13,13,13,1,2014,MAS,CON,150,siglo,,l,0.5593,,,,,,,,,,,,,,,,,,
,,,,,,5132aa126e564394813288ca,66a626ef09d4e21e1a8894ec,6735ed1112d949321619a187,2024-11-14_12h29.04.996,Tarea de género gramatical,2024.2.2,Win32,59.88023952,,,,,,,,,,,,,,,,,,,,,,,99.2116,100.6414,l,0,[],[],[],[],[],[],[],0.7527,0,100.644,101.1415,0,14,14,14,1,2015,MAS,DIS,150,robot,la,l,0.7527,,,,,,,,,,,,,,,,,,
,,,,,,5132aa126e564394813288ca,66a626ef09d4e21e1a8894ec,6735ed1112d949321619a187,2024-11-14_12h29.04.996,Tarea de género gramatical,2024.2.2,Win32,59.88023952,,,104.7947,105.8398,space,1.0247,,-0.080555527,-0.375,0,0,0,,,,,,,,,,,105.892,107.3782,l,1,[],[],[],[],[],[],[],0.8183,1,107.38,107.8721,,,,,,43,FEM,AGR,150,nena,la,a,0.8183,,107.8729,107.8828,-0.080555527,-0.375,0,0,0,,0,0,0,42,1,,,,
,,,,,,5132aa126e564394813288ca,66a626ef09d4e21e1a8894ec,6735ed1112d949321619a187,2024-11-14_12h29.04.996,Tarea de género gramatical,2024.2.2,Win32,59.88023952,,,,,,,,,,,,,,,,,,,,,,,107.8851,109.0608,a,1,[],[],[],[],[],[],[],0.5008,1,109.0611,109.5579,,,,,,329,MAS,CON,150,futuro,,l,0.5008,,109.558,109.5582,-0.080555527,-0.375,0,0,0,,0,1,1,328,1,,,,
,,,,,,5132aa126e564394813288ca,66a626ef09d4e21e1a8894ec,6735ed1112d949321619a187,2024-11-14_12h29.04.996,Tarea de género gramatical,2024.2.2,Win32,59.88023952,,,,,,,,,,,,,,,,,,,,,,,109.5595,111.0933,a,1,[],[],[],[],[],[],[],0.8513,1,111.0934,111.5883,,,,,,353,MAS,CON,150,verano,,l,0.8513,,111.5916,111.5933,-0.080555527,-0.375,0,0,0,,0,2,2,352,1,,,,
,,,,,,5132aa126e564394813288ca,66a626ef09d4e21e1a8894ec,6735ed1112d949321619a187,2024-11-14_12h29.04.996,Tarea de género gramatical,2024.2.2,Win32,59.88023952,,,,,,,,,,,,,,,,,,,,,,,111.5944,112.6903,a,1,[],[],[],[],[],[],[],0.4311,1,112.6908,113.1899,,,,,,5,MAS,CON,150,tipo,,l,0.4311,,113.1899,113.19,-0.080555527,-0.375,0,0,0,,0,3,3,4,1,,,,
,,,,,,5132aa126e564394813288ca,66a626ef09d4e21e1a8894ec,6735ed1112d949321619a187,2024-11-14_12h29.04.996,Tarea de género gramatical,2024.2.2,Win32,59.88023952,,,,,,,,,,,,,,,,,,,,,,,113.1906,114.5093,a,1,[],[],[],[],[],[],[],0.6362,1,114.5096,115.009,,,,,,281,MAS,CON,150,actor,,l,0.6362,,115.0091,115.0093,-0.080555527,-0.375,0,0,0,,0,4,4,280,1,,,,
,,,,,,5132aa126e564394813288ca,66a626ef09d4e21e1a8894ec,6735ed1112d949321619a187,2024-11-14_12h29.04.996,Tarea de género gramatical,2024.2.2,Win32,59.88023952,,,,,,,,,,,,,,,,,,,,,,,115.0109,116.1364,l,1,[],[],[],[],[],[],[],0.4516,1,116.1366,116.6242,,,,,,290,FEM,CON,150,cabra,,a,0.4516,,116.6243,116.6246,-0.080555527,-0.375,0,0,0,,0,5,5,289,1,,,,
,,,,,,5132aa126e564394813288ca,66a626ef09d4e21e1a8894ec,6735ed1112d949321619a187,2024-11-14_12h29.04.996,Tarea de género gramatical,2024.2.2,Win32,59.88023952,,,,,,,,,,,,,,,,,,,,,,,116.6273,117.6919,a,1,[],[],[],[],[],[],[],0.3856,1,117.6934,118.1884,,,,,,420,MAS,DIS,150,helado,la,l,0.3856,,118.1925,118.1947,-0.080555527,-0.375,0,0,0,,0,6,6,419,1,,,,
,,,,,,5132aa126e564394813288ca,66a626ef09d4e21e1a8894ec,6735ed1112d949321619a187,2024-11-14_12h29.04.996,Tarea de género gramatical,2024.2.2,Win32,59.88023952,,,,,,,,,,,,,,,,,,,,,,,118.1964,119.2573,a,1,[],[],[],[],[],[],[],0.3844,1,119.2575,119.7518,,,,,,322,MAS,AGR,150,minuto,el,l,0.3844,,119.752,119.7524,-0.080555527,-0.375,0,0,0,,0,7,7,321,1,,,,
,,,,,,5132aa126e564394813288ca,66a626ef09d4e21e1a8894ec,6735ed1112d949321619a187,2024-11-14_12h29.04.996,Tarea de género gramatical,2024.2.2,Win32,59.88023952,,,,,,,,,,,,,,,,,,,,,,,119.7545,120.7564,l,1,[],[],[],[],[],[],[],0.3177,1,120.7566,121.2511,,,,,,97,FEM,AGR,150,capa,la,a,0.3177,,121.2513,121.2515,-0.080555527,-0.375,0,0,0,,0,8,8,96,1,,,,
,,,,,,5132aa126e564394813288ca,66a626ef09d4e21e1a8894ec,6735ed1112d949321619a187,2024-11-14_12h29.04.996,Tarea de género gramatical,2024.2.2,Win32,59.88023952,,,,,,,,,,,,,,,,,,,,,,,121.2541,122.3219,a,1,[],[],[],[],[],[],[],0.3834,1,122.3225,122.8197,,,,,,448,MAS,AGR,150,aceite,el,l,0.3834,,122.8202,122.8207,-0.080555527,-0.375,0,0,0,,0,9,9,447,1,,,,
,,,,,,5132aa126e564394813288ca,66a626ef09d4e21e1a8894ec,6735ed1112d949321619a187,2024-11-14_12h29.04.996,Tarea de género gramatical,2024.2.2,Win32,59.88023952,,,,,,,,,,,,,,,,,,,,,,,122.8232,124.0226,l,1,[],[],[],[],[],[],[],0.5181,1,124.0227,124.5157,,,,,,211,FEM,AGR,150,salud,la,a,0.5181,,124.5158,124.5161,-0.080555527,-0.375,0,0,0,,0,10,10,210,1,,,,
,,,,,,5132aa126e564394813288ca,66a626ef09d4e21e1a8894ec,6735ed1112d949321619a187,2024-11-14_12h29.04.996,Tarea de género gramatical,2024.2.2,Win32,59.88023952,,,,,,,,,,,,,,,,,,,,,,,124.5172,125.6493,a,1,[],[],[],[],[],[],[],0.4397,1,125.6496,126.1522,,,,,,341,MAS,CON,150,precio,,l,0.4397,,126.1551,126.1568,-0.080555527,-0.375,0,0,0,,0,11,11,340,1,,,,
,,,,,,5132aa126e564394813288ca,66a626ef09d4e21e1a8894ec,6735ed1112d949321619a187,2024-11-14_12h29.04.996,Tarea de género gramatical,2024.2.2,Win32,59.88023952,,,,,,,,,,,,,,,,,,,,,,,126.1581,127.2212,l,1,[],[],[],[],[],[],[],0.3947,1,127.2214,127.7147,,,,,,182,FEM,CON,150,prisa,,a,0.3947,,127.7149,127.7151,-0.080555527,-0.375,0,0,0,,0,12,12,181,1,,,,
,,,,,,5132aa126e564394813288ca,66a626ef09d4e21e1a8894ec,6735ed1112d949321619a187,2024-11-14_12h29.04.996,Tarea de género gramatical,2024.2.2,Win32,59.88023952,,,,,,,,,,,,,,,,,,,,,,,127.7174,128.7521,a,1,[],[],[],[],[],[],[],0.3594,1,128.7523,129.2538,,,,,,304,MAS,AGR,150,tiempo,el,l,0.3594,,129.2539,129.254,-0.080555527,-0.375,0,0,0,,0,13,13,303,1,,,,
,,,,,,5132aa126e564394813288ca,66a626ef09d4e21e1a8894ec,6735ed1112d949321619a187,2024-11-14_12h29.04.996,Tarea de género gramatical,2024.2.2,Win32,59.88023952,,,,,,,,,,,,,,,,,,,,,,,129.2566,130.414,l,1,[],[],[],[],[],[],[],0.4882,1,130.4143,130.9194,,,,,,404,FEM,CON,150,gloria,,a,0.4882,,130.9196,130.9198,-0.080555527,-0.375,0,0,0,,0,14,14,403,1,,,,
,,,,,,5132aa126e564394813288ca,66a626ef09d4e21e1a8894ec,6735ed1112d949321619a187,2024-11-14_12h29.04.996,Tarea de género gramatical,2024.2.2,Win32,59.88023952,,,,,,,,,,,,,,,,,,,,,,,130.9231,132.0806,a,1,[],[],[],[],[],[],[],0.4795,1,132.0808,132.5855,,,,,,120,MAS,DIS,150,puño,la,l,0.4795,,132.5886,132.5903,-0.080555527,-0.375,0,0,0,,0,15,15,119,1,,,,
,,,,,,5132aa126e564394813288ca,66a626ef09d4e21e1a8894ec,6735ed1112d949321619a187,2024-11-14_12h29.04.996,Tarea de género gramatical,2024.2.2,Win32,59.88023952,,,,,,,,,,,,,,,,,,,,,,,132.5916,133.7518,l,1,[],[],[],[],[],[],[],0.483,1,133.752,134.2466,,,,,,349,FEM,AGR,150,prensa,la,a,0.483,,134.2467,134.247,-0.080555527,-0.375,0,0,0,,0,16,16,348,1,,,,
,,,,,,5132aa126e564394813288ca,66a626ef09d4e21e1a8894ec,6735ed1112d949321619a187,2024-11-14_12h29.04.996,Tarea de género gramatical,2024.2.2,Win32,59.88023952,,,,,,,,,,,,,,,,,,,,,,,134.2492,135.6525,a,1,[],[],[],[],[],[],[],0.735,1,135.6526,136.1457,,,,,,275,MAS,CON,150,disco,,l,0.735,,136.146,136.1462,-0.080555527,-0.375,0,0,0,,0,17,17,274,1,,,,
,,,,,,5132aa126e564394813288ca,66a626ef09d4e21e1a8894ec,6735ed1112d949321619a187,2024-11-14_12h29.04.996,Tarea de género gramatical,2024.2.2,Win32,59.88023952,,,,,,,,,,,,,,,,,,,,,,,136.1487,137.3616,a,0,[],[],[],[],[],[],[],0.5247,0,137.3635,137.8659,,,,,,201,FEM,DIS,150,leche,el,a,0.5247,,137.8659,137.866,-0.080555527,-0.375,0,0,0,,0,18,18,200,1,,,,
,,,,,,5132aa126e564394813288ca,66a626ef09d4e21e1a8894ec,6735ed1112d949321619a187,2024-11-14_12h29.04.996,Tarea de género gramatical,2024.2.2,Win32,59.88023952,,,,,,,,,,,,,,,,,,,,,,,137.8666,139.0837,l,1,[],[],[],[],[],[],[],0.5343,1,139.0855,139.5785,,,,,,374,FEM,CON,150,herida,,a,0.5343,,139.5787,139.5789,-0.080555527,-0.375,0,0,0,,0,19,19,373,1,,,,
,,,,,,5132aa126e564394813288ca,66a626ef09d4e21e1a8894ec,6735ed1112d949321619a187,2024-11-14_12h29.04.996,Tarea de género gramatical,2024.2.2,Win32,59.88023952,,,,,,,,,,,,,,,,,,,,,,,139.5818,140.8146,l,1,[],[],[],[],[],[],[],0.5662,1,140.8147,141.3158,,,,,,273,FEM,DIS,150,tarta,el,a,0.5662,,141.3189,141.3208,-0.080555527,-0.375,0,0,0,,0,20,20,272,1,,,,
,,,,,,5132aa126e564394813288ca,66a626ef09d4e21e1a8894ec,6735ed1112d949321619a187,2024-11-14_12h29.04.996,Tarea de género gramatical,2024.2.2,Win32,59.88023952,,,,,,,,,,,,,,,,,,,,,,,141.3225,142.3854,l,1,[],[],[],[],[],[],[],0.4026,1,142.3857,142.8791,,,,,,423,FEM,DIS,150,poesía,el,a,0.4026,,142.8796,142.8802,-0.080555527,-0.375,0,0,0,,0,21,21,422,1,,,,
,,,,,,5132aa126e564394813288ca,66a626ef09d4e21e1a8894ec,6735ed1112d949321619a187,2024-11-14_12h29.04.996,Tarea de género gramatical,2024.2.2,Win32,59.88023952,,,,,,,,,,,,,,,,,,,,,,,142.8831,143.9682,l,1,[],[],[],[],[],[],[],0.4085,1,143.9684,144.4646,,,,,,229,FEM,AGR,150,celda,la,a,0.4085,,144.4648,144.4649,-0.080555527,-0.375,0,0,0,,0,22,22,228,1,,,,
,,,,,,5132aa126e564394813288ca,66a626ef09d4e21e1a8894ec,6735ed1112d949321619a187,2024-11-14_12h29.04.996,Tarea de género gramatical,2024.2.2,Win32,59.88023952,,,,,,,,,,,,,,,,,,,,,,,144.4678,145.5094,a,1,[],[],[],[],[],[],[],0.3575,1,145.5096,146.0007,,,,,,354,MAS,DIS,150,camión,la,l,0.3575,,146.0008,146.001,-0.080555527,-0.375,0,0,0,,0,23,23,353,1,,,,
,,,,,,5132aa126e564394813288ca,66a626ef09d4e21e1a8894ec,6735ed1112d949321619a187,2024-11-14_12h29.04.996,Tarea de género gramatical,2024.2.2,Win32,59.88023952,,,,,,,,,,,,,,,,,,,,,,,146.0032,147.2809,a,0,[],[],[],[],[],[],[],0.599,0,147.2826,147.7804,,,,,,33,FEM,DIS,150,boda,el,a,0.599,,147.7832,147.7848,-0.080555527,-0.375,0,0,0,,0,24,24,32,1,,,,
,,,,,,5132aa126e564394813288ca,66a626ef09d4e21e1a8894ec,6735ed1112d949321619a187,2024-11-14_12h29.04.996,Tarea de género gramatical,2024.2.2,Win32,59.88023952,,,,,,,,,,,,,,,,,,,,,,,147.7862,148.8288,a,1,[],[],[],[],[],[],[],0.3756,1,148.8297,149.3248,,,,,,36,MAS,DIS,150,dedo,la,l,0.3756,,149.3249,149.3252,-0.080555527,-0.375,0,0,0,,0,25,25,35,1,,,,
,,,,,,5132aa126e564394813288ca,66a626ef09d4e21e1a8894ec,6735ed1112d949321619a187,2024-11-14_12h29.04.996,Tarea de género gramatical,2024.2.2,Win32,59.88023952,,,,,,,,,,,,,,,,,,,,,,,149.3282,150.5624,l,1,[],[],[],[],[],[],[],0.5484,1,150.5625,151.0613,,,,,,105,FEM,DIS,150,jefa,el,a,0.5484,,151.0613,151.0615,-0.080555527,-0.375,0,0,0,,0,26,26,104,1,,,,
,,,,,,5132aa126e564394813288ca,66a626ef09d4e21e1a8894ec,6735ed1112d949321619a187,2024-11-14_12h29.04.996,Tarea de género gramatical,2024.2.2,Win32,59.88023952,,,,,,,,,,,,,,,,,,,,,,,151.0634,152.2266,a,1,[],[],[],[],[],[],[],0.4841,1,152.2268,152.7239,,,,,,215,MAS,CON,150,hueso,,l,0.4841,,152.724,152.7242,-0.080555527,-0.375,0,0,0,,0,27,27,214,1,,,,
,,,,,,5132aa126e564394813288ca,66a626ef09d4e21e1a8894ec,6735ed1112d949321619a187,2024-11-14_12h29.04.996,Tarea de género gramatical,2024.2.2,Win32,59.88023952,,,,,,,,,,,,,,,,,,,,,,,152.727,153.7622,a,1,[],[],[],[],[],[],[],0.3629,1,153.7624,154.2565,,,,,,239,MAS,CON,150,reloj,,l,0.3629,,154.2567,154.2569,-0.080555527,-0.375,0,0,0,,0,28,28,238,1,,,,
,,,,,,5132aa126e564394813288ca,66a626ef09d4e21e1a8894ec,6735ed1112d949321619a187,2024-11-14_12h29.04.996,Tarea de género gramatical,2024.2.2,Win32,59.88023952,,,,,,,,,,,,,,,,,,,,,,,154.2599,155.21,a,1,[],[],[],[],[],[],[],0.2757,1,155.2102,155.706,,,,,,317,MAS,CON,150,número,,l,0.2757,,155.7098,155.7118,-0.080555527,-0.375,0,0,0,,0,29,29,316,1,,,,
,,,,,,5132aa126e564394813288ca,66a626ef09d4e21e1a8894ec,6735ed1112d949321619a187,2024-11-14_12h29.04.996,Tarea de género gramatical,2024.2.2,Win32,59.88023952,,,,,,,,,,,,,,,,,,,,,,,155.7133,156.8615,a,1,[],[],[],[],[],[],[],0.4684,1,156.8617,157.3587,,,,,,276,MAS,DIS,150,ritmo,la,l,0.4684,,157.3588,157.3591,-0.080555527,-0.375,0,0,0,,0,30,30,275,1,,,,
,,,,,,5132aa126e564394813288ca,66a626ef09d4e21e1a8894ec,6735ed1112d949321619a187,2024-11-14_12h29.04.996,Tarea de género gramatical,2024.2.2,Win32,59.88023952,,,,,,,,,,,,,,,,,,,,,,,157.3613,158.3879,a,1,[],[],[],[],[],[],[],0.3492,1,158.3881,158.877,,,,,,268,MAS,AGR,150,truco,el,l,0.3492,,158.8771,158.8772,-0.080555527,-0.375,0,0,0,,0,31,31,267,1,,,,
,,,,,,5132aa126e564394813288ca,66a626ef09d4e21e1a8894ec,6735ed1112d949321619a187,2024-11-14_12h29.04.996,Tarea de género gramatical,2024.2.2,Win32,59.88023952,,,,,,,,,,,,,,,,,,,,,,,158.8797,159.7608,a,1,[],[],[],[],[],[],[],0.2143,1,159.7609,160.2544,,,,,,442,MAS,AGR,150,cuadro,el,l,0.2143,,160.2545,160.2547,-0.080555527,-0.375,0,0,0,,0,32,32,441,1,,,,
,,,,,,5132aa126e564394813288ca,66a626ef09d4e21e1a8894ec,6735ed1112d949321619a187,2024-11-14_12h29.04.996,Tarea de género gramatical,2024.2.2,Win32,59.88023952,,,,,,,,,,,,,,,,,,,,,,,160.2572,161.1792,a,1,[],[],[],[],[],[],[],0.2376,1,161.1795,161.6702,,,,,,389,MAS,CON,150,tamaño,,l,0.2376,,161.6736,161.6754,-0.080555527,-0.375,0,0,0,,0,33,33,388,1,,,,
,,,,,,5132aa126e564394813288ca,66a626ef09d4e21e1a8894ec,6735ed1112d949321619a187,2024-11-14_12h29.04.996,Tarea de género gramatical,2024.2.2,Win32,59.88023952,,,,,,,,,,,,,,,,,,,,,,,161.6768,162.7925,l,0,[],[],[],[],[],[],[],0.4319,0,162.7941,163.2895,,,,,,12,MAS,DIS,150,plan,la,l,0.4319,,163.2896,163.2898,-0.080555527,-0.375,0,0,0,,0,34,34,11,1,,,,
,,,,,,5132aa126e564394813288ca,66a626ef09d4e21e1a8894ec,6735ed1112d949321619a187,2024-11-14_12h29.04.996,Tarea de género gramatical,2024.2.2,Win32,59.88023952,,,,,,,,,,,,,,,,,,,,,,,163.2912,164.1867,a,0,[],[],[],[],[],[],[],0.2247,0,164.1868,164.6745,,,,,,169,FEM,AGR,150,vista,la,a,0.2247,,164.6746,164.6748,-0.080555527,-0.375,0,0,0,,0,35,35,168,1,,,,
,,,,,,5132aa126e564394813288ca,66a626ef09d4e21e1a8894ec,6735ed1112d949321619a187,2024-11-14_12h29.04.996,Tarea de género gramatical,2024.2.2,Win32,59.88023952,,,,,,,,,,,,,,,,,,,,,,,164.6777,165.8014,l,1,[],[],[],[],[],[],[],0.4419,1,165.8028,166.3076,,,,,,225,FEM,DIS,150,pieza,el,a,0.4419,,166.3077,166.3079,-0.080555527,-0.375,0,0,0,,0,36,36,224,1,,,,
,,,,,,5132aa126e564394813288ca,66a626ef09d4e21e1a8894ec,6735ed1112d949321619a187,2024-11-14_12h29.04.996,Tarea de género gramatical,2024.2.2,Win32,59.88023952,,,,,,,,,,,,,,,,,,,,,,,166.3105,167.3268,a,1,[],[],[],[],[],[],[],0.3469,1,167.3271,167.825,,,,,,113,MAS,CON,150,toro,,l,0.3469,,167.8252,167.8253,-0.080555527,-0.375,0,0,0,,0,37,37,112,1,,,,
,,,,,,5132aa126e564394813288ca,66a626ef09d4e21e1a8894ec,6735ed1112d949321619a187,2024-11-14_12h29.04.996,Tarea de género gramatical,2024.2.2,Win32,59.88023952,,,,,,,,,,,,,,,,,,,,,,,167.8275,169.043,a,0,[],[],[],[],[],[],[],0.5519,0,169.0445,169.5381,,,,,,313,FEM,AGR,150,ciudad,la,a,0.5519,,169.5416,169.5435,-0.080555527,-0.375,0,0,0,,0,38,38,312,1,,,,
,,,,,,5132aa126e564394813288ca,66a626ef09d4e21e1a8894ec,6735ed1112d949321619a187,2024-11-14_12h29.04.996,Tarea de género gramatical,2024.2.2,Win32,59.88023952,,,,,,,,,,,,,,,,,,,,,,,169.545,170.6503,l,1,[],[],[],[],[],[],[],0.4369,1,170.6521,171.1509,,,,,,14,FEM,CON,150,cara,,a,0.4369,,171.1509,171.1511,-0.080555527,-0.375,0,0,0,,0,39,39,13,1,,,,
,,,,,,5132aa126e564394813288ca,66a626ef09d4e21e1a8894ec,6735ed1112d949321619a187,2024-11-14_12h29.04.996,Tarea de género gramatical,2024.2.2,Win32,59.88023952,,,,,,,,,,,,,,,,,,,,,,,171.1543,172.2063,a,1,[],[],[],[],[],[],[],0.3826,1,172.2066,172.7042,,,,,,402,MAS,DIS,150,ladrón,la,l,0.3826,,172.7044,172.7046,-0.080555527,-0.375,0,0,0,,0,40,40,401,1,,,,
,,,,,,5132aa126e564394813288ca,66a626ef09d4e21e1a8894ec,6735ed1112d949321619a187,2024-11-14_12h29.04.996,Tarea de género gramatical,2024.2.2,Win32,59.88023952,,,,,,,,,,,,,,,,,,,,,,,172.7069,173.8244,a,1,[],[],[],[],[],[],[],0.437,1,173.8247,174.3228,,,,,,245,MAS,CON,150,turno,,l,0.437,,174.3229,174.3231,-0.080555527,-0.375,0,0,0,,0,41,41,244,1,,,,
,,,,,,5132aa126e564394813288ca,66a626ef09d4e21e1a8894ec,6735ed1112d949321619a187,2024-11-14_12h29.04.996,Tarea de género gramatical,2024.2.2,Win32,59.88023952,,,,,,,,,,,,,,,,,,,,,,,174.3258,175.3711,a,1,[],[],[],[],[],[],[],0.3773,1,175.3712,175.8654,,,,,,143,MAS,CON,150,faro,,l,0.3773,,175.8685,175.8707,-0.080555527,-0.375,0,0,0,,0,42,42,142,1,,,,
,,,,,,5132aa126e564394813288ca,66a626ef09d4e21e1a8894ec,6735ed1112d949321619a187,2024-11-14_12h29.04.996,Tarea de género gramatical,2024.2.2,Win32,59.88023952,,,,,,,,,,,,,,,,,,,,,,,175.8724,177.0478,l,1,[],[],[],[],[],[],[],0.4888,1,177.048,177.552,,,,,,393,FEM,DIS,150,alarma,el,a,0.4888,,177.552,177.5523,-0.080555527,-0.375,0,0,0,,0,43,43,392,1,,,,
,,,,,,5132aa126e564394813288ca,66a626ef09d4e21e1a8894ec,6735ed1112d949321619a187,2024-11-14_12h29.04.996,Tarea de género gramatical,2024.2.2,Win32,59.88023952,,,,,,,,,,,,,,,,,,,,,,,177.5543,178.73,a,1,[],[],[],[],[],[],[],0.487,1,178.7301,179.2348,,,,,,395,MAS,CON,150,correo,,l,0.487,,179.2348,179.2348,-0.080555527,-0.375,0,0,0,,0,44,44,394,1,,,,
,,,,,,5132aa126e564394813288ca,66a626ef09d4e21e1a8894ec,6735ed1112d949321619a187,2024-11-14_12h29.04.996,Tarea de género gramatical,2024.2.2,Win32,59.88023952,,,,,,,,,,,,,,,,,,,,,,,179.2355,180.3543,l,1,[],[],[],[],[],[],[],0.4484,1,180.3545,180.8465,,,,,,249,FEM,DIS,150,crema,el,a,0.4484,,180.8466,180.8467,-0.080555527,-0.375,0,0,0,,0,45,45,248,1,,,,
,,,,,,5132aa126e564394813288ca,66a626ef09d4e21e1a8894ec,6735ed1112d949321619a187,2024-11-14_12h29.04.996,Tarea de género gramatical,2024.2.2,Win32,59.88023952,,,,,,,,,,,,,,,,,,,,,,,180.8476,182.1457,a,0,[],[],[],[],[],[],[],0.6397,0,182.1473,182.647,,,,,,1,FEM,AGR,150,casa,la,a,0.6397,,182.6472,182.6474,-0.080555527,-0.375,0,0,0,,0,46,46,0,1,,,,
,,,,,,5132aa126e564394813288ca,66a626ef09d4e21e1a8894ec,6735ed1112d949321619a187,2024-11-14_12h29.04.996,Tarea de género gramatical,2024.2.2,Win32,59.88023952,,,,,,,,,,,,,,,,,,,,,,,182.6507,183.8455,l,1,[],[],[],[],[],[],[],0.5222,1,183.8468,184.3458,,,,,,117,FEM,DIS,150,raya,el,a,0.5222,,184.3481,184.3498,-0.080555527,-0.375,0,0,0,,0,47,47,116,1,,,,
,,,,,,5132aa126e564394813288ca,66a626ef09d4e21e1a8894ec,6735ed1112d949321619a187,2024-11-14_12h29.04.996,Tarea de género gramatical,2024.2.2,Win32,59.88023952,,,,,,,,,,,,,,,,,,,,,,,184.351,185.4286,a,1,[],[],[],[],[],[],[],0.4009,1,185.4288,185.9279,,,,,,208,MAS,AGR,150,suelo,el,l,0.4009,,185.928,185.9282,-0.080555527,-0.375,0,0,0,,0,48,48,207,1,,,,
,,,,,,5132aa126e564394813288ca,66a626ef09d4e21e1a8894ec,6735ed1112d949321619a187,2024-11-14_12h29.04.996,Tarea de género gramatical,2024.2.2,Win32,59.88023952,,,,,,,,,,,,,,,,,,,,,,,185.9298,187.3117,a,0,[],[],[],[],[],[],[],0.7025,0,187.3136,187.8115,,,,,,235,FEM,AGR,150,torre,la,a,0.7025,,187.8116,187.8118,-0.080555527,-0.375,0,0,0,,0,49,49,234,1,,,,
,,,,,,5132aa126e564394813288ca,66a626ef09d4e21e1a8894ec,6735ed1112d949321619a187,2024-11-14_12h29.04.996,Tarea de género gramatical,2024.2.2,Win32,59.88023952,,,,,,,,,,,,,,,,,,,,,,,187.8142,189.1105,a,1,[],[],[],[],[],[],[],0.6203,1,189.1121,189.6111,,,,,,424,MAS,AGR,150,rastro,el,l,0.6203,,189.6112,189.6114,-0.080555527,-0.375,0,0,0,,0,50,50,423,1,,,,
,,,,,,5132aa126e564394813288ca,66a626ef09d4e21e1a8894ec,6735ed1112d949321619a187,2024-11-14_12h29.04.996,Tarea de género gramatical,2024.2.2,Win32,59.88023952,,,,,,,,,,,,,,,,,,,,,,,189.6143,190.8271,a,1,[],[],[],[],[],[],[],0.5375,1,190.8273,191.3274,,,,,,426,MAS,DIS,150,pánico,la,l,0.5375,,191.3301,191.3318,-0.080555527,-0.375,0,0,0,,0,51,51,425,1,,,,
,,,,,,5132aa126e564394813288ca,66a626ef09d4e21e1a8894ec,6735ed1112d949321619a187,2024-11-14_12h29.04.996,Tarea de género gramatical,2024.2.2,Win32,59.88023952,,,,,,,,,,,,,,,,,,,,,,,191.3331,192.3757,a,1,[],[],[],[],[],[],[],0.3744,1,192.3759,192.8764,,,,,,382,MAS,AGR,150,teatro,el,l,0.3744,,192.8765,192.8767,-0.080555527,-0.375,0,0,0,,0,52,52,381,1,,,,
,,,,,,5132aa126e564394813288ca,66a626ef09d4e21e1a8894ec,6735ed1112d949321619a187,2024-11-14_12h29.04.996,Tarea de género gramatical,2024.2.2,Win32,59.88023952,,,,,,,,,,,,,,,,,,,,,,,192.8794,193.8763,a,1,[],[],[],[],[],[],[],0.3184,1,193.8767,194.3761,,,,,,185,MAS,CON,150,sueño,,l,0.3184,,194.3762,194.3763,-0.080555527,-0.375,0,0,0,,0,53,53,184,1,,,,
,,,,,,5132aa126e564394813288ca,66a626ef09d4e21e1a8894ec,6735ed1112d949321619a187,2024-11-14_12h29.04.996,Tarea de género gramatical,2024.2.2,Win32,59.88023952,,,,,,,,,,,,,,,,,,,,,,,194.3783,196.0422,a,1,[],[],[],[],[],[],[],0.986,1,196.0423,196.5421,,,,,,396,MAS,DIS,150,tesoro,la,l,0.986,,196.5423,196.5425,-0.080555527,-0.375,0,0,0,,0,54,54,395,1,,,,
,,,,,,5132aa126e564394813288ca,66a626ef09d4e21e1a8894ec,6735ed1112d949321619a187,2024-11-14_12h29.04.996,Tarea de género gramatical,2024.2.2,Win32,59.88023952,,,,,,,,,,,,,,,,,,,,,,,196.5443,197.5749,a,1,[],[],[],[],[],[],[],0.3534,1,197.5751,198.073,,,,,,282,MAS,DIS,150,bolso,la,l,0.3534,,198.0731,198.0732,-0.080555527,-0.375,0,0,0,,0,55,55,281,1,,,,
,,,,,,5132aa126e564394813288ca,66a626ef09d4e21e1a8894ec,6735ed1112d949321619a187,2024-11-14_12h29.04.996,Tarea de género gramatical,2024.2.2,Win32,59.88023952,,,,,,,,,,,,,,,,,,,,,,,198.0737,199.0408,a,0,[],[],[],[],[],[],[],0.301,0,199.0424,199.5405,,,,,,74,FEM,CON,150,flor,,a,0.301,,199.543,199.5449,-0.080555527,-0.375,0,0,0,,0,56,56,73,1,,,,
,,,,,,5132aa126e564394813288ca,66a626ef09d4e21e1a8894ec,6735ed1112d949321619a187,2024-11-14_12h29.04.996,Tarea de género gramatical,2024.2.2,Win32,59.88023952,,,,,,,,,,,,,,,,,,,,,,,199.5462,200.9402,l,1,[],[],[],[],[],[],[],0.7184,1,200.9418,201.4406,,,,,,176,FEM,CON,150,línea,,a,0.7184,,201.4407,201.441,-0.080555527,-0.375,0,0,0,,0,57,57,175,1,,,,
,,,,,,5132aa126e564394813288ca,66a626ef09d4e21e1a8894ec,6735ed1112d949321619a187,2024-11-14_12h29.04.996,Tarea de género gramatical,2024.2.2,Win32,59.88023952,,,,,,,,,,,,,,,,,,,,,,,201.4435,202.9225,a,1,[],[],[],[],[],[],[],0.8057,1,202.9226,203.4234,,,,,,294,MAS,DIS,150,cable,la,l,0.8057,,203.4236,203.4237,-0.080555527,-0.375,0,0,0,,0,58,58,293,1,,,,
,,,,,,5132aa126e564394813288ca,66a626ef09d4e21e1a8894ec,6735ed1112d949321619a187,2024-11-14_12h29.04.996,Tarea de género gramatical,2024.2.2,Win32,59.88023952,,,,,,,,,,,,,,,,,,,,,,,203.4257,204.8395,l,1,[],[],[],[],[],[],[],0.7357,1,204.8397,205.3387,,,,,,427,FEM,AGR,150,agenda,la,a,0.7357,,205.3388,205.339,-0.080555527,-0.375,0,0,0,,0,59,59,426,1,,,,
,,,,,,5132aa126e564394813288ca,66a626ef09d4e21e1a8894ec,6735ed1112d949321619a187,2024-11-14_12h29.04.996,Tarea de género gramatical,2024.2.2,Win32,59.88023952,,,,,,,,,,,,,,,,,,,,,,,205.341,206.5718,l,1,[],[],[],[],[],[],[],0.554,1,206.572,207.072,,,,,,200,FEM,CON,150,silla,,a,0.554,,207.0745,207.0764,-0.080555527,-0.375,0,0,0,,0,60,60,199,1,,,,
,,,,,,5132aa126e564394813288ca,66a626ef09d4e21e1a8894ec,6735ed1112d949321619a187,2024-11-14_12h29.04.996,Tarea de género gramatical,2024.2.2,Win32,59.88023952,,,,,,,,,,,,,,,,,,,,,,,207.0778,208.2369,l,1,[],[],[],[],[],[],[],0.4915,1,208.2371,208.7375,,,,,,236,FEM,CON,150,deuda,,a,0.4915,,208.7376,208.7378,-0.080555527,-0.375,0,0,0,,0,61,61,235,1,,,,
,,,,,,5132aa126e564394813288ca,66a626ef09d4e21e1a8894ec,6735ed1112d949321619a187,2024-11-14_12h29.04.996,Tarea de género gramatical,2024.2.2,Win32,59.88023952,,,,,,,,,,,,,,,,,,,,,,,208.7397,209.8707,a,1,[],[],[],[],[],[],[],0.4517,1,209.871,210.3698,,,,,,48,MAS,DIS,150,loco,la,l,0.4517,,210.3699,210.3701,-0.080555527,-0.375,0,0,0,,0,62,62,47,1,,,,
,,,,,,5132aa126e564394813288ca,66a626ef09d4e21e1a8894ec,6735ed1112d949321619a187,2024-11-14_12h29.04.996,Tarea de género gramatical,2024.2.2,Win32,59.88023952,,,,,,,,,,,,,,,,,,,,,,,210.3733,211.6705,a,1,[],[],[],[],[],[],[],0.6188,1,211.6708,212.17,,,,,,238,MAS,AGR,150,norte,el,l,0.6188,,212.1701,212.1703,-0.080555527,-0.375,0,0,0,,0,63,63,237,1,,,,
,,,,,,5132aa126e564394813288ca,66a626ef09d4e21e1a8894ec,6735ed1112d949321619a187,2024-11-14_12h29.04.996,Tarea de género gramatical,2024.2.2,Win32,59.88023952,,,,,,,,,,,,,,,,,,,,,,,212.1729,213.3187,l,1,[],[],[],[],[],[],[],0.4691,1,213.3188,213.8196,,,,,,272,FEM,CON,150,oreja,,a,0.4691,,213.8197,213.8198,-0.080555527,-0.375,0,0,0,,0,64,64,271,1,,,,
,,,,,,5132aa126e564394813288ca,66a626ef09d4e21e1a8894ec,6735ed1112d949321619a187,2024-11-14_12h29.04.996,Tarea de género gramatical,2024.2.2,Win32,59.88023952,,,,,,,,,,,,,,,,,,,,,,,213.8221,214.9517,a,0,[],[],[],[],[],[],[],0.4552,0,214.9531,215.4522,,,,,,319,FEM,AGR,150,sangre,la,a,0.4552,,215.455,215.4569,-0.080555527,-0.375,0,0,0,,0,65,65,318,1,,,,
,,,,,,5132aa126e564394813288ca,66a626ef09d4e21e1a8894ec,6735ed1112d949321619a187,2024-11-14_12h29.04.996,Tarea de género gramatical,2024.2.2,Win32,59.88023952,,,,,,,,,,,,,,,,,,,,,,,215.4583,216.7684,a,1,[],[],[],[],[],[],[],0.6323,1,216.7702,217.2683,,,,,,360,MAS,DIS,150,puente,la,l,0.6323,,217.2687,217.269,-0.080555527,-0.375,0,0,0,,0,66,66,359,1,,,,
,,,,,,5132aa126e564394813288ca,66a626ef09d4e21e1a8894ec,6735ed1112d949321619a187,2024-11-14_12h29.04.996,Tarea de género gramatical,2024.2.2,Win32,59.88023952,,,,,,,,,,,,,,,,,,,,,,,217.2717,218.4846,l,1,[],[],[],[],[],[],[],0.5312,1,218.4848,218.9835,,,,,,8,FEM,CON,150,idea,,a,0.5312,,218.9837,218.9839,-0.080555527,-0.375,0,0,0,,0,67,67,7,1,,,,
,,,,,,5132aa126e564394813288ca,66a626ef09d4e21e1a8894ec,6735ed1112d949321619a187,2024-11-14_12h29.04.996,Tarea de género gramatical,2024.2.2,Win32,59.88023952,,,,,,,,,,,,,,,,,,,,,,,218.9861,220.067,l,1,[],[],[],[],[],[],[],0.4047,1,220.0673,220.5673,,,,,,381,FEM,DIS,150,bebida,el,a,0.4047,,220.5675,220.5678,-0.080555527,-0.375,0,0,0,,0,68,68,380,1,,,,
,,,,,,5132aa126e564394813288ca,66a626ef09d4e21e1a8894ec,6735ed1112d949321619a187,2024-11-14_12h29.04.996,Tarea de género gramatical,2024.2.2,Win32,59.88023952,,,,,,,,,,,,,,,,,,,,,,,220.5705,221.7163,a,0,[],[],[],[],[],[],[],0.4672,0,221.7184,222.216,,,,,,362,FEM,CON,150,fuente,,a,0.4672,,222.2188,222.221,-0.080555527,-0.375,0,0,0,,0,69,69,361,1,,,,
,,,,,,5132aa126e564394813288ca,66a626ef09d4e21e1a8894ec,6735ed1112d949321619a187,2024-11-14_12h29.04.996,Tarea de género gramatical,2024.2.2,Win32,59.88023952,,,,,,,,,,,,,,,,,,,,,,,222.2227,223.6651,a,0,[],[],[],[],[],[],[],0.7724,0,223.6653,224.1657,,,,,,135,FEM,DIS,150,raíz,el,a,0.7724,,224.1657,224.1659,-0.080555527,-0.375,0,0,0,,0,70,70,134,1,,,,
,,,,,,5132aa126e564394813288ca,66a626ef09d4e21e1a8894ec,6735ed1112d949321619a187,2024-11-14_12h29.04.996,Tarea de género gramatical,2024.2.2,Win32,59.88023952,,,,,,,,,,,,,,,,,,,,,,,224.1679,225.4142,a,1,[],[],[],[],[],[],[],0.5709,1,225.4162,225.9151,,,,,,305,MAS,CON,150,hombre,,l,0.5709,,225.9152,225.9153,-0.080555527,-0.375,0,0,0,,0,71,71,304,1,,,,
,,,,,,5132aa126e564394813288ca,66a626ef09d4e21e1a8894ec,6735ed1112d949321619a187,2024-11-14_12h29.04.996,Tarea de género gramatical,2024.2.2,Win32,59.88023952,,,,,,,,,,,,,,,,,,,,,,,225.9174,227.2312,l,1,[],[],[],[],[],[],[],0.6335,1,227.2315,227.7309,,,,,,152,FEM,CON,150,gente,,a,0.6335,,227.731,227.7311,-0.080555527,-0.375,0,0,0,,0,72,72,151,1,,,,
,,,,,,5132aa126e564394813288ca,66a626ef09d4e21e1a8894ec,6735ed1112d949321619a187,2024-11-14_12h29.04.996,Tarea de género gramatical,2024.2.2,Win32,59.88023952,,,,,,,,,,,,,,,,,,,,,,,227.7332,228.7303,l,1,[],[],[],[],[],[],[],0.3178,1,228.7304,229.2314,,,,,,248,FEM,CON,150,letra,,a,0.3178,,229.2315,229.2317,-0.080555527,-0.375,0,0,0,,0,73,73,247,1,,,,
,,,,,,5132aa126e564394813288ca,66a626ef09d4e21e1a8894ec,6735ed1112d949321619a187,2024-11-14_12h29.04.996,Tarea de género gramatical,2024.2.2,Win32,59.88023952,,,,,,,,,,,,,,,,,,,,,,,229.2341,230.214,l,1,[],[],[],[],[],[],[],0.302,1,230.2142,230.7139,,,,,,37,FEM,AGR,150,sala,la,a,0.302,,230.718,230.7215,-0.080555527,-0.375,0,0,0,,0,74,74,36,1,,,,
,,,,,,5132aa126e564394813288ca,66a626ef09d4e21e1a8894ec,6735ed1112d949321619a187,2024-11-14_12h29.04.996,Tarea de género gramatical,2024.2.2,Win32,59.88023952,,,,,,,,,,,,,,,,,,,,,,,230.7236,231.6791,a,0,[],[],[],[],[],[],[],0.2866,0,231.6811,232.1799,,,,,,165,FEM,DIS,150,amiga,el,a,0.2866,,232.1801,232.1803,-0.080555527,-0.375,0,0,0,,0,75,75,164,1,,,,
,,,,,,5132aa126e564394813288ca,66a626ef09d4e21e1a8894ec,6735ed1112d949321619a187,2024-11-14_12h29.04.996,Tarea de género gramatical,2024.2.2,Win32,59.88023952,,,,,,,,,,,,,,,,,,,,,,,232.1828,233.1958,a,0,[],[],[],[],[],[],[],0.3339,0,233.1961,233.6959,,,,,,151,FEM,AGR,150,noche,la,a,0.3339,,233.696,233.6963,-0.080555527,-0.375,0,0,0,,0,76,76,150,1,,,,
,,,,,,5132aa126e564394813288ca,66a626ef09d4e21e1a8894ec,6735ed1112d949321619a187,2024-11-14_12h29.04.996,Tarea de género gramatical,2024.2.2,Win32,59.88023952,,,,,,,,,,,,,,,,,,,,,,,233.6992,234.6613,l,1,[],[],[],[],[],[],[],0.2871,1,234.6628,235.1621,,,,,,69,FEM,DIS,150,rata,el,a,0.2871,,235.1623,235.1624,-0.080555527,-0.375,0,0,0,,0,77,77,68,1,,,,
,,,,,,5132aa126e564394813288ca,66a626ef09d4e21e1a8894ec,6735ed1112d949321619a187,2024-11-14_12h29.04.996,Tarea de género gramatical,2024.2.2,Win32,59.88023952,,,,,,,,,,,,,,,,,,,,,,,235.1646,236.0285,l,1,[],[],[],[],[],[],[],0.184,1,236.0287,236.5273,,,,,,159,FEM,DIS,150,clase,el,a,0.184,,236.5292,236.5311,-0.080555527,-0.375,0,0,0,,0,78,78,158,1,,,,
,,,,,,5132aa126e564394813288ca,66a626ef09d4e21e1a8894ec,6735ed1112d949321619a187,2024-11-14_12h29.04.996,Tarea de género gramatical,2024.2.2,Win32,59.88023952,,,,,,,,,,,,,,,,,,,,,,,236.5327,237.494,l,1,[],[],[],[],[],[],[],0.2905,1,237.4941,237.9946,,,,,,140,FEM,CON,150,mula,,a,0.2905,,237.9948,237.995,-0.080555527,-0.375,0,0,0,,0,79,79,139,1,,,,
,,,,,,5132aa126e564394813288ca,66a626ef09d4e21e1a8894ec,6735ed1112d949321619a187,2024-11-14_12h29.04.996,Tarea de género gramatical,2024.2.2,Win32,59.88023952,,,,,,,,,,,,,,,,,,,,,,,237.9971,238.994,l,1,[],[],[],[],[],[],[],0.3186,1,238.9943,239.4941,,,,,,369,FEM,DIS,150,camisa,el,a,0.3186,,239.4942,239.4945,-0.080555527,-0.375,0,0,0,,0,80,80,368,1,,,,
,,,,,,5132aa126e564394813288ca,66a626ef09d4e21e1a8894ec,6735ed1112d949321619a187,2024-11-14_12h29.04.996,Tarea de género gramatical,2024.2.2,Win32,59.88023952,,,,,,,,,,,,,,,,,,,,,,,239.4967,240.6264,a,1,[],[],[],[],[],[],[],0.4514,1,240.6266,241.1269,,,,,,262,MAS,AGR,150,video,el,l,0.4514,,241.127,241.1272,-0.080555527,-0.375,0,0,0,,0,81,81,261,1,,,,
,,,,,,5132aa126e564394813288ca,66a626ef09d4e21e1a8894ec,6735ed1112d949321619a187,2024-11-14_12h29.04.996,Tarea de género gramatical,2024.2.2,Win32,59.88023952,,,,,,,,,,,,,,,,,,,,,,,241.1295,242.1931,l,1,[],[],[],[],[],[],[],0.3871,1,242.1934,242.6926,,,,,,91,FEM,AGR,150,hoja,la,a,0.3871,,242.6927,242.6929,-0.080555527,-0.375,0,0,0,,0,82,82,90,1,,,,
,,,,,,5132aa126e564394813288ca,66a626ef09d4e21e1a8894ec,6735ed1112d949321619a187,2024-11-14_12h29.04.996,Tarea de género gramatical,2024.2.2,Win32,59.88023952,,,,,,,,,,,,,,,,,,,,,,,242.6948,243.7258,l,1,[],[],[],[],[],[],[],0.3541,1,243.726,244.2261,,,,,,109,FEM,AGR,150,gota,la,a,0.3541,,244.229,244.233,-0.080555527,-0.375,0,0,0,,0,83,83,108,1,,,,
,,,,,,5132aa126e564394813288ca,66a626ef09d4e21e1a8894ec,6735ed1112d949321619a187,2024-11-14_12h29.04.996,Tarea de género gramatical,2024.2.2,Win32,59.88023952,,,,,,,,,,,,,,,,,,,,,,,244.2351,245.3073,l,1,[],[],[],[],[],[],[],0.4017,1,245.3075,245.8082,,,,,,446,FEM,CON,150,bañera,,a,0.4017,,245.8083,245.8085,-0.080555527,-0.375,0,0,0,,0,84,84,445,1,,,,
,,,,,,5132aa126e564394813288ca,66a626ef09d4e21e1a8894ec,6735ed1112d949321619a187,2024-11-14_12h29.04.996,Tarea de género gramatical,2024.2.2,Win32,59.88023952,,,,,,,,,,,,,,,,,,,,,,,245.8104,247.0404,a,1,[],[],[],[],[],[],[],0.5607,1,247.0405,247.5402,,,,,,270,MAS,DIS,150,queso,la,l,0.5607,,247.5402,247.5403,-0.080555527,-0.375,0,0,0,,0,85,85,269,1,,,,
,,,,,,5132aa126e564394813288ca,66a626ef09d4e21e1a8894ec,6735ed1112d949321619a187,2024-11-14_12h29.04.996,Tarea de género gramatical,2024.2.2,Win32,59.88023952,,,,,,,,,,,,,,,,,,,,,,,247.5411,248.5738,l,0,[],[],[],[],[],[],[],0.3716,0,248.5753,249.0736,,,,,,412,MAS,AGR,150,espejo,el,l,0.3716,,249.0737,249.0739,-0.080555527,-0.375,0,0,0,,0,86,86,411,1,,,,
,,,,,,5132aa126e564394813288ca,66a626ef09d4e21e1a8894ec,6735ed1112d949321619a187,2024-11-14_12h29.04.996,Tarea de género gramatical,2024.2.2,Win32,59.88023952,,,,,,,,,,,,,,,,,,,,,,,249.0761,250.1236,l,1,[],[],[],[],[],[],[],0.3702,1,250.1259,250.6237,,,,,,110,FEM,CON,150,rosa,,a,0.3702,,250.6263,250.6288,-0.080555527,-0.375,0,0,0,,0,87,87,109,1,,,,
,,,,,,5132aa126e564394813288ca,66a626ef09d4e21e1a8894ec,6735ed1112d949321619a187,2024-11-14_12h29.04.996,Tarea de género gramatical,2024.2.2,Win32,59.88023952,,,,,,,,,,,,,,,,,,,,,,,250.6302,251.8228,a,1,[],[],[],[],[],[],[],0.5181,1,251.8231,252.3222,,,,,,299,MAS,CON,150,rumbo,,l,0.5181,,252.3223,252.3225,-0.080555527,-0.375,0,0,0,,0,88,88,298,1,,,,
,,,,,,5132aa126e564394813288ca,66a626ef09d4e21e1a8894ec,6735ed1112d949321619a187,2024-11-14_12h29.04.996,Tarea de género gramatical,2024.2.2,Win32,59.88023952,,,,,,,,,,,,,,,,,,,,,,,252.3251,253.5044,l,0,[],[],[],[],[],[],[],0.4978,0,253.5064,254.0061,,,,,,130,MAS,AGR,150,yate,el,l,0.4978,,254.0062,254.0064,-0.080555527,-0.375,0,0,0,,0,89,89,129,1,,,,
,,,,,,5132aa126e564394813288ca,66a626ef09d4e21e1a8894ec,6735ed1112d949321619a187,2024-11-14_12h29.04.996,Tarea de género gramatical,2024.2.2,Win32,59.88023952,,,,,,,,,,,,,,,,,,,,,,,254.0091,255.137,l,1,[],[],[],[],[],[],[],0.4524,1,255.1383,255.6383,,,,,,415,FEM,AGR,150,cabina,la,a,0.4524,,255.6384,255.6387,-0.080555527,-0.375,0,0,0,,0,90,90,414,1,,,,
,,,,,,5132aa126e564394813288ca,66a626ef09d4e21e1a8894ec,6735ed1112d949321619a187,2024-11-14_12h29.04.996,Tarea de género gramatical,2024.2.2,Win32,59.88023952,,,,,,,,,,,,,,,,,,,,,,,255.6407,256.6375,l,1,[],[],[],[],[],[],[],0.3197,1,256.6376,257.1379,,,,,,241,FEM,AGR,150,pasta,la,a,0.3197,,257.138,257.1381,-0.080555527,-0.375,0,0,0,,0,91,91,240,1,,,,
,,,,,,5132aa126e564394813288ca,66a626ef09d4e21e1a8894ec,6735ed1112d949321619a187,2024-11-14_12h29.04.996,Tarea de género gramatical,2024.2.2,Win32,59.88023952,,,,,,,,,,,,,,,,,,,,,,,257.1401,258.1049,l,1,[],[],[],[],[],[],[],0.2852,1,258.1052,258.6033,,,,,,320,FEM,CON,150,fiesta,,a,0.2852,,258.6039,258.6043,-0.080555527,-0.375,0,0,0,,0,92,92,319,1,,,,
,,,,,,5132aa126e564394813288ca,66a626ef09d4e21e1a8894ec,6735ed1112d949321619a187,2024-11-14_12h29.04.996,Tarea de género gramatical,2024.2.2,Win32,59.88023952,,,,,,,,,,,,,,,,,,,,,,,258.6051,259.686,l,1,[],[],[],[],[],[],[],0.4086,1,259.6861,260.1868,,,,,,343,FEM,AGR,150,trampa,la,a,0.4086,,260.187,260.1872,-0.080555527,-0.375,0,0,0,,0,93,93,342,1,,,,
,,,,,,5132aa126e564394813288ca,66a626ef09d4e21e1a8894ec,6735ed1112d949321619a187,2024-11-14_12h29.04.996,Tarea de género gramatical,2024.2.2,Win32,59.88023952,,,,,,,,,,,,,,,,,,,,,,,260.1896,260.987,a,0,[],[],[],[],[],[],[],0.1186,0,260.9889,261.4864,,,,,,213,FEM,DIS,150,magia,el,a,0.1186,,261.4866,261.4868,-0.080555527,-0.375,0,0,0,,0,94,94,212,1,,,,
,,,,,,5132aa126e564394813288ca,66a626ef09d4e21e1a8894ec,6735ed1112d949321619a187,2024-11-14_12h29.04.996,Tarea de género gramatical,2024.2.2,Win32,59.88023952,,,,,,,,,,,,,,,,,,,,,,,261.489,262.4193,l,0,[],[],[],[],[],[],[],0.2534,0,262.4195,262.9186,,,,,,324,MAS,DIS,150,cuarto,la,l,0.2534,,262.9187,262.9189,-0.080555527,-0.375,0,0,0,,0,95,95,323,1,,,,
,,,,,,5132aa126e564394813288ca,66a626ef09d4e21e1a8894ec,6735ed1112d949321619a187,2024-11-14_12h29.04.996,Tarea de género gramatical,2024.2.2,Win32,59.88023952,,,,,,,,,,,,,,,,,,,,,,,262.9216,264.069,l,0,[],[],[],[],[],[],[],0.4646,0,264.0691,264.5673,,,,,,384,MAS,DIS,150,pedazo,la,l,0.4646,,264.5679,264.5684,-0.080555527,-0.375,0,0,0,,0,96,96,383,1,,,,
,,,,,,5132aa126e564394813288ca,66a626ef09d4e21e1a8894ec,6735ed1112d949321619a187,2024-11-14_12h29.04.996,Tarea de género gramatical,2024.2.2,Win32,59.88023952,,,,,,,,,,,,,,,,,,,,,,,264.5691,265.6178,a,1,[],[],[],[],[],[],[],0.376,1,265.6192,266.1183,,,,,,161,MAS,CON,150,chico,,l,0.376,,266.1184,266.1186,-0.080555527,-0.375,0,0,0,,0,97,97,160,1,,,,
,,,,,,5132aa126e564394813288ca,66a626ef09d4e21e1a8894ec,6735ed1112d949321619a187,2024-11-14_12h29.04.996,Tarea de género gramatical,2024.2.2,Win32,59.88023952,,,,,,,,,,,,,,,,,,,,,,,266.1206,267.3509,l,1,[],[],[],[],[],[],[],0.5499,1,267.3511,267.8497,,,,,,301,FEM,AGR,150,verdad,la,a,0.5499,,267.8497,267.8497,-0.080555527,-0.375,0,0,0,,0,98,98,300,1,,,,
,,,,,,5132aa126e564394813288ca,66a626ef09d4e21e1a8894ec,6735ed1112d949321619a187,2024-11-14_12h29.04.996,Tarea de género gramatical,2024.2.2,Win32,59.88023952,,,,,,,,,,,,,,,,,,,,,,,267.8505,269.083,l,1,[],[],[],[],[],[],[],0.5714,1,269.0831,269.5835,,,,,,237,FEM,DIS,150,ducha,el,a,0.5714,,269.5836,269.5838,-0.080555527,-0.375,0,0,0,,0,99,99,236,1,,,,
,,,,,,5132aa126e564394813288ca,66a626ef09d4e21e1a8894ec,6735ed1112d949321619a187,2024-11-14_12h29.04.996,Tarea de género gramatical,2024.2.2,Win32,59.88023952,,,,,,,,,,,,,,,,,,,,,,,269.5869,270.6999,a,1,[],[],[],[],[],[],[],0.4335,1,270.7,271.1993,,,,,,330,MAS,DIS,150,estado,la,l,0.4335,,271.1994,271.1996,-0.080555527,-0.375,0,0,0,,0,100,100,329,1,,,,
,,,,,,5132aa126e564394813288ca,66a626ef09d4e21e1a8894ec,6735ed1112d949321619a187,2024-11-14_12h29.04.996,Tarea de género gramatical,2024.2.2,Win32,59.88023952,,,,,,,,,,,,,,,,,,,,,,,271.2016,272.2823,l,1,[],[],[],[],[],[],[],0.4088,1,272.2824,272.7827,,,,,,440,FEM,CON,150,patada,,a,0.4088,,272.7852,272.7871,-0.080555527,-0.375,0,0,0,,0,101,101,439,1,,,,
,,,,,,5132aa126e564394813288ca,66a626ef09d4e21e1a8894ec,6735ed1112d949321619a187,2024-11-14_12h29.04.996,Tarea de género gramatical,2024.2.2,Win32,59.88023952,,,,,,,,,,,,,,,,,,,,,,,272.7885,273.7991,l,1,[],[],[],[],[],[],[],0.3353,1,273.7993,274.2986,,,,,,247,FEM,AGR,150,frase,la,a,0.3353,,274.2987,274.2989,-0.080555527,-0.375,0,0,0,,0,102,102,246,1,,,,
,,,,,,5132aa126e564394813288ca,66a626ef09d4e21e1a8894ec,6735ed1112d949321619a187,2024-11-14_12h29.04.996,Tarea de género gramatical,2024.2.2,Win32,59.88023952,,,,,,,,,,,,,,,,,,,,,,,274.3009,275.4636,l,1,[],[],[],[],[],[],[],0.4803,1,275.4637,275.9643,,,,,,139,FEM,AGR,150,pipa,la,a,0.4803,,275.9644,275.9646,-0.080555527,-0.375,0,0,0,,0,103,103,138,1,,,,
,,,,,,5132aa126e564394813288ca,66a626ef09d4e21e1a8894ec,6735ed1112d949321619a187,2024-11-14_12h29.04.996,Tarea de género gramatical,2024.2.2,Win32,59.88023952,,,,,,,,,,,,,,,,,,,,,,,275.9667,277.0627,a,1,[],[],[],[],[],[],[],0.4145,1,277.0627,277.5633,,,,,,137,MAS,CON,150,coco,,l,0.4145,,277.5635,277.5637,-0.080555527,-0.375,0,0,0,,0,104,104,136,1,,,,
,,,,,,5132aa126e564394813288ca,66a626ef09d4e21e1a8894ec,6735ed1112d949321619a187,2024-11-14_12h29.04.996,Tarea de género gramatical,2024.2.2,Win32,59.88023952,,,,,,,,,,,,,,,,,,,,,,,277.5659,278.6472,a,1,[],[],[],[],[],[],[],0.4043,1,278.6474,279.1466,,,,,,347,MAS,CON,150,cuello,,l,0.4043,,279.149,279.151,-0.080555527,-0.375,0,0,0,,0,105,105,346,1,,,,
,,,,,,5132aa126e564394813288ca,66a626ef09d4e21e1a8894ec,6735ed1112d949321619a187,2024-11-14_12h29.04.996,Tarea de género gramatical,2024.2.2,Win32,59.88023952,,,,,,,,,,,,,,,,,,,,,,,279.1523,280.2958,a,1,[],[],[],[],[],[],[],0.4682,1,280.296,280.7962,,,,,,167,MAS,CON,150,juego,,l,0.4682,,280.7963,280.7965,-0.080555527,-0.375,0,0,0,,0,106,106,166,1,,,,
,,,,,,5132aa126e564394813288ca,66a626ef09d4e21e1a8894ec,6735ed1112d949321619a187,2024-11-14_12h29.04.996,Tarea de género gramatical,2024.2.2,Win32,59.88023952,,,,,,,,,,,,,,,,,,,,,,,280.7989,281.862,a,1,[],[],[],[],[],[],[],0.386,1,281.8621,282.3624,,,,,,264,MAS,DIS,150,pollo,la,l,0.386,,282.3625,282.3627,-0.080555527,-0.375,0,0,0,,0,107,107,263,1,,,,
,,,,,,5132aa126e564394813288ca,66a626ef09d4e21e1a8894ec,6735ed1112d949321619a187,2024-11-14_12h29.04.996,Tarea de género gramatical,2024.2.2,Win32,59.88023952,,,,,,,,,,,,,,,,,,,,,,,282.365,283.395,a,1,[],[],[],[],[],[],[],0.3533,1,283.3951,283.8952,,,,,,414,MAS,DIS,150,sótano,la,l,0.3533,,283.8953,283.8955,-0.080555527,-0.375,0,0,0,,0,108,108,413,1,,,,
,,,,,,5132aa126e564394813288ca,66a626ef09d4e21e1a8894ec,6735ed1112d949321619a187,2024-11-14_12h29.04.996,Tarea de género gramatical,2024.2.2,Win32,59.88023952,,,,,,,,,,,,,,,,,,,,,,,283.8978,285.0285,a,1,[],[],[],[],[],[],[],0.452,1,285.0288,285.5281,,,,,,178,MAS,AGR,150,punto,el,l,0.452,,285.5282,285.5283,-0.080555527,-0.375,0,0,0,,0,109,109,177,1,,,,
,,,,,,5132aa126e564394813288ca,66a626ef09d4e21e1a8894ec,6735ed1112d949321619a187,2024-11-14_12h29.04.996,Tarea de género gramatical,2024.2.2,Win32,59.88023952,,,,,,,,,,,,,,,,,,,,,,,285.5301,286.4774,a,1,[],[],[],[],[],[],[],0.2766,1,286.4776,286.9777,,,,,,180,MAS,DIS,150,fuego,la,l,0.2766,,286.98,286.9818,-0.080555527,-0.375,0,0,0,,0,110,110,179,1,,,,
,,,,,,5132aa126e564394813288ca,66a626ef09d4e21e1a8894ec,6735ed1112d949321619a187,2024-11-14_12h29.04.996,Tarea de género gramatical,2024.2.2,Win32,59.88023952,,,,,,,,,,,,,,,,,,,,,,,286.9832,288.0095,l,1,[],[],[],[],[],[],[],0.3574,1,288.0095,288.5102,,,,,,50,FEM,CON,150,dama,,a,0.3574,,288.5103,288.5106,-0.080555527,-0.375,0,0,0,,0,111,111,49,1,,,,
,,,,,,5132aa126e564394813288ca,66a626ef09d4e21e1a8894ec,6735ed1112d949321619a187,2024-11-14_12h29.04.996,Tarea de género gramatical,2024.2.2,Win32,59.88023952,,,,,,,,,,,,,,,,,,,,,,,288.5135,289.7933,a,0,[],[],[],[],[],[],[],0.6008,0,289.7946,290.2929,,,,,,86,FEM,CON,150,cruz,,a,0.6008,,290.2929,290.2932,-0.080555527,-0.375,0,0,0,,0,112,112,85,1,,,,
,,,,,,5132aa126e564394813288ca,66a626ef09d4e21e1a8894ec,6735ed1112d949321619a187,2024-11-14_12h29.04.996,Tarea de género gramatical,2024.2.2,Win32,59.88023952,,,,,,,,,,,,,,,,,,,,,,,290.2958,291.3251,l,1,[],[],[],[],[],[],[],0.3581,1,291.3264,291.8251,,,,,,61,FEM,AGR,150,ruta,la,a,0.3581,,291.8252,291.8252,-0.080555527,-0.375,0,0,0,,0,113,113,60,1,,,,
,,,,,,5132aa126e564394813288ca,66a626ef09d4e21e1a8894ec,6735ed1112d949321619a187,2024-11-14_12h29.04.996,Tarea de género gramatical,2024.2.2,Win32,59.88023952,,,,,,,,,,,,,,,,,,,,,,,291.8261,293.0246,a,1,[],[],[],[],[],[],[],0.5305,1,293.0247,293.5251,,,,,,444,MAS,DIS,150,límite,la,l,0.5305,,293.5275,293.5298,-0.080555527,-0.375,0,0,0,,0,114,114,443,1,,,,
,,,,,,5132aa126e564394813288ca,66a626ef09d4e21e1a8894ec,6735ed1112d949321619a187,2024-11-14_12h29.04.996,Tarea de género gramatical,2024.2.2,Win32,59.88023952,,,,,,,,,,,,,,,,,,,,,,,293.5311,294.6068,a,1,[],[],[],[],[],[],[],0.4033,1,294.607,295.1085,,,,,,100,MAS,AGR,150,nido,el,l,0.4033,,295.1086,295.1089,-0.080555527,-0.375,0,0,0,,0,115,115,99,1,,,,
,,,,,,5132aa126e564394813288ca,66a626ef09d4e21e1a8894ec,6735ed1112d949321619a187,2024-11-14_12h29.04.996,Tarea de género gramatical,2024.2.2,Win32,59.88023952,,,,,,,,,,,,,,,,,,,,,,,295.1115,296.2577,l,1,[],[],[],[],[],[],[],0.4707,1,296.2578,296.7563,,,,,,45,FEM,DIS,150,isla,el,a,0.4707,,296.7563,296.7565,-0.080555527,-0.375,0,0,0,,0,116,116,44,1,,,,
,,,,,,5132aa126e564394813288ca,66a626ef09d4e21e1a8894ec,6735ed1112d949321619a187,2024-11-14_12h29.04.996,Tarea de género gramatical,2024.2.2,Win32,59.88023952,,,,,,,,,,,,,,,,,,,,,,,296.7589,297.8572,a,1,[],[],[],[],[],[],[],0.4161,1,297.8573,298.3574,,,,,,192,MAS,DIS,150,grupo,la,l,0.4161,,298.3575,298.3577,-0.080555527,-0.375,0,0,0,,0,117,117,191,1,,,,
,,,,,,5132aa126e564394813288ca,66a626ef09d4e21e1a8894ec,6735ed1112d949321619a187,2024-11-14_12h29.04.996,Tarea de género gramatical,2024.2.2,Win32,59.88023952,,,,,,,,,,,,,,,,,,,,,,,298.3604,299.5553,a,1,[],[],[],[],[],[],[],0.519,1,299.5555,300.0565,,,,,,142,MAS,AGR,150,lodo,el,l,0.519,,300.0566,300.0567,-0.080555527,-0.375,0,0,0,,0,118,118,141,1,,,,
,,,,,,5132aa126e564394813288ca,66a626ef09d4e21e1a8894ec,6735ed1112d949321619a187,2024-11-14_12h29.04.996,Tarea de género gramatical,2024.2.2,Win32,59.88023952,,,,,,,,,,,,,,,,,,,,,,,300.0589,301.1893,a,1,[],[],[],[],[],[],[],0.452,1,301.1895,301.689,,,,,,29,MAS,CON,150,frío,,l,0.452,,301.6917,301.6951,-0.080555527,-0.375,0,0,0,,0,119,119,28,1,,,,
,,,,,,5132aa126e564394813288ca,66a626ef09d4e21e1a8894ec,6735ed1112d949321619a187,2024-11-14_12h29.04.996,Tarea de género gramatical,2024.2.2,Win32,59.88023952,,,,,,,,,,,,,,,,,,,,,,,301.6967,302.8055,a,1,[],[],[],[],[],[],[],0.4363,1,302.8057,303.305,,,,,,64,MAS,AGR,150,saco,el,l,0.4363,,303.3051,303.3052,-0.080555527,-0.375,0,0,0,,0,120,120,63,1,,,,
,,,,,,5132aa126e564394813288ca,66a626ef09d4e21e1a8894ec,6735ed1112d949321619a187,2024-11-14_12h29.04.996,Tarea de género gramatical,2024.2.2,Win32,59.88023952,,,,,,,,,,,,,,,,,,,,,,,303.3074,304.4718,l,1,[],[],[],[],[],[],[],0.4852,1,304.4721,304.9718,,,,,,21,FEM,DIS,150,boca,el,a,0.4852,,304.9719,304.972,-0.080555527,-0.375,0,0,0,,0,121,121,20,1,,,,
,,,,,,5132aa126e564394813288ca,66a626ef09d4e21e1a8894ec,6735ed1112d949321619a187,2024-11-14_12h29.04.996,Tarea de género gramatical,2024.2.2,Win32,59.88023952,,,,,,,,,,,,,,,,,,,,,,,304.9743,305.8536,a,1,[],[],[],[],[],[],[],0.2041,1,305.8538,306.3536,,,,,,210,MAS,DIS,150,baile,la,l,0.2041,,306.3536,306.3538,-0.080555527,-0.375,0,0,0,,0,122,122,209,1,,,,
,,,,,,5132aa126e564394813288ca,66a626ef09d4e21e1a8894ec,6735ed1112d949321619a187,2024-11-14_12h29.04.996,Tarea de género gramatical,2024.2.2,Win32,59.88023952,,,,,,,,,,,,,,,,,,,,,,,306.3557,307.3707,a,0,[],[],[],[],[],[],[],0.3348,0,307.3724,307.87,,,,,,133,FEM,AGR,150,joya,la,a,0.3348,,307.8724,307.8742,-0.080555527,-0.375,0,0,0,,0,123,123,132,1,,,,
,,,,,,5132aa126e564394813288ca,66a626ef09d4e21e1a8894ec,6735ed1112d949321619a187,2024-11-14_12h29.04.996,Tarea de género gramatical,2024.2.2,Win32,59.88023952,,,,,,,,,,,,,,,,,,,,,,,307.8757,309.0028,a,1,[],[],[],[],[],[],[],0.4565,1,309.0041,309.5035,,,,,,334,MAS,AGR,150,ataque,el,l,0.4565,,309.5035,309.5038,-0.080555527,-0.375,0,0,0,,0,124,124,333,1,,,,
,,,,,,5132aa126e564394813288ca,66a626ef09d4e21e1a8894ec,6735ed1112d949321619a187,2024-11-14_12h29.04.996,Tarea de género gramatical,2024.2.2,Win32,59.88023952,,,,,,,,,,,,,,,,,,,,,,,309.5059,310.8185,a,1,[],[],[],[],[],[],[],0.6339,1,310.8186,311.3189,,,,,,35,MAS,CON,150,taxi,,l,0.6339,,311.319,311.3192,-0.080555527,-0.375,0,0,0,,0,125,125,34,1,,,,
,,,,,,5132aa126e564394813288ca,66a626ef09d4e21e1a8894ec,6735ed1112d949321619a187,2024-11-14_12h29.04.996,Tarea de género gramatical,2024.2.2,Win32,59.88023952,,,,,,,,,,,,,,,,,,,,,,,311.3211,312.4682,l,1,[],[],[],[],[],[],[],0.4698,1,312.4683,312.9688,,,,,,205,FEM,AGR,150,reina,la,a,0.4698,,312.969,312.9691,-0.080555527,-0.375,0,0,0,,0,126,126,204,1,,,,
,,,,,,5132aa126e564394813288ca,66a626ef09d4e21e1a8894ec,6735ed1112d949321619a187,2024-11-14_12h29.04.996,Tarea de género gramatical,2024.2.2,Win32,59.88023952,,,,,,,,,,,,,,,,,,,,,,,312.9712,314.0519,l,1,[],[],[],[],[],[],[],0.404,1,314.0521,314.5514,,,,,,265,FEM,AGR,150,rueda,la,a,0.404,,314.5514,314.5515,-0.080555527,-0.375,0,0,0,,0,127,127,264,1,,,,
,,,,,,5132aa126e564394813288ca,66a626ef09d4e21e1a8894ec,6735ed1112d949321619a187,2024-11-14_12h29.04.996,Tarea de género gramatical,2024.2.2,Win32,59.88023952,,,,,,,,,,,,,,,,,,,,,,,314.5569,315.6182,a,1,[],[],[],[],[],[],[],0.3846,1,315.6184,316.1164,,,,,,419,MAS,CON,150,cuento,,l,0.3846,,316.1182,316.1195,-0.080555527,-0.375,0,0,0,,0,128,128,418,1,,,,
,,,,,,5132aa126e564394813288ca,66a626ef09d4e21e1a8894ec,6735ed1112d949321619a187,2024-11-14_12h29.04.996,Tarea de género gramatical,2024.2.2,Win32,59.88023952,,,,,,,,,,,,,,,,,,,,,,,316.1204,317.1999,a,1,[],[],[],[],[],[],[],0.4003,1,317.2001,317.7,,,,,,310,MAS,AGR,150,nombre,el,l,0.4003,,317.7001,317.7004,-0.080555527,-0.375,0,0,0,,0,129,129,309,1,,,,
,,,,,,5132aa126e564394813288ca,66a626ef09d4e21e1a8894ec,6735ed1112d949321619a187,2024-11-14_12h29.04.996,Tarea de género gramatical,2024.2.2,Win32,59.88023952,,,,,,,,,,,,,,,,,,,,,,,317.703,318.7656,a,1,[],[],[],[],[],[],[],0.3934,1,318.7657,319.2654,,,,,,340,MAS,AGR,150,pasado,el,l,0.3934,,319.2654,319.2655,-0.080555527,-0.375,0,0,0,,0,130,130,339,1,,,,
,,,,,,5132aa126e564394813288ca,66a626ef09d4e21e1a8894ec,6735ed1112d949321619a187,2024-11-14_12h29.04.996,Tarea de género gramatical,2024.2.2,Win32,59.88023952,,,,,,,,,,,,,,,,,,,,,,,319.2665,320.4147,l,1,[],[],[],[],[],[],[],0.468,1,320.4149,320.9146,,,,,,410,FEM,CON,150,piedad,,a,0.468,,320.9146,320.9147,-0.080555527,-0.375,0,0,0,,0,131,131,409,1,,,,
,,,,,,5132aa126e564394813288ca,66a626ef09d4e21e1a8894ec,6735ed1112d949321619a187,2024-11-14_12h29.04.996,Tarea de género gramatical,2024.2.2,Win32,59.88023952,,,,,,,,,,,,,,,,,,,,,,,320.9157,321.9682,l,1,[],[],[],[],[],[],[],0.3951,1,321.9685,322.4652,,,,,,295,FEM,AGR,150,grasa,la,a,0.3951,,322.4677,322.4696,-0.080555527,-0.375,0,0,0,,0,132,132,294,1,,,,
,,,,,,5132aa126e564394813288ca,66a626ef09d4e21e1a8894ec,6735ed1112d949321619a187,2024-11-14_12h29.04.996,Tarea de género gramatical,2024.2.2,Win32,59.88023952,,,,,,,,,,,,,,,,,,,,,,,322.471,323.6316,l,1,[],[],[],[],[],[],[],0.484,1,323.6319,324.1317,,,,,,212,FEM,CON,150,cinta,,a,0.484,,324.1318,324.132,-0.080555527,-0.375,0,0,0,,0,133,133,211,1,,,,
,,,,,,5132aa126e564394813288ca,66a626ef09d4e21e1a8894ec,6735ed1112d949321619a187,2024-11-14_12h29.04.996,Tarea de género gramatical,2024.2.2,Win32,59.88023952,,,,,,,,,,,,,,,,,,,,,,,324.1345,325.2305,l,1,[],[],[],[],[],[],[],0.4209,1,325.2307,325.7303,,,,,,291,FEM,DIS,150,aguja,el,a,0.4209,,325.7303,325.7305,-0.080555527,-0.375,0,0,0,,0,134,134,290,1,,,,
,,,,,,5132aa126e564394813288ca,66a626ef09d4e21e1a8894ec,6735ed1112d949321619a187,2024-11-14_12h29.04.996,Tarea de género gramatical,2024.2.2,Win32,59.88023952,,,,,,,,,,,,,,,,,,,,,,,325.7314,326.7806,l,1,[],[],[],[],[],[],[],0.3709,1,326.7808,327.2799,,,,,,146,FEM,CON,150,lana,,a,0.3709,,327.2799,327.2801,-0.080555527,-0.375,0,0,0,,0,135,135,145,1,,,,
,,,,,,5132aa126e564394813288ca,66a626ef09d4e21e1a8894ec,6735ed1112d949321619a187,2024-11-14_12h29.04.996,Tarea de género gramatical,2024.2.2,Win32,59.88023952,,,,,,,,,,,,,,,,,,,,,,,327.2818,328.3122,l,1,[],[],[],[],[],[],[],0.3544,1,328.3124,328.8119,,,,,,259,FEM,AGR,150,prima,la,a,0.3544,,328.8119,328.812,-0.080555527,-0.375,0,0,0,,0,136,136,258,1,,,,
,,,,,,5132aa126e564394813288ca,66a626ef09d4e21e1a8894ec,6735ed1112d949321619a187,2024-11-14_12h29.04.996,Tarea de género gramatical,2024.2.2,Win32,59.88023952,,,,,,,,,,,,,,,,,,,,,,,328.8128,329.9795,l,1,[],[],[],[],[],[],[],0.4875,1,329.9798,330.4784,,,,,,121,FEM,AGR,150,pila,la,a,0.4875,,330.4813,330.4833,-0.080555527,-0.375,0,0,0,,0,137,137,120,1,,,,
,,,,,,5132aa126e564394813288ca,66a626ef09d4e21e1a8894ec,6735ed1112d949321619a187,2024-11-14_12h29.04.996,Tarea de género gramatical,2024.2.2,Win32,59.88023952,,,,,,,,,,,,,,,,,,,,,,,330.4851,331.4613,l,1,[],[],[],[],[],[],[],0.3083,1,331.4613,331.9625,,,,,,115,FEM,AGR,150,seda,la,a,0.3083,,331.9626,331.9628,-0.080555527,-0.375,0,0,0,,0,138,138,114,1,,,,
,,,,,,5132aa126e564394813288ca,66a626ef09d4e21e1a8894ec,6735ed1112d949321619a187,2024-11-14_12h29.04.996,Tarea de género gramatical,2024.2.2,Win32,59.88023952,,,,,,,,,,,,,,,,,,,,,,,331.9681,332.9789,l,1,[],[],[],[],[],[],[],0.334,1,332.9792,333.4779,,,,,,206,FEM,CON,150,época,,a,0.334,,333.478,333.4783,-0.080555527,-0.375,0,0,0,,0,139,139,205,1,,,,
,,,,,,5132aa126e564394813288ca,66a626ef09d4e21e1a8894ec,6735ed1112d949321619a187,2024-11-14_12h29.04.996,Tarea de género gramatical,2024.2.2,Win32,59.88023952,,,,,,,,,,,,,,,,,,,,,,,333.4807,334.3779,l,1,[],[],[],[],[],[],[],0.2188,1,334.3782,334.8763,,,,,,231,FEM,DIS,150,bruja,el,a,0.2188,,334.8764,334.8765,-0.080555527,-0.375,0,0,0,,0,140,140,230,1,,,,
,,,,,,5132aa126e564394813288ca,66a626ef09d4e21e1a8894ec,6735ed1112d949321619a187,2024-11-14_12h29.04.996,Tarea de género gramatical,2024.2.2,Win32,59.88023952,,,,,,,,,,,,,,,,,,,,,,,334.878,336.0092,a,1,[],[],[],[],[],[],[],0.459,1,336.0093,336.5087,,,,,,96,MAS,DIS,150,pato,la,l,0.459,,336.5094,336.5101,-0.080555527,-0.375,0,0,0,,0,141,141,95,1,,,,
,,,,,,5132aa126e564394813288ca,66a626ef09d4e21e1a8894ec,6735ed1112d949321619a187,2024-11-14_12h29.04.996,Tarea de género gramatical,2024.2.2,Win32,59.88023952,,,,,,,,,,,,,,,,,,,,,,,336.5108,337.6084,l,0,[],[],[],[],[],[],[],0.4261,0,337.6088,338.1085,,,,,,438,MAS,DIS,150,tanque,la,l,0.4261,,338.1086,338.1086,-0.080555527,-0.375,0,0,0,,0,142,142,437,1,,,,
,,,,,,5132aa126e564394813288ca,66a626ef09d4e21e1a8894ec,6735ed1112d949321619a187,2024-11-14_12h29.04.996,Tarea de género gramatical,2024.2.2,Win32,59.88023952,,,,,,,,,,,,,,,,,,,,,,,338.1091,339.6245,l,0,[],[],[],[],[],[],[],0.8375,0,339.6246,340.1246,,,,,,78,MAS,DIS,150,oído,la,l,0.8375,,340.1246,340.1247,-0.080555527,-0.375,0,0,0,,0,143,143,77,1,,,,
,,,,,,5132aa126e564394813288ca,66a626ef09d4e21e1a8894ec,6735ed1112d949321619a187,2024-11-14_12h29.04.996,Tarea de género gramatical,2024.2.2,Win32,59.88023952,,,,,,,,,,,,,,,,,,,,,,,340.1252,341.341,a,1,[],[],[],[],[],[],[],0.5393,1,341.3417,341.8414,,,,,,59,MAS,CON,150,lobo,,l,0.5393,,341.8415,341.8416,-0.080555527,-0.375,0,0,0,,0,144,144,58,1,,,,
,,,,,,5132aa126e564394813288ca,66a626ef09d4e21e1a8894ec,6735ed1112d949321619a187,2024-11-14_12h29.04.996,Tarea de género gramatical,2024.2.2,Win32,59.88023952,,,,,,,,,,,,,,,,,,,,,,,341.8425,343.0245,l,1,[],[],[],[],[],[],[],0.5029,1,343.0246,343.5242,,,,,,435,FEM,DIS,150,niebla,el,a,0.5029,,343.5243,343.5244,-0.080555527,-0.375,0,0,0,,0,145,145,434,1,,,,
,,,,,,5132aa126e564394813288ca,66a626ef09d4e21e1a8894ec,6735ed1112d949321619a187,2024-11-14_12h29.04.996,Tarea de género gramatical,2024.2.2,Win32,59.88023952,,,,,,,,,,,,,,,,,,,,,,,343.5259,344.8745,a,1,[],[],[],[],[],[],[],0.6679,1,344.8746,345.3737,,,,,,413,MAS,CON,150,diario,,l,0.6679,,345.3757,345.3774,-0.080555527,-0.375,0,0,0,,0,146,146,412,1,,,,
,,,,,,5132aa126e564394813288ca,66a626ef09d4e21e1a8894ec,6735ed1112d949321619a187,2024-11-14_12h29.04.996,Tarea de género gramatical,2024.2.2,Win32,59.88023952,,,,,,,,,,,,,,,,,,,,,,,345.379,346.5398,l,1,[],[],[],[],[],[],[],0.486,1,346.5399,347.04,,,,,,194,FEM,CON,150,banda,,a,0.486,,347.0402,347.0403,-0.080555527,-0.375,0,0,0,,0,147,147,193,1,,,,
,,,,,,5132aa126e564394813288ca,66a626ef09d4e21e1a8894ec,6735ed1112d949321619a187,2024-11-14_12h29.04.996,Tarea de género gramatical,2024.2.2,Win32,59.88023952,,,,,,,,,,,,,,,,,,,,,,,347.0424,348.1891,l,1,[],[],[],[],[],[],[],0.4714,1,348.1893,348.6891,,,,,,403,FEM,AGR,150,paliza,la,a,0.4714,,348.6892,348.6894,-0.080555527,-0.375,0,0,0,,0,148,148,402,1,,,,
,,,,,,5132aa126e564394813288ca,66a626ef09d4e21e1a8894ec,6735ed1112d949321619a187,2024-11-14_12h29.04.996,Tarea de género gramatical,2024.2.2,Win32,59.88023952,,,,,,,,,,,,,,,,,,,,,,,348.6916,349.7398,l,1,[],[],[],[],[],[],[],0.3661,1,349.7399,350.2392,,,,,,315,FEM,DIS,150,manera,el,a,0.3661,,350.2393,350.2394,-0.080555527,-0.375,0,0,0,,0,149,149,314,1,,,,
,,,,,,5132aa126e564394813288ca,66a626ef09d4e21e1a8894ec,6735ed1112d949321619a187,2024-11-14_12h29.04.996,Tarea de género gramatical,2024.2.2,Win32,59.88023952,,,,,,,,,,,,,,,,,,,,,,,350.2417,351.322,l,1,[],[],[],[],[],[],[],0.409,1,351.3222,351.822,,,,,,409,FEM,AGR,150,moneda,la,a,0.409,,351.8244,357.1707,-0.080555527,-0.375,0,0,0,space,0,150,150,408,1,5.3175,,,
,,,,,,5132aa126e564394813288ca,66a626ef09d4e21e1a8894ec,6735ed1112d949321619a187,2024-11-14_12h29.04.996,Tarea de género gramatical,2024.2.2,Win32,59.88023952,,,,,,,,,,,,,,,,,,,,,,,357.1732,358.4862,a,1,[],[],[],[],[],[],[],0.6371,1,358.4863,358.9851,,,,,,366,MAS,DIS,150,riesgo,la,l,0.6371,,358.9851,358.9853,-0.080555527,-0.375,0,0,0,,0,151,151,365,1,,,,
,,,,,,5132aa126e564394813288ca,66a626ef09d4e21e1a8894ec,6735ed1112d949321619a187,2024-11-14_12h29.04.996,Tarea de género gramatical,2024.2.2,Win32,59.88023952,,,,,,,,,,,,,,,,,,,,,,,358.9864,360.0688,a,1,[],[],[],[],[],[],[],0.4038,1,360.0689,360.5692,,,,,,209,MAS,CON,150,banco,,l,0.4038,,360.5693,360.5694,-0.080555527,-0.375,0,0,0,,0,152,152,208,1,,,,
,,,,,,5132aa126e564394813288ca,66a626ef09d4e21e1a8894ec,6735ed1112d949321619a187,2024-11-14_12h29.04.996,Tarea de género gramatical,2024.2.2,Win32,59.88023952,,,,,,,,,,,,,,,,,,,,,,,360.5714,361.5852,l,1,[],[],[],[],[],[],[],0.3372,1,361.5854,362.0854,,,,,,309,FEM,DIS,150,esposa,el,a,0.3372,,362.0855,362.0857,-0.080555527,-0.375,0,0,0,,0,153,153,308,1,,,,
,,,,,,5132aa126e564394813288ca,66a626ef09d4e21e1a8894ec,6735ed1112d949321619a187,2024-11-14_12h29.04.996,Tarea de género gramatical,2024.2.2,Win32,59.88023952,,,,,,,,,,,,,,,,,,,,,,,362.0878,363.0503,l,1,[],[],[],[],[],[],[],0.2833,1,363.0504,363.5502,,,,,,75,FEM,DIS,150,caza,el,a,0.2833,,363.5502,363.5503,-0.080555527,-0.375,0,0,0,,0,154,154,74,1,,,,
,,,,,,5132aa126e564394813288ca,66a626ef09d4e21e1a8894ec,6735ed1112d949321619a187,2024-11-14_12h29.04.996,Tarea de género gramatical,2024.2.2,Win32,59.88023952,,,,,,,,,,,,,,,,,,,,,,,363.5507,364.6828,a,0,[],[],[],[],[],[],[],0.45,0,364.6836,365.1832,,,,,,350,FEM,CON,150,imagen,,a,0.45,,365.1854,365.1874,-0.080555527,-0.375,0,0,0,,0,155,155,349,1,,,,
,,,,,,5132aa126e564394813288ca,66a626ef09d4e21e1a8894ec,6735ed1112d949321619a187,2024-11-14_12h29.04.996,Tarea de género gramatical,2024.2.2,Win32,59.88023952,,,,,,,,,,,,,,,,,,,,,,,365.189,366.3007,a,0,[],[],[],[],[],[],[],0.4446,0,366.3009,366.8008,,,,,,111,FEM,DIS,150,goma,el,a,0.4446,,366.8009,366.8011,-0.080555527,-0.375,0,0,0,,0,156,156,110,1,,,,
,,,,,,5132aa126e564394813288ca,66a626ef09d4e21e1a8894ec,6735ed1112d949321619a187,2024-11-14_12h29.04.996,Tarea de género gramatical,2024.2.2,Win32,59.88023952,,,,,,,,,,,,,,,,,,,,,,,366.8038,367.9485,a,1,[],[],[],[],[],[],[],0.4689,1,367.9494,368.4493,,,,,,232,MAS,AGR,150,calor,el,l,0.4689,,368.4494,368.4496,-0.080555527,-0.375,0,0,0,,0,157,157,231,1,,,,
,,,,,,5132aa126e564394813288ca,66a626ef09d4e21e1a8894ec,6735ed1112d949321619a187,2024-11-14_12h29.04.996,Tarea de género gramatical,2024.2.2,Win32,59.88023952,,,,,,,,,,,,,,,,,,,,,,,368.4519,369.6989,l,1,[],[],[],[],[],[],[],0.5679,1,369.6991,370.1997,,,,,,261,FEM,DIS,150,cueva,el,a,0.5679,,370.1998,370.2001,-0.080555527,-0.375,0,0,0,,0,158,158,260,1,,,,
,,,,,,5132aa126e564394813288ca,66a626ef09d4e21e1a8894ec,6735ed1112d949321619a187,2024-11-14_12h29.04.996,Tarea de género gramatical,2024.2.2,Win32,59.88023952,,,,,,,,,,,,,,,,,,,,,,,370.2026,371.4816,a,1,[],[],[],[],[],[],[],0.6029,1,371.4817,371.9812,,,,,,132,MAS,DIS,150,velo,la,l,0.6029,,371.9835,371.9854,-0.080555527,-0.375,0,0,0,,0,159,159,131,1,,,,
,,,,,,5132aa126e564394813288ca,66a626ef09d4e21e1a8894ec,6735ed1112d949321619a187,2024-11-14_12h29.04.996,Tarea de género gramatical,2024.2.2,Win32,59.88023952,,,,,,,,,,,,,,,,,,,,,,,371.9868,373.0302,l,1,[],[],[],[],[],[],[],0.3712,1,373.0303,373.5319,,,,,,351,FEM,DIS,150,espada,el,a,0.3712,,373.532,373.5322,-0.080555527,-0.375,0,0,0,,0,160,160,350,1,,,,
,,,,,,5132aa126e564394813288ca,66a626ef09d4e21e1a8894ec,6735ed1112d949321619a187,2024-11-14_12h29.04.996,Tarea de género gramatical,2024.2.2,Win32,59.88023952,,,,,,,,,,,,,,,,,,,,,,,373.5348,374.5808,l,1,[],[],[],[],[],[],[],0.3769,1,374.5809,375.0791,,,,,,164,FEM,CON,150,novia,,a,0.3769,,375.0792,375.0793,-0.080555527,-0.375,0,0,0,,0,161,161,163,1,,,,
,,,,,,5132aa126e564394813288ca,66a626ef09d4e21e1a8894ec,6735ed1112d949321619a187,2024-11-14_12h29.04.996,Tarea de género gramatical,2024.2.2,Win32,59.88023952,,,,,,,,,,,,,,,,,,,,,,,375.0799,376.1793,a,1,[],[],[],[],[],[],[],0.4353,1,376.1794,376.6805,,,,,,352,MAS,AGR,150,estilo,el,l,0.4353,,376.6806,376.6809,-0.080555527,-0.375,0,0,0,,0,162,162,351,1,,,,
,,,,,,5132aa126e564394813288ca,66a626ef09d4e21e1a8894ec,6735ed1112d949321619a187,2024-11-14_12h29.04.996,Tarea de género gramatical,2024.2.2,Win32,59.88023952,,,,,,,,,,,,,,,,,,,,,,,376.6832,377.73,l,1,[],[],[],[],[],[],[],0.3674,1,377.7302,378.2292,,,,,,27,FEM,DIS,150,mesa,el,a,0.3674,,378.2292,378.2294,-0.080555527,-0.375,0,0,0,,0,163,163,26,1,,,,
,,,,,,5132aa126e564394813288ca,66a626ef09d4e21e1a8894ec,6735ed1112d949321619a187,2024-11-14_12h29.04.996,Tarea de género gramatical,2024.2.2,Win32,59.88023952,,,,,,,,,,,,,,,,,,,,,,,378.2308,379.3125,l,1,[],[],[],[],[],[],[],0.4023,1,379.3126,379.8121,,,,,,98,FEM,CON,150,fuga,,a,0.4023,,379.8147,379.8166,-0.080555527,-0.375,0,0,0,,0,164,164,97,1,,,,
,,,,,,5132aa126e564394813288ca,66a626ef09d4e21e1a8894ec,6735ed1112d949321619a187,2024-11-14_12h29.04.996,Tarea de género gramatical,2024.2.2,Win32,59.88023952,,,,,,,,,,,,,,,,,,,,,,,379.8181,380.811,l,1,[],[],[],[],[],[],[],0.3187,1,380.8112,381.3119,,,,,,387,FEM,DIS,150,página,el,a,0.3187,,381.312,381.3121,-0.080555527,-0.375,0,0,0,,0,165,165,386,1,,,,
,,,,,,5132aa126e564394813288ca,66a626ef09d4e21e1a8894ec,6735ed1112d949321619a187,2024-11-14_12h29.04.996,Tarea de género gramatical,2024.2.2,Win32,59.88023952,,,,,,,,,,,,,,,,,,,,,,,381.3143,382.2117,l,1,[],[],[],[],[],[],[],0.2221,1,382.2118,382.711,,,,,,44,FEM,CON,150,zona,,a,0.2221,,382.7111,382.7114,-0.080555527,-0.375,0,0,0,,0,166,166,43,1,,,,
,,,,,,5132aa126e564394813288ca,66a626ef09d4e21e1a8894ec,6735ed1112d949321619a187,2024-11-14_12h29.04.996,Tarea de género gramatical,2024.2.2,Win32,59.88023952,,,,,,,,,,,,,,,,,,,,,,,382.7139,383.7773,a,1,[],[],[],[],[],[],[],0.3922,1,383.7774,384.2771,,,,,,22,MAS,AGR,150,pelo,el,l,0.3922,,384.2772,384.2773,-0.080555527,-0.375,0,0,0,,0,167,167,21,1,,,,
,,,,,,5132aa126e564394813288ca,66a626ef09d4e21e1a8894ec,6735ed1112d949321619a187,2024-11-14_12h29.04.996,Tarea de género gramatical,2024.2.2,Win32,59.88023952,,,,,,,,,,,,,,,,,,,,,,,384.2808,385.2927,l,1,[],[],[],[],[],[],[],0.3359,1,385.2928,385.7935,,,,,,332,FEM,CON,150,basura,,a,0.3359,,385.7961,385.7982,-0.080555527,-0.375,0,0,0,,0,168,168,331,1,,,,
,,,,,,5132aa126e564394813288ca,66a626ef09d4e21e1a8894ec,6735ed1112d949321619a187,2024-11-14_12h29.04.996,Tarea de género gramatical,2024.2.2,Win32,59.88023952,,,,,,,,,,,,,,,,,,,,,,,385.7998,386.7104,l,1,[],[],[],[],[],[],[],0.2349,1,386.7105,387.2091,,,,,,188,FEM,CON,150,bomba,,a,0.2349,,387.2091,387.2093,-0.080555527,-0.375,0,0,0,,0,169,169,187,1,,,,
,,,,,,5132aa126e564394813288ca,66a626ef09d4e21e1a8894ec,6735ed1112d949321619a187,2024-11-14_12h29.04.996,Tarea de género gramatical,2024.2.2,Win32,59.88023952,,,,,,,,,,,,,,,,,,,,,,,387.2115,388.326,a,1,[],[],[],[],[],[],[],0.434,1,388.3262,388.8254,,,,,,250,MAS,AGR,150,cerdo,el,l,0.434,,388.8254,388.8255,-0.080555527,-0.375,0,0,0,,0,170,170,249,1,,,,
,,,,,,5132aa126e564394813288ca,66a626ef09d4e21e1a8894ec,6735ed1112d949321619a187,2024-11-14_12h29.04.996,Tarea de género gramatical,2024.2.2,Win32,59.88023952,,,,,,,,,,,,,,,,,,,,,,,388.8273,389.7755,l,1,[],[],[],[],[],[],[],0.2692,1,389.7757,390.2753,,,,,,81,FEM,DIS,150,cima,el,a,0.2692,,390.2754,390.2758,-0.080555527,-0.375,0,0,0,,0,171,171,80,1,,,,
,,,,,,5132aa126e564394813288ca,66a626ef09d4e21e1a8894ec,6735ed1112d949321619a187,2024-11-14_12h29.04.996,Tarea de género gramatical,2024.2.2,Win32,59.88023952,,,,,,,,,,,,,,,,,,,,,,,390.2778,391.3418,a,0,[],[],[],[],[],[],[],0.3855,0,391.3433,391.8419,,,,,,49,FEM,AGR,150,piel,la,a,0.3855,,391.842,391.8422,-0.080555527,-0.375,0,0,0,,0,172,172,48,1,,,,
,,,,,,5132aa126e564394813288ca,66a626ef09d4e21e1a8894ec,6735ed1112d949321619a187,2024-11-14_12h29.04.996,Tarea de género gramatical,2024.2.2,Win32,59.88023952,,,,,,,,,,,,,,,,,,,,,,,391.8441,392.8748,l,1,[],[],[],[],[],[],[],0.3526,1,392.8766,393.3731,,,,,,87,FEM,DIS,150,risa,el,a,0.3526,,393.3742,393.3756,-0.080555527,-0.375,0,0,0,,0,173,173,86,1,,,,
,,,,,,5132aa126e564394813288ca,66a626ef09d4e21e1a8894ec,6735ed1112d949321619a187,2024-11-14_12h29.04.996,Tarea de género gramatical,2024.2.2,Win32,59.88023952,,,,,,,,,,,,,,,,,,,,,,,393.3763,394.3737,l,1,[],[],[],[],[],[],[],0.3184,1,394.3739,394.8743,,,,,,439,FEM,AGR,150,toalla,la,a,0.3184,,394.8744,394.8747,-0.080555527,-0.375,0,0,0,,0,174,174,438,1,,,,
,,,,,,5132aa126e564394813288ca,66a626ef09d4e21e1a8894ec,6735ed1112d949321619a187,2024-11-14_12h29.04.996,Tarea de género gramatical,2024.2.2,Win32,59.88023952,,,,,,,,,,,,,,,,,,,,,,,394.8772,395.8406,l,1,[],[],[],[],[],[],[],0.2861,1,395.8408,396.34,,,,,,355,FEM,AGR,150,mirada,la,a,0.2861,,396.3401,396.3403,-0.080555527,-0.375,0,0,0,,0,175,175,354,1,,,,
,,,,,,5132aa126e564394813288ca,66a626ef09d4e21e1a8894ec,6735ed1112d949321619a187,2024-11-14_12h29.04.996,Tarea de género gramatical,2024.2.2,Win32,59.88023952,,,,,,,,,,,,,,,,,,,,,,,396.3426,397.3396,l,1,[],[],[],[],[],[],[],0.3177,1,397.3399,397.8388,,,,,,277,FEM,AGR,150,plaza,la,a,0.3177,,397.8389,397.8391,-0.080555527,-0.375,0,0,0,,0,176,176,276,1,,,,
,,,,,,5132aa126e564394813288ca,66a626ef09d4e21e1a8894ec,6735ed1112d949321619a187,2024-11-14_12h29.04.996,Tarea de género gramatical,2024.2.2,Win32,59.88023952,,,,,,,,,,,,,,,,,,,,,,,397.8413,398.8223,l,1,[],[],[],[],[],[],[],0.3023,1,398.8224,399.3227,,,,,,399,FEM,DIS,150,charla,el,a,0.3023,,399.3254,399.3276,-0.080555527,-0.375,0,0,0,,0,177,177,398,1,,,,
,,,,,,5132aa126e564394813288ca,66a626ef09d4e21e1a8894ec,6735ed1112d949321619a187,2024-11-14_12h29.04.996,Tarea de género gramatical,2024.2.2,Win32,59.88023952,,,,,,,,,,,,,,,,,,,,,,,399.3292,400.3385,l,1,[],[],[],[],[],[],[],0.3371,1,400.3387,400.8387,,,,,,93,FEM,DIS,150,lata,el,a,0.3371,,400.8387,400.839,-0.080555527,-0.375,0,0,0,,0,178,178,92,1,,,,
,,,,,,5132aa126e564394813288ca,66a626ef09d4e21e1a8894ec,6735ed1112d949321619a187,2024-11-14_12h29.04.996,Tarea de género gramatical,2024.2.2,Win32,59.88023952,,,,,,,,,,,,,,,,,,,,,,,400.8409,401.9877,a,1,[],[],[],[],[],[],[],0.4703,1,401.988,402.4883,,,,,,401,MAS,CON,150,abrigo,,l,0.4703,,402.4885,402.4886,-0.080555527,-0.375,0,0,0,,0,179,179,400,1,,,,
,,,,,,5132aa126e564394813288ca,66a626ef09d4e21e1a8894ec,6735ed1112d949321619a187,2024-11-14_12h29.04.996,Tarea de género gramatical,2024.2.2,Win32,59.88023952,,,,,,,,,,,,,,,,,,,,,,,402.4906,403.4205,a,1,[],[],[],[],[],[],[],0.2588,1,403.4206,403.9207,,,,,,101,MAS,CON,150,giro,,l,0.2588,,403.9207,403.921,-0.080555527,-0.375,0,0,0,,0,180,180,100,1,,,,
,,,,,,5132aa126e564394813288ca,66a626ef09d4e21e1a8894ec,6735ed1112d949321619a187,2024-11-14_12h29.04.996,Tarea de género gramatical,2024.2.2,Win32,59.88023952,,,,,,,,,,,,,,,,,,,,,,,403.9229,404.9362,l,1,[],[],[],[],[],[],[],0.3356,1,404.9362,405.4373,,,,,,338,FEM,CON,150,abuela,,a,0.3356,,405.4373,405.4376,-0.080555527,-0.375,0,0,0,,0,181,181,337,1,,,,
,,,,,,5132aa126e564394813288ca,66a626ef09d4e21e1a8894ec,6735ed1112d949321619a187,2024-11-14_12h29.04.996,Tarea de género gramatical,2024.2.2,Win32,59.88023952,,,,,,,,,,,,,,,,,,,,,,,405.4399,406.5184,a,1,[],[],[],[],[],[],[],0.3998,1,406.5185,407.0186,,,,,,216,MAS,DIS,150,éxito,la,l,0.3998,,407.0194,407.0205,-0.080555527,-0.375,0,0,0,,0,182,182,215,1,,,,
,,,,,,5132aa126e564394813288ca,66a626ef09d4e21e1a8894ec,6735ed1112d949321619a187,2024-11-14_12h29.04.996,Tarea de género gramatical,2024.2.2,Win32,59.88023952,,,,,,,,,,,,,,,,,,,,,,,407.0211,408.0181,l,1,[],[],[],[],[],[],[],0.3257,1,408.0182,408.5199,,,,,,302,FEM,CON,150,cabeza,,a,0.3257,,408.5199,408.5202,-0.080555527,-0.375,0,0,0,,0,183,183,301,1,,,,
,,,,,,5132aa126e564394813288ca,66a626ef09d4e21e1a8894ec,6735ed1112d949321619a187,2024-11-14_12h29.04.996,Tarea de género gramatical,2024.2.2,Win32,59.88023952,,,,,,,,,,,,,,,,,,,,,,,408.5222,409.5862,l,1,[],[],[],[],[],[],[],0.3854,1,409.5864,410.0851,,,,,,433,FEM,AGR,150,huella,la,a,0.3854,,410.0851,410.0853,-0.080555527,-0.375,0,0,0,,0,184,184,432,1,,,,
,,,,,,5132aa126e564394813288ca,66a626ef09d4e21e1a8894ec,6735ed1112d949321619a187,2024-11-14_12h29.04.996,Tarea de género gramatical,2024.2.2,Win32,59.88023952,,,,,,,,,,,,,,,,,,,,,,,410.0871,411.2185,a,1,[],[],[],[],[],[],[],0.4497,1,411.2187,411.7178,,,,,,226,MAS,AGR,150,color,el,l,0.4497,,411.718,411.7183,-0.080555527,-0.375,0,0,0,,0,185,185,225,1,,,,
,,,,,,5132aa126e564394813288ca,66a626ef09d4e21e1a8894ec,6735ed1112d949321619a187,2024-11-14_12h29.04.996,Tarea de género gramatical,2024.2.2,Win32,59.88023952,,,,,,,,,,,,,,,,,,,,,,,411.721,412.8179,a,1,[],[],[],[],[],[],[],0.4223,1,412.8182,413.3177,,,,,,292,MAS,AGR,150,piano,el,l,0.4223,,413.3203,413.3224,-0.080555527,-0.375,0,0,0,,0,186,186,291,1,,,,
,,,,,,5132aa126e564394813288ca,66a626ef09d4e21e1a8894ec,6735ed1112d949321619a187,2024-11-14_12h29.04.996,Tarea de género gramatical,2024.2.2,Win32,59.88023952,,,,,,,,,,,,,,,,,,,,,,,413.3241,414.4174,a,1,[],[],[],[],[],[],[],0.4195,1,414.4176,414.9171,,,,,,102,MAS,DIS,150,coro,la,l,0.4195,,414.9173,414.9174,-0.080555527,-0.375,0,0,0,,0,187,187,101,1,,,,
,,,,,,5132aa126e564394813288ca,66a626ef09d4e21e1a8894ec,6735ed1112d949321619a187,2024-11-14_12h29.04.996,Tarea de género gramatical,2024.2.2,Win32,59.88023952,,,,,,,,,,,,,,,,,,,,,,,414.9195,415.9485,a,1,[],[],[],[],[],[],[],0.3519,1,415.9486,416.4503,,,,,,155,MAS,CON,150,mundo,,l,0.3519,,416.4503,416.4505,-0.080555527,-0.375,0,0,0,,0,188,188,154,1,,,,
,,,,,,5132aa126e564394813288ca,66a626ef09d4e21e1a8894ec,6735ed1112d949321619a187,2024-11-14_12h29.04.996,Tarea de género gramatical,2024.2.2,Win32,59.88023952,,,,,,,,,,,,,,,,,,,,,,,416.453,417.5328,l,1,[],[],[],[],[],[],[],0.4038,1,417.533,418.0328,,,,,,19,FEM,AGR,150,niña,la,a,0.4038,,418.0329,418.0331,-0.080555527,-0.375,0,0,0,,0,189,189,18,1,,,,
,,,,,,5132aa126e564394813288ca,66a626ef09d4e21e1a8894ec,6735ed1112d949321619a187,2024-11-14_12h29.04.996,Tarea de género gramatical,2024.2.2,Win32,59.88023952,,,,,,,,,,,,,,,,,,,,,,,418.0352,419.1475,a,1,[],[],[],[],[],[],[],0.4306,1,419.1475,419.6488,,,,,,450,MAS,DIS,150,conejo,la,l,0.4306,,419.6489,419.6492,-0.080555527,-0.375,0,0,0,,0,190,190,449,1,,,,
,,,,,,5132aa126e564394813288ca,66a626ef09d4e21e1a8894ec,6735ed1112d949321619a187,2024-11-14_12h29.04.996,Tarea de género gramatical,2024.2.2,Win32,59.88023952,,,,,,,,,,,,,,,,,,,,,,,419.6512,420.7484,a,1,[],[],[],[],[],[],[],0.4198,1,420.7486,421.2483,,,,,,306,MAS,DIS,150,dinero,la,l,0.4198,,421.2503,421.2523,-0.080555527,-0.375,0,0,0,,0,191,191,305,1,,,,
,,,,,,5132aa126e564394813288ca,66a626ef09d4e21e1a8894ec,6735ed1112d949321619a187,2024-11-14_12h29.04.996,Tarea de género gramatical,2024.2.2,Win32,59.88023952,,,,,,,,,,,,,,,,,,,,,,,421.254,422.3807,a,1,[],[],[],[],[],[],[],0.4532,1,422.3808,422.8817,,,,,,214,MAS,AGR,150,fondo,el,l,0.4532,,422.8819,422.8821,-0.080555527,-0.375,0,0,0,,0,192,192,213,1,,,,
,,,,,,5132aa126e564394813288ca,66a626ef09d4e21e1a8894ec,6735ed1112d949321619a187,2024-11-14_12h29.04.996,Tarea de género gramatical,2024.2.2,Win32,59.88023952,,,,,,,,,,,,,,,,,,,,,,,422.8867,423.8302,a,1,[],[],[],[],[],[],[],0.2689,1,423.8303,424.3308,,,,,,144,MAS,DIS,150,amor,la,l,0.2689,,424.3308,424.3311,-0.080555527,-0.375,0,0,0,,0,193,193,143,1,,,,
,,,,,,5132aa126e564394813288ca,66a626ef09d4e21e1a8894ec,6735ed1112d949321619a187,2024-11-14_12h29.04.996,Tarea de género gramatical,2024.2.2,Win32,59.88023952,,,,,,,,,,,,,,,,,,,,,,,424.3328,425.4637,l,1,[],[],[],[],[],[],[],0.4549,1,425.4638,425.9633,,,,,,99,FEM,DIS,150,fase,el,a,0.4549,,425.9635,425.9636,-0.080555527,-0.375,0,0,0,,0,194,194,98,1,,,,
,,,,,,5132aa126e564394813288ca,66a626ef09d4e21e1a8894ec,6735ed1112d949321619a187,2024-11-14_12h29.04.996,Tarea de género gramatical,2024.2.2,Win32,59.88023952,,,,,,,,,,,,,,,,,,,,,,,425.9658,427.1462,l,0,[],[],[],[],[],[],[],0.5022,0,427.1477,427.6457,,,,,,6,MAS,DIS,150,lado,la,l,0.5022,,427.648,427.6499,-0.080555527,-0.375,0,0,0,,0,195,195,5,1,,,,
,,,,,,5132aa126e564394813288ca,66a626ef09d4e21e1a8894ec,6735ed1112d949321619a187,2024-11-14_12h29.04.996,Tarea de género gramatical,2024.2.2,Win32,59.88023952,,,,,,,,,,,,,,,,,,,,,,,427.6515,428.7958,l,0,[],[],[],[],[],[],[],0.47,0,428.796,429.2957,,,,,,437,MAS,CON,150,hombro,,l,0.47,,429.2958,429.296,-0.080555527,-0.375,0,0,0,,0,196,196,436,1,,,,
,,,,,,5132aa126e564394813288ca,66a626ef09d4e21e1a8894ec,6735ed1112d949321619a187,2024-11-14_12h29.04.996,Tarea de género gramatical,2024.2.2,Win32,59.88023952,,,,,,,,,,,,,,,,,,,,,,,429.2986,430.4436,a,1,[],[],[],[],[],[],[],0.47,1,430.4445,430.945,,,,,,449,MAS,CON,150,payaso,,l,0.47,,430.9452,430.9454,-0.080555527,-0.375,0,0,0,,0,197,197,448,1,,,,
,,,,,,5132aa126e564394813288ca,66a626ef09d4e21e1a8894ec,6735ed1112d949321619a187,2024-11-14_12h29.04.996,Tarea de género gramatical,2024.2.2,Win32,59.88023952,,,,,,,,,,,,,,,,,,,,,,,430.9481,431.8777,l,1,[],[],[],[],[],[],[],0.2585,1,431.8777,432.3782,,,,,,361,FEM,AGR,150,oferta,la,a,0.2585,,432.3784,432.3786,-0.080555527,-0.375,0,0,0,,0,198,198,360,1,,,,
,,,,,,5132aa126e564394813288ca,66a626ef09d4e21e1a8894ec,6735ed1112d949321619a187,2024-11-14_12h29.04.996,Tarea de género gramatical,2024.2.2,Win32,59.88023952,,,,,,,,,,,,,,,,,,,,,,,432.3831,433.4433,a,1,[],[],[],[],[],[],[],0.3891,1,433.4435,433.9436,,,,,,173,MAS,CON,150,libro,,l,0.3891,,433.9436,433.9438,-0.080555527,-0.375,0,0,0,,0,199,199,172,1,,,,
,,,,,,5132aa126e564394813288ca,66a626ef09d4e21e1a8894ec,6735ed1112d949321619a187,2024-11-14_12h29.04.996,Tarea de género gramatical,2024.2.2,Win32,59.88023952,,,,,,,,,,,,,,,,,,,,,,,433.9458,435.0769,l,1,[],[],[],[],[],[],[],0.4485,1,435.0771,435.576,,,,,,56,FEM,CON,150,bola,,a,0.4485,,435.5785,435.5804,-0.080555527,-0.375,0,0,0,,0,200,200,55,1,,,,
,,,,,,5132aa126e564394813288ca,66a626ef09d4e21e1a8894ec,6735ed1112d949321619a187,2024-11-14_12h29.04.996,Tarea de género gramatical,2024.2.2,Win32,59.88023952,,,,,,,,,,,,,,,,,,,,,,,435.5817,436.693,l,1,[],[],[],[],[],[],[],0.4344,1,436.6931,437.1929,,,,,,345,FEM,DIS,150,pierna,el,a,0.4344,,437.1931,437.1933,-0.080555527,-0.375,0,0,0,,0,201,201,344,1,,,,
,,,,,,5132aa126e564394813288ca,66a626ef09d4e21e1a8894ec,6735ed1112d949321619a187,2024-11-14_12h29.04.996,Tarea de género gramatical,2024.2.2,Win32,59.88023952,,,,,,,,,,,,,,,,,,,,,,,437.1958,438.3751,a,1,[],[],[],[],[],[],[],0.5067,1,438.3753,438.8758,,,,,,240,MAS,DIS,150,ruido,la,l,0.5067,,438.8759,438.876,-0.080555527,-0.375,0,0,0,,0,202,202,239,1,,,,
,,,,,,5132aa126e564394813288ca,66a626ef09d4e21e1a8894ec,6735ed1112d949321619a187,2024-11-14_12h29.04.996,Tarea de género gramatical,2024.2.2,Win32,59.88023952,,,,,,,,,,,,,,,,,,,,,,,438.8784,439.8414,a,1,[],[],[],[],[],[],[],0.2947,1,439.8415,440.3414,,,,,,10,MAS,AGR,150,niño,el,l,0.2947,,440.3415,440.3419,-0.080555527,-0.375,0,0,0,,0,203,203,9,1,,,,
,,,,,,5132aa126e564394813288ca,66a626ef09d4e21e1a8894ec,6735ed1112d949321619a187,2024-11-14_12h29.04.996,Tarea de género gramatical,2024.2.2,Win32,59.88023952,,,,,,,,,,,,,,,,,,,,,,,440.3439,441.3579,a,1,[],[],[],[],[],[],[],0.3392,1,441.3581,441.8569,,,,,,244,MAS,AGR,150,hielo,el,l,0.3392,,441.8593,441.861,-0.080555527,-0.375,0,0,0,,0,204,204,243,1,,,,
,,,,,,5132aa126e564394813288ca,66a626ef09d4e21e1a8894ec,6735ed1112d949321619a187,2024-11-14_12h29.04.996,Tarea de género gramatical,2024.2.2,Win32,59.88023952,,,,,,,,,,,,,,,,,,,,,,,441.8624,442.9558,l,1,[],[],[],[],[],[],[],0.4142,1,442.9558,443.457,,,,,,405,FEM,DIS,150,parada,el,a,0.4142,,443.4572,443.4573,-0.080555527,-0.375,0,0,0,,0,205,205,404,1,,,,
,,,,,,5132aa126e564394813288ca,66a626ef09d4e21e1a8894ec,6735ed1112d949321619a187,2024-11-14_12h29.04.996,Tarea de género gramatical,2024.2.2,Win32,59.88023952,,,,,,,,,,,,,,,,,,,,,,,443.4594,444.5398,l,0,[],[],[],[],[],[],[],0.4109,0,444.5405,445.0395,,,,,,376,MAS,AGR,150,efecto,el,l,0.4109,,445.0395,445.0395,-0.080555527,-0.375,0,0,0,,0,206,206,375,1,,,,
,,,,,,5132aa126e564394813288ca,66a626ef09d4e21e1a8894ec,6735ed1112d949321619a187,2024-11-14_12h29.04.996,Tarea de género gramatical,2024.2.2,Win32,59.88023952,,,,,,,,,,,,,,,,,,,,,,,445.0403,446.2222,l,0,[],[],[],[],[],[],[],0.5071,0,446.2224,446.7219,,,,,,47,MAS,CON,150,olor,,l,0.5071,,446.7219,446.722,-0.080555527,-0.375,0,0,0,,0,207,207,46,1,,,,
,,,,,,5132aa126e564394813288ca,66a626ef09d4e21e1a8894ec,6735ed1112d949321619a187,2024-11-14_12h29.04.996,Tarea de género gramatical,2024.2.2,Win32,59.88023952,,,,,,,,,,,,,,,,,,,,,,,446.7236,447.7727,a,1,[],[],[],[],[],[],[],0.3671,1,447.7746,448.2708,,,,,,191,MAS,CON,150,dolor,,l,0.3671,,448.2709,448.271,-0.080555527,-0.375,0,0,0,,0,208,208,190,1,,,,
,,,,,,5132aa126e564394813288ca,66a626ef09d4e21e1a8894ec,6735ed1112d949321619a187,2024-11-14_12h29.04.996,Tarea de género gramatical,2024.2.2,Win32,59.88023952,,,,,,,,,,,,,,,,,,,,,,,448.2721,449.2543,l,1,[],[],[],[],[],[],[],0.3016,1,449.2545,449.7545,,,,,,134,FEM,CON,150,rama,,a,0.3016,,449.7573,449.7595,-0.080555527,-0.375,0,0,0,,0,209,209,133,1,,,,
,,,,,,5132aa126e564394813288ca,66a626ef09d4e21e1a8894ec,6735ed1112d949321619a187,2024-11-14_12h29.04.996,Tarea de género gramatical,2024.2.2,Win32,59.88023952,,,,,,,,,,,,,,,,,,,,,,,449.7612,451.1883,a,0,[],[],[],[],[],[],[],0.7512,0,451.1901,451.6881,,,,,,163,FEM,AGR,150,calle,la,a,0.7512,,451.6882,451.6884,-0.080555527,-0.375,0,0,0,,0,210,210,162,1,,,,
,,,,,,5132aa126e564394813288ca,66a626ef09d4e21e1a8894ec,6735ed1112d949321619a187,2024-11-14_12h29.04.996,Tarea de género gramatical,2024.2.2,Win32,59.88023952,,,,,,,,,,,,,,,,,,,,,,,451.693,452.8871,l,1,[],[],[],[],[],[],[],0.5213,1,452.8885,453.3875,,,,,,153,FEM,DIS,150,mujer,el,a,0.5213,,453.3876,453.3878,-0.080555527,-0.375,0,0,0,,0,211,211,152,1,,,,
,,,,,,5132aa126e564394813288ca,66a626ef09d4e21e1a8894ec,6735ed1112d949321619a187,2024-11-14_12h29.04.996,Tarea de género gramatical,2024.2.2,Win32,59.88023952,,,,,,,,,,,,,,,,,,,,,,,453.3893,454.587,a,1,[],[],[],[],[],[],[],0.5158,1,454.5872,455.0864,,,,,,418,MAS,AGR,150,pájaro,el,l,0.5158,,455.0864,455.0867,-0.080555527,-0.375,0,0,0,,0,212,212,417,1,,,,
,,,,,,5132aa126e564394813288ca,66a626ef09d4e21e1a8894ec,6735ed1112d949321619a187,2024-11-14_12h29.04.996,Tarea de género gramatical,2024.2.2,Win32,59.88023952,,,,,,,,,,,,,,,,,,,,,,,455.0888,456.3528,a,1,[],[],[],[],[],[],[],0.5848,1,456.353,456.8525,,,,,,220,MAS,AGR,150,huevo,el,l,0.5848,,456.8553,456.8576,-0.080555527,-0.375,0,0,0,,0,213,213,219,1,,,,
,,,,,,5132aa126e564394813288ca,66a626ef09d4e21e1a8894ec,6735ed1112d949321619a187,2024-11-14_12h29.04.996,Tarea de género gramatical,2024.2.2,Win32,59.88023952,,,,,,,,,,,,,,,,,,,,,,,456.8591,458.0183,l,1,[],[],[],[],[],[],[],0.492,1,458.0183,458.5187,,,,,,26,FEM,CON,150,pena,,a,0.492,,458.5188,458.5191,-0.080555527,-0.375,0,0,0,,0,214,214,25,1,,,,
,,,,,,5132aa126e564394813288ca,66a626ef09d4e21e1a8894ec,6735ed1112d949321619a187,2024-11-14_12h29.04.996,Tarea de género gramatical,2024.2.2,Win32,59.88023952,,,,,,,,,,,,,,,,,,,,,,,458.5212,459.7504,a,1,[],[],[],[],[],[],[],0.5476,1,459.7505,460.2512,,,,,,274,MAS,AGR,150,motor,el,l,0.5476,,460.2512,460.2515,-0.080555527,-0.375,0,0,0,,0,215,215,273,1,,,,
,,,,,,5132aa126e564394813288ca,66a626ef09d4e21e1a8894ec,6735ed1112d949321619a187,2024-11-14_12h29.04.996,Tarea de género gramatical,2024.2.2,Win32,59.88023952,,,,,,,,,,,,,,,,,,,,,,,460.2536,461.5179,l,1,[],[],[],[],[],[],[],0.5847,1,461.518,462.0174,,,,,,147,FEM,DIS,150,grúa,el,a,0.5847,,462.0175,462.0176,-0.080555527,-0.375,0,0,0,,0,216,216,146,1,,,,
,,,,,,5132aa126e564394813288ca,66a626ef09d4e21e1a8894ec,6735ed1112d949321619a187,2024-11-14_12h29.04.996,Tarea de género gramatical,2024.2.2,Win32,59.88023952,,,,,,,,,,,,,,,,,,,,,,,462.0202,463.0672,l,1,[],[],[],[],[],[],[],0.3738,1,463.0674,463.5671,,,,,,253,FEM,AGR,150,aldea,la,a,0.3738,,463.5672,463.5674,-0.080555527,-0.375,0,0,0,,0,217,217,252,1,,,,
,,,,,,5132aa126e564394813288ca,66a626ef09d4e21e1a8894ec,6735ed1112d949321619a187,2024-11-14_12h29.04.996,Tarea de género gramatical,2024.2.2,Win32,59.88023952,,,,,,,,,,,,,,,,,,,,,,,463.57,464.7665,a,1,[],[],[],[],[],[],[],0.5195,1,464.7669,465.2665,,,,,,346,MAS,AGR,150,juicio,el,l,0.5195,,465.269,465.2709,-0.080555527,-0.375,0,0,0,,0,218,218,345,1,,,,
,,,,,,5132aa126e564394813288ca,66a626ef09d4e21e1a8894ec,6735ed1112d949321619a187,2024-11-14_12h29.04.996,Tarea de género gramatical,2024.2.2,Win32,59.88023952,,,,,,,,,,,,,,,,,,,,,,,465.2724,466.3491,a,1,[],[],[],[],[],[],[],0.4048,1,466.3493,466.8489,,,,,,82,MAS,AGR,150,tubo,el,l,0.4048,,466.849,466.8492,-0.080555527,-0.375,0,0,0,,0,219,219,81,1,,,,
,,,,,,5132aa126e564394813288ca,66a626ef09d4e21e1a8894ec,6735ed1112d949321619a187,2024-11-14_12h29.04.996,Tarea de género gramatical,2024.2.2,Win32,59.88023952,,,,,,,,,,,,,,,,,,,,,,,466.8515,468.1658,l,1,[],[],[],[],[],[],[],0.637,1,468.166,468.6657,,,,,,416,FEM,CON,150,colina,,a,0.637,,468.6658,468.6659,-0.080555527,-0.375,0,0,0,,0,220,220,415,1,,,,
,,,,,,5132aa126e564394813288ca,66a626ef09d4e21e1a8894ec,6735ed1112d949321619a187,2024-11-14_12h29.04.996,Tarea de género gramatical,2024.2.2,Win32,59.88023952,,,,,,,,,,,,,,,,,,,,,,,468.6672,469.6479,l,1,[],[],[],[],[],[],[],0.3057,1,469.648,470.1479,,,,,,314,FEM,CON,150,señora,,a,0.3057,,470.1479,470.1482,-0.080555527,-0.375,0,0,0,,0,221,221,313,1,,,,
,,,,,,5132aa126e564394813288ca,66a626ef09d4e21e1a8894ec,6735ed1112d949321619a187,2024-11-14_12h29.04.996,Tarea de género gramatical,2024.2.2,Win32,59.88023952,,,,,,,,,,,,,,,,,,,,,,,470.1501,471.1313,a,1,[],[],[],[],[],[],[],0.3025,1,471.1315,471.6305,,,,,,4,MAS,AGR,150,hijo,el,l,0.3025,,471.6327,471.6346,-0.080555527,-0.375,0,0,0,,0,222,222,3,1,,,,
,,,,,,5132aa126e564394813288ca,66a626ef09d4e21e1a8894ec,6735ed1112d949321619a187,2024-11-14_12h29.04.996,Tarea de género gramatical,2024.2.2,Win32,59.88023952,,,,,,,,,,,,,,,,,,,,,,,471.6361,472.5962,l,1,[],[],[],[],[],[],[],0.2839,1,472.5964,473.097,,,,,,339,FEM,DIS,150,salida,el,a,0.2839,,473.0971,473.0974,-0.080555527,-0.375,0,0,0,,0,223,223,338,1,,,,
,,,,,,5132aa126e564394813288ca,66a626ef09d4e21e1a8894ec,6735ed1112d949321619a187,2024-11-14_12h29.04.996,Tarea de género gramatical,2024.2.2,Win32,59.88023952,,,,,,,,,,,,,,,,,,,,,,,473.0999,474.1954,l,1,[],[],[],[],[],[],[],0.4186,1,474.1956,474.6966,,,,,,31,FEM,AGR,150,edad,la,a,0.4186,,474.6966,474.6968,-0.080555527,-0.375,0,0,0,,0,224,224,30,1,,,,
,,,,,,5132aa126e564394813288ca,66a626ef09d4e21e1a8894ec,6735ed1112d949321619a187,2024-11-14_12h29.04.996,Tarea de género gramatical,2024.2.2,Win32,59.88023952,,,,,,,,,,,,,,,,,,,,,,,474.6989,475.9124,a,1,[],[],[],[],[],[],[],0.5354,1,475.9125,476.4112,,,,,,114,MAS,DIS,150,menú,la,l,0.5354,,476.4112,476.4112,-0.080555527,-0.375,0,0,0,,0,225,225,113,1,,,,
,,,,,,5132aa126e564394813288ca,66a626ef09d4e21e1a8894ec,6735ed1112d949321619a187,2024-11-14_12h29.04.996,Tarea de género gramatical,2024.2.2,Win32,59.88023952,,,,,,,,,,,,,,,,,,,,,,,476.4121,477.5115,l,1,[],[],[],[],[],[],[],0.4365,1,477.5118,478.0105,,,,,,285,FEM,DIS,150,mafia,el,a,0.4365,,478.0106,478.0106,-0.080555527,-0.375,0,0,0,,0,226,226,284,1,,,,
,,,,,,5132aa126e564394813288ca,66a626ef09d4e21e1a8894ec,6735ed1112d949321619a187,2024-11-14_12h29.04.996,Tarea de género gramatical,2024.2.2,Win32,59.88023952,,,,,,,,,,,,,,,,,,,,,,,478.0111,479.3277,a,1,[],[],[],[],[],[],[],0.6587,1,479.3278,479.8277,,,,,,184,MAS,AGR,150,cielo,el,l,0.6587,,479.8305,479.8329,-0.080555527,-0.375,0,0,0,,0,227,227,183,1,,,,
,,,,,,5132aa126e564394813288ca,66a626ef09d4e21e1a8894ec,6735ed1112d949321619a187,2024-11-14_12h29.04.996,Tarea de género gramatical,2024.2.2,Win32,59.88023952,,,,,,,,,,,,,,,,,,,,,,,479.8346,481.0447,l,1,[],[],[],[],[],[],[],0.5355,1,481.0449,481.5445,,,,,,217,FEM,AGR,150,tarea,la,a,0.5355,,481.5446,481.5448,-0.080555527,-0.375,0,0,0,,0,228,228,216,1,,,,
,,,,,,5132aa126e564394813288ca,66a626ef09d4e21e1a8894ec,6735ed1112d949321619a187,2024-11-14_12h29.04.996,Tarea de género gramatical,2024.2.2,Win32,59.88023952,,,,,,,,,,,,,,,,,,,,,,,481.5471,482.7933,a,1,[],[],[],[],[],[],[],0.5703,1,482.7935,483.294,,,,,,154,MAS,AGR,150,padre,el,l,0.5703,,483.2941,483.2943,-0.080555527,-0.375,0,0,0,,0,229,229,153,1,,,,
,,,,,,5132aa126e564394813288ca,66a626ef09d4e21e1a8894ec,6735ed1112d949321619a187,2024-11-14_12h29.04.996,Tarea de género gramatical,2024.2.2,Win32,59.88023952,,,,,,,,,,,,,,,,,,,,,,,483.297,484.459,a,1,[],[],[],[],[],[],[],0.4915,1,484.4592,484.9601,,,,,,318,MAS,DIS,150,pueblo,la,l,0.4915,,484.9601,484.9604,-0.080555527,-0.375,0,0,0,,0,230,230,317,1,,,,
,,,,,,5132aa126e564394813288ca,66a626ef09d4e21e1a8894ec,6735ed1112d949321619a187,2024-11-14_12h29.04.996,Tarea de género gramatical,2024.2.2,Win32,59.88023952,,,,,,,,,,,,,,,,,,,,,,,484.9625,486.0591,a,1,[],[],[],[],[],[],[],0.4215,1,486.0593,486.5579,,,,,,125,MAS,CON,150,bate,,l,0.4215,,486.5585,486.559,-0.080555527,-0.375,0,0,0,,0,231,231,124,1,,,,
,,,,,,5132aa126e564394813288ca,66a626ef09d4e21e1a8894ec,6735ed1112d949321619a187,2024-11-14_12h29.04.996,Tarea de género gramatical,2024.2.2,Win32,59.88023952,,,,,,,,,,,,,,,,,,,,,,,486.5598,487.6249,l,1,[],[],[],[],[],[],[],0.3837,1,487.6252,488.1255,,,,,,429,FEM,DIS,150,fianza,el,a,0.3837,,488.1256,488.1258,-0.080555527,-0.375,0,0,0,,0,232,232,428,1,,,,
,,,,,,5132aa126e564394813288ca,66a626ef09d4e21e1a8894ec,6735ed1112d949321619a187,2024-11-14_12h29.04.996,Tarea de género gramatical,2024.2.2,Win32,59.88023952,,,,,,,,,,,,,,,,,,,,,,,488.1285,489.4577,a,1,[],[],[],[],[],[],[],0.6607,1,489.4578,489.958,,,,,,166,MAS,AGR,150,coche,el,l,0.6607,,489.9581,489.9583,-0.080555527,-0.375,0,0,0,,0,233,233,165,1,,,,
,,,,,,5132aa126e564394813288ca,66a626ef09d4e21e1a8894ec,6735ed1112d949321619a187,2024-11-14_12h29.04.996,Tarea de género gramatical,2024.2.2,Win32,59.88023952,,,,,,,,,,,,,,,,,,,,,,,489.9608,490.8565,a,1,[],[],[],[],[],[],[],0.2202,1,490.8568,491.3574,,,,,,203,MAS,CON,150,novio,,l,0.2202,,491.3574,491.3577,-0.080555527,-0.375,0,0,0,,0,234,234,202,1,,,,
,,,,,,5132aa126e564394813288ca,66a626ef09d4e21e1a8894ec,6735ed1112d949321619a187,2024-11-14_12h29.04.996,Tarea de género gramatical,2024.2.2,Win32,59.88023952,,,,,,,,,,,,,,,,,,,,,,,491.3602,492.2579,a,1,[],[],[],[],[],[],[],0.2181,1,492.2581,492.7575,,,,,,443,MAS,CON,150,templo,,l,0.2181,,492.7575,492.7577,-0.080555527,-0.375,0,0,0,,0,235,235,442,1,,,,
,,,,,,5132aa126e564394813288ca,66a626ef09d4e21e1a8894ec,6735ed1112d949321619a187,2024-11-14_12h29.04.996,Tarea de género gramatical,2024.2.2,Win32,59.88023952,,,,,,,,,,,,,,,,,,,,,,,492.76,493.8237,l,1,[],[],[],[],[],[],[],0.3821,1,493.8239,494.3231,,,,,,219,FEM,DIS,150,costa,el,a,0.3821,,494.3269,494.3301,-0.080555527,-0.375,0,0,0,,0,236,236,218,1,,,,
,,,,,,5132aa126e564394813288ca,66a626ef09d4e21e1a8894ec,6735ed1112d949321619a187,2024-11-14_12h29.04.996,Tarea de género gramatical,2024.2.2,Win32,59.88023952,,,,,,,,,,,,,,,,,,,,,,,494.3317,495.4224,l,1,[],[],[],[],[],[],[],0.4186,1,495.4227,495.923,,,,,,123,FEM,DIS,150,tela,el,a,0.4186,,495.9231,495.9234,-0.080555527,-0.375,0,0,0,,0,237,237,122,1,,,,
,,,,,,5132aa126e564394813288ca,66a626ef09d4e21e1a8894ec,6735ed1112d949321619a187,2024-11-14_12h29.04.996,Tarea de género gramatical,2024.2.2,Win32,59.88023952,,,,,,,,,,,,,,,,,,,,,,,495.9264,496.9875,l,1,[],[],[],[],[],[],[],0.3826,1,496.9875,497.4889,,,,,,85,FEM,AGR,150,gira,la,a,0.3826,,497.4891,497.4893,-0.080555527,-0.375,0,0,0,,0,238,238,84,1,,,,
,,,,,,5132aa126e564394813288ca,66a626ef09d4e21e1a8894ec,6735ed1112d949321619a187,2024-11-14_12h29.04.996,Tarea de género gramatical,2024.2.2,Win32,59.88023952,,,,,,,,,,,,,,,,,,,,,,,497.4914,498.6054,a,0,[],[],[],[],[],[],[],0.4367,0,498.607,499.1038,,,,,,255,FEM,DIS,150,tribu,el,a,0.4367,,499.1038,499.1038,-0.080555527,-0.375,0,0,0,,0,239,239,254,1,,,,
,,,,,,5132aa126e564394813288ca,66a626ef09d4e21e1a8894ec,6735ed1112d949321619a187,2024-11-14_12h29.04.996,Tarea de género gramatical,2024.2.2,Win32,59.88023952,,,,,,,,,,,,,,,,,,,,,,,499.1048,500.1372,l,1,[],[],[],[],[],[],[],0.3541,1,500.1384,500.6379,,,,,,243,FEM,DIS,150,salsa,el,a,0.3541,,500.6406,500.6426,-0.080555527,-0.375,0,0,0,,0,240,240,242,1,,,,
,,,,,,5132aa126e564394813288ca,66a626ef09d4e21e1a8894ec,6735ed1112d949321619a187,2024-11-14_12h29.04.996,Tarea de género gramatical,2024.2.2,Win32,59.88023952,,,,,,,,,,,,,,,,,,,,,,,500.6442,501.6873,a,0,[],[],[],[],[],[],[],0.369,0,501.689,502.1873,,,,,,331,FEM,AGR,150,cárcel,la,a,0.369,,502.1873,502.1875,-0.080555527,-0.375,0,0,0,,0,241,241,330,1,,,,
,,,,,,5132aa126e564394813288ca,66a626ef09d4e21e1a8894ec,6735ed1112d949321619a187,2024-11-14_12h29.04.996,Tarea de género gramatical,2024.2.2,Win32,59.88023952,,,,,,,,,,,,,,,,,,,,,,,502.1898,503.2371,l,1,[],[],[],[],[],[],[],0.3698,1,503.2387,503.7368,,,,,,386,FEM,CON,150,sombra,,a,0.3698,,503.7369,503.7371,-0.080555527,-0.375,0,0,0,,0,242,242,385,1,,,,
,,,,,,5132aa126e564394813288ca,66a626ef09d4e21e1a8894ec,6735ed1112d949321619a187,2024-11-14_12h29.04.996,Tarea de género gramatical,2024.2.2,Win32,59.88023952,,,,,,,,,,,,,,,,,,,,,,,503.7392,504.752,l,1,[],[],[],[],[],[],[],0.3338,1,504.7522,505.2516,,,,,,373,FEM,AGR,150,lluvia,la,a,0.3338,,505.2517,505.2518,-0.080555527,-0.375,0,0,0,,0,243,243,372,1,,,,
,,,,,,5132aa126e564394813288ca,66a626ef09d4e21e1a8894ec,6735ed1112d949321619a187,2024-11-14_12h29.04.996,Tarea de género gramatical,2024.2.2,Win32,59.88023952,,,,,,,,,,,,,,,,,,,,,,,505.2529,506.2183,l,1,[],[],[],[],[],[],[],0.3004,1,506.2185,506.719,,,,,,308,FEM,CON,150,semana,,a,0.3004,,506.7191,506.7193,-0.080555527,-0.375,0,0,0,,0,244,244,307,1,,,,
,,,,,,5132aa126e564394813288ca,66a626ef09d4e21e1a8894ec,6735ed1112d949321619a187,2024-11-14_12h29.04.996,Tarea de género gramatical,2024.2.2,Win32,59.88023952,,,,,,,,,,,,,,,,,,,,,,,506.7215,507.7844,a,1,[],[],[],[],[],[],[],0.3925,1,507.7845,508.2841,,,,,,71,MAS,CON,150,pozo,,l,0.3925,,508.286,508.2877,-0.080555527,-0.375,0,0,0,,0,245,245,70,1,,,,
,,,,,,5132aa126e564394813288ca,66a626ef09d4e21e1a8894ec,6735ed1112d949321619a187,2024-11-14_12h29.04.996,Tarea de género gramatical,2024.2.2,Win32,59.88023952,,,,,,,,,,,,,,,,,,,,,,,508.2889,509.4012,a,1,[],[],[],[],[],[],[],0.4316,1,509.4013,509.9005,,,,,,246,MAS,DIS,150,humor,la,l,0.4316,,509.9005,509.9007,-0.080555527,-0.375,0,0,0,,0,246,246,245,1,,,,
,,,,,,5132aa126e564394813288ca,66a626ef09d4e21e1a8894ec,6735ed1112d949321619a187,2024-11-14_12h29.04.996,Tarea de género gramatical,2024.2.2,Win32,59.88023952,,,,,,,,,,,,,,,,,,,,,,,509.9025,510.884,a,1,[],[],[],[],[],[],[],0.3018,1,510.8842,511.3841,,,,,,108,MAS,DIS,150,hilo,la,l,0.3018,,511.3841,511.3844,-0.080555527,-0.375,0,0,0,,0,247,247,107,1,,,,
,,,,,,5132aa126e564394813288ca,66a626ef09d4e21e1a8894ec,6735ed1112d949321619a187,2024-11-14_12h29.04.996,Tarea de género gramatical,2024.2.2,Win32,59.88023952,,,,,,,,,,,,,,,,,,,,,,,511.3866,512.367,a,1,[],[],[],[],[],[],[],0.3017,1,512.3672,512.8668,,,,,,430,MAS,AGR,150,título,el,l,0.3017,,512.867,512.8672,-0.080555527,-0.375,0,0,0,,0,248,248,429,1,,,,
,,,,,,5132aa126e564394813288ca,66a626ef09d4e21e1a8894ec,6735ed1112d949321619a187,2024-11-14_12h29.04.996,Tarea de género gramatical,2024.2.2,Win32,59.88023952,,,,,,,,,,,,,,,,,,,,,,,512.8694,514.0168,l,1,[],[],[],[],[],[],[],0.4691,1,514.0171,514.517,,,,,,333,FEM,DIS,150,locura,el,a,0.4691,,514.5212,514.524,-0.080555527,-0.375,0,0,0,,0,249,249,332,1,,,,
,,,,,,5132aa126e564394813288ca,66a626ef09d4e21e1a8894ec,6735ed1112d949321619a187,2024-11-14_12h29.04.996,Tarea de género gramatical,2024.2.2,Win32,59.88023952,,,,,,,,,,,,,,,,,,,,,,,514.5257,515.6828,a,1,[],[],[],[],[],[],[],0.4846,1,515.683,516.1825,,,,,,65,MAS,CON,150,rayo,,l,0.4846,,516.1826,516.1828,-0.080555527,-0.375,0,0,0,,0,250,250,64,1,,,,
,,,,,,5132aa126e564394813288ca,66a626ef09d4e21e1a8894ec,6735ed1112d949321619a187,2024-11-14_12h29.04.996,Tarea de género gramatical,2024.2.2,Win32,59.88023952,,,,,,,,,,,,,,,,,,,,,,,516.1853,517.4649,a,1,[],[],[],[],[],[],[],0.6071,1,517.4651,517.9641,,,,,,24,MAS,DIS,150,voto,la,l,0.6071,,517.9642,517.9643,-0.080555527,-0.375,0,0,0,,0,251,251,23,1,,,,
,,,,,,5132aa126e564394813288ca,66a626ef09d4e21e1a8894ec,6735ed1112d949321619a187,2024-11-14_12h29.04.996,Tarea de género gramatical,2024.2.2,Win32,59.88023952,,,,,,,,,,,,,,,,,,,,,,,517.9659,519.0477,a,1,[],[],[],[],[],[],[],0.4221,1,519.0479,519.5473,,,,,,60,MAS,DIS,150,tono,la,l,0.4221,,519.5473,519.5473,-0.080555527,-0.375,0,0,0,,0,252,252,59,1,,,,
,,,,,,5132aa126e564394813288ca,66a626ef09d4e21e1a8894ec,6735ed1112d949321619a187,2024-11-14_12h29.04.996,Tarea de género gramatical,2024.2.2,Win32,59.88023952,,,,,,,,,,,,,,,,,,,,,,,519.5483,520.563,a,1,[],[],[],[],[],[],[],0.3448,1,520.5632,521.0643,,,,,,335,MAS,CON,150,montón,,l,0.3448,,521.0644,521.0647,-0.080555527,-0.375,0,0,0,,0,253,253,334,1,,,,
,,,,,,5132aa126e564394813288ca,66a626ef09d4e21e1a8894ec,6735ed1112d949321619a187,2024-11-14_12h29.04.996,Tarea de género gramatical,2024.2.2,Win32,59.88023952,,,,,,,,,,,,,,,,,,,,,,,521.067,522.1296,l,1,[],[],[],[],[],[],[],0.3919,1,522.1297,522.6296,,,,,,141,FEM,DIS,150,cera,el,a,0.3919,,522.6321,522.6338,-0.080555527,-0.375,0,0,0,,0,254,254,140,1,,,,
,,,,,,5132aa126e564394813288ca,66a626ef09d4e21e1a8894ec,6735ed1112d949321619a187,2024-11-14_12h29.04.996,Tarea de género gramatical,2024.2.2,Win32,59.88023952,,,,,,,,,,,,,,,,,,,,,,,522.6353,523.6124,a,1,[],[],[],[],[],[],[],0.3009,1,523.6126,524.1136,,,,,,252,MAS,DIS,150,viejo,la,l,0.3009,,524.1139,524.1142,-0.080555527,-0.375,0,0,0,,0,255,255,251,1,,,,
