counterbalancing_condition,consent_prescreening.block_1/declare_consent,consent_prescreening.block_1/age_years,consent_prescreening.block_1/gender,consent_prescreening.block_1/language_disorder,consent_prescreening.block_1/first_language,PROLIFIC_PID,STUDY_ID,SESSION_ID,date,expName,psychopyVersion,OS,frameRate,check_prescreening_answers.started,check_prescreening_answers.stopped,Instructions.started,Instructions.stopped,instr_done_keyboard.keys,instr_done_touch.x,instr_done_touch.y,instr_done_touch.leftButton,instr_done_touch.midButton,instr_done_touch.rightButton,instr_done_touch.clicked_name,instruction_pages.thisRepN,instruction_pages.thisTrialN,instruction_pages.thisN,instruction_pages.thisIndex,instruction_pages.ran,pageN,phase,instruct_text,has_image,instruct_image,instr_done_keyboard.rt,instr_done_keyboard.duration,presentTrial.started,presentTrial.stopped,response.keys,response.corr,response.rt,response.duration,touch_resp.x,touch_resp.y,touch_resp.leftButton,touch_resp.midButton,touch_resp.rightButton,touch_resp.time,touch_resp.clicked_name,rt,corr,feedback.started,feedback.stopped,practice_trials.thisRepN,practice_trials.thisTrialN,practice_trials.thisN,practice_trials.thisIndex,practice_trials.ran,TrialID,StimulusType,Condition,PrimeDuration,Prime,Flanker,corrAns,Break.started,Break.stopped,break_done_touch.x,break_done_touch.y,break_done_touch.leftButton,break_done_touch.midButton,break_done_touch.rightButton,break_done_keyboard.keys,experiment_trials.thisRepN,experiment_trials.thisTrialN,experiment_trials.thisN,experiment_trials.thisIndex,experiment_trials.ran,break_done_keyboard.rt,break_done_keyboard.duration,End.started,End.stopped
0,"[""over_18"",""comfortable"",""read_info"",""consent_given""]",29,F,"[""none""]","[""spanish""]",59a093cd11cf3012de0ded64,66a626ef09d4e21e1a8894ec,6735c5b8ce58982c1c06adde,2024-11-14_10h41.43.566,Tarea de género gramatical,2024.2.2,Win32,59.95203837,,,,,,,,,,,,,,,,,,,,,,,,,,,,,,,,,,,,,,,,,,,,,,,,,,,,,,,,,,,,,,,,,,,,,
,,,,,,59a093cd11cf3012de0ded64,66a626ef09d4e21e1a8894ec,6735c5b8ce58982c1c06adde,2024-11-14_10h41.43.566,Tarea de género gramatical,2024.2.2,Win32,59.95203837,30.859,30.859,,,,,,,,,,,,,,,,,,,,,,,,,,,,,,,,,,,,,,,,,,,,,,,,,,,,,,,,,,,,,,,,,,,
,,,,,,59a093cd11cf3012de0ded64,66a626ef09d4e21e1a8894ec,6735c5b8ce58982c1c06adde,2024-11-14_10h41.43.566,Tarea de género gramatical,2024.2.2,Win32,59.95203837,,,30.877,43.905,,0.088888889,-0.421296296,1,0,0,instr_done_button,0,0,0,0,1,1,instructions,"INSTRUCCIONES
Va a realizar una prueba de selección gramatical. Desde el comienzo de la prueba mire siempre al centro de la pantalla. Al cabo de un momento, aparecerán palabras. La tarea consiste en determinar si la palabra del centro (siempre será un sustantivo), pertenece al género masculino o femenino.

Pulse la tecla ESPACIO o toque el botón de abajo para continuar.",0,keyboardresponseMF.png,,,,,,,,,,,,,,,,,,,,,,,,,,,,,,,,,,,,,,,,,,,,,,,,
,,,,,,59a093cd11cf3012de0ded64,66a626ef09d4e21e1a8894ec,6735c5b8ce58982c1c06adde,2024-11-14_10h41.43.566,Tarea de género gramatical,2024.2.2,Win32,59.95203837,,,43.911,57.27,space,0.319444444,0.496296296,0,0,0,,0,1,1,1,1,2,instructions,"Si su dispositivo tiene teclado, pulse la tecla ""A"" para las palabras en masculino (por ejemplo: ""arroz"") y la tecla ""L"" para las palabras en femenino (por ejemplo: ""mano"").
Pulse la tecla ESPACIO o toque el botón de abajo para continuar.",1,keyboardresponseMF.png,13.293,,,,,,,,,,,,,,,,,,,,,,,,,,,,,,,,,,,,,,,,,,,,,,,
,,,,,,59a093cd11cf3012de0ded64,66a626ef09d4e21e1a8894ec,6735c5b8ce58982c1c06adde,2024-11-14_10h41.43.566,Tarea de género gramatical,2024.2.2,Win32,59.95203837,,,57.275,62.474,space,0.319444444,0.496296296,0,0,0,,0,2,2,2,1,3,instructions,"Si utiliza un dispositivo sólo táctil, colóquelo en horizontal y utilice los botones de la pantalla. No utilice el ratón.
Pulse la tecla ESPACIO o toque el botón de abajo para continuar.",2,touchresponseMF.png,5.146,,,,,,,,,,,,,,,,,,,,,,,,,,,,,,,,,,,,,,,,,,,,,,,
,,,,,,59a093cd11cf3012de0ded64,66a626ef09d4e21e1a8894ec,6735c5b8ce58982c1c06adde,2024-11-14_10h41.43.566,Tarea de género gramatical,2024.2.2,Win32,59.95203837,,,62.479,69.832,space,0.319444444,0.496296296,0,0,0,,0,3,3,3,1,4,instructions,"Es muy importante que responda con la mayor rapidez y precisión posibles, ya que cada cadena de letras sólo estará en pantalla durante un instante. Si no responde en ese tiempo, aparecerá el mensaje ""Muy lento"" y el experimento pasará a la siguiente palabra. Los primeros 15 intentos serán de práctica y habrá dos descansos durante la prueba.
Pulse la tecla ESPACIO o toque el botón de abajo para iniciar la parte de práctica.",0,keyboardresponseMF.png,7.327,,,,,,,,,,,,,,,,,,,,,,,,,,,,,,,,,,,,,,,,,,,,,,,
,,,,,,59a093cd11cf3012de0ded64,66a626ef09d4e21e1a8894ec,6735c5b8ce58982c1c06adde,2024-11-14_10h41.43.566,Tarea de género gramatical,2024.2.2,Win32,59.95203837,,,,,,,,,,,,,,,,,,,,,,,,69.855,71.316,a,1,0.79,,[],[],[],[],[],[],[],0.79,1,71.317,71.817,0,0,0,8,1,2009,MAS,DIS,150,puerto,la,l,,,,,,,,,,,,,,,,,
,,,,,,59a093cd11cf3012de0ded64,66a626ef09d4e21e1a8894ec,6735c5b8ce58982c1c06adde,2024-11-14_10h41.43.566,Tarea de género gramatical,2024.2.2,Win32,59.95203837,,,,,,,,,,,,,,,,,,,,,,,,71.819,73.218,a,0,0.72,,[],[],[],[],[],[],[],0.72,0,73.22,73.718,0,1,1,7,1,2008,FEM,CON,150,siesta,,a,,,,,,,,,,,,,,,,,
,,,,,,59a093cd11cf3012de0ded64,66a626ef09d4e21e1a8894ec,6735c5b8ce58982c1c06adde,2024-11-14_10h41.43.566,Tarea de género gramatical,2024.2.2,Win32,59.95203837,,,,,,,,,,,,,,,,,,,,,,,,73.721,75.237,a,0,0.835,,[],[],[],[],[],[],[],0.835,0,75.238,75.737,0,2,2,5,1,2006,FEM,DIS,150,serie,el,a,,,,,,,,,,,,,,,,,
,,,,,,59a093cd11cf3012de0ded64,66a626ef09d4e21e1a8894ec,6735c5b8ce58982c1c06adde,2024-11-14_10h41.43.566,Tarea de género gramatical,2024.2.2,Win32,59.95203837,,,,,,,,,,,,,,,,,,,,,,,,75.739,77.372,l,1,0.969,,[],[],[],[],[],[],[],0.969,1,77.375,77.872,0,3,3,1,1,2002,FEM,CON,150,pala,,a,,,,,,,,,,,,,,,,,
,,,,,,59a093cd11cf3012de0ded64,66a626ef09d4e21e1a8894ec,6735c5b8ce58982c1c06adde,2024-11-14_10h41.43.566,Tarea de género gramatical,2024.2.2,Win32,59.95203837,,,,,,,,,,,,,,,,,,,,,,,,77.876,79.29,a,1,0.752,,[],[],[],[],[],[],[],0.752,1,79.291,79.791,0,4,4,9,1,2010,MAS,AGR,150,vecino,el,l,,,,,,,,,,,,,,,,,
,,,,,,59a093cd11cf3012de0ded64,66a626ef09d4e21e1a8894ec,6735c5b8ce58982c1c06adde,2024-11-14_10h41.43.566,Tarea de género gramatical,2024.2.2,Win32,59.95203837,,,,,,,,,,,,,,,,,,,,,,,,79.793,80.925,l,1,0.472,,[],[],[],[],[],[],[],0.472,1,80.926,81.426,0,5,5,3,1,2004,FEM,AGR,150,venta,la,a,,,,,,,,,,,,,,,,,
,,,,,,59a093cd11cf3012de0ded64,66a626ef09d4e21e1a8894ec,6735c5b8ce58982c1c06adde,2024-11-14_10h41.43.566,Tarea de género gramatical,2024.2.2,Win32,59.95203837,,,,,,,,,,,,,,,,,,,,,,,,81.428,82.711,a,1,0.605,,[],[],[],[],[],[],[],0.605,1,82.711,83.211,0,6,6,11,1,2012,MAS,DIS,150,clima,la,l,,,,,,,,,,,,,,,,,
,,,,,,59a093cd11cf3012de0ded64,66a626ef09d4e21e1a8894ec,6735c5b8ce58982c1c06adde,2024-11-14_10h41.43.566,Tarea de género gramatical,2024.2.2,Win32,59.95203837,,,,,,,,,,,,,,,,,,,,,,,,83.213,84.246,l,1,0.373,,[],[],[],[],[],[],[],0.373,1,84.247,84.745,0,7,7,6,1,2007,FEM,AGR,150,navaja,la,a,,,,,,,,,,,,,,,,,
,,,,,,59a093cd11cf3012de0ded64,66a626ef09d4e21e1a8894ec,6735c5b8ce58982c1c06adde,2024-11-14_10h41.43.566,Tarea de género gramatical,2024.2.2,Win32,59.95203837,,,,,,,,,,,,,,,,,,,,,,,,84.749,85.83,a,1,0.418,,[],[],[],[],[],[],[],0.418,1,85.831,86.33,0,8,8,10,1,2011,MAS,CON,150,canal,,l,,,,,,,,,,,,,,,,,
,,,,,,59a093cd11cf3012de0ded64,66a626ef09d4e21e1a8894ec,6735c5b8ce58982c1c06adde,2024-11-14_10h41.43.566,Tarea de género gramatical,2024.2.2,Win32,59.95203837,,,,,,,,,,,,,,,,,,,,,,,,86.333,87.565,l,1,0.568,,[],[],[],[],[],[],[],0.568,1,87.565,88.067,0,9,9,4,1,2005,FEM,CON,150,placa,,a,,,,,,,,,,,,,,,,,
,,,,,,59a093cd11cf3012de0ded64,66a626ef09d4e21e1a8894ec,6735c5b8ce58982c1c06adde,2024-11-14_10h41.43.566,Tarea de género gramatical,2024.2.2,Win32,59.95203837,,,,,,,,,,,,,,,,,,,,,,,,88.072,89.218,a,1,0.467,,[],[],[],[],[],[],[],0.467,1,89.22,89.718,0,10,10,12,1,2013,MAS,AGR,150,acero,el,l,,,,,,,,,,,,,,,,,
,,,,,,59a093cd11cf3012de0ded64,66a626ef09d4e21e1a8894ec,6735c5b8ce58982c1c06adde,2024-11-14_10h41.43.566,Tarea de género gramatical,2024.2.2,Win32,59.95203837,,,,,,,,,,,,,,,,,,,,,,,,89.721,90.835,l,1,0.441,,[],[],[],[],[],[],[],0.441,1,90.836,91.335,0,11,11,2,1,2003,FEM,DIS,150,daga,el,a,,,,,,,,,,,,,,,,,
,,,,,,59a093cd11cf3012de0ded64,66a626ef09d4e21e1a8894ec,6735c5b8ce58982c1c06adde,2024-11-14_10h41.43.566,Tarea de género gramatical,2024.2.2,Win32,59.95203837,,,,,,,,,,,,,,,,,,,,,,,,91.338,92.571,a,1,0.569,,[],[],[],[],[],[],[],0.569,1,92.571,93.071,0,12,12,14,1,2015,MAS,DIS,150,robot,la,l,,,,,,,,,,,,,,,,,
,,,,,,59a093cd11cf3012de0ded64,66a626ef09d4e21e1a8894ec,6735c5b8ce58982c1c06adde,2024-11-14_10h41.43.566,Tarea de género gramatical,2024.2.2,Win32,59.95203837,,,,,,,,,,,,,,,,,,,,,,,,93.075,94.322,l,0,0.573,,[],[],[],[],[],[],[],0.573,0,94.324,94.823,0,13,13,13,1,2014,MAS,CON,150,siglo,,l,,,,,,,,,,,,,,,,,
,,,,,,59a093cd11cf3012de0ded64,66a626ef09d4e21e1a8894ec,6735c5b8ce58982c1c06adde,2024-11-14_10h41.43.566,Tarea de género gramatical,2024.2.2,Win32,59.95203837,,,,,,,,,,,,,,,,,,,,,,,,94.827,96.107,l,1,0.602,,[],[],[],[],[],[],[],0.602,1,96.109,96.608,0,14,14,0,1,2001,FEM,AGR,150,nuca,la,a,,,,,,,,,,,,,,,,,
,,,,,,59a093cd11cf3012de0ded64,66a626ef09d4e21e1a8894ec,6735c5b8ce58982c1c06adde,2024-11-14_10h41.43.566,Tarea de género gramatical,2024.2.2,Win32,59.95203837,,,101.149,111.958,space,0.319444444,0.496296296,0,0,0,,,,,,,,,,,,10.79,,112.005,113.257,l,1,0.588,,[],[],[],[],[],[],[],0.588,1,113.258,113.758,,,,,,386,FEM,CON,150,sombra,,a,113.759,113.764,0.319444444,0.496296296,0,0,0,,0,0,0,385,1,,,,
,,,,,,59a093cd11cf3012de0ded64,66a626ef09d4e21e1a8894ec,6735c5b8ce58982c1c06adde,2024-11-14_10h41.43.566,Tarea de género gramatical,2024.2.2,Win32,59.95203837,,,,,,,,,,,,,,,,,,,,,,,,113.764,114.842,l,1,0.407,,[],[],[],[],[],[],[],0.407,1,114.842,115.343,,,,,,230,FEM,CON,150,regla,,a,115.343,115.344,0.319444444,0.496296296,0,0,0,,0,1,1,229,1,,,,
,,,,,,59a093cd11cf3012de0ded64,66a626ef09d4e21e1a8894ec,6735c5b8ce58982c1c06adde,2024-11-14_10h41.43.566,Tarea de género gramatical,2024.2.2,Win32,59.95203837,,,,,,,,,,,,,,,,,,,,,,,,115.346,116.361,a,1,0.335,,[],[],[],[],[],[],[],0.335,1,116.361,116.861,,,,,,82,MAS,AGR,150,tubo,el,l,116.864,116.866,0.319444444,0.496296296,0,0,0,,0,2,2,81,1,,,,
,,,,,,59a093cd11cf3012de0ded64,66a626ef09d4e21e1a8894ec,6735c5b8ce58982c1c06adde,2024-11-14_10h41.43.566,Tarea de género gramatical,2024.2.2,Win32,59.95203837,,,,,,,,,,,,,,,,,,,,,,,,116.868,118.046,a,1,0.503,,[],[],[],[],[],[],[],0.503,1,118.047,118.547,,,,,,35,MAS,CON,150,taxi,,l,118.547,118.547,0.319444444,0.496296296,0,0,0,,0,3,3,34,1,,,,
,,,,,,59a093cd11cf3012de0ded64,66a626ef09d4e21e1a8894ec,6735c5b8ce58982c1c06adde,2024-11-14_10h41.43.566,Tarea de género gramatical,2024.2.2,Win32,59.95203837,,,,,,,,,,,,,,,,,,,,,,,,118.55,119.564,l,1,0.334,,[],[],[],[],[],[],[],0.334,1,119.565,120.065,,,,,,212,FEM,CON,150,cinta,,a,120.065,120.065,0.319444444,0.496296296,0,0,0,,0,4,4,211,1,,,,
,,,,,,59a093cd11cf3012de0ded64,66a626ef09d4e21e1a8894ec,6735c5b8ce58982c1c06adde,2024-11-14_10h41.43.566,Tarea de género gramatical,2024.2.2,Win32,59.95203837,,,,,,,,,,,,,,,,,,,,,,,,120.067,121.082,l,1,0.337,,[],[],[],[],[],[],[],0.337,1,121.082,121.585,,,,,,338,FEM,CON,150,abuela,,a,121.585,121.586,0.319444444,0.496296296,0,0,0,,0,5,5,337,1,,,,
,,,,,,59a093cd11cf3012de0ded64,66a626ef09d4e21e1a8894ec,6735c5b8ce58982c1c06adde,2024-11-14_10h41.43.566,Tarea de género gramatical,2024.2.2,Win32,59.95203837,,,,,,,,,,,,,,,,,,,,,,,,121.59,122.735,a,0,0.467,,[],[],[],[],[],[],[],0.467,0,122.738,123.234,,,,,,123,FEM,DIS,150,tela,el,a,123.237,123.24,0.319444444,0.496296296,0,0,0,,0,6,6,122,1,,,,
,,,,,,59a093cd11cf3012de0ded64,66a626ef09d4e21e1a8894ec,6735c5b8ce58982c1c06adde,2024-11-14_10h41.43.566,Tarea de género gramatical,2024.2.2,Win32,59.95203837,,,,,,,,,,,,,,,,,,,,,,,,123.241,124.452,a,1,0.54,,[],[],[],[],[],[],[],0.54,1,124.454,124.953,,,,,,358,MAS,AGR,150,motivo,el,l,124.953,124.953,0.319444444,0.496296296,0,0,0,,0,7,7,357,1,,,,
,,,,,,59a093cd11cf3012de0ded64,66a626ef09d4e21e1a8894ec,6735c5b8ce58982c1c06adde,2024-11-14_10h41.43.566,Tarea de género gramatical,2024.2.2,Win32,59.95203837,,,,,,,,,,,,,,,,,,,,,,,,124.956,126.254,a,0,0.635,,[],[],[],[],[],[],[],0.635,0,126.258,126.754,,,,,,219,FEM,DIS,150,costa,el,a,126.755,126.755,0.319444444,0.496296296,0,0,0,,0,8,8,218,1,,,,
,,,,,,59a093cd11cf3012de0ded64,66a626ef09d4e21e1a8894ec,6735c5b8ce58982c1c06adde,2024-11-14_10h41.43.566,Tarea de género gramatical,2024.2.2,Win32,59.95203837,,,,,,,,,,,,,,,,,,,,,,,,126.758,127.955,a,1,0.519,,[],[],[],[],[],[],[],0.519,1,127.958,128.456,,,,,,354,MAS,DIS,150,camión,la,l,128.456,128.457,0.319444444,0.496296296,0,0,0,,0,9,9,353,1,,,,
,,,,,,59a093cd11cf3012de0ded64,66a626ef09d4e21e1a8894ec,6735c5b8ce58982c1c06adde,2024-11-14_10h41.43.566,Tarea de género gramatical,2024.2.2,Win32,59.95203837,,,,,,,,,,,,,,,,,,,,,,,,128.458,129.557,a,1,0.418,,[],[],[],[],[],[],[],0.418,1,129.558,130.058,,,,,,437,MAS,CON,150,hombro,,l,130.058,130.058,0.319444444,0.496296296,0,0,0,,0,10,10,436,1,,,,
,,,,,,59a093cd11cf3012de0ded64,66a626ef09d4e21e1a8894ec,6735c5b8ce58982c1c06adde,2024-11-14_10h41.43.566,Tarea de género gramatical,2024.2.2,Win32,59.95203837,,,,,,,,,,,,,,,,,,,,,,,,130.062,131.058,a,1,0.325,,[],[],[],[],[],[],[],0.325,1,131.059,131.559,,,,,,16,MAS,AGR,150,baño,el,l,131.562,131.564,0.319444444,0.496296296,0,0,0,,0,11,11,15,1,,,,
,,,,,,59a093cd11cf3012de0ded64,66a626ef09d4e21e1a8894ec,6735c5b8ce58982c1c06adde,2024-11-14_10h41.43.566,Tarea de género gramatical,2024.2.2,Win32,59.95203837,,,,,,,,,,,,,,,,,,,,,,,,131.565,132.543,l,1,0.303,,[],[],[],[],[],[],[],0.303,1,132.543,133.044,,,,,,14,FEM,CON,150,cara,,a,133.044,133.044,0.319444444,0.496296296,0,0,0,,0,12,12,13,1,,,,
,,,,,,59a093cd11cf3012de0ded64,66a626ef09d4e21e1a8894ec,6735c5b8ce58982c1c06adde,2024-11-14_10h41.43.566,Tarea de género gramatical,2024.2.2,Win32,59.95203837,,,,,,,,,,,,,,,,,,,,,,,,133.048,134.379,l,0,0.652,,[],[],[],[],[],[],[],0.652,0,134.381,134.879,,,,,,336,MAS,DIS,150,crimen,la,l,134.879,134.879,0.319444444,0.496296296,0,0,0,,0,13,13,335,1,,,,
,,,,,,59a093cd11cf3012de0ded64,66a626ef09d4e21e1a8894ec,6735c5b8ce58982c1c06adde,2024-11-14_10h41.43.566,Tarea de género gramatical,2024.2.2,Win32,59.95203837,,,,,,,,,,,,,,,,,,,,,,,,134.883,136.064,a,0,0.507,,[],[],[],[],[],[],[],0.507,0,136.064,136.564,,,,,,399,FEM,DIS,150,charla,el,a,136.564,136.565,0.319444444,0.496296296,0,0,0,,0,14,14,398,1,,,,
,,,,,,59a093cd11cf3012de0ded64,66a626ef09d4e21e1a8894ec,6735c5b8ce58982c1c06adde,2024-11-14_10h41.43.566,Tarea de género gramatical,2024.2.2,Win32,59.95203837,,,,,,,,,,,,,,,,,,,,,,,,136.567,137.832,l,1,0.585,,[],[],[],[],[],[],[],0.585,1,137.834,138.333,,,,,,229,FEM,AGR,150,celda,la,a,138.336,138.337,0.319444444,0.496296296,0,0,0,,0,15,15,228,1,,,,
,,,,,,59a093cd11cf3012de0ded64,66a626ef09d4e21e1a8894ec,6735c5b8ce58982c1c06adde,2024-11-14_10h41.43.566,Tarea de género gramatical,2024.2.2,Win32,59.95203837,,,,,,,,,,,,,,,,,,,,,,,,138.339,139.484,a,1,0.471,,[],[],[],[],[],[],[],0.471,1,139.485,139.984,,,,,,372,MAS,DIS,150,delito,la,l,139.984,139.984,0.319444444,0.496296296,0,0,0,,0,16,16,371,1,,,,
,,,,,,59a093cd11cf3012de0ded64,66a626ef09d4e21e1a8894ec,6735c5b8ce58982c1c06adde,2024-11-14_10h41.43.566,Tarea de género gramatical,2024.2.2,Win32,59.95203837,,,,,,,,,,,,,,,,,,,,,,,,139.988,141.136,a,1,0.472,,[],[],[],[],[],[],[],0.472,1,141.136,141.636,,,,,,94,MAS,AGR,150,cabo,el,l,141.636,141.636,0.319444444,0.496296296,0,0,0,,0,17,17,93,1,,,,
,,,,,,59a093cd11cf3012de0ded64,66a626ef09d4e21e1a8894ec,6735c5b8ce58982c1c06adde,2024-11-14_10h41.43.566,Tarea de género gramatical,2024.2.2,Win32,59.95203837,,,,,,,,,,,,,,,,,,,,,,,,141.639,142.654,a,1,0.356,,[],[],[],[],[],[],[],0.356,1,142.656,143.154,,,,,,245,MAS,CON,150,turno,,l,143.154,143.154,0.319444444,0.496296296,0,0,0,,0,18,18,244,1,,,,
,,,,,,59a093cd11cf3012de0ded64,66a626ef09d4e21e1a8894ec,6735c5b8ce58982c1c06adde,2024-11-14_10h41.43.566,Tarea de género gramatical,2024.2.2,Win32,59.95203837,,,,,,,,,,,,,,,,,,,,,,,,143.158,144.406,a,1,0.569,,[],[],[],[],[],[],[],0.569,1,144.406,144.906,,,,,,384,MAS,DIS,150,pedazo,la,l,144.906,144.906,0.319444444,0.496296296,0,0,0,,0,19,19,383,1,,,,
,,,,,,59a093cd11cf3012de0ded64,66a626ef09d4e21e1a8894ec,6735c5b8ce58982c1c06adde,2024-11-14_10h41.43.566,Tarea de género gramatical,2024.2.2,Win32,59.95203837,,,,,,,,,,,,,,,,,,,,,,,,144.909,145.94,a,1,0.351,,[],[],[],[],[],[],[],0.351,1,145.94,146.441,,,,,,179,MAS,CON,150,viaje,,l,146.443,146.445,0.319444444,0.496296296,0,0,0,,0,20,20,178,1,,,,
,,,,,,59a093cd11cf3012de0ded64,66a626ef09d4e21e1a8894ec,6735c5b8ce58982c1c06adde,2024-11-14_10h41.43.566,Tarea de género gramatical,2024.2.2,Win32,59.95203837,,,,,,,,,,,,,,,,,,,,,,,,146.447,147.541,a,1,0.421,,[],[],[],[],[],[],[],0.421,1,147.542,148.042,,,,,,400,MAS,AGR,150,barrio,el,l,148.043,148.043,0.319444444,0.496296296,0,0,0,,0,21,21,399,1,,,,
,,,,,,59a093cd11cf3012de0ded64,66a626ef09d4e21e1a8894ec,6735c5b8ce58982c1c06adde,2024-11-14_10h41.43.566,Tarea de género gramatical,2024.2.2,Win32,59.95203837,,,,,,,,,,,,,,,,,,,,,,,,148.046,149.11,a,1,0.384,,[],[],[],[],[],[],[],0.384,1,149.11,149.611,,,,,,65,MAS,CON,150,rayo,,l,149.611,149.611,0.319444444,0.496296296,0,0,0,,0,22,22,64,1,,,,
,,,,,,59a093cd11cf3012de0ded64,66a626ef09d4e21e1a8894ec,6735c5b8ce58982c1c06adde,2024-11-14_10h41.43.566,Tarea de género gramatical,2024.2.2,Win32,59.95203837,,,,,,,,,,,,,,,,,,,,,,,,149.613,150.595,l,1,0.302,,[],[],[],[],[],[],[],0.302,1,150.595,151.096,,,,,,110,FEM,CON,150,rosa,,a,151.096,151.096,0.319444444,0.496296296,0,0,0,,0,23,23,109,1,,,,
,,,,,,59a093cd11cf3012de0ded64,66a626ef09d4e21e1a8894ec,6735c5b8ce58982c1c06adde,2024-11-14_10h41.43.566,Tarea de género gramatical,2024.2.2,Win32,59.95203837,,,,,,,,,,,,,,,,,,,,,,,,151.099,152.163,a,1,0.392,,[],[],[],[],[],[],[],0.392,1,152.164,152.664,,,,,,95,MAS,CON,150,tomo,,l,152.667,152.669,0.319444444,0.496296296,0,0,0,,0,24,24,94,1,,,,
,,,,,,59a093cd11cf3012de0ded64,66a626ef09d4e21e1a8894ec,6735c5b8ce58982c1c06adde,2024-11-14_10h41.43.566,Tarea de género gramatical,2024.2.2,Win32,59.95203837,,,,,,,,,,,,,,,,,,,,,,,,152.67,153.665,l,1,0.318,,[],[],[],[],[],[],[],0.318,1,153.665,154.165,,,,,,433,FEM,AGR,150,huella,la,a,154.165,154.165,0.319444444,0.496296296,0,0,0,,0,25,25,432,1,,,,
,,,,,,59a093cd11cf3012de0ded64,66a626ef09d4e21e1a8894ec,6735c5b8ce58982c1c06adde,2024-11-14_10h41.43.566,Tarea de género gramatical,2024.2.2,Win32,59.95203837,,,,,,,,,,,,,,,,,,,,,,,,154.168,155.201,l,1,0.352,,[],[],[],[],[],[],[],0.352,1,155.202,155.7,,,,,,241,FEM,AGR,150,pasta,la,a,155.701,155.701,0.319444444,0.496296296,0,0,0,,0,26,26,240,1,,,,
,,,,,,59a093cd11cf3012de0ded64,66a626ef09d4e21e1a8894ec,6735c5b8ce58982c1c06adde,2024-11-14_10h41.43.566,Tarea de género gramatical,2024.2.2,Win32,59.95203837,,,,,,,,,,,,,,,,,,,,,,,,155.706,156.851,l,1,0.469,,[],[],[],[],[],[],[],0.469,1,156.851,157.352,,,,,,398,FEM,CON,150,hierba,,a,157.352,157.352,0.319444444,0.496296296,0,0,0,,0,27,27,397,1,,,,
,,,,,,59a093cd11cf3012de0ded64,66a626ef09d4e21e1a8894ec,6735c5b8ce58982c1c06adde,2024-11-14_10h41.43.566,Tarea de género gramatical,2024.2.2,Win32,59.95203837,,,,,,,,,,,,,,,,,,,,,,,,157.354,158.353,l,1,0.324,,[],[],[],[],[],[],[],0.324,1,158.353,158.853,,,,,,416,FEM,CON,150,colina,,a,158.854,158.854,0.319444444,0.496296296,0,0,0,,0,28,28,415,1,,,,
,,,,,,59a093cd11cf3012de0ded64,66a626ef09d4e21e1a8894ec,6735c5b8ce58982c1c06adde,2024-11-14_10h41.43.566,Tarea de género gramatical,2024.2.2,Win32,59.95203837,,,,,,,,,,,,,,,,,,,,,,,,158.856,159.821,l,1,0.287,,[],[],[],[],[],[],[],0.287,1,159.822,160.322,,,,,,446,FEM,CON,150,bañera,,a,160.324,160.328,0.319444444,0.496296296,0,0,0,,0,29,29,445,1,,,,
,,,,,,59a093cd11cf3012de0ded64,66a626ef09d4e21e1a8894ec,6735c5b8ce58982c1c06adde,2024-11-14_10h41.43.566,Tarea de género gramatical,2024.2.2,Win32,59.95203837,,,,,,,,,,,,,,,,,,,,,,,,160.329,161.339,a,1,0.338,,[],[],[],[],[],[],[],0.338,1,161.339,161.839,,,,,,251,MAS,CON,150,dueño,,l,161.84,161.84,0.319444444,0.496296296,0,0,0,,0,30,30,250,1,,,,
,,,,,,59a093cd11cf3012de0ded64,66a626ef09d4e21e1a8894ec,6735c5b8ce58982c1c06adde,2024-11-14_10h41.43.566,Tarea de género gramatical,2024.2.2,Win32,59.95203837,,,,,,,,,,,,,,,,,,,,,,,,161.842,162.907,l,1,0.393,,[],[],[],[],[],[],[],0.393,1,162.907,163.408,,,,,,181,FEM,AGR,150,tarde,la,a,163.408,163.408,0.319444444,0.496296296,0,0,0,,0,31,31,180,1,,,,
,,,,,,59a093cd11cf3012de0ded64,66a626ef09d4e21e1a8894ec,6735c5b8ce58982c1c06adde,2024-11-14_10h41.43.566,Tarea de género gramatical,2024.2.2,Win32,59.95203837,,,,,,,,,,,,,,,,,,,,,,,,163.411,164.392,l,1,0.301,,[],[],[],[],[],[],[],0.301,1,164.393,164.892,,,,,,427,FEM,AGR,150,agenda,la,a,164.892,164.892,0.319444444,0.496296296,0,0,0,,0,32,32,426,1,,,,
,,,,,,59a093cd11cf3012de0ded64,66a626ef09d4e21e1a8894ec,6735c5b8ce58982c1c06adde,2024-11-14_10h41.43.566,Tarea de género gramatical,2024.2.2,Win32,59.95203837,,,,,,,,,,,,,,,,,,,,,,,,164.896,165.86,l,1,0.285,,[],[],[],[],[],[],[],0.285,1,165.86,166.36,,,,,,92,FEM,CON,150,masa,,a,166.363,166.366,0.319444444,0.496296296,0,0,0,,0,33,33,91,1,,,,
,,,,,,59a093cd11cf3012de0ded64,66a626ef09d4e21e1a8894ec,6735c5b8ce58982c1c06adde,2024-11-14_10h41.43.566,Tarea de género gramatical,2024.2.2,Win32,59.95203837,,,,,,,,,,,,,,,,,,,,,,,,166.367,167.328,l,1,0.284,,[],[],[],[],[],[],[],0.284,1,167.328,167.828,,,,,,206,FEM,CON,150,época,,a,167.828,167.829,0.319444444,0.496296296,0,0,0,,0,34,34,205,1,,,,
,,,,,,59a093cd11cf3012de0ded64,66a626ef09d4e21e1a8894ec,6735c5b8ce58982c1c06adde,2024-11-14_10h41.43.566,Tarea de género gramatical,2024.2.2,Win32,59.95203837,,,,,,,,,,,,,,,,,,,,,,,,167.832,169.013,l,1,0.526,,[],[],[],[],[],[],[],0.526,1,169.014,169.514,,,,,,429,FEM,DIS,150,fianza,el,a,169.514,169.514,0.319444444,0.496296296,0,0,0,,0,35,35,428,1,,,,
,,,,,,59a093cd11cf3012de0ded64,66a626ef09d4e21e1a8894ec,6735c5b8ce58982c1c06adde,2024-11-14_10h41.43.566,Tarea de género gramatical,2024.2.2,Win32,59.95203837,,,,,,,,,,,,,,,,,,,,,,,,169.517,170.865,l,1,0.676,,[],[],[],[],[],[],[],0.676,1,170.865,171.365,,,,,,303,FEM,DIS,150,maldad,el,a,171.365,171.366,0.319444444,0.496296296,0,0,0,,0,36,36,302,1,,,,
,,,,,,59a093cd11cf3012de0ded64,66a626ef09d4e21e1a8894ec,6735c5b8ce58982c1c06adde,2024-11-14_10h41.43.566,Tarea de género gramatical,2024.2.2,Win32,59.95203837,,,,,,,,,,,,,,,,,,,,,,,,171.368,172.367,l,1,0.324,,[],[],[],[],[],[],[],0.324,1,172.368,172.867,,,,,,146,FEM,CON,150,lana,,a,172.867,172.867,0.319444444,0.496296296,0,0,0,,0,37,37,145,1,,,,
,,,,,,59a093cd11cf3012de0ded64,66a626ef09d4e21e1a8894ec,6735c5b8ce58982c1c06adde,2024-11-14_10h41.43.566,Tarea de género gramatical,2024.2.2,Win32,59.95203837,,,,,,,,,,,,,,,,,,,,,,,,172.87,173.985,l,1,0.439,,[],[],[],[],[],[],[],0.439,1,173.985,174.485,,,,,,201,FEM,DIS,150,leche,el,a,174.487,174.489,0.319444444,0.496296296,0,0,0,,0,38,38,200,1,,,,
,,,,,,59a093cd11cf3012de0ded64,66a626ef09d4e21e1a8894ec,6735c5b8ce58982c1c06adde,2024-11-14_10h41.43.566,Tarea de género gramatical,2024.2.2,Win32,59.95203837,,,,,,,,,,,,,,,,,,,,,,,,174.49,175.469,l,1,0.306,,[],[],[],[],[],[],[],0.306,1,175.469,175.97,,,,,,80,FEM,CON,150,vaca,,a,175.97,175.97,0.319444444,0.496296296,0,0,0,,0,39,39,79,1,,,,
,,,,,,59a093cd11cf3012de0ded64,66a626ef09d4e21e1a8894ec,6735c5b8ce58982c1c06adde,2024-11-14_10h41.43.566,Tarea de género gramatical,2024.2.2,Win32,59.95203837,,,,,,,,,,,,,,,,,,,,,,,,175.973,177.021,a,1,0.374,,[],[],[],[],[],[],[],0.374,1,177.022,177.522,,,,,,184,MAS,AGR,150,cielo,el,l,177.522,177.522,0.319444444,0.496296296,0,0,0,,0,40,40,183,1,,,,
,,,,,,59a093cd11cf3012de0ded64,66a626ef09d4e21e1a8894ec,6735c5b8ce58982c1c06adde,2024-11-14_10h41.43.566,Tarea de género gramatical,2024.2.2,Win32,59.95203837,,,,,,,,,,,,,,,,,,,,,,,,177.525,178.523,l,1,0.317,,[],[],[],[],[],[],[],0.317,1,178.523,179.023,,,,,,205,FEM,AGR,150,reina,la,a,179.023,179.023,0.319444444,0.496296296,0,0,0,,0,41,41,204,1,,,,
,,,,,,59a093cd11cf3012de0ded64,66a626ef09d4e21e1a8894ec,6735c5b8ce58982c1c06adde,2024-11-14_10h41.43.566,Tarea de género gramatical,2024.2.2,Win32,59.95203837,,,,,,,,,,,,,,,,,,,,,,,,179.026,180.09,a,1,0.383,,[],[],[],[],[],[],[],0.383,1,180.091,180.592,,,,,,216,MAS,DIS,150,éxito,la,l,180.594,180.595,0.319444444,0.496296296,0,0,0,,0,42,42,215,1,,,,
,,,,,,59a093cd11cf3012de0ded64,66a626ef09d4e21e1a8894ec,6735c5b8ce58982c1c06adde,2024-11-14_10h41.43.566,Tarea de género gramatical,2024.2.2,Win32,59.95203837,,,,,,,,,,,,,,,,,,,,,,,,180.597,181.659,a,1,0.384,,[],[],[],[],[],[],[],0.384,1,181.66,182.159,,,,,,359,MAS,CON,150,bosque,,l,182.159,182.159,0.319444444,0.496296296,0,0,0,,0,43,43,358,1,,,,
,,,,,,59a093cd11cf3012de0ded64,66a626ef09d4e21e1a8894ec,6735c5b8ce58982c1c06adde,2024-11-14_10h41.43.566,Tarea de género gramatical,2024.2.2,Win32,59.95203837,,,,,,,,,,,,,,,,,,,,,,,,182.162,183.211,a,1,0.385,,[],[],[],[],[],[],[],0.385,1,183.211,183.712,,,,,,166,MAS,AGR,150,coche,el,l,183.712,183.712,0.319444444,0.496296296,0,0,0,,0,44,44,165,1,,,,
,,,,,,59a093cd11cf3012de0ded64,66a626ef09d4e21e1a8894ec,6735c5b8ce58982c1c06adde,2024-11-14_10h41.43.566,Tarea de género gramatical,2024.2.2,Win32,59.95203837,,,,,,,,,,,,,,,,,,,,,,,,183.714,184.763,l,1,0.37,,[],[],[],[],[],[],[],0.37,1,184.763,185.263,,,,,,435,FEM,DIS,150,niebla,el,a,185.263,185.263,0.319444444,0.496296296,0,0,0,,0,45,45,434,1,,,,
,,,,,,59a093cd11cf3012de0ded64,66a626ef09d4e21e1a8894ec,6735c5b8ce58982c1c06adde,2024-11-14_10h41.43.566,Tarea de género gramatical,2024.2.2,Win32,59.95203837,,,,,,,,,,,,,,,,,,,,,,,,185.266,186.314,l,1,0.371,,[],[],[],[],[],[],[],0.371,1,186.314,186.815,,,,,,349,FEM,AGR,150,prensa,la,a,186.815,186.816,0.319444444,0.496296296,0,0,0,,0,46,46,348,1,,,,
,,,,,,59a093cd11cf3012de0ded64,66a626ef09d4e21e1a8894ec,6735c5b8ce58982c1c06adde,2024-11-14_10h41.43.566,Tarea de género gramatical,2024.2.2,Win32,59.95203837,,,,,,,,,,,,,,,,,,,,,,,,186.818,187.832,a,1,0.34,,[],[],[],[],[],[],[],0.34,1,187.832,188.332,,,,,,276,MAS,DIS,150,ritmo,la,l,188.336,188.338,0.319444444,0.496296296,0,0,0,,0,47,47,275,1,,,,
,,,,,,59a093cd11cf3012de0ded64,66a626ef09d4e21e1a8894ec,6735c5b8ce58982c1c06adde,2024-11-14_10h41.43.566,Tarea de género gramatical,2024.2.2,Win32,59.95203837,,,,,,,,,,,,,,,,,,,,,,,,188.339,189.401,a,1,0.385,,[],[],[],[],[],[],[],0.385,1,189.403,189.901,,,,,,443,MAS,CON,150,templo,,l,189.901,189.902,0.319444444,0.496296296,0,0,0,,0,48,48,442,1,,,,
,,,,,,59a093cd11cf3012de0ded64,66a626ef09d4e21e1a8894ec,6735c5b8ce58982c1c06adde,2024-11-14_10h41.43.566,Tarea de género gramatical,2024.2.2,Win32,59.95203837,,,,,,,,,,,,,,,,,,,,,,,,189.906,190.985,a,1,0.402,,[],[],[],[],[],[],[],0.402,1,190.985,191.486,,,,,,107,MAS,CON,150,cubo,,l,191.486,191.486,0.319444444,0.496296296,0,0,0,,0,49,49,106,1,,,,
,,,,,,59a093cd11cf3012de0ded64,66a626ef09d4e21e1a8894ec,6735c5b8ce58982c1c06adde,2024-11-14_10h41.43.566,Tarea de género gramatical,2024.2.2,Win32,59.95203837,,,,,,,,,,,,,,,,,,,,,,,,191.488,192.471,l,1,0.302,,[],[],[],[],[],[],[],0.302,1,192.471,192.97,,,,,,104,FEM,CON,150,vela,,a,192.971,192.973,0.319444444,0.496296296,0,0,0,,0,50,50,103,1,,,,
,,,,,,59a093cd11cf3012de0ded64,66a626ef09d4e21e1a8894ec,6735c5b8ce58982c1c06adde,2024-11-14_10h41.43.566,Tarea de género gramatical,2024.2.2,Win32,59.95203837,,,,,,,,,,,,,,,,,,,,,,,,192.975,194.188,l,1,0.537,,[],[],[],[],[],[],[],0.537,1,194.189,194.689,,,,,,79,FEM,AGR,150,mina,la,a,194.691,194.695,0.319444444,0.496296296,0,0,0,,0,51,51,78,1,,,,
,,,,,,59a093cd11cf3012de0ded64,66a626ef09d4e21e1a8894ec,6735c5b8ce58982c1c06adde,2024-11-14_10h41.43.566,Tarea de género gramatical,2024.2.2,Win32,59.95203837,,,,,,,,,,,,,,,,,,,,,,,,194.696,195.773,a,1,0.401,,[],[],[],[],[],[],[],0.401,1,195.773,196.274,,,,,,287,MAS,CON,150,plato,,l,196.274,196.274,0.319444444,0.496296296,0,0,0,,0,52,52,286,1,,,,
,,,,,,59a093cd11cf3012de0ded64,66a626ef09d4e21e1a8894ec,6735c5b8ce58982c1c06adde,2024-11-14_10h41.43.566,Tarea de género gramatical,2024.2.2,Win32,59.95203837,,,,,,,,,,,,,,,,,,,,,,,,196.277,197.292,a,1,0.339,,[],[],[],[],[],[],[],0.339,1,197.293,197.792,,,,,,41,MAS,CON,150,bote,,l,197.792,197.793,0.319444444,0.496296296,0,0,0,,0,53,53,40,1,,,,
,,,,,,59a093cd11cf3012de0ded64,66a626ef09d4e21e1a8894ec,6735c5b8ce58982c1c06adde,2024-11-14_10h41.43.566,Tarea de género gramatical,2024.2.2,Win32,59.95203837,,,,,,,,,,,,,,,,,,,,,,,,197.796,198.843,l,1,0.37,,[],[],[],[],[],[],[],0.37,1,198.843,199.344,,,,,,39,FEM,DIS,150,luna,el,a,199.344,199.344,0.319444444,0.496296296,0,0,0,,0,54,54,38,1,,,,
,,,,,,59a093cd11cf3012de0ded64,66a626ef09d4e21e1a8894ec,6735c5b8ce58982c1c06adde,2024-11-14_10h41.43.566,Tarea de género gramatical,2024.2.2,Win32,59.95203837,,,,,,,,,,,,,,,,,,,,,,,,199.346,200.377,l,1,0.352,,[],[],[],[],[],[],[],0.352,1,200.377,200.878,,,,,,175,FEM,AGR,150,señal,la,a,200.878,200.879,0.319444444,0.496296296,0,0,0,,0,55,55,174,1,,,,
,,,,,,59a093cd11cf3012de0ded64,66a626ef09d4e21e1a8894ec,6735c5b8ce58982c1c06adde,2024-11-14_10h41.43.566,Tarea de género gramatical,2024.2.2,Win32,59.95203837,,,,,,,,,,,,,,,,,,,,,,,,200.881,201.88,l,1,0.323,,[],[],[],[],[],[],[],0.323,1,201.88,202.38,,,,,,105,FEM,DIS,150,jefa,el,a,202.382,202.386,0.319444444,0.496296296,0,0,0,,0,56,56,104,1,,,,
,,,,,,59a093cd11cf3012de0ded64,66a626ef09d4e21e1a8894ec,6735c5b8ce58982c1c06adde,2024-11-14_10h41.43.566,Tarea de género gramatical,2024.2.2,Win32,59.95203837,,,,,,,,,,,,,,,,,,,,,,,,202.387,203.431,a,0,0.372,,[],[],[],[],[],[],[],0.372,0,203.433,203.931,,,,,,319,FEM,AGR,150,sangre,la,a,203.932,203.932,0.319444444,0.496296296,0,0,0,,0,57,57,318,1,,,,
,,,,,,59a093cd11cf3012de0ded64,66a626ef09d4e21e1a8894ec,6735c5b8ce58982c1c06adde,2024-11-14_10h41.43.566,Tarea de género gramatical,2024.2.2,Win32,59.95203837,,,,,,,,,,,,,,,,,,,,,,,,203.934,204.949,l,1,0.336,,[],[],[],[],[],[],[],0.336,1,204.951,205.45,,,,,,44,FEM,CON,150,zona,,a,205.45,205.45,0.319444444,0.496296296,0,0,0,,0,58,58,43,1,,,,
,,,,,,59a093cd11cf3012de0ded64,66a626ef09d4e21e1a8894ec,6735c5b8ce58982c1c06adde,2024-11-14_10h41.43.566,Tarea de género gramatical,2024.2.2,Win32,59.95203837,,,,,,,,,,,,,,,,,,,,,,,,205.454,206.417,l,1,0.283,,[],[],[],[],[],[],[],0.283,1,206.418,206.917,,,,,,9,FEM,DIS,150,mamá,el,a,206.917,206.918,0.319444444,0.496296296,0,0,0,,0,59,59,8,1,,,,
,,,,,,59a093cd11cf3012de0ded64,66a626ef09d4e21e1a8894ec,6735c5b8ce58982c1c06adde,2024-11-14_10h41.43.566,Tarea de género gramatical,2024.2.2,Win32,59.95203837,,,,,,,,,,,,,,,,,,,,,,,,206.92,207.968,a,1,0.385,,[],[],[],[],[],[],[],0.385,1,207.97,208.469,,,,,,34,MAS,AGR,150,gato,el,l,208.471,208.473,0.319444444,0.496296296,0,0,0,,0,60,60,33,1,,,,
,,,,,,59a093cd11cf3012de0ded64,66a626ef09d4e21e1a8894ec,6735c5b8ce58982c1c06adde,2024-11-14_10h41.43.566,Tarea de género gramatical,2024.2.2,Win32,59.95203837,,,,,,,,,,,,,,,,,,,,,,,,208.474,209.754,a,1,0.601,,[],[],[],[],[],[],[],0.601,1,209.754,210.254,,,,,,228,MAS,DIS,150,nivel,la,l,210.255,210.255,0.319444444,0.496296296,0,0,0,,0,61,61,227,1,,,,
,,,,,,59a093cd11cf3012de0ded64,66a626ef09d4e21e1a8894ec,6735c5b8ce58982c1c06adde,2024-11-14_10h41.43.566,Tarea de género gramatical,2024.2.2,Win32,59.95203837,,,,,,,,,,,,,,,,,,,,,,,,210.258,211.306,l,1,0.369,,[],[],[],[],[],[],[],0.369,1,211.306,211.806,,,,,,87,FEM,DIS,150,risa,el,a,211.806,211.806,0.319444444,0.496296296,0,0,0,,0,62,62,86,1,,,,
,,,,,,59a093cd11cf3012de0ded64,66a626ef09d4e21e1a8894ec,6735c5b8ce58982c1c06adde,2024-11-14_10h41.43.566,Tarea de género gramatical,2024.2.2,Win32,59.95203837,,,,,,,,,,,,,,,,,,,,,,,,211.808,213.073,l,1,0.59,,[],[],[],[],[],[],[],0.59,1,213.073,213.574,,,,,,381,FEM,DIS,150,bebida,el,a,213.574,213.575,0.319444444,0.496296296,0,0,0,,0,63,63,380,1,,,,
,,,,,,59a093cd11cf3012de0ded64,66a626ef09d4e21e1a8894ec,6735c5b8ce58982c1c06adde,2024-11-14_10h41.43.566,Tarea de género gramatical,2024.2.2,Win32,59.95203837,,,,,,,,,,,,,,,,,,,,,,,,213.577,214.626,l,1,0.371,,[],[],[],[],[],[],[],0.371,1,214.626,215.125,,,,,,327,FEM,DIS,150,tienda,el,a,215.125,215.125,0.319444444,0.496296296,0,0,0,,0,64,64,326,1,,,,
,,,,,,59a093cd11cf3012de0ded64,66a626ef09d4e21e1a8894ec,6735c5b8ce58982c1c06adde,2024-11-14_10h41.43.566,Tarea de género gramatical,2024.2.2,Win32,59.95203837,,,,,,,,,,,,,,,,,,,,,,,,215.128,216.16,l,1,0.37,,[],[],[],[],[],[],[],0.37,1,216.16,216.661,,,,,,199,FEM,AGR,150,nariz,la,a,216.663,216.665,0.319444444,0.496296296,0,0,0,,0,65,65,198,1,,,,
,,,,,,59a093cd11cf3012de0ded64,66a626ef09d4e21e1a8894ec,6735c5b8ce58982c1c06adde,2024-11-14_10h41.43.566,Tarea de género gramatical,2024.2.2,Win32,59.95203837,,,,,,,,,,,,,,,,,,,,,,,,216.666,217.645,l,1,0.307,,[],[],[],[],[],[],[],0.307,1,217.645,218.145,,,,,,223,FEM,AGR,150,plata,la,a,218.145,218.145,0.319444444,0.496296296,0,0,0,,0,66,66,222,1,,,,
,,,,,,59a093cd11cf3012de0ded64,66a626ef09d4e21e1a8894ec,6735c5b8ce58982c1c06adde,2024-11-14_10h41.43.566,Tarea de género gramatical,2024.2.2,Win32,59.95203837,,,,,,,,,,,,,,,,,,,,,,,,218.148,219.213,a,1,0.384,,[],[],[],[],[],[],[],0.384,1,219.214,219.714,,,,,,202,MAS,AGR,150,honor,el,l,219.714,219.714,0.319444444,0.496296296,0,0,0,,0,67,67,201,1,,,,
,,,,,,59a093cd11cf3012de0ded64,66a626ef09d4e21e1a8894ec,6735c5b8ce58982c1c06adde,2024-11-14_10h41.43.566,Tarea de género gramatical,2024.2.2,Win32,59.95203837,,,,,,,,,,,,,,,,,,,,,,,,219.717,221.132,a,1,0.735,,[],[],[],[],[],[],[],0.735,1,221.132,221.632,,,,,,414,MAS,DIS,150,sótano,la,l,221.632,221.633,0.319444444,0.496296296,0,0,0,,0,68,68,413,1,,,,
,,,,,,59a093cd11cf3012de0ded64,66a626ef09d4e21e1a8894ec,6735c5b8ce58982c1c06adde,2024-11-14_10h41.43.566,Tarea de género gramatical,2024.2.2,Win32,59.95203837,,,,,,,,,,,,,,,,,,,,,,,,221.635,222.652,l,1,0.34,,[],[],[],[],[],[],[],0.34,1,222.654,223.15,,,,,,421,FEM,AGR,150,novela,la,a,223.153,223.156,0.319444444,0.496296296,0,0,0,,0,69,69,420,1,,,,
,,,,,,59a093cd11cf3012de0ded64,66a626ef09d4e21e1a8894ec,6735c5b8ce58982c1c06adde,2024-11-14_10h41.43.566,Tarea de género gramatical,2024.2.2,Win32,59.95203837,,,,,,,,,,,,,,,,,,,,,,,,223.158,224.435,l,1,0.601,,[],[],[],[],[],[],[],0.601,1,224.435,224.936,,,,,,409,FEM,AGR,150,moneda,la,a,224.936,224.936,0.319444444,0.496296296,0,0,0,,0,70,70,408,1,,,,
,,,,,,59a093cd11cf3012de0ded64,66a626ef09d4e21e1a8894ec,6735c5b8ce58982c1c06adde,2024-11-14_10h41.43.566,Tarea de género gramatical,2024.2.2,Win32,59.95203837,,,,,,,,,,,,,,,,,,,,,,,,224.938,226.221,l,1,0.608,,[],[],[],[],[],[],[],0.608,1,226.221,226.721,,,,,,21,FEM,DIS,150,boca,el,a,226.721,226.721,0.319444444,0.496296296,0,0,0,,0,71,71,20,1,,,,
,,,,,,59a093cd11cf3012de0ded64,66a626ef09d4e21e1a8894ec,6735c5b8ce58982c1c06adde,2024-11-14_10h41.43.566,Tarea de género gramatical,2024.2.2,Win32,59.95203837,,,,,,,,,,,,,,,,,,,,,,,,226.725,227.905,l,1,0.501,,[],[],[],[],[],[],[],0.501,1,227.906,228.406,,,,,,296,FEM,CON,150,feria,,a,228.406,228.406,0.319444444,0.496296296,0,0,0,,0,72,72,295,1,,,,
,,,,,,59a093cd11cf3012de0ded64,66a626ef09d4e21e1a8894ec,6735c5b8ce58982c1c06adde,2024-11-14_10h41.43.566,Tarea de género gramatical,2024.2.2,Win32,59.95203837,,,,,,,,,,,,,,,,,,,,,,,,228.409,229.657,l,1,0.568,,[],[],[],[],[],[],[],0.568,1,229.657,230.157,,,,,,189,FEM,DIS,150,pista,el,a,230.157,230.157,0.319444444,0.496296296,0,0,0,,0,73,73,188,1,,,,
,,,,,,59a093cd11cf3012de0ded64,66a626ef09d4e21e1a8894ec,6735c5b8ce58982c1c06adde,2024-11-14_10h41.43.566,Tarea de género gramatical,2024.2.2,Win32,59.95203837,,,,,,,,,,,,,,,,,,,,,,,,230.16,231.159,a,0,0.319,,[],[],[],[],[],[],[],0.319,0,231.161,231.659,,,,,,351,FEM,DIS,150,espada,el,a,231.661,231.664,0.319444444,0.496296296,0,0,0,,0,74,74,350,1,,,,
,,,,,,59a093cd11cf3012de0ded64,66a626ef09d4e21e1a8894ec,6735c5b8ce58982c1c06adde,2024-11-14_10h41.43.566,Tarea de género gramatical,2024.2.2,Win32,59.95203837,,,,,,,,,,,,,,,,,,,,,,,,231.665,232.743,a,1,0.402,,[],[],[],[],[],[],[],0.402,1,232.745,233.244,,,,,,316,MAS,AGR,150,cuerpo,el,l,233.244,233.244,0.319444444,0.496296296,0,0,0,,0,75,75,315,1,,,,
,,,,,,59a093cd11cf3012de0ded64,66a626ef09d4e21e1a8894ec,6735c5b8ce58982c1c06adde,2024-11-14_10h41.43.566,Tarea de género gramatical,2024.2.2,Win32,59.95203837,,,,,,,,,,,,,,,,,,,,,,,,233.248,234.479,l,1,0.551,,[],[],[],[],[],[],[],0.551,1,234.479,234.978,,,,,,315,FEM,DIS,150,manera,el,a,234.979,234.979,0.319444444,0.496296296,0,0,0,,0,76,76,314,1,,,,
,,,,,,59a093cd11cf3012de0ded64,66a626ef09d4e21e1a8894ec,6735c5b8ce58982c1c06adde,2024-11-14_10h41.43.566,Tarea de género gramatical,2024.2.2,Win32,59.95203837,,,,,,,,,,,,,,,,,,,,,,,,234.982,236.014,a,1,0.359,,[],[],[],[],[],[],[],0.359,1,236.014,236.514,,,,,,71,MAS,CON,150,pozo,,l,236.514,236.514,0.319444444,0.496296296,0,0,0,,0,77,77,70,1,,,,
,,,,,,59a093cd11cf3012de0ded64,66a626ef09d4e21e1a8894ec,6735c5b8ce58982c1c06adde,2024-11-14_10h41.43.566,Tarea de género gramatical,2024.2.2,Win32,59.95203837,,,,,,,,,,,,,,,,,,,,,,,,236.517,237.532,a,1,0.342,,[],[],[],[],[],[],[],0.342,1,237.532,238.032,,,,,,155,MAS,CON,150,mundo,,l,238.034,238.036,0.319444444,0.496296296,0,0,0,,0,78,78,154,1,,,,
,,,,,,59a093cd11cf3012de0ded64,66a626ef09d4e21e1a8894ec,6735c5b8ce58982c1c06adde,2024-11-14_10h41.43.566,Tarea de género gramatical,2024.2.2,Win32,59.95203837,,,,,,,,,,,,,,,,,,,,,,,,238.037,239.05,l,1,0.338,,[],[],[],[],[],[],[],0.338,1,239.051,239.55,,,,,,392,FEM,CON,150,maleta,,a,239.55,239.551,0.319444444,0.496296296,0,0,0,,0,79,79,391,1,,,,
,,,,,,59a093cd11cf3012de0ded64,66a626ef09d4e21e1a8894ec,6735c5b8ce58982c1c06adde,2024-11-14_10h41.43.566,Tarea de género gramatical,2024.2.2,Win32,59.95203837,,,,,,,,,,,,,,,,,,,,,,,,239.553,240.752,a,1,0.521,,[],[],[],[],[],[],[],0.521,1,240.752,241.252,,,,,,311,MAS,CON,150,camino,,l,241.252,241.252,0.319444444,0.496296296,0,0,0,,0,80,80,310,1,,,,
,,,,,,59a093cd11cf3012de0ded64,66a626ef09d4e21e1a8894ec,6735c5b8ce58982c1c06adde,2024-11-14_10h41.43.566,Tarea de género gramatical,2024.2.2,Win32,59.95203837,,,,,,,,,,,,,,,,,,,,,,,,241.255,242.436,a,1,0.501,,[],[],[],[],[],[],[],0.501,1,242.436,242.937,,,,,,341,MAS,CON,150,precio,,l,242.937,242.937,0.319444444,0.496296296,0,0,0,,0,81,81,340,1,,,,
,,,,,,59a093cd11cf3012de0ded64,66a626ef09d4e21e1a8894ec,6735c5b8ce58982c1c06adde,2024-11-14_10h41.43.566,Tarea de género gramatical,2024.2.2,Win32,59.95203837,,,,,,,,,,,,,,,,,,,,,,,,242.939,244.038,l,1,0.438,,[],[],[],[],[],[],[],0.438,1,244.039,244.538,,,,,,253,FEM,AGR,150,aldea,la,a,244.539,244.539,0.319444444,0.496296296,0,0,0,,0,82,82,252,1,,,,
,,,,,,59a093cd11cf3012de0ded64,66a626ef09d4e21e1a8894ec,6735c5b8ce58982c1c06adde,2024-11-14_10h41.43.566,Tarea de género gramatical,2024.2.2,Win32,59.95203837,,,,,,,,,,,,,,,,,,,,,,,,244.541,245.59,a,1,0.374,,[],[],[],[],[],[],[],0.374,1,245.59,246.09,,,,,,419,MAS,CON,150,cuento,,l,246.092,246.094,0.319444444,0.496296296,0,0,0,,0,83,83,418,1,,,,
,,,,,,59a093cd11cf3012de0ded64,66a626ef09d4e21e1a8894ec,6735c5b8ce58982c1c06adde,2024-11-14_10h41.43.566,Tarea de género gramatical,2024.2.2,Win32,59.95203837,,,,,,,,,,,,,,,,,,,,,,,,246.095,247.125,a,1,0.358,,[],[],[],[],[],[],[],0.358,1,247.126,247.625,,,,,,58,MAS,AGR,150,mono,el,l,247.625,247.626,0.319444444,0.496296296,0,0,0,,0,84,84,57,1,,,,
,,,,,,59a093cd11cf3012de0ded64,66a626ef09d4e21e1a8894ec,6735c5b8ce58982c1c06adde,2024-11-14_10h41.43.566,Tarea de género gramatical,2024.2.2,Win32,59.95203837,,,,,,,,,,,,,,,,,,,,,,,,247.629,248.676,l,0,0.369,,[],[],[],[],[],[],[],0.369,0,248.678,249.177,,,,,,144,MAS,DIS,150,amor,la,l,249.177,249.177,0.319444444,0.496296296,0,0,0,,0,85,85,143,1,,,,
,,,,,,59a093cd11cf3012de0ded64,66a626ef09d4e21e1a8894ec,6735c5b8ce58982c1c06adde,2024-11-14_10h41.43.566,Tarea de género gramatical,2024.2.2,Win32,59.95203837,,,,,,,,,,,,,,,,,,,,,,,,249.179,250.277,l,1,0.422,,[],[],[],[],[],[],[],0.422,1,250.279,250.778,,,,,,278,FEM,CON,150,presa,,a,250.778,250.778,0.319444444,0.496296296,0,0,0,,0,86,86,277,1,,,,
,,,,,,59a093cd11cf3012de0ded64,66a626ef09d4e21e1a8894ec,6735c5b8ce58982c1c06adde,2024-11-14_10h41.43.566,Tarea de género gramatical,2024.2.2,Win32,59.95203837,,,,,,,,,,,,,,,,,,,,,,,,250.781,251.812,a,1,0.355,,[],[],[],[],[],[],[],0.355,1,251.813,252.313,,,,,,22,MAS,AGR,150,pelo,el,l,252.316,252.318,0.319444444,0.496296296,0,0,0,,0,87,87,21,1,,,,
,,,,,,59a093cd11cf3012de0ded64,66a626ef09d4e21e1a8894ec,6735c5b8ce58982c1c06adde,2024-11-14_10h41.43.566,Tarea de género gramatical,2024.2.2,Win32,59.95203837,,,,,,,,,,,,,,,,,,,,,,,,252.319,253.548,l,1,0.557,,[],[],[],[],[],[],[],0.557,1,253.548,254.048,,,,,,441,FEM,DIS,150,medida,el,a,254.048,254.048,0.319444444,0.496296296,0,0,0,,0,88,88,440,1,,,,
,,,,,,59a093cd11cf3012de0ded64,66a626ef09d4e21e1a8894ec,6735c5b8ce58982c1c06adde,2024-11-14_10h41.43.566,Tarea de género gramatical,2024.2.2,Win32,59.95203837,,,,,,,,,,,,,,,,,,,,,,,,254.05,255.216,l,1,0.505,,[],[],[],[],[],[],[],0.505,1,255.216,255.718,,,,,,333,FEM,DIS,150,locura,el,a,255.719,255.72,0.319444444,0.496296296,0,0,0,,0,89,89,332,1,,,,
,,,,,,59a093cd11cf3012de0ded64,66a626ef09d4e21e1a8894ec,6735c5b8ce58982c1c06adde,2024-11-14_10h41.43.566,Tarea de género gramatical,2024.2.2,Win32,59.95203837,,,,,,,,,,,,,,,,,,,,,,,,255.724,256.868,a,0,0.466,,[],[],[],[],[],[],[],0.466,0,256.87,257.368,,,,,,267,FEM,DIS,150,barba,el,a,257.368,257.368,0.319444444,0.496296296,0,0,0,,0,90,90,266,1,,,,
,,,,,,59a093cd11cf3012de0ded64,66a626ef09d4e21e1a8894ec,6735c5b8ce58982c1c06adde,2024-11-14_10h41.43.566,Tarea de género gramatical,2024.2.2,Win32,59.95203837,,,,,,,,,,,,,,,,,,,,,,,,257.372,258.536,a,1,0.485,,[],[],[],[],[],[],[],0.485,1,258.538,259.036,,,,,,234,MAS,DIS,150,héroe,la,l,259.037,259.037,0.319444444,0.496296296,0,0,0,,0,91,91,233,1,,,,
,,,,,,59a093cd11cf3012de0ded64,66a626ef09d4e21e1a8894ec,6735c5b8ce58982c1c06adde,2024-11-14_10h41.43.566,Tarea de género gramatical,2024.2.2,Win32,59.95203837,,,,,,,,,,,,,,,,,,,,,,,,259.039,260.037,l,1,0.319,,[],[],[],[],[],[],[],0.319,1,260.038,260.538,,,,,,19,FEM,AGR,150,niña,la,a,260.54,260.543,0.319444444,0.496296296,0,0,0,,0,92,92,18,1,,,,
,,,,,,59a093cd11cf3012de0ded64,66a626ef09d4e21e1a8894ec,6735c5b8ce58982c1c06adde,2024-11-14_10h41.43.566,Tarea de género gramatical,2024.2.2,Win32,59.95203837,,,,,,,,,,,,,,,,,,,,,,,,260.544,261.572,a,1,0.351,,[],[],[],[],[],[],[],0.351,1,261.572,262.073,,,,,,54,MAS,DIS,150,humo,la,l,262.073,262.073,0.319444444,0.496296296,0,0,0,,0,93,93,53,1,,,,
,,,,,,59a093cd11cf3012de0ded64,66a626ef09d4e21e1a8894ec,6735c5b8ce58982c1c06adde,2024-11-14_10h41.43.566,Tarea de género gramatical,2024.2.2,Win32,59.95203837,,,,,,,,,,,,,,,,,,,,,,,,262.075,263.124,l,1,0.371,,[],[],[],[],[],[],[],0.371,1,263.124,263.624,,,,,,200,FEM,CON,150,silla,,a,263.624,263.625,0.319444444,0.496296296,0,0,0,,0,94,94,199,1,,,,
,,,,,,59a093cd11cf3012de0ded64,66a626ef09d4e21e1a8894ec,6735c5b8ce58982c1c06adde,2024-11-14_10h41.43.566,Tarea de género gramatical,2024.2.2,Win32,59.95203837,,,,,,,,,,,,,,,,,,,,,,,,263.629,264.742,a,1,0.435,,[],[],[],[],[],[],[],0.435,1,264.743,265.243,,,,,,281,MAS,CON,150,actor,,l,265.243,265.243,0.319444444,0.496296296,0,0,0,,0,95,95,280,1,,,,
,,,,,,59a093cd11cf3012de0ded64,66a626ef09d4e21e1a8894ec,6735c5b8ce58982c1c06adde,2024-11-14_10h41.43.566,Tarea de género gramatical,2024.2.2,Win32,59.95203837,,,,,,,,,,,,,,,,,,,,,,,,265.246,266.527,l,1,0.602,,[],[],[],[],[],[],[],0.602,1,266.527,267.028,,,,,,289,FEM,AGR,150,tabla,la,a,267.03,267.033,0.319444444,0.496296296,0,0,0,,0,96,96,288,1,,,,
,,,,,,59a093cd11cf3012de0ded64,66a626ef09d4e21e1a8894ec,6735c5b8ce58982c1c06adde,2024-11-14_10h41.43.566,Tarea de género gramatical,2024.2.2,Win32,59.95203837,,,,,,,,,,,,,,,,,,,,,,,,267.033,268.179,l,1,0.47,,[],[],[],[],[],[],[],0.47,1,268.18,268.68,,,,,,308,FEM,CON,150,semana,,a,268.68,268.68,0.319444444,0.496296296,0,0,0,,0,97,97,307,1,,,,
,,,,,,59a093cd11cf3012de0ded64,66a626ef09d4e21e1a8894ec,6735c5b8ce58982c1c06adde,2024-11-14_10h41.43.566,Tarea de género gramatical,2024.2.2,Win32,59.95203837,,,,,,,,,,,,,,,,,,,,,,,,268.682,269.713,a,1,0.352,,[],[],[],[],[],[],[],0.352,1,269.714,270.214,,,,,,442,MAS,AGR,150,cuadro,el,l,270.214,270.214,0.319444444,0.496296296,0,0,0,,0,98,98,441,1,,,,
,,,,,,59a093cd11cf3012de0ded64,66a626ef09d4e21e1a8894ec,6735c5b8ce58982c1c06adde,2024-11-14_10h41.43.566,Tarea de género gramatical,2024.2.2,Win32,59.95203837,,,,,,,,,,,,,,,,,,,,,,,,270.217,271.231,l,1,0.341,,[],[],[],[],[],[],[],0.341,1,271.232,271.732,,,,,,260,FEM,CON,150,barra,,a,271.732,271.733,0.319444444,0.496296296,0,0,0,,0,99,99,259,1,,,,
,,,,,,59a093cd11cf3012de0ded64,66a626ef09d4e21e1a8894ec,6735c5b8ce58982c1c06adde,2024-11-14_10h41.43.566,Tarea de género gramatical,2024.2.2,Win32,59.95203837,,,,,,,,,,,,,,,,,,,,,,,,271.735,272.8,a,1,0.388,,[],[],[],[],[],[],[],0.388,1,272.801,273.301,,,,,,6,MAS,DIS,150,lado,la,l,273.301,273.301,0.319444444,0.496296296,0,0,0,,0,100,100,5,1,,,,
,,,,,,59a093cd11cf3012de0ded64,66a626ef09d4e21e1a8894ec,6735c5b8ce58982c1c06adde,2024-11-14_10h41.43.566,Tarea de género gramatical,2024.2.2,Win32,59.95203837,,,,,,,,,,,,,,,,,,,,,,,,273.303,274.351,a,1,0.372,,[],[],[],[],[],[],[],0.372,1,274.351,274.852,,,,,,66,MAS,DIS,150,muro,la,l,274.854,274.856,0.319444444,0.496296296,0,0,0,,0,101,101,65,1,,,,
,,,,,,59a093cd11cf3012de0ded64,66a626ef09d4e21e1a8894ec,6735c5b8ce58982c1c06adde,2024-11-14_10h41.43.566,Tarea de género gramatical,2024.2.2,Win32,59.95203837,,,,,,,,,,,,,,,,,,,,,,,,274.857,275.986,l,1,0.45,,[],[],[],[],[],[],[],0.45,1,275.986,276.487,,,,,,182,FEM,CON,150,prisa,,a,276.487,276.487,0.319444444,0.496296296,0,0,0,,0,102,102,181,1,,,,
,,,,,,59a093cd11cf3012de0ded64,66a626ef09d4e21e1a8894ec,6735c5b8ce58982c1c06adde,2024-11-14_10h41.43.566,Tarea de género gramatical,2024.2.2,Win32,59.95203837,,,,,,,,,,,,,,,,,,,,,,,,276.489,277.622,a,1,0.451,,[],[],[],[],[],[],[],0.451,1,277.622,278.122,,,,,,60,MAS,DIS,150,tono,la,l,278.122,278.122,0.319444444,0.496296296,0,0,0,,0,103,103,59,1,,,,
,,,,,,59a093cd11cf3012de0ded64,66a626ef09d4e21e1a8894ec,6735c5b8ce58982c1c06adde,2024-11-14_10h41.43.566,Tarea de género gramatical,2024.2.2,Win32,59.95203837,,,,,,,,,,,,,,,,,,,,,,,,278.124,279.423,a,1,0.622,,[],[],[],[],[],[],[],0.622,1,279.424,279.924,,,,,,257,MAS,CON,150,pecho,,l,279.924,279.924,0.319444444,0.496296296,0,0,0,,0,104,104,256,1,,,,
,,,,,,59a093cd11cf3012de0ded64,66a626ef09d4e21e1a8894ec,6735c5b8ce58982c1c06adde,2024-11-14_10h41.43.566,Tarea de género gramatical,2024.2.2,Win32,59.95203837,,,,,,,,,,,,,,,,,,,,,,,,279.927,280.991,l,1,0.384,,[],[],[],[],[],[],[],0.384,1,280.991,281.492,,,,,,445,FEM,AGR,150,bondad,la,a,281.494,281.496,0.319444444,0.496296296,0,0,0,,0,105,105,444,1,,,,
,,,,,,59a093cd11cf3012de0ded64,66a626ef09d4e21e1a8894ec,6735c5b8ce58982c1c06adde,2024-11-14_10h41.43.566,Tarea de género gramatical,2024.2.2,Win32,59.95203837,,,,,,,,,,,,,,,,,,,,,,,,281.497,282.71,l,1,0.534,,[],[],[],[],[],[],[],0.534,1,282.71,283.211,,,,,,163,FEM,AGR,150,calle,la,a,283.211,283.211,0.319444444,0.496296296,0,0,0,,0,106,106,162,1,,,,
,,,,,,59a093cd11cf3012de0ded64,66a626ef09d4e21e1a8894ec,6735c5b8ce58982c1c06adde,2024-11-14_10h41.43.566,Tarea de género gramatical,2024.2.2,Win32,59.95203837,,,,,,,,,,,,,,,,,,,,,,,,283.213,284.245,l,1,0.357,,[],[],[],[],[],[],[],0.357,1,284.245,284.745,,,,,,325,FEM,AGR,150,tierra,la,a,284.745,284.745,0.319444444,0.496296296,0,0,0,,0,107,107,324,1,,,,
,,,,,,59a093cd11cf3012de0ded64,66a626ef09d4e21e1a8894ec,6735c5b8ce58982c1c06adde,2024-11-14_10h41.43.566,Tarea de género gramatical,2024.2.2,Win32,59.95203837,,,,,,,,,,,,,,,,,,,,,,,,284.747,285.813,a,1,0.386,,[],[],[],[],[],[],[],0.386,1,285.814,286.313,,,,,,342,MAS,DIS,150,abuelo,la,l,286.313,286.313,0.319444444,0.496296296,0,0,0,,0,108,108,341,1,,,,
,,,,,,59a093cd11cf3012de0ded64,66a626ef09d4e21e1a8894ec,6735c5b8ce58982c1c06adde,2024-11-14_10h41.43.566,Tarea de género gramatical,2024.2.2,Win32,59.95203837,,,,,,,,,,,,,,,,,,,,,,,,286.316,287.598,l,0,0.601,,[],[],[],[],[],[],[],0.601,0,287.6,288.099,,,,,,102,MAS,DIS,150,coro,la,l,288.099,288.099,0.319444444,0.496296296,0,0,0,,0,109,109,101,1,,,,
,,,,,,59a093cd11cf3012de0ded64,66a626ef09d4e21e1a8894ec,6735c5b8ce58982c1c06adde,2024-11-14_10h41.43.566,Tarea de género gramatical,2024.2.2,Win32,59.95203837,,,,,,,,,,,,,,,,,,,,,,,,288.102,289.601,l,0,0.822,,[],[],[],[],[],[],[],0.822,0,289.603,290.101,,,,,,29,MAS,CON,150,frío,,l,290.106,290.108,0.319444444,0.496296296,0,0,0,,0,110,110,28,1,,,,
,,,,,,59a093cd11cf3012de0ded64,66a626ef09d4e21e1a8894ec,6735c5b8ce58982c1c06adde,2024-11-14_10h41.43.566,Tarea de género gramatical,2024.2.2,Win32,59.95203837,,,,,,,,,,,,,,,,,,,,,,,,290.11,291.186,l,1,0.401,,[],[],[],[],[],[],[],0.401,1,291.188,291.686,,,,,,15,FEM,DIS,150,cama,el,a,291.686,291.686,0.319444444,0.496296296,0,0,0,,0,111,111,14,1,,,,
,,,,,,59a093cd11cf3012de0ded64,66a626ef09d4e21e1a8894ec,6735c5b8ce58982c1c06adde,2024-11-14_10h41.43.566,Tarea de género gramatical,2024.2.2,Win32,59.95203837,,,,,,,,,,,,,,,,,,,,,,,,291.689,292.77,l,1,0.422,,[],[],[],[],[],[],[],0.422,1,292.77,293.271,,,,,,26,FEM,CON,150,pena,,a,293.271,293.272,0.319444444,0.496296296,0,0,0,,0,112,112,25,1,,,,
,,,,,,59a093cd11cf3012de0ded64,66a626ef09d4e21e1a8894ec,6735c5b8ce58982c1c06adde,2024-11-14_10h41.43.566,Tarea de género gramatical,2024.2.2,Win32,59.95203837,,,,,,,,,,,,,,,,,,,,,,,,293.273,294.355,a,1,0.407,,[],[],[],[],[],[],[],0.407,1,294.356,294.855,,,,,,310,MAS,AGR,150,nombre,el,l,294.855,294.855,0.319444444,0.496296296,0,0,0,,0,113,113,309,1,,,,
,,,,,,59a093cd11cf3012de0ded64,66a626ef09d4e21e1a8894ec,6735c5b8ce58982c1c06adde,2024-11-14_10h41.43.566,Tarea de género gramatical,2024.2.2,Win32,59.95203837,,,,,,,,,,,,,,,,,,,,,,,,294.858,295.89,l,1,0.351,,[],[],[],[],[],[],[],0.351,1,295.89,296.39,,,,,,164,FEM,CON,150,novia,,a,296.392,296.396,0.319444444,0.496296296,0,0,0,,0,114,114,163,1,,,,
,,,,,,59a093cd11cf3012de0ded64,66a626ef09d4e21e1a8894ec,6735c5b8ce58982c1c06adde,2024-11-14_10h41.43.566,Tarea de género gramatical,2024.2.2,Win32,59.95203837,,,,,,,,,,,,,,,,,,,,,,,,296.397,297.491,l,1,0.425,,[],[],[],[],[],[],[],0.425,1,297.492,297.992,,,,,,134,FEM,CON,150,rama,,a,297.992,297.992,0.319444444,0.496296296,0,0,0,,0,115,115,133,1,,,,
,,,,,,59a093cd11cf3012de0ded64,66a626ef09d4e21e1a8894ec,6735c5b8ce58982c1c06adde,2024-11-14_10h41.43.566,Tarea de género gramatical,2024.2.2,Win32,59.95203837,,,,,,,,,,,,,,,,,,,,,,,,297.995,299.043,l,1,0.366,,[],[],[],[],[],[],[],0.366,1,299.043,299.544,,,,,,343,FEM,AGR,150,trampa,la,a,299.544,299.544,0.319444444,0.496296296,0,0,0,,0,116,116,342,1,,,,
,,,,,,59a093cd11cf3012de0ded64,66a626ef09d4e21e1a8894ec,6735c5b8ce58982c1c06adde,2024-11-14_10h41.43.566,Tarea de género gramatical,2024.2.2,Win32,59.95203837,,,,,,,,,,,,,,,,,,,,,,,,299.546,300.511,l,1,0.286,,[],[],[],[],[],[],[],0.286,1,300.511,301.012,,,,,,242,FEM,CON,150,pizza,,a,301.012,301.012,0.319444444,0.496296296,0,0,0,,0,117,117,241,1,,,,
,,,,,,59a093cd11cf3012de0ded64,66a626ef09d4e21e1a8894ec,6735c5b8ce58982c1c06adde,2024-11-14_10h41.43.566,Tarea de género gramatical,2024.2.2,Win32,59.95203837,,,,,,,,,,,,,,,,,,,,,,,,301.016,302.298,a,1,0.611,,[],[],[],[],[],[],[],0.611,1,302.299,302.796,,,,,,444,MAS,DIS,150,límite,la,l,302.796,302.796,0.319444444,0.496296296,0,0,0,,0,118,118,443,1,,,,
,,,,,,59a093cd11cf3012de0ded64,66a626ef09d4e21e1a8894ec,6735c5b8ce58982c1c06adde,2024-11-14_10h41.43.566,Tarea de género gramatical,2024.2.2,Win32,59.95203837,,,,,,,,,,,,,,,,,,,,,,,,302.799,303.898,a,1,0.417,,[],[],[],[],[],[],[],0.417,1,303.898,304.398,,,,,,112,MAS,AGR,150,reto,el,l,304.4,304.402,0.319444444,0.496296296,0,0,0,,0,119,119,111,1,,,,
,,,,,,59a093cd11cf3012de0ded64,66a626ef09d4e21e1a8894ec,6735c5b8ce58982c1c06adde,2024-11-14_10h41.43.566,Tarea de género gramatical,2024.2.2,Win32,59.95203837,,,,,,,,,,,,,,,,,,,,,,,,304.404,305.499,a,0,0.419,,[],[],[],[],[],[],[],0.419,0,305.502,306,,,,,,93,FEM,DIS,150,lata,el,a,306,306,0.319444444,0.496296296,0,0,0,,0,120,120,92,1,,,,
,,,,,,59a093cd11cf3012de0ded64,66a626ef09d4e21e1a8894ec,6735c5b8ce58982c1c06adde,2024-11-14_10h41.43.566,Tarea de género gramatical,2024.2.2,Win32,59.95203837,,,,,,,,,,,,,,,,,,,,,,,,306.004,307.101,l,1,0.419,,[],[],[],[],[],[],[],0.419,1,307.104,307.601,,,,,,237,FEM,DIS,150,ducha,el,a,307.601,307.601,0.319444444,0.496296296,0,0,0,,0,121,121,236,1,,,,
,,,,,,59a093cd11cf3012de0ded64,66a626ef09d4e21e1a8894ec,6735c5b8ce58982c1c06adde,2024-11-14_10h41.43.566,Tarea de género gramatical,2024.2.2,Win32,59.95203837,,,,,,,,,,,,,,,,,,,,,,,,307.605,308.986,l,1,0.701,,[],[],[],[],[],[],[],0.701,1,308.986,309.486,,,,,,297,FEM,DIS,150,manta,el,a,309.486,309.486,0.319444444,0.496296296,0,0,0,,0,122,122,296,1,,,,
,,,,,,59a093cd11cf3012de0ded64,66a626ef09d4e21e1a8894ec,6735c5b8ce58982c1c06adde,2024-11-14_10h41.43.566,Tarea de género gramatical,2024.2.2,Win32,59.95203837,,,,,,,,,,,,,,,,,,,,,,,,309.488,310.521,l,1,0.351,,[],[],[],[],[],[],[],0.351,1,310.521,311.022,,,,,,37,FEM,AGR,150,sala,la,a,311.023,311.026,0.319444444,0.496296296,0,0,0,,0,123,123,36,1,,,,
,,,,,,59a093cd11cf3012de0ded64,66a626ef09d4e21e1a8894ec,6735c5b8ce58982c1c06adde,2024-11-14_10h41.43.566,Tarea de género gramatical,2024.2.2,Win32,59.95203837,,,,,,,,,,,,,,,,,,,,,,,,311.027,312.055,l,1,0.352,,[],[],[],[],[],[],[],0.352,1,312.055,312.556,,,,,,283,FEM,AGR,150,pluma,la,a,312.556,312.556,0.319444444,0.496296296,0,0,0,,0,124,124,282,1,,,,
,,,,,,59a093cd11cf3012de0ded64,66a626ef09d4e21e1a8894ec,6735c5b8ce58982c1c06adde,2024-11-14_10h41.43.566,Tarea de género gramatical,2024.2.2,Win32,59.95203837,,,,,,,,,,,,,,,,,,,,,,,,312.559,313.691,a,1,0.452,,[],[],[],[],[],[],[],0.452,1,313.691,314.191,,,,,,330,MAS,DIS,150,estado,la,l,314.192,314.192,0.319444444,0.496296296,0,0,0,,0,125,125,329,1,,,,
,,,,,,59a093cd11cf3012de0ded64,66a626ef09d4e21e1a8894ec,6735c5b8ce58982c1c06adde,2024-11-14_10h41.43.566,Tarea de género gramatical,2024.2.2,Win32,59.95203837,,,,,,,,,,,,,,,,,,,,,,,,314.195,315.259,a,1,0.39,,[],[],[],[],[],[],[],0.39,1,315.26,315.76,,,,,,364,MAS,AGR,150,viento,el,l,315.76,315.76,0.319444444,0.496296296,0,0,0,,0,126,126,363,1,,,,
,,,,,,59a093cd11cf3012de0ded64,66a626ef09d4e21e1a8894ec,6735c5b8ce58982c1c06adde,2024-11-14_10h41.43.566,Tarea de género gramatical,2024.2.2,Win32,59.95203837,,,,,,,,,,,,,,,,,,,,,,,,315.762,316.961,a,1,0.519,,[],[],[],[],[],[],[],0.519,1,316.961,317.461,,,,,,418,MAS,AGR,150,pájaro,el,l,317.462,317.462,0.319444444,0.496296296,0,0,0,,0,127,127,417,1,,,,
,,,,,,59a093cd11cf3012de0ded64,66a626ef09d4e21e1a8894ec,6735c5b8ce58982c1c06adde,2024-11-14_10h41.43.566,Tarea de género gramatical,2024.2.2,Win32,59.95203837,,,,,,,,,,,,,,,,,,,,,,,,317.463,318.628,l,0,0.485,,[],[],[],[],[],[],[],0.485,0,318.632,319.13,,,,,,240,MAS,DIS,150,ruido,la,l,319.132,319.134,0.319444444,0.496296296,0,0,0,,0,128,128,239,1,,,,
,,,,,,59a093cd11cf3012de0ded64,66a626ef09d4e21e1a8894ec,6735c5b8ce58982c1c06adde,2024-11-14_10h41.43.566,Tarea de género gramatical,2024.2.2,Win32,59.95203837,,,,,,,,,,,,,,,,,,,,,,,,319.135,320.414,l,1,0.602,,[],[],[],[],[],[],[],0.602,1,320.417,320.915,,,,,,86,FEM,CON,150,cruz,,a,320.915,320.916,0.319444444,0.496296296,0,0,0,,0,129,129,85,1,,,,
,,,,,,59a093cd11cf3012de0ded64,66a626ef09d4e21e1a8894ec,6735c5b8ce58982c1c06adde,2024-11-14_10h41.43.566,Tarea de género gramatical,2024.2.2,Win32,59.95203837,,,,,,,,,,,,,,,,,,,,,,,,320.919,322.133,a,1,0.533,,[],[],[],[],[],[],[],0.533,1,322.133,322.635,,,,,,172,MAS,AGR,150,poder,el,l,322.636,322.637,0.319444444,0.496296296,0,0,0,,0,130,130,171,1,,,,
,,,,,,59a093cd11cf3012de0ded64,66a626ef09d4e21e1a8894ec,6735c5b8ce58982c1c06adde,2024-11-14_10h41.43.566,Tarea de género gramatical,2024.2.2,Win32,59.95203837,,,,,,,,,,,,,,,,,,,,,,,,322.64,323.818,l,1,0.502,,[],[],[],[],[],[],[],0.502,1,323.82,324.318,,,,,,183,FEM,DIS,150,llave,el,a,324.318,324.318,0.319444444,0.496296296,0,0,0,,0,131,131,182,1,,,,
,,,,,,59a093cd11cf3012de0ded64,66a626ef09d4e21e1a8894ec,6735c5b8ce58982c1c06adde,2024-11-14_10h41.43.566,Tarea de género gramatical,2024.2.2,Win32,59.95203837,,,,,,,,,,,,,,,,,,,,,,,,324.321,325.435,l,1,0.436,,[],[],[],[],[],[],[],0.436,1,325.436,325.936,,,,,,259,FEM,AGR,150,prima,la,a,325.938,325.942,0.319444444,0.496296296,0,0,0,,0,132,132,258,1,,,,
,,,,,,59a093cd11cf3012de0ded64,66a626ef09d4e21e1a8894ec,6735c5b8ce58982c1c06adde,2024-11-14_10h41.43.566,Tarea de género gramatical,2024.2.2,Win32,59.95203837,,,,,,,,,,,,,,,,,,,,,,,,325.943,327.021,l,1,0.401,,[],[],[],[],[],[],[],0.401,1,327.022,327.521,,,,,,405,FEM,DIS,150,parada,el,a,327.521,327.521,0.319444444,0.496296296,0,0,0,,0,133,133,404,1,,,,
,,,,,,59a093cd11cf3012de0ded64,66a626ef09d4e21e1a8894ec,6735c5b8ce58982c1c06adde,2024-11-14_10h41.43.566,Tarea de género gramatical,2024.2.2,Win32,59.95203837,,,,,,,,,,,,,,,,,,,,,,,,327.525,329.006,a,1,0.802,,[],[],[],[],[],[],[],0.802,1,329.006,329.507,,,,,,138,MAS,DIS,150,luto,la,l,329.507,329.507,0.319444444,0.496296296,0,0,0,,0,134,134,137,1,,,,
,,,,,,59a093cd11cf3012de0ded64,66a626ef09d4e21e1a8894ec,6735c5b8ce58982c1c06adde,2024-11-14_10h41.43.566,Tarea de género gramatical,2024.2.2,Win32,59.95203837,,,,,,,,,,,,,,,,,,,,,,,,329.509,330.641,a,1,0.45,,[],[],[],[],[],[],[],0.45,1,330.642,331.142,,,,,,160,MAS,AGR,150,señor,el,l,331.142,331.143,0.319444444,0.496296296,0,0,0,,0,135,135,159,1,,,,
,,,,,,59a093cd11cf3012de0ded64,66a626ef09d4e21e1a8894ec,6735c5b8ce58982c1c06adde,2024-11-14_10h41.43.566,Tarea de género gramatical,2024.2.2,Win32,59.95203837,,,,,,,,,,,,,,,,,,,,,,,,331.145,332.143,a,1,0.323,,[],[],[],[],[],[],[],0.323,1,332.143,332.643,,,,,,17,MAS,CON,150,modo,,l,332.643,332.643,0.319444444,0.496296296,0,0,0,,0,136,136,16,1,,,,
,,,,,,59a093cd11cf3012de0ded64,66a626ef09d4e21e1a8894ec,6735c5b8ce58982c1c06adde,2024-11-14_10h41.43.566,Tarea de género gramatical,2024.2.2,Win32,59.95203837,,,,,,,,,,,,,,,,,,,,,,,,332.647,333.744,l,1,0.424,,[],[],[],[],[],[],[],0.424,1,333.744,334.244,,,,,,176,FEM,CON,150,línea,,a,334.246,334.248,0.319444444,0.496296296,0,0,0,,0,137,137,175,1,,,,
,,,,,,59a093cd11cf3012de0ded64,66a626ef09d4e21e1a8894ec,6735c5b8ce58982c1c06adde,2024-11-14_10h41.43.566,Tarea de género gramatical,2024.2.2,Win32,59.95203837,,,,,,,,,,,,,,,,,,,,,,,,334.25,335.312,a,1,0.391,,[],[],[],[],[],[],[],0.391,1,335.313,335.812,,,,,,406,MAS,AGR,150,premio,el,l,335.813,335.813,0.319444444,0.496296296,0,0,0,,0,138,138,405,1,,,,
,,,,,,59a093cd11cf3012de0ded64,66a626ef09d4e21e1a8894ec,6735c5b8ce58982c1c06adde,2024-11-14_10h41.43.566,Tarea de género gramatical,2024.2.2,Win32,59.95203837,,,,,,,,,,,,,,,,,,,,,,,,335.817,336.931,a,1,0.44,,[],[],[],[],[],[],[],0.44,1,336.931,337.431,,,,,,450,MAS,DIS,150,conejo,la,l,337.432,337.432,0.319444444,0.496296296,0,0,0,,0,139,139,449,1,,,,
,,,,,,59a093cd11cf3012de0ded64,66a626ef09d4e21e1a8894ec,6735c5b8ce58982c1c06adde,2024-11-14_10h41.43.566,Tarea de género gramatical,2024.2.2,Win32,59.95203837,,,,,,,,,,,,,,,,,,,,,,,,337.433,338.466,a,1,0.352,,[],[],[],[],[],[],[],0.352,1,338.466,338.966,,,,,,388,MAS,AGR,150,empleo,el,l,338.966,338.967,0.319444444,0.496296296,0,0,0,,0,140,140,387,1,,,,
,,,,,,59a093cd11cf3012de0ded64,66a626ef09d4e21e1a8894ec,6735c5b8ce58982c1c06adde,2024-11-14_10h41.43.566,Tarea de género gramatical,2024.2.2,Win32,59.95203837,,,,,,,,,,,,,,,,,,,,,,,,338.969,339.95,a,1,0.303,,[],[],[],[],[],[],[],0.303,1,339.951,340.451,,,,,,78,MAS,DIS,150,oído,la,l,340.453,340.456,0.319444444,0.496296296,0,0,0,,0,141,141,77,1,,,,
,,,,,,59a093cd11cf3012de0ded64,66a626ef09d4e21e1a8894ec,6735c5b8ce58982c1c06adde,2024-11-14_10h41.43.566,Tarea de género gramatical,2024.2.2,Win32,59.95203837,,,,,,,,,,,,,,,,,,,,,,,,340.458,341.418,a,1,0.292,,[],[],[],[],[],[],[],0.292,1,341.418,341.919,,,,,,5,MAS,CON,150,tipo,,l,341.919,341.919,0.319444444,0.496296296,0,0,0,,0,142,142,4,1,,,,
,,,,,,59a093cd11cf3012de0ded64,66a626ef09d4e21e1a8894ec,6735c5b8ce58982c1c06adde,2024-11-14_10h41.43.566,Tarea de género gramatical,2024.2.2,Win32,59.95203837,,,,,,,,,,,,,,,,,,,,,,,,341.921,342.92,a,0,0.319,,[],[],[],[],[],[],[],0.319,0,342.922,343.42,,,,,,404,FEM,CON,150,gloria,,a,343.421,343.421,0.319444444,0.496296296,0,0,0,,0,143,143,403,1,,,,
,,,,,,59a093cd11cf3012de0ded64,66a626ef09d4e21e1a8894ec,6735c5b8ce58982c1c06adde,2024-11-14_10h41.43.566,Tarea de género gramatical,2024.2.2,Win32,59.95203837,,,,,,,,,,,,,,,,,,,,,,,,343.424,344.655,a,1,0.555,,[],[],[],[],[],[],[],0.555,1,344.658,345.156,,,,,,84,MAS,DIS,150,mago,la,l,345.156,345.156,0.319444444,0.496296296,0,0,0,,0,144,144,83,1,,,,
,,,,,,59a093cd11cf3012de0ded64,66a626ef09d4e21e1a8894ec,6735c5b8ce58982c1c06adde,2024-11-14_10h41.43.566,Tarea de género gramatical,2024.2.2,Win32,59.95203837,,,,,,,,,,,,,,,,,,,,,,,,345.157,346.356,a,1,0.524,,[],[],[],[],[],[],[],0.524,1,346.357,346.857,,,,,,431,MAS,CON,150,veneno,,l,346.857,346.857,0.319444444,0.496296296,0,0,0,,0,145,145,430,1,,,,
,,,,,,59a093cd11cf3012de0ded64,66a626ef09d4e21e1a8894ec,6735c5b8ce58982c1c06adde,2024-11-14_10h41.43.566,Tarea de género gramatical,2024.2.2,Win32,59.95203837,,,,,,,,,,,,,,,,,,,,,,,,346.859,347.975,a,1,0.437,,[],[],[],[],[],[],[],0.437,1,347.976,348.476,,,,,,192,MAS,DIS,150,grupo,la,l,348.477,348.479,0.319444444,0.496296296,0,0,0,,0,146,146,191,1,,,,
,,,,,,59a093cd11cf3012de0ded64,66a626ef09d4e21e1a8894ec,6735c5b8ce58982c1c06adde,2024-11-14_10h41.43.566,Tarea de género gramatical,2024.2.2,Win32,59.95203837,,,,,,,,,,,,,,,,,,,,,,,,348.481,349.476,a,1,0.326,,[],[],[],[],[],[],[],0.326,1,349.476,349.977,,,,,,209,MAS,CON,150,banco,,l,349.977,349.977,0.319444444,0.496296296,0,0,0,,0,147,147,208,1,,,,
,,,,,,59a093cd11cf3012de0ded64,66a626ef09d4e21e1a8894ec,6735c5b8ce58982c1c06adde,2024-11-14_10h41.43.566,Tarea de género gramatical,2024.2.2,Win32,59.95203837,,,,,,,,,,,,,,,,,,,,,,,,349.979,351.011,a,1,0.351,,[],[],[],[],[],[],[],0.351,1,351.011,351.512,,,,,,101,MAS,CON,150,giro,,l,351.512,351.512,0.319444444,0.496296296,0,0,0,,0,148,148,100,1,,,,
,,,,,,59a093cd11cf3012de0ded64,66a626ef09d4e21e1a8894ec,6735c5b8ce58982c1c06adde,2024-11-14_10h41.43.566,Tarea de género gramatical,2024.2.2,Win32,59.95203837,,,,,,,,,,,,,,,,,,,,,,,,351.515,352.596,a,1,0.399,,[],[],[],[],[],[],[],0.399,1,352.597,353.097,,,,,,132,MAS,DIS,150,velo,la,l,353.097,353.097,0.319444444,0.496296296,0,0,0,,0,149,149,131,1,,,,
,,,,,,59a093cd11cf3012de0ded64,66a626ef09d4e21e1a8894ec,6735c5b8ce58982c1c06adde,2024-11-14_10h41.43.566,Tarea de género gramatical,2024.2.2,Win32,59.95203837,,,,,,,,,,,,,,,,,,,,,,,,353.099,354.148,a,1,0.368,,[],[],[],[],[],[],[],0.368,1,354.148,354.648,,,,,,306,MAS,DIS,150,dinero,la,l,354.65,418.747,0.319444444,0.496296296,0,0,0,space,0,150,150,305,1,64.077,,,
,,,,,,59a093cd11cf3012de0ded64,66a626ef09d4e21e1a8894ec,6735c5b8ce58982c1c06adde,2024-11-14_10h41.43.566,Tarea de género gramatical,2024.2.2,Win32,59.95203837,,,,,,,,,,,,,,,,,,,,,,,,418.752,420.131,l,1,0.707,,[],[],[],[],[],[],[],0.707,1,420.133,420.631,,,,,,195,FEM,DIS,150,pared,el,a,420.632,420.633,0.319444444,0.496296296,0,0,0,,0,151,151,194,1,,,,
,,,,,,59a093cd11cf3012de0ded64,66a626ef09d4e21e1a8894ec,6735c5b8ce58982c1c06adde,2024-11-14_10h41.43.566,Tarea de género gramatical,2024.2.2,Win32,59.95203837,,,,,,,,,,,,,,,,,,,,,,,,420.635,421.682,l,1,0.369,,[],[],[],[],[],[],[],0.369,1,421.682,422.182,,,,,,321,FEM,DIS,150,comida,el,a,422.182,422.182,0.319444444,0.496296296,0,0,0,,0,152,152,320,1,,,,
,,,,,,59a093cd11cf3012de0ded64,66a626ef09d4e21e1a8894ec,6735c5b8ce58982c1c06adde,2024-11-14_10h41.43.566,Tarea de género gramatical,2024.2.2,Win32,59.95203837,,,,,,,,,,,,,,,,,,,,,,,,422.185,423.152,a,0,0.284,,[],[],[],[],[],[],[],0.284,0,423.155,423.65,,,,,,218,FEM,CON,150,nieve,,a,423.652,423.653,0.319444444,0.496296296,0,0,0,,0,153,153,217,1,,,,
,,,,,,59a093cd11cf3012de0ded64,66a626ef09d4e21e1a8894ec,6735c5b8ce58982c1c06adde,2024-11-14_10h41.43.566,Tarea de género gramatical,2024.2.2,Win32,59.95203837,,,,,,,,,,,,,,,,,,,,,,,,423.656,424.651,l,1,0.324,,[],[],[],[],[],[],[],0.324,1,424.653,425.151,,,,,,344,FEM,CON,150,pareja,,a,425.151,425.151,0.319444444,0.496296296,0,0,0,,0,154,154,343,1,,,,
,,,,,,59a093cd11cf3012de0ded64,66a626ef09d4e21e1a8894ec,6735c5b8ce58982c1c06adde,2024-11-14_10h41.43.566,Tarea de género gramatical,2024.2.2,Win32,59.95203837,,,,,,,,,,,,,,,,,,,,,,,,425.155,426.303,l,1,0.466,,[],[],[],[],[],[],[],0.466,1,426.303,426.803,,,,,,135,FEM,DIS,150,raíz,el,a,426.806,426.809,0.319444444,0.496296296,0,0,0,,0,155,155,134,1,,,,
,,,,,,59a093cd11cf3012de0ded64,66a626ef09d4e21e1a8894ec,6735c5b8ce58982c1c06adde,2024-11-14_10h41.43.566,Tarea de género gramatical,2024.2.2,Win32,59.95203837,,,,,,,,,,,,,,,,,,,,,,,,426.81,427.872,a,1,0.384,,[],[],[],[],[],[],[],0.384,1,427.872,428.372,,,,,,424,MAS,AGR,150,rastro,el,l,428.372,428.372,0.319444444,0.496296296,0,0,0,,0,156,156,423,1,,,,
,,,,,,59a093cd11cf3012de0ded64,66a626ef09d4e21e1a8894ec,6735c5b8ce58982c1c06adde,2024-11-14_10h41.43.566,Tarea de género gramatical,2024.2.2,Win32,59.95203837,,,,,,,,,,,,,,,,,,,,,,,,428.375,429.422,l,0,0.373,,[],[],[],[],[],[],[],0.373,0,429.426,429.923,,,,,,426,MAS,DIS,150,pánico,la,l,429.923,429.923,0.319444444,0.496296296,0,0,0,,0,157,157,425,1,,,,
,,,,,,59a093cd11cf3012de0ded64,66a626ef09d4e21e1a8894ec,6735c5b8ce58982c1c06adde,2024-11-14_10h41.43.566,Tarea de género gramatical,2024.2.2,Win32,59.95203837,,,,,,,,,,,,,,,,,,,,,,,,429.927,431.258,a,1,0.652,,[],[],[],[],[],[],[],0.652,1,431.26,431.758,,,,,,328,MAS,AGR,150,asunto,el,l,431.758,431.759,0.319444444,0.496296296,0,0,0,,0,158,158,327,1,,,,
,,,,,,59a093cd11cf3012de0ded64,66a626ef09d4e21e1a8894ec,6735c5b8ce58982c1c06adde,2024-11-14_10h41.43.566,Tarea de género gramatical,2024.2.2,Win32,59.95203837,,,,,,,,,,,,,,,,,,,,,,,,431.761,432.776,l,1,0.336,,[],[],[],[],[],[],[],0.336,1,432.776,433.277,,,,,,121,FEM,AGR,150,pila,la,a,433.278,433.281,0.319444444,0.496296296,0,0,0,,0,159,159,120,1,,,,
,,,,,,59a093cd11cf3012de0ded64,66a626ef09d4e21e1a8894ec,6735c5b8ce58982c1c06adde,2024-11-14_10h41.43.566,Tarea de género gramatical,2024.2.2,Win32,59.95203837,,,,,,,,,,,,,,,,,,,,,,,,433.283,434.328,a,1,0.369,,[],[],[],[],[],[],[],0.369,1,434.328,434.828,,,,,,208,MAS,AGR,150,suelo,el,l,434.828,434.828,0.319444444,0.496296296,0,0,0,,0,160,160,207,1,,,,
,,,,,,59a093cd11cf3012de0ded64,66a626ef09d4e21e1a8894ec,6735c5b8ce58982c1c06adde,2024-11-14_10h41.43.566,Tarea de género gramatical,2024.2.2,Win32,59.95203837,,,,,,,,,,,,,,,,,,,,,,,,434.831,435.879,a,1,0.369,,[],[],[],[],[],[],[],0.369,1,435.88,436.38,,,,,,274,MAS,AGR,150,motor,el,l,436.38,436.38,0.319444444,0.496296296,0,0,0,,0,161,161,273,1,,,,
,,,,,,59a093cd11cf3012de0ded64,66a626ef09d4e21e1a8894ec,6735c5b8ce58982c1c06adde,2024-11-14_10h41.43.566,Tarea de género gramatical,2024.2.2,Win32,59.95203837,,,,,,,,,,,,,,,,,,,,,,,,436.383,437.597,l,0,0.542,,[],[],[],[],[],[],[],0.542,0,437.6,438.098,,,,,,262,MAS,AGR,150,video,el,l,438.098,438.098,0.319444444,0.496296296,0,0,0,,0,162,162,261,1,,,,
,,,,,,59a093cd11cf3012de0ded64,66a626ef09d4e21e1a8894ec,6735c5b8ce58982c1c06adde,2024-11-14_10h41.43.566,Tarea de género gramatical,2024.2.2,Win32,59.95203837,,,,,,,,,,,,,,,,,,,,,,,,438.101,439.599,a,1,0.825,,[],[],[],[],[],[],[],0.825,1,439.602,440.1,,,,,,376,MAS,AGR,150,efecto,el,l,440.1,440.101,0.319444444,0.496296296,0,0,0,,0,163,163,375,1,,,,
,,,,,,59a093cd11cf3012de0ded64,66a626ef09d4e21e1a8894ec,6735c5b8ce58982c1c06adde,2024-11-14_10h41.43.566,Tarea de género gramatical,2024.2.2,Win32,59.95203837,,,,,,,,,,,,,,,,,,,,,,,,440.103,441.185,a,1,0.403,,[],[],[],[],[],[],[],0.403,1,441.185,441.685,,,,,,263,MAS,CON,150,carro,,l,441.687,441.688,0.319444444,0.496296296,0,0,0,,0,164,164,262,1,,,,
,,,,,,59a093cd11cf3012de0ded64,66a626ef09d4e21e1a8894ec,6735c5b8ce58982c1c06adde,2024-11-14_10h41.43.566,Tarea de género gramatical,2024.2.2,Win32,59.95203837,,,,,,,,,,,,,,,,,,,,,,,,441.69,442.669,a,1,0.303,,[],[],[],[],[],[],[],0.303,1,442.669,443.17,,,,,,250,MAS,AGR,150,cerdo,el,l,443.17,443.17,0.319444444,0.496296296,0,0,0,,0,165,165,249,1,,,,
,,,,,,59a093cd11cf3012de0ded64,66a626ef09d4e21e1a8894ec,6735c5b8ce58982c1c06adde,2024-11-14_10h41.43.566,Tarea de género gramatical,2024.2.2,Win32,59.95203837,,,,,,,,,,,,,,,,,,,,,,,,443.172,444.187,a,1,0.351,,[],[],[],[],[],[],[],0.351,1,444.188,444.688,,,,,,413,MAS,CON,150,diario,,l,444.688,444.688,0.319444444,0.496296296,0,0,0,,0,166,166,412,1,,,,
,,,,,,59a093cd11cf3012de0ded64,66a626ef09d4e21e1a8894ec,6735c5b8ce58982c1c06adde,2024-11-14_10h41.43.566,Tarea de género gramatical,2024.2.2,Win32,59.95203837,,,,,,,,,,,,,,,,,,,,,,,,444.691,445.955,a,1,0.588,,[],[],[],[],[],[],[],0.588,1,445.955,446.456,,,,,,270,MAS,DIS,150,queso,la,l,446.456,446.456,0.319444444,0.496296296,0,0,0,,0,167,167,269,1,,,,
,,,,,,59a093cd11cf3012de0ded64,66a626ef09d4e21e1a8894ec,6735c5b8ce58982c1c06adde,2024-11-14_10h41.43.566,Tarea de género gramatical,2024.2.2,Win32,59.95203837,,,,,,,,,,,,,,,,,,,,,,,,446.459,447.54,a,1,0.421,,[],[],[],[],[],[],[],0.421,1,447.541,448.042,,,,,,12,MAS,DIS,150,plan,la,l,448.043,448.046,0.319444444,0.496296296,0,0,0,,0,168,168,11,1,,,,
,,,,,,59a093cd11cf3012de0ded64,66a626ef09d4e21e1a8894ec,6735c5b8ce58982c1c06adde,2024-11-14_10h41.43.566,Tarea de género gramatical,2024.2.2,Win32,59.95203837,,,,,,,,,,,,,,,,,,,,,,,,448.047,449.109,a,1,0.385,,[],[],[],[],[],[],[],0.385,1,449.11,449.61,,,,,,353,MAS,CON,150,verano,,l,449.61,449.61,0.319444444,0.496296296,0,0,0,,0,169,169,352,1,,,,
,,,,,,59a093cd11cf3012de0ded64,66a626ef09d4e21e1a8894ec,6735c5b8ce58982c1c06adde,2024-11-14_10h41.43.566,Tarea de género gramatical,2024.2.2,Win32,59.95203837,,,,,,,,,,,,,,,,,,,,,,,,449.612,450.594,a,1,0.307,,[],[],[],[],[],[],[],0.307,1,450.594,451.095,,,,,,258,MAS,DIS,150,polvo,la,l,451.095,451.095,0.319444444,0.496296296,0,0,0,,0,170,170,257,1,,,,
,,,,,,59a093cd11cf3012de0ded64,66a626ef09d4e21e1a8894ec,6735c5b8ce58982c1c06adde,2024-11-14_10h41.43.566,Tarea de género gramatical,2024.2.2,Win32,59.95203837,,,,,,,,,,,,,,,,,,,,,,,,451.097,452.295,a,1,0.525,,[],[],[],[],[],[],[],0.525,1,452.296,452.796,,,,,,124,MAS,AGR,150,clan,el,l,452.796,452.796,0.319444444,0.496296296,0,0,0,,0,171,171,123,1,,,,
,,,,,,59a093cd11cf3012de0ded64,66a626ef09d4e21e1a8894ec,6735c5b8ce58982c1c06adde,2024-11-14_10h41.43.566,Tarea de género gramatical,2024.2.2,Win32,59.95203837,,,,,,,,,,,,,,,,,,,,,,,,452.799,453.83,a,0,0.351,,[],[],[],[],[],[],[],0.351,0,453.832,454.331,,,,,,373,FEM,AGR,150,lluvia,la,a,454.331,454.331,0.319444444,0.496296296,0,0,0,,0,172,172,372,1,,,,
,,,,,,59a093cd11cf3012de0ded64,66a626ef09d4e21e1a8894ec,6735c5b8ce58982c1c06adde,2024-11-14_10h41.43.566,Tarea de género gramatical,2024.2.2,Win32,59.95203837,,,,,,,,,,,,,,,,,,,,,,,,454.333,455.382,a,1,0.371,,[],[],[],[],[],[],[],0.371,1,455.384,455.883,,,,,,203,MAS,CON,150,novio,,l,455.885,455.886,0.319444444,0.496296296,0,0,0,,0,173,173,202,1,,,,
,,,,,,59a093cd11cf3012de0ded64,66a626ef09d4e21e1a8894ec,6735c5b8ce58982c1c06adde,2024-11-14_10h41.43.566,Tarea de género gramatical,2024.2.2,Win32,59.95203837,,,,,,,,,,,,,,,,,,,,,,,,455.888,457.003,l,1,0.435,,[],[],[],[],[],[],[],0.435,1,457.004,457.501,,,,,,249,FEM,DIS,150,crema,el,a,457.502,457.502,0.319444444,0.496296296,0,0,0,,0,174,174,248,1,,,,
,,,,,,59a093cd11cf3012de0ded64,66a626ef09d4e21e1a8894ec,6735c5b8ce58982c1c06adde,2024-11-14_10h41.43.566,Tarea de género gramatical,2024.2.2,Win32,59.95203837,,,,,,,,,,,,,,,,,,,,,,,,457.506,458.569,l,1,0.386,,[],[],[],[],[],[],[],0.386,1,458.569,459.069,,,,,,231,FEM,DIS,150,bruja,el,a,459.07,459.07,0.319444444,0.496296296,0,0,0,,0,175,175,230,1,,,,
,,,,,,59a093cd11cf3012de0ded64,66a626ef09d4e21e1a8894ec,6735c5b8ce58982c1c06adde,2024-11-14_10h41.43.566,Tarea de género gramatical,2024.2.2,Win32,59.95203837,,,,,,,,,,,,,,,,,,,,,,,,459.072,460.137,a,1,0.386,,[],[],[],[],[],[],[],0.386,1,460.137,460.637,,,,,,394,MAS,AGR,150,examen,el,l,460.637,460.637,0.319444444,0.496296296,0,0,0,,0,176,176,393,1,,,,
,,,,,,59a093cd11cf3012de0ded64,66a626ef09d4e21e1a8894ec,6735c5b8ce58982c1c06adde,2024-11-14_10h41.43.566,Tarea de género gramatical,2024.2.2,Win32,59.95203837,,,,,,,,,,,,,,,,,,,,,,,,460.641,461.871,a,0,0.554,,[],[],[],[],[],[],[],0.554,0,461.875,462.373,,,,,,235,FEM,AGR,150,torre,la,a,462.374,462.378,0.319444444,0.496296296,0,0,0,,0,177,177,234,1,,,,
,,,,,,59a093cd11cf3012de0ded64,66a626ef09d4e21e1a8894ec,6735c5b8ce58982c1c06adde,2024-11-14_10h41.43.566,Tarea de género gramatical,2024.2.2,Win32,59.95203837,,,,,,,,,,,,,,,,,,,,,,,,462.379,463.524,a,1,0.467,,[],[],[],[],[],[],[],0.467,1,463.526,464.024,,,,,,173,MAS,CON,150,libro,,l,464.024,464.024,0.319444444,0.496296296,0,0,0,,0,178,178,172,1,,,,
,,,,,,59a093cd11cf3012de0ded64,66a626ef09d4e21e1a8894ec,6735c5b8ce58982c1c06adde,2024-11-14_10h41.43.566,Tarea de género gramatical,2024.2.2,Win32,59.95203837,,,,,,,,,,,,,,,,,,,,,,,,464.028,465.058,a,1,0.357,,[],[],[],[],[],[],[],0.357,1,465.059,465.559,,,,,,118,MAS,AGR,150,baúl,el,l,465.559,465.559,0.319444444,0.496296296,0,0,0,,0,179,179,117,1,,,,
,,,,,,59a093cd11cf3012de0ded64,66a626ef09d4e21e1a8894ec,6735c5b8ce58982c1c06adde,2024-11-14_10h41.43.566,Tarea de género gramatical,2024.2.2,Win32,59.95203837,,,,,,,,,,,,,,,,,,,,,,,,465.563,466.576,l,1,0.334,,[],[],[],[],[],[],[],0.334,1,466.576,467.076,,,,,,434,FEM,CON,150,corona,,a,467.077,467.078,0.319444444,0.496296296,0,0,0,,0,180,180,433,1,,,,
,,,,,,59a093cd11cf3012de0ded64,66a626ef09d4e21e1a8894ec,6735c5b8ce58982c1c06adde,2024-11-14_10h41.43.566,Tarea de género gramatical,2024.2.2,Win32,59.95203837,,,,,,,,,,,,,,,,,,,,,,,,467.08,468.078,a,1,0.322,,[],[],[],[],[],[],[],0.322,1,468.078,468.579,,,,,,269,MAS,CON,150,primo,,l,468.579,468.579,0.319444444,0.496296296,0,0,0,,0,181,181,268,1,,,,
,,,,,,59a093cd11cf3012de0ded64,66a626ef09d4e21e1a8894ec,6735c5b8ce58982c1c06adde,2024-11-14_10h41.43.566,Tarea de género gramatical,2024.2.2,Win32,59.95203837,,,,,,,,,,,,,,,,,,,,,,,,468.581,469.58,a,1,0.32,,[],[],[],[],[],[],[],0.32,1,469.58,470.08,,,,,,196,MAS,AGR,150,barco,el,l,470.082,470.084,0.319444444,0.496296296,0,0,0,,0,182,182,195,1,,,,
,,,,,,59a093cd11cf3012de0ded64,66a626ef09d4e21e1a8894ec,6735c5b8ce58982c1c06adde,2024-11-14_10h41.43.566,Tarea de género gramatical,2024.2.2,Win32,59.95203837,,,,,,,,,,,,,,,,,,,,,,,,470.086,471.382,a,1,0.62,,[],[],[],[],[],[],[],0.62,1,471.382,471.882,,,,,,142,MAS,AGR,150,lodo,el,l,471.882,471.882,0.319444444,0.496296296,0,0,0,,0,183,183,141,1,,,,
,,,,,,59a093cd11cf3012de0ded64,66a626ef09d4e21e1a8894ec,6735c5b8ce58982c1c06adde,2024-11-14_10h41.43.566,Tarea de género gramatical,2024.2.2,Win32,59.95203837,,,,,,,,,,,,,,,,,,,,,,,,471.885,472.899,l,1,0.334,,[],[],[],[],[],[],[],0.334,1,472.9,473.4,,,,,,374,FEM,CON,150,herida,,a,473.4,473.4,0.319444444,0.496296296,0,0,0,,0,184,184,373,1,,,,
,,,,,,59a093cd11cf3012de0ded64,66a626ef09d4e21e1a8894ec,6735c5b8ce58982c1c06adde,2024-11-14_10h41.43.566,Tarea de género gramatical,2024.2.2,Win32,59.95203837,,,,,,,,,,,,,,,,,,,,,,,,473.404,474.501,l,1,0.418,,[],[],[],[],[],[],[],0.418,1,474.502,475.001,,,,,,314,FEM,CON,150,señora,,a,475.001,475.001,0.319444444,0.496296296,0,0,0,,0,185,185,313,1,,,,
,,,,,,59a093cd11cf3012de0ded64,66a626ef09d4e21e1a8894ec,6735c5b8ce58982c1c06adde,2024-11-14_10h41.43.566,Tarea de género gramatical,2024.2.2,Win32,59.95203837,,,,,,,,,,,,,,,,,,,,,,,,475.005,476.153,a,1,0.466,,[],[],[],[],[],[],[],0.466,1,476.153,476.653,,,,,,40,MAS,AGR,150,dios,el,l,476.655,476.657,0.319444444,0.496296296,0,0,0,,0,186,186,39,1,,,,
,,,,,,59a093cd11cf3012de0ded64,66a626ef09d4e21e1a8894ec,6735c5b8ce58982c1c06adde,2024-11-14_10h41.43.566,Tarea de género gramatical,2024.2.2,Win32,59.95203837,,,,,,,,,,,,,,,,,,,,,,,,476.658,477.654,l,1,0.321,,[],[],[],[],[],[],[],0.321,1,477.655,478.155,,,,,,339,FEM,DIS,150,salida,el,a,478.155,478.155,0.319444444,0.496296296,0,0,0,,0,187,187,338,1,,,,
,,,,,,59a093cd11cf3012de0ded64,66a626ef09d4e21e1a8894ec,6735c5b8ce58982c1c06adde,2024-11-14_10h41.43.566,Tarea de género gramatical,2024.2.2,Win32,59.95203837,,,,,,,,,,,,,,,,,,,,,,,,478.158,479.139,l,1,0.302,,[],[],[],[],[],[],[],0.302,1,479.139,479.639,,,,,,217,FEM,AGR,150,tarea,la,a,479.639,479.639,0.319444444,0.496296296,0,0,0,,0,188,188,216,1,,,,
,,,,,,59a093cd11cf3012de0ded64,66a626ef09d4e21e1a8894ec,6735c5b8ce58982c1c06adde,2024-11-14_10h41.43.566,Tarea de género gramatical,2024.2.2,Win32,59.95203837,,,,,,,,,,,,,,,,,,,,,,,,479.642,480.657,a,1,0.335,,[],[],[],[],[],[],[],0.335,1,480.657,481.158,,,,,,77,MAS,CON,150,pico,,l,481.158,481.158,0.319444444,0.496296296,0,0,0,,0,189,189,76,1,,,,
,,,,,,59a093cd11cf3012de0ded64,66a626ef09d4e21e1a8894ec,6735c5b8ce58982c1c06adde,2024-11-14_10h41.43.566,Tarea de género gramatical,2024.2.2,Win32,59.95203837,,,,,,,,,,,,,,,,,,,,,,,,481.16,482.125,a,1,0.285,,[],[],[],[],[],[],[],0.285,1,482.126,482.625,,,,,,275,MAS,CON,150,disco,,l,482.625,482.626,0.319444444,0.496296296,0,0,0,,0,190,190,274,1,,,,
,,,,,,59a093cd11cf3012de0ded64,66a626ef09d4e21e1a8894ec,6735c5b8ce58982c1c06adde,2024-11-14_10h41.43.566,Tarea de género gramatical,2024.2.2,Win32,59.95203837,,,,,,,,,,,,,,,,,,,,,,,,482.629,483.626,l,1,0.318,,[],[],[],[],[],[],[],0.318,1,483.626,484.127,,,,,,98,FEM,CON,150,fuga,,a,484.129,484.131,0.319444444,0.496296296,0,0,0,,0,191,191,97,1,,,,
,,,,,,59a093cd11cf3012de0ded64,66a626ef09d4e21e1a8894ec,6735c5b8ce58982c1c06adde,2024-11-14_10h41.43.566,Tarea de género gramatical,2024.2.2,Win32,59.95203837,,,,,,,,,,,,,,,,,,,,,,,,484.132,485.245,l,1,0.434,,[],[],[],[],[],[],[],0.434,1,485.245,485.746,,,,,,411,FEM,DIS,150,actriz,el,a,485.746,485.746,0.319444444,0.496296296,0,0,0,,0,192,192,410,1,,,,
,,,,,,59a093cd11cf3012de0ded64,66a626ef09d4e21e1a8894ec,6735c5b8ce58982c1c06adde,2024-11-14_10h41.43.566,Tarea de género gramatical,2024.2.2,Win32,59.95203837,,,,,,,,,,,,,,,,,,,,,,,,485.749,486.746,a,1,0.318,,[],[],[],[],[],[],[],0.318,1,486.747,487.247,,,,,,370,MAS,AGR,150,seguro,el,l,487.247,487.247,0.319444444,0.496296296,0,0,0,,0,193,193,369,1,,,,
,,,,,,59a093cd11cf3012de0ded64,66a626ef09d4e21e1a8894ec,6735c5b8ce58982c1c06adde,2024-11-14_10h41.43.566,Tarea de género gramatical,2024.2.2,Win32,59.95203837,,,,,,,,,,,,,,,,,,,,,,,,487.249,488.215,l,1,0.289,,[],[],[],[],[],[],[],0.289,1,488.215,488.715,,,,,,309,FEM,DIS,150,esposa,el,a,488.715,488.715,0.319444444,0.496296296,0,0,0,,0,194,194,308,1,,,,
,,,,,,59a093cd11cf3012de0ded64,66a626ef09d4e21e1a8894ec,6735c5b8ce58982c1c06adde,2024-11-14_10h41.43.566,Tarea de género gramatical,2024.2.2,Win32,59.95203837,,,,,,,,,,,,,,,,,,,,,,,,488.718,489.816,a,1,0.422,,[],[],[],[],[],[],[],0.422,1,489.816,490.318,,,,,,318,MAS,DIS,150,pueblo,la,l,490.322,490.324,0.319444444,0.496296296,0,0,0,,0,195,195,317,1,,,,
,,,,,,59a093cd11cf3012de0ded64,66a626ef09d4e21e1a8894ec,6735c5b8ce58982c1c06adde,2024-11-14_10h41.43.566,Tarea de género gramatical,2024.2.2,Win32,59.95203837,,,,,,,,,,,,,,,,,,,,,,,,490.327,491.518,a,0,0.523,,[],[],[],[],[],[],[],0.523,0,491.521,492.019,,,,,,147,FEM,DIS,150,grúa,el,a,492.019,492.019,0.319444444,0.496296296,0,0,0,,0,196,196,146,1,,,,
,,,,,,59a093cd11cf3012de0ded64,66a626ef09d4e21e1a8894ec,6735c5b8ce58982c1c06adde,2024-11-14_10h41.43.566,Tarea de género gramatical,2024.2.2,Win32,59.95203837,,,,,,,,,,,,,,,,,,,,,,,,492.021,493.053,a,1,0.352,,[],[],[],[],[],[],[],0.352,1,493.056,493.554,,,,,,174,MAS,DIS,150,perro,la,l,493.554,493.554,0.319444444,0.496296296,0,0,0,,0,197,197,173,1,,,,
,,,,,,59a093cd11cf3012de0ded64,66a626ef09d4e21e1a8894ec,6735c5b8ce58982c1c06adde,2024-11-14_10h41.43.566,Tarea de género gramatical,2024.2.2,Win32,59.95203837,,,,,,,,,,,,,,,,,,,,,,,,493.556,494.555,l,1,0.321,,[],[],[],[],[],[],[],0.321,1,494.556,495.055,,,,,,188,FEM,CON,150,bomba,,a,495.055,495.056,0.319444444,0.496296296,0,0,0,,0,198,198,187,1,,,,
,,,,,,59a093cd11cf3012de0ded64,66a626ef09d4e21e1a8894ec,6735c5b8ce58982c1c06adde,2024-11-14_10h41.43.566,Tarea de género gramatical,2024.2.2,Win32,59.95203837,,,,,,,,,,,,,,,,,,,,,,,,495.058,496.056,l,1,0.323,,[],[],[],[],[],[],[],0.323,1,496.056,496.556,,,,,,243,FEM,DIS,150,salsa,el,a,496.556,496.557,0.319444444,0.496296296,0,0,0,,0,199,199,242,1,,,,
,,,,,,59a093cd11cf3012de0ded64,66a626ef09d4e21e1a8894ec,6735c5b8ce58982c1c06adde,2024-11-14_10h41.43.566,Tarea de género gramatical,2024.2.2,Win32,59.95203837,,,,,,,,,,,,,,,,,,,,,,,,496.559,497.574,l,1,0.336,,[],[],[],[],[],[],[],0.336,1,497.574,498.076,,,,,,81,FEM,DIS,150,cima,el,a,498.078,498.08,0.319444444,0.496296296,0,0,0,,0,200,200,80,1,,,,
,,,,,,59a093cd11cf3012de0ded64,66a626ef09d4e21e1a8894ec,6735c5b8ce58982c1c06adde,2024-11-14_10h41.43.566,Tarea de género gramatical,2024.2.2,Win32,59.95203837,,,,,,,,,,,,,,,,,,,,,,,,498.082,499.092,l,1,0.336,,[],[],[],[],[],[],[],0.336,1,499.093,499.593,,,,,,75,FEM,DIS,150,caza,el,a,499.594,499.594,0.319444444,0.496296296,0,0,0,,0,201,201,74,1,,,,
,,,,,,59a093cd11cf3012de0ded64,66a626ef09d4e21e1a8894ec,6735c5b8ce58982c1c06adde,2024-11-14_10h41.43.566,Tarea de género gramatical,2024.2.2,Win32,59.95203837,,,,,,,,,,,,,,,,,,,,,,,,499.597,500.694,l,1,0.42,,[],[],[],[],[],[],[],0.42,1,500.694,501.194,,,,,,248,FEM,CON,150,letra,,a,501.194,501.194,0.319444444,0.496296296,0,0,0,,0,202,202,247,1,,,,
,,,,,,59a093cd11cf3012de0ded64,66a626ef09d4e21e1a8894ec,6735c5b8ce58982c1c06adde,2024-11-14_10h41.43.566,Tarea de género gramatical,2024.2.2,Win32,59.95203837,,,,,,,,,,,,,,,,,,,,,,,,501.198,502.162,l,1,0.293,,[],[],[],[],[],[],[],0.293,1,502.162,502.663,,,,,,140,FEM,CON,150,mula,,a,502.663,502.663,0.319444444,0.496296296,0,0,0,,0,203,203,139,1,,,,
,,,,,,59a093cd11cf3012de0ded64,66a626ef09d4e21e1a8894ec,6735c5b8ce58982c1c06adde,2024-11-14_10h41.43.566,Tarea de género gramatical,2024.2.2,Win32,59.95203837,,,,,,,,,,,,,,,,,,,,,,,,502.667,503.714,a,0,0.368,,[],[],[],[],[],[],[],0.368,0,503.716,504.214,,,,,,116,FEM,CON,150,nube,,a,504.216,504.218,0.319444444,0.496296296,0,0,0,,0,204,204,115,1,,,,
,,,,,,59a093cd11cf3012de0ded64,66a626ef09d4e21e1a8894ec,6735c5b8ce58982c1c06adde,2024-11-14_10h41.43.566,Tarea de género gramatical,2024.2.2,Win32,59.95203837,,,,,,,,,,,,,,,,,,,,,,,,504.22,505.316,l,0,0.419,,[],[],[],[],[],[],[],0.419,0,505.316,505.815,,,,,,389,MAS,CON,150,tamaño,,l,505.816,505.816,0.319444444,0.496296296,0,0,0,,0,205,205,388,1,,,,
,,,,,,59a093cd11cf3012de0ded64,66a626ef09d4e21e1a8894ec,6735c5b8ce58982c1c06adde,2024-11-14_10h41.43.566,Tarea de género gramatical,2024.2.2,Win32,59.95203837,,,,,,,,,,,,,,,,,,,,,,,,505.818,507.05,l,1,0.555,,[],[],[],[],[],[],[],0.555,1,507.053,507.551,,,,,,56,FEM,CON,150,bola,,a,507.551,507.551,0.319444444,0.496296296,0,0,0,,0,206,206,55,1,,,,
,,,,,,59a093cd11cf3012de0ded64,66a626ef09d4e21e1a8894ec,6735c5b8ce58982c1c06adde,2024-11-14_10h41.43.566,Tarea de género gramatical,2024.2.2,Win32,59.95203837,,,,,,,,,,,,,,,,,,,,,,,,507.553,508.535,l,1,0.301,,[],[],[],[],[],[],[],0.301,1,508.535,509.035,,,,,,224,FEM,CON,150,arena,,a,509.035,509.036,0.319444444,0.496296296,0,0,0,,0,207,207,223,1,,,,
,,,,,,59a093cd11cf3012de0ded64,66a626ef09d4e21e1a8894ec,6735c5b8ce58982c1c06adde,2024-11-14_10h41.43.566,Tarea de género gramatical,2024.2.2,Win32,59.95203837,,,,,,,,,,,,,,,,,,,,,,,,509.038,510.071,l,1,0.36,,[],[],[],[],[],[],[],0.36,1,510.071,510.57,,,,,,417,FEM,DIS,150,cabaña,el,a,510.57,510.57,0.319444444,0.496296296,0,0,0,,0,208,208,416,1,,,,
,,,,,,59a093cd11cf3012de0ded64,66a626ef09d4e21e1a8894ec,6735c5b8ce58982c1c06adde,2024-11-14_10h41.43.566,Tarea de género gramatical,2024.2.2,Win32,59.95203837,,,,,,,,,,,,,,,,,,,,,,,,510.572,511.638,a,1,0.387,,[],[],[],[],[],[],[],0.387,1,511.639,512.138,,,,,,402,MAS,DIS,150,ladrón,la,l,512.141,512.142,0.319444444,0.496296296,0,0,0,,0,209,209,401,1,,,,
,,,,,,59a093cd11cf3012de0ded64,66a626ef09d4e21e1a8894ec,6735c5b8ce58982c1c06adde,2024-11-14_10h41.43.566,Tarea de género gramatical,2024.2.2,Win32,59.95203837,,,,,,,,,,,,,,,,,,,,,,,,512.143,513.123,l,1,0.301,,[],[],[],[],[],[],[],0.301,1,513.123,513.624,,,,,,7,FEM,AGR,150,hora,la,a,513.624,513.624,0.319444444,0.496296296,0,0,0,,0,210,210,6,1,,,,
,,,,,,59a093cd11cf3012de0ded64,66a626ef09d4e21e1a8894ec,6735c5b8ce58982c1c06adde,2024-11-14_10h41.43.566,Tarea de género gramatical,2024.2.2,Win32,59.95203837,,,,,,,,,,,,,,,,,,,,,,,,513.626,514.658,l,0,0.356,,[],[],[],[],[],[],[],0.356,0,514.66,515.158,,,,,,449,MAS,CON,150,payaso,,l,515.158,515.158,0.319444444,0.496296296,0,0,0,,0,211,211,448,1,,,,
,,,,,,59a093cd11cf3012de0ded64,66a626ef09d4e21e1a8894ec,6735c5b8ce58982c1c06adde,2024-11-14_10h41.43.566,Tarea de género gramatical,2024.2.2,Win32,59.95203837,,,,,,,,,,,,,,,,,,,,,,,,515.161,516.259,a,1,0.419,,[],[],[],[],[],[],[],0.419,1,516.261,516.76,,,,,,113,MAS,CON,150,toro,,l,516.76,516.76,0.319444444,0.496296296,0,0,0,,0,212,212,112,1,,,,
,,,,,,59a093cd11cf3012de0ded64,66a626ef09d4e21e1a8894ec,6735c5b8ce58982c1c06adde,2024-11-14_10h41.43.566,Tarea de género gramatical,2024.2.2,Win32,59.95203837,,,,,,,,,,,,,,,,,,,,,,,,516.762,517.861,a,1,0.426,,[],[],[],[],[],[],[],0.426,1,517.861,518.361,,,,,,198,MAS,DIS,150,hotel,la,l,518.363,518.366,0.319444444,0.496296296,0,0,0,,0,213,213,197,1,,,,
,,,,,,59a093cd11cf3012de0ded64,66a626ef09d4e21e1a8894ec,6735c5b8ce58982c1c06adde,2024-11-14_10h41.43.566,Tarea de género gramatical,2024.2.2,Win32,59.95203837,,,,,,,,,,,,,,,,,,,,,,,,518.367,519.363,a,1,0.321,,[],[],[],[],[],[],[],0.321,1,519.363,519.863,,,,,,30,MAS,DIS,150,cine,la,l,519.863,519.863,0.319444444,0.496296296,0,0,0,,0,214,214,29,1,,,,
,,,,,,59a093cd11cf3012de0ded64,66a626ef09d4e21e1a8894ec,6735c5b8ce58982c1c06adde,2024-11-14_10h41.43.566,Tarea de género gramatical,2024.2.2,Win32,59.95203837,,,,,,,,,,,,,,,,,,,,,,,,519.866,520.88,a,1,0.334,,[],[],[],[],[],[],[],0.334,1,520.882,521.381,,,,,,168,MAS,DIS,150,sitio,la,l,521.381,521.381,0.319444444,0.496296296,0,0,0,,0,215,215,167,1,,,,
,,,,,,59a093cd11cf3012de0ded64,66a626ef09d4e21e1a8894ec,6735c5b8ce58982c1c06adde,2024-11-14_10h41.43.566,Tarea de género gramatical,2024.2.2,Win32,59.95203837,,,,,,,,,,,,,,,,,,,,,,,,521.383,522.315,l,1,0.251,,[],[],[],[],[],[],[],0.251,1,522.315,522.816,,,,,,38,FEM,CON,150,obra,,a,522.816,522.816,0.319444444,0.496296296,0,0,0,,0,216,216,37,1,,,,
,,,,,,59a093cd11cf3012de0ded64,66a626ef09d4e21e1a8894ec,6735c5b8ce58982c1c06adde,2024-11-14_10h41.43.566,Tarea de género gramatical,2024.2.2,Win32,59.95203837,,,,,,,,,,,,,,,,,,,,,,,,522.818,523.735,l,1,0.234,,[],[],[],[],[],[],[],0.234,1,523.737,524.234,,,,,,145,FEM,AGR,150,bota,la,a,524.235,524.237,0.319444444,0.496296296,0,0,0,,0,217,217,144,1,,,,
,,,,,,59a093cd11cf3012de0ded64,66a626ef09d4e21e1a8894ec,6735c5b8ce58982c1c06adde,2024-11-14_10h41.43.566,Tarea de género gramatical,2024.2.2,Win32,59.95203837,,,,,,,,,,,,,,,,,,,,,,,,524.241,525.268,a,0,0.353,,[],[],[],[],[],[],[],0.353,0,525.27,525.769,,,,,,25,FEM,AGR,150,nave,la,a,525.771,525.774,0.319444444,0.496296296,0,0,0,,0,218,218,24,1,,,,
,,,,,,59a093cd11cf3012de0ded64,66a626ef09d4e21e1a8894ec,6735c5b8ce58982c1c06adde,2024-11-14_10h41.43.566,Tarea de género gramatical,2024.2.2,Win32,59.95203837,,,,,,,,,,,,,,,,,,,,,,,,525.776,527.02,l,0,0.571,,[],[],[],[],[],[],[],0.571,0,527.02,527.521,,,,,,120,MAS,DIS,150,puño,la,l,527.521,527.521,0.319444444,0.496296296,0,0,0,,0,219,219,119,1,,,,
,,,,,,59a093cd11cf3012de0ded64,66a626ef09d4e21e1a8894ec,6735c5b8ce58982c1c06adde,2024-11-14_10h41.43.566,Tarea de género gramatical,2024.2.2,Win32,59.95203837,,,,,,,,,,,,,,,,,,,,,,,,527.524,528.772,a,1,0.567,,[],[],[],[],[],[],[],0.567,1,528.775,529.272,,,,,,137,MAS,CON,150,coco,,l,529.272,529.273,0.319444444,0.496296296,0,0,0,,0,220,220,136,1,,,,
,,,,,,59a093cd11cf3012de0ded64,66a626ef09d4e21e1a8894ec,6735c5b8ce58982c1c06adde,2024-11-14_10h41.43.566,Tarea de género gramatical,2024.2.2,Win32,59.95203837,,,,,,,,,,,,,,,,,,,,,,,,529.276,530.29,a,1,0.335,,[],[],[],[],[],[],[],0.335,1,530.291,530.79,,,,,,366,MAS,DIS,150,riesgo,la,l,530.79,530.79,0.319444444,0.496296296,0,0,0,,0,221,221,365,1,,,,
,,,,,,59a093cd11cf3012de0ded64,66a626ef09d4e21e1a8894ec,6735c5b8ce58982c1c06adde,2024-11-14_10h41.43.566,Tarea de género gramatical,2024.2.2,Win32,59.95203837,,,,,,,,,,,,,,,,,,,,,,,,530.794,531.808,l,0,0.336,,[],[],[],[],[],[],[],0.336,0,531.809,532.309,,,,,,438,MAS,DIS,150,tanque,la,l,532.311,532.314,0.319444444,0.496296296,0,0,0,,0,222,222,437,1,,,,
,,,,,,59a093cd11cf3012de0ded64,66a626ef09d4e21e1a8894ec,6735c5b8ce58982c1c06adde,2024-11-14_10h41.43.566,Tarea de género gramatical,2024.2.2,Win32,59.95203837,,,,,,,,,,,,,,,,,,,,,,,,532.315,533.343,l,1,0.35,,[],[],[],[],[],[],[],0.35,1,533.346,533.843,,,,,,73,FEM,AGR,150,roca,la,a,533.843,533.843,0.319444444,0.496296296,0,0,0,,0,223,223,72,1,,,,
,,,,,,59a093cd11cf3012de0ded64,66a626ef09d4e21e1a8894ec,6735c5b8ce58982c1c06adde,2024-11-14_10h41.43.566,Tarea de género gramatical,2024.2.2,Win32,59.95203837,,,,,,,,,,,,,,,,,,,,,,,,533.847,534.878,a,1,0.353,,[],[],[],[],[],[],[],0.353,1,534.878,535.378,,,,,,300,MAS,DIS,150,túnel,la,l,535.378,535.378,0.319444444,0.496296296,0,0,0,,0,224,224,299,1,,,,
,,,,,,59a093cd11cf3012de0ded64,66a626ef09d4e21e1a8894ec,6735c5b8ce58982c1c06adde,2024-11-14_10h41.43.566,Tarea de género gramatical,2024.2.2,Win32,59.95203837,,,,,,,,,,,,,,,,,,,,,,,,535.381,536.413,l,1,0.351,,[],[],[],[],[],[],[],0.351,1,536.413,536.913,,,,,,3,FEM,DIS,150,cosa,el,a,536.913,536.914,0.319444444,0.496296296,0,0,0,,0,225,225,2,1,,,,
,,,,,,59a093cd11cf3012de0ded64,66a626ef09d4e21e1a8894ec,6735c5b8ce58982c1c06adde,2024-11-14_10h41.43.566,Tarea de género gramatical,2024.2.2,Win32,59.95203837,,,,,,,,,,,,,,,,,,,,,,,,536.917,537.964,a,1,0.375,,[],[],[],[],[],[],[],0.375,1,537.964,538.466,,,,,,293,MAS,CON,150,patio,,l,538.466,538.466,0.319444444,0.496296296,0,0,0,,0,226,226,292,1,,,,
,,,,,,59a093cd11cf3012de0ded64,66a626ef09d4e21e1a8894ec,6735c5b8ce58982c1c06adde,2024-11-14_10h41.43.566,Tarea de género gramatical,2024.2.2,Win32,59.95203837,,,,,,,,,,,,,,,,,,,,,,,,538.468,539.482,a,1,0.336,,[],[],[],[],[],[],[],0.336,1,539.482,539.983,,,,,,347,MAS,CON,150,cuello,,l,539.986,539.988,0.319444444,0.496296296,0,0,0,,0,227,227,346,1,,,,
,,,,,,59a093cd11cf3012de0ded64,66a626ef09d4e21e1a8894ec,6735c5b8ce58982c1c06adde,2024-11-14_10h41.43.566,Tarea de género gramatical,2024.2.2,Win32,59.95203837,,,,,,,,,,,,,,,,,,,,,,,,539.99,541.034,l,1,0.368,,[],[],[],[],[],[],[],0.368,1,541.035,541.534,,,,,,337,FEM,AGR,150,escena,la,a,541.534,541.535,0.319444444,0.496296296,0,0,0,,0,228,228,336,1,,,,
,,,,,,59a093cd11cf3012de0ded64,66a626ef09d4e21e1a8894ec,6735c5b8ce58982c1c06adde,2024-11-14_10h41.43.566,Tarea de género gramatical,2024.2.2,Win32,59.95203837,,,,,,,,,,,,,,,,,,,,,,,,541.537,542.636,a,1,0.42,,[],[],[],[],[],[],[],0.42,1,542.636,543.136,,,,,,335,MAS,CON,150,montón,,l,543.136,543.136,0.319444444,0.496296296,0,0,0,,0,229,229,334,1,,,,
,,,,,,59a093cd11cf3012de0ded64,66a626ef09d4e21e1a8894ec,6735c5b8ce58982c1c06adde,2024-11-14_10h41.43.566,Tarea de género gramatical,2024.2.2,Win32,59.95203837,,,,,,,,,,,,,,,,,,,,,,,,543.138,544.17,l,0,0.353,,[],[],[],[],[],[],[],0.353,0,544.172,544.671,,,,,,23,MAS,CON,150,rato,,l,544.671,544.671,0.319444444,0.496296296,0,0,0,,0,230,230,22,1,,,,
,,,,,,59a093cd11cf3012de0ded64,66a626ef09d4e21e1a8894ec,6735c5b8ce58982c1c06adde,2024-11-14_10h41.43.566,Tarea de género gramatical,2024.2.2,Win32,59.95203837,,,,,,,,,,,,,,,,,,,,,,,,544.673,545.689,a,0,0.337,,[],[],[],[],[],[],[],0.337,0,545.689,546.189,,,,,,99,FEM,DIS,150,fase,el,a,546.191,546.193,0.319444444,0.496296296,0,0,0,,0,231,231,98,1,,,,
,,,,,,59a093cd11cf3012de0ded64,66a626ef09d4e21e1a8894ec,6735c5b8ce58982c1c06adde,2024-11-14_10h41.43.566,Tarea de género gramatical,2024.2.2,Win32,59.95203837,,,,,,,,,,,,,,,,,,,,,,,,546.195,547.308,a,1,0.444,,[],[],[],[],[],[],[],0.444,1,547.31,547.808,,,,,,108,MAS,DIS,150,hilo,la,l,547.808,547.808,0.319444444,0.496296296,0,0,0,,0,232,232,107,1,,,,
,,,,,,59a093cd11cf3012de0ded64,66a626ef09d4e21e1a8894ec,6735c5b8ce58982c1c06adde,2024-11-14_10h41.43.566,Tarea de género gramatical,2024.2.2,Win32,59.95203837,,,,,,,,,,,,,,,,,,,,,,,,547.809,548.725,l,1,0.234,,[],[],[],[],[],[],[],0.234,1,548.726,549.225,,,,,,2,FEM,CON,150,vida,,a,549.225,549.225,0.319444444,0.496296296,0,0,0,,0,233,233,1,1,,,,
,,,,,,59a093cd11cf3012de0ded64,66a626ef09d4e21e1a8894ec,6735c5b8ce58982c1c06adde,2024-11-14_10h41.43.566,Tarea de género gramatical,2024.2.2,Win32,59.95203837,,,,,,,,,,,,,,,,,,,,,,,,549.228,550.193,a,0,0.294,,[],[],[],[],[],[],[],0.294,0,550.196,550.694,,,,,,187,FEM,AGR,150,lista,la,a,550.694,550.694,0.319444444,0.496296296,0,0,0,,0,234,234,186,1,,,,
,,,,,,59a093cd11cf3012de0ded64,66a626ef09d4e21e1a8894ec,6735c5b8ce58982c1c06adde,2024-11-14_10h41.43.566,Tarea de género gramatical,2024.2.2,Win32,59.95203837,,,,,,,,,,,,,,,,,,,,,,,,550.697,551.645,l,1,0.267,,[],[],[],[],[],[],[],0.267,1,551.647,552.145,,,,,,158,FEM,CON,150,chica,,a,552.145,552.145,0.319444444,0.496296296,0,0,0,,0,235,235,157,1,,,,
,,,,,,59a093cd11cf3012de0ded64,66a626ef09d4e21e1a8894ec,6735c5b8ce58982c1c06adde,2024-11-14_10h41.43.566,Tarea de género gramatical,2024.2.2,Win32,59.95203837,,,,,,,,,,,,,,,,,,,,,,,,552.147,553.079,l,1,0.269,,[],[],[],[],[],[],[],0.269,1,553.08,553.58,,,,,,391,FEM,AGR,150,altura,la,a,553.582,553.584,0.319444444,0.496296296,0,0,0,,0,236,236,390,1,,,,
,,,,,,59a093cd11cf3012de0ded64,66a626ef09d4e21e1a8894ec,6735c5b8ce58982c1c06adde,2024-11-14_10h41.43.566,Tarea de género gramatical,2024.2.2,Win32,59.95203837,,,,,,,,,,,,,,,,,,,,,,,,553.585,554.597,a,1,0.342,,[],[],[],[],[],[],[],0.342,1,554.597,555.098,,,,,,130,MAS,AGR,150,yate,el,l,555.098,555.098,0.319444444,0.496296296,0,0,0,,0,237,237,129,1,,,,
,,,,,,59a093cd11cf3012de0ded64,66a626ef09d4e21e1a8894ec,6735c5b8ce58982c1c06adde,2024-11-14_10h41.43.566,Tarea de género gramatical,2024.2.2,Win32,59.95203837,,,,,,,,,,,,,,,,,,,,,,,,555.1,556.05,l,1,0.277,,[],[],[],[],[],[],[],0.277,1,556.05,556.549,,,,,,115,FEM,AGR,150,seda,la,a,556.549,556.55,0.319444444,0.496296296,0,0,0,,0,238,238,114,1,,,,
,,,,,,59a093cd11cf3012de0ded64,66a626ef09d4e21e1a8894ec,6735c5b8ce58982c1c06adde,2024-11-14_10h41.43.566,Tarea de género gramatical,2024.2.2,Win32,59.95203837,,,,,,,,,,,,,,,,,,,,,,,,556.552,557.502,a,1,0.268,,[],[],[],[],[],[],[],0.268,1,557.504,558,,,,,,76,MAS,AGR,150,lujo,el,l,558.002,558.002,0.319444444,0.496296296,0,0,0,,0,239,239,75,1,,,,
,,,,,,59a093cd11cf3012de0ded64,66a626ef09d4e21e1a8894ec,6735c5b8ce58982c1c06adde,2024-11-14_10h41.43.566,Tarea de género gramatical,2024.2.2,Win32,59.95203837,,,,,,,,,,,,,,,,,,,,,,,,558.006,558.936,l,1,0.251,,[],[],[],[],[],[],[],0.251,1,558.936,559.436,,,,,,97,FEM,AGR,150,capa,la,a,559.439,559.442,0.319444444,0.496296296,0,0,0,,0,240,240,96,1,,,,
,,,,,,59a093cd11cf3012de0ded64,66a626ef09d4e21e1a8894ec,6735c5b8ce58982c1c06adde,2024-11-14_10h41.43.566,Tarea de género gramatical,2024.2.2,Win32,59.95203837,,,,,,,,,,,,,,,,,,,,,,,,559.443,560.42,a,1,0.301,,[],[],[],[],[],[],[],0.301,1,560.42,560.921,,,,,,448,MAS,AGR,150,aceite,el,l,560.921,560.921,0.319444444,0.496296296,0,0,0,,0,241,241,447,1,,,,
,,,,,,59a093cd11cf3012de0ded64,66a626ef09d4e21e1a8894ec,6735c5b8ce58982c1c06adde,2024-11-14_10h41.43.566,Tarea de género gramatical,2024.2.2,Win32,59.95203837,,,,,,,,,,,,,,,,,,,,,,,,560.923,561.905,l,1,0.301,,[],[],[],[],[],[],[],0.301,1,561.906,562.405,,,,,,379,FEM,AGR,150,granja,la,a,562.405,562.406,0.319444444,0.496296296,0,0,0,,0,242,242,378,1,,,,
,,,,,,59a093cd11cf3012de0ded64,66a626ef09d4e21e1a8894ec,6735c5b8ce58982c1c06adde,2024-11-14_10h41.43.566,Tarea de género gramatical,2024.2.2,Win32,59.95203837,,,,,,,,,,,,,,,,,,,,,,,,562.407,563.39,l,1,0.318,,[],[],[],[],[],[],[],0.318,1,563.39,563.89,,,,,,369,FEM,DIS,150,camisa,el,a,563.89,563.89,0.319444444,0.496296296,0,0,0,,0,243,243,368,1,,,,
,,,,,,59a093cd11cf3012de0ded64,66a626ef09d4e21e1a8894ec,6735c5b8ce58982c1c06adde,2024-11-14_10h41.43.566,Tarea de género gramatical,2024.2.2,Win32,59.95203837,,,,,,,,,,,,,,,,,,,,,,,,563.892,564.825,l,1,0.269,,[],[],[],[],[],[],[],0.269,1,564.825,565.325,,,,,,129,FEM,DIS,150,rana,el,a,565.325,565.325,0.319444444,0.496296296,0,0,0,,0,244,244,128,1,,,,
,,,,,,59a093cd11cf3012de0ded64,66a626ef09d4e21e1a8894ec,6735c5b8ce58982c1c06adde,2024-11-14_10h41.43.566,Tarea de género gramatical,2024.2.2,Win32,59.95203837,,,,,,,,,,,,,,,,,,,,,,,,565.327,566.259,l,1,0.251,,[],[],[],[],[],[],[],0.251,1,566.259,566.76,,,,,,169,FEM,AGR,150,vista,la,a,566.762,566.765,0.319444444,0.496296296,0,0,0,,0,245,245,168,1,,,,
,,,,,,59a093cd11cf3012de0ded64,66a626ef09d4e21e1a8894ec,6735c5b8ce58982c1c06adde,2024-11-14_10h41.43.566,Tarea de género gramatical,2024.2.2,Win32,59.95203837,,,,,,,,,,,,,,,,,,,,,,,,566.766,567.661,a,1,0.221,,[],[],[],[],[],[],[],0.221,1,567.661,568.16,,,,,,292,MAS,AGR,150,piano,el,l,568.161,568.162,0.319444444,0.496296296,0,0,0,,0,246,246,291,1,,,,
,,,,,,59a093cd11cf3012de0ded64,66a626ef09d4e21e1a8894ec,6735c5b8ce58982c1c06adde,2024-11-14_10h41.43.566,Tarea de género gramatical,2024.2.2,Win32,59.95203837,,,,,,,,,,,,,,,,,,,,,,,,568.163,569.096,a,0,0.26,,[],[],[],[],[],[],[],0.26,0,569.098,569.596,,,,,,272,FEM,CON,150,oreja,,a,569.596,569.596,0.319444444,0.496296296,0,0,0,,0,247,247,271,1,,,,
,,,,,,59a093cd11cf3012de0ded64,66a626ef09d4e21e1a8894ec,6735c5b8ce58982c1c06adde,2024-11-14_10h41.43.566,Tarea de género gramatical,2024.2.2,Win32,59.95203837,,,,,,,,,,,,,,,,,,,,,,,,569.598,570.596,a,1,0.325,,[],[],[],[],[],[],[],0.325,1,570.599,571.097,,,,,,28,MAS,AGR,150,club,el,l,571.098,571.098,0.319444444,0.496296296,0,0,0,,0,248,248,27,1,,,,
,,,,,,59a093cd11cf3012de0ded64,66a626ef09d4e21e1a8894ec,6735c5b8ce58982c1c06adde,2024-11-14_10h41.43.566,Tarea de género gramatical,2024.2.2,Win32,59.95203837,,,,,,,,,,,,,,,,,,,,,,,,571.1,572.098,a,1,0.319,,[],[],[],[],[],[],[],0.319,1,572.098,572.599,,,,,,100,MAS,AGR,150,nido,el,l,572.601,572.604,0.319444444,0.496296296,0,0,0,,0,249,249,99,1,,,,
,,,,,,59a093cd11cf3012de0ded64,66a626ef09d4e21e1a8894ec,6735c5b8ce58982c1c06adde,2024-11-14_10h41.43.566,Tarea de género gramatical,2024.2.2,Win32,59.95203837,,,,,,,,,,,,,,,,,,,,,,,,572.605,573.566,a,1,0.285,,[],[],[],[],[],[],[],0.285,1,573.566,574.066,,,,,,233,MAS,CON,150,golpe,,l,574.066,574.066,0.319444444,0.496296296,0,0,0,,0,250,250,232,1,,,,
,,,,,,59a093cd11cf3012de0ded64,66a626ef09d4e21e1a8894ec,6735c5b8ce58982c1c06adde,2024-11-14_10h41.43.566,Tarea de género gramatical,2024.2.2,Win32,59.95203837,,,,,,,,,,,,,,,,,,,,,,,,574.069,575.018,a,1,0.268,,[],[],[],[],[],[],[],0.268,1,575.019,575.518,,,,,,239,MAS,CON,150,reloj,,l,575.518,575.518,0.319444444,0.496296296,0,0,0,,0,251,251,238,1,,,,
,,,,,,59a093cd11cf3012de0ded64,66a626ef09d4e21e1a8894ec,6735c5b8ce58982c1c06adde,2024-11-14_10h41.43.566,Tarea de género gramatical,2024.2.2,Win32,59.95203837,,,,,,,,,,,,,,,,,,,,,,,,575.521,576.569,a,1,0.368,,[],[],[],[],[],[],[],0.368,1,576.569,577.07,,,,,,312,MAS,DIS,150,equipo,la,l,577.07,577.07,0.319444444,0.496296296,0,0,0,,0,252,252,311,1,,,,
,,,,,,59a093cd11cf3012de0ded64,66a626ef09d4e21e1a8894ec,6735c5b8ce58982c1c06adde,2024-11-14_10h41.43.566,Tarea de género gramatical,2024.2.2,Win32,59.95203837,,,,,,,,,,,,,,,,,,,,,,,,577.072,577.971,l,1,0.219,,[],[],[],[],[],[],[],0.219,1,577.971,578.472,,,,,,13,FEM,AGR,150,hija,la,a,578.472,578.472,0.319444444,0.496296296,0,0,0,,0,253,253,12,1,,,,
,,,,,,59a093cd11cf3012de0ded64,66a626ef09d4e21e1a8894ec,6735c5b8ce58982c1c06adde,2024-11-14_10h41.43.566,Tarea de género gramatical,2024.2.2,Win32,59.95203837,,,,,,,,,,,,,,,,,,,,,,,,578.474,579.456,a,0,0.305,,[],[],[],[],[],[],[],0.305,0,579.458,579.956,,,,,,332,FEM,CON,150,basura,,a,579.958,579.96,0.319444444,0.496296296,0,0,0,,0,254,254,331,1,,,,
,,,,,,59a093cd11cf3012de0ded64,66a626ef09d4e21e1a8894ec,6735c5b8ce58982c1c06adde,2024-11-14_10h41.43.566,Tarea de género gramatical,2024.2.2,Win32,59.95203837,,,,,,,,,,,,,,,,,,,,,,,,579.962,580.973,a,1,0.342,,[],[],[],[],[],[],[],0.342,1,580.975,581.474,,,,,,47,MAS,CON,150,olor,,l,581.474,581.474,0.319444444,0.496296296,0,0,0,,0,255,255,46,1,,,,
,,,,,,59a093cd11cf3012de0ded64,66a626ef09d4e21e1a8894ec,6735c5b8ce58982c1c06adde,2024-11-14_10h41.43.566,Tarea de género gramatical,2024.2.2,Win32,59.95203837,,,,,,,,,,,,,,,,,,,,,,,,581.477,582.492,a,1,0.341,,[],[],[],[],[],[],[],0.341,1,582.493,582.993,,,,,,24,MAS,DIS,150,voto,la,l,582.993,582.993,0.319444444,0.496296296,0,0,0,,0,256,256,23,1,,,,
,,,,,,59a093cd11cf3012de0ded64,66a626ef09d4e21e1a8894ec,6735c5b8ce58982c1c06adde,2024-11-14_10h41.43.566,Tarea de género gramatical,2024.2.2,Win32,59.95203837,,,,,,,,,,,,,,,,,,,,,,,,582.996,583.926,l,1,0.251,,[],[],[],[],[],[],[],0.251,1,583.926,584.428,,,,,,423,FEM,DIS,150,poesía,el,a,584.428,584.428,0.319444444,0.496296296,0,0,0,,0,257,257,422,1,,,,
