counterbalancing_condition,consent_prescreening.block_1/declare_consent,consent_prescreening.block_1/age_years,consent_prescreening.block_1/gender,consent_prescreening.block_1/language_disorder,consent_prescreening.block_1/first_language,PROLIFIC_PID,STUDY_ID,SESSION_ID,date,expName,psychopyVersion,OS,frameRate,check_prescreening_answers.started,check_prescreening_answers.stopped,Instructions.started,Instructions.stopped,instr_done_keyboard.keys,instr_done_keyboard.rt,instr_done_keyboard.duration,instr_done_touch.x,instr_done_touch.y,instr_done_touch.leftButton,instr_done_touch.midButton,instr_done_touch.rightButton,instruction_pages.thisRepN,instruction_pages.thisTrialN,instruction_pages.thisN,instruction_pages.thisIndex,instruction_pages.ran,pageN,phase,instruct_text,has_image,instruct_image,presentTrial.started,presentTrial.stopped,response.keys,response.corr,response.rt,response.duration,touch_resp.x,touch_resp.y,touch_resp.leftButton,touch_resp.midButton,touch_resp.rightButton,touch_resp.time,touch_resp.clicked_name,rt,corr,feedback.started,feedback.stopped,practice_trials.thisRepN,practice_trials.thisTrialN,practice_trials.thisN,practice_trials.thisIndex,practice_trials.ran,TrialID,StimulusType,Condition,PrimeDuration,Prime,Flanker,corrAns,Break.started,Break.stopped,break_done_touch.x,break_done_touch.y,break_done_touch.leftButton,break_done_touch.midButton,break_done_touch.rightButton,break_done_keyboard.keys,experiment_trials.thisRepN,experiment_trials.thisTrialN,experiment_trials.thisN,experiment_trials.thisIndex,experiment_trials.ran,break_done_keyboard.rt,break_done_keyboard.duration,End.started,End.stopped
1,"[""over_18"",""comfortable"",""read_info"",""consent_given""]",18,F,"[""none""]","[""spanish""]",5be73c0dc558d7f0a7e22c5b,66a626ef09d4e21e1a8894ec,6734d69cf759e8eeb4f76440,2024-11-13_10h43.13.011,Tarea de género gramatical,2024.2.2,Win32,59.52380952,,,,,,,,,,,,,,,,,,,,,,,,,,,,,,,,,,,,,,,,,,,,,,,,,,,,,,,,,,,,,,,,,,,,
,,,,,,5be73c0dc558d7f0a7e22c5b,66a626ef09d4e21e1a8894ec,6734d69cf759e8eeb4f76440,2024-11-13_10h43.13.011,Tarea de género gramatical,2024.2.2,Win32,59.52380952,18.9159,18.9162,,,,,,,,,,,,,,,,,,,,,,,,,,,,,,,,,,,,,,,,,,,,,,,,,,,,,,,,,,,,,,,,,,
,,,,,,5be73c0dc558d7f0a7e22c5b,66a626ef09d4e21e1a8894ec,6734d69cf759e8eeb4f76440,2024-11-13_10h43.13.011,Tarea de género gramatical,2024.2.2,Win32,59.52380952,,,18.9631,30.6448,space,11.624,,0.185185242,0.3574074,0,0,0,0,0,0,0,1,1,instructions,"INSTRUCCIONES
Va a realizar una prueba de selección gramatical. Desde el comienzo de la prueba mire siempre al centro de la pantalla. Al cabo de un momento, aparecerán palabras. La tarea consiste en determinar si la palabra del centro (siempre será un sustantivo), pertenece al género masculino o femenino.

Pulse la tecla ESPACIO o toque el botón de abajo para continuar.",0,keyboardresponseMF.png,,,,,,,,,,,,,,,,,,,,,,,,,,,,,,,,,,,,,,,,,,,,,,
,,,,,,5be73c0dc558d7f0a7e22c5b,66a626ef09d4e21e1a8894ec,6734d69cf759e8eeb4f76440,2024-11-13_10h43.13.011,Tarea de género gramatical,2024.2.2,Win32,59.52380952,,,30.6609,39.0881,space,8.3485,,0.185185242,0.3574074,0,0,0,0,1,1,1,1,2,instructions,"Si su dispositivo tiene teclado, pulse la tecla ""A"" para las palabras en masculino (por ejemplo: ""arroz"") y la tecla ""L"" para las palabras en femenino (por ejemplo: ""mano"").
Pulse la tecla ESPACIO o toque el botón de abajo para continuar.",1,keyboardresponseMF.png,,,,,,,,,,,,,,,,,,,,,,,,,,,,,,,,,,,,,,,,,,,,,,
,,,,,,5be73c0dc558d7f0a7e22c5b,66a626ef09d4e21e1a8894ec,6734d69cf759e8eeb4f76440,2024-11-13_10h43.13.011,Tarea de género gramatical,2024.2.2,Win32,59.52380952,,,39.0919,43.5546,space,4.4023,,0.185185242,0.3574074,0,0,0,0,2,2,2,1,3,instructions,"Si utiliza un dispositivo sólo táctil, colóquelo en horizontal y utilice los botones de la pantalla. No utilice el ratón.
Pulse la tecla ESPACIO o toque el botón de abajo para continuar.",2,touchresponseMF.png,,,,,,,,,,,,,,,,,,,,,,,,,,,,,,,,,,,,,,,,,,,,,,
,,,,,,5be73c0dc558d7f0a7e22c5b,66a626ef09d4e21e1a8894ec,6734d69cf759e8eeb4f76440,2024-11-13_10h43.13.011,Tarea de género gramatical,2024.2.2,Win32,59.52380952,,,43.5594,56.6711,space,13.0879,,0.185185242,0.3574074,0,0,0,0,3,3,3,1,4,instructions,"Es muy importante que responda con la mayor rapidez y precisión posibles, ya que cada cadena de letras sólo estará en pantalla durante un instante. Si no responde en ese tiempo, aparecerá el mensaje ""Muy lento"" y el experimento pasará a la siguiente palabra. Los primeros 15 intentos serán de práctica y habrá dos descansos durante la prueba.
Pulse la tecla ESPACIO o toque el botón de abajo para iniciar la parte de práctica.",0,keyboardresponseMF.png,,,,,,,,,,,,,,,,,,,,,,,,,,,,,,,,,,,,,,,,,,,,,,
,,,,,,5be73c0dc558d7f0a7e22c5b,66a626ef09d4e21e1a8894ec,6734d69cf759e8eeb4f76440,2024-11-13_10h43.13.011,Tarea de género gramatical,2024.2.2,Win32,59.52380952,,,,,,,,,,,,,,,,,,,,,,,56.7105,58.1036,a,1,0.7182,,[],[],[],[],[],[],[],0.7182,1,58.104,58.6033,0,0,0,10,1,2011,MAS,CON,150,canal,,l,,,,,,,,,,,,,,,,,
,,,,,,5be73c0dc558d7f0a7e22c5b,66a626ef09d4e21e1a8894ec,6734d69cf759e8eeb4f76440,2024-11-13_10h43.13.011,Tarea de género gramatical,2024.2.2,Win32,59.52380952,,,,,,,,,,,,,,,,,,,,,,,58.6054,60.0532,l,1,0.768,,[],[],[],[],[],[],[],0.768,1,60.0533,60.5533,0,1,1,0,1,2001,FEM,AGR,150,nuca,la,a,,,,,,,,,,,,,,,,,
,,,,,,5be73c0dc558d7f0a7e22c5b,66a626ef09d4e21e1a8894ec,6734d69cf759e8eeb4f76440,2024-11-13_10h43.13.011,Tarea de género gramatical,2024.2.2,Win32,59.52380952,,,,,,,,,,,,,,,,,,,,,,,60.5554,61.7531,l,1,0.5273,,[],[],[],[],[],[],[],0.5273,1,61.7532,62.2534,0,2,2,6,1,2007,FEM,AGR,150,navaja,la,a,,,,,,,,,,,,,,,,,
,,,,,,5be73c0dc558d7f0a7e22c5b,66a626ef09d4e21e1a8894ec,6734d69cf759e8eeb4f76440,2024-11-13_10h43.13.011,Tarea de género gramatical,2024.2.2,Win32,59.52380952,,,,,,,,,,,,,,,,,,,,,,,62.2556,63.4198,a,0,0.4842,,[],[],[],[],[],[],[],0.4842,0,63.4214,63.9201,0,3,3,5,1,2006,FEM,DIS,150,serie,el,a,,,,,,,,,,,,,,,,,
,,,,,,5be73c0dc558d7f0a7e22c5b,66a626ef09d4e21e1a8894ec,6734d69cf759e8eeb4f76440,2024-11-13_10h43.13.011,Tarea de género gramatical,2024.2.2,Win32,59.52380952,,,,,,,,,,,,,,,,,,,,,,,63.9221,65.5535,a,1,0.9511,,[],[],[],[],[],[],[],0.9511,1,65.5544,66.0536,0,4,4,13,1,2014,MAS,CON,150,siglo,,l,,,,,,,,,,,,,,,,,
,,,,,,5be73c0dc558d7f0a7e22c5b,66a626ef09d4e21e1a8894ec,6734d69cf759e8eeb4f76440,2024-11-13_10h43.13.011,Tarea de género gramatical,2024.2.2,Win32,59.52380952,,,,,,,,,,,,,,,,,,,,,,,66.056,67.4702,l,1,0.7328,,[],[],[],[],[],[],[],0.7328,1,67.4703,67.97,0,5,5,2,1,2003,FEM,DIS,150,daga,el,a,,,,,,,,,,,,,,,,,
,,,,,,5be73c0dc558d7f0a7e22c5b,66a626ef09d4e21e1a8894ec,6734d69cf759e8eeb4f76440,2024-11-13_10h43.13.011,Tarea de género gramatical,2024.2.2,Win32,59.52380952,,,,,,,,,,,,,,,,,,,,,,,67.972,69.5034,l,1,0.8499,,[],[],[],[],[],[],[],0.8499,1,69.5034,70.0034,0,6,6,4,1,2005,FEM,CON,150,placa,,a,,,,,,,,,,,,,,,,,
,,,,,,5be73c0dc558d7f0a7e22c5b,66a626ef09d4e21e1a8894ec,6734d69cf759e8eeb4f76440,2024-11-13_10h43.13.011,Tarea de género gramatical,2024.2.2,Win32,59.52380952,,,,,,,,,,,,,,,,,,,,,,,70.0055,71.3533,l,1,0.6777,,[],[],[],[],[],[],[],0.6777,1,71.3535,71.8538,0,7,7,3,1,2004,FEM,AGR,150,venta,la,a,,,,,,,,,,,,,,,,,
,,,,,,5be73c0dc558d7f0a7e22c5b,66a626ef09d4e21e1a8894ec,6734d69cf759e8eeb4f76440,2024-11-13_10h43.13.011,Tarea de género gramatical,2024.2.2,Win32,59.52380952,,,,,,,,,,,,,,,,,,,,,,,71.855,73.1869,a,1,0.655,,[],[],[],[],[],[],[],0.655,1,73.187,73.6867,0,8,8,8,1,2009,MAS,DIS,150,puerto,la,l,,,,,,,,,,,,,,,,,
,,,,,,5be73c0dc558d7f0a7e22c5b,66a626ef09d4e21e1a8894ec,6734d69cf759e8eeb4f76440,2024-11-13_10h43.13.011,Tarea de género gramatical,2024.2.2,Win32,59.52380952,,,,,,,,,,,,,,,,,,,,,,,73.6877,74.9034,l,1,0.5356,,[],[],[],[],[],[],[],0.5356,1,74.9035,75.4034,0,9,9,7,1,2008,FEM,CON,150,siesta,,a,,,,,,,,,,,,,,,,,
,,,,,,5be73c0dc558d7f0a7e22c5b,66a626ef09d4e21e1a8894ec,6734d69cf759e8eeb4f76440,2024-11-13_10h43.13.011,Tarea de género gramatical,2024.2.2,Win32,59.52380952,,,,,,,,,,,,,,,,,,,,,,,75.4045,76.704,a,1,0.6192,,[],[],[],[],[],[],[],0.6192,1,76.7041,77.2036,0,10,10,12,1,2013,MAS,AGR,150,acero,el,l,,,,,,,,,,,,,,,,,
,,,,,,5be73c0dc558d7f0a7e22c5b,66a626ef09d4e21e1a8894ec,6734d69cf759e8eeb4f76440,2024-11-13_10h43.13.011,Tarea de género gramatical,2024.2.2,Win32,59.52380952,,,,,,,,,,,,,,,,,,,,,,,77.2048,78.4371,a,1,0.552,,[],[],[],[],[],[],[],0.552,1,78.4372,78.9369,0,11,11,9,1,2010,MAS,AGR,150,vecino,el,l,,,,,,,,,,,,,,,,,
,,,,,,5be73c0dc558d7f0a7e22c5b,66a626ef09d4e21e1a8894ec,6734d69cf759e8eeb4f76440,2024-11-13_10h43.13.011,Tarea de género gramatical,2024.2.2,Win32,59.52380952,,,,,,,,,,,,,,,,,,,,,,,78.939,80.4536,l,0,0.834,,[],[],[],[],[],[],[],0.834,0,80.4545,80.9535,0,12,12,11,1,2012,MAS,DIS,150,clima,la,l,,,,,,,,,,,,,,,,,
,,,,,,5be73c0dc558d7f0a7e22c5b,66a626ef09d4e21e1a8894ec,6734d69cf759e8eeb4f76440,2024-11-13_10h43.13.011,Tarea de género gramatical,2024.2.2,Win32,59.52380952,,,,,,,,,,,,,,,,,,,,,,,80.9546,82.237,l,1,0.6018,,[],[],[],[],[],[],[],0.6018,1,82.2378,82.7372,0,13,13,1,1,2002,FEM,CON,150,pala,,a,,,,,,,,,,,,,,,,,
,,,,,,5be73c0dc558d7f0a7e22c5b,66a626ef09d4e21e1a8894ec,6734d69cf759e8eeb4f76440,2024-11-13_10h43.13.011,Tarea de género gramatical,2024.2.2,Win32,59.52380952,,,,,,,,,,,,,,,,,,,,,,,82.7392,84.1203,a,1,0.7093,,[],[],[],[],[],[],[],0.7093,1,84.1204,84.6203,0,14,14,14,1,2015,MAS,DIS,150,robot,la,l,,,,,,,,,,,,,,,,,
,,,,,,5be73c0dc558d7f0a7e22c5b,66a626ef09d4e21e1a8894ec,6734d69cf759e8eeb4f76440,2024-11-13_10h43.13.011,Tarea de género gramatical,2024.2.2,Win32,59.52380952,,,169.3123,171.6732,space,2.3406,,0.185185242,0.3574074,0,0,0,,,,,,,,,,,171.7374,173.1065,a,1,0.7096,,[],[],[],[],[],[],[],0.7096,1,173.1066,173.6058,,,,,,792,MAS,AGR,150,abuelo,el,l,173.6063,173.6133,0.185185242,0.3574074,0,0,0,,0,0,0,341,1,,,,
,,,,,,5be73c0dc558d7f0a7e22c5b,66a626ef09d4e21e1a8894ec,6734d69cf759e8eeb4f76440,2024-11-13_10h43.13.011,Tarea de género gramatical,2024.2.2,Win32,59.52380952,,,,,,,,,,,,,,,,,,,,,,,173.6157,174.7396,a,1,0.4564,,[],[],[],[],[],[],[],0.4564,1,174.7398,175.2392,,,,,,744,MAS,AGR,150,cable,el,l,175.2393,175.2395,0.185185242,0.3574074,0,0,0,,0,1,1,293,1,,,,
,,,,,,5be73c0dc558d7f0a7e22c5b,66a626ef09d4e21e1a8894ec,6734d69cf759e8eeb4f76440,2024-11-13_10h43.13.011,Tarea de género gramatical,2024.2.2,Win32,59.52380952,,,,,,,,,,,,,,,,,,,,,,,175.2418,176.4394,l,1,0.5219,,[],[],[],[],[],[],[],0.5219,1,176.4395,176.9399,,,,,,709,FEM,CON,150,prima,,a,176.9429,176.944,0.185185242,0.3574074,0,0,0,,0,2,2,258,1,,,,
,,,,,,5be73c0dc558d7f0a7e22c5b,66a626ef09d4e21e1a8894ec,6734d69cf759e8eeb4f76440,2024-11-13_10h43.13.011,Tarea de género gramatical,2024.2.2,Win32,59.52380952,,,,,,,,,,,,,,,,,,,,,,,176.9456,178.0731,a,1,0.4514,,[],[],[],[],[],[],[],0.4514,1,178.0734,178.5728,,,,,,696,MAS,AGR,150,humor,el,l,178.5736,178.5738,0.185185242,0.3574074,0,0,0,,0,3,3,245,1,,,,
,,,,,,5be73c0dc558d7f0a7e22c5b,66a626ef09d4e21e1a8894ec,6734d69cf759e8eeb4f76440,2024-11-13_10h43.13.011,Tarea de género gramatical,2024.2.2,Win32,59.52380952,,,,,,,,,,,,,,,,,,,,,,,178.5755,179.7893,a,1,0.5426,,[],[],[],[],[],[],[],0.5426,1,179.7894,180.2899,,,,,,844,MAS,CON,150,examen,,l,180.29,180.2901,0.185185242,0.3574074,0,0,0,,0,4,4,393,1,,,,
,,,,,,5be73c0dc558d7f0a7e22c5b,66a626ef09d4e21e1a8894ec,6734d69cf759e8eeb4f76440,2024-11-13_10h43.13.011,Tarea de género gramatical,2024.2.2,Win32,59.52380952,,,,,,,,,,,,,,,,,,,,,,,180.2917,181.4399,l,1,0.4696,,[],[],[],[],[],[],[],0.4696,1,181.4401,181.939,,,,,,693,FEM,AGR,150,salsa,la,a,181.9392,181.9393,0.185185242,0.3574074,0,0,0,,0,5,5,242,1,,,,
,,,,,,5be73c0dc558d7f0a7e22c5b,66a626ef09d4e21e1a8894ec,6734d69cf759e8eeb4f76440,2024-11-13_10h43.13.011,Tarea de género gramatical,2024.2.2,Win32,59.52380952,,,,,,,,,,,,,,,,,,,,,,,181.9409,183.1224,l,1,0.501,,[],[],[],[],[],[],[],0.501,1,183.1224,183.6225,,,,,,853,FEM,CON,150,paliza,,a,183.6252,183.6267,0.185185242,0.3574074,0,0,0,,0,6,6,402,1,,,,
,,,,,,5be73c0dc558d7f0a7e22c5b,66a626ef09d4e21e1a8894ec,6734d69cf759e8eeb4f76440,2024-11-13_10h43.13.011,Tarea de género gramatical,2024.2.2,Win32,59.52380952,,,,,,,,,,,,,,,,,,,,,,,183.6282,184.7885,a,1,0.4899,,[],[],[],[],[],[],[],0.4899,1,184.7886,185.2891,,,,,,816,MAS,AGR,150,riesgo,el,l,185.2892,185.2893,0.185185242,0.3574074,0,0,0,,0,7,7,365,1,,,,
,,,,,,5be73c0dc558d7f0a7e22c5b,66a626ef09d4e21e1a8894ec,6734d69cf759e8eeb4f76440,2024-11-13_10h43.13.011,Tarea de género gramatical,2024.2.2,Win32,59.52380952,,,,,,,,,,,,,,,,,,,,,,,185.2912,186.6723,l,1,0.7061,,[],[],[],[],[],[],[],0.7061,1,186.6724,187.1719,,,,,,651,FEM,AGR,150,leche,la,a,187.172,187.172,0.185185242,0.3574074,0,0,0,,0,8,8,200,1,,,,
,,,,,,5be73c0dc558d7f0a7e22c5b,66a626ef09d4e21e1a8894ec,6734d69cf759e8eeb4f76440,2024-11-13_10h43.13.011,Tarea de género gramatical,2024.2.2,Win32,59.52380952,,,,,,,,,,,,,,,,,,,,,,,187.1732,188.3556,l,1,0.5027,,[],[],[],[],[],[],[],0.5027,1,188.3558,188.8556,,,,,,717,FEM,AGR,150,barba,la,a,188.8557,188.8558,0.185185242,0.3574074,0,0,0,,0,9,9,266,1,,,,
,,,,,,5be73c0dc558d7f0a7e22c5b,66a626ef09d4e21e1a8894ec,6734d69cf759e8eeb4f76440,2024-11-13_10h43.13.011,Tarea de género gramatical,2024.2.2,Win32,59.52380952,,,,,,,,,,,,,,,,,,,,,,,188.8568,190.5899,l,1,1.0743,,[],[],[],[],[],[],[],1.0743,1,190.5901,191.0893,,,,,,842,FEM,DIS,150,maleta,el,a,191.0893,191.0895,0.185185242,0.3574074,0,0,0,,0,10,10,391,1,,,,
,,,,,,5be73c0dc558d7f0a7e22c5b,66a626ef09d4e21e1a8894ec,6734d69cf759e8eeb4f76440,2024-11-13_10h43.13.011,Tarea de género gramatical,2024.2.2,Win32,59.52380952,,,,,,,,,,,,,,,,,,,,,,,191.0917,192.3559,a,1,0.5842,,[],[],[],[],[],[],[],0.5842,1,192.356,192.8564,,,,,,604,MAS,CON,150,padre,,l,192.8589,192.8601,0.185185242,0.3574074,0,0,0,,0,11,11,153,1,,,,
,,,,,,5be73c0dc558d7f0a7e22c5b,66a626ef09d4e21e1a8894ec,6734d69cf759e8eeb4f76440,2024-11-13_10h43.13.011,Tarea de género gramatical,2024.2.2,Win32,59.52380952,,,,,,,,,,,,,,,,,,,,,,,192.8611,194.1561,a,1,0.6252,,[],[],[],[],[],[],[],0.6252,1,194.1563,194.6564,,,,,,636,MAS,AGR,150,error,el,l,194.6565,194.6566,0.185185242,0.3574074,0,0,0,,0,12,12,185,1,,,,
,,,,,,5be73c0dc558d7f0a7e22c5b,66a626ef09d4e21e1a8894ec,6734d69cf759e8eeb4f76440,2024-11-13_10h43.13.011,Tarea de género gramatical,2024.2.2,Win32,59.52380952,,,,,,,,,,,,,,,,,,,,,,,194.6591,196.156,l,1,0.8225,,[],[],[],[],[],[],[],0.8225,1,196.1561,196.6569,,,,,,686,FEM,DIS,150,deuda,el,a,196.6569,196.6571,0.185185242,0.3574074,0,0,0,,0,13,13,235,1,,,,
,,,,,,5be73c0dc558d7f0a7e22c5b,66a626ef09d4e21e1a8894ec,6734d69cf759e8eeb4f76440,2024-11-13_10h43.13.011,Tarea de género gramatical,2024.2.2,Win32,59.52380952,,,,,,,,,,,,,,,,,,,,,,,196.6592,198.0232,a,1,0.6847,,[],[],[],[],[],[],[],0.6847,1,198.0234,198.5232,,,,,,648,MAS,AGR,150,hotel,el,l,198.5234,198.5236,0.185185242,0.3574074,0,0,0,,0,14,14,197,1,,,,
,,,,,,5be73c0dc558d7f0a7e22c5b,66a626ef09d4e21e1a8894ec,6734d69cf759e8eeb4f76440,2024-11-13_10h43.13.011,Tarea de género gramatical,2024.2.2,Win32,59.52380952,,,,,,,,,,,,,,,,,,,,,,,198.5264,199.74,a,1,0.5398,,[],[],[],[],[],[],[],0.5398,1,199.7401,200.2399,,,,,,882,MAS,AGR,150,océano,el,l,200.2436,200.2452,0.185185242,0.3574074,0,0,0,,0,15,15,431,1,,,,
,,,,,,5be73c0dc558d7f0a7e22c5b,66a626ef09d4e21e1a8894ec,6734d69cf759e8eeb4f76440,2024-11-13_10h43.13.011,Tarea de género gramatical,2024.2.2,Win32,59.52380952,,,,,,,,,,,,,,,,,,,,,,,200.2463,201.5403,l,1,0.6236,,[],[],[],[],[],[],[],0.6236,1,201.5405,202.0402,,,,,,529,FEM,CON,150,mina,,a,202.0403,202.0405,0.185185242,0.3574074,0,0,0,,0,16,16,78,1,,,,
,,,,,,5be73c0dc558d7f0a7e22c5b,66a626ef09d4e21e1a8894ec,6734d69cf759e8eeb4f76440,2024-11-13_10h43.13.011,Tarea de género gramatical,2024.2.2,Win32,59.52380952,,,,,,,,,,,,,,,,,,,,,,,202.0422,203.4738,a,0,0.7524,,[],[],[],[],[],[],[],0.7524,0,203.475,203.9732,,,,,,878,FEM,DIS,150,jugada,el,a,203.9732,203.9734,0.185185242,0.3574074,0,0,0,,0,17,17,427,1,,,,
,,,,,,5be73c0dc558d7f0a7e22c5b,66a626ef09d4e21e1a8894ec,6734d69cf759e8eeb4f76440,2024-11-13_10h43.13.011,Tarea de género gramatical,2024.2.2,Win32,59.52380952,,,,,,,,,,,,,,,,,,,,,,,203.9755,205.9069,a,1,1.2602,,[],[],[],[],[],[],[],1.2602,1,205.9087,206.4068,,,,,,850,MAS,CON,150,barrio,,l,206.407,206.4072,0.185185242,0.3574074,0,0,0,,0,18,18,399,1,,,,
,,,,,,5be73c0dc558d7f0a7e22c5b,66a626ef09d4e21e1a8894ec,6734d69cf759e8eeb4f76440,2024-11-13_10h43.13.011,Tarea de género gramatical,2024.2.2,Win32,59.52380952,,,,,,,,,,,,,,,,,,,,,,,206.4096,207.9899,a,1,0.9013,,[],[],[],[],[],[],[],0.9013,1,207.99,208.4905,,,,,,467,MAS,DIS,150,modo,la,l,208.4906,208.4907,0.185185242,0.3574074,0,0,0,,0,19,19,16,1,,,,
,,,,,,5be73c0dc558d7f0a7e22c5b,66a626ef09d4e21e1a8894ec,6734d69cf759e8eeb4f76440,2024-11-13_10h43.13.011,Tarea de género gramatical,2024.2.2,Win32,59.52380952,,,,,,,,,,,,,,,,,,,,,,,208.4937,209.8902,a,1,0.7178,,[],[],[],[],[],[],[],0.7178,1,209.8904,210.3893,,,,,,864,MAS,AGR,150,sótano,el,l,210.3912,210.3919,0.185185242,0.3574074,0,0,0,,0,20,20,413,1,,,,
,,,,,,5be73c0dc558d7f0a7e22c5b,66a626ef09d4e21e1a8894ec,6734d69cf759e8eeb4f76440,2024-11-13_10h43.13.011,Tarea de género gramatical,2024.2.2,Win32,59.52380952,,,,,,,,,,,,,,,,,,,,,,,210.3924,211.5733,l,1,0.5043,,[],[],[],[],[],[],[],0.5043,1,211.5734,212.0735,,,,,,747,FEM,AGR,150,manta,la,a,212.0735,212.0737,0.185185242,0.3574074,0,0,0,,0,21,21,296,1,,,,
,,,,,,5be73c0dc558d7f0a7e22c5b,66a626ef09d4e21e1a8894ec,6734d69cf759e8eeb4f76440,2024-11-13_10h43.13.011,Tarea de género gramatical,2024.2.2,Win32,59.52380952,,,,,,,,,,,,,,,,,,,,,,,212.0753,213.3735,a,1,0.6177,,[],[],[],[],[],[],[],0.6177,1,213.3736,213.8739,,,,,,808,MAS,CON,150,motivo,,l,213.874,213.8742,0.185185242,0.3574074,0,0,0,,0,22,22,357,1,,,,
,,,,,,5be73c0dc558d7f0a7e22c5b,66a626ef09d4e21e1a8894ec,6734d69cf759e8eeb4f76440,2024-11-13_10h43.13.011,Tarea de género gramatical,2024.2.2,Win32,59.52380952,,,,,,,,,,,,,,,,,,,,,,,213.8756,215.1234,a,1,0.5756,,[],[],[],[],[],[],[],0.5756,1,215.1235,215.624,,,,,,742,MAS,CON,150,piano,,l,215.6241,215.6241,0.185185242,0.3574074,0,0,0,,0,23,23,291,1,,,,
,,,,,,5be73c0dc558d7f0a7e22c5b,66a626ef09d4e21e1a8894ec,6734d69cf759e8eeb4f76440,2024-11-13_10h43.13.011,Tarea de género gramatical,2024.2.2,Win32,59.52380952,,,,,,,,,,,,,,,,,,,,,,,215.6257,216.8236,l,1,0.5246,,[],[],[],[],[],[],[],0.5246,1,216.8237,217.3233,,,,,,807,FEM,AGR,150,lengua,la,a,217.3259,217.3272,0.185185242,0.3574074,0,0,0,,0,24,24,356,1,,,,
,,,,,,5be73c0dc558d7f0a7e22c5b,66a626ef09d4e21e1a8894ec,6734d69cf759e8eeb4f76440,2024-11-13_10h43.13.011,Tarea de género gramatical,2024.2.2,Win32,59.52380952,,,,,,,,,,,,,,,,,,,,,,,217.3284,218.5568,l,1,0.5525,,[],[],[],[],[],[],[],0.5525,1,218.557,219.0569,,,,,,883,FEM,CON,150,huella,,a,219.057,219.057,0.185185242,0.3574074,0,0,0,,0,25,25,432,1,,,,
,,,,,,5be73c0dc558d7f0a7e22c5b,66a626ef09d4e21e1a8894ec,6734d69cf759e8eeb4f76440,2024-11-13_10h43.13.011,Tarea de género gramatical,2024.2.2,Win32,59.52380952,,,,,,,,,,,,,,,,,,,,,,,219.0594,220.1238,a,1,0.3902,,[],[],[],[],[],[],[],0.3902,1,220.124,220.6237,,,,,,570,MAS,AGR,150,puño,el,l,220.6237,220.6238,0.185185242,0.3574074,0,0,0,,0,26,26,119,1,,,,
,,,,,,5be73c0dc558d7f0a7e22c5b,66a626ef09d4e21e1a8894ec,6734d69cf759e8eeb4f76440,2024-11-13_10h43.13.011,Tarea de género gramatical,2024.2.2,Win32,59.52380952,,,,,,,,,,,,,,,,,,,,,,,220.6257,221.7406,a,1,0.4344,,[],[],[],[],[],[],[],0.4344,1,221.7407,222.2408,,,,,,534,MAS,AGR,150,mago,el,l,222.2408,222.2409,0.185185242,0.3574074,0,0,0,,0,27,27,83,1,,,,
,,,,,,5be73c0dc558d7f0a7e22c5b,66a626ef09d4e21e1a8894ec,6734d69cf759e8eeb4f76440,2024-11-13_10h43.13.011,Tarea de género gramatical,2024.2.2,Win32,59.52380952,,,,,,,,,,,,,,,,,,,,,,,222.2436,223.5734,a,1,0.652,,[],[],[],[],[],[],[],0.652,1,223.5735,224.0739,,,,,,515,MAS,DIS,150,rayo,la,l,224.0739,224.074,0.185185242,0.3574074,0,0,0,,0,28,28,64,1,,,,
,,,,,,5be73c0dc558d7f0a7e22c5b,66a626ef09d4e21e1a8894ec,6734d69cf759e8eeb4f76440,2024-11-13_10h43.13.011,Tarea de género gramatical,2024.2.2,Win32,59.52380952,,,,,,,,,,,,,,,,,,,,,,,224.0754,225.3243,l,1,0.5706,,[],[],[],[],[],[],[],0.5706,1,225.3245,225.8241,,,,,,627,FEM,AGR,150,broma,la,a,225.8269,225.8281,0.185185242,0.3574074,0,0,0,,0,29,29,176,1,,,,
,,,,,,5be73c0dc558d7f0a7e22c5b,66a626ef09d4e21e1a8894ec,6734d69cf759e8eeb4f76440,2024-11-13_10h43.13.011,Tarea de género gramatical,2024.2.2,Win32,59.52380952,,,,,,,,,,,,,,,,,,,,,,,225.8292,227.0739,l,1,0.568,,[],[],[],[],[],[],[],0.568,1,227.0741,227.5739,,,,,,483,FEM,AGR,150,boda,la,a,227.5739,227.5741,0.185185242,0.3574074,0,0,0,,0,30,30,32,1,,,,
,,,,,,5be73c0dc558d7f0a7e22c5b,66a626ef09d4e21e1a8894ec,6734d69cf759e8eeb4f76440,2024-11-13_10h43.13.011,Tarea de género gramatical,2024.2.2,Win32,59.52380952,,,,,,,,,,,,,,,,,,,,,,,227.5762,228.7736,a,1,0.5178,,[],[],[],[],[],[],[],0.5178,1,228.7738,229.2743,,,,,,610,MAS,CON,150,señor,,l,229.2744,229.2744,0.185185242,0.3574074,0,0,0,,0,31,31,159,1,,,,
,,,,,,5be73c0dc558d7f0a7e22c5b,66a626ef09d4e21e1a8894ec,6734d69cf759e8eeb4f76440,2024-11-13_10h43.13.011,Tarea de género gramatical,2024.2.2,Win32,59.52380952,,,,,,,,,,,,,,,,,,,,,,,229.2761,230.6234,a,1,0.6748,,[],[],[],[],[],[],[],0.6748,1,230.6237,231.1238,,,,,,516,MAS,AGR,150,muro,el,l,231.1239,231.124,0.185185242,0.3574074,0,0,0,,0,32,32,65,1,,,,
,,,,,,5be73c0dc558d7f0a7e22c5b,66a626ef09d4e21e1a8894ec,6734d69cf759e8eeb4f76440,2024-11-13_10h43.13.011,Tarea de género gramatical,2024.2.2,Win32,59.52380952,,,,,,,,,,,,,,,,,,,,,,,231.126,232.4901,a,1,0.6924,,[],[],[],[],[],[],[],0.6924,1,232.4903,232.9902,,,,,,755,MAS,DIS,150,hombre,la,l,232.9934,232.9952,0.185185242,0.3574074,0,0,0,,0,33,33,304,1,,,,
,,,,,,5be73c0dc558d7f0a7e22c5b,66a626ef09d4e21e1a8894ec,6734d69cf759e8eeb4f76440,2024-11-13_10h43.13.011,Tarea de género gramatical,2024.2.2,Win32,59.52380952,,,,,,,,,,,,,,,,,,,,,,,232.9967,234.4747,a,1,0.8009,,[],[],[],[],[],[],[],0.8009,1,234.4748,234.9743,,,,,,863,MAS,DIS,150,diario,la,l,234.9743,234.9745,0.185185242,0.3574074,0,0,0,,0,34,34,412,1,,,,
,,,,,,5be73c0dc558d7f0a7e22c5b,66a626ef09d4e21e1a8894ec,6734d69cf759e8eeb4f76440,2024-11-13_10h43.13.011,Tarea de género gramatical,2024.2.2,Win32,59.52380952,,,,,,,,,,,,,,,,,,,,,,,234.9768,236.2404,l,1,0.5943,,[],[],[],[],[],[],[],0.5943,1,236.2406,236.7411,,,,,,758,FEM,DIS,150,semana,el,a,236.7412,236.7414,0.185185242,0.3574074,0,0,0,,0,35,35,307,1,,,,
,,,,,,5be73c0dc558d7f0a7e22c5b,66a626ef09d4e21e1a8894ec,6734d69cf759e8eeb4f76440,2024-11-13_10h43.13.011,Tarea de género gramatical,2024.2.2,Win32,59.52380952,,,,,,,,,,,,,,,,,,,,,,,236.7427,237.9573,l,1,0.5432,,[],[],[],[],[],[],[],0.5432,1,237.9575,238.4567,,,,,,487,FEM,CON,150,sala,,a,238.4569,238.4569,0.185185242,0.3574074,0,0,0,,0,36,36,36,1,,,,
,,,,,,5be73c0dc558d7f0a7e22c5b,66a626ef09d4e21e1a8894ec,6734d69cf759e8eeb4f76440,2024-11-13_10h43.13.011,Tarea de género gramatical,2024.2.2,Win32,59.52380952,,,,,,,,,,,,,,,,,,,,,,,238.4588,240.0747,l,1,0.9573,,[],[],[],[],[],[],[],0.9573,1,240.0747,240.5744,,,,,,801,FEM,AGR,150,espada,la,a,240.5745,240.5746,0.185185242,0.3574074,0,0,0,,0,37,37,350,1,,,,
,,,,,,5be73c0dc558d7f0a7e22c5b,66a626ef09d4e21e1a8894ec,6734d69cf759e8eeb4f76440,2024-11-13_10h43.13.011,Tarea de género gramatical,2024.2.2,Win32,59.52380952,,,,,,,,,,,,,,,,,,,,,,,240.5763,241.9074,l,1,0.6525,,[],[],[],[],[],[],[],0.6525,1,241.9077,242.4078,,,,,,680,FEM,DIS,150,regla,el,a,242.4107,242.412,0.185185242,0.3574074,0,0,0,,0,38,38,229,1,,,,
,,,,,,5be73c0dc558d7f0a7e22c5b,66a626ef09d4e21e1a8894ec,6734d69cf759e8eeb4f76440,2024-11-13_10h43.13.011,Tarea de género gramatical,2024.2.2,Win32,59.52380952,,,,,,,,,,,,,,,,,,,,,,,242.4129,244.1402,l,1,1.0573,,[],[],[],[],[],[],[],1.0573,1,244.1404,244.6405,,,,,,530,FEM,DIS,150,vaca,el,a,244.6405,244.6406,0.185185242,0.3574074,0,0,0,,0,39,39,79,1,,,,
,,,,,,5be73c0dc558d7f0a7e22c5b,66a626ef09d4e21e1a8894ec,6734d69cf759e8eeb4f76440,2024-11-13_10h43.13.011,Tarea de género gramatical,2024.2.2,Win32,59.52380952,,,,,,,,,,,,,,,,,,,,,,,244.6428,246.1907,a,1,0.8677,,[],[],[],[],[],[],[],0.8677,1,246.1909,246.6909,,,,,,814,MAS,CON,150,viento,,l,246.691,246.6911,0.185185242,0.3574074,0,0,0,,0,40,40,363,1,,,,
,,,,,,5be73c0dc558d7f0a7e22c5b,66a626ef09d4e21e1a8894ec,6734d69cf759e8eeb4f76440,2024-11-13_10h43.13.011,Tarea de género gramatical,2024.2.2,Win32,59.52380952,,,,,,,,,,,,,,,,,,,,,,,246.6926,247.907,l,1,0.5406,,[],[],[],[],[],[],[],0.5406,1,247.9071,248.4074,,,,,,577,FEM,CON,150,cuna,,a,248.4075,248.4076,0.185185242,0.3574074,0,0,0,,0,41,41,126,1,,,,
,,,,,,5be73c0dc558d7f0a7e22c5b,66a626ef09d4e21e1a8894ec,6734d69cf759e8eeb4f76440,2024-11-13_10h43.13.011,Tarea de género gramatical,2024.2.2,Win32,59.52380952,,,,,,,,,,,,,,,,,,,,,,,248.4097,249.841,l,1,0.7549,,[],[],[],[],[],[],[],0.7549,1,249.8412,250.3414,,,,,,560,FEM,DIS,150,rosa,el,a,250.3435,250.3455,0.185185242,0.3574074,0,0,0,,0,42,42,109,1,,,,
,,,,,,5be73c0dc558d7f0a7e22c5b,66a626ef09d4e21e1a8894ec,6734d69cf759e8eeb4f76440,2024-11-13_10h43.13.011,Tarea de género gramatical,2024.2.2,Win32,59.52380952,,,,,,,,,,,,,,,,,,,,,,,250.3466,251.791,a,1,0.7775,,[],[],[],[],[],[],[],0.7775,1,251.7911,252.2913,,,,,,899,MAS,DIS,150,payaso,la,l,252.2914,252.2915,0.185185242,0.3574074,0,0,0,,0,43,43,448,1,,,,
,,,,,,5be73c0dc558d7f0a7e22c5b,66a626ef09d4e21e1a8894ec,6734d69cf759e8eeb4f76440,2024-11-13_10h43.13.011,Tarea de género gramatical,2024.2.2,Win32,59.52380952,,,,,,,,,,,,,,,,,,,,,,,252.2929,253.6408,a,1,0.6747,,[],[],[],[],[],[],[],0.6747,1,253.6409,254.1413,,,,,,718,MAS,CON,150,truco,,l,254.1415,254.1416,0.185185242,0.3574074,0,0,0,,0,44,44,267,1,,,,
,,,,,,5be73c0dc558d7f0a7e22c5b,66a626ef09d4e21e1a8894ec,6734d69cf759e8eeb4f76440,2024-11-13_10h43.13.011,Tarea de género gramatical,2024.2.2,Win32,59.52380952,,,,,,,,,,,,,,,,,,,,,,,254.143,255.3582,l,0,0.5429,,[],[],[],[],[],[],[],0.5429,0,255.3598,255.8572,,,,,,732,MAS,AGR,150,bolso,el,l,255.8573,255.8574,0.185185242,0.3574074,0,0,0,,0,45,45,281,1,,,,
,,,,,,5be73c0dc558d7f0a7e22c5b,66a626ef09d4e21e1a8894ec,6734d69cf759e8eeb4f76440,2024-11-13_10h43.13.011,Tarea de género gramatical,2024.2.2,Win32,59.52380952,,,,,,,,,,,,,,,,,,,,,,,255.8593,257.0744,l,1,0.5362,,[],[],[],[],[],[],[],0.5362,1,257.0757,257.5741,,,,,,835,FEM,CON,150,muñeca,,a,257.5743,257.5744,0.185185242,0.3574074,0,0,0,,0,46,46,384,1,,,,
,,,,,,5be73c0dc558d7f0a7e22c5b,66a626ef09d4e21e1a8894ec,6734d69cf759e8eeb4f76440,2024-11-13_10h43.13.011,Tarea de género gramatical,2024.2.2,Win32,59.52380952,,,,,,,,,,,,,,,,,,,,,,,257.5761,259.5082,a,1,1.2494,,[],[],[],[],[],[],[],1.2494,1,259.5083,260.0078,,,,,,671,MAS,DIS,150,brazo,la,l,260.0097,260.0115,0.185185242,0.3574074,0,0,0,,0,47,47,220,1,,,,
,,,,,,5be73c0dc558d7f0a7e22c5b,66a626ef09d4e21e1a8894ec,6734d69cf759e8eeb4f76440,2024-11-13_10h43.13.011,Tarea de género gramatical,2024.2.2,Win32,59.52380952,,,,,,,,,,,,,,,,,,,,,,,260.013,261.5245,l,1,0.8368,,[],[],[],[],[],[],[],0.8368,1,261.5245,262.0242,,,,,,621,FEM,AGR,150,mitad,la,a,262.0243,262.0244,0.185185242,0.3574074,0,0,0,,0,48,48,170,1,,,,
,,,,,,5be73c0dc558d7f0a7e22c5b,66a626ef09d4e21e1a8894ec,6734d69cf759e8eeb4f76440,2024-11-13_10h43.13.011,Tarea de género gramatical,2024.2.2,Win32,59.52380952,,,,,,,,,,,,,,,,,,,,,,,262.0263,263.5923,a,1,0.8843,,[],[],[],[],[],[],[],0.8843,1,263.5924,264.0915,,,,,,720,MAS,AGR,150,queso,el,l,264.0916,264.0916,0.185185242,0.3574074,0,0,0,,0,49,49,269,1,,,,
,,,,,,5be73c0dc558d7f0a7e22c5b,66a626ef09d4e21e1a8894ec,6734d69cf759e8eeb4f76440,2024-11-13_10h43.13.011,Tarea de género gramatical,2024.2.2,Win32,59.52380952,,,,,,,,,,,,,,,,,,,,,,,264.0931,265.575,l,1,0.8056,,[],[],[],[],[],[],[],0.8056,1,265.5752,266.0746,,,,,,613,FEM,CON,150,calle,,a,266.0747,266.0748,0.185185242,0.3574074,0,0,0,,0,50,50,162,1,,,,
,,,,,,5be73c0dc558d7f0a7e22c5b,66a626ef09d4e21e1a8894ec,6734d69cf759e8eeb4f76440,2024-11-13_10h43.13.011,Tarea de género gramatical,2024.2.2,Win32,59.52380952,,,,,,,,,,,,,,,,,,,,,,,266.0774,267.4914,l,1,0.7346,,[],[],[],[],[],[],[],0.7346,1,267.4916,267.9913,,,,,,740,FEM,DIS,150,cabra,el,a,267.9932,267.9947,0.185185242,0.3574074,0,0,0,,0,51,51,289,1,,,,
,,,,,,5be73c0dc558d7f0a7e22c5b,66a626ef09d4e21e1a8894ec,6734d69cf759e8eeb4f76440,2024-11-13_10h43.13.011,Tarea de género gramatical,2024.2.2,Win32,59.52380952,,,,,,,,,,,,,,,,,,,,,,,267.9957,269.4413,l,1,0.7686,,[],[],[],[],[],[],[],0.7686,1,269.4414,269.9407,,,,,,541,FEM,CON,150,hoja,,a,269.9408,269.9409,0.185185242,0.3574074,0,0,0,,0,52,52,90,1,,,,
,,,,,,5be73c0dc558d7f0a7e22c5b,66a626ef09d4e21e1a8894ec,6734d69cf759e8eeb4f76440,2024-11-13_10h43.13.011,Tarea de género gramatical,2024.2.2,Win32,59.52380952,,,,,,,,,,,,,,,,,,,,,,,269.943,271.3411,l,1,0.7202,,[],[],[],[],[],[],[],0.7202,1,271.3412,271.8409,,,,,,643,FEM,CON,150,bolsa,,a,271.841,271.8412,0.185185242,0.3574074,0,0,0,,0,53,53,192,1,,,,
,,,,,,5be73c0dc558d7f0a7e22c5b,66a626ef09d4e21e1a8894ec,6734d69cf759e8eeb4f76440,2024-11-13_10h43.13.011,Tarea de género gramatical,2024.2.2,Win32,59.52380952,,,,,,,,,,,,,,,,,,,,,,,271.8429,273.3404,a,1,0.8223,,[],[],[],[],[],[],[],0.8223,1,273.3405,273.8405,,,,,,672,MAS,AGR,150,valor,el,l,273.8405,273.8407,0.185185242,0.3574074,0,0,0,,0,54,54,221,1,,,,
,,,,,,5be73c0dc558d7f0a7e22c5b,66a626ef09d4e21e1a8894ec,6734d69cf759e8eeb4f76440,2024-11-13_10h43.13.011,Tarea de género gramatical,2024.2.2,Win32,59.52380952,,,,,,,,,,,,,,,,,,,,,,,273.8424,275.0746,l,1,0.5511,,[],[],[],[],[],[],[],0.5511,1,275.0748,275.5746,,,,,,489,FEM,AGR,150,luna,la,a,275.5746,275.5747,0.185185242,0.3574074,0,0,0,,0,55,55,38,1,,,,
,,,,,,5be73c0dc558d7f0a7e22c5b,66a626ef09d4e21e1a8894ec,6734d69cf759e8eeb4f76440,2024-11-13_10h43.13.011,Tarea de género gramatical,2024.2.2,Win32,59.52380952,,,,,,,,,,,,,,,,,,,,,,,275.5766,276.9414,a,1,0.6872,,[],[],[],[],[],[],[],0.6872,1,276.9415,277.4414,,,,,,456,MAS,AGR,150,lado,el,l,277.4441,277.4453,0.185185242,0.3574074,0,0,0,,0,56,56,5,1,,,,
,,,,,,5be73c0dc558d7f0a7e22c5b,66a626ef09d4e21e1a8894ec,6734d69cf759e8eeb4f76440,2024-11-13_10h43.13.011,Tarea de género gramatical,2024.2.2,Win32,59.52380952,,,,,,,,,,,,,,,,,,,,,,,277.4464,278.7579,a,1,0.6411,,[],[],[],[],[],[],[],0.6411,1,278.7581,279.2582,,,,,,503,MAS,DIS,150,vaso,la,l,279.2582,279.2584,0.185185242,0.3574074,0,0,0,,0,57,57,52,1,,,,
,,,,,,5be73c0dc558d7f0a7e22c5b,66a626ef09d4e21e1a8894ec,6734d69cf759e8eeb4f76440,2024-11-13_10h43.13.011,Tarea de género gramatical,2024.2.2,Win32,59.52380952,,,,,,,,,,,,,,,,,,,,,,,279.2602,280.5579,l,1,0.6186,,[],[],[],[],[],[],[],0.6186,1,280.558,281.0581,,,,,,765,FEM,AGR,150,manera,la,a,281.0582,281.0584,0.185185242,0.3574074,0,0,0,,0,58,58,314,1,,,,
,,,,,,5be73c0dc558d7f0a7e22c5b,66a626ef09d4e21e1a8894ec,6734d69cf759e8eeb4f76440,2024-11-13_10h43.13.011,Tarea de género gramatical,2024.2.2,Win32,59.52380952,,,,,,,,,,,,,,,,,,,,,,,281.0601,282.6249,a,1,0.884,,[],[],[],[],[],[],[],0.884,1,282.6251,283.1251,,,,,,527,MAS,DIS,150,pico,la,l,283.1252,283.1254,0.185185242,0.3574074,0,0,0,,0,59,59,76,1,,,,
,,,,,,5be73c0dc558d7f0a7e22c5b,66a626ef09d4e21e1a8894ec,6734d69cf759e8eeb4f76440,2024-11-13_10h43.13.011,Tarea de género gramatical,2024.2.2,Win32,59.52380952,,,,,,,,,,,,,,,,,,,,,,,283.1274,284.4579,l,1,0.6523,,[],[],[],[],[],[],[],0.6523,1,284.4582,284.9582,,,,,,885,FEM,AGR,150,niebla,la,a,284.9609,284.9623,0.185185242,0.3574074,0,0,0,,0,60,60,434,1,,,,
,,,,,,5be73c0dc558d7f0a7e22c5b,66a626ef09d4e21e1a8894ec,6734d69cf759e8eeb4f76440,2024-11-13_10h43.13.011,Tarea de género gramatical,2024.2.2,Win32,59.52380952,,,,,,,,,,,,,,,,,,,,,,,284.9634,286.4415,l,1,0.8096,,[],[],[],[],[],[],[],0.8096,1,286.4418,286.9412,,,,,,764,FEM,DIS,150,señora,el,a,286.9412,286.9414,0.185185242,0.3574074,0,0,0,,0,61,61,313,1,,,,
,,,,,,5be73c0dc558d7f0a7e22c5b,66a626ef09d4e21e1a8894ec,6734d69cf759e8eeb4f76440,2024-11-13_10h43.13.011,Tarea de género gramatical,2024.2.2,Win32,59.52380952,,,,,,,,,,,,,,,,,,,,,,,286.9426,288.1249,l,1,0.503,,[],[],[],[],[],[],[],0.503,1,288.125,288.625,,,,,,877,FEM,CON,150,agenda,,a,288.625,288.6252,0.185185242,0.3574074,0,0,0,,0,62,62,426,1,,,,
,,,,,,5be73c0dc558d7f0a7e22c5b,66a626ef09d4e21e1a8894ec,6734d69cf759e8eeb4f76440,2024-11-13_10h43.13.011,Tarea de género gramatical,2024.2.2,Win32,59.52380952,,,,,,,,,,,,,,,,,,,,,,,288.6271,289.9247,l,1,0.6173,,[],[],[],[],[],[],[],0.6173,1,289.9249,290.4244,,,,,,633,FEM,AGR,150,llave,la,a,290.4245,290.4246,0.185185242,0.3574074,0,0,0,,0,63,63,182,1,,,,
,,,,,,5be73c0dc558d7f0a7e22c5b,66a626ef09d4e21e1a8894ec,6734d69cf759e8eeb4f76440,2024-11-13_10h43.13.011,Tarea de género gramatical,2024.2.2,Win32,59.52380952,,,,,,,,,,,,,,,,,,,,,,,290.4268,291.675,a,1,0.568,,[],[],[],[],[],[],[],0.568,1,291.6751,292.1745,,,,,,852,MAS,AGR,150,ladrón,el,l,292.1747,292.1748,0.185185242,0.3574074,0,0,0,,0,64,64,401,1,,,,
,,,,,,5be73c0dc558d7f0a7e22c5b,66a626ef09d4e21e1a8894ec,6734d69cf759e8eeb4f76440,2024-11-13_10h43.13.011,Tarea de género gramatical,2024.2.2,Win32,59.52380952,,,,,,,,,,,,,,,,,,,,,,,292.1765,293.5079,l,1,0.6601,,[],[],[],[],[],[],[],0.6601,1,293.508,294.0081,,,,,,889,FEM,CON,150,toalla,,a,294.0104,294.0118,0.185185242,0.3574074,0,0,0,,0,65,65,438,1,,,,
,,,,,,5be73c0dc558d7f0a7e22c5b,66a626ef09d4e21e1a8894ec,6734d69cf759e8eeb4f76440,2024-11-13_10h43.13.011,Tarea de género gramatical,2024.2.2,Win32,59.52380952,,,,,,,,,,,,,,,,,,,,,,,294.0131,295.5419,l,1,0.8586,,[],[],[],[],[],[],[],0.8586,1,295.542,296.0418,,,,,,518,FEM,DIS,150,pata,el,a,296.0419,296.0423,0.185185242,0.3574074,0,0,0,,0,66,66,67,1,,,,
,,,,,,5be73c0dc558d7f0a7e22c5b,66a626ef09d4e21e1a8894ec,6734d69cf759e8eeb4f76440,2024-11-13_10h43.13.011,Tarea de género gramatical,2024.2.2,Win32,59.52380952,,,,,,,,,,,,,,,,,,,,,,,296.0444,298.175,a,1,1.4549,,[],[],[],[],[],[],[],1.4549,1,298.1752,298.6752,,,,,,552,MAS,AGR,150,coro,el,l,298.6754,298.6755,0.185185242,0.3574074,0,0,0,,0,67,67,101,1,,,,
,,,,,,5be73c0dc558d7f0a7e22c5b,66a626ef09d4e21e1a8894ec,6734d69cf759e8eeb4f76440,2024-11-13_10h43.13.011,Tarea de género gramatical,2024.2.2,Win32,59.52380952,,,,,,,,,,,,,,,,,,,,,,,298.6774,299.8757,l,1,0.5202,,[],[],[],[],[],[],[],0.5202,1,299.8758,300.3749,,,,,,763,FEM,CON,150,ciudad,,a,300.375,300.3752,0.185185242,0.3574074,0,0,0,,0,68,68,312,1,,,,
,,,,,,5be73c0dc558d7f0a7e22c5b,66a626ef09d4e21e1a8894ec,6734d69cf759e8eeb4f76440,2024-11-13_10h43.13.011,Tarea de género gramatical,2024.2.2,Win32,59.52380952,,,,,,,,,,,,,,,,,,,,,,,300.3772,301.7253,l,1,0.675,,[],[],[],[],[],[],[],0.675,1,301.7254,302.2252,,,,,,854,FEM,DIS,150,gloria,el,a,302.2278,302.2291,0.185185242,0.3574074,0,0,0,,0,69,69,403,1,,,,
,,,,,,5be73c0dc558d7f0a7e22c5b,66a626ef09d4e21e1a8894ec,6734d69cf759e8eeb4f76440,2024-11-13_10h43.13.011,Tarea de género gramatical,2024.2.2,Win32,59.52380952,,,,,,,,,,,,,,,,,,,,,,,302.2305,303.5085,a,1,0.6,,[],[],[],[],[],[],[],0.6,1,303.5086,304.0089,,,,,,612,MAS,AGR,150,miedo,el,l,304.009,304.0091,0.185185242,0.3574074,0,0,0,,0,70,70,161,1,,,,
,,,,,,5be73c0dc558d7f0a7e22c5b,66a626ef09d4e21e1a8894ec,6734d69cf759e8eeb4f76440,2024-11-13_10h43.13.011,Tarea de género gramatical,2024.2.2,Win32,59.52380952,,,,,,,,,,,,,,,,,,,,,,,304.0106,305.6084,a,1,0.9249,,[],[],[],[],[],[],[],0.9249,1,305.6086,306.1086,,,,,,784,MAS,CON,150,ataque,,l,306.1087,306.1088,0.185185242,0.3574074,0,0,0,,0,71,71,333,1,,,,
,,,,,,5be73c0dc558d7f0a7e22c5b,66a626ef09d4e21e1a8894ec,6734d69cf759e8eeb4f76440,2024-11-13_10h43.13.011,Tarea de género gramatical,2024.2.2,Win32,59.52380952,,,,,,,,,,,,,,,,,,,,,,,306.1112,307.4252,l,1,0.6356,,[],[],[],[],[],[],[],0.6356,1,307.4254,307.9253,,,,,,554,FEM,DIS,150,vela,el,a,307.9255,307.9257,0.185185242,0.3574074,0,0,0,,0,72,72,103,1,,,,
,,,,,,5be73c0dc558d7f0a7e22c5b,66a626ef09d4e21e1a8894ec,6734d69cf759e8eeb4f76440,2024-11-13_10h43.13.011,Tarea de género gramatical,2024.2.2,Win32,59.52380952,,,,,,,,,,,,,,,,,,,,,,,307.9281,309.4417,a,1,0.8376,,[],[],[],[],[],[],[],0.8376,1,309.4418,309.9418,,,,,,810,MAS,AGR,150,puente,el,l,309.9419,309.9421,0.185185242,0.3574074,0,0,0,,0,73,73,359,1,,,,
,,,,,,5be73c0dc558d7f0a7e22c5b,66a626ef09d4e21e1a8894ec,6734d69cf759e8eeb4f76440,2024-11-13_10h43.13.011,Tarea de género gramatical,2024.2.2,Win32,59.52380952,,,,,,,,,,,,,,,,,,,,,,,309.9438,311.8586,l,1,1.2371,,[],[],[],[],[],[],[],1.2371,1,311.8587,312.3586,,,,,,669,FEM,AGR,150,costa,la,a,312.3611,312.3626,0.185185242,0.3574074,0,0,0,,0,74,74,218,1,,,,
,,,,,,5be73c0dc558d7f0a7e22c5b,66a626ef09d4e21e1a8894ec,6734d69cf759e8eeb4f76440,2024-11-13_10h43.13.011,Tarea de género gramatical,2024.2.2,Win32,59.52380952,,,,,,,,,,,,,,,,,,,,,,,312.3638,313.5749,l,1,0.5339,,[],[],[],[],[],[],[],0.5339,1,313.5751,314.0752,,,,,,679,FEM,CON,150,celda,,a,314.0753,314.0754,0.185185242,0.3574074,0,0,0,,0,75,75,228,1,,,,
,,,,,,5be73c0dc558d7f0a7e22c5b,66a626ef09d4e21e1a8894ec,6734d69cf759e8eeb4f76440,2024-11-13_10h43.13.011,Tarea de género gramatical,2024.2.2,Win32,59.52380952,,,,,,,,,,,,,,,,,,,,,,,314.0783,315.2585,l,1,0.4998,,[],[],[],[],[],[],[],0.4998,1,315.2587,315.7591,,,,,,459,FEM,AGR,150,mamá,la,a,315.7592,315.7594,0.185185242,0.3574074,0,0,0,,0,76,76,8,1,,,,
,,,,,,5be73c0dc558d7f0a7e22c5b,66a626ef09d4e21e1a8894ec,6734d69cf759e8eeb4f76440,2024-11-13_10h43.13.011,Tarea de género gramatical,2024.2.2,Win32,59.52380952,,,,,,,,,,,,,,,,,,,,,,,315.7606,317.3922,l,1,0.9531,,[],[],[],[],[],[],[],0.9531,1,317.3924,317.8919,,,,,,602,FEM,DIS,150,gente,el,a,317.892,317.8922,0.185185242,0.3574074,0,0,0,,0,77,77,151,1,,,,
,,,,,,5be73c0dc558d7f0a7e22c5b,66a626ef09d4e21e1a8894ec,6734d69cf759e8eeb4f76440,2024-11-13_10h43.13.011,Tarea de género gramatical,2024.2.2,Win32,59.52380952,,,,,,,,,,,,,,,,,,,,,,,317.8945,319.075,l,1,0.5023,,[],[],[],[],[],[],[],0.5023,1,319.0751,319.576,,,,,,615,FEM,AGR,150,amiga,la,a,319.5778,319.5793,0.185185242,0.3574074,0,0,0,,0,78,78,164,1,,,,
,,,,,,5be73c0dc558d7f0a7e22c5b,66a626ef09d4e21e1a8894ec,6734d69cf759e8eeb4f76440,2024-11-13_10h43.13.011,Tarea de género gramatical,2024.2.2,Win32,59.52380952,,,,,,,,,,,,,,,,,,,,,,,319.5805,320.7584,l,1,0.502,,[],[],[],[],[],[],[],0.502,1,320.7586,321.2588,,,,,,859,FEM,CON,150,moneda,,a,321.2588,321.259,0.185185242,0.3574074,0,0,0,,0,79,79,408,1,,,,
,,,,,,5be73c0dc558d7f0a7e22c5b,66a626ef09d4e21e1a8894ec,6734d69cf759e8eeb4f76440,2024-11-13_10h43.13.011,Tarea de género gramatical,2024.2.2,Win32,59.52380952,,,,,,,,,,,,,,,,,,,,,,,321.2609,322.4261,l,1,0.4852,,[],[],[],[],[],[],[],0.4852,1,322.4263,322.9254,,,,,,565,FEM,CON,150,seda,,a,322.9256,322.9257,0.185185242,0.3574074,0,0,0,,0,80,80,114,1,,,,
,,,,,,5be73c0dc558d7f0a7e22c5b,66a626ef09d4e21e1a8894ec,6734d69cf759e8eeb4f76440,2024-11-13_10h43.13.011,Tarea de género gramatical,2024.2.2,Win32,59.52380952,,,,,,,,,,,,,,,,,,,,,,,322.9278,324.0254,a,1,0.4175,,[],[],[],[],[],[],[],0.4175,1,324.0257,324.5254,,,,,,772,MAS,CON,150,minuto,,l,324.5256,324.5257,0.185185242,0.3574074,0,0,0,,0,81,81,321,1,,,,
,,,,,,5be73c0dc558d7f0a7e22c5b,66a626ef09d4e21e1a8894ec,6734d69cf759e8eeb4f76440,2024-11-13_10h43.13.011,Tarea de género gramatical,2024.2.2,Win32,59.52380952,,,,,,,,,,,,,,,,,,,,,,,324.5281,325.7761,l,1,0.5698,,[],[],[],[],[],[],[],0.5698,1,325.7763,326.276,,,,,,711,FEM,AGR,150,cueva,la,a,326.276,326.2763,0.185185242,0.3574074,0,0,0,,0,82,82,260,1,,,,
,,,,,,5be73c0dc558d7f0a7e22c5b,66a626ef09d4e21e1a8894ec,6734d69cf759e8eeb4f76440,2024-11-13_10h43.13.011,Tarea de género gramatical,2024.2.2,Win32,59.52380952,,,,,,,,,,,,,,,,,,,,,,,326.2779,327.6758,a,1,0.7175,,[],[],[],[],[],[],[],0.7175,1,327.676,328.176,,,,,,684,MAS,AGR,150,héroe,el,l,328.1779,328.1791,0.185185242,0.3574074,0,0,0,,0,83,83,233,1,,,,
,,,,,,5be73c0dc558d7f0a7e22c5b,66a626ef09d4e21e1a8894ec,6734d69cf759e8eeb4f76440,2024-11-13_10h43.13.011,Tarea de género gramatical,2024.2.2,Win32,59.52380952,,,,,,,,,,,,,,,,,,,,,,,328.1802,329.3924,a,1,0.5389,,[],[],[],[],[],[],[],0.5389,1,329.3925,329.8923,,,,,,510,MAS,AGR,150,tono,el,l,329.8924,329.8925,0.185185242,0.3574074,0,0,0,,0,84,84,59,1,,,,
,,,,,,5be73c0dc558d7f0a7e22c5b,66a626ef09d4e21e1a8894ec,6734d69cf759e8eeb4f76440,2024-11-13_10h43.13.011,Tarea de género gramatical,2024.2.2,Win32,59.52380952,,,,,,,,,,,,,,,,,,,,,,,329.8943,331.0757,l,1,0.5005,,[],[],[],[],[],[],[],0.5005,1,331.0758,331.5755,,,,,,663,FEM,AGR,150,magia,la,a,331.5755,331.5757,0.185185242,0.3574074,0,0,0,,0,85,85,212,1,,,,
,,,,,,5be73c0dc558d7f0a7e22c5b,66a626ef09d4e21e1a8894ec,6734d69cf759e8eeb4f76440,2024-11-13_10h43.13.011,Tarea de género gramatical,2024.2.2,Win32,59.52380952,,,,,,,,,,,,,,,,,,,,,,,331.5783,332.9086,a,1,0.6548,,[],[],[],[],[],[],[],0.6548,1,332.9088,333.4093,,,,,,664,MAS,CON,150,fondo,,l,333.4094,333.4096,0.185185242,0.3574074,0,0,0,,0,86,86,213,1,,,,
,,,,,,5be73c0dc558d7f0a7e22c5b,66a626ef09d4e21e1a8894ec,6734d69cf759e8eeb4f76440,2024-11-13_10h43.13.011,Tarea de género gramatical,2024.2.2,Win32,59.52380952,,,,,,,,,,,,,,,,,,,,,,,333.4117,334.4417,l,1,0.3575,,[],[],[],[],[],[],[],0.3575,1,334.4419,334.9421,,,,,,745,FEM,CON,150,grasa,,a,334.9443,334.9457,0.185185242,0.3574074,0,0,0,,0,87,87,294,1,,,,
,,,,,,5be73c0dc558d7f0a7e22c5b,66a626ef09d4e21e1a8894ec,6734d69cf759e8eeb4f76440,2024-11-13_10h43.13.011,Tarea de género gramatical,2024.2.2,Win32,59.52380952,,,,,,,,,,,,,,,,,,,,,,,334.9469,336.2089,l,1,0.585,,[],[],[],[],[],[],[],0.585,1,336.209,336.7093,,,,,,524,FEM,DIS,150,flor,el,a,336.7094,336.7095,0.185185242,0.3574074,0,0,0,,0,88,88,73,1,,,,
,,,,,,5be73c0dc558d7f0a7e22c5b,66a626ef09d4e21e1a8894ec,6734d69cf759e8eeb4f76440,2024-11-13_10h43.13.011,Tarea de género gramatical,2024.2.2,Win32,59.52380952,,,,,,,,,,,,,,,,,,,,,,,336.7111,337.9422,l,1,0.5581,,[],[],[],[],[],[],[],0.5581,1,337.9425,338.4424,,,,,,836,FEM,DIS,150,sombra,el,a,338.4425,338.4425,0.185185242,0.3574074,0,0,0,,0,89,89,385,1,,,,
,,,,,,5be73c0dc558d7f0a7e22c5b,66a626ef09d4e21e1a8894ec,6734d69cf759e8eeb4f76440,2024-11-13_10h43.13.011,Tarea de género gramatical,2024.2.2,Win32,59.52380952,,,,,,,,,,,,,,,,,,,,,,,338.4452,339.6092,l,1,0.4847,,[],[],[],[],[],[],[],0.4847,1,339.6094,340.1093,,,,,,597,FEM,AGR,150,grúa,la,a,340.1093,340.1094,0.185185242,0.3574074,0,0,0,,0,90,90,146,1,,,,
,,,,,,5be73c0dc558d7f0a7e22c5b,66a626ef09d4e21e1a8894ec,6734d69cf759e8eeb4f76440,2024-11-13_10h43.13.011,Tarea de género gramatical,2024.2.2,Win32,59.52380952,,,,,,,,,,,,,,,,,,,,,,,340.1107,341.4423,l,1,0.6518,,[],[],[],[],[],[],[],0.6518,1,341.4425,341.9426,,,,,,494,FEM,DIS,150,zona,el,a,341.9427,341.9428,0.185185242,0.3574074,0,0,0,,0,91,91,43,1,,,,
,,,,,,5be73c0dc558d7f0a7e22c5b,66a626ef09d4e21e1a8894ec,6734d69cf759e8eeb4f76440,2024-11-13_10h43.13.011,Tarea de género gramatical,2024.2.2,Win32,59.52380952,,,,,,,,,,,,,,,,,,,,,,,341.9447,343.2593,a,1,0.6347,,[],[],[],[],[],[],[],0.6347,1,343.2595,343.7597,,,,,,676,MAS,CON,150,color,,l,343.7614,343.7628,0.185185242,0.3574074,0,0,0,,0,92,92,225,1,,,,
,,,,,,5be73c0dc558d7f0a7e22c5b,66a626ef09d4e21e1a8894ec,6734d69cf759e8eeb4f76440,2024-11-13_10h43.13.011,Tarea de género gramatical,2024.2.2,Win32,59.52380952,,,,,,,,,,,,,,,,,,,,,,,343.7642,344.8924,l,1,0.4521,,[],[],[],[],[],[],[],0.4521,1,344.8926,345.3928,,,,,,873,FEM,AGR,150,poesía,la,a,345.3928,345.393,0.185185242,0.3574074,0,0,0,,0,93,93,422,1,,,,
,,,,,,5be73c0dc558d7f0a7e22c5b,66a626ef09d4e21e1a8894ec,6734d69cf759e8eeb4f76440,2024-11-13_10h43.13.011,Tarea de género gramatical,2024.2.2,Win32,59.52380952,,,,,,,,,,,,,,,,,,,,,,,345.3945,346.6427,a,1,0.5675,,[],[],[],[],[],[],[],0.5675,1,346.6428,347.1421,,,,,,724,MAS,CON,150,motor,,l,347.1422,347.1424,0.185185242,0.3574074,0,0,0,,0,94,94,273,1,,,,
,,,,,,5be73c0dc558d7f0a7e22c5b,66a626ef09d4e21e1a8894ec,6734d69cf759e8eeb4f76440,2024-11-13_10h43.13.011,Tarea de género gramatical,2024.2.2,Win32,59.52380952,,,,,,,,,,,,,,,,,,,,,,,347.144,348.3593,a,1,0.5373,,[],[],[],[],[],[],[],0.5373,1,348.3594,348.8592,,,,,,588,MAS,AGR,150,luto,el,l,348.8593,348.8594,0.185185242,0.3574074,0,0,0,,0,95,95,137,1,,,,
,,,,,,5be73c0dc558d7f0a7e22c5b,66a626ef09d4e21e1a8894ec,6734d69cf759e8eeb4f76440,2024-11-13_10h43.13.011,Tarea de género gramatical,2024.2.2,Win32,59.52380952,,,,,,,,,,,,,,,,,,,,,,,348.861,350.1591,a,1,0.6191,,[],[],[],[],[],[],[],0.6191,1,350.1592,350.6592,,,,,,556,MAS,CON,150,test,,l,350.6616,350.663,0.185185242,0.3574074,0,0,0,,0,96,96,105,1,,,,
,,,,,,5be73c0dc558d7f0a7e22c5b,66a626ef09d4e21e1a8894ec,6734d69cf759e8eeb4f76440,2024-11-13_10h43.13.011,Tarea de género gramatical,2024.2.2,Win32,59.52380952,,,,,,,,,,,,,,,,,,,,,,,350.6642,352.0426,a,1,0.7037,,[],[],[],[],[],[],[],0.7037,1,352.0427,352.5431,,,,,,551,MAS,DIS,150,giro,la,l,352.5432,352.5432,0.185185242,0.3574074,0,0,0,,0,97,97,100,1,,,,
,,,,,,5be73c0dc558d7f0a7e22c5b,66a626ef09d4e21e1a8894ec,6734d69cf759e8eeb4f76440,2024-11-13_10h43.13.011,Tarea de género gramatical,2024.2.2,Win32,59.52380952,,,,,,,,,,,,,,,,,,,,,,,352.5446,354.0094,l,1,0.7838,,[],[],[],[],[],[],[],0.7838,1,354.0095,354.5094,,,,,,789,FEM,AGR,150,salida,la,a,354.5095,354.5096,0.185185242,0.3574074,0,0,0,,0,98,98,338,1,,,,
,,,,,,5be73c0dc558d7f0a7e22c5b,66a626ef09d4e21e1a8894ec,6734d69cf759e8eeb4f76440,2024-11-13_10h43.13.011,Tarea de género gramatical,2024.2.2,Win32,59.52380952,,,,,,,,,,,,,,,,,,,,,,,354.5116,355.8597,a,1,0.668,,[],[],[],[],[],[],[],0.668,1,355.86,356.3596,,,,,,569,MAS,DIS,150,mito,la,l,356.3596,356.3598,0.185185242,0.3574074,0,0,0,,0,99,99,118,1,,,,
,,,,,,5be73c0dc558d7f0a7e22c5b,66a626ef09d4e21e1a8894ec,6734d69cf759e8eeb4f76440,2024-11-13_10h43.13.011,Tarea de género gramatical,2024.2.2,Win32,59.52380952,,,,,,,,,,,,,,,,,,,,,,,356.3623,357.5759,l,0,0.5342,,[],[],[],[],[],[],[],0.5342,0,357.5773,358.0758,,,,,,666,MAS,AGR,150,éxito,el,l,358.0759,358.0761,0.185185242,0.3574074,0,0,0,,0,100,100,215,1,,,,
,,,,,,5be73c0dc558d7f0a7e22c5b,66a626ef09d4e21e1a8894ec,6734d69cf759e8eeb4f76440,2024-11-13_10h43.13.011,Tarea de género gramatical,2024.2.2,Win32,59.52380952,,,,,,,,,,,,,,,,,,,,,,,358.0782,359.5926,a,1,0.8428,,[],[],[],[],[],[],[],0.8428,1,359.5959,360.0932,,,,,,874,MAS,CON,150,rastro,,l,360.0957,360.0969,0.185185242,0.3574074,0,0,0,,0,101,101,423,1,,,,
,,,,,,5be73c0dc558d7f0a7e22c5b,66a626ef09d4e21e1a8894ec,6734d69cf759e8eeb4f76440,2024-11-13_10h43.13.011,Tarea de género gramatical,2024.2.2,Win32,59.52380952,,,,,,,,,,,,,,,,,,,,,,,360.098,361.7087,a,1,0.9314,,[],[],[],[],[],[],[],0.9314,1,361.7088,362.2083,,,,,,600,MAS,AGR,150,mozo,el,l,362.2083,362.2084,0.185185242,0.3574074,0,0,0,,0,102,102,149,1,,,,
,,,,,,5be73c0dc558d7f0a7e22c5b,66a626ef09d4e21e1a8894ec,6734d69cf759e8eeb4f76440,2024-11-13_10h43.13.011,Tarea de género gramatical,2024.2.2,Win32,59.52380952,,,,,,,,,,,,,,,,,,,,,,,362.2093,363.443,l,1,0.5535,,[],[],[],[],[],[],[],0.5535,1,363.443,363.9425,,,,,,697,FEM,CON,150,frase,,a,363.9425,363.9427,0.185185242,0.3574074,0,0,0,,0,103,103,246,1,,,,
,,,,,,5be73c0dc558d7f0a7e22c5b,66a626ef09d4e21e1a8894ec,6734d69cf759e8eeb4f76440,2024-11-13_10h43.13.011,Tarea de género gramatical,2024.2.2,Win32,59.52380952,,,,,,,,,,,,,,,,,,,,,,,363.9436,365.2263,a,1,0.6193,,[],[],[],[],[],[],[],0.6193,1,365.2265,365.7262,,,,,,754,MAS,CON,150,tiempo,,l,365.7263,365.7265,0.185185242,0.3574074,0,0,0,,0,104,104,303,1,,,,
,,,,,,5be73c0dc558d7f0a7e22c5b,66a626ef09d4e21e1a8894ec,6734d69cf759e8eeb4f76440,2024-11-13_10h43.13.011,Tarea de género gramatical,2024.2.2,Win32,59.52380952,,,,,,,,,,,,,,,,,,,,,,,365.7283,367.3433,l,1,0.9347,,[],[],[],[],[],[],[],0.9347,1,367.3434,367.8425,,,,,,471,FEM,AGR,150,boca,la,a,367.845,367.8465,0.185185242,0.3574074,0,0,0,,0,105,105,20,1,,,,
,,,,,,5be73c0dc558d7f0a7e22c5b,66a626ef09d4e21e1a8894ec,6734d69cf759e8eeb4f76440,2024-11-13_10h43.13.011,Tarea de género gramatical,2024.2.2,Win32,59.52380952,,,,,,,,,,,,,,,,,,,,,,,367.8477,369.2095,a,1,0.6848,,[],[],[],[],[],[],[],0.6848,1,369.2097,369.7102,,,,,,778,MAS,CON,150,asunto,,l,369.7102,369.7103,0.185185242,0.3574074,0,0,0,,0,106,106,327,1,,,,
,,,,,,5be73c0dc558d7f0a7e22c5b,66a626ef09d4e21e1a8894ec,6734d69cf759e8eeb4f76440,2024-11-13_10h43.13.011,Tarea de género gramatical,2024.2.2,Win32,59.52380952,,,,,,,,,,,,,,,,,,,,,,,369.7119,370.9429,a,1,0.5584,,[],[],[],[],[],[],[],0.5584,1,370.943,371.443,,,,,,538,MAS,CON,150,pavo,,l,371.443,371.4432,0.185185242,0.3574074,0,0,0,,0,107,107,87,1,,,,
,,,,,,5be73c0dc558d7f0a7e22c5b,66a626ef09d4e21e1a8894ec,6734d69cf759e8eeb4f76440,2024-11-13_10h43.13.011,Tarea de género gramatical,2024.2.2,Win32,59.52380952,,,,,,,,,,,,,,,,,,,,,,,371.4447,372.9594,a,1,0.8344,,[],[],[],[],[],[],[],0.8344,1,372.9596,373.4597,,,,,,798,MAS,AGR,150,anillo,el,l,373.4597,373.4599,0.185185242,0.3574074,0,0,0,,0,108,108,347,1,,,,
,,,,,,5be73c0dc558d7f0a7e22c5b,66a626ef09d4e21e1a8894ec,6734d69cf759e8eeb4f76440,2024-11-13_10h43.13.011,Tarea de género gramatical,2024.2.2,Win32,59.52380952,,,,,,,,,,,,,,,,,,,,,,,373.4616,375.2592,a,1,1.1242,,[],[],[],[],[],[],[],1.1242,1,375.2593,375.7597,,,,,,898,MAS,CON,150,aceite,,l,375.7598,375.7599,0.185185242,0.3574074,0,0,0,,0,109,109,447,1,,,,
,,,,,,5be73c0dc558d7f0a7e22c5b,66a626ef09d4e21e1a8894ec,6734d69cf759e8eeb4f76440,2024-11-13_10h43.13.011,Tarea de género gramatical,2024.2.2,Win32,59.52380952,,,,,,,,,,,,,,,,,,,,,,,375.7612,376.877,a,1,0.4373,,[],[],[],[],[],[],[],0.4373,1,376.8771,377.3763,,,,,,804,MAS,AGR,150,camión,el,l,377.3784,377.3798,0.185185242,0.3574074,0,0,0,,0,110,110,353,1,,,,
,,,,,,5be73c0dc558d7f0a7e22c5b,66a626ef09d4e21e1a8894ec,6734d69cf759e8eeb4f76440,2024-11-13_10h43.13.011,Tarea de género gramatical,2024.2.2,Win32,59.52380952,,,,,,,,,,,,,,,,,,,,,,,377.3818,378.7103,l,1,0.651,,[],[],[],[],[],[],[],0.651,1,378.7104,379.2104,,,,,,650,FEM,DIS,150,silla,el,a,379.2105,379.2106,0.185185242,0.3574074,0,0,0,,0,111,111,199,1,,,,
,,,,,,5be73c0dc558d7f0a7e22c5b,66a626ef09d4e21e1a8894ec,6734d69cf759e8eeb4f76440,2024-11-13_10h43.13.011,Tarea de género gramatical,2024.2.2,Win32,59.52380952,,,,,,,,,,,,,,,,,,,,,,,379.2129,380.3597,l,1,0.4685,,[],[],[],[],[],[],[],0.4685,1,380.3598,380.8597,,,,,,501,FEM,AGR,150,bala,la,a,380.8598,380.86,0.185185242,0.3574074,0,0,0,,0,112,112,50,1,,,,
,,,,,,5be73c0dc558d7f0a7e22c5b,66a626ef09d4e21e1a8894ec,6734d69cf759e8eeb4f76440,2024-11-13_10h43.13.011,Tarea de género gramatical,2024.2.2,Win32,59.52380952,,,,,,,,,,,,,,,,,,,,,,,380.862,382.2097,l,1,0.6706,,[],[],[],[],[],[],[],0.6706,1,382.2098,382.7105,,,,,,482,FEM,DIS,150,caja,el,a,382.7106,382.7107,0.185185242,0.3574074,0,0,0,,0,113,113,31,1,,,,
,,,,,,5be73c0dc558d7f0a7e22c5b,66a626ef09d4e21e1a8894ec,6734d69cf759e8eeb4f76440,2024-11-13_10h43.13.011,Tarea de género gramatical,2024.2.2,Win32,59.52380952,,,,,,,,,,,,,,,,,,,,,,,382.7125,383.8762,a,1,0.4905,,[],[],[],[],[],[],[],0.4905,1,383.8764,384.3766,,,,,,726,MAS,AGR,150,ritmo,el,l,384.3791,384.3804,0.185185242,0.3574074,0,0,0,,0,114,114,275,1,,,,
,,,,,,5be73c0dc558d7f0a7e22c5b,66a626ef09d4e21e1a8894ec,6734d69cf759e8eeb4f76440,2024-11-13_10h43.13.011,Tarea de género gramatical,2024.2.2,Win32,59.52380952,,,,,,,,,,,,,,,,,,,,,,,384.3814,385.6601,a,1,0.6025,,[],[],[],[],[],[],[],0.6025,1,385.6603,386.1598,,,,,,628,MAS,CON,150,punto,,l,386.16,386.1601,0.185185242,0.3574074,0,0,0,,0,115,115,177,1,,,,
,,,,,,5be73c0dc558d7f0a7e22c5b,66a626ef09d4e21e1a8894ec,6734d69cf759e8eeb4f76440,2024-11-13_10h43.13.011,Tarea de género gramatical,2024.2.2,Win32,59.52380952,,,,,,,,,,,,,,,,,,,,,,,386.1619,387.3262,l,1,0.4858,,[],[],[],[],[],[],[],0.4858,1,387.3264,387.8267,,,,,,639,FEM,AGR,150,pista,la,a,387.8269,387.827,0.185185242,0.3574074,0,0,0,,0,116,116,188,1,,,,
,,,,,,5be73c0dc558d7f0a7e22c5b,66a626ef09d4e21e1a8894ec,6734d69cf759e8eeb4f76440,2024-11-13_10h43.13.011,Tarea de género gramatical,2024.2.2,Win32,59.52380952,,,,,,,,,,,,,,,,,,,,,,,387.8292,388.8932,l,1,0.3872,,[],[],[],[],[],[],[],0.3872,1,388.8934,389.3931,,,,,,783,FEM,AGR,150,locura,la,a,389.3932,389.3933,0.185185242,0.3574074,0,0,0,,0,117,117,332,1,,,,
,,,,,,5be73c0dc558d7f0a7e22c5b,66a626ef09d4e21e1a8894ec,6734d69cf759e8eeb4f76440,2024-11-13_10h43.13.011,Tarea de género gramatical,2024.2.2,Win32,59.52380952,,,,,,,,,,,,,,,,,,,,,,,389.3953,390.71,a,1,0.6349,,[],[],[],[],[],[],[],0.6349,1,390.7102,391.2099,,,,,,790,MAS,CON,150,pasado,,l,391.21,391.2101,0.185185242,0.3574074,0,0,0,,0,118,118,339,1,,,,
,,,,,,5be73c0dc558d7f0a7e22c5b,66a626ef09d4e21e1a8894ec,6734d69cf759e8eeb4f76440,2024-11-13_10h43.13.011,Tarea de género gramatical,2024.2.2,Win32,59.52380952,,,,,,,,,,,,,,,,,,,,,,,391.2123,392.4937,l,1,0.6023,,[],[],[],[],[],[],[],0.6023,1,392.4939,392.9934,,,,,,620,FEM,DIS,150,carta,el,a,392.9957,392.997,0.185185242,0.3574074,0,0,0,,0,119,119,169,1,,,,
,,,,,,5be73c0dc558d7f0a7e22c5b,66a626ef09d4e21e1a8894ec,6734d69cf759e8eeb4f76440,2024-11-13_10h43.13.011,Tarea de género gramatical,2024.2.2,Win32,59.52380952,,,,,,,,,,,,,,,,,,,,,,,392.9983,394.5603,a,1,0.8903,,[],[],[],[],[],[],[],0.8903,1,394.5604,395.06,,,,,,869,MAS,DIS,150,cuento,la,l,395.0601,395.0602,0.185185242,0.3574074,0,0,0,,0,120,120,418,1,,,,
,,,,,,5be73c0dc558d7f0a7e22c5b,66a626ef09d4e21e1a8894ec,6734d69cf759e8eeb4f76440,2024-11-13_10h43.13.011,Tarea de género gramatical,2024.2.2,Win32,59.52380952,,,,,,,,,,,,,,,,,,,,,,,395.0623,396.2431,l,1,0.5024,,[],[],[],[],[],[],[],0.5024,1,396.2433,396.7439,,,,,,667,FEM,CON,150,tarea,,a,396.744,396.7442,0.185185242,0.3574074,0,0,0,,0,121,121,216,1,,,,
,,,,,,5be73c0dc558d7f0a7e22c5b,66a626ef09d4e21e1a8894ec,6734d69cf759e8eeb4f76440,2024-11-13_10h43.13.011,Tarea de género gramatical,2024.2.2,Win32,59.52380952,,,,,,,,,,,,,,,,,,,,,,,396.7457,398.1429,l,1,0.7257,,[],[],[],[],[],[],[],0.7257,1,398.1431,398.6436,,,,,,800,FEM,DIS,150,imagen,el,a,398.6437,398.6438,0.185185242,0.3574074,0,0,0,,0,122,122,349,1,,,,
,,,,,,5be73c0dc558d7f0a7e22c5b,66a626ef09d4e21e1a8894ec,6734d69cf759e8eeb4f76440,2024-11-13_10h43.13.011,Tarea de género gramatical,2024.2.2,Win32,59.52380952,,,,,,,,,,,,,,,,,,,,,,,398.6448,399.8437,l,1,0.5191,,[],[],[],[],[],[],[],0.5191,1,399.8439,400.3435,,,,,,829,FEM,CON,150,granja,,a,400.3462,400.3474,0.185185242,0.3574074,0,0,0,,0,123,123,378,1,,,,
,,,,,,5be73c0dc558d7f0a7e22c5b,66a626ef09d4e21e1a8894ec,6734d69cf759e8eeb4f76440,2024-11-13_10h43.13.011,Tarea de género gramatical,2024.2.2,Win32,59.52380952,,,,,,,,,,,,,,,,,,,,,,,400.3486,401.4934,l,1,0.4709,,[],[],[],[],[],[],[],0.4709,1,401.4936,401.9931,,,,,,493,FEM,CON,150,nena,,a,401.9932,401.9934,0.185185242,0.3574074,0,0,0,,0,124,124,42,1,,,,
,,,,,,5be73c0dc558d7f0a7e22c5b,66a626ef09d4e21e1a8894ec,6734d69cf759e8eeb4f76440,2024-11-13_10h43.13.011,Tarea de género gramatical,2024.2.2,Win32,59.52380952,,,,,,,,,,,,,,,,,,,,,,,401.9949,403.4102,a,1,0.7336,,[],[],[],[],[],[],[],0.7336,1,403.4104,403.9106,,,,,,815,MAS,DIS,150,código,la,l,403.9106,403.9107,0.185185242,0.3574074,0,0,0,,0,125,125,364,1,,,,
,,,,,,5be73c0dc558d7f0a7e22c5b,66a626ef09d4e21e1a8894ec,6734d69cf759e8eeb4f76440,2024-11-13_10h43.13.011,Tarea de género gramatical,2024.2.2,Win32,59.52380952,,,,,,,,,,,,,,,,,,,,,,,403.912,405.0931,a,1,0.5092,,[],[],[],[],[],[],[],0.5092,1,405.0931,405.5936,,,,,,820,MAS,CON,150,seguro,,l,405.5938,405.5939,0.185185242,0.3574074,0,0,0,,0,126,126,369,1,,,,
,,,,,,5be73c0dc558d7f0a7e22c5b,66a626ef09d4e21e1a8894ec,6734d69cf759e8eeb4f76440,2024-11-13_10h43.13.011,Tarea de género gramatical,2024.2.2,Win32,59.52380952,,,,,,,,,,,,,,,,,,,,,,,405.5957,406.7606,l,1,0.4858,,[],[],[],[],[],[],[],0.4858,1,406.7607,407.2601,,,,,,681,FEM,AGR,150,bruja,la,a,407.2603,407.2604,0.185185242,0.3574074,0,0,0,,0,127,127,230,1,,,,
,,,,,,5be73c0dc558d7f0a7e22c5b,66a626ef09d4e21e1a8894ec,6734d69cf759e8eeb4f76440,2024-11-13_10h43.13.011,Tarea de género gramatical,2024.2.2,Win32,59.52380952,,,,,,,,,,,,,,,,,,,,,,,407.2621,408.3936,l,1,0.4557,,[],[],[],[],[],[],[],0.4557,1,408.3937,408.894,,,,,,723,FEM,AGR,150,tarta,la,a,408.8959,408.8976,0.185185242,0.3574074,0,0,0,,0,128,128,272,1,,,,
,,,,,,5be73c0dc558d7f0a7e22c5b,66a626ef09d4e21e1a8894ec,6734d69cf759e8eeb4f76440,2024-11-13_10h43.13.011,Tarea de género gramatical,2024.2.2,Win32,59.52380952,,,,,,,,,,,,,,,,,,,,,,,408.8986,410.2106,l,1,0.6355,,[],[],[],[],[],[],[],0.6355,1,410.2109,410.7104,,,,,,735,FEM,AGR,150,mafia,la,a,410.7104,410.7106,0.185185242,0.3574074,0,0,0,,0,129,129,284,1,,,,
,,,,,,5be73c0dc558d7f0a7e22c5b,66a626ef09d4e21e1a8894ec,6734d69cf759e8eeb4f76440,2024-11-13_10h43.13.011,Tarea de género gramatical,2024.2.2,Win32,59.52380952,,,,,,,,,,,,,,,,,,,,,,,410.7122,411.8269,a,1,0.4431,,[],[],[],[],[],[],[],0.4431,1,411.8272,412.3271,,,,,,894,MAS,AGR,150,límite,el,l,412.3271,412.3272,0.185185242,0.3574074,0,0,0,,0,130,130,443,1,,,,
,,,,,,5be73c0dc558d7f0a7e22c5b,66a626ef09d4e21e1a8894ec,6734d69cf759e8eeb4f76440,2024-11-13_10h43.13.011,Tarea de género gramatical,2024.2.2,Win32,59.52380952,,,,,,,,,,,,,,,,,,,,,,,412.3289,413.6432,a,1,0.6349,,[],[],[],[],[],[],[],0.6349,1,413.6435,414.1441,,,,,,484,MAS,CON,150,gato,,l,414.1442,414.1443,0.185185242,0.3574074,0,0,0,,0,131,131,33,1,,,,
,,,,,,5be73c0dc558d7f0a7e22c5b,66a626ef09d4e21e1a8894ec,6734d69cf759e8eeb4f76440,2024-11-13_10h43.13.011,Tarea de género gramatical,2024.2.2,Win32,59.52380952,,,,,,,,,,,,,,,,,,,,,,,414.1458,415.3431,a,1,0.5244,,[],[],[],[],[],[],[],0.5244,1,415.3433,415.8438,,,,,,462,MAS,AGR,150,plan,el,l,415.8464,415.8481,0.185185242,0.3574074,0,0,0,,0,132,132,11,1,,,,
,,,,,,5be73c0dc558d7f0a7e22c5b,66a626ef09d4e21e1a8894ec,6734d69cf759e8eeb4f76440,2024-11-13_10h43.13.011,Tarea de género gramatical,2024.2.2,Win32,59.52380952,,,,,,,,,,,,,,,,,,,,,,,415.8493,417.1439,a,1,0.6205,,[],[],[],[],[],[],[],0.6205,1,417.144,417.6438,,,,,,797,MAS,DIS,150,cuello,la,l,417.6439,417.644,0.185185242,0.3574074,0,0,0,,0,133,133,346,1,,,,
,,,,,,5be73c0dc558d7f0a7e22c5b,66a626ef09d4e21e1a8894ec,6734d69cf759e8eeb4f76440,2024-11-13_10h43.13.011,Tarea de género gramatical,2024.2.2,Win32,59.52380952,,,,,,,,,,,,,,,,,,,,,,,417.6461,419.0276,l,1,0.7022,,[],[],[],[],[],[],[],0.7022,1,419.0277,419.5279,,,,,,542,FEM,DIS,150,masa,el,a,419.5279,419.5281,0.185185242,0.3574074,0,0,0,,0,134,134,91,1,,,,
,,,,,,5be73c0dc558d7f0a7e22c5b,66a626ef09d4e21e1a8894ec,6734d69cf759e8eeb4f76440,2024-11-13_10h43.13.011,Tarea de género gramatical,2024.2.2,Win32,59.52380952,,,,,,,,,,,,,,,,,,,,,,,419.5294,420.727,l,1,0.5178,,[],[],[],[],[],[],[],0.5178,1,420.7271,421.227,,,,,,555,FEM,AGR,150,jefa,la,a,421.227,421.2272,0.185185242,0.3574074,0,0,0,,0,135,135,104,1,,,,
,,,,,,5be73c0dc558d7f0a7e22c5b,66a626ef09d4e21e1a8894ec,6734d69cf759e8eeb4f76440,2024-11-13_10h43.13.011,Tarea de género gramatical,2024.2.2,Win32,59.52380952,,,,,,,,,,,,,,,,,,,,,,,421.229,422.3607,a,1,0.4534,,[],[],[],[],[],[],[],0.4534,1,422.3608,422.8603,,,,,,826,MAS,CON,150,efecto,,l,422.8604,422.8605,0.185185242,0.3574074,0,0,0,,0,136,136,375,1,,,,
,,,,,,5be73c0dc558d7f0a7e22c5b,66a626ef09d4e21e1a8894ec,6734d69cf759e8eeb4f76440,2024-11-13_10h43.13.011,Tarea de género gramatical,2024.2.2,Win32,59.52380952,,,,,,,,,,,,,,,,,,,,,,,422.8626,424.1439,l,1,0.601,,[],[],[],[],[],[],[],0.601,1,424.1441,424.6436,,,,,,872,FEM,DIS,150,rutina,el,a,424.6457,424.6473,0.185185242,0.3574074,0,0,0,,0,137,137,421,1,,,,
,,,,,,5be73c0dc558d7f0a7e22c5b,66a626ef09d4e21e1a8894ec,6734d69cf759e8eeb4f76440,2024-11-13_10h43.13.011,Tarea de género gramatical,2024.2.2,Win32,59.52380952,,,,,,,,,,,,,,,,,,,,,,,424.6483,425.8778,l,1,0.5529,,[],[],[],[],[],[],[],0.5529,1,425.8779,426.3775,,,,,,769,FEM,CON,150,sangre,,a,426.3776,426.3777,0.185185242,0.3574074,0,0,0,,0,138,138,318,1,,,,
,,,,,,5be73c0dc558d7f0a7e22c5b,66a626ef09d4e21e1a8894ec,6734d69cf759e8eeb4f76440,2024-11-13_10h43.13.011,Tarea de género gramatical,2024.2.2,Win32,59.52380952,,,,,,,,,,,,,,,,,,,,,,,426.3793,427.544,a,1,0.4914,,[],[],[],[],[],[],[],0.4914,1,427.5442,428.0443,,,,,,707,MAS,DIS,150,pecho,la,l,428.0444,428.0445,0.185185242,0.3574074,0,0,0,,0,139,139,256,1,,,,
,,,,,,5be73c0dc558d7f0a7e22c5b,66a626ef09d4e21e1a8894ec,6734d69cf759e8eeb4f76440,2024-11-13_10h43.13.011,Tarea de género gramatical,2024.2.2,Win32,59.52380952,,,,,,,,,,,,,,,,,,,,,,,428.0459,429.3605,a,1,0.6371,,[],[],[],[],[],[],[],0.6371,1,429.3606,429.8605,,,,,,694,MAS,CON,150,hielo,,l,429.8606,429.8607,0.185185242,0.3574074,0,0,0,,0,140,140,243,1,,,,
,,,,,,5be73c0dc558d7f0a7e22c5b,66a626ef09d4e21e1a8894ec,6734d69cf759e8eeb4f76440,2024-11-13_10h43.13.011,Tarea de género gramatical,2024.2.2,Win32,59.52380952,,,,,,,,,,,,,,,,,,,,,,,429.8625,431.0772,a,1,0.5415,,[],[],[],[],[],[],[],0.5415,1,431.0773,431.5769,,,,,,856,MAS,CON,150,premio,,l,431.5792,431.5807,0.185185242,0.3574074,0,0,0,,0,141,141,405,1,,,,
,,,,,,5be73c0dc558d7f0a7e22c5b,66a626ef09d4e21e1a8894ec,6734d69cf759e8eeb4f76440,2024-11-13_10h43.13.011,Tarea de género gramatical,2024.2.2,Win32,59.52380952,,,,,,,,,,,,,,,,,,,,,,,431.5819,432.9272,a,1,0.6682,,[],[],[],[],[],[],[],0.6682,1,432.9273,433.4267,,,,,,827,MAS,DIS,150,jardín,la,l,433.4267,433.4268,0.185185242,0.3574074,0,0,0,,0,142,142,376,1,,,,
,,,,,,5be73c0dc558d7f0a7e22c5b,66a626ef09d4e21e1a8894ec,6734d69cf759e8eeb4f76440,2024-11-13_10h43.13.011,Tarea de género gramatical,2024.2.2,Win32,59.52380952,,,,,,,,,,,,,,,,,,,,,,,433.428,434.7437,a,1,0.6496,,[],[],[],[],[],[],[],0.6496,1,434.7437,435.2441,,,,,,522,MAS,AGR,150,hoyo,el,l,435.2442,435.2445,0.185185242,0.3574074,0,0,0,,0,143,143,71,1,,,,
,,,,,,5be73c0dc558d7f0a7e22c5b,66a626ef09d4e21e1a8894ec,6734d69cf759e8eeb4f76440,2024-11-13_10h43.13.011,Tarea de género gramatical,2024.2.2,Win32,59.52380952,,,,,,,,,,,,,,,,,,,,,,,435.247,436.394,l,1,0.4669,,[],[],[],[],[],[],[],0.4669,1,436.3942,436.8942,,,,,,470,FEM,DIS,150,ropa,el,a,436.8942,436.8944,0.185185242,0.3574074,0,0,0,,0,144,144,19,1,,,,
,,,,,,5be73c0dc558d7f0a7e22c5b,66a626ef09d4e21e1a8894ec,6734d69cf759e8eeb4f76440,2024-11-13_10h43.13.011,Tarea de género gramatical,2024.2.2,Win32,59.52380952,,,,,,,,,,,,,,,,,,,,,,,436.8963,438.1777,a,1,0.6015,,[],[],[],[],[],[],[],0.6015,1,438.1778,438.6774,,,,,,618,MAS,AGR,150,sitio,el,l,438.6774,438.6775,0.185185242,0.3574074,0,0,0,,0,145,145,167,1,,,,
,,,,,,5be73c0dc558d7f0a7e22c5b,66a626ef09d4e21e1a8894ec,6734d69cf759e8eeb4f76440,2024-11-13_10h43.13.011,Tarea de género gramatical,2024.2.2,Win32,59.52380952,,,,,,,,,,,,,,,,,,,,,,,438.6794,439.844,a,1,0.4865,,[],[],[],[],[],[],[],0.4865,1,439.8441,440.3441,,,,,,642,MAS,AGR,150,grupo,el,l,440.3464,440.3478,0.185185242,0.3574074,0,0,0,,0,146,146,191,1,,,,
,,,,,,5be73c0dc558d7f0a7e22c5b,66a626ef09d4e21e1a8894ec,6734d69cf759e8eeb4f76440,2024-11-13_10h43.13.011,Tarea de género gramatical,2024.2.2,Win32,59.52380952,,,,,,,,,,,,,,,,,,,,,,,440.3489,441.6271,a,1,0.6038,,[],[],[],[],[],[],[],0.6038,1,441.6272,442.1273,,,,,,514,MAS,CON,150,saco,,l,442.1274,442.1275,0.185185242,0.3574074,0,0,0,,0,147,147,63,1,,,,
,,,,,,5be73c0dc558d7f0a7e22c5b,66a626ef09d4e21e1a8894ec,6734d69cf759e8eeb4f76440,2024-11-13_10h43.13.011,Tarea de género gramatical,2024.2.2,Win32,59.52380952,,,,,,,,,,,,,,,,,,,,,,,442.1295,443.2608,l,1,0.46,,[],[],[],[],[],[],[],0.46,1,443.2609,443.7606,,,,,,823,FEM,CON,150,lluvia,,a,443.7606,443.7609,0.185185242,0.3574074,0,0,0,,0,148,148,372,1,,,,
,,,,,,5be73c0dc558d7f0a7e22c5b,66a626ef09d4e21e1a8894ec,6734d69cf759e8eeb4f76440,2024-11-13_10h43.13.011,Tarea de género gramatical,2024.2.2,Win32,59.52380952,,,,,,,,,,,,,,,,,,,,,,,443.7624,444.9608,a,1,0.5182,,[],[],[],[],[],[],[],0.5182,1,444.961,445.4607,,,,,,756,MAS,AGR,150,dinero,el,l,445.4607,445.4609,0.185185242,0.3574074,0,0,0,,0,149,149,305,1,,,,
,,,,,,5be73c0dc558d7f0a7e22c5b,66a626ef09d4e21e1a8894ec,6734d69cf759e8eeb4f76440,2024-11-13_10h43.13.011,Tarea de género gramatical,2024.2.2,Win32,59.52380952,,,,,,,,,,,,,,,,,,,,,,,445.463,446.7108,a,1,0.571,,[],[],[],[],[],[],[],0.571,1,446.711,447.2117,,,,,,785,MAS,DIS,150,montón,la,l,447.2135,498.3962,0.185185242,0.3574074,0,0,0,space,0,150,150,334,1,51.1565,,,
,,,,,,5be73c0dc558d7f0a7e22c5b,66a626ef09d4e21e1a8894ec,6734d69cf759e8eeb4f76440,2024-11-13_10h43.13.011,Tarea de género gramatical,2024.2.2,Win32,59.52380952,,,,,,,,,,,,,,,,,,,,,,,498.3982,499.867,l,1,0.8008,,[],[],[],[],[],[],[],0.8008,1,499.8672,500.3668,,,,,,596,FEM,DIS,150,lana,el,a,500.3669,500.367,0.185185242,0.3574074,0,0,0,,0,151,151,145,1,,,,
,,,,,,5be73c0dc558d7f0a7e22c5b,66a626ef09d4e21e1a8894ec,6734d69cf759e8eeb4f76440,2024-11-13_10h43.13.011,Tarea de género gramatical,2024.2.2,Win32,59.52380952,,,,,,,,,,,,,,,,,,,,,,,500.3684,501.7794,a,1,0.722,,[],[],[],[],[],[],[],0.722,1,501.7795,502.2791,,,,,,605,MAS,DIS,150,mundo,la,l,502.2792,502.2793,0.185185242,0.3574074,0,0,0,,0,152,152,154,1,,,,
,,,,,,5be73c0dc558d7f0a7e22c5b,66a626ef09d4e21e1a8894ec,6734d69cf759e8eeb4f76440,2024-11-13_10h43.13.011,Tarea de género gramatical,2024.2.2,Win32,59.52380952,,,,,,,,,,,,,,,,,,,,,,,502.2807,503.4336,a,1,0.4943,,[],[],[],[],[],[],[],0.4943,1,503.4337,503.933,,,,,,706,MAS,CON,150,techo,,l,503.933,503.9331,0.185185242,0.3574074,0,0,0,,0,153,153,255,1,,,,
,,,,,,5be73c0dc558d7f0a7e22c5b,66a626ef09d4e21e1a8894ec,6734d69cf759e8eeb4f76440,2024-11-13_10h43.13.011,Tarea de género gramatical,2024.2.2,Win32,59.52380952,,,,,,,,,,,,,,,,,,,,,,,503.9347,505.2124,l,1,0.6064,,[],[],[],[],[],[],[],0.6064,1,505.2125,505.7124,,,,,,753,FEM,AGR,150,maldad,la,a,505.7125,505.7126,0.185185242,0.3574074,0,0,0,,0,154,154,302,1,,,,
,,,,,,5be73c0dc558d7f0a7e22c5b,66a626ef09d4e21e1a8894ec,6734d69cf759e8eeb4f76440,2024-11-13_10h43.13.011,Tarea de género gramatical,2024.2.2,Win32,59.52380952,,,,,,,,,,,,,,,,,,,,,,,505.7142,506.8628,l,1,0.4756,,[],[],[],[],[],[],[],0.4756,1,506.8631,507.3667,,,,,,495,FEM,AGR,150,isla,la,a,507.3687,507.3699,0.185185242,0.3574074,0,0,0,,0,155,155,44,1,,,,
,,,,,,5be73c0dc558d7f0a7e22c5b,66a626ef09d4e21e1a8894ec,6734d69cf759e8eeb4f76440,2024-11-13_10h43.13.011,Tarea de género gramatical,2024.2.2,Win32,59.52380952,,,,,,,,,,,,,,,,,,,,,,,507.371,508.6505,a,1,0.6011,,[],[],[],[],[],[],[],0.6011,1,508.6506,509.149,,,,,,743,MAS,DIS,150,patio,la,l,509.149,509.149,0.185185242,0.3574074,0,0,0,,0,156,156,292,1,,,,
,,,,,,5be73c0dc558d7f0a7e22c5b,66a626ef09d4e21e1a8894ec,6734d69cf759e8eeb4f76440,2024-11-13_10h43.13.011,Tarea de género gramatical,2024.2.2,Win32,59.52380952,,,,,,,,,,,,,,,,,,,,,,,509.1499,510.3671,l,1,0.5345,,[],[],[],[],[],[],[],0.5345,1,510.3673,510.867,,,,,,811,FEM,CON,150,oferta,,a,510.8671,510.8673,0.185185242,0.3574074,0,0,0,,0,157,157,360,1,,,,
,,,,,,5be73c0dc558d7f0a7e22c5b,66a626ef09d4e21e1a8894ec,6734d69cf759e8eeb4f76440,2024-11-13_10h43.13.011,Tarea de género gramatical,2024.2.2,Win32,59.52380952,,,,,,,,,,,,,,,,,,,,,,,510.8689,512.1675,l,1,0.6176,,[],[],[],[],[],[],[],0.6176,1,512.1676,512.6629,,,,,,848,FEM,DIS,150,hierba,el,a,512.6629,512.6631,0.185185242,0.3574074,0,0,0,,0,158,158,397,1,,,,
,,,,,,5be73c0dc558d7f0a7e22c5b,66a626ef09d4e21e1a8894ec,6734d69cf759e8eeb4f76440,2024-11-13_10h43.13.011,Tarea de género gramatical,2024.2.2,Win32,59.52380952,,,,,,,,,,,,,,,,,,,,,,,512.6646,513.8343,a,1,0.5116,,[],[],[],[],[],[],[],0.5116,1,513.8345,514.3336,,,,,,479,MAS,DIS,150,frío,la,l,514.3352,514.3363,0.185185242,0.3574074,0,0,0,,0,159,159,28,1,,,,
,,,,,,5be73c0dc558d7f0a7e22c5b,66a626ef09d4e21e1a8894ec,6734d69cf759e8eeb4f76440,2024-11-13_10h43.13.011,Tarea de género gramatical,2024.2.2,Win32,59.52380952,,,,,,,,,,,,,,,,,,,,,,,514.3373,515.7005,a,1,0.6854,,[],[],[],[],[],[],[],0.6854,1,515.7006,516.1963,,,,,,730,MAS,CON,150,salón,,l,516.1964,516.1965,0.185185242,0.3574074,0,0,0,,0,160,160,279,1,,,,
,,,,,,5be73c0dc558d7f0a7e22c5b,66a626ef09d4e21e1a8894ec,6734d69cf759e8eeb4f76440,2024-11-13_10h43.13.011,Tarea de género gramatical,2024.2.2,Win32,59.52380952,,,,,,,,,,,,,,,,,,,,,,,516.1983,517.4121,a,1,0.538,,[],[],[],[],[],[],[],0.538,1,517.4123,517.9127,,,,,,701,MAS,DIS,150,dueño,la,l,517.9128,517.913,0.185185242,0.3574074,0,0,0,,0,161,161,250,1,,,,
,,,,,,5be73c0dc558d7f0a7e22c5b,66a626ef09d4e21e1a8894ec,6734d69cf759e8eeb4f76440,2024-11-13_10h43.13.011,Tarea de género gramatical,2024.2.2,Win32,59.52380952,,,,,,,,,,,,,,,,,,,,,,,517.9146,519.2126,l,1,0.6268,,[],[],[],[],[],[],[],0.6268,1,519.2127,519.7172,,,,,,818,FEM,DIS,150,gracia,el,a,519.7173,519.7174,0.185185242,0.3574074,0,0,0,,0,162,162,367,1,,,,
,,,,,,5be73c0dc558d7f0a7e22c5b,66a626ef09d4e21e1a8894ec,6734d69cf759e8eeb4f76440,2024-11-13_10h43.13.011,Tarea de género gramatical,2024.2.2,Win32,59.52380952,,,,,,,,,,,,,,,,,,,,,,,519.7193,521.0007,a,1,0.6109,,[],[],[],[],[],[],[],0.6109,1,521.0008,521.5003,,,,,,616,MAS,CON,150,coche,,l,521.5004,521.5005,0.185185242,0.3574074,0,0,0,,0,163,163,165,1,,,,
,,,,,,5be73c0dc558d7f0a7e22c5b,66a626ef09d4e21e1a8894ec,6734d69cf759e8eeb4f76440,2024-11-13_10h43.13.011,Tarea de género gramatical,2024.2.2,Win32,59.52380952,,,,,,,,,,,,,,,,,,,,,,,521.502,522.9795,a,1,0.7889,,[],[],[],[],[],[],[],0.7889,1,522.9796,523.4838,,,,,,846,MAS,AGR,150,tesoro,el,l,523.4858,523.4871,0.185185242,0.3574074,0,0,0,,0,164,164,395,1,,,,
,,,,,,5be73c0dc558d7f0a7e22c5b,66a626ef09d4e21e1a8894ec,6734d69cf759e8eeb4f76440,2024-11-13_10h43.13.011,Tarea de género gramatical,2024.2.2,Win32,59.52380952,,,,,,,,,,,,,,,,,,,,,,,523.4883,525.0012,l,1,0.845,,[],[],[],[],[],[],[],0.845,1,525.0013,525.4961,,,,,,525,FEM,AGR,150,caza,la,a,525.4962,525.4964,0.185185242,0.3574074,0,0,0,,0,165,165,74,1,,,,
,,,,,,5be73c0dc558d7f0a7e22c5b,66a626ef09d4e21e1a8894ec,6734d69cf759e8eeb4f76440,2024-11-13_10h43.13.011,Tarea de género gramatical,2024.2.2,Win32,59.52380952,,,,,,,,,,,,,,,,,,,,,,,525.4979,526.715,l,1,0.542,,[],[],[],[],[],[],[],0.542,1,526.7151,527.217,,,,,,847,FEM,CON,150,cuerda,,a,527.2171,527.2172,0.185185242,0.3574074,0,0,0,,0,166,166,396,1,,,,
,,,,,,5be73c0dc558d7f0a7e22c5b,66a626ef09d4e21e1a8894ec,6734d69cf759e8eeb4f76440,2024-11-13_10h43.13.011,Tarea de género gramatical,2024.2.2,Win32,59.52380952,,,,,,,,,,,,,,,,,,,,,,,527.2187,528.5961,a,1,0.6908,,[],[],[],[],[],[],[],0.6908,1,528.5963,529.1006,,,,,,598,MAS,CON,150,surf,,l,529.1006,529.1008,0.185185242,0.3574074,0,0,0,,0,167,167,147,1,,,,
,,,,,,5be73c0dc558d7f0a7e22c5b,66a626ef09d4e21e1a8894ec,6734d69cf759e8eeb4f76440,2024-11-13_10h43.13.011,Tarea de género gramatical,2024.2.2,Win32,59.52380952,,,,,,,,,,,,,,,,,,,,,,,529.1023,530.4628,a,1,0.6743,,[],[],[],[],[],[],[],0.6743,1,530.4629,530.9628,,,,,,766,MAS,CON,150,cuerpo,,l,530.965,530.9664,0.185185242,0.3574074,0,0,0,,0,168,168,315,1,,,,
,,,,,,5be73c0dc558d7f0a7e22c5b,66a626ef09d4e21e1a8894ec,6734d69cf759e8eeb4f76440,2024-11-13_10h43.13.011,Tarea de género gramatical,2024.2.2,Win32,59.52380952,,,,,,,,,,,,,,,,,,,,,,,530.9676,532.2013,l,1,0.5678,,[],[],[],[],[],[],[],0.5678,1,532.2014,532.7006,,,,,,595,FEM,CON,150,bota,,a,532.7007,532.7008,0.185185242,0.3574074,0,0,0,,0,169,169,144,1,,,,
,,,,,,5be73c0dc558d7f0a7e22c5b,66a626ef09d4e21e1a8894ec,6734d69cf759e8eeb4f76440,2024-11-13_10h43.13.011,Tarea de género gramatical,2024.2.2,Win32,59.52380952,,,,,,,,,,,,,,,,,,,,,,,532.7028,533.9843,l,1,0.601,,[],[],[],[],[],[],[],0.601,1,533.9845,534.4838,,,,,,637,FEM,CON,150,lista,,a,534.4838,534.4839,0.185185242,0.3574074,0,0,0,,0,170,170,186,1,,,,
,,,,,,5be73c0dc558d7f0a7e22c5b,66a626ef09d4e21e1a8894ec,6734d69cf759e8eeb4f76440,2024-11-13_10h43.13.011,Tarea de género gramatical,2024.2.2,Win32,59.52380952,,,,,,,,,,,,,,,,,,,,,,,534.4858,535.7004,l,1,0.5344,,[],[],[],[],[],[],[],0.5344,1,535.7006,536.2008,,,,,,830,FEM,DIS,150,madera,el,a,536.2009,536.2011,0.185185242,0.3574074,0,0,0,,0,171,171,379,1,,,,
,,,,,,5be73c0dc558d7f0a7e22c5b,66a626ef09d4e21e1a8894ec,6734d69cf759e8eeb4f76440,2024-11-13_10h43.13.011,Tarea de género gramatical,2024.2.2,Win32,59.52380952,,,,,,,,,,,,,,,,,,,,,,,536.2027,537.3125,l,1,0.434,,[],[],[],[],[],[],[],0.434,1,537.3127,537.8172,,,,,,585,FEM,AGR,150,raíz,la,a,537.8173,537.8175,0.185185242,0.3574074,0,0,0,,0,172,172,134,1,,,,
,,,,,,5be73c0dc558d7f0a7e22c5b,66a626ef09d4e21e1a8894ec,6734d69cf759e8eeb4f76440,2024-11-13_10h43.13.011,Tarea de género gramatical,2024.2.2,Win32,59.52380952,,,,,,,,,,,,,,,,,,,,,,,537.8191,538.9345,l,1,0.4342,,[],[],[],[],[],[],[],0.4342,1,538.9346,539.4298,,,,,,865,FEM,CON,150,cabina,,a,539.4319,539.4331,0.185185242,0.3574074,0,0,0,,0,173,173,414,1,,,,
,,,,,,5be73c0dc558d7f0a7e22c5b,66a626ef09d4e21e1a8894ec,6734d69cf759e8eeb4f76440,2024-11-13_10h43.13.011,Tarea de género gramatical,2024.2.2,Win32,59.52380952,,,,,,,,,,,,,,,,,,,,,,,539.4344,541.0627,a,1,0.9579,,[],[],[],[],[],[],[],0.9579,1,541.0629,541.5508,,,,,,888,MAS,AGR,150,tanque,el,l,541.5509,541.5511,0.185185242,0.3574074,0,0,0,,0,174,174,437,1,,,,
,,,,,,5be73c0dc558d7f0a7e22c5b,66a626ef09d4e21e1a8894ec,6734d69cf759e8eeb4f76440,2024-11-13_10h43.13.011,Tarea de género gramatical,2024.2.2,Win32,59.52380952,,,,,,,,,,,,,,,,,,,,,,,541.5528,542.8172,a,1,0.5843,,[],[],[],[],[],[],[],0.5843,1,542.8174,543.3173,,,,,,528,MAS,AGR,150,oído,el,l,543.3174,543.3178,0.185185242,0.3574074,0,0,0,,0,175,175,77,1,,,,
,,,,,,5be73c0dc558d7f0a7e22c5b,66a626ef09d4e21e1a8894ec,6734d69cf759e8eeb4f76440,2024-11-13_10h43.13.011,Tarea de género gramatical,2024.2.2,Win32,59.52380952,,,,,,,,,,,,,,,,,,,,,,,543.3196,544.9632,a,1,0.9578,,[],[],[],[],[],[],[],0.9578,1,544.9632,545.4664,,,,,,491,MAS,DIS,150,bote,la,l,545.4664,545.4665,0.185185242,0.3574074,0,0,0,,0,176,176,40,1,,,,
,,,,,,5be73c0dc558d7f0a7e22c5b,66a626ef09d4e21e1a8894ec,6734d69cf759e8eeb4f76440,2024-11-13_10h43.13.011,Tarea de género gramatical,2024.2.2,Win32,59.52380952,,,,,,,,,,,,,,,,,,,,,,,545.4681,546.9009,a,1,0.7674,,[],[],[],[],[],[],[],0.7674,1,546.9012,547.4007,,,,,,587,MAS,DIS,150,coco,la,l,547.4027,547.4043,0.185185242,0.3574074,0,0,0,,0,177,177,136,1,,,,
,,,,,,5be73c0dc558d7f0a7e22c5b,66a626ef09d4e21e1a8894ec,6734d69cf759e8eeb4f76440,2024-11-13_10h43.13.011,Tarea de género gramatical,2024.2.2,Win32,59.52380952,,,,,,,,,,,,,,,,,,,,,,,547.4055,548.8013,l,1,0.7175,,[],[],[],[],[],[],[],0.7175,1,548.8015,549.3005,,,,,,674,FEM,DIS,150,arena,el,a,549.3006,549.3008,0.185185242,0.3574074,0,0,0,,0,178,178,223,1,,,,
,,,,,,5be73c0dc558d7f0a7e22c5b,66a626ef09d4e21e1a8894ec,6734d69cf759e8eeb4f76440,2024-11-13_10h43.13.011,Tarea de género gramatical,2024.2.2,Win32,59.52380952,,,,,,,,,,,,,,,,,,,,,,,549.3024,550.6343,l,1,0.6506,,[],[],[],[],[],[],[],0.6506,1,550.6345,551.1302,,,,,,890,FEM,DIS,150,patada,el,a,551.1303,551.1305,0.185185242,0.3574074,0,0,0,,0,179,179,439,1,,,,
,,,,,,5be73c0dc558d7f0a7e22c5b,66a626ef09d4e21e1a8894ec,6734d69cf759e8eeb4f76440,2024-11-13_10h43.13.011,Tarea de género gramatical,2024.2.2,Win32,59.52380952,,,,,,,,,,,,,,,,,,,,,,,551.1322,552.2797,l,0,0.4778,,[],[],[],[],[],[],[],0.4778,0,552.2808,552.7683,,,,,,725,MAS,DIS,150,disco,la,l,552.7683,552.7685,0.185185242,0.3574074,0,0,0,,0,180,180,274,1,,,,
,,,,,,5be73c0dc558d7f0a7e22c5b,66a626ef09d4e21e1a8894ec,6734d69cf759e8eeb4f76440,2024-11-13_10h43.13.011,Tarea de género gramatical,2024.2.2,Win32,59.52380952,,,,,,,,,,,,,,,,,,,,,,,552.7713,554.302,a,1,0.861,,[],[],[],[],[],[],[],0.861,1,554.3039,554.7964,,,,,,492,MAS,AGR,150,show,el,l,554.7965,554.7967,0.185185242,0.3574074,0,0,0,,0,181,181,41,1,,,,
,,,,,,5be73c0dc558d7f0a7e22c5b,66a626ef09d4e21e1a8894ec,6734d69cf759e8eeb4f76440,2024-11-13_10h43.13.011,Tarea de género gramatical,2024.2.2,Win32,59.52380952,,,,,,,,,,,,,,,,,,,,,,,554.7983,556.3682,a,1,0.9011,,[],[],[],[],[],[],[],0.9011,1,556.3684,556.8677,,,,,,834,MAS,AGR,150,pedazo,el,l,556.8693,556.8704,0.185185242,0.3574074,0,0,0,,0,182,182,383,1,,,,
,,,,,,5be73c0dc558d7f0a7e22c5b,66a626ef09d4e21e1a8894ec,6734d69cf759e8eeb4f76440,2024-11-13_10h43.13.011,Tarea de género gramatical,2024.2.2,Win32,59.52380952,,,,,,,,,,,,,,,,,,,,,,,556.8715,558.0844,l,1,0.5338,,[],[],[],[],[],[],[],0.5338,1,558.0846,558.5841,,,,,,591,FEM,AGR,150,cera,la,a,558.5842,558.5843,0.185185242,0.3574074,0,0,0,,0,183,183,140,1,,,,
,,,,,,5be73c0dc558d7f0a7e22c5b,66a626ef09d4e21e1a8894ec,6734d69cf759e8eeb4f76440,2024-11-13_10h43.13.011,Tarea de género gramatical,2024.2.2,Win32,59.52380952,,,,,,,,,,,,,,,,,,,,,,,558.586,560.1848,a,1,0.9283,,[],[],[],[],[],[],[],0.9283,1,560.1849,560.6836,,,,,,652,MAS,CON,150,honor,,l,560.6837,560.6838,0.185185242,0.3574074,0,0,0,,0,184,184,201,1,,,,
,,,,,,5be73c0dc558d7f0a7e22c5b,66a626ef09d4e21e1a8894ec,6734d69cf759e8eeb4f76440,2024-11-13_10h43.13.011,Tarea de género gramatical,2024.2.2,Win32,59.52380952,,,,,,,,,,,,,,,,,,,,,,,560.6852,561.9468,l,1,0.5858,,[],[],[],[],[],[],[],0.5858,1,561.947,562.4508,,,,,,645,FEM,AGR,150,pared,la,a,562.4508,562.4509,0.185185242,0.3574074,0,0,0,,0,185,185,194,1,,,,
,,,,,,5be73c0dc558d7f0a7e22c5b,66a626ef09d4e21e1a8894ec,6734d69cf759e8eeb4f76440,2024-11-13_10h43.13.011,Tarea de género gramatical,2024.2.2,Win32,59.52380952,,,,,,,,,,,,,,,,,,,,,,,562.4522,563.7637,a,1,0.6197,,[],[],[],[],[],[],[],0.6197,1,563.764,564.2678,,,,,,557,MAS,DIS,150,cubo,la,l,564.2696,564.2707,0.185185242,0.3574074,0,0,0,,0,186,186,106,1,,,,
,,,,,,5be73c0dc558d7f0a7e22c5b,66a626ef09d4e21e1a8894ec,6734d69cf759e8eeb4f76440,2024-11-13_10h43.13.011,Tarea de género gramatical,2024.2.2,Win32,59.52380952,,,,,,,,,,,,,,,,,,,,,,,564.2719,565.6018,a,1,0.6518,,[],[],[],[],[],[],[],0.6518,1,565.602,566.1011,,,,,,887,MAS,DIS,150,hombro,la,l,566.1012,566.1014,0.185185242,0.3574074,0,0,0,,0,187,187,436,1,,,,
,,,,,,5be73c0dc558d7f0a7e22c5b,66a626ef09d4e21e1a8894ec,6734d69cf759e8eeb4f76440,2024-11-13_10h43.13.011,Tarea de género gramatical,2024.2.2,Win32,59.52380952,,,,,,,,,,,,,,,,,,,,,,,566.1033,567.3968,a,1,0.6064,,[],[],[],[],[],[],[],0.6064,1,567.397,567.9013,,,,,,659,MAS,DIS,150,banco,la,l,567.9013,567.9016,0.185185242,0.3574074,0,0,0,,0,188,188,208,1,,,,
,,,,,,5be73c0dc558d7f0a7e22c5b,66a626ef09d4e21e1a8894ec,6734d69cf759e8eeb4f76440,2024-11-13_10h43.13.011,Tarea de género gramatical,2024.2.2,Win32,59.52380952,,,,,,,,,,,,,,,,,,,,,,,567.903,569.1187,l,1,0.5344,,[],[],[],[],[],[],[],0.5344,1,569.1188,569.618,,,,,,841,FEM,CON,150,altura,,a,569.618,569.6182,0.185185242,0.3574074,0,0,0,,0,189,189,390,1,,,,
,,,,,,5be73c0dc558d7f0a7e22c5b,66a626ef09d4e21e1a8894ec,6734d69cf759e8eeb4f76440,2024-11-13_10h43.13.011,Tarea de género gramatical,2024.2.2,Win32,59.52380952,,,,,,,,,,,,,,,,,,,,,,,569.6199,570.8513,l,1,0.5507,,[],[],[],[],[],[],[],0.5507,1,570.8514,571.3469,,,,,,739,FEM,CON,150,tabla,,a,571.347,571.3471,0.185185242,0.3574074,0,0,0,,0,190,190,288,1,,,,
,,,,,,5be73c0dc558d7f0a7e22c5b,66a626ef09d4e21e1a8894ec,6734d69cf759e8eeb4f76440,2024-11-13_10h43.13.011,Tarea de género gramatical,2024.2.2,Win32,59.52380952,,,,,,,,,,,,,,,,,,,,,,,571.3485,572.6186,a,1,0.6012,,[],[],[],[],[],[],[],0.6012,1,572.6187,573.1178,,,,,,708,MAS,AGR,150,polvo,el,l,573.1197,573.1208,0.185185242,0.3574074,0,0,0,,0,191,191,257,1,,,,
,,,,,,5be73c0dc558d7f0a7e22c5b,66a626ef09d4e21e1a8894ec,6734d69cf759e8eeb4f76440,2024-11-13_10h43.13.011,Tarea de género gramatical,2024.2.2,Win32,59.52380952,,,,,,,,,,,,,,,,,,,,,,,573.1219,574.3518,a,1,0.5616,,[],[],[],[],[],[],[],0.5616,1,574.352,574.8514,,,,,,504,MAS,AGR,150,humo,el,l,574.8515,574.8516,0.185185242,0.3574074,0,0,0,,0,192,192,53,1,,,,
,,,,,,5be73c0dc558d7f0a7e22c5b,66a626ef09d4e21e1a8894ec,6734d69cf759e8eeb4f76440,2024-11-13_10h43.13.011,Tarea de género gramatical,2024.2.2,Win32,59.52380952,,,,,,,,,,,,,,,,,,,,,,,574.8529,576.1019,l,1,0.5791,,[],[],[],[],[],[],[],0.5791,1,576.102,576.6014,,,,,,698,FEM,DIS,150,letra,el,a,576.6014,576.6016,0.185185242,0.3574074,0,0,0,,0,193,193,247,1,,,,
,,,,,,5be73c0dc558d7f0a7e22c5b,66a626ef09d4e21e1a8894ec,6734d69cf759e8eeb4f76440,2024-11-13_10h43.13.011,Tarea de género gramatical,2024.2.2,Win32,59.52380952,,,,,,,,,,,,,,,,,,,,,,,576.6032,578.0181,a,1,0.7339,,[],[],[],[],[],[],[],0.7339,1,578.0183,578.5176,,,,,,575,MAS,DIS,150,bate,la,l,578.5177,578.5178,0.185185242,0.3574074,0,0,0,,0,194,194,124,1,,,,
,,,,,,5be73c0dc558d7f0a7e22c5b,66a626ef09d4e21e1a8894ec,6734d69cf759e8eeb4f76440,2024-11-13_10h43.13.011,Tarea de género gramatical,2024.2.2,Win32,59.52380952,,,,,,,,,,,,,,,,,,,,,,,578.5191,579.6857,l,1,0.4999,,[],[],[],[],[],[],[],0.4999,1,579.6858,580.1846,,,,,,519,FEM,AGR,150,rata,la,a,580.1867,580.188,0.185185242,0.3574074,0,0,0,,0,195,195,68,1,,,,
,,,,,,5be73c0dc558d7f0a7e22c5b,66a626ef09d4e21e1a8894ec,6734d69cf759e8eeb4f76440,2024-11-13_10h43.13.011,Tarea de género gramatical,2024.2.2,Win32,59.52380952,,,,,,,,,,,,,,,,,,,,,,,580.189,581.768,l,1,0.9004,,[],[],[],[],[],[],[],0.9004,1,581.7682,582.2673,,,,,,590,FEM,DIS,150,mula,el,a,582.2673,582.2674,0.185185242,0.3574074,0,0,0,,0,196,196,139,1,,,,
,,,,,,5be73c0dc558d7f0a7e22c5b,66a626ef09d4e21e1a8894ec,6734d69cf759e8eeb4f76440,2024-11-13_10h43.13.011,Tarea de género gramatical,2024.2.2,Win32,59.52380952,,,,,,,,,,,,,,,,,,,,,,,582.2694,583.5358,a,1,0.5847,,[],[],[],[],[],[],[],0.5847,1,583.5359,584.0348,,,,,,498,MAS,AGR,150,loco,el,l,584.0348,584.035,0.185185242,0.3574074,0,0,0,,0,197,197,47,1,,,,
,,,,,,5be73c0dc558d7f0a7e22c5b,66a626ef09d4e21e1a8894ec,6734d69cf759e8eeb4f76440,2024-11-13_10h43.13.011,Tarea de género gramatical,2024.2.2,Win32,59.52380952,,,,,,,,,,,,,,,,,,,,,,,584.0368,585.2685,l,1,0.5521,,[],[],[],[],[],[],[],0.5521,1,585.2686,585.7684,,,,,,505,FEM,CON,150,taza,,a,585.7684,585.7687,0.185185242,0.3574074,0,0,0,,0,198,198,54,1,,,,
,,,,,,5be73c0dc558d7f0a7e22c5b,66a626ef09d4e21e1a8894ec,6734d69cf759e8eeb4f76440,2024-11-13_10h43.13.011,Tarea de género gramatical,2024.2.2,Win32,59.52380952,,,,,,,,,,,,,,,,,,,,,,,585.7706,586.9302,l,1,0.479,,[],[],[],[],[],[],[],0.479,1,586.9304,587.4347,,,,,,499,FEM,CON,150,piel,,a,587.4349,587.4351,0.185185242,0.3574074,0,0,0,,0,199,199,48,1,,,,
,,,,,,5be73c0dc558d7f0a7e22c5b,66a626ef09d4e21e1a8894ec,6734d69cf759e8eeb4f76440,2024-11-13_10h43.13.011,Tarea de género gramatical,2024.2.2,Win32,59.52380952,,,,,,,,,,,,,,,,,,,,,,,587.4368,588.8023,a,1,0.6951,,[],[],[],[],[],[],[],0.6951,1,588.8024,589.3016,,,,,,624,MAS,AGR,150,perro,el,l,589.3036,589.3048,0.185185242,0.3574074,0,0,0,,0,200,200,173,1,,,,
,,,,,,5be73c0dc558d7f0a7e22c5b,66a626ef09d4e21e1a8894ec,6734d69cf759e8eeb4f76440,2024-11-13_10h43.13.011,Tarea de género gramatical,2024.2.2,Win32,59.52380952,,,,,,,,,,,,,,,,,,,,,,,589.3059,590.5024,a,1,0.5283,,[],[],[],[],[],[],[],0.5283,1,590.5026,590.9974,,,,,,623,MAS,DIS,150,libro,la,l,590.9975,590.9978,0.185185242,0.3574074,0,0,0,,0,201,201,172,1,,,,
,,,,,,5be73c0dc558d7f0a7e22c5b,66a626ef09d4e21e1a8894ec,6734d69cf759e8eeb4f76440,2024-11-13_10h43.13.011,Tarea de género gramatical,2024.2.2,Win32,59.52380952,,,,,,,,,,,,,,,,,,,,,,,590.9995,592.2018,l,1,0.5449,,[],[],[],[],[],[],[],0.5449,1,592.202,592.7017,,,,,,476,FEM,DIS,150,pena,el,a,592.7017,592.7019,0.185185242,0.3574074,0,0,0,,0,202,202,25,1,,,,
,,,,,,5be73c0dc558d7f0a7e22c5b,66a626ef09d4e21e1a8894ec,6734d69cf759e8eeb4f76440,2024-11-13_10h43.13.011,Tarea de género gramatical,2024.2.2,Win32,59.52380952,,,,,,,,,,,,,,,,,,,,,,,592.7037,593.8519,a,1,0.4781,,[],[],[],[],[],[],[],0.4781,1,593.8521,594.3518,,,,,,486,MAS,AGR,150,dedo,el,l,594.3519,594.352,0.185185242,0.3574074,0,0,0,,0,203,203,35,1,,,,
,,,,,,5be73c0dc558d7f0a7e22c5b,66a626ef09d4e21e1a8894ec,6734d69cf759e8eeb4f76440,2024-11-13_10h43.13.011,Tarea de género gramatical,2024.2.2,Win32,59.52380952,,,,,,,,,,,,,,,,,,,,,,,594.3537,595.6475,a,1,0.6076,,[],[],[],[],[],[],[],0.6076,1,595.6476,596.1516,,,,,,900,MAS,AGR,150,conejo,el,l,596.1536,596.1548,0.185185242,0.3574074,0,0,0,,0,204,204,449,1,,,,
,,,,,,5be73c0dc558d7f0a7e22c5b,66a626ef09d4e21e1a8894ec,6734d69cf759e8eeb4f76440,2024-11-13_10h43.13.011,Tarea de género gramatical,2024.2.2,Win32,59.52380952,,,,,,,,,,,,,,,,,,,,,,,596.156,597.4519,l,1,0.6175,,[],[],[],[],[],[],[],0.6175,1,597.452,597.9515,,,,,,728,FEM,DIS,150,presa,el,a,597.9515,597.9516,0.185185242,0.3574074,0,0,0,,0,205,205,277,1,,,,
,,,,,,5be73c0dc558d7f0a7e22c5b,66a626ef09d4e21e1a8894ec,6734d69cf759e8eeb4f76440,2024-11-13_10h43.13.011,Tarea de género gramatical,2024.2.2,Win32,59.52380952,,,,,,,,,,,,,,,,,,,,,,,597.9543,599.2995,a,1,0.6649,,[],[],[],[],[],[],[],0.6649,1,599.2996,599.8018,,,,,,581,MAS,DIS,150,kilo,la,l,599.8019,599.8021,0.185185242,0.3574074,0,0,0,,0,206,206,130,1,,,,
,,,,,,5be73c0dc558d7f0a7e22c5b,66a626ef09d4e21e1a8894ec,6734d69cf759e8eeb4f76440,2024-11-13_10h43.13.011,Tarea de género gramatical,2024.2.2,Win32,59.52380952,,,,,,,,,,,,,,,,,,,,,,,599.8039,601.1523,a,1,0.6685,,[],[],[],[],[],[],[],0.6685,1,601.1524,601.6518,,,,,,713,MAS,DIS,150,carro,la,l,601.6519,601.6521,0.185185242,0.3574074,0,0,0,,0,207,207,262,1,,,,
,,,,,,5be73c0dc558d7f0a7e22c5b,66a626ef09d4e21e1a8894ec,6734d69cf759e8eeb4f76440,2024-11-13_10h43.13.011,Tarea de género gramatical,2024.2.2,Win32,59.52380952,,,,,,,,,,,,,,,,,,,,,,,601.654,603.0688,a,1,0.7342,,[],[],[],[],[],[],[],0.7342,1,603.0688,603.5671,,,,,,821,MAS,DIS,150,sonido,la,l,603.5672,603.5673,0.185185242,0.3574074,0,0,0,,0,208,208,370,1,,,,
,,,,,,5be73c0dc558d7f0a7e22c5b,66a626ef09d4e21e1a8894ec,6734d69cf759e8eeb4f76440,2024-11-13_10h43.13.011,Tarea de género gramatical,2024.2.2,Win32,59.52380952,,,,,,,,,,,,,,,,,,,,,,,603.5692,604.7692,l,1,0.5345,,[],[],[],[],[],[],[],0.5345,1,604.7693,605.2685,,,,,,572,FEM,DIS,150,loca,el,a,605.2701,605.2712,0.185185242,0.3574074,0,0,0,,0,209,209,121,1,,,,
,,,,,,5be73c0dc558d7f0a7e22c5b,66a626ef09d4e21e1a8894ec,6734d69cf759e8eeb4f76440,2024-11-13_10h43.13.011,Tarea de género gramatical,2024.2.2,Win32,59.52380952,,,,,,,,,,,,,,,,,,,,,,,605.2723,606.3524,l,1,0.4011,,[],[],[],[],[],[],[],0.4011,1,606.3525,606.8506,,,,,,675,FEM,AGR,150,pieza,la,a,606.8506,606.8509,0.185185242,0.3574074,0,0,0,,0,210,210,224,1,,,,
,,,,,,5be73c0dc558d7f0a7e22c5b,66a626ef09d4e21e1a8894ec,6734d69cf759e8eeb4f76440,2024-11-13_10h43.13.011,Tarea de género gramatical,2024.2.2,Win32,59.52380952,,,,,,,,,,,,,,,,,,,,,,,606.8526,607.9857,a,1,0.4509,,[],[],[],[],[],[],[],0.4509,1,607.9859,608.4808,,,,,,828,MAS,AGR,150,pastel,el,l,608.4809,608.481,0.185185242,0.3574074,0,0,0,,0,211,211,377,1,,,,
,,,,,,5be73c0dc558d7f0a7e22c5b,66a626ef09d4e21e1a8894ec,6734d69cf759e8eeb4f76440,2024-11-13_10h43.13.011,Tarea de género gramatical,2024.2.2,Win32,59.52380952,,,,,,,,,,,,,,,,,,,,,,,608.4826,609.7518,a,1,0.6016,,[],[],[],[],[],[],[],0.6016,1,609.752,610.2473,,,,,,563,MAS,DIS,150,toro,la,l,610.2474,610.2475,0.185185242,0.3574074,0,0,0,,0,212,212,112,1,,,,
,,,,,,5be73c0dc558d7f0a7e22c5b,66a626ef09d4e21e1a8894ec,6734d69cf759e8eeb4f76440,2024-11-13_10h43.13.011,Tarea de género gramatical,2024.2.2,Win32,59.52380952,,,,,,,,,,,,,,,,,,,,,,,610.2493,611.4526,a,1,0.5177,,[],[],[],[],[],[],[],0.5177,1,611.4528,611.9516,,,,,,574,MAS,CON,150,clan,,l,611.9542,611.9557,0.185185242,0.3574074,0,0,0,,0,213,213,123,1,,,,
,,,,,,5be73c0dc558d7f0a7e22c5b,66a626ef09d4e21e1a8894ec,6734d69cf759e8eeb4f76440,2024-11-13_10h43.13.011,Tarea de género gramatical,2024.2.2,Win32,59.52380952,,,,,,,,,,,,,,,,,,,,,,,611.9569,613.3195,a,1,0.6848,,[],[],[],[],[],[],[],0.6848,1,613.3197,613.8187,,,,,,870,MAS,AGR,150,helado,el,l,613.8187,613.8191,0.185185242,0.3574074,0,0,0,,0,214,214,419,1,,,,
,,,,,,5be73c0dc558d7f0a7e22c5b,66a626ef09d4e21e1a8894ec,6734d69cf759e8eeb4f76440,2024-11-13_10h43.13.011,Tarea de género gramatical,2024.2.2,Win32,59.52380952,,,,,,,,,,,,,,,,,,,,,,,613.8209,615.0858,l,0,0.5845,,[],[],[],[],[],[],[],0.5845,0,615.0867,615.5864,,,,,,719,MAS,DIS,150,primo,la,l,615.5865,615.5866,0.185185242,0.3574074,0,0,0,,0,215,215,268,1,,,,
,,,,,,5be73c0dc558d7f0a7e22c5b,66a626ef09d4e21e1a8894ec,6734d69cf759e8eeb4f76440,2024-11-13_10h43.13.011,Tarea de género gramatical,2024.2.2,Win32,59.52380952,,,,,,,,,,,,,,,,,,,,,,,615.5881,616.9698,l,1,0.7013,,[],[],[],[],[],[],[],0.7013,1,616.9711,617.4688,,,,,,843,FEM,AGR,150,alarma,la,a,617.4688,617.469,0.185185242,0.3574074,0,0,0,,0,216,216,392,1,,,,
,,,,,,5be73c0dc558d7f0a7e22c5b,66a626ef09d4e21e1a8894ec,6734d69cf759e8eeb4f76440,2024-11-13_10h43.13.011,Tarea de género gramatical,2024.2.2,Win32,59.52380952,,,,,,,,,,,,,,,,,,,,,,,617.4707,618.7528,l,1,0.6014,,[],[],[],[],[],[],[],0.6014,1,618.7529,619.2517,,,,,,567,FEM,AGR,150,raya,la,a,619.2518,619.252,0.185185242,0.3574074,0,0,0,,0,217,217,116,1,,,,
,,,,,,5be73c0dc558d7f0a7e22c5b,66a626ef09d4e21e1a8894ec,6734d69cf759e8eeb4f76440,2024-11-13_10h43.13.011,Tarea de género gramatical,2024.2.2,Win32,59.52380952,,,,,,,,,,,,,,,,,,,,,,,619.2532,620.4142,a,1,0.4756,,[],[],[],[],[],[],[],0.4756,1,620.4144,620.9184,,,,,,635,MAS,DIS,150,sueño,la,l,620.9206,620.9219,0.185185242,0.3574074,0,0,0,,0,218,218,184,1,,,,
,,,,,,5be73c0dc558d7f0a7e22c5b,66a626ef09d4e21e1a8894ec,6734d69cf759e8eeb4f76440,2024-11-13_10h43.13.011,Tarea de género gramatical,2024.2.2,Win32,59.52380952,,,,,,,,,,,,,,,,,,,,,,,620.9229,622.153,l,1,0.5509,,[],[],[],[],[],[],[],0.5509,1,622.1531,622.6521,,,,,,649,FEM,CON,150,nariz,,a,622.6522,622.6524,0.185185242,0.3574074,0,0,0,,0,219,219,198,1,,,,
,,,,,,5be73c0dc558d7f0a7e22c5b,66a626ef09d4e21e1a8894ec,6734d69cf759e8eeb4f76440,2024-11-13_10h43.13.011,Tarea de género gramatical,2024.2.2,Win32,59.52380952,,,,,,,,,,,,,,,,,,,,,,,622.6541,623.9028,a,1,0.5676,,[],[],[],[],[],[],[],0.5676,1,623.903,624.4026,,,,,,546,MAS,AGR,150,pato,el,l,624.4028,624.4029,0.185185242,0.3574074,0,0,0,,0,220,220,95,1,,,,
,,,,,,5be73c0dc558d7f0a7e22c5b,66a626ef09d4e21e1a8894ec,6734d69cf759e8eeb4f76440,2024-11-13_10h43.13.011,Tarea de género gramatical,2024.2.2,Win32,59.52380952,,,,,,,,,,,,,,,,,,,,,,,624.4048,625.6028,a,1,0.5285,,[],[],[],[],[],[],[],0.5285,1,625.603,626.1024,,,,,,761,MAS,DIS,150,camino,la,l,626.1025,626.1027,0.185185242,0.3574074,0,0,0,,0,221,221,310,1,,,,
,,,,,,5be73c0dc558d7f0a7e22c5b,66a626ef09d4e21e1a8894ec,6734d69cf759e8eeb4f76440,2024-11-13_10h43.13.011,Tarea de género gramatical,2024.2.2,Win32,59.52380952,,,,,,,,,,,,,,,,,,,,,,,626.1042,627.419,a,1,0.6338,,[],[],[],[],[],[],[],0.6338,1,627.4191,627.9187,,,,,,599,MAS,DIS,150,nudo,la,l,627.9206,627.9218,0.185185242,0.3574074,0,0,0,,0,222,222,148,1,,,,
,,,,,,5be73c0dc558d7f0a7e22c5b,66a626ef09d4e21e1a8894ec,6734d69cf759e8eeb4f76440,2024-11-13_10h43.13.011,Tarea de género gramatical,2024.2.2,Win32,59.52380952,,,,,,,,,,,,,,,,,,,,,,,627.9229,629.0697,l,1,0.4681,,[],[],[],[],[],[],[],0.4681,1,629.0698,629.5688,,,,,,795,FEM,AGR,150,pierna,la,a,629.5689,629.5691,0.185185242,0.3574074,0,0,0,,0,223,223,344,1,,,,
,,,,,,5be73c0dc558d7f0a7e22c5b,66a626ef09d4e21e1a8894ec,6734d69cf759e8eeb4f76440,2024-11-13_10h43.13.011,Tarea de género gramatical,2024.2.2,Win32,59.52380952,,,,,,,,,,,,,,,,,,,,,,,629.5707,630.7666,a,1,0.515,,[],[],[],[],[],[],[],0.515,1,630.7668,631.269,,,,,,796,MAS,CON,150,juicio,,l,631.269,631.2692,0.185185242,0.3574074,0,0,0,,0,224,224,345,1,,,,
,,,,,,5be73c0dc558d7f0a7e22c5b,66a626ef09d4e21e1a8894ec,6734d69cf759e8eeb4f76440,2024-11-13_10h43.13.011,Tarea de género gramatical,2024.2.2,Win32,59.52380952,,,,,,,,,,,,,,,,,,,,,,,631.2705,632.4529,l,1,0.5022,,[],[],[],[],[],[],[],0.5022,1,632.4531,632.9523,,,,,,566,FEM,DIS,150,nube,el,a,632.9524,632.9526,0.185185242,0.3574074,0,0,0,,0,225,225,115,1,,,,
,,,,,,5be73c0dc558d7f0a7e22c5b,66a626ef09d4e21e1a8894ec,6734d69cf759e8eeb4f76440,2024-11-13_10h43.13.011,Tarea de género gramatical,2024.2.2,Win32,59.52380952,,,,,,,,,,,,,,,,,,,,,,,632.9545,634.098,l,1,0.4563,,[],[],[],[],[],[],[],0.4563,1,634.0982,634.6022,,,,,,584,FEM,DIS,150,rama,el,a,634.6023,634.6025,0.185185242,0.3574074,0,0,0,,0,226,226,133,1,,,,
,,,,,,5be73c0dc558d7f0a7e22c5b,66a626ef09d4e21e1a8894ec,6734d69cf759e8eeb4f76440,2024-11-13_10h43.13.011,Tarea de género gramatical,2024.2.2,Win32,59.52380952,,,,,,,,,,,,,,,,,,,,,,,634.6044,635.7649,l,1,0.4737,,[],[],[],[],[],[],[],0.4737,1,635.765,636.265,,,,,,662,FEM,DIS,150,cinta,el,a,636.2668,636.2679,0.185185242,0.3574074,0,0,0,,0,227,227,211,1,,,,
,,,,,,5be73c0dc558d7f0a7e22c5b,66a626ef09d4e21e1a8894ec,6734d69cf759e8eeb4f76440,2024-11-13_10h43.13.011,Tarea de género gramatical,2024.2.2,Win32,59.52380952,,,,,,,,,,,,,,,,,,,,,,,636.2689,637.6814,a,1,0.7262,,[],[],[],[],[],[],[],0.7262,1,637.6816,638.1854,,,,,,791,MAS,DIS,150,precio,la,l,638.1854,638.1857,0.185185242,0.3574074,0,0,0,,0,228,228,340,1,,,,
,,,,,,5be73c0dc558d7f0a7e22c5b,66a626ef09d4e21e1a8894ec,6734d69cf759e8eeb4f76440,2024-11-13_10h43.13.011,Tarea de género gramatical,2024.2.2,Win32,59.52380952,,,,,,,,,,,,,,,,,,,,,,,638.1874,639.402,a,1,0.5339,,[],[],[],[],[],[],[],0.5339,1,639.4022,639.9024,,,,,,473,MAS,DIS,150,rato,la,l,639.9025,639.9028,0.185185242,0.3574074,0,0,0,,0,229,229,22,1,,,,
,,,,,,5be73c0dc558d7f0a7e22c5b,66a626ef09d4e21e1a8894ec,6734d69cf759e8eeb4f76440,2024-11-13_10h43.13.011,Tarea de género gramatical,2024.2.2,Win32,59.52380952,,,,,,,,,,,,,,,,,,,,,,,639.9043,641.3648,a,1,0.7856,,[],[],[],[],[],[],[],0.7856,1,641.3649,641.8686,,,,,,886,MAS,CON,150,objeto,,l,641.8686,641.8688,0.185185242,0.3574074,0,0,0,,0,230,230,435,1,,,,
,,,,,,5be73c0dc558d7f0a7e22c5b,66a626ef09d4e21e1a8894ec,6734d69cf759e8eeb4f76440,2024-11-13_10h43.13.011,Tarea de género gramatical,2024.2.2,Win32,59.52380952,,,,,,,,,,,,,,,,,,,,,,,641.8705,642.9816,a,1,0.4253,,[],[],[],[],[],[],[],0.4253,1,642.9817,643.4818,,,,,,786,MAS,AGR,150,crimen,el,l,643.4835,643.4849,0.185185242,0.3574074,0,0,0,,0,231,231,335,1,,,,
,,,,,,5be73c0dc558d7f0a7e22c5b,66a626ef09d4e21e1a8894ec,6734d69cf759e8eeb4f76440,2024-11-13_10h43.13.011,Tarea de género gramatical,2024.2.2,Win32,59.52380952,,,,,,,,,,,,,,,,,,,,,,,643.4859,644.5695,l,1,0.4175,,[],[],[],[],[],[],[],0.4175,1,644.5697,645.0695,,,,,,703,FEM,CON,150,aldea,,a,645.0696,645.0697,0.185185242,0.3574074,0,0,0,,0,232,232,252,1,,,,
,,,,,,5be73c0dc558d7f0a7e22c5b,66a626ef09d4e21e1a8894ec,6734d69cf759e8eeb4f76440,2024-11-13_10h43.13.011,Tarea de género gramatical,2024.2.2,Win32,59.52380952,,,,,,,,,,,,,,,,,,,,,,,645.0714,646.1818,a,1,0.4249,,[],[],[],[],[],[],[],0.4249,1,646.1819,646.686,,,,,,532,MAS,CON,150,tubo,,l,646.686,646.6861,0.185185242,0.3574074,0,0,0,,0,233,233,81,1,,,,
,,,,,,5be73c0dc558d7f0a7e22c5b,66a626ef09d4e21e1a8894ec,6734d69cf759e8eeb4f76440,2024-11-13_10h43.13.011,Tarea de género gramatical,2024.2.2,Win32,59.52380952,,,,,,,,,,,,,,,,,,,,,,,646.6873,647.8315,l,1,0.4617,,[],[],[],[],[],[],[],0.4617,1,647.8316,648.3194,,,,,,523,FEM,CON,150,roca,,a,648.3195,648.3197,0.185185242,0.3574074,0,0,0,,0,234,234,72,1,,,,
,,,,,,5be73c0dc558d7f0a7e22c5b,66a626ef09d4e21e1a8894ec,6734d69cf759e8eeb4f76440,2024-11-13_10h43.13.011,Tarea de género gramatical,2024.2.2,Win32,59.52380952,,,,,,,,,,,,,,,,,,,,,,,648.3215,649.7017,a,1,0.6995,,[],[],[],[],[],[],[],0.6995,1,649.7019,650.201,,,,,,851,MAS,DIS,150,abrigo,la,l,650.2011,650.2013,0.185185242,0.3574074,0,0,0,,0,235,235,400,1,,,,
,,,,,,5be73c0dc558d7f0a7e22c5b,66a626ef09d4e21e1a8894ec,6734d69cf759e8eeb4f76440,2024-11-13_10h43.13.011,Tarea de género gramatical,2024.2.2,Win32,59.52380952,,,,,,,,,,,,,,,,,,,,,,,650.2029,651.4529,a,1,0.5678,,[],[],[],[],[],[],[],0.5678,1,651.453,651.953,,,,,,858,MAS,AGR,150,cheque,el,l,651.955,651.9562,0.185185242,0.3574074,0,0,0,,0,236,236,407,1,,,,
,,,,,,5be73c0dc558d7f0a7e22c5b,66a626ef09d4e21e1a8894ec,6734d69cf759e8eeb4f76440,2024-11-13_10h43.13.011,Tarea de género gramatical,2024.2.2,Win32,59.52380952,,,,,,,,,,,,,,,,,,,,,,,651.9574,653.1532,a,1,0.5175,,[],[],[],[],[],[],[],0.5175,1,653.1533,653.6531,,,,,,665,MAS,DIS,150,hueso,la,l,653.6531,653.6533,0.185185242,0.3574074,0,0,0,,0,237,237,214,1,,,,
,,,,,,5be73c0dc558d7f0a7e22c5b,66a626ef09d4e21e1a8894ec,6734d69cf759e8eeb4f76440,2024-11-13_10h43.13.011,Tarea de género gramatical,2024.2.2,Win32,59.52380952,,,,,,,,,,,,,,,,,,,,,,,653.655,654.7033,a,1,0.3676,,[],[],[],[],[],[],[],0.3676,1,654.7034,655.1981,,,,,,868,MAS,CON,150,pájaro,,l,655.1982,655.1983,0.185185242,0.3574074,0,0,0,,0,238,238,417,1,,,,
,,,,,,5be73c0dc558d7f0a7e22c5b,66a626ef09d4e21e1a8894ec,6734d69cf759e8eeb4f76440,2024-11-13_10h43.13.011,Tarea de género gramatical,2024.2.2,Win32,59.52380952,,,,,,,,,,,,,,,,,,,,,,,655.1997,656.6866,l,1,0.8009,,[],[],[],[],[],[],[],0.8009,1,656.6867,657.1849,,,,,,704,FEM,DIS,150,caída,el,a,657.185,657.1851,0.185185242,0.3574074,0,0,0,,0,239,239,253,1,,,,
,,,,,,5be73c0dc558d7f0a7e22c5b,66a626ef09d4e21e1a8894ec,6734d69cf759e8eeb4f76440,2024-11-13_10h43.13.011,Tarea de género gramatical,2024.2.2,Win32,59.52380952,,,,,,,,,,,,,,,,,,,,,,,657.1867,658.4194,l,1,0.5674,,[],[],[],[],[],[],[],0.5674,1,658.4195,658.9191,,,,,,813,FEM,AGR,150,unidad,la,a,658.9208,658.9223,0.185185242,0.3574074,0,0,0,,0,240,240,362,1,,,,
,,,,,,5be73c0dc558d7f0a7e22c5b,66a626ef09d4e21e1a8894ec,6734d69cf759e8eeb4f76440,2024-11-13_10h43.13.011,Tarea de género gramatical,2024.2.2,Win32,59.52380952,,,,,,,,,,,,,,,,,,,,,,,658.9233,660.0033,l,1,0.4115,,[],[],[],[],[],[],[],0.4115,1,660.0035,660.5017,,,,,,451,FEM,CON,150,casa,,a,660.5018,660.5019,0.185185242,0.3574074,0,0,0,,0,241,241,0,1,,,,
,,,,,,5be73c0dc558d7f0a7e22c5b,66a626ef09d4e21e1a8894ec,6734d69cf759e8eeb4f76440,2024-11-13_10h43.13.011,Tarea de género gramatical,2024.2.2,Win32,59.52380952,,,,,,,,,,,,,,,,,,,,,,,660.5031,661.7815,l,1,0.6008,,[],[],[],[],[],[],[],0.6008,1,661.7817,662.2863,,,,,,469,FEM,CON,150,niña,,a,662.2863,662.2865,0.185185242,0.3574074,0,0,0,,0,242,242,18,1,,,,
,,,,,,5be73c0dc558d7f0a7e22c5b,66a626ef09d4e21e1a8894ec,6734d69cf759e8eeb4f76440,2024-11-13_10h43.13.011,Tarea de género gramatical,2024.2.2,Win32,59.52380952,,,,,,,,,,,,,,,,,,,,,,,662.2882,663.6355,l,1,0.6667,,[],[],[],[],[],[],[],0.6667,1,663.6356,664.1315,,,,,,601,FEM,CON,150,noche,,a,664.1315,664.1317,0.185185242,0.3574074,0,0,0,,0,243,243,150,1,,,,
,,,,,,5be73c0dc558d7f0a7e22c5b,66a626ef09d4e21e1a8894ec,6734d69cf759e8eeb4f76440,2024-11-13_10h43.13.011,Tarea de género gramatical,2024.2.2,Win32,59.52380952,,,,,,,,,,,,,,,,,,,,,,,664.1331,665.2194,l,1,0.4295,,[],[],[],[],[],[],[],0.4295,1,665.2196,665.7148,,,,,,866,FEM,DIS,150,colina,el,a,665.7149,665.715,0.185185242,0.3574074,0,0,0,,0,244,244,415,1,,,,
,,,,,,5be73c0dc558d7f0a7e22c5b,66a626ef09d4e21e1a8894ec,6734d69cf759e8eeb4f76440,2024-11-13_10h43.13.011,Tarea de género gramatical,2024.2.2,Win32,59.52380952,,,,,,,,,,,,,,,,,,,,,,,665.7161,667.0326,a,1,0.6428,,[],[],[],[],[],[],[],0.6428,1,667.0327,667.5362,,,,,,545,MAS,DIS,150,tomo,la,l,667.5382,667.5394,0.185185242,0.3574074,0,0,0,,0,245,245,94,1,,,,
,,,,,,5be73c0dc558d7f0a7e22c5b,66a626ef09d4e21e1a8894ec,6734d69cf759e8eeb4f76440,2024-11-13_10h43.13.011,Tarea de género gramatical,2024.2.2,Win32,59.52380952,,,,,,,,,,,,,,,,,,,,,,,667.5405,669.1817,l,1,0.9569,,[],[],[],[],[],[],[],0.9569,1,669.1819,669.6698,,,,,,668,FEM,DIS,150,nieve,el,a,669.6698,669.67,0.185185242,0.3574074,0,0,0,,0,246,246,217,1,,,,
,,,,,,5be73c0dc558d7f0a7e22c5b,66a626ef09d4e21e1a8894ec,6734d69cf759e8eeb4f76440,2024-11-13_10h43.13.011,Tarea de género gramatical,2024.2.2,Win32,59.52380952,,,,,,,,,,,,,,,,,,,,,,,669.6716,670.9985,a,1,0.6419,,[],[],[],[],[],[],[],0.6419,1,670.9986,671.5029,,,,,,472,MAS,CON,150,pelo,,l,671.503,671.5031,0.185185242,0.3574074,0,0,0,,0,247,247,21,1,,,,
,,,,,,5be73c0dc558d7f0a7e22c5b,66a626ef09d4e21e1a8894ec,6734d69cf759e8eeb4f76440,2024-11-13_10h43.13.011,Tarea de género gramatical,2024.2.2,Win32,59.52380952,,,,,,,,,,,,,,,,,,,,,,,671.5048,672.7537,l,1,0.5677,,[],[],[],[],[],[],[],0.5677,1,672.7538,673.2486,,,,,,819,FEM,AGR,150,camisa,la,a,673.2487,673.2489,0.185185242,0.3574074,0,0,0,,0,248,248,368,1,,,,
,,,,,,5be73c0dc558d7f0a7e22c5b,66a626ef09d4e21e1a8894ec,6734d69cf759e8eeb4f76440,2024-11-13_10h43.13.011,Tarea de género gramatical,2024.2.2,Win32,59.52380952,,,,,,,,,,,,,,,,,,,,,,,673.2507,674.4703,l,1,0.5514,,[],[],[],[],[],[],[],0.5514,1,674.4704,674.9698,,,,,,759,FEM,AGR,150,esposa,la,a,674.9719,674.9732,0.185185242,0.3574074,0,0,0,,0,249,249,308,1,,,,
,,,,,,5be73c0dc558d7f0a7e22c5b,66a626ef09d4e21e1a8894ec,6734d69cf759e8eeb4f76440,2024-11-13_10h43.13.011,Tarea de género gramatical,2024.2.2,Win32,59.52380952,,,,,,,,,,,,,,,,,,,,,,,674.9744,676.1035,l,1,0.4509,,[],[],[],[],[],[],[],0.4509,1,676.1035,676.5985,,,,,,531,FEM,AGR,150,cima,la,a,676.5986,676.5988,0.185185242,0.3574074,0,0,0,,0,250,250,80,1,,,,
,,,,,,5be73c0dc558d7f0a7e22c5b,66a626ef09d4e21e1a8894ec,6734d69cf759e8eeb4f76440,2024-11-13_10h43.13.011,Tarea de género gramatical,2024.2.2,Win32,59.52380952,,,,,,,,,,,,,,,,,,,,,,,676.6003,677.8702,l,1,0.5964,,[],[],[],[],[],[],[],0.5964,1,677.8703,678.3658,,,,,,507,FEM,AGR,150,moda,la,a,678.3659,678.3661,0.185185242,0.3574074,0,0,0,,0,251,251,56,1,,,,
,,,,,,5be73c0dc558d7f0a7e22c5b,66a626ef09d4e21e1a8894ec,6734d69cf759e8eeb4f76440,2024-11-13_10h43.13.011,Tarea de género gramatical,2024.2.2,Win32,59.52380952,,,,,,,,,,,,,,,,,,,,,,,678.3675,679.6325,a,1,0.5872,,[],[],[],[],[],[],[],0.5872,1,679.6327,680.1325,,,,,,714,MAS,AGR,150,pollo,el,l,680.1325,680.1326,0.185185242,0.3574074,0,0,0,,0,252,252,263,1,,,,
,,,,,,5be73c0dc558d7f0a7e22c5b,66a626ef09d4e21e1a8894ec,6734d69cf759e8eeb4f76440,2024-11-13_10h43.13.011,Tarea de género gramatical,2024.2.2,Win32,59.52380952,,,,,,,,,,,,,,,,,,,,,,,680.1343,681.6325,l,0,0.8081,,[],[],[],[],[],[],[],0.8081,0,681.6342,682.1365,,,,,,689,MAS,DIS,150,reloj,la,l,682.1365,682.1366,0.185185242,0.3574074,0,0,0,,0,253,253,238,1,,,,
