counterbalancing_condition,consent_prescreening.block_1/declare_consent,consent_prescreening.block_1/age_years,consent_prescreening.block_1/gender,consent_prescreening.block_1/language_disorder,consent_prescreening.block_1/first_language,PROLIFIC_PID,STUDY_ID,SESSION_ID,date,expName,psychopyVersion,OS,frameRate,check_prescreening_answers.started,check_prescreening_answers.stopped,Instructions.started,Instructions.stopped,instr_done_keyboard.keys,instr_done_touch.x,instr_done_touch.y,instr_done_touch.leftButton,instr_done_touch.midButton,instr_done_touch.rightButton,instr_done_touch.clicked_name,instruction_pages.thisRepN,instruction_pages.thisTrialN,instruction_pages.thisN,instruction_pages.thisIndex,instruction_pages.ran,pageN,phase,instruct_text,has_image,instruct_image,presentTrial.started,presentTrial.stopped,response.keys,response.corr,touch_resp.x,touch_resp.y,touch_resp.leftButton,touch_resp.midButton,touch_resp.rightButton,touch_resp.time,touch_resp.clicked_name,rt,corr,feedback.started,feedback.stopped,practice_trials.thisRepN,practice_trials.thisTrialN,practice_trials.thisN,practice_trials.thisIndex,practice_trials.ran,TrialID,StimulusType,Condition,PrimeDuration,Prime,Flanker,corrAns,response.rt,response.duration,instr_done_keyboard.rt,instr_done_keyboard.duration,Break.started,Break.stopped,break_done_touch.x,break_done_touch.y,break_done_touch.leftButton,break_done_touch.midButton,break_done_touch.rightButton,break_done_keyboard.keys,experiment_trials.thisRepN,experiment_trials.thisTrialN,experiment_trials.thisN,experiment_trials.thisIndex,experiment_trials.ran,break_done_keyboard.rt,break_done_keyboard.duration,End.started,End.stopped
1,"[""over_18"",""comfortable"",""read_info"",""consent_given""]",42,M,"[""none""]","[""spanish""]",5d82a708d87495f1560f18c9,66a626ef09d4e21e1a8894ec,673644a69ffab0b3475962bc,2024-11-14_15h43.23.496,Tarea de género gramatical,2024.2.2,Win32,59.88023952,,,,,,,,,,,,,,,,,,,,,,,,,,,,,,,,,,,,,,,,,,,,,,,,,,,,,,,,,,,,,,,,,,,,,
,,,,,,5d82a708d87495f1560f18c9,66a626ef09d4e21e1a8894ec,673644a69ffab0b3475962bc,2024-11-14_15h43.23.496,Tarea de género gramatical,2024.2.2,Win32,59.88023952,43.4186,43.4188,,,,,,,,,,,,,,,,,,,,,,,,,,,,,,,,,,,,,,,,,,,,,,,,,,,,,,,,,,,,,,,,,,,
,,,,,,5d82a708d87495f1560f18c9,66a626ef09d4e21e1a8894ec,673644a69ffab0b3475962bc,2024-11-14_15h43.23.496,Tarea de género gramatical,2024.2.2,Win32,59.88023952,,,43.4363,59.3329,,0.084548632,-0.392592642,1,0,0,instr_done_button,0,0,0,0,1,1,instructions,"INSTRUCCIONES
Va a realizar una prueba de selección gramatical. Desde el comienzo de la prueba mire siempre al centro de la pantalla. Al cabo de un momento, aparecerán palabras. La tarea consiste en determinar si la palabra del centro (siempre será un sustantivo), pertenece al género masculino o femenino.

Pulse la tecla ESPACIO o toque el botón de abajo para continuar.",0,keyboardresponseFM.png,,,,,,,,,,,,,,,,,,,,,,,,,,,,,,,,,,,,,,,,,,,,,,,,
,,,,,,5d82a708d87495f1560f18c9,66a626ef09d4e21e1a8894ec,673644a69ffab0b3475962bc,2024-11-14_15h43.23.496,Tarea de género gramatical,2024.2.2,Win32,59.88023952,,,59.3353,74.8328,,-0.01267359,-0.412037108,1,0,0,instr_done_button,0,1,1,1,1,2,instructions,"Si su dispositivo tiene teclado, pulse la tecla ""A"" para las palabras en femenino (por ejemplo: ""mano"") y la tecla ""L"" para las palabras en masculino(por ejemplo: ""arroz"").
Pulse la tecla ESPACIO o toque el botón de abajo para continuar.",1,keyboardresponseFM.png,,,,,,,,,,,,,,,,,,,,,,,,,,,,,,,,,,,,,,,,,,,,,,,,
,,,,,,5d82a708d87495f1560f18c9,66a626ef09d4e21e1a8894ec,673644a69ffab0b3475962bc,2024-11-14_15h43.23.496,Tarea de género gramatical,2024.2.2,Win32,59.88023952,,,74.8345,80.0497,,0.037326495,-0.408333355,1,0,0,instr_done_button,0,2,2,2,1,3,instructions,"Si utiliza un dispositivo sólo táctil, colóquelo en horizontal y utilice los botones de la pantalla. No utilice el ratón.
Pulse la tecla ESPACIO o toque el botón de abajo para continuar.",2,touchresponseFM.png,,,,,,,,,,,,,,,,,,,,,,,,,,,,,,,,,,,,,,,,,,,,,,,,
,,,,,,5d82a708d87495f1560f18c9,66a626ef09d4e21e1a8894ec,673644a69ffab0b3475962bc,2024-11-14_15h43.23.496,Tarea de género gramatical,2024.2.2,Win32,59.88023952,,,80.0524,98.5337,,0.048437542,-0.405555619,1,0,0,,0,3,3,3,1,4,instructions,"Es muy importante que responda con la mayor rapidez y precisión posibles, ya que cada cadena de letras sólo estará en pantalla durante un instante. Si no responde en ese tiempo, aparecerá el mensaje ""Muy lento"" y el experimento pasará a la siguiente palabra. Los primeros 15 intentos serán de práctica y habrá dos descansos durante la prueba.
Pulse la tecla ESPACIO o toque el botón de abajo para iniciar la parte de práctica.",0,keyboardresponseFM.png,,,,,,,,,,,,,,,,,,,,,,,,,,,,,,,,,,,,,,,,,,,,,,,,
,,,,,,5d82a708d87495f1560f18c9,66a626ef09d4e21e1a8894ec,673644a69ffab0b3475962bc,2024-11-14_15h43.23.496,Tarea de género gramatical,2024.2.2,Win32,59.88023952,,,,,,,,,,,,,,,,,,,,,,98.5475,101.2008,,0,[],[],[],[],[],[],[],,-1,101.201,101.7007,0,0,0,12,1,2013,MAS,AGR,150,acero,el,l,,,,,,,,,,,,,,,,,,,,,
,,,,,,5d82a708d87495f1560f18c9,66a626ef09d4e21e1a8894ec,673644a69ffab0b3475962bc,2024-11-14_15h43.23.496,Tarea de género gramatical,2024.2.2,Win32,59.88023952,,,,,,,,,,,,,,,,,,,,,,101.7018,103.3173,l,0,[],[],[],[],[],[],[],0.9378,0,103.3221,103.8173,0,1,1,3,1,2004,FEM,AGR,150,venta,la,a,0.9378,,,,,,,,,,,,,,,,,,,,
,,,,,,5d82a708d87495f1560f18c9,66a626ef09d4e21e1a8894ec,673644a69ffab0b3475962bc,2024-11-14_15h43.23.496,Tarea de género gramatical,2024.2.2,Win32,59.88023952,,,,,,,,,,,,,,,,,,,,,,103.8186,105.0006,a,0,[],[],[],[],[],[],[],0.5002,0,105.0006,105.5006,0,2,2,9,1,2010,MAS,AGR,150,vecino,el,l,0.5002,,,,,,,,,,,,,,,,,,,,
,,,,,,5d82a708d87495f1560f18c9,66a626ef09d4e21e1a8894ec,673644a69ffab0b3475962bc,2024-11-14_15h43.23.496,Tarea de género gramatical,2024.2.2,Win32,59.88023952,,,,,,,,,,,,,,,,,,,,,,105.5015,106.7675,a,1,[],[],[],[],[],[],[],0.5843,1,106.7684,107.2674,0,3,3,4,1,2005,FEM,CON,150,placa,,a,0.5843,,,,,,,,,,,,,,,,,,,,
,,,,,,5d82a708d87495f1560f18c9,66a626ef09d4e21e1a8894ec,673644a69ffab0b3475962bc,2024-11-14_15h43.23.496,Tarea de género gramatical,2024.2.2,Win32,59.88023952,,,,,,,,,,,,,,,,,,,,,,107.2688,108.3675,l,1,[],[],[],[],[],[],[],0.4194,1,108.3676,108.8676,0,4,4,8,1,2009,MAS,DIS,150,puerto,la,l,0.4194,,,,,,,,,,,,,,,,,,,,
,,,,,,5d82a708d87495f1560f18c9,66a626ef09d4e21e1a8894ec,673644a69ffab0b3475962bc,2024-11-14_15h43.23.496,Tarea de género gramatical,2024.2.2,Win32,59.88023952,,,,,,,,,,,,,,,,,,,,,,108.8683,110.2508,a,1,[],[],[],[],[],[],[],0.7126,1,110.2509,110.7509,0,5,5,0,1,2001,FEM,AGR,150,nuca,la,a,0.7126,,,,,,,,,,,,,,,,,,,,
,,,,,,5d82a708d87495f1560f18c9,66a626ef09d4e21e1a8894ec,673644a69ffab0b3475962bc,2024-11-14_15h43.23.496,Tarea de género gramatical,2024.2.2,Win32,59.88023952,,,,,,,,,,,,,,,,,,,,,,110.7519,111.884,a,1,[],[],[],[],[],[],[],0.4595,1,111.884,112.3844,0,6,6,7,1,2008,FEM,CON,150,siesta,,a,0.4595,,,,,,,,,,,,,,,,,,,,
,,,,,,5d82a708d87495f1560f18c9,66a626ef09d4e21e1a8894ec,673644a69ffab0b3475962bc,2024-11-14_15h43.23.496,Tarea de género gramatical,2024.2.2,Win32,59.88023952,,,,,,,,,,,,,,,,,,,,,,112.3853,113.4008,a,1,[],[],[],[],[],[],[],0.3348,1,113.4008,113.9009,0,7,7,1,1,2002,FEM,CON,150,pala,,a,0.3348,,,,,,,,,,,,,,,,,,,,
,,,,,,5d82a708d87495f1560f18c9,66a626ef09d4e21e1a8894ec,673644a69ffab0b3475962bc,2024-11-14_15h43.23.496,Tarea de género gramatical,2024.2.2,Win32,59.88023952,,,,,,,,,,,,,,,,,,,,,,113.9016,114.9177,a,0,[],[],[],[],[],[],[],0.3346,0,114.9184,115.4178,0,8,8,10,1,2011,MAS,CON,150,canal,,l,0.3346,,,,,,,,,,,,,,,,,,,,
,,,,,,5d82a708d87495f1560f18c9,66a626ef09d4e21e1a8894ec,673644a69ffab0b3475962bc,2024-11-14_15h43.23.496,Tarea de género gramatical,2024.2.2,Win32,59.88023952,,,,,,,,,,,,,,,,,,,,,,115.4185,116.6512,l,0,[],[],[],[],[],[],[],0.5551,0,116.6513,117.1512,0,9,9,5,1,2006,FEM,DIS,150,serie,el,a,0.5551,,,,,,,,,,,,,,,,,,,,
,,,,,,5d82a708d87495f1560f18c9,66a626ef09d4e21e1a8894ec,673644a69ffab0b3475962bc,2024-11-14_15h43.23.496,Tarea de género gramatical,2024.2.2,Win32,59.88023952,,,,,,,,,,,,,,,,,,,,,,117.1523,118.5678,l,1,[],[],[],[],[],[],[],0.7354,1,118.5683,119.0678,0,10,10,11,1,2012,MAS,DIS,150,clima,la,l,0.7354,,,,,,,,,,,,,,,,,,,,
,,,,,,5d82a708d87495f1560f18c9,66a626ef09d4e21e1a8894ec,673644a69ffab0b3475962bc,2024-11-14_15h43.23.496,Tarea de género gramatical,2024.2.2,Win32,59.88023952,,,,,,,,,,,,,,,,,,,,,,119.069,120.2011,a,1,[],[],[],[],[],[],[],0.4563,1,120.2012,120.7012,0,11,11,2,1,2003,FEM,DIS,150,daga,el,a,0.4563,,,,,,,,,,,,,,,,,,,,
,,,,,,5d82a708d87495f1560f18c9,66a626ef09d4e21e1a8894ec,673644a69ffab0b3475962bc,2024-11-14_15h43.23.496,Tarea de género gramatical,2024.2.2,Win32,59.88023952,,,,,,,,,,,,,,,,,,,,,,120.7023,121.918,a,1,[],[],[],[],[],[],[],0.5355,1,121.918,122.4179,0,12,12,6,1,2007,FEM,AGR,150,navaja,la,a,0.5355,,,,,,,,,,,,,,,,,,,,
,,,,,,5d82a708d87495f1560f18c9,66a626ef09d4e21e1a8894ec,673644a69ffab0b3475962bc,2024-11-14_15h43.23.496,Tarea de género gramatical,2024.2.2,Win32,59.88023952,,,,,,,,,,,,,,,,,,,,,,122.4187,123.5848,l,1,[],[],[],[],[],[],[],0.4836,1,123.5849,124.0847,0,13,13,13,1,2014,MAS,CON,150,siglo,,l,0.4836,,,,,,,,,,,,,,,,,,,,
,,,,,,5d82a708d87495f1560f18c9,66a626ef09d4e21e1a8894ec,673644a69ffab0b3475962bc,2024-11-14_15h43.23.496,Tarea de género gramatical,2024.2.2,Win32,59.88023952,,,,,,,,,,,,,,,,,,,,,,124.0858,125.2848,l,1,[],[],[],[],[],[],[],0.5185,1,125.2849,125.7847,0,14,14,14,1,2015,MAS,DIS,150,robot,la,l,0.5185,,,,,,,,,,,,,,,,,,,,
,,,,,,5d82a708d87495f1560f18c9,66a626ef09d4e21e1a8894ec,673644a69ffab0b3475962bc,2024-11-14_15h43.23.496,Tarea de género gramatical,2024.2.2,Win32,59.88023952,,,158.3717,162.9694,space,0.061400519,-0.336111228,0,0,0,,,,,,,,,,,,163.0017,163.9362,a,1,[],[],[],[],[],[],[],0.2745,1,163.9363,164.4361,,,,,,829,FEM,CON,150,granja,,a,0.2745,,4.5847,,164.4363,164.4394,0.061400519,-0.336111228,0,0,0,,0,0,0,378,1,,,,
,,,,,,5d82a708d87495f1560f18c9,66a626ef09d4e21e1a8894ec,673644a69ffab0b3475962bc,2024-11-14_15h43.23.496,Tarea de género gramatical,2024.2.2,Win32,59.88023952,,,,,,,,,,,,,,,,,,,,,,164.4403,165.4357,a,1,[],[],[],[],[],[],[],0.3289,1,165.4359,165.936,,,,,,687,FEM,AGR,150,ducha,la,a,0.3289,,,,165.9361,165.9363,0.061400519,-0.336111228,0,0,0,,0,1,1,236,1,,,,
,,,,,,5d82a708d87495f1560f18c9,66a626ef09d4e21e1a8894ec,673644a69ffab0b3475962bc,2024-11-14_15h43.23.496,Tarea de género gramatical,2024.2.2,Win32,59.88023952,,,,,,,,,,,,,,,,,,,,,,165.9371,166.9694,a,1,[],[],[],[],[],[],[],0.3565,1,166.9694,167.4695,,,,,,801,FEM,AGR,150,espada,la,a,0.3565,,,,167.4706,167.4713,0.061400519,-0.336111228,0,0,0,,0,2,2,350,1,,,,
,,,,,,5d82a708d87495f1560f18c9,66a626ef09d4e21e1a8894ec,673644a69ffab0b3475962bc,2024-11-14_15h43.23.496,Tarea de género gramatical,2024.2.2,Win32,59.88023952,,,,,,,,,,,,,,,,,,,,,,167.472,168.6028,a,0,[],[],[],[],[],[],[],0.4549,0,168.6034,169.1028,,,,,,515,MAS,DIS,150,rayo,la,l,0.4549,,,,169.1028,169.1029,0.061400519,-0.336111228,0,0,0,,0,3,3,64,1,,,,
,,,,,,5d82a708d87495f1560f18c9,66a626ef09d4e21e1a8894ec,673644a69ffab0b3475962bc,2024-11-14_15h43.23.496,Tarea de género gramatical,2024.2.2,Win32,59.88023952,,,,,,,,,,,,,,,,,,,,,,169.1042,170.4195,l,1,[],[],[],[],[],[],[],0.6362,1,170.42,170.9197,,,,,,785,MAS,DIS,150,montón,la,l,0.6362,,,,170.9197,170.9198,0.061400519,-0.336111228,0,0,0,,0,4,4,334,1,,,,
,,,,,,5d82a708d87495f1560f18c9,66a626ef09d4e21e1a8894ec,673644a69ffab0b3475962bc,2024-11-14_15h43.23.496,Tarea de género gramatical,2024.2.2,Win32,59.88023952,,,,,,,,,,,,,,,,,,,,,,170.9206,172.003,a,1,[],[],[],[],[],[],[],0.405,1,172.0031,172.503,,,,,,469,FEM,CON,150,niña,,a,0.405,,,,172.503,172.5032,0.061400519,-0.336111228,0,0,0,,0,5,5,18,1,,,,
,,,,,,5d82a708d87495f1560f18c9,66a626ef09d4e21e1a8894ec,673644a69ffab0b3475962bc,2024-11-14_15h43.23.496,Tarea de género gramatical,2024.2.2,Win32,59.88023952,,,,,,,,,,,,,,,,,,,,,,172.5052,173.8862,l,0,[],[],[],[],[],[],[],0.7081,0,173.8868,174.3864,,,,,,692,FEM,DIS,150,pizza,el,a,0.7081,,,,174.3874,174.388,0.061400519,-0.336111228,0,0,0,,0,6,6,241,1,,,,
,,,,,,5d82a708d87495f1560f18c9,66a626ef09d4e21e1a8894ec,673644a69ffab0b3475962bc,2024-11-14_15h43.23.496,Tarea de género gramatical,2024.2.2,Win32,59.88023952,,,,,,,,,,,,,,,,,,,,,,174.3885,175.5532,a,1,[],[],[],[],[],[],[],0.4899,1,175.5539,176.0531,,,,,,566,FEM,DIS,150,nube,el,a,0.4899,,,,176.0531,176.0532,0.061400519,-0.336111228,0,0,0,,0,7,7,115,1,,,,
,,,,,,5d82a708d87495f1560f18c9,66a626ef09d4e21e1a8894ec,673644a69ffab0b3475962bc,2024-11-14_15h43.23.496,Tarea de género gramatical,2024.2.2,Win32,59.88023952,,,,,,,,,,,,,,,,,,,,,,176.054,177.1531,l,1,[],[],[],[],[],[],[],0.4234,1,177.1532,177.6532,,,,,,886,MAS,CON,150,objeto,,l,0.4234,,,,177.6532,177.6533,0.061400519,-0.336111228,0,0,0,,0,8,8,435,1,,,,
,,,,,,5d82a708d87495f1560f18c9,66a626ef09d4e21e1a8894ec,673644a69ffab0b3475962bc,2024-11-14_15h43.23.496,Tarea de género gramatical,2024.2.2,Win32,59.88023952,,,,,,,,,,,,,,,,,,,,,,177.6539,178.8863,a,1,[],[],[],[],[],[],[],0.5503,1,178.8864,179.3865,,,,,,481,FEM,CON,150,edad,,a,0.5503,,,,179.3865,179.3866,0.061400519,-0.336111228,0,0,0,,0,9,9,30,1,,,,
,,,,,,5d82a708d87495f1560f18c9,66a626ef09d4e21e1a8894ec,673644a69ffab0b3475962bc,2024-11-14_15h43.23.496,Tarea de género gramatical,2024.2.2,Win32,59.88023952,,,,,,,,,,,,,,,,,,,,,,179.3875,180.4698,l,1,[],[],[],[],[],[],[],0.4096,1,180.4699,180.9698,,,,,,791,MAS,DIS,150,precio,la,l,0.4096,,,,180.9698,180.97,0.061400519,-0.336111228,0,0,0,,0,10,10,340,1,,,,
,,,,,,5d82a708d87495f1560f18c9,66a626ef09d4e21e1a8894ec,673644a69ffab0b3475962bc,2024-11-14_15h43.23.496,Tarea de género gramatical,2024.2.2,Win32,59.88023952,,,,,,,,,,,,,,,,,,,,,,180.9706,181.9699,a,1,[],[],[],[],[],[],[],0.3302,1,181.97,182.47,,,,,,764,FEM,DIS,150,señora,el,a,0.3302,,,,182.4711,182.4716,0.061400519,-0.336111228,0,0,0,,0,11,11,313,1,,,,
,,,,,,5d82a708d87495f1560f18c9,66a626ef09d4e21e1a8894ec,673644a69ffab0b3475962bc,2024-11-14_15h43.23.496,Tarea de género gramatical,2024.2.2,Win32,59.88023952,,,,,,,,,,,,,,,,,,,,,,182.4724,183.5867,a,1,[],[],[],[],[],[],[],0.4451,1,183.5867,184.0869,,,,,,697,FEM,CON,150,frase,,a,0.4451,,,,184.0869,184.087,0.061400519,-0.336111228,0,0,0,,0,12,12,246,1,,,,
,,,,,,5d82a708d87495f1560f18c9,66a626ef09d4e21e1a8894ec,673644a69ffab0b3475962bc,2024-11-14_15h43.23.496,Tarea de género gramatical,2024.2.2,Win32,59.88023952,,,,,,,,,,,,,,,,,,,,,,184.0878,185.1868,a,1,[],[],[],[],[],[],[],0.4294,1,185.1869,185.6867,,,,,,529,FEM,CON,150,mina,,a,0.4294,,,,185.6869,185.6869,0.061400519,-0.336111228,0,0,0,,0,13,13,78,1,,,,
,,,,,,5d82a708d87495f1560f18c9,66a626ef09d4e21e1a8894ec,673644a69ffab0b3475962bc,2024-11-14_15h43.23.496,Tarea de género gramatical,2024.2.2,Win32,59.88023952,,,,,,,,,,,,,,,,,,,,,,185.6879,186.6535,l,1,[],[],[],[],[],[],[],0.2845,1,186.6536,187.1534,,,,,,606,MAS,AGR,150,amigo,el,l,0.2845,,,,187.1535,187.1536,0.061400519,-0.336111228,0,0,0,,0,14,14,155,1,,,,
,,,,,,5d82a708d87495f1560f18c9,66a626ef09d4e21e1a8894ec,673644a69ffab0b3475962bc,2024-11-14_15h43.23.496,Tarea de género gramatical,2024.2.2,Win32,59.88023952,,,,,,,,,,,,,,,,,,,,,,187.1548,188.2869,a,1,[],[],[],[],[],[],[],0.4586,1,188.2869,188.787,,,,,,704,FEM,DIS,150,caída,el,a,0.4586,,,,188.788,188.7889,0.061400519,-0.336111228,0,0,0,,0,15,15,253,1,,,,
,,,,,,5d82a708d87495f1560f18c9,66a626ef09d4e21e1a8894ec,673644a69ffab0b3475962bc,2024-11-14_15h43.23.496,Tarea de género gramatical,2024.2.2,Win32,59.88023952,,,,,,,,,,,,,,,,,,,,,,188.7897,189.9036,a,1,[],[],[],[],[],[],[],0.4338,1,189.9037,190.4036,,,,,,631,FEM,CON,150,tarde,,a,0.4338,,,,190.4037,190.4037,0.061400519,-0.336111228,0,0,0,,0,16,16,180,1,,,,
,,,,,,5d82a708d87495f1560f18c9,66a626ef09d4e21e1a8894ec,673644a69ffab0b3475962bc,2024-11-14_15h43.23.496,Tarea de género gramatical,2024.2.2,Win32,59.88023952,,,,,,,,,,,,,,,,,,,,,,190.4045,191.5203,l,1,[],[],[],[],[],[],[],0.4355,1,191.5204,192.0202,,,,,,822,MAS,AGR,150,delito,el,l,0.4355,,,,192.0203,192.0203,0.061400519,-0.336111228,0,0,0,,0,17,17,371,1,,,,
,,,,,,5d82a708d87495f1560f18c9,66a626ef09d4e21e1a8894ec,673644a69ffab0b3475962bc,2024-11-14_15h43.23.496,Tarea de género gramatical,2024.2.2,Win32,59.88023952,,,,,,,,,,,,,,,,,,,,,,192.0212,193.137,a,1,[],[],[],[],[],[],[],0.4344,1,193.1371,193.6373,,,,,,842,FEM,DIS,150,maleta,el,a,0.4344,,,,193.6374,193.6374,0.061400519,-0.336111228,0,0,0,,0,18,18,391,1,,,,
,,,,,,5d82a708d87495f1560f18c9,66a626ef09d4e21e1a8894ec,673644a69ffab0b3475962bc,2024-11-14_15h43.23.496,Tarea de género gramatical,2024.2.2,Win32,59.88023952,,,,,,,,,,,,,,,,,,,,,,193.6382,195.0372,l,0,[],[],[],[],[],[],[],0.7266,0,195.0379,195.5369,,,,,,471,FEM,AGR,150,boca,la,a,0.7266,,,,195.537,195.537,0.061400519,-0.336111228,0,0,0,,0,19,19,20,1,,,,
,,,,,,5d82a708d87495f1560f18c9,66a626ef09d4e21e1a8894ec,673644a69ffab0b3475962bc,2024-11-14_15h43.23.496,Tarea de género gramatical,2024.2.2,Win32,59.88023952,,,,,,,,,,,,,,,,,,,,,,195.5376,196.5703,l,0,[],[],[],[],[],[],[],0.3624,0,196.5703,197.0704,,,,,,751,FEM,CON,150,verdad,,a,0.3624,,,,197.0718,197.0726,0.061400519,-0.336111228,0,0,0,,0,20,20,300,1,,,,
,,,,,,5d82a708d87495f1560f18c9,66a626ef09d4e21e1a8894ec,673644a69ffab0b3475962bc,2024-11-14_15h43.23.496,Tarea de género gramatical,2024.2.2,Win32,59.88023952,,,,,,,,,,,,,,,,,,,,,,197.0735,198.4038,l,1,[],[],[],[],[],[],[],0.6612,1,198.4045,198.904,,,,,,773,MAS,DIS,150,marido,la,l,0.6612,,,,198.904,198.9041,0.061400519,-0.336111228,0,0,0,,0,21,21,322,1,,,,
,,,,,,5d82a708d87495f1560f18c9,66a626ef09d4e21e1a8894ec,673644a69ffab0b3475962bc,2024-11-14_15h43.23.496,Tarea de género gramatical,2024.2.2,Win32,59.88023952,,,,,,,,,,,,,,,,,,,,,,198.905,200.0704,a,1,[],[],[],[],[],[],[],0.4934,1,200.0705,200.5706,,,,,,681,FEM,AGR,150,bruja,la,a,0.4934,,,,200.5707,200.5707,0.061400519,-0.336111228,0,0,0,,0,22,22,230,1,,,,
,,,,,,5d82a708d87495f1560f18c9,66a626ef09d4e21e1a8894ec,673644a69ffab0b3475962bc,2024-11-14_15h43.23.496,Tarea de género gramatical,2024.2.2,Win32,59.88023952,,,,,,,,,,,,,,,,,,,,,,200.5715,201.704,a,1,[],[],[],[],[],[],[],0.4502,1,201.7042,202.2038,,,,,,835,FEM,CON,150,muñeca,,a,0.4502,,,,202.2039,202.204,0.061400519,-0.336111228,0,0,0,,0,23,23,384,1,,,,
,,,,,,5d82a708d87495f1560f18c9,66a626ef09d4e21e1a8894ec,673644a69ffab0b3475962bc,2024-11-14_15h43.23.496,Tarea de género gramatical,2024.2.2,Win32,59.88023952,,,,,,,,,,,,,,,,,,,,,,202.205,203.3542,l,1,[],[],[],[],[],[],[],0.4717,1,203.3542,203.854,,,,,,600,MAS,AGR,150,mozo,el,l,0.4717,,,,203.855,203.8556,0.061400519,-0.336111228,0,0,0,,0,24,24,149,1,,,,
,,,,,,5d82a708d87495f1560f18c9,66a626ef09d4e21e1a8894ec,673644a69ffab0b3475962bc,2024-11-14_15h43.23.496,Tarea de género gramatical,2024.2.2,Win32,59.88023952,,,,,,,,,,,,,,,,,,,,,,203.8563,204.9374,l,1,[],[],[],[],[],[],[],0.4015,1,204.9375,205.4373,,,,,,491,MAS,DIS,150,bote,la,l,0.4015,,,,205.4374,205.4374,0.061400519,-0.336111228,0,0,0,,0,25,25,40,1,,,,
,,,,,,5d82a708d87495f1560f18c9,66a626ef09d4e21e1a8894ec,673644a69ffab0b3475962bc,2024-11-14_15h43.23.496,Tarea de género gramatical,2024.2.2,Win32,59.88023952,,,,,,,,,,,,,,,,,,,,,,205.4382,206.5874,a,1,[],[],[],[],[],[],[],0.4787,1,206.5874,207.0874,,,,,,728,FEM,DIS,150,presa,el,a,0.4787,,,,207.0875,207.0876,0.061400519,-0.336111228,0,0,0,,0,26,26,277,1,,,,
,,,,,,5d82a708d87495f1560f18c9,66a626ef09d4e21e1a8894ec,673644a69ffab0b3475962bc,2024-11-14_15h43.23.496,Tarea de género gramatical,2024.2.2,Win32,59.88023952,,,,,,,,,,,,,,,,,,,,,,207.0882,208.2043,l,1,[],[],[],[],[],[],[],0.4451,1,208.2043,208.7043,,,,,,478,MAS,CON,150,club,,l,0.4451,,,,208.7043,208.7044,0.061400519,-0.336111228,0,0,0,,0,27,27,27,1,,,,
,,,,,,5d82a708d87495f1560f18c9,66a626ef09d4e21e1a8894ec,673644a69ffab0b3475962bc,2024-11-14_15h43.23.496,Tarea de género gramatical,2024.2.2,Win32,59.88023952,,,,,,,,,,,,,,,,,,,,,,208.7053,210.0043,a,1,[],[],[],[],[],[],[],0.6199,1,210.0045,210.5041,,,,,,578,FEM,DIS,150,leña,el,a,0.6199,,,,210.5042,210.5042,0.061400519,-0.336111228,0,0,0,,0,28,28,127,1,,,,
,,,,,,5d82a708d87495f1560f18c9,66a626ef09d4e21e1a8894ec,673644a69ffab0b3475962bc,2024-11-14_15h43.23.496,Tarea de género gramatical,2024.2.2,Win32,59.88023952,,,,,,,,,,,,,,,,,,,,,,210.5048,211.7876,a,1,[],[],[],[],[],[],[],0.6126,1,211.7877,212.2876,,,,,,613,FEM,CON,150,calle,,a,0.6126,,,,212.289,212.2899,0.061400519,-0.336111228,0,0,0,,0,29,29,162,1,,,,
,,,,,,5d82a708d87495f1560f18c9,66a626ef09d4e21e1a8894ec,673644a69ffab0b3475962bc,2024-11-14_15h43.23.496,Tarea de género gramatical,2024.2.2,Win32,59.88023952,,,,,,,,,,,,,,,,,,,,,,212.2909,213.4045,l,1,[],[],[],[],[],[],[],0.437,1,213.4046,213.9043,,,,,,719,MAS,DIS,150,primo,la,l,0.437,,,,213.9044,213.9044,0.061400519,-0.336111228,0,0,0,,0,30,30,268,1,,,,
,,,,,,5d82a708d87495f1560f18c9,66a626ef09d4e21e1a8894ec,673644a69ffab0b3475962bc,2024-11-14_15h43.23.496,Tarea de género gramatical,2024.2.2,Win32,59.88023952,,,,,,,,,,,,,,,,,,,,,,213.9052,215.2045,a,0,[],[],[],[],[],[],[],0.6188,0,215.2052,215.7045,,,,,,575,MAS,DIS,150,bate,la,l,0.6188,,,,215.7045,215.7046,0.061400519,-0.336111228,0,0,0,,0,31,31,124,1,,,,
,,,,,,5d82a708d87495f1560f18c9,66a626ef09d4e21e1a8894ec,673644a69ffab0b3475962bc,2024-11-14_15h43.23.496,Tarea de género gramatical,2024.2.2,Win32,59.88023952,,,,,,,,,,,,,,,,,,,,,,215.7054,217.1712,l,1,[],[],[],[],[],[],[],0.7844,1,217.1722,217.6711,,,,,,634,MAS,CON,150,cielo,,l,0.7844,,,,217.6712,217.6712,0.061400519,-0.336111228,0,0,0,,0,32,32,183,1,,,,
,,,,,,5d82a708d87495f1560f18c9,66a626ef09d4e21e1a8894ec,673644a69ffab0b3475962bc,2024-11-14_15h43.23.496,Tarea de género gramatical,2024.2.2,Win32,59.88023952,,,,,,,,,,,,,,,,,,,,,,217.6721,218.8045,l,1,[],[],[],[],[],[],[],0.46,1,218.8045,219.3045,,,,,,708,MAS,AGR,150,polvo,el,l,0.46,,,,219.3058,219.3063,0.061400519,-0.336111228,0,0,0,,0,33,33,257,1,,,,
,,,,,,5d82a708d87495f1560f18c9,66a626ef09d4e21e1a8894ec,673644a69ffab0b3475962bc,2024-11-14_15h43.23.496,Tarea de género gramatical,2024.2.2,Win32,59.88023952,,,,,,,,,,,,,,,,,,,,,,219.3068,220.4878,l,1,[],[],[],[],[],[],[],0.5068,1,220.4879,220.988,,,,,,802,MAS,CON,150,estilo,,l,0.5068,,,,220.988,220.988,0.061400519,-0.336111228,0,0,0,,0,34,34,351,1,,,,
,,,,,,5d82a708d87495f1560f18c9,66a626ef09d4e21e1a8894ec,673644a69ffab0b3475962bc,2024-11-14_15h43.23.496,Tarea de género gramatical,2024.2.2,Win32,59.88023952,,,,,,,,,,,,,,,,,,,,,,220.9888,222.2047,a,1,[],[],[],[],[],[],[],0.5449,1,222.2047,222.7048,,,,,,757,FEM,CON,150,suerte,,a,0.5449,,,,222.7048,222.7049,0.061400519,-0.336111228,0,0,0,,0,35,35,306,1,,,,
,,,,,,5d82a708d87495f1560f18c9,66a626ef09d4e21e1a8894ec,673644a69ffab0b3475962bc,2024-11-14_15h43.23.496,Tarea de género gramatical,2024.2.2,Win32,59.88023952,,,,,,,,,,,,,,,,,,,,,,222.7059,223.9213,l,0,[],[],[],[],[],[],[],0.5389,0,223.9222,224.4215,,,,,,740,FEM,DIS,150,cabra,el,a,0.5389,,,,224.4215,224.4215,0.061400519,-0.336111228,0,0,0,,0,36,36,289,1,,,,
,,,,,,5d82a708d87495f1560f18c9,66a626ef09d4e21e1a8894ec,673644a69ffab0b3475962bc,2024-11-14_15h43.23.496,Tarea de género gramatical,2024.2.2,Win32,59.88023952,,,,,,,,,,,,,,,,,,,,,,224.4224,225.5881,l,1,[],[],[],[],[],[],[],0.4929,1,225.5888,226.0882,,,,,,767,MAS,DIS,150,número,la,l,0.4929,,,,226.0883,226.0884,0.061400519,-0.336111228,0,0,0,,0,37,37,316,1,,,,
,,,,,,5d82a708d87495f1560f18c9,66a626ef09d4e21e1a8894ec,673644a69ffab0b3475962bc,2024-11-14_15h43.23.496,Tarea de género gramatical,2024.2.2,Win32,59.88023952,,,,,,,,,,,,,,,,,,,,,,226.0893,227.2884,l,1,[],[],[],[],[],[],[],0.5229,1,227.2884,227.7882,,,,,,750,MAS,AGR,150,túnel,el,l,0.5229,,,,227.7897,227.7904,0.061400519,-0.336111228,0,0,0,,0,38,38,299,1,,,,
,,,,,,5d82a708d87495f1560f18c9,66a626ef09d4e21e1a8894ec,673644a69ffab0b3475962bc,2024-11-14_15h43.23.496,Tarea de género gramatical,2024.2.2,Win32,59.88023952,,,,,,,,,,,,,,,,,,,,,,227.7912,228.8882,l,1,[],[],[],[],[],[],[],0.4237,1,228.8883,229.3883,,,,,,664,MAS,CON,150,fondo,,l,0.4237,,,,229.3883,229.3884,0.061400519,-0.336111228,0,0,0,,0,39,39,213,1,,,,
,,,,,,5d82a708d87495f1560f18c9,66a626ef09d4e21e1a8894ec,673644a69ffab0b3475962bc,2024-11-14_15h43.23.496,Tarea de género gramatical,2024.2.2,Win32,59.88023952,,,,,,,,,,,,,,,,,,,,,,229.3891,230.7215,l,1,[],[],[],[],[],[],[],0.6642,1,230.7216,231.2216,,,,,,503,MAS,DIS,150,vaso,la,l,0.6642,,,,231.2217,231.2217,0.061400519,-0.336111228,0,0,0,,0,40,40,52,1,,,,
,,,,,,5d82a708d87495f1560f18c9,66a626ef09d4e21e1a8894ec,673644a69ffab0b3475962bc,2024-11-14_15h43.23.496,Tarea de género gramatical,2024.2.2,Win32,59.88023952,,,,,,,,,,,,,,,,,,,,,,231.2228,232.4383,a,1,[],[],[],[],[],[],[],0.5348,1,232.4384,232.9383,,,,,,476,FEM,DIS,150,pena,el,a,0.5348,,,,232.9383,232.9384,0.061400519,-0.336111228,0,0,0,,0,41,41,25,1,,,,
,,,,,,5d82a708d87495f1560f18c9,66a626ef09d4e21e1a8894ec,673644a69ffab0b3475962bc,2024-11-14_15h43.23.496,Tarea de género gramatical,2024.2.2,Win32,59.88023952,,,,,,,,,,,,,,,,,,,,,,232.9392,234.0884,a,1,[],[],[],[],[],[],[],0.4692,1,234.0885,234.5884,,,,,,848,FEM,DIS,150,hierba,el,a,0.4692,,,,234.5895,234.5902,0.061400519,-0.336111228,0,0,0,,0,42,42,397,1,,,,
,,,,,,5d82a708d87495f1560f18c9,66a626ef09d4e21e1a8894ec,673644a69ffab0b3475962bc,2024-11-14_15h43.23.496,Tarea de género gramatical,2024.2.2,Win32,59.88023952,,,,,,,,,,,,,,,,,,,,,,234.5907,235.8052,l,1,[],[],[],[],[],[],[],0.5427,1,235.8054,236.3053,,,,,,576,MAS,AGR,150,lazo,el,l,0.5427,,,,236.3054,236.3055,0.061400519,-0.336111228,0,0,0,,0,43,43,125,1,,,,
,,,,,,5d82a708d87495f1560f18c9,66a626ef09d4e21e1a8894ec,673644a69ffab0b3475962bc,2024-11-14_15h43.23.496,Tarea de género gramatical,2024.2.2,Win32,59.88023952,,,,,,,,,,,,,,,,,,,,,,236.3065,237.5219,l,1,[],[],[],[],[],[],[],0.5382,1,237.522,238.0218,,,,,,618,MAS,AGR,150,sitio,el,l,0.5382,,,,238.0219,238.0219,0.061400519,-0.336111228,0,0,0,,0,44,44,167,1,,,,
,,,,,,5d82a708d87495f1560f18c9,66a626ef09d4e21e1a8894ec,673644a69ffab0b3475962bc,2024-11-14_15h43.23.496,Tarea de género gramatical,2024.2.2,Win32,59.88023952,,,,,,,,,,,,,,,,,,,,,,238.0228,239.272,l,1,[],[],[],[],[],[],[],0.5728,1,239.272,239.7719,,,,,,462,MAS,AGR,150,plan,el,l,0.5728,,,,239.7719,239.7721,0.061400519,-0.336111228,0,0,0,,0,45,45,11,1,,,,
,,,,,,5d82a708d87495f1560f18c9,66a626ef09d4e21e1a8894ec,673644a69ffab0b3475962bc,2024-11-14_15h43.23.496,Tarea de género gramatical,2024.2.2,Win32,59.88023952,,,,,,,,,,,,,,,,,,,,,,239.773,240.9721,a,1,[],[],[],[],[],[],[],0.5263,1,240.9722,241.4721,,,,,,735,FEM,AGR,150,mafia,la,a,0.5263,,,,241.4721,241.4722,0.061400519,-0.336111228,0,0,0,,0,46,46,284,1,,,,
,,,,,,5d82a708d87495f1560f18c9,66a626ef09d4e21e1a8894ec,673644a69ffab0b3475962bc,2024-11-14_15h43.23.496,Tarea de género gramatical,2024.2.2,Win32,59.88023952,,,,,,,,,,,,,,,,,,,,,,241.4732,242.6054,l,1,[],[],[],[],[],[],[],0.4604,1,242.6056,243.1054,,,,,,810,MAS,AGR,150,puente,el,l,0.4604,,,,243.1066,243.1072,0.061400519,-0.336111228,0,0,0,,0,47,47,359,1,,,,
,,,,,,5d82a708d87495f1560f18c9,66a626ef09d4e21e1a8894ec,673644a69ffab0b3475962bc,2024-11-14_15h43.23.496,Tarea de género gramatical,2024.2.2,Win32,59.88023952,,,,,,,,,,,,,,,,,,,,,,243.108,244.2388,l,1,[],[],[],[],[],[],[],0.4521,1,244.2389,244.7388,,,,,,467,MAS,DIS,150,modo,la,l,0.4521,,,,244.7389,244.739,0.061400519,-0.336111228,0,0,0,,0,48,48,16,1,,,,
,,,,,,5d82a708d87495f1560f18c9,66a626ef09d4e21e1a8894ec,673644a69ffab0b3475962bc,2024-11-14_15h43.23.496,Tarea de género gramatical,2024.2.2,Win32,59.88023952,,,,,,,,,,,,,,,,,,,,,,244.7398,245.8555,a,1,[],[],[],[],[],[],[],0.4399,1,245.8555,246.3556,,,,,,495,FEM,AGR,150,isla,la,a,0.4399,,,,246.3556,246.3557,0.061400519,-0.336111228,0,0,0,,0,49,49,44,1,,,,
,,,,,,5d82a708d87495f1560f18c9,66a626ef09d4e21e1a8894ec,673644a69ffab0b3475962bc,2024-11-14_15h43.23.496,Tarea de género gramatical,2024.2.2,Win32,59.88023952,,,,,,,,,,,,,,,,,,,,,,246.3565,247.6555,a,1,[],[],[],[],[],[],[],0.6173,1,247.6557,248.1555,,,,,,769,FEM,CON,150,sangre,,a,0.6173,,,,248.1557,248.1557,0.061400519,-0.336111228,0,0,0,,0,50,50,318,1,,,,
,,,,,,5d82a708d87495f1560f18c9,66a626ef09d4e21e1a8894ec,673644a69ffab0b3475962bc,2024-11-14_15h43.23.496,Tarea de género gramatical,2024.2.2,Win32,59.88023952,,,,,,,,,,,,,,,,,,,,,,248.1563,249.5557,l,0,[],[],[],[],[],[],[],0.719,0,249.5563,250.0557,,,,,,573,FEM,AGR,150,tela,la,a,0.719,,,,250.0568,250.0574,0.061400519,-0.336111228,0,0,0,,0,51,51,122,1,,,,
,,,,,,5d82a708d87495f1560f18c9,66a626ef09d4e21e1a8894ec,673644a69ffab0b3475962bc,2024-11-14_15h43.23.496,Tarea de género gramatical,2024.2.2,Win32,59.88023952,,,,,,,,,,,,,,,,,,,,,,250.0579,251.5558,a,1,[],[],[],[],[],[],[],0.8198,1,251.5563,252.0557,,,,,,579,FEM,AGR,150,rana,la,a,0.8198,,,,252.0557,252.0558,0.061400519,-0.336111228,0,0,0,,0,52,52,128,1,,,,
,,,,,,5d82a708d87495f1560f18c9,66a626ef09d4e21e1a8894ec,673644a69ffab0b3475962bc,2024-11-14_15h43.23.496,Tarea de género gramatical,2024.2.2,Win32,59.88023952,,,,,,,,,,,,,,,,,,,,,,252.0569,253.2559,a,1,[],[],[],[],[],[],[],0.517,1,253.256,253.7557,,,,,,691,FEM,CON,150,pasta,,a,0.517,,,,253.7557,253.7557,0.061400519,-0.336111228,0,0,0,,0,53,53,240,1,,,,
,,,,,,5d82a708d87495f1560f18c9,66a626ef09d4e21e1a8894ec,673644a69ffab0b3475962bc,2024-11-14_15h43.23.496,Tarea de género gramatical,2024.2.2,Win32,59.88023952,,,,,,,,,,,,,,,,,,,,,,253.7566,254.8724,l,1,[],[],[],[],[],[],[],0.4395,1,254.8724,255.3726,,,,,,852,MAS,AGR,150,ladrón,el,l,0.4395,,,,255.3727,255.3727,0.061400519,-0.336111228,0,0,0,,0,54,54,401,1,,,,
,,,,,,5d82a708d87495f1560f18c9,66a626ef09d4e21e1a8894ec,673644a69ffab0b3475962bc,2024-11-14_15h43.23.496,Tarea de género gramatical,2024.2.2,Win32,59.88023952,,,,,,,,,,,,,,,,,,,,,,255.3734,256.5224,a,1,[],[],[],[],[],[],[],0.4706,1,256.5225,257.0225,,,,,,877,FEM,CON,150,agenda,,a,0.4706,,,,257.0226,257.0227,0.061400519,-0.336111228,0,0,0,,0,55,55,426,1,,,,
,,,,,,5d82a708d87495f1560f18c9,66a626ef09d4e21e1a8894ec,673644a69ffab0b3475962bc,2024-11-14_15h43.23.496,Tarea de género gramatical,2024.2.2,Win32,59.88023952,,,,,,,,,,,,,,,,,,,,,,257.0237,258.2393,l,1,[],[],[],[],[],[],[],0.5357,1,258.2394,258.7392,,,,,,612,MAS,AGR,150,miedo,el,l,0.5357,,,,258.74,258.7408,0.061400519,-0.336111228,0,0,0,,0,56,56,161,1,,,,
,,,,,,5d82a708d87495f1560f18c9,66a626ef09d4e21e1a8894ec,673644a69ffab0b3475962bc,2024-11-14_15h43.23.496,Tarea de género gramatical,2024.2.2,Win32,59.88023952,,,,,,,,,,,,,,,,,,,,,,258.7413,259.9227,a,1,[],[],[],[],[],[],[],0.503,1,259.9228,260.4228,,,,,,872,FEM,DIS,150,rutina,el,a,0.503,,,,260.4229,260.4229,0.061400519,-0.336111228,0,0,0,,0,57,57,421,1,,,,
,,,,,,5d82a708d87495f1560f18c9,66a626ef09d4e21e1a8894ec,673644a69ffab0b3475962bc,2024-11-14_15h43.23.496,Tarea de género gramatical,2024.2.2,Win32,59.88023952,,,,,,,,,,,,,,,,,,,,,,260.424,261.7561,a,1,[],[],[],[],[],[],[],0.6529,1,261.7561,262.2559,,,,,,549,FEM,AGR,150,fase,la,a,0.6529,,,,262.256,262.256,0.061400519,-0.336111228,0,0,0,,0,58,58,98,1,,,,
,,,,,,5d82a708d87495f1560f18c9,66a626ef09d4e21e1a8894ec,673644a69ffab0b3475962bc,2024-11-14_15h43.23.496,Tarea de género gramatical,2024.2.2,Win32,59.88023952,,,,,,,,,,,,,,,,,,,,,,262.2568,263.4063,l,1,[],[],[],[],[],[],[],0.4767,1,263.4064,263.9061,,,,,,894,MAS,AGR,150,límite,el,l,0.4767,,,,263.9061,263.9062,0.061400519,-0.336111228,0,0,0,,0,59,59,443,1,,,,
,,,,,,5d82a708d87495f1560f18c9,66a626ef09d4e21e1a8894ec,673644a69ffab0b3475962bc,2024-11-14_15h43.23.496,Tarea de género gramatical,2024.2.2,Win32,59.88023952,,,,,,,,,,,,,,,,,,,,,,263.9071,265.0728,a,1,[],[],[],[],[],[],[],0.4899,1,265.0729,265.5729,,,,,,853,FEM,CON,150,paliza,,a,0.4899,,,,265.5739,265.5744,0.061400519,-0.336111228,0,0,0,,0,60,60,402,1,,,,
,,,,,,5d82a708d87495f1560f18c9,66a626ef09d4e21e1a8894ec,673644a69ffab0b3475962bc,2024-11-14_15h43.23.496,Tarea de género gramatical,2024.2.2,Win32,59.88023952,,,,,,,,,,,,,,,,,,,,,,265.5749,266.8565,l,1,[],[],[],[],[],[],[],0.6059,1,266.8565,267.3563,,,,,,514,MAS,CON,150,saco,,l,0.6059,,,,267.3563,267.3564,0.061400519,-0.336111228,0,0,0,,0,61,61,63,1,,,,
,,,,,,5d82a708d87495f1560f18c9,66a626ef09d4e21e1a8894ec,673644a69ffab0b3475962bc,2024-11-14_15h43.23.496,Tarea de género gramatical,2024.2.2,Win32,59.88023952,,,,,,,,,,,,,,,,,,,,,,267.3573,268.5062,l,1,[],[],[],[],[],[],[],0.4781,1,268.5064,269.0061,,,,,,592,MAS,CON,150,lodo,,l,0.4781,,,,269.0062,269.0062,0.061400519,-0.336111228,0,0,0,,0,62,62,141,1,,,,
,,,,,,5d82a708d87495f1560f18c9,66a626ef09d4e21e1a8894ec,673644a69ffab0b3475962bc,2024-11-14_15h43.23.496,Tarea de género gramatical,2024.2.2,Win32,59.88023952,,,,,,,,,,,,,,,,,,,,,,269.0069,270.1564,l,1,[],[],[],[],[],[],[],0.4766,1,270.1565,270.6564,,,,,,646,MAS,CON,150,barco,,l,0.4766,,,,270.6564,270.6564,0.061400519,-0.336111228,0,0,0,,0,63,63,195,1,,,,
,,,,,,5d82a708d87495f1560f18c9,66a626ef09d4e21e1a8894ec,673644a69ffab0b3475962bc,2024-11-14_15h43.23.496,Tarea de género gramatical,2024.2.2,Win32,59.88023952,,,,,,,,,,,,,,,,,,,,,,270.6574,271.923,a,1,[],[],[],[],[],[],[],0.5864,1,271.9231,272.423,,,,,,668,FEM,DIS,150,nieve,el,a,0.5864,,,,272.4231,272.4232,0.061400519,-0.336111228,0,0,0,,0,64,64,217,1,,,,
,,,,,,5d82a708d87495f1560f18c9,66a626ef09d4e21e1a8894ec,673644a69ffab0b3475962bc,2024-11-14_15h43.23.496,Tarea de género gramatical,2024.2.2,Win32,59.88023952,,,,,,,,,,,,,,,,,,,,,,272.4242,273.6064,a,1,[],[],[],[],[],[],[],0.5089,1,273.6065,274.1065,,,,,,745,FEM,CON,150,grasa,,a,0.5089,,,,274.1075,274.108,0.061400519,-0.336111228,0,0,0,,0,65,65,294,1,,,,
,,,,,,5d82a708d87495f1560f18c9,66a626ef09d4e21e1a8894ec,673644a69ffab0b3475962bc,2024-11-14_15h43.23.496,Tarea de género gramatical,2024.2.2,Win32,59.88023952,,,,,,,,,,,,,,,,,,,,,,274.1086,275.5065,a,1,[],[],[],[],[],[],[],0.728,1,275.5066,276.0065,,,,,,865,FEM,CON,150,cabina,,a,0.728,,,,276.0066,276.0067,0.061400519,-0.336111228,0,0,0,,0,66,66,414,1,,,,
,,,,,,5d82a708d87495f1560f18c9,66a626ef09d4e21e1a8894ec,673644a69ffab0b3475962bc,2024-11-14_15h43.23.496,Tarea de género gramatical,2024.2.2,Win32,59.88023952,,,,,,,,,,,,,,,,,,,,,,276.0074,277.4233,a,1,[],[],[],[],[],[],[],0.7339,1,277.4234,277.9234,,,,,,511,FEM,CON,150,ruta,,a,0.7339,,,,277.9235,277.9236,0.061400519,-0.336111228,0,0,0,,0,67,67,60,1,,,,
,,,,,,5d82a708d87495f1560f18c9,66a626ef09d4e21e1a8894ec,673644a69ffab0b3475962bc,2024-11-14_15h43.23.496,Tarea de género gramatical,2024.2.2,Win32,59.88023952,,,,,,,,,,,,,,,,,,,,,,277.9245,279.0566,l,1,[],[],[],[],[],[],[],0.4511,1,279.0567,279.5565,,,,,,641,MAS,DIS,150,dolor,la,l,0.4511,,,,279.5566,279.5567,0.061400519,-0.336111228,0,0,0,,0,68,68,190,1,,,,
,,,,,,5d82a708d87495f1560f18c9,66a626ef09d4e21e1a8894ec,673644a69ffab0b3475962bc,2024-11-14_15h43.23.496,Tarea de género gramatical,2024.2.2,Win32,59.88023952,,,,,,,,,,,,,,,,,,,,,,279.5573,280.9067,a,1,[],[],[],[],[],[],[],0.6787,1,280.9068,281.4067,,,,,,847,FEM,CON,150,cuerda,,a,0.6787,,,,281.4074,281.4079,0.061400519,-0.336111228,0,0,0,,0,69,69,396,1,,,,
,,,,,,5d82a708d87495f1560f18c9,66a626ef09d4e21e1a8894ec,673644a69ffab0b3475962bc,2024-11-14_15h43.23.496,Tarea de género gramatical,2024.2.2,Win32,59.88023952,,,,,,,,,,,,,,,,,,,,,,281.4085,282.5568,a,1,[],[],[],[],[],[],[],0.4776,1,282.5569,283.0568,,,,,,777,FEM,AGR,150,tienda,la,a,0.4776,,,,283.0568,283.0568,0.061400519,-0.336111228,0,0,0,,0,70,70,326,1,,,,
,,,,,,5d82a708d87495f1560f18c9,66a626ef09d4e21e1a8894ec,673644a69ffab0b3475962bc,2024-11-14_15h43.23.496,Tarea de género gramatical,2024.2.2,Win32,59.88023952,,,,,,,,,,,,,,,,,,,,,,283.0574,284.2236,l,1,[],[],[],[],[],[],[],0.484,1,284.2236,284.7235,,,,,,528,MAS,AGR,150,oído,el,l,0.484,,,,284.7235,284.7237,0.061400519,-0.336111228,0,0,0,,0,71,71,77,1,,,,
,,,,,,5d82a708d87495f1560f18c9,66a626ef09d4e21e1a8894ec,673644a69ffab0b3475962bc,2024-11-14_15h43.23.496,Tarea de género gramatical,2024.2.2,Win32,59.88023952,,,,,,,,,,,,,,,,,,,,,,284.7243,285.9238,a,1,[],[],[],[],[],[],[],0.5278,1,285.9239,286.4237,,,,,,733,FEM,CON,150,pluma,,a,0.5278,,,,286.4238,286.4238,0.061400519,-0.336111228,0,0,0,,0,72,72,282,1,,,,
,,,,,,5d82a708d87495f1560f18c9,66a626ef09d4e21e1a8894ec,673644a69ffab0b3475962bc,2024-11-14_15h43.23.496,Tarea de género gramatical,2024.2.2,Win32,59.88023952,,,,,,,,,,,,,,,,,,,,,,286.4248,287.9738,a,1,[],[],[],[],[],[],[],0.8767,1,287.9739,288.4737,,,,,,741,FEM,AGR,150,aguja,la,a,0.8767,,,,288.4738,288.4739,0.061400519,-0.336111228,0,0,0,,0,73,73,290,1,,,,
,,,,,,5d82a708d87495f1560f18c9,66a626ef09d4e21e1a8894ec,673644a69ffab0b3475962bc,2024-11-14_15h43.23.496,Tarea de género gramatical,2024.2.2,Win32,59.88023952,,,,,,,,,,,,,,,,,,,,,,288.4751,289.757,a,1,[],[],[],[],[],[],[],0.6017,1,289.7571,290.257,,,,,,459,FEM,AGR,150,mamá,la,a,0.6017,,,,290.2579,290.2584,0.061400519,-0.336111228,0,0,0,,0,74,74,8,1,,,,
,,,,,,5d82a708d87495f1560f18c9,66a626ef09d4e21e1a8894ec,673644a69ffab0b3475962bc,2024-11-14_15h43.23.496,Tarea de género gramatical,2024.2.2,Win32,59.88023952,,,,,,,,,,,,,,,,,,,,,,290.2589,291.3403,l,1,[],[],[],[],[],[],[],0.4032,1,291.3404,291.8403,,,,,,706,MAS,CON,150,techo,,l,0.4032,,,,291.8403,291.8405,0.061400519,-0.336111228,0,0,0,,0,75,75,255,1,,,,
,,,,,,5d82a708d87495f1560f18c9,66a626ef09d4e21e1a8894ec,673644a69ffab0b3475962bc,2024-11-14_15h43.23.496,Tarea de género gramatical,2024.2.2,Win32,59.88023952,,,,,,,,,,,,,,,,,,,,,,291.8413,293.0572,l,1,[],[],[],[],[],[],[],0.539,1,293.0572,293.5572,,,,,,636,MAS,AGR,150,error,el,l,0.539,,,,293.5573,293.5574,0.061400519,-0.336111228,0,0,0,,0,76,76,185,1,,,,
,,,,,,5d82a708d87495f1560f18c9,66a626ef09d4e21e1a8894ec,673644a69ffab0b3475962bc,2024-11-14_15h43.23.496,Tarea de género gramatical,2024.2.2,Win32,59.88023952,,,,,,,,,,,,,,,,,,,,,,293.5582,294.7571,a,1,[],[],[],[],[],[],[],0.5274,1,294.7572,295.2572,,,,,,517,FEM,CON,150,miel,,a,0.5274,,,,295.2573,295.2573,0.061400519,-0.336111228,0,0,0,,0,77,77,66,1,,,,
,,,,,,5d82a708d87495f1560f18c9,66a626ef09d4e21e1a8894ec,673644a69ffab0b3475962bc,2024-11-14_15h43.23.496,Tarea de género gramatical,2024.2.2,Win32,59.88023952,,,,,,,,,,,,,,,,,,,,,,295.2582,296.6906,a,1,[],[],[],[],[],[],[],0.7542,1,296.6907,297.1905,,,,,,715,FEM,CON,150,rueda,,a,0.7542,,,,297.1914,297.1919,0.061400519,-0.336111228,0,0,0,,0,78,78,264,1,,,,
,,,,,,5d82a708d87495f1560f18c9,66a626ef09d4e21e1a8894ec,673644a69ffab0b3475962bc,2024-11-14_15h43.23.496,Tarea de género gramatical,2024.2.2,Win32,59.88023952,,,,,,,,,,,,,,,,,,,,,,297.1924,298.2906,a,1,[],[],[],[],[],[],[],0.4293,1,298.2906,298.7906,,,,,,451,FEM,CON,150,casa,,a,0.4293,,,,298.7906,298.7907,0.061400519,-0.336111228,0,0,0,,0,79,79,0,1,,,,
,,,,,,5d82a708d87495f1560f18c9,66a626ef09d4e21e1a8894ec,673644a69ffab0b3475962bc,2024-11-14_15h43.23.496,Tarea de género gramatical,2024.2.2,Win32,59.88023952,,,,,,,,,,,,,,,,,,,,,,298.7916,300.074,l,1,[],[],[],[],[],[],[],0.6132,1,300.0742,300.5742,,,,,,774,MAS,AGR,150,cuarto,el,l,0.6132,,,,300.5743,300.5743,0.061400519,-0.336111228,0,0,0,,0,80,80,323,1,,,,
,,,,,,5d82a708d87495f1560f18c9,66a626ef09d4e21e1a8894ec,673644a69ffab0b3475962bc,2024-11-14_15h43.23.496,Tarea de género gramatical,2024.2.2,Win32,59.88023952,,,,,,,,,,,,,,,,,,,,,,300.5751,301.8074,a,1,[],[],[],[],[],[],[],0.5588,1,301.8075,302.3075,,,,,,703,FEM,CON,150,aldea,,a,0.5588,,,,302.3076,302.3076,0.061400519,-0.336111228,0,0,0,,0,81,81,252,1,,,,
,,,,,,5d82a708d87495f1560f18c9,66a626ef09d4e21e1a8894ec,673644a69ffab0b3475962bc,2024-11-14_15h43.23.496,Tarea de género gramatical,2024.2.2,Win32,59.88023952,,,,,,,,,,,,,,,,,,,,,,302.3085,303.6575,l,1,[],[],[],[],[],[],[],0.6669,1,303.6576,304.1575,,,,,,594,MAS,AGR,150,amor,el,l,0.6669,,,,304.1575,304.1575,0.061400519,-0.336111228,0,0,0,,0,82,82,143,1,,,,
,,,,,,5d82a708d87495f1560f18c9,66a626ef09d4e21e1a8894ec,673644a69ffab0b3475962bc,2024-11-14_15h43.23.496,Tarea de género gramatical,2024.2.2,Win32,59.88023952,,,,,,,,,,,,,,,,,,,,,,304.1583,305.3242,l,1,[],[],[],[],[],[],[],0.4882,1,305.3242,305.8241,,,,,,756,MAS,AGR,150,dinero,el,l,0.4882,,,,305.8251,305.8257,0.061400519,-0.336111228,0,0,0,,0,83,83,305,1,,,,
,,,,,,5d82a708d87495f1560f18c9,66a626ef09d4e21e1a8894ec,673644a69ffab0b3475962bc,2024-11-14_15h43.23.496,Tarea de género gramatical,2024.2.2,Win32,59.88023952,,,,,,,,,,,,,,,,,,,,,,305.8263,306.9743,l,1,[],[],[],[],[],[],[],0.4682,1,306.9743,307.4744,,,,,,570,MAS,AGR,150,puño,el,l,0.4682,,,,307.4745,307.4745,0.061400519,-0.336111228,0,0,0,,0,84,84,119,1,,,,
,,,,,,5d82a708d87495f1560f18c9,66a626ef09d4e21e1a8894ec,673644a69ffab0b3475962bc,2024-11-14_15h43.23.496,Tarea de género gramatical,2024.2.2,Win32,59.88023952,,,,,,,,,,,,,,,,,,,,,,307.4752,308.8411,a,0,[],[],[],[],[],[],[],0.6837,0,308.8419,309.341,,,,,,682,MAS,CON,150,calor,,l,0.6837,,,,309.3411,309.3411,0.061400519,-0.336111228,0,0,0,,0,85,85,231,1,,,,
,,,,,,5d82a708d87495f1560f18c9,66a626ef09d4e21e1a8894ec,673644a69ffab0b3475962bc,2024-11-14_15h43.23.496,Tarea de género gramatical,2024.2.2,Win32,59.88023952,,,,,,,,,,,,,,,,,,,,,,309.3422,311.0243,l,1,[],[],[],[],[],[],[],1.0008,1,311.025,311.5246,,,,,,563,MAS,DIS,150,toro,la,l,1.0008,,,,311.5246,311.5247,0.061400519,-0.336111228,0,0,0,,0,86,86,112,1,,,,
,,,,,,5d82a708d87495f1560f18c9,66a626ef09d4e21e1a8894ec,673644a69ffab0b3475962bc,2024-11-14_15h43.23.496,Tarea de género gramatical,2024.2.2,Win32,59.88023952,,,,,,,,,,,,,,,,,,,,,,311.5254,313.1244,a,1,[],[],[],[],[],[],[],0.9287,1,313.1245,313.6245,,,,,,662,FEM,DIS,150,cinta,el,a,0.9287,,,,313.6253,313.6259,0.061400519,-0.336111228,0,0,0,,0,87,87,211,1,,,,
,,,,,,5d82a708d87495f1560f18c9,66a626ef09d4e21e1a8894ec,673644a69ffab0b3475962bc,2024-11-14_15h43.23.496,Tarea de género gramatical,2024.2.2,Win32,59.88023952,,,,,,,,,,,,,,,,,,,,,,313.6263,314.9913,a,1,[],[],[],[],[],[],[],0.6909,1,314.9914,315.4913,,,,,,512,FEM,DIS,150,sopa,el,a,0.6909,,,,315.4913,315.4914,0.061400519,-0.336111228,0,0,0,,0,88,88,61,1,,,,
,,,,,,5d82a708d87495f1560f18c9,66a626ef09d4e21e1a8894ec,673644a69ffab0b3475962bc,2024-11-14_15h43.23.496,Tarea de género gramatical,2024.2.2,Win32,59.88023952,,,,,,,,,,,,,,,,,,,,,,315.492,316.7746,l,1,[],[],[],[],[],[],[],0.6008,1,316.7748,317.2747,,,,,,617,MAS,DIS,150,juego,la,l,0.6008,,,,317.2747,317.2747,0.061400519,-0.336111228,0,0,0,,0,89,89,166,1,,,,
,,,,,,5d82a708d87495f1560f18c9,66a626ef09d4e21e1a8894ec,673644a69ffab0b3475962bc,2024-11-14_15h43.23.496,Tarea de género gramatical,2024.2.2,Win32,59.88023952,,,,,,,,,,,,,,,,,,,,,,317.2754,318.5245,l,1,[],[],[],[],[],[],[],0.5777,1,318.5247,319.0246,,,,,,671,MAS,DIS,150,brazo,la,l,0.5777,,,,319.0247,319.0247,0.061400519,-0.336111228,0,0,0,,0,90,90,220,1,,,,
,,,,,,5d82a708d87495f1560f18c9,66a626ef09d4e21e1a8894ec,673644a69ffab0b3475962bc,2024-11-14_15h43.23.496,Tarea de género gramatical,2024.2.2,Win32,59.88023952,,,,,,,,,,,,,,,,,,,,,,319.0257,320.2414,a,1,[],[],[],[],[],[],[],0.5469,1,320.2414,320.7413,,,,,,885,FEM,AGR,150,niebla,la,a,0.5469,,,,320.7414,320.7414,0.061400519,-0.336111228,0,0,0,,0,91,91,434,1,,,,
,,,,,,5d82a708d87495f1560f18c9,66a626ef09d4e21e1a8894ec,673644a69ffab0b3475962bc,2024-11-14_15h43.23.496,Tarea de género gramatical,2024.2.2,Win32,59.88023952,,,,,,,,,,,,,,,,,,,,,,320.7433,322.0584,l,0,[],[],[],[],[],[],[],0.639,0,322.0588,322.5581,,,,,,776,FEM,DIS,150,música,el,a,0.639,,,,322.5589,322.5594,0.061400519,-0.336111228,0,0,0,,0,92,92,325,1,,,,
,,,,,,5d82a708d87495f1560f18c9,66a626ef09d4e21e1a8894ec,673644a69ffab0b3475962bc,2024-11-14_15h43.23.496,Tarea de género gramatical,2024.2.2,Win32,59.88023952,,,,,,,,,,,,,,,,,,,,,,322.56,323.7748,a,1,[],[],[],[],[],[],[],0.5348,1,323.7754,324.275,,,,,,500,FEM,DIS,150,dama,el,a,0.5348,,,,324.2751,324.2751,0.061400519,-0.336111228,0,0,0,,0,93,93,49,1,,,,
,,,,,,5d82a708d87495f1560f18c9,66a626ef09d4e21e1a8894ec,673644a69ffab0b3475962bc,2024-11-14_15h43.23.496,Tarea de género gramatical,2024.2.2,Win32,59.88023952,,,,,,,,,,,,,,,,,,,,,,324.2762,325.7248,a,1,[],[],[],[],[],[],[],0.7773,1,325.7249,326.2248,,,,,,656,FEM,DIS,150,época,el,a,0.7773,,,,326.2248,326.2249,0.061400519,-0.336111228,0,0,0,,0,94,94,205,1,,,,
,,,,,,5d82a708d87495f1560f18c9,66a626ef09d4e21e1a8894ec,673644a69ffab0b3475962bc,2024-11-14_15h43.23.496,Tarea de género gramatical,2024.2.2,Win32,59.88023952,,,,,,,,,,,,,,,,,,,,,,326.2256,327.6417,a,1,[],[],[],[],[],[],[],0.7346,1,327.6417,328.1416,,,,,,643,FEM,CON,150,bolsa,,a,0.7346,,,,328.1416,328.1417,0.061400519,-0.336111228,0,0,0,,0,95,95,192,1,,,,
,,,,,,5d82a708d87495f1560f18c9,66a626ef09d4e21e1a8894ec,673644a69ffab0b3475962bc,2024-11-14_15h43.23.496,Tarea de género gramatical,2024.2.2,Win32,59.88023952,,,,,,,,,,,,,,,,,,,,,,328.1425,329.4751,a,1,[],[],[],[],[],[],[],0.6543,1,329.4751,329.9749,,,,,,800,FEM,DIS,150,imagen,el,a,0.6543,,,,329.976,329.9769,0.061400519,-0.336111228,0,0,0,,0,96,96,349,1,,,,
,,,,,,5d82a708d87495f1560f18c9,66a626ef09d4e21e1a8894ec,673644a69ffab0b3475962bc,2024-11-14_15h43.23.496,Tarea de género gramatical,2024.2.2,Win32,59.88023952,,,,,,,,,,,,,,,,,,,,,,329.9776,331.0918,l,1,[],[],[],[],[],[],[],0.4451,1,331.0919,331.5917,,,,,,624,MAS,AGR,150,perro,el,l,0.4451,,,,331.5917,331.5918,0.061400519,-0.336111228,0,0,0,,0,97,97,173,1,,,,
,,,,,,5d82a708d87495f1560f18c9,66a626ef09d4e21e1a8894ec,673644a69ffab0b3475962bc,2024-11-14_15h43.23.496,Tarea de género gramatical,2024.2.2,Win32,59.88023952,,,,,,,,,,,,,,,,,,,,,,331.5924,332.8085,a,1,[],[],[],[],[],[],[],0.5399,1,332.8086,333.3086,,,,,,891,FEM,AGR,150,medida,la,a,0.5399,,,,333.3086,333.3087,0.061400519,-0.336111228,0,0,0,,0,98,98,440,1,,,,
,,,,,,5d82a708d87495f1560f18c9,66a626ef09d4e21e1a8894ec,673644a69ffab0b3475962bc,2024-11-14_15h43.23.496,Tarea de género gramatical,2024.2.2,Win32,59.88023952,,,,,,,,,,,,,,,,,,,,,,333.3099,334.4919,a,1,[],[],[],[],[],[],[],0.5035,1,334.4919,334.9919,,,,,,723,FEM,AGR,150,tarta,la,a,0.5035,,,,334.992,334.992,0.061400519,-0.336111228,0,0,0,,0,99,99,272,1,,,,
,,,,,,5d82a708d87495f1560f18c9,66a626ef09d4e21e1a8894ec,673644a69ffab0b3475962bc,2024-11-14_15h43.23.496,Tarea de género gramatical,2024.2.2,Win32,59.88023952,,,,,,,,,,,,,,,,,,,,,,334.9926,336.1252,a,1,[],[],[],[],[],[],[],0.4606,1,336.1253,336.6252,,,,,,673,FEM,CON,150,plata,,a,0.4606,,,,336.6252,336.6253,0.061400519,-0.336111228,0,0,0,,0,100,100,222,1,,,,
,,,,,,5d82a708d87495f1560f18c9,66a626ef09d4e21e1a8894ec,673644a69ffab0b3475962bc,2024-11-14_15h43.23.496,Tarea de género gramatical,2024.2.2,Win32,59.88023952,,,,,,,,,,,,,,,,,,,,,,336.626,337.9588,a,1,[],[],[],[],[],[],[],0.6514,1,337.9588,338.4586,,,,,,781,FEM,CON,150,cárcel,,a,0.6514,,,,338.4593,338.4597,0.061400519,-0.336111228,0,0,0,,0,101,101,330,1,,,,
,,,,,,5d82a708d87495f1560f18c9,66a626ef09d4e21e1a8894ec,673644a69ffab0b3475962bc,2024-11-14_15h43.23.496,Tarea de género gramatical,2024.2.2,Win32,59.88023952,,,,,,,,,,,,,,,,,,,,,,338.4602,339.5921,a,1,[],[],[],[],[],[],[],0.4572,1,339.5921,340.0921,,,,,,873,FEM,AGR,150,poesía,la,a,0.4572,,,,340.0922,340.0922,0.061400519,-0.336111228,0,0,0,,0,102,102,422,1,,,,
,,,,,,5d82a708d87495f1560f18c9,66a626ef09d4e21e1a8894ec,673644a69ffab0b3475962bc,2024-11-14_15h43.23.496,Tarea de género gramatical,2024.2.2,Win32,59.88023952,,,,,,,,,,,,,,,,,,,,,,340.0929,341.2422,l,1,[],[],[],[],[],[],[],0.4661,1,341.2422,341.7421,,,,,,881,MAS,DIS,150,veneno,la,l,0.4661,,,,341.7422,341.7422,0.061400519,-0.336111228,0,0,0,,0,103,103,430,1,,,,
,,,,,,5d82a708d87495f1560f18c9,66a626ef09d4e21e1a8894ec,673644a69ffab0b3475962bc,2024-11-14_15h43.23.496,Tarea de género gramatical,2024.2.2,Win32,59.88023952,,,,,,,,,,,,,,,,,,,,,,341.7429,342.9923,a,1,[],[],[],[],[],[],[],0.5728,1,342.9923,343.4924,,,,,,452,FEM,DIS,150,vida,el,a,0.5728,,,,343.4924,343.4924,0.061400519,-0.336111228,0,0,0,,0,104,104,1,1,,,,
,,,,,,5d82a708d87495f1560f18c9,66a626ef09d4e21e1a8894ec,673644a69ffab0b3475962bc,2024-11-14_15h43.23.496,Tarea de género gramatical,2024.2.2,Win32,59.88023952,,,,,,,,,,,,,,,,,,,,,,343.4933,344.6754,l,1,[],[],[],[],[],[],[],0.512,1,344.6756,345.1755,,,,,,496,MAS,CON,150,odio,,l,0.512,,,,345.1763,345.1768,0.061400519,-0.336111228,0,0,0,,0,105,105,45,1,,,,
,,,,,,5d82a708d87495f1560f18c9,66a626ef09d4e21e1a8894ec,673644a69ffab0b3475962bc,2024-11-14_15h43.23.496,Tarea de género gramatical,2024.2.2,Win32,59.88023952,,,,,,,,,,,,,,,,,,,,,,345.1773,346.3755,a,1,[],[],[],[],[],[],[],0.5185,1,346.3756,346.8757,,,,,,506,FEM,DIS,150,bola,el,a,0.5185,,,,346.8757,346.8758,0.061400519,-0.336111228,0,0,0,,0,106,106,55,1,,,,
,,,,,,5d82a708d87495f1560f18c9,66a626ef09d4e21e1a8894ec,673644a69ffab0b3475962bc,2024-11-14_15h43.23.496,Tarea de género gramatical,2024.2.2,Win32,59.88023952,,,,,,,,,,,,,,,,,,,,,,346.8768,348.0922,a,1,[],[],[],[],[],[],[],0.5464,1,348.0922,348.5924,,,,,,632,FEM,DIS,150,prisa,el,a,0.5464,,,,348.5924,348.5925,0.061400519,-0.336111228,0,0,0,,0,107,107,181,1,,,,
,,,,,,5d82a708d87495f1560f18c9,66a626ef09d4e21e1a8894ec,673644a69ffab0b3475962bc,2024-11-14_15h43.23.496,Tarea de género gramatical,2024.2.2,Win32,59.88023952,,,,,,,,,,,,,,,,,,,,,,348.5931,349.9759,l,0,[],[],[],[],[],[],[],0.7002,0,349.9766,350.4758,,,,,,535,FEM,CON,150,gira,,a,0.7002,,,,350.4758,350.4759,0.061400519,-0.336111228,0,0,0,,0,108,108,84,1,,,,
,,,,,,5d82a708d87495f1560f18c9,66a626ef09d4e21e1a8894ec,673644a69ffab0b3475962bc,2024-11-14_15h43.23.496,Tarea de género gramatical,2024.2.2,Win32,59.88023952,,,,,,,,,,,,,,,,,,,,,,350.4766,351.859,l,1,[],[],[],[],[],[],[],0.7034,1,351.8594,352.3592,,,,,,695,MAS,DIS,150,turno,la,l,0.7034,,,,352.3593,352.3594,0.061400519,-0.336111228,0,0,0,,0,109,109,244,1,,,,
,,,,,,5d82a708d87495f1560f18c9,66a626ef09d4e21e1a8894ec,673644a69ffab0b3475962bc,2024-11-14_15h43.23.496,Tarea de género gramatical,2024.2.2,Win32,59.88023952,,,,,,,,,,,,,,,,,,,,,,352.3601,353.8092,a,1,[],[],[],[],[],[],[],0.773,1,353.8092,354.3093,,,,,,825,FEM,AGR,150,cadena,la,a,0.773,,,,354.31,354.3106,0.061400519,-0.336111228,0,0,0,,0,110,110,374,1,,,,
,,,,,,5d82a708d87495f1560f18c9,66a626ef09d4e21e1a8894ec,673644a69ffab0b3475962bc,2024-11-14_15h43.23.496,Tarea de género gramatical,2024.2.2,Win32,59.88023952,,,,,,,,,,,,,,,,,,,,,,354.311,355.6093,a,1,[],[],[],[],[],[],[],0.6223,1,355.6094,356.1093,,,,,,465,FEM,AGR,150,cama,la,a,0.6223,,,,356.1093,356.1093,0.061400519,-0.336111228,0,0,0,,0,111,111,14,1,,,,
,,,,,,5d82a708d87495f1560f18c9,66a626ef09d4e21e1a8894ec,673644a69ffab0b3475962bc,2024-11-14_15h43.23.496,Tarea de género gramatical,2024.2.2,Win32,59.88023952,,,,,,,,,,,,,,,,,,,,,,356.1103,357.3092,a,1,[],[],[],[],[],[],[],0.5276,1,357.3093,357.8092,,,,,,890,FEM,DIS,150,patada,el,a,0.5276,,,,357.8093,357.8094,0.061400519,-0.336111228,0,0,0,,0,112,112,439,1,,,,
,,,,,,5d82a708d87495f1560f18c9,66a626ef09d4e21e1a8894ec,673644a69ffab0b3475962bc,2024-11-14_15h43.23.496,Tarea de género gramatical,2024.2.2,Win32,59.88023952,,,,,,,,,,,,,,,,,,,,,,357.8103,359.2427,a,1,[],[],[],[],[],[],[],0.7632,1,359.2427,359.7427,,,,,,739,FEM,CON,150,tabla,,a,0.7632,,,,359.7427,359.7429,0.061400519,-0.336111228,0,0,0,,0,113,113,288,1,,,,
,,,,,,5d82a708d87495f1560f18c9,66a626ef09d4e21e1a8894ec,673644a69ffab0b3475962bc,2024-11-14_15h43.23.496,Tarea de género gramatical,2024.2.2,Win32,59.88023952,,,,,,,,,,,,,,,,,,,,,,359.744,361.0428,a,1,[],[],[],[],[],[],[],0.6297,1,361.0428,361.5427,,,,,,746,FEM,DIS,150,feria,el,a,0.6297,,,,361.5437,361.5449,0.061400519,-0.336111228,0,0,0,,0,114,114,295,1,,,,
,,,,,,5d82a708d87495f1560f18c9,66a626ef09d4e21e1a8894ec,673644a69ffab0b3475962bc,2024-11-14_15h43.23.496,Tarea de género gramatical,2024.2.2,Win32,59.88023952,,,,,,,,,,,,,,,,,,,,,,361.5456,362.8094,a,1,[],[],[],[],[],[],[],0.5975,1,362.8094,363.3095,,,,,,571,FEM,CON,150,pila,,a,0.5975,,,,363.3096,363.3096,0.061400519,-0.336111228,0,0,0,,0,115,115,120,1,,,,
,,,,,,5d82a708d87495f1560f18c9,66a626ef09d4e21e1a8894ec,673644a69ffab0b3475962bc,2024-11-14_15h43.23.496,Tarea de género gramatical,2024.2.2,Win32,59.88023952,,,,,,,,,,,,,,,,,,,,,,363.3102,364.543,l,1,[],[],[],[],[],[],[],0.5523,1,364.5431,365.043,,,,,,527,MAS,DIS,150,pico,la,l,0.5523,,,,365.043,365.0431,0.061400519,-0.336111228,0,0,0,,0,116,116,76,1,,,,
,,,,,,5d82a708d87495f1560f18c9,66a626ef09d4e21e1a8894ec,673644a69ffab0b3475962bc,2024-11-14_15h43.23.496,Tarea de género gramatical,2024.2.2,Win32,59.88023952,,,,,,,,,,,,,,,,,,,,,,365.0438,366.1262,l,1,[],[],[],[],[],[],[],0.4013,1,366.1263,366.6263,,,,,,683,MAS,DIS,150,golpe,la,l,0.4013,,,,366.6264,366.6264,0.061400519,-0.336111228,0,0,0,,0,117,117,232,1,,,,
,,,,,,5d82a708d87495f1560f18c9,66a626ef09d4e21e1a8894ec,673644a69ffab0b3475962bc,2024-11-14_15h43.23.496,Tarea de género gramatical,2024.2.2,Win32,59.88023952,,,,,,,,,,,,,,,,,,,,,,366.6271,367.7098,a,1,[],[],[],[],[],[],[],0.4102,1,367.7098,368.2097,,,,,,849,FEM,AGR,150,charla,la,a,0.4102,,,,368.2098,368.2098,0.061400519,-0.336111228,0,0,0,,0,118,118,398,1,,,,
,,,,,,5d82a708d87495f1560f18c9,66a626ef09d4e21e1a8894ec,673644a69ffab0b3475962bc,2024-11-14_15h43.23.496,Tarea de género gramatical,2024.2.2,Win32,59.88023952,,,,,,,,,,,,,,,,,,,,,,368.2106,369.4098,a,1,[],[],[],[],[],[],[],0.5175,1,369.4098,369.9097,,,,,,621,FEM,AGR,150,mitad,la,a,0.5175,,,,369.9109,369.9115,0.061400519,-0.336111228,0,0,0,,0,119,119,170,1,,,,
,,,,,,5d82a708d87495f1560f18c9,66a626ef09d4e21e1a8894ec,673644a69ffab0b3475962bc,2024-11-14_15h43.23.496,Tarea de género gramatical,2024.2.2,Win32,59.88023952,,,,,,,,,,,,,,,,,,,,,,369.9119,371.5097,l,0,[],[],[],[],[],[],[],0.9271,0,371.5102,372.0098,,,,,,651,FEM,AGR,150,leche,la,a,0.9271,,,,372.0099,372.01,0.061400519,-0.336111228,0,0,0,,0,120,120,200,1,,,,
,,,,,,5d82a708d87495f1560f18c9,66a626ef09d4e21e1a8894ec,673644a69ffab0b3475962bc,2024-11-14_15h43.23.496,Tarea de género gramatical,2024.2.2,Win32,59.88023952,,,,,,,,,,,,,,,,,,,,,,372.0107,373.2098,l,1,[],[],[],[],[],[],[],0.5221,1,373.2102,373.7098,,,,,,808,MAS,CON,150,motivo,,l,0.5221,,,,373.7099,373.71,0.061400519,-0.336111228,0,0,0,,0,121,121,357,1,,,,
,,,,,,5d82a708d87495f1560f18c9,66a626ef09d4e21e1a8894ec,673644a69ffab0b3475962bc,2024-11-14_15h43.23.496,Tarea de género gramatical,2024.2.2,Win32,59.88023952,,,,,,,,,,,,,,,,,,,,,,373.711,374.91,l,1,[],[],[],[],[],[],[],0.5264,1,374.91,375.4101,,,,,,731,MAS,DIS,150,actor,la,l,0.5264,,,,375.4101,375.4102,0.061400519,-0.336111228,0,0,0,,0,122,122,280,1,,,,
,,,,,,5d82a708d87495f1560f18c9,66a626ef09d4e21e1a8894ec,673644a69ffab0b3475962bc,2024-11-14_15h43.23.496,Tarea de género gramatical,2024.2.2,Win32,59.88023952,,,,,,,,,,,,,,,,,,,,,,375.4111,376.5099,l,1,[],[],[],[],[],[],[],0.4262,1,376.51,377.01,,,,,,454,MAS,CON,150,hijo,,l,0.4262,,,,377.0108,377.0113,0.061400519,-0.336111228,0,0,0,,0,123,123,3,1,,,,
,,,,,,5d82a708d87495f1560f18c9,66a626ef09d4e21e1a8894ec,673644a69ffab0b3475962bc,2024-11-14_15h43.23.496,Tarea de género gramatical,2024.2.2,Win32,59.88023952,,,,,,,,,,,,,,,,,,,,,,377.0118,378.3267,l,1,[],[],[],[],[],[],[],0.6349,1,378.3268,378.8267,,,,,,653,MAS,DIS,150,novio,la,l,0.6349,,,,378.8267,378.8268,0.061400519,-0.336111228,0,0,0,,0,124,124,202,1,,,,
,,,,,,5d82a708d87495f1560f18c9,66a626ef09d4e21e1a8894ec,673644a69ffab0b3475962bc,2024-11-14_15h43.23.496,Tarea de género gramatical,2024.2.2,Win32,59.88023952,,,,,,,,,,,,,,,,,,,,,,378.8277,379.9768,l,1,[],[],[],[],[],[],[],0.473,1,379.9769,380.4768,,,,,,564,MAS,AGR,150,menú,el,l,0.473,,,,380.4768,380.4769,0.061400519,-0.336111228,0,0,0,,0,125,125,113,1,,,,
,,,,,,5d82a708d87495f1560f18c9,66a626ef09d4e21e1a8894ec,673644a69ffab0b3475962bc,2024-11-14_15h43.23.496,Tarea de género gramatical,2024.2.2,Win32,59.88023952,,,,,,,,,,,,,,,,,,,,,,380.4778,381.7101,l,1,[],[],[],[],[],[],[],0.5584,1,381.7102,382.2103,,,,,,581,MAS,DIS,150,kilo,la,l,0.5584,,,,382.2104,382.2104,0.061400519,-0.336111228,0,0,0,,0,126,126,130,1,,,,
,,,,,,5d82a708d87495f1560f18c9,66a626ef09d4e21e1a8894ec,673644a69ffab0b3475962bc,2024-11-14_15h43.23.496,Tarea de género gramatical,2024.2.2,Win32,59.88023952,,,,,,,,,,,,,,,,,,,,,,382.2112,383.3436,l,1,[],[],[],[],[],[],[],0.4506,1,383.3437,383.8437,,,,,,892,MAS,CON,150,cuadro,,l,0.4506,,,,383.8437,383.8437,0.061400519,-0.336111228,0,0,0,,0,127,127,441,1,,,,
,,,,,,5d82a708d87495f1560f18c9,66a626ef09d4e21e1a8894ec,673644a69ffab0b3475962bc,2024-11-14_15h43.23.496,Tarea de género gramatical,2024.2.2,Win32,59.88023952,,,,,,,,,,,,,,,,,,,,,,383.8448,384.9437,l,1,[],[],[],[],[],[],[],0.418,1,384.9438,385.4435,,,,,,786,MAS,AGR,150,crimen,el,l,0.418,,,,385.4444,385.4451,0.061400519,-0.336111228,0,0,0,,0,128,128,335,1,,,,
,,,,,,5d82a708d87495f1560f18c9,66a626ef09d4e21e1a8894ec,673644a69ffab0b3475962bc,2024-11-14_15h43.23.496,Tarea de género gramatical,2024.2.2,Win32,59.88023952,,,,,,,,,,,,,,,,,,,,,,385.4458,386.6938,l,1,[],[],[],[],[],[],[],0.5677,1,386.6939,387.1938,,,,,,760,MAS,CON,150,nombre,,l,0.5677,,,,387.1938,387.1938,0.061400519,-0.336111228,0,0,0,,0,129,129,309,1,,,,
,,,,,,5d82a708d87495f1560f18c9,66a626ef09d4e21e1a8894ec,673644a69ffab0b3475962bc,2024-11-14_15h43.23.496,Tarea de género gramatical,2024.2.2,Win32,59.88023952,,,,,,,,,,,,,,,,,,,,,,387.195,388.4105,l,1,[],[],[],[],[],[],[],0.5397,1,388.4107,388.9104,,,,,,780,MAS,AGR,150,estado,el,l,0.5397,,,,388.9104,388.9105,0.061400519,-0.336111228,0,0,0,,0,130,130,329,1,,,,
,,,,,,5d82a708d87495f1560f18c9,66a626ef09d4e21e1a8894ec,673644a69ffab0b3475962bc,2024-11-14_15h43.23.496,Tarea de género gramatical,2024.2.2,Win32,59.88023952,,,,,,,,,,,,,,,,,,,,,,388.9114,390.1607,a,1,[],[],[],[],[],[],[],0.567,1,390.1608,390.6607,,,,,,685,FEM,CON,150,torre,,a,0.567,,,,390.6607,390.6608,0.061400519,-0.336111228,0,0,0,,0,131,131,234,1,,,,
,,,,,,5d82a708d87495f1560f18c9,66a626ef09d4e21e1a8894ec,673644a69ffab0b3475962bc,2024-11-14_15h43.23.496,Tarea de género gramatical,2024.2.2,Win32,59.88023952,,,,,,,,,,,,,,,,,,,,,,390.6614,392.1106,l,1,[],[],[],[],[],[],[],0.7741,1,392.1107,392.6105,,,,,,766,MAS,CON,150,cuerpo,,l,0.7741,,,,392.6112,392.6116,0.061400519,-0.336111228,0,0,0,,0,132,132,315,1,,,,
,,,,,,5d82a708d87495f1560f18c9,66a626ef09d4e21e1a8894ec,673644a69ffab0b3475962bc,2024-11-14_15h43.23.496,Tarea de género gramatical,2024.2.2,Win32,59.88023952,,,,,,,,,,,,,,,,,,,,,,392.6119,393.7449,a,1,[],[],[],[],[],[],[],0.4654,1,393.7451,394.2439,,,,,,686,FEM,DIS,150,deuda,el,a,0.4654,,,,394.2441,394.2442,0.061400519,-0.336111228,0,0,0,,0,133,133,235,1,,,,
,,,,,,5d82a708d87495f1560f18c9,66a626ef09d4e21e1a8894ec,673644a69ffab0b3475962bc,2024-11-14_15h43.23.496,Tarea de género gramatical,2024.2.2,Win32,59.88023952,,,,,,,,,,,,,,,,,,,,,,394.2452,395.4941,a,0,[],[],[],[],[],[],[],0.5687,0,395.4945,395.9942,,,,,,580,MAS,CON,150,yate,,l,0.5687,,,,395.9942,395.9942,0.061400519,-0.336111228,0,0,0,,0,134,134,129,1,,,,
,,,,,,5d82a708d87495f1560f18c9,66a626ef09d4e21e1a8894ec,673644a69ffab0b3475962bc,2024-11-14_15h43.23.496,Tarea de género gramatical,2024.2.2,Win32,59.88023952,,,,,,,,,,,,,,,,,,,,,,395.9949,397.1772,a,1,[],[],[],[],[],[],[],0.5062,1,397.1778,397.6774,,,,,,483,FEM,AGR,150,boda,la,a,0.5062,,,,397.6774,397.6776,0.061400519,-0.336111228,0,0,0,,0,135,135,32,1,,,,
,,,,,,5d82a708d87495f1560f18c9,66a626ef09d4e21e1a8894ec,673644a69ffab0b3475962bc,2024-11-14_15h43.23.496,Tarea de género gramatical,2024.2.2,Win32,59.88023952,,,,,,,,,,,,,,,,,,,,,,397.6783,399.0441,l,1,[],[],[],[],[],[],[],0.6946,1,399.0442,399.5442,,,,,,742,MAS,CON,150,piano,,l,0.6946,,,,399.5442,399.5443,0.061400519,-0.336111228,0,0,0,,0,136,136,291,1,,,,
,,,,,,5d82a708d87495f1560f18c9,66a626ef09d4e21e1a8894ec,673644a69ffab0b3475962bc,2024-11-14_15h43.23.496,Tarea de género gramatical,2024.2.2,Win32,59.88023952,,,,,,,,,,,,,,,,,,,,,,399.5454,400.7609,l,1,[],[],[],[],[],[],[],0.5337,1,400.7609,401.2609,,,,,,744,MAS,AGR,150,cable,el,l,0.5337,,,,401.2617,401.2624,0.061400519,-0.336111228,0,0,0,,0,137,137,293,1,,,,
,,,,,,5d82a708d87495f1560f18c9,66a626ef09d4e21e1a8894ec,673644a69ffab0b3475962bc,2024-11-14_15h43.23.496,Tarea de género gramatical,2024.2.2,Win32,59.88023952,,,,,,,,,,,,,,,,,,,,,,401.2629,402.4942,a,1,[],[],[],[],[],[],[],0.5512,1,402.4942,402.9943,,,,,,619,FEM,CON,150,vista,,a,0.5512,,,,402.9944,402.9944,0.061400519,-0.336111228,0,0,0,,0,138,138,168,1,,,,
,,,,,,5d82a708d87495f1560f18c9,66a626ef09d4e21e1a8894ec,673644a69ffab0b3475962bc,2024-11-14_15h43.23.496,Tarea de género gramatical,2024.2.2,Win32,59.88023952,,,,,,,,,,,,,,,,,,,,,,402.9953,404.261,a,1,[],[],[],[],[],[],[],0.586,1,404.2611,404.761,,,,,,729,FEM,AGR,150,selva,la,a,0.586,,,,404.761,404.7611,0.061400519,-0.336111228,0,0,0,,0,139,139,278,1,,,,
,,,,,,5d82a708d87495f1560f18c9,66a626ef09d4e21e1a8894ec,673644a69ffab0b3475962bc,2024-11-14_15h43.23.496,Tarea de género gramatical,2024.2.2,Win32,59.88023952,,,,,,,,,,,,,,,,,,,,,,404.7622,405.911,l,1,[],[],[],[],[],[],[],0.4748,1,405.9111,406.4111,,,,,,568,MAS,CON,150,baúl,,l,0.4748,,,,406.4112,406.4113,0.061400519,-0.336111228,0,0,0,,0,140,140,117,1,,,,
,,,,,,5d82a708d87495f1560f18c9,66a626ef09d4e21e1a8894ec,673644a69ffab0b3475962bc,2024-11-14_15h43.23.496,Tarea de género gramatical,2024.2.2,Win32,59.88023952,,,,,,,,,,,,,,,,,,,,,,406.4121,407.7278,a,1,[],[],[],[],[],[],[],0.6408,1,407.7279,408.2277,,,,,,884,FEM,DIS,150,corona,el,a,0.6408,,,,408.2287,408.2292,0.061400519,-0.336111228,0,0,0,,0,141,141,433,1,,,,
,,,,,,5d82a708d87495f1560f18c9,66a626ef09d4e21e1a8894ec,673644a69ffab0b3475962bc,2024-11-14_15h43.23.496,Tarea de género gramatical,2024.2.2,Win32,59.88023952,,,,,,,,,,,,,,,,,,,,,,408.2298,409.5612,l,1,[],[],[],[],[],[],[],0.6571,1,409.5612,410.0613,,,,,,882,MAS,AGR,150,océano,el,l,0.6571,,,,410.0613,410.0614,0.061400519,-0.336111228,0,0,0,,0,142,142,431,1,,,,
,,,,,,5d82a708d87495f1560f18c9,66a626ef09d4e21e1a8894ec,673644a69ffab0b3475962bc,2024-11-14_15h43.23.496,Tarea de género gramatical,2024.2.2,Win32,59.88023952,,,,,,,,,,,,,,,,,,,,,,410.0619,411.1945,l,1,[],[],[],[],[],[],[],0.4552,1,411.1946,411.6945,,,,,,550,MAS,CON,150,nido,,l,0.4552,,,,411.6946,411.6947,0.061400519,-0.336111228,0,0,0,,0,143,143,99,1,,,,
,,,,,,5d82a708d87495f1560f18c9,66a626ef09d4e21e1a8894ec,673644a69ffab0b3475962bc,2024-11-14_15h43.23.496,Tarea de género gramatical,2024.2.2,Win32,59.88023952,,,,,,,,,,,,,,,,,,,,,,411.6956,412.8112,l,1,[],[],[],[],[],[],[],0.4366,1,412.8113,413.3113,,,,,,480,MAS,AGR,150,cine,el,l,0.4366,,,,413.3113,413.3114,0.061400519,-0.336111228,0,0,0,,0,144,144,29,1,,,,
,,,,,,5d82a708d87495f1560f18c9,66a626ef09d4e21e1a8894ec,673644a69ffab0b3475962bc,2024-11-14_15h43.23.496,Tarea de género gramatical,2024.2.2,Win32,59.88023952,,,,,,,,,,,,,,,,,,,,,,413.3119,414.5613,l,1,[],[],[],[],[],[],[],0.5675,1,414.5614,415.0613,,,,,,851,MAS,DIS,150,abrigo,la,l,0.5675,,,,415.0613,415.0614,0.061400519,-0.336111228,0,0,0,,0,145,145,400,1,,,,
,,,,,,5d82a708d87495f1560f18c9,66a626ef09d4e21e1a8894ec,673644a69ffab0b3475962bc,2024-11-14_15h43.23.496,Tarea de género gramatical,2024.2.2,Win32,59.88023952,,,,,,,,,,,,,,,,,,,,,,415.0624,416.1612,l,1,[],[],[],[],[],[],[],0.417,1,416.1613,416.6614,,,,,,635,MAS,DIS,150,sueño,la,l,0.417,,,,416.6624,416.663,0.061400519,-0.336111228,0,0,0,,0,146,146,184,1,,,,
,,,,,,5d82a708d87495f1560f18c9,66a626ef09d4e21e1a8894ec,673644a69ffab0b3475962bc,2024-11-14_15h43.23.496,Tarea de género gramatical,2024.2.2,Win32,59.88023952,,,,,,,,,,,,,,,,,,,,,,416.6637,417.7947,a,1,[],[],[],[],[],[],[],0.454,1,417.7948,418.295,,,,,,871,FEM,CON,150,novela,,a,0.454,,,,418.295,418.2951,0.061400519,-0.336111228,0,0,0,,0,147,147,420,1,,,,
,,,,,,5d82a708d87495f1560f18c9,66a626ef09d4e21e1a8894ec,673644a69ffab0b3475962bc,2024-11-14_15h43.23.496,Tarea de género gramatical,2024.2.2,Win32,59.88023952,,,,,,,,,,,,,,,,,,,,,,418.2957,419.795,a,1,[],[],[],[],[],[],[],0.8202,1,419.7951,420.2948,,,,,,661,FEM,CON,150,salud,,a,0.8202,,,,420.2949,420.2949,0.061400519,-0.336111228,0,0,0,,0,148,148,210,1,,,,
,,,,,,5d82a708d87495f1560f18c9,66a626ef09d4e21e1a8894ec,673644a69ffab0b3475962bc,2024-11-14_15h43.23.496,Tarea de género gramatical,2024.2.2,Win32,59.88023952,,,,,,,,,,,,,,,,,,,,,,420.2956,421.4448,l,1,[],[],[],[],[],[],[],0.4772,1,421.4449,421.9449,,,,,,474,MAS,AGR,150,voto,el,l,0.4772,,,,421.9449,421.9449,0.061400519,-0.336111228,0,0,0,,0,149,149,23,1,,,,
,,,,,,5d82a708d87495f1560f18c9,66a626ef09d4e21e1a8894ec,673644a69ffab0b3475962bc,2024-11-14_15h43.23.496,Tarea de género gramatical,2024.2.2,Win32,59.88023952,,,,,,,,,,,,,,,,,,,,,,421.9459,423.1783,l,1,[],[],[],[],[],[],[],0.5557,1,423.1783,423.6783,,,,,,874,MAS,CON,150,rastro,,l,0.5557,,,,423.6794,492.0974,0.061400519,-0.336111228,0,0,0,space,0,150,150,423,1,68.4005,,,
,,,,,,5d82a708d87495f1560f18c9,66a626ef09d4e21e1a8894ec,673644a69ffab0b3475962bc,2024-11-14_15h43.23.496,Tarea de género gramatical,2024.2.2,Win32,59.88023952,,,,,,,,,,,,,,,,,,,,,,492.0982,493.2808,l,1,[],[],[],[],[],[],[],0.5069,1,493.2809,493.7807,,,,,,772,MAS,CON,150,minuto,,l,0.5069,,,,493.7807,493.7808,0.061400519,-0.336111228,0,0,0,,0,151,151,321,1,,,,
,,,,,,5d82a708d87495f1560f18c9,66a626ef09d4e21e1a8894ec,673644a69ffab0b3475962bc,2024-11-14_15h43.23.496,Tarea de género gramatical,2024.2.2,Win32,59.88023952,,,,,,,,,,,,,,,,,,,,,,493.7816,494.8474,a,1,[],[],[],[],[],[],[],0.3927,1,494.8475,495.3475,,,,,,639,FEM,AGR,150,pista,la,a,0.3927,,,,495.3475,495.3476,0.061400519,-0.336111228,0,0,0,,0,152,152,188,1,,,,
,,,,,,5d82a708d87495f1560f18c9,66a626ef09d4e21e1a8894ec,673644a69ffab0b3475962bc,2024-11-14_15h43.23.496,Tarea de género gramatical,2024.2.2,Win32,59.88023952,,,,,,,,,,,,,,,,,,,,,,495.3486,496.9141,a,1,[],[],[],[],[],[],[],0.8881,1,496.9142,497.4142,,,,,,536,FEM,DIS,150,cruz,el,a,0.8881,,,,497.4142,497.4142,0.061400519,-0.336111228,0,0,0,,0,153,153,85,1,,,,
,,,,,,5d82a708d87495f1560f18c9,66a626ef09d4e21e1a8894ec,673644a69ffab0b3475962bc,2024-11-14_15h43.23.496,Tarea de género gramatical,2024.2.2,Win32,59.88023952,,,,,,,,,,,,,,,,,,,,,,497.4152,498.5642,l,1,[],[],[],[],[],[],[],0.4781,1,498.5642,499.0644,,,,,,857,MAS,DIS,150,jurado,la,l,0.4781,,,,499.0644,499.0646,0.061400519,-0.336111228,0,0,0,,0,154,154,406,1,,,,
,,,,,,5d82a708d87495f1560f18c9,66a626ef09d4e21e1a8894ec,673644a69ffab0b3475962bc,2024-11-14_15h43.23.496,Tarea de género gramatical,2024.2.2,Win32,59.88023952,,,,,,,,,,,,,,,,,,,,,,499.0653,500.1976,l,1,[],[],[],[],[],[],[],0.4592,1,500.1977,500.6976,,,,,,779,MAS,DIS,150,futuro,la,l,0.4592,,,,500.6985,500.6989,0.061400519,-0.336111228,0,0,0,,0,155,155,328,1,,,,
,,,,,,5d82a708d87495f1560f18c9,66a626ef09d4e21e1a8894ec,673644a69ffab0b3475962bc,2024-11-14_15h43.23.496,Tarea de género gramatical,2024.2.2,Win32,59.88023952,,,,,,,,,,,,,,,,,,,,,,500.6995,501.7309,a,1,[],[],[],[],[],[],[],0.3629,1,501.731,502.2313,,,,,,823,FEM,CON,150,lluvia,,a,0.3629,,,,502.2313,502.2313,0.061400519,-0.336111228,0,0,0,,0,156,156,372,1,,,,
,,,,,,5d82a708d87495f1560f18c9,66a626ef09d4e21e1a8894ec,673644a69ffab0b3475962bc,2024-11-14_15h43.23.496,Tarea de género gramatical,2024.2.2,Win32,59.88023952,,,,,,,,,,,,,,,,,,,,,,502.2322,503.5478,a,1,[],[],[],[],[],[],[],0.6446,1,503.5478,504.0477,,,,,,525,FEM,AGR,150,caza,la,a,0.6446,,,,504.0477,504.0478,0.061400519,-0.336111228,0,0,0,,0,157,157,74,1,,,,
,,,,,,5d82a708d87495f1560f18c9,66a626ef09d4e21e1a8894ec,673644a69ffab0b3475962bc,2024-11-14_15h43.23.496,Tarea de género gramatical,2024.2.2,Win32,59.88023952,,,,,,,,,,,,,,,,,,,,,,504.0488,505.2143,a,1,[],[],[],[],[],[],[],0.4924,1,505.2144,505.7144,,,,,,855,FEM,AGR,150,parada,la,a,0.4924,,,,505.7145,505.7145,0.061400519,-0.336111228,0,0,0,,0,158,158,404,1,,,,
,,,,,,5d82a708d87495f1560f18c9,66a626ef09d4e21e1a8894ec,673644a69ffab0b3475962bc,2024-11-14_15h43.23.496,Tarea de género gramatical,2024.2.2,Win32,59.88023952,,,,,,,,,,,,,,,,,,,,,,505.7154,507.2145,l,1,[],[],[],[],[],[],[],0.8254,1,507.2146,507.7146,,,,,,876,MAS,AGR,150,pánico,el,l,0.8254,,,,507.7155,507.7162,0.061400519,-0.336111228,0,0,0,,0,159,159,425,1,,,,
,,,,,,5d82a708d87495f1560f18c9,66a626ef09d4e21e1a8894ec,673644a69ffab0b3475962bc,2024-11-14_15h43.23.496,Tarea de género gramatical,2024.2.2,Win32,59.88023952,,,,,,,,,,,,,,,,,,,,,,507.7167,509.0145,l,1,[],[],[],[],[],[],[],0.6264,1,509.0147,509.5145,,,,,,658,MAS,CON,150,suelo,,l,0.6264,,,,509.5145,509.5146,0.061400519,-0.336111228,0,0,0,,0,160,160,207,1,,,,
,,,,,,5d82a708d87495f1560f18c9,66a626ef09d4e21e1a8894ec,673644a69ffab0b3475962bc,2024-11-14_15h43.23.496,Tarea de género gramatical,2024.2.2,Win32,59.88023952,,,,,,,,,,,,,,,,,,,,,,509.5152,510.6812,l,1,[],[],[],[],[],[],[],0.4974,1,510.6812,511.1814,,,,,,826,MAS,CON,150,efecto,,l,0.4974,,,,511.1814,511.1815,0.061400519,-0.336111228,0,0,0,,0,161,161,375,1,,,,
,,,,,,5d82a708d87495f1560f18c9,66a626ef09d4e21e1a8894ec,673644a69ffab0b3475962bc,2024-11-14_15h43.23.496,Tarea de género gramatical,2024.2.2,Win32,59.88023952,,,,,,,,,,,,,,,,,,,,,,511.1824,512.448,l,1,[],[],[],[],[],[],[],0.5846,1,512.4482,512.948,,,,,,875,MAS,DIS,150,chiste,la,l,0.5846,,,,512.948,512.9482,0.061400519,-0.336111228,0,0,0,,0,162,162,424,1,,,,
,,,,,,5d82a708d87495f1560f18c9,66a626ef09d4e21e1a8894ec,673644a69ffab0b3475962bc,2024-11-14_15h43.23.496,Tarea de género gramatical,2024.2.2,Win32,59.88023952,,,,,,,,,,,,,,,,,,,,,,512.9488,514.3147,l,1,[],[],[],[],[],[],[],0.695,1,514.3147,514.8147,,,,,,538,MAS,CON,150,pavo,,l,0.695,,,,514.8148,514.8148,0.061400519,-0.336111228,0,0,0,,0,163,163,87,1,,,,
,,,,,,5d82a708d87495f1560f18c9,66a626ef09d4e21e1a8894ec,673644a69ffab0b3475962bc,2024-11-14_15h43.23.496,Tarea de género gramatical,2024.2.2,Win32,59.88023952,,,,,,,,,,,,,,,,,,,,,,514.8155,515.9647,a,1,[],[],[],[],[],[],[],0.4693,1,515.9648,516.4649,,,,,,614,FEM,DIS,150,novia,el,a,0.4693,,,,516.4659,516.4667,0.061400519,-0.336111228,0,0,0,,0,164,164,163,1,,,,
,,,,,,5d82a708d87495f1560f18c9,66a626ef09d4e21e1a8894ec,673644a69ffab0b3475962bc,2024-11-14_15h43.23.496,Tarea de género gramatical,2024.2.2,Win32,59.88023952,,,,,,,,,,,,,,,,,,,,,,516.4676,517.6482,l,1,[],[],[],[],[],[],[],0.5071,1,517.6482,518.1483,,,,,,521,MAS,DIS,150,pozo,la,l,0.5071,,,,518.1483,518.1484,0.061400519,-0.336111228,0,0,0,,0,165,165,70,1,,,,
,,,,,,5d82a708d87495f1560f18c9,66a626ef09d4e21e1a8894ec,673644a69ffab0b3475962bc,2024-11-14_15h43.23.496,Tarea de género gramatical,2024.2.2,Win32,59.88023952,,,,,,,,,,,,,,,,,,,,,,518.1491,519.3315,l,1,[],[],[],[],[],[],[],0.5118,1,519.3316,519.8316,,,,,,672,MAS,AGR,150,valor,el,l,0.5118,,,,519.8317,519.8317,0.061400519,-0.336111228,0,0,0,,0,166,166,221,1,,,,
,,,,,,5d82a708d87495f1560f18c9,66a626ef09d4e21e1a8894ec,673644a69ffab0b3475962bc,2024-11-14_15h43.23.496,Tarea de género gramatical,2024.2.2,Win32,59.88023952,,,,,,,,,,,,,,,,,,,,,,519.8324,520.9815,l,1,[],[],[],[],[],[],[],0.4675,1,520.9815,521.4817,,,,,,558,MAS,AGR,150,hilo,el,l,0.4675,,,,521.4817,521.4818,0.061400519,-0.336111228,0,0,0,,0,167,167,107,1,,,,
,,,,,,5d82a708d87495f1560f18c9,66a626ef09d4e21e1a8894ec,673644a69ffab0b3475962bc,2024-11-14_15h43.23.496,Tarea de género gramatical,2024.2.2,Win32,59.88023952,,,,,,,,,,,,,,,,,,,,,,521.4826,522.6318,a,1,[],[],[],[],[],[],[],0.4748,1,522.6318,523.1318,,,,,,758,FEM,DIS,150,semana,el,a,0.4748,,,,523.1326,523.1331,0.061400519,-0.336111228,0,0,0,,0,168,168,307,1,,,,
,,,,,,5d82a708d87495f1560f18c9,66a626ef09d4e21e1a8894ec,673644a69ffab0b3475962bc,2024-11-14_15h43.23.496,Tarea de género gramatical,2024.2.2,Win32,59.88023952,,,,,,,,,,,,,,,,,,,,,,523.1336,524.2817,l,1,[],[],[],[],[],[],[],0.4669,1,524.2818,524.7818,,,,,,814,MAS,CON,150,viento,,l,0.4669,,,,524.7818,524.7819,0.061400519,-0.336111228,0,0,0,,0,169,169,363,1,,,,
,,,,,,5d82a708d87495f1560f18c9,66a626ef09d4e21e1a8894ec,673644a69ffab0b3475962bc,2024-11-14_15h43.23.496,Tarea de género gramatical,2024.2.2,Win32,59.88023952,,,,,,,,,,,,,,,,,,,,,,524.7829,525.8818,a,1,[],[],[],[],[],[],[],0.4226,1,525.8818,526.3818,,,,,,788,FEM,DIS,150,abuela,el,a,0.4226,,,,526.3819,526.3819,0.061400519,-0.336111228,0,0,0,,0,170,170,337,1,,,,
,,,,,,5d82a708d87495f1560f18c9,66a626ef09d4e21e1a8894ec,673644a69ffab0b3475962bc,2024-11-14_15h43.23.496,Tarea de género gramatical,2024.2.2,Win32,59.88023952,,,,,,,,,,,,,,,,,,,,,,526.3827,527.6152,a,1,[],[],[],[],[],[],[],0.5594,1,527.6153,528.1151,,,,,,519,FEM,AGR,150,rata,la,a,0.5594,,,,528.1152,528.1152,0.061400519,-0.336111228,0,0,0,,0,171,171,68,1,,,,
,,,,,,5d82a708d87495f1560f18c9,66a626ef09d4e21e1a8894ec,673644a69ffab0b3475962bc,2024-11-14_15h43.23.496,Tarea de género gramatical,2024.2.2,Win32,59.88023952,,,,,,,,,,,,,,,,,,,,,,528.1158,529.282,l,1,[],[],[],[],[],[],[],0.4968,1,529.282,529.782,,,,,,712,MAS,CON,150,video,,l,0.4968,,,,529.782,529.7822,0.061400519,-0.336111228,0,0,0,,0,172,172,261,1,,,,
,,,,,,5d82a708d87495f1560f18c9,66a626ef09d4e21e1a8894ec,673644a69ffab0b3475962bc,2024-11-14_15h43.23.496,Tarea de género gramatical,2024.2.2,Win32,59.88023952,,,,,,,,,,,,,,,,,,,,,,529.7831,531.0987,a,1,[],[],[],[],[],[],[],0.6381,1,531.0988,531.5987,,,,,,609,FEM,AGR,150,clase,la,a,0.6381,,,,531.5996,531.6002,0.061400519,-0.336111228,0,0,0,,0,173,173,158,1,,,,
,,,,,,5d82a708d87495f1560f18c9,66a626ef09d4e21e1a8894ec,673644a69ffab0b3475962bc,2024-11-14_15h43.23.496,Tarea de género gramatical,2024.2.2,Win32,59.88023952,,,,,,,,,,,,,,,,,,,,,,531.6007,532.882,l,1,[],[],[],[],[],[],[],0.6125,1,532.882,533.3824,,,,,,870,MAS,AGR,150,helado,el,l,0.6125,,,,533.3824,533.3825,0.061400519,-0.336111228,0,0,0,,0,174,174,419,1,,,,
,,,,,,5d82a708d87495f1560f18c9,66a626ef09d4e21e1a8894ec,673644a69ffab0b3475962bc,2024-11-14_15h43.23.496,Tarea de género gramatical,2024.2.2,Win32,59.88023952,,,,,,,,,,,,,,,,,,,,,,533.3833,534.5654,a,1,[],[],[],[],[],[],[],0.5097,1,534.5654,535.0656,,,,,,547,FEM,CON,150,capa,,a,0.5097,,,,535.0656,535.0657,0.061400519,-0.336111228,0,0,0,,0,175,175,96,1,,,,
,,,,,,5d82a708d87495f1560f18c9,66a626ef09d4e21e1a8894ec,673644a69ffab0b3475962bc,2024-11-14_15h43.23.496,Tarea de género gramatical,2024.2.2,Win32,59.88023952,,,,,,,,,,,,,,,,,,,,,,535.0664,536.1656,l,1,[],[],[],[],[],[],[],0.4269,1,536.1657,536.6656,,,,,,846,MAS,AGR,150,tesoro,el,l,0.4269,,,,536.6657,536.6657,0.061400519,-0.336111228,0,0,0,,0,176,176,395,1,,,,
,,,,,,5d82a708d87495f1560f18c9,66a626ef09d4e21e1a8894ec,673644a69ffab0b3475962bc,2024-11-14_15h43.23.496,Tarea de género gramatical,2024.2.2,Win32,59.88023952,,,,,,,,,,,,,,,,,,,,,,536.6664,537.7487,l,1,[],[],[],[],[],[],[],0.41,1,537.7487,538.249,,,,,,610,MAS,CON,150,señor,,l,0.41,,,,538.2497,538.2502,0.061400519,-0.336111228,0,0,0,,0,177,177,159,1,,,,
,,,,,,5d82a708d87495f1560f18c9,66a626ef09d4e21e1a8894ec,673644a69ffab0b3475962bc,2024-11-14_15h43.23.496,Tarea de género gramatical,2024.2.2,Win32,59.88023952,,,,,,,,,,,,,,,,,,,,,,538.2507,539.3657,a,1,[],[],[],[],[],[],[],0.4354,1,539.3657,539.8656,,,,,,572,FEM,DIS,150,loca,el,a,0.4354,,,,539.8656,539.8657,0.061400519,-0.336111228,0,0,0,,0,178,178,121,1,,,,
,,,,,,5d82a708d87495f1560f18c9,66a626ef09d4e21e1a8894ec,673644a69ffab0b3475962bc,2024-11-14_15h43.23.496,Tarea de género gramatical,2024.2.2,Win32,59.88023952,,,,,,,,,,,,,,,,,,,,,,539.8665,541.1657,l,1,[],[],[],[],[],[],[],0.6268,1,541.1658,541.6657,,,,,,647,MAS,DIS,150,avión,la,l,0.6268,,,,541.6658,541.6659,0.061400519,-0.336111228,0,0,0,,0,179,179,196,1,,,,
,,,,,,5d82a708d87495f1560f18c9,66a626ef09d4e21e1a8894ec,673644a69ffab0b3475962bc,2024-11-14_15h43.23.496,Tarea de género gramatical,2024.2.2,Win32,59.88023952,,,,,,,,,,,,,,,,,,,,,,541.6665,542.8158,a,1,[],[],[],[],[],[],[],0.476,1,542.8158,543.3157,,,,,,680,FEM,DIS,150,regla,el,a,0.476,,,,543.3157,543.3157,0.061400519,-0.336111228,0,0,0,,0,180,180,229,1,,,,
,,,,,,5d82a708d87495f1560f18c9,66a626ef09d4e21e1a8894ec,673644a69ffab0b3475962bc,2024-11-14_15h43.23.496,Tarea de género gramatical,2024.2.2,Win32,59.88023952,,,,,,,,,,,,,,,,,,,,,,543.3164,544.5324,l,1,[],[],[],[],[],[],[],0.5437,1,544.5325,545.0325,,,,,,588,MAS,AGR,150,luto,el,l,0.5437,,,,545.0326,545.0326,0.061400519,-0.336111228,0,0,0,,0,181,181,137,1,,,,
,,,,,,5d82a708d87495f1560f18c9,66a626ef09d4e21e1a8894ec,673644a69ffab0b3475962bc,2024-11-14_15h43.23.496,Tarea de género gramatical,2024.2.2,Win32,59.88023952,,,,,,,,,,,,,,,,,,,,,,545.0337,546.4992,a,1,[],[],[],[],[],[],[],0.7883,1,546.4993,546.9992,,,,,,602,FEM,DIS,150,gente,el,a,0.7883,,,,547.0002,547.0006,0.061400519,-0.336111228,0,0,0,,0,182,182,151,1,,,,
,,,,,,5d82a708d87495f1560f18c9,66a626ef09d4e21e1a8894ec,673644a69ffab0b3475962bc,2024-11-14_15h43.23.496,Tarea de género gramatical,2024.2.2,Win32,59.88023952,,,,,,,,,,,,,,,,,,,,,,547.0012,548.216,a,1,[],[],[],[],[],[],[],0.5401,1,548.2162,548.7158,,,,,,453,FEM,AGR,150,cosa,la,a,0.5401,,,,548.7158,548.7159,0.061400519,-0.336111228,0,0,0,,0,183,183,2,1,,,,
,,,,,,5d82a708d87495f1560f18c9,66a626ef09d4e21e1a8894ec,673644a69ffab0b3475962bc,2024-11-14_15h43.23.496,Tarea de género gramatical,2024.2.2,Win32,59.88023952,,,,,,,,,,,,,,,,,,,,,,548.7165,549.9325,a,1,[],[],[],[],[],[],[],0.5439,1,549.9326,550.4328,,,,,,824,FEM,DIS,150,herida,el,a,0.5439,,,,550.4328,550.4329,0.061400519,-0.336111228,0,0,0,,0,184,184,373,1,,,,
,,,,,,5d82a708d87495f1560f18c9,66a626ef09d4e21e1a8894ec,673644a69ffab0b3475962bc,2024-11-14_15h43.23.496,Tarea de género gramatical,2024.2.2,Win32,59.88023952,,,,,,,,,,,,,,,,,,,,,,550.4339,551.8828,a,1,[],[],[],[],[],[],[],0.7702,1,551.8829,552.3829,,,,,,663,FEM,AGR,150,magia,la,a,0.7702,,,,552.3829,552.383,0.061400519,-0.336111228,0,0,0,,0,185,185,212,1,,,,
,,,,,,5d82a708d87495f1560f18c9,66a626ef09d4e21e1a8894ec,673644a69ffab0b3475962bc,2024-11-14_15h43.23.496,Tarea de género gramatical,2024.2.2,Win32,59.88023952,,,,,,,,,,,,,,,,,,,,,,552.3838,553.5328,a,1,[],[],[],[],[],[],[],0.478,1,553.5329,554.0329,,,,,,897,FEM,AGR,150,lógica,la,a,0.478,,,,554.034,554.0346,0.061400519,-0.336111228,0,0,0,,0,186,186,446,1,,,,
,,,,,,5d82a708d87495f1560f18c9,66a626ef09d4e21e1a8894ec,673644a69ffab0b3475962bc,2024-11-14_15h43.23.496,Tarea de género gramatical,2024.2.2,Win32,59.88023952,,,,,,,,,,,,,,,,,,,,,,554.0352,555.1329,a,1,[],[],[],[],[],[],[],0.4271,1,555.1329,555.6329,,,,,,458,FEM,DIS,150,idea,el,a,0.4271,,,,555.633,555.633,0.061400519,-0.336111228,0,0,0,,0,187,187,7,1,,,,
,,,,,,5d82a708d87495f1560f18c9,66a626ef09d4e21e1a8894ec,673644a69ffab0b3475962bc,2024-11-14_15h43.23.496,Tarea de género gramatical,2024.2.2,Win32,59.88023952,,,,,,,,,,,,,,,,,,,,,,555.6339,556.9162,a,1,[],[],[],[],[],[],[],0.6039,1,556.9163,557.4161,,,,,,463,FEM,CON,150,hija,,a,0.6039,,,,557.4161,557.4163,0.061400519,-0.336111228,0,0,0,,0,188,188,12,1,,,,
,,,,,,5d82a708d87495f1560f18c9,66a626ef09d4e21e1a8894ec,673644a69ffab0b3475962bc,2024-11-14_15h43.23.496,Tarea de género gramatical,2024.2.2,Win32,59.88023952,,,,,,,,,,,,,,,,,,,,,,557.4168,558.6163,a,1,[],[],[],[],[],[],[],0.5239,1,558.6164,559.1162,,,,,,597,FEM,AGR,150,grúa,la,a,0.5239,,,,559.1163,559.1164,0.061400519,-0.336111228,0,0,0,,0,189,189,146,1,,,,
,,,,,,5d82a708d87495f1560f18c9,66a626ef09d4e21e1a8894ec,673644a69ffab0b3475962bc,2024-11-14_15h43.23.496,Tarea de género gramatical,2024.2.2,Win32,59.88023952,,,,,,,,,,,,,,,,,,,,,,559.1172,560.2997,l,1,[],[],[],[],[],[],[],0.5038,1,560.2998,560.7997,,,,,,582,MAS,AGR,150,velo,el,l,0.5038,,,,560.7998,560.8,0.061400519,-0.336111228,0,0,0,,0,190,190,131,1,,,,
,,,,,,5d82a708d87495f1560f18c9,66a626ef09d4e21e1a8894ec,673644a69ffab0b3475962bc,2024-11-14_15h43.23.496,Tarea de género gramatical,2024.2.2,Win32,59.88023952,,,,,,,,,,,,,,,,,,,,,,560.8013,561.9663,a,1,[],[],[],[],[],[],[],0.4844,1,561.9664,562.4665,,,,,,747,FEM,AGR,150,manta,la,a,0.4844,,,,562.4674,562.4679,0.061400519,-0.336111228,0,0,0,,0,191,191,296,1,,,,
,,,,,,5d82a708d87495f1560f18c9,66a626ef09d4e21e1a8894ec,673644a69ffab0b3475962bc,2024-11-14_15h43.23.496,Tarea de género gramatical,2024.2.2,Win32,59.88023952,,,,,,,,,,,,,,,,,,,,,,562.4685,563.65,l,1,[],[],[],[],[],[],[],0.5059,1,563.6502,564.1499,,,,,,792,MAS,AGR,150,abuelo,el,l,0.5059,,,,564.1499,564.1501,0.061400519,-0.336111228,0,0,0,,0,192,192,341,1,,,,
,,,,,,5d82a708d87495f1560f18c9,66a626ef09d4e21e1a8894ec,673644a69ffab0b3475962bc,2024-11-14_15h43.23.496,Tarea de género gramatical,2024.2.2,Win32,59.88023952,,,,,,,,,,,,,,,,,,,,,,564.1508,565.6165,a,1,[],[],[],[],[],[],[],0.7902,1,565.6166,566.1164,,,,,,559,FEM,CON,150,gota,,a,0.7902,,,,566.1165,566.1165,0.061400519,-0.336111228,0,0,0,,0,193,193,108,1,,,,
,,,,,,5d82a708d87495f1560f18c9,66a626ef09d4e21e1a8894ec,673644a69ffab0b3475962bc,2024-11-14_15h43.23.496,Tarea de género gramatical,2024.2.2,Win32,59.88023952,,,,,,,,,,,,,,,,,,,,,,566.1174,567.2832,a,1,[],[],[],[],[],[],[],0.4956,1,567.2833,567.7833,,,,,,819,FEM,AGR,150,camisa,la,a,0.4956,,,,567.7833,567.7834,0.061400519,-0.336111228,0,0,0,,0,194,194,368,1,,,,
,,,,,,5d82a708d87495f1560f18c9,66a626ef09d4e21e1a8894ec,673644a69ffab0b3475962bc,2024-11-14_15h43.23.496,Tarea de género gramatical,2024.2.2,Win32,59.88023952,,,,,,,,,,,,,,,,,,,,,,567.7844,569.0833,l,1,[],[],[],[],[],[],[],0.6201,1,569.0834,569.5833,,,,,,652,MAS,CON,150,honor,,l,0.6201,,,,569.584,569.5845,0.061400519,-0.336111228,0,0,0,,0,195,195,201,1,,,,
,,,,,,5d82a708d87495f1560f18c9,66a626ef09d4e21e1a8894ec,673644a69ffab0b3475962bc,2024-11-14_15h43.23.496,Tarea de género gramatical,2024.2.2,Win32,59.88023952,,,,,,,,,,,,,,,,,,,,,,569.5849,570.7668,l,1,[],[],[],[],[],[],[],0.5088,1,570.7668,571.2667,,,,,,551,MAS,DIS,150,giro,la,l,0.5088,,,,571.2668,571.2668,0.061400519,-0.336111228,0,0,0,,0,196,196,100,1,,,,
,,,,,,5d82a708d87495f1560f18c9,66a626ef09d4e21e1a8894ec,673644a69ffab0b3475962bc,2024-11-14_15h43.23.496,Tarea de género gramatical,2024.2.2,Win32,59.88023952,,,,,,,,,,,,,,,,,,,,,,571.2677,572.6667,a,1,[],[],[],[],[],[],[],0.7289,1,572.6668,573.1667,,,,,,795,FEM,AGR,150,pierna,la,a,0.7289,,,,573.1667,573.1668,0.061400519,-0.336111228,0,0,0,,0,197,197,344,1,,,,
,,,,,,5d82a708d87495f1560f18c9,66a626ef09d4e21e1a8894ec,673644a69ffab0b3475962bc,2024-11-14_15h43.23.496,Tarea de género gramatical,2024.2.2,Win32,59.88023952,,,,,,,,,,,,,,,,,,,,,,573.1675,574.45,l,1,[],[],[],[],[],[],[],0.6135,1,574.4502,574.9502,,,,,,738,MAS,AGR,150,grado,el,l,0.6135,,,,574.9502,574.9504,0.061400519,-0.336111228,0,0,0,,0,198,198,287,1,,,,
,,,,,,5d82a708d87495f1560f18c9,66a626ef09d4e21e1a8894ec,673644a69ffab0b3475962bc,2024-11-14_15h43.23.496,Tarea de género gramatical,2024.2.2,Win32,59.88023952,,,,,,,,,,,,,,,,,,,,,,574.9514,576.1502,l,1,[],[],[],[],[],[],[],0.5253,1,576.1503,576.6503,,,,,,492,MAS,AGR,150,show,el,l,0.5253,,,,576.6503,576.6504,0.061400519,-0.336111228,0,0,0,,0,199,199,41,1,,,,
,,,,,,5d82a708d87495f1560f18c9,66a626ef09d4e21e1a8894ec,673644a69ffab0b3475962bc,2024-11-14_15h43.23.496,Tarea de género gramatical,2024.2.2,Win32,59.88023952,,,,,,,,,,,,,,,,,,,,,,576.6511,577.7502,l,1,[],[],[],[],[],[],[],0.4261,1,577.7503,578.2503,,,,,,726,MAS,AGR,150,ritmo,el,l,0.4261,,,,578.2513,578.2518,0.061400519,-0.336111228,0,0,0,,0,200,200,275,1,,,,
,,,,,,5d82a708d87495f1560f18c9,66a626ef09d4e21e1a8894ec,673644a69ffab0b3475962bc,2024-11-14_15h43.23.496,Tarea de género gramatical,2024.2.2,Win32,59.88023952,,,,,,,,,,,,,,,,,,,,,,578.2522,579.367,a,1,[],[],[],[],[],[],[],0.4347,1,579.3671,579.8669,,,,,,717,FEM,AGR,150,barba,la,a,0.4347,,,,579.8669,579.8669,0.061400519,-0.336111228,0,0,0,,0,201,201,266,1,,,,
,,,,,,5d82a708d87495f1560f18c9,66a626ef09d4e21e1a8894ec,673644a69ffab0b3475962bc,2024-11-14_15h43.23.496,Tarea de género gramatical,2024.2.2,Win32,59.88023952,,,,,,,,,,,,,,,,,,,,,,579.8674,581.2838,a,1,[],[],[],[],[],[],[],0.7373,1,581.2838,581.7838,,,,,,878,FEM,DIS,150,jugada,el,a,0.7373,,,,581.7839,581.7839,0.061400519,-0.336111228,0,0,0,,0,202,202,427,1,,,,
,,,,,,5d82a708d87495f1560f18c9,66a626ef09d4e21e1a8894ec,673644a69ffab0b3475962bc,2024-11-14_15h43.23.496,Tarea de género gramatical,2024.2.2,Win32,59.88023952,,,,,,,,,,,,,,,,,,,,,,581.7846,583.0671,l,1,[],[],[],[],[],[],[],0.6118,1,583.0672,583.5672,,,,,,490,MAS,CON,150,dios,,l,0.6118,,,,583.5672,583.5673,0.061400519,-0.336111228,0,0,0,,0,203,203,39,1,,,,
,,,,,,5d82a708d87495f1560f18c9,66a626ef09d4e21e1a8894ec,673644a69ffab0b3475962bc,2024-11-14_15h43.23.496,Tarea de género gramatical,2024.2.2,Win32,59.88023952,,,,,,,,,,,,,,,,,,,,,,583.568,584.6838,a,1,[],[],[],[],[],[],[],0.4367,1,584.6839,585.1839,,,,,,644,FEM,DIS,150,banda,el,a,0.4367,,,,585.1851,585.1857,0.061400519,-0.336111228,0,0,0,,0,204,204,193,1,,,,
,,,,,,5d82a708d87495f1560f18c9,66a626ef09d4e21e1a8894ec,673644a69ffab0b3475962bc,2024-11-14_15h43.23.496,Tarea de género gramatical,2024.2.2,Win32,59.88023952,,,,,,,,,,,,,,,,,,,,,,585.1863,586.3839,l,1,[],[],[],[],[],[],[],0.5178,1,586.3839,586.8842,,,,,,690,MAS,AGR,150,ruido,el,l,0.5178,,,,586.8842,586.8842,0.061400519,-0.336111228,0,0,0,,0,205,205,239,1,,,,
,,,,,,5d82a708d87495f1560f18c9,66a626ef09d4e21e1a8894ec,673644a69ffab0b3475962bc,2024-11-14_15h43.23.496,Tarea de género gramatical,2024.2.2,Win32,59.88023952,,,,,,,,,,,,,,,,,,,,,,586.885,588.134,l,1,[],[],[],[],[],[],[],0.5768,1,588.1341,588.6341,,,,,,856,MAS,CON,150,premio,,l,0.5768,,,,588.6341,588.6342,0.061400519,-0.336111228,0,0,0,,0,206,206,405,1,,,,
,,,,,,5d82a708d87495f1560f18c9,66a626ef09d4e21e1a8894ec,673644a69ffab0b3475962bc,2024-11-14_15h43.23.496,Tarea de género gramatical,2024.2.2,Win32,59.88023952,,,,,,,,,,,,,,,,,,,,,,588.6348,589.8506,l,1,[],[],[],[],[],[],[],0.5372,1,589.8507,590.3507,,,,,,533,MAS,DIS,150,nene,la,l,0.5372,,,,590.3508,590.3509,0.061400519,-0.336111228,0,0,0,,0,207,207,82,1,,,,
,,,,,,5d82a708d87495f1560f18c9,66a626ef09d4e21e1a8894ec,673644a69ffab0b3475962bc,2024-11-14_15h43.23.496,Tarea de género gramatical,2024.2.2,Win32,59.88023952,,,,,,,,,,,,,,,,,,,,,,590.3519,591.5341,l,1,[],[],[],[],[],[],[],0.5005,1,591.5342,592.0341,,,,,,809,MAS,DIS,150,bosque,la,l,0.5005,,,,592.0341,592.0342,0.061400519,-0.336111228,0,0,0,,0,208,208,358,1,,,,
,,,,,,5d82a708d87495f1560f18c9,66a626ef09d4e21e1a8894ec,673644a69ffab0b3475962bc,2024-11-14_15h43.23.496,Tarea de género gramatical,2024.2.2,Win32,59.88023952,,,,,,,,,,,,,,,,,,,,,,592.035,593.2175,l,1,[],[],[],[],[],[],[],0.5006,1,593.2176,593.7175,,,,,,556,MAS,CON,150,test,,l,0.5006,,,,593.7185,593.7191,0.061400519,-0.336111228,0,0,0,,0,209,209,105,1,,,,
,,,,,,5d82a708d87495f1560f18c9,66a626ef09d4e21e1a8894ec,673644a69ffab0b3475962bc,2024-11-14_15h43.23.496,Tarea de género gramatical,2024.2.2,Win32,59.88023952,,,,,,,,,,,,,,,,,,,,,,593.7196,594.8175,a,1,[],[],[],[],[],[],[],0.4226,1,594.8177,595.3175,,,,,,841,FEM,CON,150,altura,,a,0.4226,,,,595.3176,595.3177,0.061400519,-0.336111228,0,0,0,,0,210,210,390,1,,,,
,,,,,,5d82a708d87495f1560f18c9,66a626ef09d4e21e1a8894ec,673644a69ffab0b3475962bc,2024-11-14_15h43.23.496,Tarea de género gramatical,2024.2.2,Win32,59.88023952,,,,,,,,,,,,,,,,,,,,,,595.3185,596.351,a,1,[],[],[],[],[],[],[],0.3585,1,596.351,596.8509,,,,,,793,FEM,CON,150,trampa,,a,0.3585,,,,596.8509,596.851,0.061400519,-0.336111228,0,0,0,,0,211,211,342,1,,,,
,,,,,,5d82a708d87495f1560f18c9,66a626ef09d4e21e1a8894ec,673644a69ffab0b3475962bc,2024-11-14_15h43.23.496,Tarea de género gramatical,2024.2.2,Win32,59.88023952,,,,,,,,,,,,,,,,,,,,,,596.8518,597.9176,l,1,[],[],[],[],[],[],[],0.3846,1,597.9177,598.4176,,,,,,460,MAS,CON,150,niño,,l,0.3846,,,,598.4177,598.4178,0.061400519,-0.336111228,0,0,0,,0,212,212,9,1,,,,
,,,,,,5d82a708d87495f1560f18c9,66a626ef09d4e21e1a8894ec,673644a69ffab0b3475962bc,2024-11-14_15h43.23.496,Tarea de género gramatical,2024.2.2,Win32,59.88023952,,,,,,,,,,,,,,,,,,,,,,598.4185,599.5177,l,1,[],[],[],[],[],[],[],0.4187,1,599.5178,600.0179,,,,,,737,MAS,DIS,150,plato,la,l,0.4187,,,,600.0186,600.0192,0.061400519,-0.336111228,0,0,0,,0,213,213,286,1,,,,
,,,,,,5d82a708d87495f1560f18c9,66a626ef09d4e21e1a8894ec,673644a69ffab0b3475962bc,2024-11-14_15h43.23.496,Tarea de género gramatical,2024.2.2,Win32,59.88023952,,,,,,,,,,,,,,,,,,,,,,600.0197,601.1845,l,1,[],[],[],[],[],[],[],0.4849,1,601.1845,601.6844,,,,,,678,MAS,AGR,150,nivel,el,l,0.4849,,,,601.6844,601.6845,0.061400519,-0.336111228,0,0,0,,0,214,214,227,1,,,,
,,,,,,5d82a708d87495f1560f18c9,66a626ef09d4e21e1a8894ec,673644a69ffab0b3475962bc,2024-11-14_15h43.23.496,Tarea de género gramatical,2024.2.2,Win32,59.88023952,,,,,,,,,,,,,,,,,,,,,,601.6851,602.8845,a,1,[],[],[],[],[],[],[],0.5191,1,602.8846,603.3845,,,,,,721,FEM,CON,150,viuda,,a,0.5191,,,,603.3845,603.3846,0.061400519,-0.336111228,0,0,0,,0,215,215,270,1,,,,
,,,,,,5d82a708d87495f1560f18c9,66a626ef09d4e21e1a8894ec,673644a69ffab0b3475962bc,2024-11-14_15h43.23.496,Tarea de género gramatical,2024.2.2,Win32,59.88023952,,,,,,,,,,,,,,,,,,,,,,603.3853,604.5178,l,1,[],[],[],[],[],[],[],0.4514,1,604.5179,605.0179,,,,,,534,MAS,AGR,150,mago,el,l,0.4514,,,,605.0179,605.018,0.061400519,-0.336111228,0,0,0,,0,216,216,83,1,,,,
,,,,,,5d82a708d87495f1560f18c9,66a626ef09d4e21e1a8894ec,673644a69ffab0b3475962bc,2024-11-14_15h43.23.496,Tarea de género gramatical,2024.2.2,Win32,59.88023952,,,,,,,,,,,,,,,,,,,,,,605.0189,606.1347,l,1,[],[],[],[],[],[],[],0.4347,1,606.1348,606.6347,,,,,,815,MAS,DIS,150,código,la,l,0.4347,,,,606.6347,606.6348,0.061400519,-0.336111228,0,0,0,,0,217,217,364,1,,,,
,,,,,,5d82a708d87495f1560f18c9,66a626ef09d4e21e1a8894ec,673644a69ffab0b3475962bc,2024-11-14_15h43.23.496,Tarea de género gramatical,2024.2.2,Win32,59.88023952,,,,,,,,,,,,,,,,,,,,,,606.6356,607.7347,a,1,[],[],[],[],[],[],[],0.4179,1,607.7349,608.2348,,,,,,620,FEM,DIS,150,carta,el,a,0.4179,,,,608.2356,608.2363,0.061400519,-0.336111228,0,0,0,,0,218,218,169,1,,,,
,,,,,,5d82a708d87495f1560f18c9,66a626ef09d4e21e1a8894ec,673644a69ffab0b3475962bc,2024-11-14_15h43.23.496,Tarea de género gramatical,2024.2.2,Win32,59.88023952,,,,,,,,,,,,,,,,,,,,,,608.237,609.4514,a,1,[],[],[],[],[],[],[],0.5373,1,609.4515,609.9514,,,,,,889,FEM,CON,150,toalla,,a,0.5373,,,,609.9515,609.9515,0.061400519,-0.336111228,0,0,0,,0,219,219,438,1,,,,
,,,,,,5d82a708d87495f1560f18c9,66a626ef09d4e21e1a8894ec,673644a69ffab0b3475962bc,2024-11-14_15h43.23.496,Tarea de género gramatical,2024.2.2,Win32,59.88023952,,,,,,,,,,,,,,,,,,,,,,609.9524,611.1681,a,1,[],[],[],[],[],[],[],0.5342,1,611.1683,611.6684,,,,,,859,FEM,CON,150,moneda,,a,0.5342,,,,611.6685,611.6686,0.061400519,-0.336111228,0,0,0,,0,220,220,408,1,,,,
,,,,,,5d82a708d87495f1560f18c9,66a626ef09d4e21e1a8894ec,673644a69ffab0b3475962bc,2024-11-14_15h43.23.496,Tarea de género gramatical,2024.2.2,Win32,59.88023952,,,,,,,,,,,,,,,,,,,,,,611.6695,612.7015,a,1,[],[],[],[],[],[],[],0.3531,1,612.7016,613.2017,,,,,,657,FEM,AGR,150,playa,la,a,0.3531,,,,613.2017,613.2018,0.061400519,-0.336111228,0,0,0,,0,221,221,206,1,,,,
,,,,,,5d82a708d87495f1560f18c9,66a626ef09d4e21e1a8894ec,673644a69ffab0b3475962bc,2024-11-14_15h43.23.496,Tarea de género gramatical,2024.2.2,Win32,59.88023952,,,,,,,,,,,,,,,,,,,,,,613.2024,614.2515,l,1,[],[],[],[],[],[],[],0.3787,1,614.2515,614.7515,,,,,,893,MAS,DIS,150,templo,la,l,0.3787,,,,614.7524,614.7534,0.061400519,-0.336111228,0,0,0,,0,222,222,442,1,,,,
,,,,,,5d82a708d87495f1560f18c9,66a626ef09d4e21e1a8894ec,673644a69ffab0b3475962bc,2024-11-14_15h43.23.496,Tarea de género gramatical,2024.2.2,Win32,59.88023952,,,,,,,,,,,,,,,,,,,,,,614.7541,615.9349,l,1,[],[],[],[],[],[],[],0.5088,1,615.935,616.4349,,,,,,736,MAS,CON,150,reino,,l,0.5088,,,,616.4351,616.4352,0.061400519,-0.336111228,0,0,0,,0,223,223,285,1,,,,
,,,,,,5d82a708d87495f1560f18c9,66a626ef09d4e21e1a8894ec,673644a69ffab0b3475962bc,2024-11-14_15h43.23.496,Tarea de género gramatical,2024.2.2,Win32,59.88023952,,,,,,,,,,,,,,,,,,,,,,616.4358,617.5017,l,1,[],[],[],[],[],[],[],0.3846,1,617.5017,618.0017,,,,,,755,MAS,DIS,150,hombre,la,l,0.3846,,,,618.0017,618.0018,0.061400519,-0.336111228,0,0,0,,0,224,224,304,1,,,,
,,,,,,5d82a708d87495f1560f18c9,66a626ef09d4e21e1a8894ec,673644a69ffab0b3475962bc,2024-11-14_15h43.23.496,Tarea de género gramatical,2024.2.2,Win32,59.88023952,,,,,,,,,,,,,,,,,,,,,,618.0026,619.2019,l,1,[],[],[],[],[],[],[],0.5169,1,619.2019,619.7016,,,,,,761,MAS,DIS,150,camino,la,l,0.5169,,,,619.7017,619.7017,0.061400519,-0.336111228,0,0,0,,0,225,225,310,1,,,,
,,,,,,5d82a708d87495f1560f18c9,66a626ef09d4e21e1a8894ec,673644a69ffab0b3475962bc,2024-11-14_15h43.23.496,Tarea de género gramatical,2024.2.2,Win32,59.88023952,,,,,,,,,,,,,,,,,,,,,,619.7025,621.2851,l,1,[],[],[],[],[],[],[],0.9021,1,621.2852,621.7852,,,,,,868,MAS,CON,150,pájaro,,l,0.9021,,,,621.7852,621.7853,0.061400519,-0.336111228,0,0,0,,0,226,226,417,1,,,,
,,,,,,5d82a708d87495f1560f18c9,66a626ef09d4e21e1a8894ec,673644a69ffab0b3475962bc,2024-11-14_15h43.23.496,Tarea de género gramatical,2024.2.2,Win32,59.88023952,,,,,,,,,,,,,,,,,,,,,,621.786,622.9519,a,1,[],[],[],[],[],[],[],0.4915,1,622.9519,623.4518,,,,,,693,FEM,AGR,150,salsa,la,a,0.4915,,,,623.4532,623.4541,0.061400519,-0.336111228,0,0,0,,0,227,227,242,1,,,,
,,,,,,5d82a708d87495f1560f18c9,66a626ef09d4e21e1a8894ec,673644a69ffab0b3475962bc,2024-11-14_15h43.23.496,Tarea de género gramatical,2024.2.2,Win32,59.88023952,,,,,,,,,,,,,,,,,,,,,,623.4547,624.9518,a,1,[],[],[],[],[],[],[],0.8237,1,624.952,625.452,,,,,,705,FEM,AGR,150,tribu,la,a,0.8237,,,,625.4521,625.4522,0.061400519,-0.336111228,0,0,0,,0,228,228,254,1,,,,
,,,,,,5d82a708d87495f1560f18c9,66a626ef09d4e21e1a8894ec,673644a69ffab0b3475962bc,2024-11-14_15h43.23.496,Tarea de género gramatical,2024.2.2,Win32,59.88023952,,,,,,,,,,,,,,,,,,,,,,625.4528,626.6186,a,1,[],[],[],[],[],[],[],0.4892,1,626.6187,627.1187,,,,,,560,FEM,DIS,150,rosa,el,a,0.4892,,,,627.1187,627.1188,0.061400519,-0.336111228,0,0,0,,0,229,229,109,1,,,,
,,,,,,5d82a708d87495f1560f18c9,66a626ef09d4e21e1a8894ec,673644a69ffab0b3475962bc,2024-11-14_15h43.23.496,Tarea de género gramatical,2024.2.2,Win32,59.88023952,,,,,,,,,,,,,,,,,,,,,,627.1198,628.2353,l,1,[],[],[],[],[],[],[],0.4374,1,628.2354,628.7353,,,,,,834,MAS,AGR,150,pedazo,el,l,0.4374,,,,628.7353,628.7353,0.061400519,-0.336111228,0,0,0,,0,230,230,383,1,,,,
,,,,,,5d82a708d87495f1560f18c9,66a626ef09d4e21e1a8894ec,673644a69ffab0b3475962bc,2024-11-14_15h43.23.496,Tarea de género gramatical,2024.2.2,Win32,59.88023952,,,,,,,,,,,,,,,,,,,,,,628.7359,629.7853,a,1,[],[],[],[],[],[],[],0.3803,1,629.7853,630.2854,,,,,,752,FEM,DIS,150,cabeza,el,a,0.3803,,,,630.2862,630.2867,0.061400519,-0.336111228,0,0,0,,0,231,231,301,1,,,,
,,,,,,5d82a708d87495f1560f18c9,66a626ef09d4e21e1a8894ec,673644a69ffab0b3475962bc,2024-11-14_15h43.23.496,Tarea de género gramatical,2024.2.2,Win32,59.88023952,,,,,,,,,,,,,,,,,,,,,,630.2872,631.5523,a,1,[],[],[],[],[],[],[],0.5914,1,631.5523,632.0522,,,,,,854,FEM,DIS,150,gloria,el,a,0.5914,,,,632.0523,632.0523,0.061400519,-0.336111228,0,0,0,,0,232,232,403,1,,,,
,,,,,,5d82a708d87495f1560f18c9,66a626ef09d4e21e1a8894ec,673644a69ffab0b3475962bc,2024-11-14_15h43.23.496,Tarea de género gramatical,2024.2.2,Win32,59.88023952,,,,,,,,,,,,,,,,,,,,,,632.0531,633.4023,a,1,[],[],[],[],[],[],[],0.6712,1,633.4023,633.9021,,,,,,679,FEM,CON,150,celda,,a,0.6712,,,,633.9022,633.9023,0.061400519,-0.336111228,0,0,0,,0,233,233,228,1,,,,
,,,,,,5d82a708d87495f1560f18c9,66a626ef09d4e21e1a8894ec,673644a69ffab0b3475962bc,2024-11-14_15h43.23.496,Tarea de género gramatical,2024.2.2,Win32,59.88023952,,,,,,,,,,,,,,,,,,,,,,633.903,635.2188,a,1,[],[],[],[],[],[],[],0.637,1,635.219,635.719,,,,,,457,FEM,CON,150,hora,,a,0.637,,,,635.7191,635.7192,0.061400519,-0.336111228,0,0,0,,0,234,234,6,1,,,,
,,,,,,5d82a708d87495f1560f18c9,66a626ef09d4e21e1a8894ec,673644a69ffab0b3475962bc,2024-11-14_15h43.23.496,Tarea de género gramatical,2024.2.2,Win32,59.88023952,,,,,,,,,,,,,,,,,,,,,,635.7201,636.9523,l,1,[],[],[],[],[],[],[],0.5573,1,636.9524,637.4523,,,,,,828,MAS,AGR,150,pastel,el,l,0.5573,,,,637.4524,637.4525,0.061400519,-0.336111228,0,0,0,,0,235,235,377,1,,,,
,,,,,,5d82a708d87495f1560f18c9,66a626ef09d4e21e1a8894ec,673644a69ffab0b3475962bc,2024-11-14_15h43.23.496,Tarea de género gramatical,2024.2.2,Win32,59.88023952,,,,,,,,,,,,,,,,,,,,,,637.4532,638.7191,l,1,[],[],[],[],[],[],[],0.584,1,638.7192,639.219,,,,,,502,MAS,CON,150,lago,,l,0.584,,,,639.2198,639.2205,0.061400519,-0.336111228,0,0,0,,0,236,236,51,1,,,,
,,,,,,5d82a708d87495f1560f18c9,66a626ef09d4e21e1a8894ec,673644a69ffab0b3475962bc,2024-11-14_15h43.23.496,Tarea de género gramatical,2024.2.2,Win32,59.88023952,,,,,,,,,,,,,,,,,,,,,,639.2212,640.3359,l,1,[],[],[],[],[],[],[],0.4338,1,640.336,640.8356,,,,,,468,MAS,AGR,150,tren,el,l,0.4338,,,,640.8357,640.8357,0.061400519,-0.336111228,0,0,0,,0,237,237,17,1,,,,
,,,,,,5d82a708d87495f1560f18c9,66a626ef09d4e21e1a8894ec,673644a69ffab0b3475962bc,2024-11-14_15h43.23.496,Tarea de género gramatical,2024.2.2,Win32,59.88023952,,,,,,,,,,,,,,,,,,,,,,640.8363,641.9691,a,1,[],[],[],[],[],[],[],0.4504,1,641.9692,642.4692,,,,,,638,FEM,DIS,150,bomba,el,a,0.4504,,,,642.4692,642.4693,0.061400519,-0.336111228,0,0,0,,0,238,238,187,1,,,,
,,,,,,5d82a708d87495f1560f18c9,66a626ef09d4e21e1a8894ec,673644a69ffab0b3475962bc,2024-11-14_15h43.23.496,Tarea de género gramatical,2024.2.2,Win32,59.88023952,,,,,,,,,,,,,,,,,,,,,,642.47,643.6026,a,1,[],[],[],[],[],[],[],0.4551,1,643.6027,644.1025,,,,,,806,FEM,DIS,150,piedra,el,a,0.4551,,,,644.1025,644.1026,0.061400519,-0.336111228,0,0,0,,0,239,239,355,1,,,,
,,,,,,5d82a708d87495f1560f18c9,66a626ef09d4e21e1a8894ec,673644a69ffab0b3475962bc,2024-11-14_15h43.23.496,Tarea de género gramatical,2024.2.2,Win32,59.88023952,,,,,,,,,,,,,,,,,,,,,,644.1033,645.2525,l,1,[],[],[],[],[],[],[],0.4927,1,645.2525,645.7527,,,,,,455,MAS,DIS,150,tipo,la,l,0.4927,,,,645.7536,645.7543,0.061400519,-0.336111228,0,0,0,,0,240,240,4,1,,,,
,,,,,,5d82a708d87495f1560f18c9,66a626ef09d4e21e1a8894ec,673644a69ffab0b3475962bc,2024-11-14_15h43.23.496,Tarea de género gramatical,2024.2.2,Win32,59.88023952,,,,,,,,,,,,,,,,,,,,,,645.7548,646.8527,a,1,[],[],[],[],[],[],[],0.4268,1,646.8529,647.3529,,,,,,543,FEM,AGR,150,lata,la,a,0.4268,,,,647.3529,647.353,0.061400519,-0.336111228,0,0,0,,0,241,241,92,1,,,,
,,,,,,5d82a708d87495f1560f18c9,66a626ef09d4e21e1a8894ec,673644a69ffab0b3475962bc,2024-11-14_15h43.23.496,Tarea de género gramatical,2024.2.2,Win32,59.88023952,,,,,,,,,,,,,,,,,,,,,,647.3536,648.6028,a,1,[],[],[],[],[],[],[],0.5719,1,648.6028,649.1027,,,,,,655,FEM,CON,150,reina,,a,0.5719,,,,649.1027,649.1028,0.061400519,-0.336111228,0,0,0,,0,242,242,204,1,,,,
,,,,,,5d82a708d87495f1560f18c9,66a626ef09d4e21e1a8894ec,673644a69ffab0b3475962bc,2024-11-14_15h43.23.496,Tarea de género gramatical,2024.2.2,Win32,59.88023952,,,,,,,,,,,,,,,,,,,,,,649.1034,650.2362,a,1,[],[],[],[],[],[],[],0.4545,1,650.2363,650.7361,,,,,,787,FEM,CON,150,escena,,a,0.4545,,,,650.7362,650.7363,0.061400519,-0.336111228,0,0,0,,0,243,243,336,1,,,,
,,,,,,5d82a708d87495f1560f18c9,66a626ef09d4e21e1a8894ec,673644a69ffab0b3475962bc,2024-11-14_15h43.23.496,Tarea de género gramatical,2024.2.2,Win32,59.88023952,,,,,,,,,,,,,,,,,,,,,,650.7369,651.9862,a,1,[],[],[],[],[],[],[],0.5805,1,651.9863,652.4862,,,,,,649,FEM,CON,150,nariz,,a,0.5805,,,,652.4862,652.4862,0.061400519,-0.336111228,0,0,0,,0,244,244,198,1,,,,
,,,,,,5d82a708d87495f1560f18c9,66a626ef09d4e21e1a8894ec,673644a69ffab0b3475962bc,2024-11-14_15h43.23.496,Tarea de género gramatical,2024.2.2,Win32,59.88023952,,,,,,,,,,,,,,,,,,,,,,652.487,653.7196,l,1,[],[],[],[],[],[],[],0.5518,1,653.7197,654.2196,,,,,,850,MAS,CON,150,barrio,,l,0.5518,,,,654.2205,654.2213,0.061400519,-0.336111228,0,0,0,,0,245,245,399,1,,,,
,,,,,,5d82a708d87495f1560f18c9,66a626ef09d4e21e1a8894ec,673644a69ffab0b3475962bc,2024-11-14_15h43.23.496,Tarea de género gramatical,2024.2.2,Win32,59.88023952,,,,,,,,,,,,,,,,,,,,,,654.2219,655.403,a,1,[],[],[],[],[],[],[],0.5135,1,655.4032,655.9031,,,,,,501,FEM,AGR,150,bala,la,a,0.5135,,,,655.9031,655.9033,0.061400519,-0.336111228,0,0,0,,0,246,246,50,1,,,,
,,,,,,5d82a708d87495f1560f18c9,66a626ef09d4e21e1a8894ec,673644a69ffab0b3475962bc,2024-11-14_15h43.23.496,Tarea de género gramatical,2024.2.2,Win32,59.88023952,,,,,,,,,,,,,,,,,,,,,,655.9041,657.0863,a,1,[],[],[],[],[],[],[],0.5081,1,657.0864,657.5865,,,,,,637,FEM,CON,150,lista,,a,0.5081,,,,657.5865,657.5866,0.061400519,-0.336111228,0,0,0,,0,247,247,186,1,,,,
,,,,,,5d82a708d87495f1560f18c9,66a626ef09d4e21e1a8894ec,673644a69ffab0b3475962bc,2024-11-14_15h43.23.496,Tarea de género gramatical,2024.2.2,Win32,59.88023952,,,,,,,,,,,,,,,,,,,,,,657.5873,659.1363,a,1,[],[],[],[],[],[],[],0.8736,1,659.1364,659.6364,,,,,,590,FEM,DIS,150,mula,el,a,0.8736,,,,659.6364,659.6364,0.061400519,-0.336111228,0,0,0,,0,248,248,139,1,,,,
,,,,,,5d82a708d87495f1560f18c9,66a626ef09d4e21e1a8894ec,673644a69ffab0b3475962bc,2024-11-14_15h43.23.496,Tarea de género gramatical,2024.2.2,Win32,59.88023952,,,,,,,,,,,,,,,,,,,,,,659.6371,660.803,l,1,[],[],[],[],[],[],[],0.4953,1,660.8031,661.3033,,,,,,484,MAS,CON,150,gato,,l,0.4953,,,,661.3043,661.3051,0.061400519,-0.336111228,0,0,0,,0,249,249,33,1,,,,
,,,,,,5d82a708d87495f1560f18c9,66a626ef09d4e21e1a8894ec,673644a69ffab0b3475962bc,2024-11-14_15h43.23.496,Tarea de género gramatical,2024.2.2,Win32,59.88023952,,,,,,,,,,,,,,,,,,,,,,661.3059,662.5365,l,1,[],[],[],[],[],[],[],0.5573,1,662.5366,663.0368,,,,,,707,MAS,DIS,150,pecho,la,l,0.5573,,,,663.0368,663.0369,0.061400519,-0.336111228,0,0,0,,0,250,250,256,1,,,,
