counterbalancing_condition,consent_prescreening.block_1/declare_consent,consent_prescreening.block_1/age_years,consent_prescreening.block_1/gender,consent_prescreening.block_1/language_disorder,consent_prescreening.block_1/first_language,PROLIFIC_PID,STUDY_ID,SESSION_ID,date,expName,psychopyVersion,OS,frameRate,check_prescreening_answers.started,check_prescreening_answers.stopped,Instructions.started,Instructions.stopped,instr_done_keyboard.keys,instr_done_touch.x,instr_done_touch.y,instr_done_touch.leftButton,instr_done_touch.midButton,instr_done_touch.rightButton,instr_done_touch.clicked_name,instruction_pages.thisRepN,instruction_pages.thisTrialN,instruction_pages.thisN,instruction_pages.thisIndex,instruction_pages.ran,pageN,phase,instruct_text,has_image,instruct_image,presentTrial.started,presentTrial.stopped,response.keys,response.corr,touch_resp.x,touch_resp.y,touch_resp.leftButton,touch_resp.midButton,touch_resp.rightButton,touch_resp.time,touch_resp.clicked_name,rt,corr,feedback.started,feedback.stopped,practice_trials.thisRepN,practice_trials.thisTrialN,practice_trials.thisN,practice_trials.thisIndex,practice_trials.ran,TrialID,StimulusType,Condition,PrimeDuration,Prime,Flanker,corrAns,response.rt,response.duration,Break.started,Break.stopped,break_done_touch.x,break_done_touch.y,break_done_touch.leftButton,break_done_touch.midButton,break_done_touch.rightButton,break_done_keyboard.keys,experiment_trials.thisRepN,experiment_trials.thisTrialN,experiment_trials.thisN,experiment_trials.thisIndex,experiment_trials.ran,break_done_touch.clicked_name,break_done_keyboard.rt,break_done_keyboard.duration,End.started,End.stopped
2,"[""over_18"",""comfortable"",""read_info"",""consent_given""]",34,M,"[""none""]","[""spanish""]",5da5a3e9609253b5aa4dd47f,66a626ef09d4e21e1a8894ec,67371da6e773e4b72754c6fc,2024-11-15_11h08.51.197,Tarea de género gramatical,2024.2.2,Win32,59.95203837,,,,,,,,,,,,,,,,,,,,,,,,,,,,,,,,,,,,,,,,,,,,,,,,,,,,,,,,,,,,,,,,,,,,
,,,,,,5da5a3e9609253b5aa4dd47f,66a626ef09d4e21e1a8894ec,67371da6e773e4b72754c6fc,2024-11-15_11h08.51.197,Tarea de género gramatical,2024.2.2,Win32,59.95203837,20.694,20.694,,,,,,,,,,,,,,,,,,,,,,,,,,,,,,,,,,,,,,,,,,,,,,,,,,,,,,,,,,,,,,,,,,
,,,,,,5da5a3e9609253b5aa4dd47f,66a626ef09d4e21e1a8894ec,67371da6e773e4b72754c6fc,2024-11-15_11h08.51.197,Tarea de género gramatical,2024.2.2,Win32,59.95203837,,,20.725,46.98,,-0.000925926,-0.386111111,1,0,0,instr_done_button,0,0,0,0,1,1,instructions,"INSTRUCCIONES
Va a realizar una prueba de selección gramatical. Desde el comienzo de la prueba mire siempre al centro de la pantalla. Al cabo de un momento, aparecerán palabras. La tarea consiste en determinar si la palabra del centro (siempre será un sustantivo), pertenece al género masculino o femenino.

Pulse la tecla ESPACIO o toque el botón de abajo para continuar.",0,keyboardresponseFM.png,,,,,,,,,,,,,,,,,,,,,,,,,,,,,,,,,,,,,,,,,,,,,,,
,,,,,,5da5a3e9609253b5aa4dd47f,66a626ef09d4e21e1a8894ec,67371da6e773e4b72754c6fc,2024-11-15_11h08.51.197,Tarea de género gramatical,2024.2.2,Win32,59.95203837,,,46.991,59.829,,-0.016666667,-0.376851852,1,0,0,instr_done_button,0,1,1,1,1,2,instructions,"Si su dispositivo tiene teclado, pulse la tecla ""A"" para las palabras en femenino (por ejemplo: ""mano"") y la tecla ""L"" para las palabras en masculino(por ejemplo: ""arroz"").
Pulse la tecla ESPACIO o toque el botón de abajo para continuar.",1,keyboardresponseFM.png,,,,,,,,,,,,,,,,,,,,,,,,,,,,,,,,,,,,,,,,,,,,,,,
,,,,,,5da5a3e9609253b5aa4dd47f,66a626ef09d4e21e1a8894ec,67371da6e773e4b72754c6fc,2024-11-15_11h08.51.197,Tarea de género gramatical,2024.2.2,Win32,59.95203837,,,59.833,63.011,,-0.016666667,-0.376851852,1,0,0,instr_done_button,0,2,2,2,1,3,instructions,"Si utiliza un dispositivo sólo táctil, colóquelo en horizontal y utilice los botones de la pantalla. No utilice el ratón.
Pulse la tecla ESPACIO o toque el botón de abajo para continuar.",2,touchresponseFM.png,,,,,,,,,,,,,,,,,,,,,,,,,,,,,,,,,,,,,,,,,,,,,,,
,,,,,,5da5a3e9609253b5aa4dd47f,66a626ef09d4e21e1a8894ec,67371da6e773e4b72754c6fc,2024-11-15_11h08.51.197,Tarea de género gramatical,2024.2.2,Win32,59.95203837,,,63.018,72.896,,-0.016666667,-0.376851852,1,0,0,instr_done_button,0,3,3,3,1,4,instructions,"Es muy importante que responda con la mayor rapidez y precisión posibles, ya que cada cadena de letras sólo estará en pantalla durante un instante. Si no responde en ese tiempo, aparecerá el mensaje ""Muy lento"" y el experimento pasará a la siguiente palabra. Los primeros 15 intentos serán de práctica y habrá dos descansos durante la prueba.
Pulse la tecla ESPACIO o toque el botón de abajo para iniciar la parte de práctica.",0,keyboardresponseFM.png,,,,,,,,,,,,,,,,,,,,,,,,,,,,,,,,,,,,,,,,,,,,,,,
,,,,,,5da5a3e9609253b5aa4dd47f,66a626ef09d4e21e1a8894ec,67371da6e773e4b72754c6fc,2024-11-15_11h08.51.197,Tarea de género gramatical,2024.2.2,Win32,59.95203837,,,,,,,,,,,,,,,,,,,,,,72.921,75.562,,0,[],[],[],[],[],[],[],,-1,75.566,76.062,0,0,0,2,1,2003,FEM,DIS,150,daga,el,a,,,,,,,,,,,,,,,,,,,,
,,,,,,5da5a3e9609253b5aa4dd47f,66a626ef09d4e21e1a8894ec,67371da6e773e4b72754c6fc,2024-11-15_11h08.51.197,Tarea de género gramatical,2024.2.2,Win32,59.95203837,,,,,,,,,,,,,,,,,,,,,,76.067,77.512,l,0,[],[],[],[],[],[],[],0.769,0,77.519,78.012,0,1,1,5,1,2006,FEM,DIS,150,serie,el,a,0.769,,,,,,,,,,,,,,,,,,,
,,,,,,5da5a3e9609253b5aa4dd47f,66a626ef09d4e21e1a8894ec,67371da6e773e4b72754c6fc,2024-11-15_11h08.51.197,Tarea de género gramatical,2024.2.2,Win32,59.95203837,,,,,,,,,,,,,,,,,,,,,,78.015,79.262,a,0,[],[],[],[],[],[],[],0.569,0,79.265,79.762,0,2,2,10,1,2011,MAS,CON,150,canal,,l,0.569,,,,,,,,,,,,,,,,,,,
,,,,,,5da5a3e9609253b5aa4dd47f,66a626ef09d4e21e1a8894ec,67371da6e773e4b72754c6fc,2024-11-15_11h08.51.197,Tarea de género gramatical,2024.2.2,Win32,59.95203837,,,,,,,,,,,,,,,,,,,,,,79.766,81.113,l,1,[],[],[],[],[],[],[],0.676,1,81.115,81.612,0,3,3,13,1,2014,MAS,CON,150,siglo,,l,0.676,,,,,,,,,,,,,,,,,,,
,,,,,,5da5a3e9609253b5aa4dd47f,66a626ef09d4e21e1a8894ec,67371da6e773e4b72754c6fc,2024-11-15_11h08.51.197,Tarea de género gramatical,2024.2.2,Win32,59.95203837,,,,,,,,,,,,,,,,,,,,,,81.614,82.746,a,1,[],[],[],[],[],[],[],0.45,1,82.746,83.246,0,4,4,7,1,2008,FEM,CON,150,siesta,,a,0.45,,,,,,,,,,,,,,,,,,,
,,,,,,5da5a3e9609253b5aa4dd47f,66a626ef09d4e21e1a8894ec,67371da6e773e4b72754c6fc,2024-11-15_11h08.51.197,Tarea de género gramatical,2024.2.2,Win32,59.95203837,,,,,,,,,,,,,,,,,,,,,,83.249,84.612,a,0,[],[],[],[],[],[],[],0.684,0,84.616,85.112,0,5,5,11,1,2012,MAS,DIS,150,clima,la,l,0.684,,,,,,,,,,,,,,,,,,,
,,,,,,5da5a3e9609253b5aa4dd47f,66a626ef09d4e21e1a8894ec,67371da6e773e4b72754c6fc,2024-11-15_11h08.51.197,Tarea de género gramatical,2024.2.2,Win32,59.95203837,,,,,,,,,,,,,,,,,,,,,,85.115,86.33,l,1,[],[],[],[],[],[],[],0.543,1,86.332,86.83,0,6,6,8,1,2009,MAS,DIS,150,puerto,la,l,0.543,,,,,,,,,,,,,,,,,,,
,,,,,,5da5a3e9609253b5aa4dd47f,66a626ef09d4e21e1a8894ec,67371da6e773e4b72754c6fc,2024-11-15_11h08.51.197,Tarea de género gramatical,2024.2.2,Win32,59.95203837,,,,,,,,,,,,,,,,,,,,,,86.832,88.196,a,1,[],[],[],[],[],[],[],0.687,1,88.198,88.696,0,7,7,4,1,2005,FEM,CON,150,placa,,a,0.687,,,,,,,,,,,,,,,,,,,
,,,,,,5da5a3e9609253b5aa4dd47f,66a626ef09d4e21e1a8894ec,67371da6e773e4b72754c6fc,2024-11-15_11h08.51.197,Tarea de género gramatical,2024.2.2,Win32,59.95203837,,,,,,,,,,,,,,,,,,,,,,88.7,89.813,a,1,[],[],[],[],[],[],[],0.438,1,89.813,90.312,0,8,8,0,1,2001,FEM,AGR,150,nuca,la,a,0.438,,,,,,,,,,,,,,,,,,,
,,,,,,5da5a3e9609253b5aa4dd47f,66a626ef09d4e21e1a8894ec,67371da6e773e4b72754c6fc,2024-11-15_11h08.51.197,Tarea de género gramatical,2024.2.2,Win32,59.95203837,,,,,,,,,,,,,,,,,,,,,,90.315,91.296,a,1,[],[],[],[],[],[],[],0.309,1,91.298,91.795,0,9,9,6,1,2007,FEM,AGR,150,navaja,la,a,0.309,,,,,,,,,,,,,,,,,,,
,,,,,,5da5a3e9609253b5aa4dd47f,66a626ef09d4e21e1a8894ec,67371da6e773e4b72754c6fc,2024-11-15_11h08.51.197,Tarea de género gramatical,2024.2.2,Win32,59.95203837,,,,,,,,,,,,,,,,,,,,,,91.799,92.882,a,1,[],[],[],[],[],[],[],0.412,1,92.883,93.379,0,10,10,1,1,2002,FEM,CON,150,pala,,a,0.412,,,,,,,,,,,,,,,,,,,
,,,,,,5da5a3e9609253b5aa4dd47f,66a626ef09d4e21e1a8894ec,67371da6e773e4b72754c6fc,2024-11-15_11h08.51.197,Tarea de género gramatical,2024.2.2,Win32,59.95203837,,,,,,,,,,,,,,,,,,,,,,93.381,94.446,l,1,[],[],[],[],[],[],[],0.387,1,94.446,94.946,0,11,11,14,1,2015,MAS,DIS,150,robot,la,l,0.387,,,,,,,,,,,,,,,,,,,
,,,,,,5da5a3e9609253b5aa4dd47f,66a626ef09d4e21e1a8894ec,67371da6e773e4b72754c6fc,2024-11-15_11h08.51.197,Tarea de género gramatical,2024.2.2,Win32,59.95203837,,,,,,,,,,,,,,,,,,,,,,94.949,95.897,a,1,[],[],[],[],[],[],[],0.277,1,95.898,96.396,0,12,12,3,1,2004,FEM,AGR,150,venta,la,a,0.277,,,,,,,,,,,,,,,,,,,
,,,,,,5da5a3e9609253b5aa4dd47f,66a626ef09d4e21e1a8894ec,67371da6e773e4b72754c6fc,2024-11-15_11h08.51.197,Tarea de género gramatical,2024.2.2,Win32,59.95203837,,,,,,,,,,,,,,,,,,,,,,96.399,97.546,l,1,[],[],[],[],[],[],[],0.469,1,97.547,98.045,0,13,13,9,1,2010,MAS,AGR,150,vecino,el,l,0.469,,,,,,,,,,,,,,,,,,,
,,,,,,5da5a3e9609253b5aa4dd47f,66a626ef09d4e21e1a8894ec,67371da6e773e4b72754c6fc,2024-11-15_11h08.51.197,Tarea de género gramatical,2024.2.2,Win32,59.95203837,,,,,,,,,,,,,,,,,,,,,,98.048,99.196,l,1,[],[],[],[],[],[],[],0.472,1,99.196,99.696,0,14,14,12,1,2013,MAS,AGR,150,acero,el,l,0.472,,,,,,,,,,,,,,,,,,,
,,,,,,5da5a3e9609253b5aa4dd47f,66a626ef09d4e21e1a8894ec,67371da6e773e4b72754c6fc,2024-11-15_11h08.51.197,Tarea de género gramatical,2024.2.2,Win32,59.95203837,,,102.496,105.831,,-0.026851852,-0.396296296,1,0,0,instr_done_button,,,,,,,,,,,105.941,107.13,a,1,[],[],[],[],[],[],[],0.517,1,107.13,107.629,,,,,,1141,FEM,DIS,150,pasta,el,a,0.517,,107.629,107.632,-0.026851852,-0.396296296,0,0,0,,0,0,0,240,1,,,,,
,,,,,,5da5a3e9609253b5aa4dd47f,66a626ef09d4e21e1a8894ec,67371da6e773e4b72754c6fc,2024-11-15_11h08.51.197,Tarea de género gramatical,2024.2.2,Win32,59.95203837,,,,,,,,,,,,,,,,,,,,,,107.633,108.779,a,1,[],[],[],[],[],[],[],0.474,1,108.78,109.279,,,,,,1027,FEM,DIS,150,cuna,el,a,0.474,,109.279,109.28,-0.026851852,-0.396296296,0,0,0,,0,1,1,126,1,,,,,
,,,,,,5da5a3e9609253b5aa4dd47f,66a626ef09d4e21e1a8894ec,67371da6e773e4b72754c6fc,2024-11-15_11h08.51.197,Tarea de género gramatical,2024.2.2,Win32,59.95203837,,,,,,,,,,,,,,,,,,,,,,109.281,110.38,l,1,[],[],[],[],[],[],[],0.418,1,110.38,110.879,,,,,,947,MAS,AGR,150,olor,el,l,0.418,,110.881,110.882,-0.026851852,-0.396296296,0,0,0,,0,2,2,46,1,,,,,
,,,,,,5da5a3e9609253b5aa4dd47f,66a626ef09d4e21e1a8894ec,67371da6e773e4b72754c6fc,2024-11-15_11h08.51.197,Tarea de género gramatical,2024.2.2,Win32,59.95203837,,,,,,,,,,,,,,,,,,,,,,110.883,112.063,a,1,[],[],[],[],[],[],[],0.51,1,112.063,112.562,,,,,,1233,FEM,CON,150,locura,,a,0.51,,112.562,112.563,-0.026851852,-0.396296296,0,0,0,,0,3,3,332,1,,,,,
,,,,,,5da5a3e9609253b5aa4dd47f,66a626ef09d4e21e1a8894ec,67371da6e773e4b72754c6fc,2024-11-15_11h08.51.197,Tarea de género gramatical,2024.2.2,Win32,59.95203837,,,,,,,,,,,,,,,,,,,,,,112.564,113.596,l,1,[],[],[],[],[],[],[],0.351,1,113.597,114.096,,,,,,1246,MAS,DIS,150,juicio,la,l,0.351,,114.096,114.096,-0.026851852,-0.396296296,0,0,0,,0,4,4,345,1,,,,,
,,,,,,5da5a3e9609253b5aa4dd47f,66a626ef09d4e21e1a8894ec,67371da6e773e4b72754c6fc,2024-11-15_11h08.51.197,Tarea de género gramatical,2024.2.2,Win32,59.95203837,,,,,,,,,,,,,,,,,,,,,,114.098,115.13,a,1,[],[],[],[],[],[],[],0.359,1,115.13,115.63,,,,,,969,FEM,CON,150,rata,,a,0.359,,115.63,115.63,-0.026851852,-0.396296296,0,0,0,,0,5,5,68,1,,,,,
,,,,,,5da5a3e9609253b5aa4dd47f,66a626ef09d4e21e1a8894ec,67371da6e773e4b72754c6fc,2024-11-15_11h08.51.197,Tarea de género gramatical,2024.2.2,Win32,59.95203837,,,,,,,,,,,,,,,,,,,,,,115.631,116.647,a,1,[],[],[],[],[],[],[],0.334,1,116.647,117.146,,,,,,957,FEM,CON,150,moda,,a,0.334,,117.148,117.149,-0.026851852,-0.396296296,0,0,0,,0,6,6,56,1,,,,,
,,,,,,5da5a3e9609253b5aa4dd47f,66a626ef09d4e21e1a8894ec,67371da6e773e4b72754c6fc,2024-11-15_11h08.51.197,Tarea de género gramatical,2024.2.2,Win32,59.95203837,,,,,,,,,,,,,,,,,,,,,,117.15,118.246,l,1,[],[],[],[],[],[],[],0.42,1,118.247,118.746,,,,,,924,MAS,CON,150,voto,,l,0.42,,118.746,118.746,-0.026851852,-0.396296296,0,0,0,,0,7,7,23,1,,,,,
,,,,,,5da5a3e9609253b5aa4dd47f,66a626ef09d4e21e1a8894ec,67371da6e773e4b72754c6fc,2024-11-15_11h08.51.197,Tarea de género gramatical,2024.2.2,Win32,59.95203837,,,,,,,,,,,,,,,,,,,,,,118.747,119.881,l,1,[],[],[],[],[],[],[],0.452,1,119.881,120.38,,,,,,1156,MAS,DIS,150,techo,la,l,0.452,,120.38,120.382,-0.026851852,-0.396296296,0,0,0,,0,8,8,255,1,,,,,
,,,,,,5da5a3e9609253b5aa4dd47f,66a626ef09d4e21e1a8894ec,67371da6e773e4b72754c6fc,2024-11-15_11h08.51.197,Tarea de género gramatical,2024.2.2,Win32,59.95203837,,,,,,,,,,,,,,,,,,,,,,120.384,121.464,a,1,[],[],[],[],[],[],[],0.401,1,121.465,121.964,,,,,,1177,FEM,DIS,150,plaza,el,a,0.401,,121.964,121.964,-0.026851852,-0.396296296,0,0,0,,0,9,9,276,1,,,,,
,,,,,,5da5a3e9609253b5aa4dd47f,66a626ef09d4e21e1a8894ec,67371da6e773e4b72754c6fc,2024-11-15_11h08.51.197,Tarea de género gramatical,2024.2.2,Win32,59.95203837,,,,,,,,,,,,,,,,,,,,,,121.967,123.063,a,1,[],[],[],[],[],[],[],0.417,1,123.063,123.563,,,,,,1166,FEM,AGR,150,jaula,la,a,0.417,,123.563,123.564,-0.026851852,-0.396296296,0,0,0,,0,10,10,265,1,,,,,
,,,,,,5da5a3e9609253b5aa4dd47f,66a626ef09d4e21e1a8894ec,67371da6e773e4b72754c6fc,2024-11-15_11h08.51.197,Tarea de género gramatical,2024.2.2,Win32,59.95203837,,,,,,,,,,,,,,,,,,,,,,123.566,124.614,l,1,[],[],[],[],[],[],[],0.369,1,124.614,125.114,,,,,,1068,MAS,CON,150,sitio,,l,0.369,,125.116,125.119,-0.026851852,-0.396296296,0,0,0,,0,11,11,167,1,,,,,
,,,,,,5da5a3e9609253b5aa4dd47f,66a626ef09d4e21e1a8894ec,67371da6e773e4b72754c6fc,2024-11-15_11h08.51.197,Tarea de género gramatical,2024.2.2,Win32,59.95203837,,,,,,,,,,,,,,,,,,,,,,125.121,126.147,a,1,[],[],[],[],[],[],[],0.351,1,126.149,126.647,,,,,,1280,FEM,AGR,150,madera,la,a,0.351,,126.647,126.648,-0.026851852,-0.396296296,0,0,0,,0,12,12,379,1,,,,,
,,,,,,5da5a3e9609253b5aa4dd47f,66a626ef09d4e21e1a8894ec,67371da6e773e4b72754c6fc,2024-11-15_11h08.51.197,Tarea de género gramatical,2024.2.2,Win32,59.95203837,,,,,,,,,,,,,,,,,,,,,,126.65,127.781,a,1,[],[],[],[],[],[],[],0.452,1,127.782,128.281,,,,,,1131,FEM,CON,150,bruja,,a,0.452,,128.281,128.282,-0.026851852,-0.396296296,0,0,0,,0,13,13,230,1,,,,,
,,,,,,5da5a3e9609253b5aa4dd47f,66a626ef09d4e21e1a8894ec,67371da6e773e4b72754c6fc,2024-11-15_11h08.51.197,Tarea de género gramatical,2024.2.2,Win32,59.95203837,,,,,,,,,,,,,,,,,,,,,,128.283,129.265,l,1,[],[],[],[],[],[],[],0.31,1,129.265,129.764,,,,,,1061,MAS,AGR,150,chico,el,l,0.31,,129.764,129.765,-0.026851852,-0.396296296,0,0,0,,0,14,14,160,1,,,,,
,,,,,,5da5a3e9609253b5aa4dd47f,66a626ef09d4e21e1a8894ec,67371da6e773e4b72754c6fc,2024-11-15_11h08.51.197,Tarea de género gramatical,2024.2.2,Win32,59.95203837,,,,,,,,,,,,,,,,,,,,,,129.767,131.013,l,1,[],[],[],[],[],[],[],0.571,1,131.016,131.513,,,,,,1109,MAS,AGR,150,banco,el,l,0.571,,131.517,131.519,-0.026851852,-0.396296296,0,0,0,,0,15,15,208,1,,,,,
,,,,,,5da5a3e9609253b5aa4dd47f,66a626ef09d4e21e1a8894ec,67371da6e773e4b72754c6fc,2024-11-15_11h08.51.197,Tarea de género gramatical,2024.2.2,Win32,59.95203837,,,,,,,,,,,,,,,,,,,,,,131.521,132.914,a,1,[],[],[],[],[],[],[],0.724,1,132.915,133.415,,,,,,1142,FEM,AGR,150,pizza,la,a,0.724,,133.415,133.415,-0.026851852,-0.396296296,0,0,0,,0,16,16,241,1,,,,,
,,,,,,5da5a3e9609253b5aa4dd47f,66a626ef09d4e21e1a8894ec,67371da6e773e4b72754c6fc,2024-11-15_11h08.51.197,Tarea de género gramatical,2024.2.2,Win32,59.95203837,,,,,,,,,,,,,,,,,,,,,,133.417,134.635,a,1,[],[],[],[],[],[],[],0.546,1,134.638,135.132,,,,,,1159,FEM,DIS,150,prima,el,a,0.546,,135.132,135.133,-0.026851852,-0.396296296,0,0,0,,0,17,17,258,1,,,,,
,,,,,,5da5a3e9609253b5aa4dd47f,66a626ef09d4e21e1a8894ec,67371da6e773e4b72754c6fc,2024-11-15_11h08.51.197,Tarea de género gramatical,2024.2.2,Win32,59.95203837,,,,,,,,,,,,,,,,,,,,,,135.139,136.231,a,1,[],[],[],[],[],[],[],0.419,1,136.232,136.73,,,,,,1017,FEM,CON,150,raya,,a,0.419,,136.73,136.731,-0.026851852,-0.396296296,0,0,0,,0,18,18,116,1,,,,,
,,,,,,5da5a3e9609253b5aa4dd47f,66a626ef09d4e21e1a8894ec,67371da6e773e4b72754c6fc,2024-11-15_11h08.51.197,Tarea de género gramatical,2024.2.2,Win32,59.95203837,,,,,,,,,,,,,,,,,,,,,,136.732,137.831,l,1,[],[],[],[],[],[],[],0.419,1,137.832,138.331,,,,,,1342,MAS,DIS,150,cuadro,la,l,0.419,,138.332,138.332,-0.026851852,-0.396296296,0,0,0,,0,19,19,441,1,,,,,
,,,,,,5da5a3e9609253b5aa4dd47f,66a626ef09d4e21e1a8894ec,67371da6e773e4b72754c6fc,2024-11-15_11h08.51.197,Tarea de género gramatical,2024.2.2,Win32,59.95203837,,,,,,,,,,,,,,,,,,,,,,138.335,139.464,l,1,[],[],[],[],[],[],[],0.458,1,139.464,139.964,,,,,,942,MAS,CON,150,show,,l,0.458,,139.967,139.971,-0.026851852,-0.396296296,0,0,0,,0,20,20,41,1,,,,,
,,,,,,5da5a3e9609253b5aa4dd47f,66a626ef09d4e21e1a8894ec,67371da6e773e4b72754c6fc,2024-11-15_11h08.51.197,Tarea de género gramatical,2024.2.2,Win32,59.95203837,,,,,,,,,,,,,,,,,,,,,,139.973,141.033,a,1,[],[],[],[],[],[],[],0.394,1,141.033,141.53,,,,,,1004,FEM,AGR,150,vela,la,a,0.394,,141.531,141.532,-0.026851852,-0.396296296,0,0,0,,0,21,21,103,1,,,,,
,,,,,,5da5a3e9609253b5aa4dd47f,66a626ef09d4e21e1a8894ec,67371da6e773e4b72754c6fc,2024-11-15_11h08.51.197,Tarea de género gramatical,2024.2.2,Win32,59.95203837,,,,,,,,,,,,,,,,,,,,,,141.534,142.616,a,1,[],[],[],[],[],[],[],0.412,1,142.617,143.115,,,,,,927,FEM,CON,150,mesa,,a,0.412,,143.115,143.115,-0.026851852,-0.396296296,0,0,0,,0,22,22,26,1,,,,,
,,,,,,5da5a3e9609253b5aa4dd47f,66a626ef09d4e21e1a8894ec,67371da6e773e4b72754c6fc,2024-11-15_11h08.51.197,Tarea de género gramatical,2024.2.2,Win32,59.95203837,,,,,,,,,,,,,,,,,,,,,,143.118,144.132,l,1,[],[],[],[],[],[],[],0.335,1,144.132,144.631,,,,,,995,MAS,AGR,150,tomo,el,l,0.335,,144.631,144.632,-0.026851852,-0.396296296,0,0,0,,0,23,23,94,1,,,,,
,,,,,,5da5a3e9609253b5aa4dd47f,66a626ef09d4e21e1a8894ec,67371da6e773e4b72754c6fc,2024-11-15_11h08.51.197,Tarea de género gramatical,2024.2.2,Win32,59.95203837,,,,,,,,,,,,,,,,,,,,,,144.635,145.615,l,0,[],[],[],[],[],[],[],0.304,0,145.618,146.114,,,,,,961,FEM,DIS,150,ruta,el,a,0.304,,146.117,146.122,-0.026851852,-0.396296296,0,0,0,,0,24,24,60,1,,,,,
,,,,,,5da5a3e9609253b5aa4dd47f,66a626ef09d4e21e1a8894ec,67371da6e773e4b72754c6fc,2024-11-15_11h08.51.197,Tarea de género gramatical,2024.2.2,Win32,59.95203837,,,,,,,,,,,,,,,,,,,,,,146.124,147.365,l,0,[],[],[],[],[],[],[],0.568,0,147.367,147.865,,,,,,985,FEM,DIS,150,gira,el,a,0.568,,147.865,147.866,-0.026851852,-0.396296296,0,0,0,,0,25,25,84,1,,,,,
,,,,,,5da5a3e9609253b5aa4dd47f,66a626ef09d4e21e1a8894ec,67371da6e773e4b72754c6fc,2024-11-15_11h08.51.197,Tarea de género gramatical,2024.2.2,Win32,59.95203837,,,,,,,,,,,,,,,,,,,,,,147.868,148.982,l,1,[],[],[],[],[],[],[],0.436,1,148.984,149.481,,,,,,1080,MAS,CON,150,fuego,,l,0.436,,149.481,149.481,-0.026851852,-0.396296296,0,0,0,,0,26,26,179,1,,,,,
,,,,,,5da5a3e9609253b5aa4dd47f,66a626ef09d4e21e1a8894ec,67371da6e773e4b72754c6fc,2024-11-15_11h08.51.197,Tarea de género gramatical,2024.2.2,Win32,59.95203837,,,,,,,,,,,,,,,,,,,,,,149.482,150.633,l,1,[],[],[],[],[],[],[],0.476,1,150.634,151.132,,,,,,964,MAS,DIS,150,saco,la,l,0.476,,151.132,151.132,-0.026851852,-0.396296296,0,0,0,,0,27,27,63,1,,,,,
,,,,,,5da5a3e9609253b5aa4dd47f,66a626ef09d4e21e1a8894ec,67371da6e773e4b72754c6fc,2024-11-15_11h08.51.197,Tarea de género gramatical,2024.2.2,Win32,59.95203837,,,,,,,,,,,,,,,,,,,,,,151.135,152.115,l,1,[],[],[],[],[],[],[],0.302,1,152.116,152.614,,,,,,1198,MAS,DIS,150,botón,la,l,0.302,,152.615,152.615,-0.026851852,-0.396296296,0,0,0,,0,28,28,297,1,,,,,
,,,,,,5da5a3e9609253b5aa4dd47f,66a626ef09d4e21e1a8894ec,67371da6e773e4b72754c6fc,2024-11-15_11h08.51.197,Tarea de género gramatical,2024.2.2,Win32,59.95203837,,,,,,,,,,,,,,,,,,,,,,152.617,153.648,a,1,[],[],[],[],[],[],[],0.359,1,153.648,154.148,,,,,,963,FEM,CON,150,fila,,a,0.359,,154.15,154.154,-0.026851852,-0.396296296,0,0,0,,0,29,29,62,1,,,,,
,,,,,,5da5a3e9609253b5aa4dd47f,66a626ef09d4e21e1a8894ec,67371da6e773e4b72754c6fc,2024-11-15_11h08.51.197,Tarea de género gramatical,2024.2.2,Win32,59.95203837,,,,,,,,,,,,,,,,,,,,,,154.156,155.248,l,1,[],[],[],[],[],[],[],0.418,1,155.248,155.748,,,,,,1084,MAS,DIS,150,cielo,la,l,0.418,,155.748,155.749,-0.026851852,-0.396296296,0,0,0,,0,30,30,183,1,,,,,
,,,,,,5da5a3e9609253b5aa4dd47f,66a626ef09d4e21e1a8894ec,67371da6e773e4b72754c6fc,2024-11-15_11h08.51.197,Tarea de género gramatical,2024.2.2,Win32,59.95203837,,,,,,,,,,,,,,,,,,,,,,155.752,156.817,a,1,[],[],[],[],[],[],[],0.394,1,156.819,157.315,,,,,,1274,FEM,AGR,150,herida,la,a,0.394,,157.315,157.316,-0.026851852,-0.396296296,0,0,0,,0,31,31,373,1,,,,,
,,,,,,5da5a3e9609253b5aa4dd47f,66a626ef09d4e21e1a8894ec,67371da6e773e4b72754c6fc,2024-11-15_11h08.51.197,Tarea de género gramatical,2024.2.2,Win32,59.95203837,,,,,,,,,,,,,,,,,,,,,,157.318,158.449,l,1,[],[],[],[],[],[],[],0.459,1,158.449,158.949,,,,,,1300,MAS,DIS,150,barrio,la,l,0.459,,158.949,158.949,-0.026851852,-0.396296296,0,0,0,,0,32,32,399,1,,,,,
,,,,,,5da5a3e9609253b5aa4dd47f,66a626ef09d4e21e1a8894ec,67371da6e773e4b72754c6fc,2024-11-15_11h08.51.197,Tarea de género gramatical,2024.2.2,Win32,59.95203837,,,,,,,,,,,,,,,,,,,,,,158.951,160.098,a,1,[],[],[],[],[],[],[],0.475,1,160.099,160.598,,,,,,950,FEM,AGR,150,dama,la,a,0.475,,160.6,160.602,-0.026851852,-0.396296296,0,0,0,,0,33,33,49,1,,,,,
,,,,,,5da5a3e9609253b5aa4dd47f,66a626ef09d4e21e1a8894ec,67371da6e773e4b72754c6fc,2024-11-15_11h08.51.197,Tarea de género gramatical,2024.2.2,Win32,59.95203837,,,,,,,,,,,,,,,,,,,,,,160.603,161.715,l,1,[],[],[],[],[],[],[],0.435,1,161.715,162.215,,,,,,1168,MAS,DIS,150,truco,la,l,0.435,,162.215,162.215,-0.026851852,-0.396296296,0,0,0,,0,34,34,267,1,,,,,
,,,,,,5da5a3e9609253b5aa4dd47f,66a626ef09d4e21e1a8894ec,67371da6e773e4b72754c6fc,2024-11-15_11h08.51.197,Tarea de género gramatical,2024.2.2,Win32,59.95203837,,,,,,,,,,,,,,,,,,,,,,162.217,163.349,a,0,[],[],[],[],[],[],[],0.452,0,163.35,163.849,,,,,,976,MAS,DIS,150,lujo,la,l,0.452,,163.85,163.85,-0.026851852,-0.396296296,0,0,0,,0,35,35,75,1,,,,,
,,,,,,5da5a3e9609253b5aa4dd47f,66a626ef09d4e21e1a8894ec,67371da6e773e4b72754c6fc,2024-11-15_11h08.51.197,Tarea de género gramatical,2024.2.2,Win32,59.95203837,,,,,,,,,,,,,,,,,,,,,,163.855,165.051,l,1,[],[],[],[],[],[],[],0.525,1,165.056,165.549,,,,,,1211,MAS,AGR,150,camino,el,l,0.525,,165.549,165.549,-0.026851852,-0.396296296,0,0,0,,0,36,36,310,1,,,,,
,,,,,,5da5a3e9609253b5aa4dd47f,66a626ef09d4e21e1a8894ec,67371da6e773e4b72754c6fc,2024-11-15_11h08.51.197,Tarea de género gramatical,2024.2.2,Win32,59.95203837,,,,,,,,,,,,,,,,,,,,,,165.549,166.765,a,1,[],[],[],[],[],[],[],0.555,1,166.767,167.266,,,,,,1255,FEM,DIS,150,mirada,el,a,0.555,,167.266,167.267,-0.026851852,-0.396296296,0,0,0,,0,37,37,354,1,,,,,
,,,,,,5da5a3e9609253b5aa4dd47f,66a626ef09d4e21e1a8894ec,67371da6e773e4b72754c6fc,2024-11-15_11h08.51.197,Tarea de género gramatical,2024.2.2,Win32,59.95203837,,,,,,,,,,,,,,,,,,,,,,167.271,168.449,a,1,[],[],[],[],[],[],[],0.509,1,168.45,168.948,,,,,,1119,FEM,CON,150,costa,,a,0.509,,168.952,168.956,-0.026851852,-0.396296296,0,0,0,,0,38,38,218,1,,,,,
,,,,,,5da5a3e9609253b5aa4dd47f,66a626ef09d4e21e1a8894ec,67371da6e773e4b72754c6fc,2024-11-15_11h08.51.197,Tarea de género gramatical,2024.2.2,Win32,59.95203837,,,,,,,,,,,,,,,,,,,,,,168.958,170.083,l,1,[],[],[],[],[],[],[],0.452,1,170.083,170.583,,,,,,1036,MAS,DIS,150,vago,la,l,0.452,,170.583,170.584,-0.026851852,-0.396296296,0,0,0,,0,39,39,135,1,,,,,
,,,,,,5da5a3e9609253b5aa4dd47f,66a626ef09d4e21e1a8894ec,67371da6e773e4b72754c6fc,2024-11-15_11h08.51.197,Tarea de género gramatical,2024.2.2,Win32,59.95203837,,,,,,,,,,,,,,,,,,,,,,170.586,171.699,l,1,[],[],[],[],[],[],[],0.436,1,171.699,172.199,,,,,,1072,MAS,DIS,150,poder,la,l,0.436,,172.199,172.2,-0.026851852,-0.396296296,0,0,0,,0,40,40,171,1,,,,,
,,,,,,5da5a3e9609253b5aa4dd47f,66a626ef09d4e21e1a8894ec,67371da6e773e4b72754c6fc,2024-11-15_11h08.51.197,Tarea de género gramatical,2024.2.2,Win32,59.95203837,,,,,,,,,,,,,,,,,,,,,,172.202,173.249,l,1,[],[],[],[],[],[],[],0.368,1,173.251,173.749,,,,,,1205,MAS,AGR,150,hombre,el,l,0.368,,173.749,173.749,-0.026851852,-0.396296296,0,0,0,,0,41,41,304,1,,,,,
,,,,,,5da5a3e9609253b5aa4dd47f,66a626ef09d4e21e1a8894ec,67371da6e773e4b72754c6fc,2024-11-15_11h08.51.197,Tarea de género gramatical,2024.2.2,Win32,59.95203837,,,,,,,,,,,,,,,,,,,,,,173.752,174.801,l,1,[],[],[],[],[],[],[],0.378,1,174.802,175.299,,,,,,1288,MAS,DIS,150,empleo,la,l,0.378,,175.302,175.305,-0.026851852,-0.396296296,0,0,0,,0,42,42,387,1,,,,,
,,,,,,5da5a3e9609253b5aa4dd47f,66a626ef09d4e21e1a8894ec,67371da6e773e4b72754c6fc,2024-11-15_11h08.51.197,Tarea de género gramatical,2024.2.2,Win32,59.95203837,,,,,,,,,,,,,,,,,,,,,,175.308,176.482,a,1,[],[],[],[],[],[],[],0.507,1,176.483,176.983,,,,,,1071,FEM,CON,150,mitad,,a,0.507,,176.983,176.984,-0.026851852,-0.396296296,0,0,0,,0,43,43,170,1,,,,,
,,,,,,5da5a3e9609253b5aa4dd47f,66a626ef09d4e21e1a8894ec,67371da6e773e4b72754c6fc,2024-11-15_11h08.51.197,Tarea de género gramatical,2024.2.2,Win32,59.95203837,,,,,,,,,,,,,,,,,,,,,,176.987,178.449,l,1,[],[],[],[],[],[],[],0.785,1,178.451,178.949,,,,,,1044,MAS,CON,150,amor,,l,0.785,,178.949,178.95,-0.026851852,-0.396296296,0,0,0,,0,44,44,143,1,,,,,
,,,,,,5da5a3e9609253b5aa4dd47f,66a626ef09d4e21e1a8894ec,67371da6e773e4b72754c6fc,2024-11-15_11h08.51.197,Tarea de género gramatical,2024.2.2,Win32,59.95203837,,,,,,,,,,,,,,,,,,,,,,178.952,180.133,l,1,[],[],[],[],[],[],[],0.504,1,180.134,180.633,,,,,,1200,MAS,CON,150,túnel,,l,0.504,,180.633,180.635,-0.026851852,-0.396296296,0,0,0,,0,45,45,299,1,,,,,
,,,,,,5da5a3e9609253b5aa4dd47f,66a626ef09d4e21e1a8894ec,67371da6e773e4b72754c6fc,2024-11-15_11h08.51.197,Tarea de género gramatical,2024.2.2,Win32,59.95203837,,,,,,,,,,,,,,,,,,,,,,180.637,181.949,a,1,[],[],[],[],[],[],[],0.638,1,181.951,182.449,,,,,,1237,FEM,DIS,150,escena,el,a,0.638,,182.449,182.449,-0.026851852,-0.396296296,0,0,0,,0,46,46,336,1,,,,,
,,,,,,5da5a3e9609253b5aa4dd47f,66a626ef09d4e21e1a8894ec,67371da6e773e4b72754c6fc,2024-11-15_11h08.51.197,Tarea de género gramatical,2024.2.2,Win32,59.95203837,,,,,,,,,,,,,,,,,,,,,,182.452,183.566,l,1,[],[],[],[],[],[],[],0.436,1,183.566,184.066,,,,,,1296,MAS,CON,150,tesoro,,l,0.436,,184.069,184.073,-0.026851852,-0.396296296,0,0,0,,0,47,47,395,1,,,,,
,,,,,,5da5a3e9609253b5aa4dd47f,66a626ef09d4e21e1a8894ec,67371da6e773e4b72754c6fc,2024-11-15_11h08.51.197,Tarea de género gramatical,2024.2.2,Win32,59.95203837,,,,,,,,,,,,,,,,,,,,,,184.075,185.283,a,1,[],[],[],[],[],[],[],0.536,1,185.285,185.783,,,,,,1087,FEM,DIS,150,lista,el,a,0.536,,185.783,185.783,-0.026851852,-0.396296296,0,0,0,,0,48,48,186,1,,,,,
,,,,,,5da5a3e9609253b5aa4dd47f,66a626ef09d4e21e1a8894ec,67371da6e773e4b72754c6fc,2024-11-15_11h08.51.197,Tarea de género gramatical,2024.2.2,Win32,59.95203837,,,,,,,,,,,,,,,,,,,,,,185.786,187.234,l,0,[],[],[],[],[],[],[],0.767,0,187.235,187.734,,,,,,1016,FEM,AGR,150,nube,la,a,0.767,,187.734,187.734,-0.026851852,-0.396296296,0,0,0,,0,49,49,115,1,,,,,
,,,,,,5da5a3e9609253b5aa4dd47f,66a626ef09d4e21e1a8894ec,67371da6e773e4b72754c6fc,2024-11-15_11h08.51.197,Tarea de género gramatical,2024.2.2,Win32,59.95203837,,,,,,,,,,,,,,,,,,,,,,187.736,189.066,a,1,[],[],[],[],[],[],[],0.65,1,189.068,189.566,,,,,,1249,FEM,DIS,150,prensa,el,a,0.65,,189.566,189.568,-0.026851852,-0.396296296,0,0,0,,0,50,50,348,1,,,,,
,,,,,,5da5a3e9609253b5aa4dd47f,66a626ef09d4e21e1a8894ec,67371da6e773e4b72754c6fc,2024-11-15_11h08.51.197,Tarea de género gramatical,2024.2.2,Win32,59.95203837,,,,,,,,,,,,,,,,,,,,,,189.569,190.684,a,1,[],[],[],[],[],[],[],0.439,1,190.685,191.183,,,,,,987,FEM,CON,150,risa,,a,0.439,,191.185,191.189,-0.026851852,-0.396296296,0,0,0,,0,51,51,86,1,,,,,
,,,,,,5da5a3e9609253b5aa4dd47f,66a626ef09d4e21e1a8894ec,67371da6e773e4b72754c6fc,2024-11-15_11h08.51.197,Tarea de género gramatical,2024.2.2,Win32,59.95203837,,,,,,,,,,,,,,,,,,,,,,191.191,192.333,l,1,[],[],[],[],[],[],[],0.47,1,192.333,192.834,,,,,,970,MAS,DIS,150,palo,la,l,0.47,,192.835,192.835,-0.026851852,-0.396296296,0,0,0,,0,52,52,69,1,,,,,
,,,,,,5da5a3e9609253b5aa4dd47f,66a626ef09d4e21e1a8894ec,67371da6e773e4b72754c6fc,2024-11-15_11h08.51.197,Tarea de género gramatical,2024.2.2,Win32,59.95203837,,,,,,,,,,,,,,,,,,,,,,192.837,194.033,a,1,[],[],[],[],[],[],[],0.519,1,194.036,194.533,,,,,,979,FEM,DIS,150,mina,el,a,0.519,,194.533,194.533,-0.026851852,-0.396296296,0,0,0,,0,53,53,78,1,,,,,
,,,,,,5da5a3e9609253b5aa4dd47f,66a626ef09d4e21e1a8894ec,67371da6e773e4b72754c6fc,2024-11-15_11h08.51.197,Tarea de género gramatical,2024.2.2,Win32,59.95203837,,,,,,,,,,,,,,,,,,,,,,194.535,195.699,l,0,[],[],[],[],[],[],[],0.489,0,195.702,196.2,,,,,,1263,FEM,CON,150,unidad,,a,0.489,,196.2,196.2,-0.026851852,-0.396296296,0,0,0,,0,54,54,362,1,,,,,
,,,,,,5da5a3e9609253b5aa4dd47f,66a626ef09d4e21e1a8894ec,67371da6e773e4b72754c6fc,2024-11-15_11h08.51.197,Tarea de género gramatical,2024.2.2,Win32,59.95203837,,,,,,,,,,,,,,,,,,,,,,196.202,197.467,a,1,[],[],[],[],[],[],[],0.59,1,197.468,197.966,,,,,,921,FEM,CON,150,boca,,a,0.59,,197.966,197.966,-0.026851852,-0.396296296,0,0,0,,0,55,55,20,1,,,,,
,,,,,,5da5a3e9609253b5aa4dd47f,66a626ef09d4e21e1a8894ec,67371da6e773e4b72754c6fc,2024-11-15_11h08.51.197,Tarea de género gramatical,2024.2.2,Win32,59.95203837,,,,,,,,,,,,,,,,,,,,,,197.967,199.018,a,1,[],[],[],[],[],[],[],0.391,1,199.022,199.517,,,,,,1215,FEM,CON,150,manera,,a,0.391,,199.52,199.525,-0.026851852,-0.396296296,0,0,0,,0,56,56,314,1,,,,,
,,,,,,5da5a3e9609253b5aa4dd47f,66a626ef09d4e21e1a8894ec,67371da6e773e4b72754c6fc,2024-11-15_11h08.51.197,Tarea de género gramatical,2024.2.2,Win32,59.95203837,,,,,,,,,,,,,,,,,,,,,,199.531,200.616,a,1,[],[],[],[],[],[],[],0.419,1,200.617,201.117,,,,,,1064,FEM,AGR,150,novia,la,a,0.419,,201.117,201.117,-0.026851852,-0.396296296,0,0,0,,0,57,57,163,1,,,,,
,,,,,,5da5a3e9609253b5aa4dd47f,66a626ef09d4e21e1a8894ec,67371da6e773e4b72754c6fc,2024-11-15_11h08.51.197,Tarea de género gramatical,2024.2.2,Win32,59.95203837,,,,,,,,,,,,,,,,,,,,,,201.12,202.185,l,1,[],[],[],[],[],[],[],0.393,1,202.185,202.684,,,,,,1008,MAS,CON,150,hilo,,l,0.393,,202.684,202.685,-0.026851852,-0.396296296,0,0,0,,0,58,58,107,1,,,,,
,,,,,,5da5a3e9609253b5aa4dd47f,66a626ef09d4e21e1a8894ec,67371da6e773e4b72754c6fc,2024-11-15_11h08.51.197,Tarea de género gramatical,2024.2.2,Win32,59.95203837,,,,,,,,,,,,,,,,,,,,,,202.687,203.867,l,1,[],[],[],[],[],[],[],0.502,1,203.869,204.367,,,,,,1174,MAS,DIS,150,motor,la,l,0.502,,204.367,204.367,-0.026851852,-0.396296296,0,0,0,,0,59,59,273,1,,,,,
,,,,,,5da5a3e9609253b5aa4dd47f,66a626ef09d4e21e1a8894ec,67371da6e773e4b72754c6fc,2024-11-15_11h08.51.197,Tarea de género gramatical,2024.2.2,Win32,59.95203837,,,,,,,,,,,,,,,,,,,,,,204.369,205.584,l,1,[],[],[],[],[],[],[],0.543,1,205.585,206.084,,,,,,1054,MAS,DIS,150,padre,la,l,0.543,,206.086,206.09,-0.026851852,-0.396296296,0,0,0,,0,60,60,153,1,,,,,
,,,,,,5da5a3e9609253b5aa4dd47f,66a626ef09d4e21e1a8894ec,67371da6e773e4b72754c6fc,2024-11-15_11h08.51.197,Tarea de género gramatical,2024.2.2,Win32,59.95203837,,,,,,,,,,,,,,,,,,,,,,206.092,207.335,a,0,[],[],[],[],[],[],[],0.57,0,207.337,207.834,,,,,,1248,MAS,CON,150,anillo,,l,0.57,,207.835,207.835,-0.026851852,-0.396296296,0,0,0,,0,61,61,347,1,,,,,
,,,,,,5da5a3e9609253b5aa4dd47f,66a626ef09d4e21e1a8894ec,67371da6e773e4b72754c6fc,2024-11-15_11h08.51.197,Tarea de género gramatical,2024.2.2,Win32,59.95203837,,,,,,,,,,,,,,,,,,,,,,207.838,209.351,a,0,[],[],[],[],[],[],[],0.837,0,209.351,209.85,,,,,,1348,MAS,DIS,150,aceite,la,l,0.837,,209.85,209.851,-0.026851852,-0.396296296,0,0,0,,0,62,62,447,1,,,,,
,,,,,,5da5a3e9609253b5aa4dd47f,66a626ef09d4e21e1a8894ec,67371da6e773e4b72754c6fc,2024-11-15_11h08.51.197,Tarea de género gramatical,2024.2.2,Win32,59.95203837,,,,,,,,,,,,,,,,,,,,,,209.854,211.217,l,0,[],[],[],[],[],[],[],0.692,0,211.219,211.717,,,,,,1323,FEM,CON,150,poesía,,a,0.692,,211.717,211.717,-0.026851852,-0.396296296,0,0,0,,0,63,63,422,1,,,,,
,,,,,,5da5a3e9609253b5aa4dd47f,66a626ef09d4e21e1a8894ec,67371da6e773e4b72754c6fc,2024-11-15_11h08.51.197,Tarea de género gramatical,2024.2.2,Win32,59.95203837,,,,,,,,,,,,,,,,,,,,,,211.718,213.584,a,1,[],[],[],[],[],[],[],1.185,1,213.586,214.085,,,,,,925,FEM,DIS,150,nave,el,a,1.185,,214.085,214.085,-0.026851852,-0.396296296,0,0,0,,0,64,64,24,1,,,,,
,,,,,,5da5a3e9609253b5aa4dd47f,66a626ef09d4e21e1a8894ec,67371da6e773e4b72754c6fc,2024-11-15_11h08.51.197,Tarea de género gramatical,2024.2.2,Win32,59.95203837,,,,,,,,,,,,,,,,,,,,,,214.087,215.568,l,1,[],[],[],[],[],[],[],0.803,1,215.569,216.067,,,,,,1344,MAS,CON,150,límite,,l,0.803,,216.069,216.073,-0.026851852,-0.396296296,0,0,0,,0,65,65,443,1,,,,,
,,,,,,5da5a3e9609253b5aa4dd47f,66a626ef09d4e21e1a8894ec,67371da6e773e4b72754c6fc,2024-11-15_11h08.51.197,Tarea de género gramatical,2024.2.2,Win32,59.95203837,,,,,,,,,,,,,,,,,,,,,,216.075,217.334,l,1,[],[],[],[],[],[],[],0.587,1,217.336,217.834,,,,,,916,MAS,DIS,150,baño,la,l,0.587,,217.834,217.836,-0.026851852,-0.396296296,0,0,0,,0,66,66,15,1,,,,,
,,,,,,5da5a3e9609253b5aa4dd47f,66a626ef09d4e21e1a8894ec,67371da6e773e4b72754c6fc,2024-11-15_11h08.51.197,Tarea de género gramatical,2024.2.2,Win32,59.95203837,,,,,,,,,,,,,,,,,,,,,,217.837,219.051,l,1,[],[],[],[],[],[],[],0.54,1,219.051,219.551,,,,,,1306,MAS,DIS,150,premio,la,l,0.54,,219.551,219.551,-0.026851852,-0.396296296,0,0,0,,0,67,67,405,1,,,,,
,,,,,,5da5a3e9609253b5aa4dd47f,66a626ef09d4e21e1a8894ec,67371da6e773e4b72754c6fc,2024-11-15_11h08.51.197,Tarea de género gramatical,2024.2.2,Win32,59.95203837,,,,,,,,,,,,,,,,,,,,,,219.553,220.752,a,1,[],[],[],[],[],[],[],0.526,1,220.753,221.251,,,,,,944,FEM,AGR,150,zona,la,a,0.526,,221.251,221.251,-0.026851852,-0.396296296,0,0,0,,0,68,68,43,1,,,,,
,,,,,,5da5a3e9609253b5aa4dd47f,66a626ef09d4e21e1a8894ec,67371da6e773e4b72754c6fc,2024-11-15_11h08.51.197,Tarea de género gramatical,2024.2.2,Win32,59.95203837,,,,,,,,,,,,,,,,,,,,,,221.253,222.568,l,1,[],[],[],[],[],[],[],0.643,1,222.568,223.068,,,,,,1048,MAS,DIS,150,surf,la,l,0.643,,223.07,223.073,-0.026851852,-0.396296296,0,0,0,,0,69,69,147,1,,,,,
,,,,,,5da5a3e9609253b5aa4dd47f,66a626ef09d4e21e1a8894ec,67371da6e773e4b72754c6fc,2024-11-15_11h08.51.197,Tarea de género gramatical,2024.2.2,Win32,59.95203837,,,,,,,,,,,,,,,,,,,,,,223.074,224.118,l,1,[],[],[],[],[],[],[],0.372,1,224.119,224.618,,,,,,1092,MAS,CON,150,grupo,,l,0.372,,224.618,224.618,-0.026851852,-0.396296296,0,0,0,,0,70,70,191,1,,,,,
,,,,,,5da5a3e9609253b5aa4dd47f,66a626ef09d4e21e1a8894ec,67371da6e773e4b72754c6fc,2024-11-15_11h08.51.197,Tarea de género gramatical,2024.2.2,Win32,59.95203837,,,,,,,,,,,,,,,,,,,,,,224.62,225.951,a,1,[],[],[],[],[],[],[],0.651,1,225.951,226.451,,,,,,981,FEM,CON,150,cima,,a,0.651,,226.451,226.452,-0.026851852,-0.396296296,0,0,0,,0,71,71,80,1,,,,,
,,,,,,5da5a3e9609253b5aa4dd47f,66a626ef09d4e21e1a8894ec,67371da6e773e4b72754c6fc,2024-11-15_11h08.51.197,Tarea de género gramatical,2024.2.2,Win32,59.95203837,,,,,,,,,,,,,,,,,,,,,,226.454,227.685,l,1,[],[],[],[],[],[],[],0.551,1,227.686,228.185,,,,,,1157,MAS,AGR,150,pecho,el,l,0.551,,228.185,228.185,-0.026851852,-0.396296296,0,0,0,,0,72,72,256,1,,,,,
,,,,,,5da5a3e9609253b5aa4dd47f,66a626ef09d4e21e1a8894ec,67371da6e773e4b72754c6fc,2024-11-15_11h08.51.197,Tarea de género gramatical,2024.2.2,Win32,59.95203837,,,,,,,,,,,,,,,,,,,,,,228.187,229.302,l,1,[],[],[],[],[],[],[],0.435,1,229.305,229.801,,,,,,1074,MAS,CON,150,perro,,l,0.435,,229.802,229.802,-0.026851852,-0.396296296,0,0,0,,0,73,73,173,1,,,,,
,,,,,,5da5a3e9609253b5aa4dd47f,66a626ef09d4e21e1a8894ec,67371da6e773e4b72754c6fc,2024-11-15_11h08.51.197,Tarea de género gramatical,2024.2.2,Win32,59.95203837,,,,,,,,,,,,,,,,,,,,,,229.809,231.051,a,1,[],[],[],[],[],[],[],0.572,1,231.052,231.552,,,,,,1129,FEM,DIS,150,celda,el,a,0.572,,231.555,231.559,-0.026851852,-0.396296296,0,0,0,,0,74,74,228,1,,,,,
,,,,,,5da5a3e9609253b5aa4dd47f,66a626ef09d4e21e1a8894ec,67371da6e773e4b72754c6fc,2024-11-15_11h08.51.197,Tarea de género gramatical,2024.2.2,Win32,59.95203837,,,,,,,,,,,,,,,,,,,,,,231.561,232.751,a,1,[],[],[],[],[],[],[],0.519,1,232.752,233.251,,,,,,1160,FEM,AGR,150,barra,la,a,0.519,,233.251,233.252,-0.026851852,-0.396296296,0,0,0,,0,75,75,259,1,,,,,
,,,,,,5da5a3e9609253b5aa4dd47f,66a626ef09d4e21e1a8894ec,67371da6e773e4b72754c6fc,2024-11-15_11h08.51.197,Tarea de género gramatical,2024.2.2,Win32,59.95203837,,,,,,,,,,,,,,,,,,,,,,233.253,234.417,l,1,[],[],[],[],[],[],[],0.491,1,234.417,234.918,,,,,,1349,MAS,AGR,150,payaso,el,l,0.491,,234.918,234.918,-0.026851852,-0.396296296,0,0,0,,0,76,76,448,1,,,,,
,,,,,,5da5a3e9609253b5aa4dd47f,66a626ef09d4e21e1a8894ec,67371da6e773e4b72754c6fc,2024-11-15_11h08.51.197,Tarea de género gramatical,2024.2.2,Win32,59.95203837,,,,,,,,,,,,,,,,,,,,,,234.919,236.151,a,1,[],[],[],[],[],[],[],0.561,1,236.151,236.651,,,,,,1189,FEM,DIS,150,tabla,el,a,0.561,,236.651,236.651,-0.026851852,-0.396296296,0,0,0,,0,77,77,288,1,,,,,
,,,,,,5da5a3e9609253b5aa4dd47f,66a626ef09d4e21e1a8894ec,67371da6e773e4b72754c6fc,2024-11-15_11h08.51.197,Tarea de género gramatical,2024.2.2,Win32,59.95203837,,,,,,,,,,,,,,,,,,,,,,236.652,237.867,l,1,[],[],[],[],[],[],[],0.532,1,237.868,238.367,,,,,,1307,MAS,AGR,150,jurado,el,l,0.532,,238.369,238.37,-0.026851852,-0.396296296,0,0,0,,0,78,78,406,1,,,,,
,,,,,,5da5a3e9609253b5aa4dd47f,66a626ef09d4e21e1a8894ec,67371da6e773e4b72754c6fc,2024-11-15_11h08.51.197,Tarea de género gramatical,2024.2.2,Win32,59.95203837,,,,,,,,,,,,,,,,,,,,,,238.371,239.535,l,1,[],[],[],[],[],[],[],0.486,1,239.535,240.035,,,,,,1091,MAS,AGR,150,dolor,el,l,0.486,,240.036,240.036,-0.026851852,-0.396296296,0,0,0,,0,79,79,190,1,,,,,
,,,,,,5da5a3e9609253b5aa4dd47f,66a626ef09d4e21e1a8894ec,67371da6e773e4b72754c6fc,2024-11-15_11h08.51.197,Tarea de género gramatical,2024.2.2,Win32,59.95203837,,,,,,,,,,,,,,,,,,,,,,240.038,241.218,l,1,[],[],[],[],[],[],[],0.502,1,241.221,241.718,,,,,,1042,MAS,DIS,150,lodo,la,l,0.502,,241.718,241.719,-0.026851852,-0.396296296,0,0,0,,0,80,80,141,1,,,,,
,,,,,,5da5a3e9609253b5aa4dd47f,66a626ef09d4e21e1a8894ec,67371da6e773e4b72754c6fc,2024-11-15_11h08.51.197,Tarea de género gramatical,2024.2.2,Win32,59.95203837,,,,,,,,,,,,,,,,,,,,,,241.722,242.818,l,1,[],[],[],[],[],[],[],0.417,1,242.819,243.319,,,,,,1085,MAS,AGR,150,sueño,el,l,0.417,,243.319,243.319,-0.026851852,-0.396296296,0,0,0,,0,81,81,184,1,,,,,
,,,,,,5da5a3e9609253b5aa4dd47f,66a626ef09d4e21e1a8894ec,67371da6e773e4b72754c6fc,2024-11-15_11h08.51.197,Tarea de género gramatical,2024.2.2,Win32,59.95203837,,,,,,,,,,,,,,,,,,,,,,243.321,244.536,a,1,[],[],[],[],[],[],[],0.535,1,244.536,245.036,,,,,,1311,FEM,CON,150,actriz,,a,0.535,,245.036,245.037,-0.026851852,-0.396296296,0,0,0,,0,82,82,410,1,,,,,
,,,,,,5da5a3e9609253b5aa4dd47f,66a626ef09d4e21e1a8894ec,67371da6e773e4b72754c6fc,2024-11-15_11h08.51.197,Tarea de género gramatical,2024.2.2,Win32,59.95203837,,,,,,,,,,,,,,,,,,,,,,245.038,246.401,l,1,[],[],[],[],[],[],[],0.685,1,246.404,246.902,,,,,,935,MAS,AGR,150,taxi,el,l,0.685,,246.904,246.908,-0.026851852,-0.396296296,0,0,0,,0,83,83,34,1,,,,,
,,,,,,5da5a3e9609253b5aa4dd47f,66a626ef09d4e21e1a8894ec,67371da6e773e4b72754c6fc,2024-11-15_11h08.51.197,Tarea de género gramatical,2024.2.2,Win32,59.95203837,,,,,,,,,,,,,,,,,,,,,,246.91,248.387,l,1,[],[],[],[],[],[],[],0.801,1,248.387,248.886,,,,,,928,MAS,DIS,150,club,la,l,0.801,,248.886,248.886,-0.026851852,-0.396296296,0,0,0,,0,84,84,27,1,,,,,
,,,,,,5da5a3e9609253b5aa4dd47f,66a626ef09d4e21e1a8894ec,67371da6e773e4b72754c6fc,2024-11-15_11h08.51.197,Tarea de género gramatical,2024.2.2,Win32,59.95203837,,,,,,,,,,,,,,,,,,,,,,248.888,250.102,l,1,[],[],[],[],[],[],[],0.535,1,250.104,250.602,,,,,,1169,MAS,AGR,150,primo,el,l,0.535,,250.602,250.603,-0.026851852,-0.396296296,0,0,0,,0,85,85,268,1,,,,,
,,,,,,5da5a3e9609253b5aa4dd47f,66a626ef09d4e21e1a8894ec,67371da6e773e4b72754c6fc,2024-11-15_11h08.51.197,Tarea de género gramatical,2024.2.2,Win32,59.95203837,,,,,,,,,,,,,,,,,,,,,,250.605,251.652,l,1,[],[],[],[],[],[],[],0.37,1,251.652,252.152,,,,,,1216,MAS,DIS,150,cuerpo,la,l,0.37,,252.152,252.153,-0.026851852,-0.396296296,0,0,0,,0,86,86,315,1,,,,,
,,,,,,5da5a3e9609253b5aa4dd47f,66a626ef09d4e21e1a8894ec,67371da6e773e4b72754c6fc,2024-11-15_11h08.51.197,Tarea de género gramatical,2024.2.2,Win32,59.95203837,,,,,,,,,,,,,,,,,,,,,,252.155,253.352,a,1,[],[],[],[],[],[],[],0.52,1,253.352,253.851,,,,,,1225,FEM,DIS,150,tierra,el,a,0.52,,253.852,253.854,-0.026851852,-0.396296296,0,0,0,,0,87,87,324,1,,,,,
,,,,,,5da5a3e9609253b5aa4dd47f,66a626ef09d4e21e1a8894ec,67371da6e773e4b72754c6fc,2024-11-15_11h08.51.197,Tarea de género gramatical,2024.2.2,Win32,59.95203837,,,,,,,,,,,,,,,,,,,,,,253.855,255.236,l,1,[],[],[],[],[],[],[],0.705,1,255.237,255.736,,,,,,953,MAS,AGR,150,vaso,el,l,0.705,,255.736,255.737,-0.026851852,-0.396296296,0,0,0,,0,88,88,52,1,,,,,
,,,,,,5da5a3e9609253b5aa4dd47f,66a626ef09d4e21e1a8894ec,67371da6e773e4b72754c6fc,2024-11-15_11h08.51.197,Tarea de género gramatical,2024.2.2,Win32,59.95203837,,,,,,,,,,,,,,,,,,,,,,255.738,256.936,l,1,[],[],[],[],[],[],[],0.519,1,256.936,257.436,,,,,,1079,MAS,AGR,150,viaje,el,l,0.519,,257.436,257.437,-0.026851852,-0.396296296,0,0,0,,0,89,89,178,1,,,,,
,,,,,,5da5a3e9609253b5aa4dd47f,66a626ef09d4e21e1a8894ec,67371da6e773e4b72754c6fc,2024-11-15_11h08.51.197,Tarea de género gramatical,2024.2.2,Win32,59.95203837,,,,,,,,,,,,,,,,,,,,,,257.438,258.602,l,1,[],[],[],[],[],[],[],0.485,1,258.604,259.102,,,,,,1204,MAS,DIS,150,tiempo,la,l,0.485,,259.102,259.103,-0.026851852,-0.396296296,0,0,0,,0,90,90,303,1,,,,,
,,,,,,5da5a3e9609253b5aa4dd47f,66a626ef09d4e21e1a8894ec,67371da6e773e4b72754c6fc,2024-11-15_11h08.51.197,Tarea de género gramatical,2024.2.2,Win32,59.95203837,,,,,,,,,,,,,,,,,,,,,,259.105,260.319,a,1,[],[],[],[],[],[],[],0.534,1,260.319,260.819,,,,,,1190,FEM,AGR,150,cabra,la,a,0.534,,260.819,260.819,-0.026851852,-0.396296296,0,0,0,,0,91,91,289,1,,,,,
,,,,,,5da5a3e9609253b5aa4dd47f,66a626ef09d4e21e1a8894ec,67371da6e773e4b72754c6fc,2024-11-15_11h08.51.197,Tarea de género gramatical,2024.2.2,Win32,59.95203837,,,,,,,,,,,,,,,,,,,,,,260.822,261.986,l,1,[],[],[],[],[],[],[],0.485,1,261.986,262.489,,,,,,1145,MAS,AGR,150,turno,el,l,0.485,,262.495,262.502,-0.026851852,-0.396296296,0,0,0,,0,92,92,244,1,,,,,
,,,,,,5da5a3e9609253b5aa4dd47f,66a626ef09d4e21e1a8894ec,67371da6e773e4b72754c6fc,2024-11-15_11h08.51.197,Tarea de género gramatical,2024.2.2,Win32,59.95203837,,,,,,,,,,,,,,,,,,,,,,262.508,264.237,l,1,[],[],[],[],[],[],[],1.052,1,264.241,264.737,,,,,,1218,MAS,CON,150,pueblo,,l,1.052,,264.737,264.738,-0.026851852,-0.396296296,0,0,0,,0,93,93,317,1,,,,,
,,,,,,5da5a3e9609253b5aa4dd47f,66a626ef09d4e21e1a8894ec,67371da6e773e4b72754c6fc,2024-11-15_11h08.51.197,Tarea de género gramatical,2024.2.2,Win32,59.95203837,,,,,,,,,,,,,,,,,,,,,,264.743,266.069,l,1,[],[],[],[],[],[],[],0.65,1,266.07,266.569,,,,,,1012,MAS,DIS,150,reto,la,l,0.65,,266.569,266.57,-0.026851852,-0.396296296,0,0,0,,0,94,94,111,1,,,,,
,,,,,,5da5a3e9609253b5aa4dd47f,66a626ef09d4e21e1a8894ec,67371da6e773e4b72754c6fc,2024-11-15_11h08.51.197,Tarea de género gramatical,2024.2.2,Win32,59.95203837,,,,,,,,,,,,,,,,,,,,,,266.575,267.669,l,1,[],[],[],[],[],[],[],0.421,1,267.671,268.17,,,,,,1180,MAS,DIS,150,salón,la,l,0.421,,268.171,268.172,-0.026851852,-0.396296296,0,0,0,,0,95,95,279,1,,,,,
,,,,,,5da5a3e9609253b5aa4dd47f,66a626ef09d4e21e1a8894ec,67371da6e773e4b72754c6fc,2024-11-15_11h08.51.197,Tarea de género gramatical,2024.2.2,Win32,59.95203837,,,,,,,,,,,,,,,,,,,,,,268.174,269.287,l,1,[],[],[],[],[],[],[],0.436,1,269.287,269.786,,,,,,1007,MAS,AGR,150,cubo,el,l,0.436,,269.79,269.794,-0.026851852,-0.396296296,0,0,0,,0,96,96,106,1,,,,,
,,,,,,5da5a3e9609253b5aa4dd47f,66a626ef09d4e21e1a8894ec,67371da6e773e4b72754c6fc,2024-11-15_11h08.51.197,Tarea de género gramatical,2024.2.2,Win32,59.95203837,,,,,,,,,,,,,,,,,,,,,,269.796,270.954,a,1,[],[],[],[],[],[],[],0.492,1,270.955,271.452,,,,,,1147,FEM,DIS,150,frase,el,a,0.492,,271.452,271.454,-0.026851852,-0.396296296,0,0,0,,0,97,97,246,1,,,,,
,,,,,,5da5a3e9609253b5aa4dd47f,66a626ef09d4e21e1a8894ec,67371da6e773e4b72754c6fc,2024-11-15_11h08.51.197,Tarea de género gramatical,2024.2.2,Win32,59.95203837,,,,,,,,,,,,,,,,,,,,,,271.458,272.853,a,1,[],[],[],[],[],[],[],0.72,1,272.855,273.353,,,,,,1039,FEM,DIS,150,pipa,el,a,0.72,,273.353,273.354,-0.026851852,-0.396296296,0,0,0,,0,98,98,138,1,,,,,
,,,,,,5da5a3e9609253b5aa4dd47f,66a626ef09d4e21e1a8894ec,67371da6e773e4b72754c6fc,2024-11-15_11h08.51.197,Tarea de género gramatical,2024.2.2,Win32,59.95203837,,,,,,,,,,,,,,,,,,,,,,273.357,274.386,l,1,[],[],[],[],[],[],[],0.352,1,274.388,274.887,,,,,,1302,MAS,CON,150,ladrón,,l,0.352,,274.887,274.887,-0.026851852,-0.396296296,0,0,0,,0,99,99,401,1,,,,,
,,,,,,5da5a3e9609253b5aa4dd47f,66a626ef09d4e21e1a8894ec,67371da6e773e4b72754c6fc,2024-11-15_11h08.51.197,Tarea de género gramatical,2024.2.2,Win32,59.95203837,,,,,,,,,,,,,,,,,,,,,,274.889,276.22,a,1,[],[],[],[],[],[],[],0.655,1,276.222,276.72,,,,,,974,FEM,AGR,150,flor,la,a,0.655,,276.72,276.72,-0.026851852,-0.396296296,0,0,0,,0,100,100,73,1,,,,,
,,,,,,5da5a3e9609253b5aa4dd47f,66a626ef09d4e21e1a8894ec,67371da6e773e4b72754c6fc,2024-11-15_11h08.51.197,Tarea de género gramatical,2024.2.2,Win32,59.95203837,,,,,,,,,,,,,,,,,,,,,,276.724,278.02,l,1,[],[],[],[],[],[],[],0.622,1,278.02,278.52,,,,,,1026,MAS,CON,150,lazo,,l,0.622,,278.522,278.525,-0.026851852,-0.396296296,0,0,0,,0,101,101,125,1,,,,,
,,,,,,5da5a3e9609253b5aa4dd47f,66a626ef09d4e21e1a8894ec,67371da6e773e4b72754c6fc,2024-11-15_11h08.51.197,Tarea de género gramatical,2024.2.2,Win32,59.95203837,,,,,,,,,,,,,,,,,,,,,,278.528,279.853,l,1,[],[],[],[],[],[],[],0.654,1,279.853,280.353,,,,,,1104,MAS,CON,150,papel,,l,0.654,,280.353,280.354,-0.026851852,-0.396296296,0,0,0,,0,102,102,203,1,,,,,
,,,,,,5da5a3e9609253b5aa4dd47f,66a626ef09d4e21e1a8894ec,67371da6e773e4b72754c6fc,2024-11-15_11h08.51.197,Tarea de género gramatical,2024.2.2,Win32,59.95203837,,,,,,,,,,,,,,,,,,,,,,280.357,281.488,l,1,[],[],[],[],[],[],[],0.453,1,281.489,281.987,,,,,,1312,MAS,DIS,150,espejo,la,l,0.453,,281.987,281.988,-0.026851852,-0.396296296,0,0,0,,0,103,103,411,1,,,,,
,,,,,,5da5a3e9609253b5aa4dd47f,66a626ef09d4e21e1a8894ec,67371da6e773e4b72754c6fc,2024-11-15_11h08.51.197,Tarea de género gramatical,2024.2.2,Win32,59.95203837,,,,,,,,,,,,,,,,,,,,,,281.99,283.253,l,1,[],[],[],[],[],[],[],0.586,1,283.253,283.753,,,,,,1120,MAS,DIS,150,huevo,la,l,0.586,,283.753,283.753,-0.026851852,-0.396296296,0,0,0,,0,104,104,219,1,,,,,
,,,,,,5da5a3e9609253b5aa4dd47f,66a626ef09d4e21e1a8894ec,67371da6e773e4b72754c6fc,2024-11-15_11h08.51.197,Tarea de género gramatical,2024.2.2,Win32,59.95203837,,,,,,,,,,,,,,,,,,,,,,283.756,284.954,a,1,[],[],[],[],[],[],[],0.524,1,284.955,285.453,,,,,,1317,FEM,CON,150,cabaña,,a,0.524,,285.456,285.46,-0.026851852,-0.396296296,0,0,0,,0,105,105,416,1,,,,,
,,,,,,5da5a3e9609253b5aa4dd47f,66a626ef09d4e21e1a8894ec,67371da6e773e4b72754c6fc,2024-11-15_11h08.51.197,Tarea de género gramatical,2024.2.2,Win32,59.95203837,,,,,,,,,,,,,,,,,,,,,,285.462,286.737,l,1,[],[],[],[],[],[],[],0.609,1,286.737,287.237,,,,,,1110,MAS,CON,150,baile,,l,0.609,,287.237,287.238,-0.026851852,-0.396296296,0,0,0,,0,106,106,209,1,,,,,
,,,,,,5da5a3e9609253b5aa4dd47f,66a626ef09d4e21e1a8894ec,67371da6e773e4b72754c6fc,2024-11-15_11h08.51.197,Tarea de género gramatical,2024.2.2,Win32,59.95203837,,,,,,,,,,,,,,,,,,,,,,287.24,288.487,a,1,[],[],[],[],[],[],[],0.571,1,288.489,288.988,,,,,,1023,FEM,CON,150,tela,,a,0.571,,288.988,288.989,-0.026851852,-0.396296296,0,0,0,,0,107,107,122,1,,,,,
,,,,,,5da5a3e9609253b5aa4dd47f,66a626ef09d4e21e1a8894ec,67371da6e773e4b72754c6fc,2024-11-15_11h08.51.197,Tarea de género gramatical,2024.2.2,Win32,59.95203837,,,,,,,,,,,,,,,,,,,,,,288.99,290.203,l,1,[],[],[],[],[],[],[],0.537,1,290.204,290.703,,,,,,905,MAS,AGR,150,tipo,el,l,0.537,,290.703,290.704,-0.026851852,-0.396296296,0,0,0,,0,108,108,4,1,,,,,
,,,,,,5da5a3e9609253b5aa4dd47f,66a626ef09d4e21e1a8894ec,67371da6e773e4b72754c6fc,2024-11-15_11h08.51.197,Tarea de género gramatical,2024.2.2,Win32,59.95203837,,,,,,,,,,,,,,,,,,,,,,290.706,291.987,l,1,[],[],[],[],[],[],[],0.606,1,291.987,292.488,,,,,,1115,MAS,AGR,150,hueso,el,l,0.606,,292.488,292.488,-0.026851852,-0.396296296,0,0,0,,0,109,109,214,1,,,,,
,,,,,,5da5a3e9609253b5aa4dd47f,66a626ef09d4e21e1a8894ec,67371da6e773e4b72754c6fc,2024-11-15_11h08.51.197,Tarea de género gramatical,2024.2.2,Win32,59.95203837,,,,,,,,,,,,,,,,,,,,,,292.491,293.605,a,1,[],[],[],[],[],[],[],0.438,1,293.608,294.104,,,,,,1058,FEM,AGR,150,chica,la,a,0.438,,294.107,294.112,-0.026851852,-0.396296296,0,0,0,,0,110,110,157,1,,,,,
,,,,,,5da5a3e9609253b5aa4dd47f,66a626ef09d4e21e1a8894ec,67371da6e773e4b72754c6fc,2024-11-15_11h08.51.197,Tarea de género gramatical,2024.2.2,Win32,59.95203837,,,,,,,,,,,,,,,,,,,,,,294.118,295.304,l,1,[],[],[],[],[],[],[],0.519,1,295.304,295.803,,,,,,954,MAS,CON,150,humo,,l,0.519,,295.804,295.804,-0.026851852,-0.396296296,0,0,0,,0,111,111,53,1,,,,,
,,,,,,5da5a3e9609253b5aa4dd47f,66a626ef09d4e21e1a8894ec,67371da6e773e4b72754c6fc,2024-11-15_11h08.51.197,Tarea de género gramatical,2024.2.2,Win32,59.95203837,,,,,,,,,,,,,,,,,,,,,,295.808,296.904,l,1,[],[],[],[],[],[],[],0.427,1,296.904,297.404,,,,,,1206,MAS,CON,150,dinero,,l,0.427,,297.405,297.406,-0.026851852,-0.396296296,0,0,0,,0,112,112,305,1,,,,,
,,,,,,5da5a3e9609253b5aa4dd47f,66a626ef09d4e21e1a8894ec,67371da6e773e4b72754c6fc,2024-11-15_11h08.51.197,Tarea de género gramatical,2024.2.2,Win32,59.95203837,,,,,,,,,,,,,,,,,,,,,,297.409,298.537,a,1,[],[],[],[],[],[],[],0.458,1,298.54,299.038,,,,,,1208,FEM,AGR,150,semana,la,a,0.458,,299.038,299.038,-0.026851852,-0.396296296,0,0,0,,0,113,113,307,1,,,,,
,,,,,,5da5a3e9609253b5aa4dd47f,66a626ef09d4e21e1a8894ec,67371da6e773e4b72754c6fc,2024-11-15_11h08.51.197,Tarea de género gramatical,2024.2.2,Win32,59.95203837,,,,,,,,,,,,,,,,,,,,,,299.038,300.138,l,1,[],[],[],[],[],[],[],0.426,1,300.139,300.637,,,,,,1066,MAS,DIS,150,coche,la,l,0.426,,300.639,300.642,-0.026851852,-0.396296296,0,0,0,,0,114,114,165,1,,,,,
,,,,,,5da5a3e9609253b5aa4dd47f,66a626ef09d4e21e1a8894ec,67371da6e773e4b72754c6fc,2024-11-15_11h08.51.197,Tarea de género gramatical,2024.2.2,Win32,59.95203837,,,,,,,,,,,,,,,,,,,,,,300.643,301.871,a,1,[],[],[],[],[],[],[],0.552,1,301.873,302.371,,,,,,1287,FEM,CON,150,página,,a,0.552,,302.371,302.371,-0.026851852,-0.396296296,0,0,0,,0,115,115,386,1,,,,,
,,,,,,5da5a3e9609253b5aa4dd47f,66a626ef09d4e21e1a8894ec,67371da6e773e4b72754c6fc,2024-11-15_11h08.51.197,Tarea de género gramatical,2024.2.2,Win32,59.95203837,,,,,,,,,,,,,,,,,,,,,,302.373,303.52,l,1,[],[],[],[],[],[],[],0.475,1,303.52,304.02,,,,,,1193,MAS,AGR,150,patio,el,l,0.475,,304.02,304.022,-0.026851852,-0.396296296,0,0,0,,0,116,116,292,1,,,,,
,,,,,,5da5a3e9609253b5aa4dd47f,66a626ef09d4e21e1a8894ec,67371da6e773e4b72754c6fc,2024-11-15_11h08.51.197,Tarea de género gramatical,2024.2.2,Win32,59.95203837,,,,,,,,,,,,,,,,,,,,,,304.024,305.221,a,1,[],[],[],[],[],[],[],0.521,1,305.221,305.721,,,,,,919,FEM,DIS,150,niña,el,a,0.521,,305.721,305.722,-0.026851852,-0.396296296,0,0,0,,0,117,117,18,1,,,,,
,,,,,,5da5a3e9609253b5aa4dd47f,66a626ef09d4e21e1a8894ec,67371da6e773e4b72754c6fc,2024-11-15_11h08.51.197,Tarea de género gramatical,2024.2.2,Win32,59.95203837,,,,,,,,,,,,,,,,,,,,,,305.724,306.971,l,1,[],[],[],[],[],[],[],0.573,1,306.972,307.471,,,,,,1325,MAS,AGR,150,chiste,el,l,0.573,,307.471,307.472,-0.026851852,-0.396296296,0,0,0,,0,118,118,424,1,,,,,
,,,,,,5da5a3e9609253b5aa4dd47f,66a626ef09d4e21e1a8894ec,67371da6e773e4b72754c6fc,2024-11-15_11h08.51.197,Tarea de género gramatical,2024.2.2,Win32,59.95203837,,,,,,,,,,,,,,,,,,,,,,307.474,308.638,l,1,[],[],[],[],[],[],[],0.486,1,308.639,309.138,,,,,,1108,MAS,DIS,150,suelo,la,l,0.486,,309.14,309.144,-0.026851852,-0.396296296,0,0,0,,0,119,119,207,1,,,,,
,,,,,,5da5a3e9609253b5aa4dd47f,66a626ef09d4e21e1a8894ec,67371da6e773e4b72754c6fc,2024-11-15_11h08.51.197,Tarea de género gramatical,2024.2.2,Win32,59.95203837,,,,,,,,,,,,,,,,,,,,,,309.146,310.204,l,1,[],[],[],[],[],[],[],0.388,1,310.206,310.705,,,,,,1266,MAS,CON,150,riesgo,,l,0.388,,310.705,310.705,-0.026851852,-0.396296296,0,0,0,,0,120,120,365,1,,,,,
,,,,,,5da5a3e9609253b5aa4dd47f,66a626ef09d4e21e1a8894ec,67371da6e773e4b72754c6fc,2024-11-15_11h08.51.197,Tarea de género gramatical,2024.2.2,Win32,59.95203837,,,,,,,,,,,,,,,,,,,,,,310.707,312.121,a,1,[],[],[],[],[],[],[],0.742,1,312.121,312.621,,,,,,1118,FEM,AGR,150,nieve,la,a,0.742,,312.622,312.622,-0.026851852,-0.396296296,0,0,0,,0,121,121,217,1,,,,,
,,,,,,5da5a3e9609253b5aa4dd47f,66a626ef09d4e21e1a8894ec,67371da6e773e4b72754c6fc,2024-11-15_11h08.51.197,Tarea de género gramatical,2024.2.2,Win32,59.95203837,,,,,,,,,,,,,,,,,,,,,,312.624,313.755,l,1,[],[],[],[],[],[],[],0.457,1,313.755,314.255,,,,,,1096,MAS,DIS,150,barco,la,l,0.457,,314.255,314.255,-0.026851852,-0.396296296,0,0,0,,0,122,122,195,1,,,,,
,,,,,,5da5a3e9609253b5aa4dd47f,66a626ef09d4e21e1a8894ec,67371da6e773e4b72754c6fc,2024-11-15_11h08.51.197,Tarea de género gramatical,2024.2.2,Win32,59.95203837,,,,,,,,,,,,,,,,,,,,,,314.257,315.454,a,1,[],[],[],[],[],[],[],0.519,1,315.455,315.955,,,,,,1250,FEM,AGR,150,imagen,la,a,0.519,,315.957,315.961,-0.026851852,-0.396296296,0,0,0,,0,123,123,349,1,,,,,
,,,,,,5da5a3e9609253b5aa4dd47f,66a626ef09d4e21e1a8894ec,67371da6e773e4b72754c6fc,2024-11-15_11h08.51.197,Tarea de género gramatical,2024.2.2,Win32,59.95203837,,,,,,,,,,,,,,,,,,,,,,315.962,317.188,l,1,[],[],[],[],[],[],[],0.552,1,317.189,317.688,,,,,,1150,MAS,DIS,150,cerdo,la,l,0.552,,317.689,317.689,-0.026851852,-0.396296296,0,0,0,,0,124,124,249,1,,,,,
,,,,,,5da5a3e9609253b5aa4dd47f,66a626ef09d4e21e1a8894ec,67371da6e773e4b72754c6fc,2024-11-15_11h08.51.197,Tarea de género gramatical,2024.2.2,Win32,59.95203837,,,,,,,,,,,,,,,,,,,,,,317.69,318.938,l,1,[],[],[],[],[],[],[],0.567,1,318.939,319.438,,,,,,1049,MAS,AGR,150,nudo,el,l,0.567,,319.438,319.439,-0.026851852,-0.396296296,0,0,0,,0,125,125,148,1,,,,,
,,,,,,5da5a3e9609253b5aa4dd47f,66a626ef09d4e21e1a8894ec,67371da6e773e4b72754c6fc,2024-11-15_11h08.51.197,Tarea de género gramatical,2024.2.2,Win32,59.95203837,,,,,,,,,,,,,,,,,,,,,,319.44,320.621,l,1,[],[],[],[],[],[],[],0.504,1,320.621,321.122,,,,,,971,MAS,AGR,150,pozo,el,l,0.504,,321.122,321.122,-0.026851852,-0.396296296,0,0,0,,0,126,126,70,1,,,,,
,,,,,,5da5a3e9609253b5aa4dd47f,66a626ef09d4e21e1a8894ec,67371da6e773e4b72754c6fc,2024-11-15_11h08.51.197,Tarea de género gramatical,2024.2.2,Win32,59.95203837,,,,,,,,,,,,,,,,,,,,,,321.123,322.439,a,1,[],[],[],[],[],[],[],0.635,1,322.439,322.939,,,,,,1081,FEM,DIS,150,tarde,el,a,0.635,,322.939,322.939,-0.026851852,-0.396296296,0,0,0,,0,127,127,180,1,,,,,
,,,,,,5da5a3e9609253b5aa4dd47f,66a626ef09d4e21e1a8894ec,67371da6e773e4b72754c6fc,2024-11-15_11h08.51.197,Tarea de género gramatical,2024.2.2,Win32,59.95203837,,,,,,,,,,,,,,,,,,,,,,322.942,324.489,a,1,[],[],[],[],[],[],[],0.875,1,324.49,324.989,,,,,,1203,FEM,CON,150,maldad,,a,0.875,,324.99,324.993,-0.026851852,-0.396296296,0,0,0,,0,128,128,302,1,,,,,
,,,,,,5da5a3e9609253b5aa4dd47f,66a626ef09d4e21e1a8894ec,67371da6e773e4b72754c6fc,2024-11-15_11h08.51.197,Tarea de género gramatical,2024.2.2,Win32,59.95203837,,,,,,,,,,,,,,,,,,,,,,324.995,326.289,l,1,[],[],[],[],[],[],[],0.625,1,326.289,326.789,,,,,,1265,MAS,AGR,150,código,el,l,0.625,,326.789,326.789,-0.026851852,-0.396296296,0,0,0,,0,129,129,364,1,,,,,
,,,,,,5da5a3e9609253b5aa4dd47f,66a626ef09d4e21e1a8894ec,67371da6e773e4b72754c6fc,2024-11-15_11h08.51.197,Tarea de género gramatical,2024.2.2,Win32,59.95203837,,,,,,,,,,,,,,,,,,,,,,326.791,328.023,a,1,[],[],[],[],[],[],[],0.553,1,328.027,328.522,,,,,,1100,FEM,AGR,150,silla,la,a,0.553,,328.523,328.524,-0.026851852,-0.396296296,0,0,0,,0,130,130,199,1,,,,,
,,,,,,5da5a3e9609253b5aa4dd47f,66a626ef09d4e21e1a8894ec,67371da6e773e4b72754c6fc,2024-11-15_11h08.51.197,Tarea de género gramatical,2024.2.2,Win32,59.95203837,,,,,,,,,,,,,,,,,,,,,,328.53,329.788,a,1,[],[],[],[],[],[],[],0.586,1,329.79,330.289,,,,,,986,FEM,AGR,150,cruz,la,a,0.586,,330.289,330.291,-0.026851852,-0.396296296,0,0,0,,0,131,131,85,1,,,,,
,,,,,,5da5a3e9609253b5aa4dd47f,66a626ef09d4e21e1a8894ec,67371da6e773e4b72754c6fc,2024-11-15_11h08.51.197,Tarea de género gramatical,2024.2.2,Win32,59.95203837,,,,,,,,,,,,,,,,,,,,,,330.293,331.439,l,1,[],[],[],[],[],[],[],0.47,1,331.441,331.939,,,,,,1121,MAS,AGR,150,brazo,el,l,0.47,,331.941,331.945,-0.026851852,-0.396296296,0,0,0,,0,132,132,220,1,,,,,
,,,,,,5da5a3e9609253b5aa4dd47f,66a626ef09d4e21e1a8894ec,67371da6e773e4b72754c6fc,2024-11-15_11h08.51.197,Tarea de género gramatical,2024.2.2,Win32,59.95203837,,,,,,,,,,,,,,,,,,,,,,331.948,333.089,a,1,[],[],[],[],[],[],[],0.469,1,333.089,333.589,,,,,,1292,FEM,AGR,150,maleta,la,a,0.469,,333.589,333.59,-0.026851852,-0.396296296,0,0,0,,0,133,133,391,1,,,,,
,,,,,,5da5a3e9609253b5aa4dd47f,66a626ef09d4e21e1a8894ec,67371da6e773e4b72754c6fc,2024-11-15_11h08.51.197,Tarea de género gramatical,2024.2.2,Win32,59.95203837,,,,,,,,,,,,,,,,,,,,,,333.592,334.825,a,1,[],[],[],[],[],[],[],0.563,1,334.825,335.322,,,,,,1322,FEM,AGR,150,rutina,la,a,0.563,,335.322,335.323,-0.026851852,-0.396296296,0,0,0,,0,134,134,421,1,,,,,
,,,,,,5da5a3e9609253b5aa4dd47f,66a626ef09d4e21e1a8894ec,67371da6e773e4b72754c6fc,2024-11-15_11h08.51.197,Tarea de género gramatical,2024.2.2,Win32,59.95203837,,,,,,,,,,,,,,,,,,,,,,335.325,336.44,a,1,[],[],[],[],[],[],[],0.436,1,336.441,336.94,,,,,,1053,FEM,CON,150,mujer,,a,0.436,,336.94,336.941,-0.026851852,-0.396296296,0,0,0,,0,135,135,152,1,,,,,
,,,,,,5da5a3e9609253b5aa4dd47f,66a626ef09d4e21e1a8894ec,67371da6e773e4b72754c6fc,2024-11-15_11h08.51.197,Tarea de género gramatical,2024.2.2,Win32,59.95203837,,,,,,,,,,,,,,,,,,,,,,336.944,338.155,a,1,[],[],[],[],[],[],[],0.536,1,338.156,338.656,,,,,,1267,FEM,DIS,150,teoría,el,a,0.536,,338.656,338.657,-0.026851852,-0.396296296,0,0,0,,0,136,136,366,1,,,,,
,,,,,,5da5a3e9609253b5aa4dd47f,66a626ef09d4e21e1a8894ec,67371da6e773e4b72754c6fc,2024-11-15_11h08.51.197,Tarea de género gramatical,2024.2.2,Win32,59.95203837,,,,,,,,,,,,,,,,,,,,,,338.659,339.772,l,1,[],[],[],[],[],[],[],0.435,1,339.775,340.272,,,,,,1014,MAS,CON,150,menú,,l,0.435,,340.274,340.278,-0.026851852,-0.396296296,0,0,0,,0,137,137,113,1,,,,,
,,,,,,5da5a3e9609253b5aa4dd47f,66a626ef09d4e21e1a8894ec,67371da6e773e4b72754c6fc,2024-11-15_11h08.51.197,Tarea de género gramatical,2024.2.2,Win32,59.95203837,,,,,,,,,,,,,,,,,,,,,,340.28,341.589,l,1,[],[],[],[],[],[],[],0.638,1,341.59,342.088,,,,,,1158,MAS,CON,150,polvo,,l,0.638,,342.088,342.089,-0.026851852,-0.396296296,0,0,0,,0,138,138,257,1,,,,,
,,,,,,5da5a3e9609253b5aa4dd47f,66a626ef09d4e21e1a8894ec,67371da6e773e4b72754c6fc,2024-11-15_11h08.51.197,Tarea de género gramatical,2024.2.2,Win32,59.95203837,,,,,,,,,,,,,,,,,,,,,,342.09,343.189,a,1,[],[],[],[],[],[],[],0.437,1,343.19,343.689,,,,,,1251,FEM,CON,150,espada,,a,0.437,,343.689,343.69,-0.026851852,-0.396296296,0,0,0,,0,139,139,350,1,,,,,
,,,,,,5da5a3e9609253b5aa4dd47f,66a626ef09d4e21e1a8894ec,67371da6e773e4b72754c6fc,2024-11-15_11h08.51.197,Tarea de género gramatical,2024.2.2,Win32,59.95203837,,,,,,,,,,,,,,,,,,,,,,343.692,344.89,l,1,[],[],[],[],[],[],[],0.519,1,344.892,345.39,,,,,,1151,MAS,AGR,150,dueño,el,l,0.519,,345.39,345.39,-0.026851852,-0.396296296,0,0,0,,0,140,140,250,1,,,,,
,,,,,,5da5a3e9609253b5aa4dd47f,66a626ef09d4e21e1a8894ec,67371da6e773e4b72754c6fc,2024-11-15_11h08.51.197,Tarea de género gramatical,2024.2.2,Win32,59.95203837,,,,,,,,,,,,,,,,,,,,,,345.393,346.69,l,1,[],[],[],[],[],[],[],0.625,1,346.69,347.19,,,,,,1332,MAS,CON,150,océano,,l,0.625,,347.192,347.195,-0.026851852,-0.396296296,0,0,0,,0,141,141,431,1,,,,,
,,,,,,5da5a3e9609253b5aa4dd47f,66a626ef09d4e21e1a8894ec,67371da6e773e4b72754c6fc,2024-11-15_11h08.51.197,Tarea de género gramatical,2024.2.2,Win32,59.95203837,,,,,,,,,,,,,,,,,,,,,,347.196,348.506,l,1,[],[],[],[],[],[],[],0.636,1,348.508,349.006,,,,,,1290,MAS,CON,150,rostro,,l,0.636,,349.006,349.006,-0.026851852,-0.396296296,0,0,0,,0,142,142,389,1,,,,,
,,,,,,5da5a3e9609253b5aa4dd47f,66a626ef09d4e21e1a8894ec,67371da6e773e4b72754c6fc,2024-11-15_11h08.51.197,Tarea de género gramatical,2024.2.2,Win32,59.95203837,,,,,,,,,,,,,,,,,,,,,,349.009,350.206,a,1,[],[],[],[],[],[],[],0.53,1,350.206,350.706,,,,,,1107,FEM,CON,150,playa,,a,0.53,,350.706,350.706,-0.026851852,-0.396296296,0,0,0,,0,143,143,206,1,,,,,
,,,,,,5da5a3e9609253b5aa4dd47f,66a626ef09d4e21e1a8894ec,67371da6e773e4b72754c6fc,2024-11-15_11h08.51.197,Tarea de género gramatical,2024.2.2,Win32,59.95203837,,,,,,,,,,,,,,,,,,,,,,350.707,352.056,l,1,[],[],[],[],[],[],[],0.677,1,352.057,352.556,,,,,,1024,MAS,DIS,150,clan,la,l,0.677,,352.556,352.557,-0.026851852,-0.396296296,0,0,0,,0,144,144,123,1,,,,,
,,,,,,5da5a3e9609253b5aa4dd47f,66a626ef09d4e21e1a8894ec,67371da6e773e4b72754c6fc,2024-11-15_11h08.51.197,Tarea de género gramatical,2024.2.2,Win32,59.95203837,,,,,,,,,,,,,,,,,,,,,,352.558,353.74,a,1,[],[],[],[],[],[],[],0.502,1,353.741,354.239,,,,,,903,FEM,CON,150,cosa,,a,0.502,,354.239,354.239,-0.026851852,-0.396296296,0,0,0,,0,145,145,2,1,,,,,
,,,,,,5da5a3e9609253b5aa4dd47f,66a626ef09d4e21e1a8894ec,67371da6e773e4b72754c6fc,2024-11-15_11h08.51.197,Tarea de género gramatical,2024.2.2,Win32,59.95203837,,,,,,,,,,,,,,,,,,,,,,354.24,355.59,l,1,[],[],[],[],[],[],[],0.68,1,355.59,356.089,,,,,,911,MAS,AGR,150,país,el,l,0.68,,356.09,356.091,-0.026851852,-0.396296296,0,0,0,,0,146,146,10,1,,,,,
,,,,,,5da5a3e9609253b5aa4dd47f,66a626ef09d4e21e1a8894ec,67371da6e773e4b72754c6fc,2024-11-15_11h08.51.197,Tarea de género gramatical,2024.2.2,Win32,59.95203837,,,,,,,,,,,,,,,,,,,,,,356.092,357.339,a,1,[],[],[],[],[],[],[],0.567,1,357.34,357.839,,,,,,933,FEM,CON,150,boda,,a,0.567,,357.839,357.839,-0.026851852,-0.396296296,0,0,0,,0,147,147,32,1,,,,,
,,,,,,5da5a3e9609253b5aa4dd47f,66a626ef09d4e21e1a8894ec,67371da6e773e4b72754c6fc,2024-11-15_11h08.51.197,Tarea de género gramatical,2024.2.2,Win32,59.95203837,,,,,,,,,,,,,,,,,,,,,,357.84,359.006,a,1,[],[],[],[],[],[],[],0.494,1,359.006,359.506,,,,,,1046,FEM,AGR,150,lana,la,a,0.494,,359.506,359.506,-0.026851852,-0.396296296,0,0,0,,0,148,148,145,1,,,,,
,,,,,,5da5a3e9609253b5aa4dd47f,66a626ef09d4e21e1a8894ec,67371da6e773e4b72754c6fc,2024-11-15_11h08.51.197,Tarea de género gramatical,2024.2.2,Win32,59.95203837,,,,,,,,,,,,,,,,,,,,,,359.507,360.656,a,0,[],[],[],[],[],[],[],0.471,0,360.659,361.159,,,,,,1320,MAS,CON,150,helado,,l,0.471,,361.16,361.162,-0.026851852,-0.396296296,0,0,0,,0,149,149,419,1,,,,,
,,,,,,5da5a3e9609253b5aa4dd47f,66a626ef09d4e21e1a8894ec,67371da6e773e4b72754c6fc,2024-11-15_11h08.51.197,Tarea de género gramatical,2024.2.2,Win32,59.95203837,,,,,,,,,,,,,,,,,,,,,,361.171,362.442,l,0,[],[],[],[],[],[],[],0.602,0,362.444,362.941,,,,,,1341,FEM,CON,150,medida,,a,0.602,,362.943,366.908,0.031481481,-0.414814815,1,0,0,,0,150,150,440,1,break_done_button,,,,
,,,,,,5da5a3e9609253b5aa4dd47f,66a626ef09d4e21e1a8894ec,67371da6e773e4b72754c6fc,2024-11-15_11h08.51.197,Tarea de género gramatical,2024.2.2,Win32,59.95203837,,,,,,,,,,,,,,,,,,,,,,366.911,368.391,a,1,[],[],[],[],[],[],[],0.802,1,368.395,368.891,,,,,,1183,FEM,DIS,150,pluma,el,a,0.802,,368.891,368.892,0.031481481,-0.414814815,0,0,0,,0,151,151,282,1,,,,,
,,,,,,5da5a3e9609253b5aa4dd47f,66a626ef09d4e21e1a8894ec,67371da6e773e4b72754c6fc,2024-11-15_11h08.51.197,Tarea de género gramatical,2024.2.2,Win32,59.95203837,,,,,,,,,,,,,,,,,,,,,,368.893,369.993,a,1,[],[],[],[],[],[],[],0.428,1,369.995,370.49,,,,,,1244,FEM,AGR,150,pareja,la,a,0.428,,370.49,370.491,0.031481481,-0.414814815,0,0,0,,0,152,152,343,1,,,,,
,,,,,,5da5a3e9609253b5aa4dd47f,66a626ef09d4e21e1a8894ec,67371da6e773e4b72754c6fc,2024-11-15_11h08.51.197,Tarea de género gramatical,2024.2.2,Win32,59.95203837,,,,,,,,,,,,,,,,,,,,,,370.494,371.557,a,1,[],[],[],[],[],[],[],0.387,1,371.559,372.056,,,,,,1304,FEM,AGR,150,gloria,la,a,0.387,,372.056,372.057,0.031481481,-0.414814815,0,0,0,,0,153,153,403,1,,,,,
,,,,,,5da5a3e9609253b5aa4dd47f,66a626ef09d4e21e1a8894ec,67371da6e773e4b72754c6fc,2024-11-15_11h08.51.197,Tarea de género gramatical,2024.2.2,Win32,59.95203837,,,,,,,,,,,,,,,,,,,,,,372.059,373.091,a,1,[],[],[],[],[],[],[],0.356,1,373.091,373.59,,,,,,1329,FEM,CON,150,fianza,,a,0.356,,373.59,373.591,0.031481481,-0.414814815,0,0,0,,0,154,154,428,1,,,,,
,,,,,,5da5a3e9609253b5aa4dd47f,66a626ef09d4e21e1a8894ec,67371da6e773e4b72754c6fc,2024-11-15_11h08.51.197,Tarea de género gramatical,2024.2.2,Win32,59.95203837,,,,,,,,,,,,,,,,,,,,,,373.594,374.69,a,1,[],[],[],[],[],[],[],0.423,1,374.692,375.19,,,,,,1298,FEM,AGR,150,hierba,la,a,0.423,,375.193,375.197,0.031481481,-0.414814815,0,0,0,,0,155,155,397,1,,,,,
,,,,,,5da5a3e9609253b5aa4dd47f,66a626ef09d4e21e1a8894ec,67371da6e773e4b72754c6fc,2024-11-15_11h08.51.197,Tarea de género gramatical,2024.2.2,Win32,59.95203837,,,,,,,,,,,,,,,,,,,,,,375.198,376.257,a,1,[],[],[],[],[],[],[],0.385,1,376.257,376.757,,,,,,1309,FEM,DIS,150,moneda,el,a,0.385,,376.757,376.757,0.031481481,-0.414814815,0,0,0,,0,156,156,408,1,,,,,
,,,,,,5da5a3e9609253b5aa4dd47f,66a626ef09d4e21e1a8894ec,67371da6e773e4b72754c6fc,2024-11-15_11h08.51.197,Tarea de género gramatical,2024.2.2,Win32,59.95203837,,,,,,,,,,,,,,,,,,,,,,376.76,377.741,a,1,[],[],[],[],[],[],[],0.304,1,377.741,378.241,,,,,,1281,FEM,CON,150,bebida,,a,0.304,,378.241,378.242,0.031481481,-0.414814815,0,0,0,,0,157,157,380,1,,,,,
,,,,,,5da5a3e9609253b5aa4dd47f,66a626ef09d4e21e1a8894ec,67371da6e773e4b72754c6fc,2024-11-15_11h08.51.197,Tarea de género gramatical,2024.2.2,Win32,59.95203837,,,,,,,,,,,,,,,,,,,,,,378.244,379.241,a,1,[],[],[],[],[],[],[],0.318,1,379.242,379.74,,,,,,956,FEM,AGR,150,bola,la,a,0.318,,379.741,379.742,0.031481481,-0.414814815,0,0,0,,0,158,158,55,1,,,,,
,,,,,,5da5a3e9609253b5aa4dd47f,66a626ef09d4e21e1a8894ec,67371da6e773e4b72754c6fc,2024-11-15_11h08.51.197,Tarea de género gramatical,2024.2.2,Win32,59.95203837,,,,,,,,,,,,,,,,,,,,,,379.744,380.724,a,1,[],[],[],[],[],[],[],0.302,1,380.724,381.224,,,,,,1112,FEM,AGR,150,cinta,la,a,0.302,,381.226,381.229,0.031481481,-0.414814815,0,0,0,,0,159,159,211,1,,,,,
,,,,,,5da5a3e9609253b5aa4dd47f,66a626ef09d4e21e1a8894ec,67371da6e773e4b72754c6fc,2024-11-15_11h08.51.197,Tarea de género gramatical,2024.2.2,Win32,59.95203837,,,,,,,,,,,,,,,,,,,,,,381.23,382.257,a,1,[],[],[],[],[],[],[],0.356,1,382.257,382.757,,,,,,1333,FEM,DIS,150,huella,el,a,0.356,,382.757,382.757,0.031481481,-0.414814815,0,0,0,,0,160,160,432,1,,,,,
,,,,,,5da5a3e9609253b5aa4dd47f,66a626ef09d4e21e1a8894ec,67371da6e773e4b72754c6fc,2024-11-15_11h08.51.197,Tarea de género gramatical,2024.2.2,Win32,59.95203837,,,,,,,,,,,,,,,,,,,,,,382.761,383.824,a,1,[],[],[],[],[],[],[],0.392,1,383.826,384.324,,,,,,1232,FEM,AGR,150,basura,la,a,0.392,,384.324,384.325,0.031481481,-0.414814815,0,0,0,,0,161,161,331,1,,,,,
,,,,,,5da5a3e9609253b5aa4dd47f,66a626ef09d4e21e1a8894ec,67371da6e773e4b72754c6fc,2024-11-15_11h08.51.197,Tarea de género gramatical,2024.2.2,Win32,59.95203837,,,,,,,,,,,,,,,,,,,,,,384.327,385.424,l,1,[],[],[],[],[],[],[],0.425,1,385.424,385.924,,,,,,1037,MAS,AGR,150,coco,el,l,0.425,,385.925,385.925,0.031481481,-0.414814815,0,0,0,,0,162,162,136,1,,,,,
,,,,,,5da5a3e9609253b5aa4dd47f,66a626ef09d4e21e1a8894ec,67371da6e773e4b72754c6fc,2024-11-15_11h08.51.197,Tarea de género gramatical,2024.2.2,Win32,59.95203837,,,,,,,,,,,,,,,,,,,,,,385.927,386.908,l,1,[],[],[],[],[],[],[],0.302,1,386.909,387.407,,,,,,1164,MAS,CON,150,pollo,,l,0.302,,387.407,387.408,0.031481481,-0.414814815,0,0,0,,0,163,163,263,1,,,,,
,,,,,,5da5a3e9609253b5aa4dd47f,66a626ef09d4e21e1a8894ec,67371da6e773e4b72754c6fc,2024-11-15_11h08.51.197,Tarea de género gramatical,2024.2.2,Win32,59.95203837,,,,,,,,,,,,,,,,,,,,,,387.409,388.324,l,1,[],[],[],[],[],[],[],0.238,1,388.324,388.824,,,,,,1182,MAS,CON,150,bolso,,l,0.238,,388.826,388.829,0.031481481,-0.414814815,0,0,0,,0,164,164,281,1,,,,,
,,,,,,5da5a3e9609253b5aa4dd47f,66a626ef09d4e21e1a8894ec,67371da6e773e4b72754c6fc,2024-11-15_11h08.51.197,Tarea de género gramatical,2024.2.2,Win32,59.95203837,,,,,,,,,,,,,,,,,,,,,,388.831,389.958,a,1,[],[],[],[],[],[],[],0.453,1,389.958,390.457,,,,,,999,FEM,CON,150,fase,,a,0.453,,390.457,390.458,0.031481481,-0.414814815,0,0,0,,0,165,165,98,1,,,,,
,,,,,,5da5a3e9609253b5aa4dd47f,66a626ef09d4e21e1a8894ec,67371da6e773e4b72754c6fc,2024-11-15_11h08.51.197,Tarea de género gramatical,2024.2.2,Win32,59.95203837,,,,,,,,,,,,,,,,,,,,,,390.46,392.208,a,1,[],[],[],[],[],[],[],1.067,1,392.208,392.709,,,,,,949,FEM,DIS,150,piel,el,a,1.067,,392.709,392.711,0.031481481,-0.414814815,0,0,0,,0,166,166,48,1,,,,,
,,,,,,5da5a3e9609253b5aa4dd47f,66a626ef09d4e21e1a8894ec,67371da6e773e4b72754c6fc,2024-11-15_11h08.51.197,Tarea de género gramatical,2024.2.2,Win32,59.95203837,,,,,,,,,,,,,,,,,,,,,,392.72,393.925,a,1,[],[],[],[],[],[],[],0.538,1,393.925,394.425,,,,,,1149,FEM,CON,150,crema,,a,0.538,,394.425,394.426,0.031481481,-0.414814815,0,0,0,,0,167,167,248,1,,,,,
,,,,,,5da5a3e9609253b5aa4dd47f,66a626ef09d4e21e1a8894ec,67371da6e773e4b72754c6fc,2024-11-15_11h08.51.197,Tarea de género gramatical,2024.2.2,Win32,59.95203837,,,,,,,,,,,,,,,,,,,,,,394.429,395.675,l,1,[],[],[],[],[],[],[],0.566,1,395.676,396.176,,,,,,1098,MAS,CON,150,hotel,,l,0.566,,396.18,396.184,0.031481481,-0.414814815,0,0,0,,0,168,168,197,1,,,,,
,,,,,,5da5a3e9609253b5aa4dd47f,66a626ef09d4e21e1a8894ec,67371da6e773e4b72754c6fc,2024-11-15_11h08.51.197,Tarea de género gramatical,2024.2.2,Win32,59.95203837,,,,,,,,,,,,,,,,,,,,,,396.184,397.442,a,1,[],[],[],[],[],[],[],0.589,1,397.442,397.941,,,,,,1099,FEM,DIS,150,nariz,el,a,0.589,,397.941,397.942,0.031481481,-0.414814815,0,0,0,,0,169,169,198,1,,,,,
,,,,,,5da5a3e9609253b5aa4dd47f,66a626ef09d4e21e1a8894ec,67371da6e773e4b72754c6fc,2024-11-15_11h08.51.197,Tarea de género gramatical,2024.2.2,Win32,59.95203837,,,,,,,,,,,,,,,,,,,,,,397.944,399.158,a,1,[],[],[],[],[],[],[],0.537,1,399.159,399.658,,,,,,1047,FEM,CON,150,grúa,,a,0.537,,399.658,399.658,0.031481481,-0.414814815,0,0,0,,0,170,170,146,1,,,,,
,,,,,,5da5a3e9609253b5aa4dd47f,66a626ef09d4e21e1a8894ec,67371da6e773e4b72754c6fc,2024-11-15_11h08.51.197,Tarea de género gramatical,2024.2.2,Win32,59.95203837,,,,,,,,,,,,,,,,,,,,,,399.66,400.824,l,1,[],[],[],[],[],[],[],0.488,1,400.826,401.324,,,,,,1144,MAS,DIS,150,hielo,la,l,0.488,,401.324,401.325,0.031481481,-0.414814815,0,0,0,,0,171,171,243,1,,,,,
,,,,,,5da5a3e9609253b5aa4dd47f,66a626ef09d4e21e1a8894ec,67371da6e773e4b72754c6fc,2024-11-15_11h08.51.197,Tarea de género gramatical,2024.2.2,Win32,59.95203837,,,,,,,,,,,,,,,,,,,,,,401.327,402.742,a,1,[],[],[],[],[],[],[],0.736,1,402.742,403.241,,,,,,1095,FEM,CON,150,pared,,a,0.736,,403.242,403.242,0.031481481,-0.414814815,0,0,0,,0,172,172,194,1,,,,,
,,,,,,5da5a3e9609253b5aa4dd47f,66a626ef09d4e21e1a8894ec,67371da6e773e4b72754c6fc,2024-11-15_11h08.51.197,Tarea de género gramatical,2024.2.2,Win32,59.95203837,,,,,,,,,,,,,,,,,,,,,,403.245,404.458,l,1,[],[],[],[],[],[],[],0.534,1,404.459,404.958,,,,,,1283,MAS,AGR,150,parque,el,l,0.534,,404.96,404.964,0.031481481,-0.414814815,0,0,0,,0,173,173,382,1,,,,,
,,,,,,5da5a3e9609253b5aa4dd47f,66a626ef09d4e21e1a8894ec,67371da6e773e4b72754c6fc,2024-11-15_11h08.51.197,Tarea de género gramatical,2024.2.2,Win32,59.95203837,,,,,,,,,,,,,,,,,,,,,,404.967,406.175,a,1,[],[],[],[],[],[],[],0.544,1,406.176,406.675,,,,,,939,FEM,CON,150,luna,,a,0.544,,406.675,406.675,0.031481481,-0.414814815,0,0,0,,0,174,174,38,1,,,,,
,,,,,,5da5a3e9609253b5aa4dd47f,66a626ef09d4e21e1a8894ec,67371da6e773e4b72754c6fc,2024-11-15_11h08.51.197,Tarea de género gramatical,2024.2.2,Win32,59.95203837,,,,,,,,,,,,,,,,,,,,,,406.677,407.944,a,1,[],[],[],[],[],[],[],0.596,1,407.944,408.442,,,,,,1275,FEM,CON,150,cadena,,a,0.596,,408.442,408.443,0.031481481,-0.414814815,0,0,0,,0,175,175,374,1,,,,,
,,,,,,5da5a3e9609253b5aa4dd47f,66a626ef09d4e21e1a8894ec,67371da6e773e4b72754c6fc,2024-11-15_11h08.51.197,Tarea de género gramatical,2024.2.2,Win32,59.95203837,,,,,,,,,,,,,,,,,,,,,,408.446,409.509,a,1,[],[],[],[],[],[],[],0.386,1,409.51,410.009,,,,,,1293,FEM,CON,150,alarma,,a,0.386,,410.009,410.01,0.031481481,-0.414814815,0,0,0,,0,176,176,392,1,,,,,
,,,,,,5da5a3e9609253b5aa4dd47f,66a626ef09d4e21e1a8894ec,67371da6e773e4b72754c6fc,2024-11-15_11h08.51.197,Tarea de género gramatical,2024.2.2,Win32,59.95203837,,,,,,,,,,,,,,,,,,,,,,410.013,411.125,l,1,[],[],[],[],[],[],[],0.437,1,411.126,411.625,,,,,,1224,MAS,CON,150,cuarto,,l,0.437,,411.627,411.63,0.031481481,-0.414814815,0,0,0,,0,177,177,323,1,,,,,
,,,,,,5da5a3e9609253b5aa4dd47f,66a626ef09d4e21e1a8894ec,67371da6e773e4b72754c6fc,2024-11-15_11h08.51.197,Tarea de género gramatical,2024.2.2,Win32,59.95203837,,,,,,,,,,,,,,,,,,,,,,411.632,412.809,l,1,[],[],[],[],[],[],[],0.511,1,412.81,413.308,,,,,,1055,MAS,AGR,150,mundo,el,l,0.511,,413.308,413.309,0.031481481,-0.414814815,0,0,0,,0,178,178,154,1,,,,,
,,,,,,5da5a3e9609253b5aa4dd47f,66a626ef09d4e21e1a8894ec,67371da6e773e4b72754c6fc,2024-11-15_11h08.51.197,Tarea de género gramatical,2024.2.2,Win32,59.95203837,,,,,,,,,,,,,,,,,,,,,,413.312,414.342,l,1,[],[],[],[],[],[],[],0.351,1,414.343,414.843,,,,,,1128,MAS,CON,150,nivel,,l,0.351,,414.843,414.843,0.031481481,-0.414814815,0,0,0,,0,179,179,227,1,,,,,
,,,,,,5da5a3e9609253b5aa4dd47f,66a626ef09d4e21e1a8894ec,67371da6e773e4b72754c6fc,2024-11-15_11h08.51.197,Tarea de género gramatical,2024.2.2,Win32,59.95203837,,,,,,,,,,,,,,,,,,,,,,414.845,415.776,l,1,[],[],[],[],[],[],[],0.26,1,415.776,416.275,,,,,,1284,MAS,CON,150,pedazo,,l,0.26,,416.275,416.275,0.031481481,-0.414814815,0,0,0,,0,180,180,383,1,,,,,
,,,,,,5da5a3e9609253b5aa4dd47f,66a626ef09d4e21e1a8894ec,67371da6e773e4b72754c6fc,2024-11-15_11h08.51.197,Tarea de género gramatical,2024.2.2,Win32,59.95203837,,,,,,,,,,,,,,,,,,,,,,416.276,417.409,a,1,[],[],[],[],[],[],[],0.452,1,417.411,417.909,,,,,,1261,FEM,DIS,150,oferta,el,a,0.452,,417.909,417.909,0.031481481,-0.414814815,0,0,0,,0,181,181,360,1,,,,,
,,,,,,5da5a3e9609253b5aa4dd47f,66a626ef09d4e21e1a8894ec,67371da6e773e4b72754c6fc,2024-11-15_11h08.51.197,Tarea de género gramatical,2024.2.2,Win32,59.95203837,,,,,,,,,,,,,,,,,,,,,,417.911,419.175,a,1,[],[],[],[],[],[],[],0.585,1,419.175,419.676,,,,,,1154,FEM,AGR,150,caída,la,a,0.585,,419.678,419.681,0.031481481,-0.414814815,0,0,0,,0,182,182,253,1,,,,,
,,,,,,5da5a3e9609253b5aa4dd47f,66a626ef09d4e21e1a8894ec,67371da6e773e4b72754c6fc,2024-11-15_11h08.51.197,Tarea de género gramatical,2024.2.2,Win32,59.95203837,,,,,,,,,,,,,,,,,,,,,,419.683,420.744,a,1,[],[],[],[],[],[],[],0.397,1,420.744,421.242,,,,,,1089,FEM,CON,150,pista,,a,0.397,,421.243,421.244,0.031481481,-0.414814815,0,0,0,,0,183,183,188,1,,,,,
,,,,,,5da5a3e9609253b5aa4dd47f,66a626ef09d4e21e1a8894ec,67371da6e773e4b72754c6fc,2024-11-15_11h08.51.197,Tarea de género gramatical,2024.2.2,Win32,59.95203837,,,,,,,,,,,,,,,,,,,,,,421.245,422.41,a,1,[],[],[],[],[],[],[],0.485,1,422.414,422.909,,,,,,902,FEM,AGR,150,vida,la,a,0.485,,422.91,422.911,0.031481481,-0.414814815,0,0,0,,0,184,184,1,1,,,,,
,,,,,,5da5a3e9609253b5aa4dd47f,66a626ef09d4e21e1a8894ec,67371da6e773e4b72754c6fc,2024-11-15_11h08.51.197,Tarea de género gramatical,2024.2.2,Win32,59.95203837,,,,,,,,,,,,,,,,,,,,,,422.918,424.043,l,1,[],[],[],[],[],[],[],0.451,1,424.043,424.543,,,,,,1254,MAS,CON,150,camión,,l,0.451,,424.543,424.543,0.031481481,-0.414814815,0,0,0,,0,185,185,353,1,,,,,
,,,,,,5da5a3e9609253b5aa4dd47f,66a626ef09d4e21e1a8894ec,67371da6e773e4b72754c6fc,2024-11-15_11h08.51.197,Tarea de género gramatical,2024.2.2,Win32,59.95203837,,,,,,,,,,,,,,,,,,,,,,424.546,425.709,l,1,[],[],[],[],[],[],[],0.488,1,425.711,426.21,,,,,,1126,MAS,DIS,150,color,la,l,0.488,,426.213,426.216,0.031481481,-0.414814815,0,0,0,,0,186,186,225,1,,,,,
,,,,,,5da5a3e9609253b5aa4dd47f,66a626ef09d4e21e1a8894ec,67371da6e773e4b72754c6fc,2024-11-15_11h08.51.197,Tarea de género gramatical,2024.2.2,Win32,59.95203837,,,,,,,,,,,,,,,,,,,,,,426.22,427.343,a,1,[],[],[],[],[],[],[],0.452,1,427.344,427.842,,,,,,980,FEM,AGR,150,vaca,la,a,0.452,,427.842,427.843,0.031481481,-0.414814815,0,0,0,,0,187,187,79,1,,,,,
,,,,,,5da5a3e9609253b5aa4dd47f,66a626ef09d4e21e1a8894ec,67371da6e773e4b72754c6fc,2024-11-15_11h08.51.197,Tarea de género gramatical,2024.2.2,Win32,59.95203837,,,,,,,,,,,,,,,,,,,,,,427.845,429.026,l,1,[],[],[],[],[],[],[],0.508,1,429.026,429.526,,,,,,923,MAS,AGR,150,rato,el,l,0.508,,429.526,429.526,0.031481481,-0.414814815,0,0,0,,0,188,188,22,1,,,,,
,,,,,,5da5a3e9609253b5aa4dd47f,66a626ef09d4e21e1a8894ec,67371da6e773e4b72754c6fc,2024-11-15_11h08.51.197,Tarea de género gramatical,2024.2.2,Win32,59.95203837,,,,,,,,,,,,,,,,,,,,,,429.528,430.675,l,1,[],[],[],[],[],[],[],0.472,1,430.678,431.176,,,,,,1277,MAS,AGR,150,jardín,el,l,0.472,,431.176,431.176,0.031481481,-0.414814815,0,0,0,,0,189,189,376,1,,,,,
,,,,,,5da5a3e9609253b5aa4dd47f,66a626ef09d4e21e1a8894ec,67371da6e773e4b72754c6fc,2024-11-15_11h08.51.197,Tarea de género gramatical,2024.2.2,Win32,59.95203837,,,,,,,,,,,,,,,,,,,,,,431.179,432.292,a,1,[],[],[],[],[],[],[],0.435,1,432.292,432.792,,,,,,1213,FEM,DIS,150,ciudad,el,a,0.435,,432.793,432.793,0.031481481,-0.414814815,0,0,0,,0,190,190,312,1,,,,,
,,,,,,5da5a3e9609253b5aa4dd47f,66a626ef09d4e21e1a8894ec,67371da6e773e4b72754c6fc,2024-11-15_11h08.51.197,Tarea de género gramatical,2024.2.2,Win32,59.95203837,,,,,,,,,,,,,,,,,,,,,,432.796,434.042,a,1,[],[],[],[],[],[],[],0.573,1,434.043,434.543,,,,,,1041,FEM,CON,150,cera,,a,0.573,,434.545,434.548,0.031481481,-0.414814815,0,0,0,,0,191,191,140,1,,,,,
,,,,,,5da5a3e9609253b5aa4dd47f,66a626ef09d4e21e1a8894ec,67371da6e773e4b72754c6fc,2024-11-15_11h08.51.197,Tarea de género gramatical,2024.2.2,Win32,59.95203837,,,,,,,,,,,,,,,,,,,,,,434.55,435.676,l,1,[],[],[],[],[],[],[],0.455,1,435.678,436.176,,,,,,988,MAS,DIS,150,pavo,la,l,0.455,,436.176,436.176,0.031481481,-0.414814815,0,0,0,,0,192,192,87,1,,,,,
,,,,,,5da5a3e9609253b5aa4dd47f,66a626ef09d4e21e1a8894ec,67371da6e773e4b72754c6fc,2024-11-15_11h08.51.197,Tarea de género gramatical,2024.2.2,Win32,59.95203837,,,,,,,,,,,,,,,,,,,,,,436.179,437.378,l,1,[],[],[],[],[],[],[],0.525,1,437.379,437.875,,,,,,1230,MAS,CON,150,estado,,l,0.525,,437.875,437.876,0.031481481,-0.414814815,0,0,0,,0,193,193,329,1,,,,,
,,,,,,5da5a3e9609253b5aa4dd47f,66a626ef09d4e21e1a8894ec,67371da6e773e4b72754c6fc,2024-11-15_11h08.51.197,Tarea de género gramatical,2024.2.2,Win32,59.95203837,,,,,,,,,,,,,,,,,,,,,,437.877,439.076,l,1,[],[],[],[],[],[],[],0.522,1,439.078,439.576,,,,,,989,MAS,AGR,150,maíz,el,l,0.522,,439.576,439.577,0.031481481,-0.414814815,0,0,0,,0,194,194,88,1,,,,,
,,,,,,5da5a3e9609253b5aa4dd47f,66a626ef09d4e21e1a8894ec,67371da6e773e4b72754c6fc,2024-11-15_11h08.51.197,Tarea de género gramatical,2024.2.2,Win32,59.95203837,,,,,,,,,,,,,,,,,,,,,,439.579,440.776,l,0,[],[],[],[],[],[],[],0.518,0,440.779,441.277,,,,,,1347,FEM,CON,150,lógica,,a,0.518,,441.279,441.282,0.031481481,-0.414814815,0,0,0,,0,195,195,446,1,,,,,
,,,,,,5da5a3e9609253b5aa4dd47f,66a626ef09d4e21e1a8894ec,67371da6e773e4b72754c6fc,2024-11-15_11h08.51.197,Tarea de género gramatical,2024.2.2,Win32,59.95203837,,,,,,,,,,,,,,,,,,,,,,441.284,442.61,a,1,[],[],[],[],[],[],[],0.657,1,442.611,443.11,,,,,,1076,FEM,AGR,150,línea,la,a,0.657,,443.11,443.111,0.031481481,-0.414814815,0,0,0,,0,196,196,175,1,,,,,
,,,,,,5da5a3e9609253b5aa4dd47f,66a626ef09d4e21e1a8894ec,67371da6e773e4b72754c6fc,2024-11-15_11h08.51.197,Tarea de género gramatical,2024.2.2,Win32,59.95203837,,,,,,,,,,,,,,,,,,,,,,443.113,444.325,a,1,[],[],[],[],[],[],[],0.535,1,444.326,444.826,,,,,,1172,FEM,AGR,150,oreja,la,a,0.535,,444.826,444.826,0.031481481,-0.414814815,0,0,0,,0,197,197,271,1,,,,,
,,,,,,5da5a3e9609253b5aa4dd47f,66a626ef09d4e21e1a8894ec,67371da6e773e4b72754c6fc,2024-11-15_11h08.51.197,Tarea de género gramatical,2024.2.2,Win32,59.95203837,,,,,,,,,,,,,,,,,,,,,,444.829,446.059,l,1,[],[],[],[],[],[],[],0.556,1,446.06,446.559,,,,,,983,MAS,AGR,150,nene,el,l,0.556,,446.559,446.56,0.031481481,-0.414814815,0,0,0,,0,198,198,82,1,,,,,
,,,,,,5da5a3e9609253b5aa4dd47f,66a626ef09d4e21e1a8894ec,67371da6e773e4b72754c6fc,2024-11-15_11h08.51.197,Tarea de género gramatical,2024.2.2,Win32,59.95203837,,,,,,,,,,,,,,,,,,,,,,446.562,447.826,a,1,[],[],[],[],[],[],[],0.585,1,447.828,448.326,,,,,,1227,FEM,CON,150,tienda,,a,0.585,,448.327,448.327,0.031481481,-0.414814815,0,0,0,,0,199,199,326,1,,,,,
,,,,,,5da5a3e9609253b5aa4dd47f,66a626ef09d4e21e1a8894ec,67371da6e773e4b72754c6fc,2024-11-15_11h08.51.197,Tarea de género gramatical,2024.2.2,Win32,59.95203837,,,,,,,,,,,,,,,,,,,,,,448.329,449.46,l,1,[],[],[],[],[],[],[],0.455,1,449.46,449.96,,,,,,1162,MAS,DIS,150,video,la,l,0.455,,449.962,449.966,0.031481481,-0.414814815,0,0,0,,0,200,200,261,1,,,,,
,,,,,,5da5a3e9609253b5aa4dd47f,66a626ef09d4e21e1a8894ec,67371da6e773e4b72754c6fc,2024-11-15_11h08.51.197,Tarea de género gramatical,2024.2.2,Win32,59.95203837,,,,,,,,,,,,,,,,,,,,,,449.967,451.563,l,1,[],[],[],[],[],[],[],0.925,1,451.566,452.06,,,,,,1186,MAS,DIS,150,reino,la,l,0.925,,452.062,452.064,0.031481481,-0.414814815,0,0,0,,0,201,201,285,1,,,,,
,,,,,,5da5a3e9609253b5aa4dd47f,66a626ef09d4e21e1a8894ec,67371da6e773e4b72754c6fc,2024-11-15_11h08.51.197,Tarea de género gramatical,2024.2.2,Win32,59.95203837,,,,,,,,,,,,,,,,,,,,,,452.073,453.128,a,1,[],[],[],[],[],[],[],0.393,1,453.128,453.627,,,,,,968,FEM,AGR,150,pata,la,a,0.393,,453.627,453.627,0.031481481,-0.414814815,0,0,0,,0,202,202,67,1,,,,,
,,,,,,5da5a3e9609253b5aa4dd47f,66a626ef09d4e21e1a8894ec,67371da6e773e4b72754c6fc,2024-11-15_11h08.51.197,Tarea de género gramatical,2024.2.2,Win32,59.95203837,,,,,,,,,,,,,,,,,,,,,,453.63,454.86,a,1,[],[],[],[],[],[],[],0.553,1,454.86,455.36,,,,,,1191,FEM,CON,150,aguja,,a,0.553,,455.36,455.361,0.031481481,-0.414814815,0,0,0,,0,203,203,290,1,,,,,
,,,,,,5da5a3e9609253b5aa4dd47f,66a626ef09d4e21e1a8894ec,67371da6e773e4b72754c6fc,2024-11-15_11h08.51.197,Tarea de género gramatical,2024.2.2,Win32,59.95203837,,,,,,,,,,,,,,,,,,,,,,455.364,456.56,l,1,[],[],[],[],[],[],[],0.519,1,456.562,457.06,,,,,,1001,MAS,AGR,150,giro,el,l,0.519,,457.064,457.067,0.031481481,-0.414814815,0,0,0,,0,204,204,100,1,,,,,
,,,,,,5da5a3e9609253b5aa4dd47f,66a626ef09d4e21e1a8894ec,67371da6e773e4b72754c6fc,2024-11-15_11h08.51.197,Tarea de género gramatical,2024.2.2,Win32,59.95203837,,,,,,,,,,,,,,,,,,,,,,457.069,458.21,a,1,[],[],[],[],[],[],[],0.47,1,458.21,458.71,,,,,,1279,FEM,DIS,150,granja,el,a,0.47,,458.71,458.711,0.031481481,-0.414814815,0,0,0,,0,205,205,378,1,,,,,
,,,,,,5da5a3e9609253b5aa4dd47f,66a626ef09d4e21e1a8894ec,67371da6e773e4b72754c6fc,2024-11-15_11h08.51.197,Tarea de género gramatical,2024.2.2,Win32,59.95203837,,,,,,,,,,,,,,,,,,,,,,458.713,459.827,a,1,[],[],[],[],[],[],[],0.439,1,459.827,460.327,,,,,,951,FEM,CON,150,bala,,a,0.439,,460.327,460.327,0.031481481,-0.414814815,0,0,0,,0,206,206,50,1,,,,,
,,,,,,5da5a3e9609253b5aa4dd47f,66a626ef09d4e21e1a8894ec,67371da6e773e4b72754c6fc,2024-11-15_11h08.51.197,Tarea de género gramatical,2024.2.2,Win32,59.95203837,,,,,,,,,,,,,,,,,,,,,,460.328,461.461,l,1,[],[],[],[],[],[],[],0.454,1,461.462,461.961,,,,,,1343,MAS,AGR,150,templo,el,l,0.454,,461.961,461.961,0.031481481,-0.414814815,0,0,0,,0,207,207,442,1,,,,,
,,,,,,5da5a3e9609253b5aa4dd47f,66a626ef09d4e21e1a8894ec,67371da6e773e4b72754c6fc,2024-11-15_11h08.51.197,Tarea de género gramatical,2024.2.2,Win32,59.95203837,,,,,,,,,,,,,,,,,,,,,,461.963,463.11,a,1,[],[],[],[],[],[],[],0.468,1,463.11,463.61,,,,,,926,FEM,AGR,150,pena,la,a,0.468,,463.61,463.611,0.031481481,-0.414814815,0,0,0,,0,208,208,25,1,,,,,
,,,,,,5da5a3e9609253b5aa4dd47f,66a626ef09d4e21e1a8894ec,67371da6e773e4b72754c6fc,2024-11-15_11h08.51.197,Tarea de género gramatical,2024.2.2,Win32,59.95203837,,,,,,,,,,,,,,,,,,,,,,463.613,465.177,a,1,[],[],[],[],[],[],[],0.885,1,465.179,465.677,,,,,,1340,FEM,AGR,150,patada,la,a,0.885,,465.68,465.683,0.031481481,-0.414814815,0,0,0,,0,209,209,439,1,,,,,
,,,,,,5da5a3e9609253b5aa4dd47f,66a626ef09d4e21e1a8894ec,67371da6e773e4b72754c6fc,2024-11-15_11h08.51.197,Tarea de género gramatical,2024.2.2,Win32,59.95203837,,,,,,,,,,,,,,,,,,,,,,465.686,466.794,a,1,[],[],[],[],[],[],[],0.435,1,466.795,467.294,,,,,,1316,FEM,AGR,150,colina,la,a,0.435,,467.294,467.295,0.031481481,-0.414814815,0,0,0,,0,210,210,415,1,,,,,
,,,,,,5da5a3e9609253b5aa4dd47f,66a626ef09d4e21e1a8894ec,67371da6e773e4b72754c6fc,2024-11-15_11h08.51.197,Tarea de género gramatical,2024.2.2,Win32,59.95203837,,,,,,,,,,,,,,,,,,,,,,467.297,468.444,l,1,[],[],[],[],[],[],[],0.471,1,468.445,468.944,,,,,,1103,MAS,AGR,150,novio,el,l,0.471,,468.944,468.945,0.031481481,-0.414814815,0,0,0,,0,211,211,202,1,,,,,
,,,,,,5da5a3e9609253b5aa4dd47f,66a626ef09d4e21e1a8894ec,67371da6e773e4b72754c6fc,2024-11-15_11h08.51.197,Tarea de género gramatical,2024.2.2,Win32,59.95203837,,,,,,,,,,,,,,,,,,,,,,468.949,470.128,a,1,[],[],[],[],[],[],[],0.509,1,470.13,470.627,,,,,,1040,FEM,AGR,150,mula,la,a,0.509,,470.628,470.628,0.031481481,-0.414814815,0,0,0,,0,212,212,139,1,,,,,
,,,,,,5da5a3e9609253b5aa4dd47f,66a626ef09d4e21e1a8894ec,67371da6e773e4b72754c6fc,2024-11-15_11h08.51.197,Tarea de género gramatical,2024.2.2,Win32,59.95203837,,,,,,,,,,,,,,,,,,,,,,470.63,471.761,l,1,[],[],[],[],[],[],[],0.452,1,471.761,472.261,,,,,,1319,MAS,AGR,150,cuento,el,l,0.452,,472.263,472.266,0.031481481,-0.414814815,0,0,0,,0,213,213,418,1,,,,,
,,,,,,5da5a3e9609253b5aa4dd47f,66a626ef09d4e21e1a8894ec,67371da6e773e4b72754c6fc,2024-11-15_11h08.51.197,Tarea de género gramatical,2024.2.2,Win32,59.95203837,,,,,,,,,,,,,,,,,,,,,,472.268,473.41,a,1,[],[],[],[],[],[],[],0.472,1,473.412,473.911,,,,,,1303,FEM,DIS,150,paliza,el,a,0.472,,473.911,473.911,0.031481481,-0.414814815,0,0,0,,0,214,214,402,1,,,,,
,,,,,,5da5a3e9609253b5aa4dd47f,66a626ef09d4e21e1a8894ec,67371da6e773e4b72754c6fc,2024-11-15_11h08.51.197,Tarea de género gramatical,2024.2.2,Win32,59.95203837,,,,,,,,,,,,,,,,,,,,,,473.914,475.045,a,0,[],[],[],[],[],[],[],0.452,0,475.048,475.545,,,,,,1086,MAS,CON,150,error,,l,0.452,,475.545,475.546,0.031481481,-0.414814815,0,0,0,,0,215,215,185,1,,,,,
,,,,,,5da5a3e9609253b5aa4dd47f,66a626ef09d4e21e1a8894ec,67371da6e773e4b72754c6fc,2024-11-15_11h08.51.197,Tarea de género gramatical,2024.2.2,Win32,59.95203837,,,,,,,,,,,,,,,,,,,,,,475.547,477.361,l,1,[],[],[],[],[],[],[],1.134,1,477.364,477.861,,,,,,1260,MAS,CON,150,puente,,l,1.134,,477.861,477.862,0.031481481,-0.414814815,0,0,0,,0,216,216,359,1,,,,,
,,,,,,5da5a3e9609253b5aa4dd47f,66a626ef09d4e21e1a8894ec,67371da6e773e4b72754c6fc,2024-11-15_11h08.51.197,Tarea de género gramatical,2024.2.2,Win32,59.95203837,,,,,,,,,,,,,,,,,,,,,,477.864,479.027,a,1,[],[],[],[],[],[],[],0.489,1,479.028,479.528,,,,,,1257,FEM,CON,150,lengua,,a,0.489,,479.528,479.528,0.031481481,-0.414814815,0,0,0,,0,217,217,356,1,,,,,
,,,,,,5da5a3e9609253b5aa4dd47f,66a626ef09d4e21e1a8894ec,67371da6e773e4b72754c6fc,2024-11-15_11h08.51.197,Tarea de género gramatical,2024.2.2,Win32,59.95203837,,,,,,,,,,,,,,,,,,,,,,479.53,480.578,l,1,[],[],[],[],[],[],[],0.368,1,480.578,481.078,,,,,,936,MAS,CON,150,dedo,,l,0.368,,481.08,481.083,0.031481481,-0.414814815,0,0,0,,0,218,218,35,1,,,,,
,,,,,,5da5a3e9609253b5aa4dd47f,66a626ef09d4e21e1a8894ec,67371da6e773e4b72754c6fc,2024-11-15_11h08.51.197,Tarea de género gramatical,2024.2.2,Win32,59.95203837,,,,,,,,,,,,,,,,,,,,,,481.084,482.347,l,1,[],[],[],[],[],[],[],0.588,1,482.35,482.846,,,,,,930,MAS,CON,150,cine,,l,0.588,,482.846,482.849,0.031481481,-0.414814815,0,0,0,,0,219,219,29,1,,,,,
,,,,,,5da5a3e9609253b5aa4dd47f,66a626ef09d4e21e1a8894ec,67371da6e773e4b72754c6fc,2024-11-15_11h08.51.197,Tarea de género gramatical,2024.2.2,Win32,59.95203837,,,,,,,,,,,,,,,,,,,,,,482.856,483.978,a,1,[],[],[],[],[],[],[],0.452,1,483.979,484.48,,,,,,1328,FEM,AGR,150,jugada,la,a,0.452,,484.48,484.48,0.031481481,-0.414814815,0,0,0,,0,220,220,427,1,,,,,
,,,,,,5da5a3e9609253b5aa4dd47f,66a626ef09d4e21e1a8894ec,67371da6e773e4b72754c6fc,2024-11-15_11h08.51.197,Tarea de género gramatical,2024.2.2,Win32,59.95203837,,,,,,,,,,,,,,,,,,,,,,484.483,485.645,l,1,[],[],[],[],[],[],[],0.486,1,485.646,486.147,,,,,,1194,MAS,CON,150,cable,,l,0.486,,486.147,486.147,0.031481481,-0.414814815,0,0,0,,0,221,221,293,1,,,,,
,,,,,,5da5a3e9609253b5aa4dd47f,66a626ef09d4e21e1a8894ec,67371da6e773e4b72754c6fc,2024-11-15_11h08.51.197,Tarea de género gramatical,2024.2.2,Win32,59.95203837,,,,,,,,,,,,,,,,,,,,,,486.15,487.449,l,1,[],[],[],[],[],[],[],0.631,1,487.45,487.945,,,,,,1006,MAS,DIS,150,test,la,l,0.631,,487.948,487.952,0.031481481,-0.414814815,0,0,0,,0,222,222,105,1,,,,,
,,,,,,5da5a3e9609253b5aa4dd47f,66a626ef09d4e21e1a8894ec,67371da6e773e4b72754c6fc,2024-11-15_11h08.51.197,Tarea de género gramatical,2024.2.2,Win32,59.95203837,,,,,,,,,,,,,,,,,,,,,,487.954,489.011,l,1,[],[],[],[],[],[],[],0.386,1,489.011,489.511,,,,,,1031,MAS,AGR,150,kilo,el,l,0.386,,489.512,489.512,0.031481481,-0.414814815,0,0,0,,0,223,223,130,1,,,,,
,,,,,,5da5a3e9609253b5aa4dd47f,66a626ef09d4e21e1a8894ec,67371da6e773e4b72754c6fc,2024-11-15_11h08.51.197,Tarea de género gramatical,2024.2.2,Win32,59.95203837,,,,,,,,,,,,,,,,,,,,,,489.514,490.645,l,1,[],[],[],[],[],[],[],0.454,1,490.647,491.146,,,,,,1253,MAS,AGR,150,verano,el,l,0.454,,491.146,491.146,0.031481481,-0.414814815,0,0,0,,0,224,224,352,1,,,,,
,,,,,,5da5a3e9609253b5aa4dd47f,66a626ef09d4e21e1a8894ec,67371da6e773e4b72754c6fc,2024-11-15_11h08.51.197,Tarea de género gramatical,2024.2.2,Win32,59.95203837,,,,,,,,,,,,,,,,,,,,,,491.149,492.346,a,1,[],[],[],[],[],[],[],0.519,1,492.346,492.846,,,,,,1171,FEM,DIS,150,viuda,el,a,0.519,,492.846,492.846,0.031481481,-0.414814815,0,0,0,,0,225,225,270,1,,,,,
,,,,,,5da5a3e9609253b5aa4dd47f,66a626ef09d4e21e1a8894ec,67371da6e773e4b72754c6fc,2024-11-15_11h08.51.197,Tarea de género gramatical,2024.2.2,Win32,59.95203837,,,,,,,,,,,,,,,,,,,,,,492.849,494.128,a,1,[],[],[],[],[],[],[],0.608,1,494.129,494.629,,,,,,1299,FEM,CON,150,charla,,a,0.608,,494.629,494.63,0.031481481,-0.414814815,0,0,0,,0,226,226,398,1,,,,,
,,,,,,5da5a3e9609253b5aa4dd47f,66a626ef09d4e21e1a8894ec,67371da6e773e4b72754c6fc,2024-11-15_11h08.51.197,Tarea de género gramatical,2024.2.2,Win32,59.95203837,,,,,,,,,,,,,,,,,,,,,,494.632,495.778,l,1,[],[],[],[],[],[],[],0.468,1,495.78,496.278,,,,,,1289,MAS,AGR,150,tamaño,el,l,0.468,,496.28,496.286,0.031481481,-0.414814815,0,0,0,,0,227,227,388,1,,,,,
,,,,,,5da5a3e9609253b5aa4dd47f,66a626ef09d4e21e1a8894ec,67371da6e773e4b72754c6fc,2024-11-15_11h08.51.197,Tarea de género gramatical,2024.2.2,Win32,59.95203837,,,,,,,,,,,,,,,,,,,,,,496.288,497.479,l,1,[],[],[],[],[],[],[],0.518,1,497.479,497.979,,,,,,948,MAS,CON,150,loco,,l,0.518,,497.979,497.979,0.031481481,-0.414814815,0,0,0,,0,228,228,47,1,,,,,
,,,,,,5da5a3e9609253b5aa4dd47f,66a626ef09d4e21e1a8894ec,67371da6e773e4b72754c6fc,2024-11-15_11h08.51.197,Tarea de género gramatical,2024.2.2,Win32,59.95203837,,,,,,,,,,,,,,,,,,,,,,497.982,499.578,a,1,[],[],[],[],[],[],[],0.918,1,499.58,500.078,,,,,,931,FEM,DIS,150,edad,el,a,0.918,,500.078,500.079,0.031481481,-0.414814815,0,0,0,,0,229,229,30,1,,,,,
,,,,,,5da5a3e9609253b5aa4dd47f,66a626ef09d4e21e1a8894ec,67371da6e773e4b72754c6fc,2024-11-15_11h08.51.197,Tarea de género gramatical,2024.2.2,Win32,59.95203837,,,,,,,,,,,,,,,,,,,,,,500.082,501.211,l,1,[],[],[],[],[],[],[],0.456,1,501.212,501.712,,,,,,966,MAS,CON,150,muro,,l,0.456,,501.712,501.713,0.031481481,-0.414814815,0,0,0,,0,230,230,65,1,,,,,
,,,,,,5da5a3e9609253b5aa4dd47f,66a626ef09d4e21e1a8894ec,67371da6e773e4b72754c6fc,2024-11-15_11h08.51.197,Tarea de género gramatical,2024.2.2,Win32,59.95203837,,,,,,,,,,,,,,,,,,,,,,501.715,503.011,l,1,[],[],[],[],[],[],[],0.622,1,503.012,503.512,,,,,,1276,MAS,DIS,150,efecto,la,l,0.622,,503.514,503.517,0.031481481,-0.414814815,0,0,0,,0,231,231,375,1,,,,,
,,,,,,5da5a3e9609253b5aa4dd47f,66a626ef09d4e21e1a8894ec,67371da6e773e4b72754c6fc,2024-11-15_11h08.51.197,Tarea de género gramatical,2024.2.2,Win32,59.95203837,,,,,,,,,,,,,,,,,,,,,,503.519,504.779,l,1,[],[],[],[],[],[],[],0.59,1,504.78,505.279,,,,,,1313,MAS,AGR,150,diario,el,l,0.59,,505.279,505.279,0.031481481,-0.414814815,0,0,0,,0,232,232,412,1,,,,,
,,,,,,5da5a3e9609253b5aa4dd47f,66a626ef09d4e21e1a8894ec,67371da6e773e4b72754c6fc,2024-11-15_11h08.51.197,Tarea de género gramatical,2024.2.2,Win32,59.95203837,,,,,,,,,,,,,,,,,,,,,,505.282,506.446,a,1,[],[],[],[],[],[],[],0.485,1,506.446,506.946,,,,,,1143,FEM,CON,150,salsa,,a,0.485,,506.946,506.946,0.031481481,-0.414814815,0,0,0,,0,233,233,242,1,,,,,
,,,,,,5da5a3e9609253b5aa4dd47f,66a626ef09d4e21e1a8894ec,67371da6e773e4b72754c6fc,2024-11-15_11h08.51.197,Tarea de género gramatical,2024.2.2,Win32,59.95203837,,,,,,,,,,,,,,,,,,,,,,506.949,508.146,a,1,[],[],[],[],[],[],[],0.519,1,508.147,508.646,,,,,,1136,FEM,AGR,150,deuda,la,a,0.519,,508.646,508.647,0.031481481,-0.414814815,0,0,0,,0,234,234,235,1,,,,,
,,,,,,5da5a3e9609253b5aa4dd47f,66a626ef09d4e21e1a8894ec,67371da6e773e4b72754c6fc,2024-11-15_11h08.51.197,Tarea de género gramatical,2024.2.2,Win32,59.95203837,,,,,,,,,,,,,,,,,,,,,,508.649,509.828,l,1,[],[],[],[],[],[],[],0.503,1,509.83,510.329,,,,,,1212,MAS,CON,150,equipo,,l,0.503,,510.329,510.33,0.031481481,-0.414814815,0,0,0,,0,235,235,311,1,,,,,
,,,,,,5da5a3e9609253b5aa4dd47f,66a626ef09d4e21e1a8894ec,67371da6e773e4b72754c6fc,2024-11-15_11h08.51.197,Tarea de género gramatical,2024.2.2,Win32,59.95203837,,,,,,,,,,,,,,,,,,,,,,510.332,511.696,a,1,[],[],[],[],[],[],[],0.685,1,511.697,512.199,,,,,,1209,FEM,CON,150,esposa,,a,0.685,,512.206,512.215,0.031481481,-0.414814815,0,0,0,,0,236,236,308,1,,,,,
,,,,,,5da5a3e9609253b5aa4dd47f,66a626ef09d4e21e1a8894ec,67371da6e773e4b72754c6fc,2024-11-15_11h08.51.197,Tarea de género gramatical,2024.2.2,Win32,59.95203837,,,,,,,,,,,,,,,,,,,,,,512.22,513.315,l,1,[],[],[],[],[],[],[],0.423,1,513.317,513.812,,,,,,960,MAS,CON,150,tono,,l,0.423,,513.812,513.813,0.031481481,-0.414814815,0,0,0,,0,237,237,59,1,,,,,
,,,,,,5da5a3e9609253b5aa4dd47f,66a626ef09d4e21e1a8894ec,67371da6e773e4b72754c6fc,2024-11-15_11h08.51.197,Tarea de género gramatical,2024.2.2,Win32,59.95203837,,,,,,,,,,,,,,,,,,,,,,513.815,515.212,a,1,[],[],[],[],[],[],[],0.721,1,515.213,515.712,,,,,,1273,FEM,DIS,150,lluvia,el,a,0.721,,515.713,515.713,0.031481481,-0.414814815,0,0,0,,0,238,238,372,1,,,,,
,,,,,,5da5a3e9609253b5aa4dd47f,66a626ef09d4e21e1a8894ec,67371da6e773e4b72754c6fc,2024-11-15_11h08.51.197,Tarea de género gramatical,2024.2.2,Win32,59.95203837,,,,,,,,,,,,,,,,,,,,,,515.717,516.78,a,1,[],[],[],[],[],[],[],0.386,1,516.781,517.279,,,,,,920,FEM,AGR,150,ropa,la,a,0.386,,517.28,517.28,0.031481481,-0.414814815,0,0,0,,0,239,239,19,1,,,,,
,,,,,,5da5a3e9609253b5aa4dd47f,66a626ef09d4e21e1a8894ec,67371da6e773e4b72754c6fc,2024-11-15_11h08.51.197,Tarea de género gramatical,2024.2.2,Win32,59.95203837,,,,,,,,,,,,,,,,,,,,,,517.283,518.447,a,1,[],[],[],[],[],[],[],0.486,1,518.447,518.946,,,,,,973,FEM,DIS,150,roca,el,a,0.486,,518.948,518.952,0.031481481,-0.414814815,0,0,0,,0,240,240,72,1,,,,,
,,,,,,5da5a3e9609253b5aa4dd47f,66a626ef09d4e21e1a8894ec,67371da6e773e4b72754c6fc,2024-11-15_11h08.51.197,Tarea de género gramatical,2024.2.2,Win32,59.95203837,,,,,,,,,,,,,,,,,,,,,,518.954,519.996,a,0,[],[],[],[],[],[],[],0.368,0,519.999,520.497,,,,,,906,MAS,CON,150,lado,,l,0.368,,520.497,520.497,0.031481481,-0.414814815,0,0,0,,0,241,241,5,1,,,,,
,,,,,,5da5a3e9609253b5aa4dd47f,66a626ef09d4e21e1a8894ec,67371da6e773e4b72754c6fc,2024-11-15_11h08.51.197,Tarea de género gramatical,2024.2.2,Win32,59.95203837,,,,,,,,,,,,,,,,,,,,,,520.5,521.596,a,1,[],[],[],[],[],[],[],0.422,1,521.597,522.096,,,,,,955,FEM,DIS,150,taza,el,a,0.422,,522.096,522.096,0.031481481,-0.414814815,0,0,0,,0,242,242,54,1,,,,,
,,,,,,5da5a3e9609253b5aa4dd47f,66a626ef09d4e21e1a8894ec,67371da6e773e4b72754c6fc,2024-11-15_11h08.51.197,Tarea de género gramatical,2024.2.2,Win32,59.95203837,,,,,,,,,,,,,,,,,,,,,,522.097,523.146,a,1,[],[],[],[],[],[],[],0.374,1,523.146,523.645,,,,,,938,FEM,AGR,150,obra,la,a,0.374,,523.646,523.646,0.031481481,-0.414814815,0,0,0,,0,243,243,37,1,,,,,
,,,,,,5da5a3e9609253b5aa4dd47f,66a626ef09d4e21e1a8894ec,67371da6e773e4b72754c6fc,2024-11-15_11h08.51.197,Tarea de género gramatical,2024.2.2,Win32,59.95203837,,,,,,,,,,,,,,,,,,,,,,523.647,524.746,l,1,[],[],[],[],[],[],[],0.416,1,524.746,525.246,,,,,,1097,MAS,AGR,150,avión,el,l,0.416,,525.246,525.247,0.031481481,-0.414814815,0,0,0,,0,244,244,196,1,,,,,
,,,,,,5da5a3e9609253b5aa4dd47f,66a626ef09d4e21e1a8894ec,67371da6e773e4b72754c6fc,2024-11-15_11h08.51.197,Tarea de género gramatical,2024.2.2,Win32,59.95203837,,,,,,,,,,,,,,,,,,,,,,525.248,526.413,a,1,[],[],[],[],[],[],[],0.487,1,526.414,526.913,,,,,,1153,FEM,DIS,150,aldea,el,a,0.487,,526.915,526.919,0.031481481,-0.414814815,0,0,0,,0,245,245,252,1,,,,,
,,,,,,5da5a3e9609253b5aa4dd47f,66a626ef09d4e21e1a8894ec,67371da6e773e4b72754c6fc,2024-11-15_11h08.51.197,Tarea de género gramatical,2024.2.2,Win32,59.95203837,,,,,,,,,,,,,,,,,,,,,,526.92,528.063,l,1,[],[],[],[],[],[],[],0.469,1,528.063,528.562,,,,,,1252,MAS,DIS,150,estilo,la,l,0.469,,528.562,528.562,0.031481481,-0.414814815,0,0,0,,0,246,246,351,1,,,,,
,,,,,,5da5a3e9609253b5aa4dd47f,66a626ef09d4e21e1a8894ec,67371da6e773e4b72754c6fc,2024-11-15_11h08.51.197,Tarea de género gramatical,2024.2.2,Win32,59.95203837,,,,,,,,,,,,,,,,,,,,,,528.563,529.763,a,1,[],[],[],[],[],[],[],0.523,1,529.764,530.263,,,,,,1297,FEM,DIS,150,cuerda,el,a,0.523,,530.263,530.263,0.031481481,-0.414814815,0,0,0,,0,247,247,396,1,,,,,
,,,,,,5da5a3e9609253b5aa4dd47f,66a626ef09d4e21e1a8894ec,67371da6e773e4b72754c6fc,2024-11-15_11h08.51.197,Tarea de género gramatical,2024.2.2,Win32,59.95203837,,,,,,,,,,,,,,,,,,,,,,530.266,531.432,a,1,[],[],[],[],[],[],[],0.495,1,531.432,531.929,,,,,,1226,FEM,AGR,150,música,la,a,0.495,,531.93,531.93,0.031481481,-0.414814815,0,0,0,,0,248,248,325,1,,,,,
,,,,,,5da5a3e9609253b5aa4dd47f,66a626ef09d4e21e1a8894ec,67371da6e773e4b72754c6fc,2024-11-15_11h08.51.197,Tarea de género gramatical,2024.2.2,Win32,59.95203837,,,,,,,,,,,,,,,,,,,,,,531.933,533.23,a,1,[],[],[],[],[],[],[],0.622,1,533.23,533.729,,,,,,914,FEM,AGR,150,cara,la,a,0.622,,533.732,533.735,0.031481481,-0.414814815,0,0,0,,0,249,249,13,1,,,,,
,,,,,,5da5a3e9609253b5aa4dd47f,66a626ef09d4e21e1a8894ec,67371da6e773e4b72754c6fc,2024-11-15_11h08.51.197,Tarea de género gramatical,2024.2.2,Win32,59.95203837,,,,,,,,,,,,,,,,,,,,,,533.737,535.148,a,1,[],[],[],[],[],[],[],0.739,1,535.149,535.647,,,,,,1207,FEM,DIS,150,suerte,el,a,0.739,,535.647,535.648,0.031481481,-0.414814815,0,0,0,,0,250,250,306,1,,,,,
,,,,,,5da5a3e9609253b5aa4dd47f,66a626ef09d4e21e1a8894ec,67371da6e773e4b72754c6fc,2024-11-15_11h08.51.197,Tarea de género gramatical,2024.2.2,Win32,59.95203837,,,,,,,,,,,,,,,,,,,,,,535.65,536.947,l,1,[],[],[],[],[],[],[],0.622,1,536.948,537.447,,,,,,918,MAS,CON,150,tren,,l,0.622,,537.447,537.447,0.031481481,-0.414814815,0,0,0,,0,251,251,17,1,,,,,
,,,,,,5da5a3e9609253b5aa4dd47f,66a626ef09d4e21e1a8894ec,67371da6e773e4b72754c6fc,2024-11-15_11h08.51.197,Tarea de género gramatical,2024.2.2,Win32,59.95203837,,,,,,,,,,,,,,,,,,,,,,537.449,538.697,l,1,[],[],[],[],[],[],[],0.568,1,538.699,539.197,,,,,,1140,MAS,CON,150,ruido,,l,0.568,,539.197,539.198,0.031481481,-0.414814815,0,0,0,,0,252,252,239,1,,,,,
,,,,,,5da5a3e9609253b5aa4dd47f,66a626ef09d4e21e1a8894ec,67371da6e773e4b72754c6fc,2024-11-15_11h08.51.197,Tarea de género gramatical,2024.2.2,Win32,59.95203837,,,,,,,,,,,,,,,,,,,,,,539.2,540.48,a,1,[],[],[],[],[],[],[],0.6,1,540.481,540.98,,,,,,1011,FEM,CON,150,goma,,a,0.6,,540.981,540.981,0.031481481,-0.414814815,0,0,0,,0,253,253,110,1,,,,,
,,,,,,5da5a3e9609253b5aa4dd47f,66a626ef09d4e21e1a8894ec,67371da6e773e4b72754c6fc,2024-11-15_11h08.51.197,Tarea de género gramatical,2024.2.2,Win32,59.95203837,,,,,,,,,,,,,,,,,,,,,,540.983,542.43,a,1,[],[],[],[],[],[],[],0.767,1,542.432,542.93,,,,,,1125,FEM,CON,150,pieza,,a,0.767,,542.932,542.935,0.031481481,-0.414814815,0,0,0,,0,254,254,224,1,,,,,
,,,,,,5da5a3e9609253b5aa4dd47f,66a626ef09d4e21e1a8894ec,67371da6e773e4b72754c6fc,2024-11-15_11h08.51.197,Tarea de género gramatical,2024.2.2,Win32,59.95203837,,,,,,,,,,,,,,,,,,,,,,542.938,544.047,l,1,[],[],[],[],[],[],[],0.435,1,544.048,544.548,,,,,,1240,MAS,DIS,150,pasado,la,l,0.435,,544.548,544.548,0.031481481,-0.414814815,0,0,0,,0,255,255,339,1,,,,,
,,,,,,5da5a3e9609253b5aa4dd47f,66a626ef09d4e21e1a8894ec,67371da6e773e4b72754c6fc,2024-11-15_11h08.51.197,Tarea de género gramatical,2024.2.2,Win32,59.95203837,,,,,,,,,,,,,,,,,,,,,,544.551,546.13,l,0,[],[],[],[],[],[],[],0.901,0,546.134,546.63,,,,,,1052,FEM,AGR,150,gente,la,a,0.901,,546.63,546.631,0.031481481,-0.414814815,0,0,0,,0,256,256,151,1,,,,,
