counterbalancing_condition,consent_prescreening.block_1/declare_consent,consent_prescreening.block_1/age_years,consent_prescreening.block_1/gender,consent_prescreening.block_1/language_disorder,consent_prescreening.block_1/first_language,PROLIFIC_PID,STUDY_ID,SESSION_ID,date,expName,psychopyVersion,OS,frameRate,check_prescreening_answers.started,check_prescreening_answers.stopped,Instructions.started,Instructions.stopped,instr_done_keyboard.keys,instr_done_touch.x,instr_done_touch.y,instr_done_touch.leftButton,instr_done_touch.midButton,instr_done_touch.rightButton,instr_done_touch.clicked_name,instruction_pages.thisRepN,instruction_pages.thisTrialN,instruction_pages.thisN,instruction_pages.thisIndex,instruction_pages.ran,pageN,phase,instruct_text,has_image,instruct_image,presentTrial.started,presentTrial.stopped,response.keys,response.corr,touch_resp.x,touch_resp.y,touch_resp.leftButton,touch_resp.midButton,touch_resp.rightButton,touch_resp.time,touch_resp.clicked_name,rt,corr,feedback.started,feedback.stopped,practice_trials.thisRepN,practice_trials.thisTrialN,practice_trials.thisN,practice_trials.thisIndex,practice_trials.ran,TrialID,StimulusType,Condition,PrimeDuration,Prime,Flanker,corrAns,response.rt,response.duration,instr_done_keyboard.rt,instr_done_keyboard.duration,Break.started,Break.stopped,break_done_touch.x,break_done_touch.y,break_done_touch.leftButton,break_done_touch.midButton,break_done_touch.rightButton,break_done_keyboard.keys,experiment_trials.thisRepN,experiment_trials.thisTrialN,experiment_trials.thisN,experiment_trials.thisIndex,experiment_trials.ran,break_done_keyboard.rt,break_done_keyboard.duration,End.started,End.stopped
1,"[""over_18"",""comfortable"",""read_info"",""consent_given""]",22,M,"[""none""]","[""spanish""]",5df8e4b2be7c490096e70ca2,66a626ef09d4e21e1a8894ec,673649bb9efdb56af01cef7f,2024-11-14_13h08.31.669,Tarea de género gramatical,2024.2.2,Win32,59.52380952,,,,,,,,,,,,,,,,,,,,,,,,,,,,,,,,,,,,,,,,,,,,,,,,,,,,,,,,,,,,,,,,,,,,,
,,,,,,5df8e4b2be7c490096e70ca2,66a626ef09d4e21e1a8894ec,673649bb9efdb56af01cef7f,2024-11-14_13h08.31.669,Tarea de género gramatical,2024.2.2,Win32,59.52380952,98.1315,98.1324,,,,,,,,,,,,,,,,,,,,,,,,,,,,,,,,,,,,,,,,,,,,,,,,,,,,,,,,,,,,,,,,,,,
,,,,,,5df8e4b2be7c490096e70ca2,66a626ef09d4e21e1a8894ec,673649bb9efdb56af01cef7f,2024-11-14_13h08.31.669,Tarea de género gramatical,2024.2.2,Win32,59.52380952,,,98.1856,115.7454,,-0.125925912,-0.387962977,1,0,0,instr_done_button,0,0,0,0,1,1,instructions,"INSTRUCCIONES
Va a realizar una prueba de selección gramatical. Desde el comienzo de la prueba mire siempre al centro de la pantalla. Al cabo de un momento, aparecerán palabras. La tarea consiste en determinar si la palabra del centro (siempre será un sustantivo), pertenece al género masculino o femenino.

Pulse la tecla ESPACIO o toque el botón de abajo para continuar.",0,keyboardresponseFM.png,,,,,,,,,,,,,,,,,,,,,,,,,,,,,,,,,,,,,,,,,,,,,,,,
,,,,,,5df8e4b2be7c490096e70ca2,66a626ef09d4e21e1a8894ec,673649bb9efdb56af01cef7f,2024-11-14_13h08.31.669,Tarea de género gramatical,2024.2.2,Win32,59.52380952,,,115.7542,138.111,,-0.087962963,-0.389814801,1,0,0,instr_done_button,0,1,1,1,1,2,instructions,"Si su dispositivo tiene teclado, pulse la tecla ""A"" para las palabras en femenino (por ejemplo: ""mano"") y la tecla ""L"" para las palabras en masculino(por ejemplo: ""arroz"").
Pulse la tecla ESPACIO o toque el botón de abajo para continuar.",1,keyboardresponseFM.png,,,,,,,,,,,,,,,,,,,,,,,,,,,,,,,,,,,,,,,,,,,,,,,,
,,,,,,5df8e4b2be7c490096e70ca2,66a626ef09d4e21e1a8894ec,673649bb9efdb56af01cef7f,2024-11-14_13h08.31.669,Tarea de género gramatical,2024.2.2,Win32,59.52380952,,,138.1427,150.7921,,-0.087962963,-0.389814801,1,0,0,instr_done_button,0,2,2,2,1,3,instructions,"Si utiliza un dispositivo sólo táctil, colóquelo en horizontal y utilice los botones de la pantalla. No utilice el ratón.
Pulse la tecla ESPACIO o toque el botón de abajo para continuar.",2,touchresponseFM.png,,,,,,,,,,,,,,,,,,,,,,,,,,,,,,,,,,,,,,,,,,,,,,,,
,,,,,,5df8e4b2be7c490096e70ca2,66a626ef09d4e21e1a8894ec,673649bb9efdb56af01cef7f,2024-11-14_13h08.31.669,Tarea de género gramatical,2024.2.2,Win32,59.52380952,,,150.8172,166.6076,,-0.087962963,-0.389814801,1,0,0,instr_done_button,0,3,3,3,1,4,instructions,"Es muy importante que responda con la mayor rapidez y precisión posibles, ya que cada cadena de letras sólo estará en pantalla durante un instante. Si no responde en ese tiempo, aparecerá el mensaje ""Muy lento"" y el experimento pasará a la siguiente palabra. Los primeros 15 intentos serán de práctica y habrá dos descansos durante la prueba.
Pulse la tecla ESPACIO o toque el botón de abajo para iniciar la parte de práctica.",0,keyboardresponseFM.png,,,,,,,,,,,,,,,,,,,,,,,,,,,,,,,,,,,,,,,,,,,,,,,,
,,,,,,5df8e4b2be7c490096e70ca2,66a626ef09d4e21e1a8894ec,673649bb9efdb56af01cef7f,2024-11-14_13h08.31.669,Tarea de género gramatical,2024.2.2,Win32,59.52380952,,,,,,,,,,,,,,,,,,,,,,166.6714,169.3243,,0,[],[],[],[],[],[],[],,-1,169.3255,169.823,0,0,0,9,1,2010,MAS,AGR,150,vecino,el,l,,,,,,,,,,,,,,,,,,,,,
,,,,,,5df8e4b2be7c490096e70ca2,66a626ef09d4e21e1a8894ec,673649bb9efdb56af01cef7f,2024-11-14_13h08.31.669,Tarea de género gramatical,2024.2.2,Win32,59.52380952,,,,,,,,,,,,,,,,,,,,,,169.8272,172.4717,,0,[],[],[],[],[],[],[],,-1,172.472,172.9718,0,1,1,11,1,2012,MAS,DIS,150,clima,la,l,,,,,,,,,,,,,,,,,,,,,
,,,,,,5df8e4b2be7c490096e70ca2,66a626ef09d4e21e1a8894ec,673649bb9efdb56af01cef7f,2024-11-14_13h08.31.669,Tarea de género gramatical,2024.2.2,Win32,59.52380952,,,,,,,,,,,,,,,,,,,,,,172.9763,175.3389,l,1,[],[],[],[],[],[],[],1.6847,1,175.36,175.838,0,2,2,13,1,2014,MAS,CON,150,siglo,,l,1.6847,,,,,,,,,,,,,,,,,,,,
,,,,,,5df8e4b2be7c490096e70ca2,66a626ef09d4e21e1a8894ec,673649bb9efdb56af01cef7f,2024-11-14_13h08.31.669,Tarea de género gramatical,2024.2.2,Win32,59.52380952,,,,,,,,,,,,,,,,,,,,,,175.8409,177.5541,l,1,[],[],[],[],[],[],[],1.0408,1,177.5544,178.054,0,3,3,12,1,2013,MAS,AGR,150,acero,el,l,1.0408,,,,,,,,,,,,,,,,,,,,
,,,,,,5df8e4b2be7c490096e70ca2,66a626ef09d4e21e1a8894ec,673649bb9efdb56af01cef7f,2024-11-14_13h08.31.669,Tarea de género gramatical,2024.2.2,Win32,59.52380952,,,,,,,,,,,,,,,,,,,,,,178.0566,180.0708,a,0,[],[],[],[],[],[],[],1.3363,0,180.0743,180.5708,0,4,4,14,1,2015,MAS,DIS,150,robot,la,l,1.3363,,,,,,,,,,,,,,,,,,,,
,,,,,,5df8e4b2be7c490096e70ca2,66a626ef09d4e21e1a8894ec,673649bb9efdb56af01cef7f,2024-11-14_13h08.31.669,Tarea de género gramatical,2024.2.2,Win32,59.52380952,,,,,,,,,,,,,,,,,,,,,,180.574,182.2536,a,1,[],[],[],[],[],[],[],1.0062,1,182.2556,182.7534,0,5,5,3,1,2004,FEM,AGR,150,venta,la,a,1.0062,,,,,,,,,,,,,,,,,,,,
,,,,,,5df8e4b2be7c490096e70ca2,66a626ef09d4e21e1a8894ec,673649bb9efdb56af01cef7f,2024-11-14_13h08.31.669,Tarea de género gramatical,2024.2.2,Win32,59.52380952,,,,,,,,,,,,,,,,,,,,,,182.7551,184.8863,a,0,[],[],[],[],[],[],[],1.4485,0,184.8877,185.3862,0,6,6,10,1,2011,MAS,CON,150,canal,,l,1.4485,,,,,,,,,,,,,,,,,,,,
,,,,,,5df8e4b2be7c490096e70ca2,66a626ef09d4e21e1a8894ec,673649bb9efdb56af01cef7f,2024-11-14_13h08.31.669,Tarea de género gramatical,2024.2.2,Win32,59.52380952,,,,,,,,,,,,,,,,,,,,,,185.39,187.4531,l,0,[],[],[],[],[],[],[],1.3862,0,187.4534,187.9525,0,7,7,2,1,2003,FEM,DIS,150,daga,el,a,1.3862,,,,,,,,,,,,,,,,,,,,
,,,,,,5df8e4b2be7c490096e70ca2,66a626ef09d4e21e1a8894ec,673649bb9efdb56af01cef7f,2024-11-14_13h08.31.669,Tarea de género gramatical,2024.2.2,Win32,59.52380952,,,,,,,,,,,,,,,,,,,,,,187.9543,189.9864,l,0,[],[],[],[],[],[],[],1.3463,0,189.9868,190.4859,0,8,8,5,1,2006,FEM,DIS,150,serie,el,a,1.3463,,,,,,,,,,,,,,,,,,,,
,,,,,,5df8e4b2be7c490096e70ca2,66a626ef09d4e21e1a8894ec,673649bb9efdb56af01cef7f,2024-11-14_13h08.31.669,Tarea de género gramatical,2024.2.2,Win32,59.52380952,,,,,,,,,,,,,,,,,,,,,,190.4894,192.4023,a,1,[],[],[],[],[],[],[],1.2414,1,192.4049,192.902,0,9,9,6,1,2007,FEM,AGR,150,navaja,la,a,1.2414,,,,,,,,,,,,,,,,,,,,
,,,,,,5df8e4b2be7c490096e70ca2,66a626ef09d4e21e1a8894ec,673649bb9efdb56af01cef7f,2024-11-14_13h08.31.669,Tarea de género gramatical,2024.2.2,Win32,59.52380952,,,,,,,,,,,,,,,,,,,,,,192.9054,194.5187,a,1,[],[],[],[],[],[],[],0.9294,1,194.5191,195.0191,0,10,10,0,1,2001,FEM,AGR,150,nuca,la,a,0.9294,,,,,,,,,,,,,,,,,,,,
,,,,,,5df8e4b2be7c490096e70ca2,66a626ef09d4e21e1a8894ec,673649bb9efdb56af01cef7f,2024-11-14_13h08.31.669,Tarea de género gramatical,2024.2.2,Win32,59.52380952,,,,,,,,,,,,,,,,,,,,,,195.0231,196.785,a,0,[],[],[],[],[],[],[],1.091,0,196.7877,197.2849,0,11,11,8,1,2009,MAS,DIS,150,puerto,la,l,1.091,,,,,,,,,,,,,,,,,,,,
,,,,,,5df8e4b2be7c490096e70ca2,66a626ef09d4e21e1a8894ec,673649bb9efdb56af01cef7f,2024-11-14_13h08.31.669,Tarea de género gramatical,2024.2.2,Win32,59.52380952,,,,,,,,,,,,,,,,,,,,,,197.2872,199.3528,l,0,[],[],[],[],[],[],[],1.3937,0,199.3531,199.8536,0,12,12,4,1,2005,FEM,CON,150,placa,,a,1.3937,,,,,,,,,,,,,,,,,,,,
,,,,,,5df8e4b2be7c490096e70ca2,66a626ef09d4e21e1a8894ec,673649bb9efdb56af01cef7f,2024-11-14_13h08.31.669,Tarea de género gramatical,2024.2.2,Win32,59.52380952,,,,,,,,,,,,,,,,,,,,,,199.8557,201.5838,l,0,[],[],[],[],[],[],[],1.058,0,201.584,202.0841,0,13,13,1,1,2002,FEM,CON,150,pala,,a,1.058,,,,,,,,,,,,,,,,,,,,
,,,,,,5df8e4b2be7c490096e70ca2,66a626ef09d4e21e1a8894ec,673649bb9efdb56af01cef7f,2024-11-14_13h08.31.669,Tarea de género gramatical,2024.2.2,Win32,59.52380952,,,,,,,,,,,,,,,,,,,,,,202.0872,203.7505,a,1,[],[],[],[],[],[],[],0.9905,1,203.7532,204.2503,0,14,14,7,1,2008,FEM,CON,150,siesta,,a,0.9905,,,,,,,,,,,,,,,,,,,,
,,,,,,5df8e4b2be7c490096e70ca2,66a626ef09d4e21e1a8894ec,673649bb9efdb56af01cef7f,2024-11-14_13h08.31.669,Tarea de género gramatical,2024.2.2,Win32,59.52380952,,,299.0414,302.8358,space,-0.114814829,-0.405555584,0,0,0,instr_done_button,,,,,,,,,,,302.9288,305.1349,l,1,[],[],[],[],[],[],[],1.5403,1,305.1627,305.6345,,,,,,832,MAS,CON,150,teatro,,l,1.5403,,3.778,,305.6352,305.6406,-0.114814829,-0.405555584,0,0,0,,0,0,0,381,1,,,,
,,,,,,5df8e4b2be7c490096e70ca2,66a626ef09d4e21e1a8894ec,673649bb9efdb56af01cef7f,2024-11-14_13h08.31.669,Tarea de género gramatical,2024.2.2,Win32,59.52380952,,,,,,,,,,,,,,,,,,,,,,305.6415,307.318,a,1,[],[],[],[],[],[],[],1,1,307.3185,307.818,,,,,,765,FEM,AGR,150,manera,la,a,1,,,,307.8183,307.8188,-0.114814829,-0.405555584,0,0,0,,0,1,1,314,1,,,,
,,,,,,5df8e4b2be7c490096e70ca2,66a626ef09d4e21e1a8894ec,673649bb9efdb56af01cef7f,2024-11-14_13h08.31.669,Tarea de género gramatical,2024.2.2,Win32,59.52380952,,,,,,,,,,,,,,,,,,,,,,307.822,309.2012,l,0,[],[],[],[],[],[],[],0.7064,0,309.2038,309.7009,,,,,,728,FEM,DIS,150,presa,el,a,0.7064,,,,309.7053,309.707,-0.114814829,-0.405555584,0,0,0,,0,2,2,277,1,,,,
,,,,,,5df8e4b2be7c490096e70ca2,66a626ef09d4e21e1a8894ec,673649bb9efdb56af01cef7f,2024-11-14_13h08.31.669,Tarea de género gramatical,2024.2.2,Win32,59.52380952,,,,,,,,,,,,,,,,,,,,,,309.7086,312.1676,l,0,[],[],[],[],[],[],[],1.7832,0,312.1679,312.6674,,,,,,686,FEM,DIS,150,deuda,el,a,1.7832,,,,312.6677,312.6684,-0.114814829,-0.405555584,0,0,0,,0,3,3,235,1,,,,
,,,,,,5df8e4b2be7c490096e70ca2,66a626ef09d4e21e1a8894ec,673649bb9efdb56af01cef7f,2024-11-14_13h08.31.669,Tarea de género gramatical,2024.2.2,Win32,59.52380952,,,,,,,,,,,,,,,,,,,,,,312.671,314.3341,a,1,[],[],[],[],[],[],[],0.9895,1,314.3363,314.8335,,,,,,669,FEM,AGR,150,costa,la,a,0.9895,,,,314.8337,314.8341,-0.114814829,-0.405555584,0,0,0,,0,4,4,218,1,,,,
,,,,,,5df8e4b2be7c490096e70ca2,66a626ef09d4e21e1a8894ec,673649bb9efdb56af01cef7f,2024-11-14_13h08.31.669,Tarea de género gramatical,2024.2.2,Win32,59.52380952,,,,,,,,,,,,,,,,,,,,,,314.8383,317.4833,,0,[],[],[],[],[],[],[],0.9895,-1,317.5125,317.9832,,,,,,899,MAS,DIS,150,payaso,la,l,,,,,317.9836,317.9847,-0.114814829,-0.405555584,0,0,0,,0,5,5,448,1,,,,
,,,,,,5df8e4b2be7c490096e70ca2,66a626ef09d4e21e1a8894ec,673649bb9efdb56af01cef7f,2024-11-14_13h08.31.669,Tarea de género gramatical,2024.2.2,Win32,59.52380952,,,,,,,,,,,,,,,,,,,,,,317.9874,319.9824,a,1,[],[],[],[],[],[],[],1.3195,1,319.9839,320.4824,,,,,,782,FEM,DIS,150,basura,el,a,1.3195,,,,320.4854,320.4868,-0.114814829,-0.405555584,0,0,0,,0,6,6,331,1,,,,
,,,,,,5df8e4b2be7c490096e70ca2,66a626ef09d4e21e1a8894ec,673649bb9efdb56af01cef7f,2024-11-14_13h08.31.669,Tarea de género gramatical,2024.2.2,Win32,59.52380952,,,,,,,,,,,,,,,,,,,,,,320.4881,322.2508,a,1,[],[],[],[],[],[],[],1.0946,1,322.2511,322.7489,,,,,,495,FEM,AGR,150,isla,la,a,1.0946,,,,322.7491,322.7496,-0.114814829,-0.405555584,0,0,0,,0,7,7,44,1,,,,
,,,,,,5df8e4b2be7c490096e70ca2,66a626ef09d4e21e1a8894ec,673649bb9efdb56af01cef7f,2024-11-14_13h08.31.669,Tarea de género gramatical,2024.2.2,Win32,59.52380952,,,,,,,,,,,,,,,,,,,,,,322.7534,324.4155,a,1,[],[],[],[],[],[],[],0.9938,1,324.4157,324.9154,,,,,,494,FEM,DIS,150,zona,el,a,0.9938,,,,324.9155,324.9159,-0.114814829,-0.405555584,0,0,0,,0,8,8,43,1,,,,
,,,,,,5df8e4b2be7c490096e70ca2,66a626ef09d4e21e1a8894ec,673649bb9efdb56af01cef7f,2024-11-14_13h08.31.669,Tarea de género gramatical,2024.2.2,Win32,59.52380952,,,,,,,,,,,,,,,,,,,,,,324.9187,326.4315,a,1,[],[],[],[],[],[],[],0.832,1,326.4318,326.9318,,,,,,794,FEM,DIS,150,pareja,el,a,0.832,,,,326.932,326.9325,-0.114814829,-0.405555584,0,0,0,,0,9,9,343,1,,,,
,,,,,,5df8e4b2be7c490096e70ca2,66a626ef09d4e21e1a8894ec,673649bb9efdb56af01cef7f,2024-11-14_13h08.31.669,Tarea de género gramatical,2024.2.2,Win32,59.52380952,,,,,,,,,,,,,,,,,,,,,,326.9353,328.7148,a,1,[],[],[],[],[],[],[],1.1063,1,328.715,329.2147,,,,,,453,FEM,AGR,150,cosa,la,a,1.1063,,,,329.2148,329.2153,-0.114814829,-0.405555584,0,0,0,,0,10,10,2,1,,,,
,,,,,,5df8e4b2be7c490096e70ca2,66a626ef09d4e21e1a8894ec,673649bb9efdb56af01cef7f,2024-11-14_13h08.31.669,Tarea de género gramatical,2024.2.2,Win32,59.52380952,,,,,,,,,,,,,,,,,,,,,,329.2178,331.1146,a,1,[],[],[],[],[],[],[],1.2251,1,331.1148,331.6144,,,,,,703,FEM,CON,150,aldea,,a,1.2251,,,,331.6186,331.6204,-0.114814829,-0.405555584,0,0,0,,0,11,11,252,1,,,,
,,,,,,5df8e4b2be7c490096e70ca2,66a626ef09d4e21e1a8894ec,673649bb9efdb56af01cef7f,2024-11-14_13h08.31.669,Tarea de género gramatical,2024.2.2,Win32,59.52380952,,,,,,,,,,,,,,,,,,,,,,331.6221,333.2974,l,1,[],[],[],[],[],[],[],1.0076,1,333.2976,333.7976,,,,,,491,MAS,DIS,150,bote,la,l,1.0076,,,,333.7977,333.7979,-0.114814829,-0.405555584,0,0,0,,0,12,12,40,1,,,,
,,,,,,5df8e4b2be7c490096e70ca2,66a626ef09d4e21e1a8894ec,673649bb9efdb56af01cef7f,2024-11-14_13h08.31.669,Tarea de género gramatical,2024.2.2,Win32,59.52380952,,,,,,,,,,,,,,,,,,,,,,333.8012,335.5471,a,1,[],[],[],[],[],[],[],1.068,1,335.5473,336.047,,,,,,452,FEM,DIS,150,vida,el,a,1.068,,,,336.047,336.0476,-0.114814829,-0.405555584,0,0,0,,0,13,13,1,1,,,,
,,,,,,5df8e4b2be7c490096e70ca2,66a626ef09d4e21e1a8894ec,673649bb9efdb56af01cef7f,2024-11-14_13h08.31.669,Tarea de género gramatical,2024.2.2,Win32,59.52380952,,,,,,,,,,,,,,,,,,,,,,336.0501,337.8969,l,1,[],[],[],[],[],[],[],1.1712,1,337.8971,338.3971,,,,,,606,MAS,AGR,150,amigo,el,l,1.1712,,,,338.3972,338.3976,-0.114814829,-0.405555584,0,0,0,,0,14,14,155,1,,,,
,,,,,,5df8e4b2be7c490096e70ca2,66a626ef09d4e21e1a8894ec,673649bb9efdb56af01cef7f,2024-11-14_13h08.31.669,Tarea de género gramatical,2024.2.2,Win32,59.52380952,,,,,,,,,,,,,,,,,,,,,,338.4017,340.0128,a,1,[],[],[],[],[],[],[],0.937,1,340.013,340.513,,,,,,457,FEM,CON,150,hora,,a,0.937,,,,340.5174,340.5192,-0.114814829,-0.405555584,0,0,0,,0,15,15,6,1,,,,
,,,,,,5df8e4b2be7c490096e70ca2,66a626ef09d4e21e1a8894ec,673649bb9efdb56af01cef7f,2024-11-14_13h08.31.669,Tarea de género gramatical,2024.2.2,Win32,59.52380952,,,,,,,,,,,,,,,,,,,,,,340.5211,342.046,l,1,[],[],[],[],[],[],[],0.8548,1,342.0463,342.5461,,,,,,594,MAS,AGR,150,amor,el,l,0.8548,,,,342.5461,342.5464,-0.114814829,-0.405555584,0,0,0,,0,16,16,143,1,,,,
,,,,,,5df8e4b2be7c490096e70ca2,66a626ef09d4e21e1a8894ec,673649bb9efdb56af01cef7f,2024-11-14_13h08.31.669,Tarea de género gramatical,2024.2.2,Win32,59.52380952,,,,,,,,,,,,,,,,,,,,,,342.5484,344.0958,a,1,[],[],[],[],[],[],[],0.8747,1,344.0959,344.5962,,,,,,813,FEM,AGR,150,unidad,la,a,0.8747,,,,344.5964,344.5966,-0.114814829,-0.405555584,0,0,0,,0,17,17,362,1,,,,
,,,,,,5df8e4b2be7c490096e70ca2,66a626ef09d4e21e1a8894ec,673649bb9efdb56af01cef7f,2024-11-14_13h08.31.669,Tarea de género gramatical,2024.2.2,Win32,59.52380952,,,,,,,,,,,,,,,,,,,,,,344.6004,346.0954,l,1,[],[],[],[],[],[],[],0.8188,1,346.0957,346.5957,,,,,,576,MAS,AGR,150,lazo,el,l,0.8188,,,,346.5957,346.5962,-0.114814829,-0.405555584,0,0,0,,0,18,18,125,1,,,,
,,,,,,5df8e4b2be7c490096e70ca2,66a626ef09d4e21e1a8894ec,673649bb9efdb56af01cef7f,2024-11-14_13h08.31.669,Tarea de género gramatical,2024.2.2,Win32,59.52380952,,,,,,,,,,,,,,,,,,,,,,346.5991,348.3953,l,1,[],[],[],[],[],[],[],1.1174,1,348.3956,348.8952,,,,,,768,MAS,AGR,150,pueblo,el,l,1.1174,,,,348.8954,348.896,-0.114814829,-0.405555584,0,0,0,,0,19,19,317,1,,,,
,,,,,,5df8e4b2be7c490096e70ca2,66a626ef09d4e21e1a8894ec,673649bb9efdb56af01cef7f,2024-11-14_13h08.31.669,Tarea de género gramatical,2024.2.2,Win32,59.52380952,,,,,,,,,,,,,,,,,,,,,,348.8988,350.5949,l,1,[],[],[],[],[],[],[],1.0189,1,350.5952,351.0945,,,,,,731,MAS,DIS,150,actor,la,l,1.0189,,,,351.0974,351.0982,-0.114814829,-0.405555584,0,0,0,,0,20,20,280,1,,,,
,,,,,,5df8e4b2be7c490096e70ca2,66a626ef09d4e21e1a8894ec,673649bb9efdb56af01cef7f,2024-11-14_13h08.31.669,Tarea de género gramatical,2024.2.2,Win32,59.52380952,,,,,,,,,,,,,,,,,,,,,,351.0992,352.4779,l,1,[],[],[],[],[],[],[],0.71,1,352.4781,352.9782,,,,,,780,MAS,AGR,150,estado,el,l,0.71,,,,352.9784,352.9788,-0.114814829,-0.405555584,0,0,0,,0,21,21,329,1,,,,
,,,,,,5df8e4b2be7c490096e70ca2,66a626ef09d4e21e1a8894ec,673649bb9efdb56af01cef7f,2024-11-14_13h08.31.669,Tarea de género gramatical,2024.2.2,Win32,59.52380952,,,,,,,,,,,,,,,,,,,,,,352.9819,354.6283,l,1,[],[],[],[],[],[],[],0.9718,1,354.6289,355.1277,,,,,,868,MAS,CON,150,pájaro,,l,0.9718,,,,355.1278,355.1283,-0.114814829,-0.405555584,0,0,0,,0,22,22,417,1,,,,
,,,,,,5df8e4b2be7c490096e70ca2,66a626ef09d4e21e1a8894ec,673649bb9efdb56af01cef7f,2024-11-14_13h08.31.669,Tarea de género gramatical,2024.2.2,Win32,59.52380952,,,,,,,,,,,,,,,,,,,,,,355.1319,356.4108,l,1,[],[],[],[],[],[],[],0.6035,1,356.4112,356.9103,,,,,,750,MAS,AGR,150,túnel,el,l,0.6035,,,,356.9105,356.9108,-0.114814829,-0.405555584,0,0,0,,0,23,23,299,1,,,,
,,,,,,5df8e4b2be7c490096e70ca2,66a626ef09d4e21e1a8894ec,673649bb9efdb56af01cef7f,2024-11-14_13h08.31.669,Tarea de género gramatical,2024.2.2,Win32,59.52380952,,,,,,,,,,,,,,,,,,,,,,356.9126,358.7933,l,1,[],[],[],[],[],[],[],1.2092,1,358.7934,359.2932,,,,,,467,MAS,DIS,150,modo,la,l,1.2092,,,,359.2967,359.2983,-0.114814829,-0.405555584,0,0,0,,0,24,24,16,1,,,,
,,,,,,5df8e4b2be7c490096e70ca2,66a626ef09d4e21e1a8894ec,673649bb9efdb56af01cef7f,2024-11-14_13h08.31.669,Tarea de género gramatical,2024.2.2,Win32,59.52380952,,,,,,,,,,,,,,,,,,,,,,359.2997,360.6263,a,1,[],[],[],[],[],[],[],0.6565,1,360.6265,361.1263,,,,,,651,FEM,AGR,150,leche,la,a,0.6565,,,,361.1264,361.1266,-0.114814829,-0.405555584,0,0,0,,0,25,25,200,1,,,,
,,,,,,5df8e4b2be7c490096e70ca2,66a626ef09d4e21e1a8894ec,673649bb9efdb56af01cef7f,2024-11-14_13h08.31.669,Tarea de género gramatical,2024.2.2,Win32,59.52380952,,,,,,,,,,,,,,,,,,,,,,361.1286,362.676,a,1,[],[],[],[],[],[],[],0.8752,1,362.6761,363.1759,,,,,,705,FEM,AGR,150,tribu,la,a,0.8752,,,,363.176,363.1762,-0.114814829,-0.405555584,0,0,0,,0,26,26,254,1,,,,
,,,,,,5df8e4b2be7c490096e70ca2,66a626ef09d4e21e1a8894ec,673649bb9efdb56af01cef7f,2024-11-14_13h08.31.669,Tarea de género gramatical,2024.2.2,Win32,59.52380952,,,,,,,,,,,,,,,,,,,,,,363.1785,365.059,l,1,[],[],[],[],[],[],[],1.2005,1,365.0592,365.5589,,,,,,654,MAS,AGR,150,papel,el,l,1.2005,,,,365.5589,365.559,-0.114814829,-0.405555584,0,0,0,,0,27,27,203,1,,,,
,,,,,,5df8e4b2be7c490096e70ca2,66a626ef09d4e21e1a8894ec,673649bb9efdb56af01cef7f,2024-11-14_13h08.31.669,Tarea de género gramatical,2024.2.2,Win32,59.52380952,,,,,,,,,,,,,,,,,,,,,,365.5609,367.0421,a,1,[],[],[],[],[],[],[],0.8005,1,367.0422,367.542,,,,,,776,FEM,DIS,150,música,el,a,0.8005,,,,367.5421,367.5422,-0.114814829,-0.405555584,0,0,0,,0,28,28,325,1,,,,
,,,,,,5df8e4b2be7c490096e70ca2,66a626ef09d4e21e1a8894ec,673649bb9efdb56af01cef7f,2024-11-14_13h08.31.669,Tarea de género gramatical,2024.2.2,Win32,59.52380952,,,,,,,,,,,,,,,,,,,,,,367.5446,369.3917,l,1,[],[],[],[],[],[],[],1.1729,1,369.3918,369.8916,,,,,,791,MAS,DIS,150,precio,la,l,1.1729,,,,369.8955,369.8969,-0.114814829,-0.405555584,0,0,0,,0,29,29,340,1,,,,
,,,,,,5df8e4b2be7c490096e70ca2,66a626ef09d4e21e1a8894ec,673649bb9efdb56af01cef7f,2024-11-14_13h08.31.669,Tarea de género gramatical,2024.2.2,Win32,59.52380952,,,,,,,,,,,,,,,,,,,,,,369.8981,371.4247,l,1,[],[],[],[],[],[],[],0.8592,1,371.4248,371.9247,,,,,,586,MAS,CON,150,vago,,l,0.8592,,,,371.9248,371.9249,-0.114814829,-0.405555584,0,0,0,,0,30,30,135,1,,,,
,,,,,,5df8e4b2be7c490096e70ca2,66a626ef09d4e21e1a8894ec,673649bb9efdb56af01cef7f,2024-11-14_13h08.31.669,Tarea de género gramatical,2024.2.2,Win32,59.52380952,,,,,,,,,,,,,,,,,,,,,,371.9276,373.4247,a,1,[],[],[],[],[],[],[],0.8188,1,373.4249,373.9244,,,,,,555,FEM,AGR,150,jefa,la,a,0.8188,,,,373.9245,373.9249,-0.114814829,-0.405555584,0,0,0,,0,31,31,104,1,,,,
,,,,,,5df8e4b2be7c490096e70ca2,66a626ef09d4e21e1a8894ec,673649bb9efdb56af01cef7f,2024-11-14_13h08.31.669,Tarea de género gramatical,2024.2.2,Win32,59.52380952,,,,,,,,,,,,,,,,,,,,,,373.9271,375.6743,l,1,[],[],[],[],[],[],[],1.0689,1,375.6746,376.1743,,,,,,784,MAS,CON,150,ataque,,l,1.0689,,,,376.1743,376.1747,-0.114814829,-0.405555584,0,0,0,,0,32,32,333,1,,,,
,,,,,,5df8e4b2be7c490096e70ca2,66a626ef09d4e21e1a8894ec,673649bb9efdb56af01cef7f,2024-11-14_13h08.31.669,Tarea de género gramatical,2024.2.2,Win32,59.52380952,,,,,,,,,,,,,,,,,,,,,,376.177,377.4737,l,1,[],[],[],[],[],[],[],0.6257,1,377.4738,377.9739,,,,,,737,MAS,DIS,150,plato,la,l,0.6257,,,,377.9788,377.9809,-0.114814829,-0.405555584,0,0,0,,0,33,33,286,1,,,,
,,,,,,5df8e4b2be7c490096e70ca2,66a626ef09d4e21e1a8894ec,673649bb9efdb56af01cef7f,2024-11-14_13h08.31.669,Tarea de género gramatical,2024.2.2,Win32,59.52380952,,,,,,,,,,,,,,,,,,,,,,377.9828,379.2408,l,1,[],[],[],[],[],[],[],0.5847,1,379.2411,379.7405,,,,,,659,MAS,DIS,150,banco,la,l,0.5847,,,,379.7406,379.7409,-0.114814829,-0.405555584,0,0,0,,0,34,34,208,1,,,,
,,,,,,5df8e4b2be7c490096e70ca2,66a626ef09d4e21e1a8894ec,673649bb9efdb56af01cef7f,2024-11-14_13h08.31.669,Tarea de género gramatical,2024.2.2,Win32,59.52380952,,,,,,,,,,,,,,,,,,,,,,379.7434,380.9404,a,1,[],[],[],[],[],[],[],0.5227,1,380.9407,381.4402,,,,,,639,FEM,AGR,150,pista,la,a,0.5227,,,,381.4403,381.4407,-0.114814829,-0.405555584,0,0,0,,0,35,35,188,1,,,,
,,,,,,5df8e4b2be7c490096e70ca2,66a626ef09d4e21e1a8894ec,673649bb9efdb56af01cef7f,2024-11-14_13h08.31.669,Tarea de género gramatical,2024.2.2,Win32,59.52380952,,,,,,,,,,,,,,,,,,,,,,381.4439,382.8902,l,1,[],[],[],[],[],[],[],0.7706,1,382.8905,383.3898,,,,,,540,MAS,AGR,150,león,el,l,0.7706,,,,383.3899,383.3905,-0.114814829,-0.405555584,0,0,0,,0,36,36,89,1,,,,
,,,,,,5df8e4b2be7c490096e70ca2,66a626ef09d4e21e1a8894ec,673649bb9efdb56af01cef7f,2024-11-14_13h08.31.669,Tarea de género gramatical,2024.2.2,Win32,59.52380952,,,,,,,,,,,,,,,,,,,,,,383.3927,384.8065,l,1,[],[],[],[],[],[],[],0.7356,1,384.8067,385.3065,,,,,,892,MAS,CON,150,cuadro,,l,0.7356,,,,385.3068,385.3074,-0.114814829,-0.405555584,0,0,0,,0,37,37,441,1,,,,
,,,,,,5df8e4b2be7c490096e70ca2,66a626ef09d4e21e1a8894ec,673649bb9efdb56af01cef7f,2024-11-14_13h08.31.669,Tarea de género gramatical,2024.2.2,Win32,59.52380952,,,,,,,,,,,,,,,,,,,,,,385.31,386.7063,l,1,[],[],[],[],[],[],[],0.7181,1,386.7066,387.2059,,,,,,828,MAS,AGR,150,pastel,el,l,0.7181,,,,387.211,387.2129,-0.114814829,-0.405555584,0,0,0,,0,38,38,377,1,,,,
,,,,,,5df8e4b2be7c490096e70ca2,66a626ef09d4e21e1a8894ec,673649bb9efdb56af01cef7f,2024-11-14_13h08.31.669,Tarea de género gramatical,2024.2.2,Win32,59.52380952,,,,,,,,,,,,,,,,,,,,,,387.2147,388.4223,l,1,[],[],[],[],[],[],[],0.5392,1,388.4225,388.9223,,,,,,786,MAS,AGR,150,crimen,el,l,0.5392,,,,388.9223,388.9228,-0.114814829,-0.405555584,0,0,0,,0,39,39,335,1,,,,
,,,,,,5df8e4b2be7c490096e70ca2,66a626ef09d4e21e1a8894ec,673649bb9efdb56af01cef7f,2024-11-14_13h08.31.669,Tarea de género gramatical,2024.2.2,Win32,59.52380952,,,,,,,,,,,,,,,,,,,,,,388.9248,390.0555,l,1,[],[],[],[],[],[],[],0.4701,1,390.0557,390.5608,,,,,,563,MAS,DIS,150,toro,la,l,0.4701,,,,390.561,390.5612,-0.114814829,-0.405555584,0,0,0,,0,40,40,112,1,,,,
,,,,,,5df8e4b2be7c490096e70ca2,66a626ef09d4e21e1a8894ec,673649bb9efdb56af01cef7f,2024-11-14_13h08.31.669,Tarea de género gramatical,2024.2.2,Win32,59.52380952,,,,,,,,,,,,,,,,,,,,,,390.5627,391.7226,a,1,[],[],[],[],[],[],[],0.4903,1,391.7227,392.2214,,,,,,614,FEM,DIS,150,novia,el,a,0.4903,,,,392.2215,392.2216,-0.114814829,-0.405555584,0,0,0,,0,41,41,163,1,,,,
,,,,,,5df8e4b2be7c490096e70ca2,66a626ef09d4e21e1a8894ec,673649bb9efdb56af01cef7f,2024-11-14_13h08.31.669,Tarea de género gramatical,2024.2.2,Win32,59.52380952,,,,,,,,,,,,,,,,,,,,,,392.223,393.4382,a,1,[],[],[],[],[],[],[],0.5411,1,393.4382,393.9381,,,,,,489,FEM,AGR,150,luna,la,a,0.5411,,,,393.941,393.9427,-0.114814829,-0.405555584,0,0,0,,0,42,42,38,1,,,,
,,,,,,5df8e4b2be7c490096e70ca2,66a626ef09d4e21e1a8894ec,673649bb9efdb56af01cef7f,2024-11-14_13h08.31.669,Tarea de género gramatical,2024.2.2,Win32,59.52380952,,,,,,,,,,,,,,,,,,,,,,393.9438,394.9879,a,1,[],[],[],[],[],[],[],0.3672,1,394.9882,395.4884,,,,,,543,FEM,AGR,150,lata,la,a,0.3672,,,,395.4886,395.4891,-0.114814829,-0.405555584,0,0,0,,0,43,43,92,1,,,,
,,,,,,5df8e4b2be7c490096e70ca2,66a626ef09d4e21e1a8894ec,673649bb9efdb56af01cef7f,2024-11-14_13h08.31.669,Tarea de género gramatical,2024.2.2,Win32,59.52380952,,,,,,,,,,,,,,,,,,,,,,395.4919,396.838,a,1,[],[],[],[],[],[],[],0.6854,1,396.8386,397.3382,,,,,,716,FEM,DIS,150,jaula,el,a,0.6854,,,,397.3385,397.339,-0.114814829,-0.405555584,0,0,0,,0,44,44,265,1,,,,
,,,,,,5df8e4b2be7c490096e70ca2,66a626ef09d4e21e1a8894ec,673649bb9efdb56af01cef7f,2024-11-14_13h08.31.669,Tarea de género gramatical,2024.2.2,Win32,59.52380952,,,,,,,,,,,,,,,,,,,,,,397.3423,398.7208,l,1,[],[],[],[],[],[],[],0.7022,1,398.721,399.221,,,,,,730,MAS,CON,150,salón,,l,0.7022,,,,399.2211,399.2216,-0.114814829,-0.405555584,0,0,0,,0,45,45,279,1,,,,
,,,,,,5df8e4b2be7c490096e70ca2,66a626ef09d4e21e1a8894ec,673649bb9efdb56af01cef7f,2024-11-14_13h08.31.669,Tarea de género gramatical,2024.2.2,Win32,59.52380952,,,,,,,,,,,,,,,,,,,,,,399.224,400.7535,l,1,[],[],[],[],[],[],[],0.8594,1,400.7536,401.2535,,,,,,532,MAS,CON,150,tubo,,l,0.8594,,,,401.2536,401.2538,-0.114814829,-0.405555584,0,0,0,,0,46,46,81,1,,,,
,,,,,,5df8e4b2be7c490096e70ca2,66a626ef09d4e21e1a8894ec,673649bb9efdb56af01cef7f,2024-11-14_13h08.31.669,Tarea de género gramatical,2024.2.2,Win32,59.52380952,,,,,,,,,,,,,,,,,,,,,,401.2552,402.5866,a,1,[],[],[],[],[],[],[],0.6531,1,402.5867,403.0865,,,,,,883,FEM,CON,150,huella,,a,0.6531,,,,403.0885,403.0903,-0.114814829,-0.405555584,0,0,0,,0,47,47,432,1,,,,
,,,,,,5df8e4b2be7c490096e70ca2,66a626ef09d4e21e1a8894ec,673649bb9efdb56af01cef7f,2024-11-14_13h08.31.669,Tarea de género gramatical,2024.2.2,Win32,59.52380952,,,,,,,,,,,,,,,,,,,,,,403.0912,404.5533,l,1,[],[],[],[],[],[],[],0.7861,1,404.5534,405.0531,,,,,,496,MAS,CON,150,odio,,l,0.7861,,,,405.0532,405.0534,-0.114814829,-0.405555584,0,0,0,,0,48,48,45,1,,,,
,,,,,,5df8e4b2be7c490096e70ca2,66a626ef09d4e21e1a8894ec,673649bb9efdb56af01cef7f,2024-11-14_13h08.31.669,Tarea de género gramatical,2024.2.2,Win32,59.52380952,,,,,,,,,,,,,,,,,,,,,,405.0552,406.4204,a,1,[],[],[],[],[],[],[],0.6945,1,406.4209,406.9198,,,,,,463,FEM,CON,150,hija,,a,0.6945,,,,406.92,406.9208,-0.114814829,-0.405555584,0,0,0,,0,49,49,12,1,,,,
,,,,,,5df8e4b2be7c490096e70ca2,66a626ef09d4e21e1a8894ec,673649bb9efdb56af01cef7f,2024-11-14_13h08.31.669,Tarea de género gramatical,2024.2.2,Win32,59.52380952,,,,,,,,,,,,,,,,,,,,,,406.9222,408.3364,l,1,[],[],[],[],[],[],[],0.7443,1,408.3365,408.8359,,,,,,556,MAS,CON,150,test,,l,0.7443,,,,408.8359,408.8361,-0.114814829,-0.405555584,0,0,0,,0,50,50,105,1,,,,
,,,,,,5df8e4b2be7c490096e70ca2,66a626ef09d4e21e1a8894ec,673649bb9efdb56af01cef7f,2024-11-14_13h08.31.669,Tarea de género gramatical,2024.2.2,Win32,59.52380952,,,,,,,,,,,,,,,,,,,,,,408.8383,410.169,a,1,[],[],[],[],[],[],[],0.6505,1,410.1691,410.6689,,,,,,657,FEM,AGR,150,playa,la,a,0.6505,,,,410.6709,410.672,-0.114814829,-0.405555584,0,0,0,,0,51,51,206,1,,,,
,,,,,,5df8e4b2be7c490096e70ca2,66a626ef09d4e21e1a8894ec,673649bb9efdb56af01cef7f,2024-11-14_13h08.31.669,Tarea de género gramatical,2024.2.2,Win32,59.52380952,,,,,,,,,,,,,,,,,,,,,,410.6733,411.9244,l,1,[],[],[],[],[],[],[],0.5836,1,411.9245,412.4239,,,,,,666,MAS,AGR,150,éxito,el,l,0.5836,,,,412.4239,412.4241,-0.114814829,-0.405555584,0,0,0,,0,52,52,215,1,,,,
,,,,,,5df8e4b2be7c490096e70ca2,66a626ef09d4e21e1a8894ec,673649bb9efdb56af01cef7f,2024-11-14_13h08.31.669,Tarea de género gramatical,2024.2.2,Win32,59.52380952,,,,,,,,,,,,,,,,,,,,,,412.4251,413.6575,l,1,[],[],[],[],[],[],[],0.5506,1,413.6577,414.1568,,,,,,618,MAS,AGR,150,sitio,el,l,0.5506,,,,414.1569,414.157,-0.114814829,-0.405555584,0,0,0,,0,53,53,167,1,,,,
,,,,,,5df8e4b2be7c490096e70ca2,66a626ef09d4e21e1a8894ec,673649bb9efdb56af01cef7f,2024-11-14_13h08.31.669,Tarea de género gramatical,2024.2.2,Win32,59.52380952,,,,,,,,,,,,,,,,,,,,,,414.158,415.3407,a,1,[],[],[],[],[],[],[],0.5007,1,415.3407,415.8399,,,,,,729,FEM,AGR,150,selva,la,a,0.5007,,,,415.84,415.8402,-0.114814829,-0.405555584,0,0,0,,0,54,54,278,1,,,,
,,,,,,5df8e4b2be7c490096e70ca2,66a626ef09d4e21e1a8894ec,673649bb9efdb56af01cef7f,2024-11-14_13h08.31.669,Tarea de género gramatical,2024.2.2,Win32,59.52380952,,,,,,,,,,,,,,,,,,,,,,415.8413,417.9235,a,1,[],[],[],[],[],[],[],1.4003,1,417.9236,418.423,,,,,,535,FEM,CON,150,gira,,a,1.4003,,,,418.423,418.4232,-0.114814829,-0.405555584,0,0,0,,0,55,55,84,1,,,,
,,,,,,5df8e4b2be7c490096e70ca2,66a626ef09d4e21e1a8894ec,673649bb9efdb56af01cef7f,2024-11-14_13h08.31.669,Tarea de género gramatical,2024.2.2,Win32,59.52380952,,,,,,,,,,,,,,,,,,,,,,418.4243,419.7066,a,1,[],[],[],[],[],[],[],0.6006,1,419.7066,420.2061,,,,,,895,FEM,CON,150,bondad,,a,0.6006,,,,420.2075,420.2085,-0.114814829,-0.405555584,0,0,0,,0,56,56,444,1,,,,
,,,,,,5df8e4b2be7c490096e70ca2,66a626ef09d4e21e1a8894ec,673649bb9efdb56af01cef7f,2024-11-14_13h08.31.669,Tarea de género gramatical,2024.2.2,Win32,59.52380952,,,,,,,,,,,,,,,,,,,,,,420.2094,421.3677,l,1,[],[],[],[],[],[],[],0.4843,1,421.3681,421.8672,,,,,,670,MAS,CON,150,huevo,,l,0.4843,,,,421.8674,421.8676,-0.114814829,-0.405555584,0,0,0,,0,57,57,219,1,,,,
,,,,,,5df8e4b2be7c490096e70ca2,66a626ef09d4e21e1a8894ec,673649bb9efdb56af01cef7f,2024-11-14_13h08.31.669,Tarea de género gramatical,2024.2.2,Win32,59.52380952,,,,,,,,,,,,,,,,,,,,,,421.8694,423.0836,l,1,[],[],[],[],[],[],[],0.5413,1,423.0839,423.5837,,,,,,852,MAS,AGR,150,ladrón,el,l,0.5413,,,,423.5838,423.5841,-0.114814829,-0.405555584,0,0,0,,0,58,58,401,1,,,,
,,,,,,5df8e4b2be7c490096e70ca2,66a626ef09d4e21e1a8894ec,673649bb9efdb56af01cef7f,2024-11-14_13h08.31.669,Tarea de género gramatical,2024.2.2,Win32,59.52380952,,,,,,,,,,,,,,,,,,,,,,423.586,424.8168,a,1,[],[],[],[],[],[],[],0.5504,1,424.8169,425.3168,,,,,,889,FEM,CON,150,toalla,,a,0.5504,,,,425.3169,425.3171,-0.114814829,-0.405555584,0,0,0,,0,59,59,438,1,,,,
,,,,,,5df8e4b2be7c490096e70ca2,66a626ef09d4e21e1a8894ec,673649bb9efdb56af01cef7f,2024-11-14_13h08.31.669,Tarea de género gramatical,2024.2.2,Win32,59.52380952,,,,,,,,,,,,,,,,,,,,,,425.3193,426.7498,l,1,[],[],[],[],[],[],[],0.7506,1,426.7499,427.2497,,,,,,521,MAS,DIS,150,pozo,la,l,0.7506,,,,427.2519,427.2529,-0.114814829,-0.405555584,0,0,0,,0,60,60,70,1,,,,
,,,,,,5df8e4b2be7c490096e70ca2,66a626ef09d4e21e1a8894ec,673649bb9efdb56af01cef7f,2024-11-14_13h08.31.669,Tarea de género gramatical,2024.2.2,Win32,59.52380952,,,,,,,,,,,,,,,,,,,,,,427.254,428.6223,a,1,[],[],[],[],[],[],[],0.7007,1,428.6224,429.1215,,,,,,872,FEM,DIS,150,rutina,el,a,0.7007,,,,429.1216,429.1218,-0.114814829,-0.405555584,0,0,0,,0,61,61,421,1,,,,
,,,,,,5df8e4b2be7c490096e70ca2,66a626ef09d4e21e1a8894ec,673649bb9efdb56af01cef7f,2024-11-14_13h08.31.669,Tarea de género gramatical,2024.2.2,Win32,59.52380952,,,,,,,,,,,,,,,,,,,,,,429.123,430.6555,a,1,[],[],[],[],[],[],[],0.8508,1,430.6557,431.1552,,,,,,590,FEM,DIS,150,mula,el,a,0.8508,,,,431.1553,431.1555,-0.114814829,-0.405555584,0,0,0,,0,62,62,139,1,,,,
,,,,,,5df8e4b2be7c490096e70ca2,66a626ef09d4e21e1a8894ec,673649bb9efdb56af01cef7f,2024-11-14_13h08.31.669,Tarea de género gramatical,2024.2.2,Win32,59.52380952,,,,,,,,,,,,,,,,,,,,,,431.1573,432.3897,a,1,[],[],[],[],[],[],[],0.5511,1,432.3898,432.8891,,,,,,519,FEM,AGR,150,rata,la,a,0.5511,,,,432.8892,432.8894,-0.114814829,-0.405555584,0,0,0,,0,63,63,68,1,,,,
,,,,,,5df8e4b2be7c490096e70ca2,66a626ef09d4e21e1a8894ec,673649bb9efdb56af01cef7f,2024-11-14_13h08.31.669,Tarea de género gramatical,2024.2.2,Win32,59.52380952,,,,,,,,,,,,,,,,,,,,,,432.8914,434.3324,l,1,[],[],[],[],[],[],[],0.7725,1,434.3327,434.8321,,,,,,785,MAS,DIS,150,montón,la,l,0.7725,,,,434.8322,434.8326,-0.114814829,-0.405555584,0,0,0,,0,64,64,334,1,,,,
,,,,,,5df8e4b2be7c490096e70ca2,66a626ef09d4e21e1a8894ec,673649bb9efdb56af01cef7f,2024-11-14_13h08.31.669,Tarea de género gramatical,2024.2.2,Win32,59.52380952,,,,,,,,,,,,,,,,,,,,,,434.835,436.5213,l,1,[],[],[],[],[],[],[],1.0155,1,436.5215,437.0151,,,,,,611,MAS,DIS,150,chico,la,l,1.0155,,,,437.0185,437.0202,-0.114814829,-0.405555584,0,0,0,,0,65,65,160,1,,,,
,,,,,,5df8e4b2be7c490096e70ca2,66a626ef09d4e21e1a8894ec,673649bb9efdb56af01cef7f,2024-11-14_13h08.31.669,Tarea de género gramatical,2024.2.2,Win32,59.52380952,,,,,,,,,,,,,,,,,,,,,,437.0219,438.2652,l,1,[],[],[],[],[],[],[],0.5769,1,438.2655,438.7648,,,,,,690,MAS,AGR,150,ruido,el,l,0.5769,,,,438.765,438.7653,-0.114814829,-0.405555584,0,0,0,,0,66,66,239,1,,,,
,,,,,,5df8e4b2be7c490096e70ca2,66a626ef09d4e21e1a8894ec,673649bb9efdb56af01cef7f,2024-11-14_13h08.31.669,Tarea de género gramatical,2024.2.2,Win32,59.52380952,,,,,,,,,,,,,,,,,,,,,,438.7677,440.0141,a,1,[],[],[],[],[],[],[],0.5729,1,440.0143,440.5144,,,,,,571,FEM,CON,150,pila,,a,0.5729,,,,440.5145,440.5148,-0.114814829,-0.405555584,0,0,0,,0,67,67,120,1,,,,
,,,,,,5df8e4b2be7c490096e70ca2,66a626ef09d4e21e1a8894ec,673649bb9efdb56af01cef7f,2024-11-14_13h08.31.669,Tarea de género gramatical,2024.2.2,Win32,59.52380952,,,,,,,,,,,,,,,,,,,,,,440.5175,441.6979,l,1,[],[],[],[],[],[],[],0.5014,1,441.6981,442.1975,,,,,,652,MAS,CON,150,honor,,l,0.5014,,,,442.1975,442.1977,-0.114814829,-0.405555584,0,0,0,,0,68,68,201,1,,,,
,,,,,,5df8e4b2be7c490096e70ca2,66a626ef09d4e21e1a8894ec,673649bb9efdb56af01cef7f,2024-11-14_13h08.31.669,Tarea de género gramatical,2024.2.2,Win32,59.52380952,,,,,,,,,,,,,,,,,,,,,,442.1993,443.4212,a,1,[],[],[],[],[],[],[],0.551,1,443.4215,443.9141,,,,,,823,FEM,CON,150,lluvia,,a,0.551,,,,443.9182,443.9202,-0.114814829,-0.405555584,0,0,0,,0,69,69,372,1,,,,
,,,,,,5df8e4b2be7c490096e70ca2,66a626ef09d4e21e1a8894ec,673649bb9efdb56af01cef7f,2024-11-14_13h08.31.669,Tarea de género gramatical,2024.2.2,Win32,59.52380952,,,,,,,,,,,,,,,,,,,,,,443.922,445.5305,a,1,[],[],[],[],[],[],[],0.935,1,445.5309,446.0305,,,,,,879,FEM,AGR,150,fianza,la,a,0.935,,,,446.0306,446.031,-0.114814829,-0.405555584,0,0,0,,0,70,70,428,1,,,,
,,,,,,5df8e4b2be7c490096e70ca2,66a626ef09d4e21e1a8894ec,673649bb9efdb56af01cef7f,2024-11-14_13h08.31.669,Tarea de género gramatical,2024.2.2,Win32,59.52380952,,,,,,,,,,,,,,,,,,,,,,446.0334,447.7804,a,1,[],[],[],[],[],[],[],1.0685,1,447.7806,448.2799,,,,,,800,FEM,DIS,150,imagen,el,a,1.0685,,,,448.28,448.2801,-0.114814829,-0.405555584,0,0,0,,0,71,71,349,1,,,,
,,,,,,5df8e4b2be7c490096e70ca2,66a626ef09d4e21e1a8894ec,673649bb9efdb56af01cef7f,2024-11-14_13h08.31.669,Tarea de género gramatical,2024.2.2,Win32,59.52380952,,,,,,,,,,,,,,,,,,,,,,448.282,449.4628,l,1,[],[],[],[],[],[],[],0.5039,1,449.4629,449.9631,,,,,,520,MAS,CON,150,palo,,l,0.5039,,,,449.9632,449.9636,-0.114814829,-0.405555584,0,0,0,,0,72,72,69,1,,,,
,,,,,,5df8e4b2be7c490096e70ca2,66a626ef09d4e21e1a8894ec,673649bb9efdb56af01cef7f,2024-11-14_13h08.31.669,Tarea de género gramatical,2024.2.2,Win32,59.52380952,,,,,,,,,,,,,,,,,,,,,,449.9662,451.2295,l,1,[],[],[],[],[],[],[],0.5867,1,451.2297,451.7295,,,,,,514,MAS,CON,150,saco,,l,0.5867,,,,451.7296,451.73,-0.114814829,-0.405555584,0,0,0,,0,73,73,63,1,,,,
,,,,,,5df8e4b2be7c490096e70ca2,66a626ef09d4e21e1a8894ec,673649bb9efdb56af01cef7f,2024-11-14_13h08.31.669,Tarea de género gramatical,2024.2.2,Win32,59.52380952,,,,,,,,,,,,,,,,,,,,,,451.7324,452.9959,l,1,[],[],[],[],[],[],[],0.5886,1,452.9961,453.4959,,,,,,821,MAS,DIS,150,sonido,la,l,0.5886,,,,453.4994,453.5014,-0.114814829,-0.405555584,0,0,0,,0,74,74,370,1,,,,
,,,,,,5df8e4b2be7c490096e70ca2,66a626ef09d4e21e1a8894ec,673649bb9efdb56af01cef7f,2024-11-14_13h08.31.669,Tarea de género gramatical,2024.2.2,Win32,59.52380952,,,,,,,,,,,,,,,,,,,,,,453.5032,454.779,a,1,[],[],[],[],[],[],[],0.6013,1,454.7793,455.2789,,,,,,758,FEM,DIS,150,semana,el,a,0.6013,,,,455.2791,455.2795,-0.114814829,-0.405555584,0,0,0,,0,75,75,307,1,,,,
,,,,,,5df8e4b2be7c490096e70ca2,66a626ef09d4e21e1a8894ec,673649bb9efdb56af01cef7f,2024-11-14_13h08.31.669,Tarea de género gramatical,2024.2.2,Win32,59.52380952,,,,,,,,,,,,,,,,,,,,,,455.2821,456.4787,a,1,[],[],[],[],[],[],[],0.5183,1,456.479,456.9787,,,,,,602,FEM,DIS,150,gente,el,a,0.5183,,,,456.9788,456.9792,-0.114814829,-0.405555584,0,0,0,,0,76,76,151,1,,,,
,,,,,,5df8e4b2be7c490096e70ca2,66a626ef09d4e21e1a8894ec,673649bb9efdb56af01cef7f,2024-11-14_13h08.31.669,Tarea de género gramatical,2024.2.2,Win32,59.52380952,,,,,,,,,,,,,,,,,,,,,,456.9817,458.2287,l,1,[],[],[],[],[],[],[],0.5679,1,458.2292,458.7283,,,,,,653,MAS,DIS,150,novio,la,l,0.5679,,,,458.7285,458.7288,-0.114814829,-0.405555584,0,0,0,,0,77,77,202,1,,,,
,,,,,,5df8e4b2be7c490096e70ca2,66a626ef09d4e21e1a8894ec,673649bb9efdb56af01cef7f,2024-11-14_13h08.31.669,Tarea de género gramatical,2024.2.2,Win32,59.52380952,,,,,,,,,,,,,,,,,,,,,,458.7309,459.9451,a,0,[],[],[],[],[],[],[],0.5417,0,459.9476,460.4445,,,,,,862,MAS,CON,150,espejo,,l,0.5417,,,,460.4467,460.4486,-0.114814829,-0.405555584,0,0,0,,0,78,78,411,1,,,,
,,,,,,5df8e4b2be7c490096e70ca2,66a626ef09d4e21e1a8894ec,673649bb9efdb56af01cef7f,2024-11-14_13h08.31.669,Tarea de género gramatical,2024.2.2,Win32,59.52380952,,,,,,,,,,,,,,,,,,,,,,460.4497,461.7943,l,1,[],[],[],[],[],[],[],0.6695,1,461.7953,462.295,,,,,,684,MAS,AGR,150,héroe,el,l,0.6695,,,,462.2953,462.2955,-0.114814829,-0.405555584,0,0,0,,0,79,79,233,1,,,,
,,,,,,5df8e4b2be7c490096e70ca2,66a626ef09d4e21e1a8894ec,673649bb9efdb56af01cef7f,2024-11-14_13h08.31.669,Tarea de género gramatical,2024.2.2,Win32,59.52380952,,,,,,,,,,,,,,,,,,,,,,462.2989,463.4441,l,1,[],[],[],[],[],[],[],0.4662,1,463.4443,463.9441,,,,,,826,MAS,CON,150,efecto,,l,0.4662,,,,463.9442,463.9444,-0.114814829,-0.405555584,0,0,0,,0,80,80,375,1,,,,
,,,,,,5df8e4b2be7c490096e70ca2,66a626ef09d4e21e1a8894ec,673649bb9efdb56af01cef7f,2024-11-14_13h08.31.669,Tarea de género gramatical,2024.2.2,Win32,59.52380952,,,,,,,,,,,,,,,,,,,,,,463.9464,465.0773,a,1,[],[],[],[],[],[],[],0.4513,1,465.0775,465.5774,,,,,,843,FEM,AGR,150,alarma,la,a,0.4513,,,,465.5775,465.5778,-0.114814829,-0.405555584,0,0,0,,0,81,81,392,1,,,,
,,,,,,5df8e4b2be7c490096e70ca2,66a626ef09d4e21e1a8894ec,673649bb9efdb56af01cef7f,2024-11-14_13h08.31.669,Tarea de género gramatical,2024.2.2,Win32,59.52380952,,,,,,,,,,,,,,,,,,,,,,465.5803,466.7274,l,1,[],[],[],[],[],[],[],0.4742,1,466.7278,467.2275,,,,,,456,MAS,AGR,150,lado,el,l,0.4742,,,,467.2277,467.2282,-0.114814829,-0.405555584,0,0,0,,0,82,82,5,1,,,,
,,,,,,5df8e4b2be7c490096e70ca2,66a626ef09d4e21e1a8894ec,673649bb9efdb56af01cef7f,2024-11-14_13h08.31.669,Tarea de género gramatical,2024.2.2,Win32,59.52380952,,,,,,,,,,,,,,,,,,,,,,467.2307,468.4269,a,1,[],[],[],[],[],[],[],0.5203,1,468.4273,468.927,,,,,,673,FEM,CON,150,plata,,a,0.5203,,,,468.93,468.9313,-0.114814829,-0.405555584,0,0,0,,0,83,83,222,1,,,,
,,,,,,5df8e4b2be7c490096e70ca2,66a626ef09d4e21e1a8894ec,673649bb9efdb56af01cef7f,2024-11-14_13h08.31.669,Tarea de género gramatical,2024.2.2,Win32,59.52380952,,,,,,,,,,,,,,,,,,,,,,468.9325,470.1275,l,1,[],[],[],[],[],[],[],0.5176,1,470.1276,470.6272,,,,,,552,MAS,AGR,150,coro,el,l,0.5176,,,,470.6273,470.6275,-0.114814829,-0.405555584,0,0,0,,0,84,84,101,1,,,,
,,,,,,5df8e4b2be7c490096e70ca2,66a626ef09d4e21e1a8894ec,673649bb9efdb56af01cef7f,2024-11-14_13h08.31.669,Tarea de género gramatical,2024.2.2,Win32,59.52380952,,,,,,,,,,,,,,,,,,,,,,470.6302,471.8439,a,1,[],[],[],[],[],[],[],0.5341,1,471.8441,472.3436,,,,,,877,FEM,CON,150,agenda,,a,0.5341,,,,472.3437,472.3441,-0.114814829,-0.405555584,0,0,0,,0,85,85,426,1,,,,
,,,,,,5df8e4b2be7c490096e70ca2,66a626ef09d4e21e1a8894ec,673649bb9efdb56af01cef7f,2024-11-14_13h08.31.669,Tarea de género gramatical,2024.2.2,Win32,59.52380952,,,,,,,,,,,,,,,,,,,,,,472.3474,473.543,l,1,[],[],[],[],[],[],[],0.5172,1,473.5431,474.0428,,,,,,570,MAS,AGR,150,puño,el,l,0.5172,,,,474.043,474.0431,-0.114814829,-0.405555584,0,0,0,,0,86,86,119,1,,,,
,,,,,,5df8e4b2be7c490096e70ca2,66a626ef09d4e21e1a8894ec,673649bb9efdb56af01cef7f,2024-11-14_13h08.31.669,Tarea de género gramatical,2024.2.2,Win32,59.52380952,,,,,,,,,,,,,,,,,,,,,,474.0452,475.2766,l,1,[],[],[],[],[],[],[],0.5512,1,475.2769,475.7763,,,,,,816,MAS,AGR,150,riesgo,el,l,0.5512,,,,475.7797,475.7818,-0.114814829,-0.405555584,0,0,0,,0,87,87,365,1,,,,
,,,,,,5df8e4b2be7c490096e70ca2,66a626ef09d4e21e1a8894ec,673649bb9efdb56af01cef7f,2024-11-14_13h08.31.669,Tarea de género gramatical,2024.2.2,Win32,59.52380952,,,,,,,,,,,,,,,,,,,,,,475.7835,476.9092,l,1,[],[],[],[],[],[],[],0.4586,1,476.9095,477.4091,,,,,,682,MAS,CON,150,calor,,l,0.4586,,,,477.4093,477.4098,-0.114814829,-0.405555584,0,0,0,,0,88,88,231,1,,,,
,,,,,,5df8e4b2be7c490096e70ca2,66a626ef09d4e21e1a8894ec,673649bb9efdb56af01cef7f,2024-11-14_13h08.31.669,Tarea de género gramatical,2024.2.2,Win32,59.52380952,,,,,,,,,,,,,,,,,,,,,,477.4124,478.5254,a,1,[],[],[],[],[],[],[],0.4427,1,478.5258,479.0255,,,,,,787,FEM,CON,150,escena,,a,0.4427,,,,479.0256,479.026,-0.114814829,-0.405555584,0,0,0,,0,89,89,336,1,,,,
,,,,,,5df8e4b2be7c490096e70ca2,66a626ef09d4e21e1a8894ec,673649bb9efdb56af01cef7f,2024-11-14_13h08.31.669,Tarea de género gramatical,2024.2.2,Win32,59.52380952,,,,,,,,,,,,,,,,,,,,,,479.0287,480.0919,l,1,[],[],[],[],[],[],[],0.3858,1,480.0921,480.5805,,,,,,898,MAS,CON,150,aceite,,l,0.3858,,,,480.5806,480.5809,-0.114814829,-0.405555584,0,0,0,,0,90,90,447,1,,,,
,,,,,,5df8e4b2be7c490096e70ca2,66a626ef09d4e21e1a8894ec,673649bb9efdb56af01cef7f,2024-11-14_13h08.31.669,Tarea de género gramatical,2024.2.2,Win32,59.52380952,,,,,,,,,,,,,,,,,,,,,,480.5833,481.5585,a,1,[],[],[],[],[],[],[],0.3023,1,481.5588,482.0583,,,,,,704,FEM,DIS,150,caída,el,a,0.3023,,,,482.0583,482.0587,-0.114814829,-0.405555584,0,0,0,,0,91,91,253,1,,,,
,,,,,,5df8e4b2be7c490096e70ca2,66a626ef09d4e21e1a8894ec,673649bb9efdb56af01cef7f,2024-11-14_13h08.31.669,Tarea de género gramatical,2024.2.2,Win32,59.52380952,,,,,,,,,,,,,,,,,,,,,,482.0613,483.0266,l,1,[],[],[],[],[],[],[],0.294,1,483.0268,483.5253,,,,,,672,MAS,AGR,150,valor,el,l,0.294,,,,483.5288,483.5305,-0.114814829,-0.405555584,0,0,0,,0,92,92,221,1,,,,
,,,,,,5df8e4b2be7c490096e70ca2,66a626ef09d4e21e1a8894ec,673649bb9efdb56af01cef7f,2024-11-14_13h08.31.669,Tarea de género gramatical,2024.2.2,Win32,59.52380952,,,,,,,,,,,,,,,,,,,,,,483.5322,484.6078,l,1,[],[],[],[],[],[],[],0.4009,1,484.608,485.1077,,,,,,858,MAS,AGR,150,cheque,el,l,0.4009,,,,485.1078,485.108,-0.114814829,-0.405555584,0,0,0,,0,93,93,407,1,,,,
,,,,,,5df8e4b2be7c490096e70ca2,66a626ef09d4e21e1a8894ec,673649bb9efdb56af01cef7f,2024-11-14_13h08.31.669,Tarea de género gramatical,2024.2.2,Win32,59.52380952,,,,,,,,,,,,,,,,,,,,,,485.1107,486.0743,a,1,[],[],[],[],[],[],[],0.2939,1,486.0745,486.5743,,,,,,476,FEM,DIS,150,pena,el,a,0.2939,,,,486.5744,486.5747,-0.114814829,-0.405555584,0,0,0,,0,94,94,25,1,,,,
,,,,,,5df8e4b2be7c490096e70ca2,66a626ef09d4e21e1a8894ec,673649bb9efdb56af01cef7f,2024-11-14_13h08.31.669,Tarea de género gramatical,2024.2.2,Win32,59.52380952,,,,,,,,,,,,,,,,,,,,,,486.5775,487.7419,a,1,[],[],[],[],[],[],[],0.4935,1,487.7423,488.2407,,,,,,561,FEM,AGR,150,goma,la,a,0.4935,,,,488.2409,488.2413,-0.114814829,-0.405555584,0,0,0,,0,95,95,110,1,,,,
,,,,,,5df8e4b2be7c490096e70ca2,66a626ef09d4e21e1a8894ec,673649bb9efdb56af01cef7f,2024-11-14_13h08.31.669,Tarea de género gramatical,2024.2.2,Win32,59.52380952,,,,,,,,,,,,,,,,,,,,,,488.2439,489.4073,l,1,[],[],[],[],[],[],[],0.4845,1,489.4076,489.9068,,,,,,694,MAS,CON,150,hielo,,l,0.4845,,,,489.9093,489.9124,-0.114814829,-0.405555584,0,0,0,,0,96,96,243,1,,,,
,,,,,,5df8e4b2be7c490096e70ca2,66a626ef09d4e21e1a8894ec,673649bb9efdb56af01cef7f,2024-11-14_13h08.31.669,Tarea de género gramatical,2024.2.2,Win32,59.52380952,,,,,,,,,,,,,,,,,,,,,,489.9137,491.0069,a,1,[],[],[],[],[],[],[],0.4192,1,491.0072,491.5065,,,,,,542,FEM,DIS,150,masa,el,a,0.4192,,,,491.5066,491.5067,-0.114814829,-0.405555584,0,0,0,,0,97,97,91,1,,,,
,,,,,,5df8e4b2be7c490096e70ca2,66a626ef09d4e21e1a8894ec,673649bb9efdb56af01cef7f,2024-11-14_13h08.31.669,Tarea de género gramatical,2024.2.2,Win32,59.52380952,,,,,,,,,,,,,,,,,,,,,,491.509,492.5566,a,0,[],[],[],[],[],[],[],0.3727,0,492.5586,493.0567,,,,,,634,MAS,CON,150,cielo,,l,0.3727,,,,493.0568,493.0575,-0.114814829,-0.405555584,0,0,0,,0,98,98,183,1,,,,
,,,,,,5df8e4b2be7c490096e70ca2,66a626ef09d4e21e1a8894ec,673649bb9efdb56af01cef7f,2024-11-14_13h08.31.669,Tarea de género gramatical,2024.2.2,Win32,59.52380952,,,,,,,,,,,,,,,,,,,,,,493.0601,494.3399,l,1,[],[],[],[],[],[],[],0.6014,1,494.3418,494.8396,,,,,,516,MAS,AGR,150,muro,el,l,0.6014,,,,494.8398,494.8401,-0.114814829,-0.405555584,0,0,0,,0,99,99,65,1,,,,
,,,,,,5df8e4b2be7c490096e70ca2,66a626ef09d4e21e1a8894ec,673649bb9efdb56af01cef7f,2024-11-14_13h08.31.669,Tarea de género gramatical,2024.2.2,Win32,59.52380952,,,,,,,,,,,,,,,,,,,,,,494.8433,495.9396,a,1,[],[],[],[],[],[],[],0.4206,1,495.9397,496.4394,,,,,,572,FEM,DIS,150,loca,el,a,0.4206,,,,496.4394,496.4398,-0.114814829,-0.405555584,0,0,0,,0,100,100,121,1,,,,
,,,,,,5df8e4b2be7c490096e70ca2,66a626ef09d4e21e1a8894ec,673649bb9efdb56af01cef7f,2024-11-14_13h08.31.669,Tarea de género gramatical,2024.2.2,Win32,59.52380952,,,,,,,,,,,,,,,,,,,,,,496.4422,497.5563,a,1,[],[],[],[],[],[],[],0.436,1,497.5567,498.0559,,,,,,507,FEM,AGR,150,moda,la,a,0.436,,,,498.0596,498.0615,-0.114814829,-0.405555584,0,0,0,,0,101,101,56,1,,,,
,,,,,,5df8e4b2be7c490096e70ca2,66a626ef09d4e21e1a8894ec,673649bb9efdb56af01cef7f,2024-11-14_13h08.31.669,Tarea de género gramatical,2024.2.2,Win32,59.52380952,,,,,,,,,,,,,,,,,,,,,,498.0632,499.1228,l,1,[],[],[],[],[],[],[],0.387,1,499.1232,499.6224,,,,,,833,MAS,DIS,150,parque,la,l,0.387,,,,499.6225,499.623,-0.114814829,-0.405555584,0,0,0,,0,102,102,382,1,,,,
,,,,,,5df8e4b2be7c490096e70ca2,66a626ef09d4e21e1a8894ec,673649bb9efdb56af01cef7f,2024-11-14_13h08.31.669,Tarea de género gramatical,2024.2.2,Win32,59.52380952,,,,,,,,,,,,,,,,,,,,,,499.6256,500.5221,a,0,[],[],[],[],[],[],[],0.223,0,500.5238,501.022,,,,,,713,MAS,DIS,150,carro,la,l,0.223,,,,501.0221,501.0224,-0.114814829,-0.405555584,0,0,0,,0,103,103,262,1,,,,
,,,,,,5df8e4b2be7c490096e70ca2,66a626ef09d4e21e1a8894ec,673649bb9efdb56af01cef7f,2024-11-14_13h08.31.669,Tarea de género gramatical,2024.2.2,Win32,59.52380952,,,,,,,,,,,,,,,,,,,,,,501.025,502.6726,l,1,[],[],[],[],[],[],[],0.9673,1,502.6752,503.1718,,,,,,714,MAS,AGR,150,pollo,el,l,0.9673,,,,503.1719,503.1723,-0.114814829,-0.405555584,0,0,0,,0,104,104,263,1,,,,
,,,,,,5df8e4b2be7c490096e70ca2,66a626ef09d4e21e1a8894ec,673649bb9efdb56af01cef7f,2024-11-14_13h08.31.669,Tarea de género gramatical,2024.2.2,Win32,59.52380952,,,,,,,,,,,,,,,,,,,,,,503.1754,504.4717,l,0,[],[],[],[],[],[],[],0.6179,0,504.4745,504.9715,,,,,,597,FEM,AGR,150,grúa,la,a,0.6179,,,,504.9749,504.9766,-0.114814829,-0.405555584,0,0,0,,0,105,105,146,1,,,,
,,,,,,5df8e4b2be7c490096e70ca2,66a626ef09d4e21e1a8894ec,673649bb9efdb56af01cef7f,2024-11-14_13h08.31.669,Tarea de género gramatical,2024.2.2,Win32,59.52380952,,,,,,,,,,,,,,,,,,,,,,504.9783,506.8213,a,1,[],[],[],[],[],[],[],1.1685,1,506.8236,507.3213,,,,,,513,FEM,AGR,150,fila,la,a,1.1685,,,,507.3214,507.3218,-0.114814829,-0.405555584,0,0,0,,0,106,106,62,1,,,,
,,,,,,5df8e4b2be7c490096e70ca2,66a626ef09d4e21e1a8894ec,673649bb9efdb56af01cef7f,2024-11-14_13h08.31.669,Tarea de género gramatical,2024.2.2,Win32,59.52380952,,,,,,,,,,,,,,,,,,,,,,507.3247,508.8095,l,1,[],[],[],[],[],[],[],0.8149,1,508.8097,509.3043,,,,,,564,MAS,AGR,150,menú,el,l,0.8149,,,,509.3045,509.305,-0.114814829,-0.405555584,0,0,0,,0,107,107,113,1,,,,
,,,,,,5df8e4b2be7c490096e70ca2,66a626ef09d4e21e1a8894ec,673649bb9efdb56af01cef7f,2024-11-14_13h08.31.669,Tarea de género gramatical,2024.2.2,Win32,59.52380952,,,,,,,,,,,,,,,,,,,,,,509.3073,510.8039,l,1,[],[],[],[],[],[],[],0.825,1,510.8041,511.304,,,,,,803,MAS,DIS,150,verano,la,l,0.825,,,,511.3041,511.3046,-0.114814829,-0.405555584,0,0,0,,0,108,108,352,1,,,,
,,,,,,5df8e4b2be7c490096e70ca2,66a626ef09d4e21e1a8894ec,673649bb9efdb56af01cef7f,2024-11-14_13h08.31.669,Tarea de género gramatical,2024.2.2,Win32,59.52380952,,,,,,,,,,,,,,,,,,,,,,511.3074,512.4869,l,1,[],[],[],[],[],[],[],0.5082,1,512.4871,512.9874,,,,,,810,MAS,AGR,150,puente,el,l,0.5082,,,,512.9875,512.9878,-0.114814829,-0.405555584,0,0,0,,0,109,109,359,1,,,,
,,,,,,5df8e4b2be7c490096e70ca2,66a626ef09d4e21e1a8894ec,673649bb9efdb56af01cef7f,2024-11-14_13h08.31.669,Tarea de género gramatical,2024.2.2,Win32,59.52380952,,,,,,,,,,,,,,,,,,,,,,512.9905,514.3875,l,0,[],[],[],[],[],[],[],0.7176,0,514.3897,514.8867,,,,,,482,FEM,DIS,150,caja,el,a,0.7176,,,,514.8895,514.8908,-0.114814829,-0.405555584,0,0,0,,0,110,110,31,1,,,,
,,,,,,5df8e4b2be7c490096e70ca2,66a626ef09d4e21e1a8894ec,673649bb9efdb56af01cef7f,2024-11-14_13h08.31.669,Tarea de género gramatical,2024.2.2,Win32,59.52380952,,,,,,,,,,,,,,,,,,,,,,514.8922,516.3204,a,1,[],[],[],[],[],[],[],0.7589,1,516.3227,516.8196,,,,,,698,FEM,DIS,150,letra,el,a,0.7589,,,,516.8197,516.82,-0.114814829,-0.405555584,0,0,0,,0,111,111,247,1,,,,
,,,,,,5df8e4b2be7c490096e70ca2,66a626ef09d4e21e1a8894ec,673649bb9efdb56af01cef7f,2024-11-14_13h08.31.669,Tarea de género gramatical,2024.2.2,Win32,59.52380952,,,,,,,,,,,,,,,,,,,,,,516.822,518.0029,a,1,[],[],[],[],[],[],[],0.5011,1,518.0032,518.5026,,,,,,595,FEM,CON,150,bota,,a,0.5011,,,,518.5028,518.5031,-0.114814829,-0.405555584,0,0,0,,0,112,112,144,1,,,,
,,,,,,5df8e4b2be7c490096e70ca2,66a626ef09d4e21e1a8894ec,673649bb9efdb56af01cef7f,2024-11-14_13h08.31.669,Tarea de género gramatical,2024.2.2,Win32,59.52380952,,,,,,,,,,,,,,,,,,,,,,518.5053,519.6194,a,1,[],[],[],[],[],[],[],0.4351,1,519.6197,520.1213,,,,,,681,FEM,AGR,150,bruja,la,a,0.4351,,,,520.1215,520.1221,-0.114814829,-0.405555584,0,0,0,,0,113,113,230,1,,,,
,,,,,,5df8e4b2be7c490096e70ca2,66a626ef09d4e21e1a8894ec,673649bb9efdb56af01cef7f,2024-11-14_13h08.31.669,Tarea de género gramatical,2024.2.2,Win32,59.52380952,,,,,,,,,,,,,,,,,,,,,,520.125,521.9522,l,1,[],[],[],[],[],[],[],1.1539,1,521.9524,522.4519,,,,,,558,MAS,AGR,150,hilo,el,l,1.1539,,,,522.4547,522.4565,-0.114814829,-0.405555584,0,0,0,,0,114,114,107,1,,,,
,,,,,,5df8e4b2be7c490096e70ca2,66a626ef09d4e21e1a8894ec,673649bb9efdb56af01cef7f,2024-11-14_13h08.31.669,Tarea de género gramatical,2024.2.2,Win32,59.52380952,,,,,,,,,,,,,,,,,,,,,,522.4584,523.6685,a,1,[],[],[],[],[],[],[],0.5377,1,523.6687,524.1685,,,,,,692,FEM,DIS,150,pizza,el,a,0.5377,,,,524.1686,524.169,-0.114814829,-0.405555584,0,0,0,,0,115,115,241,1,,,,
,,,,,,5df8e4b2be7c490096e70ca2,66a626ef09d4e21e1a8894ec,673649bb9efdb56af01cef7f,2024-11-14_13h08.31.669,Tarea de género gramatical,2024.2.2,Win32,59.52380952,,,,,,,,,,,,,,,,,,,,,,524.1713,525.5351,a,1,[],[],[],[],[],[],[],0.6893,1,525.5353,526.0351,,,,,,536,FEM,DIS,150,cruz,el,a,0.6893,,,,526.0353,526.0357,-0.114814829,-0.405555584,0,0,0,,0,116,116,85,1,,,,
,,,,,,5df8e4b2be7c490096e70ca2,66a626ef09d4e21e1a8894ec,673649bb9efdb56af01cef7f,2024-11-14_13h08.31.669,Tarea de género gramatical,2024.2.2,Win32,59.52380952,,,,,,,,,,,,,,,,,,,,,,526.0387,527.8845,a,1,[],[],[],[],[],[],[],1.1723,1,527.8847,528.3846,,,,,,589,FEM,CON,150,pipa,,a,1.1723,,,,528.3847,528.385,-0.114814829,-0.405555584,0,0,0,,0,117,117,138,1,,,,
,,,,,,5df8e4b2be7c490096e70ca2,66a626ef09d4e21e1a8894ec,673649bb9efdb56af01cef7f,2024-11-14_13h08.31.669,Tarea de género gramatical,2024.2.2,Win32,59.52380952,,,,,,,,,,,,,,,,,,,,,,528.3887,529.5843,a,1,[],[],[],[],[],[],[],0.5226,1,529.5845,530.0842,,,,,,537,FEM,AGR,150,risa,la,a,0.5226,,,,530.0843,530.0847,-0.114814829,-0.405555584,0,0,0,,0,118,118,86,1,,,,
,,,,,,5df8e4b2be7c490096e70ca2,66a626ef09d4e21e1a8894ec,673649bb9efdb56af01cef7f,2024-11-14_13h08.31.669,Tarea de género gramatical,2024.2.2,Win32,59.52380952,,,,,,,,,,,,,,,,,,,,,,530.0881,531.1676,a,0,[],[],[],[],[],[],[],0.4015,0,531.1701,531.6678,,,,,,545,MAS,DIS,150,tomo,la,l,0.4015,,,,531.6727,531.6746,-0.114814829,-0.405555584,0,0,0,,0,119,119,94,1,,,,
,,,,,,5df8e4b2be7c490096e70ca2,66a626ef09d4e21e1a8894ec,673649bb9efdb56af01cef7f,2024-11-14_13h08.31.669,Tarea de género gramatical,2024.2.2,Win32,59.52380952,,,,,,,,,,,,,,,,,,,,,,531.6764,533.3506,l,1,[],[],[],[],[],[],[],1.0048,1,533.3522,533.8502,,,,,,504,MAS,AGR,150,humo,el,l,1.0048,,,,533.8504,533.8507,-0.114814829,-0.405555584,0,0,0,,0,120,120,53,1,,,,
,,,,,,5df8e4b2be7c490096e70ca2,66a626ef09d4e21e1a8894ec,673649bb9efdb56af01cef7f,2024-11-14_13h08.31.669,Tarea de género gramatical,2024.2.2,Win32,59.52380952,,,,,,,,,,,,,,,,,,,,,,533.8531,535.1168,a,1,[],[],[],[],[],[],[],0.5844,1,535.1169,535.6172,,,,,,469,FEM,CON,150,niña,,a,0.5844,,,,535.6174,535.6178,-0.114814829,-0.405555584,0,0,0,,0,121,121,18,1,,,,
,,,,,,5df8e4b2be7c490096e70ca2,66a626ef09d4e21e1a8894ec,673649bb9efdb56af01cef7f,2024-11-14_13h08.31.669,Tarea de género gramatical,2024.2.2,Win32,59.52380952,,,,,,,,,,,,,,,,,,,,,,535.6206,537.0001,l,1,[],[],[],[],[],[],[],0.6987,1,537.0003,537.5008,,,,,,695,MAS,DIS,150,turno,la,l,0.6987,,,,537.5009,537.5014,-0.114814829,-0.405555584,0,0,0,,0,122,122,244,1,,,,
,,,,,,5df8e4b2be7c490096e70ca2,66a626ef09d4e21e1a8894ec,673649bb9efdb56af01cef7f,2024-11-14_13h08.31.669,Tarea de género gramatical,2024.2.2,Win32,59.52380952,,,,,,,,,,,,,,,,,,,,,,537.5038,539.3662,a,1,[],[],[],[],[],[],[],1.1846,1,539.3664,539.8662,,,,,,578,FEM,DIS,150,leña,el,a,1.1846,,,,539.8705,539.8723,-0.114814829,-0.405555584,0,0,0,,0,123,123,127,1,,,,
,,,,,,5df8e4b2be7c490096e70ca2,66a626ef09d4e21e1a8894ec,673649bb9efdb56af01cef7f,2024-11-14_13h08.31.669,Tarea de género gramatical,2024.2.2,Win32,59.52380952,,,,,,,,,,,,,,,,,,,,,,539.8738,541.2327,a,1,[],[],[],[],[],[],[],0.6883,1,541.233,541.7331,,,,,,668,FEM,DIS,150,nieve,el,a,0.6883,,,,541.7333,541.7337,-0.114814829,-0.405555584,0,0,0,,0,124,124,217,1,,,,
,,,,,,5df8e4b2be7c490096e70ca2,66a626ef09d4e21e1a8894ec,673649bb9efdb56af01cef7f,2024-11-14_13h08.31.669,Tarea de género gramatical,2024.2.2,Win32,59.52380952,,,,,,,,,,,,,,,,,,,,,,541.7364,543.2326,a,1,[],[],[],[],[],[],[],0.8187,1,543.233,543.7324,,,,,,896,FEM,DIS,150,bañera,el,a,0.8187,,,,543.7326,543.733,-0.114814829,-0.405555584,0,0,0,,0,125,125,445,1,,,,
,,,,,,5df8e4b2be7c490096e70ca2,66a626ef09d4e21e1a8894ec,673649bb9efdb56af01cef7f,2024-11-14_13h08.31.669,Tarea de género gramatical,2024.2.2,Win32,59.52380952,,,,,,,,,,,,,,,,,,,,,,543.7354,544.8154,a,1,[],[],[],[],[],[],[],0.406,1,544.8156,545.3156,,,,,,645,FEM,AGR,150,pared,la,a,0.406,,,,545.3157,545.3162,-0.114814829,-0.405555584,0,0,0,,0,126,126,194,1,,,,
,,,,,,5df8e4b2be7c490096e70ca2,66a626ef09d4e21e1a8894ec,673649bb9efdb56af01cef7f,2024-11-14_13h08.31.669,Tarea de género gramatical,2024.2.2,Win32,59.52380952,,,,,,,,,,,,,,,,,,,,,,545.3189,546.4818,l,1,[],[],[],[],[],[],[],0.4925,1,546.482,546.9818,,,,,,838,MAS,CON,150,empleo,,l,0.4925,,,,546.9818,546.9821,-0.114814829,-0.405555584,0,0,0,,0,127,127,387,1,,,,
,,,,,,5df8e4b2be7c490096e70ca2,66a626ef09d4e21e1a8894ec,673649bb9efdb56af01cef7f,2024-11-14_13h08.31.669,Tarea de género gramatical,2024.2.2,Win32,59.52380952,,,,,,,,,,,,,,,,,,,,,,546.9846,548.2814,l,1,[],[],[],[],[],[],[],0.6261,1,548.2816,548.7814,,,,,,683,MAS,DIS,150,golpe,la,l,0.6261,,,,548.7848,548.7867,-0.114814829,-0.405555584,0,0,0,,0,128,128,232,1,,,,
,,,,,,5df8e4b2be7c490096e70ca2,66a626ef09d4e21e1a8894ec,673649bb9efdb56af01cef7f,2024-11-14_13h08.31.669,Tarea de género gramatical,2024.2.2,Win32,59.52380952,,,,,,,,,,,,,,,,,,,,,,548.7883,549.9309,a,1,[],[],[],[],[],[],[],0.4666,1,549.9311,550.4309,,,,,,625,FEM,CON,150,señal,,a,0.4666,,,,550.431,550.4312,-0.114814829,-0.405555584,0,0,0,,0,129,129,174,1,,,,
,,,,,,5df8e4b2be7c490096e70ca2,66a626ef09d4e21e1a8894ec,673649bb9efdb56af01cef7f,2024-11-14_13h08.31.669,Tarea de género gramatical,2024.2.2,Win32,59.52380952,,,,,,,,,,,,,,,,,,,,,,550.4334,551.8976,l,1,[],[],[],[],[],[],[],0.7849,1,551.8979,552.3984,,,,,,671,MAS,DIS,150,brazo,la,l,0.7849,,,,552.3985,552.3991,-0.114814829,-0.405555584,0,0,0,,0,130,130,220,1,,,,
,,,,,,5df8e4b2be7c490096e70ca2,66a626ef09d4e21e1a8894ec,673649bb9efdb56af01cef7f,2024-11-14_13h08.31.669,Tarea de género gramatical,2024.2.2,Win32,59.52380952,,,,,,,,,,,,,,,,,,,,,,552.4022,553.531,a,1,[],[],[],[],[],[],[],0.4509,1,553.5312,554.0309,,,,,,721,FEM,CON,150,viuda,,a,0.4509,,,,554.0311,554.0316,-0.114814829,-0.405555584,0,0,0,,0,131,131,270,1,,,,
,,,,,,5df8e4b2be7c490096e70ca2,66a626ef09d4e21e1a8894ec,673649bb9efdb56af01cef7f,2024-11-14_13h08.31.669,Tarea de género gramatical,2024.2.2,Win32,59.52380952,,,,,,,,,,,,,,,,,,,,,,554.0343,555.6376,a,0,[],[],[],[],[],[],[],0.933,0,555.6392,556.1303,,,,,,738,MAS,AGR,150,grado,el,l,0.933,,,,556.1342,556.1361,-0.114814829,-0.405555584,0,0,0,,0,132,132,287,1,,,,
,,,,,,5df8e4b2be7c490096e70ca2,66a626ef09d4e21e1a8894ec,673649bb9efdb56af01cef7f,2024-11-14_13h08.31.669,Tarea de género gramatical,2024.2.2,Win32,59.52380952,,,,,,,,,,,,,,,,,,,,,,556.1379,557.4301,a,0,[],[],[],[],[],[],[],0.6177,0,557.4304,557.9301,,,,,,582,MAS,AGR,150,velo,el,l,0.6177,,,,557.9303,557.9306,-0.114814829,-0.405555584,0,0,0,,0,133,133,131,1,,,,
,,,,,,5df8e4b2be7c490096e70ca2,66a626ef09d4e21e1a8894ec,673649bb9efdb56af01cef7f,2024-11-14_13h08.31.669,Tarea de género gramatical,2024.2.2,Win32,59.52380952,,,,,,,,,,,,,,,,,,,,,,557.9331,559.3132,a,1,[],[],[],[],[],[],[],0.7012,1,559.3151,559.8127,,,,,,709,FEM,CON,150,prima,,a,0.7012,,,,559.8129,559.8131,-0.114814829,-0.405555584,0,0,0,,0,134,134,258,1,,,,
,,,,,,5df8e4b2be7c490096e70ca2,66a626ef09d4e21e1a8894ec,673649bb9efdb56af01cef7f,2024-11-14_13h08.31.669,Tarea de género gramatical,2024.2.2,Win32,59.52380952,,,,,,,,,,,,,,,,,,,,,,559.8145,561.2299,a,1,[],[],[],[],[],[],[],0.7418,1,561.23,561.7296,,,,,,609,FEM,AGR,150,clase,la,a,0.7418,,,,561.7297,561.7301,-0.114814829,-0.405555584,0,0,0,,0,135,135,158,1,,,,
,,,,,,5df8e4b2be7c490096e70ca2,66a626ef09d4e21e1a8894ec,673649bb9efdb56af01cef7f,2024-11-14_13h08.31.669,Tarea de género gramatical,2024.2.2,Win32,59.52380952,,,,,,,,,,,,,,,,,,,,,,561.7324,563.1793,a,1,[],[],[],[],[],[],[],0.7722,1,563.1795,563.6792,,,,,,770,FEM,DIS,150,fiesta,el,a,0.7722,,,,563.6793,563.6796,-0.114814829,-0.405555584,0,0,0,,0,136,136,319,1,,,,
,,,,,,5df8e4b2be7c490096e70ca2,66a626ef09d4e21e1a8894ec,673649bb9efdb56af01cef7f,2024-11-14_13h08.31.669,Tarea de género gramatical,2024.2.2,Win32,59.52380952,,,,,,,,,,,,,,,,,,,,,,563.682,565.1793,l,0,[],[],[],[],[],[],[],0.8255,0,565.1816,565.6788,,,,,,680,FEM,DIS,150,regla,el,a,0.8255,,,,565.6827,565.6845,-0.114814829,-0.405555584,0,0,0,,0,137,137,229,1,,,,
,,,,,,5df8e4b2be7c490096e70ca2,66a626ef09d4e21e1a8894ec,673649bb9efdb56af01cef7f,2024-11-14_13h08.31.669,Tarea de género gramatical,2024.2.2,Win32,59.52380952,,,,,,,,,,,,,,,,,,,,,,565.6861,567.012,a,1,[],[],[],[],[],[],[],0.6512,1,567.0139,567.5119,,,,,,481,FEM,CON,150,edad,,a,0.6512,,,,567.512,567.5123,-0.114814829,-0.405555584,0,0,0,,0,138,138,30,1,,,,
,,,,,,5df8e4b2be7c490096e70ca2,66a626ef09d4e21e1a8894ec,673649bb9efdb56af01cef7f,2024-11-14_13h08.31.669,Tarea de género gramatical,2024.2.2,Win32,59.52380952,,,,,,,,,,,,,,,,,,,,,,567.5152,568.8284,a,1,[],[],[],[],[],[],[],0.6441,1,568.8285,569.3283,,,,,,674,FEM,DIS,150,arena,el,a,0.6441,,,,569.3284,569.3287,-0.114814829,-0.405555584,0,0,0,,0,139,139,223,1,,,,
,,,,,,5df8e4b2be7c490096e70ca2,66a626ef09d4e21e1a8894ec,673649bb9efdb56af01cef7f,2024-11-14_13h08.31.669,Tarea de género gramatical,2024.2.2,Win32,59.52380952,,,,,,,,,,,,,,,,,,,,,,569.3313,570.9448,a,1,[],[],[],[],[],[],[],0.9375,1,570.945,571.4449,,,,,,632,FEM,DIS,150,prisa,el,a,0.9375,,,,571.4451,571.4454,-0.114814829,-0.405555584,0,0,0,,0,140,140,181,1,,,,
,,,,,,5df8e4b2be7c490096e70ca2,66a626ef09d4e21e1a8894ec,673649bb9efdb56af01cef7f,2024-11-14_13h08.31.669,Tarea de género gramatical,2024.2.2,Win32,59.52380952,,,,,,,,,,,,,,,,,,,,,,571.4483,572.9113,l,1,[],[],[],[],[],[],[],0.7851,1,572.9116,573.4111,,,,,,864,MAS,AGR,150,sótano,el,l,0.7851,,,,573.4149,573.4167,-0.114814829,-0.405555584,0,0,0,,0,141,141,413,1,,,,
,,,,,,5df8e4b2be7c490096e70ca2,66a626ef09d4e21e1a8894ec,673649bb9efdb56af01cef7f,2024-11-14_13h08.31.669,Tarea de género gramatical,2024.2.2,Win32,59.52380952,,,,,,,,,,,,,,,,,,,,,,573.4185,574.7277,l,1,[],[],[],[],[],[],[],0.6415,1,574.7279,575.2275,,,,,,844,MAS,CON,150,examen,,l,0.6415,,,,575.2276,575.228,-0.114814829,-0.405555584,0,0,0,,0,142,142,393,1,,,,
,,,,,,5df8e4b2be7c490096e70ca2,66a626ef09d4e21e1a8894ec,673649bb9efdb56af01cef7f,2024-11-14_13h08.31.669,Tarea de género gramatical,2024.2.2,Win32,59.52380952,,,,,,,,,,,,,,,,,,,,,,575.231,576.3109,a,1,[],[],[],[],[],[],[],0.4006,1,576.3111,576.8108,,,,,,675,FEM,AGR,150,pieza,la,a,0.4006,,,,576.8108,576.8112,-0.114814829,-0.405555584,0,0,0,,0,143,143,224,1,,,,
,,,,,,5df8e4b2be7c490096e70ca2,66a626ef09d4e21e1a8894ec,673649bb9efdb56af01cef7f,2024-11-14_13h08.31.669,Tarea de género gramatical,2024.2.2,Win32,59.52380952,,,,,,,,,,,,,,,,,,,,,,576.8137,578.0943,l,1,[],[],[],[],[],[],[],0.6011,1,578.0946,578.5938,,,,,,616,MAS,CON,150,coche,,l,0.6011,,,,578.5942,578.5949,-0.114814829,-0.405555584,0,0,0,,0,144,144,165,1,,,,
,,,,,,5df8e4b2be7c490096e70ca2,66a626ef09d4e21e1a8894ec,673649bb9efdb56af01cef7f,2024-11-14_13h08.31.669,Tarea de género gramatical,2024.2.2,Win32,59.52380952,,,,,,,,,,,,,,,,,,,,,,578.598,579.711,l,1,[],[],[],[],[],[],[],0.4426,1,579.7114,580.2103,,,,,,778,MAS,CON,150,asunto,,l,0.4426,,,,580.2104,580.2108,-0.114814829,-0.405555584,0,0,0,,0,145,145,327,1,,,,
,,,,,,5df8e4b2be7c490096e70ca2,66a626ef09d4e21e1a8894ec,673649bb9efdb56af01cef7f,2024-11-14_13h08.31.669,Tarea de género gramatical,2024.2.2,Win32,59.52380952,,,,,,,,,,,,,,,,,,,,,,580.2137,581.3933,a,1,[],[],[],[],[],[],[],0.501,1,581.3935,581.8931,,,,,,638,FEM,DIS,150,bomba,el,a,0.501,,,,581.8969,581.8988,-0.114814829,-0.405555584,0,0,0,,0,146,146,187,1,,,,
,,,,,,5df8e4b2be7c490096e70ca2,66a626ef09d4e21e1a8894ec,673649bb9efdb56af01cef7f,2024-11-14_13h08.31.669,Tarea de género gramatical,2024.2.2,Win32,59.52380952,,,,,,,,,,,,,,,,,,,,,,581.9005,583.1096,l,1,[],[],[],[],[],[],[],0.5444,1,583.1098,583.6096,,,,,,646,MAS,CON,150,barco,,l,0.5444,,,,583.6098,583.6101,-0.114814829,-0.405555584,0,0,0,,0,147,147,195,1,,,,
,,,,,,5df8e4b2be7c490096e70ca2,66a626ef09d4e21e1a8894ec,673649bb9efdb56af01cef7f,2024-11-14_13h08.31.669,Tarea de género gramatical,2024.2.2,Win32,59.52380952,,,,,,,,,,,,,,,,,,,,,,583.6128,584.9261,a,1,[],[],[],[],[],[],[],0.6393,1,584.9262,585.4259,,,,,,591,FEM,AGR,150,cera,la,a,0.6393,,,,585.426,585.4263,-0.114814829,-0.405555584,0,0,0,,0,148,148,140,1,,,,
,,,,,,5df8e4b2be7c490096e70ca2,66a626ef09d4e21e1a8894ec,673649bb9efdb56af01cef7f,2024-11-14_13h08.31.669,Tarea de género gramatical,2024.2.2,Win32,59.52380952,,,,,,,,,,,,,,,,,,,,,,585.4288,586.6093,a,1,[],[],[],[],[],[],[],0.5043,1,586.6095,587.1093,,,,,,859,FEM,CON,150,moneda,,a,0.5043,,,,587.1097,587.1105,-0.114814829,-0.405555584,0,0,0,,0,149,149,408,1,,,,
,,,,,,5df8e4b2be7c490096e70ca2,66a626ef09d4e21e1a8894ec,673649bb9efdb56af01cef7f,2024-11-14_13h08.31.669,Tarea de género gramatical,2024.2.2,Win32,59.52380952,,,,,,,,,,,,,,,,,,,,,,587.1133,588.3423,a,1,[],[],[],[],[],[],[],0.552,1,588.3426,588.8424,,,,,,650,FEM,DIS,150,silla,el,a,0.552,,,,588.8459,691.244,-0.114814829,-0.405555584,0,0,0,space,0,150,150,199,1,102.333,,,
,,,,,,5df8e4b2be7c490096e70ca2,66a626ef09d4e21e1a8894ec,673649bb9efdb56af01cef7f,2024-11-14_13h08.31.669,Tarea de género gramatical,2024.2.2,Win32,59.52380952,,,,,,,,,,,,,,,,,,,,,,691.2571,692.7803,l,1,[],[],[],[],[],[],[],0.8479,1,692.7806,693.2767,,,,,,600,MAS,AGR,150,mozo,el,l,0.8479,,,,693.2768,693.2775,-0.114814829,-0.405555584,0,0,0,,0,151,151,149,1,,,,
,,,,,,5df8e4b2be7c490096e70ca2,66a626ef09d4e21e1a8894ec,673649bb9efdb56af01cef7f,2024-11-14_13h08.31.669,Tarea de género gramatical,2024.2.2,Win32,59.52380952,,,,,,,,,,,,,,,,,,,,,,693.28,694.4601,l,1,[],[],[],[],[],[],[],0.5103,1,694.4604,694.9597,,,,,,677,MAS,DIS,150,vuelo,la,l,0.5103,,,,694.9599,694.9603,-0.114814829,-0.405555584,0,0,0,,0,152,152,226,1,,,,
,,,,,,5df8e4b2be7c490096e70ca2,66a626ef09d4e21e1a8894ec,673649bb9efdb56af01cef7f,2024-11-14_13h08.31.669,Tarea de género gramatical,2024.2.2,Win32,59.52380952,,,,,,,,,,,,,,,,,,,,,,694.9631,696.1259,a,1,[],[],[],[],[],[],[],0.4876,1,696.126,696.6263,,,,,,829,FEM,CON,150,granja,,a,0.4876,,,,696.6263,696.6267,-0.114814829,-0.405555584,0,0,0,,0,153,153,378,1,,,,
,,,,,,5df8e4b2be7c490096e70ca2,66a626ef09d4e21e1a8894ec,673649bb9efdb56af01cef7f,2024-11-14_13h08.31.669,Tarea de género gramatical,2024.2.2,Win32,59.52380952,,,,,,,,,,,,,,,,,,,,,,696.6298,697.9422,a,1,[],[],[],[],[],[],[],0.6393,1,697.9424,698.4422,,,,,,788,FEM,DIS,150,abuela,el,a,0.6393,,,,698.4422,698.4426,-0.114814829,-0.405555584,0,0,0,,0,154,154,337,1,,,,
,,,,,,5df8e4b2be7c490096e70ca2,66a626ef09d4e21e1a8894ec,673649bb9efdb56af01cef7f,2024-11-14_13h08.31.669,Tarea de género gramatical,2024.2.2,Win32,59.52380952,,,,,,,,,,,,,,,,,,,,,,698.4449,699.5992,l,1,[],[],[],[],[],[],[],0.4828,1,699.5993,700.0921,,,,,,508,MAS,CON,150,mono,,l,0.4828,,,,700.0963,700.0982,-0.114814829,-0.405555584,0,0,0,,0,155,155,57,1,,,,
,,,,,,5df8e4b2be7c490096e70ca2,66a626ef09d4e21e1a8894ec,673649bb9efdb56af01cef7f,2024-11-14_13h08.31.669,Tarea de género gramatical,2024.2.2,Win32,59.52380952,,,,,,,,,,,,,,,,,,,,,,700.0999,701.192,l,1,[],[],[],[],[],[],[],0.4257,1,701.1923,701.6975,,,,,,798,MAS,AGR,150,anillo,el,l,0.4257,,,,701.6975,701.6979,-0.114814829,-0.405555584,0,0,0,,0,156,156,347,1,,,,
,,,,,,5df8e4b2be7c490096e70ca2,66a626ef09d4e21e1a8894ec,673649bb9efdb56af01cef7f,2024-11-14_13h08.31.669,Tarea de género gramatical,2024.2.2,Win32,59.52380952,,,,,,,,,,,,,,,,,,,,,,701.7,702.7592,l,1,[],[],[],[],[],[],[],0.3932,1,702.7597,703.2582,,,,,,815,MAS,DIS,150,código,la,l,0.3932,,,,703.2584,703.2587,-0.114814829,-0.405555584,0,0,0,,0,157,157,364,1,,,,
,,,,,,5df8e4b2be7c490096e70ca2,66a626ef09d4e21e1a8894ec,673649bb9efdb56af01cef7f,2024-11-14_13h08.31.669,Tarea de género gramatical,2024.2.2,Win32,59.52380952,,,,,,,,,,,,,,,,,,,,,,703.2615,704.2913,a,1,[],[],[],[],[],[],[],0.3547,1,704.2914,704.7914,,,,,,451,FEM,CON,150,casa,,a,0.3547,,,,704.7916,704.7921,-0.114814829,-0.405555584,0,0,0,,0,158,158,0,1,,,,
,,,,,,5df8e4b2be7c490096e70ca2,66a626ef09d4e21e1a8894ec,673649bb9efdb56af01cef7f,2024-11-14_13h08.31.669,Tarea de género gramatical,2024.2.2,Win32,59.52380952,,,,,,,,,,,,,,,,,,,,,,704.7948,706.4574,a,0,[],[],[],[],[],[],[],0.9917,0,706.4587,706.9574,,,,,,473,MAS,DIS,150,rato,la,l,0.9917,,,,706.9607,706.9625,-0.114814829,-0.405555584,0,0,0,,0,159,159,22,1,,,,
,,,,,,5df8e4b2be7c490096e70ca2,66a626ef09d4e21e1a8894ec,673649bb9efdb56af01cef7f,2024-11-14_13h08.31.669,Tarea de género gramatical,2024.2.2,Win32,59.52380952,,,,,,,,,,,,,,,,,,,,,,706.964,708.1909,l,1,[],[],[],[],[],[],[],0.5559,1,708.1934,708.691,,,,,,756,MAS,AGR,150,dinero,el,l,0.5559,,,,708.6911,708.6915,-0.114814829,-0.405555584,0,0,0,,0,160,160,305,1,,,,
,,,,,,5df8e4b2be7c490096e70ca2,66a626ef09d4e21e1a8894ec,673649bb9efdb56af01cef7f,2024-11-14_13h08.31.669,Tarea de género gramatical,2024.2.2,Win32,59.52380952,,,,,,,,,,,,,,,,,,,,,,708.6939,709.7905,l,1,[],[],[],[],[],[],[],0.4217,1,709.7908,710.2909,,,,,,748,MAS,CON,150,botón,,l,0.4217,,,,710.2911,710.2917,-0.114814829,-0.405555584,0,0,0,,0,161,161,297,1,,,,
,,,,,,5df8e4b2be7c490096e70ca2,66a626ef09d4e21e1a8894ec,673649bb9efdb56af01cef7f,2024-11-14_13h08.31.669,Tarea de género gramatical,2024.2.2,Win32,59.52380952,,,,,,,,,,,,,,,,,,,,,,710.294,711.8069,l,1,[],[],[],[],[],[],[],0.8399,1,711.8072,712.3067,,,,,,629,MAS,DIS,150,viaje,la,l,0.8399,,,,712.307,712.3076,-0.114814829,-0.405555584,0,0,0,,0,162,162,178,1,,,,
,,,,,,5df8e4b2be7c490096e70ca2,66a626ef09d4e21e1a8894ec,673649bb9efdb56af01cef7f,2024-11-14_13h08.31.669,Tarea de género gramatical,2024.2.2,Win32,59.52380952,,,,,,,,,,,,,,,,,,,,,,712.3111,713.5732,l,1,[],[],[],[],[],[],[],0.5904,1,713.5735,714.0732,,,,,,581,MAS,DIS,150,kilo,la,l,0.5904,,,,714.0733,714.0737,-0.114814829,-0.405555584,0,0,0,,0,163,163,130,1,,,,
,,,,,,5df8e4b2be7c490096e70ca2,66a626ef09d4e21e1a8894ec,673649bb9efdb56af01cef7f,2024-11-14_13h08.31.669,Tarea de género gramatical,2024.2.2,Win32,59.52380952,,,,,,,,,,,,,,,,,,,,,,714.0762,715.1736,l,1,[],[],[],[],[],[],[],0.4219,1,715.1737,715.6728,,,,,,580,MAS,CON,150,yate,,l,0.4219,,,,715.6759,715.6773,-0.114814829,-0.405555584,0,0,0,,0,164,164,129,1,,,,
,,,,,,5df8e4b2be7c490096e70ca2,66a626ef09d4e21e1a8894ec,673649bb9efdb56af01cef7f,2024-11-14_13h08.31.669,Tarea de género gramatical,2024.2.2,Win32,59.52380952,,,,,,,,,,,,,,,,,,,,,,715.6786,716.8566,l,1,[],[],[],[],[],[],[],0.5012,1,716.8568,717.3566,,,,,,712,MAS,CON,150,video,,l,0.5012,,,,717.3568,717.357,-0.114814829,-0.405555584,0,0,0,,0,165,165,261,1,,,,
,,,,,,5df8e4b2be7c490096e70ca2,66a626ef09d4e21e1a8894ec,673649bb9efdb56af01cef7f,2024-11-14_13h08.31.669,Tarea de género gramatical,2024.2.2,Win32,59.52380952,,,,,,,,,,,,,,,,,,,,,,717.3599,718.4564,l,1,[],[],[],[],[],[],[],0.4204,1,718.4566,718.9563,,,,,,636,MAS,AGR,150,error,el,l,0.4204,,,,718.9564,718.9566,-0.114814829,-0.405555584,0,0,0,,0,166,166,185,1,,,,
,,,,,,5df8e4b2be7c490096e70ca2,66a626ef09d4e21e1a8894ec,673649bb9efdb56af01cef7f,2024-11-14_13h08.31.669,Tarea de género gramatical,2024.2.2,Win32,59.52380952,,,,,,,,,,,,,,,,,,,,,,718.9591,720.1062,l,1,[],[],[],[],[],[],[],0.4681,1,720.1063,720.6058,,,,,,676,MAS,CON,150,color,,l,0.4681,,,,720.6058,720.6061,-0.114814829,-0.405555584,0,0,0,,0,167,167,225,1,,,,
,,,,,,5df8e4b2be7c490096e70ca2,66a626ef09d4e21e1a8894ec,673649bb9efdb56af01cef7f,2024-11-14_13h08.31.669,Tarea de género gramatical,2024.2.2,Win32,59.52380952,,,,,,,,,,,,,,,,,,,,,,720.6086,721.739,l,1,[],[],[],[],[],[],[],0.4526,1,721.7393,722.2391,,,,,,796,MAS,CON,150,juicio,,l,0.4526,,,,722.2424,722.2441,-0.114814829,-0.405555584,0,0,0,,0,168,168,345,1,,,,
,,,,,,5df8e4b2be7c490096e70ca2,66a626ef09d4e21e1a8894ec,673649bb9efdb56af01cef7f,2024-11-14_13h08.31.669,Tarea de género gramatical,2024.2.2,Win32,59.52380952,,,,,,,,,,,,,,,,,,,,,,722.2458,723.3222,a,1,[],[],[],[],[],[],[],0.4012,1,723.3225,723.8218,,,,,,573,FEM,AGR,150,tela,la,a,0.4012,,,,723.822,723.8227,-0.114814829,-0.405555584,0,0,0,,0,169,169,122,1,,,,
,,,,,,5df8e4b2be7c490096e70ca2,66a626ef09d4e21e1a8894ec,673649bb9efdb56af01cef7f,2024-11-14_13h08.31.669,Tarea de género gramatical,2024.2.2,Win32,59.52380952,,,,,,,,,,,,,,,,,,,,,,723.8252,724.9217,l,1,[],[],[],[],[],[],[],0.4239,1,724.922,725.4241,,,,,,724,MAS,CON,150,motor,,l,0.4239,,,,725.4241,725.4245,-0.114814829,-0.405555584,0,0,0,,0,170,170,273,1,,,,
,,,,,,5df8e4b2be7c490096e70ca2,66a626ef09d4e21e1a8894ec,673649bb9efdb56af01cef7f,2024-11-14_13h08.31.669,Tarea de género gramatical,2024.2.2,Win32,59.52380952,,,,,,,,,,,,,,,,,,,,,,725.4272,726.8378,l,1,[],[],[],[],[],[],[],0.743,1,726.838,727.3378,,,,,,887,MAS,DIS,150,hombro,la,l,0.743,,,,727.3379,727.3383,-0.114814829,-0.405555584,0,0,0,,0,171,171,436,1,,,,
,,,,,,5df8e4b2be7c490096e70ca2,66a626ef09d4e21e1a8894ec,673649bb9efdb56af01cef7f,2024-11-14_13h08.31.669,Tarea de género gramatical,2024.2.2,Win32,59.52380952,,,,,,,,,,,,,,,,,,,,,,727.341,728.5209,a,1,[],[],[],[],[],[],[],0.5015,1,728.5211,729.0209,,,,,,740,FEM,DIS,150,cabra,el,a,0.5015,,,,729.0209,729.0213,-0.114814829,-0.405555584,0,0,0,,0,172,172,289,1,,,,
,,,,,,5df8e4b2be7c490096e70ca2,66a626ef09d4e21e1a8894ec,673649bb9efdb56af01cef7f,2024-11-14_13h08.31.669,Tarea de género gramatical,2024.2.2,Win32,59.52380952,,,,,,,,,,,,,,,,,,,,,,729.0239,730.1713,a,1,[],[],[],[],[],[],[],0.4711,1,730.1718,730.6708,,,,,,548,FEM,DIS,150,fuga,el,a,0.4711,,,,730.6746,730.6763,-0.114814829,-0.405555584,0,0,0,,0,173,173,97,1,,,,
,,,,,,5df8e4b2be7c490096e70ca2,66a626ef09d4e21e1a8894ec,673649bb9efdb56af01cef7f,2024-11-14_13h08.31.669,Tarea de género gramatical,2024.2.2,Win32,59.52380952,,,,,,,,,,,,,,,,,,,,,,730.678,731.7871,a,1,[],[],[],[],[],[],[],0.4357,1,731.7873,732.2871,,,,,,807,FEM,AGR,150,lengua,la,a,0.4357,,,,732.2871,732.2876,-0.114814829,-0.405555584,0,0,0,,0,174,174,356,1,,,,
,,,,,,5df8e4b2be7c490096e70ca2,66a626ef09d4e21e1a8894ec,673649bb9efdb56af01cef7f,2024-11-14_13h08.31.669,Tarea de género gramatical,2024.2.2,Win32,59.52380952,,,,,,,,,,,,,,,,,,,,,,732.29,733.4054,a,1,[],[],[],[],[],[],[],0.4425,1,733.4056,733.9034,,,,,,799,FEM,CON,150,prensa,,a,0.4425,,,,733.9035,733.9041,-0.114814829,-0.405555584,0,0,0,,0,175,175,348,1,,,,
,,,,,,5df8e4b2be7c490096e70ca2,66a626ef09d4e21e1a8894ec,673649bb9efdb56af01cef7f,2024-11-14_13h08.31.669,Tarea de género gramatical,2024.2.2,Win32,59.52380952,,,,,,,,,,,,,,,,,,,,,,733.9074,735.0197,l,1,[],[],[],[],[],[],[],0.4425,1,735.0198,735.5196,,,,,,762,MAS,AGR,150,equipo,el,l,0.4425,,,,735.5197,735.5199,-0.114814829,-0.405555584,0,0,0,,0,176,176,311,1,,,,
,,,,,,5df8e4b2be7c490096e70ca2,66a626ef09d4e21e1a8894ec,673649bb9efdb56af01cef7f,2024-11-14_13h08.31.669,Tarea de género gramatical,2024.2.2,Win32,59.52380952,,,,,,,,,,,,,,,,,,,,,,735.5217,736.5861,a,1,[],[],[],[],[],[],[],0.3825,1,736.5863,737.0867,,,,,,805,FEM,CON,150,mirada,,a,0.3825,,,,737.0906,737.0923,-0.114814829,-0.405555584,0,0,0,,0,177,177,354,1,,,,
,,,,,,5df8e4b2be7c490096e70ca2,66a626ef09d4e21e1a8894ec,673649bb9efdb56af01cef7f,2024-11-14_13h08.31.669,Tarea de género gramatical,2024.2.2,Win32,59.52380952,,,,,,,,,,,,,,,,,,,,,,737.094,738.103,a,1,[],[],[],[],[],[],[],0.3417,1,738.1032,738.6028,,,,,,620,FEM,DIS,150,carta,el,a,0.3417,,,,738.6028,738.6034,-0.114814829,-0.405555584,0,0,0,,0,178,178,169,1,,,,
,,,,,,5df8e4b2be7c490096e70ca2,66a626ef09d4e21e1a8894ec,673649bb9efdb56af01cef7f,2024-11-14_13h08.31.669,Tarea de género gramatical,2024.2.2,Win32,59.52380952,,,,,,,,,,,,,,,,,,,,,,738.606,739.7689,l,1,[],[],[],[],[],[],[],0.4882,1,739.769,740.2691,,,,,,702,MAS,AGR,150,viejo,el,l,0.4882,,,,740.2692,740.2695,-0.114814829,-0.405555584,0,0,0,,0,179,179,251,1,,,,
,,,,,,5df8e4b2be7c490096e70ca2,66a626ef09d4e21e1a8894ec,673649bb9efdb56af01cef7f,2024-11-14_13h08.31.669,Tarea de género gramatical,2024.2.2,Win32,59.52380952,,,,,,,,,,,,,,,,,,,,,,740.2719,741.3696,a,1,[],[],[],[],[],[],[],0.4282,1,741.3697,741.8684,,,,,,777,FEM,AGR,150,tienda,la,a,0.4282,,,,741.8685,741.8687,-0.114814829,-0.405555584,0,0,0,,0,180,180,326,1,,,,
,,,,,,5df8e4b2be7c490096e70ca2,66a626ef09d4e21e1a8894ec,673649bb9efdb56af01cef7f,2024-11-14_13h08.31.669,Tarea de género gramatical,2024.2.2,Win32,59.52380952,,,,,,,,,,,,,,,,,,,,,,741.8699,743.0852,a,1,[],[],[],[],[],[],[],0.5372,1,743.0854,743.5853,,,,,,775,FEM,CON,150,tierra,,a,0.5372,,,,743.5854,743.5858,-0.114814829,-0.405555584,0,0,0,,0,181,181,324,1,,,,
,,,,,,5df8e4b2be7c490096e70ca2,66a626ef09d4e21e1a8894ec,673649bb9efdb56af01cef7f,2024-11-14_13h08.31.669,Tarea de género gramatical,2024.2.2,Win32,59.52380952,,,,,,,,,,,,,,,,,,,,,,743.588,744.8348,a,1,[],[],[],[],[],[],[],0.5704,1,744.8349,745.3352,,,,,,733,FEM,CON,150,pluma,,a,0.5704,,,,745.3391,745.3414,-0.114814829,-0.405555584,0,0,0,,0,182,182,282,1,,,,
,,,,,,5df8e4b2be7c490096e70ca2,66a626ef09d4e21e1a8894ec,673649bb9efdb56af01cef7f,2024-11-14_13h08.31.669,Tarea de género gramatical,2024.2.2,Win32,59.52380952,,,,,,,,,,,,,,,,,,,,,,745.343,746.4853,a,1,[],[],[],[],[],[],[],0.4775,1,746.4855,746.9846,,,,,,759,FEM,AGR,150,esposa,la,a,0.4775,,,,746.9847,746.9848,-0.114814829,-0.405555584,0,0,0,,0,183,183,308,1,,,,
,,,,,,5df8e4b2be7c490096e70ca2,66a626ef09d4e21e1a8894ec,673649bb9efdb56af01cef7f,2024-11-14_13h08.31.669,Tarea de género gramatical,2024.2.2,Win32,59.52380952,,,,,,,,,,,,,,,,,,,,,,746.9867,748.0518,a,1,[],[],[],[],[],[],[],0.3917,1,748.052,748.5508,,,,,,607,FEM,CON,150,madre,,a,0.3917,,,,748.5508,748.551,-0.114814829,-0.405555584,0,0,0,,0,184,184,156,1,,,,
,,,,,,5df8e4b2be7c490096e70ca2,66a626ef09d4e21e1a8894ec,673649bb9efdb56af01cef7f,2024-11-14_13h08.31.669,Tarea de género gramatical,2024.2.2,Win32,59.52380952,,,,,,,,,,,,,,,,,,,,,,748.5524,749.7676,a,0,[],[],[],[],[],[],[],0.5377,0,749.7695,750.2682,,,,,,774,MAS,AGR,150,cuarto,el,l,0.5377,,,,750.2683,750.2687,-0.114814829,-0.405555584,0,0,0,,0,185,185,323,1,,,,
,,,,,,5df8e4b2be7c490096e70ca2,66a626ef09d4e21e1a8894ec,673649bb9efdb56af01cef7f,2024-11-14_13h08.31.669,Tarea de género gramatical,2024.2.2,Win32,59.52380952,,,,,,,,,,,,,,,,,,,,,,750.2714,751.5182,l,1,[],[],[],[],[],[],[],0.5685,1,751.5212,752.0177,,,,,,875,MAS,DIS,150,chiste,la,l,0.5685,,,,752.0211,752.0229,-0.114814829,-0.405555584,0,0,0,,0,186,186,424,1,,,,
,,,,,,5df8e4b2be7c490096e70ca2,66a626ef09d4e21e1a8894ec,673649bb9efdb56af01cef7f,2024-11-14_13h08.31.669,Tarea de género gramatical,2024.2.2,Win32,59.52380952,,,,,,,,,,,,,,,,,,,,,,752.0247,753.1363,a,1,[],[],[],[],[],[],[],0.4439,1,753.1364,753.6345,,,,,,789,FEM,AGR,150,salida,la,a,0.4439,,,,753.6346,753.6349,-0.114814829,-0.405555584,0,0,0,,0,187,187,338,1,,,,
,,,,,,5df8e4b2be7c490096e70ca2,66a626ef09d4e21e1a8894ec,673649bb9efdb56af01cef7f,2024-11-14_13h08.31.669,Tarea de género gramatical,2024.2.2,Win32,59.52380952,,,,,,,,,,,,,,,,,,,,,,753.6375,754.7676,a,1,[],[],[],[],[],[],[],0.4564,1,754.7678,755.2672,,,,,,661,FEM,CON,150,salud,,a,0.4564,,,,755.2673,755.2678,-0.114814829,-0.405555584,0,0,0,,0,188,188,210,1,,,,
,,,,,,5df8e4b2be7c490096e70ca2,66a626ef09d4e21e1a8894ec,673649bb9efdb56af01cef7f,2024-11-14_13h08.31.669,Tarea de género gramatical,2024.2.2,Win32,59.52380952,,,,,,,,,,,,,,,,,,,,,,755.2707,756.534,l,1,[],[],[],[],[],[],[],0.584,1,756.5342,757.0339,,,,,,779,MAS,DIS,150,futuro,la,l,0.584,,,,757.034,757.0347,-0.114814829,-0.405555584,0,0,0,,0,189,189,328,1,,,,
,,,,,,5df8e4b2be7c490096e70ca2,66a626ef09d4e21e1a8894ec,673649bb9efdb56af01cef7f,2024-11-14_13h08.31.669,Tarea de género gramatical,2024.2.2,Win32,59.52380952,,,,,,,,,,,,,,,,,,,,,,757.0372,758.8503,l,1,[],[],[],[],[],[],[],1.1374,1,758.8505,759.3503,,,,,,822,MAS,AGR,150,delito,el,l,1.1374,,,,759.3503,759.3506,-0.114814829,-0.405555584,0,0,0,,0,190,190,371,1,,,,
,,,,,,5df8e4b2be7c490096e70ca2,66a626ef09d4e21e1a8894ec,673649bb9efdb56af01cef7f,2024-11-14_13h08.31.669,Tarea de género gramatical,2024.2.2,Win32,59.52380952,,,,,,,,,,,,,,,,,,,,,,759.3534,760.4834,a,1,[],[],[],[],[],[],[],0.4505,1,760.4835,760.9833,,,,,,771,FEM,AGR,150,comida,la,a,0.4505,,,,760.9867,760.9886,-0.114814829,-0.405555584,0,0,0,,0,191,191,320,1,,,,
,,,,,,5df8e4b2be7c490096e70ca2,66a626ef09d4e21e1a8894ec,673649bb9efdb56af01cef7f,2024-11-14_13h08.31.669,Tarea de género gramatical,2024.2.2,Win32,59.52380952,,,,,,,,,,,,,,,,,,,,,,760.9902,762.1231,a,0,[],[],[],[],[],[],[],0.4512,0,762.1245,762.622,,,,,,479,MAS,DIS,150,frío,la,l,0.4512,,,,762.6221,762.6223,-0.114814829,-0.405555584,0,0,0,,0,192,192,28,1,,,,
,,,,,,5df8e4b2be7c490096e70ca2,66a626ef09d4e21e1a8894ec,673649bb9efdb56af01cef7f,2024-11-14_13h08.31.669,Tarea de género gramatical,2024.2.2,Win32,59.52380952,,,,,,,,,,,,,,,,,,,,,,762.6241,763.7063,a,1,[],[],[],[],[],[],[],0.4015,1,763.7075,764.2052,,,,,,825,FEM,AGR,150,cadena,la,a,0.4015,,,,764.2053,764.2057,-0.114814829,-0.405555584,0,0,0,,0,193,193,374,1,,,,
,,,,,,5df8e4b2be7c490096e70ca2,66a626ef09d4e21e1a8894ec,673649bb9efdb56af01cef7f,2024-11-14_13h08.31.669,Tarea de género gramatical,2024.2.2,Win32,59.52380952,,,,,,,,,,,,,,,,,,,,,,764.2075,765.3224,a,1,[],[],[],[],[],[],[],0.4342,1,765.3226,765.8213,,,,,,560,FEM,DIS,150,rosa,el,a,0.4342,,,,765.8215,765.822,-0.114814829,-0.405555584,0,0,0,,0,194,194,109,1,,,,
,,,,,,5df8e4b2be7c490096e70ca2,66a626ef09d4e21e1a8894ec,673649bb9efdb56af01cef7f,2024-11-14_13h08.31.669,Tarea de género gramatical,2024.2.2,Win32,59.52380952,,,,,,,,,,,,,,,,,,,,,,765.8237,766.9723,l,1,[],[],[],[],[],[],[],0.4679,1,766.9725,767.4707,,,,,,720,MAS,AGR,150,queso,el,l,0.4679,,,,767.4722,767.4733,-0.114814829,-0.405555584,0,0,0,,0,195,195,269,1,,,,
,,,,,,5df8e4b2be7c490096e70ca2,66a626ef09d4e21e1a8894ec,673649bb9efdb56af01cef7f,2024-11-14_13h08.31.669,Tarea de género gramatical,2024.2.2,Win32,59.52380952,,,,,,,,,,,,,,,,,,,,,,767.4743,768.7315,a,1,[],[],[],[],[],[],[],0.59,1,768.7317,769.2315,,,,,,757,FEM,CON,150,suerte,,a,0.59,,,,769.2317,769.2322,-0.114814829,-0.405555584,0,0,0,,0,196,196,306,1,,,,
,,,,,,5df8e4b2be7c490096e70ca2,66a626ef09d4e21e1a8894ec,673649bb9efdb56af01cef7f,2024-11-14_13h08.31.669,Tarea de género gramatical,2024.2.2,Win32,59.52380952,,,,,,,,,,,,,,,,,,,,,,769.2345,770.382,l,1,[],[],[],[],[],[],[],0.4752,1,770.3824,770.8813,,,,,,856,MAS,CON,150,premio,,l,0.4752,,,,770.8815,770.882,-0.114814829,-0.405555584,0,0,0,,0,197,197,405,1,,,,
,,,,,,5df8e4b2be7c490096e70ca2,66a626ef09d4e21e1a8894ec,673649bb9efdb56af01cef7f,2024-11-14_13h08.31.669,Tarea de género gramatical,2024.2.2,Win32,59.52380952,,,,,,,,,,,,,,,,,,,,,,770.8847,771.964,a,1,[],[],[],[],[],[],[],0.4038,1,771.9641,772.4642,,,,,,530,FEM,DIS,150,vaca,el,a,0.4038,,,,772.4642,772.4645,-0.114814829,-0.405555584,0,0,0,,0,198,198,79,1,,,,
,,,,,,5df8e4b2be7c490096e70ca2,66a626ef09d4e21e1a8894ec,673649bb9efdb56af01cef7f,2024-11-14_13h08.31.669,Tarea de género gramatical,2024.2.2,Win32,59.52380952,,,,,,,,,,,,,,,,,,,,,,772.4672,773.6974,a,1,[],[],[],[],[],[],[],0.5606,1,773.6976,774.1973,,,,,,500,FEM,DIS,150,dama,el,a,0.5606,,,,774.1974,774.1977,-0.114814829,-0.405555584,0,0,0,,0,199,199,49,1,,,,
,,,,,,5df8e4b2be7c490096e70ca2,66a626ef09d4e21e1a8894ec,673649bb9efdb56af01cef7f,2024-11-14_13h08.31.669,Tarea de género gramatical,2024.2.2,Win32,59.52380952,,,,,,,,,,,,,,,,,,,,,,774.2002,775.7149,a,1,[],[],[],[],[],[],[],0.8374,1,775.7151,776.2136,,,,,,566,FEM,DIS,150,nube,el,a,0.8374,,,,776.2163,776.2176,-0.114814829,-0.405555584,0,0,0,,0,200,200,115,1,,,,
,,,,,,5df8e4b2be7c490096e70ca2,66a626ef09d4e21e1a8894ec,673649bb9efdb56af01cef7f,2024-11-14_13h08.31.669,Tarea de género gramatical,2024.2.2,Win32,59.52380952,,,,,,,,,,,,,,,,,,,,,,776.2189,777.2802,l,1,[],[],[],[],[],[],[],0.3875,1,777.2805,777.7801,,,,,,792,MAS,AGR,150,abuelo,el,l,0.3875,,,,777.7802,777.7805,-0.114814829,-0.405555584,0,0,0,,0,201,201,341,1,,,,
,,,,,,5df8e4b2be7c490096e70ca2,66a626ef09d4e21e1a8894ec,673649bb9efdb56af01cef7f,2024-11-14_13h08.31.669,Tarea de género gramatical,2024.2.2,Win32,59.52380952,,,,,,,,,,,,,,,,,,,,,,777.7837,778.9633,l,1,[],[],[],[],[],[],[],0.5045,1,778.9635,779.4632,,,,,,557,MAS,DIS,150,cubo,la,l,0.5045,,,,779.4633,779.4636,-0.114814829,-0.405555584,0,0,0,,0,202,202,106,1,,,,
,,,,,,5df8e4b2be7c490096e70ca2,66a626ef09d4e21e1a8894ec,673649bb9efdb56af01cef7f,2024-11-14_13h08.31.669,Tarea de género gramatical,2024.2.2,Win32,59.52380952,,,,,,,,,,,,,,,,,,,,,,779.4662,780.6131,l,1,[],[],[],[],[],[],[],0.4714,1,780.6132,781.113,,,,,,587,MAS,DIS,150,coco,la,l,0.4714,,,,781.1131,781.1134,-0.114814829,-0.405555584,0,0,0,,0,203,203,136,1,,,,
,,,,,,5df8e4b2be7c490096e70ca2,66a626ef09d4e21e1a8894ec,673649bb9efdb56af01cef7f,2024-11-14_13h08.31.669,Tarea de género gramatical,2024.2.2,Win32,59.52380952,,,,,,,,,,,,,,,,,,,,,,781.1158,782.1798,a,1,[],[],[],[],[],[],[],0.3934,1,782.18,782.6794,,,,,,806,FEM,DIS,150,piedra,el,a,0.3934,,,,782.6831,782.685,-0.114814829,-0.405555584,0,0,0,,0,204,204,355,1,,,,
,,,,,,5df8e4b2be7c490096e70ca2,66a626ef09d4e21e1a8894ec,673649bb9efdb56af01cef7f,2024-11-14_13h08.31.669,Tarea de género gramatical,2024.2.2,Win32,59.52380952,,,,,,,,,,,,,,,,,,,,,,782.6868,784.1291,l,1,[],[],[],[],[],[],[],0.7726,1,784.1293,784.6292,,,,,,528,MAS,AGR,150,oído,el,l,0.7726,,,,784.6292,784.6296,-0.114814829,-0.405555584,0,0,0,,0,205,205,77,1,,,,
,,,,,,5df8e4b2be7c490096e70ca2,66a626ef09d4e21e1a8894ec,673649bb9efdb56af01cef7f,2024-11-14_13h08.31.669,Tarea de género gramatical,2024.2.2,Win32,59.52380952,,,,,,,,,,,,,,,,,,,,,,784.6318,785.6622,a,1,[],[],[],[],[],[],[],0.3509,1,785.6625,786.1622,,,,,,631,FEM,CON,150,tarde,,a,0.3509,,,,786.1622,786.1626,-0.114814829,-0.405555584,0,0,0,,0,206,206,180,1,,,,
,,,,,,5df8e4b2be7c490096e70ca2,66a626ef09d4e21e1a8894ec,673649bb9efdb56af01cef7f,2024-11-14_13h08.31.669,Tarea de género gramatical,2024.2.2,Win32,59.52380952,,,,,,,,,,,,,,,,,,,,,,786.1654,787.2788,a,1,[],[],[],[],[],[],[],0.4365,1,787.2791,787.768,,,,,,897,FEM,AGR,150,lógica,la,a,0.4365,,,,787.768,787.7684,-0.114814829,-0.405555584,0,0,0,,0,207,207,446,1,,,,
,,,,,,5df8e4b2be7c490096e70ca2,66a626ef09d4e21e1a8894ec,673649bb9efdb56af01cef7f,2024-11-14_13h08.31.669,Tarea de género gramatical,2024.2.2,Win32,59.52380952,,,,,,,,,,,,,,,,,,,,,,787.7708,788.8286,l,1,[],[],[],[],[],[],[],0.3841,1,788.8289,789.3285,,,,,,802,MAS,CON,150,estilo,,l,0.3841,,,,789.3285,789.3294,-0.114814829,-0.405555584,0,0,0,,0,208,208,351,1,,,,
,,,,,,5df8e4b2be7c490096e70ca2,66a626ef09d4e21e1a8894ec,673649bb9efdb56af01cef7f,2024-11-14_13h08.31.669,Tarea de género gramatical,2024.2.2,Win32,59.52380952,,,,,,,,,,,,,,,,,,,,,,789.3314,790.4947,l,1,[],[],[],[],[],[],[],0.4849,1,790.4948,790.9945,,,,,,839,MAS,DIS,150,tamaño,la,l,0.4849,,,,790.997,790.9985,-0.114814829,-0.405555584,0,0,0,,0,209,209,388,1,,,,
,,,,,,5df8e4b2be7c490096e70ca2,66a626ef09d4e21e1a8894ec,673649bb9efdb56af01cef7f,2024-11-14_13h08.31.669,Tarea de género gramatical,2024.2.2,Win32,59.52380952,,,,,,,,,,,,,,,,,,,,,,790.9997,792.0615,a,1,[],[],[],[],[],[],[],0.3884,1,792.0618,792.5615,,,,,,585,FEM,AGR,150,raíz,la,a,0.3884,,,,792.5617,792.5621,-0.114814829,-0.405555584,0,0,0,,0,210,210,134,1,,,,
,,,,,,5df8e4b2be7c490096e70ca2,66a626ef09d4e21e1a8894ec,673649bb9efdb56af01cef7f,2024-11-14_13h08.31.669,Tarea de género gramatical,2024.2.2,Win32,59.52380952,,,,,,,,,,,,,,,,,,,,,,792.5646,793.7111,l,1,[],[],[],[],[],[],[],0.4702,1,793.7113,794.2109,,,,,,461,MAS,DIS,150,país,la,l,0.4702,,,,794.2111,794.2114,-0.114814829,-0.405555584,0,0,0,,0,211,211,10,1,,,,
,,,,,,5df8e4b2be7c490096e70ca2,66a626ef09d4e21e1a8894ec,673649bb9efdb56af01cef7f,2024-11-14_13h08.31.669,Tarea de género gramatical,2024.2.2,Win32,59.52380952,,,,,,,,,,,,,,,,,,,,,,794.2138,795.2944,l,1,[],[],[],[],[],[],[],0.4058,1,795.2947,795.7945,,,,,,612,MAS,AGR,150,miedo,el,l,0.4058,,,,795.7948,795.7952,-0.114814829,-0.405555584,0,0,0,,0,212,212,161,1,,,,
,,,,,,5df8e4b2be7c490096e70ca2,66a626ef09d4e21e1a8894ec,673649bb9efdb56af01cef7f,2024-11-14_13h08.31.669,Tarea de género gramatical,2024.2.2,Win32,59.52380952,,,,,,,,,,,,,,,,,,,,,,795.7979,796.8939,l,1,[],[],[],[],[],[],[],0.42,1,796.8941,797.3944,,,,,,845,MAS,DIS,150,correo,la,l,0.42,,,,797.3994,797.4027,-0.114814829,-0.405555584,0,0,0,,0,213,213,394,1,,,,
,,,,,,5df8e4b2be7c490096e70ca2,66a626ef09d4e21e1a8894ec,673649bb9efdb56af01cef7f,2024-11-14_13h08.31.669,Tarea de género gramatical,2024.2.2,Win32,59.52380952,,,,,,,,,,,,,,,,,,,,,,797.4049,798.5174,l,1,[],[],[],[],[],[],[],0.4497,1,798.5177,799.0104,,,,,,696,MAS,AGR,150,humor,el,l,0.4497,,,,799.0106,799.011,-0.114814829,-0.405555584,0,0,0,,0,214,214,245,1,,,,
,,,,,,5df8e4b2be7c490096e70ca2,66a626ef09d4e21e1a8894ec,673649bb9efdb56af01cef7f,2024-11-14_13h08.31.669,Tarea de género gramatical,2024.2.2,Win32,59.52380952,,,,,,,,,,,,,,,,,,,,,,799.0136,800.2435,l,1,[],[],[],[],[],[],[],0.5519,1,800.2437,800.7432,,,,,,510,MAS,AGR,150,tono,el,l,0.5519,,,,800.7432,800.7436,-0.114814829,-0.405555584,0,0,0,,0,215,215,59,1,,,,
,,,,,,5df8e4b2be7c490096e70ca2,66a626ef09d4e21e1a8894ec,673649bb9efdb56af01cef7f,2024-11-14_13h08.31.669,Tarea de género gramatical,2024.2.2,Win32,59.52380952,,,,,,,,,,,,,,,,,,,,,,800.7455,801.9775,l,1,[],[],[],[],[],[],[],0.5568,1,801.9779,802.4765,,,,,,894,MAS,AGR,150,límite,el,l,0.5568,,,,802.4766,802.4771,-0.114814829,-0.405555584,0,0,0,,0,216,216,443,1,,,,
,,,,,,5df8e4b2be7c490096e70ca2,66a626ef09d4e21e1a8894ec,673649bb9efdb56af01cef7f,2024-11-14_13h08.31.669,Tarea de género gramatical,2024.2.2,Win32,59.52380952,,,,,,,,,,,,,,,,,,,,,,802.4798,803.493,l,1,[],[],[],[],[],[],[],0.3341,1,803.4931,803.9932,,,,,,882,MAS,AGR,150,océano,el,l,0.3341,,,,803.9933,803.9936,-0.114814829,-0.405555584,0,0,0,,0,217,217,431,1,,,,
,,,,,,5df8e4b2be7c490096e70ca2,66a626ef09d4e21e1a8894ec,673649bb9efdb56af01cef7f,2024-11-14_13h08.31.669,Tarea de género gramatical,2024.2.2,Win32,59.52380952,,,,,,,,,,,,,,,,,,,,,,803.9967,804.9593,l,1,[],[],[],[],[],[],[],0.2877,1,804.9596,805.459,,,,,,546,MAS,AGR,150,pato,el,l,0.2877,,,,805.4619,805.4634,-0.114814829,-0.405555584,0,0,0,,0,218,218,95,1,,,,
,,,,,,5df8e4b2be7c490096e70ca2,66a626ef09d4e21e1a8894ec,673649bb9efdb56af01cef7f,2024-11-14_13h08.31.669,Tarea de género gramatical,2024.2.2,Win32,59.52380952,,,,,,,,,,,,,,,,,,,,,,805.4649,806.4423,l,0,[],[],[],[],[],[],[],0.3001,0,806.4437,806.9423,,,,,,722,FEM,DIS,150,oreja,el,a,0.3001,,,,806.9425,806.9429,-0.114814829,-0.405555584,0,0,0,,0,219,219,271,1,,,,
,,,,,,5df8e4b2be7c490096e70ca2,66a626ef09d4e21e1a8894ec,673649bb9efdb56af01cef7f,2024-11-14_13h08.31.669,Tarea de género gramatical,2024.2.2,Win32,59.52380952,,,,,,,,,,,,,,,,,,,,,,806.9452,808.5755,a,1,[],[],[],[],[],[],[],0.9525,1,808.5776,809.0754,,,,,,644,FEM,DIS,150,banda,el,a,0.9525,,,,809.0755,809.0758,-0.114814829,-0.405555584,0,0,0,,0,220,220,193,1,,,,
,,,,,,5df8e4b2be7c490096e70ca2,66a626ef09d4e21e1a8894ec,673649bb9efdb56af01cef7f,2024-11-14_13h08.31.669,Tarea de género gramatical,2024.2.2,Win32,59.52380952,,,,,,,,,,,,,,,,,,,,,,809.0782,810.2088,a,1,[],[],[],[],[],[],[],0.4362,1,810.2091,810.7087,,,,,,523,FEM,CON,150,roca,,a,0.4362,,,,810.7088,810.7093,-0.114814829,-0.405555584,0,0,0,,0,221,221,72,1,,,,
,,,,,,5df8e4b2be7c490096e70ca2,66a626ef09d4e21e1a8894ec,673649bb9efdb56af01cef7f,2024-11-14_13h08.31.669,Tarea de género gramatical,2024.2.2,Win32,59.52380952,,,,,,,,,,,,,,,,,,,,,,810.7121,811.9417,l,1,[],[],[],[],[],[],[],0.5515,1,811.9418,812.4415,,,,,,742,MAS,CON,150,piano,,l,0.5515,,,,812.4455,812.4475,-0.114814829,-0.405555584,0,0,0,,0,222,222,291,1,,,,
,,,,,,5df8e4b2be7c490096e70ca2,66a626ef09d4e21e1a8894ec,673649bb9efdb56af01cef7f,2024-11-14_13h08.31.669,Tarea de género gramatical,2024.2.2,Win32,59.52380952,,,,,,,,,,,,,,,,,,,,,,812.4492,813.5583,a,1,[],[],[],[],[],[],[],0.4345,1,813.5585,814.0577,,,,,,627,FEM,AGR,150,broma,la,a,0.4345,,,,814.0577,814.058,-0.114814829,-0.405555584,0,0,0,,0,223,223,176,1,,,,
,,,,,,5df8e4b2be7c490096e70ca2,66a626ef09d4e21e1a8894ec,673649bb9efdb56af01cef7f,2024-11-14_13h08.31.669,Tarea de género gramatical,2024.2.2,Win32,59.52380952,,,,,,,,,,,,,,,,,,,,,,814.0597,815.275,l,1,[],[],[],[],[],[],[],0.5432,1,815.2753,815.7744,,,,,,707,MAS,DIS,150,pecho,la,l,0.5432,,,,815.7745,815.7747,-0.114814829,-0.405555584,0,0,0,,0,224,224,256,1,,,,
,,,,,,5df8e4b2be7c490096e70ca2,66a626ef09d4e21e1a8894ec,673649bb9efdb56af01cef7f,2024-11-14_13h08.31.669,Tarea de género gramatical,2024.2.2,Win32,59.52380952,,,,,,,,,,,,,,,,,,,,,,815.7774,817.0912,a,1,[],[],[],[],[],[],[],0.6344,1,817.0914,817.5914,,,,,,517,FEM,CON,150,miel,,a,0.6344,,,,817.5915,817.5919,-0.114814829,-0.405555584,0,0,0,,0,225,225,66,1,,,,
,,,,,,5df8e4b2be7c490096e70ca2,66a626ef09d4e21e1a8894ec,673649bb9efdb56af01cef7f,2024-11-14_13h08.31.669,Tarea de género gramatical,2024.2.2,Win32,59.52380952,,,,,,,,,,,,,,,,,,,,,,817.5945,818.6908,l,1,[],[],[],[],[],[],[],0.423,1,818.691,819.1916,,,,,,604,MAS,CON,150,padre,,l,0.423,,,,819.1917,819.1924,-0.114814829,-0.405555584,0,0,0,,0,226,226,153,1,,,,
,,,,,,5df8e4b2be7c490096e70ca2,66a626ef09d4e21e1a8894ec,673649bb9efdb56af01cef7f,2024-11-14_13h08.31.669,Tarea de género gramatical,2024.2.2,Win32,59.52380952,,,,,,,,,,,,,,,,,,,,,,819.1946,820.3739,a,1,[],[],[],[],[],[],[],0.5011,1,820.3741,820.8738,,,,,,529,FEM,CON,150,mina,,a,0.5011,,,,820.8774,820.879,-0.114814829,-0.405555584,0,0,0,,0,227,227,78,1,,,,
,,,,,,5df8e4b2be7c490096e70ca2,66a626ef09d4e21e1a8894ec,673649bb9efdb56af01cef7f,2024-11-14_13h08.31.669,Tarea de género gramatical,2024.2.2,Win32,59.52380952,,,,,,,,,,,,,,,,,,,,,,820.8807,821.9906,a,1,[],[],[],[],[],[],[],0.4418,1,821.9908,822.4906,,,,,,710,FEM,DIS,150,barra,el,a,0.4418,,,,822.4907,822.491,-0.114814829,-0.405555584,0,0,0,,0,228,228,259,1,,,,
,,,,,,5df8e4b2be7c490096e70ca2,66a626ef09d4e21e1a8894ec,673649bb9efdb56af01cef7f,2024-11-14_13h08.31.669,Tarea de género gramatical,2024.2.2,Win32,59.52380952,,,,,,,,,,,,,,,,,,,,,,822.4939,823.5571,l,1,[],[],[],[],[],[],[],0.3848,1,823.5572,824.0566,,,,,,665,MAS,DIS,150,hueso,la,l,0.3848,,,,824.0567,824.0569,-0.114814829,-0.405555584,0,0,0,,0,229,229,214,1,,,,
,,,,,,5df8e4b2be7c490096e70ca2,66a626ef09d4e21e1a8894ec,673649bb9efdb56af01cef7f,2024-11-14_13h08.31.669,Tarea de género gramatical,2024.2.2,Win32,59.52380952,,,,,,,,,,,,,,,,,,,,,,824.0595,825.7738,l,1,[],[],[],[],[],[],[],1.0344,1,825.774,826.2734,,,,,,749,MAS,DIS,150,rumbo,la,l,1.0344,,,,826.2735,826.2738,-0.114814829,-0.405555584,0,0,0,,0,230,230,298,1,,,,
,,,,,,5df8e4b2be7c490096e70ca2,66a626ef09d4e21e1a8894ec,673649bb9efdb56af01cef7f,2024-11-14_13h08.31.669,Tarea de género gramatical,2024.2.2,Win32,59.52380952,,,,,,,,,,,,,,,,,,,,,,826.2763,827.3732,a,1,[],[],[],[],[],[],[],0.4199,1,827.3734,827.8733,,,,,,499,FEM,CON,150,piel,,a,0.4199,,,,827.8775,827.8792,-0.114814829,-0.405555584,0,0,0,,0,231,231,48,1,,,,
,,,,,,5df8e4b2be7c490096e70ca2,66a626ef09d4e21e1a8894ec,673649bb9efdb56af01cef7f,2024-11-14_13h08.31.669,Tarea de género gramatical,2024.2.2,Win32,59.52380952,,,,,,,,,,,,,,,,,,,,,,827.881,829.2058,a,1,[],[],[],[],[],[],[],0.6392,1,829.206,829.7057,,,,,,633,FEM,AGR,150,llave,la,a,0.6392,,,,829.7059,829.7063,-0.114814829,-0.405555584,0,0,0,,0,232,232,182,1,,,,
,,,,,,5df8e4b2be7c490096e70ca2,66a626ef09d4e21e1a8894ec,673649bb9efdb56af01cef7f,2024-11-14_13h08.31.669,Tarea de género gramatical,2024.2.2,Win32,59.52380952,,,,,,,,,,,,,,,,,,,,,,829.7093,830.9557,l,1,[],[],[],[],[],[],[],0.5686,1,830.9561,831.4555,,,,,,515,MAS,DIS,150,rayo,la,l,0.5686,,,,831.4556,831.4561,-0.114814829,-0.405555584,0,0,0,,0,233,233,64,1,,,,
,,,,,,5df8e4b2be7c490096e70ca2,66a626ef09d4e21e1a8894ec,673649bb9efdb56af01cef7f,2024-11-14_13h08.31.669,Tarea de género gramatical,2024.2.2,Win32,59.52380952,,,,,,,,,,,,,,,,,,,,,,831.4587,832.672,l,1,[],[],[],[],[],[],[],0.5397,1,832.6723,833.1718,,,,,,497,MAS,DIS,150,olor,la,l,0.5397,,,,833.1719,833.1723,-0.114814829,-0.405555584,0,0,0,,0,234,234,46,1,,,,
,,,,,,5df8e4b2be7c490096e70ca2,66a626ef09d4e21e1a8894ec,673649bb9efdb56af01cef7f,2024-11-14_13h08.31.669,Tarea de género gramatical,2024.2.2,Win32,59.52380952,,,,,,,,,,,,,,,,,,,,,,833.1751,834.2396,a,1,[],[],[],[],[],[],[],0.3946,1,834.24,834.7386,,,,,,559,FEM,CON,150,gota,,a,0.3946,,,,834.7387,834.7392,-0.114814829,-0.405555584,0,0,0,,0,235,235,108,1,,,,
,,,,,,5df8e4b2be7c490096e70ca2,66a626ef09d4e21e1a8894ec,673649bb9efdb56af01cef7f,2024-11-14_13h08.31.669,Tarea de género gramatical,2024.2.2,Win32,59.52380952,,,,,,,,,,,,,,,,,,,,,,834.7428,835.9049,a,1,[],[],[],[],[],[],[],0.4835,1,835.9051,836.4053,,,,,,477,FEM,AGR,150,mesa,la,a,0.4835,,,,836.4103,836.4122,-0.114814829,-0.405555584,0,0,0,,0,236,236,26,1,,,,
,,,,,,5df8e4b2be7c490096e70ca2,66a626ef09d4e21e1a8894ec,673649bb9efdb56af01cef7f,2024-11-14_13h08.31.669,Tarea de género gramatical,2024.2.2,Win32,59.52380952,,,,,,,,,,,,,,,,,,,,,,836.4139,837.4552,l,1,[],[],[],[],[],[],[],0.3673,1,837.4555,837.9545,,,,,,480,MAS,AGR,150,cine,el,l,0.3673,,,,837.9547,837.9551,-0.114814829,-0.405555584,0,0,0,,0,237,237,29,1,,,,
,,,,,,5df8e4b2be7c490096e70ca2,66a626ef09d4e21e1a8894ec,673649bb9efdb56af01cef7f,2024-11-14_13h08.31.669,Tarea de género gramatical,2024.2.2,Win32,59.52380952,,,,,,,,,,,,,,,,,,,,,,837.9577,839.1377,a,1,[],[],[],[],[],[],[],0.5018,1,839.1379,839.6402,,,,,,848,FEM,DIS,150,hierba,el,a,0.5018,,,,839.6403,839.6406,-0.114814829,-0.405555584,0,0,0,,0,238,238,397,1,,,,
,,,,,,5df8e4b2be7c490096e70ca2,66a626ef09d4e21e1a8894ec,673649bb9efdb56af01cef7f,2024-11-14_13h08.31.669,Tarea de género gramatical,2024.2.2,Win32,59.52380952,,,,,,,,,,,,,,,,,,,,,,839.643,840.7543,l,1,[],[],[],[],[],[],[],0.4461,1,840.7546,841.254,,,,,,834,MAS,AGR,150,pedazo,el,l,0.4461,,,,841.2543,841.2548,-0.114814829,-0.405555584,0,0,0,,0,239,239,383,1,,,,
,,,,,,5df8e4b2be7c490096e70ca2,66a626ef09d4e21e1a8894ec,673649bb9efdb56af01cef7f,2024-11-14_13h08.31.669,Tarea de género gramatical,2024.2.2,Win32,59.52380952,,,,,,,,,,,,,,,,,,,,,,841.2574,842.3373,a,1,[],[],[],[],[],[],[],0.4015,1,842.3377,842.8365,,,,,,505,FEM,CON,150,taza,,a,0.4015,,,,842.8385,842.8401,-0.114814829,-0.405555584,0,0,0,,0,240,240,54,1,,,,
,,,,,,5df8e4b2be7c490096e70ca2,66a626ef09d4e21e1a8894ec,673649bb9efdb56af01cef7f,2024-11-14_13h08.31.669,Tarea de género gramatical,2024.2.2,Win32,59.52380952,,,,,,,,,,,,,,,,,,,,,,842.8409,843.891,a,1,[],[],[],[],[],[],[],0.3795,1,843.8912,844.3872,,,,,,811,FEM,CON,150,oferta,,a,0.3795,,,,844.3874,844.3878,-0.114814829,-0.405555584,0,0,0,,0,241,241,360,1,,,,
,,,,,,5df8e4b2be7c490096e70ca2,66a626ef09d4e21e1a8894ec,673649bb9efdb56af01cef7f,2024-11-14_13h08.31.669,Tarea de género gramatical,2024.2.2,Win32,59.52380952,,,,,,,,,,,,,,,,,,,,,,844.3904,845.503,a,1,[],[],[],[],[],[],[],0.4329,1,845.5032,846.0034,,,,,,878,FEM,DIS,150,jugada,el,a,0.4329,,,,846.0035,846.0039,-0.114814829,-0.405555584,0,0,0,,0,242,242,427,1,,,,
,,,,,,5df8e4b2be7c490096e70ca2,66a626ef09d4e21e1a8894ec,673649bb9efdb56af01cef7f,2024-11-14_13h08.31.669,Tarea de género gramatical,2024.2.2,Win32,59.52380952,,,,,,,,,,,,,,,,,,,,,,846.0067,847.5032,l,1,[],[],[],[],[],[],[],0.8205,1,847.5034,848.0031,,,,,,509,MAS,DIS,150,lobo,la,l,0.8205,,,,848.0033,848.004,-0.114814829,-0.405555584,0,0,0,,0,243,243,58,1,,,,
,,,,,,5df8e4b2be7c490096e70ca2,66a626ef09d4e21e1a8894ec,673649bb9efdb56af01cef7f,2024-11-14_13h08.31.669,Tarea de género gramatical,2024.2.2,Win32,59.52380952,,,,,,,,,,,,,,,,,,,,,,848.0068,849.0527,l,1,[],[],[],[],[],[],[],0.3676,1,849.0528,849.5526,,,,,,474,MAS,AGR,150,voto,el,l,0.3676,,,,849.5527,849.553,-0.114814829,-0.405555584,0,0,0,,0,244,244,23,1,,,,
,,,,,,5df8e4b2be7c490096e70ca2,66a626ef09d4e21e1a8894ec,673649bb9efdb56af01cef7f,2024-11-14_13h08.31.669,Tarea de género gramatical,2024.2.2,Win32,59.52380952,,,,,,,,,,,,,,,,,,,,,,849.5553,850.7859,a,1,[],[],[],[],[],[],[],0.555,1,850.786,851.2857,,,,,,873,FEM,AGR,150,poesía,la,a,0.555,,,,851.2897,851.2914,-0.114814829,-0.405555584,0,0,0,,0,245,245,422,1,,,,
,,,,,,5df8e4b2be7c490096e70ca2,66a626ef09d4e21e1a8894ec,673649bb9efdb56af01cef7f,2024-11-14_13h08.31.669,Tarea de género gramatical,2024.2.2,Win32,59.52380952,,,,,,,,,,,,,,,,,,,,,,851.2931,852.2693,l,1,[],[],[],[],[],[],[],0.3053,1,852.2696,852.7688,,,,,,797,MAS,DIS,150,cuello,la,l,0.3053,,,,852.7689,852.7692,-0.114814829,-0.405555584,0,0,0,,0,246,246,346,1,,,,
,,,,,,5df8e4b2be7c490096e70ca2,66a626ef09d4e21e1a8894ec,673649bb9efdb56af01cef7f,2024-11-14_13h08.31.669,Tarea de género gramatical,2024.2.2,Win32,59.52380952,,,,,,,,,,,,,,,,,,,,,,852.7717,853.8354,l,1,[],[],[],[],[],[],[],0.3891,1,853.8356,854.3352,,,,,,888,MAS,AGR,150,tanque,el,l,0.3891,,,,854.3354,854.3357,-0.114814829,-0.405555584,0,0,0,,0,247,247,437,1,,,,
,,,,,,5df8e4b2be7c490096e70ca2,66a626ef09d4e21e1a8894ec,673649bb9efdb56af01cef7f,2024-11-14_13h08.31.669,Tarea de género gramatical,2024.2.2,Win32,59.52380952,,,,,,,,,,,,,,,,,,,,,,854.338,855.635,a,1,[],[],[],[],[],[],[],0.6187,1,855.6352,856.135,,,,,,493,FEM,CON,150,nena,,a,0.6187,,,,856.1351,856.1355,-0.114814829,-0.405555584,0,0,0,,0,248,248,42,1,,,,
,,,,,,5df8e4b2be7c490096e70ca2,66a626ef09d4e21e1a8894ec,673649bb9efdb56af01cef7f,2024-11-14_13h08.31.669,Tarea de género gramatical,2024.2.2,Win32,59.52380952,,,,,,,,,,,,,,,,,,,,,,856.138,857.1848,a,1,[],[],[],[],[],[],[],0.3759,1,857.185,857.6848,,,,,,465,FEM,AGR,150,cama,la,a,0.3759,,,,857.6884,857.6907,-0.114814829,-0.405555584,0,0,0,,0,249,249,14,1,,,,
