counterbalancing_condition,consent_prescreening.block_1/declare_consent,consent_prescreening.block_1/age_years,consent_prescreening.block_1/gender,consent_prescreening.block_1/language_disorder,consent_prescreening.block_1/first_language,PROLIFIC_PID,STUDY_ID,SESSION_ID,date,expName,psychopyVersion,OS,frameRate,check_prescreening_answers.started,check_prescreening_answers.stopped,Instructions.started,Instructions.stopped,instr_done_keyboard.keys,instr_done_keyboard.rt,instr_done_keyboard.duration,instr_done_touch.x,instr_done_touch.y,instr_done_touch.leftButton,instr_done_touch.midButton,instr_done_touch.rightButton,instruction_pages.thisRepN,instruction_pages.thisTrialN,instruction_pages.thisN,instruction_pages.thisIndex,instruction_pages.ran,pageN,phase,instruct_text,has_image,instruct_image,presentTrial.started,presentTrial.stopped,response.keys,response.corr,touch_resp.x,touch_resp.y,touch_resp.leftButton,touch_resp.midButton,touch_resp.rightButton,touch_resp.time,touch_resp.clicked_name,rt,corr,feedback.started,feedback.stopped,practice_trials.thisRepN,practice_trials.thisTrialN,practice_trials.thisN,practice_trials.thisIndex,practice_trials.ran,TrialID,StimulusType,Condition,PrimeDuration,Prime,Flanker,corrAns,response.rt,response.duration,Break.started,Break.stopped,break_done_touch.x,break_done_touch.y,break_done_touch.leftButton,break_done_touch.midButton,break_done_touch.rightButton,break_done_keyboard.keys,experiment_trials.thisRepN,experiment_trials.thisTrialN,experiment_trials.thisN,experiment_trials.thisIndex,experiment_trials.ran,break_done_keyboard.rt,break_done_keyboard.duration,End.started,End.stopped
1,"[""over_18"",""comfortable"",""read_info"",""consent_given""]",49,M,"[""none""]","[""spanish""]",6075924bf6fdb1d10daa672a,66a626ef09d4e21e1a8894ec,67360fa78dbaf22aecd1339f,2024-11-14_15h57.04.158,Tarea de género gramatical,2024.2.2,Win32,60.24096386,,,,,,,,,,,,,,,,,,,,,,,,,,,,,,,,,,,,,,,,,,,,,,,,,,,,,,,,,,,,,,,,,,,,
,,,,,,6075924bf6fdb1d10daa672a,66a626ef09d4e21e1a8894ec,67360fa78dbaf22aecd1339f,2024-11-14_15h57.04.158,Tarea de género gramatical,2024.2.2,Win32,60.24096386,87.3793,87.3794,,,,,,,,,,,,,,,,,,,,,,,,,,,,,,,,,,,,,,,,,,,,,,,,,,,,,,,,,,,,,,,,,,
,,,,,,6075924bf6fdb1d10daa672a,66a626ef09d4e21e1a8894ec,67360fa78dbaf22aecd1339f,2024-11-14_15h57.04.158,Tarea de género gramatical,2024.2.2,Win32,60.24096386,,,87.3971,110.8295,space,23.3927,,-0.222490657,0.15115849,0,0,0,0,0,0,0,1,1,instructions,"INSTRUCCIONES
Va a realizar una prueba de selección gramatical. Desde el comienzo de la prueba mire siempre al centro de la pantalla. Al cabo de un momento, aparecerán palabras. La tarea consiste en determinar si la palabra del centro (siempre será un sustantivo), pertenece al género masculino o femenino.

Pulse la tecla ESPACIO o toque el botón de abajo para continuar.",0,keyboardresponseMF.png,,,,,,,,,,,,,,,,,,,,,,,,,,,,,,,,,,,,,,,,,,,,,,
,,,,,,6075924bf6fdb1d10daa672a,66a626ef09d4e21e1a8894ec,67360fa78dbaf22aecd1339f,2024-11-14_15h57.04.158,Tarea de género gramatical,2024.2.2,Win32,60.24096386,,,110.8333,127.7341,space,16.859,,-0.222490657,0.15115849,0,0,0,0,1,1,1,1,2,instructions,"Si su dispositivo tiene teclado, pulse la tecla ""A"" para las palabras en masculino (por ejemplo: ""arroz"") y la tecla ""L"" para las palabras en femenino (por ejemplo: ""mano"").
Pulse la tecla ESPACIO o toque el botón de abajo para continuar.",1,keyboardresponseMF.png,,,,,,,,,,,,,,,,,,,,,,,,,,,,,,,,,,,,,,,,,,,,,,
,,,,,,6075924bf6fdb1d10daa672a,66a626ef09d4e21e1a8894ec,67360fa78dbaf22aecd1339f,2024-11-14_15h57.04.158,Tarea de género gramatical,2024.2.2,Win32,60.24096386,,,127.7357,140.9759,space,13.1992,,-0.222490657,0.15115849,0,0,0,0,2,2,2,1,3,instructions,"Si utiliza un dispositivo sólo táctil, colóquelo en horizontal y utilice los botones de la pantalla. No utilice el ratón.
Pulse la tecla ESPACIO o toque el botón de abajo para continuar.",2,touchresponseMF.png,,,,,,,,,,,,,,,,,,,,,,,,,,,,,,,,,,,,,,,,,,,,,,
,,,,,,6075924bf6fdb1d10daa672a,66a626ef09d4e21e1a8894ec,67360fa78dbaf22aecd1339f,2024-11-14_15h57.04.158,Tarea de género gramatical,2024.2.2,Win32,60.24096386,,,140.9796,152.2537,space,11.2584,,-0.222490657,0.15115849,0,0,0,0,3,3,3,1,4,instructions,"Es muy importante que responda con la mayor rapidez y precisión posibles, ya que cada cadena de letras sólo estará en pantalla durante un instante. Si no responde en ese tiempo, aparecerá el mensaje ""Muy lento"" y el experimento pasará a la siguiente palabra. Los primeros 15 intentos serán de práctica y habrá dos descansos durante la prueba.
Pulse la tecla ESPACIO o toque el botón de abajo para iniciar la parte de práctica.",0,keyboardresponseMF.png,,,,,,,,,,,,,,,,,,,,,,,,,,,,,,,,,,,,,,,,,,,,,,
,,,,,,6075924bf6fdb1d10daa672a,66a626ef09d4e21e1a8894ec,67360fa78dbaf22aecd1339f,2024-11-14_15h57.04.158,Tarea de género gramatical,2024.2.2,Win32,60.24096386,,,,,,,,,,,,,,,,,,,,,,,152.267,154.9067,,0,[],[],[],[],[],[],[],,-1,154.907,155.4071,0,0,0,1,1,2002,FEM,CON,150,pala,,a,,,,,,,,,,,,,,,,,,,
,,,,,,6075924bf6fdb1d10daa672a,66a626ef09d4e21e1a8894ec,67360fa78dbaf22aecd1339f,2024-11-14_15h57.04.158,Tarea de género gramatical,2024.2.2,Win32,60.24096386,,,,,,,,,,,,,,,,,,,,,,,155.4094,157.342,l,1,[],[],[],[],[],[],[],1.2538,1,157.3542,157.8426,0,1,1,0,1,2001,FEM,AGR,150,nuca,la,a,1.2538,,,,,,,,,,,,,,,,,,
,,,,,,6075924bf6fdb1d10daa672a,66a626ef09d4e21e1a8894ec,67360fa78dbaf22aecd1339f,2024-11-14_15h57.04.158,Tarea de género gramatical,2024.2.2,Win32,60.24096386,,,,,,,,,,,,,,,,,,,,,,,157.8451,159.4609,l,0,[],[],[],[],[],[],[],0.9548,0,159.4621,159.9614,0,2,2,8,1,2009,MAS,DIS,150,puerto,la,l,0.9548,,,,,,,,,,,,,,,,,,
,,,,,,6075924bf6fdb1d10daa672a,66a626ef09d4e21e1a8894ec,67360fa78dbaf22aecd1339f,2024-11-14_15h57.04.158,Tarea de género gramatical,2024.2.2,Win32,60.24096386,,,,,,,,,,,,,,,,,,,,,,,159.9624,161.3629,l,0,[],[],[],[],[],[],[],0.7348,0,161.363,161.8631,0,3,3,10,1,2011,MAS,CON,150,canal,,l,0.7348,,,,,,,,,,,,,,,,,,
,,,,,,6075924bf6fdb1d10daa672a,66a626ef09d4e21e1a8894ec,67360fa78dbaf22aecd1339f,2024-11-14_15h57.04.158,Tarea de género gramatical,2024.2.2,Win32,60.24096386,,,,,,,,,,,,,,,,,,,,,,,161.864,163.7319,a,1,[],[],[],[],[],[],[],1.2025,1,163.7325,164.2323,0,4,4,12,1,2013,MAS,AGR,150,acero,el,l,1.2025,,,,,,,,,,,,,,,,,,
,,,,,,6075924bf6fdb1d10daa672a,66a626ef09d4e21e1a8894ec,67360fa78dbaf22aecd1339f,2024-11-14_15h57.04.158,Tarea de género gramatical,2024.2.2,Win32,60.24096386,,,,,,,,,,,,,,,,,,,,,,,164.2345,165.8006,l,1,[],[],[],[],[],[],[],0.9017,1,165.8006,166.3011,0,5,5,2,1,2003,FEM,DIS,150,daga,el,a,0.9017,,,,,,,,,,,,,,,,,,
,,,,,,6075924bf6fdb1d10daa672a,66a626ef09d4e21e1a8894ec,67360fa78dbaf22aecd1339f,2024-11-14_15h57.04.158,Tarea de género gramatical,2024.2.2,Win32,60.24096386,,,,,,,,,,,,,,,,,,,,,,,166.3032,168.2196,a,0,[],[],[],[],[],[],[],1.2563,0,168.2204,168.7202,0,6,6,5,1,2006,FEM,DIS,150,serie,el,a,1.2563,,,,,,,,,,,,,,,,,,
,,,,,,6075924bf6fdb1d10daa672a,66a626ef09d4e21e1a8894ec,67360fa78dbaf22aecd1339f,2024-11-14_15h57.04.158,Tarea de género gramatical,2024.2.2,Win32,60.24096386,,,,,,,,,,,,,,,,,,,,,,,168.7218,171.0391,l,1,[],[],[],[],[],[],[],1.6607,1,171.0397,171.5396,0,7,7,3,1,2004,FEM,AGR,150,venta,la,a,1.6607,,,,,,,,,,,,,,,,,,
,,,,,,6075924bf6fdb1d10daa672a,66a626ef09d4e21e1a8894ec,67360fa78dbaf22aecd1339f,2024-11-14_15h57.04.158,Tarea de género gramatical,2024.2.2,Win32,60.24096386,,,,,,,,,,,,,,,,,,,,,,,171.5411,173.258,a,1,[],[],[],[],[],[],[],1.057,1,173.2581,173.7585,0,8,8,14,1,2015,MAS,DIS,150,robot,la,l,1.057,,,,,,,,,,,,,,,,,,
,,,,,,6075924bf6fdb1d10daa672a,66a626ef09d4e21e1a8894ec,67360fa78dbaf22aecd1339f,2024-11-14_15h57.04.158,Tarea de género gramatical,2024.2.2,Win32,60.24096386,,,,,,,,,,,,,,,,,,,,,,,173.7593,175.3769,l,1,[],[],[],[],[],[],[],0.9509,1,175.377,175.8774,0,9,9,7,1,2008,FEM,CON,150,siesta,,a,0.9509,,,,,,,,,,,,,,,,,,
,,,,,,6075924bf6fdb1d10daa672a,66a626ef09d4e21e1a8894ec,67360fa78dbaf22aecd1339f,2024-11-14_15h57.04.158,Tarea de género gramatical,2024.2.2,Win32,60.24096386,,,,,,,,,,,,,,,,,,,,,,,175.8783,177.1618,l,1,[],[],[],[],[],[],[],0.6183,1,177.1619,177.6624,0,10,10,4,1,2005,FEM,CON,150,placa,,a,0.6183,,,,,,,,,,,,,,,,,,
,,,,,,6075924bf6fdb1d10daa672a,66a626ef09d4e21e1a8894ec,67360fa78dbaf22aecd1339f,2024-11-14_15h57.04.158,Tarea de género gramatical,2024.2.2,Win32,60.24096386,,,,,,,,,,,,,,,,,,,,,,,177.6633,178.9303,a,1,[],[],[],[],[],[],[],0.6018,1,178.9304,179.431,0,11,11,9,1,2010,MAS,AGR,150,vecino,el,l,0.6018,,,,,,,,,,,,,,,,,,
,,,,,,6075924bf6fdb1d10daa672a,66a626ef09d4e21e1a8894ec,67360fa78dbaf22aecd1339f,2024-11-14_15h57.04.158,Tarea de género gramatical,2024.2.2,Win32,60.24096386,,,,,,,,,,,,,,,,,,,,,,,179.4324,181.0156,l,0,[],[],[],[],[],[],[],0.9183,0,181.0163,181.5162,0,12,12,11,1,2012,MAS,DIS,150,clima,la,l,0.9183,,,,,,,,,,,,,,,,,,
,,,,,,6075924bf6fdb1d10daa672a,66a626ef09d4e21e1a8894ec,67360fa78dbaf22aecd1339f,2024-11-14_15h57.04.158,Tarea de género gramatical,2024.2.2,Win32,60.24096386,,,,,,,,,,,,,,,,,,,,,,,181.5171,183.0177,a,1,[],[],[],[],[],[],[],0.8415,1,183.0184,183.5184,0,13,13,13,1,2014,MAS,CON,150,siglo,,l,0.8415,,,,,,,,,,,,,,,,,,
,,,,,,6075924bf6fdb1d10daa672a,66a626ef09d4e21e1a8894ec,67360fa78dbaf22aecd1339f,2024-11-14_15h57.04.158,Tarea de género gramatical,2024.2.2,Win32,60.24096386,,,,,,,,,,,,,,,,,,,,,,,183.5198,184.853,l,1,[],[],[],[],[],[],[],0.6709,1,184.8531,185.3532,0,14,14,6,1,2007,FEM,AGR,150,navaja,la,a,0.6709,,,,,,,,,,,,,,,,,,
,,,,,,6075924bf6fdb1d10daa672a,66a626ef09d4e21e1a8894ec,67360fa78dbaf22aecd1339f,2024-11-14_15h57.04.158,Tarea de género gramatical,2024.2.2,Win32,60.24096386,,,199.4042,202.6212,space,3.2104,,-0.222490657,0.15115849,0,0,0,,,,,,,,,,,202.6558,204.0053,a,1,[],[],[],[],[],[],[],0.6784,1,204.0054,204.5058,,,,,,636,MAS,AGR,150,error,el,l,0.6784,,204.5061,204.5101,-0.222490657,0.15115849,0,0,0,,0,0,0,185,1,,,,
,,,,,,6075924bf6fdb1d10daa672a,66a626ef09d4e21e1a8894ec,67360fa78dbaf22aecd1339f,2024-11-14_15h57.04.158,Tarea de género gramatical,2024.2.2,Win32,60.24096386,,,,,,,,,,,,,,,,,,,,,,,204.5113,205.7238,l,1,[],[],[],[],[],[],[],0.5347,1,205.7238,206.2242,,,,,,547,FEM,CON,150,capa,,a,0.5347,,206.2243,206.2245,-0.222490657,0.15115849,0,0,0,,0,1,1,96,1,,,,
,,,,,,6075924bf6fdb1d10daa672a,66a626ef09d4e21e1a8894ec,67360fa78dbaf22aecd1339f,2024-11-14_15h57.04.158,Tarea de género gramatical,2024.2.2,Win32,60.24096386,,,,,,,,,,,,,,,,,,,,,,,206.2255,207.4421,a,1,[],[],[],[],[],[],[],0.5402,1,207.4422,207.9427,,,,,,900,MAS,AGR,150,conejo,el,l,0.5402,,207.9444,207.946,-0.222490657,0.15115849,0,0,0,,0,2,2,449,1,,,,
,,,,,,6075924bf6fdb1d10daa672a,66a626ef09d4e21e1a8894ec,67360fa78dbaf22aecd1339f,2024-11-14_15h57.04.158,Tarea de género gramatical,2024.2.2,Win32,60.24096386,,,,,,,,,,,,,,,,,,,,,,,207.9465,209.1606,a,1,[],[],[],[],[],[],[],0.5311,1,209.1607,209.661,,,,,,802,MAS,CON,150,estilo,,l,0.5311,,209.6611,209.6612,-0.222490657,0.15115849,0,0,0,,0,3,3,351,1,,,,
,,,,,,6075924bf6fdb1d10daa672a,66a626ef09d4e21e1a8894ec,67360fa78dbaf22aecd1339f,2024-11-14_15h57.04.158,Tarea de género gramatical,2024.2.2,Win32,60.24096386,,,,,,,,,,,,,,,,,,,,,,,209.6623,211.0293,a,1,[],[],[],[],[],[],[],0.6848,1,211.0293,211.5296,,,,,,743,MAS,DIS,150,patio,la,l,0.6848,,211.5296,211.5297,-0.222490657,0.15115849,0,0,0,,0,4,4,292,1,,,,
,,,,,,6075924bf6fdb1d10daa672a,66a626ef09d4e21e1a8894ec,67360fa78dbaf22aecd1339f,2024-11-14_15h57.04.158,Tarea de género gramatical,2024.2.2,Win32,60.24096386,,,,,,,,,,,,,,,,,,,,,,,211.5307,212.9143,a,1,[],[],[],[],[],[],[],0.7233,1,212.9144,213.4147,,,,,,575,MAS,DIS,150,bate,la,l,0.7233,,213.4148,213.4149,-0.222490657,0.15115849,0,0,0,,0,5,5,124,1,,,,
,,,,,,6075924bf6fdb1d10daa672a,66a626ef09d4e21e1a8894ec,67360fa78dbaf22aecd1339f,2024-11-14_15h57.04.158,Tarea de género gramatical,2024.2.2,Win32,60.24096386,,,,,,,,,,,,,,,,,,,,,,,213.4165,214.6659,l,1,[],[],[],[],[],[],[],0.5798,1,214.6661,215.1667,,,,,,735,FEM,AGR,150,mafia,la,a,0.5798,,215.1685,215.1699,-0.222490657,0.15115849,0,0,0,,0,6,6,284,1,,,,
,,,,,,6075924bf6fdb1d10daa672a,66a626ef09d4e21e1a8894ec,67360fa78dbaf22aecd1339f,2024-11-14_15h57.04.158,Tarea de género gramatical,2024.2.2,Win32,60.24096386,,,,,,,,,,,,,,,,,,,,,,,215.1706,216.4344,l,1,[],[],[],[],[],[],[],0.5897,1,216.4345,216.9348,,,,,,883,FEM,CON,150,huella,,a,0.5897,,216.9349,216.9349,-0.222490657,0.15115849,0,0,0,,0,7,7,432,1,,,,
,,,,,,6075924bf6fdb1d10daa672a,66a626ef09d4e21e1a8894ec,67360fa78dbaf22aecd1339f,2024-11-14_15h57.04.158,Tarea de género gramatical,2024.2.2,Win32,60.24096386,,,,,,,,,,,,,,,,,,,,,,,216.9356,218.1027,a,1,[],[],[],[],[],[],[],0.5022,1,218.1028,218.6034,,,,,,664,MAS,CON,150,fondo,,l,0.5022,,218.6034,218.6036,-0.222490657,0.15115849,0,0,0,,0,8,8,213,1,,,,
,,,,,,6075924bf6fdb1d10daa672a,66a626ef09d4e21e1a8894ec,67360fa78dbaf22aecd1339f,2024-11-14_15h57.04.158,Tarea de género gramatical,2024.2.2,Win32,60.24096386,,,,,,,,,,,,,,,,,,,,,,,218.6044,220.088,a,1,[],[],[],[],[],[],[],0.8193,1,220.0882,220.5887,,,,,,598,MAS,CON,150,surf,,l,0.8193,,220.5888,220.5889,-0.222490657,0.15115849,0,0,0,,0,9,9,147,1,,,,
,,,,,,6075924bf6fdb1d10daa672a,66a626ef09d4e21e1a8894ec,67360fa78dbaf22aecd1339f,2024-11-14_15h57.04.158,Tarea de género gramatical,2024.2.2,Win32,60.24096386,,,,,,,,,,,,,,,,,,,,,,,220.5901,221.8231,a,1,[],[],[],[],[],[],[],0.5769,1,221.8233,222.3236,,,,,,574,MAS,CON,150,clan,,l,0.5769,,222.3236,222.3238,-0.222490657,0.15115849,0,0,0,,0,10,10,123,1,,,,
,,,,,,6075924bf6fdb1d10daa672a,66a626ef09d4e21e1a8894ec,67360fa78dbaf22aecd1339f,2024-11-14_15h57.04.158,Tarea de género gramatical,2024.2.2,Win32,60.24096386,,,,,,,,,,,,,,,,,,,,,,,222.3246,223.5082,a,1,[],[],[],[],[],[],[],0.5175,1,223.5082,224.0087,,,,,,844,MAS,CON,150,examen,,l,0.5175,,224.0103,224.0117,-0.222490657,0.15115849,0,0,0,,0,11,11,393,1,,,,
,,,,,,6075924bf6fdb1d10daa672a,66a626ef09d4e21e1a8894ec,67360fa78dbaf22aecd1339f,2024-11-14_15h57.04.158,Tarea de género gramatical,2024.2.2,Win32,60.24096386,,,,,,,,,,,,,,,,,,,,,,,224.0125,225.3267,a,1,[],[],[],[],[],[],[],0.6361,1,225.3268,225.8272,,,,,,834,MAS,AGR,150,pedazo,el,l,0.6361,,225.8273,225.8274,-0.222490657,0.15115849,0,0,0,,0,12,12,383,1,,,,
,,,,,,6075924bf6fdb1d10daa672a,66a626ef09d4e21e1a8894ec,67360fa78dbaf22aecd1339f,2024-11-14_15h57.04.158,Tarea de género gramatical,2024.2.2,Win32,60.24096386,,,,,,,,,,,,,,,,,,,,,,,225.8283,226.9784,a,1,[],[],[],[],[],[],[],0.4735,1,226.9785,227.4788,,,,,,738,MAS,AGR,150,grado,el,l,0.4735,,227.4788,227.4789,-0.222490657,0.15115849,0,0,0,,0,13,13,287,1,,,,
,,,,,,6075924bf6fdb1d10daa672a,66a626ef09d4e21e1a8894ec,67360fa78dbaf22aecd1339f,2024-11-14_15h57.04.158,Tarea de género gramatical,2024.2.2,Win32,60.24096386,,,,,,,,,,,,,,,,,,,,,,,227.48,228.6967,a,1,[],[],[],[],[],[],[],0.5586,1,228.6968,229.1971,,,,,,719,MAS,DIS,150,primo,la,l,0.5586,,229.1972,229.1973,-0.222490657,0.15115849,0,0,0,,0,14,14,268,1,,,,
,,,,,,6075924bf6fdb1d10daa672a,66a626ef09d4e21e1a8894ec,67360fa78dbaf22aecd1339f,2024-11-14_15h57.04.158,Tarea de género gramatical,2024.2.2,Win32,60.24096386,,,,,,,,,,,,,,,,,,,,,,,229.1981,230.315,l,1,[],[],[],[],[],[],[],0.4561,1,230.3151,230.8154,,,,,,601,FEM,CON,150,noche,,a,0.4561,,230.8172,230.8185,-0.222490657,0.15115849,0,0,0,,0,15,15,150,1,,,,
,,,,,,6075924bf6fdb1d10daa672a,66a626ef09d4e21e1a8894ec,67360fa78dbaf22aecd1339f,2024-11-14_15h57.04.158,Tarea de género gramatical,2024.2.2,Win32,60.24096386,,,,,,,,,,,,,,,,,,,,,,,230.8193,231.8998,l,1,[],[],[],[],[],[],[],0.405,1,231.8999,232.4004,,,,,,657,FEM,AGR,150,playa,la,a,0.405,,232.4005,232.4005,-0.222490657,0.15115849,0,0,0,,0,16,16,206,1,,,,
,,,,,,6075924bf6fdb1d10daa672a,66a626ef09d4e21e1a8894ec,67360fa78dbaf22aecd1339f,2024-11-14_15h57.04.158,Tarea de género gramatical,2024.2.2,Win32,60.24096386,,,,,,,,,,,,,,,,,,,,,,,232.4021,233.4848,a,1,[],[],[],[],[],[],[],0.4174,1,233.4849,233.9854,,,,,,610,MAS,CON,150,señor,,l,0.4174,,233.9854,233.9854,-0.222490657,0.15115849,0,0,0,,0,17,17,159,1,,,,
,,,,,,6075924bf6fdb1d10daa672a,66a626ef09d4e21e1a8894ec,67360fa78dbaf22aecd1339f,2024-11-14_15h57.04.158,Tarea de género gramatical,2024.2.2,Win32,60.24096386,,,,,,,,,,,,,,,,,,,,,,,233.9863,235.2032,l,1,[],[],[],[],[],[],[],0.5559,1,235.2033,235.7036,,,,,,710,FEM,DIS,150,barra,el,a,0.5559,,235.7037,235.7038,-0.222490657,0.15115849,0,0,0,,0,18,18,259,1,,,,
,,,,,,6075924bf6fdb1d10daa672a,66a626ef09d4e21e1a8894ec,67360fa78dbaf22aecd1339f,2024-11-14_15h57.04.158,Tarea de género gramatical,2024.2.2,Win32,60.24096386,,,,,,,,,,,,,,,,,,,,,,,235.7048,236.9216,l,1,[],[],[],[],[],[],[],0.558,1,236.9217,237.4221,,,,,,566,FEM,DIS,150,nube,el,a,0.558,,237.4221,237.4223,-0.222490657,0.15115849,0,0,0,,0,19,19,115,1,,,,
,,,,,,6075924bf6fdb1d10daa672a,66a626ef09d4e21e1a8894ec,67360fa78dbaf22aecd1339f,2024-11-14_15h57.04.158,Tarea de género gramatical,2024.2.2,Win32,60.24096386,,,,,,,,,,,,,,,,,,,,,,,237.4233,238.5733,l,1,[],[],[],[],[],[],[],0.4875,1,238.5734,239.0737,,,,,,470,FEM,DIS,150,ropa,el,a,0.4875,,239.075,239.0765,-0.222490657,0.15115849,0,0,0,,0,20,20,19,1,,,,
,,,,,,6075924bf6fdb1d10daa672a,66a626ef09d4e21e1a8894ec,67360fa78dbaf22aecd1339f,2024-11-14_15h57.04.158,Tarea de género gramatical,2024.2.2,Win32,60.24096386,,,,,,,,,,,,,,,,,,,,,,,239.0772,240.1747,a,1,[],[],[],[],[],[],[],0.419,1,240.1748,240.6753,,,,,,803,MAS,DIS,150,verano,la,l,0.419,,240.6753,240.6754,-0.222490657,0.15115849,0,0,0,,0,21,21,352,1,,,,
,,,,,,6075924bf6fdb1d10daa672a,66a626ef09d4e21e1a8894ec,67360fa78dbaf22aecd1339f,2024-11-14_15h57.04.158,Tarea de género gramatical,2024.2.2,Win32,60.24096386,,,,,,,,,,,,,,,,,,,,,,,240.6763,241.8642,a,1,[],[],[],[],[],[],[],0.5037,1,241.8642,242.3605,,,,,,875,MAS,DIS,150,chiste,la,l,0.5037,,242.3606,242.3607,-0.222490657,0.15115849,0,0,0,,0,22,22,424,1,,,,
,,,,,,6075924bf6fdb1d10daa672a,66a626ef09d4e21e1a8894ec,67360fa78dbaf22aecd1339f,2024-11-14_15h57.04.158,Tarea de género gramatical,2024.2.2,Win32,60.24096386,,,,,,,,,,,,,,,,,,,,,,,242.3616,243.4448,l,1,[],[],[],[],[],[],[],0.421,1,243.4448,243.9452,,,,,,794,FEM,DIS,150,pareja,el,a,0.421,,243.9453,243.9453,-0.222490657,0.15115849,0,0,0,,0,23,23,343,1,,,,
,,,,,,6075924bf6fdb1d10daa672a,66a626ef09d4e21e1a8894ec,67360fa78dbaf22aecd1339f,2024-11-14_15h57.04.158,Tarea de género gramatical,2024.2.2,Win32,60.24096386,,,,,,,,,,,,,,,,,,,,,,,243.946,245.1297,l,1,[],[],[],[],[],[],[],0.524,1,245.1298,245.6304,,,,,,727,FEM,CON,150,plaza,,a,0.524,,245.6319,245.6334,-0.222490657,0.15115849,0,0,0,,0,24,24,276,1,,,,
,,,,,,6075924bf6fdb1d10daa672a,66a626ef09d4e21e1a8894ec,67360fa78dbaf22aecd1339f,2024-11-14_15h57.04.158,Tarea de género gramatical,2024.2.2,Win32,60.24096386,,,,,,,,,,,,,,,,,,,,,,,245.6344,246.9482,l,1,[],[],[],[],[],[],[],0.6387,1,246.9483,247.4486,,,,,,704,FEM,DIS,150,caída,el,a,0.6387,,247.4487,247.4487,-0.222490657,0.15115849,0,0,0,,0,25,25,253,1,,,,
,,,,,,6075924bf6fdb1d10daa672a,66a626ef09d4e21e1a8894ec,67360fa78dbaf22aecd1339f,2024-11-14_15h57.04.158,Tarea de género gramatical,2024.2.2,Win32,60.24096386,,,,,,,,,,,,,,,,,,,,,,,247.4497,248.7331,a,1,[],[],[],[],[],[],[],0.6284,1,248.7332,249.2338,,,,,,833,MAS,DIS,150,parque,la,l,0.6284,,249.2338,249.234,-0.222490657,0.15115849,0,0,0,,0,26,26,382,1,,,,
,,,,,,6075924bf6fdb1d10daa672a,66a626ef09d4e21e1a8894ec,67360fa78dbaf22aecd1339f,2024-11-14_15h57.04.158,Tarea de género gramatical,2024.2.2,Win32,60.24096386,,,,,,,,,,,,,,,,,,,,,,,249.2346,250.4684,l,1,[],[],[],[],[],[],[],0.5714,1,250.4686,250.969,,,,,,464,FEM,DIS,150,cara,el,a,0.5714,,250.969,250.969,-0.222490657,0.15115849,0,0,0,,0,27,27,13,1,,,,
,,,,,,6075924bf6fdb1d10daa672a,66a626ef09d4e21e1a8894ec,67360fa78dbaf22aecd1339f,2024-11-14_15h57.04.158,Tarea de género gramatical,2024.2.2,Win32,60.24096386,,,,,,,,,,,,,,,,,,,,,,,250.9705,252.4369,a,1,[],[],[],[],[],[],[],0.7848,1,252.4371,252.9375,,,,,,462,MAS,AGR,150,plan,el,l,0.7848,,252.9377,252.9377,-0.222490657,0.15115849,0,0,0,,0,28,28,11,1,,,,
,,,,,,6075924bf6fdb1d10daa672a,66a626ef09d4e21e1a8894ec,67360fa78dbaf22aecd1339f,2024-11-14_15h57.04.158,Tarea de género gramatical,2024.2.2,Win32,60.24096386,,,,,,,,,,,,,,,,,,,,,,,252.9387,254.3723,l,1,[],[],[],[],[],[],[],0.7727,1,254.3723,254.8728,,,,,,705,FEM,AGR,150,tribu,la,a,0.7727,,254.8744,254.8758,-0.222490657,0.15115849,0,0,0,,0,29,29,254,1,,,,
,,,,,,6075924bf6fdb1d10daa672a,66a626ef09d4e21e1a8894ec,67360fa78dbaf22aecd1339f,2024-11-14_15h57.04.158,Tarea de género gramatical,2024.2.2,Win32,60.24096386,,,,,,,,,,,,,,,,,,,,,,,254.8764,256.2575,a,1,[],[],[],[],[],[],[],0.7094,1,256.2575,256.758,,,,,,707,MAS,DIS,150,pecho,la,l,0.7094,,256.7581,256.7581,-0.222490657,0.15115849,0,0,0,,0,30,30,256,1,,,,
,,,,,,6075924bf6fdb1d10daa672a,66a626ef09d4e21e1a8894ec,67360fa78dbaf22aecd1339f,2024-11-14_15h57.04.158,Tarea de género gramatical,2024.2.2,Win32,60.24096386,,,,,,,,,,,,,,,,,,,,,,,256.7591,258.0094,l,1,[],[],[],[],[],[],[],0.5903,1,258.0094,258.51,,,,,,777,FEM,AGR,150,tienda,la,a,0.5903,,258.51,258.5101,-0.222490657,0.15115849,0,0,0,,0,31,31,326,1,,,,
,,,,,,6075924bf6fdb1d10daa672a,66a626ef09d4e21e1a8894ec,67360fa78dbaf22aecd1339f,2024-11-14_15h57.04.158,Tarea de género gramatical,2024.2.2,Win32,60.24096386,,,,,,,,,,,,,,,,,,,,,,,258.511,259.7277,a,1,[],[],[],[],[],[],[],0.5347,1,259.7278,260.2282,,,,,,528,MAS,AGR,150,oído,el,l,0.5347,,260.2283,260.2283,-0.222490657,0.15115849,0,0,0,,0,32,32,77,1,,,,
,,,,,,6075924bf6fdb1d10daa672a,66a626ef09d4e21e1a8894ec,67360fa78dbaf22aecd1339f,2024-11-14_15h57.04.158,Tarea de género gramatical,2024.2.2,Win32,60.24096386,,,,,,,,,,,,,,,,,,,,,,,260.2292,261.4962,a,1,[],[],[],[],[],[],[],0.6093,1,261.4963,261.9966,,,,,,840,MAS,AGR,150,rostro,el,l,0.6093,,261.9984,262.0001,-0.222490657,0.15115849,0,0,0,,0,33,33,389,1,,,,
,,,,,,6075924bf6fdb1d10daa672a,66a626ef09d4e21e1a8894ec,67360fa78dbaf22aecd1339f,2024-11-14_15h57.04.158,Tarea de género gramatical,2024.2.2,Win32,60.24096386,,,,,,,,,,,,,,,,,,,,,,,262.0007,263.1144,l,1,[],[],[],[],[],[],[],0.4348,1,263.1144,263.6149,,,,,,644,FEM,DIS,150,banda,el,a,0.4348,,263.6149,263.615,-0.222490657,0.15115849,0,0,0,,0,34,34,193,1,,,,
,,,,,,6075924bf6fdb1d10daa672a,66a626ef09d4e21e1a8894ec,67360fa78dbaf22aecd1339f,2024-11-14_15h57.04.158,Tarea de género gramatical,2024.2.2,Win32,60.24096386,,,,,,,,,,,,,,,,,,,,,,,263.6159,264.8162,l,1,[],[],[],[],[],[],[],0.5336,1,264.8163,265.3166,,,,,,500,FEM,DIS,150,dama,el,a,0.5336,,265.3166,265.3167,-0.222490657,0.15115849,0,0,0,,0,35,35,49,1,,,,
,,,,,,6075924bf6fdb1d10daa672a,66a626ef09d4e21e1a8894ec,67360fa78dbaf22aecd1339f,2024-11-14_15h57.04.158,Tarea de género gramatical,2024.2.2,Win32,60.24096386,,,,,,,,,,,,,,,,,,,,,,,265.3176,266.5178,l,1,[],[],[],[],[],[],[],0.5372,1,266.5179,267.0183,,,,,,889,FEM,CON,150,toalla,,a,0.5372,,267.0184,267.0184,-0.222490657,0.15115849,0,0,0,,0,36,36,438,1,,,,
,,,,,,6075924bf6fdb1d10daa672a,66a626ef09d4e21e1a8894ec,67360fa78dbaf22aecd1339f,2024-11-14_15h57.04.158,Tarea de género gramatical,2024.2.2,Win32,60.24096386,,,,,,,,,,,,,,,,,,,,,,,267.0205,268.2193,l,1,[],[],[],[],[],[],[],0.5382,1,268.2194,268.72,,,,,,837,FEM,AGR,150,página,la,a,0.5382,,268.72,268.72,-0.222490657,0.15115849,0,0,0,,0,37,37,386,1,,,,
,,,,,,6075924bf6fdb1d10daa672a,66a626ef09d4e21e1a8894ec,67360fa78dbaf22aecd1339f,2024-11-14_15h57.04.158,Tarea de género gramatical,2024.2.2,Win32,60.24096386,,,,,,,,,,,,,,,,,,,,,,,268.7209,269.7877,a,1,[],[],[],[],[],[],[],0.4054,1,269.7878,270.2882,,,,,,646,MAS,CON,150,barco,,l,0.4054,,270.2897,270.2912,-0.222490657,0.15115849,0,0,0,,0,38,38,195,1,,,,
,,,,,,6075924bf6fdb1d10daa672a,66a626ef09d4e21e1a8894ec,67360fa78dbaf22aecd1339f,2024-11-14_15h57.04.158,Tarea de género gramatical,2024.2.2,Win32,60.24096386,,,,,,,,,,,,,,,,,,,,,,,270.2918,271.3728,a,1,[],[],[],[],[],[],[],0.4015,1,271.3728,271.8733,,,,,,690,MAS,AGR,150,ruido,el,l,0.4015,,271.8733,271.8733,-0.222490657,0.15115849,0,0,0,,0,39,39,239,1,,,,
,,,,,,6075924bf6fdb1d10daa672a,66a626ef09d4e21e1a8894ec,67360fa78dbaf22aecd1339f,2024-11-14_15h57.04.158,Tarea de género gramatical,2024.2.2,Win32,60.24096386,,,,,,,,,,,,,,,,,,,,,,,271.8743,273.0243,a,1,[],[],[],[],[],[],[],0.4867,1,273.0243,273.5285,,,,,,858,MAS,AGR,150,cheque,el,l,0.4867,,273.5285,273.5285,-0.222490657,0.15115849,0,0,0,,0,40,40,407,1,,,,
,,,,,,6075924bf6fdb1d10daa672a,66a626ef09d4e21e1a8894ec,67360fa78dbaf22aecd1339f,2024-11-14_15h57.04.158,Tarea de género gramatical,2024.2.2,Win32,60.24096386,,,,,,,,,,,,,,,,,,,,,,,273.5293,274.8929,a,1,[],[],[],[],[],[],[],0.6822,1,274.893,275.3935,,,,,,544,MAS,CON,150,cabo,,l,0.6822,,275.3936,275.3937,-0.222490657,0.15115849,0,0,0,,0,41,41,93,1,,,,
,,,,,,6075924bf6fdb1d10daa672a,66a626ef09d4e21e1a8894ec,67360fa78dbaf22aecd1339f,2024-11-14_15h57.04.158,Tarea de género gramatical,2024.2.2,Win32,60.24096386,,,,,,,,,,,,,,,,,,,,,,,275.3949,276.5278,l,1,[],[],[],[],[],[],[],0.4591,1,276.5279,277.0283,,,,,,561,FEM,AGR,150,goma,la,a,0.4591,,277.0293,277.0308,-0.222490657,0.15115849,0,0,0,,0,42,42,110,1,,,,
,,,,,,6075924bf6fdb1d10daa672a,66a626ef09d4e21e1a8894ec,67360fa78dbaf22aecd1339f,2024-11-14_15h57.04.158,Tarea de género gramatical,2024.2.2,Win32,60.24096386,,,,,,,,,,,,,,,,,,,,,,,277.0318,278.1127,a,1,[],[],[],[],[],[],[],0.4012,1,278.1129,278.6133,,,,,,772,MAS,CON,150,minuto,,l,0.4012,,278.6133,278.6134,-0.222490657,0.15115849,0,0,0,,0,43,43,321,1,,,,
,,,,,,6075924bf6fdb1d10daa672a,66a626ef09d4e21e1a8894ec,67360fa78dbaf22aecd1339f,2024-11-14_15h57.04.158,Tarea de género gramatical,2024.2.2,Win32,60.24096386,,,,,,,,,,,,,,,,,,,,,,,278.6143,279.8311,l,1,[],[],[],[],[],[],[],0.5603,1,279.8311,280.3315,,,,,,555,FEM,AGR,150,jefa,la,a,0.5603,,280.3315,280.3316,-0.222490657,0.15115849,0,0,0,,0,44,44,104,1,,,,
,,,,,,6075924bf6fdb1d10daa672a,66a626ef09d4e21e1a8894ec,67360fa78dbaf22aecd1339f,2024-11-14_15h57.04.158,Tarea de género gramatical,2024.2.2,Win32,60.24096386,,,,,,,,,,,,,,,,,,,,,,,280.3324,281.3827,a,1,[],[],[],[],[],[],[],0.3937,1,281.3828,281.8831,,,,,,522,MAS,AGR,150,hoyo,el,l,0.3937,,281.8832,281.8833,-0.222490657,0.15115849,0,0,0,,0,45,45,71,1,,,,
,,,,,,6075924bf6fdb1d10daa672a,66a626ef09d4e21e1a8894ec,67360fa78dbaf22aecd1339f,2024-11-14_15h57.04.158,Tarea de género gramatical,2024.2.2,Win32,60.24096386,,,,,,,,,,,,,,,,,,,,,,,281.8849,283.0676,a,1,[],[],[],[],[],[],[],0.5184,1,283.0677,283.5682,,,,,,666,MAS,AGR,150,éxito,el,l,0.5184,,283.5682,283.5683,-0.222490657,0.15115849,0,0,0,,0,46,46,215,1,,,,
,,,,,,6075924bf6fdb1d10daa672a,66a626ef09d4e21e1a8894ec,67360fa78dbaf22aecd1339f,2024-11-14_15h57.04.158,Tarea de género gramatical,2024.2.2,Win32,60.24096386,,,,,,,,,,,,,,,,,,,,,,,283.5693,284.6859,a,1,[],[],[],[],[],[],[],0.453,1,284.6861,285.1865,,,,,,570,MAS,AGR,150,puño,el,l,0.453,,285.1874,285.1887,-0.222490657,0.15115849,0,0,0,,0,47,47,119,1,,,,
,,,,,,6075924bf6fdb1d10daa672a,66a626ef09d4e21e1a8894ec,67360fa78dbaf22aecd1339f,2024-11-14_15h57.04.158,Tarea de género gramatical,2024.2.2,Win32,60.24096386,,,,,,,,,,,,,,,,,,,,,,,285.1897,286.3543,l,1,[],[],[],[],[],[],[],0.4851,1,286.3544,286.8546,,,,,,841,FEM,CON,150,altura,,a,0.4851,,286.8547,286.8548,-0.222490657,0.15115849,0,0,0,,0,48,48,390,1,,,,
,,,,,,6075924bf6fdb1d10daa672a,66a626ef09d4e21e1a8894ec,67360fa78dbaf22aecd1339f,2024-11-14_15h57.04.158,Tarea de género gramatical,2024.2.2,Win32,60.24096386,,,,,,,,,,,,,,,,,,,,,,,286.8556,288.056,l,1,[],[],[],[],[],[],[],0.5349,1,288.0561,288.5564,,,,,,697,FEM,CON,150,frase,,a,0.5349,,288.5564,288.5566,-0.222490657,0.15115849,0,0,0,,0,49,49,246,1,,,,
,,,,,,6075924bf6fdb1d10daa672a,66a626ef09d4e21e1a8894ec,67360fa78dbaf22aecd1339f,2024-11-14_15h57.04.158,Tarea de género gramatical,2024.2.2,Win32,60.24096386,,,,,,,,,,,,,,,,,,,,,,,288.5574,289.6576,a,1,[],[],[],[],[],[],[],0.4355,1,289.6577,290.1581,,,,,,702,MAS,AGR,150,viejo,el,l,0.4355,,290.1582,290.1582,-0.222490657,0.15115849,0,0,0,,0,50,50,251,1,,,,
,,,,,,6075924bf6fdb1d10daa672a,66a626ef09d4e21e1a8894ec,67360fa78dbaf22aecd1339f,2024-11-14_15h57.04.158,Tarea de género gramatical,2024.2.2,Win32,60.24096386,,,,,,,,,,,,,,,,,,,,,,,290.1591,291.3092,a,1,[],[],[],[],[],[],[],0.4844,1,291.3093,291.8098,,,,,,558,MAS,AGR,150,hilo,el,l,0.4844,,291.8108,291.8123,-0.222490657,0.15115849,0,0,0,,0,51,51,107,1,,,,
,,,,,,6075924bf6fdb1d10daa672a,66a626ef09d4e21e1a8894ec,67360fa78dbaf22aecd1339f,2024-11-14_15h57.04.158,Tarea de género gramatical,2024.2.2,Win32,60.24096386,,,,,,,,,,,,,,,,,,,,,,,291.8132,293.011,a,1,[],[],[],[],[],[],[],0.5184,1,293.011,293.5114,,,,,,551,MAS,DIS,150,giro,la,l,0.5184,,293.5115,293.5115,-0.222490657,0.15115849,0,0,0,,0,52,52,100,1,,,,
,,,,,,6075924bf6fdb1d10daa672a,66a626ef09d4e21e1a8894ec,67360fa78dbaf22aecd1339f,2024-11-14_15h57.04.158,Tarea de género gramatical,2024.2.2,Win32,60.24096386,,,,,,,,,,,,,,,,,,,,,,,293.5124,294.6792,a,1,[],[],[],[],[],[],[],0.5003,1,294.6793,295.1797,,,,,,599,MAS,DIS,150,nudo,la,l,0.5003,,295.1797,295.1798,-0.222490657,0.15115849,0,0,0,,0,53,53,148,1,,,,
,,,,,,6075924bf6fdb1d10daa672a,66a626ef09d4e21e1a8894ec,67360fa78dbaf22aecd1339f,2024-11-14_15h57.04.158,Tarea de género gramatical,2024.2.2,Win32,60.24096386,,,,,,,,,,,,,,,,,,,,,,,295.1806,296.2975,l,1,[],[],[],[],[],[],[],0.4523,1,296.2977,296.798,,,,,,554,FEM,DIS,150,vela,el,a,0.4523,,296.7981,296.7982,-0.222490657,0.15115849,0,0,0,,0,54,54,103,1,,,,
,,,,,,6075924bf6fdb1d10daa672a,66a626ef09d4e21e1a8894ec,67360fa78dbaf22aecd1339f,2024-11-14_15h57.04.158,Tarea de género gramatical,2024.2.2,Win32,60.24096386,,,,,,,,,,,,,,,,,,,,,,,296.7991,297.9492,l,1,[],[],[],[],[],[],[],0.4846,1,297.9493,298.4497,,,,,,806,FEM,DIS,150,piedra,el,a,0.4846,,298.4498,298.4499,-0.222490657,0.15115849,0,0,0,,0,55,55,355,1,,,,
,,,,,,6075924bf6fdb1d10daa672a,66a626ef09d4e21e1a8894ec,67360fa78dbaf22aecd1339f,2024-11-14_15h57.04.158,Tarea de género gramatical,2024.2.2,Win32,60.24096386,,,,,,,,,,,,,,,,,,,,,,,298.4508,299.6177,l,1,[],[],[],[],[],[],[],0.5018,1,299.6178,300.1185,,,,,,638,FEM,DIS,150,bomba,el,a,0.5018,,300.1193,300.1207,-0.222490657,0.15115849,0,0,0,,0,56,56,187,1,,,,
,,,,,,6075924bf6fdb1d10daa672a,66a626ef09d4e21e1a8894ec,67360fa78dbaf22aecd1339f,2024-11-14_15h57.04.158,Tarea de género gramatical,2024.2.2,Win32,60.24096386,,,,,,,,,,,,,,,,,,,,,,,300.1215,301.3359,a,0,[],[],[],[],[],[],[],0.5351,0,301.3364,301.8364,,,,,,649,FEM,CON,150,nariz,,a,0.5351,,301.8364,301.8365,-0.222490657,0.15115849,0,0,0,,0,57,57,198,1,,,,
,,,,,,6075924bf6fdb1d10daa672a,66a626ef09d4e21e1a8894ec,67360fa78dbaf22aecd1339f,2024-11-14_15h57.04.158,Tarea de género gramatical,2024.2.2,Win32,60.24096386,,,,,,,,,,,,,,,,,,,,,,,301.8374,303.0878,a,1,[],[],[],[],[],[],[],0.5932,1,303.0885,303.5881,,,,,,683,MAS,DIS,150,golpe,la,l,0.5932,,303.5882,303.5882,-0.222490657,0.15115849,0,0,0,,0,58,58,232,1,,,,
,,,,,,6075924bf6fdb1d10daa672a,66a626ef09d4e21e1a8894ec,67360fa78dbaf22aecd1339f,2024-11-14_15h57.04.158,Tarea de género gramatical,2024.2.2,Win32,60.24096386,,,,,,,,,,,,,,,,,,,,,,,303.589,304.8393,l,1,[],[],[],[],[],[],[],0.5759,1,304.8395,305.34,,,,,,775,FEM,CON,150,tierra,,a,0.5759,,305.34,305.34,-0.222490657,0.15115849,0,0,0,,0,59,59,324,1,,,,
,,,,,,6075924bf6fdb1d10daa672a,66a626ef09d4e21e1a8894ec,67360fa78dbaf22aecd1339f,2024-11-14_15h57.04.158,Tarea de género gramatical,2024.2.2,Win32,60.24096386,,,,,,,,,,,,,,,,,,,,,,,305.3409,306.4744,l,1,[],[],[],[],[],[],[],0.469,1,306.4745,306.9748,,,,,,585,FEM,AGR,150,raíz,la,a,0.469,,306.9758,306.9775,-0.222490657,0.15115849,0,0,0,,0,60,60,134,1,,,,
,,,,,,6075924bf6fdb1d10daa672a,66a626ef09d4e21e1a8894ec,67360fa78dbaf22aecd1339f,2024-11-14_15h57.04.158,Tarea de género gramatical,2024.2.2,Win32,60.24096386,,,,,,,,,,,,,,,,,,,,,,,306.9783,308.1269,a,1,[],[],[],[],[],[],[],0.4699,1,308.127,308.6265,,,,,,533,MAS,DIS,150,nene,la,l,0.4699,,308.6265,308.6266,-0.222490657,0.15115849,0,0,0,,0,61,61,82,1,,,,
,,,,,,6075924bf6fdb1d10daa672a,66a626ef09d4e21e1a8894ec,67360fa78dbaf22aecd1339f,2024-11-14_15h57.04.158,Tarea de género gramatical,2024.2.2,Win32,60.24096386,,,,,,,,,,,,,,,,,,,,,,,308.6273,309.8111,l,1,[],[],[],[],[],[],[],0.5187,1,309.8111,310.3115,,,,,,799,FEM,CON,150,prensa,,a,0.5187,,310.3116,310.3116,-0.222490657,0.15115849,0,0,0,,0,62,62,348,1,,,,
,,,,,,6075924bf6fdb1d10daa672a,66a626ef09d4e21e1a8894ec,67360fa78dbaf22aecd1339f,2024-11-14_15h57.04.158,Tarea de género gramatical,2024.2.2,Win32,60.24096386,,,,,,,,,,,,,,,,,,,,,,,310.3125,311.5627,l,1,[],[],[],[],[],[],[],0.5895,1,311.5628,312.0633,,,,,,481,FEM,CON,150,edad,,a,0.5895,,312.0634,312.0634,-0.222490657,0.15115849,0,0,0,,0,63,63,30,1,,,,
,,,,,,6075924bf6fdb1d10daa672a,66a626ef09d4e21e1a8894ec,67360fa78dbaf22aecd1339f,2024-11-14_15h57.04.158,Tarea de género gramatical,2024.2.2,Win32,60.24096386,,,,,,,,,,,,,,,,,,,,,,,312.0642,313.181,l,1,[],[],[],[],[],[],[],0.4622,1,313.181,313.6816,,,,,,843,FEM,AGR,150,alarma,la,a,0.4622,,313.6816,313.6817,-0.222490657,0.15115849,0,0,0,,0,64,64,392,1,,,,
,,,,,,6075924bf6fdb1d10daa672a,66a626ef09d4e21e1a8894ec,67360fa78dbaf22aecd1339f,2024-11-14_15h57.04.158,Tarea de género gramatical,2024.2.2,Win32,60.24096386,,,,,,,,,,,,,,,,,,,,,,,313.6825,314.6825,a,1,[],[],[],[],[],[],[],0.339,1,314.6827,315.1831,,,,,,700,MAS,CON,150,cerdo,,l,0.339,,315.184,315.1855,-0.222490657,0.15115849,0,0,0,,0,65,65,249,1,,,,
,,,,,,6075924bf6fdb1d10daa672a,66a626ef09d4e21e1a8894ec,67360fa78dbaf22aecd1339f,2024-11-14_15h57.04.158,Tarea de género gramatical,2024.2.2,Win32,60.24096386,,,,,,,,,,,,,,,,,,,,,,,315.1865,316.3509,l,1,[],[],[],[],[],[],[],0.4856,1,316.351,316.8515,,,,,,543,FEM,AGR,150,lata,la,a,0.4856,,316.8515,316.8516,-0.222490657,0.15115849,0,0,0,,0,66,66,92,1,,,,
,,,,,,6075924bf6fdb1d10daa672a,66a626ef09d4e21e1a8894ec,67360fa78dbaf22aecd1339f,2024-11-14_15h57.04.158,Tarea de género gramatical,2024.2.2,Win32,60.24096386,,,,,,,,,,,,,,,,,,,,,,,316.8524,318.0525,l,1,[],[],[],[],[],[],[],0.5329,1,318.0527,318.5531,,,,,,458,FEM,DIS,150,idea,el,a,0.5329,,318.5532,318.5532,-0.222490657,0.15115849,0,0,0,,0,67,67,7,1,,,,
,,,,,,6075924bf6fdb1d10daa672a,66a626ef09d4e21e1a8894ec,67360fa78dbaf22aecd1339f,2024-11-14_15h57.04.158,Tarea de género gramatical,2024.2.2,Win32,60.24096386,,,,,,,,,,,,,,,,,,,,,,,318.555,319.6209,a,1,[],[],[],[],[],[],[],0.4016,1,319.6209,320.1213,,,,,,864,MAS,AGR,150,sótano,el,l,0.4016,,320.1214,320.1215,-0.222490657,0.15115849,0,0,0,,0,68,68,413,1,,,,
,,,,,,6075924bf6fdb1d10daa672a,66a626ef09d4e21e1a8894ec,67360fa78dbaf22aecd1339f,2024-11-14_15h57.04.158,Tarea de género gramatical,2024.2.2,Win32,60.24096386,,,,,,,,,,,,,,,,,,,,,,,320.1222,321.3559,a,1,[],[],[],[],[],[],[],0.5719,1,321.3559,321.8564,,,,,,826,MAS,CON,150,efecto,,l,0.5719,,321.8574,321.8587,-0.222490657,0.15115849,0,0,0,,0,69,69,375,1,,,,
,,,,,,6075924bf6fdb1d10daa672a,66a626ef09d4e21e1a8894ec,67360fa78dbaf22aecd1339f,2024-11-14_15h57.04.158,Tarea de género gramatical,2024.2.2,Win32,60.24096386,,,,,,,,,,,,,,,,,,,,,,,321.8598,322.9407,l,1,[],[],[],[],[],[],[],0.4009,1,322.9409,323.4413,,,,,,825,FEM,AGR,150,cadena,la,a,0.4009,,323.4413,323.4413,-0.222490657,0.15115849,0,0,0,,0,70,70,374,1,,,,
,,,,,,6075924bf6fdb1d10daa672a,66a626ef09d4e21e1a8894ec,67360fa78dbaf22aecd1339f,2024-11-14_15h57.04.158,Tarea de género gramatical,2024.2.2,Win32,60.24096386,,,,,,,,,,,,,,,,,,,,,,,323.4423,324.5425,l,1,[],[],[],[],[],[],[],0.4359,1,324.5426,325.0429,,,,,,884,FEM,DIS,150,corona,el,a,0.4359,,325.043,325.043,-0.222490657,0.15115849,0,0,0,,0,71,71,433,1,,,,
,,,,,,6075924bf6fdb1d10daa672a,66a626ef09d4e21e1a8894ec,67360fa78dbaf22aecd1339f,2024-11-14_15h57.04.158,Tarea de género gramatical,2024.2.2,Win32,60.24096386,,,,,,,,,,,,,,,,,,,,,,,325.0439,326.1106,a,1,[],[],[],[],[],[],[],0.4105,1,326.1108,326.6111,,,,,,473,MAS,DIS,150,rato,la,l,0.4105,,326.6113,326.6113,-0.222490657,0.15115849,0,0,0,,0,72,72,22,1,,,,
,,,,,,6075924bf6fdb1d10daa672a,66a626ef09d4e21e1a8894ec,67360fa78dbaf22aecd1339f,2024-11-14_15h57.04.158,Tarea de género gramatical,2024.2.2,Win32,60.24096386,,,,,,,,,,,,,,,,,,,,,,,326.6121,327.7123,l,1,[],[],[],[],[],[],[],0.4338,1,327.7124,328.2129,,,,,,867,FEM,AGR,150,cabaña,la,a,0.4338,,328.213,328.2131,-0.222490657,0.15115849,0,0,0,,0,73,73,416,1,,,,
,,,,,,6075924bf6fdb1d10daa672a,66a626ef09d4e21e1a8894ec,67360fa78dbaf22aecd1339f,2024-11-14_15h57.04.158,Tarea de género gramatical,2024.2.2,Win32,60.24096386,,,,,,,,,,,,,,,,,,,,,,,328.2139,329.3139,l,1,[],[],[],[],[],[],[],0.4364,1,329.3139,329.8141,,,,,,583,FEM,CON,150,joya,,a,0.4364,,329.8148,329.8168,-0.222490657,0.15115849,0,0,0,,0,74,74,132,1,,,,
,,,,,,6075924bf6fdb1d10daa672a,66a626ef09d4e21e1a8894ec,67360fa78dbaf22aecd1339f,2024-11-14_15h57.04.158,Tarea de género gramatical,2024.2.2,Win32,60.24096386,,,,,,,,,,,,,,,,,,,,,,,329.8174,330.8486,l,1,[],[],[],[],[],[],[],0.3576,1,330.8487,331.3492,,,,,,643,FEM,CON,150,bolsa,,a,0.3576,,331.3492,331.3493,-0.222490657,0.15115849,0,0,0,,0,75,75,192,1,,,,
,,,,,,6075924bf6fdb1d10daa672a,66a626ef09d4e21e1a8894ec,67360fa78dbaf22aecd1339f,2024-11-14_15h57.04.158,Tarea de género gramatical,2024.2.2,Win32,60.24096386,,,,,,,,,,,,,,,,,,,,,,,331.3502,332.3836,a,1,[],[],[],[],[],[],[],0.3754,1,332.3836,332.8841,,,,,,762,MAS,AGR,150,equipo,el,l,0.3754,,332.8842,332.8842,-0.222490657,0.15115849,0,0,0,,0,76,76,311,1,,,,
,,,,,,6075924bf6fdb1d10daa672a,66a626ef09d4e21e1a8894ec,67360fa78dbaf22aecd1339f,2024-11-14_15h57.04.158,Tarea de género gramatical,2024.2.2,Win32,60.24096386,,,,,,,,,,,,,,,,,,,,,,,332.885,333.8682,l,1,[],[],[],[],[],[],[],0.3241,1,333.8682,334.3689,,,,,,565,FEM,CON,150,seda,,a,0.3241,,334.3689,334.3691,-0.222490657,0.15115849,0,0,0,,0,77,77,114,1,,,,
,,,,,,6075924bf6fdb1d10daa672a,66a626ef09d4e21e1a8894ec,67360fa78dbaf22aecd1339f,2024-11-14_15h57.04.158,Tarea de género gramatical,2024.2.2,Win32,60.24096386,,,,,,,,,,,,,,,,,,,,,,,334.3698,335.4368,l,1,[],[],[],[],[],[],[],0.3849,1,335.4369,335.9372,,,,,,709,FEM,CON,150,prima,,a,0.3849,,335.9381,335.94,-0.222490657,0.15115849,0,0,0,,0,78,78,258,1,,,,
,,,,,,6075924bf6fdb1d10daa672a,66a626ef09d4e21e1a8894ec,67360fa78dbaf22aecd1339f,2024-11-14_15h57.04.158,Tarea de género gramatical,2024.2.2,Win32,60.24096386,,,,,,,,,,,,,,,,,,,,,,,335.941,336.9715,l,1,[],[],[],[],[],[],[],0.3512,1,336.9716,337.4722,,,,,,776,FEM,DIS,150,música,el,a,0.3512,,337.4723,337.4723,-0.222490657,0.15115849,0,0,0,,0,79,79,325,1,,,,
,,,,,,6075924bf6fdb1d10daa672a,66a626ef09d4e21e1a8894ec,67360fa78dbaf22aecd1339f,2024-11-14_15h57.04.158,Tarea de género gramatical,2024.2.2,Win32,60.24096386,,,,,,,,,,,,,,,,,,,,,,,337.4731,338.4897,l,1,[],[],[],[],[],[],[],0.3343,1,338.4899,338.9902,,,,,,603,FEM,AGR,150,mujer,la,a,0.3343,,338.9902,338.9903,-0.222490657,0.15115849,0,0,0,,0,80,80,152,1,,,,
,,,,,,6075924bf6fdb1d10daa672a,66a626ef09d4e21e1a8894ec,67360fa78dbaf22aecd1339f,2024-11-14_15h57.04.158,Tarea de género gramatical,2024.2.2,Win32,60.24096386,,,,,,,,,,,,,,,,,,,,,,,338.9911,340.0245,l,1,[],[],[],[],[],[],[],0.3677,1,340.0246,340.525,,,,,,723,FEM,AGR,150,tarta,la,a,0.3677,,340.525,340.5251,-0.222490657,0.15115849,0,0,0,,0,81,81,272,1,,,,
,,,,,,6075924bf6fdb1d10daa672a,66a626ef09d4e21e1a8894ec,67360fa78dbaf22aecd1339f,2024-11-14_15h57.04.158,Tarea de género gramatical,2024.2.2,Win32,60.24096386,,,,,,,,,,,,,,,,,,,,,,,340.5261,341.7263,l,1,[],[],[],[],[],[],[],0.5444,1,341.7263,342.2267,,,,,,812,FEM,DIS,150,fuente,el,a,0.5444,,342.2267,342.2268,-0.222490657,0.15115849,0,0,0,,0,82,82,361,1,,,,
,,,,,,6075924bf6fdb1d10daa672a,66a626ef09d4e21e1a8894ec,67360fa78dbaf22aecd1339f,2024-11-14_15h57.04.158,Tarea de género gramatical,2024.2.2,Win32,60.24096386,,,,,,,,,,,,,,,,,,,,,,,342.2276,343.3111,l,1,[],[],[],[],[],[],[],0.4197,1,343.3112,343.8117,,,,,,691,FEM,CON,150,pasta,,a,0.4197,,343.8126,343.8141,-0.222490657,0.15115849,0,0,0,,0,83,83,240,1,,,,
,,,,,,6075924bf6fdb1d10daa672a,66a626ef09d4e21e1a8894ec,67360fa78dbaf22aecd1339f,2024-11-14_15h57.04.158,Tarea de género gramatical,2024.2.2,Win32,60.24096386,,,,,,,,,,,,,,,,,,,,,,,343.8152,344.8961,l,1,[],[],[],[],[],[],[],0.409,1,344.8961,345.3966,,,,,,506,FEM,DIS,150,bola,el,a,0.409,,345.3966,345.3967,-0.222490657,0.15115849,0,0,0,,0,84,84,55,1,,,,
,,,,,,6075924bf6fdb1d10daa672a,66a626ef09d4e21e1a8894ec,67360fa78dbaf22aecd1339f,2024-11-14_15h57.04.158,Tarea de género gramatical,2024.2.2,Win32,60.24096386,,,,,,,,,,,,,,,,,,,,,,,345.3974,346.4476,a,1,[],[],[],[],[],[],[],0.3928,1,346.4477,346.9482,,,,,,874,MAS,CON,150,rastro,,l,0.3928,,346.9483,346.9484,-0.222490657,0.15115849,0,0,0,,0,85,85,423,1,,,,
,,,,,,6075924bf6fdb1d10daa672a,66a626ef09d4e21e1a8894ec,67360fa78dbaf22aecd1339f,2024-11-14_15h57.04.158,Tarea de género gramatical,2024.2.2,Win32,60.24096386,,,,,,,,,,,,,,,,,,,,,,,346.9491,348.1328,a,1,[],[],[],[],[],[],[],0.5208,1,348.1328,348.6332,,,,,,509,MAS,DIS,150,lobo,la,l,0.5208,,348.6332,348.6333,-0.222490657,0.15115849,0,0,0,,0,86,86,58,1,,,,
,,,,,,6075924bf6fdb1d10daa672a,66a626ef09d4e21e1a8894ec,67360fa78dbaf22aecd1339f,2024-11-14_15h57.04.158,Tarea de género gramatical,2024.2.2,Win32,60.24096386,,,,,,,,,,,,,,,,,,,,,,,348.6343,349.6842,a,1,[],[],[],[],[],[],[],0.3846,1,349.6842,350.1846,,,,,,623,MAS,DIS,150,libro,la,l,0.3846,,350.1855,350.187,-0.222490657,0.15115849,0,0,0,,0,87,87,172,1,,,,
,,,,,,6075924bf6fdb1d10daa672a,66a626ef09d4e21e1a8894ec,67360fa78dbaf22aecd1339f,2024-11-14_15h57.04.158,Tarea de género gramatical,2024.2.2,Win32,60.24096386,,,,,,,,,,,,,,,,,,,,,,,350.188,351.2858,a,1,[],[],[],[],[],[],[],0.4279,1,351.2859,351.7862,,,,,,767,MAS,DIS,150,número,la,l,0.4279,,351.7864,351.7865,-0.222490657,0.15115849,0,0,0,,0,88,88,316,1,,,,
,,,,,,6075924bf6fdb1d10daa672a,66a626ef09d4e21e1a8894ec,67360fa78dbaf22aecd1339f,2024-11-14_15h57.04.158,Tarea de género gramatical,2024.2.2,Win32,60.24096386,,,,,,,,,,,,,,,,,,,,,,,351.7874,352.8707,l,1,[],[],[],[],[],[],[],0.4189,1,352.8708,353.3712,,,,,,693,FEM,AGR,150,salsa,la,a,0.4189,,353.3713,353.3714,-0.222490657,0.15115849,0,0,0,,0,89,89,242,1,,,,
,,,,,,6075924bf6fdb1d10daa672a,66a626ef09d4e21e1a8894ec,67360fa78dbaf22aecd1339f,2024-11-14_15h57.04.158,Tarea de género gramatical,2024.2.2,Win32,60.24096386,,,,,,,,,,,,,,,,,,,,,,,353.3722,354.6225,l,1,[],[],[],[],[],[],[],0.594,1,354.6226,355.1229,,,,,,560,FEM,DIS,150,rosa,el,a,0.594,,355.123,355.123,-0.222490657,0.15115849,0,0,0,,0,90,90,109,1,,,,
,,,,,,6075924bf6fdb1d10daa672a,66a626ef09d4e21e1a8894ec,67360fa78dbaf22aecd1339f,2024-11-14_15h57.04.158,Tarea de género gramatical,2024.2.2,Win32,60.24096386,,,,,,,,,,,,,,,,,,,,,,,355.1239,356.3075,l,1,[],[],[],[],[],[],[],0.5187,1,356.3075,356.8078,,,,,,591,FEM,AGR,150,cera,la,a,0.5187,,356.8079,356.8079,-0.222490657,0.15115849,0,0,0,,0,91,91,140,1,,,,
,,,,,,6075924bf6fdb1d10daa672a,66a626ef09d4e21e1a8894ec,67360fa78dbaf22aecd1339f,2024-11-14_15h57.04.158,Tarea de género gramatical,2024.2.2,Win32,60.24096386,,,,,,,,,,,,,,,,,,,,,,,356.8088,358.0425,l,1,[],[],[],[],[],[],[],0.5737,1,358.0425,358.5431,,,,,,517,FEM,CON,150,miel,,a,0.5737,,358.544,358.5455,-0.222490657,0.15115849,0,0,0,,0,92,92,66,1,,,,
,,,,,,6075924bf6fdb1d10daa672a,66a626ef09d4e21e1a8894ec,67360fa78dbaf22aecd1339f,2024-11-14_15h57.04.158,Tarea de género gramatical,2024.2.2,Win32,60.24096386,,,,,,,,,,,,,,,,,,,,,,,358.5464,359.6775,a,1,[],[],[],[],[],[],[],0.4513,1,359.6776,360.1783,,,,,,886,MAS,CON,150,objeto,,l,0.4513,,360.1783,360.1783,-0.222490657,0.15115849,0,0,0,,0,93,93,435,1,,,,
,,,,,,6075924bf6fdb1d10daa672a,66a626ef09d4e21e1a8894ec,67360fa78dbaf22aecd1339f,2024-11-14_15h57.04.158,Tarea de género gramatical,2024.2.2,Win32,60.24096386,,,,,,,,,,,,,,,,,,,,,,,360.1792,361.5126,l,1,[],[],[],[],[],[],[],0.6512,1,361.5127,362.0132,,,,,,739,FEM,CON,150,tabla,,a,0.6512,,362.0132,362.0132,-0.222490657,0.15115849,0,0,0,,0,94,94,288,1,,,,
,,,,,,6075924bf6fdb1d10daa672a,66a626ef09d4e21e1a8894ec,67360fa78dbaf22aecd1339f,2024-11-14_15h57.04.158,Tarea de género gramatical,2024.2.2,Win32,60.24096386,,,,,,,,,,,,,,,,,,,,,,,362.014,363.2478,l,1,[],[],[],[],[],[],[],0.5686,1,363.2479,363.7481,,,,,,687,FEM,AGR,150,ducha,la,a,0.5686,,363.7482,363.7482,-0.222490657,0.15115849,0,0,0,,0,95,95,236,1,,,,
,,,,,,6075924bf6fdb1d10daa672a,66a626ef09d4e21e1a8894ec,67360fa78dbaf22aecd1339f,2024-11-14_15h57.04.158,Tarea de género gramatical,2024.2.2,Win32,60.24096386,,,,,,,,,,,,,,,,,,,,,,,363.7491,364.9994,l,1,[],[],[],[],[],[],[],0.593,1,364.9995,365.5,,,,,,535,FEM,CON,150,gira,,a,0.593,,365.5009,365.502,-0.222490657,0.15115849,0,0,0,,0,96,96,84,1,,,,
,,,,,,6075924bf6fdb1d10daa672a,66a626ef09d4e21e1a8894ec,67360fa78dbaf22aecd1339f,2024-11-14_15h57.04.158,Tarea de género gramatical,2024.2.2,Win32,60.24096386,,,,,,,,,,,,,,,,,,,,,,,365.5033,366.6346,a,1,[],[],[],[],[],[],[],0.4513,1,366.6346,367.135,,,,,,815,MAS,DIS,150,código,la,l,0.4513,,367.1351,367.1351,-0.222490657,0.15115849,0,0,0,,0,97,97,364,1,,,,
,,,,,,6075924bf6fdb1d10daa672a,66a626ef09d4e21e1a8894ec,67360fa78dbaf22aecd1339f,2024-11-14_15h57.04.158,Tarea de género gramatical,2024.2.2,Win32,60.24096386,,,,,,,,,,,,,,,,,,,,,,,367.136,368.3027,l,1,[],[],[],[],[],[],[],0.5105,1,368.3028,368.8033,,,,,,567,FEM,AGR,150,raya,la,a,0.5105,,368.8033,368.8034,-0.222490657,0.15115849,0,0,0,,0,98,98,116,1,,,,
,,,,,,6075924bf6fdb1d10daa672a,66a626ef09d4e21e1a8894ec,67360fa78dbaf22aecd1339f,2024-11-14_15h57.04.158,Tarea de género gramatical,2024.2.2,Win32,60.24096386,,,,,,,,,,,,,,,,,,,,,,,368.8043,369.921,l,1,[],[],[],[],[],[],[],0.4513,1,369.921,370.4216,,,,,,483,FEM,AGR,150,boda,la,a,0.4513,,370.4217,370.4218,-0.222490657,0.15115849,0,0,0,,0,99,99,32,1,,,,
,,,,,,6075924bf6fdb1d10daa672a,66a626ef09d4e21e1a8894ec,67360fa78dbaf22aecd1339f,2024-11-14_15h57.04.158,Tarea de género gramatical,2024.2.2,Win32,60.24096386,,,,,,,,,,,,,,,,,,,,,,,370.4226,371.5394,a,1,[],[],[],[],[],[],[],0.4557,1,371.5395,372.0399,,,,,,774,MAS,AGR,150,cuarto,el,l,0.4557,,372.0399,372.0399,-0.222490657,0.15115849,0,0,0,,0,100,100,323,1,,,,
,,,,,,6075924bf6fdb1d10daa672a,66a626ef09d4e21e1a8894ec,67360fa78dbaf22aecd1339f,2024-11-14_15h57.04.158,Tarea de género gramatical,2024.2.2,Win32,60.24096386,,,,,,,,,,,,,,,,,,,,,,,372.041,373.1578,l,1,[],[],[],[],[],[],[],0.4609,1,373.1578,373.6582,,,,,,795,FEM,AGR,150,pierna,la,a,0.4609,,373.6616,373.6619,-0.222490657,0.15115849,0,0,0,,0,101,101,344,1,,,,
,,,,,,6075924bf6fdb1d10daa672a,66a626ef09d4e21e1a8894ec,67360fa78dbaf22aecd1339f,2024-11-14_15h57.04.158,Tarea de género gramatical,2024.2.2,Win32,60.24096386,,,,,,,,,,,,,,,,,,,,,,,373.6624,374.8428,a,1,[],[],[],[],[],[],[],0.5067,1,374.8428,375.3432,,,,,,503,MAS,DIS,150,vaso,la,l,0.5067,,375.3433,375.3434,-0.222490657,0.15115849,0,0,0,,0,102,102,52,1,,,,
,,,,,,6075924bf6fdb1d10daa672a,66a626ef09d4e21e1a8894ec,67360fa78dbaf22aecd1339f,2024-11-14_15h57.04.158,Tarea de género gramatical,2024.2.2,Win32,60.24096386,,,,,,,,,,,,,,,,,,,,,,,375.3442,376.5277,a,1,[],[],[],[],[],[],[],0.5184,1,376.5278,377.0282,,,,,,454,MAS,CON,150,hijo,,l,0.5184,,377.0283,377.0283,-0.222490657,0.15115849,0,0,0,,0,103,103,3,1,,,,
,,,,,,6075924bf6fdb1d10daa672a,66a626ef09d4e21e1a8894ec,67360fa78dbaf22aecd1339f,2024-11-14_15h57.04.158,Tarea de género gramatical,2024.2.2,Win32,60.24096386,,,,,,,,,,,,,,,,,,,,,,,377.0291,378.2293,a,1,[],[],[],[],[],[],[],0.5451,1,378.2294,378.73,,,,,,798,MAS,AGR,150,anillo,el,l,0.5451,,378.73,378.7301,-0.222490657,0.15115849,0,0,0,,0,104,104,347,1,,,,
,,,,,,6075924bf6fdb1d10daa672a,66a626ef09d4e21e1a8894ec,67360fa78dbaf22aecd1339f,2024-11-14_15h57.04.158,Tarea de género gramatical,2024.2.2,Win32,60.24096386,,,,,,,,,,,,,,,,,,,,,,,378.7312,379.8476,a,1,[],[],[],[],[],[],[],0.4519,1,379.8478,380.3482,,,,,,718,MAS,CON,150,truco,,l,0.4519,,380.3492,380.3505,-0.222490657,0.15115849,0,0,0,,0,105,105,267,1,,,,
,,,,,,6075924bf6fdb1d10daa672a,66a626ef09d4e21e1a8894ec,67360fa78dbaf22aecd1339f,2024-11-14_15h57.04.158,Tarea de género gramatical,2024.2.2,Win32,60.24096386,,,,,,,,,,,,,,,,,,,,,,,380.3515,381.4493,l,1,[],[],[],[],[],[],[],0.418,1,381.4493,381.9499,,,,,,866,FEM,DIS,150,colina,el,a,0.418,,381.95,381.9501,-0.222490657,0.15115849,0,0,0,,0,106,106,415,1,,,,
,,,,,,6075924bf6fdb1d10daa672a,66a626ef09d4e21e1a8894ec,67360fa78dbaf22aecd1339f,2024-11-14_15h57.04.158,Tarea de género gramatical,2024.2.2,Win32,60.24096386,,,,,,,,,,,,,,,,,,,,,,,381.9508,383.1844,l,1,[],[],[],[],[],[],[],0.5674,1,383.1845,383.6849,,,,,,686,FEM,DIS,150,deuda,el,a,0.5674,,383.6849,383.685,-0.222490657,0.15115849,0,0,0,,0,107,107,235,1,,,,
,,,,,,6075924bf6fdb1d10daa672a,66a626ef09d4e21e1a8894ec,67360fa78dbaf22aecd1339f,2024-11-14_15h57.04.158,Tarea de género gramatical,2024.2.2,Win32,60.24096386,,,,,,,,,,,,,,,,,,,,,,,383.6857,384.8026,l,1,[],[],[],[],[],[],[],0.4519,1,384.8027,385.3031,,,,,,548,FEM,DIS,150,fuga,el,a,0.4519,,385.3031,385.3031,-0.222490657,0.15115849,0,0,0,,0,108,108,97,1,,,,
,,,,,,6075924bf6fdb1d10daa672a,66a626ef09d4e21e1a8894ec,67360fa78dbaf22aecd1339f,2024-11-14_15h57.04.158,Tarea de género gramatical,2024.2.2,Win32,60.24096386,,,,,,,,,,,,,,,,,,,,,,,385.3041,386.3707,l,1,[],[],[],[],[],[],[],0.4061,1,386.3708,386.8712,,,,,,465,FEM,AGR,150,cama,la,a,0.4061,,386.8713,386.8713,-0.222490657,0.15115849,0,0,0,,0,109,109,14,1,,,,
,,,,,,6075924bf6fdb1d10daa672a,66a626ef09d4e21e1a8894ec,67360fa78dbaf22aecd1339f,2024-11-14_15h57.04.158,Tarea de género gramatical,2024.2.2,Win32,60.24096386,,,,,,,,,,,,,,,,,,,,,,,386.8722,388.0225,a,1,[],[],[],[],[],[],[],0.4858,1,388.0226,388.523,,,,,,828,MAS,AGR,150,pastel,el,l,0.4858,,388.5238,388.525,-0.222490657,0.15115849,0,0,0,,0,110,110,377,1,,,,
,,,,,,6075924bf6fdb1d10daa672a,66a626ef09d4e21e1a8894ec,67360fa78dbaf22aecd1339f,2024-11-14_15h57.04.158,Tarea de género gramatical,2024.2.2,Win32,60.24096386,,,,,,,,,,,,,,,,,,,,,,,388.5262,389.7409,a,1,[],[],[],[],[],[],[],0.5374,1,389.741,390.2414,,,,,,611,MAS,DIS,150,chico,la,l,0.5374,,390.2414,390.2414,-0.222490657,0.15115849,0,0,0,,0,111,111,160,1,,,,
,,,,,,6075924bf6fdb1d10daa672a,66a626ef09d4e21e1a8894ec,67360fa78dbaf22aecd1339f,2024-11-14_15h57.04.158,Tarea de género gramatical,2024.2.2,Win32,60.24096386,,,,,,,,,,,,,,,,,,,,,,,390.2428,391.3758,a,1,[],[],[],[],[],[],[],0.4757,1,391.3759,391.8763,,,,,,791,MAS,DIS,150,precio,la,l,0.4757,,391.8763,391.8764,-0.222490657,0.15115849,0,0,0,,0,112,112,340,1,,,,
,,,,,,6075924bf6fdb1d10daa672a,66a626ef09d4e21e1a8894ec,67360fa78dbaf22aecd1339f,2024-11-14_15h57.04.158,Tarea de género gramatical,2024.2.2,Win32,60.24096386,,,,,,,,,,,,,,,,,,,,,,,391.8773,393.0441,a,1,[],[],[],[],[],[],[],0.4899,1,393.0443,393.5447,,,,,,714,MAS,AGR,150,pollo,el,l,0.4899,,393.5448,393.5449,-0.222490657,0.15115849,0,0,0,,0,113,113,263,1,,,,
,,,,,,6075924bf6fdb1d10daa672a,66a626ef09d4e21e1a8894ec,67360fa78dbaf22aecd1339f,2024-11-14_15h57.04.158,Tarea de género gramatical,2024.2.2,Win32,60.24096386,,,,,,,,,,,,,,,,,,,,,,,393.5458,394.7136,a,1,[],[],[],[],[],[],[],0.5088,1,394.7136,395.2131,,,,,,526,MAS,CON,150,lujo,,l,0.5088,,395.2139,395.2151,-0.222490657,0.15115849,0,0,0,,0,114,114,75,1,,,,
,,,,,,6075924bf6fdb1d10daa672a,66a626ef09d4e21e1a8894ec,67360fa78dbaf22aecd1339f,2024-11-14_15h57.04.158,Tarea de género gramatical,2024.2.2,Win32,60.24096386,,,,,,,,,,,,,,,,,,,,,,,395.2162,396.3308,l,1,[],[],[],[],[],[],[],0.4397,1,396.3308,396.8312,,,,,,619,FEM,CON,150,vista,,a,0.4397,,396.8313,396.8314,-0.222490657,0.15115849,0,0,0,,0,115,115,168,1,,,,
,,,,,,6075924bf6fdb1d10daa672a,66a626ef09d4e21e1a8894ec,67360fa78dbaf22aecd1339f,2024-11-14_15h57.04.158,Tarea de género gramatical,2024.2.2,Win32,60.24096386,,,,,,,,,,,,,,,,,,,,,,,396.8322,397.9324,a,1,[],[],[],[],[],[],[],0.4346,1,397.9324,398.4328,,,,,,816,MAS,AGR,150,riesgo,el,l,0.4346,,398.4328,398.4329,-0.222490657,0.15115849,0,0,0,,0,116,116,365,1,,,,
,,,,,,6075924bf6fdb1d10daa672a,66a626ef09d4e21e1a8894ec,67360fa78dbaf22aecd1339f,2024-11-14_15h57.04.158,Tarea de género gramatical,2024.2.2,Win32,60.24096386,,,,,,,,,,,,,,,,,,,,,,,398.4337,399.5674,l,1,[],[],[],[],[],[],[],0.4687,1,399.5674,400.0679,,,,,,597,FEM,AGR,150,grúa,la,a,0.4687,,400.068,400.068,-0.222490657,0.15115849,0,0,0,,0,117,117,146,1,,,,
,,,,,,6075924bf6fdb1d10daa672a,66a626ef09d4e21e1a8894ec,67360fa78dbaf22aecd1339f,2024-11-14_15h57.04.158,Tarea de género gramatical,2024.2.2,Win32,60.24096386,,,,,,,,,,,,,,,,,,,,,,,400.0688,401.1689,a,1,[],[],[],[],[],[],[],0.4418,1,401.1689,401.6696,,,,,,892,MAS,CON,150,cuadro,,l,0.4418,,401.6696,401.6697,-0.222490657,0.15115849,0,0,0,,0,118,118,441,1,,,,
,,,,,,6075924bf6fdb1d10daa672a,66a626ef09d4e21e1a8894ec,67360fa78dbaf22aecd1339f,2024-11-14_15h57.04.158,Tarea de género gramatical,2024.2.2,Win32,60.24096386,,,,,,,,,,,,,,,,,,,,,,,401.6706,402.7874,a,1,[],[],[],[],[],[],[],0.4557,1,402.7874,403.2877,,,,,,502,MAS,CON,150,lago,,l,0.4557,,403.2886,403.2897,-0.222490657,0.15115849,0,0,0,,0,119,119,51,1,,,,
,,,,,,6075924bf6fdb1d10daa672a,66a626ef09d4e21e1a8894ec,67360fa78dbaf22aecd1339f,2024-11-14_15h57.04.158,Tarea de género gramatical,2024.2.2,Win32,60.24096386,,,,,,,,,,,,,,,,,,,,,,,403.291,404.3723,a,1,[],[],[],[],[],[],[],0.401,1,404.3724,404.8727,,,,,,750,MAS,AGR,150,túnel,el,l,0.401,,404.8727,404.8728,-0.222490657,0.15115849,0,0,0,,0,120,120,299,1,,,,
,,,,,,6075924bf6fdb1d10daa672a,66a626ef09d4e21e1a8894ec,67360fa78dbaf22aecd1339f,2024-11-14_15h57.04.158,Tarea de género gramatical,2024.2.2,Win32,60.24096386,,,,,,,,,,,,,,,,,,,,,,,404.8737,405.9906,l,1,[],[],[],[],[],[],[],0.4602,1,405.9906,406.4909,,,,,,632,FEM,DIS,150,prisa,el,a,0.4602,,406.491,406.491,-0.222490657,0.15115849,0,0,0,,0,121,121,181,1,,,,
,,,,,,6075924bf6fdb1d10daa672a,66a626ef09d4e21e1a8894ec,67360fa78dbaf22aecd1339f,2024-11-14_15h57.04.158,Tarea de género gramatical,2024.2.2,Win32,60.24096386,,,,,,,,,,,,,,,,,,,,,,,406.4918,407.629,a,1,[],[],[],[],[],[],[],0.4674,1,407.629,408.1259,,,,,,790,MAS,CON,150,pasado,,l,0.4674,,408.126,408.126,-0.222490657,0.15115849,0,0,0,,0,122,122,339,1,,,,
,,,,,,6075924bf6fdb1d10daa672a,66a626ef09d4e21e1a8894ec,67360fa78dbaf22aecd1339f,2024-11-14_15h57.04.158,Tarea de género gramatical,2024.2.2,Win32,60.24096386,,,,,,,,,,,,,,,,,,,,,,,408.1268,409.1937,l,1,[],[],[],[],[],[],[],0.4076,1,409.1937,409.6941,,,,,,530,FEM,DIS,150,vaca,el,a,0.4076,,409.6951,409.6966,-0.222490657,0.15115849,0,0,0,,0,123,123,79,1,,,,
,,,,,,6075924bf6fdb1d10daa672a,66a626ef09d4e21e1a8894ec,67360fa78dbaf22aecd1339f,2024-11-14_15h57.04.158,Tarea de género gramatical,2024.2.2,Win32,60.24096386,,,,,,,,,,,,,,,,,,,,,,,409.6976,410.7787,l,1,[],[],[],[],[],[],[],0.4035,1,410.7788,411.279,,,,,,847,FEM,CON,150,cuerda,,a,0.4035,,411.2791,411.2792,-0.222490657,0.15115849,0,0,0,,0,124,124,396,1,,,,
,,,,,,6075924bf6fdb1d10daa672a,66a626ef09d4e21e1a8894ec,67360fa78dbaf22aecd1339f,2024-11-14_15h57.04.158,Tarea de género gramatical,2024.2.2,Win32,60.24096386,,,,,,,,,,,,,,,,,,,,,,,411.2799,412.3634,a,1,[],[],[],[],[],[],[],0.4223,1,412.3635,412.864,,,,,,724,MAS,CON,150,motor,,l,0.4223,,412.8641,412.8642,-0.222490657,0.15115849,0,0,0,,0,125,125,273,1,,,,
,,,,,,6075924bf6fdb1d10daa672a,66a626ef09d4e21e1a8894ec,67360fa78dbaf22aecd1339f,2024-11-14_15h57.04.158,Tarea de género gramatical,2024.2.2,Win32,60.24096386,,,,,,,,,,,,,,,,,,,,,,,412.865,414.1152,a,1,[],[],[],[],[],[],[],0.5725,1,414.1152,414.6157,,,,,,456,MAS,AGR,150,lado,el,l,0.5725,,414.6158,414.6158,-0.222490657,0.15115849,0,0,0,,0,126,126,5,1,,,,
,,,,,,6075924bf6fdb1d10daa672a,66a626ef09d4e21e1a8894ec,67360fa78dbaf22aecd1339f,2024-11-14_15h57.04.158,Tarea de género gramatical,2024.2.2,Win32,60.24096386,,,,,,,,,,,,,,,,,,,,,,,414.6167,415.6835,l,1,[],[],[],[],[],[],[],0.4059,1,415.6836,416.1839,,,,,,607,FEM,CON,150,madre,,a,0.4059,,416.184,416.1841,-0.222490657,0.15115849,0,0,0,,0,127,127,156,1,,,,
,,,,,,6075924bf6fdb1d10daa672a,66a626ef09d4e21e1a8894ec,67360fa78dbaf22aecd1339f,2024-11-14_15h57.04.158,Tarea de género gramatical,2024.2.2,Win32,60.24096386,,,,,,,,,,,,,,,,,,,,,,,416.1849,417.5185,a,1,[],[],[],[],[],[],[],0.6688,1,417.5186,418.0193,,,,,,784,MAS,CON,150,ataque,,l,0.6688,,418.0201,418.0214,-0.222490657,0.15115849,0,0,0,,0,128,128,333,1,,,,
,,,,,,6075924bf6fdb1d10daa672a,66a626ef09d4e21e1a8894ec,67360fa78dbaf22aecd1339f,2024-11-14_15h57.04.158,Tarea de género gramatical,2024.2.2,Win32,60.24096386,,,,,,,,,,,,,,,,,,,,,,,418.0225,419.2203,a,1,[],[],[],[],[],[],[],0.5218,1,419.2203,419.721,,,,,,689,MAS,DIS,150,reloj,la,l,0.5218,,419.721,419.721,-0.222490657,0.15115849,0,0,0,,0,129,129,238,1,,,,
,,,,,,6075924bf6fdb1d10daa672a,66a626ef09d4e21e1a8894ec,67360fa78dbaf22aecd1339f,2024-11-14_15h57.04.158,Tarea de género gramatical,2024.2.2,Win32,60.24096386,,,,,,,,,,,,,,,,,,,,,,,419.7219,420.9053,a,1,[],[],[],[],[],[],[],0.5178,1,420.9053,421.4057,,,,,,485,MAS,DIS,150,taxi,la,l,0.5178,,421.4058,421.4059,-0.222490657,0.15115849,0,0,0,,0,130,130,34,1,,,,
,,,,,,6075924bf6fdb1d10daa672a,66a626ef09d4e21e1a8894ec,67360fa78dbaf22aecd1339f,2024-11-14_15h57.04.158,Tarea de género gramatical,2024.2.2,Win32,60.24096386,,,,,,,,,,,,,,,,,,,,,,,421.4068,422.5237,a,1,[],[],[],[],[],[],[],0.4553,1,422.5237,423.0241,,,,,,720,MAS,AGR,150,queso,el,l,0.4553,,423.0241,423.0242,-0.222490657,0.15115849,0,0,0,,0,131,131,269,1,,,,
,,,,,,6075924bf6fdb1d10daa672a,66a626ef09d4e21e1a8894ec,67360fa78dbaf22aecd1339f,2024-11-14_15h57.04.158,Tarea de género gramatical,2024.2.2,Win32,60.24096386,,,,,,,,,,,,,,,,,,,,,,,423.0251,424.2423,a,1,[],[],[],[],[],[],[],0.5518,1,424.2423,424.7426,,,,,,604,MAS,CON,150,padre,,l,0.5518,,424.7433,424.7444,-0.222490657,0.15115849,0,0,0,,0,132,132,153,1,,,,
,,,,,,6075924bf6fdb1d10daa672a,66a626ef09d4e21e1a8894ec,67360fa78dbaf22aecd1339f,2024-11-14_15h57.04.158,Tarea de género gramatical,2024.2.2,Win32,60.24096386,,,,,,,,,,,,,,,,,,,,,,,424.7457,425.8937,l,1,[],[],[],[],[],[],[],0.4697,1,425.8938,426.3941,,,,,,824,FEM,DIS,150,herida,el,a,0.4697,,426.3941,426.3942,-0.222490657,0.15115849,0,0,0,,0,133,133,373,1,,,,
,,,,,,6075924bf6fdb1d10daa672a,66a626ef09d4e21e1a8894ec,67360fa78dbaf22aecd1339f,2024-11-14_15h57.04.158,Tarea de género gramatical,2024.2.2,Win32,60.24096386,,,,,,,,,,,,,,,,,,,,,,,426.395,427.5786,a,1,[],[],[],[],[],[],[],0.5229,1,427.5787,428.0796,,,,,,587,MAS,DIS,150,coco,la,l,0.5229,,428.0796,428.0798,-0.222490657,0.15115849,0,0,0,,0,134,134,136,1,,,,
,,,,,,6075924bf6fdb1d10daa672a,66a626ef09d4e21e1a8894ec,67360fa78dbaf22aecd1339f,2024-11-14_15h57.04.158,Tarea de género gramatical,2024.2.2,Win32,60.24096386,,,,,,,,,,,,,,,,,,,,,,,428.0807,429.6306,l,1,[],[],[],[],[],[],[],0.8778,1,429.6306,430.1312,,,,,,656,FEM,DIS,150,época,el,a,0.8778,,430.1313,430.1314,-0.222490657,0.15115849,0,0,0,,0,135,135,205,1,,,,
,,,,,,6075924bf6fdb1d10daa672a,66a626ef09d4e21e1a8894ec,67360fa78dbaf22aecd1339f,2024-11-14_15h57.04.158,Tarea de género gramatical,2024.2.2,Win32,60.24096386,,,,,,,,,,,,,,,,,,,,,,,430.1321,431.3489,a,1,[],[],[],[],[],[],[],0.5617,1,431.349,431.8496,,,,,,467,MAS,DIS,150,modo,la,l,0.5617,,431.8497,431.8497,-0.222490657,0.15115849,0,0,0,,0,136,136,16,1,,,,
,,,,,,6075924bf6fdb1d10daa672a,66a626ef09d4e21e1a8894ec,67360fa78dbaf22aecd1339f,2024-11-14_15h57.04.158,Tarea de género gramatical,2024.2.2,Win32,60.24096386,,,,,,,,,,,,,,,,,,,,,,,431.8506,433.0341,a,1,[],[],[],[],[],[],[],0.5234,1,433.0342,433.5346,,,,,,635,MAS,DIS,150,sueño,la,l,0.5234,,433.5355,433.5367,-0.222490657,0.15115849,0,0,0,,0,137,137,184,1,,,,
,,,,,,6075924bf6fdb1d10daa672a,66a626ef09d4e21e1a8894ec,67360fa78dbaf22aecd1339f,2024-11-14_15h57.04.158,Tarea de género gramatical,2024.2.2,Win32,60.24096386,,,,,,,,,,,,,,,,,,,,,,,433.5378,434.986,a,1,[],[],[],[],[],[],[],0.7745,1,434.9861,435.4864,,,,,,732,MAS,AGR,150,bolso,el,l,0.7745,,435.4865,435.4865,-0.222490657,0.15115849,0,0,0,,0,138,138,281,1,,,,
,,,,,,6075924bf6fdb1d10daa672a,66a626ef09d4e21e1a8894ec,67360fa78dbaf22aecd1339f,2024-11-14_15h57.04.158,Tarea de género gramatical,2024.2.2,Win32,60.24096386,,,,,,,,,,,,,,,,,,,,,,,435.4873,436.6211,a,1,[],[],[],[],[],[],[],0.4675,1,436.6211,437.1216,,,,,,557,MAS,DIS,150,cubo,la,l,0.4675,,437.1217,437.1217,-0.222490657,0.15115849,0,0,0,,0,139,139,106,1,,,,
,,,,,,6075924bf6fdb1d10daa672a,66a626ef09d4e21e1a8894ec,67360fa78dbaf22aecd1339f,2024-11-14_15h57.04.158,Tarea de género gramatical,2024.2.2,Win32,60.24096386,,,,,,,,,,,,,,,,,,,,,,,437.1225,438.2726,a,1,[],[],[],[],[],[],[],0.4753,1,438.2727,438.7732,,,,,,556,MAS,CON,150,test,,l,0.4753,,438.7732,438.7733,-0.222490657,0.15115849,0,0,0,,0,140,140,105,1,,,,
,,,,,,6075924bf6fdb1d10daa672a,66a626ef09d4e21e1a8894ec,67360fa78dbaf22aecd1339f,2024-11-14_15h57.04.158,Tarea de género gramatical,2024.2.2,Win32,60.24096386,,,,,,,,,,,,,,,,,,,,,,,438.7742,439.8241,a,1,[],[],[],[],[],[],[],0.3925,1,439.8242,440.3246,,,,,,766,MAS,CON,150,cuerpo,,l,0.3925,,440.3255,440.3266,-0.222490657,0.15115849,0,0,0,,0,141,141,315,1,,,,
,,,,,,6075924bf6fdb1d10daa672a,66a626ef09d4e21e1a8894ec,67360fa78dbaf22aecd1339f,2024-11-14_15h57.04.158,Tarea de género gramatical,2024.2.2,Win32,60.24096386,,,,,,,,,,,,,,,,,,,,,,,440.3278,441.3424,l,1,[],[],[],[],[],[],[],0.344,1,441.3426,441.843,,,,,,818,FEM,DIS,150,gracia,el,a,0.344,,441.8431,441.8431,-0.222490657,0.15115849,0,0,0,,0,142,142,367,1,,,,
,,,,,,6075924bf6fdb1d10daa672a,66a626ef09d4e21e1a8894ec,67360fa78dbaf22aecd1339f,2024-11-14_15h57.04.158,Tarea de género gramatical,2024.2.2,Win32,60.24096386,,,,,,,,,,,,,,,,,,,,,,,441.8439,442.9274,l,1,[],[],[],[],[],[],[],0.4014,1,442.9275,443.4278,,,,,,590,FEM,DIS,150,mula,el,a,0.4014,,443.4279,443.428,-0.222490657,0.15115849,0,0,0,,0,143,143,139,1,,,,
,,,,,,6075924bf6fdb1d10daa672a,66a626ef09d4e21e1a8894ec,67360fa78dbaf22aecd1339f,2024-11-14_15h57.04.158,Tarea de género gramatical,2024.2.2,Win32,60.24096386,,,,,,,,,,,,,,,,,,,,,,,443.4288,444.4789,l,1,[],[],[],[],[],[],[],0.3858,1,444.479,444.9794,,,,,,451,FEM,CON,150,casa,,a,0.3858,,444.9795,444.9795,-0.222490657,0.15115849,0,0,0,,0,144,144,0,1,,,,
,,,,,,6075924bf6fdb1d10daa672a,66a626ef09d4e21e1a8894ec,67360fa78dbaf22aecd1339f,2024-11-14_15h57.04.158,Tarea de género gramatical,2024.2.2,Win32,60.24096386,,,,,,,,,,,,,,,,,,,,,,,444.9804,446.0304,a,1,[],[],[],[],[],[],[],0.3859,1,446.0304,446.531,,,,,,624,MAS,AGR,150,perro,el,l,0.3859,,446.531,446.5311,-0.222490657,0.15115849,0,0,0,,0,145,145,173,1,,,,
,,,,,,6075924bf6fdb1d10daa672a,66a626ef09d4e21e1a8894ec,67360fa78dbaf22aecd1339f,2024-11-14_15h57.04.158,Tarea de género gramatical,2024.2.2,Win32,60.24096386,,,,,,,,,,,,,,,,,,,,,,,446.5318,447.6655,l,1,[],[],[],[],[],[],[],0.4744,1,447.6655,448.1659,,,,,,763,FEM,CON,150,ciudad,,a,0.4744,,448.1668,448.1685,-0.222490657,0.15115849,0,0,0,,0,146,146,312,1,,,,
,,,,,,6075924bf6fdb1d10daa672a,66a626ef09d4e21e1a8894ec,67360fa78dbaf22aecd1339f,2024-11-14_15h57.04.158,Tarea de género gramatical,2024.2.2,Win32,60.24096386,,,,,,,,,,,,,,,,,,,,,,,448.1693,449.2836,l,1,[],[],[],[],[],[],[],0.4344,1,449.2837,449.7841,,,,,,751,FEM,CON,150,verdad,,a,0.4344,,449.7842,449.7843,-0.222490657,0.15115849,0,0,0,,0,147,147,300,1,,,,
,,,,,,6075924bf6fdb1d10daa672a,66a626ef09d4e21e1a8894ec,67360fa78dbaf22aecd1339f,2024-11-14_15h57.04.158,Tarea de género gramatical,2024.2.2,Win32,60.24096386,,,,,,,,,,,,,,,,,,,,,,,449.7852,450.952,l,1,[],[],[],[],[],[],[],0.5095,1,450.952,451.4526,,,,,,596,FEM,DIS,150,lana,el,a,0.5095,,451.4526,451.4527,-0.222490657,0.15115849,0,0,0,,0,148,148,145,1,,,,
,,,,,,6075924bf6fdb1d10daa672a,66a626ef09d4e21e1a8894ec,67360fa78dbaf22aecd1339f,2024-11-14_15h57.04.158,Tarea de género gramatical,2024.2.2,Win32,60.24096386,,,,,,,,,,,,,,,,,,,,,,,451.4536,452.5369,a,1,[],[],[],[],[],[],[],0.4186,1,452.537,453.0374,,,,,,893,MAS,DIS,150,templo,la,l,0.4186,,453.0375,453.0376,-0.222490657,0.15115849,0,0,0,,0,149,149,442,1,,,,
,,,,,,6075924bf6fdb1d10daa672a,66a626ef09d4e21e1a8894ec,67360fa78dbaf22aecd1339f,2024-11-14_15h57.04.158,Tarea de género gramatical,2024.2.2,Win32,60.24096386,,,,,,,,,,,,,,,,,,,,,,,453.0384,454.2886,l,1,[],[],[],[],[],[],[],0.5679,1,454.2887,454.7892,,,,,,813,FEM,AGR,150,unidad,la,a,0.5679,,454.79,464.7325,-0.222490657,0.15115849,0,0,0,space,0,150,150,362,1,9.9212,,,
,,,,,,6075924bf6fdb1d10daa672a,66a626ef09d4e21e1a8894ec,67360fa78dbaf22aecd1339f,2024-11-14_15h57.04.158,Tarea de género gramatical,2024.2.2,Win32,60.24096386,,,,,,,,,,,,,,,,,,,,,,,464.7334,465.8337,a,1,[],[],[],[],[],[],[],0.4237,1,465.8337,466.3341,,,,,,586,MAS,CON,150,vago,,l,0.4237,,466.3341,466.3342,-0.222490657,0.15115849,0,0,0,,0,151,151,135,1,,,,
,,,,,,6075924bf6fdb1d10daa672a,66a626ef09d4e21e1a8894ec,67360fa78dbaf22aecd1339f,2024-11-14_15h57.04.158,Tarea de género gramatical,2024.2.2,Win32,60.24096386,,,,,,,,,,,,,,,,,,,,,,,466.3349,467.4019,a,1,[],[],[],[],[],[],[],0.4016,1,467.4019,467.9027,,,,,,670,MAS,CON,150,huevo,,l,0.4016,,467.9027,467.9028,-0.222490657,0.15115849,0,0,0,,0,152,152,219,1,,,,
,,,,,,6075924bf6fdb1d10daa672a,66a626ef09d4e21e1a8894ec,67360fa78dbaf22aecd1339f,2024-11-14_15h57.04.158,Tarea de género gramatical,2024.2.2,Win32,60.24096386,,,,,,,,,,,,,,,,,,,,,,,467.9036,469.0366,l,1,[],[],[],[],[],[],[],0.4538,1,469.0368,469.5374,,,,,,531,FEM,AGR,150,cima,la,a,0.4538,,469.5374,469.5375,-0.222490657,0.15115849,0,0,0,,0,153,153,80,1,,,,
,,,,,,6075924bf6fdb1d10daa672a,66a626ef09d4e21e1a8894ec,67360fa78dbaf22aecd1339f,2024-11-14_15h57.04.158,Tarea de género gramatical,2024.2.2,Win32,60.24096386,,,,,,,,,,,,,,,,,,,,,,,469.5383,470.5383,l,1,[],[],[],[],[],[],[],0.3398,1,470.5383,471.0388,,,,,,511,FEM,CON,150,ruta,,a,0.3398,,471.0388,471.039,-0.222490657,0.15115849,0,0,0,,0,154,154,60,1,,,,
,,,,,,6075924bf6fdb1d10daa672a,66a626ef09d4e21e1a8894ec,67360fa78dbaf22aecd1339f,2024-11-14_15h57.04.158,Tarea de género gramatical,2024.2.2,Win32,60.24096386,,,,,,,,,,,,,,,,,,,,,,,471.0397,472.0731,a,1,[],[],[],[],[],[],[],0.3743,1,472.0732,472.5736,,,,,,694,MAS,CON,150,hielo,,l,0.3743,,472.5744,472.5756,-0.222490657,0.15115849,0,0,0,,0,155,155,243,1,,,,
,,,,,,6075924bf6fdb1d10daa672a,66a626ef09d4e21e1a8894ec,67360fa78dbaf22aecd1339f,2024-11-14_15h57.04.158,Tarea de género gramatical,2024.2.2,Win32,60.24096386,,,,,,,,,,,,,,,,,,,,,,,472.5768,473.6579,l,1,[],[],[],[],[],[],[],0.4064,1,473.6579,474.1585,,,,,,681,FEM,AGR,150,bruja,la,a,0.4064,,474.1586,474.1586,-0.222490657,0.15115849,0,0,0,,0,156,156,230,1,,,,
,,,,,,6075924bf6fdb1d10daa672a,66a626ef09d4e21e1a8894ec,67360fa78dbaf22aecd1339f,2024-11-14_15h57.04.158,Tarea de género gramatical,2024.2.2,Win32,60.24096386,,,,,,,,,,,,,,,,,,,,,,,474.1595,475.2095,a,1,[],[],[],[],[],[],[],0.3852,1,475.2096,475.71,,,,,,478,MAS,CON,150,club,,l,0.3852,,475.71,475.7101,-0.222490657,0.15115849,0,0,0,,0,157,157,27,1,,,,
,,,,,,6075924bf6fdb1d10daa672a,66a626ef09d4e21e1a8894ec,67360fa78dbaf22aecd1339f,2024-11-14_15h57.04.158,Tarea de género gramatical,2024.2.2,Win32,60.24096386,,,,,,,,,,,,,,,,,,,,,,,475.711,476.7944,l,1,[],[],[],[],[],[],[],0.4179,1,476.7946,477.2951,,,,,,793,FEM,CON,150,trampa,,a,0.4179,,477.2951,477.2953,-0.222490657,0.15115849,0,0,0,,0,158,158,342,1,,,,
,,,,,,6075924bf6fdb1d10daa672a,66a626ef09d4e21e1a8894ec,67360fa78dbaf22aecd1339f,2024-11-14_15h57.04.158,Tarea de género gramatical,2024.2.2,Win32,60.24096386,,,,,,,,,,,,,,,,,,,,,,,477.2961,478.3294,l,1,[],[],[],[],[],[],[],0.3676,1,478.3294,478.8298,,,,,,459,FEM,AGR,150,mamá,la,a,0.3676,,478.8306,478.8318,-0.222490657,0.15115849,0,0,0,,0,159,159,8,1,,,,
,,,,,,6075924bf6fdb1d10daa672a,66a626ef09d4e21e1a8894ec,67360fa78dbaf22aecd1339f,2024-11-14_15h57.04.158,Tarea de género gramatical,2024.2.2,Win32,60.24096386,,,,,,,,,,,,,,,,,,,,,,,478.8335,479.8977,l,1,[],[],[],[],[],[],[],0.3856,1,479.8978,480.3983,,,,,,733,FEM,CON,150,pluma,,a,0.3856,,480.3983,480.3984,-0.222490657,0.15115849,0,0,0,,0,160,160,282,1,,,,
,,,,,,6075924bf6fdb1d10daa672a,66a626ef09d4e21e1a8894ec,67360fa78dbaf22aecd1339f,2024-11-14_15h57.04.158,Tarea de género gramatical,2024.2.2,Win32,60.24096386,,,,,,,,,,,,,,,,,,,,,,,480.3991,481.5159,l,1,[],[],[],[],[],[],[],0.4496,1,481.516,482.0165,,,,,,513,FEM,AGR,150,fila,la,a,0.4496,,482.0165,482.0166,-0.222490657,0.15115849,0,0,0,,0,161,161,62,1,,,,
,,,,,,6075924bf6fdb1d10daa672a,66a626ef09d4e21e1a8894ec,67360fa78dbaf22aecd1339f,2024-11-14_15h57.04.158,Tarea de género gramatical,2024.2.2,Win32,60.24096386,,,,,,,,,,,,,,,,,,,,,,,482.0175,483.0674,a,1,[],[],[],[],[],[],[],0.3891,1,483.0675,483.568,,,,,,851,MAS,DIS,150,abrigo,la,l,0.3891,,483.568,483.5681,-0.222490657,0.15115849,0,0,0,,0,162,162,400,1,,,,
,,,,,,6075924bf6fdb1d10daa672a,66a626ef09d4e21e1a8894ec,67360fa78dbaf22aecd1339f,2024-11-14_15h57.04.158,Tarea de género gramatical,2024.2.2,Win32,60.24096386,,,,,,,,,,,,,,,,,,,,,,,483.5689,484.719,a,0,[],[],[],[],[],[],[],0.4928,0,484.7197,485.2197,,,,,,811,FEM,CON,150,oferta,,a,0.4928,,485.2197,485.2198,-0.222490657,0.15115849,0,0,0,,0,163,163,360,1,,,,
,,,,,,6075924bf6fdb1d10daa672a,66a626ef09d4e21e1a8894ec,67360fa78dbaf22aecd1339f,2024-11-14_15h57.04.158,Tarea de género gramatical,2024.2.2,Win32,60.24096386,,,,,,,,,,,,,,,,,,,,,,,485.2206,486.304,l,1,[],[],[],[],[],[],[],0.4253,1,486.3045,486.8046,,,,,,589,FEM,CON,150,pipa,,a,0.4253,,486.8055,486.8071,-0.222490657,0.15115849,0,0,0,,0,164,164,138,1,,,,
,,,,,,6075924bf6fdb1d10daa672a,66a626ef09d4e21e1a8894ec,67360fa78dbaf22aecd1339f,2024-11-14_15h57.04.158,Tarea de género gramatical,2024.2.2,Win32,60.24096386,,,,,,,,,,,,,,,,,,,,,,,486.8079,487.8888,a,1,[],[],[],[],[],[],[],0.408,1,487.8889,488.3894,,,,,,527,MAS,DIS,150,pico,la,l,0.408,,488.3894,488.3895,-0.222490657,0.15115849,0,0,0,,0,165,165,76,1,,,,
,,,,,,6075924bf6fdb1d10daa672a,66a626ef09d4e21e1a8894ec,67360fa78dbaf22aecd1339f,2024-11-14_15h57.04.158,Tarea de género gramatical,2024.2.2,Win32,60.24096386,,,,,,,,,,,,,,,,,,,,,,,488.3903,489.4737,a,1,[],[],[],[],[],[],[],0.4238,1,489.4738,489.9743,,,,,,737,MAS,DIS,150,plato,la,l,0.4238,,489.9744,489.9744,-0.222490657,0.15115849,0,0,0,,0,166,166,286,1,,,,
,,,,,,6075924bf6fdb1d10daa672a,66a626ef09d4e21e1a8894ec,67360fa78dbaf22aecd1339f,2024-11-14_15h57.04.158,Tarea de género gramatical,2024.2.2,Win32,60.24096386,,,,,,,,,,,,,,,,,,,,,,,489.9752,491.0755,l,1,[],[],[],[],[],[],[],0.4389,1,491.0755,491.5758,,,,,,854,FEM,DIS,150,gloria,el,a,0.4389,,491.5758,491.5759,-0.222490657,0.15115849,0,0,0,,0,167,167,403,1,,,,
,,,,,,6075924bf6fdb1d10daa672a,66a626ef09d4e21e1a8894ec,67360fa78dbaf22aecd1339f,2024-11-14_15h57.04.158,Tarea de género gramatical,2024.2.2,Win32,60.24096386,,,,,,,,,,,,,,,,,,,,,,,491.5767,492.6771,a,1,[],[],[],[],[],[],[],0.4454,1,492.6771,493.1775,,,,,,486,MAS,AGR,150,dedo,el,l,0.4454,,493.1785,493.1798,-0.222490657,0.15115849,0,0,0,,0,168,168,35,1,,,,
,,,,,,6075924bf6fdb1d10daa672a,66a626ef09d4e21e1a8894ec,67360fa78dbaf22aecd1339f,2024-11-14_15h57.04.158,Tarea de género gramatical,2024.2.2,Win32,60.24096386,,,,,,,,,,,,,,,,,,,,,,,493.1808,494.2787,a,1,[],[],[],[],[],[],[],0.4274,1,494.2787,494.779,,,,,,497,MAS,DIS,150,olor,la,l,0.4274,,494.7791,494.7792,-0.222490657,0.15115849,0,0,0,,0,169,169,46,1,,,,
,,,,,,6075924bf6fdb1d10daa672a,66a626ef09d4e21e1a8894ec,67360fa78dbaf22aecd1339f,2024-11-14_15h57.04.158,Tarea de género gramatical,2024.2.2,Win32,60.24096386,,,,,,,,,,,,,,,,,,,,,,,494.7799,495.897,a,1,[],[],[],[],[],[],[],0.4516,1,495.897,496.3974,,,,,,474,MAS,AGR,150,voto,el,l,0.4516,,496.3975,496.3976,-0.222490657,0.15115849,0,0,0,,0,170,170,23,1,,,,
,,,,,,6075924bf6fdb1d10daa672a,66a626ef09d4e21e1a8894ec,67360fa78dbaf22aecd1339f,2024-11-14_15h57.04.158,Tarea de género gramatical,2024.2.2,Win32,60.24096386,,,,,,,,,,,,,,,,,,,,,,,496.3984,497.4653,l,1,[],[],[],[],[],[],[],0.4069,1,497.4654,497.9656,,,,,,801,FEM,AGR,150,espada,la,a,0.4069,,497.9656,497.9657,-0.222490657,0.15115849,0,0,0,,0,171,171,350,1,,,,
,,,,,,6075924bf6fdb1d10daa672a,66a626ef09d4e21e1a8894ec,67360fa78dbaf22aecd1339f,2024-11-14_15h57.04.158,Tarea de género gramatical,2024.2.2,Win32,60.24096386,,,,,,,,,,,,,,,,,,,,,,,497.9665,499,a,1,[],[],[],[],[],[],[],0.3687,1,499.0001,499.5006,,,,,,887,MAS,DIS,150,hombro,la,l,0.3687,,499.5007,499.5007,-0.222490657,0.15115849,0,0,0,,0,172,172,436,1,,,,
,,,,,,6075924bf6fdb1d10daa672a,66a626ef09d4e21e1a8894ec,67360fa78dbaf22aecd1339f,2024-11-14_15h57.04.158,Tarea de género gramatical,2024.2.2,Win32,60.24096386,,,,,,,,,,,,,,,,,,,,,,,499.5016,500.6016,l,1,[],[],[],[],[],[],[],0.4238,1,500.6016,501.1021,,,,,,675,FEM,AGR,150,pieza,la,a,0.4238,,501.1029,501.1045,-0.222490657,0.15115849,0,0,0,,0,173,173,224,1,,,,
,,,,,,6075924bf6fdb1d10daa672a,66a626ef09d4e21e1a8894ec,67360fa78dbaf22aecd1339f,2024-11-14_15h57.04.158,Tarea de género gramatical,2024.2.2,Win32,60.24096386,,,,,,,,,,,,,,,,,,,,,,,501.1055,502.2031,l,1,[],[],[],[],[],[],[],0.4177,1,502.2032,502.7036,,,,,,507,FEM,AGR,150,moda,la,a,0.4177,,502.7038,502.7038,-0.222490657,0.15115849,0,0,0,,0,174,174,56,1,,,,
,,,,,,6075924bf6fdb1d10daa672a,66a626ef09d4e21e1a8894ec,67360fa78dbaf22aecd1339f,2024-11-14_15h57.04.158,Tarea de género gramatical,2024.2.2,Win32,60.24096386,,,,,,,,,,,,,,,,,,,,,,,502.7046,503.9383,a,1,[],[],[],[],[],[],[],0.5681,1,503.9383,504.4386,,,,,,580,MAS,CON,150,yate,,l,0.5681,,504.4387,504.4387,-0.222490657,0.15115849,0,0,0,,0,175,175,129,1,,,,
,,,,,,6075924bf6fdb1d10daa672a,66a626ef09d4e21e1a8894ec,67360fa78dbaf22aecd1339f,2024-11-14_15h57.04.158,Tarea de género gramatical,2024.2.2,Win32,60.24096386,,,,,,,,,,,,,,,,,,,,,,,504.4396,505.5898,l,1,[],[],[],[],[],[],[],0.4878,1,505.5898,506.0905,,,,,,717,FEM,AGR,150,barba,la,a,0.4878,,506.0905,506.0906,-0.222490657,0.15115849,0,0,0,,0,176,176,266,1,,,,
,,,,,,6075924bf6fdb1d10daa672a,66a626ef09d4e21e1a8894ec,67360fa78dbaf22aecd1339f,2024-11-14_15h57.04.158,Tarea de género gramatical,2024.2.2,Win32,60.24096386,,,,,,,,,,,,,,,,,,,,,,,506.0915,507.1915,a,1,[],[],[],[],[],[],[],0.4423,1,507.1915,507.6921,,,,,,490,MAS,CON,150,dios,,l,0.4423,,507.6929,507.694,-0.222490657,0.15115849,0,0,0,,0,177,177,39,1,,,,
,,,,,,6075924bf6fdb1d10daa672a,66a626ef09d4e21e1a8894ec,67360fa78dbaf22aecd1339f,2024-11-14_15h57.04.158,Tarea de género gramatical,2024.2.2,Win32,60.24096386,,,,,,,,,,,,,,,,,,,,,,,507.6953,508.8266,l,1,[],[],[],[],[],[],[],0.4563,1,508.8267,509.3269,,,,,,620,FEM,DIS,150,carta,el,a,0.4563,,509.327,509.3271,-0.222490657,0.15115849,0,0,0,,0,178,178,169,1,,,,
,,,,,,6075924bf6fdb1d10daa672a,66a626ef09d4e21e1a8894ec,67360fa78dbaf22aecd1339f,2024-11-14_15h57.04.158,Tarea de género gramatical,2024.2.2,Win32,60.24096386,,,,,,,,,,,,,,,,,,,,,,,509.3279,510.378,a,1,[],[],[],[],[],[],[],0.3902,1,510.3782,510.8784,,,,,,730,MAS,CON,150,salón,,l,0.3902,,510.8784,510.8785,-0.222490657,0.15115849,0,0,0,,0,179,179,279,1,,,,
,,,,,,6075924bf6fdb1d10daa672a,66a626ef09d4e21e1a8894ec,67360fa78dbaf22aecd1339f,2024-11-14_15h57.04.158,Tarea de género gramatical,2024.2.2,Win32,60.24096386,,,,,,,,,,,,,,,,,,,,,,,510.8793,512.0965,a,1,[],[],[],[],[],[],[],0.5517,1,512.0966,512.5969,,,,,,588,MAS,AGR,150,luto,el,l,0.5517,,512.597,512.597,-0.222490657,0.15115849,0,0,0,,0,180,180,137,1,,,,
,,,,,,6075924bf6fdb1d10daa672a,66a626ef09d4e21e1a8894ec,67360fa78dbaf22aecd1339f,2024-11-14_15h57.04.158,Tarea de género gramatical,2024.2.2,Win32,60.24096386,,,,,,,,,,,,,,,,,,,,,,,512.5979,513.7483,l,0,[],[],[],[],[],[],[],0.4848,0,513.7488,514.2485,,,,,,466,MAS,CON,150,baño,,l,0.4848,,514.2485,514.2486,-0.222490657,0.15115849,0,0,0,,0,181,181,15,1,,,,
,,,,,,6075924bf6fdb1d10daa672a,66a626ef09d4e21e1a8894ec,67360fa78dbaf22aecd1339f,2024-11-14_15h57.04.158,Tarea de género gramatical,2024.2.2,Win32,60.24096386,,,,,,,,,,,,,,,,,,,,,,,514.2493,515.3498,l,1,[],[],[],[],[],[],[],0.4365,1,515.3504,515.8503,,,,,,667,FEM,CON,150,tarea,,a,0.4365,,515.8511,515.8525,-0.222490657,0.15115849,0,0,0,,0,182,182,216,1,,,,
,,,,,,6075924bf6fdb1d10daa672a,66a626ef09d4e21e1a8894ec,67360fa78dbaf22aecd1339f,2024-11-14_15h57.04.158,Tarea de género gramatical,2024.2.2,Win32,60.24096386,,,,,,,,,,,,,,,,,,,,,,,515.8537,517.0847,l,1,[],[],[],[],[],[],[],0.5543,1,517.0847,517.5852,,,,,,645,FEM,AGR,150,pared,la,a,0.5543,,517.5852,517.5853,-0.222490657,0.15115849,0,0,0,,0,183,183,194,1,,,,
,,,,,,6075924bf6fdb1d10daa672a,66a626ef09d4e21e1a8894ec,67360fa78dbaf22aecd1339f,2024-11-14_15h57.04.158,Tarea de género gramatical,2024.2.2,Win32,60.24096386,,,,,,,,,,,,,,,,,,,,,,,517.5862,518.6529,l,1,[],[],[],[],[],[],[],0.4015,1,518.653,519.1535,,,,,,482,FEM,DIS,150,caja,el,a,0.4015,,519.1535,519.1536,-0.222490657,0.15115849,0,0,0,,0,184,184,31,1,,,,
,,,,,,6075924bf6fdb1d10daa672a,66a626ef09d4e21e1a8894ec,67360fa78dbaf22aecd1339f,2024-11-14_15h57.04.158,Tarea de género gramatical,2024.2.2,Win32,60.24096386,,,,,,,,,,,,,,,,,,,,,,,519.1545,520.1711,a,1,[],[],[],[],[],[],[],0.3515,1,520.1711,520.6717,,,,,,761,MAS,DIS,150,camino,la,l,0.3515,,520.6718,520.6718,-0.222490657,0.15115849,0,0,0,,0,185,185,310,1,,,,
,,,,,,6075924bf6fdb1d10daa672a,66a626ef09d4e21e1a8894ec,67360fa78dbaf22aecd1339f,2024-11-14_15h57.04.158,Tarea de género gramatical,2024.2.2,Win32,60.24096386,,,,,,,,,,,,,,,,,,,,,,,520.6727,521.7394,l,1,[],[],[],[],[],[],[],0.4017,1,521.7394,522.2399,,,,,,745,FEM,CON,150,grasa,,a,0.4017,,522.2408,522.242,-0.222490657,0.15115849,0,0,0,,0,186,186,294,1,,,,
,,,,,,6075924bf6fdb1d10daa672a,66a626ef09d4e21e1a8894ec,67360fa78dbaf22aecd1339f,2024-11-14_15h57.04.158,Tarea de género gramatical,2024.2.2,Win32,60.24096386,,,,,,,,,,,,,,,,,,,,,,,522.2432,523.6578,l,1,[],[],[],[],[],[],[],0.7405,1,523.658,524.1584,,,,,,757,FEM,CON,150,suerte,,a,0.7405,,524.1584,524.1585,-0.222490657,0.15115849,0,0,0,,0,187,187,306,1,,,,
,,,,,,6075924bf6fdb1d10daa672a,66a626ef09d4e21e1a8894ec,67360fa78dbaf22aecd1339f,2024-11-14_15h57.04.158,Tarea de género gramatical,2024.2.2,Win32,60.24096386,,,,,,,,,,,,,,,,,,,,,,,524.1592,525.1928,a,1,[],[],[],[],[],[],[],0.368,1,525.1928,525.6933,,,,,,569,MAS,DIS,150,mito,la,l,0.368,,525.6933,525.6934,-0.222490657,0.15115849,0,0,0,,0,188,188,118,1,,,,
,,,,,,6075924bf6fdb1d10daa672a,66a626ef09d4e21e1a8894ec,67360fa78dbaf22aecd1339f,2024-11-14_15h57.04.158,Tarea de género gramatical,2024.2.2,Win32,60.24096386,,,,,,,,,,,,,,,,,,,,,,,525.6941,526.8113,a,1,[],[],[],[],[],[],[],0.4558,1,526.8114,527.3117,,,,,,856,MAS,CON,150,premio,,l,0.4558,,527.3117,527.3118,-0.222490657,0.15115849,0,0,0,,0,189,189,405,1,,,,
,,,,,,6075924bf6fdb1d10daa672a,66a626ef09d4e21e1a8894ec,67360fa78dbaf22aecd1339f,2024-11-14_15h57.04.158,Tarea de género gramatical,2024.2.2,Win32,60.24096386,,,,,,,,,,,,,,,,,,,,,,,527.3125,528.3626,l,1,[],[],[],[],[],[],[],0.3895,1,528.3627,528.8631,,,,,,493,FEM,CON,150,nena,,a,0.3895,,528.8631,528.8632,-0.222490657,0.15115849,0,0,0,,0,190,190,42,1,,,,
,,,,,,6075924bf6fdb1d10daa672a,66a626ef09d4e21e1a8894ec,67360fa78dbaf22aecd1339f,2024-11-14_15h57.04.158,Tarea de género gramatical,2024.2.2,Win32,60.24096386,,,,,,,,,,,,,,,,,,,,,,,528.8641,529.9978,a,1,[],[],[],[],[],[],[],0.4781,1,529.9978,530.4981,,,,,,898,MAS,CON,150,aceite,,l,0.4781,,530.499,530.5001,-0.222490657,0.15115849,0,0,0,,0,191,191,447,1,,,,
,,,,,,6075924bf6fdb1d10daa672a,66a626ef09d4e21e1a8894ec,67360fa78dbaf22aecd1339f,2024-11-14_15h57.04.158,Tarea de género gramatical,2024.2.2,Win32,60.24096386,,,,,,,,,,,,,,,,,,,,,,,530.5014,531.5992,l,1,[],[],[],[],[],[],[],0.4185,1,531.5993,532.0999,,,,,,897,FEM,AGR,150,lógica,la,a,0.4185,,532.1,532.1,-0.222490657,0.15115849,0,0,0,,0,192,192,446,1,,,,
,,,,,,6075924bf6fdb1d10daa672a,66a626ef09d4e21e1a8894ec,67360fa78dbaf22aecd1339f,2024-11-14_15h57.04.158,Tarea de género gramatical,2024.2.2,Win32,60.24096386,,,,,,,,,,,,,,,,,,,,,,,532.1007,533.3008,a,1,[],[],[],[],[],[],[],0.5206,1,533.3009,533.8014,,,,,,682,MAS,CON,150,calor,,l,0.5206,,533.8015,533.8015,-0.222490657,0.15115849,0,0,0,,0,193,193,231,1,,,,
,,,,,,6075924bf6fdb1d10daa672a,66a626ef09d4e21e1a8894ec,67360fa78dbaf22aecd1339f,2024-11-14_15h57.04.158,Tarea de género gramatical,2024.2.2,Win32,60.24096386,,,,,,,,,,,,,,,,,,,,,,,533.8024,534.9357,a,1,[],[],[],[],[],[],[],0.4589,1,534.9359,535.4363,,,,,,521,MAS,DIS,150,pozo,la,l,0.4589,,535.4363,535.4365,-0.222490657,0.15115849,0,0,0,,0,194,194,70,1,,,,
,,,,,,6075924bf6fdb1d10daa672a,66a626ef09d4e21e1a8894ec,67360fa78dbaf22aecd1339f,2024-11-14_15h57.04.158,Tarea de género gramatical,2024.2.2,Win32,60.24096386,,,,,,,,,,,,,,,,,,,,,,,535.4373,536.5708,a,1,[],[],[],[],[],[],[],0.4728,1,536.5708,537.0715,,,,,,665,MAS,DIS,150,hueso,la,l,0.4728,,537.0723,537.0738,-0.222490657,0.15115849,0,0,0,,0,195,195,214,1,,,,
,,,,,,6075924bf6fdb1d10daa672a,66a626ef09d4e21e1a8894ec,67360fa78dbaf22aecd1339f,2024-11-14_15h57.04.158,Tarea de género gramatical,2024.2.2,Win32,60.24096386,,,,,,,,,,,,,,,,,,,,,,,537.0748,538.3059,l,1,[],[],[],[],[],[],[],0.5571,1,538.3059,538.8063,,,,,,746,FEM,DIS,150,feria,el,a,0.5571,,538.8064,538.8064,-0.222490657,0.15115849,0,0,0,,0,196,196,295,1,,,,
,,,,,,6075924bf6fdb1d10daa672a,66a626ef09d4e21e1a8894ec,67360fa78dbaf22aecd1339f,2024-11-14_15h57.04.158,Tarea de género gramatical,2024.2.2,Win32,60.24096386,,,,,,,,,,,,,,,,,,,,,,,538.8073,539.9908,a,1,[],[],[],[],[],[],[],0.5265,1,539.9908,540.4915,,,,,,546,MAS,AGR,150,pato,el,l,0.5265,,540.4916,540.4916,-0.222490657,0.15115849,0,0,0,,0,197,197,95,1,,,,
,,,,,,6075924bf6fdb1d10daa672a,66a626ef09d4e21e1a8894ec,67360fa78dbaf22aecd1339f,2024-11-14_15h57.04.158,Tarea de género gramatical,2024.2.2,Win32,60.24096386,,,,,,,,,,,,,,,,,,,,,,,540.4924,541.8762,l,1,[],[],[],[],[],[],[],0.722,1,541.8763,542.3767,,,,,,499,FEM,CON,150,piel,,a,0.722,,542.3768,542.3768,-0.222490657,0.15115849,0,0,0,,0,198,198,48,1,,,,
,,,,,,6075924bf6fdb1d10daa672a,66a626ef09d4e21e1a8894ec,67360fa78dbaf22aecd1339f,2024-11-14_15h57.04.158,Tarea de género gramatical,2024.2.2,Win32,60.24096386,,,,,,,,,,,,,,,,,,,,,,,542.3777,543.4777,a,1,[],[],[],[],[],[],[],0.4275,1,543.4777,543.9783,,,,,,617,MAS,DIS,150,juego,la,l,0.4275,,543.9784,543.9784,-0.222490657,0.15115849,0,0,0,,0,199,199,166,1,,,,
,,,,,,6075924bf6fdb1d10daa672a,66a626ef09d4e21e1a8894ec,67360fa78dbaf22aecd1339f,2024-11-14_15h57.04.158,Tarea de género gramatical,2024.2.2,Win32,60.24096386,,,,,,,,,,,,,,,,,,,,,,,543.9792,545.0962,l,1,[],[],[],[],[],[],[],0.4589,1,545.0962,545.5967,,,,,,782,FEM,DIS,150,basura,el,a,0.4589,,545.5977,545.5989,-0.222490657,0.15115849,0,0,0,,0,200,200,331,1,,,,
,,,,,,6075924bf6fdb1d10daa672a,66a626ef09d4e21e1a8894ec,67360fa78dbaf22aecd1339f,2024-11-14_15h57.04.158,Tarea de género gramatical,2024.2.2,Win32,60.24096386,,,,,,,,,,,,,,,,,,,,,,,545.6,546.731,l,1,[],[],[],[],[],[],[],0.4514,1,546.7311,547.2315,,,,,,519,FEM,AGR,150,rata,la,a,0.4514,,547.2315,547.2316,-0.222490657,0.15115849,0,0,0,,0,201,201,68,1,,,,
,,,,,,6075924bf6fdb1d10daa672a,66a626ef09d4e21e1a8894ec,67360fa78dbaf22aecd1339f,2024-11-14_15h57.04.158,Tarea de género gramatical,2024.2.2,Win32,60.24096386,,,,,,,,,,,,,,,,,,,,,,,547.2324,548.2825,l,1,[],[],[],[],[],[],[],0.3845,1,548.2825,548.7831,,,,,,655,FEM,CON,150,reina,,a,0.3845,,548.7831,548.7833,-0.222490657,0.15115849,0,0,0,,0,202,202,204,1,,,,
,,,,,,6075924bf6fdb1d10daa672a,66a626ef09d4e21e1a8894ec,67360fa78dbaf22aecd1339f,2024-11-14_15h57.04.158,Tarea de género gramatical,2024.2.2,Win32,60.24096386,,,,,,,,,,,,,,,,,,,,,,,548.7842,549.8175,a,1,[],[],[],[],[],[],[],0.357,1,549.8176,550.3178,,,,,,593,MAS,DIS,150,faro,la,l,0.357,,550.3179,550.3179,-0.222490657,0.15115849,0,0,0,,0,203,203,142,1,,,,
,,,,,,6075924bf6fdb1d10daa672a,66a626ef09d4e21e1a8894ec,67360fa78dbaf22aecd1339f,2024-11-14_15h57.04.158,Tarea de género gramatical,2024.2.2,Win32,60.24096386,,,,,,,,,,,,,,,,,,,,,,,550.3188,551.419,l,1,[],[],[],[],[],[],[],0.4343,1,551.4191,551.9196,,,,,,494,FEM,DIS,150,zona,el,a,0.4343,,551.9206,551.9219,-0.222490657,0.15115849,0,0,0,,0,204,204,43,1,,,,
,,,,,,6075924bf6fdb1d10daa672a,66a626ef09d4e21e1a8894ec,67360fa78dbaf22aecd1339f,2024-11-14_15h57.04.158,Tarea de género gramatical,2024.2.2,Win32,60.24096386,,,,,,,,,,,,,,,,,,,,,,,551.923,552.9874,l,1,[],[],[],[],[],[],[],0.3847,1,552.9874,553.4878,,,,,,668,FEM,DIS,150,nieve,el,a,0.3847,,553.4878,553.4879,-0.222490657,0.15115849,0,0,0,,0,205,205,217,1,,,,
,,,,,,6075924bf6fdb1d10daa672a,66a626ef09d4e21e1a8894ec,67360fa78dbaf22aecd1339f,2024-11-14_15h57.04.158,Tarea de género gramatical,2024.2.2,Win32,60.24096386,,,,,,,,,,,,,,,,,,,,,,,553.4888,554.5721,a,1,[],[],[],[],[],[],[],0.4217,1,554.5722,555.0727,,,,,,647,MAS,DIS,150,avión,la,l,0.4217,,555.0727,555.0728,-0.222490657,0.15115849,0,0,0,,0,206,206,196,1,,,,
,,,,,,6075924bf6fdb1d10daa672a,66a626ef09d4e21e1a8894ec,67360fa78dbaf22aecd1339f,2024-11-14_15h57.04.158,Tarea de género gramatical,2024.2.2,Win32,60.24096386,,,,,,,,,,,,,,,,,,,,,,,555.0736,556.1071,l,1,[],[],[],[],[],[],[],0.3684,1,556.1072,556.6074,,,,,,885,FEM,AGR,150,niebla,la,a,0.3684,,556.6074,556.6075,-0.222490657,0.15115849,0,0,0,,0,207,207,434,1,,,,
,,,,,,6075924bf6fdb1d10daa672a,66a626ef09d4e21e1a8894ec,67360fa78dbaf22aecd1339f,2024-11-14_15h57.04.158,Tarea de género gramatical,2024.2.2,Win32,60.24096386,,,,,,,,,,,,,,,,,,,,,,,556.6083,557.6585,a,1,[],[],[],[],[],[],[],0.3851,1,557.6586,558.1591,,,,,,880,MAS,CON,150,título,,l,0.3851,,558.1592,558.1592,-0.222490657,0.15115849,0,0,0,,0,208,208,429,1,,,,
,,,,,,6075924bf6fdb1d10daa672a,66a626ef09d4e21e1a8894ec,67360fa78dbaf22aecd1339f,2024-11-14_15h57.04.158,Tarea de género gramatical,2024.2.2,Win32,60.24096386,,,,,,,,,,,,,,,,,,,,,,,558.1601,559.2267,a,1,[],[],[],[],[],[],[],0.4049,1,559.2268,559.7274,,,,,,808,MAS,CON,150,motivo,,l,0.4049,,559.7283,559.7296,-0.222490657,0.15115849,0,0,0,,0,209,209,357,1,,,,
,,,,,,6075924bf6fdb1d10daa672a,66a626ef09d4e21e1a8894ec,67360fa78dbaf22aecd1339f,2024-11-14_15h57.04.158,Tarea de género gramatical,2024.2.2,Win32,60.24096386,,,,,,,,,,,,,,,,,,,,,,,559.7308,560.7784,l,1,[],[],[],[],[],[],[],0.3728,1,560.7784,561.2788,,,,,,637,FEM,CON,150,lista,,a,0.3728,,561.2788,561.2789,-0.222490657,0.15115849,0,0,0,,0,210,210,186,1,,,,
,,,,,,6075924bf6fdb1d10daa672a,66a626ef09d4e21e1a8894ec,67360fa78dbaf22aecd1339f,2024-11-14_15h57.04.158,Tarea de género gramatical,2024.2.2,Win32,60.24096386,,,,,,,,,,,,,,,,,,,,,,,561.2798,562.3465,a,1,[],[],[],[],[],[],[],0.4059,1,562.3466,562.8472,,,,,,552,MAS,AGR,150,coro,el,l,0.4059,,562.8473,562.8473,-0.222490657,0.15115849,0,0,0,,0,211,211,101,1,,,,
,,,,,,6075924bf6fdb1d10daa672a,66a626ef09d4e21e1a8894ec,67360fa78dbaf22aecd1339f,2024-11-14_15h57.04.158,Tarea de género gramatical,2024.2.2,Win32,60.24096386,,,,,,,,,,,,,,,,,,,,,,,562.8482,563.9484,a,1,[],[],[],[],[],[],[],0.4215,1,563.9484,564.4486,,,,,,876,MAS,AGR,150,pánico,el,l,0.4215,,564.4488,564.4488,-0.222490657,0.15115849,0,0,0,,0,212,212,425,1,,,,
,,,,,,6075924bf6fdb1d10daa672a,66a626ef09d4e21e1a8894ec,67360fa78dbaf22aecd1339f,2024-11-14_15h57.04.158,Tarea de género gramatical,2024.2.2,Win32,60.24096386,,,,,,,,,,,,,,,,,,,,,,,564.4496,565.6498,a,1,[],[],[],[],[],[],[],0.5248,1,565.6499,566.1505,,,,,,479,MAS,DIS,150,frío,la,l,0.5248,,566.1514,566.153,-0.222490657,0.15115849,0,0,0,,0,213,213,28,1,,,,
,,,,,,6075924bf6fdb1d10daa672a,66a626ef09d4e21e1a8894ec,67360fa78dbaf22aecd1339f,2024-11-14_15h57.04.158,Tarea de género gramatical,2024.2.2,Win32,60.24096386,,,,,,,,,,,,,,,,,,,,,,,566.1542,567.1848,l,1,[],[],[],[],[],[],[],0.3578,1,567.1849,567.6852,,,,,,716,FEM,DIS,150,jaula,el,a,0.3578,,567.6853,567.6854,-0.222490657,0.15115849,0,0,0,,0,214,214,265,1,,,,
,,,,,,6075924bf6fdb1d10daa672a,66a626ef09d4e21e1a8894ec,67360fa78dbaf22aecd1339f,2024-11-14_15h57.04.158,Tarea de género gramatical,2024.2.2,Win32,60.24096386,,,,,,,,,,,,,,,,,,,,,,,567.6862,568.753,a,1,[],[],[],[],[],[],[],0.4013,1,568.7531,569.2534,,,,,,755,MAS,DIS,150,hombre,la,l,0.4013,,569.2534,569.2535,-0.222490657,0.15115849,0,0,0,,0,215,215,304,1,,,,
,,,,,,6075924bf6fdb1d10daa672a,66a626ef09d4e21e1a8894ec,67360fa78dbaf22aecd1339f,2024-11-14_15h57.04.158,Tarea de género gramatical,2024.2.2,Win32,60.24096386,,,,,,,,,,,,,,,,,,,,,,,569.2544,570.2878,l,1,[],[],[],[],[],[],[],0.369,1,570.2879,570.7883,,,,,,615,FEM,AGR,150,amiga,la,a,0.369,,570.7884,570.7885,-0.222490657,0.15115849,0,0,0,,0,216,216,164,1,,,,
,,,,,,6075924bf6fdb1d10daa672a,66a626ef09d4e21e1a8894ec,67360fa78dbaf22aecd1339f,2024-11-14_15h57.04.158,Tarea de género gramatical,2024.2.2,Win32,60.24096386,,,,,,,,,,,,,,,,,,,,,,,570.7893,571.973,a,1,[],[],[],[],[],[],[],0.5171,1,571.9731,572.4735,,,,,,562,MAS,CON,150,reto,,l,0.5171,,572.4736,572.4736,-0.222490657,0.15115849,0,0,0,,0,217,217,111,1,,,,
,,,,,,6075924bf6fdb1d10daa672a,66a626ef09d4e21e1a8894ec,67360fa78dbaf22aecd1339f,2024-11-14_15h57.04.158,Tarea de género gramatical,2024.2.2,Win32,60.24096386,,,,,,,,,,,,,,,,,,,,,,,572.4744,573.6079,a,1,[],[],[],[],[],[],[],0.4513,1,573.608,574.1084,,,,,,695,MAS,DIS,150,turno,la,l,0.4513,,574.1093,574.1108,-0.222490657,0.15115849,0,0,0,,0,218,218,244,1,,,,
,,,,,,6075924bf6fdb1d10daa672a,66a626ef09d4e21e1a8894ec,67360fa78dbaf22aecd1339f,2024-11-14_15h57.04.158,Tarea de género gramatical,2024.2.2,Win32,60.24096386,,,,,,,,,,,,,,,,,,,,,,,574.1121,575.2596,a,1,[],[],[],[],[],[],[],0.4723,1,575.2597,575.7599,,,,,,713,MAS,DIS,150,carro,la,l,0.4723,,575.76,575.76,-0.222490657,0.15115849,0,0,0,,0,219,219,262,1,,,,
,,,,,,6075924bf6fdb1d10daa672a,66a626ef09d4e21e1a8894ec,67360fa78dbaf22aecd1339f,2024-11-14_15h57.04.158,Tarea de género gramatical,2024.2.2,Win32,60.24096386,,,,,,,,,,,,,,,,,,,,,,,575.7609,576.8945,a,1,[],[],[],[],[],[],[],0.4686,1,576.8946,577.3947,,,,,,540,MAS,AGR,150,león,el,l,0.4686,,577.3948,577.3949,-0.222490657,0.15115849,0,0,0,,0,220,220,89,1,,,,
,,,,,,6075924bf6fdb1d10daa672a,66a626ef09d4e21e1a8894ec,67360fa78dbaf22aecd1339f,2024-11-14_15h57.04.158,Tarea de género gramatical,2024.2.2,Win32,60.24096386,,,,,,,,,,,,,,,,,,,,,,,577.3959,578.4291,l,1,[],[],[],[],[],[],[],0.3779,1,578.4293,578.93,,,,,,861,FEM,AGR,150,actriz,la,a,0.3779,,578.93,578.9301,-0.222490657,0.15115849,0,0,0,,0,221,221,410,1,,,,
,,,,,,6075924bf6fdb1d10daa672a,66a626ef09d4e21e1a8894ec,67360fa78dbaf22aecd1339f,2024-11-14_15h57.04.158,Tarea de género gramatical,2024.2.2,Win32,60.24096386,,,,,,,,,,,,,,,,,,,,,,,578.9309,580.0643,a,1,[],[],[],[],[],[],[],0.4587,1,580.0644,580.565,,,,,,748,MAS,CON,150,botón,,l,0.4587,,580.5658,580.5671,-0.222490657,0.15115849,0,0,0,,0,222,222,297,1,,,,
,,,,,,6075924bf6fdb1d10daa672a,66a626ef09d4e21e1a8894ec,67360fa78dbaf22aecd1339f,2024-11-14_15h57.04.158,Tarea de género gramatical,2024.2.2,Win32,60.24096386,,,,,,,,,,,,,,,,,,,,,,,580.5682,581.6492,l,1,[],[],[],[],[],[],[],0.4076,1,581.6493,582.1499,,,,,,783,FEM,AGR,150,locura,la,a,0.4076,,582.1499,582.1499,-0.222490657,0.15115849,0,0,0,,0,223,223,332,1,,,,
,,,,,,6075924bf6fdb1d10daa672a,66a626ef09d4e21e1a8894ec,67360fa78dbaf22aecd1339f,2024-11-14_15h57.04.158,Tarea de género gramatical,2024.2.2,Win32,60.24096386,,,,,,,,,,,,,,,,,,,,,,,582.1509,583.4676,l,1,[],[],[],[],[],[],[],0.6511,1,583.4676,583.9683,,,,,,518,FEM,DIS,150,pata,el,a,0.6511,,583.9684,583.9684,-0.222490657,0.15115849,0,0,0,,0,224,224,67,1,,,,
,,,,,,6075924bf6fdb1d10daa672a,66a626ef09d4e21e1a8894ec,67360fa78dbaf22aecd1339f,2024-11-14_15h57.04.158,Tarea de género gramatical,2024.2.2,Win32,60.24096386,,,,,,,,,,,,,,,,,,,,,,,583.9693,585.0692,a,1,[],[],[],[],[],[],[],0.4281,1,585.0692,585.5699,,,,,,749,MAS,DIS,150,rumbo,la,l,0.4281,,585.57,585.5701,-0.222490657,0.15115849,0,0,0,,0,225,225,298,1,,,,
,,,,,,6075924bf6fdb1d10daa672a,66a626ef09d4e21e1a8894ec,67360fa78dbaf22aecd1339f,2024-11-14_15h57.04.158,Tarea de género gramatical,2024.2.2,Win32,60.24096386,,,,,,,,,,,,,,,,,,,,,,,585.5708,586.6876,l,1,[],[],[],[],[],[],[],0.4511,1,586.6877,587.1881,,,,,,871,FEM,CON,150,novela,,a,0.4511,,587.1881,587.1882,-0.222490657,0.15115849,0,0,0,,0,226,226,420,1,,,,
,,,,,,6075924bf6fdb1d10daa672a,66a626ef09d4e21e1a8894ec,67360fa78dbaf22aecd1339f,2024-11-14_15h57.04.158,Tarea de género gramatical,2024.2.2,Win32,60.24096386,,,,,,,,,,,,,,,,,,,,,,,587.1891,588.4226,a,1,[],[],[],[],[],[],[],0.5767,1,588.4226,588.9232,,,,,,660,MAS,AGR,150,baile,el,l,0.5767,,588.9241,588.9257,-0.222490657,0.15115849,0,0,0,,0,227,227,209,1,,,,
,,,,,,6075924bf6fdb1d10daa672a,66a626ef09d4e21e1a8894ec,67360fa78dbaf22aecd1339f,2024-11-14_15h57.04.158,Tarea de género gramatical,2024.2.2,Win32,60.24096386,,,,,,,,,,,,,,,,,,,,,,,588.9267,590.041,a,1,[],[],[],[],[],[],[],0.4348,1,590.041,590.5414,,,,,,780,MAS,AGR,150,estado,el,l,0.4348,,590.5415,590.5416,-0.222490657,0.15115849,0,0,0,,0,228,228,329,1,,,,
,,,,,,6075924bf6fdb1d10daa672a,66a626ef09d4e21e1a8894ec,67360fa78dbaf22aecd1339f,2024-11-14_15h57.04.158,Tarea de género gramatical,2024.2.2,Win32,60.24096386,,,,,,,,,,,,,,,,,,,,,,,590.5424,591.6759,a,1,[],[],[],[],[],[],[],0.4684,1,591.676,592.1765,,,,,,779,MAS,DIS,150,futuro,la,l,0.4684,,592.1766,592.1767,-0.222490657,0.15115849,0,0,0,,0,229,229,328,1,,,,
,,,,,,6075924bf6fdb1d10daa672a,66a626ef09d4e21e1a8894ec,67360fa78dbaf22aecd1339f,2024-11-14_15h57.04.158,Tarea de género gramatical,2024.2.2,Win32,60.24096386,,,,,,,,,,,,,,,,,,,,,,,592.1775,593.4277,a,1,[],[],[],[],[],[],[],0.5723,1,593.4278,593.9282,,,,,,785,MAS,DIS,150,montón,la,l,0.5723,,593.9282,593.9282,-0.222490657,0.15115849,0,0,0,,0,230,230,334,1,,,,
,,,,,,6075924bf6fdb1d10daa672a,66a626ef09d4e21e1a8894ec,67360fa78dbaf22aecd1339f,2024-11-14_15h57.04.158,Tarea de género gramatical,2024.2.2,Win32,60.24096386,,,,,,,,,,,,,,,,,,,,,,,593.9291,594.9793,l,1,[],[],[],[],[],[],[],0.3851,1,594.9794,595.4797,,,,,,729,FEM,AGR,150,selva,la,a,0.3851,,595.4807,595.4826,-0.222490657,0.15115849,0,0,0,,0,231,231,278,1,,,,
,,,,,,6075924bf6fdb1d10daa672a,66a626ef09d4e21e1a8894ec,67360fa78dbaf22aecd1339f,2024-11-14_15h57.04.158,Tarea de género gramatical,2024.2.2,Win32,60.24096386,,,,,,,,,,,,,,,,,,,,,,,595.4837,596.6473,l,1,[],[],[],[],[],[],[],0.4925,1,596.6473,597.148,,,,,,488,FEM,DIS,150,obra,el,a,0.4925,,597.148,597.1481,-0.222490657,0.15115849,0,0,0,,0,232,232,37,1,,,,
,,,,,,6075924bf6fdb1d10daa672a,66a626ef09d4e21e1a8894ec,67360fa78dbaf22aecd1339f,2024-11-14_15h57.04.158,Tarea de género gramatical,2024.2.2,Win32,60.24096386,,,,,,,,,,,,,,,,,,,,,,,597.1489,598.2991,l,1,[],[],[],[],[],[],[],0.4849,1,598.2992,598.7996,,,,,,572,FEM,DIS,150,loca,el,a,0.4849,,598.7997,598.7997,-0.222490657,0.15115849,0,0,0,,0,233,233,121,1,,,,
,,,,,,6075924bf6fdb1d10daa672a,66a626ef09d4e21e1a8894ec,67360fa78dbaf22aecd1339f,2024-11-14_15h57.04.158,Tarea de género gramatical,2024.2.2,Win32,60.24096386,,,,,,,,,,,,,,,,,,,,,,,598.8006,599.9675,a,1,[],[],[],[],[],[],[],0.5007,1,599.9676,600.468,,,,,,736,MAS,CON,150,reino,,l,0.5007,,600.468,600.4681,-0.222490657,0.15115849,0,0,0,,0,234,234,285,1,,,,
,,,,,,6075924bf6fdb1d10daa672a,66a626ef09d4e21e1a8894ec,67360fa78dbaf22aecd1339f,2024-11-14_15h57.04.158,Tarea de género gramatical,2024.2.2,Win32,60.24096386,,,,,,,,,,,,,,,,,,,,,,,600.469,601.6026,a,1,[],[],[],[],[],[],[],0.473,1,601.6027,602.103,,,,,,484,MAS,CON,150,gato,,l,0.473,,602.103,602.1031,-0.222490657,0.15115849,0,0,0,,0,235,235,33,1,,,,
,,,,,,6075924bf6fdb1d10daa672a,66a626ef09d4e21e1a8894ec,67360fa78dbaf22aecd1339f,2024-11-14_15h57.04.158,Tarea de género gramatical,2024.2.2,Win32,60.24096386,,,,,,,,,,,,,,,,,,,,,,,602.1039,603.1873,a,1,[],[],[],[],[],[],[],0.4182,1,603.1874,603.6876,,,,,,568,MAS,CON,150,baúl,,l,0.4182,,603.6884,603.6899,-0.222490657,0.15115849,0,0,0,,0,236,236,117,1,,,,
,,,,,,6075924bf6fdb1d10daa672a,66a626ef09d4e21e1a8894ec,67360fa78dbaf22aecd1339f,2024-11-14_15h57.04.158,Tarea de género gramatical,2024.2.2,Win32,60.24096386,,,,,,,,,,,,,,,,,,,,,,,603.6909,604.989,l,1,[],[],[],[],[],[],[],0.6202,1,604.9891,605.4898,,,,,,741,FEM,AGR,150,aguja,la,a,0.6202,,605.4898,605.4899,-0.222490657,0.15115849,0,0,0,,0,237,237,290,1,,,,
,,,,,,6075924bf6fdb1d10daa672a,66a626ef09d4e21e1a8894ec,67360fa78dbaf22aecd1339f,2024-11-14_15h57.04.158,Tarea de género gramatical,2024.2.2,Win32,60.24096386,,,,,,,,,,,,,,,,,,,,,,,605.4907,606.8078,l,1,[],[],[],[],[],[],[],0.6591,1,606.8078,607.3082,,,,,,781,FEM,CON,150,cárcel,,a,0.6591,,607.3082,607.3083,-0.222490657,0.15115849,0,0,0,,0,238,238,330,1,,,,
,,,,,,6075924bf6fdb1d10daa672a,66a626ef09d4e21e1a8894ec,67360fa78dbaf22aecd1339f,2024-11-14_15h57.04.158,Tarea de género gramatical,2024.2.2,Win32,60.24096386,,,,,,,,,,,,,,,,,,,,,,,607.3091,608.4928,a,1,[],[],[],[],[],[],[],0.5288,1,608.4929,608.9933,,,,,,786,MAS,AGR,150,crimen,el,l,0.5288,,608.9933,608.9934,-0.222490657,0.15115849,0,0,0,,0,239,239,335,1,,,,
,,,,,,6075924bf6fdb1d10daa672a,66a626ef09d4e21e1a8894ec,67360fa78dbaf22aecd1339f,2024-11-14_15h57.04.158,Tarea de género gramatical,2024.2.2,Win32,60.24096386,,,,,,,,,,,,,,,,,,,,,,,608.9942,610.0944,a,1,[],[],[],[],[],[],[],0.4438,1,610.0945,610.5946,,,,,,821,MAS,DIS,150,sonido,la,l,0.4438,,610.5955,610.5969,-0.222490657,0.15115849,0,0,0,,0,240,240,370,1,,,,
,,,,,,6075924bf6fdb1d10daa672a,66a626ef09d4e21e1a8894ec,67360fa78dbaf22aecd1339f,2024-11-14_15h57.04.158,Tarea de género gramatical,2024.2.2,Win32,60.24096386,,,,,,,,,,,,,,,,,,,,,,,610.598,611.6459,a,1,[],[],[],[],[],[],[],0.3773,1,611.6459,612.1465,,,,,,725,MAS,DIS,150,disco,la,l,0.3773,,612.1465,612.1467,-0.222490657,0.15115849,0,0,0,,0,241,241,274,1,,,,
,,,,,,6075924bf6fdb1d10daa672a,66a626ef09d4e21e1a8894ec,67360fa78dbaf22aecd1339f,2024-11-14_15h57.04.158,Tarea de género gramatical,2024.2.2,Win32,60.24096386,,,,,,,,,,,,,,,,,,,,,,,612.1474,613.2141,l,1,[],[],[],[],[],[],[],0.4025,1,613.2142,613.7146,,,,,,890,FEM,DIS,150,patada,el,a,0.4025,,613.7146,613.7147,-0.222490657,0.15115849,0,0,0,,0,242,242,439,1,,,,
,,,,,,6075924bf6fdb1d10daa672a,66a626ef09d4e21e1a8894ec,67360fa78dbaf22aecd1339f,2024-11-14_15h57.04.158,Tarea de género gramatical,2024.2.2,Win32,60.24096386,,,,,,,,,,,,,,,,,,,,,,,613.7156,614.8322,l,1,[],[],[],[],[],[],[],0.4515,1,614.8322,615.3328,,,,,,765,FEM,AGR,150,manera,la,a,0.4515,,615.3328,615.3329,-0.222490657,0.15115849,0,0,0,,0,243,243,314,1,,,,
,,,,,,6075924bf6fdb1d10daa672a,66a626ef09d4e21e1a8894ec,67360fa78dbaf22aecd1339f,2024-11-14_15h57.04.158,Tarea de género gramatical,2024.2.2,Win32,60.24096386,,,,,,,,,,,,,,,,,,,,,,,615.3338,616.4173,l,1,[],[],[],[],[],[],[],0.4242,1,616.4173,616.9178,,,,,,595,FEM,CON,150,bota,,a,0.4242,,616.9179,616.918,-0.222490657,0.15115849,0,0,0,,0,244,244,144,1,,,,
,,,,,,6075924bf6fdb1d10daa672a,66a626ef09d4e21e1a8894ec,67360fa78dbaf22aecd1339f,2024-11-14_15h57.04.158,Tarea de género gramatical,2024.2.2,Win32,60.24096386,,,,,,,,,,,,,,,,,,,,,,,616.9187,618.0189,l,1,[],[],[],[],[],[],[],0.4187,1,618.019,618.5194,,,,,,699,FEM,AGR,150,crema,la,a,0.4187,,618.5202,618.5219,-0.222490657,0.15115849,0,0,0,,0,245,245,248,1,,,,
,,,,,,6075924bf6fdb1d10daa672a,66a626ef09d4e21e1a8894ec,67360fa78dbaf22aecd1339f,2024-11-14_15h57.04.158,Tarea de género gramatical,2024.2.2,Win32,60.24096386,,,,,,,,,,,,,,,,,,,,,,,618.5231,619.6873,l,1,[],[],[],[],[],[],[],0.4928,1,619.6873,620.1877,,,,,,753,FEM,AGR,150,maldad,la,a,0.4928,,620.1877,620.1878,-0.222490657,0.15115849,0,0,0,,0,246,246,302,1,,,,
,,,,,,6075924bf6fdb1d10daa672a,66a626ef09d4e21e1a8894ec,67360fa78dbaf22aecd1339f,2024-11-14_15h57.04.158,Tarea de género gramatical,2024.2.2,Win32,60.24096386,,,,,,,,,,,,,,,,,,,,,,,620.1885,621.2387,a,1,[],[],[],[],[],[],[],0.3931,1,621.2388,621.7393,,,,,,706,MAS,CON,150,techo,,l,0.3931,,621.7393,621.7393,-0.222490657,0.15115849,0,0,0,,0,247,247,255,1,,,,
,,,,,,6075924bf6fdb1d10daa672a,66a626ef09d4e21e1a8894ec,67360fa78dbaf22aecd1339f,2024-11-14_15h57.04.158,Tarea de género gramatical,2024.2.2,Win32,60.24096386,,,,,,,,,,,,,,,,,,,,,,,621.7401,622.8069,a,1,[],[],[],[],[],[],[],0.4017,1,622.8069,623.3074,,,,,,832,MAS,CON,150,teatro,,l,0.4017,,623.3074,623.3075,-0.222490657,0.15115849,0,0,0,,0,248,248,381,1,,,,
,,,,,,6075924bf6fdb1d10daa672a,66a626ef09d4e21e1a8894ec,67360fa78dbaf22aecd1339f,2024-11-14_15h57.04.158,Tarea de género gramatical,2024.2.2,Win32,60.24096386,,,,,,,,,,,,,,,,,,,,,,,623.3084,624.5086,l,1,[],[],[],[],[],[],[],0.5341,1,624.5087,625.0093,,,,,,740,FEM,DIS,150,cabra,el,a,0.5341,,625.0102,625.0116,-0.222490657,0.15115849,0,0,0,,0,249,249,289,1,,,,
,,,,,,6075924bf6fdb1d10daa672a,66a626ef09d4e21e1a8894ec,67360fa78dbaf22aecd1339f,2024-11-14_15h57.04.158,Tarea de género gramatical,2024.2.2,Win32,60.24096386,,,,,,,,,,,,,,,,,,,,,,,625.013,626.0769,a,1,[],[],[],[],[],[],[],0.3844,1,626.0769,626.5774,,,,,,814,MAS,CON,150,viento,,l,0.3844,,626.5775,626.5776,-0.222490657,0.15115849,0,0,0,,0,250,250,363,1,,,,
,,,,,,6075924bf6fdb1d10daa672a,66a626ef09d4e21e1a8894ec,67360fa78dbaf22aecd1339f,2024-11-14_15h57.04.158,Tarea de género gramatical,2024.2.2,Win32,60.24096386,,,,,,,,,,,,,,,,,,,,,,,626.5784,627.8285,a,1,[],[],[],[],[],[],[],0.5952,1,627.8286,628.3292,,,,,,839,MAS,DIS,150,tamaño,la,l,0.5952,,628.3292,628.3293,-0.222490657,0.15115849,0,0,0,,0,251,251,388,1,,,,
,,,,,,6075924bf6fdb1d10daa672a,66a626ef09d4e21e1a8894ec,67360fa78dbaf22aecd1339f,2024-11-14_15h57.04.158,Tarea de género gramatical,2024.2.2,Win32,60.24096386,,,,,,,,,,,,,,,,,,,,,,,628.3302,629.4636,a,1,[],[],[],[],[],[],[],0.4755,1,629.4637,629.9642,,,,,,514,MAS,CON,150,saco,,l,0.4755,,629.9642,629.9644,-0.222490657,0.15115849,0,0,0,,0,252,252,63,1,,,,
