counterbalancing_condition,consent_prescreening.block_1/declare_consent,consent_prescreening.block_1/age_years,consent_prescreening.block_1/gender,consent_prescreening.block_1/language_disorder,consent_prescreening.block_1/first_language,PROLIFIC_PID,STUDY_ID,SESSION_ID,date,expName,psychopyVersion,OS,frameRate,check_prescreening_answers.started,check_prescreening_answers.stopped,Instructions.started,Instructions.stopped,instr_done_keyboard.keys,instr_done_touch.x,instr_done_touch.y,instr_done_touch.leftButton,instr_done_touch.midButton,instr_done_touch.rightButton,instr_done_touch.clicked_name,instruction_pages.thisRepN,instruction_pages.thisTrialN,instruction_pages.thisN,instruction_pages.thisIndex,instruction_pages.ran,pageN,phase,instruct_text,has_image,instruct_image,instr_done_keyboard.rt,instr_done_keyboard.duration,presentTrial.started,presentTrial.stopped,response.keys,response.corr,touch_resp.x,touch_resp.y,touch_resp.leftButton,touch_resp.midButton,touch_resp.rightButton,touch_resp.time,touch_resp.clicked_name,rt,corr,feedback.started,feedback.stopped,practice_trials.thisRepN,practice_trials.thisTrialN,practice_trials.thisN,practice_trials.thisIndex,practice_trials.ran,TrialID,StimulusType,Condition,PrimeDuration,Prime,Flanker,corrAns,response.rt,response.duration,Break.started,Break.stopped,break_done_touch.x,break_done_touch.y,break_done_touch.leftButton,break_done_touch.midButton,break_done_touch.rightButton,break_done_keyboard.keys,experiment_trials.thisRepN,experiment_trials.thisTrialN,experiment_trials.thisN,experiment_trials.thisIndex,experiment_trials.ran,break_done_keyboard.rt,break_done_keyboard.duration,End.started,End.stopped
1,"[""over_18"",""comfortable"",""read_info"",""consent_given""]",47,M,"[""none""]","[""spanish""]",609956bd373ddbf6901fe809,66a626ef09d4e21e1a8894ec,67360fcc85d9661f3c842e74,2024-11-14_16h01.03.082,Tarea de género gramatical,2024.2.2,Win32,30.08061605,,,,,,,,,,,,,,,,,,,,,,,,,,,,,,,,,,,,,,,,,,,,,,,,,,,,,,,,,,,,,,,,,,,,,
,,,,,,609956bd373ddbf6901fe809,66a626ef09d4e21e1a8894ec,67360fcc85d9661f3c842e74,2024-11-14_16h01.03.082,Tarea de género gramatical,2024.2.2,Win32,30.08061605,121.2508,121.2513,,,,,,,,,,,,,,,,,,,,,,,,,,,,,,,,,,,,,,,,,,,,,,,,,,,,,,,,,,,,,,,,,,,
,,,,,,609956bd373ddbf6901fe809,66a626ef09d4e21e1a8894ec,67360fcc85d9661f3c842e74,2024-11-14_16h01.03.082,Tarea de género gramatical,2024.2.2,Win32,30.08061605,,,121.3002,145.2995,,0.040364583,-0.388020833,1,0,0,instr_done_button,0,0,0,0,1,1,instructions,"INSTRUCCIONES
Va a realizar una prueba de selección gramatical. Desde el comienzo de la prueba mire siempre al centro de la pantalla. Al cabo de un momento, aparecerán palabras. La tarea consiste en determinar si la palabra del centro (siempre será un sustantivo), pertenece al género masculino o femenino.

Pulse la tecla ESPACIO o toque el botón de abajo para continuar.",0,keyboardresponseMF.png,,,,,,,,,,,,,,,,,,,,,,,,,,,,,,,,,,,,,,,,,,,,,,,,
,,,,,,609956bd373ddbf6901fe809,66a626ef09d4e21e1a8894ec,67360fcc85d9661f3c842e74,2024-11-14_16h01.03.082,Tarea de género gramatical,2024.2.2,Win32,30.08061605,,,145.3037,163.7517,space,0.483072917,-0.088541667,0,0,0,,0,1,1,1,1,2,instructions,"Si su dispositivo tiene teclado, pulse la tecla ""A"" para las palabras en masculino (por ejemplo: ""arroz"") y la tecla ""L"" para las palabras en femenino (por ejemplo: ""mano"").
Pulse la tecla ESPACIO o toque el botón de abajo para continuar.",1,keyboardresponseMF.png,18.2711,,,,,,,,,,,,,,,,,,,,,,,,,,,,,,,,,,,,,,,,,,,,,,,
,,,,,,609956bd373ddbf6901fe809,66a626ef09d4e21e1a8894ec,67360fcc85d9661f3c842e74,2024-11-14_16h01.03.082,Tarea de género gramatical,2024.2.2,Win32,30.08061605,,,163.7548,171.5431,space,0.483072917,-0.088541667,0,0,0,,0,2,2,2,1,3,instructions,"Si utiliza un dispositivo sólo táctil, colóquelo en horizontal y utilice los botones de la pantalla. No utilice el ratón.
Pulse la tecla ESPACIO o toque el botón de abajo para continuar.",2,touchresponseMF.png,7.6586,,,,,,,,,,,,,,,,,,,,,,,,,,,,,,,,,,,,,,,,,,,,,,,
,,,,,,609956bd373ddbf6901fe809,66a626ef09d4e21e1a8894ec,67360fcc85d9661f3c842e74,2024-11-14_16h01.03.082,Tarea de género gramatical,2024.2.2,Win32,30.08061605,,,171.5619,184.551,space,0.483072917,-0.088541667,0,0,0,,0,3,3,3,1,4,instructions,"Es muy importante que responda con la mayor rapidez y precisión posibles, ya que cada cadena de letras sólo estará en pantalla durante un instante. Si no responde en ese tiempo, aparecerá el mensaje ""Muy lento"" y el experimento pasará a la siguiente palabra. Los primeros 15 intentos serán de práctica y habrá dos descansos durante la prueba.
Pulse la tecla ESPACIO o toque el botón de abajo para iniciar la parte de práctica.",0,keyboardresponseMF.png,12.9297,,,,,,,,,,,,,,,,,,,,,,,,,,,,,,,,,,,,,,,,,,,,,,,
,,,,,,609956bd373ddbf6901fe809,66a626ef09d4e21e1a8894ec,67360fcc85d9661f3c842e74,2024-11-14_16h01.03.082,Tarea de género gramatical,2024.2.2,Win32,30.08061605,,,,,,,,,,,,,,,,,,,,,,,,184.602,187.2176,,0,[],[],[],[],[],[],[],,-1,187.2181,187.6997,0,0,0,2,1,2003,FEM,DIS,150,daga,el,a,,,,,,,,,,,,,,,,,,,
,,,,,,609956bd373ddbf6901fe809,66a626ef09d4e21e1a8894ec,67360fcc85d9661f3c842e74,2024-11-14_16h01.03.082,Tarea de género gramatical,2024.2.2,Win32,30.08061605,,,,,,,,,,,,,,,,,,,,,,,,187.7024,189.0904,l,1,[],[],[],[],[],[],[],0.6408,1,189.1026,189.5786,0,1,1,6,1,2007,FEM,AGR,150,navaja,la,a,0.6408,,,,,,,,,,,,,,,,,,
,,,,,,609956bd373ddbf6901fe809,66a626ef09d4e21e1a8894ec,67360fcc85d9661f3c842e74,2024-11-14_16h01.03.082,Tarea de género gramatical,2024.2.2,Win32,30.08061605,,,,,,,,,,,,,,,,,,,,,,,,189.5833,190.8739,l,0,[],[],[],[],[],[],[],0.5399,0,190.8758,191.3645,0,2,2,14,1,2015,MAS,DIS,150,robot,la,l,0.5399,,,,,,,,,,,,,,,,,,
,,,,,,609956bd373ddbf6901fe809,66a626ef09d4e21e1a8894ec,67360fcc85d9661f3c842e74,2024-11-14_16h01.03.082,Tarea de género gramatical,2024.2.2,Win32,30.08061605,,,,,,,,,,,,,,,,,,,,,,,,191.3669,192.8031,l,1,[],[],[],[],[],[],[],0.6921,1,192.8042,193.281,0,3,3,1,1,2002,FEM,CON,150,pala,,a,0.6921,,,,,,,,,,,,,,,,,,
,,,,,,609956bd373ddbf6901fe809,66a626ef09d4e21e1a8894ec,67360fcc85d9661f3c842e74,2024-11-14_16h01.03.082,Tarea de género gramatical,2024.2.2,Win32,30.08061605,,,,,,,,,,,,,,,,,,,,,,,,193.2828,194.6041,l,1,[],[],[],[],[],[],[],0.5799,1,194.6044,195.0759,0,4,4,3,1,2004,FEM,AGR,150,venta,la,a,0.5799,,,,,,,,,,,,,,,,,,
,,,,,,609956bd373ddbf6901fe809,66a626ef09d4e21e1a8894ec,67360fcc85d9661f3c842e74,2024-11-14_16h01.03.082,Tarea de género gramatical,2024.2.2,Win32,30.08061605,,,,,,,,,,,,,,,,,,,,,,,,195.078,196.2482,a,1,[],[],[],[],[],[],[],0.4325,1,196.2483,196.7323,0,5,5,13,1,2014,MAS,CON,150,siglo,,l,0.4325,,,,,,,,,,,,,,,,,,
,,,,,,609956bd373ddbf6901fe809,66a626ef09d4e21e1a8894ec,67360fcc85d9661f3c842e74,2024-11-14_16h01.03.082,Tarea de género gramatical,2024.2.2,Win32,30.08061605,,,,,,,,,,,,,,,,,,,,,,,,196.7384,198.135,l,0,[],[],[],[],[],[],[],0.6872,0,198.1361,198.6103,0,6,6,10,1,2011,MAS,CON,150,canal,,l,0.6872,,,,,,,,,,,,,,,,,,
,,,,,,609956bd373ddbf6901fe809,66a626ef09d4e21e1a8894ec,67360fcc85d9661f3c842e74,2024-11-14_16h01.03.082,Tarea de género gramatical,2024.2.2,Win32,30.08061605,,,,,,,,,,,,,,,,,,,,,,,,198.612,200.2598,l,1,[],[],[],[],[],[],[],0.9051,1,200.2612,200.7406,0,7,7,4,1,2005,FEM,CON,150,placa,,a,0.9051,,,,,,,,,,,,,,,,,,
,,,,,,609956bd373ddbf6901fe809,66a626ef09d4e21e1a8894ec,67360fcc85d9661f3c842e74,2024-11-14_16h01.03.082,Tarea de género gramatical,2024.2.2,Win32,30.08061605,,,,,,,,,,,,,,,,,,,,,,,,200.7421,202.0726,l,1,[],[],[],[],[],[],[],0.5801,1,202.0728,202.5472,0,8,8,7,1,2008,FEM,CON,150,siesta,,a,0.5801,,,,,,,,,,,,,,,,,,
,,,,,,609956bd373ddbf6901fe809,66a626ef09d4e21e1a8894ec,67360fcc85d9661f3c842e74,2024-11-14_16h01.03.082,Tarea de género gramatical,2024.2.2,Win32,30.08061605,,,,,,,,,,,,,,,,,,,,,,,,202.5489,203.8207,a,1,[],[],[],[],[],[],[],0.5265,1,203.8208,204.298,0,9,9,9,1,2010,MAS,AGR,150,vecino,el,l,0.5265,,,,,,,,,,,,,,,,,,
,,,,,,609956bd373ddbf6901fe809,66a626ef09d4e21e1a8894ec,67360fcc85d9661f3c842e74,2024-11-14_16h01.03.082,Tarea de género gramatical,2024.2.2,Win32,30.08061605,,,,,,,,,,,,,,,,,,,,,,,,204.2999,205.6309,l,1,[],[],[],[],[],[],[],0.5917,1,205.631,206.1076,0,10,10,0,1,2001,FEM,AGR,150,nuca,la,a,0.5917,,,,,,,,,,,,,,,,,,
,,,,,,609956bd373ddbf6901fe809,66a626ef09d4e21e1a8894ec,67360fcc85d9661f3c842e74,2024-11-14_16h01.03.082,Tarea de género gramatical,2024.2.2,Win32,30.08061605,,,,,,,,,,,,,,,,,,,,,,,,206.1091,207.3783,l,0,[],[],[],[],[],[],[],0.5346,0,207.3793,207.8574,0,11,11,8,1,2009,MAS,DIS,150,puerto,la,l,0.5346,,,,,,,,,,,,,,,,,,
,,,,,,609956bd373ddbf6901fe809,66a626ef09d4e21e1a8894ec,67360fcc85d9661f3c842e74,2024-11-14_16h01.03.082,Tarea de género gramatical,2024.2.2,Win32,30.08061605,,,,,,,,,,,,,,,,,,,,,,,,207.8592,209.1809,a,1,[],[],[],[],[],[],[],0.5851,1,209.1823,209.6653,0,12,12,12,1,2013,MAS,AGR,150,acero,el,l,0.5851,,,,,,,,,,,,,,,,,,
,,,,,,609956bd373ddbf6901fe809,66a626ef09d4e21e1a8894ec,67360fcc85d9661f3c842e74,2024-11-14_16h01.03.082,Tarea de género gramatical,2024.2.2,Win32,30.08061605,,,,,,,,,,,,,,,,,,,,,,,,209.6675,210.9942,l,0,[],[],[],[],[],[],[],0.5831,0,210.9953,211.4733,0,13,13,11,1,2012,MAS,DIS,150,clima,la,l,0.5831,,,,,,,,,,,,,,,,,,
,,,,,,609956bd373ddbf6901fe809,66a626ef09d4e21e1a8894ec,67360fcc85d9661f3c842e74,2024-11-14_16h01.03.082,Tarea de género gramatical,2024.2.2,Win32,30.08061605,,,,,,,,,,,,,,,,,,,,,,,,211.4751,213.0111,a,0,[],[],[],[],[],[],[],0.7952,0,213.0113,213.4903,0,14,14,5,1,2006,FEM,DIS,150,serie,el,a,0.7952,,,,,,,,,,,,,,,,,,
,,,,,,609956bd373ddbf6901fe809,66a626ef09d4e21e1a8894ec,67360fcc85d9661f3c842e74,2024-11-14_16h01.03.082,Tarea de género gramatical,2024.2.2,Win32,30.08061605,,,220.7235,230.5285,space,0.483072917,-0.088541667,0,0,0,,,,,,,,,,,,9.7469,,230.656,231.9268,a,0,[],[],[],[],[],[],[],0.5344,0,231.927,232.411,,,,,,511,FEM,CON,150,ruta,,a,0.5344,,232.4115,232.4183,0.483072917,-0.088541667,0,0,0,,0,0,0,60,1,,,,
,,,,,,609956bd373ddbf6901fe809,66a626ef09d4e21e1a8894ec,67360fcc85d9661f3c842e74,2024-11-14_16h01.03.082,Tarea de género gramatical,2024.2.2,Win32,30.08061605,,,,,,,,,,,,,,,,,,,,,,,,232.4203,233.6997,a,1,[],[],[],[],[],[],[],0.5376,1,233.7007,234.1977,,,,,,876,MAS,AGR,150,pánico,el,l,0.5376,,234.1979,234.1982,0.483072917,-0.088541667,0,0,0,,0,1,1,425,1,,,,
,,,,,,609956bd373ddbf6901fe809,66a626ef09d4e21e1a8894ec,67360fcc85d9661f3c842e74,2024-11-14_16h01.03.082,Tarea de género gramatical,2024.2.2,Win32,30.08061605,,,,,,,,,,,,,,,,,,,,,,,,234.1998,235.2685,a,1,[],[],[],[],[],[],[],0.3246,1,235.2686,235.7445,,,,,,612,MAS,AGR,150,miedo,el,l,0.3246,,235.7468,235.7483,0.483072917,-0.088541667,0,0,0,,0,2,2,161,1,,,,
,,,,,,609956bd373ddbf6901fe809,66a626ef09d4e21e1a8894ec,67360fcc85d9661f3c842e74,2024-11-14_16h01.03.082,Tarea de género gramatical,2024.2.2,Win32,30.08061605,,,,,,,,,,,,,,,,,,,,,,,,235.7498,237.134,a,1,[],[],[],[],[],[],[],0.6411,1,237.1341,237.614,,,,,,660,MAS,AGR,150,baile,el,l,0.6411,,237.614,237.6142,0.483072917,-0.088541667,0,0,0,,0,3,3,209,1,,,,
,,,,,,609956bd373ddbf6901fe809,66a626ef09d4e21e1a8894ec,67360fcc85d9661f3c842e74,2024-11-14_16h01.03.082,Tarea de género gramatical,2024.2.2,Win32,30.08061605,,,,,,,,,,,,,,,,,,,,,,,,237.6161,238.7287,l,1,[],[],[],[],[],[],[],0.3697,1,238.7288,239.2035,,,,,,675,FEM,AGR,150,pieza,la,a,0.3697,,239.2037,239.2039,0.483072917,-0.088541667,0,0,0,,0,4,4,224,1,,,,
,,,,,,609956bd373ddbf6901fe809,66a626ef09d4e21e1a8894ec,67360fcc85d9661f3c842e74,2024-11-14_16h01.03.082,Tarea de género gramatical,2024.2.2,Win32,30.08061605,,,,,,,,,,,,,,,,,,,,,,,,239.2053,240.4314,a,1,[],[],[],[],[],[],[],0.4851,1,240.4316,240.9114,,,,,,592,MAS,CON,150,lodo,,l,0.4851,,240.9115,240.9117,0.483072917,-0.088541667,0,0,0,,0,5,5,141,1,,,,
,,,,,,609956bd373ddbf6901fe809,66a626ef09d4e21e1a8894ec,67360fcc85d9661f3c842e74,2024-11-14_16h01.03.082,Tarea de género gramatical,2024.2.2,Win32,30.08061605,,,,,,,,,,,,,,,,,,,,,,,,240.9132,242.0296,a,1,[],[],[],[],[],[],[],0.372,1,242.0298,242.5103,,,,,,874,MAS,CON,150,rastro,,l,0.372,,242.512,242.5136,0.483072917,-0.088541667,0,0,0,,0,6,6,423,1,,,,
,,,,,,609956bd373ddbf6901fe809,66a626ef09d4e21e1a8894ec,67360fcc85d9661f3c842e74,2024-11-14_16h01.03.082,Tarea de género gramatical,2024.2.2,Win32,30.08061605,,,,,,,,,,,,,,,,,,,,,,,,242.5148,243.6263,a,1,[],[],[],[],[],[],[],0.3701,1,243.6265,244.1047,,,,,,862,MAS,CON,150,espejo,,l,0.3701,,244.1048,244.1052,0.483072917,-0.088541667,0,0,0,,0,7,7,411,1,,,,
,,,,,,609956bd373ddbf6901fe809,66a626ef09d4e21e1a8894ec,67360fcc85d9661f3c842e74,2024-11-14_16h01.03.082,Tarea de género gramatical,2024.2.2,Win32,30.08061605,,,,,,,,,,,,,,,,,,,,,,,,244.1066,245.2763,l,1,[],[],[],[],[],[],[],0.4295,1,245.2765,245.7555,,,,,,531,FEM,AGR,150,cima,la,a,0.4295,,245.7556,245.7558,0.483072917,-0.088541667,0,0,0,,0,8,8,80,1,,,,
,,,,,,609956bd373ddbf6901fe809,66a626ef09d4e21e1a8894ec,67360fcc85d9661f3c842e74,2024-11-14_16h01.03.082,Tarea de género gramatical,2024.2.2,Win32,30.08061605,,,,,,,,,,,,,,,,,,,,,,,,245.7577,246.8968,l,0,[],[],[],[],[],[],[],0.4271,0,246.8981,247.3858,,,,,,694,MAS,CON,150,hielo,,l,0.4271,,247.3859,247.3861,0.483072917,-0.088541667,0,0,0,,0,9,9,243,1,,,,
,,,,,,609956bd373ddbf6901fe809,66a626ef09d4e21e1a8894ec,67360fcc85d9661f3c842e74,2024-11-14_16h01.03.082,Tarea de género gramatical,2024.2.2,Win32,30.08061605,,,,,,,,,,,,,,,,,,,,,,,,247.3877,248.82,a,1,[],[],[],[],[],[],[],0.6884,1,248.8215,249.303,,,,,,744,MAS,AGR,150,cable,el,l,0.6884,,249.303,249.3034,0.483072917,-0.088541667,0,0,0,,0,10,10,293,1,,,,
,,,,,,609956bd373ddbf6901fe809,66a626ef09d4e21e1a8894ec,67360fcc85d9661f3c842e74,2024-11-14_16h01.03.082,Tarea de género gramatical,2024.2.2,Win32,30.08061605,,,,,,,,,,,,,,,,,,,,,,,,249.3048,250.6923,l,1,[],[],[],[],[],[],[],0.6865,1,250.6924,251.1752,,,,,,487,FEM,CON,150,sala,,a,0.6865,,251.178,251.1795,0.483072917,-0.088541667,0,0,0,,0,11,11,36,1,,,,
,,,,,,609956bd373ddbf6901fe809,66a626ef09d4e21e1a8894ec,67360fcc85d9661f3c842e74,2024-11-14_16h01.03.082,Tarea de género gramatical,2024.2.2,Win32,30.08061605,,,,,,,,,,,,,,,,,,,,,,,,251.1814,252.3437,a,1,[],[],[],[],[],[],[],0.4272,1,252.3438,252.8205,,,,,,647,MAS,DIS,150,avión,la,l,0.4272,,252.8205,252.8207,0.483072917,-0.088541667,0,0,0,,0,12,12,196,1,,,,
,,,,,,609956bd373ddbf6901fe809,66a626ef09d4e21e1a8894ec,67360fcc85d9661f3c842e74,2024-11-14_16h01.03.082,Tarea de género gramatical,2024.2.2,Win32,30.08061605,,,,,,,,,,,,,,,,,,,,,,,,252.8222,254.0349,a,1,[],[],[],[],[],[],[],0.4735,1,254.0352,254.5132,,,,,,606,MAS,AGR,150,amigo,el,l,0.4735,,254.5133,254.5135,0.483072917,-0.088541667,0,0,0,,0,13,13,155,1,,,,
,,,,,,609956bd373ddbf6901fe809,66a626ef09d4e21e1a8894ec,67360fcc85d9661f3c842e74,2024-11-14_16h01.03.082,Tarea de género gramatical,2024.2.2,Win32,30.08061605,,,,,,,,,,,,,,,,,,,,,,,,254.5151,255.6862,l,1,[],[],[],[],[],[],[],0.4268,1,255.6864,256.1674,,,,,,620,FEM,DIS,150,carta,el,a,0.4268,,256.1682,256.1685,0.483072917,-0.088541667,0,0,0,,0,14,14,169,1,,,,
,,,,,,609956bd373ddbf6901fe809,66a626ef09d4e21e1a8894ec,67360fcc85d9661f3c842e74,2024-11-14_16h01.03.082,Tarea de género gramatical,2024.2.2,Win32,30.08061605,,,,,,,,,,,,,,,,,,,,,,,,256.1699,257.3283,l,1,[],[],[],[],[],[],[],0.4218,1,257.3285,257.8047,,,,,,495,FEM,AGR,150,isla,la,a,0.4218,,257.8066,257.8079,0.483072917,-0.088541667,0,0,0,,0,15,15,44,1,,,,
,,,,,,609956bd373ddbf6901fe809,66a626ef09d4e21e1a8894ec,67360fcc85d9661f3c842e74,2024-11-14_16h01.03.082,Tarea de género gramatical,2024.2.2,Win32,30.08061605,,,,,,,,,,,,,,,,,,,,,,,,257.8091,258.9766,l,1,[],[],[],[],[],[],[],0.4247,1,258.9767,259.4502,,,,,,501,FEM,AGR,150,bala,la,a,0.4247,,259.4502,259.4504,0.483072917,-0.088541667,0,0,0,,0,16,16,50,1,,,,
,,,,,,609956bd373ddbf6901fe809,66a626ef09d4e21e1a8894ec,67360fcc85d9661f3c842e74,2024-11-14_16h01.03.082,Tarea de género gramatical,2024.2.2,Win32,30.08061605,,,,,,,,,,,,,,,,,,,,,,,,259.4526,260.5608,l,1,[],[],[],[],[],[],[],0.3687,1,260.561,261.0362,,,,,,553,FEM,CON,150,fama,,a,0.3687,,261.0372,261.0375,0.483072917,-0.088541667,0,0,0,,0,17,17,102,1,,,,
,,,,,,609956bd373ddbf6901fe809,66a626ef09d4e21e1a8894ec,67360fcc85d9661f3c842e74,2024-11-14_16h01.03.082,Tarea de género gramatical,2024.2.2,Win32,30.08061605,,,,,,,,,,,,,,,,,,,,,,,,261.0389,262.2614,a,0,[],[],[],[],[],[],[],0.4812,0,262.2625,262.7396,,,,,,830,FEM,DIS,150,madera,el,a,0.4812,,262.7397,262.7399,0.483072917,-0.088541667,0,0,0,,0,18,18,379,1,,,,
,,,,,,609956bd373ddbf6901fe809,66a626ef09d4e21e1a8894ec,67360fcc85d9661f3c842e74,2024-11-14_16h01.03.082,Tarea de género gramatical,2024.2.2,Win32,30.08061605,,,,,,,,,,,,,,,,,,,,,,,,262.7418,264.1191,l,1,[],[],[],[],[],[],[],0.6396,1,264.1202,264.598,,,,,,758,FEM,DIS,150,semana,el,a,0.6396,,264.5981,264.5982,0.483072917,-0.088541667,0,0,0,,0,19,19,307,1,,,,
,,,,,,609956bd373ddbf6901fe809,66a626ef09d4e21e1a8894ec,67360fcc85d9661f3c842e74,2024-11-14_16h01.03.082,Tarea de género gramatical,2024.2.2,Win32,30.08061605,,,,,,,,,,,,,,,,,,,,,,,,264.5996,265.8722,l,1,[],[],[],[],[],[],[],0.5276,1,265.8724,266.3528,,,,,,607,FEM,CON,150,madre,,a,0.5276,,266.3544,266.3557,0.483072917,-0.088541667,0,0,0,,0,20,20,156,1,,,,
,,,,,,609956bd373ddbf6901fe809,66a626ef09d4e21e1a8894ec,67360fcc85d9661f3c842e74,2024-11-14_16h01.03.082,Tarea de género gramatical,2024.2.2,Win32,30.08061605,,,,,,,,,,,,,,,,,,,,,,,,266.3569,267.5766,a,0,[],[],[],[],[],[],[],0.4822,0,267.5777,268.0525,,,,,,602,FEM,DIS,150,gente,el,a,0.4822,,268.0527,268.0529,0.483072917,-0.088541667,0,0,0,,0,21,21,151,1,,,,
,,,,,,609956bd373ddbf6901fe809,66a626ef09d4e21e1a8894ec,67360fcc85d9661f3c842e74,2024-11-14_16h01.03.082,Tarea de género gramatical,2024.2.2,Win32,30.08061605,,,,,,,,,,,,,,,,,,,,,,,,268.0544,269.6532,a,1,[],[],[],[],[],[],[],0.8588,1,269.6545,270.1318,,,,,,575,MAS,DIS,150,bate,la,l,0.8588,,270.1325,270.1327,0.483072917,-0.088541667,0,0,0,,0,22,22,124,1,,,,
,,,,,,609956bd373ddbf6901fe809,66a626ef09d4e21e1a8894ec,67360fcc85d9661f3c842e74,2024-11-14_16h01.03.082,Tarea de género gramatical,2024.2.2,Win32,30.08061605,,,,,,,,,,,,,,,,,,,,,,,,270.1342,271.4079,a,1,[],[],[],[],[],[],[],0.5338,1,271.4081,271.8891,,,,,,731,MAS,DIS,150,actor,la,l,0.5338,,271.8892,271.8894,0.483072917,-0.088541667,0,0,0,,0,23,23,280,1,,,,
,,,,,,609956bd373ddbf6901fe809,66a626ef09d4e21e1a8894ec,67360fcc85d9661f3c842e74,2024-11-14_16h01.03.082,Tarea de género gramatical,2024.2.2,Win32,30.08061605,,,,,,,,,,,,,,,,,,,,,,,,271.8909,273.1107,l,0,[],[],[],[],[],[],[],0.4805,0,273.1119,273.5874,,,,,,514,MAS,CON,150,saco,,l,0.4805,,273.589,273.5903,0.483072917,-0.088541667,0,0,0,,0,24,24,63,1,,,,
,,,,,,609956bd373ddbf6901fe809,66a626ef09d4e21e1a8894ec,67360fcc85d9661f3c842e74,2024-11-14_16h01.03.082,Tarea de género gramatical,2024.2.2,Win32,30.08061605,,,,,,,,,,,,,,,,,,,,,,,,273.592,274.808,l,1,[],[],[],[],[],[],[],0.4752,1,274.8093,275.2844,,,,,,625,FEM,CON,150,señal,,a,0.4752,,275.2844,275.2847,0.483072917,-0.088541667,0,0,0,,0,25,25,174,1,,,,
,,,,,,609956bd373ddbf6901fe809,66a626ef09d4e21e1a8894ec,67360fcc85d9661f3c842e74,2024-11-14_16h01.03.082,Tarea de género gramatical,2024.2.2,Win32,30.08061605,,,,,,,,,,,,,,,,,,,,,,,,275.2862,276.5166,l,1,[],[],[],[],[],[],[],0.4849,1,276.5167,276.9931,,,,,,673,FEM,CON,150,plata,,a,0.4849,,276.9932,276.9935,0.483072917,-0.088541667,0,0,0,,0,26,26,222,1,,,,
,,,,,,609956bd373ddbf6901fe809,66a626ef09d4e21e1a8894ec,67360fcc85d9661f3c842e74,2024-11-14_16h01.03.082,Tarea de género gramatical,2024.2.2,Win32,30.08061605,,,,,,,,,,,,,,,,,,,,,,,,276.9952,278.2663,l,1,[],[],[],[],[],[],[],0.5301,1,278.2666,278.7389,,,,,,729,FEM,AGR,150,selva,la,a,0.5301,,278.7399,278.7401,0.483072917,-0.088541667,0,0,0,,0,27,27,278,1,,,,
,,,,,,609956bd373ddbf6901fe809,66a626ef09d4e21e1a8894ec,67360fcc85d9661f3c842e74,2024-11-14_16h01.03.082,Tarea de género gramatical,2024.2.2,Win32,30.08061605,,,,,,,,,,,,,,,,,,,,,,,,278.7416,279.9635,l,1,[],[],[],[],[],[],[],0.4796,1,279.964,280.4569,,,,,,674,FEM,DIS,150,arena,el,a,0.4796,,280.4569,280.457,0.483072917,-0.088541667,0,0,0,,0,28,28,223,1,,,,
,,,,,,609956bd373ddbf6901fe809,66a626ef09d4e21e1a8894ec,67360fcc85d9661f3c842e74,2024-11-14_16h01.03.082,Tarea de género gramatical,2024.2.2,Win32,30.08061605,,,,,,,,,,,,,,,,,,,,,,,,280.4586,281.5228,a,1,[],[],[],[],[],[],[],0.3187,1,281.5229,281.9946,,,,,,545,MAS,DIS,150,tomo,la,l,0.3187,,281.9963,281.9991,0.483072917,-0.088541667,0,0,0,,0,29,29,94,1,,,,
,,,,,,609956bd373ddbf6901fe809,66a626ef09d4e21e1a8894ec,67360fcc85d9661f3c842e74,2024-11-14_16h01.03.082,Tarea de género gramatical,2024.2.2,Win32,30.08061605,,,,,,,,,,,,,,,,,,,,,,,,282.001,283.3255,a,1,[],[],[],[],[],[],[],0.5825,1,283.3257,283.7973,,,,,,564,MAS,AGR,150,menú,el,l,0.5825,,283.7974,283.7977,0.483072917,-0.088541667,0,0,0,,0,30,30,113,1,,,,
,,,,,,609956bd373ddbf6901fe809,66a626ef09d4e21e1a8894ec,67360fcc85d9661f3c842e74,2024-11-14_16h01.03.082,Tarea de género gramatical,2024.2.2,Win32,30.08061605,,,,,,,,,,,,,,,,,,,,,,,,283.7992,285.0726,l,1,[],[],[],[],[],[],[],0.525,1,285.0727,285.5485,,,,,,506,FEM,DIS,150,bola,el,a,0.525,,285.5486,285.5487,0.483072917,-0.088541667,0,0,0,,0,31,31,55,1,,,,
,,,,,,609956bd373ddbf6901fe809,66a626ef09d4e21e1a8894ec,67360fcc85d9661f3c842e74,2024-11-14_16h01.03.082,Tarea de género gramatical,2024.2.2,Win32,30.08061605,,,,,,,,,,,,,,,,,,,,,,,,285.5527,287.1964,a,1,[],[],[],[],[],[],[],0.9007,1,287.1966,287.6753,,,,,,682,MAS,CON,150,calor,,l,0.9007,,287.6754,287.6755,0.483072917,-0.088541667,0,0,0,,0,32,32,231,1,,,,
,,,,,,609956bd373ddbf6901fe809,66a626ef09d4e21e1a8894ec,67360fcc85d9661f3c842e74,2024-11-14_16h01.03.082,Tarea de género gramatical,2024.2.2,Win32,30.08061605,,,,,,,,,,,,,,,,,,,,,,,,287.6774,288.9552,a,1,[],[],[],[],[],[],[],0.5323,1,288.9553,289.4321,,,,,,882,MAS,AGR,150,océano,el,l,0.5323,,289.4348,289.436,0.483072917,-0.088541667,0,0,0,,0,33,33,431,1,,,,
,,,,,,609956bd373ddbf6901fe809,66a626ef09d4e21e1a8894ec,67360fcc85d9661f3c842e74,2024-11-14_16h01.03.082,Tarea de género gramatical,2024.2.2,Win32,30.08061605,,,,,,,,,,,,,,,,,,,,,,,,289.4372,290.6039,a,1,[],[],[],[],[],[],[],0.4251,1,290.604,291.0792,,,,,,767,MAS,DIS,150,número,la,l,0.4251,,291.0793,291.0795,0.483072917,-0.088541667,0,0,0,,0,34,34,316,1,,,,
,,,,,,609956bd373ddbf6901fe809,66a626ef09d4e21e1a8894ec,67360fcc85d9661f3c842e74,2024-11-14_16h01.03.082,Tarea de género gramatical,2024.2.2,Win32,30.08061605,,,,,,,,,,,,,,,,,,,,,,,,291.0809,292.2484,a,1,[],[],[],[],[],[],[],0.4258,1,292.2486,292.7205,,,,,,672,MAS,AGR,150,valor,el,l,0.4258,,292.7206,292.7207,0.483072917,-0.088541667,0,0,0,,0,35,35,221,1,,,,
,,,,,,609956bd373ddbf6901fe809,66a626ef09d4e21e1a8894ec,67360fcc85d9661f3c842e74,2024-11-14_16h01.03.082,Tarea de género gramatical,2024.2.2,Win32,30.08061605,,,,,,,,,,,,,,,,,,,,,,,,292.7224,293.9475,l,1,[],[],[],[],[],[],[],0.4775,1,293.9477,294.4258,,,,,,823,FEM,CON,150,lluvia,,a,0.4775,,294.426,294.427,0.483072917,-0.088541667,0,0,0,,0,36,36,372,1,,,,
,,,,,,609956bd373ddbf6901fe809,66a626ef09d4e21e1a8894ec,67360fcc85d9661f3c842e74,2024-11-14_16h01.03.082,Tarea de género gramatical,2024.2.2,Win32,30.08061605,,,,,,,,,,,,,,,,,,,,,,,,294.4284,295.5506,a,1,[],[],[],[],[],[],[],0.3764,1,295.5507,296.0307,,,,,,454,MAS,CON,150,hijo,,l,0.3764,,296.0315,296.0318,0.483072917,-0.088541667,0,0,0,,0,37,37,3,1,,,,
,,,,,,609956bd373ddbf6901fe809,66a626ef09d4e21e1a8894ec,67360fcc85d9661f3c842e74,2024-11-14_16h01.03.082,Tarea de género gramatical,2024.2.2,Win32,30.08061605,,,,,,,,,,,,,,,,,,,,,,,,296.0334,297.3161,l,1,[],[],[],[],[],[],[],0.534,1,297.3162,297.793,,,,,,667,FEM,CON,150,tarea,,a,0.534,,297.7948,297.7976,0.483072917,-0.088541667,0,0,0,,0,38,38,216,1,,,,
,,,,,,609956bd373ddbf6901fe809,66a626ef09d4e21e1a8894ec,67360fcc85d9661f3c842e74,2024-11-14_16h01.03.082,Tarea de género gramatical,2024.2.2,Win32,30.08061605,,,,,,,,,,,,,,,,,,,,,,,,297.799,299.0815,l,1,[],[],[],[],[],[],[],0.5337,1,299.0816,299.5562,,,,,,687,FEM,AGR,150,ducha,la,a,0.5337,,299.5563,299.5564,0.483072917,-0.088541667,0,0,0,,0,39,39,236,1,,,,
,,,,,,609956bd373ddbf6901fe809,66a626ef09d4e21e1a8894ec,67360fcc85d9661f3c842e74,2024-11-14_16h01.03.082,Tarea de género gramatical,2024.2.2,Win32,30.08061605,,,,,,,,,,,,,,,,,,,,,,,,299.5587,300.6771,a,1,[],[],[],[],[],[],[],0.3722,1,300.6773,301.1602,,,,,,580,MAS,CON,150,yate,,l,0.3722,,301.1602,301.1605,0.483072917,-0.088541667,0,0,0,,0,40,40,129,1,,,,
,,,,,,609956bd373ddbf6901fe809,66a626ef09d4e21e1a8894ec,67360fcc85d9661f3c842e74,2024-11-14_16h01.03.082,Tarea de género gramatical,2024.2.2,Win32,30.08061605,,,,,,,,,,,,,,,,,,,,,,,,301.1619,302.4308,l,1,[],[],[],[],[],[],[],0.5261,1,302.431,302.9097,,,,,,848,FEM,DIS,150,hierba,el,a,0.5261,,302.9097,302.9098,0.483072917,-0.088541667,0,0,0,,0,41,41,397,1,,,,
,,,,,,609956bd373ddbf6901fe809,66a626ef09d4e21e1a8894ec,67360fcc85d9661f3c842e74,2024-11-14_16h01.03.082,Tarea de género gramatical,2024.2.2,Win32,30.08061605,,,,,,,,,,,,,,,,,,,,,,,,302.9116,304.241,l,1,[],[],[],[],[],[],[],0.5868,1,304.2412,304.7218,,,,,,663,FEM,AGR,150,magia,la,a,0.5868,,304.7231,304.7246,0.483072917,-0.088541667,0,0,0,,0,42,42,212,1,,,,
,,,,,,609956bd373ddbf6901fe809,66a626ef09d4e21e1a8894ec,67360fcc85d9661f3c842e74,2024-11-14_16h01.03.082,Tarea de género gramatical,2024.2.2,Win32,30.08061605,,,,,,,,,,,,,,,,,,,,,,,,304.7258,305.8438,l,1,[],[],[],[],[],[],[],0.3747,1,305.844,306.3225,,,,,,657,FEM,AGR,150,playa,la,a,0.3747,,306.3226,306.3227,0.483072917,-0.088541667,0,0,0,,0,43,43,206,1,,,,
,,,,,,609956bd373ddbf6901fe809,66a626ef09d4e21e1a8894ec,67360fcc85d9661f3c842e74,2024-11-14_16h01.03.082,Tarea de género gramatical,2024.2.2,Win32,30.08061605,,,,,,,,,,,,,,,,,,,,,,,,306.3263,307.5036,l,1,[],[],[],[],[],[],[],0.4324,1,307.5039,307.9783,,,,,,686,FEM,DIS,150,deuda,el,a,0.4324,,307.9784,307.9795,0.483072917,-0.088541667,0,0,0,,0,44,44,235,1,,,,
,,,,,,609956bd373ddbf6901fe809,66a626ef09d4e21e1a8894ec,67360fcc85d9661f3c842e74,2024-11-14_16h01.03.082,Tarea de género gramatical,2024.2.2,Win32,30.08061605,,,,,,,,,,,,,,,,,,,,,,,,307.9809,309.1486,l,1,[],[],[],[],[],[],[],0.4212,1,309.1487,309.6296,,,,,,818,FEM,DIS,150,gracia,el,a,0.4212,,309.6298,309.6298,0.483072917,-0.088541667,0,0,0,,0,45,45,367,1,,,,
,,,,,,609956bd373ddbf6901fe809,66a626ef09d4e21e1a8894ec,67360fcc85d9661f3c842e74,2024-11-14_16h01.03.082,Tarea de género gramatical,2024.2.2,Win32,30.08061605,,,,,,,,,,,,,,,,,,,,,,,,309.6314,310.7608,a,1,[],[],[],[],[],[],[],0.3778,1,310.7609,311.2426,,,,,,508,MAS,CON,150,mono,,l,0.3778,,311.2428,311.2429,0.483072917,-0.088541667,0,0,0,,0,46,46,57,1,,,,
,,,,,,609956bd373ddbf6901fe809,66a626ef09d4e21e1a8894ec,67360fcc85d9661f3c842e74,2024-11-14_16h01.03.082,Tarea de género gramatical,2024.2.2,Win32,30.08061605,,,,,,,,,,,,,,,,,,,,,,,,311.2443,312.4141,a,0,[],[],[],[],[],[],[],0.4285,0,312.4151,312.8936,,,,,,685,FEM,CON,150,torre,,a,0.4285,,312.895,312.8962,0.483072917,-0.088541667,0,0,0,,0,47,47,234,1,,,,
,,,,,,609956bd373ddbf6901fe809,66a626ef09d4e21e1a8894ec,67360fcc85d9661f3c842e74,2024-11-14_16h01.03.082,Tarea de género gramatical,2024.2.2,Win32,30.08061605,,,,,,,,,,,,,,,,,,,,,,,,312.8974,314.4399,l,1,[],[],[],[],[],[],[],0.797,1,314.4412,314.9105,,,,,,680,FEM,DIS,150,regla,el,a,0.797,,314.9105,314.9106,0.483072917,-0.088541667,0,0,0,,0,48,48,229,1,,,,
,,,,,,609956bd373ddbf6901fe809,66a626ef09d4e21e1a8894ec,67360fcc85d9661f3c842e74,2024-11-14_16h01.03.082,Tarea de género gramatical,2024.2.2,Win32,30.08061605,,,,,,,,,,,,,,,,,,,,,,,,314.9123,316.2631,a,1,[],[],[],[],[],[],[],0.6433,1,316.2632,316.7448,,,,,,730,MAS,CON,150,salón,,l,0.6433,,316.745,316.7451,0.483072917,-0.088541667,0,0,0,,0,49,49,279,1,,,,
,,,,,,609956bd373ddbf6901fe809,66a626ef09d4e21e1a8894ec,67360fcc85d9661f3c842e74,2024-11-14_16h01.03.082,Tarea de género gramatical,2024.2.2,Win32,30.08061605,,,,,,,,,,,,,,,,,,,,,,,,316.7467,318.1416,a,1,[],[],[],[],[],[],[],0.6599,1,318.1417,318.6207,,,,,,707,MAS,DIS,150,pecho,la,l,0.6599,,318.6218,318.6219,0.483072917,-0.088541667,0,0,0,,0,50,50,256,1,,,,
,,,,,,609956bd373ddbf6901fe809,66a626ef09d4e21e1a8894ec,67360fcc85d9661f3c842e74,2024-11-14_16h01.03.082,Tarea de género gramatical,2024.2.2,Win32,30.08061605,,,,,,,,,,,,,,,,,,,,,,,,318.6234,319.844,a,1,[],[],[],[],[],[],[],0.4751,1,319.8442,320.3247,,,,,,886,MAS,CON,150,objeto,,l,0.4751,,320.326,320.3276,0.483072917,-0.088541667,0,0,0,,0,51,51,435,1,,,,
,,,,,,609956bd373ddbf6901fe809,66a626ef09d4e21e1a8894ec,67360fcc85d9661f3c842e74,2024-11-14_16h01.03.082,Tarea de género gramatical,2024.2.2,Win32,30.08061605,,,,,,,,,,,,,,,,,,,,,,,,320.3288,321.5518,a,1,[],[],[],[],[],[],[],0.4779,1,321.5519,322.0284,,,,,,455,MAS,DIS,150,tipo,la,l,0.4779,,322.0284,322.0285,0.483072917,-0.088541667,0,0,0,,0,52,52,4,1,,,,
,,,,,,609956bd373ddbf6901fe809,66a626ef09d4e21e1a8894ec,67360fcc85d9661f3c842e74,2024-11-14_16h01.03.082,Tarea de género gramatical,2024.2.2,Win32,30.08061605,,,,,,,,,,,,,,,,,,,,,,,,322.0321,323.3659,a,1,[],[],[],[],[],[],[],0.5889,1,323.3661,323.8411,,,,,,826,MAS,CON,150,efecto,,l,0.5889,,323.8412,323.8413,0.483072917,-0.088541667,0,0,0,,0,53,53,375,1,,,,
,,,,,,609956bd373ddbf6901fe809,66a626ef09d4e21e1a8894ec,67360fcc85d9661f3c842e74,2024-11-14_16h01.03.082,Tarea de género gramatical,2024.2.2,Win32,30.08061605,,,,,,,,,,,,,,,,,,,,,,,,323.8427,324.9598,l,1,[],[],[],[],[],[],[],0.3708,1,324.96,325.4382,,,,,,637,FEM,CON,150,lista,,a,0.3708,,325.4382,325.4384,0.483072917,-0.088541667,0,0,0,,0,54,54,186,1,,,,
,,,,,,609956bd373ddbf6901fe809,66a626ef09d4e21e1a8894ec,67360fcc85d9661f3c842e74,2024-11-14_16h01.03.082,Tarea de género gramatical,2024.2.2,Win32,30.08061605,,,,,,,,,,,,,,,,,,,,,,,,325.44,326.7735,a,1,[],[],[],[],[],[],[],0.5858,1,326.7736,327.247,,,,,,516,MAS,AGR,150,muro,el,l,0.5858,,327.2472,327.2482,0.483072917,-0.088541667,0,0,0,,0,55,55,65,1,,,,
,,,,,,609956bd373ddbf6901fe809,66a626ef09d4e21e1a8894ec,67360fcc85d9661f3c842e74,2024-11-14_16h01.03.082,Tarea de género gramatical,2024.2.2,Win32,30.08061605,,,,,,,,,,,,,,,,,,,,,,,,327.2497,328.5265,a,1,[],[],[],[],[],[],[],0.5312,1,328.5266,329.0052,,,,,,688,MAS,CON,150,norte,,l,0.5312,,329.0067,329.0081,0.483072917,-0.088541667,0,0,0,,0,56,56,237,1,,,,
,,,,,,609956bd373ddbf6901fe809,66a626ef09d4e21e1a8894ec,67360fcc85d9661f3c842e74,2024-11-14_16h01.03.082,Tarea de género gramatical,2024.2.2,Win32,30.08061605,,,,,,,,,,,,,,,,,,,,,,,,329.0094,330.1814,l,1,[],[],[],[],[],[],[],0.4279,1,330.1832,330.6621,,,,,,463,FEM,CON,150,hija,,a,0.4279,,330.6631,330.6632,0.483072917,-0.088541667,0,0,0,,0,57,57,12,1,,,,
,,,,,,609956bd373ddbf6901fe809,66a626ef09d4e21e1a8894ec,67360fcc85d9661f3c842e74,2024-11-14_16h01.03.082,Tarea de género gramatical,2024.2.2,Win32,30.08061605,,,,,,,,,,,,,,,,,,,,,,,,330.6647,331.8879,a,1,[],[],[],[],[],[],[],0.4809,1,331.888,332.3696,,,,,,671,MAS,DIS,150,brazo,la,l,0.4809,,332.3697,332.3699,0.483072917,-0.088541667,0,0,0,,0,58,58,220,1,,,,
,,,,,,609956bd373ddbf6901fe809,66a626ef09d4e21e1a8894ec,67360fcc85d9661f3c842e74,2024-11-14_16h01.03.082,Tarea de género gramatical,2024.2.2,Win32,30.08061605,,,,,,,,,,,,,,,,,,,,,,,,332.3715,333.696,a,1,[],[],[],[],[],[],[],0.5841,1,333.6961,334.1761,,,,,,664,MAS,CON,150,fondo,,l,0.5841,,334.1769,334.1771,0.483072917,-0.088541667,0,0,0,,0,59,59,213,1,,,,
,,,,,,609956bd373ddbf6901fe809,66a626ef09d4e21e1a8894ec,67360fcc85d9661f3c842e74,2024-11-14_16h01.03.082,Tarea de género gramatical,2024.2.2,Win32,30.08061605,,,,,,,,,,,,,,,,,,,,,,,,334.1785,335.3456,a,1,[],[],[],[],[],[],[],0.4296,1,335.3457,335.8267,,,,,,642,MAS,AGR,150,grupo,el,l,0.4296,,335.8287,335.8301,0.483072917,-0.088541667,0,0,0,,0,60,60,191,1,,,,
,,,,,,609956bd373ddbf6901fe809,66a626ef09d4e21e1a8894ec,67360fcc85d9661f3c842e74,2024-11-14_16h01.03.082,Tarea de género gramatical,2024.2.2,Win32,30.08061605,,,,,,,,,,,,,,,,,,,,,,,,335.8313,336.9559,a,1,[],[],[],[],[],[],[],0.3763,1,336.956,337.434,,,,,,509,MAS,DIS,150,lobo,la,l,0.3763,,337.434,337.4342,0.483072917,-0.088541667,0,0,0,,0,61,61,58,1,,,,
,,,,,,609956bd373ddbf6901fe809,66a626ef09d4e21e1a8894ec,67360fcc85d9661f3c842e74,2024-11-14_16h01.03.082,Tarea de género gramatical,2024.2.2,Win32,30.08061605,,,,,,,,,,,,,,,,,,,,,,,,337.4358,338.7108,a,1,[],[],[],[],[],[],[],0.5362,1,338.711,339.1891,,,,,,598,MAS,CON,150,surf,,l,0.5362,,339.1891,339.1893,0.483072917,-0.088541667,0,0,0,,0,62,62,147,1,,,,
,,,,,,609956bd373ddbf6901fe809,66a626ef09d4e21e1a8894ec,67360fcc85d9661f3c842e74,2024-11-14_16h01.03.082,Tarea de género gramatical,2024.2.2,Win32,30.08061605,,,,,,,,,,,,,,,,,,,,,,,,339.1911,340.4116,l,1,[],[],[],[],[],[],[],0.4834,1,340.4117,340.8882,,,,,,465,FEM,AGR,150,cama,la,a,0.4834,,340.8883,340.8886,0.483072917,-0.088541667,0,0,0,,0,63,63,14,1,,,,
,,,,,,609956bd373ddbf6901fe809,66a626ef09d4e21e1a8894ec,67360fcc85d9661f3c842e74,2024-11-14_16h01.03.082,Tarea de género gramatical,2024.2.2,Win32,30.08061605,,,,,,,,,,,,,,,,,,,,,,,,340.8918,342.1161,l,1,[],[],[],[],[],[],[],0.4855,1,342.1163,342.5939,,,,,,704,FEM,DIS,150,caída,el,a,0.4855,,342.594,342.5941,0.483072917,-0.088541667,0,0,0,,0,64,64,253,1,,,,
,,,,,,609956bd373ddbf6901fe809,66a626ef09d4e21e1a8894ec,67360fcc85d9661f3c842e74,2024-11-14_16h01.03.082,Tarea de género gramatical,2024.2.2,Win32,30.08061605,,,,,,,,,,,,,,,,,,,,,,,,342.5956,343.7661,a,0,[],[],[],[],[],[],[],0.4236,0,343.7673,344.2462,,,,,,645,FEM,AGR,150,pared,la,a,0.4236,,344.2476,344.2489,0.483072917,-0.088541667,0,0,0,,0,65,65,194,1,,,,
,,,,,,609956bd373ddbf6901fe809,66a626ef09d4e21e1a8894ec,67360fcc85d9661f3c842e74,2024-11-14_16h01.03.082,Tarea de género gramatical,2024.2.2,Win32,30.08061605,,,,,,,,,,,,,,,,,,,,,,,,344.2503,345.565,l,1,[],[],[],[],[],[],[],0.5779,1,345.5662,346.0507,,,,,,890,FEM,DIS,150,patada,el,a,0.5779,,346.0508,346.0509,0.483072917,-0.088541667,0,0,0,,0,66,66,439,1,,,,
,,,,,,609956bd373ddbf6901fe809,66a626ef09d4e21e1a8894ec,67360fcc85d9661f3c842e74,2024-11-14_16h01.03.082,Tarea de género gramatical,2024.2.2,Win32,30.08061605,,,,,,,,,,,,,,,,,,,,,,,,346.0527,347.3899,l,1,[],[],[],[],[],[],[],0.5862,1,347.3901,347.8885,,,,,,831,FEM,AGR,150,bebida,la,a,0.5862,,347.8886,347.8888,0.483072917,-0.088541667,0,0,0,,0,67,67,380,1,,,,
,,,,,,609956bd373ddbf6901fe809,66a626ef09d4e21e1a8894ec,67360fcc85d9661f3c842e74,2024-11-14_16h01.03.082,Tarea de género gramatical,2024.2.2,Win32,30.08061605,,,,,,,,,,,,,,,,,,,,,,,,347.8903,349.2504,a,1,[],[],[],[],[],[],[],0.6258,1,349.2506,349.737,,,,,,761,MAS,DIS,150,camino,la,l,0.6258,,349.7371,349.7372,0.483072917,-0.088541667,0,0,0,,0,68,68,310,1,,,,
,,,,,,609956bd373ddbf6901fe809,66a626ef09d4e21e1a8894ec,67360fcc85d9661f3c842e74,2024-11-14_16h01.03.082,Tarea de género gramatical,2024.2.2,Win32,30.08061605,,,,,,,,,,,,,,,,,,,,,,,,349.7386,351.2714,l,0,[],[],[],[],[],[],[],0.8001,0,351.2725,351.7416,,,,,,809,MAS,DIS,150,bosque,la,l,0.8001,,351.743,351.7444,0.483072917,-0.088541667,0,0,0,,0,69,69,358,1,,,,
,,,,,,609956bd373ddbf6901fe809,66a626ef09d4e21e1a8894ec,67360fcc85d9661f3c842e74,2024-11-14_16h01.03.082,Tarea de género gramatical,2024.2.2,Win32,30.08061605,,,,,,,,,,,,,,,,,,,,,,,,351.7457,353.2128,a,1,[],[],[],[],[],[],[],0.7339,1,353.2139,353.6824,,,,,,851,MAS,DIS,150,abrigo,la,l,0.7339,,353.6824,353.6826,0.483072917,-0.088541667,0,0,0,,0,70,70,400,1,,,,
,,,,,,609956bd373ddbf6901fe809,66a626ef09d4e21e1a8894ec,67360fcc85d9661f3c842e74,2024-11-14_16h01.03.082,Tarea de género gramatical,2024.2.2,Win32,30.08061605,,,,,,,,,,,,,,,,,,,,,,,,353.6839,354.9458,a,1,[],[],[],[],[],[],[],0.5251,1,354.9459,355.4144,,,,,,754,MAS,CON,150,tiempo,,l,0.5251,,355.4145,355.4146,0.483072917,-0.088541667,0,0,0,,0,71,71,303,1,,,,
,,,,,,609956bd373ddbf6901fe809,66a626ef09d4e21e1a8894ec,67360fcc85d9661f3c842e74,2024-11-14_16h01.03.082,Tarea de género gramatical,2024.2.2,Win32,30.08061605,,,,,,,,,,,,,,,,,,,,,,,,355.4159,356.8853,a,1,[],[],[],[],[],[],[],0.7337,1,356.8854,357.356,,,,,,844,MAS,CON,150,examen,,l,0.7337,,357.356,357.3562,0.483072917,-0.088541667,0,0,0,,0,72,72,393,1,,,,
,,,,,,609956bd373ddbf6901fe809,66a626ef09d4e21e1a8894ec,67360fcc85d9661f3c842e74,2024-11-14_16h01.03.082,Tarea de género gramatical,2024.2.2,Win32,30.08061605,,,,,,,,,,,,,,,,,,,,,,,,357.3577,358.6766,a,1,[],[],[],[],[],[],[],0.5739,1,358.6768,359.1506,,,,,,670,MAS,CON,150,huevo,,l,0.5739,,359.1507,359.1508,0.483072917,-0.088541667,0,0,0,,0,73,73,219,1,,,,
,,,,,,609956bd373ddbf6901fe809,66a626ef09d4e21e1a8894ec,67360fcc85d9661f3c842e74,2024-11-14_16h01.03.082,Tarea de género gramatical,2024.2.2,Win32,30.08061605,,,,,,,,,,,,,,,,,,,,,,,,359.1522,360.3646,a,1,[],[],[],[],[],[],[],0.4691,1,360.3647,360.851,,,,,,892,MAS,CON,150,cuadro,,l,0.4691,,360.8524,360.8537,0.483072917,-0.088541667,0,0,0,,0,74,74,441,1,,,,
,,,,,,609956bd373ddbf6901fe809,66a626ef09d4e21e1a8894ec,67360fcc85d9661f3c842e74,2024-11-14_16h01.03.082,Tarea de género gramatical,2024.2.2,Win32,30.08061605,,,,,,,,,,,,,,,,,,,,,,,,360.8551,362.0105,a,1,[],[],[],[],[],[],[],0.4209,1,362.0106,362.4833,,,,,,732,MAS,AGR,150,bolso,el,l,0.4209,,362.4834,362.4836,0.483072917,-0.088541667,0,0,0,,0,75,75,281,1,,,,
,,,,,,609956bd373ddbf6901fe809,66a626ef09d4e21e1a8894ec,67360fcc85d9661f3c842e74,2024-11-14_16h01.03.082,Tarea de género gramatical,2024.2.2,Win32,30.08061605,,,,,,,,,,,,,,,,,,,,,,,,362.485,363.5883,a,1,[],[],[],[],[],[],[],0.3673,1,363.5884,364.0626,,,,,,804,MAS,AGR,150,camión,el,l,0.3673,,364.0627,364.0628,0.483072917,-0.088541667,0,0,0,,0,76,76,353,1,,,,
,,,,,,609956bd373ddbf6901fe809,66a626ef09d4e21e1a8894ec,67360fcc85d9661f3c842e74,2024-11-14_16h01.03.082,Tarea de género gramatical,2024.2.2,Win32,30.08061605,,,,,,,,,,,,,,,,,,,,,,,,364.0646,365.2137,a,1,[],[],[],[],[],[],[],0.4192,1,365.2139,365.686,,,,,,864,MAS,AGR,150,sótano,el,l,0.4192,,365.686,365.6862,0.483072917,-0.088541667,0,0,0,,0,77,77,413,1,,,,
,,,,,,609956bd373ddbf6901fe809,66a626ef09d4e21e1a8894ec,67360fcc85d9661f3c842e74,2024-11-14_16h01.03.082,Tarea de género gramatical,2024.2.2,Win32,30.08061605,,,,,,,,,,,,,,,,,,,,,,,,365.6876,366.7834,a,1,[],[],[],[],[],[],[],0.3653,1,366.7835,367.2577,,,,,,526,MAS,CON,150,lujo,,l,0.3653,,367.259,367.2605,0.483072917,-0.088541667,0,0,0,,0,78,78,75,1,,,,
,,,,,,609956bd373ddbf6901fe809,66a626ef09d4e21e1a8894ec,67360fcc85d9661f3c842e74,2024-11-14_16h01.03.082,Tarea de género gramatical,2024.2.2,Win32,30.08061605,,,,,,,,,,,,,,,,,,,,,,,,367.2618,368.4667,a,1,[],[],[],[],[],[],[],0.4723,1,368.4669,368.9379,,,,,,594,MAS,AGR,150,amor,el,l,0.4723,,368.938,368.9382,0.483072917,-0.088541667,0,0,0,,0,79,79,143,1,,,,
,,,,,,609956bd373ddbf6901fe809,66a626ef09d4e21e1a8894ec,67360fcc85d9661f3c842e74,2024-11-14_16h01.03.082,Tarea de género gramatical,2024.2.2,Win32,30.08061605,,,,,,,,,,,,,,,,,,,,,,,,368.9396,370.0583,l,1,[],[],[],[],[],[],[],0.3834,1,370.0585,370.5374,,,,,,583,FEM,CON,150,joya,,a,0.3834,,370.5375,370.5376,0.483072917,-0.088541667,0,0,0,,0,80,80,132,1,,,,
,,,,,,609956bd373ddbf6901fe809,66a626ef09d4e21e1a8894ec,67360fcc85d9661f3c842e74,2024-11-14_16h01.03.082,Tarea de género gramatical,2024.2.2,Win32,30.08061605,,,,,,,,,,,,,,,,,,,,,,,,370.539,371.753,l,1,[],[],[],[],[],[],[],0.4775,1,371.7532,372.2342,,,,,,560,FEM,DIS,150,rosa,el,a,0.4775,,372.2345,372.2356,0.483072917,-0.088541667,0,0,0,,0,81,81,109,1,,,,
,,,,,,609956bd373ddbf6901fe809,66a626ef09d4e21e1a8894ec,67360fcc85d9661f3c842e74,2024-11-14_16h01.03.082,Tarea de género gramatical,2024.2.2,Win32,30.08061605,,,,,,,,,,,,,,,,,,,,,,,,372.2371,373.4516,a,1,[],[],[],[],[],[],[],0.4778,1,373.4517,373.9325,,,,,,618,MAS,AGR,150,sitio,el,l,0.4778,,373.9326,373.9336,0.483072917,-0.088541667,0,0,0,,0,82,82,167,1,,,,
,,,,,,609956bd373ddbf6901fe809,66a626ef09d4e21e1a8894ec,67360fcc85d9661f3c842e74,2024-11-14_16h01.03.082,Tarea de género gramatical,2024.2.2,Win32,30.08061605,,,,,,,,,,,,,,,,,,,,,,,,373.9352,375.0397,a,1,[],[],[],[],[],[],[],0.3701,1,375.0399,375.5192,,,,,,720,MAS,AGR,150,queso,el,l,0.3701,,375.5212,375.5225,0.483072917,-0.088541667,0,0,0,,0,83,83,269,1,,,,
,,,,,,609956bd373ddbf6901fe809,66a626ef09d4e21e1a8894ec,67360fcc85d9661f3c842e74,2024-11-14_16h01.03.082,Tarea de género gramatical,2024.2.2,Win32,30.08061605,,,,,,,,,,,,,,,,,,,,,,,,375.5238,376.7442,a,0,[],[],[],[],[],[],[],0.4745,0,376.7455,377.2251,,,,,,769,FEM,CON,150,sangre,,a,0.4745,,377.2257,377.226,0.483072917,-0.088541667,0,0,0,,0,84,84,318,1,,,,
,,,,,,609956bd373ddbf6901fe809,66a626ef09d4e21e1a8894ec,67360fcc85d9661f3c842e74,2024-11-14_16h01.03.082,Tarea de género gramatical,2024.2.2,Win32,30.08061605,,,,,,,,,,,,,,,,,,,,,,,,377.2278,378.6129,a,1,[],[],[],[],[],[],[],0.6407,1,378.6146,379.0897,,,,,,654,MAS,AGR,150,papel,el,l,0.6407,,379.0897,379.0899,0.483072917,-0.088541667,0,0,0,,0,85,85,203,1,,,,
,,,,,,609956bd373ddbf6901fe809,66a626ef09d4e21e1a8894ec,67360fcc85d9661f3c842e74,2024-11-14_16h01.03.082,Tarea de género gramatical,2024.2.2,Win32,30.08061605,,,,,,,,,,,,,,,,,,,,,,,,379.0916,380.3166,l,1,[],[],[],[],[],[],[],0.4818,1,380.3168,380.7923,,,,,,745,FEM,CON,150,grasa,,a,0.4818,,380.7924,380.7925,0.483072917,-0.088541667,0,0,0,,0,86,86,294,1,,,,
,,,,,,609956bd373ddbf6901fe809,66a626ef09d4e21e1a8894ec,67360fcc85d9661f3c842e74,2024-11-14_16h01.03.082,Tarea de género gramatical,2024.2.2,Win32,30.08061605,,,,,,,,,,,,,,,,,,,,,,,,380.7942,382.0688,a,1,[],[],[],[],[],[],[],0.5345,1,382.0688,382.5454,,,,,,786,MAS,AGR,150,crimen,el,l,0.5345,,382.5476,382.5488,0.483072917,-0.088541667,0,0,0,,0,87,87,335,1,,,,
,,,,,,609956bd373ddbf6901fe809,66a626ef09d4e21e1a8894ec,67360fcc85d9661f3c842e74,2024-11-14_16h01.03.082,Tarea de género gramatical,2024.2.2,Win32,30.08061605,,,,,,,,,,,,,,,,,,,,,,,,382.55,383.7711,l,1,[],[],[],[],[],[],[],0.4792,1,383.7713,384.2538,,,,,,723,FEM,AGR,150,tarta,la,a,0.4792,,384.2546,384.2549,0.483072917,-0.088541667,0,0,0,,0,88,88,272,1,,,,
,,,,,,609956bd373ddbf6901fe809,66a626ef09d4e21e1a8894ec,67360fcc85d9661f3c842e74,2024-11-14_16h01.03.082,Tarea de género gramatical,2024.2.2,Win32,30.08061605,,,,,,,,,,,,,,,,,,,,,,,,384.2563,385.367,a,1,[],[],[],[],[],[],[],0.372,1,385.3673,385.8483,,,,,,532,MAS,CON,150,tubo,,l,0.372,,385.8493,385.8495,0.483072917,-0.088541667,0,0,0,,0,89,89,81,1,,,,
,,,,,,609956bd373ddbf6901fe809,66a626ef09d4e21e1a8894ec,67360fcc85d9661f3c842e74,2024-11-14_16h01.03.082,Tarea de género gramatical,2024.2.2,Win32,30.08061605,,,,,,,,,,,,,,,,,,,,,,,,385.8509,387.0684,l,1,[],[],[],[],[],[],[],0.4777,1,387.0687,387.5446,,,,,,763,FEM,CON,150,ciudad,,a,0.4777,,387.5454,387.5456,0.483072917,-0.088541667,0,0,0,,0,90,90,312,1,,,,
,,,,,,609956bd373ddbf6901fe809,66a626ef09d4e21e1a8894ec,67360fcc85d9661f3c842e74,2024-11-14_16h01.03.082,Tarea de género gramatical,2024.2.2,Win32,30.08061605,,,,,,,,,,,,,,,,,,,,,,,,387.547,388.6549,a,1,[],[],[],[],[],[],[],0.3715,1,388.655,389.1357,,,,,,696,MAS,AGR,150,humor,el,l,0.3715,,389.1358,389.1367,0.483072917,-0.088541667,0,0,0,,0,91,91,245,1,,,,
,,,,,,609956bd373ddbf6901fe809,66a626ef09d4e21e1a8894ec,67360fcc85d9661f3c842e74,2024-11-14_16h01.03.082,Tarea de género gramatical,2024.2.2,Win32,30.08061605,,,,,,,,,,,,,,,,,,,,,,,,389.1382,390.2497,l,1,[],[],[],[],[],[],[],0.3731,1,390.2498,390.7244,,,,,,837,FEM,AGR,150,página,la,a,0.3731,,390.7267,390.728,0.483072917,-0.088541667,0,0,0,,0,92,92,386,1,,,,
,,,,,,609956bd373ddbf6901fe809,66a626ef09d4e21e1a8894ec,67360fcc85d9661f3c842e74,2024-11-14_16h01.03.082,Tarea de género gramatical,2024.2.2,Win32,30.08061605,,,,,,,,,,,,,,,,,,,,,,,,390.7293,392.1638,a,1,[],[],[],[],[],[],[],0.6923,1,392.1639,392.6401,,,,,,473,MAS,DIS,150,rato,la,l,0.6923,,392.6403,392.6404,0.483072917,-0.088541667,0,0,0,,0,93,93,22,1,,,,
,,,,,,609956bd373ddbf6901fe809,66a626ef09d4e21e1a8894ec,67360fcc85d9661f3c842e74,2024-11-14_16h01.03.082,Tarea de género gramatical,2024.2.2,Win32,30.08061605,,,,,,,,,,,,,,,,,,,,,,,,392.6419,393.9732,a,1,[],[],[],[],[],[],[],0.5894,1,393.9734,394.457,,,,,,791,MAS,DIS,150,precio,la,l,0.5894,,394.4572,394.4574,0.483072917,-0.088541667,0,0,0,,0,94,94,340,1,,,,
,,,,,,609956bd373ddbf6901fe809,66a626ef09d4e21e1a8894ec,67360fcc85d9661f3c842e74,2024-11-14_16h01.03.082,Tarea de género gramatical,2024.2.2,Win32,30.08061605,,,,,,,,,,,,,,,,,,,,,,,,394.4589,395.679,l,1,[],[],[],[],[],[],[],0.4839,1,395.6793,396.1545,,,,,,765,FEM,AGR,150,manera,la,a,0.4839,,396.1554,396.1556,0.483072917,-0.088541667,0,0,0,,0,95,95,314,1,,,,
,,,,,,609956bd373ddbf6901fe809,66a626ef09d4e21e1a8894ec,67360fcc85d9661f3c842e74,2024-11-14_16h01.03.082,Tarea de género gramatical,2024.2.2,Win32,30.08061605,,,,,,,,,,,,,,,,,,,,,,,,396.1571,397.4274,l,1,[],[],[],[],[],[],[],0.5332,1,397.4276,397.9025,,,,,,633,FEM,AGR,150,llave,la,a,0.5332,,397.9039,397.9052,0.483072917,-0.088541667,0,0,0,,0,96,96,182,1,,,,
,,,,,,609956bd373ddbf6901fe809,66a626ef09d4e21e1a8894ec,67360fcc85d9661f3c842e74,2024-11-14_16h01.03.082,Tarea de género gramatical,2024.2.2,Win32,30.08061605,,,,,,,,,,,,,,,,,,,,,,,,397.9063,399.3375,a,1,[],[],[],[],[],[],[],0.6921,1,399.3376,399.8174,,,,,,845,MAS,DIS,150,correo,la,l,0.6921,,399.8176,399.8177,0.483072917,-0.088541667,0,0,0,,0,97,97,394,1,,,,
,,,,,,609956bd373ddbf6901fe809,66a626ef09d4e21e1a8894ec,67360fcc85d9661f3c842e74,2024-11-14_16h01.03.082,Tarea de género gramatical,2024.2.2,Win32,30.08061605,,,,,,,,,,,,,,,,,,,,,,,,399.8191,401.0355,a,1,[],[],[],[],[],[],[],0.4755,1,401.0356,401.5102,,,,,,586,MAS,CON,150,vago,,l,0.4755,,401.5111,401.5113,0.483072917,-0.088541667,0,0,0,,0,98,98,135,1,,,,
,,,,,,609956bd373ddbf6901fe809,66a626ef09d4e21e1a8894ec,67360fcc85d9661f3c842e74,2024-11-14_16h01.03.082,Tarea de género gramatical,2024.2.2,Win32,30.08061605,,,,,,,,,,,,,,,,,,,,,,,,401.5128,403.047,l,1,[],[],[],[],[],[],[],0.7953,1,403.0471,403.5296,,,,,,554,FEM,DIS,150,vela,el,a,0.7953,,403.5297,403.5298,0.483072917,-0.088541667,0,0,0,,0,99,99,103,1,,,,
,,,,,,609956bd373ddbf6901fe809,66a626ef09d4e21e1a8894ec,67360fcc85d9661f3c842e74,2024-11-14_16h01.03.082,Tarea de género gramatical,2024.2.2,Win32,30.08061605,,,,,,,,,,,,,,,,,,,,,,,,403.5318,404.9609,a,1,[],[],[],[],[],[],[],0.6882,1,404.961,405.4338,,,,,,894,MAS,AGR,150,límite,el,l,0.6882,,405.435,405.4351,0.483072917,-0.088541667,0,0,0,,0,100,100,443,1,,,,
,,,,,,609956bd373ddbf6901fe809,66a626ef09d4e21e1a8894ec,67360fcc85d9661f3c842e74,2024-11-14_16h01.03.082,Tarea de género gramatical,2024.2.2,Win32,30.08061605,,,,,,,,,,,,,,,,,,,,,,,,405.4366,406.7677,l,1,[],[],[],[],[],[],[],0.5849,1,406.7678,407.2466,,,,,,872,FEM,DIS,150,rutina,el,a,0.5849,,407.2486,407.25,0.483072917,-0.088541667,0,0,0,,0,101,101,421,1,,,,
,,,,,,609956bd373ddbf6901fe809,66a626ef09d4e21e1a8894ec,67360fcc85d9661f3c842e74,2024-11-14_16h01.03.082,Tarea de género gramatical,2024.2.2,Win32,30.08061605,,,,,,,,,,,,,,,,,,,,,,,,407.2512,408.586,a,1,[],[],[],[],[],[],[],0.5877,1,408.5862,409.0598,,,,,,622,MAS,CON,150,poder,,l,0.5877,,409.0598,409.0601,0.483072917,-0.088541667,0,0,0,,0,102,102,171,1,,,,
,,,,,,609956bd373ddbf6901fe809,66a626ef09d4e21e1a8894ec,67360fcc85d9661f3c842e74,2024-11-14_16h01.03.082,Tarea de género gramatical,2024.2.2,Win32,30.08061605,,,,,,,,,,,,,,,,,,,,,,,,409.0618,410.2825,a,1,[],[],[],[],[],[],[],0.4774,1,410.2827,410.763,,,,,,875,MAS,DIS,150,chiste,la,l,0.4774,,410.7638,410.7641,0.483072917,-0.088541667,0,0,0,,0,103,103,424,1,,,,
,,,,,,609956bd373ddbf6901fe809,66a626ef09d4e21e1a8894ec,67360fcc85d9661f3c842e74,2024-11-14_16h01.03.082,Tarea de género gramatical,2024.2.2,Win32,30.08061605,,,,,,,,,,,,,,,,,,,,,,,,410.7656,411.8836,a,1,[],[],[],[],[],[],[],0.374,1,411.8838,412.3593,,,,,,593,MAS,DIS,150,faro,la,l,0.374,,412.3595,412.3596,0.483072917,-0.088541667,0,0,0,,0,104,104,142,1,,,,
,,,,,,609956bd373ddbf6901fe809,66a626ef09d4e21e1a8894ec,67360fcc85d9661f3c842e74,2024-11-14_16h01.03.082,Tarea de género gramatical,2024.2.2,Win32,30.08061605,,,,,,,,,,,,,,,,,,,,,,,,412.3615,413.897,a,1,[],[],[],[],[],[],[],0.7946,1,413.8972,414.3684,,,,,,581,MAS,DIS,150,kilo,la,l,0.7946,,414.3707,414.3721,0.483072917,-0.088541667,0,0,0,,0,105,105,130,1,,,,
,,,,,,609956bd373ddbf6901fe809,66a626ef09d4e21e1a8894ec,67360fcc85d9661f3c842e74,2024-11-14_16h01.03.082,Tarea de género gramatical,2024.2.2,Win32,30.08061605,,,,,,,,,,,,,,,,,,,,,,,,414.3734,415.6301,l,1,[],[],[],[],[],[],[],0.5053,1,415.6304,416.1089,,,,,,733,FEM,CON,150,pluma,,a,0.5053,,416.1091,416.1094,0.483072917,-0.088541667,0,0,0,,0,106,106,282,1,,,,
,,,,,,609956bd373ddbf6901fe809,66a626ef09d4e21e1a8894ec,67360fcc85d9661f3c842e74,2024-11-14_16h01.03.082,Tarea de género gramatical,2024.2.2,Win32,30.08061605,,,,,,,,,,,,,,,,,,,,,,,,416.1109,417.2708,a,1,[],[],[],[],[],[],[],0.4241,1,417.2709,417.7299,,,,,,803,MAS,DIS,150,verano,la,l,0.4241,,417.7301,417.7302,0.483072917,-0.088541667,0,0,0,,0,107,107,352,1,,,,
,,,,,,609956bd373ddbf6901fe809,66a626ef09d4e21e1a8894ec,67360fcc85d9661f3c842e74,2024-11-14_16h01.03.082,Tarea de género gramatical,2024.2.2,Win32,30.08061605,,,,,,,,,,,,,,,,,,,,,,,,417.7317,418.9154,a,1,[],[],[],[],[],[],[],0.4819,1,418.9155,419.3888,,,,,,762,MAS,AGR,150,equipo,el,l,0.4819,,419.3889,419.389,0.483072917,-0.088541667,0,0,0,,0,108,108,311,1,,,,
,,,,,,609956bd373ddbf6901fe809,66a626ef09d4e21e1a8894ec,67360fcc85d9661f3c842e74,2024-11-14_16h01.03.082,Tarea de género gramatical,2024.2.2,Win32,30.08061605,,,,,,,,,,,,,,,,,,,,,,,,419.3905,420.6674,l,1,[],[],[],[],[],[],[],0.5318,1,420.6675,421.143,,,,,,789,FEM,AGR,150,salida,la,a,0.5318,,421.143,421.1431,0.483072917,-0.088541667,0,0,0,,0,109,109,338,1,,,,
,,,,,,609956bd373ddbf6901fe809,66a626ef09d4e21e1a8894ec,67360fcc85d9661f3c842e74,2024-11-14_16h01.03.082,Tarea de género gramatical,2024.2.2,Win32,30.08061605,,,,,,,,,,,,,,,,,,,,,,,,421.1449,422.3129,l,1,[],[],[],[],[],[],[],0.4256,1,422.313,422.7949,,,,,,459,FEM,AGR,150,mamá,la,a,0.4256,,422.7972,422.7985,0.483072917,-0.088541667,0,0,0,,0,110,110,8,1,,,,
,,,,,,609956bd373ddbf6901fe809,66a626ef09d4e21e1a8894ec,67360fcc85d9661f3c842e74,2024-11-14_16h01.03.082,Tarea de género gramatical,2024.2.2,Win32,30.08061605,,,,,,,,,,,,,,,,,,,,,,,,422.7998,423.9753,l,1,[],[],[],[],[],[],[],0.4283,1,423.9754,424.4523,,,,,,847,FEM,CON,150,cuerda,,a,0.4283,,424.4523,424.4524,0.483072917,-0.088541667,0,0,0,,0,111,111,396,1,,,,
,,,,,,609956bd373ddbf6901fe809,66a626ef09d4e21e1a8894ec,67360fcc85d9661f3c842e74,2024-11-14_16h01.03.082,Tarea de género gramatical,2024.2.2,Win32,30.08061605,,,,,,,,,,,,,,,,,,,,,,,,424.4541,425.5772,a,1,[],[],[],[],[],[],[],0.376,1,425.5773,426.057,,,,,,623,MAS,DIS,150,libro,la,l,0.376,,426.0572,426.0573,0.483072917,-0.088541667,0,0,0,,0,112,112,172,1,,,,
,,,,,,609956bd373ddbf6901fe809,66a626ef09d4e21e1a8894ec,67360fcc85d9661f3c842e74,2024-11-14_16h01.03.082,Tarea de género gramatical,2024.2.2,Win32,30.08061605,,,,,,,,,,,,,,,,,,,,,,,,426.0589,427.2785,l,1,[],[],[],[],[],[],[],0.4751,1,427.2787,427.755,,,,,,859,FEM,CON,150,moneda,,a,0.4751,,427.7559,427.7561,0.483072917,-0.088541667,0,0,0,,0,113,113,408,1,,,,
,,,,,,609956bd373ddbf6901fe809,66a626ef09d4e21e1a8894ec,67360fcc85d9661f3c842e74,2024-11-14_16h01.03.082,Tarea de género gramatical,2024.2.2,Win32,30.08061605,,,,,,,,,,,,,,,,,,,,,,,,427.7576,428.9253,a,1,[],[],[],[],[],[],[],0.4219,1,428.9255,429.4014,,,,,,850,MAS,CON,150,barrio,,l,0.4219,,429.4035,429.4049,0.483072917,-0.088541667,0,0,0,,0,114,114,399,1,,,,
,,,,,,609956bd373ddbf6901fe809,66a626ef09d4e21e1a8894ec,67360fcc85d9661f3c842e74,2024-11-14_16h01.03.082,Tarea de género gramatical,2024.2.2,Win32,30.08061605,,,,,,,,,,,,,,,,,,,,,,,,429.4061,430.6368,a,1,[],[],[],[],[],[],[],0.4754,1,430.637,431.1183,,,,,,502,MAS,CON,150,lago,,l,0.4754,,431.1194,431.1196,0.483072917,-0.088541667,0,0,0,,0,115,115,51,1,,,,
,,,,,,609956bd373ddbf6901fe809,66a626ef09d4e21e1a8894ec,67360fcc85d9661f3c842e74,2024-11-14_16h01.03.082,Tarea de género gramatical,2024.2.2,Win32,30.08061605,,,,,,,,,,,,,,,,,,,,,,,,431.1212,432.2274,a,1,[],[],[],[],[],[],[],0.3691,1,432.2276,432.7055,,,,,,840,MAS,AGR,150,rostro,el,l,0.3691,,432.7057,432.7058,0.483072917,-0.088541667,0,0,0,,0,116,116,389,1,,,,
,,,,,,609956bd373ddbf6901fe809,66a626ef09d4e21e1a8894ec,67360fcc85d9661f3c842e74,2024-11-14_16h01.03.082,Tarea de género gramatical,2024.2.2,Win32,30.08061605,,,,,,,,,,,,,,,,,,,,,,,,432.7078,433.8144,l,0,[],[],[],[],[],[],[],0.371,0,433.8157,434.3148,,,,,,462,MAS,AGR,150,plan,el,l,0.371,,434.3149,434.3151,0.483072917,-0.088541667,0,0,0,,0,117,117,11,1,,,,
,,,,,,609956bd373ddbf6901fe809,66a626ef09d4e21e1a8894ec,67360fcc85d9661f3c842e74,2024-11-14_16h01.03.082,Tarea de género gramatical,2024.2.2,Win32,30.08061605,,,,,,,,,,,,,,,,,,,,,,,,434.3166,435.6409,a,1,[],[],[],[],[],[],[],0.5821,1,435.6422,436.1257,,,,,,568,MAS,CON,150,baúl,,l,0.5821,,436.1267,436.1269,0.483072917,-0.088541667,0,0,0,,0,118,118,117,1,,,,
,,,,,,609956bd373ddbf6901fe809,66a626ef09d4e21e1a8894ec,67360fcc85d9661f3c842e74,2024-11-14_16h01.03.082,Tarea de género gramatical,2024.2.2,Win32,30.08061605,,,,,,,,,,,,,,,,,,,,,,,,436.1283,437.352,a,0,[],[],[],[],[],[],[],0.4798,0,437.3532,437.8327,,,,,,679,FEM,CON,150,celda,,a,0.4798,,437.8341,437.8354,0.483072917,-0.088541667,0,0,0,,0,119,119,228,1,,,,
,,,,,,609956bd373ddbf6901fe809,66a626ef09d4e21e1a8894ec,67360fcc85d9661f3c842e74,2024-11-14_16h01.03.082,Tarea de género gramatical,2024.2.2,Win32,30.08061605,,,,,,,,,,,,,,,,,,,,,,,,437.8372,439.5298,a,1,[],[],[],[],[],[],[],0.9532,1,439.5311,440.0275,,,,,,702,MAS,AGR,150,viejo,el,l,0.9532,,440.0276,440.0278,0.483072917,-0.088541667,0,0,0,,0,120,120,251,1,,,,
,,,,,,609956bd373ddbf6901fe809,66a626ef09d4e21e1a8894ec,67360fcc85d9661f3c842e74,2024-11-14_16h01.03.082,Tarea de género gramatical,2024.2.2,Win32,30.08061605,,,,,,,,,,,,,,,,,,,,,,,,440.0296,441.1427,a,1,[],[],[],[],[],[],[],0.3698,1,441.1429,441.6294,,,,,,484,MAS,CON,150,gato,,l,0.3698,,441.6295,441.6297,0.483072917,-0.088541667,0,0,0,,0,121,121,33,1,,,,
,,,,,,609956bd373ddbf6901fe809,66a626ef09d4e21e1a8894ec,67360fcc85d9661f3c842e74,2024-11-14_16h01.03.082,Tarea de género gramatical,2024.2.2,Win32,30.08061605,,,,,,,,,,,,,,,,,,,,,,,,441.6313,442.8,a,1,[],[],[],[],[],[],[],0.4242,1,442.8001,443.2819,,,,,,749,MAS,DIS,150,rumbo,la,l,0.4242,,443.2826,443.2828,0.483072917,-0.088541667,0,0,0,,0,122,122,298,1,,,,
,,,,,,609956bd373ddbf6901fe809,66a626ef09d4e21e1a8894ec,67360fcc85d9661f3c842e74,2024-11-14_16h01.03.082,Tarea de género gramatical,2024.2.2,Win32,30.08061605,,,,,,,,,,,,,,,,,,,,,,,,443.2843,444.3888,a,1,[],[],[],[],[],[],[],0.3688,1,444.3889,444.8686,,,,,,522,MAS,AGR,150,hoyo,el,l,0.3688,,444.8699,444.8714,0.483072917,-0.088541667,0,0,0,,0,123,123,71,1,,,,
,,,,,,609956bd373ddbf6901fe809,66a626ef09d4e21e1a8894ec,67360fcc85d9661f3c842e74,2024-11-14_16h01.03.082,Tarea de género gramatical,2024.2.2,Win32,30.08061605,,,,,,,,,,,,,,,,,,,,,,,,444.8729,445.9408,a,1,[],[],[],[],[],[],[],0.324,1,445.9409,446.4247,,,,,,527,MAS,DIS,150,pico,la,l,0.324,,446.4248,446.425,0.483072917,-0.088541667,0,0,0,,0,124,124,76,1,,,,
,,,,,,609956bd373ddbf6901fe809,66a626ef09d4e21e1a8894ec,67360fcc85d9661f3c842e74,2024-11-14_16h01.03.082,Tarea de género gramatical,2024.2.2,Win32,30.08061605,,,,,,,,,,,,,,,,,,,,,,,,446.4269,447.5449,l,1,[],[],[],[],[],[],[],0.3737,1,447.545,448.0211,,,,,,721,FEM,CON,150,viuda,,a,0.3737,,448.0213,448.0214,0.483072917,-0.088541667,0,0,0,,0,125,125,270,1,,,,
,,,,,,609956bd373ddbf6901fe809,66a626ef09d4e21e1a8894ec,67360fcc85d9661f3c842e74,2024-11-14_16h01.03.082,Tarea de género gramatical,2024.2.2,Win32,30.08061605,,,,,,,,,,,,,,,,,,,,,,,,448.0231,449.1358,a,1,[],[],[],[],[],[],[],0.3725,1,449.1361,449.6123,,,,,,768,MAS,AGR,150,pueblo,el,l,0.3725,,449.6134,449.6135,0.483072917,-0.088541667,0,0,0,,0,126,126,317,1,,,,
,,,,,,609956bd373ddbf6901fe809,66a626ef09d4e21e1a8894ec,67360fcc85d9661f3c842e74,2024-11-14_16h01.03.082,Tarea de género gramatical,2024.2.2,Win32,30.08061605,,,,,,,,,,,,,,,,,,,,,,,,449.6152,450.7356,l,1,[],[],[],[],[],[],[],0.372,1,450.7358,451.2143,,,,,,841,FEM,CON,150,altura,,a,0.372,,451.2143,451.2145,0.483072917,-0.088541667,0,0,0,,0,127,127,390,1,,,,
,,,,,,609956bd373ddbf6901fe809,66a626ef09d4e21e1a8894ec,67360fcc85d9661f3c842e74,2024-11-14_16h01.03.082,Tarea de género gramatical,2024.2.2,Win32,30.08061605,,,,,,,,,,,,,,,,,,,,,,,,451.2163,452.5397,l,1,[],[],[],[],[],[],[],0.583,1,452.5398,453.0238,,,,,,525,FEM,AGR,150,caza,la,a,0.583,,453.0254,453.0267,0.483072917,-0.088541667,0,0,0,,0,128,128,74,1,,,,
,,,,,,609956bd373ddbf6901fe809,66a626ef09d4e21e1a8894ec,67360fcc85d9661f3c842e74,2024-11-14_16h01.03.082,Tarea de género gramatical,2024.2.2,Win32,30.08061605,,,,,,,,,,,,,,,,,,,,,,,,453.0281,454.1964,l,1,[],[],[],[],[],[],[],0.4332,1,454.1965,454.6666,,,,,,608,FEM,DIS,150,chica,el,a,0.4332,,454.6667,454.6669,0.483072917,-0.088541667,0,0,0,,0,129,129,157,1,,,,
,,,,,,609956bd373ddbf6901fe809,66a626ef09d4e21e1a8894ec,67360fcc85d9661f3c842e74,2024-11-14_16h01.03.082,Tarea de género gramatical,2024.2.2,Win32,30.08061605,,,,,,,,,,,,,,,,,,,,,,,,454.6684,455.8923,a,0,[],[],[],[],[],[],[],0.4791,0,455.8934,456.3742,,,,,,649,FEM,CON,150,nariz,,a,0.4791,,456.3742,456.3745,0.483072917,-0.088541667,0,0,0,,0,130,130,198,1,,,,
,,,,,,609956bd373ddbf6901fe809,66a626ef09d4e21e1a8894ec,67360fcc85d9661f3c842e74,2024-11-14_16h01.03.082,Tarea de género gramatical,2024.2.2,Win32,30.08061605,,,,,,,,,,,,,,,,,,,,,,,,456.3762,457.8621,l,1,[],[],[],[],[],[],[],0.7424,1,457.8633,458.3466,,,,,,577,FEM,CON,150,cuna,,a,0.7424,,458.3467,458.3468,0.483072917,-0.088541667,0,0,0,,0,131,131,126,1,,,,
,,,,,,609956bd373ddbf6901fe809,66a626ef09d4e21e1a8894ec,67360fcc85d9661f3c842e74,2024-11-14_16h01.03.082,Tarea de género gramatical,2024.2.2,Win32,30.08061605,,,,,,,,,,,,,,,,,,,,,,,,458.3486,459.513,a,1,[],[],[],[],[],[],[],0.4248,1,459.5132,459.9958,,,,,,468,MAS,AGR,150,tren,el,l,0.4248,,459.9971,459.9983,0.483072917,-0.088541667,0,0,0,,0,132,132,17,1,,,,
,,,,,,609956bd373ddbf6901fe809,66a626ef09d4e21e1a8894ec,67360fcc85d9661f3c842e74,2024-11-14_16h01.03.082,Tarea de género gramatical,2024.2.2,Win32,30.08061605,,,,,,,,,,,,,,,,,,,,,,,,459.9995,461.3294,a,1,[],[],[],[],[],[],[],0.5826,1,461.3296,461.8059,,,,,,868,MAS,CON,150,pájaro,,l,0.5826,,461.8069,461.8071,0.483072917,-0.088541667,0,0,0,,0,133,133,417,1,,,,
,,,,,,609956bd373ddbf6901fe809,66a626ef09d4e21e1a8894ec,67360fcc85d9661f3c842e74,2024-11-14_16h01.03.082,Tarea de género gramatical,2024.2.2,Win32,30.08061605,,,,,,,,,,,,,,,,,,,,,,,,461.8085,462.9761,l,1,[],[],[],[],[],[],[],0.4247,1,462.9762,463.453,,,,,,753,FEM,AGR,150,maldad,la,a,0.4247,,463.454,463.4544,0.483072917,-0.088541667,0,0,0,,0,134,134,302,1,,,,
,,,,,,609956bd373ddbf6901fe809,66a626ef09d4e21e1a8894ec,67360fcc85d9661f3c842e74,2024-11-14_16h01.03.082,Tarea de género gramatical,2024.2.2,Win32,30.08061605,,,,,,,,,,,,,,,,,,,,,,,,463.4557,464.6771,a,1,[],[],[],[],[],[],[],0.4778,1,464.6772,465.158,,,,,,461,MAS,DIS,150,país,la,l,0.4778,,465.1581,465.1582,0.483072917,-0.088541667,0,0,0,,0,135,135,10,1,,,,
,,,,,,609956bd373ddbf6901fe809,66a626ef09d4e21e1a8894ec,67360fcc85d9661f3c842e74,2024-11-14_16h01.03.082,Tarea de género gramatical,2024.2.2,Win32,30.08061605,,,,,,,,,,,,,,,,,,,,,,,,465.1601,466.3781,l,1,[],[],[],[],[],[],[],0.4825,1,466.3782,466.8605,,,,,,722,FEM,DIS,150,oreja,el,a,0.4825,,466.8606,466.8608,0.483072917,-0.088541667,0,0,0,,0,136,136,271,1,,,,
,,,,,,609956bd373ddbf6901fe809,66a626ef09d4e21e1a8894ec,67360fcc85d9661f3c842e74,2024-11-14_16h01.03.082,Tarea de género gramatical,2024.2.2,Win32,30.08061605,,,,,,,,,,,,,,,,,,,,,,,,466.8624,468.092,a,1,[],[],[],[],[],[],[],0.4834,1,468.0921,468.5696,,,,,,708,MAS,AGR,150,polvo,el,l,0.4834,,468.5711,468.5726,0.483072917,-0.088541667,0,0,0,,0,137,137,257,1,,,,
,,,,,,609956bd373ddbf6901fe809,66a626ef09d4e21e1a8894ec,67360fcc85d9661f3c842e74,2024-11-14_16h01.03.082,Tarea de género gramatical,2024.2.2,Win32,30.08061605,,,,,,,,,,,,,,,,,,,,,,,,468.5743,469.7383,l,1,[],[],[],[],[],[],[],0.4187,1,469.7385,470.2163,,,,,,565,FEM,CON,150,seda,,a,0.4187,,470.2174,470.2175,0.483072917,-0.088541667,0,0,0,,0,138,138,114,1,,,,
,,,,,,609956bd373ddbf6901fe809,66a626ef09d4e21e1a8894ec,67360fcc85d9661f3c842e74,2024-11-14_16h01.03.082,Tarea de género gramatical,2024.2.2,Win32,30.08061605,,,,,,,,,,,,,,,,,,,,,,,,470.2188,471.3905,a,1,[],[],[],[],[],[],[],0.4312,1,471.3907,471.8756,,,,,,640,MAS,CON,150,campo,,l,0.4312,,471.8757,471.8758,0.483072917,-0.088541667,0,0,0,,0,139,139,189,1,,,,
,,,,,,609956bd373ddbf6901fe809,66a626ef09d4e21e1a8894ec,67360fcc85d9661f3c842e74,2024-11-14_16h01.03.082,Tarea de género gramatical,2024.2.2,Win32,30.08061605,,,,,,,,,,,,,,,,,,,,,,,,471.8776,473.0439,l,1,[],[],[],[],[],[],[],0.428,1,473.0441,473.5207,,,,,,571,FEM,CON,150,pila,,a,0.428,,473.5207,473.5208,0.483072917,-0.088541667,0,0,0,,0,140,140,120,1,,,,
,,,,,,609956bd373ddbf6901fe809,66a626ef09d4e21e1a8894ec,67360fcc85d9661f3c842e74,2024-11-14_16h01.03.082,Tarea de género gramatical,2024.2.2,Win32,30.08061605,,,,,,,,,,,,,,,,,,,,,,,,473.5223,474.9576,l,1,[],[],[],[],[],[],[],0.6921,1,474.9577,475.4348,,,,,,549,FEM,AGR,150,fase,la,a,0.6921,,475.4363,475.4376,0.483072917,-0.088541667,0,0,0,,0,141,141,98,1,,,,
,,,,,,609956bd373ddbf6901fe809,66a626ef09d4e21e1a8894ec,67360fcc85d9661f3c842e74,2024-11-14_16h01.03.082,Tarea de género gramatical,2024.2.2,Win32,30.08061605,,,,,,,,,,,,,,,,,,,,,,,,475.4389,476.7704,a,1,[],[],[],[],[],[],[],0.5886,1,476.7705,477.2517,,,,,,558,MAS,AGR,150,hilo,el,l,0.5886,,477.2517,477.2518,0.483072917,-0.088541667,0,0,0,,0,142,142,107,1,,,,
,,,,,,609956bd373ddbf6901fe809,66a626ef09d4e21e1a8894ec,67360fcc85d9661f3c842e74,2024-11-14_16h01.03.082,Tarea de género gramatical,2024.2.2,Win32,30.08061605,,,,,,,,,,,,,,,,,,,,,,,,477.2533,478.5282,l,1,[],[],[],[],[],[],[],0.5341,1,478.5284,479.0082,,,,,,644,FEM,DIS,150,banda,el,a,0.5341,,479.0084,479.0084,0.483072917,-0.088541667,0,0,0,,0,143,143,193,1,,,,
,,,,,,609956bd373ddbf6901fe809,66a626ef09d4e21e1a8894ec,67360fcc85d9661f3c842e74,2024-11-14_16h01.03.082,Tarea de género gramatical,2024.2.2,Win32,30.08061605,,,,,,,,,,,,,,,,,,,,,,,,479.0104,480.1755,a,1,[],[],[],[],[],[],[],0.4296,1,480.1756,480.6492,,,,,,808,MAS,CON,150,motivo,,l,0.4296,,480.6494,480.6505,0.483072917,-0.088541667,0,0,0,,0,144,144,357,1,,,,
,,,,,,609956bd373ddbf6901fe809,66a626ef09d4e21e1a8894ec,67360fcc85d9661f3c842e74,2024-11-14_16h01.03.082,Tarea de género gramatical,2024.2.2,Win32,30.08061605,,,,,,,,,,,,,,,,,,,,,,,,480.6521,482.0954,a,1,[],[],[],[],[],[],[],0.6929,1,482.0955,482.5732,,,,,,557,MAS,DIS,150,cubo,la,l,0.6929,,482.5732,482.5735,0.483072917,-0.088541667,0,0,0,,0,145,145,106,1,,,,
,,,,,,609956bd373ddbf6901fe809,66a626ef09d4e21e1a8894ec,67360fcc85d9661f3c842e74,2024-11-14_16h01.03.082,Tarea de género gramatical,2024.2.2,Win32,30.08061605,,,,,,,,,,,,,,,,,,,,,,,,482.5752,484.0237,l,1,[],[],[],[],[],[],[],0.7452,1,484.0238,484.5051,,,,,,794,FEM,DIS,150,pareja,el,a,0.7452,,484.5064,484.5076,0.483072917,-0.088541667,0,0,0,,0,146,146,343,1,,,,
,,,,,,609956bd373ddbf6901fe809,66a626ef09d4e21e1a8894ec,67360fcc85d9661f3c842e74,2024-11-14_16h01.03.082,Tarea de género gramatical,2024.2.2,Win32,30.08061605,,,,,,,,,,,,,,,,,,,,,,,,484.5089,485.7832,l,1,[],[],[],[],[],[],[],0.5344,1,485.7833,486.2711,,,,,,619,FEM,CON,150,vista,,a,0.5344,,486.2721,486.2722,0.483072917,-0.088541667,0,0,0,,0,147,147,168,1,,,,
,,,,,,609956bd373ddbf6901fe809,66a626ef09d4e21e1a8894ec,67360fcc85d9661f3c842e74,2024-11-14_16h01.03.082,Tarea de género gramatical,2024.2.2,Win32,30.08061605,,,,,,,,,,,,,,,,,,,,,,,,486.2738,487.4905,l,1,[],[],[],[],[],[],[],0.4769,1,487.4907,487.9652,,,,,,860,FEM,DIS,150,piedad,el,a,0.4769,,487.9652,487.9653,0.483072917,-0.088541667,0,0,0,,0,148,148,409,1,,,,
,,,,,,609956bd373ddbf6901fe809,66a626ef09d4e21e1a8894ec,67360fcc85d9661f3c842e74,2024-11-14_16h01.03.082,Tarea de género gramatical,2024.2.2,Win32,30.08061605,,,,,,,,,,,,,,,,,,,,,,,,487.9671,489.403,a,1,[],[],[],[],[],[],[],0.6933,1,489.4031,489.8771,,,,,,485,MAS,DIS,150,taxi,la,l,0.6933,,489.8772,489.8774,0.483072917,-0.088541667,0,0,0,,0,149,149,34,1,,,,
,,,,,,609956bd373ddbf6901fe809,66a626ef09d4e21e1a8894ec,67360fcc85d9661f3c842e74,2024-11-14_16h01.03.082,Tarea de género gramatical,2024.2.2,Win32,30.08061605,,,,,,,,,,,,,,,,,,,,,,,,489.879,491.1625,a,1,[],[],[],[],[],[],[],0.5363,1,491.1627,491.6426,,,,,,852,MAS,AGR,150,ladrón,el,l,0.5363,,491.6448,554.563,0.483072917,-0.088541667,0,0,0,space,0,150,150,401,1,62.8643,,,
,,,,,,609956bd373ddbf6901fe809,66a626ef09d4e21e1a8894ec,67360fcc85d9661f3c842e74,2024-11-14_16h01.03.082,Tarea de género gramatical,2024.2.2,Win32,30.08061605,,,,,,,,,,,,,,,,,,,,,,,,554.5797,556.169,l,0,[],[],[],[],[],[],[],0.8446,0,556.1701,556.6484,,,,,,712,MAS,CON,150,video,,l,0.8446,,556.6485,556.6487,0.483072917,-0.088541667,0,0,0,,0,151,151,261,1,,,,
,,,,,,609956bd373ddbf6901fe809,66a626ef09d4e21e1a8894ec,67360fcc85d9661f3c842e74,2024-11-14_16h01.03.082,Tarea de género gramatical,2024.2.2,Win32,30.08061605,,,,,,,,,,,,,,,,,,,,,,,,556.6502,558.2413,a,1,[],[],[],[],[],[],[],0.8476,1,558.2425,558.7162,,,,,,551,MAS,DIS,150,giro,la,l,0.8476,,558.7173,558.7175,0.483072917,-0.088541667,0,0,0,,0,152,152,100,1,,,,
,,,,,,609956bd373ddbf6901fe809,66a626ef09d4e21e1a8894ec,67360fcc85d9661f3c842e74,2024-11-14_16h01.03.082,Tarea de género gramatical,2024.2.2,Win32,30.08061605,,,,,,,,,,,,,,,,,,,,,,,,558.7188,559.9414,l,1,[],[],[],[],[],[],[],0.4837,1,559.9416,560.4118,,,,,,853,FEM,CON,150,paliza,,a,0.4837,,560.4123,560.4124,0.483072917,-0.088541667,0,0,0,,0,153,153,402,1,,,,
,,,,,,609956bd373ddbf6901fe809,66a626ef09d4e21e1a8894ec,67360fcc85d9661f3c842e74,2024-11-14_16h01.03.082,Tarea de género gramatical,2024.2.2,Win32,30.08061605,,,,,,,,,,,,,,,,,,,,,,,,560.4143,561.5813,a,1,[],[],[],[],[],[],[],0.4229,1,561.5815,562.0585,,,,,,760,MAS,CON,150,nombre,,l,0.4229,,562.0596,562.0598,0.483072917,-0.088541667,0,0,0,,0,154,154,309,1,,,,
,,,,,,609956bd373ddbf6901fe809,66a626ef09d4e21e1a8894ec,67360fcc85d9661f3c842e74,2024-11-14_16h01.03.082,Tarea de género gramatical,2024.2.2,Win32,30.08061605,,,,,,,,,,,,,,,,,,,,,,,,562.0612,563.4424,l,1,[],[],[],[],[],[],[],0.6418,1,563.4426,563.9311,,,,,,699,FEM,AGR,150,crema,la,a,0.6418,,563.9333,563.9346,0.483072917,-0.088541667,0,0,0,,0,155,155,248,1,,,,
,,,,,,609956bd373ddbf6901fe809,66a626ef09d4e21e1a8894ec,67360fcc85d9661f3c842e74,2024-11-14_16h01.03.082,Tarea de género gramatical,2024.2.2,Win32,30.08061605,,,,,,,,,,,,,,,,,,,,,,,,563.9359,565.1052,a,1,[],[],[],[],[],[],[],0.4257,1,565.1054,565.6046,,,,,,690,MAS,AGR,150,ruido,el,l,0.4257,,565.6057,565.6058,0.483072917,-0.088541667,0,0,0,,0,156,156,239,1,,,,
,,,,,,609956bd373ddbf6901fe809,66a626ef09d4e21e1a8894ec,67360fcc85d9661f3c842e74,2024-11-14_16h01.03.082,Tarea de género gramatical,2024.2.2,Win32,30.08061605,,,,,,,,,,,,,,,,,,,,,,,,565.6073,566.8763,a,1,[],[],[],[],[],[],[],0.532,1,566.8764,567.3562,,,,,,742,MAS,CON,150,piano,,l,0.532,,567.3563,567.3564,0.483072917,-0.088541667,0,0,0,,0,157,157,291,1,,,,
,,,,,,609956bd373ddbf6901fe809,66a626ef09d4e21e1a8894ec,67360fcc85d9661f3c842e74,2024-11-14_16h01.03.082,Tarea de género gramatical,2024.2.2,Win32,30.08061605,,,,,,,,,,,,,,,,,,,,,,,,567.3578,568.5255,l,1,[],[],[],[],[],[],[],0.4286,1,568.5256,569.0046,,,,,,759,FEM,AGR,150,esposa,la,a,0.4286,,569.0056,569.0057,0.483072917,-0.088541667,0,0,0,,0,158,158,308,1,,,,
,,,,,,609956bd373ddbf6901fe809,66a626ef09d4e21e1a8894ec,67360fcc85d9661f3c842e74,2024-11-14_16h01.03.082,Tarea de género gramatical,2024.2.2,Win32,30.08061605,,,,,,,,,,,,,,,,,,,,,,,,569.0072,570.278,l,1,[],[],[],[],[],[],[],0.531,1,570.2782,570.7546,,,,,,669,FEM,AGR,150,costa,la,a,0.531,,570.7562,570.7577,0.483072917,-0.088541667,0,0,0,,0,159,159,218,1,,,,
,,,,,,609956bd373ddbf6901fe809,66a626ef09d4e21e1a8894ec,67360fcc85d9661f3c842e74,2024-11-14_16h01.03.082,Tarea de género gramatical,2024.2.2,Win32,30.08061605,,,,,,,,,,,,,,,,,,,,,,,,570.7589,571.9243,l,1,[],[],[],[],[],[],[],0.4222,1,571.9244,572.398,,,,,,871,FEM,CON,150,novela,,a,0.4222,,572.3989,572.3992,0.483072917,-0.088541667,0,0,0,,0,160,160,420,1,,,,
,,,,,,609956bd373ddbf6901fe809,66a626ef09d4e21e1a8894ec,67360fcc85d9661f3c842e74,2024-11-14_16h01.03.082,Tarea de género gramatical,2024.2.2,Win32,30.08061605,,,,,,,,,,,,,,,,,,,,,,,,572.4007,574.1538,l,1,[],[],[],[],[],[],[],1.0121,1,574.154,574.6362,,,,,,752,FEM,DIS,150,cabeza,el,a,1.0121,,574.6372,574.6374,0.483072917,-0.088541667,0,0,0,,0,161,161,301,1,,,,
,,,,,,609956bd373ddbf6901fe809,66a626ef09d4e21e1a8894ec,67360fcc85d9661f3c842e74,2024-11-14_16h01.03.082,Tarea de género gramatical,2024.2.2,Win32,30.08061605,,,,,,,,,,,,,,,,,,,,,,,,574.6388,575.9092,a,1,[],[],[],[],[],[],[],0.5315,1,575.9093,576.3859,,,,,,748,MAS,CON,150,botón,,l,0.5315,,576.3868,576.387,0.483072917,-0.088541667,0,0,0,,0,162,162,297,1,,,,
,,,,,,609956bd373ddbf6901fe809,66a626ef09d4e21e1a8894ec,67360fcc85d9661f3c842e74,2024-11-14_16h01.03.082,Tarea de género gramatical,2024.2.2,Win32,30.08061605,,,,,,,,,,,,,,,,,,,,,,,,576.3884,577.6128,l,1,[],[],[],[],[],[],[],0.4812,1,577.613,578.0901,,,,,,735,FEM,AGR,150,mafia,la,a,0.4812,,578.0902,578.0904,0.483072917,-0.088541667,0,0,0,,0,163,163,284,1,,,,
,,,,,,609956bd373ddbf6901fe809,66a626ef09d4e21e1a8894ec,67360fcc85d9661f3c842e74,2024-11-14_16h01.03.082,Tarea de género gramatical,2024.2.2,Win32,30.08061605,,,,,,,,,,,,,,,,,,,,,,,,578.0924,579.3136,a,1,[],[],[],[],[],[],[],0.4783,1,579.3138,579.7921,,,,,,766,MAS,CON,150,cuerpo,,l,0.4783,,579.7944,579.7958,0.483072917,-0.088541667,0,0,0,,0,164,164,315,1,,,,
,,,,,,609956bd373ddbf6901fe809,66a626ef09d4e21e1a8894ec,67360fcc85d9661f3c842e74,2024-11-14_16h01.03.082,Tarea de género gramatical,2024.2.2,Win32,30.08061605,,,,,,,,,,,,,,,,,,,,,,,,579.7972,581.0776,a,1,[],[],[],[],[],[],[],0.5385,1,581.0778,581.5551,,,,,,617,MAS,DIS,150,juego,la,l,0.5385,,581.5553,581.5554,0.483072917,-0.088541667,0,0,0,,0,165,165,166,1,,,,
,,,,,,609956bd373ddbf6901fe809,66a626ef09d4e21e1a8894ec,67360fcc85d9661f3c842e74,2024-11-14_16h01.03.082,Tarea de género gramatical,2024.2.2,Win32,30.08061605,,,,,,,,,,,,,,,,,,,,,,,,581.5567,583.0442,l,1,[],[],[],[],[],[],[],0.7435,1,583.0443,583.5257,,,,,,793,FEM,CON,150,trampa,,a,0.7435,,583.5258,583.5259,0.483072917,-0.088541667,0,0,0,,0,166,166,342,1,,,,
,,,,,,609956bd373ddbf6901fe809,66a626ef09d4e21e1a8894ec,67360fcc85d9661f3c842e74,2024-11-14_16h01.03.082,Tarea de género gramatical,2024.2.2,Win32,30.08061605,,,,,,,,,,,,,,,,,,,,,,,,583.5275,584.6907,l,1,[],[],[],[],[],[],[],0.4205,1,584.6909,585.1632,,,,,,895,FEM,CON,150,bondad,,a,0.4205,,585.1639,585.1643,0.483072917,-0.088541667,0,0,0,,0,167,167,444,1,,,,
,,,,,,609956bd373ddbf6901fe809,66a626ef09d4e21e1a8894ec,67360fcc85d9661f3c842e74,2024-11-14_16h01.03.082,Tarea de género gramatical,2024.2.2,Win32,30.08061605,,,,,,,,,,,,,,,,,,,,,,,,585.1657,586.3791,a,1,[],[],[],[],[],[],[],0.4721,1,586.3793,586.8549,,,,,,798,MAS,AGR,150,anillo,el,l,0.4721,,586.8572,586.8585,0.483072917,-0.088541667,0,0,0,,0,168,168,347,1,,,,
,,,,,,609956bd373ddbf6901fe809,66a626ef09d4e21e1a8894ec,67360fcc85d9661f3c842e74,2024-11-14_16h01.03.082,Tarea de género gramatical,2024.2.2,Win32,30.08061605,,,,,,,,,,,,,,,,,,,,,,,,586.8597,588.4398,l,1,[],[],[],[],[],[],[],0.8439,1,588.4399,588.9571,,,,,,536,FEM,DIS,150,cruz,el,a,0.8439,,588.9572,588.9574,0.483072917,-0.088541667,0,0,0,,0,169,169,85,1,,,,
,,,,,,609956bd373ddbf6901fe809,66a626ef09d4e21e1a8894ec,67360fcc85d9661f3c842e74,2024-11-14_16h01.03.082,Tarea de género gramatical,2024.2.2,Win32,30.08061605,,,,,,,,,,,,,,,,,,,,,,,,588.9589,590.2973,l,1,[],[],[],[],[],[],[],0.5827,1,590.2975,590.7695,,,,,,451,FEM,CON,150,casa,,a,0.5827,,590.7705,590.7707,0.483072917,-0.088541667,0,0,0,,0,170,170,0,1,,,,
,,,,,,609956bd373ddbf6901fe809,66a626ef09d4e21e1a8894ec,67360fcc85d9661f3c842e74,2024-11-14_16h01.03.082,Tarea de género gramatical,2024.2.2,Win32,30.08061605,,,,,,,,,,,,,,,,,,,,,,,,590.7722,592.2112,a,1,[],[],[],[],[],[],[],0.6943,1,592.2112,592.6867,,,,,,899,MAS,DIS,150,payaso,la,l,0.6943,,592.6868,592.6869,0.483072917,-0.088541667,0,0,0,,0,171,171,448,1,,,,
,,,,,,609956bd373ddbf6901fe809,66a626ef09d4e21e1a8894ec,67360fcc85d9661f3c842e74,2024-11-14_16h01.03.082,Tarea de género gramatical,2024.2.2,Win32,30.08061605,,,,,,,,,,,,,,,,,,,,,,,,592.6884,593.9108,l,1,[],[],[],[],[],[],[],0.4796,1,593.9109,594.3925,,,,,,787,FEM,CON,150,escena,,a,0.4796,,594.3926,594.3929,0.483072917,-0.088541667,0,0,0,,0,172,172,336,1,,,,
,,,,,,609956bd373ddbf6901fe809,66a626ef09d4e21e1a8894ec,67360fcc85d9661f3c842e74,2024-11-14_16h01.03.082,Tarea de género gramatical,2024.2.2,Win32,30.08061605,,,,,,,,,,,,,,,,,,,,,,,,594.3944,595.5115,l,1,[],[],[],[],[],[],[],0.3694,1,595.5116,595.9868,,,,,,782,FEM,DIS,150,basura,el,a,0.3694,,595.9892,595.9904,0.483072917,-0.088541667,0,0,0,,0,173,173,331,1,,,,
,,,,,,609956bd373ddbf6901fe809,66a626ef09d4e21e1a8894ec,67360fcc85d9661f3c842e74,2024-11-14_16h01.03.082,Tarea de género gramatical,2024.2.2,Win32,30.08061605,,,,,,,,,,,,,,,,,,,,,,,,595.9915,597.22,l,1,[],[],[],[],[],[],[],0.4812,1,597.2201,597.6996,,,,,,631,FEM,CON,150,tarde,,a,0.4812,,597.6997,597.6999,0.483072917,-0.088541667,0,0,0,,0,174,174,180,1,,,,
,,,,,,609956bd373ddbf6901fe809,66a626ef09d4e21e1a8894ec,67360fcc85d9661f3c842e74,2024-11-14_16h01.03.082,Tarea de género gramatical,2024.2.2,Win32,30.08061605,,,,,,,,,,,,,,,,,,,,,,,,597.7013,599.0301,a,1,[],[],[],[],[],[],[],0.5862,1,599.0302,599.5099,,,,,,857,MAS,DIS,150,jurado,la,l,0.5862,,599.5107,599.5109,0.483072917,-0.088541667,0,0,0,,0,175,175,406,1,,,,
,,,,,,609956bd373ddbf6901fe809,66a626ef09d4e21e1a8894ec,67360fcc85d9661f3c842e74,2024-11-14_16h01.03.082,Tarea de género gramatical,2024.2.2,Win32,30.08061605,,,,,,,,,,,,,,,,,,,,,,,,599.5124,600.6839,a,1,[],[],[],[],[],[],[],0.423,1,600.6841,601.1601,,,,,,504,MAS,AGR,150,humo,el,l,0.423,,601.1602,601.1605,0.483072917,-0.088541667,0,0,0,,0,176,176,53,1,,,,
,,,,,,609956bd373ddbf6901fe809,66a626ef09d4e21e1a8894ec,67360fcc85d9661f3c842e74,2024-11-14_16h01.03.082,Tarea de género gramatical,2024.2.2,Win32,30.08061605,,,,,,,,,,,,,,,,,,,,,,,,601.1623,602.2889,a,1,[],[],[],[],[],[],[],0.3751,1,602.2891,602.7681,,,,,,858,MAS,AGR,150,cheque,el,l,0.3751,,602.7704,602.7716,0.483072917,-0.088541667,0,0,0,,0,177,177,407,1,,,,
,,,,,,609956bd373ddbf6901fe809,66a626ef09d4e21e1a8894ec,67360fcc85d9661f3c842e74,2024-11-14_16h01.03.082,Tarea de género gramatical,2024.2.2,Win32,30.08061605,,,,,,,,,,,,,,,,,,,,,,,,602.7728,603.9927,l,1,[],[],[],[],[],[],[],0.4829,1,603.9928,604.4665,,,,,,603,FEM,AGR,150,mujer,la,a,0.4829,,604.4666,604.4668,0.483072917,-0.088541667,0,0,0,,0,178,178,152,1,,,,
,,,,,,609956bd373ddbf6901fe809,66a626ef09d4e21e1a8894ec,67360fcc85d9661f3c842e74,2024-11-14_16h01.03.082,Tarea de género gramatical,2024.2.2,Win32,30.08061605,,,,,,,,,,,,,,,,,,,,,,,,604.4682,605.6945,a,1,[],[],[],[],[],[],[],0.4857,1,605.6947,606.1674,,,,,,646,MAS,CON,150,barco,,l,0.4857,,606.1675,606.1676,0.483072917,-0.088541667,0,0,0,,0,179,179,195,1,,,,
,,,,,,609956bd373ddbf6901fe809,66a626ef09d4e21e1a8894ec,67360fcc85d9661f3c842e74,2024-11-14_16h01.03.082,Tarea de género gramatical,2024.2.2,Win32,30.08061605,,,,,,,,,,,,,,,,,,,,,,,,606.1692,607.3482,l,1,[],[],[],[],[],[],[],0.4306,1,607.3484,607.8345,,,,,,555,FEM,AGR,150,jefa,la,a,0.4306,,607.8345,607.8348,0.483072917,-0.088541667,0,0,0,,0,180,180,104,1,,,,
,,,,,,609956bd373ddbf6901fe809,66a626ef09d4e21e1a8894ec,67360fcc85d9661f3c842e74,2024-11-14_16h01.03.082,Tarea de género gramatical,2024.2.2,Win32,30.08061605,,,,,,,,,,,,,,,,,,,,,,,,607.8371,609.2224,l,1,[],[],[],[],[],[],[],0.6387,1,609.2228,609.7098,,,,,,849,FEM,AGR,150,charla,la,a,0.6387,,609.7099,609.71,0.483072917,-0.088541667,0,0,0,,0,181,181,398,1,,,,
,,,,,,609956bd373ddbf6901fe809,66a626ef09d4e21e1a8894ec,67360fcc85d9661f3c842e74,2024-11-14_16h01.03.082,Tarea de género gramatical,2024.2.2,Win32,30.08061605,,,,,,,,,,,,,,,,,,,,,,,,609.7115,610.8845,l,1,[],[],[],[],[],[],[],0.4258,1,610.8848,611.3634,,,,,,788,FEM,DIS,150,abuela,el,a,0.4258,,611.3657,611.3669,0.483072917,-0.088541667,0,0,0,,0,182,182,337,1,,,,
,,,,,,609956bd373ddbf6901fe809,66a626ef09d4e21e1a8894ec,67360fcc85d9661f3c842e74,2024-11-14_16h01.03.082,Tarea de género gramatical,2024.2.2,Win32,30.08061605,,,,,,,,,,,,,,,,,,,,,,,,611.3682,612.5985,a,1,[],[],[],[],[],[],[],0.4836,1,612.5986,613.0749,,,,,,881,MAS,DIS,150,veneno,la,l,0.4836,,613.075,613.0762,0.483072917,-0.088541667,0,0,0,,0,183,183,430,1,,,,
,,,,,,609956bd373ddbf6901fe809,66a626ef09d4e21e1a8894ec,67360fcc85d9661f3c842e74,2024-11-14_16h01.03.082,Tarea de género gramatical,2024.2.2,Win32,30.08061605,,,,,,,,,,,,,,,,,,,,,,,,613.0781,614.6215,l,1,[],[],[],[],[],[],[],0.802,1,614.6216,615.1054,,,,,,572,FEM,DIS,150,loca,el,a,0.802,,615.1054,615.1057,0.483072917,-0.088541667,0,0,0,,0,184,184,121,1,,,,
,,,,,,609956bd373ddbf6901fe809,66a626ef09d4e21e1a8894ec,67360fcc85d9661f3c842e74,2024-11-14_16h01.03.082,Tarea de género gramatical,2024.2.2,Win32,30.08061605,,,,,,,,,,,,,,,,,,,,,,,,615.1074,616.4819,l,1,[],[],[],[],[],[],[],0.6343,1,616.4821,616.9587,,,,,,584,FEM,DIS,150,rama,el,a,0.6343,,616.9588,616.9589,0.483072917,-0.088541667,0,0,0,,0,185,185,133,1,,,,
,,,,,,609956bd373ddbf6901fe809,66a626ef09d4e21e1a8894ec,67360fcc85d9661f3c842e74,2024-11-14_16h01.03.082,Tarea de género gramatical,2024.2.2,Win32,30.08061605,,,,,,,,,,,,,,,,,,,,,,,,616.9609,618.1836,a,1,[],[],[],[],[],[],[],0.4751,1,618.1837,618.6563,,,,,,460,MAS,CON,150,niño,,l,0.4751,,618.658,618.6595,0.483072917,-0.088541667,0,0,0,,0,186,186,9,1,,,,
,,,,,,609956bd373ddbf6901fe809,66a626ef09d4e21e1a8894ec,67360fcc85d9661f3c842e74,2024-11-14_16h01.03.082,Tarea de género gramatical,2024.2.2,Win32,30.08061605,,,,,,,,,,,,,,,,,,,,,,,,618.661,619.7907,a,0,[],[],[],[],[],[],[],0.4253,0,619.7918,620.2706,,,,,,601,FEM,CON,150,noche,,a,0.4253,,620.2707,620.2709,0.483072917,-0.088541667,0,0,0,,0,187,187,150,1,,,,
,,,,,,609956bd373ddbf6901fe809,66a626ef09d4e21e1a8894ec,67360fcc85d9661f3c842e74,2024-11-14_16h01.03.082,Tarea de género gramatical,2024.2.2,Win32,30.08061605,,,,,,,,,,,,,,,,,,,,,,,,620.2722,621.7598,l,1,[],[],[],[],[],[],[],0.7419,1,621.7609,622.2415,,,,,,836,FEM,DIS,150,sombra,el,a,0.7419,,622.2416,622.2417,0.483072917,-0.088541667,0,0,0,,0,188,188,385,1,,,,
,,,,,,609956bd373ddbf6901fe809,66a626ef09d4e21e1a8894ec,67360fcc85d9661f3c842e74,2024-11-14_16h01.03.082,Tarea de género gramatical,2024.2.2,Win32,30.08061605,,,,,,,,,,,,,,,,,,,,,,,,622.2434,624.2087,a,1,[],[],[],[],[],[],[],1.219,1,624.2088,624.6812,,,,,,456,MAS,AGR,150,lado,el,l,1.219,,624.6813,624.6814,0.483072917,-0.088541667,0,0,0,,0,189,189,5,1,,,,
,,,,,,609956bd373ddbf6901fe809,66a626ef09d4e21e1a8894ec,67360fcc85d9661f3c842e74,2024-11-14_16h01.03.082,Tarea de género gramatical,2024.2.2,Win32,30.08061605,,,,,,,,,,,,,,,,,,,,,,,,624.6829,626.0156,l,1,[],[],[],[],[],[],[],0.5869,1,626.0157,626.4933,,,,,,475,FEM,CON,150,nave,,a,0.5869,,626.4934,626.4935,0.483072917,-0.088541667,0,0,0,,0,190,190,24,1,,,,
,,,,,,609956bd373ddbf6901fe809,66a626ef09d4e21e1a8894ec,67360fcc85d9661f3c842e74,2024-11-14_16h01.03.082,Tarea de género gramatical,2024.2.2,Win32,30.08061605,,,,,,,,,,,,,,,,,,,,,,,,626.4954,627.8684,a,1,[],[],[],[],[],[],[],0.633,1,627.8686,628.3453,,,,,,797,MAS,DIS,150,cuello,la,l,0.633,,628.3474,628.3487,0.483072917,-0.088541667,0,0,0,,0,191,191,346,1,,,,
,,,,,,609956bd373ddbf6901fe809,66a626ef09d4e21e1a8894ec,67360fcc85d9661f3c842e74,2024-11-14_16h01.03.082,Tarea de género gramatical,2024.2.2,Win32,30.08061605,,,,,,,,,,,,,,,,,,,,,,,,628.3499,629.6279,l,1,[],[],[],[],[],[],[],0.5342,1,629.628,630.1115,,,,,,632,FEM,DIS,150,prisa,el,a,0.5342,,630.1116,630.1117,0.483072917,-0.088541667,0,0,0,,0,192,192,181,1,,,,
,,,,,,609956bd373ddbf6901fe809,66a626ef09d4e21e1a8894ec,67360fcc85d9661f3c842e74,2024-11-14_16h01.03.082,Tarea de género gramatical,2024.2.2,Win32,30.08061605,,,,,,,,,,,,,,,,,,,,,,,,630.1132,631.4982,a,1,[],[],[],[],[],[],[],0.6362,1,631.4983,631.9785,,,,,,515,MAS,DIS,150,rayo,la,l,0.6362,,631.9796,631.9798,0.483072917,-0.088541667,0,0,0,,0,193,193,64,1,,,,
,,,,,,609956bd373ddbf6901fe809,66a626ef09d4e21e1a8894ec,67360fcc85d9661f3c842e74,2024-11-14_16h01.03.082,Tarea de género gramatical,2024.2.2,Win32,30.08061605,,,,,,,,,,,,,,,,,,,,,,,,631.9812,633.1517,a,1,[],[],[],[],[],[],[],0.432,1,633.1518,633.6347,,,,,,802,MAS,CON,150,estilo,,l,0.432,,633.6356,633.636,0.483072917,-0.088541667,0,0,0,,0,194,194,351,1,,,,
,,,,,,609956bd373ddbf6901fe809,66a626ef09d4e21e1a8894ec,67360fcc85d9661f3c842e74,2024-11-14_16h01.03.082,Tarea de género gramatical,2024.2.2,Win32,30.08061605,,,,,,,,,,,,,,,,,,,,,,,,633.6375,635.0162,a,1,[],[],[],[],[],[],[],0.6381,1,635.0163,635.4959,,,,,,635,MAS,DIS,150,sueño,la,l,0.6381,,635.4971,635.4984,0.483072917,-0.088541667,0,0,0,,0,195,195,184,1,,,,
,,,,,,609956bd373ddbf6901fe809,66a626ef09d4e21e1a8894ec,67360fcc85d9661f3c842e74,2024-11-14_16h01.03.082,Tarea de género gramatical,2024.2.2,Win32,30.08061605,,,,,,,,,,,,,,,,,,,,,,,,635.4996,636.6789,l,1,[],[],[],[],[],[],[],0.4328,1,636.6791,637.1605,,,,,,740,FEM,DIS,150,cabra,el,a,0.4328,,637.1613,637.1616,0.483072917,-0.088541667,0,0,0,,0,196,196,289,1,,,,
,,,,,,609956bd373ddbf6901fe809,66a626ef09d4e21e1a8894ec,67360fcc85d9661f3c842e74,2024-11-14_16h01.03.082,Tarea de género gramatical,2024.2.2,Win32,30.08061605,,,,,,,,,,,,,,,,,,,,,,,,637.1631,638.497,a,1,[],[],[],[],[],[],[],0.5927,1,638.4971,638.9824,,,,,,779,MAS,DIS,150,futuro,la,l,0.5927,,638.9826,638.9836,0.483072917,-0.088541667,0,0,0,,0,197,197,328,1,,,,
,,,,,,609956bd373ddbf6901fe809,66a626ef09d4e21e1a8894ec,67360fcc85d9661f3c842e74,2024-11-14_16h01.03.082,Tarea de género gramatical,2024.2.2,Win32,30.08061605,,,,,,,,,,,,,,,,,,,,,,,,638.9852,640.2111,l,1,[],[],[],[],[],[],[],0.4777,1,640.2113,640.69,,,,,,771,FEM,AGR,150,comida,la,a,0.4777,,640.6901,640.6902,0.483072917,-0.088541667,0,0,0,,0,198,198,320,1,,,,
,,,,,,609956bd373ddbf6901fe809,66a626ef09d4e21e1a8894ec,67360fcc85d9661f3c842e74,2024-11-14_16h01.03.082,Tarea de género gramatical,2024.2.2,Win32,30.08061605,,,,,,,,,,,,,,,,,,,,,,,,640.6921,642.0121,l,1,[],[],[],[],[],[],[],0.5808,1,642.0122,642.4934,,,,,,464,FEM,DIS,150,cara,el,a,0.5808,,642.4936,642.4939,0.483072917,-0.088541667,0,0,0,,0,199,199,13,1,,,,
,,,,,,609956bd373ddbf6901fe809,66a626ef09d4e21e1a8894ec,67360fcc85d9661f3c842e74,2024-11-14_16h01.03.082,Tarea de género gramatical,2024.2.2,Win32,30.08061605,,,,,,,,,,,,,,,,,,,,,,,,642.4957,643.7621,l,1,[],[],[],[],[],[],[],0.5256,1,643.7625,644.2384,,,,,,507,FEM,AGR,150,moda,la,a,0.5256,,644.2407,644.242,0.483072917,-0.088541667,0,0,0,,0,200,200,56,1,,,,
,,,,,,609956bd373ddbf6901fe809,66a626ef09d4e21e1a8894ec,67360fcc85d9661f3c842e74,2024-11-14_16h01.03.082,Tarea de género gramatical,2024.2.2,Win32,30.08061605,,,,,,,,,,,,,,,,,,,,,,,,644.2432,645.4177,l,1,[],[],[],[],[],[],[],0.4307,1,645.4179,645.8998,,,,,,651,FEM,AGR,150,leche,la,a,0.4307,,645.9008,645.901,0.483072917,-0.088541667,0,0,0,,0,201,201,200,1,,,,
,,,,,,609956bd373ddbf6901fe809,66a626ef09d4e21e1a8894ec,67360fcc85d9661f3c842e74,2024-11-14_16h01.03.082,Tarea de género gramatical,2024.2.2,Win32,30.08061605,,,,,,,,,,,,,,,,,,,,,,,,645.9024,647.2891,l,0,[],[],[],[],[],[],[],0.6406,0,647.2906,647.7686,,,,,,863,MAS,DIS,150,diario,la,l,0.6406,,647.7688,647.7699,0.483072917,-0.088541667,0,0,0,,0,202,202,412,1,,,,
,,,,,,609956bd373ddbf6901fe809,66a626ef09d4e21e1a8894ec,67360fcc85d9661f3c842e74,2024-11-14_16h01.03.082,Tarea de género gramatical,2024.2.2,Win32,30.08061605,,,,,,,,,,,,,,,,,,,,,,,,647.7713,649.4282,a,1,[],[],[],[],[],[],[],0.9228,1,649.4297,649.9077,,,,,,772,MAS,CON,150,minuto,,l,0.9228,,649.9078,649.9079,0.483072917,-0.088541667,0,0,0,,0,203,203,321,1,,,,
,,,,,,609956bd373ddbf6901fe809,66a626ef09d4e21e1a8894ec,67360fcc85d9661f3c842e74,2024-11-14_16h01.03.082,Tarea de género gramatical,2024.2.2,Win32,30.08061605,,,,,,,,,,,,,,,,,,,,,,,,649.9094,651.0758,a,1,[],[],[],[],[],[],[],0.4239,1,651.0759,651.5468,,,,,,587,MAS,DIS,150,coco,la,l,0.4239,,651.5492,651.5504,0.483072917,-0.088541667,0,0,0,,0,204,204,136,1,,,,
,,,,,,609956bd373ddbf6901fe809,66a626ef09d4e21e1a8894ec,67360fcc85d9661f3c842e74,2024-11-14_16h01.03.082,Tarea de género gramatical,2024.2.2,Win32,30.08061605,,,,,,,,,,,,,,,,,,,,,,,,651.5515,652.6697,a,1,[],[],[],[],[],[],[],0.3775,1,652.67,653.1527,,,,,,652,MAS,CON,150,honor,,l,0.3775,,653.1528,653.1529,0.483072917,-0.088541667,0,0,0,,0,205,205,201,1,,,,
,,,,,,609956bd373ddbf6901fe809,66a626ef09d4e21e1a8894ec,67360fcc85d9661f3c842e74,2024-11-14_16h01.03.082,Tarea de género gramatical,2024.2.2,Win32,30.08061605,,,,,,,,,,,,,,,,,,,,,,,,653.1544,654.4349,l,1,[],[],[],[],[],[],[],0.5384,1,654.435,654.913,,,,,,897,FEM,AGR,150,lógica,la,a,0.5384,,654.9131,654.9133,0.483072917,-0.088541667,0,0,0,,0,206,206,446,1,,,,
,,,,,,609956bd373ddbf6901fe809,66a626ef09d4e21e1a8894ec,67360fcc85d9661f3c842e74,2024-11-14_16h01.03.082,Tarea de género gramatical,2024.2.2,Win32,30.08061605,,,,,,,,,,,,,,,,,,,,,,,,654.9147,656.0878,l,1,[],[],[],[],[],[],[],0.436,1,656.088,656.5673,,,,,,519,FEM,AGR,150,rata,la,a,0.436,,656.5673,656.5676,0.483072917,-0.088541667,0,0,0,,0,207,207,68,1,,,,
,,,,,,609956bd373ddbf6901fe809,66a626ef09d4e21e1a8894ec,67360fcc85d9661f3c842e74,2024-11-14_16h01.03.082,Tarea de género gramatical,2024.2.2,Win32,30.08061605,,,,,,,,,,,,,,,,,,,,,,,,656.569,657.7365,a,1,[],[],[],[],[],[],[],0.4241,1,657.7367,658.2149,,,,,,544,MAS,CON,150,cabo,,l,0.4241,,658.215,658.2151,0.483072917,-0.088541667,0,0,0,,0,208,208,93,1,,,,
,,,,,,609956bd373ddbf6901fe809,66a626ef09d4e21e1a8894ec,67360fcc85d9661f3c842e74,2024-11-14_16h01.03.082,Tarea de género gramatical,2024.2.2,Win32,30.08061605,,,,,,,,,,,,,,,,,,,,,,,,658.2168,659.3873,a,1,[],[],[],[],[],[],[],0.4274,1,659.3874,659.869,,,,,,616,MAS,CON,150,coche,,l,0.4274,,659.8719,659.8732,0.483072917,-0.088541667,0,0,0,,0,209,209,165,1,,,,
,,,,,,609956bd373ddbf6901fe809,66a626ef09d4e21e1a8894ec,67360fcc85d9661f3c842e74,2024-11-14_16h01.03.082,Tarea de género gramatical,2024.2.2,Win32,30.08061605,,,,,,,,,,,,,,,,,,,,,,,,659.8746,661.4681,l,1,[],[],[],[],[],[],[],0.8492,1,661.4683,661.9467,,,,,,705,FEM,AGR,150,tribu,la,a,0.8492,,661.947,661.9472,0.483072917,-0.088541667,0,0,0,,0,210,210,254,1,,,,
,,,,,,609956bd373ddbf6901fe809,66a626ef09d4e21e1a8894ec,67360fcc85d9661f3c842e74,2024-11-14_16h01.03.082,Tarea de género gramatical,2024.2.2,Win32,30.08061605,,,,,,,,,,,,,,,,,,,,,,,,661.9489,663.2721,l,1,[],[],[],[],[],[],[],0.578,1,663.2724,663.7479,,,,,,547,FEM,CON,150,capa,,a,0.578,,663.748,663.7482,0.483072917,-0.088541667,0,0,0,,0,211,211,96,1,,,,
,,,,,,609956bd373ddbf6901fe809,66a626ef09d4e21e1a8894ec,67360fcc85d9661f3c842e74,2024-11-14_16h01.03.082,Tarea de género gramatical,2024.2.2,Win32,30.08061605,,,,,,,,,,,,,,,,,,,,,,,,663.7498,664.862,a,1,[],[],[],[],[],[],[],0.3662,1,664.8622,665.3472,,,,,,478,MAS,CON,150,club,,l,0.3662,,665.3473,665.3474,0.483072917,-0.088541667,0,0,0,,0,212,212,27,1,,,,
,,,,,,609956bd373ddbf6901fe809,66a626ef09d4e21e1a8894ec,67360fcc85d9661f3c842e74,2024-11-14_16h01.03.082,Tarea de género gramatical,2024.2.2,Win32,30.08061605,,,,,,,,,,,,,,,,,,,,,,,,665.3489,666.6745,l,1,[],[],[],[],[],[],[],0.5846,1,666.6747,667.1572,,,,,,825,FEM,AGR,150,cadena,la,a,0.5846,,667.1586,667.16,0.483072917,-0.088541667,0,0,0,,0,213,213,374,1,,,,
,,,,,,609956bd373ddbf6901fe809,66a626ef09d4e21e1a8894ec,67360fcc85d9661f3c842e74,2024-11-14_16h01.03.082,Tarea de género gramatical,2024.2.2,Win32,30.08061605,,,,,,,,,,,,,,,,,,,,,,,,667.1612,668.5396,l,1,[],[],[],[],[],[],[],0.6388,1,668.5398,669.0141,,,,,,476,FEM,DIS,150,pena,el,a,0.6388,,669.0152,669.0153,0.483072917,-0.088541667,0,0,0,,0,214,214,25,1,,,,
,,,,,,609956bd373ddbf6901fe809,66a626ef09d4e21e1a8894ec,67360fcc85d9661f3c842e74,2024-11-14_16h01.03.082,Tarea de género gramatical,2024.2.2,Win32,30.08061605,,,,,,,,,,,,,,,,,,,,,,,,669.017,670.2908,l,1,[],[],[],[],[],[],[],0.5352,1,670.2909,670.7682,,,,,,579,FEM,AGR,150,rana,la,a,0.5352,,670.7693,670.7695,0.483072917,-0.088541667,0,0,0,,0,215,215,128,1,,,,
,,,,,,609956bd373ddbf6901fe809,66a626ef09d4e21e1a8894ec,67360fcc85d9661f3c842e74,2024-11-14_16h01.03.082,Tarea de género gramatical,2024.2.2,Win32,30.08061605,,,,,,,,,,,,,,,,,,,,,,,,670.7708,672.0453,l,1,[],[],[],[],[],[],[],0.5295,1,672.0453,672.5219,,,,,,741,FEM,AGR,150,aguja,la,a,0.5295,,672.5227,672.5229,0.483072917,-0.088541667,0,0,0,,0,216,216,290,1,,,,
,,,,,,609956bd373ddbf6901fe809,66a626ef09d4e21e1a8894ec,67360fcc85d9661f3c842e74,2024-11-14_16h01.03.082,Tarea de género gramatical,2024.2.2,Win32,30.08061605,,,,,,,,,,,,,,,,,,,,,,,,672.5244,673.7513,a,1,[],[],[],[],[],[],[],0.4748,1,673.7514,674.225,,,,,,743,MAS,DIS,150,patio,la,l,0.4748,,674.2257,674.226,0.483072917,-0.088541667,0,0,0,,0,217,217,292,1,,,,
,,,,,,609956bd373ddbf6901fe809,66a626ef09d4e21e1a8894ec,67360fcc85d9661f3c842e74,2024-11-14_16h01.03.082,Tarea de género gramatical,2024.2.2,Win32,30.08061605,,,,,,,,,,,,,,,,,,,,,,,,674.2274,675.5589,l,1,[],[],[],[],[],[],[],0.591,1,675.5591,676.0351,,,,,,541,FEM,CON,150,hoja,,a,0.591,,676.0372,676.0385,0.483072917,-0.088541667,0,0,0,,0,218,218,90,1,,,,
,,,,,,609956bd373ddbf6901fe809,66a626ef09d4e21e1a8894ec,67360fcc85d9661f3c842e74,2024-11-14_16h01.03.082,Tarea de género gramatical,2024.2.2,Win32,30.08061605,,,,,,,,,,,,,,,,,,,,,,,,676.0398,677.2626,l,1,[],[],[],[],[],[],[],0.4794,1,677.2627,677.7418,,,,,,776,FEM,DIS,150,música,el,a,0.4794,,677.7419,677.7421,0.483072917,-0.088541667,0,0,0,,0,219,219,325,1,,,,
,,,,,,609956bd373ddbf6901fe809,66a626ef09d4e21e1a8894ec,67360fcc85d9661f3c842e74,2024-11-14_16h01.03.082,Tarea de género gramatical,2024.2.2,Win32,30.08061605,,,,,,,,,,,,,,,,,,,,,,,,677.7439,678.9667,l,1,[],[],[],[],[],[],[],0.4802,1,678.9671,679.4482,,,,,,891,FEM,AGR,150,medida,la,a,0.4802,,679.4483,679.4484,0.483072917,-0.088541667,0,0,0,,0,220,220,440,1,,,,
,,,,,,609956bd373ddbf6901fe809,66a626ef09d4e21e1a8894ec,67360fcc85d9661f3c842e74,2024-11-14_16h01.03.082,Tarea de género gramatical,2024.2.2,Win32,30.08061605,,,,,,,,,,,,,,,,,,,,,,,,679.4497,680.6754,l,1,[],[],[],[],[],[],[],0.4775,1,680.6755,681.1536,,,,,,819,FEM,AGR,150,camisa,la,a,0.4775,,681.1536,681.1538,0.483072917,-0.088541667,0,0,0,,0,221,221,368,1,,,,
,,,,,,609956bd373ddbf6901fe809,66a626ef09d4e21e1a8894ec,67360fcc85d9661f3c842e74,2024-11-14_16h01.03.082,Tarea de género gramatical,2024.2.2,Win32,30.08061605,,,,,,,,,,,,,,,,,,,,,,,,681.1552,682.5336,l,1,[],[],[],[],[],[],[],0.6359,1,682.5337,683.01,,,,,,613,FEM,CON,150,calle,,a,0.6359,,683.0113,683.0124,0.483072917,-0.088541667,0,0,0,,0,222,222,162,1,,,,
,,,,,,609956bd373ddbf6901fe809,66a626ef09d4e21e1a8894ec,67360fcc85d9661f3c842e74,2024-11-14_16h01.03.082,Tarea de género gramatical,2024.2.2,Win32,30.08061605,,,,,,,,,,,,,,,,,,,,,,,,683.0136,684.2806,a,1,[],[],[],[],[],[],[],0.5306,1,684.2807,684.7586,,,,,,755,MAS,DIS,150,hombre,la,l,0.5306,,684.7587,684.7588,0.483072917,-0.088541667,0,0,0,,0,223,223,304,1,,,,
,,,,,,609956bd373ddbf6901fe809,66a626ef09d4e21e1a8894ec,67360fcc85d9661f3c842e74,2024-11-14_16h01.03.082,Tarea de género gramatical,2024.2.2,Win32,30.08061605,,,,,,,,,,,,,,,,,,,,,,,,684.7602,686.2955,l,1,[],[],[],[],[],[],[],0.7918,1,686.2958,686.7721,,,,,,692,FEM,DIS,150,pizza,el,a,0.7918,,686.7732,686.7734,0.483072917,-0.088541667,0,0,0,,0,224,224,241,1,,,,
,,,,,,609956bd373ddbf6901fe809,66a626ef09d4e21e1a8894ec,67360fcc85d9661f3c842e74,2024-11-14_16h01.03.082,Tarea de género gramatical,2024.2.2,Win32,30.08061605,,,,,,,,,,,,,,,,,,,,,,,,686.7749,688.0462,l,1,[],[],[],[],[],[],[],0.5268,1,688.0464,688.5268,,,,,,638,FEM,DIS,150,bomba,el,a,0.5268,,688.5269,688.5271,0.483072917,-0.088541667,0,0,0,,0,225,225,187,1,,,,
,,,,,,609956bd373ddbf6901fe809,66a626ef09d4e21e1a8894ec,67360fcc85d9661f3c842e74,2024-11-14_16h01.03.082,Tarea de género gramatical,2024.2.2,Win32,30.08061605,,,,,,,,,,,,,,,,,,,,,,,,688.5286,689.8527,l,1,[],[],[],[],[],[],[],0.5833,1,689.8529,690.3255,,,,,,488,FEM,DIS,150,obra,el,a,0.5833,,690.3266,690.3268,0.483072917,-0.088541667,0,0,0,,0,226,226,37,1,,,,
,,,,,,609956bd373ddbf6901fe809,66a626ef09d4e21e1a8894ec,67360fcc85d9661f3c842e74,2024-11-14_16h01.03.082,Tarea de género gramatical,2024.2.2,Win32,30.08061605,,,,,,,,,,,,,,,,,,,,,,,,690.3281,691.546,a,1,[],[],[],[],[],[],[],0.4775,1,691.5462,692.0233,,,,,,778,MAS,CON,150,asunto,,l,0.4775,,692.0257,692.0268,0.483072917,-0.088541667,0,0,0,,0,227,227,327,1,,,,
,,,,,,609956bd373ddbf6901fe809,66a626ef09d4e21e1a8894ec,67360fcc85d9661f3c842e74,2024-11-14_16h01.03.082,Tarea de género gramatical,2024.2.2,Win32,30.08061605,,,,,,,,,,,,,,,,,,,,,,,,692.0281,693.3451,a,1,[],[],[],[],[],[],[],0.5805,1,693.3453,693.8234,,,,,,546,MAS,AGR,150,pato,el,l,0.5805,,693.8242,693.8245,0.483072917,-0.088541667,0,0,0,,0,228,228,95,1,,,,
,,,,,,609956bd373ddbf6901fe809,66a626ef09d4e21e1a8894ec,67360fcc85d9661f3c842e74,2024-11-14_16h01.03.082,Tarea de género gramatical,2024.2.2,Win32,30.08061605,,,,,,,,,,,,,,,,,,,,,,,,693.8259,694.9466,a,1,[],[],[],[],[],[],[],0.3768,1,694.9469,695.423,,,,,,790,MAS,CON,150,pasado,,l,0.3768,,695.4231,695.4233,0.483072917,-0.088541667,0,0,0,,0,229,229,339,1,,,,
,,,,,,609956bd373ddbf6901fe809,66a626ef09d4e21e1a8894ec,67360fcc85d9661f3c842e74,2024-11-14_16h01.03.082,Tarea de género gramatical,2024.2.2,Win32,30.08061605,,,,,,,,,,,,,,,,,,,,,,,,695.4247,696.6519,a,1,[],[],[],[],[],[],[],0.4795,1,696.6522,697.127,,,,,,574,MAS,CON,150,clan,,l,0.4795,,697.1271,697.1273,0.483072917,-0.088541667,0,0,0,,0,230,230,123,1,,,,
,,,,,,609956bd373ddbf6901fe809,66a626ef09d4e21e1a8894ec,67360fcc85d9661f3c842e74,2024-11-14_16h01.03.082,Tarea de género gramatical,2024.2.2,Win32,30.08061605,,,,,,,,,,,,,,,,,,,,,,,,697.1286,698.3006,a,1,[],[],[],[],[],[],[],0.426,1,698.3007,698.7753,,,,,,466,MAS,CON,150,baño,,l,0.426,,698.7776,698.7787,0.483072917,-0.088541667,0,0,0,,0,231,231,15,1,,,,
,,,,,,609956bd373ddbf6901fe809,66a626ef09d4e21e1a8894ec,67360fcc85d9661f3c842e74,2024-11-14_16h01.03.082,Tarea de género gramatical,2024.2.2,Win32,30.08061605,,,,,,,,,,,,,,,,,,,,,,,,698.7799,699.9451,a,1,[],[],[],[],[],[],[],0.4228,1,699.9453,700.4267,,,,,,520,MAS,CON,150,palo,,l,0.4228,,700.4278,700.428,0.483072917,-0.088541667,0,0,0,,0,232,232,69,1,,,,
,,,,,,609956bd373ddbf6901fe809,66a626ef09d4e21e1a8894ec,67360fcc85d9661f3c842e74,2024-11-14_16h01.03.082,Tarea de género gramatical,2024.2.2,Win32,30.08061605,,,,,,,,,,,,,,,,,,,,,,,,700.4293,701.5895,l,1,[],[],[],[],[],[],[],0.4246,1,701.5897,702.0684,,,,,,800,FEM,DIS,150,imagen,el,a,0.4246,,702.0685,702.0686,0.483072917,-0.088541667,0,0,0,,0,233,233,349,1,,,,
,,,,,,609956bd373ddbf6901fe809,66a626ef09d4e21e1a8894ec,67360fcc85d9661f3c842e74,2024-11-14_16h01.03.082,Tarea de género gramatical,2024.2.2,Win32,30.08061605,,,,,,,,,,,,,,,,,,,,,,,,702.0703,703.2998,a,1,[],[],[],[],[],[],[],0.4865,1,703.3001,703.7743,,,,,,599,MAS,DIS,150,nudo,la,l,0.4865,,703.7744,703.7745,0.483072917,-0.088541667,0,0,0,,0,234,234,148,1,,,,
,,,,,,609956bd373ddbf6901fe809,66a626ef09d4e21e1a8894ec,67360fcc85d9661f3c842e74,2024-11-14_16h01.03.082,Tarea de género gramatical,2024.2.2,Win32,30.08061605,,,,,,,,,,,,,,,,,,,,,,,,703.7762,705.3073,l,1,[],[],[],[],[],[],[],0.7946,1,705.3075,705.7786,,,,,,764,FEM,DIS,150,señora,el,a,0.7946,,705.7787,705.7789,0.483072917,-0.088541667,0,0,0,,0,235,235,313,1,,,,
,,,,,,609956bd373ddbf6901fe809,66a626ef09d4e21e1a8894ec,67360fcc85d9661f3c842e74,2024-11-14_16h01.03.082,Tarea de género gramatical,2024.2.2,Win32,30.08061605,,,,,,,,,,,,,,,,,,,,,,,,705.7804,706.9494,a,1,[],[],[],[],[],[],[],0.4223,1,706.9496,707.4271,,,,,,700,MAS,CON,150,cerdo,,l,0.4223,,707.4294,707.4308,0.483072917,-0.088541667,0,0,0,,0,236,236,249,1,,,,
,,,,,,609956bd373ddbf6901fe809,66a626ef09d4e21e1a8894ec,67360fcc85d9661f3c842e74,2024-11-14_16h01.03.082,Tarea de género gramatical,2024.2.2,Win32,30.08061605,,,,,,,,,,,,,,,,,,,,,,,,707.4323,708.8026,l,1,[],[],[],[],[],[],[],0.6355,1,708.8027,709.275,,,,,,896,FEM,DIS,150,bañera,el,a,0.6355,,709.276,709.2762,0.483072917,-0.088541667,0,0,0,,0,237,237,445,1,,,,
,,,,,,609956bd373ddbf6901fe809,66a626ef09d4e21e1a8894ec,67360fcc85d9661f3c842e74,2024-11-14_16h01.03.082,Tarea de género gramatical,2024.2.2,Win32,30.08061605,,,,,,,,,,,,,,,,,,,,,,,,709.2776,710.4444,l,1,[],[],[],[],[],[],[],0.4277,1,710.4446,710.9227,,,,,,817,FEM,CON,150,teoría,,a,0.4277,,710.9229,710.923,0.483072917,-0.088541667,0,0,0,,0,238,238,366,1,,,,
,,,,,,609956bd373ddbf6901fe809,66a626ef09d4e21e1a8894ec,67360fcc85d9661f3c842e74,2024-11-14_16h01.03.082,Tarea de género gramatical,2024.2.2,Win32,30.08061605,,,,,,,,,,,,,,,,,,,,,,,,710.9244,712.0954,a,1,[],[],[],[],[],[],[],0.4304,1,712.0955,712.5689,,,,,,677,MAS,DIS,150,vuelo,la,l,0.4304,,712.5689,712.5691,0.483072917,-0.088541667,0,0,0,,0,239,239,226,1,,,,
,,,,,,609956bd373ddbf6901fe809,66a626ef09d4e21e1a8894ec,67360fcc85d9661f3c842e74,2024-11-14_16h01.03.082,Tarea de género gramatical,2024.2.2,Win32,30.08061605,,,,,,,,,,,,,,,,,,,,,,,,712.5705,713.6855,a,1,[],[],[],[],[],[],[],0.3727,1,713.6857,714.1578,,,,,,486,MAS,AGR,150,dedo,el,l,0.3727,,714.1592,714.1605,0.483072917,-0.088541667,0,0,0,,0,240,240,35,1,,,,
,,,,,,609956bd373ddbf6901fe809,66a626ef09d4e21e1a8894ec,67360fcc85d9661f3c842e74,2024-11-14_16h01.03.082,Tarea de género gramatical,2024.2.2,Win32,30.08061605,,,,,,,,,,,,,,,,,,,,,,,,714.1618,715.3858,a,1,[],[],[],[],[],[],[],0.4746,1,715.386,715.8593,,,,,,815,MAS,DIS,150,código,la,l,0.4746,,715.8594,715.8606,0.483072917,-0.088541667,0,0,0,,0,241,241,364,1,,,,
,,,,,,609956bd373ddbf6901fe809,66a626ef09d4e21e1a8894ec,67360fcc85d9661f3c842e74,2024-11-14_16h01.03.082,Tarea de género gramatical,2024.2.2,Win32,30.08061605,,,,,,,,,,,,,,,,,,,,,,,,715.8619,716.9818,a,1,[],[],[],[],[],[],[],0.3735,1,716.9819,717.4605,,,,,,689,MAS,DIS,150,reloj,la,l,0.3735,,717.4606,717.4608,0.483072917,-0.088541667,0,0,0,,0,242,242,238,1,,,,
,,,,,,609956bd373ddbf6901fe809,66a626ef09d4e21e1a8894ec,67360fcc85d9661f3c842e74,2024-11-14_16h01.03.082,Tarea de género gramatical,2024.2.2,Win32,30.08061605,,,,,,,,,,,,,,,,,,,,,,,,717.4621,718.5869,l,1,[],[],[],[],[],[],[],0.3759,1,718.5871,719.0603,,,,,,530,FEM,DIS,150,vaca,el,a,0.3759,,719.0612,719.0614,0.483072917,-0.088541667,0,0,0,,0,243,243,79,1,,,,
,,,,,,609956bd373ddbf6901fe809,66a626ef09d4e21e1a8894ec,67360fcc85d9661f3c842e74,2024-11-14_16h01.03.082,Tarea de género gramatical,2024.2.2,Win32,30.08061605,,,,,,,,,,,,,,,,,,,,,,,,719.0628,720.1818,l,0,[],[],[],[],[],[],[],0.3766,0,720.1832,720.6549,,,,,,582,MAS,AGR,150,velo,el,l,0.3766,,720.6559,720.6562,0.483072917,-0.088541667,0,0,0,,0,244,244,131,1,,,,
,,,,,,609956bd373ddbf6901fe809,66a626ef09d4e21e1a8894ec,67360fcc85d9661f3c842e74,2024-11-14_16h01.03.082,Tarea de género gramatical,2024.2.2,Win32,30.08061605,,,,,,,,,,,,,,,,,,,,,,,,720.6576,721.8208,a,1,[],[],[],[],[],[],[],0.423,1,721.8221,722.3003,,,,,,563,MAS,DIS,150,toro,la,l,0.423,,722.302,722.3035,0.483072917,-0.088541667,0,0,0,,0,245,245,112,1,,,,
,,,,,,609956bd373ddbf6901fe809,66a626ef09d4e21e1a8894ec,67360fcc85d9661f3c842e74,2024-11-14_16h01.03.082,Tarea de género gramatical,2024.2.2,Win32,30.08061605,,,,,,,,,,,,,,,,,,,,,,,,722.3048,723.4743,a,1,[],[],[],[],[],[],[],0.432,1,723.4745,723.9546,,,,,,750,MAS,AGR,150,túnel,el,l,0.432,,723.9547,723.9548,0.483072917,-0.088541667,0,0,0,,0,246,246,299,1,,,,
,,,,,,609956bd373ddbf6901fe809,66a626ef09d4e21e1a8894ec,67360fcc85d9661f3c842e74,2024-11-14_16h01.03.082,Tarea de género gramatical,2024.2.2,Win32,30.08061605,,,,,,,,,,,,,,,,,,,,,,,,723.9567,725.1282,a,1,[],[],[],[],[],[],[],0.4203,1,725.1283,725.6073,,,,,,900,MAS,AGR,150,conejo,el,l,0.4203,,725.6081,725.6084,0.483072917,-0.088541667,0,0,0,,0,247,247,449,1,,,,
,,,,,,609956bd373ddbf6901fe809,66a626ef09d4e21e1a8894ec,67360fcc85d9661f3c842e74,2024-11-14_16h01.03.082,Tarea de género gramatical,2024.2.2,Win32,30.08061605,,,,,,,,,,,,,,,,,,,,,,,,725.6098,726.7193,a,1,[],[],[],[],[],[],[],0.3714,1,726.7194,727.2025,,,,,,534,MAS,AGR,150,mago,el,l,0.3714,,727.2025,727.2026,0.483072917,-0.088541667,0,0,0,,0,248,248,83,1,,,,
,,,,,,609956bd373ddbf6901fe809,66a626ef09d4e21e1a8894ec,67360fcc85d9661f3c842e74,2024-11-14_16h01.03.082,Tarea de género gramatical,2024.2.2,Win32,30.08061605,,,,,,,,,,,,,,,,,,,,,,,,727.204,728.4213,l,1,[],[],[],[],[],[],[],0.4746,1,728.4214,728.9015,,,,,,811,FEM,CON,150,oferta,,a,0.4746,,728.9028,728.905,0.483072917,-0.088541667,0,0,0,,0,249,249,360,1,,,,
,,,,,,609956bd373ddbf6901fe809,66a626ef09d4e21e1a8894ec,67360fcc85d9661f3c842e74,2024-11-14_16h01.03.082,Tarea de género gramatical,2024.2.2,Win32,30.08061605,,,,,,,,,,,,,,,,,,,,,,,,728.907,730.0997,a,1,[],[],[],[],[],[],[],0.4488,1,730.1,730.5784,,,,,,474,MAS,AGR,150,voto,el,l,0.4488,,730.5785,730.5787,0.483072917,-0.088541667,0,0,0,,0,250,250,23,1,,,,
