counterbalancing_condition,consent_prescreening.block_1/declare_consent,consent_prescreening.block_1/age_years,consent_prescreening.block_1/gender,consent_prescreening.block_1/language_disorder,consent_prescreening.block_1/first_language,PROLIFIC_PID,STUDY_ID,SESSION_ID,date,expName,psychopyVersion,OS,frameRate,check_prescreening_answers.started,check_prescreening_answers.stopped,Instructions.started,Instructions.stopped,instr_done_keyboard.keys,instr_done_keyboard.rt,instr_done_keyboard.duration,instr_done_touch.x,instr_done_touch.y,instr_done_touch.leftButton,instr_done_touch.midButton,instr_done_touch.rightButton,instruction_pages.thisRepN,instruction_pages.thisTrialN,instruction_pages.thisN,instruction_pages.thisIndex,instruction_pages.ran,pageN,phase,instruct_text,has_image,instruct_image,presentTrial.started,presentTrial.stopped,response.keys,response.corr,response.rt,response.duration,touch_resp.x,touch_resp.y,touch_resp.leftButton,touch_resp.midButton,touch_resp.rightButton,touch_resp.time,touch_resp.clicked_name,rt,corr,feedback.started,feedback.stopped,practice_trials.thisRepN,practice_trials.thisTrialN,practice_trials.thisN,practice_trials.thisIndex,practice_trials.ran,TrialID,StimulusType,Condition,PrimeDuration,Prime,Flanker,corrAns,Break.started,Break.stopped,break_done_touch.x,break_done_touch.y,break_done_touch.leftButton,break_done_touch.midButton,break_done_touch.rightButton,break_done_keyboard.keys,experiment_trials.thisRepN,experiment_trials.thisTrialN,experiment_trials.thisN,experiment_trials.thisIndex,experiment_trials.ran,break_done_keyboard.rt,break_done_keyboard.duration,End.started,End.stopped
0,"[""over_18"",""comfortable"",""read_info"",""consent_given""]",18,F,"[""none""]","[""spanish""]",6110f0e3082812c7b2f617e6,66a626ef09d4e21e1a8894ec,6734e29b9dee0d0d382838ae,2024-11-13_18h32.58.513,Tarea de género gramatical,2024.2.2,Win32,58.47953216,,,,,,,,,,,,,,,,,,,,,,,,,,,,,,,,,,,,,,,,,,,,,,,,,,,,,,,,,,,,,,,,,,,,
,,,,,,6110f0e3082812c7b2f617e6,66a626ef09d4e21e1a8894ec,6734e29b9dee0d0d382838ae,2024-11-13_18h32.58.513,Tarea de género gramatical,2024.2.2,Win32,58.47953216,87.6659,87.666,,,,,,,,,,,,,,,,,,,,,,,,,,,,,,,,,,,,,,,,,,,,,,,,,,,,,,,,,,,,,,,,,,
,,,,,,6110f0e3082812c7b2f617e6,66a626ef09d4e21e1a8894ec,6734e29b9dee0d0d382838ae,2024-11-13_18h32.58.513,Tarea de género gramatical,2024.2.2,Win32,58.47953216,,,87.6809,115.3738,space,27.641,,-0.161898117,-0.193518524,0,0,0,0,0,0,0,1,1,instructions,"INSTRUCCIONES
Va a realizar una prueba de selección gramatical. Desde el comienzo de la prueba mire siempre al centro de la pantalla. Al cabo de un momento, aparecerán palabras. La tarea consiste en determinar si la palabra del centro (siempre será un sustantivo), pertenece al género masculino o femenino.

Pulse la tecla ESPACIO o toque el botón de abajo para continuar.",0,keyboardresponseFM.png,,,,,,,,,,,,,,,,,,,,,,,,,,,,,,,,,,,,,,,,,,,,,,
,,,,,,6110f0e3082812c7b2f617e6,66a626ef09d4e21e1a8894ec,6734e29b9dee0d0d382838ae,2024-11-13_18h32.58.513,Tarea de género gramatical,2024.2.2,Win32,58.47953216,,,115.4677,121.3553,space,5.8361,,-0.161898117,-0.193518524,0,0,0,0,1,1,1,1,2,instructions,"Si su dispositivo tiene teclado, pulse la tecla ""A"" para las palabras en femenino (por ejemplo: ""mano"") y la tecla ""L"" para las palabras en masculino(por ejemplo: ""arroz"").
Pulse la tecla ESPACIO o toque el botón de abajo para continuar.",1,keyboardresponseFM.png,,,,,,,,,,,,,,,,,,,,,,,,,,,,,,,,,,,,,,,,,,,,,,
,,,,,,6110f0e3082812c7b2f617e6,66a626ef09d4e21e1a8894ec,6734e29b9dee0d0d382838ae,2024-11-13_18h32.58.513,Tarea de género gramatical,2024.2.2,Win32,58.47953216,,,121.3572,127.9198,space,6.5271,,-0.161898117,-0.193518524,0,0,0,0,2,2,2,1,3,instructions,"Si utiliza un dispositivo sólo táctil, colóquelo en horizontal y utilice los botones de la pantalla. No utilice el ratón.
Pulse la tecla ESPACIO o toque el botón de abajo para continuar.",2,touchresponseFM.png,,,,,,,,,,,,,,,,,,,,,,,,,,,,,,,,,,,,,,,,,,,,,,
,,,,,,6110f0e3082812c7b2f617e6,66a626ef09d4e21e1a8894ec,6734e29b9dee0d0d382838ae,2024-11-13_18h32.58.513,Tarea de género gramatical,2024.2.2,Win32,58.47953216,,,127.922,137.4495,space,9.5087,,-0.161898117,-0.193518524,0,0,0,0,3,3,3,1,4,instructions,"Es muy importante que responda con la mayor rapidez y precisión posibles, ya que cada cadena de letras sólo estará en pantalla durante un instante. Si no responde en ese tiempo, aparecerá el mensaje ""Muy lento"" y el experimento pasará a la siguiente palabra. Los primeros 15 intentos serán de práctica y habrá dos descansos durante la prueba.
Pulse la tecla ESPACIO o toque el botón de abajo para iniciar la parte de práctica.",0,keyboardresponseFM.png,,,,,,,,,,,,,,,,,,,,,,,,,,,,,,,,,,,,,,,,,,,,,,
,,,,,,6110f0e3082812c7b2f617e6,66a626ef09d4e21e1a8894ec,6734e29b9dee0d0d382838ae,2024-11-13_18h32.58.513,Tarea de género gramatical,2024.2.2,Win32,58.47953216,,,,,,,,,,,,,,,,,,,,,,,137.4641,138.8159,l,1,0.688,,[],[],[],[],[],[],[],0.688,1,138.8162,139.3154,0,0,0,13,1,2014,MAS,CON,150,siglo,,l,,,,,,,,,,,,,,,,,
,,,,,,6110f0e3082812c7b2f617e6,66a626ef09d4e21e1a8894ec,6734e29b9dee0d0d382838ae,2024-11-13_18h32.58.513,Tarea de género gramatical,2024.2.2,Win32,58.47953216,,,,,,,,,,,,,,,,,,,,,,,139.317,140.4816,a,1,0.4842,,[],[],[],[],[],[],[],0.4842,1,140.4817,140.9818,0,1,1,4,1,2005,FEM,CON,150,placa,,a,,,,,,,,,,,,,,,,,
,,,,,,6110f0e3082812c7b2f617e6,66a626ef09d4e21e1a8894ec,6734e29b9dee0d0d382838ae,2024-11-13_18h32.58.513,Tarea de género gramatical,2024.2.2,Win32,58.47953216,,,,,,,,,,,,,,,,,,,,,,,140.9835,142.4978,a,0,0.8357,,[],[],[],[],[],[],[],0.8357,0,142.4986,142.9977,0,2,2,8,1,2009,MAS,DIS,150,puerto,la,l,,,,,,,,,,,,,,,,,
,,,,,,6110f0e3082812c7b2f617e6,66a626ef09d4e21e1a8894ec,6734e29b9dee0d0d382838ae,2024-11-13_18h32.58.513,Tarea de género gramatical,2024.2.2,Win32,58.47953216,,,,,,,,,,,,,,,,,,,,,,,142.999,144.8301,l,0,1.1593,,[],[],[],[],[],[],[],1.1593,0,144.8302,145.3299,0,3,3,0,1,2001,FEM,AGR,150,nuca,la,a,,,,,,,,,,,,,,,,,
,,,,,,6110f0e3082812c7b2f617e6,66a626ef09d4e21e1a8894ec,6734e29b9dee0d0d382838ae,2024-11-13_18h32.58.513,Tarea de género gramatical,2024.2.2,Win32,58.47953216,,,,,,,,,,,,,,,,,,,,,,,145.3315,146.5961,a,1,0.595,,[],[],[],[],[],[],[],0.595,1,146.5968,147.0962,0,4,4,6,1,2007,FEM,AGR,150,navaja,la,a,,,,,,,,,,,,,,,,,
,,,,,,6110f0e3082812c7b2f617e6,66a626ef09d4e21e1a8894ec,6734e29b9dee0d0d382838ae,2024-11-13_18h32.58.513,Tarea de género gramatical,2024.2.2,Win32,58.47953216,,,,,,,,,,,,,,,,,,,,,,,147.0972,148.1791,a,1,0.4084,,[],[],[],[],[],[],[],0.4084,1,148.1793,148.6795,0,5,5,1,1,2002,FEM,CON,150,pala,,a,,,,,,,,,,,,,,,,,
,,,,,,6110f0e3082812c7b2f617e6,66a626ef09d4e21e1a8894ec,6734e29b9dee0d0d382838ae,2024-11-13_18h32.58.513,Tarea de género gramatical,2024.2.2,Win32,58.47953216,,,,,,,,,,,,,,,,,,,,,,,148.6808,150.1954,a,1,0.8354,,[],[],[],[],[],[],[],0.8354,1,150.1954,150.6947,0,6,6,2,1,2003,FEM,DIS,150,daga,el,a,,,,,,,,,,,,,,,,,
,,,,,,6110f0e3082812c7b2f617e6,66a626ef09d4e21e1a8894ec,6734e29b9dee0d0d382838ae,2024-11-13_18h32.58.513,Tarea de género gramatical,2024.2.2,Win32,58.47953216,,,,,,,,,,,,,,,,,,,,,,,150.6954,152.011,a,0,0.6404,,[],[],[],[],[],[],[],0.6404,0,152.0118,152.5108,0,7,7,9,1,2010,MAS,AGR,150,vecino,el,l,,,,,,,,,,,,,,,,,
,,,,,,6110f0e3082812c7b2f617e6,66a626ef09d4e21e1a8894ec,6734e29b9dee0d0d382838ae,2024-11-13_18h32.58.513,Tarea de género gramatical,2024.2.2,Win32,58.47953216,,,,,,,,,,,,,,,,,,,,,,,152.5116,155.16,,0,,,[],[],[],[],[],[],[],0.6404,-1,155.1619,155.6598,0,8,8,5,1,2006,FEM,DIS,150,serie,el,a,,,,,,,,,,,,,,,,,
,,,,,,6110f0e3082812c7b2f617e6,66a626ef09d4e21e1a8894ec,6734e29b9dee0d0d382838ae,2024-11-13_18h32.58.513,Tarea de género gramatical,2024.2.2,Win32,58.47953216,,,,,,,,,,,,,,,,,,,,,,,155.6606,156.7259,a,1,0.3914,,[],[],[],[],[],[],[],0.3914,1,156.7266,157.2261,0,9,9,7,1,2008,FEM,CON,150,siesta,,a,,,,,,,,,,,,,,,,,
,,,,,,6110f0e3082812c7b2f617e6,66a626ef09d4e21e1a8894ec,6734e29b9dee0d0d382838ae,2024-11-13_18h32.58.513,Tarea de género gramatical,2024.2.2,Win32,58.47953216,,,,,,,,,,,,,,,,,,,,,,,157.2271,158.5592,l,1,0.6502,,[],[],[],[],[],[],[],0.6502,1,158.5594,159.0586,0,10,10,11,1,2012,MAS,DIS,150,clima,la,l,,,,,,,,,,,,,,,,,
,,,,,,6110f0e3082812c7b2f617e6,66a626ef09d4e21e1a8894ec,6734e29b9dee0d0d382838ae,2024-11-13_18h32.58.513,Tarea de género gramatical,2024.2.2,Win32,58.47953216,,,,,,,,,,,,,,,,,,,,,,,159.0597,160.4253,l,1,0.6871,,[],[],[],[],[],[],[],0.6871,1,160.4254,160.9248,0,11,11,14,1,2015,MAS,DIS,150,robot,la,l,,,,,,,,,,,,,,,,,
,,,,,,6110f0e3082812c7b2f617e6,66a626ef09d4e21e1a8894ec,6734e29b9dee0d0d382838ae,2024-11-13_18h32.58.513,Tarea de género gramatical,2024.2.2,Win32,58.47953216,,,,,,,,,,,,,,,,,,,,,,,160.9258,162.2407,a,1,0.643,,[],[],[],[],[],[],[],0.643,1,162.2408,162.7406,0,12,12,3,1,2004,FEM,AGR,150,venta,la,a,,,,,,,,,,,,,,,,,
,,,,,,6110f0e3082812c7b2f617e6,66a626ef09d4e21e1a8894ec,6734e29b9dee0d0d382838ae,2024-11-13_18h32.58.513,Tarea de género gramatical,2024.2.2,Win32,58.47953216,,,,,,,,,,,,,,,,,,,,,,,162.7413,164.1072,l,1,0.6882,,[],[],[],[],[],[],[],0.6882,1,164.1073,164.607,0,13,13,10,1,2011,MAS,CON,150,canal,,l,,,,,,,,,,,,,,,,,
,,,,,,6110f0e3082812c7b2f617e6,66a626ef09d4e21e1a8894ec,6734e29b9dee0d0d382838ae,2024-11-13_18h32.58.513,Tarea de género gramatical,2024.2.2,Win32,58.47953216,,,,,,,,,,,,,,,,,,,,,,,164.6081,165.8062,l,1,0.519,,[],[],[],[],[],[],[],0.519,1,165.8063,166.306,0,14,14,12,1,2013,MAS,AGR,150,acero,el,l,,,,,,,,,,,,,,,,,
,,,,,,6110f0e3082812c7b2f617e6,66a626ef09d4e21e1a8894ec,6734e29b9dee0d0d382838ae,2024-11-13_18h32.58.513,Tarea de género gramatical,2024.2.2,Win32,58.47953216,,,167.6085,170.0714,space,2.4483,,-0.161898117,-0.193518524,0,0,0,,,,,,,,,,,170.104,171.2718,a,1,0.5007,,[],[],[],[],[],[],[],0.5007,1,171.2719,171.7708,,,,,,109,FEM,AGR,150,gota,la,a,171.7711,171.7741,-0.161898117,-0.193518524,0,0,0,,0,0,0,108,1,,,,
,,,,,,6110f0e3082812c7b2f617e6,66a626ef09d4e21e1a8894ec,6734e29b9dee0d0d382838ae,2024-11-13_18h32.58.513,Tarea de género gramatical,2024.2.2,Win32,58.47953216,,,,,,,,,,,,,,,,,,,,,,,171.7748,172.9704,l,1,0.5249,,[],[],[],[],[],[],[],0.5249,1,172.9705,173.4703,,,,,,258,MAS,DIS,150,polvo,la,l,173.4703,173.4704,-0.161898117,-0.193518524,0,0,0,,0,1,1,257,1,,,,
,,,,,,6110f0e3082812c7b2f617e6,66a626ef09d4e21e1a8894ec,6734e29b9dee0d0d382838ae,2024-11-13_18h32.58.513,Tarea de género gramatical,2024.2.2,Win32,58.47953216,,,,,,,,,,,,,,,,,,,,,,,173.4713,174.5364,a,1,0.3842,,[],[],[],[],[],[],[],0.3842,1,174.5365,175.0365,,,,,,447,FEM,DIS,150,lógica,el,a,175.0378,175.0383,-0.161898117,-0.193518524,0,0,0,,0,2,2,446,1,,,,
,,,,,,6110f0e3082812c7b2f617e6,66a626ef09d4e21e1a8894ec,6734e29b9dee0d0d382838ae,2024-11-13_18h32.58.513,Tarea de género gramatical,2024.2.2,Win32,58.47953216,,,,,,,,,,,,,,,,,,,,,,,175.039,176.153,l,1,0.4444,,[],[],[],[],[],[],[],0.4444,1,176.1531,176.6529,,,,,,426,MAS,DIS,150,pánico,la,l,176.6529,176.653,-0.161898117,-0.193518524,0,0,0,,0,3,3,425,1,,,,
,,,,,,6110f0e3082812c7b2f617e6,66a626ef09d4e21e1a8894ec,6734e29b9dee0d0d382838ae,2024-11-13_18h32.58.513,Tarea de género gramatical,2024.2.2,Win32,58.47953216,,,,,,,,,,,,,,,,,,,,,,,176.654,177.7519,a,1,0.4293,,[],[],[],[],[],[],[],0.4293,1,177.752,178.2521,,,,,,243,FEM,DIS,150,salsa,el,a,178.2522,178.2522,-0.161898117,-0.193518524,0,0,0,,0,4,4,242,1,,,,
,,,,,,6110f0e3082812c7b2f617e6,66a626ef09d4e21e1a8894ec,6734e29b9dee0d0d382838ae,2024-11-13_18h32.58.513,Tarea de género gramatical,2024.2.2,Win32,58.47953216,,,,,,,,,,,,,,,,,,,,,,,178.253,179.4515,l,1,0.5261,,[],[],[],[],[],[],[],0.5261,1,179.4517,179.9513,,,,,,125,MAS,CON,150,bate,,l,179.9515,179.9515,-0.161898117,-0.193518524,0,0,0,,0,5,5,124,1,,,,
,,,,,,6110f0e3082812c7b2f617e6,66a626ef09d4e21e1a8894ec,6734e29b9dee0d0d382838ae,2024-11-13_18h32.58.513,Tarea de género gramatical,2024.2.2,Win32,58.47953216,,,,,,,,,,,,,,,,,,,,,,,179.9525,180.985,a,1,0.3554,,[],[],[],[],[],[],[],0.3554,1,180.985,181.4843,,,,,,218,FEM,CON,150,nieve,,a,181.4859,181.4864,-0.161898117,-0.193518524,0,0,0,,0,6,6,217,1,,,,
,,,,,,6110f0e3082812c7b2f617e6,66a626ef09d4e21e1a8894ec,6734e29b9dee0d0d382838ae,2024-11-13_18h32.58.513,Tarea de género gramatical,2024.2.2,Win32,58.47953216,,,,,,,,,,,,,,,,,,,,,,,181.4872,182.5837,a,1,0.4164,,[],[],[],[],[],[],[],0.4164,1,182.5839,183.0835,,,,,,151,FEM,AGR,150,noche,la,a,183.0836,183.0837,-0.161898117,-0.193518524,0,0,0,,0,7,7,150,1,,,,
,,,,,,6110f0e3082812c7b2f617e6,66a626ef09d4e21e1a8894ec,6734e29b9dee0d0d382838ae,2024-11-13_18h32.58.513,Tarea de género gramatical,2024.2.2,Win32,58.47953216,,,,,,,,,,,,,,,,,,,,,,,183.0845,184.3333,l,1,0.5704,,[],[],[],[],[],[],[],0.5704,1,184.3333,184.833,,,,,,17,MAS,CON,150,modo,,l,184.8331,184.8332,-0.161898117,-0.193518524,0,0,0,,0,8,8,16,1,,,,
,,,,,,6110f0e3082812c7b2f617e6,66a626ef09d4e21e1a8894ec,6734e29b9dee0d0d382838ae,2024-11-13_18h32.58.513,Tarea de género gramatical,2024.2.2,Win32,58.47953216,,,,,,,,,,,,,,,,,,,,,,,184.834,185.9328,l,1,0.419,,[],[],[],[],[],[],[],0.419,1,185.933,186.4327,,,,,,112,MAS,AGR,150,reto,el,l,186.4327,186.4328,-0.161898117,-0.193518524,0,0,0,,0,9,9,111,1,,,,
,,,,,,6110f0e3082812c7b2f617e6,66a626ef09d4e21e1a8894ec,6734e29b9dee0d0d382838ae,2024-11-13_18h32.58.513,Tarea de género gramatical,2024.2.2,Win32,58.47953216,,,,,,,,,,,,,,,,,,,,,,,186.4338,187.7657,l,1,0.6569,,[],[],[],[],[],[],[],0.6569,1,187.7658,188.2654,,,,,,18,MAS,DIS,150,tren,la,l,188.2654,188.2655,-0.161898117,-0.193518524,0,0,0,,0,10,10,17,1,,,,
,,,,,,6110f0e3082812c7b2f617e6,66a626ef09d4e21e1a8894ec,6734e29b9dee0d0d382838ae,2024-11-13_18h32.58.513,Tarea de género gramatical,2024.2.2,Win32,58.47953216,,,,,,,,,,,,,,,,,,,,,,,188.2665,189.3651,a,1,0.4252,,[],[],[],[],[],[],[],0.4252,1,189.3653,189.8648,,,,,,344,FEM,CON,150,pareja,,a,189.8663,189.8667,-0.161898117,-0.193518524,0,0,0,,0,11,11,343,1,,,,
,,,,,,6110f0e3082812c7b2f617e6,66a626ef09d4e21e1a8894ec,6734e29b9dee0d0d382838ae,2024-11-13_18h32.58.513,Tarea de género gramatical,2024.2.2,Win32,58.47953216,,,,,,,,,,,,,,,,,,,,,,,189.8672,190.9141,a,1,0.3661,,[],[],[],[],[],[],[],0.3661,1,190.9142,191.4142,,,,,,69,FEM,DIS,150,rata,el,a,191.4144,191.4144,-0.161898117,-0.193518524,0,0,0,,0,12,12,68,1,,,,
,,,,,,6110f0e3082812c7b2f617e6,66a626ef09d4e21e1a8894ec,6734e29b9dee0d0d382838ae,2024-11-13_18h32.58.513,Tarea de género gramatical,2024.2.2,Win32,58.47953216,,,,,,,,,,,,,,,,,,,,,,,191.4163,192.4302,a,1,0.3473,,[],[],[],[],[],[],[],0.3473,1,192.4303,192.9301,,,,,,92,FEM,CON,150,masa,,a,192.9301,192.9302,-0.161898117,-0.193518524,0,0,0,,0,13,13,91,1,,,,
,,,,,,6110f0e3082812c7b2f617e6,66a626ef09d4e21e1a8894ec,6734e29b9dee0d0d382838ae,2024-11-13_18h32.58.513,Tarea de género gramatical,2024.2.2,Win32,58.47953216,,,,,,,,,,,,,,,,,,,,,,,192.9312,194.03,l,1,0.4237,,[],[],[],[],[],[],[],0.4237,1,194.0301,194.53,,,,,,178,MAS,AGR,150,punto,el,l,194.5302,194.5302,-0.161898117,-0.193518524,0,0,0,,0,14,14,177,1,,,,
,,,,,,6110f0e3082812c7b2f617e6,66a626ef09d4e21e1a8894ec,6734e29b9dee0d0d382838ae,2024-11-13_18h32.58.513,Tarea de género gramatical,2024.2.2,Win32,58.47953216,,,,,,,,,,,,,,,,,,,,,,,194.5318,195.629,a,1,0.4291,,[],[],[],[],[],[],[],0.4291,1,195.6291,196.129,,,,,,361,FEM,AGR,150,oferta,la,a,196.1303,196.131,-0.161898117,-0.193518524,0,0,0,,0,15,15,360,1,,,,
,,,,,,6110f0e3082812c7b2f617e6,66a626ef09d4e21e1a8894ec,6734e29b9dee0d0d382838ae,2024-11-13_18h32.58.513,Tarea de género gramatical,2024.2.2,Win32,58.47953216,,,,,,,,,,,,,,,,,,,,,,,196.1317,197.3451,a,1,0.5428,,[],[],[],[],[],[],[],0.5428,1,197.3452,197.8451,,,,,,327,FEM,DIS,150,tienda,el,a,197.8452,197.8452,-0.161898117,-0.193518524,0,0,0,,0,16,16,326,1,,,,
,,,,,,6110f0e3082812c7b2f617e6,66a626ef09d4e21e1a8894ec,6734e29b9dee0d0d382838ae,2024-11-13_18h32.58.513,Tarea de género gramatical,2024.2.2,Win32,58.47953216,,,,,,,,,,,,,,,,,,,,,,,197.8462,198.9447,a,1,0.4157,,[],[],[],[],[],[],[],0.4157,1,198.9448,199.4445,,,,,,308,FEM,CON,150,semana,,a,199.4445,199.4446,-0.161898117,-0.193518524,0,0,0,,0,17,17,307,1,,,,
,,,,,,6110f0e3082812c7b2f617e6,66a626ef09d4e21e1a8894ec,6734e29b9dee0d0d382838ae,2024-11-13_18h32.58.513,Tarea de género gramatical,2024.2.2,Win32,58.47953216,,,,,,,,,,,,,,,,,,,,,,,199.4454,200.4109,a,1,0.2838,,[],[],[],[],[],[],[],0.2838,1,200.411,200.9107,,,,,,332,FEM,CON,150,basura,,a,200.9108,200.911,-0.161898117,-0.193518524,0,0,0,,0,18,18,331,1,,,,
,,,,,,6110f0e3082812c7b2f617e6,66a626ef09d4e21e1a8894ec,6734e29b9dee0d0d382838ae,2024-11-13_18h32.58.513,Tarea de género gramatical,2024.2.2,Win32,58.47953216,,,,,,,,,,,,,,,,,,,,,,,200.9119,201.927,a,1,0.3412,,[],[],[],[],[],[],[],0.3412,1,201.927,202.4267,,,,,,284,FEM,CON,150,fruta,,a,202.4267,202.4267,-0.161898117,-0.193518524,0,0,0,,0,19,19,283,1,,,,
,,,,,,6110f0e3082812c7b2f617e6,66a626ef09d4e21e1a8894ec,6734e29b9dee0d0d382838ae,2024-11-13_18h32.58.513,Tarea de género gramatical,2024.2.2,Win32,58.47953216,,,,,,,,,,,,,,,,,,,,,,,202.4275,203.643,a,1,0.5399,,[],[],[],[],[],[],[],0.5399,1,203.6432,204.1428,,,,,,285,FEM,DIS,150,mafia,el,a,204.1439,204.1444,-0.161898117,-0.193518524,0,0,0,,0,20,20,284,1,,,,
,,,,,,6110f0e3082812c7b2f617e6,66a626ef09d4e21e1a8894ec,6734e29b9dee0d0d382838ae,2024-11-13_18h32.58.513,Tarea de género gramatical,2024.2.2,Win32,58.47953216,,,,,,,,,,,,,,,,,,,,,,,204.1449,205.2427,l,1,0.4229,,[],[],[],[],[],[],[],0.4229,1,205.2428,205.7425,,,,,,70,MAS,AGR,150,palo,el,l,205.7426,205.7426,-0.161898117,-0.193518524,0,0,0,,0,21,21,69,1,,,,
,,,,,,6110f0e3082812c7b2f617e6,66a626ef09d4e21e1a8894ec,6734e29b9dee0d0d382838ae,2024-11-13_18h32.58.513,Tarea de género gramatical,2024.2.2,Win32,58.47953216,,,,,,,,,,,,,,,,,,,,,,,205.7434,207.2586,a,1,0.839,,[],[],[],[],[],[],[],0.839,1,207.2587,207.7583,,,,,,9,FEM,DIS,150,mamá,el,a,207.7583,207.7584,-0.161898117,-0.193518524,0,0,0,,0,22,22,8,1,,,,
,,,,,,6110f0e3082812c7b2f617e6,66a626ef09d4e21e1a8894ec,6734e29b9dee0d0d382838ae,2024-11-13_18h32.58.513,Tarea de género gramatical,2024.2.2,Win32,58.47953216,,,,,,,,,,,,,,,,,,,,,,,207.7593,209.1245,l,1,0.6957,,[],[],[],[],[],[],[],0.6957,1,209.1245,209.6246,,,,,,47,MAS,CON,150,olor,,l,209.6246,209.6247,-0.161898117,-0.193518524,0,0,0,,0,23,23,46,1,,,,
,,,,,,6110f0e3082812c7b2f617e6,66a626ef09d4e21e1a8894ec,6734e29b9dee0d0d382838ae,2024-11-13_18h32.58.513,Tarea de género gramatical,2024.2.2,Win32,58.47953216,,,,,,,,,,,,,,,,,,,,,,,209.6255,210.724,a,1,0.4258,,[],[],[],[],[],[],[],0.4258,1,210.724,211.2239,,,,,,266,FEM,CON,150,jaula,,a,211.2252,211.226,-0.161898117,-0.193518524,0,0,0,,0,24,24,265,1,,,,
,,,,,,6110f0e3082812c7b2f617e6,66a626ef09d4e21e1a8894ec,6734e29b9dee0d0d382838ae,2024-11-13_18h32.58.513,Tarea de género gramatical,2024.2.2,Win32,58.47953216,,,,,,,,,,,,,,,,,,,,,,,211.2269,212.39,l,1,0.4869,,[],[],[],[],[],[],[],0.4869,1,212.39,212.8899,,,,,,11,MAS,CON,150,país,,l,212.8899,212.8901,-0.161898117,-0.193518524,0,0,0,,0,25,25,10,1,,,,
,,,,,,6110f0e3082812c7b2f617e6,66a626ef09d4e21e1a8894ec,6734e29b9dee0d0d382838ae,2024-11-13_18h32.58.513,Tarea de género gramatical,2024.2.2,Win32,58.47953216,,,,,,,,,,,,,,,,,,,,,,,212.891,214.1233,a,1,0.5513,,[],[],[],[],[],[],[],0.5513,1,214.1235,214.6226,,,,,,105,FEM,DIS,150,jefa,el,a,214.6226,214.6227,-0.161898117,-0.193518524,0,0,0,,0,26,26,104,1,,,,
,,,,,,6110f0e3082812c7b2f617e6,66a626ef09d4e21e1a8894ec,6734e29b9dee0d0d382838ae,2024-11-13_18h32.58.513,Tarea de género gramatical,2024.2.2,Win32,58.47953216,,,,,,,,,,,,,,,,,,,,,,,214.6235,215.9391,a,1,0.6448,,[],[],[],[],[],[],[],0.6448,1,215.9392,216.4386,,,,,,115,FEM,AGR,150,seda,la,a,216.4387,216.4387,-0.161898117,-0.193518524,0,0,0,,0,27,27,114,1,,,,
,,,,,,6110f0e3082812c7b2f617e6,66a626ef09d4e21e1a8894ec,6734e29b9dee0d0d382838ae,2024-11-13_18h32.58.513,Tarea de género gramatical,2024.2.2,Win32,58.47953216,,,,,,,,,,,,,,,,,,,,,,,216.4398,217.555,l,1,0.4363,,[],[],[],[],[],[],[],0.4363,1,217.555,218.055,,,,,,107,MAS,CON,150,cubo,,l,218.0551,218.0552,-0.161898117,-0.193518524,0,0,0,,0,28,28,106,1,,,,
,,,,,,6110f0e3082812c7b2f617e6,66a626ef09d4e21e1a8894ec,6734e29b9dee0d0d382838ae,2024-11-13_18h32.58.513,Tarea de género gramatical,2024.2.2,Win32,58.47953216,,,,,,,,,,,,,,,,,,,,,,,218.0557,219.0545,a,1,0.3162,,[],[],[],[],[],[],[],0.3162,1,219.0546,219.5543,,,,,,248,FEM,CON,150,letra,,a,219.5559,219.5563,-0.161898117,-0.193518524,0,0,0,,0,29,29,247,1,,,,
,,,,,,6110f0e3082812c7b2f617e6,66a626ef09d4e21e1a8894ec,6734e29b9dee0d0d382838ae,2024-11-13_18h32.58.513,Tarea de género gramatical,2024.2.2,Win32,58.47953216,,,,,,,,,,,,,,,,,,,,,,,219.5568,220.604,l,1,0.3734,,[],[],[],[],[],[],[],0.3734,1,220.6041,221.1039,,,,,,262,MAS,AGR,150,video,el,l,221.104,221.1041,-0.161898117,-0.193518524,0,0,0,,0,30,30,261,1,,,,
,,,,,,6110f0e3082812c7b2f617e6,66a626ef09d4e21e1a8894ec,6734e29b9dee0d0d382838ae,2024-11-13_18h32.58.513,Tarea de género gramatical,2024.2.2,Win32,58.47953216,,,,,,,,,,,,,,,,,,,,,,,221.1049,222.1535,a,1,0.3762,,[],[],[],[],[],[],[],0.3762,1,222.1536,222.6535,,,,,,445,FEM,AGR,150,bondad,la,a,222.6535,222.6537,-0.161898117,-0.193518524,0,0,0,,0,31,31,444,1,,,,
,,,,,,6110f0e3082812c7b2f617e6,66a626ef09d4e21e1a8894ec,6734e29b9dee0d0d382838ae,2024-11-13_18h32.58.513,Tarea de género gramatical,2024.2.2,Win32,58.47953216,,,,,,,,,,,,,,,,,,,,,,,222.6546,223.7361,l,1,0.4087,,[],[],[],[],[],[],[],0.4087,1,223.7361,224.236,,,,,,360,MAS,DIS,150,puente,la,l,224.236,224.2361,-0.161898117,-0.193518524,0,0,0,,0,32,32,359,1,,,,
,,,,,,6110f0e3082812c7b2f617e6,66a626ef09d4e21e1a8894ec,6734e29b9dee0d0d382838ae,2024-11-13_18h32.58.513,Tarea de género gramatical,2024.2.2,Win32,58.47953216,,,,,,,,,,,,,,,,,,,,,,,224.237,225.3524,l,1,0.4348,,[],[],[],[],[],[],[],0.4348,1,225.3525,225.8521,,,,,,227,MAS,CON,150,vuelo,,l,225.8535,225.854,-0.161898117,-0.193518524,0,0,0,,0,33,33,226,1,,,,
,,,,,,6110f0e3082812c7b2f617e6,66a626ef09d4e21e1a8894ec,6734e29b9dee0d0d382838ae,2024-11-13_18h32.58.513,Tarea de género gramatical,2024.2.2,Win32,58.47953216,,,,,,,,,,,,,,,,,,,,,,,225.8547,226.8686,a,1,0.3433,,[],[],[],[],[],[],[],0.3433,1,226.8687,227.3686,,,,,,86,FEM,CON,150,cruz,,a,227.3686,227.3687,-0.161898117,-0.193518524,0,0,0,,0,34,34,85,1,,,,
,,,,,,6110f0e3082812c7b2f617e6,66a626ef09d4e21e1a8894ec,6734e29b9dee0d0d382838ae,2024-11-13_18h32.58.513,Tarea de género gramatical,2024.2.2,Win32,58.47953216,,,,,,,,,,,,,,,,,,,,,,,227.37,228.4345,l,1,0.3957,,[],[],[],[],[],[],[],0.3957,1,228.4346,228.9343,,,,,,449,MAS,CON,150,payaso,,l,228.9344,228.9345,-0.161898117,-0.193518524,0,0,0,,0,35,35,448,1,,,,
,,,,,,6110f0e3082812c7b2f617e6,66a626ef09d4e21e1a8894ec,6734e29b9dee0d0d382838ae,2024-11-13_18h32.58.513,Tarea de género gramatical,2024.2.2,Win32,58.47953216,,,,,,,,,,,,,,,,,,,,,,,228.9359,230.034,a,1,0.4228,,[],[],[],[],[],[],[],0.4228,1,230.0341,230.534,,,,,,338,FEM,CON,150,abuela,,a,230.5341,230.5342,-0.161898117,-0.193518524,0,0,0,,0,36,36,337,1,,,,
,,,,,,6110f0e3082812c7b2f617e6,66a626ef09d4e21e1a8894ec,6734e29b9dee0d0d382838ae,2024-11-13_18h32.58.513,Tarea de género gramatical,2024.2.2,Win32,58.47953216,,,,,,,,,,,,,,,,,,,,,,,230.5351,231.5499,l,1,0.3386,,[],[],[],[],[],[],[],0.3386,1,231.55,232.0499,,,,,,155,MAS,CON,150,mundo,,l,232.05,232.05,-0.161898117,-0.193518524,0,0,0,,0,37,37,154,1,,,,
,,,,,,6110f0e3082812c7b2f617e6,66a626ef09d4e21e1a8894ec,6734e29b9dee0d0d382838ae,2024-11-13_18h32.58.513,Tarea de género gramatical,2024.2.2,Win32,58.47953216,,,,,,,,,,,,,,,,,,,,,,,232.051,233.1161,a,1,0.383,,[],[],[],[],[],[],[],0.383,1,233.1161,233.616,,,,,,313,FEM,AGR,150,ciudad,la,a,233.6171,233.6176,-0.161898117,-0.193518524,0,0,0,,0,38,38,312,1,,,,
,,,,,,6110f0e3082812c7b2f617e6,66a626ef09d4e21e1a8894ec,6734e29b9dee0d0d382838ae,2024-11-13_18h32.58.513,Tarea de género gramatical,2024.2.2,Win32,58.47953216,,,,,,,,,,,,,,,,,,,,,,,233.6181,234.8155,a,1,0.5199,,[],[],[],[],[],[],[],0.5199,1,234.8156,235.3154,,,,,,415,FEM,AGR,150,cabina,la,a,235.3154,235.3154,-0.161898117,-0.193518524,0,0,0,,0,39,39,414,1,,,,
,,,,,,6110f0e3082812c7b2f617e6,66a626ef09d4e21e1a8894ec,6734e29b9dee0d0d382838ae,2024-11-13_18h32.58.513,Tarea de género gramatical,2024.2.2,Win32,58.47953216,,,,,,,,,,,,,,,,,,,,,,,235.3161,236.415,l,1,0.4279,,[],[],[],[],[],[],[],0.4279,1,236.4151,236.9148,,,,,,22,MAS,AGR,150,pelo,el,l,236.9149,236.915,-0.161898117,-0.193518524,0,0,0,,0,40,40,21,1,,,,
,,,,,,6110f0e3082812c7b2f617e6,66a626ef09d4e21e1a8894ec,6734e29b9dee0d0d382838ae,2024-11-13_18h32.58.513,Tarea de género gramatical,2024.2.2,Win32,58.47953216,,,,,,,,,,,,,,,,,,,,,,,236.9159,237.9478,a,1,0.3517,,[],[],[],[],[],[],[],0.3517,1,237.9479,238.4478,,,,,,13,FEM,AGR,150,hija,la,a,238.4478,238.4479,-0.161898117,-0.193518524,0,0,0,,0,41,41,12,1,,,,
,,,,,,6110f0e3082812c7b2f617e6,66a626ef09d4e21e1a8894ec,6734e29b9dee0d0d382838ae,2024-11-13_18h32.58.513,Tarea de género gramatical,2024.2.2,Win32,58.47953216,,,,,,,,,,,,,,,,,,,,,,,238.4489,239.5809,l,1,0.4503,,[],[],[],[],[],[],[],0.4503,1,239.581,240.0805,,,,,,280,MAS,AGR,150,salón,el,l,240.0815,240.0821,-0.161898117,-0.193518524,0,0,0,,0,42,42,279,1,,,,
,,,,,,6110f0e3082812c7b2f617e6,66a626ef09d4e21e1a8894ec,6734e29b9dee0d0d382838ae,2024-11-13_18h32.58.513,Tarea de género gramatical,2024.2.2,Win32,58.47953216,,,,,,,,,,,,,,,,,,,,,,,240.0827,241.2966,l,1,0.5354,,[],[],[],[],[],[],[],0.5354,1,241.2967,241.7966,,,,,,24,MAS,DIS,150,voto,la,l,241.7967,241.7968,-0.161898117,-0.193518524,0,0,0,,0,43,43,23,1,,,,
,,,,,,6110f0e3082812c7b2f617e6,66a626ef09d4e21e1a8894ec,6734e29b9dee0d0d382838ae,2024-11-13_18h32.58.513,Tarea de género gramatical,2024.2.2,Win32,58.47953216,,,,,,,,,,,,,,,,,,,,,,,241.7977,242.9631,l,1,0.4929,,[],[],[],[],[],[],[],0.4929,1,242.9632,243.4633,,,,,,282,MAS,DIS,150,bolso,la,l,243.4633,243.4634,-0.161898117,-0.193518524,0,0,0,,0,44,44,281,1,,,,
,,,,,,6110f0e3082812c7b2f617e6,66a626ef09d4e21e1a8894ec,6734e29b9dee0d0d382838ae,2024-11-13_18h32.58.513,Tarea de género gramatical,2024.2.2,Win32,58.47953216,,,,,,,,,,,,,,,,,,,,,,,243.4644,244.6122,l,1,0.4593,,[],[],[],[],[],[],[],0.4593,1,244.6123,245.1122,,,,,,419,MAS,CON,150,cuento,,l,245.1123,245.1125,-0.161898117,-0.193518524,0,0,0,,0,45,45,418,1,,,,
,,,,,,6110f0e3082812c7b2f617e6,66a626ef09d4e21e1a8894ec,6734e29b9dee0d0d382838ae,2024-11-13_18h32.58.513,Tarea de género gramatical,2024.2.2,Win32,58.47953216,,,,,,,,,,,,,,,,,,,,,,,245.1134,246.3285,l,1,0.5339,,[],[],[],[],[],[],[],0.5339,1,246.3285,246.8287,,,,,,384,MAS,DIS,150,pedazo,la,l,246.8287,246.8289,-0.161898117,-0.193518524,0,0,0,,0,46,46,383,1,,,,
,,,,,,6110f0e3082812c7b2f617e6,66a626ef09d4e21e1a8894ec,6734e29b9dee0d0d382838ae,2024-11-13_18h32.58.513,Tarea de género gramatical,2024.2.2,Win32,58.47953216,,,,,,,,,,,,,,,,,,,,,,,246.8299,248.1609,a,1,0.6608,,[],[],[],[],[],[],[],0.6608,1,248.161,248.6608,,,,,,38,FEM,CON,150,obra,,a,248.6616,248.6622,-0.161898117,-0.193518524,0,0,0,,0,47,47,37,1,,,,
,,,,,,6110f0e3082812c7b2f617e6,66a626ef09d4e21e1a8894ec,6734e29b9dee0d0d382838ae,2024-11-13_18h32.58.513,Tarea de género gramatical,2024.2.2,Win32,58.47953216,,,,,,,,,,,,,,,,,,,,,,,248.6631,249.6771,l,1,0.3323,,[],[],[],[],[],[],[],0.3323,1,249.6773,250.1771,,,,,,58,MAS,AGR,150,mono,el,l,250.1772,250.1773,-0.161898117,-0.193518524,0,0,0,,0,48,48,57,1,,,,
,,,,,,6110f0e3082812c7b2f617e6,66a626ef09d4e21e1a8894ec,6734e29b9dee0d0d382838ae,2024-11-13_18h32.58.513,Tarea de género gramatical,2024.2.2,Win32,58.47953216,,,,,,,,,,,,,,,,,,,,,,,250.1782,251.2602,a,1,0.4039,,[],[],[],[],[],[],[],0.4039,1,251.2603,251.7597,,,,,,259,FEM,AGR,150,prima,la,a,251.7597,251.7598,-0.161898117,-0.193518524,0,0,0,,0,49,49,258,1,,,,
,,,,,,6110f0e3082812c7b2f617e6,66a626ef09d4e21e1a8894ec,6734e29b9dee0d0d382838ae,2024-11-13_18h32.58.513,Tarea de género gramatical,2024.2.2,Win32,58.47953216,,,,,,,,,,,,,,,,,,,,,,,251.7604,253.4092,a,1,0.9789,,[],[],[],[],[],[],[],0.9789,1,253.4094,253.9093,,,,,,363,FEM,DIS,150,unidad,el,a,253.9094,253.9096,-0.161898117,-0.193518524,0,0,0,,0,50,50,362,1,,,,
,,,,,,6110f0e3082812c7b2f617e6,66a626ef09d4e21e1a8894ec,6734e29b9dee0d0d382838ae,2024-11-13_18h32.58.513,Tarea de género gramatical,2024.2.2,Win32,58.47953216,,,,,,,,,,,,,,,,,,,,,,,253.9106,254.9586,l,1,0.3742,,[],[],[],[],[],[],[],0.3742,1,254.9587,255.4585,,,,,,192,MAS,DIS,150,grupo,la,l,255.4597,255.4604,-0.161898117,-0.193518524,0,0,0,,0,51,51,191,1,,,,
,,,,,,6110f0e3082812c7b2f617e6,66a626ef09d4e21e1a8894ec,6734e29b9dee0d0d382838ae,2024-11-13_18h32.58.513,Tarea de género gramatical,2024.2.2,Win32,58.47953216,,,,,,,,,,,,,,,,,,,,,,,255.4609,256.5417,l,1,0.405,,[],[],[],[],[],[],[],0.405,1,256.5417,257.0413,,,,,,312,MAS,DIS,150,equipo,la,l,257.0413,257.0414,-0.161898117,-0.193518524,0,0,0,,0,52,52,311,1,,,,
,,,,,,6110f0e3082812c7b2f617e6,66a626ef09d4e21e1a8894ec,6734e29b9dee0d0d382838ae,2024-11-13_18h32.58.513,Tarea de género gramatical,2024.2.2,Win32,58.47953216,,,,,,,,,,,,,,,,,,,,,,,257.042,258.0577,l,1,0.3428,,[],[],[],[],[],[],[],0.3428,1,258.0577,258.5575,,,,,,430,MAS,AGR,150,título,el,l,258.5576,258.5576,-0.161898117,-0.193518524,0,0,0,,0,53,53,429,1,,,,
,,,,,,6110f0e3082812c7b2f617e6,66a626ef09d4e21e1a8894ec,6734e29b9dee0d0d382838ae,2024-11-13_18h32.58.513,Tarea de género gramatical,2024.2.2,Win32,58.47953216,,,,,,,,,,,,,,,,,,,,,,,258.5585,259.6075,l,1,0.3669,,[],[],[],[],[],[],[],0.3669,1,259.6076,260.1068,,,,,,438,MAS,DIS,150,tanque,la,l,260.1068,260.1069,-0.161898117,-0.193518524,0,0,0,,0,54,54,437,1,,,,
,,,,,,6110f0e3082812c7b2f617e6,66a626ef09d4e21e1a8894ec,6734e29b9dee0d0d382838ae,2024-11-13_18h32.58.513,Tarea de género gramatical,2024.2.2,Win32,58.47953216,,,,,,,,,,,,,,,,,,,,,,,260.1076,261.1233,a,1,0.3595,,[],[],[],[],[],[],[],0.3595,1,261.1233,261.6231,,,,,,421,FEM,AGR,150,novela,la,a,261.6231,261.6232,-0.161898117,-0.193518524,0,0,0,,0,55,55,420,1,,,,
,,,,,,6110f0e3082812c7b2f617e6,66a626ef09d4e21e1a8894ec,6734e29b9dee0d0d382838ae,2024-11-13_18h32.58.513,Tarea de género gramatical,2024.2.2,Win32,58.47953216,,,,,,,,,,,,,,,,,,,,,,,261.6242,262.8395,a,1,0.5338,,[],[],[],[],[],[],[],0.5338,1,262.8395,263.3391,,,,,,195,FEM,DIS,150,pared,el,a,263.34,263.3405,-0.161898117,-0.193518524,0,0,0,,0,56,56,194,1,,,,
,,,,,,6110f0e3082812c7b2f617e6,66a626ef09d4e21e1a8894ec,6734e29b9dee0d0d382838ae,2024-11-13_18h32.58.513,Tarea de género gramatical,2024.2.2,Win32,58.47953216,,,,,,,,,,,,,,,,,,,,,,,263.341,264.4221,l,1,0.4005,,[],[],[],[],[],[],[],0.4005,1,264.4222,264.922,,,,,,264,MAS,DIS,150,pollo,la,l,264.9221,264.9221,-0.161898117,-0.193518524,0,0,0,,0,57,57,263,1,,,,
,,,,,,6110f0e3082812c7b2f617e6,66a626ef09d4e21e1a8894ec,6734e29b9dee0d0d382838ae,2024-11-13_18h32.58.513,Tarea de género gramatical,2024.2.2,Win32,58.47953216,,,,,,,,,,,,,,,,,,,,,,,264.9229,265.9719,a,1,0.3679,,[],[],[],[],[],[],[],0.3679,1,265.972,266.4714,,,,,,139,FEM,AGR,150,pipa,la,a,266.4715,266.4716,-0.161898117,-0.193518524,0,0,0,,0,58,58,138,1,,,,
,,,,,,6110f0e3082812c7b2f617e6,66a626ef09d4e21e1a8894ec,6734e29b9dee0d0d382838ae,2024-11-13_18h32.58.513,Tarea de género gramatical,2024.2.2,Win32,58.47953216,,,,,,,,,,,,,,,,,,,,,,,266.4727,267.5544,a,1,0.4067,,[],[],[],[],[],[],[],0.4067,1,267.5544,268.0545,,,,,,241,FEM,AGR,150,pasta,la,a,268.0546,268.0547,-0.161898117,-0.193518524,0,0,0,,0,59,59,240,1,,,,
,,,,,,6110f0e3082812c7b2f617e6,66a626ef09d4e21e1a8894ec,6734e29b9dee0d0d382838ae,2024-11-13_18h32.58.513,Tarea de género gramatical,2024.2.2,Win32,58.47953216,,,,,,,,,,,,,,,,,,,,,,,268.056,269.4538,a,1,0.7246,,[],[],[],[],[],[],[],0.7246,1,269.454,269.9539,,,,,,171,FEM,DIS,150,mitad,el,a,269.9551,269.9555,-0.161898117,-0.193518524,0,0,0,,0,60,60,170,1,,,,
,,,,,,6110f0e3082812c7b2f617e6,66a626ef09d4e21e1a8894ec,6734e29b9dee0d0d382838ae,2024-11-13_18h32.58.513,Tarea de género gramatical,2024.2.2,Win32,58.47953216,,,,,,,,,,,,,,,,,,,,,,,269.9562,271.0198,l,1,0.3888,,[],[],[],[],[],[],[],0.3888,1,271.0199,271.5196,,,,,,208,MAS,AGR,150,suelo,el,l,271.5197,271.5198,-0.161898117,-0.193518524,0,0,0,,0,61,61,207,1,,,,
,,,,,,6110f0e3082812c7b2f617e6,66a626ef09d4e21e1a8894ec,6734e29b9dee0d0d382838ae,2024-11-13_18h32.58.513,Tarea de género gramatical,2024.2.2,Win32,58.47953216,,,,,,,,,,,,,,,,,,,,,,,271.5208,272.8026,l,0,0.602,,[],[],[],[],[],[],[],0.602,0,272.8034,273.3024,,,,,,97,FEM,AGR,150,capa,la,a,273.3024,273.3024,-0.161898117,-0.193518524,0,0,0,,0,62,62,96,1,,,,
,,,,,,6110f0e3082812c7b2f617e6,66a626ef09d4e21e1a8894ec,6734e29b9dee0d0d382838ae,2024-11-13_18h32.58.513,Tarea de género gramatical,2024.2.2,Win32,58.47953216,,,,,,,,,,,,,,,,,,,,,,,273.3031,274.7352,a,1,0.7508,,[],[],[],[],[],[],[],0.7508,1,274.7358,275.235,,,,,,219,FEM,DIS,150,costa,el,a,275.2352,275.2352,-0.161898117,-0.193518524,0,0,0,,0,63,63,218,1,,,,
,,,,,,6110f0e3082812c7b2f617e6,66a626ef09d4e21e1a8894ec,6734e29b9dee0d0d382838ae,2024-11-13_18h32.58.513,Tarea de género gramatical,2024.2.2,Win32,58.47953216,,,,,,,,,,,,,,,,,,,,,,,275.2362,276.3347,l,1,0.4164,,[],[],[],[],[],[],[],0.4164,1,276.3348,276.8345,,,,,,29,MAS,CON,150,frío,,l,276.8345,276.8345,-0.161898117,-0.193518524,0,0,0,,0,64,64,28,1,,,,
,,,,,,6110f0e3082812c7b2f617e6,66a626ef09d4e21e1a8894ec,6734e29b9dee0d0d382838ae,2024-11-13_18h32.58.513,Tarea de género gramatical,2024.2.2,Win32,58.47953216,,,,,,,,,,,,,,,,,,,,,,,276.8352,278.1346,l,1,0.6228,,[],[],[],[],[],[],[],0.6228,1,278.1346,278.6343,,,,,,378,MAS,DIS,150,pastel,la,l,278.6355,278.636,-0.161898117,-0.193518524,0,0,0,,0,65,65,377,1,,,,
,,,,,,6110f0e3082812c7b2f617e6,66a626ef09d4e21e1a8894ec,6734e29b9dee0d0d382838ae,2024-11-13_18h32.58.513,Tarea de género gramatical,2024.2.2,Win32,58.47953216,,,,,,,,,,,,,,,,,,,,,,,278.6365,279.8002,a,1,0.4828,,[],[],[],[],[],[],[],0.4828,1,279.8003,280.3001,,,,,,399,FEM,DIS,150,charla,el,a,280.3001,280.3002,-0.161898117,-0.193518524,0,0,0,,0,66,66,398,1,,,,
,,,,,,6110f0e3082812c7b2f617e6,66a626ef09d4e21e1a8894ec,6734e29b9dee0d0d382838ae,2024-11-13_18h32.58.513,Tarea de género gramatical,2024.2.2,Win32,58.47953216,,,,,,,,,,,,,,,,,,,,,,,280.3011,281.4829,a,1,0.5071,,[],[],[],[],[],[],[],0.5071,1,281.483,281.983,,,,,,127,FEM,AGR,150,cuna,la,a,281.9831,281.9832,-0.161898117,-0.193518524,0,0,0,,0,67,67,126,1,,,,
,,,,,,6110f0e3082812c7b2f617e6,66a626ef09d4e21e1a8894ec,6734e29b9dee0d0d382838ae,2024-11-13_18h32.58.513,Tarea de género gramatical,2024.2.2,Win32,58.47953216,,,,,,,,,,,,,,,,,,,,,,,281.9841,283.1823,l,1,0.5231,,[],[],[],[],[],[],[],0.5231,1,283.1824,283.6821,,,,,,154,MAS,AGR,150,padre,el,l,283.6822,283.6823,-0.161898117,-0.193518524,0,0,0,,0,68,68,153,1,,,,
,,,,,,6110f0e3082812c7b2f617e6,66a626ef09d4e21e1a8894ec,6734e29b9dee0d0d382838ae,2024-11-13_18h32.58.513,Tarea de género gramatical,2024.2.2,Win32,58.47953216,,,,,,,,,,,,,,,,,,,,,,,283.6832,284.8153,a,1,0.4523,,[],[],[],[],[],[],[],0.4523,1,284.8153,285.315,,,,,,79,FEM,AGR,150,mina,la,a,285.3162,285.3168,-0.161898117,-0.193518524,0,0,0,,0,69,69,78,1,,,,
,,,,,,6110f0e3082812c7b2f617e6,66a626ef09d4e21e1a8894ec,6734e29b9dee0d0d382838ae,2024-11-13_18h32.58.513,Tarea de género gramatical,2024.2.2,Win32,58.47953216,,,,,,,,,,,,,,,,,,,,,,,285.3172,286.4978,l,1,0.5026,,[],[],[],[],[],[],[],0.5026,1,286.4979,286.9979,,,,,,365,MAS,CON,150,código,,l,286.998,286.998,-0.161898117,-0.193518524,0,0,0,,0,70,70,364,1,,,,
,,,,,,6110f0e3082812c7b2f617e6,66a626ef09d4e21e1a8894ec,6734e29b9dee0d0d382838ae,2024-11-13_18h32.58.513,Tarea de género gramatical,2024.2.2,Win32,58.47953216,,,,,,,,,,,,,,,,,,,,,,,286.999,288.2806,a,1,0.6057,,[],[],[],[],[],[],[],0.6057,1,288.2806,288.7805,,,,,,33,FEM,DIS,150,boda,el,a,288.7805,288.7806,-0.161898117,-0.193518524,0,0,0,,0,71,71,32,1,,,,
,,,,,,6110f0e3082812c7b2f617e6,66a626ef09d4e21e1a8894ec,6734e29b9dee0d0d382838ae,2024-11-13_18h32.58.513,Tarea de género gramatical,2024.2.2,Win32,58.47953216,,,,,,,,,,,,,,,,,,,,,,,288.7815,289.9301,a,1,0.4711,,[],[],[],[],[],[],[],0.4711,1,289.9301,290.4303,,,,,,357,FEM,DIS,150,lengua,el,a,290.4303,290.4305,-0.161898117,-0.193518524,0,0,0,,0,72,72,356,1,,,,
,,,,,,6110f0e3082812c7b2f617e6,66a626ef09d4e21e1a8894ec,6734e29b9dee0d0d382838ae,2024-11-13_18h32.58.513,Tarea de género gramatical,2024.2.2,Win32,58.47953216,,,,,,,,,,,,,,,,,,,,,,,290.4314,291.5632,l,1,0.4485,,[],[],[],[],[],[],[],0.4485,1,291.5633,292.0626,,,,,,34,MAS,AGR,150,gato,el,l,292.0626,292.0627,-0.161898117,-0.193518524,0,0,0,,0,73,73,33,1,,,,
,,,,,,6110f0e3082812c7b2f617e6,66a626ef09d4e21e1a8894ec,6734e29b9dee0d0d382838ae,2024-11-13_18h32.58.513,Tarea de género gramatical,2024.2.2,Win32,58.47953216,,,,,,,,,,,,,,,,,,,,,,,292.0637,293.2122,a,1,0.4696,,[],[],[],[],[],[],[],0.4696,1,293.2123,293.7121,,,,,,397,FEM,AGR,150,cuerda,la,a,293.7131,293.7138,-0.161898117,-0.193518524,0,0,0,,0,74,74,396,1,,,,
,,,,,,6110f0e3082812c7b2f617e6,66a626ef09d4e21e1a8894ec,6734e29b9dee0d0d382838ae,2024-11-13_18h32.58.513,Tarea de género gramatical,2024.2.2,Win32,58.47953216,,,,,,,,,,,,,,,,,,,,,,,293.7144,294.8619,a,1,0.4729,,[],[],[],[],[],[],[],0.4729,1,294.8621,295.3614,,,,,,386,FEM,CON,150,sombra,,a,295.3614,295.3615,-0.161898117,-0.193518524,0,0,0,,0,75,75,385,1,,,,
,,,,,,6110f0e3082812c7b2f617e6,66a626ef09d4e21e1a8894ec,6734e29b9dee0d0d382838ae,2024-11-13_18h32.58.513,Tarea de género gramatical,2024.2.2,Win32,58.47953216,,,,,,,,,,,,,,,,,,,,,,,295.3622,296.5444,l,1,0.509,,[],[],[],[],[],[],[],0.509,1,296.5445,297.0443,,,,,,371,MAS,CON,150,sonido,,l,297.0444,297.0444,-0.161898117,-0.193518524,0,0,0,,0,76,76,370,1,,,,
,,,,,,6110f0e3082812c7b2f617e6,66a626ef09d4e21e1a8894ec,6734e29b9dee0d0d382838ae,2024-11-13_18h32.58.513,Tarea de género gramatical,2024.2.2,Win32,58.47953216,,,,,,,,,,,,,,,,,,,,,,,297.0452,298.2273,l,1,0.5067,,[],[],[],[],[],[],[],0.5067,1,298.2273,298.7271,,,,,,215,MAS,CON,150,hueso,,l,298.7271,298.7272,-0.161898117,-0.193518524,0,0,0,,0,77,77,214,1,,,,
,,,,,,6110f0e3082812c7b2f617e6,66a626ef09d4e21e1a8894ec,6734e29b9dee0d0d382838ae,2024-11-13_18h32.58.513,Tarea de género gramatical,2024.2.2,Win32,58.47953216,,,,,,,,,,,,,,,,,,,,,,,298.7282,300.1932,l,1,0.7835,,[],[],[],[],[],[],[],0.7835,1,300.1932,300.6929,,,,,,96,MAS,DIS,150,pato,la,l,300.6939,300.6946,-0.161898117,-0.193518524,0,0,0,,0,78,78,95,1,,,,
,,,,,,6110f0e3082812c7b2f617e6,66a626ef09d4e21e1a8894ec,6734e29b9dee0d0d382838ae,2024-11-13_18h32.58.513,Tarea de género gramatical,2024.2.2,Win32,58.47953216,,,,,,,,,,,,,,,,,,,,,,,300.6955,301.8425,l,1,0.4794,,[],[],[],[],[],[],[],0.4794,1,301.8426,302.3427,,,,,,10,MAS,AGR,150,niño,el,l,302.3427,302.3428,-0.161898117,-0.193518524,0,0,0,,0,79,79,9,1,,,,
,,,,,,6110f0e3082812c7b2f617e6,66a626ef09d4e21e1a8894ec,6734e29b9dee0d0d382838ae,2024-11-13_18h32.58.513,Tarea de género gramatical,2024.2.2,Win32,58.47953216,,,,,,,,,,,,,,,,,,,,,,,302.3438,303.4753,a,1,0.4528,,[],[],[],[],[],[],[],0.4528,1,303.4754,303.9753,,,,,,123,FEM,DIS,150,tela,el,a,303.9754,303.9755,-0.161898117,-0.193518524,0,0,0,,0,80,80,122,1,,,,
,,,,,,6110f0e3082812c7b2f617e6,66a626ef09d4e21e1a8894ec,6734e29b9dee0d0d382838ae,2024-11-13_18h32.58.513,Tarea de género gramatical,2024.2.2,Win32,58.47953216,,,,,,,,,,,,,,,,,,,,,,,303.9764,305.2415,a,1,0.5843,,[],[],[],[],[],[],[],0.5843,1,305.2415,305.7413,,,,,,134,FEM,CON,150,rama,,a,305.7413,305.7414,-0.161898117,-0.193518524,0,0,0,,0,81,81,133,1,,,,
,,,,,,6110f0e3082812c7b2f617e6,66a626ef09d4e21e1a8894ec,6734e29b9dee0d0d382838ae,2024-11-13_18h32.58.513,Tarea de género gramatical,2024.2.2,Win32,58.47953216,,,,,,,,,,,,,,,,,,,,,,,305.7421,306.8409,l,1,0.4272,,[],[],[],[],[],[],[],0.4272,1,306.8411,307.3407,,,,,,425,MAS,CON,150,chiste,,l,307.3407,307.3409,-0.161898117,-0.193518524,0,0,0,,0,82,82,424,1,,,,
,,,,,,6110f0e3082812c7b2f617e6,66a626ef09d4e21e1a8894ec,6734e29b9dee0d0d382838ae,2024-11-13_18h32.58.513,Tarea de género gramatical,2024.2.2,Win32,58.47953216,,,,,,,,,,,,,,,,,,,,,,,307.3418,308.4737,a,1,0.4576,,[],[],[],[],[],[],[],0.4576,1,308.4738,308.9734,,,,,,63,FEM,DIS,150,fila,el,a,308.9746,308.9752,-0.161898117,-0.193518524,0,0,0,,0,83,83,62,1,,,,
,,,,,,6110f0e3082812c7b2f617e6,66a626ef09d4e21e1a8894ec,6734e29b9dee0d0d382838ae,2024-11-13_18h32.58.513,Tarea de género gramatical,2024.2.2,Win32,58.47953216,,,,,,,,,,,,,,,,,,,,,,,308.9759,310.1397,l,1,0.4958,,[],[],[],[],[],[],[],0.4958,1,310.1398,310.6395,,,,,,142,MAS,AGR,150,lodo,el,l,310.6395,310.6396,-0.161898117,-0.193518524,0,0,0,,0,84,84,141,1,,,,
,,,,,,6110f0e3082812c7b2f617e6,66a626ef09d4e21e1a8894ec,6734e29b9dee0d0d382838ae,2024-11-13_18h32.58.513,Tarea de género gramatical,2024.2.2,Win32,58.47953216,,,,,,,,,,,,,,,,,,,,,,,310.6405,311.6897,a,1,0.3718,,[],[],[],[],[],[],[],0.3718,1,311.6897,312.189,,,,,,368,FEM,CON,150,gracia,,a,312.189,312.1891,-0.161898117,-0.193518524,0,0,0,,0,85,85,367,1,,,,
,,,,,,6110f0e3082812c7b2f617e6,66a626ef09d4e21e1a8894ec,6734e29b9dee0d0d382838ae,2024-11-13_18h32.58.513,Tarea de género gramatical,2024.2.2,Win32,58.47953216,,,,,,,,,,,,,,,,,,,,,,,312.1899,313.3221,l,0,0.459,,[],[],[],[],[],[],[],0.459,0,313.3229,313.8218,,,,,,422,FEM,CON,150,rutina,,a,313.8218,313.8219,-0.161898117,-0.193518524,0,0,0,,0,86,86,421,1,,,,
,,,,,,6110f0e3082812c7b2f617e6,66a626ef09d4e21e1a8894ec,6734e29b9dee0d0d382838ae,2024-11-13_18h32.58.513,Tarea de género gramatical,2024.2.2,Win32,58.47953216,,,,,,,,,,,,,,,,,,,,,,,313.8228,314.9051,a,1,0.4048,,[],[],[],[],[],[],[],0.4048,1,314.9061,315.4045,,,,,,163,FEM,AGR,150,calle,la,a,315.4055,315.4061,-0.161898117,-0.193518524,0,0,0,,0,87,87,162,1,,,,
,,,,,,6110f0e3082812c7b2f617e6,66a626ef09d4e21e1a8894ec,6734e29b9dee0d0d382838ae,2024-11-13_18h32.58.513,Tarea de género gramatical,2024.2.2,Win32,58.47953216,,,,,,,,,,,,,,,,,,,,,,,315.4066,316.4375,a,1,0.3538,,[],[],[],[],[],[],[],0.3538,1,316.4376,316.9373,,,,,,121,FEM,AGR,150,pila,la,a,316.9373,316.9374,-0.161898117,-0.193518524,0,0,0,,0,88,88,120,1,,,,
,,,,,,6110f0e3082812c7b2f617e6,66a626ef09d4e21e1a8894ec,6734e29b9dee0d0d382838ae,2024-11-13_18h32.58.513,Tarea de género gramatical,2024.2.2,Win32,58.47953216,,,,,,,,,,,,,,,,,,,,,,,316.9381,318.0537,l,1,0.4358,,[],[],[],[],[],[],[],0.4358,1,318.0538,318.5534,,,,,,443,MAS,CON,150,templo,,l,318.5535,318.5535,-0.161898117,-0.193518524,0,0,0,,0,89,89,442,1,,,,
,,,,,,6110f0e3082812c7b2f617e6,66a626ef09d4e21e1a8894ec,6734e29b9dee0d0d382838ae,2024-11-13_18h32.58.513,Tarea de género gramatical,2024.2.2,Win32,58.47953216,,,,,,,,,,,,,,,,,,,,,,,318.5543,319.7698,a,0,0.5342,,[],[],[],[],[],[],[],0.5342,0,319.7705,320.2697,,,,,,54,MAS,DIS,150,humo,la,l,320.2698,320.2698,-0.161898117,-0.193518524,0,0,0,,0,90,90,53,1,,,,
,,,,,,6110f0e3082812c7b2f617e6,66a626ef09d4e21e1a8894ec,6734e29b9dee0d0d382838ae,2024-11-13_18h32.58.513,Tarea de género gramatical,2024.2.2,Win32,58.47953216,,,,,,,,,,,,,,,,,,,,,,,320.2708,321.7357,l,1,0.7894,,[],[],[],[],[],[],[],0.7894,1,321.7363,322.2357,,,,,,156,MAS,DIS,150,amigo,la,l,322.2358,322.2359,-0.161898117,-0.193518524,0,0,0,,0,91,91,155,1,,,,
,,,,,,6110f0e3082812c7b2f617e6,66a626ef09d4e21e1a8894ec,6734e29b9dee0d0d382838ae,2024-11-13_18h32.58.513,Tarea de género gramatical,2024.2.2,Win32,58.47953216,,,,,,,,,,,,,,,,,,,,,,,322.2368,323.3353,l,1,0.4196,,[],[],[],[],[],[],[],0.4196,1,323.3354,323.8349,,,,,,400,MAS,AGR,150,barrio,el,l,323.8361,323.8367,-0.161898117,-0.193518524,0,0,0,,0,92,92,399,1,,,,
,,,,,,6110f0e3082812c7b2f617e6,66a626ef09d4e21e1a8894ec,6734e29b9dee0d0d382838ae,2024-11-13_18h32.58.513,Tarea de género gramatical,2024.2.2,Win32,58.47953216,,,,,,,,,,,,,,,,,,,,,,,323.8374,324.9847,a,1,0.4686,,[],[],[],[],[],[],[],0.4686,1,324.9848,325.4844,,,,,,373,FEM,AGR,150,lluvia,la,a,325.4844,325.4845,-0.161898117,-0.193518524,0,0,0,,0,93,93,372,1,,,,
,,,,,,6110f0e3082812c7b2f617e6,66a626ef09d4e21e1a8894ec,6734e29b9dee0d0d382838ae,2024-11-13_18h32.58.513,Tarea de género gramatical,2024.2.2,Win32,58.47953216,,,,,,,,,,,,,,,,,,,,,,,325.4855,326.5341,a,1,0.3728,,[],[],[],[],[],[],[],0.3728,1,326.5342,327.0339,,,,,,295,FEM,AGR,150,grasa,la,a,327.0339,327.034,-0.161898117,-0.193518524,0,0,0,,0,94,94,294,1,,,,
,,,,,,6110f0e3082812c7b2f617e6,66a626ef09d4e21e1a8894ec,6734e29b9dee0d0d382838ae,2024-11-13_18h32.58.513,Tarea de género gramatical,2024.2.2,Win32,58.47953216,,,,,,,,,,,,,,,,,,,,,,,327.035,328.1001,a,1,0.3965,,[],[],[],[],[],[],[],0.3965,1,328.1001,328.6,,,,,,235,FEM,AGR,150,torre,la,a,328.6,328.6001,-0.161898117,-0.193518524,0,0,0,,0,95,95,234,1,,,,
,,,,,,6110f0e3082812c7b2f617e6,66a626ef09d4e21e1a8894ec,6734e29b9dee0d0d382838ae,2024-11-13_18h32.58.513,Tarea de género gramatical,2024.2.2,Win32,58.47953216,,,,,,,,,,,,,,,,,,,,,,,328.6008,329.633,a,1,0.3552,,[],[],[],[],[],[],[],0.3552,1,329.6331,330.1327,,,,,,440,FEM,CON,150,patada,,a,330.134,330.1346,-0.161898117,-0.193518524,0,0,0,,0,96,96,439,1,,,,
,,,,,,6110f0e3082812c7b2f617e6,66a626ef09d4e21e1a8894ec,6734e29b9dee0d0d382838ae,2024-11-13_18h32.58.513,Tarea de género gramatical,2024.2.2,Win32,58.47953216,,,,,,,,,,,,,,,,,,,,,,,330.1351,331.2494,l,1,0.4345,,[],[],[],[],[],[],[],0.4345,1,331.2494,331.7489,,,,,,137,MAS,CON,150,coco,,l,331.749,331.7491,-0.161898117,-0.193518524,0,0,0,,0,97,97,136,1,,,,
,,,,,,6110f0e3082812c7b2f617e6,66a626ef09d4e21e1a8894ec,6734e29b9dee0d0d382838ae,2024-11-13_18h32.58.513,Tarea de género gramatical,2024.2.2,Win32,58.47953216,,,,,,,,,,,,,,,,,,,,,,,331.7501,332.7652,a,1,0.3343,,[],[],[],[],[],[],[],0.3343,1,332.7653,333.265,,,,,,170,FEM,CON,150,carta,,a,333.265,333.2651,-0.161898117,-0.193518524,0,0,0,,0,98,98,169,1,,,,
,,,,,,6110f0e3082812c7b2f617e6,66a626ef09d4e21e1a8894ec,6734e29b9dee0d0d382838ae,2024-11-13_18h32.58.513,Tarea de género gramatical,2024.2.2,Win32,58.47953216,,,,,,,,,,,,,,,,,,,,,,,333.267,334.348,l,1,0.413,,[],[],[],[],[],[],[],0.413,1,334.3481,334.8479,,,,,,131,MAS,CON,150,kilo,,l,334.8479,334.848,-0.161898117,-0.193518524,0,0,0,,0,99,99,130,1,,,,
,,,,,,6110f0e3082812c7b2f617e6,66a626ef09d4e21e1a8894ec,6734e29b9dee0d0d382838ae,2024-11-13_18h32.58.513,Tarea de género gramatical,2024.2.2,Win32,58.47953216,,,,,,,,,,,,,,,,,,,,,,,334.849,335.981,l,1,0.4504,,[],[],[],[],[],[],[],0.4504,1,335.9811,336.4806,,,,,,40,MAS,AGR,150,dios,el,l,336.4806,336.4808,-0.161898117,-0.193518524,0,0,0,,0,100,100,39,1,,,,
,,,,,,6110f0e3082812c7b2f617e6,66a626ef09d4e21e1a8894ec,6734e29b9dee0d0d382838ae,2024-11-13_18h32.58.513,Tarea de género gramatical,2024.2.2,Win32,58.47953216,,,,,,,,,,,,,,,,,,,,,,,336.4816,337.7303,a,1,0.5763,,[],[],[],[],[],[],[],0.5763,1,337.7304,338.23,,,,,,32,FEM,CON,150,caja,,a,338.2311,338.2316,-0.161898117,-0.193518524,0,0,0,,0,101,101,31,1,,,,
,,,,,,6110f0e3082812c7b2f617e6,66a626ef09d4e21e1a8894ec,6734e29b9dee0d0d382838ae,2024-11-13_18h32.58.513,Tarea de género gramatical,2024.2.2,Win32,58.47953216,,,,,,,,,,,,,,,,,,,,,,,338.2321,339.3129,l,1,0.4126,,[],[],[],[],[],[],[],0.4126,1,339.313,339.8128,,,,,,84,MAS,DIS,150,mago,la,l,339.8129,339.813,-0.161898117,-0.193518524,0,0,0,,0,102,102,83,1,,,,
,,,,,,6110f0e3082812c7b2f617e6,66a626ef09d4e21e1a8894ec,6734e29b9dee0d0d382838ae,2024-11-13_18h32.58.513,Tarea de género gramatical,2024.2.2,Win32,58.47953216,,,,,,,,,,,,,,,,,,,,,,,339.8138,340.8793,a,1,0.3832,,[],[],[],[],[],[],[],0.3832,1,340.8794,341.3789,,,,,,91,FEM,AGR,150,hoja,la,a,341.379,341.379,-0.161898117,-0.193518524,0,0,0,,0,103,103,90,1,,,,
,,,,,,6110f0e3082812c7b2f617e6,66a626ef09d4e21e1a8894ec,6734e29b9dee0d0d382838ae,2024-11-13_18h32.58.513,Tarea de género gramatical,2024.2.2,Win32,58.47953216,,,,,,,,,,,,,,,,,,,,,,,341.38,342.6618,a,1,0.6112,,[],[],[],[],[],[],[],0.6112,1,342.6619,343.1615,,,,,,1,FEM,AGR,150,casa,la,a,343.1616,343.1618,-0.161898117,-0.193518524,0,0,0,,0,104,104,0,1,,,,
,,,,,,6110f0e3082812c7b2f617e6,66a626ef09d4e21e1a8894ec,6734e29b9dee0d0d382838ae,2024-11-13_18h32.58.513,Tarea de género gramatical,2024.2.2,Win32,58.47953216,,,,,,,,,,,,,,,,,,,,,,,343.1624,344.3445,a,1,0.5038,,[],[],[],[],[],[],[],0.5038,1,344.3446,344.8443,,,,,,199,FEM,AGR,150,nariz,la,a,344.845,344.8458,-0.161898117,-0.193518524,0,0,0,,0,105,105,198,1,,,,
,,,,,,6110f0e3082812c7b2f617e6,66a626ef09d4e21e1a8894ec,6734e29b9dee0d0d382838ae,2024-11-13_18h32.58.513,Tarea de género gramatical,2024.2.2,Win32,58.47953216,,,,,,,,,,,,,,,,,,,,,,,344.8465,346.2104,l,1,0.6962,,[],[],[],[],[],[],[],0.6962,1,346.2105,346.7104,,,,,,366,MAS,DIS,150,riesgo,la,l,346.7105,346.7105,-0.161898117,-0.193518524,0,0,0,,0,106,106,365,1,,,,
,,,,,,6110f0e3082812c7b2f617e6,66a626ef09d4e21e1a8894ec,6734e29b9dee0d0d382838ae,2024-11-13_18h32.58.513,Tarea de género gramatical,2024.2.2,Win32,58.47953216,,,,,,,,,,,,,,,,,,,,,,,346.7116,348.1099,l,1,0.7192,,[],[],[],[],[],[],[],0.7192,1,348.11,348.6097,,,,,,382,MAS,AGR,150,teatro,el,l,348.6097,348.6098,-0.161898117,-0.193518524,0,0,0,,0,107,107,381,1,,,,
,,,,,,6110f0e3082812c7b2f617e6,66a626ef09d4e21e1a8894ec,6734e29b9dee0d0d382838ae,2024-11-13_18h32.58.513,Tarea de género gramatical,2024.2.2,Win32,58.47953216,,,,,,,,,,,,,,,,,,,,,,,348.6107,349.9259,l,1,0.6342,,[],[],[],[],[],[],[],0.6342,1,349.926,350.4258,,,,,,150,MAS,DIS,150,mozo,la,l,350.4258,350.4259,-0.161898117,-0.193518524,0,0,0,,0,108,108,149,1,,,,
,,,,,,6110f0e3082812c7b2f617e6,66a626ef09d4e21e1a8894ec,6734e29b9dee0d0d382838ae,2024-11-13_18h32.58.513,Tarea de género gramatical,2024.2.2,Win32,58.47953216,,,,,,,,,,,,,,,,,,,,,,,350.4268,351.7587,a,1,0.6568,,[],[],[],[],[],[],[],0.6568,1,351.7587,352.2584,,,,,,416,FEM,CON,150,colina,,a,352.2585,352.2585,-0.161898117,-0.193518524,0,0,0,,0,109,109,415,1,,,,
,,,,,,6110f0e3082812c7b2f617e6,66a626ef09d4e21e1a8894ec,6734e29b9dee0d0d382838ae,2024-11-13_18h32.58.513,Tarea de género gramatical,2024.2.2,Win32,58.47953216,,,,,,,,,,,,,,,,,,,,,,,352.2592,353.3747,l,1,0.4347,,[],[],[],[],[],[],[],0.4347,1,353.3748,353.8746,,,,,,329,MAS,CON,150,futuro,,l,353.8755,353.8761,-0.161898117,-0.193518524,0,0,0,,0,110,110,328,1,,,,
,,,,,,6110f0e3082812c7b2f617e6,66a626ef09d4e21e1a8894ec,6734e29b9dee0d0d382838ae,2024-11-13_18h32.58.513,Tarea de género gramatical,2024.2.2,Win32,58.47953216,,,,,,,,,,,,,,,,,,,,,,,353.8767,355.0242,a,1,0.4772,,[],[],[],[],[],[],[],0.4772,1,355.0242,355.5242,,,,,,61,FEM,AGR,150,ruta,la,a,355.5243,355.5244,-0.161898117,-0.193518524,0,0,0,,0,111,111,60,1,,,,
,,,,,,6110f0e3082812c7b2f617e6,66a626ef09d4e21e1a8894ec,6734e29b9dee0d0d382838ae,2024-11-13_18h32.58.513,Tarea de género gramatical,2024.2.2,Win32,58.47953216,,,,,,,,,,,,,,,,,,,,,,,355.5254,356.7736,l,1,0.5734,,[],[],[],[],[],[],[],0.5734,1,356.7736,357.2734,,,,,,396,MAS,DIS,150,tesoro,la,l,357.2734,357.2735,-0.161898117,-0.193518524,0,0,0,,0,112,112,395,1,,,,
,,,,,,6110f0e3082812c7b2f617e6,66a626ef09d4e21e1a8894ec,6734e29b9dee0d0d382838ae,2024-11-13_18h32.58.513,Tarea de género gramatical,2024.2.2,Win32,58.47953216,,,,,,,,,,,,,,,,,,,,,,,357.2743,358.3564,l,1,0.4045,,[],[],[],[],[],[],[],0.4045,1,358.3565,358.8563,,,,,,172,MAS,AGR,150,poder,el,l,358.8563,358.8564,-0.161898117,-0.193518524,0,0,0,,0,113,113,171,1,,,,
,,,,,,6110f0e3082812c7b2f617e6,66a626ef09d4e21e1a8894ec,6734e29b9dee0d0d382838ae,2024-11-13_18h32.58.513,Tarea de género gramatical,2024.2.2,Win32,58.47953216,,,,,,,,,,,,,,,,,,,,,,,358.8572,360.1225,l,1,0.5877,,[],[],[],[],[],[],[],0.5877,1,360.1226,360.6222,,,,,,310,MAS,AGR,150,nombre,el,l,360.6233,360.6242,-0.161898117,-0.193518524,0,0,0,,0,114,114,309,1,,,,
,,,,,,6110f0e3082812c7b2f617e6,66a626ef09d4e21e1a8894ec,6734e29b9dee0d0d382838ae,2024-11-13_18h32.58.513,Tarea de género gramatical,2024.2.2,Win32,58.47953216,,,,,,,,,,,,,,,,,,,,,,,360.6248,361.7055,l,1,0.4032,,[],[],[],[],[],[],[],0.4032,1,361.7056,362.2051,,,,,,52,MAS,AGR,150,lago,el,l,362.2051,362.2052,-0.161898117,-0.193518524,0,0,0,,0,115,115,51,1,,,,
,,,,,,6110f0e3082812c7b2f617e6,66a626ef09d4e21e1a8894ec,6734e29b9dee0d0d382838ae,2024-11-13_18h32.58.513,Tarea de género gramatical,2024.2.2,Win32,58.47953216,,,,,,,,,,,,,,,,,,,,,,,362.2059,363.7378,l,1,0.8491,,[],[],[],[],[],[],[],0.8491,1,363.7379,364.2376,,,,,,59,MAS,CON,150,lobo,,l,364.2376,364.2377,-0.161898117,-0.193518524,0,0,0,,0,116,116,58,1,,,,
,,,,,,6110f0e3082812c7b2f617e6,66a626ef09d4e21e1a8894ec,6734e29b9dee0d0d382838ae,2024-11-13_18h32.58.513,Tarea de género gramatical,2024.2.2,Win32,58.47953216,,,,,,,,,,,,,,,,,,,,,,,364.2387,365.4539,a,0,0.5439,,[],[],[],[],[],[],[],0.5439,0,365.4545,365.9537,,,,,,220,MAS,AGR,150,huevo,el,l,365.9537,365.9538,-0.161898117,-0.193518524,0,0,0,,0,117,117,219,1,,,,
,,,,,,6110f0e3082812c7b2f617e6,66a626ef09d4e21e1a8894ec,6734e29b9dee0d0d382838ae,2024-11-13_18h32.58.513,Tarea de género gramatical,2024.2.2,Win32,58.47953216,,,,,,,,,,,,,,,,,,,,,,,365.9548,367.0866,l,1,0.4631,,[],[],[],[],[],[],[],0.4631,1,367.0871,367.5866,,,,,,328,MAS,AGR,150,asunto,el,l,367.5867,367.5867,-0.161898117,-0.193518524,0,0,0,,0,118,118,327,1,,,,
,,,,,,6110f0e3082812c7b2f617e6,66a626ef09d4e21e1a8894ec,6734e29b9dee0d0d382838ae,2024-11-13_18h32.58.513,Tarea de género gramatical,2024.2.2,Win32,58.47953216,,,,,,,,,,,,,,,,,,,,,,,367.5876,368.6861,a,1,0.4207,,[],[],[],[],[],[],[],0.4207,1,368.6862,369.186,,,,,,68,FEM,CON,150,pata,,a,369.1872,369.1879,-0.161898117,-0.193518524,0,0,0,,0,119,119,67,1,,,,
,,,,,,6110f0e3082812c7b2f617e6,66a626ef09d4e21e1a8894ec,6734e29b9dee0d0d382838ae,2024-11-13_18h32.58.513,Tarea de género gramatical,2024.2.2,Win32,58.47953216,,,,,,,,,,,,,,,,,,,,,,,369.1883,370.3021,l,1,0.4388,,[],[],[],[],[],[],[],0.4388,1,370.3023,370.802,,,,,,418,MAS,AGR,150,pájaro,el,l,370.8021,370.8021,-0.161898117,-0.193518524,0,0,0,,0,120,120,417,1,,,,
,,,,,,6110f0e3082812c7b2f617e6,66a626ef09d4e21e1a8894ec,6734e29b9dee0d0d382838ae,2024-11-13_18h32.58.513,Tarea de género gramatical,2024.2.2,Win32,58.47953216,,,,,,,,,,,,,,,,,,,,,,,370.8031,371.885,a,1,0.4039,,[],[],[],[],[],[],[],0.4039,1,371.8851,372.3848,,,,,,446,FEM,CON,150,bañera,,a,372.3849,372.385,-0.161898117,-0.193518524,0,0,0,,0,121,121,445,1,,,,
,,,,,,6110f0e3082812c7b2f617e6,66a626ef09d4e21e1a8894ec,6734e29b9dee0d0d382838ae,2024-11-13_18h32.58.513,Tarea de género gramatical,2024.2.2,Win32,58.47953216,,,,,,,,,,,,,,,,,,,,,,,372.3859,373.8343,l,1,0.7754,,[],[],[],[],[],[],[],0.7754,1,373.8343,374.3341,,,,,,138,MAS,DIS,150,luto,la,l,374.3342,374.3343,-0.161898117,-0.193518524,0,0,0,,0,122,122,137,1,,,,
,,,,,,6110f0e3082812c7b2f617e6,66a626ef09d4e21e1a8894ec,6734e29b9dee0d0d382838ae,2024-11-13_18h32.58.513,Tarea de género gramatical,2024.2.2,Win32,58.47953216,,,,,,,,,,,,,,,,,,,,,,,374.3352,375.3838,a,1,0.3741,,[],[],[],[],[],[],[],0.3741,1,375.3838,375.8836,,,,,,319,FEM,AGR,150,sangre,la,a,375.8847,375.8855,-0.161898117,-0.193518524,0,0,0,,0,123,123,318,1,,,,
,,,,,,6110f0e3082812c7b2f617e6,66a626ef09d4e21e1a8894ec,6734e29b9dee0d0d382838ae,2024-11-13_18h32.58.513,Tarea de género gramatical,2024.2.2,Win32,58.47953216,,,,,,,,,,,,,,,,,,,,,,,375.886,377.1166,a,1,0.5573,,[],[],[],[],[],[],[],0.5573,1,377.1166,377.6163,,,,,,339,FEM,DIS,150,salida,el,a,377.6164,377.6164,-0.161898117,-0.193518524,0,0,0,,0,124,124,338,1,,,,
,,,,,,6110f0e3082812c7b2f617e6,66a626ef09d4e21e1a8894ec,6734e29b9dee0d0d382838ae,2024-11-13_18h32.58.513,Tarea de género gramatical,2024.2.2,Win32,58.47953216,,,,,,,,,,,,,,,,,,,,,,,377.6174,379.0326,a,1,0.7453,,[],[],[],[],[],[],[],0.7453,1,379.0326,379.5324,,,,,,75,FEM,DIS,150,caza,el,a,379.5324,379.5325,-0.161898117,-0.193518524,0,0,0,,0,125,125,74,1,,,,
,,,,,,6110f0e3082812c7b2f617e6,66a626ef09d4e21e1a8894ec,6734e29b9dee0d0d382838ae,2024-11-13_18h32.58.513,Tarea de género gramatical,2024.2.2,Win32,58.47953216,,,,,,,,,,,,,,,,,,,,,,,379.5334,380.7487,a,1,0.5387,,[],[],[],[],[],[],[],0.5387,1,380.7487,381.2485,,,,,,14,FEM,CON,150,cara,,a,381.2485,381.2486,-0.161898117,-0.193518524,0,0,0,,0,126,126,13,1,,,,
,,,,,,6110f0e3082812c7b2f617e6,66a626ef09d4e21e1a8894ec,6734e29b9dee0d0d382838ae,2024-11-13_18h32.58.513,Tarea de género gramatical,2024.2.2,Win32,58.47953216,,,,,,,,,,,,,,,,,,,,,,,381.2494,382.5814,l,1,0.6598,,[],[],[],[],[],[],[],0.6598,1,382.5814,383.0812,,,,,,424,MAS,AGR,150,rastro,el,l,383.0813,383.0813,-0.161898117,-0.193518524,0,0,0,,0,127,127,423,1,,,,
,,,,,,6110f0e3082812c7b2f617e6,66a626ef09d4e21e1a8894ec,6734e29b9dee0d0d382838ae,2024-11-13_18h32.58.513,Tarea de género gramatical,2024.2.2,Win32,58.47953216,,,,,,,,,,,,,,,,,,,,,,,383.0823,384.3474,l,1,0.5882,,[],[],[],[],[],[],[],0.5882,1,384.3475,384.8473,,,,,,238,MAS,AGR,150,norte,el,l,384.8481,384.8487,-0.161898117,-0.193518524,0,0,0,,0,128,128,237,1,,,,
,,,,,,6110f0e3082812c7b2f617e6,66a626ef09d4e21e1a8894ec,6734e29b9dee0d0d382838ae,2024-11-13_18h32.58.513,Tarea de género gramatical,2024.2.2,Win32,58.47953216,,,,,,,,,,,,,,,,,,,,,,,384.8493,385.9468,l,1,0.4164,,[],[],[],[],[],[],[],0.4164,1,385.9469,386.4466,,,,,,256,MAS,AGR,150,techo,el,l,386.4466,386.4467,-0.161898117,-0.193518524,0,0,0,,0,129,129,255,1,,,,
,,,,,,6110f0e3082812c7b2f617e6,66a626ef09d4e21e1a8894ec,6734e29b9dee0d0d382838ae,2024-11-13_18h32.58.513,Tarea de género gramatical,2024.2.2,Win32,58.47953216,,,,,,,,,,,,,,,,,,,,,,,386.4477,387.7962,l,1,0.6711,,[],[],[],[],[],[],[],0.6711,1,387.7963,388.296,,,,,,376,MAS,AGR,150,efecto,el,l,388.2961,388.2961,-0.161898117,-0.193518524,0,0,0,,0,130,130,375,1,,,,
,,,,,,6110f0e3082812c7b2f617e6,66a626ef09d4e21e1a8894ec,6734e29b9dee0d0d382838ae,2024-11-13_18h32.58.513,Tarea de género gramatical,2024.2.2,Win32,58.47953216,,,,,,,,,,,,,,,,,,,,,,,388.2969,389.8955,a,1,0.9286,,[],[],[],[],[],[],[],0.9286,1,389.8956,390.3954,,,,,,74,FEM,CON,150,flor,,a,390.3954,390.3955,-0.161898117,-0.193518524,0,0,0,,0,131,131,73,1,,,,
,,,,,,6110f0e3082812c7b2f617e6,66a626ef09d4e21e1a8894ec,6734e29b9dee0d0d382838ae,2024-11-13_18h32.58.513,Tarea de género gramatical,2024.2.2,Win32,58.47953216,,,,,,,,,,,,,,,,,,,,,,,390.3964,391.5284,a,1,0.464,,[],[],[],[],[],[],[],0.464,1,391.5284,392.0281,,,,,,277,FEM,AGR,150,plaza,la,a,392.0292,392.0296,-0.161898117,-0.193518524,0,0,0,,0,132,132,276,1,,,,
,,,,,,6110f0e3082812c7b2f617e6,66a626ef09d4e21e1a8894ec,6734e29b9dee0d0d382838ae,2024-11-13_18h32.58.513,Tarea de género gramatical,2024.2.2,Win32,58.47953216,,,,,,,,,,,,,,,,,,,,,,,392.0301,393.361,l,1,0.6568,,[],[],[],[],[],[],[],0.6568,1,393.3611,393.8607,,,,,,66,MAS,DIS,150,muro,la,l,393.8607,393.8608,-0.161898117,-0.193518524,0,0,0,,0,133,133,65,1,,,,
,,,,,,6110f0e3082812c7b2f617e6,66a626ef09d4e21e1a8894ec,6734e29b9dee0d0d382838ae,2024-11-13_18h32.58.513,Tarea de género gramatical,2024.2.2,Win32,58.47953216,,,,,,,,,,,,,,,,,,,,,,,393.8617,395.0269,l,1,0.4868,,[],[],[],[],[],[],[],0.4868,1,395.027,395.5268,,,,,,191,MAS,CON,150,dolor,,l,395.5268,395.5268,-0.161898117,-0.193518524,0,0,0,,0,134,134,190,1,,,,
,,,,,,6110f0e3082812c7b2f617e6,66a626ef09d4e21e1a8894ec,6734e29b9dee0d0d382838ae,2024-11-13_18h32.58.513,Tarea de género gramatical,2024.2.2,Win32,58.47953216,,,,,,,,,,,,,,,,,,,,,,,395.5276,396.6931,a,1,0.4834,,[],[],[],[],[],[],[],0.4834,1,396.6932,397.1929,,,,,,369,FEM,DIS,150,camisa,el,a,397.1929,397.193,-0.161898117,-0.193518524,0,0,0,,0,135,135,368,1,,,,
,,,,,,6110f0e3082812c7b2f617e6,66a626ef09d4e21e1a8894ec,6734e29b9dee0d0d382838ae,2024-11-13_18h32.58.513,Tarea de género gramatical,2024.2.2,Win32,58.47953216,,,,,,,,,,,,,,,,,,,,,,,397.1939,398.2926,a,1,0.4274,,[],[],[],[],[],[],[],0.4274,1,398.2926,398.7925,,,,,,307,FEM,AGR,150,suerte,la,a,398.7925,398.7926,-0.161898117,-0.193518524,0,0,0,,0,136,136,306,1,,,,
,,,,,,6110f0e3082812c7b2f617e6,66a626ef09d4e21e1a8894ec,6734e29b9dee0d0d382838ae,2024-11-13_18h32.58.513,Tarea de género gramatical,2024.2.2,Win32,58.47953216,,,,,,,,,,,,,,,,,,,,,,,398.7936,399.892,a,1,0.429,,[],[],[],[],[],[],[],0.429,1,399.892,400.3918,,,,,,37,FEM,AGR,150,sala,la,a,400.3929,400.3935,-0.161898117,-0.193518524,0,0,0,,0,137,137,36,1,,,,
,,,,,,6110f0e3082812c7b2f617e6,66a626ef09d4e21e1a8894ec,6734e29b9dee0d0d382838ae,2024-11-13_18h32.58.513,Tarea de género gramatical,2024.2.2,Win32,58.47953216,,,,,,,,,,,,,,,,,,,,,,,400.394,401.4581,a,1,0.385,,[],[],[],[],[],[],[],0.385,1,401.4582,401.9579,,,,,,278,FEM,CON,150,presa,,a,401.958,401.9581,-0.161898117,-0.193518524,0,0,0,,0,138,138,277,1,,,,
,,,,,,6110f0e3082812c7b2f617e6,66a626ef09d4e21e1a8894ec,6734e29b9dee0d0d382838ae,2024-11-13_18h32.58.513,Tarea de género gramatical,2024.2.2,Win32,58.47953216,,,,,,,,,,,,,,,,,,,,,,,401.9589,403.1075,a,1,0.4804,,[],[],[],[],[],[],[],0.4804,1,403.1076,403.6073,,,,,,379,FEM,AGR,150,granja,la,a,403.6073,403.6075,-0.161898117,-0.193518524,0,0,0,,0,139,139,378,1,,,,
,,,,,,6110f0e3082812c7b2f617e6,66a626ef09d4e21e1a8894ec,6734e29b9dee0d0d382838ae,2024-11-13_18h32.58.513,Tarea de género gramatical,2024.2.2,Win32,58.47953216,,,,,,,,,,,,,,,,,,,,,,,403.6082,404.607,a,1,0.3276,,[],[],[],[],[],[],[],0.3276,1,404.6071,405.107,,,,,,26,FEM,CON,150,pena,,a,405.107,405.107,-0.161898117,-0.193518524,0,0,0,,0,140,140,25,1,,,,
,,,,,,6110f0e3082812c7b2f617e6,66a626ef09d4e21e1a8894ec,6734e29b9dee0d0d382838ae,2024-11-13_18h32.58.513,Tarea de género gramatical,2024.2.2,Win32,58.47953216,,,,,,,,,,,,,,,,,,,,,,,405.108,406.2731,l,1,0.496,,[],[],[],[],[],[],[],0.496,1,406.2732,406.7729,,,,,,180,MAS,DIS,150,fuego,la,l,406.774,406.7748,-0.161898117,-0.193518524,0,0,0,,0,141,141,179,1,,,,
,,,,,,6110f0e3082812c7b2f617e6,66a626ef09d4e21e1a8894ec,6734e29b9dee0d0d382838ae,2024-11-13_18h32.58.513,Tarea de género gramatical,2024.2.2,Win32,58.47953216,,,,,,,,,,,,,,,,,,,,,,,406.7753,407.9393,a,1,0.4891,,[],[],[],[],[],[],[],0.4891,1,407.9394,408.439,,,,,,141,FEM,DIS,150,cera,el,a,408.439,408.4392,-0.161898117,-0.193518524,0,0,0,,0,142,142,140,1,,,,
,,,,,,6110f0e3082812c7b2f617e6,66a626ef09d4e21e1a8894ec,6734e29b9dee0d0d382838ae,2024-11-13_18h32.58.513,Tarea de género gramatical,2024.2.2,Win32,58.47953216,,,,,,,,,,,,,,,,,,,,,,,408.4401,409.5887,l,1,0.4778,,[],[],[],[],[],[],[],0.4778,1,409.5887,410.0884,,,,,,299,MAS,CON,150,rumbo,,l,410.0885,410.0886,-0.161898117,-0.193518524,0,0,0,,0,143,143,298,1,,,,
,,,,,,6110f0e3082812c7b2f617e6,66a626ef09d4e21e1a8894ec,6734e29b9dee0d0d382838ae,2024-11-13_18h32.58.513,Tarea de género gramatical,2024.2.2,Win32,58.47953216,,,,,,,,,,,,,,,,,,,,,,,410.0895,411.1382,a,0,0.367,,[],[],[],[],[],[],[],0.367,0,411.1389,411.6379,,,,,,5,MAS,CON,150,tipo,,l,411.6379,411.638,-0.161898117,-0.193518524,0,0,0,,0,144,144,4,1,,,,
,,,,,,6110f0e3082812c7b2f617e6,66a626ef09d4e21e1a8894ec,6734e29b9dee0d0d382838ae,2024-11-13_18h32.58.513,Tarea de género gramatical,2024.2.2,Win32,58.47953216,,,,,,,,,,,,,,,,,,,,,,,411.6385,412.721,a,1,0.4141,,[],[],[],[],[],[],[],0.4141,1,412.7218,413.2208,,,,,,182,FEM,CON,150,prisa,,a,413.2208,413.2209,-0.161898117,-0.193518524,0,0,0,,0,145,145,181,1,,,,
,,,,,,6110f0e3082812c7b2f617e6,66a626ef09d4e21e1a8894ec,6734e29b9dee0d0d382838ae,2024-11-13_18h32.58.513,Tarea de género gramatical,2024.2.2,Win32,58.47953216,,,,,,,,,,,,,,,,,,,,,,,413.2218,414.3371,l,1,0.4414,,[],[],[],[],[],[],[],0.4414,1,414.3371,414.8368,,,,,,232,MAS,AGR,150,calor,el,l,414.8379,414.8388,-0.161898117,-0.193518524,0,0,0,,0,146,146,231,1,,,,
,,,,,,6110f0e3082812c7b2f617e6,66a626ef09d4e21e1a8894ec,6734e29b9dee0d0d382838ae,2024-11-13_18h32.58.513,Tarea de género gramatical,2024.2.2,Win32,58.47953216,,,,,,,,,,,,,,,,,,,,,,,414.8394,415.9033,a,1,0.3972,,[],[],[],[],[],[],[],0.3972,1,415.9034,416.403,,,,,,405,FEM,DIS,150,parada,el,a,416.4031,416.4031,-0.161898117,-0.193518524,0,0,0,,0,147,147,404,1,,,,
,,,,,,6110f0e3082812c7b2f617e6,66a626ef09d4e21e1a8894ec,6734e29b9dee0d0d382838ae,2024-11-13_18h32.58.513,Tarea de género gramatical,2024.2.2,Win32,58.47953216,,,,,,,,,,,,,,,,,,,,,,,416.4039,417.5192,a,1,0.4431,,[],[],[],[],[],[],[],0.4431,1,417.5193,418.0192,,,,,,290,FEM,CON,150,cabra,,a,418.0192,418.0193,-0.161898117,-0.193518524,0,0,0,,0,148,148,289,1,,,,
,,,,,,6110f0e3082812c7b2f617e6,66a626ef09d4e21e1a8894ec,6734e29b9dee0d0d382838ae,2024-11-13_18h32.58.513,Tarea de género gramatical,2024.2.2,Win32,58.47953216,,,,,,,,,,,,,,,,,,,,,,,418.0203,419.1187,a,1,0.4237,,[],[],[],[],[],[],[],0.4237,1,419.1188,419.6186,,,,,,289,FEM,AGR,150,tabla,la,a,419.6186,419.6186,-0.161898117,-0.193518524,0,0,0,,0,149,149,288,1,,,,
,,,,,,6110f0e3082812c7b2f617e6,66a626ef09d4e21e1a8894ec,6734e29b9dee0d0d382838ae,2024-11-13_18h32.58.513,Tarea de género gramatical,2024.2.2,Win32,58.47953216,,,,,,,,,,,,,,,,,,,,,,,419.6195,420.8181,l,1,0.5162,,[],[],[],[],[],[],[],0.5162,1,420.8182,421.318,,,,,,60,MAS,DIS,150,tono,la,l,421.3188,435.9798,-0.161898117,-0.193518524,0,0,0,space,0,150,150,59,1,14.6487,,,
,,,,,,6110f0e3082812c7b2f617e6,66a626ef09d4e21e1a8894ec,6734e29b9dee0d0d382838ae,2024-11-13_18h32.58.513,Tarea de género gramatical,2024.2.2,Win32,58.47953216,,,,,,,,,,,,,,,,,,,,,,,435.9808,437.4292,l,1,0.7661,,[],[],[],[],[],[],[],0.7661,1,437.4292,437.9291,,,,,,202,MAS,AGR,150,honor,el,l,437.9292,437.9293,-0.161898117,-0.193518524,0,0,0,,0,151,151,201,1,,,,
,,,,,,6110f0e3082812c7b2f617e6,66a626ef09d4e21e1a8894ec,6734e29b9dee0d0d382838ae,2024-11-13_18h32.58.513,Tarea de género gramatical,2024.2.2,Win32,58.47953216,,,,,,,,,,,,,,,,,,,,,,,437.9303,438.9285,l,1,0.3171,,[],[],[],[],[],[],[],0.3171,1,438.9286,439.4285,,,,,,437,MAS,CON,150,hombro,,l,439.4285,439.4286,-0.161898117,-0.193518524,0,0,0,,0,152,152,436,1,,,,
,,,,,,6110f0e3082812c7b2f617e6,66a626ef09d4e21e1a8894ec,6734e29b9dee0d0d382838ae,2024-11-13_18h32.58.513,Tarea de género gramatical,2024.2.2,Win32,58.47953216,,,,,,,,,,,,,,,,,,,,,,,439.4296,440.5279,l,1,0.4293,,[],[],[],[],[],[],[],0.4293,1,440.528,441.0279,,,,,,406,MAS,AGR,150,premio,el,l,441.0279,441.028,-0.161898117,-0.193518524,0,0,0,,0,153,153,405,1,,,,
,,,,,,6110f0e3082812c7b2f617e6,66a626ef09d4e21e1a8894ec,6734e29b9dee0d0d382838ae,2024-11-13_18h32.58.513,Tarea de género gramatical,2024.2.2,Win32,58.47953216,,,,,,,,,,,,,,,,,,,,,,,441.0288,443.1277,a,1,1.4262,,[],[],[],[],[],[],[],1.4262,1,443.1278,443.6269,,,,,,321,FEM,DIS,150,comida,el,a,443.6269,443.627,-0.161898117,-0.193518524,0,0,0,,0,154,154,320,1,,,,
,,,,,,6110f0e3082812c7b2f617e6,66a626ef09d4e21e1a8894ec,6734e29b9dee0d0d382838ae,2024-11-13_18h32.58.513,Tarea de género gramatical,2024.2.2,Win32,58.47953216,,,,,,,,,,,,,,,,,,,,,,,443.6277,444.8599,l,1,0.5515,,[],[],[],[],[],[],[],0.5515,1,444.86,445.3597,,,,,,240,MAS,DIS,150,ruido,la,l,445.3605,445.3613,-0.187824097,-0.179629593,0,0,0,,0,155,155,239,1,,,,
,,,,,,6110f0e3082812c7b2f617e6,66a626ef09d4e21e1a8894ec,6734e29b9dee0d0d382838ae,2024-11-13_18h32.58.513,Tarea de género gramatical,2024.2.2,Win32,58.47953216,,,,,,,,,,,,,,,,,,,,,,,445.3618,446.4763,a,1,0.4436,,[],[],[],[],[],[],[],0.4436,1,446.4763,446.9758,,,,,,80,FEM,CON,150,vaca,,a,446.9758,446.9758,-0.187824097,-0.179629593,0,0,0,,0,156,156,79,1,,,,
,,,,,,6110f0e3082812c7b2f617e6,66a626ef09d4e21e1a8894ec,6734e29b9dee0d0d382838ae,2024-11-13_18h32.58.513,Tarea de género gramatical,2024.2.2,Win32,58.47953216,,,,,,,,,,,,,,,,,,,,,,,446.9765,447.992,l,1,0.3445,,[],[],[],[],[],[],[],0.3445,1,447.9921,448.4921,,,,,,161,MAS,CON,150,chico,,l,448.4922,448.4922,-0.187824097,-0.179629593,0,0,0,,0,157,157,160,1,,,,
,,,,,,6110f0e3082812c7b2f617e6,66a626ef09d4e21e1a8894ec,6734e29b9dee0d0d382838ae,2024-11-13_18h32.58.513,Tarea de género gramatical,2024.2.2,Win32,58.47953216,,,,,,,,,,,,,,,,,,,,,,,448.4931,449.4918,a,1,0.3253,,[],[],[],[],[],[],[],0.3253,1,449.4919,449.9915,,,,,,7,FEM,AGR,150,hora,la,a,449.9917,449.9917,-0.187824097,-0.179629593,0,0,0,,0,158,158,6,1,,,,
,,,,,,6110f0e3082812c7b2f617e6,66a626ef09d4e21e1a8894ec,6734e29b9dee0d0d382838ae,2024-11-13_18h32.58.513,Tarea de género gramatical,2024.2.2,Win32,58.47953216,,,,,,,,,,,,,,,,,,,,,,,449.9926,451.091,l,1,0.4259,,[],[],[],[],[],[],[],0.4259,1,451.0911,451.5909,,,,,,286,MAS,AGR,150,reino,el,l,451.592,451.5926,-0.187824097,-0.179629593,0,0,0,,0,159,159,285,1,,,,
,,,,,,6110f0e3082812c7b2f617e6,66a626ef09d4e21e1a8894ec,6734e29b9dee0d0d382838ae,2024-11-13_18h32.58.513,Tarea de género gramatical,2024.2.2,Win32,58.47953216,,,,,,,,,,,,,,,,,,,,,,,451.5931,452.7237,l,1,0.4528,,[],[],[],[],[],[],[],0.4528,1,452.7238,453.2238,,,,,,190,MAS,AGR,150,campo,el,l,453.2238,453.2238,-0.187824097,-0.179629593,0,0,0,,0,160,160,189,1,,,,
,,,,,,6110f0e3082812c7b2f617e6,66a626ef09d4e21e1a8894ec,6734e29b9dee0d0d382838ae,2024-11-13_18h32.58.513,Tarea de género gramatical,2024.2.2,Win32,58.47953216,,,,,,,,,,,,,,,,,,,,,,,453.2246,454.2738,l,1,0.369,,[],[],[],[],[],[],[],0.369,1,454.2739,454.7735,,,,,,41,MAS,CON,150,bote,,l,454.7735,454.7735,-0.187824097,-0.179629593,0,0,0,,0,161,161,40,1,,,,
,,,,,,6110f0e3082812c7b2f617e6,66a626ef09d4e21e1a8894ec,6734e29b9dee0d0d382838ae,2024-11-13_18h32.58.513,Tarea de género gramatical,2024.2.2,Win32,58.47953216,,,,,,,,,,,,,,,,,,,,,,,454.7742,455.8228,a,0,0.3658,,[],[],[],[],[],[],[],0.3658,0,455.8236,456.3227,,,,,,108,MAS,DIS,150,hilo,la,l,456.3227,456.3227,-0.187824097,-0.179629593,0,0,0,,0,162,162,107,1,,,,
,,,,,,6110f0e3082812c7b2f617e6,66a626ef09d4e21e1a8894ec,6734e29b9dee0d0d382838ae,2024-11-13_18h32.58.513,Tarea de género gramatical,2024.2.2,Win32,58.47953216,,,,,,,,,,,,,,,,,,,,,,,456.3235,457.6055,l,1,0.6088,,[],[],[],[],[],[],[],0.6088,1,457.6061,458.1052,,,,,,383,MAS,CON,150,parque,,l,458.1053,458.1054,-0.187824097,-0.179629593,0,0,0,,0,163,163,382,1,,,,
,,,,,,6110f0e3082812c7b2f617e6,66a626ef09d4e21e1a8894ec,6734e29b9dee0d0d382838ae,2024-11-13_18h32.58.513,Tarea de género gramatical,2024.2.2,Win32,58.47953216,,,,,,,,,,,,,,,,,,,,,,,458.1066,459.1552,l,1,0.3732,,[],[],[],[],[],[],[],0.3732,1,459.1554,459.6554,,,,,,300,MAS,DIS,150,túnel,la,l,459.6564,459.6572,-0.187824097,-0.179629593,0,0,0,,0,164,164,299,1,,,,
,,,,,,6110f0e3082812c7b2f617e6,66a626ef09d4e21e1a8894ec,6734e29b9dee0d0d382838ae,2024-11-13_18h32.58.513,Tarea de género gramatical,2024.2.2,Win32,58.47953216,,,,,,,,,,,,,,,,,,,,,,,459.658,460.7212,a,1,0.3926,,[],[],[],[],[],[],[],0.3926,1,460.7213,461.221,,,,,,110,FEM,CON,150,rosa,,a,461.221,461.2212,-0.187824097,-0.179629593,0,0,0,,0,165,165,109,1,,,,
,,,,,,6110f0e3082812c7b2f617e6,66a626ef09d4e21e1a8894ec,6734e29b9dee0d0d382838ae,2024-11-13_18h32.58.513,Tarea de género gramatical,2024.2.2,Win32,58.47953216,,,,,,,,,,,,,,,,,,,,,,,461.2221,462.4039,l,1,0.5014,,[],[],[],[],[],[],[],0.5014,1,462.404,462.9039,,,,,,408,MAS,DIS,150,cheque,la,l,462.9039,462.9041,-0.187824097,-0.179629593,0,0,0,,0,166,166,407,1,,,,
,,,,,,6110f0e3082812c7b2f617e6,66a626ef09d4e21e1a8894ec,6734e29b9dee0d0d382838ae,2024-11-13_18h32.58.513,Tarea de género gramatical,2024.2.2,Win32,58.47953216,,,,,,,,,,,,,,,,,,,,,,,462.9049,463.9369,l,1,0.3579,,[],[],[],[],[],[],[],0.3579,1,463.9369,464.4365,,,,,,160,MAS,AGR,150,señor,el,l,464.4366,464.4366,-0.187824097,-0.179629593,0,0,0,,0,167,167,159,1,,,,
,,,,,,6110f0e3082812c7b2f617e6,66a626ef09d4e21e1a8894ec,6734e29b9dee0d0d382838ae,2024-11-13_18h32.58.513,Tarea de género gramatical,2024.2.2,Win32,58.47953216,,,,,,,,,,,,,,,,,,,,,,,464.4376,465.5528,a,1,0.4344,,[],[],[],[],[],[],[],0.4344,1,465.5529,466.0526,,,,,,201,FEM,DIS,150,leche,el,a,466.0533,466.0537,-0.187824097,-0.179629593,0,0,0,,0,168,168,200,1,,,,
,,,,,,6110f0e3082812c7b2f617e6,66a626ef09d4e21e1a8894ec,6734e29b9dee0d0d382838ae,2024-11-13_18h32.58.513,Tarea de género gramatical,2024.2.2,Win32,58.47953216,,,,,,,,,,,,,,,,,,,,,,,466.0543,467.2022,l,1,0.4766,,[],[],[],[],[],[],[],0.4766,1,467.2023,467.7022,,,,,,144,MAS,DIS,150,amor,la,l,467.7022,467.7023,-0.187824097,-0.179629593,0,0,0,,0,169,169,143,1,,,,
,,,,,,6110f0e3082812c7b2f617e6,66a626ef09d4e21e1a8894ec,6734e29b9dee0d0d382838ae,2024-11-13_18h32.58.513,Tarea de género gramatical,2024.2.2,Win32,58.47953216,,,,,,,,,,,,,,,,,,,,,,,467.703,468.8018,a,1,0.4185,,[],[],[],[],[],[],[],0.4185,1,468.8019,469.3017,,,,,,427,FEM,AGR,150,agenda,la,a,469.3018,469.3019,-0.187824097,-0.179629593,0,0,0,,0,170,170,426,1,,,,
,,,,,,6110f0e3082812c7b2f617e6,66a626ef09d4e21e1a8894ec,6734e29b9dee0d0d382838ae,2024-11-13_18h32.58.513,Tarea de género gramatical,2024.2.2,Win32,58.47953216,,,,,,,,,,,,,,,,,,,,,,,469.3028,470.3511,a,1,0.3794,,[],[],[],[],[],[],[],0.3794,1,470.3511,470.8508,,,,,,44,FEM,CON,150,zona,,a,470.8509,470.8509,-0.187824097,-0.179629593,0,0,0,,0,171,171,43,1,,,,
,,,,,,6110f0e3082812c7b2f617e6,66a626ef09d4e21e1a8894ec,6734e29b9dee0d0d382838ae,2024-11-13_18h32.58.513,Tarea de género gramatical,2024.2.2,Win32,58.47953216,,,,,,,,,,,,,,,,,,,,,,,470.8515,471.9342,l,1,0.4029,,[],[],[],[],[],[],[],0.4029,1,471.9343,472.4337,,,,,,359,MAS,CON,150,bosque,,l,472.4338,472.4339,-0.187824097,-0.179629593,0,0,0,,0,172,172,358,1,,,,
,,,,,,6110f0e3082812c7b2f617e6,66a626ef09d4e21e1a8894ec,6734e29b9dee0d0d382838ae,2024-11-13_18h32.58.513,Tarea de género gramatical,2024.2.2,Win32,58.47953216,,,,,,,,,,,,,,,,,,,,,,,472.4347,473.9666,a,1,0.8485,,[],[],[],[],[],[],[],0.8485,1,473.9667,474.4664,,,,,,345,FEM,DIS,150,pierna,el,a,474.4673,474.4677,-0.187824097,-0.179629593,0,0,0,,0,173,173,344,1,,,,
,,,,,,6110f0e3082812c7b2f617e6,66a626ef09d4e21e1a8894ec,6734e29b9dee0d0d382838ae,2024-11-13_18h32.58.513,Tarea de género gramatical,2024.2.2,Win32,58.47953216,,,,,,,,,,,,,,,,,,,,,,,474.4682,475.6499,l,1,0.4994,,[],[],[],[],[],[],[],0.4994,1,475.65,476.1494,,,,,,412,MAS,AGR,150,espejo,el,l,476.1494,476.1495,-0.187824097,-0.179629593,0,0,0,,0,174,174,411,1,,,,
,,,,,,6110f0e3082812c7b2f617e6,66a626ef09d4e21e1a8894ec,6734e29b9dee0d0d382838ae,2024-11-13_18h32.58.513,Tarea de género gramatical,2024.2.2,Win32,58.47953216,,,,,,,,,,,,,,,,,,,,,,,476.1505,477.3659,l,1,0.5358,,[],[],[],[],[],[],[],0.5358,1,477.366,477.8655,,,,,,4,MAS,AGR,150,hijo,el,l,477.8656,477.8656,-0.187824097,-0.179629593,0,0,0,,0,175,175,3,1,,,,
,,,,,,6110f0e3082812c7b2f617e6,66a626ef09d4e21e1a8894ec,6734e29b9dee0d0d382838ae,2024-11-13_18h32.58.513,Tarea de género gramatical,2024.2.2,Win32,58.47953216,,,,,,,,,,,,,,,,,,,,,,,477.8666,479.4314,a,1,0.8907,,[],[],[],[],[],[],[],0.8907,1,479.4315,479.9311,,,,,,73,FEM,AGR,150,roca,la,a,479.9311,479.9312,-0.187824097,-0.179629593,0,0,0,,0,176,176,72,1,,,,
,,,,,,6110f0e3082812c7b2f617e6,66a626ef09d4e21e1a8894ec,6734e29b9dee0d0d382838ae,2024-11-13_18h32.58.513,Tarea de género gramatical,2024.2.2,Win32,58.47953216,,,,,,,,,,,,,,,,,,,,,,,479.9319,481.0141,a,1,0.4122,,[],[],[],[],[],[],[],0.4122,1,481.0142,481.5142,,,,,,253,FEM,AGR,150,aldea,la,a,481.5153,481.5158,-0.187824097,-0.179629593,0,0,0,,0,177,177,252,1,,,,
,,,,,,6110f0e3082812c7b2f617e6,66a626ef09d4e21e1a8894ec,6734e29b9dee0d0d382838ae,2024-11-13_18h32.58.513,Tarea de género gramatical,2024.2.2,Win32,58.47953216,,,,,,,,,,,,,,,,,,,,,,,481.5162,482.7972,l,1,0.608,,[],[],[],[],[],[],[],0.608,1,482.7973,483.2967,,,,,,407,MAS,CON,150,jurado,,l,483.2968,483.2968,-0.187824097,-0.179629593,0,0,0,,0,178,178,406,1,,,,
,,,,,,6110f0e3082812c7b2f617e6,66a626ef09d4e21e1a8894ec,6734e29b9dee0d0d382838ae,2024-11-13_18h32.58.513,Tarea de género gramatical,2024.2.2,Win32,58.47953216,,,,,,,,,,,,,,,,,,,,,,,483.2974,484.6802,l,1,0.7045,,[],[],[],[],[],[],[],0.7045,1,484.6802,485.1795,,,,,,353,MAS,CON,150,verano,,l,485.1795,485.1796,-0.187824097,-0.179629593,0,0,0,,0,179,179,352,1,,,,
,,,,,,6110f0e3082812c7b2f617e6,66a626ef09d4e21e1a8894ec,6734e29b9dee0d0d382838ae,2024-11-13_18h32.58.513,Tarea de género gramatical,2024.2.2,Win32,58.47953216,,,,,,,,,,,,,,,,,,,,,,,485.1806,486.6791,a,1,0.8182,,[],[],[],[],[],[],[],0.8182,1,486.6791,487.179,,,,,,67,FEM,AGR,150,miel,la,a,487.179,487.1792,-0.187824097,-0.179629593,0,0,0,,0,180,180,66,1,,,,
,,,,,,6110f0e3082812c7b2f617e6,66a626ef09d4e21e1a8894ec,6734e29b9dee0d0d382838ae,2024-11-13_18h32.58.513,Tarea de género gramatical,2024.2.2,Win32,58.47953216,,,,,,,,,,,,,,,,,,,,,,,487.1804,488.3285,l,1,0.4806,,[],[],[],[],[],[],[],0.4806,1,488.3286,488.8285,,,,,,347,MAS,CON,150,cuello,,l,488.8286,488.8287,-0.187824097,-0.179629593,0,0,0,,0,181,181,346,1,,,,
,,,,,,6110f0e3082812c7b2f617e6,66a626ef09d4e21e1a8894ec,6734e29b9dee0d0d382838ae,2024-11-13_18h32.58.513,Tarea de género gramatical,2024.2.2,Win32,58.47953216,,,,,,,,,,,,,,,,,,,,,,,488.8297,490.0113,l,1,0.5007,,[],[],[],[],[],[],[],0.5007,1,490.0114,490.5113,,,,,,184,MAS,AGR,150,cielo,el,l,490.5126,490.5132,-0.187824097,-0.179629593,0,0,0,,0,182,182,183,1,,,,
,,,,,,6110f0e3082812c7b2f617e6,66a626ef09d4e21e1a8894ec,6734e29b9dee0d0d382838ae,2024-11-13_18h32.58.513,Tarea de género gramatical,2024.2.2,Win32,58.47953216,,,,,,,,,,,,,,,,,,,,,,,490.5141,491.7271,l,0,0.5439,,[],[],[],[],[],[],[],0.5439,0,491.7278,492.2269,,,,,,302,FEM,CON,150,cabeza,,a,492.227,492.2271,-0.187824097,-0.179629593,0,0,0,,0,183,183,301,1,,,,
,,,,,,6110f0e3082812c7b2f617e6,66a626ef09d4e21e1a8894ec,6734e29b9dee0d0d382838ae,2024-11-13_18h32.58.513,Tarea de género gramatical,2024.2.2,Win32,58.47953216,,,,,,,,,,,,,,,,,,,,,,,492.228,493.4435,a,1,0.5332,,[],[],[],[],[],[],[],0.5332,1,493.4446,493.9431,,,,,,55,FEM,AGR,150,taza,la,a,493.9432,493.9432,-0.187824097,-0.179629593,0,0,0,,0,184,184,54,1,,,,
,,,,,,6110f0e3082812c7b2f617e6,66a626ef09d4e21e1a8894ec,6734e29b9dee0d0d382838ae,2024-11-13_18h32.58.513,Tarea de género gramatical,2024.2.2,Win32,58.47953216,,,,,,,,,,,,,,,,,,,,,,,493.9438,495.4431,a,1,0.8182,,[],[],[],[],[],[],[],0.8182,1,495.4432,495.9426,,,,,,49,FEM,AGR,150,piel,la,a,495.9427,495.9427,-0.187824097,-0.179629593,0,0,0,,0,185,185,48,1,,,,
,,,,,,6110f0e3082812c7b2f617e6,66a626ef09d4e21e1a8894ec,6734e29b9dee0d0d382838ae,2024-11-13_18h32.58.513,Tarea de género gramatical,2024.2.2,Win32,58.47953216,,,,,,,,,,,,,,,,,,,,,,,495.9436,497.5257,a,1,0.8997,,[],[],[],[],[],[],[],0.8997,1,497.5257,498.0249,,,,,,435,FEM,DIS,150,niebla,el,a,498.0256,498.0263,-0.187824097,-0.179629593,0,0,0,,0,186,186,434,1,,,,
,,,,,,6110f0e3082812c7b2f617e6,66a626ef09d4e21e1a8894ec,6734e29b9dee0d0d382838ae,2024-11-13_18h32.58.513,Tarea de género gramatical,2024.2.2,Win32,58.47953216,,,,,,,,,,,,,,,,,,,,,,,498.0271,499.225,l,1,0.5164,,[],[],[],[],[],[],[],0.5164,1,499.225,499.7249,,,,,,65,MAS,CON,150,rayo,,l,499.725,499.7251,-0.187824097,-0.179629593,0,0,0,,0,187,187,64,1,,,,
,,,,,,6110f0e3082812c7b2f617e6,66a626ef09d4e21e1a8894ec,6734e29b9dee0d0d382838ae,2024-11-13_18h32.58.513,Tarea de género gramatical,2024.2.2,Win32,58.47953216,,,,,,,,,,,,,,,,,,,,,,,499.726,500.8242,a,1,0.4209,,[],[],[],[],[],[],[],0.4209,1,500.8243,501.3239,,,,,,181,FEM,AGR,150,tarde,la,a,501.324,501.324,-0.187824097,-0.179629593,0,0,0,,0,188,188,180,1,,,,
,,,,,,6110f0e3082812c7b2f617e6,66a626ef09d4e21e1a8894ec,6734e29b9dee0d0d382838ae,2024-11-13_18h32.58.513,Tarea de género gramatical,2024.2.2,Win32,58.47953216,,,,,,,,,,,,,,,,,,,,,,,501.3249,502.4067,l,1,0.4058,,[],[],[],[],[],[],[],0.4058,1,502.4068,502.9065,,,,,,174,MAS,DIS,150,perro,la,l,502.9066,502.9066,-0.187824097,-0.179629593,0,0,0,,0,189,189,173,1,,,,
,,,,,,6110f0e3082812c7b2f617e6,66a626ef09d4e21e1a8894ec,6734e29b9dee0d0d382838ae,2024-11-13_18h32.58.513,Tarea de género gramatical,2024.2.2,Win32,58.47953216,,,,,,,,,,,,,,,,,,,,,,,502.9074,504.1897,a,1,0.6102,,[],[],[],[],[],[],[],0.6102,1,504.1898,504.6893,,,,,,301,FEM,AGR,150,verdad,la,a,504.6894,504.6896,-0.187824097,-0.179629593,0,0,0,,0,190,190,300,1,,,,
,,,,,,6110f0e3082812c7b2f617e6,66a626ef09d4e21e1a8894ec,6734e29b9dee0d0d382838ae,2024-11-13_18h32.58.513,Tarea de género gramatical,2024.2.2,Win32,58.47953216,,,,,,,,,,,,,,,,,,,,,,,504.6905,505.8057,a,1,0.4418,,[],[],[],[],[],[],[],0.4418,1,505.8057,506.3054,,,,,,351,FEM,DIS,150,espada,el,a,506.3065,506.3072,-0.187824097,-0.179629593,0,0,0,,0,191,191,350,1,,,,
,,,,,,6110f0e3082812c7b2f617e6,66a626ef09d4e21e1a8894ec,6734e29b9dee0d0d382838ae,2024-11-13_18h32.58.513,Tarea de género gramatical,2024.2.2,Win32,58.47953216,,,,,,,,,,,,,,,,,,,,,,,506.3079,507.7552,a,0,0.7717,,[],[],[],[],[],[],[],0.7717,0,507.756,508.2548,,,,,,275,MAS,CON,150,disco,,l,508.2548,508.2549,-0.187824097,-0.179629593,0,0,0,,0,192,192,274,1,,,,
,,,,,,6110f0e3082812c7b2f617e6,66a626ef09d4e21e1a8894ec,6734e29b9dee0d0d382838ae,2024-11-13_18h32.58.513,Tarea de género gramatical,2024.2.2,Win32,58.47953216,,,,,,,,,,,,,,,,,,,,,,,508.2557,509.9876,a,1,1.0581,,[],[],[],[],[],[],[],1.0581,1,509.9884,510.4874,,,,,,224,FEM,CON,150,arena,,a,510.4874,510.4875,-0.187824097,-0.179629593,0,0,0,,0,193,193,223,1,,,,
,,,,,,6110f0e3082812c7b2f617e6,66a626ef09d4e21e1a8894ec,6734e29b9dee0d0d382838ae,2024-11-13_18h32.58.513,Tarea de género gramatical,2024.2.2,Win32,58.47953216,,,,,,,,,,,,,,,,,,,,,,,510.4882,511.6202,a,1,0.4573,,[],[],[],[],[],[],[],0.4573,1,511.6202,512.1201,,,,,,169,FEM,AGR,150,vista,la,a,512.1201,512.1202,-0.187824097,-0.179629593,0,0,0,,0,194,194,168,1,,,,
,,,,,,6110f0e3082812c7b2f617e6,66a626ef09d4e21e1a8894ec,6734e29b9dee0d0d382838ae,2024-11-13_18h32.58.513,Tarea de género gramatical,2024.2.2,Win32,58.47953216,,,,,,,,,,,,,,,,,,,,,,,512.1211,513.3197,l,1,0.5164,,[],[],[],[],[],[],[],0.5164,1,513.3198,513.8195,,,,,,336,MAS,DIS,150,crimen,la,l,513.8205,513.8211,-0.187824097,-0.179629593,0,0,0,,0,195,195,335,1,,,,
,,,,,,6110f0e3082812c7b2f617e6,66a626ef09d4e21e1a8894ec,6734e29b9dee0d0d382838ae,2024-11-13_18h32.58.513,Tarea de género gramatical,2024.2.2,Win32,58.47953216,,,,,,,,,,,,,,,,,,,,,,,513.8218,515.2524,l,1,0.7539,,[],[],[],[],[],[],[],0.7539,1,515.2524,515.7522,,,,,,269,MAS,CON,150,primo,,l,515.7522,515.7523,-0.187824097,-0.179629593,0,0,0,,0,196,196,268,1,,,,
,,,,,,6110f0e3082812c7b2f617e6,66a626ef09d4e21e1a8894ec,6734e29b9dee0d0d382838ae,2024-11-13_18h32.58.513,Tarea de género gramatical,2024.2.2,Win32,58.47953216,,,,,,,,,,,,,,,,,,,,,,,515.7531,516.8518,a,1,0.4163,,[],[],[],[],[],[],[],0.4163,1,516.8519,517.3516,,,,,,410,FEM,CON,150,piedad,,a,517.3516,517.3518,-0.187824097,-0.179629593,0,0,0,,0,197,197,409,1,,,,
,,,,,,6110f0e3082812c7b2f617e6,66a626ef09d4e21e1a8894ec,6734e29b9dee0d0d382838ae,2024-11-13_18h32.58.513,Tarea de género gramatical,2024.2.2,Win32,58.47953216,,,,,,,,,,,,,,,,,,,,,,,517.3527,519.2343,l,1,1.2067,,[],[],[],[],[],[],[],1.2067,1,519.2345,519.7343,,,,,,132,MAS,DIS,150,velo,la,l,519.7343,519.7343,-0.187824097,-0.179629593,0,0,0,,0,198,198,131,1,,,,
,,,,,,6110f0e3082812c7b2f617e6,66a626ef09d4e21e1a8894ec,6734e29b9dee0d0d382838ae,2024-11-13_18h32.58.513,Tarea de género gramatical,2024.2.2,Win32,58.47953216,,,,,,,,,,,,,,,,,,,,,,,519.7353,521.1337,l,1,0.7237,,[],[],[],[],[],[],[],0.7237,1,521.1338,521.6337,,,,,,252,MAS,DIS,150,viejo,la,l,521.6337,521.6338,-0.187824097,-0.179629593,0,0,0,,0,199,199,251,1,,,,
,,,,,,6110f0e3082812c7b2f617e6,66a626ef09d4e21e1a8894ec,6734e29b9dee0d0d382838ae,2024-11-13_18h32.58.513,Tarea de género gramatical,2024.2.2,Win32,58.47953216,,,,,,,,,,,,,,,,,,,,,,,521.6348,522.7332,a,1,0.4194,,[],[],[],[],[],[],[],0.4194,1,522.7333,523.233,,,,,,165,FEM,DIS,150,amiga,el,a,523.2337,523.2341,-0.187824097,-0.179629593,0,0,0,,0,200,200,164,1,,,,
,,,,,,6110f0e3082812c7b2f617e6,66a626ef09d4e21e1a8894ec,6734e29b9dee0d0d382838ae,2024-11-13_18h32.58.513,Tarea de género gramatical,2024.2.2,Win32,58.47953216,,,,,,,,,,,,,,,,,,,,,,,523.2346,524.4494,l,1,0.5324,,[],[],[],[],[],[],[],0.5324,1,524.4494,524.949,,,,,,270,MAS,DIS,150,queso,la,l,524.949,524.9492,-0.187824097,-0.179629593,0,0,0,,0,201,201,269,1,,,,
,,,,,,6110f0e3082812c7b2f617e6,66a626ef09d4e21e1a8894ec,6734e29b9dee0d0d382838ae,2024-11-13_18h32.58.513,Tarea de género gramatical,2024.2.2,Win32,58.47953216,,,,,,,,,,,,,,,,,,,,,,,524.95,526.0487,l,1,0.429,,[],[],[],[],[],[],[],0.429,1,526.0487,526.5486,,,,,,268,MAS,AGR,150,truco,el,l,526.5486,526.5486,-0.187824097,-0.179629593,0,0,0,,0,202,202,267,1,,,,
,,,,,,6110f0e3082812c7b2f617e6,66a626ef09d4e21e1a8894ec,6734e29b9dee0d0d382838ae,2024-11-13_18h32.58.513,Tarea de género gramatical,2024.2.2,Win32,58.47953216,,,,,,,,,,,,,,,,,,,,,,,526.5497,527.5982,l,1,0.374,,[],[],[],[],[],[],[],0.374,1,527.5982,528.098,,,,,,149,MAS,CON,150,nudo,,l,528.098,528.0981,-0.187824097,-0.179629593,0,0,0,,0,203,203,148,1,,,,
,,,,,,6110f0e3082812c7b2f617e6,66a626ef09d4e21e1a8894ec,6734e29b9dee0d0d382838ae,2024-11-13_18h32.58.513,Tarea de género gramatical,2024.2.2,Win32,58.47953216,,,,,,,,,,,,,,,,,,,,,,,528.0991,529.2142,l,1,0.4445,,[],[],[],[],[],[],[],0.4445,1,529.2142,529.714,,,,,,395,MAS,CON,150,correo,,l,529.7151,529.7156,-0.187824097,-0.179629593,0,0,0,,0,204,204,394,1,,,,
,,,,,,6110f0e3082812c7b2f617e6,66a626ef09d4e21e1a8894ec,6734e29b9dee0d0d382838ae,2024-11-13_18h32.58.513,Tarea de género gramatical,2024.2.2,Win32,58.47953216,,,,,,,,,,,,,,,,,,,,,,,529.7161,530.9804,l,1,0.5855,,[],[],[],[],[],[],[],0.5855,1,530.9805,531.4804,,,,,,239,MAS,CON,150,reloj,,l,531.4805,531.4806,-0.187824097,-0.179629593,0,0,0,,0,205,205,238,1,,,,
,,,,,,6110f0e3082812c7b2f617e6,66a626ef09d4e21e1a8894ec,6734e29b9dee0d0d382838ae,2024-11-13_18h32.58.513,Tarea de género gramatical,2024.2.2,Win32,58.47953216,,,,,,,,,,,,,,,,,,,,,,,531.4814,532.6464,a,1,0.489,,[],[],[],[],[],[],[],0.489,1,532.6465,533.1461,,,,,,25,FEM,AGR,150,nave,la,a,533.1461,533.1462,-0.187824097,-0.179629593,0,0,0,,0,206,206,24,1,,,,
,,,,,,6110f0e3082812c7b2f617e6,66a626ef09d4e21e1a8894ec,6734e29b9dee0d0d382838ae,2024-11-13_18h32.58.513,Tarea de género gramatical,2024.2.2,Win32,58.47953216,,,,,,,,,,,,,,,,,,,,,,,533.1471,534.329,l,1,0.5034,,[],[],[],[],[],[],[],0.5034,1,534.3291,534.8289,,,,,,88,MAS,AGR,150,pavo,el,l,534.8289,534.8291,-0.187824097,-0.179629593,0,0,0,,0,207,207,87,1,,,,
,,,,,,6110f0e3082812c7b2f617e6,66a626ef09d4e21e1a8894ec,6734e29b9dee0d0d382838ae,2024-11-13_18h32.58.513,Tarea de género gramatical,2024.2.2,Win32,58.47953216,,,,,,,,,,,,,,,,,,,,,,,534.8297,535.8953,l,1,0.3854,,[],[],[],[],[],[],[],0.3854,1,535.8954,536.395,,,,,,390,MAS,DIS,150,rostro,la,l,536.395,536.3951,-0.187824097,-0.179629593,0,0,0,,0,208,208,389,1,,,,
,,,,,,6110f0e3082812c7b2f617e6,66a626ef09d4e21e1a8894ec,6734e29b9dee0d0d382838ae,2024-11-13_18h32.58.513,Tarea de género gramatical,2024.2.2,Win32,58.47953216,,,,,,,,,,,,,,,,,,,,,,,536.3958,537.4946,l,1,0.4237,,[],[],[],[],[],[],[],0.4237,1,537.4947,537.9947,,,,,,346,MAS,AGR,150,juicio,el,l,537.9957,537.9963,-0.187824097,-0.179629593,0,0,0,,0,209,209,345,1,,,,
,,,,,,6110f0e3082812c7b2f617e6,66a626ef09d4e21e1a8894ec,6734e29b9dee0d0d382838ae,2024-11-13_18h32.58.513,Tarea de género gramatical,2024.2.2,Win32,58.47953216,,,,,,,,,,,,,,,,,,,,,,,537.9968,539.0941,l,1,0.4299,,[],[],[],[],[],[],[],0.4299,1,539.0941,539.5941,,,,,,442,MAS,AGR,150,cuadro,el,l,539.5942,539.5942,-0.187824097,-0.179629593,0,0,0,,0,210,210,441,1,,,,
,,,,,,6110f0e3082812c7b2f617e6,66a626ef09d4e21e1a8894ec,6734e29b9dee0d0d382838ae,2024-11-13_18h32.58.513,Tarea de género gramatical,2024.2.2,Win32,58.47953216,,,,,,,,,,,,,,,,,,,,,,,539.5951,540.8269,a,1,0.5608,,[],[],[],[],[],[],[],0.5608,1,540.8269,541.3269,,,,,,213,FEM,DIS,150,magia,el,a,541.3269,541.327,-0.187824097,-0.179629593,0,0,0,,0,211,211,212,1,,,,
,,,,,,6110f0e3082812c7b2f617e6,66a626ef09d4e21e1a8894ec,6734e29b9dee0d0d382838ae,2024-11-13_18h32.58.513,Tarea de género gramatical,2024.2.2,Win32,58.47953216,,,,,,,,,,,,,,,,,,,,,,,541.3279,542.5097,l,0,0.5011,,[],[],[],[],[],[],[],0.5011,0,542.5102,543.0095,,,,,,159,FEM,DIS,150,clase,el,a,543.0095,543.0097,-0.187824097,-0.179629593,0,0,0,,0,212,212,158,1,,,,
,,,,,,6110f0e3082812c7b2f617e6,66a626ef09d4e21e1a8894ec,6734e29b9dee0d0d382838ae,2024-11-13_18h32.58.513,Tarea de género gramatical,2024.2.2,Win32,58.47953216,,,,,,,,,,,,,,,,,,,,,,,543.0104,544.0926,a,1,0.4042,,[],[],[],[],[],[],[],0.4042,1,544.0933,544.5921,,,,,,3,FEM,DIS,150,cosa,el,a,544.593,544.5936,-0.187824097,-0.179629593,0,0,0,,0,213,213,2,1,,,,
,,,,,,6110f0e3082812c7b2f617e6,66a626ef09d4e21e1a8894ec,6734e29b9dee0d0d382838ae,2024-11-13_18h32.58.513,Tarea de género gramatical,2024.2.2,Win32,58.47953216,,,,,,,,,,,,,,,,,,,,,,,544.5943,545.9086,l,1,0.6406,,[],[],[],[],[],[],[],0.6406,1,545.9087,546.4083,,,,,,228,MAS,DIS,150,nivel,la,l,546.4083,546.4084,-0.187824097,-0.179629593,0,0,0,,0,214,214,227,1,,,,
,,,,,,6110f0e3082812c7b2f617e6,66a626ef09d4e21e1a8894ec,6734e29b9dee0d0d382838ae,2024-11-13_18h32.58.513,Tarea de género gramatical,2024.2.2,Win32,58.47953216,,,,,,,,,,,,,,,,,,,,,,,546.4093,547.4745,a,1,0.3934,,[],[],[],[],[],[],[],0.3934,1,547.4747,547.9746,,,,,,428,FEM,CON,150,jugada,,a,547.9747,547.9748,-0.187824097,-0.179629593,0,0,0,,0,215,215,427,1,,,,
,,,,,,6110f0e3082812c7b2f617e6,66a626ef09d4e21e1a8894ec,6734e29b9dee0d0d382838ae,2024-11-13_18h32.58.513,Tarea de género gramatical,2024.2.2,Win32,58.47953216,,,,,,,,,,,,,,,,,,,,,,,547.9757,549.1907,l,1,0.5382,,[],[],[],[],[],[],[],0.5382,1,549.1907,549.6904,,,,,,388,MAS,AGR,150,empleo,el,l,549.6905,549.6906,-0.187824097,-0.179629593,0,0,0,,0,216,216,387,1,,,,
,,,,,,6110f0e3082812c7b2f617e6,66a626ef09d4e21e1a8894ec,6734e29b9dee0d0d382838ae,2024-11-13_18h32.58.513,Tarea de género gramatical,2024.2.2,Win32,58.47953216,,,,,,,,,,,,,,,,,,,,,,,549.6916,550.94,l,1,0.5685,,[],[],[],[],[],[],[],0.5685,1,550.9401,551.44,,,,,,72,MAS,DIS,150,hoyo,la,l,551.4401,551.4402,-0.187824097,-0.179629593,0,0,0,,0,217,217,71,1,,,,
,,,,,,6110f0e3082812c7b2f617e6,66a626ef09d4e21e1a8894ec,6734e29b9dee0d0d382838ae,2024-11-13_18h32.58.513,Tarea de género gramatical,2024.2.2,Win32,58.47953216,,,,,,,,,,,,,,,,,,,,,,,551.4412,552.5398,a,1,0.4225,,[],[],[],[],[],[],[],0.4225,1,552.5399,553.0393,,,,,,283,FEM,AGR,150,pluma,la,a,553.0401,553.0408,-0.187824097,-0.179629593,0,0,0,,0,218,218,282,1,,,,
,,,,,,6110f0e3082812c7b2f617e6,66a626ef09d4e21e1a8894ec,6734e29b9dee0d0d382838ae,2024-11-13_18h32.58.513,Tarea de género gramatical,2024.2.2,Win32,58.47953216,,,,,,,,,,,,,,,,,,,,,,,553.0415,555.2554,a,1,1.5471,,[],[],[],[],[],[],[],1.5471,1,555.2555,555.7554,,,,,,385,FEM,AGR,150,muñeca,la,a,555.7554,555.7555,-0.187824097,-0.179629593,0,0,0,,0,219,219,384,1,,,,
,,,,,,6110f0e3082812c7b2f617e6,66a626ef09d4e21e1a8894ec,6734e29b9dee0d0d382838ae,2024-11-13_18h32.58.513,Tarea de género gramatical,2024.2.2,Win32,58.47953216,,,,,,,,,,,,,,,,,,,,,,,555.7561,557.1379,l,0,0.7141,,[],[],[],[],[],[],[],0.7141,0,557.1385,557.638,,,,,,411,FEM,DIS,150,actriz,el,a,557.6381,557.6381,-0.187824097,-0.179629593,0,0,0,,0,220,220,410,1,,,,
,,,,,,6110f0e3082812c7b2f617e6,66a626ef09d4e21e1a8894ec,6734e29b9dee0d0d382838ae,2024-11-13_18h32.58.513,Tarea de género gramatical,2024.2.2,Win32,58.47953216,,,,,,,,,,,,,,,,,,,,,,,557.6389,558.7879,l,1,0.4734,,[],[],[],[],[],[],[],0.4734,1,558.7885,559.2878,,,,,,414,MAS,DIS,150,sótano,la,l,559.2879,559.2879,-0.187824097,-0.179629593,0,0,0,,0,221,221,413,1,,,,
,,,,,,6110f0e3082812c7b2f617e6,66a626ef09d4e21e1a8894ec,6734e29b9dee0d0d382838ae,2024-11-13_18h32.58.513,Tarea de género gramatical,2024.2.2,Win32,58.47953216,,,,,,,,,,,,,,,,,,,,,,,559.2886,560.4037,l,1,0.4345,,[],[],[],[],[],[],[],0.4345,1,560.4038,560.9037,,,,,,431,MAS,CON,150,veneno,,l,560.905,560.9055,-0.187824097,-0.179629593,0,0,0,,0,222,222,430,1,,,,
,,,,,,6110f0e3082812c7b2f617e6,66a626ef09d4e21e1a8894ec,6734e29b9dee0d0d382838ae,2024-11-13_18h32.58.513,Tarea de género gramatical,2024.2.2,Win32,58.47953216,,,,,,,,,,,,,,,,,,,,,,,560.9059,562.0199,a,1,0.4387,,[],[],[],[],[],[],[],0.4387,1,562.02,562.5201,,,,,,19,FEM,AGR,150,niña,la,a,562.5202,562.5203,-0.187824097,-0.179629593,0,0,0,,0,223,223,18,1,,,,
,,,,,,6110f0e3082812c7b2f617e6,66a626ef09d4e21e1a8894ec,6734e29b9dee0d0d382838ae,2024-11-13_18h32.58.513,Tarea de género gramatical,2024.2.2,Win32,58.47953216,,,,,,,,,,,,,,,,,,,,,,,562.521,563.6363,l,1,0.433,,[],[],[],[],[],[],[],0.433,1,563.6363,564.1359,,,,,,250,MAS,AGR,150,cerdo,el,l,564.1359,564.136,-0.187824097,-0.179629593,0,0,0,,0,224,224,249,1,,,,
,,,,,,6110f0e3082812c7b2f617e6,66a626ef09d4e21e1a8894ec,6734e29b9dee0d0d382838ae,2024-11-13_18h32.58.513,Tarea de género gramatical,2024.2.2,Win32,58.47953216,,,,,,,,,,,,,,,,,,,,,,,564.1369,565.2019,a,1,0.3864,,[],[],[],[],[],[],[],0.3864,1,565.2019,565.7018,,,,,,374,FEM,CON,150,herida,,a,565.7019,565.702,-0.187824097,-0.179629593,0,0,0,,0,225,225,373,1,,,,
,,,,,,6110f0e3082812c7b2f617e6,66a626ef09d4e21e1a8894ec,6734e29b9dee0d0d382838ae,2024-11-13_18h32.58.513,Tarea de género gramatical,2024.2.2,Win32,58.47953216,,,,,,,,,,,,,,,,,,,,,,,565.7029,566.9512,l,1,0.577,,[],[],[],[],[],[],[],0.577,1,566.9513,567.4515,,,,,,221,MAS,CON,150,brazo,,l,567.4516,567.4517,-0.187824097,-0.179629593,0,0,0,,0,226,226,220,1,,,,
,,,,,,6110f0e3082812c7b2f617e6,66a626ef09d4e21e1a8894ec,6734e29b9dee0d0d382838ae,2024-11-13_18h32.58.513,Tarea de género gramatical,2024.2.2,Win32,58.47953216,,,,,,,,,,,,,,,,,,,,,,,567.4528,568.6005,l,1,0.4765,,[],[],[],[],[],[],[],0.4765,1,568.6007,569.1007,,,,,,358,MAS,AGR,150,motivo,el,l,569.1019,569.1024,-0.187824097,-0.179629593,0,0,0,,0,227,227,357,1,,,,
,,,,,,6110f0e3082812c7b2f617e6,66a626ef09d4e21e1a8894ec,6734e29b9dee0d0d382838ae,2024-11-13_18h32.58.513,Tarea de género gramatical,2024.2.2,Win32,58.47953216,,,,,,,,,,,,,,,,,,,,,,,569.1028,570.4502,l,1,0.666,,[],[],[],[],[],[],[],0.666,1,570.4503,570.9501,,,,,,389,MAS,CON,150,tamaño,,l,570.9501,570.9502,-0.187824097,-0.179629593,0,0,0,,0,228,228,388,1,,,,
,,,,,,6110f0e3082812c7b2f617e6,66a626ef09d4e21e1a8894ec,6734e29b9dee0d0d382838ae,2024-11-13_18h32.58.513,Tarea de género gramatical,2024.2.2,Win32,58.47953216,,,,,,,,,,,,,,,,,,,,,,,570.9512,572.0999,l,1,0.475,,[],[],[],[],[],[],[],0.475,1,572.0999,572.5995,,,,,,352,MAS,AGR,150,estilo,el,l,572.5996,572.5997,-0.187824097,-0.179629593,0,0,0,,0,229,229,351,1,,,,
,,,,,,6110f0e3082812c7b2f617e6,66a626ef09d4e21e1a8894ec,6734e29b9dee0d0d382838ae,2024-11-13_18h32.58.513,Tarea de género gramatical,2024.2.2,Win32,58.47953216,,,,,,,,,,,,,,,,,,,,,,,572.6004,573.6995,l,1,0.4198,,[],[],[],[],[],[],[],0.4198,1,573.6997,574.1989,,,,,,222,MAS,DIS,150,valor,la,l,574.1991,574.1992,-0.187824097,-0.179629593,0,0,0,,0,230,230,221,1,,,,
,,,,,,6110f0e3082812c7b2f617e6,66a626ef09d4e21e1a8894ec,6734e29b9dee0d0d382838ae,2024-11-13_18h32.58.513,Tarea de género gramatical,2024.2.2,Win32,58.47953216,,,,,,,,,,,,,,,,,,,,,,,574.2001,575.4156,a,1,0.5403,,[],[],[],[],[],[],[],0.5403,1,575.4156,575.9146,,,,,,122,FEM,CON,150,loca,,a,575.9153,575.916,-0.187824097,-0.179629593,0,0,0,,0,231,231,121,1,,,,
,,,,,,6110f0e3082812c7b2f617e6,66a626ef09d4e21e1a8894ec,6734e29b9dee0d0d382838ae,2024-11-13_18h32.58.513,Tarea de género gramatical,2024.2.2,Win32,58.47953216,,,,,,,,,,,,,,,,,,,,,,,575.9166,577.048,l,1,0.4552,,[],[],[],[],[],[],[],0.4552,1,577.0481,577.548,,,,,,311,MAS,CON,150,camino,,l,577.548,577.5481,-0.187824097,-0.179629593,0,0,0,,0,232,232,310,1,,,,
,,,,,,6110f0e3082812c7b2f617e6,66a626ef09d4e21e1a8894ec,6734e29b9dee0d0d382838ae,2024-11-13_18h32.58.513,Tarea de género gramatical,2024.2.2,Win32,58.47953216,,,,,,,,,,,,,,,,,,,,,,,577.5493,578.6311,l,1,0.4001,,[],[],[],[],[],[],[],0.4001,1,578.6312,579.1307,,,,,,82,MAS,AGR,150,tubo,el,l,579.1308,579.1309,-0.187824097,-0.179629593,0,0,0,,0,233,233,81,1,,,,
,,,,,,6110f0e3082812c7b2f617e6,66a626ef09d4e21e1a8894ec,6734e29b9dee0d0d382838ae,2024-11-13_18h32.58.513,Tarea de género gramatical,2024.2.2,Win32,58.47953216,,,,,,,,,,,,,,,,,,,,,,,579.1321,580.3805,l,1,0.5761,,[],[],[],[],[],[],[],0.5761,1,580.3806,580.8802,,,,,,30,MAS,DIS,150,cine,la,l,580.8803,580.8804,-0.187824097,-0.179629593,0,0,0,,0,234,234,29,1,,,,
,,,,,,6110f0e3082812c7b2f617e6,66a626ef09d4e21e1a8894ec,6734e29b9dee0d0d382838ae,2024-11-13_18h32.58.513,Tarea de género gramatical,2024.2.2,Win32,58.47953216,,,,,,,,,,,,,,,,,,,,,,,580.8814,581.9795,a,1,0.4199,,[],[],[],[],[],[],[],0.4199,1,581.9796,582.4796,,,,,,367,FEM,AGR,150,teoría,la,a,582.4797,582.4799,-0.187824097,-0.179629593,0,0,0,,0,235,235,366,1,,,,
,,,,,,6110f0e3082812c7b2f617e6,66a626ef09d4e21e1a8894ec,6734e29b9dee0d0d382838ae,2024-11-13_18h32.58.513,Tarea de género gramatical,2024.2.2,Win32,58.47953216,,,,,,,,,,,,,,,,,,,,,,,582.4811,583.6295,l,1,0.4671,,[],[],[],[],[],[],[],0.4671,1,583.6295,584.1292,,,,,,322,MAS,AGR,150,minuto,el,l,584.1305,584.1309,-0.187824097,-0.179629593,0,0,0,,0,236,236,321,1,,,,
,,,,,,6110f0e3082812c7b2f617e6,66a626ef09d4e21e1a8894ec,6734e29b9dee0d0d382838ae,2024-11-13_18h32.58.513,Tarea de género gramatical,2024.2.2,Win32,58.47953216,,,,,,,,,,,,,,,,,,,,,,,584.1314,585.5951,a,1,0.783,,[],[],[],[],[],[],[],0.783,1,585.5952,586.095,,,,,,441,FEM,DIS,150,medida,el,a,586.095,586.0951,-0.187824097,-0.179629593,0,0,0,,0,237,237,440,1,,,,
,,,,,,6110f0e3082812c7b2f617e6,66a626ef09d4e21e1a8894ec,6734e29b9dee0d0d382838ae,2024-11-13_18h32.58.513,Tarea de género gramatical,2024.2.2,Win32,58.47953216,,,,,,,,,,,,,,,,,,,,,,,586.0962,587.1444,l,1,0.3786,,[],[],[],[],[],[],[],0.3786,1,587.1445,587.6445,,,,,,233,MAS,CON,150,golpe,,l,587.6446,587.6447,-0.187824097,-0.179629593,0,0,0,,0,238,238,232,1,,,,
,,,,,,6110f0e3082812c7b2f617e6,66a626ef09d4e21e1a8894ec,6734e29b9dee0d0d382838ae,2024-11-13_18h32.58.513,Tarea de género gramatical,2024.2.2,Win32,58.47953216,,,,,,,,,,,,,,,,,,,,,,,587.6456,588.7104,l,1,0.3891,,[],[],[],[],[],[],[],0.3891,1,588.7104,589.2104,,,,,,293,MAS,CON,150,patio,,l,589.2105,589.2105,-0.187824097,-0.179629593,0,0,0,,0,239,239,292,1,,,,
,,,,,,6110f0e3082812c7b2f617e6,66a626ef09d4e21e1a8894ec,6734e29b9dee0d0d382838ae,2024-11-13_18h32.58.513,Tarea de género gramatical,2024.2.2,Win32,58.47953216,,,,,,,,,,,,,,,,,,,,,,,589.2113,590.2269,l,1,0.3346,,[],[],[],[],[],[],[],0.3346,1,590.227,590.727,,,,,,394,MAS,AGR,150,examen,el,l,590.7282,590.7289,-0.187824097,-0.179629593,0,0,0,,0,240,240,393,1,,,,
,,,,,,6110f0e3082812c7b2f617e6,66a626ef09d4e21e1a8894ec,6734e29b9dee0d0d382838ae,2024-11-13_18h32.58.513,Tarea de género gramatical,2024.2.2,Win32,58.47953216,,,,,,,,,,,,,,,,,,,,,,,590.7298,591.7764,a,1,0.3692,,[],[],[],[],[],[],[],0.3692,1,591.7765,592.276,,,,,,355,FEM,AGR,150,mirada,la,a,592.2761,592.2762,-0.187824097,-0.179629593,0,0,0,,0,241,241,354,1,,,,
,,,,,,6110f0e3082812c7b2f617e6,66a626ef09d4e21e1a8894ec,6734e29b9dee0d0d382838ae,2024-11-13_18h32.58.513,Tarea de género gramatical,2024.2.2,Win32,58.47953216,,,,,,,,,,,,,,,,,,,,,,,592.2775,593.8588,l,1,0.9021,,[],[],[],[],[],[],[],0.9021,1,593.8589,594.3589,,,,,,246,MAS,DIS,150,humor,la,l,594.359,594.3591,-0.187824097,-0.179629593,0,0,0,,0,242,242,245,1,,,,
,,,,,,6110f0e3082812c7b2f617e6,66a626ef09d4e21e1a8894ec,6734e29b9dee0d0d382838ae,2024-11-13_18h32.58.513,Tarea de género gramatical,2024.2.2,Win32,58.47953216,,,,,,,,,,,,,,,,,,,,,,,594.3601,595.5915,l,1,0.5615,,[],[],[],[],[],[],[],0.5615,1,595.5916,596.091,,,,,,36,MAS,DIS,150,dedo,la,l,596.0911,596.0912,-0.187824097,-0.179629593,0,0,0,,0,243,243,35,1,,,,
,,,,,,6110f0e3082812c7b2f617e6,66a626ef09d4e21e1a8894ec,6734e29b9dee0d0d382838ae,2024-11-13_18h32.58.513,Tarea de género gramatical,2024.2.2,Win32,58.47953216,,,,,,,,,,,,,,,,,,,,,,,596.0919,597.2239,l,1,0.4638,,[],[],[],[],[],[],[],0.4638,1,597.224,597.7245,,,,,,126,MAS,DIS,150,lazo,la,l,597.7245,597.7246,-0.187824097,-0.179629593,0,0,0,,0,244,244,125,1,,,,
,,,,,,6110f0e3082812c7b2f617e6,66a626ef09d4e21e1a8894ec,6734e29b9dee0d0d382838ae,2024-11-13_18h32.58.513,Tarea de género gramatical,2024.2.2,Win32,58.47953216,,,,,,,,,,,,,,,,,,,,,,,597.7254,598.8402,l,1,0.4388,,[],[],[],[],[],[],[],0.4388,1,598.8403,599.3406,,,,,,348,MAS,DIS,150,anillo,la,l,599.3418,599.3424,-0.187824097,-0.179629593,0,0,0,,0,245,245,347,1,,,,
,,,,,,6110f0e3082812c7b2f617e6,66a626ef09d4e21e1a8894ec,6734e29b9dee0d0d382838ae,2024-11-13_18h32.58.513,Tarea de género gramatical,2024.2.2,Win32,58.47953216,,,,,,,,,,,,,,,,,,,,,,,599.343,600.473,a,1,0.4514,,[],[],[],[],[],[],[],0.4514,1,600.4731,600.9727,,,,,,146,FEM,CON,150,lana,,a,600.9728,600.9729,-0.187824097,-0.179629593,0,0,0,,0,246,246,145,1,,,,
,,,,,,6110f0e3082812c7b2f617e6,66a626ef09d4e21e1a8894ec,6734e29b9dee0d0d382838ae,2024-11-13_18h32.58.513,Tarea de género gramatical,2024.2.2,Win32,58.47953216,,,,,,,,,,,,,,,,,,,,,,,600.9737,602.0058,a,1,0.3616,,[],[],[],[],[],[],[],0.3616,1,602.0059,602.5059,,,,,,271,FEM,AGR,150,viuda,la,a,602.506,602.5062,-0.187824097,-0.179629593,0,0,0,,0,247,247,270,1,,,,
,,,,,,6110f0e3082812c7b2f617e6,66a626ef09d4e21e1a8894ec,6734e29b9dee0d0d382838ae,2024-11-13_18h32.58.513,Tarea de género gramatical,2024.2.2,Win32,58.47953216,,,,,,,,,,,,,,,,,,,,,,,602.507,603.8052,l,1,0.6192,,[],[],[],[],[],[],[],0.6192,1,603.8053,604.3049,,,,,,401,MAS,CON,150,abrigo,,l,604.305,604.3051,-0.187824097,-0.179629593,0,0,0,,0,248,248,400,1,,,,
,,,,,,6110f0e3082812c7b2f617e6,66a626ef09d4e21e1a8894ec,6734e29b9dee0d0d382838ae,2024-11-13_18h32.58.513,Tarea de género gramatical,2024.2.2,Win32,58.47953216,,,,,,,,,,,,,,,,,,,,,,,604.306,605.3046,l,1,0.3172,,[],[],[],[],[],[],[],0.3172,1,605.3047,605.8046,,,,,,305,MAS,CON,150,hombre,,l,605.8058,605.8063,-0.187824097,-0.179629593,0,0,0,,0,249,249,304,1,,,,
,,,,,,6110f0e3082812c7b2f617e6,66a626ef09d4e21e1a8894ec,6734e29b9dee0d0d382838ae,2024-11-13_18h32.58.513,Tarea de género gramatical,2024.2.2,Win32,58.47953216,,,,,,,,,,,,,,,,,,,,,,,605.8069,606.8547,a,1,0.3672,,[],[],[],[],[],[],[],0.3672,1,606.8548,607.3539,,,,,,303,FEM,DIS,150,maldad,el,a,607.354,607.354,-0.187824097,-0.179629593,0,0,0,,0,250,250,302,1,,,,
,,,,,,6110f0e3082812c7b2f617e6,66a626ef09d4e21e1a8894ec,6734e29b9dee0d0d382838ae,2024-11-13_18h32.58.513,Tarea de género gramatical,2024.2.2,Win32,58.47953216,,,,,,,,,,,,,,,,,,,,,,,607.355,608.4202,l,1,0.3959,,[],[],[],[],[],[],[],0.3959,1,608.4203,608.92,,,,,,276,MAS,DIS,150,ritmo,la,l,608.92,608.9202,-0.187824097,-0.179629593,0,0,0,,0,251,251,275,1,,,,
