counterbalancing_condition,consent_prescreening.block_1/declare_consent,consent_prescreening.block_1/age_years,consent_prescreening.block_1/gender,consent_prescreening.block_1/language_disorder,consent_prescreening.block_1/first_language,PROLIFIC_PID,STUDY_ID,SESSION_ID,date,expName,psychopyVersion,OS,frameRate,check_prescreening_answers.started,check_prescreening_answers.stopped,Instructions.started,Instructions.stopped,instr_done_keyboard.keys,instr_done_keyboard.rt,instr_done_keyboard.duration,instr_done_touch.x,instr_done_touch.y,instr_done_touch.leftButton,instr_done_touch.midButton,instr_done_touch.rightButton,instruction_pages.thisRepN,instruction_pages.thisTrialN,instruction_pages.thisN,instruction_pages.thisIndex,instruction_pages.ran,pageN,phase,instruct_text,has_image,instruct_image,presentTrial.started,presentTrial.stopped,response.keys,response.corr,touch_resp.x,touch_resp.y,touch_resp.leftButton,touch_resp.midButton,touch_resp.rightButton,touch_resp.time,touch_resp.clicked_name,rt,corr,feedback.started,feedback.stopped,practice_trials.thisRepN,practice_trials.thisTrialN,practice_trials.thisN,practice_trials.thisIndex,practice_trials.ran,TrialID,StimulusType,Condition,PrimeDuration,Prime,Flanker,corrAns,response.rt,response.duration,Break.started,Break.stopped,break_done_touch.x,break_done_touch.y,break_done_touch.leftButton,break_done_touch.midButton,break_done_touch.rightButton,break_done_keyboard.keys,experiment_trials.thisRepN,experiment_trials.thisTrialN,experiment_trials.thisN,experiment_trials.thisIndex,experiment_trials.ran,break_done_keyboard.rt,break_done_keyboard.duration,End.started,End.stopped
1,"[""over_18"",""comfortable"",""read_info"",""consent_given""]",29,M,"[""none""]","[""spanish""]",6120855d04fae5ca82f68779,66a626ef09d4e21e1a8894ec,673649b4253877d885e46d8a,2024-11-14_13h07.24.259,Tarea de género gramatical,2024.2.2,Linux armv81,90.09009009,,,,,,,,,,,,,,,,,,,,,,,,,,,,,,,,,,,,,,,,,,,,,,,,,,,,,,,,,,,,,,,,,,,,
,,,,,,6120855d04fae5ca82f68779,66a626ef09d4e21e1a8894ec,673649b4253877d885e46d8a,2024-11-14_13h07.24.259,Tarea de género gramatical,2024.2.2,Linux armv81,90.09009009,28.8756,28.8774,,,,,,,,,,,,,,,,,,,,,,,,,,,,,,,,,,,,,,,,,,,,,,,,,,,,,,,,,,,,,,,,,,
,,,,,,6120855d04fae5ca82f68779,66a626ef09d4e21e1a8894ec,673649b4253877d885e46d8a,2024-11-14_13h07.24.259,Tarea de género gramatical,2024.2.2,Linux armv81,90.09009009,,,28.9416,53.6189,space,24.6175,,-0.8,0.5,0,0,0,0,0,0,0,1,1,instructions,"INSTRUCCIONES
Va a realizar una prueba de selección gramatical. Desde el comienzo de la prueba mire siempre al centro de la pantalla. Al cabo de un momento, aparecerán palabras. La tarea consiste en determinar si la palabra del centro (siempre será un sustantivo), pertenece al género masculino o femenino.

Pulse la tecla ESPACIO o toque el botón de abajo para continuar.",0,keyboardresponseFM.png,,,,,,,,,,,,,,,,,,,,,,,,,,,,,,,,,,,,,,,,,,,,,,
,,,,,,6120855d04fae5ca82f68779,66a626ef09d4e21e1a8894ec,673649b4253877d885e46d8a,2024-11-14_13h07.24.259,Tarea de género gramatical,2024.2.2,Linux armv81,90.09009009,,,53.627,76.6252,space,22.9061,,-0.8,0.5,0,0,0,0,1,1,1,1,2,instructions,"Si su dispositivo tiene teclado, pulse la tecla ""A"" para las palabras en femenino (por ejemplo: ""mano"") y la tecla ""L"" para las palabras en masculino(por ejemplo: ""arroz"").
Pulse la tecla ESPACIO o toque el botón de abajo para continuar.",1,keyboardresponseFM.png,,,,,,,,,,,,,,,,,,,,,,,,,,,,,,,,,,,,,,,,,,,,,,
,,,,,,6120855d04fae5ca82f68779,66a626ef09d4e21e1a8894ec,673649b4253877d885e46d8a,2024-11-14_13h07.24.259,Tarea de género gramatical,2024.2.2,Linux armv81,90.09009009,,,76.631,84.9713,space,8.268,,-0.8,0.5,0,0,0,0,2,2,2,1,3,instructions,"Si utiliza un dispositivo sólo táctil, colóquelo en horizontal y utilice los botones de la pantalla. No utilice el ratón.
Pulse la tecla ESPACIO o toque el botón de abajo para continuar.",2,touchresponseFM.png,,,,,,,,,,,,,,,,,,,,,,,,,,,,,,,,,,,,,,,,,,,,,,
,,,,,,6120855d04fae5ca82f68779,66a626ef09d4e21e1a8894ec,673649b4253877d885e46d8a,2024-11-14_13h07.24.259,Tarea de género gramatical,2024.2.2,Linux armv81,90.09009009,,,84.9809,99.5491,space,14.5359,,-0.8,0.5,0,0,0,0,3,3,3,1,4,instructions,"Es muy importante que responda con la mayor rapidez y precisión posibles, ya que cada cadena de letras sólo estará en pantalla durante un instante. Si no responde en ese tiempo, aparecerá el mensaje ""Muy lento"" y el experimento pasará a la siguiente palabra. Los primeros 15 intentos serán de práctica y habrá dos descansos durante la prueba.
Pulse la tecla ESPACIO o toque el botón de abajo para iniciar la parte de práctica.",0,keyboardresponseFM.png,,,,,,,,,,,,,,,,,,,,,,,,,,,,,,,,,,,,,,,,,,,,,,
,,,,,,6120855d04fae5ca82f68779,66a626ef09d4e21e1a8894ec,673649b4253877d885e46d8a,2024-11-14_13h07.24.259,Tarea de género gramatical,2024.2.2,Linux armv81,90.09009009,,,,,,,,,,,,,,,,,,,,,,,99.5923,102.2496,,0,[],[],[],[],[],[],[],,-1,102.2521,102.74,0,0,0,2,1,2003,FEM,DIS,150,daga,el,a,,,,,,,,,,,,,,,,,,,
,,,,,,6120855d04fae5ca82f68779,66a626ef09d4e21e1a8894ec,673649b4253877d885e46d8a,2024-11-14_13h07.24.259,Tarea de género gramatical,2024.2.2,Linux armv81,90.09009009,,,,,,,,,,,,,,,,,,,,,,,102.7437,104.2442,a,1,[],[],[],[],[],[],[],0.8278,1,104.2701,104.7478,0,1,1,3,1,2004,FEM,AGR,150,venta,la,a,0.8278,,,,,,,,,,,,,,,,,,
,,,,,,6120855d04fae5ca82f68779,66a626ef09d4e21e1a8894ec,673649b4253877d885e46d8a,2024-11-14_13h07.24.259,Tarea de género gramatical,2024.2.2,Linux armv81,90.09009009,,,,,,,,,,,,,,,,,,,,,,,104.7509,106.005,a,1,[],[],[],[],[],[],[],0.5837,1,106.0054,106.5016,0,2,2,0,1,2001,FEM,AGR,150,nuca,la,a,0.5837,,,,,,,,,,,,,,,,,,
,,,,,,6120855d04fae5ca82f68779,66a626ef09d4e21e1a8894ec,673649b4253877d885e46d8a,2024-11-14_13h07.24.259,Tarea de género gramatical,2024.2.2,Linux armv81,90.09009009,,,,,,,,,,,,,,,,,,,,,,,106.5045,108.1805,l,1,[],[],[],[],[],[],[],1.0014,1,108.1808,108.687,0,3,3,14,1,2015,MAS,DIS,150,robot,la,l,1.0014,,,,,,,,,,,,,,,,,,
,,,,,,6120855d04fae5ca82f68779,66a626ef09d4e21e1a8894ec,673649b4253877d885e46d8a,2024-11-14_13h07.24.259,Tarea de género gramatical,2024.2.2,Linux armv81,90.09009009,,,,,,,,,,,,,,,,,,,,,,,108.6908,110.011,l,0,[],[],[],[],[],[],[],0.6523,0,110.0341,110.5081,0,4,4,5,1,2006,FEM,DIS,150,serie,el,a,0.6523,,,,,,,,,,,,,,,,,,
,,,,,,6120855d04fae5ca82f68779,66a626ef09d4e21e1a8894ec,673649b4253877d885e46d8a,2024-11-14_13h07.24.259,Tarea de género gramatical,2024.2.2,Linux armv81,90.09009009,,,,,,,,,,,,,,,,,,,,,,,110.5112,112.0652,l,1,[],[],[],[],[],[],[],0.8884,1,112.0686,112.5719,0,5,5,12,1,2013,MAS,AGR,150,acero,el,l,0.8884,,,,,,,,,,,,,,,,,,
,,,,,,6120855d04fae5ca82f68779,66a626ef09d4e21e1a8894ec,673649b4253877d885e46d8a,2024-11-14_13h07.24.259,Tarea de género gramatical,2024.2.2,Linux armv81,90.09009009,,,,,,,,,,,,,,,,,,,,,,,112.5796,114.0499,a,0,[],[],[],[],[],[],[],0.8088,0,114.0529,114.5489,0,6,6,8,1,2009,MAS,DIS,150,puerto,la,l,0.8088,,,,,,,,,,,,,,,,,,
,,,,,,6120855d04fae5ca82f68779,66a626ef09d4e21e1a8894ec,673649b4253877d885e46d8a,2024-11-14_13h07.24.259,Tarea de género gramatical,2024.2.2,Linux armv81,90.09009009,,,,,,,,,,,,,,,,,,,,,,,114.5518,116.0534,a,1,[],[],[],[],[],[],[],0.8348,1,116.0563,116.5401,0,7,7,6,1,2007,FEM,AGR,150,navaja,la,a,0.8348,,,,,,,,,,,,,,,,,,
,,,,,,6120855d04fae5ca82f68779,66a626ef09d4e21e1a8894ec,673649b4253877d885e46d8a,2024-11-14_13h07.24.259,Tarea de género gramatical,2024.2.2,Linux armv81,90.09009009,,,,,,,,,,,,,,,,,,,,,,,116.5432,117.951,l,1,[],[],[],[],[],[],[],0.734,1,117.9513,118.4489,0,8,8,11,1,2012,MAS,DIS,150,clima,la,l,0.734,,,,,,,,,,,,,,,,,,
,,,,,,6120855d04fae5ca82f68779,66a626ef09d4e21e1a8894ec,673649b4253877d885e46d8a,2024-11-14_13h07.24.259,Tarea de género gramatical,2024.2.2,Linux armv81,90.09009009,,,,,,,,,,,,,,,,,,,,,,,118.4514,119.814,a,1,[],[],[],[],[],[],[],0.691,1,119.8144,120.3009,0,9,9,4,1,2005,FEM,CON,150,placa,,a,0.691,,,,,,,,,,,,,,,,,,
,,,,,,6120855d04fae5ca82f68779,66a626ef09d4e21e1a8894ec,673649b4253877d885e46d8a,2024-11-14_13h07.24.259,Tarea de género gramatical,2024.2.2,Linux armv81,90.09009009,,,,,,,,,,,,,,,,,,,,,,,120.3041,121.6758,a,0,[],[],[],[],[],[],[],0.7068,0,121.6786,122.1768,0,10,10,10,1,2011,MAS,CON,150,canal,,l,0.7068,,,,,,,,,,,,,,,,,,
,,,,,,6120855d04fae5ca82f68779,66a626ef09d4e21e1a8894ec,673649b4253877d885e46d8a,2024-11-14_13h07.24.259,Tarea de género gramatical,2024.2.2,Linux armv81,90.09009009,,,,,,,,,,,,,,,,,,,,,,,122.1796,123.4229,a,1,[],[],[],[],[],[],[],0.5706,1,123.4253,123.9269,0,11,11,1,1,2002,FEM,CON,150,pala,,a,0.5706,,,,,,,,,,,,,,,,,,
,,,,,,6120855d04fae5ca82f68779,66a626ef09d4e21e1a8894ec,673649b4253877d885e46d8a,2024-11-14_13h07.24.259,Tarea de género gramatical,2024.2.2,Linux armv81,90.09009009,,,,,,,,,,,,,,,,,,,,,,,123.9322,125.1599,a,1,[],[],[],[],[],[],[],0.5529,1,125.1602,125.6579,0,12,12,7,1,2008,FEM,CON,150,siesta,,a,0.5529,,,,,,,,,,,,,,,,,,
,,,,,,6120855d04fae5ca82f68779,66a626ef09d4e21e1a8894ec,673649b4253877d885e46d8a,2024-11-14_13h07.24.259,Tarea de género gramatical,2024.2.2,Linux armv81,90.09009009,,,,,,,,,,,,,,,,,,,,,,,125.6604,126.7967,l,1,[],[],[],[],[],[],[],0.465,1,126.7971,127.2899,0,13,13,13,1,2014,MAS,CON,150,siglo,,l,0.465,,,,,,,,,,,,,,,,,,
,,,,,,6120855d04fae5ca82f68779,66a626ef09d4e21e1a8894ec,673649b4253877d885e46d8a,2024-11-14_13h07.24.259,Tarea de género gramatical,2024.2.2,Linux armv81,90.09009009,,,,,,,,,,,,,,,,,,,,,,,127.2927,128.5254,l,1,[],[],[],[],[],[],[],0.571,1,128.5257,129.0172,0,14,14,9,1,2010,MAS,AGR,150,vecino,el,l,0.571,,,,,,,,,,,,,,,,,,
,,,,,,6120855d04fae5ca82f68779,66a626ef09d4e21e1a8894ec,673649b4253877d885e46d8a,2024-11-14_13h07.24.259,Tarea de género gramatical,2024.2.2,Linux armv81,90.09009009,,,135.3526,145.3624,space,9.9836,,-0.8,0.5,0,0,0,,,,,,,,,,,145.4613,146.9366,l,1,[],[],[],[],[],[],[],0.8072,1,146.9371,147.4374,,,,,,876,MAS,AGR,150,pánico,el,l,0.8072,,147.4385,147.4465,-0.8,0.5,0,0,0,,0,0,0,425,1,,,,
,,,,,,6120855d04fae5ca82f68779,66a626ef09d4e21e1a8894ec,673649b4253877d885e46d8a,2024-11-14_13h07.24.259,Tarea de género gramatical,2024.2.2,Linux armv81,90.09009009,,,,,,,,,,,,,,,,,,,,,,,147.4493,148.6261,l,1,[],[],[],[],[],[],[],0.5083,1,148.6266,149.1274,,,,,,468,MAS,AGR,150,tren,el,l,0.5083,,149.1276,149.128,-0.8,0.5,0,0,0,,0,1,1,17,1,,,,
,,,,,,6120855d04fae5ca82f68779,66a626ef09d4e21e1a8894ec,673649b4253877d885e46d8a,2024-11-14_13h07.24.259,Tarea de género gramatical,2024.2.2,Linux armv81,90.09009009,,,,,,,,,,,,,,,,,,,,,,,149.131,150.2549,l,1,[],[],[],[],[],[],[],0.4448,1,150.2552,150.755,,,,,,744,MAS,AGR,150,cable,el,l,0.4448,,150.7588,150.7611,-0.8,0.5,0,0,0,,0,2,2,293,1,,,,
,,,,,,6120855d04fae5ca82f68779,66a626ef09d4e21e1a8894ec,673649b4253877d885e46d8a,2024-11-14_13h07.24.259,Tarea de género gramatical,2024.2.2,Linux armv81,90.09009009,,,,,,,,,,,,,,,,,,,,,,,150.7636,152.1161,l,1,[],[],[],[],[],[],[],0.6819,1,152.1165,152.6178,,,,,,514,MAS,CON,150,saco,,l,0.6819,,152.6181,152.6187,-0.8,0.5,0,0,0,,0,3,3,63,1,,,,
,,,,,,6120855d04fae5ca82f68779,66a626ef09d4e21e1a8894ec,673649b4253877d885e46d8a,2024-11-14_13h07.24.259,Tarea de género gramatical,2024.2.2,Linux armv81,90.09009009,,,,,,,,,,,,,,,,,,,,,,,152.6217,153.7016,l,1,[],[],[],[],[],[],[],0.4178,1,153.7019,154.1967,,,,,,786,MAS,AGR,150,crimen,el,l,0.4178,,154.1969,154.1974,-0.8,0.5,0,0,0,,0,4,4,335,1,,,,
,,,,,,6120855d04fae5ca82f68779,66a626ef09d4e21e1a8894ec,673649b4253877d885e46d8a,2024-11-14_13h07.24.259,Tarea de género gramatical,2024.2.2,Linux armv81,90.09009009,,,,,,,,,,,,,,,,,,,,,,,154.2003,155.286,a,1,[],[],[],[],[],[],[],0.4091,1,155.2864,155.7883,,,,,,717,FEM,AGR,150,barba,la,a,0.4091,,155.7886,155.7891,-0.8,0.5,0,0,0,,0,5,5,266,1,,,,
,,,,,,6120855d04fae5ca82f68779,66a626ef09d4e21e1a8894ec,673649b4253877d885e46d8a,2024-11-14_13h07.24.259,Tarea de género gramatical,2024.2.2,Linux armv81,90.09009009,,,,,,,,,,,,,,,,,,,,,,,155.7918,156.9716,l,1,[],[],[],[],[],[],[],0.5079,1,156.9719,157.4637,,,,,,652,MAS,CON,150,honor,,l,0.5079,,157.4678,157.4707,-0.8,0.5,0,0,0,,0,6,6,201,1,,,,
,,,,,,6120855d04fae5ca82f68779,66a626ef09d4e21e1a8894ec,673649b4253877d885e46d8a,2024-11-14_13h07.24.259,Tarea de género gramatical,2024.2.2,Linux armv81,90.09009009,,,,,,,,,,,,,,,,,,,,,,,157.473,158.7301,a,1,[],[],[],[],[],[],[],0.5943,1,158.7306,159.2264,,,,,,758,FEM,DIS,150,semana,el,a,0.5943,,159.2266,159.2269,-0.8,0.5,0,0,0,,0,7,7,307,1,,,,
,,,,,,6120855d04fae5ca82f68779,66a626ef09d4e21e1a8894ec,673649b4253877d885e46d8a,2024-11-14_13h07.24.259,Tarea de género gramatical,2024.2.2,Linux armv81,90.09009009,,,,,,,,,,,,,,,,,,,,,,,159.2299,160.3654,l,1,[],[],[],[],[],[],[],0.4601,1,160.3659,160.8604,,,,,,688,MAS,CON,150,norte,,l,0.4601,,160.8607,160.8615,-0.8,0.5,0,0,0,,0,8,8,237,1,,,,
,,,,,,6120855d04fae5ca82f68779,66a626ef09d4e21e1a8894ec,673649b4253877d885e46d8a,2024-11-14_13h07.24.259,Tarea de género gramatical,2024.2.2,Linux armv81,90.09009009,,,,,,,,,,,,,,,,,,,,,,,160.865,162.0496,a,1,[],[],[],[],[],[],[],0.515,1,162.0503,162.5497,,,,,,523,FEM,CON,150,roca,,a,0.515,,162.5499,162.551,-0.8,0.5,0,0,0,,0,9,9,72,1,,,,
,,,,,,6120855d04fae5ca82f68779,66a626ef09d4e21e1a8894ec,673649b4253877d885e46d8a,2024-11-14_13h07.24.259,Tarea de género gramatical,2024.2.2,Linux armv81,90.09009009,,,,,,,,,,,,,,,,,,,,,,,162.556,163.9387,l,1,[],[],[],[],[],[],[],0.7071,1,163.9391,164.4412,,,,,,455,MAS,DIS,150,tipo,la,l,0.7071,,164.4414,164.4418,-0.8,0.5,0,0,0,,0,10,10,4,1,,,,
,,,,,,6120855d04fae5ca82f68779,66a626ef09d4e21e1a8894ec,673649b4253877d885e46d8a,2024-11-14_13h07.24.259,Tarea de género gramatical,2024.2.2,Linux armv81,90.09009009,,,,,,,,,,,,,,,,,,,,,,,164.4447,165.7338,a,0,[],[],[],[],[],[],[],0.6217,0,165.7367,166.2262,,,,,,784,MAS,CON,150,ataque,,l,0.6217,,166.2297,166.2322,-0.8,0.5,0,0,0,,0,11,11,333,1,,,,
,,,,,,6120855d04fae5ca82f68779,66a626ef09d4e21e1a8894ec,673649b4253877d885e46d8a,2024-11-14_13h07.24.259,Tarea de género gramatical,2024.2.2,Linux armv81,90.09009009,,,,,,,,,,,,,,,,,,,,,,,166.2346,167.9678,a,1,[],[],[],[],[],[],[],1.0687,1,167.9704,168.4572,,,,,,464,FEM,DIS,150,cara,el,a,1.0687,,168.4576,168.4591,-0.8,0.5,0,0,0,,0,12,12,13,1,,,,
,,,,,,6120855d04fae5ca82f68779,66a626ef09d4e21e1a8894ec,673649b4253877d885e46d8a,2024-11-14_13h07.24.259,Tarea de género gramatical,2024.2.2,Linux armv81,90.09009009,,,,,,,,,,,,,,,,,,,,,,,168.4653,169.7392,a,1,[],[],[],[],[],[],[],0.6078,1,169.7394,170.2324,,,,,,896,FEM,DIS,150,bañera,el,a,0.6078,,170.2325,170.2329,-0.8,0.5,0,0,0,,0,13,13,445,1,,,,
,,,,,,6120855d04fae5ca82f68779,66a626ef09d4e21e1a8894ec,673649b4253877d885e46d8a,2024-11-14_13h07.24.259,Tarea de género gramatical,2024.2.2,Linux armv81,90.09009009,,,,,,,,,,,,,,,,,,,,,,,170.2354,171.7207,l,1,[],[],[],[],[],[],[],0.8175,1,171.721,172.2193,,,,,,587,MAS,DIS,150,coco,la,l,0.8175,,172.2195,172.2198,-0.8,0.5,0,0,0,,0,14,14,136,1,,,,
,,,,,,6120855d04fae5ca82f68779,66a626ef09d4e21e1a8894ec,673649b4253877d885e46d8a,2024-11-14_13h07.24.259,Tarea de género gramatical,2024.2.2,Linux armv81,90.09009009,,,,,,,,,,,,,,,,,,,,,,,172.223,173.4591,l,1,[],[],[],[],[],[],[],0.5709,1,173.4593,173.959,,,,,,893,MAS,DIS,150,templo,la,l,0.5709,,173.968,173.9731,-0.8,0.5,0,0,0,,0,15,15,442,1,,,,
,,,,,,6120855d04fae5ca82f68779,66a626ef09d4e21e1a8894ec,673649b4253877d885e46d8a,2024-11-14_13h07.24.259,Tarea de género gramatical,2024.2.2,Linux armv81,90.09009009,,,,,,,,,,,,,,,,,,,,,,,173.9788,175.1165,l,1,[],[],[],[],[],[],[],0.4778,1,175.1168,175.6115,,,,,,562,MAS,CON,150,reto,,l,0.4778,,175.6118,175.6122,-0.8,0.5,0,0,0,,0,16,16,111,1,,,,
,,,,,,6120855d04fae5ca82f68779,66a626ef09d4e21e1a8894ec,673649b4253877d885e46d8a,2024-11-14_13h07.24.259,Tarea de género gramatical,2024.2.2,Linux armv81,90.09009009,,,,,,,,,,,,,,,,,,,,,,,175.6152,176.8024,a,1,[],[],[],[],[],[],[],0.5185,1,176.8027,177.295,,,,,,609,FEM,AGR,150,clase,la,a,0.5185,,177.2952,177.2955,-0.8,0.5,0,0,0,,0,17,17,158,1,,,,
,,,,,,6120855d04fae5ca82f68779,66a626ef09d4e21e1a8894ec,673649b4253877d885e46d8a,2024-11-14_13h07.24.259,Tarea de género gramatical,2024.2.2,Linux armv81,90.09009009,,,,,,,,,,,,,,,,,,,,,,,177.2981,178.4872,a,0,[],[],[],[],[],[],[],0.5199,0,178.4903,178.9916,,,,,,660,MAS,AGR,150,baile,el,l,0.5199,,178.9919,178.9921,-0.8,0.5,0,0,0,,0,18,18,209,1,,,,
,,,,,,6120855d04fae5ca82f68779,66a626ef09d4e21e1a8894ec,673649b4253877d885e46d8a,2024-11-14_13h07.24.259,Tarea de género gramatical,2024.2.2,Linux armv81,90.09009009,,,,,,,,,,,,,,,,,,,,,,,178.9949,180.3461,a,1,[],[],[],[],[],[],[],0.6807,1,180.3489,180.8427,,,,,,849,FEM,AGR,150,charla,la,a,0.6807,,180.8429,180.8433,-0.8,0.5,0,0,0,,0,19,19,398,1,,,,
,,,,,,6120855d04fae5ca82f68779,66a626ef09d4e21e1a8894ec,673649b4253877d885e46d8a,2024-11-14_13h07.24.259,Tarea de género gramatical,2024.2.2,Linux armv81,90.09009009,,,,,,,,,,,,,,,,,,,,,,,180.8464,181.9981,a,1,[],[],[],[],[],[],[],0.4802,1,181.9984,182.4831,,,,,,651,FEM,AGR,150,leche,la,a,0.4802,,182.4869,182.4897,-0.8,0.5,0,0,0,,0,20,20,200,1,,,,
,,,,,,6120855d04fae5ca82f68779,66a626ef09d4e21e1a8894ec,673649b4253877d885e46d8a,2024-11-14_13h07.24.259,Tarea de género gramatical,2024.2.2,Linux armv81,90.09009009,,,,,,,,,,,,,,,,,,,,,,,182.4923,183.6996,a,1,[],[],[],[],[],[],[],0.5348,1,183.6999,184.1855,,,,,,853,FEM,CON,150,paliza,,a,0.5348,,184.1857,184.1861,-0.8,0.5,0,0,0,,0,21,21,402,1,,,,
,,,,,,6120855d04fae5ca82f68779,66a626ef09d4e21e1a8894ec,673649b4253877d885e46d8a,2024-11-14_13h07.24.259,Tarea de género gramatical,2024.2.2,Linux armv81,90.09009009,,,,,,,,,,,,,,,,,,,,,,,184.1894,185.3273,a,1,[],[],[],[],[],[],[],0.465,1,185.3276,185.8297,,,,,,824,FEM,DIS,150,herida,el,a,0.465,,185.8299,185.8304,-0.8,0.5,0,0,0,,0,22,22,373,1,,,,
,,,,,,6120855d04fae5ca82f68779,66a626ef09d4e21e1a8894ec,673649b4253877d885e46d8a,2024-11-14_13h07.24.259,Tarea de género gramatical,2024.2.2,Linux armv81,90.09009009,,,,,,,,,,,,,,,,,,,,,,,185.8331,186.9368,a,1,[],[],[],[],[],[],[],0.4385,1,186.9372,187.4368,,,,,,871,FEM,CON,150,novela,,a,0.4385,,187.4371,187.4375,-0.8,0.5,0,0,0,,0,23,23,420,1,,,,
,,,,,,6120855d04fae5ca82f68779,66a626ef09d4e21e1a8894ec,673649b4253877d885e46d8a,2024-11-14_13h07.24.259,Tarea de género gramatical,2024.2.2,Linux armv81,90.09009009,,,,,,,,,,,,,,,,,,,,,,,187.4432,188.6294,a,1,[],[],[],[],[],[],[],0.515,1,188.6297,189.1226,,,,,,590,FEM,DIS,150,mula,el,a,0.515,,189.1265,189.1291,-0.8,0.5,0,0,0,,0,24,24,139,1,,,,
,,,,,,6120855d04fae5ca82f68779,66a626ef09d4e21e1a8894ec,673649b4253877d885e46d8a,2024-11-14_13h07.24.259,Tarea de género gramatical,2024.2.2,Linux armv81,90.09009009,,,,,,,,,,,,,,,,,,,,,,,189.1316,190.2815,a,1,[],[],[],[],[],[],[],0.4864,1,190.282,190.7766,,,,,,615,FEM,AGR,150,amiga,la,a,0.4864,,190.7769,190.7772,-0.8,0.5,0,0,0,,0,25,25,164,1,,,,
,,,,,,6120855d04fae5ca82f68779,66a626ef09d4e21e1a8894ec,673649b4253877d885e46d8a,2024-11-14_13h07.24.259,Tarea de género gramatical,2024.2.2,Linux armv81,90.09009009,,,,,,,,,,,,,,,,,,,,,,,190.7799,192.0162,l,1,[],[],[],[],[],[],[],0.5755,1,192.0166,192.5196,,,,,,516,MAS,AGR,150,muro,el,l,0.5755,,192.5197,192.5201,-0.8,0.5,0,0,0,,0,26,26,65,1,,,,
,,,,,,6120855d04fae5ca82f68779,66a626ef09d4e21e1a8894ec,673649b4253877d885e46d8a,2024-11-14_13h07.24.259,Tarea de género gramatical,2024.2.2,Linux armv81,90.09009009,,,,,,,,,,,,,,,,,,,,,,,192.5238,193.7048,a,1,[],[],[],[],[],[],[],0.5125,1,193.7053,194.209,,,,,,830,FEM,DIS,150,madera,el,a,0.5125,,194.2093,194.2096,-0.8,0.5,0,0,0,,0,27,27,379,1,,,,
,,,,,,6120855d04fae5ca82f68779,66a626ef09d4e21e1a8894ec,673649b4253877d885e46d8a,2024-11-14_13h07.24.259,Tarea de género gramatical,2024.2.2,Linux armv81,90.09009009,,,,,,,,,,,,,,,,,,,,,,,194.2131,195.734,l,1,[],[],[],[],[],[],[],0.858,1,195.7343,196.238,,,,,,797,MAS,DIS,150,cuello,la,l,0.858,,196.2384,196.239,-0.8,0.5,0,0,0,,0,28,28,346,1,,,,
,,,,,,6120855d04fae5ca82f68779,66a626ef09d4e21e1a8894ec,673649b4253877d885e46d8a,2024-11-14_13h07.24.259,Tarea de género gramatical,2024.2.2,Linux armv81,90.09009009,,,,,,,,,,,,,,,,,,,,,,,196.2434,197.4354,a,1,[],[],[],[],[],[],[],0.527,1,197.4355,197.9331,,,,,,775,FEM,CON,150,tierra,,a,0.527,,197.9369,197.9397,-0.8,0.5,0,0,0,,0,29,29,324,1,,,,
,,,,,,6120855d04fae5ca82f68779,66a626ef09d4e21e1a8894ec,673649b4253877d885e46d8a,2024-11-14_13h07.24.259,Tarea de género gramatical,2024.2.2,Linux armv81,90.09009009,,,,,,,,,,,,,,,,,,,,,,,197.942,199.5666,l,1,[],[],[],[],[],[],[],0.95,1,199.567,200.0594,,,,,,778,MAS,CON,150,asunto,,l,0.95,,200.0597,200.0606,-0.8,0.5,0,0,0,,0,30,30,327,1,,,,
,,,,,,6120855d04fae5ca82f68779,66a626ef09d4e21e1a8894ec,673649b4253877d885e46d8a,2024-11-14_13h07.24.259,Tarea de género gramatical,2024.2.2,Linux armv81,90.09009009,,,,,,,,,,,,,,,,,,,,,,,200.0657,201.4253,l,1,[],[],[],[],[],[],[],0.6988,1,201.4256,201.9278,,,,,,600,MAS,AGR,150,mozo,el,l,0.6988,,201.928,201.9283,-0.8,0.5,0,0,0,,0,31,31,149,1,,,,
,,,,,,6120855d04fae5ca82f68779,66a626ef09d4e21e1a8894ec,673649b4253877d885e46d8a,2024-11-14_13h07.24.259,Tarea de género gramatical,2024.2.2,Linux armv81,90.09009009,,,,,,,,,,,,,,,,,,,,,,,201.9322,203.0758,a,1,[],[],[],[],[],[],[],0.4712,1,203.0762,203.5816,,,,,,793,FEM,CON,150,trampa,,a,0.4712,,203.5817,203.5821,-0.8,0.5,0,0,0,,0,32,32,342,1,,,,
,,,,,,6120855d04fae5ca82f68779,66a626ef09d4e21e1a8894ec,673649b4253877d885e46d8a,2024-11-14_13h07.24.259,Tarea de género gramatical,2024.2.2,Linux armv81,90.09009009,,,,,,,,,,,,,,,,,,,,,,,203.5846,205.0029,l,1,[],[],[],[],[],[],[],0.7537,1,205.0032,205.5033,,,,,,490,MAS,CON,150,dios,,l,0.7537,,205.5113,205.5175,-0.8,0.5,0,0,0,,0,33,33,39,1,,,,
,,,,,,6120855d04fae5ca82f68779,66a626ef09d4e21e1a8894ec,673649b4253877d885e46d8a,2024-11-14_13h07.24.259,Tarea de género gramatical,2024.2.2,Linux armv81,90.09009009,,,,,,,,,,,,,,,,,,,,,,,205.5236,206.899,l,1,[],[],[],[],[],[],[],0.7104,1,206.8993,207.3946,,,,,,798,MAS,AGR,150,anillo,el,l,0.7104,,207.3949,207.3952,-0.8,0.5,0,0,0,,0,34,34,347,1,,,,
,,,,,,6120855d04fae5ca82f68779,66a626ef09d4e21e1a8894ec,673649b4253877d885e46d8a,2024-11-14_13h07.24.259,Tarea de género gramatical,2024.2.2,Linux armv81,90.09009009,,,,,,,,,,,,,,,,,,,,,,,207.3978,208.6355,a,1,[],[],[],[],[],[],[],0.5623,1,208.6358,209.1305,,,,,,716,FEM,DIS,150,jaula,el,a,0.5623,,209.1307,209.131,-0.8,0.5,0,0,0,,0,35,35,265,1,,,,
,,,,,,6120855d04fae5ca82f68779,66a626ef09d4e21e1a8894ec,673649b4253877d885e46d8a,2024-11-14_13h07.24.259,Tarea de género gramatical,2024.2.2,Linux armv81,90.09009009,,,,,,,,,,,,,,,,,,,,,,,209.1337,210.4101,a,1,[],[],[],[],[],[],[],0.6123,1,210.4106,210.908,,,,,,530,FEM,DIS,150,vaca,el,a,0.6123,,210.9082,210.9085,-0.8,0.5,0,0,0,,0,36,36,79,1,,,,
,,,,,,6120855d04fae5ca82f68779,66a626ef09d4e21e1a8894ec,673649b4253877d885e46d8a,2024-11-14_13h07.24.259,Tarea de género gramatical,2024.2.2,Linux armv81,90.09009009,,,,,,,,,,,,,,,,,,,,,,,210.9111,212.2688,l,1,[],[],[],[],[],[],[],0.6898,1,212.2692,212.7691,,,,,,808,MAS,CON,150,motivo,,l,0.6898,,212.7692,212.7696,-0.8,0.5,0,0,0,,0,37,37,357,1,,,,
,,,,,,6120855d04fae5ca82f68779,66a626ef09d4e21e1a8894ec,673649b4253877d885e46d8a,2024-11-14_13h07.24.259,Tarea de género gramatical,2024.2.2,Linux armv81,90.09009009,,,,,,,,,,,,,,,,,,,,,,,212.7723,214.0392,a,1,[],[],[],[],[],[],[],0.5956,1,214.0395,214.5378,,,,,,650,FEM,DIS,150,silla,el,a,0.5956,,214.5419,214.5447,-0.8,0.5,0,0,0,,0,38,38,199,1,,,,
,,,,,,6120855d04fae5ca82f68779,66a626ef09d4e21e1a8894ec,673649b4253877d885e46d8a,2024-11-14_13h07.24.259,Tarea de género gramatical,2024.2.2,Linux armv81,90.09009009,,,,,,,,,,,,,,,,,,,,,,,214.547,215.7558,l,1,[],[],[],[],[],[],[],0.534,1,215.7562,216.2546,,,,,,696,MAS,AGR,150,humor,el,l,0.534,,216.2548,216.255,-0.8,0.5,0,0,0,,0,39,39,245,1,,,,
,,,,,,6120855d04fae5ca82f68779,66a626ef09d4e21e1a8894ec,673649b4253877d885e46d8a,2024-11-14_13h07.24.259,Tarea de género gramatical,2024.2.2,Linux armv81,90.09009009,,,,,,,,,,,,,,,,,,,,,,,216.2564,217.4095,a,1,[],[],[],[],[],[],[],0.4744,1,217.4099,217.9161,,,,,,663,FEM,AGR,150,magia,la,a,0.4744,,217.9163,217.9166,-0.8,0.5,0,0,0,,0,40,40,212,1,,,,
,,,,,,6120855d04fae5ca82f68779,66a626ef09d4e21e1a8894ec,673649b4253877d885e46d8a,2024-11-14_13h07.24.259,Tarea de género gramatical,2024.2.2,Linux armv81,90.09009009,,,,,,,,,,,,,,,,,,,,,,,217.9194,219.2293,l,1,[],[],[],[],[],[],[],0.6394,1,219.2296,219.7291,,,,,,851,MAS,DIS,150,abrigo,la,l,0.6394,,219.7292,219.7296,-0.8,0.5,0,0,0,,0,41,41,400,1,,,,
,,,,,,6120855d04fae5ca82f68779,66a626ef09d4e21e1a8894ec,673649b4253877d885e46d8a,2024-11-14_13h07.24.259,Tarea de género gramatical,2024.2.2,Linux armv81,90.09009009,,,,,,,,,,,,,,,,,,,,,,,219.7324,221.056,a,0,[],[],[],[],[],[],[],0.6596,0,221.0588,221.5522,,,,,,599,MAS,DIS,150,nudo,la,l,0.6596,,221.5563,221.559,-0.8,0.5,0,0,0,,0,42,42,148,1,,,,
,,,,,,6120855d04fae5ca82f68779,66a626ef09d4e21e1a8894ec,673649b4253877d885e46d8a,2024-11-14_13h07.24.259,Tarea de género gramatical,2024.2.2,Linux armv81,90.09009009,,,,,,,,,,,,,,,,,,,,,,,221.5613,222.7777,a,0,[],[],[],[],[],[],[],0.5485,0,222.778,223.2847,,,,,,887,MAS,DIS,150,hombro,la,l,0.5485,,223.285,223.2854,-0.8,0.5,0,0,0,,0,43,43,436,1,,,,
,,,,,,6120855d04fae5ca82f68779,66a626ef09d4e21e1a8894ec,673649b4253877d885e46d8a,2024-11-14_13h07.24.259,Tarea de género gramatical,2024.2.2,Linux armv81,90.09009009,,,,,,,,,,,,,,,,,,,,,,,223.2885,224.5937,l,1,[],[],[],[],[],[],[],0.6332,1,224.5962,225.0883,,,,,,886,MAS,CON,150,objeto,,l,0.6332,0.0003,225.0885,225.0888,-0.8,0.5,0,0,0,,0,44,44,435,1,,,,
,,,,,,6120855d04fae5ca82f68779,66a626ef09d4e21e1a8894ec,673649b4253877d885e46d8a,2024-11-14_13h07.24.259,Tarea de género gramatical,2024.2.2,Linux armv81,90.09009009,,,,,,,,,,,,,,,,,,,,,,,225.0918,226.2779,a,1,[],[],[],[],[],[],[],0.5214,1,226.2783,226.783,,,,,,873,FEM,AGR,150,poesía,la,a,0.5214,,226.7831,226.7834,-0.8,0.5,0,0,0,,0,45,45,422,1,,,,
,,,,,,6120855d04fae5ca82f68779,66a626ef09d4e21e1a8894ec,673649b4253877d885e46d8a,2024-11-14_13h07.24.259,Tarea de género gramatical,2024.2.2,Linux armv81,90.09009009,,,,,,,,,,,,,,,,,,,,,,,226.786,227.9737,l,1,[],[],[],[],[],[],[],0.5148,1,227.974,228.4693,,,,,,622,MAS,CON,150,poder,,l,0.5148,,228.4696,228.4702,-0.8,0.5,0,0,0,,0,46,46,171,1,,,,
,,,,,,6120855d04fae5ca82f68779,66a626ef09d4e21e1a8894ec,673649b4253877d885e46d8a,2024-11-14_13h07.24.259,Tarea de género gramatical,2024.2.2,Linux armv81,90.09009009,,,,,,,,,,,,,,,,,,,,,,,228.4758,229.9243,l,1,[],[],[],[],[],[],[],0.7819,1,229.9246,230.422,,,,,,737,MAS,DIS,150,plato,la,l,0.7819,,230.4258,230.4289,-0.8,0.5,0,0,0,,0,47,47,286,1,,,,
,,,,,,6120855d04fae5ca82f68779,66a626ef09d4e21e1a8894ec,673649b4253877d885e46d8a,2024-11-14_13h07.24.259,Tarea de género gramatical,2024.2.2,Linux armv81,90.09009009,,,,,,,,,,,,,,,,,,,,,,,230.4309,231.6131,l,1,[],[],[],[],[],[],[],0.516,1,231.6133,232.0988,,,,,,640,MAS,CON,150,campo,,l,0.516,,232.099,232.0993,-0.8,0.5,0,0,0,,0,48,48,189,1,,,,
,,,,,,6120855d04fae5ca82f68779,66a626ef09d4e21e1a8894ec,673649b4253877d885e46d8a,2024-11-14_13h07.24.259,Tarea de género gramatical,2024.2.2,Linux armv81,90.09009009,,,,,,,,,,,,,,,,,,,,,,,232.1019,233.2529,a,1,[],[],[],[],[],[],[],0.4771,1,233.2533,233.7492,,,,,,657,FEM,AGR,150,playa,la,a,0.4771,,233.7494,233.7497,-0.8,0.5,0,0,0,,0,49,49,206,1,,,,
,,,,,,6120855d04fae5ca82f68779,66a626ef09d4e21e1a8894ec,673649b4253877d885e46d8a,2024-11-14_13h07.24.259,Tarea de género gramatical,2024.2.2,Linux armv81,90.09009009,,,,,,,,,,,,,,,,,,,,,,,233.7528,235.0755,a,1,[],[],[],[],[],[],[],0.646,1,235.0758,235.5825,,,,,,637,FEM,CON,150,lista,,a,0.646,,235.5827,235.583,-0.8,0.5,0,0,0,,0,50,50,186,1,,,,
,,,,,,6120855d04fae5ca82f68779,66a626ef09d4e21e1a8894ec,673649b4253877d885e46d8a,2024-11-14_13h07.24.259,Tarea de género gramatical,2024.2.2,Linux armv81,90.09009009,,,,,,,,,,,,,,,,,,,,,,,235.5859,236.7344,a,1,[],[],[],[],[],[],[],0.4841,1,236.7347,237.2384,,,,,,621,FEM,AGR,150,mitad,la,a,0.4841,,237.2418,237.2446,-0.8,0.5,0,0,0,,0,51,51,170,1,,,,
,,,,,,6120855d04fae5ca82f68779,66a626ef09d4e21e1a8894ec,673649b4253877d885e46d8a,2024-11-14_13h07.24.259,Tarea de género gramatical,2024.2.2,Linux armv81,90.09009009,,,,,,,,,,,,,,,,,,,,,,,237.2469,238.9018,a,1,[],[],[],[],[],[],[],0.9867,1,238.9021,239.406,,,,,,638,FEM,DIS,150,bomba,el,a,0.9867,,239.4063,239.4067,-0.8,0.5,0,0,0,,0,52,52,187,1,,,,
,,,,,,6120855d04fae5ca82f68779,66a626ef09d4e21e1a8894ec,673649b4253877d885e46d8a,2024-11-14_13h07.24.259,Tarea de género gramatical,2024.2.2,Linux armv81,90.09009009,,,,,,,,,,,,,,,,,,,,,,,239.4099,240.664,l,1,[],[],[],[],[],[],[],0.5828,1,240.6642,241.163,,,,,,486,MAS,AGR,150,dedo,el,l,0.5828,,241.1631,241.1634,-0.8,0.5,0,0,0,,0,53,53,35,1,,,,
,,,,,,6120855d04fae5ca82f68779,66a626ef09d4e21e1a8894ec,673649b4253877d885e46d8a,2024-11-14_13h07.24.259,Tarea de género gramatical,2024.2.2,Linux armv81,90.09009009,,,,,,,,,,,,,,,,,,,,,,,241.166,242.5147,l,1,[],[],[],[],[],[],[],0.6811,1,242.5152,243.0005,,,,,,767,MAS,DIS,150,número,la,l,0.6811,,243.0006,243.0008,-0.8,0.5,0,0,0,,0,54,54,316,1,,,,
,,,,,,6120855d04fae5ca82f68779,66a626ef09d4e21e1a8894ec,673649b4253877d885e46d8a,2024-11-14_13h07.24.259,Tarea de género gramatical,2024.2.2,Linux armv81,90.09009009,,,,,,,,,,,,,,,,,,,,,,,243.0027,244.3089,a,1,[],[],[],[],[],[],[],0.6325,1,244.3092,244.7938,,,,,,584,FEM,DIS,150,rama,el,a,0.6325,,244.794,244.7945,-0.8,0.5,0,0,0,,0,55,55,133,1,,,,
,,,,,,6120855d04fae5ca82f68779,66a626ef09d4e21e1a8894ec,673649b4253877d885e46d8a,2024-11-14_13h07.24.259,Tarea de género gramatical,2024.2.2,Linux armv81,90.09009009,,,,,,,,,,,,,,,,,,,,,,,244.7972,246.3796,l,1,[],[],[],[],[],[],[],0.9041,1,246.3798,246.8724,,,,,,557,MAS,DIS,150,cubo,la,l,0.9041,,246.8759,246.8785,-0.8,0.5,0,0,0,,0,56,56,106,1,,,,
,,,,,,6120855d04fae5ca82f68779,66a626ef09d4e21e1a8894ec,673649b4253877d885e46d8a,2024-11-14_13h07.24.259,Tarea de género gramatical,2024.2.2,Linux armv81,90.09009009,,,,,,,,,,,,,,,,,,,,,,,246.8806,248.1386,a,1,[],[],[],[],[],[],[],0.5797,1,248.139,248.6347,,,,,,529,FEM,CON,150,mina,,a,0.5797,,248.6351,248.636,-0.8,0.5,0,0,0,,0,57,57,78,1,,,,
,,,,,,6120855d04fae5ca82f68779,66a626ef09d4e21e1a8894ec,673649b4253877d885e46d8a,2024-11-14_13h07.24.259,Tarea de género gramatical,2024.2.2,Linux armv81,90.09009009,,,,,,,,,,,,,,,,,,,,,,,248.6415,250.1497,l,1,[],[],[],[],[],[],[],0.8443,1,250.15,250.6431,,,,,,527,MAS,DIS,150,pico,la,l,0.8443,,250.6433,250.6436,-0.8,0.5,0,0,0,,0,58,58,76,1,,,,
,,,,,,6120855d04fae5ca82f68779,66a626ef09d4e21e1a8894ec,673649b4253877d885e46d8a,2024-11-14_13h07.24.259,Tarea de género gramatical,2024.2.2,Linux armv81,90.09009009,,,,,,,,,,,,,,,,,,,,,,,250.6462,251.8411,a,1,[],[],[],[],[],[],[],0.5243,1,251.8415,252.345,,,,,,753,FEM,AGR,150,maldad,la,a,0.5243,,252.3453,252.3455,-0.8,0.5,0,0,0,,0,59,59,302,1,,,,
,,,,,,6120855d04fae5ca82f68779,66a626ef09d4e21e1a8894ec,673649b4253877d885e46d8a,2024-11-14_13h07.24.259,Tarea de género gramatical,2024.2.2,Linux armv81,90.09009009,,,,,,,,,,,,,,,,,,,,,,,252.3483,253.7437,l,1,[],[],[],[],[],[],[],0.7267,1,253.7441,254.2311,,,,,,618,MAS,AGR,150,sitio,el,l,0.7267,,254.2355,254.2381,-0.8,0.5,0,0,0,,0,60,60,167,1,,,,
,,,,,,6120855d04fae5ca82f68779,66a626ef09d4e21e1a8894ec,673649b4253877d885e46d8a,2024-11-14_13h07.24.259,Tarea de género gramatical,2024.2.2,Linux armv81,90.09009009,,,,,,,,,,,,,,,,,,,,,,,254.2404,255.3394,a,1,[],[],[],[],[],[],[],0.4343,1,255.3397,255.8356,,,,,,723,FEM,AGR,150,tarta,la,a,0.4343,,255.8359,255.8365,-0.8,0.5,0,0,0,,0,61,61,272,1,,,,
,,,,,,6120855d04fae5ca82f68779,66a626ef09d4e21e1a8894ec,673649b4253877d885e46d8a,2024-11-14_13h07.24.259,Tarea de género gramatical,2024.2.2,Linux armv81,90.09009009,,,,,,,,,,,,,,,,,,,,,,,255.8415,257.1715,l,1,[],[],[],[],[],[],[],0.6667,1,257.1719,257.6607,,,,,,544,MAS,CON,150,cabo,,l,0.6667,,257.6609,257.6613,-0.8,0.5,0,0,0,,0,62,62,93,1,,,,
,,,,,,6120855d04fae5ca82f68779,66a626ef09d4e21e1a8894ec,673649b4253877d885e46d8a,2024-11-14_13h07.24.259,Tarea de género gramatical,2024.2.2,Linux armv81,90.09009009,,,,,,,,,,,,,,,,,,,,,,,257.6642,258.8502,a,1,[],[],[],[],[],[],[],0.5213,1,258.8505,259.3519,,,,,,795,FEM,AGR,150,pierna,la,a,0.5213,,259.3521,259.3524,-0.8,0.5,0,0,0,,0,63,63,344,1,,,,
,,,,,,6120855d04fae5ca82f68779,66a626ef09d4e21e1a8894ec,673649b4253877d885e46d8a,2024-11-14_13h07.24.259,Tarea de género gramatical,2024.2.2,Linux armv81,90.09009009,,,,,,,,,,,,,,,,,,,,,,,259.3551,260.4961,a,1,[],[],[],[],[],[],[],0.4706,1,260.4964,261.0031,,,,,,741,FEM,AGR,150,aguja,la,a,0.4706,,261.0033,261.0036,-0.8,0.5,0,0,0,,0,64,64,290,1,,,,
,,,,,,6120855d04fae5ca82f68779,66a626ef09d4e21e1a8894ec,673649b4253877d885e46d8a,2024-11-14_13h07.24.259,Tarea de género gramatical,2024.2.2,Linux armv81,90.09009009,,,,,,,,,,,,,,,,,,,,,,,261.006,262.2611,l,1,[],[],[],[],[],[],[],0.585,1,262.2614,262.7522,,,,,,694,MAS,CON,150,hielo,,l,0.585,,262.7569,262.76,-0.8,0.5,0,0,0,,0,65,65,243,1,,,,
,,,,,,6120855d04fae5ca82f68779,66a626ef09d4e21e1a8894ec,673649b4253877d885e46d8a,2024-11-14_13h07.24.259,Tarea de género gramatical,2024.2.2,Linux armv81,90.09009009,,,,,,,,,,,,,,,,,,,,,,,262.7623,263.9838,a,1,[],[],[],[],[],[],[],0.5424,1,263.9845,264.4844,,,,,,679,FEM,CON,150,celda,,a,0.5424,,264.4846,264.4849,-0.8,0.5,0,0,0,,0,66,66,228,1,,,,
,,,,,,6120855d04fae5ca82f68779,66a626ef09d4e21e1a8894ec,673649b4253877d885e46d8a,2024-11-14_13h07.24.259,Tarea de género gramatical,2024.2.2,Linux armv81,90.09009009,,,,,,,,,,,,,,,,,,,,,,,264.4881,265.6698,l,1,[],[],[],[],[],[],[],0.5054,1,265.6701,266.165,,,,,,708,MAS,AGR,150,polvo,el,l,0.5054,,266.1653,266.1655,-0.8,0.5,0,0,0,,0,67,67,257,1,,,,
,,,,,,6120855d04fae5ca82f68779,66a626ef09d4e21e1a8894ec,673649b4253877d885e46d8a,2024-11-14_13h07.24.259,Tarea de género gramatical,2024.2.2,Linux armv81,90.09009009,,,,,,,,,,,,,,,,,,,,,,,266.1695,267.3245,a,1,[],[],[],[],[],[],[],0.4808,1,267.3248,267.8234,,,,,,693,FEM,AGR,150,salsa,la,a,0.4808,,267.8235,267.8238,-0.8,0.5,0,0,0,,0,68,68,242,1,,,,
,,,,,,6120855d04fae5ca82f68779,66a626ef09d4e21e1a8894ec,673649b4253877d885e46d8a,2024-11-14_13h07.24.259,Tarea de género gramatical,2024.2.2,Linux armv81,90.09009009,,,,,,,,,,,,,,,,,,,,,,,267.8264,269.1082,l,1,[],[],[],[],[],[],[],0.6202,1,269.1086,269.6082,,,,,,502,MAS,CON,150,lago,,l,0.6202,,269.6123,269.615,-0.8,0.5,0,0,0,,0,69,69,51,1,,,,
,,,,,,6120855d04fae5ca82f68779,66a626ef09d4e21e1a8894ec,673649b4253877d885e46d8a,2024-11-14_13h07.24.259,Tarea de género gramatical,2024.2.2,Linux armv81,90.09009009,,,,,,,,,,,,,,,,,,,,,,,269.6177,270.7428,a,1,[],[],[],[],[],[],[],0.4591,1,270.7432,271.247,,,,,,500,FEM,DIS,150,dama,el,a,0.4591,,271.2472,271.2475,-0.8,0.5,0,0,0,,0,70,70,49,1,,,,
,,,,,,6120855d04fae5ca82f68779,66a626ef09d4e21e1a8894ec,673649b4253877d885e46d8a,2024-11-14_13h07.24.259,Tarea de género gramatical,2024.2.2,Linux armv81,90.09009009,,,,,,,,,,,,,,,,,,,,,,,271.2502,272.862,a,1,[],[],[],[],[],[],[],0.9368,1,272.8625,273.3546,,,,,,836,FEM,DIS,150,sombra,el,a,0.9368,,273.3549,273.3551,-0.8,0.5,0,0,0,,0,71,71,385,1,,,,
,,,,,,6120855d04fae5ca82f68779,66a626ef09d4e21e1a8894ec,673649b4253877d885e46d8a,2024-11-14_13h07.24.259,Tarea de género gramatical,2024.2.2,Linux armv81,90.09009009,,,,,,,,,,,,,,,,,,,,,,,273.3587,274.5139,l,1,[],[],[],[],[],[],[],0.4841,1,274.5143,275.0048,,,,,,701,MAS,DIS,150,dueño,la,l,0.4841,,275.0049,275.0053,-0.8,0.5,0,0,0,,0,72,72,250,1,,,,
,,,,,,6120855d04fae5ca82f68779,66a626ef09d4e21e1a8894ec,673649b4253877d885e46d8a,2024-11-14_13h07.24.259,Tarea de género gramatical,2024.2.2,Linux armv81,90.09009009,,,,,,,,,,,,,,,,,,,,,,,275.0082,276.2488,a,0,[],[],[],[],[],[],[],0.575,0,276.2501,276.7439,,,,,,816,MAS,AGR,150,riesgo,el,l,0.575,,276.7442,276.7444,-0.8,0.5,0,0,0,,0,73,73,365,1,,,,
,,,,,,6120855d04fae5ca82f68779,66a626ef09d4e21e1a8894ec,673649b4253877d885e46d8a,2024-11-14_13h07.24.259,Tarea de género gramatical,2024.2.2,Linux armv81,90.09009009,,,,,,,,,,,,,,,,,,,,,,,276.7473,278.0498,l,1,[],[],[],[],[],[],[],0.6324,1,278.0572,278.5502,,,,,,689,MAS,DIS,150,reloj,la,l,0.6324,,278.5536,278.5567,-0.8,0.5,0,0,0,,0,74,74,238,1,,,,
,,,,,,6120855d04fae5ca82f68779,66a626ef09d4e21e1a8894ec,673649b4253877d885e46d8a,2024-11-14_13h07.24.259,Tarea de género gramatical,2024.2.2,Linux armv81,90.09009009,,,,,,,,,,,,,,,,,,,,,,,278.5594,279.851,l,1,[],[],[],[],[],[],[],0.6228,1,279.8514,280.3409,,,,,,569,MAS,DIS,150,mito,la,l,0.6228,,280.3413,280.3416,-0.8,0.5,0,0,0,,0,75,75,118,1,,,,
,,,,,,6120855d04fae5ca82f68779,66a626ef09d4e21e1a8894ec,673649b4253877d885e46d8a,2024-11-14_13h07.24.259,Tarea de género gramatical,2024.2.2,Linux armv81,90.09009009,,,,,,,,,,,,,,,,,,,,,,,280.3445,281.6426,a,1,[],[],[],[],[],[],[],0.6221,1,281.6429,282.1358,,,,,,645,FEM,AGR,150,pared,la,a,0.6221,,282.1361,282.1364,-0.8,0.5,0,0,0,,0,76,76,194,1,,,,
,,,,,,6120855d04fae5ca82f68779,66a626ef09d4e21e1a8894ec,673649b4253877d885e46d8a,2024-11-14_13h07.24.259,Tarea de género gramatical,2024.2.2,Linux armv81,90.09009009,,,,,,,,,,,,,,,,,,,,,,,282.1395,283.4504,l,1,[],[],[],[],[],[],[],0.6313,1,283.4508,283.9479,,,,,,665,MAS,DIS,150,hueso,la,l,0.6313,,283.9481,283.9485,-0.8,0.5,0,0,0,,0,77,77,214,1,,,,
,,,,,,6120855d04fae5ca82f68779,66a626ef09d4e21e1a8894ec,673649b4253877d885e46d8a,2024-11-14_13h07.24.259,Tarea de género gramatical,2024.2.2,Linux armv81,90.09009009,,,,,,,,,,,,,,,,,,,,,,,283.9514,285.4093,l,1,[],[],[],[],[],[],[],0.7802,1,285.4096,285.904,,,,,,479,MAS,DIS,150,frío,la,l,0.7802,,285.9077,285.9103,-0.8,0.5,0,0,0,,0,78,78,28,1,,,,
,,,,,,6120855d04fae5ca82f68779,66a626ef09d4e21e1a8894ec,673649b4253877d885e46d8a,2024-11-14_13h07.24.259,Tarea de género gramatical,2024.2.2,Linux armv81,90.09009009,,,,,,,,,,,,,,,,,,,,,,,285.9126,287.0617,l,1,[],[],[],[],[],[],[],0.4768,1,287.0621,287.5569,,,,,,768,MAS,AGR,150,pueblo,el,l,0.4768,,287.5571,287.5575,-0.8,0.5,0,0,0,,0,79,79,317,1,,,,
,,,,,,6120855d04fae5ca82f68779,66a626ef09d4e21e1a8894ec,673649b4253877d885e46d8a,2024-11-14_13h07.24.259,Tarea de género gramatical,2024.2.2,Linux armv81,90.09009009,,,,,,,,,,,,,,,,,,,,,,,287.5607,288.9265,l,1,[],[],[],[],[],[],[],0.7005,1,288.9269,289.4233,,,,,,815,MAS,DIS,150,código,la,l,0.7005,,289.4234,289.4237,-0.8,0.5,0,0,0,,0,80,80,364,1,,,,
,,,,,,6120855d04fae5ca82f68779,66a626ef09d4e21e1a8894ec,673649b4253877d885e46d8a,2024-11-14_13h07.24.259,Tarea de género gramatical,2024.2.2,Linux armv81,90.09009009,,,,,,,,,,,,,,,,,,,,,,,289.4264,290.5222,a,1,[],[],[],[],[],[],[],0.4155,1,290.5225,291.0167,,,,,,727,FEM,CON,150,plaza,,a,0.4155,,291.0168,291.0172,-0.8,0.5,0,0,0,,0,81,81,276,1,,,,
,,,,,,6120855d04fae5ca82f68779,66a626ef09d4e21e1a8894ec,673649b4253877d885e46d8a,2024-11-14_13h07.24.259,Tarea de género gramatical,2024.2.2,Linux armv81,90.09009009,,,,,,,,,,,,,,,,,,,,,,,291.0199,292.1931,l,1,[],[],[],[],[],[],[],0.5059,1,292.1937,292.6995,,,,,,496,MAS,CON,150,odio,,l,0.5059,,292.6998,292.7002,-0.8,0.5,0,0,0,,0,82,82,45,1,,,,
,,,,,,6120855d04fae5ca82f68779,66a626ef09d4e21e1a8894ec,673649b4253877d885e46d8a,2024-11-14_13h07.24.259,Tarea de género gramatical,2024.2.2,Linux armv81,90.09009009,,,,,,,,,,,,,,,,,,,,,,,292.7033,293.8227,l,1,[],[],[],[],[],[],[],0.453,1,293.823,294.3157,,,,,,630,MAS,AGR,150,fuego,el,l,0.453,,294.3193,294.3217,-0.8,0.5,0,0,0,,0,83,83,179,1,,,,
,,,,,,6120855d04fae5ca82f68779,66a626ef09d4e21e1a8894ec,673649b4253877d885e46d8a,2024-11-14_13h07.24.259,Tarea de género gramatical,2024.2.2,Linux armv81,90.09009009,,,,,,,,,,,,,,,,,,,,,,,294.3244,295.5905,a,1,[],[],[],[],[],[],[],0.6021,1,295.5909,296.0747,,,,,,548,FEM,DIS,150,fuga,el,a,0.6021,,296.0749,296.0752,-0.8,0.5,0,0,0,,0,84,84,97,1,,,,
,,,,,,6120855d04fae5ca82f68779,66a626ef09d4e21e1a8894ec,673649b4253877d885e46d8a,2024-11-14_13h07.24.259,Tarea de género gramatical,2024.2.2,Linux armv81,90.09009009,,,,,,,,,,,,,,,,,,,,,,,296.0781,297.4241,l,1,[],[],[],[],[],[],[],0.6765,1,297.4245,297.9184,,,,,,658,MAS,CON,150,suelo,,l,0.6765,,297.9187,297.9189,-0.8,0.5,0,0,0,,0,85,85,207,1,,,,
,,,,,,6120855d04fae5ca82f68779,66a626ef09d4e21e1a8894ec,673649b4253877d885e46d8a,2024-11-14_13h07.24.259,Tarea de género gramatical,2024.2.2,Linux armv81,90.09009009,,,,,,,,,,,,,,,,,,,,,,,297.9217,299.1175,l,1,[],[],[],[],[],[],[],0.523,1,299.118,299.6074,,,,,,521,MAS,DIS,150,pozo,la,l,0.523,,299.6076,299.6079,-0.8,0.5,0,0,0,,0,86,86,70,1,,,,
,,,,,,6120855d04fae5ca82f68779,66a626ef09d4e21e1a8894ec,673649b4253877d885e46d8a,2024-11-14_13h07.24.259,Tarea de género gramatical,2024.2.2,Linux armv81,90.09009009,,,,,,,,,,,,,,,,,,,,,,,299.6108,300.8267,a,1,[],[],[],[],[],[],[],0.548,1,300.8271,301.3167,,,,,,675,FEM,AGR,150,pieza,la,a,0.548,,301.3203,301.3233,-0.8,0.5,0,0,0,,0,87,87,224,1,,,,
,,,,,,6120855d04fae5ca82f68779,66a626ef09d4e21e1a8894ec,673649b4253877d885e46d8a,2024-11-14_13h07.24.259,Tarea de género gramatical,2024.2.2,Linux armv81,90.09009009,,,,,,,,,,,,,,,,,,,,,,,301.3255,302.6231,l,1,[],[],[],[],[],[],[],0.6279,1,302.6234,303.1192,,,,,,503,MAS,DIS,150,vaso,la,l,0.6279,,303.1194,303.1198,-0.8,0.5,0,0,0,,0,88,88,52,1,,,,
,,,,,,6120855d04fae5ca82f68779,66a626ef09d4e21e1a8894ec,673649b4253877d885e46d8a,2024-11-14_13h07.24.259,Tarea de género gramatical,2024.2.2,Linux armv81,90.09009009,,,,,,,,,,,,,,,,,,,,,,,303.1231,304.3541,a,0,[],[],[],[],[],[],[],0.5634,0,304.3567,304.8497,,,,,,773,MAS,DIS,150,marido,la,l,0.5634,,304.8499,304.8504,-0.8,0.5,0,0,0,,0,89,89,322,1,,,,
,,,,,,6120855d04fae5ca82f68779,66a626ef09d4e21e1a8894ec,673649b4253877d885e46d8a,2024-11-14_13h07.24.259,Tarea de género gramatical,2024.2.2,Linux armv81,90.09009009,,,,,,,,,,,,,,,,,,,,,,,304.8532,306.7798,a,1,[],[],[],[],[],[],[],1.2586,1,306.7825,307.2736,,,,,,488,FEM,DIS,150,obra,el,a,1.2586,,307.2738,307.2743,-0.8,0.5,0,0,0,,0,90,90,37,1,,,,
,,,,,,6120855d04fae5ca82f68779,66a626ef09d4e21e1a8894ec,673649b4253877d885e46d8a,2024-11-14_13h07.24.259,Tarea de género gramatical,2024.2.2,Linux armv81,90.09009009,,,,,,,,,,,,,,,,,,,,,,,307.2772,308.5402,l,1,[],[],[],[],[],[],[],0.5952,1,308.5404,309.0287,,,,,,617,MAS,DIS,150,juego,la,l,0.5952,,309.0288,309.0292,-0.8,0.5,0,0,0,,0,91,91,166,1,,,,
,,,,,,6120855d04fae5ca82f68779,66a626ef09d4e21e1a8894ec,673649b4253877d885e46d8a,2024-11-14_13h07.24.259,Tarea de género gramatical,2024.2.2,Linux armv81,90.09009009,,,,,,,,,,,,,,,,,,,,,,,309.0328,310.2604,a,1,[],[],[],[],[],[],[],0.5575,1,310.2607,310.7581,,,,,,633,FEM,AGR,150,llave,la,a,0.5575,,310.7621,310.7646,-0.8,0.5,0,0,0,,0,92,92,182,1,,,,
,,,,,,6120855d04fae5ca82f68779,66a626ef09d4e21e1a8894ec,673649b4253877d885e46d8a,2024-11-14_13h07.24.259,Tarea de género gramatical,2024.2.2,Linux armv81,90.09009009,,,,,,,,,,,,,,,,,,,,,,,310.767,311.9506,a,1,[],[],[],[],[],[],[],0.508,1,311.9509,312.4403,,,,,,597,FEM,AGR,150,grúa,la,a,0.508,,312.4405,312.4408,-0.8,0.5,0,0,0,,0,93,93,146,1,,,,
,,,,,,6120855d04fae5ca82f68779,66a626ef09d4e21e1a8894ec,673649b4253877d885e46d8a,2024-11-14_13h07.24.259,Tarea de género gramatical,2024.2.2,Linux armv81,90.09009009,,,,,,,,,,,,,,,,,,,,,,,312.4433,313.6019,a,1,[],[],[],[],[],[],[],0.4835,1,313.6022,314.107,,,,,,709,FEM,CON,150,prima,,a,0.4835,,314.1073,314.1076,-0.8,0.5,0,0,0,,0,94,94,258,1,,,,
,,,,,,6120855d04fae5ca82f68779,66a626ef09d4e21e1a8894ec,673649b4253877d885e46d8a,2024-11-14_13h07.24.259,Tarea de género gramatical,2024.2.2,Linux armv81,90.09009009,,,,,,,,,,,,,,,,,,,,,,,314.1105,315.2552,l,1,[],[],[],[],[],[],[],0.473,1,315.2556,315.741,,,,,,785,MAS,DIS,150,montón,la,l,0.473,,315.7413,315.7416,-0.8,0.5,0,0,0,,0,95,95,334,1,,,,
,,,,,,6120855d04fae5ca82f68779,66a626ef09d4e21e1a8894ec,673649b4253877d885e46d8a,2024-11-14_13h07.24.259,Tarea de género gramatical,2024.2.2,Linux armv81,90.09009009,,,,,,,,,,,,,,,,,,,,,,,315.7441,316.953,l,1,[],[],[],[],[],[],[],0.5343,1,316.9534,317.4534,,,,,,472,MAS,CON,150,pelo,,l,0.5343,,317.4571,317.4607,-0.8,0.5,0,0,0,,0,96,96,21,1,,,,
,,,,,,6120855d04fae5ca82f68779,66a626ef09d4e21e1a8894ec,673649b4253877d885e46d8a,2024-11-14_13h07.24.259,Tarea de género gramatical,2024.2.2,Linux armv81,90.09009009,,,,,,,,,,,,,,,,,,,,,,,317.463,318.6617,a,1,[],[],[],[],[],[],[],0.5331,1,318.6621,319.1651,,,,,,673,FEM,CON,150,plata,,a,0.5331,,319.1653,319.1656,-0.8,0.5,0,0,0,,0,97,97,222,1,,,,
,,,,,,6120855d04fae5ca82f68779,66a626ef09d4e21e1a8894ec,673649b4253877d885e46d8a,2024-11-14_13h07.24.259,Tarea de género gramatical,2024.2.2,Linux armv81,90.09009009,,,,,,,,,,,,,,,,,,,,,,,319.1684,320.4668,a,1,[],[],[],[],[],[],[],0.6274,1,320.4672,320.9725,,,,,,627,FEM,AGR,150,broma,la,a,0.6274,,320.9727,320.973,-0.8,0.5,0,0,0,,0,98,98,176,1,,,,
,,,,,,6120855d04fae5ca82f68779,66a626ef09d4e21e1a8894ec,673649b4253877d885e46d8a,2024-11-14_13h07.24.259,Tarea de género gramatical,2024.2.2,Linux armv81,90.09009009,,,,,,,,,,,,,,,,,,,,,,,320.9757,322.2747,a,1,[],[],[],[],[],[],[],0.6246,1,322.2753,322.779,,,,,,854,FEM,DIS,150,gloria,el,a,0.6246,,322.7793,322.7796,-0.8,0.5,0,0,0,,0,99,99,403,1,,,,
,,,,,,6120855d04fae5ca82f68779,66a626ef09d4e21e1a8894ec,673649b4253877d885e46d8a,2024-11-14_13h07.24.259,Tarea de género gramatical,2024.2.2,Linux armv81,90.09009009,,,,,,,,,,,,,,,,,,,,,,,322.7822,323.9416,a,1,[],[],[],[],[],[],[],0.4978,1,323.9421,324.4363,,,,,,843,FEM,AGR,150,alarma,la,a,0.4978,,324.4365,324.4369,-0.8,0.5,0,0,0,,0,100,100,392,1,,,,
,,,,,,6120855d04fae5ca82f68779,66a626ef09d4e21e1a8894ec,673649b4253877d885e46d8a,2024-11-14_13h07.24.259,Tarea de género gramatical,2024.2.2,Linux armv81,90.09009009,,,,,,,,,,,,,,,,,,,,,,,324.4395,325.6251,a,1,[],[],[],[],[],[],[],0.5131,1,325.6254,326.1305,,,,,,475,FEM,CON,150,nave,,a,0.5131,,326.1344,326.1368,-0.8,0.5,0,0,0,,0,101,101,24,1,,,,
,,,,,,6120855d04fae5ca82f68779,66a626ef09d4e21e1a8894ec,673649b4253877d885e46d8a,2024-11-14_13h07.24.259,Tarea de género gramatical,2024.2.2,Linux armv81,90.09009009,,,,,,,,,,,,,,,,,,,,,,,326.1391,327.4123,l,1,[],[],[],[],[],[],[],0.6066,1,327.4126,327.914,,,,,,678,MAS,AGR,150,nivel,el,l,0.6066,,327.9143,327.9146,-0.8,0.5,0,0,0,,0,102,102,227,1,,,,
,,,,,,6120855d04fae5ca82f68779,66a626ef09d4e21e1a8894ec,673649b4253877d885e46d8a,2024-11-14_13h07.24.259,Tarea de género gramatical,2024.2.2,Linux armv81,90.09009009,,,,,,,,,,,,,,,,,,,,,,,327.9171,329.1226,a,1,[],[],[],[],[],[],[],0.5401,1,329.1229,329.6284,,,,,,469,FEM,CON,150,niña,,a,0.5401,,329.6285,329.6288,-0.8,0.5,0,0,0,,0,103,103,18,1,,,,
,,,,,,6120855d04fae5ca82f68779,66a626ef09d4e21e1a8894ec,673649b4253877d885e46d8a,2024-11-14_13h07.24.259,Tarea de género gramatical,2024.2.2,Linux armv81,90.09009009,,,,,,,,,,,,,,,,,,,,,,,329.6319,330.8179,a,1,[],[],[],[],[],[],[],0.5239,1,330.8184,331.3169,,,,,,806,FEM,DIS,150,piedra,el,a,0.5239,,331.3172,331.3175,-0.8,0.5,0,0,0,,0,104,104,355,1,,,,
,,,,,,6120855d04fae5ca82f68779,66a626ef09d4e21e1a8894ec,673649b4253877d885e46d8a,2024-11-14_13h07.24.259,Tarea de género gramatical,2024.2.2,Linux armv81,90.09009009,,,,,,,,,,,,,,,,,,,,,,,331.3206,332.784,l,1,[],[],[],[],[],[],[],0.7963,1,332.7843,333.2792,,,,,,497,MAS,DIS,150,olor,la,l,0.7963,,333.2866,333.292,-0.8,0.5,0,0,0,,0,105,105,46,1,,,,
,,,,,,6120855d04fae5ca82f68779,66a626ef09d4e21e1a8894ec,673649b4253877d885e46d8a,2024-11-14_13h07.24.259,Tarea de género gramatical,2024.2.2,Linux armv81,90.09009009,,,,,,,,,,,,,,,,,,,,,,,333.2962,334.5562,a,0,[],[],[],[],[],[],[],0.5908,0,334.5592,335.0605,,,,,,635,MAS,DIS,150,sueño,la,l,0.5908,,335.0608,335.0615,-0.8,0.5,0,0,0,,0,106,106,184,1,,,,
,,,,,,6120855d04fae5ca82f68779,66a626ef09d4e21e1a8894ec,673649b4253877d885e46d8a,2024-11-14_13h07.24.259,Tarea de género gramatical,2024.2.2,Linux armv81,90.09009009,,,,,,,,,,,,,,,,,,,,,,,335.0662,336.2393,a,1,[],[],[],[],[],[],[],0.5065,1,336.2424,336.736,,,,,,692,FEM,DIS,150,pizza,el,a,0.5065,,336.7362,336.7364,-0.8,0.5,0,0,0,,0,107,107,241,1,,,,
,,,,,,6120855d04fae5ca82f68779,66a626ef09d4e21e1a8894ec,673649b4253877d885e46d8a,2024-11-14_13h07.24.259,Tarea de género gramatical,2024.2.2,Linux armv81,90.09009009,,,,,,,,,,,,,,,,,,,,,,,336.7392,337.8963,a,0,[],[],[],[],[],[],[],0.4904,0,337.8991,338.3891,,,,,,844,MAS,CON,150,examen,,l,0.4904,,338.3893,338.3896,-0.8,0.5,0,0,0,,0,108,108,393,1,,,,
,,,,,,6120855d04fae5ca82f68779,66a626ef09d4e21e1a8894ec,673649b4253877d885e46d8a,2024-11-14_13h07.24.259,Tarea de género gramatical,2024.2.2,Linux armv81,90.09009009,,,,,,,,,,,,,,,,,,,,,,,338.3924,340.6056,l,0,[],[],[],[],[],[],[],1.5456,0,340.606,341.114,,,,,,812,FEM,DIS,150,fuente,el,a,1.5456,,341.1143,341.1148,-0.8,0.5,0,0,0,,0,109,109,361,1,,,,
,,,,,,6120855d04fae5ca82f68779,66a626ef09d4e21e1a8894ec,673649b4253877d885e46d8a,2024-11-14_13h07.24.259,Tarea de género gramatical,2024.2.2,Linux armv81,90.09009009,,,,,,,,,,,,,,,,,,,,,,,341.1179,342.707,l,1,[],[],[],[],[],[],[],0.9193,1,342.7117,343.2,,,,,,461,MAS,DIS,150,país,la,l,0.9193,,343.2037,343.2065,-0.8,0.5,0,0,0,,0,110,110,10,1,,,,
,,,,,,6120855d04fae5ca82f68779,66a626ef09d4e21e1a8894ec,673649b4253877d885e46d8a,2024-11-14_13h07.24.259,Tarea de género gramatical,2024.2.2,Linux armv81,90.09009009,,,,,,,,,,,,,,,,,,,,,,,343.2089,344.7131,l,1,[],[],[],[],[],[],[],0.8407,1,344.7133,345.2158,,,,,,606,MAS,AGR,150,amigo,el,l,0.8407,0.0004,345.2161,345.2169,-0.8,0.5,0,0,0,,0,111,111,155,1,,,,
,,,,,,6120855d04fae5ca82f68779,66a626ef09d4e21e1a8894ec,673649b4253877d885e46d8a,2024-11-14_13h07.24.259,Tarea de género gramatical,2024.2.2,Linux armv81,90.09009009,,,,,,,,,,,,,,,,,,,,,,,345.2219,346.4092,l,1,[],[],[],[],[],[],[],0.5219,1,346.4095,346.8961,,,,,,612,MAS,AGR,150,miedo,el,l,0.5219,,346.8963,346.8967,-0.8,0.5,0,0,0,,0,112,112,161,1,,,,
,,,,,,6120855d04fae5ca82f68779,66a626ef09d4e21e1a8894ec,673649b4253877d885e46d8a,2024-11-14_13h07.24.259,Tarea de género gramatical,2024.2.2,Linux armv81,90.09009009,,,,,,,,,,,,,,,,,,,,,,,346.8998,348.1873,l,1,[],[],[],[],[],[],[],0.6167,1,348.1875,348.6938,,,,,,545,MAS,DIS,150,tomo,la,l,0.6167,,348.6941,348.6945,-0.8,0.5,0,0,0,,0,113,113,94,1,,,,
,,,,,,6120855d04fae5ca82f68779,66a626ef09d4e21e1a8894ec,673649b4253877d885e46d8a,2024-11-14_13h07.24.259,Tarea de género gramatical,2024.2.2,Linux armv81,90.09009009,,,,,,,,,,,,,,,,,,,,,,,348.697,350.0698,l,1,[],[],[],[],[],[],[],0.7046,1,350.0704,350.5734,,,,,,755,MAS,DIS,150,hombre,la,l,0.7046,,350.5771,350.5796,-0.8,0.5,0,0,0,,0,114,114,304,1,,,,
,,,,,,6120855d04fae5ca82f68779,66a626ef09d4e21e1a8894ec,673649b4253877d885e46d8a,2024-11-14_13h07.24.259,Tarea de género gramatical,2024.2.2,Linux armv81,90.09009009,,,,,,,,,,,,,,,,,,,,,,,350.5818,351.7557,a,1,[],[],[],[],[],[],[],0.5111,1,351.756,352.2588,,,,,,607,FEM,CON,150,madre,,a,0.5111,,352.259,352.2593,-0.8,0.5,0,0,0,,0,115,115,156,1,,,,
,,,,,,6120855d04fae5ca82f68779,66a626ef09d4e21e1a8894ec,673649b4253877d885e46d8a,2024-11-14_13h07.24.259,Tarea de género gramatical,2024.2.2,Linux armv81,90.09009009,,,,,,,,,,,,,,,,,,,,,,,352.2623,353.3152,a,1,[],[],[],[],[],[],[],0.3825,1,353.3154,353.8119,,,,,,451,FEM,CON,150,casa,,a,0.3825,,353.812,353.8123,-0.8,0.5,0,0,0,,0,116,116,0,1,,,,
,,,,,,6120855d04fae5ca82f68779,66a626ef09d4e21e1a8894ec,673649b4253877d885e46d8a,2024-11-14_13h07.24.259,Tarea de género gramatical,2024.2.2,Linux armv81,90.09009009,,,,,,,,,,,,,,,,,,,,,,,353.8151,354.9306,a,1,[],[],[],[],[],[],[],0.4464,1,354.9311,355.4258,,,,,,555,FEM,AGR,150,jefa,la,a,0.4464,,355.426,355.4264,-0.8,0.5,0,0,0,,0,117,117,104,1,,,,
,,,,,,6120855d04fae5ca82f68779,66a626ef09d4e21e1a8894ec,673649b4253877d885e46d8a,2024-11-14_13h07.24.259,Tarea de género gramatical,2024.2.2,Linux armv81,90.09009009,,,,,,,,,,,,,,,,,,,,,,,355.4292,356.9558,l,1,[],[],[],[],[],[],[],0.8573,1,356.9563,357.449,,,,,,533,MAS,DIS,150,nene,la,l,0.8573,,357.4493,357.4496,-0.8,0.5,0,0,0,,0,118,118,82,1,,,,
,,,,,,6120855d04fae5ca82f68779,66a626ef09d4e21e1a8894ec,673649b4253877d885e46d8a,2024-11-14_13h07.24.259,Tarea de género gramatical,2024.2.2,Linux armv81,90.09009009,,,,,,,,,,,,,,,,,,,,,,,357.4529,358.7019,l,0,[],[],[],[],[],[],[],0.5839,0,358.7048,359.2061,,,,,,891,FEM,AGR,150,medida,la,a,0.5839,,359.2123,359.2148,-0.8,0.5,0,0,0,,0,119,119,440,1,,,,
,,,,,,6120855d04fae5ca82f68779,66a626ef09d4e21e1a8894ec,673649b4253877d885e46d8a,2024-11-14_13h07.24.259,Tarea de género gramatical,2024.2.2,Linux armv81,90.09009009,,,,,,,,,,,,,,,,,,,,,,,359.2168,361.1031,a,1,[],[],[],[],[],[],[],1.2124,1,361.1059,361.6003,,,,,,823,FEM,CON,150,lluvia,,a,1.2124,,361.6005,361.6009,-0.8,0.5,0,0,0,,0,120,120,372,1,,,,
,,,,,,6120855d04fae5ca82f68779,66a626ef09d4e21e1a8894ec,673649b4253877d885e46d8a,2024-11-14_13h07.24.259,Tarea de género gramatical,2024.2.2,Linux armv81,90.09009009,,,,,,,,,,,,,,,,,,,,,,,361.6038,362.9245,l,1,[],[],[],[],[],[],[],0.6553,1,362.9248,363.4257,,,,,,870,MAS,AGR,150,helado,el,l,0.6553,,363.4259,363.4263,-0.8,0.5,0,0,0,,0,121,121,419,1,,,,
,,,,,,6120855d04fae5ca82f68779,66a626ef09d4e21e1a8894ec,673649b4253877d885e46d8a,2024-11-14_13h07.24.259,Tarea de género gramatical,2024.2.2,Linux armv81,90.09009009,,,,,,,,,,,,,,,,,,,,,,,363.4292,365.1567,l,1,[],[],[],[],[],[],[],1.055,1,365.1571,365.6559,,,,,,743,MAS,DIS,150,patio,la,l,1.055,,365.6561,365.6564,-0.8,0.5,0,0,0,,0,122,122,292,1,,,,
,,,,,,6120855d04fae5ca82f68779,66a626ef09d4e21e1a8894ec,673649b4253877d885e46d8a,2024-11-14_13h07.24.259,Tarea de género gramatical,2024.2.2,Linux armv81,90.09009009,,,,,,,,,,,,,,,,,,,,,,,365.6596,367.2375,a,1,[],[],[],[],[],[],[],0.9094,1,367.2377,367.7271,,,,,,662,FEM,DIS,150,cinta,el,a,0.9094,,367.7304,367.7327,-0.8,0.5,0,0,0,,0,123,123,211,1,,,,
,,,,,,6120855d04fae5ca82f68779,66a626ef09d4e21e1a8894ec,673649b4253877d885e46d8a,2024-11-14_13h07.24.259,Tarea de género gramatical,2024.2.2,Linux armv81,90.09009009,,,,,,,,,,,,,,,,,,,,,,,367.7351,368.955,a,1,[],[],[],[],[],[],[],0.5473,1,368.9553,369.4492,,,,,,794,FEM,DIS,150,pareja,el,a,0.5473,,369.4496,369.4504,-0.8,0.5,0,0,0,,0,124,124,343,1,,,,
,,,,,,6120855d04fae5ca82f68779,66a626ef09d4e21e1a8894ec,673649b4253877d885e46d8a,2024-11-14_13h07.24.259,Tarea de género gramatical,2024.2.2,Linux armv81,90.09009009,,,,,,,,,,,,,,,,,,,,,,,369.4558,370.6671,l,1,[],[],[],[],[],[],[],0.5474,1,370.6674,371.1603,,,,,,706,MAS,CON,150,techo,,l,0.5474,,371.1605,371.1608,-0.8,0.5,0,0,0,,0,125,125,255,1,,,,
,,,,,,6120855d04fae5ca82f68779,66a626ef09d4e21e1a8894ec,673649b4253877d885e46d8a,2024-11-14_13h07.24.259,Tarea de género gramatical,2024.2.2,Linux armv81,90.09009009,,,,,,,,,,,,,,,,,,,,,,,371.1635,372.4607,l,1,[],[],[],[],[],[],[],0.6233,1,372.4609,372.9542,,,,,,592,MAS,CON,150,lodo,,l,0.6233,,372.9546,372.9549,-0.8,0.5,0,0,0,,0,126,126,141,1,,,,
,,,,,,6120855d04fae5ca82f68779,66a626ef09d4e21e1a8894ec,673649b4253877d885e46d8a,2024-11-14_13h07.24.259,Tarea de género gramatical,2024.2.2,Linux armv81,90.09009009,,,,,,,,,,,,,,,,,,,,,,,372.9576,374.1662,a,1,[],[],[],[],[],[],[],0.5439,1,374.1665,374.6599,,,,,,855,FEM,AGR,150,parada,la,a,0.5439,,374.6601,374.6605,-0.8,0.5,0,0,0,,0,127,127,404,1,,,,
,,,,,,6120855d04fae5ca82f68779,66a626ef09d4e21e1a8894ec,673649b4253877d885e46d8a,2024-11-14_13h07.24.259,Tarea de género gramatical,2024.2.2,Linux armv81,90.09009009,,,,,,,,,,,,,,,,,,,,,,,374.6642,376.4474,l,1,[],[],[],[],[],[],[],1.1162,1,376.4479,376.9531,,,,,,695,MAS,DIS,150,turno,la,l,1.1162,,376.9572,376.9597,-0.8,0.5,0,0,0,,0,128,128,244,1,,,,
,,,,,,6120855d04fae5ca82f68779,66a626ef09d4e21e1a8894ec,673649b4253877d885e46d8a,2024-11-14_13h07.24.259,Tarea de género gramatical,2024.2.2,Linux armv81,90.09009009,,,,,,,,,,,,,,,,,,,,,,,376.9617,378.456,l,1,[],[],[],[],[],[],[],0.8163,1,378.4563,378.9489,,,,,,604,MAS,CON,150,padre,,l,0.8163,,378.9491,378.9494,-0.8,0.5,0,0,0,,0,129,129,153,1,,,,
,,,,,,6120855d04fae5ca82f68779,66a626ef09d4e21e1a8894ec,673649b4253877d885e46d8a,2024-11-14_13h07.24.259,Tarea de género gramatical,2024.2.2,Linux armv81,90.09009009,,,,,,,,,,,,,,,,,,,,,,,378.9527,380.3859,l,1,[],[],[],[],[],[],[],0.7566,1,380.3863,380.8853,,,,,,454,MAS,CON,150,hijo,,l,0.7566,,380.8855,380.8858,-0.8,0.5,0,0,0,,0,130,130,3,1,,,,
,,,,,,6120855d04fae5ca82f68779,66a626ef09d4e21e1a8894ec,673649b4253877d885e46d8a,2024-11-14_13h07.24.259,Tarea de género gramatical,2024.2.2,Linux armv81,90.09009009,,,,,,,,,,,,,,,,,,,,,,,380.8883,382.1638,a,1,[],[],[],[],[],[],[],0.5995,1,382.1643,382.659,,,,,,721,FEM,CON,150,viuda,,a,0.5995,,382.6592,382.6595,-0.8,0.5,0,0,0,,0,131,131,270,1,,,,
,,,,,,6120855d04fae5ca82f68779,66a626ef09d4e21e1a8894ec,673649b4253877d885e46d8a,2024-11-14_13h07.24.259,Tarea de género gramatical,2024.2.2,Linux armv81,90.09009009,,,,,,,,,,,,,,,,,,,,,,,382.6621,384.432,a,1,[],[],[],[],[],[],[],1.096,1,384.4323,384.9292,,,,,,537,FEM,AGR,150,risa,la,a,1.096,,384.9328,384.9355,-0.8,0.5,0,0,0,,0,132,132,86,1,,,,
,,,,,,6120855d04fae5ca82f68779,66a626ef09d4e21e1a8894ec,673649b4253877d885e46d8a,2024-11-14_13h07.24.259,Tarea de género gramatical,2024.2.2,Linux armv81,90.09009009,,,,,,,,,,,,,,,,,,,,,,,384.9381,387.0187,a,1,[],[],[],[],[],[],[],1.4104,1,387.019,387.5072,,,,,,644,FEM,DIS,150,banda,el,a,1.4104,,387.5075,387.5078,-0.8,0.5,0,0,0,,0,133,133,193,1,,,,
,,,,,,6120855d04fae5ca82f68779,66a626ef09d4e21e1a8894ec,673649b4253877d885e46d8a,2024-11-14_13h07.24.259,Tarea de género gramatical,2024.2.2,Linux armv81,90.09009009,,,,,,,,,,,,,,,,,,,,,,,387.5108,388.8888,l,1,[],[],[],[],[],[],[],0.7081,1,388.8892,389.3823,,,,,,790,MAS,CON,150,pasado,,l,0.7081,,389.3825,389.3828,-0.8,0.5,0,0,0,,0,134,134,339,1,,,,
,,,,,,6120855d04fae5ca82f68779,66a626ef09d4e21e1a8894ec,673649b4253877d885e46d8a,2024-11-14_13h07.24.259,Tarea de género gramatical,2024.2.2,Linux armv81,90.09009009,,,,,,,,,,,,,,,,,,,,,,,389.3852,391.0425,l,1,[],[],[],[],[],[],[],0.9802,1,391.0427,391.5444,,,,,,826,MAS,CON,150,efecto,,l,0.9802,,391.5446,391.545,-0.8,0.5,0,0,0,,0,135,135,375,1,,,,
,,,,,,6120855d04fae5ca82f68779,66a626ef09d4e21e1a8894ec,673649b4253877d885e46d8a,2024-11-14_13h07.24.259,Tarea de género gramatical,2024.2.2,Linux armv81,90.09009009,,,,,,,,,,,,,,,,,,,,,,,391.5475,393.5575,l,0,[],[],[],[],[],[],[],1.3329,0,393.5605,394.0516,,,,,,884,FEM,DIS,150,corona,el,a,1.3329,,394.0518,394.0521,-0.8,0.5,0,0,0,,0,136,136,433,1,,,,
,,,,,,6120855d04fae5ca82f68779,66a626ef09d4e21e1a8894ec,673649b4253877d885e46d8a,2024-11-14_13h07.24.259,Tarea de género gramatical,2024.2.2,Linux armv81,90.09009009,,,,,,,,,,,,,,,,,,,,,,,394.0556,396.0757,l,1,[],[],[],[],[],[],[],1.3475,1,396.0782,396.5809,,,,,,636,MAS,AGR,150,error,el,l,1.3475,,396.5844,396.5866,-0.8,0.5,0,0,0,,0,137,137,185,1,,,,
,,,,,,6120855d04fae5ca82f68779,66a626ef09d4e21e1a8894ec,673649b4253877d885e46d8a,2024-11-14_13h07.24.259,Tarea de género gramatical,2024.2.2,Linux armv81,90.09009009,,,,,,,,,,,,,,,,,,,,,,,396.5886,398.108,a,1,[],[],[],[],[],[],[],0.8456,1,398.1084,398.5966,,,,,,559,FEM,CON,150,gota,,a,0.8456,,398.5968,398.5971,-0.8,0.5,0,0,0,,0,138,138,108,1,,,,
,,,,,,6120855d04fae5ca82f68779,66a626ef09d4e21e1a8894ec,673649b4253877d885e46d8a,2024-11-14_13h07.24.259,Tarea de género gramatical,2024.2.2,Linux armv81,90.09009009,,,,,,,,,,,,,,,,,,,,,,,398.6,400.4347,a,1,[],[],[],[],[],[],[],1.1606,1,400.4351,400.9286,,,,,,589,FEM,CON,150,pipa,,a,1.1606,,400.9289,400.9292,-0.8,0.5,0,0,0,,0,139,139,138,1,,,,
,,,,,,6120855d04fae5ca82f68779,66a626ef09d4e21e1a8894ec,673649b4253877d885e46d8a,2024-11-14_13h07.24.259,Tarea de género gramatical,2024.2.2,Linux armv81,90.09009009,,,,,,,,,,,,,,,,,,,,,,,400.9322,402.3499,l,1,[],[],[],[],[],[],[],0.7381,1,402.3502,402.8411,,,,,,731,MAS,DIS,150,actor,la,l,0.7381,,402.8414,402.8417,-0.8,0.5,0,0,0,,0,140,140,280,1,,,,
,,,,,,6120855d04fae5ca82f68779,66a626ef09d4e21e1a8894ec,673649b4253877d885e46d8a,2024-11-14_13h07.24.259,Tarea de género gramatical,2024.2.2,Linux armv81,90.09009009,,,,,,,,,,,,,,,,,,,,,,,402.8446,404.2534,a,1,[],[],[],[],[],[],[],0.7416,1,404.2538,404.7395,,,,,,572,FEM,DIS,150,loca,el,a,0.7416,,404.7432,404.746,-0.8,0.5,0,0,0,,0,141,141,121,1,,,,
,,,,,,6120855d04fae5ca82f68779,66a626ef09d4e21e1a8894ec,673649b4253877d885e46d8a,2024-11-14_13h07.24.259,Tarea de género gramatical,2024.2.2,Linux armv81,90.09009009,,,,,,,,,,,,,,,,,,,,,,,404.7481,405.9844,a,1,[],[],[],[],[],[],[],0.5667,1,405.9847,406.4818,,,,,,771,FEM,AGR,150,comida,la,a,0.5667,,406.4821,406.4824,-0.8,0.5,0,0,0,,0,142,142,320,1,,,,
,,,,,,6120855d04fae5ca82f68779,66a626ef09d4e21e1a8894ec,673649b4253877d885e46d8a,2024-11-14_13h07.24.259,Tarea de género gramatical,2024.2.2,Linux armv81,90.09009009,,,,,,,,,,,,,,,,,,,,,,,406.4854,407.7384,l,1,[],[],[],[],[],[],[],0.5709,1,407.7387,408.2415,,,,,,803,MAS,DIS,150,verano,la,l,0.5709,,408.2416,408.242,-0.8,0.5,0,0,0,,0,143,143,352,1,,,,
,,,,,,6120855d04fae5ca82f68779,66a626ef09d4e21e1a8894ec,673649b4253877d885e46d8a,2024-11-14_13h07.24.259,Tarea de género gramatical,2024.2.2,Linux armv81,90.09009009,,,,,,,,,,,,,,,,,,,,,,,408.245,409.6161,l,1,[],[],[],[],[],[],[],0.7042,1,409.6164,410.1162,,,,,,666,MAS,AGR,150,éxito,el,l,0.7042,,410.1163,410.1167,-0.8,0.5,0,0,0,,0,144,144,215,1,,,,
,,,,,,6120855d04fae5ca82f68779,66a626ef09d4e21e1a8894ec,673649b4253877d885e46d8a,2024-11-14_13h07.24.259,Tarea de género gramatical,2024.2.2,Linux armv81,90.09009009,,,,,,,,,,,,,,,,,,,,,,,410.1192,411.2838,a,1,[],[],[],[],[],[],[],0.4916,1,411.2841,411.7863,,,,,,495,FEM,AGR,150,isla,la,a,0.4916,,411.7865,411.7869,-0.8,0.5,0,0,0,,0,145,145,44,1,,,,
,,,,,,6120855d04fae5ca82f68779,66a626ef09d4e21e1a8894ec,673649b4253877d885e46d8a,2024-11-14_13h07.24.259,Tarea de género gramatical,2024.2.2,Linux armv81,90.09009009,,,,,,,,,,,,,,,,,,,,,,,411.7897,413.0382,a,1,[],[],[],[],[],[],[],0.5826,1,413.0386,413.5427,,,,,,811,FEM,CON,150,oferta,,a,0.5826,,413.5463,413.5492,-0.8,0.5,0,0,0,,0,146,146,360,1,,,,
,,,,,,6120855d04fae5ca82f68779,66a626ef09d4e21e1a8894ec,673649b4253877d885e46d8a,2024-11-14_13h07.24.259,Tarea de género gramatical,2024.2.2,Linux armv81,90.09009009,,,,,,,,,,,,,,,,,,,,,,,413.5515,414.67,a,1,[],[],[],[],[],[],[],0.4455,1,414.6703,415.1717,,,,,,535,FEM,CON,150,gira,,a,0.4455,,415.172,415.1723,-0.8,0.5,0,0,0,,0,147,147,84,1,,,,
,,,,,,6120855d04fae5ca82f68779,66a626ef09d4e21e1a8894ec,673649b4253877d885e46d8a,2024-11-14_13h07.24.259,Tarea de género gramatical,2024.2.2,Linux armv81,90.09009009,,,,,,,,,,,,,,,,,,,,,,,415.175,416.4532,a,1,[],[],[],[],[],[],[],0.6091,1,416.4535,416.9563,,,,,,465,FEM,AGR,150,cama,la,a,0.6091,,416.9565,416.9568,-0.8,0.5,0,0,0,,0,148,148,14,1,,,,
,,,,,,6120855d04fae5ca82f68779,66a626ef09d4e21e1a8894ec,673649b4253877d885e46d8a,2024-11-14_13h07.24.259,Tarea de género gramatical,2024.2.2,Linux armv81,90.09009009,,,,,,,,,,,,,,,,,,,,,,,416.96,418.2137,a,1,[],[],[],[],[],[],[],0.5829,1,418.214,418.7087,,,,,,681,FEM,AGR,150,bruja,la,a,0.5829,,418.709,418.7101,-0.8,0.5,0,0,0,,0,149,149,230,1,,,,
,,,,,,6120855d04fae5ca82f68779,66a626ef09d4e21e1a8894ec,673649b4253877d885e46d8a,2024-11-14_13h07.24.259,Tarea de género gramatical,2024.2.2,Linux armv81,90.09009009,,,,,,,,,,,,,,,,,,,,,,,418.7173,420.0179,l,1,[],[],[],[],[],[],[],0.6337,1,420.0183,420.5219,,,,,,683,MAS,DIS,150,golpe,la,l,0.6337,,420.5254,449.9411,-0.8,0.5,0,0,0,space,0,150,150,232,1,29.3679,,,
,,,,,,6120855d04fae5ca82f68779,66a626ef09d4e21e1a8894ec,673649b4253877d885e46d8a,2024-11-14_13h07.24.259,Tarea de género gramatical,2024.2.2,Linux armv81,90.09009009,,,,,,,,,,,,,,,,,,,,,,,449.9446,451.4701,l,1,[],[],[],[],[],[],[],0.8621,1,451.4706,451.9748,,,,,,821,MAS,DIS,150,sonido,la,l,0.8621,,451.975,451.9753,-0.8,0.5,0,0,0,,0,151,151,370,1,,,,
,,,,,,6120855d04fae5ca82f68779,66a626ef09d4e21e1a8894ec,673649b4253877d885e46d8a,2024-11-14_13h07.24.259,Tarea de género gramatical,2024.2.2,Linux armv81,90.09009009,,,,,,,,,,,,,,,,,,,,,,,451.9779,453.539,a,0,[],[],[],[],[],[],[],0.8901,0,453.5445,454.0327,,,,,,575,MAS,DIS,150,bate,la,l,0.8901,,454.0329,454.0333,-0.8,0.5,0,0,0,,0,152,152,124,1,,,,
,,,,,,6120855d04fae5ca82f68779,66a626ef09d4e21e1a8894ec,673649b4253877d885e46d8a,2024-11-14_13h07.24.259,Tarea de género gramatical,2024.2.2,Linux armv81,90.09009009,,,,,,,,,,,,,,,,,,,,,,,454.0357,455.4051,l,1,[],[],[],[],[],[],[],0.695,1,455.4076,455.9052,,,,,,738,MAS,AGR,150,grado,el,l,0.695,,455.9055,455.9058,-0.8,0.5,0,0,0,,0,153,153,287,1,,,,
,,,,,,6120855d04fae5ca82f68779,66a626ef09d4e21e1a8894ec,673649b4253877d885e46d8a,2024-11-14_13h07.24.259,Tarea de género gramatical,2024.2.2,Linux armv81,90.09009009,,,,,,,,,,,,,,,,,,,,,,,455.9084,457.3592,l,1,[],[],[],[],[],[],[],0.7874,1,457.3597,457.8535,,,,,,749,MAS,DIS,150,rumbo,la,l,0.7874,,457.8538,457.8541,-0.8,0.5,0,0,0,,0,154,154,298,1,,,,
,,,,,,6120855d04fae5ca82f68779,66a626ef09d4e21e1a8894ec,673649b4253877d885e46d8a,2024-11-14_13h07.24.259,Tarea de género gramatical,2024.2.2,Linux armv81,90.09009009,,,,,,,,,,,,,,,,,,,,,,,457.857,459.0556,a,1,[],[],[],[],[],[],[],0.5268,1,459.0559,459.5545,,,,,,807,FEM,AGR,150,lengua,la,a,0.5268,,459.5586,459.5626,-0.8,0.5,0,0,0,,0,155,155,356,1,,,,
,,,,,,6120855d04fae5ca82f68779,66a626ef09d4e21e1a8894ec,673649b4253877d885e46d8a,2024-11-14_13h07.24.259,Tarea de género gramatical,2024.2.2,Linux armv81,90.09009009,,,,,,,,,,,,,,,,,,,,,,,459.566,460.6791,a,1,[],[],[],[],[],[],[],0.45,1,460.6796,461.1838,,,,,,835,FEM,CON,150,muñeca,,a,0.45,,461.184,461.1843,-0.8,0.5,0,0,0,,0,156,156,384,1,,,,
,,,,,,6120855d04fae5ca82f68779,66a626ef09d4e21e1a8894ec,673649b4253877d885e46d8a,2024-11-14_13h07.24.259,Tarea de género gramatical,2024.2.2,Linux armv81,90.09009009,,,,,,,,,,,,,,,,,,,,,,,461.1873,462.3595,l,1,[],[],[],[],[],[],[],0.5073,1,462.3598,462.8442,,,,,,718,MAS,CON,150,truco,,l,0.5073,,462.8444,462.8449,-0.8,0.5,0,0,0,,0,157,157,267,1,,,,
,,,,,,6120855d04fae5ca82f68779,66a626ef09d4e21e1a8894ec,673649b4253877d885e46d8a,2024-11-14_13h07.24.259,Tarea de género gramatical,2024.2.2,Linux armv81,90.09009009,,,,,,,,,,,,,,,,,,,,,,,462.8474,464.1898,l,1,[],[],[],[],[],[],[],0.6722,1,464.19,464.6897,,,,,,766,MAS,CON,150,cuerpo,,l,0.6722,,464.6898,464.6901,-0.8,0.5,0,0,0,,0,158,158,315,1,,,,
,,,,,,6120855d04fae5ca82f68779,66a626ef09d4e21e1a8894ec,673649b4253877d885e46d8a,2024-11-14_13h07.24.259,Tarea de género gramatical,2024.2.2,Linux armv81,90.09009009,,,,,,,,,,,,,,,,,,,,,,,464.6929,465.7718,a,1,[],[],[],[],[],[],[],0.4066,1,465.7721,466.2709,,,,,,459,FEM,AGR,150,mamá,la,a,0.4066,,466.2743,466.2768,-0.8,0.5,0,0,0,,0,159,159,8,1,,,,
,,,,,,6120855d04fae5ca82f68779,66a626ef09d4e21e1a8894ec,673649b4253877d885e46d8a,2024-11-14_13h07.24.259,Tarea de género gramatical,2024.2.2,Linux armv81,90.09009009,,,,,,,,,,,,,,,,,,,,,,,466.2791,467.5272,a,1,[],[],[],[],[],[],[],0.5722,1,467.5276,468.0289,,,,,,895,FEM,CON,150,bondad,,a,0.5722,,468.0291,468.0295,-0.8,0.5,0,0,0,,0,160,160,444,1,,,,
,,,,,,6120855d04fae5ca82f68779,66a626ef09d4e21e1a8894ec,673649b4253877d885e46d8a,2024-11-14_13h07.24.259,Tarea de género gramatical,2024.2.2,Linux armv81,90.09009009,,,,,,,,,,,,,,,,,,,,,,,468.0323,469.3581,l,1,[],[],[],[],[],[],[],0.6592,1,469.3586,469.8554,,,,,,522,MAS,AGR,150,hoyo,el,l,0.6592,,469.8556,469.8559,-0.8,0.5,0,0,0,,0,161,161,71,1,,,,
,,,,,,6120855d04fae5ca82f68779,66a626ef09d4e21e1a8894ec,673649b4253877d885e46d8a,2024-11-14_13h07.24.259,Tarea de género gramatical,2024.2.2,Linux armv81,90.09009009,,,,,,,,,,,,,,,,,,,,,,,469.8585,471.3166,a,1,[],[],[],[],[],[],[],0.7953,1,471.317,471.8139,,,,,,757,FEM,CON,150,suerte,,a,0.7953,,471.8142,471.8147,-0.8,0.5,0,0,0,,0,162,162,306,1,,,,
,,,,,,6120855d04fae5ca82f68779,66a626ef09d4e21e1a8894ec,673649b4253877d885e46d8a,2024-11-14_13h07.24.259,Tarea de género gramatical,2024.2.2,Linux armv81,90.09009009,,,,,,,,,,,,,,,,,,,,,,,471.8174,473.3158,l,1,[],[],[],[],[],[],[],0.8313,1,473.3162,473.8097,,,,,,568,MAS,CON,150,baúl,,l,0.8313,,473.8099,473.8102,-0.8,0.5,0,0,0,,0,163,163,117,1,,,,
,,,,,,6120855d04fae5ca82f68779,66a626ef09d4e21e1a8894ec,673649b4253877d885e46d8a,2024-11-14_13h07.24.259,Tarea de género gramatical,2024.2.2,Linux armv81,90.09009009,,,,,,,,,,,,,,,,,,,,,,,473.813,475.2028,l,1,[],[],[],[],[],[],[],0.7246,1,475.2031,475.7053,,,,,,833,MAS,DIS,150,parque,la,l,0.7246,,475.7092,475.7124,-0.8,0.5,0,0,0,,0,164,164,382,1,,,,
,,,,,,6120855d04fae5ca82f68779,66a626ef09d4e21e1a8894ec,673649b4253877d885e46d8a,2024-11-14_13h07.24.259,Tarea de género gramatical,2024.2.2,Linux armv81,90.09009009,,,,,,,,,,,,,,,,,,,,,,,475.7155,476.9275,a,1,[],[],[],[],[],[],[],0.5485,1,476.9279,477.4262,,,,,,639,FEM,AGR,150,pista,la,a,0.5485,,477.4265,477.4267,-0.8,0.5,0,0,0,,0,165,165,188,1,,,,
,,,,,,6120855d04fae5ca82f68779,66a626ef09d4e21e1a8894ec,673649b4253877d885e46d8a,2024-11-14_13h07.24.259,Tarea de género gramatical,2024.2.2,Linux armv81,90.09009009,,,,,,,,,,,,,,,,,,,,,,,477.4296,478.6768,a,1,[],[],[],[],[],[],[],0.5762,1,478.677,479.1787,,,,,,626,FEM,DIS,150,línea,el,a,0.5762,,479.1789,479.1792,-0.8,0.5,0,0,0,,0,166,166,175,1,,,,
,,,,,,6120855d04fae5ca82f68779,66a626ef09d4e21e1a8894ec,673649b4253877d885e46d8a,2024-11-14_13h07.24.259,Tarea de género gramatical,2024.2.2,Linux armv81,90.09009009,,,,,,,,,,,,,,,,,,,,,,,479.1818,480.4641,l,1,[],[],[],[],[],[],[],0.6187,1,480.4644,480.9657,,,,,,605,MAS,DIS,150,mundo,la,l,0.6187,,480.9659,480.9661,-0.8,0.5,0,0,0,,0,167,167,154,1,,,,
,,,,,,6120855d04fae5ca82f68779,66a626ef09d4e21e1a8894ec,673649b4253877d885e46d8a,2024-11-14_13h07.24.259,Tarea de género gramatical,2024.2.2,Linux armv81,90.09009009,,,,,,,,,,,,,,,,,,,,,,,480.969,482.4839,l,1,[],[],[],[],[],[],[],0.8346,1,482.4843,482.9791,,,,,,576,MAS,AGR,150,lazo,el,l,0.8346,,482.984,482.9876,-0.8,0.5,0,0,0,,0,168,168,125,1,,,,
,,,,,,6120855d04fae5ca82f68779,66a626ef09d4e21e1a8894ec,673649b4253877d885e46d8a,2024-11-14_13h07.24.259,Tarea de género gramatical,2024.2.2,Linux armv81,90.09009009,,,,,,,,,,,,,,,,,,,,,,,482.9897,484.2144,a,1,[],[],[],[],[],[],[],0.5571,1,484.2149,484.7112,,,,,,547,FEM,CON,150,capa,,a,0.5571,,484.7114,484.7118,-0.8,0.5,0,0,0,,0,169,169,96,1,,,,
,,,,,,6120855d04fae5ca82f68779,66a626ef09d4e21e1a8894ec,673649b4253877d885e46d8a,2024-11-14_13h07.24.259,Tarea de género gramatical,2024.2.2,Linux armv81,90.09009009,,,,,,,,,,,,,,,,,,,,,,,484.7144,486.1843,l,1,[],[],[],[],[],[],[],0.7976,1,486.1846,486.6827,,,,,,761,MAS,DIS,150,camino,la,l,0.7976,,486.6828,486.683,-0.8,0.5,0,0,0,,0,170,170,310,1,,,,
,,,,,,6120855d04fae5ca82f68779,66a626ef09d4e21e1a8894ec,673649b4253877d885e46d8a,2024-11-14_13h07.24.259,Tarea de género gramatical,2024.2.2,Linux armv81,90.09009009,,,,,,,,,,,,,,,,,,,,,,,486.6845,488.0187,l,1,[],[],[],[],[],[],[],0.669,1,488.019,488.5175,,,,,,498,MAS,AGR,150,loco,el,l,0.669,,488.5177,488.5181,-0.8,0.5,0,0,0,,0,171,171,47,1,,,,
,,,,,,6120855d04fae5ca82f68779,66a626ef09d4e21e1a8894ec,673649b4253877d885e46d8a,2024-11-14_13h07.24.259,Tarea de género gramatical,2024.2.2,Linux armv81,90.09009009,,,,,,,,,,,,,,,,,,,,,,,488.521,489.9053,l,1,[],[],[],[],[],[],[],0.7165,1,489.9056,490.3954,,,,,,791,MAS,DIS,150,precio,la,l,0.7165,,490.3956,490.3959,-0.8,0.5,0,0,0,,0,172,172,340,1,,,,
,,,,,,6120855d04fae5ca82f68779,66a626ef09d4e21e1a8894ec,673649b4253877d885e46d8a,2024-11-14_13h07.24.259,Tarea de género gramatical,2024.2.2,Linux armv81,90.09009009,,,,,,,,,,,,,,,,,,,,,,,490.3989,491.6045,a,1,[],[],[],[],[],[],[],0.533,1,491.6049,492.1011,,,,,,656,FEM,DIS,150,época,el,a,0.533,,492.1046,492.1071,-0.8,0.5,0,0,0,,0,173,173,205,1,,,,
,,,,,,6120855d04fae5ca82f68779,66a626ef09d4e21e1a8894ec,673649b4253877d885e46d8a,2024-11-14_13h07.24.259,Tarea de género gramatical,2024.2.2,Linux armv81,90.09009009,,,,,,,,,,,,,,,,,,,,,,,492.1094,493.3984,l,1,[],[],[],[],[],[],[],0.622,1,493.3988,493.8937,,,,,,624,MAS,AGR,150,perro,el,l,0.622,,493.894,493.8944,-0.8,0.5,0,0,0,,0,174,174,173,1,,,,
,,,,,,6120855d04fae5ca82f68779,66a626ef09d4e21e1a8894ec,673649b4253877d885e46d8a,2024-11-14_13h07.24.259,Tarea de género gramatical,2024.2.2,Linux armv81,90.09009009,,,,,,,,,,,,,,,,,,,,,,,493.8981,495.1632,l,1,[],[],[],[],[],[],[],0.591,1,495.1636,495.6595,,,,,,748,MAS,CON,150,botón,,l,0.591,,495.6598,495.6607,-0.8,0.5,0,0,0,,0,175,175,297,1,,,,
,,,,,,6120855d04fae5ca82f68779,66a626ef09d4e21e1a8894ec,673649b4253877d885e46d8a,2024-11-14_13h07.24.259,Tarea de género gramatical,2024.2.2,Linux armv81,90.09009009,,,,,,,,,,,,,,,,,,,,,,,495.6658,496.8563,a,1,[],[],[],[],[],[],[],0.5178,1,496.8567,497.3653,,,,,,625,FEM,CON,150,señal,,a,0.5178,,497.3654,497.3658,-0.8,0.5,0,0,0,,0,176,176,174,1,,,,
,,,,,,6120855d04fae5ca82f68779,66a626ef09d4e21e1a8894ec,673649b4253877d885e46d8a,2024-11-14_13h07.24.259,Tarea de género gramatical,2024.2.2,Linux armv81,90.09009009,,,,,,,,,,,,,,,,,,,,,,,497.3684,498.6304,l,1,[],[],[],[],[],[],[],0.5888,1,498.6307,499.1185,,,,,,868,MAS,CON,150,pájaro,,l,0.5888,,499.122,499.1248,-0.8,0.5,0,0,0,,0,177,177,417,1,,,,
,,,,,,6120855d04fae5ca82f68779,66a626ef09d4e21e1a8894ec,673649b4253877d885e46d8a,2024-11-14_13h07.24.259,Tarea de género gramatical,2024.2.2,Linux armv81,90.09009009,,,,,,,,,,,,,,,,,,,,,,,499.1272,500.2827,a,1,[],[],[],[],[],[],[],0.4835,1,500.283,500.7781,,,,,,799,FEM,CON,150,prensa,,a,0.4835,,500.7783,500.7787,-0.8,0.5,0,0,0,,0,178,178,348,1,,,,
,,,,,,6120855d04fae5ca82f68779,66a626ef09d4e21e1a8894ec,673649b4253877d885e46d8a,2024-11-14_13h07.24.259,Tarea de género gramatical,2024.2.2,Linux armv81,90.09009009,,,,,,,,,,,,,,,,,,,,,,,500.7816,502.0763,l,1,[],[],[],[],[],[],[],0.6286,1,502.0767,502.573,,,,,,875,MAS,DIS,150,chiste,la,l,0.6286,,502.5732,502.5736,-0.8,0.5,0,0,0,,0,179,179,424,1,,,,
,,,,,,6120855d04fae5ca82f68779,66a626ef09d4e21e1a8894ec,673649b4253877d885e46d8a,2024-11-14_13h07.24.259,Tarea de género gramatical,2024.2.2,Linux armv81,90.09009009,,,,,,,,,,,,,,,,,,,,,,,502.5768,504.0695,l,1,[],[],[],[],[],[],[],0.8253,1,504.0698,504.5559,,,,,,563,MAS,DIS,150,toro,la,l,0.8253,,504.556,504.5564,-0.8,0.5,0,0,0,,0,180,180,112,1,,,,
,,,,,,6120855d04fae5ca82f68779,66a626ef09d4e21e1a8894ec,673649b4253877d885e46d8a,2024-11-14_13h07.24.259,Tarea de género gramatical,2024.2.2,Linux armv81,90.09009009,,,,,,,,,,,,,,,,,,,,,,,504.5595,505.9788,a,1,[],[],[],[],[],[],[],0.7421,1,505.9791,506.474,,,,,,591,FEM,AGR,150,cera,la,a,0.7421,,506.4742,506.4746,-0.8,0.5,0,0,0,,0,181,181,140,1,,,,
,,,,,,6120855d04fae5ca82f68779,66a626ef09d4e21e1a8894ec,673649b4253877d885e46d8a,2024-11-14_13h07.24.259,Tarea de género gramatical,2024.2.2,Linux armv81,90.09009009,,,,,,,,,,,,,,,,,,,,,,,506.4771,507.7019,a,1,[],[],[],[],[],[],[],0.5529,1,507.7024,508.2009,,,,,,511,FEM,CON,150,ruta,,a,0.5529,,508.2046,508.207,-0.8,0.5,0,0,0,,0,182,182,60,1,,,,
,,,,,,6120855d04fae5ca82f68779,66a626ef09d4e21e1a8894ec,673649b4253877d885e46d8a,2024-11-14_13h07.24.259,Tarea de género gramatical,2024.2.2,Linux armv81,90.09009009,,,,,,,,,,,,,,,,,,,,,,,508.2098,509.613,l,1,[],[],[],[],[],[],[],0.7306,1,509.6134,510.1073,,,,,,598,MAS,CON,150,surf,,l,0.7306,,510.1075,510.1081,-0.8,0.5,0,0,0,,0,183,183,147,1,,,,
,,,,,,6120855d04fae5ca82f68779,66a626ef09d4e21e1a8894ec,673649b4253877d885e46d8a,2024-11-14_13h07.24.259,Tarea de género gramatical,2024.2.2,Linux armv81,90.09009009,,,,,,,,,,,,,,,,,,,,,,,510.1111,511.2556,a,1,[],[],[],[],[],[],[],0.4716,1,511.2558,511.7555,,,,,,691,FEM,CON,150,pasta,,a,0.4716,,511.7556,511.756,-0.8,0.5,0,0,0,,0,184,184,240,1,,,,
,,,,,,6120855d04fae5ca82f68779,66a626ef09d4e21e1a8894ec,673649b4253877d885e46d8a,2024-11-14_13h07.24.259,Tarea de género gramatical,2024.2.2,Linux armv81,90.09009009,,,,,,,,,,,,,,,,,,,,,,,511.759,513.2891,l,0,[],[],[],[],[],[],[],0.861,0,513.2918,513.7743,,,,,,614,FEM,DIS,150,novia,el,a,0.861,,513.7748,513.7752,-0.8,0.5,0,0,0,,0,185,185,163,1,,,,
,,,,,,6120855d04fae5ca82f68779,66a626ef09d4e21e1a8894ec,673649b4253877d885e46d8a,2024-11-14_13h07.24.259,Tarea de género gramatical,2024.2.2,Linux armv81,90.09009009,,,,,,,,,,,,,,,,,,,,,,,513.7781,515.2416,a,1,[],[],[],[],[],[],[],0.7976,1,515.2444,515.738,,,,,,578,FEM,DIS,150,leña,el,a,0.7976,,515.7397,515.741,-0.8,0.5,0,0,0,,0,186,186,127,1,,,,
,,,,,,6120855d04fae5ca82f68779,66a626ef09d4e21e1a8894ec,673649b4253877d885e46d8a,2024-11-14_13h07.24.259,Tarea de género gramatical,2024.2.2,Linux armv81,90.09009009,,,,,,,,,,,,,,,,,,,,,,,515.7423,516.9473,a,1,[],[],[],[],[],[],[],0.5306,1,516.9477,517.4409,,,,,,477,FEM,AGR,150,mesa,la,a,0.5306,,517.4412,517.4415,-0.8,0.5,0,0,0,,0,187,187,26,1,,,,
,,,,,,6120855d04fae5ca82f68779,66a626ef09d4e21e1a8894ec,673649b4253877d885e46d8a,2024-11-14_13h07.24.259,Tarea de género gramatical,2024.2.2,Linux armv81,90.09009009,,,,,,,,,,,,,,,,,,,,,,,517.4443,518.5292,a,1,[],[],[],[],[],[],[],0.4218,1,518.5295,519.0166,,,,,,739,FEM,CON,150,tabla,,a,0.4218,,519.0168,519.0173,-0.8,0.5,0,0,0,,0,188,188,288,1,,,,
,,,,,,6120855d04fae5ca82f68779,66a626ef09d4e21e1a8894ec,673649b4253877d885e46d8a,2024-11-14_13h07.24.259,Tarea de género gramatical,2024.2.2,Linux armv81,90.09009009,,,,,,,,,,,,,,,,,,,,,,,519.0207,520.2396,l,1,[],[],[],[],[],[],[],0.5557,1,520.2401,520.7395,,,,,,796,MAS,CON,150,juicio,,l,0.5557,,520.7397,520.74,-0.8,0.5,0,0,0,,0,189,189,345,1,,,,
,,,,,,6120855d04fae5ca82f68779,66a626ef09d4e21e1a8894ec,673649b4253877d885e46d8a,2024-11-14_13h07.24.259,Tarea de género gramatical,2024.2.2,Linux armv81,90.09009009,,,,,,,,,,,,,,,,,,,,,,,520.7425,521.8835,a,1,[],[],[],[],[],[],[],0.4722,1,521.8838,522.3874,,,,,,745,FEM,CON,150,grasa,,a,0.4722,,522.3876,522.3879,-0.8,0.5,0,0,0,,0,190,190,294,1,,,,
,,,,,,6120855d04fae5ca82f68779,66a626ef09d4e21e1a8894ec,673649b4253877d885e46d8a,2024-11-14_13h07.24.259,Tarea de género gramatical,2024.2.2,Linux armv81,90.09009009,,,,,,,,,,,,,,,,,,,,,,,522.3908,523.6442,l,1,[],[],[],[],[],[],[],0.5785,1,523.6446,524.1447,,,,,,564,MAS,AGR,150,menú,el,l,0.5785,,524.1482,524.1508,-0.8,0.5,0,0,0,,0,191,191,113,1,,,,
,,,,,,6120855d04fae5ca82f68779,66a626ef09d4e21e1a8894ec,673649b4253877d885e46d8a,2024-11-14_13h07.24.259,Tarea de género gramatical,2024.2.2,Linux armv81,90.09009009,,,,,,,,,,,,,,,,,,,,,,,524.1531,525.5328,l,1,[],[],[],[],[],[],[],0.7077,1,525.5331,526.0279,,,,,,677,MAS,DIS,150,vuelo,la,l,0.7077,,526.0281,526.0285,-0.8,0.5,0,0,0,,0,192,192,226,1,,,,
,,,,,,6120855d04fae5ca82f68779,66a626ef09d4e21e1a8894ec,673649b4253877d885e46d8a,2024-11-14_13h07.24.259,Tarea de género gramatical,2024.2.2,Linux armv81,90.09009009,,,,,,,,,,,,,,,,,,,,,,,526.0309,527.2657,a,1,[],[],[],[],[],[],[],0.5612,1,527.2659,527.7584,,,,,,649,FEM,CON,150,nariz,,a,0.5612,,527.7586,527.759,-0.8,0.5,0,0,0,,0,193,193,198,1,,,,
,,,,,,6120855d04fae5ca82f68779,66a626ef09d4e21e1a8894ec,673649b4253877d885e46d8a,2024-11-14_13h07.24.259,Tarea de género gramatical,2024.2.2,Linux armv81,90.09009009,,,,,,,,,,,,,,,,,,,,,,,527.7621,529.0258,l,1,[],[],[],[],[],[],[],0.594,1,529.0261,529.5209,,,,,,648,MAS,AGR,150,hotel,el,l,0.594,,529.521,529.5213,-0.8,0.5,0,0,0,,0,194,194,197,1,,,,
,,,,,,6120855d04fae5ca82f68779,66a626ef09d4e21e1a8894ec,673649b4253877d885e46d8a,2024-11-14_13h07.24.259,Tarea de género gramatical,2024.2.2,Linux armv81,90.09009009,,,,,,,,,,,,,,,,,,,,,,,529.524,530.6866,l,1,[],[],[],[],[],[],[],0.4863,1,530.6869,531.1794,,,,,,540,MAS,AGR,150,león,el,l,0.4863,,531.1829,531.1855,-0.8,0.5,0,0,0,,0,195,195,89,1,,,,
,,,,,,6120855d04fae5ca82f68779,66a626ef09d4e21e1a8894ec,673649b4253877d885e46d8a,2024-11-14_13h07.24.259,Tarea de género gramatical,2024.2.2,Linux armv81,90.09009009,,,,,,,,,,,,,,,,,,,,,,,531.1879,532.4287,a,1,[],[],[],[],[],[],[],0.5753,1,532.429,532.93,,,,,,728,FEM,DIS,150,presa,el,a,0.5753,,532.9301,532.9306,-0.8,0.5,0,0,0,,0,196,196,277,1,,,,
,,,,,,6120855d04fae5ca82f68779,66a626ef09d4e21e1a8894ec,673649b4253877d885e46d8a,2024-11-14_13h07.24.259,Tarea de género gramatical,2024.2.2,Linux armv81,90.09009009,,,,,,,,,,,,,,,,,,,,,,,532.9335,534.1122,a,1,[],[],[],[],[],[],[],0.509,1,534.1126,534.6084,,,,,,596,FEM,DIS,150,lana,el,a,0.509,,534.6086,534.6089,-0.8,0.5,0,0,0,,0,197,197,145,1,,,,
,,,,,,6120855d04fae5ca82f68779,66a626ef09d4e21e1a8894ec,673649b4253877d885e46d8a,2024-11-14_13h07.24.259,Tarea de género gramatical,2024.2.2,Linux armv81,90.09009009,,,,,,,,,,,,,,,,,,,,,,,534.6115,535.7584,a,1,[],[],[],[],[],[],[],0.4682,1,535.7587,536.2543,,,,,,487,FEM,CON,150,sala,,a,0.4682,,536.2546,536.2549,-0.8,0.5,0,0,0,,0,198,198,36,1,,,,
,,,,,,6120855d04fae5ca82f68779,66a626ef09d4e21e1a8894ec,673649b4253877d885e46d8a,2024-11-14_13h07.24.259,Tarea de género gramatical,2024.2.2,Linux armv81,90.09009009,,,,,,,,,,,,,,,,,,,,,,,536.2576,537.4366,a,1,[],[],[],[],[],[],[],0.5103,1,537.4369,537.9333,,,,,,722,FEM,DIS,150,oreja,el,a,0.5103,,537.9334,537.9338,-0.8,0.5,0,0,0,,0,199,199,271,1,,,,
,,,,,,6120855d04fae5ca82f68779,66a626ef09d4e21e1a8894ec,673649b4253877d885e46d8a,2024-11-14_13h07.24.259,Tarea de género gramatical,2024.2.2,Linux armv81,90.09009009,,,,,,,,,,,,,,,,,,,,,,,537.9365,539.1109,l,1,[],[],[],[],[],[],[],0.5125,1,539.1112,539.6057,,,,,,732,MAS,AGR,150,bolso,el,l,0.5125,,539.6094,539.6124,-0.8,0.5,0,0,0,,0,200,200,281,1,,,,
,,,,,,6120855d04fae5ca82f68779,66a626ef09d4e21e1a8894ec,673649b4253877d885e46d8a,2024-11-14_13h07.24.259,Tarea de género gramatical,2024.2.2,Linux armv81,90.09009009,,,,,,,,,,,,,,,,,,,,,,,539.6147,540.8157,a,1,[],[],[],[],[],[],[],0.5235,1,540.816,541.3116,,,,,,517,FEM,CON,150,miel,,a,0.5235,,541.3118,541.3122,-0.8,0.5,0,0,0,,0,201,201,66,1,,,,
,,,,,,6120855d04fae5ca82f68779,66a626ef09d4e21e1a8894ec,673649b4253877d885e46d8a,2024-11-14_13h07.24.259,Tarea de género gramatical,2024.2.2,Linux armv81,90.09009009,,,,,,,,,,,,,,,,,,,,,,,541.3151,542.6278,a,1,[],[],[],[],[],[],[],0.6354,1,542.6281,543.1261,,,,,,667,FEM,CON,150,tarea,,a,0.6354,,543.1263,543.1267,-0.8,0.5,0,0,0,,0,202,202,216,1,,,,
,,,,,,6120855d04fae5ca82f68779,66a626ef09d4e21e1a8894ec,673649b4253877d885e46d8a,2024-11-14_13h07.24.259,Tarea de género gramatical,2024.2.2,Linux armv81,90.09009009,,,,,,,,,,,,,,,,,,,,,,,543.1293,544.2576,a,1,[],[],[],[],[],[],[],0.4576,1,544.2579,544.7582,,,,,,549,FEM,AGR,150,fase,la,a,0.4576,,544.7584,544.7589,-0.8,0.5,0,0,0,,0,203,203,98,1,,,,
,,,,,,6120855d04fae5ca82f68779,66a626ef09d4e21e1a8894ec,673649b4253877d885e46d8a,2024-11-14_13h07.24.259,Tarea de género gramatical,2024.2.2,Linux armv81,90.09009009,,,,,,,,,,,,,,,,,,,,,,,544.7622,545.9291,a,1,[],[],[],[],[],[],[],0.4923,1,545.9294,546.4178,,,,,,848,FEM,DIS,150,hierba,el,a,0.4923,,546.4216,546.4246,-0.8,0.5,0,0,0,,0,204,204,397,1,,,,
,,,,,,6120855d04fae5ca82f68779,66a626ef09d4e21e1a8894ec,673649b4253877d885e46d8a,2024-11-14_13h07.24.259,Tarea de género gramatical,2024.2.2,Linux armv81,90.09009009,,,,,,,,,,,,,,,,,,,,,,,546.4271,547.5852,a,1,[],[],[],[],[],[],[],0.4841,1,547.5855,548.0721,,,,,,813,FEM,AGR,150,unidad,la,a,0.4841,,548.0723,548.0726,-0.8,0.5,0,0,0,,0,205,205,362,1,,,,
,,,,,,6120855d04fae5ca82f68779,66a626ef09d4e21e1a8894ec,673649b4253877d885e46d8a,2024-11-14_13h07.24.259,Tarea de género gramatical,2024.2.2,Linux armv81,90.09009009,,,,,,,,,,,,,,,,,,,,,,,548.0755,549.1061,a,1,[],[],[],[],[],[],[],0.3601,1,549.1065,549.5999,,,,,,457,FEM,CON,150,hora,,a,0.3601,,549.6,549.6003,-0.8,0.5,0,0,0,,0,206,206,6,1,,,,
,,,,,,6120855d04fae5ca82f68779,66a626ef09d4e21e1a8894ec,673649b4253877d885e46d8a,2024-11-14_13h07.24.259,Tarea de género gramatical,2024.2.2,Linux armv81,90.09009009,,,,,,,,,,,,,,,,,,,,,,,549.6029,550.6549,a,1,[],[],[],[],[],[],[],0.3847,1,550.6552,551.1525,,,,,,817,FEM,CON,150,teoría,,a,0.3847,,551.1528,551.1531,-0.8,0.5,0,0,0,,0,207,207,366,1,,,,
,,,,,,6120855d04fae5ca82f68779,66a626ef09d4e21e1a8894ec,673649b4253877d885e46d8a,2024-11-14_13h07.24.259,Tarea de género gramatical,2024.2.2,Linux armv81,90.09009009,,,,,,,,,,,,,,,,,,,,,,,551.1558,552.709,l,1,[],[],[],[],[],[],[],0.8799,1,552.7092,553.1998,,,,,,671,MAS,DIS,150,brazo,la,l,0.8799,,553.2001,553.2004,-0.8,0.5,0,0,0,,0,208,208,220,1,,,,
,,,,,,6120855d04fae5ca82f68779,66a626ef09d4e21e1a8894ec,673649b4253877d885e46d8a,2024-11-14_13h07.24.259,Tarea de género gramatical,2024.2.2,Linux armv81,90.09009009,,,,,,,,,,,,,,,,,,,,,,,553.2033,554.5739,a,1,[],[],[],[],[],[],[],0.7023,1,554.5742,555.0763,,,,,,860,FEM,DIS,150,piedad,el,a,0.7023,,555.0798,555.0827,-0.8,0.5,0,0,0,,0,209,209,409,1,,,,
,,,,,,6120855d04fae5ca82f68779,66a626ef09d4e21e1a8894ec,673649b4253877d885e46d8a,2024-11-14_13h07.24.259,Tarea de género gramatical,2024.2.2,Linux armv81,90.09009009,,,,,,,,,,,,,,,,,,,,,,,555.085,556.3385,a,0,[],[],[],[],[],[],[],0.5711,0,556.3411,556.8462,,,,,,574,MAS,CON,150,clan,,l,0.5711,,556.8465,556.8468,-0.8,0.5,0,0,0,,0,210,210,123,1,,,,
,,,,,,6120855d04fae5ca82f68779,66a626ef09d4e21e1a8894ec,673649b4253877d885e46d8a,2024-11-14_13h07.24.259,Tarea de género gramatical,2024.2.2,Linux armv81,90.09009009,,,,,,,,,,,,,,,,,,,,,,,556.8495,558.597,a,0,[],[],[],[],[],[],[],1.08,0,558.5974,559.0897,,,,,,682,MAS,CON,150,calor,,l,1.08,,559.0899,559.0903,-0.8,0.5,0,0,0,,0,211,211,231,1,,,,
,,,,,,6120855d04fae5ca82f68779,66a626ef09d4e21e1a8894ec,673649b4253877d885e46d8a,2024-11-14_13h07.24.259,Tarea de género gramatical,2024.2.2,Linux armv81,90.09009009,,,,,,,,,,,,,,,,,,,,,,,559.0929,561.7451,,0,[],[],[],[],[],[],[],1.08,-1,561.7476,562.2297,,,,,,611,MAS,DIS,150,chico,la,l,,,562.2299,562.2303,-0.8,0.5,0,0,0,,0,212,212,160,1,,,,
,,,,,,6120855d04fae5ca82f68779,66a626ef09d4e21e1a8894ec,673649b4253877d885e46d8a,2024-11-14_13h07.24.259,Tarea de género gramatical,2024.2.2,Linux armv81,90.09009009,,,,,,,,,,,,,,,,,,,,,,,562.2333,563.5131,l,1,[],[],[],[],[],[],[],0.6089,1,563.5184,564.0074,,,,,,900,MAS,AGR,150,conejo,el,l,0.6089,,564.0158,564.0202,-0.8,0.5,0,0,0,,0,213,213,449,1,,,,
,,,,,,6120855d04fae5ca82f68779,66a626ef09d4e21e1a8894ec,673649b4253877d885e46d8a,2024-11-14_13h07.24.259,Tarea de género gramatical,2024.2.2,Linux armv81,90.09009009,,,,,,,,,,,,,,,,,,,,,,,564.025,565.577,a,1,[],[],[],[],[],[],[],0.8829,1,565.5773,566.0833,,,,,,847,FEM,CON,150,cuerda,,a,0.8829,,566.0834,566.0838,-0.8,0.5,0,0,0,,0,214,214,396,1,,,,
,,,,,,6120855d04fae5ca82f68779,66a626ef09d4e21e1a8894ec,673649b4253877d885e46d8a,2024-11-14_13h07.24.259,Tarea de género gramatical,2024.2.2,Linux armv81,90.09009009,,,,,,,,,,,,,,,,,,,,,,,566.0865,567.3157,a,1,[],[],[],[],[],[],[],0.5603,1,567.316,567.8163,,,,,,872,FEM,DIS,150,rutina,el,a,0.5603,,567.8166,567.8169,-0.8,0.5,0,0,0,,0,215,215,421,1,,,,
,,,,,,6120855d04fae5ca82f68779,66a626ef09d4e21e1a8894ec,673649b4253877d885e46d8a,2024-11-14_13h07.24.259,Tarea de género gramatical,2024.2.2,Linux armv81,90.09009009,,,,,,,,,,,,,,,,,,,,,,,567.8193,568.9515,a,1,[],[],[],[],[],[],[],0.4638,1,568.9519,569.4446,,,,,,859,FEM,CON,150,moneda,,a,0.4638,,569.4448,569.4451,-0.8,0.5,0,0,0,,0,216,216,408,1,,,,
,,,,,,6120855d04fae5ca82f68779,66a626ef09d4e21e1a8894ec,673649b4253877d885e46d8a,2024-11-14_13h07.24.259,Tarea de género gramatical,2024.2.2,Linux armv81,90.09009009,,,,,,,,,,,,,,,,,,,,,,,569.4476,570.8225,l,1,[],[],[],[],[],[],[],0.6985,1,570.8228,571.3171,,,,,,526,MAS,CON,150,lujo,,l,0.6985,,571.3172,571.3176,-0.8,0.5,0,0,0,,0,217,217,75,1,,,,
,,,,,,6120855d04fae5ca82f68779,66a626ef09d4e21e1a8894ec,673649b4253877d885e46d8a,2024-11-14_13h07.24.259,Tarea de género gramatical,2024.2.2,Linux armv81,90.09009009,,,,,,,,,,,,,,,,,,,,,,,571.3202,572.6587,a,1,[],[],[],[],[],[],[],0.6644,1,572.6591,573.1601,,,,,,501,FEM,AGR,150,bala,la,a,0.6644,,573.1638,573.167,-0.8,0.5,0,0,0,,0,218,218,50,1,,,,
,,,,,,6120855d04fae5ca82f68779,66a626ef09d4e21e1a8894ec,673649b4253877d885e46d8a,2024-11-14_13h07.24.259,Tarea de género gramatical,2024.2.2,Linux armv81,90.09009009,,,,,,,,,,,,,,,,,,,,,,,573.1694,574.2572,a,1,[],[],[],[],[],[],[],0.422,1,574.2575,574.7587,,,,,,561,FEM,AGR,150,goma,la,a,0.422,,574.759,574.7592,-0.8,0.5,0,0,0,,0,219,219,110,1,,,,
,,,,,,6120855d04fae5ca82f68779,66a626ef09d4e21e1a8894ec,673649b4253877d885e46d8a,2024-11-14_13h07.24.259,Tarea de género gramatical,2024.2.2,Linux armv81,90.09009009,,,,,,,,,,,,,,,,,,,,,,,574.7616,576.0501,l,1,[],[],[],[],[],[],[],0.6119,1,576.0504,576.5436,,,,,,760,MAS,CON,150,nombre,,l,0.6119,,576.5438,576.5441,-0.8,0.5,0,0,0,,0,220,220,309,1,,,,
,,,,,,6120855d04fae5ca82f68779,66a626ef09d4e21e1a8894ec,673649b4253877d885e46d8a,2024-11-14_13h07.24.259,Tarea de género gramatical,2024.2.2,Linux armv81,90.09009009,,,,,,,,,,,,,,,,,,,,,,,576.5466,578.1504,a,1,[],[],[],[],[],[],[],0.9291,1,578.1507,578.6449,,,,,,733,FEM,CON,150,pluma,,a,0.9291,,578.6457,578.6473,-0.8,0.5,0,0,0,,0,221,221,282,1,,,,
,,,,,,6120855d04fae5ca82f68779,66a626ef09d4e21e1a8894ec,673649b4253877d885e46d8a,2024-11-14_13h07.24.259,Tarea de género gramatical,2024.2.2,Linux armv81,90.09009009,,,,,,,,,,,,,,,,,,,,,,,578.6535,579.8222,a,1,[],[],[],[],[],[],[],0.5005,1,579.8227,580.3212,,,,,,865,FEM,CON,150,cabina,,a,0.5005,,580.3254,580.3281,-0.8,0.5,0,0,0,,0,222,222,414,1,,,,
,,,,,,6120855d04fae5ca82f68779,66a626ef09d4e21e1a8894ec,673649b4253877d885e46d8a,2024-11-14_13h07.24.259,Tarea de género gramatical,2024.2.2,Linux armv81,90.09009009,,,,,,,,,,,,,,,,,,,,,,,580.3306,581.829,l,1,[],[],[],[],[],[],[],0.8304,1,581.8294,582.3218,,,,,,628,MAS,CON,150,punto,,l,0.8304,,582.3219,582.3223,-0.8,0.5,0,0,0,,0,223,223,177,1,,,,
,,,,,,6120855d04fae5ca82f68779,66a626ef09d4e21e1a8894ec,673649b4253877d885e46d8a,2024-11-14_13h07.24.259,Tarea de género gramatical,2024.2.2,Linux armv81,90.09009009,,,,,,,,,,,,,,,,,,,,,,,582.3249,583.6781,a,1,[],[],[],[],[],[],[],0.6827,1,583.6786,584.1712,,,,,,782,FEM,DIS,150,basura,el,a,0.6827,,584.1714,584.1718,-0.8,0.5,0,0,0,,0,224,224,331,1,,,,
,,,,,,6120855d04fae5ca82f68779,66a626ef09d4e21e1a8894ec,673649b4253877d885e46d8a,2024-11-14_13h07.24.259,Tarea de género gramatical,2024.2.2,Linux armv81,90.09009009,,,,,,,,,,,,,,,,,,,,,,,584.1746,585.5499,l,1,[],[],[],[],[],[],[],0.7055,1,585.5502,586.0405,,,,,,581,MAS,DIS,150,kilo,la,l,0.7055,,586.0406,586.041,-0.8,0.5,0,0,0,,0,225,225,130,1,,,,
,,,,,,6120855d04fae5ca82f68779,66a626ef09d4e21e1a8894ec,673649b4253877d885e46d8a,2024-11-14_13h07.24.259,Tarea de género gramatical,2024.2.2,Linux armv81,90.09009009,,,,,,,,,,,,,,,,,,,,,,,586.0439,587.1894,a,1,[],[],[],[],[],[],[],0.4711,1,587.1896,587.6947,,,,,,541,FEM,CON,150,hoja,,a,0.4711,,587.6949,587.6953,-0.8,0.5,0,0,0,,0,226,226,90,1,,,,
,,,,,,6120855d04fae5ca82f68779,66a626ef09d4e21e1a8894ec,673649b4253877d885e46d8a,2024-11-14_13h07.24.259,Tarea de género gramatical,2024.2.2,Linux armv81,90.09009009,,,,,,,,,,,,,,,,,,,,,,,587.6984,589.0063,l,1,[],[],[],[],[],[],[],0.6399,1,589.0068,589.5053,,,,,,828,MAS,AGR,150,pastel,el,l,0.6399,,589.5103,589.5131,-0.8,0.5,0,0,0,,0,227,227,377,1,,,,
,,,,,,6120855d04fae5ca82f68779,66a626ef09d4e21e1a8894ec,673649b4253877d885e46d8a,2024-11-14_13h07.24.259,Tarea de género gramatical,2024.2.2,Linux armv81,90.09009009,,,,,,,,,,,,,,,,,,,,,,,589.5155,590.7336,a,1,[],[],[],[],[],[],[],0.55,1,590.7339,591.2374,,,,,,493,FEM,CON,150,nena,,a,0.55,,591.2376,591.238,-0.8,0.5,0,0,0,,0,228,228,42,1,,,,
,,,,,,6120855d04fae5ca82f68779,66a626ef09d4e21e1a8894ec,673649b4253877d885e46d8a,2024-11-14_13h07.24.259,Tarea de género gramatical,2024.2.2,Linux armv81,90.09009009,,,,,,,,,,,,,,,,,,,,,,,591.2404,592.6557,a,1,[],[],[],[],[],[],[],0.7485,1,592.656,593.1598,,,,,,781,FEM,CON,150,cárcel,,a,0.7485,,593.16,593.1604,-0.8,0.5,0,0,0,,0,229,229,330,1,,,,
,,,,,,6120855d04fae5ca82f68779,66a626ef09d4e21e1a8894ec,673649b4253877d885e46d8a,2024-11-14_13h07.24.259,Tarea de género gramatical,2024.2.2,Linux armv81,90.09009009,,,,,,,,,,,,,,,,,,,,,,,593.163,594.5107,l,1,[],[],[],[],[],[],[],0.6766,1,594.511,595.0182,,,,,,894,MAS,AGR,150,límite,el,l,0.6766,,595.0185,595.0189,-0.8,0.5,0,0,0,,0,230,230,443,1,,,,
,,,,,,6120855d04fae5ca82f68779,66a626ef09d4e21e1a8894ec,673649b4253877d885e46d8a,2024-11-14_13h07.24.259,Tarea de género gramatical,2024.2.2,Linux armv81,90.09009009,,,,,,,,,,,,,,,,,,,,,,,595.0219,596.4392,l,1,[],[],[],[],[],[],[],0.7464,1,596.4395,596.9446,,,,,,593,MAS,DIS,150,faro,la,l,0.7464,,596.9481,596.9506,-0.8,0.5,0,0,0,,0,231,231,142,1,,,,
,,,,,,6120855d04fae5ca82f68779,66a626ef09d4e21e1a8894ec,673649b4253877d885e46d8a,2024-11-14_13h07.24.259,Tarea de género gramatical,2024.2.2,Linux armv81,90.09009009,,,,,,,,,,,,,,,,,,,,,,,596.9529,598.4855,l,1,[],[],[],[],[],[],[],0.857,1,598.4859,598.978,,,,,,839,MAS,DIS,150,tamaño,la,l,0.857,,598.9782,598.9786,-0.8,0.5,0,0,0,,0,232,232,388,1,,,,
,,,,,,6120855d04fae5ca82f68779,66a626ef09d4e21e1a8894ec,673649b4253877d885e46d8a,2024-11-14_13h07.24.259,Tarea de género gramatical,2024.2.2,Linux armv81,90.09009009,,,,,,,,,,,,,,,,,,,,,,,598.9814,600.2019,l,1,[],[],[],[],[],[],[],0.5581,1,600.2022,600.6991,,,,,,888,MAS,AGR,150,tanque,el,l,0.5581,,600.6992,600.6996,-0.8,0.5,0,0,0,,0,233,233,437,1,,,,
,,,,,,6120855d04fae5ca82f68779,66a626ef09d4e21e1a8894ec,673649b4253877d885e46d8a,2024-11-14_13h07.24.259,Tarea de género gramatical,2024.2.2,Linux armv81,90.09009009,,,,,,,,,,,,,,,,,,,,,,,600.702,601.8731,a,1,[],[],[],[],[],[],[],0.5061,1,601.8735,602.362,,,,,,661,FEM,CON,150,salud,,a,0.5061,,602.3622,602.3626,-0.8,0.5,0,0,0,,0,234,234,210,1,,,,
,,,,,,6120855d04fae5ca82f68779,66a626ef09d4e21e1a8894ec,673649b4253877d885e46d8a,2024-11-14_13h07.24.259,Tarea de género gramatical,2024.2.2,Linux armv81,90.09009009,,,,,,,,,,,,,,,,,,,,,,,602.3655,603.4838,a,1,[],[],[],[],[],[],[],0.4422,1,603.4843,603.9838,,,,,,519,FEM,AGR,150,rata,la,a,0.4422,,603.984,603.9843,-0.8,0.5,0,0,0,,0,235,235,68,1,,,,
,,,,,,6120855d04fae5ca82f68779,66a626ef09d4e21e1a8894ec,673649b4253877d885e46d8a,2024-11-14_13h07.24.259,Tarea de género gramatical,2024.2.2,Linux armv81,90.09009009,,,,,,,,,,,,,,,,,,,,,,,603.9873,605.166,l,1,[],[],[],[],[],[],[],0.5169,1,605.1664,605.6509,,,,,,480,MAS,AGR,150,cine,el,l,0.5169,,605.6547,605.6585,-0.8,0.5,0,0,0,,0,236,236,29,1,,,,
,,,,,,6120855d04fae5ca82f68779,66a626ef09d4e21e1a8894ec,673649b4253877d885e46d8a,2024-11-14_13h07.24.259,Tarea de género gramatical,2024.2.2,Linux armv81,90.09009009,,,,,,,,,,,,,,,,,,,,,,,605.6612,607.0005,a,1,[],[],[],[],[],[],[],0.6637,1,607.0008,607.5045,,,,,,837,FEM,AGR,150,página,la,a,0.6637,,607.5047,607.505,-0.8,0.5,0,0,0,,0,237,237,386,1,,,,
,,,,,,6120855d04fae5ca82f68779,66a626ef09d4e21e1a8894ec,673649b4253877d885e46d8a,2024-11-14_13h07.24.259,Tarea de género gramatical,2024.2.2,Linux armv81,90.09009009,,,,,,,,,,,,,,,,,,,,,,,607.5081,608.6723,a,1,[],[],[],[],[],[],[],0.4954,1,608.6727,609.1708,,,,,,619,FEM,CON,150,vista,,a,0.4954,,609.171,609.1717,-0.8,0.5,0,0,0,,0,238,238,168,1,,,,
,,,,,,6120855d04fae5ca82f68779,66a626ef09d4e21e1a8894ec,673649b4253877d885e46d8a,2024-11-14_13h07.24.259,Tarea de género gramatical,2024.2.2,Linux armv81,90.09009009,,,,,,,,,,,,,,,,,,,,,,,609.1766,610.3586,a,1,[],[],[],[],[],[],[],0.5171,1,610.3591,610.8599,,,,,,525,FEM,AGR,150,caza,la,a,0.5171,,610.86,610.8604,-0.8,0.5,0,0,0,,0,239,239,74,1,,,,
,,,,,,6120855d04fae5ca82f68779,66a626ef09d4e21e1a8894ec,673649b4253877d885e46d8a,2024-11-14_13h07.24.259,Tarea de género gramatical,2024.2.2,Linux armv81,90.09009009,,,,,,,,,,,,,,,,,,,,,,,610.8634,611.9793,l,1,[],[],[],[],[],[],[],0.4485,1,611.9797,612.4777,,,,,,510,MAS,AGR,150,tono,el,l,0.4485,,612.4815,612.4844,-0.8,0.5,0,0,0,,0,240,240,59,1,,,,
,,,,,,6120855d04fae5ca82f68779,66a626ef09d4e21e1a8894ec,673649b4253877d885e46d8a,2024-11-14_13h07.24.259,Tarea de género gramatical,2024.2.2,Linux armv81,90.09009009,,,,,,,,,,,,,,,,,,,,,,,612.4865,614.0139,l,1,[],[],[],[],[],[],[],0.8587,1,614.0143,614.5194,,,,,,491,MAS,DIS,150,bote,la,l,0.8587,,614.5196,614.5199,-0.8,0.5,0,0,0,,0,241,241,40,1,,,,
,,,,,,6120855d04fae5ca82f68779,66a626ef09d4e21e1a8894ec,673649b4253877d885e46d8a,2024-11-14_13h07.24.259,Tarea de género gramatical,2024.2.2,Linux armv81,90.09009009,,,,,,,,,,,,,,,,,,,,,,,614.5226,615.7029,a,1,[],[],[],[],[],[],[],0.5098,1,615.7033,616.1968,,,,,,669,FEM,AGR,150,costa,la,a,0.5098,,616.1971,616.1975,-0.8,0.5,0,0,0,,0,242,242,218,1,,,,
,,,,,,6120855d04fae5ca82f68779,66a626ef09d4e21e1a8894ec,673649b4253877d885e46d8a,2024-11-14_13h07.24.259,Tarea de género gramatical,2024.2.2,Linux armv81,90.09009009,,,,,,,,,,,,,,,,,,,,,,,616.2006,617.9507,a,1,[],[],[],[],[],[],[],1.0748,1,617.951,618.451,,,,,,668,FEM,DIS,150,nieve,el,a,1.0748,,618.4513,618.4517,-0.8,0.5,0,0,0,,0,243,243,217,1,,,,
,,,,,,6120855d04fae5ca82f68779,66a626ef09d4e21e1a8894ec,673649b4253877d885e46d8a,2024-11-14_13h07.24.259,Tarea de género gramatical,2024.2.2,Linux armv81,90.09009009,,,,,,,,,,,,,,,,,,,,,,,618.4544,619.92,l,1,[],[],[],[],[],[],[],0.7961,1,619.9202,620.4178,,,,,,774,MAS,AGR,150,cuarto,el,l,0.7961,,620.4179,620.4183,-0.8,0.5,0,0,0,,0,244,244,323,1,,,,
,,,,,,6120855d04fae5ca82f68779,66a626ef09d4e21e1a8894ec,673649b4253877d885e46d8a,2024-11-14_13h07.24.259,Tarea de género gramatical,2024.2.2,Linux armv81,90.09009009,,,,,,,,,,,,,,,,,,,,,,,620.4208,621.9355,a,1,[],[],[],[],[],[],[],0.8416,1,621.9358,622.439,,,,,,483,FEM,AGR,150,boda,la,a,0.8416,,622.443,622.4464,-0.8,0.5,0,0,0,,0,245,245,32,1,,,,
,,,,,,6120855d04fae5ca82f68779,66a626ef09d4e21e1a8894ec,673649b4253877d885e46d8a,2024-11-14_13h07.24.259,Tarea de género gramatical,2024.2.2,Linux armv81,90.09009009,,,,,,,,,,,,,,,,,,,,,,,622.4488,624.2756,l,1,[],[],[],[],[],[],[],1.1507,1,624.2759,624.7704,,,,,,863,MAS,DIS,150,diario,la,l,1.1507,,624.7707,624.7716,-0.8,0.5,0,0,0,,0,246,246,412,1,,,,
,,,,,,6120855d04fae5ca82f68779,66a626ef09d4e21e1a8894ec,673649b4253877d885e46d8a,2024-11-14_13h07.24.259,Tarea de género gramatical,2024.2.2,Linux armv81,90.09009009,,,,,,,,,,,,,,,,,,,,,,,624.776,626.1787,a,1,[],[],[],[],[],[],[],0.7312,1,626.1791,626.679,,,,,,505,FEM,CON,150,taza,,a,0.7312,,626.6791,626.6795,-0.8,0.5,0,0,0,,0,247,247,54,1,,,,
,,,,,,6120855d04fae5ca82f68779,66a626ef09d4e21e1a8894ec,673649b4253877d885e46d8a,2024-11-14_13h07.24.259,Tarea de género gramatical,2024.2.2,Linux armv81,90.09009009,,,,,,,,,,,,,,,,,,,,,,,626.6824,627.9771,l,1,[],[],[],[],[],[],[],0.6208,1,627.9774,628.4733,,,,,,712,MAS,CON,150,video,,l,0.6208,,628.4735,628.4738,-0.8,0.5,0,0,0,,0,248,248,261,1,,,,
,,,,,,6120855d04fae5ca82f68779,66a626ef09d4e21e1a8894ec,673649b4253877d885e46d8a,2024-11-14_13h07.24.259,Tarea de género gramatical,2024.2.2,Linux armv81,90.09009009,,,,,,,,,,,,,,,,,,,,,,,628.4763,629.7246,l,1,[],[],[],[],[],[],[],0.5852,1,629.725,630.227,,,,,,724,MAS,CON,150,motor,,l,0.5852,,630.2309,630.2336,-0.8,0.5,0,0,0,,0,249,249,273,1,,,,
,,,,,,6120855d04fae5ca82f68779,66a626ef09d4e21e1a8894ec,673649b4253877d885e46d8a,2024-11-14_13h07.24.259,Tarea de género gramatical,2024.2.2,Linux armv81,90.09009009,,,,,,,,,,,,,,,,,,,,,,,630.236,631.3119,a,1,[],[],[],[],[],[],[],0.4088,1,631.3122,631.8168,,,,,,889,FEM,CON,150,toalla,,a,0.4088,,631.8169,631.8173,-0.8,0.5,0,0,0,,0,250,250,438,1,,,,
,,,,,,6120855d04fae5ca82f68779,66a626ef09d4e21e1a8894ec,673649b4253877d885e46d8a,2024-11-14_13h07.24.259,Tarea de género gramatical,2024.2.2,Linux armv81,90.09009009,,,,,,,,,,,,,,,,,,,,,,,631.82,633.0415,l,1,[],[],[],[],[],[],[],0.5545,1,633.0419,633.5368,,,,,,558,MAS,AGR,150,hilo,el,l,0.5545,,633.5369,633.5373,-0.8,0.5,0,0,0,,0,251,251,107,1,,,,
,,,,,,6120855d04fae5ca82f68779,66a626ef09d4e21e1a8894ec,673649b4253877d885e46d8a,2024-11-14_13h07.24.259,Tarea de género gramatical,2024.2.2,Linux armv81,90.09009009,,,,,,,,,,,,,,,,,,,,,,,633.5404,634.7144,l,1,[],[],[],[],[],[],[],0.4971,1,634.7147,635.215,,,,,,690,MAS,AGR,150,ruido,el,l,0.4971,,635.2153,635.2163,-0.8,0.5,0,0,0,,0,252,252,239,1,,,,
,,,,,,6120855d04fae5ca82f68779,66a626ef09d4e21e1a8894ec,673649b4253877d885e46d8a,2024-11-14_13h07.24.259,Tarea de género gramatical,2024.2.2,Linux armv81,90.09009009,,,,,,,,,,,,,,,,,,,,,,,635.2208,636.361,l,1,[],[],[],[],[],[],[],0.4696,1,636.3613,636.8645,,,,,,634,MAS,CON,150,cielo,,l,0.4696,,636.8647,636.8651,-0.8,0.5,0,0,0,,0,253,253,183,1,,,,
,,,,,,6120855d04fae5ca82f68779,66a626ef09d4e21e1a8894ec,673649b4253877d885e46d8a,2024-11-14_13h07.24.259,Tarea de género gramatical,2024.2.2,Linux armv81,90.09009009,,,,,,,,,,,,,,,,,,,,,,,636.8681,637.9355,a,0,[],[],[],[],[],[],[],0.3947,0,637.938,638.4387,,,,,,594,MAS,AGR,150,amor,el,l,0.3947,,638.4421,638.4446,-0.8,0.5,0,0,0,,0,254,254,143,1,,,,
,,,,,,6120855d04fae5ca82f68779,66a626ef09d4e21e1a8894ec,673649b4253877d885e46d8a,2024-11-14_13h07.24.259,Tarea de género gramatical,2024.2.2,Linux armv81,90.09009009,,,,,,,,,,,,,,,,,,,,,,,638.4468,639.8107,a,1,[],[],[],[],[],[],[],0.7002,1,639.8142,640.3042,,,,,,877,FEM,CON,150,agenda,,a,0.7002,,640.3045,640.3054,-0.8,0.5,0,0,0,,0,255,255,426,1,,,,
,,,,,,6120855d04fae5ca82f68779,66a626ef09d4e21e1a8894ec,673649b4253877d885e46d8a,2024-11-14_13h07.24.259,Tarea de género gramatical,2024.2.2,Linux armv81,90.09009009,,,,,,,,,,,,,,,,,,,,,,,640.3104,641.515,a,1,[],[],[],[],[],[],[],0.5371,1,641.5155,642.0147,,,,,,571,FEM,CON,150,pila,,a,0.5371,,642.0149,642.0152,-0.8,0.5,0,0,0,,0,256,256,120,1,,,,
,,,,,,6120855d04fae5ca82f68779,66a626ef09d4e21e1a8894ec,673649b4253877d885e46d8a,2024-11-14_13h07.24.259,Tarea de género gramatical,2024.2.2,Linux armv81,90.09009009,,,,,,,,,,,,,,,,,,,,,,,642.0187,643.3067,l,1,[],[],[],[],[],[],[],0.6194,1,643.307,643.8011,,,,,,546,MAS,AGR,150,pato,el,l,0.6194,,643.8013,643.8016,-0.8,0.5,0,0,0,,0,257,257,95,1,,,,
,,,,,,6120855d04fae5ca82f68779,66a626ef09d4e21e1a8894ec,673649b4253877d885e46d8a,2024-11-14_13h07.24.259,Tarea de género gramatical,2024.2.2,Linux armv81,90.09009009,,,,,,,,,,,,,,,,,,,,,,,643.8044,645.3634,l,1,[],[],[],[],[],[],[],0.8875,1,645.3636,645.8522,,,,,,827,MAS,DIS,150,jardín,la,l,0.8875,,645.8561,645.8588,-0.8,0.5,0,0,0,,0,258,258,376,1,,,,
