counterbalancing_condition,consent_prescreening.block_1/declare_consent,consent_prescreening.block_1/age_years,consent_prescreening.block_1/gender,consent_prescreening.block_1/language_disorder,consent_prescreening.block_1/first_language,PROLIFIC_PID,STUDY_ID,SESSION_ID,date,expName,psychopyVersion,OS,frameRate,check_prescreening_answers.started,check_prescreening_answers.stopped,Instructions.started,Instructions.stopped,instr_done_keyboard.keys,instr_done_touch.x,instr_done_touch.y,instr_done_touch.leftButton,instr_done_touch.midButton,instr_done_touch.rightButton,instr_done_touch.clicked_name,instruction_pages.thisRepN,instruction_pages.thisTrialN,instruction_pages.thisN,instruction_pages.thisIndex,instruction_pages.ran,pageN,phase,instruct_text,has_image,instruct_image,instr_done_keyboard.rt,instr_done_keyboard.duration,presentTrial.started,presentTrial.stopped,response.keys,response.corr,touch_resp.x,touch_resp.y,touch_resp.leftButton,touch_resp.midButton,touch_resp.rightButton,touch_resp.time,touch_resp.clicked_name,rt,corr,feedback.started,feedback.stopped,practice_trials.thisRepN,practice_trials.thisTrialN,practice_trials.thisN,practice_trials.thisIndex,practice_trials.ran,TrialID,StimulusType,Condition,PrimeDuration,Prime,Flanker,corrAns,response.rt,response.duration,Break.started,Break.stopped,break_done_touch.x,break_done_touch.y,break_done_touch.leftButton,break_done_touch.midButton,break_done_touch.rightButton,break_done_keyboard.keys,experiment_trials.thisRepN,experiment_trials.thisTrialN,experiment_trials.thisN,experiment_trials.thisIndex,experiment_trials.ran,break_done_keyboard.rt,break_done_keyboard.duration,End.started,End.stopped
0,"[""over_18"",""comfortable"",""read_info"",""consent_given""]",47,M,"[""none""]","[""spanish""]",6743bffeaf2a2edbc2dad972,66a626ef09d4e21e1a8894ec,6735ece55cbfcde41ededb9d,2024-11-14_13h29.55.611,Tarea de género gramatical,2024.2.2,Win32,58.82352941,,,,,,,,,,,,,,,,,,,,,,,,,,,,,,,,,,,,,,,,,,,,,,,,,,,,,,,,,,,,,,,,,,,,,
,,,,,,6743bffeaf2a2edbc2dad972,66a626ef09d4e21e1a8894ec,6735ece55cbfcde41ededb9d,2024-11-14_13h29.55.611,Tarea de género gramatical,2024.2.2,Win32,58.82352941,69.347,69.348,,,,,,,,,,,,,,,,,,,,,,,,,,,,,,,,,,,,,,,,,,,,,,,,,,,,,,,,,,,,,,,,,,,
,,,,,,6743bffeaf2a2edbc2dad972,66a626ef09d4e21e1a8894ec,6735ece55cbfcde41ededb9d,2024-11-14_13h29.55.611,Tarea de género gramatical,2024.2.2,Win32,58.82352941,,,69.383,86.443,,0.056666667,-0.398888889,1,0,0,instr_done_button,0,0,0,0,1,1,instructions,"INSTRUCCIONES
Va a realizar una prueba de selección gramatical. Desde el comienzo de la prueba mire siempre al centro de la pantalla. Al cabo de un momento, aparecerán palabras. La tarea consiste en determinar si la palabra del centro (siempre será un sustantivo), pertenece al género masculino o femenino.

Pulse la tecla ESPACIO o toque el botón de abajo para continuar.",0,keyboardresponseMF.png,,,,,,,,,,,,,,,,,,,,,,,,,,,,,,,,,,,,,,,,,,,,,,,,
,,,,,,6743bffeaf2a2edbc2dad972,66a626ef09d4e21e1a8894ec,6735ece55cbfcde41ededb9d,2024-11-14_13h29.55.611,Tarea de género gramatical,2024.2.2,Win32,58.82352941,,,86.561,115.587,space,0.798888889,-0.471111111,0,0,0,,0,1,1,1,1,2,instructions,"Si su dispositivo tiene teclado, pulse la tecla ""A"" para las palabras en masculino (por ejemplo: ""arroz"") y la tecla ""L"" para las palabras en femenino (por ejemplo: ""mano"").
Pulse la tecla ESPACIO o toque el botón de abajo para continuar.",1,keyboardresponseMF.png,28.927,,,,,,,,,,,,,,,,,,,,,,,,,,,,,,,,,,,,,,,,,,,,,,,
,,,,,,6743bffeaf2a2edbc2dad972,66a626ef09d4e21e1a8894ec,6735ece55cbfcde41ededb9d,2024-11-14_13h29.55.611,Tarea de género gramatical,2024.2.2,Win32,58.82352941,,,115.587,126.071,space,0.798888889,-0.471111111,0,0,0,,0,2,2,2,1,3,instructions,"Si utiliza un dispositivo sólo táctil, colóquelo en horizontal y utilice los botones de la pantalla. No utilice el ratón.
Pulse la tecla ESPACIO o toque el botón de abajo para continuar.",2,touchresponseMF.png,10.388,,,,,,,,,,,,,,,,,,,,,,,,,,,,,,,,,,,,,,,,,,,,,,,
,,,,,,6743bffeaf2a2edbc2dad972,66a626ef09d4e21e1a8894ec,6735ece55cbfcde41ededb9d,2024-11-14_13h29.55.611,Tarea de género gramatical,2024.2.2,Win32,58.82352941,,,126.078,142.726,space,0.798888889,-0.471111111,0,0,0,,0,3,3,3,1,4,instructions,"Es muy importante que responda con la mayor rapidez y precisión posibles, ya que cada cadena de letras sólo estará en pantalla durante un instante. Si no responde en ese tiempo, aparecerá el mensaje ""Muy lento"" y el experimento pasará a la siguiente palabra. Los primeros 15 intentos serán de práctica y habrá dos descansos durante la prueba.
Pulse la tecla ESPACIO o toque el botón de abajo para iniciar la parte de práctica.",0,keyboardresponseMF.png,16.632,,,,,,,,,,,,,,,,,,,,,,,,,,,,,,,,,,,,,,,,,,,,,,,
,,,,,,6743bffeaf2a2edbc2dad972,66a626ef09d4e21e1a8894ec,6735ece55cbfcde41ededb9d,2024-11-14_13h29.55.611,Tarea de género gramatical,2024.2.2,Win32,58.82352941,,,,,,,,,,,,,,,,,,,,,,,,142.756,145.401,,0,[],[],[],[],[],[],[],,-1,145.402,145.898,0,0,0,7,1,2008,FEM,CON,150,siesta,,a,,,,,,,,,,,,,,,,,,,
,,,,,,6743bffeaf2a2edbc2dad972,66a626ef09d4e21e1a8894ec,6735ece55cbfcde41ededb9d,2024-11-14_13h29.55.611,Tarea de género gramatical,2024.2.2,Win32,58.82352941,,,,,,,,,,,,,,,,,,,,,,,,145.902,147.398,a,0,[],[],[],[],[],[],[],0.837,0,147.491,147.896,0,1,1,6,1,2007,FEM,AGR,150,navaja,la,a,0.837,,,,,,,,,,,,,,,,,,
,,,,,,6743bffeaf2a2edbc2dad972,66a626ef09d4e21e1a8894ec,6735ece55cbfcde41ededb9d,2024-11-14_13h29.55.611,Tarea de género gramatical,2024.2.2,Win32,58.82352941,,,,,,,,,,,,,,,,,,,,,,,,147.899,150.285,l,0,[],[],[],[],[],[],[],1.717,0,150.285,150.783,0,2,2,11,1,2012,MAS,DIS,150,clima,la,l,1.717,,,,,,,,,,,,,,,,,,
,,,,,,6743bffeaf2a2edbc2dad972,66a626ef09d4e21e1a8894ec,6735ece55cbfcde41ededb9d,2024-11-14_13h29.55.611,Tarea de género gramatical,2024.2.2,Win32,58.82352941,,,,,,,,,,,,,,,,,,,,,,,,150.785,152.848,l,0,[],[],[],[],[],[],[],1.383,0,152.848,153.346,0,3,3,12,1,2013,MAS,AGR,150,acero,el,l,1.383,,,,,,,,,,,,,,,,,,
,,,,,,6743bffeaf2a2edbc2dad972,66a626ef09d4e21e1a8894ec,6735ece55cbfcde41ededb9d,2024-11-14_13h29.55.611,Tarea de género gramatical,2024.2.2,Win32,58.82352941,,,,,,,,,,,,,,,,,,,,,,,,153.349,154.578,a,0,[],[],[],[],[],[],[],0.549,0,154.578,155.078,0,4,4,1,1,2002,FEM,CON,150,pala,,a,0.549,,,,,,,,,,,,,,,,,,
,,,,,,6743bffeaf2a2edbc2dad972,66a626ef09d4e21e1a8894ec,6735ece55cbfcde41ededb9d,2024-11-14_13h29.55.611,Tarea de género gramatical,2024.2.2,Win32,58.82352941,,,,,,,,,,,,,,,,,,,,,,,,155.08,157.724,,0,[],[],[],[],[],[],[],0.549,-1,157.726,158.223,0,5,5,5,1,2006,FEM,DIS,150,serie,el,a,,,,,,,,,,,,,,,,,,,
,,,,,,6743bffeaf2a2edbc2dad972,66a626ef09d4e21e1a8894ec,6735ece55cbfcde41ededb9d,2024-11-14_13h29.55.611,Tarea de género gramatical,2024.2.2,Win32,58.82352941,,,,,,,,,,,,,,,,,,,,,,,,158.226,160.423,a,1,[],[],[],[],[],[],[],1.516,1,160.424,160.921,0,6,6,14,1,2015,MAS,DIS,150,robot,la,l,1.516,,,,,,,,,,,,,,,,,,
,,,,,,6743bffeaf2a2edbc2dad972,66a626ef09d4e21e1a8894ec,6735ece55cbfcde41ededb9d,2024-11-14_13h29.55.611,Tarea de género gramatical,2024.2.2,Win32,58.82352941,,,,,,,,,,,,,,,,,,,,,,,,160.923,163.302,l,1,[],[],[],[],[],[],[],1.699,1,163.302,163.8,0,7,7,3,1,2004,FEM,AGR,150,venta,la,a,1.699,,,,,,,,,,,,,,,,,,
,,,,,,6743bffeaf2a2edbc2dad972,66a626ef09d4e21e1a8894ec,6735ece55cbfcde41ededb9d,2024-11-14_13h29.55.611,Tarea de género gramatical,2024.2.2,Win32,58.82352941,,,,,,,,,,,,,,,,,,,,,,,,163.802,165.366,a,1,[],[],[],[],[],[],[],0.884,1,165.367,165.865,0,8,8,13,1,2014,MAS,CON,150,siglo,,l,0.884,,,,,,,,,,,,,,,,,,
,,,,,,6743bffeaf2a2edbc2dad972,66a626ef09d4e21e1a8894ec,6735ece55cbfcde41ededb9d,2024-11-14_13h29.55.611,Tarea de género gramatical,2024.2.2,Win32,58.82352941,,,,,,,,,,,,,,,,,,,,,,,,165.867,167.766,a,1,[],[],[],[],[],[],[],1.216,1,167.766,168.264,0,9,9,8,1,2009,MAS,DIS,150,puerto,la,l,1.216,,,,,,,,,,,,,,,,,,
,,,,,,6743bffeaf2a2edbc2dad972,66a626ef09d4e21e1a8894ec,6735ece55cbfcde41ededb9d,2024-11-14_13h29.55.611,Tarea de género gramatical,2024.2.2,Win32,58.82352941,,,,,,,,,,,,,,,,,,,,,,,,168.266,169.661,l,1,[],[],[],[],[],[],[],0.716,1,169.661,170.16,0,10,10,4,1,2005,FEM,CON,150,placa,,a,0.716,,,,,,,,,,,,,,,,,,
,,,,,,6743bffeaf2a2edbc2dad972,66a626ef09d4e21e1a8894ec,6735ece55cbfcde41ededb9d,2024-11-14_13h29.55.611,Tarea de género gramatical,2024.2.2,Win32,58.82352941,,,,,,,,,,,,,,,,,,,,,,,,170.163,171.825,a,1,[],[],[],[],[],[],[],0.982,1,171.825,172.317,0,11,11,9,1,2010,MAS,AGR,150,vecino,el,l,0.982,,,,,,,,,,,,,,,,,,
,,,,,,6743bffeaf2a2edbc2dad972,66a626ef09d4e21e1a8894ec,6735ece55cbfcde41ededb9d,2024-11-14_13h29.55.611,Tarea de género gramatical,2024.2.2,Win32,58.82352941,,,,,,,,,,,,,,,,,,,,,,,,172.32,173.975,l,1,[],[],[],[],[],[],[],0.984,1,173.975,174.472,0,12,12,0,1,2001,FEM,AGR,150,nuca,la,a,0.984,,,,,,,,,,,,,,,,,,
,,,,,,6743bffeaf2a2edbc2dad972,66a626ef09d4e21e1a8894ec,6735ece55cbfcde41ededb9d,2024-11-14_13h29.55.611,Tarea de género gramatical,2024.2.2,Win32,58.82352941,,,,,,,,,,,,,,,,,,,,,,,,174.475,176.27,l,1,[],[],[],[],[],[],[],1.116,1,176.27,176.77,0,13,13,2,1,2003,FEM,DIS,150,daga,el,a,1.116,,,,,,,,,,,,,,,,,,
,,,,,,6743bffeaf2a2edbc2dad972,66a626ef09d4e21e1a8894ec,6735ece55cbfcde41ededb9d,2024-11-14_13h29.55.611,Tarea de género gramatical,2024.2.2,Win32,58.82352941,,,,,,,,,,,,,,,,,,,,,,,,176.772,178.422,l,0,[],[],[],[],[],[],[],0.971,0,178.424,178.918,0,14,14,10,1,2011,MAS,CON,150,canal,,l,0.971,,,,,,,,,,,,,,,,,,
,,,,,,6743bffeaf2a2edbc2dad972,66a626ef09d4e21e1a8894ec,6735ece55cbfcde41ededb9d,2024-11-14_13h29.55.611,Tarea de género gramatical,2024.2.2,Win32,58.82352941,,,196.612,203.281,space,0.798888889,-0.471111111,0,0,0,,,,,,,,,,,,6.646,,203.362,205.496,l,1,[],[],[],[],[],[],[],1.465,1,205.498,205.996,,,,,,182,FEM,CON,150,prisa,,a,1.465,,205.996,206.004,0.798888889,-0.471111111,0,0,0,,0,0,0,181,1,,,,
,,,,,,6743bffeaf2a2edbc2dad972,66a626ef09d4e21e1a8894ec,6735ece55cbfcde41ededb9d,2024-11-14_13h29.55.611,Tarea de género gramatical,2024.2.2,Win32,58.82352941,,,,,,,,,,,,,,,,,,,,,,,,206.006,207.51,a,1,[],[],[],[],[],[],[],0.839,1,207.51,208.01,,,,,,276,MAS,DIS,150,ritmo,la,l,0.839,,208.01,208.01,0.798888889,-0.471111111,0,0,0,,0,1,1,275,1,,,,
,,,,,,6743bffeaf2a2edbc2dad972,66a626ef09d4e21e1a8894ec,6735ece55cbfcde41ededb9d,2024-11-14_13h29.55.611,Tarea de género gramatical,2024.2.2,Win32,58.82352941,,,,,,,,,,,,,,,,,,,,,,,,208.012,209.408,l,1,[],[],[],[],[],[],[],0.722,1,209.408,209.908,,,,,,103,FEM,AGR,150,fama,la,a,0.722,,209.911,209.912,0.798888889,-0.471111111,0,0,0,,0,2,2,102,1,,,,
,,,,,,6743bffeaf2a2edbc2dad972,66a626ef09d4e21e1a8894ec,6735ece55cbfcde41ededb9d,2024-11-14_13h29.55.611,Tarea de género gramatical,2024.2.2,Win32,58.82352941,,,,,,,,,,,,,,,,,,,,,,,,209.913,211.223,l,1,[],[],[],[],[],[],[],0.635,1,211.223,211.722,,,,,,193,FEM,AGR,150,bolsa,la,a,0.635,,211.722,211.722,0.798888889,-0.471111111,0,0,0,,0,3,3,192,1,,,,
,,,,,,6743bffeaf2a2edbc2dad972,66a626ef09d4e21e1a8894ec,6735ece55cbfcde41ededb9d,2024-11-14_13h29.55.611,Tarea de género gramatical,2024.2.2,Win32,58.82352941,,,,,,,,,,,,,,,,,,,,,,,,211.724,213.054,a,1,[],[],[],[],[],[],[],0.656,1,213.054,213.553,,,,,,359,MAS,CON,150,bosque,,l,0.656,,213.553,213.553,0.798888889,-0.471111111,0,0,0,,0,4,4,358,1,,,,
,,,,,,6743bffeaf2a2edbc2dad972,66a626ef09d4e21e1a8894ec,6735ece55cbfcde41ededb9d,2024-11-14_13h29.55.611,Tarea de género gramatical,2024.2.2,Win32,58.82352941,,,,,,,,,,,,,,,,,,,,,,,,213.555,214.954,a,1,[],[],[],[],[],[],[],0.727,1,214.954,215.451,,,,,,306,MAS,DIS,150,dinero,la,l,0.727,,215.451,215.452,0.798888889,-0.471111111,0,0,0,,0,5,5,305,1,,,,
,,,,,,6743bffeaf2a2edbc2dad972,66a626ef09d4e21e1a8894ec,6735ece55cbfcde41ededb9d,2024-11-14_13h29.55.611,Tarea de género gramatical,2024.2.2,Win32,58.82352941,,,,,,,,,,,,,,,,,,,,,,,,215.454,216.867,l,0,[],[],[],[],[],[],[],0.741,0,216.868,217.366,,,,,,36,MAS,DIS,150,dedo,la,l,0.741,,217.369,217.37,0.798888889,-0.471111111,0,0,0,,0,6,6,35,1,,,,
,,,,,,6743bffeaf2a2edbc2dad972,66a626ef09d4e21e1a8894ec,6735ece55cbfcde41ededb9d,2024-11-14_13h29.55.611,Tarea de género gramatical,2024.2.2,Win32,58.82352941,,,,,,,,,,,,,,,,,,,,,,,,217.372,218.78,l,1,[],[],[],[],[],[],[],0.74,1,218.782,219.28,,,,,,422,FEM,CON,150,rutina,,a,0.74,,219.28,219.28,0.798888889,-0.471111111,0,0,0,,0,7,7,421,1,,,,
,,,,,,6743bffeaf2a2edbc2dad972,66a626ef09d4e21e1a8894ec,6735ece55cbfcde41ededb9d,2024-11-14_13h29.55.611,Tarea de género gramatical,2024.2.2,Win32,58.82352941,,,,,,,,,,,,,,,,,,,,,,,,219.282,220.695,a,1,[],[],[],[],[],[],[],0.739,1,220.695,221.194,,,,,,214,MAS,AGR,150,fondo,el,l,0.739,,221.195,221.195,0.798888889,-0.471111111,0,0,0,,0,8,8,213,1,,,,
,,,,,,6743bffeaf2a2edbc2dad972,66a626ef09d4e21e1a8894ec,6735ece55cbfcde41ededb9d,2024-11-14_13h29.55.611,Tarea de género gramatical,2024.2.2,Win32,58.82352941,,,,,,,,,,,,,,,,,,,,,,,,221.197,222.476,a,1,[],[],[],[],[],[],[],0.6,1,222.476,222.975,,,,,,155,MAS,CON,150,mundo,,l,0.6,,222.975,222.976,0.798888889,-0.471111111,0,0,0,,0,9,9,154,1,,,,
,,,,,,6743bffeaf2a2edbc2dad972,66a626ef09d4e21e1a8894ec,6735ece55cbfcde41ededb9d,2024-11-14_13h29.55.611,Tarea de género gramatical,2024.2.2,Win32,58.82352941,,,,,,,,,,,,,,,,,,,,,,,,222.978,224.44,a,1,[],[],[],[],[],[],[],0.788,1,224.441,224.94,,,,,,12,MAS,DIS,150,plan,la,l,0.788,,224.94,224.94,0.798888889,-0.471111111,0,0,0,,0,10,10,11,1,,,,
,,,,,,6743bffeaf2a2edbc2dad972,66a626ef09d4e21e1a8894ec,6735ece55cbfcde41ededb9d,2024-11-14_13h29.55.611,Tarea de género gramatical,2024.2.2,Win32,58.82352941,,,,,,,,,,,,,,,,,,,,,,,,224.942,226.355,l,1,[],[],[],[],[],[],[],0.737,1,226.355,226.854,,,,,,271,FEM,AGR,150,viuda,la,a,0.737,,226.857,226.859,0.798888889,-0.471111111,0,0,0,,0,11,11,270,1,,,,
,,,,,,6743bffeaf2a2edbc2dad972,66a626ef09d4e21e1a8894ec,6735ece55cbfcde41ededb9d,2024-11-14_13h29.55.611,Tarea de género gramatical,2024.2.2,Win32,58.82352941,,,,,,,,,,,,,,,,,,,,,,,,226.86,228.636,l,1,[],[],[],[],[],[],[],1.1,1,228.636,229.135,,,,,,99,FEM,DIS,150,fase,el,a,1.1,,229.135,229.135,0.798888889,-0.471111111,0,0,0,,0,12,12,98,1,,,,
,,,,,,6743bffeaf2a2edbc2dad972,66a626ef09d4e21e1a8894ec,6735ece55cbfcde41ededb9d,2024-11-14_13h29.55.611,Tarea de género gramatical,2024.2.2,Win32,58.82352941,,,,,,,,,,,,,,,,,,,,,,,,229.14,230.317,l,1,[],[],[],[],[],[],[],0.501,1,230.317,230.816,,,,,,176,FEM,CON,150,línea,,a,0.501,,230.816,230.817,0.798888889,-0.471111111,0,0,0,,0,13,13,175,1,,,,
,,,,,,6743bffeaf2a2edbc2dad972,66a626ef09d4e21e1a8894ec,6735ece55cbfcde41ededb9d,2024-11-14_13h29.55.611,Tarea de género gramatical,2024.2.2,Win32,58.82352941,,,,,,,,,,,,,,,,,,,,,,,,230.819,232.415,a,1,[],[],[],[],[],[],[],0.917,1,232.415,232.913,,,,,,180,MAS,DIS,150,fuego,la,l,0.917,,232.914,232.914,0.798888889,-0.471111111,0,0,0,,0,14,14,179,1,,,,
,,,,,,6743bffeaf2a2edbc2dad972,66a626ef09d4e21e1a8894ec,6735ece55cbfcde41ededb9d,2024-11-14_13h29.55.611,Tarea de género gramatical,2024.2.2,Win32,58.82352941,,,,,,,,,,,,,,,,,,,,,,,,232.916,234.279,a,1,[],[],[],[],[],[],[],0.687,1,234.279,234.779,,,,,,390,MAS,DIS,150,rostro,la,l,0.687,,234.781,234.783,0.798888889,-0.471111111,0,0,0,,0,15,15,389,1,,,,
,,,,,,6743bffeaf2a2edbc2dad972,66a626ef09d4e21e1a8894ec,6735ece55cbfcde41ededb9d,2024-11-14_13h29.55.611,Tarea de género gramatical,2024.2.2,Win32,58.82352941,,,,,,,,,,,,,,,,,,,,,,,,234.784,236.11,l,1,[],[],[],[],[],[],[],0.65,1,236.11,236.609,,,,,,63,FEM,DIS,150,fila,el,a,0.65,,236.609,236.609,0.798888889,-0.471111111,0,0,0,,0,16,16,62,1,,,,
,,,,,,6743bffeaf2a2edbc2dad972,66a626ef09d4e21e1a8894ec,6735ece55cbfcde41ededb9d,2024-11-14_13h29.55.611,Tarea de género gramatical,2024.2.2,Win32,58.82352941,,,,,,,,,,,,,,,,,,,,,,,,236.612,238.341,l,1,[],[],[],[],[],[],[],1.05,1,238.341,238.841,,,,,,92,FEM,CON,150,masa,,a,1.05,,238.841,238.841,0.798888889,-0.471111111,0,0,0,,0,17,17,91,1,,,,
,,,,,,6743bffeaf2a2edbc2dad972,66a626ef09d4e21e1a8894ec,6735ece55cbfcde41ededb9d,2024-11-14_13h29.55.611,Tarea de género gramatical,2024.2.2,Win32,58.82352941,,,,,,,,,,,,,,,,,,,,,,,,238.843,240.155,l,1,[],[],[],[],[],[],[],0.634,1,240.155,240.655,,,,,,14,FEM,CON,150,cara,,a,0.634,,240.655,240.655,0.798888889,-0.471111111,0,0,0,,0,18,18,13,1,,,,
,,,,,,6743bffeaf2a2edbc2dad972,66a626ef09d4e21e1a8894ec,6735ece55cbfcde41ededb9d,2024-11-14_13h29.55.611,Tarea de género gramatical,2024.2.2,Win32,58.82352941,,,,,,,,,,,,,,,,,,,,,,,,240.657,242.186,l,1,[],[],[],[],[],[],[],0.851,1,242.186,242.686,,,,,,219,FEM,DIS,150,costa,el,a,0.851,,242.686,242.686,0.798888889,-0.471111111,0,0,0,,0,19,19,218,1,,,,
,,,,,,6743bffeaf2a2edbc2dad972,66a626ef09d4e21e1a8894ec,6735ece55cbfcde41ededb9d,2024-11-14_13h29.55.611,Tarea de género gramatical,2024.2.2,Win32,58.82352941,,,,,,,,,,,,,,,,,,,,,,,,242.688,244.201,l,1,[],[],[],[],[],[],[],0.833,1,244.201,244.7,,,,,,3,FEM,DIS,150,cosa,el,a,0.833,,244.703,244.705,0.798888889,-0.471111111,0,0,0,,0,20,20,2,1,,,,
,,,,,,6743bffeaf2a2edbc2dad972,66a626ef09d4e21e1a8894ec,6735ece55cbfcde41ededb9d,2024-11-14_13h29.55.611,Tarea de género gramatical,2024.2.2,Win32,58.82352941,,,,,,,,,,,,,,,,,,,,,,,,244.707,246.083,l,1,[],[],[],[],[],[],[],0.701,1,246.083,246.582,,,,,,411,FEM,DIS,150,actriz,el,a,0.701,,246.582,246.582,0.798888889,-0.471111111,0,0,0,,0,21,21,410,1,,,,
,,,,,,6743bffeaf2a2edbc2dad972,66a626ef09d4e21e1a8894ec,6735ece55cbfcde41ededb9d,2024-11-14_13h29.55.611,Tarea de género gramatical,2024.2.2,Win32,58.82352941,,,,,,,,,,,,,,,,,,,,,,,,246.585,247.93,l,1,[],[],[],[],[],[],[],0.666,1,247.93,248.429,,,,,,205,FEM,AGR,150,reina,la,a,0.666,,248.429,248.429,0.798888889,-0.471111111,0,0,0,,0,22,22,204,1,,,,
,,,,,,6743bffeaf2a2edbc2dad972,66a626ef09d4e21e1a8894ec,6735ece55cbfcde41ededb9d,2024-11-14_13h29.55.611,Tarea de género gramatical,2024.2.2,Win32,58.82352941,,,,,,,,,,,,,,,,,,,,,,,,248.432,249.861,l,1,[],[],[],[],[],[],[],0.75,1,249.861,250.36,,,,,,141,FEM,DIS,150,cera,el,a,0.75,,250.361,250.361,0.798888889,-0.471111111,0,0,0,,0,23,23,140,1,,,,
,,,,,,6743bffeaf2a2edbc2dad972,66a626ef09d4e21e1a8894ec,6735ece55cbfcde41ededb9d,2024-11-14_13h29.55.611,Tarea de género gramatical,2024.2.2,Win32,58.82352941,,,,,,,,,,,,,,,,,,,,,,,,250.363,251.559,l,1,[],[],[],[],[],[],[],0.518,1,251.559,252.058,,,,,,157,FEM,AGR,150,madre,la,a,0.518,,252.061,252.063,0.798888889,-0.471111111,0,0,0,,0,24,24,156,1,,,,
,,,,,,6743bffeaf2a2edbc2dad972,66a626ef09d4e21e1a8894ec,6735ece55cbfcde41ededb9d,2024-11-14_13h29.55.611,Tarea de género gramatical,2024.2.2,Win32,58.82352941,,,,,,,,,,,,,,,,,,,,,,,,252.065,253.391,a,1,[],[],[],[],[],[],[],0.654,1,253.391,253.889,,,,,,426,MAS,DIS,150,pánico,la,l,0.654,,253.89,253.89,0.798888889,-0.471111111,0,0,0,,0,25,25,425,1,,,,
,,,,,,6743bffeaf2a2edbc2dad972,66a626ef09d4e21e1a8894ec,6735ece55cbfcde41ededb9d,2024-11-14_13h29.55.611,Tarea de género gramatical,2024.2.2,Win32,58.82352941,,,,,,,,,,,,,,,,,,,,,,,,253.892,255.274,l,1,[],[],[],[],[],[],[],0.701,1,255.274,255.772,,,,,,206,FEM,CON,150,época,,a,0.701,,255.772,255.772,0.798888889,-0.471111111,0,0,0,,0,26,26,205,1,,,,
,,,,,,6743bffeaf2a2edbc2dad972,66a626ef09d4e21e1a8894ec,6735ece55cbfcde41ededb9d,2024-11-14_13h29.55.611,Tarea de género gramatical,2024.2.2,Win32,58.82352941,,,,,,,,,,,,,,,,,,,,,,,,255.773,257.12,l,1,[],[],[],[],[],[],[],0.666,1,257.12,257.62,,,,,,165,FEM,DIS,150,amiga,el,a,0.666,,257.62,257.62,0.798888889,-0.471111111,0,0,0,,0,27,27,164,1,,,,
,,,,,,6743bffeaf2a2edbc2dad972,66a626ef09d4e21e1a8894ec,6735ece55cbfcde41ededb9d,2024-11-14_13h29.55.611,Tarea de género gramatical,2024.2.2,Win32,58.82352941,,,,,,,,,,,,,,,,,,,,,,,,257.622,259.4,l,1,[],[],[],[],[],[],[],1.1,1,259.401,259.899,,,,,,398,FEM,CON,150,hierba,,a,1.1,,259.899,259.9,0.798888889,-0.471111111,0,0,0,,0,28,28,397,1,,,,
,,,,,,6743bffeaf2a2edbc2dad972,66a626ef09d4e21e1a8894ec,6735ece55cbfcde41ededb9d,2024-11-14_13h29.55.611,Tarea de género gramatical,2024.2.2,Win32,58.82352941,,,,,,,,,,,,,,,,,,,,,,,,259.902,261.314,a,1,[],[],[],[],[],[],[],0.747,1,261.314,261.814,,,,,,77,MAS,CON,150,pico,,l,0.747,,261.817,261.818,0.798888889,-0.471111111,0,0,0,,0,29,29,76,1,,,,
,,,,,,6743bffeaf2a2edbc2dad972,66a626ef09d4e21e1a8894ec,6735ece55cbfcde41ededb9d,2024-11-14_13h29.55.611,Tarea de género gramatical,2024.2.2,Win32,58.82352941,,,,,,,,,,,,,,,,,,,,,,,,261.82,263.479,a,1,[],[],[],[],[],[],[],0.983,1,263.479,263.978,,,,,,100,MAS,AGR,150,nido,el,l,0.983,,263.978,263.978,0.798888889,-0.471111111,0,0,0,,0,30,30,99,1,,,,
,,,,,,6743bffeaf2a2edbc2dad972,66a626ef09d4e21e1a8894ec,6735ece55cbfcde41ededb9d,2024-11-14_13h29.55.611,Tarea de género gramatical,2024.2.2,Win32,58.82352941,,,,,,,,,,,,,,,,,,,,,,,,263.98,265.443,l,1,[],[],[],[],[],[],[],0.786,1,265.443,265.943,,,,,,134,FEM,CON,150,rama,,a,0.786,,265.943,265.943,0.798888889,-0.471111111,0,0,0,,0,31,31,133,1,,,,
,,,,,,6743bffeaf2a2edbc2dad972,66a626ef09d4e21e1a8894ec,6735ece55cbfcde41ededb9d,2024-11-14_13h29.55.611,Tarea de género gramatical,2024.2.2,Win32,58.82352941,,,,,,,,,,,,,,,,,,,,,,,,265.946,267.341,a,1,[],[],[],[],[],[],[],0.72,1,267.342,267.841,,,,,,114,MAS,DIS,150,menú,la,l,0.72,,267.841,267.841,0.798888889,-0.471111111,0,0,0,,0,32,32,113,1,,,,
,,,,,,6743bffeaf2a2edbc2dad972,66a626ef09d4e21e1a8894ec,6735ece55cbfcde41ededb9d,2024-11-14_13h29.55.611,Tarea de género gramatical,2024.2.2,Win32,58.82352941,,,,,,,,,,,,,,,,,,,,,,,,267.842,269.139,l,1,[],[],[],[],[],[],[],0.617,1,269.139,269.638,,,,,,260,FEM,CON,150,barra,,a,0.617,,269.643,269.645,0.798888889,-0.471111111,0,0,0,,0,33,33,259,1,,,,
,,,,,,6743bffeaf2a2edbc2dad972,66a626ef09d4e21e1a8894ec,6735ece55cbfcde41ededb9d,2024-11-14_13h29.55.611,Tarea de género gramatical,2024.2.2,Win32,58.82352941,,,,,,,,,,,,,,,,,,,,,,,,269.649,271.219,l,1,[],[],[],[],[],[],[],0.9,1,271.219,271.719,,,,,,417,FEM,DIS,150,cabaña,el,a,0.9,,271.72,271.72,0.798888889,-0.471111111,0,0,0,,0,34,34,416,1,,,,
,,,,,,6743bffeaf2a2edbc2dad972,66a626ef09d4e21e1a8894ec,6735ece55cbfcde41ededb9d,2024-11-14_13h29.55.611,Tarea de género gramatical,2024.2.2,Win32,58.82352941,,,,,,,,,,,,,,,,,,,,,,,,271.722,272.984,l,1,[],[],[],[],[],[],[],0.583,1,272.985,273.484,,,,,,140,FEM,CON,150,mula,,a,0.583,,273.484,273.485,0.798888889,-0.471111111,0,0,0,,0,35,35,139,1,,,,
,,,,,,6743bffeaf2a2edbc2dad972,66a626ef09d4e21e1a8894ec,6735ece55cbfcde41ededb9d,2024-11-14_13h29.55.611,Tarea de género gramatical,2024.2.2,Win32,58.82352941,,,,,,,,,,,,,,,,,,,,,,,,273.487,274.998,l,1,[],[],[],[],[],[],[],0.832,1,274.998,275.498,,,,,,109,FEM,AGR,150,gota,la,a,0.832,,275.498,275.498,0.798888889,-0.471111111,0,0,0,,0,36,36,108,1,,,,
,,,,,,6743bffeaf2a2edbc2dad972,66a626ef09d4e21e1a8894ec,6735ece55cbfcde41ededb9d,2024-11-14_13h29.55.611,Tarea de género gramatical,2024.2.2,Win32,58.82352941,,,,,,,,,,,,,,,,,,,,,,,,275.501,276.763,a,1,[],[],[],[],[],[],[],0.583,1,276.763,277.264,,,,,,412,MAS,AGR,150,espejo,el,l,0.583,,277.264,277.264,0.798888889,-0.471111111,0,0,0,,0,37,37,411,1,,,,
,,,,,,6743bffeaf2a2edbc2dad972,66a626ef09d4e21e1a8894ec,6735ece55cbfcde41ededb9d,2024-11-14_13h29.55.611,Tarea de género gramatical,2024.2.2,Win32,58.82352941,,,,,,,,,,,,,,,,,,,,,,,,277.266,278.927,a,1,[],[],[],[],[],[],[],0.983,1,278.928,279.428,,,,,,282,MAS,DIS,150,bolso,la,l,0.983,,279.431,279.432,0.798888889,-0.471111111,0,0,0,,0,38,38,281,1,,,,
,,,,,,6743bffeaf2a2edbc2dad972,66a626ef09d4e21e1a8894ec,6735ece55cbfcde41ededb9d,2024-11-14_13h29.55.611,Tarea de género gramatical,2024.2.2,Win32,58.82352941,,,,,,,,,,,,,,,,,,,,,,,,279.433,280.676,l,1,[],[],[],[],[],[],[],0.569,1,280.676,281.175,,,,,,2,FEM,CON,150,vida,,a,0.569,,281.175,281.175,0.798888889,-0.471111111,0,0,0,,0,39,39,1,1,,,,
,,,,,,6743bffeaf2a2edbc2dad972,66a626ef09d4e21e1a8894ec,6735ece55cbfcde41ededb9d,2024-11-14_13h29.55.611,Tarea de género gramatical,2024.2.2,Win32,58.82352941,,,,,,,,,,,,,,,,,,,,,,,,281.177,282.939,l,1,[],[],[],[],[],[],[],1.088,1,282.94,283.439,,,,,,241,FEM,AGR,150,pasta,la,a,1.088,,283.439,283.439,0.798888889,-0.471111111,0,0,0,,0,40,40,240,1,,,,
,,,,,,6743bffeaf2a2edbc2dad972,66a626ef09d4e21e1a8894ec,6735ece55cbfcde41ededb9d,2024-11-14_13h29.55.611,Tarea de género gramatical,2024.2.2,Win32,58.82352941,,,,,,,,,,,,,,,,,,,,,,,,283.442,285.054,l,1,[],[],[],[],[],[],[],0.935,1,285.054,285.555,,,,,,375,FEM,DIS,150,cadena,el,a,0.935,,285.555,285.555,0.798888889,-0.471111111,0,0,0,,0,41,41,374,1,,,,
,,,,,,6743bffeaf2a2edbc2dad972,66a626ef09d4e21e1a8894ec,6735ece55cbfcde41ededb9d,2024-11-14_13h29.55.611,Tarea de género gramatical,2024.2.2,Win32,58.82352941,,,,,,,,,,,,,,,,,,,,,,,,285.558,286.935,l,1,[],[],[],[],[],[],[],0.706,1,286.936,287.434,,,,,,145,FEM,AGR,150,bota,la,a,0.706,,287.437,287.438,0.798888889,-0.471111111,0,0,0,,0,42,42,144,1,,,,
,,,,,,6743bffeaf2a2edbc2dad972,66a626ef09d4e21e1a8894ec,6735ece55cbfcde41ededb9d,2024-11-14_13h29.55.611,Tarea de género gramatical,2024.2.2,Win32,58.82352941,,,,,,,,,,,,,,,,,,,,,,,,287.439,289.19,a,1,[],[],[],[],[],[],[],1.082,1,289.19,289.688,,,,,,360,MAS,DIS,150,puente,la,l,1.082,,289.688,289.689,0.798888889,-0.471111111,0,0,0,,0,43,43,359,1,,,,
,,,,,,6743bffeaf2a2edbc2dad972,66a626ef09d4e21e1a8894ec,6735ece55cbfcde41ededb9d,2024-11-14_13h29.55.611,Tarea de género gramatical,2024.2.2,Win32,58.82352941,,,,,,,,,,,,,,,,,,,,,,,,289.691,291.187,l,1,[],[],[],[],[],[],[],0.817,1,291.187,291.687,,,,,,273,FEM,DIS,150,tarta,el,a,0.817,,291.687,291.687,0.798888889,-0.471111111,0,0,0,,0,44,44,272,1,,,,
,,,,,,6743bffeaf2a2edbc2dad972,66a626ef09d4e21e1a8894ec,6735ece55cbfcde41ededb9d,2024-11-14_13h29.55.611,Tarea de género gramatical,2024.2.2,Win32,58.82352941,,,,,,,,,,,,,,,,,,,,,,,,291.689,293.152,l,0,[],[],[],[],[],[],[],0.784,0,293.153,293.649,,,,,,173,MAS,CON,150,libro,,l,0.784,,293.649,293.649,0.798888889,-0.471111111,0,0,0,,0,45,45,172,1,,,,
,,,,,,6743bffeaf2a2edbc2dad972,66a626ef09d4e21e1a8894ec,6735ece55cbfcde41ededb9d,2024-11-14_13h29.55.611,Tarea de género gramatical,2024.2.2,Win32,58.82352941,,,,,,,,,,,,,,,,,,,,,,,,293.651,295.466,l,1,[],[],[],[],[],[],[],1.132,1,295.467,295.961,,,,,,380,FEM,CON,150,madera,,a,1.132,,295.961,295.961,0.798888889,-0.471111111,0,0,0,,0,46,46,379,1,,,,
,,,,,,6743bffeaf2a2edbc2dad972,66a626ef09d4e21e1a8894ec,6735ece55cbfcde41ededb9d,2024-11-14_13h29.55.611,Tarea de género gramatical,2024.2.2,Win32,58.82352941,,,,,,,,,,,,,,,,,,,,,,,,295.964,297.365,l,1,[],[],[],[],[],[],[],0.734,1,297.365,297.862,,,,,,37,FEM,AGR,150,sala,la,a,0.734,,297.864,297.867,0.798888889,-0.471111111,0,0,0,,0,47,47,36,1,,,,
,,,,,,6743bffeaf2a2edbc2dad972,66a626ef09d4e21e1a8894ec,6735ece55cbfcde41ededb9d,2024-11-14_13h29.55.611,Tarea de género gramatical,2024.2.2,Win32,58.82352941,,,,,,,,,,,,,,,,,,,,,,,,297.868,299.374,l,1,[],[],[],[],[],[],[],0.83,1,299.374,299.875,,,,,,181,FEM,AGR,150,tarde,la,a,0.83,,299.875,299.875,0.798888889,-0.471111111,0,0,0,,0,48,48,180,1,,,,
,,,,,,6743bffeaf2a2edbc2dad972,66a626ef09d4e21e1a8894ec,6735ece55cbfcde41ededb9d,2024-11-14_13h29.55.611,Tarea de género gramatical,2024.2.2,Win32,58.82352941,,,,,,,,,,,,,,,,,,,,,,,,299.876,301.319,a,1,[],[],[],[],[],[],[],0.77,1,301.319,301.818,,,,,,388,MAS,AGR,150,empleo,el,l,0.77,,301.818,301.818,0.798888889,-0.471111111,0,0,0,,0,49,49,387,1,,,,
,,,,,,6743bffeaf2a2edbc2dad972,66a626ef09d4e21e1a8894ec,6735ece55cbfcde41ededb9d,2024-11-14_13h29.55.611,Tarea de género gramatical,2024.2.2,Win32,58.82352941,,,,,,,,,,,,,,,,,,,,,,,,301.82,303.101,l,1,[],[],[],[],[],[],[],0.608,1,303.102,303.604,,,,,,295,FEM,AGR,150,grasa,la,a,0.608,,303.604,303.604,0.798888889,-0.471111111,0,0,0,,0,50,50,294,1,,,,
,,,,,,6743bffeaf2a2edbc2dad972,66a626ef09d4e21e1a8894ec,6735ece55cbfcde41ededb9d,2024-11-14_13h29.55.611,Tarea de género gramatical,2024.2.2,Win32,58.82352941,,,,,,,,,,,,,,,,,,,,,,,,303.606,304.916,l,1,[],[],[],[],[],[],[],0.644,1,304.917,305.415,,,,,,308,FEM,CON,150,semana,,a,0.644,,305.417,305.418,0.798888889,-0.471111111,0,0,0,,0,51,51,307,1,,,,
,,,,,,6743bffeaf2a2edbc2dad972,66a626ef09d4e21e1a8894ec,6735ece55cbfcde41ededb9d,2024-11-14_13h29.55.611,Tarea de género gramatical,2024.2.2,Win32,58.82352941,,,,,,,,,,,,,,,,,,,,,,,,305.419,306.813,l,1,[],[],[],[],[],[],[],0.717,1,306.813,307.303,,,,,,194,FEM,CON,150,banda,,a,0.717,,307.303,307.303,0.798888889,-0.471111111,0,0,0,,0,52,52,193,1,,,,
,,,,,,6743bffeaf2a2edbc2dad972,66a626ef09d4e21e1a8894ec,6735ece55cbfcde41ededb9d,2024-11-14_13h29.55.611,Tarea de género gramatical,2024.2.2,Win32,58.82352941,,,,,,,,,,,,,,,,,,,,,,,,307.304,308.585,a,1,[],[],[],[],[],[],[],0.6,1,308.585,309.084,,,,,,168,MAS,DIS,150,sitio,la,l,0.6,,309.084,309.084,0.798888889,-0.471111111,0,0,0,,0,53,53,167,1,,,,
,,,,,,6743bffeaf2a2edbc2dad972,66a626ef09d4e21e1a8894ec,6735ece55cbfcde41ededb9d,2024-11-14_13h29.55.611,Tarea de género gramatical,2024.2.2,Win32,58.82352941,,,,,,,,,,,,,,,,,,,,,,,,309.085,310.817,l,1,[],[],[],[],[],[],[],1.051,1,310.817,311.315,,,,,,20,FEM,CON,150,ropa,,a,1.051,,311.315,311.315,0.798888889,-0.471111111,0,0,0,,0,54,54,19,1,,,,
,,,,,,6743bffeaf2a2edbc2dad972,66a626ef09d4e21e1a8894ec,6735ece55cbfcde41ededb9d,2024-11-14_13h29.55.611,Tarea de género gramatical,2024.2.2,Win32,58.82352941,,,,,,,,,,,,,,,,,,,,,,,,311.317,312.696,a,1,[],[],[],[],[],[],[],0.701,1,312.697,313.197,,,,,,184,MAS,AGR,150,cielo,el,l,0.701,,313.197,313.197,0.798888889,-0.471111111,0,0,0,,0,55,55,183,1,,,,
,,,,,,6743bffeaf2a2edbc2dad972,66a626ef09d4e21e1a8894ec,6735ece55cbfcde41ededb9d,2024-11-14_13h29.55.611,Tarea de género gramatical,2024.2.2,Win32,58.82352941,,,,,,,,,,,,,,,,,,,,,,,,313.198,315.177,l,1,[],[],[],[],[],[],[],1.299,1,315.177,315.676,,,,,,429,FEM,DIS,150,fianza,el,a,1.299,,315.677,315.678,0.798888889,-0.471111111,0,0,0,,0,56,56,428,1,,,,
,,,,,,6743bffeaf2a2edbc2dad972,66a626ef09d4e21e1a8894ec,6735ece55cbfcde41ededb9d,2024-11-14_13h29.55.611,Tarea de género gramatical,2024.2.2,Win32,58.82352941,,,,,,,,,,,,,,,,,,,,,,,,315.68,316.875,l,1,[],[],[],[],[],[],[],0.517,1,316.875,317.375,,,,,,373,FEM,AGR,150,lluvia,la,a,0.517,,317.375,317.375,0.798888889,-0.471111111,0,0,0,,0,57,57,372,1,,,,
,,,,,,6743bffeaf2a2edbc2dad972,66a626ef09d4e21e1a8894ec,6735ece55cbfcde41ededb9d,2024-11-14_13h29.55.611,Tarea de género gramatical,2024.2.2,Win32,58.82352941,,,,,,,,,,,,,,,,,,,,,,,,317.376,318.625,l,1,[],[],[],[],[],[],[],0.568,1,318.625,319.122,,,,,,355,FEM,AGR,150,mirada,la,a,0.568,,319.122,319.122,0.798888889,-0.471111111,0,0,0,,0,58,58,354,1,,,,
,,,,,,6743bffeaf2a2edbc2dad972,66a626ef09d4e21e1a8894ec,6735ece55cbfcde41ededb9d,2024-11-14_13h29.55.611,Tarea de género gramatical,2024.2.2,Win32,58.82352941,,,,,,,,,,,,,,,,,,,,,,,,319.123,320.472,l,1,[],[],[],[],[],[],[],0.684,1,320.472,320.971,,,,,,361,FEM,AGR,150,oferta,la,a,0.684,,320.971,320.971,0.798888889,-0.471111111,0,0,0,,0,59,59,360,1,,,,
,,,,,,6743bffeaf2a2edbc2dad972,66a626ef09d4e21e1a8894ec,6735ece55cbfcde41ededb9d,2024-11-14_13h29.55.611,Tarea de género gramatical,2024.2.2,Win32,58.82352941,,,,,,,,,,,,,,,,,,,,,,,,320.972,322.469,l,1,[],[],[],[],[],[],[],0.819,1,322.47,322.967,,,,,,423,FEM,DIS,150,poesía,el,a,0.819,,322.969,322.97,0.798888889,-0.471111111,0,0,0,,0,60,60,422,1,,,,
,,,,,,6743bffeaf2a2edbc2dad972,66a626ef09d4e21e1a8894ec,6735ece55cbfcde41ededb9d,2024-11-14_13h29.55.611,Tarea de género gramatical,2024.2.2,Win32,58.82352941,,,,,,,,,,,,,,,,,,,,,,,,322.971,324.433,a,1,[],[],[],[],[],[],[],0.785,1,324.433,324.931,,,,,,292,MAS,AGR,150,piano,el,l,0.785,,324.931,324.931,0.798888889,-0.471111111,0,0,0,,0,61,61,291,1,,,,
,,,,,,6743bffeaf2a2edbc2dad972,66a626ef09d4e21e1a8894ec,6735ece55cbfcde41ededb9d,2024-11-14_13h29.55.611,Tarea de género gramatical,2024.2.2,Win32,58.82352941,,,,,,,,,,,,,,,,,,,,,,,,324.933,326.498,a,1,[],[],[],[],[],[],[],0.884,1,326.498,326.996,,,,,,190,MAS,AGR,150,campo,el,l,0.884,,326.996,326.996,0.798888889,-0.471111111,0,0,0,,0,62,62,189,1,,,,
,,,,,,6743bffeaf2a2edbc2dad972,66a626ef09d4e21e1a8894ec,6735ece55cbfcde41ededb9d,2024-11-14_13h29.55.611,Tarea de género gramatical,2024.2.2,Win32,58.82352941,,,,,,,,,,,,,,,,,,,,,,,,326.999,328.378,a,1,[],[],[],[],[],[],[],0.701,1,328.378,328.877,,,,,,281,MAS,CON,150,actor,,l,0.701,,328.877,328.877,0.798888889,-0.471111111,0,0,0,,0,63,63,280,1,,,,
,,,,,,6743bffeaf2a2edbc2dad972,66a626ef09d4e21e1a8894ec,6735ece55cbfcde41ededb9d,2024-11-14_13h29.55.611,Tarea de género gramatical,2024.2.2,Win32,58.82352941,,,,,,,,,,,,,,,,,,,,,,,,328.879,330.542,l,1,[],[],[],[],[],[],[],0.984,1,330.542,331.04,,,,,,183,FEM,DIS,150,llave,el,a,0.984,,331.04,331.041,0.798888889,-0.471111111,0,0,0,,0,64,64,182,1,,,,
,,,,,,6743bffeaf2a2edbc2dad972,66a626ef09d4e21e1a8894ec,6735ece55cbfcde41ededb9d,2024-11-14_13h29.55.611,Tarea de género gramatical,2024.2.2,Win32,58.82352941,,,,,,,,,,,,,,,,,,,,,,,,331.043,332.806,l,1,[],[],[],[],[],[],[],1.083,1,332.806,333.305,,,,,,117,FEM,DIS,150,raya,el,a,1.083,,333.308,333.309,0.798888889,-0.471111111,0,0,0,,0,65,65,116,1,,,,
,,,,,,6743bffeaf2a2edbc2dad972,66a626ef09d4e21e1a8894ec,6735ece55cbfcde41ededb9d,2024-11-14_13h29.55.611,Tarea de género gramatical,2024.2.2,Win32,58.82352941,,,,,,,,,,,,,,,,,,,,,,,,333.311,334.823,l,1,[],[],[],[],[],[],[],0.835,1,334.823,335.319,,,,,,253,FEM,AGR,150,aldea,la,a,0.835,,335.319,335.319,0.798888889,-0.471111111,0,0,0,,0,66,66,252,1,,,,
,,,,,,6743bffeaf2a2edbc2dad972,66a626ef09d4e21e1a8894ec,6735ece55cbfcde41ededb9d,2024-11-14_13h29.55.611,Tarea de género gramatical,2024.2.2,Win32,58.82352941,,,,,,,,,,,,,,,,,,,,,,,,335.322,336.601,l,1,[],[],[],[],[],[],[],0.601,1,336.602,337.099,,,,,,261,FEM,DIS,150,cueva,el,a,0.601,,337.099,337.1,0.798888889,-0.471111111,0,0,0,,0,67,67,260,1,,,,
,,,,,,6743bffeaf2a2edbc2dad972,66a626ef09d4e21e1a8894ec,6735ece55cbfcde41ededb9d,2024-11-14_13h29.55.611,Tarea de género gramatical,2024.2.2,Win32,58.82352941,,,,,,,,,,,,,,,,,,,,,,,,337.103,338.698,l,1,[],[],[],[],[],[],[],0.916,1,338.699,339.199,,,,,,170,FEM,CON,150,carta,,a,0.916,,339.199,339.199,0.798888889,-0.471111111,0,0,0,,0,68,68,169,1,,,,
,,,,,,6743bffeaf2a2edbc2dad972,66a626ef09d4e21e1a8894ec,6735ece55cbfcde41ededb9d,2024-11-14_13h29.55.611,Tarea de género gramatical,2024.2.2,Win32,58.82352941,,,,,,,,,,,,,,,,,,,,,,,,339.201,340.596,a,1,[],[],[],[],[],[],[],0.716,1,340.597,341.096,,,,,,228,MAS,DIS,150,nivel,la,l,0.716,,341.099,341.102,0.798888889,-0.471111111,0,0,0,,0,69,69,227,1,,,,
,,,,,,6743bffeaf2a2edbc2dad972,66a626ef09d4e21e1a8894ec,6735ece55cbfcde41ededb9d,2024-11-14_13h29.55.611,Tarea de género gramatical,2024.2.2,Win32,58.82352941,,,,,,,,,,,,,,,,,,,,,,,,341.104,342.528,a,1,[],[],[],[],[],[],[],0.75,1,342.528,343.027,,,,,,113,MAS,CON,150,toro,,l,0.75,,343.027,343.027,0.798888889,-0.471111111,0,0,0,,0,70,70,112,1,,,,
,,,,,,6743bffeaf2a2edbc2dad972,66a626ef09d4e21e1a8894ec,6735ece55cbfcde41ededb9d,2024-11-14_13h29.55.611,Tarea de género gramatical,2024.2.2,Win32,58.82352941,,,,,,,,,,,,,,,,,,,,,,,,343.029,345.159,l,1,[],[],[],[],[],[],[],1.449,1,345.159,345.658,,,,,,349,FEM,AGR,150,prensa,la,a,1.449,,345.658,345.658,0.798888889,-0.471111111,0,0,0,,0,71,71,348,1,,,,
,,,,,,6743bffeaf2a2edbc2dad972,66a626ef09d4e21e1a8894ec,6735ece55cbfcde41ededb9d,2024-11-14_13h29.55.611,Tarea de género gramatical,2024.2.2,Win32,58.82352941,,,,,,,,,,,,,,,,,,,,,,,,345.661,347.89,a,1,[],[],[],[],[],[],[],1.55,1,347.89,348.387,,,,,,358,MAS,AGR,150,motivo,el,l,1.55,,348.387,348.387,0.798888889,-0.471111111,0,0,0,,0,72,72,357,1,,,,
,,,,,,6743bffeaf2a2edbc2dad972,66a626ef09d4e21e1a8894ec,6735ece55cbfcde41ededb9d,2024-11-14_13h29.55.611,Tarea de género gramatical,2024.2.2,Win32,58.82352941,,,,,,,,,,,,,,,,,,,,,,,,348.389,349.554,l,1,[],[],[],[],[],[],[],0.484,1,349.554,350.052,,,,,,302,FEM,CON,150,cabeza,,a,0.484,,350.053,350.053,0.798888889,-0.471111111,0,0,0,,0,73,73,301,1,,,,
,,,,,,6743bffeaf2a2edbc2dad972,66a626ef09d4e21e1a8894ec,6735ece55cbfcde41ededb9d,2024-11-14_13h29.55.611,Tarea de género gramatical,2024.2.2,Win32,58.82352941,,,,,,,,,,,,,,,,,,,,,,,,350.055,351.867,l,1,[],[],[],[],[],[],[],1.132,1,351.867,352.367,,,,,,259,FEM,AGR,150,prima,la,a,1.132,,352.369,352.371,0.798888889,-0.471111111,0,0,0,,0,74,74,258,1,,,,
,,,,,,6743bffeaf2a2edbc2dad972,66a626ef09d4e21e1a8894ec,6735ece55cbfcde41ededb9d,2024-11-14_13h29.55.611,Tarea de género gramatical,2024.2.2,Win32,58.82352941,,,,,,,,,,,,,,,,,,,,,,,,352.372,353.649,a,1,[],[],[],[],[],[],[],0.601,1,353.649,354.147,,,,,,406,MAS,AGR,150,premio,el,l,0.601,,354.147,354.148,0.798888889,-0.471111111,0,0,0,,0,75,75,405,1,,,,
,,,,,,6743bffeaf2a2edbc2dad972,66a626ef09d4e21e1a8894ec,6735ece55cbfcde41ededb9d,2024-11-14_13h29.55.611,Tarea de género gramatical,2024.2.2,Win32,58.82352941,,,,,,,,,,,,,,,,,,,,,,,,354.15,355.662,a,1,[],[],[],[],[],[],[],0.833,1,355.663,356.162,,,,,,70,MAS,AGR,150,palo,el,l,0.833,,356.162,356.162,0.798888889,-0.471111111,0,0,0,,0,76,76,69,1,,,,
,,,,,,6743bffeaf2a2edbc2dad972,66a626ef09d4e21e1a8894ec,6735ece55cbfcde41ededb9d,2024-11-14_13h29.55.611,Tarea de género gramatical,2024.2.2,Win32,58.82352941,,,,,,,,,,,,,,,,,,,,,,,,356.164,358.193,a,1,[],[],[],[],[],[],[],1.349,1,358.193,358.691,,,,,,28,MAS,AGR,150,club,el,l,1.349,,358.691,358.691,0.798888889,-0.471111111,0,0,0,,0,77,77,27,1,,,,
,,,,,,6743bffeaf2a2edbc2dad972,66a626ef09d4e21e1a8894ec,6735ece55cbfcde41ededb9d,2024-11-14_13h29.55.611,Tarea de género gramatical,2024.2.2,Win32,58.82352941,,,,,,,,,,,,,,,,,,,,,,,,358.694,360.024,a,1,[],[],[],[],[],[],[],0.65,1,360.025,360.523,,,,,,142,MAS,AGR,150,lodo,el,l,0.65,,360.526,360.527,0.798888889,-0.471111111,0,0,0,,0,78,78,141,1,,,,
,,,,,,6743bffeaf2a2edbc2dad972,66a626ef09d4e21e1a8894ec,6735ece55cbfcde41ededb9d,2024-11-14_13h29.55.611,Tarea de género gramatical,2024.2.2,Win32,58.82352941,,,,,,,,,,,,,,,,,,,,,,,,360.529,361.756,a,1,[],[],[],[],[],[],[],0.551,1,361.756,362.255,,,,,,270,MAS,DIS,150,queso,la,l,0.551,,362.255,362.255,0.798888889,-0.471111111,0,0,0,,0,79,79,269,1,,,,
,,,,,,6743bffeaf2a2edbc2dad972,66a626ef09d4e21e1a8894ec,6735ece55cbfcde41ededb9d,2024-11-14_13h29.55.611,Tarea de género gramatical,2024.2.2,Win32,58.82352941,,,,,,,,,,,,,,,,,,,,,,,,362.257,363.487,l,1,[],[],[],[],[],[],[],0.551,1,363.488,363.986,,,,,,242,FEM,CON,150,pizza,,a,0.551,,363.986,363.986,0.798888889,-0.471111111,0,0,0,,0,80,80,241,1,,,,
,,,,,,6743bffeaf2a2edbc2dad972,66a626ef09d4e21e1a8894ec,6735ece55cbfcde41ededb9d,2024-11-14_13h29.55.611,Tarea de género gramatical,2024.2.2,Win32,58.82352941,,,,,,,,,,,,,,,,,,,,,,,,363.989,365.585,a,1,[],[],[],[],[],[],[],0.916,1,365.585,366.084,,,,,,89,MAS,CON,150,maíz,,l,0.916,,366.084,366.084,0.798888889,-0.471111111,0,0,0,,0,81,81,88,1,,,,
,,,,,,6743bffeaf2a2edbc2dad972,66a626ef09d4e21e1a8894ec,6735ece55cbfcde41ededb9d,2024-11-14_13h29.55.611,Tarea de género gramatical,2024.2.2,Win32,58.82352941,,,,,,,,,,,,,,,,,,,,,,,,366.084,367.4,l,1,[],[],[],[],[],[],[],0.634,1,367.4,367.899,,,,,,320,FEM,CON,150,fiesta,,a,0.634,,367.899,367.899,0.798888889,-0.471111111,0,0,0,,0,82,82,319,1,,,,
,,,,,,6743bffeaf2a2edbc2dad972,66a626ef09d4e21e1a8894ec,6735ece55cbfcde41ededb9d,2024-11-14_13h29.55.611,Tarea de género gramatical,2024.2.2,Win32,58.82352941,,,,,,,,,,,,,,,,,,,,,,,,367.901,369.566,a,1,[],[],[],[],[],[],[],0.984,1,369.567,370.062,,,,,,424,MAS,AGR,150,rastro,el,l,0.984,,370.063,370.063,0.798888889,-0.471111111,0,0,0,,0,83,83,423,1,,,,
,,,,,,6743bffeaf2a2edbc2dad972,66a626ef09d4e21e1a8894ec,6735ece55cbfcde41ededb9d,2024-11-14_13h29.55.611,Tarea de género gramatical,2024.2.2,Win32,58.82352941,,,,,,,,,,,,,,,,,,,,,,,,370.063,371.323,l,1,[],[],[],[],[],[],[],0.593,1,371.323,371.824,,,,,,115,FEM,AGR,150,seda,la,a,0.593,,371.824,371.826,0.798888889,-0.471111111,0,0,0,,0,84,84,114,1,,,,
,,,,,,6743bffeaf2a2edbc2dad972,66a626ef09d4e21e1a8894ec,6735ece55cbfcde41ededb9d,2024-11-14_13h29.55.611,Tarea de género gramatical,2024.2.2,Win32,58.82352941,,,,,,,,,,,,,,,,,,,,,,,,371.829,372.909,l,1,[],[],[],[],[],[],[],0.416,1,372.909,373.402,,,,,,153,FEM,DIS,150,mujer,el,a,0.416,,373.402,373.402,0.798888889,-0.471111111,0,0,0,,0,85,85,152,1,,,,
,,,,,,6743bffeaf2a2edbc2dad972,66a626ef09d4e21e1a8894ec,6735ece55cbfcde41ededb9d,2024-11-14_13h29.55.611,Tarea de género gramatical,2024.2.2,Win32,58.82352941,,,,,,,,,,,,,,,,,,,,,,,,373.404,374.624,a,1,[],[],[],[],[],[],[],0.55,1,374.624,375.117,,,,,,288,MAS,DIS,150,grado,la,l,0.55,,375.117,375.117,0.798888889,-0.471111111,0,0,0,,0,86,86,287,1,,,,
,,,,,,6743bffeaf2a2edbc2dad972,66a626ef09d4e21e1a8894ec,6735ece55cbfcde41ededb9d,2024-11-14_13h29.55.611,Tarea de género gramatical,2024.2.2,Win32,58.82352941,,,,,,,,,,,,,,,,,,,,,,,,375.119,376.599,l,0,[],[],[],[],[],[],[],0.8,0,376.6,377.098,,,,,,136,MAS,AGR,150,vago,el,l,0.8,,377.1,377.102,0.798888889,-0.471111111,0,0,0,,0,87,87,135,1,,,,
,,,,,,6743bffeaf2a2edbc2dad972,66a626ef09d4e21e1a8894ec,6735ece55cbfcde41ededb9d,2024-11-14_13h29.55.611,Tarea de género gramatical,2024.2.2,Win32,58.82352941,,,,,,,,,,,,,,,,,,,,,,,,377.103,379.147,a,1,[],[],[],[],[],[],[],1.368,1,379.149,379.646,,,,,,41,MAS,CON,150,bote,,l,1.368,,379.646,379.647,0.798888889,-0.471111111,0,0,0,,0,88,88,40,1,,,,
,,,,,,6743bffeaf2a2edbc2dad972,66a626ef09d4e21e1a8894ec,6735ece55cbfcde41ededb9d,2024-11-14_13h29.55.611,Tarea de género gramatical,2024.2.2,Win32,58.82352941,,,,,,,,,,,,,,,,,,,,,,,,379.651,380.876,l,1,[],[],[],[],[],[],[],0.555,1,380.877,381.376,,,,,,410,FEM,CON,150,piedad,,a,0.555,,381.376,381.376,0.798888889,-0.471111111,0,0,0,,0,89,89,409,1,,,,
,,,,,,6743bffeaf2a2edbc2dad972,66a626ef09d4e21e1a8894ec,6735ece55cbfcde41ededb9d,2024-11-14_13h29.55.611,Tarea de género gramatical,2024.2.2,Win32,58.82352941,,,,,,,,,,,,,,,,,,,,,,,,381.378,383.141,a,1,[],[],[],[],[],[],[],1.082,1,383.141,383.641,,,,,,59,MAS,CON,150,lobo,,l,1.082,,383.641,383.641,0.798888889,-0.471111111,0,0,0,,0,90,90,58,1,,,,
,,,,,,6743bffeaf2a2edbc2dad972,66a626ef09d4e21e1a8894ec,6735ece55cbfcde41ededb9d,2024-11-14_13h29.55.611,Tarea de género gramatical,2024.2.2,Win32,58.82352941,,,,,,,,,,,,,,,,,,,,,,,,383.642,385.089,l,1,[],[],[],[],[],[],[],0.769,1,385.089,385.589,,,,,,391,FEM,AGR,150,altura,la,a,0.769,,385.589,385.589,0.798888889,-0.471111111,0,0,0,,0,91,91,390,1,,,,
,,,,,,6743bffeaf2a2edbc2dad972,66a626ef09d4e21e1a8894ec,6735ece55cbfcde41ededb9d,2024-11-14_13h29.55.611,Tarea de género gramatical,2024.2.2,Win32,58.82352941,,,,,,,,,,,,,,,,,,,,,,,,385.592,387.004,l,1,[],[],[],[],[],[],[],0.729,1,387.004,387.503,,,,,,326,FEM,CON,150,música,,a,0.729,,387.505,387.506,0.798888889,-0.471111111,0,0,0,,0,92,92,325,1,,,,
,,,,,,6743bffeaf2a2edbc2dad972,66a626ef09d4e21e1a8894ec,6735ece55cbfcde41ededb9d,2024-11-14_13h29.55.611,Tarea de género gramatical,2024.2.2,Win32,58.82352941,,,,,,,,,,,,,,,,,,,,,,,,387.508,389.1,l,1,[],[],[],[],[],[],[],0.918,1,389.1,389.6,,,,,,279,FEM,DIS,150,selva,el,a,0.918,,389.6,389.6,0.798888889,-0.471111111,0,0,0,,0,93,93,278,1,,,,
,,,,,,6743bffeaf2a2edbc2dad972,66a626ef09d4e21e1a8894ec,6735ece55cbfcde41ededb9d,2024-11-14_13h29.55.611,Tarea de género gramatical,2024.2.2,Win32,58.82352941,,,,,,,,,,,,,,,,,,,,,,,,389.602,390.849,l,1,[],[],[],[],[],[],[],0.567,1,390.849,391.348,,,,,,44,FEM,CON,150,zona,,a,0.567,,391.348,391.348,0.798888889,-0.471111111,0,0,0,,0,94,94,43,1,,,,
,,,,,,6743bffeaf2a2edbc2dad972,66a626ef09d4e21e1a8894ec,6735ece55cbfcde41ededb9d,2024-11-14_13h29.55.611,Tarea de género gramatical,2024.2.2,Win32,58.82352941,,,,,,,,,,,,,,,,,,,,,,,,391.35,392.614,a,1,[],[],[],[],[],[],[],0.592,1,392.614,393.111,,,,,,329,MAS,CON,150,futuro,,l,0.592,,393.111,393.111,0.798888889,-0.471111111,0,0,0,,0,95,95,328,1,,,,
,,,,,,6743bffeaf2a2edbc2dad972,66a626ef09d4e21e1a8894ec,6735ece55cbfcde41ededb9d,2024-11-14_13h29.55.611,Tarea de género gramatical,2024.2.2,Win32,58.82352941,,,,,,,,,,,,,,,,,,,,,,,,393.115,394.544,l,1,[],[],[],[],[],[],[],0.749,1,394.544,395.044,,,,,,367,FEM,AGR,150,teoría,la,a,0.749,,395.046,395.047,0.798888889,-0.471111111,0,0,0,,0,96,96,366,1,,,,
,,,,,,6743bffeaf2a2edbc2dad972,66a626ef09d4e21e1a8894ec,6735ece55cbfcde41ededb9d,2024-11-14_13h29.55.611,Tarea de género gramatical,2024.2.2,Win32,58.82352941,,,,,,,,,,,,,,,,,,,,,,,,395.048,396.393,a,1,[],[],[],[],[],[],[],0.672,1,396.393,396.891,,,,,,287,MAS,CON,150,plato,,l,0.672,,396.891,396.891,0.798888889,-0.471111111,0,0,0,,0,97,97,286,1,,,,
,,,,,,6743bffeaf2a2edbc2dad972,66a626ef09d4e21e1a8894ec,6735ece55cbfcde41ededb9d,2024-11-14_13h29.55.611,Tarea de género gramatical,2024.2.2,Win32,58.82352941,,,,,,,,,,,,,,,,,,,,,,,,396.893,398.325,a,1,[],[],[],[],[],[],[],0.761,1,398.325,398.823,,,,,,268,MAS,AGR,150,truco,el,l,0.761,,398.823,398.823,0.798888889,-0.471111111,0,0,0,,0,98,98,267,1,,,,
,,,,,,6743bffeaf2a2edbc2dad972,66a626ef09d4e21e1a8894ec,6735ece55cbfcde41ededb9d,2024-11-14_13h29.55.611,Tarea de género gramatical,2024.2.2,Win32,58.82352941,,,,,,,,,,,,,,,,,,,,,,,,398.826,400.055,a,1,[],[],[],[],[],[],[],0.556,1,400.055,400.554,,,,,,227,MAS,CON,150,vuelo,,l,0.556,,400.554,400.555,0.798888889,-0.471111111,0,0,0,,0,99,99,226,1,,,,
,,,,,,6743bffeaf2a2edbc2dad972,66a626ef09d4e21e1a8894ec,6735ece55cbfcde41ededb9d,2024-11-14_13h29.55.611,Tarea de género gramatical,2024.2.2,Win32,58.82352941,,,,,,,,,,,,,,,,,,,,,,,,400.557,401.852,l,1,[],[],[],[],[],[],[],0.62,1,401.852,402.351,,,,,,441,FEM,DIS,150,medida,el,a,0.62,,402.351,402.351,0.798888889,-0.471111111,0,0,0,,0,100,100,440,1,,,,
,,,,,,6743bffeaf2a2edbc2dad972,66a626ef09d4e21e1a8894ec,6735ece55cbfcde41ededb9d,2024-11-14_13h29.55.611,Tarea de género gramatical,2024.2.2,Win32,58.82352941,,,,,,,,,,,,,,,,,,,,,,,,402.354,403.804,a,1,[],[],[],[],[],[],[],0.779,1,403.805,404.3,,,,,,118,MAS,AGR,150,baúl,el,l,0.779,,404.302,404.303,0.798888889,-0.471111111,0,0,0,,0,101,101,117,1,,,,
,,,,,,6743bffeaf2a2edbc2dad972,66a626ef09d4e21e1a8894ec,6735ece55cbfcde41ededb9d,2024-11-14_13h29.55.611,Tarea de género gramatical,2024.2.2,Win32,58.82352941,,,,,,,,,,,,,,,,,,,,,,,,404.305,405.519,l,1,[],[],[],[],[],[],[],0.545,1,405.519,406.015,,,,,,266,FEM,CON,150,jaula,,a,0.545,,406.015,406.015,0.798888889,-0.471111111,0,0,0,,0,102,102,265,1,,,,
,,,,,,6743bffeaf2a2edbc2dad972,66a626ef09d4e21e1a8894ec,6735ece55cbfcde41ededb9d,2024-11-14_13h29.55.611,Tarea de género gramatical,2024.2.2,Win32,58.82352941,,,,,,,,,,,,,,,,,,,,,,,,406.017,407.463,a,1,[],[],[],[],[],[],[],0.765,1,407.463,407.964,,,,,,71,MAS,CON,150,pozo,,l,0.765,,407.964,407.964,0.798888889,-0.471111111,0,0,0,,0,103,103,70,1,,,,
,,,,,,6743bffeaf2a2edbc2dad972,66a626ef09d4e21e1a8894ec,6735ece55cbfcde41ededb9d,2024-11-14_13h29.55.611,Tarea de género gramatical,2024.2.2,Win32,58.82352941,,,,,,,,,,,,,,,,,,,,,,,,407.967,409.127,a,1,[],[],[],[],[],[],[],0.484,1,409.128,409.628,,,,,,107,MAS,CON,150,cubo,,l,0.484,,409.628,409.628,0.798888889,-0.471111111,0,0,0,,0,104,104,106,1,,,,
,,,,,,6743bffeaf2a2edbc2dad972,66a626ef09d4e21e1a8894ec,6735ece55cbfcde41ededb9d,2024-11-14_13h29.55.611,Tarea de género gramatical,2024.2.2,Win32,58.82352941,,,,,,,,,,,,,,,,,,,,,,,,409.629,410.859,a,1,[],[],[],[],[],[],[],0.552,1,410.859,411.358,,,,,,323,MAS,CON,150,marido,,l,0.552,,411.361,411.362,0.798888889,-0.471111111,0,0,0,,0,105,105,322,1,,,,
,,,,,,6743bffeaf2a2edbc2dad972,66a626ef09d4e21e1a8894ec,6735ece55cbfcde41ededb9d,2024-11-14_13h29.55.611,Tarea de género gramatical,2024.2.2,Win32,58.82352941,,,,,,,,,,,,,,,,,,,,,,,,411.363,412.723,l,1,[],[],[],[],[],[],[],0.685,1,412.723,413.223,,,,,,321,FEM,DIS,150,comida,el,a,0.685,,413.223,413.224,0.798888889,-0.471111111,0,0,0,,0,106,106,320,1,,,,
,,,,,,6743bffeaf2a2edbc2dad972,66a626ef09d4e21e1a8894ec,6735ece55cbfcde41ededb9d,2024-11-14_13h29.55.611,Tarea de género gramatical,2024.2.2,Win32,58.82352941,,,,,,,,,,,,,,,,,,,,,,,,413.226,414.955,a,1,[],[],[],[],[],[],[],1.05,1,414.955,415.453,,,,,,414,MAS,DIS,150,sótano,la,l,1.05,,415.453,415.454,0.798888889,-0.471111111,0,0,0,,0,107,107,413,1,,,,
,,,,,,6743bffeaf2a2edbc2dad972,66a626ef09d4e21e1a8894ec,6735ece55cbfcde41ededb9d,2024-11-14_13h29.55.611,Tarea de género gramatical,2024.2.2,Win32,58.82352941,,,,,,,,,,,,,,,,,,,,,,,,415.457,416.836,a,1,[],[],[],[],[],[],[],0.703,1,416.836,417.334,,,,,,5,MAS,CON,150,tipo,,l,0.703,,417.334,417.335,0.798888889,-0.471111111,0,0,0,,0,108,108,4,1,,,,
,,,,,,6743bffeaf2a2edbc2dad972,66a626ef09d4e21e1a8894ec,6735ece55cbfcde41ededb9d,2024-11-14_13h29.55.611,Tarea de género gramatical,2024.2.2,Win32,58.82352941,,,,,,,,,,,,,,,,,,,,,,,,417.336,418.533,a,1,[],[],[],[],[],[],[],0.524,1,418.533,419.032,,,,,,166,MAS,AGR,150,coche,el,l,0.524,,419.032,419.032,0.798888889,-0.471111111,0,0,0,,0,109,109,165,1,,,,
,,,,,,6743bffeaf2a2edbc2dad972,66a626ef09d4e21e1a8894ec,6735ece55cbfcde41ededb9d,2024-11-14_13h29.55.611,Tarea de género gramatical,2024.2.2,Win32,58.82352941,,,,,,,,,,,,,,,,,,,,,,,,419.032,420.398,l,1,[],[],[],[],[],[],[],0.687,1,420.398,420.897,,,,,,363,FEM,DIS,150,unidad,el,a,0.687,,420.899,420.9,0.798888889,-0.471111111,0,0,0,,0,110,110,362,1,,,,
,,,,,,6743bffeaf2a2edbc2dad972,66a626ef09d4e21e1a8894ec,6735ece55cbfcde41ededb9d,2024-11-14_13h29.55.611,Tarea de género gramatical,2024.2.2,Win32,58.82352941,,,,,,,,,,,,,,,,,,,,,,,,420.902,422.878,l,1,[],[],[],[],[],[],[],1.297,1,422.878,423.377,,,,,,362,FEM,CON,150,fuente,,a,1.297,,423.377,423.377,0.798888889,-0.471111111,0,0,0,,0,111,111,361,1,,,,
,,,,,,6743bffeaf2a2edbc2dad972,66a626ef09d4e21e1a8894ec,6735ece55cbfcde41ededb9d,2024-11-14_13h29.55.611,Tarea de género gramatical,2024.2.2,Win32,58.82352941,,,,,,,,,,,,,,,,,,,,,,,,423.379,424.577,l,1,[],[],[],[],[],[],[],0.52,1,424.577,425.075,,,,,,415,FEM,AGR,150,cabina,la,a,0.52,,425.075,425.076,0.798888889,-0.471111111,0,0,0,,0,112,112,414,1,,,,
,,,,,,6743bffeaf2a2edbc2dad972,66a626ef09d4e21e1a8894ec,6735ece55cbfcde41ededb9d,2024-11-14_13h29.55.611,Tarea de género gramatical,2024.2.2,Win32,58.82352941,,,,,,,,,,,,,,,,,,,,,,,,425.078,426.357,l,1,[],[],[],[],[],[],[],0.605,1,426.357,426.857,,,,,,86,FEM,CON,150,cruz,,a,0.605,,426.858,426.859,0.798888889,-0.471111111,0,0,0,,0,113,113,85,1,,,,
,,,,,,6743bffeaf2a2edbc2dad972,66a626ef09d4e21e1a8894ec,6735ece55cbfcde41ededb9d,2024-11-14_13h29.55.611,Tarea de género gramatical,2024.2.2,Win32,58.82352941,,,,,,,,,,,,,,,,,,,,,,,,426.861,428.505,a,1,[],[],[],[],[],[],[],0.973,1,428.505,429.005,,,,,,35,MAS,CON,150,taxi,,l,0.973,,429.007,429.009,0.798888889,-0.471111111,0,0,0,,0,114,114,34,1,,,,
,,,,,,6743bffeaf2a2edbc2dad972,66a626ef09d4e21e1a8894ec,6735ece55cbfcde41ededb9d,2024-11-14_13h29.55.611,Tarea de género gramatical,2024.2.2,Win32,58.82352941,,,,,,,,,,,,,,,,,,,,,,,,429.011,430.354,l,1,[],[],[],[],[],[],[],0.675,1,430.354,430.853,,,,,,93,FEM,DIS,150,lata,el,a,0.675,,430.853,430.853,0.798888889,-0.471111111,0,0,0,,0,115,115,92,1,,,,
,,,,,,6743bffeaf2a2edbc2dad972,66a626ef09d4e21e1a8894ec,6735ece55cbfcde41ededb9d,2024-11-14_13h29.55.611,Tarea de género gramatical,2024.2.2,Win32,58.82352941,,,,,,,,,,,,,,,,,,,,,,,,430.856,432.451,a,1,[],[],[],[],[],[],[],0.924,1,432.451,432.95,,,,,,418,MAS,AGR,150,pájaro,el,l,0.924,,432.95,432.95,0.798888889,-0.471111111,0,0,0,,0,116,116,417,1,,,,
,,,,,,6743bffeaf2a2edbc2dad972,66a626ef09d4e21e1a8894ec,6735ece55cbfcde41ededb9d,2024-11-14_13h29.55.611,Tarea de género gramatical,2024.2.2,Win32,58.82352941,,,,,,,,,,,,,,,,,,,,,,,,432.952,434.915,a,1,[],[],[],[],[],[],[],1.282,1,434.915,435.413,,,,,,341,MAS,CON,150,precio,,l,1.282,,435.413,435.413,0.798888889,-0.471111111,0,0,0,,0,117,117,340,1,,,,
,,,,,,6743bffeaf2a2edbc2dad972,66a626ef09d4e21e1a8894ec,6735ece55cbfcde41ededb9d,2024-11-14_13h29.55.611,Tarea de género gramatical,2024.2.2,Win32,58.82352941,,,,,,,,,,,,,,,,,,,,,,,,435.415,436.764,a,1,[],[],[],[],[],[],[],0.678,1,436.764,437.262,,,,,,64,MAS,AGR,150,saco,el,l,0.678,,437.262,437.262,0.798888889,-0.471111111,0,0,0,,0,118,118,63,1,,,,
,,,,,,6743bffeaf2a2edbc2dad972,66a626ef09d4e21e1a8894ec,6735ece55cbfcde41ededb9d,2024-11-14_13h29.55.611,Tarea de género gramatical,2024.2.2,Win32,58.82352941,,,,,,,,,,,,,,,,,,,,,,,,437.265,438.427,a,1,[],[],[],[],[],[],[],0.489,1,438.427,438.926,,,,,,252,MAS,DIS,150,viejo,la,l,0.489,,438.928,438.929,0.798888889,-0.471111111,0,0,0,,0,119,119,251,1,,,,
,,,,,,6743bffeaf2a2edbc2dad972,66a626ef09d4e21e1a8894ec,6735ece55cbfcde41ededb9d,2024-11-14_13h29.55.611,Tarea de género gramatical,2024.2.2,Win32,58.82352941,,,,,,,,,,,,,,,,,,,,,,,,438.931,440.075,l,1,[],[],[],[],[],[],[],0.473,1,440.075,440.574,,,,,,404,FEM,CON,150,gloria,,a,0.473,,440.574,440.574,0.798888889,-0.471111111,0,0,0,,0,120,120,403,1,,,,
,,,,,,6743bffeaf2a2edbc2dad972,66a626ef09d4e21e1a8894ec,6735ece55cbfcde41ededb9d,2024-11-14_13h29.55.611,Tarea de género gramatical,2024.2.2,Win32,58.82352941,,,,,,,,,,,,,,,,,,,,,,,,440.576,441.824,a,1,[],[],[],[],[],[],[],0.566,1,441.824,442.322,,,,,,449,MAS,CON,150,payaso,,l,0.566,,442.322,442.322,0.798888889,-0.471111111,0,0,0,,0,121,121,448,1,,,,
,,,,,,6743bffeaf2a2edbc2dad972,66a626ef09d4e21e1a8894ec,6735ece55cbfcde41ededb9d,2024-11-14_13h29.55.611,Tarea de género gramatical,2024.2.2,Win32,58.82352941,,,,,,,,,,,,,,,,,,,,,,,,442.325,443.987,a,1,[],[],[],[],[],[],[],0.983,1,443.987,444.487,,,,,,53,MAS,CON,150,vaso,,l,0.983,,444.487,444.487,0.798888889,-0.471111111,0,0,0,,0,122,122,52,1,,,,
,,,,,,6743bffeaf2a2edbc2dad972,66a626ef09d4e21e1a8894ec,6735ece55cbfcde41ededb9d,2024-11-14_13h29.55.611,Tarea de género gramatical,2024.2.2,Win32,58.82352941,,,,,,,,,,,,,,,,,,,,,,,,444.489,445.868,a,1,[],[],[],[],[],[],[],0.698,1,445.868,446.368,,,,,,370,MAS,AGR,150,seguro,el,l,0.698,,446.371,446.372,0.798888889,-0.471111111,0,0,0,,0,123,123,369,1,,,,
,,,,,,6743bffeaf2a2edbc2dad972,66a626ef09d4e21e1a8894ec,6735ece55cbfcde41ededb9d,2024-11-14_13h29.55.611,Tarea de género gramatical,2024.2.2,Win32,58.82352941,,,,,,,,,,,,,,,,,,,,,,,,446.374,447.554,a,1,[],[],[],[],[],[],[],0.502,1,447.554,448.05,,,,,,101,MAS,CON,150,giro,,l,0.502,,448.05,448.05,0.798888889,-0.471111111,0,0,0,,0,124,124,100,1,,,,
,,,,,,6743bffeaf2a2edbc2dad972,66a626ef09d4e21e1a8894ec,6735ece55cbfcde41ededb9d,2024-11-14_13h29.55.611,Tarea de género gramatical,2024.2.2,Win32,58.82352941,,,,,,,,,,,,,,,,,,,,,,,,448.051,449.314,l,1,[],[],[],[],[],[],[],0.584,1,449.314,449.814,,,,,,333,FEM,DIS,150,locura,el,a,0.584,,449.814,449.814,0.798888889,-0.471111111,0,0,0,,0,125,125,332,1,,,,
,,,,,,6743bffeaf2a2edbc2dad972,66a626ef09d4e21e1a8894ec,6735ece55cbfcde41ededb9d,2024-11-14_13h29.55.611,Tarea de género gramatical,2024.2.2,Win32,58.82352941,,,,,,,,,,,,,,,,,,,,,,,,449.815,451.129,a,1,[],[],[],[],[],[],[],0.637,1,451.13,451.629,,,,,,191,MAS,CON,150,dolor,,l,0.637,,451.629,451.629,0.798888889,-0.471111111,0,0,0,,0,126,126,190,1,,,,
,,,,,,6743bffeaf2a2edbc2dad972,66a626ef09d4e21e1a8894ec,6735ece55cbfcde41ededb9d,2024-11-14_13h29.55.611,Tarea de género gramatical,2024.2.2,Win32,58.82352941,,,,,,,,,,,,,,,,,,,,,,,,451.63,452.812,a,1,[],[],[],[],[],[],[],0.51,1,452.812,453.309,,,,,,269,MAS,CON,150,primo,,l,0.51,,453.309,453.31,0.798888889,-0.471111111,0,0,0,,0,127,127,268,1,,,,
,,,,,,6743bffeaf2a2edbc2dad972,66a626ef09d4e21e1a8894ec,6735ece55cbfcde41ededb9d,2024-11-14_13h29.55.611,Tarea de género gramatical,2024.2.2,Win32,58.82352941,,,,,,,,,,,,,,,,,,,,,,,,453.312,454.858,a,1,[],[],[],[],[],[],[],0.867,1,454.858,455.358,,,,,,120,MAS,DIS,150,puño,la,l,0.867,,455.36,455.361,0.798888889,-0.471111111,0,0,0,,0,128,128,119,1,,,,
,,,,,,6743bffeaf2a2edbc2dad972,66a626ef09d4e21e1a8894ec,6735ece55cbfcde41ededb9d,2024-11-14_13h29.55.611,Tarea de género gramatical,2024.2.2,Win32,58.82352941,,,,,,,,,,,,,,,,,,,,,,,,455.362,456.572,a,1,[],[],[],[],[],[],[],0.533,1,456.573,457.073,,,,,,40,MAS,AGR,150,dios,el,l,0.533,,457.073,457.073,0.798888889,-0.471111111,0,0,0,,0,129,129,39,1,,,,
,,,,,,6743bffeaf2a2edbc2dad972,66a626ef09d4e21e1a8894ec,6735ece55cbfcde41ededb9d,2024-11-14_13h29.55.611,Tarea de género gramatical,2024.2.2,Win32,58.82352941,,,,,,,,,,,,,,,,,,,,,,,,457.074,458.438,l,1,[],[],[],[],[],[],[],0.684,1,458.438,458.937,,,,,,69,FEM,DIS,150,rata,el,a,0.684,,458.937,458.937,0.798888889,-0.471111111,0,0,0,,0,130,130,68,1,,,,
,,,,,,6743bffeaf2a2edbc2dad972,66a626ef09d4e21e1a8894ec,6735ece55cbfcde41ededb9d,2024-11-14_13h29.55.611,Tarea de género gramatical,2024.2.2,Win32,58.82352941,,,,,,,,,,,,,,,,,,,,,,,,458.938,460.286,l,1,[],[],[],[],[],[],[],0.67,1,460.286,460.785,,,,,,397,FEM,AGR,150,cuerda,la,a,0.67,,460.785,460.785,0.798888889,-0.471111111,0,0,0,,0,131,131,396,1,,,,
,,,,,,6743bffeaf2a2edbc2dad972,66a626ef09d4e21e1a8894ec,6735ece55cbfcde41ededb9d,2024-11-14_13h29.55.611,Tarea de género gramatical,2024.2.2,Win32,58.82352941,,,,,,,,,,,,,,,,,,,,,,,,460.787,461.986,a,1,[],[],[],[],[],[],[],0.529,1,461.986,462.482,,,,,,209,MAS,CON,150,banco,,l,0.529,,462.484,462.486,0.798888889,-0.471111111,0,0,0,,0,132,132,208,1,,,,
,,,,,,6743bffeaf2a2edbc2dad972,66a626ef09d4e21e1a8894ec,6735ece55cbfcde41ededb9d,2024-11-14_13h29.55.611,Tarea de género gramatical,2024.2.2,Win32,58.82352941,,,,,,,,,,,,,,,,,,,,,,,,462.487,464.447,a,1,[],[],[],[],[],[],[],1.289,1,464.447,464.947,,,,,,275,MAS,CON,150,disco,,l,1.289,,464.947,464.947,0.798888889,-0.471111111,0,0,0,,0,133,133,274,1,,,,
,,,,,,6743bffeaf2a2edbc2dad972,66a626ef09d4e21e1a8894ec,6735ece55cbfcde41ededb9d,2024-11-14_13h29.55.611,Tarea de género gramatical,2024.2.2,Win32,58.82352941,,,,,,,,,,,,,,,,,,,,,,,,464.948,466.778,l,1,[],[],[],[],[],[],[],1.152,1,466.778,467.277,,,,,,1,FEM,AGR,150,casa,la,a,1.152,,467.277,467.277,0.798888889,-0.471111111,0,0,0,,0,134,134,0,1,,,,
,,,,,,6743bffeaf2a2edbc2dad972,66a626ef09d4e21e1a8894ec,6735ece55cbfcde41ededb9d,2024-11-14_13h29.55.611,Tarea de género gramatical,2024.2.2,Win32,58.82352941,,,,,,,,,,,,,,,,,,,,,,,,467.279,468.558,a,1,[],[],[],[],[],[],[],0.604,1,468.559,469.058,,,,,,154,MAS,AGR,150,padre,el,l,0.604,,469.058,469.058,0.798888889,-0.471111111,0,0,0,,0,135,135,153,1,,,,
,,,,,,6743bffeaf2a2edbc2dad972,66a626ef09d4e21e1a8894ec,6735ece55cbfcde41ededb9d,2024-11-14_13h29.55.611,Tarea de género gramatical,2024.2.2,Win32,58.82352941,,,,,,,,,,,,,,,,,,,,,,,,469.06,470.257,a,1,[],[],[],[],[],[],[],0.517,1,470.257,470.756,,,,,,179,MAS,CON,150,viaje,,l,0.517,,470.756,470.756,0.798888889,-0.471111111,0,0,0,,0,136,136,178,1,,,,
,,,,,,6743bffeaf2a2edbc2dad972,66a626ef09d4e21e1a8894ec,6735ece55cbfcde41ededb9d,2024-11-14_13h29.55.611,Tarea de género gramatical,2024.2.2,Win32,58.82352941,,,,,,,,,,,,,,,,,,,,,,,,470.758,472.472,a,1,[],[],[],[],[],[],[],1.039,1,472.472,472.97,,,,,,336,MAS,DIS,150,crimen,la,l,1.039,,472.973,472.974,0.798888889,-0.471111111,0,0,0,,0,137,137,335,1,,,,
,,,,,,6743bffeaf2a2edbc2dad972,66a626ef09d4e21e1a8894ec,6735ece55cbfcde41ededb9d,2024-11-14_13h29.55.611,Tarea de género gramatical,2024.2.2,Win32,58.82352941,,,,,,,,,,,,,,,,,,,,,,,,472.976,474.369,l,1,[],[],[],[],[],[],[],0.716,1,474.369,474.869,,,,,,337,FEM,AGR,150,escena,la,a,0.716,,474.869,474.869,0.798888889,-0.471111111,0,0,0,,0,138,138,336,1,,,,
,,,,,,6743bffeaf2a2edbc2dad972,66a626ef09d4e21e1a8894ec,6735ece55cbfcde41ededb9d,2024-11-14_13h29.55.611,Tarea de género gramatical,2024.2.2,Win32,58.82352941,,,,,,,,,,,,,,,,,,,,,,,,474.87,476.666,l,1,[],[],[],[],[],[],[],1.118,1,476.667,477.165,,,,,,75,FEM,DIS,150,caza,el,a,1.118,,477.166,477.166,0.798888889,-0.471111111,0,0,0,,0,139,139,74,1,,,,
,,,,,,6743bffeaf2a2edbc2dad972,66a626ef09d4e21e1a8894ec,6735ece55cbfcde41ededb9d,2024-11-14_13h29.55.611,Tarea de género gramatical,2024.2.2,Win32,58.82352941,,,,,,,,,,,,,,,,,,,,,,,,477.167,478.996,a,1,[],[],[],[],[],[],[],1.152,1,478.996,479.496,,,,,,304,MAS,AGR,150,tiempo,el,l,1.152,,479.496,479.496,0.798888889,-0.471111111,0,0,0,,0,140,140,303,1,,,,
,,,,,,6743bffeaf2a2edbc2dad972,66a626ef09d4e21e1a8894ec,6735ece55cbfcde41ededb9d,2024-11-14_13h29.55.611,Tarea de género gramatical,2024.2.2,Win32,58.82352941,,,,,,,,,,,,,,,,,,,,,,,,479.497,481.045,a,1,[],[],[],[],[],[],[],0.876,1,481.045,481.544,,,,,,18,MAS,DIS,150,tren,la,l,0.876,,481.546,481.548,0.798888889,-0.471111111,0,0,0,,0,141,141,17,1,,,,
,,,,,,6743bffeaf2a2edbc2dad972,66a626ef09d4e21e1a8894ec,6735ece55cbfcde41ededb9d,2024-11-14_13h29.55.611,Tarea de género gramatical,2024.2.2,Win32,58.82352941,,,,,,,,,,,,,,,,,,,,,,,,481.549,482.775,a,1,[],[],[],[],[],[],[],0.551,1,482.776,483.275,,,,,,167,MAS,CON,150,juego,,l,0.551,,483.275,483.275,0.798888889,-0.471111111,0,0,0,,0,142,142,166,1,,,,
,,,,,,6743bffeaf2a2edbc2dad972,66a626ef09d4e21e1a8894ec,6735ece55cbfcde41ededb9d,2024-11-14_13h29.55.611,Tarea de género gramatical,2024.2.2,Win32,58.82352941,,,,,,,,,,,,,,,,,,,,,,,,483.277,484.574,l,1,[],[],[],[],[],[],[],0.621,1,484.574,485.073,,,,,,87,FEM,DIS,150,risa,el,a,0.621,,485.073,485.073,0.798888889,-0.471111111,0,0,0,,0,143,143,86,1,,,,
,,,,,,6743bffeaf2a2edbc2dad972,66a626ef09d4e21e1a8894ec,6735ece55cbfcde41ededb9d,2024-11-14_13h29.55.611,Tarea de género gramatical,2024.2.2,Win32,58.82352941,,,,,,,,,,,,,,,,,,,,,,,,485.075,486.638,a,1,[],[],[],[],[],[],[],0.884,1,486.638,487.138,,,,,,366,MAS,DIS,150,riesgo,la,l,0.884,,487.138,487.138,0.798888889,-0.471111111,0,0,0,,0,144,144,365,1,,,,
,,,,,,6743bffeaf2a2edbc2dad972,66a626ef09d4e21e1a8894ec,6735ece55cbfcde41ededb9d,2024-11-14_13h29.55.611,Tarea de género gramatical,2024.2.2,Win32,58.82352941,,,,,,,,,,,,,,,,,,,,,,,,487.14,488.453,a,1,[],[],[],[],[],[],[],0.64,1,488.453,488.952,,,,,,346,MAS,AGR,150,juicio,el,l,0.64,,488.952,488.953,0.798888889,-0.471111111,0,0,0,,0,145,145,345,1,,,,
,,,,,,6743bffeaf2a2edbc2dad972,66a626ef09d4e21e1a8894ec,6735ece55cbfcde41ededb9d,2024-11-14_13h29.55.611,Tarea de género gramatical,2024.2.2,Win32,58.82352941,,,,,,,,,,,,,,,,,,,,,,,,488.954,490.168,l,1,[],[],[],[],[],[],[],0.544,1,490.168,490.667,,,,,,62,FEM,CON,150,sopa,,a,0.544,,490.67,490.671,0.798888889,-0.471111111,0,0,0,,0,146,146,61,1,,,,
,,,,,,6743bffeaf2a2edbc2dad972,66a626ef09d4e21e1a8894ec,6735ece55cbfcde41ededb9d,2024-11-14_13h29.55.611,Tarea de género gramatical,2024.2.2,Win32,58.82352941,,,,,,,,,,,,,,,,,,,,,,,,490.673,491.915,l,1,[],[],[],[],[],[],[],0.567,1,491.915,492.415,,,,,,284,FEM,CON,150,fruta,,a,0.567,,492.415,492.415,0.798888889,-0.471111111,0,0,0,,0,147,147,283,1,,,,
,,,,,,6743bffeaf2a2edbc2dad972,66a626ef09d4e21e1a8894ec,6735ece55cbfcde41ededb9d,2024-11-14_13h29.55.611,Tarea de género gramatical,2024.2.2,Win32,58.82352941,,,,,,,,,,,,,,,,,,,,,,,,492.416,493.746,a,1,[],[],[],[],[],[],[],0.655,1,493.746,494.245,,,,,,246,MAS,DIS,150,humor,la,l,0.655,,494.245,494.246,0.798888889,-0.471111111,0,0,0,,0,148,148,245,1,,,,
,,,,,,6743bffeaf2a2edbc2dad972,66a626ef09d4e21e1a8894ec,6735ece55cbfcde41ededb9d,2024-11-14_13h29.55.611,Tarea de género gramatical,2024.2.2,Win32,58.82352941,,,,,,,,,,,,,,,,,,,,,,,,494.247,495.677,a,1,[],[],[],[],[],[],[],0.754,1,495.678,496.177,,,,,,400,MAS,AGR,150,barrio,el,l,0.754,,496.177,496.177,0.798888889,-0.471111111,0,0,0,,0,149,149,399,1,,,,
,,,,,,6743bffeaf2a2edbc2dad972,66a626ef09d4e21e1a8894ec,6735ece55cbfcde41ededb9d,2024-11-14_13h29.55.611,Tarea de género gramatical,2024.2.2,Win32,58.82352941,,,,,,,,,,,,,,,,,,,,,,,,496.179,497.675,l,1,[],[],[],[],[],[],[],0.816,1,497.675,498.175,,,,,,67,FEM,AGR,150,miel,la,a,0.816,,498.177,523.362,0.798888889,-0.471111111,0,0,0,space,0,150,150,66,1,25.164,,,
,,,,,,6743bffeaf2a2edbc2dad972,66a626ef09d4e21e1a8894ec,6735ece55cbfcde41ededb9d,2024-11-14_13h29.55.611,Tarea de género gramatical,2024.2.2,Win32,58.82352941,,,,,,,,,,,,,,,,,,,,,,,,523.364,524.527,l,1,[],[],[],[],[],[],[],0.483,1,524.528,525.027,,,,,,434,FEM,CON,150,corona,,a,0.483,,525.027,525.027,0.798888889,-0.471111111,0,0,0,,0,151,151,433,1,,,,
,,,,,,6743bffeaf2a2edbc2dad972,66a626ef09d4e21e1a8894ec,6735ece55cbfcde41ededb9d,2024-11-14_13h29.55.611,Tarea de género gramatical,2024.2.2,Win32,58.82352941,,,,,,,,,,,,,,,,,,,,,,,,525.029,526.275,l,1,[],[],[],[],[],[],[],0.569,1,526.276,526.775,,,,,,31,FEM,AGR,150,edad,la,a,0.569,,526.775,526.775,0.798888889,-0.471111111,0,0,0,,0,152,152,30,1,,,,
,,,,,,6743bffeaf2a2edbc2dad972,66a626ef09d4e21e1a8894ec,6735ece55cbfcde41ededb9d,2024-11-14_13h29.55.611,Tarea de género gramatical,2024.2.2,Win32,58.82352941,,,,,,,,,,,,,,,,,,,,,,,,526.777,528.023,a,1,[],[],[],[],[],[],[],0.568,1,528.024,528.522,,,,,,66,MAS,DIS,150,muro,la,l,0.568,,528.522,528.522,0.798888889,-0.471111111,0,0,0,,0,153,153,65,1,,,,
,,,,,,6743bffeaf2a2edbc2dad972,66a626ef09d4e21e1a8894ec,6735ece55cbfcde41ededb9d,2024-11-14_13h29.55.611,Tarea de género gramatical,2024.2.2,Win32,58.82352941,,,,,,,,,,,,,,,,,,,,,,,,528.525,529.721,a,1,[],[],[],[],[],[],[],0.524,1,529.721,530.221,,,,,,160,MAS,AGR,150,señor,el,l,0.524,,530.221,530.221,0.798888889,-0.471111111,0,0,0,,0,154,154,159,1,,,,
,,,,,,6743bffeaf2a2edbc2dad972,66a626ef09d4e21e1a8894ec,6735ece55cbfcde41ededb9d,2024-11-14_13h29.55.611,Tarea de género gramatical,2024.2.2,Win32,58.82352941,,,,,,,,,,,,,,,,,,,,,,,,530.222,531.37,l,1,[],[],[],[],[],[],[],0.471,1,531.37,531.869,,,,,,188,FEM,CON,150,bomba,,a,0.471,,531.871,531.872,0.798888889,-0.471111111,0,0,0,,0,155,155,187,1,,,,
,,,,,,6743bffeaf2a2edbc2dad972,66a626ef09d4e21e1a8894ec,6735ece55cbfcde41ededb9d,2024-11-14_13h29.55.611,Tarea de género gramatical,2024.2.2,Win32,58.82352941,,,,,,,,,,,,,,,,,,,,,,,,531.873,533.134,l,1,[],[],[],[],[],[],[],0.584,1,533.134,533.634,,,,,,110,FEM,CON,150,rosa,,a,0.584,,533.634,533.634,0.798888889,-0.471111111,0,0,0,,0,156,156,109,1,,,,
,,,,,,6743bffeaf2a2edbc2dad972,66a626ef09d4e21e1a8894ec,6735ece55cbfcde41ededb9d,2024-11-14_13h29.55.611,Tarea de género gramatical,2024.2.2,Win32,58.82352941,,,,,,,,,,,,,,,,,,,,,,,,533.636,534.749,a,1,[],[],[],[],[],[],[],0.433,1,534.749,535.248,,,,,,364,MAS,AGR,150,viento,el,l,0.433,,535.248,535.248,0.798888889,-0.471111111,0,0,0,,0,157,157,363,1,,,,
,,,,,,6743bffeaf2a2edbc2dad972,66a626ef09d4e21e1a8894ec,6735ece55cbfcde41ededb9d,2024-11-14_13h29.55.611,Tarea de género gramatical,2024.2.2,Win32,58.82352941,,,,,,,,,,,,,,,,,,,,,,,,535.25,536.348,l,1,[],[],[],[],[],[],[],0.418,1,536.348,536.847,,,,,,277,FEM,AGR,150,plaza,la,a,0.418,,536.847,536.847,0.798888889,-0.471111111,0,0,0,,0,158,158,276,1,,,,
,,,,,,6743bffeaf2a2edbc2dad972,66a626ef09d4e21e1a8894ec,6735ece55cbfcde41ededb9d,2024-11-14_13h29.55.611,Tarea de género gramatical,2024.2.2,Win32,58.82352941,,,,,,,,,,,,,,,,,,,,,,,,536.849,538.311,a,1,[],[],[],[],[],[],[],0.786,1,538.312,538.81,,,,,,60,MAS,DIS,150,tono,la,l,0.786,,538.813,538.814,0.798888889,-0.471111111,0,0,0,,0,159,159,59,1,,,,
,,,,,,6743bffeaf2a2edbc2dad972,66a626ef09d4e21e1a8894ec,6735ece55cbfcde41ededb9d,2024-11-14_13h29.55.611,Tarea de género gramatical,2024.2.2,Win32,58.82352941,,,,,,,,,,,,,,,,,,,,,,,,538.816,540.126,a,1,[],[],[],[],[],[],[],0.633,1,540.126,540.626,,,,,,438,MAS,DIS,150,tanque,la,l,0.633,,540.626,540.626,0.798888889,-0.471111111,0,0,0,,0,160,160,437,1,,,,
,,,,,,6743bffeaf2a2edbc2dad972,66a626ef09d4e21e1a8894ec,6735ece55cbfcde41ededb9d,2024-11-14_13h29.55.611,Tarea de género gramatical,2024.2.2,Win32,58.82352941,,,,,,,,,,,,,,,,,,,,,,,,540.627,541.924,l,1,[],[],[],[],[],[],[],0.617,1,541.924,542.423,,,,,,254,FEM,CON,150,caída,,a,0.617,,542.423,542.423,0.798888889,-0.471111111,0,0,0,,0,161,161,253,1,,,,
,,,,,,6743bffeaf2a2edbc2dad972,66a626ef09d4e21e1a8894ec,6735ece55cbfcde41ededb9d,2024-11-14_13h29.55.611,Tarea de género gramatical,2024.2.2,Win32,58.82352941,,,,,,,,,,,,,,,,,,,,,,,,542.425,543.771,a,1,[],[],[],[],[],[],[],0.671,1,543.772,544.272,,,,,,408,MAS,DIS,150,cheque,la,l,0.671,,544.272,544.272,0.798888889,-0.471111111,0,0,0,,0,162,162,407,1,,,,
,,,,,,6743bffeaf2a2edbc2dad972,66a626ef09d4e21e1a8894ec,6735ece55cbfcde41ededb9d,2024-11-14_13h29.55.611,Tarea de género gramatical,2024.2.2,Win32,58.82352941,,,,,,,,,,,,,,,,,,,,,,,,544.273,545.619,l,1,[],[],[],[],[],[],[],0.674,1,545.62,546.119,,,,,,61,FEM,AGR,150,ruta,la,a,0.674,,546.119,546.119,0.798888889,-0.471111111,0,0,0,,0,163,163,60,1,,,,
,,,,,,6743bffeaf2a2edbc2dad972,66a626ef09d4e21e1a8894ec,6735ece55cbfcde41ededb9d,2024-11-14_13h29.55.611,Tarea de género gramatical,2024.2.2,Win32,58.82352941,,,,,,,,,,,,,,,,,,,,,,,,546.121,547.268,a,1,[],[],[],[],[],[],[],0.476,1,547.269,547.767,,,,,,106,MAS,AGR,150,test,el,l,0.476,,547.769,547.771,0.798888889,-0.471111111,0,0,0,,0,164,164,105,1,,,,
,,,,,,6743bffeaf2a2edbc2dad972,66a626ef09d4e21e1a8894ec,6735ece55cbfcde41ededb9d,2024-11-14_13h29.55.611,Tarea de género gramatical,2024.2.2,Win32,58.82352941,,,,,,,,,,,,,,,,,,,,,,,,547.772,549.232,l,1,[],[],[],[],[],[],[],0.783,1,549.232,549.732,,,,,,151,FEM,AGR,150,noche,la,a,0.783,,549.732,549.732,0.798888889,-0.471111111,0,0,0,,0,165,165,150,1,,,,
,,,,,,6743bffeaf2a2edbc2dad972,66a626ef09d4e21e1a8894ec,6735ece55cbfcde41ededb9d,2024-11-14_13h29.55.611,Tarea de género gramatical,2024.2.2,Win32,58.82352941,,,,,,,,,,,,,,,,,,,,,,,,549.733,551.446,a,0,[],[],[],[],[],[],[],1.034,0,551.447,551.946,,,,,,315,FEM,DIS,150,manera,el,a,1.034,,551.946,551.946,0.798888889,-0.471111111,0,0,0,,0,166,166,314,1,,,,
,,,,,,6743bffeaf2a2edbc2dad972,66a626ef09d4e21e1a8894ec,6735ece55cbfcde41ededb9d,2024-11-14_13h29.55.611,Tarea de género gramatical,2024.2.2,Win32,58.82352941,,,,,,,,,,,,,,,,,,,,,,,,551.947,553.593,l,0,[],[],[],[],[],[],[],0.969,0,553.593,554.093,,,,,,340,MAS,AGR,150,pasado,el,l,0.969,,554.093,554.093,0.798888889,-0.471111111,0,0,0,,0,167,167,339,1,,,,
,,,,,,6743bffeaf2a2edbc2dad972,66a626ef09d4e21e1a8894ec,6735ece55cbfcde41ededb9d,2024-11-14_13h29.55.611,Tarea de género gramatical,2024.2.2,Win32,58.82352941,,,,,,,,,,,,,,,,,,,,,,,,554.095,555.824,l,1,[],[],[],[],[],[],[],1.054,1,555.825,556.324,,,,,,85,FEM,AGR,150,gira,la,a,1.054,,556.325,556.326,0.798888889,-0.471111111,0,0,0,,0,168,168,84,1,,,,
,,,,,,6743bffeaf2a2edbc2dad972,66a626ef09d4e21e1a8894ec,6735ece55cbfcde41ededb9d,2024-11-14_13h29.55.611,Tarea de género gramatical,2024.2.2,Win32,58.82352941,,,,,,,,,,,,,,,,,,,,,,,,556.328,557.671,l,1,[],[],[],[],[],[],[],0.674,1,557.673,558.171,,,,,,128,FEM,CON,150,leña,,a,0.674,,558.171,558.172,0.798888889,-0.471111111,0,0,0,,0,169,169,127,1,,,,
,,,,,,6743bffeaf2a2edbc2dad972,66a626ef09d4e21e1a8894ec,6735ece55cbfcde41ededb9d,2024-11-14_13h29.55.611,Tarea de género gramatical,2024.2.2,Win32,58.82352941,,,,,,,,,,,,,,,,,,,,,,,,558.174,559.486,a,1,[],[],[],[],[],[],[],0.634,1,559.487,559.987,,,,,,377,MAS,CON,150,jardín,,l,0.634,,559.987,559.987,0.798888889,-0.471111111,0,0,0,,0,170,170,376,1,,,,
,,,,,,6743bffeaf2a2edbc2dad972,66a626ef09d4e21e1a8894ec,6735ece55cbfcde41ededb9d,2024-11-14_13h29.55.611,Tarea de género gramatical,2024.2.2,Win32,58.82352941,,,,,,,,,,,,,,,,,,,,,,,,559.988,561.335,l,1,[],[],[],[],[],[],[],0.667,1,561.335,561.834,,,,,,8,FEM,CON,150,idea,,a,0.667,,561.834,561.834,0.798888889,-0.471111111,0,0,0,,0,171,171,7,1,,,,
,,,,,,6743bffeaf2a2edbc2dad972,66a626ef09d4e21e1a8894ec,6735ece55cbfcde41ededb9d,2024-11-14_13h29.55.611,Tarea de género gramatical,2024.2.2,Win32,58.82352941,,,,,,,,,,,,,,,,,,,,,,,,561.835,563.555,l,1,[],[],[],[],[],[],[],1.047,1,563.555,564.055,,,,,,446,FEM,CON,150,bañera,,a,1.047,,564.055,564.055,0.798888889,-0.471111111,0,0,0,,0,172,172,445,1,,,,
,,,,,,6743bffeaf2a2edbc2dad972,66a626ef09d4e21e1a8894ec,6735ece55cbfcde41ededb9d,2024-11-14_13h29.55.611,Tarea de género gramatical,2024.2.2,Win32,58.82352941,,,,,,,,,,,,,,,,,,,,,,,,564.057,565.62,l,1,[],[],[],[],[],[],[],0.883,1,565.62,566.118,,,,,,439,FEM,AGR,150,toalla,la,a,0.883,,566.121,566.122,0.798888889,-0.471111111,0,0,0,,0,173,173,438,1,,,,
,,,,,,6743bffeaf2a2edbc2dad972,66a626ef09d4e21e1a8894ec,6735ece55cbfcde41ededb9d,2024-11-14_13h29.55.611,Tarea de género gramatical,2024.2.2,Win32,58.82352941,,,,,,,,,,,,,,,,,,,,,,,,566.123,567.385,a,1,[],[],[],[],[],[],[],0.584,1,567.385,567.884,,,,,,420,MAS,DIS,150,helado,la,l,0.584,,567.884,567.884,0.798888889,-0.471111111,0,0,0,,0,174,174,419,1,,,,
,,,,,,6743bffeaf2a2edbc2dad972,66a626ef09d4e21e1a8894ec,6735ece55cbfcde41ededb9d,2024-11-14_13h29.55.611,Tarea de género gramatical,2024.2.2,Win32,58.82352941,,,,,,,,,,,,,,,,,,,,,,,,567.886,569.15,a,1,[],[],[],[],[],[],[],0.584,1,569.15,569.648,,,,,,251,MAS,CON,150,dueño,,l,0.584,,569.649,569.649,0.798888889,-0.471111111,0,0,0,,0,175,175,250,1,,,,
,,,,,,6743bffeaf2a2edbc2dad972,66a626ef09d4e21e1a8894ec,6735ece55cbfcde41ededb9d,2024-11-14_13h29.55.611,Tarea de género gramatical,2024.2.2,Win32,58.82352941,,,,,,,,,,,,,,,,,,,,,,,,569.651,571.464,a,1,[],[],[],[],[],[],[],1.133,1,571.464,571.962,,,,,,324,MAS,DIS,150,cuarto,la,l,1.133,,571.962,571.962,0.798888889,-0.471111111,0,0,0,,0,176,176,323,1,,,,
,,,,,,6743bffeaf2a2edbc2dad972,66a626ef09d4e21e1a8894ec,6735ece55cbfcde41ededb9d,2024-11-14_13h29.55.611,Tarea de género gramatical,2024.2.2,Win32,58.82352941,,,,,,,,,,,,,,,,,,,,,,,,571.964,573.261,l,1,[],[],[],[],[],[],[],0.616,1,573.261,573.76,,,,,,163,FEM,AGR,150,calle,la,a,0.616,,573.762,573.764,0.798888889,-0.471111111,0,0,0,,0,177,177,162,1,,,,
,,,,,,6743bffeaf2a2edbc2dad972,66a626ef09d4e21e1a8894ec,6735ece55cbfcde41ededb9d,2024-11-14_13h29.55.611,Tarea de género gramatical,2024.2.2,Win32,58.82352941,,,,,,,,,,,,,,,,,,,,,,,,573.765,575.142,a,1,[],[],[],[],[],[],[],0.701,1,575.143,575.641,,,,,,46,MAS,AGR,150,odio,el,l,0.701,,575.641,575.641,0.798888889,-0.471111111,0,0,0,,0,178,178,45,1,,,,
,,,,,,6743bffeaf2a2edbc2dad972,66a626ef09d4e21e1a8894ec,6735ece55cbfcde41ededb9d,2024-11-14_13h29.55.611,Tarea de género gramatical,2024.2.2,Win32,58.82352941,,,,,,,,,,,,,,,,,,,,,,,,575.643,576.874,l,1,[],[],[],[],[],[],[],0.55,1,576.874,577.372,,,,,,247,FEM,AGR,150,frase,la,a,0.55,,577.372,577.372,0.798888889,-0.471111111,0,0,0,,0,179,179,246,1,,,,
,,,,,,6743bffeaf2a2edbc2dad972,66a626ef09d4e21e1a8894ec,6735ece55cbfcde41ededb9d,2024-11-14_13h29.55.611,Tarea de género gramatical,2024.2.2,Win32,58.82352941,,,,,,,,,,,,,,,,,,,,,,,,577.374,578.721,a,1,[],[],[],[],[],[],[],0.667,1,578.721,579.221,,,,,,322,MAS,AGR,150,minuto,el,l,0.667,,579.221,579.221,0.798888889,-0.471111111,0,0,0,,0,180,180,321,1,,,,
,,,,,,6743bffeaf2a2edbc2dad972,66a626ef09d4e21e1a8894ec,6735ece55cbfcde41ededb9d,2024-11-14_13h29.55.611,Tarea de género gramatical,2024.2.2,Win32,58.82352941,,,,,,,,,,,,,,,,,,,,,,,,579.223,580.47,a,1,[],[],[],[],[],[],[],0.567,1,580.47,580.968,,,,,,23,MAS,CON,150,rato,,l,0.567,,580.968,580.968,0.798888889,-0.471111111,0,0,0,,0,181,181,22,1,,,,
,,,,,,6743bffeaf2a2edbc2dad972,66a626ef09d4e21e1a8894ec,6735ece55cbfcde41ededb9d,2024-11-14_13h29.55.611,Tarea de género gramatical,2024.2.2,Win32,58.82352941,,,,,,,,,,,,,,,,,,,,,,,,580.97,582.203,l,1,[],[],[],[],[],[],[],0.552,1,582.203,582.699,,,,,,55,FEM,AGR,150,taza,la,a,0.552,,582.701,582.702,0.798888889,-0.471111111,0,0,0,,0,182,182,54,1,,,,
,,,,,,6743bffeaf2a2edbc2dad972,66a626ef09d4e21e1a8894ec,6735ece55cbfcde41ededb9d,2024-11-14_13h29.55.611,Tarea de género gramatical,2024.2.2,Win32,58.82352941,,,,,,,,,,,,,,,,,,,,,,,,582.703,584.431,l,1,[],[],[],[],[],[],[],1.049,1,584.431,584.93,,,,,,237,FEM,DIS,150,ducha,el,a,1.049,,584.93,584.93,0.798888889,-0.471111111,0,0,0,,0,183,183,236,1,,,,
,,,,,,6743bffeaf2a2edbc2dad972,66a626ef09d4e21e1a8894ec,6735ece55cbfcde41ededb9d,2024-11-14_13h29.55.611,Tarea de género gramatical,2024.2.2,Win32,58.82352941,,,,,,,,,,,,,,,,,,,,,,,,584.932,586.164,l,1,[],[],[],[],[],[],[],0.551,1,586.164,586.662,,,,,,80,FEM,CON,150,vaca,,a,0.551,,586.662,586.662,0.798888889,-0.471111111,0,0,0,,0,184,184,79,1,,,,
,,,,,,6743bffeaf2a2edbc2dad972,66a626ef09d4e21e1a8894ec,6735ece55cbfcde41ededb9d,2024-11-14_13h29.55.611,Tarea de género gramatical,2024.2.2,Win32,58.82352941,,,,,,,,,,,,,,,,,,,,,,,,586.664,588.31,l,1,[],[],[],[],[],[],[],0.967,1,588.311,588.809,,,,,,393,FEM,DIS,150,alarma,el,a,0.967,,588.809,588.809,0.798888889,-0.471111111,0,0,0,,0,185,185,392,1,,,,
,,,,,,6743bffeaf2a2edbc2dad972,66a626ef09d4e21e1a8894ec,6735ece55cbfcde41ededb9d,2024-11-14_13h29.55.611,Tarea de género gramatical,2024.2.2,Win32,58.82352941,,,,,,,,,,,,,,,,,,,,,,,,588.812,590.808,l,1,[],[],[],[],[],[],[],1.316,1,590.808,591.306,,,,,,39,FEM,DIS,150,luna,el,a,1.316,,591.309,591.31,0.798888889,-0.471111111,0,0,0,,0,186,186,38,1,,,,
,,,,,,6743bffeaf2a2edbc2dad972,66a626ef09d4e21e1a8894ec,6735ece55cbfcde41ededb9d,2024-11-14_13h29.55.611,Tarea de género gramatical,2024.2.2,Win32,58.82352941,,,,,,,,,,,,,,,,,,,,,,,,591.311,593.155,l,1,[],[],[],[],[],[],[],1.166,1,593.155,593.653,,,,,,169,FEM,AGR,150,vista,la,a,1.166,,593.654,593.654,0.798888889,-0.471111111,0,0,0,,0,187,187,168,1,,,,
,,,,,,6743bffeaf2a2edbc2dad972,66a626ef09d4e21e1a8894ec,6735ece55cbfcde41ededb9d,2024-11-14_13h29.55.611,Tarea de género gramatical,2024.2.2,Win32,58.82352941,,,,,,,,,,,,,,,,,,,,,,,,593.656,595.069,a,1,[],[],[],[],[],[],[],0.734,1,595.07,595.568,,,,,,203,MAS,CON,150,novio,,l,0.734,,595.568,595.568,0.798888889,-0.471111111,0,0,0,,0,188,188,202,1,,,,
,,,,,,6743bffeaf2a2edbc2dad972,66a626ef09d4e21e1a8894ec,6735ece55cbfcde41ededb9d,2024-11-14_13h29.55.611,Tarea de género gramatical,2024.2.2,Win32,58.82352941,,,,,,,,,,,,,,,,,,,,,,,,595.57,596.933,l,1,[],[],[],[],[],[],[],0.684,1,596.933,597.432,,,,,,433,FEM,AGR,150,huella,la,a,0.684,,597.432,597.433,0.798888889,-0.471111111,0,0,0,,0,189,189,432,1,,,,
,,,,,,6743bffeaf2a2edbc2dad972,66a626ef09d4e21e1a8894ec,6735ece55cbfcde41ededb9d,2024-11-14_13h29.55.611,Tarea de género gramatical,2024.2.2,Win32,58.82352941,,,,,,,,,,,,,,,,,,,,,,,,597.434,598.931,a,1,[],[],[],[],[],[],[],0.821,1,598.932,599.43,,,,,,413,MAS,CON,150,diario,,l,0.821,,599.43,599.43,0.798888889,-0.471111111,0,0,0,,0,190,190,412,1,,,,
,,,,,,6743bffeaf2a2edbc2dad972,66a626ef09d4e21e1a8894ec,6735ece55cbfcde41ededb9d,2024-11-14_13h29.55.611,Tarea de género gramatical,2024.2.2,Win32,58.82352941,,,,,,,,,,,,,,,,,,,,,,,,599.433,600.846,a,1,[],[],[],[],[],[],[],0.734,1,600.846,601.345,,,,,,286,MAS,AGR,150,reino,el,l,0.734,,601.347,601.348,0.798888889,-0.471111111,0,0,0,,0,191,191,285,1,,,,
,,,,,,6743bffeaf2a2edbc2dad972,66a626ef09d4e21e1a8894ec,6735ece55cbfcde41ededb9d,2024-11-14_13h29.55.611,Tarea de género gramatical,2024.2.2,Win32,58.82352941,,,,,,,,,,,,,,,,,,,,,,,,601.35,602.61,l,1,[],[],[],[],[],[],[],0.584,1,602.61,603.109,,,,,,27,FEM,DIS,150,mesa,el,a,0.584,,603.109,603.109,0.798888889,-0.471111111,0,0,0,,0,192,192,26,1,,,,
,,,,,,6743bffeaf2a2edbc2dad972,66a626ef09d4e21e1a8894ec,6735ece55cbfcde41ededb9d,2024-11-14_13h29.55.611,Tarea de género gramatical,2024.2.2,Win32,58.82352941,,,,,,,,,,,,,,,,,,,,,,,,603.112,604.61,a,1,[],[],[],[],[],[],[],0.816,1,604.61,605.107,,,,,,305,MAS,CON,150,hombre,,l,0.816,,605.107,605.107,0.798888889,-0.471111111,0,0,0,,0,193,193,304,1,,,,
,,,,,,6743bffeaf2a2edbc2dad972,66a626ef09d4e21e1a8894ec,6735ece55cbfcde41ededb9d,2024-11-14_13h29.55.611,Tarea de género gramatical,2024.2.2,Win32,58.82352941,,,,,,,,,,,,,,,,,,,,,,,,605.109,606.307,a,1,[],[],[],[],[],[],[],0.518,1,606.307,606.806,,,,,,431,MAS,CON,150,veneno,,l,0.518,,606.806,606.806,0.798888889,-0.471111111,0,0,0,,0,194,194,430,1,,,,
,,,,,,6743bffeaf2a2edbc2dad972,66a626ef09d4e21e1a8894ec,6735ece55cbfcde41ededb9d,2024-11-14_13h29.55.611,Tarea de género gramatical,2024.2.2,Win32,58.82352941,,,,,,,,,,,,,,,,,,,,,,,,606.808,608.287,a,1,[],[],[],[],[],[],[],0.8,1,608.287,608.786,,,,,,198,MAS,DIS,150,hotel,la,l,0.8,,608.788,608.789,0.798888889,-0.471111111,0,0,0,,0,195,195,197,1,,,,
,,,,,,6743bffeaf2a2edbc2dad972,66a626ef09d4e21e1a8894ec,6735ece55cbfcde41ededb9d,2024-11-14_13h29.55.611,Tarea de género gramatical,2024.2.2,Win32,58.82352941,,,,,,,,,,,,,,,,,,,,,,,,608.79,610.069,l,1,[],[],[],[],[],[],[],0.6,1,610.069,610.567,,,,,,91,FEM,AGR,150,hoja,la,a,0.6,,610.568,610.568,0.798888889,-0.471111111,0,0,0,,0,196,196,90,1,,,,
,,,,,,6743bffeaf2a2edbc2dad972,66a626ef09d4e21e1a8894ec,6735ece55cbfcde41ededb9d,2024-11-14_13h29.55.611,Tarea de género gramatical,2024.2.2,Win32,58.82352941,,,,,,,,,,,,,,,,,,,,,,,,610.57,612.182,l,1,[],[],[],[],[],[],[],0.933,1,612.183,612.682,,,,,,248,FEM,CON,150,letra,,a,0.933,,612.682,612.682,0.798888889,-0.471111111,0,0,0,,0,197,197,247,1,,,,
,,,,,,6743bffeaf2a2edbc2dad972,66a626ef09d4e21e1a8894ec,6735ece55cbfcde41ededb9d,2024-11-14_13h29.55.611,Tarea de género gramatical,2024.2.2,Win32,58.82352941,,,,,,,,,,,,,,,,,,,,,,,,612.684,614.414,a,0,[],[],[],[],[],[],[],1.049,0,614.415,614.913,,,,,,255,FEM,DIS,150,tribu,el,a,1.049,,614.913,614.913,0.798888889,-0.471111111,0,0,0,,0,198,198,254,1,,,,
,,,,,,6743bffeaf2a2edbc2dad972,66a626ef09d4e21e1a8894ec,6735ece55cbfcde41ededb9d,2024-11-14_13h29.55.611,Tarea de género gramatical,2024.2.2,Win32,58.82352941,,,,,,,,,,,,,,,,,,,,,,,,614.915,616.728,a,1,[],[],[],[],[],[],[],1.15,1,616.729,617.226,,,,,,72,MAS,DIS,150,hoyo,la,l,1.15,,617.226,617.226,0.798888889,-0.471111111,0,0,0,,0,199,199,71,1,,,,
,,,,,,6743bffeaf2a2edbc2dad972,66a626ef09d4e21e1a8894ec,6735ece55cbfcde41ededb9d,2024-11-14_13h29.55.611,Tarea de género gramatical,2024.2.2,Win32,58.82352941,,,,,,,,,,,,,,,,,,,,,,,,617.229,618.492,a,1,[],[],[],[],[],[],[],0.584,1,618.492,618.992,,,,,,149,MAS,CON,150,nudo,,l,0.584,,618.994,618.995,0.798888889,-0.471111111,0,0,0,,0,200,200,148,1,,,,
,,,,,,6743bffeaf2a2edbc2dad972,66a626ef09d4e21e1a8894ec,6735ece55cbfcde41ededb9d,2024-11-14_13h29.55.611,Tarea de género gramatical,2024.2.2,Win32,58.82352941,,,,,,,,,,,,,,,,,,,,,,,,618.996,620.639,a,1,[],[],[],[],[],[],[],0.966,1,620.64,621.139,,,,,,186,MAS,DIS,150,error,la,l,0.966,,621.139,621.139,0.798888889,-0.471111111,0,0,0,,0,201,201,185,1,,,,
,,,,,,6743bffeaf2a2edbc2dad972,66a626ef09d4e21e1a8894ec,6735ece55cbfcde41ededb9d,2024-11-14_13h29.55.611,Tarea de género gramatical,2024.2.2,Win32,58.82352941,,,,,,,,,,,,,,,,,,,,,,,,621.141,622.654,l,1,[],[],[],[],[],[],[],0.833,1,622.654,623.154,,,,,,343,FEM,AGR,150,trampa,la,a,0.833,,623.154,623.154,0.798888889,-0.471111111,0,0,0,,0,202,202,342,1,,,,
,,,,,,6743bffeaf2a2edbc2dad972,66a626ef09d4e21e1a8894ec,6735ece55cbfcde41ededb9d,2024-11-14_13h29.55.611,Tarea de género gramatical,2024.2.2,Win32,58.82352941,,,,,,,,,,,,,,,,,,,,,,,,623.156,624.419,l,1,[],[],[],[],[],[],[],0.584,1,624.419,624.918,,,,,,26,FEM,CON,150,pena,,a,0.584,,624.918,624.918,0.798888889,-0.471111111,0,0,0,,0,203,203,25,1,,,,
,,,,,,6743bffeaf2a2edbc2dad972,66a626ef09d4e21e1a8894ec,6735ece55cbfcde41ededb9d,2024-11-14_13h29.55.611,Tarea de género gramatical,2024.2.2,Win32,58.82352941,,,,,,,,,,,,,,,,,,,,,,,,624.92,626.383,l,1,[],[],[],[],[],[],[],0.784,1,626.383,626.882,,,,,,236,FEM,CON,150,deuda,,a,0.784,,626.884,626.885,0.798888889,-0.471111111,0,0,0,,0,204,204,235,1,,,,
,,,,,,6743bffeaf2a2edbc2dad972,66a626ef09d4e21e1a8894ec,6735ece55cbfcde41ededb9d,2024-11-14_13h29.55.611,Tarea de género gramatical,2024.2.2,Win32,58.82352941,,,,,,,,,,,,,,,,,,,,,,,,626.887,628.214,l,1,[],[],[],[],[],[],[],0.65,1,628.214,628.713,,,,,,73,FEM,AGR,150,roca,la,a,0.65,,628.713,628.713,0.798888889,-0.471111111,0,0,0,,0,205,205,72,1,,,,
,,,,,,6743bffeaf2a2edbc2dad972,66a626ef09d4e21e1a8894ec,6735ece55cbfcde41ededb9d,2024-11-14_13h29.55.611,Tarea de género gramatical,2024.2.2,Win32,58.82352941,,,,,,,,,,,,,,,,,,,,,,,,628.715,629.932,a,1,[],[],[],[],[],[],[],0.535,1,629.932,630.428,,,,,,316,MAS,AGR,150,cuerpo,el,l,0.535,,630.428,630.428,0.798888889,-0.471111111,0,0,0,,0,206,206,315,1,,,,
,,,,,,6743bffeaf2a2edbc2dad972,66a626ef09d4e21e1a8894ec,6735ece55cbfcde41ededb9d,2024-11-14_13h29.55.611,Tarea de género gramatical,2024.2.2,Win32,58.82352941,,,,,,,,,,,,,,,,,,,,,,,,630.43,631.63,a,1,[],[],[],[],[],[],[],0.517,1,631.63,632.126,,,,,,342,MAS,DIS,150,abuelo,la,l,0.517,,632.126,632.126,0.798888889,-0.471111111,0,0,0,,0,207,207,341,1,,,,
,,,,,,6743bffeaf2a2edbc2dad972,66a626ef09d4e21e1a8894ec,6735ece55cbfcde41ededb9d,2024-11-14_13h29.55.611,Tarea de género gramatical,2024.2.2,Win32,58.82352941,,,,,,,,,,,,,,,,,,,,,,,,632.128,633.458,l,1,[],[],[],[],[],[],[],0.651,1,633.459,633.957,,,,,,13,FEM,AGR,150,hija,la,a,0.651,,633.957,633.958,0.798888889,-0.471111111,0,0,0,,0,208,208,12,1,,,,
,,,,,,6743bffeaf2a2edbc2dad972,66a626ef09d4e21e1a8894ec,6735ece55cbfcde41ededb9d,2024-11-14_13h29.55.611,Tarea de género gramatical,2024.2.2,Win32,58.82352941,,,,,,,,,,,,,,,,,,,,,,,,633.962,635.209,l,1,[],[],[],[],[],[],[],0.568,1,635.209,635.705,,,,,,122,FEM,CON,150,loca,,a,0.568,,635.707,635.709,0.798888889,-0.471111111,0,0,0,,0,209,209,121,1,,,,
,,,,,,6743bffeaf2a2edbc2dad972,66a626ef09d4e21e1a8894ec,6735ece55cbfcde41ededb9d,2024-11-14_13h29.55.611,Tarea de género gramatical,2024.2.2,Win32,58.82352941,,,,,,,,,,,,,,,,,,,,,,,,635.71,637.103,a,1,[],[],[],[],[],[],[],0.717,1,637.104,637.603,,,,,,294,MAS,DIS,150,cable,la,l,0.717,,637.603,637.604,0.798888889,-0.471111111,0,0,0,,0,210,210,293,1,,,,
,,,,,,6743bffeaf2a2edbc2dad972,66a626ef09d4e21e1a8894ec,6735ece55cbfcde41ededb9d,2024-11-14_13h29.55.611,Tarea de género gramatical,2024.2.2,Win32,58.82352941,,,,,,,,,,,,,,,,,,,,,,,,637.606,639.069,a,1,[],[],[],[],[],[],[],0.783,1,639.069,639.567,,,,,,11,MAS,CON,150,país,,l,0.783,,639.567,639.567,0.798888889,-0.471111111,0,0,0,,0,211,211,10,1,,,,
,,,,,,6743bffeaf2a2edbc2dad972,66a626ef09d4e21e1a8894ec,6735ece55cbfcde41ededb9d,2024-11-14_13h29.55.611,Tarea de género gramatical,2024.2.2,Win32,58.82352941,,,,,,,,,,,,,,,,,,,,,,,,639.569,641.083,l,1,[],[],[],[],[],[],[],0.834,1,641.084,641.582,,,,,,350,FEM,CON,150,imagen,,a,0.834,,641.582,641.582,0.798888889,-0.471111111,0,0,0,,0,212,212,349,1,,,,
,,,,,,6743bffeaf2a2edbc2dad972,66a626ef09d4e21e1a8894ec,6735ece55cbfcde41ededb9d,2024-11-14_13h29.55.611,Tarea de género gramatical,2024.2.2,Win32,58.82352941,,,,,,,,,,,,,,,,,,,,,,,,641.584,643.43,a,1,[],[],[],[],[],[],[],1.166,1,643.43,643.921,,,,,,174,MAS,DIS,150,perro,la,l,1.166,,643.924,643.926,0.798888889,-0.471111111,0,0,0,,0,213,213,173,1,,,,
,,,,,,6743bffeaf2a2edbc2dad972,66a626ef09d4e21e1a8894ec,6735ece55cbfcde41ededb9d,2024-11-14_13h29.55.611,Tarea de género gramatical,2024.2.2,Win32,58.82352941,,,,,,,,,,,,,,,,,,,,,,,,643.926,645.194,a,1,[],[],[],[],[],[],[],0.6,1,645.195,645.692,,,,,,234,MAS,DIS,150,héroe,la,l,0.6,,645.692,645.692,0.798888889,-0.471111111,0,0,0,,0,214,214,233,1,,,,
,,,,,,6743bffeaf2a2edbc2dad972,66a626ef09d4e21e1a8894ec,6735ece55cbfcde41ededb9d,2024-11-14_13h29.55.611,Tarea de género gramatical,2024.2.2,Win32,58.82352941,,,,,,,,,,,,,,,,,,,,,,,,645.694,646.76,a,1,[],[],[],[],[],[],[],0.384,1,646.76,647.258,,,,,,365,MAS,CON,150,código,,l,0.384,,647.258,647.258,0.798888889,-0.471111111,0,0,0,,0,215,215,364,1,,,,
,,,,,,6743bffeaf2a2edbc2dad972,66a626ef09d4e21e1a8894ec,6735ece55cbfcde41ededb9d,2024-11-14_13h29.55.611,Tarea de género gramatical,2024.2.2,Win32,58.82352941,,,,,,,,,,,,,,,,,,,,,,,,647.26,648.741,a,1,[],[],[],[],[],[],[],0.8,1,648.741,649.239,,,,,,132,MAS,DIS,150,velo,la,l,0.8,,649.239,649.24,0.798888889,-0.471111111,0,0,0,,0,216,216,131,1,,,,
,,,,,,6743bffeaf2a2edbc2dad972,66a626ef09d4e21e1a8894ec,6735ece55cbfcde41ededb9d,2024-11-14_13h29.55.611,Tarea de género gramatical,2024.2.2,Win32,58.82352941,,,,,,,,,,,,,,,,,,,,,,,,649.242,650.639,l,1,[],[],[],[],[],[],[],0.718,1,650.639,651.139,,,,,,98,FEM,CON,150,fuga,,a,0.718,,651.139,651.14,0.798888889,-0.471111111,0,0,0,,0,217,217,97,1,,,,
,,,,,,6743bffeaf2a2edbc2dad972,66a626ef09d4e21e1a8894ec,6735ece55cbfcde41ededb9d,2024-11-14_13h29.55.611,Tarea de género gramatical,2024.2.2,Win32,58.82352941,,,,,,,,,,,,,,,,,,,,,,,,651.141,652.635,l,1,[],[],[],[],[],[],[],0.816,1,652.635,653.135,,,,,,403,FEM,AGR,150,paliza,la,a,0.816,,653.137,653.139,0.798888889,-0.471111111,0,0,0,,0,218,218,402,1,,,,
,,,,,,6743bffeaf2a2edbc2dad972,66a626ef09d4e21e1a8894ec,6735ece55cbfcde41ededb9d,2024-11-14_13h29.55.611,Tarea de género gramatical,2024.2.2,Win32,58.82352941,,,,,,,,,,,,,,,,,,,,,,,,653.14,654.783,a,1,[],[],[],[],[],[],[],0.966,1,654.783,655.275,,,,,,178,MAS,AGR,150,punto,el,l,0.966,,655.275,655.276,0.798888889,-0.471111111,0,0,0,,0,219,219,177,1,,,,
,,,,,,6743bffeaf2a2edbc2dad972,66a626ef09d4e21e1a8894ec,6735ece55cbfcde41ededb9d,2024-11-14_13h29.55.611,Tarea de género gramatical,2024.2.2,Win32,58.82352941,,,,,,,,,,,,,,,,,,,,,,,,655.279,656.582,a,1,[],[],[],[],[],[],[],0.635,1,656.582,657.08,,,,,,437,MAS,CON,150,hombro,,l,0.635,,657.08,657.081,0.798888889,-0.471111111,0,0,0,,0,220,220,436,1,,,,
,,,,,,6743bffeaf2a2edbc2dad972,66a626ef09d4e21e1a8894ec,6735ece55cbfcde41ededb9d,2024-11-14_13h29.55.611,Tarea de género gramatical,2024.2.2,Win32,58.82352941,,,,,,,,,,,,,,,,,,,,,,,,657.083,658.513,l,1,[],[],[],[],[],[],[],0.75,1,658.513,659.013,,,,,,213,FEM,DIS,150,magia,el,a,0.75,,659.013,659.013,0.798888889,-0.471111111,0,0,0,,0,221,221,212,1,,,,
,,,,,,6743bffeaf2a2edbc2dad972,66a626ef09d4e21e1a8894ec,6735ece55cbfcde41ededb9d,2024-11-14_13h29.55.611,Tarea de género gramatical,2024.2.2,Win32,58.82352941,,,,,,,,,,,,,,,,,,,,,,,,659.015,660.343,a,1,[],[],[],[],[],[],[],0.65,1,660.344,660.842,,,,,,419,MAS,CON,150,cuento,,l,0.65,,660.844,660.845,0.798888889,-0.471111111,0,0,0,,0,222,222,418,1,,,,
,,,,,,6743bffeaf2a2edbc2dad972,66a626ef09d4e21e1a8894ec,6735ece55cbfcde41ededb9d,2024-11-14_13h29.55.611,Tarea de género gramatical,2024.2.2,Win32,58.82352941,,,,,,,,,,,,,,,,,,,,,,,,660.847,662.025,l,1,[],[],[],[],[],[],[],0.502,1,662.026,662.523,,,,,,309,FEM,DIS,150,esposa,el,a,0.502,,662.523,662.524,0.798888889,-0.471111111,0,0,0,,0,223,223,308,1,,,,
,,,,,,6743bffeaf2a2edbc2dad972,66a626ef09d4e21e1a8894ec,6735ece55cbfcde41ededb9d,2024-11-14_13h29.55.611,Tarea de género gramatical,2024.2.2,Win32,58.82352941,,,,,,,,,,,,,,,,,,,,,,,,662.526,664.107,l,1,[],[],[],[],[],[],[],0.901,1,664.107,664.605,,,,,,339,FEM,DIS,150,salida,el,a,0.901,,664.605,664.606,0.798888889,-0.471111111,0,0,0,,0,224,224,338,1,,,,
,,,,,,6743bffeaf2a2edbc2dad972,66a626ef09d4e21e1a8894ec,6735ece55cbfcde41ededb9d,2024-11-14_13h29.55.611,Tarea de género gramatical,2024.2.2,Win32,58.82352941,,,,,,,,,,,,,,,,,,,,,,,,664.608,666.071,a,1,[],[],[],[],[],[],[],0.784,1,666.071,666.571,,,,,,310,MAS,AGR,150,nombre,el,l,0.784,,666.571,666.571,0.798888889,-0.471111111,0,0,0,,0,225,225,309,1,,,,
,,,,,,6743bffeaf2a2edbc2dad972,66a626ef09d4e21e1a8894ec,6735ece55cbfcde41ededb9d,2024-11-14_13h29.55.611,Tarea de género gramatical,2024.2.2,Win32,58.82352941,,,,,,,,,,,,,,,,,,,,,,,,666.572,668.252,a,1,[],[],[],[],[],[],[],0.999,1,668.252,668.75,,,,,,192,MAS,DIS,150,grupo,la,l,0.999,,668.75,668.75,0.798888889,-0.471111111,0,0,0,,0,226,226,191,1,,,,
,,,,,,6743bffeaf2a2edbc2dad972,66a626ef09d4e21e1a8894ec,6735ece55cbfcde41ededb9d,2024-11-14_13h29.55.611,Tarea de género gramatical,2024.2.2,Win32,58.82352941,,,,,,,,,,,,,,,,,,,,,,,,668.753,670,a,1,[],[],[],[],[],[],[],0.568,1,670,670.498,,,,,,407,MAS,CON,150,jurado,,l,0.568,,670.5,670.501,0.798888889,-0.471111111,0,0,0,,0,227,227,406,1,,,,
,,,,,,6743bffeaf2a2edbc2dad972,66a626ef09d4e21e1a8894ec,6735ece55cbfcde41ededb9d,2024-11-14_13h29.55.611,Tarea de género gramatical,2024.2.2,Win32,58.82352941,,,,,,,,,,,,,,,,,,,,,,,,670.503,672.013,a,1,[],[],[],[],[],[],[],0.834,1,672.013,672.512,,,,,,42,MAS,DIS,150,show,la,l,0.834,,672.512,672.512,0.798888889,-0.471111111,0,0,0,,0,228,228,41,1,,,,
,,,,,,6743bffeaf2a2edbc2dad972,66a626ef09d4e21e1a8894ec,6735ece55cbfcde41ededb9d,2024-11-14_13h29.55.611,Tarea de género gramatical,2024.2.2,Win32,58.82352941,,,,,,,,,,,,,,,,,,,,,,,,672.514,673.728,a,1,[],[],[],[],[],[],[],0.536,1,673.728,674.226,,,,,,257,MAS,CON,150,pecho,,l,0.536,,674.227,674.227,0.798888889,-0.471111111,0,0,0,,0,229,229,256,1,,,,
,,,,,,6743bffeaf2a2edbc2dad972,66a626ef09d4e21e1a8894ec,6735ece55cbfcde41ededb9d,2024-11-14_13h29.55.611,Tarea de género gramatical,2024.2.2,Win32,58.82352941,,,,,,,,,,,,,,,,,,,,,,,,674.229,675.642,l,1,[],[],[],[],[],[],[],0.733,1,675.642,676.141,,,,,,105,FEM,DIS,150,jefa,el,a,0.733,,676.141,676.141,0.798888889,-0.471111111,0,0,0,,0,230,230,104,1,,,,
,,,,,,6743bffeaf2a2edbc2dad972,66a626ef09d4e21e1a8894ec,6735ece55cbfcde41ededb9d,2024-11-14_13h29.55.611,Tarea de género gramatical,2024.2.2,Win32,58.82352941,,,,,,,,,,,,,,,,,,,,,,,,676.143,677.574,a,1,[],[],[],[],[],[],[],0.751,1,677.575,678.073,,,,,,47,MAS,CON,150,olor,,l,0.751,,678.075,678.076,0.798888889,-0.471111111,0,0,0,,0,231,231,46,1,,,,
,,,,,,6743bffeaf2a2edbc2dad972,66a626ef09d4e21e1a8894ec,6735ece55cbfcde41ededb9d,2024-11-14_13h29.55.611,Tarea de género gramatical,2024.2.2,Win32,58.82352941,,,,,,,,,,,,,,,,,,,,,,,,678.077,679.556,l,1,[],[],[],[],[],[],[],0.8,1,679.556,680.053,,,,,,15,FEM,DIS,150,cama,el,a,0.8,,680.053,680.054,0.798888889,-0.471111111,0,0,0,,0,232,232,14,1,,,,
,,,,,,6743bffeaf2a2edbc2dad972,66a626ef09d4e21e1a8894ec,6735ece55cbfcde41ededb9d,2024-11-14_13h29.55.611,Tarea de género gramatical,2024.2.2,Win32,58.82352941,,,,,,,,,,,,,,,,,,,,,,,,680.056,681.554,l,1,[],[],[],[],[],[],[],0.817,1,681.555,682.051,,,,,,207,FEM,DIS,150,playa,el,a,0.817,,682.051,682.051,0.798888889,-0.471111111,0,0,0,,0,233,233,206,1,,,,
,,,,,,6743bffeaf2a2edbc2dad972,66a626ef09d4e21e1a8894ec,6735ece55cbfcde41ededb9d,2024-11-14_13h29.55.611,Tarea de género gramatical,2024.2.2,Win32,58.82352941,,,,,,,,,,,,,,,,,,,,,,,,682.054,683.236,a,1,[],[],[],[],[],[],[],0.501,1,683.236,683.733,,,,,,17,MAS,CON,150,modo,,l,0.501,,683.733,683.733,0.798888889,-0.471111111,0,0,0,,0,234,234,16,1,,,,
,,,,,,6743bffeaf2a2edbc2dad972,66a626ef09d4e21e1a8894ec,6735ece55cbfcde41ededb9d,2024-11-14_13h29.55.611,Tarea de género gramatical,2024.2.2,Win32,58.82352941,,,,,,,,,,,,,,,,,,,,,,,,683.733,685.182,a,1,[],[],[],[],[],[],[],0.767,1,685.182,685.68,,,,,,432,MAS,DIS,150,océano,la,l,0.767,,685.68,685.68,0.798888889,-0.471111111,0,0,0,,0,235,235,431,1,,,,
,,,,,,6743bffeaf2a2edbc2dad972,66a626ef09d4e21e1a8894ec,6735ece55cbfcde41ededb9d,2024-11-14_13h29.55.611,Tarea de género gramatical,2024.2.2,Win32,58.82352941,,,,,,,,,,,,,,,,,,,,,,,,685.682,686.98,a,1,[],[],[],[],[],[],[],0.617,1,686.98,687.478,,,,,,239,MAS,CON,150,reloj,,l,0.617,,687.481,687.482,0.798888889,-0.471111111,0,0,0,,0,236,236,238,1,,,,
,,,,,,6743bffeaf2a2edbc2dad972,66a626ef09d4e21e1a8894ec,6735ece55cbfcde41ededb9d,2024-11-14_13h29.55.611,Tarea de género gramatical,2024.2.2,Win32,58.82352941,,,,,,,,,,,,,,,,,,,,,,,,687.483,688.544,l,1,[],[],[],[],[],[],[],0.384,1,688.544,689.043,,,,,,301,FEM,AGR,150,verdad,la,a,0.384,,689.043,689.043,0.798888889,-0.471111111,0,0,0,,0,237,237,300,1,,,,
,,,,,,6743bffeaf2a2edbc2dad972,66a626ef09d4e21e1a8894ec,6735ece55cbfcde41ededb9d,2024-11-14_13h29.55.611,Tarea de género gramatical,2024.2.2,Win32,58.82352941,,,,,,,,,,,,,,,,,,,,,,,,689.043,690.642,a,0,[],[],[],[],[],[],[],0.916,0,690.644,691.14,,,,,,267,FEM,DIS,150,barba,el,a,0.916,,691.14,691.14,0.798888889,-0.471111111,0,0,0,,0,238,238,266,1,,,,
,,,,,,6743bffeaf2a2edbc2dad972,66a626ef09d4e21e1a8894ec,6735ece55cbfcde41ededb9d,2024-11-14_13h29.55.611,Tarea de género gramatical,2024.2.2,Win32,58.82352941,,,,,,,,,,,,,,,,,,,,,,,,691.142,692.699,a,1,[],[],[],[],[],[],[],0.868,1,692.7,693.199,,,,,,78,MAS,DIS,150,oído,la,l,0.868,,693.199,693.199,0.798888889,-0.471111111,0,0,0,,0,239,239,77,1,,,,
,,,,,,6743bffeaf2a2edbc2dad972,66a626ef09d4e21e1a8894ec,6735ece55cbfcde41ededb9d,2024-11-14_13h29.55.611,Tarea de género gramatical,2024.2.2,Win32,58.82352941,,,,,,,,,,,,,,,,,,,,,,,,693.201,694.697,a,1,[],[],[],[],[],[],[],0.816,1,694.697,695.196,,,,,,293,MAS,CON,150,patio,,l,0.816,,695.198,695.2,0.798888889,-0.471111111,0,0,0,,0,240,240,292,1,,,,
,,,,,,6743bffeaf2a2edbc2dad972,66a626ef09d4e21e1a8894ec,6735ece55cbfcde41ededb9d,2024-11-14_13h29.55.611,Tarea de género gramatical,2024.2.2,Win32,58.82352941,,,,,,,,,,,,,,,,,,,,,,,,695.201,696.48,a,1,[],[],[],[],[],[],[],0.61,1,696.48,696.977,,,,,,220,MAS,AGR,150,huevo,el,l,0.61,,696.977,696.978,0.798888889,-0.471111111,0,0,0,,0,241,241,219,1,,,,
,,,,,,6743bffeaf2a2edbc2dad972,66a626ef09d4e21e1a8894ec,6735ece55cbfcde41ededb9d,2024-11-14_13h29.55.611,Tarea de género gramatical,2024.2.2,Win32,58.82352941,,,,,,,,,,,,,,,,,,,,,,,,696.979,698.16,l,1,[],[],[],[],[],[],[],0.502,1,698.16,698.659,,,,,,57,FEM,DIS,150,moda,el,a,0.502,,698.659,698.659,0.798888889,-0.471111111,0,0,0,,0,242,242,56,1,,,,
,,,,,,6743bffeaf2a2edbc2dad972,66a626ef09d4e21e1a8894ec,6735ece55cbfcde41ededb9d,2024-11-14_13h29.55.611,Tarea de género gramatical,2024.2.2,Win32,58.82352941,,,,,,,,,,,,,,,,,,,,,,,,698.661,700.174,l,1,[],[],[],[],[],[],[],0.834,1,700.174,700.673,,,,,,345,FEM,DIS,150,pierna,el,a,0.834,,700.673,700.674,0.798888889,-0.471111111,0,0,0,,0,243,243,344,1,,,,
,,,,,,6743bffeaf2a2edbc2dad972,66a626ef09d4e21e1a8894ec,6735ece55cbfcde41ededb9d,2024-11-14_13h29.55.611,Tarea de género gramatical,2024.2.2,Win32,58.82352941,,,,,,,,,,,,,,,,,,,,,,,,700.675,702.055,a,1,[],[],[],[],[],[],[],0.701,1,702.055,702.556,,,,,,126,MAS,DIS,150,lazo,la,l,0.701,,702.556,702.557,0.798888889,-0.471111111,0,0,0,,0,244,244,125,1,,,,
,,,,,,6743bffeaf2a2edbc2dad972,66a626ef09d4e21e1a8894ec,6735ece55cbfcde41ededb9d,2024-11-14_13h29.55.611,Tarea de género gramatical,2024.2.2,Win32,58.82352941,,,,,,,,,,,,,,,,,,,,,,,,702.559,704.12,l,1,[],[],[],[],[],[],[],0.89,1,704.12,704.619,,,,,,325,FEM,AGR,150,tierra,la,a,0.89,,704.621,704.622,0.798888889,-0.471111111,0,0,0,,0,245,245,324,1,,,,
,,,,,,6743bffeaf2a2edbc2dad972,66a626ef09d4e21e1a8894ec,6735ece55cbfcde41ededb9d,2024-11-14_13h29.55.611,Tarea de género gramatical,2024.2.2,Win32,58.82352941,,,,,,,,,,,,,,,,,,,,,,,,704.623,705.782,l,1,[],[],[],[],[],[],[],0.487,1,705.782,706.284,,,,,,290,FEM,CON,150,cabra,,a,0.487,,706.284,706.284,0.798888889,-0.471111111,0,0,0,,0,246,246,289,1,,,,
,,,,,,6743bffeaf2a2edbc2dad972,66a626ef09d4e21e1a8894ec,6735ece55cbfcde41ededb9d,2024-11-14_13h29.55.611,Tarea de género gramatical,2024.2.2,Win32,58.82352941,,,,,,,,,,,,,,,,,,,,,,,,706.285,707.516,a,1,[],[],[],[],[],[],[],0.557,1,707.516,708.015,,,,,,425,MAS,CON,150,chiste,,l,0.557,,708.015,708.016,0.798888889,-0.471111111,0,0,0,,0,247,247,424,1,,,,
,,,,,,6743bffeaf2a2edbc2dad972,66a626ef09d4e21e1a8894ec,6735ece55cbfcde41ededb9d,2024-11-14_13h29.55.611,Tarea de género gramatical,2024.2.2,Win32,58.82352941,,,,,,,,,,,,,,,,,,,,,,,,708.018,709.631,a,1,[],[],[],[],[],[],[],0.934,1,709.631,710.129,,,,,,263,MAS,CON,150,carro,,l,0.934,,710.129,710.129,0.798888889,-0.471111111,0,0,0,,0,248,248,262,1,,,,
,,,,,,6743bffeaf2a2edbc2dad972,66a626ef09d4e21e1a8894ec,6735ece55cbfcde41ededb9d,2024-11-14_13h29.55.611,Tarea de género gramatical,2024.2.2,Win32,58.82352941,,,,,,,,,,,,,,,,,,,,,,,,710.13,711.378,a,1,[],[],[],[],[],[],[],0.567,1,711.378,711.877,,,,,,95,MAS,CON,150,tomo,,l,0.567,,711.88,711.882,0.798888889,-0.471111111,0,0,0,,0,249,249,94,1,,,,
,,,,,,6743bffeaf2a2edbc2dad972,66a626ef09d4e21e1a8894ec,6735ece55cbfcde41ededb9d,2024-11-14_13h29.55.611,Tarea de género gramatical,2024.2.2,Win32,58.82352941,,,,,,,,,,,,,,,,,,,,,,,,711.884,713.109,l,1,[],[],[],[],[],[],[],0.552,1,713.11,713.608,,,,,,428,FEM,CON,150,jugada,,a,0.552,,713.608,713.608,0.798888889,-0.471111111,0,0,0,,0,250,250,427,1,,,,
,,,,,,6743bffeaf2a2edbc2dad972,66a626ef09d4e21e1a8894ec,6735ece55cbfcde41ededb9d,2024-11-14_13h29.55.611,Tarea de género gramatical,2024.2.2,Win32,58.82352941,,,,,,,,,,,,,,,,,,,,,,,,713.61,714.89,a,0,[],[],[],[],[],[],[],0.607,0,714.892,715.389,,,,,,159,FEM,DIS,150,clase,el,a,0.607,,715.389,715.389,0.798888889,-0.471111111,0,0,0,,0,251,251,158,1,,,,
,,,,,,6743bffeaf2a2edbc2dad972,66a626ef09d4e21e1a8894ec,6735ece55cbfcde41ededb9d,2024-11-14_13h29.55.611,Tarea de género gramatical,2024.2.2,Win32,58.82352941,,,,,,,,,,,,,,,,,,,,,,,,715.391,717.054,l,1,[],[],[],[],[],[],[],0.986,1,717.056,717.554,,,,,,356,FEM,CON,150,piedra,,a,0.986,,717.554,717.554,0.798888889,-0.471111111,0,0,0,,0,252,252,355,1,,,,
,,,,,,6743bffeaf2a2edbc2dad972,66a626ef09d4e21e1a8894ec,6735ece55cbfcde41ededb9d,2024-11-14_13h29.55.611,Tarea de género gramatical,2024.2.2,Win32,58.82352941,,,,,,,,,,,,,,,,,,,,,,,,717.556,718.752,a,1,[],[],[],[],[],[],[],0.523,1,718.753,719.251,,,,,,215,MAS,CON,150,hueso,,l,0.523,,719.252,719.252,0.798888889,-0.471111111,0,0,0,,0,253,253,214,1,,,,
,,,,,,6743bffeaf2a2edbc2dad972,66a626ef09d4e21e1a8894ec,6735ece55cbfcde41ededb9d,2024-11-14_13h29.55.611,Tarea de género gramatical,2024.2.2,Win32,58.82352941,,,,,,,,,,,,,,,,,,,,,,,,719.253,720.417,l,1,[],[],[],[],[],[],[],0.492,1,720.418,720.917,,,,,,289,FEM,AGR,150,tabla,la,a,0.492,,720.922,720.923,0.798888889,-0.471111111,0,0,0,,0,254,254,288,1,,,,
,,,,,,6743bffeaf2a2edbc2dad972,66a626ef09d4e21e1a8894ec,6735ece55cbfcde41ededb9d,2024-11-14_13h29.55.611,Tarea de género gramatical,2024.2.2,Win32,58.82352941,,,,,,,,,,,,,,,,,,,,,,,,720.925,722.45,l,1,[],[],[],[],[],[],[],0.859,1,722.45,722.948,,,,,,387,FEM,DIS,150,página,el,a,0.859,,722.948,722.948,0.798888889,-0.471111111,0,0,0,,0,255,255,386,1,,,,
,,,,,,6743bffeaf2a2edbc2dad972,66a626ef09d4e21e1a8894ec,6735ece55cbfcde41ededb9d,2024-11-14_13h29.55.611,Tarea de género gramatical,2024.2.2,Win32,58.82352941,,,,,,,,,,,,,,,,,,,,,,,,722.95,724.499,a,1,[],[],[],[],[],[],[],0.877,1,724.499,724.996,,,,,,130,MAS,AGR,150,yate,el,l,0.877,,724.996,724.996,0.798888889,-0.471111111,0,0,0,,0,256,256,129,1,,,,
,,,,,,6743bffeaf2a2edbc2dad972,66a626ef09d4e21e1a8894ec,6735ece55cbfcde41ededb9d,2024-11-14_13h29.55.611,Tarea de género gramatical,2024.2.2,Win32,58.82352941,,,,,,,,,,,,,,,,,,,,,,,,724.998,726.527,a,1,[],[],[],[],[],[],[],0.856,1,726.527,727.026,,,,,,52,MAS,AGR,150,lago,el,l,0.856,,727.026,727.027,0.798888889,-0.471111111,0,0,0,,0,257,257,51,1,,,,
