counterbalancing_condition,consent_prescreening.block_1/declare_consent,consent_prescreening.block_1/age_years,consent_prescreening.block_1/gender,consent_prescreening.block_1/language_disorder,consent_prescreening.block_1/first_language,PROLIFIC_PID,STUDY_ID,SESSION_ID,date,expName,psychopyVersion,OS,frameRate,check_prescreening_answers.started,check_prescreening_answers.stopped,Instructions.started,Instructions.stopped,instr_done_keyboard.keys,instr_done_keyboard.rt,instr_done_keyboard.duration,instr_done_touch.x,instr_done_touch.y,instr_done_touch.leftButton,instr_done_touch.midButton,instr_done_touch.rightButton,instruction_pages.thisRepN,instruction_pages.thisTrialN,instruction_pages.thisN,instruction_pages.thisIndex,instruction_pages.ran,pageN,phase,instruct_text,has_image,instruct_image,instr_done_touch.clicked_name,presentTrial.started,presentTrial.stopped,response.keys,response.corr,response.rt,response.duration,touch_resp.x,touch_resp.y,touch_resp.leftButton,touch_resp.midButton,touch_resp.rightButton,touch_resp.time,touch_resp.clicked_name,rt,corr,feedback.started,feedback.stopped,practice_trials.thisRepN,practice_trials.thisTrialN,practice_trials.thisN,practice_trials.thisIndex,practice_trials.ran,TrialID,StimulusType,Condition,PrimeDuration,Prime,Flanker,corrAns,Break.started,Break.stopped,break_done_touch.x,break_done_touch.y,break_done_touch.leftButton,break_done_touch.midButton,break_done_touch.rightButton,break_done_keyboard.keys,experiment_trials.thisRepN,experiment_trials.thisTrialN,experiment_trials.thisN,experiment_trials.thisIndex,experiment_trials.ran,break_done_keyboard.rt,break_done_keyboard.duration,End.started,End.stopped
1,"[""over_18"",""comfortable"",""read_info"",""consent_given""]",23,M,"[""none""]","[""spanish""]",68f53d22d1c607494e355b9e,66a626ef09d4e21e1a8894ec,673649b3afdf6f0e22894f36,2024-11-14_20h04.39.216,Tarea de género gramatical,2024.2.2,Win32,144.9275362,,,,,,,,,,,,,,,,,,,,,,,,,,,,,,,,,,,,,,,,,,,,,,,,,,,,,,,,,,,,,,,,,,,,,
,,,,,,68f53d22d1c607494e355b9e,66a626ef09d4e21e1a8894ec,673649b3afdf6f0e22894f36,2024-11-14_20h04.39.216,Tarea de género gramatical,2024.2.2,Win32,144.9275362,117.3217,117.3218,,,,,,,,,,,,,,,,,,,,,,,,,,,,,,,,,,,,,,,,,,,,,,,,,,,,,,,,,,,,,,,,,,,
,,,,,,68f53d22d1c607494e355b9e,66a626ef09d4e21e1a8894ec,673649b3afdf6f0e22894f36,2024-11-14_20h04.39.216,Tarea de género gramatical,2024.2.2,Win32,144.9275362,,,117.3367,130.0889,space,12.7234,,-0.083333333,-0.027777778,0,0,0,0,0,0,0,1,1,instructions,"INSTRUCCIONES
Va a realizar una prueba de selección gramatical. Desde el comienzo de la prueba mire siempre al centro de la pantalla. Al cabo de un momento, aparecerán palabras. La tarea consiste en determinar si la palabra del centro (siempre será un sustantivo), pertenece al género masculino o femenino.

Pulse la tecla ESPACIO o toque el botón de abajo para continuar.",0,keyboardresponseFM.png,,,,,,,,,,,,,,,,,,,,,,,,,,,,,,,,,,,,,,,,,,,,,,,
,,,,,,68f53d22d1c607494e355b9e,66a626ef09d4e21e1a8894ec,673649b3afdf6f0e22894f36,2024-11-14_20h04.39.216,Tarea de género gramatical,2024.2.2,Win32,144.9275362,,,130.0904,170.4079,space,40.2753,,0.062962963,-0.093518519,0,0,0,0,1,1,1,1,2,instructions,"Si su dispositivo tiene teclado, pulse la tecla ""A"" para las palabras en femenino (por ejemplo: ""mano"") y la tecla ""L"" para las palabras en masculino(por ejemplo: ""arroz"").
Pulse la tecla ESPACIO o toque el botón de abajo para continuar.",1,keyboardresponseFM.png,,,,,,,,,,,,,,,,,,,,,,,,,,,,,,,,,,,,,,,,,,,,,,,
,,,,,,68f53d22d1c607494e355b9e,66a626ef09d4e21e1a8894ec,673649b3afdf6f0e22894f36,2024-11-14_20h04.39.216,Tarea de género gramatical,2024.2.2,Win32,144.9275362,,,170.4092,174.9047,space,4.4731,,0.062962963,-0.093518519,0,0,0,0,2,2,2,1,3,instructions,"Si utiliza un dispositivo sólo táctil, colóquelo en horizontal y utilice los botones de la pantalla. No utilice el ratón.
Pulse la tecla ESPACIO o toque el botón de abajo para continuar.",2,touchresponseFM.png,,,,,,,,,,,,,,,,,,,,,,,,,,,,,,,,,,,,,,,,,,,,,,,
,,,,,,68f53d22d1c607494e355b9e,66a626ef09d4e21e1a8894ec,673649b3afdf6f0e22894f36,2024-11-14_20h04.39.216,Tarea de género gramatical,2024.2.2,Win32,144.9275362,,,174.9063,186.6093,space,11.6997,,0.062962963,-0.093518519,0,0,0,0,3,3,3,1,4,instructions,"Es muy importante que responda con la mayor rapidez y precisión posibles, ya que cada cadena de letras sólo estará en pantalla durante un instante. Si no responde en ese tiempo, aparecerá el mensaje ""Muy lento"" y el experimento pasará a la siguiente palabra. Los primeros 15 intentos serán de práctica y habrá dos descansos durante la prueba.
Pulse la tecla ESPACIO o toque el botón de abajo para iniciar la parte de práctica.",0,keyboardresponseFM.png,,,,,,,,,,,,,,,,,,,,,,,,,,,,,,,,,,,,,,,,,,,,,,,
,,,,,,68f53d22d1c607494e355b9e,66a626ef09d4e21e1a8894ec,673649b3afdf6f0e22894f36,2024-11-14_20h04.39.216,Tarea de género gramatical,2024.2.2,Win32,144.9275362,,,,,,,,,,,,,,,,,,,,,,,,186.6267,188.571,l,1,1.2815,,[],[],[],[],[],[],[],1.2815,1,188.5712,189.0758,0,0,0,10,1,2011,MAS,CON,150,canal,,l,,,,,,,,,,,,,,,,,
,,,,,,68f53d22d1c607494e355b9e,66a626ef09d4e21e1a8894ec,673649b3afdf6f0e22894f36,2024-11-14_20h04.39.216,Tarea de género gramatical,2024.2.2,Win32,144.9275362,,,,,,,,,,,,,,,,,,,,,,,,189.0769,190.8236,a,1,1.0858,,[],[],[],[],[],[],[],1.0858,1,190.8237,191.3241,0,1,1,3,1,2004,FEM,AGR,150,venta,la,a,,,,,,,,,,,,,,,,,
,,,,,,68f53d22d1c607494e355b9e,66a626ef09d4e21e1a8894ec,673649b3afdf6f0e22894f36,2024-11-14_20h04.39.216,Tarea de género gramatical,2024.2.2,Win32,144.9275362,,,,,,,,,,,,,,,,,,,,,,,,191.325,193.353,l,1,1.359,,[],[],[],[],[],[],[],1.359,1,193.353,193.8547,0,2,2,11,1,2012,MAS,DIS,150,clima,la,l,,,,,,,,,,,,,,,,,
,,,,,,68f53d22d1c607494e355b9e,66a626ef09d4e21e1a8894ec,673649b3afdf6f0e22894f36,2024-11-14_20h04.39.216,Tarea de género gramatical,2024.2.2,Win32,144.9275362,,,,,,,,,,,,,,,,,,,,,,,,193.8559,195.474,l,0,0.9437,,[],[],[],[],[],[],[],0.9437,0,195.4747,195.9699,0,3,3,2,1,2003,FEM,DIS,150,daga,el,a,,,,,,,,,,,,,,,,,
,,,,,,68f53d22d1c607494e355b9e,66a626ef09d4e21e1a8894ec,673649b3afdf6f0e22894f36,2024-11-14_20h04.39.216,Tarea de género gramatical,2024.2.2,Win32,144.9275362,,,,,,,,,,,,,,,,,,,,,,,,195.9708,197.3867,l,1,0.7472,,[],[],[],[],[],[],[],0.7472,1,197.3872,197.8792,0,4,4,9,1,2010,MAS,AGR,150,vecino,el,l,,,,,,,,,,,,,,,,,
,,,,,,68f53d22d1c607494e355b9e,66a626ef09d4e21e1a8894ec,673649b3afdf6f0e22894f36,2024-11-14_20h04.39.216,Tarea de género gramatical,2024.2.2,Win32,144.9275362,,,,,,,,,,,,,,,,,,,,,,,,197.8802,199.3833,a,1,0.8412,,[],[],[],[],[],[],[],0.8412,1,199.3834,199.8785,0,5,5,6,1,2007,FEM,AGR,150,navaja,la,a,,,,,,,,,,,,,,,,,
,,,,,,68f53d22d1c607494e355b9e,66a626ef09d4e21e1a8894ec,673649b3afdf6f0e22894f36,2024-11-14_20h04.39.216,Tarea de género gramatical,2024.2.2,Win32,144.9275362,,,,,,,,,,,,,,,,,,,,,,,,199.8794,201.299,a,0,0.7536,,[],[],[],[],[],[],[],0.7536,0,201.2996,201.7943,0,6,6,14,1,2015,MAS,DIS,150,robot,la,l,,,,,,,,,,,,,,,,,
,,,,,,68f53d22d1c607494e355b9e,66a626ef09d4e21e1a8894ec,673649b3afdf6f0e22894f36,2024-11-14_20h04.39.216,Tarea de género gramatical,2024.2.2,Win32,144.9275362,,,,,,,,,,,,,,,,,,,,,,,,201.795,203.2136,l,0,0.7528,,[],[],[],[],[],[],[],0.7528,0,203.2137,203.7126,0,7,7,5,1,2006,FEM,DIS,150,serie,el,a,,,,,,,,,,,,,,,,,
,,,,,,68f53d22d1c607494e355b9e,66a626ef09d4e21e1a8894ec,673649b3afdf6f0e22894f36,2024-11-14_20h04.39.216,Tarea de género gramatical,2024.2.2,Win32,144.9275362,,,,,,,,,,,,,,,,,,,,,,,,203.7135,205.4243,l,1,1.0436,,[],[],[],[],[],[],[],1.0436,1,205.4247,205.9265,0,8,8,8,1,2009,MAS,DIS,150,puerto,la,l,,,,,,,,,,,,,,,,,
,,,,,,68f53d22d1c607494e355b9e,66a626ef09d4e21e1a8894ec,673649b3afdf6f0e22894f36,2024-11-14_20h04.39.216,Tarea de género gramatical,2024.2.2,Win32,144.9275362,,,,,,,,,,,,,,,,,,,,,,,,205.927,207.4723,l,0,0.8737,,[],[],[],[],[],[],[],0.8737,0,207.4727,207.9743,0,9,9,0,1,2001,FEM,AGR,150,nuca,la,a,,,,,,,,,,,,,,,,,
,,,,,,68f53d22d1c607494e355b9e,66a626ef09d4e21e1a8894ec,673649b3afdf6f0e22894f36,2024-11-14_20h04.39.216,Tarea de género gramatical,2024.2.2,Win32,144.9275362,,,,,,,,,,,,,,,,,,,,,,,,207.9749,209.6126,l,1,0.9696,,[],[],[],[],[],[],[],0.9696,1,209.613,210.1165,0,10,10,12,1,2013,MAS,AGR,150,acero,el,l,,,,,,,,,,,,,,,,,
,,,,,,68f53d22d1c607494e355b9e,66a626ef09d4e21e1a8894ec,673649b3afdf6f0e22894f36,2024-11-14_20h04.39.216,Tarea de género gramatical,2024.2.2,Win32,144.9275362,,,,,,,,,,,,,,,,,,,,,,,,210.1171,211.8685,l,0,1.0863,,[],[],[],[],[],[],[],1.0863,0,211.869,212.3634,0,11,11,1,1,2002,FEM,CON,150,pala,,a,,,,,,,,,,,,,,,,,
,,,,,,68f53d22d1c607494e355b9e,66a626ef09d4e21e1a8894ec,673649b3afdf6f0e22894f36,2024-11-14_20h04.39.216,Tarea de género gramatical,2024.2.2,Win32,144.9275362,,,,,,,,,,,,,,,,,,,,,,,,212.364,214.1251,a,1,1.0949,,[],[],[],[],[],[],[],1.0949,1,214.1254,214.6305,0,12,12,7,1,2008,FEM,CON,150,siesta,,a,,,,,,,,,,,,,,,,,
,,,,,,68f53d22d1c607494e355b9e,66a626ef09d4e21e1a8894ec,673649b3afdf6f0e22894f36,2024-11-14_20h04.39.216,Tarea de género gramatical,2024.2.2,Win32,144.9275362,,,,,,,,,,,,,,,,,,,,,,,,214.631,216.0542,l,1,0.755,,[],[],[],[],[],[],[],0.755,1,216.0542,216.5489,0,13,13,13,1,2014,MAS,CON,150,siglo,,l,,,,,,,,,,,,,,,,,
,,,,,,68f53d22d1c607494e355b9e,66a626ef09d4e21e1a8894ec,673649b3afdf6f0e22894f36,2024-11-14_20h04.39.216,Tarea de género gramatical,2024.2.2,Win32,144.9275362,,,,,,,,,,,,,,,,,,,,,,,,216.5493,217.7444,a,1,0.5339,,[],[],[],[],[],[],[],0.5339,1,217.7446,218.2404,0,14,14,4,1,2005,FEM,CON,150,placa,,a,,,,,,,,,,,,,,,,,
,,,,,,68f53d22d1c607494e355b9e,66a626ef09d4e21e1a8894ec,673649b3afdf6f0e22894f36,2024-11-14_20h04.39.216,Tarea de género gramatical,2024.2.2,Win32,144.9275362,,,221.2488,224.8269,space,3.5732,,0.062962963,-0.093518519,0,0,0,,,,,,,,,,,,224.8563,226.8244,l,0,1.3154,,[],[],[],[],[],[],[],1.3154,0,226.8256,227.3256,,,,,,848,FEM,DIS,150,hierba,el,a,227.3258,227.3284,0.062962963,-0.093518519,0,0,0,,0,0,0,397,1,,,,
,,,,,,68f53d22d1c607494e355b9e,66a626ef09d4e21e1a8894ec,673649b3afdf6f0e22894f36,2024-11-14_20h04.39.216,Tarea de género gramatical,2024.2.2,Win32,144.9275362,,,,,,,,,,,,,,,,,,,,,,,,227.329,229.106,l,0,1.114,,[],[],[],[],[],[],[],1.114,0,229.1062,229.6009,,,,,,836,FEM,DIS,150,sombra,el,a,229.6009,229.601,0.062962963,-0.093518519,0,0,0,,0,1,1,385,1,,,,
,,,,,,68f53d22d1c607494e355b9e,66a626ef09d4e21e1a8894ec,673649b3afdf6f0e22894f36,2024-11-14_20h04.39.216,Tarea de género gramatical,2024.2.2,Win32,144.9275362,,,,,,,,,,,,,,,,,,,,,,,,229.6017,230.9786,a,1,0.7201,,[],[],[],[],[],[],[],0.7201,1,230.9795,231.4849,,,,,,519,FEM,AGR,150,rata,la,a,231.4858,231.4862,0.062962963,-0.093518519,0,0,0,,0,2,2,68,1,,,,
,,,,,,68f53d22d1c607494e355b9e,66a626ef09d4e21e1a8894ec,673649b3afdf6f0e22894f36,2024-11-14_20h04.39.216,Tarea de género gramatical,2024.2.2,Win32,144.9275362,,,,,,,,,,,,,,,,,,,,,,,,231.4869,232.7265,a,1,0.5753,,[],[],[],[],[],[],[],0.5753,1,232.7267,233.2266,,,,,,835,FEM,CON,150,muñeca,,a,233.2266,233.2267,0.062962963,-0.093518519,0,0,0,,0,3,3,384,1,,,,
,,,,,,68f53d22d1c607494e355b9e,66a626ef09d4e21e1a8894ec,673649b3afdf6f0e22894f36,2024-11-14_20h04.39.216,Tarea de género gramatical,2024.2.2,Win32,144.9275362,,,,,,,,,,,,,,,,,,,,,,,,233.2271,234.5676,l,1,0.6807,,[],[],[],[],[],[],[],0.6807,1,234.5677,235.0696,,,,,,546,MAS,AGR,150,pato,el,l,235.0696,235.0697,0.062962963,-0.093518519,0,0,0,,0,4,4,95,1,,,,
,,,,,,68f53d22d1c607494e355b9e,66a626ef09d4e21e1a8894ec,673649b3afdf6f0e22894f36,2024-11-14_20h04.39.216,Tarea de género gramatical,2024.2.2,Win32,144.9275362,,,,,,,,,,,,,,,,,,,,,,,,235.0704,236.2082,a,0,0.48,,[],[],[],[],[],[],[],0.48,0,236.2085,236.7094,,,,,,545,MAS,DIS,150,tomo,la,l,236.7095,236.7095,0.062962963,-0.093518519,0,0,0,,0,5,5,94,1,,,,
,,,,,,68f53d22d1c607494e355b9e,66a626ef09d4e21e1a8894ec,673649b3afdf6f0e22894f36,2024-11-14_20h04.39.216,Tarea de género gramatical,2024.2.2,Win32,144.9275362,,,,,,,,,,,,,,,,,,,,,,,,236.7101,238.1455,l,1,0.7709,,[],[],[],[],[],[],[],0.7709,1,238.146,238.6418,,,,,,900,MAS,AGR,150,conejo,el,l,238.6425,238.6429,0.062962963,-0.093518519,0,0,0,,0,6,6,449,1,,,,
,,,,,,68f53d22d1c607494e355b9e,66a626ef09d4e21e1a8894ec,673649b3afdf6f0e22894f36,2024-11-14_20h04.39.216,Tarea de género gramatical,2024.2.2,Win32,144.9275362,,,,,,,,,,,,,,,,,,,,,,,,238.6433,239.7318,a,0,0.4249,,[],[],[],[],[],[],[],0.4249,0,239.7322,240.2246,,,,,,563,MAS,DIS,150,toro,la,l,240.2246,240.2247,0.062962963,-0.093518519,0,0,0,,0,7,7,112,1,,,,
,,,,,,68f53d22d1c607494e355b9e,66a626ef09d4e21e1a8894ec,673649b3afdf6f0e22894f36,2024-11-14_20h04.39.216,Tarea de género gramatical,2024.2.2,Win32,144.9275362,,,,,,,,,,,,,,,,,,,,,,,,240.2251,241.9319,l,1,1.0482,,[],[],[],[],[],[],[],1.0482,1,241.9322,242.4229,,,,,,743,MAS,DIS,150,patio,la,l,242.423,242.423,0.062962963,-0.093518519,0,0,0,,0,8,8,292,1,,,,
,,,,,,68f53d22d1c607494e355b9e,66a626ef09d4e21e1a8894ec,673649b3afdf6f0e22894f36,2024-11-14_20h04.39.216,Tarea de género gramatical,2024.2.2,Win32,144.9275362,,,,,,,,,,,,,,,,,,,,,,,,242.4237,243.9754,l,1,0.8916,,[],[],[],[],[],[],[],0.8916,1,243.9755,244.4612,,,,,,468,MAS,AGR,150,tren,el,l,244.4612,244.4614,0.062962963,-0.093518519,0,0,0,,0,9,9,17,1,,,,
,,,,,,68f53d22d1c607494e355b9e,66a626ef09d4e21e1a8894ec,673649b3afdf6f0e22894f36,2024-11-14_20h04.39.216,Tarea de género gramatical,2024.2.2,Win32,144.9275362,,,,,,,,,,,,,,,,,,,,,,,,244.4626,245.6247,a,1,0.4985,,[],[],[],[],[],[],[],0.4985,1,245.6248,246.1259,,,,,,867,FEM,AGR,150,cabaña,la,a,246.1259,246.126,0.062962963,-0.093518519,0,0,0,,0,10,10,416,1,,,,
,,,,,,68f53d22d1c607494e355b9e,66a626ef09d4e21e1a8894ec,673649b3afdf6f0e22894f36,2024-11-14_20h04.39.216,Tarea de género gramatical,2024.2.2,Win32,144.9275362,,,,,,,,,,,,,,,,,,,,,,,,246.1267,247.3872,l,1,0.5988,,[],[],[],[],[],[],[],0.5988,1,247.3872,247.882,,,,,,628,MAS,CON,150,punto,,l,247.8828,247.8831,0.062962963,-0.093518519,0,0,0,,0,11,11,177,1,,,,
,,,,,,68f53d22d1c607494e355b9e,66a626ef09d4e21e1a8894ec,673649b3afdf6f0e22894f36,2024-11-14_20h04.39.216,Tarea de género gramatical,2024.2.2,Win32,144.9275362,,,,,,,,,,,,,,,,,,,,,,,,247.8837,249.1732,l,1,0.6308,,[],[],[],[],[],[],[],0.6308,1,249.1733,249.664,,,,,,894,MAS,AGR,150,límite,el,l,249.664,249.6641,0.062962963,-0.093518519,0,0,0,,0,12,12,443,1,,,,
,,,,,,68f53d22d1c607494e355b9e,66a626ef09d4e21e1a8894ec,673649b3afdf6f0e22894f36,2024-11-14_20h04.39.216,Tarea de género gramatical,2024.2.2,Win32,144.9275362,,,,,,,,,,,,,,,,,,,,,,,,249.6646,250.8433,a,0,0.5103,,[],[],[],[],[],[],[],0.5103,0,250.8436,251.3424,,,,,,719,MAS,DIS,150,primo,la,l,251.3424,251.3425,0.062962963,-0.093518519,0,0,0,,0,13,13,268,1,,,,
,,,,,,68f53d22d1c607494e355b9e,66a626ef09d4e21e1a8894ec,673649b3afdf6f0e22894f36,2024-11-14_20h04.39.216,Tarea de género gramatical,2024.2.2,Win32,144.9275362,,,,,,,,,,,,,,,,,,,,,,,,251.3431,252.6369,l,0,0.6324,,[],[],[],[],[],[],[],0.6324,0,252.637,253.1393,,,,,,512,FEM,DIS,150,sopa,el,a,253.1393,253.1394,0.062962963,-0.093518519,0,0,0,,0,14,14,61,1,,,,
,,,,,,68f53d22d1c607494e355b9e,66a626ef09d4e21e1a8894ec,673649b3afdf6f0e22894f36,2024-11-14_20h04.39.216,Tarea de género gramatical,2024.2.2,Win32,144.9275362,,,,,,,,,,,,,,,,,,,,,,,,253.1399,254.673,l,1,0.8662,,[],[],[],[],[],[],[],0.8662,1,254.6734,255.1764,,,,,,893,MAS,DIS,150,templo,la,l,255.1772,255.1777,0.062962963,-0.093518519,0,0,0,,0,15,15,442,1,,,,
,,,,,,68f53d22d1c607494e355b9e,66a626ef09d4e21e1a8894ec,673649b3afdf6f0e22894f36,2024-11-14_20h04.39.216,Tarea de género gramatical,2024.2.2,Win32,144.9275362,,,,,,,,,,,,,,,,,,,,,,,,255.1781,256.6744,l,1,0.8348,,[],[],[],[],[],[],[],0.8348,1,256.6744,257.1704,,,,,,762,MAS,AGR,150,equipo,el,l,257.1705,257.1705,0.062962963,-0.093518519,0,0,0,,0,16,16,311,1,,,,
,,,,,,68f53d22d1c607494e355b9e,66a626ef09d4e21e1a8894ec,673649b3afdf6f0e22894f36,2024-11-14_20h04.39.216,Tarea de género gramatical,2024.2.2,Win32,144.9275362,,,,,,,,,,,,,,,,,,,,,,,,257.171,258.6873,l,1,0.855,,[],[],[],[],[],[],[],0.855,1,258.6875,259.1861,,,,,,486,MAS,AGR,150,dedo,el,l,259.1861,259.1863,0.062962963,-0.093518519,0,0,0,,0,17,17,35,1,,,,
,,,,,,68f53d22d1c607494e355b9e,66a626ef09d4e21e1a8894ec,673649b3afdf6f0e22894f36,2024-11-14_20h04.39.216,Tarea de género gramatical,2024.2.2,Win32,144.9275362,,,,,,,,,,,,,,,,,,,,,,,,259.1867,260.5713,l,1,0.7215,,[],[],[],[],[],[],[],0.7215,1,260.5713,261.0638,,,,,,514,MAS,CON,150,saco,,l,261.0639,261.0639,0.062962963,-0.093518519,0,0,0,,0,18,18,63,1,,,,
,,,,,,68f53d22d1c607494e355b9e,66a626ef09d4e21e1a8894ec,673649b3afdf6f0e22894f36,2024-11-14_20h04.39.216,Tarea de género gramatical,2024.2.2,Win32,144.9275362,,,,,,,,,,,,,,,,,,,,,,,,261.0647,262.2411,l,1,0.5168,,[],[],[],[],[],[],[],0.5168,1,262.2411,262.7408,,,,,,622,MAS,CON,150,poder,,l,262.7408,262.7408,0.062962963,-0.093518519,0,0,0,,0,19,19,171,1,,,,
,,,,,,68f53d22d1c607494e355b9e,66a626ef09d4e21e1a8894ec,673649b3afdf6f0e22894f36,2024-11-14_20h04.39.216,Tarea de género gramatical,2024.2.2,Win32,144.9275362,,,,,,,,,,,,,,,,,,,,,,,,262.7414,264.0803,l,1,0.6852,,[],[],[],[],[],[],[],0.6852,1,264.0803,264.5773,,,,,,538,MAS,CON,150,pavo,,l,264.5785,264.5789,0.062962963,-0.093518519,0,0,0,,0,20,20,87,1,,,,
,,,,,,68f53d22d1c607494e355b9e,66a626ef09d4e21e1a8894ec,673649b3afdf6f0e22894f36,2024-11-14_20h04.39.216,Tarea de género gramatical,2024.2.2,Win32,144.9275362,,,,,,,,,,,,,,,,,,,,,,,,264.5795,266.0131,a,1,0.7759,,[],[],[],[],[],[],[],0.7759,1,266.0132,266.5171,,,,,,513,FEM,AGR,150,fila,la,a,266.5171,266.5171,0.062962963,-0.093518519,0,0,0,,0,21,21,62,1,,,,
,,,,,,68f53d22d1c607494e355b9e,66a626ef09d4e21e1a8894ec,673649b3afdf6f0e22894f36,2024-11-14_20h04.39.216,Tarea de género gramatical,2024.2.2,Win32,144.9275362,,,,,,,,,,,,,,,,,,,,,,,,266.5176,267.6657,a,0,0.4892,,[],[],[],[],[],[],[],0.4892,0,267.6662,268.1667,,,,,,641,MAS,DIS,150,dolor,la,l,268.1668,268.167,0.062962963,-0.093518519,0,0,0,,0,22,22,190,1,,,,
,,,,,,68f53d22d1c607494e355b9e,66a626ef09d4e21e1a8894ec,673649b3afdf6f0e22894f36,2024-11-14_20h04.39.216,Tarea de género gramatical,2024.2.2,Win32,144.9275362,,,,,,,,,,,,,,,,,,,,,,,,268.1691,269.359,a,1,0.529,,[],[],[],[],[],[],[],0.529,1,269.3595,269.8588,,,,,,607,FEM,CON,150,madre,,a,269.8589,269.859,0.062962963,-0.093518519,0,0,0,,0,23,23,156,1,,,,
,,,,,,68f53d22d1c607494e355b9e,66a626ef09d4e21e1a8894ec,673649b3afdf6f0e22894f36,2024-11-14_20h04.39.216,Tarea de género gramatical,2024.2.2,Win32,144.9275362,,,,,,,,,,,,,,,,,,,,,,,,269.8597,271.0904,a,1,0.5676,,[],[],[],[],[],[],[],0.5676,1,271.0906,271.5911,,,,,,459,FEM,AGR,150,mamá,la,a,271.5919,271.5923,0.062962963,-0.093518519,0,0,0,,0,24,24,8,1,,,,
,,,,,,68f53d22d1c607494e355b9e,66a626ef09d4e21e1a8894ec,673649b3afdf6f0e22894f36,2024-11-14_20h04.39.216,Tarea de género gramatical,2024.2.2,Win32,144.9275362,,,,,,,,,,,,,,,,,,,,,,,,271.593,272.916,a,0,0.6584,,[],[],[],[],[],[],[],0.6584,0,272.9164,273.4141,,,,,,767,MAS,DIS,150,número,la,l,273.4142,273.4143,0.062962963,-0.093518519,0,0,0,,0,25,25,316,1,,,,
,,,,,,68f53d22d1c607494e355b9e,66a626ef09d4e21e1a8894ec,673649b3afdf6f0e22894f36,2024-11-14_20h04.39.216,Tarea de género gramatical,2024.2.2,Win32,144.9275362,,,,,,,,,,,,,,,,,,,,,,,,273.4152,274.5972,l,1,0.5143,,[],[],[],[],[],[],[],0.5143,1,274.5977,275.0988,,,,,,454,MAS,CON,150,hijo,,l,275.0989,275.099,0.062962963,-0.093518519,0,0,0,,0,26,26,3,1,,,,
,,,,,,68f53d22d1c607494e355b9e,66a626ef09d4e21e1a8894ec,673649b3afdf6f0e22894f36,2024-11-14_20h04.39.216,Tarea de género gramatical,2024.2.2,Win32,144.9275362,,,,,,,,,,,,,,,,,,,,,,,,275.1007,276.5708,l,1,0.8004,,[],[],[],[],[],[],[],0.8004,1,276.5708,277.0622,,,,,,755,MAS,DIS,150,hombre,la,l,277.0622,277.0623,0.062962963,-0.093518519,0,0,0,,0,27,27,304,1,,,,
,,,,,,68f53d22d1c607494e355b9e,66a626ef09d4e21e1a8894ec,673649b3afdf6f0e22894f36,2024-11-14_20h04.39.216,Tarea de género gramatical,2024.2.2,Win32,144.9275362,,,,,,,,,,,,,,,,,,,,,,,,277.0629,278.4221,l,1,0.6923,,[],[],[],[],[],[],[],0.6923,1,278.4221,278.9177,,,,,,623,MAS,DIS,150,libro,la,l,278.9177,278.9177,0.062962963,-0.093518519,0,0,0,,0,28,28,172,1,,,,
,,,,,,68f53d22d1c607494e355b9e,66a626ef09d4e21e1a8894ec,673649b3afdf6f0e22894f36,2024-11-14_20h04.39.216,Tarea de género gramatical,2024.2.2,Win32,144.9275362,,,,,,,,,,,,,,,,,,,,,,,,278.9183,280.3695,l,0,0.7931,,[],[],[],[],[],[],[],0.7931,0,280.3701,280.8665,,,,,,770,FEM,DIS,150,fiesta,el,a,280.8672,280.8675,0.062962963,-0.093518519,0,0,0,,0,29,29,319,1,,,,
,,,,,,68f53d22d1c607494e355b9e,66a626ef09d4e21e1a8894ec,673649b3afdf6f0e22894f36,2024-11-14_20h04.39.216,Tarea de género gramatical,2024.2.2,Win32,144.9275362,,,,,,,,,,,,,,,,,,,,,,,,280.868,282.4881,l,0,0.9603,,[],[],[],[],[],[],[],0.9603,0,282.4882,282.9892,,,,,,799,FEM,CON,150,prensa,,a,282.9892,282.9893,0.062962963,-0.093518519,0,0,0,,0,30,30,348,1,,,,
,,,,,,68f53d22d1c607494e355b9e,66a626ef09d4e21e1a8894ec,673649b3afdf6f0e22894f36,2024-11-14_20h04.39.216,Tarea de género gramatical,2024.2.2,Win32,144.9275362,,,,,,,,,,,,,,,,,,,,,,,,282.9899,284.3058,a,0,0.6547,,[],[],[],[],[],[],[],0.6547,0,284.3058,284.7983,,,,,,695,MAS,DIS,150,turno,la,l,284.7983,284.7983,0.062962963,-0.093518519,0,0,0,,0,31,31,244,1,,,,
,,,,,,68f53d22d1c607494e355b9e,66a626ef09d4e21e1a8894ec,673649b3afdf6f0e22894f36,2024-11-14_20h04.39.216,Tarea de género gramatical,2024.2.2,Win32,144.9275362,,,,,,,,,,,,,,,,,,,,,,,,284.7989,286.0441,l,0,0.5818,,[],[],[],[],[],[],[],0.5818,0,286.0441,286.5393,,,,,,739,FEM,CON,150,tabla,,a,286.5394,286.5395,0.062962963,-0.093518519,0,0,0,,0,32,32,288,1,,,,
,,,,,,68f53d22d1c607494e355b9e,66a626ef09d4e21e1a8894ec,673649b3afdf6f0e22894f36,2024-11-14_20h04.39.216,Tarea de género gramatical,2024.2.2,Win32,144.9275362,,,,,,,,,,,,,,,,,,,,,,,,286.5401,288.1076,a,0,0.8976,,[],[],[],[],[],[],[],0.8976,0,288.1077,288.5959,,,,,,509,MAS,DIS,150,lobo,la,l,288.5967,288.5972,0.062962963,-0.093518519,0,0,0,,0,33,33,58,1,,,,
,,,,,,68f53d22d1c607494e355b9e,66a626ef09d4e21e1a8894ec,673649b3afdf6f0e22894f36,2024-11-14_20h04.39.216,Tarea de género gramatical,2024.2.2,Win32,144.9275362,,,,,,,,,,,,,,,,,,,,,,,,288.5977,289.8242,l,1,0.5706,,[],[],[],[],[],[],[],0.5706,1,289.8245,290.3217,,,,,,570,MAS,AGR,150,puño,el,l,290.3217,290.3217,0.062962963,-0.093518519,0,0,0,,0,34,34,119,1,,,,
,,,,,,68f53d22d1c607494e355b9e,66a626ef09d4e21e1a8894ec,673649b3afdf6f0e22894f36,2024-11-14_20h04.39.216,Tarea de género gramatical,2024.2.2,Win32,144.9275362,,,,,,,,,,,,,,,,,,,,,,,,290.3225,291.7875,a,0,0.8111,,[],[],[],[],[],[],[],0.8111,0,291.7878,292.2893,,,,,,581,MAS,DIS,150,kilo,la,l,292.2893,292.2894,0.062962963,-0.093518519,0,0,0,,0,35,35,130,1,,,,
,,,,,,68f53d22d1c607494e355b9e,66a626ef09d4e21e1a8894ec,673649b3afdf6f0e22894f36,2024-11-14_20h04.39.216,Tarea de género gramatical,2024.2.2,Win32,144.9275362,,,,,,,,,,,,,,,,,,,,,,,,292.2898,293.6692,a,0,0.7161,,[],[],[],[],[],[],[],0.7161,0,293.6694,294.1607,,,,,,665,MAS,DIS,150,hueso,la,l,294.1607,294.1607,0.062962963,-0.093518519,0,0,0,,0,36,36,214,1,,,,
,,,,,,68f53d22d1c607494e355b9e,66a626ef09d4e21e1a8894ec,673649b3afdf6f0e22894f36,2024-11-14_20h04.39.216,Tarea de género gramatical,2024.2.2,Win32,144.9275362,,,,,,,,,,,,,,,,,,,,,,,,294.1613,295.563,l,1,0.7359,,[],[],[],[],[],[],[],0.7359,1,295.5634,296.0613,,,,,,732,MAS,AGR,150,bolso,el,l,296.0614,296.0615,0.062962963,-0.093518519,0,0,0,,0,37,37,281,1,,,,
,,,,,,68f53d22d1c607494e355b9e,66a626ef09d4e21e1a8894ec,673649b3afdf6f0e22894f36,2024-11-14_20h04.39.216,Tarea de género gramatical,2024.2.2,Win32,144.9275362,,,,,,,,,,,,,,,,,,,,,,,,296.0622,297.195,l,0,0.4689,,[],[],[],[],[],[],[],0.4689,0,297.1956,297.6866,,,,,,494,FEM,DIS,150,zona,el,a,297.6874,297.6879,0.062962963,-0.093518519,0,0,0,,0,38,38,43,1,,,,
,,,,,,68f53d22d1c607494e355b9e,66a626ef09d4e21e1a8894ec,673649b3afdf6f0e22894f36,2024-11-14_20h04.39.216,Tarea de género gramatical,2024.2.2,Win32,144.9275362,,,,,,,,,,,,,,,,,,,,,,,,297.6882,298.8021,l,1,0.4429,,[],[],[],[],[],[],[],0.4429,1,298.8025,299.2953,,,,,,756,MAS,AGR,150,dinero,el,l,299.2954,299.2955,0.062962963,-0.093518519,0,0,0,,0,39,39,305,1,,,,
,,,,,,68f53d22d1c607494e355b9e,66a626ef09d4e21e1a8894ec,673649b3afdf6f0e22894f36,2024-11-14_20h04.39.216,Tarea de género gramatical,2024.2.2,Win32,144.9275362,,,,,,,,,,,,,,,,,,,,,,,,299.2959,300.5889,l,1,0.6246,,[],[],[],[],[],[],[],0.6246,1,300.589,301.0866,,,,,,480,MAS,AGR,150,cine,el,l,301.0866,301.0867,0.062962963,-0.093518519,0,0,0,,0,40,40,29,1,,,,
,,,,,,68f53d22d1c607494e355b9e,66a626ef09d4e21e1a8894ec,673649b3afdf6f0e22894f36,2024-11-14_20h04.39.216,Tarea de género gramatical,2024.2.2,Win32,144.9275362,,,,,,,,,,,,,,,,,,,,,,,,301.0872,302.5232,l,0,0.7722,,[],[],[],[],[],[],[],0.7722,0,302.5236,303.0142,,,,,,482,FEM,DIS,150,caja,el,a,303.0142,303.0142,0.062962963,-0.093518519,0,0,0,,0,41,41,31,1,,,,
,,,,,,68f53d22d1c607494e355b9e,66a626ef09d4e21e1a8894ec,673649b3afdf6f0e22894f36,2024-11-14_20h04.39.216,Tarea de género gramatical,2024.2.2,Win32,144.9275362,,,,,,,,,,,,,,,,,,,,,,,,303.0148,305.1913,a,1,1.5158,,[],[],[],[],[],[],[],1.5158,1,305.1916,305.6858,,,,,,723,FEM,AGR,150,tarta,la,a,305.6864,305.6867,0.062962963,-0.093518519,0,0,0,,0,42,42,272,1,,,,
,,,,,,68f53d22d1c607494e355b9e,66a626ef09d4e21e1a8894ec,673649b3afdf6f0e22894f36,2024-11-14_20h04.39.216,Tarea de género gramatical,2024.2.2,Win32,144.9275362,,,,,,,,,,,,,,,,,,,,,,,,305.6872,306.9902,l,1,0.6464,,[],[],[],[],[],[],[],0.6464,1,306.9903,307.4923,,,,,,586,MAS,CON,150,vago,,l,307.4924,307.4925,0.062962963,-0.093518519,0,0,0,,0,43,43,135,1,,,,
,,,,,,68f53d22d1c607494e355b9e,66a626ef09d4e21e1a8894ec,673649b3afdf6f0e22894f36,2024-11-14_20h04.39.216,Tarea de género gramatical,2024.2.2,Win32,144.9275362,,,,,,,,,,,,,,,,,,,,,,,,307.4933,309.0144,a,1,0.8567,,[],[],[],[],[],[],[],0.8567,1,309.0145,309.5101,,,,,,579,FEM,AGR,150,rana,la,a,309.5102,309.5102,0.062962963,-0.093518519,0,0,0,,0,44,44,128,1,,,,
,,,,,,68f53d22d1c607494e355b9e,66a626ef09d4e21e1a8894ec,673649b3afdf6f0e22894f36,2024-11-14_20h04.39.216,Tarea de género gramatical,2024.2.2,Win32,144.9275362,,,,,,,,,,,,,,,,,,,,,,,,309.5107,310.7443,l,1,0.5714,,[],[],[],[],[],[],[],0.5714,1,310.7443,311.258,,,,,,816,MAS,AGR,150,riesgo,el,l,311.2581,311.2582,0.062962963,-0.093518519,0,0,0,,0,45,45,365,1,,,,
,,,,,,68f53d22d1c607494e355b9e,66a626ef09d4e21e1a8894ec,673649b3afdf6f0e22894f36,2024-11-14_20h04.39.216,Tarea de género gramatical,2024.2.2,Win32,144.9275362,,,,,,,,,,,,,,,,,,,,,,,,311.2588,312.497,l,1,0.5693,,[],[],[],[],[],[],[],0.5693,1,312.4971,312.9943,,,,,,528,MAS,AGR,150,oído,el,l,312.9944,312.9944,0.062962963,-0.093518519,0,0,0,,0,46,46,77,1,,,,
,,,,,,68f53d22d1c607494e355b9e,66a626ef09d4e21e1a8894ec,673649b3afdf6f0e22894f36,2024-11-14_20h04.39.216,Tarea de género gramatical,2024.2.2,Win32,144.9275362,,,,,,,,,,,,,,,,,,,,,,,,312.9952,314.225,a,1,0.5714,,[],[],[],[],[],[],[],0.5714,1,314.225,314.7239,,,,,,872,FEM,DIS,150,rutina,el,a,314.7246,314.7249,0.062962963,-0.093518519,0,0,0,,0,47,47,421,1,,,,
,,,,,,68f53d22d1c607494e355b9e,66a626ef09d4e21e1a8894ec,673649b3afdf6f0e22894f36,2024-11-14_20h04.39.216,Tarea de género gramatical,2024.2.2,Win32,144.9275362,,,,,,,,,,,,,,,,,,,,,,,,314.7252,315.7749,l,0,0.3913,,[],[],[],[],[],[],[],0.3913,0,315.7753,316.277,,,,,,596,FEM,DIS,150,lana,el,a,316.277,316.277,0.062962963,-0.093518519,0,0,0,,0,48,48,145,1,,,,
,,,,,,68f53d22d1c607494e355b9e,66a626ef09d4e21e1a8894ec,673649b3afdf6f0e22894f36,2024-11-14_20h04.39.216,Tarea de género gramatical,2024.2.2,Win32,144.9275362,,,,,,,,,,,,,,,,,,,,,,,,316.2776,317.3019,l,0,0.3526,,[],[],[],[],[],[],[],0.3526,0,317.302,317.8034,,,,,,554,FEM,DIS,150,vela,el,a,317.8034,317.8035,0.062962963,-0.093518519,0,0,0,,0,49,49,103,1,,,,
,,,,,,68f53d22d1c607494e355b9e,66a626ef09d4e21e1a8894ec,673649b3afdf6f0e22894f36,2024-11-14_20h04.39.216,Tarea de género gramatical,2024.2.2,Win32,144.9275362,,,,,,,,,,,,,,,,,,,,,,,,317.804,319.0489,l,0,0.5764,,[],[],[],[],[],[],[],0.5764,0,319.0489,319.5452,,,,,,633,FEM,AGR,150,llave,la,a,319.5452,319.5452,0.062962963,-0.093518519,0,0,0,,0,50,50,182,1,,,,
,,,,,,68f53d22d1c607494e355b9e,66a626ef09d4e21e1a8894ec,673649b3afdf6f0e22894f36,2024-11-14_20h04.39.216,Tarea de género gramatical,2024.2.2,Win32,144.9275362,,,,,,,,,,,,,,,,,,,,,,,,319.5458,320.7257,l,1,0.5144,,[],[],[],[],[],[],[],0.5144,1,320.7261,321.224,,,,,,791,MAS,DIS,150,precio,la,l,321.2245,321.2249,0.062962963,-0.093518519,0,0,0,,0,51,51,340,1,,,,
,,,,,,68f53d22d1c607494e355b9e,66a626ef09d4e21e1a8894ec,673649b3afdf6f0e22894f36,2024-11-14_20h04.39.216,Tarea de género gramatical,2024.2.2,Win32,144.9275362,,,,,,,,,,,,,,,,,,,,,,,,321.2254,322.383,a,1,0.484,,[],[],[],[],[],[],[],0.484,1,322.3831,322.8791,,,,,,758,FEM,DIS,150,semana,el,a,322.8792,322.8792,0.062962963,-0.093518519,0,0,0,,0,52,52,307,1,,,,
,,,,,,68f53d22d1c607494e355b9e,66a626ef09d4e21e1a8894ec,673649b3afdf6f0e22894f36,2024-11-14_20h04.39.216,Tarea de género gramatical,2024.2.2,Win32,144.9275362,,,,,,,,,,,,,,,,,,,,,,,,322.8799,323.9396,a,1,0.3971,,[],[],[],[],[],[],[],0.3971,1,323.9397,324.4396,,,,,,841,FEM,CON,150,altura,,a,324.4397,324.4397,0.062962963,-0.093518519,0,0,0,,0,53,53,390,1,,,,
,,,,,,68f53d22d1c607494e355b9e,66a626ef09d4e21e1a8894ec,673649b3afdf6f0e22894f36,2024-11-14_20h04.39.216,Tarea de género gramatical,2024.2.2,Win32,144.9275362,,,,,,,,,,,,,,,,,,,,,,,,324.4403,325.6104,a,1,0.5044,,[],[],[],[],[],[],[],0.5044,1,325.6105,326.1118,,,,,,716,FEM,DIS,150,jaula,el,a,326.1118,326.1119,0.062962963,-0.093518519,0,0,0,,0,54,54,265,1,,,,
,,,,,,68f53d22d1c607494e355b9e,66a626ef09d4e21e1a8894ec,673649b3afdf6f0e22894f36,2024-11-14_20h04.39.216,Tarea de género gramatical,2024.2.2,Win32,144.9275362,,,,,,,,,,,,,,,,,,,,,,,,326.1124,327.2602,l,1,0.4794,,[],[],[],[],[],[],[],0.4794,1,327.2603,327.7567,,,,,,690,MAS,AGR,150,ruido,el,l,327.7569,327.757,0.062962963,-0.093518519,0,0,0,,0,55,55,239,1,,,,
,,,,,,68f53d22d1c607494e355b9e,66a626ef09d4e21e1a8894ec,673649b3afdf6f0e22894f36,2024-11-14_20h04.39.216,Tarea de género gramatical,2024.2.2,Win32,144.9275362,,,,,,,,,,,,,,,,,,,,,,,,327.7586,328.8258,l,1,0.4039,,[],[],[],[],[],[],[],0.4039,1,328.8258,329.3223,,,,,,779,MAS,DIS,150,futuro,la,l,329.3229,329.3233,0.062962963,-0.093518519,0,0,0,,0,56,56,328,1,,,,
,,,,,,68f53d22d1c607494e355b9e,66a626ef09d4e21e1a8894ec,673649b3afdf6f0e22894f36,2024-11-14_20h04.39.216,Tarea de género gramatical,2024.2.2,Win32,144.9275362,,,,,,,,,,,,,,,,,,,,,,,,329.3237,330.5089,a,1,0.5338,,[],[],[],[],[],[],[],0.5338,1,330.5089,331.0051,,,,,,501,FEM,AGR,150,bala,la,a,331.0051,331.0053,0.062962963,-0.093518519,0,0,0,,0,57,57,50,1,,,,
,,,,,,68f53d22d1c607494e355b9e,66a626ef09d4e21e1a8894ec,673649b3afdf6f0e22894f36,2024-11-14_20h04.39.216,Tarea de género gramatical,2024.2.2,Win32,144.9275362,,,,,,,,,,,,,,,,,,,,,,,,331.0058,332.0622,a,1,0.39,,[],[],[],[],[],[],[],0.39,1,332.0622,332.5589,,,,,,698,FEM,DIS,150,letra,el,a,332.559,332.559,0.062962963,-0.093518519,0,0,0,,0,58,58,247,1,,,,
,,,,,,68f53d22d1c607494e355b9e,66a626ef09d4e21e1a8894ec,673649b3afdf6f0e22894f36,2024-11-14_20h04.39.216,Tarea de género gramatical,2024.2.2,Win32,144.9275362,,,,,,,,,,,,,,,,,,,,,,,,332.5599,333.6243,l,1,0.3965,,[],[],[],[],[],[],[],0.3965,1,333.6244,334.1247,,,,,,796,MAS,CON,150,juicio,,l,334.1247,334.1248,0.062962963,-0.093518519,0,0,0,,0,59,59,345,1,,,,
,,,,,,68f53d22d1c607494e355b9e,66a626ef09d4e21e1a8894ec,673649b3afdf6f0e22894f36,2024-11-14_20h04.39.216,Tarea de género gramatical,2024.2.2,Win32,144.9275362,,,,,,,,,,,,,,,,,,,,,,,,334.1253,335.2256,a,1,0.4397,,[],[],[],[],[],[],[],0.4397,1,335.2256,335.7246,,,,,,818,FEM,DIS,150,gracia,el,a,335.7252,335.7256,0.062962963,-0.093518519,0,0,0,,0,60,60,367,1,,,,
,,,,,,68f53d22d1c607494e355b9e,66a626ef09d4e21e1a8894ec,673649b3afdf6f0e22894f36,2024-11-14_20h04.39.216,Tarea de género gramatical,2024.2.2,Win32,144.9275362,,,,,,,,,,,,,,,,,,,,,,,,335.726,336.7263,l,0,0.3466,,[],[],[],[],[],[],[],0.3466,0,336.7267,337.2273,,,,,,649,FEM,CON,150,nariz,,a,337.2273,337.2274,0.062962963,-0.093518519,0,0,0,,0,61,61,198,1,,,,
,,,,,,68f53d22d1c607494e355b9e,66a626ef09d4e21e1a8894ec,673649b3afdf6f0e22894f36,2024-11-14_20h04.39.216,Tarea de género gramatical,2024.2.2,Win32,144.9275362,,,,,,,,,,,,,,,,,,,,,,,,337.2279,338.4461,l,0,0.5598,,[],[],[],[],[],[],[],0.5598,0,338.4461,338.943,,,,,,829,FEM,CON,150,granja,,a,338.9431,338.9431,0.062962963,-0.093518519,0,0,0,,0,62,62,378,1,,,,
,,,,,,68f53d22d1c607494e355b9e,66a626ef09d4e21e1a8894ec,673649b3afdf6f0e22894f36,2024-11-14_20h04.39.216,Tarea de género gramatical,2024.2.2,Win32,144.9275362,,,,,,,,,,,,,,,,,,,,,,,,338.9439,340.0073,l,1,0.4006,,[],[],[],[],[],[],[],0.4006,1,340.0077,340.5038,,,,,,611,MAS,DIS,150,chico,la,l,340.5038,340.5039,0.062962963,-0.093518519,0,0,0,,0,63,63,160,1,,,,
,,,,,,68f53d22d1c607494e355b9e,66a626ef09d4e21e1a8894ec,673649b3afdf6f0e22894f36,2024-11-14_20h04.39.216,Tarea de género gramatical,2024.2.2,Win32,144.9275362,,,,,,,,,,,,,,,,,,,,,,,,340.5045,341.7755,a,1,0.6044,,[],[],[],[],[],[],[],0.6044,1,341.7755,342.2713,,,,,,697,FEM,CON,150,frase,,a,342.2714,342.2715,0.062962963,-0.093518519,0,0,0,,0,64,64,246,1,,,,
,,,,,,68f53d22d1c607494e355b9e,66a626ef09d4e21e1a8894ec,673649b3afdf6f0e22894f36,2024-11-14_20h04.39.216,Tarea de género gramatical,2024.2.2,Win32,144.9275362,,,,,,,,,,,,,,,,,,,,,,,,342.2721,343.3239,l,1,0.384,,[],[],[],[],[],[],[],0.384,1,343.324,343.8241,,,,,,467,MAS,DIS,150,modo,la,l,343.8247,343.8252,0.062962963,-0.093518519,0,0,0,,0,65,65,16,1,,,,
,,,,,,68f53d22d1c607494e355b9e,66a626ef09d4e21e1a8894ec,673649b3afdf6f0e22894f36,2024-11-14_20h04.39.216,Tarea de género gramatical,2024.2.2,Win32,144.9275362,,,,,,,,,,,,,,,,,,,,,,,,343.8257,345.1121,l,1,0.6203,,[],[],[],[],[],[],[],0.6203,1,345.1122,345.609,,,,,,810,MAS,AGR,150,puente,el,l,345.609,345.6091,0.062962963,-0.093518519,0,0,0,,0,66,66,359,1,,,,
,,,,,,68f53d22d1c607494e355b9e,66a626ef09d4e21e1a8894ec,673649b3afdf6f0e22894f36,2024-11-14_20h04.39.216,Tarea de género gramatical,2024.2.2,Win32,144.9275362,,,,,,,,,,,,,,,,,,,,,,,,345.6096,346.7954,l,0,0.508,,[],[],[],[],[],[],[],0.508,0,346.7958,347.2973,,,,,,585,FEM,AGR,150,raíz,la,a,347.2974,347.2974,0.062962963,-0.093518519,0,0,0,,0,67,67,134,1,,,,
,,,,,,68f53d22d1c607494e355b9e,66a626ef09d4e21e1a8894ec,673649b3afdf6f0e22894f36,2024-11-14_20h04.39.216,Tarea de género gramatical,2024.2.2,Win32,144.9275362,,,,,,,,,,,,,,,,,,,,,,,,347.2979,348.3656,l,1,0.405,,[],[],[],[],[],[],[],0.405,1,348.3661,348.8586,,,,,,600,MAS,AGR,150,mozo,el,l,348.8586,348.8587,0.062962963,-0.093518519,0,0,0,,0,68,68,149,1,,,,
,,,,,,68f53d22d1c607494e355b9e,66a626ef09d4e21e1a8894ec,673649b3afdf6f0e22894f36,2024-11-14_20h04.39.216,Tarea de género gramatical,2024.2.2,Win32,144.9275362,,,,,,,,,,,,,,,,,,,,,,,,348.8591,350.0213,a,1,0.4962,,[],[],[],[],[],[],[],0.4962,1,350.0213,350.5172,,,,,,794,FEM,DIS,150,pareja,el,a,350.518,350.5183,0.062962963,-0.093518519,0,0,0,,0,69,69,343,1,,,,
,,,,,,68f53d22d1c607494e355b9e,66a626ef09d4e21e1a8894ec,673649b3afdf6f0e22894f36,2024-11-14_20h04.39.216,Tarea de género gramatical,2024.2.2,Win32,144.9275362,,,,,,,,,,,,,,,,,,,,,,,,350.5187,351.689,l,1,0.5063,,[],[],[],[],[],[],[],0.5063,1,351.689,352.1874,,,,,,599,MAS,DIS,150,nudo,la,l,352.1874,352.1875,0.062962963,-0.093518519,0,0,0,,0,70,70,148,1,,,,
,,,,,,68f53d22d1c607494e355b9e,66a626ef09d4e21e1a8894ec,673649b3afdf6f0e22894f36,2024-11-14_20h04.39.216,Tarea de género gramatical,2024.2.2,Win32,144.9275362,,,,,,,,,,,,,,,,,,,,,,,,352.1883,353.2498,a,1,0.4001,,[],[],[],[],[],[],[],0.4001,1,353.2498,353.7526,,,,,,873,FEM,AGR,150,poesía,la,a,353.7527,353.7527,0.062962963,-0.093518519,0,0,0,,0,71,71,422,1,,,,
,,,,,,68f53d22d1c607494e355b9e,66a626ef09d4e21e1a8894ec,673649b3afdf6f0e22894f36,2024-11-14_20h04.39.216,Tarea de género gramatical,2024.2.2,Win32,144.9275362,,,,,,,,,,,,,,,,,,,,,,,,353.7534,354.7209,l,0,0.3057,,[],[],[],[],[],[],[],0.3057,0,354.7216,355.2265,,,,,,854,FEM,DIS,150,gloria,el,a,355.2265,355.2266,0.062962963,-0.093518519,0,0,0,,0,72,72,403,1,,,,
,,,,,,68f53d22d1c607494e355b9e,66a626ef09d4e21e1a8894ec,673649b3afdf6f0e22894f36,2024-11-14_20h04.39.216,Tarea de género gramatical,2024.2.2,Win32,144.9275362,,,,,,,,,,,,,,,,,,,,,,,,355.2277,356.2892,l,0,0.3905,,[],[],[],[],[],[],[],0.3905,0,356.2892,356.7892,,,,,,547,FEM,CON,150,capa,,a,356.7893,356.7893,0.062962963,-0.093518519,0,0,0,,0,73,73,96,1,,,,
,,,,,,68f53d22d1c607494e355b9e,66a626ef09d4e21e1a8894ec,673649b3afdf6f0e22894f36,2024-11-14_20h04.39.216,Tarea de género gramatical,2024.2.2,Win32,144.9275362,,,,,,,,,,,,,,,,,,,,,,,,356.7899,358.0221,a,1,0.5662,,[],[],[],[],[],[],[],0.5662,1,358.0226,358.518,,,,,,518,FEM,DIS,150,pata,el,a,358.5185,358.5189,0.062962963,-0.093518519,0,0,0,,0,74,74,67,1,,,,
,,,,,,68f53d22d1c607494e355b9e,66a626ef09d4e21e1a8894ec,673649b3afdf6f0e22894f36,2024-11-14_20h04.39.216,Tarea de género gramatical,2024.2.2,Win32,144.9275362,,,,,,,,,,,,,,,,,,,,,,,,358.5192,359.7287,a,1,0.5469,,[],[],[],[],[],[],[],0.5469,1,359.7287,360.2326,,,,,,483,FEM,AGR,150,boda,la,a,360.2327,360.2329,0.062962963,-0.093518519,0,0,0,,0,75,75,32,1,,,,
,,,,,,68f53d22d1c607494e355b9e,66a626ef09d4e21e1a8894ec,673649b3afdf6f0e22894f36,2024-11-14_20h04.39.216,Tarea de género gramatical,2024.2.2,Win32,144.9275362,,,,,,,,,,,,,,,,,,,,,,,,360.2338,361.2905,l,1,0.3979,,[],[],[],[],[],[],[],0.3979,1,361.2905,361.792,,,,,,738,MAS,AGR,150,grado,el,l,361.792,361.792,0.062962963,-0.093518519,0,0,0,,0,76,76,287,1,,,,
,,,,,,68f53d22d1c607494e355b9e,66a626ef09d4e21e1a8894ec,673649b3afdf6f0e22894f36,2024-11-14_20h04.39.216,Tarea de género gramatical,2024.2.2,Win32,144.9275362,,,,,,,,,,,,,,,,,,,,,,,,361.7928,362.9382,l,1,0.4871,,[],[],[],[],[],[],[],0.4871,1,362.9383,363.4367,,,,,,540,MAS,AGR,150,león,el,l,363.4367,363.4367,0.062962963,-0.093518519,0,0,0,,0,77,77,89,1,,,,
,,,,,,68f53d22d1c607494e355b9e,66a626ef09d4e21e1a8894ec,673649b3afdf6f0e22894f36,2024-11-14_20h04.39.216,Tarea de género gramatical,2024.2.2,Win32,144.9275362,,,,,,,,,,,,,,,,,,,,,,,,363.4373,364.4162,l,1,0.3093,,[],[],[],[],[],[],[],0.3093,1,364.4163,364.9163,,,,,,852,MAS,AGR,150,ladrón,el,l,364.9169,364.9172,0.062962963,-0.093518519,0,0,0,,0,78,78,401,1,,,,
,,,,,,68f53d22d1c607494e355b9e,66a626ef09d4e21e1a8894ec,673649b3afdf6f0e22894f36,2024-11-14_20h04.39.216,Tarea de género gramatical,2024.2.2,Win32,144.9275362,,,,,,,,,,,,,,,,,,,,,,,,364.9176,366.0261,a,1,0.4448,,[],[],[],[],[],[],[],0.4448,1,366.0262,366.5269,,,,,,589,FEM,CON,150,pipa,,a,366.527,366.527,0.062962963,-0.093518519,0,0,0,,0,79,79,138,1,,,,
,,,,,,68f53d22d1c607494e355b9e,66a626ef09d4e21e1a8894ec,673649b3afdf6f0e22894f36,2024-11-14_20h04.39.216,Tarea de género gramatical,2024.2.2,Win32,144.9275362,,,,,,,,,,,,,,,,,,,,,,,,366.5275,367.5405,a,1,0.3497,,[],[],[],[],[],[],[],0.3497,1,367.5406,368.0356,,,,,,789,FEM,AGR,150,salida,la,a,368.0356,368.0357,0.062962963,-0.093518519,0,0,0,,0,80,80,338,1,,,,
,,,,,,68f53d22d1c607494e355b9e,66a626ef09d4e21e1a8894ec,673649b3afdf6f0e22894f36,2024-11-14_20h04.39.216,Tarea de género gramatical,2024.2.2,Win32,144.9275362,,,,,,,,,,,,,,,,,,,,,,,,368.0362,368.96,l,0,0.2626,,[],[],[],[],[],[],[],0.2626,0,368.9605,369.4593,,,,,,578,FEM,DIS,150,leña,el,a,369.4593,369.4595,0.062962963,-0.093518519,0,0,0,,0,81,81,127,1,,,,
,,,,,,68f53d22d1c607494e355b9e,66a626ef09d4e21e1a8894ec,673649b3afdf6f0e22894f36,2024-11-14_20h04.39.216,Tarea de género gramatical,2024.2.2,Win32,144.9275362,,,,,,,,,,,,,,,,,,,,,,,,369.4601,370.5495,a,1,0.4325,,[],[],[],[],[],[],[],0.4325,1,370.5499,371.0552,,,,,,577,FEM,CON,150,cuna,,a,371.0552,371.0553,0.062962963,-0.093518519,0,0,0,,0,82,82,126,1,,,,
,,,,,,68f53d22d1c607494e355b9e,66a626ef09d4e21e1a8894ec,673649b3afdf6f0e22894f36,2024-11-14_20h04.39.216,Tarea de género gramatical,2024.2.2,Win32,144.9275362,,,,,,,,,,,,,,,,,,,,,,,,371.0558,372.1656,l,1,0.4487,,[],[],[],[],[],[],[],0.4487,1,372.1657,372.66,,,,,,652,MAS,CON,150,honor,,l,372.6606,372.661,0.062962963,-0.093518519,0,0,0,,0,83,83,201,1,,,,
,,,,,,68f53d22d1c607494e355b9e,66a626ef09d4e21e1a8894ec,673649b3afdf6f0e22894f36,2024-11-14_20h04.39.216,Tarea de género gramatical,2024.2.2,Win32,144.9275362,,,,,,,,,,,,,,,,,,,,,,,,372.6614,373.8353,l,1,0.5163,,[],[],[],[],[],[],[],0.5163,1,373.8353,374.3278,,,,,,455,MAS,DIS,150,tipo,la,l,374.3279,374.328,0.062962963,-0.093518519,0,0,0,,0,84,84,4,1,,,,
,,,,,,68f53d22d1c607494e355b9e,66a626ef09d4e21e1a8894ec,673649b3afdf6f0e22894f36,2024-11-14_20h04.39.216,Tarea de género gramatical,2024.2.2,Win32,144.9275362,,,,,,,,,,,,,,,,,,,,,,,,374.3285,375.3268,l,1,0.3411,,[],[],[],[],[],[],[],0.3411,1,375.3268,375.8201,,,,,,558,MAS,AGR,150,hilo,el,l,375.8201,375.8202,0.062962963,-0.093518519,0,0,0,,0,85,85,107,1,,,,
,,,,,,68f53d22d1c607494e355b9e,66a626ef09d4e21e1a8894ec,673649b3afdf6f0e22894f36,2024-11-14_20h04.39.216,Tarea de género gramatical,2024.2.2,Win32,144.9275362,,,,,,,,,,,,,,,,,,,,,,,,375.8207,377.1007,l,0,0.6231,,[],[],[],[],[],[],[],0.6231,0,377.1015,377.5971,,,,,,517,FEM,CON,150,miel,,a,377.5971,377.5972,0.062962963,-0.093518519,0,0,0,,0,86,86,66,1,,,,
,,,,,,68f53d22d1c607494e355b9e,66a626ef09d4e21e1a8894ec,673649b3afdf6f0e22894f36,2024-11-14_20h04.39.216,Tarea de género gramatical,2024.2.2,Win32,144.9275362,,,,,,,,,,,,,,,,,,,,,,,,377.5976,378.7796,a,1,0.5214,,[],[],[],[],[],[],[],0.5214,1,378.78,379.2754,,,,,,782,FEM,DIS,150,basura,el,a,379.276,379.2765,0.062962963,-0.093518519,0,0,0,,0,87,87,331,1,,,,
,,,,,,68f53d22d1c607494e355b9e,66a626ef09d4e21e1a8894ec,673649b3afdf6f0e22894f36,2024-11-14_20h04.39.216,Tarea de género gramatical,2024.2.2,Win32,144.9275362,,,,,,,,,,,,,,,,,,,,,,,,379.2769,380.2619,l,1,0.3196,,[],[],[],[],[],[],[],0.3196,1,380.2619,380.7646,,,,,,456,MAS,AGR,150,lado,el,l,380.7647,380.7647,0.062962963,-0.093518519,0,0,0,,0,88,88,5,1,,,,
,,,,,,68f53d22d1c607494e355b9e,66a626ef09d4e21e1a8894ec,673649b3afdf6f0e22894f36,2024-11-14_20h04.39.216,Tarea de género gramatical,2024.2.2,Win32,144.9275362,,,,,,,,,,,,,,,,,,,,,,,,380.7654,381.7175,l,1,0.2862,,[],[],[],[],[],[],[],0.2862,1,381.7176,382.2148,,,,,,634,MAS,CON,150,cielo,,l,382.2148,382.215,0.062962963,-0.093518519,0,0,0,,0,89,89,183,1,,,,
,,,,,,68f53d22d1c607494e355b9e,66a626ef09d4e21e1a8894ec,673649b3afdf6f0e22894f36,2024-11-14_20h04.39.216,Tarea de género gramatical,2024.2.2,Win32,144.9275362,,,,,,,,,,,,,,,,,,,,,,,,382.217,383.2705,l,1,0.3959,,[],[],[],[],[],[],[],0.3959,1,383.2706,383.7736,,,,,,720,MAS,AGR,150,queso,el,l,383.7736,383.7736,0.062962963,-0.093518519,0,0,0,,0,90,90,269,1,,,,
,,,,,,68f53d22d1c607494e355b9e,66a626ef09d4e21e1a8894ec,673649b3afdf6f0e22894f36,2024-11-14_20h04.39.216,Tarea de género gramatical,2024.2.2,Win32,144.9275362,,,,,,,,,,,,,,,,,,,,,,,,383.7742,384.9523,a,1,0.5129,,[],[],[],[],[],[],[],0.5129,1,384.9523,385.4548,,,,,,847,FEM,CON,150,cuerda,,a,385.4549,385.4549,0.062962963,-0.093518519,0,0,0,,0,91,91,396,1,,,,
,,,,,,68f53d22d1c607494e355b9e,66a626ef09d4e21e1a8894ec,673649b3afdf6f0e22894f36,2024-11-14_20h04.39.216,Tarea de género gramatical,2024.2.2,Win32,144.9275362,,,,,,,,,,,,,,,,,,,,,,,,385.4554,386.5308,l,1,0.4054,,[],[],[],[],[],[],[],0.4054,1,386.5309,387.0264,,,,,,677,MAS,DIS,150,vuelo,la,l,387.0269,387.0274,0.062962963,-0.093518519,0,0,0,,0,92,92,226,1,,,,
,,,,,,68f53d22d1c607494e355b9e,66a626ef09d4e21e1a8894ec,673649b3afdf6f0e22894f36,2024-11-14_20h04.39.216,Tarea de género gramatical,2024.2.2,Win32,144.9275362,,,,,,,,,,,,,,,,,,,,,,,,387.0277,388.0921,l,1,0.407,,[],[],[],[],[],[],[],0.407,1,388.0921,388.592,,,,,,726,MAS,AGR,150,ritmo,el,l,388.592,388.5921,0.062962963,-0.093518519,0,0,0,,0,93,93,275,1,,,,
,,,,,,68f53d22d1c607494e355b9e,66a626ef09d4e21e1a8894ec,673649b3afdf6f0e22894f36,2024-11-14_20h04.39.216,Tarea de género gramatical,2024.2.2,Win32,144.9275362,,,,,,,,,,,,,,,,,,,,,,,,388.5925,389.5933,l,1,0.3362,,[],[],[],[],[],[],[],0.3362,1,389.5933,390.0938,,,,,,707,MAS,DIS,150,pecho,la,l,390.0939,390.0939,0.062962963,-0.093518519,0,0,0,,0,94,94,256,1,,,,
,,,,,,68f53d22d1c607494e355b9e,66a626ef09d4e21e1a8894ec,673649b3afdf6f0e22894f36,2024-11-14_20h04.39.216,Tarea de género gramatical,2024.2.2,Win32,144.9275362,,,,,,,,,,,,,,,,,,,,,,,,390.0946,391.0254,l,1,0.2698,,[],[],[],[],[],[],[],0.2698,1,391.0254,391.5153,,,,,,749,MAS,DIS,150,rumbo,la,l,391.5153,391.5154,0.062962963,-0.093518519,0,0,0,,0,95,95,298,1,,,,
,,,,,,68f53d22d1c607494e355b9e,66a626ef09d4e21e1a8894ec,673649b3afdf6f0e22894f36,2024-11-14_20h04.39.216,Tarea de género gramatical,2024.2.2,Win32,144.9275362,,,,,,,,,,,,,,,,,,,,,,,,391.5159,392.7227,a,1,0.5453,,[],[],[],[],[],[],[],0.5453,1,392.7227,393.2259,,,,,,837,FEM,AGR,150,página,la,a,393.2264,393.2269,0.062962963,-0.093518519,0,0,0,,0,96,96,386,1,,,,
,,,,,,68f53d22d1c607494e355b9e,66a626ef09d4e21e1a8894ec,673649b3afdf6f0e22894f36,2024-11-14_20h04.39.216,Tarea de género gramatical,2024.2.2,Win32,144.9275362,,,,,,,,,,,,,,,,,,,,,,,,393.2277,394.3838,a,1,0.4921,,[],[],[],[],[],[],[],0.4921,1,394.3838,394.8772,,,,,,776,FEM,DIS,150,música,el,a,394.8772,394.8773,0.062962963,-0.093518519,0,0,0,,0,97,97,325,1,,,,
,,,,,,68f53d22d1c607494e355b9e,66a626ef09d4e21e1a8894ec,673649b3afdf6f0e22894f36,2024-11-14_20h04.39.216,Tarea de género gramatical,2024.2.2,Win32,144.9275362,,,,,,,,,,,,,,,,,,,,,,,,394.8778,395.9575,l,0,0.4156,,[],[],[],[],[],[],[],0.4156,0,395.9579,396.4551,,,,,,613,FEM,CON,150,calle,,a,396.4551,396.4552,0.062962963,-0.093518519,0,0,0,,0,98,98,162,1,,,,
,,,,,,68f53d22d1c607494e355b9e,66a626ef09d4e21e1a8894ec,673649b3afdf6f0e22894f36,2024-11-14_20h04.39.216,Tarea de género gramatical,2024.2.2,Win32,144.9275362,,,,,,,,,,,,,,,,,,,,,,,,396.4557,397.6787,a,1,0.5645,,[],[],[],[],[],[],[],0.5645,1,397.6791,398.1789,,,,,,669,FEM,AGR,150,costa,la,a,398.1789,398.179,0.062962963,-0.093518519,0,0,0,,0,99,99,218,1,,,,
,,,,,,68f53d22d1c607494e355b9e,66a626ef09d4e21e1a8894ec,673649b3afdf6f0e22894f36,2024-11-14_20h04.39.216,Tarea de género gramatical,2024.2.2,Win32,144.9275362,,,,,,,,,,,,,,,,,,,,,,,,398.1796,399.3781,l,0,0.536,,[],[],[],[],[],[],[],0.536,0,399.3787,399.8704,,,,,,643,FEM,CON,150,bolsa,,a,399.8704,399.8705,0.062962963,-0.093518519,0,0,0,,0,100,100,192,1,,,,
,,,,,,68f53d22d1c607494e355b9e,66a626ef09d4e21e1a8894ec,673649b3afdf6f0e22894f36,2024-11-14_20h04.39.216,Tarea de género gramatical,2024.2.2,Win32,144.9275362,,,,,,,,,,,,,,,,,,,,,,,,399.8711,400.6171,a,1,0.0818,,[],[],[],[],[],[],[],0.0818,1,400.6177,401.1356,,,,,,890,FEM,DIS,150,patada,el,a,401.1376,401.1391,0.062962963,-0.093518519,0,0,0,,0,101,101,439,1,,,,
,,,,,,68f53d22d1c607494e355b9e,66a626ef09d4e21e1a8894ec,673649b3afdf6f0e22894f36,2024-11-14_20h04.39.216,Tarea de género gramatical,2024.2.2,Win32,144.9275362,,,,,,,,,,,,,,,,,,,,,,,,401.1404,402.0989,a,1,0.3051,,[],[],[],[],[],[],[],0.3051,1,402.099,402.5996,,,,,,745,FEM,CON,150,grasa,,a,402.5996,402.5997,0.062962963,-0.093518519,0,0,0,,0,102,102,294,1,,,,
,,,,,,68f53d22d1c607494e355b9e,66a626ef09d4e21e1a8894ec,673649b3afdf6f0e22894f36,2024-11-14_20h04.39.216,Tarea de género gramatical,2024.2.2,Win32,144.9275362,,,,,,,,,,,,,,,,,,,,,,,,402.6002,403.6172,a,1,0.3545,,[],[],[],[],[],[],[],0.3545,1,403.6172,404.109,,,,,,680,FEM,DIS,150,regla,el,a,404.1091,404.1092,0.062962963,-0.093518519,0,0,0,,0,103,103,229,1,,,,
,,,,,,68f53d22d1c607494e355b9e,66a626ef09d4e21e1a8894ec,673649b3afdf6f0e22894f36,2024-11-14_20h04.39.216,Tarea de género gramatical,2024.2.2,Win32,144.9275362,,,,,,,,,,,,,,,,,,,,,,,,404.1097,405.3416,a,1,0.5609,,[],[],[],[],[],[],[],0.5609,1,405.3416,405.8374,,,,,,470,FEM,DIS,150,ropa,el,a,405.8375,405.8375,0.062962963,-0.093518519,0,0,0,,0,104,104,19,1,,,,
,,,,,,68f53d22d1c607494e355b9e,66a626ef09d4e21e1a8894ec,673649b3afdf6f0e22894f36,2024-11-14_20h04.39.216,Tarea de género gramatical,2024.2.2,Win32,144.9275362,,,,,,,,,,,,,,,,,,,,,,,,405.8381,406.8937,l,1,0.4006,,[],[],[],[],[],[],[],0.4006,1,406.8938,407.3918,,,,,,708,MAS,AGR,150,polvo,el,l,407.3923,407.3927,0.062962963,-0.093518519,0,0,0,,0,105,105,257,1,,,,
,,,,,,68f53d22d1c607494e355b9e,66a626ef09d4e21e1a8894ec,673649b3afdf6f0e22894f36,2024-11-14_20h04.39.216,Tarea de género gramatical,2024.2.2,Win32,144.9275362,,,,,,,,,,,,,,,,,,,,,,,,407.393,408.5459,l,0,0.4951,,[],[],[],[],[],[],[],0.4951,0,408.5465,409.0484,,,,,,595,FEM,CON,150,bota,,a,409.0485,409.0486,0.062962963,-0.093518519,0,0,0,,0,106,106,144,1,,,,
,,,,,,68f53d22d1c607494e355b9e,66a626ef09d4e21e1a8894ec,673649b3afdf6f0e22894f36,2024-11-14_20h04.39.216,Tarea de género gramatical,2024.2.2,Win32,144.9275362,,,,,,,,,,,,,,,,,,,,,,,,409.0491,410.0795,l,1,0.3661,,[],[],[],[],[],[],[],0.3661,1,410.0799,410.58,,,,,,582,MAS,AGR,150,velo,el,l,410.5801,410.5801,0.062962963,-0.093518519,0,0,0,,0,107,107,131,1,,,,
,,,,,,68f53d22d1c607494e355b9e,66a626ef09d4e21e1a8894ec,673649b3afdf6f0e22894f36,2024-11-14_20h04.39.216,Tarea de género gramatical,2024.2.2,Win32,144.9275362,,,,,,,,,,,,,,,,,,,,,,,,410.5806,411.5857,a,1,0.3438,,[],[],[],[],[],[],[],0.3438,1,411.5857,412.0899,,,,,,711,FEM,AGR,150,cueva,la,a,412.0899,412.0899,0.062962963,-0.093518519,0,0,0,,0,108,108,260,1,,,,
,,,,,,68f53d22d1c607494e355b9e,66a626ef09d4e21e1a8894ec,673649b3afdf6f0e22894f36,2024-11-14_20h04.39.216,Tarea de género gramatical,2024.2.2,Win32,144.9275362,,,,,,,,,,,,,,,,,,,,,,,,412.0905,413.1975,a,1,0.4332,,[],[],[],[],[],[],[],0.4332,1,413.1975,413.6919,,,,,,811,FEM,CON,150,oferta,,a,413.6919,413.6919,0.062962963,-0.093518519,0,0,0,,0,109,109,360,1,,,,
,,,,,,68f53d22d1c607494e355b9e,66a626ef09d4e21e1a8894ec,673649b3afdf6f0e22894f36,2024-11-14_20h04.39.216,Tarea de género gramatical,2024.2.2,Win32,144.9275362,,,,,,,,,,,,,,,,,,,,,,,,413.6925,414.6831,a,1,0.3138,,[],[],[],[],[],[],[],0.3138,1,414.6831,415.1846,,,,,,489,FEM,AGR,150,luna,la,a,415.1853,415.1855,0.062962963,-0.093518519,0,0,0,,0,110,110,38,1,,,,
,,,,,,68f53d22d1c607494e355b9e,66a626ef09d4e21e1a8894ec,673649b3afdf6f0e22894f36,2024-11-14_20h04.39.216,Tarea de género gramatical,2024.2.2,Win32,144.9275362,,,,,,,,,,,,,,,,,,,,,,,,415.1859,416.1244,a,1,0.2801,,[],[],[],[],[],[],[],0.2801,1,416.1244,416.6166,,,,,,555,FEM,AGR,150,jefa,la,a,416.6168,416.6168,0.062962963,-0.093518519,0,0,0,,0,111,111,104,1,,,,
,,,,,,68f53d22d1c607494e355b9e,66a626ef09d4e21e1a8894ec,673649b3afdf6f0e22894f36,2024-11-14_20h04.39.216,Tarea de género gramatical,2024.2.2,Win32,144.9275362,,,,,,,,,,,,,,,,,,,,,,,,416.6174,417.5792,a,1,0.2995,,[],[],[],[],[],[],[],0.2995,1,417.5793,418.076,,,,,,451,FEM,CON,150,casa,,a,418.0761,418.0761,0.062962963,-0.093518519,0,0,0,,0,112,112,0,1,,,,
,,,,,,68f53d22d1c607494e355b9e,66a626ef09d4e21e1a8894ec,673649b3afdf6f0e22894f36,2024-11-14_20h04.39.216,Tarea de género gramatical,2024.2.2,Win32,144.9275362,,,,,,,,,,,,,,,,,,,,,,,,418.0768,419.1802,a,1,0.4338,,[],[],[],[],[],[],[],0.4338,1,419.1802,419.6815,,,,,,687,FEM,AGR,150,ducha,la,a,419.6816,419.6817,0.062962963,-0.093518519,0,0,0,,0,113,113,236,1,,,,
,,,,,,68f53d22d1c607494e355b9e,66a626ef09d4e21e1a8894ec,673649b3afdf6f0e22894f36,2024-11-14_20h04.39.216,Tarea de género gramatical,2024.2.2,Win32,144.9275362,,,,,,,,,,,,,,,,,,,,,,,,419.6822,420.6428,a,1,0.2998,,[],[],[],[],[],[],[],0.2998,1,420.6429,421.1435,,,,,,703,FEM,CON,150,aldea,,a,421.1441,421.1445,0.062962963,-0.093518519,0,0,0,,0,114,114,252,1,,,,
,,,,,,68f53d22d1c607494e355b9e,66a626ef09d4e21e1a8894ec,673649b3afdf6f0e22894f36,2024-11-14_20h04.39.216,Tarea de género gramatical,2024.2.2,Win32,144.9275362,,,,,,,,,,,,,,,,,,,,,,,,421.1449,422.2098,a,1,0.3938,,[],[],[],[],[],[],[],0.3938,1,422.2098,422.7081,,,,,,500,FEM,DIS,150,dama,el,a,422.7082,422.7082,0.062962963,-0.093518519,0,0,0,,0,115,115,49,1,,,,
,,,,,,68f53d22d1c607494e355b9e,66a626ef09d4e21e1a8894ec,673649b3afdf6f0e22894f36,2024-11-14_20h04.39.216,Tarea de género gramatical,2024.2.2,Win32,144.9275362,,,,,,,,,,,,,,,,,,,,,,,,422.7087,423.7626,l,1,0.397,,[],[],[],[],[],[],[],0.397,1,423.7628,424.2616,,,,,,761,MAS,DIS,150,camino,la,l,424.2617,424.2617,0.062962963,-0.093518519,0,0,0,,0,116,116,310,1,,,,
,,,,,,68f53d22d1c607494e355b9e,66a626ef09d4e21e1a8894ec,673649b3afdf6f0e22894f36,2024-11-14_20h04.39.216,Tarea de género gramatical,2024.2.2,Win32,144.9275362,,,,,,,,,,,,,,,,,,,,,,,,424.2622,425.5046,a,1,0.579,,[],[],[],[],[],[],[],0.579,1,425.5046,425.9981,,,,,,727,FEM,CON,150,plaza,,a,425.9982,425.9982,0.062962963,-0.093518519,0,0,0,,0,117,117,276,1,,,,
,,,,,,68f53d22d1c607494e355b9e,66a626ef09d4e21e1a8894ec,673649b3afdf6f0e22894f36,2024-11-14_20h04.39.216,Tarea de género gramatical,2024.2.2,Win32,144.9275362,,,,,,,,,,,,,,,,,,,,,,,,425.9987,426.9587,a,1,0.2922,,[],[],[],[],[],[],[],0.2922,1,426.9588,427.4523,,,,,,603,FEM,AGR,150,mujer,la,a,427.4523,427.4523,0.062962963,-0.093518519,0,0,0,,0,118,118,152,1,,,,
,,,,,,68f53d22d1c607494e355b9e,66a626ef09d4e21e1a8894ec,673649b3afdf6f0e22894f36,2024-11-14_20h04.39.216,Tarea de género gramatical,2024.2.2,Win32,144.9275362,,,,,,,,,,,,,,,,,,,,,,,,427.453,428.4619,l,1,0.3554,,[],[],[],[],[],[],[],0.3554,1,428.462,428.9586,,,,,,532,MAS,CON,150,tubo,,l,428.9592,428.9596,0.062962963,-0.093518519,0,0,0,,0,119,119,81,1,,,,
,,,,,,68f53d22d1c607494e355b9e,66a626ef09d4e21e1a8894ec,673649b3afdf6f0e22894f36,2024-11-14_20h04.39.216,Tarea de género gramatical,2024.2.2,Win32,144.9275362,,,,,,,,,,,,,,,,,,,,,,,,428.9599,430.055,a,1,0.427,,[],[],[],[],[],[],[],0.427,1,430.055,430.5585,,,,,,710,FEM,DIS,150,barra,el,a,430.5585,430.5586,0.062962963,-0.093518519,0,0,0,,0,120,120,259,1,,,,
,,,,,,68f53d22d1c607494e355b9e,66a626ef09d4e21e1a8894ec,673649b3afdf6f0e22894f36,2024-11-14_20h04.39.216,Tarea de género gramatical,2024.2.2,Win32,144.9275362,,,,,,,,,,,,,,,,,,,,,,,,430.5591,431.5311,l,1,0.3023,,[],[],[],[],[],[],[],0.3023,1,431.5311,432.0263,,,,,,730,MAS,CON,150,salón,,l,432.0263,432.0264,0.062962963,-0.093518519,0,0,0,,0,121,121,279,1,,,,
,,,,,,68f53d22d1c607494e355b9e,66a626ef09d4e21e1a8894ec,673649b3afdf6f0e22894f36,2024-11-14_20h04.39.216,Tarea de género gramatical,2024.2.2,Win32,144.9275362,,,,,,,,,,,,,,,,,,,,,,,,432.0269,433.0297,l,0,0.3407,,[],[],[],[],[],[],[],0.3407,0,433.0302,433.5253,,,,,,601,FEM,CON,150,noche,,a,433.5253,433.5253,0.062962963,-0.093518519,0,0,0,,0,122,122,150,1,,,,
,,,,,,68f53d22d1c607494e355b9e,66a626ef09d4e21e1a8894ec,673649b3afdf6f0e22894f36,2024-11-14_20h04.39.216,Tarea de género gramatical,2024.2.2,Win32,144.9275362,,,,,,,,,,,,,,,,,,,,,,,,433.5258,434.8818,l,1,0.6962,,[],[],[],[],[],[],[],0.6962,1,434.8821,435.3827,,,,,,828,MAS,AGR,150,pastel,el,l,435.3833,435.3837,0.062962963,-0.093518519,0,0,0,,0,123,123,377,1,,,,
,,,,,,68f53d22d1c607494e355b9e,66a626ef09d4e21e1a8894ec,673649b3afdf6f0e22894f36,2024-11-14_20h04.39.216,Tarea de género gramatical,2024.2.2,Win32,144.9275362,,,,,,,,,,,,,,,,,,,,,,,,435.3841,436.5919,l,1,0.5421,,[],[],[],[],[],[],[],0.5421,1,436.592,437.0904,,,,,,653,MAS,DIS,150,novio,la,l,437.0904,437.0905,0.062962963,-0.093518519,0,0,0,,0,124,124,202,1,,,,
,,,,,,68f53d22d1c607494e355b9e,66a626ef09d4e21e1a8894ec,673649b3afdf6f0e22894f36,2024-11-14_20h04.39.216,Tarea de género gramatical,2024.2.2,Win32,144.9275362,,,,,,,,,,,,,,,,,,,,,,,,437.091,438.279,l,1,0.5356,,[],[],[],[],[],[],[],0.5356,1,438.279,438.7728,,,,,,701,MAS,DIS,150,dueño,la,l,438.7728,438.7728,0.062962963,-0.093518519,0,0,0,,0,125,125,250,1,,,,
,,,,,,68f53d22d1c607494e355b9e,66a626ef09d4e21e1a8894ec,673649b3afdf6f0e22894f36,2024-11-14_20h04.39.216,Tarea de género gramatical,2024.2.2,Win32,144.9275362,,,,,,,,,,,,,,,,,,,,,,,,438.7736,439.7611,l,1,0.3323,,[],[],[],[],[],[],[],0.3323,1,439.7611,440.2641,,,,,,870,MAS,AGR,150,helado,el,l,440.2641,440.2641,0.062962963,-0.093518519,0,0,0,,0,126,126,419,1,,,,
,,,,,,68f53d22d1c607494e355b9e,66a626ef09d4e21e1a8894ec,673649b3afdf6f0e22894f36,2024-11-14_20h04.39.216,Tarea de género gramatical,2024.2.2,Win32,144.9275362,,,,,,,,,,,,,,,,,,,,,,,,440.2646,441.4345,a,1,0.4918,,[],[],[],[],[],[],[],0.4918,1,441.4346,441.9269,,,,,,721,FEM,CON,150,viuda,,a,441.927,441.927,0.062962963,-0.093518519,0,0,0,,0,127,127,270,1,,,,
,,,,,,68f53d22d1c607494e355b9e,66a626ef09d4e21e1a8894ec,673649b3afdf6f0e22894f36,2024-11-14_20h04.39.216,Tarea de género gramatical,2024.2.2,Win32,144.9275362,,,,,,,,,,,,,,,,,,,,,,,,441.9276,443.1258,l,1,0.5395,,[],[],[],[],[],[],[],0.5395,1,443.1258,443.6252,,,,,,672,MAS,AGR,150,valor,el,l,443.6257,443.6261,0.062962963,-0.093518519,0,0,0,,0,128,128,221,1,,,,
,,,,,,68f53d22d1c607494e355b9e,66a626ef09d4e21e1a8894ec,673649b3afdf6f0e22894f36,2024-11-14_20h04.39.216,Tarea de género gramatical,2024.2.2,Win32,144.9275362,,,,,,,,,,,,,,,,,,,,,,,,443.6266,444.6567,l,1,0.3664,,[],[],[],[],[],[],[],0.3664,1,444.6567,445.1531,,,,,,670,MAS,CON,150,huevo,,l,445.1532,445.1533,0.062962963,-0.093518519,0,0,0,,0,129,129,219,1,,,,
,,,,,,68f53d22d1c607494e355b9e,66a626ef09d4e21e1a8894ec,673649b3afdf6f0e22894f36,2024-11-14_20h04.39.216,Tarea de género gramatical,2024.2.2,Win32,144.9275362,,,,,,,,,,,,,,,,,,,,,,,,445.1539,446.1128,l,1,0.2885,,[],[],[],[],[],[],[],0.2885,1,446.1129,446.6089,,,,,,605,MAS,DIS,150,mundo,la,l,446.6089,446.609,0.062962963,-0.093518519,0,0,0,,0,130,130,154,1,,,,
,,,,,,68f53d22d1c607494e355b9e,66a626ef09d4e21e1a8894ec,673649b3afdf6f0e22894f36,2024-11-14_20h04.39.216,Tarea de género gramatical,2024.2.2,Win32,144.9275362,,,,,,,,,,,,,,,,,,,,,,,,446.6094,447.5008,l,1,0.2262,,[],[],[],[],[],[],[],0.2262,1,447.5008,447.9939,,,,,,526,MAS,CON,150,lujo,,l,447.9939,447.994,0.062962963,-0.093518519,0,0,0,,0,131,131,75,1,,,,
,,,,,,68f53d22d1c607494e355b9e,66a626ef09d4e21e1a8894ec,673649b3afdf6f0e22894f36,2024-11-14_20h04.39.216,Tarea de género gramatical,2024.2.2,Win32,144.9275362,,,,,,,,,,,,,,,,,,,,,,,,447.9945,448.917,l,1,0.2549,,[],[],[],[],[],[],[],0.2549,1,448.9171,449.425,,,,,,862,MAS,CON,150,espejo,,l,449.4257,449.4261,0.062962963,-0.093518519,0,0,0,,0,132,132,411,1,,,,
,,,,,,68f53d22d1c607494e355b9e,66a626ef09d4e21e1a8894ec,673649b3afdf6f0e22894f36,2024-11-14_20h04.39.216,Tarea de género gramatical,2024.2.2,Win32,144.9275362,,,,,,,,,,,,,,,,,,,,,,,,449.4265,450.3342,l,0,0.2439,,[],[],[],[],[],[],[],0.2439,0,450.3347,450.8241,,,,,,559,FEM,CON,150,gota,,a,450.8241,450.8241,0.062962963,-0.093518519,0,0,0,,0,133,133,108,1,,,,
,,,,,,68f53d22d1c607494e355b9e,66a626ef09d4e21e1a8894ec,673649b3afdf6f0e22894f36,2024-11-14_20h04.39.216,Tarea de género gramatical,2024.2.2,Win32,144.9275362,,,,,,,,,,,,,,,,,,,,,,,,450.8246,452.024,l,1,0.5342,,[],[],[],[],[],[],[],0.5342,1,452.0244,452.5323,,,,,,552,MAS,AGR,150,coro,el,l,452.5324,452.5325,0.062962963,-0.093518519,0,0,0,,0,134,134,101,1,,,,
,,,,,,68f53d22d1c607494e355b9e,66a626ef09d4e21e1a8894ec,673649b3afdf6f0e22894f36,2024-11-14_20h04.39.216,Tarea de género gramatical,2024.2.2,Win32,144.9275362,,,,,,,,,,,,,,,,,,,,,,,,452.533,453.675,a,1,0.4805,,[],[],[],[],[],[],[],0.4805,1,453.6751,454.1745,,,,,,865,FEM,CON,150,cabina,,a,454.1746,454.1748,0.062962963,-0.093518519,0,0,0,,0,135,135,414,1,,,,
,,,,,,68f53d22d1c607494e355b9e,66a626ef09d4e21e1a8894ec,673649b3afdf6f0e22894f36,2024-11-14_20h04.39.216,Tarea de género gramatical,2024.2.2,Win32,144.9275362,,,,,,,,,,,,,,,,,,,,,,,,454.1753,455.2286,l,1,0.3867,,[],[],[],[],[],[],[],0.3867,1,455.2286,455.7198,,,,,,575,MAS,DIS,150,bate,la,l,455.7198,455.7199,0.062962963,-0.093518519,0,0,0,,0,136,136,124,1,,,,
,,,,,,68f53d22d1c607494e355b9e,66a626ef09d4e21e1a8894ec,673649b3afdf6f0e22894f36,2024-11-14_20h04.39.216,Tarea de género gramatical,2024.2.2,Win32,144.9275362,,,,,,,,,,,,,,,,,,,,,,,,455.7204,456.7588,l,0,0.3822,,[],[],[],[],[],[],[],0.3822,0,456.7593,457.2544,,,,,,475,FEM,CON,150,nave,,a,457.255,457.2554,0.062962963,-0.093518519,0,0,0,,0,137,137,24,1,,,,
,,,,,,68f53d22d1c607494e355b9e,66a626ef09d4e21e1a8894ec,673649b3afdf6f0e22894f36,2024-11-14_20h04.39.216,Tarea de género gramatical,2024.2.2,Win32,144.9275362,,,,,,,,,,,,,,,,,,,,,,,,457.2558,458.3392,a,1,0.4203,,[],[],[],[],[],[],[],0.4203,1,458.3397,458.85,,,,,,541,FEM,CON,150,hoja,,a,458.8501,458.8501,0.062962963,-0.093518519,0,0,0,,0,138,138,90,1,,,,
,,,,,,68f53d22d1c607494e355b9e,66a626ef09d4e21e1a8894ec,673649b3afdf6f0e22894f36,2024-11-14_20h04.39.216,Tarea de género gramatical,2024.2.2,Win32,144.9275362,,,,,,,,,,,,,,,,,,,,,,,,458.8506,459.9062,l,1,0.3957,,[],[],[],[],[],[],[],0.3957,1,459.9063,460.4103,,,,,,587,MAS,DIS,150,coco,la,l,460.4103,460.4104,0.062962963,-0.093518519,0,0,0,,0,139,139,136,1,,,,
,,,,,,68f53d22d1c607494e355b9e,66a626ef09d4e21e1a8894ec,673649b3afdf6f0e22894f36,2024-11-14_20h04.39.216,Tarea de género gramatical,2024.2.2,Win32,144.9275362,,,,,,,,,,,,,,,,,,,,,,,,460.4114,461.7239,l,1,0.6388,,[],[],[],[],[],[],[],0.6388,1,461.724,462.2221,,,,,,479,MAS,DIS,150,frío,la,l,462.2221,462.2222,0.062962963,-0.093518519,0,0,0,,0,140,140,28,1,,,,
,,,,,,68f53d22d1c607494e355b9e,66a626ef09d4e21e1a8894ec,673649b3afdf6f0e22894f36,2024-11-14_20h04.39.216,Tarea de género gramatical,2024.2.2,Win32,144.9275362,,,,,,,,,,,,,,,,,,,,,,,,462.2226,463.1736,l,1,0.2821,,[],[],[],[],[],[],[],0.2821,1,463.1737,463.6727,,,,,,814,MAS,CON,150,viento,,l,463.6733,463.6736,0.062962963,-0.093518519,0,0,0,,0,141,141,363,1,,,,
,,,,,,68f53d22d1c607494e355b9e,66a626ef09d4e21e1a8894ec,673649b3afdf6f0e22894f36,2024-11-14_20h04.39.216,Tarea de género gramatical,2024.2.2,Win32,144.9275362,,,,,,,,,,,,,,,,,,,,,,,,463.674,465.3438,l,1,0.9989,,[],[],[],[],[],[],[],0.9989,1,465.3439,465.8438,,,,,,534,MAS,AGR,150,mago,el,l,465.8439,465.844,0.062962963,-0.093518519,0,0,0,,0,142,142,83,1,,,,
,,,,,,68f53d22d1c607494e355b9e,66a626ef09d4e21e1a8894ec,673649b3afdf6f0e22894f36,2024-11-14_20h04.39.216,Tarea de género gramatical,2024.2.2,Win32,144.9275362,,,,,,,,,,,,,,,,,,,,,,,,465.8459,467.1442,l,1,0.6275,,[],[],[],[],[],[],[],0.6275,1,467.1443,467.6411,,,,,,604,MAS,CON,150,padre,,l,467.6411,467.6411,0.062962963,-0.093518519,0,0,0,,0,143,143,153,1,,,,
,,,,,,68f53d22d1c607494e355b9e,66a626ef09d4e21e1a8894ec,673649b3afdf6f0e22894f36,2024-11-14_20h04.39.216,Tarea de género gramatical,2024.2.2,Win32,144.9275362,,,,,,,,,,,,,,,,,,,,,,,,467.6417,469.0427,l,0,0.7376,,[],[],[],[],[],[],[],0.7376,0,469.0432,469.5384,,,,,,783,FEM,AGR,150,locura,la,a,469.5385,469.5385,0.062962963,-0.093518519,0,0,0,,0,144,144,332,1,,,,
,,,,,,68f53d22d1c607494e355b9e,66a626ef09d4e21e1a8894ec,673649b3afdf6f0e22894f36,2024-11-14_20h04.39.216,Tarea de género gramatical,2024.2.2,Win32,144.9275362,,,,,,,,,,,,,,,,,,,,,,,,469.5391,470.4922,l,0,0.2895,,[],[],[],[],[],[],[],0.2895,0,470.4922,470.9949,,,,,,733,FEM,CON,150,pluma,,a,470.995,470.995,0.062962963,-0.093518519,0,0,0,,0,145,145,282,1,,,,
,,,,,,68f53d22d1c607494e355b9e,66a626ef09d4e21e1a8894ec,673649b3afdf6f0e22894f36,2024-11-14_20h04.39.216,Tarea de género gramatical,2024.2.2,Win32,144.9275362,,,,,,,,,,,,,,,,,,,,,,,,470.9955,472.2711,a,1,0.6116,,[],[],[],[],[],[],[],0.6116,1,472.2715,472.7703,,,,,,458,FEM,DIS,150,idea,el,a,472.771,472.7713,0.062962963,-0.093518519,0,0,0,,0,146,146,7,1,,,,
,,,,,,68f53d22d1c607494e355b9e,66a626ef09d4e21e1a8894ec,673649b3afdf6f0e22894f36,2024-11-14_20h04.39.216,Tarea de género gramatical,2024.2.2,Win32,144.9275362,,,,,,,,,,,,,,,,,,,,,,,,472.7719,473.9151,a,1,0.4866,,[],[],[],[],[],[],[],0.4866,1,473.9151,474.4111,,,,,,591,FEM,AGR,150,cera,la,a,474.4113,474.4113,0.062962963,-0.093518519,0,0,0,,0,147,147,140,1,,,,
,,,,,,68f53d22d1c607494e355b9e,66a626ef09d4e21e1a8894ec,673649b3afdf6f0e22894f36,2024-11-14_20h04.39.216,Tarea de género gramatical,2024.2.2,Win32,144.9275362,,,,,,,,,,,,,,,,,,,,,,,,474.4118,475.4298,l,0,0.3519,,[],[],[],[],[],[],[],0.3519,0,475.4302,475.9207,,,,,,781,FEM,CON,150,cárcel,,a,475.9207,475.9208,0.062962963,-0.093518519,0,0,0,,0,148,148,330,1,,,,
,,,,,,68f53d22d1c607494e355b9e,66a626ef09d4e21e1a8894ec,673649b3afdf6f0e22894f36,2024-11-14_20h04.39.216,Tarea de género gramatical,2024.2.2,Win32,144.9275362,,,,,,,,,,,,,,,,,,,,,,,,475.9213,477.1062,l,0,0.5314,,[],[],[],[],[],[],[],0.5314,0,477.1062,477.6028,,,,,,536,FEM,DIS,150,cruz,el,a,477.6028,477.6029,0.062962963,-0.093518519,0,0,0,,0,149,149,85,1,,,,
,,,,,,68f53d22d1c607494e355b9e,66a626ef09d4e21e1a8894ec,673649b3afdf6f0e22894f36,2024-11-14_20h04.39.216,Tarea de género gramatical,2024.2.2,Win32,144.9275362,,,,,,,,,,,,,,,,,,,,,,,,477.6034,478.8375,l,1,0.5768,,[],[],[],[],[],[],[],0.5768,1,478.8379,479.3396,,,,,,636,MAS,AGR,150,error,el,l,479.3402,496.7898,0.062962963,-0.093518519,0,0,0,space,0,150,150,185,1,17.4417,,,
,,,,,,68f53d22d1c607494e355b9e,66a626ef09d4e21e1a8894ec,673649b3afdf6f0e22894f36,2024-11-14_20h04.39.216,Tarea de género gramatical,2024.2.2,Win32,144.9275362,,,,,,,,,,,,,,,,,,,,,,,,496.7904,497.9526,l,1,0.5075,,[],[],[],[],[],[],[],0.5075,1,497.9527,498.4584,,,,,,718,MAS,CON,150,truco,,l,498.4585,498.4585,0.062962963,-0.093518519,0,0,0,,0,151,151,267,1,,,,
,,,,,,68f53d22d1c607494e355b9e,66a626ef09d4e21e1a8894ec,673649b3afdf6f0e22894f36,2024-11-14_20h04.39.216,Tarea de género gramatical,2024.2.2,Win32,144.9275362,,,,,,,,,,,,,,,,,,,,,,,,498.459,499.5683,l,1,0.4522,,[],[],[],[],[],[],[],0.4522,1,499.5683,500.0709,,,,,,839,MAS,DIS,150,tamaño,la,l,500.071,500.071,0.062962963,-0.093518519,0,0,0,,0,152,152,388,1,,,,
,,,,,,68f53d22d1c607494e355b9e,66a626ef09d4e21e1a8894ec,673649b3afdf6f0e22894f36,2024-11-14_20h04.39.216,Tarea de género gramatical,2024.2.2,Win32,144.9275362,,,,,,,,,,,,,,,,,,,,,,,,500.0715,501.0297,a,1,0.2958,,[],[],[],[],[],[],[],0.2958,1,501.0298,501.5318,,,,,,565,FEM,CON,150,seda,,a,501.5318,501.5318,0.062962963,-0.093518519,0,0,0,,0,153,153,114,1,,,,
,,,,,,68f53d22d1c607494e355b9e,66a626ef09d4e21e1a8894ec,673649b3afdf6f0e22894f36,2024-11-14_20h04.39.216,Tarea de género gramatical,2024.2.2,Win32,144.9275362,,,,,,,,,,,,,,,,,,,,,,,,501.5324,502.5771,l,1,0.3859,,[],[],[],[],[],[],[],0.3859,1,502.5771,503.078,,,,,,635,MAS,DIS,150,sueño,la,l,503.078,503.0781,0.062962963,-0.093518519,0,0,0,,0,154,154,184,1,,,,
,,,,,,68f53d22d1c607494e355b9e,66a626ef09d4e21e1a8894ec,673649b3afdf6f0e22894f36,2024-11-14_20h04.39.216,Tarea de género gramatical,2024.2.2,Win32,144.9275362,,,,,,,,,,,,,,,,,,,,,,,,503.0786,503.9458,a,1,0.206,,[],[],[],[],[],[],[],0.206,1,503.9458,504.4495,,,,,,693,FEM,AGR,150,salsa,la,a,504.4502,504.4506,0.062962963,-0.093518519,0,0,0,,0,155,155,242,1,,,,
,,,,,,68f53d22d1c607494e355b9e,66a626ef09d4e21e1a8894ec,673649b3afdf6f0e22894f36,2024-11-14_20h04.39.216,Tarea de género gramatical,2024.2.2,Win32,144.9275362,,,,,,,,,,,,,,,,,,,,,,,,504.4509,505.4327,l,1,0.3224,,[],[],[],[],[],[],[],0.3224,1,505.4327,505.9381,,,,,,498,MAS,AGR,150,loco,el,l,505.9381,505.9381,0.062962963,-0.093518519,0,0,0,,0,156,156,47,1,,,,
,,,,,,68f53d22d1c607494e355b9e,66a626ef09d4e21e1a8894ec,673649b3afdf6f0e22894f36,2024-11-14_20h04.39.216,Tarea de género gramatical,2024.2.2,Win32,144.9275362,,,,,,,,,,,,,,,,,,,,,,,,505.9388,506.9428,l,1,0.3372,,[],[],[],[],[],[],[],0.3372,1,506.9429,507.4406,,,,,,808,MAS,CON,150,motivo,,l,507.4406,507.4407,0.062962963,-0.093518519,0,0,0,,0,157,157,357,1,,,,
,,,,,,68f53d22d1c607494e355b9e,66a626ef09d4e21e1a8894ec,673649b3afdf6f0e22894f36,2024-11-14_20h04.39.216,Tarea de género gramatical,2024.2.2,Win32,144.9275362,,,,,,,,,,,,,,,,,,,,,,,,507.4412,508.4754,a,0,0.3716,,[],[],[],[],[],[],[],0.3716,0,508.4757,508.9749,,,,,,598,MAS,CON,150,surf,,l,508.975,508.9751,0.062962963,-0.093518519,0,0,0,,0,158,158,147,1,,,,
,,,,,,68f53d22d1c607494e355b9e,66a626ef09d4e21e1a8894ec,673649b3afdf6f0e22894f36,2024-11-14_20h04.39.216,Tarea de género gramatical,2024.2.2,Win32,144.9275362,,,,,,,,,,,,,,,,,,,,,,,,508.9756,509.9307,a,1,0.2943,,[],[],[],[],[],[],[],0.2943,1,509.9312,510.447,,,,,,487,FEM,CON,150,sala,,a,510.4477,510.448,0.062962963,-0.093518519,0,0,0,,0,159,159,36,1,,,,
,,,,,,68f53d22d1c607494e355b9e,66a626ef09d4e21e1a8894ec,673649b3afdf6f0e22894f36,2024-11-14_20h04.39.216,Tarea de género gramatical,2024.2.2,Win32,144.9275362,,,,,,,,,,,,,,,,,,,,,,,,510.4484,511.508,a,1,0.3998,,[],[],[],[],[],[],[],0.3998,1,511.508,512.0117,,,,,,751,FEM,CON,150,verdad,,a,512.0118,512.0119,0.062962963,-0.093518519,0,0,0,,0,160,160,300,1,,,,
,,,,,,68f53d22d1c607494e355b9e,66a626ef09d4e21e1a8894ec,673649b3afdf6f0e22894f36,2024-11-14_20h04.39.216,Tarea de género gramatical,2024.2.2,Win32,144.9275362,,,,,,,,,,,,,,,,,,,,,,,,512.0123,513.0167,l,1,0.3431,,[],[],[],[],[],[],[],0.3431,1,513.0167,513.5297,,,,,,510,MAS,AGR,150,tono,el,l,513.5297,513.5299,0.062962963,-0.093518519,0,0,0,,0,161,161,59,1,,,,
,,,,,,68f53d22d1c607494e355b9e,66a626ef09d4e21e1a8894ec,673649b3afdf6f0e22894f36,2024-11-14_20h04.39.216,Tarea de género gramatical,2024.2.2,Win32,144.9275362,,,,,,,,,,,,,,,,,,,,,,,,513.5305,514.6308,l,1,0.4323,,[],[],[],[],[],[],[],0.4323,1,514.6308,515.1316,,,,,,516,MAS,AGR,150,muro,el,l,515.1317,515.1318,0.062962963,-0.093518519,0,0,0,,0,162,162,65,1,,,,
,,,,,,68f53d22d1c607494e355b9e,66a626ef09d4e21e1a8894ec,673649b3afdf6f0e22894f36,2024-11-14_20h04.39.216,Tarea de género gramatical,2024.2.2,Win32,144.9275362,,,,,,,,,,,,,,,,,,,,,,,,515.1328,516.2797,l,1,0.4833,,[],[],[],[],[],[],[],0.4833,1,516.2798,516.775,,,,,,629,MAS,DIS,150,viaje,la,l,516.7751,516.7751,0.062962963,-0.093518519,0,0,0,,0,163,163,178,1,,,,
,,,,,,68f53d22d1c607494e355b9e,66a626ef09d4e21e1a8894ec,673649b3afdf6f0e22894f36,2024-11-14_20h04.39.216,Tarea de género gramatical,2024.2.2,Win32,144.9275362,,,,,,,,,,,,,,,,,,,,,,,,516.7756,517.8249,l,1,0.3831,,[],[],[],[],[],[],[],0.3831,1,517.825,518.3266,,,,,,497,MAS,DIS,150,olor,la,l,518.3273,518.3276,0.062962963,-0.093518519,0,0,0,,0,164,164,46,1,,,,
,,,,,,68f53d22d1c607494e355b9e,66a626ef09d4e21e1a8894ec,673649b3afdf6f0e22894f36,2024-11-14_20h04.39.216,Tarea de género gramatical,2024.2.2,Win32,144.9275362,,,,,,,,,,,,,,,,,,,,,,,,518.3279,519.6105,a,0,0.6189,,[],[],[],[],[],[],[],0.6189,0,519.6108,520.1106,,,,,,857,MAS,DIS,150,jurado,la,l,520.1106,520.1107,0.062962963,-0.093518519,0,0,0,,0,165,165,406,1,,,,
,,,,,,68f53d22d1c607494e355b9e,66a626ef09d4e21e1a8894ec,673649b3afdf6f0e22894f36,2024-11-14_20h04.39.216,Tarea de género gramatical,2024.2.2,Win32,144.9275362,,,,,,,,,,,,,,,,,,,,,,,,520.1114,521.317,l,1,0.5403,,[],[],[],[],[],[],[],0.5403,1,521.3174,521.8198,,,,,,858,MAS,AGR,150,cheque,el,l,521.8198,521.8198,0.062962963,-0.093518519,0,0,0,,0,166,166,407,1,,,,
,,,,,,68f53d22d1c607494e355b9e,66a626ef09d4e21e1a8894ec,673649b3afdf6f0e22894f36,2024-11-14_20h04.39.216,Tarea de género gramatical,2024.2.2,Win32,144.9275362,,,,,,,,,,,,,,,,,,,,,,,,521.8203,523.2557,l,0,0.7691,,[],[],[],[],[],[],[],0.7691,0,523.2562,523.7528,,,,,,621,FEM,AGR,150,mitad,la,a,523.7528,523.7529,0.062962963,-0.093518519,0,0,0,,0,167,167,170,1,,,,
,,,,,,68f53d22d1c607494e355b9e,66a626ef09d4e21e1a8894ec,673649b3afdf6f0e22894f36,2024-11-14_20h04.39.216,Tarea de género gramatical,2024.2.2,Win32,144.9275362,,,,,,,,,,,,,,,,,,,,,,,,523.7534,525.2056,a,0,0.7956,,[],[],[],[],[],[],[],0.7956,0,525.2057,525.7009,,,,,,784,MAS,CON,150,ataque,,l,525.7019,525.7024,0.062962963,-0.093518519,0,0,0,,0,168,168,333,1,,,,
,,,,,,68f53d22d1c607494e355b9e,66a626ef09d4e21e1a8894ec,673649b3afdf6f0e22894f36,2024-11-14_20h04.39.216,Tarea de género gramatical,2024.2.2,Win32,144.9275362,,,,,,,,,,,,,,,,,,,,,,,,525.703,526.7817,l,0,0.4185,,[],[],[],[],[],[],[],0.4185,0,526.7818,527.2832,,,,,,602,FEM,DIS,150,gente,el,a,527.2832,527.2833,0.062962963,-0.093518519,0,0,0,,0,169,169,151,1,,,,
,,,,,,68f53d22d1c607494e355b9e,66a626ef09d4e21e1a8894ec,673649b3afdf6f0e22894f36,2024-11-14_20h04.39.216,Tarea de género gramatical,2024.2.2,Win32,144.9275362,,,,,,,,,,,,,,,,,,,,,,,,527.2838,528.4858,l,0,0.5428,,[],[],[],[],[],[],[],0.5428,0,528.4858,528.9833,,,,,,752,FEM,DIS,150,cabeza,el,a,528.9833,528.9833,0.062962963,-0.093518519,0,0,0,,0,170,170,301,1,,,,
,,,,,,68f53d22d1c607494e355b9e,66a626ef09d4e21e1a8894ec,673649b3afdf6f0e22894f36,2024-11-14_20h04.39.216,Tarea de género gramatical,2024.2.2,Win32,144.9275362,,,,,,,,,,,,,,,,,,,,,,,,528.9839,530.2917,a,1,0.6363,,[],[],[],[],[],[],[],0.6363,1,530.2921,530.7869,,,,,,777,FEM,AGR,150,tienda,la,a,530.7869,530.7869,0.062962963,-0.093518519,0,0,0,,0,171,171,326,1,,,,
,,,,,,68f53d22d1c607494e355b9e,66a626ef09d4e21e1a8894ec,673649b3afdf6f0e22894f36,2024-11-14_20h04.39.216,Tarea de género gramatical,2024.2.2,Win32,144.9275362,,,,,,,,,,,,,,,,,,,,,,,,530.7875,531.8493,l,1,0.3954,,[],[],[],[],[],[],[],0.3954,1,531.8494,532.3555,,,,,,694,MAS,CON,150,hielo,,l,532.3556,532.3556,0.062962963,-0.093518519,0,0,0,,0,172,172,243,1,,,,
,,,,,,68f53d22d1c607494e355b9e,66a626ef09d4e21e1a8894ec,673649b3afdf6f0e22894f36,2024-11-14_20h04.39.216,Tarea de género gramatical,2024.2.2,Win32,144.9275362,,,,,,,,,,,,,,,,,,,,,,,,532.3564,533.4706,a,0,0.4574,,[],[],[],[],[],[],[],0.4574,0,533.471,533.9713,,,,,,580,MAS,CON,150,yate,,l,533.972,533.9727,0.062962963,-0.093518519,0,0,0,,0,173,173,129,1,,,,
,,,,,,68f53d22d1c607494e355b9e,66a626ef09d4e21e1a8894ec,673649b3afdf6f0e22894f36,2024-11-14_20h04.39.216,Tarea de género gramatical,2024.2.2,Win32,144.9275362,,,,,,,,,,,,,,,,,,,,,,,,533.9734,535.3238,l,1,0.6963,,[],[],[],[],[],[],[],0.6963,1,535.3243,535.8237,,,,,,875,MAS,DIS,150,chiste,la,l,535.8238,535.8238,0.062962963,-0.093518519,0,0,0,,0,174,174,424,1,,,,
,,,,,,68f53d22d1c607494e355b9e,66a626ef09d4e21e1a8894ec,673649b3afdf6f0e22894f36,2024-11-14_20h04.39.216,Tarea de género gramatical,2024.2.2,Win32,144.9275362,,,,,,,,,,,,,,,,,,,,,,,,535.8246,536.9264,l,0,0.4378,,[],[],[],[],[],[],[],0.4378,0,536.9267,537.4326,,,,,,645,FEM,AGR,150,pared,la,a,537.4326,537.4328,0.062962963,-0.093518519,0,0,0,,0,175,175,194,1,,,,
,,,,,,68f53d22d1c607494e355b9e,66a626ef09d4e21e1a8894ec,673649b3afdf6f0e22894f36,2024-11-14_20h04.39.216,Tarea de género gramatical,2024.2.2,Win32,144.9275362,,,,,,,,,,,,,,,,,,,,,,,,537.4334,538.6743,a,0,0.579,,[],[],[],[],[],[],[],0.579,0,538.6744,539.1752,,,,,,899,MAS,DIS,150,payaso,la,l,539.1752,539.1753,0.062962963,-0.093518519,0,0,0,,0,176,176,448,1,,,,
,,,,,,68f53d22d1c607494e355b9e,66a626ef09d4e21e1a8894ec,673649b3afdf6f0e22894f36,2024-11-14_20h04.39.216,Tarea de género gramatical,2024.2.2,Win32,144.9275362,,,,,,,,,,,,,,,,,,,,,,,,539.176,540.6845,l,1,0.8565,,[],[],[],[],[],[],[],0.8565,1,540.6849,541.173,,,,,,503,MAS,DIS,150,vaso,la,l,541.1738,541.1743,0.062962963,-0.093518519,0,0,0,,0,177,177,52,1,,,,
,,,,,,68f53d22d1c607494e355b9e,66a626ef09d4e21e1a8894ec,673649b3afdf6f0e22894f36,2024-11-14_20h04.39.216,Tarea de género gramatical,2024.2.2,Win32,144.9275362,,,,,,,,,,,,,,,,,,,,,,,,541.1747,542.7141,l,0,0.8704,,[],[],[],[],[],[],[],0.8704,0,542.7145,543.2165,,,,,,542,FEM,DIS,150,masa,el,a,543.2165,543.2166,0.062962963,-0.093518519,0,0,0,,0,178,178,91,1,,,,
,,,,,,68f53d22d1c607494e355b9e,66a626ef09d4e21e1a8894ec,673649b3afdf6f0e22894f36,2024-11-14_20h04.39.216,Tarea de género gramatical,2024.2.2,Win32,144.9275362,,,,,,,,,,,,,,,,,,,,,,,,543.2171,544.8514,a,1,0.9667,,[],[],[],[],[],[],[],0.9667,1,544.8518,545.3518,,,,,,567,FEM,AGR,150,raya,la,a,545.3518,545.3519,0.062962963,-0.093518519,0,0,0,,0,179,179,116,1,,,,
,,,,,,68f53d22d1c607494e355b9e,66a626ef09d4e21e1a8894ec,673649b3afdf6f0e22894f36,2024-11-14_20h04.39.216,Tarea de género gramatical,2024.2.2,Win32,144.9275362,,,,,,,,,,,,,,,,,,,,,,,,545.3525,546.7631,l,1,0.741,,[],[],[],[],[],[],[],0.741,1,546.7631,547.2687,,,,,,820,MAS,CON,150,seguro,,l,547.2688,547.2688,0.062962963,-0.093518519,0,0,0,,0,180,180,369,1,,,,
,,,,,,68f53d22d1c607494e355b9e,66a626ef09d4e21e1a8894ec,673649b3afdf6f0e22894f36,2024-11-14_20h04.39.216,Tarea de género gramatical,2024.2.2,Win32,144.9275362,,,,,,,,,,,,,,,,,,,,,,,,547.2696,548.5129,l,1,0.5864,,[],[],[],[],[],[],[],0.5864,1,548.513,549.0049,,,,,,660,MAS,AGR,150,baile,el,l,549.0049,549.0049,0.062962963,-0.093518519,0,0,0,,0,181,181,209,1,,,,
,,,,,,68f53d22d1c607494e355b9e,66a626ef09d4e21e1a8894ec,673649b3afdf6f0e22894f36,2024-11-14_20h04.39.216,Tarea de género gramatical,2024.2.2,Win32,144.9275362,,,,,,,,,,,,,,,,,,,,,,,,549.0055,550.0641,l,1,0.3919,,[],[],[],[],[],[],[],0.3919,1,550.0642,550.5596,,,,,,886,MAS,CON,150,objeto,,l,550.5603,550.5607,0.062962963,-0.093518519,0,0,0,,0,182,182,435,1,,,,
,,,,,,68f53d22d1c607494e355b9e,66a626ef09d4e21e1a8894ec,673649b3afdf6f0e22894f36,2024-11-14_20h04.39.216,Tarea de género gramatical,2024.2.2,Win32,144.9275362,,,,,,,,,,,,,,,,,,,,,,,,550.5611,551.7886,l,1,0.5683,,[],[],[],[],[],[],[],0.5683,1,551.7886,552.2856,,,,,,826,MAS,CON,150,efecto,,l,552.2856,552.2856,0.062962963,-0.093518519,0,0,0,,0,183,183,375,1,,,,
,,,,,,68f53d22d1c607494e355b9e,66a626ef09d4e21e1a8894ec,673649b3afdf6f0e22894f36,2024-11-14_20h04.39.216,Tarea de género gramatical,2024.2.2,Win32,144.9275362,,,,,,,,,,,,,,,,,,,,,,,,552.2861,553.3925,l,1,0.4445,,[],[],[],[],[],[],[],0.4445,1,553.3925,553.8832,,,,,,460,MAS,CON,150,niño,,l,553.8832,553.8833,0.062962963,-0.093518519,0,0,0,,0,184,184,9,1,,,,
,,,,,,68f53d22d1c607494e355b9e,66a626ef09d4e21e1a8894ec,673649b3afdf6f0e22894f36,2024-11-14_20h04.39.216,Tarea de género gramatical,2024.2.2,Win32,144.9275362,,,,,,,,,,,,,,,,,,,,,,,,553.8838,554.9605,l,1,0.4063,,[],[],[],[],[],[],[],0.4063,1,554.9606,555.4682,,,,,,804,MAS,AGR,150,camión,el,l,555.4684,555.4685,0.062962963,-0.093518519,0,0,0,,0,185,185,353,1,,,,
,,,,,,68f53d22d1c607494e355b9e,66a626ef09d4e21e1a8894ec,673649b3afdf6f0e22894f36,2024-11-14_20h04.39.216,Tarea de género gramatical,2024.2.2,Win32,144.9275362,,,,,,,,,,,,,,,,,,,,,,,,555.4715,556.8265,l,1,0.6962,,[],[],[],[],[],[],[],0.6962,1,556.8267,557.3224,,,,,,594,MAS,AGR,150,amor,el,l,557.3229,557.3236,0.062962963,-0.093518519,0,0,0,,0,186,186,143,1,,,,
,,,,,,68f53d22d1c607494e355b9e,66a626ef09d4e21e1a8894ec,673649b3afdf6f0e22894f36,2024-11-14_20h04.39.216,Tarea de género gramatical,2024.2.2,Win32,144.9275362,,,,,,,,,,,,,,,,,,,,,,,,557.324,558.5796,a,1,0.5939,,[],[],[],[],[],[],[],0.5939,1,558.5798,559.0785,,,,,,644,FEM,DIS,150,banda,el,a,559.0785,559.0786,0.062962963,-0.093518519,0,0,0,,0,187,187,193,1,,,,
,,,,,,68f53d22d1c607494e355b9e,66a626ef09d4e21e1a8894ec,673649b3afdf6f0e22894f36,2024-11-14_20h04.39.216,Tarea de género gramatical,2024.2.2,Win32,144.9275362,,,,,,,,,,,,,,,,,,,,,,,,559.0791,560.3292,a,1,0.5883,,[],[],[],[],[],[],[],0.5883,1,560.3293,560.8216,,,,,,787,FEM,CON,150,escena,,a,560.8216,560.8217,0.062962963,-0.093518519,0,0,0,,0,188,188,336,1,,,,
,,,,,,68f53d22d1c607494e355b9e,66a626ef09d4e21e1a8894ec,673649b3afdf6f0e22894f36,2024-11-14_20h04.39.216,Tarea de género gramatical,2024.2.2,Win32,144.9275362,,,,,,,,,,,,,,,,,,,,,,,,560.8222,561.9756,l,1,0.4987,,[],[],[],[],[],[],[],0.4987,1,561.9757,562.4761,,,,,,508,MAS,CON,150,mono,,l,562.4761,562.4761,0.062962963,-0.093518519,0,0,0,,0,189,189,57,1,,,,
,,,,,,68f53d22d1c607494e355b9e,66a626ef09d4e21e1a8894ec,673649b3afdf6f0e22894f36,2024-11-14_20h04.39.216,Tarea de género gramatical,2024.2.2,Win32,144.9275362,,,,,,,,,,,,,,,,,,,,,,,,562.4767,563.5105,l,0,0.3759,,[],[],[],[],[],[],[],0.3759,0,563.5111,564.0082,,,,,,471,FEM,AGR,150,boca,la,a,564.0082,564.0083,0.062962963,-0.093518519,0,0,0,,0,190,190,20,1,,,,
,,,,,,68f53d22d1c607494e355b9e,66a626ef09d4e21e1a8894ec,673649b3afdf6f0e22894f36,2024-11-14_20h04.39.216,Tarea de género gramatical,2024.2.2,Win32,144.9275362,,,,,,,,,,,,,,,,,,,,,,,,564.0089,565.2059,a,1,0.5418,,[],[],[],[],[],[],[],0.5418,1,565.2064,565.6922,,,,,,895,FEM,CON,150,bondad,,a,565.6932,565.6941,0.062962963,-0.093518519,0,0,0,,0,191,191,444,1,,,,
,,,,,,68f53d22d1c607494e355b9e,66a626ef09d4e21e1a8894ec,673649b3afdf6f0e22894f36,2024-11-14_20h04.39.216,Tarea de género gramatical,2024.2.2,Win32,144.9275362,,,,,,,,,,,,,,,,,,,,,,,,565.6947,566.8489,l,0,0.4908,,[],[],[],[],[],[],[],0.4908,0,566.8492,567.3502,,,,,,535,FEM,CON,150,gira,,a,567.3502,567.3503,0.062962963,-0.093518519,0,0,0,,0,192,192,84,1,,,,
,,,,,,68f53d22d1c607494e355b9e,66a626ef09d4e21e1a8894ec,673649b3afdf6f0e22894f36,2024-11-14_20h04.39.216,Tarea de género gramatical,2024.2.2,Win32,144.9275362,,,,,,,,,,,,,,,,,,,,,,,,567.3508,568.5043,l,1,0.4951,,[],[],[],[],[],[],[],0.4951,1,568.5047,569.0051,,,,,,797,MAS,DIS,150,cuello,la,l,569.0051,569.0051,0.062962963,-0.093518519,0,0,0,,0,193,193,346,1,,,,
,,,,,,68f53d22d1c607494e355b9e,66a626ef09d4e21e1a8894ec,673649b3afdf6f0e22894f36,2024-11-14_20h04.39.216,Tarea de género gramatical,2024.2.2,Win32,144.9275362,,,,,,,,,,,,,,,,,,,,,,,,569.0058,570.2301,l,1,0.5589,,[],[],[],[],[],[],[],0.5589,1,570.2302,570.7315,,,,,,780,MAS,AGR,150,estado,el,l,570.7315,570.7316,0.062962963,-0.093518519,0,0,0,,0,194,194,329,1,,,,
,,,,,,68f53d22d1c607494e355b9e,66a626ef09d4e21e1a8894ec,673649b3afdf6f0e22894f36,2024-11-14_20h04.39.216,Tarea de género gramatical,2024.2.2,Win32,144.9275362,,,,,,,,,,,,,,,,,,,,,,,,570.7323,572.0475,a,1,0.6506,,[],[],[],[],[],[],[],0.6506,1,572.0476,572.5514,,,,,,506,FEM,DIS,150,bola,el,a,572.5519,572.5523,0.062962963,-0.093518519,0,0,0,,0,195,195,55,1,,,,
,,,,,,68f53d22d1c607494e355b9e,66a626ef09d4e21e1a8894ec,673649b3afdf6f0e22894f36,2024-11-14_20h04.39.216,Tarea de género gramatical,2024.2.2,Win32,144.9275362,,,,,,,,,,,,,,,,,,,,,,,,572.5526,573.8525,a,1,0.6422,,[],[],[],[],[],[],[],0.6422,1,573.8526,574.3536,,,,,,614,FEM,DIS,150,novia,el,a,574.3536,574.3537,0.062962963,-0.093518519,0,0,0,,0,196,196,163,1,,,,
,,,,,,68f53d22d1c607494e355b9e,66a626ef09d4e21e1a8894ec,673649b3afdf6f0e22894f36,2024-11-14_20h04.39.216,Tarea de género gramatical,2024.2.2,Win32,144.9275362,,,,,,,,,,,,,,,,,,,,,,,,574.3543,575.5908,l,1,0.5747,,[],[],[],[],[],[],[],0.5747,1,575.5908,576.0934,,,,,,682,MAS,CON,150,calor,,l,576.0934,576.0934,0.062962963,-0.093518519,0,0,0,,0,197,197,231,1,,,,
,,,,,,68f53d22d1c607494e355b9e,66a626ef09d4e21e1a8894ec,673649b3afdf6f0e22894f36,2024-11-14_20h04.39.216,Tarea de género gramatical,2024.2.2,Win32,144.9275362,,,,,,,,,,,,,,,,,,,,,,,,576.0939,577.2977,l,0,0.5421,,[],[],[],[],[],[],[],0.5421,0,577.2983,577.8082,,,,,,679,FEM,CON,150,celda,,a,577.8082,577.8082,0.062962963,-0.093518519,0,0,0,,0,198,198,228,1,,,,
,,,,,,68f53d22d1c607494e355b9e,66a626ef09d4e21e1a8894ec,673649b3afdf6f0e22894f36,2024-11-14_20h04.39.216,Tarea de género gramatical,2024.2.2,Win32,144.9275362,,,,,,,,,,,,,,,,,,,,,,,,577.8087,578.9654,a,1,0.4965,,[],[],[],[],[],[],[],0.4965,1,578.9658,579.4657,,,,,,465,FEM,AGR,150,cama,la,a,579.4657,579.4658,0.062962963,-0.093518519,0,0,0,,0,199,199,14,1,,,,
,,,,,,68f53d22d1c607494e355b9e,66a626ef09d4e21e1a8894ec,673649b3afdf6f0e22894f36,2024-11-14_20h04.39.216,Tarea de género gramatical,2024.2.2,Win32,144.9275362,,,,,,,,,,,,,,,,,,,,,,,,579.4663,580.6127,a,1,0.4871,,[],[],[],[],[],[],[],0.4871,1,580.6128,581.1083,,,,,,747,FEM,AGR,150,manta,la,a,581.1089,581.1093,0.062962963,-0.093518519,0,0,0,,0,200,200,296,1,,,,
,,,,,,68f53d22d1c607494e355b9e,66a626ef09d4e21e1a8894ec,673649b3afdf6f0e22894f36,2024-11-14_20h04.39.216,Tarea de género gramatical,2024.2.2,Win32,144.9275362,,,,,,,,,,,,,,,,,,,,,,,,581.1096,582.1152,l,1,0.3362,,[],[],[],[],[],[],[],0.3362,1,582.1152,582.6103,,,,,,792,MAS,AGR,150,abuelo,el,l,582.6104,582.6104,0.062962963,-0.093518519,0,0,0,,0,201,201,341,1,,,,
,,,,,,68f53d22d1c607494e355b9e,66a626ef09d4e21e1a8894ec,673649b3afdf6f0e22894f36,2024-11-14_20h04.39.216,Tarea de género gramatical,2024.2.2,Win32,144.9275362,,,,,,,,,,,,,,,,,,,,,,,,582.6112,584.0319,a,0,0.7679,,[],[],[],[],[],[],[],0.7679,0,584.0325,584.5461,,,,,,485,MAS,DIS,150,taxi,la,l,584.5461,584.5462,0.062962963,-0.093518519,0,0,0,,0,202,202,34,1,,,,
,,,,,,68f53d22d1c607494e355b9e,66a626ef09d4e21e1a8894ec,673649b3afdf6f0e22894f36,2024-11-14_20h04.39.216,Tarea de género gramatical,2024.2.2,Win32,144.9275362,,,,,,,,,,,,,,,,,,,,,,,,584.5468,585.7652,l,1,0.549,,[],[],[],[],[],[],[],0.549,1,585.7658,586.2719,,,,,,564,MAS,AGR,150,menú,el,l,586.2719,586.272,0.062962963,-0.093518519,0,0,0,,0,203,203,113,1,,,,
,,,,,,68f53d22d1c607494e355b9e,66a626ef09d4e21e1a8894ec,673649b3afdf6f0e22894f36,2024-11-14_20h04.39.216,Tarea de género gramatical,2024.2.2,Win32,144.9275362,,,,,,,,,,,,,,,,,,,,,,,,586.2725,587.5618,l,0,0.6232,,[],[],[],[],[],[],[],0.6232,0,587.5622,588.0565,,,,,,619,FEM,CON,150,vista,,a,588.057,588.0575,0.062962963,-0.093518519,0,0,0,,0,204,204,168,1,,,,
,,,,,,68f53d22d1c607494e355b9e,66a626ef09d4e21e1a8894ec,673649b3afdf6f0e22894f36,2024-11-14_20h04.39.216,Tarea de género gramatical,2024.2.2,Win32,144.9275362,,,,,,,,,,,,,,,,,,,,,,,,588.0579,589.1869,a,1,0.4624,,[],[],[],[],[],[],[],0.4624,1,589.1873,589.6774,,,,,,548,FEM,DIS,150,fuga,el,a,589.6774,589.6775,0.062962963,-0.093518519,0,0,0,,0,205,205,97,1,,,,
,,,,,,68f53d22d1c607494e355b9e,66a626ef09d4e21e1a8894ec,673649b3afdf6f0e22894f36,2024-11-14_20h04.39.216,Tarea de género gramatical,2024.2.2,Win32,144.9275362,,,,,,,,,,,,,,,,,,,,,,,,589.678,590.6812,l,1,0.3271,,[],[],[],[],[],[],[],0.3271,1,590.6812,591.1842,,,,,,846,MAS,AGR,150,tesoro,el,l,591.1842,591.1842,0.062962963,-0.093518519,0,0,0,,0,206,206,395,1,,,,
,,,,,,68f53d22d1c607494e355b9e,66a626ef09d4e21e1a8894ec,673649b3afdf6f0e22894f36,2024-11-14_20h04.39.216,Tarea de género gramatical,2024.2.2,Win32,144.9275362,,,,,,,,,,,,,,,,,,,,,,,,591.1849,592.6424,a,1,0.8008,,[],[],[],[],[],[],[],0.8008,1,592.6424,593.1389,,,,,,463,FEM,CON,150,hija,,a,593.139,593.139,0.062962963,-0.093518519,0,0,0,,0,207,207,12,1,,,,
,,,,,,68f53d22d1c607494e355b9e,66a626ef09d4e21e1a8894ec,673649b3afdf6f0e22894f36,2024-11-14_20h04.39.216,Tarea de género gramatical,2024.2.2,Win32,144.9275362,,,,,,,,,,,,,,,,,,,,,,,,593.1395,594.4558,l,1,0.6471,,[],[],[],[],[],[],[],0.6471,1,594.4558,594.956,,,,,,544,MAS,CON,150,cabo,,l,594.956,594.9561,0.062962963,-0.093518519,0,0,0,,0,208,208,93,1,,,,
,,,,,,68f53d22d1c607494e355b9e,66a626ef09d4e21e1a8894ec,673649b3afdf6f0e22894f36,2024-11-14_20h04.39.216,Tarea de género gramatical,2024.2.2,Win32,144.9275362,,,,,,,,,,,,,,,,,,,,,,,,594.9567,596.3846,a,1,0.7659,,[],[],[],[],[],[],[],0.7659,1,596.3847,596.8774,,,,,,741,FEM,AGR,150,aguja,la,a,596.878,596.8784,0.062962963,-0.093518519,0,0,0,,0,209,209,290,1,,,,
,,,,,,68f53d22d1c607494e355b9e,66a626ef09d4e21e1a8894ec,673649b3afdf6f0e22894f36,2024-11-14_20h04.39.216,Tarea de género gramatical,2024.2.2,Win32,144.9275362,,,,,,,,,,,,,,,,,,,,,,,,596.8789,598.4432,l,1,0.8949,,[],[],[],[],[],[],[],0.8949,1,598.4432,598.9377,,,,,,881,MAS,DIS,150,veneno,la,l,598.9377,598.9379,0.062962963,-0.093518519,0,0,0,,0,210,210,430,1,,,,
,,,,,,68f53d22d1c607494e355b9e,66a626ef09d4e21e1a8894ec,673649b3afdf6f0e22894f36,2024-11-14_20h04.39.216,Tarea de género gramatical,2024.2.2,Win32,144.9275362,,,,,,,,,,,,,,,,,,,,,,,,598.9387,600.5065,a,1,0.9128,,[],[],[],[],[],[],[],0.9128,1,600.5065,601.0077,,,,,,477,FEM,AGR,150,mesa,la,a,601.0078,601.0079,0.062962963,-0.093518519,0,0,0,,0,211,211,26,1,,,,
,,,,,,68f53d22d1c607494e355b9e,66a626ef09d4e21e1a8894ec,673649b3afdf6f0e22894f36,2024-11-14_20h04.39.216,Tarea de género gramatical,2024.2.2,Win32,144.9275362,,,,,,,,,,,,,,,,,,,,,,,,601.0086,602.1351,l,1,0.4607,,[],[],[],[],[],[],[],0.4607,1,602.1352,602.6287,,,,,,492,MAS,AGR,150,show,el,l,602.6289,602.629,0.062962963,-0.093518519,0,0,0,,0,212,212,41,1,,,,
,,,,,,68f53d22d1c607494e355b9e,66a626ef09d4e21e1a8894ec,673649b3afdf6f0e22894f36,2024-11-14_20h04.39.216,Tarea de género gramatical,2024.2.2,Win32,144.9275362,,,,,,,,,,,,,,,,,,,,,,,,602.6297,603.8977,l,0,0.6048,,[],[],[],[],[],[],[],0.6048,0,603.8981,604.3986,,,,,,775,FEM,CON,150,tierra,,a,604.3991,604.3995,0.062962963,-0.093518519,0,0,0,,0,213,213,324,1,,,,
,,,,,,68f53d22d1c607494e355b9e,66a626ef09d4e21e1a8894ec,673649b3afdf6f0e22894f36,2024-11-14_20h04.39.216,Tarea de género gramatical,2024.2.2,Win32,144.9275362,,,,,,,,,,,,,,,,,,,,,,,,604.3999,606.0849,a,1,1.0272,,[],[],[],[],[],[],[],1.0272,1,606.0854,606.5819,,,,,,842,FEM,DIS,150,maleta,el,a,606.582,606.582,0.062962963,-0.093518519,0,0,0,,0,214,214,391,1,,,,
,,,,,,68f53d22d1c607494e355b9e,66a626ef09d4e21e1a8894ec,673649b3afdf6f0e22894f36,2024-11-14_20h04.39.216,Tarea de género gramatical,2024.2.2,Win32,144.9275362,,,,,,,,,,,,,,,,,,,,,,,,606.5825,607.6454,l,1,0.3988,,[],[],[],[],[],[],[],0.3988,1,607.6455,608.1429,,,,,,610,MAS,CON,150,señor,,l,608.143,608.1431,0.062962963,-0.093518519,0,0,0,,0,215,215,159,1,,,,
,,,,,,68f53d22d1c607494e355b9e,66a626ef09d4e21e1a8894ec,673649b3afdf6f0e22894f36,2024-11-14_20h04.39.216,Tarea de género gramatical,2024.2.2,Win32,144.9275362,,,,,,,,,,,,,,,,,,,,,,,,608.1439,609.4085,a,1,0.5965,,[],[],[],[],[],[],[],0.5965,1,609.4085,609.912,,,,,,573,FEM,AGR,150,tela,la,a,609.912,609.912,0.062962963,-0.093518519,0,0,0,,0,216,216,122,1,,,,
,,,,,,68f53d22d1c607494e355b9e,66a626ef09d4e21e1a8894ec,673649b3afdf6f0e22894f36,2024-11-14_20h04.39.216,Tarea de género gramatical,2024.2.2,Win32,144.9275362,,,,,,,,,,,,,,,,,,,,,,,,609.9126,610.998,l,1,0.4231,,[],[],[],[],[],[],[],0.4231,1,610.998,611.4878,,,,,,568,MAS,CON,150,baúl,,l,611.4879,611.4879,0.062962963,-0.093518519,0,0,0,,0,217,217,117,1,,,,
,,,,,,68f53d22d1c607494e355b9e,66a626ef09d4e21e1a8894ec,673649b3afdf6f0e22894f36,2024-11-14_20h04.39.216,Tarea de género gramatical,2024.2.2,Win32,144.9275362,,,,,,,,,,,,,,,,,,,,,,,,611.4883,612.7278,l,1,0.5667,,[],[],[],[],[],[],[],0.5667,1,612.7278,613.2245,,,,,,484,MAS,CON,150,gato,,l,613.2251,613.2255,0.062962963,-0.093518519,0,0,0,,0,218,218,33,1,,,,
,,,,,,68f53d22d1c607494e355b9e,66a626ef09d4e21e1a8894ec,673649b3afdf6f0e22894f36,2024-11-14_20h04.39.216,Tarea de género gramatical,2024.2.2,Win32,144.9275362,,,,,,,,,,,,,,,,,,,,,,,,613.226,614.3544,a,1,0.4665,,[],[],[],[],[],[],[],0.4665,1,614.3544,614.8511,,,,,,543,FEM,AGR,150,lata,la,a,614.8512,614.8513,0.062962963,-0.093518519,0,0,0,,0,219,219,92,1,,,,
,,,,,,68f53d22d1c607494e355b9e,66a626ef09d4e21e1a8894ec,673649b3afdf6f0e22894f36,2024-11-14_20h04.39.216,Tarea de género gramatical,2024.2.2,Win32,144.9275362,,,,,,,,,,,,,,,,,,,,,,,,614.8518,616.2553,l,0,0.7499,,[],[],[],[],[],[],[],0.7499,0,616.2557,616.7547,,,,,,871,FEM,CON,150,novela,,a,616.7547,616.7547,0.062962963,-0.093518519,0,0,0,,0,220,220,420,1,,,,
,,,,,,68f53d22d1c607494e355b9e,66a626ef09d4e21e1a8894ec,673649b3afdf6f0e22894f36,2024-11-14_20h04.39.216,Tarea de género gramatical,2024.2.2,Win32,144.9275362,,,,,,,,,,,,,,,,,,,,,,,,616.7552,618.1482,a,1,0.7391,,[],[],[],[],[],[],[],0.7391,1,618.1486,618.6518,,,,,,609,FEM,AGR,150,clase,la,a,618.6518,618.6518,0.062962963,-0.093518519,0,0,0,,0,221,221,158,1,,,,
,,,,,,68f53d22d1c607494e355b9e,66a626ef09d4e21e1a8894ec,673649b3afdf6f0e22894f36,2024-11-14_20h04.39.216,Tarea de género gramatical,2024.2.2,Win32,144.9275362,,,,,,,,,,,,,,,,,,,,,,,,618.6524,619.7953,l,1,0.4749,,[],[],[],[],[],[],[],0.4749,1,619.7953,620.2913,,,,,,527,MAS,DIS,150,pico,la,l,620.2918,620.2922,0.062962963,-0.093518519,0,0,0,,0,222,222,76,1,,,,
,,,,,,68f53d22d1c607494e355b9e,66a626ef09d4e21e1a8894ec,673649b3afdf6f0e22894f36,2024-11-14_20h04.39.216,Tarea de género gramatical,2024.2.2,Win32,144.9275362,,,,,,,,,,,,,,,,,,,,,,,,620.2926,621.7814,a,1,0.8298,,[],[],[],[],[],[],[],0.8298,1,621.7814,622.2777,,,,,,805,FEM,CON,150,mirada,,a,622.2777,622.2777,0.062962963,-0.093518519,0,0,0,,0,223,223,354,1,,,,
,,,,,,68f53d22d1c607494e355b9e,66a626ef09d4e21e1a8894ec,673649b3afdf6f0e22894f36,2024-11-14_20h04.39.216,Tarea de género gramatical,2024.2.2,Win32,144.9275362,,,,,,,,,,,,,,,,,,,,,,,,622.2783,623.5093,a,1,0.5658,,[],[],[],[],[],[],[],0.5658,1,623.5093,623.9995,,,,,,615,FEM,AGR,150,amiga,la,a,623.9995,623.9996,0.062962963,-0.093518519,0,0,0,,0,224,224,164,1,,,,
,,,,,,68f53d22d1c607494e355b9e,66a626ef09d4e21e1a8894ec,673649b3afdf6f0e22894f36,2024-11-14_20h04.39.216,Tarea de género gramatical,2024.2.2,Win32,144.9275362,,,,,,,,,,,,,,,,,,,,,,,,624.0004,625.1596,a,1,0.4933,,[],[],[],[],[],[],[],0.4933,1,625.1597,625.6552,,,,,,511,FEM,CON,150,ruta,,a,625.6552,625.6552,0.062962963,-0.093518519,0,0,0,,0,225,225,60,1,,,,
,,,,,,68f53d22d1c607494e355b9e,66a626ef09d4e21e1a8894ec,673649b3afdf6f0e22894f36,2024-11-14_20h04.39.216,Tarea de género gramatical,2024.2.2,Win32,144.9275362,,,,,,,,,,,,,,,,,,,,,,,,625.6558,626.7714,a,1,0.4535,,[],[],[],[],[],[],[],0.4535,1,626.7715,627.2746,,,,,,795,FEM,AGR,150,pierna,la,a,627.2747,627.275,0.062962963,-0.093518519,0,0,0,,0,226,226,344,1,,,,
,,,,,,68f53d22d1c607494e355b9e,66a626ef09d4e21e1a8894ec,673649b3afdf6f0e22894f36,2024-11-14_20h04.39.216,Tarea de género gramatical,2024.2.2,Win32,144.9275362,,,,,,,,,,,,,,,,,,,,,,,,627.2768,628.3664,l,1,0.4254,,[],[],[],[],[],[],[],0.4254,1,628.3665,628.8635,,,,,,556,MAS,CON,150,test,,l,628.8641,628.8645,0.062962963,-0.093518519,0,0,0,,0,227,227,105,1,,,,
,,,,,,68f53d22d1c607494e355b9e,66a626ef09d4e21e1a8894ec,673649b3afdf6f0e22894f36,2024-11-14_20h04.39.216,Tarea de género gramatical,2024.2.2,Win32,144.9275362,,,,,,,,,,,,,,,,,,,,,,,,628.8649,630.0411,l,1,0.5235,,[],[],[],[],[],[],[],0.5235,1,630.0412,630.5414,,,,,,876,MAS,AGR,150,pánico,el,l,630.5414,630.5415,0.062962963,-0.093518519,0,0,0,,0,228,228,425,1,,,,
,,,,,,68f53d22d1c607494e355b9e,66a626ef09d4e21e1a8894ec,673649b3afdf6f0e22894f36,2024-11-14_20h04.39.216,Tarea de género gramatical,2024.2.2,Win32,144.9275362,,,,,,,,,,,,,,,,,,,,,,,,630.5419,631.5819,l,0,0.3763,,[],[],[],[],[],[],[],0.3763,0,631.5823,632.0783,,,,,,735,FEM,AGR,150,mafia,la,a,632.0783,632.0783,0.062962963,-0.093518519,0,0,0,,0,229,229,284,1,,,,
,,,,,,68f53d22d1c607494e355b9e,66a626ef09d4e21e1a8894ec,673649b3afdf6f0e22894f36,2024-11-14_20h04.39.216,Tarea de género gramatical,2024.2.2,Win32,144.9275362,,,,,,,,,,,,,,,,,,,,,,,,632.0788,633.1425,a,1,0.398,,[],[],[],[],[],[],[],0.398,1,633.143,633.6406,,,,,,681,FEM,AGR,150,bruja,la,a,633.6406,633.6407,0.062962963,-0.093518519,0,0,0,,0,230,230,230,1,,,,
,,,,,,68f53d22d1c607494e355b9e,66a626ef09d4e21e1a8894ec,673649b3afdf6f0e22894f36,2024-11-14_20h04.39.216,Tarea de género gramatical,2024.2.2,Win32,144.9275362,,,,,,,,,,,,,,,,,,,,,,,,633.6412,634.8041,a,1,0.5073,,[],[],[],[],[],[],[],0.5073,1,634.8041,635.2943,,,,,,530,FEM,DIS,150,vaca,el,a,635.2951,635.2957,0.062962963,-0.093518519,0,0,0,,0,231,231,79,1,,,,
,,,,,,68f53d22d1c607494e355b9e,66a626ef09d4e21e1a8894ec,673649b3afdf6f0e22894f36,2024-11-14_20h04.39.216,Tarea de género gramatical,2024.2.2,Win32,144.9275362,,,,,,,,,,,,,,,,,,,,,,,,635.2962,636.4192,a,1,0.4628,,[],[],[],[],[],[],[],0.4628,1,636.4192,636.9154,,,,,,897,FEM,AGR,150,lógica,la,a,636.9155,636.9156,0.062962963,-0.093518519,0,0,0,,0,232,232,446,1,,,,
,,,,,,68f53d22d1c607494e355b9e,66a626ef09d4e21e1a8894ec,673649b3afdf6f0e22894f36,2024-11-14_20h04.39.216,Tarea de género gramatical,2024.2.2,Win32,144.9275362,,,,,,,,,,,,,,,,,,,,,,,,636.9163,637.9535,l,1,0.3624,,[],[],[],[],[],[],[],0.3624,1,637.9535,638.4432,,,,,,474,MAS,AGR,150,voto,el,l,638.4432,638.4433,0.062962963,-0.093518519,0,0,0,,0,233,233,23,1,,,,
,,,,,,68f53d22d1c607494e355b9e,66a626ef09d4e21e1a8894ec,673649b3afdf6f0e22894f36,2024-11-14_20h04.39.216,Tarea de género gramatical,2024.2.2,Win32,144.9275362,,,,,,,,,,,,,,,,,,,,,,,,638.444,639.9361,a,1,0.8249,,[],[],[],[],[],[],[],0.8249,1,639.9361,640.4226,,,,,,801,FEM,AGR,150,espada,la,a,640.4227,640.4227,0.062962963,-0.093518519,0,0,0,,0,234,234,350,1,,,,
,,,,,,68f53d22d1c607494e355b9e,66a626ef09d4e21e1a8894ec,673649b3afdf6f0e22894f36,2024-11-14_20h04.39.216,Tarea de género gramatical,2024.2.2,Win32,144.9275362,,,,,,,,,,,,,,,,,,,,,,,,640.4236,641.5257,l,0,0.4334,,[],[],[],[],[],[],[],0.4334,0,641.5261,642.0247,,,,,,499,FEM,CON,150,piel,,a,642.0247,642.0249,0.062962963,-0.093518519,0,0,0,,0,235,235,48,1,,,,
,,,,,,68f53d22d1c607494e355b9e,66a626ef09d4e21e1a8894ec,673649b3afdf6f0e22894f36,2024-11-14_20h04.39.216,Tarea de género gramatical,2024.2.2,Win32,144.9275362,,,,,,,,,,,,,,,,,,,,,,,,642.0253,643.5671,a,0,0.8796,,[],[],[],[],[],[],[],0.8796,0,643.5671,644.0596,,,,,,785,MAS,DIS,150,montón,la,l,644.0602,644.0605,0.062962963,-0.093518519,0,0,0,,0,236,236,334,1,,,,
,,,,,,68f53d22d1c607494e355b9e,66a626ef09d4e21e1a8894ec,673649b3afdf6f0e22894f36,2024-11-14_20h04.39.216,Tarea de género gramatical,2024.2.2,Win32,144.9275362,,,,,,,,,,,,,,,,,,,,,,,,644.0609,645.3395,a,1,0.617,,[],[],[],[],[],[],[],0.617,1,645.3399,645.8537,,,,,,495,FEM,AGR,150,isla,la,a,645.8537,645.8537,0.062962963,-0.093518519,0,0,0,,0,237,237,44,1,,,,
,,,,,,68f53d22d1c607494e355b9e,66a626ef09d4e21e1a8894ec,673649b3afdf6f0e22894f36,2024-11-14_20h04.39.216,Tarea de género gramatical,2024.2.2,Win32,144.9275362,,,,,,,,,,,,,,,,,,,,,,,,645.8542,646.9609,l,1,0.4468,,[],[],[],[],[],[],[],0.4468,1,646.961,647.4578,,,,,,712,MAS,CON,150,video,,l,647.4579,647.4579,0.062962963,-0.093518519,0,0,0,,0,238,238,261,1,,,,
,,,,,,68f53d22d1c607494e355b9e,66a626ef09d4e21e1a8894ec,673649b3afdf6f0e22894f36,2024-11-14_20h04.39.216,Tarea de género gramatical,2024.2.2,Win32,144.9275362,,,,,,,,,,,,,,,,,,,,,,,,647.4587,648.5338,l,1,0.4041,,[],[],[],[],[],[],[],0.4041,1,648.5338,649.0314,,,,,,864,MAS,AGR,150,sótano,el,l,649.0315,649.0315,0.062962963,-0.093518519,0,0,0,,0,239,239,413,1,,,,
,,,,,,68f53d22d1c607494e355b9e,66a626ef09d4e21e1a8894ec,673649b3afdf6f0e22894f36,2024-11-14_20h04.39.216,Tarea de género gramatical,2024.2.2,Win32,144.9275362,,,,,,,,,,,,,,,,,,,,,,,,649.0321,650.2865,a,0,0.5948,,[],[],[],[],[],[],[],0.5948,0,650.2869,650.7934,,,,,,588,MAS,AGR,150,luto,el,l,650.7956,650.7965,0.062962963,-0.093518519,0,0,0,,0,240,240,137,1,,,,
,,,,,,68f53d22d1c607494e355b9e,66a626ef09d4e21e1a8894ec,673649b3afdf6f0e22894f36,2024-11-14_20h04.39.216,Tarea de género gramatical,2024.2.2,Win32,144.9275362,,,,,,,,,,,,,,,,,,,,,,,,650.7974,651.917,l,1,0.4552,,[],[],[],[],[],[],[],0.4552,1,651.9175,652.409,,,,,,827,MAS,DIS,150,jardín,la,l,652.4091,652.4092,0.062962963,-0.093518519,0,0,0,,0,241,241,376,1,,,,
,,,,,,68f53d22d1c607494e355b9e,66a626ef09d4e21e1a8894ec,673649b3afdf6f0e22894f36,2024-11-14_20h04.39.216,Tarea de género gramatical,2024.2.2,Win32,144.9275362,,,,,,,,,,,,,,,,,,,,,,,,652.4099,653.5425,l,1,0.4715,,[],[],[],[],[],[],[],0.4715,1,653.5426,654.0357,,,,,,750,MAS,AGR,150,túnel,el,l,654.0357,654.0357,0.062962963,-0.093518519,0,0,0,,0,242,242,299,1,,,,
,,,,,,68f53d22d1c607494e355b9e,66a626ef09d4e21e1a8894ec,673649b3afdf6f0e22894f36,2024-11-14_20h04.39.216,Tarea de género gramatical,2024.2.2,Win32,144.9275362,,,,,,,,,,,,,,,,,,,,,,,,654.0364,655.1851,a,1,0.4746,,[],[],[],[],[],[],[],0.4746,1,655.1851,655.684,,,,,,571,FEM,CON,150,pila,,a,655.6841,655.6842,0.062962963,-0.093518519,0,0,0,,0,243,243,120,1,,,,
,,,,,,68f53d22d1c607494e355b9e,66a626ef09d4e21e1a8894ec,673649b3afdf6f0e22894f36,2024-11-14_20h04.39.216,Tarea de género gramatical,2024.2.2,Win32,144.9275362,,,,,,,,,,,,,,,,,,,,,,,,655.6848,656.9273,l,0,0.5806,,[],[],[],[],[],[],[],0.5806,0,656.9277,657.4287,,,,,,668,FEM,DIS,150,nieve,el,a,657.4288,657.4289,0.062962963,-0.093518519,0,0,0,,0,244,244,217,1,,,,
,,,,,,68f53d22d1c607494e355b9e,66a626ef09d4e21e1a8894ec,673649b3afdf6f0e22894f36,2024-11-14_20h04.39.216,Tarea de género gramatical,2024.2.2,Win32,144.9275362,,,,,,,,,,,,,,,,,,,,,,,,657.4299,658.6673,l,1,0.5606,,[],[],[],[],[],[],[],0.5606,1,658.6682,659.1546,,,,,,659,MAS,DIS,150,banco,la,l,659.1552,659.1557,0.062962963,-0.093518519,0,0,0,,0,245,245,208,1,,,,
,,,,,,68f53d22d1c607494e355b9e,66a626ef09d4e21e1a8894ec,673649b3afdf6f0e22894f36,2024-11-14_20h04.39.216,Tarea de género gramatical,2024.2.2,Win32,144.9275362,,,,,,,,,,,,,,,,,,,,,,,,659.1562,660.2513,l,1,0.4303,,[],[],[],[],[],[],[],0.4303,1,660.2513,660.7581,,,,,,700,MAS,CON,150,cerdo,,l,660.7582,660.7582,0.062962963,-0.093518519,0,0,0,,0,246,246,249,1,,,,
,,,,,,68f53d22d1c607494e355b9e,66a626ef09d4e21e1a8894ec,673649b3afdf6f0e22894f36,2024-11-14_20h04.39.216,Tarea de género gramatical,2024.2.2,Win32,144.9275362,,,,,,,,,,,,,,,,,,,,,,,,660.7587,661.9306,l,1,0.5133,,[],[],[],[],[],[],[],0.5133,1,661.9306,662.4283,,,,,,533,MAS,DIS,150,nene,la,l,662.4283,662.4283,0.062962963,-0.093518519,0,0,0,,0,247,247,82,1,,,,
,,,,,,68f53d22d1c607494e355b9e,66a626ef09d4e21e1a8894ec,673649b3afdf6f0e22894f36,2024-11-14_20h04.39.216,Tarea de género gramatical,2024.2.2,Win32,144.9275362,,,,,,,,,,,,,,,,,,,,,,,,662.4288,663.8811,l,1,0.7925,,[],[],[],[],[],[],[],0.7925,1,663.8811,664.3714,,,,,,706,MAS,CON,150,techo,,l,664.3714,664.3714,0.062962963,-0.093518519,0,0,0,,0,248,248,255,1,,,,
,,,,,,68f53d22d1c607494e355b9e,66a626ef09d4e21e1a8894ec,673649b3afdf6f0e22894f36,2024-11-14_20h04.39.216,Tarea de género gramatical,2024.2.2,Win32,144.9275362,,,,,,,,,,,,,,,,,,,,,,,,664.3723,665.5091,l,1,0.4631,,[],[],[],[],[],[],[],0.4631,1,665.5092,666.0066,,,,,,887,MAS,DIS,150,hombro,la,l,666.0074,666.0079,0.062962963,-0.093518519,0,0,0,,0,249,249,436,1,,,,
,,,,,,68f53d22d1c607494e355b9e,66a626ef09d4e21e1a8894ec,673649b3afdf6f0e22894f36,2024-11-14_20h04.39.216,Tarea de género gramatical,2024.2.2,Win32,144.9275362,,,,,,,,,,,,,,,,,,,,,,,,666.0084,667.0431,l,1,0.3742,,[],[],[],[],[],[],[],0.3742,1,667.0433,667.5416,,,,,,803,MAS,DIS,150,verano,la,l,667.5417,667.5418,0.062962963,-0.093518519,0,0,0,,0,250,250,352,1,,,,
