counterbalancing_condition,consent_prescreening.block_1/declare_consent,consent_prescreening.block_1/age_years,consent_prescreening.block_1/gender,consent_prescreening.block_1/language_disorder,consent_prescreening.block_1/first_language,PROLIFIC_PID,STUDY_ID,SESSION_ID,date,expName,psychopyVersion,OS,frameRate,check_prescreening_answers.started,check_prescreening_answers.stopped,Instructions.started,Instructions.stopped,instr_done_keyboard.keys,instr_done_touch.x,instr_done_touch.y,instr_done_touch.leftButton,instr_done_touch.midButton,instr_done_touch.rightButton,instr_done_touch.clicked_name,instruction_pages.thisRepN,instruction_pages.thisTrialN,instruction_pages.thisN,instruction_pages.thisIndex,instruction_pages.ran,pageN,phase,instruct_text,has_image,instruct_image,instr_done_keyboard.rt,instr_done_keyboard.duration,presentTrial.started,presentTrial.stopped,response.keys,response.corr,touch_resp.x,touch_resp.y,touch_resp.leftButton,touch_resp.midButton,touch_resp.rightButton,touch_resp.time,touch_resp.clicked_name,rt,corr,feedback.started,feedback.stopped,practice_trials.thisRepN,practice_trials.thisTrialN,practice_trials.thisN,practice_trials.thisIndex,practice_trials.ran,TrialID,StimulusType,Condition,PrimeDuration,Prime,Flanker,corrAns,response.rt,response.duration,Break.started,Break.stopped,break_done_touch.x,break_done_touch.y,break_done_touch.leftButton,break_done_touch.midButton,break_done_touch.rightButton,break_done_keyboard.keys,experiment_trials.thisRepN,experiment_trials.thisTrialN,experiment_trials.thisN,experiment_trials.thisIndex,experiment_trials.ran,break_done_keyboard.rt,break_done_keyboard.duration,End.started,End.stopped
0,"[""over_18"",""comfortable"",""read_info"",""consent_given""]",30,M,"[""none""]","[""spanish""]",6aae3b1d0dd831229d482896,66a626ef09d4e21e1a8894ec,6735ed00d444e62ffaf1c1b3,2024-11-14_09h31.32.985,Tarea de género gramatical,2024.2.2,Win32,60.24096386,,,,,,,,,,,,,,,,,,,,,,,,,,,,,,,,,,,,,,,,,,,,,,,,,,,,,,,,,,,,,,,,,,,,,
,,,,,,6aae3b1d0dd831229d482896,66a626ef09d4e21e1a8894ec,6735ed00d444e62ffaf1c1b3,2024-11-14_09h31.32.985,Tarea de género gramatical,2024.2.2,Win32,60.24096386,39.8379,39.8384,,,,,,,,,,,,,,,,,,,,,,,,,,,,,,,,,,,,,,,,,,,,,,,,,,,,,,,,,,,,,,,,,,,
,,,,,,6aae3b1d0dd831229d482896,66a626ef09d4e21e1a8894ec,6735ed00d444e62ffaf1c1b3,2024-11-14_09h31.32.985,Tarea de género gramatical,2024.2.2,Win32,60.24096386,,,39.9204,45.666,,-0.015625,-0.380208333,1,0,0,instr_done_button,0,0,0,0,1,1,instructions,"INSTRUCCIONES
Va a realizar una prueba de selección gramatical. Desde el comienzo de la prueba mire siempre al centro de la pantalla. Al cabo de un momento, aparecerán palabras. La tarea consiste en determinar si la palabra del centro (siempre será un sustantivo), pertenece al género masculino o femenino.

Pulse la tecla ESPACIO o toque el botón de abajo para continuar.",0,keyboardresponseMF.png,,,,,,,,,,,,,,,,,,,,,,,,,,,,,,,,,,,,,,,,,,,,,,,,
,,,,,,6aae3b1d0dd831229d482896,66a626ef09d4e21e1a8894ec,6735ed00d444e62ffaf1c1b3,2024-11-14_09h31.32.985,Tarea de género gramatical,2024.2.2,Win32,60.24096386,,,45.681,64.2941,space,0.416666667,0.225260417,0,0,0,,0,1,1,1,1,2,instructions,"Si su dispositivo tiene teclado, pulse la tecla ""A"" para las palabras en masculino (por ejemplo: ""arroz"") y la tecla ""L"" para las palabras en femenino (por ejemplo: ""mano"").
Pulse la tecla ESPACIO o toque el botón de abajo para continuar.",1,keyboardresponseMF.png,18.4865,,,,,,,,,,,,,,,,,,,,,,,,,,,,,,,,,,,,,,,,,,,,,,,
,,,,,,6aae3b1d0dd831229d482896,66a626ef09d4e21e1a8894ec,6735ed00d444e62ffaf1c1b3,2024-11-14_09h31.32.985,Tarea de género gramatical,2024.2.2,Win32,60.24096386,,,64.2982,67.1918,space,0.416666667,0.225260417,0,0,0,,0,2,2,2,1,3,instructions,"Si utiliza un dispositivo sólo táctil, colóquelo en horizontal y utilice los botones de la pantalla. No utilice el ratón.
Pulse la tecla ESPACIO o toque el botón de abajo para continuar.",2,touchresponseMF.png,2.8381,,,,,,,,,,,,,,,,,,,,,,,,,,,,,,,,,,,,,,,,,,,,,,,
,,,,,,6aae3b1d0dd831229d482896,66a626ef09d4e21e1a8894ec,6735ed00d444e62ffaf1c1b3,2024-11-14_09h31.32.985,Tarea de género gramatical,2024.2.2,Win32,60.24096386,,,67.2057,70.05,space,0.416666667,0.225260417,0,0,0,,0,3,3,3,1,4,instructions,"Es muy importante que responda con la mayor rapidez y precisión posibles, ya que cada cadena de letras sólo estará en pantalla durante un instante. Si no responde en ese tiempo, aparecerá el mensaje ""Muy lento"" y el experimento pasará a la siguiente palabra. Los primeros 15 intentos serán de práctica y habrá dos descansos durante la prueba.
Pulse la tecla ESPACIO o toque el botón de abajo para iniciar la parte de práctica.",0,keyboardresponseMF.png,2.8207,,,,,,,,,,,,,,,,,,,,,,,,,,,,,,,,,,,,,,,,,,,,,,,
,,,,,,6aae3b1d0dd831229d482896,66a626ef09d4e21e1a8894ec,6735ed00d444e62ffaf1c1b3,2024-11-14_09h31.32.985,Tarea de género gramatical,2024.2.2,Win32,60.24096386,,,,,,,,,,,,,,,,,,,,,,,,70.1122,72.7603,,0,[],[],[],[],[],[],[],,-1,72.7608,73.2523,0,0,0,6,1,2007,FEM,AGR,150,navaja,la,a,,,,,,,,,,,,,,,,,,,
,,,,,,6aae3b1d0dd831229d482896,66a626ef09d4e21e1a8894ec,6735ed00d444e62ffaf1c1b3,2024-11-14_09h31.32.985,Tarea de género gramatical,2024.2.2,Win32,60.24096386,,,,,,,,,,,,,,,,,,,,,,,,73.2594,75.2566,a,1,[],[],[],[],[],[],[],1.3287,1,75.2805,75.7502,0,1,1,14,1,2015,MAS,DIS,150,robot,la,l,1.3287,,,,,,,,,,,,,,,,,,
,,,,,,6aae3b1d0dd831229d482896,66a626ef09d4e21e1a8894ec,6735ed00d444e62ffaf1c1b3,2024-11-14_09h31.32.985,Tarea de género gramatical,2024.2.2,Win32,60.24096386,,,,,,,,,,,,,,,,,,,,,,,,75.7565,78.0328,l,0,[],[],[],[],[],[],[],1.6082,0,78.0377,78.5306,0,2,2,11,1,2012,MAS,DIS,150,clima,la,l,1.6082,,,,,,,,,,,,,,,,,,
,,,,,,6aae3b1d0dd831229d482896,66a626ef09d4e21e1a8894ec,6735ed00d444e62ffaf1c1b3,2024-11-14_09h31.32.985,Tarea de género gramatical,2024.2.2,Win32,60.24096386,,,,,,,,,,,,,,,,,,,,,,,,78.5363,80.7964,l,1,[],[],[],[],[],[],[],1.5897,1,80.7994,81.294,0,3,3,0,1,2001,FEM,AGR,150,nuca,la,a,1.5897,,,,,,,,,,,,,,,,,,
,,,,,,6aae3b1d0dd831229d482896,66a626ef09d4e21e1a8894ec,6735ed00d444e62ffaf1c1b3,2024-11-14_09h31.32.985,Tarea de género gramatical,2024.2.2,Win32,60.24096386,,,,,,,,,,,,,,,,,,,,,,,,81.3006,82.8767,a,1,[],[],[],[],[],[],[],0.9022,1,82.877,83.3759,0,4,4,13,1,2014,MAS,CON,150,siglo,,l,0.9022,,,,,,,,,,,,,,,,,,
,,,,,,6aae3b1d0dd831229d482896,66a626ef09d4e21e1a8894ec,6735ed00d444e62ffaf1c1b3,2024-11-14_09h31.32.985,Tarea de género gramatical,2024.2.2,Win32,60.24096386,,,,,,,,,,,,,,,,,,,,,,,,83.3822,85.0576,a,0,[],[],[],[],[],[],[],1.0015,0,85.0606,85.5572,0,5,5,2,1,2003,FEM,DIS,150,daga,el,a,1.0015,,,,,,,,,,,,,,,,,,
,,,,,,6aae3b1d0dd831229d482896,66a626ef09d4e21e1a8894ec,6735ed00d444e62ffaf1c1b3,2024-11-14_09h31.32.985,Tarea de género gramatical,2024.2.2,Win32,60.24096386,,,,,,,,,,,,,,,,,,,,,,,,85.5609,87.0556,a,1,[],[],[],[],[],[],[],0.8177,1,87.0585,87.5546,0,6,6,9,1,2010,MAS,AGR,150,vecino,el,l,0.8177,,,,,,,,,,,,,,,,,,
,,,,,,6aae3b1d0dd831229d482896,66a626ef09d4e21e1a8894ec,6735ed00d444e62ffaf1c1b3,2024-11-14_09h31.32.985,Tarea de género gramatical,2024.2.2,Win32,60.24096386,,,,,,,,,,,,,,,,,,,,,,,,87.5588,89.0569,l,1,[],[],[],[],[],[],[],0.8251,1,89.0572,89.5539,0,7,7,3,1,2004,FEM,AGR,150,venta,la,a,0.8251,,,,,,,,,,,,,,,,,,
,,,,,,6aae3b1d0dd831229d482896,66a626ef09d4e21e1a8894ec,6735ed00d444e62ffaf1c1b3,2024-11-14_09h31.32.985,Tarea de género gramatical,2024.2.2,Win32,60.24096386,,,,,,,,,,,,,,,,,,,,,,,,89.5575,91.3854,l,1,[],[],[],[],[],[],[],1.1501,1,91.3855,91.8849,0,8,8,5,1,2006,FEM,DIS,150,serie,el,a,1.1501,,,,,,,,,,,,,,,,,,
,,,,,,6aae3b1d0dd831229d482896,66a626ef09d4e21e1a8894ec,6735ed00d444e62ffaf1c1b3,2024-11-14_09h31.32.985,Tarea de género gramatical,2024.2.2,Win32,60.24096386,,,,,,,,,,,,,,,,,,,,,,,,91.8879,93.4369,a,1,[],[],[],[],[],[],[],0.8769,1,93.4372,93.9333,0,9,9,10,1,2011,MAS,CON,150,canal,,l,0.8769,,,,,,,,,,,,,,,,,,
,,,,,,6aae3b1d0dd831229d482896,66a626ef09d4e21e1a8894ec,6735ed00d444e62ffaf1c1b3,2024-11-14_09h31.32.985,Tarea de género gramatical,2024.2.2,Win32,60.24096386,,,,,,,,,,,,,,,,,,,,,,,,93.9378,95.3986,l,1,[],[],[],[],[],[],[],0.7884,1,95.3988,95.8983,0,10,10,4,1,2005,FEM,CON,150,placa,,a,0.7884,,,,,,,,,,,,,,,,,,
,,,,,,6aae3b1d0dd831229d482896,66a626ef09d4e21e1a8894ec,6735ed00d444e62ffaf1c1b3,2024-11-14_09h31.32.985,Tarea de género gramatical,2024.2.2,Win32,60.24096386,,,,,,,,,,,,,,,,,,,,,,,,95.9016,97.1968,l,1,[],[],[],[],[],[],[],0.6174,1,97.197,97.6964,0,11,11,1,1,2002,FEM,CON,150,pala,,a,0.6174,,,,,,,,,,,,,,,,,,
,,,,,,6aae3b1d0dd831229d482896,66a626ef09d4e21e1a8894ec,6735ed00d444e62ffaf1c1b3,2024-11-14_09h31.32.985,Tarea de género gramatical,2024.2.2,Win32,60.24096386,,,,,,,,,,,,,,,,,,,,,,,,97.6997,99.0316,l,1,[],[],[],[],[],[],[],0.6604,1,99.0317,99.5279,0,12,12,7,1,2008,FEM,CON,150,siesta,,a,0.6604,,,,,,,,,,,,,,,,,,
,,,,,,6aae3b1d0dd831229d482896,66a626ef09d4e21e1a8894ec,6735ed00d444e62ffaf1c1b3,2024-11-14_09h31.32.985,Tarea de género gramatical,2024.2.2,Win32,60.24096386,,,,,,,,,,,,,,,,,,,,,,,,99.5317,100.8931,a,1,[],[],[],[],[],[],[],0.6843,1,100.8933,101.3928,0,13,13,12,1,2013,MAS,AGR,150,acero,el,l,0.6843,,,,,,,,,,,,,,,,,,
,,,,,,6aae3b1d0dd831229d482896,66a626ef09d4e21e1a8894ec,6735ed00d444e62ffaf1c1b3,2024-11-14_09h31.32.985,Tarea de género gramatical,2024.2.2,Win32,60.24096386,,,,,,,,,,,,,,,,,,,,,,,,101.3962,103.2072,l,0,[],[],[],[],[],[],[],1.1337,0,103.2096,103.7066,0,14,14,8,1,2009,MAS,DIS,150,puerto,la,l,1.1337,,,,,,,,,,,,,,,,,,
,,,,,,6aae3b1d0dd831229d482896,66a626ef09d4e21e1a8894ec,6735ed00d444e62ffaf1c1b3,2024-11-14_09h31.32.985,Tarea de género gramatical,2024.2.2,Win32,60.24096386,,,106.4592,109.3172,space,0.416666667,0.225260417,0,0,0,,,,,,,,,,,,2.8367,,109.4927,110.8149,l,1,[],[],[],[],[],[],[],0.6535,1,110.8178,111.3138,,,,,,62,FEM,CON,150,sopa,,a,0.6535,,111.3142,111.3193,0.416666667,0.225260417,0,0,0,,0,0,0,61,1,,,,
,,,,,,6aae3b1d0dd831229d482896,66a626ef09d4e21e1a8894ec,6735ed00d444e62ffaf1c1b3,2024-11-14_09h31.32.985,Tarea de género gramatical,2024.2.2,Win32,60.24096386,,,,,,,,,,,,,,,,,,,,,,,,111.3204,112.6293,l,1,[],[],[],[],[],[],[],0.6355,1,112.6295,113.1287,,,,,,435,FEM,DIS,150,niebla,el,a,0.6355,,113.1288,113.129,0.416666667,0.225260417,0,0,0,,0,1,1,434,1,,,,
,,,,,,6aae3b1d0dd831229d482896,66a626ef09d4e21e1a8894ec,6735ed00d444e62ffaf1c1b3,2024-11-14_09h31.32.985,Tarea de género gramatical,2024.2.2,Win32,60.24096386,,,,,,,,,,,,,,,,,,,,,,,,113.1305,114.7271,l,1,[],[],[],[],[],[],[],0.9213,1,114.7272,115.2299,,,,,,123,FEM,DIS,150,tela,el,a,0.9213,,115.2316,115.2337,0.416666667,0.225260417,0,0,0,,0,2,2,122,1,,,,
,,,,,,6aae3b1d0dd831229d482896,66a626ef09d4e21e1a8894ec,6735ed00d444e62ffaf1c1b3,2024-11-14_09h31.32.985,Tarea de género gramatical,2024.2.2,Win32,60.24096386,,,,,,,,,,,,,,,,,,,,,,,,115.237,116.4337,l,1,[],[],[],[],[],[],[],0.517,1,116.4339,116.9325,,,,,,127,FEM,AGR,150,cuna,la,a,0.517,,116.9326,116.9329,0.416666667,0.225260417,0,0,0,,0,3,3,126,1,,,,
,,,,,,6aae3b1d0dd831229d482896,66a626ef09d4e21e1a8894ec,6735ed00d444e62ffaf1c1b3,2024-11-14_09h31.32.985,Tarea de género gramatical,2024.2.2,Win32,60.24096386,,,,,,,,,,,,,,,,,,,,,,,,116.9341,118.2823,a,1,[],[],[],[],[],[],[],0.667,1,118.2825,118.7808,,,,,,83,MAS,CON,150,nene,,l,0.667,,118.7809,118.7811,0.416666667,0.225260417,0,0,0,,0,4,4,82,1,,,,
,,,,,,6aae3b1d0dd831229d482896,66a626ef09d4e21e1a8894ec,6735ed00d444e62ffaf1c1b3,2024-11-14_09h31.32.985,Tarea de género gramatical,2024.2.2,Win32,60.24096386,,,,,,,,,,,,,,,,,,,,,,,,118.7828,120.1299,l,1,[],[],[],[],[],[],[],0.6667,1,120.1302,120.6292,,,,,,9,FEM,DIS,150,mamá,el,a,0.6667,,120.6294,120.6296,0.416666667,0.225260417,0,0,0,,0,5,5,8,1,,,,
,,,,,,6aae3b1d0dd831229d482896,66a626ef09d4e21e1a8894ec,6735ed00d444e62ffaf1c1b3,2024-11-14_09h31.32.985,Tarea de género gramatical,2024.2.2,Win32,60.24096386,,,,,,,,,,,,,,,,,,,,,,,,120.6309,121.8785,l,1,[],[],[],[],[],[],[],0.5665,1,121.8786,122.3775,,,,,,373,FEM,AGR,150,lluvia,la,a,0.5665,,122.3793,122.3815,0.416666667,0.225260417,0,0,0,,0,6,6,372,1,,,,
,,,,,,6aae3b1d0dd831229d482896,66a626ef09d4e21e1a8894ec,6735ed00d444e62ffaf1c1b3,2024-11-14_09h31.32.985,Tarea de género gramatical,2024.2.2,Win32,60.24096386,,,,,,,,,,,,,,,,,,,,,,,,122.3825,123.7097,a,1,[],[],[],[],[],[],[],0.65,1,123.7099,124.2089,,,,,,424,MAS,AGR,150,rastro,el,l,0.65,,124.209,124.2092,0.416666667,0.225260417,0,0,0,,0,7,7,423,1,,,,
,,,,,,6aae3b1d0dd831229d482896,66a626ef09d4e21e1a8894ec,6735ed00d444e62ffaf1c1b3,2024-11-14_09h31.32.985,Tarea de género gramatical,2024.2.2,Win32,60.24096386,,,,,,,,,,,,,,,,,,,,,,,,124.2105,125.7082,l,1,[],[],[],[],[],[],[],0.8169,1,125.7082,126.2072,,,,,,213,FEM,DIS,150,magia,el,a,0.8169,,126.2073,126.2074,0.416666667,0.225260417,0,0,0,,0,8,8,212,1,,,,
,,,,,,6aae3b1d0dd831229d482896,66a626ef09d4e21e1a8894ec,6735ed00d444e62ffaf1c1b3,2024-11-14_09h31.32.985,Tarea de género gramatical,2024.2.2,Win32,60.24096386,,,,,,,,,,,,,,,,,,,,,,,,126.2086,127.8062,a,1,[],[],[],[],[],[],[],0.9169,1,127.8064,128.305,,,,,,336,MAS,DIS,150,crimen,la,l,0.9169,,128.305,128.3053,0.416666667,0.225260417,0,0,0,,0,9,9,335,1,,,,
,,,,,,6aae3b1d0dd831229d482896,66a626ef09d4e21e1a8894ec,6735ed00d444e62ffaf1c1b3,2024-11-14_09h31.32.985,Tarea de género gramatical,2024.2.2,Win32,60.24096386,,,,,,,,,,,,,,,,,,,,,,,,128.3066,130.1203,a,1,[],[],[],[],[],[],[],1.1331,1,130.1204,130.6193,,,,,,94,MAS,AGR,150,cabo,el,l,1.1331,,130.6195,130.6197,0.416666667,0.225260417,0,0,0,,0,10,10,93,1,,,,
,,,,,,6aae3b1d0dd831229d482896,66a626ef09d4e21e1a8894ec,6735ed00d444e62ffaf1c1b3,2024-11-14_09h31.32.985,Tarea de género gramatical,2024.2.2,Win32,60.24096386,,,,,,,,,,,,,,,,,,,,,,,,130.6215,132.1026,a,1,[],[],[],[],[],[],[],0.8008,1,132.1026,132.6014,,,,,,72,MAS,DIS,150,hoyo,la,l,0.8008,,132.6035,132.6045,0.416666667,0.225260417,0,0,0,,0,11,11,71,1,,,,
,,,,,,6aae3b1d0dd831229d482896,66a626ef09d4e21e1a8894ec,6735ed00d444e62ffaf1c1b3,2024-11-14_09h31.32.985,Tarea de género gramatical,2024.2.2,Win32,60.24096386,,,,,,,,,,,,,,,,,,,,,,,,132.6055,134.0503,l,1,[],[],[],[],[],[],[],0.7673,1,134.0504,134.5488,,,,,,43,FEM,AGR,150,nena,la,a,0.7673,,134.5489,134.549,0.416666667,0.225260417,0,0,0,,0,12,12,42,1,,,,
,,,,,,6aae3b1d0dd831229d482896,66a626ef09d4e21e1a8894ec,6735ed00d444e62ffaf1c1b3,2024-11-14_09h31.32.985,Tarea de género gramatical,2024.2.2,Win32,60.24096386,,,,,,,,,,,,,,,,,,,,,,,,134.5504,135.832,l,1,[],[],[],[],[],[],[],0.6007,1,135.8321,136.331,,,,,,265,FEM,AGR,150,rueda,la,a,0.6007,,136.3312,136.3313,0.416666667,0.225260417,0,0,0,,0,13,13,264,1,,,,
,,,,,,6aae3b1d0dd831229d482896,66a626ef09d4e21e1a8894ec,6735ed00d444e62ffaf1c1b3,2024-11-14_09h31.32.985,Tarea de género gramatical,2024.2.2,Win32,60.24096386,,,,,,,,,,,,,,,,,,,,,,,,136.3335,137.63,a,1,[],[],[],[],[],[],[],0.6168,1,137.6302,138.1287,,,,,,376,MAS,AGR,150,efecto,el,l,0.6168,,138.1289,138.1289,0.416666667,0.225260417,0,0,0,,0,14,14,375,1,,,,
,,,,,,6aae3b1d0dd831229d482896,66a626ef09d4e21e1a8894ec,6735ed00d444e62ffaf1c1b3,2024-11-14_09h31.32.985,Tarea de género gramatical,2024.2.2,Win32,60.24096386,,,,,,,,,,,,,,,,,,,,,,,,138.1306,140.1943,a,1,[],[],[],[],[],[],[],1.383,1,140.1944,140.6931,,,,,,384,MAS,DIS,150,pedazo,la,l,1.383,,140.6949,140.6957,0.416666667,0.225260417,0,0,0,,0,15,15,383,1,,,,
,,,,,,6aae3b1d0dd831229d482896,66a626ef09d4e21e1a8894ec,6735ed00d444e62ffaf1c1b3,2024-11-14_09h31.32.985,Tarea de género gramatical,2024.2.2,Win32,60.24096386,,,,,,,,,,,,,,,,,,,,,,,,140.6967,142.2919,a,1,[],[],[],[],[],[],[],0.9165,1,142.292,142.791,,,,,,396,MAS,DIS,150,tesoro,la,l,0.9165,,142.7911,142.7911,0.416666667,0.225260417,0,0,0,,0,16,16,395,1,,,,
,,,,,,6aae3b1d0dd831229d482896,66a626ef09d4e21e1a8894ec,6735ed00d444e62ffaf1c1b3,2024-11-14_09h31.32.985,Tarea de género gramatical,2024.2.2,Win32,60.24096386,,,,,,,,,,,,,,,,,,,,,,,,142.7925,144.1239,a,1,[],[],[],[],[],[],[],0.6509,1,144.1241,144.6249,,,,,,125,MAS,CON,150,bate,,l,0.6509,,144.625,144.6254,0.416666667,0.225260417,0,0,0,,0,17,17,124,1,,,,
,,,,,,6aae3b1d0dd831229d482896,66a626ef09d4e21e1a8894ec,6735ed00d444e62ffaf1c1b3,2024-11-14_09h31.32.985,Tarea de género gramatical,2024.2.2,Win32,60.24096386,,,,,,,,,,,,,,,,,,,,,,,,144.6294,145.9584,l,0,[],[],[],[],[],[],[],0.6516,0,145.9613,146.4569,,,,,,89,MAS,CON,150,maíz,,l,0.6516,,146.457,146.4578,0.416666667,0.225260417,0,0,0,,0,18,18,88,1,,,,
,,,,,,6aae3b1d0dd831229d482896,66a626ef09d4e21e1a8894ec,6735ed00d444e62ffaf1c1b3,2024-11-14_09h31.32.985,Tarea de género gramatical,2024.2.2,Win32,60.24096386,,,,,,,,,,,,,,,,,,,,,,,,146.4609,147.6238,a,1,[],[],[],[],[],[],[],0.4859,1,147.6264,148.1216,,,,,,173,MAS,CON,150,libro,,l,0.4859,,148.1216,148.1222,0.416666667,0.225260417,0,0,0,,0,19,19,172,1,,,,
,,,,,,6aae3b1d0dd831229d482896,66a626ef09d4e21e1a8894ec,6735ed00d444e62ffaf1c1b3,2024-11-14_09h31.32.985,Tarea de género gramatical,2024.2.2,Win32,60.24096386,,,,,,,,,,,,,,,,,,,,,,,,148.1255,149.4712,l,1,[],[],[],[],[],[],[],0.667,1,149.4715,149.9697,,,,,,368,FEM,CON,150,gracia,,a,0.667,,149.9743,149.9774,0.416666667,0.225260417,0,0,0,,0,20,20,367,1,,,,
,,,,,,6aae3b1d0dd831229d482896,66a626ef09d4e21e1a8894ec,6735ed00d444e62ffaf1c1b3,2024-11-14_09h31.32.985,Tarea de género gramatical,2024.2.2,Win32,60.24096386,,,,,,,,,,,,,,,,,,,,,,,,149.9807,151.1533,a,1,[],[],[],[],[],[],[],0.5011,1,151.1535,151.6514,,,,,,413,MAS,CON,150,diario,,l,0.5011,,151.6516,151.6519,0.416666667,0.225260417,0,0,0,,0,21,21,412,1,,,,
,,,,,,6aae3b1d0dd831229d482896,66a626ef09d4e21e1a8894ec,6735ed00d444e62ffaf1c1b3,2024-11-14_09h31.32.985,Tarea de género gramatical,2024.2.2,Win32,60.24096386,,,,,,,,,,,,,,,,,,,,,,,,151.6562,153.1672,a,1,[],[],[],[],[],[],[],0.8344,1,153.1675,153.6667,,,,,,114,MAS,DIS,150,menú,la,l,0.8344,,153.6669,153.6671,0.416666667,0.225260417,0,0,0,,0,22,22,113,1,,,,
,,,,,,6aae3b1d0dd831229d482896,66a626ef09d4e21e1a8894ec,6735ed00d444e62ffaf1c1b3,2024-11-14_09h31.32.985,Tarea de género gramatical,2024.2.2,Win32,60.24096386,,,,,,,,,,,,,,,,,,,,,,,,153.6702,155.0327,l,1,[],[],[],[],[],[],[],0.6848,1,155.033,155.5311,,,,,,355,FEM,AGR,150,mirada,la,a,0.6848,,155.5313,155.5316,0.416666667,0.225260417,0,0,0,,0,23,23,354,1,,,,
,,,,,,6aae3b1d0dd831229d482896,66a626ef09d4e21e1a8894ec,6735ed00d444e62ffaf1c1b3,2024-11-14_09h31.32.985,Tarea de género gramatical,2024.2.2,Win32,60.24096386,,,,,,,,,,,,,,,,,,,,,,,,155.5347,156.9476,a,1,[],[],[],[],[],[],[],0.7348,1,156.9479,157.4457,,,,,,23,MAS,CON,150,rato,,l,0.7348,,157.4504,157.4533,0.416666667,0.225260417,0,0,0,,0,24,24,22,1,,,,
,,,,,,6aae3b1d0dd831229d482896,66a626ef09d4e21e1a8894ec,6735ed00d444e62ffaf1c1b3,2024-11-14_09h31.32.985,Tarea de género gramatical,2024.2.2,Win32,60.24096386,,,,,,,,,,,,,,,,,,,,,,,,157.4566,158.6619,a,1,[],[],[],[],[],[],[],0.5346,1,158.6622,159.1605,,,,,,161,MAS,CON,150,chico,,l,0.5346,,159.1607,159.1611,0.416666667,0.225260417,0,0,0,,0,25,25,160,1,,,,
,,,,,,6aae3b1d0dd831229d482896,66a626ef09d4e21e1a8894ec,6735ed00d444e62ffaf1c1b3,2024-11-14_09h31.32.985,Tarea de género gramatical,2024.2.2,Win32,60.24096386,,,,,,,,,,,,,,,,,,,,,,,,159.1644,160.7269,l,1,[],[],[],[],[],[],[],0.8845,1,160.7271,161.2253,,,,,,75,FEM,DIS,150,caza,el,a,0.8845,,161.2254,161.2259,0.416666667,0.225260417,0,0,0,,0,26,26,74,1,,,,
,,,,,,6aae3b1d0dd831229d482896,66a626ef09d4e21e1a8894ec,6735ed00d444e62ffaf1c1b3,2024-11-14_09h31.32.985,Tarea de género gramatical,2024.2.2,Win32,60.24096386,,,,,,,,,,,,,,,,,,,,,,,,161.2292,162.6251,l,1,[],[],[],[],[],[],[],0.7182,1,162.6253,163.1235,,,,,,363,FEM,DIS,150,unidad,el,a,0.7182,,163.1238,163.1241,0.416666667,0.225260417,0,0,0,,0,27,27,362,1,,,,
,,,,,,6aae3b1d0dd831229d482896,66a626ef09d4e21e1a8894ec,6735ed00d444e62ffaf1c1b3,2024-11-14_09h31.32.985,Tarea de género gramatical,2024.2.2,Win32,60.24096386,,,,,,,,,,,,,,,,,,,,,,,,163.1275,164.6898,l,1,[],[],[],[],[],[],[],0.8847,1,164.6901,165.1878,,,,,,37,FEM,AGR,150,sala,la,a,0.8847,,165.1879,165.1884,0.416666667,0.225260417,0,0,0,,0,28,28,36,1,,,,
,,,,,,6aae3b1d0dd831229d482896,66a626ef09d4e21e1a8894ec,6735ed00d444e62ffaf1c1b3,2024-11-14_09h31.32.985,Tarea de género gramatical,2024.2.2,Win32,60.24096386,,,,,,,,,,,,,,,,,,,,,,,,165.1915,166.7374,l,0,[],[],[],[],[],[],[],0.8676,0,166.7401,167.2361,,,,,,52,MAS,AGR,150,lago,el,l,0.8676,,167.2406,167.2436,0.416666667,0.225260417,0,0,0,,0,29,29,51,1,,,,
,,,,,,6aae3b1d0dd831229d482896,66a626ef09d4e21e1a8894ec,6735ed00d444e62ffaf1c1b3,2024-11-14_09h31.32.985,Tarea de género gramatical,2024.2.2,Win32,60.24096386,,,,,,,,,,,,,,,,,,,,,,,,167.2473,169.3854,a,1,[],[],[],[],[],[],[],1.4676,1,169.3881,169.8835,,,,,,390,MAS,DIS,150,rostro,la,l,1.4676,,169.8836,169.8841,0.416666667,0.225260417,0,0,0,,0,30,30,389,1,,,,
,,,,,,6aae3b1d0dd831229d482896,66a626ef09d4e21e1a8894ec,6735ed00d444e62ffaf1c1b3,2024-11-14_09h31.32.985,Tarea de género gramatical,2024.2.2,Win32,60.24096386,,,,,,,,,,,,,,,,,,,,,,,,169.8874,171.3667,a,1,[],[],[],[],[],[],[],0.8016,1,171.3678,171.8643,,,,,,22,MAS,AGR,150,pelo,el,l,0.8016,,171.8645,171.8648,0.416666667,0.225260417,0,0,0,,0,31,31,21,1,,,,
,,,,,,6aae3b1d0dd831229d482896,66a626ef09d4e21e1a8894ec,6735ed00d444e62ffaf1c1b3,2024-11-14_09h31.32.985,Tarea de género gramatical,2024.2.2,Win32,60.24096386,,,,,,,,,,,,,,,,,,,,,,,,171.8683,173.5832,l,1,[],[],[],[],[],[],[],1.0358,1,173.5836,174.08,,,,,,272,FEM,CON,150,oreja,,a,1.0358,,174.0801,174.0803,0.416666667,0.225260417,0,0,0,,0,32,32,271,1,,,,
,,,,,,6aae3b1d0dd831229d482896,66a626ef09d4e21e1a8894ec,6735ed00d444e62ffaf1c1b3,2024-11-14_09h31.32.985,Tarea de género gramatical,2024.2.2,Win32,60.24096386,,,,,,,,,,,,,,,,,,,,,,,,174.0832,175.8455,l,1,[],[],[],[],[],[],[],1.0845,1,175.8459,176.3439,,,,,,26,FEM,CON,150,pena,,a,1.0845,,176.3486,176.3518,0.416666667,0.225260417,0,0,0,,0,33,33,25,1,,,,
,,,,,,6aae3b1d0dd831229d482896,66a626ef09d4e21e1a8894ec,6735ed00d444e62ffaf1c1b3,2024-11-14_09h31.32.985,Tarea de género gramatical,2024.2.2,Win32,60.24096386,,,,,,,,,,,,,,,,,,,,,,,,176.3552,177.7613,l,1,[],[],[],[],[],[],[],0.7357,1,177.7615,178.2586,,,,,,121,FEM,AGR,150,pila,la,a,0.7357,,178.2588,178.2593,0.416666667,0.225260417,0,0,0,,0,34,34,120,1,,,,
,,,,,,6aae3b1d0dd831229d482896,66a626ef09d4e21e1a8894ec,6735ed00d444e62ffaf1c1b3,2024-11-14_09h31.32.985,Tarea de género gramatical,2024.2.2,Win32,60.24096386,,,,,,,,,,,,,,,,,,,,,,,,178.2625,179.6421,a,1,[],[],[],[],[],[],[],0.7016,1,179.6423,180.1394,,,,,,256,MAS,AGR,150,techo,el,l,0.7016,,180.1395,180.1399,0.416666667,0.225260417,0,0,0,,0,35,35,255,1,,,,
,,,,,,6aae3b1d0dd831229d482896,66a626ef09d4e21e1a8894ec,6735ed00d444e62ffaf1c1b3,2024-11-14_09h31.32.985,Tarea de género gramatical,2024.2.2,Win32,60.24096386,,,,,,,,,,,,,,,,,,,,,,,,180.1447,181.59,l,1,[],[],[],[],[],[],[],0.7682,1,181.5903,182.0883,,,,,,385,FEM,AGR,150,muñeca,la,a,0.7682,,182.0884,182.0889,0.416666667,0.225260417,0,0,0,,0,36,36,384,1,,,,
,,,,,,6aae3b1d0dd831229d482896,66a626ef09d4e21e1a8894ec,6735ed00d444e62ffaf1c1b3,2024-11-14_09h31.32.985,Tarea de género gramatical,2024.2.2,Win32,60.24096386,,,,,,,,,,,,,,,,,,,,,,,,182.0924,183.8211,a,0,[],[],[],[],[],[],[],1.0505,0,183.8238,184.3194,,,,,,315,FEM,DIS,150,manera,el,a,1.0505,,184.3196,184.32,0.416666667,0.225260417,0,0,0,,0,37,37,314,1,,,,
,,,,,,6aae3b1d0dd831229d482896,66a626ef09d4e21e1a8894ec,6735ed00d444e62ffaf1c1b3,2024-11-14_09h31.32.985,Tarea de género gramatical,2024.2.2,Win32,60.24096386,,,,,,,,,,,,,,,,,,,,,,,,184.3233,185.8521,a,1,[],[],[],[],[],[],[],0.8509,1,185.8549,186.3505,,,,,,334,MAS,AGR,150,ataque,el,l,0.8509,,186.355,186.3578,0.416666667,0.225260417,0,0,0,,0,38,38,333,1,,,,
,,,,,,6aae3b1d0dd831229d482896,66a626ef09d4e21e1a8894ec,6735ed00d444e62ffaf1c1b3,2024-11-14_09h31.32.985,Tarea de género gramatical,2024.2.2,Win32,60.24096386,,,,,,,,,,,,,,,,,,,,,,,,186.3608,187.6237,l,1,[],[],[],[],[],[],[],0.5855,1,187.6243,188.1231,,,,,,242,FEM,CON,150,pizza,,a,0.5855,,188.1235,188.1238,0.416666667,0.225260417,0,0,0,,0,39,39,241,1,,,,
,,,,,,6aae3b1d0dd831229d482896,66a626ef09d4e21e1a8894ec,6735ed00d444e62ffaf1c1b3,2024-11-14_09h31.32.985,Tarea de género gramatical,2024.2.2,Win32,60.24096386,,,,,,,,,,,,,,,,,,,,,,,,188.1275,190.1044,l,1,[],[],[],[],[],[],[],1.3001,1,190.1045,190.6043,,,,,,201,FEM,DIS,150,leche,el,a,1.3001,,190.6045,190.6049,0.416666667,0.225260417,0,0,0,,0,40,40,200,1,,,,
,,,,,,6aae3b1d0dd831229d482896,66a626ef09d4e21e1a8894ec,6735ed00d444e62ffaf1c1b3,2024-11-14_09h31.32.985,Tarea de género gramatical,2024.2.2,Win32,60.24096386,,,,,,,,,,,,,,,,,,,,,,,,190.6082,191.8199,l,1,[],[],[],[],[],[],[],0.5349,1,191.8203,192.3191,,,,,,200,FEM,CON,150,silla,,a,0.5349,,192.3194,192.3197,0.416666667,0.225260417,0,0,0,,0,41,41,199,1,,,,
,,,,,,6aae3b1d0dd831229d482896,66a626ef09d4e21e1a8894ec,6735ed00d444e62ffaf1c1b3,2024-11-14_09h31.32.985,Tarea de género gramatical,2024.2.2,Win32,60.24096386,,,,,,,,,,,,,,,,,,,,,,,,192.3232,193.4513,l,1,[],[],[],[],[],[],[],0.4514,1,193.4516,193.9507,,,,,,91,FEM,AGR,150,hoja,la,a,0.4514,,193.9574,193.9599,0.416666667,0.225260417,0,0,0,,0,42,42,90,1,,,,
,,,,,,6aae3b1d0dd831229d482896,66a626ef09d4e21e1a8894ec,6735ed00d444e62ffaf1c1b3,2024-11-14_09h31.32.985,Tarea de género gramatical,2024.2.2,Win32,60.24096386,,,,,,,,,,,,,,,,,,,,,,,,193.9624,195.3989,a,0,[],[],[],[],[],[],[],0.7681,0,195.4021,195.8989,,,,,,327,FEM,DIS,150,tienda,el,a,0.7681,,195.8992,195.8995,0.416666667,0.225260417,0,0,0,,0,43,43,326,1,,,,
,,,,,,6aae3b1d0dd831229d482896,66a626ef09d4e21e1a8894ec,6735ed00d444e62ffaf1c1b3,2024-11-14_09h31.32.985,Tarea de género gramatical,2024.2.2,Win32,60.24096386,,,,,,,,,,,,,,,,,,,,,,,,195.9039,197.3641,l,1,[],[],[],[],[],[],[],0.7848,1,197.3671,197.8632,,,,,,253,FEM,AGR,150,aldea,la,a,0.7848,,197.8634,197.8637,0.416666667,0.225260417,0,0,0,,0,44,44,252,1,,,,
,,,,,,6aae3b1d0dd831229d482896,66a626ef09d4e21e1a8894ec,6735ed00d444e62ffaf1c1b3,2024-11-14_09h31.32.985,Tarea de género gramatical,2024.2.2,Win32,60.24096386,,,,,,,,,,,,,,,,,,,,,,,,197.8672,199.2621,a,1,[],[],[],[],[],[],[],0.7197,1,199.2626,199.7617,,,,,,150,MAS,DIS,150,mozo,la,l,0.7197,,199.762,199.7624,0.416666667,0.225260417,0,0,0,,0,45,45,149,1,,,,
,,,,,,6aae3b1d0dd831229d482896,66a626ef09d4e21e1a8894ec,6735ed00d444e62ffaf1c1b3,2024-11-14_09h31.32.985,Tarea de género gramatical,2024.2.2,Win32,60.24096386,,,,,,,,,,,,,,,,,,,,,,,,199.7674,201.0938,l,1,[],[],[],[],[],[],[],0.6486,1,201.0941,201.5933,,,,,,206,FEM,CON,150,época,,a,0.6486,,201.5936,201.5939,0.416666667,0.225260417,0,0,0,,0,46,46,205,1,,,,
,,,,,,6aae3b1d0dd831229d482896,66a626ef09d4e21e1a8894ec,6735ed00d444e62ffaf1c1b3,2024-11-14_09h31.32.985,Tarea de género gramatical,2024.2.2,Win32,60.24096386,,,,,,,,,,,,,,,,,,,,,,,,201.5975,202.8253,l,1,[],[],[],[],[],[],[],0.5513,1,202.8257,203.3248,,,,,,295,FEM,AGR,150,grasa,la,a,0.5513,,203.3291,203.3322,0.416666667,0.225260417,0,0,0,,0,47,47,294,1,,,,
,,,,,,6aae3b1d0dd831229d482896,66a626ef09d4e21e1a8894ec,6735ed00d444e62ffaf1c1b3,2024-11-14_09h31.32.985,Tarea de género gramatical,2024.2.2,Win32,60.24096386,,,,,,,,,,,,,,,,,,,,,,,,203.3346,204.6403,a,1,[],[],[],[],[],[],[],0.6351,1,204.6407,205.1398,,,,,,450,MAS,DIS,150,conejo,la,l,0.6351,,205.1401,205.1405,0.416666667,0.225260417,0,0,0,,0,48,48,449,1,,,,
,,,,,,6aae3b1d0dd831229d482896,66a626ef09d4e21e1a8894ec,6735ed00d444e62ffaf1c1b3,2024-11-14_09h31.32.985,Tarea de género gramatical,2024.2.2,Win32,60.24096386,,,,,,,,,,,,,,,,,,,,,,,,205.144,206.438,l,1,[],[],[],[],[],[],[],0.6179,1,206.4383,206.9383,,,,,,349,FEM,AGR,150,prensa,la,a,0.6179,,206.9384,206.9386,0.416666667,0.225260417,0,0,0,,0,49,49,348,1,,,,
,,,,,,6aae3b1d0dd831229d482896,66a626ef09d4e21e1a8894ec,6735ed00d444e62ffaf1c1b3,2024-11-14_09h31.32.985,Tarea de género gramatical,2024.2.2,Win32,60.24096386,,,,,,,,,,,,,,,,,,,,,,,,206.9422,208.2201,l,1,[],[],[],[],[],[],[],0.6016,1,208.2205,208.7197,,,,,,211,FEM,AGR,150,salud,la,a,0.6016,,208.7199,208.7204,0.416666667,0.225260417,0,0,0,,0,50,50,210,1,,,,
,,,,,,6aae3b1d0dd831229d482896,66a626ef09d4e21e1a8894ec,6735ed00d444e62ffaf1c1b3,2024-11-14_09h31.32.985,Tarea de género gramatical,2024.2.2,Win32,60.24096386,,,,,,,,,,,,,,,,,,,,,,,,208.7238,210.068,a,1,[],[],[],[],[],[],[],0.6703,1,210.0683,210.5683,,,,,,274,MAS,AGR,150,motor,el,l,0.6703,,210.5729,210.5758,0.416666667,0.225260417,0,0,0,,0,51,51,273,1,,,,
,,,,,,6aae3b1d0dd831229d482896,66a626ef09d4e21e1a8894ec,6735ed00d444e62ffaf1c1b3,2024-11-14_09h31.32.985,Tarea de género gramatical,2024.2.2,Win32,60.24096386,,,,,,,,,,,,,,,,,,,,,,,,210.5782,212.2661,a,1,[],[],[],[],[],[],[],1.0181,1,212.2665,212.7657,,,,,,372,MAS,DIS,150,delito,la,l,1.0181,,212.766,212.7664,0.416666667,0.225260417,0,0,0,,0,52,52,371,1,,,,
,,,,,,6aae3b1d0dd831229d482896,66a626ef09d4e21e1a8894ec,6735ed00d444e62ffaf1c1b3,2024-11-14_09h31.32.985,Tarea de género gramatical,2024.2.2,Win32,60.24096386,,,,,,,,,,,,,,,,,,,,,,,,212.7698,214.2177,a,1,[],[],[],[],[],[],[],0.7756,1,214.218,214.7141,,,,,,252,MAS,DIS,150,viejo,la,l,0.7756,,214.7144,214.7146,0.416666667,0.225260417,0,0,0,,0,53,53,251,1,,,,
,,,,,,6aae3b1d0dd831229d482896,66a626ef09d4e21e1a8894ec,6735ed00d444e62ffaf1c1b3,2024-11-14_09h31.32.985,Tarea de género gramatical,2024.2.2,Win32,60.24096386,,,,,,,,,,,,,,,,,,,,,,,,214.7181,215.9134,l,1,[],[],[],[],[],[],[],0.5149,1,215.9137,216.4111,,,,,,19,FEM,AGR,150,niña,la,a,0.5149,,216.4111,216.4113,0.416666667,0.225260417,0,0,0,,0,54,54,18,1,,,,
,,,,,,6aae3b1d0dd831229d482896,66a626ef09d4e21e1a8894ec,6735ed00d444e62ffaf1c1b3,2024-11-14_09h31.32.985,Tarea de género gramatical,2024.2.2,Win32,60.24096386,,,,,,,,,,,,,,,,,,,,,,,,216.4128,217.8776,l,1,[],[],[],[],[],[],[],0.7855,1,217.8778,218.3765,,,,,,205,FEM,AGR,150,reina,la,a,0.7855,,218.3766,218.377,0.416666667,0.225260417,0,0,0,,0,55,55,204,1,,,,
,,,,,,6aae3b1d0dd831229d482896,66a626ef09d4e21e1a8894ec,6735ed00d444e62ffaf1c1b3,2024-11-14_09h31.32.985,Tarea de género gramatical,2024.2.2,Win32,60.24096386,,,,,,,,,,,,,,,,,,,,,,,,218.3806,219.7752,a,0,[],[],[],[],[],[],[],0.7203,0,219.778,220.275,,,,,,81,FEM,DIS,150,cima,el,a,0.7203,,220.2796,220.283,0.416666667,0.225260417,0,0,0,,0,56,56,80,1,,,,
,,,,,,6aae3b1d0dd831229d482896,66a626ef09d4e21e1a8894ec,6735ed00d444e62ffaf1c1b3,2024-11-14_09h31.32.985,Tarea de género gramatical,2024.2.2,Win32,60.24096386,,,,,,,,,,,,,,,,,,,,,,,,220.2852,221.6175,l,1,[],[],[],[],[],[],[],0.6516,1,221.6202,222.1156,,,,,,236,FEM,CON,150,deuda,,a,0.6516,,222.1156,222.1161,0.416666667,0.225260417,0,0,0,,0,57,57,235,1,,,,
,,,,,,6aae3b1d0dd831229d482896,66a626ef09d4e21e1a8894ec,6735ed00d444e62ffaf1c1b3,2024-11-14_09h31.32.985,Tarea de género gramatical,2024.2.2,Win32,60.24096386,,,,,,,,,,,,,,,,,,,,,,,,222.1194,223.5816,a,1,[],[],[],[],[],[],[],0.7845,1,223.582,224.0806,,,,,,18,MAS,DIS,150,tren,la,l,0.7845,,224.0809,224.0812,0.416666667,0.225260417,0,0,0,,0,58,58,17,1,,,,
,,,,,,6aae3b1d0dd831229d482896,66a626ef09d4e21e1a8894ec,6735ed00d444e62ffaf1c1b3,2024-11-14_09h31.32.985,Tarea de género gramatical,2024.2.2,Win32,60.24096386,,,,,,,,,,,,,,,,,,,,,,,,224.0849,225.4984,a,1,[],[],[],[],[],[],[],0.7363,1,225.4987,225.9953,,,,,,12,MAS,DIS,150,plan,la,l,0.7363,,225.9953,225.9962,0.416666667,0.225260417,0,0,0,,0,59,59,11,1,,,,
,,,,,,6aae3b1d0dd831229d482896,66a626ef09d4e21e1a8894ec,6735ed00d444e62ffaf1c1b3,2024-11-14_09h31.32.985,Tarea de género gramatical,2024.2.2,Win32,60.24096386,,,,,,,,,,,,,,,,,,,,,,,,225.9994,227.4451,l,1,[],[],[],[],[],[],[],0.7682,1,227.4452,227.9434,,,,,,217,FEM,AGR,150,tarea,la,a,0.7682,,227.9474,227.9504,0.416666667,0.225260417,0,0,0,,0,60,60,216,1,,,,
,,,,,,6aae3b1d0dd831229d482896,66a626ef09d4e21e1a8894ec,6735ed00d444e62ffaf1c1b3,2024-11-14_09h31.32.985,Tarea de género gramatical,2024.2.2,Win32,60.24096386,,,,,,,,,,,,,,,,,,,,,,,,227.9545,229.293,a,1,[],[],[],[],[],[],[],0.668,1,229.2933,229.7916,,,,,,354,MAS,DIS,150,camión,la,l,0.668,,229.7917,229.7921,0.416666667,0.225260417,0,0,0,,0,61,61,353,1,,,,
,,,,,,6aae3b1d0dd831229d482896,66a626ef09d4e21e1a8894ec,6735ed00d444e62ffaf1c1b3,2024-11-14_09h31.32.985,Tarea de género gramatical,2024.2.2,Win32,60.24096386,,,,,,,,,,,,,,,,,,,,,,,,229.7955,231.2577,l,1,[],[],[],[],[],[],[],0.7847,1,231.258,231.7564,,,,,,249,FEM,DIS,150,crema,el,a,0.7847,,231.7565,231.7569,0.416666667,0.225260417,0,0,0,,0,62,62,248,1,,,,
,,,,,,6aae3b1d0dd831229d482896,66a626ef09d4e21e1a8894ec,6735ed00d444e62ffaf1c1b3,2024-11-14_09h31.32.985,Tarea de género gramatical,2024.2.2,Win32,60.24096386,,,,,,,,,,,,,,,,,,,,,,,,231.7605,233.9521,l,0,[],[],[],[],[],[],[],1.5171,0,233.9532,234.451,,,,,,64,MAS,AGR,150,saco,el,l,1.5171,,234.4511,234.4512,0.416666667,0.225260417,0,0,0,,0,63,63,63,1,,,,
,,,,,,6aae3b1d0dd831229d482896,66a626ef09d4e21e1a8894ec,6735ed00d444e62ffaf1c1b3,2024-11-14_09h31.32.985,Tarea de género gramatical,2024.2.2,Win32,60.24096386,,,,,,,,,,,,,,,,,,,,,,,,234.4526,236.6328,a,1,[],[],[],[],[],[],[],1.4995,1,236.634,237.1343,,,,,,318,MAS,DIS,150,pueblo,la,l,1.4995,,237.1356,237.136,0.416666667,0.225260417,0,0,0,,0,64,64,317,1,,,,
,,,,,,6aae3b1d0dd831229d482896,66a626ef09d4e21e1a8894ec,6735ed00d444e62ffaf1c1b3,2024-11-14_09h31.32.985,Tarea de género gramatical,2024.2.2,Win32,60.24096386,,,,,,,,,,,,,,,,,,,,,,,,237.1389,238.9575,l,1,[],[],[],[],[],[],[],1.1518,1,238.9577,239.4566,,,,,,225,FEM,DIS,150,pieza,el,a,1.1518,,239.4599,239.4623,0.416666667,0.225260417,0,0,0,,0,65,65,224,1,,,,
,,,,,,6aae3b1d0dd831229d482896,66a626ef09d4e21e1a8894ec,6735ed00d444e62ffaf1c1b3,2024-11-14_09h31.32.985,Tarea de género gramatical,2024.2.2,Win32,60.24096386,,,,,,,,,,,,,,,,,,,,,,,,239.4641,241.356,l,1,[],[],[],[],[],[],[],1.2187,1,241.3561,241.8531,,,,,,277,FEM,AGR,150,plaza,la,a,1.2187,,241.8533,241.8534,0.416666667,0.225260417,0,0,0,,0,66,66,276,1,,,,
,,,,,,6aae3b1d0dd831229d482896,66a626ef09d4e21e1a8894ec,6735ed00d444e62ffaf1c1b3,2024-11-14_09h31.32.985,Tarea de género gramatical,2024.2.2,Win32,60.24096386,,,,,,,,,,,,,,,,,,,,,,,,241.8546,243.2372,a,1,[],[],[],[],[],[],[],0.7003,1,243.2373,243.735,,,,,,341,MAS,CON,150,precio,,l,0.7003,,243.7353,243.7354,0.416666667,0.225260417,0,0,0,,0,67,67,340,1,,,,
,,,,,,6aae3b1d0dd831229d482896,66a626ef09d4e21e1a8894ec,6735ed00d444e62ffaf1c1b3,2024-11-14_09h31.32.985,Tarea de género gramatical,2024.2.2,Win32,60.24096386,,,,,,,,,,,,,,,,,,,,,,,,243.7373,245.3701,a,1,[],[],[],[],[],[],[],0.9604,1,245.3704,245.8659,,,,,,46,MAS,AGR,150,odio,el,l,0.9604,,245.8661,245.8662,0.416666667,0.225260417,0,0,0,,0,68,68,45,1,,,,
,,,,,,6aae3b1d0dd831229d482896,66a626ef09d4e21e1a8894ec,6735ed00d444e62ffaf1c1b3,2024-11-14_09h31.32.985,Tarea de género gramatical,2024.2.2,Win32,60.24096386,,,,,,,,,,,,,,,,,,,,,,,,245.8675,247.1813,a,1,[],[],[],[],[],[],[],0.6389,1,247.1814,247.6807,,,,,,41,MAS,CON,150,bote,,l,0.6389,,247.6824,247.6836,0.416666667,0.225260417,0,0,0,,0,69,69,40,1,,,,
,,,,,,6aae3b1d0dd831229d482896,66a626ef09d4e21e1a8894ec,6735ed00d444e62ffaf1c1b3,2024-11-14_09h31.32.985,Tarea de género gramatical,2024.2.2,Win32,60.24096386,,,,,,,,,,,,,,,,,,,,,,,,247.6854,248.9677,a,1,[],[],[],[],[],[],[],0.6125,1,248.968,249.4645,,,,,,312,MAS,DIS,150,equipo,la,l,0.6125,,249.4646,249.4648,0.416666667,0.225260417,0,0,0,,0,70,70,311,1,,,,
,,,,,,6aae3b1d0dd831229d482896,66a626ef09d4e21e1a8894ec,6735ed00d444e62ffaf1c1b3,2024-11-14_09h31.32.985,Tarea de género gramatical,2024.2.2,Win32,60.24096386,,,,,,,,,,,,,,,,,,,,,,,,249.4686,250.7978,l,1,[],[],[],[],[],[],[],0.6606,1,250.798,251.2959,,,,,,237,FEM,DIS,150,ducha,el,a,0.6606,,251.296,251.2962,0.416666667,0.225260417,0,0,0,,0,71,71,236,1,,,,
,,,,,,6aae3b1d0dd831229d482896,66a626ef09d4e21e1a8894ec,6735ed00d444e62ffaf1c1b3,2024-11-14_09h31.32.985,Tarea de género gramatical,2024.2.2,Win32,60.24096386,,,,,,,,,,,,,,,,,,,,,,,,251.2998,252.8942,l,1,[],[],[],[],[],[],[],0.9172,1,252.8944,253.394,,,,,,344,FEM,CON,150,pareja,,a,0.9172,,253.3941,253.3943,0.416666667,0.225260417,0,0,0,,0,72,72,343,1,,,,
,,,,,,6aae3b1d0dd831229d482896,66a626ef09d4e21e1a8894ec,6735ed00d444e62ffaf1c1b3,2024-11-14_09h31.32.985,Tarea de género gramatical,2024.2.2,Win32,60.24096386,,,,,,,,,,,,,,,,,,,,,,,,253.3982,254.6934,a,1,[],[],[],[],[],[],[],0.618,1,254.6937,255.1924,,,,,,112,MAS,AGR,150,reto,el,l,0.618,,255.1925,255.1926,0.416666667,0.225260417,0,0,0,,0,73,73,111,1,,,,
,,,,,,6aae3b1d0dd831229d482896,66a626ef09d4e21e1a8894ec,6735ed00d444e62ffaf1c1b3,2024-11-14_09h31.32.985,Tarea de género gramatical,2024.2.2,Win32,60.24096386,,,,,,,,,,,,,,,,,,,,,,,,255.1961,256.4076,a,1,[],[],[],[],[],[],[],0.5361,1,256.4079,256.9071,,,,,,178,MAS,AGR,150,punto,el,l,0.5361,,256.9117,256.9142,0.416666667,0.225260417,0,0,0,,0,74,74,177,1,,,,
,,,,,,6aae3b1d0dd831229d482896,66a626ef09d4e21e1a8894ec,6735ed00d444e62ffaf1c1b3,2024-11-14_09h31.32.985,Tarea de género gramatical,2024.2.2,Win32,60.24096386,,,,,,,,,,,,,,,,,,,,,,,,256.9167,258.2256,l,1,[],[],[],[],[],[],[],0.6429,1,258.2261,258.722,,,,,,165,FEM,DIS,150,amiga,el,a,0.6429,,258.7222,258.7224,0.416666667,0.225260417,0,0,0,,0,75,75,164,1,,,,
,,,,,,6aae3b1d0dd831229d482896,66a626ef09d4e21e1a8894ec,6735ed00d444e62ffaf1c1b3,2024-11-14_09h31.32.985,Tarea de género gramatical,2024.2.2,Win32,60.24096386,,,,,,,,,,,,,,,,,,,,,,,,258.7261,260.0205,l,1,[],[],[],[],[],[],[],0.6179,1,260.0207,260.5201,,,,,,109,FEM,AGR,150,gota,la,a,0.6179,,260.5202,260.5204,0.416666667,0.225260417,0,0,0,,0,76,76,108,1,,,,
,,,,,,6aae3b1d0dd831229d482896,66a626ef09d4e21e1a8894ec,6735ed00d444e62ffaf1c1b3,2024-11-14_09h31.32.985,Tarea de género gramatical,2024.2.2,Win32,60.24096386,,,,,,,,,,,,,,,,,,,,,,,,260.5248,261.7387,l,1,[],[],[],[],[],[],[],0.5438,1,261.7389,262.2353,,,,,,73,FEM,AGR,150,roca,la,a,0.5438,,262.2354,262.2357,0.416666667,0.225260417,0,0,0,,0,77,77,72,1,,,,
,,,,,,6aae3b1d0dd831229d482896,66a626ef09d4e21e1a8894ec,6735ed00d444e62ffaf1c1b3,2024-11-14_09h31.32.985,Tarea de género gramatical,2024.2.2,Win32,60.24096386,,,,,,,,,,,,,,,,,,,,,,,,262.2393,263.4025,l,1,[],[],[],[],[],[],[],0.4851,1,263.4034,263.9004,,,,,,398,FEM,CON,150,hierba,,a,0.4851,,263.9048,263.9074,0.416666667,0.225260417,0,0,0,,0,78,78,397,1,,,,
,,,,,,6aae3b1d0dd831229d482896,66a626ef09d4e21e1a8894ec,6735ed00d444e62ffaf1c1b3,2024-11-14_09h31.32.985,Tarea de género gramatical,2024.2.2,Win32,60.24096386,,,,,,,,,,,,,,,,,,,,,,,,263.9098,265.0007,l,0,[],[],[],[],[],[],[],0.4257,0,265.0036,265.4987,,,,,,353,MAS,CON,150,verano,,l,0.4257,,265.4989,265.4991,0.416666667,0.225260417,0,0,0,,0,79,79,352,1,,,,
,,,,,,6aae3b1d0dd831229d482896,66a626ef09d4e21e1a8894ec,6735ed00d444e62ffaf1c1b3,2024-11-14_09h31.32.985,Tarea de género gramatical,2024.2.2,Win32,60.24096386,,,,,,,,,,,,,,,,,,,,,,,,265.5026,266.8635,l,1,[],[],[],[],[],[],[],0.6843,1,266.8658,267.3637,,,,,,15,FEM,DIS,150,cama,el,a,0.6843,,267.3638,267.364,0.416666667,0.225260417,0,0,0,,0,80,80,14,1,,,,
,,,,,,6aae3b1d0dd831229d482896,66a626ef09d4e21e1a8894ec,6735ed00d444e62ffaf1c1b3,2024-11-14_09h31.32.985,Tarea de género gramatical,2024.2.2,Win32,60.24096386,,,,,,,,,,,,,,,,,,,,,,,,267.3677,268.4987,l,1,[],[],[],[],[],[],[],0.4603,1,268.4989,268.9953,,,,,,314,FEM,CON,150,señora,,a,0.4603,,268.9955,268.9958,0.416666667,0.225260417,0,0,0,,0,81,81,313,1,,,,
,,,,,,6aae3b1d0dd831229d482896,66a626ef09d4e21e1a8894ec,6735ed00d444e62ffaf1c1b3,2024-11-14_09h31.32.985,Tarea de género gramatical,2024.2.2,Win32,60.24096386,,,,,,,,,,,,,,,,,,,,,,,,268.9993,270.1122,l,1,[],[],[],[],[],[],[],0.4422,1,270.1124,270.6104,,,,,,153,FEM,DIS,150,mujer,el,a,0.4422,,270.6106,270.6108,0.416666667,0.225260417,0,0,0,,0,82,82,152,1,,,,
,,,,,,6aae3b1d0dd831229d482896,66a626ef09d4e21e1a8894ec,6735ed00d444e62ffaf1c1b3,2024-11-14_09h31.32.985,Tarea de género gramatical,2024.2.2,Win32,60.24096386,,,,,,,,,,,,,,,,,,,,,,,,270.6143,271.9916,l,1,[],[],[],[],[],[],[],0.703,1,271.9922,272.492,,,,,,159,FEM,DIS,150,clase,el,a,0.703,,272.4962,272.4985,0.416666667,0.225260417,0,0,0,,0,83,83,158,1,,,,
,,,,,,6aae3b1d0dd831229d482896,66a626ef09d4e21e1a8894ec,6735ed00d444e62ffaf1c1b3,2024-11-14_09h31.32.985,Tarea de género gramatical,2024.2.2,Win32,60.24096386,,,,,,,,,,,,,,,,,,,,,,,,272.501,273.5909,l,0,[],[],[],[],[],[],[],0.4178,0,273.593,274.0904,,,,,,196,MAS,AGR,150,barco,el,l,0.4178,,274.0905,274.0907,0.416666667,0.225260417,0,0,0,,0,84,84,195,1,,,,
,,,,,,6aae3b1d0dd831229d482896,66a626ef09d4e21e1a8894ec,6735ed00d444e62ffaf1c1b3,2024-11-14_09h31.32.985,Tarea de género gramatical,2024.2.2,Win32,60.24096386,,,,,,,,,,,,,,,,,,,,,,,,274.0943,275.372,l,1,[],[],[],[],[],[],[],0.6006,1,275.3743,275.8719,,,,,,140,FEM,CON,150,mula,,a,0.6006,,275.8721,275.8724,0.416666667,0.225260417,0,0,0,,0,85,85,139,1,,,,
,,,,,,6aae3b1d0dd831229d482896,66a626ef09d4e21e1a8894ec,6735ed00d444e62ffaf1c1b3,2024-11-14_09h31.32.985,Tarea de género gramatical,2024.2.2,Win32,60.24096386,,,,,,,,,,,,,,,,,,,,,,,,275.8779,277.3071,a,1,[],[],[],[],[],[],[],0.7605,1,277.3076,277.8034,,,,,,288,MAS,DIS,150,grado,la,l,0.7605,,277.8036,277.8038,0.416666667,0.225260417,0,0,0,,0,86,86,287,1,,,,
,,,,,,6aae3b1d0dd831229d482896,66a626ef09d4e21e1a8894ec,6735ed00d444e62ffaf1c1b3,2024-11-14_09h31.32.985,Tarea de género gramatical,2024.2.2,Win32,60.24096386,,,,,,,,,,,,,,,,,,,,,,,,277.8074,278.9689,l,1,[],[],[],[],[],[],[],0.485,1,278.9691,279.4684,,,,,,92,FEM,CON,150,masa,,a,0.485,,279.4725,279.4748,0.416666667,0.225260417,0,0,0,,0,87,87,91,1,,,,
,,,,,,6aae3b1d0dd831229d482896,66a626ef09d4e21e1a8894ec,6735ed00d444e62ffaf1c1b3,2024-11-14_09h31.32.985,Tarea de género gramatical,2024.2.2,Win32,60.24096386,,,,,,,,,,,,,,,,,,,,,,,,279.4773,280.7006,a,1,[],[],[],[],[],[],[],0.5518,1,280.7009,281.2002,,,,,,65,MAS,CON,150,rayo,,l,0.5518,,281.2002,281.2004,0.416666667,0.225260417,0,0,0,,0,88,88,64,1,,,,
,,,,,,6aae3b1d0dd831229d482896,66a626ef09d4e21e1a8894ec,6735ed00d444e62ffaf1c1b3,2024-11-14_09h31.32.985,Tarea de género gramatical,2024.2.2,Win32,60.24096386,,,,,,,,,,,,,,,,,,,,,,,,281.2045,282.3656,l,1,[],[],[],[],[],[],[],0.4872,1,282.366,282.8652,,,,,,44,FEM,CON,150,zona,,a,0.4872,,282.8652,282.8655,0.416666667,0.225260417,0,0,0,,0,89,89,43,1,,,,
,,,,,,6aae3b1d0dd831229d482896,66a626ef09d4e21e1a8894ec,6735ed00d444e62ffaf1c1b3,2024-11-14_09h31.32.985,Tarea de género gramatical,2024.2.2,Win32,60.24096386,,,,,,,,,,,,,,,,,,,,,,,,282.8688,284.0477,l,1,[],[],[],[],[],[],[],0.507,1,284.048,284.5468,,,,,,122,FEM,CON,150,loca,,a,0.507,,284.5469,284.5472,0.416666667,0.225260417,0,0,0,,0,90,90,121,1,,,,
,,,,,,6aae3b1d0dd831229d482896,66a626ef09d4e21e1a8894ec,6735ed00d444e62ffaf1c1b3,2024-11-14_09h31.32.985,Tarea de género gramatical,2024.2.2,Win32,60.24096386,,,,,,,,,,,,,,,,,,,,,,,,284.5509,285.8456,a,1,[],[],[],[],[],[],[],0.6183,1,285.8457,286.3449,,,,,,268,MAS,AGR,150,truco,el,l,0.6183,,286.345,286.3452,0.416666667,0.225260417,0,0,0,,0,91,91,267,1,,,,
,,,,,,6aae3b1d0dd831229d482896,66a626ef09d4e21e1a8894ec,6735ed00d444e62ffaf1c1b3,2024-11-14_09h31.32.985,Tarea de género gramatical,2024.2.2,Win32,60.24096386,,,,,,,,,,,,,,,,,,,,,,,,286.349,287.7456,l,1,[],[],[],[],[],[],[],0.7254,1,287.7457,288.2432,,,,,,445,FEM,AGR,150,bondad,la,a,0.7254,,288.2479,288.2501,0.416666667,0.225260417,0,0,0,,0,92,92,444,1,,,,
,,,,,,6aae3b1d0dd831229d482896,66a626ef09d4e21e1a8894ec,6735ed00d444e62ffaf1c1b3,2024-11-14_09h31.32.985,Tarea de género gramatical,2024.2.2,Win32,60.24096386,,,,,,,,,,,,,,,,,,,,,,,,288.2525,289.6912,a,0,[],[],[],[],[],[],[],0.7682,0,289.6942,290.1907,,,,,,369,FEM,DIS,150,camisa,el,a,0.7682,,290.1908,290.191,0.416666667,0.225260417,0,0,0,,0,93,93,368,1,,,,
,,,,,,6aae3b1d0dd831229d482896,66a626ef09d4e21e1a8894ec,6735ed00d444e62ffaf1c1b3,2024-11-14_09h31.32.985,Tarea de género gramatical,2024.2.2,Win32,60.24096386,,,,,,,,,,,,,,,,,,,,,,,,290.1949,291.2896,l,1,[],[],[],[],[],[],[],0.4191,1,291.292,291.789,,,,,,321,FEM,DIS,150,comida,el,a,0.4191,,291.7891,291.7893,0.416666667,0.225260417,0,0,0,,0,94,94,320,1,,,,
,,,,,,6aae3b1d0dd831229d482896,66a626ef09d4e21e1a8894ec,6735ed00d444e62ffaf1c1b3,2024-11-14_09h31.32.985,Tarea de género gramatical,2024.2.2,Win32,60.24096386,,,,,,,,,,,,,,,,,,,,,,,,291.793,292.9884,l,1,[],[],[],[],[],[],[],0.5192,1,292.9886,293.4878,,,,,,255,FEM,DIS,150,tribu,el,a,0.5192,,293.4878,293.4881,0.416666667,0.225260417,0,0,0,,0,95,95,254,1,,,,
,,,,,,6aae3b1d0dd831229d482896,66a626ef09d4e21e1a8894ec,6735ed00d444e62ffaf1c1b3,2024-11-14_09h31.32.985,Tarea de género gramatical,2024.2.2,Win32,60.24096386,,,,,,,,,,,,,,,,,,,,,,,,293.4916,294.7231,l,1,[],[],[],[],[],[],[],0.5609,1,294.7232,295.2197,,,,,,33,FEM,DIS,150,boda,el,a,0.5609,,295.2237,295.2259,0.416666667,0.225260417,0,0,0,,0,96,96,32,1,,,,
,,,,,,6aae3b1d0dd831229d482896,66a626ef09d4e21e1a8894ec,6735ed00d444e62ffaf1c1b3,2024-11-14_09h31.32.985,Tarea de género gramatical,2024.2.2,Win32,60.24096386,,,,,,,,,,,,,,,,,,,,,,,,295.2282,296.5351,l,0,[],[],[],[],[],[],[],0.6357,0,296.5374,297.0348,,,,,,190,MAS,AGR,150,campo,el,l,0.6357,,297.0348,297.0351,0.416666667,0.225260417,0,0,0,,0,97,97,189,1,,,,
,,,,,,6aae3b1d0dd831229d482896,66a626ef09d4e21e1a8894ec,6735ed00d444e62ffaf1c1b3,2024-11-14_09h31.32.985,Tarea de género gramatical,2024.2.2,Win32,60.24096386,,,,,,,,,,,,,,,,,,,,,,,,297.0385,298.5333,l,1,[],[],[],[],[],[],[],0.8226,1,298.5362,299.032,,,,,,404,FEM,CON,150,gloria,,a,0.8226,,299.0321,299.0327,0.416666667,0.225260417,0,0,0,,0,98,98,403,1,,,,
,,,,,,6aae3b1d0dd831229d482896,66a626ef09d4e21e1a8894ec,6735ed00d444e62ffaf1c1b3,2024-11-14_09h31.32.985,Tarea de género gramatical,2024.2.2,Win32,60.24096386,,,,,,,,,,,,,,,,,,,,,,,,299.0365,300.9169,a,1,[],[],[],[],[],[],[],1.2099,1,300.9171,301.4136,,,,,,36,MAS,DIS,150,dedo,la,l,1.2099,,301.4136,301.414,0.416666667,0.225260417,0,0,0,,0,99,99,35,1,,,,
,,,,,,6aae3b1d0dd831229d482896,66a626ef09d4e21e1a8894ec,6735ed00d444e62ffaf1c1b3,2024-11-14_09h31.32.985,Tarea de género gramatical,2024.2.2,Win32,60.24096386,,,,,,,,,,,,,,,,,,,,,,,,301.4176,302.662,a,1,[],[],[],[],[],[],[],0.5712,1,302.6623,303.1618,,,,,,184,MAS,AGR,150,cielo,el,l,0.5712,,303.162,303.1623,0.416666667,0.225260417,0,0,0,,0,100,100,183,1,,,,
,,,,,,6aae3b1d0dd831229d482896,66a626ef09d4e21e1a8894ec,6735ed00d444e62ffaf1c1b3,2024-11-14_09h31.32.985,Tarea de género gramatical,2024.2.2,Win32,60.24096386,,,,,,,,,,,,,,,,,,,,,,,,303.1662,304.6438,a,1,[],[],[],[],[],[],[],0.801,1,304.644,305.1428,,,,,,82,MAS,AGR,150,tubo,el,l,0.801,,305.1471,305.1497,0.416666667,0.225260417,0,0,0,,0,101,101,81,1,,,,
,,,,,,6aae3b1d0dd831229d482896,66a626ef09d4e21e1a8894ec,6735ed00d444e62ffaf1c1b3,2024-11-14_09h31.32.985,Tarea de género gramatical,2024.2.2,Win32,60.24096386,,,,,,,,,,,,,,,,,,,,,,,,305.152,306.6419,a,1,[],[],[],[],[],[],[],0.8181,1,306.6421,307.141,,,,,,383,MAS,CON,150,parque,,l,0.8181,,307.1412,307.1413,0.416666667,0.225260417,0,0,0,,0,102,102,382,1,,,,
,,,,,,6aae3b1d0dd831229d482896,66a626ef09d4e21e1a8894ec,6735ed00d444e62ffaf1c1b3,2024-11-14_09h31.32.985,Tarea de género gramatical,2024.2.2,Win32,60.24096386,,,,,,,,,,,,,,,,,,,,,,,,307.1448,308.4733,l,1,[],[],[],[],[],[],[],0.6522,1,308.4736,308.9729,,,,,,116,FEM,CON,150,nube,,a,0.6522,,308.973,308.9732,0.416666667,0.225260417,0,0,0,,0,103,103,115,1,,,,
,,,,,,6aae3b1d0dd831229d482896,66a626ef09d4e21e1a8894ec,6735ed00d444e62ffaf1c1b3,2024-11-14_09h31.32.985,Tarea de género gramatical,2024.2.2,Win32,60.24096386,,,,,,,,,,,,,,,,,,,,,,,,308.9766,310.3876,l,1,[],[],[],[],[],[],[],0.7343,1,310.3879,310.8877,,,,,,313,FEM,AGR,150,ciudad,la,a,0.7343,,310.8877,310.8883,0.416666667,0.225260417,0,0,0,,0,104,104,312,1,,,,
,,,,,,6aae3b1d0dd831229d482896,66a626ef09d4e21e1a8894ec,6735ed00d444e62ffaf1c1b3,2024-11-14_09h31.32.985,Tarea de género gramatical,2024.2.2,Win32,60.24096386,,,,,,,,,,,,,,,,,,,,,,,,310.8918,312.2187,l,1,[],[],[],[],[],[],[],0.65,1,312.2192,312.7171,,,,,,133,FEM,AGR,150,joya,la,a,0.65,,312.7186,312.7196,0.416666667,0.225260417,0,0,0,,0,105,105,132,1,,,,
,,,,,,6aae3b1d0dd831229d482896,66a626ef09d4e21e1a8894ec,6735ed00d444e62ffaf1c1b3,2024-11-14_09h31.32.985,Tarea de género gramatical,2024.2.2,Win32,60.24096386,,,,,,,,,,,,,,,,,,,,,,,,312.7215,313.9514,a,1,[],[],[],[],[],[],[],0.5515,1,313.9516,314.45,,,,,,160,MAS,AGR,150,señor,el,l,0.5515,,314.4502,314.4504,0.416666667,0.225260417,0,0,0,,0,106,106,159,1,,,,
,,,,,,6aae3b1d0dd831229d482896,66a626ef09d4e21e1a8894ec,6735ed00d444e62ffaf1c1b3,2024-11-14_09h31.32.985,Tarea de género gramatical,2024.2.2,Win32,60.24096386,,,,,,,,,,,,,,,,,,,,,,,,314.454,315.7663,a,1,[],[],[],[],[],[],[],0.6342,1,315.7666,316.2636,,,,,,220,MAS,AGR,150,huevo,el,l,0.6342,,316.2637,316.2637,0.416666667,0.225260417,0,0,0,,0,107,107,219,1,,,,
,,,,,,6aae3b1d0dd831229d482896,66a626ef09d4e21e1a8894ec,6735ed00d444e62ffaf1c1b3,2024-11-14_09h31.32.985,Tarea de género gramatical,2024.2.2,Win32,60.24096386,,,,,,,,,,,,,,,,,,,,,,,,316.2655,317.7462,a,1,[],[],[],[],[],[],[],0.801,1,317.7465,318.246,,,,,,132,MAS,DIS,150,velo,la,l,0.801,,318.246,318.2465,0.416666667,0.225260417,0,0,0,,0,108,108,131,1,,,,
,,,,,,6aae3b1d0dd831229d482896,66a626ef09d4e21e1a8894ec,6735ed00d444e62ffaf1c1b3,2024-11-14_09h31.32.985,Tarea de género gramatical,2024.2.2,Win32,60.24096386,,,,,,,,,,,,,,,,,,,,,,,,318.2499,319.5778,a,1,[],[],[],[],[],[],[],0.6484,1,319.5781,320.0772,,,,,,216,MAS,DIS,150,éxito,la,l,0.6484,,320.0774,320.0776,0.416666667,0.225260417,0,0,0,,0,109,109,215,1,,,,
,,,,,,6aae3b1d0dd831229d482896,66a626ef09d4e21e1a8894ec,6735ed00d444e62ffaf1c1b3,2024-11-14_09h31.32.985,Tarea de género gramatical,2024.2.2,Win32,60.24096386,,,,,,,,,,,,,,,,,,,,,,,,320.0811,321.3284,a,1,[],[],[],[],[],[],[],0.5743,1,321.3289,321.8256,,,,,,328,MAS,AGR,150,asunto,el,l,0.5743,,321.8302,321.8326,0.416666667,0.225260417,0,0,0,,0,110,110,327,1,,,,
,,,,,,6aae3b1d0dd831229d482896,66a626ef09d4e21e1a8894ec,6735ed00d444e62ffaf1c1b3,2024-11-14_09h31.32.985,Tarea de género gramatical,2024.2.2,Win32,60.24096386,,,,,,,,,,,,,,,,,,,,,,,,321.8348,323.0913,l,1,[],[],[],[],[],[],[],0.5844,1,323.0916,323.5895,,,,,,27,FEM,DIS,150,mesa,el,a,0.5844,,323.5896,323.59,0.416666667,0.225260417,0,0,0,,0,111,111,26,1,,,,
,,,,,,6aae3b1d0dd831229d482896,66a626ef09d4e21e1a8894ec,6735ed00d444e62ffaf1c1b3,2024-11-14_09h31.32.985,Tarea de género gramatical,2024.2.2,Win32,60.24096386,,,,,,,,,,,,,,,,,,,,,,,,323.5922,325.2558,a,0,[],[],[],[],[],[],[],0.9884,0,325.2588,325.7551,,,,,,183,FEM,DIS,150,llave,el,a,0.9884,,325.7554,325.7558,0.416666667,0.225260417,0,0,0,,0,112,112,182,1,,,,
,,,,,,6aae3b1d0dd831229d482896,66a626ef09d4e21e1a8894ec,6735ed00d444e62ffaf1c1b3,2024-11-14_09h31.32.985,Tarea de género gramatical,2024.2.2,Win32,60.24096386,,,,,,,,,,,,,,,,,,,,,,,,325.7591,327.2702,l,1,[],[],[],[],[],[],[],0.8344,1,327.2734,327.7698,,,,,,50,FEM,CON,150,dama,,a,0.8344,,327.7701,327.7704,0.416666667,0.225260417,0,0,0,,0,113,113,49,1,,,,
,,,,,,6aae3b1d0dd831229d482896,66a626ef09d4e21e1a8894ec,6735ed00d444e62ffaf1c1b3,2024-11-14_09h31.32.985,Tarea de género gramatical,2024.2.2,Win32,60.24096386,,,,,,,,,,,,,,,,,,,,,,,,327.7738,329.7678,l,1,[],[],[],[],[],[],[],1.3182,1,329.7682,330.2673,,,,,,302,FEM,CON,150,cabeza,,a,1.3182,,330.2719,330.2752,0.416666667,0.225260417,0,0,0,,0,114,114,301,1,,,,
,,,,,,6aae3b1d0dd831229d482896,66a626ef09d4e21e1a8894ec,6735ed00d444e62ffaf1c1b3,2024-11-14_09h31.32.985,Tarea de género gramatical,2024.2.2,Win32,60.24096386,,,,,,,,,,,,,,,,,,,,,,,,330.2775,331.9495,l,1,[],[],[],[],[],[],[],1.0048,1,331.9496,332.4483,,,,,,375,FEM,DIS,150,cadena,el,a,1.0048,,332.4485,332.449,0.416666667,0.225260417,0,0,0,,0,115,115,374,1,,,,
,,,,,,6aae3b1d0dd831229d482896,66a626ef09d4e21e1a8894ec,6735ed00d444e62ffaf1c1b3,2024-11-14_09h31.32.985,Tarea de género gramatical,2024.2.2,Win32,60.24096386,,,,,,,,,,,,,,,,,,,,,,,,332.4523,333.7703,l,0,[],[],[],[],[],[],[],0.645,0,333.773,334.2634,,,,,,360,MAS,DIS,150,puente,la,l,0.645,,334.2636,334.2641,0.416666667,0.225260417,0,0,0,,0,116,116,359,1,,,,
,,,,,,6aae3b1d0dd831229d482896,66a626ef09d4e21e1a8894ec,6735ed00d444e62ffaf1c1b3,2024-11-14_09h31.32.985,Tarea de género gramatical,2024.2.2,Win32,60.24096386,,,,,,,,,,,,,,,,,,,,,,,,334.2676,335.4976,a,1,[],[],[],[],[],[],[],0.5578,1,335.5009,335.9947,,,,,,311,MAS,CON,150,camino,,l,0.5578,,335.9949,335.9953,0.416666667,0.225260417,0,0,0,,0,117,117,310,1,,,,
,,,,,,6aae3b1d0dd831229d482896,66a626ef09d4e21e1a8894ec,6735ed00d444e62ffaf1c1b3,2024-11-14_09h31.32.985,Tarea de género gramatical,2024.2.2,Win32,60.24096386,,,,,,,,,,,,,,,,,,,,,,,,335.9987,337.1772,l,1,[],[],[],[],[],[],[],0.5009,1,337.1776,337.6767,,,,,,338,FEM,CON,150,abuela,,a,0.5009,,337.6769,337.6773,0.416666667,0.225260417,0,0,0,,0,118,118,337,1,,,,
,,,,,,6aae3b1d0dd831229d482896,66a626ef09d4e21e1a8894ec,6735ed00d444e62ffaf1c1b3,2024-11-14_09h31.32.985,Tarea de género gramatical,2024.2.2,Win32,60.24096386,,,,,,,,,,,,,,,,,,,,,,,,337.6809,339.0755,a,1,[],[],[],[],[],[],[],0.7186,1,339.0758,339.5749,,,,,,102,MAS,DIS,150,coro,la,l,0.7186,,339.5794,339.5826,0.416666667,0.225260417,0,0,0,,0,119,119,101,1,,,,
,,,,,,6aae3b1d0dd831229d482896,66a626ef09d4e21e1a8894ec,6735ed00d444e62ffaf1c1b3,2024-11-14_09h31.32.985,Tarea de género gramatical,2024.2.2,Win32,60.24096386,,,,,,,,,,,,,,,,,,,,,,,,339.585,340.8569,a,1,[],[],[],[],[],[],[],0.6022,1,340.8573,341.3564,,,,,,401,MAS,CON,150,abrigo,,l,0.6022,,341.3567,341.357,0.416666667,0.225260417,0,0,0,,0,120,120,400,1,,,,
,,,,,,6aae3b1d0dd831229d482896,66a626ef09d4e21e1a8894ec,6735ed00d444e62ffaf1c1b3,2024-11-14_09h31.32.985,Tarea de género gramatical,2024.2.2,Win32,60.24096386,,,,,,,,,,,,,,,,,,,,,,,,341.3609,342.6385,l,1,[],[],[],[],[],[],[],0.6005,1,342.6389,343.1381,,,,,,381,FEM,DIS,150,bebida,el,a,0.6005,,343.1383,343.1387,0.416666667,0.225260417,0,0,0,,0,121,121,380,1,,,,
,,,,,,6aae3b1d0dd831229d482896,66a626ef09d4e21e1a8894ec,6735ed00d444e62ffaf1c1b3,2024-11-14_09h31.32.985,Tarea de género gramatical,2024.2.2,Win32,60.24096386,,,,,,,,,,,,,,,,,,,,,,,,343.1422,344.4548,a,1,[],[],[],[],[],[],[],0.6403,1,344.455,344.9529,,,,,,286,MAS,AGR,150,reino,el,l,0.6403,,344.9532,344.9536,0.416666667,0.225260417,0,0,0,,0,122,122,285,1,,,,
,,,,,,6aae3b1d0dd831229d482896,66a626ef09d4e21e1a8894ec,6735ed00d444e62ffaf1c1b3,2024-11-14_09h31.32.985,Tarea de género gramatical,2024.2.2,Win32,60.24096386,,,,,,,,,,,,,,,,,,,,,,,,344.957,346.3183,l,1,[],[],[],[],[],[],[],0.6848,1,346.3186,346.8178,,,,,,74,FEM,CON,150,flor,,a,0.6848,,346.822,346.8251,0.416666667,0.225260417,0,0,0,,0,123,123,73,1,,,,
,,,,,,6aae3b1d0dd831229d482896,66a626ef09d4e21e1a8894ec,6735ed00d444e62ffaf1c1b3,2024-11-14_09h31.32.985,Tarea de género gramatical,2024.2.2,Win32,60.24096386,,,,,,,,,,,,,,,,,,,,,,,,346.8275,348.2997,l,1,[],[],[],[],[],[],[],0.8027,1,348.3,348.7992,,,,,,405,FEM,DIS,150,parada,el,a,0.8027,,348.7994,348.7998,0.416666667,0.225260417,0,0,0,,0,124,124,404,1,,,,
,,,,,,6aae3b1d0dd831229d482896,66a626ef09d4e21e1a8894ec,6735ed00d444e62ffaf1c1b3,2024-11-14_09h31.32.985,Tarea de género gramatical,2024.2.2,Win32,60.24096386,,,,,,,,,,,,,,,,,,,,,,,,348.8031,350.1479,a,1,[],[],[],[],[],[],[],0.6675,1,350.1482,350.6469,,,,,,395,MAS,CON,150,correo,,l,0.6675,,350.6471,350.6475,0.416666667,0.225260417,0,0,0,,0,125,125,394,1,,,,
,,,,,,6aae3b1d0dd831229d482896,66a626ef09d4e21e1a8894ec,6735ed00d444e62ffaf1c1b3,2024-11-14_09h31.32.985,Tarea de género gramatical,2024.2.2,Win32,60.24096386,,,,,,,,,,,,,,,,,,,,,,,,350.6509,352.1793,a,1,[],[],[],[],[],[],[],0.8518,1,352.1796,352.6788,,,,,,210,MAS,DIS,150,baile,la,l,0.8518,,352.679,352.6794,0.416666667,0.225260417,0,0,0,,0,126,126,209,1,,,,
,,,,,,6aae3b1d0dd831229d482896,66a626ef09d4e21e1a8894ec,6735ed00d444e62ffaf1c1b3,2024-11-14_09h31.32.985,Tarea de género gramatical,2024.2.2,Win32,60.24096386,,,,,,,,,,,,,,,,,,,,,,,,352.6827,353.9442,a,1,[],[],[],[],[],[],[],0.5836,1,353.9445,354.444,,,,,,221,MAS,CON,150,brazo,,l,0.5836,,354.444,354.4445,0.416666667,0.225260417,0,0,0,,0,127,127,220,1,,,,
,,,,,,6aae3b1d0dd831229d482896,66a626ef09d4e21e1a8894ec,6735ed00d444e62ffaf1c1b3,2024-11-14_09h31.32.985,Tarea de género gramatical,2024.2.2,Win32,60.24096386,,,,,,,,,,,,,,,,,,,,,,,,354.4478,355.6591,a,1,[],[],[],[],[],[],[],0.5345,1,355.6596,356.1587,,,,,,443,MAS,CON,150,templo,,l,0.5345,,356.1629,356.1659,0.416666667,0.225260417,0,0,0,,0,128,128,442,1,,,,
,,,,,,6aae3b1d0dd831229d482896,66a626ef09d4e21e1a8894ec,6735ed00d444e62ffaf1c1b3,2024-11-14_09h31.32.985,Tarea de género gramatical,2024.2.2,Win32,60.24096386,,,,,,,,,,,,,,,,,,,,,,,,356.1682,357.3575,a,1,[],[],[],[],[],[],[],0.5185,1,357.3578,357.857,,,,,,250,MAS,AGR,150,cerdo,el,l,0.5185,,357.8572,357.8576,0.416666667,0.225260417,0,0,0,,0,129,129,249,1,,,,
,,,,,,6aae3b1d0dd831229d482896,66a626ef09d4e21e1a8894ec,6735ed00d444e62ffaf1c1b3,2024-11-14_09h31.32.985,Tarea de género gramatical,2024.2.2,Win32,60.24096386,,,,,,,,,,,,,,,,,,,,,,,,357.861,359.139,a,1,[],[],[],[],[],[],[],0.6018,1,359.1397,359.6383,,,,,,293,MAS,CON,150,patio,,l,0.6018,,359.6385,359.6389,0.416666667,0.225260417,0,0,0,,0,130,130,292,1,,,,
,,,,,,6aae3b1d0dd831229d482896,66a626ef09d4e21e1a8894ec,6735ed00d444e62ffaf1c1b3,2024-11-14_09h31.32.985,Tarea de género gramatical,2024.2.2,Win32,60.24096386,,,,,,,,,,,,,,,,,,,,,,,,359.6422,361.3542,a,1,[],[],[],[],[],[],[],1.0387,1,361.3543,361.853,,,,,,138,MAS,DIS,150,luto,la,l,1.0387,,361.8533,361.8537,0.416666667,0.225260417,0,0,0,,0,131,131,137,1,,,,
,,,,,,6aae3b1d0dd831229d482896,66a626ef09d4e21e1a8894ec,6735ed00d444e62ffaf1c1b3,2024-11-14_09h31.32.985,Tarea de género gramatical,2024.2.2,Win32,60.24096386,,,,,,,,,,,,,,,,,,,,,,,,361.8571,363.2184,l,1,[],[],[],[],[],[],[],0.685,1,363.2192,363.7182,,,,,,218,FEM,CON,150,nieve,,a,0.685,,363.7216,363.7243,0.416666667,0.225260417,0,0,0,,0,132,132,217,1,,,,
,,,,,,6aae3b1d0dd831229d482896,66a626ef09d4e21e1a8894ec,6735ed00d444e62ffaf1c1b3,2024-11-14_09h31.32.985,Tarea de género gramatical,2024.2.2,Win32,60.24096386,,,,,,,,,,,,,,,,,,,,,,,,363.7283,365.5701,a,1,[],[],[],[],[],[],[],1.1752,1,365.5704,366.0656,,,,,,40,MAS,AGR,150,dios,el,l,1.1752,,366.0659,366.0663,0.416666667,0.225260417,0,0,0,,0,133,133,39,1,,,,
,,,,,,6aae3b1d0dd831229d482896,66a626ef09d4e21e1a8894ec,6735ed00d444e62ffaf1c1b3,2024-11-14_09h31.32.985,Tarea de género gramatical,2024.2.2,Win32,60.24096386,,,,,,,,,,,,,,,,,,,,,,,,366.0697,367.431,l,1,[],[],[],[],[],[],[],0.6819,1,367.4313,367.9305,,,,,,297,FEM,DIS,150,manta,el,a,0.6819,,367.9307,367.9311,0.416666667,0.225260417,0,0,0,,0,134,134,296,1,,,,
,,,,,,6aae3b1d0dd831229d482896,66a626ef09d4e21e1a8894ec,6735ed00d444e62ffaf1c1b3,2024-11-14_09h31.32.985,Tarea de género gramatical,2024.2.2,Win32,60.24096386,,,,,,,,,,,,,,,,,,,,,,,,367.9346,369.3491,l,1,[],[],[],[],[],[],[],0.742,1,369.3494,369.8452,,,,,,49,FEM,AGR,150,piel,la,a,0.742,,369.8455,369.8459,0.416666667,0.225260417,0,0,0,,0,135,135,48,1,,,,
,,,,,,6aae3b1d0dd831229d482896,66a626ef09d4e21e1a8894ec,6735ed00d444e62ffaf1c1b3,2024-11-14_09h31.32.985,Tarea de género gramatical,2024.2.2,Win32,60.24096386,,,,,,,,,,,,,,,,,,,,,,,,369.8493,371.0108,l,1,[],[],[],[],[],[],[],0.4844,1,371.0112,371.5103,,,,,,80,FEM,CON,150,vaca,,a,0.4844,,371.5105,371.511,0.416666667,0.225260417,0,0,0,,0,136,136,79,1,,,,
,,,,,,6aae3b1d0dd831229d482896,66a626ef09d4e21e1a8894ec,6735ed00d444e62ffaf1c1b3,2024-11-14_09h31.32.985,Tarea de género gramatical,2024.2.2,Win32,60.24096386,,,,,,,,,,,,,,,,,,,,,,,,371.5144,372.8605,l,1,[],[],[],[],[],[],[],0.6745,1,372.8611,373.3587,,,,,,99,FEM,DIS,150,fase,el,a,0.6745,,373.3629,373.3658,0.416666667,0.225260417,0,0,0,,0,137,137,98,1,,,,
,,,,,,6aae3b1d0dd831229d482896,66a626ef09d4e21e1a8894ec,6735ed00d444e62ffaf1c1b3,2024-11-14_09h31.32.985,Tarea de género gramatical,2024.2.2,Win32,60.24096386,,,,,,,,,,,,,,,,,,,,,,,,373.3682,375.6896,l,0,[],[],[],[],[],[],[],1.6505,0,375.6927,376.189,,,,,,90,MAS,DIS,150,león,la,l,1.6505,,376.1892,376.1895,0.416666667,0.225260417,0,0,0,,0,138,138,89,1,,,,
,,,,,,6aae3b1d0dd831229d482896,66a626ef09d4e21e1a8894ec,6735ed00d444e62ffaf1c1b3,2024-11-14_09h31.32.985,Tarea de género gramatical,2024.2.2,Win32,60.24096386,,,,,,,,,,,,,,,,,,,,,,,,376.1928,378.47,l,1,[],[],[],[],[],[],[],1.6007,1,378.4729,378.9701,,,,,,51,FEM,DIS,150,bala,el,a,1.6007,,378.9704,378.9706,0.416666667,0.225260417,0,0,0,,0,139,139,50,1,,,,
,,,,,,6aae3b1d0dd831229d482896,66a626ef09d4e21e1a8894ec,6735ed00d444e62ffaf1c1b3,2024-11-14_09h31.32.985,Tarea de género gramatical,2024.2.2,Win32,60.24096386,,,,,,,,,,,,,,,,,,,,,,,,378.974,380.2849,a,1,[],[],[],[],[],[],[],0.6344,1,380.2852,380.7876,,,,,,10,MAS,AGR,150,niño,el,l,0.6344,,380.7878,380.7879,0.416666667,0.225260417,0,0,0,,0,140,140,9,1,,,,
,,,,,,6aae3b1d0dd831229d482896,66a626ef09d4e21e1a8894ec,6735ed00d444e62ffaf1c1b3,2024-11-14_09h31.32.985,Tarea de género gramatical,2024.2.2,Win32,60.24096386,,,,,,,,,,,,,,,,,,,,,,,,380.7921,382.0194,l,1,[],[],[],[],[],[],[],0.5586,1,382.0196,382.5163,,,,,,7,FEM,AGR,150,hora,la,a,0.5586,,382.5204,382.5237,0.416666667,0.225260417,0,0,0,,0,141,141,6,1,,,,
,,,,,,6aae3b1d0dd831229d482896,66a626ef09d4e21e1a8894ec,6735ed00d444e62ffaf1c1b3,2024-11-14_09h31.32.985,Tarea de género gramatical,2024.2.2,Win32,60.24096386,,,,,,,,,,,,,,,,,,,,,,,,382.5261,383.7649,a,1,[],[],[],[],[],[],[],0.5682,1,383.7652,384.2645,,,,,,208,MAS,AGR,150,suelo,el,l,0.5682,,384.2647,384.2651,0.416666667,0.225260417,0,0,0,,0,142,142,207,1,,,,
,,,,,,6aae3b1d0dd831229d482896,66a626ef09d4e21e1a8894ec,6735ed00d444e62ffaf1c1b3,2024-11-14_09h31.32.985,Tarea de género gramatical,2024.2.2,Win32,60.24096386,,,,,,,,,,,,,,,,,,,,,,,,384.2685,385.5799,a,1,[],[],[],[],[],[],[],0.6352,1,385.5802,386.0788,,,,,,340,MAS,AGR,150,pasado,el,l,0.6352,,386.079,386.0792,0.416666667,0.225260417,0,0,0,,0,143,143,339,1,,,,
,,,,,,6aae3b1d0dd831229d482896,66a626ef09d4e21e1a8894ec,6735ed00d444e62ffaf1c1b3,2024-11-14_09h31.32.985,Tarea de género gramatical,2024.2.2,Win32,60.24096386,,,,,,,,,,,,,,,,,,,,,,,,386.0827,387.2779,a,1,[],[],[],[],[],[],[],0.5151,1,387.2782,387.7775,,,,,,418,MAS,AGR,150,pájaro,el,l,0.5151,,387.7778,387.778,0.416666667,0.225260417,0,0,0,,0,144,144,417,1,,,,
,,,,,,6aae3b1d0dd831229d482896,66a626ef09d4e21e1a8894ec,6735ed00d444e62ffaf1c1b3,2024-11-14_09h31.32.985,Tarea de género gramatical,2024.2.2,Win32,60.24096386,,,,,,,,,,,,,,,,,,,,,,,,387.7811,389.0266,a,1,[],[],[],[],[],[],[],0.5688,1,389.0269,389.526,,,,,,101,MAS,CON,150,giro,,l,0.5688,,389.5263,389.5267,0.416666667,0.225260417,0,0,0,,0,145,145,100,1,,,,
,,,,,,6aae3b1d0dd831229d482896,66a626ef09d4e21e1a8894ec,6735ed00d444e62ffaf1c1b3,2024-11-14_09h31.32.985,Tarea de género gramatical,2024.2.2,Win32,60.24096386,,,,,,,,,,,,,,,,,,,,,,,,389.53,390.6747,a,1,[],[],[],[],[],[],[],0.4682,1,390.675,391.1744,,,,,,437,MAS,CON,150,hombro,,l,0.4682,,391.1788,391.1824,0.416666667,0.225260417,0,0,0,,0,146,146,436,1,,,,
,,,,,,6aae3b1d0dd831229d482896,66a626ef09d4e21e1a8894ec,6735ed00d444e62ffaf1c1b3,2024-11-14_09h31.32.985,Tarea de género gramatical,2024.2.2,Win32,60.24096386,,,,,,,,,,,,,,,,,,,,,,,,391.1846,392.5061,a,1,[],[],[],[],[],[],[],0.6514,1,392.5065,393.0065,,,,,,209,MAS,CON,150,banco,,l,0.6514,,393.0067,393.007,0.416666667,0.225260417,0,0,0,,0,147,147,208,1,,,,
,,,,,,6aae3b1d0dd831229d482896,66a626ef09d4e21e1a8894ec,6735ed00d444e62ffaf1c1b3,2024-11-14_09h31.32.985,Tarea de género gramatical,2024.2.2,Win32,60.24096386,,,,,,,,,,,,,,,,,,,,,,,,393.0102,394.3213,l,1,[],[],[],[],[],[],[],0.6344,1,394.3217,394.8208,,,,,,8,FEM,CON,150,idea,,a,0.6344,,394.821,394.8214,0.416666667,0.225260417,0,0,0,,0,148,148,7,1,,,,
,,,,,,6aae3b1d0dd831229d482896,66a626ef09d4e21e1a8894ec,6735ed00d444e62ffaf1c1b3,2024-11-14_09h31.32.985,Tarea de género gramatical,2024.2.2,Win32,60.24096386,,,,,,,,,,,,,,,,,,,,,,,,394.8249,396.1225,a,0,[],[],[],[],[],[],[],0.6253,0,396.1252,396.6192,,,,,,111,FEM,DIS,150,goma,el,a,0.6253,,396.6194,396.6197,0.416666667,0.225260417,0,0,0,,0,149,149,110,1,,,,
,,,,,,6aae3b1d0dd831229d482896,66a626ef09d4e21e1a8894ec,6735ed00d444e62ffaf1c1b3,2024-11-14_09h31.32.985,Tarea de género gramatical,2024.2.2,Win32,60.24096386,,,,,,,,,,,,,,,,,,,,,,,,396.6231,398.4339,a,1,[],[],[],[],[],[],[],1.1338,1,398.4371,398.9334,,,,,,66,MAS,DIS,150,muro,la,l,1.1338,,398.9376,458.7756,0.416666667,0.225260417,0,0,0,space,0,150,150,65,1,59.8161,,,
,,,,,,6aae3b1d0dd831229d482896,66a626ef09d4e21e1a8894ec,6735ed00d444e62ffaf1c1b3,2024-11-14_09h31.32.985,Tarea de género gramatical,2024.2.2,Win32,60.24096386,,,,,,,,,,,,,,,,,,,,,,,,458.7799,460.0237,a,1,[],[],[],[],[],[],[],0.5684,1,460.0241,460.523,,,,,,167,MAS,CON,150,juego,,l,0.5684,,460.5232,460.5236,0.416666667,0.225260417,0,0,0,,0,151,151,166,1,,,,
,,,,,,6aae3b1d0dd831229d482896,66a626ef09d4e21e1a8894ec,6735ed00d444e62ffaf1c1b3,2024-11-14_09h31.32.985,Tarea de género gramatical,2024.2.2,Win32,60.24096386,,,,,,,,,,,,,,,,,,,,,,,,460.5269,461.7552,a,1,[],[],[],[],[],[],[],0.5497,1,461.7555,462.2545,,,,,,366,MAS,DIS,150,riesgo,la,l,0.5497,,462.2547,462.2551,0.416666667,0.225260417,0,0,0,,0,152,152,365,1,,,,
,,,,,,6aae3b1d0dd831229d482896,66a626ef09d4e21e1a8894ec,6735ed00d444e62ffaf1c1b3,2024-11-14_09h31.32.985,Tarea de género gramatical,2024.2.2,Win32,60.24096386,,,,,,,,,,,,,,,,,,,,,,,,462.2586,463.3706,a,1,[],[],[],[],[],[],[],0.4362,1,463.371,463.8699,,,,,,58,MAS,AGR,150,mono,el,l,0.4362,,463.8701,463.8706,0.416666667,0.225260417,0,0,0,,0,153,153,57,1,,,,
,,,,,,6aae3b1d0dd831229d482896,66a626ef09d4e21e1a8894ec,6735ed00d444e62ffaf1c1b3,2024-11-14_09h31.32.985,Tarea de género gramatical,2024.2.2,Win32,60.24096386,,,,,,,,,,,,,,,,,,,,,,,,463.874,465.0021,l,1,[],[],[],[],[],[],[],0.4529,1,465.0025,465.5016,,,,,,235,FEM,AGR,150,torre,la,a,0.4529,,465.5018,465.5022,0.416666667,0.225260417,0,0,0,,0,154,154,234,1,,,,
,,,,,,6aae3b1d0dd831229d482896,66a626ef09d4e21e1a8894ec,6735ed00d444e62ffaf1c1b3,2024-11-14_09h31.32.985,Tarea de género gramatical,2024.2.2,Win32,60.24096386,,,,,,,,,,,,,,,,,,,,,,,,465.5057,466.6173,a,1,[],[],[],[],[],[],[],0.4349,1,466.6176,467.1165,,,,,,425,MAS,CON,150,chiste,,l,0.4349,,467.1211,467.1237,0.416666667,0.225260417,0,0,0,,0,155,155,424,1,,,,
,,,,,,6aae3b1d0dd831229d482896,66a626ef09d4e21e1a8894ec,6735ed00d444e62ffaf1c1b3,2024-11-14_09h31.32.985,Tarea de género gramatical,2024.2.2,Win32,60.24096386,,,,,,,,,,,,,,,,,,,,,,,,467.1261,468.4487,l,1,[],[],[],[],[],[],[],0.651,1,468.4491,468.9483,,,,,,387,FEM,DIS,150,página,el,a,0.651,,468.9485,468.9489,0.416666667,0.225260417,0,0,0,,0,156,156,386,1,,,,
,,,,,,6aae3b1d0dd831229d482896,66a626ef09d4e21e1a8894ec,6735ed00d444e62ffaf1c1b3,2024-11-14_09h31.32.985,Tarea de género gramatical,2024.2.2,Win32,60.24096386,,,,,,,,,,,,,,,,,,,,,,,,468.9524,470.5965,a,1,[],[],[],[],[],[],[],0.969,1,470.5968,471.0962,,,,,,186,MAS,DIS,150,error,la,l,0.969,,471.0965,471.0969,0.416666667,0.225260417,0,0,0,,0,157,157,185,1,,,,
,,,,,,6aae3b1d0dd831229d482896,66a626ef09d4e21e1a8894ec,6735ed00d444e62ffaf1c1b3,2024-11-14_09h31.32.985,Tarea de género gramatical,2024.2.2,Win32,60.24096386,,,,,,,,,,,,,,,,,,,,,,,,471.1002,472.312,l,1,[],[],[],[],[],[],[],0.5351,1,472.3124,472.8111,,,,,,440,FEM,CON,150,patada,,a,0.5351,,472.8114,472.8118,0.416666667,0.225260417,0,0,0,,0,158,158,439,1,,,,
,,,,,,6aae3b1d0dd831229d482896,66a626ef09d4e21e1a8894ec,6735ed00d444e62ffaf1c1b3,2024-11-14_09h31.32.985,Tarea de género gramatical,2024.2.2,Win32,60.24096386,,,,,,,,,,,,,,,,,,,,,,,,472.8151,474.593,l,1,[],[],[],[],[],[],[],1.1003,1,474.5934,475.0923,,,,,,110,FEM,CON,150,rosa,,a,1.1003,,475.0965,475.0996,0.416666667,0.225260417,0,0,0,,0,159,159,109,1,,,,
,,,,,,6aae3b1d0dd831229d482896,66a626ef09d4e21e1a8894ec,6735ed00d444e62ffaf1c1b3,2024-11-14_09h31.32.985,Tarea de género gramatical,2024.2.2,Win32,60.24096386,,,,,,,,,,,,,,,,,,,,,,,,475.1018,476.2078,l,1,[],[],[],[],[],[],[],0.4349,1,476.2082,476.7073,,,,,,212,FEM,CON,150,cinta,,a,0.4349,,476.7076,476.708,0.416666667,0.225260417,0,0,0,,0,160,160,211,1,,,,
,,,,,,6aae3b1d0dd831229d482896,66a626ef09d4e21e1a8894ec,6735ed00d444e62ffaf1c1b3,2024-11-14_09h31.32.985,Tarea de género gramatical,2024.2.2,Win32,60.24096386,,,,,,,,,,,,,,,,,,,,,,,,476.7114,478.5223,l,1,[],[],[],[],[],[],[],1.1337,1,478.5226,479.0217,,,,,,417,FEM,DIS,150,cabaña,el,a,1.1337,,479.022,479.0224,0.416666667,0.225260417,0,0,0,,0,161,161,416,1,,,,
,,,,,,6aae3b1d0dd831229d482896,66a626ef09d4e21e1a8894ec,6735ed00d444e62ffaf1c1b3,2024-11-14_09h31.32.985,Tarea de género gramatical,2024.2.2,Win32,60.24096386,,,,,,,,,,,,,,,,,,,,,,,,479.0258,480.187,l,1,[],[],[],[],[],[],[],0.4868,1,480.1872,480.6868,,,,,,296,FEM,CON,150,feria,,a,0.4868,,480.6871,480.6874,0.416666667,0.225260417,0,0,0,,0,162,162,295,1,,,,
,,,,,,6aae3b1d0dd831229d482896,66a626ef09d4e21e1a8894ec,6735ed00d444e62ffaf1c1b3,2024-11-14_09h31.32.985,Tarea de género gramatical,2024.2.2,Win32,60.24096386,,,,,,,,,,,,,,,,,,,,,,,,480.6909,481.9747,a,1,[],[],[],[],[],[],[],0.6114,1,481.9749,482.4683,,,,,,24,MAS,DIS,150,voto,la,l,0.6114,,482.4686,482.469,0.416666667,0.225260417,0,0,0,,0,163,163,23,1,,,,
,,,,,,6aae3b1d0dd831229d482896,66a626ef09d4e21e1a8894ec,6735ed00d444e62ffaf1c1b3,2024-11-14_09h31.32.985,Tarea de género gramatical,2024.2.2,Win32,60.24096386,,,,,,,,,,,,,,,,,,,,,,,,482.4722,483.6006,a,1,[],[],[],[],[],[],[],0.4513,1,483.6009,484.1001,,,,,,233,MAS,CON,150,golpe,,l,0.4513,,484.1043,484.1072,0.416666667,0.225260417,0,0,0,,0,164,164,232,1,,,,
,,,,,,6aae3b1d0dd831229d482896,66a626ef09d4e21e1a8894ec,6735ed00d444e62ffaf1c1b3,2024-11-14_09h31.32.985,Tarea de género gramatical,2024.2.2,Win32,60.24096386,,,,,,,,,,,,,,,,,,,,,,,,484.1096,485.4322,l,1,[],[],[],[],[],[],[],0.6509,1,485.4324,485.9315,,,,,,361,FEM,AGR,150,oferta,la,a,0.6509,,485.9317,485.932,0.416666667,0.225260417,0,0,0,,0,165,165,360,1,,,,
,,,,,,6aae3b1d0dd831229d482896,66a626ef09d4e21e1a8894ec,6735ed00d444e62ffaf1c1b3,2024-11-14_09h31.32.985,Tarea de género gramatical,2024.2.2,Win32,60.24096386,,,,,,,,,,,,,,,,,,,,,,,,485.9355,487.114,l,1,[],[],[],[],[],[],[],0.5012,1,487.1143,487.6135,,,,,,391,FEM,AGR,150,altura,la,a,0.5012,,487.6136,487.614,0.416666667,0.225260417,0,0,0,,0,166,166,390,1,,,,
,,,,,,6aae3b1d0dd831229d482896,66a626ef09d4e21e1a8894ec,6735ed00d444e62ffaf1c1b3,2024-11-14_09h31.32.985,Tarea de género gramatical,2024.2.2,Win32,60.24096386,,,,,,,,,,,,,,,,,,,,,,,,487.6176,488.8619,a,1,[],[],[],[],[],[],[],0.5677,1,488.8623,489.3616,,,,,,388,MAS,AGR,150,empleo,el,l,0.5677,,489.3619,489.3622,0.416666667,0.225260417,0,0,0,,0,167,167,387,1,,,,
,,,,,,6aae3b1d0dd831229d482896,66a626ef09d4e21e1a8894ec,6735ed00d444e62ffaf1c1b3,2024-11-14_09h31.32.985,Tarea de género gramatical,2024.2.2,Win32,60.24096386,,,,,,,,,,,,,,,,,,,,,,,,489.3659,490.6637,a,1,[],[],[],[],[],[],[],0.6255,1,490.6641,491.1599,,,,,,430,MAS,AGR,150,título,el,l,0.6255,,491.164,491.1671,0.416666667,0.225260417,0,0,0,,0,168,168,429,1,,,,
,,,,,,6aae3b1d0dd831229d482896,66a626ef09d4e21e1a8894ec,6735ed00d444e62ffaf1c1b3,2024-11-14_09h31.32.985,Tarea de género gramatical,2024.2.2,Win32,60.24096386,,,,,,,,,,,,,,,,,,,,,,,,491.1694,492.3594,l,1,[],[],[],[],[],[],[],0.5178,1,492.3597,492.8579,,,,,,152,FEM,CON,150,gente,,a,0.5178,,492.858,492.8584,0.416666667,0.225260417,0,0,0,,0,169,169,151,1,,,,
,,,,,,6aae3b1d0dd831229d482896,66a626ef09d4e21e1a8894ec,6735ed00d444e62ffaf1c1b3,2024-11-14_09h31.32.985,Tarea de género gramatical,2024.2.2,Win32,60.24096386,,,,,,,,,,,,,,,,,,,,,,,,492.8618,494.5736,l,1,[],[],[],[],[],[],[],1.0339,1,494.5739,495.0727,,,,,,147,FEM,DIS,150,grúa,el,a,1.0339,,495.073,495.0733,0.416666667,0.225260417,0,0,0,,0,170,170,146,1,,,,
,,,,,,6aae3b1d0dd831229d482896,66a626ef09d4e21e1a8894ec,6735ed00d444e62ffaf1c1b3,2024-11-14_09h31.32.985,Tarea de género gramatical,2024.2.2,Win32,60.24096386,,,,,,,,,,,,,,,,,,,,,,,,495.0768,496.1882,l,1,[],[],[],[],[],[],[],0.438,1,496.1884,496.6874,,,,,,38,FEM,CON,150,obra,,a,0.438,,496.6877,496.688,0.416666667,0.225260417,0,0,0,,0,171,171,37,1,,,,
,,,,,,6aae3b1d0dd831229d482896,66a626ef09d4e21e1a8894ec,6735ed00d444e62ffaf1c1b3,2024-11-14_09h31.32.985,Tarea de género gramatical,2024.2.2,Win32,60.24096386,,,,,,,,,,,,,,,,,,,,,,,,496.6914,497.9364,a,1,[],[],[],[],[],[],[],0.5692,1,497.9367,498.4361,,,,,,47,MAS,CON,150,olor,,l,0.5692,,498.4363,498.4367,0.416666667,0.225260417,0,0,0,,0,172,172,46,1,,,,
,,,,,,6aae3b1d0dd831229d482896,66a626ef09d4e21e1a8894ec,6735ed00d444e62ffaf1c1b3,2024-11-14_09h31.32.985,Tarea de género gramatical,2024.2.2,Win32,60.24096386,,,,,,,,,,,,,,,,,,,,,,,,498.4402,499.6022,l,1,[],[],[],[],[],[],[],0.4887,1,499.6024,500.1013,,,,,,337,FEM,AGR,150,escena,la,a,0.4887,,500.1054,500.1084,0.416666667,0.225260417,0,0,0,,0,173,173,336,1,,,,
,,,,,,6aae3b1d0dd831229d482896,66a626ef09d4e21e1a8894ec,6735ed00d444e62ffaf1c1b3,2024-11-14_09h31.32.985,Tarea de género gramatical,2024.2.2,Win32,60.24096386,,,,,,,,,,,,,,,,,,,,,,,,500.1106,501.383,a,1,[],[],[],[],[],[],[],0.6017,1,501.3834,501.8827,,,,,,149,MAS,CON,150,nudo,,l,0.6017,,501.8829,501.8834,0.416666667,0.225260417,0,0,0,,0,174,174,148,1,,,,
,,,,,,6aae3b1d0dd831229d482896,66a626ef09d4e21e1a8894ec,6735ed00d444e62ffaf1c1b3,2024-11-14_09h31.32.985,Tarea de género gramatical,2024.2.2,Win32,60.24096386,,,,,,,,,,,,,,,,,,,,,,,,501.8867,503.0152,a,1,[],[],[],[],[],[],[],0.4541,1,503.0154,503.5145,,,,,,382,MAS,AGR,150,teatro,el,l,0.4541,,503.5147,503.5151,0.416666667,0.225260417,0,0,0,,0,175,175,381,1,,,,
,,,,,,6aae3b1d0dd831229d482896,66a626ef09d4e21e1a8894ec,6735ed00d444e62ffaf1c1b3,2024-11-14_09h31.32.985,Tarea de género gramatical,2024.2.2,Win32,60.24096386,,,,,,,,,,,,,,,,,,,,,,,,503.5185,504.6137,l,1,[],[],[],[],[],[],[],0.4175,1,504.6142,505.1128,,,,,,104,FEM,CON,150,vela,,a,0.4175,,505.1131,505.1136,0.416666667,0.225260417,0,0,0,,0,176,176,103,1,,,,
,,,,,,6aae3b1d0dd831229d482896,66a626ef09d4e21e1a8894ec,6735ed00d444e62ffaf1c1b3,2024-11-14_09h31.32.985,Tarea de género gramatical,2024.2.2,Win32,60.24096386,,,,,,,,,,,,,,,,,,,,,,,,505.117,506.2482,l,1,[],[],[],[],[],[],[],0.4582,1,506.2488,506.7448,,,,,,194,FEM,CON,150,banda,,a,0.4582,,506.7491,506.7523,0.416666667,0.225260417,0,0,0,,0,177,177,193,1,,,,
,,,,,,6aae3b1d0dd831229d482896,66a626ef09d4e21e1a8894ec,6735ed00d444e62ffaf1c1b3,2024-11-14_09h31.32.985,Tarea de género gramatical,2024.2.2,Win32,60.24096386,,,,,,,,,,,,,,,,,,,,,,,,506.7548,508.0262,a,1,[],[],[],[],[],[],[],0.6041,1,508.0266,508.5259,,,,,,100,MAS,AGR,150,nido,el,l,0.6041,,508.5262,508.5265,0.416666667,0.225260417,0,0,0,,0,178,178,99,1,,,,
,,,,,,6aae3b1d0dd831229d482896,66a626ef09d4e21e1a8894ec,6735ed00d444e62ffaf1c1b3,2024-11-14_09h31.32.985,Tarea de género gramatical,2024.2.2,Win32,60.24096386,,,,,,,,,,,,,,,,,,,,,,,,508.5298,509.4583,l,1,[],[],[],[],[],[],[],0.2517,1,509.4585,509.9582,,,,,,301,FEM,AGR,150,verdad,la,a,0.2517,,509.9584,509.9588,0.416666667,0.225260417,0,0,0,,0,179,179,300,1,,,,
,,,,,,6aae3b1d0dd831229d482896,66a626ef09d4e21e1a8894ec,6735ed00d444e62ffaf1c1b3,2024-11-14_09h31.32.985,Tarea de género gramatical,2024.2.2,Win32,60.24096386,,,,,,,,,,,,,,,,,,,,,,,,509.9621,511.1243,a,1,[],[],[],[],[],[],[],0.4865,1,511.1247,511.6237,,,,,,275,MAS,CON,150,disco,,l,0.4865,,511.624,511.6242,0.416666667,0.225260417,0,0,0,,0,180,180,274,1,,,,
,,,,,,6aae3b1d0dd831229d482896,66a626ef09d4e21e1a8894ec,6735ed00d444e62ffaf1c1b3,2024-11-14_09h31.32.985,Tarea de género gramatical,2024.2.2,Win32,60.24096386,,,,,,,,,,,,,,,,,,,,,,,,511.6277,513.2215,a,1,[],[],[],[],[],[],[],0.9172,1,513.2217,513.7211,,,,,,322,MAS,AGR,150,minuto,el,l,0.9172,,513.7218,513.722,0.416666667,0.225260417,0,0,0,,0,181,181,321,1,,,,
,,,,,,6aae3b1d0dd831229d482896,66a626ef09d4e21e1a8894ec,6735ed00d444e62ffaf1c1b3,2024-11-14_09h31.32.985,Tarea de género gramatical,2024.2.2,Win32,60.24096386,,,,,,,,,,,,,,,,,,,,,,,,513.7255,514.8864,a,1,[],[],[],[],[],[],[],0.4847,1,514.8865,515.3862,,,,,,76,MAS,AGR,150,lujo,el,l,0.4847,,515.3905,515.3938,0.416666667,0.225260417,0,0,0,,0,182,182,75,1,,,,
,,,,,,6aae3b1d0dd831229d482896,66a626ef09d4e21e1a8894ec,6735ed00d444e62ffaf1c1b3,2024-11-14_09h31.32.985,Tarea de género gramatical,2024.2.2,Win32,60.24096386,,,,,,,,,,,,,,,,,,,,,,,,515.3959,516.5352,a,1,[],[],[],[],[],[],[],0.4686,1,516.5354,517.0347,,,,,,5,MAS,CON,150,tipo,,l,0.4686,,517.0348,517.0353,0.416666667,0.225260417,0,0,0,,0,183,183,4,1,,,,
,,,,,,6aae3b1d0dd831229d482896,66a626ef09d4e21e1a8894ec,6735ed00d444e62ffaf1c1b3,2024-11-14_09h31.32.985,Tarea de género gramatical,2024.2.2,Win32,60.24096386,,,,,,,,,,,,,,,,,,,,,,,,517.0385,518.1853,a,1,[],[],[],[],[],[],[],0.4742,1,518.1855,518.6832,,,,,,448,MAS,AGR,150,aceite,el,l,0.4742,,518.6833,518.6837,0.416666667,0.225260417,0,0,0,,0,184,184,447,1,,,,
,,,,,,6aae3b1d0dd831229d482896,66a626ef09d4e21e1a8894ec,6735ed00d444e62ffaf1c1b3,2024-11-14_09h31.32.985,Tarea de género gramatical,2024.2.2,Win32,60.24096386,,,,,,,,,,,,,,,,,,,,,,,,518.6869,519.8151,l,1,[],[],[],[],[],[],[],0.4521,1,519.8154,520.3146,,,,,,428,FEM,CON,150,jugada,,a,0.4521,,520.3149,520.3152,0.416666667,0.225260417,0,0,0,,0,185,185,427,1,,,,
,,,,,,6aae3b1d0dd831229d482896,66a626ef09d4e21e1a8894ec,6735ed00d444e62ffaf1c1b3,2024-11-14_09h31.32.985,Tarea de género gramatical,2024.2.2,Win32,60.24096386,,,,,,,,,,,,,,,,,,,,,,,,520.3183,521.5136,l,1,[],[],[],[],[],[],[],0.5182,1,521.5139,522.0129,,,,,,98,FEM,CON,150,fuga,,a,0.5182,,522.017,522.0201,0.416666667,0.225260417,0,0,0,,0,186,186,97,1,,,,
,,,,,,6aae3b1d0dd831229d482896,66a626ef09d4e21e1a8894ec,6735ed00d444e62ffaf1c1b3,2024-11-14_09h31.32.985,Tarea de género gramatical,2024.2.2,Win32,60.24096386,,,,,,,,,,,,,,,,,,,,,,,,522.0223,523.1783,l,1,[],[],[],[],[],[],[],0.4854,1,523.1785,523.6781,,,,,,128,FEM,CON,150,leña,,a,0.4854,,523.6783,523.6787,0.416666667,0.225260417,0,0,0,,0,187,187,127,1,,,,
,,,,,,6aae3b1d0dd831229d482896,66a626ef09d4e21e1a8894ec,6735ed00d444e62ffaf1c1b3,2024-11-14_09h31.32.985,Tarea de género gramatical,2024.2.2,Win32,60.24096386,,,,,,,,,,,,,,,,,,,,,,,,523.6821,524.88,l,1,[],[],[],[],[],[],[],0.525,1,524.8802,525.3763,,,,,,279,FEM,DIS,150,selva,el,a,0.525,,525.3765,525.3769,0.416666667,0.225260417,0,0,0,,0,188,188,278,1,,,,
,,,,,,6aae3b1d0dd831229d482896,66a626ef09d4e21e1a8894ec,6735ed00d444e62ffaf1c1b3,2024-11-14_09h31.32.985,Tarea de género gramatical,2024.2.2,Win32,60.24096386,,,,,,,,,,,,,,,,,,,,,,,,525.3806,526.7082,l,1,[],[],[],[],[],[],[],0.6546,1,526.7085,527.2091,,,,,,87,FEM,DIS,150,risa,el,a,0.6546,,527.2092,527.2095,0.416666667,0.225260417,0,0,0,,0,189,189,86,1,,,,
,,,,,,6aae3b1d0dd831229d482896,66a626ef09d4e21e1a8894ec,6735ed00d444e62ffaf1c1b3,2024-11-14_09h31.32.985,Tarea de género gramatical,2024.2.2,Win32,60.24096386,,,,,,,,,,,,,,,,,,,,,,,,527.2134,528.3571,l,1,[],[],[],[],[],[],[],0.4713,1,528.3574,528.8563,,,,,,145,FEM,AGR,150,bota,la,a,0.4713,,528.8566,528.8571,0.416666667,0.225260417,0,0,0,,0,190,190,144,1,,,,
,,,,,,6aae3b1d0dd831229d482896,66a626ef09d4e21e1a8894ec,6735ed00d444e62ffaf1c1b3,2024-11-14_09h31.32.985,Tarea de género gramatical,2024.2.2,Win32,60.24096386,,,,,,,,,,,,,,,,,,,,,,,,528.8606,530.1218,a,1,[],[],[],[],[],[],[],0.5837,1,530.1221,530.62,,,,,,304,MAS,AGR,150,tiempo,el,l,0.5837,,530.6217,530.6227,0.416666667,0.225260417,0,0,0,,0,191,191,303,1,,,,
,,,,,,6aae3b1d0dd831229d482896,66a626ef09d4e21e1a8894ec,6735ed00d444e62ffaf1c1b3,2024-11-14_09h31.32.985,Tarea de género gramatical,2024.2.2,Win32,60.24096386,,,,,,,,,,,,,,,,,,,,,,,,530.6244,531.8355,l,1,[],[],[],[],[],[],[],0.5334,1,531.8357,532.3362,,,,,,271,FEM,AGR,150,viuda,la,a,0.5334,,532.3365,532.3368,0.416666667,0.225260417,0,0,0,,0,192,192,270,1,,,,
,,,,,,6aae3b1d0dd831229d482896,66a626ef09d4e21e1a8894ec,6735ed00d444e62ffaf1c1b3,2024-11-14_09h31.32.985,Tarea de género gramatical,2024.2.2,Win32,60.24096386,,,,,,,,,,,,,,,,,,,,,,,,532.3403,533.8004,a,1,[],[],[],[],[],[],[],0.7804,1,533.8004,534.2999,,,,,,444,MAS,DIS,150,límite,la,l,0.7804,,534.2999,534.3001,0.416666667,0.225260417,0,0,0,,0,193,193,443,1,,,,
,,,,,,6aae3b1d0dd831229d482896,66a626ef09d4e21e1a8894ec,6735ed00d444e62ffaf1c1b3,2024-11-14_09h31.32.985,Tarea de género gramatical,2024.2.2,Win32,60.24096386,,,,,,,,,,,,,,,,,,,,,,,,534.3015,535.5497,l,1,[],[],[],[],[],[],[],0.5677,1,535.55,536.0493,,,,,,441,FEM,DIS,150,medida,el,a,0.5677,,536.0495,536.0499,0.416666667,0.225260417,0,0,0,,0,194,194,440,1,,,,
,,,,,,6aae3b1d0dd831229d482896,66a626ef09d4e21e1a8894ec,6735ed00d444e62ffaf1c1b3,2024-11-14_09h31.32.985,Tarea de género gramatical,2024.2.2,Win32,60.24096386,,,,,,,,,,,,,,,,,,,,,,,,536.0531,537.4835,l,0,[],[],[],[],[],[],[],0.7578,0,537.4866,537.9805,,,,,,77,MAS,CON,150,pico,,l,0.7578,,537.9851,537.988,0.416666667,0.225260417,0,0,0,,0,195,195,76,1,,,,
,,,,,,6aae3b1d0dd831229d482896,66a626ef09d4e21e1a8894ec,6735ed00d444e62ffaf1c1b3,2024-11-14_09h31.32.985,Tarea de género gramatical,2024.2.2,Win32,60.24096386,,,,,,,,,,,,,,,,,,,,,,,,537.9904,539.379,l,1,[],[],[],[],[],[],[],0.7189,1,539.3821,539.8789,,,,,,117,FEM,DIS,150,raya,el,a,0.7189,,539.8791,539.8795,0.416666667,0.225260417,0,0,0,,0,196,196,116,1,,,,
,,,,,,6aae3b1d0dd831229d482896,66a626ef09d4e21e1a8894ec,6735ed00d444e62ffaf1c1b3,2024-11-14_09h31.32.985,Tarea de género gramatical,2024.2.2,Win32,60.24096386,,,,,,,,,,,,,,,,,,,,,,,,539.883,542.16,a,1,[],[],[],[],[],[],[],1.6019,1,542.1604,542.6595,,,,,,420,MAS,DIS,150,helado,la,l,1.6019,,542.6597,542.66,0.416666667,0.225260417,0,0,0,,0,197,197,419,1,,,,
,,,,,,6aae3b1d0dd831229d482896,66a626ef09d4e21e1a8894ec,6735ed00d444e62ffaf1c1b3,2024-11-14_09h31.32.985,Tarea de género gramatical,2024.2.2,Win32,60.24096386,,,,,,,,,,,,,,,,,,,,,,,,542.6637,543.8918,l,1,[],[],[],[],[],[],[],0.5524,1,543.8921,544.3911,,,,,,39,FEM,DIS,150,luna,el,a,0.5524,,544.3914,544.3917,0.416666667,0.225260417,0,0,0,,0,198,198,38,1,,,,
,,,,,,6aae3b1d0dd831229d482896,66a626ef09d4e21e1a8894ec,6735ed00d444e62ffaf1c1b3,2024-11-14_09h31.32.985,Tarea de género gramatical,2024.2.2,Win32,60.24096386,,,,,,,,,,,,,,,,,,,,,,,,544.3952,546.0228,a,1,[],[],[],[],[],[],[],0.9521,1,546.0231,546.522,,,,,,30,MAS,DIS,150,cine,la,l,0.9521,,546.5223,546.5225,0.416666667,0.225260417,0,0,0,,0,199,199,29,1,,,,
,,,,,,6aae3b1d0dd831229d482896,66a626ef09d4e21e1a8894ec,6735ed00d444e62ffaf1c1b3,2024-11-14_09h31.32.985,Tarea de género gramatical,2024.2.2,Win32,60.24096386,,,,,,,,,,,,,,,,,,,,,,,,546.5259,547.8064,l,1,[],[],[],[],[],[],[],0.6071,1,547.8067,548.304,,,,,,427,FEM,AGR,150,agenda,la,a,0.6071,,548.3084,548.3114,0.416666667,0.225260417,0,0,0,,0,200,200,426,1,,,,
,,,,,,6aae3b1d0dd831229d482896,66a626ef09d4e21e1a8894ec,6735ed00d444e62ffaf1c1b3,2024-11-14_09h31.32.985,Tarea de género gramatical,2024.2.2,Win32,60.24096386,,,,,,,,,,,,,,,,,,,,,,,,548.3136,549.5557,l,1,[],[],[],[],[],[],[],0.5753,1,549.5563,550.0536,,,,,,326,FEM,CON,150,música,,a,0.5753,,550.0538,550.0544,0.416666667,0.225260417,0,0,0,,0,201,201,325,1,,,,
,,,,,,6aae3b1d0dd831229d482896,66a626ef09d4e21e1a8894ec,6735ed00d444e62ffaf1c1b3,2024-11-14_09h31.32.985,Tarea de género gramatical,2024.2.2,Win32,60.24096386,,,,,,,,,,,,,,,,,,,,,,,,550.0579,551.5006,l,1,[],[],[],[],[],[],[],0.7683,1,551.501,552.0003,,,,,,309,FEM,DIS,150,esposa,el,a,0.7683,,552.0006,552.0009,0.416666667,0.225260417,0,0,0,,0,202,202,308,1,,,,
,,,,,,6aae3b1d0dd831229d482896,66a626ef09d4e21e1a8894ec,6735ed00d444e62ffaf1c1b3,2024-11-14_09h31.32.985,Tarea de género gramatical,2024.2.2,Win32,60.24096386,,,,,,,,,,,,,,,,,,,,,,,,552.0045,553.8817,a,1,[],[],[],[],[],[],[],1.2021,1,553.882,554.3813,,,,,,346,MAS,AGR,150,juicio,el,l,1.2021,,554.3816,554.382,0.416666667,0.225260417,0,0,0,,0,203,203,345,1,,,,
,,,,,,6aae3b1d0dd831229d482896,66a626ef09d4e21e1a8894ec,6735ed00d444e62ffaf1c1b3,2024-11-14_09h31.32.985,Tarea de género gramatical,2024.2.2,Win32,60.24096386,,,,,,,,,,,,,,,,,,,,,,,,554.3858,555.6134,l,1,[],[],[],[],[],[],[],0.5515,1,555.6137,556.1132,,,,,,207,FEM,DIS,150,playa,el,a,0.5515,,556.1173,556.1203,0.416666667,0.225260417,0,0,0,,0,204,204,206,1,,,,
,,,,,,6aae3b1d0dd831229d482896,66a626ef09d4e21e1a8894ec,6735ed00d444e62ffaf1c1b3,2024-11-14_09h31.32.985,Tarea de género gramatical,2024.2.2,Win32,60.24096386,,,,,,,,,,,,,,,,,,,,,,,,556.1226,557.7788,a,1,[],[],[],[],[],[],[],0.984,1,557.7791,558.2777,,,,,,370,MAS,AGR,150,seguro,el,l,0.984,,558.2778,558.2783,0.416666667,0.225260417,0,0,0,,0,205,205,369,1,,,,
,,,,,,6aae3b1d0dd831229d482896,66a626ef09d4e21e1a8894ec,6735ed00d444e62ffaf1c1b3,2024-11-14_09h31.32.985,Tarea de género gramatical,2024.2.2,Win32,60.24096386,,,,,,,,,,,,,,,,,,,,,,,,558.2815,559.676,a,1,[],[],[],[],[],[],[],0.7187,1,559.6764,560.1754,,,,,,137,MAS,CON,150,coco,,l,0.7187,,560.1756,560.1759,0.416666667,0.225260417,0,0,0,,0,206,206,136,1,,,,
,,,,,,6aae3b1d0dd831229d482896,66a626ef09d4e21e1a8894ec,6735ed00d444e62ffaf1c1b3,2024-11-14_09h31.32.985,Tarea de género gramatical,2024.2.2,Win32,60.24096386,,,,,,,,,,,,,,,,,,,,,,,,560.1791,561.3743,a,1,[],[],[],[],[],[],[],0.5196,1,561.3747,561.874,,,,,,107,MAS,CON,150,cubo,,l,0.5196,,561.8742,561.8746,0.416666667,0.225260417,0,0,0,,0,207,207,106,1,,,,
,,,,,,6aae3b1d0dd831229d482896,66a626ef09d4e21e1a8894ec,6735ed00d444e62ffaf1c1b3,2024-11-14_09h31.32.985,Tarea de género gramatical,2024.2.2,Win32,60.24096386,,,,,,,,,,,,,,,,,,,,,,,,561.878,562.9727,a,1,[],[],[],[],[],[],[],0.4187,1,562.9731,563.4724,,,,,,329,MAS,CON,150,futuro,,l,0.4187,,563.4726,563.4731,0.416666667,0.225260417,0,0,0,,0,208,208,328,1,,,,
,,,,,,6aae3b1d0dd831229d482896,66a626ef09d4e21e1a8894ec,6735ed00d444e62ffaf1c1b3,2024-11-14_09h31.32.985,Tarea de género gramatical,2024.2.2,Win32,60.24096386,,,,,,,,,,,,,,,,,,,,,,,,563.4765,564.6384,l,1,[],[],[],[],[],[],[],0.4817,1,564.6387,565.1375,,,,,,181,FEM,AGR,150,tarde,la,a,0.4817,,565.1417,565.1446,0.416666667,0.225260417,0,0,0,,0,209,209,180,1,,,,
,,,,,,6aae3b1d0dd831229d482896,66a626ef09d4e21e1a8894ec,6735ed00d444e62ffaf1c1b3,2024-11-14_09h31.32.985,Tarea de género gramatical,2024.2.2,Win32,60.24096386,,,,,,,,,,,,,,,,,,,,,,,,565.147,566.3397,a,1,[],[],[],[],[],[],[],0.5254,1,566.3403,566.8356,,,,,,276,MAS,DIS,150,ritmo,la,l,0.5254,,566.8359,566.8362,0.416666667,0.225260417,0,0,0,,0,210,210,275,1,,,,
,,,,,,6aae3b1d0dd831229d482896,66a626ef09d4e21e1a8894ec,6735ed00d444e62ffaf1c1b3,2024-11-14_09h31.32.985,Tarea de género gramatical,2024.2.2,Win32,60.24096386,,,,,,,,,,,,,,,,,,,,,,,,566.8394,568.1179,l,1,[],[],[],[],[],[],[],0.6018,1,568.1182,568.6172,,,,,,93,FEM,DIS,150,lata,el,a,0.6018,,568.6175,568.6177,0.416666667,0.225260417,0,0,0,,0,211,211,92,1,,,,
,,,,,,6aae3b1d0dd831229d482896,66a626ef09d4e21e1a8894ec,6735ed00d444e62ffaf1c1b3,2024-11-14_09h31.32.985,Tarea de género gramatical,2024.2.2,Win32,60.24096386,,,,,,,,,,,,,,,,,,,,,,,,568.6211,569.8661,a,1,[],[],[],[],[],[],[],0.5692,1,569.8665,570.3659,,,,,,406,MAS,AGR,150,premio,el,l,0.5692,,570.366,570.3664,0.416666667,0.225260417,0,0,0,,0,212,212,405,1,,,,
,,,,,,6aae3b1d0dd831229d482896,66a626ef09d4e21e1a8894ec,6735ed00d444e62ffaf1c1b3,2024-11-14_09h31.32.985,Tarea de género gramatical,2024.2.2,Win32,60.24096386,,,,,,,,,,,,,,,,,,,,,,,,570.3699,571.5479,l,1,[],[],[],[],[],[],[],0.5011,1,571.5482,572.0473,,,,,,151,FEM,AGR,150,noche,la,a,0.5011,,572.0517,572.0547,0.416666667,0.225260417,0,0,0,,0,213,213,150,1,,,,
,,,,,,6aae3b1d0dd831229d482896,66a626ef09d4e21e1a8894ec,6735ed00d444e62ffaf1c1b3,2024-11-14_09h31.32.985,Tarea de género gramatical,2024.2.2,Win32,60.24096386,,,,,,,,,,,,,,,,,,,,,,,,572.0573,573.4623,l,1,[],[],[],[],[],[],[],0.7353,1,573.4627,573.9621,,,,,,393,FEM,DIS,150,alarma,el,a,0.7353,,573.9623,573.9628,0.416666667,0.225260417,0,0,0,,0,214,214,392,1,,,,
,,,,,,6aae3b1d0dd831229d482896,66a626ef09d4e21e1a8894ec,6735ed00d444e62ffaf1c1b3,2024-11-14_09h31.32.985,Tarea de género gramatical,2024.2.2,Win32,60.24096386,,,,,,,,,,,,,,,,,,,,,,,,573.9661,575.0944,l,1,[],[],[],[],[],[],[],0.4556,1,575.0946,575.5938,,,,,,2,FEM,CON,150,vida,,a,0.4556,,575.5941,575.5945,0.416666667,0.225260417,0,0,0,,0,215,215,1,1,,,,
,,,,,,6aae3b1d0dd831229d482896,66a626ef09d4e21e1a8894ec,6735ed00d444e62ffaf1c1b3,2024-11-14_09h31.32.985,Tarea de género gramatical,2024.2.2,Win32,60.24096386,,,,,,,,,,,,,,,,,,,,,,,,575.598,576.8093,l,1,[],[],[],[],[],[],[],0.5338,1,576.8095,577.3088,,,,,,115,FEM,AGR,150,seda,la,a,0.5338,,577.309,577.3094,0.416666667,0.225260417,0,0,0,,0,216,216,114,1,,,,
,,,,,,6aae3b1d0dd831229d482896,66a626ef09d4e21e1a8894ec,6735ed00d444e62ffaf1c1b3,2024-11-14_09h31.32.985,Tarea de género gramatical,2024.2.2,Win32,60.24096386,,,,,,,,,,,,,,,,,,,,,,,,577.3129,578.5243,l,1,[],[],[],[],[],[],[],0.5335,1,578.5246,579.0238,,,,,,79,FEM,AGR,150,mina,la,a,0.5335,,579.024,579.0245,0.416666667,0.225260417,0,0,0,,0,217,217,78,1,,,,
,,,,,,6aae3b1d0dd831229d482896,66a626ef09d4e21e1a8894ec,6735ed00d444e62ffaf1c1b3,2024-11-14_09h31.32.985,Tarea de género gramatical,2024.2.2,Win32,60.24096386,,,,,,,,,,,,,,,,,,,,,,,,579.0279,580.2558,a,1,[],[],[],[],[],[],[],0.551,1,580.2562,580.7558,,,,,,71,MAS,CON,150,pozo,,l,0.551,,580.76,580.7631,0.416666667,0.225260417,0,0,0,,0,218,218,70,1,,,,
,,,,,,6aae3b1d0dd831229d482896,66a626ef09d4e21e1a8894ec,6735ed00d444e62ffaf1c1b3,2024-11-14_09h31.32.985,Tarea de género gramatical,2024.2.2,Win32,60.24096386,,,,,,,,,,,,,,,,,,,,,,,,580.7654,581.8546,l,1,[],[],[],[],[],[],[],0.4183,1,581.8548,582.3539,,,,,,158,FEM,CON,150,chica,,a,0.4183,,582.3542,582.3546,0.416666667,0.225260417,0,0,0,,0,219,219,157,1,,,,
,,,,,,6aae3b1d0dd831229d482896,66a626ef09d4e21e1a8894ec,6735ed00d444e62ffaf1c1b3,2024-11-14_09h31.32.985,Tarea de género gramatical,2024.2.2,Win32,60.24096386,,,,,,,,,,,,,,,,,,,,,,,,582.3583,583.7692,l,1,[],[],[],[],[],[],[],0.7342,1,583.7696,584.2693,,,,,,399,FEM,DIS,150,charla,el,a,0.7342,,584.2695,584.2697,0.416666667,0.225260417,0,0,0,,0,220,220,398,1,,,,
,,,,,,6aae3b1d0dd831229d482896,66a626ef09d4e21e1a8894ec,6735ed00d444e62ffaf1c1b3,2024-11-14_09h31.32.985,Tarea de género gramatical,2024.2.2,Win32,60.24096386,,,,,,,,,,,,,,,,,,,,,,,,584.2748,585.3523,l,1,[],[],[],[],[],[],[],0.4075,1,585.3528,585.8501,,,,,,308,FEM,CON,150,semana,,a,0.4075,,585.8503,585.8508,0.416666667,0.225260417,0,0,0,,0,221,221,307,1,,,,
,,,,,,6aae3b1d0dd831229d482896,66a626ef09d4e21e1a8894ec,6735ed00d444e62ffaf1c1b3,2024-11-14_09h31.32.985,Tarea de género gramatical,2024.2.2,Win32,60.24096386,,,,,,,,,,,,,,,,,,,,,,,,585.8542,587.1159,a,1,[],[],[],[],[],[],[],0.5858,1,587.1163,587.6154,,,,,,298,MAS,AGR,150,botón,el,l,0.5858,,587.62,587.6233,0.416666667,0.225260417,0,0,0,,0,222,222,297,1,,,,
,,,,,,6aae3b1d0dd831229d482896,66a626ef09d4e21e1a8894ec,6735ed00d444e62ffaf1c1b3,2024-11-14_09h31.32.985,Tarea de género gramatical,2024.2.2,Win32,60.24096386,,,,,,,,,,,,,,,,,,,,,,,,587.6254,588.6977,l,1,[],[],[],[],[],[],[],0.4019,1,588.6981,589.1973,,,,,,254,FEM,CON,150,caída,,a,0.4019,,589.1975,589.1979,0.416666667,0.225260417,0,0,0,,0,223,223,253,1,,,,
,,,,,,6aae3b1d0dd831229d482896,66a626ef09d4e21e1a8894ec,6735ed00d444e62ffaf1c1b3,2024-11-14_09h31.32.985,Tarea de género gramatical,2024.2.2,Win32,60.24096386,,,,,,,,,,,,,,,,,,,,,,,,589.2012,590.496,a,1,[],[],[],[],[],[],[],0.6177,1,590.4963,590.9954,,,,,,348,MAS,DIS,150,anillo,la,l,0.6177,,590.9955,590.9958,0.416666667,0.225260417,0,0,0,,0,224,224,347,1,,,,
,,,,,,6aae3b1d0dd831229d482896,66a626ef09d4e21e1a8894ec,6735ed00d444e62ffaf1c1b3,2024-11-14_09h31.32.985,Tarea de género gramatical,2024.2.2,Win32,60.24096386,,,,,,,,,,,,,,,,,,,,,,,,590.999,592.2618,l,1,[],[],[],[],[],[],[],0.5898,1,592.262,592.7604,,,,,,345,FEM,DIS,150,pierna,el,a,0.5898,,592.7607,592.7611,0.416666667,0.225260417,0,0,0,,0,225,225,344,1,,,,
,,,,,,6aae3b1d0dd831229d482896,66a626ef09d4e21e1a8894ec,6735ed00d444e62ffaf1c1b3,2024-11-14_09h31.32.985,Tarea de género gramatical,2024.2.2,Win32,60.24096386,,,,,,,,,,,,,,,,,,,,,,,,592.7645,593.8925,l,1,[],[],[],[],[],[],[],0.4517,1,593.8928,594.3921,,,,,,25,FEM,AGR,150,nave,la,a,0.4517,,594.3924,594.3928,0.416666667,0.225260417,0,0,0,,0,226,226,24,1,,,,
,,,,,,6aae3b1d0dd831229d482896,66a626ef09d4e21e1a8894ec,6735ed00d444e62ffaf1c1b3,2024-11-14_09h31.32.985,Tarea de género gramatical,2024.2.2,Win32,60.24096386,,,,,,,,,,,,,,,,,,,,,,,,594.3962,595.5243,l,1,[],[],[],[],[],[],[],0.4512,1,595.5247,596.0239,,,,,,350,FEM,CON,150,imagen,,a,0.4512,,596.0281,596.0311,0.416666667,0.225260417,0,0,0,,0,227,227,349,1,,,,
,,,,,,6aae3b1d0dd831229d482896,66a626ef09d4e21e1a8894ec,6735ed00d444e62ffaf1c1b3,2024-11-14_09h31.32.985,Tarea de género gramatical,2024.2.2,Win32,60.24096386,,,,,,,,,,,,,,,,,,,,,,,,596.0335,597.3085,a,0,[],[],[],[],[],[],[],0.6083,0,597.3115,597.8055,,,,,,129,FEM,DIS,150,rana,el,a,0.6083,,597.8058,597.8061,0.416666667,0.225260417,0,0,0,,0,228,228,128,1,,,,
,,,,,,6aae3b1d0dd831229d482896,66a626ef09d4e21e1a8894ec,6735ed00d444e62ffaf1c1b3,2024-11-14_09h31.32.985,Tarea de género gramatical,2024.2.2,Win32,60.24096386,,,,,,,,,,,,,,,,,,,,,,,,597.8091,599.2722,a,1,[],[],[],[],[],[],[],0.7901,1,599.2751,599.7707,,,,,,35,MAS,CON,150,taxi,,l,0.7901,,599.7709,599.7712,0.416666667,0.225260417,0,0,0,,0,229,229,34,1,,,,
,,,,,,6aae3b1d0dd831229d482896,66a626ef09d4e21e1a8894ec,6735ed00d444e62ffaf1c1b3,2024-11-14_09h31.32.985,Tarea de género gramatical,2024.2.2,Win32,60.24096386,,,,,,,,,,,,,,,,,,,,,,,,599.7746,601.0362,a,1,[],[],[],[],[],[],[],0.5889,1,601.0364,601.5352,,,,,,281,MAS,CON,150,actor,,l,0.5889,,601.5354,601.5359,0.416666667,0.225260417,0,0,0,,0,230,230,280,1,,,,
,,,,,,6aae3b1d0dd831229d482896,66a626ef09d4e21e1a8894ec,6735ed00d444e62ffaf1c1b3,2024-11-14_09h31.32.985,Tarea de género gramatical,2024.2.2,Win32,60.24096386,,,,,,,,,,,,,,,,,,,,,,,,601.5393,602.7173,l,1,[],[],[],[],[],[],[],0.5024,1,602.7177,603.2163,,,,,,146,FEM,CON,150,lana,,a,0.5024,,603.2204,603.2235,0.416666667,0.225260417,0,0,0,,0,231,231,145,1,,,,
,,,,,,6aae3b1d0dd831229d482896,66a626ef09d4e21e1a8894ec,6735ed00d444e62ffaf1c1b3,2024-11-14_09h31.32.985,Tarea de género gramatical,2024.2.2,Win32,60.24096386,,,,,,,,,,,,,,,,,,,,,,,,603.2257,604.4989,a,1,[],[],[],[],[],[],[],0.601,1,604.4992,604.9985,,,,,,155,MAS,CON,150,mundo,,l,0.601,,604.9987,604.9991,0.416666667,0.225260417,0,0,0,,0,232,232,154,1,,,,
,,,,,,6aae3b1d0dd831229d482896,66a626ef09d4e21e1a8894ec,6735ed00d444e62ffaf1c1b3,2024-11-14_09h31.32.985,Tarea de género gramatical,2024.2.2,Win32,60.24096386,,,,,,,,,,,,,,,,,,,,,,,,605.0026,606.4136,a,1,[],[],[],[],[],[],[],0.7342,1,606.4138,606.9132,,,,,,60,MAS,DIS,150,tono,la,l,0.7342,,606.9135,606.9138,0.416666667,0.225260417,0,0,0,,0,233,233,59,1,,,,
,,,,,,6aae3b1d0dd831229d482896,66a626ef09d4e21e1a8894ec,6735ed00d444e62ffaf1c1b3,2024-11-14_09h31.32.985,Tarea de género gramatical,2024.2.2,Win32,60.24096386,,,,,,,,,,,,,,,,,,,,,,,,606.9174,608.1949,l,1,[],[],[],[],[],[],[],0.6037,1,608.1952,608.6949,,,,,,333,FEM,DIS,150,locura,el,a,0.6037,,608.6951,608.6955,0.416666667,0.225260417,0,0,0,,0,234,234,332,1,,,,
,,,,,,6aae3b1d0dd831229d482896,66a626ef09d4e21e1a8894ec,6735ed00d444e62ffaf1c1b3,2024-11-14_09h31.32.985,Tarea de género gramatical,2024.2.2,Win32,60.24096386,,,,,,,,,,,,,,,,,,,,,,,,608.6991,610.1796,a,1,[],[],[],[],[],[],[],0.8067,1,610.1798,610.6764,,,,,,269,MAS,CON,150,primo,,l,0.8067,,610.6765,610.6769,0.416666667,0.225260417,0,0,0,,0,235,235,268,1,,,,
,,,,,,6aae3b1d0dd831229d482896,66a626ef09d4e21e1a8894ec,6735ed00d444e62ffaf1c1b3,2024-11-14_09h31.32.985,Tarea de género gramatical,2024.2.2,Win32,60.24096386,,,,,,,,,,,,,,,,,,,,,,,,610.6805,611.7599,l,1,[],[],[],[],[],[],[],0.4068,1,611.7605,612.2579,,,,,,157,FEM,AGR,150,madre,la,a,0.4068,,612.2622,612.2655,0.416666667,0.225260417,0,0,0,,0,236,236,156,1,,,,
,,,,,,6aae3b1d0dd831229d482896,66a626ef09d4e21e1a8894ec,6735ed00d444e62ffaf1c1b3,2024-11-14_09h31.32.985,Tarea de género gramatical,2024.2.2,Win32,60.24096386,,,,,,,,,,,,,,,,,,,,,,,,612.2678,613.573,a,1,[],[],[],[],[],[],[],0.638,1,613.5733,614.0729,,,,,,215,MAS,CON,150,hueso,,l,0.638,,614.0731,614.0736,0.416666667,0.225260417,0,0,0,,0,237,237,214,1,,,,
,,,,,,6aae3b1d0dd831229d482896,66a626ef09d4e21e1a8894ec,6735ed00d444e62ffaf1c1b3,2024-11-14_09h31.32.985,Tarea de género gramatical,2024.2.2,Win32,60.24096386,,,,,,,,,,,,,,,,,,,,,,,,614.077,615.5893,a,1,[],[],[],[],[],[],[],0.8376,1,615.5896,616.0889,,,,,,17,MAS,CON,150,modo,,l,0.8376,,616.0891,616.0893,0.416666667,0.225260417,0,0,0,,0,238,238,16,1,,,,
,,,,,,6aae3b1d0dd831229d482896,66a626ef09d4e21e1a8894ec,6735ed00d444e62ffaf1c1b3,2024-11-14_09h31.32.985,Tarea de género gramatical,2024.2.2,Win32,60.24096386,,,,,,,,,,,,,,,,,,,,,,,,616.0926,617.3356,a,1,[],[],[],[],[],[],[],0.5649,1,617.3358,617.8361,,,,,,113,MAS,CON,150,toro,,l,0.5649,,617.8362,617.8369,0.416666667,0.225260417,0,0,0,,0,239,239,112,1,,,,
,,,,,,6aae3b1d0dd831229d482896,66a626ef09d4e21e1a8894ec,6735ed00d444e62ffaf1c1b3,2024-11-14_09h31.32.985,Tarea de género gramatical,2024.2.2,Win32,60.24096386,,,,,,,,,,,,,,,,,,,,,,,,617.8404,619.0184,l,1,[],[],[],[],[],[],[],0.5052,1,619.0189,619.5183,,,,,,67,FEM,AGR,150,miel,la,a,0.5052,,619.523,619.5253,0.416666667,0.225260417,0,0,0,,0,240,240,66,1,,,,
,,,,,,6aae3b1d0dd831229d482896,66a626ef09d4e21e1a8894ec,6735ed00d444e62ffaf1c1b3,2024-11-14_09h31.32.985,Tarea de género gramatical,2024.2.2,Win32,60.24096386,,,,,,,,,,,,,,,,,,,,,,,,619.5276,620.8837,a,1,[],[],[],[],[],[],[],0.6853,1,620.8841,621.3839,,,,,,414,MAS,DIS,150,sótano,la,l,0.6853,,621.384,621.3843,0.416666667,0.225260417,0,0,0,,0,241,241,413,1,,,,
,,,,,,6aae3b1d0dd831229d482896,66a626ef09d4e21e1a8894ec,6735ed00d444e62ffaf1c1b3,2024-11-14_09h31.32.985,Tarea de género gramatical,2024.2.2,Win32,60.24096386,,,,,,,,,,,,,,,,,,,,,,,,621.3875,622.7316,a,1,[],[],[],[],[],[],[],0.6714,1,622.732,623.232,,,,,,282,MAS,DIS,150,bolso,la,l,0.6714,,623.2321,623.2323,0.416666667,0.225260417,0,0,0,,0,242,242,281,1,,,,
,,,,,,6aae3b1d0dd831229d482896,66a626ef09d4e21e1a8894ec,6735ed00d444e62ffaf1c1b3,2024-11-14_09h31.32.985,Tarea de género gramatical,2024.2.2,Win32,60.24096386,,,,,,,,,,,,,,,,,,,,,,,,623.2359,624.6808,a,1,[],[],[],[],[],[],[],0.7747,1,624.6809,625.1779,,,,,,238,MAS,AGR,150,norte,el,l,0.7747,,625.178,625.1781,0.416666667,0.225260417,0,0,0,,0,243,243,237,1,,,,
,,,,,,6aae3b1d0dd831229d482896,66a626ef09d4e21e1a8894ec,6735ed00d444e62ffaf1c1b3,2024-11-14_09h31.32.985,Tarea de género gramatical,2024.2.2,Win32,60.24096386,,,,,,,,,,,,,,,,,,,,,,,,625.1793,626.3789,a,1,[],[],[],[],[],[],[],0.52,1,626.379,626.8777,,,,,,347,MAS,CON,150,cuello,,l,0.52,,626.8778,626.8781,0.416666667,0.225260417,0,0,0,,0,244,244,346,1,,,,
,,,,,,6aae3b1d0dd831229d482896,66a626ef09d4e21e1a8894ec,6735ed00d444e62ffaf1c1b3,2024-11-14_09h31.32.985,Tarea de género gramatical,2024.2.2,Win32,60.24096386,,,,,,,,,,,,,,,,,,,,,,,,626.8817,628.1939,a,1,[],[],[],[],[],[],[],0.6396,1,628.1942,628.6937,,,,,,204,MAS,DIS,150,papel,la,l,0.6396,,628.6981,628.7003,0.416666667,0.225260417,0,0,0,,0,245,245,203,1,,,,
,,,,,,6aae3b1d0dd831229d482896,66a626ef09d4e21e1a8894ec,6735ed00d444e62ffaf1c1b3,2024-11-14_09h31.32.985,Tarea de género gramatical,2024.2.2,Win32,60.24096386,,,,,,,,,,,,,,,,,,,,,,,,628.7027,630.2433,l,1,[],[],[],[],[],[],[],0.8753,1,630.2435,630.7411,,,,,,291,FEM,DIS,150,aguja,el,a,0.8753,,630.7412,630.7416,0.416666667,0.225260417,0,0,0,,0,246,246,290,1,,,,
,,,,,,6aae3b1d0dd831229d482896,66a626ef09d4e21e1a8894ec,6735ed00d444e62ffaf1c1b3,2024-11-14_09h31.32.985,Tarea de género gramatical,2024.2.2,Win32,60.24096386,,,,,,,,,,,,,,,,,,,,,,,,630.7451,632.0234,a,1,[],[],[],[],[],[],[],0.6015,1,632.0236,632.5229,,,,,,400,MAS,AGR,150,barrio,el,l,0.6015,,632.5229,632.5232,0.416666667,0.225260417,0,0,0,,0,247,247,399,1,,,,
,,,,,,6aae3b1d0dd831229d482896,66a626ef09d4e21e1a8894ec,6735ed00d444e62ffaf1c1b3,2024-11-14_09h31.32.985,Tarea de género gramatical,2024.2.2,Win32,60.24096386,,,,,,,,,,,,,,,,,,,,,,,,632.5266,633.805,a,1,[],[],[],[],[],[],[],0.6034,1,633.8052,634.3042,,,,,,287,MAS,CON,150,plato,,l,0.6034,,634.3044,634.3046,0.416666667,0.225260417,0,0,0,,0,248,248,286,1,,,,
,,,,,,6aae3b1d0dd831229d482896,66a626ef09d4e21e1a8894ec,6735ed00d444e62ffaf1c1b3,2024-11-14_09h31.32.985,Tarea de género gramatical,2024.2.2,Win32,60.24096386,,,,,,,,,,,,,,,,,,,,,,,,634.308,635.5033,a,1,[],[],[],[],[],[],[],0.5173,1,635.5036,636.0026,,,,,,310,MAS,AGR,150,nombre,el,l,0.5173,,636.007,636.0095,0.416666667,0.225260417,0,0,0,,0,249,249,309,1,,,,
,,,,,,6aae3b1d0dd831229d482896,66a626ef09d4e21e1a8894ec,6735ed00d444e62ffaf1c1b3,2024-11-14_09h31.32.985,Tarea de género gramatical,2024.2.2,Win32,60.24096386,,,,,,,,,,,,,,,,,,,,,,,,636.0121,637.4185,a,1,[],[],[],[],[],[],[],0.7344,1,637.4187,637.9175,,,,,,408,MAS,DIS,150,cheque,la,l,0.7344,,637.9176,637.9179,0.416666667,0.225260417,0,0,0,,0,250,250,407,1,,,,
,,,,,,6aae3b1d0dd831229d482896,66a626ef09d4e21e1a8894ec,6735ed00d444e62ffaf1c1b3,2024-11-14_09h31.32.985,Tarea de género gramatical,2024.2.2,Win32,60.24096386,,,,,,,,,,,,,,,,,,,,,,,,637.9214,639.1164,a,1,[],[],[],[],[],[],[],0.5185,1,639.1166,639.6155,,,,,,431,MAS,CON,150,veneno,,l,0.5185,,639.6156,639.6159,0.416666667,0.225260417,0,0,0,,0,251,251,430,1,,,,
