counterbalancing_condition,consent_prescreening.block_1/declare_consent,consent_prescreening.block_1/age_years,consent_prescreening.block_1/gender,consent_prescreening.block_1/language_disorder,consent_prescreening.block_1/first_language,PROLIFIC_PID,STUDY_ID,SESSION_ID,date,expName,psychopyVersion,OS,frameRate,check_prescreening_answers.started,check_prescreening_answers.stopped,Instructions.started,Instructions.stopped,instr_done_keyboard.keys,instr_done_keyboard.rt,instr_done_keyboard.duration,instr_done_touch.x,instr_done_touch.y,instr_done_touch.leftButton,instr_done_touch.midButton,instr_done_touch.rightButton,instruction_pages.thisRepN,instruction_pages.thisTrialN,instruction_pages.thisN,instruction_pages.thisIndex,instruction_pages.ran,pageN,phase,instruct_text,has_image,instruct_image,instr_done_touch.clicked_name,presentTrial.started,presentTrial.stopped,response.keys,response.corr,touch_resp.x,touch_resp.y,touch_resp.leftButton,touch_resp.midButton,touch_resp.rightButton,touch_resp.time,touch_resp.clicked_name,rt,corr,feedback.started,feedback.stopped,practice_trials.thisRepN,practice_trials.thisTrialN,practice_trials.thisN,practice_trials.thisIndex,practice_trials.ran,TrialID,StimulusType,Condition,PrimeDuration,Prime,Flanker,corrAns,response.rt,response.duration,Break.started,Break.stopped,break_done_touch.x,break_done_touch.y,break_done_touch.leftButton,break_done_touch.midButton,break_done_touch.rightButton,break_done_keyboard.keys,experiment_trials.thisRepN,experiment_trials.thisTrialN,experiment_trials.thisN,experiment_trials.thisIndex,experiment_trials.ran,break_done_keyboard.rt,break_done_keyboard.duration,End.started,End.stopped
0,"[""over_18"",""comfortable"",""read_info"",""consent_given""]",23,M,"[""none""]","[""spanish""]",6c2ef6cacd3a4c41d06874e7,66a626ef09d4e21e1a8894ec,6735ecd7509f9eadc38d427d,2024-11-14_06h28.58.731,Tarea de género gramatical,2024.2.2,Win32,59.88023952,,,,,,,,,,,,,,,,,,,,,,,,,,,,,,,,,,,,,,,,,,,,,,,,,,,,,,,,,,,,,,,,,,,,,
,,,,,,6c2ef6cacd3a4c41d06874e7,66a626ef09d4e21e1a8894ec,6735ecd7509f9eadc38d427d,2024-11-14_06h28.58.731,Tarea de género gramatical,2024.2.2,Win32,59.88023952,54.374,54.3742,,,,,,,,,,,,,,,,,,,,,,,,,,,,,,,,,,,,,,,,,,,,,,,,,,,,,,,,,,,,,,,,,,,
,,,,,,6c2ef6cacd3a4c41d06874e7,66a626ef09d4e21e1a8894ec,6735ecd7509f9eadc38d427d,2024-11-14_06h28.58.731,Tarea de género gramatical,2024.2.2,Win32,59.88023952,,,54.4111,69.4379,space,14.9526,,-0.300925926,-0.332407422,0,0,0,0,0,0,0,1,1,instructions,"INSTRUCCIONES
Va a realizar una prueba de selección gramatical. Desde el comienzo de la prueba mire siempre al centro de la pantalla. Al cabo de un momento, aparecerán palabras. La tarea consiste en determinar si la palabra del centro (siempre será un sustantivo), pertenece al género masculino o femenino.

Pulse la tecla ESPACIO o toque el botón de abajo para continuar.",0,keyboardresponseMF.png,,,,,,,,,,,,,,,,,,,,,,,,,,,,,,,,,,,,,,,,,,,,,,,
,,,,,,6c2ef6cacd3a4c41d06874e7,66a626ef09d4e21e1a8894ec,6735ecd7509f9eadc38d427d,2024-11-14_06h28.58.731,Tarea de género gramatical,2024.2.2,Win32,59.88023952,,,69.443,96.1035,space,26.5616,,-0.300925926,-0.332407422,0,0,0,0,1,1,1,1,2,instructions,"Si su dispositivo tiene teclado, pulse la tecla ""A"" para las palabras en masculino (por ejemplo: ""arroz"") y la tecla ""L"" para las palabras en femenino (por ejemplo: ""mano"").
Pulse la tecla ESPACIO o toque el botón de abajo para continuar.",1,keyboardresponseMF.png,,,,,,,,,,,,,,,,,,,,,,,,,,,,,,,,,,,,,,,,,,,,,,,
,,,,,,6c2ef6cacd3a4c41d06874e7,66a626ef09d4e21e1a8894ec,6735ecd7509f9eadc38d427d,2024-11-14_06h28.58.731,Tarea de género gramatical,2024.2.2,Win32,59.88023952,,,96.1068,101.7368,,,,-0.122222194,-0.376851894,1,0,0,0,2,2,2,1,3,instructions,"Si utiliza un dispositivo sólo táctil, colóquelo en horizontal y utilice los botones de la pantalla. No utilice el ratón.
Pulse la tecla ESPACIO o toque el botón de abajo para continuar.",2,touchresponseMF.png,instr_done_button,,,,,,,,,,,,,,,,,,,,,,,,,,,,,,,,,,,,,,,,,,,,,,
,,,,,,6c2ef6cacd3a4c41d06874e7,66a626ef09d4e21e1a8894ec,6735ecd7509f9eadc38d427d,2024-11-14_06h28.58.731,Tarea de género gramatical,2024.2.2,Win32,59.88023952,,,101.7409,122.2031,space,20.4457,,-0.52870369,-0.045370384,0,0,0,0,3,3,3,1,4,instructions,"Es muy importante que responda con la mayor rapidez y precisión posibles, ya que cada cadena de letras sólo estará en pantalla durante un instante. Si no responde en ese tiempo, aparecerá el mensaje ""Muy lento"" y el experimento pasará a la siguiente palabra. Los primeros 15 intentos serán de práctica y habrá dos descansos durante la prueba.
Pulse la tecla ESPACIO o toque el botón de abajo para iniciar la parte de práctica.",0,keyboardresponseMF.png,,,,,,,,,,,,,,,,,,,,,,,,,,,,,,,,,,,,,,,,,,,,,,,
,,,,,,6c2ef6cacd3a4c41d06874e7,66a626ef09d4e21e1a8894ec,6735ecd7509f9eadc38d427d,2024-11-14_06h28.58.731,Tarea de género gramatical,2024.2.2,Win32,59.88023952,,,,,,,,,,,,,,,,,,,,,,,,122.2312,124.8695,,0,[],[],[],[],[],[],[],,-1,124.8701,125.3693,0,0,0,2,1,2003,FEM,DIS,150,daga,el,a,,,,,,,,,,,,,,,,,,,
,,,,,,6c2ef6cacd3a4c41d06874e7,66a626ef09d4e21e1a8894ec,6735ecd7509f9eadc38d427d,2024-11-14_06h28.58.731,Tarea de género gramatical,2024.2.2,Win32,59.88023952,,,,,,,,,,,,,,,,,,,,,,,,125.372,127.2861,l,1,[],[],[],[],[],[],[],1.2341,1,127.3048,127.7859,0,1,1,0,1,2001,FEM,AGR,150,nuca,la,a,1.2341,,,,,,,,,,,,,,,,,,
,,,,,,6c2ef6cacd3a4c41d06874e7,66a626ef09d4e21e1a8894ec,6735ecd7509f9eadc38d427d,2024-11-14_06h28.58.731,Tarea de género gramatical,2024.2.2,Win32,59.88023952,,,,,,,,,,,,,,,,,,,,,,,,127.7888,130.4358,,0,[],[],[],[],[],[],[],1.2341,-1,130.4369,130.936,0,2,2,9,1,2010,MAS,AGR,150,vecino,el,l,,,,,,,,,,,,,,,,,,,
,,,,,,6c2ef6cacd3a4c41d06874e7,66a626ef09d4e21e1a8894ec,6735ecd7509f9eadc38d427d,2024-11-14_06h28.58.731,Tarea de género gramatical,2024.2.2,Win32,59.88023952,,,,,,,,,,,,,,,,,,,,,,,,130.9383,132.8357,l,1,[],[],[],[],[],[],[],1.2271,1,132.837,133.3357,0,3,3,5,1,2006,FEM,DIS,150,serie,el,a,1.2271,,,,,,,,,,,,,,,,,,
,,,,,,6c2ef6cacd3a4c41d06874e7,66a626ef09d4e21e1a8894ec,6735ecd7509f9eadc38d427d,2024-11-14_06h28.58.731,Tarea de género gramatical,2024.2.2,Win32,59.88023952,,,,,,,,,,,,,,,,,,,,,,,,133.3383,135.2525,l,0,[],[],[],[],[],[],[],1.2341,0,135.2542,135.7524,0,4,4,13,1,2014,MAS,CON,150,siglo,,l,1.2341,,,,,,,,,,,,,,,,,,
,,,,,,6c2ef6cacd3a4c41d06874e7,66a626ef09d4e21e1a8894ec,6735ecd7509f9eadc38d427d,2024-11-14_06h28.58.731,Tarea de género gramatical,2024.2.2,Win32,59.88023952,,,,,,,,,,,,,,,,,,,,,,,,135.7541,137.4863,l,0,[],[],[],[],[],[],[],1.0572,0,137.4866,137.986,0,5,5,10,1,2011,MAS,CON,150,canal,,l,1.0572,,,,,,,,,,,,,,,,,,
,,,,,,6c2ef6cacd3a4c41d06874e7,66a626ef09d4e21e1a8894ec,6735ecd7509f9eadc38d427d,2024-11-14_06h28.58.731,Tarea de género gramatical,2024.2.2,Win32,59.88023952,,,,,,,,,,,,,,,,,,,,,,,,137.9881,139.4191,l,1,[],[],[],[],[],[],[],0.7511,1,139.4202,139.9191,0,6,6,4,1,2005,FEM,CON,150,placa,,a,0.7511,,,,,,,,,,,,,,,,,,
,,,,,,6c2ef6cacd3a4c41d06874e7,66a626ef09d4e21e1a8894ec,6735ecd7509f9eadc38d427d,2024-11-14_06h28.58.731,Tarea de género gramatical,2024.2.2,Win32,59.88023952,,,,,,,,,,,,,,,,,,,,,,,,139.9216,142.5689,,0,[],[],[],[],[],[],[],0.7511,-1,142.5703,143.0695,0,7,7,14,1,2015,MAS,DIS,150,robot,la,l,,,,,,,,,,,,,,,,,,,
,,,,,,6c2ef6cacd3a4c41d06874e7,66a626ef09d4e21e1a8894ec,6735ecd7509f9eadc38d427d,2024-11-14_06h28.58.731,Tarea de género gramatical,2024.2.2,Win32,59.88023952,,,,,,,,,,,,,,,,,,,,,,,,143.0709,145.7188,,0,[],[],[],[],[],[],[],0.7511,-1,145.719,146.2189,0,8,8,12,1,2013,MAS,AGR,150,acero,el,l,,,,,,,,,,,,,,,,,,,
,,,,,,6c2ef6cacd3a4c41d06874e7,66a626ef09d4e21e1a8894ec,6735ecd7509f9eadc38d427d,2024-11-14_06h28.58.731,Tarea de género gramatical,2024.2.2,Win32,59.88023952,,,,,,,,,,,,,,,,,,,,,,,,146.2209,147.8689,l,0,[],[],[],[],[],[],[],0.9692,0,147.8706,148.3691,0,9,9,11,1,2012,MAS,DIS,150,clima,la,l,0.9692,,,,,,,,,,,,,,,,,,
,,,,,,6c2ef6cacd3a4c41d06874e7,66a626ef09d4e21e1a8894ec,6735ecd7509f9eadc38d427d,2024-11-14_06h28.58.731,Tarea de género gramatical,2024.2.2,Win32,59.88023952,,,,,,,,,,,,,,,,,,,,,,,,148.3706,150.2521,l,1,[],[],[],[],[],[],[],1.2059,1,150.2534,150.7523,0,10,10,7,1,2008,FEM,CON,150,siesta,,a,1.2059,,,,,,,,,,,,,,,,,,
,,,,,,6c2ef6cacd3a4c41d06874e7,66a626ef09d4e21e1a8894ec,6735ecd7509f9eadc38d427d,2024-11-14_06h28.58.731,Tarea de género gramatical,2024.2.2,Win32,59.88023952,,,,,,,,,,,,,,,,,,,,,,,,150.754,152.302,l,0,[],[],[],[],[],[],[],0.8718,0,152.3034,152.8023,0,11,11,8,1,2009,MAS,DIS,150,puerto,la,l,0.8718,,,,,,,,,,,,,,,,,,
,,,,,,6c2ef6cacd3a4c41d06874e7,66a626ef09d4e21e1a8894ec,6735ecd7509f9eadc38d427d,2024-11-14_06h28.58.731,Tarea de género gramatical,2024.2.2,Win32,59.88023952,,,,,,,,,,,,,,,,,,,,,,,,152.8039,154.6189,l,1,[],[],[],[],[],[],[],1.1339,1,154.6203,155.1187,0,12,12,6,1,2007,FEM,AGR,150,navaja,la,a,1.1339,,,,,,,,,,,,,,,,,,
,,,,,,6c2ef6cacd3a4c41d06874e7,66a626ef09d4e21e1a8894ec,6735ecd7509f9eadc38d427d,2024-11-14_06h28.58.731,Tarea de género gramatical,2024.2.2,Win32,59.88023952,,,,,,,,,,,,,,,,,,,,,,,,155.1203,156.369,l,1,[],[],[],[],[],[],[],0.5701,1,156.3691,156.8687,0,13,13,3,1,2004,FEM,AGR,150,venta,la,a,0.5701,,,,,,,,,,,,,,,,,,
,,,,,,6c2ef6cacd3a4c41d06874e7,66a626ef09d4e21e1a8894ec,6735ecd7509f9eadc38d427d,2024-11-14_06h28.58.731,Tarea de género gramatical,2024.2.2,Win32,59.88023952,,,,,,,,,,,,,,,,,,,,,,,,156.8703,158.3521,l,1,[],[],[],[],[],[],[],0.8068,1,158.3523,158.8521,0,14,14,1,1,2002,FEM,CON,150,pala,,a,0.8068,,,,,,,,,,,,,,,,,,
,,,,,,6c2ef6cacd3a4c41d06874e7,66a626ef09d4e21e1a8894ec,6735ecd7509f9eadc38d427d,2024-11-14_06h28.58.731,Tarea de género gramatical,2024.2.2,Win32,59.88023952,,,163.9731,171.7523,space,7.7606,,-0.444444444,-0.068518533,0,0,0,,,,,,,,,,,,171.8318,173.1685,a,0,[],[],[],[],[],[],[],0.6756,0,173.1694,173.6686,,,,,,297,FEM,DIS,150,manta,el,a,0.6756,,173.6691,173.676,-0.444444444,-0.068518533,0,0,0,,0,0,0,296,1,,,,
,,,,,,6c2ef6cacd3a4c41d06874e7,66a626ef09d4e21e1a8894ec,6735ecd7509f9eadc38d427d,2024-11-14_06h28.58.731,Tarea de género gramatical,2024.2.2,Win32,59.88023952,,,,,,,,,,,,,,,,,,,,,,,,173.6781,175.3853,a,0,[],[],[],[],[],[],[],1.0411,0,175.3855,175.8852,,,,,,417,FEM,DIS,150,cabaña,el,a,1.0411,,175.8853,175.8855,-0.444444444,-0.068518533,0,0,0,,0,1,1,416,1,,,,
,,,,,,6c2ef6cacd3a4c41d06874e7,66a626ef09d4e21e1a8894ec,6735ecd7509f9eadc38d427d,2024-11-14_06h28.58.731,Tarea de género gramatical,2024.2.2,Win32,59.88023952,,,,,,,,,,,,,,,,,,,,,,,,175.8868,177.5352,a,1,[],[],[],[],[],[],[],0.9709,1,177.5364,178.0352,,,,,,94,MAS,AGR,150,cabo,el,l,0.9709,,178.0371,178.0383,-0.444444444,-0.068518533,0,0,0,,0,2,2,93,1,,,,
,,,,,,6c2ef6cacd3a4c41d06874e7,66a626ef09d4e21e1a8894ec,6735ecd7509f9eadc38d427d,2024-11-14_06h28.58.731,Tarea de género gramatical,2024.2.2,Win32,59.88023952,,,,,,,,,,,,,,,,,,,,,,,,178.0395,179.1688,a,1,[],[],[],[],[],[],[],0.4627,1,179.1689,179.6686,,,,,,286,MAS,AGR,150,reino,el,l,0.4627,,179.6687,179.6688,-0.444444444,-0.068518533,0,0,0,,0,3,3,285,1,,,,
,,,,,,6c2ef6cacd3a4c41d06874e7,66a626ef09d4e21e1a8894ec,6735ecd7509f9eadc38d427d,2024-11-14_06h28.58.731,Tarea de género gramatical,2024.2.2,Win32,59.88023952,,,,,,,,,,,,,,,,,,,,,,,,179.6702,180.7852,a,1,[],[],[],[],[],[],[],0.4427,1,180.7853,181.2852,,,,,,172,MAS,AGR,150,poder,el,l,0.4427,,181.2853,181.2855,-0.444444444,-0.068518533,0,0,0,,0,4,4,171,1,,,,
,,,,,,6c2ef6cacd3a4c41d06874e7,66a626ef09d4e21e1a8894ec,6735ecd7509f9eadc38d427d,2024-11-14_06h28.58.731,Tarea de género gramatical,2024.2.2,Win32,59.88023952,,,,,,,,,,,,,,,,,,,,,,,,181.2866,182.9521,a,1,[],[],[],[],[],[],[],0.9949,1,182.9522,183.4518,,,,,,95,MAS,CON,150,tomo,,l,0.9949,,183.4519,183.4521,-0.444444444,-0.068518533,0,0,0,,0,5,5,94,1,,,,
,,,,,,6c2ef6cacd3a4c41d06874e7,66a626ef09d4e21e1a8894ec,6735ecd7509f9eadc38d427d,2024-11-14_06h28.58.731,Tarea de género gramatical,2024.2.2,Win32,59.88023952,,,,,,,,,,,,,,,,,,,,,,,,183.4534,184.7352,l,0,[],[],[],[],[],[],[],0.6014,0,184.7364,185.2351,,,,,,96,MAS,DIS,150,pato,la,l,0.6014,,185.2371,185.2382,-0.444444444,-0.068518533,0,0,0,,0,6,6,95,1,,,,
,,,,,,6c2ef6cacd3a4c41d06874e7,66a626ef09d4e21e1a8894ec,6735ecd7509f9eadc38d427d,2024-11-14_06h28.58.731,Tarea de género gramatical,2024.2.2,Win32,59.88023952,,,,,,,,,,,,,,,,,,,,,,,,185.2393,187.0018,l,1,[],[],[],[],[],[],[],1.0863,1,187.0029,187.5017,,,,,,153,FEM,DIS,150,mujer,el,a,1.0863,,187.5018,187.502,-0.444444444,-0.068518533,0,0,0,,0,7,7,152,1,,,,
,,,,,,6c2ef6cacd3a4c41d06874e7,66a626ef09d4e21e1a8894ec,6735ecd7509f9eadc38d427d,2024-11-14_06h28.58.731,Tarea de género gramatical,2024.2.2,Win32,59.88023952,,,,,,,,,,,,,,,,,,,,,,,,187.5038,188.8018,l,1,[],[],[],[],[],[],[],0.6184,1,188.8019,189.3017,,,,,,91,FEM,AGR,150,hoja,la,a,0.6184,,189.3018,189.302,-0.444444444,-0.068518533,0,0,0,,0,8,8,90,1,,,,
,,,,,,6c2ef6cacd3a4c41d06874e7,66a626ef09d4e21e1a8894ec,6735ecd7509f9eadc38d427d,2024-11-14_06h28.58.731,Tarea de género gramatical,2024.2.2,Win32,59.88023952,,,,,,,,,,,,,,,,,,,,,,,,189.3032,190.9683,a,0,[],[],[],[],[],[],[],0.9895,0,190.9698,191.4683,,,,,,171,FEM,DIS,150,mitad,el,a,0.9895,,191.4684,191.4685,-0.444444444,-0.068518533,0,0,0,,0,9,9,170,1,,,,
,,,,,,6c2ef6cacd3a4c41d06874e7,66a626ef09d4e21e1a8894ec,6735ecd7509f9eadc38d427d,2024-11-14_06h28.58.731,Tarea de género gramatical,2024.2.2,Win32,59.88023952,,,,,,,,,,,,,,,,,,,,,,,,191.4699,192.8685,a,1,[],[],[],[],[],[],[],0.7173,1,192.8697,193.3685,,,,,,281,MAS,CON,150,actor,,l,0.7173,,193.3686,193.3687,-0.444444444,-0.068518533,0,0,0,,0,10,10,280,1,,,,
,,,,,,6c2ef6cacd3a4c41d06874e7,66a626ef09d4e21e1a8894ec,6735ecd7509f9eadc38d427d,2024-11-14_06h28.58.731,Tarea de género gramatical,2024.2.2,Win32,59.88023952,,,,,,,,,,,,,,,,,,,,,,,,193.3702,194.5017,l,1,[],[],[],[],[],[],[],0.4592,1,194.5019,195.0018,,,,,,343,FEM,AGR,150,trampa,la,a,0.4592,,195.0041,195.0051,-0.444444444,-0.068518533,0,0,0,,0,11,11,342,1,,,,
,,,,,,6c2ef6cacd3a4c41d06874e7,66a626ef09d4e21e1a8894ec,6735ecd7509f9eadc38d427d,2024-11-14_06h28.58.731,Tarea de género gramatical,2024.2.2,Win32,59.88023952,,,,,,,,,,,,,,,,,,,,,,,,195.0063,196.5183,a,1,[],[],[],[],[],[],[],0.84,1,196.5184,197.0185,,,,,,142,MAS,AGR,150,lodo,el,l,0.84,,197.0185,197.0187,-0.444444444,-0.068518533,0,0,0,,0,12,12,141,1,,,,
,,,,,,6c2ef6cacd3a4c41d06874e7,66a626ef09d4e21e1a8894ec,6735ecd7509f9eadc38d427d,2024-11-14_06h28.58.731,Tarea de género gramatical,2024.2.2,Win32,59.88023952,,,,,,,,,,,,,,,,,,,,,,,,197.0199,198.235,a,0,[],[],[],[],[],[],[],0.5346,0,198.2363,198.7348,,,,,,81,FEM,DIS,150,cima,el,a,0.5346,,198.7349,198.735,-0.444444444,-0.068518533,0,0,0,,0,13,13,80,1,,,,
,,,,,,6c2ef6cacd3a4c41d06874e7,66a626ef09d4e21e1a8894ec,6735ecd7509f9eadc38d427d,2024-11-14_06h28.58.731,Tarea de género gramatical,2024.2.2,Win32,59.88023952,,,,,,,,,,,,,,,,,,,,,,,,198.7363,200.1182,l,1,[],[],[],[],[],[],[],0.7033,1,200.1196,200.6184,,,,,,428,FEM,CON,150,jugada,,a,0.7033,,200.6185,200.6186,-0.444444444,-0.068518533,0,0,0,,0,14,14,427,1,,,,
,,,,,,6c2ef6cacd3a4c41d06874e7,66a626ef09d4e21e1a8894ec,6735ecd7509f9eadc38d427d,2024-11-14_06h28.58.731,Tarea de género gramatical,2024.2.2,Win32,59.88023952,,,,,,,,,,,,,,,,,,,,,,,,200.6203,202.0184,l,1,[],[],[],[],[],[],[],0.7199,1,202.0185,202.5182,,,,,,247,FEM,AGR,150,frase,la,a,0.7199,,202.5202,202.5213,-0.444444444,-0.068518533,0,0,0,,0,15,15,246,1,,,,
,,,,,,6c2ef6cacd3a4c41d06874e7,66a626ef09d4e21e1a8894ec,6735ecd7509f9eadc38d427d,2024-11-14_06h28.58.731,Tarea de género gramatical,2024.2.2,Win32,59.88023952,,,,,,,,,,,,,,,,,,,,,,,,202.5224,203.8515,l,1,[],[],[],[],[],[],[],0.6578,1,203.8516,204.3513,,,,,,284,FEM,CON,150,fruta,,a,0.6578,,204.3515,204.3515,-0.444444444,-0.068518533,0,0,0,,0,16,16,283,1,,,,
,,,,,,6c2ef6cacd3a4c41d06874e7,66a626ef09d4e21e1a8894ec,6735ecd7509f9eadc38d427d,2024-11-14_06h28.58.731,Tarea de género gramatical,2024.2.2,Win32,59.88023952,,,,,,,,,,,,,,,,,,,,,,,,204.353,205.7515,a,0,[],[],[],[],[],[],[],0.7174,0,205.7527,206.252,,,,,,405,FEM,DIS,150,parada,el,a,0.7174,,206.252,206.2522,-0.444444444,-0.068518533,0,0,0,,0,17,17,404,1,,,,
,,,,,,6c2ef6cacd3a4c41d06874e7,66a626ef09d4e21e1a8894ec,6735ecd7509f9eadc38d427d,2024-11-14_06h28.58.731,Tarea de género gramatical,2024.2.2,Win32,59.88023952,,,,,,,,,,,,,,,,,,,,,,,,206.2536,207.5849,l,1,[],[],[],[],[],[],[],0.652,1,207.5864,208.0849,,,,,,79,FEM,AGR,150,mina,la,a,0.652,,208.085,208.0851,-0.444444444,-0.068518533,0,0,0,,0,18,18,78,1,,,,
,,,,,,6c2ef6cacd3a4c41d06874e7,66a626ef09d4e21e1a8894ec,6735ecd7509f9eadc38d427d,2024-11-14_06h28.58.731,Tarea de género gramatical,2024.2.2,Win32,59.88023952,,,,,,,,,,,,,,,,,,,,,,,,208.0864,209.785,l,0,[],[],[],[],[],[],[],1.0244,0,209.7862,210.2849,,,,,,359,MAS,CON,150,bosque,,l,1.0244,,210.2849,210.2851,-0.444444444,-0.068518533,0,0,0,,0,19,19,358,1,,,,
,,,,,,6c2ef6cacd3a4c41d06874e7,66a626ef09d4e21e1a8894ec,6735ecd7509f9eadc38d427d,2024-11-14_06h28.58.731,Tarea de género gramatical,2024.2.2,Win32,59.88023952,,,,,,,,,,,,,,,,,,,,,,,,210.2862,211.8682,a,1,[],[],[],[],[],[],[],0.9104,1,211.8694,212.368,,,,,,47,MAS,CON,150,olor,,l,0.9104,,212.3699,212.3709,-0.444444444,-0.068518533,0,0,0,,0,20,20,46,1,,,,
,,,,,,6c2ef6cacd3a4c41d06874e7,66a626ef09d4e21e1a8894ec,6735ecd7509f9eadc38d427d,2024-11-14_06h28.58.731,Tarea de género gramatical,2024.2.2,Win32,59.88023952,,,,,,,,,,,,,,,,,,,,,,,,212.372,213.6523,a,1,[],[],[],[],[],[],[],0.6007,1,213.6524,214.1516,,,,,,167,MAS,CON,150,juego,,l,0.6007,,214.1516,214.1517,-0.444444444,-0.068518533,0,0,0,,0,21,21,166,1,,,,
,,,,,,6c2ef6cacd3a4c41d06874e7,66a626ef09d4e21e1a8894ec,6735ecd7509f9eadc38d427d,2024-11-14_06h28.58.731,Tarea de género gramatical,2024.2.2,Win32,59.88023952,,,,,,,,,,,,,,,,,,,,,,,,214.153,215.4025,a,1,[],[],[],[],[],[],[],0.5808,1,215.4026,215.9017,,,,,,160,MAS,AGR,150,señor,el,l,0.5808,,215.9017,215.9018,-0.444444444,-0.068518533,0,0,0,,0,22,22,159,1,,,,
,,,,,,6c2ef6cacd3a4c41d06874e7,66a626ef09d4e21e1a8894ec,6735ecd7509f9eadc38d427d,2024-11-14_06h28.58.731,Tarea de género gramatical,2024.2.2,Win32,59.88023952,,,,,,,,,,,,,,,,,,,,,,,,215.9031,217.2682,a,1,[],[],[],[],[],[],[],0.6908,1,217.2683,217.7681,,,,,,353,MAS,CON,150,verano,,l,0.6908,,217.7682,217.7683,-0.444444444,-0.068518533,0,0,0,,0,23,23,352,1,,,,
,,,,,,6c2ef6cacd3a4c41d06874e7,66a626ef09d4e21e1a8894ec,6735ecd7509f9eadc38d427d,2024-11-14_06h28.58.731,Tarea de género gramatical,2024.2.2,Win32,59.88023952,,,,,,,,,,,,,,,,,,,,,,,,217.7699,219.0849,l,1,[],[],[],[],[],[],[],0.634,1,219.0851,219.5848,,,,,,169,FEM,AGR,150,vista,la,a,0.634,,219.5867,219.5878,-0.444444444,-0.068518533,0,0,0,,0,24,24,168,1,,,,
,,,,,,6c2ef6cacd3a4c41d06874e7,66a626ef09d4e21e1a8894ec,6735ecd7509f9eadc38d427d,2024-11-14_06h28.58.731,Tarea de género gramatical,2024.2.2,Win32,59.88023952,,,,,,,,,,,,,,,,,,,,,,,,219.589,220.968,l,1,[],[],[],[],[],[],[],0.7129,1,220.9682,221.468,,,,,,236,FEM,CON,150,deuda,,a,0.7129,,221.4681,221.4684,-0.444444444,-0.068518533,0,0,0,,0,25,25,235,1,,,,
,,,,,,6c2ef6cacd3a4c41d06874e7,66a626ef09d4e21e1a8894ec,6735ecd7509f9eadc38d427d,2024-11-14_06h28.58.731,Tarea de género gramatical,2024.2.2,Win32,59.88023952,,,,,,,,,,,,,,,,,,,,,,,,221.4704,222.7013,a,1,[],[],[],[],[],[],[],0.5506,1,222.7015,223.2015,,,,,,216,MAS,DIS,150,éxito,la,l,0.5506,,223.2015,223.2016,-0.444444444,-0.068518533,0,0,0,,0,26,26,215,1,,,,
,,,,,,6c2ef6cacd3a4c41d06874e7,66a626ef09d4e21e1a8894ec,6735ecd7509f9eadc38d427d,2024-11-14_06h28.58.731,Tarea de género gramatical,2024.2.2,Win32,59.88023952,,,,,,,,,,,,,,,,,,,,,,,,223.2034,225.0512,a,1,[],[],[],[],[],[],[],1.1755,1,225.0514,225.551,,,,,,11,MAS,CON,150,país,,l,1.1755,,225.551,225.5511,-0.444444444,-0.068518533,0,0,0,,0,27,27,10,1,,,,
,,,,,,6c2ef6cacd3a4c41d06874e7,66a626ef09d4e21e1a8894ec,6735ecd7509f9eadc38d427d,2024-11-14_06h28.58.731,Tarea de género gramatical,2024.2.2,Win32,59.88023952,,,,,,,,,,,,,,,,,,,,,,,,225.5526,227.1681,a,1,[],[],[],[],[],[],[],0.9344,1,227.1682,227.6679,,,,,,131,MAS,CON,150,kilo,,l,0.9344,,227.668,227.6682,-0.444444444,-0.068518533,0,0,0,,0,28,28,130,1,,,,
,,,,,,6c2ef6cacd3a4c41d06874e7,66a626ef09d4e21e1a8894ec,6735ecd7509f9eadc38d427d,2024-11-14_06h28.58.731,Tarea de género gramatical,2024.2.2,Win32,59.88023952,,,,,,,,,,,,,,,,,,,,,,,,227.6693,228.7849,a,1,[],[],[],[],[],[],[],0.442,1,228.7851,229.2845,,,,,,251,MAS,CON,150,dueño,,l,0.442,,229.2865,229.2876,-0.444444444,-0.068518533,0,0,0,,0,29,29,250,1,,,,
,,,,,,6c2ef6cacd3a4c41d06874e7,66a626ef09d4e21e1a8894ec,6735ecd7509f9eadc38d427d,2024-11-14_06h28.58.731,Tarea de género gramatical,2024.2.2,Win32,59.88023952,,,,,,,,,,,,,,,,,,,,,,,,229.2892,230.9178,a,0,[],[],[],[],[],[],[],0.9513,0,230.919,231.4179,,,,,,411,FEM,DIS,150,actriz,el,a,0.9513,,231.4179,231.418,-0.444444444,-0.068518533,0,0,0,,0,30,30,410,1,,,,
,,,,,,6c2ef6cacd3a4c41d06874e7,66a626ef09d4e21e1a8894ec,6735ecd7509f9eadc38d427d,2024-11-14_06h28.58.731,Tarea de género gramatical,2024.2.2,Win32,59.88023952,,,,,,,,,,,,,,,,,,,,,,,,231.4193,233.1511,a,1,[],[],[],[],[],[],[],1.0628,1,233.1523,233.651,,,,,,282,MAS,DIS,150,bolso,la,l,1.0628,,233.6511,233.6511,-0.444444444,-0.068518533,0,0,0,,0,31,31,281,1,,,,
,,,,,,6c2ef6cacd3a4c41d06874e7,66a626ef09d4e21e1a8894ec,6735ecd7509f9eadc38d427d,2024-11-14_06h28.58.731,Tarea de género gramatical,2024.2.2,Win32,59.88023952,,,,,,,,,,,,,,,,,,,,,,,,233.6525,235.001,l,1,[],[],[],[],[],[],[],0.6729,1,235.0012,235.5012,,,,,,140,FEM,CON,150,mula,,a,0.6729,,235.5013,235.5014,-0.444444444,-0.068518533,0,0,0,,0,32,32,139,1,,,,
,,,,,,6c2ef6cacd3a4c41d06874e7,66a626ef09d4e21e1a8894ec,6735ecd7509f9eadc38d427d,2024-11-14_06h28.58.731,Tarea de género gramatical,2024.2.2,Win32,59.88023952,,,,,,,,,,,,,,,,,,,,,,,,235.5028,236.8346,a,1,[],[],[],[],[],[],[],0.6569,1,236.8347,237.3345,,,,,,53,MAS,CON,150,vaso,,l,0.6569,,237.3366,237.3377,-0.444444444,-0.068518533,0,0,0,,0,33,33,52,1,,,,
,,,,,,6c2ef6cacd3a4c41d06874e7,66a626ef09d4e21e1a8894ec,6735ecd7509f9eadc38d427d,2024-11-14_06h28.58.731,Tarea de género gramatical,2024.2.2,Win32,59.88023952,,,,,,,,,,,,,,,,,,,,,,,,237.3388,239.2676,l,1,[],[],[],[],[],[],[],1.2567,1,239.2678,239.7677,,,,,,165,FEM,DIS,150,amiga,el,a,1.2567,,239.7678,239.7679,-0.444444444,-0.068518533,0,0,0,,0,34,34,164,1,,,,
,,,,,,6c2ef6cacd3a4c41d06874e7,66a626ef09d4e21e1a8894ec,6735ecd7509f9eadc38d427d,2024-11-14_06h28.58.731,Tarea de género gramatical,2024.2.2,Win32,59.88023952,,,,,,,,,,,,,,,,,,,,,,,,239.7688,241.0676,a,1,[],[],[],[],[],[],[],0.6211,1,241.0677,241.5674,,,,,,119,MAS,CON,150,mito,,l,0.6211,,241.5674,241.5674,-0.444444444,-0.068518533,0,0,0,,0,35,35,118,1,,,,
,,,,,,6c2ef6cacd3a4c41d06874e7,66a626ef09d4e21e1a8894ec,6735ecd7509f9eadc38d427d,2024-11-14_06h28.58.731,Tarea de género gramatical,2024.2.2,Win32,59.88023952,,,,,,,,,,,,,,,,,,,,,,,,241.5682,243.0676,a,1,[],[],[],[],[],[],[],0.8174,1,243.0678,243.5678,,,,,,137,MAS,CON,150,coco,,l,0.8174,,243.5678,243.568,-0.444444444,-0.068518533,0,0,0,,0,36,36,136,1,,,,
,,,,,,6c2ef6cacd3a4c41d06874e7,66a626ef09d4e21e1a8894ec,6735ecd7509f9eadc38d427d,2024-11-14_06h28.58.731,Tarea de género gramatical,2024.2.2,Win32,59.88023952,,,,,,,,,,,,,,,,,,,,,,,,243.5694,244.9843,l,1,[],[],[],[],[],[],[],0.7444,1,244.9843,245.4843,,,,,,237,FEM,DIS,150,ducha,el,a,0.7444,,245.4844,245.4845,-0.444444444,-0.068518533,0,0,0,,0,37,37,236,1,,,,
,,,,,,6c2ef6cacd3a4c41d06874e7,66a626ef09d4e21e1a8894ec,6735ecd7509f9eadc38d427d,2024-11-14_06h28.58.731,Tarea de género gramatical,2024.2.2,Win32,59.88023952,,,,,,,,,,,,,,,,,,,,,,,,245.4858,246.901,a,1,[],[],[],[],[],[],[],0.7368,1,246.9011,247.4009,,,,,,120,MAS,DIS,150,puño,la,l,0.7368,,247.403,247.4041,-0.444444444,-0.068518533,0,0,0,,0,38,38,119,1,,,,
,,,,,,6c2ef6cacd3a4c41d06874e7,66a626ef09d4e21e1a8894ec,6735ecd7509f9eadc38d427d,2024-11-14_06h28.58.731,Tarea de género gramatical,2024.2.2,Win32,59.88023952,,,,,,,,,,,,,,,,,,,,,,,,247.4057,249.0013,l,1,[],[],[],[],[],[],[],0.9174,1,249.0014,249.5009,,,,,,133,FEM,AGR,150,joya,la,a,0.9174,,249.5009,249.5011,-0.444444444,-0.068518533,0,0,0,,0,39,39,132,1,,,,
,,,,,,6c2ef6cacd3a4c41d06874e7,66a626ef09d4e21e1a8894ec,6735ecd7509f9eadc38d427d,2024-11-14_06h28.58.731,Tarea de género gramatical,2024.2.2,Win32,59.88023952,,,,,,,,,,,,,,,,,,,,,,,,249.5023,250.768,l,1,[],[],[],[],[],[],[],0.5852,1,250.7682,251.2675,,,,,,200,FEM,CON,150,silla,,a,0.5852,,251.2676,251.2677,-0.444444444,-0.068518533,0,0,0,,0,40,40,199,1,,,,
,,,,,,6c2ef6cacd3a4c41d06874e7,66a626ef09d4e21e1a8894ec,6735ecd7509f9eadc38d427d,2024-11-14_06h28.58.731,Tarea de género gramatical,2024.2.2,Win32,59.88023952,,,,,,,,,,,,,,,,,,,,,,,,251.269,252.7182,l,1,[],[],[],[],[],[],[],0.778,1,252.7184,253.2178,,,,,,63,FEM,DIS,150,fila,el,a,0.778,,253.2178,253.218,-0.444444444,-0.068518533,0,0,0,,0,41,41,62,1,,,,
,,,,,,6c2ef6cacd3a4c41d06874e7,66a626ef09d4e21e1a8894ec,6735ecd7509f9eadc38d427d,2024-11-14_06h28.58.731,Tarea de género gramatical,2024.2.2,Win32,59.88023952,,,,,,,,,,,,,,,,,,,,,,,,253.2194,254.5177,a,1,[],[],[],[],[],[],[],0.6268,1,254.5179,255.0176,,,,,,370,MAS,AGR,150,seguro,el,l,0.6268,,255.0191,255.0201,-0.444444444,-0.068518533,0,0,0,,0,42,42,369,1,,,,
,,,,,,6c2ef6cacd3a4c41d06874e7,66a626ef09d4e21e1a8894ec,6735ecd7509f9eadc38d427d,2024-11-14_06h28.58.731,Tarea de género gramatical,2024.2.2,Win32,59.88023952,,,,,,,,,,,,,,,,,,,,,,,,255.0213,256.3842,l,1,[],[],[],[],[],[],[],0.6892,1,256.3843,256.8842,,,,,,205,FEM,AGR,150,reina,la,a,0.6892,,256.8843,256.8845,-0.444444444,-0.068518533,0,0,0,,0,43,43,204,1,,,,
,,,,,,6c2ef6cacd3a4c41d06874e7,66a626ef09d4e21e1a8894ec,6735ecd7509f9eadc38d427d,2024-11-14_06h28.58.731,Tarea de género gramatical,2024.2.2,Win32,59.88023952,,,,,,,,,,,,,,,,,,,,,,,,256.8858,258.2515,l,1,[],[],[],[],[],[],[],0.6868,1,258.2516,258.7507,,,,,,86,FEM,CON,150,cruz,,a,0.6868,,258.7508,258.7509,-0.444444444,-0.068518533,0,0,0,,0,44,44,85,1,,,,
,,,,,,6c2ef6cacd3a4c41d06874e7,66a626ef09d4e21e1a8894ec,6735ecd7509f9eadc38d427d,2024-11-14_06h28.58.731,Tarea de género gramatical,2024.2.2,Win32,59.88023952,,,,,,,,,,,,,,,,,,,,,,,,258.7523,260.1176,l,1,[],[],[],[],[],[],[],0.6842,1,260.1178,260.6175,,,,,,123,FEM,DIS,150,tela,el,a,0.6842,,260.6176,260.6177,-0.444444444,-0.068518533,0,0,0,,0,45,45,122,1,,,,
,,,,,,6c2ef6cacd3a4c41d06874e7,66a626ef09d4e21e1a8894ec,6735ecd7509f9eadc38d427d,2024-11-14_06h28.58.731,Tarea de género gramatical,2024.2.2,Win32,59.88023952,,,,,,,,,,,,,,,,,,,,,,,,260.619,261.9676,a,1,[],[],[],[],[],[],[],0.6774,1,261.9677,262.4675,,,,,,210,MAS,DIS,150,baile,la,l,0.6774,,262.4676,262.4677,-0.444444444,-0.068518533,0,0,0,,0,46,46,209,1,,,,
,,,,,,6c2ef6cacd3a4c41d06874e7,66a626ef09d4e21e1a8894ec,6735ecd7509f9eadc38d427d,2024-11-14_06h28.58.731,Tarea de género gramatical,2024.2.2,Win32,59.88023952,,,,,,,,,,,,,,,,,,,,,,,,262.469,263.934,a,1,[],[],[],[],[],[],[],0.786,1,263.9342,264.4342,,,,,,406,MAS,AGR,150,premio,el,l,0.786,,264.4357,264.4368,-0.444444444,-0.068518533,0,0,0,,0,47,47,405,1,,,,
,,,,,,6c2ef6cacd3a4c41d06874e7,66a626ef09d4e21e1a8894ec,6735ecd7509f9eadc38d427d,2024-11-14_06h28.58.731,Tarea de género gramatical,2024.2.2,Win32,59.88023952,,,,,,,,,,,,,,,,,,,,,,,,264.4379,265.7841,l,1,[],[],[],[],[],[],[],0.6676,1,265.7843,266.2841,,,,,,213,FEM,DIS,150,magia,el,a,0.6676,,266.2842,266.2843,-0.444444444,-0.068518533,0,0,0,,0,48,48,212,1,,,,
,,,,,,6c2ef6cacd3a4c41d06874e7,66a626ef09d4e21e1a8894ec,6735ecd7509f9eadc38d427d,2024-11-14_06h28.58.731,Tarea de género gramatical,2024.2.2,Win32,59.88023952,,,,,,,,,,,,,,,,,,,,,,,,266.2857,267.5173,l,1,[],[],[],[],[],[],[],0.5627,1,267.5174,268.0175,,,,,,121,FEM,AGR,150,pila,la,a,0.5627,,268.0176,268.0178,-0.444444444,-0.068518533,0,0,0,,0,49,49,120,1,,,,
,,,,,,6c2ef6cacd3a4c41d06874e7,66a626ef09d4e21e1a8894ec,6735ecd7509f9eadc38d427d,2024-11-14_06h28.58.731,Tarea de género gramatical,2024.2.2,Win32,59.88023952,,,,,,,,,,,,,,,,,,,,,,,,268.0192,269.3674,a,1,[],[],[],[],[],[],[],0.6709,1,269.3675,269.8676,,,,,,118,MAS,AGR,150,baúl,el,l,0.6709,,269.8676,269.8677,-0.444444444,-0.068518533,0,0,0,,0,50,50,117,1,,,,
,,,,,,6c2ef6cacd3a4c41d06874e7,66a626ef09d4e21e1a8894ec,6735ecd7509f9eadc38d427d,2024-11-14_06h28.58.731,Tarea de género gramatical,2024.2.2,Win32,59.88023952,,,,,,,,,,,,,,,,,,,,,,,,269.8689,271.0171,l,1,[],[],[],[],[],[],[],0.4779,1,271.0172,271.5172,,,,,,68,FEM,CON,150,pata,,a,0.4779,,271.5188,271.5198,-0.444444444,-0.068518533,0,0,0,,0,51,51,67,1,,,,
,,,,,,6c2ef6cacd3a4c41d06874e7,66a626ef09d4e21e1a8894ec,6735ecd7509f9eadc38d427d,2024-11-14_06h28.58.731,Tarea de género gramatical,2024.2.2,Win32,59.88023952,,,,,,,,,,,,,,,,,,,,,,,,271.521,273.1507,l,1,[],[],[],[],[],[],[],0.9553,1,273.1508,273.6507,,,,,,127,FEM,AGR,150,cuna,la,a,0.9553,,273.6508,273.6509,-0.444444444,-0.068518533,0,0,0,,0,52,52,126,1,,,,
,,,,,,6c2ef6cacd3a4c41d06874e7,66a626ef09d4e21e1a8894ec,6735ecd7509f9eadc38d427d,2024-11-14_06h28.58.731,Tarea de género gramatical,2024.2.2,Win32,59.88023952,,,,,,,,,,,,,,,,,,,,,,,,273.6521,275.1505,l,1,[],[],[],[],[],[],[],0.8261,1,275.1507,275.6505,,,,,,224,FEM,CON,150,arena,,a,0.8261,,275.6506,275.6507,-0.444444444,-0.068518533,0,0,0,,0,53,53,223,1,,,,
,,,,,,6c2ef6cacd3a4c41d06874e7,66a626ef09d4e21e1a8894ec,6735ecd7509f9eadc38d427d,2024-11-14_06h28.58.731,Tarea de género gramatical,2024.2.2,Win32,59.88023952,,,,,,,,,,,,,,,,,,,,,,,,275.6522,277.2006,l,1,[],[],[],[],[],[],[],0.8674,1,277.2008,277.7006,,,,,,13,FEM,AGR,150,hija,la,a,0.8674,,277.7007,277.7007,-0.444444444,-0.068518533,0,0,0,,0,54,54,12,1,,,,
,,,,,,6c2ef6cacd3a4c41d06874e7,66a626ef09d4e21e1a8894ec,6735ecd7509f9eadc38d427d,2024-11-14_06h28.58.731,Tarea de género gramatical,2024.2.2,Win32,59.88023952,,,,,,,,,,,,,,,,,,,,,,,,277.702,279.1838,l,1,[],[],[],[],[],[],[],0.8053,1,279.1839,279.6838,,,,,,206,FEM,CON,150,época,,a,0.8053,,279.6839,279.684,-0.444444444,-0.068518533,0,0,0,,0,55,55,205,1,,,,
,,,,,,6c2ef6cacd3a4c41d06874e7,66a626ef09d4e21e1a8894ec,6735ecd7509f9eadc38d427d,2024-11-14_06h28.58.731,Tarea de género gramatical,2024.2.2,Win32,59.88023952,,,,,,,,,,,,,,,,,,,,,,,,279.6853,280.8505,l,1,[],[],[],[],[],[],[],0.4832,1,280.8506,281.3503,,,,,,308,FEM,CON,150,semana,,a,0.4832,,281.3519,281.3531,-0.444444444,-0.068518533,0,0,0,,0,56,56,307,1,,,,
,,,,,,6c2ef6cacd3a4c41d06874e7,66a626ef09d4e21e1a8894ec,6735ecd7509f9eadc38d427d,2024-11-14_06h28.58.731,Tarea de género gramatical,2024.2.2,Win32,59.88023952,,,,,,,,,,,,,,,,,,,,,,,,281.3541,282.5172,l,1,[],[],[],[],[],[],[],0.4922,1,282.5173,283.017,,,,,,32,FEM,CON,150,caja,,a,0.4922,,283.0171,283.0172,-0.444444444,-0.068518533,0,0,0,,0,57,57,31,1,,,,
,,,,,,6c2ef6cacd3a4c41d06874e7,66a626ef09d4e21e1a8894ec,6735ecd7509f9eadc38d427d,2024-11-14_06h28.58.731,Tarea de género gramatical,2024.2.2,Win32,59.88023952,,,,,,,,,,,,,,,,,,,,,,,,283.0185,284.4171,l,1,[],[],[],[],[],[],[],0.7258,1,284.4172,284.9171,,,,,,445,FEM,AGR,150,bondad,la,a,0.7258,,284.9171,284.9173,-0.444444444,-0.068518533,0,0,0,,0,58,58,444,1,,,,
,,,,,,6c2ef6cacd3a4c41d06874e7,66a626ef09d4e21e1a8894ec,6735ecd7509f9eadc38d427d,2024-11-14_06h28.58.731,Tarea de género gramatical,2024.2.2,Win32,59.88023952,,,,,,,,,,,,,,,,,,,,,,,,284.9187,286.0507,l,1,[],[],[],[],[],[],[],0.4634,1,286.0508,286.5504,,,,,,303,FEM,DIS,150,maldad,el,a,0.4634,,286.5505,286.5506,-0.444444444,-0.068518533,0,0,0,,0,59,59,302,1,,,,
,,,,,,6c2ef6cacd3a4c41d06874e7,66a626ef09d4e21e1a8894ec,6735ecd7509f9eadc38d427d,2024-11-14_06h28.58.731,Tarea de género gramatical,2024.2.2,Win32,59.88023952,,,,,,,,,,,,,,,,,,,,,,,,286.552,287.7671,a,1,[],[],[],[],[],[],[],0.5413,1,287.7672,288.267,,,,,,149,MAS,CON,150,nudo,,l,0.5413,,288.2686,288.2697,-0.444444444,-0.068518533,0,0,0,,0,60,60,148,1,,,,
,,,,,,6c2ef6cacd3a4c41d06874e7,66a626ef09d4e21e1a8894ec,6735ecd7509f9eadc38d427d,2024-11-14_06h28.58.731,Tarea de género gramatical,2024.2.2,Win32,59.88023952,,,,,,,,,,,,,,,,,,,,,,,,288.2709,289.5672,a,1,[],[],[],[],[],[],[],0.6235,1,289.5673,290.0672,,,,,,4,MAS,AGR,150,hijo,el,l,0.6235,,290.0673,290.0674,-0.444444444,-0.068518533,0,0,0,,0,61,61,3,1,,,,
,,,,,,6c2ef6cacd3a4c41d06874e7,66a626ef09d4e21e1a8894ec,6735ecd7509f9eadc38d427d,2024-11-14_06h28.58.731,Tarea de género gramatical,2024.2.2,Win32,59.88023952,,,,,,,,,,,,,,,,,,,,,,,,290.0686,291.567,l,1,[],[],[],[],[],[],[],0.8234,1,291.5672,292.0671,,,,,,345,FEM,DIS,150,pierna,el,a,0.8234,,292.0672,292.0673,-0.444444444,-0.068518533,0,0,0,,0,62,62,344,1,,,,
,,,,,,6c2ef6cacd3a4c41d06874e7,66a626ef09d4e21e1a8894ec,6735ecd7509f9eadc38d427d,2024-11-14_06h28.58.731,Tarea de género gramatical,2024.2.2,Win32,59.88023952,,,,,,,,,,,,,,,,,,,,,,,,292.0688,293.3505,a,1,[],[],[],[],[],[],[],0.6058,1,293.3506,293.8505,,,,,,59,MAS,CON,150,lobo,,l,0.6058,,293.8505,293.8507,-0.444444444,-0.068518533,0,0,0,,0,63,63,58,1,,,,
,,,,,,6c2ef6cacd3a4c41d06874e7,66a626ef09d4e21e1a8894ec,6735ecd7509f9eadc38d427d,2024-11-14_06h28.58.731,Tarea de género gramatical,2024.2.2,Win32,59.88023952,,,,,,,,,,,,,,,,,,,,,,,,293.8519,295.2671,a,1,[],[],[],[],[],[],[],0.7373,1,295.2673,295.767,,,,,,432,MAS,DIS,150,océano,la,l,0.7373,,295.7671,295.7672,-0.444444444,-0.068518533,0,0,0,,0,64,64,431,1,,,,
,,,,,,6c2ef6cacd3a4c41d06874e7,66a626ef09d4e21e1a8894ec,6735ecd7509f9eadc38d427d,2024-11-14_06h28.58.731,Tarea de género gramatical,2024.2.2,Win32,59.88023952,,,,,,,,,,,,,,,,,,,,,,,,295.7684,296.9504,a,1,[],[],[],[],[],[],[],0.5077,1,296.9505,297.4503,,,,,,215,MAS,CON,150,hueso,,l,0.5077,,297.4519,297.453,-0.444444444,-0.068518533,0,0,0,,0,65,65,214,1,,,,
,,,,,,6c2ef6cacd3a4c41d06874e7,66a626ef09d4e21e1a8894ec,6735ecd7509f9eadc38d427d,2024-11-14_06h28.58.731,Tarea de género gramatical,2024.2.2,Win32,59.88023952,,,,,,,,,,,,,,,,,,,,,,,,297.454,298.617,l,1,[],[],[],[],[],[],[],0.4928,1,298.6172,299.117,,,,,,260,FEM,CON,150,barra,,a,0.4928,,299.117,299.1172,-0.444444444,-0.068518533,0,0,0,,0,66,66,259,1,,,,
,,,,,,6c2ef6cacd3a4c41d06874e7,66a626ef09d4e21e1a8894ec,6735ecd7509f9eadc38d427d,2024-11-14_06h28.58.731,Tarea de género gramatical,2024.2.2,Win32,59.88023952,,,,,,,,,,,,,,,,,,,,,,,,299.1185,300.417,a,1,[],[],[],[],[],[],[],0.6211,1,300.4171,300.9169,,,,,,419,MAS,CON,150,cuento,,l,0.6211,,300.9171,300.9171,-0.444444444,-0.068518533,0,0,0,,0,67,67,418,1,,,,
,,,,,,6c2ef6cacd3a4c41d06874e7,66a626ef09d4e21e1a8894ec,6735ecd7509f9eadc38d427d,2024-11-14_06h28.58.731,Tarea de género gramatical,2024.2.2,Win32,59.88023952,,,,,,,,,,,,,,,,,,,,,,,,300.9183,302.2337,l,1,[],[],[],[],[],[],[],0.6439,1,302.2338,302.7335,,,,,,116,FEM,CON,150,nube,,a,0.6439,,302.7336,302.7337,-0.444444444,-0.068518533,0,0,0,,0,68,68,115,1,,,,
,,,,,,6c2ef6cacd3a4c41d06874e7,66a626ef09d4e21e1a8894ec,6735ecd7509f9eadc38d427d,2024-11-14_06h28.58.731,Tarea de género gramatical,2024.2.2,Win32,59.88023952,,,,,,,,,,,,,,,,,,,,,,,,302.7356,304.4337,a,0,[],[],[],[],[],[],[],1.022,0,304.4347,304.9335,,,,,,387,FEM,DIS,150,página,el,a,1.022,,304.935,304.9361,-0.444444444,-0.068518533,0,0,0,,0,69,69,386,1,,,,
,,,,,,6c2ef6cacd3a4c41d06874e7,66a626ef09d4e21e1a8894ec,6735ecd7509f9eadc38d427d,2024-11-14_06h28.58.731,Tarea de género gramatical,2024.2.2,Win32,59.88023952,,,,,,,,,,,,,,,,,,,,,,,,304.9372,306.2835,l,1,[],[],[],[],[],[],[],0.668,1,306.2846,306.7834,,,,,,349,FEM,AGR,150,prensa,la,a,0.668,,306.7836,306.7837,-0.444444444,-0.068518533,0,0,0,,0,70,70,348,1,,,,
,,,,,,6c2ef6cacd3a4c41d06874e7,66a626ef09d4e21e1a8894ec,6735ecd7509f9eadc38d427d,2024-11-14_06h28.58.731,Tarea de género gramatical,2024.2.2,Win32,59.88023952,,,,,,,,,,,,,,,,,,,,,,,,306.785,308.1003,l,1,[],[],[],[],[],[],[],0.6392,1,308.1005,308.6003,,,,,,302,FEM,CON,150,cabeza,,a,0.6392,,308.6004,308.6005,-0.444444444,-0.068518533,0,0,0,,0,71,71,301,1,,,,
,,,,,,6c2ef6cacd3a4c41d06874e7,66a626ef09d4e21e1a8894ec,6735ecd7509f9eadc38d427d,2024-11-14_06h28.58.731,Tarea de género gramatical,2024.2.2,Win32,59.88023952,,,,,,,,,,,,,,,,,,,,,,,,308.602,310.1337,l,1,[],[],[],[],[],[],[],0.8518,1,310.1338,310.6337,,,,,,291,FEM,DIS,150,aguja,el,a,0.8518,,310.6337,310.6338,-0.444444444,-0.068518533,0,0,0,,0,72,72,290,1,,,,
,,,,,,6c2ef6cacd3a4c41d06874e7,66a626ef09d4e21e1a8894ec,6735ecd7509f9eadc38d427d,2024-11-14_06h28.58.731,Tarea de género gramatical,2024.2.2,Win32,59.88023952,,,,,,,,,,,,,,,,,,,,,,,,310.6358,312.0172,a,1,[],[],[],[],[],[],[],0.7005,1,312.0172,312.5168,,,,,,336,MAS,DIS,150,crimen,la,l,0.7005,,312.5169,312.517,-0.444444444,-0.068518533,0,0,0,,0,73,73,335,1,,,,
,,,,,,6c2ef6cacd3a4c41d06874e7,66a626ef09d4e21e1a8894ec,6735ecd7509f9eadc38d427d,2024-11-14_06h28.58.731,Tarea de género gramatical,2024.2.2,Win32,59.88023952,,,,,,,,,,,,,,,,,,,,,,,,312.5182,313.7,l,1,[],[],[],[],[],[],[],0.5007,1,313.7002,314.2001,,,,,,44,FEM,CON,150,zona,,a,0.5007,,314.2017,314.2028,-0.444444444,-0.068518533,0,0,0,,0,74,74,43,1,,,,
,,,,,,6c2ef6cacd3a4c41d06874e7,66a626ef09d4e21e1a8894ec,6735ecd7509f9eadc38d427d,2024-11-14_06h28.58.731,Tarea de género gramatical,2024.2.2,Win32,59.88023952,,,,,,,,,,,,,,,,,,,,,,,,314.204,315.5169,l,1,[],[],[],[],[],[],[],0.6431,1,315.517,316.0171,,,,,,333,FEM,DIS,150,locura,el,a,0.6431,,316.0173,316.0174,-0.444444444,-0.068518533,0,0,0,,0,75,75,332,1,,,,
,,,,,,6c2ef6cacd3a4c41d06874e7,66a626ef09d4e21e1a8894ec,6735ecd7509f9eadc38d427d,2024-11-14_06h28.58.731,Tarea de género gramatical,2024.2.2,Win32,59.88023952,,,,,,,,,,,,,,,,,,,,,,,,316.0191,317.4841,l,1,[],[],[],[],[],[],[],0.7839,1,317.4842,317.9832,,,,,,57,FEM,DIS,150,moda,el,a,0.7839,,317.9833,317.9834,-0.444444444,-0.068518533,0,0,0,,0,76,76,56,1,,,,
,,,,,,6c2ef6cacd3a4c41d06874e7,66a626ef09d4e21e1a8894ec,6735ecd7509f9eadc38d427d,2024-11-14_06h28.58.731,Tarea de género gramatical,2024.2.2,Win32,59.88023952,,,,,,,,,,,,,,,,,,,,,,,,317.9847,319.4334,a,1,[],[],[],[],[],[],[],0.7677,1,319.4335,319.9334,,,,,,268,MAS,AGR,150,truco,el,l,0.7677,,319.9335,319.9335,-0.444444444,-0.068518533,0,0,0,,0,77,77,267,1,,,,
,,,,,,6c2ef6cacd3a4c41d06874e7,66a626ef09d4e21e1a8894ec,6735ecd7509f9eadc38d427d,2024-11-14_06h28.58.731,Tarea de género gramatical,2024.2.2,Win32,59.88023952,,,,,,,,,,,,,,,,,,,,,,,,319.9349,321.1668,a,1,[],[],[],[],[],[],[],0.5543,1,321.1669,321.6666,,,,,,262,MAS,AGR,150,video,el,l,0.5543,,321.6682,321.6692,-0.444444444,-0.068518533,0,0,0,,0,78,78,261,1,,,,
,,,,,,6c2ef6cacd3a4c41d06874e7,66a626ef09d4e21e1a8894ec,6735ecd7509f9eadc38d427d,2024-11-14_06h28.58.731,Tarea de género gramatical,2024.2.2,Win32,59.88023952,,,,,,,,,,,,,,,,,,,,,,,,321.6703,323,l,1,[],[],[],[],[],[],[],0.6521,1,323.0001,323.4998,,,,,,326,FEM,CON,150,música,,a,0.6521,,323.5,323.5,-0.444444444,-0.068518533,0,0,0,,0,79,79,325,1,,,,
,,,,,,6c2ef6cacd3a4c41d06874e7,66a626ef09d4e21e1a8894ec,6735ecd7509f9eadc38d427d,2024-11-14_06h28.58.731,Tarea de género gramatical,2024.2.2,Win32,59.88023952,,,,,,,,,,,,,,,,,,,,,,,,323.5014,324.8167,l,1,[],[],[],[],[],[],[],0.6436,1,324.8168,325.3166,,,,,,117,FEM,DIS,150,raya,el,a,0.6436,,325.3167,325.3168,-0.444444444,-0.068518533,0,0,0,,0,80,80,116,1,,,,
,,,,,,6c2ef6cacd3a4c41d06874e7,66a626ef09d4e21e1a8894ec,6735ecd7509f9eadc38d427d,2024-11-14_06h28.58.731,Tarea de género gramatical,2024.2.2,Win32,59.88023952,,,,,,,,,,,,,,,,,,,,,,,,325.3182,326.4831,a,1,[],[],[],[],[],[],[],0.4843,1,326.4833,326.9831,,,,,,300,MAS,DIS,150,túnel,la,l,0.4843,,326.9832,326.9833,-0.444444444,-0.068518533,0,0,0,,0,81,81,299,1,,,,
,,,,,,6c2ef6cacd3a4c41d06874e7,66a626ef09d4e21e1a8894ec,6735ecd7509f9eadc38d427d,2024-11-14_06h28.58.731,Tarea de género gramatical,2024.2.2,Win32,59.88023952,,,,,,,,,,,,,,,,,,,,,,,,326.9848,328.1666,l,1,[],[],[],[],[],[],[],0.5019,1,328.1667,328.6664,,,,,,369,FEM,DIS,150,camisa,el,a,0.5019,,328.6665,328.6666,-0.444444444,-0.068518533,0,0,0,,0,82,82,368,1,,,,
,,,,,,6c2ef6cacd3a4c41d06874e7,66a626ef09d4e21e1a8894ec,6735ecd7509f9eadc38d427d,2024-11-14_06h28.58.731,Tarea de género gramatical,2024.2.2,Win32,59.88023952,,,,,,,,,,,,,,,,,,,,,,,,328.669,329.8339,l,1,[],[],[],[],[],[],[],0.4958,1,329.8341,330.3332,,,,,,392,FEM,CON,150,maleta,,a,0.4958,,330.3348,330.3358,-0.444444444,-0.068518533,0,0,0,,0,83,83,391,1,,,,
,,,,,,6c2ef6cacd3a4c41d06874e7,66a626ef09d4e21e1a8894ec,6735ecd7509f9eadc38d427d,2024-11-14_06h28.58.731,Tarea de género gramatical,2024.2.2,Win32,59.88023952,,,,,,,,,,,,,,,,,,,,,,,,330.337,331.5999,a,1,[],[],[],[],[],[],[],0.5846,1,331.6001,332.0999,,,,,,270,MAS,DIS,150,queso,la,l,0.5846,,332.1,332.1001,-0.444444444,-0.068518533,0,0,0,,0,84,84,269,1,,,,
,,,,,,6c2ef6cacd3a4c41d06874e7,66a626ef09d4e21e1a8894ec,6735ecd7509f9eadc38d427d,2024-11-14_06h28.58.731,Tarea de género gramatical,2024.2.2,Win32,59.88023952,,,,,,,,,,,,,,,,,,,,,,,,332.1015,333.4834,l,1,[],[],[],[],[],[],[],0.7055,1,333.4835,333.9832,,,,,,181,FEM,AGR,150,tarde,la,a,0.7055,,333.9833,333.9834,-0.444444444,-0.068518533,0,0,0,,0,85,85,180,1,,,,
,,,,,,6c2ef6cacd3a4c41d06874e7,66a626ef09d4e21e1a8894ec,6735ecd7509f9eadc38d427d,2024-11-14_06h28.58.731,Tarea de género gramatical,2024.2.2,Win32,59.88023952,,,,,,,,,,,,,,,,,,,,,,,,333.9846,335.1832,a,1,[],[],[],[],[],[],[],0.5236,1,335.1834,335.6831,,,,,,245,MAS,CON,150,turno,,l,0.5236,,335.6832,335.6833,-0.444444444,-0.068518533,0,0,0,,0,86,86,244,1,,,,
,,,,,,6c2ef6cacd3a4c41d06874e7,66a626ef09d4e21e1a8894ec,6735ecd7509f9eadc38d427d,2024-11-14_06h28.58.731,Tarea de género gramatical,2024.2.2,Win32,59.88023952,,,,,,,,,,,,,,,,,,,,,,,,335.6846,337.1331,l,1,[],[],[],[],[],[],[],0.7756,1,337.1333,337.6337,,,,,,195,FEM,DIS,150,pared,el,a,0.7756,,337.6356,337.6369,-0.444444444,-0.068518533,0,0,0,,0,87,87,194,1,,,,
,,,,,,6c2ef6cacd3a4c41d06874e7,66a626ef09d4e21e1a8894ec,6735ecd7509f9eadc38d427d,2024-11-14_06h28.58.731,Tarea de género gramatical,2024.2.2,Win32,59.88023952,,,,,,,,,,,,,,,,,,,,,,,,337.6381,338.9164,a,1,[],[],[],[],[],[],[],0.6069,1,338.9165,339.4163,,,,,,100,MAS,AGR,150,nido,el,l,0.6069,,339.4164,339.4165,-0.444444444,-0.068518533,0,0,0,,0,88,88,99,1,,,,
,,,,,,6c2ef6cacd3a4c41d06874e7,66a626ef09d4e21e1a8894ec,6735ecd7509f9eadc38d427d,2024-11-14_06h28.58.731,Tarea de género gramatical,2024.2.2,Win32,59.88023952,,,,,,,,,,,,,,,,,,,,,,,,339.4179,340.6163,l,1,[],[],[],[],[],[],[],0.5233,1,340.6166,341.1163,,,,,,242,FEM,CON,150,pizza,,a,0.5233,,341.1163,341.1165,-0.444444444,-0.068518533,0,0,0,,0,89,89,241,1,,,,
,,,,,,6c2ef6cacd3a4c41d06874e7,66a626ef09d4e21e1a8894ec,6735ecd7509f9eadc38d427d,2024-11-14_06h28.58.731,Tarea de género gramatical,2024.2.2,Win32,59.88023952,,,,,,,,,,,,,,,,,,,,,,,,341.1177,342.433,l,1,[],[],[],[],[],[],[],0.6351,1,342.4332,342.933,,,,,,422,FEM,CON,150,rutina,,a,0.6351,,342.9331,342.9332,-0.444444444,-0.068518533,0,0,0,,0,90,90,421,1,,,,
,,,,,,6c2ef6cacd3a4c41d06874e7,66a626ef09d4e21e1a8894ec,6735ecd7509f9eadc38d427d,2024-11-14_06h28.58.731,Tarea de género gramatical,2024.2.2,Win32,59.88023952,,,,,,,,,,,,,,,,,,,,,,,,342.9345,344.0998,a,1,[],[],[],[],[],[],[],0.4843,1,344.0998,344.5997,,,,,,442,MAS,AGR,150,cuadro,el,l,0.4843,,344.5998,344.5999,-0.444444444,-0.068518533,0,0,0,,0,91,91,441,1,,,,
,,,,,,6c2ef6cacd3a4c41d06874e7,66a626ef09d4e21e1a8894ec,6735ecd7509f9eadc38d427d,2024-11-14_06h28.58.731,Tarea de género gramatical,2024.2.2,Win32,59.88023952,,,,,,,,,,,,,,,,,,,,,,,,344.6011,345.9332,a,1,[],[],[],[],[],[],[],0.6509,1,345.9333,346.433,,,,,,178,MAS,AGR,150,punto,el,l,0.6509,,346.4345,346.4355,-0.444444444,-0.068518533,0,0,0,,0,92,92,177,1,,,,
,,,,,,6c2ef6cacd3a4c41d06874e7,66a626ef09d4e21e1a8894ec,6735ecd7509f9eadc38d427d,2024-11-14_06h28.58.731,Tarea de género gramatical,2024.2.2,Win32,59.88023952,,,,,,,,,,,,,,,,,,,,,,,,346.4366,347.6329,a,1,[],[],[],[],[],[],[],0.5285,1,347.633,348.1329,,,,,,227,MAS,CON,150,vuelo,,l,0.5285,,348.133,348.1331,-0.444444444,-0.068518533,0,0,0,,0,93,93,226,1,,,,
,,,,,,6c2ef6cacd3a4c41d06874e7,66a626ef09d4e21e1a8894ec,6735ecd7509f9eadc38d427d,2024-11-14_06h28.58.731,Tarea de género gramatical,2024.2.2,Win32,59.88023952,,,,,,,,,,,,,,,,,,,,,,,,348.1344,349.4331,a,1,[],[],[],[],[],[],[],0.6177,1,349.4333,349.933,,,,,,294,MAS,DIS,150,cable,la,l,0.6177,,349.933,349.9331,-0.444444444,-0.068518533,0,0,0,,0,94,94,293,1,,,,
,,,,,,6c2ef6cacd3a4c41d06874e7,66a626ef09d4e21e1a8894ec,6735ecd7509f9eadc38d427d,2024-11-14_06h28.58.731,Tarea de género gramatical,2024.2.2,Win32,59.88023952,,,,,,,,,,,,,,,,,,,,,,,,349.9343,351.0497,a,1,[],[],[],[],[],[],[],0.4394,1,351.0498,351.5496,,,,,,299,MAS,CON,150,rumbo,,l,0.4394,,351.5497,351.5498,-0.444444444,-0.068518533,0,0,0,,0,95,95,298,1,,,,
,,,,,,6c2ef6cacd3a4c41d06874e7,66a626ef09d4e21e1a8894ec,6735ecd7509f9eadc38d427d,2024-11-14_06h28.58.731,Tarea de género gramatical,2024.2.2,Win32,59.88023952,,,,,,,,,,,,,,,,,,,,,,,,351.5511,352.8661,l,1,[],[],[],[],[],[],[],0.6438,1,352.8662,353.366,,,,,,331,FEM,AGR,150,cárcel,la,a,0.6438,,353.3673,353.3682,-0.444444444,-0.068518533,0,0,0,,0,96,96,330,1,,,,
,,,,,,6c2ef6cacd3a4c41d06874e7,66a626ef09d4e21e1a8894ec,6735ecd7509f9eadc38d427d,2024-11-14_06h28.58.731,Tarea de género gramatical,2024.2.2,Win32,59.88023952,,,,,,,,,,,,,,,,,,,,,,,,353.3694,354.7997,a,1,[],[],[],[],[],[],[],0.7543,1,354.7998,355.2997,,,,,,424,MAS,AGR,150,rastro,el,l,0.7543,,355.2997,355.2998,-0.444444444,-0.068518533,0,0,0,,0,97,97,423,1,,,,
,,,,,,6c2ef6cacd3a4c41d06874e7,66a626ef09d4e21e1a8894ec,6735ecd7509f9eadc38d427d,2024-11-14_06h28.58.731,Tarea de género gramatical,2024.2.2,Win32,59.88023952,,,,,,,,,,,,,,,,,,,,,,,,355.3011,356.4328,a,1,[],[],[],[],[],[],[],0.4534,1,356.4329,356.9327,,,,,,400,MAS,AGR,150,barrio,el,l,0.4534,,356.9327,356.9329,-0.444444444,-0.068518533,0,0,0,,0,98,98,399,1,,,,
,,,,,,6c2ef6cacd3a4c41d06874e7,66a626ef09d4e21e1a8894ec,6735ecd7509f9eadc38d427d,2024-11-14_06h28.58.731,Tarea de género gramatical,2024.2.2,Win32,59.88023952,,,,,,,,,,,,,,,,,,,,,,,,356.9342,358.3661,l,1,[],[],[],[],[],[],[],0.7617,1,358.3662,358.866,,,,,,231,FEM,DIS,150,bruja,el,a,0.7617,,358.8661,358.8662,-0.444444444,-0.068518533,0,0,0,,0,99,99,230,1,,,,
,,,,,,6c2ef6cacd3a4c41d06874e7,66a626ef09d4e21e1a8894ec,6735ecd7509f9eadc38d427d,2024-11-14_06h28.58.731,Tarea de género gramatical,2024.2.2,Win32,59.88023952,,,,,,,,,,,,,,,,,,,,,,,,358.8685,360.2327,a,1,[],[],[],[],[],[],[],0.6856,1,360.2328,360.7327,,,,,,42,MAS,DIS,150,show,la,l,0.6856,,360.7328,360.7329,-0.444444444,-0.068518533,0,0,0,,0,100,100,41,1,,,,
,,,,,,6c2ef6cacd3a4c41d06874e7,66a626ef09d4e21e1a8894ec,6735ecd7509f9eadc38d427d,2024-11-14_06h28.58.731,Tarea de género gramatical,2024.2.2,Win32,59.88023952,,,,,,,,,,,,,,,,,,,,,,,,360.7343,362.266,a,1,[],[],[],[],[],[],[],0.8539,1,362.2661,362.7662,,,,,,384,MAS,DIS,150,pedazo,la,l,0.8539,,362.7675,362.7688,-0.444444444,-0.068518533,0,0,0,,0,101,101,383,1,,,,
,,,,,,6c2ef6cacd3a4c41d06874e7,66a626ef09d4e21e1a8894ec,6735ecd7509f9eadc38d427d,2024-11-14_06h28.58.731,Tarea de género gramatical,2024.2.2,Win32,59.88023952,,,,,,,,,,,,,,,,,,,,,,,,362.7702,363.9328,a,1,[],[],[],[],[],[],[],0.4845,1,363.9329,364.4326,,,,,,191,MAS,CON,150,dolor,,l,0.4845,,364.4327,364.4328,-0.444444444,-0.068518533,0,0,0,,0,102,102,190,1,,,,
,,,,,,6c2ef6cacd3a4c41d06874e7,66a626ef09d4e21e1a8894ec,6735ecd7509f9eadc38d427d,2024-11-14_06h28.58.731,Tarea de género gramatical,2024.2.2,Win32,59.88023952,,,,,,,,,,,,,,,,,,,,,,,,364.4341,365.5326,l,1,[],[],[],[],[],[],[],0.4176,1,365.5328,366.0326,,,,,,19,FEM,AGR,150,niña,la,a,0.4176,,366.0326,366.0327,-0.444444444,-0.068518533,0,0,0,,0,103,103,18,1,,,,
,,,,,,6c2ef6cacd3a4c41d06874e7,66a626ef09d4e21e1a8894ec,6735ecd7509f9eadc38d427d,2024-11-14_06h28.58.731,Tarea de género gramatical,2024.2.2,Win32,59.88023952,,,,,,,,,,,,,,,,,,,,,,,,366.034,367.5659,l,1,[],[],[],[],[],[],[],0.8536,1,367.566,368.0667,,,,,,243,FEM,DIS,150,salsa,el,a,0.8536,,368.0667,368.0668,-0.444444444,-0.068518533,0,0,0,,0,104,104,242,1,,,,
,,,,,,6c2ef6cacd3a4c41d06874e7,66a626ef09d4e21e1a8894ec,6735ecd7509f9eadc38d427d,2024-11-14_06h28.58.731,Tarea de género gramatical,2024.2.2,Win32,59.88023952,,,,,,,,,,,,,,,,,,,,,,,,368.0682,369.3163,a,1,[],[],[],[],[],[],[],0.568,1,369.3163,369.816,,,,,,288,MAS,DIS,150,grado,la,l,0.568,,369.8174,369.8185,-0.444444444,-0.068518533,0,0,0,,0,105,105,287,1,,,,
,,,,,,6c2ef6cacd3a4c41d06874e7,66a626ef09d4e21e1a8894ec,6735ecd7509f9eadc38d427d,2024-11-14_06h28.58.731,Tarea de género gramatical,2024.2.2,Win32,59.88023952,,,,,,,,,,,,,,,,,,,,,,,,369.8195,371.0994,a,1,[],[],[],[],[],[],[],0.6006,1,371.0995,371.5993,,,,,,394,MAS,AGR,150,examen,el,l,0.6006,,371.5994,371.5994,-0.444444444,-0.068518533,0,0,0,,0,106,106,393,1,,,,
,,,,,,6c2ef6cacd3a4c41d06874e7,66a626ef09d4e21e1a8894ec,6735ecd7509f9eadc38d427d,2024-11-14_06h28.58.731,Tarea de género gramatical,2024.2.2,Win32,59.88023952,,,,,,,,,,,,,,,,,,,,,,,,371.6008,372.916,a,1,[],[],[],[],[],[],[],0.637,1,372.9161,373.4161,,,,,,322,MAS,AGR,150,minuto,el,l,0.637,,373.4161,373.4163,-0.444444444,-0.068518533,0,0,0,,0,107,107,321,1,,,,
,,,,,,6c2ef6cacd3a4c41d06874e7,66a626ef09d4e21e1a8894ec,6735ecd7509f9eadc38d427d,2024-11-14_06h28.58.731,Tarea de género gramatical,2024.2.2,Win32,59.88023952,,,,,,,,,,,,,,,,,,,,,,,,373.4175,374.6826,a,1,[],[],[],[],[],[],[],0.5858,1,374.6827,375.1825,,,,,,317,MAS,CON,150,número,,l,0.5858,,375.1825,375.1826,-0.444444444,-0.068518533,0,0,0,,0,108,108,316,1,,,,
,,,,,,6c2ef6cacd3a4c41d06874e7,66a626ef09d4e21e1a8894ec,6735ecd7509f9eadc38d427d,2024-11-14_06h28.58.731,Tarea de género gramatical,2024.2.2,Win32,59.88023952,,,,,,,,,,,,,,,,,,,,,,,,375.184,376.4992,l,1,[],[],[],[],[],[],[],0.638,1,376.4993,376.9992,,,,,,315,FEM,DIS,150,manera,el,a,0.638,,376.9993,376.9994,-0.444444444,-0.068518533,0,0,0,,0,109,109,314,1,,,,
,,,,,,6c2ef6cacd3a4c41d06874e7,66a626ef09d4e21e1a8894ec,6735ecd7509f9eadc38d427d,2024-11-14_06h28.58.731,Tarea de género gramatical,2024.2.2,Win32,59.88023952,,,,,,,,,,,,,,,,,,,,,,,,377.0007,378.1825,l,1,[],[],[],[],[],[],[],0.5096,1,378.1826,378.6825,,,,,,373,FEM,AGR,150,lluvia,la,a,0.5096,,378.6842,378.6855,-0.444444444,-0.068518533,0,0,0,,0,110,110,372,1,,,,
,,,,,,6c2ef6cacd3a4c41d06874e7,66a626ef09d4e21e1a8894ec,6735ecd7509f9eadc38d427d,2024-11-14_06h28.58.731,Tarea de género gramatical,2024.2.2,Win32,59.88023952,,,,,,,,,,,,,,,,,,,,,,,,378.6866,379.7506,l,1,[],[],[],[],[],[],[],0.3981,1,379.7508,380.2491,,,,,,56,FEM,CON,150,bola,,a,0.3981,,380.2491,380.2492,-0.444444444,-0.068518533,0,0,0,,0,111,111,55,1,,,,
,,,,,,6c2ef6cacd3a4c41d06874e7,66a626ef09d4e21e1a8894ec,6735ecd7509f9eadc38d427d,2024-11-14_06h28.58.731,Tarea de género gramatical,2024.2.2,Win32,59.88023952,,,,,,,,,,,,,,,,,,,,,,,,380.2506,381.399,l,1,[],[],[],[],[],[],[],0.4789,1,381.3991,381.8992,,,,,,434,FEM,CON,150,corona,,a,0.4789,,381.8993,381.8994,-0.444444444,-0.068518533,0,0,0,,0,112,112,433,1,,,,
,,,,,,6c2ef6cacd3a4c41d06874e7,66a626ef09d4e21e1a8894ec,6735ecd7509f9eadc38d427d,2024-11-14_06h28.58.731,Tarea de género gramatical,2024.2.2,Win32,59.88023952,,,,,,,,,,,,,,,,,,,,,,,,381.9006,383.3325,a,1,[],[],[],[],[],[],[],0.757,1,383.3326,383.8323,,,,,,250,MAS,AGR,150,cerdo,el,l,0.757,,383.8324,383.8324,-0.444444444,-0.068518533,0,0,0,,0,113,113,249,1,,,,
,,,,,,6c2ef6cacd3a4c41d06874e7,66a626ef09d4e21e1a8894ec,6735ecd7509f9eadc38d427d,2024-11-14_06h28.58.731,Tarea de género gramatical,2024.2.2,Win32,59.88023952,,,,,,,,,,,,,,,,,,,,,,,,383.834,385.6159,a,1,[],[],[],[],[],[],[],1.1007,1,385.6161,386.1156,,,,,,78,MAS,DIS,150,oído,la,l,1.1007,,386.1169,386.1179,-0.444444444,-0.068518533,0,0,0,,0,114,114,77,1,,,,
,,,,,,6c2ef6cacd3a4c41d06874e7,66a626ef09d4e21e1a8894ec,6735ecd7509f9eadc38d427d,2024-11-14_06h28.58.731,Tarea de género gramatical,2024.2.2,Win32,59.88023952,,,,,,,,,,,,,,,,,,,,,,,,386.119,387.649,l,1,[],[],[],[],[],[],[],0.862,1,387.6491,388.1489,,,,,,135,FEM,DIS,150,raíz,el,a,0.862,,388.1489,388.1491,-0.444444444,-0.068518533,0,0,0,,0,115,115,134,1,,,,
,,,,,,6c2ef6cacd3a4c41d06874e7,66a626ef09d4e21e1a8894ec,6735ecd7509f9eadc38d427d,2024-11-14_06h28.58.731,Tarea de género gramatical,2024.2.2,Win32,59.88023952,,,,,,,,,,,,,,,,,,,,,,,,388.1503,389.3991,a,1,[],[],[],[],[],[],[],0.5673,1,389.3992,389.8991,,,,,,23,MAS,CON,150,rato,,l,0.5673,,389.8992,389.8993,-0.444444444,-0.068518533,0,0,0,,0,116,116,22,1,,,,
,,,,,,6c2ef6cacd3a4c41d06874e7,66a626ef09d4e21e1a8894ec,6735ecd7509f9eadc38d427d,2024-11-14_06h28.58.731,Tarea de género gramatical,2024.2.2,Win32,59.88023952,,,,,,,,,,,,,,,,,,,,,,,,389.9005,391.1323,l,1,[],[],[],[],[],[],[],0.5548,1,391.1325,391.6324,,,,,,410,FEM,CON,150,piedad,,a,0.5548,,391.6324,391.6325,-0.444444444,-0.068518533,0,0,0,,0,117,117,409,1,,,,
,,,,,,6c2ef6cacd3a4c41d06874e7,66a626ef09d4e21e1a8894ec,6735ecd7509f9eadc38d427d,2024-11-14_06h28.58.731,Tarea de género gramatical,2024.2.2,Win32,59.88023952,,,,,,,,,,,,,,,,,,,,,,,,391.6339,393.0991,l,1,[],[],[],[],[],[],[],0.7921,1,393.0992,393.599,,,,,,182,FEM,CON,150,prisa,,a,0.7921,,393.599,393.5992,-0.444444444,-0.068518533,0,0,0,,0,118,118,181,1,,,,
,,,,,,6c2ef6cacd3a4c41d06874e7,66a626ef09d4e21e1a8894ec,6735ecd7509f9eadc38d427d,2024-11-14_06h28.58.731,Tarea de género gramatical,2024.2.2,Win32,59.88023952,,,,,,,,,,,,,,,,,,,,,,,,393.6007,394.7823,l,1,[],[],[],[],[],[],[],0.5016,1,394.7825,395.2823,,,,,,98,FEM,CON,150,fuga,,a,0.5016,,395.2838,395.2849,-0.444444444,-0.068518533,0,0,0,,0,119,119,97,1,,,,
,,,,,,6c2ef6cacd3a4c41d06874e7,66a626ef09d4e21e1a8894ec,6735ecd7509f9eadc38d427d,2024-11-14_06h28.58.731,Tarea de género gramatical,2024.2.2,Win32,59.88023952,,,,,,,,,,,,,,,,,,,,,,,,395.286,396.5489,a,1,[],[],[],[],[],[],[],0.589,1,396.549,397.0488,,,,,,34,MAS,AGR,150,gato,el,l,0.589,,397.0489,397.049,-0.444444444,-0.068518533,0,0,0,,0,120,120,33,1,,,,
,,,,,,6c2ef6cacd3a4c41d06874e7,66a626ef09d4e21e1a8894ec,6735ecd7509f9eadc38d427d,2024-11-14_06h28.58.731,Tarea de género gramatical,2024.2.2,Win32,59.88023952,,,,,,,,,,,,,,,,,,,,,,,,397.0503,398.849,a,1,[],[],[],[],[],[],[],1.121,1,398.8492,399.3489,,,,,,162,MAS,DIS,150,miedo,la,l,1.121,,399.349,399.3491,-0.444444444,-0.068518533,0,0,0,,0,121,121,161,1,,,,
,,,,,,6c2ef6cacd3a4c41d06874e7,66a626ef09d4e21e1a8894ec,6735ecd7509f9eadc38d427d,2024-11-14_06h28.58.731,Tarea de género gramatical,2024.2.2,Win32,59.88023952,,,,,,,,,,,,,,,,,,,,,,,,399.3504,400.7991,l,1,[],[],[],[],[],[],[],0.7673,1,400.7992,401.2989,,,,,,51,FEM,DIS,150,bala,el,a,0.7673,,401.299,401.2991,-0.444444444,-0.068518533,0,0,0,,0,122,122,50,1,,,,
,,,,,,6c2ef6cacd3a4c41d06874e7,66a626ef09d4e21e1a8894ec,6735ecd7509f9eadc38d427d,2024-11-14_06h28.58.731,Tarea de género gramatical,2024.2.2,Win32,59.88023952,,,,,,,,,,,,,,,,,,,,,,,,401.3004,402.5324,l,1,[],[],[],[],[],[],[],0.559,1,402.5325,403.0323,,,,,,339,FEM,DIS,150,salida,el,a,0.559,,403.0337,403.0346,-0.444444444,-0.068518533,0,0,0,,0,123,123,338,1,,,,
,,,,,,6c2ef6cacd3a4c41d06874e7,66a626ef09d4e21e1a8894ec,6735ecd7509f9eadc38d427d,2024-11-14_06h28.58.731,Tarea de género gramatical,2024.2.2,Win32,59.88023952,,,,,,,,,,,,,,,,,,,,,,,,403.0361,404.3658,a,1,[],[],[],[],[],[],[],0.6632,1,404.366,404.8654,,,,,,197,MAS,CON,150,avión,,l,0.6632,,404.8655,404.8656,-0.444444444,-0.068518533,0,0,0,,0,124,124,196,1,,,,
,,,,,,6c2ef6cacd3a4c41d06874e7,66a626ef09d4e21e1a8894ec,6735ecd7509f9eadc38d427d,2024-11-14_06h28.58.731,Tarea de género gramatical,2024.2.2,Win32,59.88023952,,,,,,,,,,,,,,,,,,,,,,,,404.8668,405.9819,l,1,[],[],[],[],[],[],[],0.4432,1,405.982,406.4822,,,,,,170,FEM,CON,150,carta,,a,0.4432,,406.4822,406.4824,-0.444444444,-0.068518533,0,0,0,,0,125,125,169,1,,,,
,,,,,,6c2ef6cacd3a4c41d06874e7,66a626ef09d4e21e1a8894ec,6735ecd7509f9eadc38d427d,2024-11-14_06h28.58.731,Tarea de género gramatical,2024.2.2,Win32,59.88023952,,,,,,,,,,,,,,,,,,,,,,,,406.4836,407.899,a,1,[],[],[],[],[],[],[],0.7377,1,407.8991,408.3989,,,,,,329,MAS,CON,150,futuro,,l,0.7377,,408.3989,408.3991,-0.444444444,-0.068518533,0,0,0,,0,126,126,328,1,,,,
,,,,,,6c2ef6cacd3a4c41d06874e7,66a626ef09d4e21e1a8894ec,6735ecd7509f9eadc38d427d,2024-11-14_06h28.58.731,Tarea de género gramatical,2024.2.2,Win32,59.88023952,,,,,,,,,,,,,,,,,,,,,,,,408.4005,409.6988,a,1,[],[],[],[],[],[],[],0.6235,1,409.6989,410.1987,,,,,,269,MAS,CON,150,primo,,l,0.6235,,410.1989,410.1989,-0.444444444,-0.068518533,0,0,0,,0,127,127,268,1,,,,
,,,,,,6c2ef6cacd3a4c41d06874e7,66a626ef09d4e21e1a8894ec,6735ecd7509f9eadc38d427d,2024-11-14_06h28.58.731,Tarea de género gramatical,2024.2.2,Win32,59.88023952,,,,,,,,,,,,,,,,,,,,,,,,410.2002,411.6821,l,1,[],[],[],[],[],[],[],0.8077,1,411.6822,412.1821,,,,,,446,FEM,CON,150,bañera,,a,0.8077,,412.1835,412.1845,-0.444444444,-0.068518533,0,0,0,,0,128,128,445,1,,,,
,,,,,,6c2ef6cacd3a4c41d06874e7,66a626ef09d4e21e1a8894ec,6735ecd7509f9eadc38d427d,2024-11-14_06h28.58.731,Tarea de género gramatical,2024.2.2,Win32,59.88023952,,,,,,,,,,,,,,,,,,,,,,,,412.1856,413.5153,l,1,[],[],[],[],[],[],[],0.6509,1,413.5155,414.0154,,,,,,439,FEM,AGR,150,toalla,la,a,0.6509,,414.0155,414.0155,-0.444444444,-0.068518533,0,0,0,,0,129,129,438,1,,,,
,,,,,,6c2ef6cacd3a4c41d06874e7,66a626ef09d4e21e1a8894ec,6735ecd7509f9eadc38d427d,2024-11-14_06h28.58.731,Tarea de género gramatical,2024.2.2,Win32,59.88023952,,,,,,,,,,,,,,,,,,,,,,,,414.0167,415.4154,l,1,[],[],[],[],[],[],[],0.7257,1,415.4156,415.9154,,,,,,374,FEM,CON,150,herida,,a,0.7257,,415.9155,415.9157,-0.444444444,-0.068518533,0,0,0,,0,130,130,373,1,,,,
,,,,,,6c2ef6cacd3a4c41d06874e7,66a626ef09d4e21e1a8894ec,6735ecd7509f9eadc38d427d,2024-11-14_06h28.58.731,Tarea de género gramatical,2024.2.2,Win32,59.88023952,,,,,,,,,,,,,,,,,,,,,,,,415.9171,417.2986,l,1,[],[],[],[],[],[],[],0.7027,1,417.2987,417.7986,,,,,,271,FEM,AGR,150,viuda,la,a,0.7027,,417.7986,417.7988,-0.444444444,-0.068518533,0,0,0,,0,131,131,270,1,,,,
,,,,,,6c2ef6cacd3a4c41d06874e7,66a626ef09d4e21e1a8894ec,6735ecd7509f9eadc38d427d,2024-11-14_06h28.58.731,Tarea de género gramatical,2024.2.2,Win32,59.88023952,,,,,,,,,,,,,,,,,,,,,,,,417.8,418.9652,l,1,[],[],[],[],[],[],[],0.4886,1,418.9653,419.4655,,,,,,229,FEM,AGR,150,celda,la,a,0.4886,,419.4669,419.4681,-0.444444444,-0.068518533,0,0,0,,0,132,132,228,1,,,,
,,,,,,6c2ef6cacd3a4c41d06874e7,66a626ef09d4e21e1a8894ec,6735ecd7509f9eadc38d427d,2024-11-14_06h28.58.731,Tarea de género gramatical,2024.2.2,Win32,59.88023952,,,,,,,,,,,,,,,,,,,,,,,,419.4691,420.8153,a,1,[],[],[],[],[],[],[],0.6669,1,420.8154,421.3153,,,,,,449,MAS,CON,150,payaso,,l,0.6669,,421.3153,421.3154,-0.444444444,-0.068518533,0,0,0,,0,133,133,448,1,,,,
,,,,,,6c2ef6cacd3a4c41d06874e7,66a626ef09d4e21e1a8894ec,6735ecd7509f9eadc38d427d,2024-11-14_06h28.58.731,Tarea de género gramatical,2024.2.2,Win32,59.88023952,,,,,,,,,,,,,,,,,,,,,,,,421.3166,423.0484,a,0,[],[],[],[],[],[],[],1.0503,0,423.0492,423.5484,,,,,,87,FEM,DIS,150,risa,el,a,1.0503,,423.5485,423.5486,-0.444444444,-0.068518533,0,0,0,,0,134,134,86,1,,,,
,,,,,,6c2ef6cacd3a4c41d06874e7,66a626ef09d4e21e1a8894ec,6735ecd7509f9eadc38d427d,2024-11-14_06h28.58.731,Tarea de género gramatical,2024.2.2,Win32,59.88023952,,,,,,,,,,,,,,,,,,,,,,,,423.5498,424.9319,l,1,[],[],[],[],[],[],[],0.7013,1,424.9331,425.4319,,,,,,164,FEM,CON,150,novia,,a,0.7013,,425.432,425.4321,-0.444444444,-0.068518533,0,0,0,,0,135,135,163,1,,,,
,,,,,,6c2ef6cacd3a4c41d06874e7,66a626ef09d4e21e1a8894ec,6735ecd7509f9eadc38d427d,2024-11-14_06h28.58.731,Tarea de género gramatical,2024.2.2,Win32,59.88023952,,,,,,,,,,,,,,,,,,,,,,,,425.4334,426.632,a,1,[],[],[],[],[],[],[],0.518,1,426.6322,427.1318,,,,,,136,MAS,AGR,150,vago,el,l,0.518,,427.1319,427.1319,-0.444444444,-0.068518533,0,0,0,,0,136,136,135,1,,,,
,,,,,,6c2ef6cacd3a4c41d06874e7,66a626ef09d4e21e1a8894ec,6735ecd7509f9eadc38d427d,2024-11-14_06h28.58.731,Tarea de género gramatical,2024.2.2,Win32,59.88023952,,,,,,,,,,,,,,,,,,,,,,,,427.1332,428.3821,a,1,[],[],[],[],[],[],[],0.5692,1,428.3822,428.882,,,,,,101,MAS,CON,150,giro,,l,0.5692,,428.8836,428.8846,-0.444444444,-0.068518533,0,0,0,,0,137,137,100,1,,,,
,,,,,,6c2ef6cacd3a4c41d06874e7,66a626ef09d4e21e1a8894ec,6735ecd7509f9eadc38d427d,2024-11-14_06h28.58.731,Tarea de género gramatical,2024.2.2,Win32,59.88023952,,,,,,,,,,,,,,,,,,,,,,,,428.8856,430.2821,l,1,[],[],[],[],[],[],[],0.7233,1,430.2822,430.7818,,,,,,423,FEM,DIS,150,poesía,el,a,0.7233,,430.7819,430.782,-0.444444444,-0.068518533,0,0,0,,0,138,138,422,1,,,,
,,,,,,6c2ef6cacd3a4c41d06874e7,66a626ef09d4e21e1a8894ec,6735ecd7509f9eadc38d427d,2024-11-14_06h28.58.731,Tarea de género gramatical,2024.2.2,Win32,59.88023952,,,,,,,,,,,,,,,,,,,,,,,,430.7831,432.4153,a,1,[],[],[],[],[],[],[],0.9507,1,432.4154,432.9153,,,,,,179,MAS,CON,150,viaje,,l,0.9507,,432.9153,432.9155,-0.444444444,-0.068518533,0,0,0,,0,139,139,178,1,,,,
,,,,,,6c2ef6cacd3a4c41d06874e7,66a626ef09d4e21e1a8894ec,6735ecd7509f9eadc38d427d,2024-11-14_06h28.58.731,Tarea de género gramatical,2024.2.2,Win32,59.88023952,,,,,,,,,,,,,,,,,,,,,,,,432.9166,434.2652,l,1,[],[],[],[],[],[],[],0.67,1,434.2653,434.765,,,,,,211,FEM,AGR,150,salud,la,a,0.67,,434.7652,434.7652,-0.444444444,-0.068518533,0,0,0,,0,140,140,210,1,,,,
,,,,,,6c2ef6cacd3a4c41d06874e7,66a626ef09d4e21e1a8894ec,6735ecd7509f9eadc38d427d,2024-11-14_06h28.58.731,Tarea de género gramatical,2024.2.2,Win32,59.88023952,,,,,,,,,,,,,,,,,,,,,,,,434.7665,436.4484,l,1,[],[],[],[],[],[],[],1.0107,1,436.4485,436.9482,,,,,,61,FEM,AGR,150,ruta,la,a,1.0107,,436.9498,436.9507,-0.444444444,-0.068518533,0,0,0,,0,141,141,60,1,,,,
,,,,,,6c2ef6cacd3a4c41d06874e7,66a626ef09d4e21e1a8894ec,6735ecd7509f9eadc38d427d,2024-11-14_06h28.58.731,Tarea de género gramatical,2024.2.2,Win32,59.88023952,,,,,,,,,,,,,,,,,,,,,,,,436.9518,438.4317,l,1,[],[],[],[],[],[],[],0.8009,1,438.4318,438.9317,,,,,,104,FEM,CON,150,vela,,a,0.8009,,438.9318,438.9319,-0.444444444,-0.068518533,0,0,0,,0,142,142,103,1,,,,
,,,,,,6c2ef6cacd3a4c41d06874e7,66a626ef09d4e21e1a8894ec,6735ecd7509f9eadc38d427d,2024-11-14_06h28.58.731,Tarea de género gramatical,2024.2.2,Win32,59.88023952,,,,,,,,,,,,,,,,,,,,,,,,438.9332,440.0984,a,1,[],[],[],[],[],[],[],0.4843,1,440.0985,440.5983,,,,,,54,MAS,DIS,150,humo,la,l,0.4843,,440.5984,440.5985,-0.444444444,-0.068518533,0,0,0,,0,143,143,53,1,,,,
,,,,,,6c2ef6cacd3a4c41d06874e7,66a626ef09d4e21e1a8894ec,6735ecd7509f9eadc38d427d,2024-11-14_06h28.58.731,Tarea de género gramatical,2024.2.2,Win32,59.88023952,,,,,,,,,,,,,,,,,,,,,,,,440.5999,442.415,a,0,[],[],[],[],[],[],[],1.1342,0,442.4163,442.9151,,,,,,75,FEM,DIS,150,caza,el,a,1.1342,,442.9151,442.9152,-0.444444444,-0.068518533,0,0,0,,0,144,144,74,1,,,,
,,,,,,6c2ef6cacd3a4c41d06874e7,66a626ef09d4e21e1a8894ec,6735ecd7509f9eadc38d427d,2024-11-14_06h28.58.731,Tarea de género gramatical,2024.2.2,Win32,59.88023952,,,,,,,,,,,,,,,,,,,,,,,,442.9164,444.2483,l,1,[],[],[],[],[],[],[],0.6623,1,444.2493,444.7482,,,,,,8,FEM,CON,150,idea,,a,0.6623,,444.7483,444.7484,-0.444444444,-0.068518533,0,0,0,,0,145,145,7,1,,,,
,,,,,,6c2ef6cacd3a4c41d06874e7,66a626ef09d4e21e1a8894ec,6735ecd7509f9eadc38d427d,2024-11-14_06h28.58.731,Tarea de género gramatical,2024.2.2,Win32,59.88023952,,,,,,,,,,,,,,,,,,,,,,,,444.7497,445.9815,l,1,[],[],[],[],[],[],[],0.5504,1,445.9816,446.4816,,,,,,183,FEM,DIS,150,llave,el,a,0.5504,,446.4832,446.4846,-0.444444444,-0.068518533,0,0,0,,0,146,146,182,1,,,,
,,,,,,6c2ef6cacd3a4c41d06874e7,66a626ef09d4e21e1a8894ec,6735ecd7509f9eadc38d427d,2024-11-14_06h28.58.731,Tarea de género gramatical,2024.2.2,Win32,59.88023952,,,,,,,,,,,,,,,,,,,,,,,,446.4857,447.6497,l,1,[],[],[],[],[],[],[],0.4975,1,447.6498,448.1482,,,,,,309,FEM,DIS,150,esposa,el,a,0.4975,,448.1483,448.1484,-0.444444444,-0.068518533,0,0,0,,0,147,147,308,1,,,,
,,,,,,6c2ef6cacd3a4c41d06874e7,66a626ef09d4e21e1a8894ec,6735ecd7509f9eadc38d427d,2024-11-14_06h28.58.731,Tarea de género gramatical,2024.2.2,Win32,59.88023952,,,,,,,,,,,,,,,,,,,,,,,,448.1497,449.6149,a,1,[],[],[],[],[],[],[],0.7853,1,449.615,450.1153,,,,,,126,MAS,DIS,150,lazo,la,l,0.7853,,450.1154,450.1156,-0.444444444,-0.068518533,0,0,0,,0,148,148,125,1,,,,
,,,,,,6c2ef6cacd3a4c41d06874e7,66a626ef09d4e21e1a8894ec,6735ecd7509f9eadc38d427d,2024-11-14_06h28.58.731,Tarea de género gramatical,2024.2.2,Win32,59.88023952,,,,,,,,,,,,,,,,,,,,,,,,450.1172,451.3822,a,1,[],[],[],[],[],[],[],0.5841,1,451.3823,451.8814,,,,,,204,MAS,DIS,150,papel,la,l,0.5841,,451.8815,451.8816,-0.444444444,-0.068518533,0,0,0,,0,149,149,203,1,,,,
,,,,,,6c2ef6cacd3a4c41d06874e7,66a626ef09d4e21e1a8894ec,6735ecd7509f9eadc38d427d,2024-11-14_06h28.58.731,Tarea de género gramatical,2024.2.2,Win32,59.88023952,,,,,,,,,,,,,,,,,,,,,,,,451.8827,453.7482,a,1,[],[],[],[],[],[],[],1.184,1,453.7483,454.2483,,,,,,412,MAS,AGR,150,espejo,el,l,1.184,,454.2498,459.6675,-0.444444444,-0.068518533,0,0,0,space,0,150,150,411,1,5.3978,,,
,,,,,,6c2ef6cacd3a4c41d06874e7,66a626ef09d4e21e1a8894ec,6735ecd7509f9eadc38d427d,2024-11-14_06h28.58.731,Tarea de género gramatical,2024.2.2,Win32,59.88023952,,,,,,,,,,,,,,,,,,,,,,,,459.6689,461.3485,l,0,[],[],[],[],[],[],[],1.0025,0,461.3499,461.8481,,,,,,228,MAS,DIS,150,nivel,la,l,1.0025,,461.8481,461.8483,-0.444444444,-0.068518533,0,0,0,,0,151,151,227,1,,,,
,,,,,,6c2ef6cacd3a4c41d06874e7,66a626ef09d4e21e1a8894ec,6735ecd7509f9eadc38d427d,2024-11-14_06h28.58.731,Tarea de género gramatical,2024.2.2,Win32,59.88023952,,,,,,,,,,,,,,,,,,,,,,,,461.8496,463.198,l,1,[],[],[],[],[],[],[],0.674,1,463.1991,463.698,,,,,,350,FEM,CON,150,imagen,,a,0.674,,463.6981,463.6982,-0.444444444,-0.068518533,0,0,0,,0,152,152,349,1,,,,
,,,,,,6c2ef6cacd3a4c41d06874e7,66a626ef09d4e21e1a8894ec,6735ecd7509f9eadc38d427d,2024-11-14_06h28.58.731,Tarea de género gramatical,2024.2.2,Win32,59.88023952,,,,,,,,,,,,,,,,,,,,,,,,463.6993,464.865,a,1,[],[],[],[],[],[],[],0.4928,1,464.8652,465.3647,,,,,,431,MAS,CON,150,veneno,,l,0.4928,,465.3648,465.3649,-0.444444444,-0.068518533,0,0,0,,0,153,153,430,1,,,,
,,,,,,6c2ef6cacd3a4c41d06874e7,66a626ef09d4e21e1a8894ec,6735ecd7509f9eadc38d427d,2024-11-14_06h28.58.731,Tarea de género gramatical,2024.2.2,Win32,59.88023952,,,,,,,,,,,,,,,,,,,,,,,,465.366,467.0313,a,1,[],[],[],[],[],[],[],0.9958,1,467.0315,467.5313,,,,,,389,MAS,CON,150,tamaño,,l,0.9958,,467.5313,467.5315,-0.444444444,-0.068518533,0,0,0,,0,154,154,388,1,,,,
,,,,,,6c2ef6cacd3a4c41d06874e7,66a626ef09d4e21e1a8894ec,6735ecd7509f9eadc38d427d,2024-11-14_06h28.58.731,Tarea de género gramatical,2024.2.2,Win32,59.88023952,,,,,,,,,,,,,,,,,,,,,,,,467.5328,468.7984,a,1,[],[],[],[],[],[],[],0.589,1,468.7987,469.298,,,,,,388,MAS,AGR,150,empleo,el,l,0.589,,469.2994,469.3006,-0.444444444,-0.068518533,0,0,0,,0,155,155,387,1,,,,
,,,,,,6c2ef6cacd3a4c41d06874e7,66a626ef09d4e21e1a8894ec,6735ecd7509f9eadc38d427d,2024-11-14_06h28.58.731,Tarea de género gramatical,2024.2.2,Win32,59.88023952,,,,,,,,,,,,,,,,,,,,,,,,469.3016,470.4979,l,1,[],[],[],[],[],[],[],0.5174,1,470.498,470.998,,,,,,296,FEM,CON,150,feria,,a,0.5174,,470.9981,470.9981,-0.444444444,-0.068518533,0,0,0,,0,156,156,295,1,,,,
,,,,,,6c2ef6cacd3a4c41d06874e7,66a626ef09d4e21e1a8894ec,6735ecd7509f9eadc38d427d,2024-11-14_06h28.58.731,Tarea de género gramatical,2024.2.2,Win32,59.88023952,,,,,,,,,,,,,,,,,,,,,,,,470.9995,472.3981,l,1,[],[],[],[],[],[],[],0.716,1,472.3982,472.8981,,,,,,3,FEM,DIS,150,cosa,el,a,0.716,,472.8982,472.8982,-0.444444444,-0.068518533,0,0,0,,0,157,157,2,1,,,,
,,,,,,6c2ef6cacd3a4c41d06874e7,66a626ef09d4e21e1a8894ec,6735ecd7509f9eadc38d427d,2024-11-14_06h28.58.731,Tarea de género gramatical,2024.2.2,Win32,59.88023952,,,,,,,,,,,,,,,,,,,,,,,,472.8995,474.6146,a,1,[],[],[],[],[],[],[],1.0382,1,474.6147,475.1146,,,,,,132,MAS,DIS,150,velo,la,l,1.0382,,475.1147,475.1147,-0.444444444,-0.068518533,0,0,0,,0,158,158,131,1,,,,
,,,,,,6c2ef6cacd3a4c41d06874e7,66a626ef09d4e21e1a8894ec,6735ecd7509f9eadc38d427d,2024-11-14_06h28.58.731,Tarea de género gramatical,2024.2.2,Win32,59.88023952,,,,,,,,,,,,,,,,,,,,,,,,475.116,476.3313,l,1,[],[],[],[],[],[],[],0.5338,1,476.3314,476.8312,,,,,,2,FEM,CON,150,vida,,a,0.5338,,476.8327,476.8336,-0.444444444,-0.068518533,0,0,0,,0,159,159,1,1,,,,
,,,,,,6c2ef6cacd3a4c41d06874e7,66a626ef09d4e21e1a8894ec,6735ecd7509f9eadc38d427d,2024-11-14_06h28.58.731,Tarea de género gramatical,2024.2.2,Win32,59.88023952,,,,,,,,,,,,,,,,,,,,,,,,476.8347,478.4646,l,1,[],[],[],[],[],[],[],0.9512,1,478.4647,478.9644,,,,,,447,FEM,DIS,150,lógica,el,a,0.9512,,478.9645,478.9646,-0.444444444,-0.068518533,0,0,0,,0,160,160,446,1,,,,
,,,,,,6c2ef6cacd3a4c41d06874e7,66a626ef09d4e21e1a8894ec,6735ecd7509f9eadc38d427d,2024-11-14_06h28.58.731,Tarea de género gramatical,2024.2.2,Win32,59.88023952,,,,,,,,,,,,,,,,,,,,,,,,478.9658,480.1813,a,1,[],[],[],[],[],[],[],0.5358,1,480.1814,480.6819,,,,,,113,MAS,CON,150,toro,,l,0.5358,,480.682,480.6821,-0.444444444,-0.068518533,0,0,0,,0,161,161,112,1,,,,
,,,,,,6c2ef6cacd3a4c41d06874e7,66a626ef09d4e21e1a8894ec,6735ecd7509f9eadc38d427d,2024-11-14_06h28.58.731,Tarea de género gramatical,2024.2.2,Win32,59.88023952,,,,,,,,,,,,,,,,,,,,,,,,480.6832,482.1987,a,1,[],[],[],[],[],[],[],0.8469,1,482.1988,482.698,,,,,,88,MAS,AGR,150,pavo,el,l,0.8469,,482.6981,482.6982,-0.444444444,-0.068518533,0,0,0,,0,162,162,87,1,,,,
,,,,,,6c2ef6cacd3a4c41d06874e7,66a626ef09d4e21e1a8894ec,6735ecd7509f9eadc38d427d,2024-11-14_06h28.58.731,Tarea de género gramatical,2024.2.2,Win32,59.88023952,,,,,,,,,,,,,,,,,,,,,,,,482.6995,484.3143,l,1,[],[],[],[],[],[],[],0.9446,1,484.3145,484.8143,,,,,,367,FEM,AGR,150,teoría,la,a,0.9446,,484.8144,484.8144,-0.444444444,-0.068518533,0,0,0,,0,163,163,366,1,,,,
,,,,,,6c2ef6cacd3a4c41d06874e7,66a626ef09d4e21e1a8894ec,6735ecd7509f9eadc38d427d,2024-11-14_06h28.58.731,Tarea de género gramatical,2024.2.2,Win32,59.88023952,,,,,,,,,,,,,,,,,,,,,,,,484.8158,486.0478,l,1,[],[],[],[],[],[],[],0.5518,1,486.0479,486.5476,,,,,,301,FEM,AGR,150,verdad,la,a,0.5518,,486.5492,486.5503,-0.444444444,-0.068518533,0,0,0,,0,164,164,300,1,,,,
,,,,,,6c2ef6cacd3a4c41d06874e7,66a626ef09d4e21e1a8894ec,6735ecd7509f9eadc38d427d,2024-11-14_06h28.58.731,Tarea de género gramatical,2024.2.2,Win32,59.88023952,,,,,,,,,,,,,,,,,,,,,,,,486.5515,487.7645,l,1,[],[],[],[],[],[],[],0.5369,1,487.7646,488.2644,,,,,,332,FEM,CON,150,basura,,a,0.5369,,488.2645,488.2645,-0.444444444,-0.068518533,0,0,0,,0,165,165,331,1,,,,
,,,,,,6c2ef6cacd3a4c41d06874e7,66a626ef09d4e21e1a8894ec,6735ecd7509f9eadc38d427d,2024-11-14_06h28.58.731,Tarea de género gramatical,2024.2.2,Win32,59.88023952,,,,,,,,,,,,,,,,,,,,,,,,488.2658,489.3644,a,1,[],[],[],[],[],[],[],0.4177,1,489.3645,489.8643,,,,,,155,MAS,CON,150,mundo,,l,0.4177,,489.8643,489.8644,-0.444444444,-0.068518533,0,0,0,,0,166,166,154,1,,,,
,,,,,,6c2ef6cacd3a4c41d06874e7,66a626ef09d4e21e1a8894ec,6735ecd7509f9eadc38d427d,2024-11-14_06h28.58.731,Tarea de género gramatical,2024.2.2,Win32,59.88023952,,,,,,,,,,,,,,,,,,,,,,,,489.8657,491.0478,l,1,[],[],[],[],[],[],[],0.5007,1,491.0479,491.5477,,,,,,80,FEM,CON,150,vaca,,a,0.5007,,491.5478,491.5479,-0.444444444,-0.068518533,0,0,0,,0,167,167,79,1,,,,
,,,,,,6c2ef6cacd3a4c41d06874e7,66a626ef09d4e21e1a8894ec,6735ecd7509f9eadc38d427d,2024-11-14_06h28.58.731,Tarea de género gramatical,2024.2.2,Win32,59.88023952,,,,,,,,,,,,,,,,,,,,,,,,491.5491,493.0657,a,1,[],[],[],[],[],[],[],0.8381,1,493.0659,493.5643,,,,,,234,MAS,DIS,150,héroe,la,l,0.8381,,493.5659,493.5668,-0.444444444,-0.068518533,0,0,0,,0,168,168,233,1,,,,
,,,,,,6c2ef6cacd3a4c41d06874e7,66a626ef09d4e21e1a8894ec,6735ecd7509f9eadc38d427d,2024-11-14_06h28.58.731,Tarea de género gramatical,2024.2.2,Win32,59.88023952,,,,,,,,,,,,,,,,,,,,,,,,493.5678,495.0143,a,1,[],[],[],[],[],[],[],0.7743,1,495.0145,495.5142,,,,,,89,MAS,CON,150,maíz,,l,0.7743,,495.5143,495.5144,-0.444444444,-0.068518533,0,0,0,,0,169,169,88,1,,,,
,,,,,,6c2ef6cacd3a4c41d06874e7,66a626ef09d4e21e1a8894ec,6735ecd7509f9eadc38d427d,2024-11-14_06h28.58.731,Tarea de género gramatical,2024.2.2,Win32,59.88023952,,,,,,,,,,,,,,,,,,,,,,,,495.5156,497.4477,l,1,[],[],[],[],[],[],[],1.2626,1,497.4479,497.9475,,,,,,273,FEM,DIS,150,tarta,el,a,1.2626,,497.9475,497.9476,-0.444444444,-0.068518533,0,0,0,,0,170,170,272,1,,,,
,,,,,,6c2ef6cacd3a4c41d06874e7,66a626ef09d4e21e1a8894ec,6735ecd7509f9eadc38d427d,2024-11-14_06h28.58.731,Tarea de género gramatical,2024.2.2,Win32,59.88023952,,,,,,,,,,,,,,,,,,,,,,,,497.9489,499.0985,a,1,[],[],[],[],[],[],[],0.4806,1,499.0986,499.5977,,,,,,364,MAS,AGR,150,viento,el,l,0.4806,,499.5978,499.5978,-0.444444444,-0.068518533,0,0,0,,0,171,171,363,1,,,,
,,,,,,6c2ef6cacd3a4c41d06874e7,66a626ef09d4e21e1a8894ec,6735ecd7509f9eadc38d427d,2024-11-14_06h28.58.731,Tarea de género gramatical,2024.2.2,Win32,59.88023952,,,,,,,,,,,,,,,,,,,,,,,,499.5991,500.7642,a,1,[],[],[],[],[],[],[],0.4928,1,500.7643,501.2641,,,,,,335,MAS,CON,150,montón,,l,0.4928,,501.2642,501.2642,-0.444444444,-0.068518533,0,0,0,,0,172,172,334,1,,,,
,,,,,,6c2ef6cacd3a4c41d06874e7,66a626ef09d4e21e1a8894ec,6735ecd7509f9eadc38d427d,2024-11-14_06h28.58.731,Tarea de género gramatical,2024.2.2,Win32,59.88023952,,,,,,,,,,,,,,,,,,,,,,,,501.2657,502.5141,l,1,[],[],[],[],[],[],[],0.5747,1,502.5142,503.0143,,,,,,175,FEM,AGR,150,señal,la,a,0.5747,,503.016,503.0172,-0.444444444,-0.068518533,0,0,0,,0,173,173,174,1,,,,
,,,,,,6c2ef6cacd3a4c41d06874e7,66a626ef09d4e21e1a8894ec,6735ecd7509f9eadc38d427d,2024-11-14_06h28.58.731,Tarea de género gramatical,2024.2.2,Win32,59.88023952,,,,,,,,,,,,,,,,,,,,,,,,503.0185,504.5141,l,1,[],[],[],[],[],[],[],0.8252,1,504.5143,505.014,,,,,,27,FEM,DIS,150,mesa,el,a,0.8252,,505.0141,505.0143,-0.444444444,-0.068518533,0,0,0,,0,174,174,26,1,,,,
,,,,,,6c2ef6cacd3a4c41d06874e7,66a626ef09d4e21e1a8894ec,6735ecd7509f9eadc38d427d,2024-11-14_06h28.58.731,Tarea de género gramatical,2024.2.2,Win32,59.88023952,,,,,,,,,,,,,,,,,,,,,,,,505.0158,506.1308,l,1,[],[],[],[],[],[],[],0.4381,1,506.1309,506.6313,,,,,,9,FEM,DIS,150,mamá,el,a,0.4381,,506.6313,506.6315,-0.444444444,-0.068518533,0,0,0,,0,175,175,8,1,,,,
,,,,,,6c2ef6cacd3a4c41d06874e7,66a626ef09d4e21e1a8894ec,6735ecd7509f9eadc38d427d,2024-11-14_06h28.58.731,Tarea de género gramatical,2024.2.2,Win32,59.88023952,,,,,,,,,,,,,,,,,,,,,,,,506.6329,507.7974,a,1,[],[],[],[],[],[],[],0.4884,1,507.7976,508.2972,,,,,,293,MAS,CON,150,patio,,l,0.4884,,508.2973,508.2974,-0.444444444,-0.068518533,0,0,0,,0,176,176,292,1,,,,
,,,,,,6c2ef6cacd3a4c41d06874e7,66a626ef09d4e21e1a8894ec,6735ecd7509f9eadc38d427d,2024-11-14_06h28.58.731,Tarea de género gramatical,2024.2.2,Win32,59.88023952,,,,,,,,,,,,,,,,,,,,,,,,508.2986,509.5306,l,1,[],[],[],[],[],[],[],0.5611,1,509.5308,510.0305,,,,,,1,FEM,AGR,150,casa,la,a,0.5611,,510.0319,510.0329,-0.444444444,-0.068518533,0,0,0,,0,177,177,0,1,,,,
,,,,,,6c2ef6cacd3a4c41d06874e7,66a626ef09d4e21e1a8894ec,6735ecd7509f9eadc38d427d,2024-11-14_06h28.58.731,Tarea de género gramatical,2024.2.2,Win32,59.88023952,,,,,,,,,,,,,,,,,,,,,,,,510.0339,511.3972,l,1,[],[],[],[],[],[],[],0.6866,1,511.3973,511.8979,,,,,,159,FEM,DIS,150,clase,el,a,0.6866,,511.8979,511.898,-0.444444444,-0.068518533,0,0,0,,0,178,178,158,1,,,,
,,,,,,6c2ef6cacd3a4c41d06874e7,66a626ef09d4e21e1a8894ec,6735ecd7509f9eadc38d427d,2024-11-14_06h28.58.731,Tarea de género gramatical,2024.2.2,Win32,59.88023952,,,,,,,,,,,,,,,,,,,,,,,,511.8995,513.114,l,1,[],[],[],[],[],[],[],0.5343,1,513.1142,513.614,,,,,,289,FEM,AGR,150,tabla,la,a,0.5343,,513.6141,513.6142,-0.444444444,-0.068518533,0,0,0,,0,179,179,288,1,,,,
,,,,,,6c2ef6cacd3a4c41d06874e7,66a626ef09d4e21e1a8894ec,6735ecd7509f9eadc38d427d,2024-11-14_06h28.58.731,Tarea de género gramatical,2024.2.2,Win32,59.88023952,,,,,,,,,,,,,,,,,,,,,,,,513.6154,515.014,a,1,[],[],[],[],[],[],[],0.7256,1,515.0141,515.5139,,,,,,443,MAS,CON,150,templo,,l,0.7256,,515.514,515.5141,-0.444444444,-0.068518533,0,0,0,,0,180,180,442,1,,,,
,,,,,,6c2ef6cacd3a4c41d06874e7,66a626ef09d4e21e1a8894ec,6735ecd7509f9eadc38d427d,2024-11-14_06h28.58.731,Tarea de género gramatical,2024.2.2,Win32,59.88023952,,,,,,,,,,,,,,,,,,,,,,,,515.5153,516.8474,a,1,[],[],[],[],[],[],[],0.6507,1,516.8475,517.3473,,,,,,83,MAS,CON,150,nene,,l,0.6507,,517.3474,517.3474,-0.444444444,-0.068518533,0,0,0,,0,181,181,82,1,,,,
,,,,,,6c2ef6cacd3a4c41d06874e7,66a626ef09d4e21e1a8894ec,6735ecd7509f9eadc38d427d,2024-11-14_06h28.58.731,Tarea de género gramatical,2024.2.2,Win32,59.88023952,,,,,,,,,,,,,,,,,,,,,,,,517.3487,518.5807,a,1,[],[],[],[],[],[],[],0.5527,1,518.5808,519.0807,,,,,,316,MAS,AGR,150,cuerpo,el,l,0.5527,,519.0821,519.0832,-0.444444444,-0.068518533,0,0,0,,0,182,182,315,1,,,,
,,,,,,6c2ef6cacd3a4c41d06874e7,66a626ef09d4e21e1a8894ec,6735ecd7509f9eadc38d427d,2024-11-14_06h28.58.731,Tarea de género gramatical,2024.2.2,Win32,59.88023952,,,,,,,,,,,,,,,,,,,,,,,,519.0843,520.2979,l,1,[],[],[],[],[],[],[],0.5435,1,520.298,520.7972,,,,,,295,FEM,AGR,150,grasa,la,a,0.5435,,520.7973,520.7974,-0.444444444,-0.068518533,0,0,0,,0,183,183,294,1,,,,
,,,,,,6c2ef6cacd3a4c41d06874e7,66a626ef09d4e21e1a8894ec,6735ecd7509f9eadc38d427d,2024-11-14_06h28.58.731,Tarea de género gramatical,2024.2.2,Win32,59.88023952,,,,,,,,,,,,,,,,,,,,,,,,520.7987,522.0305,l,1,[],[],[],[],[],[],[],0.5507,1,522.0306,522.5306,,,,,,158,FEM,CON,150,chica,,a,0.5507,,522.5306,522.5307,-0.444444444,-0.068518533,0,0,0,,0,184,184,157,1,,,,
,,,,,,6c2ef6cacd3a4c41d06874e7,66a626ef09d4e21e1a8894ec,6735ecd7509f9eadc38d427d,2024-11-14_06h28.58.731,Tarea de género gramatical,2024.2.2,Win32,59.88023952,,,,,,,,,,,,,,,,,,,,,,,,522.532,523.9982,a,1,[],[],[],[],[],[],[],0.7969,1,523.9982,524.4973,,,,,,438,MAS,DIS,150,tanque,la,l,0.7969,,524.4974,524.4975,-0.444444444,-0.068518533,0,0,0,,0,185,185,437,1,,,,
,,,,,,6c2ef6cacd3a4c41d06874e7,66a626ef09d4e21e1a8894ec,6735ecd7509f9eadc38d427d,2024-11-14_06h28.58.731,Tarea de género gramatical,2024.2.2,Win32,59.88023952,,,,,,,,,,,,,,,,,,,,,,,,524.4987,525.7143,a,1,[],[],[],[],[],[],[],0.5458,1,525.7145,526.2141,,,,,,395,MAS,CON,150,correo,,l,0.5458,,526.2156,526.2169,-0.444444444,-0.068518533,0,0,0,,0,186,186,394,1,,,,
,,,,,,6c2ef6cacd3a4c41d06874e7,66a626ef09d4e21e1a8894ec,6735ecd7509f9eadc38d427d,2024-11-14_06h28.58.731,Tarea de género gramatical,2024.2.2,Win32,59.88023952,,,,,,,,,,,,,,,,,,,,,,,,526.218,527.364,a,1,[],[],[],[],[],[],[],0.4692,1,527.3641,527.8641,,,,,,358,MAS,AGR,150,motivo,el,l,0.4692,,527.8641,527.8642,-0.444444444,-0.068518533,0,0,0,,0,187,187,357,1,,,,
,,,,,,6c2ef6cacd3a4c41d06874e7,66a626ef09d4e21e1a8894ec,6735ecd7509f9eadc38d427d,2024-11-14_06h28.58.731,Tarea de género gramatical,2024.2.2,Win32,59.88023952,,,,,,,,,,,,,,,,,,,,,,,,527.8654,529.6139,a,1,[],[],[],[],[],[],[],1.0696,1,529.614,530.1146,,,,,,413,MAS,CON,150,diario,,l,1.0696,,530.1146,530.1147,-0.444444444,-0.068518533,0,0,0,,0,188,188,412,1,,,,
,,,,,,6c2ef6cacd3a4c41d06874e7,66a626ef09d4e21e1a8894ec,6735ecd7509f9eadc38d427d,2024-11-14_06h28.58.731,Tarea de género gramatical,2024.2.2,Win32,59.88023952,,,,,,,,,,,,,,,,,,,,,,,,530.1161,531.3138,a,1,[],[],[],[],[],[],[],0.5277,1,531.3139,531.8138,,,,,,263,MAS,CON,150,carro,,l,0.5277,,531.8138,531.814,-0.444444444,-0.068518533,0,0,0,,0,189,189,262,1,,,,
,,,,,,6c2ef6cacd3a4c41d06874e7,66a626ef09d4e21e1a8894ec,6735ecd7509f9eadc38d427d,2024-11-14_06h28.58.731,Tarea de género gramatical,2024.2.2,Win32,59.88023952,,,,,,,,,,,,,,,,,,,,,,,,531.8153,533.4806,l,0,[],[],[],[],[],[],[],0.9933,0,533.4817,533.9804,,,,,,232,MAS,AGR,150,calor,el,l,0.9933,,533.9804,533.9806,-0.444444444,-0.068518533,0,0,0,,0,190,190,231,1,,,,
,,,,,,6c2ef6cacd3a4c41d06874e7,66a626ef09d4e21e1a8894ec,6735ecd7509f9eadc38d427d,2024-11-14_06h28.58.731,Tarea de género gramatical,2024.2.2,Win32,59.88023952,,,,,,,,,,,,,,,,,,,,,,,,533.9818,535.4972,l,1,[],[],[],[],[],[],[],0.8339,1,535.4983,535.9971,,,,,,25,FEM,AGR,150,nave,la,a,0.8339,,535.9987,536.0001,-0.444444444,-0.068518533,0,0,0,,0,191,191,24,1,,,,
,,,,,,6c2ef6cacd3a4c41d06874e7,66a626ef09d4e21e1a8894ec,6735ecd7509f9eadc38d427d,2024-11-14_06h28.58.731,Tarea de género gramatical,2024.2.2,Win32,59.88023952,,,,,,,,,,,,,,,,,,,,,,,,536.0012,537.1971,a,1,[],[],[],[],[],[],[],0.5248,1,537.1972,537.6971,,,,,,280,MAS,AGR,150,salón,el,l,0.5248,,537.6972,537.6973,-0.444444444,-0.068518533,0,0,0,,0,192,192,279,1,,,,
,,,,,,6c2ef6cacd3a4c41d06874e7,66a626ef09d4e21e1a8894ec,6735ecd7509f9eadc38d427d,2024-11-14_06h28.58.731,Tarea de género gramatical,2024.2.2,Win32,59.88023952,,,,,,,,,,,,,,,,,,,,,,,,537.6985,539.1643,a,1,[],[],[],[],[],[],[],0.7967,1,539.1644,539.6642,,,,,,418,MAS,AGR,150,pájaro,el,l,0.7967,,539.6642,539.6644,-0.444444444,-0.068518533,0,0,0,,0,193,193,417,1,,,,
,,,,,,6c2ef6cacd3a4c41d06874e7,66a626ef09d4e21e1a8894ec,6735ecd7509f9eadc38d427d,2024-11-14_06h28.58.731,Tarea de género gramatical,2024.2.2,Win32,59.88023952,,,,,,,,,,,,,,,,,,,,,,,,539.6659,540.8136,a,1,[],[],[],[],[],[],[],0.4779,1,540.8137,541.3135,,,,,,190,MAS,AGR,150,campo,el,l,0.4779,,541.3136,541.3137,-0.444444444,-0.068518533,0,0,0,,0,194,194,189,1,,,,
,,,,,,6c2ef6cacd3a4c41d06874e7,66a626ef09d4e21e1a8894ec,6735ecd7509f9eadc38d427d,2024-11-14_06h28.58.731,Tarea de género gramatical,2024.2.2,Win32,59.88023952,,,,,,,,,,,,,,,,,,,,,,,,541.315,542.4971,l,1,[],[],[],[],[],[],[],0.5014,1,542.4972,542.997,,,,,,15,FEM,DIS,150,cama,el,a,0.5014,,542.9984,542.9993,-0.444444444,-0.068518533,0,0,0,,0,195,195,14,1,,,,
,,,,,,6c2ef6cacd3a4c41d06874e7,66a626ef09d4e21e1a8894ec,6735ecd7509f9eadc38d427d,2024-11-14_06h28.58.731,Tarea de género gramatical,2024.2.2,Win32,59.88023952,,,,,,,,,,,,,,,,,,,,,,,,543.0005,544.4302,a,1,[],[],[],[],[],[],[],0.7534,1,544.4304,544.9303,,,,,,148,MAS,AGR,150,surf,el,l,0.7534,,544.9304,544.9305,-0.444444444,-0.068518533,0,0,0,,0,196,196,147,1,,,,
,,,,,,6c2ef6cacd3a4c41d06874e7,66a626ef09d4e21e1a8894ec,6735ecd7509f9eadc38d427d,2024-11-14_06h28.58.731,Tarea de género gramatical,2024.2.2,Win32,59.88023952,,,,,,,,,,,,,,,,,,,,,,,,544.9318,546.3975,l,1,[],[],[],[],[],[],[],0.7932,1,546.3976,546.8972,,,,,,368,FEM,CON,150,gracia,,a,0.7932,,546.8973,546.8974,-0.444444444,-0.068518533,0,0,0,,0,197,197,367,1,,,,
,,,,,,6c2ef6cacd3a4c41d06874e7,66a626ef09d4e21e1a8894ec,6735ecd7509f9eadc38d427d,2024-11-14_06h28.58.731,Tarea de género gramatical,2024.2.2,Win32,59.88023952,,,,,,,,,,,,,,,,,,,,,,,,546.8986,548.4302,a,1,[],[],[],[],[],[],[],0.8611,1,548.4303,548.9303,,,,,,52,MAS,AGR,150,lago,el,l,0.8611,,548.9304,548.9304,-0.444444444,-0.068518533,0,0,0,,0,198,198,51,1,,,,
,,,,,,6c2ef6cacd3a4c41d06874e7,66a626ef09d4e21e1a8894ec,6735ecd7509f9eadc38d427d,2024-11-14_06h28.58.731,Tarea de género gramatical,2024.2.2,Win32,59.88023952,,,,,,,,,,,,,,,,,,,,,,,,548.9317,550.0973,l,1,[],[],[],[],[],[],[],0.4949,1,550.0974,550.5971,,,,,,356,FEM,CON,150,piedra,,a,0.4949,,550.5972,550.5973,-0.444444444,-0.068518533,0,0,0,,0,199,199,355,1,,,,
,,,,,,6c2ef6cacd3a4c41d06874e7,66a626ef09d4e21e1a8894ec,6735ecd7509f9eadc38d427d,2024-11-14_06h28.58.731,Tarea de género gramatical,2024.2.2,Win32,59.88023952,,,,,,,,,,,,,,,,,,,,,,,,550.5989,551.9638,a,1,[],[],[],[],[],[],[],0.6845,1,551.9639,552.4639,,,,,,184,MAS,AGR,150,cielo,el,l,0.6845,,552.4653,552.4665,-0.444444444,-0.068518533,0,0,0,,0,200,200,183,1,,,,
,,,,,,6c2ef6cacd3a4c41d06874e7,66a626ef09d4e21e1a8894ec,6735ecd7509f9eadc38d427d,2024-11-14_06h28.58.731,Tarea de género gramatical,2024.2.2,Win32,59.88023952,,,,,,,,,,,,,,,,,,,,,,,,552.4676,553.6802,l,1,[],[],[],[],[],[],[],0.5341,1,553.6803,554.1802,,,,,,157,FEM,AGR,150,madre,la,a,0.5341,,554.1802,554.1803,-0.444444444,-0.068518533,0,0,0,,0,201,201,156,1,,,,
,,,,,,6c2ef6cacd3a4c41d06874e7,66a626ef09d4e21e1a8894ec,6735ecd7509f9eadc38d427d,2024-11-14_06h28.58.731,Tarea de género gramatical,2024.2.2,Win32,59.88023952,,,,,,,,,,,,,,,,,,,,,,,,554.1817,555.3469,a,1,[],[],[],[],[],[],[],0.4852,1,555.347,555.8469,,,,,,340,MAS,AGR,150,pasado,el,l,0.4852,,555.847,555.847,-0.444444444,-0.068518533,0,0,0,,0,202,202,339,1,,,,
,,,,,,6c2ef6cacd3a4c41d06874e7,66a626ef09d4e21e1a8894ec,6735ecd7509f9eadc38d427d,2024-11-14_06h28.58.731,Tarea de género gramatical,2024.2.2,Win32,59.88023952,,,,,,,,,,,,,,,,,,,,,,,,555.8482,557.0134,l,1,[],[],[],[],[],[],[],0.4916,1,557.0136,557.5135,,,,,,45,FEM,DIS,150,isla,el,a,0.4916,,557.5135,557.5136,-0.444444444,-0.068518533,0,0,0,,0,203,203,44,1,,,,
,,,,,,6c2ef6cacd3a4c41d06874e7,66a626ef09d4e21e1a8894ec,6735ecd7509f9eadc38d427d,2024-11-14_06h28.58.731,Tarea de género gramatical,2024.2.2,Win32,59.88023952,,,,,,,,,,,,,,,,,,,,,,,,557.5148,558.7309,l,1,[],[],[],[],[],[],[],0.5444,1,558.731,559.2301,,,,,,26,FEM,CON,150,pena,,a,0.5444,,559.2315,559.2326,-0.444444444,-0.068518533,0,0,0,,0,204,204,25,1,,,,
,,,,,,6c2ef6cacd3a4c41d06874e7,66a626ef09d4e21e1a8894ec,6735ecd7509f9eadc38d427d,2024-11-14_06h28.58.731,Tarea de género gramatical,2024.2.2,Win32,59.88023952,,,,,,,,,,,,,,,,,,,,,,,,559.2337,560.4466,a,1,[],[],[],[],[],[],[],0.5448,1,560.4467,560.9469,,,,,,312,MAS,DIS,150,equipo,la,l,0.5448,,560.947,560.9471,-0.444444444,-0.068518533,0,0,0,,0,205,205,311,1,,,,
,,,,,,6c2ef6cacd3a4c41d06874e7,66a626ef09d4e21e1a8894ec,6735ecd7509f9eadc38d427d,2024-11-14_06h28.58.731,Tarea de género gramatical,2024.2.2,Win32,59.88023952,,,,,,,,,,,,,,,,,,,,,,,,560.9483,562.1469,l,1,[],[],[],[],[],[],[],0.5174,1,562.147,562.6469,,,,,,253,FEM,AGR,150,aldea,la,a,0.5174,,562.647,562.6471,-0.444444444,-0.068518533,0,0,0,,0,206,206,252,1,,,,
,,,,,,6c2ef6cacd3a4c41d06874e7,66a626ef09d4e21e1a8894ec,6735ecd7509f9eadc38d427d,2024-11-14_06h28.58.731,Tarea de género gramatical,2024.2.2,Win32,59.88023952,,,,,,,,,,,,,,,,,,,,,,,,562.6483,564.0302,l,1,[],[],[],[],[],[],[],0.7051,1,564.0302,564.5301,,,,,,38,FEM,CON,150,obra,,a,0.7051,,564.5302,564.5302,-0.444444444,-0.068518533,0,0,0,,0,207,207,37,1,,,,
,,,,,,6c2ef6cacd3a4c41d06874e7,66a626ef09d4e21e1a8894ec,6735ecd7509f9eadc38d427d,2024-11-14_06h28.58.731,Tarea de género gramatical,2024.2.2,Win32,59.88023952,,,,,,,,,,,,,,,,,,,,,,,,564.5315,565.8133,l,1,[],[],[],[],[],[],[],0.6113,1,565.8134,566.3137,,,,,,151,FEM,AGR,150,noche,la,a,0.6113,,566.3138,566.3139,-0.444444444,-0.068518533,0,0,0,,0,208,208,150,1,,,,
,,,,,,6c2ef6cacd3a4c41d06874e7,66a626ef09d4e21e1a8894ec,6735ecd7509f9eadc38d427d,2024-11-14_06h28.58.731,Tarea de género gramatical,2024.2.2,Win32,59.88023952,,,,,,,,,,,,,,,,,,,,,,,,566.3153,567.4466,l,1,[],[],[],[],[],[],[],0.4508,1,567.4468,567.9465,,,,,,337,FEM,AGR,150,escena,la,a,0.4508,,567.948,567.949,-0.444444444,-0.068518533,0,0,0,,0,209,209,336,1,,,,
,,,,,,6c2ef6cacd3a4c41d06874e7,66a626ef09d4e21e1a8894ec,6735ecd7509f9eadc38d427d,2024-11-14_06h28.58.731,Tarea de género gramatical,2024.2.2,Win32,59.88023952,,,,,,,,,,,,,,,,,,,,,,,,567.9502,569.0799,l,1,[],[],[],[],[],[],[],0.459,1,569.08,569.5799,,,,,,404,FEM,CON,150,gloria,,a,0.459,,569.58,569.5802,-0.444444444,-0.068518533,0,0,0,,0,210,210,403,1,,,,
,,,,,,6c2ef6cacd3a4c41d06874e7,66a626ef09d4e21e1a8894ec,6735ecd7509f9eadc38d427d,2024-11-14_06h28.58.731,Tarea de género gramatical,2024.2.2,Win32,59.88023952,,,,,,,,,,,,,,,,,,,,,,,,569.5814,571.3303,l,1,[],[],[],[],[],[],[],1.0744,1,571.3305,571.83,,,,,,85,FEM,AGR,150,gira,la,a,1.0744,,571.83,571.8302,-0.444444444,-0.068518533,0,0,0,,0,211,211,84,1,,,,
,,,,,,6c2ef6cacd3a4c41d06874e7,66a626ef09d4e21e1a8894ec,6735ecd7509f9eadc38d427d,2024-11-14_06h28.58.731,Tarea de género gramatical,2024.2.2,Win32,59.88023952,,,,,,,,,,,,,,,,,,,,,,,,571.8315,573.2464,a,1,[],[],[],[],[],[],[],0.7452,1,573.2466,573.7466,,,,,,48,MAS,DIS,150,loco,la,l,0.7452,,573.7467,573.7469,-0.444444444,-0.068518533,0,0,0,,0,212,212,47,1,,,,
,,,,,,6c2ef6cacd3a4c41d06874e7,66a626ef09d4e21e1a8894ec,6735ecd7509f9eadc38d427d,2024-11-14_06h28.58.731,Tarea de género gramatical,2024.2.2,Win32,59.88023952,,,,,,,,,,,,,,,,,,,,,,,,573.7482,575.2132,a,1,[],[],[],[],[],[],[],0.784,1,575.2133,575.7131,,,,,,156,MAS,DIS,150,amigo,la,l,0.784,,575.7146,575.7157,-0.444444444,-0.068518533,0,0,0,,0,213,213,155,1,,,,
,,,,,,6c2ef6cacd3a4c41d06874e7,66a626ef09d4e21e1a8894ec,6735ecd7509f9eadc38d427d,2024-11-14_06h28.58.731,Tarea de género gramatical,2024.2.2,Win32,59.88023952,,,,,,,,,,,,,,,,,,,,,,,,575.7167,576.8633,a,1,[],[],[],[],[],[],[],0.4742,1,576.8634,577.3632,,,,,,402,MAS,DIS,150,ladrón,la,l,0.4742,,577.3632,577.3633,-0.444444444,-0.068518533,0,0,0,,0,214,214,401,1,,,,
,,,,,,6c2ef6cacd3a4c41d06874e7,66a626ef09d4e21e1a8894ec,6735ecd7509f9eadc38d427d,2024-11-14_06h28.58.731,Tarea de género gramatical,2024.2.2,Win32,59.88023952,,,,,,,,,,,,,,,,,,,,,,,,577.3646,578.5296,l,1,[],[],[],[],[],[],[],0.4885,1,578.5298,579.0298,,,,,,218,FEM,CON,150,nieve,,a,0.4885,,579.0299,579.0299,-0.444444444,-0.068518533,0,0,0,,0,215,215,217,1,,,,
,,,,,,6c2ef6cacd3a4c41d06874e7,66a626ef09d4e21e1a8894ec,6735ecd7509f9eadc38d427d,2024-11-14_06h28.58.731,Tarea de género gramatical,2024.2.2,Win32,59.88023952,,,,,,,,,,,,,,,,,,,,,,,,579.0312,580.2964,l,1,[],[],[],[],[],[],[],0.585,1,580.2965,580.7965,,,,,,223,FEM,AGR,150,plata,la,a,0.585,,580.7966,580.7967,-0.444444444,-0.068518533,0,0,0,,0,216,216,222,1,,,,
,,,,,,6c2ef6cacd3a4c41d06874e7,66a626ef09d4e21e1a8894ec,6735ecd7509f9eadc38d427d,2024-11-14_06h28.58.731,Tarea de género gramatical,2024.2.2,Win32,59.88023952,,,,,,,,,,,,,,,,,,,,,,,,580.798,581.947,a,1,[],[],[],[],[],[],[],0.48,1,581.9472,582.4465,,,,,,84,MAS,DIS,150,mago,la,l,0.48,,582.4465,582.4466,-0.444444444,-0.068518533,0,0,0,,0,217,217,83,1,,,,
,,,,,,6c2ef6cacd3a4c41d06874e7,66a626ef09d4e21e1a8894ec,6735ecd7509f9eadc38d427d,2024-11-14_06h28.58.731,Tarea de género gramatical,2024.2.2,Win32,59.88023952,,,,,,,,,,,,,,,,,,,,,,,,582.4479,583.7797,l,1,[],[],[],[],[],[],[],0.6579,1,583.7799,584.2798,,,,,,177,FEM,DIS,150,broma,el,a,0.6579,,584.2813,584.2824,-0.444444444,-0.068518533,0,0,0,,0,218,218,176,1,,,,
,,,,,,6c2ef6cacd3a4c41d06874e7,66a626ef09d4e21e1a8894ec,6735ecd7509f9eadc38d427d,2024-11-14_06h28.58.731,Tarea de género gramatical,2024.2.2,Win32,59.88023952,,,,,,,,,,,,,,,,,,,,,,,,584.2834,585.4132,l,1,[],[],[],[],[],[],[],0.4508,1,585.4132,585.9132,,,,,,122,FEM,CON,150,loca,,a,0.4508,,585.9133,585.9134,-0.444444444,-0.068518533,0,0,0,,0,219,219,121,1,,,,
,,,,,,6c2ef6cacd3a4c41d06874e7,66a626ef09d4e21e1a8894ec,6735ecd7509f9eadc38d427d,2024-11-14_06h28.58.731,Tarea de género gramatical,2024.2.2,Win32,59.88023952,,,,,,,,,,,,,,,,,,,,,,,,585.9146,587.0964,a,1,[],[],[],[],[],[],[],0.5055,1,587.0966,587.5965,,,,,,77,MAS,CON,150,pico,,l,0.5055,,587.5965,587.5966,-0.444444444,-0.068518533,0,0,0,,0,220,220,76,1,,,,
,,,,,,6c2ef6cacd3a4c41d06874e7,66a626ef09d4e21e1a8894ec,6735ecd7509f9eadc38d427d,2024-11-14_06h28.58.731,Tarea de género gramatical,2024.2.2,Win32,59.88023952,,,,,,,,,,,,,,,,,,,,,,,,587.5978,588.8129,l,1,[],[],[],[],[],[],[],0.5427,1,588.8131,589.3129,,,,,,397,FEM,AGR,150,cuerda,la,a,0.5427,,589.313,589.3131,-0.444444444,-0.068518533,0,0,0,,0,221,221,396,1,,,,
,,,,,,6c2ef6cacd3a4c41d06874e7,66a626ef09d4e21e1a8894ec,6735ecd7509f9eadc38d427d,2024-11-14_06h28.58.731,Tarea de género gramatical,2024.2.2,Win32,59.88023952,,,,,,,,,,,,,,,,,,,,,,,,589.3143,590.8297,l,1,[],[],[],[],[],[],[],0.8458,1,590.8298,591.3296,,,,,,187,FEM,AGR,150,lista,la,a,0.8458,,591.3311,591.3319,-0.444444444,-0.068518533,0,0,0,,0,222,222,186,1,,,,
,,,,,,6c2ef6cacd3a4c41d06874e7,66a626ef09d4e21e1a8894ec,6735ecd7509f9eadc38d427d,2024-11-14_06h28.58.731,Tarea de género gramatical,2024.2.2,Win32,59.88023952,,,,,,,,,,,,,,,,,,,,,,,,591.333,592.5629,a,1,[],[],[],[],[],[],[],0.5623,1,592.5631,593.0629,,,,,,130,MAS,AGR,150,yate,el,l,0.5623,,593.063,593.0631,-0.444444444,-0.068518533,0,0,0,,0,223,223,129,1,,,,
,,,,,,6c2ef6cacd3a4c41d06874e7,66a626ef09d4e21e1a8894ec,6735ecd7509f9eadc38d427d,2024-11-14_06h28.58.731,Tarea de género gramatical,2024.2.2,Win32,59.88023952,,,,,,,,,,,,,,,,,,,,,,,,593.0643,594.1963,a,1,[],[],[],[],[],[],[],0.4573,1,594.1964,594.6963,,,,,,196,MAS,AGR,150,barco,el,l,0.4573,,594.6963,594.6964,-0.444444444,-0.068518533,0,0,0,,0,224,224,195,1,,,,
,,,,,,6c2ef6cacd3a4c41d06874e7,66a626ef09d4e21e1a8894ec,6735ecd7509f9eadc38d427d,2024-11-14_06h28.58.731,Tarea de género gramatical,2024.2.2,Win32,59.88023952,,,,,,,,,,,,,,,,,,,,,,,,594.6977,595.9965,a,1,[],[],[],[],[],[],[],0.6265,1,595.9968,596.4961,,,,,,372,MAS,DIS,150,delito,la,l,0.6265,,596.4962,596.4962,-0.444444444,-0.068518533,0,0,0,,0,225,225,371,1,,,,
,,,,,,6c2ef6cacd3a4c41d06874e7,66a626ef09d4e21e1a8894ec,6735ecd7509f9eadc38d427d,2024-11-14_06h28.58.731,Tarea de género gramatical,2024.2.2,Win32,59.88023952,,,,,,,,,,,,,,,,,,,,,,,,596.4976,597.7296,a,1,[],[],[],[],[],[],[],0.5592,1,597.7297,598.2298,,,,,,192,MAS,DIS,150,grupo,la,l,0.5592,,598.23,598.2301,-0.444444444,-0.068518533,0,0,0,,0,226,226,191,1,,,,
,,,,,,6c2ef6cacd3a4c41d06874e7,66a626ef09d4e21e1a8894ec,6735ecd7509f9eadc38d427d,2024-11-14_06h28.58.731,Tarea de género gramatical,2024.2.2,Win32,59.88023952,,,,,,,,,,,,,,,,,,,,,,,,598.2312,599.5295,l,1,[],[],[],[],[],[],[],0.6263,1,599.5296,600.0295,,,,,,193,FEM,AGR,150,bolsa,la,a,0.6263,,600.0311,600.0321,-0.444444444,-0.068518533,0,0,0,,0,227,227,192,1,,,,
,,,,,,6c2ef6cacd3a4c41d06874e7,66a626ef09d4e21e1a8894ec,6735ecd7509f9eadc38d427d,2024-11-14_06h28.58.731,Tarea de género gramatical,2024.2.2,Win32,59.88023952,,,,,,,,,,,,,,,,,,,,,,,,600.0331,601.3128,l,1,[],[],[],[],[],[],[],0.601,1,601.3129,601.813,,,,,,351,FEM,DIS,150,espada,el,a,0.601,,601.813,601.8131,-0.444444444,-0.068518533,0,0,0,,0,228,228,350,1,,,,
,,,,,,6c2ef6cacd3a4c41d06874e7,66a626ef09d4e21e1a8894ec,6735ecd7509f9eadc38d427d,2024-11-14_06h28.58.731,Tarea de género gramatical,2024.2.2,Win32,59.88023952,,,,,,,,,,,,,,,,,,,,,,,,601.8146,603.0462,a,1,[],[],[],[],[],[],[],0.5529,1,603.0464,603.5462,,,,,,154,MAS,AGR,150,padre,el,l,0.5529,,603.5462,603.5463,-0.444444444,-0.068518533,0,0,0,,0,229,229,153,1,,,,
,,,,,,6c2ef6cacd3a4c41d06874e7,66a626ef09d4e21e1a8894ec,6735ecd7509f9eadc38d427d,2024-11-14_06h28.58.731,Tarea de género gramatical,2024.2.2,Win32,59.88023952,,,,,,,,,,,,,,,,,,,,,,,,603.5475,604.7794,a,1,[],[],[],[],[],[],[],0.5536,1,604.7796,605.2795,,,,,,35,MAS,CON,150,taxi,,l,0.5536,,605.2796,605.2797,-0.444444444,-0.068518533,0,0,0,,0,230,230,34,1,,,,
,,,,,,6c2ef6cacd3a4c41d06874e7,66a626ef09d4e21e1a8894ec,6735ecd7509f9eadc38d427d,2024-11-14_06h28.58.731,Tarea de género gramatical,2024.2.2,Win32,59.88023952,,,,,,,,,,,,,,,,,,,,,,,,605.2809,606.6128,a,1,[],[],[],[],[],[],[],0.6508,1,606.6129,607.1129,,,,,,166,MAS,AGR,150,coche,el,l,0.6508,,607.1143,607.1152,-0.444444444,-0.068518533,0,0,0,,0,231,231,165,1,,,,
,,,,,,6c2ef6cacd3a4c41d06874e7,66a626ef09d4e21e1a8894ec,6735ecd7509f9eadc38d427d,2024-11-14_06h28.58.731,Tarea de género gramatical,2024.2.2,Win32,59.88023952,,,,,,,,,,,,,,,,,,,,,,,,607.1163,608.4628,a,1,[],[],[],[],[],[],[],0.6692,1,608.4629,608.9628,,,,,,150,MAS,DIS,150,mozo,la,l,0.6692,,608.9628,608.963,-0.444444444,-0.068518533,0,0,0,,0,232,232,149,1,,,,
,,,,,,6c2ef6cacd3a4c41d06874e7,66a626ef09d4e21e1a8894ec,6735ecd7509f9eadc38d427d,2024-11-14_06h28.58.731,Tarea de género gramatical,2024.2.2,Win32,59.88023952,,,,,,,,,,,,,,,,,,,,,,,,608.9642,610.1797,a,1,[],[],[],[],[],[],[],0.5342,1,610.1798,610.6799,,,,,,233,MAS,CON,150,golpe,,l,0.5342,,610.68,610.68,-0.444444444,-0.068518533,0,0,0,,0,233,233,232,1,,,,
,,,,,,6c2ef6cacd3a4c41d06874e7,66a626ef09d4e21e1a8894ec,6735ecd7509f9eadc38d427d,2024-11-14_06h28.58.731,Tarea de género gramatical,2024.2.2,Win32,59.88023952,,,,,,,,,,,,,,,,,,,,,,,,610.6816,612.046,a,1,[],[],[],[],[],[],[],0.6903,1,612.0461,612.546,,,,,,124,MAS,AGR,150,clan,el,l,0.6903,,612.5461,612.5462,-0.444444444,-0.068518533,0,0,0,,0,234,234,123,1,,,,
,,,,,,6c2ef6cacd3a4c41d06874e7,66a626ef09d4e21e1a8894ec,6735ecd7509f9eadc38d427d,2024-11-14_06h28.58.731,Tarea de género gramatical,2024.2.2,Win32,59.88023952,,,,,,,,,,,,,,,,,,,,,,,,612.5475,613.8961,l,1,[],[],[],[],[],[],[],0.6767,1,613.8962,614.3962,,,,,,37,FEM,AGR,150,sala,la,a,0.6767,,614.3962,614.3963,-0.444444444,-0.068518533,0,0,0,,0,235,235,36,1,,,,
,,,,,,6c2ef6cacd3a4c41d06874e7,66a626ef09d4e21e1a8894ec,6735ecd7509f9eadc38d427d,2024-11-14_06h28.58.731,Tarea de género gramatical,2024.2.2,Win32,59.88023952,,,,,,,,,,,,,,,,,,,,,,,,614.3977,615.8643,l,1,[],[],[],[],[],[],[],0.7981,1,615.8645,616.3628,,,,,,249,FEM,DIS,150,crema,el,a,0.7981,,616.3642,616.3653,-0.444444444,-0.068518533,0,0,0,,0,236,236,248,1,,,,
,,,,,,6c2ef6cacd3a4c41d06874e7,66a626ef09d4e21e1a8894ec,6735ecd7509f9eadc38d427d,2024-11-14_06h28.58.731,Tarea de género gramatical,2024.2.2,Win32,59.88023952,,,,,,,,,,,,,,,,,,,,,,,,616.3663,617.4628,a,1,[],[],[],[],[],[],[],0.4216,1,617.4629,617.9625,,,,,,66,MAS,DIS,150,muro,la,l,0.4216,,617.9626,617.9626,-0.444444444,-0.068518533,0,0,0,,0,237,237,65,1,,,,
,,,,,,6c2ef6cacd3a4c41d06874e7,66a626ef09d4e21e1a8894ec,6735ecd7509f9eadc38d427d,2024-11-14_06h28.58.731,Tarea de género gramatical,2024.2.2,Win32,59.88023952,,,,,,,,,,,,,,,,,,,,,,,,617.9639,619.2961,a,1,[],[],[],[],[],[],[],0.6565,1,619.2962,619.7959,,,,,,377,MAS,CON,150,jardín,,l,0.6565,,619.7959,619.796,-0.444444444,-0.068518533,0,0,0,,0,238,238,376,1,,,,
,,,,,,6c2ef6cacd3a4c41d06874e7,66a626ef09d4e21e1a8894ec,6735ecd7509f9eadc38d427d,2024-11-14_06h28.58.731,Tarea de género gramatical,2024.2.2,Win32,59.88023952,,,,,,,,,,,,,,,,,,,,,,,,619.7972,620.7958,a,1,[],[],[],[],[],[],[],0.319,1,620.7959,621.2959,,,,,,221,MAS,CON,150,brazo,,l,0.319,,621.296,621.2961,-0.444444444,-0.068518533,0,0,0,,0,239,239,220,1,,,,
,,,,,,6c2ef6cacd3a4c41d06874e7,66a626ef09d4e21e1a8894ec,6735ecd7509f9eadc38d427d,2024-11-14_06h28.58.731,Tarea de género gramatical,2024.2.2,Win32,59.88023952,,,,,,,,,,,,,,,,,,,,,,,,621.2973,622.796,l,1,[],[],[],[],[],[],[],0.8218,1,622.796,623.2958,,,,,,99,FEM,DIS,150,fase,el,a,0.8218,,623.2972,623.2984,-0.444444444,-0.068518533,0,0,0,,0,240,240,98,1,,,,
,,,,,,6c2ef6cacd3a4c41d06874e7,66a626ef09d4e21e1a8894ec,6735ecd7509f9eadc38d427d,2024-11-14_06h28.58.731,Tarea de género gramatical,2024.2.2,Win32,59.88023952,,,,,,,,,,,,,,,,,,,,,,,,623.2994,624.4793,l,1,[],[],[],[],[],[],[],0.5014,1,624.4794,624.9793,,,,,,277,FEM,AGR,150,plaza,la,a,0.5014,,624.9793,624.9794,-0.444444444,-0.068518533,0,0,0,,0,241,241,276,1,,,,
,,,,,,6c2ef6cacd3a4c41d06874e7,66a626ef09d4e21e1a8894ec,6735ecd7509f9eadc38d427d,2024-11-14_06h28.58.731,Tarea de género gramatical,2024.2.2,Win32,59.88023952,,,,,,,,,,,,,,,,,,,,,,,,624.9807,626.113,l,1,[],[],[],[],[],[],[],0.4519,1,626.1131,626.6125,,,,,,7,FEM,AGR,150,hora,la,a,0.4519,,626.6126,626.6126,-0.444444444,-0.068518533,0,0,0,,0,242,242,6,1,,,,
,,,,,,6c2ef6cacd3a4c41d06874e7,66a626ef09d4e21e1a8894ec,6735ecd7509f9eadc38d427d,2024-11-14_06h28.58.731,Tarea de género gramatical,2024.2.2,Win32,59.88023952,,,,,,,,,,,,,,,,,,,,,,,,626.6139,628.0458,l,1,[],[],[],[],[],[],[],0.7506,1,628.0459,628.546,,,,,,386,FEM,CON,150,sombra,,a,0.7506,,628.546,628.5461,-0.444444444,-0.068518533,0,0,0,,0,243,243,385,1,,,,
,,,,,,6c2ef6cacd3a4c41d06874e7,66a626ef09d4e21e1a8894ec,6735ecd7509f9eadc38d427d,2024-11-14_06h28.58.731,Tarea de género gramatical,2024.2.2,Win32,59.88023952,,,,,,,,,,,,,,,,,,,,,,,,628.5474,629.6959,a,1,[],[],[],[],[],[],[],0.467,1,629.6959,630.1958,,,,,,426,MAS,DIS,150,pánico,la,l,0.467,,630.1959,630.196,-0.444444444,-0.068518533,0,0,0,,0,244,244,425,1,,,,
,,,,,,6c2ef6cacd3a4c41d06874e7,66a626ef09d4e21e1a8894ec,6735ecd7509f9eadc38d427d,2024-11-14_06h28.58.731,Tarea de género gramatical,2024.2.2,Win32,59.88023952,,,,,,,,,,,,,,,,,,,,,,,,630.1973,631.3459,l,1,[],[],[],[],[],[],[],0.4692,1,631.346,631.8458,,,,,,403,FEM,AGR,150,paliza,la,a,0.4692,,631.8473,631.8486,-0.444444444,-0.068518533,0,0,0,,0,245,245,402,1,,,,
,,,,,,6c2ef6cacd3a4c41d06874e7,66a626ef09d4e21e1a8894ec,6735ecd7509f9eadc38d427d,2024-11-14_06h28.58.731,Tarea de género gramatical,2024.2.2,Win32,59.88023952,,,,,,,,,,,,,,,,,,,,,,,,631.8497,633.1625,a,1,[],[],[],[],[],[],[],0.6384,1,633.1626,633.6625,,,,,,6,MAS,DIS,150,lado,la,l,0.6384,,633.6625,633.6626,-0.444444444,-0.068518533,0,0,0,,0,246,246,5,1,,,,
,,,,,,6c2ef6cacd3a4c41d06874e7,66a626ef09d4e21e1a8894ec,6735ecd7509f9eadc38d427d,2024-11-14_06h28.58.731,Tarea de género gramatical,2024.2.2,Win32,59.88023952,,,,,,,,,,,,,,,,,,,,,,,,633.6639,635.1123,l,1,[],[],[],[],[],[],[],0.768,1,635.1125,635.6127,,,,,,278,FEM,CON,150,presa,,a,0.768,,635.6128,635.6129,-0.444444444,-0.068518533,0,0,0,,0,247,247,277,1,,,,
,,,,,,6c2ef6cacd3a4c41d06874e7,66a626ef09d4e21e1a8894ec,6735ecd7509f9eadc38d427d,2024-11-14_06h28.58.731,Tarea de género gramatical,2024.2.2,Win32,59.88023952,,,,,,,,,,,,,,,,,,,,,,,,635.6141,636.9131,a,1,[],[],[],[],[],[],[],0.6176,1,636.9132,637.4124,,,,,,311,MAS,CON,150,camino,,l,0.6176,,637.4125,637.4126,-0.444444444,-0.068518533,0,0,0,,0,248,248,310,1,,,,
,,,,,,6c2ef6cacd3a4c41d06874e7,66a626ef09d4e21e1a8894ec,6735ecd7509f9eadc38d427d,2024-11-14_06h28.58.731,Tarea de género gramatical,2024.2.2,Win32,59.88023952,,,,,,,,,,,,,,,,,,,,,,,,637.4139,638.8456,a,1,[],[],[],[],[],[],[],0.751,1,638.8458,639.3456,,,,,,46,MAS,AGR,150,odio,el,l,0.751,,639.3472,639.3483,-0.444444444,-0.068518533,0,0,0,,0,249,249,45,1,,,,
,,,,,,6c2ef6cacd3a4c41d06874e7,66a626ef09d4e21e1a8894ec,6735ecd7509f9eadc38d427d,2024-11-14_06h28.58.731,Tarea de género gramatical,2024.2.2,Win32,59.88023952,,,,,,,,,,,,,,,,,,,,,,,,639.3498,640.4955,l,1,[],[],[],[],[],[],[],0.4763,1,640.4956,640.9956,,,,,,254,FEM,CON,150,caída,,a,0.4763,,640.9957,640.9958,-0.444444444,-0.068518533,0,0,0,,0,250,250,253,1,,,,
