counterbalancing_condition,consent_prescreening.block_1/declare_consent,consent_prescreening.block_1/age_years,consent_prescreening.block_1/gender,consent_prescreening.block_1/language_disorder,consent_prescreening.block_1/first_language,PROLIFIC_PID,STUDY_ID,SESSION_ID,date,expName,psychopyVersion,OS,frameRate,check_prescreening_answers.started,check_prescreening_answers.stopped,Instructions.started,Instructions.stopped,instr_done_keyboard.keys,instr_done_touch.x,instr_done_touch.y,instr_done_touch.leftButton,instr_done_touch.midButton,instr_done_touch.rightButton,instr_done_touch.clicked_name,instruction_pages.thisRepN,instruction_pages.thisTrialN,instruction_pages.thisN,instruction_pages.thisIndex,instruction_pages.ran,pageN,phase,instruct_text,has_image,instruct_image,instr_done_keyboard.rt,instr_done_keyboard.duration,presentTrial.started,presentTrial.stopped,response.keys,response.corr,response.rt,response.duration,touch_resp.x,touch_resp.y,touch_resp.leftButton,touch_resp.midButton,touch_resp.rightButton,touch_resp.time,touch_resp.clicked_name,rt,corr,feedback.started,feedback.stopped,practice_trials.thisRepN,practice_trials.thisTrialN,practice_trials.thisN,practice_trials.thisIndex,practice_trials.ran,TrialID,StimulusType,Condition,PrimeDuration,Prime,Flanker,corrAns,Break.started,Break.stopped,break_done_touch.x,break_done_touch.y,break_done_touch.leftButton,break_done_touch.midButton,break_done_touch.rightButton,break_done_keyboard.keys,experiment_trials.thisRepN,experiment_trials.thisTrialN,experiment_trials.thisN,experiment_trials.thisIndex,experiment_trials.ran,break_done_keyboard.rt,break_done_keyboard.duration,break_done_touch.clicked_name,End.started,End.stopped
2,"[""read_info"",""comfortable"",""over_18"",""consent_given""]",33,M,"[""none""]","[""spanish""]",6e8d122fb06f57bcc3e4eec9,66a626ef09d4e21e1a8894ec,6734d679253f396591765f3f,2024-11-13_13h55.28.562,Tarea de género gramatical,2024.2.2,Win32,67.11409396,,,,,,,,,,,,,,,,,,,,,,,,,,,,,,,,,,,,,,,,,,,,,,,,,,,,,,,,,,,,,,,,,,,,,,
,,,,,,6e8d122fb06f57bcc3e4eec9,66a626ef09d4e21e1a8894ec,6734d679253f396591765f3f,2024-11-13_13h55.28.562,Tarea de género gramatical,2024.2.2,Win32,67.11409396,29.7902,29.7904,,,,,,,,,,,,,,,,,,,,,,,,,,,,,,,,,,,,,,,,,,,,,,,,,,,,,,,,,,,,,,,,,,,,
,,,,,,6e8d122fb06f57bcc3e4eec9,66a626ef09d4e21e1a8894ec,6734d679253f396591765f3f,2024-11-13_13h55.28.562,Tarea de género gramatical,2024.2.2,Win32,67.11409396,,,29.8122,48.2639,,0.053761721,-0.400692968,1,0,0,instr_done_button,0,0,0,0,1,1,instructions,"INSTRUCCIONES
Va a realizar una prueba de selección gramatical. Desde el comienzo de la prueba mire siempre al centro de la pantalla. Al cabo de un momento, aparecerán palabras. La tarea consiste en determinar si la palabra del centro (siempre será un sustantivo), pertenece al género masculino o femenino.

Pulse la tecla ESPACIO o toque el botón de abajo para continuar.",0,keyboardresponseMF.png,,,,,,,,,,,,,,,,,,,,,,,,,,,,,,,,,,,,,,,,,,,,,,,,,
,,,,,,6e8d122fb06f57bcc3e4eec9,66a626ef09d4e21e1a8894ec,6734d679253f396591765f3f,2024-11-13_13h55.28.562,Tarea de género gramatical,2024.2.2,Win32,67.11409396,,,48.2662,58.131,space,-0.222039222,-0.040030093,0,0,0,,0,1,1,1,1,2,instructions,"Si su dispositivo tiene teclado, pulse la tecla ""A"" para las palabras en masculino (por ejemplo: ""arroz"") y la tecla ""L"" para las palabras en femenino (por ejemplo: ""mano"").
Pulse la tecla ESPACIO o toque el botón de abajo para continuar.",1,keyboardresponseMF.png,9.8151,,,,,,,,,,,,,,,,,,,,,,,,,,,,,,,,,,,,,,,,,,,,,,,,
,,,,,,6e8d122fb06f57bcc3e4eec9,66a626ef09d4e21e1a8894ec,6734d679253f396591765f3f,2024-11-13_13h55.28.562,Tarea de género gramatical,2024.2.2,Win32,67.11409396,,,58.1337,73.2302,space,-0.457338044,-0.397799902,0,0,0,,0,2,2,2,1,3,instructions,"Si utiliza un dispositivo sólo táctil, colóquelo en horizontal y utilice los botones de la pantalla. No utilice el ratón.
Pulse la tecla ESPACIO o toque el botón de abajo para continuar.",2,touchresponseMF.png,15.0622,,,,,,,,,,,,,,,,,,,,,,,,,,,,,,,,,,,,,,,,,,,,,,,,
,,,,,,6e8d122fb06f57bcc3e4eec9,66a626ef09d4e21e1a8894ec,6734d679253f396591765f3f,2024-11-13_13h55.28.562,Tarea de género gramatical,2024.2.2,Win32,67.11409396,,,73.2329,84.8819,space,-0.457338044,-0.397799902,0,0,0,,0,3,3,3,1,4,instructions,"Es muy importante que responda con la mayor rapidez y precisión posibles, ya que cada cadena de letras sólo estará en pantalla durante un instante. Si no responde en ese tiempo, aparecerá el mensaje ""Muy lento"" y el experimento pasará a la siguiente palabra. Los primeros 15 intentos serán de práctica y habrá dos descansos durante la prueba.
Pulse la tecla ESPACIO o toque el botón de abajo para iniciar la parte de práctica.",0,keyboardresponseMF.png,11.6363,,,,,,,,,,,,,,,,,,,,,,,,,,,,,,,,,,,,,,,,,,,,,,,,
,,,,,,6e8d122fb06f57bcc3e4eec9,66a626ef09d4e21e1a8894ec,6734d679253f396591765f3f,2024-11-13_13h55.28.562,Tarea de género gramatical,2024.2.2,Win32,67.11409396,,,,,,,,,,,,,,,,,,,,,,,,84.8984,86.4803,a,1,0.8998,,[],[],[],[],[],[],[],0.8998,1,86.4807,86.982,0,0,0,11,1,2012,MAS,DIS,150,clima,la,l,,,,,,,,,,,,,,,,,,
,,,,,,6e8d122fb06f57bcc3e4eec9,66a626ef09d4e21e1a8894ec,6734d679253f396591765f3f,2024-11-13_13h55.28.562,Tarea de género gramatical,2024.2.2,Win32,67.11409396,,,,,,,,,,,,,,,,,,,,,,,,86.9837,88.6315,l,0,0.9668,,[],[],[],[],[],[],[],0.9668,0,88.6328,89.1294,0,1,1,14,1,2015,MAS,DIS,150,robot,la,l,,,,,,,,,,,,,,,,,,
,,,,,,6e8d122fb06f57bcc3e4eec9,66a626ef09d4e21e1a8894ec,6734d679253f396591765f3f,2024-11-13_13h55.28.562,Tarea de género gramatical,2024.2.2,Win32,67.11409396,,,,,,,,,,,,,,,,,,,,,,,,89.1305,91.0979,a,1,1.3021,,[],[],[],[],[],[],[],1.3021,1,91.0986,91.5963,0,2,2,10,1,2011,MAS,CON,150,canal,,l,,,,,,,,,,,,,,,,,,
,,,,,,6e8d122fb06f57bcc3e4eec9,66a626ef09d4e21e1a8894ec,6734d679253f396591765f3f,2024-11-13_13h55.28.562,Tarea de género gramatical,2024.2.2,Win32,67.11409396,,,,,,,,,,,,,,,,,,,,,,,,91.5975,93.1152,l,1,0.8359,,[],[],[],[],[],[],[],0.8359,1,93.1153,93.6127,0,3,3,4,1,2005,FEM,CON,150,placa,,a,,,,,,,,,,,,,,,,,,
,,,,,,6e8d122fb06f57bcc3e4eec9,66a626ef09d4e21e1a8894ec,6734d679253f396591765f3f,2024-11-13_13h55.28.562,Tarea de género gramatical,2024.2.2,Win32,67.11409396,,,,,,,,,,,,,,,,,,,,,,,,93.6141,94.9817,l,1,0.6851,,[],[],[],[],[],[],[],0.6851,1,94.9818,95.4812,0,4,4,2,1,2003,FEM,DIS,150,daga,el,a,,,,,,,,,,,,,,,,,,
,,,,,,6e8d122fb06f57bcc3e4eec9,66a626ef09d4e21e1a8894ec,6734d679253f396591765f3f,2024-11-13_13h55.28.562,Tarea de género gramatical,2024.2.2,Win32,67.11409396,,,,,,,,,,,,,,,,,,,,,,,,95.4822,96.7795,l,1,0.6305,,[],[],[],[],[],[],[],0.6305,1,96.7796,97.2788,0,5,5,1,1,2002,FEM,CON,150,pala,,a,,,,,,,,,,,,,,,,,,
,,,,,,6e8d122fb06f57bcc3e4eec9,66a626ef09d4e21e1a8894ec,6734d679253f396591765f3f,2024-11-13_13h55.28.562,Tarea de género gramatical,2024.2.2,Win32,67.11409396,,,,,,,,,,,,,,,,,,,,,,,,97.28,98.68,a,1,0.7174,,[],[],[],[],[],[],[],0.7174,1,98.6802,99.1959,0,6,6,13,1,2014,MAS,CON,150,siglo,,l,,,,,,,,,,,,,,,,,,
,,,,,,6e8d122fb06f57bcc3e4eec9,66a626ef09d4e21e1a8894ec,6734d679253f396591765f3f,2024-11-13_13h55.28.562,Tarea de género gramatical,2024.2.2,Win32,67.11409396,,,,,,,,,,,,,,,,,,,,,,,,99.1967,100.6816,l,1,0.8195,,[],[],[],[],[],[],[],0.8195,1,100.6818,101.1795,0,7,7,5,1,2006,FEM,DIS,150,serie,el,a,,,,,,,,,,,,,,,,,,
,,,,,,6e8d122fb06f57bcc3e4eec9,66a626ef09d4e21e1a8894ec,6734d679253f396591765f3f,2024-11-13_13h55.28.562,Tarea de género gramatical,2024.2.2,Win32,67.11409396,,,,,,,,,,,,,,,,,,,,,,,,101.1808,102.3474,l,1,0.5146,,[],[],[],[],[],[],[],0.5146,1,102.3474,102.8405,0,8,8,7,1,2008,FEM,CON,150,siesta,,a,,,,,,,,,,,,,,,,,,
,,,,,,6e8d122fb06f57bcc3e4eec9,66a626ef09d4e21e1a8894ec,6734d679253f396591765f3f,2024-11-13_13h55.28.562,Tarea de género gramatical,2024.2.2,Win32,67.11409396,,,,,,,,,,,,,,,,,,,,,,,,102.8417,103.9977,a,1,0.5006,,[],[],[],[],[],[],[],0.5006,1,103.9978,104.4961,0,9,9,9,1,2010,MAS,AGR,150,vecino,el,l,,,,,,,,,,,,,,,,,,
,,,,,,6e8d122fb06f57bcc3e4eec9,66a626ef09d4e21e1a8894ec,6734d679253f396591765f3f,2024-11-13_13h55.28.562,Tarea de género gramatical,2024.2.2,Win32,67.11409396,,,,,,,,,,,,,,,,,,,,,,,,104.4976,105.8968,l,0,0.7326,,[],[],[],[],[],[],[],0.7326,0,105.8975,106.3976,0,10,10,8,1,2009,MAS,DIS,150,puerto,la,l,,,,,,,,,,,,,,,,,,
,,,,,,6e8d122fb06f57bcc3e4eec9,66a626ef09d4e21e1a8894ec,6734d679253f396591765f3f,2024-11-13_13h55.28.562,Tarea de género gramatical,2024.2.2,Win32,67.11409396,,,,,,,,,,,,,,,,,,,,,,,,106.3984,107.9152,a,1,0.8511,,[],[],[],[],[],[],[],0.8511,1,107.9161,108.4134,0,11,11,12,1,2013,MAS,AGR,150,acero,el,l,,,,,,,,,,,,,,,,,,
,,,,,,6e8d122fb06f57bcc3e4eec9,66a626ef09d4e21e1a8894ec,6734d679253f396591765f3f,2024-11-13_13h55.28.562,Tarea de género gramatical,2024.2.2,Win32,67.11409396,,,,,,,,,,,,,,,,,,,,,,,,108.4144,109.6467,l,1,0.5666,,[],[],[],[],[],[],[],0.5666,1,109.6468,110.1464,0,12,12,6,1,2007,FEM,AGR,150,navaja,la,a,,,,,,,,,,,,,,,,,,
,,,,,,6e8d122fb06f57bcc3e4eec9,66a626ef09d4e21e1a8894ec,6734d679253f396591765f3f,2024-11-13_13h55.28.562,Tarea de género gramatical,2024.2.2,Win32,67.11409396,,,,,,,,,,,,,,,,,,,,,,,,110.1472,111.8471,a,0,1.0324,,[],[],[],[],[],[],[],1.0324,0,111.848,112.3477,0,13,13,3,1,2004,FEM,AGR,150,venta,la,a,,,,,,,,,,,,,,,,,,
,,,,,,6e8d122fb06f57bcc3e4eec9,66a626ef09d4e21e1a8894ec,6734d679253f396591765f3f,2024-11-13_13h55.28.562,Tarea de género gramatical,2024.2.2,Win32,67.11409396,,,,,,,,,,,,,,,,,,,,,,,,112.3487,113.8633,l,1,0.8464,,[],[],[],[],[],[],[],0.8464,1,113.8642,114.363,0,14,14,0,1,2001,FEM,AGR,150,nuca,la,a,,,,,,,,,,,,,,,,,,
,,,,,,6e8d122fb06f57bcc3e4eec9,66a626ef09d4e21e1a8894ec,6734d679253f396591765f3f,2024-11-13_13h55.28.562,Tarea de género gramatical,2024.2.2,Win32,67.11409396,,,117.8504,120.8811,space,-0.457338044,-0.397799902,0,0,0,,,,,,,,,,,,3.0182,,120.9247,122.231,l,1,0.6334,,[],[],[],[],[],[],[],0.6334,1,122.2311,122.7207,,,,,,1003,FEM,DIS,150,fama,el,a,122.721,122.7242,-0.457338044,-0.397799902,0,0,0,,0,0,0,102,1,,,,,
,,,,,,6e8d122fb06f57bcc3e4eec9,66a626ef09d4e21e1a8894ec,6734d679253f396591765f3f,2024-11-13_13h55.28.562,Tarea de género gramatical,2024.2.2,Win32,67.11409396,,,,,,,,,,,,,,,,,,,,,,,,122.7261,123.8852,l,1,0.483,,[],[],[],[],[],[],[],0.483,1,123.8854,124.3646,,,,,,1195,FEM,DIS,150,grasa,el,a,124.3647,124.3648,-0.457338044,-0.397799902,0,0,0,,0,1,1,294,1,,,,,
,,,,,,6e8d122fb06f57bcc3e4eec9,66a626ef09d4e21e1a8894ec,6734d679253f396591765f3f,2024-11-13_13h55.28.562,Tarea de género gramatical,2024.2.2,Win32,67.11409396,,,,,,,,,,,,,,,,,,,,,,,,124.3656,125.4819,l,1,0.4339,,[],[],[],[],[],[],[],0.4339,1,125.482,125.9649,,,,,,993,FEM,CON,150,lata,,a,125.9662,125.9669,-0.457338044,-0.397799902,0,0,0,,0,2,2,92,1,,,,,
,,,,,,6e8d122fb06f57bcc3e4eec9,66a626ef09d4e21e1a8894ec,6734d679253f396591765f3f,2024-11-13_13h55.28.562,Tarea de género gramatical,2024.2.2,Win32,67.11409396,,,,,,,,,,,,,,,,,,,,,,,,125.9675,127.1158,l,1,0.4697,,[],[],[],[],[],[],[],0.4697,1,127.1159,127.6142,,,,,,1083,FEM,CON,150,llave,,a,127.6143,127.6145,-0.457338044,-0.397799902,0,0,0,,0,3,3,182,1,,,,,
,,,,,,6e8d122fb06f57bcc3e4eec9,66a626ef09d4e21e1a8894ec,6734d679253f396591765f3f,2024-11-13_13h55.28.562,Tarea de género gramatical,2024.2.2,Win32,67.11409396,,,,,,,,,,,,,,,,,,,,,,,,127.6155,128.9474,a,1,0.6647,,[],[],[],[],[],[],[],0.6647,1,128.9475,129.4484,,,,,,923,MAS,AGR,150,rato,el,l,129.4484,129.4485,-0.457338044,-0.397799902,0,0,0,,0,4,4,22,1,,,,,
,,,,,,6e8d122fb06f57bcc3e4eec9,66a626ef09d4e21e1a8894ec,6734d679253f396591765f3f,2024-11-13_13h55.28.562,Tarea de género gramatical,2024.2.2,Win32,67.11409396,,,,,,,,,,,,,,,,,,,,,,,,129.4495,130.5567,a,1,0.4379,,[],[],[],[],[],[],[],0.4379,1,130.5568,131.0482,,,,,,1031,MAS,AGR,150,kilo,el,l,131.0482,131.0484,-0.457338044,-0.397799902,0,0,0,,0,5,5,130,1,,,,,
,,,,,,6e8d122fb06f57bcc3e4eec9,66a626ef09d4e21e1a8894ec,6734d679253f396591765f3f,2024-11-13_13h55.28.562,Tarea de género gramatical,2024.2.2,Win32,67.11409396,,,,,,,,,,,,,,,,,,,,,,,,131.0497,132.199,a,1,0.4686,,[],[],[],[],[],[],[],0.4686,1,132.199,132.6798,,,,,,935,MAS,AGR,150,taxi,el,l,132.681,132.6816,-0.457338044,-0.397799902,0,0,0,,0,6,6,34,1,,,,,
,,,,,,6e8d122fb06f57bcc3e4eec9,66a626ef09d4e21e1a8894ec,6734d679253f396591765f3f,2024-11-13_13h55.28.562,Tarea de género gramatical,2024.2.2,Win32,67.11409396,,,,,,,,,,,,,,,,,,,,,,,,132.6822,133.8474,a,1,0.4836,,[],[],[],[],[],[],[],0.4836,1,133.8476,134.3477,,,,,,1090,MAS,DIS,150,campo,la,l,134.3478,134.3479,-0.457338044,-0.397799902,0,0,0,,0,7,7,189,1,,,,,
,,,,,,6e8d122fb06f57bcc3e4eec9,66a626ef09d4e21e1a8894ec,6734d679253f396591765f3f,2024-11-13_13h55.28.562,Tarea de género gramatical,2024.2.2,Win32,67.11409396,,,,,,,,,,,,,,,,,,,,,,,,134.3489,135.4299,l,1,0.4005,,[],[],[],[],[],[],[],0.4005,1,135.43,135.9463,,,,,,975,FEM,CON,150,caza,,a,135.9463,135.9465,-0.457338044,-0.397799902,0,0,0,,0,8,8,74,1,,,,,
,,,,,,6e8d122fb06f57bcc3e4eec9,66a626ef09d4e21e1a8894ec,6734d679253f396591765f3f,2024-11-13_13h55.28.562,Tarea de género gramatical,2024.2.2,Win32,67.11409396,,,,,,,,,,,,,,,,,,,,,,,,135.9476,137.0976,a,1,0.4666,,[],[],[],[],[],[],[],0.4666,1,137.0977,137.5985,,,,,,1060,MAS,DIS,150,señor,la,l,137.5985,137.5987,-0.457338044,-0.397799902,0,0,0,,0,9,9,159,1,,,,,
,,,,,,6e8d122fb06f57bcc3e4eec9,66a626ef09d4e21e1a8894ec,6734d679253f396591765f3f,2024-11-13_13h55.28.562,Tarea de género gramatical,2024.2.2,Win32,67.11409396,,,,,,,,,,,,,,,,,,,,,,,,137.5997,138.764,a,1,0.4832,,[],[],[],[],[],[],[],0.4832,1,138.7641,139.2648,,,,,,1253,MAS,AGR,150,verano,el,l,139.2649,139.265,-0.457338044,-0.397799902,0,0,0,,0,10,10,352,1,,,,,
,,,,,,6e8d122fb06f57bcc3e4eec9,66a626ef09d4e21e1a8894ec,6734d679253f396591765f3f,2024-11-13_13h55.28.562,Tarea de género gramatical,2024.2.2,Win32,67.11409396,,,,,,,,,,,,,,,,,,,,,,,,139.266,140.4074,l,1,0.4734,,[],[],[],[],[],[],[],0.4734,1,140.4075,140.8991,,,,,,1022,FEM,AGR,150,loca,la,a,140.9009,140.9015,-0.457338044,-0.397799902,0,0,0,,0,11,11,121,1,,,,,
,,,,,,6e8d122fb06f57bcc3e4eec9,66a626ef09d4e21e1a8894ec,6734d679253f396591765f3f,2024-11-13_13h55.28.562,Tarea de género gramatical,2024.2.2,Win32,67.11409396,,,,,,,,,,,,,,,,,,,,,,,,140.9022,142.265,l,1,0.702,,[],[],[],[],[],[],[],0.702,1,142.2651,142.7818,,,,,,1101,FEM,CON,150,leche,,a,142.7819,142.782,-0.457338044,-0.397799902,0,0,0,,0,12,12,200,1,,,,,
,,,,,,6e8d122fb06f57bcc3e4eec9,66a626ef09d4e21e1a8894ec,6734d679253f396591765f3f,2024-11-13_13h55.28.562,Tarea de género gramatical,2024.2.2,Win32,67.11409396,,,,,,,,,,,,,,,,,,,,,,,,142.7829,143.948,a,1,0.4982,,[],[],[],[],[],[],[],0.4982,1,143.948,144.4373,,,,,,1128,MAS,CON,150,nivel,,l,144.4374,144.4374,-0.457338044,-0.397799902,0,0,0,,0,13,13,227,1,,,,,
,,,,,,6e8d122fb06f57bcc3e4eec9,66a626ef09d4e21e1a8894ec,6734d679253f396591765f3f,2024-11-13_13h55.28.562,Tarea de género gramatical,2024.2.2,Win32,67.11409396,,,,,,,,,,,,,,,,,,,,,,,,144.4384,145.6155,l,1,0.5161,,[],[],[],[],[],[],[],0.5161,1,145.6156,146.1145,,,,,,1339,FEM,DIS,150,toalla,el,a,146.1146,146.1146,-0.457338044,-0.397799902,0,0,0,,0,14,14,438,1,,,,,
,,,,,,6e8d122fb06f57bcc3e4eec9,66a626ef09d4e21e1a8894ec,6734d679253f396591765f3f,2024-11-13_13h55.28.562,Tarea de género gramatical,2024.2.2,Win32,67.11409396,,,,,,,,,,,,,,,,,,,,,,,,146.1158,147.2971,l,1,0.5146,,[],[],[],[],[],[],[],0.5146,1,147.2971,147.7981,,,,,,926,FEM,AGR,150,pena,la,a,147.7994,147.8,-0.457338044,-0.397799902,0,0,0,,0,15,15,25,1,,,,,
,,,,,,6e8d122fb06f57bcc3e4eec9,66a626ef09d4e21e1a8894ec,6734d679253f396591765f3f,2024-11-13_13h55.28.562,Tarea de género gramatical,2024.2.2,Win32,67.11409396,,,,,,,,,,,,,,,,,,,,,,,,147.8006,149.0791,a,1,0.5945,,[],[],[],[],[],[],[],0.5945,1,149.0795,149.5807,,,,,,1144,MAS,DIS,150,hielo,la,l,149.5808,149.5808,-0.457338044,-0.397799902,0,0,0,,0,16,16,243,1,,,,,
,,,,,,6e8d122fb06f57bcc3e4eec9,66a626ef09d4e21e1a8894ec,6734d679253f396591765f3f,2024-11-13_13h55.28.562,Tarea de género gramatical,2024.2.2,Win32,67.11409396,,,,,,,,,,,,,,,,,,,,,,,,149.5816,150.8816,l,1,0.6186,,[],[],[],[],[],[],[],0.6186,1,150.8817,151.3782,,,,,,1053,FEM,CON,150,mujer,,a,151.3784,151.3784,-0.457338044,-0.397799902,0,0,0,,0,17,17,152,1,,,,,
,,,,,,6e8d122fb06f57bcc3e4eec9,66a626ef09d4e21e1a8894ec,6734d679253f396591765f3f,2024-11-13_13h55.28.562,Tarea de género gramatical,2024.2.2,Win32,67.11409396,,,,,,,,,,,,,,,,,,,,,,,,151.3794,152.4806,l,1,0.4327,,[],[],[],[],[],[],[],0.4327,1,152.4807,152.9599,,,,,,901,FEM,DIS,150,casa,el,a,152.9601,152.9601,-0.457338044,-0.397799902,0,0,0,,0,18,18,0,1,,,,,
,,,,,,6e8d122fb06f57bcc3e4eec9,66a626ef09d4e21e1a8894ec,6734d679253f396591765f3f,2024-11-13_13h55.28.562,Tarea de género gramatical,2024.2.2,Win32,67.11409396,,,,,,,,,,,,,,,,,,,,,,,,152.9613,154.2143,a,1,0.5823,,[],[],[],[],[],[],[],0.5823,1,154.2143,154.7142,,,,,,1150,MAS,DIS,150,cerdo,la,l,154.7142,154.7143,-0.457338044,-0.397799902,0,0,0,,0,19,19,249,1,,,,,
,,,,,,6e8d122fb06f57bcc3e4eec9,66a626ef09d4e21e1a8894ec,6734d679253f396591765f3f,2024-11-13_13h55.28.562,Tarea de género gramatical,2024.2.2,Win32,67.11409396,,,,,,,,,,,,,,,,,,,,,,,,154.7154,155.948,l,1,0.55,,[],[],[],[],[],[],[],0.55,1,155.948,156.4373,,,,,,1286,FEM,AGR,150,sombra,la,a,156.4383,156.4389,-0.457338044,-0.397799902,0,0,0,,0,20,20,385,1,,,,,
,,,,,,6e8d122fb06f57bcc3e4eec9,66a626ef09d4e21e1a8894ec,6734d679253f396591765f3f,2024-11-13_13h55.28.562,Tarea de género gramatical,2024.2.2,Win32,67.11409396,,,,,,,,,,,,,,,,,,,,,,,,156.4395,157.6639,a,1,0.5508,,[],[],[],[],[],[],[],0.5508,1,157.664,158.1651,,,,,,964,MAS,DIS,150,saco,la,l,158.1652,158.1652,-0.457338044,-0.397799902,0,0,0,,0,21,21,63,1,,,,,
,,,,,,6e8d122fb06f57bcc3e4eec9,66a626ef09d4e21e1a8894ec,6734d679253f396591765f3f,2024-11-13_13h55.28.562,Tarea de género gramatical,2024.2.2,Win32,67.11409396,,,,,,,,,,,,,,,,,,,,,,,,158.1659,159.3804,l,1,0.5489,,[],[],[],[],[],[],[],0.5489,1,159.3805,159.8821,,,,,,1143,FEM,CON,150,salsa,,a,159.8821,159.8822,-0.457338044,-0.397799902,0,0,0,,0,22,22,242,1,,,,,
,,,,,,6e8d122fb06f57bcc3e4eec9,66a626ef09d4e21e1a8894ec,6734d679253f396591765f3f,2024-11-13_13h55.28.562,Tarea de género gramatical,2024.2.2,Win32,67.11409396,,,,,,,,,,,,,,,,,,,,,,,,159.8831,160.9829,l,1,0.4183,,[],[],[],[],[],[],[],0.4183,1,160.983,161.4802,,,,,,1113,FEM,CON,150,magia,,a,161.4803,161.4804,-0.457338044,-0.397799902,0,0,0,,0,23,23,212,1,,,,,
,,,,,,6e8d122fb06f57bcc3e4eec9,66a626ef09d4e21e1a8894ec,6734d679253f396591765f3f,2024-11-13_13h55.28.562,Tarea de género gramatical,2024.2.2,Win32,67.11409396,,,,,,,,,,,,,,,,,,,,,,,,161.4813,162.6646,l,1,0.5176,,[],[],[],[],[],[],[],0.5176,1,162.6647,163.1542,,,,,,1315,FEM,DIS,150,cabina,el,a,163.156,163.1571,-0.457338044,-0.397799902,0,0,0,,0,24,24,414,1,,,,,
,,,,,,6e8d122fb06f57bcc3e4eec9,66a626ef09d4e21e1a8894ec,6734d679253f396591765f3f,2024-11-13_13h55.28.562,Tarea de género gramatical,2024.2.2,Win32,67.11409396,,,,,,,,,,,,,,,,,,,,,,,,163.158,164.5324,l,1,0.7007,,[],[],[],[],[],[],[],0.7007,1,164.5325,165.0318,,,,,,1023,FEM,CON,150,tela,,a,165.0318,165.0319,-0.457338044,-0.397799902,0,0,0,,0,25,25,122,1,,,,,
,,,,,,6e8d122fb06f57bcc3e4eec9,66a626ef09d4e21e1a8894ec,6734d679253f396591765f3f,2024-11-13_13h55.28.562,Tarea de género gramatical,2024.2.2,Win32,67.11409396,,,,,,,,,,,,,,,,,,,,,,,,165.033,166.1985,a,1,0.4661,,[],[],[],[],[],[],[],0.4661,1,166.1985,166.6986,,,,,,1086,MAS,CON,150,error,,l,166.6987,166.6988,-0.457338044,-0.397799902,0,0,0,,0,26,26,185,1,,,,,
,,,,,,6e8d122fb06f57bcc3e4eec9,66a626ef09d4e21e1a8894ec,6734d679253f396591765f3f,2024-11-13_13h55.28.562,Tarea de género gramatical,2024.2.2,Win32,67.11409396,,,,,,,,,,,,,,,,,,,,,,,,166.6998,168.1137,l,1,0.748,,[],[],[],[],[],[],[],0.748,1,168.1138,168.6314,,,,,,1028,FEM,AGR,150,leña,la,a,168.6315,168.6316,-0.457338044,-0.397799902,0,0,0,,0,27,27,127,1,,,,,
,,,,,,6e8d122fb06f57bcc3e4eec9,66a626ef09d4e21e1a8894ec,6734d679253f396591765f3f,2024-11-13_13h55.28.562,Tarea de género gramatical,2024.2.2,Win32,67.11409396,,,,,,,,,,,,,,,,,,,,,,,,168.633,169.7817,l,1,0.4679,,[],[],[],[],[],[],[],0.4679,1,169.7818,170.2809,,,,,,1287,FEM,CON,150,página,,a,170.281,170.2811,-0.457338044,-0.397799902,0,0,0,,0,28,28,386,1,,,,,
,,,,,,6e8d122fb06f57bcc3e4eec9,66a626ef09d4e21e1a8894ec,6734d679253f396591765f3f,2024-11-13_13h55.28.562,Tarea de género gramatical,2024.2.2,Win32,67.11409396,,,,,,,,,,,,,,,,,,,,,,,,170.282,171.3308,l,1,0.3657,,[],[],[],[],[],[],[],0.3657,1,171.3308,171.8106,,,,,,1173,FEM,CON,150,tarta,,a,171.8121,171.813,-0.457338044,-0.397799902,0,0,0,,0,29,29,272,1,,,,,
,,,,,,6e8d122fb06f57bcc3e4eec9,66a626ef09d4e21e1a8894ec,6734d679253f396591765f3f,2024-11-13_13h55.28.562,Tarea de género gramatical,2024.2.2,Win32,67.11409396,,,,,,,,,,,,,,,,,,,,,,,,171.8137,172.9144,a,1,0.4307,,[],[],[],[],[],[],[],0.4307,1,172.9148,173.4153,,,,,,1272,MAS,CON,150,delito,,l,173.4153,173.4154,-0.457338044,-0.397799902,0,0,0,,0,30,30,371,1,,,,,
,,,,,,6e8d122fb06f57bcc3e4eec9,66a626ef09d4e21e1a8894ec,6734d679253f396591765f3f,2024-11-13_13h55.28.562,Tarea de género gramatical,2024.2.2,Win32,67.11409396,,,,,,,,,,,,,,,,,,,,,,,,173.4163,174.7812,l,1,0.6811,,[],[],[],[],[],[],[],0.6811,1,174.7812,175.2815,,,,,,920,FEM,AGR,150,ropa,la,a,175.2816,175.2817,-0.457338044,-0.397799902,0,0,0,,0,31,31,19,1,,,,,
,,,,,,6e8d122fb06f57bcc3e4eec9,66a626ef09d4e21e1a8894ec,6734d679253f396591765f3f,2024-11-13_13h55.28.562,Tarea de género gramatical,2024.2.2,Win32,67.11409396,,,,,,,,,,,,,,,,,,,,,,,,175.2824,176.7654,l,1,0.8011,,[],[],[],[],[],[],[],0.8011,1,176.7655,177.2825,,,,,,1179,FEM,CON,150,selva,,a,177.2825,177.2826,-0.457338044,-0.397799902,0,0,0,,0,32,32,278,1,,,,,
,,,,,,6e8d122fb06f57bcc3e4eec9,66a626ef09d4e21e1a8894ec,6734d679253f396591765f3f,2024-11-13_13h55.28.562,Tarea de género gramatical,2024.2.2,Win32,67.11409396,,,,,,,,,,,,,,,,,,,,,,,,177.2834,178.3484,l,1,0.3835,,[],[],[],[],[],[],[],0.3835,1,178.3484,178.8484,,,,,,1089,FEM,CON,150,pista,,a,178.8498,178.8504,-0.457338044,-0.397799902,0,0,0,,0,33,33,188,1,,,,,
,,,,,,6e8d122fb06f57bcc3e4eec9,66a626ef09d4e21e1a8894ec,6734d679253f396591765f3f,2024-11-13_13h55.28.562,Tarea de género gramatical,2024.2.2,Win32,67.11409396,,,,,,,,,,,,,,,,,,,,,,,,178.8511,180.2147,a,1,0.6831,,[],[],[],[],[],[],[],0.6831,1,180.2148,180.7068,,,,,,1276,MAS,DIS,150,efecto,la,l,180.7068,180.707,-0.457338044,-0.397799902,0,0,0,,0,34,34,375,1,,,,,
,,,,,,6e8d122fb06f57bcc3e4eec9,66a626ef09d4e21e1a8894ec,6734d679253f396591765f3f,2024-11-13_13h55.28.562,Tarea de género gramatical,2024.2.2,Win32,67.11409396,,,,,,,,,,,,,,,,,,,,,,,,180.7084,182.3479,a,1,0.9813,,[],[],[],[],[],[],[],0.9813,1,182.348,182.8411,,,,,,1098,MAS,CON,150,hotel,,l,182.8412,182.8413,-0.457338044,-0.397799902,0,0,0,,0,35,35,197,1,,,,,
,,,,,,6e8d122fb06f57bcc3e4eec9,66a626ef09d4e21e1a8894ec,6734d679253f396591765f3f,2024-11-13_13h55.28.562,Tarea de género gramatical,2024.2.2,Win32,67.11409396,,,,,,,,,,,,,,,,,,,,,,,,182.842,184.5143,a,1,1.0154,,[],[],[],[],[],[],[],1.0154,1,184.5144,185.0144,,,,,,936,MAS,CON,150,dedo,,l,185.0146,185.0146,-0.457338044,-0.397799902,0,0,0,,0,36,36,35,1,,,,,
,,,,,,6e8d122fb06f57bcc3e4eec9,66a626ef09d4e21e1a8894ec,6734d679253f396591765f3f,2024-11-13_13h55.28.562,Tarea de género gramatical,2024.2.2,Win32,67.11409396,,,,,,,,,,,,,,,,,,,,,,,,185.0155,186.5145,a,1,0.8307,,[],[],[],[],[],[],[],0.8307,1,186.5146,187.0141,,,,,,1092,MAS,CON,150,grupo,,l,187.0141,187.0142,-0.457338044,-0.397799902,0,0,0,,0,37,37,191,1,,,,,
,,,,,,6e8d122fb06f57bcc3e4eec9,66a626ef09d4e21e1a8894ec,6734d679253f396591765f3f,2024-11-13_13h55.28.562,Tarea de género gramatical,2024.2.2,Win32,67.11409396,,,,,,,,,,,,,,,,,,,,,,,,187.0151,188.6764,l,0,0.9756,,[],[],[],[],[],[],[],0.9756,0,188.6772,189.1805,,,,,,952,MAS,DIS,150,lago,la,l,189.1817,189.1824,-0.457338044,-0.397799902,0,0,0,,0,38,38,51,1,,,,,
,,,,,,6e8d122fb06f57bcc3e4eec9,66a626ef09d4e21e1a8894ec,6734d679253f396591765f3f,2024-11-13_13h55.28.562,Tarea de género gramatical,2024.2.2,Win32,67.11409396,,,,,,,,,,,,,,,,,,,,,,,,189.183,190.465,l,1,0.6013,,[],[],[],[],[],[],[],0.6013,1,190.4658,190.9457,,,,,,1064,FEM,AGR,150,novia,la,a,190.9457,190.9458,-0.457338044,-0.397799902,0,0,0,,0,39,39,163,1,,,,,
,,,,,,6e8d122fb06f57bcc3e4eec9,66a626ef09d4e21e1a8894ec,6734d679253f396591765f3f,2024-11-13_13h55.28.562,Tarea de género gramatical,2024.2.2,Win32,67.11409396,,,,,,,,,,,,,,,,,,,,,,,,190.947,192.1652,a,1,0.5498,,[],[],[],[],[],[],[],0.5498,1,192.1653,192.664,,,,,,959,MAS,AGR,150,lobo,el,l,192.664,192.6642,-0.457338044,-0.397799902,0,0,0,,0,40,40,58,1,,,,,
,,,,,,6e8d122fb06f57bcc3e4eec9,66a626ef09d4e21e1a8894ec,6734d679253f396591765f3f,2024-11-13_13h55.28.562,Tarea de género gramatical,2024.2.2,Win32,67.11409396,,,,,,,,,,,,,,,,,,,,,,,,192.6652,193.931,l,1,0.5827,,[],[],[],[],[],[],[],0.5827,1,193.931,194.4317,,,,,,1249,FEM,DIS,150,prensa,el,a,194.4317,194.4318,-0.457338044,-0.397799902,0,0,0,,0,41,41,348,1,,,,,
,,,,,,6e8d122fb06f57bcc3e4eec9,66a626ef09d4e21e1a8894ec,6734d679253f396591765f3f,2024-11-13_13h55.28.562,Tarea de género gramatical,2024.2.2,Win32,67.11409396,,,,,,,,,,,,,,,,,,,,,,,,194.4326,195.9602,a,0,0.841,,[],[],[],[],[],[],[],0.841,0,195.961,196.4526,,,,,,998,FEM,AGR,150,fuga,la,a,196.4535,196.4542,-0.457338044,-0.397799902,0,0,0,,0,42,42,97,1,,,,,
,,,,,,6e8d122fb06f57bcc3e4eec9,66a626ef09d4e21e1a8894ec,6734d679253f396591765f3f,2024-11-13_13h55.28.562,Tarea de género gramatical,2024.2.2,Win32,67.11409396,,,,,,,,,,,,,,,,,,,,,,,,196.455,197.8158,a,1,0.6836,,[],[],[],[],[],[],[],0.6836,1,197.8167,198.3143,,,,,,1283,MAS,AGR,150,parque,el,l,198.3145,198.3145,-0.457338044,-0.397799902,0,0,0,,0,43,43,382,1,,,,,
,,,,,,6e8d122fb06f57bcc3e4eec9,66a626ef09d4e21e1a8894ec,6734d679253f396591765f3f,2024-11-13_13h55.28.562,Tarea de género gramatical,2024.2.2,Win32,67.11409396,,,,,,,,,,,,,,,,,,,,,,,,198.3155,199.8405,l,1,0.8538,,[],[],[],[],[],[],[],0.8538,1,199.8406,200.3302,,,,,,938,FEM,AGR,150,obra,la,a,200.3303,200.3303,-0.457338044,-0.397799902,0,0,0,,0,44,44,37,1,,,,,
,,,,,,6e8d122fb06f57bcc3e4eec9,66a626ef09d4e21e1a8894ec,6734d679253f396591765f3f,2024-11-13_13h55.28.562,Tarea de género gramatical,2024.2.2,Win32,67.11409396,,,,,,,,,,,,,,,,,,,,,,,,200.3314,201.7814,l,0,0.7669,,[],[],[],[],[],[],[],0.7669,0,201.7822,202.2733,,,,,,1174,MAS,DIS,150,motor,la,l,202.2734,202.2735,-0.457338044,-0.397799902,0,0,0,,0,45,45,273,1,,,,,
,,,,,,6e8d122fb06f57bcc3e4eec9,66a626ef09d4e21e1a8894ec,6734d679253f396591765f3f,2024-11-13_13h55.28.562,Tarea de género gramatical,2024.2.2,Win32,67.11409396,,,,,,,,,,,,,,,,,,,,,,,,202.2744,203.5145,l,1,0.5813,,[],[],[],[],[],[],[],0.5813,1,203.5154,204.0141,,,,,,1166,FEM,AGR,150,jaula,la,a,204.0142,204.0143,-0.457338044,-0.397799902,0,0,0,,0,46,46,265,1,,,,,
,,,,,,6e8d122fb06f57bcc3e4eec9,66a626ef09d4e21e1a8894ec,6734d679253f396591765f3f,2024-11-13_13h55.28.562,Tarea de género gramatical,2024.2.2,Win32,67.11409396,,,,,,,,,,,,,,,,,,,,,,,,204.0151,205.2474,a,1,0.5337,,[],[],[],[],[],[],[],0.5337,1,205.2475,205.7635,,,,,,1074,MAS,CON,150,perro,,l,205.7643,205.7648,-0.457338044,-0.397799902,0,0,0,,0,47,47,173,1,,,,,
,,,,,,6e8d122fb06f57bcc3e4eec9,66a626ef09d4e21e1a8894ec,6734d679253f396591765f3f,2024-11-13_13h55.28.562,Tarea de género gramatical,2024.2.2,Win32,67.11409396,,,,,,,,,,,,,,,,,,,,,,,,205.7654,207.0143,l,1,0.5841,,[],[],[],[],[],[],[],0.5841,1,207.0144,207.514,,,,,,963,FEM,CON,150,fila,,a,207.514,207.5142,-0.457338044,-0.397799902,0,0,0,,0,48,48,62,1,,,,,
,,,,,,6e8d122fb06f57bcc3e4eec9,66a626ef09d4e21e1a8894ec,6734d679253f396591765f3f,2024-11-13_13h55.28.562,Tarea de género gramatical,2024.2.2,Win32,67.11409396,,,,,,,,,,,,,,,,,,,,,,,,207.515,208.8144,a,1,0.6174,,[],[],[],[],[],[],[],0.6174,1,208.8145,209.3034,,,,,,1270,MAS,DIS,150,seguro,la,l,209.3035,209.3036,-0.457338044,-0.397799902,0,0,0,,0,49,49,369,1,,,,,
,,,,,,6e8d122fb06f57bcc3e4eec9,66a626ef09d4e21e1a8894ec,6734d679253f396591765f3f,2024-11-13_13h55.28.562,Tarea de género gramatical,2024.2.2,Win32,67.11409396,,,,,,,,,,,,,,,,,,,,,,,,209.3045,210.6146,l,1,0.6496,,[],[],[],[],[],[],[],0.6496,1,210.6147,211.1144,,,,,,1237,FEM,DIS,150,escena,el,a,211.1145,211.1145,-0.457338044,-0.397799902,0,0,0,,0,50,50,336,1,,,,,
,,,,,,6e8d122fb06f57bcc3e4eec9,66a626ef09d4e21e1a8894ec,6734d679253f396591765f3f,2024-11-13_13h55.28.562,Tarea de género gramatical,2024.2.2,Win32,67.11409396,,,,,,,,,,,,,,,,,,,,,,,,211.1153,212.7477,a,1,0.9504,,[],[],[],[],[],[],[],0.9504,1,212.7478,213.2478,,,,,,1096,MAS,DIS,150,barco,la,l,213.2488,213.2497,-0.457338044,-0.397799902,0,0,0,,0,51,51,195,1,,,,,
,,,,,,6e8d122fb06f57bcc3e4eec9,66a626ef09d4e21e1a8894ec,6734d679253f396591765f3f,2024-11-13_13h55.28.562,Tarea de género gramatical,2024.2.2,Win32,67.11409396,,,,,,,,,,,,,,,,,,,,,,,,213.2505,214.8406,l,1,0.9228,,[],[],[],[],[],[],[],0.9228,1,214.8407,215.3332,,,,,,1316,FEM,AGR,150,colina,la,a,215.3332,215.3334,-0.457338044,-0.397799902,0,0,0,,0,52,52,415,1,,,,,
,,,,,,6e8d122fb06f57bcc3e4eec9,66a626ef09d4e21e1a8894ec,6734d679253f396591765f3f,2024-11-13_13h55.28.562,Tarea de género gramatical,2024.2.2,Win32,67.11409396,,,,,,,,,,,,,,,,,,,,,,,,215.3341,216.7993,l,1,0.8001,,[],[],[],[],[],[],[],0.8001,1,216.7994,217.289,,,,,,1129,FEM,DIS,150,celda,el,a,217.2891,217.2891,-0.457338044,-0.397799902,0,0,0,,0,53,53,228,1,,,,,
,,,,,,6e8d122fb06f57bcc3e4eec9,66a626ef09d4e21e1a8894ec,6734d679253f396591765f3f,2024-11-13_13h55.28.562,Tarea de género gramatical,2024.2.2,Win32,67.11409396,,,,,,,,,,,,,,,,,,,,,,,,217.2902,218.9153,a,1,0.9486,,[],[],[],[],[],[],[],0.9486,1,218.9154,219.4141,,,,,,1200,MAS,CON,150,túnel,,l,219.4142,219.4143,-0.457338044,-0.397799902,0,0,0,,0,54,54,299,1,,,,,
,,,,,,6e8d122fb06f57bcc3e4eec9,66a626ef09d4e21e1a8894ec,6734d679253f396591765f3f,2024-11-13_13h55.28.562,Tarea de género gramatical,2024.2.2,Win32,67.11409396,,,,,,,,,,,,,,,,,,,,,,,,219.415,221.2437,a,1,1.1606,,[],[],[],[],[],[],[],1.1606,1,221.2438,221.7363,,,,,,940,MAS,DIS,150,dios,la,l,221.7363,221.7364,-0.457338044,-0.397799902,0,0,0,,0,55,55,39,1,,,,,
,,,,,,6e8d122fb06f57bcc3e4eec9,66a626ef09d4e21e1a8894ec,6734d679253f396591765f3f,2024-11-13_13h55.28.562,Tarea de género gramatical,2024.2.2,Win32,67.11409396,,,,,,,,,,,,,,,,,,,,,,,,221.7374,222.9994,a,1,0.5837,,[],[],[],[],[],[],[],0.5837,1,222.9995,223.4977,,,,,,1084,MAS,DIS,150,cielo,la,l,223.4989,223.4997,-0.457338044,-0.397799902,0,0,0,,0,56,56,183,1,,,,,
,,,,,,6e8d122fb06f57bcc3e4eec9,66a626ef09d4e21e1a8894ec,6734d679253f396591765f3f,2024-11-13_13h55.28.562,Tarea de género gramatical,2024.2.2,Win32,67.11409396,,,,,,,,,,,,,,,,,,,,,,,,223.5006,224.866,a,1,0.7003,,[],[],[],[],[],[],[],0.7003,1,224.866,225.3636,,,,,,916,MAS,DIS,150,baño,la,l,225.3636,225.3637,-0.457338044,-0.397799902,0,0,0,,0,57,57,15,1,,,,,
,,,,,,6e8d122fb06f57bcc3e4eec9,66a626ef09d4e21e1a8894ec,6734d679253f396591765f3f,2024-11-13_13h55.28.562,Tarea de género gramatical,2024.2.2,Win32,67.11409396,,,,,,,,,,,,,,,,,,,,,,,,225.3647,226.448,a,1,0.4142,,[],[],[],[],[],[],[],0.4142,1,226.4481,226.931,,,,,,905,MAS,AGR,150,tipo,el,l,226.9311,226.9312,-0.457338044,-0.397799902,0,0,0,,0,58,58,4,1,,,,,
,,,,,,6e8d122fb06f57bcc3e4eec9,66a626ef09d4e21e1a8894ec,6734d679253f396591765f3f,2024-11-13_13h55.28.562,Tarea de género gramatical,2024.2.2,Win32,67.11409396,,,,,,,,,,,,,,,,,,,,,,,,226.9323,228.0663,l,1,0.4829,,[],[],[],[],[],[],[],0.4829,1,228.0663,228.5644,,,,,,1172,FEM,AGR,150,oreja,la,a,228.5644,228.5644,-0.457338044,-0.397799902,0,0,0,,0,59,59,271,1,,,,,
,,,,,,6e8d122fb06f57bcc3e4eec9,66a626ef09d4e21e1a8894ec,6734d679253f396591765f3f,2024-11-13_13h55.28.562,Tarea de género gramatical,2024.2.2,Win32,67.11409396,,,,,,,,,,,,,,,,,,,,,,,,228.5652,230.02,l,1,0.7842,,[],[],[],[],[],[],[],0.7842,1,230.0201,230.4979,,,,,,991,FEM,DIS,150,hoja,el,a,230.4988,230.4995,-0.457338044,-0.397799902,0,0,0,,0,60,60,90,1,,,,,
,,,,,,6e8d122fb06f57bcc3e4eec9,66a626ef09d4e21e1a8894ec,6734d679253f396591765f3f,2024-11-13_13h55.28.562,Tarea de género gramatical,2024.2.2,Win32,67.11409396,,,,,,,,,,,,,,,,,,,,,,,,230.5002,231.9827,l,1,0.8023,,[],[],[],[],[],[],[],0.8023,1,231.9828,232.4978,,,,,,1153,FEM,DIS,150,aldea,el,a,232.4979,232.4979,-0.457338044,-0.397799902,0,0,0,,0,61,61,252,1,,,,,
,,,,,,6e8d122fb06f57bcc3e4eec9,66a626ef09d4e21e1a8894ec,6734d679253f396591765f3f,2024-11-13_13h55.28.562,Tarea de género gramatical,2024.2.2,Win32,67.11409396,,,,,,,,,,,,,,,,,,,,,,,,232.4986,234.0147,a,0,0.8344,,[],[],[],[],[],[],[],0.8344,0,234.0155,234.5146,,,,,,999,FEM,CON,150,fase,,a,234.5146,234.5147,-0.457338044,-0.397799902,0,0,0,,0,62,62,98,1,,,,,
,,,,,,6e8d122fb06f57bcc3e4eec9,66a626ef09d4e21e1a8894ec,6734d679253f396591765f3f,2024-11-13_13h55.28.562,Tarea de género gramatical,2024.2.2,Win32,67.11409396,,,,,,,,,,,,,,,,,,,,,,,,234.5158,235.8332,l,1,0.6525,,[],[],[],[],[],[],[],0.6525,1,235.8341,236.3314,,,,,,1117,FEM,DIS,150,tarea,el,a,236.3314,236.3314,-0.457338044,-0.397799902,0,0,0,,0,63,63,216,1,,,,,
,,,,,,6e8d122fb06f57bcc3e4eec9,66a626ef09d4e21e1a8894ec,6734d679253f396591765f3f,2024-11-13_13h55.28.562,Tarea de género gramatical,2024.2.2,Win32,67.11409396,,,,,,,,,,,,,,,,,,,,,,,,236.3323,238.5326,a,1,1.5171,,[],[],[],[],[],[],[],1.5171,1,238.5326,239.035,,,,,,1301,MAS,AGR,150,abrigo,el,l,239.0351,239.0352,-0.457338044,-0.397799902,0,0,0,,0,64,64,400,1,,,,,
,,,,,,6e8d122fb06f57bcc3e4eec9,66a626ef09d4e21e1a8894ec,6734d679253f396591765f3f,2024-11-13_13h55.28.562,Tarea de género gramatical,2024.2.2,Win32,67.11409396,,,,,,,,,,,,,,,,,,,,,,,,239.0361,240.2821,a,1,0.5668,,[],[],[],[],[],[],[],0.5668,1,240.2821,240.7983,,,,,,1140,MAS,CON,150,ruido,,l,240.7992,240.7999,-0.457338044,-0.397799902,0,0,0,,0,65,65,239,1,,,,,
,,,,,,6e8d122fb06f57bcc3e4eec9,66a626ef09d4e21e1a8894ec,6734d679253f396591765f3f,2024-11-13_13h55.28.562,Tarea de género gramatical,2024.2.2,Win32,67.11409396,,,,,,,,,,,,,,,,,,,,,,,,240.8005,241.9606,a,1,0.4703,,[],[],[],[],[],[],[],0.4703,1,241.9607,242.4656,,,,,,930,MAS,CON,150,cine,,l,242.4656,242.4658,-0.457338044,-0.397799902,0,0,0,,0,66,66,29,1,,,,,
,,,,,,6e8d122fb06f57bcc3e4eec9,66a626ef09d4e21e1a8894ec,6734d679253f396591765f3f,2024-11-13_13h55.28.562,Tarea de género gramatical,2024.2.2,Win32,67.11409396,,,,,,,,,,,,,,,,,,,,,,,,242.4667,243.7327,a,1,0.5838,,[],[],[],[],[],[],[],0.5838,1,243.7328,244.2315,,,,,,1103,MAS,AGR,150,novio,el,l,244.2316,244.2316,-0.457338044,-0.397799902,0,0,0,,0,67,67,202,1,,,,,
,,,,,,6e8d122fb06f57bcc3e4eec9,66a626ef09d4e21e1a8894ec,6734d679253f396591765f3f,2024-11-13_13h55.28.562,Tarea de género gramatical,2024.2.2,Win32,67.11409396,,,,,,,,,,,,,,,,,,,,,,,,244.2325,245.7828,l,0,0.8684,,[],[],[],[],[],[],[],0.8684,0,245.7837,246.2744,,,,,,1288,MAS,DIS,150,empleo,la,l,246.2745,246.2746,-0.457338044,-0.397799902,0,0,0,,0,68,68,387,1,,,,,
,,,,,,6e8d122fb06f57bcc3e4eec9,66a626ef09d4e21e1a8894ec,6734d679253f396591765f3f,2024-11-13_13h55.28.562,Tarea de género gramatical,2024.2.2,Win32,67.11409396,,,,,,,,,,,,,,,,,,,,,,,,246.2755,247.8317,a,1,0.8982,,[],[],[],[],[],[],[],0.8982,1,247.8323,248.3328,,,,,,1194,MAS,CON,150,cable,,l,248.3339,248.3345,-0.457338044,-0.397799902,0,0,0,,0,69,69,293,1,,,,,
,,,,,,6e8d122fb06f57bcc3e4eec9,66a626ef09d4e21e1a8894ec,6734d679253f396591765f3f,2024-11-13_13h55.28.562,Tarea de género gramatical,2024.2.2,Win32,67.11409396,,,,,,,,,,,,,,,,,,,,,,,,248.335,249.5331,l,0,0.5315,,[],[],[],[],[],[],[],0.5315,0,249.5339,250.0489,,,,,,1162,MAS,DIS,150,video,la,l,250.049,250.049,-0.457338044,-0.397799902,0,0,0,,0,70,70,261,1,,,,,
,,,,,,6e8d122fb06f57bcc3e4eec9,66a626ef09d4e21e1a8894ec,6734d679253f396591765f3f,2024-11-13_13h55.28.562,Tarea de género gramatical,2024.2.2,Win32,67.11409396,,,,,,,,,,,,,,,,,,,,,,,,250.0505,251.4079,a,1,0.6754,,[],[],[],[],[],[],[],0.6754,1,251.4089,251.9148,,,,,,1192,MAS,DIS,150,piano,la,l,251.9148,251.9149,-0.457338044,-0.397799902,0,0,0,,0,71,71,291,1,,,,,
,,,,,,6e8d122fb06f57bcc3e4eec9,66a626ef09d4e21e1a8894ec,6734d679253f396591765f3f,2024-11-13_13h55.28.562,Tarea de género gramatical,2024.2.2,Win32,67.11409396,,,,,,,,,,,,,,,,,,,,,,,,251.9164,253.2441,a,1,0.6654,,[],[],[],[],[],[],[],0.6654,1,253.2442,253.7501,,,,,,1156,MAS,DIS,150,techo,la,l,253.7501,253.7502,-0.457338044,-0.397799902,0,0,0,,0,72,72,255,1,,,,,
,,,,,,6e8d122fb06f57bcc3e4eec9,66a626ef09d4e21e1a8894ec,6734d679253f396591765f3f,2024-11-13_13h55.28.562,Tarea de género gramatical,2024.2.2,Win32,67.11409396,,,,,,,,,,,,,,,,,,,,,,,,253.7512,255.0053,l,1,0.5681,,[],[],[],[],[],[],[],0.5681,1,255.0054,255.4982,,,,,,943,FEM,DIS,150,nena,el,a,255.4982,255.4983,-0.457338044,-0.397799902,0,0,0,,0,73,73,42,1,,,,,
,,,,,,6e8d122fb06f57bcc3e4eec9,66a626ef09d4e21e1a8894ec,6734d679253f396591765f3f,2024-11-13_13h55.28.562,Tarea de género gramatical,2024.2.2,Win32,67.11409396,,,,,,,,,,,,,,,,,,,,,,,,255.4991,257.5161,a,0,1.3651,,[],[],[],[],[],[],[],1.3651,0,257.5168,258.0052,,,,,,1125,FEM,CON,150,pieza,,a,258.0062,258.0068,-0.457338044,-0.397799902,0,0,0,,0,74,74,224,1,,,,,
,,,,,,6e8d122fb06f57bcc3e4eec9,66a626ef09d4e21e1a8894ec,6734d679253f396591765f3f,2024-11-13_13h55.28.562,Tarea de género gramatical,2024.2.2,Win32,67.11409396,,,,,,,,,,,,,,,,,,,,,,,,258.0077,259.5655,a,1,0.883,,[],[],[],[],[],[],[],0.883,1,259.5661,260.0661,,,,,,1168,MAS,DIS,150,truco,la,l,260.0661,260.0662,-0.457338044,-0.397799902,0,0,0,,0,75,75,267,1,,,,,
,,,,,,6e8d122fb06f57bcc3e4eec9,66a626ef09d4e21e1a8894ec,6734d679253f396591765f3f,2024-11-13_13h55.28.562,Tarea de género gramatical,2024.2.2,Win32,67.11409396,,,,,,,,,,,,,,,,,,,,,,,,260.0671,261.2439,a,1,0.5096,,[],[],[],[],[],[],[],0.5096,1,261.2441,261.7332,,,,,,966,MAS,CON,150,muro,,l,261.7332,261.7333,-0.457338044,-0.397799902,0,0,0,,0,76,76,65,1,,,,,
,,,,,,6e8d122fb06f57bcc3e4eec9,66a626ef09d4e21e1a8894ec,6734d679253f396591765f3f,2024-11-13_13h55.28.562,Tarea de género gramatical,2024.2.2,Win32,67.11409396,,,,,,,,,,,,,,,,,,,,,,,,261.7343,263.02,l,1,0.6211,,[],[],[],[],[],[],[],0.6211,1,263.0202,263.4997,,,,,,949,FEM,DIS,150,piel,el,a,263.4997,263.4998,-0.457338044,-0.397799902,0,0,0,,0,77,77,48,1,,,,,
,,,,,,6e8d122fb06f57bcc3e4eec9,66a626ef09d4e21e1a8894ec,6734d679253f396591765f3f,2024-11-13_13h55.28.562,Tarea de género gramatical,2024.2.2,Win32,67.11409396,,,,,,,,,,,,,,,,,,,,,,,,263.5007,264.6665,l,1,0.4987,,[],[],[],[],[],[],[],0.4987,1,264.6666,265.1699,,,,,,1185,FEM,CON,150,mafia,,a,265.1709,265.1714,-0.457338044,-0.397799902,0,0,0,,0,78,78,284,1,,,,,
,,,,,,6e8d122fb06f57bcc3e4eec9,66a626ef09d4e21e1a8894ec,6734d679253f396591765f3f,2024-11-13_13h55.28.562,Tarea de género gramatical,2024.2.2,Win32,67.11409396,,,,,,,,,,,,,,,,,,,,,,,,265.1721,266.3836,a,1,0.5342,,[],[],[],[],[],[],[],0.5342,1,266.3837,266.8834,,,,,,1102,MAS,DIS,150,honor,la,l,266.8835,266.8836,-0.457338044,-0.397799902,0,0,0,,0,79,79,201,1,,,,,
,,,,,,6e8d122fb06f57bcc3e4eec9,66a626ef09d4e21e1a8894ec,6734d679253f396591765f3f,2024-11-13_13h55.28.562,Tarea de género gramatical,2024.2.2,Win32,67.11409396,,,,,,,,,,,,,,,,,,,,,,,,266.8848,268.3656,l,1,0.7991,,[],[],[],[],[],[],[],0.7991,1,268.3656,268.8651,,,,,,1207,FEM,DIS,150,suerte,el,a,268.8652,268.8653,-0.457338044,-0.397799902,0,0,0,,0,80,80,306,1,,,,,
,,,,,,6e8d122fb06f57bcc3e4eec9,66a626ef09d4e21e1a8894ec,6734d679253f396591765f3f,2024-11-13_13h55.28.562,Tarea de género gramatical,2024.2.2,Win32,67.11409396,,,,,,,,,,,,,,,,,,,,,,,,268.8662,270.1655,a,1,0.6153,,[],[],[],[],[],[],[],0.6153,1,270.1656,270.6655,,,,,,928,MAS,DIS,150,club,la,l,270.6656,270.6657,-0.457338044,-0.397799902,0,0,0,,0,81,81,27,1,,,,,
,,,,,,6e8d122fb06f57bcc3e4eec9,66a626ef09d4e21e1a8894ec,6734d679253f396591765f3f,2024-11-13_13h55.28.562,Tarea de género gramatical,2024.2.2,Win32,67.11409396,,,,,,,,,,,,,,,,,,,,,,,,270.667,271.8331,l,1,0.4852,,[],[],[],[],[],[],[],0.4852,1,271.8332,272.3327,,,,,,950,FEM,AGR,150,dama,la,a,272.3327,272.3327,-0.457338044,-0.397799902,0,0,0,,0,82,82,49,1,,,,,
,,,,,,6e8d122fb06f57bcc3e4eec9,66a626ef09d4e21e1a8894ec,6734d679253f396591765f3f,2024-11-13_13h55.28.562,Tarea de género gramatical,2024.2.2,Win32,67.11409396,,,,,,,,,,,,,,,,,,,,,,,,272.334,273.7217,l,1,0.7162,,[],[],[],[],[],[],[],0.7162,1,273.7218,274.2156,,,,,,1231,FEM,DIS,150,cárcel,el,a,274.2168,274.2173,-0.457338044,-0.397799902,0,0,0,,0,83,83,330,1,,,,,
,,,,,,6e8d122fb06f57bcc3e4eec9,66a626ef09d4e21e1a8894ec,6734d679253f396591765f3f,2024-11-13_13h55.28.562,Tarea de género gramatical,2024.2.2,Win32,67.11409396,,,,,,,,,,,,,,,,,,,,,,,,274.2179,275.4482,l,1,0.5645,,[],[],[],[],[],[],[],0.5645,1,275.4483,275.9498,,,,,,1099,FEM,DIS,150,nariz,el,a,275.9498,275.95,-0.457338044,-0.397799902,0,0,0,,0,84,84,198,1,,,,,
,,,,,,6e8d122fb06f57bcc3e4eec9,66a626ef09d4e21e1a8894ec,6734d679253f396591765f3f,2024-11-13_13h55.28.562,Tarea de género gramatical,2024.2.2,Win32,67.11409396,,,,,,,,,,,,,,,,,,,,,,,,275.9509,277.2323,a,1,0.6172,,[],[],[],[],[],[],[],0.6172,1,277.2323,277.7216,,,,,,1186,MAS,DIS,150,reino,la,l,277.7216,277.7219,-0.457338044,-0.397799902,0,0,0,,0,85,85,285,1,,,,,
,,,,,,6e8d122fb06f57bcc3e4eec9,66a626ef09d4e21e1a8894ec,6734d679253f396591765f3f,2024-11-13_13h55.28.562,Tarea de género gramatical,2024.2.2,Win32,67.11409396,,,,,,,,,,,,,,,,,,,,,,,,277.7226,278.9658,a,1,0.5652,,[],[],[],[],[],[],[],0.5652,1,278.9659,279.468,,,,,,1043,MAS,AGR,150,faro,el,l,279.468,279.4681,-0.457338044,-0.397799902,0,0,0,,0,86,86,142,1,,,,,
,,,,,,6e8d122fb06f57bcc3e4eec9,66a626ef09d4e21e1a8894ec,6734d679253f396591765f3f,2024-11-13_13h55.28.562,Tarea de género gramatical,2024.2.2,Win32,67.11409396,,,,,,,,,,,,,,,,,,,,,,,,279.469,280.7668,l,1,0.6316,,[],[],[],[],[],[],[],0.6316,1,280.7669,281.2598,,,,,,1345,FEM,DIS,150,bondad,el,a,281.2609,281.2614,-0.457338044,-0.397799902,0,0,0,,0,87,87,444,1,,,,,
,,,,,,6e8d122fb06f57bcc3e4eec9,66a626ef09d4e21e1a8894ec,6734d679253f396591765f3f,2024-11-13_13h55.28.562,Tarea de género gramatical,2024.2.2,Win32,67.11409396,,,,,,,,,,,,,,,,,,,,,,,,281.262,282.6331,l,1,0.6838,,[],[],[],[],[],[],[],0.6838,1,282.6331,283.1329,,,,,,921,FEM,CON,150,boca,,a,283.133,283.1331,-0.457338044,-0.397799902,0,0,0,,0,88,88,20,1,,,,,
,,,,,,6e8d122fb06f57bcc3e4eec9,66a626ef09d4e21e1a8894ec,6734d679253f396591765f3f,2024-11-13_13h55.28.562,Tarea de género gramatical,2024.2.2,Win32,67.11409396,,,,,,,,,,,,,,,,,,,,,,,,283.1352,284.2329,a,1,0.4166,,[],[],[],[],[],[],[],0.4166,1,284.2331,284.7333,,,,,,1206,MAS,CON,150,dinero,,l,284.7333,284.7334,-0.457338044,-0.397799902,0,0,0,,0,89,89,305,1,,,,,
,,,,,,6e8d122fb06f57bcc3e4eec9,66a626ef09d4e21e1a8894ec,6734d679253f396591765f3f,2024-11-13_13h55.28.562,Tarea de género gramatical,2024.2.2,Win32,67.11409396,,,,,,,,,,,,,,,,,,,,,,,,284.7342,285.8341,a,1,0.4339,,[],[],[],[],[],[],[],0.4339,1,285.8342,286.3316,,,,,,1242,MAS,CON,150,abuelo,,l,286.3317,286.3318,-0.457338044,-0.397799902,0,0,0,,0,90,90,341,1,,,,,
,,,,,,6e8d122fb06f57bcc3e4eec9,66a626ef09d4e21e1a8894ec,6734d679253f396591765f3f,2024-11-13_13h55.28.562,Tarea de género gramatical,2024.2.2,Win32,67.11409396,,,,,,,,,,,,,,,,,,,,,,,,286.3327,287.5154,a,1,0.4997,,[],[],[],[],[],[],[],0.4997,1,287.5156,288.0152,,,,,,1068,MAS,CON,150,sitio,,l,288.0154,288.0154,-0.457338044,-0.397799902,0,0,0,,0,91,91,167,1,,,,,
,,,,,,6e8d122fb06f57bcc3e4eec9,66a626ef09d4e21e1a8894ec,6734d679253f396591765f3f,2024-11-13_13h55.28.562,Tarea de género gramatical,2024.2.2,Win32,67.11409396,,,,,,,,,,,,,,,,,,,,,,,,288.0162,289.3336,l,1,0.6507,,[],[],[],[],[],[],[],0.6507,1,289.3337,289.8497,,,,,,1279,FEM,DIS,150,granja,el,a,289.8507,289.8513,-0.457338044,-0.397799902,0,0,0,,0,92,92,378,1,,,,,
,,,,,,6e8d122fb06f57bcc3e4eec9,66a626ef09d4e21e1a8894ec,6734d679253f396591765f3f,2024-11-13_13h55.28.562,Tarea de género gramatical,2024.2.2,Win32,67.11409396,,,,,,,,,,,,,,,,,,,,,,,,289.8518,291.1102,l,1,0.5697,,[],[],[],[],[],[],[],0.5697,1,291.1102,291.6155,,,,,,1201,FEM,DIS,150,verdad,el,a,291.6156,291.6156,-0.457338044,-0.397799902,0,0,0,,0,93,93,300,1,,,,,
,,,,,,6e8d122fb06f57bcc3e4eec9,66a626ef09d4e21e1a8894ec,6734d679253f396591765f3f,2024-11-13_13h55.28.562,Tarea de género gramatical,2024.2.2,Win32,67.11409396,,,,,,,,,,,,,,,,,,,,,,,,291.6165,292.9662,a,1,0.6677,,[],[],[],[],[],[],[],0.6677,1,292.9662,293.4836,,,,,,1246,MAS,DIS,150,juicio,la,l,293.4837,293.4838,-0.457338044,-0.397799902,0,0,0,,0,94,94,345,1,,,,,
,,,,,,6e8d122fb06f57bcc3e4eec9,66a626ef09d4e21e1a8894ec,6734d679253f396591765f3f,2024-11-13_13h55.28.562,Tarea de género gramatical,2024.2.2,Win32,67.11409396,,,,,,,,,,,,,,,,,,,,,,,,293.4846,294.7832,l,1,0.6334,,[],[],[],[],[],[],[],0.6334,1,294.7833,295.2837,,,,,,1105,FEM,DIS,150,reina,el,a,295.2837,295.2839,-0.457338044,-0.397799902,0,0,0,,0,95,95,204,1,,,,,
,,,,,,6e8d122fb06f57bcc3e4eec9,66a626ef09d4e21e1a8894ec,6734d679253f396591765f3f,2024-11-13_13h55.28.562,Tarea de género gramatical,2024.2.2,Win32,67.11409396,,,,,,,,,,,,,,,,,,,,,,,,295.2848,296.8162,l,1,0.8678,,[],[],[],[],[],[],[],0.8678,1,296.8163,297.3327,,,,,,1208,FEM,AGR,150,semana,la,a,297.3339,297.3345,-0.457338044,-0.397799902,0,0,0,,0,96,96,307,1,,,,,
,,,,,,6e8d122fb06f57bcc3e4eec9,66a626ef09d4e21e1a8894ec,6734d679253f396591765f3f,2024-11-13_13h55.28.562,Tarea de género gramatical,2024.2.2,Win32,67.11409396,,,,,,,,,,,,,,,,,,,,,,,,297.3351,298.7495,a,1,0.7329,,[],[],[],[],[],[],[],0.7329,1,298.7496,299.2487,,,,,,1020,MAS,CON,150,puño,,l,299.2487,299.2488,-0.457338044,-0.397799902,0,0,0,,0,97,97,119,1,,,,,
,,,,,,6e8d122fb06f57bcc3e4eec9,66a626ef09d4e21e1a8894ec,6734d679253f396591765f3f,2024-11-13_13h55.28.562,Tarea de género gramatical,2024.2.2,Win32,67.11409396,,,,,,,,,,,,,,,,,,,,,,,,299.2496,300.6166,l,1,0.7146,,[],[],[],[],[],[],[],0.7146,1,300.617,301.1162,,,,,,1034,FEM,AGR,150,rama,la,a,301.1163,301.1163,-0.457338044,-0.397799902,0,0,0,,0,98,98,133,1,,,,,
,,,,,,6e8d122fb06f57bcc3e4eec9,66a626ef09d4e21e1a8894ec,6734d679253f396591765f3f,2024-11-13_13h55.28.562,Tarea de género gramatical,2024.2.2,Win32,67.11409396,,,,,,,,,,,,,,,,,,,,,,,,301.1172,302.2344,a,1,0.4351,,[],[],[],[],[],[],[],0.4351,1,302.2345,302.7341,,,,,,1169,MAS,AGR,150,primo,el,l,302.7341,302.7342,-0.457338044,-0.397799902,0,0,0,,0,99,99,268,1,,,,,
,,,,,,6e8d122fb06f57bcc3e4eec9,66a626ef09d4e21e1a8894ec,6734d679253f396591765f3f,2024-11-13_13h55.28.562,Tarea de género gramatical,2024.2.2,Win32,67.11409396,,,,,,,,,,,,,,,,,,,,,,,,302.7351,303.917,l,1,0.5018,,[],[],[],[],[],[],[],0.5018,1,303.9171,304.4085,,,,,,902,FEM,AGR,150,vida,la,a,304.4085,304.4086,-0.457338044,-0.397799902,0,0,0,,0,100,100,1,1,,,,,
,,,,,,6e8d122fb06f57bcc3e4eec9,66a626ef09d4e21e1a8894ec,6734d679253f396591765f3f,2024-11-13_13h55.28.562,Tarea de género gramatical,2024.2.2,Win32,67.11409396,,,,,,,,,,,,,,,,,,,,,,,,304.4093,305.5491,a,1,0.4673,,[],[],[],[],[],[],[],0.4673,1,305.5491,306.0488,,,,,,960,MAS,CON,150,tono,,l,306.0501,306.051,-0.457338044,-0.397799902,0,0,0,,0,101,101,59,1,,,,,
,,,,,,6e8d122fb06f57bcc3e4eec9,66a626ef09d4e21e1a8894ec,6734d679253f396591765f3f,2024-11-13_13h55.28.562,Tarea de género gramatical,2024.2.2,Win32,67.11409396,,,,,,,,,,,,,,,,,,,,,,,,306.0518,307.2496,l,1,0.5325,,[],[],[],[],[],[],[],0.5325,1,307.2496,307.7657,,,,,,1225,FEM,DIS,150,tierra,el,a,307.7657,307.7659,-0.457338044,-0.397799902,0,0,0,,0,102,102,324,1,,,,,
,,,,,,6e8d122fb06f57bcc3e4eec9,66a626ef09d4e21e1a8894ec,6734d679253f396591765f3f,2024-11-13_13h55.28.562,Tarea de género gramatical,2024.2.2,Win32,67.11409396,,,,,,,,,,,,,,,,,,,,,,,,307.7669,308.9006,a,1,0.4686,,[],[],[],[],[],[],[],0.4686,1,308.9007,309.394,,,,,,1348,MAS,DIS,150,aceite,la,l,309.3941,309.3942,-0.457338044,-0.397799902,0,0,0,,0,103,103,447,1,,,,,
,,,,,,6e8d122fb06f57bcc3e4eec9,66a626ef09d4e21e1a8894ec,6734d679253f396591765f3f,2024-11-13_13h55.28.562,Tarea de género gramatical,2024.2.2,Win32,67.11409396,,,,,,,,,,,,,,,,,,,,,,,,309.3949,310.7662,l,1,0.6999,,[],[],[],[],[],[],[],0.6999,1,310.7663,311.2592,,,,,,1299,FEM,CON,150,charla,,a,311.2594,311.2594,-0.457338044,-0.397799902,0,0,0,,0,104,104,398,1,,,,,
,,,,,,6e8d122fb06f57bcc3e4eec9,66a626ef09d4e21e1a8894ec,6734d679253f396591765f3f,2024-11-13_13h55.28.562,Tarea de género gramatical,2024.2.2,Win32,67.11409396,,,,,,,,,,,,,,,,,,,,,,,,311.26,312.6833,l,0,0.7655,,[],[],[],[],[],[],[],0.7655,0,312.684,313.1842,,,,,,1026,MAS,CON,150,lazo,,l,313.1853,313.1858,-0.457338044,-0.397799902,0,0,0,,0,105,105,125,1,,,,,
,,,,,,6e8d122fb06f57bcc3e4eec9,66a626ef09d4e21e1a8894ec,6734d679253f396591765f3f,2024-11-13_13h55.28.562,Tarea de género gramatical,2024.2.2,Win32,67.11409396,,,,,,,,,,,,,,,,,,,,,,,,313.1866,314.2334,a,1,0.3816,,[],[],[],[],[],[],[],0.3816,1,314.2341,314.7225,,,,,,929,MAS,AGR,150,frío,el,l,314.7226,314.7227,-0.457338044,-0.397799902,0,0,0,,0,106,106,28,1,,,,,
,,,,,,6e8d122fb06f57bcc3e4eec9,66a626ef09d4e21e1a8894ec,6734d679253f396591765f3f,2024-11-13_13h55.28.562,Tarea de género gramatical,2024.2.2,Win32,67.11409396,,,,,,,,,,,,,,,,,,,,,,,,314.7235,316.289,l,1,0.9024,,[],[],[],[],[],[],[],0.9024,1,316.2891,316.7823,,,,,,1184,FEM,AGR,150,fruta,la,a,316.7824,316.7824,-0.457338044,-0.397799902,0,0,0,,0,107,107,283,1,,,,,
,,,,,,6e8d122fb06f57bcc3e4eec9,66a626ef09d4e21e1a8894ec,6734d679253f396591765f3f,2024-11-13_13h55.28.562,Tarea de género gramatical,2024.2.2,Win32,67.11409396,,,,,,,,,,,,,,,,,,,,,,,,316.7839,317.8832,a,1,0.4477,,[],[],[],[],[],[],[],0.4477,1,317.8833,318.3664,,,,,,1198,MAS,DIS,150,botón,la,l,318.3665,318.3666,-0.457338044,-0.397799902,0,0,0,,0,108,108,297,1,,,,,
,,,,,,6e8d122fb06f57bcc3e4eec9,66a626ef09d4e21e1a8894ec,6734d679253f396591765f3f,2024-11-13_13h55.28.562,Tarea de género gramatical,2024.2.2,Win32,67.11409396,,,,,,,,,,,,,,,,,,,,,,,,318.3674,319.7678,l,1,0.7175,,[],[],[],[],[],[],[],0.7175,1,319.7679,320.2668,,,,,,1167,FEM,CON,150,barba,,a,320.2669,320.2669,-0.457338044,-0.397799902,0,0,0,,0,109,109,266,1,,,,,
,,,,,,6e8d122fb06f57bcc3e4eec9,66a626ef09d4e21e1a8894ec,6734d679253f396591765f3f,2024-11-13_13h55.28.562,Tarea de género gramatical,2024.2.2,Win32,67.11409396,,,,,,,,,,,,,,,,,,,,,,,,320.268,321.3338,a,1,0.399,,[],[],[],[],[],[],[],0.399,1,321.3339,321.8329,,,,,,983,MAS,AGR,150,nene,el,l,321.8341,321.8348,-0.457338044,-0.397799902,0,0,0,,0,110,110,82,1,,,,,
,,,,,,6e8d122fb06f57bcc3e4eec9,66a626ef09d4e21e1a8894ec,6734d679253f396591765f3f,2024-11-13_13h55.28.562,Tarea de género gramatical,2024.2.2,Win32,67.11409396,,,,,,,,,,,,,,,,,,,,,,,,321.8355,323.1326,l,1,0.6165,,[],[],[],[],[],[],[],0.6165,1,323.1327,323.6325,,,,,,1310,FEM,AGR,150,piedad,la,a,323.6325,323.6326,-0.457338044,-0.397799902,0,0,0,,0,111,111,409,1,,,,,
,,,,,,6e8d122fb06f57bcc3e4eec9,66a626ef09d4e21e1a8894ec,6734d679253f396591765f3f,2024-11-13_13h55.28.562,Tarea de género gramatical,2024.2.2,Win32,67.11409396,,,,,,,,,,,,,,,,,,,,,,,,323.6335,324.9329,l,1,0.6161,,[],[],[],[],[],[],[],0.6161,1,324.933,325.4323,,,,,,1209,FEM,CON,150,esposa,,a,325.4325,325.4325,-0.457338044,-0.397799902,0,0,0,,0,112,112,308,1,,,,,
,,,,,,6e8d122fb06f57bcc3e4eec9,66a626ef09d4e21e1a8894ec,6734d679253f396591765f3f,2024-11-13_13h55.28.562,Tarea de género gramatical,2024.2.2,Win32,67.11409396,,,,,,,,,,,,,,,,,,,,,,,,325.4336,326.468,a,1,0.3657,,[],[],[],[],[],[],[],0.3657,1,326.468,326.9658,,,,,,1061,MAS,AGR,150,chico,el,l,326.9658,326.966,-0.457338044,-0.397799902,0,0,0,,0,113,113,160,1,,,,,
,,,,,,6e8d122fb06f57bcc3e4eec9,66a626ef09d4e21e1a8894ec,6734d679253f396591765f3f,2024-11-13_13h55.28.562,Tarea de género gramatical,2024.2.2,Win32,67.11409396,,,,,,,,,,,,,,,,,,,,,,,,326.9667,328.5003,l,1,0.8812,,[],[],[],[],[],[],[],0.8812,1,328.5005,328.9823,,,,,,1321,FEM,DIS,150,novela,el,a,328.9832,328.9837,-0.457338044,-0.397799902,0,0,0,,0,114,114,420,1,,,,,
,,,,,,6e8d122fb06f57bcc3e4eec9,66a626ef09d4e21e1a8894ec,6734d679253f396591765f3f,2024-11-13_13h55.28.562,Tarea de género gramatical,2024.2.2,Win32,67.11409396,,,,,,,,,,,,,,,,,,,,,,,,328.9844,330.2682,l,1,0.5988,,[],[],[],[],[],[],[],0.5988,1,330.2684,330.7675,,,,,,915,FEM,CON,150,cama,,a,330.7675,330.7677,-0.457338044,-0.397799902,0,0,0,,0,115,115,14,1,,,,,
,,,,,,6e8d122fb06f57bcc3e4eec9,66a626ef09d4e21e1a8894ec,6734d679253f396591765f3f,2024-11-13_13h55.28.562,Tarea de género gramatical,2024.2.2,Win32,67.11409396,,,,,,,,,,,,,,,,,,,,,,,,330.7684,332.0516,l,1,0.6015,,[],[],[],[],[],[],[],0.6015,1,332.0516,332.5678,,,,,,969,FEM,CON,150,rata,,a,332.5678,332.5679,-0.457338044,-0.397799902,0,0,0,,0,116,116,68,1,,,,,
,,,,,,6e8d122fb06f57bcc3e4eec9,66a626ef09d4e21e1a8894ec,6734d679253f396591765f3f,2024-11-13_13h55.28.562,Tarea de género gramatical,2024.2.2,Win32,67.11409396,,,,,,,,,,,,,,,,,,,,,,,,332.5688,334.067,a,1,0.8171,,[],[],[],[],[],[],[],0.8171,1,334.0671,334.568,,,,,,946,MAS,DIS,150,odio,la,l,334.5681,334.5683,-0.457338044,-0.397799902,0,0,0,,0,117,117,45,1,,,,,
,,,,,,6e8d122fb06f57bcc3e4eec9,66a626ef09d4e21e1a8894ec,6734d679253f396591765f3f,2024-11-13_13h55.28.562,Tarea de género gramatical,2024.2.2,Win32,67.11409396,,,,,,,,,,,,,,,,,,,,,,,,334.5692,335.9677,l,1,0.7166,,[],[],[],[],[],[],[],0.7166,1,335.9677,336.4842,,,,,,1251,FEM,CON,150,espada,,a,336.4842,336.4842,-0.457338044,-0.397799902,0,0,0,,0,118,118,350,1,,,,,
,,,,,,6e8d122fb06f57bcc3e4eec9,66a626ef09d4e21e1a8894ec,6734d679253f396591765f3f,2024-11-13_13h55.28.562,Tarea de género gramatical,2024.2.2,Win32,67.11409396,,,,,,,,,,,,,,,,,,,,,,,,336.4856,337.7174,l,1,0.5682,,[],[],[],[],[],[],[],0.5682,1,337.7174,338.2163,,,,,,1033,FEM,DIS,150,joya,el,a,338.2172,338.2177,-0.457338044,-0.397799902,0,0,0,,0,119,119,132,1,,,,,
,,,,,,6e8d122fb06f57bcc3e4eec9,66a626ef09d4e21e1a8894ec,6734d679253f396591765f3f,2024-11-13_13h55.28.562,Tarea de género gramatical,2024.2.2,Win32,67.11409396,,,,,,,,,,,,,,,,,,,,,,,,338.2184,339.2167,a,0,0.3343,,[],[],[],[],[],[],[],0.3343,0,339.2174,339.7071,,,,,,1075,FEM,DIS,150,señal,el,a,339.7072,339.7072,-0.457338044,-0.397799902,0,0,0,,0,120,120,174,1,,,,,
,,,,,,6e8d122fb06f57bcc3e4eec9,66a626ef09d4e21e1a8894ec,6734d679253f396591765f3f,2024-11-13_13h55.28.562,Tarea de género gramatical,2024.2.2,Win32,67.11409396,,,,,,,,,,,,,,,,,,,,,,,,339.708,341.0346,a,1,0.6518,,[],[],[],[],[],[],[],0.6518,1,341.0361,341.5326,,,,,,922,MAS,DIS,150,pelo,la,l,341.5327,341.5328,-0.457338044,-0.397799902,0,0,0,,0,121,121,21,1,,,,,
,,,,,,6e8d122fb06f57bcc3e4eec9,66a626ef09d4e21e1a8894ec,6734d679253f396591765f3f,2024-11-13_13h55.28.562,Tarea de género gramatical,2024.2.2,Win32,67.11409396,,,,,,,,,,,,,,,,,,,,,,,,341.5335,342.5664,l,1,0.3657,,[],[],[],[],[],[],[],0.3657,1,342.5664,343.0669,,,,,,1171,FEM,DIS,150,viuda,el,a,343.067,343.0671,-0.457338044,-0.397799902,0,0,0,,0,122,122,270,1,,,,,
,,,,,,6e8d122fb06f57bcc3e4eec9,66a626ef09d4e21e1a8894ec,6734d679253f396591765f3f,2024-11-13_13h55.28.562,Tarea de género gramatical,2024.2.2,Win32,67.11409396,,,,,,,,,,,,,,,,,,,,,,,,343.068,344.418,l,0,0.6678,,[],[],[],[],[],[],[],0.6678,0,344.4187,344.9176,,,,,,1248,MAS,CON,150,anillo,,l,344.9186,344.9191,-0.457338044,-0.397799902,0,0,0,,0,123,123,347,1,,,,,
,,,,,,6e8d122fb06f57bcc3e4eec9,66a626ef09d4e21e1a8894ec,6734d679253f396591765f3f,2024-11-13_13h55.28.562,Tarea de género gramatical,2024.2.2,Win32,67.11409396,,,,,,,,,,,,,,,,,,,,,,,,344.9197,346.4513,a,1,0.852,,[],[],[],[],[],[],[],0.852,1,346.4521,346.9465,,,,,,1176,MAS,CON,150,ritmo,,l,346.9467,346.9467,-0.457338044,-0.397799902,0,0,0,,0,124,124,275,1,,,,,
,,,,,,6e8d122fb06f57bcc3e4eec9,66a626ef09d4e21e1a8894ec,6734d679253f396591765f3f,2024-11-13_13h55.28.562,Tarea de género gramatical,2024.2.2,Win32,67.11409396,,,,,,,,,,,,,,,,,,,,,,,,346.9477,348.4844,a,1,0.8666,,[],[],[],[],[],[],[],0.8666,1,348.4845,348.9764,,,,,,970,MAS,DIS,150,palo,la,l,348.9764,348.9765,-0.457338044,-0.397799902,0,0,0,,0,125,125,69,1,,,,,
,,,,,,6e8d122fb06f57bcc3e4eec9,66a626ef09d4e21e1a8894ec,6734d679253f396591765f3f,2024-11-13_13h55.28.562,Tarea de género gramatical,2024.2.2,Win32,67.11409396,,,,,,,,,,,,,,,,,,,,,,,,348.9776,350.3012,a,1,0.6664,,[],[],[],[],[],[],[],0.6664,1,350.3012,350.8004,,,,,,1049,MAS,AGR,150,nudo,el,l,350.8004,350.8005,-0.457338044,-0.397799902,0,0,0,,0,126,126,148,1,,,,,
,,,,,,6e8d122fb06f57bcc3e4eec9,66a626ef09d4e21e1a8894ec,6734d679253f396591765f3f,2024-11-13_13h55.28.562,Tarea de género gramatical,2024.2.2,Win32,67.11409396,,,,,,,,,,,,,,,,,,,,,,,,350.8013,351.9613,l,1,0.4867,,[],[],[],[],[],[],[],0.4867,1,351.9614,352.4536,,,,,,1262,FEM,AGR,150,fuente,la,a,352.4537,352.4539,-0.457338044,-0.397799902,0,0,0,,0,127,127,361,1,,,,,
,,,,,,6e8d122fb06f57bcc3e4eec9,66a626ef09d4e21e1a8894ec,6734d679253f396591765f3f,2024-11-13_13h55.28.562,Tarea de género gramatical,2024.2.2,Win32,67.11409396,,,,,,,,,,,,,,,,,,,,,,,,352.4545,353.619,l,1,0.5032,,[],[],[],[],[],[],[],0.5032,1,353.6191,354.11,,,,,,956,FEM,AGR,150,bola,la,a,354.1115,354.1122,-0.457338044,-0.397799902,0,0,0,,0,128,128,55,1,,,,,
,,,,,,6e8d122fb06f57bcc3e4eec9,66a626ef09d4e21e1a8894ec,6734d679253f396591765f3f,2024-11-13_13h55.28.562,Tarea de género gramatical,2024.2.2,Win32,67.11409396,,,,,,,,,,,,,,,,,,,,,,,,354.1128,355.3638,l,1,0.5779,,[],[],[],[],[],[],[],0.5779,1,355.3639,355.8663,,,,,,1047,FEM,CON,150,grúa,,a,355.8663,355.8664,-0.457338044,-0.397799902,0,0,0,,0,129,129,146,1,,,,,
,,,,,,6e8d122fb06f57bcc3e4eec9,66a626ef09d4e21e1a8894ec,6734d679253f396591765f3f,2024-11-13_13h55.28.562,Tarea de género gramatical,2024.2.2,Win32,67.11409396,,,,,,,,,,,,,,,,,,,,,,,,355.8672,356.9497,l,1,0.4002,,[],[],[],[],[],[],[],0.4002,1,356.9499,357.4664,,,,,,1196,FEM,AGR,150,feria,la,a,357.4665,357.4665,-0.457338044,-0.397799902,0,0,0,,0,130,130,295,1,,,,,
,,,,,,6e8d122fb06f57bcc3e4eec9,66a626ef09d4e21e1a8894ec,6734d679253f396591765f3f,2024-11-13_13h55.28.562,Tarea de género gramatical,2024.2.2,Win32,67.11409396,,,,,,,,,,,,,,,,,,,,,,,,357.4674,358.602,l,1,0.451,,[],[],[],[],[],[],[],0.451,1,358.6021,359.0803,,,,,,1052,FEM,AGR,150,gente,la,a,359.0803,359.0804,-0.457338044,-0.397799902,0,0,0,,0,131,131,151,1,,,,,
,,,,,,6e8d122fb06f57bcc3e4eec9,66a626ef09d4e21e1a8894ec,6734d679253f396591765f3f,2024-11-13_13h55.28.562,Tarea de género gramatical,2024.2.2,Win32,67.11409396,,,,,,,,,,,,,,,,,,,,,,,,359.0811,360.0998,a,1,0.334,,[],[],[],[],[],[],[],0.334,1,360.0999,360.6005,,,,,,1121,MAS,AGR,150,brazo,el,l,360.6013,360.6017,-0.457338044,-0.397799902,0,0,0,,0,132,132,220,1,,,,,
,,,,,,6e8d122fb06f57bcc3e4eec9,66a626ef09d4e21e1a8894ec,6734d679253f396591765f3f,2024-11-13_13h55.28.562,Tarea de género gramatical,2024.2.2,Win32,67.11409396,,,,,,,,,,,,,,,,,,,,,,,,360.6025,361.8012,l,1,0.5316,,[],[],[],[],[],[],[],0.5316,1,361.8013,362.3178,,,,,,951,FEM,CON,150,bala,,a,362.3179,362.318,-0.457338044,-0.397799902,0,0,0,,0,133,133,50,1,,,,,
,,,,,,6e8d122fb06f57bcc3e4eec9,66a626ef09d4e21e1a8894ec,6734d679253f396591765f3f,2024-11-13_13h55.28.562,Tarea de género gramatical,2024.2.2,Win32,67.11409396,,,,,,,,,,,,,,,,,,,,,,,,362.3193,363.568,a,0,0.567,,[],[],[],[],[],[],[],0.567,0,363.5687,364.066,,,,,,979,FEM,DIS,150,mina,el,a,364.066,364.0662,-0.457338044,-0.397799902,0,0,0,,0,134,134,78,1,,,,,
,,,,,,6e8d122fb06f57bcc3e4eec9,66a626ef09d4e21e1a8894ec,6734d679253f396591765f3f,2024-11-13_13h55.28.562,Tarea de género gramatical,2024.2.2,Win32,67.11409396,,,,,,,,,,,,,,,,,,,,,,,,364.0672,365.4007,l,1,0.6512,,[],[],[],[],[],[],[],0.6512,1,365.4014,365.9162,,,,,,1065,FEM,CON,150,amiga,,a,365.9162,365.9164,-0.457338044,-0.397799902,0,0,0,,0,135,135,164,1,,,,,
,,,,,,6e8d122fb06f57bcc3e4eec9,66a626ef09d4e21e1a8894ec,6734d679253f396591765f3f,2024-11-13_13h55.28.562,Tarea de género gramatical,2024.2.2,Win32,67.11409396,,,,,,,,,,,,,,,,,,,,,,,,365.9172,367.1852,a,1,0.614,,[],[],[],[],[],[],[],0.614,1,367.1853,367.6783,,,,,,1066,MAS,DIS,150,coche,la,l,367.6784,367.6785,-0.457338044,-0.397799902,0,0,0,,0,136,136,165,1,,,,,
,,,,,,6e8d122fb06f57bcc3e4eec9,66a626ef09d4e21e1a8894ec,6734d679253f396591765f3f,2024-11-13_13h55.28.562,Tarea de género gramatical,2024.2.2,Win32,67.11409396,,,,,,,,,,,,,,,,,,,,,,,,367.6792,369.0675,l,1,0.7174,,[],[],[],[],[],[],[],0.7174,1,369.0675,369.5586,,,,,,1071,FEM,CON,150,mitad,,a,369.5596,369.5601,-0.457338044,-0.397799902,0,0,0,,0,137,137,170,1,,,,,
,,,,,,6e8d122fb06f57bcc3e4eec9,66a626ef09d4e21e1a8894ec,6734d679253f396591765f3f,2024-11-13_13h55.28.562,Tarea de género gramatical,2024.2.2,Win32,67.11409396,,,,,,,,,,,,,,,,,,,,,,,,369.5606,370.8117,l,1,0.5737,,[],[],[],[],[],[],[],0.5737,1,370.8118,371.3019,,,,,,1203,FEM,CON,150,maldad,,a,371.302,371.3021,-0.457338044,-0.397799902,0,0,0,,0,138,138,302,1,,,,,
,,,,,,6e8d122fb06f57bcc3e4eec9,66a626ef09d4e21e1a8894ec,6734d679253f396591765f3f,2024-11-13_13h55.28.562,Tarea de género gramatical,2024.2.2,Win32,67.11409396,,,,,,,,,,,,,,,,,,,,,,,,371.3027,372.367,a,1,0.3824,,[],[],[],[],[],[],[],0.3824,1,372.3671,372.8571,,,,,,1247,MAS,AGR,150,cuello,el,l,372.8572,372.8572,-0.457338044,-0.397799902,0,0,0,,0,139,139,346,1,,,,,
,,,,,,6e8d122fb06f57bcc3e4eec9,66a626ef09d4e21e1a8894ec,6734d679253f396591765f3f,2024-11-13_13h55.28.562,Tarea de género gramatical,2024.2.2,Win32,67.11409396,,,,,,,,,,,,,,,,,,,,,,,,372.8581,374.2007,l,1,0.6491,,[],[],[],[],[],[],[],0.6491,1,374.2009,374.7008,,,,,,1154,FEM,AGR,150,caída,la,a,374.7009,374.701,-0.457338044,-0.397799902,0,0,0,,0,140,140,253,1,,,,,
,,,,,,6e8d122fb06f57bcc3e4eec9,66a626ef09d4e21e1a8894ec,6734d679253f396591765f3f,2024-11-13_13h55.28.562,Tarea de género gramatical,2024.2.2,Win32,67.11409396,,,,,,,,,,,,,,,,,,,,,,,,374.702,376.1673,a,1,0.8002,,[],[],[],[],[],[],[],0.8002,1,376.1674,376.6498,,,,,,1230,MAS,CON,150,estado,,l,376.6507,376.6513,-0.457338044,-0.397799902,0,0,0,,0,141,141,329,1,,,,,
,,,,,,6e8d122fb06f57bcc3e4eec9,66a626ef09d4e21e1a8894ec,6734d679253f396591765f3f,2024-11-13_13h55.28.562,Tarea de género gramatical,2024.2.2,Win32,67.11409396,,,,,,,,,,,,,,,,,,,,,,,,376.6519,377.8865,l,1,0.5697,,[],[],[],[],[],[],[],0.5697,1,377.8868,378.3837,,,,,,1077,FEM,CON,150,broma,,a,378.3837,378.3837,-0.457338044,-0.397799902,0,0,0,,0,142,142,176,1,,,,,
,,,,,,6e8d122fb06f57bcc3e4eec9,66a626ef09d4e21e1a8894ec,6734d679253f396591765f3f,2024-11-13_13h55.28.562,Tarea de género gramatical,2024.2.2,Win32,67.11409396,,,,,,,,,,,,,,,,,,,,,,,,378.3845,379.7839,l,1,0.7331,,[],[],[],[],[],[],[],0.7331,1,379.784,380.2745,,,,,,981,FEM,CON,150,cima,,a,380.2746,380.2747,-0.457338044,-0.397799902,0,0,0,,0,143,143,80,1,,,,,
,,,,,,6e8d122fb06f57bcc3e4eec9,66a626ef09d4e21e1a8894ec,6734d679253f396591765f3f,2024-11-13_13h55.28.562,Tarea de género gramatical,2024.2.2,Win32,67.11409396,,,,,,,,,,,,,,,,,,,,,,,,380.2756,381.2753,a,1,0.3402,,[],[],[],[],[],[],[],0.3402,1,381.2754,381.7661,,,,,,1175,MAS,AGR,150,disco,el,l,381.7662,381.7663,-0.457338044,-0.397799902,0,0,0,,0,144,144,274,1,,,,,
,,,,,,6e8d122fb06f57bcc3e4eec9,66a626ef09d4e21e1a8894ec,6734d679253f396591765f3f,2024-11-13_13h55.28.562,Tarea de género gramatical,2024.2.2,Win32,67.11409396,,,,,,,,,,,,,,,,,,,,,,,,381.7673,383.1502,a,1,0.701,,[],[],[],[],[],[],[],0.701,1,383.1503,383.6501,,,,,,1122,MAS,CON,150,valor,,l,383.6501,383.6502,-0.457338044,-0.397799902,0,0,0,,0,145,145,221,1,,,,,
,,,,,,6e8d122fb06f57bcc3e4eec9,66a626ef09d4e21e1a8894ec,6734d679253f396591765f3f,2024-11-13_13h55.28.562,Tarea de género gramatical,2024.2.2,Win32,67.11409396,,,,,,,,,,,,,,,,,,,,,,,,383.6514,384.6625,a,1,0.3278,,[],[],[],[],[],[],[],0.3278,1,384.6625,385.155,,,,,,1211,MAS,AGR,150,camino,el,l,385.1561,385.1572,-0.457338044,-0.397799902,0,0,0,,0,146,146,310,1,,,,,
,,,,,,6e8d122fb06f57bcc3e4eec9,66a626ef09d4e21e1a8894ec,6734d679253f396591765f3f,2024-11-13_13h55.28.562,Tarea de género gramatical,2024.2.2,Win32,67.11409396,,,,,,,,,,,,,,,,,,,,,,,,385.1578,386.3193,l,1,0.4856,,[],[],[],[],[],[],[],0.4856,1,386.3195,386.8123,,,,,,1165,FEM,DIS,150,rueda,el,a,386.8124,386.8125,-0.455409367,-0.394907038,0,0,0,,0,147,147,264,1,,,,,
,,,,,,6e8d122fb06f57bcc3e4eec9,66a626ef09d4e21e1a8894ec,6734d679253f396591765f3f,2024-11-13_13h55.28.562,Tarea de género gramatical,2024.2.2,Win32,67.11409396,,,,,,,,,,,,,,,,,,,,,,,,386.8134,387.9504,l,1,0.4829,,[],[],[],[],[],[],[],0.4829,1,387.9505,388.4499,,,,,,937,FEM,DIS,150,sala,el,a,388.4499,388.45,-0.455409367,-0.394907038,0,0,0,,0,148,148,36,1,,,,,
,,,,,,6e8d122fb06f57bcc3e4eec9,66a626ef09d4e21e1a8894ec,6734d679253f396591765f3f,2024-11-13_13h55.28.562,Tarea de género gramatical,2024.2.2,Win32,67.11409396,,,,,,,,,,,,,,,,,,,,,,,,388.4507,389.4837,a,1,0.3507,,[],[],[],[],[],[],[],0.3507,1,389.4838,389.9834,,,,,,1296,MAS,CON,150,tesoro,,l,389.9835,389.9835,-0.456373723,-0.395871393,0,0,0,,0,149,149,395,1,,,,,
,,,,,,6e8d122fb06f57bcc3e4eec9,66a626ef09d4e21e1a8894ec,6734d679253f396591765f3f,2024-11-13_13h55.28.562,Tarea de género gramatical,2024.2.2,Win32,67.11409396,,,,,,,,,,,,,,,,,,,,,,,,389.9842,391.0671,l,1,0.4008,,[],[],[],[],[],[],[],0.4008,1,391.0672,391.5665,,,,,,1293,FEM,CON,150,alarma,,a,391.5674,397.2894,-0.451552013,-0.391049683,0,0,0,space,0,150,150,392,1,5.7051,,,,
,,,,,,6e8d122fb06f57bcc3e4eec9,66a626ef09d4e21e1a8894ec,6734d679253f396591765f3f,2024-11-13_13h55.28.562,Tarea de género gramatical,2024.2.2,Win32,67.11409396,,,,,,,,,,,,,,,,,,,,,,,,397.2904,398.648,a,1,0.6697,,[],[],[],[],[],[],[],0.6697,1,398.6482,399.1404,,,,,,1044,MAS,CON,150,amor,,l,399.1405,399.1407,-0.451552013,-0.391049683,0,0,0,,0,151,151,143,1,,,,,
,,,,,,6e8d122fb06f57bcc3e4eec9,66a626ef09d4e21e1a8894ec,6734d679253f396591765f3f,2024-11-13_13h55.28.562,Tarea de género gramatical,2024.2.2,Win32,67.11409396,,,,,,,,,,,,,,,,,,,,,,,,399.1415,400.3181,l,1,0.5005,,[],[],[],[],[],[],[],0.5005,1,400.3182,400.8119,,,,,,1178,FEM,AGR,150,presa,la,a,400.8119,400.812,-0.451552013,-0.391049683,0,0,0,,0,152,152,277,1,,,,,
,,,,,,6e8d122fb06f57bcc3e4eec9,66a626ef09d4e21e1a8894ec,6734d679253f396591765f3f,2024-11-13_13h55.28.562,Tarea de género gramatical,2024.2.2,Win32,67.11409396,,,,,,,,,,,,,,,,,,,,,,,,400.8128,401.9683,a,1,0.4817,,[],[],[],[],[],[],[],0.4817,1,401.9684,402.4836,,,,,,1007,MAS,AGR,150,cubo,el,l,402.4836,402.4837,-0.451552013,-0.391049683,0,0,0,,0,153,153,106,1,,,,,
,,,,,,6e8d122fb06f57bcc3e4eec9,66a626ef09d4e21e1a8894ec,6734d679253f396591765f3f,2024-11-13_13h55.28.562,Tarea de género gramatical,2024.2.2,Win32,67.11409396,,,,,,,,,,,,,,,,,,,,,,,,402.4845,403.5675,a,1,0.4145,,[],[],[],[],[],[],[],0.4145,1,403.5675,404.0676,,,,,,1163,MAS,AGR,150,carro,el,l,404.0676,404.0677,-0.451552013,-0.391049683,0,0,0,,0,154,154,262,1,,,,,
,,,,,,6e8d122fb06f57bcc3e4eec9,66a626ef09d4e21e1a8894ec,6734d679253f396591765f3f,2024-11-13_13h55.28.562,Tarea de género gramatical,2024.2.2,Win32,67.11409396,,,,,,,,,,,,,,,,,,,,,,,,404.0684,405.1352,a,1,0.4151,,[],[],[],[],[],[],[],0.4151,1,405.1353,405.6333,,,,,,1295,MAS,AGR,150,correo,el,l,405.6342,405.6349,-0.451552013,-0.391049683,0,0,0,,0,155,155,394,1,,,,,
,,,,,,6e8d122fb06f57bcc3e4eec9,66a626ef09d4e21e1a8894ec,6734d679253f396591765f3f,2024-11-13_13h55.28.562,Tarea de género gramatical,2024.2.2,Win32,67.11409396,,,,,,,,,,,,,,,,,,,,,,,,405.6355,406.6507,l,1,0.3342,,[],[],[],[],[],[],[],0.3342,1,406.6508,407.1512,,,,,,1010,FEM,AGR,150,rosa,la,a,407.1512,407.1513,-0.451552013,-0.391049683,0,0,0,,0,156,156,109,1,,,,,
,,,,,,6e8d122fb06f57bcc3e4eec9,66a626ef09d4e21e1a8894ec,6734d679253f396591765f3f,2024-11-13_13h55.28.562,Tarea de género gramatical,2024.2.2,Win32,67.11409396,,,,,,,,,,,,,,,,,,,,,,,,407.1521,408.4189,l,1,0.6002,,[],[],[],[],[],[],[],0.6002,1,408.419,408.917,,,,,,1159,FEM,DIS,150,prima,el,a,408.9171,408.9171,-0.451552013,-0.391049683,0,0,0,,0,157,157,258,1,,,,,
,,,,,,6e8d122fb06f57bcc3e4eec9,66a626ef09d4e21e1a8894ec,6734d679253f396591765f3f,2024-11-13_13h55.28.562,Tarea de género gramatical,2024.2.2,Win32,67.11409396,,,,,,,,,,,,,,,,,,,,,,,,408.9179,410.1009,l,1,0.5137,,[],[],[],[],[],[],[],0.5137,1,410.101,410.6018,,,,,,1280,FEM,AGR,150,madera,la,a,410.6019,410.6019,-0.451552013,-0.391049683,0,0,0,,0,158,158,379,1,,,,,
,,,,,,6e8d122fb06f57bcc3e4eec9,66a626ef09d4e21e1a8894ec,6734d679253f396591765f3f,2024-11-13_13h55.28.562,Tarea de género gramatical,2024.2.2,Win32,67.11409396,,,,,,,,,,,,,,,,,,,,,,,,410.6031,411.6627,l,1,0.3862,,[],[],[],[],[],[],[],0.3862,1,411.6628,412.1686,,,,,,1347,FEM,CON,150,lógica,,a,412.1695,412.1704,-0.451552013,-0.391049683,0,0,0,,0,159,159,446,1,,,,,
,,,,,,6e8d122fb06f57bcc3e4eec9,66a626ef09d4e21e1a8894ec,6734d679253f396591765f3f,2024-11-13_13h55.28.562,Tarea de género gramatical,2024.2.2,Win32,67.11409396,,,,,,,,,,,,,,,,,,,,,,,,412.1713,413.234,a,1,0.3968,,[],[],[],[],[],[],[],0.3968,1,413.2341,413.7503,,,,,,1145,MAS,AGR,150,turno,el,l,413.7503,413.7504,-0.451552013,-0.391049683,0,0,0,,0,160,160,244,1,,,,,
,,,,,,6e8d122fb06f57bcc3e4eec9,66a626ef09d4e21e1a8894ec,6734d679253f396591765f3f,2024-11-13_13h55.28.562,Tarea de género gramatical,2024.2.2,Win32,67.11409396,,,,,,,,,,,,,,,,,,,,,,,,413.7511,414.9314,l,1,0.5079,,[],[],[],[],[],[],[],0.5079,1,414.9316,415.4245,,,,,,1335,FEM,CON,150,niebla,,a,415.4245,415.4247,-0.451552013,-0.391049683,0,0,0,,0,161,161,434,1,,,,,
,,,,,,6e8d122fb06f57bcc3e4eec9,66a626ef09d4e21e1a8894ec,6734d679253f396591765f3f,2024-11-13_13h55.28.562,Tarea de género gramatical,2024.2.2,Win32,67.11409396,,,,,,,,,,,,,,,,,,,,,,,,415.4256,416.6342,l,1,0.5476,,[],[],[],[],[],[],[],0.5476,1,416.6342,417.1253,,,,,,1304,FEM,AGR,150,gloria,la,a,417.1253,417.1255,-0.451552013,-0.391049683,0,0,0,,0,162,162,403,1,,,,,
,,,,,,6e8d122fb06f57bcc3e4eec9,66a626ef09d4e21e1a8894ec,6734d679253f396591765f3f,2024-11-13_13h55.28.562,Tarea de género gramatical,2024.2.2,Win32,67.11409396,,,,,,,,,,,,,,,,,,,,,,,,417.1263,418.2342,a,1,0.4334,,[],[],[],[],[],[],[],0.4334,1,418.2342,418.7344,,,,,,1217,MAS,AGR,150,número,el,l,418.7345,418.7346,-0.451552013,-0.391049683,0,0,0,,0,163,163,316,1,,,,,
,,,,,,6e8d122fb06f57bcc3e4eec9,66a626ef09d4e21e1a8894ec,6734d679253f396591765f3f,2024-11-13_13h55.28.562,Tarea de género gramatical,2024.2.2,Win32,67.11409396,,,,,,,,,,,,,,,,,,,,,,,,418.7353,419.8195,l,0,0.4195,,[],[],[],[],[],[],[],0.4195,0,419.8201,420.3345,,,,,,948,MAS,CON,150,loco,,l,420.3355,420.3362,-0.451552013,-0.391049683,0,0,0,,0,164,164,47,1,,,,,
,,,,,,6e8d122fb06f57bcc3e4eec9,66a626ef09d4e21e1a8894ec,6734d679253f396591765f3f,2024-11-13_13h55.28.562,Tarea de género gramatical,2024.2.2,Win32,67.11409396,,,,,,,,,,,,,,,,,,,,,,,,420.337,421.2849,a,1,0.2833,,[],[],[],[],[],[],[],0.2833,1,421.2856,421.7829,,,,,,1134,MAS,CON,150,héroe,,l,421.783,421.7832,-0.451552013,-0.391049683,0,0,0,,0,165,165,233,1,,,,,
,,,,,,6e8d122fb06f57bcc3e4eec9,66a626ef09d4e21e1a8894ec,6734d679253f396591765f3f,2024-11-13_13h55.28.562,Tarea de género gramatical,2024.2.2,Win32,67.11409396,,,,,,,,,,,,,,,,,,,,,,,,421.7841,422.9508,l,1,0.4997,,[],[],[],[],[],[],[],0.4997,1,422.9509,423.4513,,,,,,1111,FEM,DIS,150,salud,el,a,423.4513,423.4514,-0.451552013,-0.391049683,0,0,0,,0,166,166,210,1,,,,,
,,,,,,6e8d122fb06f57bcc3e4eec9,66a626ef09d4e21e1a8894ec,6734d679253f396591765f3f,2024-11-13_13h55.28.562,Tarea de género gramatical,2024.2.2,Win32,67.11409396,,,,,,,,,,,,,,,,,,,,,,,,423.4523,424.5674,l,1,0.4505,,[],[],[],[],[],[],[],0.4505,1,424.5676,425.0666,,,,,,903,FEM,CON,150,cosa,,a,425.0667,425.0668,-0.451552013,-0.391049683,0,0,0,,0,167,167,2,1,,,,,
,,,,,,6e8d122fb06f57bcc3e4eec9,66a626ef09d4e21e1a8894ec,6734d679253f396591765f3f,2024-11-13_13h55.28.562,Tarea de género gramatical,2024.2.2,Win32,67.11409396,,,,,,,,,,,,,,,,,,,,,,,,425.0678,426.4846,l,0,0.7342,,[],[],[],[],[],[],[],0.7342,0,426.4854,426.9833,,,,,,904,MAS,DIS,150,hijo,la,l,426.9842,426.9848,-0.451552013,-0.391049683,0,0,0,,0,168,168,3,1,,,,,
,,,,,,6e8d122fb06f57bcc3e4eec9,66a626ef09d4e21e1a8894ec,6734d679253f396591765f3f,2024-11-13_13h55.28.562,Tarea de género gramatical,2024.2.2,Win32,67.11409396,,,,,,,,,,,,,,,,,,,,,,,,426.9858,427.9614,a,1,0.2761,,[],[],[],[],[],[],[],0.2761,1,427.9622,428.4537,,,,,,1312,MAS,DIS,150,espejo,la,l,428.4538,428.4538,-0.451552013,-0.391049683,0,0,0,,0,169,169,411,1,,,,,
,,,,,,6e8d122fb06f57bcc3e4eec9,66a626ef09d4e21e1a8894ec,6734d679253f396591765f3f,2024-11-13_13h55.28.562,Tarea de género gramatical,2024.2.2,Win32,67.11409396,,,,,,,,,,,,,,,,,,,,,,,,428.4547,429.6339,l,0,0.5008,,[],[],[],[],[],[],[],0.5008,0,429.6345,430.1337,,,,,,1222,MAS,DIS,150,minuto,la,l,430.1337,430.1338,-0.451552013,-0.391049683,0,0,0,,0,170,170,321,1,,,,,
,,,,,,6e8d122fb06f57bcc3e4eec9,66a626ef09d4e21e1a8894ec,6734d679253f396591765f3f,2024-11-13_13h55.28.562,Tarea de género gramatical,2024.2.2,Win32,67.11409396,,,,,,,,,,,,,,,,,,,,,,,,430.1346,431.3177,l,1,0.4999,,[],[],[],[],[],[],[],0.4999,1,431.3183,431.8167,,,,,,1177,FEM,DIS,150,plaza,el,a,431.8168,431.8168,-0.451552013,-0.391049683,0,0,0,,0,171,171,276,1,,,,,
,,,,,,6e8d122fb06f57bcc3e4eec9,66a626ef09d4e21e1a8894ec,6734d679253f396591765f3f,2024-11-13_13h55.28.562,Tarea de género gramatical,2024.2.2,Win32,67.11409396,,,,,,,,,,,,,,,,,,,,,,,,431.8174,433.2839,a,1,0.815,,[],[],[],[],[],[],[],0.815,1,433.284,433.7838,,,,,,1054,MAS,DIS,150,padre,la,l,433.7839,433.784,-0.451552013,-0.391049683,0,0,0,,0,172,172,153,1,,,,,
,,,,,,6e8d122fb06f57bcc3e4eec9,66a626ef09d4e21e1a8894ec,6734d679253f396591765f3f,2024-11-13_13h55.28.562,Tarea de género gramatical,2024.2.2,Win32,67.11409396,,,,,,,,,,,,,,,,,,,,,,,,433.7849,434.8856,a,1,0.4342,,[],[],[],[],[],[],[],0.4342,1,434.8856,435.367,,,,,,1266,MAS,CON,150,riesgo,,l,435.3678,435.3684,-0.451552013,-0.391049683,0,0,0,,0,173,173,365,1,,,,,
,,,,,,6e8d122fb06f57bcc3e4eec9,66a626ef09d4e21e1a8894ec,6734d679253f396591765f3f,2024-11-13_13h55.28.562,Tarea de género gramatical,2024.2.2,Win32,67.11409396,,,,,,,,,,,,,,,,,,,,,,,,435.3689,436.4678,a,1,0.4178,,[],[],[],[],[],[],[],0.4178,1,436.4678,436.9526,,,,,,1289,MAS,AGR,150,tamaño,el,l,436.9527,436.9528,-0.451552013,-0.391049683,0,0,0,,0,174,174,388,1,,,,,
,,,,,,6e8d122fb06f57bcc3e4eec9,66a626ef09d4e21e1a8894ec,6734d679253f396591765f3f,2024-11-13_13h55.28.562,Tarea de género gramatical,2024.2.2,Win32,67.11409396,,,,,,,,,,,,,,,,,,,,,,,,436.9537,438.2025,a,1,0.5691,,[],[],[],[],[],[],[],0.5691,1,438.2026,438.6927,,,,,,953,MAS,AGR,150,vaso,el,l,438.6928,438.6929,-0.451552013,-0.391049683,0,0,0,,0,175,175,52,1,,,,,
,,,,,,6e8d122fb06f57bcc3e4eec9,66a626ef09d4e21e1a8894ec,6734d679253f396591765f3f,2024-11-13_13h55.28.562,Tarea de género gramatical,2024.2.2,Win32,67.11409396,,,,,,,,,,,,,,,,,,,,,,,,438.6936,440.2012,a,0,0.8329,,[],[],[],[],[],[],[],0.8329,0,440.2019,440.6933,,,,,,1243,FEM,DIS,150,trampa,el,a,440.6933,440.6934,-0.451552013,-0.391049683,0,0,0,,0,176,176,342,1,,,,,
,,,,,,6e8d122fb06f57bcc3e4eec9,66a626ef09d4e21e1a8894ec,6734d679253f396591765f3f,2024-11-13_13h55.28.562,Tarea de género gramatical,2024.2.2,Win32,67.11409396,,,,,,,,,,,,,,,,,,,,,,,,440.6943,441.8868,l,1,0.5173,,[],[],[],[],[],[],[],0.5173,1,441.8875,442.385,,,,,,1220,FEM,AGR,150,fiesta,la,a,442.386,442.3866,-0.451552013,-0.391049683,0,0,0,,0,177,177,319,1,,,,,
,,,,,,6e8d122fb06f57bcc3e4eec9,66a626ef09d4e21e1a8894ec,6734d679253f396591765f3f,2024-11-13_13h55.28.562,Tarea de género gramatical,2024.2.2,Win32,67.11409396,,,,,,,,,,,,,,,,,,,,,,,,442.3872,443.553,a,1,0.4687,,[],[],[],[],[],[],[],0.4687,1,443.553,444.0513,,,,,,965,MAS,AGR,150,rayo,el,l,444.0513,444.0513,-0.451552013,-0.391049683,0,0,0,,0,178,178,64,1,,,,,
,,,,,,6e8d122fb06f57bcc3e4eec9,66a626ef09d4e21e1a8894ec,6734d679253f396591765f3f,2024-11-13_13h55.28.562,Tarea de género gramatical,2024.2.2,Win32,67.11409396,,,,,,,,,,,,,,,,,,,,,,,,444.0522,445.3645,a,1,0.6384,,[],[],[],[],[],[],[],0.6384,1,445.3646,445.8854,,,,,,958,MAS,DIS,150,mono,la,l,445.8854,445.8854,-0.451552013,-0.391049683,0,0,0,,0,179,179,57,1,,,,,
,,,,,,6e8d122fb06f57bcc3e4eec9,66a626ef09d4e21e1a8894ec,6734d679253f396591765f3f,2024-11-13_13h55.28.562,Tarea de género gramatical,2024.2.2,Win32,67.11409396,,,,,,,,,,,,,,,,,,,,,,,,445.8863,447.081,a,1,0.5284,,[],[],[],[],[],[],[],0.5284,1,447.081,447.5855,,,,,,1188,MAS,CON,150,grado,,l,447.5856,447.5856,-0.451552013,-0.391049683,0,0,0,,0,180,180,287,1,,,,,
,,,,,,6e8d122fb06f57bcc3e4eec9,66a626ef09d4e21e1a8894ec,6734d679253f396591765f3f,2024-11-13_13h55.28.562,Tarea de género gramatical,2024.2.2,Win32,67.11409396,,,,,,,,,,,,,,,,,,,,,,,,447.5864,448.8525,l,1,0.5846,,[],[],[],[],[],[],[],0.5846,1,448.8525,449.35,,,,,,1305,FEM,CON,150,parada,,a,449.35,449.3501,-0.451552013,-0.391049683,0,0,0,,0,181,181,404,1,,,,,
,,,,,,6e8d122fb06f57bcc3e4eec9,66a626ef09d4e21e1a8894ec,6734d679253f396591765f3f,2024-11-13_13h55.28.562,Tarea de género gramatical,2024.2.2,Win32,67.11409396,,,,,,,,,,,,,,,,,,,,,,,,449.3509,450.3645,a,1,0.3287,,[],[],[],[],[],[],[],0.3287,1,450.3645,450.8696,,,,,,1037,MAS,AGR,150,coco,el,l,450.8706,450.8712,-0.451552013,-0.391049683,0,0,0,,0,182,182,136,1,,,,,
,,,,,,6e8d122fb06f57bcc3e4eec9,66a626ef09d4e21e1a8894ec,6734d679253f396591765f3f,2024-11-13_13h55.28.562,Tarea de género gramatical,2024.2.2,Win32,67.11409396,,,,,,,,,,,,,,,,,,,,,,,,450.8721,452.2012,l,1,0.6509,,[],[],[],[],[],[],[],0.6509,1,452.2013,452.7019,,,,,,1340,FEM,AGR,150,patada,la,a,452.7019,452.702,-0.451552013,-0.391049683,0,0,0,,0,183,183,439,1,,,,,
,,,,,,6e8d122fb06f57bcc3e4eec9,66a626ef09d4e21e1a8894ec,6734d679253f396591765f3f,2024-11-13_13h55.28.562,Tarea de género gramatical,2024.2.2,Win32,67.11409396,,,,,,,,,,,,,,,,,,,,,,,,452.7029,453.9022,a,1,0.5177,,[],[],[],[],[],[],[],0.5177,1,453.9023,454.401,,,,,,1313,MAS,AGR,150,diario,el,l,454.4012,454.4013,-0.451552013,-0.391049683,0,0,0,,0,184,184,412,1,,,,,
,,,,,,6e8d122fb06f57bcc3e4eec9,66a626ef09d4e21e1a8894ec,6734d679253f396591765f3f,2024-11-13_13h55.28.562,Tarea de género gramatical,2024.2.2,Win32,67.11409396,,,,,,,,,,,,,,,,,,,,,,,,454.4023,455.4846,a,1,0.4002,,[],[],[],[],[],[],[],0.4002,1,455.4847,455.9843,,,,,,1097,MAS,AGR,150,avión,el,l,455.9843,455.9843,-0.451552013,-0.391049683,0,0,0,,0,185,185,196,1,,,,,
,,,,,,6e8d122fb06f57bcc3e4eec9,66a626ef09d4e21e1a8894ec,6734d679253f396591765f3f,2024-11-13_13h55.28.562,Tarea de género gramatical,2024.2.2,Win32,67.11409396,,,,,,,,,,,,,,,,,,,,,,,,455.9853,457.0345,a,1,0.3833,,[],[],[],[],[],[],[],0.3833,1,457.0345,457.5338,,,,,,1308,MAS,CON,150,cheque,,l,457.5347,457.5354,-0.451552013,-0.391049683,0,0,0,,0,186,186,407,1,,,,,
,,,,,,6e8d122fb06f57bcc3e4eec9,66a626ef09d4e21e1a8894ec,6734d679253f396591765f3f,2024-11-13_13h55.28.562,Tarea de género gramatical,2024.2.2,Win32,67.11409396,,,,,,,,,,,,,,,,,,,,,,,,457.5361,458.5884,a,1,0.3693,,[],[],[],[],[],[],[],0.3693,1,458.5885,459.0809,,,,,,1259,MAS,AGR,150,bosque,el,l,459.081,459.0811,-0.451552013,-0.391049683,0,0,0,,0,187,187,358,1,,,,,
,,,,,,6e8d122fb06f57bcc3e4eec9,66a626ef09d4e21e1a8894ec,6734d679253f396591765f3f,2024-11-13_13h55.28.562,Tarea de género gramatical,2024.2.2,Win32,67.11409396,,,,,,,,,,,,,,,,,,,,,,,,459.0819,460.135,l,1,0.3987,,[],[],[],[],[],[],[],0.3987,1,460.135,460.6345,,,,,,1257,FEM,CON,150,lengua,,a,460.6346,460.6347,-0.451552013,-0.391049683,0,0,0,,0,188,188,356,1,,,,,
,,,,,,6e8d122fb06f57bcc3e4eec9,66a626ef09d4e21e1a8894ec,6734d679253f396591765f3f,2024-11-13_13h55.28.562,Tarea de género gramatical,2024.2.2,Win32,67.11409396,,,,,,,,,,,,,,,,,,,,,,,,460.6355,461.918,l,1,0.6005,,[],[],[],[],[],[],[],0.6005,1,461.9181,462.4091,,,,,,939,FEM,CON,150,luna,,a,462.4092,462.4093,-0.451552013,-0.391049683,0,0,0,,0,189,189,38,1,,,,,
,,,,,,6e8d122fb06f57bcc3e4eec9,66a626ef09d4e21e1a8894ec,6734d679253f396591765f3f,2024-11-13_13h55.28.562,Tarea de género gramatical,2024.2.2,Win32,67.11409396,,,,,,,,,,,,,,,,,,,,,,,,462.41,463.5349,a,1,0.4508,,[],[],[],[],[],[],[],0.4508,1,463.5349,464.0357,,,,,,1319,MAS,AGR,150,cuento,el,l,464.0358,464.0359,-0.451552013,-0.391049683,0,0,0,,0,190,190,418,1,,,,,
,,,,,,6e8d122fb06f57bcc3e4eec9,66a626ef09d4e21e1a8894ec,6734d679253f396591765f3f,2024-11-13_13h55.28.562,Tarea de género gramatical,2024.2.2,Win32,67.11409396,,,,,,,,,,,,,,,,,,,,,,,,464.0367,465.2181,l,0,0.5007,,[],[],[],[],[],[],[],0.5007,0,465.219,465.7174,,,,,,918,MAS,CON,150,tren,,l,465.7186,465.7196,-0.451552013,-0.391049683,0,0,0,,0,191,191,17,1,,,,,
,,,,,,6e8d122fb06f57bcc3e4eec9,66a626ef09d4e21e1a8894ec,6734d679253f396591765f3f,2024-11-13_13h55.28.562,Tarea de género gramatical,2024.2.2,Win32,67.11409396,,,,,,,,,,,,,,,,,,,,,,,,465.7206,466.7847,a,1,0.3839,,[],[],[],[],[],[],[],0.3839,1,466.7855,467.2846,,,,,,995,MAS,AGR,150,tomo,el,l,467.2846,467.2846,-0.451552013,-0.391049683,0,0,0,,0,192,192,94,1,,,,,
,,,,,,6e8d122fb06f57bcc3e4eec9,66a626ef09d4e21e1a8894ec,6734d679253f396591765f3f,2024-11-13_13h55.28.562,Tarea de género gramatical,2024.2.2,Win32,67.11409396,,,,,,,,,,,,,,,,,,,,,,,,467.2855,468.3026,a,1,0.3318,,[],[],[],[],[],[],[],0.3318,1,468.3026,468.7844,,,,,,1199,MAS,AGR,150,rumbo,el,l,468.7845,468.7845,-0.451552013,-0.391049683,0,0,0,,0,193,193,298,1,,,,,
,,,,,,6e8d122fb06f57bcc3e4eec9,66a626ef09d4e21e1a8894ec,6734d679253f396591765f3f,2024-11-13_13h55.28.562,Tarea de género gramatical,2024.2.2,Win32,67.11409396,,,,,,,,,,,,,,,,,,,,,,,,468.7855,469.8422,l,1,0.3862,,[],[],[],[],[],[],[],0.3862,1,469.8422,470.3521,,,,,,1328,FEM,AGR,150,jugada,la,a,470.3521,470.3522,-0.451552013,-0.391049683,0,0,0,,0,194,194,427,1,,,,,
,,,,,,6e8d122fb06f57bcc3e4eec9,66a626ef09d4e21e1a8894ec,6734d679253f396591765f3f,2024-11-13_13h55.28.562,Tarea de género gramatical,2024.2.2,Win32,67.11409396,,,,,,,,,,,,,,,,,,,,,,,,470.353,471.8024,a,1,0.7818,,[],[],[],[],[],[],[],0.7818,1,471.8024,472.3029,,,,,,1271,MAS,AGR,150,sonido,el,l,472.3038,472.3045,-0.451552013,-0.391049683,0,0,0,,0,195,195,370,1,,,,,
,,,,,,6e8d122fb06f57bcc3e4eec9,66a626ef09d4e21e1a8894ec,6734d679253f396591765f3f,2024-11-13_13h55.28.562,Tarea de género gramatical,2024.2.2,Win32,67.11409396,,,,,,,,,,,,,,,,,,,,,,,,472.3054,473.4524,l,1,0.4671,,[],[],[],[],[],[],[],0.4671,1,473.4525,473.947,,,,,,1015,FEM,DIS,150,seda,el,a,473.9471,473.9472,-0.451552013,-0.391049683,0,0,0,,0,196,196,114,1,,,,,
,,,,,,6e8d122fb06f57bcc3e4eec9,66a626ef09d4e21e1a8894ec,6734d679253f396591765f3f,2024-11-13_13h55.28.562,Tarea de género gramatical,2024.2.2,Win32,67.11409396,,,,,,,,,,,,,,,,,,,,,,,,473.9479,475.4019,a,0,0.7995,,[],[],[],[],[],[],[],0.7995,0,475.4026,475.9008,,,,,,1039,FEM,DIS,150,pipa,el,a,475.9009,475.9011,-0.451552013,-0.391049683,0,0,0,,0,197,197,138,1,,,,,
,,,,,,6e8d122fb06f57bcc3e4eec9,66a626ef09d4e21e1a8894ec,6734d679253f396591765f3f,2024-11-13_13h55.28.562,Tarea de género gramatical,2024.2.2,Win32,67.11409396,,,,,,,,,,,,,,,,,,,,,,,,475.9022,476.9843,a,0,0.4155,,[],[],[],[],[],[],[],0.4155,0,476.9845,477.4843,,,,,,1106,FEM,AGR,150,época,la,a,477.4843,477.4844,-0.451552013,-0.391049683,0,0,0,,0,198,198,205,1,,,,,
,,,,,,6e8d122fb06f57bcc3e4eec9,66a626ef09d4e21e1a8894ec,6734d679253f396591765f3f,2024-11-13_13h55.28.562,Tarea de género gramatical,2024.2.2,Win32,67.11409396,,,,,,,,,,,,,,,,,,,,,,,,477.4852,478.6178,a,0,0.4502,,[],[],[],[],[],[],[],0.4502,0,478.618,479.1176,,,,,,1244,FEM,AGR,150,pareja,la,a,479.1176,479.1177,-0.451552013,-0.391049683,0,0,0,,0,199,199,343,1,,,,,
,,,,,,6e8d122fb06f57bcc3e4eec9,66a626ef09d4e21e1a8894ec,6734d679253f396591765f3f,2024-11-13_13h55.28.562,Tarea de género gramatical,2024.2.2,Win32,67.11409396,,,,,,,,,,,,,,,,,,,,,,,,479.1187,480.5346,l,0,0.7486,,[],[],[],[],[],[],[],0.7486,0,480.5346,481.0343,,,,,,1006,MAS,DIS,150,test,la,l,481.0356,481.0367,-0.451552013,-0.391049683,0,0,0,,0,200,200,105,1,,,,,
,,,,,,6e8d122fb06f57bcc3e4eec9,66a626ef09d4e21e1a8894ec,6734d679253f396591765f3f,2024-11-13_13h55.28.562,Tarea de género gramatical,2024.2.2,Win32,67.11409396,,,,,,,,,,,,,,,,,,,,,,,,481.0375,482.2681,l,1,0.5501,,[],[],[],[],[],[],[],0.5501,1,482.2687,482.7842,,,,,,908,FEM,AGR,150,idea,la,a,482.7842,482.7844,-0.451552013,-0.391049683,0,0,0,,0,201,201,7,1,,,,,
,,,,,,6e8d122fb06f57bcc3e4eec9,66a626ef09d4e21e1a8894ec,6734d679253f396591765f3f,2024-11-13_13h55.28.562,Tarea de género gramatical,2024.2.2,Win32,67.11409396,,,,,,,,,,,,,,,,,,,,,,,,482.7854,484.1019,l,1,0.6498,,[],[],[],[],[],[],[],0.6498,1,484.102,484.6183,,,,,,1021,FEM,DIS,150,pila,el,a,484.6184,484.6184,-0.451552013,-0.391049683,0,0,0,,0,202,202,120,1,,,,,
,,,,,,6e8d122fb06f57bcc3e4eec9,66a626ef09d4e21e1a8894ec,6734d679253f396591765f3f,2024-11-13_13h55.28.562,Tarea de género gramatical,2024.2.2,Win32,67.11409396,,,,,,,,,,,,,,,,,,,,,,,,484.6194,485.7853,l,1,0.4846,,[],[],[],[],[],[],[],0.4846,1,485.7854,486.2845,,,,,,974,FEM,AGR,150,flor,la,a,486.2845,486.2846,-0.451552013,-0.391049683,0,0,0,,0,203,203,73,1,,,,,
,,,,,,6e8d122fb06f57bcc3e4eec9,66a626ef09d4e21e1a8894ec,6734d679253f396591765f3f,2024-11-13_13h55.28.562,Tarea de género gramatical,2024.2.2,Win32,67.11409396,,,,,,,,,,,,,,,,,,,,,,,,486.2855,487.3701,a,1,0.4026,,[],[],[],[],[],[],[],0.4026,1,487.3702,487.8853,,,,,,976,MAS,DIS,150,lujo,la,l,487.8864,487.8874,-0.451552013,-0.391049683,0,0,0,,0,204,204,75,1,,,,,
,,,,,,6e8d122fb06f57bcc3e4eec9,66a626ef09d4e21e1a8894ec,6734d679253f396591765f3f,2024-11-13_13h55.28.562,Tarea de género gramatical,2024.2.2,Win32,67.11409396,,,,,,,,,,,,,,,,,,,,,,,,487.8881,488.885,a,1,0.3161,,[],[],[],[],[],[],[],0.3161,1,488.885,489.3846,,,,,,1252,MAS,DIS,150,estilo,la,l,489.3846,489.3847,-0.451552013,-0.391049683,0,0,0,,0,205,205,351,1,,,,,
,,,,,,6e8d122fb06f57bcc3e4eec9,66a626ef09d4e21e1a8894ec,6734d679253f396591765f3f,2024-11-13_13h55.28.562,Tarea de género gramatical,2024.2.2,Win32,67.11409396,,,,,,,,,,,,,,,,,,,,,,,,489.3856,490.6931,a,1,0.6243,,[],[],[],[],[],[],[],0.6243,1,490.6932,491.1859,,,,,,994,MAS,DIS,150,cabo,la,l,491.186,491.186,-0.451552013,-0.391049683,0,0,0,,0,206,206,93,1,,,,,
,,,,,,6e8d122fb06f57bcc3e4eec9,66a626ef09d4e21e1a8894ec,6734d679253f396591765f3f,2024-11-13_13h55.28.562,Tarea de género gramatical,2024.2.2,Win32,67.11409396,,,,,,,,,,,,,,,,,,,,,,,,491.1869,492.2457,a,1,0.3842,,[],[],[],[],[],[],[],0.3842,1,492.246,492.7354,,,,,,1325,MAS,AGR,150,chiste,el,l,492.7354,492.7355,-0.451552013,-0.391049683,0,0,0,,0,207,207,424,1,,,,,
,,,,,,6e8d122fb06f57bcc3e4eec9,66a626ef09d4e21e1a8894ec,6734d679253f396591765f3f,2024-11-13_13h55.28.562,Tarea de género gramatical,2024.2.2,Win32,67.11409396,,,,,,,,,,,,,,,,,,,,,,,,492.7363,493.9852,l,0,0.5669,,[],[],[],[],[],[],[],0.5669,0,493.986,494.5014,,,,,,1234,MAS,DIS,150,ataque,la,l,494.5014,494.5015,-0.451552013,-0.391049683,0,0,0,,0,208,208,333,1,,,,,
,,,,,,6e8d122fb06f57bcc3e4eec9,66a626ef09d4e21e1a8894ec,6734d679253f396591765f3f,2024-11-13_13h55.28.562,Tarea de género gramatical,2024.2.2,Win32,67.11409396,,,,,,,,,,,,,,,,,,,,,,,,494.5023,495.5851,l,1,0.4007,,[],[],[],[],[],[],[],0.4007,1,495.5857,496.0668,,,,,,1269,FEM,CON,150,camisa,,a,496.0679,496.0687,-0.451552013,-0.391049683,0,0,0,,0,209,209,368,1,,,,,
,,,,,,6e8d122fb06f57bcc3e4eec9,66a626ef09d4e21e1a8894ec,6734d679253f396591765f3f,2024-11-13_13h55.28.562,Tarea de género gramatical,2024.2.2,Win32,67.11409396,,,,,,,,,,,,,,,,,,,,,,,,496.0692,497.3052,l,1,0.5834,,[],[],[],[],[],[],[],0.5834,1,497.3053,497.7857,,,,,,1213,FEM,DIS,150,ciudad,el,a,497.7858,497.7859,-0.451552013,-0.391049683,0,0,0,,0,210,210,312,1,,,,,
,,,,,,6e8d122fb06f57bcc3e4eec9,66a626ef09d4e21e1a8894ec,6734d679253f396591765f3f,2024-11-13_13h55.28.562,Tarea de género gramatical,2024.2.2,Win32,67.11409396,,,,,,,,,,,,,,,,,,,,,,,,497.7868,498.8696,l,1,0.4002,,[],[],[],[],[],[],[],0.4002,1,498.8697,499.3647,,,,,,1263,FEM,CON,150,unidad,,a,499.3649,499.3649,-0.451552013,-0.391049683,0,0,0,,0,211,211,362,1,,,,,
,,,,,,6e8d122fb06f57bcc3e4eec9,66a626ef09d4e21e1a8894ec,6734d679253f396591765f3f,2024-11-13_13h55.28.562,Tarea de género gramatical,2024.2.2,Win32,67.11409396,,,,,,,,,,,,,,,,,,,,,,,,499.3657,500.4202,a,1,0.3842,,[],[],[],[],[],[],[],0.3842,1,500.4202,500.9186,,,,,,1151,MAS,AGR,150,dueño,el,l,500.9186,500.9187,-0.451552013,-0.391049683,0,0,0,,0,212,212,250,1,,,,,
,,,,,,6e8d122fb06f57bcc3e4eec9,66a626ef09d4e21e1a8894ec,6734d679253f396591765f3f,2024-11-13_13h55.28.562,Tarea de género gramatical,2024.2.2,Win32,67.11409396,,,,,,,,,,,,,,,,,,,,,,,,500.9195,502.1261,l,1,0.5342,,[],[],[],[],[],[],[],0.5342,1,502.1261,502.6187,,,,,,1327,FEM,DIS,150,agenda,el,a,502.6197,502.6203,-0.451552013,-0.391049683,0,0,0,,0,213,213,426,1,,,,,
,,,,,,6e8d122fb06f57bcc3e4eec9,66a626ef09d4e21e1a8894ec,6734d679253f396591765f3f,2024-11-13_13h55.28.562,Tarea de género gramatical,2024.2.2,Win32,67.11409396,,,,,,,,,,,,,,,,,,,,,,,,502.6209,503.7036,l,1,0.4157,,[],[],[],[],[],[],[],0.4157,1,503.7037,504.2017,,,,,,1245,FEM,CON,150,pierna,,a,504.2018,504.2019,-0.451552013,-0.391049683,0,0,0,,0,214,214,344,1,,,,,
,,,,,,6e8d122fb06f57bcc3e4eec9,66a626ef09d4e21e1a8894ec,6734d679253f396591765f3f,2024-11-13_13h55.28.562,Tarea de género gramatical,2024.2.2,Win32,67.11409396,,,,,,,,,,,,,,,,,,,,,,,,504.2027,505.2862,l,1,0.415,,[],[],[],[],[],[],[],0.415,1,505.2863,505.7695,,,,,,1107,FEM,CON,150,playa,,a,505.7695,505.7696,-0.451552013,-0.391049683,0,0,0,,0,215,215,206,1,,,,,
,,,,,,6e8d122fb06f57bcc3e4eec9,66a626ef09d4e21e1a8894ec,6734d679253f396591765f3f,2024-11-13_13h55.28.562,Tarea de género gramatical,2024.2.2,Win32,67.11409396,,,,,,,,,,,,,,,,,,,,,,,,505.7705,506.8355,a,1,0.3832,,[],[],[],[],[],[],[],0.3832,1,506.8356,507.3512,,,,,,1110,MAS,CON,150,baile,,l,507.3513,507.3514,-0.451552013,-0.391049683,0,0,0,,0,216,216,209,1,,,,,
,,,,,,6e8d122fb06f57bcc3e4eec9,66a626ef09d4e21e1a8894ec,6734d679253f396591765f3f,2024-11-13_13h55.28.562,Tarea de género gramatical,2024.2.2,Win32,67.11409396,,,,,,,,,,,,,,,,,,,,,,,,507.352,508.3647,a,1,0.3404,,[],[],[],[],[],[],[],0.3404,1,508.3648,508.8578,,,,,,1260,MAS,CON,150,puente,,l,508.8579,508.858,-0.451552013,-0.391049683,0,0,0,,0,217,217,359,1,,,,,
,,,,,,6e8d122fb06f57bcc3e4eec9,66a626ef09d4e21e1a8894ec,6734d679253f396591765f3f,2024-11-13_13h55.28.562,Tarea de género gramatical,2024.2.2,Win32,67.11409396,,,,,,,,,,,,,,,,,,,,,,,,508.8588,509.9367,l,1,0.419,,[],[],[],[],[],[],[],0.419,1,509.9367,510.4352,,,,,,914,FEM,AGR,150,cara,la,a,510.4361,510.4366,-0.451552013,-0.391049683,0,0,0,,0,218,218,13,1,,,,,
,,,,,,6e8d122fb06f57bcc3e4eec9,66a626ef09d4e21e1a8894ec,6734d679253f396591765f3f,2024-11-13_13h55.28.562,Tarea de género gramatical,2024.2.2,Win32,67.11409396,,,,,,,,,,,,,,,,,,,,,,,,510.4371,511.5684,a,1,0.4507,,[],[],[],[],[],[],[],0.4507,1,511.5685,512.0678,,,,,,988,MAS,DIS,150,pavo,la,l,512.0678,512.0679,-0.451552013,-0.391049683,0,0,0,,0,219,219,87,1,,,,,
,,,,,,6e8d122fb06f57bcc3e4eec9,66a626ef09d4e21e1a8894ec,6734d679253f396591765f3f,2024-11-13_13h55.28.562,Tarea de género gramatical,2024.2.2,Win32,67.11409396,,,,,,,,,,,,,,,,,,,,,,,,512.0687,513.126,a,0,0.3713,,[],[],[],[],[],[],[],0.3713,0,513.1269,513.6359,,,,,,1155,FEM,CON,150,tribu,,a,513.6359,513.636,-0.451552013,-0.391049683,0,0,0,,0,220,220,254,1,,,,,
,,,,,,6e8d122fb06f57bcc3e4eec9,66a626ef09d4e21e1a8894ec,6734d679253f396591765f3f,2024-11-13_13h55.28.562,Tarea de género gramatical,2024.2.2,Win32,67.11409396,,,,,,,,,,,,,,,,,,,,,,,,513.6369,514.7687,a,1,0.4654,,[],[],[],[],[],[],[],0.4654,1,514.7694,515.27,,,,,,1306,MAS,DIS,150,premio,la,l,515.2701,515.2701,-0.451552013,-0.391049683,0,0,0,,0,221,221,405,1,,,,,
,,,,,,6e8d122fb06f57bcc3e4eec9,66a626ef09d4e21e1a8894ec,6734d679253f396591765f3f,2024-11-13_13h55.28.562,Tarea de género gramatical,2024.2.2,Win32,67.11409396,,,,,,,,,,,,,,,,,,,,,,,,515.2711,516.3864,a,0,0.4493,,[],[],[],[],[],[],[],0.4493,0,516.3872,516.8847,,,,,,1082,FEM,AGR,150,prisa,la,a,516.8858,516.8865,-0.451552013,-0.391049683,0,0,0,,0,222,222,181,1,,,,,
,,,,,,6e8d122fb06f57bcc3e4eec9,66a626ef09d4e21e1a8894ec,6734d679253f396591765f3f,2024-11-13_13h55.28.562,Tarea de género gramatical,2024.2.2,Win32,67.11409396,,,,,,,,,,,,,,,,,,,,,,,,516.8876,518.0663,a,1,0.4883,,[],[],[],[],[],[],[],0.4883,1,518.067,518.5699,,,,,,1314,MAS,CON,150,sótano,,l,518.57,518.57,-0.451552013,-0.391049683,0,0,0,,0,223,223,413,1,,,,,
,,,,,,6e8d122fb06f57bcc3e4eec9,66a626ef09d4e21e1a8894ec,6734d679253f396591765f3f,2024-11-13_13h55.28.562,Tarea de género gramatical,2024.2.2,Win32,67.11409396,,,,,,,,,,,,,,,,,,,,,,,,518.5709,519.7538,a,1,0.5172,,[],[],[],[],[],[],[],0.5172,1,519.7539,520.2526,,,,,,1278,MAS,CON,150,pastel,,l,520.2527,520.2527,-0.451552013,-0.391049683,0,0,0,,0,224,224,377,1,,,,,
,,,,,,6e8d122fb06f57bcc3e4eec9,66a626ef09d4e21e1a8894ec,6734d679253f396591765f3f,2024-11-13_13h55.28.562,Tarea de género gramatical,2024.2.2,Win32,67.11409396,,,,,,,,,,,,,,,,,,,,,,,,520.2535,521.4026,l,1,0.4668,,[],[],[],[],[],[],[],0.4668,1,521.4028,521.9031,,,,,,933,FEM,CON,150,boda,,a,521.9031,521.9032,-0.451552013,-0.391049683,0,0,0,,0,225,225,32,1,,,,,
,,,,,,6e8d122fb06f57bcc3e4eec9,66a626ef09d4e21e1a8894ec,6734d679253f396591765f3f,2024-11-13_13h55.28.562,Tarea de género gramatical,2024.2.2,Win32,67.11409396,,,,,,,,,,,,,,,,,,,,,,,,521.904,523.2019,l,1,0.6175,,[],[],[],[],[],[],[],0.6175,1,523.202,523.7014,,,,,,1017,FEM,CON,150,raya,,a,523.7015,523.7016,-0.451552013,-0.391049683,0,0,0,,0,226,226,116,1,,,,,
,,,,,,6e8d122fb06f57bcc3e4eec9,66a626ef09d4e21e1a8894ec,6734d679253f396591765f3f,2024-11-13_13h55.28.562,Tarea de género gramatical,2024.2.2,Win32,67.11409396,,,,,,,,,,,,,,,,,,,,,,,,523.7023,524.9023,l,1,0.5178,,[],[],[],[],[],[],[],0.5178,1,524.9026,525.4013,,,,,,1274,FEM,AGR,150,herida,la,a,525.4022,525.4028,-0.451552013,-0.391049683,0,0,0,,0,227,227,373,1,,,,,
,,,,,,6e8d122fb06f57bcc3e4eec9,66a626ef09d4e21e1a8894ec,6734d679253f396591765f3f,2024-11-13_13h55.28.562,Tarea de género gramatical,2024.2.2,Win32,67.11409396,,,,,,,,,,,,,,,,,,,,,,,,525.4037,526.5356,a,1,0.4506,,[],[],[],[],[],[],[],0.4506,1,526.5357,527.0516,,,,,,941,MAS,AGR,150,bote,el,l,527.0517,527.0518,-0.451552013,-0.391049683,0,0,0,,0,228,228,40,1,,,,,
,,,,,,6e8d122fb06f57bcc3e4eec9,66a626ef09d4e21e1a8894ec,6734d679253f396591765f3f,2024-11-13_13h55.28.562,Tarea de género gramatical,2024.2.2,Win32,67.11409396,,,,,,,,,,,,,,,,,,,,,,,,527.0527,528.1409,a,1,0.4182,,[],[],[],[],[],[],[],0.4182,1,528.141,528.6349,,,,,,1050,MAS,CON,150,mozo,,l,528.635,528.6351,-0.451552013,-0.391049683,0,0,0,,0,229,229,149,1,,,,,
,,,,,,6e8d122fb06f57bcc3e4eec9,66a626ef09d4e21e1a8894ec,6734d679253f396591765f3f,2024-11-13_13h55.28.562,Tarea de género gramatical,2024.2.2,Win32,67.11409396,,,,,,,,,,,,,,,,,,,,,,,,528.6363,529.6783,l,1,0.3561,,[],[],[],[],[],[],[],0.3561,1,529.6784,530.1847,,,,,,987,FEM,CON,150,risa,,a,530.1848,530.185,-0.451552013,-0.391049683,0,0,0,,0,230,230,86,1,,,,,
,,,,,,6e8d122fb06f57bcc3e4eec9,66a626ef09d4e21e1a8894ec,6734d679253f396591765f3f,2024-11-13_13h55.28.562,Tarea de género gramatical,2024.2.2,Win32,67.11409396,,,,,,,,,,,,,,,,,,,,,,,,530.1862,531.2757,a,1,0.417,,[],[],[],[],[],[],[],0.417,1,531.2758,531.7858,,,,,,1164,MAS,CON,150,pollo,,l,531.7869,531.7874,-0.451552013,-0.391049683,0,0,0,,0,231,231,263,1,,,,,
,,,,,,6e8d122fb06f57bcc3e4eec9,66a626ef09d4e21e1a8894ec,6734d679253f396591765f3f,2024-11-13_13h55.28.562,Tarea de género gramatical,2024.2.2,Win32,67.11409396,,,,,,,,,,,,,,,,,,,,,,,,531.788,532.9189,a,1,0.4657,,[],[],[],[],[],[],[],0.4657,1,532.9191,533.4207,,,,,,1056,MAS,CON,150,amigo,,l,533.4208,533.4209,-0.451552013,-0.391049683,0,0,0,,0,232,232,155,1,,,,,
,,,,,,6e8d122fb06f57bcc3e4eec9,66a626ef09d4e21e1a8894ec,6734d679253f396591765f3f,2024-11-13_13h55.28.562,Tarea de género gramatical,2024.2.2,Win32,67.11409396,,,,,,,,,,,,,,,,,,,,,,,,533.4217,534.5189,a,1,0.4006,,[],[],[],[],[],[],[],0.4006,1,534.519,535.0358,,,,,,1332,MAS,CON,150,océano,,l,535.0358,535.0359,-0.451552013,-0.391049683,0,0,0,,0,233,233,431,1,,,,,
,,,,,,6e8d122fb06f57bcc3e4eec9,66a626ef09d4e21e1a8894ec,6734d679253f396591765f3f,2024-11-13_13h55.28.562,Tarea de género gramatical,2024.2.2,Win32,67.11409396,,,,,,,,,,,,,,,,,,,,,,,,535.0372,536.1521,l,1,0.4341,,[],[],[],[],[],[],[],0.4341,1,536.1522,536.6337,,,,,,932,FEM,AGR,150,caja,la,a,536.6337,536.6338,-0.451552013,-0.391049683,0,0,0,,0,234,234,31,1,,,,,
,,,,,,6e8d122fb06f57bcc3e4eec9,66a626ef09d4e21e1a8894ec,6734d679253f396591765f3f,2024-11-13_13h55.28.562,Tarea de género gramatical,2024.2.2,Win32,67.11409396,,,,,,,,,,,,,,,,,,,,,,,,536.6349,537.7535,a,1,0.4509,,[],[],[],[],[],[],[],0.4509,1,537.7535,538.2457,,,,,,1181,MAS,AGR,150,actor,el,l,538.2457,538.2458,-0.451552013,-0.391049683,0,0,0,,0,235,235,280,1,,,,,
,,,,,,6e8d122fb06f57bcc3e4eec9,66a626ef09d4e21e1a8894ec,6734d679253f396591765f3f,2024-11-13_13h55.28.562,Tarea de género gramatical,2024.2.2,Win32,67.11409396,,,,,,,,,,,,,,,,,,,,,,,,538.2467,539.4522,l,1,0.5334,,[],[],[],[],[],[],[],0.5334,1,539.4523,539.9529,,,,,,925,FEM,DIS,150,nave,el,a,539.9538,539.9544,-0.451552013,-0.391049683,0,0,0,,0,236,236,24,1,,,,,
,,,,,,6e8d122fb06f57bcc3e4eec9,66a626ef09d4e21e1a8894ec,6734d679253f396591765f3f,2024-11-13_13h55.28.562,Tarea de género gramatical,2024.2.2,Win32,67.11409396,,,,,,,,,,,,,,,,,,,,,,,,539.9549,541.0856,a,1,0.4656,,[],[],[],[],[],[],[],0.4656,1,541.0857,541.6021,,,,,,1187,MAS,AGR,150,plato,el,l,541.6021,541.6023,-0.451552013,-0.391049683,0,0,0,,0,237,237,286,1,,,,,
,,,,,,6e8d122fb06f57bcc3e4eec9,66a626ef09d4e21e1a8894ec,6734d679253f396591765f3f,2024-11-13_13h55.28.562,Tarea de género gramatical,2024.2.2,Win32,67.11409396,,,,,,,,,,,,,,,,,,,,,,,,541.6031,542.737,a,1,0.4507,,[],[],[],[],[],[],[],0.4507,1,542.7371,543.221,,,,,,1109,MAS,AGR,150,banco,el,l,543.2211,543.2212,-0.451552013,-0.391049683,0,0,0,,0,238,238,208,1,,,,,
,,,,,,6e8d122fb06f57bcc3e4eec9,66a626ef09d4e21e1a8894ec,6734d679253f396591765f3f,2024-11-13_13h55.28.562,Tarea de género gramatical,2024.2.2,Win32,67.11409396,,,,,,,,,,,,,,,,,,,,,,,,543.2221,544.3856,l,1,0.4829,,[],[],[],[],[],[],[],0.4829,1,544.3857,544.8878,,,,,,1124,FEM,AGR,150,arena,la,a,544.8879,544.8879,-0.451552013,-0.391049683,0,0,0,,0,239,239,223,1,,,,,
,,,,,,6e8d122fb06f57bcc3e4eec9,66a626ef09d4e21e1a8894ec,6734d679253f396591765f3f,2024-11-13_13h55.28.562,Tarea de género gramatical,2024.2.2,Win32,67.11409396,,,,,,,,,,,,,,,,,,,,,,,,544.8888,546.1191,a,1,0.5492,,[],[],[],[],[],[],[],0.5492,1,546.1192,546.636,,,,,,1350,MAS,CON,150,conejo,,l,546.637,546.6376,-0.451552013,-0.391049683,0,0,0,,0,240,240,449,1,,,,,
,,,,,,6e8d122fb06f57bcc3e4eec9,66a626ef09d4e21e1a8894ec,6734d679253f396591765f3f,2024-11-13_13h55.28.562,Tarea de género gramatical,2024.2.2,Win32,67.11409396,,,,,,,,,,,,,,,,,,,,,,,,546.6382,547.9708,l,1,0.6525,,[],[],[],[],[],[],[],0.6525,1,547.9709,548.4701,,,,,,1303,FEM,DIS,150,paliza,el,a,548.4702,548.4703,-0.451552013,-0.391049683,0,0,0,,0,241,241,402,1,,,,,
,,,,,,6e8d122fb06f57bcc3e4eec9,66a626ef09d4e21e1a8894ec,6734d679253f396591765f3f,2024-11-13_13h55.28.562,Tarea de género gramatical,2024.2.2,Win32,67.11409396,,,,,,,,,,,,,,,,,,,,,,,,548.4711,549.5863,l,1,0.4496,,[],[],[],[],[],[],[],0.4496,1,549.5864,550.0817,,,,,,1311,FEM,CON,150,actriz,,a,550.0818,550.0819,-0.451552013,-0.391049683,0,0,0,,0,242,242,410,1,,,,,
,,,,,,6e8d122fb06f57bcc3e4eec9,66a626ef09d4e21e1a8894ec,6734d679253f396591765f3f,2024-11-13_13h55.28.562,Tarea de género gramatical,2024.2.2,Win32,67.11409396,,,,,,,,,,,,,,,,,,,,,,,,550.0826,551.1874,l,1,0.4346,,[],[],[],[],[],[],[],0.4346,1,551.1874,551.6854,,,,,,1058,FEM,AGR,150,chica,la,a,551.6856,551.6856,-0.451552013,-0.391049683,0,0,0,,0,243,243,157,1,,,,,
,,,,,,6e8d122fb06f57bcc3e4eec9,66a626ef09d4e21e1a8894ec,6734d679253f396591765f3f,2024-11-13_13h55.28.562,Tarea de género gramatical,2024.2.2,Win32,67.11409396,,,,,,,,,,,,,,,,,,,,,,,,551.6864,552.8545,a,1,0.5165,,[],[],[],[],[],[],[],0.5165,1,552.8545,553.3358,,,,,,1284,MAS,CON,150,pedazo,,l,553.3358,553.3359,-0.451552013,-0.391049683,0,0,0,,0,244,244,383,1,,,,,
,,,,,,6e8d122fb06f57bcc3e4eec9,66a626ef09d4e21e1a8894ec,6734d679253f396591765f3f,2024-11-13_13h55.28.562,Tarea de género gramatical,2024.2.2,Win32,67.11409396,,,,,,,,,,,,,,,,,,,,,,,,553.3368,554.5691,a,1,0.5509,,[],[],[],[],[],[],[],0.5509,1,554.5691,555.0854,,,,,,1132,MAS,DIS,150,calor,la,l,555.0864,555.0871,-0.451552013,-0.391049683,0,0,0,,0,245,245,231,1,,,,,
,,,,,,6e8d122fb06f57bcc3e4eec9,66a626ef09d4e21e1a8894ec,6734d679253f396591765f3f,2024-11-13_13h55.28.562,Tarea de género gramatical,2024.2.2,Win32,67.11409396,,,,,,,,,,,,,,,,,,,,,,,,555.0877,556.671,l,1,0.9186,,[],[],[],[],[],[],[],0.9186,1,556.6711,557.1865,,,,,,1334,FEM,AGR,150,corona,la,a,557.1866,557.1867,-0.451552013,-0.391049683,0,0,0,,0,246,246,433,1,,,,,
,,,,,,6e8d122fb06f57bcc3e4eec9,66a626ef09d4e21e1a8894ec,6734d679253f396591765f3f,2024-11-13_13h55.28.562,Tarea de género gramatical,2024.2.2,Win32,67.11409396,,,,,,,,,,,,,,,,,,,,,,,,557.1876,558.5371,l,1,0.668,,[],[],[],[],[],[],[],0.668,1,558.5371,559.0356,,,,,,1051,FEM,DIS,150,noche,el,a,559.0356,559.0357,-0.451552013,-0.391049683,0,0,0,,0,247,247,150,1,,,,,
,,,,,,6e8d122fb06f57bcc3e4eec9,66a626ef09d4e21e1a8894ec,6734d679253f396591765f3f,2024-11-13_13h55.28.562,Tarea de género gramatical,2024.2.2,Win32,67.11409396,,,,,,,,,,,,,,,,,,,,,,,,559.0366,560.3689,l,1,0.6499,,[],[],[],[],[],[],[],0.6499,1,560.369,560.8688,,,,,,1161,FEM,CON,150,cueva,,a,560.8688,560.8689,-0.451552013,-0.391049683,0,0,0,,0,248,248,260,1,,,,,
