counterbalancing_condition,consent_prescreening.block_1/declare_consent,consent_prescreening.block_1/age_years,consent_prescreening.block_1/gender,consent_prescreening.block_1/language_disorder,consent_prescreening.block_1/first_language,PROLIFIC_PID,STUDY_ID,SESSION_ID,date,expName,psychopyVersion,OS,frameRate,check_prescreening_answers.started,check_prescreening_answers.stopped,Instructions.started,Instructions.stopped,instr_done_keyboard.keys,instr_done_keyboard.rt,instr_done_keyboard.duration,instr_done_touch.x,instr_done_touch.y,instr_done_touch.leftButton,instr_done_touch.midButton,instr_done_touch.rightButton,instruction_pages.thisRepN,instruction_pages.thisTrialN,instruction_pages.thisN,instruction_pages.thisIndex,instruction_pages.ran,pageN,phase,instruct_text,has_image,instruct_image,presentTrial.started,presentTrial.stopped,response.keys,response.corr,touch_resp.x,touch_resp.y,touch_resp.leftButton,touch_resp.midButton,touch_resp.rightButton,touch_resp.time,touch_resp.clicked_name,rt,corr,feedback.started,feedback.stopped,practice_trials.thisRepN,practice_trials.thisTrialN,practice_trials.thisN,practice_trials.thisIndex,practice_trials.ran,TrialID,StimulusType,Condition,PrimeDuration,Prime,Flanker,corrAns,response.rt,response.duration,Break.started,Break.stopped,break_done_touch.x,break_done_touch.y,break_done_touch.leftButton,break_done_touch.midButton,break_done_touch.rightButton,break_done_keyboard.keys,experiment_trials.thisRepN,experiment_trials.thisTrialN,experiment_trials.thisN,experiment_trials.thisIndex,experiment_trials.ran,break_done_keyboard.rt,break_done_keyboard.duration,End.started,End.stopped
0,"[""over_18"",""comfortable"",""read_info"",""consent_given""]",24,M,"[""none""]","[""english"",""spanish""]",720233dff5c0f02d813456bd,66a626ef09d4e21e1a8894ec,6735cdbe90b5af34a86e70fc,2024-11-14_02h16.01.601,Tarea de género gramatical,2024.2.2,Win32,60.24096386,,,,,,,,,,,,,,,,,,,,,,,,,,,,,,,,,,,,,,,,,,,,,,,,,,,,,,,,,,,,,,,,,,,,
,,,,,,720233dff5c0f02d813456bd,66a626ef09d4e21e1a8894ec,6735cdbe90b5af34a86e70fc,2024-11-14_02h16.01.601,Tarea de género gramatical,2024.2.2,Win32,60.24096386,58.7454,58.7455,,,,,,,,,,,,,,,,,,,,,,,,,,,,,,,,,,,,,,,,,,,,,,,,,,,,,,,,,,,,,,,,,,
,,,,,,720233dff5c0f02d813456bd,66a626ef09d4e21e1a8894ec,6735cdbe90b5af34a86e70fc,2024-11-14_02h16.01.601,Tarea de género gramatical,2024.2.2,Win32,60.24096386,,,58.7592,77.7898,space,18.9952,,0.10092594,-0.24537037,0,0,0,0,0,0,0,1,1,instructions,"INSTRUCCIONES
Va a realizar una prueba de selección gramatical. Desde el comienzo de la prueba mire siempre al centro de la pantalla. Al cabo de un momento, aparecerán palabras. La tarea consiste en determinar si la palabra del centro (siempre será un sustantivo), pertenece al género masculino o femenino.

Pulse la tecla ESPACIO o toque el botón de abajo para continuar.",0,keyboardresponseMF.png,,,,,,,,,,,,,,,,,,,,,,,,,,,,,,,,,,,,,,,,,,,,,,
,,,,,,720233dff5c0f02d813456bd,66a626ef09d4e21e1a8894ec,6735cdbe90b5af34a86e70fc,2024-11-14_02h16.01.601,Tarea de género gramatical,2024.2.2,Win32,60.24096386,,,77.793,93.9066,space,16.0659,,0.10092594,-0.24537037,0,0,0,0,1,1,1,1,2,instructions,"Si su dispositivo tiene teclado, pulse la tecla ""A"" para las palabras en masculino (por ejemplo: ""arroz"") y la tecla ""L"" para las palabras en femenino (por ejemplo: ""mano"").
Pulse la tecla ESPACIO o toque el botón de abajo para continuar.",1,keyboardresponseMF.png,,,,,,,,,,,,,,,,,,,,,,,,,,,,,,,,,,,,,,,,,,,,,,
,,,,,,720233dff5c0f02d813456bd,66a626ef09d4e21e1a8894ec,6735cdbe90b5af34a86e70fc,2024-11-14_02h16.01.601,Tarea de género gramatical,2024.2.2,Win32,60.24096386,,,93.9087,98.3897,space,4.4451,,0.10092594,-0.24537037,0,0,0,0,2,2,2,1,3,instructions,"Si utiliza un dispositivo sólo táctil, colóquelo en horizontal y utilice los botones de la pantalla. No utilice el ratón.
Pulse la tecla ESPACIO o toque el botón de abajo para continuar.",2,touchresponseMF.png,,,,,,,,,,,,,,,,,,,,,,,,,,,,,,,,,,,,,,,,,,,,,,
,,,,,,720233dff5c0f02d813456bd,66a626ef09d4e21e1a8894ec,6735cdbe90b5af34a86e70fc,2024-11-14_02h16.01.601,Tarea de género gramatical,2024.2.2,Win32,60.24096386,,,98.3922,111.1071,space,12.6969,,0.10092594,-0.24537037,0,0,0,0,3,3,3,1,4,instructions,"Es muy importante que responda con la mayor rapidez y precisión posibles, ya que cada cadena de letras sólo estará en pantalla durante un instante. Si no responde en ese tiempo, aparecerá el mensaje ""Muy lento"" y el experimento pasará a la siguiente palabra. Los primeros 15 intentos serán de práctica y habrá dos descansos durante la prueba.
Pulse la tecla ESPACIO o toque el botón de abajo para iniciar la parte de práctica.",0,keyboardresponseMF.png,,,,,,,,,,,,,,,,,,,,,,,,,,,,,,,,,,,,,,,,,,,,,,
,,,,,,720233dff5c0f02d813456bd,66a626ef09d4e21e1a8894ec,6735cdbe90b5af34a86e70fc,2024-11-14_02h16.01.601,Tarea de género gramatical,2024.2.2,Win32,60.24096386,,,,,,,,,,,,,,,,,,,,,,,111.1205,113.774,,0,[],[],[],[],[],[],[],,-1,113.7744,114.2737,0,0,0,8,1,2009,MAS,DIS,150,puerto,la,l,,,,,,,,,,,,,,,,,,,
,,,,,,720233dff5c0f02d813456bd,66a626ef09d4e21e1a8894ec,6735cdbe90b5af34a86e70fc,2024-11-14_02h16.01.601,Tarea de género gramatical,2024.2.2,Win32,60.24096386,,,,,,,,,,,,,,,,,,,,,,,114.2754,115.7233,a,1,[],[],[],[],[],[],[],0.7786,1,115.7279,116.2233,0,1,1,11,1,2012,MAS,DIS,150,clima,la,l,0.7786,,,,,,,,,,,,,,,,,,
,,,,,,720233dff5c0f02d813456bd,66a626ef09d4e21e1a8894ec,6735cdbe90b5af34a86e70fc,2024-11-14_02h16.01.601,Tarea de género gramatical,2024.2.2,Win32,60.24096386,,,,,,,,,,,,,,,,,,,,,,,116.2248,117.5069,a,1,[],[],[],[],[],[],[],0.6043,1,117.5069,118.0066,0,2,2,13,1,2014,MAS,CON,150,siglo,,l,0.6043,,,,,,,,,,,,,,,,,,
,,,,,,720233dff5c0f02d813456bd,66a626ef09d4e21e1a8894ec,6735cdbe90b5af34a86e70fc,2024-11-14_02h16.01.601,Tarea de género gramatical,2024.2.2,Win32,60.24096386,,,,,,,,,,,,,,,,,,,,,,,118.0079,119.373,l,1,[],[],[],[],[],[],[],0.6942,1,119.3732,119.8735,0,3,3,1,1,2002,FEM,CON,150,pala,,a,0.6942,,,,,,,,,,,,,,,,,,
,,,,,,720233dff5c0f02d813456bd,66a626ef09d4e21e1a8894ec,6735cdbe90b5af34a86e70fc,2024-11-14_02h16.01.601,Tarea de género gramatical,2024.2.2,Win32,60.24096386,,,,,,,,,,,,,,,,,,,,,,,119.875,121.0399,a,1,[],[],[],[],[],[],[],0.4835,1,121.0401,121.5402,0,4,4,14,1,2015,MAS,DIS,150,robot,la,l,0.4835,,,,,,,,,,,,,,,,,,
,,,,,,720233dff5c0f02d813456bd,66a626ef09d4e21e1a8894ec,6735cdbe90b5af34a86e70fc,2024-11-14_02h16.01.601,Tarea de género gramatical,2024.2.2,Win32,60.24096386,,,,,,,,,,,,,,,,,,,,,,,121.5419,122.723,l,1,[],[],[],[],[],[],[],0.5119,1,122.7231,123.2239,0,5,5,0,1,2001,FEM,AGR,150,nuca,la,a,0.5119,,,,,,,,,,,,,,,,,,
,,,,,,720233dff5c0f02d813456bd,66a626ef09d4e21e1a8894ec,6735cdbe90b5af34a86e70fc,2024-11-14_02h16.01.601,Tarea de género gramatical,2024.2.2,Win32,60.24096386,,,,,,,,,,,,,,,,,,,,,,,123.2252,124.3569,l,0,[],[],[],[],[],[],[],0.4524,0,124.3583,124.8571,0,6,6,10,1,2011,MAS,CON,150,canal,,l,0.4524,,,,,,,,,,,,,,,,,,
,,,,,,720233dff5c0f02d813456bd,66a626ef09d4e21e1a8894ec,6735cdbe90b5af34a86e70fc,2024-11-14_02h16.01.601,Tarea de género gramatical,2024.2.2,Win32,60.24096386,,,,,,,,,,,,,,,,,,,,,,,124.8585,126.1397,l,1,[],[],[],[],[],[],[],0.6023,1,126.1404,126.6398,0,7,7,6,1,2007,FEM,AGR,150,navaja,la,a,0.6023,,,,,,,,,,,,,,,,,,
,,,,,,720233dff5c0f02d813456bd,66a626ef09d4e21e1a8894ec,6735cdbe90b5af34a86e70fc,2024-11-14_02h16.01.601,Tarea de género gramatical,2024.2.2,Win32,60.24096386,,,,,,,,,,,,,,,,,,,,,,,126.641,128.2234,l,1,[],[],[],[],[],[],[],0.9076,1,128.2236,128.7235,0,8,8,7,1,2008,FEM,CON,150,siesta,,a,0.9076,,,,,,,,,,,,,,,,,,
,,,,,,720233dff5c0f02d813456bd,66a626ef09d4e21e1a8894ec,6735cdbe90b5af34a86e70fc,2024-11-14_02h16.01.601,Tarea de género gramatical,2024.2.2,Win32,60.24096386,,,,,,,,,,,,,,,,,,,,,,,128.7245,130.0398,l,1,[],[],[],[],[],[],[],0.6397,1,130.0399,130.54,0,9,9,3,1,2004,FEM,AGR,150,venta,la,a,0.6397,,,,,,,,,,,,,,,,,,
,,,,,,720233dff5c0f02d813456bd,66a626ef09d4e21e1a8894ec,6735cdbe90b5af34a86e70fc,2024-11-14_02h16.01.601,Tarea de género gramatical,2024.2.2,Win32,60.24096386,,,,,,,,,,,,,,,,,,,,,,,130.5412,132.0737,a,0,[],[],[],[],[],[],[],0.8563,0,132.0749,132.5732,0,10,10,2,1,2003,FEM,DIS,150,daga,el,a,0.8563,,,,,,,,,,,,,,,,,,
,,,,,,720233dff5c0f02d813456bd,66a626ef09d4e21e1a8894ec,6735cdbe90b5af34a86e70fc,2024-11-14_02h16.01.601,Tarea de género gramatical,2024.2.2,Win32,60.24096386,,,,,,,,,,,,,,,,,,,,,,,132.5743,134.1232,a,1,[],[],[],[],[],[],[],0.8785,1,134.1242,134.6236,0,11,11,9,1,2010,MAS,AGR,150,vecino,el,l,0.8785,,,,,,,,,,,,,,,,,,
,,,,,,720233dff5c0f02d813456bd,66a626ef09d4e21e1a8894ec,6735cdbe90b5af34a86e70fc,2024-11-14_02h16.01.601,Tarea de género gramatical,2024.2.2,Win32,60.24096386,,,,,,,,,,,,,,,,,,,,,,,134.6244,135.9065,a,1,[],[],[],[],[],[],[],0.6289,1,135.9065,136.4066,0,12,12,12,1,2013,MAS,AGR,150,acero,el,l,0.6289,,,,,,,,,,,,,,,,,,
,,,,,,720233dff5c0f02d813456bd,66a626ef09d4e21e1a8894ec,6735cdbe90b5af34a86e70fc,2024-11-14_02h16.01.601,Tarea de género gramatical,2024.2.2,Win32,60.24096386,,,,,,,,,,,,,,,,,,,,,,,136.4077,137.8066,a,0,[],[],[],[],[],[],[],0.7411,0,137.8077,138.307,0,13,13,5,1,2006,FEM,DIS,150,serie,el,a,0.7411,,,,,,,,,,,,,,,,,,
,,,,,,720233dff5c0f02d813456bd,66a626ef09d4e21e1a8894ec,6735cdbe90b5af34a86e70fc,2024-11-14_02h16.01.601,Tarea de género gramatical,2024.2.2,Win32,60.24096386,,,,,,,,,,,,,,,,,,,,,,,138.308,139.5072,l,1,[],[],[],[],[],[],[],0.5204,1,139.5082,140.0065,0,14,14,4,1,2005,FEM,CON,150,placa,,a,0.5204,,,,,,,,,,,,,,,,,,
,,,,,,720233dff5c0f02d813456bd,66a626ef09d4e21e1a8894ec,6735cdbe90b5af34a86e70fc,2024-11-14_02h16.01.601,Tarea de género gramatical,2024.2.2,Win32,60.24096386,,,149.2431,158.657,space,9.3979,,0.10092594,-0.24537037,0,0,0,,,,,,,,,,,158.6891,160.0737,a,0,[],[],[],[],[],[],[],0.7165,0,160.075,160.5742,,,,,,327,FEM,DIS,150,tienda,el,a,0.7165,,160.5747,160.5784,0.10092594,-0.24537037,0,0,0,,0,0,0,326,1,,,,
,,,,,,720233dff5c0f02d813456bd,66a626ef09d4e21e1a8894ec,6735cdbe90b5af34a86e70fc,2024-11-14_02h16.01.601,Tarea de género gramatical,2024.2.2,Win32,60.24096386,,,,,,,,,,,,,,,,,,,,,,,160.5792,161.9406,a,0,[],[],[],[],[],[],[],0.6854,0,161.9408,162.4403,,,,,,380,FEM,CON,150,madera,,a,0.6854,,162.4403,162.4404,0.10092594,-0.24537037,0,0,0,,0,1,1,379,1,,,,
,,,,,,720233dff5c0f02d813456bd,66a626ef09d4e21e1a8894ec,6735cdbe90b5af34a86e70fc,2024-11-14_02h16.01.601,Tarea de género gramatical,2024.2.2,Win32,60.24096386,,,,,,,,,,,,,,,,,,,,,,,162.4419,164.0739,l,0,[],[],[],[],[],[],[],0.9496,0,164.0741,164.574,,,,,,83,MAS,CON,150,nene,,l,0.9496,,164.5754,164.5764,0.10092594,-0.24537037,0,0,0,,0,2,2,82,1,,,,
,,,,,,720233dff5c0f02d813456bd,66a626ef09d4e21e1a8894ec,6735cdbe90b5af34a86e70fc,2024-11-14_02h16.01.601,Tarea de género gramatical,2024.2.2,Win32,60.24096386,,,,,,,,,,,,,,,,,,,,,,,164.5771,165.8238,l,1,[],[],[],[],[],[],[],0.5656,1,165.8247,166.3239,,,,,,146,FEM,CON,150,lana,,a,0.5656,,166.324,166.3242,0.10092594,-0.24537037,0,0,0,,0,3,3,145,1,,,,
,,,,,,720233dff5c0f02d813456bd,66a626ef09d4e21e1a8894ec,6735cdbe90b5af34a86e70fc,2024-11-14_02h16.01.601,Tarea de género gramatical,2024.2.2,Win32,60.24096386,,,,,,,,,,,,,,,,,,,,,,,166.3254,167.7239,a,1,[],[],[],[],[],[],[],0.7186,1,167.724,168.224,,,,,,36,MAS,DIS,150,dedo,la,l,0.7186,,168.2241,168.2242,0.10092594,-0.24537037,0,0,0,,0,4,4,35,1,,,,
,,,,,,720233dff5c0f02d813456bd,66a626ef09d4e21e1a8894ec,6735cdbe90b5af34a86e70fc,2024-11-14_02h16.01.601,Tarea de género gramatical,2024.2.2,Win32,60.24096386,,,,,,,,,,,,,,,,,,,,,,,168.2252,169.674,l,1,[],[],[],[],[],[],[],0.7683,1,169.6741,170.1739,,,,,,163,FEM,AGR,150,calle,la,a,0.7683,,170.1741,170.1743,0.10092594,-0.24537037,0,0,0,,0,5,5,162,1,,,,
,,,,,,720233dff5c0f02d813456bd,66a626ef09d4e21e1a8894ec,6735cdbe90b5af34a86e70fc,2024-11-14_02h16.01.601,Tarea de género gramatical,2024.2.2,Win32,60.24096386,,,,,,,,,,,,,,,,,,,,,,,170.1751,171.4241,l,1,[],[],[],[],[],[],[],0.5676,1,171.4242,171.9241,,,,,,92,FEM,CON,150,masa,,a,0.5676,,171.9254,171.9265,0.10092594,-0.24537037,0,0,0,,0,6,6,91,1,,,,
,,,,,,720233dff5c0f02d813456bd,66a626ef09d4e21e1a8894ec,6735cdbe90b5af34a86e70fc,2024-11-14_02h16.01.601,Tarea de género gramatical,2024.2.2,Win32,60.24096386,,,,,,,,,,,,,,,,,,,,,,,171.9278,173.274,l,1,[],[],[],[],[],[],[],0.6787,1,173.2741,173.7745,,,,,,37,FEM,AGR,150,sala,la,a,0.6787,,173.7745,173.7746,0.10092594,-0.24537037,0,0,0,,0,7,7,36,1,,,,
,,,,,,720233dff5c0f02d813456bd,66a626ef09d4e21e1a8894ec,6735cdbe90b5af34a86e70fc,2024-11-14_02h16.01.601,Tarea de género gramatical,2024.2.2,Win32,60.24096386,,,,,,,,,,,,,,,,,,,,,,,173.7759,175.7577,l,0,[],[],[],[],[],[],[],1.3016,0,175.7587,176.2571,,,,,,60,MAS,DIS,150,tono,la,l,1.3016,,176.2571,176.2573,0.10092594,-0.24537037,0,0,0,,0,8,8,59,1,,,,
,,,,,,720233dff5c0f02d813456bd,66a626ef09d4e21e1a8894ec,6735cdbe90b5af34a86e70fc,2024-11-14_02h16.01.601,Tarea de género gramatical,2024.2.2,Win32,60.24096386,,,,,,,,,,,,,,,,,,,,,,,176.2587,177.9238,l,1,[],[],[],[],[],[],[],0.9946,1,177.9247,178.4241,,,,,,115,FEM,AGR,150,seda,la,a,0.9946,,178.4241,178.4243,0.10092594,-0.24537037,0,0,0,,0,9,9,114,1,,,,
,,,,,,720233dff5c0f02d813456bd,66a626ef09d4e21e1a8894ec,6735cdbe90b5af34a86e70fc,2024-11-14_02h16.01.601,Tarea de género gramatical,2024.2.2,Win32,60.24096386,,,,,,,,,,,,,,,,,,,,,,,178.4252,179.7072,a,1,[],[],[],[],[],[],[],0.6033,1,179.7073,180.2078,,,,,,209,MAS,CON,150,banco,,l,0.6033,,180.2079,180.2081,0.10092594,-0.24537037,0,0,0,,0,10,10,208,1,,,,
,,,,,,720233dff5c0f02d813456bd,66a626ef09d4e21e1a8894ec,6735cdbe90b5af34a86e70fc,2024-11-14_02h16.01.601,Tarea de género gramatical,2024.2.2,Win32,60.24096386,,,,,,,,,,,,,,,,,,,,,,,180.2094,182.0076,a,1,[],[],[],[],[],[],[],1.1237,1,182.0077,182.5077,,,,,,150,MAS,DIS,150,mozo,la,l,1.1237,,182.509,182.5099,0.10092594,-0.24537037,0,0,0,,0,11,11,149,1,,,,
,,,,,,720233dff5c0f02d813456bd,66a626ef09d4e21e1a8894ec,6735cdbe90b5af34a86e70fc,2024-11-14_02h16.01.601,Tarea de género gramatical,2024.2.2,Win32,60.24096386,,,,,,,,,,,,,,,,,,,,,,,182.5106,183.8408,a,1,[],[],[],[],[],[],[],0.6573,1,183.8408,184.3407,,,,,,102,MAS,DIS,150,coro,la,l,0.6573,,184.3408,184.3409,0.10092594,-0.24537037,0,0,0,,0,12,12,101,1,,,,
,,,,,,720233dff5c0f02d813456bd,66a626ef09d4e21e1a8894ec,6735cdbe90b5af34a86e70fc,2024-11-14_02h16.01.601,Tarea de género gramatical,2024.2.2,Win32,60.24096386,,,,,,,,,,,,,,,,,,,,,,,184.3431,185.824,a,1,[],[],[],[],[],[],[],0.7995,1,185.8241,186.3239,,,,,,234,MAS,DIS,150,héroe,la,l,0.7995,,186.3239,186.3239,0.10092594,-0.24537037,0,0,0,,0,13,13,233,1,,,,
,,,,,,720233dff5c0f02d813456bd,66a626ef09d4e21e1a8894ec,6735cdbe90b5af34a86e70fc,2024-11-14_02h16.01.601,Tarea de género gramatical,2024.2.2,Win32,60.24096386,,,,,,,,,,,,,,,,,,,,,,,186.3251,187.8573,l,1,[],[],[],[],[],[],[],0.8507,1,187.8573,188.3576,,,,,,97,FEM,AGR,150,capa,la,a,0.8507,,188.3576,188.3578,0.10092594,-0.24537037,0,0,0,,0,14,14,96,1,,,,
,,,,,,720233dff5c0f02d813456bd,66a626ef09d4e21e1a8894ec,6735cdbe90b5af34a86e70fc,2024-11-14_02h16.01.601,Tarea de género gramatical,2024.2.2,Win32,60.24096386,,,,,,,,,,,,,,,,,,,,,,,188.3587,189.8075,a,1,[],[],[],[],[],[],[],0.7738,1,189.8076,190.3078,,,,,,192,MAS,DIS,150,grupo,la,l,0.7738,,190.3091,190.31,0.10092594,-0.24537037,0,0,0,,0,15,15,191,1,,,,
,,,,,,720233dff5c0f02d813456bd,66a626ef09d4e21e1a8894ec,6735cdbe90b5af34a86e70fc,2024-11-14_02h16.01.601,Tarea de género gramatical,2024.2.2,Win32,60.24096386,,,,,,,,,,,,,,,,,,,,,,,190.3108,191.6576,l,1,[],[],[],[],[],[],[],0.671,1,191.6577,192.1572,,,,,,397,FEM,AGR,150,cuerda,la,a,0.671,,192.1572,192.1573,0.10092594,-0.24537037,0,0,0,,0,16,16,396,1,,,,
,,,,,,720233dff5c0f02d813456bd,66a626ef09d4e21e1a8894ec,6735cdbe90b5af34a86e70fc,2024-11-14_02h16.01.601,Tarea de género gramatical,2024.2.2,Win32,60.24096386,,,,,,,,,,,,,,,,,,,,,,,192.1587,193.8243,a,1,[],[],[],[],[],[],[],0.9909,1,193.8244,194.3245,,,,,,46,MAS,AGR,150,odio,el,l,0.9909,,194.3246,194.3247,0.10092594,-0.24537037,0,0,0,,0,17,17,45,1,,,,
,,,,,,720233dff5c0f02d813456bd,66a626ef09d4e21e1a8894ec,6735cdbe90b5af34a86e70fc,2024-11-14_02h16.01.601,Tarea de género gramatical,2024.2.2,Win32,60.24096386,,,,,,,,,,,,,,,,,,,,,,,194.3261,195.6748,a,1,[],[],[],[],[],[],[],0.6705,1,195.675,196.1746,,,,,,401,MAS,CON,150,abrigo,,l,0.6705,,196.1746,196.1747,0.10092594,-0.24537037,0,0,0,,0,18,18,400,1,,,,
,,,,,,720233dff5c0f02d813456bd,66a626ef09d4e21e1a8894ec,6735cdbe90b5af34a86e70fc,2024-11-14_02h16.01.601,Tarea de género gramatical,2024.2.2,Win32,60.24096386,,,,,,,,,,,,,,,,,,,,,,,196.1757,197.8239,a,1,[],[],[],[],[],[],[],0.9738,1,197.8241,198.3241,,,,,,264,MAS,DIS,150,pollo,la,l,0.9738,,198.3241,198.3242,0.10092594,-0.24537037,0,0,0,,0,19,19,263,1,,,,
,,,,,,720233dff5c0f02d813456bd,66a626ef09d4e21e1a8894ec,6735cdbe90b5af34a86e70fc,2024-11-14_02h16.01.601,Tarea de género gramatical,2024.2.2,Win32,60.24096386,,,,,,,,,,,,,,,,,,,,,,,198.3253,200.4408,a,1,[],[],[],[],[],[],[],1.4328,1,200.4408,200.9411,,,,,,438,MAS,DIS,150,tanque,la,l,1.4328,,200.9428,200.944,0.10092594,-0.24537037,0,0,0,,0,20,20,437,1,,,,
,,,,,,720233dff5c0f02d813456bd,66a626ef09d4e21e1a8894ec,6735cdbe90b5af34a86e70fc,2024-11-14_02h16.01.601,Tarea de género gramatical,2024.2.2,Win32,60.24096386,,,,,,,,,,,,,,,,,,,,,,,200.9449,202.2739,a,1,[],[],[],[],[],[],[],0.6624,1,202.2739,202.7742,,,,,,78,MAS,DIS,150,oído,la,l,0.6624,,202.7743,202.7744,0.10092594,-0.24537037,0,0,0,,0,21,21,77,1,,,,
,,,,,,720233dff5c0f02d813456bd,66a626ef09d4e21e1a8894ec,6735cdbe90b5af34a86e70fc,2024-11-14_02h16.01.601,Tarea de género gramatical,2024.2.2,Win32,60.24096386,,,,,,,,,,,,,,,,,,,,,,,202.776,204.0578,a,1,[],[],[],[],[],[],[],0.6058,1,204.0579,204.5579,,,,,,426,MAS,DIS,150,pánico,la,l,0.6058,,204.558,204.5581,0.10092594,-0.24537037,0,0,0,,0,22,22,425,1,,,,
,,,,,,720233dff5c0f02d813456bd,66a626ef09d4e21e1a8894ec,6735cdbe90b5af34a86e70fc,2024-11-14_02h16.01.601,Tarea de género gramatical,2024.2.2,Win32,60.24096386,,,,,,,,,,,,,,,,,,,,,,,204.5593,205.8243,l,1,[],[],[],[],[],[],[],0.5834,1,205.8245,206.3249,,,,,,393,FEM,DIS,150,alarma,el,a,0.5834,,206.325,206.3251,0.10092594,-0.24537037,0,0,0,,0,23,23,392,1,,,,
,,,,,,720233dff5c0f02d813456bd,66a626ef09d4e21e1a8894ec,6735cdbe90b5af34a86e70fc,2024-11-14_02h16.01.601,Tarea de género gramatical,2024.2.2,Win32,60.24096386,,,,,,,,,,,,,,,,,,,,,,,206.3263,207.608,a,1,[],[],[],[],[],[],[],0.6009,1,207.6081,208.1076,,,,,,53,MAS,CON,150,vaso,,l,0.6009,,208.1092,208.1101,0.10092594,-0.24537037,0,0,0,,0,24,24,52,1,,,,
,,,,,,720233dff5c0f02d813456bd,66a626ef09d4e21e1a8894ec,6735cdbe90b5af34a86e70fc,2024-11-14_02h16.01.601,Tarea de género gramatical,2024.2.2,Win32,60.24096386,,,,,,,,,,,,,,,,,,,,,,,208.1109,210.1245,l,1,[],[],[],[],[],[],[],1.3354,1,210.1247,210.6246,,,,,,387,FEM,DIS,150,página,el,a,1.3354,,210.6247,210.6248,0.10092594,-0.24537037,0,0,0,,0,25,25,386,1,,,,
,,,,,,720233dff5c0f02d813456bd,66a626ef09d4e21e1a8894ec,6735cdbe90b5af34a86e70fc,2024-11-14_02h16.01.601,Tarea de género gramatical,2024.2.2,Win32,60.24096386,,,,,,,,,,,,,,,,,,,,,,,210.6259,211.8576,l,1,[],[],[],[],[],[],[],0.5623,1,211.8577,212.3576,,,,,,62,FEM,CON,150,sopa,,a,0.5623,,212.3577,212.3577,0.10092594,-0.24537037,0,0,0,,0,26,26,61,1,,,,
,,,,,,720233dff5c0f02d813456bd,66a626ef09d4e21e1a8894ec,6735cdbe90b5af34a86e70fc,2024-11-14_02h16.01.601,Tarea de género gramatical,2024.2.2,Win32,60.24096386,,,,,,,,,,,,,,,,,,,,,,,212.3587,213.5244,l,1,[],[],[],[],[],[],[],0.4935,1,213.5245,214.0245,,,,,,427,FEM,AGR,150,agenda,la,a,0.4935,,214.0246,214.0247,0.10092594,-0.24537037,0,0,0,,0,27,27,426,1,,,,
,,,,,,720233dff5c0f02d813456bd,66a626ef09d4e21e1a8894ec,6735cdbe90b5af34a86e70fc,2024-11-14_02h16.01.601,Tarea de género gramatical,2024.2.2,Win32,60.24096386,,,,,,,,,,,,,,,,,,,,,,,214.0257,215.2741,a,1,[],[],[],[],[],[],[],0.5793,1,215.2742,215.7745,,,,,,227,MAS,CON,150,vuelo,,l,0.5793,,215.7745,215.7746,0.10092594,-0.24537037,0,0,0,,0,28,28,226,1,,,,
,,,,,,720233dff5c0f02d813456bd,66a626ef09d4e21e1a8894ec,6735cdbe90b5af34a86e70fc,2024-11-14_02h16.01.601,Tarea de género gramatical,2024.2.2,Win32,60.24096386,,,,,,,,,,,,,,,,,,,,,,,215.7755,217.758,l,1,[],[],[],[],[],[],[],1.3099,1,217.7582,218.2575,,,,,,63,FEM,DIS,150,fila,el,a,1.3099,,218.2592,218.2603,0.10092594,-0.24537037,0,0,0,,0,29,29,62,1,,,,
,,,,,,720233dff5c0f02d813456bd,66a626ef09d4e21e1a8894ec,6735cdbe90b5af34a86e70fc,2024-11-14_02h16.01.601,Tarea de género gramatical,2024.2.2,Win32,60.24096386,,,,,,,,,,,,,,,,,,,,,,,218.2608,219.5576,a,1,[],[],[],[],[],[],[],0.6261,1,219.5577,220.0579,,,,,,305,MAS,CON,150,hombre,,l,0.6261,,220.058,220.0581,0.10092594,-0.24537037,0,0,0,,0,30,30,304,1,,,,
,,,,,,720233dff5c0f02d813456bd,66a626ef09d4e21e1a8894ec,6735cdbe90b5af34a86e70fc,2024-11-14_02h16.01.601,Tarea de género gramatical,2024.2.2,Win32,60.24096386,,,,,,,,,,,,,,,,,,,,,,,220.0593,221.9911,a,0,[],[],[],[],[],[],[],1.2499,0,221.9921,222.491,,,,,,199,FEM,AGR,150,nariz,la,a,1.2499,,222.4911,222.4911,0.10092594,-0.24537037,0,0,0,,0,31,31,198,1,,,,
,,,,,,720233dff5c0f02d813456bd,66a626ef09d4e21e1a8894ec,6735cdbe90b5af34a86e70fc,2024-11-14_02h16.01.601,Tarea de género gramatical,2024.2.2,Win32,60.24096386,,,,,,,,,,,,,,,,,,,,,,,222.4921,224.6911,a,1,[],[],[],[],[],[],[],1.5206,1,224.6921,225.1911,,,,,,418,MAS,AGR,150,pájaro,el,l,1.5206,,225.1912,225.1912,0.10092594,-0.24537037,0,0,0,,0,32,32,417,1,,,,
,,,,,,720233dff5c0f02d813456bd,66a626ef09d4e21e1a8894ec,6735cdbe90b5af34a86e70fc,2024-11-14_02h16.01.601,Tarea de género gramatical,2024.2.2,Win32,60.24096386,,,,,,,,,,,,,,,,,,,,,,,225.1924,226.4744,a,1,[],[],[],[],[],[],[],0.5993,1,226.4745,226.9748,,,,,,180,MAS,DIS,150,fuego,la,l,0.5993,,226.9764,226.9775,0.10092594,-0.24537037,0,0,0,,0,33,33,179,1,,,,
,,,,,,720233dff5c0f02d813456bd,66a626ef09d4e21e1a8894ec,6735cdbe90b5af34a86e70fc,2024-11-14_02h16.01.601,Tarea de género gramatical,2024.2.2,Win32,60.24096386,,,,,,,,,,,,,,,,,,,,,,,226.9781,228.2247,a,0,[],[],[],[],[],[],[],0.5728,0,228.2257,228.7247,,,,,,176,FEM,CON,150,línea,,a,0.5728,,228.7248,228.7249,0.10092594,-0.24537037,0,0,0,,0,34,34,175,1,,,,
,,,,,,720233dff5c0f02d813456bd,66a626ef09d4e21e1a8894ec,6735cdbe90b5af34a86e70fc,2024-11-14_02h16.01.601,Tarea de género gramatical,2024.2.2,Win32,60.24096386,,,,,,,,,,,,,,,,,,,,,,,228.726,229.8743,a,1,[],[],[],[],[],[],[],0.4786,1,229.875,230.3742,,,,,,274,MAS,AGR,150,motor,el,l,0.4786,,230.3742,230.3743,0.10092594,-0.24537037,0,0,0,,0,35,35,273,1,,,,
,,,,,,720233dff5c0f02d813456bd,66a626ef09d4e21e1a8894ec,6735cdbe90b5af34a86e70fc,2024-11-14_02h16.01.601,Tarea de género gramatical,2024.2.2,Win32,60.24096386,,,,,,,,,,,,,,,,,,,,,,,230.3752,232.4083,a,1,[],[],[],[],[],[],[],1.3564,1,232.4084,232.9082,,,,,,408,MAS,DIS,150,cheque,la,l,1.3564,,232.9083,232.9084,0.10092594,-0.24537037,0,0,0,,0,36,36,407,1,,,,
,,,,,,720233dff5c0f02d813456bd,66a626ef09d4e21e1a8894ec,6735cdbe90b5af34a86e70fc,2024-11-14_02h16.01.601,Tarea de género gramatical,2024.2.2,Win32,60.24096386,,,,,,,,,,,,,,,,,,,,,,,232.9092,234.0587,a,1,[],[],[],[],[],[],[],0.4672,1,234.0588,234.5583,,,,,,347,MAS,CON,150,cuello,,l,0.4672,,234.5584,234.5584,0.10092594,-0.24537037,0,0,0,,0,37,37,346,1,,,,
,,,,,,720233dff5c0f02d813456bd,66a626ef09d4e21e1a8894ec,6735cdbe90b5af34a86e70fc,2024-11-14_02h16.01.601,Tarea de género gramatical,2024.2.2,Win32,60.24096386,,,,,,,,,,,,,,,,,,,,,,,234.5598,235.7411,a,1,[],[],[],[],[],[],[],0.5091,1,235.7413,236.2411,,,,,,215,MAS,CON,150,hueso,,l,0.5091,,236.2425,236.2437,0.10092594,-0.24537037,0,0,0,,0,38,38,214,1,,,,
,,,,,,720233dff5c0f02d813456bd,66a626ef09d4e21e1a8894ec,6735cdbe90b5af34a86e70fc,2024-11-14_02h16.01.601,Tarea de género gramatical,2024.2.2,Win32,60.24096386,,,,,,,,,,,,,,,,,,,,,,,236.2446,237.491,a,1,[],[],[],[],[],[],[],0.5783,1,237.4911,237.9911,,,,,,22,MAS,AGR,150,pelo,el,l,0.5783,,237.9912,237.9912,0.10092594,-0.24537037,0,0,0,,0,39,39,21,1,,,,
,,,,,,720233dff5c0f02d813456bd,66a626ef09d4e21e1a8894ec,6735cdbe90b5af34a86e70fc,2024-11-14_02h16.01.601,Tarea de género gramatical,2024.2.2,Win32,60.24096386,,,,,,,,,,,,,,,,,,,,,,,237.9926,239.3412,l,1,[],[],[],[],[],[],[],0.6679,1,239.3413,239.8416,,,,,,351,FEM,DIS,150,espada,el,a,0.6679,,239.8416,239.8417,0.10092594,-0.24537037,0,0,0,,0,40,40,350,1,,,,
,,,,,,720233dff5c0f02d813456bd,66a626ef09d4e21e1a8894ec,6735cdbe90b5af34a86e70fc,2024-11-14_02h16.01.601,Tarea de género gramatical,2024.2.2,Win32,60.24096386,,,,,,,,,,,,,,,,,,,,,,,239.8429,241.7581,a,1,[],[],[],[],[],[],[],1.234,1,241.7582,242.2577,,,,,,179,MAS,CON,150,viaje,,l,1.234,,242.2578,242.2579,0.10092594,-0.24537037,0,0,0,,0,41,41,178,1,,,,
,,,,,,720233dff5c0f02d813456bd,66a626ef09d4e21e1a8894ec,6735cdbe90b5af34a86e70fc,2024-11-14_02h16.01.601,Tarea de género gramatical,2024.2.2,Win32,60.24096386,,,,,,,,,,,,,,,,,,,,,,,242.259,243.7753,l,1,[],[],[],[],[],[],[],0.8349,1,243.7754,244.2746,,,,,,367,FEM,AGR,150,teoría,la,a,0.8349,,244.2755,244.2763,0.10092594,-0.24537037,0,0,0,,0,42,42,366,1,,,,
,,,,,,720233dff5c0f02d813456bd,66a626ef09d4e21e1a8894ec,6735cdbe90b5af34a86e70fc,2024-11-14_02h16.01.601,Tarea de género gramatical,2024.2.2,Win32,60.24096386,,,,,,,,,,,,,,,,,,,,,,,244.2774,246.008,l,1,[],[],[],[],[],[],[],1.0568,1,246.0081,246.5083,,,,,,141,FEM,DIS,150,cera,el,a,1.0568,,246.5084,246.5085,0.10092594,-0.24537037,0,0,0,,0,43,43,140,1,,,,
,,,,,,720233dff5c0f02d813456bd,66a626ef09d4e21e1a8894ec,6735cdbe90b5af34a86e70fc,2024-11-14_02h16.01.601,Tarea de género gramatical,2024.2.2,Win32,60.24096386,,,,,,,,,,,,,,,,,,,,,,,246.5098,247.9585,a,1,[],[],[],[],[],[],[],0.7749,1,247.9586,248.4584,,,,,,346,MAS,AGR,150,juicio,el,l,0.7749,,248.4585,248.4586,0.10092594,-0.24537037,0,0,0,,0,44,44,345,1,,,,
,,,,,,720233dff5c0f02d813456bd,66a626ef09d4e21e1a8894ec,6735cdbe90b5af34a86e70fc,2024-11-14_02h16.01.601,Tarea de género gramatical,2024.2.2,Win32,60.24096386,,,,,,,,,,,,,,,,,,,,,,,248.4597,250.1081,l,1,[],[],[],[],[],[],[],0.969,1,250.1081,250.6081,,,,,,357,FEM,DIS,150,lengua,el,a,0.969,,250.6082,250.6083,0.10092594,-0.24537037,0,0,0,,0,45,45,356,1,,,,
,,,,,,720233dff5c0f02d813456bd,66a626ef09d4e21e1a8894ec,6735cdbe90b5af34a86e70fc,2024-11-14_02h16.01.601,Tarea de género gramatical,2024.2.2,Win32,60.24096386,,,,,,,,,,,,,,,,,,,,,,,250.6091,252.0913,a,1,[],[],[],[],[],[],[],0.8101,1,252.0913,252.5918,,,,,,371,MAS,CON,150,sonido,,l,0.8101,,252.5919,252.5919,0.10092594,-0.24537037,0,0,0,,0,46,46,370,1,,,,
,,,,,,720233dff5c0f02d813456bd,66a626ef09d4e21e1a8894ec,6735cdbe90b5af34a86e70fc,2024-11-14_02h16.01.601,Tarea de género gramatical,2024.2.2,Win32,60.24096386,,,,,,,,,,,,,,,,,,,,,,,252.593,253.8249,a,1,[],[],[],[],[],[],[],0.5553,1,253.825,254.325,,,,,,6,MAS,DIS,150,lado,la,l,0.5553,,254.3261,254.3271,0.10092594,-0.24537037,0,0,0,,0,47,47,5,1,,,,
,,,,,,720233dff5c0f02d813456bd,66a626ef09d4e21e1a8894ec,6735cdbe90b5af34a86e70fc,2024-11-14_02h16.01.601,Tarea de género gramatical,2024.2.2,Win32,60.24096386,,,,,,,,,,,,,,,,,,,,,,,254.328,255.4413,a,1,[],[],[],[],[],[],[],0.4385,1,255.4414,255.9414,,,,,,34,MAS,AGR,150,gato,el,l,0.4385,,255.9415,255.9416,0.10092594,-0.24537037,0,0,0,,0,48,48,33,1,,,,
,,,,,,720233dff5c0f02d813456bd,66a626ef09d4e21e1a8894ec,6735cdbe90b5af34a86e70fc,2024-11-14_02h16.01.601,Tarea de género gramatical,2024.2.2,Win32,60.24096386,,,,,,,,,,,,,,,,,,,,,,,255.9428,257.475,a,1,[],[],[],[],[],[],[],0.8535,1,257.4752,257.9751,,,,,,154,MAS,AGR,150,padre,el,l,0.8535,,257.9753,257.9753,0.10092594,-0.24537037,0,0,0,,0,49,49,153,1,,,,
,,,,,,720233dff5c0f02d813456bd,66a626ef09d4e21e1a8894ec,6735cdbe90b5af34a86e70fc,2024-11-14_02h16.01.601,Tarea de género gramatical,2024.2.2,Win32,60.24096386,,,,,,,,,,,,,,,,,,,,,,,257.9763,259.458,l,1,[],[],[],[],[],[],[],0.8128,1,259.458,259.9587,,,,,,399,FEM,DIS,150,charla,el,a,0.8128,,259.9587,259.9588,0.10092594,-0.24537037,0,0,0,,0,50,50,398,1,,,,
,,,,,,720233dff5c0f02d813456bd,66a626ef09d4e21e1a8894ec,6735cdbe90b5af34a86e70fc,2024-11-14_02h16.01.601,Tarea de género gramatical,2024.2.2,Win32,60.24096386,,,,,,,,,,,,,,,,,,,,,,,259.9598,261.8581,a,1,[],[],[],[],[],[],[],1.221,1,261.8583,262.3584,,,,,,28,MAS,AGR,150,club,el,l,1.221,,262.3595,262.3605,0.10092594,-0.24537037,0,0,0,,0,51,51,27,1,,,,
,,,,,,720233dff5c0f02d813456bd,66a626ef09d4e21e1a8894ec,6735cdbe90b5af34a86e70fc,2024-11-14_02h16.01.601,Tarea de género gramatical,2024.2.2,Win32,60.24096386,,,,,,,,,,,,,,,,,,,,,,,262.361,264.258,a,0,[],[],[],[],[],[],[],1.2294,0,264.2588,264.7586,,,,,,363,FEM,DIS,150,unidad,el,a,1.2294,,264.7586,264.7588,0.10092594,-0.24537037,0,0,0,,0,52,52,362,1,,,,
,,,,,,720233dff5c0f02d813456bd,66a626ef09d4e21e1a8894ec,6735cdbe90b5af34a86e70fc,2024-11-14_02h16.01.601,Tarea de género gramatical,2024.2.2,Win32,60.24096386,,,,,,,,,,,,,,,,,,,,,,,264.7597,267.2415,l,1,[],[],[],[],[],[],[],1.8131,1,267.2425,267.7423,,,,,,159,FEM,DIS,150,clase,el,a,1.8131,,267.7423,267.7425,0.10092594,-0.24537037,0,0,0,,0,53,53,158,1,,,,
,,,,,,720233dff5c0f02d813456bd,66a626ef09d4e21e1a8894ec,6735cdbe90b5af34a86e70fc,2024-11-14_02h16.01.601,Tarea de género gramatical,2024.2.2,Win32,60.24096386,,,,,,,,,,,,,,,,,,,,,,,267.7437,269.0085,a,1,[],[],[],[],[],[],[],0.5899,1,269.0086,269.5086,,,,,,246,MAS,DIS,150,humor,la,l,0.5899,,269.5087,269.5088,0.10092594,-0.24537037,0,0,0,,0,54,54,245,1,,,,
,,,,,,720233dff5c0f02d813456bd,66a626ef09d4e21e1a8894ec,6735cdbe90b5af34a86e70fc,2024-11-14_02h16.01.601,Tarea de género gramatical,2024.2.2,Win32,60.24096386,,,,,,,,,,,,,,,,,,,,,,,269.5101,271.0581,l,1,[],[],[],[],[],[],[],0.8774,1,271.0581,271.5583,,,,,,266,FEM,CON,150,jaula,,a,0.8774,,271.5584,271.5585,0.10092594,-0.24537037,0,0,0,,0,55,55,265,1,,,,
,,,,,,720233dff5c0f02d813456bd,66a626ef09d4e21e1a8894ec,6735cdbe90b5af34a86e70fc,2024-11-14_02h16.01.601,Tarea de género gramatical,2024.2.2,Win32,60.24096386,,,,,,,,,,,,,,,,,,,,,,,271.5594,272.8254,a,1,[],[],[],[],[],[],[],0.5887,1,272.8255,273.3251,,,,,,64,MAS,AGR,150,saco,el,l,0.5887,,273.3265,273.3279,0.10092594,-0.24537037,0,0,0,,0,56,56,63,1,,,,
,,,,,,720233dff5c0f02d813456bd,66a626ef09d4e21e1a8894ec,6735cdbe90b5af34a86e70fc,2024-11-14_02h16.01.601,Tarea de género gramatical,2024.2.2,Win32,60.24096386,,,,,,,,,,,,,,,,,,,,,,,273.3285,274.9591,a,1,[],[],[],[],[],[],[],0.9585,1,274.9592,275.4585,,,,,,293,MAS,CON,150,patio,,l,0.9585,,275.4587,275.4588,0.10092594,-0.24537037,0,0,0,,0,57,57,292,1,,,,
,,,,,,720233dff5c0f02d813456bd,66a626ef09d4e21e1a8894ec,6735cdbe90b5af34a86e70fc,2024-11-14_02h16.01.601,Tarea de género gramatical,2024.2.2,Win32,60.24096386,,,,,,,,,,,,,,,,,,,,,,,275.4602,276.7749,l,1,[],[],[],[],[],[],[],0.6407,1,276.7751,277.275,,,,,,416,FEM,CON,150,colina,,a,0.6407,,277.2751,277.2752,0.10092594,-0.24537037,0,0,0,,0,58,58,415,1,,,,
,,,,,,720233dff5c0f02d813456bd,66a626ef09d4e21e1a8894ec,6735cdbe90b5af34a86e70fc,2024-11-14_02h16.01.601,Tarea de género gramatical,2024.2.2,Win32,60.24096386,,,,,,,,,,,,,,,,,,,,,,,277.2762,278.4917,a,0,[],[],[],[],[],[],[],0.5446,0,278.4928,278.9916,,,,,,158,FEM,CON,150,chica,,a,0.5446,,278.9916,278.9917,0.10092594,-0.24537037,0,0,0,,0,59,59,157,1,,,,
,,,,,,720233dff5c0f02d813456bd,66a626ef09d4e21e1a8894ec,6735cdbe90b5af34a86e70fc,2024-11-14_02h16.01.601,Tarea de género gramatical,2024.2.2,Win32,60.24096386,,,,,,,,,,,,,,,,,,,,,,,278.9928,280.5924,l,1,[],[],[],[],[],[],[],0.919,1,280.5933,281.092,,,,,,230,FEM,CON,150,regla,,a,0.919,,281.0934,281.0948,0.10092594,-0.24537037,0,0,0,,0,60,60,229,1,,,,
,,,,,,720233dff5c0f02d813456bd,66a626ef09d4e21e1a8894ec,6735cdbe90b5af34a86e70fc,2024-11-14_02h16.01.601,Tarea de género gramatical,2024.2.2,Win32,60.24096386,,,,,,,,,,,,,,,,,,,,,,,281.096,282.5757,l,1,[],[],[],[],[],[],[],0.8016,1,282.5758,283.0757,,,,,,128,FEM,CON,150,leña,,a,0.8016,,283.0757,283.0759,0.10092594,-0.24537037,0,0,0,,0,61,61,127,1,,,,
,,,,,,720233dff5c0f02d813456bd,66a626ef09d4e21e1a8894ec,6735cdbe90b5af34a86e70fc,2024-11-14_02h16.01.601,Tarea de género gramatical,2024.2.2,Win32,60.24096386,,,,,,,,,,,,,,,,,,,,,,,283.0771,284.425,l,1,[],[],[],[],[],[],[],0.6718,1,284.4251,284.9249,,,,,,67,FEM,AGR,150,miel,la,a,0.6718,,284.9249,284.925,0.10092594,-0.24537037,0,0,0,,0,62,62,66,1,,,,
,,,,,,720233dff5c0f02d813456bd,66a626ef09d4e21e1a8894ec,6735cdbe90b5af34a86e70fc,2024-11-14_02h16.01.601,Tarea de género gramatical,2024.2.2,Win32,60.24096386,,,,,,,,,,,,,,,,,,,,,,,284.9264,286.1084,l,1,[],[],[],[],[],[],[],0.5025,1,286.1085,286.6085,,,,,,104,FEM,CON,150,vela,,a,0.5025,,286.6085,286.6086,0.10092594,-0.24537037,0,0,0,,0,63,63,103,1,,,,
,,,,,,720233dff5c0f02d813456bd,66a626ef09d4e21e1a8894ec,6735cdbe90b5af34a86e70fc,2024-11-14_02h16.01.601,Tarea de género gramatical,2024.2.2,Win32,60.24096386,,,,,,,,,,,,,,,,,,,,,,,286.6098,287.9092,l,0,[],[],[],[],[],[],[],0.6276,0,287.9101,288.4087,,,,,,12,MAS,DIS,150,plan,la,l,0.6276,,288.4088,288.4088,0.10092594,-0.24537037,0,0,0,,0,64,64,11,1,,,,
,,,,,,720233dff5c0f02d813456bd,66a626ef09d4e21e1a8894ec,6735cdbe90b5af34a86e70fc,2024-11-14_02h16.01.601,Tarea de género gramatical,2024.2.2,Win32,60.24096386,,,,,,,,,,,,,,,,,,,,,,,288.4096,289.7083,a,1,[],[],[],[],[],[],[],0.6266,1,289.7095,290.2086,,,,,,275,MAS,CON,150,disco,,l,0.6266,,290.2097,290.2108,0.10092594,-0.24537037,0,0,0,,0,65,65,274,1,,,,
,,,,,,720233dff5c0f02d813456bd,66a626ef09d4e21e1a8894ec,6735cdbe90b5af34a86e70fc,2024-11-14_02h16.01.601,Tarea de género gramatical,2024.2.2,Win32,60.24096386,,,,,,,,,,,,,,,,,,,,,,,290.2114,292.1419,a,1,[],[],[],[],[],[],[],1.2587,1,292.142,292.6421,,,,,,106,MAS,AGR,150,test,el,l,1.2587,,292.6421,292.6422,0.10092594,-0.24537037,0,0,0,,0,66,66,105,1,,,,
,,,,,,720233dff5c0f02d813456bd,66a626ef09d4e21e1a8894ec,6735cdbe90b5af34a86e70fc,2024-11-14_02h16.01.601,Tarea de género gramatical,2024.2.2,Win32,60.24096386,,,,,,,,,,,,,,,,,,,,,,,292.6432,293.992,a,1,[],[],[],[],[],[],[],0.6666,1,293.992,294.4921,,,,,,88,MAS,AGR,150,pavo,el,l,0.6666,,294.4922,294.4923,0.10092594,-0.24537037,0,0,0,,0,67,67,87,1,,,,
,,,,,,720233dff5c0f02d813456bd,66a626ef09d4e21e1a8894ec,6735cdbe90b5af34a86e70fc,2024-11-14_02h16.01.601,Tarea de género gramatical,2024.2.2,Win32,60.24096386,,,,,,,,,,,,,,,,,,,,,,,294.4934,295.8586,l,1,[],[],[],[],[],[],[],0.6875,1,295.8587,296.3586,,,,,,75,FEM,DIS,150,caza,el,a,0.6875,,296.3586,296.3587,0.10092594,-0.24537037,0,0,0,,0,68,68,74,1,,,,
,,,,,,720233dff5c0f02d813456bd,66a626ef09d4e21e1a8894ec,6735cdbe90b5af34a86e70fc,2024-11-14_02h16.01.601,Tarea de género gramatical,2024.2.2,Win32,60.24096386,,,,,,,,,,,,,,,,,,,,,,,296.3597,297.6585,l,1,[],[],[],[],[],[],[],0.6294,1,297.6586,298.1591,,,,,,121,FEM,AGR,150,pila,la,a,0.6294,,298.16,298.1609,0.10092594,-0.24537037,0,0,0,,0,69,69,120,1,,,,
,,,,,,720233dff5c0f02d813456bd,66a626ef09d4e21e1a8894ec,6735cdbe90b5af34a86e70fc,2024-11-14_02h16.01.601,Tarea de género gramatical,2024.2.2,Win32,60.24096386,,,,,,,,,,,,,,,,,,,,,,,298.1616,299.3755,l,1,[],[],[],[],[],[],[],0.5398,1,299.3756,299.8758,,,,,,344,FEM,CON,150,pareja,,a,0.5398,,299.8758,299.8759,0.10092594,-0.24537037,0,0,0,,0,70,70,343,1,,,,
,,,,,,720233dff5c0f02d813456bd,66a626ef09d4e21e1a8894ec,6735cdbe90b5af34a86e70fc,2024-11-14_02h16.01.601,Tarea de género gramatical,2024.2.2,Win32,60.24096386,,,,,,,,,,,,,,,,,,,,,,,299.8768,301.0925,l,0,[],[],[],[],[],[],[],0.5356,0,301.0935,301.5922,,,,,,124,MAS,AGR,150,clan,el,l,0.5356,,301.5923,301.5924,0.10092594,-0.24537037,0,0,0,,0,71,71,123,1,,,,
,,,,,,720233dff5c0f02d813456bd,66a626ef09d4e21e1a8894ec,6735cdbe90b5af34a86e70fc,2024-11-14_02h16.01.601,Tarea de género gramatical,2024.2.2,Win32,60.24096386,,,,,,,,,,,,,,,,,,,,,,,301.5934,302.9259,l,1,[],[],[],[],[],[],[],0.6511,1,302.927,303.4258,,,,,,189,FEM,DIS,150,pista,el,a,0.6511,,303.4259,303.426,0.10092594,-0.24537037,0,0,0,,0,72,72,188,1,,,,
,,,,,,720233dff5c0f02d813456bd,66a626ef09d4e21e1a8894ec,6735cdbe90b5af34a86e70fc,2024-11-14_02h16.01.601,Tarea de género gramatical,2024.2.2,Win32,60.24096386,,,,,,,,,,,,,,,,,,,,,,,303.427,304.7588,l,1,[],[],[],[],[],[],[],0.6501,1,304.759,305.2585,,,,,,206,FEM,CON,150,época,,a,0.6501,,305.2585,305.2586,0.10092594,-0.24537037,0,0,0,,0,73,73,205,1,,,,
,,,,,,720233dff5c0f02d813456bd,66a626ef09d4e21e1a8894ec,6735cdbe90b5af34a86e70fc,2024-11-14_02h16.01.601,Tarea de género gramatical,2024.2.2,Win32,60.24096386,,,,,,,,,,,,,,,,,,,,,,,305.2596,306.6585,a,1,[],[],[],[],[],[],[],0.7281,1,306.6586,307.1585,,,,,,365,MAS,CON,150,código,,l,0.7281,,307.1599,307.1605,0.10092594,-0.24537037,0,0,0,,0,74,74,364,1,,,,
,,,,,,720233dff5c0f02d813456bd,66a626ef09d4e21e1a8894ec,6735cdbe90b5af34a86e70fc,2024-11-14_02h16.01.601,Tarea de género gramatical,2024.2.2,Win32,60.24096386,,,,,,,,,,,,,,,,,,,,,,,307.1615,308.5757,l,1,[],[],[],[],[],[],[],0.7397,1,308.5758,309.0757,,,,,,434,FEM,CON,150,corona,,a,0.7397,,309.0758,309.0759,0.10092594,-0.24537037,0,0,0,,0,75,75,433,1,,,,
,,,,,,720233dff5c0f02d813456bd,66a626ef09d4e21e1a8894ec,6735cdbe90b5af34a86e70fc,2024-11-14_02h16.01.601,Tarea de género gramatical,2024.2.2,Win32,60.24096386,,,,,,,,,,,,,,,,,,,,,,,309.0769,310.6256,a,1,[],[],[],[],[],[],[],0.8669,1,310.6257,311.1257,,,,,,359,MAS,CON,150,bosque,,l,0.8669,,311.1258,311.1259,0.10092594,-0.24537037,0,0,0,,0,76,76,358,1,,,,
,,,,,,720233dff5c0f02d813456bd,66a626ef09d4e21e1a8894ec,6735cdbe90b5af34a86e70fc,2024-11-14_02h16.01.601,Tarea de género gramatical,2024.2.2,Win32,60.24096386,,,,,,,,,,,,,,,,,,,,,,,311.1268,312.409,a,1,[],[],[],[],[],[],[],0.6053,1,312.409,312.9088,,,,,,245,MAS,CON,150,turno,,l,0.6053,,312.9089,312.909,0.10092594,-0.24537037,0,0,0,,0,77,77,244,1,,,,
,,,,,,720233dff5c0f02d813456bd,66a626ef09d4e21e1a8894ec,6735cdbe90b5af34a86e70fc,2024-11-14_02h16.01.601,Tarea de género gramatical,2024.2.2,Win32,60.24096386,,,,,,,,,,,,,,,,,,,,,,,312.9102,314.2586,a,1,[],[],[],[],[],[],[],0.6714,1,314.2588,314.7589,,,,,,304,MAS,AGR,150,tiempo,el,l,0.6714,,314.7601,314.761,0.10092594,-0.24537037,0,0,0,,0,78,78,303,1,,,,
,,,,,,720233dff5c0f02d813456bd,66a626ef09d4e21e1a8894ec,6735cdbe90b5af34a86e70fc,2024-11-14_02h16.01.601,Tarea de género gramatical,2024.2.2,Win32,60.24096386,,,,,,,,,,,,,,,,,,,,,,,314.762,316.6586,l,1,[],[],[],[],[],[],[],1.2201,1,316.6587,317.1586,,,,,,177,FEM,DIS,150,broma,el,a,1.2201,,317.1587,317.1587,0.10092594,-0.24537037,0,0,0,,0,79,79,176,1,,,,
,,,,,,720233dff5c0f02d813456bd,66a626ef09d4e21e1a8894ec,6735cdbe90b5af34a86e70fc,2024-11-14_02h16.01.601,Tarea de género gramatical,2024.2.2,Win32,60.24096386,,,,,,,,,,,,,,,,,,,,,,,317.1595,318.6258,a,1,[],[],[],[],[],[],[],0.7889,1,318.6259,319.1254,,,,,,198,MAS,DIS,150,hotel,la,l,0.7889,,319.1254,319.1255,0.10092594,-0.24537037,0,0,0,,0,80,80,197,1,,,,
,,,,,,720233dff5c0f02d813456bd,66a626ef09d4e21e1a8894ec,6735cdbe90b5af34a86e70fc,2024-11-14_02h16.01.601,Tarea de género gramatical,2024.2.2,Win32,60.24096386,,,,,,,,,,,,,,,,,,,,,,,319.1264,320.9924,a,1,[],[],[],[],[],[],[],1.1892,1,320.9925,321.4925,,,,,,202,MAS,AGR,150,honor,el,l,1.1892,,321.4926,321.4926,0.10092594,-0.24537037,0,0,0,,0,81,81,201,1,,,,
,,,,,,720233dff5c0f02d813456bd,66a626ef09d4e21e1a8894ec,6735cdbe90b5af34a86e70fc,2024-11-14_02h16.01.601,Tarea de género gramatical,2024.2.2,Win32,60.24096386,,,,,,,,,,,,,,,,,,,,,,,321.4937,323.4921,a,1,[],[],[],[],[],[],[],1.3264,1,323.4923,323.9924,,,,,,214,MAS,AGR,150,fondo,el,l,1.3264,,323.9924,323.9925,0.10092594,-0.24537037,0,0,0,,0,82,82,213,1,,,,
,,,,,,720233dff5c0f02d813456bd,66a626ef09d4e21e1a8894ec,6735cdbe90b5af34a86e70fc,2024-11-14_02h16.01.601,Tarea de género gramatical,2024.2.2,Win32,60.24096386,,,,,,,,,,,,,,,,,,,,,,,323.9937,325.3758,l,1,[],[],[],[],[],[],[],0.701,1,325.3759,325.8757,,,,,,355,FEM,AGR,150,mirada,la,a,0.701,,325.8769,325.8776,0.10092594,-0.24537037,0,0,0,,0,83,83,354,1,,,,
,,,,,,720233dff5c0f02d813456bd,66a626ef09d4e21e1a8894ec,6735cdbe90b5af34a86e70fc,2024-11-14_02h16.01.601,Tarea de género gramatical,2024.2.2,Win32,60.24096386,,,,,,,,,,,,,,,,,,,,,,,325.8785,327.109,a,1,[],[],[],[],[],[],[],0.5601,1,327.1091,327.6093,,,,,,173,MAS,CON,150,libro,,l,0.5601,,327.6093,327.6094,0.10092594,-0.24537037,0,0,0,,0,84,84,172,1,,,,
,,,,,,720233dff5c0f02d813456bd,66a626ef09d4e21e1a8894ec,6735cdbe90b5af34a86e70fc,2024-11-14_02h16.01.601,Tarea de género gramatical,2024.2.2,Win32,60.24096386,,,,,,,,,,,,,,,,,,,,,,,327.6109,329.1256,a,0,[],[],[],[],[],[],[],0.8425,0,329.1271,329.6256,,,,,,271,FEM,AGR,150,viuda,la,a,0.8425,,329.6257,329.6258,0.10092594,-0.24537037,0,0,0,,0,85,85,270,1,,,,
,,,,,,720233dff5c0f02d813456bd,66a626ef09d4e21e1a8894ec,6735cdbe90b5af34a86e70fc,2024-11-14_02h16.01.601,Tarea de género gramatical,2024.2.2,Win32,60.24096386,,,,,,,,,,,,,,,,,,,,,,,329.6268,330.9089,a,1,[],[],[],[],[],[],[],0.6007,1,330.9096,331.409,,,,,,29,MAS,CON,150,frío,,l,0.6007,,331.4091,331.4092,0.10092594,-0.24537037,0,0,0,,0,86,86,28,1,,,,
,,,,,,720233dff5c0f02d813456bd,66a626ef09d4e21e1a8894ec,6735cdbe90b5af34a86e70fc,2024-11-14_02h16.01.601,Tarea de género gramatical,2024.2.2,Win32,60.24096386,,,,,,,,,,,,,,,,,,,,,,,331.4103,333.5765,a,1,[],[],[],[],[],[],[],1.4905,1,333.5767,334.0756,,,,,,360,MAS,DIS,150,puente,la,l,1.4905,,334.0768,334.078,0.10092594,-0.24537037,0,0,0,,0,87,87,359,1,,,,
,,,,,,720233dff5c0f02d813456bd,66a626ef09d4e21e1a8894ec,6735cdbe90b5af34a86e70fc,2024-11-14_02h16.01.601,Tarea de género gramatical,2024.2.2,Win32,60.24096386,,,,,,,,,,,,,,,,,,,,,,,334.0786,335.3757,l,1,[],[],[],[],[],[],[],0.6173,1,335.3758,335.8764,,,,,,187,FEM,AGR,150,lista,la,a,0.6173,,335.8765,335.8766,0.10092594,-0.24537037,0,0,0,,0,88,88,186,1,,,,
,,,,,,720233dff5c0f02d813456bd,66a626ef09d4e21e1a8894ec,6735cdbe90b5af34a86e70fc,2024-11-14_02h16.01.601,Tarea de género gramatical,2024.2.2,Win32,60.24096386,,,,,,,,,,,,,,,,,,,,,,,335.8774,337.1589,a,1,[],[],[],[],[],[],[],0.6089,1,337.1591,337.6592,,,,,,167,MAS,CON,150,juego,,l,0.6089,,337.6592,337.6593,0.10092594,-0.24537037,0,0,0,,0,89,89,166,1,,,,
,,,,,,720233dff5c0f02d813456bd,66a626ef09d4e21e1a8894ec,6735cdbe90b5af34a86e70fc,2024-11-14_02h16.01.601,Tarea de género gramatical,2024.2.2,Win32,60.24096386,,,,,,,,,,,,,,,,,,,,,,,337.6605,339.859,a,1,[],[],[],[],[],[],[],1.5199,1,339.8591,340.359,,,,,,238,MAS,AGR,150,norte,el,l,1.5199,,340.3591,340.3591,0.10092594,-0.24537037,0,0,0,,0,90,90,237,1,,,,
,,,,,,720233dff5c0f02d813456bd,66a626ef09d4e21e1a8894ec,6735cdbe90b5af34a86e70fc,2024-11-14_02h16.01.601,Tarea de género gramatical,2024.2.2,Win32,60.24096386,,,,,,,,,,,,,,,,,,,,,,,340.3598,341.8091,l,1,[],[],[],[],[],[],[],0.7794,1,341.8092,342.3091,,,,,,98,FEM,CON,150,fuga,,a,0.7794,,342.3092,342.3094,0.10092594,-0.24537037,0,0,0,,0,91,91,97,1,,,,
,,,,,,720233dff5c0f02d813456bd,66a626ef09d4e21e1a8894ec,6735cdbe90b5af34a86e70fc,2024-11-14_02h16.01.601,Tarea de género gramatical,2024.2.2,Win32,60.24096386,,,,,,,,,,,,,,,,,,,,,,,342.3106,343.5425,l,1,[],[],[],[],[],[],[],0.5507,1,343.5425,344.0424,,,,,,421,FEM,AGR,150,novela,la,a,0.5507,,344.0432,344.0442,0.10092594,-0.24537037,0,0,0,,0,92,92,420,1,,,,
,,,,,,720233dff5c0f02d813456bd,66a626ef09d4e21e1a8894ec,6735cdbe90b5af34a86e70fc,2024-11-14_02h16.01.601,Tarea de género gramatical,2024.2.2,Win32,60.24096386,,,,,,,,,,,,,,,,,,,,,,,344.0452,345.3263,a,1,[],[],[],[],[],[],[],0.6008,1,345.3264,345.8261,,,,,,268,MAS,AGR,150,truco,el,l,0.6008,,345.8262,345.8263,0.10092594,-0.24537037,0,0,0,,0,93,93,267,1,,,,
,,,,,,720233dff5c0f02d813456bd,66a626ef09d4e21e1a8894ec,6735cdbe90b5af34a86e70fc,2024-11-14_02h16.01.601,Tarea de género gramatical,2024.2.2,Win32,60.24096386,,,,,,,,,,,,,,,,,,,,,,,345.8279,347.0095,l,0,[],[],[],[],[],[],[],0.5007,0,347.0103,347.5094,,,,,,389,MAS,CON,150,tamaño,,l,0.5007,,347.5095,347.5095,0.10092594,-0.24537037,0,0,0,,0,94,94,388,1,,,,
,,,,,,720233dff5c0f02d813456bd,66a626ef09d4e21e1a8894ec,6735cdbe90b5af34a86e70fc,2024-11-14_02h16.01.601,Tarea de género gramatical,2024.2.2,Win32,60.24096386,,,,,,,,,,,,,,,,,,,,,,,347.5107,348.8592,l,1,[],[],[],[],[],[],[],0.6777,1,348.8598,349.3594,,,,,,278,FEM,CON,150,presa,,a,0.6777,,349.3594,349.3595,0.10092594,-0.24537037,0,0,0,,0,95,95,277,1,,,,
,,,,,,720233dff5c0f02d813456bd,66a626ef09d4e21e1a8894ec,6735cdbe90b5af34a86e70fc,2024-11-14_02h16.01.601,Tarea de género gramatical,2024.2.2,Win32,60.24096386,,,,,,,,,,,,,,,,,,,,,,,349.3606,351.1932,l,1,[],[],[],[],[],[],[],1.1513,1,351.1933,351.6928,,,,,,129,FEM,DIS,150,rana,el,a,1.1513,,351.6942,351.6953,0.10092594,-0.24537037,0,0,0,,0,96,96,128,1,,,,
,,,,,,720233dff5c0f02d813456bd,66a626ef09d4e21e1a8894ec,6735cdbe90b5af34a86e70fc,2024-11-14_02h16.01.601,Tarea de género gramatical,2024.2.2,Win32,60.24096386,,,,,,,,,,,,,,,,,,,,,,,351.696,353.0095,l,1,[],[],[],[],[],[],[],0.6384,1,353.0095,353.5095,,,,,,428,FEM,CON,150,jugada,,a,0.6384,,353.5095,353.5096,0.10092594,-0.24537037,0,0,0,,0,97,97,427,1,,,,
,,,,,,720233dff5c0f02d813456bd,66a626ef09d4e21e1a8894ec,6735cdbe90b5af34a86e70fc,2024-11-14_02h16.01.601,Tarea de género gramatical,2024.2.2,Win32,60.24096386,,,,,,,,,,,,,,,,,,,,,,,353.5104,354.7095,a,1,[],[],[],[],[],[],[],0.5177,1,354.7096,355.2096,,,,,,5,MAS,CON,150,tipo,,l,0.5177,,355.2096,355.2098,0.10092594,-0.24537037,0,0,0,,0,98,98,4,1,,,,
,,,,,,720233dff5c0f02d813456bd,66a626ef09d4e21e1a8894ec,6735cdbe90b5af34a86e70fc,2024-11-14_02h16.01.601,Tarea de género gramatical,2024.2.2,Win32,60.24096386,,,,,,,,,,,,,,,,,,,,,,,355.2108,356.9594,l,1,[],[],[],[],[],[],[],1.0669,1,356.9595,357.4601,,,,,,25,FEM,AGR,150,nave,la,a,1.0669,,357.4601,357.4602,0.10092594,-0.24537037,0,0,0,,0,99,99,24,1,,,,
,,,,,,720233dff5c0f02d813456bd,66a626ef09d4e21e1a8894ec,6735cdbe90b5af34a86e70fc,2024-11-14_02h16.01.601,Tarea de género gramatical,2024.2.2,Win32,60.24096386,,,,,,,,,,,,,,,,,,,,,,,357.4611,358.7929,a,1,[],[],[],[],[],[],[],0.6564,1,358.7931,359.2927,,,,,,432,MAS,DIS,150,océano,la,l,0.6564,,359.2928,359.2929,0.10092594,-0.24537037,0,0,0,,0,100,100,431,1,,,,
,,,,,,720233dff5c0f02d813456bd,66a626ef09d4e21e1a8894ec,6735cdbe90b5af34a86e70fc,2024-11-14_02h16.01.601,Tarea de género gramatical,2024.2.2,Win32,60.24096386,,,,,,,,,,,,,,,,,,,,,,,359.2938,360.4929,a,1,[],[],[],[],[],[],[],0.5272,1,360.493,360.9927,,,,,,221,MAS,CON,150,brazo,,l,0.5272,,360.9939,360.9948,0.10092594,-0.24537037,0,0,0,,0,101,101,220,1,,,,
,,,,,,720233dff5c0f02d813456bd,66a626ef09d4e21e1a8894ec,6735cdbe90b5af34a86e70fc,2024-11-14_02h16.01.601,Tarea de género gramatical,2024.2.2,Win32,60.24096386,,,,,,,,,,,,,,,,,,,,,,,360.9956,362.626,a,1,[],[],[],[],[],[],[],0.9629,1,362.626,363.1263,,,,,,443,MAS,CON,150,templo,,l,0.9629,,363.1264,363.1265,0.10092594,-0.24537037,0,0,0,,0,102,102,442,1,,,,
,,,,,,720233dff5c0f02d813456bd,66a626ef09d4e21e1a8894ec,6735cdbe90b5af34a86e70fc,2024-11-14_02h16.01.601,Tarea de género gramatical,2024.2.2,Win32,60.24096386,,,,,,,,,,,,,,,,,,,,,,,363.1279,364.7266,l,1,[],[],[],[],[],[],[],0.9256,1,364.7267,365.2264,,,,,,375,FEM,DIS,150,cadena,el,a,0.9256,,365.2265,365.2266,0.10092594,-0.24537037,0,0,0,,0,103,103,374,1,,,,
,,,,,,720233dff5c0f02d813456bd,66a626ef09d4e21e1a8894ec,6735cdbe90b5af34a86e70fc,2024-11-14_02h16.01.601,Tarea de género gramatical,2024.2.2,Win32,60.24096386,,,,,,,,,,,,,,,,,,,,,,,365.2279,366.6765,a,1,[],[],[],[],[],[],[],0.7758,1,366.6766,367.1764,,,,,,407,MAS,CON,150,jurado,,l,0.7758,,367.1764,367.1765,0.10092594,-0.24537037,0,0,0,,0,104,104,406,1,,,,
,,,,,,720233dff5c0f02d813456bd,66a626ef09d4e21e1a8894ec,6735cdbe90b5af34a86e70fc,2024-11-14_02h16.01.601,Tarea de género gramatical,2024.2.2,Win32,60.24096386,,,,,,,,,,,,,,,,,,,,,,,367.1772,368.41,a,1,[],[],[],[],[],[],[],0.5548,1,368.4101,368.9098,,,,,,95,MAS,CON,150,tomo,,l,0.5548,,368.9113,368.9124,0.10092594,-0.24537037,0,0,0,,0,105,105,94,1,,,,
,,,,,,720233dff5c0f02d813456bd,66a626ef09d4e21e1a8894ec,6735cdbe90b5af34a86e70fc,2024-11-14_02h16.01.601,Tarea de género gramatical,2024.2.2,Win32,60.24096386,,,,,,,,,,,,,,,,,,,,,,,368.9131,370.5428,l,1,[],[],[],[],[],[],[],0.9502,1,370.543,371.0428,,,,,,74,FEM,CON,150,flor,,a,0.9502,,371.0429,371.043,0.10092594,-0.24537037,0,0,0,,0,106,106,73,1,,,,
,,,,,,720233dff5c0f02d813456bd,66a626ef09d4e21e1a8894ec,6735cdbe90b5af34a86e70fc,2024-11-14_02h16.01.601,Tarea de género gramatical,2024.2.2,Win32,60.24096386,,,,,,,,,,,,,,,,,,,,,,,371.0441,372.3593,l,1,[],[],[],[],[],[],[],0.649,1,372.3595,372.8596,,,,,,194,FEM,CON,150,banda,,a,0.649,,372.8596,372.8596,0.10092594,-0.24537037,0,0,0,,0,107,107,193,1,,,,
,,,,,,720233dff5c0f02d813456bd,66a626ef09d4e21e1a8894ec,6735cdbe90b5af34a86e70fc,2024-11-14_02h16.01.601,Tarea de género gramatical,2024.2.2,Win32,60.24096386,,,,,,,,,,,,,,,,,,,,,,,372.8603,374.2094,l,1,[],[],[],[],[],[],[],0.6678,1,374.2094,374.7099,,,,,,193,FEM,AGR,150,bolsa,la,a,0.6678,,374.7099,374.71,0.10092594,-0.24537037,0,0,0,,0,108,108,192,1,,,,
,,,,,,720233dff5c0f02d813456bd,66a626ef09d4e21e1a8894ec,6735cdbe90b5af34a86e70fc,2024-11-14_02h16.01.601,Tarea de género gramatical,2024.2.2,Win32,60.24096386,,,,,,,,,,,,,,,,,,,,,,,374.7111,376.6096,a,1,[],[],[],[],[],[],[],1.229,1,376.6097,377.1099,,,,,,270,MAS,DIS,150,queso,la,l,1.229,,377.1099,377.1099,0.10092594,-0.24537037,0,0,0,,0,109,109,269,1,,,,
,,,,,,720233dff5c0f02d813456bd,66a626ef09d4e21e1a8894ec,6735cdbe90b5af34a86e70fc,2024-11-14_02h16.01.601,Tarea de género gramatical,2024.2.2,Win32,60.24096386,,,,,,,,,,,,,,,,,,,,,,,377.1107,378.4595,a,0,[],[],[],[],[],[],[],0.6694,0,378.46,378.9594,,,,,,152,FEM,CON,150,gente,,a,0.6694,,378.9601,378.9609,0.10092594,-0.24537037,0,0,0,,0,110,110,151,1,,,,
,,,,,,720233dff5c0f02d813456bd,66a626ef09d4e21e1a8894ec,6735cdbe90b5af34a86e70fc,2024-11-14_02h16.01.601,Tarea de género gramatical,2024.2.2,Win32,60.24096386,,,,,,,,,,,,,,,,,,,,,,,378.9619,380.1599,a,0,[],[],[],[],[],[],[],0.524,0,380.1599,380.6593,,,,,,151,FEM,AGR,150,noche,la,a,0.524,,380.6594,380.6594,0.10092594,-0.24537037,0,0,0,,0,111,111,150,1,,,,
,,,,,,720233dff5c0f02d813456bd,66a626ef09d4e21e1a8894ec,6735cdbe90b5af34a86e70fc,2024-11-14_02h16.01.601,Tarea de género gramatical,2024.2.2,Win32,60.24096386,,,,,,,,,,,,,,,,,,,,,,,380.6604,382.4598,l,1,[],[],[],[],[],[],[],1.1192,1,382.4606,382.96,,,,,,105,FEM,DIS,150,jefa,el,a,1.1192,,382.96,382.9602,0.10092594,-0.24537037,0,0,0,,0,112,112,104,1,,,,
,,,,,,720233dff5c0f02d813456bd,66a626ef09d4e21e1a8894ec,6735cdbe90b5af34a86e70fc,2024-11-14_02h16.01.601,Tarea de género gramatical,2024.2.2,Win32,60.24096386,,,,,,,,,,,,,,,,,,,,,,,382.9612,384.3599,l,1,[],[],[],[],[],[],[],0.717,1,384.36,384.8598,,,,,,290,FEM,CON,150,cabra,,a,0.717,,384.8598,384.8599,0.10092594,-0.24537037,0,0,0,,0,113,113,289,1,,,,
,,,,,,720233dff5c0f02d813456bd,66a626ef09d4e21e1a8894ec,6735cdbe90b5af34a86e70fc,2024-11-14_02h16.01.601,Tarea de género gramatical,2024.2.2,Win32,60.24096386,,,,,,,,,,,,,,,,,,,,,,,384.8608,386.0762,a,1,[],[],[],[],[],[],[],0.5348,1,386.0763,386.5763,,,,,,185,MAS,CON,150,sueño,,l,0.5348,,386.5772,386.5786,0.10092594,-0.24537037,0,0,0,,0,114,114,184,1,,,,
,,,,,,720233dff5c0f02d813456bd,66a626ef09d4e21e1a8894ec,6735cdbe90b5af34a86e70fc,2024-11-14_02h16.01.601,Tarea de género gramatical,2024.2.2,Win32,60.24096386,,,,,,,,,,,,,,,,,,,,,,,386.5792,388.0102,l,0,[],[],[],[],[],[],[],0.755,0,388.0109,388.5097,,,,,,370,MAS,AGR,150,seguro,el,l,0.755,,388.5098,388.5099,0.10092594,-0.24537037,0,0,0,,0,115,115,369,1,,,,
,,,,,,720233dff5c0f02d813456bd,66a626ef09d4e21e1a8894ec,6735cdbe90b5af34a86e70fc,2024-11-14_02h16.01.601,Tarea de género gramatical,2024.2.2,Win32,60.24096386,,,,,,,,,,,,,,,,,,,,,,,388.5111,389.86,l,1,[],[],[],[],[],[],[],0.6682,1,389.861,390.36,,,,,,207,FEM,DIS,150,playa,el,a,0.6682,,390.36,390.3601,0.10092594,-0.24537037,0,0,0,,0,116,116,206,1,,,,
,,,,,,720233dff5c0f02d813456bd,66a626ef09d4e21e1a8894ec,6735cdbe90b5af34a86e70fc,2024-11-14_02h16.01.601,Tarea de género gramatical,2024.2.2,Win32,60.24096386,,,,,,,,,,,,,,,,,,,,,,,390.3611,391.6101,a,1,[],[],[],[],[],[],[],0.5682,1,391.6103,392.1103,,,,,,364,MAS,AGR,150,viento,el,l,0.5682,,392.1103,392.1105,0.10092594,-0.24537037,0,0,0,,0,117,117,363,1,,,,
,,,,,,720233dff5c0f02d813456bd,66a626ef09d4e21e1a8894ec,6735cdbe90b5af34a86e70fc,2024-11-14_02h16.01.601,Tarea de género gramatical,2024.2.2,Win32,60.24096386,,,,,,,,,,,,,,,,,,,,,,,392.1118,393.3598,a,1,[],[],[],[],[],[],[],0.5729,1,393.3599,393.8598,,,,,,430,MAS,AGR,150,título,el,l,0.5729,,393.8598,393.86,0.10092594,-0.24537037,0,0,0,,0,118,118,429,1,,,,
,,,,,,720233dff5c0f02d813456bd,66a626ef09d4e21e1a8894ec,6735cdbe90b5af34a86e70fc,2024-11-14_02h16.01.601,Tarea de género gramatical,2024.2.2,Win32,60.24096386,,,,,,,,,,,,,,,,,,,,,,,393.8611,395.0268,a,1,[],[],[],[],[],[],[],0.4866,1,395.0268,395.5264,,,,,,40,MAS,AGR,150,dios,el,l,0.4866,,395.5273,395.5284,0.10092594,-0.24537037,0,0,0,,0,119,119,39,1,,,,
,,,,,,720233dff5c0f02d813456bd,66a626ef09d4e21e1a8894ec,6735cdbe90b5af34a86e70fc,2024-11-14_02h16.01.601,Tarea de género gramatical,2024.2.2,Win32,60.24096386,,,,,,,,,,,,,,,,,,,,,,,395.5291,396.7937,a,1,[],[],[],[],[],[],[],0.5841,1,396.7939,397.2937,,,,,,90,MAS,DIS,150,león,la,l,0.5841,,397.2937,397.2938,0.10092594,-0.24537037,0,0,0,,0,120,120,89,1,,,,
,,,,,,720233dff5c0f02d813456bd,66a626ef09d4e21e1a8894ec,6735cdbe90b5af34a86e70fc,2024-11-14_02h16.01.601,Tarea de género gramatical,2024.2.2,Win32,60.24096386,,,,,,,,,,,,,,,,,,,,,,,397.2949,398.4599,l,1,[],[],[],[],[],[],[],0.4857,1,398.4599,398.9603,,,,,,20,FEM,CON,150,ropa,,a,0.4857,,398.9604,398.9604,0.10092594,-0.24537037,0,0,0,,0,121,121,19,1,,,,
,,,,,,720233dff5c0f02d813456bd,66a626ef09d4e21e1a8894ec,6735cdbe90b5af34a86e70fc,2024-11-14_02h16.01.601,Tarea de género gramatical,2024.2.2,Win32,60.24096386,,,,,,,,,,,,,,,,,,,,,,,398.9614,400.3766,l,1,[],[],[],[],[],[],[],0.7325,1,400.3767,400.8764,,,,,,337,FEM,AGR,150,escena,la,a,0.7325,,400.8765,400.8765,0.10092594,-0.24537037,0,0,0,,0,122,122,336,1,,,,
,,,,,,720233dff5c0f02d813456bd,66a626ef09d4e21e1a8894ec,6735cdbe90b5af34a86e70fc,2024-11-14_02h16.01.601,Tarea de género gramatical,2024.2.2,Win32,60.24096386,,,,,,,,,,,,,,,,,,,,,,,400.8776,402.3098,a,1,[],[],[],[],[],[],[],0.7512,1,402.31,402.8102,,,,,,377,MAS,CON,150,jardín,,l,0.7512,,402.8113,402.812,0.10092594,-0.24537037,0,0,0,,0,123,123,376,1,,,,
,,,,,,720233dff5c0f02d813456bd,66a626ef09d4e21e1a8894ec,6735cdbe90b5af34a86e70fc,2024-11-14_02h16.01.601,Tarea de género gramatical,2024.2.2,Win32,60.24096386,,,,,,,,,,,,,,,,,,,,,,,402.8129,404.1934,l,1,[],[],[],[],[],[],[],0.7053,1,404.1936,404.6934,,,,,,248,FEM,CON,150,letra,,a,0.7053,,404.6935,404.6937,0.10092594,-0.24537037,0,0,0,,0,124,124,247,1,,,,
,,,,,,720233dff5c0f02d813456bd,66a626ef09d4e21e1a8894ec,6735cdbe90b5af34a86e70fc,2024-11-14_02h16.01.601,Tarea de género gramatical,2024.2.2,Win32,60.24096386,,,,,,,,,,,,,,,,,,,,,,,404.6946,405.8607,a,1,[],[],[],[],[],[],[],0.4944,1,405.8608,406.3599,,,,,,287,MAS,CON,150,plato,,l,0.4944,,406.36,406.3601,0.10092594,-0.24537037,0,0,0,,0,125,125,286,1,,,,
,,,,,,720233dff5c0f02d813456bd,66a626ef09d4e21e1a8894ec,6735cdbe90b5af34a86e70fc,2024-11-14_02h16.01.601,Tarea de género gramatical,2024.2.2,Win32,60.24096386,,,,,,,,,,,,,,,,,,,,,,,406.3613,408.0265,a,1,[],[],[],[],[],[],[],0.9957,1,408.0266,408.5268,,,,,,42,MAS,DIS,150,show,la,l,0.9957,,408.5269,408.527,0.10092594,-0.24537037,0,0,0,,0,126,126,41,1,,,,
,,,,,,720233dff5c0f02d813456bd,66a626ef09d4e21e1a8894ec,6735cdbe90b5af34a86e70fc,2024-11-14_02h16.01.601,Tarea de género gramatical,2024.2.2,Win32,60.24096386,,,,,,,,,,,,,,,,,,,,,,,408.5283,409.9098,l,1,[],[],[],[],[],[],[],0.7076,1,409.9099,410.4099,,,,,,147,FEM,DIS,150,grúa,el,a,0.7076,,410.41,410.4101,0.10092594,-0.24537037,0,0,0,,0,127,127,146,1,,,,
,,,,,,720233dff5c0f02d813456bd,66a626ef09d4e21e1a8894ec,6735cdbe90b5af34a86e70fc,2024-11-14_02h16.01.601,Tarea de género gramatical,2024.2.2,Win32,60.24096386,,,,,,,,,,,,,,,,,,,,,,,410.4111,411.9771,a,1,[],[],[],[],[],[],[],0.8827,1,411.9772,412.4766,,,,,,89,MAS,CON,150,maíz,,l,0.8827,,412.4776,412.4781,0.10092594,-0.24537037,0,0,0,,0,128,128,88,1,,,,
,,,,,,720233dff5c0f02d813456bd,66a626ef09d4e21e1a8894ec,6735cdbe90b5af34a86e70fc,2024-11-14_02h16.01.601,Tarea de género gramatical,2024.2.2,Win32,60.24096386,,,,,,,,,,,,,,,,,,,,,,,412.4792,414.2101,a,1,[],[],[],[],[],[],[],1.0489,1,414.2102,414.7103,,,,,,114,MAS,DIS,150,menú,la,l,1.0489,,414.7103,414.7104,0.10092594,-0.24537037,0,0,0,,0,129,129,113,1,,,,
,,,,,,720233dff5c0f02d813456bd,66a626ef09d4e21e1a8894ec,6735cdbe90b5af34a86e70fc,2024-11-14_02h16.01.601,Tarea de género gramatical,2024.2.2,Win32,60.24096386,,,,,,,,,,,,,,,,,,,,,,,414.7115,415.9938,a,0,[],[],[],[],[],[],[],0.601,0,415.9948,416.4933,,,,,,433,FEM,AGR,150,huella,la,a,0.601,,416.4933,416.4934,0.10092594,-0.24537037,0,0,0,,0,130,130,432,1,,,,
,,,,,,720233dff5c0f02d813456bd,66a626ef09d4e21e1a8894ec,6735cdbe90b5af34a86e70fc,2024-11-14_02h16.01.601,Tarea de género gramatical,2024.2.2,Win32,60.24096386,,,,,,,,,,,,,,,,,,,,,,,416.4943,418.3935,a,1,[],[],[],[],[],[],[],1.2162,1,418.3943,418.8935,,,,,,228,MAS,DIS,150,nivel,la,l,1.2162,,418.8935,418.8937,0.10092594,-0.24537037,0,0,0,,0,131,131,227,1,,,,
,,,,,,720233dff5c0f02d813456bd,66a626ef09d4e21e1a8894ec,6735cdbe90b5af34a86e70fc,2024-11-14_02h16.01.601,Tarea de género gramatical,2024.2.2,Win32,60.24096386,,,,,,,,,,,,,,,,,,,,,,,418.8949,420.1604,l,1,[],[],[],[],[],[],[],0.5898,1,420.1605,420.6602,,,,,,1,FEM,AGR,150,casa,la,a,0.5898,,420.6612,420.6622,0.10092594,-0.24537037,0,0,0,,0,132,132,0,1,,,,
,,,,,,720233dff5c0f02d813456bd,66a626ef09d4e21e1a8894ec,6735cdbe90b5af34a86e70fc,2024-11-14_02h16.01.601,Tarea de género gramatical,2024.2.2,Win32,60.24096386,,,,,,,,,,,,,,,,,,,,,,,420.6631,422.0102,a,1,[],[],[],[],[],[],[],0.6705,1,422.0103,422.5105,,,,,,220,MAS,AGR,150,huevo,el,l,0.6705,,422.5106,422.5106,0.10092594,-0.24537037,0,0,0,,0,133,133,219,1,,,,
,,,,,,720233dff5c0f02d813456bd,66a626ef09d4e21e1a8894ec,6735cdbe90b5af34a86e70fc,2024-11-14_02h16.01.601,Tarea de género gramatical,2024.2.2,Win32,60.24096386,,,,,,,,,,,,,,,,,,,,,,,422.5119,423.7934,l,1,[],[],[],[],[],[],[],0.6105,1,423.7935,424.2935,,,,,,261,FEM,DIS,150,cueva,el,a,0.6105,,424.2935,424.2936,0.10092594,-0.24537037,0,0,0,,0,134,134,260,1,,,,
,,,,,,720233dff5c0f02d813456bd,66a626ef09d4e21e1a8894ec,6735cdbe90b5af34a86e70fc,2024-11-14_02h16.01.601,Tarea de género gramatical,2024.2.2,Win32,60.24096386,,,,,,,,,,,,,,,,,,,,,,,424.2946,425.5939,l,1,[],[],[],[],[],[],[],0.6169,1,425.594,426.094,,,,,,241,FEM,AGR,150,pasta,la,a,0.6169,,426.094,426.0942,0.10092594,-0.24537037,0,0,0,,0,135,135,240,1,,,,
,,,,,,720233dff5c0f02d813456bd,66a626ef09d4e21e1a8894ec,6735cdbe90b5af34a86e70fc,2024-11-14_02h16.01.601,Tarea de género gramatical,2024.2.2,Win32,60.24096386,,,,,,,,,,,,,,,,,,,,,,,426.0951,427.6104,a,1,[],[],[],[],[],[],[],0.8364,1,427.6105,428.1106,,,,,,125,MAS,CON,150,bate,,l,0.8364,,428.1106,428.1107,0.10092594,-0.24537037,0,0,0,,0,136,136,124,1,,,,
,,,,,,720233dff5c0f02d813456bd,66a626ef09d4e21e1a8894ec,6735cdbe90b5af34a86e70fc,2024-11-14_02h16.01.601,Tarea de género gramatical,2024.2.2,Win32,60.24096386,,,,,,,,,,,,,,,,,,,,,,,428.1116,429.8274,l,1,[],[],[],[],[],[],[],1.0434,1,429.8274,430.3274,,,,,,123,FEM,DIS,150,tela,el,a,1.0434,,430.3282,430.3291,0.10092594,-0.24537037,0,0,0,,0,137,137,122,1,,,,
,,,,,,720233dff5c0f02d813456bd,66a626ef09d4e21e1a8894ec,6735cdbe90b5af34a86e70fc,2024-11-14_02h16.01.601,Tarea de género gramatical,2024.2.2,Win32,60.24096386,,,,,,,,,,,,,,,,,,,,,,,430.33,431.5105,a,1,[],[],[],[],[],[],[],0.509,1,431.5106,432.0106,,,,,,358,MAS,AGR,150,motivo,el,l,0.509,,432.0106,432.0107,0.10092594,-0.24537037,0,0,0,,0,138,138,357,1,,,,
,,,,,,720233dff5c0f02d813456bd,66a626ef09d4e21e1a8894ec,6735cdbe90b5af34a86e70fc,2024-11-14_02h16.01.601,Tarea de género gramatical,2024.2.2,Win32,60.24096386,,,,,,,,,,,,,,,,,,,,,,,432.0117,433.2101,a,1,[],[],[],[],[],[],[],0.5275,1,433.2103,433.7103,,,,,,258,MAS,DIS,150,polvo,la,l,0.5275,,433.7103,433.7104,0.10092594,-0.24537037,0,0,0,,0,139,139,257,1,,,,
,,,,,,720233dff5c0f02d813456bd,66a626ef09d4e21e1a8894ec,6735cdbe90b5af34a86e70fc,2024-11-14_02h16.01.601,Tarea de género gramatical,2024.2.2,Win32,60.24096386,,,,,,,,,,,,,,,,,,,,,,,433.7111,435.1102,l,1,[],[],[],[],[],[],[],0.724,1,435.1104,435.6104,,,,,,188,FEM,CON,150,bomba,,a,0.724,,435.6104,435.6106,0.10092594,-0.24537037,0,0,0,,0,140,140,187,1,,,,
,,,,,,720233dff5c0f02d813456bd,66a626ef09d4e21e1a8894ec,6735cdbe90b5af34a86e70fc,2024-11-14_02h16.01.601,Tarea de género gramatical,2024.2.2,Win32,60.24096386,,,,,,,,,,,,,,,,,,,,,,,435.6116,437.0938,a,1,[],[],[],[],[],[],[],0.8095,1,437.0938,437.594,,,,,,186,MAS,DIS,150,error,la,l,0.8095,,437.595,437.5959,0.10092594,-0.24537037,0,0,0,,0,141,141,185,1,,,,
,,,,,,720233dff5c0f02d813456bd,66a626ef09d4e21e1a8894ec,6735cdbe90b5af34a86e70fc,2024-11-14_02h16.01.601,Tarea de género gramatical,2024.2.2,Win32,60.24096386,,,,,,,,,,,,,,,,,,,,,,,437.5967,439.011,l,1,[],[],[],[],[],[],[],0.7337,1,439.011,439.5111,,,,,,237,FEM,DIS,150,ducha,el,a,0.7337,,439.5111,439.5112,0.10092594,-0.24537037,0,0,0,,0,142,142,236,1,,,,
,,,,,,720233dff5c0f02d813456bd,66a626ef09d4e21e1a8894ec,6735cdbe90b5af34a86e70fc,2024-11-14_02h16.01.601,Tarea de género gramatical,2024.2.2,Win32,60.24096386,,,,,,,,,,,,,,,,,,,,,,,439.5124,440.6603,a,0,[],[],[],[],[],[],[],0.461,0,440.6613,441.1608,,,,,,99,FEM,DIS,150,fase,el,a,0.461,,441.1608,441.1609,0.10092594,-0.24537037,0,0,0,,0,143,143,98,1,,,,
,,,,,,720233dff5c0f02d813456bd,66a626ef09d4e21e1a8894ec,6735cdbe90b5af34a86e70fc,2024-11-14_02h16.01.601,Tarea de género gramatical,2024.2.2,Win32,60.24096386,,,,,,,,,,,,,,,,,,,,,,,441.1616,442.4775,l,1,[],[],[],[],[],[],[],0.6342,1,442.4783,442.9774,,,,,,429,FEM,DIS,150,fianza,el,a,0.6342,,442.9774,442.9776,0.10092594,-0.24537037,0,0,0,,0,144,144,428,1,,,,
,,,,,,720233dff5c0f02d813456bd,66a626ef09d4e21e1a8894ec,6735cdbe90b5af34a86e70fc,2024-11-14_02h16.01.601,Tarea de género gramatical,2024.2.2,Win32,60.24096386,,,,,,,,,,,,,,,,,,,,,,,442.9787,444.1437,a,1,[],[],[],[],[],[],[],0.4902,1,444.1438,444.6437,,,,,,161,MAS,CON,150,chico,,l,0.4902,,444.6438,444.6438,0.10092594,-0.24537037,0,0,0,,0,145,145,160,1,,,,
,,,,,,720233dff5c0f02d813456bd,66a626ef09d4e21e1a8894ec,6735cdbe90b5af34a86e70fc,2024-11-14_02h16.01.601,Tarea de género gramatical,2024.2.2,Win32,60.24096386,,,,,,,,,,,,,,,,,,,,,,,444.6447,445.927,l,1,[],[],[],[],[],[],[],0.5995,1,445.9271,446.4273,,,,,,254,FEM,CON,150,caída,,a,0.5995,,446.4281,446.4288,0.10092594,-0.24537037,0,0,0,,0,146,146,253,1,,,,
,,,,,,720233dff5c0f02d813456bd,66a626ef09d4e21e1a8894ec,6735cdbe90b5af34a86e70fc,2024-11-14_02h16.01.601,Tarea de género gramatical,2024.2.2,Win32,60.24096386,,,,,,,,,,,,,,,,,,,,,,,446.4296,447.6103,l,1,[],[],[],[],[],[],[],0.503,1,447.6104,448.1108,,,,,,369,FEM,DIS,150,camisa,el,a,0.503,,448.1109,448.1109,0.10092594,-0.24537037,0,0,0,,0,147,147,368,1,,,,
,,,,,,720233dff5c0f02d813456bd,66a626ef09d4e21e1a8894ec,6735cdbe90b5af34a86e70fc,2024-11-14_02h16.01.601,Tarea de género gramatical,2024.2.2,Win32,60.24096386,,,,,,,,,,,,,,,,,,,,,,,448.1118,449.2437,a,1,[],[],[],[],[],[],[],0.46,1,449.2437,449.7437,,,,,,251,MAS,CON,150,dueño,,l,0.46,,449.7437,449.7438,0.10092594,-0.24537037,0,0,0,,0,148,148,250,1,,,,
,,,,,,720233dff5c0f02d813456bd,66a626ef09d4e21e1a8894ec,6735cdbe90b5af34a86e70fc,2024-11-14_02h16.01.601,Tarea de género gramatical,2024.2.2,Win32,60.24096386,,,,,,,,,,,,,,,,,,,,,,,449.7448,450.9942,l,1,[],[],[],[],[],[],[],0.5714,1,450.9942,451.494,,,,,,56,FEM,CON,150,bola,,a,0.5714,,451.494,451.4942,0.10092594,-0.24537037,0,0,0,,0,149,149,55,1,,,,
,,,,,,720233dff5c0f02d813456bd,66a626ef09d4e21e1a8894ec,6735cdbe90b5af34a86e70fc,2024-11-14_02h16.01.601,Tarea de género gramatical,2024.2.2,Win32,60.24096386,,,,,,,,,,,,,,,,,,,,,,,451.495,452.6772,l,1,[],[],[],[],[],[],[],0.5002,1,452.6772,453.1776,,,,,,291,FEM,DIS,150,aguja,el,a,0.5002,,453.179,463.7774,0.10092594,-0.24537037,0,0,0,space,0,150,150,290,1,10.5797,,,
,,,,,,720233dff5c0f02d813456bd,66a626ef09d4e21e1a8894ec,6735cdbe90b5af34a86e70fc,2024-11-14_02h16.01.601,Tarea de género gramatical,2024.2.2,Win32,60.24096386,,,,,,,,,,,,,,,,,,,,,,,463.7786,466.4273,,0,[],[],[],[],[],[],[],0.5002,-1,466.428,466.9277,,,,,,292,MAS,AGR,150,piano,el,l,,,466.9278,466.928,0.10092594,-0.24537037,0,0,0,,0,151,151,291,1,,,,
,,,,,,720233dff5c0f02d813456bd,66a626ef09d4e21e1a8894ec,6735cdbe90b5af34a86e70fc,2024-11-14_02h16.01.601,Tarea de género gramatical,2024.2.2,Win32,60.24096386,,,,,,,,,,,,,,,,,,,,,,,466.929,468.7939,l,0,[],[],[],[],[],[],[],1.1953,0,468.7945,469.2944,,,,,,108,MAS,DIS,150,hilo,la,l,1.1953,,469.2944,469.2945,0.10092594,-0.24537037,0,0,0,,0,152,152,107,1,,,,
,,,,,,720233dff5c0f02d813456bd,66a626ef09d4e21e1a8894ec,6735cdbe90b5af34a86e70fc,2024-11-14_02h16.01.601,Tarea de género gramatical,2024.2.2,Win32,60.24096386,,,,,,,,,,,,,,,,,,,,,,,469.2958,470.5773,a,1,[],[],[],[],[],[],[],0.601,1,470.5779,471.0777,,,,,,299,MAS,CON,150,rumbo,,l,0.601,,471.0778,471.0778,0.10092594,-0.24537037,0,0,0,,0,153,153,298,1,,,,
,,,,,,720233dff5c0f02d813456bd,66a626ef09d4e21e1a8894ec,6735cdbe90b5af34a86e70fc,2024-11-14_02h16.01.601,Tarea de género gramatical,2024.2.2,Win32,60.24096386,,,,,,,,,,,,,,,,,,,,,,,471.0787,472.4278,l,1,[],[],[],[],[],[],[],0.6689,1,472.4278,472.9278,,,,,,285,FEM,DIS,150,mafia,el,a,0.6689,,472.9278,472.9279,0.10092594,-0.24537037,0,0,0,,0,154,154,284,1,,,,
,,,,,,720233dff5c0f02d813456bd,66a626ef09d4e21e1a8894ec,6735cdbe90b5af34a86e70fc,2024-11-14_02h16.01.601,Tarea de género gramatical,2024.2.2,Win32,60.24096386,,,,,,,,,,,,,,,,,,,,,,,472.9288,474.1773,a,1,[],[],[],[],[],[],[],0.5717,1,474.1774,474.678,,,,,,174,MAS,DIS,150,perro,la,l,0.5717,,474.6791,474.6799,0.10092594,-0.24537037,0,0,0,,0,155,155,173,1,,,,
,,,,,,720233dff5c0f02d813456bd,66a626ef09d4e21e1a8894ec,6735cdbe90b5af34a86e70fc,2024-11-14_02h16.01.601,Tarea de género gramatical,2024.2.2,Win32,60.24096386,,,,,,,,,,,,,,,,,,,,,,,474.6809,475.8776,l,1,[],[],[],[],[],[],[],0.5259,1,475.8776,476.3776,,,,,,374,FEM,CON,150,herida,,a,0.5259,,476.3777,476.3777,0.10092594,-0.24537037,0,0,0,,0,156,156,373,1,,,,
,,,,,,720233dff5c0f02d813456bd,66a626ef09d4e21e1a8894ec,6735cdbe90b5af34a86e70fc,2024-11-14_02h16.01.601,Tarea de género gramatical,2024.2.2,Win32,60.24096386,,,,,,,,,,,,,,,,,,,,,,,476.3788,477.4445,l,1,[],[],[],[],[],[],[],0.3855,1,477.4447,477.9444,,,,,,243,FEM,DIS,150,salsa,el,a,0.3855,,477.9444,477.9446,0.10092594,-0.24537037,0,0,0,,0,157,157,242,1,,,,
,,,,,,720233dff5c0f02d813456bd,66a626ef09d4e21e1a8894ec,6735cdbe90b5af34a86e70fc,2024-11-14_02h16.01.601,Tarea de género gramatical,2024.2.2,Win32,60.24096386,,,,,,,,,,,,,,,,,,,,,,,477.9457,479.0442,a,1,[],[],[],[],[],[],[],0.4187,1,479.0442,479.5442,,,,,,257,MAS,CON,150,pecho,,l,0.4187,,479.5442,479.5442,0.10092594,-0.24537037,0,0,0,,0,158,158,256,1,,,,
,,,,,,720233dff5c0f02d813456bd,66a626ef09d4e21e1a8894ec,6735cdbe90b5af34a86e70fc,2024-11-14_02h16.01.601,Tarea de género gramatical,2024.2.2,Win32,60.24096386,,,,,,,,,,,,,,,,,,,,,,,479.5454,480.7779,a,1,[],[],[],[],[],[],[],0.5548,1,480.7781,481.2777,,,,,,196,MAS,AGR,150,barco,el,l,0.5548,,481.2789,481.2795,0.10092594,-0.24537037,0,0,0,,0,159,159,195,1,,,,
,,,,,,720233dff5c0f02d813456bd,66a626ef09d4e21e1a8894ec,6735cdbe90b5af34a86e70fc,2024-11-14_02h16.01.601,Tarea de género gramatical,2024.2.2,Win32,60.24096386,,,,,,,,,,,,,,,,,,,,,,,481.2803,482.3775,l,1,[],[],[],[],[],[],[],0.4227,1,482.3776,482.8778,,,,,,110,FEM,CON,150,rosa,,a,0.4227,,482.8778,482.8779,0.10092594,-0.24537037,0,0,0,,0,160,160,109,1,,,,
,,,,,,720233dff5c0f02d813456bd,66a626ef09d4e21e1a8894ec,6735cdbe90b5af34a86e70fc,2024-11-14_02h16.01.601,Tarea de género gramatical,2024.2.2,Win32,60.24096386,,,,,,,,,,,,,,,,,,,,,,,482.879,484.3274,a,1,[],[],[],[],[],[],[],0.7677,1,484.3275,484.8273,,,,,,448,MAS,AGR,150,aceite,el,l,0.7677,,484.8273,484.8274,0.10092594,-0.24537037,0,0,0,,0,161,161,447,1,,,,
,,,,,,720233dff5c0f02d813456bd,66a626ef09d4e21e1a8894ec,6735cdbe90b5af34a86e70fc,2024-11-14_02h16.01.601,Tarea de género gramatical,2024.2.2,Win32,60.24096386,,,,,,,,,,,,,,,,,,,,,,,484.8282,485.9441,a,1,[],[],[],[],[],[],[],0.439,1,485.9441,486.4446,,,,,,132,MAS,DIS,150,velo,la,l,0.439,,486.4446,486.4448,0.10092594,-0.24537037,0,0,0,,0,162,162,131,1,,,,
,,,,,,720233dff5c0f02d813456bd,66a626ef09d4e21e1a8894ec,6735cdbe90b5af34a86e70fc,2024-11-14_02h16.01.601,Tarea de género gramatical,2024.2.2,Win32,60.24096386,,,,,,,,,,,,,,,,,,,,,,,486.4459,487.6108,l,1,[],[],[],[],[],[],[],0.4953,1,487.6108,488.1111,,,,,,283,FEM,AGR,150,pluma,la,a,0.4953,,488.1112,488.1112,0.10092594,-0.24537037,0,0,0,,0,163,163,282,1,,,,
,,,,,,720233dff5c0f02d813456bd,66a626ef09d4e21e1a8894ec,6735cdbe90b5af34a86e70fc,2024-11-14_02h16.01.601,Tarea de género gramatical,2024.2.2,Win32,60.24096386,,,,,,,,,,,,,,,,,,,,,,,488.1119,489.2441,l,1,[],[],[],[],[],[],[],0.451,1,489.2443,489.7443,,,,,,50,FEM,CON,150,dama,,a,0.451,,489.7453,489.7463,0.10092594,-0.24537037,0,0,0,,0,164,164,49,1,,,,
,,,,,,720233dff5c0f02d813456bd,66a626ef09d4e21e1a8894ec,6735cdbe90b5af34a86e70fc,2024-11-14_02h16.01.601,Tarea de género gramatical,2024.2.2,Win32,60.24096386,,,,,,,,,,,,,,,,,,,,,,,489.7469,490.8109,l,1,[],[],[],[],[],[],[],0.3859,1,490.811,491.3113,,,,,,2,FEM,CON,150,vida,,a,0.3859,,491.3113,491.3114,0.10092594,-0.24537037,0,0,0,,0,165,165,1,1,,,,
,,,,,,720233dff5c0f02d813456bd,66a626ef09d4e21e1a8894ec,6735cdbe90b5af34a86e70fc,2024-11-14_02h16.01.601,Tarea de género gramatical,2024.2.2,Win32,60.24096386,,,,,,,,,,,,,,,,,,,,,,,491.3127,492.3444,l,1,[],[],[],[],[],[],[],0.3548,1,492.3444,492.8445,,,,,,223,FEM,AGR,150,plata,la,a,0.3548,,492.8445,492.8446,0.10092594,-0.24537037,0,0,0,,0,166,166,222,1,,,,
,,,,,,720233dff5c0f02d813456bd,66a626ef09d4e21e1a8894ec,6735cdbe90b5af34a86e70fc,2024-11-14_02h16.01.601,Tarea de género gramatical,2024.2.2,Win32,60.24096386,,,,,,,,,,,,,,,,,,,,,,,492.8458,493.8945,a,1,[],[],[],[],[],[],[],0.374,1,493.8946,494.3945,,,,,,149,MAS,CON,150,nudo,,l,0.374,,494.3946,494.3947,0.10092594,-0.24537037,0,0,0,,0,167,167,148,1,,,,
,,,,,,720233dff5c0f02d813456bd,66a626ef09d4e21e1a8894ec,6735cdbe90b5af34a86e70fc,2024-11-14_02h16.01.601,Tarea de género gramatical,2024.2.2,Win32,60.24096386,,,,,,,,,,,,,,,,,,,,,,,494.3957,496.078,a,0,[],[],[],[],[],[],[],1.0087,0,496.0793,496.5776,,,,,,181,FEM,AGR,150,tarde,la,a,1.0087,,496.5787,496.5795,0.10092594,-0.24537037,0,0,0,,0,168,168,180,1,,,,
,,,,,,720233dff5c0f02d813456bd,66a626ef09d4e21e1a8894ec,6735cdbe90b5af34a86e70fc,2024-11-14_02h16.01.601,Tarea de género gramatical,2024.2.2,Win32,60.24096386,,,,,,,,,,,,,,,,,,,,,,,496.5803,497.7276,l,1,[],[],[],[],[],[],[],0.468,1,497.7284,498.2277,,,,,,373,FEM,AGR,150,lluvia,la,a,0.468,,498.2277,498.2278,0.10092594,-0.24537037,0,0,0,,0,169,169,372,1,,,,
,,,,,,720233dff5c0f02d813456bd,66a626ef09d4e21e1a8894ec,6735cdbe90b5af34a86e70fc,2024-11-14_02h16.01.601,Tarea de género gramatical,2024.2.2,Win32,60.24096386,,,,,,,,,,,,,,,,,,,,,,,498.229,499.3443,l,1,[],[],[],[],[],[],[],0.4386,1,499.3444,499.8444,,,,,,80,FEM,CON,150,vaca,,a,0.4386,,499.8445,499.8446,0.10092594,-0.24537037,0,0,0,,0,170,170,79,1,,,,
,,,,,,720233dff5c0f02d813456bd,66a626ef09d4e21e1a8894ec,6735cdbe90b5af34a86e70fc,2024-11-14_02h16.01.601,Tarea de género gramatical,2024.2.2,Win32,60.24096386,,,,,,,,,,,,,,,,,,,,,,,499.8458,501.3786,l,1,[],[],[],[],[],[],[],0.8543,1,501.3786,501.8782,,,,,,368,FEM,CON,150,gracia,,a,0.8543,,501.8782,501.8783,0.10092594,-0.24537037,0,0,0,,0,171,171,367,1,,,,
,,,,,,720233dff5c0f02d813456bd,66a626ef09d4e21e1a8894ec,6735cdbe90b5af34a86e70fc,2024-11-14_02h16.01.601,Tarea de género gramatical,2024.2.2,Win32,60.24096386,,,,,,,,,,,,,,,,,,,,,,,501.8794,503.1281,a,1,[],[],[],[],[],[],[],0.5736,1,503.1282,503.6281,,,,,,203,MAS,CON,150,novio,,l,0.5736,,503.6281,503.6282,0.10092594,-0.24537037,0,0,0,,0,172,172,202,1,,,,
,,,,,,720233dff5c0f02d813456bd,66a626ef09d4e21e1a8894ec,6735cdbe90b5af34a86e70fc,2024-11-14_02h16.01.601,Tarea de género gramatical,2024.2.2,Win32,60.24096386,,,,,,,,,,,,,,,,,,,,,,,503.6292,504.8783,l,1,[],[],[],[],[],[],[],0.5677,1,504.8784,505.378,,,,,,379,FEM,AGR,150,granja,la,a,0.5677,,505.379,505.3804,0.10092594,-0.24537037,0,0,0,,0,173,173,378,1,,,,
,,,,,,720233dff5c0f02d813456bd,66a626ef09d4e21e1a8894ec,6735cdbe90b5af34a86e70fc,2024-11-14_02h16.01.601,Tarea de género gramatical,2024.2.2,Win32,60.24096386,,,,,,,,,,,,,,,,,,,,,,,505.3812,506.6445,a,1,[],[],[],[],[],[],[],0.5931,1,506.6446,507.1447,,,,,,120,MAS,DIS,150,puño,la,l,0.5931,,507.1447,507.1448,0.10092594,-0.24537037,0,0,0,,0,174,174,119,1,,,,
,,,,,,720233dff5c0f02d813456bd,66a626ef09d4e21e1a8894ec,6735cdbe90b5af34a86e70fc,2024-11-14_02h16.01.601,Tarea de género gramatical,2024.2.2,Win32,60.24096386,,,,,,,,,,,,,,,,,,,,,,,507.1456,508.2286,l,1,[],[],[],[],[],[],[],0.402,1,508.2287,508.7285,,,,,,398,FEM,CON,150,hierba,,a,0.402,,508.7286,508.7286,0.10092594,-0.24537037,0,0,0,,0,175,175,397,1,,,,
,,,,,,720233dff5c0f02d813456bd,66a626ef09d4e21e1a8894ec,6735cdbe90b5af34a86e70fc,2024-11-14_02h16.01.601,Tarea de género gramatical,2024.2.2,Win32,60.24096386,,,,,,,,,,,,,,,,,,,,,,,508.7296,509.8948,l,1,[],[],[],[],[],[],[],0.4839,1,509.8949,510.3946,,,,,,253,FEM,AGR,150,aldea,la,a,0.4839,,510.3947,510.3948,0.10092594,-0.24537037,0,0,0,,0,176,176,252,1,,,,
,,,,,,720233dff5c0f02d813456bd,66a626ef09d4e21e1a8894ec,6735cdbe90b5af34a86e70fc,2024-11-14_02h16.01.601,Tarea de género gramatical,2024.2.2,Win32,60.24096386,,,,,,,,,,,,,,,,,,,,,,,510.3958,511.5779,l,1,[],[],[],[],[],[],[],0.5003,1,511.5781,512.0784,,,,,,219,FEM,DIS,150,costa,el,a,0.5003,,512.0796,512.0808,0.10092594,-0.24537037,0,0,0,,0,177,177,218,1,,,,
,,,,,,720233dff5c0f02d813456bd,66a626ef09d4e21e1a8894ec,6735cdbe90b5af34a86e70fc,2024-11-14_02h16.01.601,Tarea de género gramatical,2024.2.2,Win32,60.24096386,,,,,,,,,,,,,,,,,,,,,,,512.0814,513.1445,l,1,[],[],[],[],[],[],[],0.3841,1,513.1446,513.6448,,,,,,405,FEM,DIS,150,parada,el,a,0.3841,,513.6448,513.6449,0.10092594,-0.24537037,0,0,0,,0,178,178,404,1,,,,
,,,,,,720233dff5c0f02d813456bd,66a626ef09d4e21e1a8894ec,6735cdbe90b5af34a86e70fc,2024-11-14_02h16.01.601,Tarea de género gramatical,2024.2.2,Win32,60.24096386,,,,,,,,,,,,,,,,,,,,,,,513.646,514.7445,l,1,[],[],[],[],[],[],[],0.4175,1,514.7445,515.2449,,,,,,295,FEM,AGR,150,grasa,la,a,0.4175,,515.245,515.245,0.10092594,-0.24537037,0,0,0,,0,179,179,294,1,,,,
,,,,,,720233dff5c0f02d813456bd,66a626ef09d4e21e1a8894ec,6735cdbe90b5af34a86e70fc,2024-11-14_02h16.01.601,Tarea de género gramatical,2024.2.2,Win32,60.24096386,,,,,,,,,,,,,,,,,,,,,,,515.2461,516.2784,l,1,[],[],[],[],[],[],[],0.3497,1,516.2786,516.7782,,,,,,356,FEM,CON,150,piedra,,a,0.3497,,516.7783,516.7784,0.10092594,-0.24537037,0,0,0,,0,180,180,355,1,,,,
,,,,,,720233dff5c0f02d813456bd,66a626ef09d4e21e1a8894ec,6735cdbe90b5af34a86e70fc,2024-11-14_02h16.01.601,Tarea de género gramatical,2024.2.2,Win32,60.24096386,,,,,,,,,,,,,,,,,,,,,,,516.7794,517.9283,l,1,[],[],[],[],[],[],[],0.4673,1,517.9284,518.4279,,,,,,242,FEM,CON,150,pizza,,a,0.4673,,518.4279,518.428,0.10092594,-0.24537037,0,0,0,,0,181,181,241,1,,,,
,,,,,,720233dff5c0f02d813456bd,66a626ef09d4e21e1a8894ec,6735cdbe90b5af34a86e70fc,2024-11-14_02h16.01.601,Tarea de género gramatical,2024.2.2,Win32,60.24096386,,,,,,,,,,,,,,,,,,,,,,,518.429,519.8447,l,1,[],[],[],[],[],[],[],0.7354,1,519.8448,520.3449,,,,,,441,FEM,DIS,150,medida,el,a,0.7354,,520.3459,520.3473,0.10092594,-0.24537037,0,0,0,,0,182,182,440,1,,,,
,,,,,,720233dff5c0f02d813456bd,66a626ef09d4e21e1a8894ec,6735cdbe90b5af34a86e70fc,2024-11-14_02h16.01.601,Tarea de género gramatical,2024.2.2,Win32,60.24096386,,,,,,,,,,,,,,,,,,,,,,,520.348,521.4952,a,1,[],[],[],[],[],[],[],0.4736,1,521.4953,521.9949,,,,,,54,MAS,DIS,150,humo,la,l,0.4736,,521.995,521.9951,0.10092594,-0.24537037,0,0,0,,0,183,183,53,1,,,,
,,,,,,720233dff5c0f02d813456bd,66a626ef09d4e21e1a8894ec,6735cdbe90b5af34a86e70fc,2024-11-14_02h16.01.601,Tarea de género gramatical,2024.2.2,Win32,60.24096386,,,,,,,,,,,,,,,,,,,,,,,521.9962,523.0619,l,1,[],[],[],[],[],[],[],0.3851,1,523.0621,523.5617,,,,,,277,FEM,AGR,150,plaza,la,a,0.3851,,523.5617,523.5618,0.10092594,-0.24537037,0,0,0,,0,184,184,276,1,,,,
,,,,,,720233dff5c0f02d813456bd,66a626ef09d4e21e1a8894ec,6735cdbe90b5af34a86e70fc,2024-11-14_02h16.01.601,Tarea de género gramatical,2024.2.2,Win32,60.24096386,,,,,,,,,,,,,,,,,,,,,,,523.563,524.778,a,1,[],[],[],[],[],[],[],0.5452,1,524.7782,525.2781,,,,,,204,MAS,DIS,150,papel,la,l,0.5452,,525.2781,525.2782,0.10092594,-0.24537037,0,0,0,,0,185,185,203,1,,,,
,,,,,,720233dff5c0f02d813456bd,66a626ef09d4e21e1a8894ec,6735cdbe90b5af34a86e70fc,2024-11-14_02h16.01.601,Tarea de género gramatical,2024.2.2,Win32,60.24096386,,,,,,,,,,,,,,,,,,,,,,,525.2793,526.4785,a,1,[],[],[],[],[],[],[],0.5243,1,526.4787,526.9786,,,,,,311,MAS,CON,150,camino,,l,0.5243,,526.9799,526.9811,0.10092594,-0.24537037,0,0,0,,0,186,186,310,1,,,,
,,,,,,720233dff5c0f02d813456bd,66a626ef09d4e21e1a8894ec,6735cdbe90b5af34a86e70fc,2024-11-14_02h16.01.601,Tarea de género gramatical,2024.2.2,Win32,60.24096386,,,,,,,,,,,,,,,,,,,,,,,526.9816,528.3448,l,1,[],[],[],[],[],[],[],0.6839,1,528.3449,528.845,,,,,,332,FEM,CON,150,basura,,a,0.6839,,528.8451,528.8452,0.10092594,-0.24537037,0,0,0,,0,187,187,331,1,,,,
,,,,,,720233dff5c0f02d813456bd,66a626ef09d4e21e1a8894ec,6735cdbe90b5af34a86e70fc,2024-11-14_02h16.01.601,Tarea de género gramatical,2024.2.2,Win32,60.24096386,,,,,,,,,,,,,,,,,,,,,,,528.8463,530.0784,l,1,[],[],[],[],[],[],[],0.5583,1,530.0786,530.5782,,,,,,249,FEM,DIS,150,crema,el,a,0.5583,,530.5783,530.5783,0.10092594,-0.24537037,0,0,0,,0,188,188,248,1,,,,
,,,,,,720233dff5c0f02d813456bd,66a626ef09d4e21e1a8894ec,6735cdbe90b5af34a86e70fc,2024-11-14_02h16.01.601,Tarea de género gramatical,2024.2.2,Win32,60.24096386,,,,,,,,,,,,,,,,,,,,,,,530.5791,531.6447,l,1,[],[],[],[],[],[],[],0.3928,1,531.6448,532.1451,,,,,,55,FEM,AGR,150,taza,la,a,0.3928,,532.1451,532.1452,0.10092594,-0.24537037,0,0,0,,0,189,189,54,1,,,,
,,,,,,720233dff5c0f02d813456bd,66a626ef09d4e21e1a8894ec,6735cdbe90b5af34a86e70fc,2024-11-14_02h16.01.601,Tarea de género gramatical,2024.2.2,Win32,60.24096386,,,,,,,,,,,,,,,,,,,,,,,532.1464,533.2285,l,1,[],[],[],[],[],[],[],0.41,1,533.2286,533.7282,,,,,,7,FEM,AGR,150,hora,la,a,0.41,,533.7283,533.7283,0.10092594,-0.24537037,0,0,0,,0,190,190,6,1,,,,
,,,,,,720233dff5c0f02d813456bd,66a626ef09d4e21e1a8894ec,6735cdbe90b5af34a86e70fc,2024-11-14_02h16.01.601,Tarea de género gramatical,2024.2.2,Win32,60.24096386,,,,,,,,,,,,,,,,,,,,,,,533.7291,535.1449,a,1,[],[],[],[],[],[],[],0.7348,1,535.145,535.6448,,,,,,324,MAS,DIS,150,cuarto,la,l,0.7348,,535.646,535.6471,0.10092594,-0.24537037,0,0,0,,0,191,191,323,1,,,,
,,,,,,720233dff5c0f02d813456bd,66a626ef09d4e21e1a8894ec,6735cdbe90b5af34a86e70fc,2024-11-14_02h16.01.601,Tarea de género gramatical,2024.2.2,Win32,60.24096386,,,,,,,,,,,,,,,,,,,,,,,535.6478,536.9619,l,1,[],[],[],[],[],[],[],0.6466,1,536.9619,537.4618,,,,,,265,FEM,AGR,150,rueda,la,a,0.6466,,537.4619,537.462,0.10092594,-0.24537037,0,0,0,,0,192,192,264,1,,,,
,,,,,,720233dff5c0f02d813456bd,66a626ef09d4e21e1a8894ec,6735cdbe90b5af34a86e70fc,2024-11-14_02h16.01.601,Tarea de género gramatical,2024.2.2,Win32,60.24096386,,,,,,,,,,,,,,,,,,,,,,,537.4628,538.5948,a,1,[],[],[],[],[],[],[],0.461,1,538.5948,539.0952,,,,,,250,MAS,AGR,150,cerdo,el,l,0.461,,539.0953,539.0953,0.10092594,-0.24537037,0,0,0,,0,193,193,249,1,,,,
,,,,,,720233dff5c0f02d813456bd,66a626ef09d4e21e1a8894ec,6735cdbe90b5af34a86e70fc,2024-11-14_02h16.01.601,Tarea de género gramatical,2024.2.2,Win32,60.24096386,,,,,,,,,,,,,,,,,,,,,,,539.0961,540.1948,l,1,[],[],[],[],[],[],[],0.4284,1,540.1949,540.6951,,,,,,309,FEM,DIS,150,esposa,el,a,0.4284,,540.6952,540.6953,0.10092594,-0.24537037,0,0,0,,0,194,194,308,1,,,,
,,,,,,720233dff5c0f02d813456bd,66a626ef09d4e21e1a8894ec,6735cdbe90b5af34a86e70fc,2024-11-14_02h16.01.601,Tarea de género gramatical,2024.2.2,Win32,60.24096386,,,,,,,,,,,,,,,,,,,,,,,540.6965,541.6453,l,0,[],[],[],[],[],[],[],0.2753,0,541.6464,542.145,,,,,,184,MAS,AGR,150,cielo,el,l,0.2753,,542.1464,542.1476,0.10092594,-0.24537037,0,0,0,,0,195,195,183,1,,,,
,,,,,,720233dff5c0f02d813456bd,66a626ef09d4e21e1a8894ec,6735cdbe90b5af34a86e70fc,2024-11-14_02h16.01.601,Tarea de género gramatical,2024.2.2,Win32,60.24096386,,,,,,,,,,,,,,,,,,,,,,,542.1484,543.1948,l,1,[],[],[],[],[],[],[],0.3778,1,543.1953,543.6958,,,,,,301,FEM,AGR,150,verdad,la,a,0.3778,,543.6959,543.696,0.10092594,-0.24537037,0,0,0,,0,196,196,300,1,,,,
,,,,,,720233dff5c0f02d813456bd,66a626ef09d4e21e1a8894ec,6735cdbe90b5af34a86e70fc,2024-11-14_02h16.01.601,Tarea de género gramatical,2024.2.2,Win32,60.24096386,,,,,,,,,,,,,,,,,,,,,,,543.697,544.8788,l,1,[],[],[],[],[],[],[],0.5019,1,544.879,545.3787,,,,,,145,FEM,AGR,150,bota,la,a,0.5019,,545.3787,545.3789,0.10092594,-0.24537037,0,0,0,,0,197,197,144,1,,,,
,,,,,,720233dff5c0f02d813456bd,66a626ef09d4e21e1a8894ec,6735cdbe90b5af34a86e70fc,2024-11-14_02h16.01.601,Tarea de género gramatical,2024.2.2,Win32,60.24096386,,,,,,,,,,,,,,,,,,,,,,,545.3802,546.5449,a,1,[],[],[],[],[],[],[],0.4879,1,546.545,547.0449,,,,,,298,MAS,AGR,150,botón,el,l,0.4879,,547.045,547.045,0.10092594,-0.24537037,0,0,0,,0,198,198,297,1,,,,
,,,,,,720233dff5c0f02d813456bd,66a626ef09d4e21e1a8894ec,6735cdbe90b5af34a86e70fc,2024-11-14_02h16.01.601,Tarea de género gramatical,2024.2.2,Win32,60.24096386,,,,,,,,,,,,,,,,,,,,,,,547.0459,548.445,a,1,[],[],[],[],[],[],[],0.725,1,548.445,548.945,,,,,,82,MAS,AGR,150,tubo,el,l,0.725,,548.945,548.9451,0.10092594,-0.24537037,0,0,0,,0,199,199,81,1,,,,
,,,,,,720233dff5c0f02d813456bd,66a626ef09d4e21e1a8894ec,6735cdbe90b5af34a86e70fc,2024-11-14_02h16.01.601,Tarea de género gramatical,2024.2.2,Win32,60.24096386,,,,,,,,,,,,,,,,,,,,,,,548.9463,550.1287,a,1,[],[],[],[],[],[],[],0.5007,1,550.1288,550.6288,,,,,,52,MAS,AGR,150,lago,el,l,0.5007,,550.63,550.6307,0.10092594,-0.24537037,0,0,0,,0,200,200,51,1,,,,
,,,,,,720233dff5c0f02d813456bd,66a626ef09d4e21e1a8894ec,6735cdbe90b5af34a86e70fc,2024-11-14_02h16.01.601,Tarea de género gramatical,2024.2.2,Win32,60.24096386,,,,,,,,,,,,,,,,,,,,,,,550.6316,552.1617,l,1,[],[],[],[],[],[],[],0.8618,1,552.1618,552.662,,,,,,171,FEM,DIS,150,mitad,el,a,0.8618,,552.662,552.6622,0.10092594,-0.24537037,0,0,0,,0,201,201,170,1,,,,
,,,,,,720233dff5c0f02d813456bd,66a626ef09d4e21e1a8894ec,6735cdbe90b5af34a86e70fc,2024-11-14_02h16.01.601,Tarea de género gramatical,2024.2.2,Win32,60.24096386,,,,,,,,,,,,,,,,,,,,,,,552.6632,553.829,l,1,[],[],[],[],[],[],[],0.4848,1,553.8291,554.3287,,,,,,103,FEM,AGR,150,fama,la,a,0.4848,,554.3287,554.3288,0.10092594,-0.24537037,0,0,0,,0,202,202,102,1,,,,
,,,,,,720233dff5c0f02d813456bd,66a626ef09d4e21e1a8894ec,6735cdbe90b5af34a86e70fc,2024-11-14_02h16.01.601,Tarea de género gramatical,2024.2.2,Win32,60.24096386,,,,,,,,,,,,,,,,,,,,,,,554.3298,555.5122,a,1,[],[],[],[],[],[],[],0.4996,1,555.5123,556.0117,,,,,,317,MAS,CON,150,número,,l,0.4996,,556.0117,556.0118,0.10092594,-0.24537037,0,0,0,,0,203,203,316,1,,,,
,,,,,,720233dff5c0f02d813456bd,66a626ef09d4e21e1a8894ec,6735cdbe90b5af34a86e70fc,2024-11-14_02h16.01.601,Tarea de género gramatical,2024.2.2,Win32,60.24096386,,,,,,,,,,,,,,,,,,,,,,,556.0129,557.3451,a,1,[],[],[],[],[],[],[],0.6624,1,557.3452,557.8455,,,,,,420,MAS,DIS,150,helado,la,l,0.6624,,557.8463,557.8472,0.10092594,-0.24537037,0,0,0,,0,204,204,419,1,,,,
,,,,,,720233dff5c0f02d813456bd,66a626ef09d4e21e1a8894ec,6735cdbe90b5af34a86e70fc,2024-11-14_02h16.01.601,Tarea de género gramatical,2024.2.2,Win32,60.24096386,,,,,,,,,,,,,,,,,,,,,,,557.8483,558.9454,l,1,[],[],[],[],[],[],[],0.4218,1,558.9455,559.4454,,,,,,139,FEM,AGR,150,pipa,la,a,0.4218,,559.4454,559.4455,0.10092594,-0.24537037,0,0,0,,0,205,205,138,1,,,,
,,,,,,720233dff5c0f02d813456bd,66a626ef09d4e21e1a8894ec,6735cdbe90b5af34a86e70fc,2024-11-14_02h16.01.601,Tarea de género gramatical,2024.2.2,Win32,60.24096386,,,,,,,,,,,,,,,,,,,,,,,559.4466,560.7452,l,1,[],[],[],[],[],[],[],0.6215,1,560.7452,561.2451,,,,,,417,FEM,DIS,150,cabaña,el,a,0.6215,,561.2451,561.2452,0.10092594,-0.24537037,0,0,0,,0,206,206,416,1,,,,
,,,,,,720233dff5c0f02d813456bd,66a626ef09d4e21e1a8894ec,6735cdbe90b5af34a86e70fc,2024-11-14_02h16.01.601,Tarea de género gramatical,2024.2.2,Win32,60.24096386,,,,,,,,,,,,,,,,,,,,,,,561.2463,562.3121,a,1,[],[],[],[],[],[],[],0.3844,1,562.3121,562.8121,,,,,,162,MAS,DIS,150,miedo,la,l,0.3844,,562.8121,562.8122,0.10092594,-0.24537037,0,0,0,,0,207,207,161,1,,,,
,,,,,,720233dff5c0f02d813456bd,66a626ef09d4e21e1a8894ec,6735cdbe90b5af34a86e70fc,2024-11-14_02h16.01.601,Tarea de género gramatical,2024.2.2,Win32,60.24096386,,,,,,,,,,,,,,,,,,,,,,,562.813,563.9783,a,1,[],[],[],[],[],[],[],0.4957,1,563.9785,564.4787,,,,,,48,MAS,DIS,150,loco,la,l,0.4957,,564.4787,564.4788,0.10092594,-0.24537037,0,0,0,,0,208,208,47,1,,,,
,,,,,,720233dff5c0f02d813456bd,66a626ef09d4e21e1a8894ec,6735cdbe90b5af34a86e70fc,2024-11-14_02h16.01.601,Tarea de género gramatical,2024.2.2,Win32,60.24096386,,,,,,,,,,,,,,,,,,,,,,,564.4797,565.5784,l,1,[],[],[],[],[],[],[],0.4202,1,565.5785,566.079,,,,,,26,FEM,CON,150,pena,,a,0.4202,,566.0799,566.0808,0.10092594,-0.24537037,0,0,0,,0,209,209,25,1,,,,
,,,,,,720233dff5c0f02d813456bd,66a626ef09d4e21e1a8894ec,6735cdbe90b5af34a86e70fc,2024-11-14_02h16.01.601,Tarea de género gramatical,2024.2.2,Win32,60.24096386,,,,,,,,,,,,,,,,,,,,,,,566.0815,567.6451,a,1,[],[],[],[],[],[],[],0.8847,1,567.6452,568.1451,,,,,,84,MAS,DIS,150,mago,la,l,0.8847,,568.1451,568.1452,0.10092594,-0.24537037,0,0,0,,0,210,210,83,1,,,,
,,,,,,720233dff5c0f02d813456bd,66a626ef09d4e21e1a8894ec,6735cdbe90b5af34a86e70fc,2024-11-14_02h16.01.601,Tarea de género gramatical,2024.2.2,Win32,60.24096386,,,,,,,,,,,,,,,,,,,,,,,568.146,569.3952,a,1,[],[],[],[],[],[],[],0.5701,1,569.3953,569.8951,,,,,,191,MAS,CON,150,dolor,,l,0.5701,,569.8952,569.8952,0.10092594,-0.24537037,0,0,0,,0,211,211,190,1,,,,
,,,,,,720233dff5c0f02d813456bd,66a626ef09d4e21e1a8894ec,6735cdbe90b5af34a86e70fc,2024-11-14_02h16.01.601,Tarea de género gramatical,2024.2.2,Win32,60.24096386,,,,,,,,,,,,,,,,,,,,,,,569.8962,571.0954,a,1,[],[],[],[],[],[],[],0.5227,1,571.0955,571.5956,,,,,,239,MAS,CON,150,reloj,,l,0.5227,,571.5956,571.5958,0.10092594,-0.24537037,0,0,0,,0,212,212,238,1,,,,
,,,,,,720233dff5c0f02d813456bd,66a626ef09d4e21e1a8894ec,6735cdbe90b5af34a86e70fc,2024-11-14_02h16.01.601,Tarea de género gramatical,2024.2.2,Win32,60.24096386,,,,,,,,,,,,,,,,,,,,,,,571.597,573.1457,a,1,[],[],[],[],[],[],[],0.868,1,573.1458,573.6456,,,,,,172,MAS,AGR,150,poder,el,l,0.868,,573.6468,573.6479,0.10092594,-0.24537037,0,0,0,,0,213,213,171,1,,,,
,,,,,,720233dff5c0f02d813456bd,66a626ef09d4e21e1a8894ec,6735cdbe90b5af34a86e70fc,2024-11-14_02h16.01.601,Tarea de género gramatical,2024.2.2,Win32,60.24096386,,,,,,,,,,,,,,,,,,,,,,,573.6486,574.7788,a,0,[],[],[],[],[],[],[],0.4525,0,574.7794,575.2789,,,,,,51,FEM,DIS,150,bala,el,a,0.4525,,575.2789,575.279,0.10092594,-0.24537037,0,0,0,,0,214,214,50,1,,,,
,,,,,,720233dff5c0f02d813456bd,66a626ef09d4e21e1a8894ec,6735cdbe90b5af34a86e70fc,2024-11-14_02h16.01.601,Tarea de género gramatical,2024.2.2,Win32,60.24096386,,,,,,,,,,,,,,,,,,,,,,,575.2803,576.4622,l,1,[],[],[],[],[],[],[],0.5006,1,576.4632,576.9623,,,,,,349,FEM,AGR,150,prensa,la,a,0.5006,,576.9623,576.9624,0.10092594,-0.24537037,0,0,0,,0,215,215,348,1,,,,
,,,,,,720233dff5c0f02d813456bd,66a626ef09d4e21e1a8894ec,6735cdbe90b5af34a86e70fc,2024-11-14_02h16.01.601,Tarea de género gramatical,2024.2.2,Win32,60.24096386,,,,,,,,,,,,,,,,,,,,,,,576.9634,578.1452,a,1,[],[],[],[],[],[],[],0.5001,1,578.1453,578.6454,,,,,,396,MAS,DIS,150,tesoro,la,l,0.5001,,578.6455,578.6455,0.10092594,-0.24537037,0,0,0,,0,216,216,395,1,,,,
,,,,,,720233dff5c0f02d813456bd,66a626ef09d4e21e1a8894ec,6735cdbe90b5af34a86e70fc,2024-11-14_02h16.01.601,Tarea de género gramatical,2024.2.2,Win32,60.24096386,,,,,,,,,,,,,,,,,,,,,,,578.6464,579.9457,a,0,[],[],[],[],[],[],[],0.6321,0,579.9466,580.4454,,,,,,201,FEM,DIS,150,leche,el,a,0.6321,,580.4455,580.4455,0.10092594,-0.24537037,0,0,0,,0,217,217,200,1,,,,
,,,,,,720233dff5c0f02d813456bd,66a626ef09d4e21e1a8894ec,6735cdbe90b5af34a86e70fc,2024-11-14_02h16.01.601,Tarea de género gramatical,2024.2.2,Win32,60.24096386,,,,,,,,,,,,,,,,,,,,,,,580.4467,581.6621,a,1,[],[],[],[],[],[],[],0.5416,1,581.6627,582.162,,,,,,155,MAS,CON,150,mundo,,l,0.5416,,582.1632,582.164,0.10092594,-0.24537037,0,0,0,,0,218,218,154,1,,,,
,,,,,,720233dff5c0f02d813456bd,66a626ef09d4e21e1a8894ec,6735cdbe90b5af34a86e70fc,2024-11-14_02h16.01.601,Tarea de género gramatical,2024.2.2,Win32,60.24096386,,,,,,,,,,,,,,,,,,,,,,,582.165,583.2959,a,0,[],[],[],[],[],[],[],0.4561,0,583.2967,583.7961,,,,,,447,FEM,DIS,150,lógica,el,a,0.4561,,583.7962,583.7963,0.10092594,-0.24537037,0,0,0,,0,219,219,446,1,,,,
,,,,,,720233dff5c0f02d813456bd,66a626ef09d4e21e1a8894ec,6735cdbe90b5af34a86e70fc,2024-11-14_02h16.01.601,Tarea de género gramatical,2024.2.2,Win32,60.24096386,,,,,,,,,,,,,,,,,,,,,,,583.7974,584.9453,l,1,[],[],[],[],[],[],[],0.4799,1,584.9459,585.4455,,,,,,39,FEM,DIS,150,luna,el,a,0.4799,,585.4456,585.4456,0.10092594,-0.24537037,0,0,0,,0,220,220,38,1,,,,
,,,,,,720233dff5c0f02d813456bd,66a626ef09d4e21e1a8894ec,6735cdbe90b5af34a86e70fc,2024-11-14_02h16.01.601,Tarea de género gramatical,2024.2.2,Win32,60.24096386,,,,,,,,,,,,,,,,,,,,,,,585.4467,586.6621,a,1,[],[],[],[],[],[],[],0.5335,1,586.6621,587.1622,,,,,,35,MAS,CON,150,taxi,,l,0.5335,,587.1622,587.1623,0.10092594,-0.24537037,0,0,0,,0,221,221,34,1,,,,
,,,,,,720233dff5c0f02d813456bd,66a626ef09d4e21e1a8894ec,6735cdbe90b5af34a86e70fc,2024-11-14_02h16.01.601,Tarea de género gramatical,2024.2.2,Win32,60.24096386,,,,,,,,,,,,,,,,,,,,,,,587.1635,588.4792,a,1,[],[],[],[],[],[],[],0.6339,1,588.4793,588.9793,,,,,,70,MAS,AGR,150,palo,el,l,0.6339,,588.9805,588.9816,0.10092594,-0.24537037,0,0,0,,0,222,222,69,1,,,,
,,,,,,720233dff5c0f02d813456bd,66a626ef09d4e21e1a8894ec,6735cdbe90b5af34a86e70fc,2024-11-14_02h16.01.601,Tarea de género gramatical,2024.2.2,Win32,60.24096386,,,,,,,,,,,,,,,,,,,,,,,588.9824,590.8457,a,1,[],[],[],[],[],[],[],1.1847,1,590.8457,591.3454,,,,,,65,MAS,CON,150,rayo,,l,1.1847,,591.3454,591.3454,0.10092594,-0.24537037,0,0,0,,0,223,223,64,1,,,,
,,,,,,720233dff5c0f02d813456bd,66a626ef09d4e21e1a8894ec,6735cdbe90b5af34a86e70fc,2024-11-14_02h16.01.601,Tarea de género gramatical,2024.2.2,Win32,60.24096386,,,,,,,,,,,,,,,,,,,,,,,591.3463,593.1126,l,0,[],[],[],[],[],[],[],1.0848,0,593.1136,593.6122,,,,,,210,MAS,DIS,150,baile,la,l,1.0848,,593.6122,593.6123,0.10092594,-0.24537037,0,0,0,,0,224,224,209,1,,,,
,,,,,,720233dff5c0f02d813456bd,66a626ef09d4e21e1a8894ec,6735cdbe90b5af34a86e70fc,2024-11-14_02h16.01.601,Tarea de género gramatical,2024.2.2,Win32,60.24096386,,,,,,,,,,,,,,,,,,,,,,,593.6133,594.9456,l,1,[],[],[],[],[],[],[],0.6535,1,594.9465,595.4457,,,,,,21,FEM,DIS,150,boca,el,a,0.6535,,595.4457,595.4458,0.10092594,-0.24537037,0,0,0,,0,225,225,20,1,,,,
,,,,,,720233dff5c0f02d813456bd,66a626ef09d4e21e1a8894ec,6735cdbe90b5af34a86e70fc,2024-11-14_02h16.01.601,Tarea de género gramatical,2024.2.2,Win32,60.24096386,,,,,,,,,,,,,,,,,,,,,,,595.447,596.6455,l,1,[],[],[],[],[],[],[],0.5252,1,596.6455,597.1459,,,,,,435,FEM,DIS,150,niebla,el,a,0.5252,,597.1459,597.146,0.10092594,-0.24537037,0,0,0,,0,226,226,434,1,,,,
,,,,,,720233dff5c0f02d813456bd,66a626ef09d4e21e1a8894ec,6735cdbe90b5af34a86e70fc,2024-11-14_02h16.01.601,Tarea de género gramatical,2024.2.2,Win32,60.24096386,,,,,,,,,,,,,,,,,,,,,,,597.147,598.8461,a,1,[],[],[],[],[],[],[],1.0241,1,598.8462,599.3455,,,,,,294,MAS,DIS,150,cable,la,l,1.0241,,599.3464,599.3473,0.10092594,-0.24537037,0,0,0,,0,227,227,293,1,,,,
,,,,,,720233dff5c0f02d813456bd,66a626ef09d4e21e1a8894ec,6735cdbe90b5af34a86e70fc,2024-11-14_02h16.01.601,Tarea de género gramatical,2024.2.2,Win32,60.24096386,,,,,,,,,,,,,,,,,,,,,,,599.3485,600.7124,l,1,[],[],[],[],[],[],[],0.6895,1,600.7125,601.2124,,,,,,14,FEM,CON,150,cara,,a,0.6895,,601.2124,601.2126,0.10092594,-0.24537037,0,0,0,,0,228,228,13,1,,,,
,,,,,,720233dff5c0f02d813456bd,66a626ef09d4e21e1a8894ec,6735cdbe90b5af34a86e70fc,2024-11-14_02h16.01.601,Tarea de género gramatical,2024.2.2,Win32,60.24096386,,,,,,,,,,,,,,,,,,,,,,,601.2138,602.4792,a,1,[],[],[],[],[],[],[],0.5833,1,602.4793,602.9793,,,,,,419,MAS,CON,150,cuento,,l,0.5833,,602.9793,602.9795,0.10092594,-0.24537037,0,0,0,,0,229,229,418,1,,,,
,,,,,,720233dff5c0f02d813456bd,66a626ef09d4e21e1a8894ec,6735cdbe90b5af34a86e70fc,2024-11-14_02h16.01.601,Tarea de género gramatical,2024.2.2,Win32,60.24096386,,,,,,,,,,,,,,,,,,,,,,,602.9804,605.2793,a,1,[],[],[],[],[],[],[],1.6239,1,605.2793,605.7794,,,,,,425,MAS,CON,150,chiste,,l,1.6239,,605.7794,605.7795,0.10092594,-0.24537037,0,0,0,,0,230,230,424,1,,,,
,,,,,,720233dff5c0f02d813456bd,66a626ef09d4e21e1a8894ec,6735cdbe90b5af34a86e70fc,2024-11-14_02h16.01.601,Tarea de género gramatical,2024.2.2,Win32,60.24096386,,,,,,,,,,,,,,,,,,,,,,,605.7805,607.1127,a,1,[],[],[],[],[],[],[],0.6555,1,607.1128,607.6124,,,,,,376,MAS,AGR,150,efecto,el,l,0.6555,,607.6133,607.6139,0.10092594,-0.24537037,0,0,0,,0,231,231,375,1,,,,
,,,,,,720233dff5c0f02d813456bd,66a626ef09d4e21e1a8894ec,6735cdbe90b5af34a86e70fc,2024-11-14_02h16.01.601,Tarea de género gramatical,2024.2.2,Win32,60.24096386,,,,,,,,,,,,,,,,,,,,,,,607.6148,608.9126,a,1,[],[],[],[],[],[],[],0.6185,1,608.9127,609.413,,,,,,168,MAS,DIS,150,sitio,la,l,0.6185,,609.413,609.413,0.10092594,-0.24537037,0,0,0,,0,232,232,167,1,,,,
,,,,,,720233dff5c0f02d813456bd,66a626ef09d4e21e1a8894ec,6735cdbe90b5af34a86e70fc,2024-11-14_02h16.01.601,Tarea de género gramatical,2024.2.2,Win32,60.24096386,,,,,,,,,,,,,,,,,,,,,,,609.4138,610.4794,a,1,[],[],[],[],[],[],[],0.3899,1,610.4795,610.9796,,,,,,431,MAS,CON,150,veneno,,l,0.3899,,610.9796,610.9796,0.10092594,-0.24537037,0,0,0,,0,233,233,430,1,,,,
,,,,,,720233dff5c0f02d813456bd,66a626ef09d4e21e1a8894ec,6735cdbe90b5af34a86e70fc,2024-11-14_02h16.01.601,Tarea de género gramatical,2024.2.2,Win32,60.24096386,,,,,,,,,,,,,,,,,,,,,,,610.9808,612.1463,a,1,[],[],[],[],[],[],[],0.4847,1,612.1463,612.6458,,,,,,436,MAS,AGR,150,objeto,el,l,0.4847,,612.6458,612.6459,0.10092594,-0.24537037,0,0,0,,0,234,234,435,1,,,,
,,,,,,720233dff5c0f02d813456bd,66a626ef09d4e21e1a8894ec,6735cdbe90b5af34a86e70fc,2024-11-14_02h16.01.601,Tarea de género gramatical,2024.2.2,Win32,60.24096386,,,,,,,,,,,,,,,,,,,,,,,612.6469,614.0626,l,1,[],[],[],[],[],[],[],0.741,1,614.0626,614.5632,,,,,,325,FEM,AGR,150,tierra,la,a,0.741,,614.5633,614.5635,0.10092594,-0.24537037,0,0,0,,0,235,235,324,1,,,,
,,,,,,720233dff5c0f02d813456bd,66a626ef09d4e21e1a8894ec,6735cdbe90b5af34a86e70fc,2024-11-14_02h16.01.601,Tarea de género gramatical,2024.2.2,Win32,60.24096386,,,,,,,,,,,,,,,,,,,,,,,614.5647,615.6629,l,1,[],[],[],[],[],[],[],0.4169,1,615.6631,616.1631,,,,,,218,FEM,CON,150,nieve,,a,0.4169,,616.1643,616.1654,0.10092594,-0.24537037,0,0,0,,0,236,236,217,1,,,,
,,,,,,720233dff5c0f02d813456bd,66a626ef09d4e21e1a8894ec,6735cdbe90b5af34a86e70fc,2024-11-14_02h16.01.601,Tarea de género gramatical,2024.2.2,Win32,60.24096386,,,,,,,,,,,,,,,,,,,,,,,616.1659,617.246,a,1,[],[],[],[],[],[],[],0.4084,1,617.2461,617.7457,,,,,,107,MAS,CON,150,cubo,,l,0.4084,,617.7458,617.7459,0.10092594,-0.24537037,0,0,0,,0,237,237,106,1,,,,
,,,,,,720233dff5c0f02d813456bd,66a626ef09d4e21e1a8894ec,6735cdbe90b5af34a86e70fc,2024-11-14_02h16.01.601,Tarea de género gramatical,2024.2.2,Win32,60.24096386,,,,,,,,,,,,,,,,,,,,,,,617.7471,619.3625,l,1,[],[],[],[],[],[],[],0.9367,1,619.3626,619.8623,,,,,,93,FEM,DIS,150,lata,el,a,0.9367,,619.8624,619.8624,0.10092594,-0.24537037,0,0,0,,0,238,238,92,1,,,,
,,,,,,720233dff5c0f02d813456bd,66a626ef09d4e21e1a8894ec,6735cdbe90b5af34a86e70fc,2024-11-14_02h16.01.601,Tarea de género gramatical,2024.2.2,Win32,60.24096386,,,,,,,,,,,,,,,,,,,,,,,619.8634,621.1131,a,1,[],[],[],[],[],[],[],0.5727,1,621.1132,621.613,,,,,,450,MAS,DIS,150,conejo,la,l,0.5727,,621.613,621.6132,0.10092594,-0.24537037,0,0,0,,0,239,239,449,1,,,,
,,,,,,720233dff5c0f02d813456bd,66a626ef09d4e21e1a8894ec,6735cdbe90b5af34a86e70fc,2024-11-14_02h16.01.601,Tarea de género gramatical,2024.2.2,Win32,60.24096386,,,,,,,,,,,,,,,,,,,,,,,621.6142,623.0129,a,1,[],[],[],[],[],[],[],0.7178,1,623.013,623.5132,,,,,,136,MAS,AGR,150,vago,el,l,0.7178,,623.5146,623.5155,0.10092594,-0.24537037,0,0,0,,0,240,240,135,1,,,,
,,,,,,720233dff5c0f02d813456bd,66a626ef09d4e21e1a8894ec,6735cdbe90b5af34a86e70fc,2024-11-14_02h16.01.601,Tarea de género gramatical,2024.2.2,Win32,60.24096386,,,,,,,,,,,,,,,,,,,,,,,623.5162,624.9459,l,1,[],[],[],[],[],[],[],0.7532,1,624.946,625.4458,,,,,,116,FEM,CON,150,nube,,a,0.7532,,625.4458,625.446,0.10092594,-0.24537037,0,0,0,,0,241,241,115,1,,,,
,,,,,,720233dff5c0f02d813456bd,66a626ef09d4e21e1a8894ec,6735cdbe90b5af34a86e70fc,2024-11-14_02h16.01.601,Tarea de género gramatical,2024.2.2,Win32,60.24096386,,,,,,,,,,,,,,,,,,,,,,,625.447,626.7129,a,1,[],[],[],[],[],[],[],0.584,1,626.7131,627.2124,,,,,,4,MAS,AGR,150,hijo,el,l,0.584,,627.2125,627.2126,0.10092594,-0.24537037,0,0,0,,0,242,242,3,1,,,,
,,,,,,720233dff5c0f02d813456bd,66a626ef09d4e21e1a8894ec,6735cdbe90b5af34a86e70fc,2024-11-14_02h16.01.601,Tarea de género gramatical,2024.2.2,Win32,60.24096386,,,,,,,,,,,,,,,,,,,,,,,627.2135,628.5293,l,0,[],[],[],[],[],[],[],0.6543,0,628.5301,629.0293,,,,,,394,MAS,AGR,150,examen,el,l,0.6543,,629.0294,629.0295,0.10092594,-0.24537037,0,0,0,,0,243,243,393,1,,,,
,,,,,,720233dff5c0f02d813456bd,66a626ef09d4e21e1a8894ec,6735cdbe90b5af34a86e70fc,2024-11-14_02h16.01.601,Tarea de género gramatical,2024.2.2,Win32,60.24096386,,,,,,,,,,,,,,,,,,,,,,,629.0303,630.5625,a,1,[],[],[],[],[],[],[],0.8613,1,630.5631,631.0632,,,,,,413,MAS,CON,150,diario,,l,0.8613,,631.0632,631.0633,0.10092594,-0.24537037,0,0,0,,0,244,244,412,1,,,,
,,,,,,720233dff5c0f02d813456bd,66a626ef09d4e21e1a8894ec,6735cdbe90b5af34a86e70fc,2024-11-14_02h16.01.601,Tarea de género gramatical,2024.2.2,Win32,60.24096386,,,,,,,,,,,,,,,,,,,,,,,631.0646,633.0796,a,0,[],[],[],[],[],[],[],1.3401,0,633.0805,633.5796,,,,,,255,FEM,DIS,150,tribu,el,a,1.3401,,633.5807,633.5813,0.10092594,-0.24537037,0,0,0,,0,245,245,254,1,,,,
,,,,,,720233dff5c0f02d813456bd,66a626ef09d4e21e1a8894ec,6735cdbe90b5af34a86e70fc,2024-11-14_02h16.01.601,Tarea de género gramatical,2024.2.2,Win32,60.24096386,,,,,,,,,,,,,,,,,,,,,,,633.582,634.7794,l,1,[],[],[],[],[],[],[],0.5195,1,634.78,635.2796,,,,,,200,FEM,CON,150,silla,,a,0.5195,,635.2796,635.2797,0.10092594,-0.24537037,0,0,0,,0,246,246,199,1,,,,
,,,,,,720233dff5c0f02d813456bd,66a626ef09d4e21e1a8894ec,6735cdbe90b5af34a86e70fc,2024-11-14_02h16.01.601,Tarea de género gramatical,2024.2.2,Win32,60.24096386,,,,,,,,,,,,,,,,,,,,,,,635.2808,636.546,a,1,[],[],[],[],[],[],[],0.5878,1,636.5461,637.0461,,,,,,335,MAS,CON,150,montón,,l,0.5878,,637.0462,637.0462,0.10092594,-0.24537037,0,0,0,,0,247,247,334,1,,,,
,,,,,,720233dff5c0f02d813456bd,66a626ef09d4e21e1a8894ec,6735cdbe90b5af34a86e70fc,2024-11-14_02h16.01.601,Tarea de género gramatical,2024.2.2,Win32,60.24096386,,,,,,,,,,,,,,,,,,,,,,,637.0473,638.2129,a,0,[],[],[],[],[],[],[],0.4849,0,638.2136,638.7135,,,,,,45,FEM,DIS,150,isla,el,a,0.4849,,638.7136,638.7136,0.10092594,-0.24537037,0,0,0,,0,248,248,44,1,,,,
,,,,,,720233dff5c0f02d813456bd,66a626ef09d4e21e1a8894ec,6735cdbe90b5af34a86e70fc,2024-11-14_02h16.01.601,Tarea de género gramatical,2024.2.2,Win32,60.24096386,,,,,,,,,,,,,,,,,,,,,,,638.7146,640.2127,l,1,[],[],[],[],[],[],[],0.8254,1,640.2134,640.713,,,,,,27,FEM,DIS,150,mesa,el,a,0.8254,,640.7144,640.7154,0.10092594,-0.24537037,0,0,0,,0,249,249,26,1,,,,
,,,,,,720233dff5c0f02d813456bd,66a626ef09d4e21e1a8894ec,6735cdbe90b5af34a86e70fc,2024-11-14_02h16.01.601,Tarea de género gramatical,2024.2.2,Win32,60.24096386,,,,,,,,,,,,,,,,,,,,,,,640.7163,641.9964,a,1,[],[],[],[],[],[],[],0.6079,1,641.9965,642.4964,,,,,,16,MAS,AGR,150,baño,el,l,0.6079,,642.4964,642.4966,0.10092594,-0.24537037,0,0,0,,0,250,250,15,1,,,,
,,,,,,720233dff5c0f02d813456bd,66a626ef09d4e21e1a8894ec,6735cdbe90b5af34a86e70fc,2024-11-14_02h16.01.601,Tarea de género gramatical,2024.2.2,Win32,60.24096386,,,,,,,,,,,,,,,,,,,,,,,642.4976,644.3625,a,1,[],[],[],[],[],[],[],1.1944,1,644.3626,644.8631,,,,,,119,MAS,CON,150,mito,,l,1.1944,,644.8631,644.8632,0.10092594,-0.24537037,0,0,0,,0,251,251,118,1,,,,
,,,,,,720233dff5c0f02d813456bd,66a626ef09d4e21e1a8894ec,6735cdbe90b5af34a86e70fc,2024-11-14_02h16.01.601,Tarea de género gramatical,2024.2.2,Win32,60.24096386,,,,,,,,,,,,,,,,,,,,,,,644.8642,647.397,l,0,[],[],[],[],[],[],[],1.8512,0,647.3981,647.897,,,,,,300,MAS,DIS,150,túnel,la,l,1.8512,,647.897,647.8971,0.10092594,-0.24537037,0,0,0,,0,252,252,299,1,,,,
,,,,,,720233dff5c0f02d813456bd,66a626ef09d4e21e1a8894ec,6735cdbe90b5af34a86e70fc,2024-11-14_02h16.01.601,Tarea de género gramatical,2024.2.2,Win32,60.24096386,,,,,,,,,,,,,,,,,,,,,,,647.8983,649.0627,a,1,[],[],[],[],[],[],[],0.483,1,649.0635,649.5631,,,,,,395,MAS,CON,150,correo,,l,0.483,,649.5632,649.5633,0.10092594,-0.24537037,0,0,0,,0,253,253,394,1,,,,
