counterbalancing_condition,consent_prescreening.block_1/declare_consent,consent_prescreening.block_1/age_years,consent_prescreening.block_1/gender,consent_prescreening.block_1/language_disorder,consent_prescreening.block_1/first_language,PROLIFIC_PID,STUDY_ID,SESSION_ID,date,expName,psychopyVersion,OS,frameRate,check_prescreening_answers.started,check_prescreening_answers.stopped,Instructions.started,Instructions.stopped,instr_done_keyboard.keys,instr_done_touch.x,instr_done_touch.y,instr_done_touch.leftButton,instr_done_touch.midButton,instr_done_touch.rightButton,instr_done_touch.clicked_name,instruction_pages.thisRepN,instruction_pages.thisTrialN,instruction_pages.thisN,instruction_pages.thisIndex,instruction_pages.ran,pageN,phase,instruct_text,has_image,instruct_image,instr_done_keyboard.rt,instr_done_keyboard.duration,presentTrial.started,presentTrial.stopped,response.keys,response.corr,touch_resp.x,touch_resp.y,touch_resp.leftButton,touch_resp.midButton,touch_resp.rightButton,touch_resp.time,touch_resp.clicked_name,rt,corr,feedback.started,feedback.stopped,practice_trials.thisRepN,practice_trials.thisTrialN,practice_trials.thisN,practice_trials.thisIndex,practice_trials.ran,TrialID,StimulusType,Condition,PrimeDuration,Prime,Flanker,corrAns,response.rt,response.duration,Break.started,Break.stopped,break_done_touch.x,break_done_touch.y,break_done_touch.leftButton,break_done_touch.midButton,break_done_touch.rightButton,break_done_keyboard.keys,experiment_trials.thisRepN,experiment_trials.thisTrialN,experiment_trials.thisN,experiment_trials.thisIndex,experiment_trials.ran,break_done_keyboard.rt,break_done_keyboard.duration,End.started,End.stopped
1,"[""consent_given"",""read_info"",""comfortable"",""over_18""]",27,F,"[""none""]","[""spanish""]",76636d9eb55d34291d639c89,66a626ef09d4e21e1a8894ec,6734f03fc470b707af5d0878,2024-11-13_12h30.59.017,Tarea de género gramatical,2024.2.2,Win32,60.97560976,,,,,,,,,,,,,,,,,,,,,,,,,,,,,,,,,,,,,,,,,,,,,,,,,,,,,,,,,,,,,,,,,,,,,
,,,,,,76636d9eb55d34291d639c89,66a626ef09d4e21e1a8894ec,6734f03fc470b707af5d0878,2024-11-13_12h30.59.017,Tarea de género gramatical,2024.2.2,Win32,60.97560976,31.0642,31.0659,,,,,,,,,,,,,,,,,,,,,,,,,,,,,,,,,,,,,,,,,,,,,,,,,,,,,,,,,,,,,,,,,,,
,,,,,,76636d9eb55d34291d639c89,66a626ef09d4e21e1a8894ec,6734f03fc470b707af5d0878,2024-11-13_12h30.59.017,Tarea de género gramatical,2024.2.2,Win32,60.97560976,,,31.1276,47.4849,,0.015740741,-0.405555556,1,0,0,instr_done_button,0,0,0,0,1,1,instructions,"INSTRUCCIONES
Va a realizar una prueba de selección gramatical. Desde el comienzo de la prueba mire siempre al centro de la pantalla. Al cabo de un momento, aparecerán palabras. La tarea consiste en determinar si la palabra del centro (siempre será un sustantivo), pertenece al género masculino o femenino.

Pulse la tecla ESPACIO o toque el botón de abajo para continuar.",0,keyboardresponseMF.png,,,,,,,,,,,,,,,,,,,,,,,,,,,,,,,,,,,,,,,,,,,,,,,,
,,,,,,76636d9eb55d34291d639c89,66a626ef09d4e21e1a8894ec,6734f03fc470b707af5d0878,2024-11-13_12h30.59.017,Tarea de género gramatical,2024.2.2,Win32,60.97560976,,,47.4937,66.7353,space,0.393518519,-0.27037037,0,0,0,,0,1,1,1,1,2,instructions,"Si su dispositivo tiene teclado, pulse la tecla ""A"" para las palabras en masculino (por ejemplo: ""arroz"") y la tecla ""L"" para las palabras en femenino (por ejemplo: ""mano"").
Pulse la tecla ESPACIO o toque el botón de abajo para continuar.",1,keyboardresponseMF.png,19.1399,,,,,,,,,,,,,,,,,,,,,,,,,,,,,,,,,,,,,,,,,,,,,,,
,,,,,,76636d9eb55d34291d639c89,66a626ef09d4e21e1a8894ec,6734f03fc470b707af5d0878,2024-11-13_12h30.59.017,Tarea de género gramatical,2024.2.2,Win32,60.97560976,,,66.7425,71.7327,space,0.393518519,-0.27037037,0,0,0,,0,2,2,2,1,3,instructions,"Si utiliza un dispositivo sólo táctil, colóquelo en horizontal y utilice los botones de la pantalla. No utilice el ratón.
Pulse la tecla ESPACIO o toque el botón de abajo para continuar.",2,touchresponseMF.png,4.9118,,,,,,,,,,,,,,,,,,,,,,,,,,,,,,,,,,,,,,,,,,,,,,,
,,,,,,76636d9eb55d34291d639c89,66a626ef09d4e21e1a8894ec,6734f03fc470b707af5d0878,2024-11-13_12h30.59.017,Tarea de género gramatical,2024.2.2,Win32,60.97560976,,,71.7414,84.8452,space,0.393518519,-0.27037037,0,0,0,,0,3,3,3,1,4,instructions,"Es muy importante que responda con la mayor rapidez y precisión posibles, ya que cada cadena de letras sólo estará en pantalla durante un instante. Si no responde en ese tiempo, aparecerá el mensaje ""Muy lento"" y el experimento pasará a la siguiente palabra. Los primeros 15 intentos serán de práctica y habrá dos descansos durante la prueba.
Pulse la tecla ESPACIO o toque el botón de abajo para iniciar la parte de práctica.",0,keyboardresponseMF.png,13.0811,,,,,,,,,,,,,,,,,,,,,,,,,,,,,,,,,,,,,,,,,,,,,,,
,,,,,,76636d9eb55d34291d639c89,66a626ef09d4e21e1a8894ec,6734f03fc470b707af5d0878,2024-11-13_12h30.59.017,Tarea de género gramatical,2024.2.2,Win32,60.97560976,,,,,,,,,,,,,,,,,,,,,,,,84.8924,87.5323,,0,[],[],[],[],[],[],[],,-1,87.5335,88.0281,0,0,0,2,1,2003,FEM,DIS,150,daga,el,a,,,,,,,,,,,,,,,,,,,
,,,,,,76636d9eb55d34291d639c89,66a626ef09d4e21e1a8894ec,6734f03fc470b707af5d0878,2024-11-13_12h30.59.017,Tarea de género gramatical,2024.2.2,Win32,60.97560976,,,,,,,,,,,,,,,,,,,,,,,,88.034,89.3095,a,0,[],[],[],[],[],[],[],0.598,0,89.3289,89.8224,0,1,1,3,1,2004,FEM,AGR,150,venta,la,a,0.598,,,,,,,,,,,,,,,,,,
,,,,,,76636d9eb55d34291d639c89,66a626ef09d4e21e1a8894ec,6734f03fc470b707af5d0878,2024-11-13_12h30.59.017,Tarea de género gramatical,2024.2.2,Win32,60.97560976,,,,,,,,,,,,,,,,,,,,,,,,89.8289,91.062,a,1,[],[],[],[],[],[],[],0.5682,1,91.0653,91.5602,0,2,2,13,1,2014,MAS,CON,150,siglo,,l,0.5682,,,,,,,,,,,,,,,,,,
,,,,,,76636d9eb55d34291d639c89,66a626ef09d4e21e1a8894ec,6734f03fc470b707af5d0878,2024-11-13_12h30.59.017,Tarea de género gramatical,2024.2.2,Win32,60.97560976,,,,,,,,,,,,,,,,,,,,,,,,91.565,92.6489,l,1,[],[],[],[],[],[],[],0.4195,1,92.6492,93.1472,0,3,3,4,1,2005,FEM,CON,150,placa,,a,0.4195,,,,,,,,,,,,,,,,,,
,,,,,,76636d9eb55d34291d639c89,66a626ef09d4e21e1a8894ec,6734f03fc470b707af5d0878,2024-11-13_12h30.59.017,Tarea de género gramatical,2024.2.2,Win32,60.97560976,,,,,,,,,,,,,,,,,,,,,,,,93.1512,94.2778,l,1,[],[],[],[],[],[],[],0.4503,1,94.2781,94.7761,0,4,4,6,1,2007,FEM,AGR,150,navaja,la,a,0.4503,,,,,,,,,,,,,,,,,,
,,,,,,76636d9eb55d34291d639c89,66a626ef09d4e21e1a8894ec,6734f03fc470b707af5d0878,2024-11-13_12h30.59.017,Tarea de género gramatical,2024.2.2,Win32,60.97560976,,,,,,,,,,,,,,,,,,,,,,,,94.7793,95.8469,l,1,[],[],[],[],[],[],[],0.386,1,95.8474,96.3424,0,5,5,1,1,2002,FEM,CON,150,pala,,a,0.386,,,,,,,,,,,,,,,,,,
,,,,,,76636d9eb55d34291d639c89,66a626ef09d4e21e1a8894ec,6734f03fc470b707af5d0878,2024-11-13_12h30.59.017,Tarea de género gramatical,2024.2.2,Win32,60.97560976,,,,,,,,,,,,,,,,,,,,,,,,96.3465,97.4118,a,0,[],[],[],[],[],[],[],0.3862,0,97.4142,97.9091,0,6,6,5,1,2006,FEM,DIS,150,serie,el,a,0.3862,,,,,,,,,,,,,,,,,,
,,,,,,76636d9eb55d34291d639c89,66a626ef09d4e21e1a8894ec,6734f03fc470b707af5d0878,2024-11-13_12h30.59.017,Tarea de género gramatical,2024.2.2,Win32,60.97560976,,,,,,,,,,,,,,,,,,,,,,,,97.9126,99.2479,a,1,[],[],[],[],[],[],[],0.6537,1,99.2503,99.7405,0,7,7,12,1,2013,MAS,AGR,150,acero,el,l,0.6537,,,,,,,,,,,,,,,,,,
,,,,,,76636d9eb55d34291d639c89,66a626ef09d4e21e1a8894ec,6734f03fc470b707af5d0878,2024-11-13_12h30.59.017,Tarea de género gramatical,2024.2.2,Win32,60.97560976,,,,,,,,,,,,,,,,,,,,,,,,99.7443,100.8175,a,1,[],[],[],[],[],[],[],0.4032,1,100.8178,101.3095,0,8,8,9,1,2010,MAS,AGR,150,vecino,el,l,0.4032,,,,,,,,,,,,,,,,,,
,,,,,,76636d9eb55d34291d639c89,66a626ef09d4e21e1a8894ec,6734f03fc470b707af5d0878,2024-11-13_12h30.59.017,Tarea de género gramatical,2024.2.2,Win32,60.97560976,,,,,,,,,,,,,,,,,,,,,,,,101.3128,102.3446,l,1,[],[],[],[],[],[],[],0.3524,1,102.3452,102.8478,0,9,9,7,1,2008,FEM,CON,150,siesta,,a,0.3524,,,,,,,,,,,,,,,,,,
,,,,,,76636d9eb55d34291d639c89,66a626ef09d4e21e1a8894ec,6734f03fc470b707af5d0878,2024-11-13_12h30.59.017,Tarea de género gramatical,2024.2.2,Win32,60.97560976,,,,,,,,,,,,,,,,,,,,,,,,102.8521,103.9963,a,1,[],[],[],[],[],[],[],0.4738,1,103.9966,104.5069,0,10,10,14,1,2015,MAS,DIS,150,robot,la,l,0.4738,,,,,,,,,,,,,,,,,,
,,,,,,76636d9eb55d34291d639c89,66a626ef09d4e21e1a8894ec,6734f03fc470b707af5d0878,2024-11-13_12h30.59.017,Tarea de género gramatical,2024.2.2,Win32,60.97560976,,,,,,,,,,,,,,,,,,,,,,,,104.5111,105.6602,a,1,[],[],[],[],[],[],[],0.47,1,105.6607,106.1482,0,11,11,11,1,2012,MAS,DIS,150,clima,la,l,0.47,,,,,,,,,,,,,,,,,,
,,,,,,76636d9eb55d34291d639c89,66a626ef09d4e21e1a8894ec,6734f03fc470b707af5d0878,2024-11-13_12h30.59.017,Tarea de género gramatical,2024.2.2,Win32,60.97560976,,,,,,,,,,,,,,,,,,,,,,,,106.151,107.5416,l,0,[],[],[],[],[],[],[],0.7096,0,107.5436,108.0416,0,12,12,10,1,2011,MAS,CON,150,canal,,l,0.7096,,,,,,,,,,,,,,,,,,
,,,,,,76636d9eb55d34291d639c89,66a626ef09d4e21e1a8894ec,6734f03fc470b707af5d0878,2024-11-13_12h30.59.017,Tarea de género gramatical,2024.2.2,Win32,60.97560976,,,,,,,,,,,,,,,,,,,,,,,,108.0459,109.3927,a,0,[],[],[],[],[],[],[],0.6653,0,109.393,109.8941,0,13,13,0,1,2001,FEM,AGR,150,nuca,la,a,0.6653,,,,,,,,,,,,,,,,,,
,,,,,,76636d9eb55d34291d639c89,66a626ef09d4e21e1a8894ec,6734f03fc470b707af5d0878,2024-11-13_12h30.59.017,Tarea de género gramatical,2024.2.2,Win32,60.97560976,,,,,,,,,,,,,,,,,,,,,,,,109.8978,111.2995,a,1,[],[],[],[],[],[],[],0.7375,1,111.3023,111.7753,0,14,14,8,1,2009,MAS,DIS,150,puerto,la,l,0.7375,,,,,,,,,,,,,,,,,,
,,,,,,76636d9eb55d34291d639c89,66a626ef09d4e21e1a8894ec,6734f03fc470b707af5d0878,2024-11-13_12h30.59.017,Tarea de género gramatical,2024.2.2,Win32,60.97560976,,,156.9753,164.4177,space,0.393518519,-0.27037037,0,0,0,,,,,,,,,,,,7.4208,,164.5009,165.59,a,1,[],[],[],[],[],[],[],0.4178,1,165.5902,166.0751,,,,,,456,MAS,AGR,150,lado,el,l,0.4178,,166.0761,166.0894,0.393518519,-0.27037037,0,0,0,,0,0,0,5,1,,,,
,,,,,,76636d9eb55d34291d639c89,66a626ef09d4e21e1a8894ec,6734f03fc470b707af5d0878,2024-11-13_12h30.59.017,Tarea de género gramatical,2024.2.2,Win32,60.97560976,,,,,,,,,,,,,,,,,,,,,,,,166.0922,167.1072,a,1,[],[],[],[],[],[],[],0.3415,1,167.1075,167.6104,,,,,,856,MAS,CON,150,premio,,l,0.3415,,167.6109,167.6113,0.393518519,-0.27037037,0,0,0,,0,1,1,405,1,,,,
,,,,,,76636d9eb55d34291d639c89,66a626ef09d4e21e1a8894ec,6734f03fc470b707af5d0878,2024-11-13_12h30.59.017,Tarea de género gramatical,2024.2.2,Win32,60.97560976,,,,,,,,,,,,,,,,,,,,,,,,167.6142,168.6084,l,1,[],[],[],[],[],[],[],0.316,1,168.6087,169.1103,,,,,,655,FEM,CON,150,reina,,a,0.316,,169.1141,169.1164,0.393518519,-0.27037037,0,0,0,,0,2,2,204,1,,,,
,,,,,,76636d9eb55d34291d639c89,66a626ef09d4e21e1a8894ec,6734f03fc470b707af5d0878,2024-11-13_12h30.59.017,Tarea de género gramatical,2024.2.2,Win32,60.97560976,,,,,,,,,,,,,,,,,,,,,,,,169.1187,170.1252,l,1,[],[],[],[],[],[],[],0.3348,1,170.1256,170.6283,,,,,,519,FEM,AGR,150,rata,la,a,0.3348,,170.6285,170.6289,0.393518519,-0.27037037,0,0,0,,0,3,3,68,1,,,,
,,,,,,76636d9eb55d34291d639c89,66a626ef09d4e21e1a8894ec,6734f03fc470b707af5d0878,2024-11-13_12h30.59.017,Tarea de género gramatical,2024.2.2,Win32,60.97560976,,,,,,,,,,,,,,,,,,,,,,,,170.6323,171.6925,a,0,[],[],[],[],[],[],[],0.3871,0,171.6954,172.1812,,,,,,716,FEM,DIS,150,jaula,el,a,0.3871,,172.1813,172.1817,0.393518519,-0.27037037,0,0,0,,0,4,4,265,1,,,,
,,,,,,76636d9eb55d34291d639c89,66a626ef09d4e21e1a8894ec,6734f03fc470b707af5d0878,2024-11-13_12h30.59.017,Tarea de género gramatical,2024.2.2,Win32,60.97560976,,,,,,,,,,,,,,,,,,,,,,,,172.1849,173.5286,l,1,[],[],[],[],[],[],[],0.6643,1,173.531,174.0237,,,,,,709,FEM,CON,150,prima,,a,0.6643,,174.0239,174.0245,0.393518519,-0.27037037,0,0,0,,0,5,5,258,1,,,,
,,,,,,76636d9eb55d34291d639c89,66a626ef09d4e21e1a8894ec,6734f03fc470b707af5d0878,2024-11-13_12h30.59.017,Tarea de género gramatical,2024.2.2,Win32,60.97560976,,,,,,,,,,,,,,,,,,,,,,,,174.0291,175.0765,a,1,[],[],[],[],[],[],[],0.3695,1,175.0772,175.5781,,,,,,479,MAS,DIS,150,frío,la,l,0.3695,,175.5827,175.5849,0.393518519,-0.27037037,0,0,0,,0,6,6,28,1,,,,
,,,,,,76636d9eb55d34291d639c89,66a626ef09d4e21e1a8894ec,6734f03fc470b707af5d0878,2024-11-13_12h30.59.017,Tarea de género gramatical,2024.2.2,Win32,60.97560976,,,,,,,,,,,,,,,,,,,,,,,,175.5874,176.6941,a,1,[],[],[],[],[],[],[],0.4217,1,176.6947,177.1943,,,,,,606,MAS,AGR,150,amigo,el,l,0.4217,,177.1944,177.1948,0.393518519,-0.27037037,0,0,0,,0,7,7,155,1,,,,
,,,,,,76636d9eb55d34291d639c89,66a626ef09d4e21e1a8894ec,6734f03fc470b707af5d0878,2024-11-13_12h30.59.017,Tarea de género gramatical,2024.2.2,Win32,60.97560976,,,,,,,,,,,,,,,,,,,,,,,,177.1984,178.2116,a,1,[],[],[],[],[],[],[],0.3355,1,178.2121,178.7128,,,,,,881,MAS,DIS,150,veneno,la,l,0.3355,,178.713,178.7135,0.393518519,-0.27037037,0,0,0,,0,8,8,430,1,,,,
,,,,,,76636d9eb55d34291d639c89,66a626ef09d4e21e1a8894ec,6734f03fc470b707af5d0878,2024-11-13_12h30.59.017,Tarea de género gramatical,2024.2.2,Win32,60.97560976,,,,,,,,,,,,,,,,,,,,,,,,178.7171,179.8583,l,1,[],[],[],[],[],[],[],0.4674,1,179.8588,180.3596,,,,,,741,FEM,AGR,150,aguja,la,a,0.4674,,180.3597,180.36,0.393518519,-0.27037037,0,0,0,,0,9,9,290,1,,,,
,,,,,,76636d9eb55d34291d639c89,66a626ef09d4e21e1a8894ec,6734f03fc470b707af5d0878,2024-11-13_12h30.59.017,Tarea de género gramatical,2024.2.2,Win32,60.97560976,,,,,,,,,,,,,,,,,,,,,,,,180.3632,181.4589,a,1,[],[],[],[],[],[],[],0.4306,1,181.4591,181.9613,,,,,,839,MAS,DIS,150,tamaño,la,l,0.4306,,181.9618,181.9621,0.393518519,-0.27037037,0,0,0,,0,10,10,388,1,,,,
,,,,,,76636d9eb55d34291d639c89,66a626ef09d4e21e1a8894ec,6734f03fc470b707af5d0878,2024-11-13_12h30.59.017,Tarea de género gramatical,2024.2.2,Win32,60.97560976,,,,,,,,,,,,,,,,,,,,,,,,181.9654,183.1614,a,1,[],[],[],[],[],[],[],0.5175,1,183.1616,183.6648,,,,,,720,MAS,AGR,150,queso,el,l,0.5175,,183.6691,183.6712,0.393518519,-0.27037037,0,0,0,,0,11,11,269,1,,,,
,,,,,,76636d9eb55d34291d639c89,66a626ef09d4e21e1a8894ec,6734f03fc470b707af5d0878,2024-11-13_12h30.59.017,Tarea de género gramatical,2024.2.2,Win32,60.97560976,,,,,,,,,,,,,,,,,,,,,,,,183.6737,184.6439,a,1,[],[],[],[],[],[],[],0.2968,1,184.644,185.1428,,,,,,742,MAS,CON,150,piano,,l,0.2968,,185.143,185.1433,0.393518519,-0.27037037,0,0,0,,0,12,12,291,1,,,,
,,,,,,76636d9eb55d34291d639c89,66a626ef09d4e21e1a8894ec,6734f03fc470b707af5d0878,2024-11-13_12h30.59.017,Tarea de género gramatical,2024.2.2,Win32,60.97560976,,,,,,,,,,,,,,,,,,,,,,,,185.1466,186.1596,a,1,[],[],[],[],[],[],[],0.3337,1,186.1597,186.6609,,,,,,737,MAS,DIS,150,plato,la,l,0.3337,,186.6612,186.6616,0.393518519,-0.27037037,0,0,0,,0,13,13,286,1,,,,
,,,,,,76636d9eb55d34291d639c89,66a626ef09d4e21e1a8894ec,6734f03fc470b707af5d0878,2024-11-13_12h30.59.017,Tarea de género gramatical,2024.2.2,Win32,60.97560976,,,,,,,,,,,,,,,,,,,,,,,,186.6656,187.7427,a,1,[],[],[],[],[],[],[],0.4036,1,187.7429,188.2433,,,,,,576,MAS,AGR,150,lazo,el,l,0.4036,,188.2436,188.2438,0.393518519,-0.27037037,0,0,0,,0,14,14,125,1,,,,
,,,,,,76636d9eb55d34291d639c89,66a626ef09d4e21e1a8894ec,6734f03fc470b707af5d0878,2024-11-13_12h30.59.017,Tarea de género gramatical,2024.2.2,Win32,60.97560976,,,,,,,,,,,,,,,,,,,,,,,,188.2468,189.2123,l,1,[],[],[],[],[],[],[],0.2928,1,189.2125,189.7118,,,,,,555,FEM,AGR,150,jefa,la,a,0.2928,,189.7161,189.7186,0.393518519,-0.27037037,0,0,0,,0,15,15,104,1,,,,
,,,,,,76636d9eb55d34291d639c89,66a626ef09d4e21e1a8894ec,6734f03fc470b707af5d0878,2024-11-13_12h30.59.017,Tarea de género gramatical,2024.2.2,Win32,60.97560976,,,,,,,,,,,,,,,,,,,,,,,,189.7213,190.7002,l,1,[],[],[],[],[],[],[],0.2949,1,190.7006,191.1969,,,,,,787,FEM,CON,150,escena,,a,0.2949,,191.197,191.1975,0.393518519,-0.27037037,0,0,0,,0,16,16,336,1,,,,
,,,,,,76636d9eb55d34291d639c89,66a626ef09d4e21e1a8894ec,6734f03fc470b707af5d0878,2024-11-13_12h30.59.017,Tarea de género gramatical,2024.2.2,Win32,60.97560976,,,,,,,,,,,,,,,,,,,,,,,,191.2008,192.1767,a,1,[],[],[],[],[],[],[],0.3029,1,192.1769,192.6754,,,,,,779,MAS,DIS,150,futuro,la,l,0.3029,,192.6754,192.6757,0.393518519,-0.27037037,0,0,0,,0,17,17,328,1,,,,
,,,,,,76636d9eb55d34291d639c89,66a626ef09d4e21e1a8894ec,6734f03fc470b707af5d0878,2024-11-13_12h30.59.017,Tarea de género gramatical,2024.2.2,Win32,60.97560976,,,,,,,,,,,,,,,,,,,,,,,,192.6792,193.7934,l,1,[],[],[],[],[],[],[],0.4356,1,193.7937,194.2942,,,,,,453,FEM,AGR,150,cosa,la,a,0.4356,,194.2943,194.2946,0.393518519,-0.27037037,0,0,0,,0,18,18,2,1,,,,
,,,,,,76636d9eb55d34291d639c89,66a626ef09d4e21e1a8894ec,6734f03fc470b707af5d0878,2024-11-13_12h30.59.017,Tarea de género gramatical,2024.2.2,Win32,60.97560976,,,,,,,,,,,,,,,,,,,,,,,,194.2976,195.4101,l,0,[],[],[],[],[],[],[],0.4358,0,195.4119,195.9088,,,,,,670,MAS,CON,150,huevo,,l,0.4358,,195.9089,195.9091,0.393518519,-0.27037037,0,0,0,,0,19,19,219,1,,,,
,,,,,,76636d9eb55d34291d639c89,66a626ef09d4e21e1a8894ec,6734f03fc470b707af5d0878,2024-11-13_12h30.59.017,Tarea de género gramatical,2024.2.2,Win32,60.97560976,,,,,,,,,,,,,,,,,,,,,,,,195.9117,197.4106,a,0,[],[],[],[],[],[],[],0.8197,0,197.4108,197.9086,,,,,,890,FEM,DIS,150,patada,el,a,0.8197,,197.9122,197.9147,0.393518519,-0.27037037,0,0,0,,0,20,20,439,1,,,,
,,,,,,76636d9eb55d34291d639c89,66a626ef09d4e21e1a8894ec,6734f03fc470b707af5d0878,2024-11-13_12h30.59.017,Tarea de género gramatical,2024.2.2,Win32,60.97560976,,,,,,,,,,,,,,,,,,,,,,,,197.9168,199.2283,a,1,[],[],[],[],[],[],[],0.6381,1,199.23,199.7253,,,,,,509,MAS,DIS,150,lobo,la,l,0.6381,,199.7255,199.7258,0.393518519,-0.27037037,0,0,0,,0,21,21,58,1,,,,
,,,,,,76636d9eb55d34291d639c89,66a626ef09d4e21e1a8894ec,6734f03fc470b707af5d0878,2024-11-13_12h30.59.017,Tarea de género gramatical,2024.2.2,Win32,60.97560976,,,,,,,,,,,,,,,,,,,,,,,,199.7281,200.8277,l,1,[],[],[],[],[],[],[],0.4215,1,200.8279,201.3257,,,,,,559,FEM,CON,150,gota,,a,0.4215,,201.3259,201.3261,0.393518519,-0.27037037,0,0,0,,0,22,22,108,1,,,,
,,,,,,76636d9eb55d34291d639c89,66a626ef09d4e21e1a8894ec,6734f03fc470b707af5d0878,2024-11-13_12h30.59.017,Tarea de género gramatical,2024.2.2,Win32,60.97560976,,,,,,,,,,,,,,,,,,,,,,,,201.3288,202.3433,l,1,[],[],[],[],[],[],[],0.3354,1,202.3436,202.8421,,,,,,681,FEM,AGR,150,bruja,la,a,0.3354,,202.8422,202.8424,0.393518519,-0.27037037,0,0,0,,0,23,23,230,1,,,,
,,,,,,76636d9eb55d34291d639c89,66a626ef09d4e21e1a8894ec,6734f03fc470b707af5d0878,2024-11-13_12h30.59.017,Tarea de género gramatical,2024.2.2,Win32,60.97560976,,,,,,,,,,,,,,,,,,,,,,,,202.8449,203.8776,l,1,[],[],[],[],[],[],[],0.3554,1,203.878,204.3759,,,,,,891,FEM,AGR,150,medida,la,a,0.3554,,204.3796,204.3815,0.393518519,-0.27037037,0,0,0,,0,24,24,440,1,,,,
,,,,,,76636d9eb55d34291d639c89,66a626ef09d4e21e1a8894ec,6734f03fc470b707af5d0878,2024-11-13_12h30.59.017,Tarea de género gramatical,2024.2.2,Win32,60.97560976,,,,,,,,,,,,,,,,,,,,,,,,204.3835,205.4103,a,1,[],[],[],[],[],[],[],0.3523,1,205.4104,205.9085,,,,,,724,MAS,CON,150,motor,,l,0.3523,,205.9087,205.9089,0.393518519,-0.27037037,0,0,0,,0,25,25,273,1,,,,
,,,,,,76636d9eb55d34291d639c89,66a626ef09d4e21e1a8894ec,6734f03fc470b707af5d0878,2024-11-13_12h30.59.017,Tarea de género gramatical,2024.2.2,Win32,60.97560976,,,,,,,,,,,,,,,,,,,,,,,,205.9114,207.1607,a,0,[],[],[],[],[],[],[],0.57,0,207.1625,207.6585,,,,,,758,FEM,DIS,150,semana,el,a,0.57,,207.6586,207.6589,0.393518519,-0.27037037,0,0,0,,0,26,26,307,1,,,,
,,,,,,76636d9eb55d34291d639c89,66a626ef09d4e21e1a8894ec,6734f03fc470b707af5d0878,2024-11-13_12h30.59.017,Tarea de género gramatical,2024.2.2,Win32,60.97560976,,,,,,,,,,,,,,,,,,,,,,,,207.6614,208.8434,a,1,[],[],[],[],[],[],[],0.5024,1,208.8454,209.342,,,,,,816,MAS,AGR,150,riesgo,el,l,0.5024,,209.3421,209.3423,0.393518519,-0.27037037,0,0,0,,0,27,27,365,1,,,,
,,,,,,76636d9eb55d34291d639c89,66a626ef09d4e21e1a8894ec,6734f03fc470b707af5d0878,2024-11-13_12h30.59.017,Tarea de género gramatical,2024.2.2,Win32,60.97560976,,,,,,,,,,,,,,,,,,,,,,,,209.3453,210.3654,l,1,[],[],[],[],[],[],[],0.3529,1,210.3659,210.8592,,,,,,495,FEM,AGR,150,isla,la,a,0.3529,,210.8594,210.8597,0.393518519,-0.27037037,0,0,0,,0,28,28,44,1,,,,
,,,,,,76636d9eb55d34291d639c89,66a626ef09d4e21e1a8894ec,6734f03fc470b707af5d0878,2024-11-13_12h30.59.017,Tarea de género gramatical,2024.2.2,Win32,60.97560976,,,,,,,,,,,,,,,,,,,,,,,,210.8638,211.8322,l,1,[],[],[],[],[],[],[],0.2931,1,211.8324,212.3241,,,,,,733,FEM,CON,150,pluma,,a,0.2931,,212.3279,212.33,0.393518519,-0.27037037,0,0,0,,0,29,29,282,1,,,,
,,,,,,76636d9eb55d34291d639c89,66a626ef09d4e21e1a8894ec,6734f03fc470b707af5d0878,2024-11-13_12h30.59.017,Tarea de género gramatical,2024.2.2,Win32,60.97560976,,,,,,,,,,,,,,,,,,,,,,,,212.3323,213.3601,l,0,[],[],[],[],[],[],[],0.3513,0,213.3624,213.856,,,,,,648,MAS,AGR,150,hotel,el,l,0.3513,,213.8567,213.8573,0.393518519,-0.27037037,0,0,0,,0,30,30,197,1,,,,
,,,,,,76636d9eb55d34291d639c89,66a626ef09d4e21e1a8894ec,6734f03fc470b707af5d0878,2024-11-13_12h30.59.017,Tarea de género gramatical,2024.2.2,Win32,60.97560976,,,,,,,,,,,,,,,,,,,,,,,,213.8599,214.946,a,1,[],[],[],[],[],[],[],0.4148,1,214.9486,215.4252,,,,,,610,MAS,CON,150,señor,,l,0.4148,,215.4253,215.4258,0.393518519,-0.27037037,0,0,0,,0,31,31,159,1,,,,
,,,,,,76636d9eb55d34291d639c89,66a626ef09d4e21e1a8894ec,6734f03fc470b707af5d0878,2024-11-13_12h30.59.017,Tarea de género gramatical,2024.2.2,Win32,60.97560976,,,,,,,,,,,,,,,,,,,,,,,,215.4291,216.4284,a,1,[],[],[],[],[],[],[],0.319,1,216.4289,216.9313,,,,,,514,MAS,CON,150,saco,,l,0.319,,216.9314,216.9316,0.393518519,-0.27037037,0,0,0,,0,32,32,63,1,,,,
,,,,,,76636d9eb55d34291d639c89,66a626ef09d4e21e1a8894ec,6734f03fc470b707af5d0878,2024-11-13_12h30.59.017,Tarea de género gramatical,2024.2.2,Win32,60.97560976,,,,,,,,,,,,,,,,,,,,,,,,216.9347,217.9475,l,1,[],[],[],[],[],[],[],0.3357,1,217.9481,218.4554,,,,,,541,FEM,CON,150,hoja,,a,0.3357,,218.4601,218.4623,0.393518519,-0.27037037,0,0,0,,0,33,33,90,1,,,,
,,,,,,76636d9eb55d34291d639c89,66a626ef09d4e21e1a8894ec,6734f03fc470b707af5d0878,2024-11-13_12h30.59.017,Tarea de género gramatical,2024.2.2,Win32,60.97560976,,,,,,,,,,,,,,,,,,,,,,,,218.4646,219.4816,l,1,[],[],[],[],[],[],[],0.3355,1,219.4822,219.9746,,,,,,553,FEM,CON,150,fama,,a,0.3355,,219.9747,219.9749,0.393518519,-0.27037037,0,0,0,,0,34,34,102,1,,,,
,,,,,,76636d9eb55d34291d639c89,66a626ef09d4e21e1a8894ec,6734f03fc470b707af5d0878,2024-11-13_12h30.59.017,Tarea de género gramatical,2024.2.2,Win32,60.97560976,,,,,,,,,,,,,,,,,,,,,,,,219.9789,221.0099,a,1,[],[],[],[],[],[],[],0.352,1,221.0101,221.5061,,,,,,730,MAS,CON,150,salón,,l,0.352,,221.5067,221.5073,0.393518519,-0.27037037,0,0,0,,0,35,35,279,1,,,,
,,,,,,76636d9eb55d34291d639c89,66a626ef09d4e21e1a8894ec,6734f03fc470b707af5d0878,2024-11-13_12h30.59.017,Tarea de género gramatical,2024.2.2,Win32,60.97560976,,,,,,,,,,,,,,,,,,,,,,,,221.51,222.6774,a,1,[],[],[],[],[],[],[],0.4884,1,222.6775,223.1792,,,,,,474,MAS,AGR,150,voto,el,l,0.4884,,223.1794,223.1797,0.393518519,-0.27037037,0,0,0,,0,36,36,23,1,,,,
,,,,,,76636d9eb55d34291d639c89,66a626ef09d4e21e1a8894ec,6734f03fc470b707af5d0878,2024-11-13_12h30.59.017,Tarea de género gramatical,2024.2.2,Win32,60.97560976,,,,,,,,,,,,,,,,,,,,,,,,223.1829,224.3332,a,1,[],[],[],[],[],[],[],0.4705,1,224.3335,224.8273,,,,,,714,MAS,AGR,150,pollo,el,l,0.4705,,224.8273,224.8275,0.393518519,-0.27037037,0,0,0,,0,37,37,263,1,,,,
,,,,,,76636d9eb55d34291d639c89,66a626ef09d4e21e1a8894ec,6734f03fc470b707af5d0878,2024-11-13_12h30.59.017,Tarea de género gramatical,2024.2.2,Win32,60.97560976,,,,,,,,,,,,,,,,,,,,,,,,224.8307,225.8955,a,1,[],[],[],[],[],[],[],0.3865,1,225.8959,226.3971,,,,,,719,MAS,DIS,150,primo,la,l,0.3865,,226.4013,226.4034,0.393518519,-0.27037037,0,0,0,,0,38,38,268,1,,,,
,,,,,,76636d9eb55d34291d639c89,66a626ef09d4e21e1a8894ec,6734f03fc470b707af5d0878,2024-11-13_12h30.59.017,Tarea de género gramatical,2024.2.2,Win32,60.97560976,,,,,,,,,,,,,,,,,,,,,,,,226.4058,227.5406,a,1,[],[],[],[],[],[],[],0.4607,1,227.5414,228.0447,,,,,,798,MAS,AGR,150,anillo,el,l,0.4607,,228.0449,228.0451,0.393518519,-0.27037037,0,0,0,,0,39,39,347,1,,,,
,,,,,,76636d9eb55d34291d639c89,66a626ef09d4e21e1a8894ec,6734f03fc470b707af5d0878,2024-11-13_12h30.59.017,Tarea de género gramatical,2024.2.2,Win32,60.97560976,,,,,,,,,,,,,,,,,,,,,,,,228.0485,229.0975,l,1,[],[],[],[],[],[],[],0.3677,1,229.0979,229.591,,,,,,554,FEM,DIS,150,vela,el,a,0.3677,,229.5911,229.5913,0.393518519,-0.27037037,0,0,0,,0,40,40,103,1,,,,
,,,,,,76636d9eb55d34291d639c89,66a626ef09d4e21e1a8894ec,6734f03fc470b707af5d0878,2024-11-13_12h30.59.017,Tarea de género gramatical,2024.2.2,Win32,60.97560976,,,,,,,,,,,,,,,,,,,,,,,,229.5937,230.6315,l,1,[],[],[],[],[],[],[],0.3687,1,230.6318,231.1236,,,,,,650,FEM,DIS,150,silla,el,a,0.3687,,231.1237,231.124,0.393518519,-0.27037037,0,0,0,,0,41,41,199,1,,,,
,,,,,,76636d9eb55d34291d639c89,66a626ef09d4e21e1a8894ec,6734f03fc470b707af5d0878,2024-11-13_12h30.59.017,Tarea de género gramatical,2024.2.2,Win32,60.97560976,,,,,,,,,,,,,,,,,,,,,,,,231.1279,232.4467,l,1,[],[],[],[],[],[],[],0.6505,1,232.4473,232.9445,,,,,,861,FEM,AGR,150,actriz,la,a,0.6505,,232.9461,232.9479,0.393518519,-0.27037037,0,0,0,,0,42,42,410,1,,,,
,,,,,,76636d9eb55d34291d639c89,66a626ef09d4e21e1a8894ec,6734f03fc470b707af5d0878,2024-11-13_12h30.59.017,Tarea de género gramatical,2024.2.2,Win32,60.97560976,,,,,,,,,,,,,,,,,,,,,,,,232.9489,234.3437,l,1,[],[],[],[],[],[],[],0.7181,1,234.3441,234.8471,,,,,,711,FEM,AGR,150,cueva,la,a,0.7181,,234.8472,234.8476,0.393518519,-0.27037037,0,0,0,,0,43,43,260,1,,,,
,,,,,,76636d9eb55d34291d639c89,66a626ef09d4e21e1a8894ec,6734f03fc470b707af5d0878,2024-11-13_12h30.59.017,Tarea de género gramatical,2024.2.2,Win32,60.97560976,,,,,,,,,,,,,,,,,,,,,,,,234.8507,235.996,a,1,[],[],[],[],[],[],[],0.4702,1,235.9963,236.4927,,,,,,600,MAS,AGR,150,mozo,el,l,0.4702,,236.4928,236.4931,0.393518519,-0.27037037,0,0,0,,0,44,44,149,1,,,,
,,,,,,76636d9eb55d34291d639c89,66a626ef09d4e21e1a8894ec,6734f03fc470b707af5d0878,2024-11-13_12h30.59.017,Tarea de género gramatical,2024.2.2,Win32,60.97560976,,,,,,,,,,,,,,,,,,,,,,,,236.4963,237.4976,l,1,[],[],[],[],[],[],[],0.3228,1,237.4978,237.9917,,,,,,727,FEM,CON,150,plaza,,a,0.3228,,237.9918,237.992,0.393518519,-0.27037037,0,0,0,,0,45,45,276,1,,,,
,,,,,,76636d9eb55d34291d639c89,66a626ef09d4e21e1a8894ec,6734f03fc470b707af5d0878,2024-11-13_12h30.59.017,Tarea de género gramatical,2024.2.2,Win32,60.97560976,,,,,,,,,,,,,,,,,,,,,,,,237.9952,239.0622,a,1,[],[],[],[],[],[],[],0.3857,1,239.0627,239.5559,,,,,,659,MAS,DIS,150,banco,la,l,0.3857,,239.5561,239.5567,0.393518519,-0.27037037,0,0,0,,0,46,46,208,1,,,,
,,,,,,76636d9eb55d34291d639c89,66a626ef09d4e21e1a8894ec,6734f03fc470b707af5d0878,2024-11-13_12h30.59.017,Tarea de género gramatical,2024.2.2,Win32,60.97560976,,,,,,,,,,,,,,,,,,,,,,,,239.56,240.5949,a,1,[],[],[],[],[],[],[],0.3642,1,240.5959,241.0974,,,,,,472,MAS,CON,150,pelo,,l,0.3642,,241.1012,241.1034,0.393518519,-0.27037037,0,0,0,,0,47,47,21,1,,,,
,,,,,,76636d9eb55d34291d639c89,66a626ef09d4e21e1a8894ec,6734f03fc470b707af5d0878,2024-11-13_12h30.59.017,Tarea de género gramatical,2024.2.2,Win32,60.97560976,,,,,,,,,,,,,,,,,,,,,,,,241.1057,242.1566,a,1,[],[],[],[],[],[],[],0.384,1,242.1569,242.657,,,,,,702,MAS,AGR,150,viejo,el,l,0.384,,242.6572,242.6574,0.393518519,-0.27037037,0,0,0,,0,48,48,251,1,,,,
,,,,,,76636d9eb55d34291d639c89,66a626ef09d4e21e1a8894ec,6734f03fc470b707af5d0878,2024-11-13_12h30.59.017,Tarea de género gramatical,2024.2.2,Win32,60.97560976,,,,,,,,,,,,,,,,,,,,,,,,242.6607,243.711,l,1,[],[],[],[],[],[],[],0.3846,1,243.7112,244.2129,,,,,,801,FEM,AGR,150,espada,la,a,0.3846,,244.2131,244.2133,0.393518519,-0.27037037,0,0,0,,0,49,49,350,1,,,,
,,,,,,76636d9eb55d34291d639c89,66a626ef09d4e21e1a8894ec,6734f03fc470b707af5d0878,2024-11-13_12h30.59.017,Tarea de género gramatical,2024.2.2,Win32,60.97560976,,,,,,,,,,,,,,,,,,,,,,,,244.2173,245.7061,a,1,[],[],[],[],[],[],[],0.817,1,245.7068,246.2109,,,,,,671,MAS,DIS,150,brazo,la,l,0.817,,246.2111,246.2114,0.393518519,-0.27037037,0,0,0,,0,50,50,220,1,,,,
,,,,,,76636d9eb55d34291d639c89,66a626ef09d4e21e1a8894ec,6734f03fc470b707af5d0878,2024-11-13_12h30.59.017,Tarea de género gramatical,2024.2.2,Win32,60.97560976,,,,,,,,,,,,,,,,,,,,,,,,246.2146,247.2625,a,1,[],[],[],[],[],[],[],0.3699,1,247.2627,247.7658,,,,,,820,MAS,CON,150,seguro,,l,0.3699,,247.7693,247.771,0.393518519,-0.27037037,0,0,0,,0,51,51,369,1,,,,
,,,,,,76636d9eb55d34291d639c89,66a626ef09d4e21e1a8894ec,6734f03fc470b707af5d0878,2024-11-13_12h30.59.017,Tarea de género gramatical,2024.2.2,Win32,60.97560976,,,,,,,,,,,,,,,,,,,,,,,,247.7748,248.7947,l,1,[],[],[],[],[],[],[],0.3522,1,248.7953,249.2971,,,,,,583,FEM,CON,150,joya,,a,0.3522,,249.2972,249.2975,0.393518519,-0.27037037,0,0,0,,0,52,52,132,1,,,,
,,,,,,76636d9eb55d34291d639c89,66a626ef09d4e21e1a8894ec,6734f03fc470b707af5d0878,2024-11-13_12h30.59.017,Tarea de género gramatical,2024.2.2,Win32,60.97560976,,,,,,,,,,,,,,,,,,,,,,,,249.3006,250.2808,a,1,[],[],[],[],[],[],[],0.2997,1,250.2813,250.7892,,,,,,563,MAS,DIS,150,toro,la,l,0.2997,,250.7894,250.79,0.393518519,-0.27037037,0,0,0,,0,53,53,112,1,,,,
,,,,,,76636d9eb55d34291d639c89,66a626ef09d4e21e1a8894ec,6734f03fc470b707af5d0878,2024-11-13_12h30.59.017,Tarea de género gramatical,2024.2.2,Win32,60.97560976,,,,,,,,,,,,,,,,,,,,,,,,250.7933,251.9485,l,1,[],[],[],[],[],[],[],0.4875,1,251.949,252.4454,,,,,,897,FEM,AGR,150,lógica,la,a,0.4875,,252.4457,252.446,0.393518519,-0.27037037,0,0,0,,0,54,54,446,1,,,,
,,,,,,76636d9eb55d34291d639c89,66a626ef09d4e21e1a8894ec,6734f03fc470b707af5d0878,2024-11-13_12h30.59.017,Tarea de género gramatical,2024.2.2,Win32,60.97560976,,,,,,,,,,,,,,,,,,,,,,,,252.4494,253.6312,a,1,[],[],[],[],[],[],[],0.5161,1,253.6315,254.1086,,,,,,682,MAS,CON,150,calor,,l,0.5161,,254.1088,254.1091,0.393518519,-0.27037037,0,0,0,,0,55,55,231,1,,,,
,,,,,,76636d9eb55d34291d639c89,66a626ef09d4e21e1a8894ec,6734f03fc470b707af5d0878,2024-11-13_12h30.59.017,Tarea de género gramatical,2024.2.2,Win32,60.97560976,,,,,,,,,,,,,,,,,,,,,,,,254.1124,255.2808,l,1,[],[],[],[],[],[],[],0.4904,1,255.281,255.7754,,,,,,765,FEM,AGR,150,manera,la,a,0.4904,,255.7782,255.7804,0.393518519,-0.27037037,0,0,0,,0,56,56,314,1,,,,
,,,,,,76636d9eb55d34291d639c89,66a626ef09d4e21e1a8894ec,6734f03fc470b707af5d0878,2024-11-13_12h30.59.017,Tarea de género gramatical,2024.2.2,Win32,60.97560976,,,,,,,,,,,,,,,,,,,,,,,,255.7827,256.8782,a,1,[],[],[],[],[],[],[],0.4207,1,256.8785,257.3751,,,,,,588,MAS,AGR,150,luto,el,l,0.4207,,257.3752,257.3755,0.393518519,-0.27037037,0,0,0,,0,57,57,137,1,,,,
,,,,,,76636d9eb55d34291d639c89,66a626ef09d4e21e1a8894ec,6734f03fc470b707af5d0878,2024-11-13_12h30.59.017,Tarea de género gramatical,2024.2.2,Win32,60.97560976,,,,,,,,,,,,,,,,,,,,,,,,257.3778,258.4771,l,1,[],[],[],[],[],[],[],0.4195,1,258.4774,258.9759,,,,,,853,FEM,CON,150,paliza,,a,0.4195,,258.9771,258.9775,0.393518519,-0.27037037,0,0,0,,0,58,58,402,1,,,,
,,,,,,76636d9eb55d34291d639c89,66a626ef09d4e21e1a8894ec,6734f03fc470b707af5d0878,2024-11-13_12h30.59.017,Tarea de género gramatical,2024.2.2,Win32,60.97560976,,,,,,,,,,,,,,,,,,,,,,,,258.9796,259.9601,l,1,[],[],[],[],[],[],[],0.3023,1,259.9603,260.4588,,,,,,535,FEM,CON,150,gira,,a,0.3023,,260.459,260.4592,0.393518519,-0.27037037,0,0,0,,0,59,59,84,1,,,,
,,,,,,76636d9eb55d34291d639c89,66a626ef09d4e21e1a8894ec,6734f03fc470b707af5d0878,2024-11-13_12h30.59.017,Tarea de género gramatical,2024.2.2,Win32,60.97560976,,,,,,,,,,,,,,,,,,,,,,,,260.4616,261.8778,a,0,[],[],[],[],[],[],[],0.7372,0,261.8796,262.3756,,,,,,854,FEM,DIS,150,gloria,el,a,0.7372,,262.3786,262.3808,0.393518519,-0.27037037,0,0,0,,0,60,60,403,1,,,,
,,,,,,76636d9eb55d34291d639c89,66a626ef09d4e21e1a8894ec,6734f03fc470b707af5d0878,2024-11-13_12h30.59.017,Tarea de género gramatical,2024.2.2,Win32,60.97560976,,,,,,,,,,,,,,,,,,,,,,,,262.3832,263.4782,l,0,[],[],[],[],[],[],[],0.4201,0,263.4784,263.9754,,,,,,647,MAS,DIS,150,avión,la,l,0.4201,,263.9755,263.9757,0.393518519,-0.27037037,0,0,0,,0,61,61,196,1,,,,
,,,,,,76636d9eb55d34291d639c89,66a626ef09d4e21e1a8894ec,6734f03fc470b707af5d0878,2024-11-13_12h30.59.017,Tarea de género gramatical,2024.2.2,Win32,60.97560976,,,,,,,,,,,,,,,,,,,,,,,,263.9781,265.3245,a,0,[],[],[],[],[],[],[],0.6671,0,265.3247,265.8253,,,,,,704,FEM,DIS,150,caída,el,a,0.6671,,265.8255,265.8257,0.393518519,-0.27037037,0,0,0,,0,62,62,253,1,,,,
,,,,,,76636d9eb55d34291d639c89,66a626ef09d4e21e1a8894ec,6734f03fc470b707af5d0878,2024-11-13_12h30.59.017,Tarea de género gramatical,2024.2.2,Win32,60.97560976,,,,,,,,,,,,,,,,,,,,,,,,265.8281,267.0603,l,1,[],[],[],[],[],[],[],0.5522,1,267.0618,267.559,,,,,,687,FEM,AGR,150,ducha,la,a,0.5522,,267.5592,267.5594,0.393518519,-0.27037037,0,0,0,,0,63,63,236,1,,,,
,,,,,,76636d9eb55d34291d639c89,66a626ef09d4e21e1a8894ec,6734f03fc470b707af5d0878,2024-11-13_12h30.59.017,Tarea de género gramatical,2024.2.2,Win32,60.97560976,,,,,,,,,,,,,,,,,,,,,,,,267.5622,268.6619,l,0,[],[],[],[],[],[],[],0.4219,0,268.6636,269.1585,,,,,,874,MAS,CON,150,rastro,,l,0.4219,,269.1585,269.1588,0.393518519,-0.27037037,0,0,0,,0,64,64,423,1,,,,
,,,,,,76636d9eb55d34291d639c89,66a626ef09d4e21e1a8894ec,6734f03fc470b707af5d0878,2024-11-13_12h30.59.017,Tarea de género gramatical,2024.2.2,Win32,60.97560976,,,,,,,,,,,,,,,,,,,,,,,,269.1612,270.6283,a,0,[],[],[],[],[],[],[],0.7879,0,270.6285,271.1253,,,,,,644,FEM,DIS,150,banda,el,a,0.7879,,271.1284,271.1304,0.393518519,-0.27037037,0,0,0,,0,65,65,193,1,,,,
,,,,,,76636d9eb55d34291d639c89,66a626ef09d4e21e1a8894ec,6734f03fc470b707af5d0878,2024-11-13_12h30.59.017,Tarea de género gramatical,2024.2.2,Win32,60.97560976,,,,,,,,,,,,,,,,,,,,,,,,271.1328,272.2268,l,1,[],[],[],[],[],[],[],0.4188,1,272.2285,272.7256,,,,,,835,FEM,CON,150,muñeca,,a,0.4188,,272.7258,272.7259,0.393518519,-0.27037037,0,0,0,,0,66,66,384,1,,,,
,,,,,,76636d9eb55d34291d639c89,66a626ef09d4e21e1a8894ec,6734f03fc470b707af5d0878,2024-11-13_12h30.59.017,Tarea de género gramatical,2024.2.2,Win32,60.97560976,,,,,,,,,,,,,,,,,,,,,,,,272.7283,273.7938,l,1,[],[],[],[],[],[],[],0.3862,1,273.794,274.2934,,,,,,698,FEM,DIS,150,letra,el,a,0.3862,,274.2934,274.2936,0.393518519,-0.27037037,0,0,0,,0,67,67,247,1,,,,
,,,,,,76636d9eb55d34291d639c89,66a626ef09d4e21e1a8894ec,6734f03fc470b707af5d0878,2024-11-13_12h30.59.017,Tarea de género gramatical,2024.2.2,Win32,60.97560976,,,,,,,,,,,,,,,,,,,,,,,,274.2961,275.3623,l,1,[],[],[],[],[],[],[],0.3894,1,275.3626,275.8586,,,,,,849,FEM,AGR,150,charla,la,a,0.3894,,275.8588,275.859,0.393518519,-0.27037037,0,0,0,,0,68,68,398,1,,,,
,,,,,,76636d9eb55d34291d639c89,66a626ef09d4e21e1a8894ec,6734f03fc470b707af5d0878,2024-11-13_12h30.59.017,Tarea de género gramatical,2024.2.2,Win32,60.97560976,,,,,,,,,,,,,,,,,,,,,,,,275.8615,276.8935,a,1,[],[],[],[],[],[],[],0.3524,1,276.8937,277.3921,,,,,,546,MAS,AGR,150,pato,el,l,0.3524,,277.3949,277.3968,0.393518519,-0.27037037,0,0,0,,0,69,69,95,1,,,,
,,,,,,76636d9eb55d34291d639c89,66a626ef09d4e21e1a8894ec,6734f03fc470b707af5d0878,2024-11-13_12h30.59.017,Tarea de género gramatical,2024.2.2,Win32,60.97560976,,,,,,,,,,,,,,,,,,,,,,,,277.3991,278.5103,a,1,[],[],[],[],[],[],[],0.4357,1,278.5105,279.0084,,,,,,635,MAS,DIS,150,sueño,la,l,0.4357,,279.0085,279.0087,0.393518519,-0.27037037,0,0,0,,0,70,70,184,1,,,,
,,,,,,76636d9eb55d34291d639c89,66a626ef09d4e21e1a8894ec,6734f03fc470b707af5d0878,2024-11-13_12h30.59.017,Tarea de género gramatical,2024.2.2,Win32,60.97560976,,,,,,,,,,,,,,,,,,,,,,,,279.0112,280.1435,a,0,[],[],[],[],[],[],[],0.4521,0,280.1452,280.6459,,,,,,481,FEM,CON,150,edad,,a,0.4521,,280.646,280.6462,0.393518519,-0.27037037,0,0,0,,0,71,71,30,1,,,,
,,,,,,76636d9eb55d34291d639c89,66a626ef09d4e21e1a8894ec,6734f03fc470b707af5d0878,2024-11-13_12h30.59.017,Tarea de género gramatical,2024.2.2,Win32,60.97560976,,,,,,,,,,,,,,,,,,,,,,,,280.6487,281.827,a,1,[],[],[],[],[],[],[],0.5022,1,281.8286,282.3254,,,,,,664,MAS,CON,150,fondo,,l,0.5022,,282.3255,282.3257,0.393518519,-0.27037037,0,0,0,,0,72,72,213,1,,,,
,,,,,,76636d9eb55d34291d639c89,66a626ef09d4e21e1a8894ec,6734f03fc470b707af5d0878,2024-11-13_12h30.59.017,Tarea de género gramatical,2024.2.2,Win32,60.97560976,,,,,,,,,,,,,,,,,,,,,,,,282.3283,283.5433,a,1,[],[],[],[],[],[],[],0.5357,1,283.5435,284.042,,,,,,569,MAS,DIS,150,mito,la,l,0.5357,,284.0421,284.0423,0.393518519,-0.27037037,0,0,0,,0,73,73,118,1,,,,
,,,,,,76636d9eb55d34291d639c89,66a626ef09d4e21e1a8894ec,6734f03fc470b707af5d0878,2024-11-13_12h30.59.017,Tarea de género gramatical,2024.2.2,Win32,60.97560976,,,,,,,,,,,,,,,,,,,,,,,,284.0448,285.0937,a,1,[],[],[],[],[],[],[],0.3684,1,285.094,285.592,,,,,,888,MAS,AGR,150,tanque,el,l,0.3684,,285.5949,285.5974,0.393518519,-0.27037037,0,0,0,,0,74,74,437,1,,,,
,,,,,,76636d9eb55d34291d639c89,66a626ef09d4e21e1a8894ec,6734f03fc470b707af5d0878,2024-11-13_12h30.59.017,Tarea de género gramatical,2024.2.2,Win32,60.97560976,,,,,,,,,,,,,,,,,,,,,,,,285.5996,286.6606,l,1,[],[],[],[],[],[],[],0.3865,1,286.6608,287.1592,,,,,,524,FEM,DIS,150,flor,el,a,0.3865,,287.1593,287.1596,0.393518519,-0.27037037,0,0,0,,0,75,75,73,1,,,,
,,,,,,76636d9eb55d34291d639c89,66a626ef09d4e21e1a8894ec,6734f03fc470b707af5d0878,2024-11-13_12h30.59.017,Tarea de género gramatical,2024.2.2,Win32,60.97560976,,,,,,,,,,,,,,,,,,,,,,,,287.1619,288.4101,a,0,[],[],[],[],[],[],[],0.5688,0,288.4117,288.9085,,,,,,668,FEM,DIS,150,nieve,el,a,0.5688,,288.9086,288.9089,0.393518519,-0.27037037,0,0,0,,0,76,76,217,1,,,,
,,,,,,76636d9eb55d34291d639c89,66a626ef09d4e21e1a8894ec,6734f03fc470b707af5d0878,2024-11-13_12h30.59.017,Tarea de género gramatical,2024.2.2,Win32,60.97560976,,,,,,,,,,,,,,,,,,,,,,,,288.9112,290.5937,l,0,[],[],[],[],[],[],[],1.0028,0,290.5939,291.0921,,,,,,784,MAS,CON,150,ataque,,l,1.0028,,291.0923,291.0925,0.393518519,-0.27037037,0,0,0,,0,77,77,333,1,,,,
,,,,,,76636d9eb55d34291d639c89,66a626ef09d4e21e1a8894ec,6734f03fc470b707af5d0878,2024-11-13_12h30.59.017,Tarea de género gramatical,2024.2.2,Win32,60.97560976,,,,,,,,,,,,,,,,,,,,,,,,291.095,292.5606,a,1,[],[],[],[],[],[],[],0.7864,1,292.5623,293.0588,,,,,,804,MAS,AGR,150,camión,el,l,0.7864,,293.0615,293.0636,0.393518519,-0.27037037,0,0,0,,0,78,78,353,1,,,,
,,,,,,76636d9eb55d34291d639c89,66a626ef09d4e21e1a8894ec,6734f03fc470b707af5d0878,2024-11-13_12h30.59.017,Tarea de género gramatical,2024.2.2,Win32,60.97560976,,,,,,,,,,,,,,,,,,,,,,,,293.0673,294.1937,a,1,[],[],[],[],[],[],[],0.4529,1,294.1939,294.6924,,,,,,876,MAS,AGR,150,pánico,el,l,0.4529,,294.6925,294.6927,0.393518519,-0.27037037,0,0,0,,0,79,79,425,1,,,,
,,,,,,76636d9eb55d34291d639c89,66a626ef09d4e21e1a8894ec,6734f03fc470b707af5d0878,2024-11-13_12h30.59.017,Tarea de género gramatical,2024.2.2,Win32,60.97560976,,,,,,,,,,,,,,,,,,,,,,,,294.695,295.7436,a,1,[],[],[],[],[],[],[],0.3696,1,295.7439,296.2433,,,,,,790,MAS,CON,150,pasado,,l,0.3696,,296.2434,296.2436,0.393518519,-0.27037037,0,0,0,,0,80,80,339,1,,,,
,,,,,,76636d9eb55d34291d639c89,66a626ef09d4e21e1a8894ec,6734f03fc470b707af5d0878,2024-11-13_12h30.59.017,Tarea de género gramatical,2024.2.2,Win32,60.97560976,,,,,,,,,,,,,,,,,,,,,,,,296.2459,297.5937,a,1,[],[],[],[],[],[],[],0.6694,1,297.5939,298.092,,,,,,863,MAS,DIS,150,diario,la,l,0.6694,,298.0921,298.0924,0.393518519,-0.27037037,0,0,0,,0,81,81,412,1,,,,
,,,,,,76636d9eb55d34291d639c89,66a626ef09d4e21e1a8894ec,6734f03fc470b707af5d0878,2024-11-13_12h30.59.017,Tarea de género gramatical,2024.2.2,Win32,60.97560976,,,,,,,,,,,,,,,,,,,,,,,,298.0947,299.1607,l,1,[],[],[],[],[],[],[],0.3862,1,299.1608,299.6589,,,,,,697,FEM,CON,150,frase,,a,0.3862,,299.6591,299.6593,0.393518519,-0.27037037,0,0,0,,0,82,82,246,1,,,,
,,,,,,76636d9eb55d34291d639c89,66a626ef09d4e21e1a8894ec,6734f03fc470b707af5d0878,2024-11-13_12h30.59.017,Tarea de género gramatical,2024.2.2,Win32,60.97560976,,,,,,,,,,,,,,,,,,,,,,,,299.6617,300.8753,l,1,[],[],[],[],[],[],[],0.5344,1,300.8756,301.3753,,,,,,633,FEM,AGR,150,llave,la,a,0.5344,,301.3782,301.3802,0.393518519,-0.27037037,0,0,0,,0,83,83,182,1,,,,
,,,,,,76636d9eb55d34291d639c89,66a626ef09d4e21e1a8894ec,6734f03fc470b707af5d0878,2024-11-13_12h30.59.017,Tarea de género gramatical,2024.2.2,Win32,60.97560976,,,,,,,,,,,,,,,,,,,,,,,,301.3826,302.4602,l,1,[],[],[],[],[],[],[],0.4016,1,302.4603,302.9587,,,,,,675,FEM,AGR,150,pieza,la,a,0.4016,,302.9589,302.959,0.393518519,-0.27037037,0,0,0,,0,84,84,224,1,,,,
,,,,,,76636d9eb55d34291d639c89,66a626ef09d4e21e1a8894ec,6734f03fc470b707af5d0878,2024-11-13_12h30.59.017,Tarea de género gramatical,2024.2.2,Win32,60.97560976,,,,,,,,,,,,,,,,,,,,,,,,302.9615,304.0268,a,1,[],[],[],[],[],[],[],0.3854,1,304.027,304.5254,,,,,,605,MAS,DIS,150,mundo,la,l,0.3854,,304.5255,304.5257,0.393518519,-0.27037037,0,0,0,,0,85,85,154,1,,,,
,,,,,,76636d9eb55d34291d639c89,66a626ef09d4e21e1a8894ec,6734f03fc470b707af5d0878,2024-11-13_12h30.59.017,Tarea de género gramatical,2024.2.2,Win32,60.97560976,,,,,,,,,,,,,,,,,,,,,,,,304.5281,305.6769,l,1,[],[],[],[],[],[],[],0.469,1,305.677,306.176,,,,,,542,FEM,DIS,150,masa,el,a,0.469,,306.1762,306.1764,0.393518519,-0.27037037,0,0,0,,0,86,86,91,1,,,,
,,,,,,76636d9eb55d34291d639c89,66a626ef09d4e21e1a8894ec,6734f03fc470b707af5d0878,2024-11-13_12h30.59.017,Tarea de género gramatical,2024.2.2,Win32,60.97560976,,,,,,,,,,,,,,,,,,,,,,,,306.1787,307.3267,a,0,[],[],[],[],[],[],[],0.4689,0,307.3284,307.8259,,,,,,470,FEM,DIS,150,ropa,el,a,0.4689,,307.8287,307.8306,0.393518519,-0.27037037,0,0,0,,0,87,87,19,1,,,,
,,,,,,76636d9eb55d34291d639c89,66a626ef09d4e21e1a8894ec,6734f03fc470b707af5d0878,2024-11-13_12h30.59.017,Tarea de género gramatical,2024.2.2,Win32,60.97560976,,,,,,,,,,,,,,,,,,,,,,,,307.8329,309.1602,a,1,[],[],[],[],[],[],[],0.6524,1,309.1618,309.6587,,,,,,797,MAS,DIS,150,cuello,la,l,0.6524,,309.6588,309.659,0.393518519,-0.27037037,0,0,0,,0,88,88,346,1,,,,
,,,,,,76636d9eb55d34291d639c89,66a626ef09d4e21e1a8894ec,6734f03fc470b707af5d0878,2024-11-13_12h30.59.017,Tarea de género gramatical,2024.2.2,Win32,60.97560976,,,,,,,,,,,,,,,,,,,,,,,,309.6615,310.8268,a,1,[],[],[],[],[],[],[],0.4855,1,310.8271,311.3241,,,,,,629,MAS,DIS,150,viaje,la,l,0.4855,,311.3242,311.3242,0.393518519,-0.27037037,0,0,0,,0,89,89,178,1,,,,
,,,,,,76636d9eb55d34291d639c89,66a626ef09d4e21e1a8894ec,6734f03fc470b707af5d0878,2024-11-13_12h30.59.017,Tarea de género gramatical,2024.2.2,Win32,60.97560976,,,,,,,,,,,,,,,,,,,,,,,,311.3266,312.6273,a,0,[],[],[],[],[],[],[],0.6191,0,312.6292,313.1256,,,,,,529,FEM,CON,150,mina,,a,0.6191,,313.1256,313.1259,0.393518519,-0.27037037,0,0,0,,0,90,90,78,1,,,,
,,,,,,76636d9eb55d34291d639c89,66a626ef09d4e21e1a8894ec,6734f03fc470b707af5d0878,2024-11-13_12h30.59.017,Tarea de género gramatical,2024.2.2,Win32,60.97560976,,,,,,,,,,,,,,,,,,,,,,,,313.1282,314.4433,l,1,[],[],[],[],[],[],[],0.6355,1,314.445,314.9424,,,,,,781,FEM,CON,150,cárcel,,a,0.6355,,314.9425,314.9428,0.393518519,-0.27037037,0,0,0,,0,91,91,330,1,,,,
,,,,,,76636d9eb55d34291d639c89,66a626ef09d4e21e1a8894ec,6734f03fc470b707af5d0878,2024-11-13_12h30.59.017,Tarea de género gramatical,2024.2.2,Win32,60.97560976,,,,,,,,,,,,,,,,,,,,,,,,314.9453,316.127,l,1,[],[],[],[],[],[],[],0.502,1,316.1272,316.6257,,,,,,651,FEM,AGR,150,leche,la,a,0.502,,316.6284,316.6305,0.393518519,-0.27037037,0,0,0,,0,92,92,200,1,,,,
,,,,,,76636d9eb55d34291d639c89,66a626ef09d4e21e1a8894ec,6734f03fc470b707af5d0878,2024-11-13_12h30.59.017,Tarea de género gramatical,2024.2.2,Win32,60.97560976,,,,,,,,,,,,,,,,,,,,,,,,316.6327,318.1103,a,1,[],[],[],[],[],[],[],0.8026,1,318.1105,318.6085,,,,,,731,MAS,DIS,150,actor,la,l,0.8026,,318.6087,318.6089,0.393518519,-0.27037037,0,0,0,,0,93,93,280,1,,,,
,,,,,,76636d9eb55d34291d639c89,66a626ef09d4e21e1a8894ec,6734f03fc470b707af5d0878,2024-11-13_12h30.59.017,Tarea de género gramatical,2024.2.2,Win32,60.97560976,,,,,,,,,,,,,,,,,,,,,,,,318.6113,320.0267,a,1,[],[],[],[],[],[],[],0.7354,1,320.0269,320.5256,,,,,,840,MAS,AGR,150,rostro,el,l,0.7354,,320.5257,320.5259,0.393518519,-0.27037037,0,0,0,,0,94,94,389,1,,,,
,,,,,,76636d9eb55d34291d639c89,66a626ef09d4e21e1a8894ec,6734f03fc470b707af5d0878,2024-11-13_12h30.59.017,Tarea de género gramatical,2024.2.2,Win32,60.97560976,,,,,,,,,,,,,,,,,,,,,,,,320.5282,321.5911,l,1,[],[],[],[],[],[],[],0.3833,1,321.5912,322.0922,,,,,,722,FEM,DIS,150,oreja,el,a,0.3833,,322.0923,322.0925,0.393518519,-0.27037037,0,0,0,,0,95,95,271,1,,,,
,,,,,,76636d9eb55d34291d639c89,66a626ef09d4e21e1a8894ec,6734f03fc470b707af5d0878,2024-11-13_12h30.59.017,Tarea de género gramatical,2024.2.2,Win32,60.97560976,,,,,,,,,,,,,,,,,,,,,,,,322.095,323.1272,l,1,[],[],[],[],[],[],[],0.353,1,323.1274,323.6251,,,,,,531,FEM,AGR,150,cima,la,a,0.353,,323.6277,323.6296,0.393518519,-0.27037037,0,0,0,,0,96,96,80,1,,,,
,,,,,,76636d9eb55d34291d639c89,66a626ef09d4e21e1a8894ec,6734f03fc470b707af5d0878,2024-11-13_12h30.59.017,Tarea de género gramatical,2024.2.2,Win32,60.97560976,,,,,,,,,,,,,,,,,,,,,,,,323.632,324.6936,l,1,[],[],[],[],[],[],[],0.3856,1,324.6938,325.1919,,,,,,645,FEM,AGR,150,pared,la,a,0.3856,,325.192,325.1923,0.393518519,-0.27037037,0,0,0,,0,97,97,194,1,,,,
,,,,,,76636d9eb55d34291d639c89,66a626ef09d4e21e1a8894ec,6734f03fc470b707af5d0878,2024-11-13_12h30.59.017,Tarea de género gramatical,2024.2.2,Win32,60.97560976,,,,,,,,,,,,,,,,,,,,,,,,325.1948,326.3439,l,1,[],[],[],[],[],[],[],0.4697,1,326.3441,326.8423,,,,,,842,FEM,DIS,150,maleta,el,a,0.4697,,326.8424,326.8427,0.393518519,-0.27037037,0,0,0,,0,98,98,391,1,,,,
,,,,,,76636d9eb55d34291d639c89,66a626ef09d4e21e1a8894ec,6734f03fc470b707af5d0878,2024-11-13_12h30.59.017,Tarea de género gramatical,2024.2.2,Win32,60.97560976,,,,,,,,,,,,,,,,,,,,,,,,326.845,327.9103,l,1,[],[],[],[],[],[],[],0.3862,1,327.9106,328.4087,,,,,,561,FEM,AGR,150,goma,la,a,0.3862,,328.4088,328.409,0.393518519,-0.27037037,0,0,0,,0,99,99,110,1,,,,
,,,,,,76636d9eb55d34291d639c89,66a626ef09d4e21e1a8894ec,6734f03fc470b707af5d0878,2024-11-13_12h30.59.017,Tarea de género gramatical,2024.2.2,Win32,60.97560976,,,,,,,,,,,,,,,,,,,,,,,,328.4115,329.5269,a,0,[],[],[],[],[],[],[],0.4353,0,329.5284,330.0255,,,,,,692,FEM,DIS,150,pizza,el,a,0.4353,,330.0256,330.0258,0.393518519,-0.27037037,0,0,0,,0,100,100,241,1,,,,
,,,,,,76636d9eb55d34291d639c89,66a626ef09d4e21e1a8894ec,6734f03fc470b707af5d0878,2024-11-13_12h30.59.017,Tarea de género gramatical,2024.2.2,Win32,60.97560976,,,,,,,,,,,,,,,,,,,,,,,,330.0282,331.1767,l,1,[],[],[],[],[],[],[],0.4695,1,331.1786,331.6753,,,,,,584,FEM,DIS,150,rama,el,a,0.4695,,331.678,331.6798,0.393518519,-0.27037037,0,0,0,,0,101,101,133,1,,,,
,,,,,,76636d9eb55d34291d639c89,66a626ef09d4e21e1a8894ec,6734f03fc470b707af5d0878,2024-11-13_12h30.59.017,Tarea de género gramatical,2024.2.2,Win32,60.97560976,,,,,,,,,,,,,,,,,,,,,,,,331.6822,332.8939,a,1,[],[],[],[],[],[],[],0.5363,1,332.8939,333.3926,,,,,,630,MAS,AGR,150,fuego,el,l,0.5363,,333.3927,333.393,0.393518519,-0.27037037,0,0,0,,0,102,102,179,1,,,,
,,,,,,76636d9eb55d34291d639c89,66a626ef09d4e21e1a8894ec,6734f03fc470b707af5d0878,2024-11-13_12h30.59.017,Tarea de género gramatical,2024.2.2,Win32,60.97560976,,,,,,,,,,,,,,,,,,,,,,,,333.3953,334.6101,l,1,[],[],[],[],[],[],[],0.5515,1,334.6103,335.1089,,,,,,457,FEM,CON,150,hora,,a,0.5515,,335.1089,335.1092,0.393518519,-0.27037037,0,0,0,,0,103,103,6,1,,,,
,,,,,,76636d9eb55d34291d639c89,66a626ef09d4e21e1a8894ec,6734f03fc470b707af5d0878,2024-11-13_12h30.59.017,Tarea de género gramatical,2024.2.2,Win32,60.97560976,,,,,,,,,,,,,,,,,,,,,,,,335.1118,336.2119,l,1,[],[],[],[],[],[],[],0.4223,1,336.2121,336.7085,,,,,,475,FEM,CON,150,nave,,a,0.4223,,336.7086,336.7088,0.393518519,-0.27037037,0,0,0,,0,104,104,24,1,,,,
,,,,,,76636d9eb55d34291d639c89,66a626ef09d4e21e1a8894ec,6734f03fc470b707af5d0878,2024-11-13_12h30.59.017,Tarea de género gramatical,2024.2.2,Win32,60.97560976,,,,,,,,,,,,,,,,,,,,,,,,336.7115,338.077,a,1,[],[],[],[],[],[],[],0.6854,1,338.0771,338.5758,,,,,,641,MAS,DIS,150,dolor,la,l,0.6854,,338.5785,338.5805,0.393518519,-0.27037037,0,0,0,,0,105,105,190,1,,,,
,,,,,,76636d9eb55d34291d639c89,66a626ef09d4e21e1a8894ec,6734f03fc470b707af5d0878,2024-11-13_12h30.59.017,Tarea de género gramatical,2024.2.2,Win32,60.97560976,,,,,,,,,,,,,,,,,,,,,,,,338.5828,339.7439,l,1,[],[],[],[],[],[],[],0.4864,1,339.744,340.2422,,,,,,549,FEM,AGR,150,fase,la,a,0.4864,,340.2422,340.2425,0.393518519,-0.27037037,0,0,0,,0,106,106,98,1,,,,
,,,,,,76636d9eb55d34291d639c89,66a626ef09d4e21e1a8894ec,6734f03fc470b707af5d0878,2024-11-13_12h30.59.017,Tarea de género gramatical,2024.2.2,Win32,60.97560976,,,,,,,,,,,,,,,,,,,,,,,,340.2448,341.3935,a,1,[],[],[],[],[],[],[],0.4695,1,341.3937,341.892,,,,,,772,MAS,CON,150,minuto,,l,0.4695,,341.8921,341.8923,0.393518519,-0.27037037,0,0,0,,0,107,107,321,1,,,,
,,,,,,76636d9eb55d34291d639c89,66a626ef09d4e21e1a8894ec,6734f03fc470b707af5d0878,2024-11-13_12h30.59.017,Tarea de género gramatical,2024.2.2,Win32,60.97560976,,,,,,,,,,,,,,,,,,,,,,,,341.8949,342.9937,l,1,[],[],[],[],[],[],[],0.419,1,342.9938,343.4921,,,,,,855,FEM,AGR,150,parada,la,a,0.419,,343.4922,343.4925,0.393518519,-0.27037037,0,0,0,,0,108,108,404,1,,,,
,,,,,,76636d9eb55d34291d639c89,66a626ef09d4e21e1a8894ec,6734f03fc470b707af5d0878,2024-11-13_12h30.59.017,Tarea de género gramatical,2024.2.2,Win32,60.97560976,,,,,,,,,,,,,,,,,,,,,,,,343.4949,344.6122,l,1,[],[],[],[],[],[],[],0.4387,1,344.6123,345.1105,,,,,,813,FEM,AGR,150,unidad,la,a,0.4387,,345.1106,345.1107,0.393518519,-0.27037037,0,0,0,,0,109,109,362,1,,,,
,,,,,,76636d9eb55d34291d639c89,66a626ef09d4e21e1a8894ec,6734f03fc470b707af5d0878,2024-11-13_12h30.59.017,Tarea de género gramatical,2024.2.2,Win32,60.97560976,,,,,,,,,,,,,,,,,,,,,,,,345.1133,346.1608,l,1,[],[],[],[],[],[],[],0.3695,1,346.1609,346.6586,,,,,,771,FEM,AGR,150,comida,la,a,0.3695,,346.6612,346.6632,0.393518519,-0.27037037,0,0,0,,0,110,110,320,1,,,,
,,,,,,76636d9eb55d34291d639c89,66a626ef09d4e21e1a8894ec,6734f03fc470b707af5d0878,2024-11-13_12h30.59.017,Tarea de género gramatical,2024.2.2,Win32,60.97560976,,,,,,,,,,,,,,,,,,,,,,,,346.6654,347.7934,a,1,[],[],[],[],[],[],[],0.4521,1,347.7936,348.2936,,,,,,893,MAS,DIS,150,templo,la,l,0.4521,,348.2936,348.2938,0.393518519,-0.27037037,0,0,0,,0,111,111,442,1,,,,
,,,,,,76636d9eb55d34291d639c89,66a626ef09d4e21e1a8894ec,6734f03fc470b707af5d0878,2024-11-13_12h30.59.017,Tarea de género gramatical,2024.2.2,Win32,60.97560976,,,,,,,,,,,,,,,,,,,,,,,,348.2964,349.5764,a,1,[],[],[],[],[],[],[],0.6019,1,349.5767,350.0753,,,,,,707,MAS,DIS,150,pecho,la,l,0.6019,,350.0753,350.0757,0.393518519,-0.27037037,0,0,0,,0,112,112,256,1,,,,
,,,,,,76636d9eb55d34291d639c89,66a626ef09d4e21e1a8894ec,6734f03fc470b707af5d0878,2024-11-13_12h30.59.017,Tarea de género gramatical,2024.2.2,Win32,60.97560976,,,,,,,,,,,,,,,,,,,,,,,,350.0783,351.41,l,1,[],[],[],[],[],[],[],0.6524,1,351.4103,351.9086,,,,,,831,FEM,AGR,150,bebida,la,a,0.6524,,351.9087,351.9089,0.393518519,-0.27037037,0,0,0,,0,113,113,380,1,,,,
,,,,,,76636d9eb55d34291d639c89,66a626ef09d4e21e1a8894ec,6734f03fc470b707af5d0878,2024-11-13_12h30.59.017,Tarea de género gramatical,2024.2.2,Win32,60.97560976,,,,,,,,,,,,,,,,,,,,,,,,351.9112,352.9269,l,1,[],[],[],[],[],[],[],0.3358,1,352.9272,353.4254,,,,,,625,FEM,CON,150,señal,,a,0.3358,,353.4281,353.4299,0.393518519,-0.27037037,0,0,0,,0,114,114,174,1,,,,
,,,,,,76636d9eb55d34291d639c89,66a626ef09d4e21e1a8894ec,6734f03fc470b707af5d0878,2024-11-13_12h30.59.017,Tarea de género gramatical,2024.2.2,Win32,60.97560976,,,,,,,,,,,,,,,,,,,,,,,,353.4322,354.5434,a,1,[],[],[],[],[],[],[],0.4358,1,354.5436,355.0419,,,,,,486,MAS,AGR,150,dedo,el,l,0.4358,,355.042,355.0422,0.393518519,-0.27037037,0,0,0,,0,115,115,35,1,,,,
,,,,,,76636d9eb55d34291d639c89,66a626ef09d4e21e1a8894ec,6734f03fc470b707af5d0878,2024-11-13_12h30.59.017,Tarea de género gramatical,2024.2.2,Win32,60.97560976,,,,,,,,,,,,,,,,,,,,,,,,355.0445,356.1271,a,1,[],[],[],[],[],[],[],0.4196,1,356.1273,356.6257,,,,,,652,MAS,CON,150,honor,,l,0.4196,,356.6259,356.626,0.393518519,-0.27037037,0,0,0,,0,116,116,201,1,,,,
,,,,,,76636d9eb55d34291d639c89,66a626ef09d4e21e1a8894ec,6734f03fc470b707af5d0878,2024-11-13_12h30.59.017,Tarea de género gramatical,2024.2.2,Win32,60.97560976,,,,,,,,,,,,,,,,,,,,,,,,356.6282,357.6949,l,1,[],[],[],[],[],[],[],0.3876,1,357.6951,358.192,,,,,,847,FEM,CON,150,cuerda,,a,0.3876,,358.1921,358.1924,0.393518519,-0.27037037,0,0,0,,0,117,117,396,1,,,,
,,,,,,76636d9eb55d34291d639c89,66a626ef09d4e21e1a8894ec,6734f03fc470b707af5d0878,2024-11-13_12h30.59.017,Tarea de género gramatical,2024.2.2,Win32,60.97560976,,,,,,,,,,,,,,,,,,,,,,,,358.1948,359.5438,a,1,[],[],[],[],[],[],[],0.6689,1,359.544,360.0423,,,,,,468,MAS,AGR,150,tren,el,l,0.6689,,360.0425,360.0427,0.393518519,-0.27037037,0,0,0,,0,118,118,17,1,,,,
,,,,,,76636d9eb55d34291d639c89,66a626ef09d4e21e1a8894ec,6734f03fc470b707af5d0878,2024-11-13_12h30.59.017,Tarea de género gramatical,2024.2.2,Win32,60.97560976,,,,,,,,,,,,,,,,,,,,,,,,360.0452,361.1437,a,1,[],[],[],[],[],[],[],0.4184,1,361.1438,361.6408,,,,,,744,MAS,AGR,150,cable,el,l,0.4184,,361.6426,361.6435,0.393518519,-0.27037037,0,0,0,,0,119,119,293,1,,,,
,,,,,,76636d9eb55d34291d639c89,66a626ef09d4e21e1a8894ec,6734f03fc470b707af5d0878,2024-11-13_12h30.59.017,Tarea de género gramatical,2024.2.2,Win32,60.97560976,,,,,,,,,,,,,,,,,,,,,,,,361.6448,362.7108,l,1,[],[],[],[],[],[],[],0.3846,1,362.7111,363.2087,,,,,,597,FEM,AGR,150,grúa,la,a,0.3846,,363.2088,363.209,0.393518519,-0.27037037,0,0,0,,0,120,120,146,1,,,,
,,,,,,76636d9eb55d34291d639c89,66a626ef09d4e21e1a8894ec,6734f03fc470b707af5d0878,2024-11-13_12h30.59.017,Tarea de género gramatical,2024.2.2,Win32,60.97560976,,,,,,,,,,,,,,,,,,,,,,,,363.2114,364.2939,l,0,[],[],[],[],[],[],[],0.4037,0,364.2957,364.7924,,,,,,672,MAS,AGR,150,valor,el,l,0.4037,,364.7926,364.7927,0.393518519,-0.27037037,0,0,0,,0,121,121,221,1,,,,
,,,,,,76636d9eb55d34291d639c89,66a626ef09d4e21e1a8894ec,6734f03fc470b707af5d0878,2024-11-13_12h30.59.017,Tarea de género gramatical,2024.2.2,Win32,60.97560976,,,,,,,,,,,,,,,,,,,,,,,,364.7961,366.0782,a,1,[],[],[],[],[],[],[],0.605,1,366.0797,366.5756,,,,,,666,MAS,AGR,150,éxito,el,l,0.605,,366.5758,366.5762,0.393518519,-0.27037037,0,0,0,,0,122,122,215,1,,,,
,,,,,,76636d9eb55d34291d639c89,66a626ef09d4e21e1a8894ec,6734f03fc470b707af5d0878,2024-11-13_12h30.59.017,Tarea de género gramatical,2024.2.2,Win32,60.97560976,,,,,,,,,,,,,,,,,,,,,,,,366.5784,367.7449,a,1,[],[],[],[],[],[],[],0.4877,1,367.7451,368.2424,,,,,,622,MAS,CON,150,poder,,l,0.4877,,368.2451,368.247,0.393518519,-0.27037037,0,0,0,,0,123,123,171,1,,,,
,,,,,,76636d9eb55d34291d639c89,66a626ef09d4e21e1a8894ec,6734f03fc470b707af5d0878,2024-11-13_12h30.59.017,Tarea de género gramatical,2024.2.2,Win32,60.97560976,,,,,,,,,,,,,,,,,,,,,,,,368.2491,369.3769,l,1,[],[],[],[],[],[],[],0.4523,1,369.3771,369.8753,,,,,,477,FEM,AGR,150,mesa,la,a,0.4523,,369.8755,369.8757,0.393518519,-0.27037037,0,0,0,,0,124,124,26,1,,,,
,,,,,,76636d9eb55d34291d639c89,66a626ef09d4e21e1a8894ec,6734f03fc470b707af5d0878,2024-11-13_12h30.59.017,Tarea de género gramatical,2024.2.2,Win32,60.97560976,,,,,,,,,,,,,,,,,,,,,,,,369.878,371.1104,a,1,[],[],[],[],[],[],[],0.5523,1,371.1106,371.6083,,,,,,574,MAS,CON,150,clan,,l,0.5523,,371.6084,371.6086,0.393518519,-0.27037037,0,0,0,,0,125,125,123,1,,,,
,,,,,,76636d9eb55d34291d639c89,66a626ef09d4e21e1a8894ec,6734f03fc470b707af5d0878,2024-11-13_12h30.59.017,Tarea de género gramatical,2024.2.2,Win32,60.97560976,,,,,,,,,,,,,,,,,,,,,,,,371.6111,374.2584,,0,[],[],[],[],[],[],[],0.5523,-1,374.2604,374.7587,,,,,,693,FEM,AGR,150,salsa,la,a,,,374.7589,374.759,0.393518519,-0.27037037,0,0,0,,0,126,126,242,1,,,,
,,,,,,76636d9eb55d34291d639c89,66a626ef09d4e21e1a8894ec,6734f03fc470b707af5d0878,2024-11-13_12h30.59.017,Tarea de género gramatical,2024.2.2,Win32,60.97560976,,,,,,,,,,,,,,,,,,,,,,,,374.7612,375.7607,l,1,[],[],[],[],[],[],[],0.3197,1,375.7626,376.2586,,,,,,721,FEM,CON,150,viuda,,a,0.3197,,376.2588,376.259,0.393518519,-0.27037037,0,0,0,,0,127,127,270,1,,,,
,,,,,,76636d9eb55d34291d639c89,66a626ef09d4e21e1a8894ec,6734f03fc470b707af5d0878,2024-11-13_12h30.59.017,Tarea de género gramatical,2024.2.2,Win32,60.97560976,,,,,,,,,,,,,,,,,,,,,,,,376.2614,377.36,l,1,[],[],[],[],[],[],[],0.419,1,377.3603,377.8582,,,,,,603,FEM,AGR,150,mujer,la,a,0.419,,377.8609,377.8629,0.393518519,-0.27037037,0,0,0,,0,128,128,152,1,,,,
,,,,,,76636d9eb55d34291d639c89,66a626ef09d4e21e1a8894ec,6734f03fc470b707af5d0878,2024-11-13_12h30.59.017,Tarea de género gramatical,2024.2.2,Win32,60.97560976,,,,,,,,,,,,,,,,,,,,,,,,377.8653,378.8616,l,1,[],[],[],[],[],[],[],0.3218,1,378.8618,379.3589,,,,,,657,FEM,AGR,150,playa,la,a,0.3218,,379.359,379.3592,0.393518519,-0.27037037,0,0,0,,0,129,129,206,1,,,,
,,,,,,76636d9eb55d34291d639c89,66a626ef09d4e21e1a8894ec,6734f03fc470b707af5d0878,2024-11-13_12h30.59.017,Tarea de género gramatical,2024.2.2,Win32,60.97560976,,,,,,,,,,,,,,,,,,,,,,,,379.3616,381.2433,l,1,[],[],[],[],[],[],[],1.2019,1,381.2437,381.7406,,,,,,740,FEM,DIS,150,cabra,el,a,1.2019,,381.7407,381.7409,0.393518519,-0.27037037,0,0,0,,0,130,130,289,1,,,,
,,,,,,76636d9eb55d34291d639c89,66a626ef09d4e21e1a8894ec,6734f03fc470b707af5d0878,2024-11-13_12h30.59.017,Tarea de género gramatical,2024.2.2,Win32,60.97560976,,,,,,,,,,,,,,,,,,,,,,,,381.7427,383.0938,l,1,[],[],[],[],[],[],[],0.6863,1,383.094,383.5925,,,,,,499,FEM,CON,150,piel,,a,0.6863,,383.5927,383.5929,0.393518519,-0.27037037,0,0,0,,0,131,131,48,1,,,,
,,,,,,76636d9eb55d34291d639c89,66a626ef09d4e21e1a8894ec,6734f03fc470b707af5d0878,2024-11-13_12h30.59.017,Tarea de género gramatical,2024.2.2,Win32,60.97560976,,,,,,,,,,,,,,,,,,,,,,,,383.5951,384.678,l,1,[],[],[],[],[],[],[],0.4036,1,384.6782,385.1751,,,,,,517,FEM,CON,150,miel,,a,0.4036,,385.1779,385.1799,0.393518519,-0.27037037,0,0,0,,0,132,132,66,1,,,,
,,,,,,76636d9eb55d34291d639c89,66a626ef09d4e21e1a8894ec,6734f03fc470b707af5d0878,2024-11-13_12h30.59.017,Tarea de género gramatical,2024.2.2,Win32,60.97560976,,,,,,,,,,,,,,,,,,,,,,,,385.1822,386.5268,l,1,[],[],[],[],[],[],[],0.6688,1,386.5269,387.0254,,,,,,590,FEM,DIS,150,mula,el,a,0.6688,,387.0255,387.026,0.393518519,-0.27037037,0,0,0,,0,133,133,139,1,,,,
,,,,,,76636d9eb55d34291d639c89,66a626ef09d4e21e1a8894ec,6734f03fc470b707af5d0878,2024-11-13_12h30.59.017,Tarea de género gramatical,2024.2.2,Win32,60.97560976,,,,,,,,,,,,,,,,,,,,,,,,387.0284,388.7603,l,1,[],[],[],[],[],[],[],1.0521,1,388.7607,389.2584,,,,,,548,FEM,DIS,150,fuga,el,a,1.0521,,389.2584,389.2586,0.393518519,-0.27037037,0,0,0,,0,134,134,97,1,,,,
,,,,,,76636d9eb55d34291d639c89,66a626ef09d4e21e1a8894ec,6734f03fc470b707af5d0878,2024-11-13_12h30.59.017,Tarea de género gramatical,2024.2.2,Win32,60.97560976,,,,,,,,,,,,,,,,,,,,,,,,389.2611,390.6942,l,1,[],[],[],[],[],[],[],0.7534,1,390.6944,391.192,,,,,,673,FEM,CON,150,plata,,a,0.7534,,391.1923,391.1924,0.393518519,-0.27037037,0,0,0,,0,135,135,222,1,,,,
,,,,,,76636d9eb55d34291d639c89,66a626ef09d4e21e1a8894ec,6734f03fc470b707af5d0878,2024-11-13_12h30.59.017,Tarea de género gramatical,2024.2.2,Win32,60.97560976,,,,,,,,,,,,,,,,,,,,,,,,391.1951,393.1768,l,1,[],[],[],[],[],[],[],1.3023,1,393.177,393.6757,,,,,,488,FEM,DIS,150,obra,el,a,1.3023,,393.6759,393.6762,0.393518519,-0.27037037,0,0,0,,0,136,136,37,1,,,,
,,,,,,76636d9eb55d34291d639c89,66a626ef09d4e21e1a8894ec,6734f03fc470b707af5d0878,2024-11-13_12h30.59.017,Tarea de género gramatical,2024.2.2,Win32,60.97560976,,,,,,,,,,,,,,,,,,,,,,,,393.6786,394.8943,l,1,[],[],[],[],[],[],[],0.5371,1,394.8945,395.3912,,,,,,843,FEM,AGR,150,alarma,la,a,0.5371,,395.3935,395.3947,0.393518519,-0.27037037,0,0,0,,0,137,137,392,1,,,,
,,,,,,76636d9eb55d34291d639c89,66a626ef09d4e21e1a8894ec,6734f03fc470b707af5d0878,2024-11-13_12h30.59.017,Tarea de género gramatical,2024.2.2,Win32,60.97560976,,,,,,,,,,,,,,,,,,,,,,,,395.396,396.8097,l,0,[],[],[],[],[],[],[],0.7349,0,396.8114,397.3088,,,,,,478,MAS,CON,150,club,,l,0.7349,,397.309,397.3091,0.393518519,-0.27037037,0,0,0,,0,138,138,27,1,,,,
,,,,,,76636d9eb55d34291d639c89,66a626ef09d4e21e1a8894ec,6734f03fc470b707af5d0878,2024-11-13_12h30.59.017,Tarea de género gramatical,2024.2.2,Win32,60.97560976,,,,,,,,,,,,,,,,,,,,,,,,397.3115,398.7611,l,1,[],[],[],[],[],[],[],0.7693,1,398.7628,399.2583,,,,,,465,FEM,AGR,150,cama,la,a,0.7693,,399.2584,399.2585,0.393518519,-0.27037037,0,0,0,,0,139,139,14,1,,,,
,,,,,,76636d9eb55d34291d639c89,66a626ef09d4e21e1a8894ec,6734f03fc470b707af5d0878,2024-11-13_12h30.59.017,Tarea de género gramatical,2024.2.2,Win32,60.97560976,,,,,,,,,,,,,,,,,,,,,,,,399.2611,401.9085,,0,[],[],[],[],[],[],[],0.7693,-1,401.9105,402.4087,,,,,,824,FEM,DIS,150,herida,el,a,,,402.4088,402.409,0.393518519,-0.27037037,0,0,0,,0,140,140,373,1,,,,
,,,,,,76636d9eb55d34291d639c89,66a626ef09d4e21e1a8894ec,6734f03fc470b707af5d0878,2024-11-13_12h30.59.017,Tarea de género gramatical,2024.2.2,Win32,60.97560976,,,,,,,,,,,,,,,,,,,,,,,,402.4114,405.0586,,0,[],[],[],[],[],[],[],0.7693,-1,405.0588,405.5589,,,,,,750,MAS,AGR,150,túnel,el,l,,,405.5617,405.5637,0.393518519,-0.27037037,0,0,0,,0,141,141,299,1,,,,
,,,,,,76636d9eb55d34291d639c89,66a626ef09d4e21e1a8894ec,6734f03fc470b707af5d0878,2024-11-13_12h30.59.017,Tarea de género gramatical,2024.2.2,Win32,60.97560976,,,,,,,,,,,,,,,,,,,,,,,,405.5661,406.9937,l,1,[],[],[],[],[],[],[],0.7524,1,406.9956,407.4922,,,,,,656,FEM,DIS,150,época,el,a,0.7524,,407.4924,407.4927,0.393518519,-0.27037037,0,0,0,,0,142,142,205,1,,,,
,,,,,,76636d9eb55d34291d639c89,66a626ef09d4e21e1a8894ec,6734f03fc470b707af5d0878,2024-11-13_12h30.59.017,Tarea de género gramatical,2024.2.2,Win32,60.97560976,,,,,,,,,,,,,,,,,,,,,,,,407.4951,408.6937,a,1,[],[],[],[],[],[],[],0.5192,1,408.6938,409.1921,,,,,,880,MAS,CON,150,título,,l,0.5192,,409.1922,409.1924,0.393518519,-0.27037037,0,0,0,,0,143,143,429,1,,,,
,,,,,,76636d9eb55d34291d639c89,66a626ef09d4e21e1a8894ec,6734f03fc470b707af5d0878,2024-11-13_12h30.59.017,Tarea de género gramatical,2024.2.2,Win32,60.97560976,,,,,,,,,,,,,,,,,,,,,,,,409.1949,410.208,l,1,[],[],[],[],[],[],[],0.3335,1,410.2081,410.7089,,,,,,837,FEM,AGR,150,página,la,a,0.3335,,410.709,410.7093,0.393518519,-0.27037037,0,0,0,,0,144,144,386,1,,,,
,,,,,,76636d9eb55d34291d639c89,66a626ef09d4e21e1a8894ec,6734f03fc470b707af5d0878,2024-11-13_12h30.59.017,Tarea de género gramatical,2024.2.2,Win32,60.97560976,,,,,,,,,,,,,,,,,,,,,,,,410.7115,411.7984,l,1,[],[],[],[],[],[],[],0.4083,1,411.7987,412.2935,,,,,,739,FEM,CON,150,tabla,,a,0.4083,,412.2936,412.2938,0.393518519,-0.27037037,0,0,0,,0,145,145,288,1,,,,
,,,,,,76636d9eb55d34291d639c89,66a626ef09d4e21e1a8894ec,6734f03fc470b707af5d0878,2024-11-13_12h30.59.017,Tarea de género gramatical,2024.2.2,Win32,60.97560976,,,,,,,,,,,,,,,,,,,,,,,,412.296,413.4613,l,0,[],[],[],[],[],[],[],0.4872,0,413.4629,413.9589,,,,,,580,MAS,CON,150,yate,,l,0.4872,,413.9616,413.9638,0.393518519,-0.27037037,0,0,0,,0,146,146,129,1,,,,
,,,,,,76636d9eb55d34291d639c89,66a626ef09d4e21e1a8894ec,6734f03fc470b707af5d0878,2024-11-13_12h30.59.017,Tarea de género gramatical,2024.2.2,Win32,60.97560976,,,,,,,,,,,,,,,,,,,,,,,,413.9663,415.1772,a,1,[],[],[],[],[],[],[],0.536,1,415.1789,415.6758,,,,,,694,MAS,CON,150,hielo,,l,0.536,,415.6758,415.676,0.393518519,-0.27037037,0,0,0,,0,147,147,243,1,,,,
,,,,,,76636d9eb55d34291d639c89,66a626ef09d4e21e1a8894ec,6734f03fc470b707af5d0878,2024-11-13_12h30.59.017,Tarea de género gramatical,2024.2.2,Win32,60.97560976,,,,,,,,,,,,,,,,,,,,,,,,415.6784,416.7937,l,1,[],[],[],[],[],[],[],0.4362,1,416.7939,417.2925,,,,,,819,FEM,AGR,150,camisa,la,a,0.4362,,417.2926,417.2928,0.393518519,-0.27037037,0,0,0,,0,148,148,368,1,,,,
,,,,,,76636d9eb55d34291d639c89,66a626ef09d4e21e1a8894ec,6734f03fc470b707af5d0878,2024-11-13_12h30.59.017,Tarea de género gramatical,2024.2.2,Win32,60.97560976,,,,,,,,,,,,,,,,,,,,,,,,417.295,418.427,a,0,[],[],[],[],[],[],[],0.4531,0,418.4286,418.9257,,,,,,476,FEM,DIS,150,pena,el,a,0.4531,,418.9259,418.9261,0.393518519,-0.27037037,0,0,0,,0,149,149,25,1,,,,
,,,,,,76636d9eb55d34291d639c89,66a626ef09d4e21e1a8894ec,6734f03fc470b707af5d0878,2024-11-13_12h30.59.017,Tarea de género gramatical,2024.2.2,Win32,60.97560976,,,,,,,,,,,,,,,,,,,,,,,,418.9283,420.2272,l,1,[],[],[],[],[],[],[],0.6195,1,420.2288,420.7257,,,,,,859,FEM,CON,150,moneda,,a,0.6195,,420.7289,500.0404,0.393518519,-0.27037037,0,0,0,space,0,150,150,408,1,79.2892,,,
,,,,,,76636d9eb55d34291d639c89,66a626ef09d4e21e1a8894ec,6734f03fc470b707af5d0878,2024-11-13_12h30.59.017,Tarea de género gramatical,2024.2.2,Win32,60.97560976,,,,,,,,,,,,,,,,,,,,,,,,500.0441,501.4408,a,0,[],[],[],[],[],[],[],0.7172,0,501.4435,501.941,,,,,,511,FEM,CON,150,ruta,,a,0.7172,,501.941,501.9413,0.393518519,-0.27037037,0,0,0,,0,151,151,60,1,,,,
,,,,,,76636d9eb55d34291d639c89,66a626ef09d4e21e1a8894ec,6734f03fc470b707af5d0878,2024-11-13_12h30.59.017,Tarea de género gramatical,2024.2.2,Win32,60.97560976,,,,,,,,,,,,,,,,,,,,,,,,501.9442,503.0746,l,1,[],[],[],[],[],[],[],0.4527,1,503.0777,503.5735,,,,,,745,FEM,CON,150,grasa,,a,0.4527,,503.5736,503.5736,0.393518519,-0.27037037,0,0,0,,0,152,152,294,1,,,,
,,,,,,76636d9eb55d34291d639c89,66a626ef09d4e21e1a8894ec,6734f03fc470b707af5d0878,2024-11-13_12h30.59.017,Tarea de género gramatical,2024.2.2,Win32,60.97560976,,,,,,,,,,,,,,,,,,,,,,,,503.5764,504.5901,l,1,[],[],[],[],[],[],[],0.3341,1,504.5902,505.09,,,,,,483,FEM,AGR,150,boda,la,a,0.3341,,505.0901,505.0903,0.393518519,-0.27037037,0,0,0,,0,153,153,32,1,,,,
,,,,,,76636d9eb55d34291d639c89,66a626ef09d4e21e1a8894ec,6734f03fc470b707af5d0878,2024-11-13_12h30.59.017,Tarea de género gramatical,2024.2.2,Win32,60.97560976,,,,,,,,,,,,,,,,,,,,,,,,505.0928,506.1902,a,1,[],[],[],[],[],[],[],0.4173,1,506.1903,506.6903,,,,,,833,MAS,DIS,150,parque,la,l,0.4173,,506.6903,506.6905,0.393518519,-0.27037037,0,0,0,,0,154,154,382,1,,,,
,,,,,,76636d9eb55d34291d639c89,66a626ef09d4e21e1a8894ec,6734f03fc470b707af5d0878,2024-11-13_12h30.59.017,Tarea de género gramatical,2024.2.2,Win32,60.97560976,,,,,,,,,,,,,,,,,,,,,,,,506.693,507.8577,l,1,[],[],[],[],[],[],[],0.487,1,507.8578,508.3569,,,,,,501,FEM,AGR,150,bala,la,a,0.487,,508.3589,508.3602,0.393518519,-0.27037037,0,0,0,,0,155,155,50,1,,,,
,,,,,,76636d9eb55d34291d639c89,66a626ef09d4e21e1a8894ec,6734f03fc470b707af5d0878,2024-11-13_12h30.59.017,Tarea de género gramatical,2024.2.2,Win32,60.97560976,,,,,,,,,,,,,,,,,,,,,,,,508.3613,509.3408,a,1,[],[],[],[],[],[],[],0.3008,1,509.341,509.8408,,,,,,623,MAS,DIS,150,libro,la,l,0.3008,,509.8409,509.8413,0.393518519,-0.27037037,0,0,0,,0,156,156,172,1,,,,
,,,,,,76636d9eb55d34291d639c89,66a626ef09d4e21e1a8894ec,6734f03fc470b707af5d0878,2024-11-13_12h30.59.017,Tarea de género gramatical,2024.2.2,Win32,60.97560976,,,,,,,,,,,,,,,,,,,,,,,,509.8446,510.9235,l,1,[],[],[],[],[],[],[],0.3998,1,510.9236,511.424,,,,,,525,FEM,AGR,150,caza,la,a,0.3998,,511.4242,511.4244,0.393518519,-0.27037037,0,0,0,,0,157,157,74,1,,,,
,,,,,,76636d9eb55d34291d639c89,66a626ef09d4e21e1a8894ec,6734f03fc470b707af5d0878,2024-11-13_12h30.59.017,Tarea de género gramatical,2024.2.2,Win32,60.97560976,,,,,,,,,,,,,,,,,,,,,,,,511.4282,512.4913,a,1,[],[],[],[],[],[],[],0.3857,1,512.4915,512.9906,,,,,,599,MAS,DIS,150,nudo,la,l,0.3857,,512.9907,512.991,0.393518519,-0.27037037,0,0,0,,0,158,158,148,1,,,,
,,,,,,76636d9eb55d34291d639c89,66a626ef09d4e21e1a8894ec,6734f03fc470b707af5d0878,2024-11-13_12h30.59.017,Tarea de género gramatical,2024.2.2,Win32,60.97560976,,,,,,,,,,,,,,,,,,,,,,,,512.9944,514.0747,a,1,[],[],[],[],[],[],[],0.4025,1,514.0748,514.5743,,,,,,504,MAS,AGR,150,humo,el,l,0.4025,,514.5777,514.5796,0.393518519,-0.27037037,0,0,0,,0,159,159,53,1,,,,
,,,,,,76636d9eb55d34291d639c89,66a626ef09d4e21e1a8894ec,6734f03fc470b707af5d0878,2024-11-13_12h30.59.017,Tarea de género gramatical,2024.2.2,Win32,60.97560976,,,,,,,,,,,,,,,,,,,,,,,,514.5818,515.6443,l,1,[],[],[],[],[],[],[],0.3881,1,515.6445,516.141,,,,,,788,FEM,DIS,150,abuela,el,a,0.3881,,516.141,516.1412,0.393518519,-0.27037037,0,0,0,,0,160,160,337,1,,,,
,,,,,,76636d9eb55d34291d639c89,66a626ef09d4e21e1a8894ec,6734f03fc470b707af5d0878,2024-11-13_12h30.59.017,Tarea de género gramatical,2024.2.2,Win32,60.97560976,,,,,,,,,,,,,,,,,,,,,,,,516.1443,517.1743,a,1,[],[],[],[],[],[],[],0.3513,1,517.1745,517.6743,,,,,,857,MAS,DIS,150,jurado,la,l,0.3513,,517.6744,517.6746,0.393518519,-0.27037037,0,0,0,,0,161,161,406,1,,,,
,,,,,,76636d9eb55d34291d639c89,66a626ef09d4e21e1a8894ec,6734f03fc470b707af5d0878,2024-11-13_12h30.59.017,Tarea de género gramatical,2024.2.2,Win32,60.97560976,,,,,,,,,,,,,,,,,,,,,,,,517.6777,518.6917,l,1,[],[],[],[],[],[],[],0.3349,1,518.692,519.1909,,,,,,530,FEM,DIS,150,vaca,el,a,0.3349,,519.1909,519.1913,0.393518519,-0.27037037,0,0,0,,0,162,162,79,1,,,,
,,,,,,76636d9eb55d34291d639c89,66a626ef09d4e21e1a8894ec,6734f03fc470b707af5d0878,2024-11-13_12h30.59.017,Tarea de género gramatical,2024.2.2,Win32,60.97560976,,,,,,,,,,,,,,,,,,,,,,,,519.1945,520.4747,a,0,[],[],[],[],[],[],[],0.6024,0,520.4776,520.9744,,,,,,608,FEM,DIS,150,chica,el,a,0.6024,,520.9745,520.9746,0.393518519,-0.27037037,0,0,0,,0,163,163,157,1,,,,
,,,,,,76636d9eb55d34291d639c89,66a626ef09d4e21e1a8894ec,6734f03fc470b707af5d0878,2024-11-13_12h30.59.017,Tarea de género gramatical,2024.2.2,Win32,60.97560976,,,,,,,,,,,,,,,,,,,,,,,,520.9777,522.1417,l,1,[],[],[],[],[],[],[],0.485,1,522.1439,522.6407,,,,,,811,FEM,CON,150,oferta,,a,0.485,,522.6442,522.6461,0.393518519,-0.27037037,0,0,0,,0,164,164,360,1,,,,
,,,,,,76636d9eb55d34291d639c89,66a626ef09d4e21e1a8894ec,6734f03fc470b707af5d0878,2024-11-13_12h30.59.017,Tarea de género gramatical,2024.2.2,Win32,60.97560976,,,,,,,,,,,,,,,,,,,,,,,,522.6481,523.6244,l,1,[],[],[],[],[],[],[],0.3015,1,523.6247,524.1241,,,,,,565,FEM,CON,150,seda,,a,0.3015,,524.1243,524.1245,0.393518519,-0.27037037,0,0,0,,0,165,165,114,1,,,,
,,,,,,76636d9eb55d34291d639c89,66a626ef09d4e21e1a8894ec,6734f03fc470b707af5d0878,2024-11-13_12h30.59.017,Tarea de género gramatical,2024.2.2,Win32,60.97560976,,,,,,,,,,,,,,,,,,,,,,,,524.1287,525.175,a,1,[],[],[],[],[],[],[],0.3681,1,525.1752,525.6742,,,,,,581,MAS,DIS,150,kilo,la,l,0.3681,,525.6744,525.6746,0.393518519,-0.27037037,0,0,0,,0,166,166,130,1,,,,
,,,,,,76636d9eb55d34291d639c89,66a626ef09d4e21e1a8894ec,6734f03fc470b707af5d0878,2024-11-13_12h30.59.017,Tarea de género gramatical,2024.2.2,Win32,60.97560976,,,,,,,,,,,,,,,,,,,,,,,,525.6778,526.6918,l,1,[],[],[],[],[],[],[],0.335,1,526.6919,527.1909,,,,,,777,FEM,AGR,150,tienda,la,a,0.335,,527.1911,527.1913,0.393518519,-0.27037037,0,0,0,,0,167,167,326,1,,,,
,,,,,,76636d9eb55d34291d639c89,66a626ef09d4e21e1a8894ec,6734f03fc470b707af5d0878,2024-11-13_12h30.59.017,Tarea de género gramatical,2024.2.2,Win32,60.97560976,,,,,,,,,,,,,,,,,,,,,,,,527.1945,528.374,a,0,[],[],[],[],[],[],[],0.5013,0,528.3759,528.8744,,,,,,662,FEM,DIS,150,cinta,el,a,0.5013,,528.8779,528.8797,0.393518519,-0.27037037,0,0,0,,0,168,168,211,1,,,,
,,,,,,76636d9eb55d34291d639c89,66a626ef09d4e21e1a8894ec,6734f03fc470b707af5d0878,2024-11-13_12h30.59.017,Tarea de género gramatical,2024.2.2,Win32,60.97560976,,,,,,,,,,,,,,,,,,,,,,,,528.882,530.1076,a,1,[],[],[],[],[],[],[],0.5514,1,530.1102,530.6076,,,,,,460,MAS,CON,150,niño,,l,0.5514,,530.6078,530.6079,0.393518519,-0.27037037,0,0,0,,0,169,169,9,1,,,,
,,,,,,76636d9eb55d34291d639c89,66a626ef09d4e21e1a8894ec,6734f03fc470b707af5d0878,2024-11-13_12h30.59.017,Tarea de género gramatical,2024.2.2,Win32,60.97560976,,,,,,,,,,,,,,,,,,,,,,,,530.611,531.6446,a,1,[],[],[],[],[],[],[],0.3547,1,531.6448,532.1407,,,,,,497,MAS,DIS,150,olor,la,l,0.3547,,532.1407,532.1411,0.393518519,-0.27037037,0,0,0,,0,170,170,46,1,,,,
,,,,,,76636d9eb55d34291d639c89,66a626ef09d4e21e1a8894ec,6734f03fc470b707af5d0878,2024-11-13_12h30.59.017,Tarea de género gramatical,2024.2.2,Win32,60.97560976,,,,,,,,,,,,,,,,,,,,,,,,532.1443,533.1918,a,1,[],[],[],[],[],[],[],0.3688,1,533.192,533.691,,,,,,640,MAS,CON,150,campo,,l,0.3688,,533.6911,533.6912,0.393518519,-0.27037037,0,0,0,,0,171,171,189,1,,,,
,,,,,,76636d9eb55d34291d639c89,66a626ef09d4e21e1a8894ec,6734f03fc470b707af5d0878,2024-11-13_12h30.59.017,Tarea de género gramatical,2024.2.2,Win32,60.97560976,,,,,,,,,,,,,,,,,,,,,,,,533.6943,534.7742,l,1,[],[],[],[],[],[],[],0.4013,1,534.7744,535.2743,,,,,,757,FEM,CON,150,suerte,,a,0.4013,,535.2745,535.2746,0.393518519,-0.27037037,0,0,0,,0,172,172,306,1,,,,
,,,,,,76636d9eb55d34291d639c89,66a626ef09d4e21e1a8894ec,6734f03fc470b707af5d0878,2024-11-13_12h30.59.017,Tarea de género gramatical,2024.2.2,Win32,60.97560976,,,,,,,,,,,,,,,,,,,,,,,,535.2778,536.4576,l,1,[],[],[],[],[],[],[],0.5012,1,536.458,536.9576,,,,,,789,FEM,AGR,150,salida,la,a,0.5012,,536.961,536.9631,0.393518519,-0.27037037,0,0,0,,0,173,173,338,1,,,,
,,,,,,76636d9eb55d34291d639c89,66a626ef09d4e21e1a8894ec,6734f03fc470b707af5d0878,2024-11-13_12h30.59.017,Tarea de género gramatical,2024.2.2,Win32,60.97560976,,,,,,,,,,,,,,,,,,,,,,,,536.9653,538.0752,l,1,[],[],[],[],[],[],[],0.4364,1,538.0756,538.5709,,,,,,631,FEM,CON,150,tarde,,a,0.4364,,538.5712,538.5716,0.393518519,-0.27037037,0,0,0,,0,174,174,180,1,,,,
,,,,,,76636d9eb55d34291d639c89,66a626ef09d4e21e1a8894ec,6734f03fc470b707af5d0878,2024-11-13_12h30.59.017,Tarea de género gramatical,2024.2.2,Win32,60.97560976,,,,,,,,,,,,,,,,,,,,,,,,538.5749,539.6895,a,1,[],[],[],[],[],[],[],0.4359,1,539.6902,540.1875,,,,,,592,MAS,CON,150,lodo,,l,0.4359,,540.1876,540.1881,0.393518519,-0.27037037,0,0,0,,0,175,175,141,1,,,,
,,,,,,76636d9eb55d34291d639c89,66a626ef09d4e21e1a8894ec,6734f03fc470b707af5d0878,2024-11-13_12h30.59.017,Tarea de género gramatical,2024.2.2,Win32,60.97560976,,,,,,,,,,,,,,,,,,,,,,,,540.1912,541.1569,l,1,[],[],[],[],[],[],[],0.285,1,541.1571,541.6543,,,,,,607,FEM,CON,150,madre,,a,0.285,,541.6544,541.6549,0.393518519,-0.27037037,0,0,0,,0,176,176,156,1,,,,
,,,,,,76636d9eb55d34291d639c89,66a626ef09d4e21e1a8894ec,6734f03fc470b707af5d0878,2024-11-13_12h30.59.017,Tarea de género gramatical,2024.2.2,Win32,60.97560976,,,,,,,,,,,,,,,,,,,,,,,,541.6586,542.7725,l,1,[],[],[],[],[],[],[],0.4357,1,542.7728,543.2709,,,,,,879,FEM,AGR,150,fianza,la,a,0.4357,,543.2745,543.2765,0.393518519,-0.27037037,0,0,0,,0,177,177,428,1,,,,
,,,,,,76636d9eb55d34291d639c89,66a626ef09d4e21e1a8894ec,6734f03fc470b707af5d0878,2024-11-13_12h30.59.017,Tarea de género gramatical,2024.2.2,Win32,60.97560976,,,,,,,,,,,,,,,,,,,,,,,,543.2787,544.3741,a,1,[],[],[],[],[],[],[],0.4166,1,544.3743,544.875,,,,,,732,MAS,AGR,150,bolso,el,l,0.4166,,544.8752,544.8754,0.393518519,-0.27037037,0,0,0,,0,178,178,281,1,,,,
,,,,,,76636d9eb55d34291d639c89,66a626ef09d4e21e1a8894ec,6734f03fc470b707af5d0878,2024-11-13_12h30.59.017,Tarea de género gramatical,2024.2.2,Win32,60.97560976,,,,,,,,,,,,,,,,,,,,,,,,544.8777,546.0248,a,1,[],[],[],[],[],[],[],0.468,1,546.0252,546.5253,,,,,,526,MAS,CON,150,lujo,,l,0.468,,546.5254,546.5256,0.393518519,-0.27037037,0,0,0,,0,179,179,75,1,,,,
,,,,,,76636d9eb55d34291d639c89,66a626ef09d4e21e1a8894ec,6734f03fc470b707af5d0878,2024-11-13_12h30.59.017,Tarea de género gramatical,2024.2.2,Win32,60.97560976,,,,,,,,,,,,,,,,,,,,,,,,546.5281,547.6931,a,1,[],[],[],[],[],[],[],0.4863,1,547.6933,548.1917,,,,,,665,MAS,DIS,150,hueso,la,l,0.4863,,548.1917,548.192,0.393518519,-0.27037037,0,0,0,,0,180,180,214,1,,,,
,,,,,,76636d9eb55d34291d639c89,66a626ef09d4e21e1a8894ec,6734f03fc470b707af5d0878,2024-11-13_12h30.59.017,Tarea de género gramatical,2024.2.2,Win32,60.97560976,,,,,,,,,,,,,,,,,,,,,,,,548.1946,549.2083,l,1,[],[],[],[],[],[],[],0.3349,1,549.2085,549.7084,,,,,,729,FEM,AGR,150,selva,la,a,0.3349,,549.7084,549.7086,0.393518519,-0.27037037,0,0,0,,0,181,181,278,1,,,,
,,,,,,76636d9eb55d34291d639c89,66a626ef09d4e21e1a8894ec,6734f03fc470b707af5d0878,2024-11-13_12h30.59.017,Tarea de género gramatical,2024.2.2,Win32,60.97560976,,,,,,,,,,,,,,,,,,,,,,,,549.7109,550.8256,a,1,[],[],[],[],[],[],[],0.4351,1,550.8259,551.3249,,,,,,466,MAS,CON,150,baño,,l,0.4351,,551.3285,551.3305,0.393518519,-0.27037037,0,0,0,,0,182,182,15,1,,,,
,,,,,,76636d9eb55d34291d639c89,66a626ef09d4e21e1a8894ec,6734f03fc470b707af5d0878,2024-11-13_12h30.59.017,Tarea de género gramatical,2024.2.2,Win32,60.97560976,,,,,,,,,,,,,,,,,,,,,,,,551.3325,552.2767,l,1,[],[],[],[],[],[],[],0.2703,1,552.2769,552.775,,,,,,489,FEM,AGR,150,luna,la,a,0.2703,,552.7751,552.7754,0.393518519,-0.27037037,0,0,0,,0,183,183,38,1,,,,
,,,,,,76636d9eb55d34291d639c89,66a626ef09d4e21e1a8894ec,6734f03fc470b707af5d0878,2024-11-13_12h30.59.017,Tarea de género gramatical,2024.2.2,Win32,60.97560976,,,,,,,,,,,,,,,,,,,,,,,,552.7783,553.8416,l,1,[],[],[],[],[],[],[],0.3849,1,553.8417,554.3417,,,,,,752,FEM,DIS,150,cabeza,el,a,0.3849,,554.3418,554.3419,0.393518519,-0.27037037,0,0,0,,0,184,184,301,1,,,,
,,,,,,76636d9eb55d34291d639c89,66a626ef09d4e21e1a8894ec,6734f03fc470b707af5d0878,2024-11-13_12h30.59.017,Tarea de género gramatical,2024.2.2,Win32,60.97560976,,,,,,,,,,,,,,,,,,,,,,,,554.3444,555.4249,l,1,[],[],[],[],[],[],[],0.4014,1,555.4251,555.9249,,,,,,589,FEM,CON,150,pipa,,a,0.4014,,555.9251,555.9253,0.393518519,-0.27037037,0,0,0,,0,185,185,138,1,,,,
,,,,,,76636d9eb55d34291d639c89,66a626ef09d4e21e1a8894ec,6734f03fc470b707af5d0878,2024-11-13_12h30.59.017,Tarea de género gramatical,2024.2.2,Win32,60.97560976,,,,,,,,,,,,,,,,,,,,,,,,555.9277,557.0083,a,1,[],[],[],[],[],[],[],0.4014,1,557.0085,557.5082,,,,,,484,MAS,CON,150,gato,,l,0.4014,,557.5109,557.5129,0.393518519,-0.27037037,0,0,0,,0,186,186,33,1,,,,
,,,,,,76636d9eb55d34291d639c89,66a626ef09d4e21e1a8894ec,6734f03fc470b707af5d0878,2024-11-13_12h30.59.017,Tarea de género gramatical,2024.2.2,Win32,60.97560976,,,,,,,,,,,,,,,,,,,,,,,,557.5152,558.5258,l,1,[],[],[],[],[],[],[],0.3353,1,558.526,559.025,,,,,,615,FEM,AGR,150,amiga,la,a,0.3353,,559.0252,559.0254,0.393518519,-0.27037037,0,0,0,,0,187,187,164,1,,,,
,,,,,,76636d9eb55d34291d639c89,66a626ef09d4e21e1a8894ec,6734f03fc470b707af5d0878,2024-11-13_12h30.59.017,Tarea de género gramatical,2024.2.2,Win32,60.97560976,,,,,,,,,,,,,,,,,,,,,,,,559.0284,560.0916,a,1,[],[],[],[],[],[],[],0.3847,1,560.0917,560.5916,,,,,,858,MAS,AGR,150,cheque,el,l,0.3847,,560.5916,560.5918,0.393518519,-0.27037037,0,0,0,,0,188,188,407,1,,,,
,,,,,,76636d9eb55d34291d639c89,66a626ef09d4e21e1a8894ec,6734f03fc470b707af5d0878,2024-11-13_12h30.59.017,Tarea de género gramatical,2024.2.2,Win32,60.97560976,,,,,,,,,,,,,,,,,,,,,,,,560.5945,561.643,a,1,[],[],[],[],[],[],[],0.3691,1,561.6433,562.1417,,,,,,760,MAS,CON,150,nombre,,l,0.3691,,562.1418,562.142,0.393518519,-0.27037037,0,0,0,,0,189,189,309,1,,,,
,,,,,,76636d9eb55d34291d639c89,66a626ef09d4e21e1a8894ec,6734f03fc470b707af5d0878,2024-11-13_12h30.59.017,Tarea de género gramatical,2024.2.2,Win32,60.97560976,,,,,,,,,,,,,,,,,,,,,,,,562.1446,563.3749,a,1,[],[],[],[],[],[],[],0.5513,1,563.3752,563.8751,,,,,,864,MAS,AGR,150,sótano,el,l,0.5513,,563.8752,563.8754,0.393518519,-0.27037037,0,0,0,,0,190,190,413,1,,,,
,,,,,,76636d9eb55d34291d639c89,66a626ef09d4e21e1a8894ec,6734f03fc470b707af5d0878,2024-11-13_12h30.59.017,Tarea de género gramatical,2024.2.2,Win32,60.97560976,,,,,,,,,,,,,,,,,,,,,,,,563.878,564.975,a,1,[],[],[],[],[],[],[],0.418,1,564.9753,565.4752,,,,,,899,MAS,DIS,150,payaso,la,l,0.418,,565.4781,565.48,0.393518519,-0.27037037,0,0,0,,0,191,191,448,1,,,,
,,,,,,76636d9eb55d34291d639c89,66a626ef09d4e21e1a8894ec,6734f03fc470b707af5d0878,2024-11-13_12h30.59.017,Tarea de género gramatical,2024.2.2,Win32,60.97560976,,,,,,,,,,,,,,,,,,,,,,,,565.482,566.5416,a,1,[],[],[],[],[],[],[],0.3848,1,566.5418,567.0419,,,,,,875,MAS,DIS,150,chiste,la,l,0.3848,,567.042,567.0422,0.393518519,-0.27037037,0,0,0,,0,192,192,424,1,,,,
,,,,,,76636d9eb55d34291d639c89,66a626ef09d4e21e1a8894ec,6734f03fc470b707af5d0878,2024-11-13_12h30.59.017,Tarea de género gramatical,2024.2.2,Win32,60.97560976,,,,,,,,,,,,,,,,,,,,,,,,567.0446,568.1749,l,1,[],[],[],[],[],[],[],0.4514,1,568.1752,568.675,,,,,,596,FEM,DIS,150,lana,el,a,0.4514,,568.6751,568.6756,0.393518519,-0.27037037,0,0,0,,0,193,193,145,1,,,,
,,,,,,76636d9eb55d34291d639c89,66a626ef09d4e21e1a8894ec,6734f03fc470b707af5d0878,2024-11-13_12h30.59.017,Tarea de género gramatical,2024.2.2,Win32,60.97560976,,,,,,,,,,,,,,,,,,,,,,,,568.6784,569.7256,l,0,[],[],[],[],[],[],[],0.3682,0,569.7277,570.2255,,,,,,768,MAS,AGR,150,pueblo,el,l,0.3682,,570.2257,570.2259,0.393518519,-0.27037037,0,0,0,,0,194,194,317,1,,,,
,,,,,,76636d9eb55d34291d639c89,66a626ef09d4e21e1a8894ec,6734f03fc470b707af5d0878,2024-11-13_12h30.59.017,Tarea de género gramatical,2024.2.2,Win32,60.97560976,,,,,,,,,,,,,,,,,,,,,,,,570.2283,571.925,a,1,[],[],[],[],[],[],[],1.018,1,571.9271,572.4237,,,,,,587,MAS,DIS,150,coco,la,l,1.018,,572.4257,572.4265,0.393518519,-0.27037037,0,0,0,,0,195,195,136,1,,,,
,,,,,,76636d9eb55d34291d639c89,66a626ef09d4e21e1a8894ec,6734f03fc470b707af5d0878,2024-11-13_12h30.59.017,Tarea de género gramatical,2024.2.2,Win32,60.97560976,,,,,,,,,,,,,,,,,,,,,,,,572.4276,573.5097,a,1,[],[],[],[],[],[],[],0.4029,1,573.51,574.0084,,,,,,653,MAS,DIS,150,novio,la,l,0.4029,,574.0084,574.0086,0.393518519,-0.27037037,0,0,0,,0,196,196,202,1,,,,
,,,,,,76636d9eb55d34291d639c89,66a626ef09d4e21e1a8894ec,6734f03fc470b707af5d0878,2024-11-13_12h30.59.017,Tarea de género gramatical,2024.2.2,Win32,60.97560976,,,,,,,,,,,,,,,,,,,,,,,,574.0111,575.0612,a,1,[],[],[],[],[],[],[],0.3722,1,575.0613,575.5589,,,,,,726,MAS,AGR,150,ritmo,el,l,0.3722,,575.559,575.5593,0.393518519,-0.27037037,0,0,0,,0,197,197,275,1,,,,
,,,,,,76636d9eb55d34291d639c89,66a626ef09d4e21e1a8894ec,6734f03fc470b707af5d0878,2024-11-13_12h30.59.017,Tarea de género gramatical,2024.2.2,Win32,60.97560976,,,,,,,,,,,,,,,,,,,,,,,,575.5616,576.6425,l,1,[],[],[],[],[],[],[],0.4023,1,576.6427,577.1417,,,,,,494,FEM,DIS,150,zona,el,a,0.4023,,577.1418,577.142,0.393518519,-0.27037037,0,0,0,,0,198,198,43,1,,,,
,,,,,,76636d9eb55d34291d639c89,66a626ef09d4e21e1a8894ec,6734f03fc470b707af5d0878,2024-11-13_12h30.59.017,Tarea de género gramatical,2024.2.2,Win32,60.97560976,,,,,,,,,,,,,,,,,,,,,,,,577.1445,578.2931,a,1,[],[],[],[],[],[],[],0.4693,1,578.2935,578.7916,,,,,,886,MAS,CON,150,objeto,,l,0.4693,,578.7917,578.7919,0.393518519,-0.27037037,0,0,0,,0,199,199,435,1,,,,
,,,,,,76636d9eb55d34291d639c89,66a626ef09d4e21e1a8894ec,6734f03fc470b707af5d0878,2024-11-13_12h30.59.017,Tarea de género gramatical,2024.2.2,Win32,60.97560976,,,,,,,,,,,,,,,,,,,,,,,,578.7945,579.9084,a,1,[],[],[],[],[],[],[],0.4349,1,579.9086,580.4083,,,,,,654,MAS,AGR,150,papel,el,l,0.4349,,580.411,580.4129,0.393518519,-0.27037037,0,0,0,,0,200,200,203,1,,,,
,,,,,,76636d9eb55d34291d639c89,66a626ef09d4e21e1a8894ec,6734f03fc470b707af5d0878,2024-11-13_12h30.59.017,Tarea de género gramatical,2024.2.2,Win32,60.97560976,,,,,,,,,,,,,,,,,,,,,,,,580.4151,581.5418,l,1,[],[],[],[],[],[],[],0.4513,1,581.5419,582.0417,,,,,,825,FEM,AGR,150,cadena,la,a,0.4513,,582.0418,582.0419,0.393518519,-0.27037037,0,0,0,,0,201,201,374,1,,,,
,,,,,,76636d9eb55d34291d639c89,66a626ef09d4e21e1a8894ec,6734f03fc470b707af5d0878,2024-11-13_12h30.59.017,Tarea de género gramatical,2024.2.2,Win32,60.97560976,,,,,,,,,,,,,,,,,,,,,,,,582.0445,583.1257,a,1,[],[],[],[],[],[],[],0.4019,1,583.1259,583.625,,,,,,785,MAS,DIS,150,montón,la,l,0.4019,,583.6251,583.6254,0.393518519,-0.27037037,0,0,0,,0,202,202,334,1,,,,
,,,,,,76636d9eb55d34291d639c89,66a626ef09d4e21e1a8894ec,6734f03fc470b707af5d0878,2024-11-13_12h30.59.017,Tarea de género gramatical,2024.2.2,Win32,60.97560976,,,,,,,,,,,,,,,,,,,,,,,,583.6278,584.6772,a,1,[],[],[],[],[],[],[],0.3713,1,584.6774,585.1753,,,,,,862,MAS,CON,150,espejo,,l,0.3713,,585.1754,585.1756,0.393518519,-0.27037037,0,0,0,,0,203,203,411,1,,,,
,,,,,,76636d9eb55d34291d639c89,66a626ef09d4e21e1a8894ec,6734f03fc470b707af5d0878,2024-11-13_12h30.59.017,Tarea de género gramatical,2024.2.2,Win32,60.97560976,,,,,,,,,,,,,,,,,,,,,,,,585.1783,586.2444,l,1,[],[],[],[],[],[],[],0.3888,1,586.2445,586.7416,,,,,,663,FEM,AGR,150,magia,la,a,0.3888,,586.7445,586.7464,0.393518519,-0.27037037,0,0,0,,0,204,204,212,1,,,,
,,,,,,76636d9eb55d34291d639c89,66a626ef09d4e21e1a8894ec,6734f03fc470b707af5d0878,2024-11-13_12h30.59.017,Tarea de género gramatical,2024.2.2,Win32,60.97560976,,,,,,,,,,,,,,,,,,,,,,,,586.7486,587.8085,a,1,[],[],[],[],[],[],[],0.3845,1,587.8087,588.3088,,,,,,822,MAS,AGR,150,delito,el,l,0.3845,,588.3089,588.3091,0.393518519,-0.27037037,0,0,0,,0,205,205,371,1,,,,
,,,,,,76636d9eb55d34291d639c89,66a626ef09d4e21e1a8894ec,6734f03fc470b707af5d0878,2024-11-13_12h30.59.017,Tarea de género gramatical,2024.2.2,Win32,60.97560976,,,,,,,,,,,,,,,,,,,,,,,,588.3117,589.3587,l,1,[],[],[],[],[],[],[],0.3679,1,589.3588,589.8587,,,,,,578,FEM,DIS,150,leña,el,a,0.3679,,589.8588,589.8591,0.393518519,-0.27037037,0,0,0,,0,206,206,127,1,,,,
,,,,,,76636d9eb55d34291d639c89,66a626ef09d4e21e1a8894ec,6734f03fc470b707af5d0878,2024-11-13_12h30.59.017,Tarea de género gramatical,2024.2.2,Win32,60.97560976,,,,,,,,,,,,,,,,,,,,,,,,589.8616,590.9588,l,1,[],[],[],[],[],[],[],0.419,1,590.9591,591.4588,,,,,,848,FEM,DIS,150,hierba,el,a,0.419,,591.4589,591.4592,0.393518519,-0.27037037,0,0,0,,0,207,207,397,1,,,,
,,,,,,76636d9eb55d34291d639c89,66a626ef09d4e21e1a8894ec,6734f03fc470b707af5d0878,2024-11-13_12h30.59.017,Tarea de género gramatical,2024.2.2,Win32,60.97560976,,,,,,,,,,,,,,,,,,,,,,,,591.4616,592.491,l,1,[],[],[],[],[],[],[],0.3512,1,592.491,592.9923,,,,,,513,FEM,AGR,150,fila,la,a,0.3512,,592.9923,592.9926,0.393518519,-0.27037037,0,0,0,,0,208,208,62,1,,,,
,,,,,,76636d9eb55d34291d639c89,66a626ef09d4e21e1a8894ec,6734f03fc470b707af5d0878,2024-11-13_12h30.59.017,Tarea de género gramatical,2024.2.2,Win32,60.97560976,,,,,,,,,,,,,,,,,,,,,,,,592.995,594.0589,l,1,[],[],[],[],[],[],[],0.3845,1,594.0592,594.5589,,,,,,896,FEM,DIS,150,bañera,el,a,0.3845,,594.5617,594.5636,0.393518519,-0.27037037,0,0,0,,0,209,209,445,1,,,,
,,,,,,76636d9eb55d34291d639c89,66a626ef09d4e21e1a8894ec,6734f03fc470b707af5d0878,2024-11-13_12h30.59.017,Tarea de género gramatical,2024.2.2,Win32,60.97560976,,,,,,,,,,,,,,,,,,,,,,,,594.5658,595.628,a,0,[],[],[],[],[],[],[],0.3889,0,595.63,596.1258,,,,,,878,FEM,DIS,150,jugada,el,a,0.3889,,596.1259,596.1261,0.393518519,-0.27037037,0,0,0,,0,210,210,427,1,,,,
,,,,,,76636d9eb55d34291d639c89,66a626ef09d4e21e1a8894ec,6734f03fc470b707af5d0878,2024-11-13_12h30.59.017,Tarea de género gramatical,2024.2.2,Win32,60.97560976,,,,,,,,,,,,,,,,,,,,,,,,596.1283,597.4263,l,1,[],[],[],[],[],[],[],0.6181,1,597.4281,597.9255,,,,,,685,FEM,CON,150,torre,,a,0.6181,,597.9256,597.9258,0.393518519,-0.27037037,0,0,0,,0,211,211,234,1,,,,
,,,,,,76636d9eb55d34291d639c89,66a626ef09d4e21e1a8894ec,6734f03fc470b707af5d0878,2024-11-13_12h30.59.017,Tarea de género gramatical,2024.2.2,Win32,60.97560976,,,,,,,,,,,,,,,,,,,,,,,,597.9286,599.0615,a,1,[],[],[],[],[],[],[],0.4557,1,599.0617,599.5589,,,,,,778,MAS,CON,150,asunto,,l,0.4557,,599.5591,599.5592,0.393518519,-0.27037037,0,0,0,,0,212,212,327,1,,,,
,,,,,,76636d9eb55d34291d639c89,66a626ef09d4e21e1a8894ec,6734f03fc470b707af5d0878,2024-11-13_12h30.59.017,Tarea de género gramatical,2024.2.2,Win32,60.97560976,,,,,,,,,,,,,,,,,,,,,,,,599.5615,600.5931,l,1,[],[],[],[],[],[],[],0.3516,1,600.5933,601.092,,,,,,579,FEM,AGR,150,rana,la,a,0.3516,,601.0948,601.0967,0.393518519,-0.27037037,0,0,0,,0,213,213,128,1,,,,
,,,,,,76636d9eb55d34291d639c89,66a626ef09d4e21e1a8894ec,6734f03fc470b707af5d0878,2024-11-13_12h30.59.017,Tarea de género gramatical,2024.2.2,Win32,60.97560976,,,,,,,,,,,,,,,,,,,,,,,,601.099,602.1263,a,1,[],[],[],[],[],[],[],0.3516,1,602.127,602.6255,,,,,,713,MAS,DIS,150,carro,la,l,0.3516,,602.6257,602.6259,0.393518519,-0.27037037,0,0,0,,0,214,214,262,1,,,,
,,,,,,76636d9eb55d34291d639c89,66a626ef09d4e21e1a8894ec,6734f03fc470b707af5d0878,2024-11-13_12h30.59.017,Tarea de género gramatical,2024.2.2,Win32,60.97560976,,,,,,,,,,,,,,,,,,,,,,,,602.6282,603.642,l,1,[],[],[],[],[],[],[],0.3345,1,603.6425,604.142,,,,,,715,FEM,CON,150,rueda,,a,0.3345,,604.1422,604.1424,0.393518519,-0.27037037,0,0,0,,0,215,215,264,1,,,,
,,,,,,76636d9eb55d34291d639c89,66a626ef09d4e21e1a8894ec,6734f03fc470b707af5d0878,2024-11-13_12h30.59.017,Tarea de género gramatical,2024.2.2,Win32,60.97560976,,,,,,,,,,,,,,,,,,,,,,,,604.145,605.277,a,1,[],[],[],[],[],[],[],0.4547,1,605.2771,605.775,,,,,,551,MAS,DIS,150,giro,la,l,0.4547,,605.7751,605.7753,0.393518519,-0.27037037,0,0,0,,0,216,216,100,1,,,,
,,,,,,76636d9eb55d34291d639c89,66a626ef09d4e21e1a8894ec,6734f03fc470b707af5d0878,2024-11-13_12h30.59.017,Tarea de género gramatical,2024.2.2,Win32,60.97560976,,,,,,,,,,,,,,,,,,,,,,,,605.778,606.8777,a,1,[],[],[],[],[],[],[],0.4217,1,606.8779,607.3752,,,,,,882,MAS,AGR,150,océano,el,l,0.4217,,607.3755,607.3757,0.393518519,-0.27037037,0,0,0,,0,217,217,431,1,,,,
,,,,,,76636d9eb55d34291d639c89,66a626ef09d4e21e1a8894ec,6734f03fc470b707af5d0878,2024-11-13_12h30.59.017,Tarea de género gramatical,2024.2.2,Win32,60.97560976,,,,,,,,,,,,,,,,,,,,,,,,607.378,608.425,l,1,[],[],[],[],[],[],[],0.368,1,608.4252,608.925,,,,,,871,FEM,CON,150,novela,,a,0.368,,608.9277,608.9296,0.393518519,-0.27037037,0,0,0,,0,218,218,420,1,,,,
,,,,,,76636d9eb55d34291d639c89,66a626ef09d4e21e1a8894ec,6734f03fc470b707af5d0878,2024-11-13_12h30.59.017,Tarea de género gramatical,2024.2.2,Win32,60.97560976,,,,,,,,,,,,,,,,,,,,,,,,608.9317,609.9752,l,1,[],[],[],[],[],[],[],0.368,1,609.9754,610.4743,,,,,,793,FEM,CON,150,trampa,,a,0.368,,610.4744,610.4749,0.393518519,-0.27037037,0,0,0,,0,219,219,342,1,,,,
,,,,,,76636d9eb55d34291d639c89,66a626ef09d4e21e1a8894ec,6734f03fc470b707af5d0878,2024-11-13_12h30.59.017,Tarea de género gramatical,2024.2.2,Win32,60.97560976,,,,,,,,,,,,,,,,,,,,,,,,610.4779,611.5756,a,1,[],[],[],[],[],[],[],0.4183,1,611.5758,612.076,,,,,,869,MAS,DIS,150,cuento,la,l,0.4183,,612.0762,612.0766,0.393518519,-0.27037037,0,0,0,,0,220,220,418,1,,,,
,,,,,,76636d9eb55d34291d639c89,66a626ef09d4e21e1a8894ec,6734f03fc470b707af5d0878,2024-11-13_12h30.59.017,Tarea de género gramatical,2024.2.2,Win32,60.97560976,,,,,,,,,,,,,,,,,,,,,,,,612.079,613.126,a,1,[],[],[],[],[],[],[],0.3683,1,613.1263,613.625,,,,,,809,MAS,DIS,150,bosque,la,l,0.3683,,613.6251,613.6253,0.393518519,-0.27037037,0,0,0,,0,221,221,358,1,,,,
,,,,,,76636d9eb55d34291d639c89,66a626ef09d4e21e1a8894ec,6734f03fc470b707af5d0878,2024-11-13_12h30.59.017,Tarea de género gramatical,2024.2.2,Win32,60.97560976,,,,,,,,,,,,,,,,,,,,,,,,613.6278,614.6077,l,1,[],[],[],[],[],[],[],0.3003,1,614.6079,615.1083,,,,,,734,FEM,DIS,150,fruta,el,a,0.3003,,615.111,615.1129,0.393518519,-0.27037037,0,0,0,,0,222,222,283,1,,,,
,,,,,,76636d9eb55d34291d639c89,66a626ef09d4e21e1a8894ec,6734f03fc470b707af5d0878,2024-11-13_12h30.59.017,Tarea de género gramatical,2024.2.2,Win32,60.97560976,,,,,,,,,,,,,,,,,,,,,,,,615.1151,616.0763,l,1,[],[],[],[],[],[],[],0.2866,1,616.0764,616.5755,,,,,,493,FEM,CON,150,nena,,a,0.2866,,616.5757,616.5759,0.393518519,-0.27037037,0,0,0,,0,223,223,42,1,,,,
,,,,,,76636d9eb55d34291d639c89,66a626ef09d4e21e1a8894ec,6734f03fc470b707af5d0878,2024-11-13_12h30.59.017,Tarea de género gramatical,2024.2.2,Win32,60.97560976,,,,,,,,,,,,,,,,,,,,,,,,616.5782,617.5928,l,1,[],[],[],[],[],[],[],0.3349,1,617.5932,618.092,,,,,,613,FEM,CON,150,calle,,a,0.3349,,618.0922,618.0924,0.393518519,-0.27037037,0,0,0,,0,224,224,162,1,,,,
,,,,,,76636d9eb55d34291d639c89,66a626ef09d4e21e1a8894ec,6734f03fc470b707af5d0878,2024-11-13_12h30.59.017,Tarea de género gramatical,2024.2.2,Win32,60.97560976,,,,,,,,,,,,,,,,,,,,,,,,618.0949,619.0608,a,1,[],[],[],[],[],[],[],0.2884,1,619.061,619.5585,,,,,,827,MAS,DIS,150,jardín,la,l,0.2884,,619.5585,619.5588,0.393518519,-0.27037037,0,0,0,,0,225,225,376,1,,,,
,,,,,,76636d9eb55d34291d639c89,66a626ef09d4e21e1a8894ec,6734f03fc470b707af5d0878,2024-11-13_12h30.59.017,Tarea de género gramatical,2024.2.2,Win32,60.97560976,,,,,,,,,,,,,,,,,,,,,,,,619.5612,620.7755,l,1,[],[],[],[],[],[],[],0.5346,1,620.776,621.276,,,,,,800,FEM,DIS,150,imagen,el,a,0.5346,,621.2762,621.2764,0.393518519,-0.27037037,0,0,0,,0,226,226,349,1,,,,
,,,,,,76636d9eb55d34291d639c89,66a626ef09d4e21e1a8894ec,6734f03fc470b707af5d0878,2024-11-13_12h30.59.017,Tarea de género gramatical,2024.2.2,Win32,60.97560976,,,,,,,,,,,,,,,,,,,,,,,,621.2785,622.3083,l,0,[],[],[],[],[],[],[],0.351,0,622.3104,622.8083,,,,,,700,MAS,CON,150,cerdo,,l,0.351,,622.8116,622.8134,0.393518519,-0.27037037,0,0,0,,0,227,227,249,1,,,,
,,,,,,76636d9eb55d34291d639c89,66a626ef09d4e21e1a8894ec,6734f03fc470b707af5d0878,2024-11-13_12h30.59.017,Tarea de género gramatical,2024.2.2,Win32,60.97560976,,,,,,,,,,,,,,,,,,,,,,,,622.8155,624.2243,a,1,[],[],[],[],[],[],[],0.7347,1,624.227,624.7251,,,,,,617,MAS,DIS,150,juego,la,l,0.7347,,624.7252,624.7256,0.393518519,-0.27037037,0,0,0,,0,228,228,166,1,,,,
,,,,,,76636d9eb55d34291d639c89,66a626ef09d4e21e1a8894ec,6734f03fc470b707af5d0878,2024-11-13_12h30.59.017,Tarea de género gramatical,2024.2.2,Win32,60.97560976,,,,,,,,,,,,,,,,,,,,,,,,624.7281,625.8608,l,1,[],[],[],[],[],[],[],0.4551,1,625.861,626.3584,,,,,,866,FEM,DIS,150,colina,el,a,0.4551,,626.3585,626.3586,0.393518519,-0.27037037,0,0,0,,0,229,229,415,1,,,,
,,,,,,76636d9eb55d34291d639c89,66a626ef09d4e21e1a8894ec,6734f03fc470b707af5d0878,2024-11-13_12h30.59.017,Tarea de género gramatical,2024.2.2,Win32,60.97560976,,,,,,,,,,,,,,,,,,,,,,,,626.3614,627.5097,l,1,[],[],[],[],[],[],[],0.4694,1,627.5098,628.0084,,,,,,877,FEM,CON,150,agenda,,a,0.4694,,628.0085,628.0086,0.393518519,-0.27037037,0,0,0,,0,230,230,426,1,,,,
,,,,,,76636d9eb55d34291d639c89,66a626ef09d4e21e1a8894ec,6734f03fc470b707af5d0878,2024-11-13_12h30.59.017,Tarea de género gramatical,2024.2.2,Win32,60.97560976,,,,,,,,,,,,,,,,,,,,,,,,628.0112,629.0769,a,1,[],[],[],[],[],[],[],0.3878,1,629.077,629.575,,,,,,810,MAS,AGR,150,puente,el,l,0.3878,,629.5779,629.5797,0.393518519,-0.27037037,0,0,0,,0,231,231,359,1,,,,
,,,,,,76636d9eb55d34291d639c89,66a626ef09d4e21e1a8894ec,6734f03fc470b707af5d0878,2024-11-13_12h30.59.017,Tarea de género gramatical,2024.2.2,Win32,60.97560976,,,,,,,,,,,,,,,,,,,,,,,,629.5819,630.675,a,1,[],[],[],[],[],[],[],0.418,1,630.6752,631.1751,,,,,,557,MAS,DIS,150,cubo,la,l,0.418,,631.1751,631.1754,0.393518519,-0.27037037,0,0,0,,0,232,232,106,1,,,,
,,,,,,76636d9eb55d34291d639c89,66a626ef09d4e21e1a8894ec,6734f03fc470b707af5d0878,2024-11-13_12h30.59.017,Tarea de género gramatical,2024.2.2,Win32,60.97560976,,,,,,,,,,,,,,,,,,,,,,,,631.1779,632.2249,l,1,[],[],[],[],[],[],[],0.368,1,632.2251,632.725,,,,,,782,FEM,DIS,150,basura,el,a,0.368,,632.7251,632.7254,0.393518519,-0.27037037,0,0,0,,0,233,233,331,1,,,,
,,,,,,76636d9eb55d34291d639c89,66a626ef09d4e21e1a8894ec,6734f03fc470b707af5d0878,2024-11-13_12h30.59.017,Tarea de género gramatical,2024.2.2,Win32,60.97560976,,,,,,,,,,,,,,,,,,,,,,,,632.7279,633.8251,l,1,[],[],[],[],[],[],[],0.4181,1,633.8253,634.325,,,,,,699,FEM,AGR,150,crema,la,a,0.4181,,634.3251,634.3253,0.393518519,-0.27037037,0,0,0,,0,234,234,248,1,,,,
,,,,,,76636d9eb55d34291d639c89,66a626ef09d4e21e1a8894ec,6734f03fc470b707af5d0878,2024-11-13_12h30.59.017,Tarea de género gramatical,2024.2.2,Win32,60.97560976,,,,,,,,,,,,,,,,,,,,,,,,634.3281,635.3417,l,1,[],[],[],[],[],[],[],0.3347,1,635.3419,635.8418,,,,,,723,FEM,AGR,150,tarta,la,a,0.3347,,635.842,635.8422,0.393518519,-0.27037037,0,0,0,,0,235,235,272,1,,,,
,,,,,,76636d9eb55d34291d639c89,66a626ef09d4e21e1a8894ec,6734f03fc470b707af5d0878,2024-11-13_12h30.59.017,Tarea de género gramatical,2024.2.2,Win32,60.97560976,,,,,,,,,,,,,,,,,,,,,,,,635.8447,636.9423,a,1,[],[],[],[],[],[],[],0.4183,1,636.9426,637.4417,,,,,,455,MAS,DIS,150,tipo,la,l,0.4183,,637.4447,637.4465,0.393518519,-0.27037037,0,0,0,,0,236,236,4,1,,,,
,,,,,,76636d9eb55d34291d639c89,66a626ef09d4e21e1a8894ec,6734f03fc470b707af5d0878,2024-11-13_12h30.59.017,Tarea de género gramatical,2024.2.2,Win32,60.97560976,,,,,,,,,,,,,,,,,,,,,,,,637.4488,638.5917,l,1,[],[],[],[],[],[],[],0.468,1,638.5919,639.092,,,,,,638,FEM,DIS,150,bomba,el,a,0.468,,639.0922,639.0925,0.393518519,-0.27037037,0,0,0,,0,237,237,187,1,,,,
,,,,,,76636d9eb55d34291d639c89,66a626ef09d4e21e1a8894ec,6734f03fc470b707af5d0878,2024-11-13_12h30.59.017,Tarea de género gramatical,2024.2.2,Win32,60.97560976,,,,,,,,,,,,,,,,,,,,,,,,639.0948,640.2418,l,1,[],[],[],[],[],[],[],0.4681,1,640.242,640.7417,,,,,,567,FEM,AGR,150,raya,la,a,0.4681,,640.7417,640.7419,0.393518519,-0.27037037,0,0,0,,0,238,238,116,1,,,,
,,,,,,76636d9eb55d34291d639c89,66a626ef09d4e21e1a8894ec,6734f03fc470b707af5d0878,2024-11-13_12h30.59.017,Tarea de género gramatical,2024.2.2,Win32,60.97560976,,,,,,,,,,,,,,,,,,,,,,,,640.7446,641.775,l,1,[],[],[],[],[],[],[],0.3513,1,641.7753,642.275,,,,,,458,FEM,DIS,150,idea,el,a,0.3513,,642.2752,642.2756,0.393518519,-0.27037037,0,0,0,,0,239,239,7,1,,,,
,,,,,,76636d9eb55d34291d639c89,66a626ef09d4e21e1a8894ec,6734f03fc470b707af5d0878,2024-11-13_12h30.59.017,Tarea de género gramatical,2024.2.2,Win32,60.97560976,,,,,,,,,,,,,,,,,,,,,,,,642.278,643.3583,a,1,[],[],[],[],[],[],[],0.4013,1,643.3585,643.8588,,,,,,516,MAS,AGR,150,muro,el,l,0.4013,,643.8615,643.8634,0.393518519,-0.27037037,0,0,0,,0,240,240,65,1,,,,
,,,,,,76636d9eb55d34291d639c89,66a626ef09d4e21e1a8894ec,6734f03fc470b707af5d0878,2024-11-13_12h30.59.017,Tarea de género gramatical,2024.2.2,Win32,60.97560976,,,,,,,,,,,,,,,,,,,,,,,,643.8655,644.9417,a,1,[],[],[],[],[],[],[],0.4015,1,644.9419,645.442,,,,,,690,MAS,AGR,150,ruido,el,l,0.4015,,645.442,645.4422,0.393518519,-0.27037037,0,0,0,,0,241,241,239,1,,,,
,,,,,,76636d9eb55d34291d639c89,66a626ef09d4e21e1a8894ec,6734f03fc470b707af5d0878,2024-11-13_12h30.59.017,Tarea de género gramatical,2024.2.2,Win32,60.97560976,,,,,,,,,,,,,,,,,,,,,,,,645.4447,646.5085,l,1,[],[],[],[],[],[],[],0.3847,1,646.5086,647.0084,,,,,,459,FEM,AGR,150,mamá,la,a,0.3847,,647.0085,647.0087,0.393518519,-0.27037037,0,0,0,,0,242,242,8,1,,,,
,,,,,,76636d9eb55d34291d639c89,66a626ef09d4e21e1a8894ec,6734f03fc470b707af5d0878,2024-11-13_12h30.59.017,Tarea de género gramatical,2024.2.2,Win32,60.97560976,,,,,,,,,,,,,,,,,,,,,,,,647.0112,648.0916,a,1,[],[],[],[],[],[],[],0.4013,1,648.0918,648.5917,,,,,,683,MAS,DIS,150,golpe,la,l,0.4013,,648.5917,648.5919,0.393518519,-0.27037037,0,0,0,,0,243,243,232,1,,,,
,,,,,,76636d9eb55d34291d639c89,66a626ef09d4e21e1a8894ec,6734f03fc470b707af5d0878,2024-11-13_12h30.59.017,Tarea de género gramatical,2024.2.2,Win32,60.97560976,,,,,,,,,,,,,,,,,,,,,,,,648.5944,649.6583,a,1,[],[],[],[],[],[],[],0.3844,1,649.6585,650.1584,,,,,,868,MAS,CON,150,pájaro,,l,0.3844,,650.1585,650.1587,0.393518519,-0.27037037,0,0,0,,0,244,244,417,1,,,,
,,,,,,76636d9eb55d34291d639c89,66a626ef09d4e21e1a8894ec,6734f03fc470b707af5d0878,2024-11-13_12h30.59.017,Tarea de género gramatical,2024.2.2,Win32,60.97560976,,,,,,,,,,,,,,,,,,,,,,,,650.1611,651.275,l,1,[],[],[],[],[],[],[],0.4348,1,651.2754,651.7756,,,,,,817,FEM,CON,150,teoría,,a,0.4348,,651.7787,651.7805,0.393518519,-0.27037037,0,0,0,,0,245,245,366,1,,,,
,,,,,,76636d9eb55d34291d639c89,66a626ef09d4e21e1a8894ec,6734f03fc470b707af5d0878,2024-11-13_12h30.59.017,Tarea de género gramatical,2024.2.2,Win32,60.97560976,,,,,,,,,,,,,,,,,,,,,,,,651.7827,652.759,l,0,[],[],[],[],[],[],[],0.3013,0,652.7616,653.2587,,,,,,706,MAS,CON,150,techo,,l,0.3013,,653.2589,653.2591,0.393518519,-0.27037037,0,0,0,,0,246,246,255,1,,,,
,,,,,,76636d9eb55d34291d639c89,66a626ef09d4e21e1a8894ec,6734f03fc470b707af5d0878,2024-11-13_12h30.59.017,Tarea de género gramatical,2024.2.2,Win32,60.97560976,,,,,,,,,,,,,,,,,,,,,,,,653.2615,654.4094,a,1,[],[],[],[],[],[],[],0.4681,1,654.4112,654.9089,,,,,,534,MAS,AGR,150,mago,el,l,0.4681,,654.909,654.9093,0.393518519,-0.27037037,0,0,0,,0,247,247,83,1,,,,
,,,,,,76636d9eb55d34291d639c89,66a626ef09d4e21e1a8894ec,6734f03fc470b707af5d0878,2024-11-13_12h30.59.017,Tarea de género gramatical,2024.2.2,Win32,60.97560976,,,,,,,,,,,,,,,,,,,,,,,,654.9116,655.927,a,1,[],[],[],[],[],[],[],0.3365,1,655.9273,656.4255,,,,,,624,MAS,AGR,150,perro,el,l,0.3365,,656.4256,656.4258,0.393518519,-0.27037037,0,0,0,,0,248,248,173,1,,,,
,,,,,,76636d9eb55d34291d639c89,66a626ef09d4e21e1a8894ec,6734f03fc470b707af5d0878,2024-11-13_12h30.59.017,Tarea de género gramatical,2024.2.2,Win32,60.97560976,,,,,,,,,,,,,,,,,,,,,,,,656.4282,657.509,a,1,[],[],[],[],[],[],[],0.4015,1,657.5092,658.0087,,,,,,642,MAS,AGR,150,grupo,el,l,0.4015,,658.0115,658.0138,0.393518519,-0.27037037,0,0,0,,0,249,249,191,1,,,,
,,,,,,76636d9eb55d34291d639c89,66a626ef09d4e21e1a8894ec,6734f03fc470b707af5d0878,2024-11-13_12h30.59.017,Tarea de género gramatical,2024.2.2,Win32,60.97560976,,,,,,,,,,,,,,,,,,,,,,,,658.0158,659.2264,a,1,[],[],[],[],[],[],[],0.5344,1,659.2266,659.7264,,,,,,533,MAS,DIS,150,nene,la,l,0.5344,,659.7265,659.727,0.393518519,-0.27037037,0,0,0,,0,250,250,82,1,,,,
,,,,,,76636d9eb55d34291d639c89,66a626ef09d4e21e1a8894ec,6734f03fc470b707af5d0878,2024-11-13_12h30.59.017,Tarea de género gramatical,2024.2.2,Win32,60.97560976,,,,,,,,,,,,,,,,,,,,,,,,659.7291,660.8446,l,1,[],[],[],[],[],[],[],0.439,1,660.8448,661.3421,,,,,,463,FEM,CON,150,hija,,a,0.439,,661.3422,661.3424,0.393518519,-0.27037037,0,0,0,,0,251,251,12,1,,,,
