counterbalancing_condition,consent_prescreening.block_1/declare_consent,consent_prescreening.block_1/age_years,consent_prescreening.block_1/gender,consent_prescreening.block_1/language_disorder,consent_prescreening.block_1/first_language,PROLIFIC_PID,STUDY_ID,SESSION_ID,date,expName,psychopyVersion,OS,frameRate,check_prescreening_answers.started,check_prescreening_answers.stopped,Instructions.started,Instructions.stopped,instr_done_keyboard.keys,instr_done_keyboard.rt,instr_done_keyboard.duration,instr_done_touch.x,instr_done_touch.y,instr_done_touch.leftButton,instr_done_touch.midButton,instr_done_touch.rightButton,instruction_pages.thisRepN,instruction_pages.thisTrialN,instruction_pages.thisN,instruction_pages.thisIndex,instruction_pages.ran,pageN,phase,instruct_text,has_image,instruct_image,instr_done_touch.clicked_name,presentTrial.started,presentTrial.stopped,response.keys,response.corr,touch_resp.x,touch_resp.y,touch_resp.leftButton,touch_resp.midButton,touch_resp.rightButton,touch_resp.time,touch_resp.clicked_name,rt,corr,feedback.started,feedback.stopped,practice_trials.thisRepN,practice_trials.thisTrialN,practice_trials.thisN,practice_trials.thisIndex,practice_trials.ran,TrialID,StimulusType,Condition,PrimeDuration,Prime,Flanker,corrAns,response.rt,response.duration,Break.started,Break.stopped,break_done_touch.x,break_done_touch.y,break_done_touch.leftButton,break_done_touch.midButton,break_done_touch.rightButton,break_done_keyboard.keys,experiment_trials.thisRepN,experiment_trials.thisTrialN,experiment_trials.thisN,experiment_trials.thisIndex,experiment_trials.ran,break_done_keyboard.rt,break_done_keyboard.duration,break_done_touch.clicked_name,End.started,End.stopped
2,"[""over_18"",""comfortable"",""read_info"",""consent_given""]",22,F,"[""none""]","[""spanish""]",7758940305ddcd3ec601d1e3,66a626ef09d4e21e1a8894ec,6734e03e1d41ece48a9e4053,2024-11-13_11h22.31.953,Tarea de género gramatical,2024.2.2,Win32,59.52380952,,,,,,,,,,,,,,,,,,,,,,,,,,,,,,,,,,,,,,,,,,,,,,,,,,,,,,,,,,,,,,,,,,,,,,
,,,,,,7758940305ddcd3ec601d1e3,66a626ef09d4e21e1a8894ec,6734e03e1d41ece48a9e4053,2024-11-13_11h22.31.953,Tarea de género gramatical,2024.2.2,Win32,59.52380952,60.9144,60.9149,,,,,,,,,,,,,,,,,,,,,,,,,,,,,,,,,,,,,,,,,,,,,,,,,,,,,,,,,,,,,,,,,,,,
,,,,,,7758940305ddcd3ec601d1e3,66a626ef09d4e21e1a8894ec,6734e03e1d41ece48a9e4053,2024-11-13_11h22.31.953,Tarea de género gramatical,2024.2.2,Win32,59.52380952,,,60.9363,73.7716,space,12.8094,,-0.166666667,0.489814815,0,0,0,0,0,0,0,1,1,instructions,"INSTRUCCIONES
Va a realizar una prueba de selección gramatical. Desde el comienzo de la prueba mire siempre al centro de la pantalla. Al cabo de un momento, aparecerán palabras. La tarea consiste en determinar si la palabra del centro (siempre será un sustantivo), pertenece al género masculino o femenino.

Pulse la tecla ESPACIO o toque el botón de abajo para continuar.",0,keyboardresponseMF.png,,,,,,,,,,,,,,,,,,,,,,,,,,,,,,,,,,,,,,,,,,,,,,,,
,,,,,,7758940305ddcd3ec601d1e3,66a626ef09d4e21e1a8894ec,6734e03e1d41ece48a9e4053,2024-11-13_11h22.31.953,Tarea de género gramatical,2024.2.2,Win32,59.52380952,,,73.7751,367.6465,,,,0.013888889,-0.420370399,1,0,0,0,1,1,1,1,2,instructions,"Si su dispositivo tiene teclado, pulse la tecla ""A"" para las palabras en masculino (por ejemplo: ""arroz"") y la tecla ""L"" para las palabras en femenino (por ejemplo: ""mano"").
Pulse la tecla ESPACIO o toque el botón de abajo para continuar.",1,keyboardresponseMF.png,instr_done_button,,,,,,,,,,,,,,,,,,,,,,,,,,,,,,,,,,,,,,,,,,,,,,,
,,,,,,7758940305ddcd3ec601d1e3,66a626ef09d4e21e1a8894ec,6734e03e1d41ece48a9e4053,2024-11-13_11h22.31.953,Tarea de género gramatical,2024.2.2,Win32,59.52380952,,,367.6479,374.4276,,,,0.013888889,-0.420370399,1,0,0,0,2,2,2,1,3,instructions,"Si utiliza un dispositivo sólo táctil, colóquelo en horizontal y utilice los botones de la pantalla. No utilice el ratón.
Pulse la tecla ESPACIO o toque el botón de abajo para continuar.",2,touchresponseMF.png,instr_done_button,,,,,,,,,,,,,,,,,,,,,,,,,,,,,,,,,,,,,,,,,,,,,,,
,,,,,,7758940305ddcd3ec601d1e3,66a626ef09d4e21e1a8894ec,6734e03e1d41ece48a9e4053,2024-11-13_11h22.31.953,Tarea de género gramatical,2024.2.2,Win32,59.52380952,,,374.4318,384.7599,,,,0.013888889,-0.420370399,1,0,0,0,3,3,3,1,4,instructions,"Es muy importante que responda con la mayor rapidez y precisión posibles, ya que cada cadena de letras sólo estará en pantalla durante un instante. Si no responde en ese tiempo, aparecerá el mensaje ""Muy lento"" y el experimento pasará a la siguiente palabra. Los primeros 15 intentos serán de práctica y habrá dos descansos durante la prueba.
Pulse la tecla ESPACIO o toque el botón de abajo para iniciar la parte de práctica.",0,keyboardresponseMF.png,instr_done_button,,,,,,,,,,,,,,,,,,,,,,,,,,,,,,,,,,,,,,,,,,,,,,,
,,,,,,7758940305ddcd3ec601d1e3,66a626ef09d4e21e1a8894ec,6734e03e1d41ece48a9e4053,2024-11-13_11h22.31.953,Tarea de género gramatical,2024.2.2,Win32,59.52380952,,,,,,,,,,,,,,,,,,,,,,,,384.7798,387.4265,,0,[],[],[],[],[],[],[],,-1,387.4271,387.9264,0,0,0,10,1,2011,MAS,CON,150,canal,,l,,,,,,,,,,,,,,,,,,,,
,,,,,,7758940305ddcd3ec601d1e3,66a626ef09d4e21e1a8894ec,6734e03e1d41ece48a9e4053,2024-11-13_11h22.31.953,Tarea de género gramatical,2024.2.2,Win32,59.52380952,,,,,,,,,,,,,,,,,,,,,,,,387.9298,389.4425,a,1,[],[],[],[],[],[],[],0.8421,1,389.4741,389.9424,0,1,1,9,1,2010,MAS,AGR,150,vecino,el,l,0.8421,,,,,,,,,,,,,,,,,,,
,,,,,,7758940305ddcd3ec601d1e3,66a626ef09d4e21e1a8894ec,6734e03e1d41ece48a9e4053,2024-11-13_11h22.31.953,Tarea de género gramatical,2024.2.2,Win32,59.52380952,,,,,,,,,,,,,,,,,,,,,,,,389.9456,391.1088,a,0,[],[],[],[],[],[],[],0.4921,0,391.1106,391.609,0,2,2,5,1,2006,FEM,DIS,150,serie,el,a,0.4921,,,,,,,,,,,,,,,,,,,
,,,,,,7758940305ddcd3ec601d1e3,66a626ef09d4e21e1a8894ec,6734e03e1d41ece48a9e4053,2024-11-13_11h22.31.953,Tarea de género gramatical,2024.2.2,Win32,59.52380952,,,,,,,,,,,,,,,,,,,,,,,,391.6121,392.5919,l,0,[],[],[],[],[],[],[],0.3048,0,392.592,393.0916,0,3,3,14,1,2015,MAS,DIS,150,robot,la,l,0.3048,,,,,,,,,,,,,,,,,,,
,,,,,,7758940305ddcd3ec601d1e3,66a626ef09d4e21e1a8894ec,6734e03e1d41ece48a9e4053,2024-11-13_11h22.31.953,Tarea de género gramatical,2024.2.2,Win32,59.52380952,,,,,,,,,,,,,,,,,,,,,,,,393.0929,394.2084,a,0,[],[],[],[],[],[],[],0.4399,0,394.2086,394.7084,0,4,4,3,1,2004,FEM,AGR,150,venta,la,a,0.4399,,,,,,,,,,,,,,,,,,,
,,,,,,7758940305ddcd3ec601d1e3,66a626ef09d4e21e1a8894ec,6734e03e1d41ece48a9e4053,2024-11-13_11h22.31.953,Tarea de género gramatical,2024.2.2,Win32,59.52380952,,,,,,,,,,,,,,,,,,,,,,,,394.7112,395.9748,a,1,[],[],[],[],[],[],[],0.5842,1,395.9763,396.4746,0,5,5,13,1,2014,MAS,CON,150,siglo,,l,0.5842,,,,,,,,,,,,,,,,,,,
,,,,,,7758940305ddcd3ec601d1e3,66a626ef09d4e21e1a8894ec,6734e03e1d41ece48a9e4053,2024-11-13_11h22.31.953,Tarea de género gramatical,2024.2.2,Win32,59.52380952,,,,,,,,,,,,,,,,,,,,,,,,396.478,397.6577,l,1,[],[],[],[],[],[],[],0.5011,1,397.6578,398.158,0,6,6,1,1,2002,FEM,CON,150,pala,,a,0.5011,,,,,,,,,,,,,,,,,,,
,,,,,,7758940305ddcd3ec601d1e3,66a626ef09d4e21e1a8894ec,6734e03e1d41ece48a9e4053,2024-11-13_11h22.31.953,Tarea de género gramatical,2024.2.2,Win32,59.52380952,,,,,,,,,,,,,,,,,,,,,,,,398.1605,399.2747,l,1,[],[],[],[],[],[],[],0.4372,1,399.2748,399.7745,0,7,7,6,1,2007,FEM,AGR,150,navaja,la,a,0.4372,,,,,,,,,,,,,,,,,,,
,,,,,,7758940305ddcd3ec601d1e3,66a626ef09d4e21e1a8894ec,6734e03e1d41ece48a9e4053,2024-11-13_11h22.31.953,Tarea de género gramatical,2024.2.2,Win32,59.52380952,,,,,,,,,,,,,,,,,,,,,,,,399.7773,400.7742,l,0,[],[],[],[],[],[],[],0.3183,0,400.7756,401.2743,0,8,8,11,1,2012,MAS,DIS,150,clima,la,l,0.3183,,,,,,,,,,,,,,,,,,,
,,,,,,7758940305ddcd3ec601d1e3,66a626ef09d4e21e1a8894ec,6734e03e1d41ece48a9e4053,2024-11-13_11h22.31.953,Tarea de género gramatical,2024.2.2,Win32,59.52380952,,,,,,,,,,,,,,,,,,,,,,,,401.2762,402.3076,a,1,[],[],[],[],[],[],[],0.3512,1,402.3093,402.8075,0,9,9,12,1,2013,MAS,AGR,150,acero,el,l,0.3512,,,,,,,,,,,,,,,,,,,
,,,,,,7758940305ddcd3ec601d1e3,66a626ef09d4e21e1a8894ec,6734e03e1d41ece48a9e4053,2024-11-13_11h22.31.953,Tarea de género gramatical,2024.2.2,Win32,59.52380952,,,,,,,,,,,,,,,,,,,,,,,,402.8096,403.6402,l,1,[],[],[],[],[],[],[],0.1519,1,403.6403,404.1406,0,10,10,0,1,2001,FEM,AGR,150,nuca,la,a,0.1519,,,,,,,,,,,,,,,,,,,
,,,,,,7758940305ddcd3ec601d1e3,66a626ef09d4e21e1a8894ec,6734e03e1d41ece48a9e4053,2024-11-13_11h22.31.953,Tarea de género gramatical,2024.2.2,Win32,59.52380952,,,,,,,,,,,,,,,,,,,,,,,,404.1435,405.1403,l,1,[],[],[],[],[],[],[],0.3164,1,405.1405,405.6404,0,11,11,2,1,2003,FEM,DIS,150,daga,el,a,0.3164,,,,,,,,,,,,,,,,,,,
,,,,,,7758940305ddcd3ec601d1e3,66a626ef09d4e21e1a8894ec,6734e03e1d41ece48a9e4053,2024-11-13_11h22.31.953,Tarea de género gramatical,2024.2.2,Win32,59.52380952,,,,,,,,,,,,,,,,,,,,,,,,405.6422,406.8236,l,1,[],[],[],[],[],[],[],0.5008,1,406.8238,407.3234,0,12,12,7,1,2008,FEM,CON,150,siesta,,a,0.5008,,,,,,,,,,,,,,,,,,,
,,,,,,7758940305ddcd3ec601d1e3,66a626ef09d4e21e1a8894ec,6734e03e1d41ece48a9e4053,2024-11-13_11h22.31.953,Tarea de género gramatical,2024.2.2,Win32,59.52380952,,,,,,,,,,,,,,,,,,,,,,,,407.3255,408.4896,l,0,[],[],[],[],[],[],[],0.4851,0,408.4903,408.99,0,13,13,8,1,2009,MAS,DIS,150,puerto,la,l,0.4851,,,,,,,,,,,,,,,,,,,
,,,,,,7758940305ddcd3ec601d1e3,66a626ef09d4e21e1a8894ec,6734e03e1d41ece48a9e4053,2024-11-13_11h22.31.953,Tarea de género gramatical,2024.2.2,Win32,59.52380952,,,,,,,,,,,,,,,,,,,,,,,,408.9915,410.0726,l,1,[],[],[],[],[],[],[],0.4071,1,410.0733,410.5725,0,14,14,4,1,2005,FEM,CON,150,placa,,a,0.4071,,,,,,,,,,,,,,,,,,,
,,,,,,7758940305ddcd3ec601d1e3,66a626ef09d4e21e1a8894ec,6734e03e1d41ece48a9e4053,2024-11-13_11h22.31.953,Tarea de género gramatical,2024.2.2,Win32,59.52380952,,,430.8586,434.3866,space,3.5076,,0.002777778,-0.30648151,0,0,0,,,,,,,,,,,,434.4272,435.7533,a,1,[],[],[],[],[],[],[],0.6533,1,435.7538,436.2526,,,,,,1236,MAS,CON,150,crimen,,l,0.6533,,436.2528,436.2575,0.002777778,-0.30648151,0,0,0,,0,0,0,335,1,,,,,
,,,,,,7758940305ddcd3ec601d1e3,66a626ef09d4e21e1a8894ec,6734e03e1d41ece48a9e4053,2024-11-13_11h22.31.953,Tarea de género gramatical,2024.2.2,Win32,59.52380952,,,,,,,,,,,,,,,,,,,,,,,,436.2582,437.3525,a,0,[],[],[],[],[],[],[],0.4168,0,437.3533,437.8529,,,,,,1291,FEM,DIS,150,altura,el,a,0.4168,,437.853,437.8532,0.002777778,-0.30648151,0,0,0,,0,1,1,390,1,,,,,
,,,,,,7758940305ddcd3ec601d1e3,66a626ef09d4e21e1a8894ec,6734e03e1d41ece48a9e4053,2024-11-13_11h22.31.953,Tarea de género gramatical,2024.2.2,Win32,59.52380952,,,,,,,,,,,,,,,,,,,,,,,,437.8558,438.9026,l,0,[],[],[],[],[],[],[],0.3728,0,438.9028,439.4024,,,,,,1102,MAS,DIS,150,honor,la,l,0.3728,,439.4044,439.4063,0.002777778,-0.30648151,0,0,0,,0,2,2,201,1,,,,,
,,,,,,7758940305ddcd3ec601d1e3,66a626ef09d4e21e1a8894ec,6734e03e1d41ece48a9e4053,2024-11-13_11h22.31.953,Tarea de género gramatical,2024.2.2,Win32,59.52380952,,,,,,,,,,,,,,,,,,,,,,,,439.4076,440.419,a,1,[],[],[],[],[],[],[],0.3349,1,440.4205,440.9193,,,,,,1199,MAS,AGR,150,rumbo,el,l,0.3349,,440.9193,440.9195,0.002777778,-0.30648151,0,0,0,,0,3,3,298,1,,,,,
,,,,,,7758940305ddcd3ec601d1e3,66a626ef09d4e21e1a8894ec,6734e03e1d41ece48a9e4053,2024-11-13_11h22.31.953,Tarea de género gramatical,2024.2.2,Win32,59.52380952,,,,,,,,,,,,,,,,,,,,,,,,440.9214,442.1024,l,0,[],[],[],[],[],[],[],0.5029,0,442.1044,442.6023,,,,,,1272,MAS,CON,150,delito,,l,0.5029,,442.6024,442.6026,0.002777778,-0.30648151,0,0,0,,0,4,4,371,1,,,,,
,,,,,,7758940305ddcd3ec601d1e3,66a626ef09d4e21e1a8894ec,6734e03e1d41ece48a9e4053,2024-11-13_11h22.31.953,Tarea de género gramatical,2024.2.2,Win32,59.52380952,,,,,,,,,,,,,,,,,,,,,,,,442.6047,443.8181,l,1,[],[],[],[],[],[],[],0.5328,1,443.8188,444.3187,,,,,,1311,FEM,CON,150,actriz,,a,0.5328,,444.3188,444.3192,0.002777778,-0.30648151,0,0,0,,0,5,5,410,1,,,,,
,,,,,,7758940305ddcd3ec601d1e3,66a626ef09d4e21e1a8894ec,6734e03e1d41ece48a9e4053,2024-11-13_11h22.31.953,Tarea de género gramatical,2024.2.2,Win32,59.52380952,,,,,,,,,,,,,,,,,,,,,,,,444.321,445.4186,a,0,[],[],[],[],[],[],[],0.4181,0,445.42,445.9183,,,,,,1303,FEM,DIS,150,paliza,el,a,0.4181,,445.9207,445.9218,0.002777778,-0.30648151,0,0,0,,0,6,6,402,1,,,,,
,,,,,,7758940305ddcd3ec601d1e3,66a626ef09d4e21e1a8894ec,6734e03e1d41ece48a9e4053,2024-11-13_11h22.31.953,Tarea de género gramatical,2024.2.2,Win32,59.52380952,,,,,,,,,,,,,,,,,,,,,,,,445.9226,447.2517,l,1,[],[],[],[],[],[],[],0.6505,1,447.253,447.7518,,,,,,926,FEM,AGR,150,pena,la,a,0.6505,,447.7518,447.752,0.002777778,-0.30648151,0,0,0,,0,7,7,25,1,,,,,
,,,,,,7758940305ddcd3ec601d1e3,66a626ef09d4e21e1a8894ec,6734e03e1d41ece48a9e4053,2024-11-13_11h22.31.953,Tarea de género gramatical,2024.2.2,Win32,59.52380952,,,,,,,,,,,,,,,,,,,,,,,,447.7541,448.818,l,0,[],[],[],[],[],[],[],0.3856,0,448.8195,449.3178,,,,,,1078,MAS,DIS,150,punto,la,l,0.3856,,449.3179,449.3182,0.002777778,-0.30648151,0,0,0,,0,8,8,177,1,,,,,
,,,,,,7758940305ddcd3ec601d1e3,66a626ef09d4e21e1a8894ec,6734e03e1d41ece48a9e4053,2024-11-13_11h22.31.953,Tarea de género gramatical,2024.2.2,Win32,59.52380952,,,,,,,,,,,,,,,,,,,,,,,,449.3201,450.668,a,0,[],[],[],[],[],[],[],0.6746,0,450.6682,451.1675,,,,,,949,FEM,DIS,150,piel,el,a,0.6746,,451.1676,451.1678,0.002777778,-0.30648151,0,0,0,,0,9,9,48,1,,,,,
,,,,,,7758940305ddcd3ec601d1e3,66a626ef09d4e21e1a8894ec,6734e03e1d41ece48a9e4053,2024-11-13_11h22.31.953,Tarea de género gramatical,2024.2.2,Win32,59.52380952,,,,,,,,,,,,,,,,,,,,,,,,451.1695,452.6177,l,0,[],[],[],[],[],[],[],0.7676,0,452.6178,453.1173,,,,,,1086,MAS,CON,150,error,,l,0.7676,,453.1175,453.1178,0.002777778,-0.30648151,0,0,0,,0,10,10,185,1,,,,,
,,,,,,7758940305ddcd3ec601d1e3,66a626ef09d4e21e1a8894ec,6734e03e1d41ece48a9e4053,2024-11-13_11h22.31.953,Tarea de género gramatical,2024.2.2,Win32,59.52380952,,,,,,,,,,,,,,,,,,,,,,,,453.12,454.534,l,1,[],[],[],[],[],[],[],0.7392,1,454.5355,455.034,,,,,,1153,FEM,DIS,150,aldea,el,a,0.7392,,455.0371,455.0384,0.002777778,-0.30648151,0,0,0,,0,11,11,252,1,,,,,
,,,,,,7758940305ddcd3ec601d1e3,66a626ef09d4e21e1a8894ec,6734e03e1d41ece48a9e4053,2024-11-13_11h22.31.953,Tarea de género gramatical,2024.2.2,Win32,59.52380952,,,,,,,,,,,,,,,,,,,,,,,,455.0396,456.3337,a,1,[],[],[],[],[],[],[],0.619,1,456.3339,456.8336,,,,,,953,MAS,AGR,150,vaso,el,l,0.619,,456.8338,456.8339,0.002777778,-0.30648151,0,0,0,,0,12,12,52,1,,,,,
,,,,,,7758940305ddcd3ec601d1e3,66a626ef09d4e21e1a8894ec,6734e03e1d41ece48a9e4053,2024-11-13_11h22.31.953,Tarea de género gramatical,2024.2.2,Win32,59.52380952,,,,,,,,,,,,,,,,,,,,,,,,456.8364,458.0002,l,1,[],[],[],[],[],[],[],0.4877,1,458.0003,458.5001,,,,,,1040,FEM,AGR,150,mula,la,a,0.4877,,458.5002,458.5004,0.002777778,-0.30648151,0,0,0,,0,13,13,139,1,,,,,
,,,,,,7758940305ddcd3ec601d1e3,66a626ef09d4e21e1a8894ec,6734e03e1d41ece48a9e4053,2024-11-13_11h22.31.953,Tarea de género gramatical,2024.2.2,Win32,59.52380952,,,,,,,,,,,,,,,,,,,,,,,,458.5026,459.7501,a,1,[],[],[],[],[],[],[],0.5681,1,459.7502,460.25,,,,,,1332,MAS,CON,150,océano,,l,0.5681,,460.2502,460.2503,0.002777778,-0.30648151,0,0,0,,0,14,14,431,1,,,,,
,,,,,,7758940305ddcd3ec601d1e3,66a626ef09d4e21e1a8894ec,6734e03e1d41ece48a9e4053,2024-11-13_11h22.31.953,Tarea de género gramatical,2024.2.2,Win32,59.52380952,,,,,,,,,,,,,,,,,,,,,,,,460.252,461.4665,l,1,[],[],[],[],[],[],[],0.5347,1,461.4667,461.9664,,,,,,1245,FEM,CON,150,pierna,,a,0.5347,,461.9696,461.9708,0.002777778,-0.30648151,0,0,0,,0,15,15,344,1,,,,,
,,,,,,7758940305ddcd3ec601d1e3,66a626ef09d4e21e1a8894ec,6734e03e1d41ece48a9e4053,2024-11-13_11h22.31.953,Tarea de género gramatical,2024.2.2,Win32,59.52380952,,,,,,,,,,,,,,,,,,,,,,,,461.9721,463.5502,l,1,[],[],[],[],[],[],[],0.9115,1,463.5504,464.0492,,,,,,1081,FEM,DIS,150,tarde,el,a,0.9115,,464.0493,464.0494,0.002777778,-0.30648151,0,0,0,,0,16,16,180,1,,,,,
,,,,,,7758940305ddcd3ec601d1e3,66a626ef09d4e21e1a8894ec,6734e03e1d41ece48a9e4053,2024-11-13_11h22.31.953,Tarea de género gramatical,2024.2.2,Win32,59.52380952,,,,,,,,,,,,,,,,,,,,,,,,464.0512,465.566,a,1,[],[],[],[],[],[],[],0.8405,1,465.5661,466.0659,,,,,,1277,MAS,AGR,150,jardín,el,l,0.8405,,466.066,466.0662,0.002777778,-0.30648151,0,0,0,,0,17,17,376,1,,,,,
,,,,,,7758940305ddcd3ec601d1e3,66a626ef09d4e21e1a8894ec,6734e03e1d41ece48a9e4053,2024-11-13_11h22.31.953,Tarea de género gramatical,2024.2.2,Win32,59.52380952,,,,,,,,,,,,,,,,,,,,,,,,466.0684,467.1323,l,0,[],[],[],[],[],[],[],0.3855,0,467.1339,467.6318,,,,,,1026,MAS,CON,150,lazo,,l,0.3855,,467.6319,467.6321,0.002777778,-0.30648151,0,0,0,,0,18,18,125,1,,,,,
,,,,,,7758940305ddcd3ec601d1e3,66a626ef09d4e21e1a8894ec,6734e03e1d41ece48a9e4053,2024-11-13_11h22.31.953,Tarea de género gramatical,2024.2.2,Win32,59.52380952,,,,,,,,,,,,,,,,,,,,,,,,467.6333,468.7485,a,1,[],[],[],[],[],[],[],0.4423,1,468.75,469.2487,,,,,,1133,MAS,AGR,150,golpe,el,l,0.4423,,469.2488,469.249,0.002777778,-0.30648151,0,0,0,,0,19,19,232,1,,,,,
,,,,,,7758940305ddcd3ec601d1e3,66a626ef09d4e21e1a8894ec,6734e03e1d41ece48a9e4053,2024-11-13_11h22.31.953,Tarea de género gramatical,2024.2.2,Win32,59.52380952,,,,,,,,,,,,,,,,,,,,,,,,469.2515,470.2821,l,0,[],[],[],[],[],[],[],0.3566,0,470.2844,470.7814,,,,,,1080,MAS,CON,150,fuego,,l,0.3566,,470.7834,470.7845,0.002777778,-0.30648151,0,0,0,,0,20,20,179,1,,,,,
,,,,,,7758940305ddcd3ec601d1e3,66a626ef09d4e21e1a8894ec,6734e03e1d41ece48a9e4053,2024-11-13_11h22.31.953,Tarea de género gramatical,2024.2.2,Win32,59.52380952,,,,,,,,,,,,,,,,,,,,,,,,470.7855,471.9145,a,1,[],[],[],[],[],[],[],0.4537,1,471.9154,472.4151,,,,,,1265,MAS,AGR,150,código,el,l,0.4537,,472.4152,472.4154,0.002777778,-0.30648151,0,0,0,,0,21,21,364,1,,,,,
,,,,,,7758940305ddcd3ec601d1e3,66a626ef09d4e21e1a8894ec,6734e03e1d41ece48a9e4053,2024-11-13_11h22.31.953,Tarea de género gramatical,2024.2.2,Win32,59.52380952,,,,,,,,,,,,,,,,,,,,,,,,472.4175,473.465,l,0,[],[],[],[],[],[],[],0.3676,0,473.4664,473.9649,,,,,,1138,MAS,DIS,150,norte,la,l,0.3676,,473.965,473.965,0.003703732,-0.308333333,0,0,0,,0,22,22,237,1,,,,,
,,,,,,7758940305ddcd3ec601d1e3,66a626ef09d4e21e1a8894ec,6734e03e1d41ece48a9e4053,2024-11-13_11h22.31.953,Tarea de género gramatical,2024.2.2,Win32,59.52380952,,,,,,,,,,,,,,,,,,,,,,,,473.9668,475.3649,l,0,[],[],[],[],[],[],[],0.725,0,475.365,475.8644,,,,,,1122,MAS,CON,150,valor,,l,0.725,,475.8646,475.865,0.005555556,-0.303703732,0,0,0,,0,23,23,221,1,,,,,
,,,,,,7758940305ddcd3ec601d1e3,66a626ef09d4e21e1a8894ec,6734e03e1d41ece48a9e4053,2024-11-13_11h22.31.953,Tarea de género gramatical,2024.2.2,Win32,59.52380952,,,,,,,,,,,,,,,,,,,,,,,,475.868,477.198,l,1,[],[],[],[],[],[],[],0.6518,1,477.1993,477.6975,,,,,,1093,FEM,DIS,150,bolsa,el,a,0.6518,,477.7007,477.702,0.005555556,-0.303703732,0,0,0,,0,24,24,192,1,,,,,
,,,,,,7758940305ddcd3ec601d1e3,66a626ef09d4e21e1a8894ec,6734e03e1d41ece48a9e4053,2024-11-13_11h22.31.953,Tarea de género gramatical,2024.2.2,Win32,59.52380952,,,,,,,,,,,,,,,,,,,,,,,,477.7033,478.9308,a,1,[],[],[],[],[],[],[],0.5529,1,478.9309,479.4302,,,,,,940,MAS,DIS,150,dios,la,l,0.5529,,479.4302,479.4303,0.010185242,-0.300925954,0,0,0,,0,25,25,39,1,,,,,
,,,,,,7758940305ddcd3ec601d1e3,66a626ef09d4e21e1a8894ec,6734e03e1d41ece48a9e4053,2024-11-13_11h22.31.953,Tarea de género gramatical,2024.2.2,Win32,59.52380952,,,,,,,,,,,,,,,,,,,,,,,,479.4313,480.6806,l,0,[],[],[],[],[],[],[],0.5871,0,480.6817,481.1806,,,,,,1348,MAS,DIS,150,aceite,la,l,0.5871,,481.1806,481.1807,0.010185242,-0.300925954,0,0,0,,0,26,26,447,1,,,,,
,,,,,,7758940305ddcd3ec601d1e3,66a626ef09d4e21e1a8894ec,6734e03e1d41ece48a9e4053,2024-11-13_11h22.31.953,Tarea de género gramatical,2024.2.2,Win32,59.52380952,,,,,,,,,,,,,,,,,,,,,,,,481.1822,482.3472,a,1,[],[],[],[],[],[],[],0.4845,1,482.3485,482.8467,,,,,,905,MAS,AGR,150,tipo,el,l,0.4845,,482.8468,482.847,0.010185242,-0.300925954,0,0,0,,0,27,27,4,1,,,,,
,,,,,,7758940305ddcd3ec601d1e3,66a626ef09d4e21e1a8894ec,6734e03e1d41ece48a9e4053,2024-11-13_11h22.31.953,Tarea de género gramatical,2024.2.2,Win32,59.52380952,,,,,,,,,,,,,,,,,,,,,,,,482.8491,483.9303,l,1,[],[],[],[],[],[],[],0.4056,1,483.9304,484.4301,,,,,,945,FEM,CON,150,isla,,a,0.4056,,484.4302,484.4304,0.010185242,-0.300925954,0,0,0,,0,28,28,44,1,,,,,
,,,,,,7758940305ddcd3ec601d1e3,66a626ef09d4e21e1a8894ec,6734e03e1d41ece48a9e4053,2024-11-13_11h22.31.953,Tarea de género gramatical,2024.2.2,Win32,59.52380952,,,,,,,,,,,,,,,,,,,,,,,,484.4334,485.563,l,1,[],[],[],[],[],[],[],0.4548,1,485.5632,486.0632,,,,,,1285,FEM,DIS,150,muñeca,el,a,0.4548,,486.0657,486.0674,0.010185242,-0.300925954,0,0,0,,0,29,29,384,1,,,,,
,,,,,,7758940305ddcd3ec601d1e3,66a626ef09d4e21e1a8894ec,6734e03e1d41ece48a9e4053,2024-11-13_11h22.31.953,Tarea de género gramatical,2024.2.2,Win32,59.52380952,,,,,,,,,,,,,,,,,,,,,,,,486.0686,487.1629,a,1,[],[],[],[],[],[],[],0.4265,1,487.163,487.663,,,,,,1342,MAS,DIS,150,cuadro,la,l,0.4265,,487.6631,487.6632,0.010185242,-0.300925954,0,0,0,,0,30,30,441,1,,,,,
,,,,,,7758940305ddcd3ec601d1e3,66a626ef09d4e21e1a8894ec,6734e03e1d41ece48a9e4053,2024-11-13_11h22.31.953,Tarea de género gramatical,2024.2.2,Win32,59.52380952,,,,,,,,,,,,,,,,,,,,,,,,487.6651,488.7306,l,1,[],[],[],[],[],[],[],0.3947,1,488.7306,489.2298,,,,,,1263,FEM,CON,150,unidad,,a,0.3947,,489.2299,489.2301,0.010185242,-0.300925954,0,0,0,,0,31,31,362,1,,,,,
,,,,,,7758940305ddcd3ec601d1e3,66a626ef09d4e21e1a8894ec,6734e03e1d41ece48a9e4053,2024-11-13_11h22.31.953,Tarea de género gramatical,2024.2.2,Win32,59.52380952,,,,,,,,,,,,,,,,,,,,,,,,489.232,490.6459,l,1,[],[],[],[],[],[],[],0.7417,1,490.6461,491.1456,,,,,,1159,FEM,DIS,150,prima,el,a,0.7417,,491.1458,491.146,0.010185242,-0.300925954,0,0,0,,0,32,32,258,1,,,,,
,,,,,,7758940305ddcd3ec601d1e3,66a626ef09d4e21e1a8894ec,6734e03e1d41ece48a9e4053,2024-11-13_11h22.31.953,Tarea de género gramatical,2024.2.2,Win32,59.52380952,,,,,,,,,,,,,,,,,,,,,,,,491.1479,492.2123,l,1,[],[],[],[],[],[],[],0.3847,1,492.2125,492.7125,,,,,,1281,FEM,CON,150,bebida,,a,0.3847,,492.7148,492.7166,0.010185242,-0.300925954,0,0,0,,0,33,33,380,1,,,,,
,,,,,,7758940305ddcd3ec601d1e3,66a626ef09d4e21e1a8894ec,6734e03e1d41ece48a9e4053,2024-11-13_11h22.31.953,Tarea de género gramatical,2024.2.2,Win32,59.52380952,,,,,,,,,,,,,,,,,,,,,,,,492.7178,493.8289,a,1,[],[],[],[],[],[],[],0.4338,1,493.8291,494.3288,,,,,,1176,MAS,CON,150,ritmo,,l,0.4338,,494.3289,494.3292,0.010185242,-0.300925954,0,0,0,,0,34,34,275,1,,,,,
,,,,,,7758940305ddcd3ec601d1e3,66a626ef09d4e21e1a8894ec,6734e03e1d41ece48a9e4053,2024-11-13_11h22.31.953,Tarea de género gramatical,2024.2.2,Win32,59.52380952,,,,,,,,,,,,,,,,,,,,,,,,494.3306,495.3122,l,1,[],[],[],[],[],[],[],0.3014,1,495.3124,495.8121,,,,,,987,FEM,CON,150,risa,,a,0.3014,,495.8122,495.8124,0.010185242,-0.300925954,0,0,0,,0,35,35,86,1,,,,,
,,,,,,7758940305ddcd3ec601d1e3,66a626ef09d4e21e1a8894ec,6734e03e1d41ece48a9e4053,2024-11-13_11h22.31.953,Tarea de género gramatical,2024.2.2,Win32,59.52380952,,,,,,,,,,,,,,,,,,,,,,,,495.8144,496.846,a,1,[],[],[],[],[],[],[],0.3611,1,496.8461,497.3452,,,,,,966,MAS,CON,150,muro,,l,0.3611,,497.3452,497.3454,0.010185242,-0.300925954,0,0,0,,0,36,36,65,1,,,,,
,,,,,,7758940305ddcd3ec601d1e3,66a626ef09d4e21e1a8894ec,6734e03e1d41ece48a9e4053,2024-11-13_11h22.31.953,Tarea de género gramatical,2024.2.2,Win32,59.52380952,,,,,,,,,,,,,,,,,,,,,,,,497.3467,498.3613,l,1,[],[],[],[],[],[],[],0.3346,1,498.3615,498.8618,,,,,,1059,FEM,CON,150,clase,,a,0.3346,,498.8619,498.862,0.010185242,-0.300925954,0,0,0,,0,37,37,158,1,,,,,
,,,,,,7758940305ddcd3ec601d1e3,66a626ef09d4e21e1a8894ec,6734e03e1d41ece48a9e4053,2024-11-13_11h22.31.953,Tarea de género gramatical,2024.2.2,Win32,59.52380952,,,,,,,,,,,,,,,,,,,,,,,,498.8637,499.9449,a,1,[],[],[],[],[],[],[],0.4011,1,499.945,500.4449,,,,,,1120,MAS,DIS,150,huevo,la,l,0.4011,,500.4476,500.449,0.010185242,-0.300925954,0,0,0,,0,38,38,219,1,,,,,
,,,,,,7758940305ddcd3ec601d1e3,66a626ef09d4e21e1a8894ec,6734e03e1d41ece48a9e4053,2024-11-13_11h22.31.953,Tarea de género gramatical,2024.2.2,Win32,59.52380952,,,,,,,,,,,,,,,,,,,,,,,,500.4501,501.5111,l,0,[],[],[],[],[],[],[],0.3866,0,501.5126,502.0116,,,,,,1212,MAS,CON,150,equipo,,l,0.3866,,502.0116,502.0118,0.010185242,-0.300925954,0,0,0,,0,39,39,311,1,,,,,
,,,,,,7758940305ddcd3ec601d1e3,66a626ef09d4e21e1a8894ec,6734e03e1d41ece48a9e4053,2024-11-13_11h22.31.953,Tarea de género gramatical,2024.2.2,Win32,59.52380952,,,,,,,,,,,,,,,,,,,,,,,,502.013,503.4445,a,1,[],[],[],[],[],[],[],0.7547,1,503.4462,503.9443,,,,,,1116,MAS,CON,150,éxito,,l,0.7547,,503.9445,503.9447,0.010185242,-0.300925954,0,0,0,,0,40,40,215,1,,,,,
,,,,,,7758940305ddcd3ec601d1e3,66a626ef09d4e21e1a8894ec,6734e03e1d41ece48a9e4053,2024-11-13_11h22.31.953,Tarea de género gramatical,2024.2.2,Win32,59.52380952,,,,,,,,,,,,,,,,,,,,,,,,503.9469,504.9775,l,1,[],[],[],[],[],[],[],0.3589,1,504.9776,505.4771,,,,,,1105,FEM,DIS,150,reina,el,a,0.3589,,505.4772,505.4774,0.010185242,-0.300925954,0,0,0,,0,41,41,204,1,,,,,
,,,,,,7758940305ddcd3ec601d1e3,66a626ef09d4e21e1a8894ec,6734e03e1d41ece48a9e4053,2024-11-13_11h22.31.953,Tarea de género gramatical,2024.2.2,Win32,59.52380952,,,,,,,,,,,,,,,,,,,,,,,,505.4792,506.5437,a,1,[],[],[],[],[],[],[],0.3856,1,506.5439,507.044,,,,,,1006,MAS,DIS,150,test,la,l,0.3856,,507.0463,507.0478,0.010185242,-0.300925954,0,0,0,,0,42,42,105,1,,,,,
,,,,,,7758940305ddcd3ec601d1e3,66a626ef09d4e21e1a8894ec,6734e03e1d41ece48a9e4053,2024-11-13_11h22.31.953,Tarea de género gramatical,2024.2.2,Win32,59.52380952,,,,,,,,,,,,,,,,,,,,,,,,507.049,508.1269,l,1,[],[],[],[],[],[],[],0.4007,1,508.1271,508.6265,,,,,,1088,FEM,AGR,150,bomba,la,a,0.4007,,508.6266,508.6267,0.010185242,-0.300925954,0,0,0,,0,43,43,187,1,,,,,
,,,,,,7758940305ddcd3ec601d1e3,66a626ef09d4e21e1a8894ec,6734e03e1d41ece48a9e4053,2024-11-13_11h22.31.953,Tarea de género gramatical,2024.2.2,Win32,59.52380952,,,,,,,,,,,,,,,,,,,,,,,,508.628,509.9104,a,1,[],[],[],[],[],[],[],0.6067,1,509.9106,510.4101,,,,,,1126,MAS,DIS,150,color,la,l,0.6067,,510.4103,510.4104,0.010185242,-0.300925954,0,0,0,,0,44,44,225,1,,,,,
,,,,,,7758940305ddcd3ec601d1e3,66a626ef09d4e21e1a8894ec,6734e03e1d41ece48a9e4053,2024-11-13_11h22.31.953,Tarea de género gramatical,2024.2.2,Win32,59.52380952,,,,,,,,,,,,,,,,,,,,,,,,510.4118,511.4934,a,0,[],[],[],[],[],[],[],0.4064,0,511.4944,511.9932,,,,,,1177,FEM,DIS,150,plaza,el,a,0.4064,,511.9934,511.9935,0.010185242,-0.300925954,0,0,0,,0,45,45,276,1,,,,,
,,,,,,7758940305ddcd3ec601d1e3,66a626ef09d4e21e1a8894ec,6734e03e1d41ece48a9e4053,2024-11-13_11h22.31.953,Tarea de género gramatical,2024.2.2,Win32,59.52380952,,,,,,,,,,,,,,,,,,,,,,,,511.9957,513.1764,a,1,[],[],[],[],[],[],[],0.5085,1,513.1776,513.6764,,,,,,1062,MAS,CON,150,miedo,,l,0.5085,,513.6764,513.6767,0.010185242,-0.300925954,0,0,0,,0,46,46,161,1,,,,,
,,,,,,7758940305ddcd3ec601d1e3,66a626ef09d4e21e1a8894ec,6734e03e1d41ece48a9e4053,2024-11-13_11h22.31.953,Tarea de género gramatical,2024.2.2,Win32,59.52380952,,,,,,,,,,,,,,,,,,,,,,,,513.6789,514.7763,l,0,[],[],[],[],[],[],[],0.4192,0,514.7777,515.2763,,,,,,1181,MAS,AGR,150,actor,el,l,0.4192,,515.2789,515.2809,0.010185242,-0.300925954,0,0,0,,0,47,47,280,1,,,,,
,,,,,,7758940305ddcd3ec601d1e3,66a626ef09d4e21e1a8894ec,6734e03e1d41ece48a9e4053,2024-11-13_11h22.31.953,Tarea de género gramatical,2024.2.2,Win32,59.52380952,,,,,,,,,,,,,,,,,,,,,,,,515.2822,516.5945,a,1,[],[],[],[],[],[],[],0.6454,1,516.596,517.0924,,,,,,1216,MAS,DIS,150,cuerpo,la,l,0.6454,,517.0925,517.0927,0.010185242,-0.300925954,0,0,0,,0,48,48,315,1,,,,,
,,,,,,7758940305ddcd3ec601d1e3,66a626ef09d4e21e1a8894ec,6734e03e1d41ece48a9e4053,2024-11-13_11h22.31.953,Tarea de género gramatical,2024.2.2,Win32,59.52380952,,,,,,,,,,,,,,,,,,,,,,,,517.0947,518.1755,l,1,[],[],[],[],[],[],[],0.4106,1,518.1756,518.6757,,,,,,927,FEM,CON,150,mesa,,a,0.4106,,518.6759,518.6761,0.010185242,-0.300925954,0,0,0,,0,49,49,26,1,,,,,
,,,,,,7758940305ddcd3ec601d1e3,66a626ef09d4e21e1a8894ec,6734e03e1d41ece48a9e4053,2024-11-13_11h22.31.953,Tarea de género gramatical,2024.2.2,Win32,59.52380952,,,,,,,,,,,,,,,,,,,,,,,,518.6778,519.7757,a,0,[],[],[],[],[],[],[],0.4231,0,519.7771,520.2752,,,,,,1323,FEM,CON,150,poesía,,a,0.4231,,520.2753,520.2753,0.010185242,-0.300925954,0,0,0,,0,50,50,422,1,,,,,
,,,,,,7758940305ddcd3ec601d1e3,66a626ef09d4e21e1a8894ec,6734e03e1d41ece48a9e4053,2024-11-13_11h22.31.953,Tarea de género gramatical,2024.2.2,Win32,59.52380952,,,,,,,,,,,,,,,,,,,,,,,,520.2765,521.3255,a,1,[],[],[],[],[],[],[],0.3677,1,521.3271,521.8254,,,,,,1217,MAS,AGR,150,número,el,l,0.3677,,521.8278,521.8294,0.010185242,-0.300925954,0,0,0,,0,51,51,316,1,,,,,
,,,,,,7758940305ddcd3ec601d1e3,66a626ef09d4e21e1a8894ec,6734e03e1d41ece48a9e4053,2024-11-13_11h22.31.953,Tarea de género gramatical,2024.2.2,Win32,59.52380952,,,,,,,,,,,,,,,,,,,,,,,,521.8306,522.9084,l,1,[],[],[],[],[],[],[],0.4008,1,522.9086,523.4082,,,,,,1225,FEM,DIS,150,tierra,el,a,0.4008,,523.4083,523.4084,0.010185242,-0.300925954,0,0,0,,0,52,52,324,1,,,,,
,,,,,,7758940305ddcd3ec601d1e3,66a626ef09d4e21e1a8894ec,6734e03e1d41ece48a9e4053,2024-11-13_11h22.31.953,Tarea de género gramatical,2024.2.2,Win32,59.52380952,,,,,,,,,,,,,,,,,,,,,,,,523.4093,524.4251,a,1,[],[],[],[],[],[],[],0.3408,1,524.4254,524.9248,,,,,,1001,MAS,AGR,150,giro,el,l,0.3408,,524.9249,524.9249,0.010185242,-0.300925954,0,0,0,,0,53,53,100,1,,,,,
,,,,,,7758940305ddcd3ec601d1e3,66a626ef09d4e21e1a8894ec,6734e03e1d41ece48a9e4053,2024-11-13_11h22.31.953,Tarea de género gramatical,2024.2.2,Win32,59.52380952,,,,,,,,,,,,,,,,,,,,,,,,524.9266,526.0246,l,1,[],[],[],[],[],[],[],0.4177,1,526.0248,526.5249,,,,,,1106,FEM,AGR,150,época,la,a,0.4177,,526.525,526.5252,0.010185242,-0.300925954,0,0,0,,0,54,54,205,1,,,,,
,,,,,,7758940305ddcd3ec601d1e3,66a626ef09d4e21e1a8894ec,6734e03e1d41ece48a9e4053,2024-11-13_11h22.31.953,Tarea de género gramatical,2024.2.2,Win32,59.52380952,,,,,,,,,,,,,,,,,,,,,,,,526.5275,527.6746,l,1,[],[],[],[],[],[],[],0.4711,1,527.6748,528.1749,,,,,,1339,FEM,DIS,150,toalla,el,a,0.4711,,528.175,528.1751,0.010185242,-0.300925954,0,0,0,,0,55,55,438,1,,,,,
,,,,,,7758940305ddcd3ec601d1e3,66a626ef09d4e21e1a8894ec,6734e03e1d41ece48a9e4053,2024-11-13_11h22.31.953,Tarea de género gramatical,2024.2.2,Win32,59.52380952,,,,,,,,,,,,,,,,,,,,,,,,528.1771,529.3079,a,1,[],[],[],[],[],[],[],0.4523,1,529.308,529.8078,,,,,,922,MAS,DIS,150,pelo,la,l,0.4523,,529.8095,529.8113,0.010185242,-0.300925954,0,0,0,,0,56,56,21,1,,,,,
,,,,,,7758940305ddcd3ec601d1e3,66a626ef09d4e21e1a8894ec,6734e03e1d41ece48a9e4053,2024-11-13_11h22.31.953,Tarea de género gramatical,2024.2.2,Win32,59.52380952,,,,,,,,,,,,,,,,,,,,,,,,529.8123,530.9743,a,1,[],[],[],[],[],[],[],0.488,1,530.9745,531.4742,,,,,,1049,MAS,AGR,150,nudo,el,l,0.488,,531.4743,531.4744,0.010185242,-0.300925954,0,0,0,,0,57,57,148,1,,,,,
,,,,,,7758940305ddcd3ec601d1e3,66a626ef09d4e21e1a8894ec,6734e03e1d41ece48a9e4053,2024-11-13_11h22.31.953,Tarea de género gramatical,2024.2.2,Win32,59.52380952,,,,,,,,,,,,,,,,,,,,,,,,531.4767,532.5905,a,1,[],[],[],[],[],[],[],0.4356,1,532.5908,533.0906,,,,,,988,MAS,DIS,150,pavo,la,l,0.4356,,533.0908,533.0909,0.010185242,-0.300925954,0,0,0,,0,58,58,87,1,,,,,
,,,,,,7758940305ddcd3ec601d1e3,66a626ef09d4e21e1a8894ec,6734e03e1d41ece48a9e4053,2024-11-13_11h22.31.953,Tarea de género gramatical,2024.2.2,Win32,59.52380952,,,,,,,,,,,,,,,,,,,,,,,,533.0928,534.2909,a,1,[],[],[],[],[],[],[],0.5271,1,534.2911,534.7905,,,,,,1259,MAS,AGR,150,bosque,el,l,0.5271,,534.7906,534.7908,0.010185242,-0.300925954,0,0,0,,0,59,59,358,1,,,,,
,,,,,,7758940305ddcd3ec601d1e3,66a626ef09d4e21e1a8894ec,6734e03e1d41ece48a9e4053,2024-11-13_11h22.31.953,Tarea de género gramatical,2024.2.2,Win32,59.52380952,,,,,,,,,,,,,,,,,,,,,,,,534.7929,535.8402,l,1,[],[],[],[],[],[],[],0.3675,1,535.8407,536.3404,,,,,,1249,FEM,DIS,150,prensa,el,a,0.3675,,536.343,536.3445,0.010185242,-0.300925954,0,0,0,,0,60,60,348,1,,,,,
,,,,,,7758940305ddcd3ec601d1e3,66a626ef09d4e21e1a8894ec,6734e03e1d41ece48a9e4053,2024-11-13_11h22.31.953,Tarea de género gramatical,2024.2.2,Win32,59.52380952,,,,,,,,,,,,,,,,,,,,,,,,536.3466,537.3732,l,1,[],[],[],[],[],[],[],0.3593,1,537.3734,537.8733,,,,,,909,FEM,CON,150,mamá,,a,0.3593,,537.8733,537.8735,0.010185242,-0.300925954,0,0,0,,0,61,61,8,1,,,,,
,,,,,,7758940305ddcd3ec601d1e3,66a626ef09d4e21e1a8894ec,6734e03e1d41ece48a9e4053,2024-11-13_11h22.31.953,Tarea de género gramatical,2024.2.2,Win32,59.52380952,,,,,,,,,,,,,,,,,,,,,,,,537.8756,538.9232,a,1,[],[],[],[],[],[],[],0.3713,1,538.9234,539.4233,,,,,,958,MAS,DIS,150,mono,la,l,0.3713,,539.4234,539.4235,0.010185242,-0.300925954,0,0,0,,0,62,62,57,1,,,,,
,,,,,,7758940305ddcd3ec601d1e3,66a626ef09d4e21e1a8894ec,6734e03e1d41ece48a9e4053,2024-11-13_11h22.31.953,Tarea de género gramatical,2024.2.2,Win32,59.52380952,,,,,,,,,,,,,,,,,,,,,,,,539.4251,540.4898,l,1,[],[],[],[],[],[],[],0.3891,1,540.49,540.9893,,,,,,1286,FEM,AGR,150,sombra,la,a,0.3891,,540.9893,540.9894,0.010185242,-0.300925954,0,0,0,,0,63,63,385,1,,,,,
,,,,,,7758940305ddcd3ec601d1e3,66a626ef09d4e21e1a8894ec,6734e03e1d41ece48a9e4053,2024-11-13_11h22.31.953,Tarea de género gramatical,2024.2.2,Win32,59.52380952,,,,,,,,,,,,,,,,,,,,,,,,540.9905,542.0395,a,0,[],[],[],[],[],[],[],0.3706,0,542.0409,542.5395,,,,,,933,FEM,CON,150,boda,,a,0.3706,,542.5396,542.5397,0.010185242,-0.300925954,0,0,0,,0,64,64,32,1,,,,,
,,,,,,7758940305ddcd3ec601d1e3,66a626ef09d4e21e1a8894ec,6734e03e1d41ece48a9e4053,2024-11-13_11h22.31.953,Tarea de género gramatical,2024.2.2,Win32,59.52380952,,,,,,,,,,,,,,,,,,,,,,,,542.5416,543.7224,a,1,[],[],[],[],[],[],[],0.5001,1,543.723,544.2221,,,,,,1042,MAS,DIS,150,lodo,la,l,0.5001,,544.2236,544.2249,0.010185242,-0.300925954,0,0,0,,0,65,65,141,1,,,,,
,,,,,,7758940305ddcd3ec601d1e3,66a626ef09d4e21e1a8894ec,6734e03e1d41ece48a9e4053,2024-11-13_11h22.31.953,Tarea de género gramatical,2024.2.2,Win32,59.52380952,,,,,,,,,,,,,,,,,,,,,,,,544.2254,545.4554,a,1,[],[],[],[],[],[],[],0.5588,1,545.4557,545.9554,,,,,,1264,MAS,DIS,150,viento,la,l,0.5588,,545.9555,545.9558,0.010185242,-0.300925954,0,0,0,,0,66,66,363,1,,,,,
,,,,,,7758940305ddcd3ec601d1e3,66a626ef09d4e21e1a8894ec,6734e03e1d41ece48a9e4053,2024-11-13_11h22.31.953,Tarea de género gramatical,2024.2.2,Win32,59.52380952,,,,,,,,,,,,,,,,,,,,,,,,545.9578,547.1389,l,0,[],[],[],[],[],[],[],0.5029,0,547.1404,547.6384,,,,,,1247,MAS,AGR,150,cuello,el,l,0.5029,,547.6386,547.6388,0.010185242,-0.300925954,0,0,0,,0,67,67,346,1,,,,,
,,,,,,7758940305ddcd3ec601d1e3,66a626ef09d4e21e1a8894ec,6734e03e1d41ece48a9e4053,2024-11-13_11h22.31.953,Tarea de género gramatical,2024.2.2,Win32,59.52380952,,,,,,,,,,,,,,,,,,,,,,,,547.6407,548.672,l,1,[],[],[],[],[],[],[],0.3508,1,548.6734,549.1719,,,,,,1275,FEM,CON,150,cadena,,a,0.3508,,549.1719,549.1721,0.010185242,-0.300925954,0,0,0,,0,68,68,374,1,,,,,
,,,,,,7758940305ddcd3ec601d1e3,66a626ef09d4e21e1a8894ec,6734e03e1d41ece48a9e4053,2024-11-13_11h22.31.953,Tarea de género gramatical,2024.2.2,Win32,59.52380952,,,,,,,,,,,,,,,,,,,,,,,,549.1741,550.4049,l,1,[],[],[],[],[],[],[],0.5522,1,550.405,550.9055,,,,,,1141,FEM,DIS,150,pasta,el,a,0.5522,,550.9075,550.909,0.010185242,-0.300925954,0,0,0,,0,69,69,240,1,,,,,
,,,,,,7758940305ddcd3ec601d1e3,66a626ef09d4e21e1a8894ec,6734e03e1d41ece48a9e4053,2024-11-13_11h22.31.953,Tarea de género gramatical,2024.2.2,Win32,59.52380952,,,,,,,,,,,,,,,,,,,,,,,,550.91,551.9383,l,1,[],[],[],[],[],[],[],0.3539,1,551.9385,552.4382,,,,,,1053,FEM,CON,150,mujer,,a,0.3539,,552.4383,552.4385,0.010185242,-0.300925954,0,0,0,,0,70,70,152,1,,,,,
,,,,,,7758940305ddcd3ec601d1e3,66a626ef09d4e21e1a8894ec,6734e03e1d41ece48a9e4053,2024-11-13_11h22.31.953,Tarea de género gramatical,2024.2.2,Win32,59.52380952,,,,,,,,,,,,,,,,,,,,,,,,552.4414,553.7049,a,1,[],[],[],[],[],[],[],0.584,1,553.7051,554.2047,,,,,,1349,MAS,AGR,150,payaso,el,l,0.584,,554.2048,554.205,0.010185242,-0.300925954,0,0,0,,0,71,71,448,1,,,,,
,,,,,,7758940305ddcd3ec601d1e3,66a626ef09d4e21e1a8894ec,6734e03e1d41ece48a9e4053,2024-11-13_11h22.31.953,Tarea de género gramatical,2024.2.2,Win32,59.52380952,,,,,,,,,,,,,,,,,,,,,,,,554.2068,555.3546,l,1,[],[],[],[],[],[],[],0.4696,1,555.3547,555.8544,,,,,,1321,FEM,DIS,150,novela,el,a,0.4696,,555.8546,555.8546,0.010185242,-0.300925954,0,0,0,,0,72,72,420,1,,,,,
,,,,,,7758940305ddcd3ec601d1e3,66a626ef09d4e21e1a8894ec,6734e03e1d41ece48a9e4053,2024-11-13_11h22.31.953,Tarea de género gramatical,2024.2.2,Win32,59.52380952,,,,,,,,,,,,,,,,,,,,,,,,555.8582,556.8542,a,0,[],[],[],[],[],[],[],0.3245,0,556.8557,557.3545,,,,,,1221,FEM,CON,150,comida,,a,0.3245,,557.3546,557.3547,0.010185242,-0.300925954,0,0,0,,0,73,73,320,1,,,,,
,,,,,,7758940305ddcd3ec601d1e3,66a626ef09d4e21e1a8894ec,6734e03e1d41ece48a9e4053,2024-11-13_11h22.31.953,Tarea de género gramatical,2024.2.2,Win32,59.52380952,,,,,,,,,,,,,,,,,,,,,,,,557.3567,558.6207,l,1,[],[],[],[],[],[],[],0.5839,1,558.622,559.1208,,,,,,1346,FEM,AGR,150,bañera,la,a,0.5839,,559.1228,559.1244,0.010185242,-0.300925954,0,0,0,,0,74,74,445,1,,,,,
,,,,,,7758940305ddcd3ec601d1e3,66a626ef09d4e21e1a8894ec,6734e03e1d41ece48a9e4053,2024-11-13_11h22.31.953,Tarea de género gramatical,2024.2.2,Win32,59.52380952,,,,,,,,,,,,,,,,,,,,,,,,559.1259,560.4367,a,1,[],[],[],[],[],[],[],0.6338,1,560.4367,560.937,,,,,,916,MAS,DIS,150,baño,la,l,0.6338,,560.9371,560.9373,0.010185242,-0.300925954,0,0,0,,0,75,75,15,1,,,,,
,,,,,,7758940305ddcd3ec601d1e3,66a626ef09d4e21e1a8894ec,6734e03e1d41ece48a9e4053,2024-11-13_11h22.31.953,Tarea de género gramatical,2024.2.2,Win32,59.52380952,,,,,,,,,,,,,,,,,,,,,,,,560.9388,562.1537,a,1,[],[],[],[],[],[],[],0.5345,1,562.1538,562.6533,,,,,,971,MAS,AGR,150,pozo,el,l,0.5345,,562.6533,562.6535,0.010185242,-0.300925954,0,0,0,,0,76,76,70,1,,,,,
,,,,,,7758940305ddcd3ec601d1e3,66a626ef09d4e21e1a8894ec,6734e03e1d41ece48a9e4053,2024-11-13_11h22.31.953,Tarea de género gramatical,2024.2.2,Win32,59.52380952,,,,,,,,,,,,,,,,,,,,,,,,562.6549,563.7697,a,1,[],[],[],[],[],[],[],0.4431,1,563.7699,564.2698,,,,,,1074,MAS,CON,150,perro,,l,0.4431,,564.2699,564.2701,0.010185242,-0.300925954,0,0,0,,0,77,77,173,1,,,,,
,,,,,,7758940305ddcd3ec601d1e3,66a626ef09d4e21e1a8894ec,6734e03e1d41ece48a9e4053,2024-11-13_11h22.31.953,Tarea de género gramatical,2024.2.2,Win32,59.52380952,,,,,,,,,,,,,,,,,,,,,,,,564.2719,565.5033,l,1,[],[],[],[],[],[],[],0.5495,1,565.5035,566.0031,,,,,,1083,FEM,CON,150,llave,,a,0.5495,,566.0052,566.0066,0.010185242,-0.300925954,0,0,0,,0,78,78,182,1,,,,,
,,,,,,7758940305ddcd3ec601d1e3,66a626ef09d4e21e1a8894ec,6734e03e1d41ece48a9e4053,2024-11-13_11h22.31.953,Tarea de género gramatical,2024.2.2,Win32,59.52380952,,,,,,,,,,,,,,,,,,,,,,,,566.0073,567.086,a,1,[],[],[],[],[],[],[],0.4002,1,567.0861,567.5862,,,,,,1193,MAS,AGR,150,patio,el,l,0.4002,,567.5863,567.5865,0.010185242,-0.300925954,0,0,0,,0,79,79,292,1,,,,,
,,,,,,7758940305ddcd3ec601d1e3,66a626ef09d4e21e1a8894ec,6734e03e1d41ece48a9e4053,2024-11-13_11h22.31.953,Tarea de género gramatical,2024.2.2,Win32,59.52380952,,,,,,,,,,,,,,,,,,,,,,,,567.5886,568.8027,l,1,[],[],[],[],[],[],[],0.5358,1,568.8029,569.3027,,,,,,1147,FEM,DIS,150,frase,el,a,0.5358,,569.3029,569.3031,0.010185242,-0.300925954,0,0,0,,0,80,80,246,1,,,,,
,,,,,,7758940305ddcd3ec601d1e3,66a626ef09d4e21e1a8894ec,6734e03e1d41ece48a9e4053,2024-11-13_11h22.31.953,Tarea de género gramatical,2024.2.2,Win32,59.52380952,,,,,,,,,,,,,,,,,,,,,,,,569.305,570.3358,l,1,[],[],[],[],[],[],[],0.3528,1,570.3359,570.8358,,,,,,1178,FEM,AGR,150,presa,la,a,0.3528,,570.836,570.8362,0.010185242,-0.300925954,0,0,0,,0,81,81,277,1,,,,,
,,,,,,7758940305ddcd3ec601d1e3,66a626ef09d4e21e1a8894ec,6734e03e1d41ece48a9e4053,2024-11-13_11h22.31.953,Tarea de género gramatical,2024.2.2,Win32,59.52380952,,,,,,,,,,,,,,,,,,,,,,,,570.8381,572.2353,a,0,[],[],[],[],[],[],[],0.717,0,572.2366,572.7354,,,,,,1237,FEM,DIS,150,escena,el,a,0.717,,572.7355,572.7357,0.010185242,-0.300925954,0,0,0,,0,82,82,336,1,,,,,
,,,,,,7758940305ddcd3ec601d1e3,66a626ef09d4e21e1a8894ec,6734e03e1d41ece48a9e4053,2024-11-13_11h22.31.953,Tarea de género gramatical,2024.2.2,Win32,59.52380952,,,,,,,,,,,,,,,,,,,,,,,,572.7377,573.9522,a,1,[],[],[],[],[],[],[],0.5359,1,573.9535,574.4516,,,,,,1018,MAS,DIS,150,baúl,la,l,0.5359,,574.4526,574.4542,0.010185242,-0.300925954,0,0,0,,0,83,83,117,1,,,,,
,,,,,,7758940305ddcd3ec601d1e3,66a626ef09d4e21e1a8894ec,6734e03e1d41ece48a9e4053,2024-11-13_11h22.31.953,Tarea de género gramatical,2024.2.2,Win32,59.52380952,,,,,,,,,,,,,,,,,,,,,,,,574.4551,575.6186,a,1,[],[],[],[],[],[],[],0.4842,1,575.6188,576.1185,,,,,,1198,MAS,DIS,150,botón,la,l,0.4842,,576.1186,576.1188,0.010185242,-0.300925954,0,0,0,,0,84,84,297,1,,,,,
,,,,,,7758940305ddcd3ec601d1e3,66a626ef09d4e21e1a8894ec,6734e03e1d41ece48a9e4053,2024-11-13_11h22.31.953,Tarea de género gramatical,2024.2.2,Win32,59.52380952,,,,,,,,,,,,,,,,,,,,,,,,576.1207,577.3016,a,1,[],[],[],[],[],[],[],0.5046,1,577.3017,577.8017,,,,,,1157,MAS,AGR,150,pecho,el,l,0.5046,,577.8018,577.8019,0.010185242,-0.300925954,0,0,0,,0,85,85,256,1,,,,,
,,,,,,7758940305ddcd3ec601d1e3,66a626ef09d4e21e1a8894ec,6734e03e1d41ece48a9e4053,2024-11-13_11h22.31.953,Tarea de género gramatical,2024.2.2,Win32,59.52380952,,,,,,,,,,,,,,,,,,,,,,,,577.8046,578.9348,a,0,[],[],[],[],[],[],[],0.4511,0,578.9362,579.4346,,,,,,1028,FEM,AGR,150,leña,la,a,0.4511,,579.4346,579.4348,0.010185242,-0.300925954,0,0,0,,0,86,86,127,1,,,,,
,,,,,,7758940305ddcd3ec601d1e3,66a626ef09d4e21e1a8894ec,6734e03e1d41ece48a9e4053,2024-11-13_11h22.31.953,Tarea de género gramatical,2024.2.2,Win32,59.52380952,,,,,,,,,,,,,,,,,,,,,,,,579.4364,580.5512,a,1,[],[],[],[],[],[],[],0.4395,1,580.5525,581.0513,,,,,,1211,MAS,AGR,150,camino,el,l,0.4395,,581.054,581.0554,0.010185242,-0.300925954,0,0,0,,0,87,87,310,1,,,,,
,,,,,,7758940305ddcd3ec601d1e3,66a626ef09d4e21e1a8894ec,6734e03e1d41ece48a9e4053,2024-11-13_11h22.31.953,Tarea de género gramatical,2024.2.2,Win32,59.52380952,,,,,,,,,,,,,,,,,,,,,,,,581.0566,582.101,a,1,[],[],[],[],[],[],[],0.3744,1,582.1012,582.6009,,,,,,1294,MAS,DIS,150,examen,la,l,0.3744,,582.601,582.6012,0.010185242,-0.300925954,0,0,0,,0,88,88,393,1,,,,,
,,,,,,7758940305ddcd3ec601d1e3,66a626ef09d4e21e1a8894ec,6734e03e1d41ece48a9e4053,2024-11-13_11h22.31.953,Tarea de género gramatical,2024.2.2,Win32,59.52380952,,,,,,,,,,,,,,,,,,,,,,,,582.603,583.6675,l,1,[],[],[],[],[],[],[],0.3848,1,583.6677,584.167,,,,,,1161,FEM,CON,150,cueva,,a,0.3848,,584.167,584.1671,0.010185242,-0.300925954,0,0,0,,0,89,89,260,1,,,,,
,,,,,,7758940305ddcd3ec601d1e3,66a626ef09d4e21e1a8894ec,6734e03e1d41ece48a9e4053,2024-11-13_11h22.31.953,Tarea de género gramatical,2024.2.2,Win32,59.52380952,,,,,,,,,,,,,,,,,,,,,,,,584.1678,585.3673,l,1,[],[],[],[],[],[],[],0.517,1,585.3675,585.8672,,,,,,997,FEM,DIS,150,capa,el,a,0.517,,585.8674,585.8675,0.010185242,-0.300925954,0,0,0,,0,90,90,96,1,,,,,
,,,,,,7758940305ddcd3ec601d1e3,66a626ef09d4e21e1a8894ec,6734e03e1d41ece48a9e4053,2024-11-13_11h22.31.953,Tarea de género gramatical,2024.2.2,Win32,59.52380952,,,,,,,,,,,,,,,,,,,,,,,,585.8695,587.0006,a,1,[],[],[],[],[],[],[],0.4557,1,587.0007,587.5003,,,,,,1096,MAS,DIS,150,barco,la,l,0.4557,,587.5003,587.5004,0.010185242,-0.300925954,0,0,0,,0,91,91,195,1,,,,,
,,,,,,7758940305ddcd3ec601d1e3,66a626ef09d4e21e1a8894ec,6734e03e1d41ece48a9e4053,2024-11-13_11h22.31.953,Tarea de género gramatical,2024.2.2,Win32,59.52380952,,,,,,,,,,,,,,,,,,,,,,,,587.5024,588.85,a,1,[],[],[],[],[],[],[],0.6773,1,588.8502,589.35,,,,,,1278,MAS,CON,150,pastel,,l,0.6773,,589.3524,589.354,0.010185242,-0.300925954,0,0,0,,0,92,92,377,1,,,,,
,,,,,,7758940305ddcd3ec601d1e3,66a626ef09d4e21e1a8894ec,6734e03e1d41ece48a9e4053,2024-11-13_11h22.31.953,Tarea de género gramatical,2024.2.2,Win32,59.52380952,,,,,,,,,,,,,,,,,,,,,,,,589.3552,590.3833,l,1,[],[],[],[],[],[],[],0.3617,1,590.3834,590.8833,,,,,,1112,FEM,AGR,150,cinta,la,a,0.3617,,590.8833,590.8836,0.010185242,-0.300925954,0,0,0,,0,93,93,211,1,,,,,
,,,,,,7758940305ddcd3ec601d1e3,66a626ef09d4e21e1a8894ec,6734e03e1d41ece48a9e4053,2024-11-13_11h22.31.953,Tarea de género gramatical,2024.2.2,Win32,59.52380952,,,,,,,,,,,,,,,,,,,,,,,,590.8857,592.0832,l,1,[],[],[],[],[],[],[],0.5173,1,592.0834,592.5831,,,,,,932,FEM,AGR,150,caja,la,a,0.5173,,592.5831,592.5833,0.010185242,-0.300925954,0,0,0,,0,94,94,31,1,,,,,
,,,,,,7758940305ddcd3ec601d1e3,66a626ef09d4e21e1a8894ec,6734e03e1d41ece48a9e4053,2024-11-13_11h22.31.953,Tarea de género gramatical,2024.2.2,Win32,59.52380952,,,,,,,,,,,,,,,,,,,,,,,,592.5852,593.8158,a,1,[],[],[],[],[],[],[],0.5511,1,593.8159,594.316,,,,,,1145,MAS,AGR,150,turno,el,l,0.5511,,594.3162,594.3163,0.010185242,-0.300925954,0,0,0,,0,95,95,244,1,,,,,
,,,,,,7758940305ddcd3ec601d1e3,66a626ef09d4e21e1a8894ec,6734e03e1d41ece48a9e4053,2024-11-13_11h22.31.953,Tarea de género gramatical,2024.2.2,Win32,59.52380952,,,,,,,,,,,,,,,,,,,,,,,,594.3184,595.4827,a,1,[],[],[],[],[],[],[],0.4849,1,595.4828,595.9821,,,,,,1020,MAS,CON,150,puño,,l,0.4849,,595.9836,595.9851,0.010185242,-0.300925954,0,0,0,,0,96,96,119,1,,,,,
,,,,,,7758940305ddcd3ec601d1e3,66a626ef09d4e21e1a8894ec,6734e03e1d41ece48a9e4053,2024-11-13_11h22.31.953,Tarea de género gramatical,2024.2.2,Win32,59.52380952,,,,,,,,,,,,,,,,,,,,,,,,595.9859,597.0987,l,1,[],[],[],[],[],[],[],0.4417,1,597.0988,597.5992,,,,,,1130,FEM,AGR,150,regla,la,a,0.4417,,597.5993,597.5995,0.010185242,-0.300925954,0,0,0,,0,97,97,229,1,,,,,
,,,,,,7758940305ddcd3ec601d1e3,66a626ef09d4e21e1a8894ec,6734e03e1d41ece48a9e4053,2024-11-13_11h22.31.953,Tarea de género gramatical,2024.2.2,Win32,59.52380952,,,,,,,,,,,,,,,,,,,,,,,,597.6013,598.6656,l,1,[],[],[],[],[],[],[],0.3839,1,598.6657,599.1654,,,,,,1244,FEM,AGR,150,pareja,la,a,0.3839,,599.1656,599.1658,0.010185242,-0.300925954,0,0,0,,0,98,98,343,1,,,,,
,,,,,,7758940305ddcd3ec601d1e3,66a626ef09d4e21e1a8894ec,6734e03e1d41ece48a9e4053,2024-11-13_11h22.31.953,Tarea de género gramatical,2024.2.2,Win32,59.52380952,,,,,,,,,,,,,,,,,,,,,,,,599.1678,600.3314,l,1,[],[],[],[],[],[],[],0.4879,1,600.3315,600.8321,,,,,,1213,FEM,DIS,150,ciudad,el,a,0.4879,,600.8322,600.8324,0.010185242,-0.300925954,0,0,0,,0,99,99,312,1,,,,,
,,,,,,7758940305ddcd3ec601d1e3,66a626ef09d4e21e1a8894ec,6734e03e1d41ece48a9e4053,2024-11-13_11h22.31.953,Tarea de género gramatical,2024.2.2,Win32,59.52380952,,,,,,,,,,,,,,,,,,,,,,,,600.8343,602.0811,a,1,[],[],[],[],[],[],[],0.5732,1,602.0813,602.5813,,,,,,1222,MAS,DIS,150,minuto,la,l,0.5732,,602.5814,602.5815,0.010185242,-0.300925954,0,0,0,,0,100,100,321,1,,,,,
,,,,,,7758940305ddcd3ec601d1e3,66a626ef09d4e21e1a8894ec,6734e03e1d41ece48a9e4053,2024-11-13_11h22.31.953,Tarea de género gramatical,2024.2.2,Win32,59.52380952,,,,,,,,,,,,,,,,,,,,,,,,602.5829,603.7644,l,1,[],[],[],[],[],[],[],0.5019,1,603.7645,604.2647,,,,,,1057,FEM,DIS,150,madre,el,a,0.5019,,604.2672,604.2688,0.010185242,-0.300925954,0,0,0,,0,101,101,156,1,,,,,
,,,,,,7758940305ddcd3ec601d1e3,66a626ef09d4e21e1a8894ec,6734e03e1d41ece48a9e4053,2024-11-13_11h22.31.953,Tarea de género gramatical,2024.2.2,Win32,59.52380952,,,,,,,,,,,,,,,,,,,,,,,,604.2701,605.3813,l,1,[],[],[],[],[],[],[],0.4359,1,605.3814,605.8814,,,,,,1076,FEM,AGR,150,línea,la,a,0.4359,,605.8815,605.8815,0.010185242,-0.300925954,0,0,0,,0,102,102,175,1,,,,,
,,,,,,7758940305ddcd3ec601d1e3,66a626ef09d4e21e1a8894ec,6734e03e1d41ece48a9e4053,2024-11-13_11h22.31.953,Tarea de género gramatical,2024.2.2,Win32,59.52380952,,,,,,,,,,,,,,,,,,,,,,,,605.883,607.0645,l,0,[],[],[],[],[],[],[],0.5057,0,607.066,607.5647,,,,,,1180,MAS,DIS,150,salón,la,l,0.5057,,607.5647,607.565,0.010185242,-0.300925954,0,0,0,,0,103,103,279,1,,,,,
,,,,,,7758940305ddcd3ec601d1e3,66a626ef09d4e21e1a8894ec,6734e03e1d41ece48a9e4053,2024-11-13_11h22.31.953,Tarea de género gramatical,2024.2.2,Win32,59.52380952,,,,,,,,,,,,,,,,,,,,,,,,607.5666,608.5977,l,1,[],[],[],[],[],[],[],0.3543,1,608.5992,609.0976,,,,,,998,FEM,AGR,150,fuga,la,a,0.3543,,609.0977,609.0978,0.010185242,-0.300925954,0,0,0,,0,104,104,97,1,,,,,
,,,,,,7758940305ddcd3ec601d1e3,66a626ef09d4e21e1a8894ec,6734e03e1d41ece48a9e4053,2024-11-13_11h22.31.953,Tarea de género gramatical,2024.2.2,Win32,59.52380952,,,,,,,,,,,,,,,,,,,,,,,,609.0998,610.2637,l,1,[],[],[],[],[],[],[],0.4929,1,610.2639,610.7638,,,,,,1035,FEM,CON,150,raíz,,a,0.4929,,610.7655,610.7671,0.010185242,-0.300925954,0,0,0,,0,105,105,134,1,,,,,
,,,,,,7758940305ddcd3ec601d1e3,66a626ef09d4e21e1a8894ec,6734e03e1d41ece48a9e4053,2024-11-13_11h22.31.953,Tarea de género gramatical,2024.2.2,Win32,59.52380952,,,,,,,,,,,,,,,,,,,,,,,,610.7681,611.8138,l,1,[],[],[],[],[],[],[],0.368,1,611.8141,612.3138,,,,,,1269,FEM,CON,150,camisa,,a,0.368,,612.3139,612.314,0.010185242,-0.300925954,0,0,0,,0,106,106,368,1,,,,,
,,,,,,7758940305ddcd3ec601d1e3,66a626ef09d4e21e1a8894ec,6734e03e1d41ece48a9e4053,2024-11-13_11h22.31.953,Tarea de género gramatical,2024.2.2,Win32,59.52380952,,,,,,,,,,,,,,,,,,,,,,,,612.316,613.2797,l,1,[],[],[],[],[],[],[],0.2825,1,613.2797,613.7799,,,,,,902,FEM,AGR,150,vida,la,a,0.2825,,613.78,613.7802,0.010185242,-0.300925954,0,0,0,,0,107,107,1,1,,,,,
,,,,,,7758940305ddcd3ec601d1e3,66a626ef09d4e21e1a8894ec,6734e03e1d41ece48a9e4053,2024-11-13_11h22.31.953,Tarea de género gramatical,2024.2.2,Win32,59.52380952,,,,,,,,,,,,,,,,,,,,,,,,613.7823,614.7968,l,1,[],[],[],[],[],[],[],0.3345,1,614.797,615.2966,,,,,,914,FEM,AGR,150,cara,la,a,0.3345,,615.2967,615.2969,0.010185242,-0.300925954,0,0,0,,0,108,108,13,1,,,,,
,,,,,,7758940305ddcd3ec601d1e3,66a626ef09d4e21e1a8894ec,6734e03e1d41ece48a9e4053,2024-11-13_11h22.31.953,Tarea de género gramatical,2024.2.2,Win32,59.52380952,,,,,,,,,,,,,,,,,,,,,,,,615.2993,616.4302,a,1,[],[],[],[],[],[],[],0.4558,1,616.4303,616.9299,,,,,,1319,MAS,AGR,150,cuento,el,l,0.4558,,616.93,616.9303,0.010185242,-0.300925954,0,0,0,,0,109,109,418,1,,,,,
,,,,,,7758940305ddcd3ec601d1e3,66a626ef09d4e21e1a8894ec,6734e03e1d41ece48a9e4053,2024-11-13_11h22.31.953,Tarea de género gramatical,2024.2.2,Win32,59.52380952,,,,,,,,,,,,,,,,,,,,,,,,616.9323,618.0131,l,1,[],[],[],[],[],[],[],0.4077,1,618.0132,618.5129,,,,,,1016,FEM,AGR,150,nube,la,a,0.4077,,618.5152,618.5167,0.010185242,-0.300925954,0,0,0,,0,110,110,115,1,,,,,
,,,,,,7758940305ddcd3ec601d1e3,66a626ef09d4e21e1a8894ec,6734e03e1d41ece48a9e4053,2024-11-13_11h22.31.953,Tarea de género gramatical,2024.2.2,Win32,59.52380952,,,,,,,,,,,,,,,,,,,,,,,,618.518,619.563,a,1,[],[],[],[],[],[],[],0.3714,1,619.5631,620.0628,,,,,,929,MAS,AGR,150,frío,el,l,0.3714,,620.0629,620.0631,0.010185242,-0.300925954,0,0,0,,0,111,111,28,1,,,,,
,,,,,,7758940305ddcd3ec601d1e3,66a626ef09d4e21e1a8894ec,6734e03e1d41ece48a9e4053,2024-11-13_11h22.31.953,Tarea de género gramatical,2024.2.2,Win32,59.52380952,,,,,,,,,,,,,,,,,,,,,,,,620.0655,621.0958,l,1,[],[],[],[],[],[],[],0.3565,1,621.096,621.596,,,,,,1101,FEM,CON,150,leche,,a,0.3565,,621.596,621.5961,0.010185242,-0.300925954,0,0,0,,0,112,112,200,1,,,,,
,,,,,,7758940305ddcd3ec601d1e3,66a626ef09d4e21e1a8894ec,6734e03e1d41ece48a9e4053,2024-11-13_11h22.31.953,Tarea de género gramatical,2024.2.2,Win32,59.52380952,,,,,,,,,,,,,,,,,,,,,,,,621.5982,622.8117,a,1,[],[],[],[],[],[],[],0.545,1,622.8117,623.3124,,,,,,1228,MAS,DIS,150,asunto,la,l,0.545,,623.3125,623.3127,0.010185242,-0.300925954,0,0,0,,0,113,113,327,1,,,,,
,,,,,,7758940305ddcd3ec601d1e3,66a626ef09d4e21e1a8894ec,6734e03e1d41ece48a9e4053,2024-11-13_11h22.31.953,Tarea de género gramatical,2024.2.2,Win32,59.52380952,,,,,,,,,,,,,,,,,,,,,,,,623.3147,624.2953,l,1,[],[],[],[],[],[],[],0.3093,1,624.2956,624.7952,,,,,,1033,FEM,DIS,150,joya,el,a,0.3093,,624.7976,624.7994,0.010185242,-0.300925954,0,0,0,,0,114,114,132,1,,,,,
,,,,,,7758940305ddcd3ec601d1e3,66a626ef09d4e21e1a8894ec,6734e03e1d41ece48a9e4053,2024-11-13_11h22.31.953,Tarea de género gramatical,2024.2.2,Win32,59.52380952,,,,,,,,,,,,,,,,,,,,,,,,624.8004,625.7294,l,1,[],[],[],[],[],[],[],0.2606,1,625.7296,626.2283,,,,,,1118,FEM,AGR,150,nieve,la,a,0.2606,,626.2283,626.2284,0.010185242,-0.300925954,0,0,0,,0,115,115,217,1,,,,,
,,,,,,7758940305ddcd3ec601d1e3,66a626ef09d4e21e1a8894ec,6734e03e1d41ece48a9e4053,2024-11-13_11h22.31.953,Tarea de género gramatical,2024.2.2,Win32,59.52380952,,,,,,,,,,,,,,,,,,,,,,,,626.2294,627.2456,l,1,[],[],[],[],[],[],[],0.3363,1,627.2457,627.7454,,,,,,1171,FEM,DIS,150,viuda,el,a,0.3363,,627.7455,627.7457,0.010185242,-0.300925954,0,0,0,,0,116,116,270,1,,,,,
,,,,,,7758940305ddcd3ec601d1e3,66a626ef09d4e21e1a8894ec,6734e03e1d41ece48a9e4053,2024-11-13_11h22.31.953,Tarea de género gramatical,2024.2.2,Win32,59.52380952,,,,,,,,,,,,,,,,,,,,,,,,627.7476,628.7281,l,1,[],[],[],[],[],[],[],0.3016,1,628.7282,629.2281,,,,,,985,FEM,DIS,150,gira,el,a,0.3016,,629.2282,629.2283,0.010185242,-0.300925954,0,0,0,,0,117,117,84,1,,,,,
,,,,,,7758940305ddcd3ec601d1e3,66a626ef09d4e21e1a8894ec,6734e03e1d41ece48a9e4053,2024-11-13_11h22.31.953,Tarea de género gramatical,2024.2.2,Win32,59.52380952,,,,,,,,,,,,,,,,,,,,,,,,629.2302,630.3281,a,1,[],[],[],[],[],[],[],0.4244,1,630.3284,630.8279,,,,,,1252,MAS,DIS,150,estilo,la,l,0.4244,,630.828,630.8282,0.010185242,-0.300925954,0,0,0,,0,118,118,351,1,,,,,
,,,,,,7758940305ddcd3ec601d1e3,66a626ef09d4e21e1a8894ec,6734e03e1d41ece48a9e4053,2024-11-13_11h22.31.953,Tarea de género gramatical,2024.2.2,Win32,59.52380952,,,,,,,,,,,,,,,,,,,,,,,,630.8299,631.8614,a,0,[],[],[],[],[],[],[],0.3513,0,631.8625,632.3611,,,,,,1052,FEM,AGR,150,gente,la,a,0.3513,,632.3634,632.3648,0.010185242,-0.300925954,0,0,0,,0,119,119,151,1,,,,,
,,,,,,7758940305ddcd3ec601d1e3,66a626ef09d4e21e1a8894ec,6734e03e1d41ece48a9e4053,2024-11-13_11h22.31.953,Tarea de género gramatical,2024.2.2,Win32,59.52380952,,,,,,,,,,,,,,,,,,,,,,,,632.366,633.4779,a,1,[],[],[],[],[],[],[],0.4382,1,633.4792,633.9778,,,,,,1187,MAS,AGR,150,plato,el,l,0.4382,,633.9779,633.978,0.010185242,-0.300925954,0,0,0,,0,120,120,286,1,,,,,
,,,,,,7758940305ddcd3ec601d1e3,66a626ef09d4e21e1a8894ec,6734e03e1d41ece48a9e4053,2024-11-13_11h22.31.953,Tarea de género gramatical,2024.2.2,Win32,59.52380952,,,,,,,,,,,,,,,,,,,,,,,,633.9801,635.194,l,1,[],[],[],[],[],[],[],0.5413,1,635.1942,635.694,,,,,,1071,FEM,CON,150,mitad,,a,0.5413,,635.694,635.6942,0.010185242,-0.300925954,0,0,0,,0,121,121,170,1,,,,,
,,,,,,7758940305ddcd3ec601d1e3,66a626ef09d4e21e1a8894ec,6734e03e1d41ece48a9e4053,2024-11-13_11h22.31.953,Tarea de género gramatical,2024.2.2,Win32,59.52380952,,,,,,,,,,,,,,,,,,,,,,,,635.6957,636.8107,a,1,[],[],[],[],[],[],[],0.4356,1,636.8108,637.3105,,,,,,911,MAS,AGR,150,país,el,l,0.4356,,637.3106,637.3108,0.010185242,-0.300925954,0,0,0,,0,122,122,10,1,,,,,
,,,,,,7758940305ddcd3ec601d1e3,66a626ef09d4e21e1a8894ec,6734e03e1d41ece48a9e4053,2024-11-13_11h22.31.953,Tarea de género gramatical,2024.2.2,Win32,59.52380952,,,,,,,,,,,,,,,,,,,,,,,,637.3127,638.3937,l,0,[],[],[],[],[],[],[],0.4024,0,638.3953,638.8936,,,,,,1050,MAS,CON,150,mozo,,l,0.4024,,638.8958,638.8975,0.010185242,-0.300925954,0,0,0,,0,123,123,149,1,,,,,
,,,,,,7758940305ddcd3ec601d1e3,66a626ef09d4e21e1a8894ec,6734e03e1d41ece48a9e4053,2024-11-13_11h22.31.953,Tarea de género gramatical,2024.2.2,Win32,59.52380952,,,,,,,,,,,,,,,,,,,,,,,,638.8989,640.1268,a,1,[],[],[],[],[],[],[],0.5542,1,640.1282,640.6269,,,,,,1054,MAS,DIS,150,padre,la,l,0.5542,,640.627,640.6271,0.010185242,-0.300925954,0,0,0,,0,124,124,153,1,,,,,
,,,,,,7758940305ddcd3ec601d1e3,66a626ef09d4e21e1a8894ec,6734e03e1d41ece48a9e4053,2024-11-13_11h22.31.953,Tarea de género gramatical,2024.2.2,Win32,59.52380952,,,,,,,,,,,,,,,,,,,,,,,,640.6287,641.8601,l,1,[],[],[],[],[],[],[],0.5523,1,641.8602,642.3597,,,,,,955,FEM,DIS,150,taza,el,a,0.5523,,642.3598,642.3599,0.010185242,-0.300925954,0,0,0,,0,125,125,54,1,,,,,
,,,,,,7758940305ddcd3ec601d1e3,66a626ef09d4e21e1a8894ec,6734e03e1d41ece48a9e4053,2024-11-13_11h22.31.953,Tarea de género gramatical,2024.2.2,Win32,59.52380952,,,,,,,,,,,,,,,,,,,,,,,,642.3608,643.4761,l,1,[],[],[],[],[],[],[],0.4334,1,643.4762,643.9767,,,,,,913,FEM,DIS,150,hija,el,a,0.4334,,643.9767,643.977,0.010185242,-0.300925954,0,0,0,,0,126,126,12,1,,,,,
,,,,,,7758940305ddcd3ec601d1e3,66a626ef09d4e21e1a8894ec,6734e03e1d41ece48a9e4053,2024-11-13_11h22.31.953,Tarea de género gramatical,2024.2.2,Win32,59.52380952,,,,,,,,,,,,,,,,,,,,,,,,643.9788,644.9111,l,1,[],[],[],[],[],[],[],0.2635,1,644.9114,645.4095,,,,,,920,FEM,AGR,150,ropa,la,a,0.2635,,645.4096,645.4098,0.010185242,-0.300925954,0,0,0,,0,127,127,19,1,,,,,
,,,,,,7758940305ddcd3ec601d1e3,66a626ef09d4e21e1a8894ec,6734e03e1d41ece48a9e4053,2024-11-13_11h22.31.953,Tarea de género gramatical,2024.2.2,Win32,59.52380952,,,,,,,,,,,,,,,,,,,,,,,,645.4117,646.4589,l,1,[],[],[],[],[],[],[],0.3748,1,646.4589,646.9592,,,,,,1309,FEM,DIS,150,moneda,el,a,0.3748,,646.961,646.9625,0.010185242,-0.300925954,0,0,0,,0,128,128,408,1,,,,,
,,,,,,7758940305ddcd3ec601d1e3,66a626ef09d4e21e1a8894ec,6734e03e1d41ece48a9e4053,2024-11-13_11h22.31.953,Tarea de género gramatical,2024.2.2,Win32,59.52380952,,,,,,,,,,,,,,,,,,,,,,,,646.9636,648.0759,a,1,[],[],[],[],[],[],[],0.4405,1,648.076,648.5758,,,,,,1068,MAS,CON,150,sitio,,l,0.4405,,648.5759,648.576,0.010185242,-0.300925954,0,0,0,,0,129,129,167,1,,,,,
,,,,,,7758940305ddcd3ec601d1e3,66a626ef09d4e21e1a8894ec,6734e03e1d41ece48a9e4053,2024-11-13_11h22.31.953,Tarea de género gramatical,2024.2.2,Win32,59.52380952,,,,,,,,,,,,,,,,,,,,,,,,648.578,649.559,l,1,[],[],[],[],[],[],[],0.3008,1,649.5593,650.0587,,,,,,950,FEM,AGR,150,dama,la,a,0.3008,,650.0589,650.059,0.010185242,-0.300925954,0,0,0,,0,130,130,49,1,,,,,
,,,,,,7758940305ddcd3ec601d1e3,66a626ef09d4e21e1a8894ec,6734e03e1d41ece48a9e4053,2024-11-13_11h22.31.953,Tarea de género gramatical,2024.2.2,Win32,59.52380952,,,,,,,,,,,,,,,,,,,,,,,,650.0608,651.0922,a,1,[],[],[],[],[],[],[],0.3566,1,651.0924,651.5922,,,,,,1169,MAS,AGR,150,primo,el,l,0.3566,,651.5923,651.5925,0.010185242,-0.300925954,0,0,0,,0,131,131,268,1,,,,,
,,,,,,7758940305ddcd3ec601d1e3,66a626ef09d4e21e1a8894ec,6734e03e1d41ece48a9e4053,2024-11-13_11h22.31.953,Tarea de género gramatical,2024.2.2,Win32,59.52380952,,,,,,,,,,,,,,,,,,,,,,,,651.5943,652.7253,l,0,[],[],[],[],[],[],[],0.4583,0,652.7267,653.2252,,,,,,1079,MAS,AGR,150,viaje,el,l,0.4583,,653.2272,653.2287,0.010185242,-0.300925954,0,0,0,,0,132,132,178,1,,,,,
,,,,,,7758940305ddcd3ec601d1e3,66a626ef09d4e21e1a8894ec,6734e03e1d41ece48a9e4053,2024-11-13_11h22.31.953,Tarea de género gramatical,2024.2.2,Win32,59.52380952,,,,,,,,,,,,,,,,,,,,,,,,653.23,654.2916,a,1,[],[],[],[],[],[],[],0.3874,1,654.2929,654.7917,,,,,,1235,MAS,AGR,150,montón,el,l,0.3874,,654.7918,654.7921,0.010185242,-0.300925954,0,0,0,,0,133,133,334,1,,,,,
,,,,,,7758940305ddcd3ec601d1e3,66a626ef09d4e21e1a8894ec,6734e03e1d41ece48a9e4053,2024-11-13_11h22.31.953,Tarea de género gramatical,2024.2.2,Win32,59.52380952,,,,,,,,,,,,,,,,,,,,,,,,654.7943,655.9246,l,0,[],[],[],[],[],[],[],0.4592,0,655.9259,656.4249,,,,,,1044,MAS,CON,150,amor,,l,0.4592,,656.425,656.4251,0.010185242,-0.300925954,0,0,0,,0,134,134,143,1,,,,,
,,,,,,7758940305ddcd3ec601d1e3,66a626ef09d4e21e1a8894ec,6734e03e1d41ece48a9e4053,2024-11-13_11h22.31.953,Tarea de género gramatical,2024.2.2,Win32,59.52380952,,,,,,,,,,,,,,,,,,,,,,,,656.4268,657.8081,l,1,[],[],[],[],[],[],[],0.7067,1,657.8091,658.3079,,,,,,974,FEM,AGR,150,flor,la,a,0.7067,,658.308,658.3082,0.010185242,-0.300925954,0,0,0,,0,135,135,73,1,,,,,
,,,,,,7758940305ddcd3ec601d1e3,66a626ef09d4e21e1a8894ec,6734e03e1d41ece48a9e4053,2024-11-13_11h22.31.953,Tarea de género gramatical,2024.2.2,Win32,59.52380952,,,,,,,,,,,,,,,,,,,,,,,,658.3094,659.4747,a,0,[],[],[],[],[],[],[],0.4944,0,659.476,659.9741,,,,,,1135,FEM,DIS,150,torre,el,a,0.4944,,659.9741,659.9742,0.010185242,-0.300925954,0,0,0,,0,136,136,234,1,,,,,
,,,,,,7758940305ddcd3ec601d1e3,66a626ef09d4e21e1a8894ec,6734e03e1d41ece48a9e4053,2024-11-13_11h22.31.953,Tarea de género gramatical,2024.2.2,Win32,59.52380952,,,,,,,,,,,,,,,,,,,,,,,,659.976,661.1576,a,1,[],[],[],[],[],[],[],0.4997,1,661.1588,661.6576,,,,,,1223,MAS,AGR,150,marido,el,l,0.4997,,661.6599,661.6618,0.010185242,-0.300925954,0,0,0,,0,137,137,322,1,,,,,
,,,,,,7758940305ddcd3ec601d1e3,66a626ef09d4e21e1a8894ec,6734e03e1d41ece48a9e4053,2024-11-13_11h22.31.953,Tarea de género gramatical,2024.2.2,Win32,59.52380952,,,,,,,,,,,,,,,,,,,,,,,,661.6629,663.0238,a,1,[],[],[],[],[],[],[],0.6843,1,663.0239,663.5235,,,,,,1242,MAS,CON,150,abuelo,,l,0.6843,,663.5235,663.5236,0.010185242,-0.300925954,0,0,0,,0,138,138,341,1,,,,,
,,,,,,7758940305ddcd3ec601d1e3,66a626ef09d4e21e1a8894ec,6734e03e1d41ece48a9e4053,2024-11-13_11h22.31.953,Tarea de género gramatical,2024.2.2,Win32,59.52380952,,,,,,,,,,,,,,,,,,,,,,,,663.525,664.6398,a,1,[],[],[],[],[],[],[],0.4432,1,664.6399,665.1402,,,,,,1230,MAS,CON,150,estado,,l,0.4432,,665.1404,665.1405,0.010185242,-0.300925954,0,0,0,,0,139,139,329,1,,,,,
,,,,,,7758940305ddcd3ec601d1e3,66a626ef09d4e21e1a8894ec,6734e03e1d41ece48a9e4053,2024-11-13_11h22.31.953,Tarea de género gramatical,2024.2.2,Win32,59.52380952,,,,,,,,,,,,,,,,,,,,,,,,665.1422,666.1902,l,1,[],[],[],[],[],[],[],0.3702,1,666.1903,666.69,,,,,,1214,FEM,AGR,150,señora,la,a,0.3702,,666.6901,666.6903,0.010185242,-0.300925954,0,0,0,,0,140,140,313,1,,,,,
,,,,,,7758940305ddcd3ec601d1e3,66a626ef09d4e21e1a8894ec,6734e03e1d41ece48a9e4053,2024-11-13_11h22.31.953,Tarea de género gramatical,2024.2.2,Win32,59.52380952,,,,,,,,,,,,,,,,,,,,,,,,666.6922,668.2227,l,1,[],[],[],[],[],[],[],0.8585,1,668.2228,668.7232,,,,,,937,FEM,DIS,150,sala,el,a,0.8585,,668.725,668.7267,0.010185242,-0.300925954,0,0,0,,0,141,141,36,1,,,,,
,,,,,,7758940305ddcd3ec601d1e3,66a626ef09d4e21e1a8894ec,6734e03e1d41ece48a9e4053,2024-11-13_11h22.31.953,Tarea de género gramatical,2024.2.2,Win32,59.52380952,,,,,,,,,,,,,,,,,,,,,,,,668.7278,669.8229,l,1,[],[],[],[],[],[],[],0.4264,1,669.8231,670.3226,,,,,,962,FEM,AGR,150,sopa,la,a,0.4264,,670.3227,670.3228,0.010185242,-0.300925954,0,0,0,,0,142,142,61,1,,,,,
,,,,,,7758940305ddcd3ec601d1e3,66a626ef09d4e21e1a8894ec,6734e03e1d41ece48a9e4053,2024-11-13_11h22.31.953,Tarea de género gramatical,2024.2.2,Win32,59.52380952,,,,,,,,,,,,,,,,,,,,,,,,670.3245,671.5062,l,1,[],[],[],[],[],[],[],0.4994,1,671.5063,672.0062,,,,,,1333,FEM,DIS,150,huella,el,a,0.4994,,672.0063,672.0065,0.010185242,-0.300925954,0,0,0,,0,143,143,432,1,,,,,
,,,,,,7758940305ddcd3ec601d1e3,66a626ef09d4e21e1a8894ec,6734e03e1d41ece48a9e4053,2024-11-13_11h22.31.953,Tarea de género gramatical,2024.2.2,Win32,59.52380952,,,,,,,,,,,,,,,,,,,,,,,,672.0085,673.4728,a,0,[],[],[],[],[],[],[],0.7852,0,673.4741,673.9722,,,,,,967,FEM,DIS,150,miel,el,a,0.7852,,673.9724,673.9725,0.010185242,-0.300925954,0,0,0,,0,144,144,66,1,,,,,
,,,,,,7758940305ddcd3ec601d1e3,66a626ef09d4e21e1a8894ec,6734e03e1d41ece48a9e4053,2024-11-13_11h22.31.953,Tarea de género gramatical,2024.2.2,Win32,59.52380952,,,,,,,,,,,,,,,,,,,,,,,,673.9747,675.1067,l,0,[],[],[],[],[],[],[],0.4618,0,675.1069,675.6057,,,,,,1248,MAS,CON,150,anillo,,l,0.4618,,675.6058,675.606,0.010185242,-0.300925954,0,0,0,,0,145,145,347,1,,,,,
,,,,,,7758940305ddcd3ec601d1e3,66a626ef09d4e21e1a8894ec,6734e03e1d41ece48a9e4053,2024-11-13_11h22.31.953,Tarea de género gramatical,2024.2.2,Win32,59.52380952,,,,,,,,,,,,,,,,,,,,,,,,675.6075,676.7887,a,1,[],[],[],[],[],[],[],0.5069,1,676.7898,677.2887,,,,,,1200,MAS,CON,150,túnel,,l,0.5069,,677.2908,677.2923,0.010185242,-0.300925954,0,0,0,,0,146,146,299,1,,,,,
,,,,,,7758940305ddcd3ec601d1e3,66a626ef09d4e21e1a8894ec,6734e03e1d41ece48a9e4053,2024-11-13_11h22.31.953,Tarea de género gramatical,2024.2.2,Win32,59.52380952,,,,,,,,,,,,,,,,,,,,,,,,677.2935,678.7384,l,0,[],[],[],[],[],[],[],0.7666,0,678.7396,679.2385,,,,,,946,MAS,DIS,150,odio,la,l,0.7666,,679.2386,679.2387,0.010185242,-0.300925954,0,0,0,,0,147,147,45,1,,,,,
,,,,,,7758940305ddcd3ec601d1e3,66a626ef09d4e21e1a8894ec,6734e03e1d41ece48a9e4053,2024-11-13_11h22.31.953,Tarea de género gramatical,2024.2.2,Win32,59.52380952,,,,,,,,,,,,,,,,,,,,,,,,679.2407,680.4385,l,1,[],[],[],[],[],[],[],0.5158,1,680.4395,680.9384,,,,,,1003,FEM,DIS,150,fama,el,a,0.5158,,680.9384,680.9386,0.010185242,-0.300925954,0,0,0,,0,148,148,102,1,,,,,
,,,,,,7758940305ddcd3ec601d1e3,66a626ef09d4e21e1a8894ec,6734e03e1d41ece48a9e4053,2024-11-13_11h22.31.953,Tarea de género gramatical,2024.2.2,Win32,59.52380952,,,,,,,,,,,,,,,,,,,,,,,,680.9403,682.1711,l,1,[],[],[],[],[],[],[],0.5582,1,682.1713,682.6716,,,,,,1063,FEM,DIS,150,calle,el,a,0.5582,,682.6716,682.6718,0.010185242,-0.300925954,0,0,0,,0,149,149,162,1,,,,,
,,,,,,7758940305ddcd3ec601d1e3,66a626ef09d4e21e1a8894ec,6734e03e1d41ece48a9e4053,2024-11-13_11h22.31.953,Tarea de género gramatical,2024.2.2,Win32,59.52380952,,,,,,,,,,,,,,,,,,,,,,,,682.6737,683.7549,l,1,[],[],[],[],[],[],[],0.4011,1,683.755,684.255,,,,,,1065,FEM,CON,150,amiga,,a,0.4011,,684.2568,832.3862,0.010185242,-0.300925954,0,0,0,space,0,150,150,164,1,148.1027,,,,
,,,,,,7758940305ddcd3ec601d1e3,66a626ef09d4e21e1a8894ec,6734e03e1d41ece48a9e4053,2024-11-13_11h22.31.953,Tarea de género gramatical,2024.2.2,Win32,59.52380952,,,,,,,,,,,,,,,,,,,,,,,,832.3887,833.7353,a,1,[],[],[],[],[],[],[],0.675,1,833.7355,834.2348,,,,,,924,MAS,CON,150,voto,,l,0.675,,834.2349,834.235,0.010185242,-0.300925954,0,0,0,,0,151,151,23,1,,,,,
,,,,,,7758940305ddcd3ec601d1e3,66a626ef09d4e21e1a8894ec,6734e03e1d41ece48a9e4053,2024-11-13_11h22.31.953,Tarea de género gramatical,2024.2.2,Win32,59.52380952,,,,,,,,,,,,,,,,,,,,,,,,834.2368,835.3182,a,1,[],[],[],[],[],[],[],0.3987,1,835.3184,835.8186,,,,,,1218,MAS,CON,150,pueblo,,l,0.3987,,835.8187,835.819,0.010185242,-0.300925954,0,0,0,,0,152,152,317,1,,,,,
,,,,,,7758940305ddcd3ec601d1e3,66a626ef09d4e21e1a8894ec,6734e03e1d41ece48a9e4053,2024-11-13_11h22.31.953,Tarea de género gramatical,2024.2.2,Win32,59.52380952,,,,,,,,,,,,,,,,,,,,,,,,835.8211,837.0184,a,1,[],[],[],[],[],[],[],0.5173,1,837.0185,837.5183,,,,,,928,MAS,DIS,150,club,la,l,0.5173,,837.5184,837.5185,0.010185242,-0.300925954,0,0,0,,0,153,153,27,1,,,,,
,,,,,,7758940305ddcd3ec601d1e3,66a626ef09d4e21e1a8894ec,6734e03e1d41ece48a9e4053,2024-11-13_11h22.31.953,Tarea de género gramatical,2024.2.2,Win32,59.52380952,,,,,,,,,,,,,,,,,,,,,,,,837.5204,838.8184,l,0,[],[],[],[],[],[],[],0.618,0,838.8194,839.318,,,,,,982,MAS,DIS,150,tubo,la,l,0.618,,839.3181,839.3183,0.010185242,-0.300925954,0,0,0,,0,154,154,81,1,,,,,
,,,,,,7758940305ddcd3ec601d1e3,66a626ef09d4e21e1a8894ec,6734e03e1d41ece48a9e4053,2024-11-13_11h22.31.953,Tarea de género gramatical,2024.2.2,Win32,59.52380952,,,,,,,,,,,,,,,,,,,,,,,,839.3201,840.4513,l,1,[],[],[],[],[],[],[],0.453,1,840.453,840.9509,,,,,,1287,FEM,CON,150,página,,a,0.453,,840.9532,840.9547,0.010185242,-0.300925954,0,0,0,,0,155,155,386,1,,,,,
,,,,,,7758940305ddcd3ec601d1e3,66a626ef09d4e21e1a8894ec,6734e03e1d41ece48a9e4053,2024-11-13_11h22.31.953,Tarea de género gramatical,2024.2.2,Win32,59.52380952,,,,,,,,,,,,,,,,,,,,,,,,840.9561,842.0007,l,1,[],[],[],[],[],[],[],0.3676,1,842.0009,842.5007,,,,,,1011,FEM,CON,150,goma,,a,0.3676,,842.5008,842.5009,0.010185242,-0.300925954,0,0,0,,0,156,156,110,1,,,,,
,,,,,,7758940305ddcd3ec601d1e3,66a626ef09d4e21e1a8894ec,6734e03e1d41ece48a9e4053,2024-11-13_11h22.31.953,Tarea de género gramatical,2024.2.2,Win32,59.52380952,,,,,,,,,,,,,,,,,,,,,,,,842.5027,843.667,a,1,[],[],[],[],[],[],[],0.4837,1,843.6671,844.1672,,,,,,1325,MAS,AGR,150,chiste,el,l,0.4837,,844.1674,844.1677,0.010185242,-0.300925954,0,0,0,,0,157,157,424,1,,,,,
,,,,,,7758940305ddcd3ec601d1e3,66a626ef09d4e21e1a8894ec,6734e03e1d41ece48a9e4053,2024-11-13_11h22.31.953,Tarea de género gramatical,2024.2.2,Win32,59.52380952,,,,,,,,,,,,,,,,,,,,,,,,844.1695,845.4001,l,1,[],[],[],[],[],[],[],0.5557,1,845.4002,845.9006,,,,,,1089,FEM,CON,150,pista,,a,0.5557,,845.9007,845.9009,0.010185242,-0.300925954,0,0,0,,0,158,158,188,1,,,,,
,,,,,,7758940305ddcd3ec601d1e3,66a626ef09d4e21e1a8894ec,6734e03e1d41ece48a9e4053,2024-11-13_11h22.31.953,Tarea de género gramatical,2024.2.2,Win32,59.52380952,,,,,,,,,,,,,,,,,,,,,,,,845.9028,847.2668,l,1,[],[],[],[],[],[],[],0.687,1,847.2669,847.7666,,,,,,1075,FEM,DIS,150,señal,el,a,0.687,,847.7684,847.7698,0.010185242,-0.300925954,0,0,0,,0,159,159,174,1,,,,,
,,,,,,7758940305ddcd3ec601d1e3,66a626ef09d4e21e1a8894ec,6734e03e1d41ece48a9e4053,2024-11-13_11h22.31.953,Tarea de género gramatical,2024.2.2,Win32,59.52380952,,,,,,,,,,,,,,,,,,,,,,,,847.7709,849.0498,a,1,[],[],[],[],[],[],[],0.601,1,849.05,849.5502,,,,,,1224,MAS,CON,150,cuarto,,l,0.601,,849.5502,849.5504,0.010185242,-0.300925954,0,0,0,,0,160,160,323,1,,,,,
,,,,,,7758940305ddcd3ec601d1e3,66a626ef09d4e21e1a8894ec,6734e03e1d41ece48a9e4053,2024-11-13_11h22.31.953,Tarea de género gramatical,2024.2.2,Win32,59.52380952,,,,,,,,,,,,,,,,,,,,,,,,849.5522,850.7833,l,1,[],[],[],[],[],[],[],0.5558,1,850.7834,851.2832,,,,,,1005,FEM,CON,150,jefa,,a,0.5558,,851.2834,851.2835,0.010185242,-0.300925954,0,0,0,,0,161,161,104,1,,,,,
,,,,,,7758940305ddcd3ec601d1e3,66a626ef09d4e21e1a8894ec,6734e03e1d41ece48a9e4053,2024-11-13_11h22.31.953,Tarea de género gramatical,2024.2.2,Win32,59.52380952,,,,,,,,,,,,,,,,,,,,,,,,851.2854,852.5331,l,1,[],[],[],[],[],[],[],0.5748,1,852.5331,853.0328,,,,,,1292,FEM,AGR,150,maleta,la,a,0.5748,,853.0329,853.0331,0.010185242,-0.300925954,0,0,0,,0,162,162,391,1,,,,,
,,,,,,7758940305ddcd3ec601d1e3,66a626ef09d4e21e1a8894ec,6734e03e1d41ece48a9e4053,2024-11-13_11h22.31.953,Tarea de género gramatical,2024.2.2,Win32,59.52380952,,,,,,,,,,,,,,,,,,,,,,,,853.035,854.5164,a,0,[],[],[],[],[],[],[],0.8027,0,854.5174,855.0164,,,,,,1268,FEM,AGR,150,gracia,la,a,0.8027,,855.0166,855.0167,0.010185242,-0.300925954,0,0,0,,0,163,163,367,1,,,,,
,,,,,,7758940305ddcd3ec601d1e3,66a626ef09d4e21e1a8894ec,6734e03e1d41ece48a9e4053,2024-11-13_11h22.31.953,Tarea de género gramatical,2024.2.2,Win32,59.52380952,,,,,,,,,,,,,,,,,,,,,,,,855.0189,856.4327,a,0,[],[],[],[],[],[],[],0.7373,0,856.433,856.9322,,,,,,1123,FEM,DIS,150,plata,el,a,0.7373,,856.9347,856.9363,0.010185242,-0.300925954,0,0,0,,0,164,164,222,1,,,,,
,,,,,,7758940305ddcd3ec601d1e3,66a626ef09d4e21e1a8894ec,6734e03e1d41ece48a9e4053,2024-11-13_11h22.31.953,Tarea de género gramatical,2024.2.2,Win32,59.52380952,,,,,,,,,,,,,,,,,,,,,,,,856.9375,858.1156,a,1,[],[],[],[],[],[],[],0.508,1,858.1169,858.6156,,,,,,1060,MAS,DIS,150,señor,la,l,0.508,,858.6157,858.6158,0.010185242,-0.300925954,0,0,0,,0,165,165,159,1,,,,,
,,,,,,7758940305ddcd3ec601d1e3,66a626ef09d4e21e1a8894ec,6734e03e1d41ece48a9e4053,2024-11-13_11h22.31.953,Tarea de género gramatical,2024.2.2,Win32,59.52380952,,,,,,,,,,,,,,,,,,,,,,,,858.6174,859.732,l,1,[],[],[],[],[],[],[],0.4414,1,859.7321,860.2319,,,,,,1094,FEM,AGR,150,banda,la,a,0.4414,,860.232,860.2321,0.010185242,-0.300925954,0,0,0,,0,166,166,193,1,,,,,
,,,,,,7758940305ddcd3ec601d1e3,66a626ef09d4e21e1a8894ec,6734e03e1d41ece48a9e4053,2024-11-13_11h22.31.953,Tarea de género gramatical,2024.2.2,Win32,59.52380952,,,,,,,,,,,,,,,,,,,,,,,,860.2342,861.4652,a,1,[],[],[],[],[],[],[],0.5509,1,861.4653,861.9651,,,,,,1229,MAS,AGR,150,futuro,el,l,0.5509,,861.9652,861.9655,0.010185242,-0.300925954,0,0,0,,0,167,167,328,1,,,,,
,,,,,,7758940305ddcd3ec601d1e3,66a626ef09d4e21e1a8894ec,6734e03e1d41ece48a9e4053,2024-11-13_11h22.31.953,Tarea de género gramatical,2024.2.2,Win32,59.52380952,,,,,,,,,,,,,,,,,,,,,,,,861.9673,863.0151,a,1,[],[],[],[],[],[],[],0.3741,1,863.0152,863.515,,,,,,1091,MAS,AGR,150,dolor,el,l,0.3741,,863.5174,863.5192,0.010185242,-0.300925954,0,0,0,,0,168,168,190,1,,,,,
,,,,,,7758940305ddcd3ec601d1e3,66a626ef09d4e21e1a8894ec,6734e03e1d41ece48a9e4053,2024-11-13_11h22.31.953,Tarea de género gramatical,2024.2.2,Win32,59.52380952,,,,,,,,,,,,,,,,,,,,,,,,863.5204,864.9481,a,1,[],[],[],[],[],[],[],0.7522,1,864.9482,865.4482,,,,,,1260,MAS,CON,150,puente,,l,0.7522,,865.4482,865.4484,0.010185242,-0.300925954,0,0,0,,0,169,169,359,1,,,,,
,,,,,,7758940305ddcd3ec601d1e3,66a626ef09d4e21e1a8894ec,6734e03e1d41ece48a9e4053,2024-11-13_11h22.31.953,Tarea de género gramatical,2024.2.2,Win32,59.52380952,,,,,,,,,,,,,,,,,,,,,,,,865.4499,866.9476,a,1,[],[],[],[],[],[],[],0.8268,1,866.9478,867.4476,,,,,,1186,MAS,DIS,150,reino,la,l,0.8268,,867.4476,867.4479,0.010185242,-0.300925954,0,0,0,,0,170,170,285,1,,,,,
,,,,,,7758940305ddcd3ec601d1e3,66a626ef09d4e21e1a8894ec,6734e03e1d41ece48a9e4053,2024-11-13_11h22.31.953,Tarea de género gramatical,2024.2.2,Win32,59.52380952,,,,,,,,,,,,,,,,,,,,,,,,867.4497,868.9643,a,1,[],[],[],[],[],[],[],0.8409,1,868.9643,869.4642,,,,,,1038,MAS,CON,150,luto,,l,0.8409,,869.4643,869.4644,0.010185242,-0.300925954,0,0,0,,0,171,171,137,1,,,,,
,,,,,,7758940305ddcd3ec601d1e3,66a626ef09d4e21e1a8894ec,6734e03e1d41ece48a9e4053,2024-11-13_11h22.31.953,Tarea de género gramatical,2024.2.2,Win32,59.52380952,,,,,,,,,,,,,,,,,,,,,,,,869.4665,871.0305,l,0,[],[],[],[],[],[],[],0.8924,0,871.0318,871.5307,,,,,,1048,MAS,DIS,150,surf,la,l,0.8924,,871.5308,871.531,0.010185242,-0.300925954,0,0,0,,0,172,172,147,1,,,,,
,,,,,,7758940305ddcd3ec601d1e3,66a626ef09d4e21e1a8894ec,6734e03e1d41ece48a9e4053,2024-11-13_11h22.31.953,Tarea de género gramatical,2024.2.2,Win32,59.52380952,,,,,,,,,,,,,,,,,,,,,,,,871.5326,872.8637,a,1,[],[],[],[],[],[],[],0.651,1,872.8647,873.3637,,,,,,1188,MAS,CON,150,grado,,l,0.651,,873.3661,873.3677,0.010185242,-0.300925954,0,0,0,,0,173,173,287,1,,,,,
,,,,,,7758940305ddcd3ec601d1e3,66a626ef09d4e21e1a8894ec,6734e03e1d41ece48a9e4053,2024-11-13_11h22.31.953,Tarea de género gramatical,2024.2.2,Win32,59.52380952,,,,,,,,,,,,,,,,,,,,,,,,873.3689,874.547,a,1,[],[],[],[],[],[],[],0.5073,1,874.547,875.0463,,,,,,1032,MAS,CON,150,velo,,l,0.5073,,875.0463,875.0465,0.010185242,-0.300925954,0,0,0,,0,174,174,131,1,,,,,
,,,,,,7758940305ddcd3ec601d1e3,66a626ef09d4e21e1a8894ec,6734e03e1d41ece48a9e4053,2024-11-13_11h22.31.953,Tarea de género gramatical,2024.2.2,Win32,59.52380952,,,,,,,,,,,,,,,,,,,,,,,,875.0474,876.2463,l,1,[],[],[],[],[],[],[],0.5174,1,876.2465,876.7466,,,,,,1099,FEM,DIS,150,nariz,el,a,0.5174,,876.7467,876.7469,0.010185242,-0.300925954,0,0,0,,0,175,175,198,1,,,,,
,,,,,,7758940305ddcd3ec601d1e3,66a626ef09d4e21e1a8894ec,6734e03e1d41ece48a9e4053,2024-11-13_11h22.31.953,Tarea de género gramatical,2024.2.2,Win32,59.52380952,,,,,,,,,,,,,,,,,,,,,,,,876.7489,877.9632,a,1,[],[],[],[],[],[],[],0.5348,1,877.9633,878.4629,,,,,,1163,MAS,AGR,150,carro,el,l,0.5348,,878.4631,878.4632,0.010185242,-0.300925954,0,0,0,,0,176,176,262,1,,,,,
,,,,,,7758940305ddcd3ec601d1e3,66a626ef09d4e21e1a8894ec,6734e03e1d41ece48a9e4053,2024-11-13_11h22.31.953,Tarea de género gramatical,2024.2.2,Win32,59.52380952,,,,,,,,,,,,,,,,,,,,,,,,878.465,879.6792,a,1,[],[],[],[],[],[],[],0.5352,1,879.6793,880.179,,,,,,984,MAS,CON,150,mago,,l,0.5352,,880.1809,880.1824,0.010185242,-0.300925954,0,0,0,,0,177,177,83,1,,,,,
,,,,,,7758940305ddcd3ec601d1e3,66a626ef09d4e21e1a8894ec,6734e03e1d41ece48a9e4053,2024-11-13_11h22.31.953,Tarea de género gramatical,2024.2.2,Win32,59.52380952,,,,,,,,,,,,,,,,,,,,,,,,880.1835,881.8126,a,1,[],[],[],[],[],[],[],0.9516,1,881.8128,882.3126,,,,,,1036,MAS,DIS,150,vago,la,l,0.9516,,882.3126,882.3129,0.010185242,-0.300925954,0,0,0,,0,178,178,135,1,,,,,
,,,,,,7758940305ddcd3ec601d1e3,66a626ef09d4e21e1a8894ec,6734e03e1d41ece48a9e4053,2024-11-13_11h22.31.953,Tarea de género gramatical,2024.2.2,Win32,59.52380952,,,,,,,,,,,,,,,,,,,,,,,,882.3154,883.4622,a,1,[],[],[],[],[],[],[],0.4713,1,883.4623,883.962,,,,,,1331,MAS,AGR,150,veneno,el,l,0.4713,,883.9621,883.9622,0.010185242,-0.300925954,0,0,0,,0,179,179,430,1,,,,,
,,,,,,7758940305ddcd3ec601d1e3,66a626ef09d4e21e1a8894ec,6734e03e1d41ece48a9e4053,2024-11-13_11h22.31.953,Tarea de género gramatical,2024.2.2,Win32,59.52380952,,,,,,,,,,,,,,,,,,,,,,,,883.9636,885.079,a,1,[],[],[],[],[],[],[],0.4347,1,885.0791,885.5788,,,,,,930,MAS,CON,150,cine,,l,0.4347,,885.5788,885.579,0.010185242,-0.300925954,0,0,0,,0,180,180,29,1,,,,,
,,,,,,7758940305ddcd3ec601d1e3,66a626ef09d4e21e1a8894ec,6734e03e1d41ece48a9e4053,2024-11-13_11h22.31.953,Tarea de género gramatical,2024.2.2,Win32,59.52380952,,,,,,,,,,,,,,,,,,,,,,,,885.5812,886.662,l,1,[],[],[],[],[],[],[],0.4016,1,886.6622,887.1618,,,,,,1299,FEM,CON,150,charla,,a,0.4016,,887.1618,887.162,0.010185242,-0.300925954,0,0,0,,0,181,181,398,1,,,,,
,,,,,,7758940305ddcd3ec601d1e3,66a626ef09d4e21e1a8894ec,6734e03e1d41ece48a9e4053,2024-11-13_11h22.31.953,Tarea de género gramatical,2024.2.2,Win32,59.52380952,,,,,,,,,,,,,,,,,,,,,,,,887.1639,888.3114,a,1,[],[],[],[],[],[],[],0.4677,1,888.3115,888.8117,,,,,,1302,MAS,CON,150,ladrón,,l,0.4677,,888.8141,888.8164,0.010185242,-0.300925954,0,0,0,,0,182,182,401,1,,,,,
,,,,,,7758940305ddcd3ec601d1e3,66a626ef09d4e21e1a8894ec,6734e03e1d41ece48a9e4053,2024-11-13_11h22.31.953,Tarea de género gramatical,2024.2.2,Win32,59.52380952,,,,,,,,,,,,,,,,,,,,,,,,888.8178,889.9782,l,1,[],[],[],[],[],[],[],0.4852,1,889.9784,890.4782,,,,,,1298,FEM,AGR,150,hierba,la,a,0.4852,,890.4784,890.4786,0.010185242,-0.300925954,0,0,0,,0,183,183,397,1,,,,,
,,,,,,7758940305ddcd3ec601d1e3,66a626ef09d4e21e1a8894ec,6734e03e1d41ece48a9e4053,2024-11-13_11h22.31.953,Tarea de género gramatical,2024.2.2,Win32,59.52380952,,,,,,,,,,,,,,,,,,,,,,,,890.4806,891.7282,l,1,[],[],[],[],[],[],[],0.5768,1,891.7285,892.2279,,,,,,1267,FEM,DIS,150,teoría,el,a,0.5768,,892.228,892.2283,0.010185242,-0.300925954,0,0,0,,0,184,184,366,1,,,,,
,,,,,,7758940305ddcd3ec601d1e3,66a626ef09d4e21e1a8894ec,6734e03e1d41ece48a9e4053,2024-11-13_11h22.31.953,Tarea de género gramatical,2024.2.2,Win32,59.52380952,,,,,,,,,,,,,,,,,,,,,,,,892.2302,893.3608,a,1,[],[],[],[],[],[],[],0.4503,1,893.3608,893.8612,,,,,,978,MAS,CON,150,oído,,l,0.4503,,893.8613,893.8616,0.010185242,-0.300925954,0,0,0,,0,185,185,77,1,,,,,
,,,,,,7758940305ddcd3ec601d1e3,66a626ef09d4e21e1a8894ec,6734e03e1d41ece48a9e4053,2024-11-13_11h22.31.953,Tarea de género gramatical,2024.2.2,Win32,59.52380952,,,,,,,,,,,,,,,,,,,,,,,,893.8636,894.9776,a,0,[],[],[],[],[],[],[],0.4404,0,894.9787,895.4775,,,,,,1262,FEM,AGR,150,fuente,la,a,0.4404,,895.4794,895.4811,0.010185242,-0.300925954,0,0,0,,0,186,186,361,1,,,,,
,,,,,,7758940305ddcd3ec601d1e3,66a626ef09d4e21e1a8894ec,6734e03e1d41ece48a9e4053,2024-11-13_11h22.31.953,Tarea de género gramatical,2024.2.2,Win32,59.52380952,,,,,,,,,,,,,,,,,,,,,,,,895.4823,896.6609,a,1,[],[],[],[],[],[],[],0.4999,1,896.6624,897.1606,,,,,,1312,MAS,DIS,150,espejo,la,l,0.4999,,897.1607,897.1609,0.010185242,-0.300925954,0,0,0,,0,187,187,411,1,,,,,
,,,,,,7758940305ddcd3ec601d1e3,66a626ef09d4e21e1a8894ec,6734e03e1d41ece48a9e4053,2024-11-13_11h22.31.953,Tarea de género gramatical,2024.2.2,Win32,59.52380952,,,,,,,,,,,,,,,,,,,,,,,,897.1622,898.5768,l,1,[],[],[],[],[],[],[],0.7342,1,898.577,899.0771,,,,,,1039,FEM,DIS,150,pipa,el,a,0.7342,,899.0771,899.0773,0.010185242,-0.300925954,0,0,0,,0,188,188,138,1,,,,,
,,,,,,7758940305ddcd3ec601d1e3,66a626ef09d4e21e1a8894ec,6734e03e1d41ece48a9e4053,2024-11-13_11h22.31.953,Tarea de género gramatical,2024.2.2,Win32,59.52380952,,,,,,,,,,,,,,,,,,,,,,,,899.0795,900.2936,a,1,[],[],[],[],[],[],[],0.5339,1,900.2938,900.7935,,,,,,910,MAS,DIS,150,niño,la,l,0.5339,,900.7936,900.7937,0.010185242,-0.300925954,0,0,0,,0,189,189,9,1,,,,,
,,,,,,7758940305ddcd3ec601d1e3,66a626ef09d4e21e1a8894ec,6734e03e1d41ece48a9e4053,2024-11-13_11h22.31.953,Tarea de género gramatical,2024.2.2,Win32,59.52380952,,,,,,,,,,,,,,,,,,,,,,,,900.796,901.8931,a,1,[],[],[],[],[],[],[],0.4166,1,901.8932,902.3931,,,,,,1014,MAS,CON,150,menú,,l,0.4166,,902.3932,902.3936,0.010185242,-0.300925954,0,0,0,,0,190,190,113,1,,,,,
,,,,,,7758940305ddcd3ec601d1e3,66a626ef09d4e21e1a8894ec,6734e03e1d41ece48a9e4053,2024-11-13_11h22.31.953,Tarea de género gramatical,2024.2.2,Win32,59.52380952,,,,,,,,,,,,,,,,,,,,,,,,902.3954,903.6598,l,1,[],[],[],[],[],[],[],0.5885,1,903.6598,904.1591,,,,,,1017,FEM,CON,150,raya,,a,0.5885,,904.1599,904.1608,0.010185242,-0.300925954,0,0,0,,0,191,191,116,1,,,,,
,,,,,,7758940305ddcd3ec601d1e3,66a626ef09d4e21e1a8894ec,6734e03e1d41ece48a9e4053,2024-11-13_11h22.31.953,Tarea de género gramatical,2024.2.2,Win32,59.52380952,,,,,,,,,,,,,,,,,,,,,,,,904.162,905.4262,l,1,[],[],[],[],[],[],[],0.5881,1,905.4263,905.9261,,,,,,1226,FEM,AGR,150,música,la,a,0.5881,,905.9262,905.9263,0.010185242,-0.300925954,0,0,0,,0,192,192,325,1,,,,,
,,,,,,7758940305ddcd3ec601d1e3,66a626ef09d4e21e1a8894ec,6734e03e1d41ece48a9e4053,2024-11-13_11h22.31.953,Tarea de género gramatical,2024.2.2,Win32,59.52380952,,,,,,,,,,,,,,,,,,,,,,,,905.928,907.1591,l,1,[],[],[],[],[],[],[],0.5507,1,907.1593,907.6591,,,,,,992,FEM,AGR,150,masa,la,a,0.5507,,907.6591,907.6592,0.010185242,-0.300925954,0,0,0,,0,193,193,91,1,,,,,
,,,,,,7758940305ddcd3ec601d1e3,66a626ef09d4e21e1a8894ec,6734e03e1d41ece48a9e4053,2024-11-13_11h22.31.953,Tarea de género gramatical,2024.2.2,Win32,59.52380952,,,,,,,,,,,,,,,,,,,,,,,,907.6601,908.6592,l,1,[],[],[],[],[],[],[],0.3191,1,908.6594,909.1591,,,,,,1297,FEM,DIS,150,cuerda,el,a,0.3191,,909.1592,909.1594,0.010185242,-0.300925954,0,0,0,,0,194,194,396,1,,,,,
,,,,,,7758940305ddcd3ec601d1e3,66a626ef09d4e21e1a8894ec,6734e03e1d41ece48a9e4053,2024-11-13_11h22.31.953,Tarea de género gramatical,2024.2.2,Win32,59.52380952,,,,,,,,,,,,,,,,,,,,,,,,909.1613,910.0757,l,1,[],[],[],[],[],[],[],0.2345,1,910.0759,910.5754,,,,,,961,FEM,DIS,150,ruta,el,a,0.2345,,910.5765,910.578,0.010185242,-0.300925954,0,0,0,,0,195,195,60,1,,,,,
,,,,,,7758940305ddcd3ec601d1e3,66a626ef09d4e21e1a8894ec,6734e03e1d41ece48a9e4053,2024-11-13_11h22.31.953,Tarea de género gramatical,2024.2.2,Win32,59.52380952,,,,,,,,,,,,,,,,,,,,,,,,910.5788,911.7418,l,1,[],[],[],[],[],[],[],0.482,1,911.7418,912.2421,,,,,,979,FEM,DIS,150,mina,el,a,0.482,,912.2422,912.2424,0.010185242,-0.300925954,0,0,0,,0,196,196,78,1,,,,,
,,,,,,7758940305ddcd3ec601d1e3,66a626ef09d4e21e1a8894ec,6734e03e1d41ece48a9e4053,2024-11-13_11h22.31.953,Tarea de género gramatical,2024.2.2,Win32,59.52380952,,,,,,,,,,,,,,,,,,,,,,,,912.2448,913.2918,l,1,[],[],[],[],[],[],[],0.3681,1,913.2919,913.7919,,,,,,968,FEM,AGR,150,pata,la,a,0.3681,,913.7919,913.7921,0.010185242,-0.300925954,0,0,0,,0,197,197,67,1,,,,,
,,,,,,7758940305ddcd3ec601d1e3,66a626ef09d4e21e1a8894ec,6734e03e1d41ece48a9e4053,2024-11-13_11h22.31.953,Tarea de género gramatical,2024.2.2,Win32,59.52380952,,,,,,,,,,,,,,,,,,,,,,,,913.794,914.9244,a,1,[],[],[],[],[],[],[],0.4545,1,914.9246,915.4249,,,,,,1127,MAS,AGR,150,vuelo,el,l,0.4545,,915.4249,915.425,0.010185242,-0.300925954,0,0,0,,0,198,198,226,1,,,,,
,,,,,,7758940305ddcd3ec601d1e3,66a626ef09d4e21e1a8894ec,6734e03e1d41ece48a9e4053,2024-11-13_11h22.31.953,Tarea de género gramatical,2024.2.2,Win32,59.52380952,,,,,,,,,,,,,,,,,,,,,,,,915.4277,916.6914,a,1,[],[],[],[],[],[],[],0.5839,1,916.6915,917.1914,,,,,,1031,MAS,AGR,150,kilo,el,l,0.5839,,917.1915,917.1916,0.010185242,-0.300925954,0,0,0,,0,199,199,130,1,,,,,
,,,,,,7758940305ddcd3ec601d1e3,66a626ef09d4e21e1a8894ec,6734e03e1d41ece48a9e4053,2024-11-13_11h22.31.953,Tarea de género gramatical,2024.2.2,Win32,59.52380952,,,,,,,,,,,,,,,,,,,,,,,,917.1931,918.3747,l,1,[],[],[],[],[],[],[],0.5181,1,918.3749,918.8744,,,,,,973,FEM,DIS,150,roca,el,a,0.5181,,918.8763,918.8779,0.010185242,-0.300925954,0,0,0,,0,200,200,72,1,,,,,
,,,,,,7758940305ddcd3ec601d1e3,66a626ef09d4e21e1a8894ec,6734e03e1d41ece48a9e4053,2024-11-13_11h22.31.953,Tarea de género gramatical,2024.2.2,Win32,59.52380952,,,,,,,,,,,,,,,,,,,,,,,,918.879,920.024,a,1,[],[],[],[],[],[],[],0.468,1,920.0241,920.5242,,,,,,904,MAS,DIS,150,hijo,la,l,0.468,,920.5243,920.5245,0.010185242,-0.300925954,0,0,0,,0,201,201,3,1,,,,,
,,,,,,7758940305ddcd3ec601d1e3,66a626ef09d4e21e1a8894ec,6734e03e1d41ece48a9e4053,2024-11-13_11h22.31.953,Tarea de género gramatical,2024.2.2,Win32,59.52380952,,,,,,,,,,,,,,,,,,,,,,,,920.5267,921.6739,l,1,[],[],[],[],[],[],[],0.468,1,921.674,922.1743,,,,,,944,FEM,AGR,150,zona,la,a,0.468,,922.1744,922.1746,0.010185242,-0.300925954,0,0,0,,0,202,202,43,1,,,,,
,,,,,,7758940305ddcd3ec601d1e3,66a626ef09d4e21e1a8894ec,6734e03e1d41ece48a9e4053,2024-11-13_11h22.31.953,Tarea de género gramatical,2024.2.2,Win32,59.52380952,,,,,,,,,,,,,,,,,,,,,,,,922.1762,923.3405,a,1,[],[],[],[],[],[],[],0.4937,1,923.3407,923.8406,,,,,,1283,MAS,AGR,150,parque,el,l,0.4937,,923.8407,923.8409,0.010185242,-0.300925954,0,0,0,,0,203,203,382,1,,,,,
,,,,,,7758940305ddcd3ec601d1e3,66a626ef09d4e21e1a8894ec,6734e03e1d41ece48a9e4053,2024-11-13_11h22.31.953,Tarea de género gramatical,2024.2.2,Win32,59.52380952,,,,,,,,,,,,,,,,,,,,,,,,923.8428,925.0238,l,0,[],[],[],[],[],[],[],0.5081,0,925.025,925.5236,,,,,,1330,MAS,DIS,150,título,la,l,0.5081,,925.5257,925.5271,0.010185242,-0.300925954,0,0,0,,0,204,204,429,1,,,,,
,,,,,,7758940305ddcd3ec601d1e3,66a626ef09d4e21e1a8894ec,6734e03e1d41ece48a9e4053,2024-11-13_11h22.31.953,Tarea de género gramatical,2024.2.2,Win32,59.52380952,,,,,,,,,,,,,,,,,,,,,,,,925.5288,926.6235,l,1,[],[],[],[],[],[],[],0.4192,1,926.6245,927.1235,,,,,,1220,FEM,AGR,150,fiesta,la,a,0.4192,,927.1236,927.1238,0.010185242,-0.300925954,0,0,0,,0,205,205,319,1,,,,,
,,,,,,7758940305ddcd3ec601d1e3,66a626ef09d4e21e1a8894ec,6734e03e1d41ece48a9e4053,2024-11-13_11h22.31.953,Tarea de género gramatical,2024.2.2,Win32,59.52380952,,,,,,,,,,,,,,,,,,,,,,,,927.1263,928.2898,a,1,[],[],[],[],[],[],[],0.4922,1,928.2899,928.7897,,,,,,964,MAS,DIS,150,saco,la,l,0.4922,,928.7898,928.79,0.010185242,-0.300925954,0,0,0,,0,206,206,63,1,,,,,
,,,,,,7758940305ddcd3ec601d1e3,66a626ef09d4e21e1a8894ec,6734e03e1d41ece48a9e4053,2024-11-13_11h22.31.953,Tarea de género gramatical,2024.2.2,Win32,59.52380952,,,,,,,,,,,,,,,,,,,,,,,,928.7917,929.9226,a,1,[],[],[],[],[],[],[],0.4496,1,929.9227,930.4228,,,,,,1140,MAS,CON,150,ruido,,l,0.4496,,930.423,930.423,0.010185242,-0.300925954,0,0,0,,0,207,207,239,1,,,,,
,,,,,,7758940305ddcd3ec601d1e3,66a626ef09d4e21e1a8894ec,6734e03e1d41ece48a9e4053,2024-11-13_11h22.31.953,Tarea de género gramatical,2024.2.2,Win32,59.52380952,,,,,,,,,,,,,,,,,,,,,,,,930.4244,931.5894,a,1,[],[],[],[],[],[],[],0.4841,1,931.5896,932.0895,,,,,,977,MAS,AGR,150,pico,el,l,0.4841,,932.0896,932.0897,0.010185242,-0.300925954,0,0,0,,0,208,208,76,1,,,,,
,,,,,,7758940305ddcd3ec601d1e3,66a626ef09d4e21e1a8894ec,6734e03e1d41ece48a9e4053,2024-11-13_11h22.31.953,Tarea de género gramatical,2024.2.2,Win32,59.52380952,,,,,,,,,,,,,,,,,,,,,,,,932.0916,933.2057,a,1,[],[],[],[],[],[],[],0.4414,1,933.2057,933.7056,,,,,,1270,MAS,DIS,150,seguro,la,l,0.4414,,933.7074,933.7089,0.010185242,-0.300925954,0,0,0,,0,209,209,369,1,,,,,
,,,,,,7758940305ddcd3ec601d1e3,66a626ef09d4e21e1a8894ec,6734e03e1d41ece48a9e4053,2024-11-13_11h22.31.953,Tarea de género gramatical,2024.2.2,Win32,59.52380952,,,,,,,,,,,,,,,,,,,,,,,,933.7098,934.8058,a,1,[],[],[],[],[],[],[],0.4243,1,934.8061,935.3056,,,,,,1350,MAS,CON,150,conejo,,l,0.4243,,935.3058,935.306,0.010185242,-0.300925954,0,0,0,,0,210,210,449,1,,,,,
,,,,,,7758940305ddcd3ec601d1e3,66a626ef09d4e21e1a8894ec,6734e03e1d41ece48a9e4053,2024-11-13_11h22.31.953,Tarea de género gramatical,2024.2.2,Win32,59.52380952,,,,,,,,,,,,,,,,,,,,,,,,935.3079,936.4721,a,1,[],[],[],[],[],[],[],0.4885,1,936.4721,936.9724,,,,,,1067,MAS,AGR,150,juego,el,l,0.4885,,936.9725,936.9728,0.010185242,-0.300925954,0,0,0,,0,211,211,166,1,,,,,
,,,,,,7758940305ddcd3ec601d1e3,66a626ef09d4e21e1a8894ec,6734e03e1d41ece48a9e4053,2024-11-13_11h22.31.953,Tarea de género gramatical,2024.2.2,Win32,59.52380952,,,,,,,,,,,,,,,,,,,,,,,,936.9746,938.1052,a,1,[],[],[],[],[],[],[],0.4508,1,938.1054,938.6051,,,,,,1146,MAS,CON,150,humor,,l,0.4508,,938.6052,938.6053,0.010185242,-0.300925954,0,0,0,,0,212,212,245,1,,,,,
,,,,,,7758940305ddcd3ec601d1e3,66a626ef09d4e21e1a8894ec,6734e03e1d41ece48a9e4053,2024-11-13_11h22.31.953,Tarea de género gramatical,2024.2.2,Win32,59.52380952,,,,,,,,,,,,,,,,,,,,,,,,938.6066,939.6216,l,1,[],[],[],[],[],[],[],0.3412,1,939.6218,940.1216,,,,,,980,FEM,AGR,150,vaca,la,a,0.3412,,940.1238,940.1257,0.010185242,-0.300925954,0,0,0,,0,213,213,79,1,,,,,
,,,,,,7758940305ddcd3ec601d1e3,66a626ef09d4e21e1a8894ec,6734e03e1d41ece48a9e4053,2024-11-13_11h22.31.953,Tarea de género gramatical,2024.2.2,Win32,59.52380952,,,,,,,,,,,,,,,,,,,,,,,,940.1268,941.2216,l,1,[],[],[],[],[],[],[],0.4212,1,941.2217,941.7217,,,,,,1027,FEM,DIS,150,cuna,el,a,0.4212,,941.7218,941.7221,0.010185242,-0.300925954,0,0,0,,0,214,214,126,1,,,,,
,,,,,,7758940305ddcd3ec601d1e3,66a626ef09d4e21e1a8894ec,6734e03e1d41ece48a9e4053,2024-11-13_11h22.31.953,Tarea de género gramatical,2024.2.2,Win32,59.52380952,,,,,,,,,,,,,,,,,,,,,,,,941.7247,942.7382,l,0,[],[],[],[],[],[],[],0.3406,0,942.7396,943.2379,,,,,,912,MAS,CON,150,plan,,l,0.3406,,943.238,943.238,0.010185242,-0.300925954,0,0,0,,0,215,215,11,1,,,,,
,,,,,,7758940305ddcd3ec601d1e3,66a626ef09d4e21e1a8894ec,6734e03e1d41ece48a9e4053,2024-11-13_11h22.31.953,Tarea de género gramatical,2024.2.2,Win32,59.52380952,,,,,,,,,,,,,,,,,,,,,,,,943.2398,944.4543,l,1,[],[],[],[],[],[],[],0.5395,1,944.4554,944.9545,,,,,,1087,FEM,DIS,150,lista,el,a,0.5395,,944.9546,944.9547,0.010185242,-0.300925954,0,0,0,,0,216,216,186,1,,,,,
,,,,,,7758940305ddcd3ec601d1e3,66a626ef09d4e21e1a8894ec,6734e03e1d41ece48a9e4053,2024-11-13_11h22.31.953,Tarea de género gramatical,2024.2.2,Win32,59.52380952,,,,,,,,,,,,,,,,,,,,,,,,944.9571,946.2373,l,1,[],[],[],[],[],[],[],0.6014,1,946.2374,946.7375,,,,,,1165,FEM,DIS,150,rueda,el,a,0.6014,,946.7375,946.7377,0.010185242,-0.300925954,0,0,0,,0,217,217,264,1,,,,,
,,,,,,7758940305ddcd3ec601d1e3,66a626ef09d4e21e1a8894ec,6734e03e1d41ece48a9e4053,2024-11-13_11h22.31.953,Tarea de género gramatical,2024.2.2,Win32,59.52380952,,,,,,,,,,,,,,,,,,,,,,,,946.7395,948.1374,a,0,[],[],[],[],[],[],[],0.7227,0,948.1388,948.6369,,,,,,931,FEM,DIS,150,edad,el,a,0.7227,,948.6387,948.6405,0.010185242,-0.300925954,0,0,0,,0,218,218,30,1,,,,,
,,,,,,7758940305ddcd3ec601d1e3,66a626ef09d4e21e1a8894ec,6734e03e1d41ece48a9e4053,2024-11-13_11h22.31.953,Tarea de género gramatical,2024.2.2,Win32,59.52380952,,,,,,,,,,,,,,,,,,,,,,,,948.6412,949.904,a,1,[],[],[],[],[],[],[],0.5852,1,949.9055,950.4035,,,,,,1344,MAS,CON,150,límite,,l,0.5852,,950.4036,950.4039,0.010185242,-0.300925954,0,0,0,,0,219,219,443,1,,,,,
,,,,,,7758940305ddcd3ec601d1e3,66a626ef09d4e21e1a8894ec,6734e03e1d41ece48a9e4053,2024-11-13_11h22.31.953,Tarea de género gramatical,2024.2.2,Win32,59.52380952,,,,,,,,,,,,,,,,,,,,,,,,950.4059,951.8369,a,1,[],[],[],[],[],[],[],0.7576,1,951.8371,952.3368,,,,,,1324,MAS,DIS,150,rastro,la,l,0.7576,,952.337,952.3371,0.010185242,-0.300925954,0,0,0,,0,220,220,423,1,,,,,
,,,,,,7758940305ddcd3ec601d1e3,66a626ef09d4e21e1a8894ec,6734e03e1d41ece48a9e4053,2024-11-13_11h22.31.953,Tarea de género gramatical,2024.2.2,Win32,59.52380952,,,,,,,,,,,,,,,,,,,,,,,,952.3387,953.8032,a,1,[],[],[],[],[],[],[],0.7877,1,953.8033,954.3033,,,,,,1168,MAS,DIS,150,truco,la,l,0.7877,,954.3034,954.3034,0.010185242,-0.300925954,0,0,0,,0,221,221,267,1,,,,,
,,,,,,7758940305ddcd3ec601d1e3,66a626ef09d4e21e1a8894ec,6734e03e1d41ece48a9e4053,2024-11-13_11h22.31.953,Tarea de género gramatical,2024.2.2,Win32,59.52380952,,,,,,,,,,,,,,,,,,,,,,,,954.3053,955.5364,l,1,[],[],[],[],[],[],[],0.5504,1,955.5366,956.0365,,,,,,1238,FEM,AGR,150,abuela,la,a,0.5504,,956.0387,956.0403,0.010185242,-0.300925954,0,0,0,,0,222,222,337,1,,,,,
,,,,,,7758940305ddcd3ec601d1e3,66a626ef09d4e21e1a8894ec,6734e03e1d41ece48a9e4053,2024-11-13_11h22.31.953,Tarea de género gramatical,2024.2.2,Win32,59.52380952,,,,,,,,,,,,,,,,,,,,,,,,956.0415,957.3028,l,1,[],[],[],[],[],[],[],0.5917,1,957.303,957.803,,,,,,1316,FEM,AGR,150,colina,la,a,0.5917,,957.803,957.8032,0.010185242,-0.300925954,0,0,0,,0,223,223,415,1,,,,,
,,,,,,7758940305ddcd3ec601d1e3,66a626ef09d4e21e1a8894ec,6734e03e1d41ece48a9e4053,2024-11-13_11h22.31.953,Tarea de género gramatical,2024.2.2,Win32,59.52380952,,,,,,,,,,,,,,,,,,,,,,,,957.805,959.0204,l,1,[],[],[],[],[],[],[],0.5442,1,959.0205,959.5193,,,,,,1137,FEM,CON,150,ducha,,a,0.5442,,959.5194,959.5197,0.010185242,-0.300925954,0,0,0,,0,224,224,236,1,,,,,
,,,,,,7758940305ddcd3ec601d1e3,66a626ef09d4e21e1a8894ec,6734e03e1d41ece48a9e4053,2024-11-13_11h22.31.953,Tarea de género gramatical,2024.2.2,Win32,59.52380952,,,,,,,,,,,,,,,,,,,,,,,,959.5213,960.7026,l,1,[],[],[],[],[],[],[],0.5041,1,960.7027,961.2025,,,,,,1189,FEM,DIS,150,tabla,el,a,0.5041,,961.2025,961.2026,0.010185242,-0.300925954,0,0,0,,0,225,225,288,1,,,,,
,,,,,,7758940305ddcd3ec601d1e3,66a626ef09d4e21e1a8894ec,6734e03e1d41ece48a9e4053,2024-11-13_11h22.31.953,Tarea de género gramatical,2024.2.2,Win32,59.52380952,,,,,,,,,,,,,,,,,,,,,,,,961.2046,962.4356,a,1,[],[],[],[],[],[],[],0.5505,1,962.4358,962.935,,,,,,1019,MAS,AGR,150,mito,el,l,0.5505,,962.935,962.935,0.010185242,-0.300925954,0,0,0,,0,226,226,118,1,,,,,
,,,,,,7758940305ddcd3ec601d1e3,66a626ef09d4e21e1a8894ec,6734e03e1d41ece48a9e4053,2024-11-13_11h22.31.953,Tarea de género gramatical,2024.2.2,Win32,59.52380952,,,,,,,,,,,,,,,,,,,,,,,,962.936,964.2182,a,1,[],[],[],[],[],[],[],0.5994,1,964.2182,964.7186,,,,,,1156,MAS,DIS,150,techo,la,l,0.5994,,964.7212,964.7226,0.010185242,-0.300925954,0,0,0,,0,227,227,255,1,,,,,
,,,,,,7758940305ddcd3ec601d1e3,66a626ef09d4e21e1a8894ec,6734e03e1d41ece48a9e4053,2024-11-13_11h22.31.953,Tarea de género gramatical,2024.2.2,Win32,59.52380952,,,,,,,,,,,,,,,,,,,,,,,,964.7237,966.0848,a,1,[],[],[],[],[],[],[],0.6843,1,966.085,966.5849,,,,,,1037,MAS,AGR,150,coco,el,l,0.6843,,966.585,966.5852,0.010185242,-0.300925954,0,0,0,,0,228,228,136,1,,,,,
,,,,,,7758940305ddcd3ec601d1e3,66a626ef09d4e21e1a8894ec,6734e03e1d41ece48a9e4053,2024-11-13_11h22.31.953,Tarea de género gramatical,2024.2.2,Win32,59.52380952,,,,,,,,,,,,,,,,,,,,,,,,966.5871,967.9516,a,0,[],[],[],[],[],[],[],0.6891,0,967.953,968.4515,,,,,,1195,FEM,DIS,150,grasa,el,a,0.6891,,968.4515,968.4517,0.010185242,-0.300925954,0,0,0,,0,229,229,294,1,,,,,
,,,,,,7758940305ddcd3ec601d1e3,66a626ef09d4e21e1a8894ec,6734e03e1d41ece48a9e4053,2024-11-13_11h22.31.953,Tarea de género gramatical,2024.2.2,Win32,59.52380952,,,,,,,,,,,,,,,,,,,,,,,,968.4537,969.7178,a,1,[],[],[],[],[],[],[],0.5847,1,969.7189,970.2176,,,,,,1055,MAS,AGR,150,mundo,el,l,0.5847,,970.2176,970.2179,0.010185242,-0.300925954,0,0,0,,0,230,230,154,1,,,,,
,,,,,,7758940305ddcd3ec601d1e3,66a626ef09d4e21e1a8894ec,6734e03e1d41ece48a9e4053,2024-11-13_11h22.31.953,Tarea de género gramatical,2024.2.2,Win32,59.52380952,,,,,,,,,,,,,,,,,,,,,,,,970.2197,971.3686,l,1,[],[],[],[],[],[],[],0.478,1,971.3688,971.8679,,,,,,1280,FEM,AGR,150,madera,la,a,0.478,,971.87,971.8715,0.010185242,-0.300925954,0,0,0,,0,231,231,379,1,,,,,
,,,,,,7758940305ddcd3ec601d1e3,66a626ef09d4e21e1a8894ec,6734e03e1d41ece48a9e4053,2024-11-13_11h22.31.953,Tarea de género gramatical,2024.2.2,Win32,59.52380952,,,,,,,,,,,,,,,,,,,,,,,,971.8727,973.2842,l,1,[],[],[],[],[],[],[],0.7344,1,973.2844,973.7839,,,,,,1183,FEM,DIS,150,pluma,el,a,0.7344,,973.7839,973.7841,0.010185242,-0.300925954,0,0,0,,0,232,232,282,1,,,,,
,,,,,,7758940305ddcd3ec601d1e3,66a626ef09d4e21e1a8894ec,6734e03e1d41ece48a9e4053,2024-11-13_11h22.31.953,Tarea de género gramatical,2024.2.2,Win32,59.52380952,,,,,,,,,,,,,,,,,,,,,,,,973.7859,975.0006,a,1,[],[],[],[],[],[],[],0.5393,1,975.0008,975.5005,,,,,,1288,MAS,DIS,150,empleo,la,l,0.5393,,975.5006,975.5007,0.010185242,-0.300925954,0,0,0,,0,233,233,387,1,,,,,
,,,,,,7758940305ddcd3ec601d1e3,66a626ef09d4e21e1a8894ec,6734e03e1d41ece48a9e4053,2024-11-13_11h22.31.953,Tarea de género gramatical,2024.2.2,Win32,59.52380952,,,,,,,,,,,,,,,,,,,,,,,,975.5026,976.6166,l,1,[],[],[],[],[],[],[],0.4334,1,976.6167,977.1166,,,,,,1274,FEM,AGR,150,herida,la,a,0.4334,,977.1168,977.1168,0.010185242,-0.300925954,0,0,0,,0,234,234,373,1,,,,,
,,,,,,7758940305ddcd3ec601d1e3,66a626ef09d4e21e1a8894ec,6734e03e1d41ece48a9e4053,2024-11-13_11h22.31.953,Tarea de género gramatical,2024.2.2,Win32,59.52380952,,,,,,,,,,,,,,,,,,,,,,,,977.1179,978.5163,l,1,[],[],[],[],[],[],[],0.7164,1,978.5164,979.0167,,,,,,1047,FEM,CON,150,grúa,,a,0.7164,,979.0168,979.017,0.010185242,-0.300925954,0,0,0,,0,235,235,146,1,,,,,
,,,,,,7758940305ddcd3ec601d1e3,66a626ef09d4e21e1a8894ec,6734e03e1d41ece48a9e4053,2024-11-13_11h22.31.953,Tarea de género gramatical,2024.2.2,Win32,59.52380952,,,,,,,,,,,,,,,,,,,,,,,,979.0188,980.3666,a,1,[],[],[],[],[],[],[],0.667,1,980.3668,980.8665,,,,,,1024,MAS,DIS,150,clan,la,l,0.667,,980.8688,980.8705,0.010185242,-0.300925954,0,0,0,,0,236,236,123,1,,,,,
,,,,,,7758940305ddcd3ec601d1e3,66a626ef09d4e21e1a8894ec,6734e03e1d41ece48a9e4053,2024-11-13_11h22.31.953,Tarea de género gramatical,2024.2.2,Win32,59.52380952,,,,,,,,,,,,,,,,,,,,,,,,980.8717,982.0328,l,1,[],[],[],[],[],[],[],0.496,1,982.033,982.5331,,,,,,943,FEM,DIS,150,nena,el,a,0.496,,982.5331,982.5334,0.010185242,-0.300925954,0,0,0,,0,237,237,42,1,,,,,
,,,,,,7758940305ddcd3ec601d1e3,66a626ef09d4e21e1a8894ec,6734e03e1d41ece48a9e4053,2024-11-13_11h22.31.953,Tarea de género gramatical,2024.2.2,Win32,59.52380952,,,,,,,,,,,,,,,,,,,,,,,,982.5353,983.7996,a,1,[],[],[],[],[],[],[],0.5848,1,983.7998,984.2996,,,,,,936,MAS,CON,150,dedo,,l,0.5848,,984.2996,984.2997,0.010185242,-0.300925954,0,0,0,,0,238,238,35,1,,,,,
,,,,,,7758940305ddcd3ec601d1e3,66a626ef09d4e21e1a8894ec,6734e03e1d41ece48a9e4053,2024-11-13_11h22.31.953,Tarea de género gramatical,2024.2.2,Win32,59.52380952,,,,,,,,,,,,,,,,,,,,,,,,984.3016,985.3659,l,1,[],[],[],[],[],[],[],0.3875,1,985.366,985.8657,,,,,,1160,FEM,AGR,150,barra,la,a,0.3875,,985.8657,985.8659,0.010185242,-0.300925954,0,0,0,,0,239,239,259,1,,,,,
,,,,,,7758940305ddcd3ec601d1e3,66a626ef09d4e21e1a8894ec,6734e03e1d41ece48a9e4053,2024-11-13_11h22.31.953,Tarea de género gramatical,2024.2.2,Win32,59.52380952,,,,,,,,,,,,,,,,,,,,,,,,985.8674,986.9991,a,1,[],[],[],[],[],[],[],0.4524,1,986.9993,987.4992,,,,,,994,MAS,DIS,150,cabo,la,l,0.4524,,987.5012,987.5028,0.010185242,-0.300925954,0,0,0,,0,240,240,93,1,,,,,
,,,,,,7758940305ddcd3ec601d1e3,66a626ef09d4e21e1a8894ec,6734e03e1d41ece48a9e4053,2024-11-13_11h22.31.953,Tarea de género gramatical,2024.2.2,Win32,59.52380952,,,,,,,,,,,,,,,,,,,,,,,,987.504,988.6487,a,1,[],[],[],[],[],[],[],0.4693,1,988.6488,989.1487,,,,,,1170,MAS,CON,150,queso,,l,0.4693,,989.1487,989.1489,0.010185242,-0.300925954,0,0,0,,0,241,241,269,1,,,,,
,,,,,,7758940305ddcd3ec601d1e3,66a626ef09d4e21e1a8894ec,6734e03e1d41ece48a9e4053,2024-11-13_11h22.31.953,Tarea de género gramatical,2024.2.2,Win32,59.52380952,,,,,,,,,,,,,,,,,,,,,,,,989.1509,990.4152,a,1,[],[],[],[],[],[],[],0.5879,1,990.4153,990.9152,,,,,,1072,MAS,DIS,150,poder,la,l,0.5879,,990.9153,990.9155,0.010185242,-0.300925954,0,0,0,,0,242,242,171,1,,,,,
,,,,,,7758940305ddcd3ec601d1e3,66a626ef09d4e21e1a8894ec,6734e03e1d41ece48a9e4053,2024-11-13_11h22.31.953,Tarea de género gramatical,2024.2.2,Win32,59.52380952,,,,,,,,,,,,,,,,,,,,,,,,990.9175,992.1984,a,0,[],[],[],[],[],[],[],0.6102,0,992.1999,992.6983,,,,,,1317,FEM,CON,150,cabaña,,a,0.6102,,992.6984,992.6985,0.010185242,-0.300925954,0,0,0,,0,243,243,416,1,,,,,
,,,,,,7758940305ddcd3ec601d1e3,66a626ef09d4e21e1a8894ec,6734e03e1d41ece48a9e4053,2024-11-13_11h22.31.953,Tarea de género gramatical,2024.2.2,Win32,59.52380952,,,,,,,,,,,,,,,,,,,,,,,,992.6999,993.7817,l,1,[],[],[],[],[],[],[],0.4029,1,993.7829,994.2815,,,,,,1279,FEM,DIS,150,granja,el,a,0.4029,,994.2816,994.2817,0.010185242,-0.300925954,0,0,0,,0,244,244,378,1,,,,,
,,,,,,7758940305ddcd3ec601d1e3,66a626ef09d4e21e1a8894ec,6734e03e1d41ece48a9e4053,2024-11-13_11h22.31.953,Tarea de género gramatical,2024.2.2,Win32,59.52380952,,,,,,,,,,,,,,,,,,,,,,,,994.2837,995.4645,a,1,[],[],[],[],[],[],[],0.5091,1,995.4647,995.9645,,,,,,941,MAS,AGR,150,bote,el,l,0.5091,,995.9667,995.9682,0.010185242,-0.300925954,0,0,0,,0,245,245,40,1,,,,,
,,,,,,7758940305ddcd3ec601d1e3,66a626ef09d4e21e1a8894ec,6734e03e1d41ece48a9e4053,2024-11-13_11h22.31.953,Tarea de género gramatical,2024.2.2,Win32,59.52380952,,,,,,,,,,,,,,,,,,,,,,,,995.9694,997.5144,a,1,[],[],[],[],[],[],[],0.872,1,997.5145,998.0139,,,,,,1000,MAS,DIS,150,nido,la,l,0.872,,998.014,998.0142,0.010185242,-0.300925954,0,0,0,,0,246,246,99,1,,,,,
,,,,,,7758940305ddcd3ec601d1e3,66a626ef09d4e21e1a8894ec,6734e03e1d41ece48a9e4053,2024-11-13_11h22.31.953,Tarea de género gramatical,2024.2.2,Win32,59.52380952,,,,,,,,,,,,,,,,,,,,,,,,998.016,999.4476,l,1,[],[],[],[],[],[],[],0.7575,1,999.4477,999.9474,,,,,,975,FEM,CON,150,caza,,a,0.7575,,999.9474,999.9476,0.010185242,-0.300925954,0,0,0,,0,247,247,74,1,,,,,
,,,,,,7758940305ddcd3ec601d1e3,66a626ef09d4e21e1a8894ec,6734e03e1d41ece48a9e4053,2024-11-13_11h22.31.953,Tarea de género gramatical,2024.2.2,Win32,59.52380952,,,,,,,,,,,,,,,,,,,,,,,,999.9493,1001.3807,a,0,[],[],[],[],[],[],[],0.7505,0,1001.382,1001.8806,,,,,,1125,FEM,CON,150,pieza,,a,0.7505,,1001.8806,1001.8807,0.010185242,-0.300925954,0,0,0,,0,248,248,224,1,,,,,
,,,,,,7758940305ddcd3ec601d1e3,66a626ef09d4e21e1a8894ec,6734e03e1d41ece48a9e4053,2024-11-13_11h22.31.953,Tarea de género gramatical,2024.2.2,Win32,59.52380952,,,,,,,,,,,,,,,,,,,,,,,,1001.8828,1003.1135,a,1,[],[],[],[],[],[],[],0.5556,1,1003.1149,1003.6135,,,,,,1246,MAS,DIS,150,juicio,la,l,0.5556,,1003.615,1003.6172,0.010185242,-0.300925954,0,0,0,,0,249,249,345,1,,,,,
