counterbalancing_condition,consent_prescreening.block_1/declare_consent,consent_prescreening.block_1/age_years,consent_prescreening.block_1/gender,consent_prescreening.block_1/language_disorder,consent_prescreening.block_1/first_language,PROLIFIC_PID,STUDY_ID,SESSION_ID,date,expName,psychopyVersion,OS,frameRate,check_prescreening_answers.started,check_prescreening_answers.stopped,Instructions.started,Instructions.stopped,instr_done_keyboard.keys,instr_done_keyboard.rt,instr_done_keyboard.duration,instr_done_touch.x,instr_done_touch.y,instr_done_touch.leftButton,instr_done_touch.midButton,instr_done_touch.rightButton,instruction_pages.thisRepN,instruction_pages.thisTrialN,instruction_pages.thisN,instruction_pages.thisIndex,instruction_pages.ran,pageN,phase,instruct_text,has_image,instruct_image,presentTrial.started,presentTrial.stopped,response.keys,response.corr,touch_resp.x,touch_resp.y,touch_resp.leftButton,touch_resp.midButton,touch_resp.rightButton,touch_resp.time,touch_resp.clicked_name,rt,corr,feedback.started,feedback.stopped,practice_trials.thisRepN,practice_trials.thisTrialN,practice_trials.thisN,practice_trials.thisIndex,practice_trials.ran,TrialID,StimulusType,Condition,PrimeDuration,Prime,Flanker,corrAns,response.rt,response.duration,Break.started,Break.stopped,break_done_touch.x,break_done_touch.y,break_done_touch.leftButton,break_done_touch.midButton,break_done_touch.rightButton,break_done_keyboard.keys,experiment_trials.thisRepN,experiment_trials.thisTrialN,experiment_trials.thisN,experiment_trials.thisIndex,experiment_trials.ran,break_done_keyboard.rt,break_done_keyboard.duration,End.started,End.stopped
0,"[""comfortable"",""over_18"",""read_info"",""consent_given""]",23,F,"[""none""]","[""spanish"",""english""]",78ac0f6de5e916ef1b7d2b63,66a626ef09d4e21e1a8894ec,6735eec3eb205d14d21e4459,2024-11-14_13h37.24.222,Tarea de género gramatical,2024.2.2,MacIntel,60.24096386,,,,,,,,,,,,,,,,,,,,,,,,,,,,,,,,,,,,,,,,,,,,,,,,,,,,,,,,,,,,,,,,,,,,
,,,,,,78ac0f6de5e916ef1b7d2b63,66a626ef09d4e21e1a8894ec,6735eec3eb205d14d21e4459,2024-11-14_13h37.24.222,Tarea de género gramatical,2024.2.2,MacIntel,60.24096386,28.6513,28.6515,,,,,,,,,,,,,,,,,,,,,,,,,,,,,,,,,,,,,,,,,,,,,,,,,,,,,,,,,,,,,,,,,,
,,,,,,78ac0f6de5e916ef1b7d2b63,66a626ef09d4e21e1a8894ec,6735eec3eb205d14d21e4459,2024-11-14_13h37.24.222,Tarea de género gramatical,2024.2.2,MacIntel,60.24096386,,,28.6755,49.183,space,20.4692,,0.034345279,-0.408547045,0,0,0,0,0,0,0,1,1,instructions,"INSTRUCCIONES
Va a realizar una prueba de selección gramatical. Desde el comienzo de la prueba mire siempre al centro de la pantalla. Al cabo de un momento, aparecerán palabras. La tarea consiste en determinar si la palabra del centro (siempre será un sustantivo), pertenece al género masculino o femenino.

Pulse la tecla ESPACIO o toque el botón de abajo para continuar.",0,keyboardresponseMF.png,,,,,,,,,,,,,,,,,,,,,,,,,,,,,,,,,,,,,,,,,,,,,,
,,,,,,78ac0f6de5e916ef1b7d2b63,66a626ef09d4e21e1a8894ec,6735eec3eb205d14d21e4459,2024-11-14_13h37.24.222,Tarea de género gramatical,2024.2.2,MacIntel,60.24096386,,,49.1866,61.6654,space,12.409,,0.048620075,-0.418049423,0,0,0,0,1,1,1,1,2,instructions,"Si su dispositivo tiene teclado, pulse la tecla ""A"" para las palabras en masculino (por ejemplo: ""arroz"") y la tecla ""L"" para las palabras en femenino (por ejemplo: ""mano"").
Pulse la tecla ESPACIO o toque el botón de abajo para continuar.",1,keyboardresponseMF.png,,,,,,,,,,,,,,,,,,,,,,,,,,,,,,,,,,,,,,,,,,,,,,
,,,,,,78ac0f6de5e916ef1b7d2b63,66a626ef09d4e21e1a8894ec,6735eec3eb205d14d21e4459,2024-11-14_13h37.24.222,Tarea de género gramatical,2024.2.2,MacIntel,60.24096386,,,61.6779,68.0488,space,6.3403,,0.048620075,-0.418049423,0,0,0,0,2,2,2,1,3,instructions,"Si utiliza un dispositivo sólo táctil, colóquelo en horizontal y utilice los botones de la pantalla. No utilice el ratón.
Pulse la tecla ESPACIO o toque el botón de abajo para continuar.",2,touchresponseMF.png,,,,,,,,,,,,,,,,,,,,,,,,,,,,,,,,,,,,,,,,,,,,,,
,,,,,,78ac0f6de5e916ef1b7d2b63,66a626ef09d4e21e1a8894ec,6735eec3eb205d14d21e4459,2024-11-14_13h37.24.222,Tarea de género gramatical,2024.2.2,MacIntel,60.24096386,,,68.0606,90.9151,space,22.8348,,0.048620075,-0.418049423,0,0,0,0,3,3,3,1,4,instructions,"Es muy importante que responda con la mayor rapidez y precisión posibles, ya que cada cadena de letras sólo estará en pantalla durante un instante. Si no responde en ese tiempo, aparecerá el mensaje ""Muy lento"" y el experimento pasará a la siguiente palabra. Los primeros 15 intentos serán de práctica y habrá dos descansos durante la prueba.
Pulse la tecla ESPACIO o toque el botón de abajo para iniciar la parte de práctica.",0,keyboardresponseMF.png,,,,,,,,,,,,,,,,,,,,,,,,,,,,,,,,,,,,,,,,,,,,,,
,,,,,,78ac0f6de5e916ef1b7d2b63,66a626ef09d4e21e1a8894ec,6735eec3eb205d14d21e4459,2024-11-14_13h37.24.222,Tarea de género gramatical,2024.2.2,MacIntel,60.24096386,,,,,,,,,,,,,,,,,,,,,,,90.9354,93.5808,,0,[],[],[],[],[],[],[],,-1,93.5814,94.0823,0,0,0,3,1,2004,FEM,AGR,150,venta,la,a,,,,,,,,,,,,,,,,,,,
,,,,,,78ac0f6de5e916ef1b7d2b63,66a626ef09d4e21e1a8894ec,6735eec3eb205d14d21e4459,2024-11-14_13h37.24.222,Tarea de género gramatical,2024.2.2,MacIntel,60.24096386,,,,,,,,,,,,,,,,,,,,,,,94.0846,95.7476,l,1,[],[],[],[],[],[],[],0.996,1,95.7716,96.2481,0,1,1,7,1,2008,FEM,CON,150,siesta,,a,0.996,,,,,,,,,,,,,,,,,,
,,,,,,78ac0f6de5e916ef1b7d2b63,66a626ef09d4e21e1a8894ec,6735eec3eb205d14d21e4459,2024-11-14_13h37.24.222,Tarea de género gramatical,2024.2.2,MacIntel,60.24096386,,,,,,,,,,,,,,,,,,,,,,,96.2508,97.6972,a,0,[],[],[],[],[],[],[],0.7764,0,97.6982,98.203,0,2,2,2,1,2003,FEM,DIS,150,daga,el,a,0.7764,,,,,,,,,,,,,,,,,,
,,,,,,78ac0f6de5e916ef1b7d2b63,66a626ef09d4e21e1a8894ec,6735eec3eb205d14d21e4459,2024-11-14_13h37.24.222,Tarea de género gramatical,2024.2.2,MacIntel,60.24096386,,,,,,,,,,,,,,,,,,,,,,,98.2046,99.8492,a,1,[],[],[],[],[],[],[],0.9799,1,99.8504,100.3483,0,3,3,11,1,2012,MAS,DIS,150,clima,la,l,0.9799,,,,,,,,,,,,,,,,,,
,,,,,,78ac0f6de5e916ef1b7d2b63,66a626ef09d4e21e1a8894ec,6735eec3eb205d14d21e4459,2024-11-14_13h37.24.222,Tarea de género gramatical,2024.2.2,MacIntel,60.24096386,,,,,,,,,,,,,,,,,,,,,,,100.3504,101.9649,l,1,[],[],[],[],[],[],[],0.9337,1,101.9651,102.4649,0,4,4,4,1,2005,FEM,CON,150,placa,,a,0.9337,,,,,,,,,,,,,,,,,,
,,,,,,78ac0f6de5e916ef1b7d2b63,66a626ef09d4e21e1a8894ec,6735eec3eb205d14d21e4459,2024-11-14_13h37.24.222,Tarea de género gramatical,2024.2.2,MacIntel,60.24096386,,,,,,,,,,,,,,,,,,,,,,,102.4668,103.798,a,1,[],[],[],[],[],[],[],0.6619,1,103.7982,104.2984,0,5,5,9,1,2010,MAS,AGR,150,vecino,el,l,0.6619,,,,,,,,,,,,,,,,,,
,,,,,,78ac0f6de5e916ef1b7d2b63,66a626ef09d4e21e1a8894ec,6735eec3eb205d14d21e4459,2024-11-14_13h37.24.222,Tarea de género gramatical,2024.2.2,MacIntel,60.24096386,,,,,,,,,,,,,,,,,,,,,,,104.2989,106.1817,l,0,[],[],[],[],[],[],[],1.2014,0,106.1832,106.6815,0,6,6,13,1,2014,MAS,CON,150,siglo,,l,1.2014,,,,,,,,,,,,,,,,,,
,,,,,,78ac0f6de5e916ef1b7d2b63,66a626ef09d4e21e1a8894ec,6735eec3eb205d14d21e4459,2024-11-14_13h37.24.222,Tarea de género gramatical,2024.2.2,MacIntel,60.24096386,,,,,,,,,,,,,,,,,,,,,,,106.6831,108.6304,a,0,[],[],[],[],[],[],[],1.2662,0,108.6305,109.1308,0,7,7,0,1,2001,FEM,AGR,150,nuca,la,a,1.2662,,,,,,,,,,,,,,,,,,
,,,,,,78ac0f6de5e916ef1b7d2b63,66a626ef09d4e21e1a8894ec,6735eec3eb205d14d21e4459,2024-11-14_13h37.24.222,Tarea de género gramatical,2024.2.2,MacIntel,60.24096386,,,,,,,,,,,,,,,,,,,,,,,109.1326,111.1148,l,1,[],[],[],[],[],[],[],1.3003,1,111.1163,111.6138,0,8,8,5,1,2006,FEM,DIS,150,serie,el,a,1.3003,,,,,,,,,,,,,,,,,,
,,,,,,78ac0f6de5e916ef1b7d2b63,66a626ef09d4e21e1a8894ec,6735eec3eb205d14d21e4459,2024-11-14_13h37.24.222,Tarea de género gramatical,2024.2.2,MacIntel,60.24096386,,,,,,,,,,,,,,,,,,,,,,,111.6151,113.0148,l,1,[],[],[],[],[],[],[],0.7174,1,113.0149,113.515,0,9,9,1,1,2002,FEM,CON,150,pala,,a,0.7174,,,,,,,,,,,,,,,,,,
,,,,,,78ac0f6de5e916ef1b7d2b63,66a626ef09d4e21e1a8894ec,6735eec3eb205d14d21e4459,2024-11-14_13h37.24.222,Tarea de género gramatical,2024.2.2,MacIntel,60.24096386,,,,,,,,,,,,,,,,,,,,,,,113.5166,114.8979,l,1,[],[],[],[],[],[],[],0.7032,1,114.8981,115.3981,0,10,10,6,1,2007,FEM,AGR,150,navaja,la,a,0.7032,,,,,,,,,,,,,,,,,,
,,,,,,78ac0f6de5e916ef1b7d2b63,66a626ef09d4e21e1a8894ec,6735eec3eb205d14d21e4459,2024-11-14_13h37.24.222,Tarea de género gramatical,2024.2.2,MacIntel,60.24096386,,,,,,,,,,,,,,,,,,,,,,,115.3998,116.8139,a,1,[],[],[],[],[],[],[],0.7328,1,116.814,117.3139,0,11,11,14,1,2015,MAS,DIS,150,robot,la,l,0.7328,,,,,,,,,,,,,,,,,,
,,,,,,78ac0f6de5e916ef1b7d2b63,66a626ef09d4e21e1a8894ec,6735eec3eb205d14d21e4459,2024-11-14_13h37.24.222,Tarea de género gramatical,2024.2.2,MacIntel,60.24096386,,,,,,,,,,,,,,,,,,,,,,,117.3153,118.7981,a,1,[],[],[],[],[],[],[],0.8027,1,118.7983,119.2984,0,12,12,8,1,2009,MAS,DIS,150,puerto,la,l,0.8027,,,,,,,,,,,,,,,,,,
,,,,,,78ac0f6de5e916ef1b7d2b63,66a626ef09d4e21e1a8894ec,6735eec3eb205d14d21e4459,2024-11-14_13h37.24.222,Tarea de género gramatical,2024.2.2,MacIntel,60.24096386,,,,,,,,,,,,,,,,,,,,,,,119.3001,120.9306,a,1,[],[],[],[],[],[],[],0.9514,1,120.9307,121.4308,0,13,13,12,1,2013,MAS,AGR,150,acero,el,l,0.9514,,,,,,,,,,,,,,,,,,
,,,,,,78ac0f6de5e916ef1b7d2b63,66a626ef09d4e21e1a8894ec,6735eec3eb205d14d21e4459,2024-11-14_13h37.24.222,Tarea de género gramatical,2024.2.2,MacIntel,60.24096386,,,,,,,,,,,,,,,,,,,,,,,121.4321,122.9812,a,1,[],[],[],[],[],[],[],0.8764,1,122.9813,123.481,0,14,14,10,1,2011,MAS,CON,150,canal,,l,0.8764,,,,,,,,,,,,,,,,,,
,,,,,,78ac0f6de5e916ef1b7d2b63,66a626ef09d4e21e1a8894ec,6735eec3eb205d14d21e4459,2024-11-14_13h37.24.222,Tarea de género gramatical,2024.2.2,MacIntel,60.24096386,,,142.5784,160.2652,space,17.671,,0.048620075,-0.418049423,0,0,0,,,,,,,,,,,160.3112,161.5675,a,1,[],[],[],[],[],[],[],0.5833,1,161.5678,162.0649,,,,,,72,MAS,DIS,150,hoyo,la,l,0.5833,,162.0657,162.0702,0.048620075,-0.418049423,0,0,0,,0,0,0,71,1,,,,
,,,,,,78ac0f6de5e916ef1b7d2b63,66a626ef09d4e21e1a8894ec,6735eec3eb205d14d21e4459,2024-11-14_13h37.24.222,Tarea de género gramatical,2024.2.2,MacIntel,60.24096386,,,,,,,,,,,,,,,,,,,,,,,162.0713,163.2148,l,1,[],[],[],[],[],[],[],0.4678,1,163.2151,163.7149,,,,,,207,FEM,DIS,150,playa,el,a,0.4678,,163.7151,163.7153,0.048620075,-0.418049423,0,0,0,,0,1,1,206,1,,,,
,,,,,,78ac0f6de5e916ef1b7d2b63,66a626ef09d4e21e1a8894ec,6735eec3eb205d14d21e4459,2024-11-14_13h37.24.222,Tarea de género gramatical,2024.2.2,MacIntel,60.24096386,,,,,,,,,,,,,,,,,,,,,,,163.7175,164.8479,a,1,[],[],[],[],[],[],[],0.4525,1,164.848,165.3481,,,,,,126,MAS,DIS,150,lazo,la,l,0.4525,,165.3498,165.351,0.048620075,-0.418049423,0,0,0,,0,2,2,125,1,,,,
,,,,,,78ac0f6de5e916ef1b7d2b63,66a626ef09d4e21e1a8894ec,6735eec3eb205d14d21e4459,2024-11-14_13h37.24.222,Tarea de género gramatical,2024.2.2,MacIntel,60.24096386,,,,,,,,,,,,,,,,,,,,,,,165.3519,166.5312,l,1,[],[],[],[],[],[],[],0.5004,1,166.5313,167.0314,,,,,,265,FEM,AGR,150,rueda,la,a,0.5004,,167.0315,167.0317,0.048620075,-0.418049423,0,0,0,,0,3,3,264,1,,,,
,,,,,,78ac0f6de5e916ef1b7d2b63,66a626ef09d4e21e1a8894ec,6735eec3eb205d14d21e4459,2024-11-14_13h37.24.222,Tarea de género gramatical,2024.2.2,MacIntel,60.24096386,,,,,,,,,,,,,,,,,,,,,,,167.0333,168.2816,a,1,[],[],[],[],[],[],[],0.5698,1,168.2818,168.7814,,,,,,5,MAS,CON,150,tipo,,l,0.5698,,168.7815,168.7816,0.048620075,-0.418049423,0,0,0,,0,4,4,4,1,,,,
,,,,,,78ac0f6de5e916ef1b7d2b63,66a626ef09d4e21e1a8894ec,6735eec3eb205d14d21e4459,2024-11-14_13h37.24.222,Tarea de género gramatical,2024.2.2,MacIntel,60.24096386,,,,,,,,,,,,,,,,,,,,,,,168.7834,170.1648,a,0,[],[],[],[],[],[],[],0.7011,0,170.1666,170.6644,,,,,,285,FEM,DIS,150,mafia,el,a,0.7011,,170.6644,170.6646,0.048620075,-0.418049423,0,0,0,,0,5,5,284,1,,,,
,,,,,,78ac0f6de5e916ef1b7d2b63,66a626ef09d4e21e1a8894ec,6735eec3eb205d14d21e4459,2024-11-14_13h37.24.222,Tarea de género gramatical,2024.2.2,MacIntel,60.24096386,,,,,,,,,,,,,,,,,,,,,,,170.6651,172.5685,l,0,[],[],[],[],[],[],[],1.2327,0,172.5686,173.0649,,,,,,228,MAS,DIS,150,nivel,la,l,1.2327,,173.0672,173.0686,0.048620075,-0.418049423,0,0,0,,0,6,6,227,1,,,,
,,,,,,78ac0f6de5e916ef1b7d2b63,66a626ef09d4e21e1a8894ec,6735eec3eb205d14d21e4459,2024-11-14_13h37.24.222,Tarea de género gramatical,2024.2.2,MacIntel,60.24096386,,,,,,,,,,,,,,,,,,,,,,,173.0695,174.4815,a,0,[],[],[],[],[],[],[],0.735,0,174.4816,174.9817,,,,,,319,FEM,AGR,150,sangre,la,a,0.735,,174.9818,174.982,0.048620075,-0.418049423,0,0,0,,0,7,7,318,1,,,,
,,,,,,78ac0f6de5e916ef1b7d2b63,66a626ef09d4e21e1a8894ec,6735eec3eb205d14d21e4459,2024-11-14_13h37.24.222,Tarea de género gramatical,2024.2.2,MacIntel,60.24096386,,,,,,,,,,,,,,,,,,,,,,,174.984,176.4986,a,1,[],[],[],[],[],[],[],0.8464,1,176.4999,176.998,,,,,,292,MAS,AGR,150,piano,el,l,0.8464,,176.998,176.9982,0.048620075,-0.418049423,0,0,0,,0,8,8,291,1,,,,
,,,,,,78ac0f6de5e916ef1b7d2b63,66a626ef09d4e21e1a8894ec,6735eec3eb205d14d21e4459,2024-11-14_13h37.24.222,Tarea de género gramatical,2024.2.2,MacIntel,60.24096386,,,,,,,,,,,,,,,,,,,,,,,176.9987,178.3149,l,1,[],[],[],[],[],[],[],0.6353,1,178.3151,178.8147,,,,,,127,FEM,AGR,150,cuna,la,a,0.6353,,178.8148,178.8149,0.048620075,-0.418049423,0,0,0,,0,9,9,126,1,,,,
,,,,,,78ac0f6de5e916ef1b7d2b63,66a626ef09d4e21e1a8894ec,6735eec3eb205d14d21e4459,2024-11-14_13h37.24.222,Tarea de género gramatical,2024.2.2,MacIntel,60.24096386,,,,,,,,,,,,,,,,,,,,,,,178.8161,180.0649,a,1,[],[],[],[],[],[],[],0.5666,1,180.0649,180.5676,,,,,,245,MAS,CON,150,turno,,l,0.5666,,180.5677,180.5679,0.048620075,-0.418049423,0,0,0,,0,10,10,244,1,,,,
,,,,,,78ac0f6de5e916ef1b7d2b63,66a626ef09d4e21e1a8894ec,6735eec3eb205d14d21e4459,2024-11-14_13h37.24.222,Tarea de género gramatical,2024.2.2,MacIntel,60.24096386,,,,,,,,,,,,,,,,,,,,,,,180.57,181.7648,l,1,[],[],[],[],[],[],[],0.5184,1,181.765,182.2649,,,,,,141,FEM,DIS,150,cera,el,a,0.5184,,182.2673,182.2686,0.048620075,-0.418049423,0,0,0,,0,11,11,140,1,,,,
,,,,,,78ac0f6de5e916ef1b7d2b63,66a626ef09d4e21e1a8894ec,6735eec3eb205d14d21e4459,2024-11-14_13h37.24.222,Tarea de género gramatical,2024.2.2,MacIntel,60.24096386,,,,,,,,,,,,,,,,,,,,,,,182.2695,183.5485,a,1,[],[],[],[],[],[],[],0.6007,1,183.5486,184.0484,,,,,,197,MAS,CON,150,avión,,l,0.6007,,184.0485,184.0487,0.048620075,-0.418049423,0,0,0,,0,12,12,196,1,,,,
,,,,,,78ac0f6de5e916ef1b7d2b63,66a626ef09d4e21e1a8894ec,6735eec3eb205d14d21e4459,2024-11-14_13h37.24.222,Tarea de género gramatical,2024.2.2,MacIntel,60.24096386,,,,,,,,,,,,,,,,,,,,,,,184.0508,185.2982,l,1,[],[],[],[],[],[],[],0.5672,1,185.2984,185.7979,,,,,,290,FEM,CON,150,cabra,,a,0.5672,,185.7979,185.798,0.048620075,-0.418049423,0,0,0,,0,13,13,289,1,,,,
,,,,,,78ac0f6de5e916ef1b7d2b63,66a626ef09d4e21e1a8894ec,6735eec3eb205d14d21e4459,2024-11-14_13h37.24.222,Tarea de género gramatical,2024.2.2,MacIntel,60.24096386,,,,,,,,,,,,,,,,,,,,,,,185.7987,187.0647,a,1,[],[],[],[],[],[],[],0.5836,1,187.0649,187.5647,,,,,,186,MAS,DIS,150,error,la,l,0.5836,,187.5648,187.5649,0.048620075,-0.418049423,0,0,0,,0,14,14,185,1,,,,
,,,,,,78ac0f6de5e916ef1b7d2b63,66a626ef09d4e21e1a8894ec,6735eec3eb205d14d21e4459,2024-11-14_13h37.24.222,Tarea de género gramatical,2024.2.2,MacIntel,60.24096386,,,,,,,,,,,,,,,,,,,,,,,187.5662,188.9815,l,1,[],[],[],[],[],[],[],0.7331,1,188.9816,189.4816,,,,,,56,FEM,CON,150,bola,,a,0.7331,,189.4842,189.4856,0.048620075,-0.418049423,0,0,0,,0,15,15,55,1,,,,
,,,,,,78ac0f6de5e916ef1b7d2b63,66a626ef09d4e21e1a8894ec,6735eec3eb205d14d21e4459,2024-11-14_13h37.24.222,Tarea de género gramatical,2024.2.2,MacIntel,60.24096386,,,,,,,,,,,,,,,,,,,,,,,189.4863,190.6655,l,1,[],[],[],[],[],[],[],0.5126,1,190.6656,191.1644,,,,,,266,FEM,CON,150,jaula,,a,0.5126,,191.1646,191.1647,0.048620075,-0.418049423,0,0,0,,0,16,16,265,1,,,,
,,,,,,78ac0f6de5e916ef1b7d2b63,66a626ef09d4e21e1a8894ec,6735eec3eb205d14d21e4459,2024-11-14_13h37.24.222,Tarea de género gramatical,2024.2.2,MacIntel,60.24096386,,,,,,,,,,,,,,,,,,,,,,,191.1657,192.4482,a,1,[],[],[],[],[],[],[],0.6012,1,192.4483,192.9482,,,,,,322,MAS,AGR,150,minuto,el,l,0.6012,,192.9483,192.9484,0.048620075,-0.418049423,0,0,0,,0,17,17,321,1,,,,
,,,,,,78ac0f6de5e916ef1b7d2b63,66a626ef09d4e21e1a8894ec,6735eec3eb205d14d21e4459,2024-11-14_13h37.24.222,Tarea de género gramatical,2024.2.2,MacIntel,60.24096386,,,,,,,,,,,,,,,,,,,,,,,192.9504,194.1815,l,0,[],[],[],[],[],[],[],0.5504,0,194.1831,194.6812,,,,,,89,MAS,CON,150,maíz,,l,0.5504,,194.6813,194.6813,0.048620075,-0.418049423,0,0,0,,0,18,18,88,1,,,,
,,,,,,78ac0f6de5e916ef1b7d2b63,66a626ef09d4e21e1a8894ec,6735eec3eb205d14d21e4459,2024-11-14_13h37.24.222,Tarea de género gramatical,2024.2.2,MacIntel,60.24096386,,,,,,,,,,,,,,,,,,,,,,,194.6818,196.2483,l,1,[],[],[],[],[],[],[],0.8842,1,196.2496,196.7475,,,,,,153,FEM,DIS,150,mujer,el,a,0.8842,,196.7476,196.7478,0.048620075,-0.418049423,0,0,0,,0,19,19,152,1,,,,
,,,,,,78ac0f6de5e916ef1b7d2b63,66a626ef09d4e21e1a8894ec,6735eec3eb205d14d21e4459,2024-11-14_13h37.24.222,Tarea de género gramatical,2024.2.2,MacIntel,60.24096386,,,,,,,,,,,,,,,,,,,,,,,196.7492,198.0316,a,1,[],[],[],[],[],[],[],0.6044,1,198.0319,198.5316,,,,,,376,MAS,AGR,150,efecto,el,l,0.6044,,198.5341,198.5354,0.048620075,-0.418049423,0,0,0,,0,20,20,375,1,,,,
,,,,,,78ac0f6de5e916ef1b7d2b63,66a626ef09d4e21e1a8894ec,6735eec3eb205d14d21e4459,2024-11-14_13h37.24.222,Tarea de género gramatical,2024.2.2,MacIntel,60.24096386,,,,,,,,,,,,,,,,,,,,,,,198.5363,199.8648,l,1,[],[],[],[],[],[],[],0.6517,1,199.8649,200.3649,,,,,,343,FEM,AGR,150,trampa,la,a,0.6517,,200.365,200.3652,0.048620075,-0.418049423,0,0,0,,0,21,21,342,1,,,,
,,,,,,78ac0f6de5e916ef1b7d2b63,66a626ef09d4e21e1a8894ec,6735eec3eb205d14d21e4459,2024-11-14_13h37.24.222,Tarea de género gramatical,2024.2.2,MacIntel,60.24096386,,,,,,,,,,,,,,,,,,,,,,,200.3671,201.5815,a,1,[],[],[],[],[],[],[],0.5348,1,201.5817,202.0816,,,,,,406,MAS,AGR,150,premio,el,l,0.5348,,202.0817,202.0819,0.048620075,-0.418049423,0,0,0,,0,22,22,405,1,,,,
,,,,,,78ac0f6de5e916ef1b7d2b63,66a626ef09d4e21e1a8894ec,6735eec3eb205d14d21e4459,2024-11-14_13h37.24.222,Tarea de género gramatical,2024.2.2,MacIntel,60.24096386,,,,,,,,,,,,,,,,,,,,,,,202.0838,203.4311,a,1,[],[],[],[],[],[],[],0.6671,1,203.4311,203.9316,,,,,,48,MAS,DIS,150,loco,la,l,0.6671,,203.9317,203.9318,0.048620075,-0.418049423,0,0,0,,0,23,23,47,1,,,,
,,,,,,78ac0f6de5e916ef1b7d2b63,66a626ef09d4e21e1a8894ec,6735eec3eb205d14d21e4459,2024-11-14_13h37.24.222,Tarea de género gramatical,2024.2.2,MacIntel,60.24096386,,,,,,,,,,,,,,,,,,,,,,,203.9338,205.1311,l,1,[],[],[],[],[],[],[],0.5172,1,205.1313,205.6316,,,,,,397,FEM,AGR,150,cuerda,la,a,0.5172,,205.634,205.6353,0.048620075,-0.418049423,0,0,0,,0,24,24,396,1,,,,
,,,,,,78ac0f6de5e916ef1b7d2b63,66a626ef09d4e21e1a8894ec,6735eec3eb205d14d21e4459,2024-11-14_13h37.24.222,Tarea de género gramatical,2024.2.2,MacIntel,60.24096386,,,,,,,,,,,,,,,,,,,,,,,205.6363,206.8144,l,1,[],[],[],[],[],[],[],0.4992,1,206.8145,207.3147,,,,,,321,FEM,DIS,150,comida,el,a,0.4992,,207.3148,207.315,0.048620075,-0.418049423,0,0,0,,0,25,25,320,1,,,,
,,,,,,78ac0f6de5e916ef1b7d2b63,66a626ef09d4e21e1a8894ec,6735eec3eb205d14d21e4459,2024-11-14_13h37.24.222,Tarea de género gramatical,2024.2.2,MacIntel,60.24096386,,,,,,,,,,,,,,,,,,,,,,,207.3163,208.8313,a,0,[],[],[],[],[],[],[],0.8445,0,208.8326,209.3316,,,,,,38,FEM,CON,150,obra,,a,0.8445,,209.3317,209.3318,0.048620075,-0.418049423,0,0,0,,0,26,26,37,1,,,,
,,,,,,78ac0f6de5e916ef1b7d2b63,66a626ef09d4e21e1a8894ec,6735eec3eb205d14d21e4459,2024-11-14_13h37.24.222,Tarea de género gramatical,2024.2.2,MacIntel,60.24096386,,,,,,,,,,,,,,,,,,,,,,,209.334,210.6978,a,1,[],[],[],[],[],[],[],0.6833,1,210.6986,211.1983,,,,,,124,MAS,AGR,150,clan,el,l,0.6833,,211.1985,211.1986,0.048620075,-0.418049423,0,0,0,,0,27,27,123,1,,,,
,,,,,,78ac0f6de5e916ef1b7d2b63,66a626ef09d4e21e1a8894ec,6735eec3eb205d14d21e4459,2024-11-14_13h37.24.222,Tarea de género gramatical,2024.2.2,MacIntel,60.24096386,,,,,,,,,,,,,,,,,,,,,,,211.2017,212.5682,a,1,[],[],[],[],[],[],[],0.6917,1,212.5706,213.0644,,,,,,204,MAS,DIS,150,papel,la,l,0.6917,,213.0646,213.0647,0.048620075,-0.418049423,0,0,0,,0,28,28,203,1,,,,
,,,,,,78ac0f6de5e916ef1b7d2b63,66a626ef09d4e21e1a8894ec,6735eec3eb205d14d21e4459,2024-11-14_13h37.24.222,Tarea de género gramatical,2024.2.2,MacIntel,60.24096386,,,,,,,,,,,,,,,,,,,,,,,213.0669,214.2645,l,1,[],[],[],[],[],[],[],0.5286,1,214.2646,214.7648,,,,,,440,FEM,CON,150,patada,,a,0.5286,,214.7676,214.7688,0.048620075,-0.418049423,0,0,0,,0,29,29,439,1,,,,
,,,,,,78ac0f6de5e916ef1b7d2b63,66a626ef09d4e21e1a8894ec,6735eec3eb205d14d21e4459,2024-11-14_13h37.24.222,Tarea de género gramatical,2024.2.2,MacIntel,60.24096386,,,,,,,,,,,,,,,,,,,,,,,214.7697,215.9479,a,1,[],[],[],[],[],[],[],0.5078,1,215.9483,216.448,,,,,,125,MAS,CON,150,bate,,l,0.5078,,216.4481,216.4482,0.048620075,-0.418049423,0,0,0,,0,30,30,124,1,,,,
,,,,,,78ac0f6de5e916ef1b7d2b63,66a626ef09d4e21e1a8894ec,6735eec3eb205d14d21e4459,2024-11-14_13h37.24.222,Tarea de género gramatical,2024.2.2,MacIntel,60.24096386,,,,,,,,,,,,,,,,,,,,,,,216.4503,217.6649,a,1,[],[],[],[],[],[],[],0.5336,1,217.6651,218.165,,,,,,220,MAS,AGR,150,huevo,el,l,0.5336,,218.1651,218.1653,0.048620075,-0.418049423,0,0,0,,0,31,31,219,1,,,,
,,,,,,78ac0f6de5e916ef1b7d2b63,66a626ef09d4e21e1a8894ec,6735eec3eb205d14d21e4459,2024-11-14_13h37.24.222,Tarea de género gramatical,2024.2.2,MacIntel,60.24096386,,,,,,,,,,,,,,,,,,,,,,,218.1672,219.448,a,1,[],[],[],[],[],[],[],0.5993,1,219.4481,219.9474,,,,,,420,MAS,DIS,150,helado,la,l,0.5993,,219.9475,219.9477,0.048620075,-0.418049423,0,0,0,,0,32,32,419,1,,,,
,,,,,,78ac0f6de5e916ef1b7d2b63,66a626ef09d4e21e1a8894ec,6735eec3eb205d14d21e4459,2024-11-14_13h37.24.222,Tarea de género gramatical,2024.2.2,MacIntel,60.24096386,,,,,,,,,,,,,,,,,,,,,,,219.9492,221.1811,a,0,[],[],[],[],[],[],[],0.5529,0,221.1819,221.681,,,,,,188,FEM,CON,150,bomba,,a,0.5529,,221.6818,221.6822,0.048620075,-0.418049423,0,0,0,,0,33,33,187,1,,,,
,,,,,,78ac0f6de5e916ef1b7d2b63,66a626ef09d4e21e1a8894ec,6735eec3eb205d14d21e4459,2024-11-14_13h37.24.222,Tarea de género gramatical,2024.2.2,MacIntel,60.24096386,,,,,,,,,,,,,,,,,,,,,,,221.6825,222.9147,l,1,[],[],[],[],[],[],[],0.5484,1,222.916,223.415,,,,,,193,FEM,AGR,150,bolsa,la,a,0.5484,,223.4151,223.4152,0.048620075,-0.418049423,0,0,0,,0,34,34,192,1,,,,
,,,,,,78ac0f6de5e916ef1b7d2b63,66a626ef09d4e21e1a8894ec,6735eec3eb205d14d21e4459,2024-11-14_13h37.24.222,Tarea de género gramatical,2024.2.2,MacIntel,60.24096386,,,,,,,,,,,,,,,,,,,,,,,223.4172,224.5967,a,0,[],[],[],[],[],[],[],0.4999,0,224.5976,225.0982,,,,,,255,FEM,DIS,150,tribu,el,a,0.4999,,225.0984,225.0985,0.048620075,-0.418049423,0,0,0,,0,35,35,254,1,,,,
,,,,,,78ac0f6de5e916ef1b7d2b63,66a626ef09d4e21e1a8894ec,6735eec3eb205d14d21e4459,2024-11-14_13h37.24.222,Tarea de género gramatical,2024.2.2,MacIntel,60.24096386,,,,,,,,,,,,,,,,,,,,,,,225.1006,226.298,l,1,[],[],[],[],[],[],[],0.5227,1,226.2989,226.7971,,,,,,219,FEM,DIS,150,costa,el,a,0.5227,,226.7973,226.7974,0.048620075,-0.418049423,0,0,0,,0,36,36,218,1,,,,
,,,,,,78ac0f6de5e916ef1b7d2b63,66a626ef09d4e21e1a8894ec,6735eec3eb205d14d21e4459,2024-11-14_13h37.24.222,Tarea de género gramatical,2024.2.2,MacIntel,60.24096386,,,,,,,,,,,,,,,,,,,,,,,226.7989,228.3304,a,1,[],[],[],[],[],[],[],0.8651,1,228.3305,228.8309,,,,,,162,MAS,DIS,150,miedo,la,l,0.8651,,228.8311,228.8313,0.048620075,-0.418049423,0,0,0,,0,37,37,161,1,,,,
,,,,,,78ac0f6de5e916ef1b7d2b63,66a626ef09d4e21e1a8894ec,6735eec3eb205d14d21e4459,2024-11-14_13h37.24.222,Tarea de género gramatical,2024.2.2,MacIntel,60.24096386,,,,,,,,,,,,,,,,,,,,,,,228.8335,230.0815,l,0,[],[],[],[],[],[],[],0.568,0,230.0829,230.5802,,,,,,300,MAS,DIS,150,túnel,la,l,0.568,,230.5814,230.5821,0.048620075,-0.418049423,0,0,0,,0,38,38,299,1,,,,
,,,,,,78ac0f6de5e916ef1b7d2b63,66a626ef09d4e21e1a8894ec,6735eec3eb205d14d21e4459,2024-11-14_13h37.24.222,Tarea de género gramatical,2024.2.2,MacIntel,60.24096386,,,,,,,,,,,,,,,,,,,,,,,230.5826,232.0482,a,1,[],[],[],[],[],[],[],0.7859,1,232.0495,232.5482,,,,,,252,MAS,DIS,150,viejo,la,l,0.7859,,232.5483,232.5484,0.048620075,-0.418049423,0,0,0,,0,39,39,251,1,,,,
,,,,,,78ac0f6de5e916ef1b7d2b63,66a626ef09d4e21e1a8894ec,6735eec3eb205d14d21e4459,2024-11-14_13h37.24.222,Tarea de género gramatical,2024.2.2,MacIntel,60.24096386,,,,,,,,,,,,,,,,,,,,,,,232.5497,233.6311,a,1,[],[],[],[],[],[],[],0.3964,1,233.6312,234.1313,,,,,,268,MAS,AGR,150,truco,el,l,0.3964,,234.1314,234.1315,0.048620075,-0.418049423,0,0,0,,0,40,40,267,1,,,,
,,,,,,78ac0f6de5e916ef1b7d2b63,66a626ef09d4e21e1a8894ec,6735eec3eb205d14d21e4459,2024-11-14_13h37.24.222,Tarea de género gramatical,2024.2.2,MacIntel,60.24096386,,,,,,,,,,,,,,,,,,,,,,,234.1333,235.3483,l,1,[],[],[],[],[],[],[],0.5512,1,235.3485,235.8471,,,,,,211,FEM,AGR,150,salud,la,a,0.5512,,235.8472,235.8473,0.048620075,-0.418049423,0,0,0,,0,41,41,210,1,,,,
,,,,,,78ac0f6de5e916ef1b7d2b63,66a626ef09d4e21e1a8894ec,6735eec3eb205d14d21e4459,2024-11-14_13h37.24.222,Tarea de género gramatical,2024.2.2,MacIntel,60.24096386,,,,,,,,,,,,,,,,,,,,,,,235.8491,237.331,a,0,[],[],[],[],[],[],[],0.8011,0,237.3324,237.8305,,,,,,247,FEM,AGR,150,frase,la,a,0.8011,,237.8328,237.8342,0.048620075,-0.418049423,0,0,0,,0,42,42,246,1,,,,
,,,,,,78ac0f6de5e916ef1b7d2b63,66a626ef09d4e21e1a8894ec,6735eec3eb205d14d21e4459,2024-11-14_13h37.24.222,Tarea de género gramatical,2024.2.2,MacIntel,60.24096386,,,,,,,,,,,,,,,,,,,,,,,237.8353,239.1149,a,0,[],[],[],[],[],[],[],0.6036,0,239.1151,239.6143,,,,,,249,FEM,DIS,150,crema,el,a,0.6036,,239.6143,239.6143,0.048620075,-0.418049423,0,0,0,,0,43,43,248,1,,,,
,,,,,,78ac0f6de5e916ef1b7d2b63,66a626ef09d4e21e1a8894ec,6735eec3eb205d14d21e4459,2024-11-14_13h37.24.222,Tarea de género gramatical,2024.2.2,MacIntel,60.24096386,,,,,,,,,,,,,,,,,,,,,,,239.6149,240.8637,l,1,[],[],[],[],[],[],[],0.5665,1,240.8648,241.3648,,,,,,133,FEM,AGR,150,joya,la,a,0.5665,,241.365,241.3652,0.048620075,-0.418049423,0,0,0,,0,44,44,132,1,,,,
,,,,,,78ac0f6de5e916ef1b7d2b63,66a626ef09d4e21e1a8894ec,6735eec3eb205d14d21e4459,2024-11-14_13h37.24.222,Tarea de género gramatical,2024.2.2,MacIntel,60.24096386,,,,,,,,,,,,,,,,,,,,,,,241.3672,242.5967,a,1,[],[],[],[],[],[],[],0.5526,1,242.5968,243.098,,,,,,318,MAS,DIS,150,pueblo,la,l,0.5526,,243.0982,243.0983,0.048620075,-0.418049423,0,0,0,,0,45,45,317,1,,,,
,,,,,,78ac0f6de5e916ef1b7d2b63,66a626ef09d4e21e1a8894ec,6735eec3eb205d14d21e4459,2024-11-14_13h37.24.222,Tarea de género gramatical,2024.2.2,MacIntel,60.24096386,,,,,,,,,,,,,,,,,,,,,,,243.0998,244.1981,l,1,[],[],[],[],[],[],[],0.4156,1,244.1982,244.697,,,,,,332,FEM,CON,150,basura,,a,0.4156,,244.6972,244.6974,0.048620075,-0.418049423,0,0,0,,0,46,46,331,1,,,,
,,,,,,78ac0f6de5e916ef1b7d2b63,66a626ef09d4e21e1a8894ec,6735eec3eb205d14d21e4459,2024-11-14_13h37.24.222,Tarea de género gramatical,2024.2.2,MacIntel,60.24096386,,,,,,,,,,,,,,,,,,,,,,,244.6987,245.9805,a,1,[],[],[],[],[],[],[],0.6255,1,245.9806,246.4814,,,,,,100,MAS,AGR,150,nido,el,l,0.6255,,246.4833,246.4846,0.048620075,-0.418049423,0,0,0,,0,47,47,99,1,,,,
,,,,,,78ac0f6de5e916ef1b7d2b63,66a626ef09d4e21e1a8894ec,6735eec3eb205d14d21e4459,2024-11-14_13h37.24.222,Tarea de género gramatical,2024.2.2,MacIntel,60.24096386,,,,,,,,,,,,,,,,,,,,,,,246.4857,247.6648,a,1,[],[],[],[],[],[],[],0.5012,1,247.6648,248.1648,,,,,,138,MAS,DIS,150,luto,la,l,0.5012,,248.1648,248.165,0.048620075,-0.418049423,0,0,0,,0,48,48,137,1,,,,
,,,,,,78ac0f6de5e916ef1b7d2b63,66a626ef09d4e21e1a8894ec,6735eec3eb205d14d21e4459,2024-11-14_13h37.24.222,Tarea de género gramatical,2024.2.2,MacIntel,60.24096386,,,,,,,,,,,,,,,,,,,,,,,248.1666,249.2804,a,1,[],[],[],[],[],[],[],0.4346,1,249.2806,249.7806,,,,,,436,MAS,AGR,150,objeto,el,l,0.4346,,249.7808,249.781,0.048620075,-0.418049423,0,0,0,,0,49,49,435,1,,,,
,,,,,,78ac0f6de5e916ef1b7d2b63,66a626ef09d4e21e1a8894ec,6735eec3eb205d14d21e4459,2024-11-14_13h37.24.222,Tarea de género gramatical,2024.2.2,MacIntel,60.24096386,,,,,,,,,,,,,,,,,,,,,,,249.7829,250.8651,a,1,[],[],[],[],[],[],[],0.4122,1,250.8653,251.3648,,,,,,160,MAS,AGR,150,señor,el,l,0.4122,,251.3648,251.365,0.048620075,-0.418049423,0,0,0,,0,50,50,159,1,,,,
,,,,,,78ac0f6de5e916ef1b7d2b63,66a626ef09d4e21e1a8894ec,6735eec3eb205d14d21e4459,2024-11-14_13h37.24.222,Tarea de género gramatical,2024.2.2,MacIntel,60.24096386,,,,,,,,,,,,,,,,,,,,,,,251.3667,252.4979,l,1,[],[],[],[],[],[],[],0.4535,1,252.4981,252.9985,,,,,,63,FEM,DIS,150,fila,el,a,0.4535,,253.0006,253.002,0.048620075,-0.418049423,0,0,0,,0,51,51,62,1,,,,
,,,,,,78ac0f6de5e916ef1b7d2b63,66a626ef09d4e21e1a8894ec,6735eec3eb205d14d21e4459,2024-11-14_13h37.24.222,Tarea de género gramatical,2024.2.2,MacIntel,60.24096386,,,,,,,,,,,,,,,,,,,,,,,253.0028,254.2473,l,1,[],[],[],[],[],[],[],0.5663,1,254.2474,254.7477,,,,,,445,FEM,AGR,150,bondad,la,a,0.5663,,254.7478,254.7479,0.048620075,-0.418049423,0,0,0,,0,52,52,444,1,,,,
,,,,,,78ac0f6de5e916ef1b7d2b63,66a626ef09d4e21e1a8894ec,6735eec3eb205d14d21e4459,2024-11-14_13h37.24.222,Tarea de género gramatical,2024.2.2,MacIntel,60.24096386,,,,,,,,,,,,,,,,,,,,,,,254.7484,255.9139,a,1,[],[],[],[],[],[],[],0.4946,1,255.9141,256.4148,,,,,,24,MAS,DIS,150,voto,la,l,0.4946,,256.415,256.4151,0.048620075,-0.418049423,0,0,0,,0,53,53,23,1,,,,
,,,,,,78ac0f6de5e916ef1b7d2b63,66a626ef09d4e21e1a8894ec,6735eec3eb205d14d21e4459,2024-11-14_13h37.24.222,Tarea de género gramatical,2024.2.2,MacIntel,60.24096386,,,,,,,,,,,,,,,,,,,,,,,256.4167,257.5478,l,1,[],[],[],[],[],[],[],0.4524,1,257.5479,258.0482,,,,,,145,FEM,AGR,150,bota,la,a,0.4524,,258.0483,258.0485,0.048620075,-0.418049423,0,0,0,,0,54,54,144,1,,,,
,,,,,,78ac0f6de5e916ef1b7d2b63,66a626ef09d4e21e1a8894ec,6735eec3eb205d14d21e4459,2024-11-14_13h37.24.222,Tarea de género gramatical,2024.2.2,MacIntel,60.24096386,,,,,,,,,,,,,,,,,,,,,,,258.0502,259.1814,a,1,[],[],[],[],[],[],[],0.4504,1,259.1816,259.6805,,,,,,143,MAS,CON,150,faro,,l,0.4504,,259.6806,259.6807,0.048620075,-0.418049423,0,0,0,,0,55,55,142,1,,,,
,,,,,,78ac0f6de5e916ef1b7d2b63,66a626ef09d4e21e1a8894ec,6735eec3eb205d14d21e4459,2024-11-14_13h37.24.222,Tarea de género gramatical,2024.2.2,MacIntel,60.24096386,,,,,,,,,,,,,,,,,,,,,,,259.6818,260.7801,l,1,[],[],[],[],[],[],[],0.4437,1,260.7801,261.2804,,,,,,295,FEM,AGR,150,grasa,la,a,0.4437,,261.2811,261.2815,0.048620075,-0.418049423,0,0,0,,0,56,56,294,1,,,,
,,,,,,78ac0f6de5e916ef1b7d2b63,66a626ef09d4e21e1a8894ec,6735eec3eb205d14d21e4459,2024-11-14_13h37.24.222,Tarea de género gramatical,2024.2.2,MacIntel,60.24096386,,,,,,,,,,,,,,,,,,,,,,,261.2817,262.4806,a,1,[],[],[],[],[],[],[],0.5164,1,262.4808,262.9815,,,,,,390,MAS,DIS,150,rostro,la,l,0.5164,,262.9817,262.9819,0.048620075,-0.418049423,0,0,0,,0,57,57,389,1,,,,
,,,,,,78ac0f6de5e916ef1b7d2b63,66a626ef09d4e21e1a8894ec,6735eec3eb205d14d21e4459,2024-11-14_13h37.24.222,Tarea de género gramatical,2024.2.2,MacIntel,60.24096386,,,,,,,,,,,,,,,,,,,,,,,262.9836,264.1481,a,1,[],[],[],[],[],[],[],0.4863,1,264.1483,264.6482,,,,,,274,MAS,AGR,150,motor,el,l,0.4863,,264.6482,264.6484,0.048620075,-0.418049423,0,0,0,,0,58,58,273,1,,,,
,,,,,,78ac0f6de5e916ef1b7d2b63,66a626ef09d4e21e1a8894ec,6735eec3eb205d14d21e4459,2024-11-14_13h37.24.222,Tarea de género gramatical,2024.2.2,MacIntel,60.24096386,,,,,,,,,,,,,,,,,,,,,,,264.6505,265.6638,l,1,[],[],[],[],[],[],[],0.3338,1,265.6639,266.1647,,,,,,379,FEM,AGR,150,granja,la,a,0.3338,,266.1649,266.165,0.048620075,-0.418049423,0,0,0,,0,59,59,378,1,,,,
,,,,,,78ac0f6de5e916ef1b7d2b63,66a626ef09d4e21e1a8894ec,6735eec3eb205d14d21e4459,2024-11-14_13h37.24.222,Tarea de género gramatical,2024.2.2,MacIntel,60.24096386,,,,,,,,,,,,,,,,,,,,,,,266.1659,267.2812,l,1,[],[],[],[],[],[],[],0.4335,1,267.2813,267.7815,,,,,,375,FEM,DIS,150,cadena,el,a,0.4335,,267.7835,267.785,0.048620075,-0.418049423,0,0,0,,0,60,60,374,1,,,,
,,,,,,78ac0f6de5e916ef1b7d2b63,66a626ef09d4e21e1a8894ec,6735eec3eb205d14d21e4459,2024-11-14_13h37.24.222,Tarea de género gramatical,2024.2.2,MacIntel,60.24096386,,,,,,,,,,,,,,,,,,,,,,,267.7857,268.847,a,1,[],[],[],[],[],[],[],0.3944,1,268.8471,269.3482,,,,,,226,MAS,AGR,150,color,el,l,0.3944,,269.3484,269.3486,0.048620075,-0.418049423,0,0,0,,0,61,61,225,1,,,,
,,,,,,78ac0f6de5e916ef1b7d2b63,66a626ef09d4e21e1a8894ec,6735eec3eb205d14d21e4459,2024-11-14_13h37.24.222,Tarea de género gramatical,2024.2.2,MacIntel,60.24096386,,,,,,,,,,,,,,,,,,,,,,,269.3503,270.4978,l,1,[],[],[],[],[],[],[],0.4676,1,270.498,270.998,,,,,,416,FEM,CON,150,colina,,a,0.4676,,270.9981,270.9983,0.048620075,-0.418049423,0,0,0,,0,62,62,415,1,,,,
,,,,,,78ac0f6de5e916ef1b7d2b63,66a626ef09d4e21e1a8894ec,6735eec3eb205d14d21e4459,2024-11-14_13h37.24.222,Tarea de género gramatical,2024.2.2,MacIntel,60.24096386,,,,,,,,,,,,,,,,,,,,,,,270.9997,272.0978,a,1,[],[],[],[],[],[],[],0.4194,1,272.0979,272.5988,,,,,,60,MAS,DIS,150,tono,la,l,0.4194,,272.5992,272.5996,0.048620075,-0.418049423,0,0,0,,0,63,63,59,1,,,,
,,,,,,78ac0f6de5e916ef1b7d2b63,66a626ef09d4e21e1a8894ec,6735eec3eb205d14d21e4459,2024-11-14_13h37.24.222,Tarea de género gramatical,2024.2.2,MacIntel,60.24096386,,,,,,,,,,,,,,,,,,,,,,,272.6053,273.5982,l,1,[],[],[],[],[],[],[],0.3288,1,273.5983,274.0971,,,,,,325,FEM,AGR,150,tierra,la,a,0.3288,,274.0972,274.0973,0.048620075,-0.418049423,0,0,0,,0,64,64,324,1,,,,
,,,,,,78ac0f6de5e916ef1b7d2b63,66a626ef09d4e21e1a8894ec,6735eec3eb205d14d21e4459,2024-11-14_13h37.24.222,Tarea de género gramatical,2024.2.2,MacIntel,60.24096386,,,,,,,,,,,,,,,,,,,,,,,274.0987,275.1481,l,1,[],[],[],[],[],[],[],0.3941,1,275.1483,275.6468,,,,,,446,FEM,CON,150,bañera,,a,0.3941,,275.6479,275.649,0.048620075,-0.418049423,0,0,0,,0,65,65,445,1,,,,
,,,,,,78ac0f6de5e916ef1b7d2b63,66a626ef09d4e21e1a8894ec,6735eec3eb205d14d21e4459,2024-11-14_13h37.24.222,Tarea de género gramatical,2024.2.2,MacIntel,60.24096386,,,,,,,,,,,,,,,,,,,,,,,275.6496,277.0987,a,0,[],[],[],[],[],[],[],0.7793,0,277.1,277.5971,,,,,,7,FEM,AGR,150,hora,la,a,0.7793,,277.5972,277.5973,0.048620075,-0.418049423,0,0,0,,0,66,66,6,1,,,,
,,,,,,78ac0f6de5e916ef1b7d2b63,66a626ef09d4e21e1a8894ec,6735eec3eb205d14d21e4459,2024-11-14_13h37.24.222,Tarea de género gramatical,2024.2.2,MacIntel,60.24096386,,,,,,,,,,,,,,,,,,,,,,,277.5991,278.8314,l,1,[],[],[],[],[],[],[],0.5516,1,278.8328,279.3316,,,,,,283,FEM,AGR,150,pluma,la,a,0.5516,,279.3316,279.3318,0.048620075,-0.418049423,0,0,0,,0,67,67,282,1,,,,
,,,,,,78ac0f6de5e916ef1b7d2b63,66a626ef09d4e21e1a8894ec,6735eec3eb205d14d21e4459,2024-11-14_13h37.24.222,Tarea de género gramatical,2024.2.2,MacIntel,60.24096386,,,,,,,,,,,,,,,,,,,,,,,279.3337,280.5673,l,1,[],[],[],[],[],[],[],0.5648,1,280.5674,281.0639,,,,,,121,FEM,AGR,150,pila,la,a,0.5648,,281.064,281.0642,0.048620075,-0.418049423,0,0,0,,0,68,68,120,1,,,,
,,,,,,78ac0f6de5e916ef1b7d2b63,66a626ef09d4e21e1a8894ec,6735eec3eb205d14d21e4459,2024-11-14_13h37.24.222,Tarea de género gramatical,2024.2.2,MacIntel,60.24096386,,,,,,,,,,,,,,,,,,,,,,,281.0661,282.2146,l,1,[],[],[],[],[],[],[],0.4788,1,282.2148,282.7149,,,,,,171,FEM,DIS,150,mitad,el,a,0.4788,,282.7171,282.7191,0.048620075,-0.418049423,0,0,0,,0,69,69,170,1,,,,
,,,,,,78ac0f6de5e916ef1b7d2b63,66a626ef09d4e21e1a8894ec,6735eec3eb205d14d21e4459,2024-11-14_13h37.24.222,Tarea de género gramatical,2024.2.2,MacIntel,60.24096386,,,,,,,,,,,,,,,,,,,,,,,282.7201,283.8813,a,1,[],[],[],[],[],[],[],0.483,1,283.8814,284.3815,,,,,,216,MAS,DIS,150,éxito,la,l,0.483,,284.3816,284.3818,0.048620075,-0.418049423,0,0,0,,0,70,70,215,1,,,,
,,,,,,78ac0f6de5e916ef1b7d2b63,66a626ef09d4e21e1a8894ec,6735eec3eb205d14d21e4459,2024-11-14_13h37.24.222,Tarea de género gramatical,2024.2.2,MacIntel,60.24096386,,,,,,,,,,,,,,,,,,,,,,,284.3835,285.5147,a,1,[],[],[],[],[],[],[],0.4516,1,285.5149,286.0148,,,,,,257,MAS,CON,150,pecho,,l,0.4516,,286.015,286.0151,0.048620075,-0.418049423,0,0,0,,0,71,71,256,1,,,,
,,,,,,78ac0f6de5e916ef1b7d2b63,66a626ef09d4e21e1a8894ec,6735eec3eb205d14d21e4459,2024-11-14_13h37.24.222,Tarea de género gramatical,2024.2.2,MacIntel,60.24096386,,,,,,,,,,,,,,,,,,,,,,,286.0166,287.3314,a,1,[],[],[],[],[],[],[],0.6322,1,287.3315,287.831,,,,,,449,MAS,CON,150,payaso,,l,0.6322,,287.8311,287.8312,0.048620075,-0.418049423,0,0,0,,0,72,72,448,1,,,,
,,,,,,78ac0f6de5e916ef1b7d2b63,66a626ef09d4e21e1a8894ec,6735eec3eb205d14d21e4459,2024-11-14_13h37.24.222,Tarea de género gramatical,2024.2.2,MacIntel,60.24096386,,,,,,,,,,,,,,,,,,,,,,,287.833,288.898,a,1,[],[],[],[],[],[],[],0.3823,1,288.8981,289.3982,,,,,,203,MAS,CON,150,novio,,l,0.3823,,289.3983,289.3984,0.048620075,-0.418049423,0,0,0,,0,73,73,202,1,,,,
,,,,,,78ac0f6de5e916ef1b7d2b63,66a626ef09d4e21e1a8894ec,6735eec3eb205d14d21e4459,2024-11-14_13h37.24.222,Tarea de género gramatical,2024.2.2,MacIntel,60.24096386,,,,,,,,,,,,,,,,,,,,,,,289.4003,290.5637,a,1,[],[],[],[],[],[],[],0.4835,1,290.5639,291.0646,,,,,,202,MAS,AGR,150,honor,el,l,0.4835,,291.0662,291.0674,0.048620075,-0.418049423,0,0,0,,0,74,74,201,1,,,,
,,,,,,78ac0f6de5e916ef1b7d2b63,66a626ef09d4e21e1a8894ec,6735eec3eb205d14d21e4459,2024-11-14_13h37.24.222,Tarea de género gramatical,2024.2.2,MacIntel,60.24096386,,,,,,,,,,,,,,,,,,,,,,,291.0683,292.1642,l,1,[],[],[],[],[],[],[],0.4178,1,292.1643,292.6647,,,,,,158,FEM,CON,150,chica,,a,0.4178,,292.6648,292.665,0.048620075,-0.418049423,0,0,0,,0,75,75,157,1,,,,
,,,,,,78ac0f6de5e916ef1b7d2b63,66a626ef09d4e21e1a8894ec,6735eec3eb205d14d21e4459,2024-11-14_13h37.24.222,Tarea de género gramatical,2024.2.2,MacIntel,60.24096386,,,,,,,,,,,,,,,,,,,,,,,292.6666,293.8148,a,1,[],[],[],[],[],[],[],0.4674,1,293.815,294.3138,,,,,,41,MAS,CON,150,bote,,l,0.4674,,294.314,294.314,0.048620075,-0.418049423,0,0,0,,0,76,76,40,1,,,,
,,,,,,78ac0f6de5e916ef1b7d2b63,66a626ef09d4e21e1a8894ec,6735eec3eb205d14d21e4459,2024-11-14_13h37.24.222,Tarea de género gramatical,2024.2.2,MacIntel,60.24096386,,,,,,,,,,,,,,,,,,,,,,,294.3156,295.3308,l,1,[],[],[],[],[],[],[],0.3333,1,295.331,295.8314,,,,,,62,FEM,CON,150,sopa,,a,0.3333,,295.8315,295.8316,0.048620075,-0.418049423,0,0,0,,0,77,77,61,1,,,,
,,,,,,78ac0f6de5e916ef1b7d2b63,66a626ef09d4e21e1a8894ec,6735eec3eb205d14d21e4459,2024-11-14_13h37.24.222,Tarea de género gramatical,2024.2.2,MacIntel,60.24096386,,,,,,,,,,,,,,,,,,,,,,,295.8333,296.9814,a,1,[],[],[],[],[],[],[],0.4684,1,296.9817,297.4804,,,,,,54,MAS,DIS,150,humo,la,l,0.4684,,297.4823,297.4836,0.048620075,-0.418049423,0,0,0,,0,78,78,53,1,,,,
,,,,,,78ac0f6de5e916ef1b7d2b63,66a626ef09d4e21e1a8894ec,6735eec3eb205d14d21e4459,2024-11-14_13h37.24.222,Tarea de género gramatical,2024.2.2,MacIntel,60.24096386,,,,,,,,,,,,,,,,,,,,,,,297.4847,298.7305,l,1,[],[],[],[],[],[],[],0.5676,1,298.7307,299.2305,,,,,,75,FEM,DIS,150,caza,el,a,0.5676,,299.2307,299.2309,0.048620075,-0.418049423,0,0,0,,0,79,79,74,1,,,,
,,,,,,78ac0f6de5e916ef1b7d2b63,66a626ef09d4e21e1a8894ec,6735eec3eb205d14d21e4459,2024-11-14_13h37.24.222,Tarea de género gramatical,2024.2.2,MacIntel,60.24096386,,,,,,,,,,,,,,,,,,,,,,,299.2326,300.6304,a,1,[],[],[],[],[],[],[],0.7291,1,300.6306,301.1315,,,,,,377,MAS,CON,150,jardín,,l,0.7291,,301.1317,301.1318,0.048620075,-0.418049423,0,0,0,,0,80,80,376,1,,,,
,,,,,,78ac0f6de5e916ef1b7d2b63,66a626ef09d4e21e1a8894ec,6735eec3eb205d14d21e4459,2024-11-14_13h37.24.222,Tarea de género gramatical,2024.2.2,MacIntel,60.24096386,,,,,,,,,,,,,,,,,,,,,,,301.1334,302.2147,a,0,[],[],[],[],[],[],[],0.4019,0,302.2163,302.7133,,,,,,80,FEM,CON,150,vaca,,a,0.4019,,302.7134,302.7135,0.048620075,-0.418049423,0,0,0,,0,81,81,79,1,,,,
,,,,,,78ac0f6de5e916ef1b7d2b63,66a626ef09d4e21e1a8894ec,6735eec3eb205d14d21e4459,2024-11-14_13h37.24.222,Tarea de género gramatical,2024.2.2,MacIntel,60.24096386,,,,,,,,,,,,,,,,,,,,,,,302.714,303.8318,l,1,[],[],[],[],[],[],[],0.4623,1,303.8327,304.3306,,,,,,224,FEM,CON,150,arena,,a,0.4623,,304.3307,304.3308,0.048620075,-0.418049423,0,0,0,,0,82,82,223,1,,,,
,,,,,,78ac0f6de5e916ef1b7d2b63,66a626ef09d4e21e1a8894ec,6735eec3eb205d14d21e4459,2024-11-14_13h37.24.222,Tarea de género gramatical,2024.2.2,MacIntel,60.24096386,,,,,,,,,,,,,,,,,,,,,,,304.3323,305.4648,l,1,[],[],[],[],[],[],[],0.4531,1,305.4649,305.965,,,,,,157,FEM,AGR,150,madre,la,a,0.4531,,305.9671,305.9686,0.048620075,-0.418049423,0,0,0,,0,83,83,156,1,,,,
,,,,,,78ac0f6de5e916ef1b7d2b63,66a626ef09d4e21e1a8894ec,6735eec3eb205d14d21e4459,2024-11-14_13h37.24.222,Tarea de género gramatical,2024.2.2,MacIntel,60.24096386,,,,,,,,,,,,,,,,,,,,,,,305.9695,307.0315,l,1,[],[],[],[],[],[],[],0.3949,1,307.0317,307.5317,,,,,,3,FEM,DIS,150,cosa,el,a,0.3949,,307.5317,307.5319,0.048620075,-0.418049423,0,0,0,,0,84,84,2,1,,,,
,,,,,,78ac0f6de5e916ef1b7d2b63,66a626ef09d4e21e1a8894ec,6735eec3eb205d14d21e4459,2024-11-14_13h37.24.222,Tarea de género gramatical,2024.2.2,MacIntel,60.24096386,,,,,,,,,,,,,,,,,,,,,,,307.5337,308.5639,l,1,[],[],[],[],[],[],[],0.3516,1,308.564,309.0638,,,,,,297,FEM,DIS,150,manta,el,a,0.3516,,309.0638,309.064,0.048620075,-0.418049423,0,0,0,,0,85,85,296,1,,,,
,,,,,,78ac0f6de5e916ef1b7d2b63,66a626ef09d4e21e1a8894ec,6735eec3eb205d14d21e4459,2024-11-14_13h37.24.222,Tarea de género gramatical,2024.2.2,MacIntel,60.24096386,,,,,,,,,,,,,,,,,,,,,,,309.0665,310.3481,l,0,[],[],[],[],[],[],[],0.6177,0,310.3495,310.8482,,,,,,366,MAS,DIS,150,riesgo,la,l,0.6177,,310.8483,310.8485,0.048620075,-0.418049423,0,0,0,,0,86,86,365,1,,,,
,,,,,,78ac0f6de5e916ef1b7d2b63,66a626ef09d4e21e1a8894ec,6735eec3eb205d14d21e4459,2024-11-14_13h37.24.222,Tarea de género gramatical,2024.2.2,MacIntel,60.24096386,,,,,,,,,,,,,,,,,,,,,,,310.8504,311.9814,a,1,[],[],[],[],[],[],[],0.4512,1,311.9825,312.4803,,,,,,442,MAS,AGR,150,cuadro,el,l,0.4512,,312.482,312.4834,0.048620075,-0.418049423,0,0,0,,0,87,87,441,1,,,,
,,,,,,78ac0f6de5e916ef1b7d2b63,66a626ef09d4e21e1a8894ec,6735eec3eb205d14d21e4459,2024-11-14_13h37.24.222,Tarea de género gramatical,2024.2.2,MacIntel,60.24096386,,,,,,,,,,,,,,,,,,,,,,,312.4844,313.5971,l,1,[],[],[],[],[],[],[],0.4343,1,313.5973,314.0981,,,,,,20,FEM,CON,150,ropa,,a,0.4343,,314.0981,314.0982,0.048620075,-0.418049423,0,0,0,,0,88,88,19,1,,,,
,,,,,,78ac0f6de5e916ef1b7d2b63,66a626ef09d4e21e1a8894ec,6735eec3eb205d14d21e4459,2024-11-14_13h37.24.222,Tarea de género gramatical,2024.2.2,MacIntel,60.24096386,,,,,,,,,,,,,,,,,,,,,,,314.0997,315.3481,a,0,[],[],[],[],[],[],[],0.5692,0,315.3495,315.8478,,,,,,99,FEM,DIS,150,fase,el,a,0.5692,,315.8478,315.848,0.048620075,-0.418049423,0,0,0,,0,89,89,98,1,,,,
,,,,,,78ac0f6de5e916ef1b7d2b63,66a626ef09d4e21e1a8894ec,6735eec3eb205d14d21e4459,2024-11-14_13h37.24.222,Tarea de género gramatical,2024.2.2,MacIntel,60.24096386,,,,,,,,,,,,,,,,,,,,,,,315.8489,317.1312,a,1,[],[],[],[],[],[],[],0.609,1,317.1322,317.6313,,,,,,359,MAS,CON,150,bosque,,l,0.609,,317.6314,317.6315,0.048620075,-0.418049423,0,0,0,,0,90,90,358,1,,,,
,,,,,,78ac0f6de5e916ef1b7d2b63,66a626ef09d4e21e1a8894ec,6735eec3eb205d14d21e4459,2024-11-14_13h37.24.222,Tarea de género gramatical,2024.2.2,MacIntel,60.24096386,,,,,,,,,,,,,,,,,,,,,,,317.6324,318.8318,a,1,[],[],[],[],[],[],[],0.5192,1,318.832,319.3442,,,,,,101,MAS,CON,150,giro,,l,0.5192,,319.3444,319.3445,0.048620075,-0.418049423,0,0,0,,0,91,91,100,1,,,,
,,,,,,78ac0f6de5e916ef1b7d2b63,66a626ef09d4e21e1a8894ec,6735eec3eb205d14d21e4459,2024-11-14_13h37.24.222,Tarea de género gramatical,2024.2.2,MacIntel,60.24096386,,,,,,,,,,,,,,,,,,,,,,,319.3458,320.4805,a,1,[],[],[],[],[],[],[],0.468,1,320.4806,320.9803,,,,,,316,MAS,AGR,150,cuerpo,el,l,0.468,,320.9812,320.9819,0.048620075,-0.418049423,0,0,0,,0,92,92,315,1,,,,
,,,,,,78ac0f6de5e916ef1b7d2b63,66a626ef09d4e21e1a8894ec,6735eec3eb205d14d21e4459,2024-11-14_13h37.24.222,Tarea de género gramatical,2024.2.2,MacIntel,60.24096386,,,,,,,,,,,,,,,,,,,,,,,320.9823,322.1139,a,1,[],[],[],[],[],[],[],0.4612,1,322.1139,322.6149,,,,,,430,MAS,AGR,150,título,el,l,0.4612,,322.615,322.6152,0.048620075,-0.418049423,0,0,0,,0,93,93,429,1,,,,
,,,,,,78ac0f6de5e916ef1b7d2b63,66a626ef09d4e21e1a8894ec,6735eec3eb205d14d21e4459,2024-11-14_13h37.24.222,Tarea de género gramatical,2024.2.2,MacIntel,60.24096386,,,,,,,,,,,,,,,,,,,,,,,322.6173,323.7575,l,1,[],[],[],[],[],[],[],0.4732,1,323.7577,324.2481,,,,,,21,FEM,DIS,150,boca,el,a,0.4732,,324.2483,324.2484,0.048620075,-0.418049423,0,0,0,,0,94,94,20,1,,,,
,,,,,,78ac0f6de5e916ef1b7d2b63,66a626ef09d4e21e1a8894ec,6735eec3eb205d14d21e4459,2024-11-14_13h37.24.222,Tarea de género gramatical,2024.2.2,MacIntel,60.24096386,,,,,,,,,,,,,,,,,,,,,,,324.2495,325.648,a,0,[],[],[],[],[],[],[],0.72,0,325.6494,326.1481,,,,,,367,FEM,AGR,150,teoría,la,a,0.72,,326.1483,326.1485,0.048620075,-0.418049423,0,0,0,,0,95,95,366,1,,,,
,,,,,,78ac0f6de5e916ef1b7d2b63,66a626ef09d4e21e1a8894ec,6735eec3eb205d14d21e4459,2024-11-14_13h37.24.222,Tarea de género gramatical,2024.2.2,MacIntel,60.24096386,,,,,,,,,,,,,,,,,,,,,,,326.1503,327.3148,a,1,[],[],[],[],[],[],[],0.4854,1,327.3162,327.8148,,,,,,71,MAS,CON,150,pozo,,l,0.4854,,327.8168,327.8182,0.048620075,-0.418049423,0,0,0,,0,96,96,70,1,,,,
,,,,,,78ac0f6de5e916ef1b7d2b63,66a626ef09d4e21e1a8894ec,6735eec3eb205d14d21e4459,2024-11-14_13h37.24.222,Tarea de género gramatical,2024.2.2,MacIntel,60.24096386,,,,,,,,,,,,,,,,,,,,,,,327.8192,328.9971,l,1,[],[],[],[],[],[],[],0.5003,1,328.9972,329.497,,,,,,351,FEM,DIS,150,espada,el,a,0.5003,,329.4972,329.4974,0.048620075,-0.418049423,0,0,0,,0,97,97,350,1,,,,
,,,,,,78ac0f6de5e916ef1b7d2b63,66a626ef09d4e21e1a8894ec,6735eec3eb205d14d21e4459,2024-11-14_13h37.24.222,Tarea de género gramatical,2024.2.2,MacIntel,60.24096386,,,,,,,,,,,,,,,,,,,,,,,329.4985,330.5804,l,1,[],[],[],[],[],[],[],0.422,1,330.5806,331.0804,,,,,,337,FEM,AGR,150,escena,la,a,0.422,,331.0806,331.0807,0.048620075,-0.418049423,0,0,0,,0,98,98,336,1,,,,
,,,,,,78ac0f6de5e916ef1b7d2b63,66a626ef09d4e21e1a8894ec,6735eec3eb205d14d21e4459,2024-11-14_13h37.24.222,Tarea de género gramatical,2024.2.2,MacIntel,60.24096386,,,,,,,,,,,,,,,,,,,,,,,331.0825,332.1645,l,1,[],[],[],[],[],[],[],0.4139,1,332.1647,332.6637,,,,,,391,FEM,AGR,150,altura,la,a,0.4139,,332.6642,332.6645,0.048620075,-0.418049423,0,0,0,,0,99,99,390,1,,,,
,,,,,,78ac0f6de5e916ef1b7d2b63,66a626ef09d4e21e1a8894ec,6735eec3eb205d14d21e4459,2024-11-14_13h37.24.222,Tarea de género gramatical,2024.2.2,MacIntel,60.24096386,,,,,,,,,,,,,,,,,,,,,,,332.6675,333.7645,l,1,[],[],[],[],[],[],[],0.4185,1,333.7646,334.2634,,,,,,279,FEM,DIS,150,selva,el,a,0.4185,,334.2634,334.2636,0.048620075,-0.418049423,0,0,0,,0,100,100,278,1,,,,
,,,,,,78ac0f6de5e916ef1b7d2b63,66a626ef09d4e21e1a8894ec,6735eec3eb205d14d21e4459,2024-11-14_13h37.24.222,Tarea de género gramatical,2024.2.2,MacIntel,60.24096386,,,,,,,,,,,,,,,,,,,,,,,334.2643,335.4482,l,1,[],[],[],[],[],[],[],0.5038,1,335.4485,335.9473,,,,,,163,FEM,AGR,150,calle,la,a,0.5038,,335.95,335.9515,0.048620075,-0.418049423,0,0,0,,0,101,101,162,1,,,,
,,,,,,78ac0f6de5e916ef1b7d2b63,66a626ef09d4e21e1a8894ec,6735eec3eb205d14d21e4459,2024-11-14_13h37.24.222,Tarea de género gramatical,2024.2.2,MacIntel,60.24096386,,,,,,,,,,,,,,,,,,,,,,,335.9526,337.2815,l,1,[],[],[],[],[],[],[],0.6539,1,337.2816,337.7816,,,,,,303,FEM,DIS,150,maldad,el,a,0.6539,,337.7817,337.7818,0.049116848,-0.418049423,0,0,0,,0,102,102,302,1,,,,
,,,,,,78ac0f6de5e916ef1b7d2b63,66a626ef09d4e21e1a8894ec,6735eec3eb205d14d21e4459,2024-11-14_13h37.24.222,Tarea de género gramatical,2024.2.2,MacIntel,60.24096386,,,,,,,,,,,,,,,,,,,,,,,337.7842,339.0647,l,1,[],[],[],[],[],[],[],0.6018,1,339.0648,339.5637,,,,,,331,FEM,AGR,150,cárcel,la,a,0.6018,,339.5638,339.5639,0.049116848,-0.418049423,0,0,0,,0,103,103,330,1,,,,
,,,,,,78ac0f6de5e916ef1b7d2b63,66a626ef09d4e21e1a8894ec,6735eec3eb205d14d21e4459,2024-11-14_13h37.24.222,Tarea de género gramatical,2024.2.2,MacIntel,60.24096386,,,,,,,,,,,,,,,,,,,,,,,339.5652,340.7804,a,1,[],[],[],[],[],[],[],0.5452,1,340.7805,341.2806,,,,,,6,MAS,DIS,150,lado,la,l,0.5452,,341.2807,341.2809,0.049116848,-0.418049423,0,0,0,,0,104,104,5,1,,,,
,,,,,,78ac0f6de5e916ef1b7d2b63,66a626ef09d4e21e1a8894ec,6735eec3eb205d14d21e4459,2024-11-14_13h37.24.222,Tarea de género gramatical,2024.2.2,MacIntel,60.24096386,,,,,,,,,,,,,,,,,,,,,,,341.2826,342.4815,l,1,[],[],[],[],[],[],[],0.519,1,342.4816,342.9805,,,,,,98,FEM,CON,150,fuga,,a,0.519,,342.9831,342.9847,0.049116848,-0.418049423,0,0,0,,0,105,105,97,1,,,,
,,,,,,78ac0f6de5e916ef1b7d2b63,66a626ef09d4e21e1a8894ec,6735eec3eb205d14d21e4459,2024-11-14_13h37.24.222,Tarea de género gramatical,2024.2.2,MacIntel,60.24096386,,,,,,,,,,,,,,,,,,,,,,,342.9859,344.1468,a,1,[],[],[],[],[],[],[],0.4893,1,344.1469,344.6477,,,,,,222,MAS,DIS,150,valor,la,l,0.4893,,344.6479,344.6479,0.049116848,-0.418049423,0,0,0,,0,106,106,221,1,,,,
,,,,,,78ac0f6de5e916ef1b7d2b63,66a626ef09d4e21e1a8894ec,6735eec3eb205d14d21e4459,2024-11-14_13h37.24.222,Tarea de género gramatical,2024.2.2,MacIntel,60.24096386,,,,,,,,,,,,,,,,,,,,,,,344.6489,345.797,l,1,[],[],[],[],[],[],[],0.4818,1,345.7971,346.2984,,,,,,315,FEM,DIS,150,manera,el,a,0.4818,,346.2984,346.2986,0.049116848,-0.418049423,0,0,0,,0,107,107,314,1,,,,
,,,,,,78ac0f6de5e916ef1b7d2b63,66a626ef09d4e21e1a8894ec,6735eec3eb205d14d21e4459,2024-11-14_13h37.24.222,Tarea de género gramatical,2024.2.2,MacIntel,60.24096386,,,,,,,,,,,,,,,,,,,,,,,346.2998,347.4977,a,1,[],[],[],[],[],[],[],0.5165,1,347.4979,347.9981,,,,,,281,MAS,CON,150,actor,,l,0.5165,,347.9982,347.9984,0.049116848,-0.418049423,0,0,0,,0,108,108,280,1,,,,
,,,,,,78ac0f6de5e916ef1b7d2b63,66a626ef09d4e21e1a8894ec,6735eec3eb205d14d21e4459,2024-11-14_13h37.24.222,Tarea de género gramatical,2024.2.2,MacIntel,60.24096386,,,,,,,,,,,,,,,,,,,,,,,348.0001,349.0655,a,1,[],[],[],[],[],[],[],0.3965,1,349.0656,349.5639,,,,,,263,MAS,CON,150,carro,,l,0.3965,,349.564,349.5641,0.049116848,-0.418049423,0,0,0,,0,109,109,262,1,,,,
,,,,,,78ac0f6de5e916ef1b7d2b63,66a626ef09d4e21e1a8894ec,6735eec3eb205d14d21e4459,2024-11-14_13h37.24.222,Tarea de género gramatical,2024.2.2,MacIntel,60.24096386,,,,,,,,,,,,,,,,,,,,,,,349.5652,350.6466,l,1,[],[],[],[],[],[],[],0.4099,1,350.6467,351.1473,,,,,,339,FEM,DIS,150,salida,el,a,0.4099,,351.1493,351.1507,0.049116848,-0.418049423,0,0,0,,0,110,110,338,1,,,,
,,,,,,78ac0f6de5e916ef1b7d2b63,66a626ef09d4e21e1a8894ec,6735eec3eb205d14d21e4459,2024-11-14_13h37.24.222,Tarea de género gramatical,2024.2.2,MacIntel,60.24096386,,,,,,,,,,,,,,,,,,,,,,,351.1516,352.2804,l,1,[],[],[],[],[],[],[],0.4491,1,352.2806,352.7805,,,,,,69,FEM,DIS,150,rata,el,a,0.4491,,352.7805,352.7806,0.049116848,-0.418049423,0,0,0,,0,111,111,68,1,,,,
,,,,,,78ac0f6de5e916ef1b7d2b63,66a626ef09d4e21e1a8894ec,6735eec3eb205d14d21e4459,2024-11-14_13h37.24.222,Tarea de género gramatical,2024.2.2,MacIntel,60.24096386,,,,,,,,,,,,,,,,,,,,,,,352.7822,354.1313,l,1,[],[],[],[],[],[],[],0.6786,1,354.1314,354.631,,,,,,345,FEM,DIS,150,pierna,el,a,0.6786,,354.6311,354.6311,0.049626359,-0.417781929,0,0,0,,0,112,112,344,1,,,,
,,,,,,78ac0f6de5e916ef1b7d2b63,66a626ef09d4e21e1a8894ec,6735eec3eb205d14d21e4459,2024-11-14_13h37.24.222,Tarea de género gramatical,2024.2.2,MacIntel,60.24096386,,,,,,,,,,,,,,,,,,,,,,,354.6318,355.781,a,1,[],[],[],[],[],[],[],0.4781,1,355.7811,356.2817,,,,,,35,MAS,CON,150,taxi,,l,0.4781,,356.2817,356.2818,0.049915082,-0.417259681,0,0,0,,0,113,113,34,1,,,,
,,,,,,78ac0f6de5e916ef1b7d2b63,66a626ef09d4e21e1a8894ec,6735eec3eb205d14d21e4459,2024-11-14_13h37.24.222,Tarea de género gramatical,2024.2.2,MacIntel,60.24096386,,,,,,,,,,,,,,,,,,,,,,,356.2835,357.7646,a,1,[],[],[],[],[],[],[],0.8136,1,357.7647,358.2647,,,,,,12,MAS,DIS,150,plan,la,l,0.8136,,358.2667,358.268,0.049915082,-0.417259681,0,0,0,,0,114,114,11,1,,,,
,,,,,,78ac0f6de5e916ef1b7d2b63,66a626ef09d4e21e1a8894ec,6735eec3eb205d14d21e4459,2024-11-14_13h37.24.222,Tarea de género gramatical,2024.2.2,MacIntel,60.24096386,,,,,,,,,,,,,,,,,,,,,,,358.269,359.3981,l,1,[],[],[],[],[],[],[],0.452,1,359.3982,359.8984,,,,,,79,FEM,AGR,150,mina,la,a,0.452,,359.8985,359.8987,0.049915082,-0.417259681,0,0,0,,0,115,115,78,1,,,,
,,,,,,78ac0f6de5e916ef1b7d2b63,66a626ef09d4e21e1a8894ec,6735eec3eb205d14d21e4459,2024-11-14_13h37.24.222,Tarea de género gramatical,2024.2.2,MacIntel,60.24096386,,,,,,,,,,,,,,,,,,,,,,,359.9005,361.1978,l,1,[],[],[],[],[],[],[],0.6158,1,361.1979,361.6983,,,,,,313,FEM,AGR,150,ciudad,la,a,0.6158,,361.6984,361.6986,0.049915082,-0.417259681,0,0,0,,0,116,116,312,1,,,,
,,,,,,78ac0f6de5e916ef1b7d2b63,66a626ef09d4e21e1a8894ec,6735eec3eb205d14d21e4459,2024-11-14_13h37.24.222,Tarea de género gramatical,2024.2.2,MacIntel,60.24096386,,,,,,,,,,,,,,,,,,,,,,,361.7005,362.8143,a,1,[],[],[],[],[],[],[],0.434,1,362.8145,363.3084,,,,,,154,MAS,AGR,150,padre,el,l,0.434,,363.3084,363.3087,0.049915082,-0.417259681,0,0,0,,0,117,117,153,1,,,,
,,,,,,78ac0f6de5e916ef1b7d2b63,66a626ef09d4e21e1a8894ec,6735eec3eb205d14d21e4459,2024-11-14_13h37.24.222,Tarea de género gramatical,2024.2.2,MacIntel,60.24096386,,,,,,,,,,,,,,,,,,,,,,,363.3099,364.4307,a,1,[],[],[],[],[],[],[],0.4491,1,364.4308,364.9316,,,,,,306,MAS,DIS,150,dinero,la,l,0.4491,,364.9316,364.9318,0.049915082,-0.417259681,0,0,0,,0,118,118,305,1,,,,
,,,,,,78ac0f6de5e916ef1b7d2b63,66a626ef09d4e21e1a8894ec,6735eec3eb205d14d21e4459,2024-11-14_13h37.24.222,Tarea de género gramatical,2024.2.2,MacIntel,60.24096386,,,,,,,,,,,,,,,,,,,,,,,364.9335,366.0471,l,1,[],[],[],[],[],[],[],0.4361,1,366.0472,366.5481,,,,,,422,FEM,CON,150,rutina,,a,0.4361,,366.5503,366.5516,0.049915082,-0.417259681,0,0,0,,0,119,119,421,1,,,,
,,,,,,78ac0f6de5e916ef1b7d2b63,66a626ef09d4e21e1a8894ec,6735eec3eb205d14d21e4459,2024-11-14_13h37.24.222,Tarea de género gramatical,2024.2.2,MacIntel,60.24096386,,,,,,,,,,,,,,,,,,,,,,,366.5529,367.8315,a,1,[],[],[],[],[],[],[],0.6009,1,367.8316,368.3311,,,,,,42,MAS,DIS,150,show,la,l,0.6009,,368.3311,368.3312,0.049915082,-0.417259681,0,0,0,,0,120,120,41,1,,,,
,,,,,,78ac0f6de5e916ef1b7d2b63,66a626ef09d4e21e1a8894ec,6735eec3eb205d14d21e4459,2024-11-14_13h37.24.222,Tarea de género gramatical,2024.2.2,MacIntel,60.24096386,,,,,,,,,,,,,,,,,,,,,,,368.3321,369.3314,l,1,[],[],[],[],[],[],[],0.327,1,369.3315,369.8317,,,,,,248,FEM,CON,150,letra,,a,0.327,,369.8318,369.832,0.049915082,-0.417259681,0,0,0,,0,121,121,247,1,,,,
,,,,,,78ac0f6de5e916ef1b7d2b63,66a626ef09d4e21e1a8894ec,6735eec3eb205d14d21e4459,2024-11-14_13h37.24.222,Tarea de género gramatical,2024.2.2,MacIntel,60.24096386,,,,,,,,,,,,,,,,,,,,,,,369.8338,370.8976,l,1,[],[],[],[],[],[],[],0.3936,1,370.8977,371.398,,,,,,164,FEM,CON,150,novia,,a,0.3936,,371.398,371.3981,0.049915082,-0.417259681,0,0,0,,0,122,122,163,1,,,,
,,,,,,78ac0f6de5e916ef1b7d2b63,66a626ef09d4e21e1a8894ec,6735eec3eb205d14d21e4459,2024-11-14_13h37.24.222,Tarea de género gramatical,2024.2.2,MacIntel,60.24096386,,,,,,,,,,,,,,,,,,,,,,,371.3998,372.6148,a,1,[],[],[],[],[],[],[],0.5383,1,372.615,373.1148,,,,,,378,MAS,DIS,150,pastel,la,l,0.5383,,373.117,373.1185,0.049915082,-0.417259681,0,0,0,,0,123,123,377,1,,,,
,,,,,,78ac0f6de5e916ef1b7d2b63,66a626ef09d4e21e1a8894ec,6735eec3eb205d14d21e4459,2024-11-14_13h37.24.222,Tarea de género gramatical,2024.2.2,MacIntel,60.24096386,,,,,,,,,,,,,,,,,,,,,,,373.1194,374.0814,l,1,[],[],[],[],[],[],[],0.2818,1,374.0816,374.5802,,,,,,170,FEM,CON,150,carta,,a,0.2818,,374.5802,374.5803,0.049915082,-0.417259681,0,0,0,,0,124,124,169,1,,,,
,,,,,,78ac0f6de5e916ef1b7d2b63,66a626ef09d4e21e1a8894ec,6735eec3eb205d14d21e4459,2024-11-14_13h37.24.222,Tarea de género gramatical,2024.2.2,MacIntel,60.24096386,,,,,,,,,,,,,,,,,,,,,,,374.5812,375.5981,l,1,[],[],[],[],[],[],[],0.3501,1,375.5982,376.0983,,,,,,278,FEM,CON,150,presa,,a,0.3501,,376.0985,376.0987,0.049915082,-0.417259681,0,0,0,,0,125,125,277,1,,,,
,,,,,,78ac0f6de5e916ef1b7d2b63,66a626ef09d4e21e1a8894ec,6735eec3eb205d14d21e4459,2024-11-14_13h37.24.222,Tarea de género gramatical,2024.2.2,MacIntel,60.24096386,,,,,,,,,,,,,,,,,,,,,,,376.1004,377.0804,a,1,[],[],[],[],[],[],[],0.3005,1,377.0806,377.5811,,,,,,400,MAS,AGR,150,barrio,el,l,0.3005,,377.5811,377.5811,0.049915082,-0.417259681,0,0,0,,0,126,126,399,1,,,,
,,,,,,78ac0f6de5e916ef1b7d2b63,66a626ef09d4e21e1a8894ec,6735eec3eb205d14d21e4459,2024-11-14_13h37.24.222,Tarea de género gramatical,2024.2.2,MacIntel,60.24096386,,,,,,,,,,,,,,,,,,,,,,,377.5819,378.5473,a,1,[],[],[],[],[],[],[],0.2881,1,378.5474,379.0472,,,,,,227,MAS,CON,150,vuelo,,l,0.2881,,379.0473,379.0474,0.049915082,-0.417259681,0,0,0,,0,127,127,226,1,,,,
,,,,,,78ac0f6de5e916ef1b7d2b63,66a626ef09d4e21e1a8894ec,6735eec3eb205d14d21e4459,2024-11-14_13h37.24.222,Tarea de género gramatical,2024.2.2,MacIntel,60.24096386,,,,,,,,,,,,,,,,,,,,,,,379.0496,380.3477,a,1,[],[],[],[],[],[],[],0.615,1,380.3477,380.8483,,,,,,174,MAS,DIS,150,perro,la,l,0.615,,380.8519,380.8531,0.049915082,-0.417259681,0,0,0,,0,128,128,173,1,,,,
,,,,,,78ac0f6de5e916ef1b7d2b63,66a626ef09d4e21e1a8894ec,6735eec3eb205d14d21e4459,2024-11-14_13h37.24.222,Tarea de género gramatical,2024.2.2,MacIntel,60.24096386,,,,,,,,,,,,,,,,,,,,,,,380.8541,381.9802,a,1,[],[],[],[],[],[],[],0.4569,1,381.9804,382.4805,,,,,,58,MAS,AGR,150,mono,el,l,0.4569,,382.4806,382.4808,0.049915082,-0.417259681,0,0,0,,0,129,129,57,1,,,,
,,,,,,78ac0f6de5e916ef1b7d2b63,66a626ef09d4e21e1a8894ec,6735eec3eb205d14d21e4459,2024-11-14_13h37.24.222,Tarea de género gramatical,2024.2.2,MacIntel,60.24096386,,,,,,,,,,,,,,,,,,,,,,,382.4825,383.5811,l,1,[],[],[],[],[],[],[],0.4182,1,383.5814,384.0812,,,,,,289,FEM,AGR,150,tabla,la,a,0.4182,,384.0813,384.0814,0.049915082,-0.417259681,0,0,0,,0,130,130,288,1,,,,
,,,,,,78ac0f6de5e916ef1b7d2b63,66a626ef09d4e21e1a8894ec,6735eec3eb205d14d21e4459,2024-11-14_13h37.24.222,Tarea de género gramatical,2024.2.2,MacIntel,60.24096386,,,,,,,,,,,,,,,,,,,,,,,384.0818,385.1467,a,1,[],[],[],[],[],[],[],0.3922,1,385.1468,385.6478,,,,,,335,MAS,CON,150,montón,,l,0.3922,,385.648,385.6481,0.049915082,-0.417259681,0,0,0,,0,131,131,334,1,,,,
,,,,,,78ac0f6de5e916ef1b7d2b63,66a626ef09d4e21e1a8894ec,6735eec3eb205d14d21e4459,2024-11-14_13h37.24.222,Tarea de género gramatical,2024.2.2,MacIntel,60.24096386,,,,,,,,,,,,,,,,,,,,,,,385.6496,386.8889,a,1,[],[],[],[],[],[],[],0.5535,1,386.8889,387.3815,,,,,,112,MAS,AGR,150,reto,el,l,0.5535,,387.3851,387.3866,0.049915082,-0.417259681,0,0,0,,0,132,132,111,1,,,,
,,,,,,78ac0f6de5e916ef1b7d2b63,66a626ef09d4e21e1a8894ec,6735eec3eb205d14d21e4459,2024-11-14_13h37.24.222,Tarea de género gramatical,2024.2.2,MacIntel,60.24096386,,,,,,,,,,,,,,,,,,,,,,,387.3884,388.4643,a,1,[],[],[],[],[],[],[],0.398,1,388.4645,388.9647,,,,,,269,MAS,CON,150,primo,,l,0.398,,388.9649,388.9651,0.049915082,-0.417259681,0,0,0,,0,133,133,268,1,,,,
,,,,,,78ac0f6de5e916ef1b7d2b63,66a626ef09d4e21e1a8894ec,6735eec3eb205d14d21e4459,2024-11-14_13h37.24.222,Tarea de género gramatical,2024.2.2,MacIntel,60.24096386,,,,,,,,,,,,,,,,,,,,,,,388.9669,390.0474,a,1,[],[],[],[],[],[],[],0.4031,1,390.0475,390.548,,,,,,53,MAS,CON,150,vaso,,l,0.4031,,390.548,390.5483,0.049915082,-0.417259681,0,0,0,,0,134,134,52,1,,,,
,,,,,,78ac0f6de5e916ef1b7d2b63,66a626ef09d4e21e1a8894ec,6735eec3eb205d14d21e4459,2024-11-14_13h37.24.222,Tarea de género gramatical,2024.2.2,MacIntel,60.24096386,,,,,,,,,,,,,,,,,,,,,,,390.55,391.601,l,1,[],[],[],[],[],[],[],0.3806,1,391.6011,392.0987,,,,,,103,FEM,AGR,150,fama,la,a,0.3806,,392.0987,392.0988,0.049915082,-0.417259681,0,0,0,,0,135,135,102,1,,,,
,,,,,,78ac0f6de5e916ef1b7d2b63,66a626ef09d4e21e1a8894ec,6735eec3eb205d14d21e4459,2024-11-14_13h37.24.222,Tarea de género gramatical,2024.2.2,MacIntel,60.24096386,,,,,,,,,,,,,,,,,,,,,,,392.1013,393.2478,a,0,[],[],[],[],[],[],[],0.4732,0,393.2492,393.7477,,,,,,116,FEM,CON,150,nube,,a,0.4732,,393.7478,393.7478,0.049915082,-0.417259681,0,0,0,,0,136,136,115,1,,,,
,,,,,,78ac0f6de5e916ef1b7d2b63,66a626ef09d4e21e1a8894ec,6735eec3eb205d14d21e4459,2024-11-14_13h37.24.222,Tarea de género gramatical,2024.2.2,MacIntel,60.24096386,,,,,,,,,,,,,,,,,,,,,,,393.7485,394.8971,l,1,[],[],[],[],[],[],[],0.4721,1,394.8985,395.398,,,,,,320,FEM,CON,150,fiesta,,a,0.4721,,395.3995,395.4008,0.049915082,-0.417259681,0,0,0,,0,137,137,319,1,,,,
,,,,,,78ac0f6de5e916ef1b7d2b63,66a626ef09d4e21e1a8894ec,6735eec3eb205d14d21e4459,2024-11-14_13h37.24.222,Tarea de género gramatical,2024.2.2,MacIntel,60.24096386,,,,,,,,,,,,,,,,,,,,,,,395.4017,396.4981,a,1,[],[],[],[],[],[],[],0.4178,1,396.4983,396.9974,,,,,,155,MAS,CON,150,mundo,,l,0.4178,,396.9976,396.9977,0.049915082,-0.417259681,0,0,0,,0,138,138,154,1,,,,
,,,,,,78ac0f6de5e916ef1b7d2b63,66a626ef09d4e21e1a8894ec,6735eec3eb205d14d21e4459,2024-11-14_13h37.24.222,Tarea de género gramatical,2024.2.2,MacIntel,60.24096386,,,,,,,,,,,,,,,,,,,,,,,396.9994,398.0648,l,1,[],[],[],[],[],[],[],0.3845,1,398.065,398.565,,,,,,110,FEM,CON,150,rosa,,a,0.3845,,398.5651,398.5652,0.049915082,-0.417259681,0,0,0,,0,139,139,109,1,,,,
,,,,,,78ac0f6de5e916ef1b7d2b63,66a626ef09d4e21e1a8894ec,6735eec3eb205d14d21e4459,2024-11-14_13h37.24.222,Tarea de género gramatical,2024.2.2,MacIntel,60.24096386,,,,,,,,,,,,,,,,,,,,,,,398.5665,399.7638,a,1,[],[],[],[],[],[],[],0.5171,1,399.7639,400.265,,,,,,78,MAS,DIS,150,oído,la,l,0.5171,,400.265,400.2652,0.049915082,-0.417259681,0,0,0,,0,140,140,77,1,,,,
,,,,,,78ac0f6de5e916ef1b7d2b63,66a626ef09d4e21e1a8894ec,6735eec3eb205d14d21e4459,2024-11-14_13h37.24.222,Tarea de género gramatical,2024.2.2,MacIntel,60.24096386,,,,,,,,,,,,,,,,,,,,,,,400.2671,401.3488,l,1,[],[],[],[],[],[],[],0.4142,1,401.349,401.8467,,,,,,260,FEM,CON,150,barra,,a,0.4142,,401.8473,401.8476,0.049915082,-0.417259681,0,0,0,,0,141,141,259,1,,,,
,,,,,,78ac0f6de5e916ef1b7d2b63,66a626ef09d4e21e1a8894ec,6735eec3eb205d14d21e4459,2024-11-14_13h37.24.222,Tarea de género gramatical,2024.2.2,MacIntel,60.24096386,,,,,,,,,,,,,,,,,,,,,,,401.8478,402.964,a,1,[],[],[],[],[],[],[],0.4455,1,402.964,403.4647,,,,,,395,MAS,CON,150,correo,,l,0.4455,,403.4648,403.4649,0.049915082,-0.417259681,0,0,0,,0,142,142,394,1,,,,
,,,,,,78ac0f6de5e916ef1b7d2b63,66a626ef09d4e21e1a8894ec,6735eec3eb205d14d21e4459,2024-11-14_13h37.24.222,Tarea de género gramatical,2024.2.2,MacIntel,60.24096386,,,,,,,,,,,,,,,,,,,,,,,403.4666,404.5978,a,1,[],[],[],[],[],[],[],0.4612,1,404.5979,405.0975,,,,,,401,MAS,CON,150,abrigo,,l,0.4612,,405.0975,405.0982,0.049915082,-0.417259681,0,0,0,,0,143,143,400,1,,,,
,,,,,,78ac0f6de5e916ef1b7d2b63,66a626ef09d4e21e1a8894ec,6735eec3eb205d14d21e4459,2024-11-14_13h37.24.222,Tarea de género gramatical,2024.2.2,MacIntel,60.24096386,,,,,,,,,,,,,,,,,,,,,,,405.1006,406.5473,l,1,[],[],[],[],[],[],[],0.7688,1,406.5475,407.0472,,,,,,271,FEM,AGR,150,viuda,la,a,0.7688,,407.0474,407.0475,0.049915082,-0.417259681,0,0,0,,0,144,144,270,1,,,,
,,,,,,78ac0f6de5e916ef1b7d2b63,66a626ef09d4e21e1a8894ec,6735eec3eb205d14d21e4459,2024-11-14_13h37.24.222,Tarea de género gramatical,2024.2.2,MacIntel,60.24096386,,,,,,,,,,,,,,,,,,,,,,,407.0495,408.2647,l,1,[],[],[],[],[],[],[],0.5356,1,408.2649,408.7649,,,,,,15,FEM,DIS,150,cama,el,a,0.5356,,408.7651,408.7653,0.049915082,-0.417259681,0,0,0,,0,145,145,14,1,,,,
,,,,,,78ac0f6de5e916ef1b7d2b63,66a626ef09d4e21e1a8894ec,6735eec3eb205d14d21e4459,2024-11-14_13h37.24.222,Tarea de género gramatical,2024.2.2,MacIntel,60.24096386,,,,,,,,,,,,,,,,,,,,,,,408.767,410.3478,a,1,[],[],[],[],[],[],[],0.9069,1,410.348,410.8483,,,,,,341,MAS,CON,150,precio,,l,0.9069,,410.8503,410.8516,0.049915082,-0.417259681,0,0,0,,0,146,146,340,1,,,,
,,,,,,78ac0f6de5e916ef1b7d2b63,66a626ef09d4e21e1a8894ec,6735eec3eb205d14d21e4459,2024-11-14_13h37.24.222,Tarea de género gramatical,2024.2.2,MacIntel,60.24096386,,,,,,,,,,,,,,,,,,,,,,,410.8526,412.2647,a,1,[],[],[],[],[],[],[],0.72,1,412.2649,412.7647,,,,,,130,MAS,AGR,150,yate,el,l,0.72,,412.7648,412.7648,0.049915082,-0.417259681,0,0,0,,0,147,147,129,1,,,,
,,,,,,78ac0f6de5e916ef1b7d2b63,66a626ef09d4e21e1a8894ec,6735eec3eb205d14d21e4459,2024-11-14_13h37.24.222,Tarea de género gramatical,2024.2.2,MacIntel,60.24096386,,,,,,,,,,,,,,,,,,,,,,,412.7663,414.1481,l,1,[],[],[],[],[],[],[],0.7015,1,414.1481,414.6471,,,,,,254,FEM,CON,150,caída,,a,0.7015,,414.6472,414.6474,0.049915082,-0.417259681,0,0,0,,0,148,148,253,1,,,,
,,,,,,78ac0f6de5e916ef1b7d2b63,66a626ef09d4e21e1a8894ec,6735eec3eb205d14d21e4459,2024-11-14_13h37.24.222,Tarea de género gramatical,2024.2.2,MacIntel,60.24096386,,,,,,,,,,,,,,,,,,,,,,,414.6487,415.9309,a,1,[],[],[],[],[],[],[],0.6282,1,415.9312,416.4316,,,,,,166,MAS,AGR,150,coche,el,l,0.6282,,416.4317,416.4318,0.049915082,-0.417259681,0,0,0,,0,149,149,165,1,,,,
,,,,,,78ac0f6de5e916ef1b7d2b63,66a626ef09d4e21e1a8894ec,6735eec3eb205d14d21e4459,2024-11-14_13h37.24.222,Tarea de género gramatical,2024.2.2,MacIntel,60.24096386,,,,,,,,,,,,,,,,,,,,,,,416.4337,417.6981,l,1,[],[],[],[],[],[],[],0.5829,1,417.6983,418.1982,,,,,,32,FEM,CON,150,caja,,a,0.5829,,418.2003,469.5821,0.049915082,-0.417259681,0,0,0,space,0,150,150,31,1,51.3445,,,
,,,,,,78ac0f6de5e916ef1b7d2b63,66a626ef09d4e21e1a8894ec,6735eec3eb205d14d21e4459,2024-11-14_13h37.24.222,Tarea de género gramatical,2024.2.2,MacIntel,60.24096386,,,,,,,,,,,,,,,,,,,,,,,469.595,470.9649,l,1,[],[],[],[],[],[],[],0.7011,1,470.9651,471.4647,,,,,,97,FEM,AGR,150,capa,la,a,0.7011,,471.4649,471.465,0.049915082,-0.417259681,0,0,0,,0,151,151,96,1,,,,
,,,,,,78ac0f6de5e916ef1b7d2b63,66a626ef09d4e21e1a8894ec,6735eec3eb205d14d21e4459,2024-11-14_13h37.24.222,Tarea de género gramatical,2024.2.2,MacIntel,60.24096386,,,,,,,,,,,,,,,,,,,,,,,471.4666,472.6812,a,0,[],[],[],[],[],[],[],0.5422,0,472.6828,473.1804,,,,,,195,FEM,DIS,150,pared,el,a,0.5422,,473.1805,473.1806,0.049915082,-0.417259681,0,0,0,,0,152,152,194,1,,,,
,,,,,,78ac0f6de5e916ef1b7d2b63,66a626ef09d4e21e1a8894ec,6735eec3eb205d14d21e4459,2024-11-14_13h37.24.222,Tarea de género gramatical,2024.2.2,MacIntel,60.24096386,,,,,,,,,,,,,,,,,,,,,,,473.1825,474.6479,a,1,[],[],[],[],[],[],[],0.7853,1,474.6492,475.1485,,,,,,388,MAS,AGR,150,empleo,el,l,0.7853,,475.1486,475.1487,0.049915082,-0.417259681,0,0,0,,0,153,153,387,1,,,,
,,,,,,78ac0f6de5e916ef1b7d2b63,66a626ef09d4e21e1a8894ec,6735eec3eb205d14d21e4459,2024-11-14_13h37.24.222,Tarea de género gramatical,2024.2.2,MacIntel,60.24096386,,,,,,,,,,,,,,,,,,,,,,,475.1505,476.2138,l,1,[],[],[],[],[],[],[],0.3846,1,476.2139,476.7143,,,,,,93,FEM,DIS,150,lata,el,a,0.3846,,476.7144,476.7145,0.049915082,-0.417259681,0,0,0,,0,154,154,92,1,,,,
,,,,,,78ac0f6de5e916ef1b7d2b63,66a626ef09d4e21e1a8894ec,6735eec3eb205d14d21e4459,2024-11-14_13h37.24.222,Tarea de género gramatical,2024.2.2,MacIntel,60.24096386,,,,,,,,,,,,,,,,,,,,,,,476.7152,478.1139,l,1,[],[],[],[],[],[],[],0.7166,1,478.114,478.6148,,,,,,151,FEM,AGR,150,noche,la,a,0.7166,,478.617,478.6183,0.049915082,-0.417259681,0,0,0,,0,155,155,150,1,,,,
,,,,,,78ac0f6de5e916ef1b7d2b63,66a626ef09d4e21e1a8894ec,6735eec3eb205d14d21e4459,2024-11-14_13h37.24.222,Tarea de género gramatical,2024.2.2,MacIntel,60.24096386,,,,,,,,,,,,,,,,,,,,,,,478.6193,479.8812,a,1,[],[],[],[],[],[],[],0.5872,1,479.8813,480.3814,,,,,,179,MAS,CON,150,viaje,,l,0.5872,,480.3815,480.3816,0.049915082,-0.417259681,0,0,0,,0,156,156,178,1,,,,
,,,,,,78ac0f6de5e916ef1b7d2b63,66a626ef09d4e21e1a8894ec,6735eec3eb205d14d21e4459,2024-11-14_13h37.24.222,Tarea de género gramatical,2024.2.2,MacIntel,60.24096386,,,,,,,,,,,,,,,,,,,,,,,480.3831,481.5646,a,1,[],[],[],[],[],[],[],0.5016,1,481.5647,482.0648,,,,,,47,MAS,CON,150,olor,,l,0.5016,,482.0648,482.065,0.049915082,-0.417259681,0,0,0,,0,157,157,46,1,,,,
,,,,,,78ac0f6de5e916ef1b7d2b63,66a626ef09d4e21e1a8894ec,6735eec3eb205d14d21e4459,2024-11-14_13h37.24.222,Tarea de género gramatical,2024.2.2,MacIntel,60.24096386,,,,,,,,,,,,,,,,,,,,,,,482.0667,483.2144,l,1,[],[],[],[],[],[],[],0.4716,1,483.2146,483.7138,,,,,,165,FEM,DIS,150,amiga,el,a,0.4716,,483.714,483.7141,0.049915082,-0.417259681,0,0,0,,0,158,158,164,1,,,,
,,,,,,78ac0f6de5e916ef1b7d2b63,66a626ef09d4e21e1a8894ec,6735eec3eb205d14d21e4459,2024-11-14_13h37.24.222,Tarea de género gramatical,2024.2.2,MacIntel,60.24096386,,,,,,,,,,,,,,,,,,,,,,,483.7173,484.8647,l,1,[],[],[],[],[],[],[],0.4667,1,484.8648,485.3638,,,,,,223,FEM,AGR,150,plata,la,a,0.4667,,485.3661,485.3673,0.049915082,-0.417259681,0,0,0,,0,159,159,222,1,,,,
,,,,,,78ac0f6de5e916ef1b7d2b63,66a626ef09d4e21e1a8894ec,6735eec3eb205d14d21e4459,2024-11-14_13h37.24.222,Tarea de género gramatical,2024.2.2,MacIntel,60.24096386,,,,,,,,,,,,,,,,,,,,,,,485.3684,486.5314,a,1,[],[],[],[],[],[],[],0.4825,1,486.5316,487.0314,,,,,,414,MAS,DIS,150,sótano,la,l,0.4825,,487.0315,487.0317,0.049915082,-0.417259681,0,0,0,,0,160,160,413,1,,,,
,,,,,,78ac0f6de5e916ef1b7d2b63,66a626ef09d4e21e1a8894ec,6735eec3eb205d14d21e4459,2024-11-14_13h37.24.222,Tarea de género gramatical,2024.2.2,MacIntel,60.24096386,,,,,,,,,,,,,,,,,,,,,,,487.0333,488.1638,l,1,[],[],[],[],[],[],[],0.4552,1,488.164,488.6635,,,,,,199,FEM,AGR,150,nariz,la,a,0.4552,,488.6635,488.6635,0.049915082,-0.417259681,0,0,0,,0,161,161,198,1,,,,
,,,,,,78ac0f6de5e916ef1b7d2b63,66a626ef09d4e21e1a8894ec,6735eec3eb205d14d21e4459,2024-11-14_13h37.24.222,Tarea de género gramatical,2024.2.2,MacIntel,60.24096386,,,,,,,,,,,,,,,,,,,,,,,488.6639,489.7495,l,1,[],[],[],[],[],[],[],0.4303,1,489.7496,490.2473,,,,,,439,FEM,AGR,150,toalla,la,a,0.4303,,490.2475,490.2477,0.049915082,-0.417259681,0,0,0,,0,162,162,438,1,,,,
,,,,,,78ac0f6de5e916ef1b7d2b63,66a626ef09d4e21e1a8894ec,6735eec3eb205d14d21e4459,2024-11-14_13h37.24.222,Tarea de género gramatical,2024.2.2,MacIntel,60.24096386,,,,,,,,,,,,,,,,,,,,,,,490.2494,491.4478,a,1,[],[],[],[],[],[],[],0.5262,1,491.4479,491.9482,,,,,,142,MAS,AGR,150,lodo,el,l,0.5262,,491.9483,491.9486,0.049915082,-0.417259681,0,0,0,,0,163,163,141,1,,,,
,,,,,,78ac0f6de5e916ef1b7d2b63,66a626ef09d4e21e1a8894ec,6735eec3eb205d14d21e4459,2024-11-14_13h37.24.222,Tarea de género gramatical,2024.2.2,MacIntel,60.24096386,,,,,,,,,,,,,,,,,,,,,,,491.9505,493.0977,a,1,[],[],[],[],[],[],[],0.4653,1,493.0978,493.5981,,,,,,64,MAS,AGR,150,saco,el,l,0.4653,,493.5999,493.6012,0.049915082,-0.417259681,0,0,0,,0,164,164,63,1,,,,
,,,,,,78ac0f6de5e916ef1b7d2b63,66a626ef09d4e21e1a8894ec,6735eec3eb205d14d21e4459,2024-11-14_13h37.24.222,Tarea de género gramatical,2024.2.2,MacIntel,60.24096386,,,,,,,,,,,,,,,,,,,,,,,493.6023,494.7148,a,1,[],[],[],[],[],[],[],0.4443,1,494.7148,495.2146,,,,,,270,MAS,DIS,150,queso,la,l,0.4443,,495.2147,495.2149,0.049915082,-0.417259681,0,0,0,,0,165,165,269,1,,,,
,,,,,,78ac0f6de5e916ef1b7d2b63,66a626ef09d4e21e1a8894ec,6735eec3eb205d14d21e4459,2024-11-14_13h37.24.222,Tarea de género gramatical,2024.2.2,MacIntel,60.24096386,,,,,,,,,,,,,,,,,,,,,,,495.2166,496.2813,a,1,[],[],[],[],[],[],[],0.4088,1,496.2815,496.7806,,,,,,443,MAS,CON,150,templo,,l,0.4088,,496.7806,496.7808,0.049915082,-0.417259681,0,0,0,,0,166,166,442,1,,,,
,,,,,,78ac0f6de5e916ef1b7d2b63,66a626ef09d4e21e1a8894ec,6735eec3eb205d14d21e4459,2024-11-14_13h37.24.222,Tarea de género gramatical,2024.2.2,MacIntel,60.24096386,,,,,,,,,,,,,,,,,,,,,,,496.7827,497.8813,a,1,[],[],[],[],[],[],[],0.4293,1,497.8815,498.3805,,,,,,156,MAS,DIS,150,amigo,la,l,0.4293,,498.3807,498.3809,0.049915082,-0.417259681,0,0,0,,0,167,167,155,1,,,,
,,,,,,78ac0f6de5e916ef1b7d2b63,66a626ef09d4e21e1a8894ec,6735eec3eb205d14d21e4459,2024-11-14_13h37.24.222,Tarea de género gramatical,2024.2.2,MacIntel,60.24096386,,,,,,,,,,,,,,,,,,,,,,,498.3826,499.4472,l,1,[],[],[],[],[],[],[],0.3859,1,499.4473,499.9481,,,,,,217,FEM,AGR,150,tarea,la,a,0.3859,,499.9506,499.9521,0.049915082,-0.417259681,0,0,0,,0,168,168,216,1,,,,
,,,,,,78ac0f6de5e916ef1b7d2b63,66a626ef09d4e21e1a8894ec,6735eec3eb205d14d21e4459,2024-11-14_13h37.24.222,Tarea de género gramatical,2024.2.2,MacIntel,60.24096386,,,,,,,,,,,,,,,,,,,,,,,499.953,501.131,a,1,[],[],[],[],[],[],[],0.5119,1,501.1311,501.6313,,,,,,328,MAS,AGR,150,asunto,el,l,0.5119,,501.6314,501.6315,0.049915082,-0.417259681,0,0,0,,0,169,169,327,1,,,,
,,,,,,78ac0f6de5e916ef1b7d2b63,66a626ef09d4e21e1a8894ec,6735eec3eb205d14d21e4459,2024-11-14_13h37.24.222,Tarea de género gramatical,2024.2.2,MacIntel,60.24096386,,,,,,,,,,,,,,,,,,,,,,,501.6331,502.7314,a,1,[],[],[],[],[],[],[],0.4161,1,502.7315,503.2314,,,,,,262,MAS,AGR,150,video,el,l,0.4161,,503.2314,503.2315,0.049915082,-0.417259681,0,0,0,,0,170,170,261,1,,,,
,,,,,,78ac0f6de5e916ef1b7d2b63,66a626ef09d4e21e1a8894ec,6735eec3eb205d14d21e4459,2024-11-14_13h37.24.222,Tarea de género gramatical,2024.2.2,MacIntel,60.24096386,,,,,,,,,,,,,,,,,,,,,,,503.2347,504.2816,l,1,[],[],[],[],[],[],[],0.3794,1,504.2818,504.7806,,,,,,369,FEM,DIS,150,camisa,el,a,0.3794,,504.7807,504.7809,0.049915082,-0.417259681,0,0,0,,0,171,171,368,1,,,,
,,,,,,78ac0f6de5e916ef1b7d2b63,66a626ef09d4e21e1a8894ec,6735eec3eb205d14d21e4459,2024-11-14_13h37.24.222,Tarea de género gramatical,2024.2.2,MacIntel,60.24096386,,,,,,,,,,,,,,,,,,,,,,,504.7826,506.0647,a,1,[],[],[],[],[],[],[],0.6063,1,506.0649,506.5644,,,,,,384,MAS,DIS,150,pedazo,la,l,0.6063,,506.5644,506.5645,0.049915082,-0.417259681,0,0,0,,0,172,172,383,1,,,,
,,,,,,78ac0f6de5e916ef1b7d2b63,66a626ef09d4e21e1a8894ec,6735eec3eb205d14d21e4459,2024-11-14_13h37.24.222,Tarea de género gramatical,2024.2.2,MacIntel,60.24096386,,,,,,,,,,,,,,,,,,,,,,,506.5664,507.5811,l,1,[],[],[],[],[],[],[],0.3347,1,507.5812,508.0805,,,,,,261,FEM,DIS,150,cueva,el,a,0.3347,,508.0824,508.0836,0.049915082,-0.417259681,0,0,0,,0,173,173,260,1,,,,
,,,,,,78ac0f6de5e916ef1b7d2b63,66a626ef09d4e21e1a8894ec,6735eec3eb205d14d21e4459,2024-11-14_13h37.24.222,Tarea de género gramatical,2024.2.2,MacIntel,60.24096386,,,,,,,,,,,,,,,,,,,,,,,508.0856,509.3144,a,1,[],[],[],[],[],[],[],0.5502,1,509.3145,509.8147,,,,,,334,MAS,AGR,150,ataque,el,l,0.5502,,509.8149,509.815,0.049915082,-0.417259681,0,0,0,,0,174,174,333,1,,,,
,,,,,,78ac0f6de5e916ef1b7d2b63,66a626ef09d4e21e1a8894ec,6735eec3eb205d14d21e4459,2024-11-14_13h37.24.222,Tarea de género gramatical,2024.2.2,MacIntel,60.24096386,,,,,,,,,,,,,,,,,,,,,,,509.8167,511.215,a,1,[],[],[],[],[],[],[],0.7293,1,511.2151,511.72,,,,,,336,MAS,DIS,150,crimen,la,l,0.7293,,511.7204,511.7219,0.049915082,-0.417259681,0,0,0,,0,175,175,335,1,,,,
,,,,,,78ac0f6de5e916ef1b7d2b63,66a626ef09d4e21e1a8894ec,6735eec3eb205d14d21e4459,2024-11-14_13h37.24.222,Tarea de género gramatical,2024.2.2,MacIntel,60.24096386,,,,,,,,,,,,,,,,,,,,,,,511.7266,512.7801,l,1,[],[],[],[],[],[],[],0.3828,1,512.7803,513.2811,,,,,,326,FEM,CON,150,música,,a,0.3828,,513.2811,513.2813,0.049915082,-0.417259681,0,0,0,,0,176,176,325,1,,,,
,,,,,,78ac0f6de5e916ef1b7d2b63,66a626ef09d4e21e1a8894ec,6735eec3eb205d14d21e4459,2024-11-14_13h37.24.222,Tarea de género gramatical,2024.2.2,MacIntel,60.24096386,,,,,,,,,,,,,,,,,,,,,,,513.2822,514.3313,a,1,[],[],[],[],[],[],[],0.3676,1,514.3316,514.822,,,,,,102,MAS,DIS,150,coro,la,l,0.3676,,514.8227,514.8231,0.049915082,-0.417259681,0,0,0,,0,177,177,101,1,,,,
,,,,,,78ac0f6de5e916ef1b7d2b63,66a626ef09d4e21e1a8894ec,6735eec3eb205d14d21e4459,2024-11-14_13h37.24.222,Tarea de género gramatical,2024.2.2,MacIntel,60.24096386,,,,,,,,,,,,,,,,,,,,,,,514.8235,515.9847,a,1,[],[],[],[],[],[],[],0.485,1,515.9848,516.4813,,,,,,448,MAS,AGR,150,aceite,el,l,0.485,,516.4814,516.4816,0.049915082,-0.417259681,0,0,0,,0,178,178,447,1,,,,
,,,,,,78ac0f6de5e916ef1b7d2b63,66a626ef09d4e21e1a8894ec,6735eec3eb205d14d21e4459,2024-11-14_13h37.24.222,Tarea de género gramatical,2024.2.2,MacIntel,60.24096386,,,,,,,,,,,,,,,,,,,,,,,516.4835,517.5481,a,1,[],[],[],[],[],[],[],0.386,1,517.5482,518.0481,,,,,,437,MAS,CON,150,hombro,,l,0.386,,518.0481,518.0483,0.049915082,-0.417259681,0,0,0,,0,179,179,436,1,,,,
,,,,,,78ac0f6de5e916ef1b7d2b63,66a626ef09d4e21e1a8894ec,6735eec3eb205d14d21e4459,2024-11-14_13h37.24.222,Tarea de género gramatical,2024.2.2,MacIntel,60.24096386,,,,,,,,,,,,,,,,,,,,,,,518.0501,519.1638,a,1,[],[],[],[],[],[],[],0.4365,1,519.1639,519.6639,,,,,,65,MAS,CON,150,rayo,,l,0.4365,,519.6641,519.6642,0.049915082,-0.417259681,0,0,0,,0,180,180,64,1,,,,
,,,,,,78ac0f6de5e916ef1b7d2b63,66a626ef09d4e21e1a8894ec,6735eec3eb205d14d21e4459,2024-11-14_13h37.24.222,Tarea de género gramatical,2024.2.2,MacIntel,60.24096386,,,,,,,,,,,,,,,,,,,,,,,519.6659,520.847,l,1,[],[],[],[],[],[],[],0.4983,1,520.8471,521.348,,,,,,361,FEM,AGR,150,oferta,la,a,0.4983,,521.3481,521.3482,0.049915082,-0.417259681,0,0,0,,0,181,181,360,1,,,,
,,,,,,78ac0f6de5e916ef1b7d2b63,66a626ef09d4e21e1a8894ec,6735eec3eb205d14d21e4459,2024-11-14_13h37.24.222,Tarea de género gramatical,2024.2.2,MacIntel,60.24096386,,,,,,,,,,,,,,,,,,,,,,,521.3498,522.6972,a,0,[],[],[],[],[],[],[],0.6677,0,522.6987,523.1981,,,,,,31,FEM,AGR,150,edad,la,a,0.6677,,523.2004,523.2017,0.049915082,-0.417259681,0,0,0,,0,182,182,30,1,,,,
,,,,,,78ac0f6de5e916ef1b7d2b63,66a626ef09d4e21e1a8894ec,6735eec3eb205d14d21e4459,2024-11-14_13h37.24.222,Tarea de género gramatical,2024.2.2,MacIntel,60.24096386,,,,,,,,,,,,,,,,,,,,,,,523.2025,524.3646,a,0,[],[],[],[],[],[],[],0.4912,0,524.3648,524.8639,,,,,,350,FEM,CON,150,imagen,,a,0.4912,,524.864,524.8642,0.049915082,-0.417259681,0,0,0,,0,183,183,349,1,,,,
,,,,,,78ac0f6de5e916ef1b7d2b63,66a626ef09d4e21e1a8894ec,6735eec3eb205d14d21e4459,2024-11-14_13h37.24.222,Tarea de género gramatical,2024.2.2,MacIntel,60.24096386,,,,,,,,,,,,,,,,,,,,,,,524.8659,526.1313,l,0,[],[],[],[],[],[],[],0.5934,0,526.1314,526.6305,,,,,,317,MAS,CON,150,número,,l,0.5934,,526.6306,526.6307,0.049915082,-0.417259681,0,0,0,,0,184,184,316,1,,,,
,,,,,,78ac0f6de5e916ef1b7d2b63,66a626ef09d4e21e1a8894ec,6735eec3eb205d14d21e4459,2024-11-14_13h37.24.222,Tarea de género gramatical,2024.2.2,MacIntel,60.24096386,,,,,,,,,,,,,,,,,,,,,,,526.632,527.681,l,1,[],[],[],[],[],[],[],0.3817,1,527.6814,528.1814,,,,,,302,FEM,CON,150,cabeza,,a,0.3817,,528.1815,528.1816,0.049915082,-0.417259681,0,0,0,,0,185,185,301,1,,,,
,,,,,,78ac0f6de5e916ef1b7d2b63,66a626ef09d4e21e1a8894ec,6735eec3eb205d14d21e4459,2024-11-14_13h37.24.222,Tarea de género gramatical,2024.2.2,MacIntel,60.24096386,,,,,,,,,,,,,,,,,,,,,,,528.1834,529.798,l,1,[],[],[],[],[],[],[],0.9336,1,529.7981,530.2977,,,,,,387,FEM,DIS,150,página,el,a,0.9336,,530.2996,530.301,0.049915082,-0.417259681,0,0,0,,0,186,186,386,1,,,,
,,,,,,78ac0f6de5e916ef1b7d2b63,66a626ef09d4e21e1a8894ec,6735eec3eb205d14d21e4459,2024-11-14_13h37.24.222,Tarea de género gramatical,2024.2.2,MacIntel,60.24096386,,,,,,,,,,,,,,,,,,,,,,,530.302,531.4314,a,1,[],[],[],[],[],[],[],0.4517,1,531.4315,531.9315,,,,,,16,MAS,AGR,150,baño,el,l,0.4517,,531.9316,531.9319,0.049915082,-0.417259681,0,0,0,,0,187,187,15,1,,,,
,,,,,,78ac0f6de5e916ef1b7d2b63,66a626ef09d4e21e1a8894ec,6735eec3eb205d14d21e4459,2024-11-14_13h37.24.222,Tarea de género gramatical,2024.2.2,MacIntel,60.24096386,,,,,,,,,,,,,,,,,,,,,,,531.934,533.4647,a,1,[],[],[],[],[],[],[],0.8534,1,533.4649,533.9647,,,,,,108,MAS,DIS,150,hilo,la,l,0.8534,,533.9648,533.9648,0.049915082,-0.417259681,0,0,0,,0,188,188,107,1,,,,
,,,,,,78ac0f6de5e916ef1b7d2b63,66a626ef09d4e21e1a8894ec,6735eec3eb205d14d21e4459,2024-11-14_13h37.24.222,Tarea de género gramatical,2024.2.2,MacIntel,60.24096386,,,,,,,,,,,,,,,,,,,,,,,533.9667,535.098,l,1,[],[],[],[],[],[],[],0.4521,1,535.098,535.5981,,,,,,51,FEM,DIS,150,bala,el,a,0.4521,,535.5982,535.5984,0.049915082,-0.417259681,0,0,0,,0,189,189,50,1,,,,
,,,,,,78ac0f6de5e916ef1b7d2b63,66a626ef09d4e21e1a8894ec,6735eec3eb205d14d21e4459,2024-11-14_13h37.24.222,Tarea de género gramatical,2024.2.2,MacIntel,60.24096386,,,,,,,,,,,,,,,,,,,,,,,535.6001,536.8814,a,1,[],[],[],[],[],[],[],0.6007,1,536.8816,537.3812,,,,,,114,MAS,DIS,150,menú,la,l,0.6007,,537.3813,537.3816,0.049915082,-0.417259681,0,0,0,,0,190,190,113,1,,,,
,,,,,,78ac0f6de5e916ef1b7d2b63,66a626ef09d4e21e1a8894ec,6735eec3eb205d14d21e4459,2024-11-14_13h37.24.222,Tarea de género gramatical,2024.2.2,MacIntel,60.24096386,,,,,,,,,,,,,,,,,,,,,,,537.3832,538.7813,a,1,[],[],[],[],[],[],[],0.7279,1,538.7814,539.2816,,,,,,118,MAS,AGR,150,baúl,el,l,0.7279,,539.2839,539.2852,0.049915082,-0.417259681,0,0,0,,0,191,191,117,1,,,,
,,,,,,78ac0f6de5e916ef1b7d2b63,66a626ef09d4e21e1a8894ec,6735eec3eb205d14d21e4459,2024-11-14_13h37.24.222,Tarea de género gramatical,2024.2.2,MacIntel,60.24096386,,,,,,,,,,,,,,,,,,,,,,,539.2862,540.5314,l,1,[],[],[],[],[],[],[],0.5671,1,540.5314,541.0315,,,,,,105,FEM,DIS,150,jefa,el,a,0.5671,,541.0317,541.0319,0.049915082,-0.417259681,0,0,0,,0,192,192,104,1,,,,
,,,,,,78ac0f6de5e916ef1b7d2b63,66a626ef09d4e21e1a8894ec,6735eec3eb205d14d21e4459,2024-11-14_13h37.24.222,Tarea de género gramatical,2024.2.2,MacIntel,60.24096386,,,,,,,,,,,,,,,,,,,,,,,541.0341,542.3146,a,1,[],[],[],[],[],[],[],0.6023,1,542.3148,542.8149,,,,,,18,MAS,DIS,150,tren,la,l,0.6023,,542.815,542.8152,0.049915082,-0.417259681,0,0,0,,0,193,193,17,1,,,,
,,,,,,78ac0f6de5e916ef1b7d2b63,66a626ef09d4e21e1a8894ec,6735eec3eb205d14d21e4459,2024-11-14_13h37.24.222,Tarea de género gramatical,2024.2.2,MacIntel,60.24096386,,,,,,,,,,,,,,,,,,,,,,,542.8169,544.198,l,1,[],[],[],[],[],[],[],0.6995,1,544.1981,544.6981,,,,,,273,FEM,DIS,150,tarta,el,a,0.6995,,544.6982,544.6983,0.049915082,-0.417259681,0,0,0,,0,194,194,272,1,,,,
,,,,,,78ac0f6de5e916ef1b7d2b63,66a626ef09d4e21e1a8894ec,6735eec3eb205d14d21e4459,2024-11-14_13h37.24.222,Tarea de género gramatical,2024.2.2,MacIntel,60.24096386,,,,,,,,,,,,,,,,,,,,,,,544.6999,545.9471,l,1,[],[],[],[],[],[],[],0.5749,1,545.9473,546.4481,,,,,,415,FEM,AGR,150,cabina,la,a,0.5749,,546.4503,546.4517,0.049915082,-0.417259681,0,0,0,,0,195,195,414,1,,,,
,,,,,,78ac0f6de5e916ef1b7d2b63,66a626ef09d4e21e1a8894ec,6735eec3eb205d14d21e4459,2024-11-14_13h37.24.222,Tarea de género gramatical,2024.2.2,MacIntel,60.24096386,,,,,,,,,,,,,,,,,,,,,,,546.4526,547.6139,a,1,[],[],[],[],[],[],[],0.4843,1,547.614,548.1138,,,,,,36,MAS,DIS,150,dedo,la,l,0.4843,,548.1139,548.1139,0.049915082,-0.417259681,0,0,0,,0,196,196,35,1,,,,
,,,,,,78ac0f6de5e916ef1b7d2b63,66a626ef09d4e21e1a8894ec,6735eec3eb205d14d21e4459,2024-11-14_13h37.24.222,Tarea de género gramatical,2024.2.2,MacIntel,60.24096386,,,,,,,,,,,,,,,,,,,,,,,548.1148,549.4811,a,1,[],[],[],[],[],[],[],0.6984,1,549.4814,549.9813,,,,,,280,MAS,AGR,150,salón,el,l,0.6984,,549.9815,549.9816,0.049915082,-0.417259681,0,0,0,,0,197,197,279,1,,,,
,,,,,,78ac0f6de5e916ef1b7d2b63,66a626ef09d4e21e1a8894ec,6735eec3eb205d14d21e4459,2024-11-14_13h37.24.222,Tarea de género gramatical,2024.2.2,MacIntel,60.24096386,,,,,,,,,,,,,,,,,,,,,,,549.9843,551.0647,l,1,[],[],[],[],[],[],[],0.3995,1,551.0648,551.5736,,,,,,9,FEM,DIS,150,mamá,el,a,0.3995,,551.5737,551.5738,0.049915082,-0.417259681,0,0,0,,0,198,198,8,1,,,,
,,,,,,78ac0f6de5e916ef1b7d2b63,66a626ef09d4e21e1a8894ec,6735eec3eb205d14d21e4459,2024-11-14_13h37.24.222,Tarea de género gramatical,2024.2.2,MacIntel,60.24096386,,,,,,,,,,,,,,,,,,,,,,,551.575,552.6146,a,1,[],[],[],[],[],[],[],0.3787,1,552.6148,553.1139,,,,,,173,MAS,CON,150,libro,,l,0.3787,,553.114,553.1142,0.049915082,-0.417259681,0,0,0,,0,199,199,172,1,,,,
,,,,,,78ac0f6de5e916ef1b7d2b63,66a626ef09d4e21e1a8894ec,6735eec3eb205d14d21e4459,2024-11-14_13h37.24.222,Tarea de género gramatical,2024.2.2,MacIntel,60.24096386,,,,,,,,,,,,,,,,,,,,,,,553.116,554.2137,a,1,[],[],[],[],[],[],[],0.418,1,554.2139,554.7145,,,,,,324,MAS,DIS,150,cuarto,la,l,0.418,,554.7152,554.7156,0.049915082,-0.417259681,0,0,0,,0,200,200,323,1,,,,
,,,,,,78ac0f6de5e916ef1b7d2b63,66a626ef09d4e21e1a8894ec,6735eec3eb205d14d21e4459,2024-11-14_13h37.24.222,Tarea de género gramatical,2024.2.2,MacIntel,60.24096386,,,,,,,,,,,,,,,,,,,,,,,554.7158,555.8309,a,1,[],[],[],[],[],[],[],0.4421,1,555.831,556.3315,,,,,,382,MAS,AGR,150,teatro,el,l,0.4421,,556.3316,556.3318,0.049915082,-0.417259681,0,0,0,,0,201,201,381,1,,,,
,,,,,,78ac0f6de5e916ef1b7d2b63,66a626ef09d4e21e1a8894ec,6735eec3eb205d14d21e4459,2024-11-14_13h37.24.222,Tarea de género gramatical,2024.2.2,MacIntel,60.24096386,,,,,,,,,,,,,,,,,,,,,,,556.3336,557.5143,l,1,[],[],[],[],[],[],[],0.5043,1,557.5144,558.0138,,,,,,386,FEM,CON,150,sombra,,a,0.5043,,558.0139,558.0141,0.049915082,-0.417259681,0,0,0,,0,202,202,385,1,,,,
,,,,,,78ac0f6de5e916ef1b7d2b63,66a626ef09d4e21e1a8894ec,6735eec3eb205d14d21e4459,2024-11-14_13h37.24.222,Tarea de género gramatical,2024.2.2,MacIntel,60.24096386,,,,,,,,,,,,,,,,,,,,,,,558.0154,559.1481,a,1,[],[],[],[],[],[],[],0.4535,1,559.1482,559.6471,,,,,,190,MAS,AGR,150,campo,el,l,0.4535,,559.6473,559.6476,0.049915082,-0.417259681,0,0,0,,0,203,203,189,1,,,,
,,,,,,78ac0f6de5e916ef1b7d2b63,66a626ef09d4e21e1a8894ec,6735eec3eb205d14d21e4459,2024-11-14_13h37.24.222,Tarea de género gramatical,2024.2.2,MacIntel,60.24096386,,,,,,,,,,,,,,,,,,,,,,,559.6492,560.7144,a,1,[],[],[],[],[],[],[],0.3835,1,560.7145,561.2147,,,,,,209,MAS,CON,150,banco,,l,0.3835,,561.2167,561.2181,0.049915082,-0.417259681,0,0,0,,0,204,204,208,1,,,,
,,,,,,78ac0f6de5e916ef1b7d2b63,66a626ef09d4e21e1a8894ec,6735eec3eb205d14d21e4459,2024-11-14_13h37.24.222,Tarea de género gramatical,2024.2.2,MacIntel,60.24096386,,,,,,,,,,,,,,,,,,,,,,,561.219,562.2973,a,1,[],[],[],[],[],[],[],0.4024,1,562.2979,562.7982,,,,,,180,MAS,DIS,150,fuego,la,l,0.4024,,562.7982,562.7984,0.049915082,-0.417259681,0,0,0,,0,205,205,179,1,,,,
,,,,,,78ac0f6de5e916ef1b7d2b63,66a626ef09d4e21e1a8894ec,6735eec3eb205d14d21e4459,2024-11-14_13h37.24.222,Tarea de género gramatical,2024.2.2,MacIntel,60.24096386,,,,,,,,,,,,,,,,,,,,,,,562.8009,563.7986,a,1,[],[],[],[],[],[],[],0.3291,1,563.7987,564.2981,,,,,,120,MAS,DIS,150,puño,la,l,0.3291,,564.2982,564.2983,0.049915082,-0.417259681,0,0,0,,0,206,206,119,1,,,,
,,,,,,78ac0f6de5e916ef1b7d2b63,66a626ef09d4e21e1a8894ec,6735eec3eb205d14d21e4459,2024-11-14_13h37.24.222,Tarea de género gramatical,2024.2.2,MacIntel,60.24096386,,,,,,,,,,,,,,,,,,,,,,,564.3002,565.3637,a,1,[],[],[],[],[],[],[],0.3848,1,565.3638,565.864,,,,,,431,MAS,CON,150,veneno,,l,0.3848,,565.864,565.8641,0.049915082,-0.417259681,0,0,0,,0,207,207,430,1,,,,
,,,,,,78ac0f6de5e916ef1b7d2b63,66a626ef09d4e21e1a8894ec,6735eec3eb205d14d21e4459,2024-11-14_13h37.24.222,Tarea de género gramatical,2024.2.2,MacIntel,60.24096386,,,,,,,,,,,,,,,,,,,,,,,565.8646,567.0471,a,1,[],[],[],[],[],[],[],0.4992,1,567.0472,567.548,,,,,,352,MAS,AGR,150,estilo,el,l,0.4992,,567.5481,567.5482,0.049915082,-0.417259681,0,0,0,,0,208,208,351,1,,,,
,,,,,,78ac0f6de5e916ef1b7d2b63,66a626ef09d4e21e1a8894ec,6735eec3eb205d14d21e4459,2024-11-14_13h37.24.222,Tarea de género gramatical,2024.2.2,MacIntel,60.24096386,,,,,,,,,,,,,,,,,,,,,,,567.5503,568.498,a,1,[],[],[],[],[],[],[],0.2798,1,568.4981,568.998,,,,,,70,MAS,AGR,150,palo,el,l,0.2798,,568.9997,569.0009,0.049915082,-0.417259681,0,0,0,,0,209,209,69,1,,,,
,,,,,,78ac0f6de5e916ef1b7d2b63,66a626ef09d4e21e1a8894ec,6735eec3eb205d14d21e4459,2024-11-14_13h37.24.222,Tarea de género gramatical,2024.2.2,MacIntel,60.24096386,,,,,,,,,,,,,,,,,,,,,,,569.0019,570.0811,a,1,[],[],[],[],[],[],[],0.405,1,570.0812,570.5805,,,,,,210,MAS,DIS,150,baile,la,l,0.405,,570.5813,570.5814,0.049915082,-0.417259681,0,0,0,,0,210,210,209,1,,,,
,,,,,,78ac0f6de5e916ef1b7d2b63,66a626ef09d4e21e1a8894ec,6735eec3eb205d14d21e4459,2024-11-14_13h37.24.222,Tarea de género gramatical,2024.2.2,MacIntel,60.24096386,,,,,,,,,,,,,,,,,,,,,,,570.5829,571.5982,a,1,[],[],[],[],[],[],[],0.342,1,571.5982,572.097,,,,,,299,MAS,CON,150,rumbo,,l,0.342,,572.0974,572.0976,0.049915082,-0.417259681,0,0,0,,0,211,211,298,1,,,,
,,,,,,78ac0f6de5e916ef1b7d2b63,66a626ef09d4e21e1a8894ec,6735eec3eb205d14d21e4459,2024-11-14_13h37.24.222,Tarea de género gramatical,2024.2.2,MacIntel,60.24096386,,,,,,,,,,,,,,,,,,,,,,,572.0993,573.2147,l,1,[],[],[],[],[],[],[],0.4387,1,573.2149,573.714,,,,,,392,FEM,CON,150,maleta,,a,0.4387,,573.7141,573.7142,0.049915082,-0.417259681,0,0,0,,0,212,212,391,1,,,,
,,,,,,78ac0f6de5e916ef1b7d2b63,66a626ef09d4e21e1a8894ec,6735eec3eb205d14d21e4459,2024-11-14_13h37.24.222,Tarea de género gramatical,2024.2.2,MacIntel,60.24096386,,,,,,,,,,,,,,,,,,,,,,,573.7161,574.7643,l,1,[],[],[],[],[],[],[],0.3691,1,574.7644,575.2642,,,,,,237,FEM,DIS,150,ducha,el,a,0.3691,,575.2661,575.2671,0.049915082,-0.417259681,0,0,0,,0,213,213,236,1,,,,
,,,,,,78ac0f6de5e916ef1b7d2b63,66a626ef09d4e21e1a8894ec,6735eec3eb205d14d21e4459,2024-11-14_13h37.24.222,Tarea de género gramatical,2024.2.2,MacIntel,60.24096386,,,,,,,,,,,,,,,,,,,,,,,575.2678,576.4138,a,1,[],[],[],[],[],[],[],0.4691,1,576.414,576.9143,,,,,,90,MAS,DIS,150,león,la,l,0.4691,,576.9143,576.9145,0.049915082,-0.417259681,0,0,0,,0,214,214,89,1,,,,
,,,,,,78ac0f6de5e916ef1b7d2b63,66a626ef09d4e21e1a8894ec,6735eec3eb205d14d21e4459,2024-11-14_13h37.24.222,Tarea de género gramatical,2024.2.2,MacIntel,60.24096386,,,,,,,,,,,,,,,,,,,,,,,576.9154,578.0975,a,0,[],[],[],[],[],[],[],0.5217,0,578.0983,578.5977,,,,,,25,FEM,AGR,150,nave,la,a,0.5217,,578.5979,578.5979,0.049915082,-0.417259681,0,0,0,,0,215,215,24,1,,,,
,,,,,,78ac0f6de5e916ef1b7d2b63,66a626ef09d4e21e1a8894ec,6735eec3eb205d14d21e4459,2024-11-14_13h37.24.222,Tarea de género gramatical,2024.2.2,MacIntel,60.24096386,,,,,,,,,,,,,,,,,,,,,,,578.6012,579.7811,a,1,[],[],[],[],[],[],[],0.5143,1,579.7819,580.2809,,,,,,426,MAS,DIS,150,pánico,la,l,0.5143,,580.281,580.2811,0.049915082,-0.417259681,0,0,0,,0,216,216,425,1,,,,
,,,,,,78ac0f6de5e916ef1b7d2b63,66a626ef09d4e21e1a8894ec,6735eec3eb205d14d21e4459,2024-11-14_13h37.24.222,Tarea de género gramatical,2024.2.2,MacIntel,60.24096386,,,,,,,,,,,,,,,,,,,,,,,580.2816,581.6801,a,0,[],[],[],[],[],[],[],0.7256,0,581.6806,582.1814,,,,,,147,FEM,DIS,150,grúa,el,a,0.7256,,582.1816,582.1819,0.049915082,-0.417259681,0,0,0,,0,217,217,146,1,,,,
,,,,,,78ac0f6de5e916ef1b7d2b63,66a626ef09d4e21e1a8894ec,6735eec3eb205d14d21e4459,2024-11-14_13h37.24.222,Tarea de género gramatical,2024.2.2,MacIntel,60.24096386,,,,,,,,,,,,,,,,,,,,,,,582.1847,583.4473,l,1,[],[],[],[],[],[],[],0.5945,1,583.4487,583.9472,,,,,,67,FEM,AGR,150,miel,la,a,0.5945,,583.9497,583.9514,0.049915082,-0.417259681,0,0,0,,0,218,218,66,1,,,,
,,,,,,78ac0f6de5e916ef1b7d2b63,66a626ef09d4e21e1a8894ec,6735eec3eb205d14d21e4459,2024-11-14_13h37.24.222,Tarea de género gramatical,2024.2.2,MacIntel,60.24096386,,,,,,,,,,,,,,,,,,,,,,,583.9526,585.081,a,1,[],[],[],[],[],[],[],0.4526,1,585.0811,585.5813,,,,,,450,MAS,DIS,150,conejo,la,l,0.4526,,585.5813,585.5815,0.049915082,-0.417259681,0,0,0,,0,219,219,449,1,,,,
,,,,,,78ac0f6de5e916ef1b7d2b63,66a626ef09d4e21e1a8894ec,6735eec3eb205d14d21e4459,2024-11-14_13h37.24.222,Tarea de género gramatical,2024.2.2,MacIntel,60.24096386,,,,,,,,,,,,,,,,,,,,,,,585.5828,586.8481,a,0,[],[],[],[],[],[],[],0.5871,0,586.8493,587.348,,,,,,135,FEM,DIS,150,raíz,el,a,0.5871,,587.3481,587.3483,0.049915082,-0.417259681,0,0,0,,0,220,220,134,1,,,,
,,,,,,78ac0f6de5e916ef1b7d2b63,66a626ef09d4e21e1a8894ec,6735eec3eb205d14d21e4459,2024-11-14_13h37.24.222,Tarea de género gramatical,2024.2.2,MacIntel,60.24096386,,,,,,,,,,,,,,,,,,,,,,,587.35,588.4146,l,1,[],[],[],[],[],[],[],0.3854,1,588.4158,588.9148,,,,,,182,FEM,CON,150,prisa,,a,0.3854,,588.9149,588.915,0.049915082,-0.417259681,0,0,0,,0,221,221,181,1,,,,
,,,,,,78ac0f6de5e916ef1b7d2b63,66a626ef09d4e21e1a8894ec,6735eec3eb205d14d21e4459,2024-11-14_13h37.24.222,Tarea de género gramatical,2024.2.2,MacIntel,60.24096386,,,,,,,,,,,,,,,,,,,,,,,588.9164,589.8814,l,1,[],[],[],[],[],[],[],0.2824,1,589.8816,590.3813,,,,,,122,FEM,CON,150,loca,,a,0.2824,,590.3832,590.3844,0.049915082,-0.417259681,0,0,0,,0,222,222,121,1,,,,
,,,,,,78ac0f6de5e916ef1b7d2b63,66a626ef09d4e21e1a8894ec,6735eec3eb205d14d21e4459,2024-11-14_13h37.24.222,Tarea de género gramatical,2024.2.2,MacIntel,60.24096386,,,,,,,,,,,,,,,,,,,,,,,590.3854,591.3315,l,1,[],[],[],[],[],[],[],0.2659,1,591.3316,591.8309,,,,,,405,FEM,DIS,150,parada,el,a,0.2659,,591.8311,591.8311,0.049915082,-0.417259681,0,0,0,,0,223,223,404,1,,,,
,,,,,,78ac0f6de5e916ef1b7d2b63,66a626ef09d4e21e1a8894ec,6735eec3eb205d14d21e4459,2024-11-14_13h37.24.222,Tarea de género gramatical,2024.2.2,MacIntel,60.24096386,,,,,,,,,,,,,,,,,,,,,,,591.8317,592.9148,l,1,[],[],[],[],[],[],[],0.4045,1,592.915,593.415,,,,,,301,FEM,AGR,150,verdad,la,a,0.4045,,593.415,593.4152,0.049915082,-0.417259681,0,0,0,,0,224,224,300,1,,,,
,,,,,,78ac0f6de5e916ef1b7d2b63,66a626ef09d4e21e1a8894ec,6735eec3eb205d14d21e4459,2024-11-14_13h37.24.222,Tarea de género gramatical,2024.2.2,MacIntel,60.24096386,,,,,,,,,,,,,,,,,,,,,,,593.4171,594.4306,l,1,[],[],[],[],[],[],[],0.3354,1,594.4308,594.9315,,,,,,14,FEM,CON,150,cara,,a,0.3354,,594.9316,594.9318,0.049915082,-0.417259681,0,0,0,,0,225,225,13,1,,,,
,,,,,,78ac0f6de5e916ef1b7d2b63,66a626ef09d4e21e1a8894ec,6735eec3eb205d14d21e4459,2024-11-14_13h37.24.222,Tarea de género gramatical,2024.2.2,MacIntel,60.24096386,,,,,,,,,,,,,,,,,,,,,,,594.9335,596.0145,l,1,[],[],[],[],[],[],[],0.4121,1,596.0147,596.5148,,,,,,363,FEM,DIS,150,unidad,el,a,0.4121,,596.5149,596.515,0.049915082,-0.417259681,0,0,0,,0,226,226,362,1,,,,
,,,,,,78ac0f6de5e916ef1b7d2b63,66a626ef09d4e21e1a8894ec,6735eec3eb205d14d21e4459,2024-11-14_13h37.24.222,Tarea de género gramatical,2024.2.2,MacIntel,60.24096386,,,,,,,,,,,,,,,,,,,,,,,596.5168,597.6158,l,1,[],[],[],[],[],[],[],0.4298,1,597.616,598.1147,,,,,,429,FEM,DIS,150,fianza,el,a,0.4298,,598.1165,598.1177,0.049915082,-0.417259681,0,0,0,,0,227,227,428,1,,,,
,,,,,,78ac0f6de5e916ef1b7d2b63,66a626ef09d4e21e1a8894ec,6735eec3eb205d14d21e4459,2024-11-14_13h37.24.222,Tarea de género gramatical,2024.2.2,MacIntel,60.24096386,,,,,,,,,,,,,,,,,,,,,,,598.1187,599.1309,l,1,[],[],[],[],[],[],[],0.3316,1,599.1309,599.6309,,,,,,39,FEM,DIS,150,luna,el,a,0.3316,,599.631,599.631,0.049915082,-0.417259681,0,0,0,,0,228,228,38,1,,,,
,,,,,,78ac0f6de5e916ef1b7d2b63,66a626ef09d4e21e1a8894ec,6735eec3eb205d14d21e4459,2024-11-14_13h37.24.222,Tarea de género gramatical,2024.2.2,MacIntel,60.24096386,,,,,,,,,,,,,,,,,,,,,,,599.6317,600.6148,l,1,[],[],[],[],[],[],[],0.3005,1,600.6149,601.1138,,,,,,284,FEM,CON,150,fruta,,a,0.3005,,601.1138,601.1138,0.049915082,-0.417259681,0,0,0,,0,229,229,283,1,,,,
,,,,,,78ac0f6de5e916ef1b7d2b63,66a626ef09d4e21e1a8894ec,6735eec3eb205d14d21e4459,2024-11-14_13h37.24.222,Tarea de género gramatical,2024.2.2,MacIntel,60.24096386,,,,,,,,,,,,,,,,,,,,,,,601.1154,602.1143,l,1,[],[],[],[],[],[],[],0.3178,1,602.1145,602.6136,,,,,,230,FEM,CON,150,regla,,a,0.3178,,602.6137,602.6137,0.049915082,-0.417259681,0,0,0,,0,230,230,229,1,,,,
,,,,,,78ac0f6de5e916ef1b7d2b63,66a626ef09d4e21e1a8894ec,6735eec3eb205d14d21e4459,2024-11-14_13h37.24.222,Tarea de género gramatical,2024.2.2,MacIntel,60.24096386,,,,,,,,,,,,,,,,,,,,,,,602.6142,603.6476,l,1,[],[],[],[],[],[],[],0.3651,1,603.6478,604.1477,,,,,,398,FEM,CON,150,hierba,,a,0.3651,,604.1488,604.1496,0.049915082,-0.417259681,0,0,0,,0,231,231,397,1,,,,
,,,,,,78ac0f6de5e916ef1b7d2b63,66a626ef09d4e21e1a8894ec,6735eec3eb205d14d21e4459,2024-11-14_13h37.24.222,Tarea de género gramatical,2024.2.2,MacIntel,60.24096386,,,,,,,,,,,,,,,,,,,,,,,604.1502,605.1316,a,1,[],[],[],[],[],[],[],0.3017,1,605.1318,605.6311,,,,,,372,MAS,DIS,150,delito,la,l,0.3017,,605.6312,605.6312,0.049915082,-0.417259681,0,0,0,,0,232,232,371,1,,,,
,,,,,,78ac0f6de5e916ef1b7d2b63,66a626ef09d4e21e1a8894ec,6735eec3eb205d14d21e4459,2024-11-14_13h37.24.222,Tarea de género gramatical,2024.2.2,MacIntel,60.24096386,,,,,,,,,,,,,,,,,,,,,,,605.6317,606.7147,a,1,[],[],[],[],[],[],[],0.4006,1,606.7148,607.2149,,,,,,432,MAS,DIS,150,océano,la,l,0.4006,,607.2149,607.2151,0.049915082,-0.417259681,0,0,0,,0,233,233,431,1,,,,
,,,,,,78ac0f6de5e916ef1b7d2b63,66a626ef09d4e21e1a8894ec,6735eec3eb205d14d21e4459,2024-11-14_13h37.24.222,Tarea de género gramatical,2024.2.2,MacIntel,60.24096386,,,,,,,,,,,,,,,,,,,,,,,607.2169,608.2637,a,1,[],[],[],[],[],[],[],0.3715,1,608.2639,608.7643,,,,,,106,MAS,AGR,150,test,el,l,0.3715,,608.7644,608.7644,0.049915082,-0.417259681,0,0,0,,0,234,234,105,1,,,,
,,,,,,78ac0f6de5e916ef1b7d2b63,66a626ef09d4e21e1a8894ec,6735eec3eb205d14d21e4459,2024-11-14_13h37.24.222,Tarea de género gramatical,2024.2.2,MacIntel,60.24096386,,,,,,,,,,,,,,,,,,,,,,,608.7654,609.7475,a,0,[],[],[],[],[],[],[],0.309,0,609.7482,610.2481,,,,,,225,FEM,DIS,150,pieza,el,a,0.309,,610.2482,610.2484,0.049915082,-0.417259681,0,0,0,,0,235,235,224,1,,,,
,,,,,,78ac0f6de5e916ef1b7d2b63,66a626ef09d4e21e1a8894ec,6735eec3eb205d14d21e4459,2024-11-14_13h37.24.222,Tarea de género gramatical,2024.2.2,MacIntel,60.24096386,,,,,,,,,,,,,,,,,,,,,,,610.2503,611.3136,a,1,[],[],[],[],[],[],[],0.3838,1,611.3144,611.8146,,,,,,396,MAS,DIS,150,tesoro,la,l,0.3838,,611.8162,611.8175,0.049915082,-0.417259681,0,0,0,,0,236,236,395,1,,,,
,,,,,,78ac0f6de5e916ef1b7d2b63,66a626ef09d4e21e1a8894ec,6735eec3eb205d14d21e4459,2024-11-14_13h37.24.222,Tarea de género gramatical,2024.2.2,MacIntel,60.24096386,,,,,,,,,,,,,,,,,,,,,,,611.8184,612.8313,l,1,[],[],[],[],[],[],[],0.3373,1,612.8316,613.3313,,,,,,8,FEM,CON,150,idea,,a,0.3373,,613.3315,613.3316,0.049915082,-0.417259681,0,0,0,,0,237,237,7,1,,,,
,,,,,,78ac0f6de5e916ef1b7d2b63,66a626ef09d4e21e1a8894ec,6735eec3eb205d14d21e4459,2024-11-14_13h37.24.222,Tarea de género gramatical,2024.2.2,MacIntel,60.24096386,,,,,,,,,,,,,,,,,,,,,,,613.3337,614.3487,a,1,[],[],[],[],[],[],[],0.3453,1,614.3487,614.848,,,,,,84,MAS,DIS,150,mago,la,l,0.3453,,614.848,614.8481,0.049915082,-0.417259681,0,0,0,,0,238,238,83,1,,,,
,,,,,,78ac0f6de5e916ef1b7d2b63,66a626ef09d4e21e1a8894ec,6735eec3eb205d14d21e4459,2024-11-14_13h37.24.222,Tarea de género gramatical,2024.2.2,MacIntel,60.24096386,,,,,,,,,,,,,,,,,,,,,,,614.8499,615.798,l,1,[],[],[],[],[],[],[],0.2707,1,615.7981,616.298,,,,,,229,FEM,AGR,150,celda,la,a,0.2707,,616.2981,616.2982,0.049915082,-0.417259681,0,0,0,,0,239,239,228,1,,,,
,,,,,,78ac0f6de5e916ef1b7d2b63,66a626ef09d4e21e1a8894ec,6735eec3eb205d14d21e4459,2024-11-14_13h37.24.222,Tarea de género gramatical,2024.2.2,MacIntel,60.24096386,,,,,,,,,,,,,,,,,,,,,,,616.2999,617.2815,l,1,[],[],[],[],[],[],[],0.3034,1,617.2816,617.781,,,,,,81,FEM,DIS,150,cima,el,a,0.3034,,617.7819,617.7823,0.049915082,-0.417259681,0,0,0,,0,240,240,80,1,,,,
,,,,,,78ac0f6de5e916ef1b7d2b63,66a626ef09d4e21e1a8894ec,6735eec3eb205d14d21e4459,2024-11-14_13h37.24.222,Tarea de género gramatical,2024.2.2,MacIntel,60.24096386,,,,,,,,,,,,,,,,,,,,,,,617.7827,618.8646,a,1,[],[],[],[],[],[],[],0.4023,1,618.8648,619.3647,,,,,,311,MAS,CON,150,camino,,l,0.4023,,619.3648,619.365,0.049915082,-0.417259681,0,0,0,,0,241,241,310,1,,,,
,,,,,,78ac0f6de5e916ef1b7d2b63,66a626ef09d4e21e1a8894ec,6735eec3eb205d14d21e4459,2024-11-14_13h37.24.222,Tarea de género gramatical,2024.2.2,MacIntel,60.24096386,,,,,,,,,,,,,,,,,,,,,,,619.3668,620.2813,a,1,[],[],[],[],[],[],[],0.2377,1,620.2816,620.7812,,,,,,275,MAS,CON,150,disco,,l,0.2377,,620.7813,620.7815,0.049915082,-0.417259681,0,0,0,,0,242,242,274,1,,,,
,,,,,,78ac0f6de5e916ef1b7d2b63,66a626ef09d4e21e1a8894ec,6735eec3eb205d14d21e4459,2024-11-14_13h37.24.222,Tarea de género gramatical,2024.2.2,MacIntel,60.24096386,,,,,,,,,,,,,,,,,,,,,,,620.7832,621.9811,a,1,[],[],[],[],[],[],[],0.5167,1,621.9812,622.4816,,,,,,412,MAS,AGR,150,espejo,el,l,0.5167,,622.4817,622.4818,0.049915082,-0.417259681,0,0,0,,0,243,243,411,1,,,,
,,,,,,78ac0f6de5e916ef1b7d2b63,66a626ef09d4e21e1a8894ec,6735eec3eb205d14d21e4459,2024-11-14_13h37.24.222,Tarea de género gramatical,2024.2.2,MacIntel,60.24096386,,,,,,,,,,,,,,,,,,,,,,,622.4839,623.6668,a,1,[],[],[],[],[],[],[],0.5151,1,623.6671,624.1644,,,,,,83,MAS,CON,150,nene,,l,0.5151,,624.1644,624.1646,0.049915082,-0.417259681,0,0,0,,0,244,244,82,1,,,,
,,,,,,78ac0f6de5e916ef1b7d2b63,66a626ef09d4e21e1a8894ec,6735eec3eb205d14d21e4459,2024-11-14_13h37.24.222,Tarea de género gramatical,2024.2.2,MacIntel,60.24096386,,,,,,,,,,,,,,,,,,,,,,,624.1657,625.2809,l,1,[],[],[],[],[],[],[],0.44,1,625.2811,625.7813,,,,,,338,FEM,CON,150,abuela,,a,0.44,,625.7838,625.7852,0.049915082,-0.417259681,0,0,0,,0,245,245,337,1,,,,
,,,,,,78ac0f6de5e916ef1b7d2b63,66a626ef09d4e21e1a8894ec,6735eec3eb205d14d21e4459,2024-11-14_13h37.24.222,Tarea de género gramatical,2024.2.2,MacIntel,60.24096386,,,,,,,,,,,,,,,,,,,,,,,625.7861,626.7976,l,1,[],[],[],[],[],[],[],0.3331,1,626.7977,627.298,,,,,,194,FEM,CON,150,banda,,a,0.3331,,627.2981,627.2982,0.049915082,-0.417259681,0,0,0,,0,246,246,193,1,,,,
,,,,,,78ac0f6de5e916ef1b7d2b63,66a626ef09d4e21e1a8894ec,6735eec3eb205d14d21e4459,2024-11-14_13h37.24.222,Tarea de género gramatical,2024.2.2,MacIntel,60.24096386,,,,,,,,,,,,,,,,,,,,,,,627.3001,628.4481,a,1,[],[],[],[],[],[],[],0.467,1,628.4481,628.9358,,,,,,52,MAS,AGR,150,lago,el,l,0.467,,628.9358,628.9359,0.049915082,-0.417259681,0,0,0,,0,247,247,51,1,,,,
,,,,,,78ac0f6de5e916ef1b7d2b63,66a626ef09d4e21e1a8894ec,6735eec3eb205d14d21e4459,2024-11-14_13h37.24.222,Tarea de género gramatical,2024.2.2,MacIntel,60.24096386,,,,,,,,,,,,,,,,,,,,,,,628.9365,630.1305,a,1,[],[],[],[],[],[],[],0.5189,1,630.1305,630.6308,,,,,,11,MAS,CON,150,país,,l,0.5189,,630.6309,630.631,0.049915082,-0.417259681,0,0,0,,0,248,248,10,1,,,,
,,,,,,78ac0f6de5e916ef1b7d2b63,66a626ef09d4e21e1a8894ec,6735eec3eb205d14d21e4459,2024-11-14_13h37.24.222,Tarea de género gramatical,2024.2.2,MacIntel,60.24096386,,,,,,,,,,,,,,,,,,,,,,,630.6315,631.6336,a,1,[],[],[],[],[],[],[],0.3432,1,631.6337,632.1313,,,,,,149,MAS,CON,150,nudo,,l,0.3432,,632.1339,632.1349,0.049915082,-0.417259681,0,0,0,,0,249,249,148,1,,,,
