counterbalancing_condition,consent_prescreening.block_1/declare_consent,consent_prescreening.block_1/age_years,consent_prescreening.block_1/gender,consent_prescreening.block_1/language_disorder,consent_prescreening.block_1/first_language,PROLIFIC_PID,STUDY_ID,SESSION_ID,date,expName,psychopyVersion,OS,frameRate,check_prescreening_answers.started,check_prescreening_answers.stopped,Instructions.started,Instructions.stopped,instr_done_keyboard.keys,instr_done_keyboard.rt,instr_done_keyboard.duration,instr_done_touch.x,instr_done_touch.y,instr_done_touch.leftButton,instr_done_touch.midButton,instr_done_touch.rightButton,instruction_pages.thisRepN,instruction_pages.thisTrialN,instruction_pages.thisN,instruction_pages.thisIndex,instruction_pages.ran,pageN,phase,instruct_text,has_image,instruct_image,presentTrial.started,presentTrial.stopped,response.keys,response.corr,response.rt,response.duration,touch_resp.x,touch_resp.y,touch_resp.leftButton,touch_resp.midButton,touch_resp.rightButton,touch_resp.time,touch_resp.clicked_name,rt,corr,feedback.started,feedback.stopped,practice_trials.thisRepN,practice_trials.thisTrialN,practice_trials.thisN,practice_trials.thisIndex,practice_trials.ran,TrialID,StimulusType,Condition,PrimeDuration,Prime,Flanker,corrAns,Break.started,Break.stopped,break_done_touch.x,break_done_touch.y,break_done_touch.leftButton,break_done_touch.midButton,break_done_touch.rightButton,break_done_keyboard.keys,experiment_trials.thisRepN,experiment_trials.thisTrialN,experiment_trials.thisN,experiment_trials.thisIndex,experiment_trials.ran,break_done_keyboard.rt,break_done_keyboard.duration,End.started,End.stopped
0,"[""comfortable"",""read_info"",""consent_given"",""over_18""]",41,F,"[""none""]","[""spanish""]",7d224d7cf3340daa83413f26,66a626ef09d4e21e1a8894ec,67373fb7eed183810e118ab7,2024-11-15_13h34.28.234,Tarea de género gramatical,2024.2.2,MacIntel,62.5,,,,,,,,,,,,,,,,,,,,,,,,,,,,,,,,,,,,,,,,,,,,,,,,,,,,,,,,,,,,,,,,,,,,
,,,,,,7d224d7cf3340daa83413f26,66a626ef09d4e21e1a8894ec,67373fb7eed183810e118ab7,2024-11-15_13h34.28.234,Tarea de género gramatical,2024.2.2,MacIntel,62.5,27.05,27.051,,,,,,,,,,,,,,,,,,,,,,,,,,,,,,,,,,,,,,,,,,,,,,,,,,,,,,,,,,,,,,,,,,
,,,,,,7d224d7cf3340daa83413f26,66a626ef09d4e21e1a8894ec,67373fb7eed183810e118ab7,2024-11-15_13h34.28.234,Tarea de género gramatical,2024.2.2,MacIntel,62.5,,,27.071,36.647,space,9.436,,-0.207608696,-0.359782609,0,0,0,0,0,0,0,1,1,instructions,"INSTRUCCIONES
Va a realizar una prueba de selección gramatical. Desde el comienzo de la prueba mire siempre al centro de la pantalla. Al cabo de un momento, aparecerán palabras. La tarea consiste en determinar si la palabra del centro (siempre será un sustantivo), pertenece al género masculino o femenino.

Pulse la tecla ESPACIO o toque el botón de abajo para continuar.",0,keyboardresponseFM.png,,,,,,,,,,,,,,,,,,,,,,,,,,,,,,,,,,,,,,,,,,,,,,
,,,,,,7d224d7cf3340daa83413f26,66a626ef09d4e21e1a8894ec,67373fb7eed183810e118ab7,2024-11-15_13h34.28.234,Tarea de género gramatical,2024.2.2,MacIntel,62.5,,,36.649,50.836,space,14.14,,-0.207608696,-0.359782609,0,0,0,0,1,1,1,1,2,instructions,"Si su dispositivo tiene teclado, pulse la tecla ""A"" para las palabras en femenino (por ejemplo: ""mano"") y la tecla ""L"" para las palabras en masculino(por ejemplo: ""arroz"").
Pulse la tecla ESPACIO o toque el botón de abajo para continuar.",1,keyboardresponseFM.png,,,,,,,,,,,,,,,,,,,,,,,,,,,,,,,,,,,,,,,,,,,,,,
,,,,,,7d224d7cf3340daa83413f26,66a626ef09d4e21e1a8894ec,67373fb7eed183810e118ab7,2024-11-15_13h34.28.234,Tarea de género gramatical,2024.2.2,MacIntel,62.5,,,50.846,56.218,space,5.311,,-0.207608696,-0.359782609,0,0,0,0,2,2,2,1,3,instructions,"Si utiliza un dispositivo sólo táctil, colóquelo en horizontal y utilice los botones de la pantalla. No utilice el ratón.
Pulse la tecla ESPACIO o toque el botón de abajo para continuar.",2,touchresponseFM.png,,,,,,,,,,,,,,,,,,,,,,,,,,,,,,,,,,,,,,,,,,,,,,
,,,,,,7d224d7cf3340daa83413f26,66a626ef09d4e21e1a8894ec,67373fb7eed183810e118ab7,2024-11-15_13h34.28.234,Tarea de género gramatical,2024.2.2,MacIntel,62.5,,,56.222,62.433,space,6.169,,-0.207608696,-0.359782609,0,0,0,0,3,3,3,1,4,instructions,"Es muy importante que responda con la mayor rapidez y precisión posibles, ya que cada cadena de letras sólo estará en pantalla durante un instante. Si no responde en ese tiempo, aparecerá el mensaje ""Muy lento"" y el experimento pasará a la siguiente palabra. Los primeros 15 intentos serán de práctica y habrá dos descansos durante la prueba.
Pulse la tecla ESPACIO o toque el botón de abajo para iniciar la parte de práctica.",0,keyboardresponseFM.png,,,,,,,,,,,,,,,,,,,,,,,,,,,,,,,,,,,,,,,,,,,,,,
,,,,,,7d224d7cf3340daa83413f26,66a626ef09d4e21e1a8894ec,67373fb7eed183810e118ab7,2024-11-15_13h34.28.234,Tarea de género gramatical,2024.2.2,MacIntel,62.5,,,,,,,,,,,,,,,,,,,,,,,62.452,64.218,l,0,1.095,,[],[],[],[],[],[],[],1.095,0,64.219,64.716,0,0,0,0,1,2001,FEM,AGR,150,nuca,la,a,,,,,,,,,,,,,,,,,
,,,,,,7d224d7cf3340daa83413f26,66a626ef09d4e21e1a8894ec,67373fb7eed183810e118ab7,2024-11-15_13h34.28.234,Tarea de género gramatical,2024.2.2,MacIntel,62.5,,,,,,,,,,,,,,,,,,,,,,,64.717,66.403,a,0,1.001,,[],[],[],[],[],[],[],1.001,0,66.403,66.899,0,1,1,11,1,2012,MAS,DIS,150,clima,la,l,,,,,,,,,,,,,,,,,
,,,,,,7d224d7cf3340daa83413f26,66a626ef09d4e21e1a8894ec,67373fb7eed183810e118ab7,2024-11-15_13h34.28.234,Tarea de género gramatical,2024.2.2,MacIntel,62.5,,,,,,,,,,,,,,,,,,,,,,,66.901,68.532,a,1,0.951,,[],[],[],[],[],[],[],0.951,1,68.533,69.032,0,2,2,5,1,2006,FEM,DIS,150,serie,el,a,,,,,,,,,,,,,,,,,
,,,,,,7d224d7cf3340daa83413f26,66a626ef09d4e21e1a8894ec,67373fb7eed183810e118ab7,2024-11-15_13h34.28.234,Tarea de género gramatical,2024.2.2,MacIntel,62.5,,,,,,,,,,,,,,,,,,,,,,,69.034,70.299,a,1,0.583,,[],[],[],[],[],[],[],0.583,1,70.299,70.799,0,3,3,2,1,2003,FEM,DIS,150,daga,el,a,,,,,,,,,,,,,,,,,
,,,,,,7d224d7cf3340daa83413f26,66a626ef09d4e21e1a8894ec,67373fb7eed183810e118ab7,2024-11-15_13h34.28.234,Tarea de género gramatical,2024.2.2,MacIntel,62.5,,,,,,,,,,,,,,,,,,,,,,,70.8,72.217,l,1,0.756,,[],[],[],[],[],[],[],0.756,1,72.217,72.715,0,4,4,12,1,2013,MAS,AGR,150,acero,el,l,,,,,,,,,,,,,,,,,
,,,,,,7d224d7cf3340daa83413f26,66a626ef09d4e21e1a8894ec,67373fb7eed183810e118ab7,2024-11-15_13h34.28.234,Tarea de género gramatical,2024.2.2,MacIntel,62.5,,,,,,,,,,,,,,,,,,,,,,,72.716,73.787,a,1,0.394,,[],[],[],[],[],[],[],0.394,1,73.787,74.282,0,5,5,4,1,2005,FEM,CON,150,placa,,a,,,,,,,,,,,,,,,,,
,,,,,,7d224d7cf3340daa83413f26,66a626ef09d4e21e1a8894ec,67373fb7eed183810e118ab7,2024-11-15_13h34.28.234,Tarea de género gramatical,2024.2.2,MacIntel,62.5,,,,,,,,,,,,,,,,,,,,,,,74.282,75.883,l,1,0.938,,[],[],[],[],[],[],[],0.938,1,75.883,76.382,0,6,6,8,1,2009,MAS,DIS,150,puerto,la,l,,,,,,,,,,,,,,,,,
,,,,,,7d224d7cf3340daa83413f26,66a626ef09d4e21e1a8894ec,67373fb7eed183810e118ab7,2024-11-15_13h34.28.234,Tarea de género gramatical,2024.2.2,MacIntel,62.5,,,,,,,,,,,,,,,,,,,,,,,76.383,77.604,a,1,0.543,,[],[],[],[],[],[],[],0.543,1,77.604,78.099,0,7,7,1,1,2002,FEM,CON,150,pala,,a,,,,,,,,,,,,,,,,,
,,,,,,7d224d7cf3340daa83413f26,66a626ef09d4e21e1a8894ec,67373fb7eed183810e118ab7,2024-11-15_13h34.28.234,Tarea de género gramatical,2024.2.2,MacIntel,62.5,,,,,,,,,,,,,,,,,,,,,,,78.1,79.214,l,1,0.435,,[],[],[],[],[],[],[],0.435,1,79.215,79.716,0,8,8,10,1,2011,MAS,CON,150,canal,,l,,,,,,,,,,,,,,,,,
,,,,,,7d224d7cf3340daa83413f26,66a626ef09d4e21e1a8894ec,67373fb7eed183810e118ab7,2024-11-15_13h34.28.234,Tarea de género gramatical,2024.2.2,MacIntel,62.5,,,,,,,,,,,,,,,,,,,,,,,79.717,80.866,a,0,0.474,,[],[],[],[],[],[],[],0.474,0,80.866,81.366,0,9,9,13,1,2014,MAS,CON,150,siglo,,l,,,,,,,,,,,,,,,,,
,,,,,,7d224d7cf3340daa83413f26,66a626ef09d4e21e1a8894ec,67373fb7eed183810e118ab7,2024-11-15_13h34.28.234,Tarea de género gramatical,2024.2.2,MacIntel,62.5,,,,,,,,,,,,,,,,,,,,,,,81.367,82.681,a,0,0.632,,[],[],[],[],[],[],[],0.632,0,82.681,83.182,0,10,10,9,1,2010,MAS,AGR,150,vecino,el,l,,,,,,,,,,,,,,,,,
,,,,,,7d224d7cf3340daa83413f26,66a626ef09d4e21e1a8894ec,67373fb7eed183810e118ab7,2024-11-15_13h34.28.234,Tarea de género gramatical,2024.2.2,MacIntel,62.5,,,,,,,,,,,,,,,,,,,,,,,83.184,84.449,a,1,0.584,,[],[],[],[],[],[],[],0.584,1,84.449,84.949,0,11,11,6,1,2007,FEM,AGR,150,navaja,la,a,,,,,,,,,,,,,,,,,
,,,,,,7d224d7cf3340daa83413f26,66a626ef09d4e21e1a8894ec,67373fb7eed183810e118ab7,2024-11-15_13h34.28.234,Tarea de género gramatical,2024.2.2,MacIntel,62.5,,,,,,,,,,,,,,,,,,,,,,,84.951,86.151,a,1,0.519,,[],[],[],[],[],[],[],0.519,1,86.151,86.649,0,12,12,3,1,2004,FEM,AGR,150,venta,la,a,,,,,,,,,,,,,,,,,
,,,,,,7d224d7cf3340daa83413f26,66a626ef09d4e21e1a8894ec,67373fb7eed183810e118ab7,2024-11-15_13h34.28.234,Tarea de género gramatical,2024.2.2,MacIntel,62.5,,,,,,,,,,,,,,,,,,,,,,,86.65,87.915,l,1,0.589,,[],[],[],[],[],[],[],0.589,1,87.916,88.416,0,13,13,14,1,2015,MAS,DIS,150,robot,la,l,,,,,,,,,,,,,,,,,
,,,,,,7d224d7cf3340daa83413f26,66a626ef09d4e21e1a8894ec,67373fb7eed183810e118ab7,2024-11-15_13h34.28.234,Tarea de género gramatical,2024.2.2,MacIntel,62.5,,,,,,,,,,,,,,,,,,,,,,,88.417,89.549,a,1,0.456,,[],[],[],[],[],[],[],0.456,1,89.549,90.049,0,14,14,7,1,2008,FEM,CON,150,siesta,,a,,,,,,,,,,,,,,,,,
,,,,,,7d224d7cf3340daa83413f26,66a626ef09d4e21e1a8894ec,67373fb7eed183810e118ab7,2024-11-15_13h34.28.234,Tarea de género gramatical,2024.2.2,MacIntel,62.5,,,94.253,100.306,space,6.025,,-0.207608696,-0.359782609,0,0,0,,,,,,,,,,,100.347,101.465,l,1,0.456,,[],[],[],[],[],[],[],0.456,1,101.466,101.966,,,,,,227,MAS,CON,150,vuelo,,l,101.968,101.972,-0.207608696,-0.359782609,0,0,0,,0,0,0,226,1,,,,
,,,,,,7d224d7cf3340daa83413f26,66a626ef09d4e21e1a8894ec,67373fb7eed183810e118ab7,2024-11-15_13h34.28.234,Tarea de género gramatical,2024.2.2,MacIntel,62.5,,,,,,,,,,,,,,,,,,,,,,,101.973,103.017,l,1,0.377,,[],[],[],[],[],[],[],0.377,1,103.017,103.516,,,,,,402,MAS,DIS,150,ladrón,la,l,103.516,103.516,-0.207608696,-0.359782609,0,0,0,,0,1,1,401,1,,,,
,,,,,,7d224d7cf3340daa83413f26,66a626ef09d4e21e1a8894ec,67373fb7eed183810e118ab7,2024-11-15_13h34.28.234,Tarea de género gramatical,2024.2.2,MacIntel,62.5,,,,,,,,,,,,,,,,,,,,,,,103.516,104.649,l,1,0.456,,[],[],[],[],[],[],[],0.456,1,104.649,105.149,,,,,,382,MAS,AGR,150,teatro,el,l,105.15,105.152,-0.207608696,-0.359782609,0,0,0,,0,2,2,381,1,,,,
,,,,,,7d224d7cf3340daa83413f26,66a626ef09d4e21e1a8894ec,67373fb7eed183810e118ab7,2024-11-15_13h34.28.234,Tarea de género gramatical,2024.2.2,MacIntel,62.5,,,,,,,,,,,,,,,,,,,,,,,105.152,106.149,a,1,0.323,,[],[],[],[],[],[],[],0.323,1,106.149,106.649,,,,,,153,FEM,DIS,150,mujer,el,a,106.649,106.649,-0.207608696,-0.359782609,0,0,0,,0,3,3,152,1,,,,
,,,,,,7d224d7cf3340daa83413f26,66a626ef09d4e21e1a8894ec,67373fb7eed183810e118ab7,2024-11-15_13h34.28.234,Tarea de género gramatical,2024.2.2,MacIntel,62.5,,,,,,,,,,,,,,,,,,,,,,,106.65,107.699,l,0,0.372,,[],[],[],[],[],[],[],0.372,0,107.699,108.199,,,,,,236,FEM,CON,150,deuda,,a,108.199,108.199,-0.207608696,-0.359782609,0,0,0,,0,4,4,235,1,,,,
,,,,,,7d224d7cf3340daa83413f26,66a626ef09d4e21e1a8894ec,67373fb7eed183810e118ab7,2024-11-15_13h34.28.234,Tarea de género gramatical,2024.2.2,MacIntel,62.5,,,,,,,,,,,,,,,,,,,,,,,108.2,109.284,l,1,0.427,,[],[],[],[],[],[],[],0.427,1,109.285,109.782,,,,,,78,MAS,DIS,150,oído,la,l,109.782,109.782,-0.207608696,-0.359782609,0,0,0,,0,5,5,77,1,,,,
,,,,,,7d224d7cf3340daa83413f26,66a626ef09d4e21e1a8894ec,67373fb7eed183810e118ab7,2024-11-15_13h34.28.234,Tarea de género gramatical,2024.2.2,MacIntel,62.5,,,,,,,,,,,,,,,,,,,,,,,109.783,110.949,l,1,0.482,,[],[],[],[],[],[],[],0.482,1,110.949,111.449,,,,,,118,MAS,AGR,150,baúl,el,l,111.45,111.451,-0.207608696,-0.359782609,0,0,0,,0,6,6,117,1,,,,
,,,,,,7d224d7cf3340daa83413f26,66a626ef09d4e21e1a8894ec,67373fb7eed183810e118ab7,2024-11-15_13h34.28.234,Tarea de género gramatical,2024.2.2,MacIntel,62.5,,,,,,,,,,,,,,,,,,,,,,,111.452,112.532,a,1,0.408,,[],[],[],[],[],[],[],0.408,1,112.532,113.032,,,,,,314,FEM,CON,150,señora,,a,113.032,113.032,-0.207608696,-0.359782609,0,0,0,,0,7,7,313,1,,,,
,,,,,,7d224d7cf3340daa83413f26,66a626ef09d4e21e1a8894ec,67373fb7eed183810e118ab7,2024-11-15_13h34.28.234,Tarea de género gramatical,2024.2.2,MacIntel,62.5,,,,,,,,,,,,,,,,,,,,,,,113.033,114.137,l,1,0.435,,[],[],[],[],[],[],[],0.435,1,114.138,114.633,,,,,,400,MAS,AGR,150,barrio,el,l,114.633,114.633,-0.207608696,-0.359782609,0,0,0,,0,8,8,399,1,,,,
,,,,,,7d224d7cf3340daa83413f26,66a626ef09d4e21e1a8894ec,67373fb7eed183810e118ab7,2024-11-15_13h34.28.234,Tarea de género gramatical,2024.2.2,MacIntel,62.5,,,,,,,,,,,,,,,,,,,,,,,114.635,116.102,l,0,0.785,,[],[],[],[],[],[],[],0.785,0,116.103,116.599,,,,,,67,FEM,AGR,150,miel,la,a,116.599,116.599,-0.207608696,-0.359782609,0,0,0,,0,9,9,66,1,,,,
,,,,,,7d224d7cf3340daa83413f26,66a626ef09d4e21e1a8894ec,67373fb7eed183810e118ab7,2024-11-15_13h34.28.234,Tarea de género gramatical,2024.2.2,MacIntel,62.5,,,,,,,,,,,,,,,,,,,,,,,116.599,118.032,a,1,0.75,,[],[],[],[],[],[],[],0.75,1,118.033,118.532,,,,,,99,FEM,DIS,150,fase,el,a,118.532,118.532,-0.207608696,-0.359782609,0,0,0,,0,10,10,98,1,,,,
,,,,,,7d224d7cf3340daa83413f26,66a626ef09d4e21e1a8894ec,67373fb7eed183810e118ab7,2024-11-15_13h34.28.234,Tarea de género gramatical,2024.2.2,MacIntel,62.5,,,,,,,,,,,,,,,,,,,,,,,118.534,119.732,a,1,0.517,,[],[],[],[],[],[],[],0.517,1,119.732,120.232,,,,,,307,FEM,AGR,150,suerte,la,a,120.233,120.235,-0.207608696,-0.359782609,0,0,0,,0,11,11,306,1,,,,
,,,,,,7d224d7cf3340daa83413f26,66a626ef09d4e21e1a8894ec,67373fb7eed183810e118ab7,2024-11-15_13h34.28.234,Tarea de género gramatical,2024.2.2,MacIntel,62.5,,,,,,,,,,,,,,,,,,,,,,,120.235,121.417,l,0,0.51,,[],[],[],[],[],[],[],0.51,0,121.418,121.915,,,,,,387,FEM,DIS,150,página,el,a,121.915,121.916,-0.207608696,-0.359782609,0,0,0,,0,12,12,386,1,,,,
,,,,,,7d224d7cf3340daa83413f26,66a626ef09d4e21e1a8894ec,67373fb7eed183810e118ab7,2024-11-15_13h34.28.234,Tarea de género gramatical,2024.2.2,MacIntel,62.5,,,,,,,,,,,,,,,,,,,,,,,121.916,123.286,a,1,0.694,,[],[],[],[],[],[],[],0.694,1,123.287,123.782,,,,,,211,FEM,AGR,150,salud,la,a,123.782,123.782,-0.207608696,-0.359782609,0,0,0,,0,13,13,210,1,,,,
,,,,,,7d224d7cf3340daa83413f26,66a626ef09d4e21e1a8894ec,67373fb7eed183810e118ab7,2024-11-15_13h34.28.234,Tarea de género gramatical,2024.2.2,MacIntel,62.5,,,,,,,,,,,,,,,,,,,,,,,123.783,125.416,a,1,0.976,,[],[],[],[],[],[],[],0.976,1,125.416,125.915,,,,,,56,FEM,CON,150,bola,,a,125.915,125.915,-0.207608696,-0.359782609,0,0,0,,0,14,14,55,1,,,,
,,,,,,7d224d7cf3340daa83413f26,66a626ef09d4e21e1a8894ec,67373fb7eed183810e118ab7,2024-11-15_13h34.28.234,Tarea de género gramatical,2024.2.2,MacIntel,62.5,,,,,,,,,,,,,,,,,,,,,,,125.916,127.1,l,1,0.527,,[],[],[],[],[],[],[],0.527,1,127.101,127.599,,,,,,258,MAS,DIS,150,polvo,la,l,127.6,127.602,-0.207608696,-0.359782609,0,0,0,,0,15,15,257,1,,,,
,,,,,,7d224d7cf3340daa83413f26,66a626ef09d4e21e1a8894ec,67373fb7eed183810e118ab7,2024-11-15_13h34.28.234,Tarea de género gramatical,2024.2.2,MacIntel,62.5,,,,,,,,,,,,,,,,,,,,,,,127.602,128.817,l,1,0.543,,[],[],[],[],[],[],[],0.543,1,128.817,129.315,,,,,,166,MAS,AGR,150,coche,el,l,129.316,129.316,-0.207608696,-0.359782609,0,0,0,,0,16,16,165,1,,,,
,,,,,,7d224d7cf3340daa83413f26,66a626ef09d4e21e1a8894ec,67373fb7eed183810e118ab7,2024-11-15_13h34.28.234,Tarea de género gramatical,2024.2.2,MacIntel,62.5,,,,,,,,,,,,,,,,,,,,,,,129.316,130.649,l,1,0.656,,[],[],[],[],[],[],[],0.656,1,130.649,131.149,,,,,,102,MAS,DIS,150,coro,la,l,131.149,131.149,-0.207608696,-0.359782609,0,0,0,,0,17,17,101,1,,,,
,,,,,,7d224d7cf3340daa83413f26,66a626ef09d4e21e1a8894ec,67373fb7eed183810e118ab7,2024-11-15_13h34.28.234,Tarea de género gramatical,2024.2.2,MacIntel,62.5,,,,,,,,,,,,,,,,,,,,,,,131.15,132.982,a,1,1.151,,[],[],[],[],[],[],[],1.151,1,132.982,133.482,,,,,,291,FEM,DIS,150,aguja,el,a,133.482,133.482,-0.207608696,-0.359782609,0,0,0,,0,18,18,290,1,,,,
,,,,,,7d224d7cf3340daa83413f26,66a626ef09d4e21e1a8894ec,67373fb7eed183810e118ab7,2024-11-15_13h34.28.234,Tarea de género gramatical,2024.2.2,MacIntel,62.5,,,,,,,,,,,,,,,,,,,,,,,133.484,134.765,l,1,0.607,,[],[],[],[],[],[],[],0.607,1,134.766,135.265,,,,,,124,MAS,AGR,150,clan,el,l,135.265,135.265,-0.207608696,-0.359782609,0,0,0,,0,19,19,123,1,,,,
,,,,,,7d224d7cf3340daa83413f26,66a626ef09d4e21e1a8894ec,67373fb7eed183810e118ab7,2024-11-15_13h34.28.234,Tarea de género gramatical,2024.2.2,MacIntel,62.5,,,,,,,,,,,,,,,,,,,,,,,135.266,136.334,l,1,0.406,,[],[],[],[],[],[],[],0.406,1,136.334,136.832,,,,,,16,MAS,AGR,150,baño,el,l,136.833,136.835,-0.207608696,-0.359782609,0,0,0,,0,20,20,15,1,,,,
,,,,,,7d224d7cf3340daa83413f26,66a626ef09d4e21e1a8894ec,67373fb7eed183810e118ab7,2024-11-15_13h34.28.234,Tarea de género gramatical,2024.2.2,MacIntel,62.5,,,,,,,,,,,,,,,,,,,,,,,136.836,138.052,l,1,0.544,,[],[],[],[],[],[],[],0.544,1,138.052,138.549,,,,,,108,MAS,DIS,150,hilo,la,l,138.549,138.549,-0.207608696,-0.359782609,0,0,0,,0,21,21,107,1,,,,
,,,,,,7d224d7cf3340daa83413f26,66a626ef09d4e21e1a8894ec,67373fb7eed183810e118ab7,2024-11-15_13h34.28.234,Tarea de género gramatical,2024.2.2,MacIntel,62.5,,,,,,,,,,,,,,,,,,,,,,,138.55,139.615,l,1,0.388,,[],[],[],[],[],[],[],0.388,1,139.615,140.115,,,,,,100,MAS,AGR,150,nido,el,l,140.115,140.115,-0.207608696,-0.359782609,0,0,0,,0,22,22,99,1,,,,
,,,,,,7d224d7cf3340daa83413f26,66a626ef09d4e21e1a8894ec,67373fb7eed183810e118ab7,2024-11-15_13h34.28.234,Tarea de género gramatical,2024.2.2,MacIntel,62.5,,,,,,,,,,,,,,,,,,,,,,,140.116,141.232,a,1,0.442,,[],[],[],[],[],[],[],0.442,1,141.232,141.732,,,,,,325,FEM,AGR,150,tierra,la,a,141.732,141.732,-0.207608696,-0.359782609,0,0,0,,0,23,23,324,1,,,,
,,,,,,7d224d7cf3340daa83413f26,66a626ef09d4e21e1a8894ec,67373fb7eed183810e118ab7,2024-11-15_13h34.28.234,Tarea de género gramatical,2024.2.2,MacIntel,62.5,,,,,,,,,,,,,,,,,,,,,,,141.733,142.949,l,1,0.538,,[],[],[],[],[],[],[],0.538,1,142.949,143.449,,,,,,304,MAS,AGR,150,tiempo,el,l,143.449,143.45,-0.207608696,-0.359782609,0,0,0,,0,24,24,303,1,,,,
,,,,,,7d224d7cf3340daa83413f26,66a626ef09d4e21e1a8894ec,67373fb7eed183810e118ab7,2024-11-15_13h34.28.234,Tarea de género gramatical,2024.2.2,MacIntel,62.5,,,,,,,,,,,,,,,,,,,,,,,143.451,144.682,a,1,0.556,,[],[],[],[],[],[],[],0.556,1,144.682,145.182,,,,,,218,FEM,CON,150,nieve,,a,145.182,145.182,-0.207608696,-0.359782609,0,0,0,,0,25,25,217,1,,,,
,,,,,,7d224d7cf3340daa83413f26,66a626ef09d4e21e1a8894ec,67373fb7eed183810e118ab7,2024-11-15_13h34.28.234,Tarea de género gramatical,2024.2.2,MacIntel,62.5,,,,,,,,,,,,,,,,,,,,,,,145.183,146.3,l,1,0.441,,[],[],[],[],[],[],[],0.441,1,146.3,146.799,,,,,,353,MAS,CON,150,verano,,l,146.799,146.799,-0.207608696,-0.359782609,0,0,0,,0,26,26,352,1,,,,
,,,,,,7d224d7cf3340daa83413f26,66a626ef09d4e21e1a8894ec,67373fb7eed183810e118ab7,2024-11-15_13h34.28.234,Tarea de género gramatical,2024.2.2,MacIntel,62.5,,,,,,,,,,,,,,,,,,,,,,,146.8,148.032,a,0,0.556,,[],[],[],[],[],[],[],0.556,0,148.033,148.532,,,,,,17,MAS,CON,150,modo,,l,148.532,148.532,-0.207608696,-0.359782609,0,0,0,,0,27,27,16,1,,,,
,,,,,,7d224d7cf3340daa83413f26,66a626ef09d4e21e1a8894ec,67373fb7eed183810e118ab7,2024-11-15_13h34.28.234,Tarea de género gramatical,2024.2.2,MacIntel,62.5,,,,,,,,,,,,,,,,,,,,,,,148.533,149.665,l,1,0.472,,[],[],[],[],[],[],[],0.472,1,149.666,150.165,,,,,,442,MAS,AGR,150,cuadro,el,l,150.165,150.165,-0.207608696,-0.359782609,0,0,0,,0,28,28,441,1,,,,
,,,,,,7d224d7cf3340daa83413f26,66a626ef09d4e21e1a8894ec,67373fb7eed183810e118ab7,2024-11-15_13h34.28.234,Tarea de género gramatical,2024.2.2,MacIntel,62.5,,,,,,,,,,,,,,,,,,,,,,,150.166,151.299,l,1,0.451,,[],[],[],[],[],[],[],0.451,1,151.299,151.798,,,,,,190,MAS,AGR,150,campo,el,l,151.799,151.801,-0.207608696,-0.359782609,0,0,0,,0,29,29,189,1,,,,
,,,,,,7d224d7cf3340daa83413f26,66a626ef09d4e21e1a8894ec,67373fb7eed183810e118ab7,2024-11-15_13h34.28.234,Tarea de género gramatical,2024.2.2,MacIntel,62.5,,,,,,,,,,,,,,,,,,,,,,,151.801,153.068,l,1,0.595,,[],[],[],[],[],[],[],0.595,1,153.068,153.565,,,,,,384,MAS,DIS,150,pedazo,la,l,153.565,153.565,-0.207608696,-0.359782609,0,0,0,,0,30,30,383,1,,,,
,,,,,,7d224d7cf3340daa83413f26,66a626ef09d4e21e1a8894ec,67373fb7eed183810e118ab7,2024-11-15_13h34.28.234,Tarea de género gramatical,2024.2.2,MacIntel,62.5,,,,,,,,,,,,,,,,,,,,,,,153.566,155.367,a,1,1.118,,[],[],[],[],[],[],[],1.118,1,155.367,155.865,,,,,,73,FEM,AGR,150,roca,la,a,155.865,155.865,-0.207608696,-0.359782609,0,0,0,,0,31,31,72,1,,,,
,,,,,,7d224d7cf3340daa83413f26,66a626ef09d4e21e1a8894ec,67373fb7eed183810e118ab7,2024-11-15_13h34.28.234,Tarea de género gramatical,2024.2.2,MacIntel,62.5,,,,,,,,,,,,,,,,,,,,,,,155.866,156.998,l,1,0.454,,[],[],[],[],[],[],[],0.454,1,156.999,157.499,,,,,,360,MAS,DIS,150,puente,la,l,157.499,157.499,-0.207608696,-0.359782609,0,0,0,,0,32,32,359,1,,,,
,,,,,,7d224d7cf3340daa83413f26,66a626ef09d4e21e1a8894ec,67373fb7eed183810e118ab7,2024-11-15_13h34.28.234,Tarea de género gramatical,2024.2.2,MacIntel,62.5,,,,,,,,,,,,,,,,,,,,,,,157.5,158.567,l,1,0.39,,[],[],[],[],[],[],[],0.39,1,158.567,159.065,,,,,,281,MAS,CON,150,actor,,l,159.066,159.075,-0.207608696,-0.359782609,0,0,0,,0,33,33,280,1,,,,
,,,,,,7d224d7cf3340daa83413f26,66a626ef09d4e21e1a8894ec,67373fb7eed183810e118ab7,2024-11-15_13h34.28.234,Tarea de género gramatical,2024.2.2,MacIntel,62.5,,,,,,,,,,,,,,,,,,,,,,,159.077,160.07,l,1,0.329,,[],[],[],[],[],[],[],0.329,1,160.07,160.565,,,,,,256,MAS,AGR,150,techo,el,l,160.565,160.566,-0.207608696,-0.359782609,0,0,0,,0,34,34,255,1,,,,
,,,,,,7d224d7cf3340daa83413f26,66a626ef09d4e21e1a8894ec,67373fb7eed183810e118ab7,2024-11-15_13h34.28.234,Tarea de género gramatical,2024.2.2,MacIntel,62.5,,,,,,,,,,,,,,,,,,,,,,,160.567,161.732,a,1,0.493,,[],[],[],[],[],[],[],0.493,1,161.732,162.232,,,,,,8,FEM,CON,150,idea,,a,162.232,162.232,-0.207608696,-0.359782609,0,0,0,,0,35,35,7,1,,,,
,,,,,,7d224d7cf3340daa83413f26,66a626ef09d4e21e1a8894ec,67373fb7eed183810e118ab7,2024-11-15_13h34.28.234,Tarea de género gramatical,2024.2.2,MacIntel,62.5,,,,,,,,,,,,,,,,,,,,,,,162.233,163.315,l,0,0.401,,[],[],[],[],[],[],[],0.401,0,163.316,163.815,,,,,,386,FEM,CON,150,sombra,,a,163.815,163.815,-0.207608696,-0.359782609,0,0,0,,0,36,36,385,1,,,,
,,,,,,7d224d7cf3340daa83413f26,66a626ef09d4e21e1a8894ec,67373fb7eed183810e118ab7,2024-11-15_13h34.28.234,Tarea de género gramatical,2024.2.2,MacIntel,62.5,,,,,,,,,,,,,,,,,,,,,,,163.817,164.983,l,1,0.493,,[],[],[],[],[],[],[],0.493,1,164.983,165.482,,,,,,389,MAS,CON,150,tamaño,,l,165.482,165.482,-0.207608696,-0.359782609,0,0,0,,0,37,37,388,1,,,,
,,,,,,7d224d7cf3340daa83413f26,66a626ef09d4e21e1a8894ec,67373fb7eed183810e118ab7,2024-11-15_13h34.28.234,Tarea de género gramatical,2024.2.2,MacIntel,62.5,,,,,,,,,,,,,,,,,,,,,,,165.483,166.582,a,1,0.427,,[],[],[],[],[],[],[],0.427,1,166.582,167.082,,,,,,140,FEM,CON,150,mula,,a,167.083,167.085,-0.207608696,-0.359782609,0,0,0,,0,38,38,139,1,,,,
,,,,,,7d224d7cf3340daa83413f26,66a626ef09d4e21e1a8894ec,67373fb7eed183810e118ab7,2024-11-15_13h34.28.234,Tarea de género gramatical,2024.2.2,MacIntel,62.5,,,,,,,,,,,,,,,,,,,,,,,167.085,168.269,a,1,0.509,,[],[],[],[],[],[],[],0.509,1,168.269,168.765,,,,,,374,FEM,CON,150,herida,,a,168.765,168.766,-0.207608696,-0.359782609,0,0,0,,0,39,39,373,1,,,,
,,,,,,7d224d7cf3340daa83413f26,66a626ef09d4e21e1a8894ec,67373fb7eed183810e118ab7,2024-11-15_13h34.28.234,Tarea de género gramatical,2024.2.2,MacIntel,62.5,,,,,,,,,,,,,,,,,,,,,,,168.766,169.801,l,1,0.361,,[],[],[],[],[],[],[],0.361,1,169.801,170.298,,,,,,10,MAS,AGR,150,niño,el,l,170.299,170.299,-0.207608696,-0.359782609,0,0,0,,0,40,40,9,1,,,,
,,,,,,7d224d7cf3340daa83413f26,66a626ef09d4e21e1a8894ec,67373fb7eed183810e118ab7,2024-11-15_13h34.28.234,Tarea de género gramatical,2024.2.2,MacIntel,62.5,,,,,,,,,,,,,,,,,,,,,,,170.3,171.369,l,1,0.392,,[],[],[],[],[],[],[],0.392,1,171.37,171.865,,,,,,101,MAS,CON,150,giro,,l,171.865,171.865,-0.207608696,-0.359782609,0,0,0,,0,41,41,100,1,,,,
,,,,,,7d224d7cf3340daa83413f26,66a626ef09d4e21e1a8894ec,67373fb7eed183810e118ab7,2024-11-15_13h34.28.234,Tarea de género gramatical,2024.2.2,MacIntel,62.5,,,,,,,,,,,,,,,,,,,,,,,171.866,172.982,a,1,0.44,,[],[],[],[],[],[],[],0.44,1,172.983,173.482,,,,,,266,FEM,CON,150,jaula,,a,173.482,173.483,-0.207608696,-0.359782609,0,0,0,,0,42,42,265,1,,,,
,,,,,,7d224d7cf3340daa83413f26,66a626ef09d4e21e1a8894ec,67373fb7eed183810e118ab7,2024-11-15_13h34.28.234,Tarea de género gramatical,2024.2.2,MacIntel,62.5,,,,,,,,,,,,,,,,,,,,,,,173.484,174.666,l,1,0.504,,[],[],[],[],[],[],[],0.504,1,174.667,175.165,,,,,,270,MAS,DIS,150,queso,la,l,175.165,175.166,-0.207608696,-0.359782609,0,0,0,,0,43,43,269,1,,,,
,,,,,,7d224d7cf3340daa83413f26,66a626ef09d4e21e1a8894ec,67373fb7eed183810e118ab7,2024-11-15_13h34.28.234,Tarea de género gramatical,2024.2.2,MacIntel,62.5,,,,,,,,,,,,,,,,,,,,,,,175.167,176.251,l,1,0.412,,[],[],[],[],[],[],[],0.412,1,176.252,176.749,,,,,,178,MAS,AGR,150,punto,el,l,176.749,176.749,-0.207608696,-0.359782609,0,0,0,,0,44,44,177,1,,,,
,,,,,,7d224d7cf3340daa83413f26,66a626ef09d4e21e1a8894ec,67373fb7eed183810e118ab7,2024-11-15_13h34.28.234,Tarea de género gramatical,2024.2.2,MacIntel,62.5,,,,,,,,,,,,,,,,,,,,,,,176.75,177.786,l,1,0.361,,[],[],[],[],[],[],[],0.361,1,177.786,178.282,,,,,,370,MAS,AGR,150,seguro,el,l,178.282,178.282,-0.207608696,-0.359782609,0,0,0,,0,45,45,369,1,,,,
,,,,,,7d224d7cf3340daa83413f26,66a626ef09d4e21e1a8894ec,67373fb7eed183810e118ab7,2024-11-15_13h34.28.234,Tarea de género gramatical,2024.2.2,MacIntel,62.5,,,,,,,,,,,,,,,,,,,,,,,178.283,179.832,l,0,0.891,,[],[],[],[],[],[],[],0.891,0,179.833,180.332,,,,,,129,FEM,DIS,150,rana,el,a,180.332,180.332,-0.207608696,-0.359782609,0,0,0,,0,46,46,128,1,,,,
,,,,,,7d224d7cf3340daa83413f26,66a626ef09d4e21e1a8894ec,67373fb7eed183810e118ab7,2024-11-15_13h34.28.234,Tarea de género gramatical,2024.2.2,MacIntel,62.5,,,,,,,,,,,,,,,,,,,,,,,180.333,181.548,l,1,0.558,,[],[],[],[],[],[],[],0.558,1,181.55,182.048,,,,,,210,MAS,DIS,150,baile,la,l,182.049,182.051,-0.207608696,-0.359782609,0,0,0,,0,47,47,209,1,,,,
,,,,,,7d224d7cf3340daa83413f26,66a626ef09d4e21e1a8894ec,67373fb7eed183810e118ab7,2024-11-15_13h34.28.234,Tarea de género gramatical,2024.2.2,MacIntel,62.5,,,,,,,,,,,,,,,,,,,,,,,182.051,183.182,a,1,0.457,,[],[],[],[],[],[],[],0.457,1,183.183,183.688,,,,,,193,FEM,AGR,150,bolsa,la,a,183.692,183.693,-0.207608696,-0.359782609,0,0,0,,0,48,48,192,1,,,,
,,,,,,7d224d7cf3340daa83413f26,66a626ef09d4e21e1a8894ec,67373fb7eed183810e118ab7,2024-11-15_13h34.28.234,Tarea de género gramatical,2024.2.2,MacIntel,62.5,,,,,,,,,,,,,,,,,,,,,,,183.695,184.807,a,1,0.446,,[],[],[],[],[],[],[],0.446,1,184.807,185.299,,,,,,146,FEM,CON,150,lana,,a,185.299,185.299,-0.207608696,-0.359782609,0,0,0,,0,49,49,145,1,,,,
,,,,,,7d224d7cf3340daa83413f26,66a626ef09d4e21e1a8894ec,67373fb7eed183810e118ab7,2024-11-15_13h34.28.234,Tarea de género gramatical,2024.2.2,MacIntel,62.5,,,,,,,,,,,,,,,,,,,,,,,185.3,186.565,a,1,0.589,,[],[],[],[],[],[],[],0.589,1,186.565,187.065,,,,,,9,FEM,DIS,150,mamá,el,a,187.065,187.065,-0.207608696,-0.359782609,0,0,0,,0,50,50,8,1,,,,
,,,,,,7d224d7cf3340daa83413f26,66a626ef09d4e21e1a8894ec,67373fb7eed183810e118ab7,2024-11-15_13h34.28.234,Tarea de género gramatical,2024.2.2,MacIntel,62.5,,,,,,,,,,,,,,,,,,,,,,,187.066,188.148,l,1,0.406,,[],[],[],[],[],[],[],0.406,1,188.149,188.648,,,,,,251,MAS,CON,150,dueño,,l,188.649,188.65,-0.207608696,-0.359782609,0,0,0,,0,51,51,250,1,,,,
,,,,,,7d224d7cf3340daa83413f26,66a626ef09d4e21e1a8894ec,67373fb7eed183810e118ab7,2024-11-15_13h34.28.234,Tarea de género gramatical,2024.2.2,MacIntel,62.5,,,,,,,,,,,,,,,,,,,,,,,188.651,189.832,l,1,0.509,,[],[],[],[],[],[],[],0.509,1,189.832,190.332,,,,,,240,MAS,DIS,150,ruido,la,l,190.332,190.332,-0.207608696,-0.359782609,0,0,0,,0,52,52,239,1,,,,
,,,,,,7d224d7cf3340daa83413f26,66a626ef09d4e21e1a8894ec,67373fb7eed183810e118ab7,2024-11-15_13h34.28.234,Tarea de género gramatical,2024.2.2,MacIntel,62.5,,,,,,,,,,,,,,,,,,,,,,,190.332,191.365,l,1,0.366,,[],[],[],[],[],[],[],0.366,1,191.365,191.865,,,,,,77,MAS,CON,150,pico,,l,191.865,191.865,-0.207608696,-0.359782609,0,0,0,,0,53,53,76,1,,,,
,,,,,,7d224d7cf3340daa83413f26,66a626ef09d4e21e1a8894ec,67373fb7eed183810e118ab7,2024-11-15_13h34.28.234,Tarea de género gramatical,2024.2.2,MacIntel,62.5,,,,,,,,,,,,,,,,,,,,,,,191.866,192.782,l,0,0.257,,[],[],[],[],[],[],[],0.257,0,192.783,193.282,,,,,,188,FEM,CON,150,bomba,,a,193.282,193.282,-0.207608696,-0.359782609,0,0,0,,0,54,54,187,1,,,,
,,,,,,7d224d7cf3340daa83413f26,66a626ef09d4e21e1a8894ec,67373fb7eed183810e118ab7,2024-11-15_13h34.28.234,Tarea de género gramatical,2024.2.2,MacIntel,62.5,,,,,,,,,,,,,,,,,,,,,,,193.283,194.499,a,1,0.553,,[],[],[],[],[],[],[],0.553,1,194.499,194.998,,,,,,61,FEM,AGR,150,ruta,la,a,194.998,194.999,-0.207608696,-0.359782609,0,0,0,,0,55,55,60,1,,,,
,,,,,,7d224d7cf3340daa83413f26,66a626ef09d4e21e1a8894ec,67373fb7eed183810e118ab7,2024-11-15_13h34.28.234,Tarea de género gramatical,2024.2.2,MacIntel,62.5,,,,,,,,,,,,,,,,,,,,,,,195,195.982,a,1,0.307,,[],[],[],[],[],[],[],0.307,1,195.982,196.482,,,,,,308,FEM,CON,150,semana,,a,196.482,196.483,-0.207608696,-0.359782609,0,0,0,,0,56,56,307,1,,,,
,,,,,,7d224d7cf3340daa83413f26,66a626ef09d4e21e1a8894ec,67373fb7eed183810e118ab7,2024-11-15_13h34.28.234,Tarea de género gramatical,2024.2.2,MacIntel,62.5,,,,,,,,,,,,,,,,,,,,,,,196.484,197.582,l,1,0.424,,[],[],[],[],[],[],[],0.424,1,197.582,198.082,,,,,,366,MAS,DIS,150,riesgo,la,l,198.082,198.082,-0.207608696,-0.359782609,0,0,0,,0,57,57,365,1,,,,
,,,,,,7d224d7cf3340daa83413f26,66a626ef09d4e21e1a8894ec,67373fb7eed183810e118ab7,2024-11-15_13h34.28.234,Tarea de género gramatical,2024.2.2,MacIntel,62.5,,,,,,,,,,,,,,,,,,,,,,,198.083,199.304,l,1,0.541,,[],[],[],[],[],[],[],0.541,1,199.304,199.798,,,,,,424,MAS,AGR,150,rastro,el,l,199.798,199.798,-0.207608696,-0.359782609,0,0,0,,0,58,58,423,1,,,,
,,,,,,7d224d7cf3340daa83413f26,66a626ef09d4e21e1a8894ec,67373fb7eed183810e118ab7,2024-11-15_13h34.28.234,Tarea de género gramatical,2024.2.2,MacIntel,62.5,,,,,,,,,,,,,,,,,,,,,,,199.799,200.865,l,1,0.392,,[],[],[],[],[],[],[],0.392,1,200.865,201.365,,,,,,70,MAS,AGR,150,palo,el,l,201.365,201.365,-0.207608696,-0.359782609,0,0,0,,0,59,59,69,1,,,,
,,,,,,7d224d7cf3340daa83413f26,66a626ef09d4e21e1a8894ec,67373fb7eed183810e118ab7,2024-11-15_13h34.28.234,Tarea de género gramatical,2024.2.2,MacIntel,62.5,,,,,,,,,,,,,,,,,,,,,,,201.366,202.615,a,1,0.573,,[],[],[],[],[],[],[],0.573,1,202.615,203.115,,,,,,63,FEM,DIS,150,fila,el,a,203.116,203.116,-0.207608696,-0.359782609,0,0,0,,0,60,60,62,1,,,,
,,,,,,7d224d7cf3340daa83413f26,66a626ef09d4e21e1a8894ec,67373fb7eed183810e118ab7,2024-11-15_13h34.28.234,Tarea de género gramatical,2024.2.2,MacIntel,62.5,,,,,,,,,,,,,,,,,,,,,,,203.117,204.232,l,1,0.442,,[],[],[],[],[],[],[],0.442,1,204.232,204.732,,,,,,358,MAS,AGR,150,motivo,el,l,204.732,204.732,-0.207608696,-0.359782609,0,0,0,,0,61,61,357,1,,,,
,,,,,,7d224d7cf3340daa83413f26,66a626ef09d4e21e1a8894ec,67373fb7eed183810e118ab7,2024-11-15_13h34.28.234,Tarea de género gramatical,2024.2.2,MacIntel,62.5,,,,,,,,,,,,,,,,,,,,,,,204.733,205.682,l,1,0.274,,[],[],[],[],[],[],[],0.274,1,205.682,206.182,,,,,,184,MAS,AGR,150,cielo,el,l,206.182,206.182,-0.207608696,-0.359782609,0,0,0,,0,62,62,183,1,,,,
,,,,,,7d224d7cf3340daa83413f26,66a626ef09d4e21e1a8894ec,67373fb7eed183810e118ab7,2024-11-15_13h34.28.234,Tarea de género gramatical,2024.2.2,MacIntel,62.5,,,,,,,,,,,,,,,,,,,,,,,206.182,207.29,l,1,0.407,,[],[],[],[],[],[],[],0.407,1,207.291,207.782,,,,,,262,MAS,AGR,150,video,el,l,207.782,207.782,-0.207608696,-0.359782609,0,0,0,,0,63,63,261,1,,,,
,,,,,,7d224d7cf3340daa83413f26,66a626ef09d4e21e1a8894ec,67373fb7eed183810e118ab7,2024-11-15_13h34.28.234,Tarea de género gramatical,2024.2.2,MacIntel,62.5,,,,,,,,,,,,,,,,,,,,,,,207.783,209.065,a,1,0.617,,[],[],[],[],[],[],[],0.617,1,209.065,209.565,,,,,,369,FEM,DIS,150,camisa,el,a,209.565,209.565,-0.207608696,-0.359782609,0,0,0,,0,64,64,368,1,,,,
,,,,,,7d224d7cf3340daa83413f26,66a626ef09d4e21e1a8894ec,67373fb7eed183810e118ab7,2024-11-15_13h34.28.234,Tarea de género gramatical,2024.2.2,MacIntel,62.5,,,,,,,,,,,,,,,,,,,,,,,209.566,210.765,l,1,0.52,,[],[],[],[],[],[],[],0.52,1,210.765,211.265,,,,,,294,MAS,DIS,150,cable,la,l,211.266,211.267,-0.207608696,-0.359782609,0,0,0,,0,65,65,293,1,,,,
,,,,,,7d224d7cf3340daa83413f26,66a626ef09d4e21e1a8894ec,67373fb7eed183810e118ab7,2024-11-15_13h34.28.234,Tarea de género gramatical,2024.2.2,MacIntel,62.5,,,,,,,,,,,,,,,,,,,,,,,211.267,212.565,a,1,0.623,,[],[],[],[],[],[],[],0.623,1,212.566,213.065,,,,,,393,FEM,DIS,150,alarma,el,a,213.065,213.066,-0.207608696,-0.359782609,0,0,0,,0,66,66,392,1,,,,
,,,,,,7d224d7cf3340daa83413f26,66a626ef09d4e21e1a8894ec,67373fb7eed183810e118ab7,2024-11-15_13h34.28.234,Tarea de género gramatical,2024.2.2,MacIntel,62.5,,,,,,,,,,,,,,,,,,,,,,,213.067,214.499,a,1,0.75,,[],[],[],[],[],[],[],0.75,1,214.499,214.998,,,,,,116,FEM,CON,150,nube,,a,214.998,214.999,-0.207608696,-0.359782609,0,0,0,,0,67,67,115,1,,,,
,,,,,,7d224d7cf3340daa83413f26,66a626ef09d4e21e1a8894ec,67373fb7eed183810e118ab7,2024-11-15_13h34.28.234,Tarea de género gramatical,2024.2.2,MacIntel,62.5,,,,,,,,,,,,,,,,,,,,,,,214.999,216.065,l,1,0.39,,[],[],[],[],[],[],[],0.39,1,216.065,216.565,,,,,,233,MAS,CON,150,golpe,,l,216.565,216.565,-0.207608696,-0.359782609,0,0,0,,0,68,68,232,1,,,,
,,,,,,7d224d7cf3340daa83413f26,66a626ef09d4e21e1a8894ec,67373fb7eed183810e118ab7,2024-11-15_13h34.28.234,Tarea de género gramatical,2024.2.2,MacIntel,62.5,,,,,,,,,,,,,,,,,,,,,,,216.566,217.62,l,1,0.375,,[],[],[],[],[],[],[],0.375,1,217.62,218.115,,,,,,431,MAS,CON,150,veneno,,l,218.116,218.117,-0.207608696,-0.359782609,0,0,0,,0,69,69,430,1,,,,
,,,,,,7d224d7cf3340daa83413f26,66a626ef09d4e21e1a8894ec,67373fb7eed183810e118ab7,2024-11-15_13h34.28.234,Tarea de género gramatical,2024.2.2,MacIntel,62.5,,,,,,,,,,,,,,,,,,,,,,,218.117,219.349,a,1,0.557,,[],[],[],[],[],[],[],0.557,1,219.349,219.848,,,,,,373,FEM,AGR,150,lluvia,la,a,219.848,219.848,-0.207608696,-0.359782609,0,0,0,,0,70,70,372,1,,,,
,,,,,,7d224d7cf3340daa83413f26,66a626ef09d4e21e1a8894ec,67373fb7eed183810e118ab7,2024-11-15_13h34.28.234,Tarea de género gramatical,2024.2.2,MacIntel,62.5,,,,,,,,,,,,,,,,,,,,,,,219.85,221.049,l,1,0.524,,[],[],[],[],[],[],[],0.524,1,221.049,221.548,,,,,,180,MAS,DIS,150,fuego,la,l,221.548,221.549,-0.207608696,-0.359782609,0,0,0,,0,71,71,179,1,,,,
,,,,,,7d224d7cf3340daa83413f26,66a626ef09d4e21e1a8894ec,67373fb7eed183810e118ab7,2024-11-15_13h34.28.234,Tarea de género gramatical,2024.2.2,MacIntel,62.5,,,,,,,,,,,,,,,,,,,,,,,221.549,222.715,l,1,0.489,,[],[],[],[],[],[],[],0.489,1,222.715,223.215,,,,,,342,MAS,DIS,150,abuelo,la,l,223.215,223.215,-0.207608696,-0.359782609,0,0,0,,0,72,72,341,1,,,,
,,,,,,7d224d7cf3340daa83413f26,66a626ef09d4e21e1a8894ec,67373fb7eed183810e118ab7,2024-11-15_13h34.28.234,Tarea de género gramatical,2024.2.2,MacIntel,62.5,,,,,,,,,,,,,,,,,,,,,,,223.216,224.582,a,1,0.688,,[],[],[],[],[],[],[],0.688,1,224.582,225.082,,,,,,109,FEM,AGR,150,gota,la,a,225.082,225.082,-0.207608696,-0.359782609,0,0,0,,0,73,73,108,1,,,,
,,,,,,7d224d7cf3340daa83413f26,66a626ef09d4e21e1a8894ec,67373fb7eed183810e118ab7,2024-11-15_13h34.28.234,Tarea de género gramatical,2024.2.2,MacIntel,62.5,,,,,,,,,,,,,,,,,,,,,,,225.084,226.404,l,1,0.641,,[],[],[],[],[],[],[],0.641,1,226.405,226.898,,,,,,401,MAS,CON,150,abrigo,,l,226.899,226.9,-0.207608696,-0.359782609,0,0,0,,0,74,74,400,1,,,,
,,,,,,7d224d7cf3340daa83413f26,66a626ef09d4e21e1a8894ec,67373fb7eed183810e118ab7,2024-11-15_13h34.28.234,Tarea de género gramatical,2024.2.2,MacIntel,62.5,,,,,,,,,,,,,,,,,,,,,,,226.901,227.902,a,1,0.319,,[],[],[],[],[],[],[],0.319,1,227.902,228.398,,,,,,200,FEM,CON,150,silla,,a,228.398,228.399,-0.207608696,-0.359782609,0,0,0,,0,75,75,199,1,,,,
,,,,,,7d224d7cf3340daa83413f26,66a626ef09d4e21e1a8894ec,67373fb7eed183810e118ab7,2024-11-15_13h34.28.234,Tarea de género gramatical,2024.2.2,MacIntel,62.5,,,,,,,,,,,,,,,,,,,,,,,228.401,229.482,l,1,0.407,,[],[],[],[],[],[],[],0.407,1,229.482,229.982,,,,,,245,MAS,CON,150,turno,,l,229.982,229.982,-0.207608696,-0.359782609,0,0,0,,0,76,76,244,1,,,,
,,,,,,7d224d7cf3340daa83413f26,66a626ef09d4e21e1a8894ec,67373fb7eed183810e118ab7,2024-11-15_13h34.28.234,Tarea de género gramatical,2024.2.2,MacIntel,62.5,,,,,,,,,,,,,,,,,,,,,,,229.983,231.05,l,1,0.385,,[],[],[],[],[],[],[],0.385,1,231.05,231.548,,,,,,394,MAS,AGR,150,examen,el,l,231.548,231.549,-0.207608696,-0.359782609,0,0,0,,0,77,77,393,1,,,,
,,,,,,7d224d7cf3340daa83413f26,66a626ef09d4e21e1a8894ec,67373fb7eed183810e118ab7,2024-11-15_13h34.28.234,Tarea de género gramatical,2024.2.2,MacIntel,62.5,,,,,,,,,,,,,,,,,,,,,,,231.55,232.565,a,1,0.335,,[],[],[],[],[],[],[],0.335,1,232.565,233.065,,,,,,321,FEM,DIS,150,comida,el,a,233.065,233.066,-0.207608696,-0.359782609,0,0,0,,0,78,78,320,1,,,,
,,,,,,7d224d7cf3340daa83413f26,66a626ef09d4e21e1a8894ec,67373fb7eed183810e118ab7,2024-11-15_13h34.28.234,Tarea de género gramatical,2024.2.2,MacIntel,62.5,,,,,,,,,,,,,,,,,,,,,,,233.067,234.171,l,1,0.419,,[],[],[],[],[],[],[],0.419,1,234.172,234.665,,,,,,316,MAS,AGR,150,cuerpo,el,l,234.665,234.665,-0.207608696,-0.359782609,0,0,0,,0,79,79,315,1,,,,
,,,,,,7d224d7cf3340daa83413f26,66a626ef09d4e21e1a8894ec,67373fb7eed183810e118ab7,2024-11-15_13h34.28.234,Tarea de género gramatical,2024.2.2,MacIntel,62.5,,,,,,,,,,,,,,,,,,,,,,,234.667,235.674,l,1,0.329,,[],[],[],[],[],[],[],0.329,1,235.674,236.165,,,,,,305,MAS,CON,150,hombre,,l,236.165,236.165,-0.207608696,-0.359782609,0,0,0,,0,80,80,304,1,,,,
,,,,,,7d224d7cf3340daa83413f26,66a626ef09d4e21e1a8894ec,67373fb7eed183810e118ab7,2024-11-15_13h34.28.234,Tarea de género gramatical,2024.2.2,MacIntel,62.5,,,,,,,,,,,,,,,,,,,,,,,236.166,237.381,a,1,0.534,,[],[],[],[],[],[],[],0.534,1,237.381,237.855,,,,,,98,FEM,CON,150,fuga,,a,237.856,237.856,-0.207608696,-0.359782609,0,0,0,,0,81,81,97,1,,,,
,,,,,,7d224d7cf3340daa83413f26,66a626ef09d4e21e1a8894ec,67373fb7eed183810e118ab7,2024-11-15_13h34.28.234,Tarea de género gramatical,2024.2.2,MacIntel,62.5,,,,,,,,,,,,,,,,,,,,,,,237.856,238.883,l,1,0.36,,[],[],[],[],[],[],[],0.36,1,238.883,239.382,,,,,,322,MAS,AGR,150,minuto,el,l,239.382,239.382,-0.207608696,-0.359782609,0,0,0,,0,82,82,321,1,,,,
,,,,,,7d224d7cf3340daa83413f26,66a626ef09d4e21e1a8894ec,67373fb7eed183810e118ab7,2024-11-15_13h34.28.234,Tarea de género gramatical,2024.2.2,MacIntel,62.5,,,,,,,,,,,,,,,,,,,,,,,239.383,240.498,a,1,0.434,,[],[],[],[],[],[],[],0.434,1,240.499,240.998,,,,,,289,FEM,AGR,150,tabla,la,a,240.999,241.001,-0.207608696,-0.359782609,0,0,0,,0,83,83,288,1,,,,
,,,,,,7d224d7cf3340daa83413f26,66a626ef09d4e21e1a8894ec,67373fb7eed183810e118ab7,2024-11-15_13h34.28.234,Tarea de género gramatical,2024.2.2,MacIntel,62.5,,,,,,,,,,,,,,,,,,,,,,,241.002,242.082,a,1,0.402,,[],[],[],[],[],[],[],0.402,1,242.082,242.582,,,,,,423,FEM,DIS,150,poesía,el,a,242.582,242.582,-0.207608696,-0.359782609,0,0,0,,0,84,84,422,1,,,,
,,,,,,7d224d7cf3340daa83413f26,66a626ef09d4e21e1a8894ec,67373fb7eed183810e118ab7,2024-11-15_13h34.28.234,Tarea de género gramatical,2024.2.2,MacIntel,62.5,,,,,,,,,,,,,,,,,,,,,,,242.583,243.618,a,1,0.359,,[],[],[],[],[],[],[],0.359,1,243.618,244.115,,,,,,435,FEM,DIS,150,niebla,el,a,244.115,244.115,-0.207608696,-0.359782609,0,0,0,,0,85,85,434,1,,,,
,,,,,,7d224d7cf3340daa83413f26,66a626ef09d4e21e1a8894ec,67373fb7eed183810e118ab7,2024-11-15_13h34.28.234,Tarea de género gramatical,2024.2.2,MacIntel,62.5,,,,,,,,,,,,,,,,,,,,,,,244.116,245.335,l,0,0.544,,[],[],[],[],[],[],[],0.544,0,245.335,245.832,,,,,,357,FEM,DIS,150,lengua,el,a,245.832,245.832,-0.207608696,-0.359782609,0,0,0,,0,86,86,356,1,,,,
,,,,,,7d224d7cf3340daa83413f26,66a626ef09d4e21e1a8894ec,67373fb7eed183810e118ab7,2024-11-15_13h34.28.234,Tarea de género gramatical,2024.2.2,MacIntel,62.5,,,,,,,,,,,,,,,,,,,,,,,245.833,246.848,l,1,0.341,,[],[],[],[],[],[],[],0.341,1,246.849,247.349,,,,,,214,MAS,AGR,150,fondo,el,l,247.35,247.351,-0.207608696,-0.359782609,0,0,0,,0,87,87,213,1,,,,
,,,,,,7d224d7cf3340daa83413f26,66a626ef09d4e21e1a8894ec,67373fb7eed183810e118ab7,2024-11-15_13h34.28.234,Tarea de género gramatical,2024.2.2,MacIntel,62.5,,,,,,,,,,,,,,,,,,,,,,,247.352,248.482,l,1,0.458,,[],[],[],[],[],[],[],0.458,1,248.482,248.982,,,,,,130,MAS,AGR,150,yate,el,l,248.982,248.982,-0.207608696,-0.359782609,0,0,0,,0,88,88,129,1,,,,
,,,,,,7d224d7cf3340daa83413f26,66a626ef09d4e21e1a8894ec,67373fb7eed183810e118ab7,2024-11-15_13h34.28.234,Tarea de género gramatical,2024.2.2,MacIntel,62.5,,,,,,,,,,,,,,,,,,,,,,,248.982,250.032,l,1,0.373,,[],[],[],[],[],[],[],0.373,1,250.032,250.531,,,,,,341,MAS,CON,150,precio,,l,250.532,250.532,-0.207608696,-0.359782609,0,0,0,,0,89,89,340,1,,,,
,,,,,,7d224d7cf3340daa83413f26,66a626ef09d4e21e1a8894ec,67373fb7eed183810e118ab7,2024-11-15_13h34.28.234,Tarea de género gramatical,2024.2.2,MacIntel,62.5,,,,,,,,,,,,,,,,,,,,,,,250.532,251.565,a,1,0.355,,[],[],[],[],[],[],[],0.355,1,251.565,252.065,,,,,,319,FEM,AGR,150,sangre,la,a,252.065,252.065,-0.207608696,-0.359782609,0,0,0,,0,90,90,318,1,,,,
,,,,,,7d224d7cf3340daa83413f26,66a626ef09d4e21e1a8894ec,67373fb7eed183810e118ab7,2024-11-15_13h34.28.234,Tarea de género gramatical,2024.2.2,MacIntel,62.5,,,,,,,,,,,,,,,,,,,,,,,252.066,253.248,a,1,0.5,,[],[],[],[],[],[],[],0.5,1,253.248,253.748,,,,,,51,FEM,DIS,150,bala,el,a,253.748,253.748,-0.207608696,-0.359782609,0,0,0,,0,91,91,50,1,,,,
,,,,,,7d224d7cf3340daa83413f26,66a626ef09d4e21e1a8894ec,67373fb7eed183810e118ab7,2024-11-15_13h34.28.234,Tarea de género gramatical,2024.2.2,MacIntel,62.5,,,,,,,,,,,,,,,,,,,,,,,253.749,254.781,l,1,0.356,,[],[],[],[],[],[],[],0.356,1,254.782,255.282,,,,,,450,MAS,DIS,150,conejo,la,l,255.283,255.284,-0.207608696,-0.359782609,0,0,0,,0,92,92,449,1,,,,
,,,,,,7d224d7cf3340daa83413f26,66a626ef09d4e21e1a8894ec,67373fb7eed183810e118ab7,2024-11-15_13h34.28.234,Tarea de género gramatical,2024.2.2,MacIntel,62.5,,,,,,,,,,,,,,,,,,,,,,,255.285,256.615,l,1,0.657,,[],[],[],[],[],[],[],0.657,1,256.615,257.115,,,,,,228,MAS,DIS,150,nivel,la,l,257.115,257.115,-0.207608696,-0.359782609,0,0,0,,0,93,93,227,1,,,,
,,,,,,7d224d7cf3340daa83413f26,66a626ef09d4e21e1a8894ec,67373fb7eed183810e118ab7,2024-11-15_13h34.28.234,Tarea de género gramatical,2024.2.2,MacIntel,62.5,,,,,,,,,,,,,,,,,,,,,,,257.116,258.082,l,1,0.307,,[],[],[],[],[],[],[],0.307,1,258.082,258.581,,,,,,202,MAS,AGR,150,honor,el,l,258.582,258.582,-0.207608696,-0.359782609,0,0,0,,0,94,94,201,1,,,,
,,,,,,7d224d7cf3340daa83413f26,66a626ef09d4e21e1a8894ec,67373fb7eed183810e118ab7,2024-11-15_13h34.28.234,Tarea de género gramatical,2024.2.2,MacIntel,62.5,,,,,,,,,,,,,,,,,,,,,,,258.583,259.832,a,1,0.575,,[],[],[],[],[],[],[],0.575,1,259.832,260.331,,,,,,128,FEM,CON,150,leña,,a,260.332,260.332,-0.207608696,-0.359782609,0,0,0,,0,95,95,127,1,,,,
,,,,,,7d224d7cf3340daa83413f26,66a626ef09d4e21e1a8894ec,67373fb7eed183810e118ab7,2024-11-15_13h34.28.234,Tarea de género gramatical,2024.2.2,MacIntel,62.5,,,,,,,,,,,,,,,,,,,,,,,260.332,261.782,l,1,0.775,,[],[],[],[],[],[],[],0.775,1,261.782,262.281,,,,,,444,MAS,DIS,150,límite,la,l,262.282,262.283,-0.207608696,-0.359782609,0,0,0,,0,96,96,443,1,,,,
,,,,,,7d224d7cf3340daa83413f26,66a626ef09d4e21e1a8894ec,67373fb7eed183810e118ab7,2024-11-15_13h34.28.234,Tarea de género gramatical,2024.2.2,MacIntel,62.5,,,,,,,,,,,,,,,,,,,,,,,262.284,263.298,l,1,0.333,,[],[],[],[],[],[],[],0.333,1,263.298,263.798,,,,,,340,MAS,AGR,150,pasado,el,l,263.798,263.798,-0.207608696,-0.359782609,0,0,0,,0,97,97,339,1,,,,
,,,,,,7d224d7cf3340daa83413f26,66a626ef09d4e21e1a8894ec,67373fb7eed183810e118ab7,2024-11-15_13h34.28.234,Tarea de género gramatical,2024.2.2,MacIntel,62.5,,,,,,,,,,,,,,,,,,,,,,,263.8,264.915,a,1,0.441,,[],[],[],[],[],[],[],0.441,1,264.915,265.415,,,,,,303,FEM,DIS,150,maldad,el,a,265.415,265.415,-0.207608696,-0.359782609,0,0,0,,0,98,98,302,1,,,,
,,,,,,7d224d7cf3340daa83413f26,66a626ef09d4e21e1a8894ec,67373fb7eed183810e118ab7,2024-11-15_13h34.28.234,Tarea de género gramatical,2024.2.2,MacIntel,62.5,,,,,,,,,,,,,,,,,,,,,,,265.416,266.582,a,1,0.488,,[],[],[],[],[],[],[],0.488,1,266.582,267.081,,,,,,207,FEM,DIS,150,playa,el,a,267.081,267.082,-0.207608696,-0.359782609,0,0,0,,0,99,99,206,1,,,,
,,,,,,7d224d7cf3340daa83413f26,66a626ef09d4e21e1a8894ec,67373fb7eed183810e118ab7,2024-11-15_13h34.28.234,Tarea de género gramatical,2024.2.2,MacIntel,62.5,,,,,,,,,,,,,,,,,,,,,,,267.082,268.231,l,1,0.473,,[],[],[],[],[],[],[],0.473,1,268.232,268.732,,,,,,425,MAS,CON,150,chiste,,l,268.732,268.732,-0.207608696,-0.359782609,0,0,0,,0,100,100,424,1,,,,
,,,,,,7d224d7cf3340daa83413f26,66a626ef09d4e21e1a8894ec,67373fb7eed183810e118ab7,2024-11-15_13h34.28.234,Tarea de género gramatical,2024.2.2,MacIntel,62.5,,,,,,,,,,,,,,,,,,,,,,,268.732,269.748,l,1,0.341,,[],[],[],[],[],[],[],0.341,1,269.748,270.248,,,,,,406,MAS,AGR,150,premio,el,l,270.249,270.25,-0.207608696,-0.359782609,0,0,0,,0,101,101,405,1,,,,
,,,,,,7d224d7cf3340daa83413f26,66a626ef09d4e21e1a8894ec,67373fb7eed183810e118ab7,2024-11-15_13h34.28.234,Tarea de género gramatical,2024.2.2,MacIntel,62.5,,,,,,,,,,,,,,,,,,,,,,,270.25,271.249,l,1,0.325,,[],[],[],[],[],[],[],0.325,1,271.249,271.748,,,,,,185,MAS,CON,150,sueño,,l,271.748,271.748,-0.207608696,-0.359782609,0,0,0,,0,102,102,184,1,,,,
,,,,,,7d224d7cf3340daa83413f26,66a626ef09d4e21e1a8894ec,67373fb7eed183810e118ab7,2024-11-15_13h34.28.234,Tarea de género gramatical,2024.2.2,MacIntel,62.5,,,,,,,,,,,,,,,,,,,,,,,271.749,272.716,l,1,0.312,,[],[],[],[],[],[],[],0.312,1,272.716,273.214,,,,,,347,MAS,CON,150,cuello,,l,273.214,273.214,-0.207608696,-0.359782609,0,0,0,,0,103,103,346,1,,,,
,,,,,,7d224d7cf3340daa83413f26,66a626ef09d4e21e1a8894ec,67373fb7eed183810e118ab7,2024-11-15_13h34.28.234,Tarea de género gramatical,2024.2.2,MacIntel,62.5,,,,,,,,,,,,,,,,,,,,,,,273.215,274.47,a,1,0.586,,[],[],[],[],[],[],[],0.586,1,274.47,274.965,,,,,,315,FEM,DIS,150,manera,el,a,274.965,274.965,-0.207608696,-0.359782609,0,0,0,,0,104,104,314,1,,,,
,,,,,,7d224d7cf3340daa83413f26,66a626ef09d4e21e1a8894ec,67373fb7eed183810e118ab7,2024-11-15_13h34.28.234,Tarea de género gramatical,2024.2.2,MacIntel,62.5,,,,,,,,,,,,,,,,,,,,,,,274.966,276.033,a,1,0.393,,[],[],[],[],[],[],[],0.393,1,276.033,276.531,,,,,,351,FEM,DIS,150,espada,el,a,276.532,276.533,-0.207608696,-0.359782609,0,0,0,,0,105,105,350,1,,,,
,,,,,,7d224d7cf3340daa83413f26,66a626ef09d4e21e1a8894ec,67373fb7eed183810e118ab7,2024-11-15_13h34.28.234,Tarea de género gramatical,2024.2.2,MacIntel,62.5,,,,,,,,,,,,,,,,,,,,,,,276.534,277.515,l,1,0.306,,[],[],[],[],[],[],[],0.306,1,277.515,278.015,,,,,,95,MAS,CON,150,tomo,,l,278.015,278.015,-0.207608696,-0.359782609,0,0,0,,0,106,106,94,1,,,,
,,,,,,7d224d7cf3340daa83413f26,66a626ef09d4e21e1a8894ec,67373fb7eed183810e118ab7,2024-11-15_13h34.28.234,Tarea de género gramatical,2024.2.2,MacIntel,62.5,,,,,,,,,,,,,,,,,,,,,,,278.016,279.068,l,1,0.37,,[],[],[],[],[],[],[],0.37,1,279.068,279.565,,,,,,46,MAS,AGR,150,odio,el,l,279.565,279.565,-0.207608696,-0.359782609,0,0,0,,0,107,107,45,1,,,,
,,,,,,7d224d7cf3340daa83413f26,66a626ef09d4e21e1a8894ec,67373fb7eed183810e118ab7,2024-11-15_13h34.28.234,Tarea de género gramatical,2024.2.2,MacIntel,62.5,,,,,,,,,,,,,,,,,,,,,,,279.567,280.598,l,1,0.355,,[],[],[],[],[],[],[],0.355,1,280.598,281.098,,,,,,66,MAS,DIS,150,muro,la,l,281.098,281.098,-0.207608696,-0.359782609,0,0,0,,0,108,108,65,1,,,,
,,,,,,7d224d7cf3340daa83413f26,66a626ef09d4e21e1a8894ec,67373fb7eed183810e118ab7,2024-11-15_13h34.28.234,Tarea de género gramatical,2024.2.2,MacIntel,62.5,,,,,,,,,,,,,,,,,,,,,,,281.099,282.098,a,1,0.322,,[],[],[],[],[],[],[],0.322,1,282.098,282.598,,,,,,139,FEM,AGR,150,pipa,la,a,282.598,282.598,-0.207608696,-0.359782609,0,0,0,,0,109,109,138,1,,,,
,,,,,,7d224d7cf3340daa83413f26,66a626ef09d4e21e1a8894ec,67373fb7eed183810e118ab7,2024-11-15_13h34.28.234,Tarea de género gramatical,2024.2.2,MacIntel,62.5,,,,,,,,,,,,,,,,,,,,,,,282.599,283.617,l,1,0.341,,[],[],[],[],[],[],[],0.341,1,283.617,284.115,,,,,,106,MAS,AGR,150,test,el,l,284.116,284.117,-0.207608696,-0.359782609,0,0,0,,0,110,110,105,1,,,,
,,,,,,7d224d7cf3340daa83413f26,66a626ef09d4e21e1a8894ec,67373fb7eed183810e118ab7,2024-11-15_13h34.28.234,Tarea de género gramatical,2024.2.2,MacIntel,62.5,,,,,,,,,,,,,,,,,,,,,,,284.118,285.248,a,1,0.451,,[],[],[],[],[],[],[],0.451,1,285.248,285.748,,,,,,44,FEM,CON,150,zona,,a,285.748,285.749,-0.207608696,-0.359782609,0,0,0,,0,111,111,43,1,,,,
,,,,,,7d224d7cf3340daa83413f26,66a626ef09d4e21e1a8894ec,67373fb7eed183810e118ab7,2024-11-15_13h34.28.234,Tarea de género gramatical,2024.2.2,MacIntel,62.5,,,,,,,,,,,,,,,,,,,,,,,285.75,286.735,l,1,0.312,,[],[],[],[],[],[],[],0.312,1,286.735,287.231,,,,,,443,MAS,CON,150,templo,,l,287.231,287.232,-0.207608696,-0.359782609,0,0,0,,0,112,112,442,1,,,,
,,,,,,7d224d7cf3340daa83413f26,66a626ef09d4e21e1a8894ec,67373fb7eed183810e118ab7,2024-11-15_13h34.28.234,Tarea de género gramatical,2024.2.2,MacIntel,62.5,,,,,,,,,,,,,,,,,,,,,,,287.232,288.331,l,1,0.424,,[],[],[],[],[],[],[],0.424,1,288.332,288.831,,,,,,48,MAS,DIS,150,loco,la,l,288.832,288.832,-0.207608696,-0.359782609,0,0,0,,0,113,113,47,1,,,,
,,,,,,7d224d7cf3340daa83413f26,66a626ef09d4e21e1a8894ec,67373fb7eed183810e118ab7,2024-11-15_13h34.28.234,Tarea de género gramatical,2024.2.2,MacIntel,62.5,,,,,,,,,,,,,,,,,,,,,,,288.834,289.932,a,1,0.424,,[],[],[],[],[],[],[],0.424,1,289.932,290.431,,,,,,194,FEM,CON,150,banda,,a,290.432,290.433,-0.207608696,-0.359782609,0,0,0,,0,114,114,193,1,,,,
,,,,,,7d224d7cf3340daa83413f26,66a626ef09d4e21e1a8894ec,67373fb7eed183810e118ab7,2024-11-15_13h34.28.234,Tarea de género gramatical,2024.2.2,MacIntel,62.5,,,,,,,,,,,,,,,,,,,,,,,290.433,291.415,l,1,0.306,,[],[],[],[],[],[],[],0.306,1,291.415,291.915,,,,,,359,MAS,CON,150,bosque,,l,291.915,291.915,-0.207608696,-0.359782609,0,0,0,,0,115,115,358,1,,,,
,,,,,,7d224d7cf3340daa83413f26,66a626ef09d4e21e1a8894ec,67373fb7eed183810e118ab7,2024-11-15_13h34.28.234,Tarea de género gramatical,2024.2.2,MacIntel,62.5,,,,,,,,,,,,,,,,,,,,,,,291.916,292.915,a,1,0.324,,[],[],[],[],[],[],[],0.324,1,292.915,293.415,,,,,,2,FEM,CON,150,vida,,a,293.415,293.415,-0.207608696,-0.359782609,0,0,0,,0,116,116,1,1,,,,
,,,,,,7d224d7cf3340daa83413f26,66a626ef09d4e21e1a8894ec,67373fb7eed183810e118ab7,2024-11-15_13h34.28.234,Tarea de género gramatical,2024.2.2,MacIntel,62.5,,,,,,,,,,,,,,,,,,,,,,,293.416,294.506,a,1,0.399,,[],[],[],[],[],[],[],0.399,1,294.507,294.998,,,,,,223,FEM,AGR,150,plata,la,a,294.998,294.999,-0.207608696,-0.359782609,0,0,0,,0,117,117,222,1,,,,
,,,,,,7d224d7cf3340daa83413f26,66a626ef09d4e21e1a8894ec,67373fb7eed183810e118ab7,2024-11-15_13h34.28.234,Tarea de género gramatical,2024.2.2,MacIntel,62.5,,,,,,,,,,,,,,,,,,,,,,,295.001,296.098,a,1,0.424,,[],[],[],[],[],[],[],0.424,1,296.099,296.598,,,,,,398,FEM,CON,150,hierba,,a,296.598,296.598,-0.207608696,-0.359782609,0,0,0,,0,118,118,397,1,,,,
,,,,,,7d224d7cf3340daa83413f26,66a626ef09d4e21e1a8894ec,67373fb7eed183810e118ab7,2024-11-15_13h34.28.234,Tarea de género gramatical,2024.2.2,MacIntel,62.5,,,,,,,,,,,,,,,,,,,,,,,296.599,297.631,l,1,0.356,,[],[],[],[],[],[],[],0.356,1,297.631,298.131,,,,,,34,MAS,AGR,150,gato,el,l,298.132,298.136,-0.207608696,-0.359782609,0,0,0,,0,119,119,33,1,,,,
,,,,,,7d224d7cf3340daa83413f26,66a626ef09d4e21e1a8894ec,67373fb7eed183810e118ab7,2024-11-15_13h34.28.234,Tarea de género gramatical,2024.2.2,MacIntel,62.5,,,,,,,,,,,,,,,,,,,,,,,298.137,299.134,a,1,0.329,,[],[],[],[],[],[],[],0.329,1,299.134,299.631,,,,,,85,FEM,AGR,150,gira,la,a,299.631,299.632,-0.207608696,-0.359782609,0,0,0,,0,120,120,84,1,,,,
,,,,,,7d224d7cf3340daa83413f26,66a626ef09d4e21e1a8894ec,67373fb7eed183810e118ab7,2024-11-15_13h34.28.234,Tarea de género gramatical,2024.2.2,MacIntel,62.5,,,,,,,,,,,,,,,,,,,,,,,299.632,300.731,l,1,0.42,,[],[],[],[],[],[],[],0.42,1,300.731,301.231,,,,,,317,MAS,CON,150,número,,l,301.232,301.232,-0.207608696,-0.359782609,0,0,0,,0,121,121,316,1,,,,
,,,,,,7d224d7cf3340daa83413f26,66a626ef09d4e21e1a8894ec,67373fb7eed183810e118ab7,2024-11-15_13h34.28.234,Tarea de género gramatical,2024.2.2,MacIntel,62.5,,,,,,,,,,,,,,,,,,,,,,,301.232,302.414,a,0,0.505,,[],[],[],[],[],[],[],0.505,0,302.415,302.915,,,,,,438,MAS,DIS,150,tanque,la,l,302.915,302.915,-0.207608696,-0.359782609,0,0,0,,0,122,122,437,1,,,,
,,,,,,7d224d7cf3340daa83413f26,66a626ef09d4e21e1a8894ec,67373fb7eed183810e118ab7,2024-11-15_13h34.28.234,Tarea de género gramatical,2024.2.2,MacIntel,62.5,,,,,,,,,,,,,,,,,,,,,,,302.915,303.948,l,0,0.357,,[],[],[],[],[],[],[],0.357,0,303.948,304.448,,,,,,14,FEM,CON,150,cara,,a,304.449,304.45,-0.207608696,-0.359782609,0,0,0,,0,123,123,13,1,,,,
,,,,,,7d224d7cf3340daa83413f26,66a626ef09d4e21e1a8894ec,67373fb7eed183810e118ab7,2024-11-15_13h34.28.234,Tarea de género gramatical,2024.2.2,MacIntel,62.5,,,,,,,,,,,,,,,,,,,,,,,304.45,305.588,l,1,0.462,,[],[],[],[],[],[],[],0.462,1,305.588,306.081,,,,,,41,MAS,CON,150,bote,,l,306.081,306.081,-0.207608696,-0.359782609,0,0,0,,0,124,124,40,1,,,,
,,,,,,7d224d7cf3340daa83413f26,66a626ef09d4e21e1a8894ec,67373fb7eed183810e118ab7,2024-11-15_13h34.28.234,Tarea de género gramatical,2024.2.2,MacIntel,62.5,,,,,,,,,,,,,,,,,,,,,,,306.082,307.198,a,1,0.439,,[],[],[],[],[],[],[],0.439,1,307.198,307.698,,,,,,182,FEM,CON,150,prisa,,a,307.698,307.698,-0.207608696,-0.359782609,0,0,0,,0,125,125,181,1,,,,
,,,,,,7d224d7cf3340daa83413f26,66a626ef09d4e21e1a8894ec,67373fb7eed183810e118ab7,2024-11-15_13h34.28.234,Tarea de género gramatical,2024.2.2,MacIntel,62.5,,,,,,,,,,,,,,,,,,,,,,,307.699,308.698,a,1,0.323,,[],[],[],[],[],[],[],0.323,1,308.698,309.197,,,,,,165,FEM,DIS,150,amiga,el,a,309.197,309.197,-0.207608696,-0.359782609,0,0,0,,0,126,126,164,1,,,,
,,,,,,7d224d7cf3340daa83413f26,66a626ef09d4e21e1a8894ec,67373fb7eed183810e118ab7,2024-11-15_13h34.28.234,Tarea de género gramatical,2024.2.2,MacIntel,62.5,,,,,,,,,,,,,,,,,,,,,,,309.198,310.181,a,1,0.323,,[],[],[],[],[],[],[],0.323,1,310.181,310.681,,,,,,428,FEM,CON,150,jugada,,a,310.681,310.681,-0.207608696,-0.359782609,0,0,0,,0,127,127,427,1,,,,
,,,,,,7d224d7cf3340daa83413f26,66a626ef09d4e21e1a8894ec,67373fb7eed183810e118ab7,2024-11-15_13h34.28.234,Tarea de género gramatical,2024.2.2,MacIntel,62.5,,,,,,,,,,,,,,,,,,,,,,,310.682,311.598,l,1,0.256,,[],[],[],[],[],[],[],0.256,1,311.598,312.098,,,,,,264,MAS,DIS,150,pollo,la,l,312.1,312.101,-0.207608696,-0.359782609,0,0,0,,0,128,128,263,1,,,,
,,,,,,7d224d7cf3340daa83413f26,66a626ef09d4e21e1a8894ec,67373fb7eed183810e118ab7,2024-11-15_13h34.28.234,Tarea de género gramatical,2024.2.2,MacIntel,62.5,,,,,,,,,,,,,,,,,,,,,,,312.101,313.331,a,1,0.556,,[],[],[],[],[],[],[],0.556,1,313.331,313.831,,,,,,273,FEM,DIS,150,tarta,el,a,313.831,313.831,-0.207608696,-0.359782609,0,0,0,,0,129,129,272,1,,,,
,,,,,,7d224d7cf3340daa83413f26,66a626ef09d4e21e1a8894ec,67373fb7eed183810e118ab7,2024-11-15_13h34.28.234,Tarea de género gramatical,2024.2.2,MacIntel,62.5,,,,,,,,,,,,,,,,,,,,,,,313.832,314.932,a,1,0.419,,[],[],[],[],[],[],[],0.419,1,314.932,315.432,,,,,,429,FEM,DIS,150,fianza,el,a,315.432,315.432,-0.207608696,-0.359782609,0,0,0,,0,130,130,428,1,,,,
,,,,,,7d224d7cf3340daa83413f26,66a626ef09d4e21e1a8894ec,67373fb7eed183810e118ab7,2024-11-15_13h34.28.234,Tarea de género gramatical,2024.2.2,MacIntel,62.5,,,,,,,,,,,,,,,,,,,,,,,315.433,316.414,l,1,0.305,,[],[],[],[],[],[],[],0.305,1,316.414,316.915,,,,,,149,MAS,CON,150,nudo,,l,316.915,316.915,-0.207608696,-0.359782609,0,0,0,,0,131,131,148,1,,,,
,,,,,,7d224d7cf3340daa83413f26,66a626ef09d4e21e1a8894ec,67373fb7eed183810e118ab7,2024-11-15_13h34.28.234,Tarea de género gramatical,2024.2.2,MacIntel,62.5,,,,,,,,,,,,,,,,,,,,,,,316.915,318.065,a,0,0.471,,[],[],[],[],[],[],[],0.471,0,318.065,318.565,,,,,,412,MAS,AGR,150,espejo,el,l,318.565,318.566,-0.207608696,-0.359782609,0,0,0,,0,132,132,411,1,,,,
,,,,,,7d224d7cf3340daa83413f26,66a626ef09d4e21e1a8894ec,67373fb7eed183810e118ab7,2024-11-15_13h34.28.234,Tarea de género gramatical,2024.2.2,MacIntel,62.5,,,,,,,,,,,,,,,,,,,,,,,318.566,319.614,l,1,0.371,,[],[],[],[],[],[],[],0.371,1,319.615,320.115,,,,,,346,MAS,AGR,150,juicio,el,l,320.115,320.115,-0.207608696,-0.359782609,0,0,0,,0,133,133,345,1,,,,
,,,,,,7d224d7cf3340daa83413f26,66a626ef09d4e21e1a8894ec,67373fb7eed183810e118ab7,2024-11-15_13h34.28.234,Tarea de género gramatical,2024.2.2,MacIntel,62.5,,,,,,,,,,,,,,,,,,,,,,,320.116,321.148,a,1,0.355,,[],[],[],[],[],[],[],0.355,1,321.148,321.648,,,,,,433,FEM,AGR,150,huella,la,a,321.648,321.648,-0.207608696,-0.359782609,0,0,0,,0,134,134,432,1,,,,
,,,,,,7d224d7cf3340daa83413f26,66a626ef09d4e21e1a8894ec,67373fb7eed183810e118ab7,2024-11-15_13h34.28.234,Tarea de género gramatical,2024.2.2,MacIntel,62.5,,,,,,,,,,,,,,,,,,,,,,,321.649,322.702,l,1,0.378,,[],[],[],[],[],[],[],0.378,1,322.702,323.198,,,,,,329,MAS,CON,150,futuro,,l,323.198,323.198,-0.207608696,-0.359782609,0,0,0,,0,135,135,328,1,,,,
,,,,,,7d224d7cf3340daa83413f26,66a626ef09d4e21e1a8894ec,67373fb7eed183810e118ab7,2024-11-15_13h34.28.234,Tarea de género gramatical,2024.2.2,MacIntel,62.5,,,,,,,,,,,,,,,,,,,,,,,323.198,324.198,l,1,0.322,,[],[],[],[],[],[],[],0.322,1,324.198,324.698,,,,,,274,MAS,AGR,150,motor,el,l,324.698,324.699,-0.207608696,-0.359782609,0,0,0,,0,136,136,273,1,,,,
,,,,,,7d224d7cf3340daa83413f26,66a626ef09d4e21e1a8894ec,67373fb7eed183810e118ab7,2024-11-15_13h34.28.234,Tarea de género gramatical,2024.2.2,MacIntel,62.5,,,,,,,,,,,,,,,,,,,,,,,324.7,325.748,l,1,0.367,,[],[],[],[],[],[],[],0.367,1,325.748,326.248,,,,,,52,MAS,AGR,150,lago,el,l,326.249,326.25,-0.207608696,-0.359782609,0,0,0,,0,137,137,51,1,,,,
,,,,,,7d224d7cf3340daa83413f26,66a626ef09d4e21e1a8894ec,67373fb7eed183810e118ab7,2024-11-15_13h34.28.234,Tarea de género gramatical,2024.2.2,MacIntel,62.5,,,,,,,,,,,,,,,,,,,,,,,326.251,327.331,a,1,0.405,,[],[],[],[],[],[],[],0.405,1,327.331,327.831,,,,,,327,FEM,DIS,150,tienda,el,a,327.832,327.832,-0.207608696,-0.359782609,0,0,0,,0,138,138,326,1,,,,
,,,,,,7d224d7cf3340daa83413f26,66a626ef09d4e21e1a8894ec,67373fb7eed183810e118ab7,2024-11-15_13h34.28.234,Tarea de género gramatical,2024.2.2,MacIntel,62.5,,,,,,,,,,,,,,,,,,,,,,,327.833,328.917,a,1,0.408,,[],[],[],[],[],[],[],0.408,1,328.917,329.414,,,,,,332,FEM,CON,150,basura,,a,329.414,329.415,-0.207608696,-0.359782609,0,0,0,,0,139,139,331,1,,,,
,,,,,,7d224d7cf3340daa83413f26,66a626ef09d4e21e1a8894ec,67373fb7eed183810e118ab7,2024-11-15_13h34.28.234,Tarea de género gramatical,2024.2.2,MacIntel,62.5,,,,,,,,,,,,,,,,,,,,,,,329.416,330.498,l,1,0.408,,[],[],[],[],[],[],[],0.408,1,330.498,330.998,,,,,,414,MAS,DIS,150,sótano,la,l,330.998,330.998,-0.207608696,-0.359782609,0,0,0,,0,140,140,413,1,,,,
,,,,,,7d224d7cf3340daa83413f26,66a626ef09d4e21e1a8894ec,67373fb7eed183810e118ab7,2024-11-15_13h34.28.234,Tarea de género gramatical,2024.2.2,MacIntel,62.5,,,,,,,,,,,,,,,,,,,,,,,330.998,332.065,l,1,0.41,,[],[],[],[],[],[],[],0.41,1,332.065,332.565,,,,,,198,MAS,DIS,150,hotel,la,l,332.565,332.567,-0.207608696,-0.359782609,0,0,0,,0,141,141,197,1,,,,
,,,,,,7d224d7cf3340daa83413f26,66a626ef09d4e21e1a8894ec,67373fb7eed183810e118ab7,2024-11-15_13h34.28.234,Tarea de género gramatical,2024.2.2,MacIntel,62.5,,,,,,,,,,,,,,,,,,,,,,,332.567,333.898,a,1,0.655,,[],[],[],[],[],[],[],0.655,1,333.898,334.398,,,,,,417,FEM,DIS,150,cabaña,el,a,334.398,334.398,-0.207608696,-0.359782609,0,0,0,,0,142,142,416,1,,,,
,,,,,,7d224d7cf3340daa83413f26,66a626ef09d4e21e1a8894ec,67373fb7eed183810e118ab7,2024-11-15_13h34.28.234,Tarea de género gramatical,2024.2.2,MacIntel,62.5,,,,,,,,,,,,,,,,,,,,,,,334.398,335.417,l,1,0.344,,[],[],[],[],[],[],[],0.344,1,335.417,335.915,,,,,,330,MAS,DIS,150,estado,la,l,335.915,335.915,-0.207608696,-0.359782609,0,0,0,,0,143,143,329,1,,,,
,,,,,,7d224d7cf3340daa83413f26,66a626ef09d4e21e1a8894ec,67373fb7eed183810e118ab7,2024-11-15_13h34.28.234,Tarea de género gramatical,2024.2.2,MacIntel,62.5,,,,,,,,,,,,,,,,,,,,,,,335.916,337.198,a,1,0.603,,[],[],[],[],[],[],[],0.603,1,337.198,337.698,,,,,,3,FEM,DIS,150,cosa,el,a,337.698,337.698,-0.207608696,-0.359782609,0,0,0,,0,144,144,2,1,,,,
,,,,,,7d224d7cf3340daa83413f26,66a626ef09d4e21e1a8894ec,67373fb7eed183810e118ab7,2024-11-15_13h34.28.234,Tarea de género gramatical,2024.2.2,MacIntel,62.5,,,,,,,,,,,,,,,,,,,,,,,337.699,338.831,a,1,0.45,,[],[],[],[],[],[],[],0.45,1,338.831,339.331,,,,,,242,FEM,CON,150,pizza,,a,339.331,339.331,-0.207608696,-0.359782609,0,0,0,,0,145,145,241,1,,,,
,,,,,,7d224d7cf3340daa83413f26,66a626ef09d4e21e1a8894ec,67373fb7eed183810e118ab7,2024-11-15_13h34.28.234,Tarea de género gramatical,2024.2.2,MacIntel,62.5,,,,,,,,,,,,,,,,,,,,,,,339.332,340.382,l,1,0.376,,[],[],[],[],[],[],[],0.376,1,340.382,340.881,,,,,,448,MAS,AGR,150,aceite,el,l,340.882,340.883,-0.207608696,-0.359782609,0,0,0,,0,146,146,447,1,,,,
,,,,,,7d224d7cf3340daa83413f26,66a626ef09d4e21e1a8894ec,67373fb7eed183810e118ab7,2024-11-15_13h34.28.234,Tarea de género gramatical,2024.2.2,MacIntel,62.5,,,,,,,,,,,,,,,,,,,,,,,340.884,342.014,a,1,0.459,,[],[],[],[],[],[],[],0.459,1,342.015,342.514,,,,,,284,FEM,CON,150,fruta,,a,342.515,342.515,-0.207608696,-0.359782609,0,0,0,,0,147,147,283,1,,,,
,,,,,,7d224d7cf3340daa83413f26,66a626ef09d4e21e1a8894ec,67373fb7eed183810e118ab7,2024-11-15_13h34.28.234,Tarea de género gramatical,2024.2.2,MacIntel,62.5,,,,,,,,,,,,,,,,,,,,,,,342.515,343.481,l,1,0.283,,[],[],[],[],[],[],[],0.283,1,343.481,343.981,,,,,,318,MAS,DIS,150,pueblo,la,l,343.981,343.981,-0.207608696,-0.359782609,0,0,0,,0,148,148,317,1,,,,
,,,,,,7d224d7cf3340daa83413f26,66a626ef09d4e21e1a8894ec,67373fb7eed183810e118ab7,2024-11-15_13h34.28.234,Tarea de género gramatical,2024.2.2,MacIntel,62.5,,,,,,,,,,,,,,,,,,,,,,,343.982,345.064,l,1,0.405,,[],[],[],[],[],[],[],0.405,1,345.065,345.565,,,,,,204,MAS,DIS,150,papel,la,l,345.565,345.565,-0.207608696,-0.359782609,0,0,0,,0,149,149,203,1,,,,
,,,,,,7d224d7cf3340daa83413f26,66a626ef09d4e21e1a8894ec,67373fb7eed183810e118ab7,2024-11-15_13h34.28.234,Tarea de género gramatical,2024.2.2,MacIntel,62.5,,,,,,,,,,,,,,,,,,,,,,,345.566,346.598,l,1,0.355,,[],[],[],[],[],[],[],0.355,1,346.598,347.098,,,,,,5,MAS,CON,150,tipo,,l,347.098,357.505,-0.207608696,-0.359782609,0,0,0,space,0,150,150,4,1,10.373,,,
,,,,,,7d224d7cf3340daa83413f26,66a626ef09d4e21e1a8894ec,67373fb7eed183810e118ab7,2024-11-15_13h34.28.234,Tarea de género gramatical,2024.2.2,MacIntel,62.5,,,,,,,,,,,,,,,,,,,,,,,357.509,358.598,a,1,0.424,,[],[],[],[],[],[],[],0.424,1,358.598,359.098,,,,,,127,FEM,AGR,150,cuna,la,a,359.098,359.098,-0.207608696,-0.359782609,0,0,0,,0,151,151,126,1,,,,
,,,,,,7d224d7cf3340daa83413f26,66a626ef09d4e21e1a8894ec,67373fb7eed183810e118ab7,2024-11-15_13h34.28.234,Tarea de género gramatical,2024.2.2,MacIntel,62.5,,,,,,,,,,,,,,,,,,,,,,,359.1,360.131,l,1,0.356,,[],[],[],[],[],[],[],0.356,1,360.131,360.631,,,,,,6,MAS,DIS,150,lado,la,l,360.631,360.631,-0.207608696,-0.359782609,0,0,0,,0,152,152,5,1,,,,
,,,,,,7d224d7cf3340daa83413f26,66a626ef09d4e21e1a8894ec,67373fb7eed183810e118ab7,2024-11-15_13h34.28.234,Tarea de género gramatical,2024.2.2,MacIntel,62.5,,,,,,,,,,,,,,,,,,,,,,,360.632,361.681,a,1,0.373,,[],[],[],[],[],[],[],0.373,1,361.681,362.181,,,,,,39,FEM,DIS,150,luna,el,a,362.181,362.181,-0.207608696,-0.359782609,0,0,0,,0,153,153,38,1,,,,
,,,,,,7d224d7cf3340daa83413f26,66a626ef09d4e21e1a8894ec,67373fb7eed183810e118ab7,2024-11-15_13h34.28.234,Tarea de género gramatical,2024.2.2,MacIntel,62.5,,,,,,,,,,,,,,,,,,,,,,,362.182,363.249,l,1,0.41,,[],[],[],[],[],[],[],0.41,1,363.249,363.748,,,,,,395,MAS,CON,150,correo,,l,363.748,363.748,-0.207608696,-0.359782609,0,0,0,,0,154,154,394,1,,,,
,,,,,,7d224d7cf3340daa83413f26,66a626ef09d4e21e1a8894ec,67373fb7eed183810e118ab7,2024-11-15_13h34.28.234,Tarea de género gramatical,2024.2.2,MacIntel,62.5,,,,,,,,,,,,,,,,,,,,,,,363.749,364.668,l,1,0.261,,[],[],[],[],[],[],[],0.261,1,364.668,365.165,,,,,,155,MAS,CON,150,mundo,,l,365.165,365.167,-0.207608696,-0.359782609,0,0,0,,0,155,155,154,1,,,,
,,,,,,7d224d7cf3340daa83413f26,66a626ef09d4e21e1a8894ec,67373fb7eed183810e118ab7,2024-11-15_13h34.28.234,Tarea de género gramatical,2024.2.2,MacIntel,62.5,,,,,,,,,,,,,,,,,,,,,,,365.167,366.065,l,1,0.221,,[],[],[],[],[],[],[],0.221,1,366.065,366.564,,,,,,29,MAS,CON,150,frío,,l,366.564,366.565,-0.207608696,-0.359782609,0,0,0,,0,156,156,28,1,,,,
,,,,,,7d224d7cf3340daa83413f26,66a626ef09d4e21e1a8894ec,67373fb7eed183810e118ab7,2024-11-15_13h34.28.234,Tarea de género gramatical,2024.2.2,MacIntel,62.5,,,,,,,,,,,,,,,,,,,,,,,366.566,367.516,l,1,0.274,,[],[],[],[],[],[],[],0.274,1,367.516,368.014,,,,,,173,MAS,CON,150,libro,,l,368.014,368.015,-0.207608696,-0.359782609,0,0,0,,0,157,157,172,1,,,,
,,,,,,7d224d7cf3340daa83413f26,66a626ef09d4e21e1a8894ec,67373fb7eed183810e118ab7,2024-11-15_13h34.28.234,Tarea de género gramatical,2024.2.2,MacIntel,62.5,,,,,,,,,,,,,,,,,,,,,,,368.015,369.064,l,1,0.372,,[],[],[],[],[],[],[],0.372,1,369.065,369.564,,,,,,94,MAS,AGR,150,cabo,el,l,369.565,369.565,-0.207608696,-0.359782609,0,0,0,,0,158,158,93,1,,,,
,,,,,,7d224d7cf3340daa83413f26,66a626ef09d4e21e1a8894ec,67373fb7eed183810e118ab7,2024-11-15_13h34.28.234,Tarea de género gramatical,2024.2.2,MacIntel,62.5,,,,,,,,,,,,,,,,,,,,,,,369.565,370.698,a,1,0.452,,[],[],[],[],[],[],[],0.452,1,370.698,371.198,,,,,,249,FEM,DIS,150,crema,el,a,371.198,371.2,-0.207608696,-0.359782609,0,0,0,,0,159,159,248,1,,,,
,,,,,,7d224d7cf3340daa83413f26,66a626ef09d4e21e1a8894ec,67373fb7eed183810e118ab7,2024-11-15_13h34.28.234,Tarea de género gramatical,2024.2.2,MacIntel,62.5,,,,,,,,,,,,,,,,,,,,,,,371.2,372.281,l,0,0.408,,[],[],[],[],[],[],[],0.408,0,372.282,372.781,,,,,,50,FEM,CON,150,dama,,a,372.781,372.781,-0.207608696,-0.359782609,0,0,0,,0,160,160,49,1,,,,
,,,,,,7d224d7cf3340daa83413f26,66a626ef09d4e21e1a8894ec,67373fb7eed183810e118ab7,2024-11-15_13h34.28.234,Tarea de género gramatical,2024.2.2,MacIntel,62.5,,,,,,,,,,,,,,,,,,,,,,,372.782,373.848,l,1,0.385,,[],[],[],[],[],[],[],0.385,1,373.848,374.348,,,,,,239,MAS,CON,150,reloj,,l,374.348,374.348,-0.207608696,-0.359782609,0,0,0,,0,161,161,238,1,,,,
,,,,,,7d224d7cf3340daa83413f26,66a626ef09d4e21e1a8894ec,67373fb7eed183810e118ab7,2024-11-15_13h34.28.234,Tarea de género gramatical,2024.2.2,MacIntel,62.5,,,,,,,,,,,,,,,,,,,,,,,374.349,375.781,l,1,0.758,,[],[],[],[],[],[],[],0.758,1,375.781,376.281,,,,,,390,MAS,DIS,150,rostro,la,l,376.281,376.281,-0.207608696,-0.359782609,0,0,0,,0,162,162,389,1,,,,
,,,,,,7d224d7cf3340daa83413f26,66a626ef09d4e21e1a8894ec,67373fb7eed183810e118ab7,2024-11-15_13h34.28.234,Tarea de género gramatical,2024.2.2,MacIntel,62.5,,,,,,,,,,,,,,,,,,,,,,,376.282,377.648,a,1,0.693,,[],[],[],[],[],[],[],0.693,1,377.648,378.148,,,,,,177,FEM,DIS,150,broma,el,a,378.148,378.148,-0.207608696,-0.359782609,0,0,0,,0,163,163,176,1,,,,
,,,,,,7d224d7cf3340daa83413f26,66a626ef09d4e21e1a8894ec,67373fb7eed183810e118ab7,2024-11-15_13h34.28.234,Tarea de género gramatical,2024.2.2,MacIntel,62.5,,,,,,,,,,,,,,,,,,,,,,,378.148,379.231,l,1,0.405,,[],[],[],[],[],[],[],0.405,1,379.231,379.731,,,,,,234,MAS,DIS,150,héroe,la,l,379.732,379.733,-0.207608696,-0.359782609,0,0,0,,0,164,164,233,1,,,,
,,,,,,7d224d7cf3340daa83413f26,66a626ef09d4e21e1a8894ec,67373fb7eed183810e118ab7,2024-11-15_13h34.28.234,Tarea de género gramatical,2024.2.2,MacIntel,62.5,,,,,,,,,,,,,,,,,,,,,,,379.733,380.749,l,1,0.344,,[],[],[],[],[],[],[],0.344,1,380.749,381.248,,,,,,58,MAS,AGR,150,mono,el,l,381.248,381.248,-0.207608696,-0.359782609,0,0,0,,0,165,165,57,1,,,,
,,,,,,7d224d7cf3340daa83413f26,66a626ef09d4e21e1a8894ec,67373fb7eed183810e118ab7,2024-11-15_13h34.28.234,Tarea de género gramatical,2024.2.2,MacIntel,62.5,,,,,,,,,,,,,,,,,,,,,,,381.248,382.382,a,1,0.46,,[],[],[],[],[],[],[],0.46,1,382.383,382.881,,,,,,103,FEM,AGR,150,fama,la,a,382.881,382.882,-0.207608696,-0.359782609,0,0,0,,0,166,166,102,1,,,,
,,,,,,7d224d7cf3340daa83413f26,66a626ef09d4e21e1a8894ec,67373fb7eed183810e118ab7,2024-11-15_13h34.28.234,Tarea de género gramatical,2024.2.2,MacIntel,62.5,,,,,,,,,,,,,,,,,,,,,,,382.883,383.998,a,1,0.439,,[],[],[],[],[],[],[],0.439,1,383.998,384.498,,,,,,320,FEM,CON,150,fiesta,,a,384.498,384.498,-0.207608696,-0.359782609,0,0,0,,0,167,167,319,1,,,,
,,,,,,7d224d7cf3340daa83413f26,66a626ef09d4e21e1a8894ec,67373fb7eed183810e118ab7,2024-11-15_13h34.28.234,Tarea de género gramatical,2024.2.2,MacIntel,62.5,,,,,,,,,,,,,,,,,,,,,,,384.499,385.502,a,1,0.328,,[],[],[],[],[],[],[],0.328,1,385.502,385.998,,,,,,20,FEM,CON,150,ropa,,a,385.998,385.999,-0.207608696,-0.359782609,0,0,0,,0,168,168,19,1,,,,
,,,,,,7d224d7cf3340daa83413f26,66a626ef09d4e21e1a8894ec,67373fb7eed183810e118ab7,2024-11-15_13h34.28.234,Tarea de género gramatical,2024.2.2,MacIntel,62.5,,,,,,,,,,,,,,,,,,,,,,,386,386.964,a,1,0.289,,[],[],[],[],[],[],[],0.289,1,386.964,387.464,,,,,,241,FEM,AGR,150,pasta,la,a,387.464,387.465,-0.207608696,-0.359782609,0,0,0,,0,169,169,240,1,,,,
,,,,,,7d224d7cf3340daa83413f26,66a626ef09d4e21e1a8894ec,67373fb7eed183810e118ab7,2024-11-15_13h34.28.234,Tarea de género gramatical,2024.2.2,MacIntel,62.5,,,,,,,,,,,,,,,,,,,,,,,387.465,388.516,a,1,0.381,,[],[],[],[],[],[],[],0.381,1,388.516,389.015,,,,,,181,FEM,AGR,150,tarde,la,a,389.015,389.015,-0.207608696,-0.359782609,0,0,0,,0,170,170,180,1,,,,
,,,,,,7d224d7cf3340daa83413f26,66a626ef09d4e21e1a8894ec,67373fb7eed183810e118ab7,2024-11-15_13h34.28.234,Tarea de género gramatical,2024.2.2,MacIntel,62.5,,,,,,,,,,,,,,,,,,,,,,,389.016,390.131,l,1,0.438,,[],[],[],[],[],[],[],0.438,1,390.131,390.631,,,,,,42,MAS,DIS,150,show,la,l,390.631,390.631,-0.207608696,-0.359782609,0,0,0,,0,171,171,41,1,,,,
,,,,,,7d224d7cf3340daa83413f26,66a626ef09d4e21e1a8894ec,67373fb7eed183810e118ab7,2024-11-15_13h34.28.234,Tarea de género gramatical,2024.2.2,MacIntel,62.5,,,,,,,,,,,,,,,,,,,,,,,390.632,391.753,l,1,0.435,,[],[],[],[],[],[],[],0.435,1,391.753,392.248,,,,,,311,MAS,CON,150,camino,,l,392.248,392.248,-0.207608696,-0.359782609,0,0,0,,0,172,172,310,1,,,,
,,,,,,7d224d7cf3340daa83413f26,66a626ef09d4e21e1a8894ec,67373fb7eed183810e118ab7,2024-11-15_13h34.28.234,Tarea de género gramatical,2024.2.2,MacIntel,62.5,,,,,,,,,,,,,,,,,,,,,,,392.25,393.231,l,1,0.307,,[],[],[],[],[],[],[],0.307,1,393.231,393.731,,,,,,191,MAS,CON,150,dolor,,l,393.732,393.733,-0.207608696,-0.359782609,0,0,0,,0,173,173,190,1,,,,
,,,,,,7d224d7cf3340daa83413f26,66a626ef09d4e21e1a8894ec,67373fb7eed183810e118ab7,2024-11-15_13h34.28.234,Tarea de género gramatical,2024.2.2,MacIntel,62.5,,,,,,,,,,,,,,,,,,,,,,,393.733,395.098,a,1,0.688,,[],[],[],[],[],[],[],0.688,1,395.098,395.598,,,,,,361,FEM,AGR,150,oferta,la,a,395.598,395.598,-0.207608696,-0.359782609,0,0,0,,0,174,174,360,1,,,,
,,,,,,7d224d7cf3340daa83413f26,66a626ef09d4e21e1a8894ec,67373fb7eed183810e118ab7,2024-11-15_13h34.28.234,Tarea de género gramatical,2024.2.2,MacIntel,62.5,,,,,,,,,,,,,,,,,,,,,,,395.6,396.68,l,1,0.405,,[],[],[],[],[],[],[],0.405,1,396.681,397.181,,,,,,23,MAS,CON,150,rato,,l,397.181,397.181,-0.207608696,-0.359782609,0,0,0,,0,175,175,22,1,,,,
,,,,,,7d224d7cf3340daa83413f26,66a626ef09d4e21e1a8894ec,67373fb7eed183810e118ab7,2024-11-15_13h34.28.234,Tarea de género gramatical,2024.2.2,MacIntel,62.5,,,,,,,,,,,,,,,,,,,,,,,397.182,398.152,l,0,0.3,,[],[],[],[],[],[],[],0.3,0,398.159,398.648,,,,,,422,FEM,CON,150,rutina,,a,398.648,398.648,-0.207608696,-0.359782609,0,0,0,,0,176,176,421,1,,,,
,,,,,,7d224d7cf3340daa83413f26,66a626ef09d4e21e1a8894ec,67373fb7eed183810e118ab7,2024-11-15_13h34.28.234,Tarea de género gramatical,2024.2.2,MacIntel,62.5,,,,,,,,,,,,,,,,,,,,,,,398.648,399.848,l,1,0.524,,[],[],[],[],[],[],[],0.524,1,399.849,400.348,,,,,,4,MAS,AGR,150,hijo,el,l,400.348,400.349,-0.207608696,-0.359782609,0,0,0,,0,177,177,3,1,,,,
,,,,,,7d224d7cf3340daa83413f26,66a626ef09d4e21e1a8894ec,67373fb7eed183810e118ab7,2024-11-15_13h34.28.234,Tarea de género gramatical,2024.2.2,MacIntel,62.5,,,,,,,,,,,,,,,,,,,,,,,400.35,401.415,a,1,0.39,,[],[],[],[],[],[],[],0.39,1,401.415,401.914,,,,,,219,FEM,DIS,150,costa,el,a,401.914,401.914,-0.207608696,-0.359782609,0,0,0,,0,178,178,218,1,,,,
,,,,,,7d224d7cf3340daa83413f26,66a626ef09d4e21e1a8894ec,67373fb7eed183810e118ab7,2024-11-15_13h34.28.234,Tarea de género gramatical,2024.2.2,MacIntel,62.5,,,,,,,,,,,,,,,,,,,,,,,401.917,402.947,l,1,0.357,,[],[],[],[],[],[],[],0.357,1,402.947,403.448,,,,,,192,MAS,DIS,150,grupo,la,l,403.448,403.448,-0.207608696,-0.359782609,0,0,0,,0,179,179,191,1,,,,
,,,,,,7d224d7cf3340daa83413f26,66a626ef09d4e21e1a8894ec,67373fb7eed183810e118ab7,2024-11-15_13h34.28.234,Tarea de género gramatical,2024.2.2,MacIntel,62.5,,,,,,,,,,,,,,,,,,,,,,,403.448,404.631,l,1,0.501,,[],[],[],[],[],[],[],0.501,1,404.631,405.131,,,,,,449,MAS,CON,150,payaso,,l,405.131,405.131,-0.207608696,-0.359782609,0,0,0,,0,180,180,448,1,,,,
,,,,,,7d224d7cf3340daa83413f26,66a626ef09d4e21e1a8894ec,67373fb7eed183810e118ab7,2024-11-15_13h34.28.234,Tarea de género gramatical,2024.2.2,MacIntel,62.5,,,,,,,,,,,,,,,,,,,,,,,405.132,406.181,l,1,0.373,,[],[],[],[],[],[],[],0.373,1,406.181,406.681,,,,,,88,MAS,AGR,150,pavo,el,l,406.681,406.681,-0.207608696,-0.359782609,0,0,0,,0,181,181,87,1,,,,
,,,,,,7d224d7cf3340daa83413f26,66a626ef09d4e21e1a8894ec,67373fb7eed183810e118ab7,2024-11-15_13h34.28.234,Tarea de género gramatical,2024.2.2,MacIntel,62.5,,,,,,,,,,,,,,,,,,,,,,,406.682,407.882,a,1,0.528,,[],[],[],[],[],[],[],0.528,1,407.882,408.381,,,,,,117,FEM,DIS,150,raya,el,a,408.382,408.382,-0.207608696,-0.359782609,0,0,0,,0,182,182,116,1,,,,
,,,,,,7d224d7cf3340daa83413f26,66a626ef09d4e21e1a8894ec,67373fb7eed183810e118ab7,2024-11-15_13h34.28.234,Tarea de género gramatical,2024.2.2,MacIntel,62.5,,,,,,,,,,,,,,,,,,,,,,,408.383,409.448,l,1,0.387,,[],[],[],[],[],[],[],0.387,1,409.448,409.948,,,,,,150,MAS,DIS,150,mozo,la,l,409.948,409.948,-0.207608696,-0.359782609,0,0,0,,0,183,183,149,1,,,,
,,,,,,7d224d7cf3340daa83413f26,66a626ef09d4e21e1a8894ec,67373fb7eed183810e118ab7,2024-11-15_13h34.28.234,Tarea de género gramatical,2024.2.2,MacIntel,62.5,,,,,,,,,,,,,,,,,,,,,,,409.948,410.949,l,1,0.329,,[],[],[],[],[],[],[],0.329,1,410.949,411.448,,,,,,216,MAS,DIS,150,éxito,la,l,411.451,411.451,-0.207608696,-0.359782609,0,0,0,,0,184,184,215,1,,,,
,,,,,,7d224d7cf3340daa83413f26,66a626ef09d4e21e1a8894ec,67373fb7eed183810e118ab7,2024-11-15_13h34.28.234,Tarea de género gramatical,2024.2.2,MacIntel,62.5,,,,,,,,,,,,,,,,,,,,,,,411.453,412.514,a,1,0.39,,[],[],[],[],[],[],[],0.39,1,412.514,413.014,,,,,,253,FEM,AGR,150,aldea,la,a,413.014,413.015,-0.207608696,-0.359782609,0,0,0,,0,185,185,252,1,,,,
,,,,,,7d224d7cf3340daa83413f26,66a626ef09d4e21e1a8894ec,67373fb7eed183810e118ab7,2024-11-15_13h34.28.234,Tarea de género gramatical,2024.2.2,MacIntel,62.5,,,,,,,,,,,,,,,,,,,,,,,413.016,414.014,l,1,0.323,,[],[],[],[],[],[],[],0.323,1,414.014,414.514,,,,,,335,MAS,CON,150,montón,,l,414.516,414.517,-0.207608696,-0.359782609,0,0,0,,0,186,186,334,1,,,,
,,,,,,7d224d7cf3340daa83413f26,66a626ef09d4e21e1a8894ec,67373fb7eed183810e118ab7,2024-11-15_13h34.28.234,Tarea de género gramatical,2024.2.2,MacIntel,62.5,,,,,,,,,,,,,,,,,,,,,,,414.518,415.739,l,1,0.545,,[],[],[],[],[],[],[],0.545,1,415.74,416.231,,,,,,35,MAS,CON,150,taxi,,l,416.232,416.233,-0.207608696,-0.359782609,0,0,0,,0,187,187,34,1,,,,
,,,,,,7d224d7cf3340daa83413f26,66a626ef09d4e21e1a8894ec,67373fb7eed183810e118ab7,2024-11-15_13h34.28.234,Tarea de género gramatical,2024.2.2,MacIntel,62.5,,,,,,,,,,,,,,,,,,,,,,,416.237,417.464,a,1,0.55,,[],[],[],[],[],[],[],0.55,1,417.464,417.964,,,,,,404,FEM,CON,150,gloria,,a,417.964,417.964,-0.207608696,-0.359782609,0,0,0,,0,188,188,403,1,,,,
,,,,,,7d224d7cf3340daa83413f26,66a626ef09d4e21e1a8894ec,67373fb7eed183810e118ab7,2024-11-15_13h34.28.234,Tarea de género gramatical,2024.2.2,MacIntel,62.5,,,,,,,,,,,,,,,,,,,,,,,417.966,419.047,a,1,0.407,,[],[],[],[],[],[],[],0.407,1,419.048,419.548,,,,,,43,FEM,AGR,150,nena,la,a,419.548,419.548,-0.207608696,-0.359782609,0,0,0,,0,189,189,42,1,,,,
,,,,,,7d224d7cf3340daa83413f26,66a626ef09d4e21e1a8894ec,67373fb7eed183810e118ab7,2024-11-15_13h34.28.234,Tarea de género gramatical,2024.2.2,MacIntel,62.5,,,,,,,,,,,,,,,,,,,,,,,419.552,420.714,a,1,0.49,,[],[],[],[],[],[],[],0.49,1,420.714,421.214,,,,,,381,FEM,DIS,150,bebida,el,a,421.214,421.214,-0.207608696,-0.359782609,0,0,0,,0,190,190,380,1,,,,
,,,,,,7d224d7cf3340daa83413f26,66a626ef09d4e21e1a8894ec,67373fb7eed183810e118ab7,2024-11-15_13h34.28.234,Tarea de género gramatical,2024.2.2,MacIntel,62.5,,,,,,,,,,,,,,,,,,,,,,,421.215,422.317,l,1,0.419,,[],[],[],[],[],[],[],0.419,1,422.318,422.814,,,,,,138,MAS,DIS,150,luto,la,l,422.818,422.82,-0.207608696,-0.359782609,0,0,0,,0,191,191,137,1,,,,
,,,,,,7d224d7cf3340daa83413f26,66a626ef09d4e21e1a8894ec,67373fb7eed183810e118ab7,2024-11-15_13h34.28.234,Tarea de género gramatical,2024.2.2,MacIntel,62.5,,,,,,,,,,,,,,,,,,,,,,,422.821,423.915,l,0,0.423,,[],[],[],[],[],[],[],0.423,0,423.915,424.414,,,,,,195,FEM,DIS,150,pared,el,a,424.415,424.415,-0.207608696,-0.359782609,0,0,0,,0,192,192,194,1,,,,
,,,,,,7d224d7cf3340daa83413f26,66a626ef09d4e21e1a8894ec,67373fb7eed183810e118ab7,2024-11-15_13h34.28.234,Tarea de género gramatical,2024.2.2,MacIntel,62.5,,,,,,,,,,,,,,,,,,,,,,,424.416,425.598,l,1,0.507,,[],[],[],[],[],[],[],0.507,1,425.598,426.097,,,,,,203,MAS,CON,150,novio,,l,426.098,426.098,-0.207608696,-0.359782609,0,0,0,,0,193,193,202,1,,,,
,,,,,,7d224d7cf3340daa83413f26,66a626ef09d4e21e1a8894ec,67373fb7eed183810e118ab7,2024-11-15_13h34.28.234,Tarea de género gramatical,2024.2.2,MacIntel,62.5,,,,,,,,,,,,,,,,,,,,,,,426.098,427.131,l,1,0.357,,[],[],[],[],[],[],[],0.357,1,427.131,427.631,,,,,,354,MAS,DIS,150,camión,la,l,427.631,427.631,-0.207608696,-0.359782609,0,0,0,,0,194,194,353,1,,,,
,,,,,,7d224d7cf3340daa83413f26,66a626ef09d4e21e1a8894ec,67373fb7eed183810e118ab7,2024-11-15_13h34.28.234,Tarea de género gramatical,2024.2.2,MacIntel,62.5,,,,,,,,,,,,,,,,,,,,,,,427.632,428.736,a,1,0.427,,[],[],[],[],[],[],[],0.427,1,428.736,429.231,,,,,,201,FEM,DIS,150,leche,el,a,429.232,429.233,-0.207608696,-0.359782609,0,0,0,,0,195,195,200,1,,,,
,,,,,,7d224d7cf3340daa83413f26,66a626ef09d4e21e1a8894ec,67373fb7eed183810e118ab7,2024-11-15_13h34.28.234,Tarea de género gramatical,2024.2.2,MacIntel,62.5,,,,,,,,,,,,,,,,,,,,,,,429.234,430.333,a,1,0.426,,[],[],[],[],[],[],[],0.426,1,430.333,430.831,,,,,,301,FEM,AGR,150,verdad,la,a,430.831,430.831,-0.207608696,-0.359782609,0,0,0,,0,196,196,300,1,,,,
,,,,,,7d224d7cf3340daa83413f26,66a626ef09d4e21e1a8894ec,67373fb7eed183810e118ab7,2024-11-15_13h34.28.234,Tarea de género gramatical,2024.2.2,MacIntel,62.5,,,,,,,,,,,,,,,,,,,,,,,430.832,431.819,a,1,0.302,,[],[],[],[],[],[],[],0.302,1,431.819,432.314,,,,,,91,FEM,AGR,150,hoja,la,a,432.314,432.314,-0.207608696,-0.359782609,0,0,0,,0,197,197,90,1,,,,
,,,,,,7d224d7cf3340daa83413f26,66a626ef09d4e21e1a8894ec,67373fb7eed183810e118ab7,2024-11-15_13h34.28.234,Tarea de género gramatical,2024.2.2,MacIntel,62.5,,,,,,,,,,,,,,,,,,,,,,,432.315,433.414,l,1,0.418,,[],[],[],[],[],[],[],0.418,1,433.415,433.914,,,,,,76,MAS,AGR,150,lujo,el,l,433.914,433.915,-0.207608696,-0.359782609,0,0,0,,0,198,198,75,1,,,,
,,,,,,7d224d7cf3340daa83413f26,66a626ef09d4e21e1a8894ec,67373fb7eed183810e118ab7,2024-11-15_13h34.28.234,Tarea de género gramatical,2024.2.2,MacIntel,62.5,,,,,,,,,,,,,,,,,,,,,,,433.915,434.914,l,1,0.318,,[],[],[],[],[],[],[],0.318,1,434.914,435.414,,,,,,156,MAS,DIS,150,amigo,la,l,435.414,435.414,-0.207608696,-0.359782609,0,0,0,,0,199,199,155,1,,,,
,,,,,,7d224d7cf3340daa83413f26,66a626ef09d4e21e1a8894ec,67373fb7eed183810e118ab7,2024-11-15_13h34.28.234,Tarea de género gramatical,2024.2.2,MacIntel,62.5,,,,,,,,,,,,,,,,,,,,,,,435.414,436.447,l,1,0.357,,[],[],[],[],[],[],[],0.357,1,436.447,436.947,,,,,,179,MAS,CON,150,viaje,,l,436.948,436.949,-0.207608696,-0.359782609,0,0,0,,0,200,200,178,1,,,,
,,,,,,7d224d7cf3340daa83413f26,66a626ef09d4e21e1a8894ec,67373fb7eed183810e118ab7,2024-11-15_13h34.28.234,Tarea de género gramatical,2024.2.2,MacIntel,62.5,,,,,,,,,,,,,,,,,,,,,,,436.95,437.964,a,1,0.338,,[],[],[],[],[],[],[],0.338,1,437.964,438.464,,,,,,37,FEM,AGR,150,sala,la,a,438.464,438.464,-0.207608696,-0.359782609,0,0,0,,0,201,201,36,1,,,,
,,,,,,7d224d7cf3340daa83413f26,66a626ef09d4e21e1a8894ec,67373fb7eed183810e118ab7,2024-11-15_13h34.28.234,Tarea de género gramatical,2024.2.2,MacIntel,62.5,,,,,,,,,,,,,,,,,,,,,,,438.465,439.447,a,1,0.306,,[],[],[],[],[],[],[],0.306,1,439.447,439.947,,,,,,217,FEM,AGR,150,tarea,la,a,439.948,439.948,-0.207608696,-0.359782609,0,0,0,,0,202,202,216,1,,,,
,,,,,,7d224d7cf3340daa83413f26,66a626ef09d4e21e1a8894ec,67373fb7eed183810e118ab7,2024-11-15_13h34.28.234,Tarea de género gramatical,2024.2.2,MacIntel,62.5,,,,,,,,,,,,,,,,,,,,,,,439.949,440.931,a,1,0.308,,[],[],[],[],[],[],[],0.308,1,440.931,441.431,,,,,,75,FEM,DIS,150,caza,el,a,441.431,441.431,-0.207608696,-0.359782609,0,0,0,,0,203,203,74,1,,,,
,,,,,,7d224d7cf3340daa83413f26,66a626ef09d4e21e1a8894ec,67373fb7eed183810e118ab7,2024-11-15_13h34.28.234,Tarea de género gramatical,2024.2.2,MacIntel,62.5,,,,,,,,,,,,,,,,,,,,,,,441.432,442.632,a,1,0.533,,[],[],[],[],[],[],[],0.533,1,442.632,443.131,,,,,,86,FEM,CON,150,cruz,,a,443.132,443.133,-0.207608696,-0.359782609,0,0,0,,0,204,204,85,1,,,,
,,,,,,7d224d7cf3340daa83413f26,66a626ef09d4e21e1a8894ec,67373fb7eed183810e118ab7,2024-11-15_13h34.28.234,Tarea de género gramatical,2024.2.2,MacIntel,62.5,,,,,,,,,,,,,,,,,,,,,,,443.133,444.147,a,1,0.339,,[],[],[],[],[],[],[],0.339,1,444.147,444.647,,,,,,189,FEM,DIS,150,pista,el,a,444.647,444.648,-0.207608696,-0.359782609,0,0,0,,0,205,205,188,1,,,,
,,,,,,7d224d7cf3340daa83413f26,66a626ef09d4e21e1a8894ec,67373fb7eed183810e118ab7,2024-11-15_13h34.28.234,Tarea de género gramatical,2024.2.2,MacIntel,62.5,,,,,,,,,,,,,,,,,,,,,,,444.649,445.699,a,1,0.367,,[],[],[],[],[],[],[],0.367,1,445.699,446.198,,,,,,15,FEM,DIS,150,cama,el,a,446.198,446.198,-0.207608696,-0.359782609,0,0,0,,0,206,206,14,1,,,,
,,,,,,7d224d7cf3340daa83413f26,66a626ef09d4e21e1a8894ec,67373fb7eed183810e118ab7,2024-11-15_13h34.28.234,Tarea de género gramatical,2024.2.2,MacIntel,62.5,,,,,,,,,,,,,,,,,,,,,,,446.198,447.248,l,1,0.373,,[],[],[],[],[],[],[],0.373,1,447.248,447.747,,,,,,215,MAS,CON,150,hueso,,l,447.747,447.747,-0.207608696,-0.359782609,0,0,0,,0,207,207,214,1,,,,
,,,,,,7d224d7cf3340daa83413f26,66a626ef09d4e21e1a8894ec,67373fb7eed183810e118ab7,2024-11-15_13h34.28.234,Tarea de género gramatical,2024.2.2,MacIntel,62.5,,,,,,,,,,,,,,,,,,,,,,,447.748,448.947,a,1,0.539,,[],[],[],[],[],[],[],0.539,1,448.947,449.448,,,,,,254,FEM,CON,150,caída,,a,449.448,449.448,-0.207608696,-0.359782609,0,0,0,,0,208,208,253,1,,,,
,,,,,,7d224d7cf3340daa83413f26,66a626ef09d4e21e1a8894ec,67373fb7eed183810e118ab7,2024-11-15_13h34.28.234,Tarea de género gramatical,2024.2.2,MacIntel,62.5,,,,,,,,,,,,,,,,,,,,,,,449.449,450.681,a,1,0.557,,[],[],[],[],[],[],[],0.557,1,450.681,451.181,,,,,,338,FEM,CON,150,abuela,,a,451.182,451.183,-0.207608696,-0.359782609,0,0,0,,0,209,209,337,1,,,,
,,,,,,7d224d7cf3340daa83413f26,66a626ef09d4e21e1a8894ec,67373fb7eed183810e118ab7,2024-11-15_13h34.28.234,Tarea de género gramatical,2024.2.2,MacIntel,62.5,,,,,,,,,,,,,,,,,,,,,,,451.183,452.214,a,1,0.358,,[],[],[],[],[],[],[],0.358,1,452.214,452.714,,,,,,147,FEM,DIS,150,grúa,el,a,452.714,452.714,-0.207608696,-0.359782609,0,0,0,,0,210,210,146,1,,,,
,,,,,,7d224d7cf3340daa83413f26,66a626ef09d4e21e1a8894ec,67373fb7eed183810e118ab7,2024-11-15_13h34.28.234,Tarea de género gramatical,2024.2.2,MacIntel,62.5,,,,,,,,,,,,,,,,,,,,,,,452.716,453.781,a,1,0.39,,[],[],[],[],[],[],[],0.39,1,453.781,454.281,,,,,,375,FEM,DIS,150,cadena,el,a,454.281,454.281,-0.207608696,-0.359782609,0,0,0,,0,211,211,374,1,,,,
,,,,,,7d224d7cf3340daa83413f26,66a626ef09d4e21e1a8894ec,67373fb7eed183810e118ab7,2024-11-15_13h34.28.234,Tarea de género gramatical,2024.2.2,MacIntel,62.5,,,,,,,,,,,,,,,,,,,,,,,454.281,455.297,l,1,0.335,,[],[],[],[],[],[],[],0.335,1,455.297,455.797,,,,,,276,MAS,DIS,150,ritmo,la,l,455.798,455.798,-0.207608696,-0.359782609,0,0,0,,0,212,212,275,1,,,,
,,,,,,7d224d7cf3340daa83413f26,66a626ef09d4e21e1a8894ec,67373fb7eed183810e118ab7,2024-11-15_13h34.28.234,Tarea de género gramatical,2024.2.2,MacIntel,62.5,,,,,,,,,,,,,,,,,,,,,,,455.798,456.731,l,1,0.257,,[],[],[],[],[],[],[],0.257,1,456.731,457.231,,,,,,419,MAS,CON,150,cuento,,l,457.232,457.232,-0.207608696,-0.359782609,0,0,0,,0,213,213,418,1,,,,
,,,,,,7d224d7cf3340daa83413f26,66a626ef09d4e21e1a8894ec,67373fb7eed183810e118ab7,2024-11-15_13h34.28.234,Tarea de género gramatical,2024.2.2,MacIntel,62.5,,,,,,,,,,,,,,,,,,,,,,,457.233,458.197,l,1,0.29,,[],[],[],[],[],[],[],0.29,1,458.197,458.697,,,,,,112,MAS,AGR,150,reto,el,l,458.697,458.698,-0.207608696,-0.359782609,0,0,0,,0,214,214,111,1,,,,
,,,,,,7d224d7cf3340daa83413f26,66a626ef09d4e21e1a8894ec,67373fb7eed183810e118ab7,2024-11-15_13h34.28.234,Tarea de género gramatical,2024.2.2,MacIntel,62.5,,,,,,,,,,,,,,,,,,,,,,,458.698,459.714,a,1,0.342,,[],[],[],[],[],[],[],0.342,1,459.714,460.214,,,,,,302,FEM,CON,150,cabeza,,a,460.214,460.214,-0.207608696,-0.359782609,0,0,0,,0,215,215,301,1,,,,
,,,,,,7d224d7cf3340daa83413f26,66a626ef09d4e21e1a8894ec,67373fb7eed183810e118ab7,2024-11-15_13h34.28.234,Tarea de género gramatical,2024.2.2,MacIntel,62.5,,,,,,,,,,,,,,,,,,,,,,,460.215,461.247,l,1,0.374,,[],[],[],[],[],[],[],0.374,1,461.248,461.747,,,,,,263,MAS,CON,150,carro,,l,461.747,461.747,-0.207608696,-0.359782609,0,0,0,,0,216,216,262,1,,,,
,,,,,,7d224d7cf3340daa83413f26,66a626ef09d4e21e1a8894ec,67373fb7eed183810e118ab7,2024-11-15_13h34.28.234,Tarea de género gramatical,2024.2.2,MacIntel,62.5,,,,,,,,,,,,,,,,,,,,,,,461.748,462.751,l,1,0.326,,[],[],[],[],[],[],[],0.326,1,462.751,463.247,,,,,,83,MAS,CON,150,nene,,l,463.248,463.248,-0.207608696,-0.359782609,0,0,0,,0,217,217,82,1,,,,
,,,,,,7d224d7cf3340daa83413f26,66a626ef09d4e21e1a8894ec,67373fb7eed183810e118ab7,2024-11-15_13h34.28.234,Tarea de género gramatical,2024.2.2,MacIntel,62.5,,,,,,,,,,,,,,,,,,,,,,,463.248,464.564,l,1,0.64,,[],[],[],[],[],[],[],0.64,1,464.564,465.064,,,,,,71,MAS,CON,150,pozo,,l,465.065,465.066,-0.207608696,-0.359782609,0,0,0,,0,218,218,70,1,,,,
,,,,,,7d224d7cf3340daa83413f26,66a626ef09d4e21e1a8894ec,67373fb7eed183810e118ab7,2024-11-15_13h34.28.234,Tarea de género gramatical,2024.2.2,MacIntel,62.5,,,,,,,,,,,,,,,,,,,,,,,465.067,466.147,l,1,0.405,,[],[],[],[],[],[],[],0.405,1,466.148,466.647,,,,,,132,MAS,DIS,150,velo,la,l,466.647,466.648,-0.207608696,-0.359782609,0,0,0,,0,219,219,131,1,,,,
,,,,,,7d224d7cf3340daa83413f26,66a626ef09d4e21e1a8894ec,67373fb7eed183810e118ab7,2024-11-15_13h34.28.234,Tarea de género gramatical,2024.2.2,MacIntel,62.5,,,,,,,,,,,,,,,,,,,,,,,466.649,467.733,a,1,0.41,,[],[],[],[],[],[],[],0.41,1,467.733,468.231,,,,,,183,FEM,DIS,150,llave,el,a,468.231,468.231,-0.207608696,-0.359782609,0,0,0,,0,220,220,182,1,,,,
,,,,,,7d224d7cf3340daa83413f26,66a626ef09d4e21e1a8894ec,67373fb7eed183810e118ab7,2024-11-15_13h34.28.234,Tarea de género gramatical,2024.2.2,MacIntel,62.5,,,,,,,,,,,,,,,,,,,,,,,468.233,469.299,a,1,0.393,,[],[],[],[],[],[],[],0.393,1,469.299,469.797,,,,,,331,FEM,AGR,150,cárcel,la,a,469.798,469.798,-0.207608696,-0.359782609,0,0,0,,0,221,221,330,1,,,,
,,,,,,7d224d7cf3340daa83413f26,66a626ef09d4e21e1a8894ec,67373fb7eed183810e118ab7,2024-11-15_13h34.28.234,Tarea de género gramatical,2024.2.2,MacIntel,62.5,,,,,,,,,,,,,,,,,,,,,,,469.799,470.864,l,1,0.391,,[],[],[],[],[],[],[],0.391,1,470.864,471.364,,,,,,47,MAS,CON,150,olor,,l,471.365,471.366,-0.207608696,-0.359782609,0,0,0,,0,222,222,46,1,,,,
,,,,,,7d224d7cf3340daa83413f26,66a626ef09d4e21e1a8894ec,67373fb7eed183810e118ab7,2024-11-15_13h34.28.234,Tarea de género gramatical,2024.2.2,MacIntel,62.5,,,,,,,,,,,,,,,,,,,,,,,471.367,472.368,l,1,0.328,,[],[],[],[],[],[],[],0.328,1,472.368,472.864,,,,,,137,MAS,CON,150,coco,,l,472.864,472.864,-0.207608696,-0.359782609,0,0,0,,0,223,223,136,1,,,,
,,,,,,7d224d7cf3340daa83413f26,66a626ef09d4e21e1a8894ec,67373fb7eed183810e118ab7,2024-11-15_13h34.28.234,Tarea de género gramatical,2024.2.2,MacIntel,62.5,,,,,,,,,,,,,,,,,,,,,,,472.865,474.108,a,1,0.568,,[],[],[],[],[],[],[],0.568,1,474.108,474.598,,,,,,69,FEM,DIS,150,rata,el,a,474.598,474.599,-0.207608696,-0.359782609,0,0,0,,0,224,224,68,1,,,,
,,,,,,7d224d7cf3340daa83413f26,66a626ef09d4e21e1a8894ec,67373fb7eed183810e118ab7,2024-11-15_13h34.28.234,Tarea de género gramatical,2024.2.2,MacIntel,62.5,,,,,,,,,,,,,,,,,,,,,,,474.6,475.534,l,1,0.259,,[],[],[],[],[],[],[],0.259,1,475.535,476.031,,,,,,36,MAS,DIS,150,dedo,la,l,476.031,476.031,-0.207608696,-0.359782609,0,0,0,,0,225,225,35,1,,,,
,,,,,,7d224d7cf3340daa83413f26,66a626ef09d4e21e1a8894ec,67373fb7eed183810e118ab7,2024-11-15_13h34.28.234,Tarea de género gramatical,2024.2.2,MacIntel,62.5,,,,,,,,,,,,,,,,,,,,,,,476.031,477.114,a,1,0.4,,[],[],[],[],[],[],[],0.4,1,477.114,477.614,,,,,,110,FEM,CON,150,rosa,,a,477.614,477.614,-0.207608696,-0.359782609,0,0,0,,0,226,226,109,1,,,,
,,,,,,7d224d7cf3340daa83413f26,66a626ef09d4e21e1a8894ec,67373fb7eed183810e118ab7,2024-11-15_13h34.28.234,Tarea de género gramatical,2024.2.2,MacIntel,62.5,,,,,,,,,,,,,,,,,,,,,,,477.615,478.732,a,1,0.44,,[],[],[],[],[],[],[],0.44,1,478.733,479.231,,,,,,285,FEM,DIS,150,mafia,el,a,479.231,479.232,-0.207608696,-0.359782609,0,0,0,,0,227,227,284,1,,,,
,,,,,,7d224d7cf3340daa83413f26,66a626ef09d4e21e1a8894ec,67373fb7eed183810e118ab7,2024-11-15_13h34.28.234,Tarea de género gramatical,2024.2.2,MacIntel,62.5,,,,,,,,,,,,,,,,,,,,,,,479.233,480.314,a,1,0.401,,[],[],[],[],[],[],[],0.401,1,480.314,480.814,,,,,,104,FEM,CON,150,vela,,a,480.814,480.814,-0.207608696,-0.359782609,0,0,0,,0,228,228,103,1,,,,
,,,,,,7d224d7cf3340daa83413f26,66a626ef09d4e21e1a8894ec,67373fb7eed183810e118ab7,2024-11-15_13h34.28.234,Tarea de género gramatical,2024.2.2,MacIntel,62.5,,,,,,,,,,,,,,,,,,,,,,,480.815,482.014,l,1,0.524,,[],[],[],[],[],[],[],0.524,1,482.014,482.514,,,,,,238,MAS,AGR,150,norte,el,l,482.514,482.514,-0.207608696,-0.359782609,0,0,0,,0,229,229,237,1,,,,
,,,,,,7d224d7cf3340daa83413f26,66a626ef09d4e21e1a8894ec,67373fb7eed183810e118ab7,2024-11-15_13h34.28.234,Tarea de género gramatical,2024.2.2,MacIntel,62.5,,,,,,,,,,,,,,,,,,,,,,,482.515,483.499,l,1,0.326,,[],[],[],[],[],[],[],0.326,1,483.499,483.997,,,,,,376,MAS,AGR,150,efecto,el,l,483.997,483.998,-0.207608696,-0.359782609,0,0,0,,0,230,230,375,1,,,,
,,,,,,7d224d7cf3340daa83413f26,66a626ef09d4e21e1a8894ec,67373fb7eed183810e118ab7,2024-11-15_13h34.28.234,Tarea de género gramatical,2024.2.2,MacIntel,62.5,,,,,,,,,,,,,,,,,,,,,,,483.998,485.047,a,1,0.367,,[],[],[],[],[],[],[],0.367,1,485.047,485.547,,,,,,7,FEM,AGR,150,hora,la,a,485.548,485.549,-0.207608696,-0.359782609,0,0,0,,0,231,231,6,1,,,,
,,,,,,7d224d7cf3340daa83413f26,66a626ef09d4e21e1a8894ec,67373fb7eed183810e118ab7,2024-11-15_13h34.28.234,Tarea de género gramatical,2024.2.2,MacIntel,62.5,,,,,,,,,,,,,,,,,,,,,,,485.55,486.664,l,1,0.435,,[],[],[],[],[],[],[],0.435,1,486.664,487.164,,,,,,275,MAS,CON,150,disco,,l,487.164,487.164,-0.207608696,-0.359782609,0,0,0,,0,232,232,274,1,,,,
,,,,,,7d224d7cf3340daa83413f26,66a626ef09d4e21e1a8894ec,67373fb7eed183810e118ab7,2024-11-15_13h34.28.234,Tarea de género gramatical,2024.2.2,MacIntel,62.5,,,,,,,,,,,,,,,,,,,,,,,487.165,488.264,a,1,0.416,,[],[],[],[],[],[],[],0.416,1,488.264,488.764,,,,,,206,FEM,CON,150,época,,a,488.764,488.764,-0.207608696,-0.359782609,0,0,0,,0,233,233,205,1,,,,
,,,,,,7d224d7cf3340daa83413f26,66a626ef09d4e21e1a8894ec,67373fb7eed183810e118ab7,2024-11-15_13h34.28.234,Tarea de género gramatical,2024.2.2,MacIntel,62.5,,,,,,,,,,,,,,,,,,,,,,,488.765,490.281,l,0,0.851,,[],[],[],[],[],[],[],0.851,0,490.282,490.781,,,,,,267,FEM,DIS,150,barba,el,a,490.781,490.781,-0.207608696,-0.359782609,0,0,0,,0,234,234,266,1,,,,
,,,,,,7d224d7cf3340daa83413f26,66a626ef09d4e21e1a8894ec,67373fb7eed183810e118ab7,2024-11-15_13h34.28.234,Tarea de género gramatical,2024.2.2,MacIntel,62.5,,,,,,,,,,,,,,,,,,,,,,,490.781,492.114,a,1,0.658,,[],[],[],[],[],[],[],0.658,1,492.115,492.614,,,,,,345,FEM,DIS,150,pierna,el,a,492.614,492.614,-0.207608696,-0.359782609,0,0,0,,0,235,235,344,1,,,,
,,,,,,7d224d7cf3340daa83413f26,66a626ef09d4e21e1a8894ec,67373fb7eed183810e118ab7,2024-11-15_13h34.28.234,Tarea de género gramatical,2024.2.2,MacIntel,62.5,,,,,,,,,,,,,,,,,,,,,,,492.615,494.047,l,0,0.757,,[],[],[],[],[],[],[],0.757,0,494.048,494.547,,,,,,32,FEM,CON,150,caja,,a,494.548,494.548,-0.207608696,-0.359782609,0,0,0,,0,236,236,31,1,,,,
,,,,,,7d224d7cf3340daa83413f26,66a626ef09d4e21e1a8894ec,67373fb7eed183810e118ab7,2024-11-15_13h34.28.234,Tarea de género gramatical,2024.2.2,MacIntel,62.5,,,,,,,,,,,,,,,,,,,,,,,494.549,495.747,a,1,0.522,,[],[],[],[],[],[],[],0.522,1,495.748,496.25,,,,,,97,FEM,AGR,150,capa,la,a,496.25,496.25,-0.207608696,-0.359782609,0,0,0,,0,237,237,96,1,,,,
,,,,,,7d224d7cf3340daa83413f26,66a626ef09d4e21e1a8894ec,67373fb7eed183810e118ab7,2024-11-15_13h34.28.234,Tarea de género gramatical,2024.2.2,MacIntel,62.5,,,,,,,,,,,,,,,,,,,,,,,496.251,497.231,a,1,0.306,,[],[],[],[],[],[],[],0.306,1,497.231,497.731,,,,,,379,FEM,AGR,150,granja,la,a,497.731,497.731,-0.207608696,-0.359782609,0,0,0,,0,238,238,378,1,,,,
,,,,,,7d224d7cf3340daa83413f26,66a626ef09d4e21e1a8894ec,67373fb7eed183810e118ab7,2024-11-15_13h34.28.234,Tarea de género gramatical,2024.2.2,MacIntel,62.5,,,,,,,,,,,,,,,,,,,,,,,497.733,498.681,a,1,0.268,,[],[],[],[],[],[],[],0.268,1,498.681,499.181,,,,,,277,FEM,AGR,150,plaza,la,a,499.181,499.181,-0.207608696,-0.359782609,0,0,0,,0,239,239,276,1,,,,
,,,,,,7d224d7cf3340daa83413f26,66a626ef09d4e21e1a8894ec,67373fb7eed183810e118ab7,2024-11-15_13h34.28.234,Tarea de género gramatical,2024.2.2,MacIntel,62.5,,,,,,,,,,,,,,,,,,,,,,,499.182,500.28,l,1,0.421,,[],[],[],[],[],[],[],0.421,1,500.281,500.781,,,,,,348,MAS,DIS,150,anillo,la,l,500.781,500.782,-0.207608696,-0.359782609,0,0,0,,0,240,240,347,1,,,,
,,,,,,7d224d7cf3340daa83413f26,66a626ef09d4e21e1a8894ec,67373fb7eed183810e118ab7,2024-11-15_13h34.28.234,Tarea de género gramatical,2024.2.2,MacIntel,62.5,,,,,,,,,,,,,,,,,,,,,,,500.783,501.831,a,1,0.373,,[],[],[],[],[],[],[],0.373,1,501.831,502.331,,,,,,115,FEM,AGR,150,seda,la,a,502.331,502.331,-0.207608696,-0.359782609,0,0,0,,0,241,241,114,1,,,,
,,,,,,7d224d7cf3340daa83413f26,66a626ef09d4e21e1a8894ec,67373fb7eed183810e118ab7,2024-11-15_13h34.28.234,Tarea de género gramatical,2024.2.2,MacIntel,62.5,,,,,,,,,,,,,,,,,,,,,,,502.331,503.597,l,1,0.592,,[],[],[],[],[],[],[],0.592,1,503.597,504.097,,,,,,148,MAS,AGR,150,surf,el,l,504.097,504.097,-0.207608696,-0.359782609,0,0,0,,0,242,242,147,1,,,,
,,,,,,7d224d7cf3340daa83413f26,66a626ef09d4e21e1a8894ec,67373fb7eed183810e118ab7,2024-11-15_13h34.28.234,Tarea de género gramatical,2024.2.2,MacIntel,62.5,,,,,,,,,,,,,,,,,,,,,,,504.098,505.097,l,1,0.324,,[],[],[],[],[],[],[],0.324,1,505.098,505.597,,,,,,352,MAS,AGR,150,estilo,el,l,505.598,505.598,-0.207608696,-0.359782609,0,0,0,,0,243,243,351,1,,,,
,,,,,,7d224d7cf3340daa83413f26,66a626ef09d4e21e1a8894ec,67373fb7eed183810e118ab7,2024-11-15_13h34.28.234,Tarea de género gramatical,2024.2.2,MacIntel,62.5,,,,,,,,,,,,,,,,,,,,,,,505.598,506.585,l,1,0.309,,[],[],[],[],[],[],[],0.309,1,506.585,507.08,,,,,,125,MAS,CON,150,bate,,l,507.081,507.081,-0.207608696,-0.359782609,0,0,0,,0,244,244,124,1,,,,
,,,,,,7d224d7cf3340daa83413f26,66a626ef09d4e21e1a8894ec,67373fb7eed183810e118ab7,2024-11-15_13h34.28.234,Tarea de género gramatical,2024.2.2,MacIntel,62.5,,,,,,,,,,,,,,,,,,,,,,,507.082,508.106,a,1,0.344,,[],[],[],[],[],[],[],0.344,1,508.106,508.597,,,,,,392,FEM,CON,150,maleta,,a,508.598,508.599,-0.207608696,-0.359782609,0,0,0,,0,245,245,391,1,,,,
,,,,,,7d224d7cf3340daa83413f26,66a626ef09d4e21e1a8894ec,67373fb7eed183810e118ab7,2024-11-15_13h34.28.234,Tarea de género gramatical,2024.2.2,MacIntel,62.5,,,,,,,,,,,,,,,,,,,,,,,508.6,509.897,l,1,0.623,,[],[],[],[],[],[],[],0.623,1,509.897,510.397,,,,,,72,MAS,DIS,150,hoyo,la,l,510.397,510.397,-0.207608696,-0.359782609,0,0,0,,0,246,246,71,1,,,,
,,,,,,7d224d7cf3340daa83413f26,66a626ef09d4e21e1a8894ec,67373fb7eed183810e118ab7,2024-11-15_13h34.28.234,Tarea de género gramatical,2024.2.2,MacIntel,62.5,,,,,,,,,,,,,,,,,,,,,,,510.398,511.749,l,1,0.668,,[],[],[],[],[],[],[],0.668,1,511.749,512.247,,,,,,310,MAS,AGR,150,nombre,el,l,512.247,512.247,-0.207608696,-0.359782609,0,0,0,,0,247,247,309,1,,,,
,,,,,,7d224d7cf3340daa83413f26,66a626ef09d4e21e1a8894ec,67373fb7eed183810e118ab7,2024-11-15_13h34.28.234,Tarea de género gramatical,2024.2.2,MacIntel,62.5,,,,,,,,,,,,,,,,,,,,,,,512.248,513.28,l,1,0.349,,[],[],[],[],[],[],[],0.349,1,513.28,513.781,,,,,,420,MAS,DIS,150,helado,la,l,513.781,513.781,-0.207608696,-0.359782609,0,0,0,,0,248,248,419,1,,,,
,,,,,,7d224d7cf3340daa83413f26,66a626ef09d4e21e1a8894ec,67373fb7eed183810e118ab7,2024-11-15_13h34.28.234,Tarea de género gramatical,2024.2.2,MacIntel,62.5,,,,,,,,,,,,,,,,,,,,,,,513.781,514.767,l,1,0.311,,[],[],[],[],[],[],[],0.311,1,514.767,515.264,,,,,,312,MAS,DIS,150,equipo,la,l,515.265,515.267,-0.207608696,-0.359782609,0,0,0,,0,249,249,311,1,,,,
,,,,,,7d224d7cf3340daa83413f26,66a626ef09d4e21e1a8894ec,67373fb7eed183810e118ab7,2024-11-15_13h34.28.234,Tarea de género gramatical,2024.2.2,MacIntel,62.5,,,,,,,,,,,,,,,,,,,,,,,515.267,516.431,a,1,0.49,,[],[],[],[],[],[],[],0.49,1,516.431,516.931,,,,,,368,FEM,CON,150,gracia,,a,516.931,516.931,-0.207608696,-0.359782609,0,0,0,,0,250,250,367,1,,,,
,,,,,,7d224d7cf3340daa83413f26,66a626ef09d4e21e1a8894ec,67373fb7eed183810e118ab7,2024-11-15_13h34.28.234,Tarea de género gramatical,2024.2.2,MacIntel,62.5,,,,,,,,,,,,,,,,,,,,,,,516.931,517.948,l,0,0.34,,[],[],[],[],[],[],[],0.34,0,517.951,518.447,,,,,,225,FEM,DIS,150,pieza,el,a,518.447,518.447,-0.207608696,-0.359782609,0,0,0,,0,251,251,224,1,,,,
,,,,,,7d224d7cf3340daa83413f26,66a626ef09d4e21e1a8894ec,67373fb7eed183810e118ab7,2024-11-15_13h34.28.234,Tarea de género gramatical,2024.2.2,MacIntel,62.5,,,,,,,,,,,,,,,,,,,,,,,518.448,519.53,a,1,0.398,,[],[],[],[],[],[],[],0.398,1,519.531,520.031,,,,,,176,FEM,CON,150,línea,,a,520.031,520.031,-0.207608696,-0.359782609,0,0,0,,0,252,252,175,1,,,,
,,,,,,7d224d7cf3340daa83413f26,66a626ef09d4e21e1a8894ec,67373fb7eed183810e118ab7,2024-11-15_13h34.28.234,Tarea de género gramatical,2024.2.2,MacIntel,62.5,,,,,,,,,,,,,,,,,,,,,,,520.031,521.064,l,1,0.351,,[],[],[],[],[],[],[],0.351,1,521.064,521.564,,,,,,54,MAS,DIS,150,humo,la,l,521.564,521.564,-0.207608696,-0.359782609,0,0,0,,0,253,253,53,1,,,,
,,,,,,7d224d7cf3340daa83413f26,66a626ef09d4e21e1a8894ec,67373fb7eed183810e118ab7,2024-11-15_13h34.28.234,Tarea de género gramatical,2024.2.2,MacIntel,62.5,,,,,,,,,,,,,,,,,,,,,,,521.564,522.549,l,1,0.31,,[],[],[],[],[],[],[],0.31,1,522.549,523.047,,,,,,298,MAS,AGR,150,botón,el,l,523.048,523.049,-0.207608696,-0.359782609,0,0,0,,0,254,254,297,1,,,,
,,,,,,7d224d7cf3340daa83413f26,66a626ef09d4e21e1a8894ec,67373fb7eed183810e118ab7,2024-11-15_13h34.28.234,Tarea de género gramatical,2024.2.2,MacIntel,62.5,,,,,,,,,,,,,,,,,,,,,,,523.05,524.049,a,1,0.328,,[],[],[],[],[],[],[],0.328,1,524.049,524.547,,,,,,19,FEM,AGR,150,niña,la,a,524.547,524.547,-0.207608696,-0.359782609,0,0,0,,0,255,255,18,1,,,,
,,,,,,7d224d7cf3340daa83413f26,66a626ef09d4e21e1a8894ec,67373fb7eed183810e118ab7,2024-11-15_13h34.28.234,Tarea de género gramatical,2024.2.2,MacIntel,62.5,,,,,,,,,,,,,,,,,,,,,,,524.548,525.664,l,1,0.44,,[],[],[],[],[],[],[],0.44,1,525.664,526.164,,,,,,418,MAS,AGR,150,pájaro,el,l,526.164,526.165,-0.207608696,-0.359782609,0,0,0,,0,256,256,417,1,,,,
,,,,,,7d224d7cf3340daa83413f26,66a626ef09d4e21e1a8894ec,67373fb7eed183810e118ab7,2024-11-15_13h34.28.234,Tarea de género gramatical,2024.2.2,MacIntel,62.5,,,,,,,,,,,,,,,,,,,,,,,526.166,527.53,a,1,0.692,,[],[],[],[],[],[],[],0.692,1,527.531,528.03,,,,,,212,FEM,CON,150,cinta,,a,528.031,528.031,-0.207608696,-0.359782609,0,0,0,,0,257,257,211,1,,,,
,,,,,,7d224d7cf3340daa83413f26,66a626ef09d4e21e1a8894ec,67373fb7eed183810e118ab7,2024-11-15_13h34.28.234,Tarea de género gramatical,2024.2.2,MacIntel,62.5,,,,,,,,,,,,,,,,,,,,,,,528.031,529.168,l,1,0.458,,[],[],[],[],[],[],[],0.458,1,529.168,529.664,,,,,,221,MAS,CON,150,brazo,,l,529.665,529.666,-0.207608696,-0.359782609,0,0,0,,0,258,258,220,1,,,,
,,,,,,7d224d7cf3340daa83413f26,66a626ef09d4e21e1a8894ec,67373fb7eed183810e118ab7,2024-11-15_13h34.28.234,Tarea de género gramatical,2024.2.2,MacIntel,62.5,,,,,,,,,,,,,,,,,,,,,,,529.667,530.747,a,1,0.406,,[],[],[],[],[],[],[],0.406,1,530.747,531.247,,,,,,260,FEM,CON,150,barra,,a,531.247,531.247,-0.207608696,-0.359782609,0,0,0,,0,259,259,259,1,,,,
,,,,,,7d224d7cf3340daa83413f26,66a626ef09d4e21e1a8894ec,67373fb7eed183810e118ab7,2024-11-15_13h34.28.234,Tarea de género gramatical,2024.2.2,MacIntel,62.5,,,,,,,,,,,,,,,,,,,,,,,531.248,532.23,a,1,0.309,,[],[],[],[],[],[],[],0.309,1,532.231,532.73,,,,,,356,FEM,CON,150,piedra,,a,532.73,532.731,-0.207608696,-0.359782609,0,0,0,,0,260,260,355,1,,,,
