counterbalancing_condition,consent_prescreening.block_1/declare_consent,consent_prescreening.block_1/age_years,consent_prescreening.block_1/gender,consent_prescreening.block_1/language_disorder,consent_prescreening.block_1/first_language,PROLIFIC_PID,STUDY_ID,SESSION_ID,date,expName,psychopyVersion,OS,frameRate,check_prescreening_answers.started,check_prescreening_answers.stopped,Instructions.started,Instructions.stopped,instr_done_keyboard.keys,instr_done_keyboard.rt,instr_done_keyboard.duration,instr_done_touch.x,instr_done_touch.y,instr_done_touch.leftButton,instr_done_touch.midButton,instr_done_touch.rightButton,instruction_pages.thisRepN,instruction_pages.thisTrialN,instruction_pages.thisN,instruction_pages.thisIndex,instruction_pages.ran,pageN,phase,instruct_text,has_image,instruct_image,presentTrial.started,presentTrial.stopped,response.keys,response.corr,touch_resp.x,touch_resp.y,touch_resp.leftButton,touch_resp.midButton,touch_resp.rightButton,touch_resp.time,touch_resp.clicked_name,rt,corr,feedback.started,feedback.stopped,practice_trials.thisRepN,practice_trials.thisTrialN,practice_trials.thisN,practice_trials.thisIndex,practice_trials.ran,TrialID,StimulusType,Condition,PrimeDuration,Prime,Flanker,corrAns,response.rt,response.duration,Break.started,Break.stopped,break_done_touch.x,break_done_touch.y,break_done_touch.leftButton,break_done_touch.midButton,break_done_touch.rightButton,break_done_keyboard.keys,experiment_trials.thisRepN,experiment_trials.thisTrialN,experiment_trials.thisN,experiment_trials.thisIndex,experiment_trials.ran,break_done_keyboard.rt,break_done_keyboard.duration,End.started,End.stopped
0,"[""over_18"",""consent_given"",""read_info"",""comfortable""]",25,M,"[""none""]","[""spanish""]",7fdb880478424506208ad1ed,66a626ef09d4e21e1a8894ec,673497ce65d2da4cc9e31912,2024-11-13_13h17.56.814,Tarea de género gramatical,2024.2.2,Win32,59.52380952,,,,,,,,,,,,,,,,,,,,,,,,,,,,,,,,,,,,,,,,,,,,,,,,,,,,,,,,,,,,,,,,,,,,
,,,,,,7fdb880478424506208ad1ed,66a626ef09d4e21e1a8894ec,673497ce65d2da4cc9e31912,2024-11-13_13h17.56.814,Tarea de género gramatical,2024.2.2,Win32,59.52380952,23.0561,23.0562,,,,,,,,,,,,,,,,,,,,,,,,,,,,,,,,,,,,,,,,,,,,,,,,,,,,,,,,,,,,,,,,,,
,,,,,,7fdb880478424506208ad1ed,66a626ef09d4e21e1a8894ec,673497ce65d2da4cc9e31912,2024-11-13_13h17.56.814,Tarea de género gramatical,2024.2.2,Win32,59.52380952,,,23.0703,35.8737,space,12.7727,,0.234166654,0.084166654,0,0,0,0,0,0,0,1,1,instructions,"INSTRUCCIONES
Va a realizar una prueba de selección gramatical. Desde el comienzo de la prueba mire siempre al centro de la pantalla. Al cabo de un momento, aparecerán palabras. La tarea consiste en determinar si la palabra del centro (siempre será un sustantivo), pertenece al género masculino o femenino.

Pulse la tecla ESPACIO o toque el botón de abajo para continuar.",0,keyboardresponseFM.png,,,,,,,,,,,,,,,,,,,,,,,,,,,,,,,,,,,,,,,,,,,,,,
,,,,,,7fdb880478424506208ad1ed,66a626ef09d4e21e1a8894ec,673497ce65d2da4cc9e31912,2024-11-13_13h17.56.814,Tarea de género gramatical,2024.2.2,Win32,59.52380952,,,35.8752,40.7997,space,4.8771,,0.234166654,0.084166654,0,0,0,0,1,1,1,1,2,instructions,"Si su dispositivo tiene teclado, pulse la tecla ""A"" para las palabras en femenino (por ejemplo: ""mano"") y la tecla ""L"" para las palabras en masculino(por ejemplo: ""arroz"").
Pulse la tecla ESPACIO o toque el botón de abajo para continuar.",1,keyboardresponseFM.png,,,,,,,,,,,,,,,,,,,,,,,,,,,,,,,,,,,,,,,,,,,,,,
,,,,,,7fdb880478424506208ad1ed,66a626ef09d4e21e1a8894ec,673497ce65d2da4cc9e31912,2024-11-13_13h17.56.814,Tarea de género gramatical,2024.2.2,Win32,59.52380952,,,40.8013,46.6438,space,5.8169,,0.234166654,0.084166654,0,0,0,0,2,2,2,1,3,instructions,"Si utiliza un dispositivo sólo táctil, colóquelo en horizontal y utilice los botones de la pantalla. No utilice el ratón.
Pulse la tecla ESPACIO o toque el botón de abajo para continuar.",2,touchresponseFM.png,,,,,,,,,,,,,,,,,,,,,,,,,,,,,,,,,,,,,,,,,,,,,,
,,,,,,7fdb880478424506208ad1ed,66a626ef09d4e21e1a8894ec,673497ce65d2da4cc9e31912,2024-11-13_13h17.56.814,Tarea de género gramatical,2024.2.2,Win32,59.52380952,,,46.6455,53.5126,space,6.8521,,0.234166654,0.084166654,0,0,0,0,3,3,3,1,4,instructions,"Es muy importante que responda con la mayor rapidez y precisión posibles, ya que cada cadena de letras sólo estará en pantalla durante un instante. Si no responde en ese tiempo, aparecerá el mensaje ""Muy lento"" y el experimento pasará a la siguiente palabra. Los primeros 15 intentos serán de práctica y habrá dos descansos durante la prueba.
Pulse la tecla ESPACIO o toque el botón de abajo para iniciar la parte de práctica.",0,keyboardresponseFM.png,,,,,,,,,,,,,,,,,,,,,,,,,,,,,,,,,,,,,,,,,,,,,,
,,,,,,7fdb880478424506208ad1ed,66a626ef09d4e21e1a8894ec,673497ce65d2da4cc9e31912,2024-11-13_13h17.56.814,Tarea de género gramatical,2024.2.2,Win32,59.52380952,,,,,,,,,,,,,,,,,,,,,,,53.5223,56.1718,,0,[],[],[],[],[],[],[],,-1,56.172,56.6719,0,0,0,11,1,2012,MAS,DIS,150,clima,la,l,,,,,,,,,,,,,,,,,,,
,,,,,,7fdb880478424506208ad1ed,66a626ef09d4e21e1a8894ec,673497ce65d2da4cc9e31912,2024-11-13_13h17.56.814,Tarea de género gramatical,2024.2.2,Win32,59.52380952,,,,,,,,,,,,,,,,,,,,,,,56.6731,57.9721,a,1,[],[],[],[],[],[],[],0.6176,1,57.9777,58.4723,0,1,1,1,1,2002,FEM,CON,150,pala,,a,0.6176,,,,,,,,,,,,,,,,,,
,,,,,,7fdb880478424506208ad1ed,66a626ef09d4e21e1a8894ec,673497ce65d2da4cc9e31912,2024-11-13_13h17.56.814,Tarea de género gramatical,2024.2.2,Win32,59.52380952,,,,,,,,,,,,,,,,,,,,,,,58.4735,59.8893,a,1,[],[],[],[],[],[],[],0.7381,1,59.8895,60.3896,0,2,2,6,1,2007,FEM,AGR,150,navaja,la,a,0.7381,,,,,,,,,,,,,,,,,,
,,,,,,7fdb880478424506208ad1ed,66a626ef09d4e21e1a8894ec,673497ce65d2da4cc9e31912,2024-11-13_13h17.56.814,Tarea de género gramatical,2024.2.2,Win32,59.52380952,,,,,,,,,,,,,,,,,,,,,,,60.3903,61.4898,l,1,[],[],[],[],[],[],[],0.4352,1,61.49,61.9901,0,3,3,10,1,2011,MAS,CON,150,canal,,l,0.4352,,,,,,,,,,,,,,,,,,
,,,,,,7fdb880478424506208ad1ed,66a626ef09d4e21e1a8894ec,673497ce65d2da4cc9e31912,2024-11-13_13h17.56.814,Tarea de género gramatical,2024.2.2,Win32,59.52380952,,,,,,,,,,,,,,,,,,,,,,,61.9908,63.1406,a,1,[],[],[],[],[],[],[],0.471,1,63.1407,63.6405,0,4,4,4,1,2005,FEM,CON,150,placa,,a,0.471,,,,,,,,,,,,,,,,,,
,,,,,,7fdb880478424506208ad1ed,66a626ef09d4e21e1a8894ec,673497ce65d2da4cc9e31912,2024-11-13_13h17.56.814,Tarea de género gramatical,2024.2.2,Win32,59.52380952,,,,,,,,,,,,,,,,,,,,,,,63.6419,64.7911,a,1,[],[],[],[],[],[],[],0.4838,1,64.7913,65.2913,0,5,5,5,1,2006,FEM,DIS,150,serie,el,a,0.4838,,,,,,,,,,,,,,,,,,
,,,,,,7fdb880478424506208ad1ed,66a626ef09d4e21e1a8894ec,673497ce65d2da4cc9e31912,2024-11-13_13h17.56.814,Tarea de género gramatical,2024.2.2,Win32,59.52380952,,,,,,,,,,,,,,,,,,,,,,,65.2925,66.6584,l,1,[],[],[],[],[],[],[],0.69,1,66.6585,67.1588,0,6,6,12,1,2013,MAS,AGR,150,acero,el,l,0.69,,,,,,,,,,,,,,,,,,
,,,,,,7fdb880478424506208ad1ed,66a626ef09d4e21e1a8894ec,673497ce65d2da4cc9e31912,2024-11-13_13h17.56.814,Tarea de género gramatical,2024.2.2,Win32,59.52380952,,,,,,,,,,,,,,,,,,,,,,,67.1598,68.609,l,0,[],[],[],[],[],[],[],0.7677,0,68.6097,69.1091,0,7,7,7,1,2008,FEM,CON,150,siesta,,a,0.7677,,,,,,,,,,,,,,,,,,
,,,,,,7fdb880478424506208ad1ed,66a626ef09d4e21e1a8894ec,673497ce65d2da4cc9e31912,2024-11-13_13h17.56.814,Tarea de género gramatical,2024.2.2,Win32,59.52380952,,,,,,,,,,,,,,,,,,,,,,,69.1101,70.6263,l,1,[],[],[],[],[],[],[],0.8342,1,70.627,71.1267,0,8,8,13,1,2014,MAS,CON,150,siglo,,l,0.8342,,,,,,,,,,,,,,,,,,
,,,,,,7fdb880478424506208ad1ed,66a626ef09d4e21e1a8894ec,673497ce65d2da4cc9e31912,2024-11-13_13h17.56.814,Tarea de género gramatical,2024.2.2,Win32,59.52380952,,,,,,,,,,,,,,,,,,,,,,,71.1276,72.5439,a,1,[],[],[],[],[],[],[],0.7388,1,72.5439,73.0439,0,9,9,0,1,2001,FEM,AGR,150,nuca,la,a,0.7388,,,,,,,,,,,,,,,,,,
,,,,,,7fdb880478424506208ad1ed,66a626ef09d4e21e1a8894ec,673497ce65d2da4cc9e31912,2024-11-13_13h17.56.814,Tarea de género gramatical,2024.2.2,Win32,59.52380952,,,,,,,,,,,,,,,,,,,,,,,73.0447,74.1442,a,0,[],[],[],[],[],[],[],0.4403,0,74.1447,74.6445,0,10,10,8,1,2009,MAS,DIS,150,puerto,la,l,0.4403,,,,,,,,,,,,,,,,,,
,,,,,,7fdb880478424506208ad1ed,66a626ef09d4e21e1a8894ec,673497ce65d2da4cc9e31912,2024-11-13_13h17.56.814,Tarea de género gramatical,2024.2.2,Win32,59.52380952,,,,,,,,,,,,,,,,,,,,,,,74.6453,76.5118,a,1,[],[],[],[],[],[],[],1.1845,1,76.5124,77.0119,0,11,11,3,1,2004,FEM,AGR,150,venta,la,a,1.1845,,,,,,,,,,,,,,,,,,
,,,,,,7fdb880478424506208ad1ed,66a626ef09d4e21e1a8894ec,673497ce65d2da4cc9e31912,2024-11-13_13h17.56.814,Tarea de género gramatical,2024.2.2,Win32,59.52380952,,,,,,,,,,,,,,,,,,,,,,,77.0129,78.2455,l,1,[],[],[],[],[],[],[],0.5699,1,78.2456,78.7459,0,12,12,9,1,2010,MAS,AGR,150,vecino,el,l,0.5699,,,,,,,,,,,,,,,,,,
,,,,,,7fdb880478424506208ad1ed,66a626ef09d4e21e1a8894ec,673497ce65d2da4cc9e31912,2024-11-13_13h17.56.814,Tarea de género gramatical,2024.2.2,Win32,59.52380952,,,,,,,,,,,,,,,,,,,,,,,78.7468,80.4631,a,1,[],[],[],[],[],[],[],1.0359,1,80.4632,80.9632,0,13,13,2,1,2003,FEM,DIS,150,daga,el,a,1.0359,,,,,,,,,,,,,,,,,,
,,,,,,7fdb880478424506208ad1ed,66a626ef09d4e21e1a8894ec,673497ce65d2da4cc9e31912,2024-11-13_13h17.56.814,Tarea de género gramatical,2024.2.2,Win32,59.52380952,,,,,,,,,,,,,,,,,,,,,,,80.964,82.147,l,1,[],[],[],[],[],[],[],0.5223,1,82.147,82.6471,0,14,14,14,1,2015,MAS,DIS,150,robot,la,l,0.5223,,,,,,,,,,,,,,,,,,
,,,,,,7fdb880478424506208ad1ed,66a626ef09d4e21e1a8894ec,673497ce65d2da4cc9e31912,2024-11-13_13h17.56.814,Tarea de género gramatical,2024.2.2,Win32,59.52380952,,,84.1831,90.05,space,5.8539,,0.234166654,0.084166654,0,0,0,,,,,,,,,,,90.0788,91.45,l,1,[],[],[],[],[],[],[],0.7017,1,91.4501,91.9506,,,,,,323,MAS,CON,150,marido,,l,0.7017,,91.9508,91.9533,0.234166654,0.084166654,0,0,0,,0,0,0,322,1,,,,
,,,,,,7fdb880478424506208ad1ed,66a626ef09d4e21e1a8894ec,673497ce65d2da4cc9e31912,2024-11-13_13h17.56.814,Tarea de género gramatical,2024.2.2,Win32,59.52380952,,,,,,,,,,,,,,,,,,,,,,,91.9538,93.3008,l,1,[],[],[],[],[],[],[],0.6671,1,93.301,93.8012,,,,,,431,MAS,CON,150,veneno,,l,0.6671,,93.8012,93.8013,0.234166654,0.084166654,0,0,0,,0,1,1,430,1,,,,
,,,,,,7fdb880478424506208ad1ed,66a626ef09d4e21e1a8894ec,673497ce65d2da4cc9e31912,2024-11-13_13h17.56.814,Tarea de género gramatical,2024.2.2,Win32,59.52380952,,,,,,,,,,,,,,,,,,,,,,,93.8021,95.0848,l,0,[],[],[],[],[],[],[],0.6022,0,95.0855,95.585,,,,,,87,FEM,DIS,150,risa,el,a,0.6022,,95.5861,95.5866,0.234166654,0.084166654,0,0,0,,0,2,2,86,1,,,,
,,,,,,7fdb880478424506208ad1ed,66a626ef09d4e21e1a8894ec,673497ce65d2da4cc9e31912,2024-11-13_13h17.56.814,Tarea de género gramatical,2024.2.2,Win32,59.52380952,,,,,,,,,,,,,,,,,,,,,,,95.5872,97.0854,a,1,[],[],[],[],[],[],[],0.8204,1,97.0859,97.5856,,,,,,199,FEM,AGR,150,nariz,la,a,0.8204,,97.5856,97.5857,0.234166654,0.084166654,0,0,0,,0,3,3,198,1,,,,
,,,,,,7fdb880478424506208ad1ed,66a626ef09d4e21e1a8894ec,673497ce65d2da4cc9e31912,2024-11-13_13h17.56.814,Tarea de género gramatical,2024.2.2,Win32,59.52380952,,,,,,,,,,,,,,,,,,,,,,,97.5862,98.8026,a,1,[],[],[],[],[],[],[],0.5516,1,98.8027,99.3029,,,,,,415,FEM,AGR,150,cabina,la,a,0.5516,,99.303,99.3031,0.234166654,0.084166654,0,0,0,,0,4,4,414,1,,,,
,,,,,,7fdb880478424506208ad1ed,66a626ef09d4e21e1a8894ec,673497ce65d2da4cc9e31912,2024-11-13_13h17.56.814,Tarea de género gramatical,2024.2.2,Win32,59.52380952,,,,,,,,,,,,,,,,,,,,,,,99.304,100.5366,l,0,[],[],[],[],[],[],[],0.557,0,100.5371,101.0367,,,,,,123,FEM,DIS,150,tela,el,a,0.557,,101.0369,101.037,0.234166654,0.084166654,0,0,0,,0,5,5,122,1,,,,
,,,,,,7fdb880478424506208ad1ed,66a626ef09d4e21e1a8894ec,673497ce65d2da4cc9e31912,2024-11-13_13h17.56.814,Tarea de género gramatical,2024.2.2,Win32,59.52380952,,,,,,,,,,,,,,,,,,,,,,,101.0375,102.5706,l,1,[],[],[],[],[],[],[],0.8548,1,102.5712,103.0709,,,,,,209,MAS,CON,150,banco,,l,0.8548,,103.0721,103.0726,0.234166654,0.084166654,0,0,0,,0,6,6,208,1,,,,
,,,,,,7fdb880478424506208ad1ed,66a626ef09d4e21e1a8894ec,673497ce65d2da4cc9e31912,2024-11-13_13h17.56.814,Tarea de género gramatical,2024.2.2,Win32,59.52380952,,,,,,,,,,,,,,,,,,,,,,,103.073,104.2878,l,1,[],[],[],[],[],[],[],0.541,1,104.2879,104.7882,,,,,,287,MAS,CON,150,plato,,l,0.541,,104.7883,104.7884,0.234166654,0.084166654,0,0,0,,0,7,7,286,1,,,,
,,,,,,7fdb880478424506208ad1ed,66a626ef09d4e21e1a8894ec,673497ce65d2da4cc9e31912,2024-11-13_13h17.56.814,Tarea de género gramatical,2024.2.2,Win32,59.52380952,,,,,,,,,,,,,,,,,,,,,,,104.7891,105.8552,l,0,[],[],[],[],[],[],[],0.3853,0,105.8558,106.3554,,,,,,2,FEM,CON,150,vida,,a,0.3853,,106.3555,106.3556,0.234166654,0.084166654,0,0,0,,0,8,8,1,1,,,,
,,,,,,7fdb880478424506208ad1ed,66a626ef09d4e21e1a8894ec,673497ce65d2da4cc9e31912,2024-11-13_13h17.56.814,Tarea de género gramatical,2024.2.2,Win32,59.52380952,,,,,,,,,,,,,,,,,,,,,,,106.3562,107.6058,a,1,[],[],[],[],[],[],[],0.5724,1,107.6065,108.1062,,,,,,86,FEM,CON,150,cruz,,a,0.5724,,108.1062,108.1063,0.234166654,0.084166654,0,0,0,,0,9,9,85,1,,,,
,,,,,,7fdb880478424506208ad1ed,66a626ef09d4e21e1a8894ec,673497ce65d2da4cc9e31912,2024-11-13_13h17.56.814,Tarea de género gramatical,2024.2.2,Win32,59.52380952,,,,,,,,,,,,,,,,,,,,,,,108.107,109.4064,l,1,[],[],[],[],[],[],[],0.6214,1,109.4065,109.9068,,,,,,17,MAS,CON,150,modo,,l,0.6214,,109.9068,109.907,0.234166654,0.084166654,0,0,0,,0,10,10,16,1,,,,
,,,,,,7fdb880478424506208ad1ed,66a626ef09d4e21e1a8894ec,673497ce65d2da4cc9e31912,2024-11-13_13h17.56.814,Tarea de género gramatical,2024.2.2,Win32,59.52380952,,,,,,,,,,,,,,,,,,,,,,,109.9078,111.5237,a,1,[],[],[],[],[],[],[],0.9353,1,111.5237,112.0241,,,,,,405,FEM,DIS,150,parada,el,a,0.9353,,112.0251,112.0255,0.234166654,0.084166654,0,0,0,,0,11,11,404,1,,,,
,,,,,,7fdb880478424506208ad1ed,66a626ef09d4e21e1a8894ec,673497ce65d2da4cc9e31912,2024-11-13_13h17.56.814,Tarea de género gramatical,2024.2.2,Win32,59.52380952,,,,,,,,,,,,,,,,,,,,,,,112.0258,113.5412,a,1,[],[],[],[],[],[],[],0.8365,1,113.5412,114.0415,,,,,,255,FEM,DIS,150,tribu,el,a,0.8365,,114.0415,114.0415,0.234166654,0.084166654,0,0,0,,0,12,12,254,1,,,,
,,,,,,7fdb880478424506208ad1ed,66a626ef09d4e21e1a8894ec,673497ce65d2da4cc9e31912,2024-11-13_13h17.56.814,Tarea de género gramatical,2024.2.2,Win32,59.52380952,,,,,,,,,,,,,,,,,,,,,,,114.0424,115.175,a,1,[],[],[],[],[],[],[],0.4557,1,115.1751,115.6751,,,,,,85,FEM,AGR,150,gira,la,a,0.4557,,115.6752,115.6752,0.234166654,0.084166654,0,0,0,,0,13,13,84,1,,,,
,,,,,,7fdb880478424506208ad1ed,66a626ef09d4e21e1a8894ec,673497ce65d2da4cc9e31912,2024-11-13_13h17.56.814,Tarea de género gramatical,2024.2.2,Win32,59.52380952,,,,,,,,,,,,,,,,,,,,,,,115.6763,116.8089,a,1,[],[],[],[],[],[],[],0.4544,1,116.8089,117.3091,,,,,,355,FEM,AGR,150,mirada,la,a,0.4544,,117.3092,117.3093,0.234166654,0.084166654,0,0,0,,0,14,14,354,1,,,,
,,,,,,7fdb880478424506208ad1ed,66a626ef09d4e21e1a8894ec,673497ce65d2da4cc9e31912,2024-11-13_13h17.56.814,Tarea de género gramatical,2024.2.2,Win32,59.52380952,,,,,,,,,,,,,,,,,,,,,,,117.3105,118.4094,l,1,[],[],[],[],[],[],[],0.4242,1,118.4095,118.9099,,,,,,432,MAS,DIS,150,océano,la,l,0.4242,,118.9107,118.9112,0.234166654,0.084166654,0,0,0,,0,15,15,431,1,,,,
,,,,,,7fdb880478424506208ad1ed,66a626ef09d4e21e1a8894ec,673497ce65d2da4cc9e31912,2024-11-13_13h17.56.814,Tarea de género gramatical,2024.2.2,Win32,59.52380952,,,,,,,,,,,,,,,,,,,,,,,118.9115,120.2605,a,1,[],[],[],[],[],[],[],0.669,1,120.2605,120.7602,,,,,,230,FEM,CON,150,regla,,a,0.669,,120.7602,120.7603,0.234166654,0.084166654,0,0,0,,0,16,16,229,1,,,,
,,,,,,7fdb880478424506208ad1ed,66a626ef09d4e21e1a8894ec,673497ce65d2da4cc9e31912,2024-11-13_13h17.56.814,Tarea de género gramatical,2024.2.2,Win32,59.52380952,,,,,,,,,,,,,,,,,,,,,,,120.7609,122.0273,l,1,[],[],[],[],[],[],[],0.5907,1,122.0273,122.5278,,,,,,100,MAS,AGR,150,nido,el,l,0.5907,,122.5279,122.5279,0.234166654,0.084166654,0,0,0,,0,17,17,99,1,,,,
,,,,,,7fdb880478424506208ad1ed,66a626ef09d4e21e1a8894ec,673497ce65d2da4cc9e31912,2024-11-13_13h17.56.814,Tarea de género gramatical,2024.2.2,Win32,59.52380952,,,,,,,,,,,,,,,,,,,,,,,122.529,123.8946,a,1,[],[],[],[],[],[],[],0.6902,1,123.8946,124.3949,,,,,,397,FEM,AGR,150,cuerda,la,a,0.6902,,124.395,124.395,0.234166654,0.084166654,0,0,0,,0,18,18,396,1,,,,
,,,,,,7fdb880478424506208ad1ed,66a626ef09d4e21e1a8894ec,673497ce65d2da4cc9e31912,2024-11-13_13h17.56.814,Tarea de género gramatical,2024.2.2,Win32,59.52380952,,,,,,,,,,,,,,,,,,,,,,,124.3958,125.8286,l,1,[],[],[],[],[],[],[],0.7552,1,125.8288,126.3288,,,,,,240,MAS,DIS,150,ruido,la,l,0.7552,,126.3289,126.3289,0.234166654,0.084166654,0,0,0,,0,19,19,239,1,,,,
,,,,,,7fdb880478424506208ad1ed,66a626ef09d4e21e1a8894ec,673497ce65d2da4cc9e31912,2024-11-13_13h17.56.814,Tarea de género gramatical,2024.2.2,Win32,59.52380952,,,,,,,,,,,,,,,,,,,,,,,126.3297,127.5791,l,1,[],[],[],[],[],[],[],0.5737,1,127.5791,128.0793,,,,,,395,MAS,CON,150,correo,,l,0.5737,,128.0803,128.0806,0.234166654,0.084166654,0,0,0,,0,20,20,394,1,,,,
,,,,,,7fdb880478424506208ad1ed,66a626ef09d4e21e1a8894ec,673497ce65d2da4cc9e31912,2024-11-13_13h17.56.814,Tarea de género gramatical,2024.2.2,Win32,59.52380952,,,,,,,,,,,,,,,,,,,,,,,128.0812,129.4968,a,1,[],[],[],[],[],[],[],0.7342,1,129.4969,129.9967,,,,,,362,FEM,CON,150,fuente,,a,0.7342,,129.9968,129.9968,0.234166654,0.084166654,0,0,0,,0,21,21,361,1,,,,
,,,,,,7fdb880478424506208ad1ed,66a626ef09d4e21e1a8894ec,673497ce65d2da4cc9e31912,2024-11-13_13h17.56.814,Tarea de género gramatical,2024.2.2,Win32,59.52380952,,,,,,,,,,,,,,,,,,,,,,,129.9977,131.8473,l,0,[],[],[],[],[],[],[],1.1677,0,131.8479,132.3479,,,,,,13,FEM,AGR,150,hija,la,a,1.1677,,132.348,132.3482,0.234166654,0.084166654,0,0,0,,0,22,22,12,1,,,,
,,,,,,7fdb880478424506208ad1ed,66a626ef09d4e21e1a8894ec,673497ce65d2da4cc9e31912,2024-11-13_13h17.56.814,Tarea de género gramatical,2024.2.2,Win32,59.52380952,,,,,,,,,,,,,,,,,,,,,,,132.349,133.6313,l,1,[],[],[],[],[],[],[],0.6013,1,133.6319,134.1315,,,,,,108,MAS,DIS,150,hilo,la,l,0.6013,,134.1315,134.1316,0.234166654,0.084166654,0,0,0,,0,23,23,107,1,,,,
,,,,,,7fdb880478424506208ad1ed,66a626ef09d4e21e1a8894ec,673497ce65d2da4cc9e31912,2024-11-13_13h17.56.814,Tarea de género gramatical,2024.2.2,Win32,59.52380952,,,,,,,,,,,,,,,,,,,,,,,134.1323,135.7322,l,1,[],[],[],[],[],[],[],0.9214,1,135.7323,136.2323,,,,,,66,MAS,DIS,150,muro,la,l,0.9214,,136.2332,136.2335,0.234166654,0.084166654,0,0,0,,0,24,24,65,1,,,,
,,,,,,7fdb880478424506208ad1ed,66a626ef09d4e21e1a8894ec,673497ce65d2da4cc9e31912,2024-11-13_13h17.56.814,Tarea de género gramatical,2024.2.2,Win32,59.52380952,,,,,,,,,,,,,,,,,,,,,,,136.234,137.4993,a,1,[],[],[],[],[],[],[],0.5897,1,137.4993,137.9997,,,,,,164,FEM,CON,150,novia,,a,0.5897,,137.9997,137.9998,0.234166654,0.084166654,0,0,0,,0,25,25,163,1,,,,
,,,,,,7fdb880478424506208ad1ed,66a626ef09d4e21e1a8894ec,673497ce65d2da4cc9e31912,2024-11-13_13h17.56.814,Tarea de género gramatical,2024.2.2,Win32,59.52380952,,,,,,,,,,,,,,,,,,,,,,,138.0007,139.2999,l,1,[],[],[],[],[],[],[],0.6205,1,139.3,139.8003,,,,,,70,MAS,AGR,150,palo,el,l,0.6205,,139.8004,139.8005,0.234166654,0.084166654,0,0,0,,0,26,26,69,1,,,,
,,,,,,7fdb880478424506208ad1ed,66a626ef09d4e21e1a8894ec,673497ce65d2da4cc9e31912,2024-11-13_13h17.56.814,Tarea de género gramatical,2024.2.2,Win32,59.52380952,,,,,,,,,,,,,,,,,,,,,,,139.8014,140.9505,a,1,[],[],[],[],[],[],[],0.467,1,140.9506,141.4512,,,,,,296,FEM,CON,150,feria,,a,0.467,,141.4512,141.4513,0.234166654,0.084166654,0,0,0,,0,27,27,295,1,,,,
,,,,,,7fdb880478424506208ad1ed,66a626ef09d4e21e1a8894ec,673497ce65d2da4cc9e31912,2024-11-13_13h17.56.814,Tarea de género gramatical,2024.2.2,Win32,59.52380952,,,,,,,,,,,,,,,,,,,,,,,141.4525,142.8847,a,1,[],[],[],[],[],[],[],0.7514,1,142.8848,143.3849,,,,,,421,FEM,AGR,150,novela,la,a,0.7514,,143.385,143.385,0.234166654,0.084166654,0,0,0,,0,28,28,420,1,,,,
,,,,,,7fdb880478424506208ad1ed,66a626ef09d4e21e1a8894ec,673497ce65d2da4cc9e31912,2024-11-13_13h17.56.814,Tarea de género gramatical,2024.2.2,Win32,59.52380952,,,,,,,,,,,,,,,,,,,,,,,143.3858,144.5684,a,1,[],[],[],[],[],[],[],0.505,1,144.5684,145.0687,,,,,,93,FEM,DIS,150,lata,el,a,0.505,,145.0697,145.0701,0.234166654,0.084166654,0,0,0,,0,29,29,92,1,,,,
,,,,,,7fdb880478424506208ad1ed,66a626ef09d4e21e1a8894ec,673497ce65d2da4cc9e31912,2024-11-13_13h17.56.814,Tarea de género gramatical,2024.2.2,Win32,59.52380952,,,,,,,,,,,,,,,,,,,,,,,145.0705,146.469,a,1,[],[],[],[],[],[],[],0.7232,1,146.4691,146.9694,,,,,,177,FEM,DIS,150,broma,el,a,0.7232,,146.9694,146.9695,0.234166654,0.084166654,0,0,0,,0,30,30,176,1,,,,
,,,,,,7fdb880478424506208ad1ed,66a626ef09d4e21e1a8894ec,673497ce65d2da4cc9e31912,2024-11-13_13h17.56.814,Tarea de género gramatical,2024.2.2,Win32,59.52380952,,,,,,,,,,,,,,,,,,,,,,,146.9702,148.203,l,1,[],[],[],[],[],[],[],0.5503,1,148.2031,148.7034,,,,,,292,MAS,AGR,150,piano,el,l,0.5503,,148.7034,148.7034,0.234166654,0.084166654,0,0,0,,0,31,31,291,1,,,,
,,,,,,7fdb880478424506208ad1ed,66a626ef09d4e21e1a8894ec,673497ce65d2da4cc9e31912,2024-11-13_13h17.56.814,Tarea de género gramatical,2024.2.2,Win32,59.52380952,,,,,,,,,,,,,,,,,,,,,,,148.7043,149.8869,l,1,[],[],[],[],[],[],[],0.5006,1,149.8869,150.3871,,,,,,89,MAS,CON,150,maíz,,l,0.5006,,150.3871,150.3871,0.234166654,0.084166654,0,0,0,,0,32,32,88,1,,,,
,,,,,,7fdb880478424506208ad1ed,66a626ef09d4e21e1a8894ec,673497ce65d2da4cc9e31912,2024-11-13_13h17.56.814,Tarea de género gramatical,2024.2.2,Win32,59.52380952,,,,,,,,,,,,,,,,,,,,,,,150.3878,151.4874,l,1,[],[],[],[],[],[],[],0.4334,1,151.4876,151.9878,,,,,,346,MAS,AGR,150,juicio,el,l,0.4334,,151.9888,151.9892,0.234166654,0.084166654,0,0,0,,0,33,33,345,1,,,,
,,,,,,7fdb880478424506208ad1ed,66a626ef09d4e21e1a8894ec,673497ce65d2da4cc9e31912,2024-11-13_13h17.56.814,Tarea de género gramatical,2024.2.2,Win32,59.52380952,,,,,,,,,,,,,,,,,,,,,,,151.9896,153.205,l,1,[],[],[],[],[],[],[],0.5349,1,153.205,153.7051,,,,,,149,MAS,CON,150,nudo,,l,0.5349,,153.7052,153.7052,0.234166654,0.084166654,0,0,0,,0,34,34,148,1,,,,
,,,,,,7fdb880478424506208ad1ed,66a626ef09d4e21e1a8894ec,673497ce65d2da4cc9e31912,2024-11-13_13h17.56.814,Tarea de género gramatical,2024.2.2,Win32,59.52380952,,,,,,,,,,,,,,,,,,,,,,,153.706,154.7887,a,1,[],[],[],[],[],[],[],0.4125,1,154.7887,155.2889,,,,,,369,FEM,DIS,150,camisa,el,a,0.4125,,155.2889,155.2889,0.234166654,0.084166654,0,0,0,,0,35,35,368,1,,,,
,,,,,,7fdb880478424506208ad1ed,66a626ef09d4e21e1a8894ec,673497ce65d2da4cc9e31912,2024-11-13_13h17.56.814,Tarea de género gramatical,2024.2.2,Win32,59.52380952,,,,,,,,,,,,,,,,,,,,,,,155.2896,156.8559,l,0,[],[],[],[],[],[],[],0.904,0,156.8564,157.3562,,,,,,277,FEM,AGR,150,plaza,la,a,0.904,,157.3562,157.3563,0.234166654,0.084166654,0,0,0,,0,36,36,276,1,,,,
,,,,,,7fdb880478424506208ad1ed,66a626ef09d4e21e1a8894ec,673497ce65d2da4cc9e31912,2024-11-13_13h17.56.814,Tarea de género gramatical,2024.2.2,Win32,59.52380952,,,,,,,,,,,,,,,,,,,,,,,157.3573,158.7733,a,1,[],[],[],[],[],[],[],0.7411,1,158.7738,159.2736,,,,,,434,FEM,CON,150,corona,,a,0.7411,,159.2736,159.2736,0.234166654,0.084166654,0,0,0,,0,37,37,433,1,,,,
,,,,,,7fdb880478424506208ad1ed,66a626ef09d4e21e1a8894ec,673497ce65d2da4cc9e31912,2024-11-13_13h17.56.814,Tarea de género gramatical,2024.2.2,Win32,59.52380952,,,,,,,,,,,,,,,,,,,,,,,159.2743,160.6573,l,1,[],[],[],[],[],[],[],0.7048,1,160.6574,161.1574,,,,,,264,MAS,DIS,150,pollo,la,l,0.7048,,161.1586,161.1591,0.234166654,0.084166654,0,0,0,,0,38,38,263,1,,,,
,,,,,,7fdb880478424506208ad1ed,66a626ef09d4e21e1a8894ec,673497ce65d2da4cc9e31912,2024-11-13_13h17.56.814,Tarea de género gramatical,2024.2.2,Win32,59.52380952,,,,,,,,,,,,,,,,,,,,,,,161.1594,162.3411,l,1,[],[],[],[],[],[],[],0.5005,1,162.3412,162.8414,,,,,,136,MAS,AGR,150,vago,el,l,0.5005,,162.8415,162.8415,0.234166654,0.084166654,0,0,0,,0,39,39,135,1,,,,
,,,,,,7fdb880478424506208ad1ed,66a626ef09d4e21e1a8894ec,673497ce65d2da4cc9e31912,2024-11-13_13h17.56.814,Tarea de género gramatical,2024.2.2,Win32,59.52380952,,,,,,,,,,,,,,,,,,,,,,,162.8428,164.1419,l,1,[],[],[],[],[],[],[],0.6224,1,164.1419,164.6422,,,,,,300,MAS,DIS,150,túnel,la,l,0.6224,,164.6422,164.6423,0.234166654,0.084166654,0,0,0,,0,40,40,299,1,,,,
,,,,,,7fdb880478424506208ad1ed,66a626ef09d4e21e1a8894ec,673497ce65d2da4cc9e31912,2024-11-13_13h17.56.814,Tarea de género gramatical,2024.2.2,Win32,59.52380952,,,,,,,,,,,,,,,,,,,,,,,164.643,165.8422,a,1,[],[],[],[],[],[],[],0.5172,1,165.8423,166.3426,,,,,,147,FEM,DIS,150,grúa,el,a,0.5172,,166.3426,166.3427,0.234166654,0.084166654,0,0,0,,0,41,41,146,1,,,,
,,,,,,7fdb880478424506208ad1ed,66a626ef09d4e21e1a8894ec,673497ce65d2da4cc9e31912,2024-11-13_13h17.56.814,Tarea de género gramatical,2024.2.2,Win32,59.52380952,,,,,,,,,,,,,,,,,,,,,,,166.3437,167.5264,l,1,[],[],[],[],[],[],[],0.5023,1,167.5264,168.0264,,,,,,270,MAS,DIS,150,queso,la,l,0.5023,,168.0272,168.0275,0.234166654,0.084166654,0,0,0,,0,42,42,269,1,,,,
,,,,,,7fdb880478424506208ad1ed,66a626ef09d4e21e1a8894ec,673497ce65d2da4cc9e31912,2024-11-13_13h17.56.814,Tarea de género gramatical,2024.2.2,Win32,59.52380952,,,,,,,,,,,,,,,,,,,,,,,168.0279,169.1766,l,1,[],[],[],[],[],[],[],0.4664,1,169.1766,169.6771,,,,,,29,MAS,CON,150,frío,,l,0.4664,,169.6771,169.6772,0.234166654,0.084166654,0,0,0,,0,43,43,28,1,,,,
,,,,,,7fdb880478424506208ad1ed,66a626ef09d4e21e1a8894ec,673497ce65d2da4cc9e31912,2024-11-13_13h17.56.814,Tarea de género gramatical,2024.2.2,Win32,59.52380952,,,,,,,,,,,,,,,,,,,,,,,169.6781,170.8275,a,1,[],[],[],[],[],[],[],0.4713,1,170.8275,171.3278,,,,,,254,FEM,CON,150,caída,,a,0.4713,,171.3278,171.3279,0.234166654,0.084166654,0,0,0,,0,44,44,253,1,,,,
,,,,,,7fdb880478424506208ad1ed,66a626ef09d4e21e1a8894ec,673497ce65d2da4cc9e31912,2024-11-13_13h17.56.814,Tarea de género gramatical,2024.2.2,Win32,59.52380952,,,,,,,,,,,,,,,,,,,,,,,171.3288,172.4446,l,0,[],[],[],[],[],[],[],0.4356,0,172.4452,172.9449,,,,,,103,FEM,AGR,150,fama,la,a,0.4356,,172.9449,172.945,0.234166654,0.084166654,0,0,0,,0,45,45,102,1,,,,
,,,,,,7fdb880478424506208ad1ed,66a626ef09d4e21e1a8894ec,673497ce65d2da4cc9e31912,2024-11-13_13h17.56.814,Tarea de género gramatical,2024.2.2,Win32,59.52380952,,,,,,,,,,,,,,,,,,,,,,,172.9458,174.1452,l,1,[],[],[],[],[],[],[],0.5182,1,174.1458,174.6454,,,,,,120,MAS,DIS,150,puño,la,l,0.5182,,174.6454,174.6454,0.234166654,0.084166654,0,0,0,,0,46,46,119,1,,,,
,,,,,,7fdb880478424506208ad1ed,66a626ef09d4e21e1a8894ec,673497ce65d2da4cc9e31912,2024-11-13_13h17.56.814,Tarea de género gramatical,2024.2.2,Win32,59.52380952,,,,,,,,,,,,,,,,,,,,,,,174.6464,175.6625,l,1,[],[],[],[],[],[],[],0.3299,1,175.6626,176.1627,,,,,,371,MAS,CON,150,sonido,,l,0.3299,,176.1634,176.1639,0.234166654,0.084166654,0,0,0,,0,47,47,370,1,,,,
,,,,,,7fdb880478424506208ad1ed,66a626ef09d4e21e1a8894ec,673497ce65d2da4cc9e31912,2024-11-13_13h17.56.814,Tarea de género gramatical,2024.2.2,Win32,59.52380952,,,,,,,,,,,,,,,,,,,,,,,176.1642,177.4131,l,1,[],[],[],[],[],[],[],0.5785,1,177.4132,177.9134,,,,,,228,MAS,DIS,150,nivel,la,l,0.5785,,177.9135,177.9135,0.234166654,0.084166654,0,0,0,,0,48,48,227,1,,,,
,,,,,,7fdb880478424506208ad1ed,66a626ef09d4e21e1a8894ec,673497ce65d2da4cc9e31912,2024-11-13_13h17.56.814,Tarea de género gramatical,2024.2.2,Win32,59.52380952,,,,,,,,,,,,,,,,,,,,,,,177.9143,178.9303,l,1,[],[],[],[],[],[],[],0.3373,1,178.9303,179.4305,,,,,,359,MAS,CON,150,bosque,,l,0.3373,,179.4305,179.4306,0.234166654,0.084166654,0,0,0,,0,49,49,358,1,,,,
,,,,,,7fdb880478424506208ad1ed,66a626ef09d4e21e1a8894ec,673497ce65d2da4cc9e31912,2024-11-13_13h17.56.814,Tarea de género gramatical,2024.2.2,Win32,59.52380952,,,,,,,,,,,,,,,,,,,,,,,179.4316,180.5308,l,0,[],[],[],[],[],[],[],0.4213,0,180.5314,181.0311,,,,,,446,FEM,CON,150,bañera,,a,0.4213,,181.0311,181.0311,0.234166654,0.084166654,0,0,0,,0,50,50,445,1,,,,
,,,,,,7fdb880478424506208ad1ed,66a626ef09d4e21e1a8894ec,673497ce65d2da4cc9e31912,2024-11-13_13h17.56.814,Tarea de género gramatical,2024.2.2,Win32,59.52380952,,,,,,,,,,,,,,,,,,,,,,,181.0321,182.4148,a,1,[],[],[],[],[],[],[],0.7067,1,182.4152,182.9148,,,,,,189,FEM,DIS,150,pista,el,a,0.7067,,182.9154,182.9158,0.234166654,0.084166654,0,0,0,,0,51,51,188,1,,,,
,,,,,,7fdb880478424506208ad1ed,66a626ef09d4e21e1a8894ec,673497ce65d2da4cc9e31912,2024-11-13_13h17.56.814,Tarea de género gramatical,2024.2.2,Win32,59.52380952,,,,,,,,,,,,,,,,,,,,,,,182.9162,184.0653,a,1,[],[],[],[],[],[],[],0.4677,1,184.0653,184.5657,,,,,,98,FEM,CON,150,fuga,,a,0.4677,,184.5658,184.5658,0.234166654,0.084166654,0,0,0,,0,52,52,97,1,,,,
,,,,,,7fdb880478424506208ad1ed,66a626ef09d4e21e1a8894ec,673497ce65d2da4cc9e31912,2024-11-13_13h17.56.814,Tarea de género gramatical,2024.2.2,Win32,59.52380952,,,,,,,,,,,,,,,,,,,,,,,184.5668,185.7491,a,1,[],[],[],[],[],[],[],0.5076,1,185.7491,186.2495,,,,,,158,FEM,CON,150,chica,,a,0.5076,,186.2495,186.2495,0.234166654,0.084166654,0,0,0,,0,53,53,157,1,,,,
,,,,,,7fdb880478424506208ad1ed,66a626ef09d4e21e1a8894ec,673497ce65d2da4cc9e31912,2024-11-13_13h17.56.814,Tarea de género gramatical,2024.2.2,Win32,59.52380952,,,,,,,,,,,,,,,,,,,,,,,186.2502,187.4498,l,0,[],[],[],[],[],[],[],0.5188,0,187.4504,187.9498,,,,,,441,FEM,DIS,150,medida,el,a,0.5188,,187.9499,187.9499,0.234166654,0.084166654,0,0,0,,0,54,54,440,1,,,,
,,,,,,7fdb880478424506208ad1ed,66a626ef09d4e21e1a8894ec,673497ce65d2da4cc9e31912,2024-11-13_13h17.56.814,Tarea de género gramatical,2024.2.2,Win32,59.52380952,,,,,,,,,,,,,,,,,,,,,,,187.9504,189.4005,l,1,[],[],[],[],[],[],[],0.7676,1,189.4011,189.9007,,,,,,40,MAS,AGR,150,dios,el,l,0.7676,,189.9008,189.9009,0.234166654,0.084166654,0,0,0,,0,55,55,39,1,,,,
,,,,,,7fdb880478424506208ad1ed,66a626ef09d4e21e1a8894ec,673497ce65d2da4cc9e31912,2024-11-13_13h17.56.814,Tarea de género gramatical,2024.2.2,Win32,59.52380952,,,,,,,,,,,,,,,,,,,,,,,189.9023,191.118,a,1,[],[],[],[],[],[],[],0.5342,1,191.118,191.6181,,,,,,387,FEM,DIS,150,página,el,a,0.5342,,191.6189,191.6194,0.234166654,0.084166654,0,0,0,,0,56,56,386,1,,,,
,,,,,,7fdb880478424506208ad1ed,66a626ef09d4e21e1a8894ec,673497ce65d2da4cc9e31912,2024-11-13_13h17.56.814,Tarea de género gramatical,2024.2.2,Win32,59.52380952,,,,,,,,,,,,,,,,,,,,,,,191.6197,192.8182,l,0,[],[],[],[],[],[],[],0.5212,0,192.8186,193.3189,,,,,,57,FEM,DIS,150,moda,el,a,0.5212,,193.319,193.319,0.234166654,0.084166654,0,0,0,,0,57,57,56,1,,,,
,,,,,,7fdb880478424506208ad1ed,66a626ef09d4e21e1a8894ec,673497ce65d2da4cc9e31912,2024-11-13_13h17.56.814,Tarea de género gramatical,2024.2.2,Win32,59.52380952,,,,,,,,,,,,,,,,,,,,,,,193.3198,194.8022,a,1,[],[],[],[],[],[],[],0.8006,1,194.803,195.3027,,,,,,333,FEM,DIS,150,locura,el,a,0.8006,,195.3027,195.3027,0.234166654,0.084166654,0,0,0,,0,58,58,332,1,,,,
,,,,,,7fdb880478424506208ad1ed,66a626ef09d4e21e1a8894ec,673497ce65d2da4cc9e31912,2024-11-13_13h17.56.814,Tarea de género gramatical,2024.2.2,Win32,59.52380952,,,,,,,,,,,,,,,,,,,,,,,195.3038,196.4862,l,1,[],[],[],[],[],[],[],0.5003,1,196.4863,196.9866,,,,,,341,MAS,CON,150,precio,,l,0.5003,,196.9866,196.9867,0.234166654,0.084166654,0,0,0,,0,59,59,340,1,,,,
,,,,,,7fdb880478424506208ad1ed,66a626ef09d4e21e1a8894ec,673497ce65d2da4cc9e31912,2024-11-13_13h17.56.814,Tarea de género gramatical,2024.2.2,Win32,59.52380952,,,,,,,,,,,,,,,,,,,,,,,196.9875,198.3703,l,0,[],[],[],[],[],[],[],0.7006,0,198.3709,198.8704,,,,,,193,FEM,AGR,150,bolsa,la,a,0.7006,,198.8711,198.8716,0.234166654,0.084166654,0,0,0,,0,60,60,192,1,,,,
,,,,,,7fdb880478424506208ad1ed,66a626ef09d4e21e1a8894ec,673497ce65d2da4cc9e31912,2024-11-13_13h17.56.814,Tarea de género gramatical,2024.2.2,Win32,59.52380952,,,,,,,,,,,,,,,,,,,,,,,198.872,200.0209,l,1,[],[],[],[],[],[],[],0.4675,1,200.0215,200.5211,,,,,,233,MAS,CON,150,golpe,,l,0.4675,,200.5211,200.5212,0.234166654,0.084166654,0,0,0,,0,61,61,232,1,,,,
,,,,,,7fdb880478424506208ad1ed,66a626ef09d4e21e1a8894ec,673497ce65d2da4cc9e31912,2024-11-13_13h17.56.814,Tarea de género gramatical,2024.2.2,Win32,59.52380952,,,,,,,,,,,,,,,,,,,,,,,200.5219,202.0047,a,1,[],[],[],[],[],[],[],0.8007,1,202.0048,202.5051,,,,,,386,FEM,CON,150,sombra,,a,0.8007,,202.5051,202.5052,0.234166654,0.084166654,0,0,0,,0,62,62,385,1,,,,
,,,,,,7fdb880478424506208ad1ed,66a626ef09d4e21e1a8894ec,673497ce65d2da4cc9e31912,2024-11-13_13h17.56.814,Tarea de género gramatical,2024.2.2,Win32,59.52380952,,,,,,,,,,,,,,,,,,,,,,,202.5059,203.7387,a,1,[],[],[],[],[],[],[],0.557,1,203.7387,204.2391,,,,,,195,FEM,DIS,150,pared,el,a,0.557,,204.2392,204.2392,0.234166654,0.084166654,0,0,0,,0,63,63,194,1,,,,
,,,,,,7fdb880478424506208ad1ed,66a626ef09d4e21e1a8894ec,673497ce65d2da4cc9e31912,2024-11-13_13h17.56.814,Tarea de género gramatical,2024.2.2,Win32,59.52380952,,,,,,,,,,,,,,,,,,,,,,,204.24,205.3225,l,1,[],[],[],[],[],[],[],0.4003,1,205.3226,205.823,,,,,,377,MAS,CON,150,jardín,,l,0.4003,,205.8231,205.8231,0.234166654,0.084166654,0,0,0,,0,64,64,376,1,,,,
,,,,,,7fdb880478424506208ad1ed,66a626ef09d4e21e1a8894ec,673497ce65d2da4cc9e31912,2024-11-13_13h17.56.814,Tarea de género gramatical,2024.2.2,Win32,59.52380952,,,,,,,,,,,,,,,,,,,,,,,205.8239,207.0231,a,1,[],[],[],[],[],[],[],0.5181,1,207.0232,207.5234,,,,,,45,FEM,DIS,150,isla,el,a,0.5181,,207.5244,207.5249,0.234166654,0.084166654,0,0,0,,0,65,65,44,1,,,,
,,,,,,7fdb880478424506208ad1ed,66a626ef09d4e21e1a8894ec,673497ce65d2da4cc9e31912,2024-11-13_13h17.56.814,Tarea de género gramatical,2024.2.2,Win32,59.52380952,,,,,,,,,,,,,,,,,,,,,,,207.5253,208.6237,l,1,[],[],[],[],[],[],[],0.4235,1,208.6238,209.1241,,,,,,316,MAS,AGR,150,cuerpo,el,l,0.4235,,209.1241,209.1242,0.234166654,0.084166654,0,0,0,,0,66,66,315,1,,,,
,,,,,,7fdb880478424506208ad1ed,66a626ef09d4e21e1a8894ec,673497ce65d2da4cc9e31912,2024-11-13_13h17.56.814,Tarea de género gramatical,2024.2.2,Win32,59.52380952,,,,,,,,,,,,,,,,,,,,,,,209.1249,210.4244,a,1,[],[],[],[],[],[],[],0.6279,1,210.4245,210.9246,,,,,,152,FEM,CON,150,gente,,a,0.6279,,210.9247,210.9247,0.234166654,0.084166654,0,0,0,,0,67,67,151,1,,,,
,,,,,,7fdb880478424506208ad1ed,66a626ef09d4e21e1a8894ec,673497ce65d2da4cc9e31912,2024-11-13_13h17.56.814,Tarea de género gramatical,2024.2.2,Win32,59.52380952,,,,,,,,,,,,,,,,,,,,,,,210.9255,211.9584,l,0,[],[],[],[],[],[],[],0.3582,0,211.9592,212.4587,,,,,,267,FEM,DIS,150,barba,el,a,0.3582,,212.4587,212.4587,0.234166654,0.084166654,0,0,0,,0,68,68,266,1,,,,
,,,,,,7fdb880478424506208ad1ed,66a626ef09d4e21e1a8894ec,673497ce65d2da4cc9e31912,2024-11-13_13h17.56.814,Tarea de género gramatical,2024.2.2,Win32,59.52380952,,,,,,,,,,,,,,,,,,,,,,,212.4595,213.709,a,1,[],[],[],[],[],[],[],0.5674,1,213.7095,214.2091,,,,,,91,FEM,AGR,150,hoja,la,a,0.5674,,214.2101,214.2106,0.234166654,0.084166654,0,0,0,,0,69,69,90,1,,,,
,,,,,,7fdb880478424506208ad1ed,66a626ef09d4e21e1a8894ec,673497ce65d2da4cc9e31912,2024-11-13_13h17.56.814,Tarea de género gramatical,2024.2.2,Win32,59.52380952,,,,,,,,,,,,,,,,,,,,,,,214.2109,215.6428,l,1,[],[],[],[],[],[],[],0.7509,1,215.6429,216.1432,,,,,,360,MAS,DIS,150,puente,la,l,0.7509,,216.1432,216.1433,0.234166654,0.084166654,0,0,0,,0,70,70,359,1,,,,
,,,,,,7fdb880478424506208ad1ed,66a626ef09d4e21e1a8894ec,673497ce65d2da4cc9e31912,2024-11-13_13h17.56.814,Tarea de género gramatical,2024.2.2,Win32,59.52380952,,,,,,,,,,,,,,,,,,,,,,,216.1443,217.26,l,1,[],[],[],[],[],[],[],0.4383,1,217.2601,217.7604,,,,,,376,MAS,AGR,150,efecto,el,l,0.4383,,217.7604,217.7605,0.234166654,0.084166654,0,0,0,,0,71,71,375,1,,,,
,,,,,,7fdb880478424506208ad1ed,66a626ef09d4e21e1a8894ec,673497ce65d2da4cc9e31912,2024-11-13_13h17.56.814,Tarea de género gramatical,2024.2.2,Win32,59.52380952,,,,,,,,,,,,,,,,,,,,,,,217.7614,218.9606,l,0,[],[],[],[],[],[],[],0.5184,0,218.9613,219.4606,,,,,,261,FEM,DIS,150,cueva,el,a,0.5184,,219.4606,219.4606,0.234166654,0.084166654,0,0,0,,0,72,72,260,1,,,,
,,,,,,7fdb880478424506208ad1ed,66a626ef09d4e21e1a8894ec,673497ce65d2da4cc9e31912,2024-11-13_13h17.56.814,Tarea de género gramatical,2024.2.2,Win32,59.52380952,,,,,,,,,,,,,,,,,,,,,,,219.4612,220.978,a,1,[],[],[],[],[],[],[],0.8583,1,220.9784,221.4785,,,,,,381,FEM,DIS,150,bebida,el,a,0.8583,,221.4785,221.4785,0.234166654,0.084166654,0,0,0,,0,73,73,380,1,,,,
,,,,,,7fdb880478424506208ad1ed,66a626ef09d4e21e1a8894ec,673497ce65d2da4cc9e31912,2024-11-13_13h17.56.814,Tarea de género gramatical,2024.2.2,Win32,59.52380952,,,,,,,,,,,,,,,,,,,,,,,221.4794,222.6452,a,1,[],[],[],[],[],[],[],0.4905,1,222.6453,223.1456,,,,,,115,FEM,AGR,150,seda,la,a,0.4905,,223.1465,223.147,0.234166654,0.084166654,0,0,0,,0,74,74,114,1,,,,
,,,,,,7fdb880478424506208ad1ed,66a626ef09d4e21e1a8894ec,673497ce65d2da4cc9e31912,2024-11-13_13h17.56.814,Tarea de género gramatical,2024.2.2,Win32,59.52380952,,,,,,,,,,,,,,,,,,,,,,,223.1474,224.2792,l,1,[],[],[],[],[],[],[],0.4508,1,224.2793,224.7794,,,,,,246,MAS,DIS,150,humor,la,l,0.4508,,224.7795,224.7795,0.234166654,0.084166654,0,0,0,,0,75,75,245,1,,,,
,,,,,,7fdb880478424506208ad1ed,66a626ef09d4e21e1a8894ec,673497ce65d2da4cc9e31912,2024-11-13_13h17.56.814,Tarea de género gramatical,2024.2.2,Win32,59.52380952,,,,,,,,,,,,,,,,,,,,,,,224.7803,226.1297,a,1,[],[],[],[],[],[],[],0.6677,1,226.1298,226.6301,,,,,,159,FEM,DIS,150,clase,el,a,0.6677,,226.6302,226.6302,0.234166654,0.084166654,0,0,0,,0,76,76,158,1,,,,
,,,,,,7fdb880478424506208ad1ed,66a626ef09d4e21e1a8894ec,673497ce65d2da4cc9e31912,2024-11-13_13h17.56.814,Tarea de género gramatical,2024.2.2,Win32,59.52380952,,,,,,,,,,,,,,,,,,,,,,,226.6312,228.0471,l,0,[],[],[],[],[],[],[],0.7313,0,228.0477,228.5473,,,,,,303,FEM,DIS,150,maldad,el,a,0.7313,,228.5474,228.5474,0.234166654,0.084166654,0,0,0,,0,77,77,302,1,,,,
,,,,,,7fdb880478424506208ad1ed,66a626ef09d4e21e1a8894ec,673497ce65d2da4cc9e31912,2024-11-13_13h17.56.814,Tarea de género gramatical,2024.2.2,Win32,59.52380952,,,,,,,,,,,,,,,,,,,,,,,228.5482,229.9144,l,0,[],[],[],[],[],[],[],0.7029,0,229.9145,230.4148,,,,,,27,FEM,DIS,150,mesa,el,a,0.7029,,230.4172,230.4177,0.234166654,0.084166654,0,0,0,,0,78,78,26,1,,,,
,,,,,,7fdb880478424506208ad1ed,66a626ef09d4e21e1a8894ec,673497ce65d2da4cc9e31912,2024-11-13_13h17.56.814,Tarea de género gramatical,2024.2.2,Win32,59.52380952,,,,,,,,,,,,,,,,,,,,,,,230.4179,231.5651,a,0,[],[],[],[],[],[],[],0.467,0,231.5653,232.0654,,,,,,222,MAS,DIS,150,valor,la,l,0.467,,232.0654,232.0656,0.234166654,0.084166654,0,0,0,,0,79,79,221,1,,,,
,,,,,,7fdb880478424506208ad1ed,66a626ef09d4e21e1a8894ec,673497ce65d2da4cc9e31912,2024-11-13_13h17.56.814,Tarea de género gramatical,2024.2.2,Win32,59.52380952,,,,,,,,,,,,,,,,,,,,,,,232.0666,233.3323,a,1,[],[],[],[],[],[],[],0.5899,1,233.3327,233.8326,,,,,,272,FEM,CON,150,oreja,,a,0.5899,,233.8326,233.8326,0.234166654,0.084166654,0,0,0,,0,80,80,271,1,,,,
,,,,,,7fdb880478424506208ad1ed,66a626ef09d4e21e1a8894ec,673497ce65d2da4cc9e31912,2024-11-13_13h17.56.814,Tarea de género gramatical,2024.2.2,Win32,59.52380952,,,,,,,,,,,,,,,,,,,,,,,233.8334,235.4998,l,1,[],[],[],[],[],[],[],0.9843,1,235.4999,236.0001,,,,,,388,MAS,AGR,150,empleo,el,l,0.9843,,236.0001,236.0001,0.234166654,0.084166654,0,0,0,,0,81,81,387,1,,,,
,,,,,,7fdb880478424506208ad1ed,66a626ef09d4e21e1a8894ec,673497ce65d2da4cc9e31912,2024-11-13_13h17.56.814,Tarea de género gramatical,2024.2.2,Win32,59.52380952,,,,,,,,,,,,,,,,,,,,,,,236.0008,237.1668,l,1,[],[],[],[],[],[],[],0.4952,1,237.1669,237.6674,,,,,,340,MAS,AGR,150,pasado,el,l,0.4952,,237.6674,237.6676,0.234166654,0.084166654,0,0,0,,0,82,82,339,1,,,,
,,,,,,7fdb880478424506208ad1ed,66a626ef09d4e21e1a8894ec,673497ce65d2da4cc9e31912,2024-11-13_13h17.56.814,Tarea de género gramatical,2024.2.2,Win32,59.52380952,,,,,,,,,,,,,,,,,,,,,,,237.6683,238.7841,a,1,[],[],[],[],[],[],[],0.4367,1,238.7842,239.2845,,,,,,92,FEM,CON,150,masa,,a,0.4367,,239.2855,239.2859,0.234166654,0.084166654,0,0,0,,0,83,83,91,1,,,,
,,,,,,7fdb880478424506208ad1ed,66a626ef09d4e21e1a8894ec,673497ce65d2da4cc9e31912,2024-11-13_13h17.56.814,Tarea de género gramatical,2024.2.2,Win32,59.52380952,,,,,,,,,,,,,,,,,,,,,,,239.2863,240.7014,a,1,[],[],[],[],[],[],[],0.7424,1,240.7015,241.2018,,,,,,374,FEM,CON,150,herida,,a,0.7424,,241.2018,241.2019,0.234166654,0.084166654,0,0,0,,0,84,84,373,1,,,,
,,,,,,7fdb880478424506208ad1ed,66a626ef09d4e21e1a8894ec,673497ce65d2da4cc9e31912,2024-11-13_13h17.56.814,Tarea de género gramatical,2024.2.2,Win32,59.52380952,,,,,,,,,,,,,,,,,,,,,,,241.2026,242.3689,l,1,[],[],[],[],[],[],[],0.4918,1,242.3691,242.8688,,,,,,312,MAS,DIS,150,equipo,la,l,0.4918,,242.8688,242.8689,0.234166654,0.084166654,0,0,0,,0,85,85,311,1,,,,
,,,,,,7fdb880478424506208ad1ed,66a626ef09d4e21e1a8894ec,673497ce65d2da4cc9e31912,2024-11-13_13h17.56.814,Tarea de género gramatical,2024.2.2,Win32,59.52380952,,,,,,,,,,,,,,,,,,,,,,,242.8696,244.0358,l,0,[],[],[],[],[],[],[],0.484,0,244.0363,244.5364,,,,,,271,FEM,AGR,150,viuda,la,a,0.484,,244.5364,244.5365,0.234166654,0.084166654,0,0,0,,0,86,86,270,1,,,,
,,,,,,7fdb880478424506208ad1ed,66a626ef09d4e21e1a8894ec,673497ce65d2da4cc9e31912,2024-11-13_13h17.56.814,Tarea de género gramatical,2024.2.2,Win32,59.52380952,,,,,,,,,,,,,,,,,,,,,,,244.5372,245.5531,l,0,[],[],[],[],[],[],[],0.3415,0,245.5532,246.0535,,,,,,200,FEM,CON,150,silla,,a,0.3415,,246.0544,246.0548,0.234166654,0.084166654,0,0,0,,0,87,87,199,1,,,,
,,,,,,7fdb880478424506208ad1ed,66a626ef09d4e21e1a8894ec,673497ce65d2da4cc9e31912,2024-11-13_13h17.56.814,Tarea de género gramatical,2024.2.2,Win32,59.52380952,,,,,,,,,,,,,,,,,,,,,,,246.0551,247.2705,a,0,[],[],[],[],[],[],[],0.5343,0,247.2706,247.7707,,,,,,23,MAS,CON,150,rato,,l,0.5343,,247.7707,247.7707,0.234166654,0.084166654,0,0,0,,0,88,88,22,1,,,,
,,,,,,7fdb880478424506208ad1ed,66a626ef09d4e21e1a8894ec,673497ce65d2da4cc9e31912,2024-11-13_13h17.56.814,Tarea de género gramatical,2024.2.2,Win32,59.52380952,,,,,,,,,,,,,,,,,,,,,,,247.7716,249.0375,a,1,[],[],[],[],[],[],[],0.5881,1,249.0382,249.5379,,,,,,128,FEM,CON,150,leña,,a,0.5881,,249.5379,249.5379,0.234166654,0.084166654,0,0,0,,0,89,89,127,1,,,,
,,,,,,7fdb880478424506208ad1ed,66a626ef09d4e21e1a8894ec,673497ce65d2da4cc9e31912,2024-11-13_13h17.56.814,Tarea de género gramatical,2024.2.2,Win32,59.52380952,,,,,,,,,,,,,,,,,,,,,,,249.5387,250.7214,l,1,[],[],[],[],[],[],[],0.5091,1,250.7215,251.222,,,,,,125,MAS,CON,150,bate,,l,0.5091,,251.222,251.222,0.234166654,0.084166654,0,0,0,,0,90,90,124,1,,,,
,,,,,,7fdb880478424506208ad1ed,66a626ef09d4e21e1a8894ec,673497ce65d2da4cc9e31912,2024-11-13_13h17.56.814,Tarea de género gramatical,2024.2.2,Win32,59.52380952,,,,,,,,,,,,,,,,,,,,,,,251.2228,252.5222,l,1,[],[],[],[],[],[],[],0.6172,1,252.5222,253.0223,,,,,,252,MAS,DIS,150,viejo,la,l,0.6172,,253.0223,253.0224,0.234166654,0.084166654,0,0,0,,0,91,91,251,1,,,,
,,,,,,7fdb880478424506208ad1ed,66a626ef09d4e21e1a8894ec,673497ce65d2da4cc9e31912,2024-11-13_13h17.56.814,Tarea de género gramatical,2024.2.2,Win32,59.52380952,,,,,,,,,,,,,,,,,,,,,,,253.0231,254.206,l,1,[],[],[],[],[],[],[],0.4999,1,254.2061,254.7065,,,,,,52,MAS,AGR,150,lago,el,l,0.4999,,254.7073,254.7077,0.234166654,0.084166654,0,0,0,,0,92,92,51,1,,,,
,,,,,,7fdb880478424506208ad1ed,66a626ef09d4e21e1a8894ec,673497ce65d2da4cc9e31912,2024-11-13_13h17.56.814,Tarea de género gramatical,2024.2.2,Win32,59.52380952,,,,,,,,,,,,,,,,,,,,,,,254.7081,255.8402,a,1,[],[],[],[],[],[],[],0.455,1,255.8403,256.3404,,,,,,247,FEM,AGR,150,frase,la,a,0.455,,256.3404,256.3404,0.234166654,0.084166654,0,0,0,,0,93,93,246,1,,,,
,,,,,,7fdb880478424506208ad1ed,66a626ef09d4e21e1a8894ec,673497ce65d2da4cc9e31912,2024-11-13_13h17.56.814,Tarea de género gramatical,2024.2.2,Win32,59.52380952,,,,,,,,,,,,,,,,,,,,,,,256.3413,257.4405,l,0,[],[],[],[],[],[],[],0.4178,0,257.441,257.9409,,,,,,308,FEM,CON,150,semana,,a,0.4178,,257.941,257.941,0.234166654,0.084166654,0,0,0,,0,94,94,307,1,,,,
,,,,,,7fdb880478424506208ad1ed,66a626ef09d4e21e1a8894ec,673497ce65d2da4cc9e31912,2024-11-13_13h17.56.814,Tarea de género gramatical,2024.2.2,Win32,59.52380952,,,,,,,,,,,,,,,,,,,,,,,257.9419,259.1913,l,1,[],[],[],[],[],[],[],0.5751,1,259.1916,259.6915,,,,,,234,MAS,DIS,150,héroe,la,l,0.5751,,259.6915,259.6916,0.234166654,0.084166654,0,0,0,,0,95,95,233,1,,,,
,,,,,,7fdb880478424506208ad1ed,66a626ef09d4e21e1a8894ec,673497ce65d2da4cc9e31912,2024-11-13_13h17.56.814,Tarea de género gramatical,2024.2.2,Win32,59.52380952,,,,,,,,,,,,,,,,,,,,,,,259.6926,261.3256,l,1,[],[],[],[],[],[],[],0.9501,1,261.3256,261.8255,,,,,,82,MAS,AGR,150,tubo,el,l,0.9501,,261.8264,261.8268,0.234166654,0.084166654,0,0,0,,0,96,96,81,1,,,,
,,,,,,7fdb880478424506208ad1ed,66a626ef09d4e21e1a8894ec,673497ce65d2da4cc9e31912,2024-11-13_13h17.56.814,Tarea de género gramatical,2024.2.2,Win32,59.52380952,,,,,,,,,,,,,,,,,,,,,,,261.8273,262.9591,l,1,[],[],[],[],[],[],[],0.4543,1,262.9592,263.4592,,,,,,311,MAS,CON,150,camino,,l,0.4543,,263.4592,263.4593,0.234166654,0.084166654,0,0,0,,0,97,97,310,1,,,,
,,,,,,7fdb880478424506208ad1ed,66a626ef09d4e21e1a8894ec,673497ce65d2da4cc9e31912,2024-11-13_13h17.56.814,Tarea de género gramatical,2024.2.2,Win32,59.52380952,,,,,,,,,,,,,,,,,,,,,,,263.46,264.5596,l,1,[],[],[],[],[],[],[],0.4344,1,264.5597,265.0602,,,,,,186,MAS,DIS,150,error,la,l,0.4344,,265.0602,265.0602,0.234166654,0.084166654,0,0,0,,0,98,98,185,1,,,,
,,,,,,7fdb880478424506208ad1ed,66a626ef09d4e21e1a8894ec,673497ce65d2da4cc9e31912,2024-11-13_13h17.56.814,Tarea de género gramatical,2024.2.2,Win32,59.52380952,,,,,,,,,,,,,,,,,,,,,,,265.0612,266.3436,a,1,[],[],[],[],[],[],[],0.61,1,266.3438,266.8437,,,,,,68,FEM,CON,150,pata,,a,0.61,,266.8437,266.8438,0.234166654,0.084166654,0,0,0,,0,99,99,67,1,,,,
,,,,,,7fdb880478424506208ad1ed,66a626ef09d4e21e1a8894ec,673497ce65d2da4cc9e31912,2024-11-13_13h17.56.814,Tarea de género gramatical,2024.2.2,Win32,59.52380952,,,,,,,,,,,,,,,,,,,,,,,266.8445,268.0943,l,0,[],[],[],[],[],[],[],0.5891,0,268.095,268.5944,,,,,,116,FEM,CON,150,nube,,a,0.5891,,268.5944,268.5945,0.234166654,0.084166654,0,0,0,,0,100,100,115,1,,,,
,,,,,,7fdb880478424506208ad1ed,66a626ef09d4e21e1a8894ec,673497ce65d2da4cc9e31912,2024-11-13_13h17.56.814,Tarea de género gramatical,2024.2.2,Win32,59.52380952,,,,,,,,,,,,,,,,,,,,,,,268.5953,270.0782,a,1,[],[],[],[],[],[],[],0.8006,1,270.0787,270.5784,,,,,,273,FEM,DIS,150,tarta,el,a,0.8006,,270.5792,270.5795,0.234166654,0.084166654,0,0,0,,0,101,101,272,1,,,,
,,,,,,7fdb880478424506208ad1ed,66a626ef09d4e21e1a8894ec,673497ce65d2da4cc9e31912,2024-11-13_13h17.56.814,Tarea de género gramatical,2024.2.2,Win32,59.52380952,,,,,,,,,,,,,,,,,,,,,,,270.58,271.7954,l,0,[],[],[],[],[],[],[],0.5406,0,271.7957,272.2958,,,,,,367,FEM,AGR,150,teoría,la,a,0.5406,,272.2958,272.2958,0.234166654,0.084166654,0,0,0,,0,102,102,366,1,,,,
,,,,,,7fdb880478424506208ad1ed,66a626ef09d4e21e1a8894ec,673497ce65d2da4cc9e31912,2024-11-13_13h17.56.814,Tarea de género gramatical,2024.2.2,Win32,59.52380952,,,,,,,,,,,,,,,,,,,,,,,272.2965,273.5462,l,1,[],[],[],[],[],[],[],0.5843,1,273.5468,274.0462,,,,,,178,MAS,AGR,150,punto,el,l,0.5843,,274.0462,274.0463,0.234166654,0.084166654,0,0,0,,0,103,103,177,1,,,,
,,,,,,7fdb880478424506208ad1ed,66a626ef09d4e21e1a8894ec,673497ce65d2da4cc9e31912,2024-11-13_13h17.56.814,Tarea de género gramatical,2024.2.2,Win32,59.52380952,,,,,,,,,,,,,,,,,,,,,,,274.0469,275.1466,l,1,[],[],[],[],[],[],[],0.434,1,275.1466,275.647,,,,,,59,MAS,CON,150,lobo,,l,0.434,,275.6471,275.6472,0.234166654,0.084166654,0,0,0,,0,104,104,58,1,,,,
,,,,,,7fdb880478424506208ad1ed,66a626ef09d4e21e1a8894ec,673497ce65d2da4cc9e31912,2024-11-13_13h17.56.814,Tarea de género gramatical,2024.2.2,Win32,59.52380952,,,,,,,,,,,,,,,,,,,,,,,275.6482,276.9305,a,1,[],[],[],[],[],[],[],0.607,1,276.9305,277.4308,,,,,,188,FEM,CON,150,bomba,,a,0.607,,277.4315,277.4321,0.234166654,0.084166654,0,0,0,,0,105,105,187,1,,,,
,,,,,,7fdb880478424506208ad1ed,66a626ef09d4e21e1a8894ec,673497ce65d2da4cc9e31912,2024-11-13_13h17.56.814,Tarea de género gramatical,2024.2.2,Win32,59.52380952,,,,,,,,,,,,,,,,,,,,,,,277.4328,279.298,l,1,[],[],[],[],[],[],[],1.1839,1,279.298,279.7984,,,,,,394,MAS,AGR,150,examen,el,l,1.1839,,279.7985,279.7985,0.234166654,0.084166654,0,0,0,,0,106,106,393,1,,,,
,,,,,,7fdb880478424506208ad1ed,66a626ef09d4e21e1a8894ec,673497ce65d2da4cc9e31912,2024-11-13_13h17.56.814,Tarea de género gramatical,2024.2.2,Win32,59.52380952,,,,,,,,,,,,,,,,,,,,,,,279.7993,281.1653,a,0,[],[],[],[],[],[],[],0.691,0,281.1658,281.6656,,,,,,30,MAS,DIS,150,cine,la,l,0.691,,281.6657,281.6657,0.234166654,0.084166654,0,0,0,,0,107,107,29,1,,,,
,,,,,,7fdb880478424506208ad1ed,66a626ef09d4e21e1a8894ec,673497ce65d2da4cc9e31912,2024-11-13_13h17.56.814,Tarea de género gramatical,2024.2.2,Win32,59.52380952,,,,,,,,,,,,,,,,,,,,,,,281.6664,282.6158,l,0,[],[],[],[],[],[],[],0.2732,0,282.6158,283.1162,,,,,,122,FEM,CON,150,loca,,a,0.2732,,283.1162,283.1163,0.234166654,0.084166654,0,0,0,,0,108,108,121,1,,,,
,,,,,,7fdb880478424506208ad1ed,66a626ef09d4e21e1a8894ec,673497ce65d2da4cc9e31912,2024-11-13_13h17.56.814,Tarea de género gramatical,2024.2.2,Win32,59.52380952,,,,,,,,,,,,,,,,,,,,,,,283.1172,284.1497,l,1,[],[],[],[],[],[],[],0.3551,1,284.1503,284.6501,,,,,,268,MAS,AGR,150,truco,el,l,0.3551,,284.6502,284.6502,0.234166654,0.084166654,0,0,0,,0,109,109,267,1,,,,
,,,,,,7fdb880478424506208ad1ed,66a626ef09d4e21e1a8894ec,673497ce65d2da4cc9e31912,2024-11-13_13h17.56.814,Tarea de género gramatical,2024.2.2,Win32,59.52380952,,,,,,,,,,,,,,,,,,,,,,,284.651,285.7503,a,1,[],[],[],[],[],[],[],0.428,1,285.7503,286.2505,,,,,,357,FEM,DIS,150,lengua,el,a,0.428,,286.2515,286.2521,0.234166654,0.084166654,0,0,0,,0,110,110,356,1,,,,
,,,,,,7fdb880478424506208ad1ed,66a626ef09d4e21e1a8894ec,673497ce65d2da4cc9e31912,2024-11-13_13h17.56.814,Tarea de género gramatical,2024.2.2,Win32,59.52380952,,,,,,,,,,,,,,,,,,,,,,,286.2526,287.4341,l,1,[],[],[],[],[],[],[],0.5116,1,287.4341,287.9345,,,,,,269,MAS,CON,150,primo,,l,0.5116,,287.9345,287.9346,0.234166654,0.084166654,0,0,0,,0,111,111,268,1,,,,
,,,,,,7fdb880478424506208ad1ed,66a626ef09d4e21e1a8894ec,673497ce65d2da4cc9e31912,2024-11-13_13h17.56.814,Tarea de género gramatical,2024.2.2,Win32,59.52380952,,,,,,,,,,,,,,,,,,,,,,,287.9356,289.3682,a,0,[],[],[],[],[],[],[],0.7527,0,289.3686,289.8685,,,,,,138,MAS,DIS,150,luto,la,l,0.7527,,289.8686,289.8686,0.234166654,0.084166654,0,0,0,,0,112,112,137,1,,,,
,,,,,,7fdb880478424506208ad1ed,66a626ef09d4e21e1a8894ec,673497ce65d2da4cc9e31912,2024-11-13_13h17.56.814,Tarea de género gramatical,2024.2.2,Win32,59.52380952,,,,,,,,,,,,,,,,,,,,,,,289.8692,291.6523,a,1,[],[],[],[],[],[],[],1.1086,1,291.6529,292.1526,,,,,,289,FEM,AGR,150,tabla,la,a,1.1086,,292.1526,292.1527,0.234166654,0.084166654,0,0,0,,0,113,113,288,1,,,,
,,,,,,7fdb880478424506208ad1ed,66a626ef09d4e21e1a8894ec,673497ce65d2da4cc9e31912,2024-11-13_13h17.56.814,Tarea de género gramatical,2024.2.2,Win32,59.52380952,,,,,,,,,,,,,,,,,,,,,,,292.1536,293.3695,l,1,[],[],[],[],[],[],[],0.5343,1,293.3696,293.8699,,,,,,78,MAS,DIS,150,oído,la,l,0.5343,,293.8708,293.8711,0.234166654,0.084166654,0,0,0,,0,114,114,77,1,,,,
,,,,,,7fdb880478424506208ad1ed,66a626ef09d4e21e1a8894ec,673497ce65d2da4cc9e31912,2024-11-13_13h17.56.814,Tarea de género gramatical,2024.2.2,Win32,59.52380952,,,,,,,,,,,,,,,,,,,,,,,293.8715,294.9536,l,1,[],[],[],[],[],[],[],0.4007,1,294.9537,295.4535,,,,,,407,MAS,CON,150,jurado,,l,0.4007,,295.4536,295.4536,0.234166654,0.084166654,0,0,0,,0,115,115,406,1,,,,
,,,,,,7fdb880478424506208ad1ed,66a626ef09d4e21e1a8894ec,673497ce65d2da4cc9e31912,2024-11-13_13h17.56.814,Tarea de género gramatical,2024.2.2,Win32,59.52380952,,,,,,,,,,,,,,,,,,,,,,,295.4542,296.5207,l,1,[],[],[],[],[],[],[],0.3928,1,296.5207,297.0209,,,,,,353,MAS,CON,150,verano,,l,0.3928,,297.021,297.021,0.234166654,0.084166654,0,0,0,,0,116,116,352,1,,,,
,,,,,,7fdb880478424506208ad1ed,66a626ef09d4e21e1a8894ec,673497ce65d2da4cc9e31912,2024-11-13_13h17.56.814,Tarea de género gramatical,2024.2.2,Win32,59.52380952,,,,,,,,,,,,,,,,,,,,,,,297.0218,298.2212,a,1,[],[],[],[],[],[],[],0.5186,1,298.2213,298.7215,,,,,,223,FEM,AGR,150,plata,la,a,0.5186,,298.7215,298.7216,0.234166654,0.084166654,0,0,0,,0,117,117,222,1,,,,
,,,,,,7fdb880478424506208ad1ed,66a626ef09d4e21e1a8894ec,673497ce65d2da4cc9e31912,2024-11-13_13h17.56.814,Tarea de género gramatical,2024.2.2,Win32,59.52380952,,,,,,,,,,,,,,,,,,,,,,,298.7222,300.0885,a,1,[],[],[],[],[],[],[],0.684,1,300.0885,300.5889,,,,,,14,FEM,CON,150,cara,,a,0.684,,300.5889,300.5889,0.234166654,0.084166654,0,0,0,,0,118,118,13,1,,,,
,,,,,,7fdb880478424506208ad1ed,66a626ef09d4e21e1a8894ec,673497ce65d2da4cc9e31912,2024-11-13_13h17.56.814,Tarea de género gramatical,2024.2.2,Win32,59.52380952,,,,,,,,,,,,,,,,,,,,,,,300.59,301.8058,a,1,[],[],[],[],[],[],[],0.5316,1,301.8058,302.306,,,,,,67,FEM,AGR,150,miel,la,a,0.5316,,302.307,302.3074,0.234166654,0.084166654,0,0,0,,0,119,119,66,1,,,,
,,,,,,7fdb880478424506208ad1ed,66a626ef09d4e21e1a8894ec,673497ce65d2da4cc9e31912,2024-11-13_13h17.56.814,Tarea de género gramatical,2024.2.2,Win32,59.52380952,,,,,,,,,,,,,,,,,,,,,,,302.3078,304.2064,l,0,[],[],[],[],[],[],[],1.2199,0,304.2071,304.7066,,,,,,69,FEM,DIS,150,rata,el,a,1.2199,,304.7066,304.7067,0.234166654,0.084166654,0,0,0,,0,120,120,68,1,,,,
,,,,,,7fdb880478424506208ad1ed,66a626ef09d4e21e1a8894ec,673497ce65d2da4cc9e31912,2024-11-13_13h17.56.814,Tarea de género gramatical,2024.2.2,Win32,59.52380952,,,,,,,,,,,,,,,,,,,,,,,304.7073,305.8408,l,1,[],[],[],[],[],[],[],0.4674,1,305.8414,306.3406,,,,,,239,MAS,CON,150,reloj,,l,0.4674,,306.3406,306.3407,0.234166654,0.084166654,0,0,0,,0,121,121,238,1,,,,
,,,,,,7fdb880478424506208ad1ed,66a626ef09d4e21e1a8894ec,673497ce65d2da4cc9e31912,2024-11-13_13h17.56.814,Tarea de género gramatical,2024.2.2,Win32,59.52380952,,,,,,,,,,,,,,,,,,,,,,,306.3413,307.6244,l,1,[],[],[],[],[],[],[],0.6171,1,307.6245,308.1246,,,,,,262,MAS,AGR,150,video,el,l,0.6171,,308.1247,308.1247,0.234166654,0.084166654,0,0,0,,0,122,122,261,1,,,,
,,,,,,7fdb880478424506208ad1ed,66a626ef09d4e21e1a8894ec,673497ce65d2da4cc9e31912,2024-11-13_13h17.56.814,Tarea de género gramatical,2024.2.2,Win32,59.52380952,,,,,,,,,,,,,,,,,,,,,,,308.1254,309.4584,a,1,[],[],[],[],[],[],[],0.6503,1,309.4585,309.9588,,,,,,153,FEM,DIS,150,mujer,el,a,0.6503,,309.9597,309.96,0.234166654,0.084166654,0,0,0,,0,123,123,152,1,,,,
,,,,,,7fdb880478424506208ad1ed,66a626ef09d4e21e1a8894ec,673497ce65d2da4cc9e31912,2024-11-13_13h17.56.814,Tarea de género gramatical,2024.2.2,Win32,59.52380952,,,,,,,,,,,,,,,,,,,,,,,309.9603,311.2089,l,0,[],[],[],[],[],[],[],0.5672,0,311.2095,311.7093,,,,,,331,FEM,AGR,150,cárcel,la,a,0.5672,,311.7093,311.7093,0.234166654,0.084166654,0,0,0,,0,124,124,330,1,,,,
,,,,,,7fdb880478424506208ad1ed,66a626ef09d4e21e1a8894ec,673497ce65d2da4cc9e31912,2024-11-13_13h17.56.814,Tarea de género gramatical,2024.2.2,Win32,59.52380952,,,,,,,,,,,,,,,,,,,,,,,311.7101,313.1599,a,1,[],[],[],[],[],[],[],0.7719,1,313.1606,313.6599,,,,,,301,FEM,AGR,150,verdad,la,a,0.7719,,313.6599,313.6601,0.234166654,0.084166654,0,0,0,,0,125,125,300,1,,,,
,,,,,,7fdb880478424506208ad1ed,66a626ef09d4e21e1a8894ec,673497ce65d2da4cc9e31912,2024-11-13_13h17.56.814,Tarea de género gramatical,2024.2.2,Win32,59.52380952,,,,,,,,,,,,,,,,,,,,,,,313.6607,314.7267,l,1,[],[],[],[],[],[],[],0.3894,1,314.7268,315.2273,,,,,,150,MAS,DIS,150,mozo,la,l,0.3894,,315.2273,315.2274,0.234166654,0.084166654,0,0,0,,0,126,126,149,1,,,,
,,,,,,7fdb880478424506208ad1ed,66a626ef09d4e21e1a8894ec,673497ce65d2da4cc9e31912,2024-11-13_13h17.56.814,Tarea de género gramatical,2024.2.2,Win32,59.52380952,,,,,,,,,,,,,,,,,,,,,,,315.2282,316.5108,l,1,[],[],[],[],[],[],[],0.6001,1,316.5108,317.0109,,,,,,48,MAS,DIS,150,loco,la,l,0.6001,,317.011,317.0111,0.234166654,0.084166654,0,0,0,,0,127,127,47,1,,,,
,,,,,,7fdb880478424506208ad1ed,66a626ef09d4e21e1a8894ec,673497ce65d2da4cc9e31912,2024-11-13_13h17.56.814,Tarea de género gramatical,2024.2.2,Win32,59.52380952,,,,,,,,,,,,,,,,,,,,,,,317.012,318.278,l,1,[],[],[],[],[],[],[],0.5838,1,318.2781,318.7785,,,,,,72,MAS,DIS,150,hoyo,la,l,0.5838,,318.7793,318.7797,0.234166654,0.084166654,0,0,0,,0,128,128,71,1,,,,
,,,,,,7fdb880478424506208ad1ed,66a626ef09d4e21e1a8894ec,673497ce65d2da4cc9e31912,2024-11-13_13h17.56.814,Tarea de género gramatical,2024.2.2,Win32,59.52380952,,,,,,,,,,,,,,,,,,,,,,,318.78,320.1121,l,1,[],[],[],[],[],[],[],0.6516,1,320.1122,320.6122,,,,,,366,MAS,DIS,150,riesgo,la,l,0.6516,,320.6122,320.6123,0.234166654,0.084166654,0,0,0,,0,129,129,365,1,,,,
,,,,,,7fdb880478424506208ad1ed,66a626ef09d4e21e1a8894ec,673497ce65d2da4cc9e31912,2024-11-13_13h17.56.814,Tarea de género gramatical,2024.2.2,Win32,59.52380952,,,,,,,,,,,,,,,,,,,,,,,320.6129,321.7962,a,1,[],[],[],[],[],[],[],0.5175,1,321.7968,322.2964,,,,,,7,FEM,AGR,150,hora,la,a,0.5175,,322.2965,322.2966,0.234166654,0.084166654,0,0,0,,0,130,130,6,1,,,,
,,,,,,7fdb880478424506208ad1ed,66a626ef09d4e21e1a8894ec,673497ce65d2da4cc9e31912,2024-11-13_13h17.56.814,Tarea de género gramatical,2024.2.2,Win32,59.52380952,,,,,,,,,,,,,,,,,,,,,,,322.2975,323.4131,a,1,[],[],[],[],[],[],[],0.4352,1,323.4132,323.9136,,,,,,373,FEM,AGR,150,lluvia,la,a,0.4352,,323.9137,323.9137,0.234166654,0.084166654,0,0,0,,0,131,131,372,1,,,,
,,,,,,7fdb880478424506208ad1ed,66a626ef09d4e21e1a8894ec,673497ce65d2da4cc9e31912,2024-11-13_13h17.56.814,Tarea de género gramatical,2024.2.2,Win32,59.52380952,,,,,,,,,,,,,,,,,,,,,,,323.9144,325.2638,l,1,[],[],[],[],[],[],[],0.6672,1,325.2638,325.764,,,,,,119,MAS,CON,150,mito,,l,0.6672,,325.7648,325.7651,0.234166654,0.084166654,0,0,0,,0,132,132,118,1,,,,
,,,,,,7fdb880478424506208ad1ed,66a626ef09d4e21e1a8894ec,673497ce65d2da4cc9e31912,2024-11-13_13h17.56.814,Tarea de género gramatical,2024.2.2,Win32,59.52380952,,,,,,,,,,,,,,,,,,,,,,,325.7655,327.1811,l,0,[],[],[],[],[],[],[],0.7376,0,327.1814,327.6816,,,,,,56,FEM,CON,150,bola,,a,0.7376,,327.6816,327.6817,0.234166654,0.084166654,0,0,0,,0,133,133,55,1,,,,
,,,,,,7fdb880478424506208ad1ed,66a626ef09d4e21e1a8894ec,673497ce65d2da4cc9e31912,2024-11-13_13h17.56.814,Tarea de género gramatical,2024.2.2,Win32,59.52380952,,,,,,,,,,,,,,,,,,,,,,,327.6824,329.0318,a,1,[],[],[],[],[],[],[],0.6676,1,329.0323,329.5321,,,,,,79,FEM,AGR,150,mina,la,a,0.6676,,329.5321,329.5322,0.234166654,0.084166654,0,0,0,,0,134,134,78,1,,,,
,,,,,,7fdb880478424506208ad1ed,66a626ef09d4e21e1a8894ec,673497ce65d2da4cc9e31912,2024-11-13_13h17.56.814,Tarea de género gramatical,2024.2.2,Win32,59.52380952,,,,,,,,,,,,,,,,,,,,,,,329.5329,330.7991,a,1,[],[],[],[],[],[],[],0.5836,1,330.7992,331.2991,,,,,,183,FEM,DIS,150,llave,el,a,0.5836,,331.2991,331.2992,0.234166654,0.084166654,0,0,0,,0,135,135,182,1,,,,
,,,,,,7fdb880478424506208ad1ed,66a626ef09d4e21e1a8894ec,673497ce65d2da4cc9e31912,2024-11-13_13h17.56.814,Tarea de género gramatical,2024.2.2,Win32,59.52380952,,,,,,,,,,,,,,,,,,,,,,,331.2998,332.783,a,1,[],[],[],[],[],[],[],0.8186,1,332.7831,333.2833,,,,,,139,FEM,AGR,150,pipa,la,a,0.8186,,333.2833,333.2834,0.234166654,0.084166654,0,0,0,,0,136,136,138,1,,,,
,,,,,,7fdb880478424506208ad1ed,66a626ef09d4e21e1a8894ec,673497ce65d2da4cc9e31912,2024-11-13_13h17.56.814,Tarea de género gramatical,2024.2.2,Win32,59.52380952,,,,,,,,,,,,,,,,,,,,,,,333.2841,334.517,l,1,[],[],[],[],[],[],[],0.556,1,334.517,335.0173,,,,,,304,MAS,AGR,150,tiempo,el,l,0.556,,335.0181,335.0184,0.234166654,0.084166654,0,0,0,,0,137,137,303,1,,,,
,,,,,,7fdb880478424506208ad1ed,66a626ef09d4e21e1a8894ec,673497ce65d2da4cc9e31912,2024-11-13_13h17.56.814,Tarea de género gramatical,2024.2.2,Win32,59.52380952,,,,,,,,,,,,,,,,,,,,,,,335.0188,336.0676,l,1,[],[],[],[],[],[],[],0.3672,1,336.0676,336.568,,,,,,408,MAS,DIS,150,cheque,la,l,0.3672,,336.568,336.5681,0.234166654,0.084166654,0,0,0,,0,138,138,407,1,,,,
,,,,,,7fdb880478424506208ad1ed,66a626ef09d4e21e1a8894ec,673497ce65d2da4cc9e31912,2024-11-13_13h17.56.814,Tarea de género gramatical,2024.2.2,Win32,59.52380952,,,,,,,,,,,,,,,,,,,,,,,336.5688,337.7848,a,1,[],[],[],[],[],[],[],0.5342,1,337.7848,338.285,,,,,,344,FEM,CON,150,pareja,,a,0.5342,,338.285,338.2852,0.234166654,0.084166654,0,0,0,,0,139,139,343,1,,,,
,,,,,,7fdb880478424506208ad1ed,66a626ef09d4e21e1a8894ec,673497ce65d2da4cc9e31912,2024-11-13_13h17.56.814,Tarea de género gramatical,2024.2.2,Win32,59.52380952,,,,,,,,,,,,,,,,,,,,,,,338.2861,339.5521,a,1,[],[],[],[],[],[],[],0.5842,1,339.5522,340.0525,,,,,,241,FEM,AGR,150,pasta,la,a,0.5842,,340.0525,340.0526,0.234166654,0.084166654,0,0,0,,0,140,140,240,1,,,,
,,,,,,7fdb880478424506208ad1ed,66a626ef09d4e21e1a8894ec,673497ce65d2da4cc9e31912,2024-11-13_13h17.56.814,Tarea de género gramatical,2024.2.2,Win32,59.52380952,,,,,,,,,,,,,,,,,,,,,,,340.0534,341.5528,a,1,[],[],[],[],[],[],[],0.8182,1,341.5529,342.0531,,,,,,170,FEM,CON,150,carta,,a,0.8182,,342.0539,342.0542,0.234166654,0.084166654,0,0,0,,0,141,141,169,1,,,,
,,,,,,7fdb880478424506208ad1ed,66a626ef09d4e21e1a8894ec,673497ce65d2da4cc9e31912,2024-11-13_13h17.56.814,Tarea de género gramatical,2024.2.2,Win32,59.52380952,,,,,,,,,,,,,,,,,,,,,,,342.0546,343.1535,a,0,[],[],[],[],[],[],[],0.4181,0,343.154,343.6535,,,,,,276,MAS,DIS,150,ritmo,la,l,0.4181,,343.6535,343.6535,0.234166654,0.084166654,0,0,0,,0,142,142,275,1,,,,
,,,,,,7fdb880478424506208ad1ed,66a626ef09d4e21e1a8894ec,673497ce65d2da4cc9e31912,2024-11-13_13h17.56.814,Tarea de género gramatical,2024.2.2,Win32,59.52380952,,,,,,,,,,,,,,,,,,,,,,,343.6545,344.8873,l,1,[],[],[],[],[],[],[],0.5547,1,344.8878,345.3875,,,,,,77,MAS,CON,150,pico,,l,0.5547,,345.3875,345.3876,0.234166654,0.084166654,0,0,0,,0,143,143,76,1,,,,
,,,,,,7fdb880478424506208ad1ed,66a626ef09d4e21e1a8894ec,673497ce65d2da4cc9e31912,2024-11-13_13h17.56.814,Tarea de género gramatical,2024.2.2,Win32,59.52380952,,,,,,,,,,,,,,,,,,,,,,,345.3884,346.4377,l,1,[],[],[],[],[],[],[],0.3677,1,346.4379,346.9379,,,,,,130,MAS,AGR,150,yate,el,l,0.3677,,346.9379,346.9379,0.234166654,0.084166654,0,0,0,,0,144,144,129,1,,,,
,,,,,,7fdb880478424506208ad1ed,66a626ef09d4e21e1a8894ec,673497ce65d2da4cc9e31912,2024-11-13_13h17.56.814,Tarea de género gramatical,2024.2.2,Win32,59.52380952,,,,,,,,,,,,,,,,,,,,,,,346.9392,348.0048,l,1,[],[],[],[],[],[],[],0.3849,1,348.005,348.5051,,,,,,402,MAS,DIS,150,ladrón,la,l,0.3849,,348.5052,348.5052,0.234166654,0.084166654,0,0,0,,0,145,145,401,1,,,,
,,,,,,7fdb880478424506208ad1ed,66a626ef09d4e21e1a8894ec,673497ce65d2da4cc9e31912,2024-11-13_13h17.56.814,Tarea de género gramatical,2024.2.2,Win32,59.52380952,,,,,,,,,,,,,,,,,,,,,,,348.5061,349.7388,a,1,[],[],[],[],[],[],[],0.5518,1,349.7389,350.2391,,,,,,31,FEM,AGR,150,edad,la,a,0.5518,,350.2399,350.2403,0.234166654,0.084166654,0,0,0,,0,146,146,30,1,,,,
,,,,,,7fdb880478424506208ad1ed,66a626ef09d4e21e1a8894ec,673497ce65d2da4cc9e31912,2024-11-13_13h17.56.814,Tarea de género gramatical,2024.2.2,Win32,59.52380952,,,,,,,,,,,,,,,,,,,,,,,350.2406,351.4564,l,0,[],[],[],[],[],[],[],0.5341,0,351.457,351.9566,,,,,,440,FEM,CON,150,patada,,a,0.5341,,351.9566,351.9567,0.234166654,0.084166654,0,0,0,,0,147,147,439,1,,,,
,,,,,,7fdb880478424506208ad1ed,66a626ef09d4e21e1a8894ec,673497ce65d2da4cc9e31912,2024-11-13_13h17.56.814,Tarea de género gramatical,2024.2.2,Win32,59.52380952,,,,,,,,,,,,,,,,,,,,,,,351.9575,353.0734,l,1,[],[],[],[],[],[],[],0.4344,1,353.0739,353.5738,,,,,,35,MAS,CON,150,taxi,,l,0.4344,,353.5738,353.5738,0.234166654,0.084166654,0,0,0,,0,148,148,34,1,,,,
,,,,,,7fdb880478424506208ad1ed,66a626ef09d4e21e1a8894ec,673497ce65d2da4cc9e31912,2024-11-13_13h17.56.814,Tarea de género gramatical,2024.2.2,Win32,59.52380952,,,,,,,,,,,,,,,,,,,,,,,353.5745,354.6905,l,1,[],[],[],[],[],[],[],0.4377,1,354.6905,355.1908,,,,,,418,MAS,AGR,150,pájaro,el,l,0.4377,,355.1908,355.191,0.234166654,0.084166654,0,0,0,,0,149,149,417,1,,,,
,,,,,,7fdb880478424506208ad1ed,66a626ef09d4e21e1a8894ec,673497ce65d2da4cc9e31912,2024-11-13_13h17.56.814,Tarea de género gramatical,2024.2.2,Win32,59.52380952,,,,,,,,,,,,,,,,,,,,,,,355.1917,356.508,a,1,[],[],[],[],[],[],[],0.6301,1,356.508,357.0081,,,,,,15,FEM,DIS,150,cama,el,a,0.6301,,357.009,360.2092,0.234166654,0.084166654,0,0,0,space,0,150,150,14,1,3.184,,,
,,,,,,7fdb880478424506208ad1ed,66a626ef09d4e21e1a8894ec,673497ce65d2da4cc9e31912,2024-11-13_13h17.56.814,Tarea de género gramatical,2024.2.2,Win32,59.52380952,,,,,,,,,,,,,,,,,,,,,,,360.2099,361.8599,a,1,[],[],[],[],[],[],[],0.9674,1,361.86,362.3601,,,,,,320,FEM,CON,150,fiesta,,a,0.9674,,362.3601,362.3602,0.234166654,0.084166654,0,0,0,,0,151,151,319,1,,,,
,,,,,,7fdb880478424506208ad1ed,66a626ef09d4e21e1a8894ec,673497ce65d2da4cc9e31912,2024-11-13_13h17.56.814,Tarea de género gramatical,2024.2.2,Win32,59.52380952,,,,,,,,,,,,,,,,,,,,,,,362.361,363.4936,l,1,[],[],[],[],[],[],[],0.4463,1,363.4936,363.994,,,,,,113,MAS,CON,150,toro,,l,0.4463,,363.994,363.9941,0.234166654,0.084166654,0,0,0,,0,152,152,112,1,,,,
,,,,,,7fdb880478424506208ad1ed,66a626ef09d4e21e1a8894ec,673497ce65d2da4cc9e31912,2024-11-13_13h17.56.814,Tarea de género gramatical,2024.2.2,Win32,59.52380952,,,,,,,,,,,,,,,,,,,,,,,363.9949,365.2942,a,1,[],[],[],[],[],[],[],0.6212,1,365.2943,365.7945,,,,,,350,FEM,CON,150,imagen,,a,0.6212,,365.7945,365.7946,0.234166654,0.084166654,0,0,0,,0,153,153,349,1,,,,
,,,,,,7fdb880478424506208ad1ed,66a626ef09d4e21e1a8894ec,673497ce65d2da4cc9e31912,2024-11-13_13h17.56.814,Tarea de género gramatical,2024.2.2,Win32,59.52380952,,,,,,,,,,,,,,,,,,,,,,,365.7953,366.9615,l,1,[],[],[],[],[],[],[],0.4818,1,366.9615,367.4617,,,,,,382,MAS,AGR,150,teatro,el,l,0.4818,,367.4617,367.4618,0.234166654,0.084166654,0,0,0,,0,154,154,381,1,,,,
,,,,,,7fdb880478424506208ad1ed,66a626ef09d4e21e1a8894ec,673497ce65d2da4cc9e31912,2024-11-13_13h17.56.814,Tarea de género gramatical,2024.2.2,Win32,59.52380952,,,,,,,,,,,,,,,,,,,,,,,367.4624,368.5786,l,1,[],[],[],[],[],[],[],0.4421,1,368.5787,369.079,,,,,,58,MAS,AGR,150,mono,el,l,0.4421,,369.0798,369.0802,0.234166654,0.084166654,0,0,0,,0,155,155,57,1,,,,
,,,,,,7fdb880478424506208ad1ed,66a626ef09d4e21e1a8894ec,673497ce65d2da4cc9e31912,2024-11-13_13h17.56.814,Tarea de género gramatical,2024.2.2,Win32,59.52380952,,,,,,,,,,,,,,,,,,,,,,,369.0804,370.1792,l,1,[],[],[],[],[],[],[],0.4212,1,370.1792,370.6796,,,,,,401,MAS,CON,150,abrigo,,l,0.4212,,370.6796,370.6797,0.234166654,0.084166654,0,0,0,,0,156,156,400,1,,,,
,,,,,,7fdb880478424506208ad1ed,66a626ef09d4e21e1a8894ec,673497ce65d2da4cc9e31912,2024-11-13_13h17.56.814,Tarea de género gramatical,2024.2.2,Win32,59.52380952,,,,,,,,,,,,,,,,,,,,,,,370.6805,371.8465,l,1,[],[],[],[],[],[],[],0.4836,1,371.8466,372.3467,,,,,,400,MAS,AGR,150,barrio,el,l,0.4836,,372.3467,372.3467,0.234166654,0.084166654,0,0,0,,0,157,157,399,1,,,,
,,,,,,7fdb880478424506208ad1ed,66a626ef09d4e21e1a8894ec,673497ce65d2da4cc9e31912,2024-11-13_13h17.56.814,Tarea de género gramatical,2024.2.2,Win32,59.52380952,,,,,,,,,,,,,,,,,,,,,,,372.3475,373.347,l,1,[],[],[],[],[],[],[],0.3172,1,373.3471,373.8474,,,,,,322,MAS,AGR,150,minuto,el,l,0.3172,,373.8474,373.8475,0.234166654,0.084166654,0,0,0,,0,158,158,321,1,,,,
,,,,,,7fdb880478424506208ad1ed,66a626ef09d4e21e1a8894ec,673497ce65d2da4cc9e31912,2024-11-13_13h17.56.814,Tarea de género gramatical,2024.2.2,Win32,59.52380952,,,,,,,,,,,,,,,,,,,,,,,373.8483,375.1143,l,1,[],[],[],[],[],[],[],0.5849,1,375.1144,375.6147,,,,,,142,MAS,AGR,150,lodo,el,l,0.5849,,375.6155,375.6158,0.234166654,0.084166654,0,0,0,,0,159,159,141,1,,,,
,,,,,,7fdb880478424506208ad1ed,66a626ef09d4e21e1a8894ec,673497ce65d2da4cc9e31912,2024-11-13_13h17.56.814,Tarea de género gramatical,2024.2.2,Win32,59.52380952,,,,,,,,,,,,,,,,,,,,,,,375.6163,376.6981,l,1,[],[],[],[],[],[],[],0.4018,1,376.6982,377.1986,,,,,,190,MAS,AGR,150,campo,el,l,0.4018,,377.1987,377.1987,0.234166654,0.084166654,0,0,0,,0,160,160,189,1,,,,
,,,,,,7fdb880478424506208ad1ed,66a626ef09d4e21e1a8894ec,673497ce65d2da4cc9e31912,2024-11-13_13h17.56.814,Tarea de género gramatical,2024.2.2,Win32,59.52380952,,,,,,,,,,,,,,,,,,,,,,,377.1998,378.3988,a,1,[],[],[],[],[],[],[],0.5279,1,378.3988,378.899,,,,,,80,FEM,CON,150,vaca,,a,0.5279,,378.8991,378.8991,0.234166654,0.084166654,0,0,0,,0,161,161,79,1,,,,
,,,,,,7fdb880478424506208ad1ed,66a626ef09d4e21e1a8894ec,673497ce65d2da4cc9e31912,2024-11-13_13h17.56.814,Tarea de género gramatical,2024.2.2,Win32,59.52380952,,,,,,,,,,,,,,,,,,,,,,,378.8998,379.9993,l,1,[],[],[],[],[],[],[],0.422,1,379.9994,380.4995,,,,,,46,MAS,AGR,150,odio,el,l,0.422,,380.4995,380.4995,0.234166654,0.084166654,0,0,0,,0,162,162,45,1,,,,
,,,,,,7fdb880478424506208ad1ed,66a626ef09d4e21e1a8894ec,673497ce65d2da4cc9e31912,2024-11-13_13h17.56.814,Tarea de género gramatical,2024.2.2,Win32,59.52380952,,,,,,,,,,,,,,,,,,,,,,,380.5004,382.0835,a,1,[],[],[],[],[],[],[],0.9006,1,382.0836,382.5835,,,,,,356,FEM,CON,150,piedra,,a,0.9006,,382.5835,382.5836,0.234166654,0.084166654,0,0,0,,0,163,163,355,1,,,,
,,,,,,7fdb880478424506208ad1ed,66a626ef09d4e21e1a8894ec,673497ce65d2da4cc9e31912,2024-11-13_13h17.56.814,Tarea de género gramatical,2024.2.2,Win32,59.52380952,,,,,,,,,,,,,,,,,,,,,,,382.5844,384.0341,a,1,[],[],[],[],[],[],[],0.7809,1,384.0343,384.5343,,,,,,169,FEM,AGR,150,vista,la,a,0.7809,,384.5349,384.5354,0.234166654,0.084166654,0,0,0,,0,164,164,168,1,,,,
,,,,,,7fdb880478424506208ad1ed,66a626ef09d4e21e1a8894ec,673497ce65d2da4cc9e31912,2024-11-13_13h17.56.814,Tarea de género gramatical,2024.2.2,Win32,59.52380952,,,,,,,,,,,,,,,,,,,,,,,384.5359,385.8513,a,1,[],[],[],[],[],[],[],0.6337,1,385.8514,386.3515,,,,,,417,FEM,DIS,150,cabaña,el,a,0.6337,,386.3516,386.3516,0.234166654,0.084166654,0,0,0,,0,165,165,416,1,,,,
,,,,,,7fdb880478424506208ad1ed,66a626ef09d4e21e1a8894ec,673497ce65d2da4cc9e31912,2024-11-13_13h17.56.814,Tarea de género gramatical,2024.2.2,Win32,59.52380952,,,,,,,,,,,,,,,,,,,,,,,386.3523,387.5687,a,1,[],[],[],[],[],[],[],0.5343,1,387.5687,388.069,,,,,,349,FEM,AGR,150,prensa,la,a,0.5343,,388.069,388.0691,0.234166654,0.084166654,0,0,0,,0,166,166,348,1,,,,
,,,,,,7fdb880478424506208ad1ed,66a626ef09d4e21e1a8894ec,673497ce65d2da4cc9e31912,2024-11-13_13h17.56.814,Tarea de género gramatical,2024.2.2,Win32,59.52380952,,,,,,,,,,,,,,,,,,,,,,,388.0699,389.686,l,1,[],[],[],[],[],[],[],0.939,1,389.686,390.1862,,,,,,144,MAS,DIS,150,amor,la,l,0.939,,390.1862,390.1863,0.234166654,0.084166654,0,0,0,,0,167,167,143,1,,,,
,,,,,,7fdb880478424506208ad1ed,66a626ef09d4e21e1a8894ec,673497ce65d2da4cc9e31912,2024-11-13_13h17.56.814,Tarea de género gramatical,2024.2.2,Win32,59.52380952,,,,,,,,,,,,,,,,,,,,,,,390.1873,391.3368,l,1,[],[],[],[],[],[],[],0.4679,1,391.3368,391.8368,,,,,,318,MAS,DIS,150,pueblo,la,l,0.4679,,391.8375,391.8379,0.234166654,0.084166654,0,0,0,,0,168,168,317,1,,,,
,,,,,,7fdb880478424506208ad1ed,66a626ef09d4e21e1a8894ec,673497ce65d2da4cc9e31912,2024-11-13_13h17.56.814,Tarea de género gramatical,2024.2.2,Win32,59.52380952,,,,,,,,,,,,,,,,,,,,,,,391.8383,393.1871,a,1,[],[],[],[],[],[],[],0.6632,1,393.1872,393.6876,,,,,,398,FEM,CON,150,hierba,,a,0.6632,,393.6876,393.6876,0.234166654,0.084166654,0,0,0,,0,169,169,397,1,,,,
,,,,,,7fdb880478424506208ad1ed,66a626ef09d4e21e1a8894ec,673497ce65d2da4cc9e31912,2024-11-13_13h17.56.814,Tarea de género gramatical,2024.2.2,Win32,59.52380952,,,,,,,,,,,,,,,,,,,,,,,393.6886,395.2046,a,1,[],[],[],[],[],[],[],0.8379,1,395.2047,395.7047,,,,,,428,FEM,CON,150,jugada,,a,0.8379,,395.7047,395.7048,0.234166654,0.084166654,0,0,0,,0,170,170,427,1,,,,
,,,,,,7fdb880478424506208ad1ed,66a626ef09d4e21e1a8894ec,673497ce65d2da4cc9e31912,2024-11-13_13h17.56.814,Tarea de género gramatical,2024.2.2,Win32,59.52380952,,,,,,,,,,,,,,,,,,,,,,,395.7056,397.0885,l,1,[],[],[],[],[],[],[],0.7006,1,397.0886,397.5888,,,,,,420,MAS,DIS,150,helado,la,l,0.7006,,397.5888,397.5888,0.234166654,0.084166654,0,0,0,,0,171,171,419,1,,,,
,,,,,,7fdb880478424506208ad1ed,66a626ef09d4e21e1a8894ec,673497ce65d2da4cc9e31912,2024-11-13_13h17.56.814,Tarea de género gramatical,2024.2.2,Win32,59.52380952,,,,,,,,,,,,,,,,,,,,,,,397.5893,399.0391,l,0,[],[],[],[],[],[],[],0.7897,0,399.0396,399.5393,,,,,,135,FEM,DIS,150,raíz,el,a,0.7897,,399.5394,399.5394,0.234166654,0.084166654,0,0,0,,0,172,172,134,1,,,,
,,,,,,7fdb880478424506208ad1ed,66a626ef09d4e21e1a8894ec,673497ce65d2da4cc9e31912,2024-11-13_13h17.56.814,Tarea de género gramatical,2024.2.2,Win32,59.52380952,,,,,,,,,,,,,,,,,,,,,,,399.5402,401.3731,a,1,[],[],[],[],[],[],[],1.1672,1,401.3736,401.8739,,,,,,337,FEM,AGR,150,escena,la,a,1.1672,,401.8746,401.875,0.234166654,0.084166654,0,0,0,,0,173,173,336,1,,,,
,,,,,,7fdb880478424506208ad1ed,66a626ef09d4e21e1a8894ec,673497ce65d2da4cc9e31912,2024-11-13_13h17.56.814,Tarea de género gramatical,2024.2.2,Win32,59.52380952,,,,,,,,,,,,,,,,,,,,,,,401.8754,402.9906,l,1,[],[],[],[],[],[],[],0.4367,1,402.9907,403.4908,,,,,,191,MAS,CON,150,dolor,,l,0.4367,,403.4909,403.4909,0.234166654,0.084166654,0,0,0,,0,174,174,190,1,,,,
,,,,,,7fdb880478424506208ad1ed,66a626ef09d4e21e1a8894ec,673497ce65d2da4cc9e31912,2024-11-13_13h17.56.814,Tarea de género gramatical,2024.2.2,Win32,59.52380952,,,,,,,,,,,,,,,,,,,,,,,403.4918,404.641,l,1,[],[],[],[],[],[],[],0.4675,1,404.6411,405.1412,,,,,,90,MAS,DIS,150,león,la,l,0.4675,,405.1412,405.1413,0.234166654,0.084166654,0,0,0,,0,175,175,89,1,,,,
,,,,,,7fdb880478424506208ad1ed,66a626ef09d4e21e1a8894ec,673497ce65d2da4cc9e31912,2024-11-13_13h17.56.814,Tarea de género gramatical,2024.2.2,Win32,59.52380952,,,,,,,,,,,,,,,,,,,,,,,405.1419,406.2751,l,1,[],[],[],[],[],[],[],0.451,1,406.2751,406.7753,,,,,,185,MAS,CON,150,sueño,,l,0.451,,406.7753,406.7754,0.234166654,0.084166654,0,0,0,,0,176,176,184,1,,,,
,,,,,,7fdb880478424506208ad1ed,66a626ef09d4e21e1a8894ec,673497ce65d2da4cc9e31912,2024-11-13_13h17.56.814,Tarea de género gramatical,2024.2.2,Win32,59.52380952,,,,,,,,,,,,,,,,,,,,,,,406.7762,408.1424,a,1,[],[],[],[],[],[],[],0.6844,1,408.1425,408.6427,,,,,,278,FEM,CON,150,presa,,a,0.6844,,408.6435,408.6439,0.234166654,0.084166654,0,0,0,,0,177,177,277,1,,,,
,,,,,,7fdb880478424506208ad1ed,66a626ef09d4e21e1a8894ec,673497ce65d2da4cc9e31912,2024-11-13_13h17.56.814,Tarea de género gramatical,2024.2.2,Win32,59.52380952,,,,,,,,,,,,,,,,,,,,,,,408.6443,409.9428,a,1,[],[],[],[],[],[],[],0.6179,1,409.9429,410.4433,,,,,,61,FEM,AGR,150,ruta,la,a,0.6179,,410.4433,410.4434,0.234166654,0.084166654,0,0,0,,0,178,178,60,1,,,,
,,,,,,7fdb880478424506208ad1ed,66a626ef09d4e21e1a8894ec,673497ce65d2da4cc9e31912,2024-11-13_13h17.56.814,Tarea de género gramatical,2024.2.2,Win32,59.52380952,,,,,,,,,,,,,,,,,,,,,,,410.4443,411.777,a,1,[],[],[],[],[],[],[],0.651,1,411.777,412.2773,,,,,,20,FEM,CON,150,ropa,,a,0.651,,412.2773,412.2775,0.234166654,0.084166654,0,0,0,,0,179,179,19,1,,,,
,,,,,,7fdb880478424506208ad1ed,66a626ef09d4e21e1a8894ec,673497ce65d2da4cc9e31912,2024-11-13_13h17.56.814,Tarea de género gramatical,2024.2.2,Win32,59.52380952,,,,,,,,,,,,,,,,,,,,,,,412.2783,413.6942,l,1,[],[],[],[],[],[],[],0.7339,1,413.6942,414.1947,,,,,,354,MAS,DIS,150,camión,la,l,0.7339,,414.1947,414.1947,0.234166654,0.084166654,0,0,0,,0,180,180,353,1,,,,
,,,,,,7fdb880478424506208ad1ed,66a626ef09d4e21e1a8894ec,673497ce65d2da4cc9e31912,2024-11-13_13h17.56.814,Tarea de género gramatical,2024.2.2,Win32,59.52380952,,,,,,,,,,,,,,,,,,,,,,,414.1955,415.3451,l,1,[],[],[],[],[],[],[],0.4718,1,415.3451,415.8451,,,,,,348,MAS,DIS,150,anillo,la,l,0.4718,,415.8451,415.8451,0.234166654,0.084166654,0,0,0,,0,181,181,347,1,,,,
,,,,,,7fdb880478424506208ad1ed,66a626ef09d4e21e1a8894ec,673497ce65d2da4cc9e31912,2024-11-13_13h17.56.814,Tarea de género gramatical,2024.2.2,Win32,59.52380952,,,,,,,,,,,,,,,,,,,,,,,415.8459,417.1622,l,1,[],[],[],[],[],[],[],0.6338,1,417.1623,417.6625,,,,,,328,MAS,AGR,150,asunto,el,l,0.6338,,417.6635,417.6639,0.234166654,0.084166654,0,0,0,,0,182,182,327,1,,,,
,,,,,,7fdb880478424506208ad1ed,66a626ef09d4e21e1a8894ec,673497ce65d2da4cc9e31912,2024-11-13_13h17.56.814,Tarea de género gramatical,2024.2.2,Win32,59.52380952,,,,,,,,,,,,,,,,,,,,,,,417.6642,418.8293,l,1,[],[],[],[],[],[],[],0.4888,1,418.8294,419.3296,,,,,,184,MAS,AGR,150,cielo,el,l,0.4888,,419.3296,419.3296,0.234166654,0.084166654,0,0,0,,0,183,183,183,1,,,,
,,,,,,7fdb880478424506208ad1ed,66a626ef09d4e21e1a8894ec,673497ce65d2da4cc9e31912,2024-11-13_13h17.56.814,Tarea de género gramatical,2024.2.2,Win32,59.52380952,,,,,,,,,,,,,,,,,,,,,,,419.3306,420.8633,l,1,[],[],[],[],[],[],[],0.8537,1,420.8634,421.3636,,,,,,424,MAS,AGR,150,rastro,el,l,0.8537,,421.3637,421.3637,0.234166654,0.084166654,0,0,0,,0,184,184,423,1,,,,
,,,,,,7fdb880478424506208ad1ed,66a626ef09d4e21e1a8894ec,673497ce65d2da4cc9e31912,2024-11-13_13h17.56.814,Tarea de género gramatical,2024.2.2,Win32,59.52380952,,,,,,,,,,,,,,,,,,,,,,,421.3644,422.6973,a,0,[],[],[],[],[],[],[],0.6503,0,422.6979,423.1977,,,,,,95,MAS,CON,150,tomo,,l,0.6503,,423.1977,423.1978,0.234166654,0.084166654,0,0,0,,0,185,185,94,1,,,,
,,,,,,7fdb880478424506208ad1ed,66a626ef09d4e21e1a8894ec,673497ce65d2da4cc9e31912,2024-11-13_13h17.56.814,Tarea de género gramatical,2024.2.2,Win32,59.52380952,,,,,,,,,,,,,,,,,,,,,,,423.1985,424.6313,a,1,[],[],[],[],[],[],[],0.751,1,424.6318,425.1317,,,,,,63,FEM,DIS,150,fila,el,a,0.751,,425.1326,425.1329,0.234166654,0.084166654,0,0,0,,0,186,186,62,1,,,,
,,,,,,7fdb880478424506208ad1ed,66a626ef09d4e21e1a8894ec,673497ce65d2da4cc9e31912,2024-11-13_13h17.56.814,Tarea de género gramatical,2024.2.2,Win32,59.52380952,,,,,,,,,,,,,,,,,,,,,,,425.1333,426.4986,l,0,[],[],[],[],[],[],[],0.6941,0,426.4991,426.999,,,,,,19,FEM,AGR,150,niña,la,a,0.6941,,426.9991,426.9991,0.234166654,0.084166654,0,0,0,,0,187,187,18,1,,,,
,,,,,,7fdb880478424506208ad1ed,66a626ef09d4e21e1a8894ec,673497ce65d2da4cc9e31912,2024-11-13_13h17.56.814,Tarea de género gramatical,2024.2.2,Win32,59.52380952,,,,,,,,,,,,,,,,,,,,,,,426.9999,428.4826,a,1,[],[],[],[],[],[],[],0.8049,1,428.483,428.9829,,,,,,229,FEM,AGR,150,celda,la,a,0.8049,,428.9829,428.983,0.234166654,0.084166654,0,0,0,,0,188,188,228,1,,,,
,,,,,,7fdb880478424506208ad1ed,66a626ef09d4e21e1a8894ec,673497ce65d2da4cc9e31912,2024-11-13_13h17.56.814,Tarea de género gramatical,2024.2.2,Win32,59.52380952,,,,,,,,,,,,,,,,,,,,,,,428.9837,430.2332,a,1,[],[],[],[],[],[],[],0.5884,1,430.2333,430.7335,,,,,,157,FEM,AGR,150,madre,la,a,0.5884,,430.7335,430.7336,0.234166654,0.084166654,0,0,0,,0,189,189,156,1,,,,
,,,,,,7fdb880478424506208ad1ed,66a626ef09d4e21e1a8894ec,673497ce65d2da4cc9e31912,2024-11-13_13h17.56.814,Tarea de género gramatical,2024.2.2,Win32,59.52380952,,,,,,,,,,,,,,,,,,,,,,,430.7344,431.8671,l,1,[],[],[],[],[],[],[],0.4531,1,431.8672,432.3673,,,,,,419,MAS,CON,150,cuento,,l,0.4531,,432.3673,432.3675,0.234166654,0.084166654,0,0,0,,0,190,190,418,1,,,,
,,,,,,7fdb880478424506208ad1ed,66a626ef09d4e21e1a8894ec,673497ce65d2da4cc9e31912,2024-11-13_13h17.56.814,Tarea de género gramatical,2024.2.2,Win32,59.52380952,,,,,,,,,,,,,,,,,,,,,,,432.3683,433.6511,l,1,[],[],[],[],[],[],[],0.6025,1,433.6512,434.1516,,,,,,12,MAS,DIS,150,plan,la,l,0.6025,,434.1524,434.1528,0.234166654,0.084166654,0,0,0,,0,191,191,11,1,,,,
,,,,,,7fdb880478424506208ad1ed,66a626ef09d4e21e1a8894ec,673497ce65d2da4cc9e31912,2024-11-13_13h17.56.814,Tarea de género gramatical,2024.2.2,Win32,59.52380952,,,,,,,,,,,,,,,,,,,,,,,434.1532,435.302,a,1,[],[],[],[],[],[],[],0.4676,1,435.302,435.802,,,,,,307,FEM,AGR,150,suerte,la,a,0.4676,,435.802,435.8021,0.234166654,0.084166654,0,0,0,,0,192,192,306,1,,,,
,,,,,,7fdb880478424506208ad1ed,66a626ef09d4e21e1a8894ec,673497ce65d2da4cc9e31912,2024-11-13_13h17.56.814,Tarea de género gramatical,2024.2.2,Win32,59.52380952,,,,,,,,,,,,,,,,,,,,,,,435.803,437.0188,l,1,[],[],[],[],[],[],[],0.5378,1,437.0189,437.5194,,,,,,94,MAS,AGR,150,cabo,el,l,0.5378,,437.5194,437.5194,0.234166654,0.084166654,0,0,0,,0,193,193,93,1,,,,
,,,,,,7fdb880478424506208ad1ed,66a626ef09d4e21e1a8894ec,673497ce65d2da4cc9e31912,2024-11-13_13h17.56.814,Tarea de género gramatical,2024.2.2,Win32,59.52380952,,,,,,,,,,,,,,,,,,,,,,,437.5201,438.636,a,1,[],[],[],[],[],[],[],0.4407,1,438.6361,439.1365,,,,,,392,FEM,CON,150,maleta,,a,0.4407,,439.1365,439.1365,0.234166654,0.084166654,0,0,0,,0,194,194,391,1,,,,
,,,,,,7fdb880478424506208ad1ed,66a626ef09d4e21e1a8894ec,673497ce65d2da4cc9e31912,2024-11-13_13h17.56.814,Tarea de género gramatical,2024.2.2,Win32,59.52380952,,,,,,,,,,,,,,,,,,,,,,,439.1374,440.1868,l,1,[],[],[],[],[],[],[],0.3677,1,440.1868,440.6868,,,,,,88,MAS,AGR,150,pavo,el,l,0.3677,,440.6876,440.688,0.234166654,0.084166654,0,0,0,,0,195,195,87,1,,,,
,,,,,,7fdb880478424506208ad1ed,66a626ef09d4e21e1a8894ec,673497ce65d2da4cc9e31912,2024-11-13_13h17.56.814,Tarea de género gramatical,2024.2.2,Win32,59.52380952,,,,,,,,,,,,,,,,,,,,,,,440.6884,441.8372,a,1,[],[],[],[],[],[],[],0.4678,1,441.8373,442.3375,,,,,,97,FEM,AGR,150,capa,la,a,0.4678,,442.3375,442.3375,0.234166654,0.084166654,0,0,0,,0,196,196,96,1,,,,
,,,,,,7fdb880478424506208ad1ed,66a626ef09d4e21e1a8894ec,673497ce65d2da4cc9e31912,2024-11-13_13h17.56.814,Tarea de género gramatical,2024.2.2,Win32,59.52380952,,,,,,,,,,,,,,,,,,,,,,,442.3382,443.5544,a,1,[],[],[],[],[],[],[],0.5341,1,443.5544,444.0549,,,,,,121,FEM,AGR,150,pila,la,a,0.5341,,444.0549,444.055,0.234166654,0.084166654,0,0,0,,0,197,197,120,1,,,,
,,,,,,7fdb880478424506208ad1ed,66a626ef09d4e21e1a8894ec,673497ce65d2da4cc9e31912,2024-11-13_13h17.56.814,Tarea de género gramatical,2024.2.2,Win32,59.52380952,,,,,,,,,,,,,,,,,,,,,,,444.0557,445.0384,l,1,[],[],[],[],[],[],[],0.303,1,445.0384,445.5387,,,,,,160,MAS,AGR,150,señor,el,l,0.303,,445.5387,445.5387,0.234166654,0.084166654,0,0,0,,0,198,198,159,1,,,,
,,,,,,7fdb880478424506208ad1ed,66a626ef09d4e21e1a8894ec,673497ce65d2da4cc9e31912,2024-11-13_13h17.56.814,Tarea de género gramatical,2024.2.2,Win32,59.52380952,,,,,,,,,,,,,,,,,,,,,,,445.5394,447.0558,a,1,[],[],[],[],[],[],[],0.8346,1,447.0558,447.5561,,,,,,213,FEM,DIS,150,magia,el,a,0.8346,,447.5561,447.5562,0.234166654,0.084166654,0,0,0,,0,199,199,212,1,,,,
,,,,,,7fdb880478424506208ad1ed,66a626ef09d4e21e1a8894ec,673497ce65d2da4cc9e31912,2024-11-13_13h17.56.814,Tarea de género gramatical,2024.2.2,Win32,59.52380952,,,,,,,,,,,,,,,,,,,,,,,447.5572,449.5735,l,1,[],[],[],[],[],[],[],1.3296,1,449.5735,450.0733,,,,,,42,MAS,DIS,150,show,la,l,1.3296,,450.0741,450.0744,0.234166654,0.084166654,0,0,0,,0,200,200,41,1,,,,
,,,,,,7fdb880478424506208ad1ed,66a626ef09d4e21e1a8894ec,673497ce65d2da4cc9e31912,2024-11-13_13h17.56.814,Tarea de género gramatical,2024.2.2,Win32,59.52380952,,,,,,,,,,,,,,,,,,,,,,,450.0748,451.2904,a,1,[],[],[],[],[],[],[],0.5387,1,451.2904,451.7908,,,,,,182,FEM,CON,150,prisa,,a,0.5387,,451.7908,451.7909,0.234166654,0.084166654,0,0,0,,0,201,201,181,1,,,,
,,,,,,7fdb880478424506208ad1ed,66a626ef09d4e21e1a8894ec,673497ce65d2da4cc9e31912,2024-11-13_13h17.56.814,Tarea de género gramatical,2024.2.2,Win32,59.52380952,,,,,,,,,,,,,,,,,,,,,,,451.7918,453.0076,l,0,[],[],[],[],[],[],[],0.5437,0,453.008,453.508,,,,,,105,FEM,DIS,150,jefa,el,a,0.5437,,453.508,453.5082,0.234166654,0.084166654,0,0,0,,0,202,202,104,1,,,,
,,,,,,7fdb880478424506208ad1ed,66a626ef09d4e21e1a8894ec,673497ce65d2da4cc9e31912,2024-11-13_13h17.56.814,Tarea de género gramatical,2024.2.2,Win32,59.52380952,,,,,,,,,,,,,,,,,,,,,,,453.5092,454.5248,l,1,[],[],[],[],[],[],[],0.3339,1,454.5253,455.0252,,,,,,112,MAS,AGR,150,reto,el,l,0.3339,,455.0253,455.0253,0.234166654,0.084166654,0,0,0,,0,203,203,111,1,,,,
,,,,,,7fdb880478424506208ad1ed,66a626ef09d4e21e1a8894ec,673497ce65d2da4cc9e31912,2024-11-13_13h17.56.814,Tarea de género gramatical,2024.2.2,Win32,59.52380952,,,,,,,,,,,,,,,,,,,,,,,455.0262,456.3422,a,1,[],[],[],[],[],[],[],0.6344,1,456.3423,456.8424,,,,,,219,FEM,DIS,150,costa,el,a,0.6344,,456.8434,456.8438,0.234166654,0.084166654,0,0,0,,0,204,204,218,1,,,,
,,,,,,7fdb880478424506208ad1ed,66a626ef09d4e21e1a8894ec,673497ce65d2da4cc9e31912,2024-11-13_13h17.56.814,Tarea de género gramatical,2024.2.2,Win32,59.52380952,,,,,,,,,,,,,,,,,,,,,,,456.8441,458.4929,a,1,[],[],[],[],[],[],[],0.9745,1,458.493,458.9933,,,,,,332,FEM,CON,150,basura,,a,0.9745,,458.9934,458.9935,0.234166654,0.084166654,0,0,0,,0,205,205,331,1,,,,
,,,,,,7fdb880478424506208ad1ed,66a626ef09d4e21e1a8894ec,673497ce65d2da4cc9e31912,2024-11-13_13h17.56.814,Tarea de género gramatical,2024.2.2,Win32,59.52380952,,,,,,,,,,,,,,,,,,,,,,,458.9943,460.3435,l,0,[],[],[],[],[],[],[],0.6742,0,460.3442,460.8437,,,,,,313,FEM,AGR,150,ciudad,la,a,0.6742,,460.8437,460.8438,0.234166654,0.084166654,0,0,0,,0,206,206,312,1,,,,
,,,,,,7fdb880478424506208ad1ed,66a626ef09d4e21e1a8894ec,673497ce65d2da4cc9e31912,2024-11-13_13h17.56.814,Tarea de género gramatical,2024.2.2,Win32,59.52380952,,,,,,,,,,,,,,,,,,,,,,,460.8444,462.0774,l,1,[],[],[],[],[],[],[],0.5719,1,462.0779,462.578,,,,,,161,MAS,CON,150,chico,,l,0.5719,,462.578,462.578,0.234166654,0.084166654,0,0,0,,0,207,207,160,1,,,,
,,,,,,7fdb880478424506208ad1ed,66a626ef09d4e21e1a8894ec,673497ce65d2da4cc9e31912,2024-11-13_13h17.56.814,Tarea de género gramatical,2024.2.2,Win32,59.52380952,,,,,,,,,,,,,,,,,,,,,,,462.5788,463.6781,l,1,[],[],[],[],[],[],[],0.417,1,463.6782,464.1784,,,,,,245,MAS,CON,150,turno,,l,0.417,,464.1785,464.1786,0.234166654,0.084166654,0,0,0,,0,208,208,244,1,,,,
,,,,,,7fdb880478424506208ad1ed,66a626ef09d4e21e1a8894ec,673497ce65d2da4cc9e31912,2024-11-13_13h17.56.814,Tarea de género gramatical,2024.2.2,Win32,59.52380952,,,,,,,,,,,,,,,,,,,,,,,464.1793,465.4453,a,1,[],[],[],[],[],[],[],0.5892,1,465.4454,465.9456,,,,,,51,FEM,DIS,150,bala,el,a,0.5892,,465.9464,465.9468,0.234166654,0.084166654,0,0,0,,0,209,209,50,1,,,,
,,,,,,7fdb880478424506208ad1ed,66a626ef09d4e21e1a8894ec,673497ce65d2da4cc9e31912,2024-11-13_13h17.56.814,Tarea de género gramatical,2024.2.2,Win32,59.52380952,,,,,,,,,,,,,,,,,,,,,,,465.9472,467.6128,l,1,[],[],[],[],[],[],[],0.9883,1,467.6129,468.1129,,,,,,372,MAS,DIS,150,delito,la,l,0.9883,,468.1129,468.113,0.234166654,0.084166654,0,0,0,,0,210,210,371,1,,,,
,,,,,,7fdb880478424506208ad1ed,66a626ef09d4e21e1a8894ec,673497ce65d2da4cc9e31912,2024-11-13_13h17.56.814,Tarea de género gramatical,2024.2.2,Win32,59.52380952,,,,,,,,,,,,,,,,,,,,,,,468.1138,469.1632,l,1,[],[],[],[],[],[],[],0.3868,1,469.1633,469.6635,,,,,,294,MAS,DIS,150,cable,la,l,0.3868,,469.6635,469.6636,0.234166654,0.084166654,0,0,0,,0,211,211,293,1,,,,
,,,,,,7fdb880478424506208ad1ed,66a626ef09d4e21e1a8894ec,673497ce65d2da4cc9e31912,2024-11-13_13h17.56.814,Tarea de género gramatical,2024.2.2,Win32,59.52380952,,,,,,,,,,,,,,,,,,,,,,,469.6646,470.6972,l,1,[],[],[],[],[],[],[],0.3571,1,470.6974,471.1974,,,,,,34,MAS,AGR,150,gato,el,l,0.3571,,471.1974,471.1975,0.234166654,0.084166654,0,0,0,,0,212,212,33,1,,,,
,,,,,,7fdb880478424506208ad1ed,66a626ef09d4e21e1a8894ec,673497ce65d2da4cc9e31912,2024-11-13_13h17.56.814,Tarea de género gramatical,2024.2.2,Win32,59.52380952,,,,,,,,,,,,,,,,,,,,,,,471.1985,472.5314,a,1,[],[],[],[],[],[],[],0.6513,1,472.5314,473.0315,,,,,,145,FEM,AGR,150,bota,la,a,0.6513,,473.0323,473.0327,0.234166654,0.084166654,0,0,0,,0,213,213,144,1,,,,
,,,,,,7fdb880478424506208ad1ed,66a626ef09d4e21e1a8894ec,673497ce65d2da4cc9e31912,2024-11-13_13h17.56.814,Tarea de género gramatical,2024.2.2,Win32,59.52380952,,,,,,,,,,,,,,,,,,,,,,,473.033,474.1984,l,1,[],[],[],[],[],[],[],0.4879,1,474.1985,474.6987,,,,,,244,MAS,AGR,150,hielo,el,l,0.4879,,474.6987,474.6988,0.234166654,0.084166654,0,0,0,,0,214,214,243,1,,,,
,,,,,,7fdb880478424506208ad1ed,66a626ef09d4e21e1a8894ec,673497ce65d2da4cc9e31912,2024-11-13_13h17.56.814,Tarea de género gramatical,2024.2.2,Win32,59.52380952,,,,,,,,,,,,,,,,,,,,,,,474.6998,475.7323,l,1,[],[],[],[],[],[],[],0.3522,1,475.7323,476.2323,,,,,,430,MAS,AGR,150,título,el,l,0.3522,,476.2323,476.2324,0.234166654,0.084166654,0,0,0,,0,215,215,429,1,,,,
,,,,,,7fdb880478424506208ad1ed,66a626ef09d4e21e1a8894ec,673497ce65d2da4cc9e31912,2024-11-13_13h17.56.814,Tarea de género gramatical,2024.2.2,Win32,59.52380952,,,,,,,,,,,,,,,,,,,,,,,476.2329,477.2159,l,1,[],[],[],[],[],[],[],0.321,1,477.216,477.7164,,,,,,4,MAS,AGR,150,hijo,el,l,0.321,,477.7165,477.7165,0.234166654,0.084166654,0,0,0,,0,216,216,3,1,,,,
,,,,,,7fdb880478424506208ad1ed,66a626ef09d4e21e1a8894ec,673497ce65d2da4cc9e31912,2024-11-13_13h17.56.814,Tarea de género gramatical,2024.2.2,Win32,59.52380952,,,,,,,,,,,,,,,,,,,,,,,477.7174,478.8,l,1,[],[],[],[],[],[],[],0.4091,1,478.8,479.3002,,,,,,442,MAS,AGR,150,cuadro,el,l,0.4091,,479.3002,479.3003,0.234166654,0.084166654,0,0,0,,0,217,217,441,1,,,,
,,,,,,7fdb880478424506208ad1ed,66a626ef09d4e21e1a8894ec,673497ce65d2da4cc9e31912,2024-11-13_13h17.56.814,Tarea de género gramatical,2024.2.2,Win32,59.52380952,,,,,,,,,,,,,,,,,,,,,,,479.301,480.5005,a,1,[],[],[],[],[],[],[],0.5189,1,480.5005,481.0006,,,,,,291,FEM,DIS,150,aguja,el,a,0.5189,,481.0012,481.0016,0.234166654,0.084166654,0,0,0,,0,218,218,290,1,,,,
,,,,,,7fdb880478424506208ad1ed,66a626ef09d4e21e1a8894ec,673497ce65d2da4cc9e31912,2024-11-13_13h17.56.814,Tarea de género gramatical,2024.2.2,Win32,59.52380952,,,,,,,,,,,,,,,,,,,,,,,481.0019,481.8676,l,0,[],[],[],[],[],[],[],0.1885,0,481.8682,482.3678,,,,,,375,FEM,DIS,150,cadena,el,a,0.1885,,482.368,482.3681,0.234166654,0.084166654,0,0,0,,0,219,219,374,1,,,,
,,,,,,7fdb880478424506208ad1ed,66a626ef09d4e21e1a8894ec,673497ce65d2da4cc9e31912,2024-11-13_13h17.56.814,Tarea de género gramatical,2024.2.2,Win32,59.52380952,,,,,,,,,,,,,,,,,,,,,,,482.3689,483.6352,l,1,[],[],[],[],[],[],[],0.5924,1,483.636,484.1351,,,,,,384,MAS,DIS,150,pedazo,la,l,0.5924,,484.1352,484.1353,0.234166654,0.084166654,0,0,0,,0,220,220,383,1,,,,
,,,,,,7fdb880478424506208ad1ed,66a626ef09d4e21e1a8894ec,673497ce65d2da4cc9e31912,2024-11-13_13h17.56.814,Tarea de género gramatical,2024.2.2,Win32,59.52380952,,,,,,,,,,,,,,,,,,,,,,,484.1361,485.2023,l,1,[],[],[],[],[],[],[],0.3852,1,485.2023,485.7024,,,,,,274,MAS,AGR,150,motor,el,l,0.3852,,485.7024,485.7024,0.234166654,0.084166654,0,0,0,,0,221,221,273,1,,,,
,,,,,,7fdb880478424506208ad1ed,66a626ef09d4e21e1a8894ec,673497ce65d2da4cc9e31912,2024-11-13_13h17.56.814,Tarea de género gramatical,2024.2.2,Win32,59.52380952,,,,,,,,,,,,,,,,,,,,,,,485.7031,486.836,a,1,[],[],[],[],[],[],[],0.4511,1,486.8361,487.3363,,,,,,39,FEM,DIS,150,luna,el,a,0.4511,,487.3372,487.3376,0.234166654,0.084166654,0,0,0,,0,222,222,38,1,,,,
,,,,,,7fdb880478424506208ad1ed,66a626ef09d4e21e1a8894ec,673497ce65d2da4cc9e31912,2024-11-13_13h17.56.814,Tarea de género gramatical,2024.2.2,Win32,59.52380952,,,,,,,,,,,,,,,,,,,,,,,487.338,488.4034,l,0,[],[],[],[],[],[],[],0.3841,0,488.4042,488.9035,,,,,,302,FEM,CON,150,cabeza,,a,0.3841,,488.9036,488.9036,0.234166654,0.084166654,0,0,0,,0,223,223,301,1,,,,
,,,,,,7fdb880478424506208ad1ed,66a626ef09d4e21e1a8894ec,673497ce65d2da4cc9e31912,2024-11-13_13h17.56.814,Tarea de género gramatical,2024.2.2,Win32,59.52380952,,,,,,,,,,,,,,,,,,,,,,,488.9046,490.3706,l,0,[],[],[],[],[],[],[],0.7817,0,490.3706,490.8708,,,,,,109,FEM,AGR,150,gota,la,a,0.7817,,490.8709,490.871,0.234166654,0.084166654,0,0,0,,0,224,224,108,1,,,,
,,,,,,7fdb880478424506208ad1ed,66a626ef09d4e21e1a8894ec,673497ce65d2da4cc9e31912,2024-11-13_13h17.56.814,Tarea de género gramatical,2024.2.2,Win32,59.52380952,,,,,,,,,,,,,,,,,,,,,,,490.8716,491.871,l,1,[],[],[],[],[],[],[],0.3272,1,491.8714,492.3713,,,,,,101,MAS,CON,150,giro,,l,0.3272,,492.3713,492.3713,0.234166654,0.084166654,0,0,0,,0,225,225,100,1,,,,
,,,,,,7fdb880478424506208ad1ed,66a626ef09d4e21e1a8894ec,673497ce65d2da4cc9e31912,2024-11-13_13h17.56.814,Tarea de género gramatical,2024.2.2,Win32,59.52380952,,,,,,,,,,,,,,,,,,,,,,,492.3721,493.4717,l,1,[],[],[],[],[],[],[],0.4241,1,493.4717,493.972,,,,,,132,MAS,DIS,150,velo,la,l,0.4241,,493.972,493.9721,0.234166654,0.084166654,0,0,0,,0,226,226,131,1,,,,
,,,,,,7fdb880478424506208ad1ed,66a626ef09d4e21e1a8894ec,673497ce65d2da4cc9e31912,2024-11-13_13h17.56.814,Tarea de género gramatical,2024.2.2,Win32,59.52380952,,,,,,,,,,,,,,,,,,,,,,,493.9729,495.7223,a,1,[],[],[],[],[],[],[],1.0739,1,495.7224,496.2228,,,,,,242,FEM,CON,150,pizza,,a,1.0739,,496.2236,496.2241,0.234166654,0.084166654,0,0,0,,0,227,227,241,1,,,,
,,,,,,7fdb880478424506208ad1ed,66a626ef09d4e21e1a8894ec,673497ce65d2da4cc9e31912,2024-11-13_13h17.56.814,Tarea de género gramatical,2024.2.2,Win32,59.52380952,,,,,,,,,,,,,,,,,,,,,,,496.2244,497.4564,l,1,[],[],[],[],[],[],[],0.5556,1,497.4564,497.9564,,,,,,172,MAS,AGR,150,poder,el,l,0.5556,,497.9564,497.9565,0.234166654,0.084166654,0,0,0,,0,228,228,171,1,,,,
,,,,,,7fdb880478424506208ad1ed,66a626ef09d4e21e1a8894ec,673497ce65d2da4cc9e31912,2024-11-13_13h17.56.814,Tarea de género gramatical,2024.2.2,Win32,59.52380952,,,,,,,,,,,,,,,,,,,,,,,497.9571,499.1404,a,0,[],[],[],[],[],[],[],0.5245,0,499.1407,499.6408,,,,,,192,MAS,DIS,150,grupo,la,l,0.5245,,499.6408,499.6409,0.234166654,0.084166654,0,0,0,,0,229,229,191,1,,,,
,,,,,,7fdb880478424506208ad1ed,66a626ef09d4e21e1a8894ec,673497ce65d2da4cc9e31912,2024-11-13_13h17.56.814,Tarea de género gramatical,2024.2.2,Win32,59.52380952,,,,,,,,,,,,,,,,,,,,,,,499.6416,501.1576,l,1,[],[],[],[],[],[],[],0.8349,1,501.1581,501.6578,,,,,,210,MAS,DIS,150,baile,la,l,0.8349,,501.6578,501.6579,0.234166654,0.084166654,0,0,0,,0,230,230,209,1,,,,
,,,,,,7fdb880478424506208ad1ed,66a626ef09d4e21e1a8894ec,673497ce65d2da4cc9e31912,2024-11-13_13h17.56.814,Tarea de género gramatical,2024.2.2,Win32,59.52380952,,,,,,,,,,,,,,,,,,,,,,,501.6587,502.8918,l,1,[],[],[],[],[],[],[],0.5553,1,502.8918,503.392,,,,,,370,MAS,AGR,150,seguro,el,l,0.5553,,503.3927,503.3931,0.234166654,0.084166654,0,0,0,,0,231,231,369,1,,,,
,,,,,,7fdb880478424506208ad1ed,66a626ef09d4e21e1a8894ec,673497ce65d2da4cc9e31912,2024-11-13_13h17.56.814,Tarea de género gramatical,2024.2.2,Win32,59.52380952,,,,,,,,,,,,,,,,,,,,,,,503.3934,504.6754,a,1,[],[],[],[],[],[],[],0.603,1,504.6754,505.1757,,,,,,194,FEM,CON,150,banda,,a,0.603,,505.1757,505.1758,0.234166654,0.084166654,0,0,0,,0,232,232,193,1,,,,
,,,,,,7fdb880478424506208ad1ed,66a626ef09d4e21e1a8894ec,673497ce65d2da4cc9e31912,2024-11-13_13h17.56.814,Tarea de género gramatical,2024.2.2,Win32,59.52380952,,,,,,,,,,,,,,,,,,,,,,,505.1765,506.776,a,1,[],[],[],[],[],[],[],0.9221,1,506.7761,507.2765,,,,,,50,FEM,CON,150,dama,,a,0.9221,,507.2765,507.2766,0.234166654,0.084166654,0,0,0,,0,233,233,49,1,,,,
,,,,,,7fdb880478424506208ad1ed,66a626ef09d4e21e1a8894ec,673497ce65d2da4cc9e31912,2024-11-13_13h17.56.814,Tarea de género gramatical,2024.2.2,Win32,59.52380952,,,,,,,,,,,,,,,,,,,,,,,507.2773,508.6935,l,1,[],[],[],[],[],[],[],0.7341,1,508.6936,509.1939,,,,,,173,MAS,CON,150,libro,,l,0.7341,,509.1939,509.194,0.234166654,0.084166654,0,0,0,,0,234,234,172,1,,,,
,,,,,,7fdb880478424506208ad1ed,66a626ef09d4e21e1a8894ec,673497ce65d2da4cc9e31912,2024-11-13_13h17.56.814,Tarea de género gramatical,2024.2.2,Win32,59.52380952,,,,,,,,,,,,,,,,,,,,,,,509.195,510.5608,a,1,[],[],[],[],[],[],[],0.6839,1,510.5608,511.0611,,,,,,368,FEM,CON,150,gracia,,a,0.6839,,511.0611,511.0612,0.234166654,0.084166654,0,0,0,,0,235,235,367,1,,,,
,,,,,,7fdb880478424506208ad1ed,66a626ef09d4e21e1a8894ec,673497ce65d2da4cc9e31912,2024-11-13_13h17.56.814,Tarea de género gramatical,2024.2.2,Win32,59.52380952,,,,,,,,,,,,,,,,,,,,,,,511.062,512.2782,l,1,[],[],[],[],[],[],[],0.5335,1,512.2782,512.7783,,,,,,36,MAS,DIS,150,dedo,la,l,0.5335,,512.7791,512.7795,0.234166654,0.084166654,0,0,0,,0,236,236,35,1,,,,
,,,,,,7fdb880478424506208ad1ed,66a626ef09d4e21e1a8894ec,673497ce65d2da4cc9e31912,2024-11-13_13h17.56.814,Tarea de género gramatical,2024.2.2,Win32,59.52380952,,,,,,,,,,,,,,,,,,,,,,,512.7798,514.6289,a,1,[],[],[],[],[],[],[],1.1706,1,514.629,515.1293,,,,,,379,FEM,AGR,150,granja,la,a,1.1706,,515.1293,515.1294,0.234166654,0.084166654,0,0,0,,0,237,237,378,1,,,,
,,,,,,7fdb880478424506208ad1ed,66a626ef09d4e21e1a8894ec,673497ce65d2da4cc9e31912,2024-11-13_13h17.56.814,Tarea de género gramatical,2024.2.2,Win32,59.52380952,,,,,,,,,,,,,,,,,,,,,,,515.1302,516.3464,l,0,[],[],[],[],[],[],[],0.5339,0,516.347,516.8466,,,,,,73,FEM,AGR,150,roca,la,a,0.5339,,516.8466,516.8467,0.234166654,0.084166654,0,0,0,,0,238,238,72,1,,,,
,,,,,,7fdb880478424506208ad1ed,66a626ef09d4e21e1a8894ec,673497ce65d2da4cc9e31912,2024-11-13_13h17.56.814,Tarea de género gramatical,2024.2.2,Win32,59.52380952,,,,,,,,,,,,,,,,,,,,,,,516.8474,518.1801,l,1,[],[],[],[],[],[],[],0.6563,1,518.1809,518.6803,,,,,,6,MAS,DIS,150,lado,la,l,0.6563,,518.6804,518.6804,0.234166654,0.084166654,0,0,0,,0,239,239,5,1,,,,
,,,,,,7fdb880478424506208ad1ed,66a626ef09d4e21e1a8894ec,673497ce65d2da4cc9e31912,2024-11-13_13h17.56.814,Tarea de género gramatical,2024.2.2,Win32,59.52380952,,,,,,,,,,,,,,,,,,,,,,,518.6808,519.8307,l,1,[],[],[],[],[],[],[],0.4649,1,519.8308,520.331,,,,,,413,MAS,CON,150,diario,,l,0.4649,,520.3318,520.3322,0.234166654,0.084166654,0,0,0,,0,240,240,412,1,,,,
,,,,,,7fdb880478424506208ad1ed,66a626ef09d4e21e1a8894ec,673497ce65d2da4cc9e31912,2024-11-13_13h17.56.814,Tarea de género gramatical,2024.2.2,Win32,59.52380952,,,,,,,,,,,,,,,,,,,,,,,520.3325,521.3979,a,1,[],[],[],[],[],[],[],0.3832,1,521.398,521.8983,,,,,,259,FEM,AGR,150,prima,la,a,0.3832,,521.8983,521.8985,0.234166654,0.084166654,0,0,0,,0,241,241,258,1,,,,
,,,,,,7fdb880478424506208ad1ed,66a626ef09d4e21e1a8894ec,673497ce65d2da4cc9e31912,2024-11-13_13h17.56.814,Tarea de género gramatical,2024.2.2,Win32,59.52380952,,,,,,,,,,,,,,,,,,,,,,,521.8992,523.4488,a,1,[],[],[],[],[],[],[],0.868,1,523.4489,523.9489,,,,,,49,FEM,AGR,150,piel,la,a,0.868,,523.949,523.949,0.234166654,0.084166654,0,0,0,,0,242,242,48,1,,,,
,,,,,,7fdb880478424506208ad1ed,66a626ef09d4e21e1a8894ec,673497ce65d2da4cc9e31912,2024-11-13_13h17.56.814,Tarea de género gramatical,2024.2.2,Win32,59.52380952,,,,,,,,,,,,,,,,,,,,,,,523.9499,525.3495,a,1,[],[],[],[],[],[],[],0.7174,1,525.3495,525.8496,,,,,,423,FEM,DIS,150,poesía,el,a,0.7174,,525.8496,525.8497,0.234166654,0.084166654,0,0,0,,0,243,243,422,1,,,,
,,,,,,7fdb880478424506208ad1ed,66a626ef09d4e21e1a8894ec,673497ce65d2da4cc9e31912,2024-11-13_13h17.56.814,Tarea de género gramatical,2024.2.2,Win32,59.52380952,,,,,,,,,,,,,,,,,,,,,,,525.8505,527.3333,a,1,[],[],[],[],[],[],[],0.8027,1,527.3334,527.8334,,,,,,217,FEM,AGR,150,tarea,la,a,0.8027,,527.8335,527.8335,0.234166654,0.084166654,0,0,0,,0,244,244,216,1,,,,
,,,,,,7fdb880478424506208ad1ed,66a626ef09d4e21e1a8894ec,673497ce65d2da4cc9e31912,2024-11-13_13h17.56.814,Tarea de género gramatical,2024.2.2,Win32,59.52380952,,,,,,,,,,,,,,,,,,,,,,,527.8343,529.6007,a,1,[],[],[],[],[],[],[],1.0898,1,529.6007,530.1011,,,,,,151,FEM,AGR,150,noche,la,a,1.0898,,530.102,530.1025,0.234166654,0.084166654,0,0,0,,0,245,245,150,1,,,,
,,,,,,7fdb880478424506208ad1ed,66a626ef09d4e21e1a8894ec,673497ce65d2da4cc9e31912,2024-11-13_13h17.56.814,Tarea de género gramatical,2024.2.2,Win32,59.52380952,,,,,,,,,,,,,,,,,,,,,,,530.1028,531.9681,a,1,[],[],[],[],[],[],[],1.1842,1,531.9682,532.4684,,,,,,237,FEM,DIS,150,ducha,el,a,1.1842,,532.4684,532.4685,0.234166654,0.084166654,0,0,0,,0,246,246,236,1,,,,
,,,,,,7fdb880478424506208ad1ed,66a626ef09d4e21e1a8894ec,673497ce65d2da4cc9e31912,2024-11-13_13h17.56.814,Tarea de género gramatical,2024.2.2,Win32,59.52380952,,,,,,,,,,,,,,,,,,,,,,,532.4694,534.119,l,1,[],[],[],[],[],[],[],0.9718,1,534.119,534.6192,,,,,,137,MAS,CON,150,coco,,l,0.9718,,534.6192,534.6192,0.234166654,0.084166654,0,0,0,,0,247,247,136,1,,,,
,,,,,,7fdb880478424506208ad1ed,66a626ef09d4e21e1a8894ec,673497ce65d2da4cc9e31912,2024-11-13_13h17.56.814,Tarea de género gramatical,2024.2.2,Win32,59.52380952,,,,,,,,,,,,,,,,,,,,,,,534.6198,535.8695,a,1,[],[],[],[],[],[],[],0.5724,1,535.8696,536.3696,,,,,,445,FEM,AGR,150,bondad,la,a,0.5724,,536.3697,536.3697,0.234166654,0.084166654,0,0,0,,0,248,248,444,1,,,,
,,,,,,7fdb880478424506208ad1ed,66a626ef09d4e21e1a8894ec,673497ce65d2da4cc9e31912,2024-11-13_13h17.56.814,Tarea de género gramatical,2024.2.2,Win32,59.52380952,,,,,,,,,,,,,,,,,,,,,,,536.3706,537.7368,a,1,[],[],[],[],[],[],[],0.6895,1,537.7369,538.2367,,,,,,409,FEM,AGR,150,moneda,la,a,0.6895,,538.2374,538.2383,0.234166654,0.084166654,0,0,0,,0,249,249,408,1,,,,
,,,,,,7fdb880478424506208ad1ed,66a626ef09d4e21e1a8894ec,673497ce65d2da4cc9e31912,2024-11-13_13h17.56.814,Tarea de género gramatical,2024.2.2,Win32,59.52380952,,,,,,,,,,,,,,,,,,,,,,,538.2388,539.6876,a,1,[],[],[],[],[],[],[],0.7675,1,539.6876,540.1879,,,,,,283,FEM,AGR,150,pluma,la,a,0.7675,,540.188,540.188,0.234166654,0.084166654,0,0,0,,0,250,250,282,1,,,,
,,,,,,7fdb880478424506208ad1ed,66a626ef09d4e21e1a8894ec,673497ce65d2da4cc9e31912,2024-11-13_13h17.56.814,Tarea de género gramatical,2024.2.2,Win32,59.52380952,,,,,,,,,,,,,,,,,,,,,,,540.1888,541.4881,l,1,[],[],[],[],[],[],[],0.6174,1,541.4882,541.9884,,,,,,330,MAS,DIS,150,estado,la,l,0.6174,,541.9885,541.9886,0.234166654,0.084166654,0,0,0,,0,251,251,329,1,,,,
,,,,,,7fdb880478424506208ad1ed,66a626ef09d4e21e1a8894ec,673497ce65d2da4cc9e31912,2024-11-13_13h17.56.814,Tarea de género gramatical,2024.2.2,Win32,59.52380952,,,,,,,,,,,,,,,,,,,,,,,541.9893,543.3222,a,0,[],[],[],[],[],[],[],0.6512,0,543.3229,543.8224,,,,,,298,MAS,AGR,150,botón,el,l,0.6512,,543.8224,543.8225,0.234166654,0.084166654,0,0,0,,0,252,252,297,1,,,,
