counterbalancing_condition,consent_prescreening.block_1/declare_consent,consent_prescreening.block_1/age_years,consent_prescreening.block_1/gender,consent_prescreening.block_1/language_disorder,consent_prescreening.block_1/first_language,PROLIFIC_PID,STUDY_ID,SESSION_ID,date,expName,psychopyVersion,OS,frameRate,check_prescreening_answers.started,check_prescreening_answers.stopped,Instructions.started,Instructions.stopped,instr_done_keyboard.keys,instr_done_touch.x,instr_done_touch.y,instr_done_touch.leftButton,instr_done_touch.midButton,instr_done_touch.rightButton,instr_done_touch.clicked_name,instruction_pages.thisRepN,instruction_pages.thisTrialN,instruction_pages.thisN,instruction_pages.thisIndex,instruction_pages.ran,pageN,phase,instruct_text,has_image,instruct_image,presentTrial.started,presentTrial.stopped,response.keys,response.corr,touch_resp.x,touch_resp.y,touch_resp.leftButton,touch_resp.midButton,touch_resp.rightButton,touch_resp.time,touch_resp.clicked_name,rt,corr,feedback.started,feedback.stopped,practice_trials.thisRepN,practice_trials.thisTrialN,practice_trials.thisN,practice_trials.thisIndex,practice_trials.ran,TrialID,StimulusType,Condition,PrimeDuration,Prime,Flanker,corrAns,response.rt,response.duration,instr_done_keyboard.rt,instr_done_keyboard.duration,Break.started,Break.stopped,break_done_touch.x,break_done_touch.y,break_done_touch.leftButton,break_done_touch.midButton,break_done_touch.rightButton,break_done_keyboard.keys,experiment_trials.thisRepN,experiment_trials.thisTrialN,experiment_trials.thisN,experiment_trials.thisIndex,experiment_trials.ran,break_done_touch.clicked_name,break_done_keyboard.rt,break_done_keyboard.duration,End.started,End.stopped
2,"[""over_18"",""comfortable"",""read_info"",""consent_given""]",25,M,"[""none""]","[""spanish""]",80762990725e4cc67cd2db71,66a626ef09d4e21e1a8894ec,67371d9a2e3972b3bbb983f6,2024-11-15_11h23.56.752,Tarea de género gramatical,2024.2.2,Win32,142.8571429,,,,,,,,,,,,,,,,,,,,,,,,,,,,,,,,,,,,,,,,,,,,,,,,,,,,,,,,,,,,,,,,,,,,,,
,,,,,,80762990725e4cc67cd2db71,66a626ef09d4e21e1a8894ec,67371d9a2e3972b3bbb983f6,2024-11-15_11h23.56.752,Tarea de género gramatical,2024.2.2,Win32,142.8571429,11.9325,11.9325,,,,,,,,,,,,,,,,,,,,,,,,,,,,,,,,,,,,,,,,,,,,,,,,,,,,,,,,,,,,,,,,,,,,
,,,,,,80762990725e4cc67cd2db71,66a626ef09d4e21e1a8894ec,67371d9a2e3972b3bbb983f6,2024-11-15_11h23.56.752,Tarea de género gramatical,2024.2.2,Win32,142.8571429,,,11.9403,16.5621,,-0.000925926,-0.394444444,1,0,0,,0,0,0,0,1,1,instructions,"INSTRUCCIONES
Va a realizar una prueba de selección gramatical. Desde el comienzo de la prueba mire siempre al centro de la pantalla. Al cabo de un momento, aparecerán palabras. La tarea consiste en determinar si la palabra del centro (siempre será un sustantivo), pertenece al género masculino o femenino.

Pulse la tecla ESPACIO o toque el botón de abajo para continuar.",0,keyboardresponseFM.png,,,,,,,,,,,,,,,,,,,,,,,,,,,,,,,,,,,,,,,,,,,,,,,,,
,,,,,,80762990725e4cc67cd2db71,66a626ef09d4e21e1a8894ec,67371d9a2e3972b3bbb983f6,2024-11-15_11h23.56.752,Tarea de género gramatical,2024.2.2,Win32,142.8571429,,,16.5632,19.6388,,0.074074074,-0.417592593,1,0,0,instr_done_button,0,1,1,1,1,2,instructions,"Si su dispositivo tiene teclado, pulse la tecla ""A"" para las palabras en femenino (por ejemplo: ""mano"") y la tecla ""L"" para las palabras en masculino(por ejemplo: ""arroz"").
Pulse la tecla ESPACIO o toque el botón de abajo para continuar.",1,keyboardresponseFM.png,,,,,,,,,,,,,,,,,,,,,,,,,,,,,,,,,,,,,,,,,,,,,,,,,
,,,,,,80762990725e4cc67cd2db71,66a626ef09d4e21e1a8894ec,67371d9a2e3972b3bbb983f6,2024-11-15_11h23.56.752,Tarea de género gramatical,2024.2.2,Win32,142.8571429,,,19.6396,22.1114,,0.039814815,-0.365740741,1,0,0,instr_done_button,0,2,2,2,1,3,instructions,"Si utiliza un dispositivo sólo táctil, colóquelo en horizontal y utilice los botones de la pantalla. No utilice el ratón.
Pulse la tecla ESPACIO o toque el botón de abajo para continuar.",2,touchresponseFM.png,,,,,,,,,,,,,,,,,,,,,,,,,,,,,,,,,,,,,,,,,,,,,,,,,
,,,,,,80762990725e4cc67cd2db71,66a626ef09d4e21e1a8894ec,67371d9a2e3972b3bbb983f6,2024-11-15_11h23.56.752,Tarea de género gramatical,2024.2.2,Win32,142.8571429,,,22.1124,23.8478,,-0.015740741,-0.399074074,1,0,0,instr_done_button,0,3,3,3,1,4,instructions,"Es muy importante que responda con la mayor rapidez y precisión posibles, ya que cada cadena de letras sólo estará en pantalla durante un instante. Si no responde en ese tiempo, aparecerá el mensaje ""Muy lento"" y el experimento pasará a la siguiente palabra. Los primeros 15 intentos serán de práctica y habrá dos descansos durante la prueba.
Pulse la tecla ESPACIO o toque el botón de abajo para iniciar la parte de práctica.",0,keyboardresponseFM.png,,,,,,,,,,,,,,,,,,,,,,,,,,,,,,,,,,,,,,,,,,,,,,,,,
,,,,,,80762990725e4cc67cd2db71,66a626ef09d4e21e1a8894ec,67371d9a2e3972b3bbb983f6,2024-11-15_11h23.56.752,Tarea de género gramatical,2024.2.2,Win32,142.8571429,,,,,,,,,,,,,,,,,,,,,,23.8535,26.5011,,0,[],[],[],[],[],[],[],,-1,26.5013,27.0011,0,0,0,11,1,2012,MAS,DIS,150,clima,la,l,,,,,,,,,,,,,,,,,,,,,,
,,,,,,80762990725e4cc67cd2db71,66a626ef09d4e21e1a8894ec,67371d9a2e3972b3bbb983f6,2024-11-15_11h23.56.752,Tarea de género gramatical,2024.2.2,Win32,142.8571429,,,,,,,,,,,,,,,,,,,,,,27.0018,28.9249,a,1,[],[],[],[],[],[],[],1.2688,1,28.9271,29.4215,0,1,1,6,1,2007,FEM,AGR,150,navaja,la,a,1.2688,,,,,,,,,,,,,,,,,,,,,
,,,,,,80762990725e4cc67cd2db71,66a626ef09d4e21e1a8894ec,67371d9a2e3972b3bbb983f6,2024-11-15_11h23.56.752,Tarea de género gramatical,2024.2.2,Win32,142.8571429,,,,,,,,,,,,,,,,,,,,,,29.4222,30.5999,l,0,[],[],[],[],[],[],[],0.5204,0,30.6004,31.0989,0,2,2,5,1,2006,FEM,DIS,150,serie,el,a,0.5204,,,,,,,,,,,,,,,,,,,,,
,,,,,,80762990725e4cc67cd2db71,66a626ef09d4e21e1a8894ec,67371d9a2e3972b3bbb983f6,2024-11-15_11h23.56.752,Tarea de género gramatical,2024.2.2,Win32,142.8571429,,,,,,,,,,,,,,,,,,,,,,31.0994,32.3874,a,1,[],[],[],[],[],[],[],0.6334,1,32.3878,32.8878,0,3,3,1,1,2002,FEM,CON,150,pala,,a,0.6334,,,,,,,,,,,,,,,,,,,,,
,,,,,,80762990725e4cc67cd2db71,66a626ef09d4e21e1a8894ec,67371d9a2e3972b3bbb983f6,2024-11-15_11h23.56.752,Tarea de género gramatical,2024.2.2,Win32,142.8571429,,,,,,,,,,,,,,,,,,,,,,32.8883,35.2707,a,1,[],[],[],[],[],[],[],1.7185,1,35.2707,35.7687,0,4,4,3,1,2004,FEM,AGR,150,venta,la,a,1.7185,,,,,,,,,,,,,,,,,,,,,
,,,,,,80762990725e4cc67cd2db71,66a626ef09d4e21e1a8894ec,67371d9a2e3972b3bbb983f6,2024-11-15_11h23.56.752,Tarea de género gramatical,2024.2.2,Win32,142.8571429,,,,,,,,,,,,,,,,,,,,,,35.7692,36.9548,a,1,[],[],[],[],[],[],[],0.5272,1,36.9548,37.4556,0,5,5,7,1,2008,FEM,CON,150,siesta,,a,0.5272,,,,,,,,,,,,,,,,,,,,,
,,,,,,80762990725e4cc67cd2db71,66a626ef09d4e21e1a8894ec,67371d9a2e3972b3bbb983f6,2024-11-15_11h23.56.752,Tarea de género gramatical,2024.2.2,Win32,142.8571429,,,,,,,,,,,,,,,,,,,,,,37.456,38.6012,l,1,[],[],[],[],[],[],[],0.4867,1,38.6013,39.1001,0,6,6,9,1,2010,MAS,AGR,150,vecino,el,l,0.4867,,,,,,,,,,,,,,,,,,,,,
,,,,,,80762990725e4cc67cd2db71,66a626ef09d4e21e1a8894ec,67371d9a2e3972b3bbb983f6,2024-11-15_11h23.56.752,Tarea de género gramatical,2024.2.2,Win32,142.8571429,,,,,,,,,,,,,,,,,,,,,,39.1009,40.6142,a,0,[],[],[],[],[],[],[],0.8517,0,40.6146,41.1144,0,7,7,14,1,2015,MAS,DIS,150,robot,la,l,0.8517,,,,,,,,,,,,,,,,,,,,,
,,,,,,80762990725e4cc67cd2db71,66a626ef09d4e21e1a8894ec,67371d9a2e3972b3bbb983f6,2024-11-15_11h23.56.752,Tarea de género gramatical,2024.2.2,Win32,142.8571429,,,,,,,,,,,,,,,,,,,,,,41.1149,42.7813,a,1,[],[],[],[],[],[],[],1.0124,1,42.7815,43.2814,0,8,8,4,1,2005,FEM,CON,150,placa,,a,1.0124,,,,,,,,,,,,,,,,,,,,,
,,,,,,80762990725e4cc67cd2db71,66a626ef09d4e21e1a8894ec,67371d9a2e3972b3bbb983f6,2024-11-15_11h23.56.752,Tarea de género gramatical,2024.2.2,Win32,142.8571429,,,,,,,,,,,,,,,,,,,,,,43.2818,44.5246,l,1,[],[],[],[],[],[],[],0.5811,1,44.5246,45.0247,0,9,9,12,1,2013,MAS,AGR,150,acero,el,l,0.5811,,,,,,,,,,,,,,,,,,,,,
,,,,,,80762990725e4cc67cd2db71,66a626ef09d4e21e1a8894ec,67371d9a2e3972b3bbb983f6,2024-11-15_11h23.56.752,Tarea de género gramatical,2024.2.2,Win32,142.8571429,,,,,,,,,,,,,,,,,,,,,,45.0254,46.1082,l,1,[],[],[],[],[],[],[],0.4281,1,46.1083,46.6086,0,10,10,8,1,2009,MAS,DIS,150,puerto,la,l,0.4281,,,,,,,,,,,,,,,,,,,,,
,,,,,,80762990725e4cc67cd2db71,66a626ef09d4e21e1a8894ec,67371d9a2e3972b3bbb983f6,2024-11-15_11h23.56.752,Tarea de género gramatical,2024.2.2,Win32,142.8571429,,,,,,,,,,,,,,,,,,,,,,46.6093,47.9426,a,1,[],[],[],[],[],[],[],0.6715,1,47.9426,48.4424,0,11,11,2,1,2003,FEM,DIS,150,daga,el,a,0.6715,,,,,,,,,,,,,,,,,,,,,
,,,,,,80762990725e4cc67cd2db71,66a626ef09d4e21e1a8894ec,67371d9a2e3972b3bbb983f6,2024-11-15_11h23.56.752,Tarea de género gramatical,2024.2.2,Win32,142.8571429,,,,,,,,,,,,,,,,,,,,,,48.4429,49.9115,l,1,[],[],[],[],[],[],[],0.8091,1,49.9115,50.4081,0,12,12,10,1,2011,MAS,CON,150,canal,,l,0.8091,,,,,,,,,,,,,,,,,,,,,
,,,,,,80762990725e4cc67cd2db71,66a626ef09d4e21e1a8894ec,67371d9a2e3972b3bbb983f6,2024-11-15_11h23.56.752,Tarea de género gramatical,2024.2.2,Win32,142.8571429,,,,,,,,,,,,,,,,,,,,,,50.4085,51.5957,l,1,[],[],[],[],[],[],[],0.5279,1,51.5958,52.0964,0,13,13,13,1,2014,MAS,CON,150,siglo,,l,0.5279,,,,,,,,,,,,,,,,,,,,,
,,,,,,80762990725e4cc67cd2db71,66a626ef09d4e21e1a8894ec,67371d9a2e3972b3bbb983f6,2024-11-15_11h23.56.752,Tarea de género gramatical,2024.2.2,Win32,142.8571429,,,,,,,,,,,,,,,,,,,,,,52.0968,54.1736,a,1,[],[],[],[],[],[],[],1.4157,1,54.1737,54.6735,0,14,14,0,1,2001,FEM,AGR,150,nuca,la,a,1.4157,,,,,,,,,,,,,,,,,,,,,
,,,,,,80762990725e4cc67cd2db71,66a626ef09d4e21e1a8894ec,67371d9a2e3972b3bbb983f6,2024-11-15_11h23.56.752,Tarea de género gramatical,2024.2.2,Win32,142.8571429,,,57.231,65.0699,space,0.419444444,0.194444444,0,0,0,,,,,,,,,,,,65.0865,66.3265,a,1,[],[],[],[],[],[],[],0.577,1,66.3266,66.8266,,,,,,1322,FEM,AGR,150,rutina,la,a,0.577,,7.8336,,66.8268,66.8281,0.419444444,0.194444444,0,0,0,,0,0,0,421,1,,,,,
,,,,,,80762990725e4cc67cd2db71,66a626ef09d4e21e1a8894ec,67371d9a2e3972b3bbb983f6,2024-11-15_11h23.56.752,Tarea de género gramatical,2024.2.2,Win32,142.8571429,,,,,,,,,,,,,,,,,,,,,,66.8284,67.9102,a,1,[],[],[],[],[],[],[],0.418,1,67.9102,68.4143,,,,,,1305,FEM,CON,150,parada,,a,0.418,,,,68.4143,68.4144,0.419444444,0.194444444,0,0,0,,0,1,1,404,1,,,,,
,,,,,,80762990725e4cc67cd2db71,66a626ef09d4e21e1a8894ec,67371d9a2e3972b3bbb983f6,2024-11-15_11h23.56.752,Tarea de género gramatical,2024.2.2,Win32,142.8571429,,,,,,,,,,,,,,,,,,,,,,68.4149,69.4312,a,1,[],[],[],[],[],[],[],0.3485,1,69.4312,69.9312,,,,,,973,FEM,DIS,150,roca,el,a,0.3485,,,,69.9318,69.9321,0.419444444,0.194444444,0,0,0,,0,2,2,72,1,,,,,
,,,,,,80762990725e4cc67cd2db71,66a626ef09d4e21e1a8894ec,67371d9a2e3972b3bbb983f6,2024-11-15_11h23.56.752,Tarea de género gramatical,2024.2.2,Win32,142.8571429,,,,,,,,,,,,,,,,,,,,,,69.9323,70.8983,a,1,[],[],[],[],[],[],[],0.3067,1,70.8984,71.399,,,,,,957,FEM,CON,150,moda,,a,0.3067,,,,71.399,71.399,0.419444444,0.194444444,0,0,0,,0,3,3,56,1,,,,,
,,,,,,80762990725e4cc67cd2db71,66a626ef09d4e21e1a8894ec,67371d9a2e3972b3bbb983f6,2024-11-15_11h23.56.752,Tarea de género gramatical,2024.2.2,Win32,142.8571429,,,,,,,,,,,,,,,,,,,,,,71.3994,72.501,l,1,[],[],[],[],[],[],[],0.4379,1,72.5011,73.0019,,,,,,1067,MAS,AGR,150,juego,el,l,0.4379,,,,73.0019,73.0019,0.419444444,0.194444444,0,0,0,,0,4,4,166,1,,,,,
,,,,,,80762990725e4cc67cd2db71,66a626ef09d4e21e1a8894ec,67371d9a2e3972b3bbb983f6,2024-11-15_11h23.56.752,Tarea de género gramatical,2024.2.2,Win32,142.8571429,,,,,,,,,,,,,,,,,,,,,,73.0024,73.9813,a,1,[],[],[],[],[],[],[],0.3197,1,73.9813,74.4846,,,,,,956,FEM,AGR,150,bola,la,a,0.3197,,,,74.4846,74.4847,0.419444444,0.194444444,0,0,0,,0,5,5,55,1,,,,,
,,,,,,80762990725e4cc67cd2db71,66a626ef09d4e21e1a8894ec,67371d9a2e3972b3bbb983f6,2024-11-15_11h23.56.752,Tarea de género gramatical,2024.2.2,Win32,142.8571429,,,,,,,,,,,,,,,,,,,,,,74.4853,75.6751,l,1,[],[],[],[],[],[],[],0.5246,1,75.6752,76.172,,,,,,929,MAS,AGR,150,frío,el,l,0.5246,,,,76.1725,76.1729,0.419444444,0.194444444,0,0,0,,0,6,6,28,1,,,,,
,,,,,,80762990725e4cc67cd2db71,66a626ef09d4e21e1a8894ec,67371d9a2e3972b3bbb983f6,2024-11-15_11h23.56.752,Tarea de género gramatical,2024.2.2,Win32,142.8571429,,,,,,,,,,,,,,,,,,,,,,76.1731,77.2265,a,1,[],[],[],[],[],[],[],0.3956,1,77.2266,77.7248,,,,,,1335,FEM,CON,150,niebla,,a,0.3956,,,,77.7248,77.7249,0.419444444,0.194444444,0,0,0,,0,7,7,434,1,,,,,
,,,,,,80762990725e4cc67cd2db71,66a626ef09d4e21e1a8894ec,67371d9a2e3972b3bbb983f6,2024-11-15_11h23.56.752,Tarea de género gramatical,2024.2.2,Win32,142.8571429,,,,,,,,,,,,,,,,,,,,,,77.7252,78.9135,a,1,[],[],[],[],[],[],[],0.529,1,78.9136,79.4132,,,,,,1328,FEM,AGR,150,jugada,la,a,0.529,,,,79.4132,79.4132,0.419444444,0.194444444,0,0,0,,0,8,8,427,1,,,,,
,,,,,,80762990725e4cc67cd2db71,66a626ef09d4e21e1a8894ec,67371d9a2e3972b3bbb983f6,2024-11-15_11h23.56.752,Tarea de género gramatical,2024.2.2,Win32,142.8571429,,,,,,,,,,,,,,,,,,,,,,79.4138,80.4985,a,1,[],[],[],[],[],[],[],0.4225,1,80.4986,80.9992,,,,,,1202,FEM,AGR,150,cabeza,la,a,0.4225,,,,80.9994,80.9994,0.419444444,0.194444444,0,0,0,,0,9,9,301,1,,,,,
,,,,,,80762990725e4cc67cd2db71,66a626ef09d4e21e1a8894ec,67371d9a2e3972b3bbb983f6,2024-11-15_11h23.56.752,Tarea de género gramatical,2024.2.2,Win32,142.8571429,,,,,,,,,,,,,,,,,,,,,,80.9998,81.9904,a,1,[],[],[],[],[],[],[],0.3275,1,81.9904,82.4894,,,,,,1117,FEM,DIS,150,tarea,el,a,0.3275,,,,82.4894,82.4894,0.419444444,0.194444444,0,0,0,,0,10,10,216,1,,,,,
,,,,,,80762990725e4cc67cd2db71,66a626ef09d4e21e1a8894ec,67371d9a2e3972b3bbb983f6,2024-11-15_11h23.56.752,Tarea de género gramatical,2024.2.2,Win32,142.8571429,,,,,,,,,,,,,,,,,,,,,,82.4898,83.469,a,1,[],[],[],[],[],[],[],0.3197,1,83.469,83.9681,,,,,,1113,FEM,CON,150,magia,,a,0.3197,,,,83.9688,83.9691,0.419444444,0.194444444,0,0,0,,0,11,11,212,1,,,,,
,,,,,,80762990725e4cc67cd2db71,66a626ef09d4e21e1a8894ec,67371d9a2e3972b3bbb983f6,2024-11-15_11h23.56.752,Tarea de género gramatical,2024.2.2,Win32,142.8571429,,,,,,,,,,,,,,,,,,,,,,83.9695,85.0135,l,1,[],[],[],[],[],[],[],0.3829,1,85.0135,85.5129,,,,,,1312,MAS,DIS,150,espejo,la,l,0.3829,,,,85.5129,85.5129,0.419444444,0.194444444,0,0,0,,0,12,12,411,1,,,,,
,,,,,,80762990725e4cc67cd2db71,66a626ef09d4e21e1a8894ec,67371d9a2e3972b3bbb983f6,2024-11-15_11h23.56.752,Tarea de género gramatical,2024.2.2,Win32,142.8571429,,,,,,,,,,,,,,,,,,,,,,85.5133,86.9896,a,1,[],[],[],[],[],[],[],0.8134,1,86.9896,87.4859,,,,,,1010,FEM,AGR,150,rosa,la,a,0.8134,,,,87.4859,87.4859,0.419444444,0.194444444,0,0,0,,0,13,13,109,1,,,,,
,,,,,,80762990725e4cc67cd2db71,66a626ef09d4e21e1a8894ec,67371d9a2e3972b3bbb983f6,2024-11-15_11h23.56.752,Tarea de género gramatical,2024.2.2,Win32,142.8571429,,,,,,,,,,,,,,,,,,,,,,87.4864,88.8518,a,1,[],[],[],[],[],[],[],0.7074,1,88.8518,89.3509,,,,,,962,FEM,AGR,150,sopa,la,a,0.7074,,,,89.3509,89.3509,0.419444444,0.194444444,0,0,0,,0,14,14,61,1,,,,,
,,,,,,80762990725e4cc67cd2db71,66a626ef09d4e21e1a8894ec,67371d9a2e3972b3bbb983f6,2024-11-15_11h23.56.752,Tarea de género gramatical,2024.2.2,Win32,142.8571429,,,,,,,,,,,,,,,,,,,,,,89.3514,90.6852,l,1,[],[],[],[],[],[],[],0.6769,1,90.6853,91.1852,,,,,,1270,MAS,DIS,150,seguro,la,l,0.6769,,,,91.1857,91.186,0.419444444,0.194444444,0,0,0,,0,15,15,369,1,,,,,
,,,,,,80762990725e4cc67cd2db71,66a626ef09d4e21e1a8894ec,67371d9a2e3972b3bbb983f6,2024-11-15_11h23.56.752,Tarea de género gramatical,2024.2.2,Win32,142.8571429,,,,,,,,,,,,,,,,,,,,,,91.1864,92.5736,l,1,[],[],[],[],[],[],[],0.7338,1,92.5736,93.0737,,,,,,1349,MAS,AGR,150,payaso,el,l,0.7338,,,,93.0737,93.0737,0.419444444,0.194444444,0,0,0,,0,16,16,448,1,,,,,
,,,,,,80762990725e4cc67cd2db71,66a626ef09d4e21e1a8894ec,67371d9a2e3972b3bbb983f6,2024-11-15_11h23.56.752,Tarea de género gramatical,2024.2.2,Win32,142.8571429,,,,,,,,,,,,,,,,,,,,,,93.0741,95.0393,a,1,[],[],[],[],[],[],[],1.3021,1,95.0395,95.5394,,,,,,1225,FEM,DIS,150,tierra,el,a,1.3021,,,,95.5394,95.5395,0.419444444,0.194444444,0,0,0,,0,17,17,324,1,,,,,
,,,,,,80762990725e4cc67cd2db71,66a626ef09d4e21e1a8894ec,67371d9a2e3972b3bbb983f6,2024-11-15_11h23.56.752,Tarea de género gramatical,2024.2.2,Win32,142.8571429,,,,,,,,,,,,,,,,,,,,,,95.5398,97.251,a,1,[],[],[],[],[],[],[],1.0548,1,97.251,97.7481,,,,,,939,FEM,CON,150,luna,,a,1.0548,,,,97.7481,97.7483,0.419444444,0.194444444,0,0,0,,0,18,18,38,1,,,,,
,,,,,,80762990725e4cc67cd2db71,66a626ef09d4e21e1a8894ec,67371d9a2e3972b3bbb983f6,2024-11-15_11h23.56.752,Tarea de género gramatical,2024.2.2,Win32,142.8571429,,,,,,,,,,,,,,,,,,,,,,97.7488,99.0816,l,1,[],[],[],[],[],[],[],0.6785,1,99.0816,99.5816,,,,,,905,MAS,AGR,150,tipo,el,l,0.6785,,,,99.5816,99.5817,0.419444444,0.194444444,0,0,0,,0,19,19,4,1,,,,,
,,,,,,80762990725e4cc67cd2db71,66a626ef09d4e21e1a8894ec,67371d9a2e3972b3bbb983f6,2024-11-15_11h23.56.752,Tarea de género gramatical,2024.2.2,Win32,142.8571429,,,,,,,,,,,,,,,,,,,,,,99.5821,101.0888,l,0,[],[],[],[],[],[],[],0.848,0,101.0892,101.5889,,,,,,1291,FEM,DIS,150,altura,el,a,0.848,,,,101.5895,101.5899,0.419444444,0.194444444,0,0,0,,0,20,20,390,1,,,,,
,,,,,,80762990725e4cc67cd2db71,66a626ef09d4e21e1a8894ec,67371d9a2e3972b3bbb983f6,2024-11-15_11h23.56.752,Tarea de género gramatical,2024.2.2,Win32,142.8571429,,,,,,,,,,,,,,,,,,,,,,101.5901,103.6657,a,1,[],[],[],[],[],[],[],1.4198,1,103.6661,104.1657,,,,,,1039,FEM,DIS,150,pipa,el,a,1.4198,,,,104.1657,104.1657,0.419444444,0.194444444,0,0,0,,0,21,21,138,1,,,,,
,,,,,,80762990725e4cc67cd2db71,66a626ef09d4e21e1a8894ec,67371d9a2e3972b3bbb983f6,2024-11-15_11h23.56.752,Tarea de género gramatical,2024.2.2,Win32,142.8571429,,,,,,,,,,,,,,,,,,,,,,104.1661,105.9647,l,1,[],[],[],[],[],[],[],1.139,1,105.9647,106.4611,,,,,,1074,MAS,CON,150,perro,,l,1.139,,,,106.4611,106.4611,0.419444444,0.194444444,0,0,0,,0,22,22,173,1,,,,,
,,,,,,80762990725e4cc67cd2db71,66a626ef09d4e21e1a8894ec,67371d9a2e3972b3bbb983f6,2024-11-15_11h23.56.752,Tarea de género gramatical,2024.2.2,Win32,142.8571429,,,,,,,,,,,,,,,,,,,,,,106.4618,107.6461,l,1,[],[],[],[],[],[],[],0.5269,1,107.6462,108.1455,,,,,,1134,MAS,CON,150,héroe,,l,0.5269,,,,108.1455,108.1456,0.419444444,0.194444444,0,0,0,,0,23,23,233,1,,,,,
,,,,,,80762990725e4cc67cd2db71,66a626ef09d4e21e1a8894ec,67371d9a2e3972b3bbb983f6,2024-11-15_11h23.56.752,Tarea de género gramatical,2024.2.2,Win32,142.8571429,,,,,,,,,,,,,,,,,,,,,,108.146,109.1951,a,1,[],[],[],[],[],[],[],0.3943,1,109.1951,109.6944,,,,,,944,FEM,AGR,150,zona,la,a,0.3943,,,,109.6948,109.6951,0.419444444,0.194444444,0,0,0,,0,24,24,43,1,,,,,
,,,,,,80762990725e4cc67cd2db71,66a626ef09d4e21e1a8894ec,67371d9a2e3972b3bbb983f6,2024-11-15_11h23.56.752,Tarea de género gramatical,2024.2.2,Win32,142.8571429,,,,,,,,,,,,,,,,,,,,,,109.6953,110.8897,l,1,[],[],[],[],[],[],[],0.5334,1,110.8897,111.389,,,,,,1055,MAS,AGR,150,mundo,el,l,0.5334,,,,111.3891,111.3891,0.419444444,0.194444444,0,0,0,,0,25,25,154,1,,,,,
,,,,,,80762990725e4cc67cd2db71,66a626ef09d4e21e1a8894ec,67371d9a2e3972b3bbb983f6,2024-11-15_11h23.56.752,Tarea de género gramatical,2024.2.2,Win32,142.8571429,,,,,,,,,,,,,,,,,,,,,,111.3894,112.886,a,1,[],[],[],[],[],[],[],0.8425,1,112.886,113.3852,,,,,,1107,FEM,CON,150,playa,,a,0.8425,,,,113.3852,113.3852,0.419444444,0.194444444,0,0,0,,0,26,26,206,1,,,,,
,,,,,,80762990725e4cc67cd2db71,66a626ef09d4e21e1a8894ec,67371d9a2e3972b3bbb983f6,2024-11-15_11h23.56.752,Tarea de género gramatical,2024.2.2,Win32,142.8571429,,,,,,,,,,,,,,,,,,,,,,113.3856,114.5076,l,1,[],[],[],[],[],[],[],0.4601,1,114.5076,115.0083,,,,,,1164,MAS,CON,150,pollo,,l,0.4601,,,,115.0083,115.0083,0.419444444,0.194444444,0,0,0,,0,27,27,263,1,,,,,
,,,,,,80762990725e4cc67cd2db71,66a626ef09d4e21e1a8894ec,67371d9a2e3972b3bbb983f6,2024-11-15_11h23.56.752,Tarea de género gramatical,2024.2.2,Win32,142.8571429,,,,,,,,,,,,,,,,,,,,,,115.0088,116.0182,a,1,[],[],[],[],[],[],[],0.3562,1,116.0183,116.5149,,,,,,1100,FEM,AGR,150,silla,la,a,0.3562,,,,116.5149,116.5149,0.419444444,0.194444444,0,0,0,,0,28,28,199,1,,,,,
,,,,,,80762990725e4cc67cd2db71,66a626ef09d4e21e1a8894ec,67371d9a2e3972b3bbb983f6,2024-11-15_11h23.56.752,Tarea de género gramatical,2024.2.2,Win32,142.8571429,,,,,,,,,,,,,,,,,,,,,,116.5154,117.5427,l,0,[],[],[],[],[],[],[],0.371,0,117.543,118.0429,,,,,,1052,FEM,AGR,150,gente,la,a,0.371,,,,118.0436,118.0439,0.419444444,0.194444444,0,0,0,,0,29,29,151,1,,,,,
,,,,,,80762990725e4cc67cd2db71,66a626ef09d4e21e1a8894ec,67371d9a2e3972b3bbb983f6,2024-11-15_11h23.56.752,Tarea de género gramatical,2024.2.2,Win32,142.8571429,,,,,,,,,,,,,,,,,,,,,,118.0443,120.2376,a,1,[],[],[],[],[],[],[],1.5357,1,120.238,120.7362,,,,,,1022,FEM,AGR,150,loca,la,a,1.5357,,,,120.7362,120.7362,0.419444444,0.194444444,0,0,0,,0,30,30,121,1,,,,,
,,,,,,80762990725e4cc67cd2db71,66a626ef09d4e21e1a8894ec,67371d9a2e3972b3bbb983f6,2024-11-15_11h23.56.752,Tarea de género gramatical,2024.2.2,Win32,142.8571429,,,,,,,,,,,,,,,,,,,,,,120.7366,121.9214,a,1,[],[],[],[],[],[],[],0.53,1,121.9215,122.4216,,,,,,1297,FEM,DIS,150,cuerda,el,a,0.53,,,,122.4217,122.4217,0.419444444,0.194444444,0,0,0,,0,31,31,396,1,,,,,
,,,,,,80762990725e4cc67cd2db71,66a626ef09d4e21e1a8894ec,67371d9a2e3972b3bbb983f6,2024-11-15_11h23.56.752,Tarea de género gramatical,2024.2.2,Win32,142.8571429,,,,,,,,,,,,,,,,,,,,,,122.4222,123.6062,l,1,[],[],[],[],[],[],[],0.5314,1,123.6062,124.107,,,,,,923,MAS,AGR,150,rato,el,l,0.5314,,,,124.107,124.107,0.419444444,0.194444444,0,0,0,,0,32,32,22,1,,,,,
,,,,,,80762990725e4cc67cd2db71,66a626ef09d4e21e1a8894ec,67371d9a2e3972b3bbb983f6,2024-11-15_11h23.56.752,Tarea de género gramatical,2024.2.2,Win32,142.8571429,,,,,,,,,,,,,,,,,,,,,,124.1074,125.2553,a,1,[],[],[],[],[],[],[],0.4914,1,125.2553,125.7549,,,,,,1011,FEM,CON,150,goma,,a,0.4914,,,,125.7554,125.7557,0.419444444,0.194444444,0,0,0,,0,33,33,110,1,,,,,
,,,,,,80762990725e4cc67cd2db71,66a626ef09d4e21e1a8894ec,67371d9a2e3972b3bbb983f6,2024-11-15_11h23.56.752,Tarea de género gramatical,2024.2.2,Win32,142.8571429,,,,,,,,,,,,,,,,,,,,,,125.756,127.0033,a,0,[],[],[],[],[],[],[],0.5871,0,127.0036,127.5033,,,,,,942,MAS,CON,150,show,,l,0.5871,,,,127.5033,127.5034,0.419444444,0.194444444,0,0,0,,0,34,34,41,1,,,,,
,,,,,,80762990725e4cc67cd2db71,66a626ef09d4e21e1a8894ec,67371d9a2e3972b3bbb983f6,2024-11-15_11h23.56.752,Tarea de género gramatical,2024.2.2,Win32,142.8571429,,,,,,,,,,,,,,,,,,,,,,127.5037,128.6139,a,1,[],[],[],[],[],[],[],0.4556,1,128.6142,129.1147,,,,,,1083,FEM,CON,150,llave,,a,0.4556,,,,129.1147,129.1148,0.419444444,0.194444444,0,0,0,,0,35,35,182,1,,,,,
,,,,,,80762990725e4cc67cd2db71,66a626ef09d4e21e1a8894ec,67371d9a2e3972b3bbb983f6,2024-11-15_11h23.56.752,Tarea de género gramatical,2024.2.2,Win32,142.8571429,,,,,,,,,,,,,,,,,,,,,,129.1151,130.1589,a,1,[],[],[],[],[],[],[],0.39,1,130.159,130.6594,,,,,,1033,FEM,DIS,150,joya,el,a,0.39,,,,130.6594,130.6594,0.419444444,0.194444444,0,0,0,,0,36,36,132,1,,,,,
,,,,,,80762990725e4cc67cd2db71,66a626ef09d4e21e1a8894ec,67371d9a2e3972b3bbb983f6,2024-11-15_11h23.56.752,Tarea de género gramatical,2024.2.2,Win32,142.8571429,,,,,,,,,,,,,,,,,,,,,,130.66,131.9416,l,1,[],[],[],[],[],[],[],0.6175,1,131.9416,132.4415,,,,,,1085,MAS,AGR,150,sueño,el,l,0.6175,,,,132.4415,132.4416,0.419444444,0.194444444,0,0,0,,0,37,37,184,1,,,,,
,,,,,,80762990725e4cc67cd2db71,66a626ef09d4e21e1a8894ec,67371d9a2e3972b3bbb983f6,2024-11-15_11h23.56.752,Tarea de género gramatical,2024.2.2,Win32,142.8571429,,,,,,,,,,,,,,,,,,,,,,132.442,133.4966,a,1,[],[],[],[],[],[],[],0.3958,1,133.4967,133.9967,,,,,,1249,FEM,DIS,150,prensa,el,a,0.3958,,,,133.9972,133.9975,0.419444444,0.194444444,0,0,0,,0,38,38,348,1,,,,,
,,,,,,80762990725e4cc67cd2db71,66a626ef09d4e21e1a8894ec,67371d9a2e3972b3bbb983f6,2024-11-15_11h23.56.752,Tarea de género gramatical,2024.2.2,Win32,142.8571429,,,,,,,,,,,,,,,,,,,,,,133.9978,135.2472,a,1,[],[],[],[],[],[],[],0.5904,1,135.2472,135.7469,,,,,,1280,FEM,AGR,150,madera,la,a,0.5904,,,,135.747,135.747,0.419444444,0.194444444,0,0,0,,0,39,39,379,1,,,,,
,,,,,,80762990725e4cc67cd2db71,66a626ef09d4e21e1a8894ec,67371d9a2e3972b3bbb983f6,2024-11-15_11h23.56.752,Tarea de género gramatical,2024.2.2,Win32,142.8571429,,,,,,,,,,,,,,,,,,,,,,135.7474,136.9555,a,1,[],[],[],[],[],[],[],0.5495,1,136.9556,137.4555,,,,,,931,FEM,DIS,150,edad,el,a,0.5495,,,,137.4555,137.4556,0.419444444,0.194444444,0,0,0,,0,40,40,30,1,,,,,
,,,,,,80762990725e4cc67cd2db71,66a626ef09d4e21e1a8894ec,67371d9a2e3972b3bbb983f6,2024-11-15_11h23.56.752,Tarea de género gramatical,2024.2.2,Win32,142.8571429,,,,,,,,,,,,,,,,,,,,,,137.4561,139.0113,l,1,[],[],[],[],[],[],[],0.8991,1,139.0113,139.5114,,,,,,1320,MAS,CON,150,helado,,l,0.8991,,,,139.5114,139.5115,0.419444444,0.194444444,0,0,0,,0,41,41,419,1,,,,,
,,,,,,80762990725e4cc67cd2db71,66a626ef09d4e21e1a8894ec,67371d9a2e3972b3bbb983f6,2024-11-15_11h23.56.752,Tarea de género gramatical,2024.2.2,Win32,142.8571429,,,,,,,,,,,,,,,,,,,,,,139.5118,140.5671,a,1,[],[],[],[],[],[],[],0.3982,1,140.5671,141.0673,,,,,,1183,FEM,DIS,150,pluma,el,a,0.3982,,,,141.0679,141.0682,0.419444444,0.194444444,0,0,0,,0,42,42,282,1,,,,,
,,,,,,80762990725e4cc67cd2db71,66a626ef09d4e21e1a8894ec,67371d9a2e3972b3bbb983f6,2024-11-15_11h23.56.752,Tarea de género gramatical,2024.2.2,Win32,142.8571429,,,,,,,,,,,,,,,,,,,,,,141.0685,142.0883,a,1,[],[],[],[],[],[],[],0.3622,1,142.0883,142.5883,,,,,,1082,FEM,AGR,150,prisa,la,a,0.3622,,,,142.5884,142.5884,0.419444444,0.194444444,0,0,0,,0,43,43,181,1,,,,,
,,,,,,80762990725e4cc67cd2db71,66a626ef09d4e21e1a8894ec,67371d9a2e3972b3bbb983f6,2024-11-15_11h23.56.752,Tarea de género gramatical,2024.2.2,Win32,142.8571429,,,,,,,,,,,,,,,,,,,,,,142.5889,143.5606,a,1,[],[],[],[],[],[],[],0.3145,1,143.5607,144.0607,,,,,,1309,FEM,DIS,150,moneda,el,a,0.3145,,,,144.0607,144.0608,0.419444444,0.194444444,0,0,0,,0,44,44,408,1,,,,,
,,,,,,80762990725e4cc67cd2db71,66a626ef09d4e21e1a8894ec,67371d9a2e3972b3bbb983f6,2024-11-15_11h23.56.752,Tarea de género gramatical,2024.2.2,Win32,142.8571429,,,,,,,,,,,,,,,,,,,,,,144.0612,145.1102,l,1,[],[],[],[],[],[],[],0.3867,1,145.1102,145.6102,,,,,,1056,MAS,CON,150,amigo,,l,0.3867,,,,145.6103,145.6103,0.419444444,0.194444444,0,0,0,,0,45,45,155,1,,,,,
,,,,,,80762990725e4cc67cd2db71,66a626ef09d4e21e1a8894ec,67371d9a2e3972b3bbb983f6,2024-11-15_11h23.56.752,Tarea de género gramatical,2024.2.2,Win32,142.8571429,,,,,,,,,,,,,,,,,,,,,,145.6107,146.6661,a,1,[],[],[],[],[],[],[],0.396,1,146.6661,147.1616,,,,,,955,FEM,DIS,150,taza,el,a,0.396,,,,147.1616,147.1616,0.419444444,0.194444444,0,0,0,,0,46,46,54,1,,,,,
,,,,,,80762990725e4cc67cd2db71,66a626ef09d4e21e1a8894ec,67371d9a2e3972b3bbb983f6,2024-11-15_11h23.56.752,Tarea de género gramatical,2024.2.2,Win32,142.8571429,,,,,,,,,,,,,,,,,,,,,,147.1621,148.8702,l,1,[],[],[],[],[],[],[],1.0502,1,148.8703,149.3696,,,,,,1326,MAS,CON,150,pánico,,l,1.0502,,,,149.37,149.3703,0.419444444,0.194444444,0,0,0,,0,47,47,425,1,,,,,
,,,,,,80762990725e4cc67cd2db71,66a626ef09d4e21e1a8894ec,67371d9a2e3972b3bbb983f6,2024-11-15_11h23.56.752,Tarea de género gramatical,2024.2.2,Win32,142.8571429,,,,,,,,,,,,,,,,,,,,,,149.3705,150.632,a,1,[],[],[],[],[],[],[],0.6016,1,150.632,151.132,,,,,,1341,FEM,CON,150,medida,,a,0.6016,,,,151.1321,151.1321,0.419444444,0.194444444,0,0,0,,0,48,48,440,1,,,,,
,,,,,,80762990725e4cc67cd2db71,66a626ef09d4e21e1a8894ec,67371d9a2e3972b3bbb983f6,2024-11-15_11h23.56.752,Tarea de género gramatical,2024.2.2,Win32,142.8571429,,,,,,,,,,,,,,,,,,,,,,151.1324,152.3001,l,1,[],[],[],[],[],[],[],0.5083,1,152.3002,152.799,,,,,,1230,MAS,CON,150,estado,,l,0.5083,,,,152.7991,152.7992,0.419444444,0.194444444,0,0,0,,0,49,49,329,1,,,,,
,,,,,,80762990725e4cc67cd2db71,66a626ef09d4e21e1a8894ec,67371d9a2e3972b3bbb983f6,2024-11-15_11h23.56.752,Tarea de género gramatical,2024.2.2,Win32,142.8571429,,,,,,,,,,,,,,,,,,,,,,152.7995,154.5138,l,1,[],[],[],[],[],[],[],1.0585,1,154.5138,155.0139,,,,,,1150,MAS,DIS,150,cerdo,la,l,1.0585,,,,155.014,155.014,0.419444444,0.194444444,0,0,0,,0,50,50,249,1,,,,,
,,,,,,80762990725e4cc67cd2db71,66a626ef09d4e21e1a8894ec,67371d9a2e3972b3bbb983f6,2024-11-15_11h23.56.752,Tarea de género gramatical,2024.2.2,Win32,142.8571429,,,,,,,,,,,,,,,,,,,,,,155.0143,156.0662,a,1,[],[],[],[],[],[],[],0.3895,1,156.0664,156.565,,,,,,1191,FEM,CON,150,aguja,,a,0.3895,,,,156.5655,156.5658,0.419444444,0.194444444,0,0,0,,0,51,51,290,1,,,,,
,,,,,,80762990725e4cc67cd2db71,66a626ef09d4e21e1a8894ec,67371d9a2e3972b3bbb983f6,2024-11-15_11h23.56.752,Tarea de género gramatical,2024.2.2,Win32,142.8571429,,,,,,,,,,,,,,,,,,,,,,156.5661,158.029,a,1,[],[],[],[],[],[],[],0.8037,1,158.029,158.5289,,,,,,943,FEM,DIS,150,nena,el,a,0.8037,,,,158.5289,158.5289,0.419444444,0.194444444,0,0,0,,0,52,52,42,1,,,,,
,,,,,,80762990725e4cc67cd2db71,66a626ef09d4e21e1a8894ec,67371d9a2e3972b3bbb983f6,2024-11-15_11h23.56.752,Tarea de género gramatical,2024.2.2,Win32,142.8571429,,,,,,,,,,,,,,,,,,,,,,158.5294,159.9328,l,1,[],[],[],[],[],[],[],0.7419,1,159.9328,160.4329,,,,,,1157,MAS,AGR,150,pecho,el,l,0.7419,,,,160.4329,160.433,0.419444444,0.194444444,0,0,0,,0,53,53,256,1,,,,,
,,,,,,80762990725e4cc67cd2db71,66a626ef09d4e21e1a8894ec,67371d9a2e3972b3bbb983f6,2024-11-15_11h23.56.752,Tarea de género gramatical,2024.2.2,Win32,142.8571429,,,,,,,,,,,,,,,,,,,,,,160.4334,161.6579,l,1,[],[],[],[],[],[],[],0.5642,1,161.6579,162.1568,,,,,,1253,MAS,AGR,150,verano,el,l,0.5642,,,,162.1569,162.1569,0.419444444,0.194444444,0,0,0,,0,54,54,352,1,,,,,
,,,,,,80762990725e4cc67cd2db71,66a626ef09d4e21e1a8894ec,67371d9a2e3972b3bbb983f6,2024-11-15_11h23.56.752,Tarea de género gramatical,2024.2.2,Win32,142.8571429,,,,,,,,,,,,,,,,,,,,,,162.1574,163.1411,a,1,[],[],[],[],[],[],[],0.3258,1,163.1411,163.6408,,,,,,1214,FEM,AGR,150,señora,la,a,0.3258,,,,163.6408,163.6409,0.419444444,0.194444444,0,0,0,,0,55,55,313,1,,,,,
,,,,,,80762990725e4cc67cd2db71,66a626ef09d4e21e1a8894ec,67371d9a2e3972b3bbb983f6,2024-11-15_11h23.56.752,Tarea de género gramatical,2024.2.2,Win32,142.8571429,,,,,,,,,,,,,,,,,,,,,,163.6412,164.6571,a,1,[],[],[],[],[],[],[],0.353,1,164.6571,165.1558,,,,,,1034,FEM,AGR,150,rama,la,a,0.353,,,,165.1561,165.1563,0.419444444,0.194444444,0,0,0,,0,56,56,133,1,,,,,
,,,,,,80762990725e4cc67cd2db71,66a626ef09d4e21e1a8894ec,67371d9a2e3972b3bbb983f6,2024-11-15_11h23.56.752,Tarea de género gramatical,2024.2.2,Win32,142.8571429,,,,,,,,,,,,,,,,,,,,,,165.1566,166.5885,l,1,[],[],[],[],[],[],[],0.7714,1,166.5886,167.0851,,,,,,1025,MAS,AGR,150,bate,el,l,0.7714,,,,167.0851,167.0851,0.419444444,0.194444444,0,0,0,,0,57,57,124,1,,,,,
,,,,,,80762990725e4cc67cd2db71,66a626ef09d4e21e1a8894ec,67371d9a2e3972b3bbb983f6,2024-11-15_11h23.56.752,Tarea de género gramatical,2024.2.2,Win32,142.8571429,,,,,,,,,,,,,,,,,,,,,,167.0855,168.1617,a,1,[],[],[],[],[],[],[],0.4182,1,168.1617,168.6652,,,,,,1177,FEM,DIS,150,plaza,el,a,0.4182,,,,168.6652,168.6653,0.419444444,0.194444444,0,0,0,,0,58,58,276,1,,,,,
,,,,,,80762990725e4cc67cd2db71,66a626ef09d4e21e1a8894ec,67371d9a2e3972b3bbb983f6,2024-11-15_11h23.56.752,Tarea de género gramatical,2024.2.2,Win32,142.8571429,,,,,,,,,,,,,,,,,,,,,,168.6656,169.7244,a,1,[],[],[],[],[],[],[],0.3933,1,169.7245,170.228,,,,,,1087,FEM,DIS,150,lista,el,a,0.3933,,,,170.228,170.2281,0.419444444,0.194444444,0,0,0,,0,59,59,186,1,,,,,
,,,,,,80762990725e4cc67cd2db71,66a626ef09d4e21e1a8894ec,67371d9a2e3972b3bbb983f6,2024-11-15_11h23.56.752,Tarea de género gramatical,2024.2.2,Win32,142.8571429,,,,,,,,,,,,,,,,,,,,,,170.2284,171.2316,l,1,[],[],[],[],[],[],[],0.344,1,171.2317,171.7325,,,,,,1090,MAS,DIS,150,campo,la,l,0.344,,,,171.7331,171.7334,0.419444444,0.194444444,0,0,0,,0,60,60,189,1,,,,,
,,,,,,80762990725e4cc67cd2db71,66a626ef09d4e21e1a8894ec,67371d9a2e3972b3bbb983f6,2024-11-15_11h23.56.752,Tarea de género gramatical,2024.2.2,Win32,142.8571429,,,,,,,,,,,,,,,,,,,,,,171.7338,172.7248,l,1,[],[],[],[],[],[],[],0.3392,1,172.7249,173.225,,,,,,1084,MAS,DIS,150,cielo,la,l,0.3392,,,,173.2251,173.2251,0.419444444,0.194444444,0,0,0,,0,61,61,183,1,,,,,
,,,,,,80762990725e4cc67cd2db71,66a626ef09d4e21e1a8894ec,67371d9a2e3972b3bbb983f6,2024-11-15_11h23.56.752,Tarea de género gramatical,2024.2.2,Win32,142.8571429,,,,,,,,,,,,,,,,,,,,,,173.2256,174.2252,l,1,[],[],[],[],[],[],[],0.3409,1,174.2252,174.7252,,,,,,1272,MAS,CON,150,delito,,l,0.3409,,,,174.7252,174.7253,0.419444444,0.194444444,0,0,0,,0,62,62,371,1,,,,,
,,,,,,80762990725e4cc67cd2db71,66a626ef09d4e21e1a8894ec,67371d9a2e3972b3bbb983f6,2024-11-15_11h23.56.752,Tarea de género gramatical,2024.2.2,Win32,142.8571429,,,,,,,,,,,,,,,,,,,,,,174.7258,175.8573,l,1,[],[],[],[],[],[],[],0.4737,1,175.8573,176.3574,,,,,,1146,MAS,CON,150,humor,,l,0.4737,,,,176.3574,176.3574,0.419444444,0.194444444,0,0,0,,0,63,63,245,1,,,,,
,,,,,,80762990725e4cc67cd2db71,66a626ef09d4e21e1a8894ec,67371d9a2e3972b3bbb983f6,2024-11-15_11h23.56.752,Tarea de género gramatical,2024.2.2,Win32,142.8571429,,,,,,,,,,,,,,,,,,,,,,176.3578,177.4409,l,1,[],[],[],[],[],[],[],0.419,1,177.4409,177.9416,,,,,,1350,MAS,CON,150,conejo,,l,0.419,,,,177.9417,177.9417,0.419444444,0.194444444,0,0,0,,0,64,64,449,1,,,,,
,,,,,,80762990725e4cc67cd2db71,66a626ef09d4e21e1a8894ec,67371d9a2e3972b3bbb983f6,2024-11-15_11h23.56.752,Tarea de género gramatical,2024.2.2,Win32,142.8571429,,,,,,,,,,,,,,,,,,,,,,177.9421,179.0105,l,1,[],[],[],[],[],[],[],0.4105,1,179.0106,179.5114,,,,,,1337,MAS,AGR,150,hombro,el,l,0.4105,,,,179.5118,179.5121,0.419444444,0.194444444,0,0,0,,0,65,65,436,1,,,,,
,,,,,,80762990725e4cc67cd2db71,66a626ef09d4e21e1a8894ec,67371d9a2e3972b3bbb983f6,2024-11-15_11h23.56.752,Tarea de género gramatical,2024.2.2,Win32,142.8571429,,,,,,,,,,,,,,,,,,,,,,179.5124,180.5495,l,1,[],[],[],[],[],[],[],0.3813,1,180.5495,181.0463,,,,,,1037,MAS,AGR,150,coco,el,l,0.3813,,,,181.0463,181.0463,0.419444444,0.194444444,0,0,0,,0,66,66,136,1,,,,,
,,,,,,80762990725e4cc67cd2db71,66a626ef09d4e21e1a8894ec,67371d9a2e3972b3bbb983f6,2024-11-15_11h23.56.752,Tarea de género gramatical,2024.2.2,Win32,142.8571429,,,,,,,,,,,,,,,,,,,,,,181.0466,182.0458,l,1,[],[],[],[],[],[],[],0.3368,1,182.0458,182.5458,,,,,,1013,MAS,AGR,150,toro,el,l,0.3368,,,,182.5458,182.5459,0.419444444,0.194444444,0,0,0,,0,67,67,112,1,,,,,
,,,,,,80762990725e4cc67cd2db71,66a626ef09d4e21e1a8894ec,67371d9a2e3972b3bbb983f6,2024-11-15_11h23.56.752,Tarea de género gramatical,2024.2.2,Win32,142.8571429,,,,,,,,,,,,,,,,,,,,,,182.5463,183.5556,a,1,[],[],[],[],[],[],[],0.3468,1,183.5557,184.056,,,,,,1321,FEM,DIS,150,novela,el,a,0.3468,,,,184.056,184.056,0.419444444,0.194444444,0,0,0,,0,68,68,420,1,,,,,
,,,,,,80762990725e4cc67cd2db71,66a626ef09d4e21e1a8894ec,67371d9a2e3972b3bbb983f6,2024-11-15_11h23.56.752,Tarea de género gramatical,2024.2.2,Win32,142.8571429,,,,,,,,,,,,,,,,,,,,,,184.0565,185.1999,l,1,[],[],[],[],[],[],[],0.485,1,185.1999,185.6991,,,,,,1258,MAS,DIS,150,motivo,la,l,0.485,,,,185.6999,185.7002,0.419444444,0.194444444,0,0,0,,0,69,69,357,1,,,,,
,,,,,,80762990725e4cc67cd2db71,66a626ef09d4e21e1a8894ec,67371d9a2e3972b3bbb983f6,2024-11-15_11h23.56.752,Tarea de género gramatical,2024.2.2,Win32,142.8571429,,,,,,,,,,,,,,,,,,,,,,185.7004,186.6718,l,1,[],[],[],[],[],[],[],0.3083,1,186.6719,187.1716,,,,,,1186,MAS,DIS,150,reino,la,l,0.3083,,,,187.1716,187.1716,0.419444444,0.194444444,0,0,0,,0,70,70,285,1,,,,,
,,,,,,80762990725e4cc67cd2db71,66a626ef09d4e21e1a8894ec,67371d9a2e3972b3bbb983f6,2024-11-15_11h23.56.752,Tarea de género gramatical,2024.2.2,Win32,142.8571429,,,,,,,,,,,,,,,,,,,,,,187.172,188.1683,l,1,[],[],[],[],[],[],[],0.3363,1,188.1684,188.6649,,,,,,1145,MAS,AGR,150,turno,el,l,0.3363,,,,188.6649,188.6649,0.419444444,0.194444444,0,0,0,,0,71,71,244,1,,,,,
,,,,,,80762990725e4cc67cd2db71,66a626ef09d4e21e1a8894ec,67371d9a2e3972b3bbb983f6,2024-11-15_11h23.56.752,Tarea de género gramatical,2024.2.2,Win32,142.8571429,,,,,,,,,,,,,,,,,,,,,,188.6654,189.7971,l,1,[],[],[],[],[],[],[],0.4775,1,189.7971,190.2971,,,,,,1336,MAS,DIS,150,objeto,la,l,0.4775,,,,190.2971,190.2971,0.419444444,0.194444444,0,0,0,,0,72,72,435,1,,,,,
,,,,,,80762990725e4cc67cd2db71,66a626ef09d4e21e1a8894ec,67371d9a2e3972b3bbb983f6,2024-11-15_11h23.56.752,Tarea de género gramatical,2024.2.2,Win32,142.8571429,,,,,,,,,,,,,,,,,,,,,,190.2976,191.3554,a,1,[],[],[],[],[],[],[],0.4046,1,191.3555,191.8528,,,,,,913,FEM,DIS,150,hija,el,a,0.4046,,,,191.8529,191.8529,0.419444444,0.194444444,0,0,0,,0,73,73,12,1,,,,,
,,,,,,80762990725e4cc67cd2db71,66a626ef09d4e21e1a8894ec,67371d9a2e3972b3bbb983f6,2024-11-15_11h23.56.752,Tarea de género gramatical,2024.2.2,Win32,142.8571429,,,,,,,,,,,,,,,,,,,,,,191.8532,192.978,l,1,[],[],[],[],[],[],[],0.4608,1,192.978,193.4781,,,,,,1181,MAS,AGR,150,actor,el,l,0.4608,,,,193.4788,193.4791,0.419444444,0.194444444,0,0,0,,0,74,74,280,1,,,,,
,,,,,,80762990725e4cc67cd2db71,66a626ef09d4e21e1a8894ec,67371d9a2e3972b3bbb983f6,2024-11-15_11h23.56.752,Tarea de género gramatical,2024.2.2,Win32,142.8571429,,,,,,,,,,,,,,,,,,,,,,193.4793,194.5444,l,1,[],[],[],[],[],[],[],0.406,1,194.5445,195.0416,,,,,,940,MAS,DIS,150,dios,la,l,0.406,,,,195.0416,195.0416,0.419444444,0.194444444,0,0,0,,0,75,75,39,1,,,,,
,,,,,,80762990725e4cc67cd2db71,66a626ef09d4e21e1a8894ec,67371d9a2e3972b3bbb983f6,2024-11-15_11h23.56.752,Tarea de género gramatical,2024.2.2,Win32,142.8571429,,,,,,,,,,,,,,,,,,,,,,195.042,196.1213,a,1,[],[],[],[],[],[],[],0.4199,1,196.1213,196.6202,,,,,,1274,FEM,AGR,150,herida,la,a,0.4199,,,,196.6202,196.6202,0.419444444,0.194444444,0,0,0,,0,76,76,373,1,,,,,
,,,,,,80762990725e4cc67cd2db71,66a626ef09d4e21e1a8894ec,67371d9a2e3972b3bbb983f6,2024-11-15_11h23.56.752,Tarea de género gramatical,2024.2.2,Win32,142.8571429,,,,,,,,,,,,,,,,,,,,,,196.6207,197.7635,l,1,[],[],[],[],[],[],[],0.4754,1,197.7636,198.2635,,,,,,1032,MAS,CON,150,velo,,l,0.4754,,,,198.2635,198.2636,0.419444444,0.194444444,0,0,0,,0,77,77,131,1,,,,,
,,,,,,80762990725e4cc67cd2db71,66a626ef09d4e21e1a8894ec,67371d9a2e3972b3bbb983f6,2024-11-15_11h23.56.752,Tarea de género gramatical,2024.2.2,Win32,142.8571429,,,,,,,,,,,,,,,,,,,,,,198.2641,199.4451,l,1,[],[],[],[],[],[],[],0.5266,1,199.4452,199.9452,,,,,,1254,MAS,CON,150,camión,,l,0.5266,,,,199.9457,199.9459,0.419444444,0.194444444,0,0,0,,0,78,78,353,1,,,,,
,,,,,,80762990725e4cc67cd2db71,66a626ef09d4e21e1a8894ec,67371d9a2e3972b3bbb983f6,2024-11-15_11h23.56.752,Tarea de género gramatical,2024.2.2,Win32,142.8571429,,,,,,,,,,,,,,,,,,,,,,199.9461,200.9862,l,1,[],[],[],[],[],[],[],0.3761,1,200.9863,201.487,,,,,,1211,MAS,AGR,150,camino,el,l,0.3761,,,,201.487,201.4871,0.419444444,0.194444444,0,0,0,,0,79,79,310,1,,,,,
,,,,,,80762990725e4cc67cd2db71,66a626ef09d4e21e1a8894ec,67371d9a2e3972b3bbb983f6,2024-11-15_11h23.56.752,Tarea de género gramatical,2024.2.2,Win32,142.8571429,,,,,,,,,,,,,,,,,,,,,,201.4874,202.5976,l,0,[],[],[],[],[],[],[],0.4486,0,202.5979,203.0976,,,,,,1059,FEM,CON,150,clase,,a,0.4486,,,,203.0976,203.0977,0.419444444,0.194444444,0,0,0,,0,80,80,158,1,,,,,
,,,,,,80762990725e4cc67cd2db71,66a626ef09d4e21e1a8894ec,67371d9a2e3972b3bbb983f6,2024-11-15_11h23.56.752,Tarea de género gramatical,2024.2.2,Win32,142.8571429,,,,,,,,,,,,,,,,,,,,,,203.0979,204.3686,l,1,[],[],[],[],[],[],[],0.616,1,204.3689,204.8688,,,,,,1121,MAS,AGR,150,brazo,el,l,0.616,,,,204.8688,204.8689,0.419444444,0.194444444,0,0,0,,0,81,81,220,1,,,,,
,,,,,,80762990725e4cc67cd2db71,66a626ef09d4e21e1a8894ec,67371d9a2e3972b3bbb983f6,2024-11-15_11h23.56.752,Tarea de género gramatical,2024.2.2,Win32,142.8571429,,,,,,,,,,,,,,,,,,,,,,204.8693,205.973,a,1,[],[],[],[],[],[],[],0.4456,1,205.973,206.4731,,,,,,1299,FEM,CON,150,charla,,a,0.4456,,,,206.4731,206.4731,0.419444444,0.194444444,0,0,0,,0,82,82,398,1,,,,,
,,,,,,80762990725e4cc67cd2db71,66a626ef09d4e21e1a8894ec,67371d9a2e3972b3bbb983f6,2024-11-15_11h23.56.752,Tarea de género gramatical,2024.2.2,Win32,142.8571429,,,,,,,,,,,,,,,,,,,,,,206.4735,207.6539,a,1,[],[],[],[],[],[],[],0.5227,1,207.6539,208.1539,,,,,,967,FEM,DIS,150,miel,el,a,0.5227,,,,208.1545,208.1547,0.419444444,0.194444444,0,0,0,,0,83,83,66,1,,,,,
,,,,,,80762990725e4cc67cd2db71,66a626ef09d4e21e1a8894ec,67371d9a2e3972b3bbb983f6,2024-11-15_11h23.56.752,Tarea de género gramatical,2024.2.2,Win32,142.8571429,,,,,,,,,,,,,,,,,,,,,,208.1549,209.3216,l,1,[],[],[],[],[],[],[],0.5135,1,209.3217,209.8209,,,,,,983,MAS,AGR,150,nene,el,l,0.5135,,,,209.8209,209.8209,0.419444444,0.194444444,0,0,0,,0,84,84,82,1,,,,,
,,,,,,80762990725e4cc67cd2db71,66a626ef09d4e21e1a8894ec,67371d9a2e3972b3bbb983f6,2024-11-15_11h23.56.752,Tarea de género gramatical,2024.2.2,Win32,142.8571429,,,,,,,,,,,,,,,,,,,,,,209.8215,210.8636,l,1,[],[],[],[],[],[],[],0.3882,1,210.8636,211.3587,,,,,,934,MAS,DIS,150,gato,la,l,0.3882,,,,211.3587,211.3587,0.419444444,0.194444444,0,0,0,,0,85,85,33,1,,,,,
,,,,,,80762990725e4cc67cd2db71,66a626ef09d4e21e1a8894ec,67371d9a2e3972b3bbb983f6,2024-11-15_11h23.56.752,Tarea de género gramatical,2024.2.2,Win32,142.8571429,,,,,,,,,,,,,,,,,,,,,,211.3591,212.2665,l,1,[],[],[],[],[],[],[],0.2562,1,212.2665,212.7624,,,,,,965,MAS,AGR,150,rayo,el,l,0.2562,,,,212.7624,212.7624,0.419444444,0.194444444,0,0,0,,0,86,86,64,1,,,,,
,,,,,,80762990725e4cc67cd2db71,66a626ef09d4e21e1a8894ec,67371d9a2e3972b3bbb983f6,2024-11-15_11h23.56.752,Tarea de género gramatical,2024.2.2,Win32,142.8571429,,,,,,,,,,,,,,,,,,,,,,212.7628,213.8041,a,1,[],[],[],[],[],[],[],0.3827,1,213.8041,214.3007,,,,,,1069,FEM,DIS,150,vista,el,a,0.3827,,,,214.3013,214.3016,0.419444444,0.194444444,0,0,0,,0,87,87,168,1,,,,,
,,,,,,80762990725e4cc67cd2db71,66a626ef09d4e21e1a8894ec,67371d9a2e3972b3bbb983f6,2024-11-15_11h23.56.752,Tarea de género gramatical,2024.2.2,Win32,142.8571429,,,,,,,,,,,,,,,,,,,,,,214.3019,215.2948,a,1,[],[],[],[],[],[],[],0.3336,1,215.2948,215.7941,,,,,,997,FEM,DIS,150,capa,el,a,0.3336,,,,215.7941,215.7941,0.419444444,0.194444444,0,0,0,,0,88,88,96,1,,,,,
,,,,,,80762990725e4cc67cd2db71,66a626ef09d4e21e1a8894ec,67371d9a2e3972b3bbb983f6,2024-11-15_11h23.56.752,Tarea de género gramatical,2024.2.2,Win32,142.8571429,,,,,,,,,,,,,,,,,,,,,,215.7946,216.7705,a,1,[],[],[],[],[],[],[],0.321,1,216.7706,217.2671,,,,,,1251,FEM,CON,150,espada,,a,0.321,,,,217.2671,217.2672,0.419444444,0.194444444,0,0,0,,0,89,89,350,1,,,,,
,,,,,,80762990725e4cc67cd2db71,66a626ef09d4e21e1a8894ec,67371d9a2e3972b3bbb983f6,2024-11-15_11h23.56.752,Tarea de género gramatical,2024.2.2,Win32,142.8571429,,,,,,,,,,,,,,,,,,,,,,217.2676,218.3436,l,1,[],[],[],[],[],[],[],0.4229,1,218.3437,218.8431,,,,,,977,MAS,AGR,150,pico,el,l,0.4229,,,,218.8431,218.8431,0.419444444,0.194444444,0,0,0,,0,90,90,76,1,,,,,
,,,,,,80762990725e4cc67cd2db71,66a626ef09d4e21e1a8894ec,67371d9a2e3972b3bbb983f6,2024-11-15_11h23.56.752,Tarea de género gramatical,2024.2.2,Win32,142.8571429,,,,,,,,,,,,,,,,,,,,,,218.8436,219.8572,l,1,[],[],[],[],[],[],[],0.3575,1,219.8572,220.3572,,,,,,1019,MAS,AGR,150,mito,el,l,0.3575,,,,220.3572,220.3573,0.419444444,0.194444444,0,0,0,,0,91,91,118,1,,,,,
,,,,,,80762990725e4cc67cd2db71,66a626ef09d4e21e1a8894ec,67371d9a2e3972b3bbb983f6,2024-11-15_11h23.56.752,Tarea de género gramatical,2024.2.2,Win32,142.8571429,,,,,,,,,,,,,,,,,,,,,,220.3577,221.375,l,1,[],[],[],[],[],[],[],0.3619,1,221.375,221.8713,,,,,,952,MAS,DIS,150,lago,la,l,0.3619,,,,221.8719,221.8722,0.419444444,0.194444444,0,0,0,,0,92,92,51,1,,,,,
,,,,,,80762990725e4cc67cd2db71,66a626ef09d4e21e1a8894ec,67371d9a2e3972b3bbb983f6,2024-11-15_11h23.56.752,Tarea de género gramatical,2024.2.2,Win32,142.8571429,,,,,,,,,,,,,,,,,,,,,,221.8724,223.1076,l,1,[],[],[],[],[],[],[],0.5771,1,223.1076,223.6112,,,,,,930,MAS,CON,150,cine,,l,0.5771,,,,223.6112,223.6112,0.419444444,0.194444444,0,0,0,,0,93,93,29,1,,,,,
,,,,,,80762990725e4cc67cd2db71,66a626ef09d4e21e1a8894ec,67371d9a2e3972b3bbb983f6,2024-11-15_11h23.56.752,Tarea de género gramatical,2024.2.2,Win32,142.8571429,,,,,,,,,,,,,,,,,,,,,,223.6116,225.4135,l,1,[],[],[],[],[],[],[],1.1395,1,225.4137,225.9136,,,,,,1026,MAS,CON,150,lazo,,l,1.1395,,,,225.9137,225.9137,0.419444444,0.194444444,0,0,0,,0,94,94,125,1,,,,,
,,,,,,80762990725e4cc67cd2db71,66a626ef09d4e21e1a8894ec,67371d9a2e3972b3bbb983f6,2024-11-15_11h23.56.752,Tarea de género gramatical,2024.2.2,Win32,142.8571429,,,,,,,,,,,,,,,,,,,,,,225.9143,227.3999,l,1,[],[],[],[],[],[],[],0.8259,1,227.4,227.9009,,,,,,1086,MAS,CON,150,error,,l,0.8259,,,,227.9009,227.9009,0.419444444,0.194444444,0,0,0,,0,95,95,185,1,,,,,
,,,,,,80762990725e4cc67cd2db71,66a626ef09d4e21e1a8894ec,67371d9a2e3972b3bbb983f6,2024-11-15_11h23.56.752,Tarea de género gramatical,2024.2.2,Win32,142.8571429,,,,,,,,,,,,,,,,,,,,,,227.9012,229.0566,l,1,[],[],[],[],[],[],[],0.4924,1,229.0567,229.553,,,,,,1042,MAS,DIS,150,lodo,la,l,0.4924,,,,229.5536,229.5543,0.419444444,0.194444444,0,0,0,,0,96,96,141,1,,,,,
,,,,,,80762990725e4cc67cd2db71,66a626ef09d4e21e1a8894ec,67371d9a2e3972b3bbb983f6,2024-11-15_11h23.56.752,Tarea de género gramatical,2024.2.2,Win32,142.8571429,,,,,,,,,,,,,,,,,,,,,,229.5546,230.6443,l,1,[],[],[],[],[],[],[],0.4368,1,230.6444,231.1465,,,,,,941,MAS,AGR,150,bote,el,l,0.4368,,,,231.1465,231.1465,0.419444444,0.194444444,0,0,0,,0,97,97,40,1,,,,,
,,,,,,80762990725e4cc67cd2db71,66a626ef09d4e21e1a8894ec,67371d9a2e3972b3bbb983f6,2024-11-15_11h23.56.752,Tarea de género gramatical,2024.2.2,Win32,142.8571429,,,,,,,,,,,,,,,,,,,,,,231.1468,232.2426,a,1,[],[],[],[],[],[],[],0.4367,1,232.2426,232.7411,,,,,,1250,FEM,AGR,150,imagen,la,a,0.4367,,,,232.7411,232.7411,0.419444444,0.194444444,0,0,0,,0,98,98,349,1,,,,,
,,,,,,80762990725e4cc67cd2db71,66a626ef09d4e21e1a8894ec,67371d9a2e3972b3bbb983f6,2024-11-15_11h23.56.752,Tarea de género gramatical,2024.2.2,Win32,142.8571429,,,,,,,,,,,,,,,,,,,,,,232.7415,234.0052,l,1,[],[],[],[],[],[],[],0.6031,1,234.0052,234.5052,,,,,,912,MAS,CON,150,plan,,l,0.6031,,,,234.5053,234.5054,0.419444444,0.194444444,0,0,0,,0,99,99,11,1,,,,,
,,,,,,80762990725e4cc67cd2db71,66a626ef09d4e21e1a8894ec,67371d9a2e3972b3bbb983f6,2024-11-15_11h23.56.752,Tarea de género gramatical,2024.2.2,Win32,142.8571429,,,,,,,,,,,,,,,,,,,,,,234.5057,235.6412,l,1,[],[],[],[],[],[],[],0.4726,1,235.6413,236.1405,,,,,,989,MAS,AGR,150,maíz,el,l,0.4726,,,,236.1405,236.1405,0.419444444,0.194444444,0,0,0,,0,100,100,88,1,,,,,
,,,,,,80762990725e4cc67cd2db71,66a626ef09d4e21e1a8894ec,67371d9a2e3972b3bbb983f6,2024-11-15_11h23.56.752,Tarea de género gramatical,2024.2.2,Win32,142.8571429,,,,,,,,,,,,,,,,,,,,,,236.1409,237.1948,a,1,[],[],[],[],[],[],[],0.396,1,237.1948,237.6939,,,,,,1004,FEM,AGR,150,vela,la,a,0.396,,,,237.6943,237.6948,0.419444444,0.194444444,0,0,0,,0,101,101,103,1,,,,,
,,,,,,80762990725e4cc67cd2db71,66a626ef09d4e21e1a8894ec,67371d9a2e3972b3bbb983f6,2024-11-15_11h23.56.752,Tarea de género gramatical,2024.2.2,Win32,142.8571429,,,,,,,,,,,,,,,,,,,,,,237.6949,238.9441,a,1,[],[],[],[],[],[],[],0.5874,1,238.9441,239.4443,,,,,,1261,FEM,DIS,150,oferta,el,a,0.5874,,,,239.4443,239.4443,0.419444444,0.194444444,0,0,0,,0,102,102,360,1,,,,,
,,,,,,80762990725e4cc67cd2db71,66a626ef09d4e21e1a8894ec,67371d9a2e3972b3bbb983f6,2024-11-15_11h23.56.752,Tarea de género gramatical,2024.2.2,Win32,142.8571429,,,,,,,,,,,,,,,,,,,,,,239.4447,240.541,l,1,[],[],[],[],[],[],[],0.4391,1,240.541,241.041,,,,,,1294,MAS,DIS,150,examen,la,l,0.4391,,,,241.041,241.0411,0.419444444,0.194444444,0,0,0,,0,103,103,393,1,,,,,
,,,,,,80762990725e4cc67cd2db71,66a626ef09d4e21e1a8894ec,67371d9a2e3972b3bbb983f6,2024-11-15_11h23.56.752,Tarea de género gramatical,2024.2.2,Win32,142.8571429,,,,,,,,,,,,,,,,,,,,,,241.0418,242.0627,l,1,[],[],[],[],[],[],[],0.3675,1,242.0628,242.5627,,,,,,911,MAS,AGR,150,país,el,l,0.3675,,,,242.5627,242.5627,0.419444444,0.194444444,0,0,0,,0,104,104,10,1,,,,,
,,,,,,80762990725e4cc67cd2db71,66a626ef09d4e21e1a8894ec,67371d9a2e3972b3bbb983f6,2024-11-15_11h23.56.752,Tarea de género gramatical,2024.2.2,Win32,142.8571429,,,,,,,,,,,,,,,,,,,,,,242.5631,243.6072,l,1,[],[],[],[],[],[],[],0.3898,1,243.6072,244.1046,,,,,,1199,MAS,AGR,150,rumbo,el,l,0.3898,,,,244.105,244.1053,0.419444444,0.194444444,0,0,0,,0,105,105,298,1,,,,,
,,,,,,80762990725e4cc67cd2db71,66a626ef09d4e21e1a8894ec,67371d9a2e3972b3bbb983f6,2024-11-15_11h23.56.752,Tarea de género gramatical,2024.2.2,Win32,142.8571429,,,,,,,,,,,,,,,,,,,,,,244.1055,245.1187,l,1,[],[],[],[],[],[],[],0.3544,1,245.1189,245.6187,,,,,,1091,MAS,AGR,150,dolor,el,l,0.3544,,,,245.6187,245.6187,0.419444444,0.194444444,0,0,0,,0,106,106,190,1,,,,,
,,,,,,80762990725e4cc67cd2db71,66a626ef09d4e21e1a8894ec,67371d9a2e3972b3bbb983f6,2024-11-15_11h23.56.752,Tarea de género gramatical,2024.2.2,Win32,142.8571429,,,,,,,,,,,,,,,,,,,,,,245.6191,246.6529,a,1,[],[],[],[],[],[],[],0.372,1,246.653,247.1468,,,,,,945,FEM,CON,150,isla,,a,0.372,,,,247.1468,247.1468,0.419444444,0.194444444,0,0,0,,0,107,107,44,1,,,,,
,,,,,,80762990725e4cc67cd2db71,66a626ef09d4e21e1a8894ec,67371d9a2e3972b3bbb983f6,2024-11-15_11h23.56.752,Tarea de género gramatical,2024.2.2,Win32,142.8571429,,,,,,,,,,,,,,,,,,,,,,247.1472,248.828,l,1,[],[],[],[],[],[],[],1.0274,1,248.828,249.327,,,,,,1348,MAS,DIS,150,aceite,la,l,1.0274,,,,249.327,249.327,0.419444444,0.194444444,0,0,0,,0,108,108,447,1,,,,,
,,,,,,80762990725e4cc67cd2db71,66a626ef09d4e21e1a8894ec,67371d9a2e3972b3bbb983f6,2024-11-15_11h23.56.752,Tarea de género gramatical,2024.2.2,Win32,142.8571429,,,,,,,,,,,,,,,,,,,,,,249.3275,250.4174,l,1,[],[],[],[],[],[],[],0.4252,1,250.4175,250.9175,,,,,,1318,MAS,DIS,150,pájaro,la,l,0.4252,,,,250.9175,250.9176,0.419444444,0.194444444,0,0,0,,0,109,109,417,1,,,,,
,,,,,,80762990725e4cc67cd2db71,66a626ef09d4e21e1a8894ec,67371d9a2e3972b3bbb983f6,2024-11-15_11h23.56.752,Tarea de género gramatical,2024.2.2,Win32,142.8571429,,,,,,,,,,,,,,,,,,,,,,250.9182,251.9948,a,1,[],[],[],[],[],[],[],0.4227,1,251.9948,252.494,,,,,,1005,FEM,CON,150,jefa,,a,0.4227,,,,252.4945,252.4947,0.419444444,0.194444444,0,0,0,,0,110,110,104,1,,,,,
,,,,,,80762990725e4cc67cd2db71,66a626ef09d4e21e1a8894ec,67371d9a2e3972b3bbb983f6,2024-11-15_11h23.56.752,Tarea de género gramatical,2024.2.2,Win32,142.8571429,,,,,,,,,,,,,,,,,,,,,,252.495,253.5845,a,1,[],[],[],[],[],[],[],0.4211,1,253.5846,254.0854,,,,,,992,FEM,AGR,150,masa,la,a,0.4211,,,,254.0855,254.0855,0.419444444,0.194444444,0,0,0,,0,111,111,91,1,,,,,
,,,,,,80762990725e4cc67cd2db71,66a626ef09d4e21e1a8894ec,67371d9a2e3972b3bbb983f6,2024-11-15_11h23.56.752,Tarea de género gramatical,2024.2.2,Win32,142.8571429,,,,,,,,,,,,,,,,,,,,,,254.0859,255.0987,a,1,[],[],[],[],[],[],[],0.3498,1,255.0987,255.5988,,,,,,1347,FEM,CON,150,lógica,,a,0.3498,,,,255.5988,255.5988,0.419444444,0.194444444,0,0,0,,0,112,112,446,1,,,,,
,,,,,,80762990725e4cc67cd2db71,66a626ef09d4e21e1a8894ec,67371d9a2e3972b3bbb983f6,2024-11-15_11h23.56.752,Tarea de género gramatical,2024.2.2,Win32,142.8571429,,,,,,,,,,,,,,,,,,,,,,255.5993,257.0156,a,1,[],[],[],[],[],[],[],0.7572,1,257.0158,257.5163,,,,,,1057,FEM,DIS,150,madre,el,a,0.7572,,,,257.5163,257.5164,0.419444444,0.194444444,0,0,0,,0,113,113,156,1,,,,,
,,,,,,80762990725e4cc67cd2db71,66a626ef09d4e21e1a8894ec,67371d9a2e3972b3bbb983f6,2024-11-15_11h23.56.752,Tarea de género gramatical,2024.2.2,Win32,142.8571429,,,,,,,,,,,,,,,,,,,,,,257.5167,259.087,a,1,[],[],[],[],[],[],[],0.9109,1,259.0871,259.5871,,,,,,1155,FEM,CON,150,tribu,,a,0.9109,,,,259.5875,259.5877,0.419444444,0.194444444,0,0,0,,0,114,114,254,1,,,,,
,,,,,,80762990725e4cc67cd2db71,66a626ef09d4e21e1a8894ec,67371d9a2e3972b3bbb983f6,2024-11-15_11h23.56.752,Tarea de género gramatical,2024.2.2,Win32,142.8571429,,,,,,,,,,,,,,,,,,,,,,259.5879,260.8357,a,1,[],[],[],[],[],[],[],0.5879,1,260.8358,261.3358,,,,,,1076,FEM,AGR,150,línea,la,a,0.5879,,,,261.3358,261.3359,0.419444444,0.194444444,0,0,0,,0,115,115,175,1,,,,,
,,,,,,80762990725e4cc67cd2db71,66a626ef09d4e21e1a8894ec,67371d9a2e3972b3bbb983f6,2024-11-15_11h23.56.752,Tarea de género gramatical,2024.2.2,Win32,142.8571429,,,,,,,,,,,,,,,,,,,,,,261.3362,262.3568,a,1,[],[],[],[],[],[],[],0.3615,1,262.3568,262.8568,,,,,,1287,FEM,CON,150,página,,a,0.3615,,,,262.8568,262.8569,0.419444444,0.194444444,0,0,0,,0,116,116,386,1,,,,,
,,,,,,80762990725e4cc67cd2db71,66a626ef09d4e21e1a8894ec,67371d9a2e3972b3bbb983f6,2024-11-15_11h23.56.752,Tarea de género gramatical,2024.2.2,Win32,142.8571429,,,,,,,,,,,,,,,,,,,,,,262.8573,263.9751,l,1,[],[],[],[],[],[],[],0.4607,1,263.9751,264.4751,,,,,,1060,MAS,DIS,150,señor,la,l,0.4607,,,,264.4753,264.4753,0.419444444,0.194444444,0,0,0,,0,117,117,159,1,,,,,
,,,,,,80762990725e4cc67cd2db71,66a626ef09d4e21e1a8894ec,67371d9a2e3972b3bbb983f6,2024-11-15_11h23.56.752,Tarea de género gramatical,2024.2.2,Win32,142.8571429,,,,,,,,,,,,,,,,,,,,,,264.4757,265.7185,a,1,[],[],[],[],[],[],[],0.5844,1,265.7185,266.2185,,,,,,1203,FEM,CON,150,maldad,,a,0.5844,,,,266.2185,266.2185,0.419444444,0.194444444,0,0,0,,0,118,118,302,1,,,,,
,,,,,,80762990725e4cc67cd2db71,66a626ef09d4e21e1a8894ec,67371d9a2e3972b3bbb983f6,2024-11-15_11h23.56.752,Tarea de género gramatical,2024.2.2,Win32,142.8571429,,,,,,,,,,,,,,,,,,,,,,266.2188,268.8647,,0,[],[],[],[],[],[],[],0.5844,-1,268.865,269.3648,,,,,,978,MAS,CON,150,oído,,l,,,,,269.3651,269.3654,0.419444444,0.194444444,0,0,0,,0,119,119,77,1,,,,,
,,,,,,80762990725e4cc67cd2db71,66a626ef09d4e21e1a8894ec,67371d9a2e3972b3bbb983f6,2024-11-15_11h23.56.752,Tarea de género gramatical,2024.2.2,Win32,142.8571429,,,,,,,,,,,,,,,,,,,,,,269.3656,270.6914,a,1,[-0.16666666666666666],[0.10648148148148148],[1],[0],[0],[0.35460000000057335],[null],0.6725,1,270.6916,271.1914,,,,,,1160,FEM,AGR,150,barra,la,a,0.6725,,,,271.1915,271.1915,-0.150925926,0.124074074,0,0,0,,0,120,120,259,1,,,,,
,,,,,,80762990725e4cc67cd2db71,66a626ef09d4e21e1a8894ec,67371d9a2e3972b3bbb983f6,2024-11-15_11h23.56.752,Tarea de género gramatical,2024.2.2,Win32,142.8571429,,,,,,,,,,,,,,,,,,,,,,271.192,272.4347,l,1,[],[],[],[],[],[],[],0.5835,1,272.4348,272.9347,,,,,,1054,MAS,DIS,150,padre,la,l,0.5835,,,,272.9347,272.9348,-0.150925926,0.124074074,0,0,0,,0,121,121,153,1,,,,,
,,,,,,80762990725e4cc67cd2db71,66a626ef09d4e21e1a8894ec,67371d9a2e3972b3bbb983f6,2024-11-15_11h23.56.752,Tarea de género gramatical,2024.2.2,Win32,142.8571429,,,,,,,,,,,,,,,,,,,,,,272.9352,274.1156,l,1,[],[],[],[],[],[],[],0.5208,1,274.1156,274.6156,,,,,,904,MAS,DIS,150,hijo,la,l,0.5208,,,,274.6157,274.6157,-0.150925926,0.124074074,0,0,0,,0,122,122,3,1,,,,,
,,,,,,80762990725e4cc67cd2db71,66a626ef09d4e21e1a8894ec,67371d9a2e3972b3bbb983f6,2024-11-15_11h23.56.752,Tarea de género gramatical,2024.2.2,Win32,142.8571429,,,,,,,,,,,,,,,,,,,,,,274.616,275.6643,a,1,[],[],[],[],[],[],[],0.3919,1,275.6644,276.1645,,,,,,926,FEM,AGR,150,pena,la,a,0.3919,,,,276.1648,276.1651,-0.150925926,0.124074074,0,0,0,,0,123,123,25,1,,,,,
,,,,,,80762990725e4cc67cd2db71,66a626ef09d4e21e1a8894ec,67371d9a2e3972b3bbb983f6,2024-11-15_11h23.56.752,Tarea de género gramatical,2024.2.2,Win32,142.8571429,,,,,,,,,,,,,,,,,,,,,,276.1653,277.2758,a,1,[],[],[],[],[],[],[],0.4527,1,277.2758,277.7758,,,,,,1197,FEM,CON,150,manta,,a,0.4527,,,,277.7758,277.7758,-0.150925926,0.124074074,0,0,0,,0,124,124,296,1,,,,,
,,,,,,80762990725e4cc67cd2db71,66a626ef09d4e21e1a8894ec,67371d9a2e3972b3bbb983f6,2024-11-15_11h23.56.752,Tarea de género gramatical,2024.2.2,Win32,142.8571429,,,,,,,,,,,,,,,,,,,,,,277.7762,278.8524,l,1,[],[],[],[],[],[],[],0.4169,1,278.8524,279.3525,,,,,,1218,MAS,CON,150,pueblo,,l,0.4169,,,,279.3525,279.3525,-0.150925926,0.124074074,0,0,0,,0,125,125,317,1,,,,,
,,,,,,80762990725e4cc67cd2db71,66a626ef09d4e21e1a8894ec,67371d9a2e3972b3bbb983f6,2024-11-15_11h23.56.752,Tarea de género gramatical,2024.2.2,Win32,142.8571429,,,,,,,,,,,,,,,,,,,,,,279.3529,280.3804,a,1,[],[],[],[],[],[],[],0.3705,1,280.3804,280.8804,,,,,,1137,FEM,CON,150,ducha,,a,0.3705,,,,280.8804,280.8805,-0.150925926,0.124074074,0,0,0,,0,126,126,236,1,,,,,
,,,,,,80762990725e4cc67cd2db71,66a626ef09d4e21e1a8894ec,67371d9a2e3972b3bbb983f6,2024-11-15_11h23.56.752,Tarea de género gramatical,2024.2.2,Win32,142.8571429,,,,,,,,,,,,,,,,,,,,,,280.8808,281.9014,a,1,[],[],[],[],[],[],[],0.3614,1,281.9015,282.4014,,,,,,1172,FEM,AGR,150,oreja,la,a,0.3614,,,,282.4016,282.4016,-0.150925926,0.124074074,0,0,0,,0,127,127,271,1,,,,,
,,,,,,80762990725e4cc67cd2db71,66a626ef09d4e21e1a8894ec,67371d9a2e3972b3bbb983f6,2024-11-15_11h23.56.752,Tarea de género gramatical,2024.2.2,Win32,142.8571429,,,,,,,,,,,,,,,,,,,,,,282.4019,283.4155,a,1,[],[],[],[],[],[],[],0.3569,1,283.4156,283.9134,,,,,,985,FEM,DIS,150,gira,el,a,0.3569,,,,283.9139,283.9141,-0.150925926,0.124074074,0,0,0,,0,128,128,84,1,,,,,
,,,,,,80762990725e4cc67cd2db71,66a626ef09d4e21e1a8894ec,67371d9a2e3972b3bbb983f6,2024-11-15_11h23.56.752,Tarea de género gramatical,2024.2.2,Win32,142.8571429,,,,,,,,,,,,,,,,,,,,,,283.9143,285.1687,a,1,[],[],[],[],[],[],[],0.5972,1,285.1688,285.6687,,,,,,1201,FEM,DIS,150,verdad,el,a,0.5972,,,,285.6688,285.6688,-0.150925926,0.124074074,0,0,0,,0,129,129,300,1,,,,,
,,,,,,80762990725e4cc67cd2db71,66a626ef09d4e21e1a8894ec,67371d9a2e3972b3bbb983f6,2024-11-15_11h23.56.752,Tarea de género gramatical,2024.2.2,Win32,142.8571429,,,,,,,,,,,,,,,,,,,,,,285.6692,286.8009,a,1,[],[],[],[],[],[],[],0.4722,1,286.801,287.3009,,,,,,1003,FEM,DIS,150,fama,el,a,0.4722,,,,287.3009,287.3009,-0.150925926,0.124074074,0,0,0,,0,130,130,102,1,,,,,
,,,,,,80762990725e4cc67cd2db71,66a626ef09d4e21e1a8894ec,67371d9a2e3972b3bbb983f6,2024-11-15_11h23.56.752,Tarea de género gramatical,2024.2.2,Win32,142.8571429,,,,,,,,,,,,,,,,,,,,,,287.3013,288.4752,l,1,[],[],[],[],[],[],[],0.5144,1,288.4752,288.9719,,,,,,1062,MAS,CON,150,miedo,,l,0.5144,,,,288.972,288.972,-0.150925926,0.124074074,0,0,0,,0,131,131,161,1,,,,,
,,,,,,80762990725e4cc67cd2db71,66a626ef09d4e21e1a8894ec,67371d9a2e3972b3bbb983f6,2024-11-15_11h23.56.752,Tarea de género gramatical,2024.2.2,Win32,142.8571429,,,,,,,,,,,,,,,,,,,,,,288.9724,290.2083,a,1,[],[],[],[],[],[],[],0.5788,1,290.2083,290.7083,,,,,,908,FEM,AGR,150,idea,la,a,0.5788,,,,290.7088,290.7091,-0.150925926,0.124074074,0,0,0,,0,132,132,7,1,,,,,
,,,,,,80762990725e4cc67cd2db71,66a626ef09d4e21e1a8894ec,67371d9a2e3972b3bbb983f6,2024-11-15_11h23.56.752,Tarea de género gramatical,2024.2.2,Win32,142.8571429,,,,,,,,,,,,,,,,,,,,,,290.7094,291.9724,l,1,[],[],[],[],[],[],[],0.6044,1,291.9725,292.4725,,,,,,1198,MAS,DIS,150,botón,la,l,0.6044,,,,292.4725,292.4726,-0.150925926,0.124074074,0,0,0,,0,133,133,297,1,,,,,
,,,,,,80762990725e4cc67cd2db71,66a626ef09d4e21e1a8894ec,67371d9a2e3972b3bbb983f6,2024-11-15_11h23.56.752,Tarea de género gramatical,2024.2.2,Win32,142.8571429,,,,,,,,,,,,,,,,,,,,,,292.4729,293.7645,l,1,[],[],[],[],[],[],[],0.6355,1,293.7645,294.2645,,,,,,960,MAS,CON,150,tono,,l,0.6355,,,,294.2645,294.2646,-0.150925926,0.124074074,0,0,0,,0,134,134,59,1,,,,,
,,,,,,80762990725e4cc67cd2db71,66a626ef09d4e21e1a8894ec,67371d9a2e3972b3bbb983f6,2024-11-15_11h23.56.752,Tarea de género gramatical,2024.2.2,Win32,142.8571429,,,,,,,,,,,,,,,,,,,,,,294.265,295.3895,a,1,[],[],[],[],[],[],[],0.4673,1,295.3896,295.8897,,,,,,1286,FEM,AGR,150,sombra,la,a,0.4673,,,,295.8897,295.8898,-0.150925926,0.124074074,0,0,0,,0,135,135,385,1,,,,,
,,,,,,80762990725e4cc67cd2db71,66a626ef09d4e21e1a8894ec,67371d9a2e3972b3bbb983f6,2024-11-15_11h23.56.752,Tarea de género gramatical,2024.2.2,Win32,142.8571429,,,,,,,,,,,,,,,,,,,,,,295.8901,297.3622,l,1,[],[],[],[],[],[],[],0.8128,1,297.3622,297.8623,,,,,,946,MAS,DIS,150,odio,la,l,0.8128,,,,297.8623,297.8623,-0.150925926,0.124074074,0,0,0,,0,136,136,45,1,,,,,
,,,,,,80762990725e4cc67cd2db71,66a626ef09d4e21e1a8894ec,67371d9a2e3972b3bbb983f6,2024-11-15_11h23.56.752,Tarea de género gramatical,2024.2.2,Win32,142.8571429,,,,,,,,,,,,,,,,,,,,,,297.8626,299.1472,a,1,[],[],[],[],[],[],[],0.6255,1,299.1472,299.6472,,,,,,1053,FEM,CON,150,mujer,,a,0.6255,,,,299.6476,299.6479,-0.150925926,0.124074074,0,0,0,,0,137,137,152,1,,,,,
,,,,,,80762990725e4cc67cd2db71,66a626ef09d4e21e1a8894ec,67371d9a2e3972b3bbb983f6,2024-11-15_11h23.56.752,Tarea de género gramatical,2024.2.2,Win32,142.8571429,,,,,,,,,,,,,,,,,,,,,,299.6481,300.7545,a,1,[],[],[],[],[],[],[],0.4514,1,300.7546,301.2545,,,,,,1262,FEM,AGR,150,fuente,la,a,0.4514,,,,301.2545,301.2546,-0.150925926,0.124074074,0,0,0,,0,138,138,361,1,,,,,
,,,,,,80762990725e4cc67cd2db71,66a626ef09d4e21e1a8894ec,67371d9a2e3972b3bbb983f6,2024-11-15_11h23.56.752,Tarea de género gramatical,2024.2.2,Win32,142.8571429,,,,,,,,,,,,,,,,,,,,,,301.255,302.3559,l,1,[],[],[],[],[],[],[],0.438,1,302.3559,302.8523,,,,,,1128,MAS,CON,150,nivel,,l,0.438,,,,302.8524,302.8524,-0.150925926,0.124074074,0,0,0,,0,139,139,227,1,,,,,
,,,,,,80762990725e4cc67cd2db71,66a626ef09d4e21e1a8894ec,67371d9a2e3972b3bbb983f6,2024-11-15_11h23.56.752,Tarea de género gramatical,2024.2.2,Win32,142.8571429,,,,,,,,,,,,,,,,,,,,,,302.8527,303.9083,a,1,[],[],[],[],[],[],[],0.3893,1,303.9083,304.4049,,,,,,1255,FEM,DIS,150,mirada,el,a,0.3893,,,,304.4049,304.405,-0.150925926,0.124074074,0,0,0,,0,140,140,354,1,,,,,
,,,,,,80762990725e4cc67cd2db71,66a626ef09d4e21e1a8894ec,67371d9a2e3972b3bbb983f6,2024-11-15_11h23.56.752,Tarea de género gramatical,2024.2.2,Win32,142.8571429,,,,,,,,,,,,,,,,,,,,,,304.4054,305.3565,a,1,[],[],[],[],[],[],[],0.2864,1,305.3565,305.8527,,,,,,998,FEM,AGR,150,fuga,la,a,0.2864,,,,305.8531,305.8533,-0.150925926,0.124074074,0,0,0,,0,141,141,97,1,,,,,
,,,,,,80762990725e4cc67cd2db71,66a626ef09d4e21e1a8894ec,67371d9a2e3972b3bbb983f6,2024-11-15_11h23.56.752,Tarea de género gramatical,2024.2.2,Win32,142.8571429,,,,,,,,,,,,,,,,,,,,,,305.8536,307.1206,l,1,[],[],[],[],[],[],[],0.6026,1,307.1206,307.6207,,,,,,1325,MAS,AGR,150,chiste,el,l,0.6026,,,,307.6208,307.6209,-0.150925926,0.124074074,0,0,0,,0,142,142,424,1,,,,,
,,,,,,80762990725e4cc67cd2db71,66a626ef09d4e21e1a8894ec,67371d9a2e3972b3bbb983f6,2024-11-15_11h23.56.752,Tarea de género gramatical,2024.2.2,Win32,142.8571429,,,,,,,,,,,,,,,,,,,,,,307.6214,308.7768,l,1,[],[],[],[],[],[],[],0.4989,1,308.7769,309.2737,,,,,,1014,MAS,CON,150,menú,,l,0.4989,,,,309.2737,309.2737,-0.150925926,0.124074074,0,0,0,,0,143,143,113,1,,,,,
,,,,,,80762990725e4cc67cd2db71,66a626ef09d4e21e1a8894ec,67371d9a2e3972b3bbb983f6,2024-11-15_11h23.56.752,Tarea de género gramatical,2024.2.2,Win32,142.8571429,,,,,,,,,,,,,,,,,,,,,,309.2743,310.2809,a,1,[],[],[],[],[],[],[],0.3424,1,310.2809,310.7771,,,,,,1333,FEM,DIS,150,huella,el,a,0.3424,,,,310.7771,310.7771,-0.150925926,0.124074074,0,0,0,,0,144,144,432,1,,,,,
,,,,,,80762990725e4cc67cd2db71,66a626ef09d4e21e1a8894ec,67371d9a2e3972b3bbb983f6,2024-11-15_11h23.56.752,Tarea de género gramatical,2024.2.2,Win32,142.8571429,,,,,,,,,,,,,,,,,,,,,,310.7775,311.8089,l,1,[],[],[],[],[],[],[],0.3767,1,311.8089,312.3089,,,,,,1217,MAS,AGR,150,número,el,l,0.3767,,,,312.309,312.3091,-0.150925926,0.124074074,0,0,0,,0,145,145,316,1,,,,,
,,,,,,80762990725e4cc67cd2db71,66a626ef09d4e21e1a8894ec,67371d9a2e3972b3bbb983f6,2024-11-15_11h23.56.752,Tarea de género gramatical,2024.2.2,Win32,142.8571429,,,,,,,,,,,,,,,,,,,,,,312.3095,313.2977,a,1,[],[],[],[],[],[],[],0.3261,1,313.2977,313.7952,,,,,,1273,FEM,DIS,150,lluvia,el,a,0.3261,,,,313.796,313.7962,-0.150925926,0.124074074,0,0,0,,0,146,146,372,1,,,,,
,,,,,,80762990725e4cc67cd2db71,66a626ef09d4e21e1a8894ec,67371d9a2e3972b3bbb983f6,2024-11-15_11h23.56.752,Tarea de género gramatical,2024.2.2,Win32,142.8571429,,,,,,,,,,,,,,,,,,,,,,313.7964,314.792,a,1,[],[],[],[],[],[],[],0.3335,1,314.7921,315.2919,,,,,,1101,FEM,CON,150,leche,,a,0.3335,,,,315.2919,315.292,-0.150925926,0.124074074,0,0,0,,0,147,147,200,1,,,,,
,,,,,,80762990725e4cc67cd2db71,66a626ef09d4e21e1a8894ec,67371d9a2e3972b3bbb983f6,2024-11-15_11h23.56.752,Tarea de género gramatical,2024.2.2,Win32,142.8571429,,,,,,,,,,,,,,,,,,,,,,315.2923,316.3165,l,1,[],[],[],[],[],[],[],0.3701,1,316.3165,316.8127,,,,,,906,MAS,CON,150,lado,,l,0.3701,,,,316.8127,316.8127,-0.150925926,0.124074074,0,0,0,,0,148,148,5,1,,,,,
,,,,,,80762990725e4cc67cd2db71,66a626ef09d4e21e1a8894ec,67371d9a2e3972b3bbb983f6,2024-11-15_11h23.56.752,Tarea de género gramatical,2024.2.2,Win32,142.8571429,,,,,,,,,,,,,,,,,,,,,,316.8131,317.8723,a,0,[],[],[],[],[],[],[],0.3912,0,317.8726,318.3675,,,,,,954,MAS,CON,150,humo,,l,0.3912,,,,318.3675,318.3675,-0.150925926,0.124074074,0,0,0,,0,149,149,53,1,,,,,
,,,,,,80762990725e4cc67cd2db71,66a626ef09d4e21e1a8894ec,67371d9a2e3972b3bbb983f6,2024-11-15_11h23.56.752,Tarea de género gramatical,2024.2.2,Win32,142.8571429,,,,,,,,,,,,,,,,,,,,,,318.3679,319.8266,l,1,[],[],[],[],[],[],[],0.7984,1,319.8268,320.324,,,,,,936,MAS,CON,150,dedo,,l,0.7984,,,,320.3245,428.675,-0.330555556,0.178703704,0,0,0,space,0,150,150,35,1,,108.3408,,,
,,,,,,80762990725e4cc67cd2db71,66a626ef09d4e21e1a8894ec,67371d9a2e3972b3bbb983f6,2024-11-15_11h23.56.752,Tarea de género gramatical,2024.2.2,Win32,142.8571429,,,,,,,,,,,,,,,,,,,,,,428.6755,430.6496,a,0,[],[],[],[],[],[],[],1.3118,0,430.6499,431.1493,,,,,,1277,MAS,AGR,150,jardín,el,l,1.3118,,,,431.1493,431.1493,-0.330555556,0.178703704,0,0,0,,0,151,151,376,1,,,,,
,,,,,,80762990725e4cc67cd2db71,66a626ef09d4e21e1a8894ec,67371d9a2e3972b3bbb983f6,2024-11-15_11h23.56.752,Tarea de género gramatical,2024.2.2,Win32,142.8571429,,,,,,,,,,,,,,,,,,,,,,431.1497,432.5505,l,1,[],[],[],[],[],[],[],0.7433,1,432.5507,433.0504,,,,,,1061,MAS,AGR,150,chico,el,l,0.7433,,,,433.0504,433.0504,-0.330555556,0.178703704,0,0,0,,0,152,152,160,1,,,,,
,,,,,,80762990725e4cc67cd2db71,66a626ef09d4e21e1a8894ec,67371d9a2e3972b3bbb983f6,2024-11-15_11h23.56.752,Tarea de género gramatical,2024.2.2,Win32,142.8571429,,,,,,,,,,,,,,,,,,,,,,433.0508,434.1293,a,1,[],[],[],[],[],[],[],0.4171,1,434.1293,434.6248,,,,,,1327,FEM,DIS,150,agenda,el,a,0.4171,,,,434.6248,434.6248,-0.330555556,0.178703704,0,0,0,,0,153,153,426,1,,,,,
,,,,,,80762990725e4cc67cd2db71,66a626ef09d4e21e1a8894ec,67371d9a2e3972b3bbb983f6,2024-11-15_11h23.56.752,Tarea de género gramatical,2024.2.2,Win32,142.8571429,,,,,,,,,,,,,,,,,,,,,,434.6252,436.0649,a,1,[],[],[],[],[],[],[],0.784,1,436.0649,436.5649,,,,,,1267,FEM,DIS,150,teoría,el,a,0.784,,,,436.5649,436.5649,-0.330555556,0.178703704,0,0,0,,0,154,154,366,1,,,,,
,,,,,,80762990725e4cc67cd2db71,66a626ef09d4e21e1a8894ec,67371d9a2e3972b3bbb983f6,2024-11-15_11h23.56.752,Tarea de género gramatical,2024.2.2,Win32,142.8571429,,,,,,,,,,,,,,,,,,,,,,436.5653,437.7102,l,1,[],[],[],[],[],[],[],0.4886,1,437.7102,438.2103,,,,,,1122,MAS,CON,150,valor,,l,0.4886,,,,438.2107,438.2111,-0.330555556,0.178703704,0,0,0,,0,155,155,221,1,,,,,
,,,,,,80762990725e4cc67cd2db71,66a626ef09d4e21e1a8894ec,67371d9a2e3972b3bbb983f6,2024-11-15_11h23.56.752,Tarea de género gramatical,2024.2.2,Win32,142.8571429,,,,,,,,,,,,,,,,,,,,,,438.2114,439.3355,a,1,[],[],[],[],[],[],[],0.4669,1,439.3355,439.8355,,,,,,1023,FEM,CON,150,tela,,a,0.4669,,,,439.8355,439.8355,-0.330555556,0.178703704,0,0,0,,0,156,156,122,1,,,,,
,,,,,,80762990725e4cc67cd2db71,66a626ef09d4e21e1a8894ec,67371d9a2e3972b3bbb983f6,2024-11-15_11h23.56.752,Tarea de género gramatical,2024.2.2,Win32,142.8571429,,,,,,,,,,,,,,,,,,,,,,439.836,440.9815,l,0,[],[],[],[],[],[],[],0.4853,0,440.9818,441.4816,,,,,,925,FEM,DIS,150,nave,el,a,0.4853,,,,441.4816,441.4816,-0.330555556,0.178703704,0,0,0,,0,157,157,24,1,,,,,
,,,,,,80762990725e4cc67cd2db71,66a626ef09d4e21e1a8894ec,67371d9a2e3972b3bbb983f6,2024-11-15_11h23.56.752,Tarea de género gramatical,2024.2.2,Win32,142.8571429,,,,,,,,,,,,,,,,,,,,,,441.4821,443.0721,a,1,[],[],[],[],[],[],[],0.932,1,443.0724,443.5751,,,,,,1285,FEM,DIS,150,muñeca,el,a,0.932,,,,443.5752,443.5753,-0.330555556,0.178703704,0,0,0,,0,158,158,384,1,,,,,
,,,,,,80762990725e4cc67cd2db71,66a626ef09d4e21e1a8894ec,67371d9a2e3972b3bbb983f6,2024-11-15_11h23.56.752,Tarea de género gramatical,2024.2.2,Win32,142.8571429,,,,,,,,,,,,,,,,,,,,,,443.5757,444.7355,l,1,[],[],[],[],[],[],[],0.5008,1,444.7355,445.2322,,,,,,984,MAS,CON,150,mago,,l,0.5008,,,,445.2326,445.2329,-0.330555556,0.178703704,0,0,0,,0,159,159,83,1,,,,,
,,,,,,80762990725e4cc67cd2db71,66a626ef09d4e21e1a8894ec,67371d9a2e3972b3bbb983f6,2024-11-15_11h23.56.752,Tarea de género gramatical,2024.2.2,Win32,142.8571429,,,,,,,,,,,,,,,,,,,,,,445.2334,446.268,a,1,[],[],[],[],[],[],[],0.3812,1,446.268,446.7671,,,,,,961,FEM,DIS,150,ruta,el,a,0.3812,,,,446.7671,446.7672,-0.330555556,0.178703704,0,0,0,,0,160,160,60,1,,,,,
,,,,,,80762990725e4cc67cd2db71,66a626ef09d4e21e1a8894ec,67371d9a2e3972b3bbb983f6,2024-11-15_11h23.56.752,Tarea de género gramatical,2024.2.2,Win32,142.8571429,,,,,,,,,,,,,,,,,,,,,,446.7675,448.3785,l,1,[],[],[],[],[],[],[],0.9555,1,448.3785,448.8786,,,,,,1180,MAS,DIS,150,salón,la,l,0.9555,,,,448.8786,448.8786,-0.330555556,0.178703704,0,0,0,,0,161,161,279,1,,,,,
,,,,,,80762990725e4cc67cd2db71,66a626ef09d4e21e1a8894ec,67371d9a2e3972b3bbb983f6,2024-11-15_11h23.56.752,Tarea de género gramatical,2024.2.2,Win32,142.8571429,,,,,,,,,,,,,,,,,,,,,,448.879,450.1287,l,1,[],[],[],[],[],[],[],0.5939,1,450.1288,450.6288,,,,,,1080,MAS,CON,150,fuego,,l,0.5939,,,,450.6288,450.6289,-0.330555556,0.178703704,0,0,0,,0,162,162,179,1,,,,,
,,,,,,80762990725e4cc67cd2db71,66a626ef09d4e21e1a8894ec,67371d9a2e3972b3bbb983f6,2024-11-15_11h23.56.752,Tarea de género gramatical,2024.2.2,Win32,142.8571429,,,,,,,,,,,,,,,,,,,,,,450.6293,451.6472,l,1,[],[],[],[],[],[],[],0.3553,1,451.6472,452.1429,,,,,,953,MAS,AGR,150,vaso,el,l,0.3553,,,,452.1429,452.143,-0.330555556,0.178703704,0,0,0,,0,163,163,52,1,,,,,
,,,,,,80762990725e4cc67cd2db71,66a626ef09d4e21e1a8894ec,67371d9a2e3972b3bbb983f6,2024-11-15_11h23.56.752,Tarea de género gramatical,2024.2.2,Win32,142.8571429,,,,,,,,,,,,,,,,,,,,,,452.1434,453.4704,l,1,[],[],[],[],[],[],[],0.673,1,453.4704,453.9717,,,,,,947,MAS,AGR,150,olor,el,l,0.673,,,,453.9722,453.9725,-0.330555556,0.178703704,0,0,0,,0,164,164,46,1,,,,,
,,,,,,80762990725e4cc67cd2db71,66a626ef09d4e21e1a8894ec,67371d9a2e3972b3bbb983f6,2024-11-15_11h23.56.752,Tarea de género gramatical,2024.2.2,Win32,142.8571429,,,,,,,,,,,,,,,,,,,,,,453.9727,455.3832,l,1,[],[],[],[],[],[],[],0.7582,1,455.3832,455.8797,,,,,,1289,MAS,AGR,150,tamaño,el,l,0.7582,,,,455.8798,455.8798,-0.330555556,0.178703704,0,0,0,,0,165,165,388,1,,,,,
,,,,,,80762990725e4cc67cd2db71,66a626ef09d4e21e1a8894ec,67371d9a2e3972b3bbb983f6,2024-11-15_11h23.56.752,Tarea de género gramatical,2024.2.2,Win32,142.8571429,,,,,,,,,,,,,,,,,,,,,,455.8802,457.109,l,0,[],[],[],[],[],[],[],0.5723,0,457.1094,457.609,,,,,,1009,FEM,DIS,150,gota,el,a,0.5723,,,,457.6091,457.6091,-0.330555556,0.178703704,0,0,0,,0,166,166,108,1,,,,,
,,,,,,80762990725e4cc67cd2db71,66a626ef09d4e21e1a8894ec,67371d9a2e3972b3bbb983f6,2024-11-15_11h23.56.752,Tarea de género gramatical,2024.2.2,Win32,142.8571429,,,,,,,,,,,,,,,,,,,,,,457.6095,459.1509,a,1,[],[],[],[],[],[],[],0.8814,1,459.1512,459.6463,,,,,,1171,FEM,DIS,150,viuda,el,a,0.8814,,,,459.6463,459.6464,-0.330555556,0.178703704,0,0,0,,0,167,167,270,1,,,,,
,,,,,,80762990725e4cc67cd2db71,66a626ef09d4e21e1a8894ec,67371d9a2e3972b3bbb983f6,2024-11-15_11h23.56.752,Tarea de género gramatical,2024.2.2,Win32,142.8571429,,,,,,,,,,,,,,,,,,,,,,459.6467,460.6728,a,1,[],[],[],[],[],[],[],0.3741,1,460.6728,461.1721,,,,,,991,FEM,DIS,150,hoja,el,a,0.3741,,,,461.1725,461.1728,-0.330555556,0.178703704,0,0,0,,0,168,168,90,1,,,,,
,,,,,,80762990725e4cc67cd2db71,66a626ef09d4e21e1a8894ec,67371d9a2e3972b3bbb983f6,2024-11-15_11h23.56.752,Tarea de género gramatical,2024.2.2,Win32,142.8571429,,,,,,,,,,,,,,,,,,,,,,461.1731,462.2695,l,1,[],[],[],[],[],[],[],0.4349,1,462.2696,462.7696,,,,,,1319,MAS,AGR,150,cuento,el,l,0.4349,,,,462.7696,462.7697,-0.330555556,0.178703704,0,0,0,,0,169,169,418,1,,,,,
,,,,,,80762990725e4cc67cd2db71,66a626ef09d4e21e1a8894ec,67371d9a2e3972b3bbb983f6,2024-11-15_11h23.56.752,Tarea de género gramatical,2024.2.2,Win32,142.8571429,,,,,,,,,,,,,,,,,,,,,,462.77,463.8253,a,1,[],[],[],[],[],[],[],0.3896,1,463.8253,464.3254,,,,,,1238,FEM,AGR,150,abuela,la,a,0.3896,,,,464.3254,464.3255,-0.330555556,0.178703704,0,0,0,,0,170,170,337,1,,,,,
,,,,,,80762990725e4cc67cd2db71,66a626ef09d4e21e1a8894ec,67371d9a2e3972b3bbb983f6,2024-11-15_11h23.56.752,Tarea de género gramatical,2024.2.2,Win32,142.8571429,,,,,,,,,,,,,,,,,,,,,,464.3259,465.5408,l,1,[],[],[],[],[],[],[],0.5567,1,465.5408,466.0409,,,,,,1342,MAS,DIS,150,cuadro,la,l,0.5567,,,,466.0409,466.0409,-0.330555556,0.178703704,0,0,0,,0,171,171,441,1,,,,,
,,,,,,80762990725e4cc67cd2db71,66a626ef09d4e21e1a8894ec,67371d9a2e3972b3bbb983f6,2024-11-15_11h23.56.752,Tarea de género gramatical,2024.2.2,Win32,142.8571429,,,,,,,,,,,,,,,,,,,,,,466.0413,467.5829,a,0,[],[],[],[],[],[],[],0.8824,0,467.5833,468.0832,,,,,,1236,MAS,CON,150,crimen,,l,0.8824,,,,468.0833,468.0834,-0.330555556,0.178703704,0,0,0,,0,172,172,335,1,,,,,
,,,,,,80762990725e4cc67cd2db71,66a626ef09d4e21e1a8894ec,67371d9a2e3972b3bbb983f6,2024-11-15_11h23.56.752,Tarea de género gramatical,2024.2.2,Win32,142.8571429,,,,,,,,,,,,,,,,,,,,,,468.0839,469.6179,l,1,[],[],[],[],[],[],[],0.8772,1,469.6182,470.118,,,,,,918,MAS,CON,150,tren,,l,0.8772,,,,470.1185,470.1187,-0.330555556,0.178703704,0,0,0,,0,173,173,17,1,,,,,
,,,,,,80762990725e4cc67cd2db71,66a626ef09d4e21e1a8894ec,67371d9a2e3972b3bbb983f6,2024-11-15_11h23.56.752,Tarea de género gramatical,2024.2.2,Win32,142.8571429,,,,,,,,,,,,,,,,,,,,,,470.1189,471.3127,a,1,[],[],[],[],[],[],[],0.535,1,471.3127,471.8134,,,,,,938,FEM,AGR,150,obra,la,a,0.535,,,,471.8134,471.8134,-0.330555556,0.178703704,0,0,0,,0,174,174,37,1,,,,,
,,,,,,80762990725e4cc67cd2db71,66a626ef09d4e21e1a8894ec,67371d9a2e3972b3bbb983f6,2024-11-15_11h23.56.752,Tarea de género gramatical,2024.2.2,Win32,142.8571429,,,,,,,,,,,,,,,,,,,,,,471.8138,472.9031,a,1,[],[],[],[],[],[],[],0.4266,1,472.9031,473.4032,,,,,,1292,FEM,AGR,150,maleta,la,a,0.4266,,,,473.4032,473.4032,-0.330555556,0.178703704,0,0,0,,0,175,175,391,1,,,,,
,,,,,,80762990725e4cc67cd2db71,66a626ef09d4e21e1a8894ec,67371d9a2e3972b3bbb983f6,2024-11-15_11h23.56.752,Tarea de género gramatical,2024.2.2,Win32,142.8571429,,,,,,,,,,,,,,,,,,,,,,473.4037,474.5658,a,1,[],[],[],[],[],[],[],0.5083,1,474.5658,475.0616,,,,,,915,FEM,CON,150,cama,,a,0.5083,,,,475.0616,475.0616,-0.330555556,0.178703704,0,0,0,,0,176,176,14,1,,,,,
,,,,,,80762990725e4cc67cd2db71,66a626ef09d4e21e1a8894ec,67371d9a2e3972b3bbb983f6,2024-11-15_11h23.56.752,Tarea de género gramatical,2024.2.2,Win32,142.8571429,,,,,,,,,,,,,,,,,,,,,,475.0621,476.23,l,1,[],[],[],[],[],[],[],0.5072,1,476.23,476.7307,,,,,,1115,MAS,AGR,150,hueso,el,l,0.5072,,,,476.7311,476.7315,-0.330555556,0.178703704,0,0,0,,0,177,177,214,1,,,,,
,,,,,,80762990725e4cc67cd2db71,66a626ef09d4e21e1a8894ec,67371d9a2e3972b3bbb983f6,2024-11-15_11h23.56.752,Tarea de género gramatical,2024.2.2,Win32,142.8571429,,,,,,,,,,,,,,,,,,,,,,476.7317,477.9456,a,1,[],[],[],[],[],[],[],0.5514,1,477.9456,478.4457,,,,,,1293,FEM,CON,150,alarma,,a,0.5514,,,,478.4457,478.4457,-0.330555556,0.178703704,0,0,0,,0,178,178,392,1,,,,,
,,,,,,80762990725e4cc67cd2db71,66a626ef09d4e21e1a8894ec,67371d9a2e3972b3bbb983f6,2024-11-15_11h23.56.752,Tarea de género gramatical,2024.2.2,Win32,142.8571429,,,,,,,,,,,,,,,,,,,,,,478.4461,479.8695,l,1,[],[],[],[],[],[],[],0.7631,1,479.8695,480.3705,,,,,,1260,MAS,CON,150,puente,,l,0.7631,,,,480.3705,480.3705,-0.330555556,0.178703704,0,0,0,,0,179,179,359,1,,,,,
,,,,,,80762990725e4cc67cd2db71,66a626ef09d4e21e1a8894ec,67371d9a2e3972b3bbb983f6,2024-11-15_11h23.56.752,Tarea de género gramatical,2024.2.2,Win32,142.8571429,,,,,,,,,,,,,,,,,,,,,,480.3709,481.8185,a,1,[],[],[],[],[],[],[],0.7938,1,481.8185,482.3143,,,,,,1245,FEM,CON,150,pierna,,a,0.7938,,,,482.3143,482.3143,-0.330555556,0.178703704,0,0,0,,0,180,180,344,1,,,,,
,,,,,,80762990725e4cc67cd2db71,66a626ef09d4e21e1a8894ec,67371d9a2e3972b3bbb983f6,2024-11-15_11h23.56.752,Tarea de género gramatical,2024.2.2,Win32,142.8571429,,,,,,,,,,,,,,,,,,,,,,482.3147,483.4534,a,1,[],[],[],[],[],[],[],0.4756,1,483.4535,483.9542,,,,,,1119,FEM,CON,150,costa,,a,0.4756,,,,483.9542,483.9543,-0.330555556,0.178703704,0,0,0,,0,181,181,218,1,,,,,
,,,,,,80762990725e4cc67cd2db71,66a626ef09d4e21e1a8894ec,67371d9a2e3972b3bbb983f6,2024-11-15_11h23.56.752,Tarea de género gramatical,2024.2.2,Win32,142.8571429,,,,,,,,,,,,,,,,,,,,,,483.9546,484.9359,l,1,[],[],[],[],[],[],[],0.3289,1,484.9359,485.4337,,,,,,1007,MAS,AGR,150,cubo,el,l,0.3289,,,,485.4341,485.4343,-0.330555556,0.178703704,0,0,0,,0,182,182,106,1,,,,,
,,,,,,80762990725e4cc67cd2db71,66a626ef09d4e21e1a8894ec,67371d9a2e3972b3bbb983f6,2024-11-15_11h23.56.752,Tarea de género gramatical,2024.2.2,Win32,142.8571429,,,,,,,,,,,,,,,,,,,,,,485.4345,486.6577,a,1,[],[],[],[],[],[],[],0.5644,1,486.6577,487.1553,,,,,,927,FEM,CON,150,mesa,,a,0.5644,,,,487.1554,487.1554,-0.330555556,0.178703704,0,0,0,,0,183,183,26,1,,,,,
,,,,,,80762990725e4cc67cd2db71,66a626ef09d4e21e1a8894ec,67371d9a2e3972b3bbb983f6,2024-11-15_11h23.56.752,Tarea de género gramatical,2024.2.2,Win32,142.8571429,,,,,,,,,,,,,,,,,,,,,,487.1557,488.593,a,1,[],[],[],[],[],[],[],0.776,1,488.5931,489.0931,,,,,,1179,FEM,CON,150,selva,,a,0.776,,,,489.0931,489.0931,-0.330555556,0.178703704,0,0,0,,0,184,184,278,1,,,,,
,,,,,,80762990725e4cc67cd2db71,66a626ef09d4e21e1a8894ec,67371d9a2e3972b3bbb983f6,2024-11-15_11h23.56.752,Tarea de género gramatical,2024.2.2,Win32,142.8571429,,,,,,,,,,,,,,,,,,,,,,489.0937,490.1558,a,1,[],[],[],[],[],[],[],0.4058,1,490.1558,490.6519,,,,,,1329,FEM,CON,150,fianza,,a,0.4058,,,,490.6519,490.6519,-0.330555556,0.178703704,0,0,0,,0,185,185,428,1,,,,,
,,,,,,80762990725e4cc67cd2db71,66a626ef09d4e21e1a8894ec,67371d9a2e3972b3bbb983f6,2024-11-15_11h23.56.752,Tarea de género gramatical,2024.2.2,Win32,142.8571429,,,,,,,,,,,,,,,,,,,,,,490.6523,491.7184,a,1,[],[],[],[],[],[],[],0.4123,1,491.7185,492.2192,,,,,,1340,FEM,AGR,150,patada,la,a,0.4123,,,,492.2196,492.2199,-0.330555556,0.178703704,0,0,0,,0,186,186,439,1,,,,,
,,,,,,80762990725e4cc67cd2db71,66a626ef09d4e21e1a8894ec,67371d9a2e3972b3bbb983f6,2024-11-15_11h23.56.752,Tarea de género gramatical,2024.2.2,Win32,142.8571429,,,,,,,,,,,,,,,,,,,,,,492.2202,493.2424,a,1,[],[],[],[],[],[],[],0.3703,1,493.2425,493.7396,,,,,,1040,FEM,AGR,150,mula,la,a,0.3703,,,,493.7397,493.7397,-0.330555556,0.178703704,0,0,0,,0,187,187,139,1,,,,,
,,,,,,80762990725e4cc67cd2db71,66a626ef09d4e21e1a8894ec,67371d9a2e3972b3bbb983f6,2024-11-15_11h23.56.752,Tarea de género gramatical,2024.2.2,Win32,142.8571429,,,,,,,,,,,,,,,,,,,,,,493.7402,494.9305,l,1,[],[],[],[],[],[],[],0.5364,1,494.9305,495.4275,,,,,,1049,MAS,AGR,150,nudo,el,l,0.5364,,,,495.4275,495.4275,-0.330555556,0.178703704,0,0,0,,0,188,188,148,1,,,,,
,,,,,,80762990725e4cc67cd2db71,66a626ef09d4e21e1a8894ec,67371d9a2e3972b3bbb983f6,2024-11-15_11h23.56.752,Tarea de género gramatical,2024.2.2,Win32,142.8571429,,,,,,,,,,,,,,,,,,,,,,495.428,496.4839,a,1,[],[],[],[],[],[],[],0.4029,1,496.4839,496.9832,,,,,,1064,FEM,AGR,150,novia,la,a,0.4029,,,,496.9832,496.9833,-0.330555556,0.178703704,0,0,0,,0,189,189,163,1,,,,,
,,,,,,80762990725e4cc67cd2db71,66a626ef09d4e21e1a8894ec,67371d9a2e3972b3bbb983f6,2024-11-15_11h23.56.752,Tarea de género gramatical,2024.2.2,Win32,142.8571429,,,,,,,,,,,,,,,,,,,,,,496.9836,498.1154,a,1,[],[],[],[],[],[],[],0.4756,1,498.1155,498.6154,,,,,,1178,FEM,AGR,150,presa,la,a,0.4756,,,,498.6154,498.6154,-0.330555556,0.178703704,0,0,0,,0,190,190,277,1,,,,,
,,,,,,80762990725e4cc67cd2db71,66a626ef09d4e21e1a8894ec,67371d9a2e3972b3bbb983f6,2024-11-15_11h23.56.752,Tarea de género gramatical,2024.2.2,Win32,142.8571429,,,,,,,,,,,,,,,,,,,,,,498.6159,499.6086,a,1,[],[],[],[],[],[],[],0.3356,1,499.6087,500.1087,,,,,,980,FEM,AGR,150,vaca,la,a,0.3356,,,,500.1092,500.1095,-0.330555556,0.178703704,0,0,0,,0,191,191,79,1,,,,,
,,,,,,80762990725e4cc67cd2db71,66a626ef09d4e21e1a8894ec,67371d9a2e3972b3bbb983f6,2024-11-15_11h23.56.752,Tarea de género gramatical,2024.2.2,Win32,142.8571429,,,,,,,,,,,,,,,,,,,,,,500.1097,501.4084,a,1,[],[],[],[],[],[],[],0.6393,1,501.4084,501.904,,,,,,1207,FEM,DIS,150,suerte,el,a,0.6393,,,,501.904,501.904,-0.330555556,0.178703704,0,0,0,,0,192,192,306,1,,,,,
,,,,,,80762990725e4cc67cd2db71,66a626ef09d4e21e1a8894ec,67371d9a2e3972b3bbb983f6,2024-11-15_11h23.56.752,Tarea de género gramatical,2024.2.2,Win32,142.8571429,,,,,,,,,,,,,,,,,,,,,,501.9045,503.1438,l,1,[],[],[],[],[],[],[],0.5796,1,503.1439,503.6444,,,,,,1144,MAS,DIS,150,hielo,la,l,0.5796,,,,503.6444,503.6444,-0.330555556,0.178703704,0,0,0,,0,193,193,243,1,,,,,
,,,,,,80762990725e4cc67cd2db71,66a626ef09d4e21e1a8894ec,67371d9a2e3972b3bbb983f6,2024-11-15_11h23.56.752,Tarea de género gramatical,2024.2.2,Win32,142.8571429,,,,,,,,,,,,,,,,,,,,,,503.6448,504.7005,a,1,[],[],[],[],[],[],[],0.4024,1,504.7005,505.1998,,,,,,969,FEM,CON,150,rata,,a,0.4024,,,,505.1998,505.1998,-0.330555556,0.178703704,0,0,0,,0,194,194,68,1,,,,,
,,,,,,80762990725e4cc67cd2db71,66a626ef09d4e21e1a8894ec,67371d9a2e3972b3bbb983f6,2024-11-15_11h23.56.752,Tarea de género gramatical,2024.2.2,Win32,142.8571429,,,,,,,,,,,,,,,,,,,,,,505.2002,506.9812,a,1,[],[],[],[],[],[],[],1.121,1,506.9813,507.4817,,,,,,1099,FEM,DIS,150,nariz,el,a,1.121,,,,507.4821,507.4823,-0.330555556,0.178703704,0,0,0,,0,195,195,198,1,,,,,
,,,,,,80762990725e4cc67cd2db71,66a626ef09d4e21e1a8894ec,67371d9a2e3972b3bbb983f6,2024-11-15_11h23.56.752,Tarea de género gramatical,2024.2.2,Win32,142.8571429,,,,,,,,,,,,,,,,,,,,,,507.4826,509.2698,a,1,[],[],[],[],[],[],[],1.1206,1,509.2699,509.7668,,,,,,1345,FEM,DIS,150,bondad,el,a,1.1206,,,,509.7668,509.7669,-0.330555556,0.178703704,0,0,0,,0,196,196,444,1,,,,,
,,,,,,80762990725e4cc67cd2db71,66a626ef09d4e21e1a8894ec,67371d9a2e3972b3bbb983f6,2024-11-15_11h23.56.752,Tarea de género gramatical,2024.2.2,Win32,142.8571429,,,,,,,,,,,,,,,,,,,,,,509.7672,510.8464,l,1,[],[],[],[],[],[],[],0.4173,1,510.8465,511.3465,,,,,,1050,MAS,CON,150,mozo,,l,0.4173,,,,511.3465,511.3465,-0.330555556,0.178703704,0,0,0,,0,197,197,149,1,,,,,
,,,,,,80762990725e4cc67cd2db71,66a626ef09d4e21e1a8894ec,67371d9a2e3972b3bbb983f6,2024-11-15_11h23.56.752,Tarea de género gramatical,2024.2.2,Win32,142.8571429,,,,,,,,,,,,,,,,,,,,,,511.3469,512.5967,l,1,[],[],[],[],[],[],[],0.5891,1,512.5968,513.0975,,,,,,1109,MAS,AGR,150,banco,el,l,0.5891,,,,513.0975,513.0975,-0.330555556,0.178703704,0,0,0,,0,198,198,208,1,,,,,
,,,,,,80762990725e4cc67cd2db71,66a626ef09d4e21e1a8894ec,67371d9a2e3972b3bbb983f6,2024-11-15_11h23.56.752,Tarea de género gramatical,2024.2.2,Win32,142.8571429,,,,,,,,,,,,,,,,,,,,,,513.0979,514.4867,l,1,[],[],[],[],[],[],[],0.7295,1,514.4868,514.986,,,,,,1006,MAS,DIS,150,test,la,l,0.7295,,,,514.986,514.986,-0.330555556,0.178703704,0,0,0,,0,199,199,105,1,,,,,
,,,,,,80762990725e4cc67cd2db71,66a626ef09d4e21e1a8894ec,67371d9a2e3972b3bbb983f6,2024-11-15_11h23.56.752,Tarea de género gramatical,2024.2.2,Win32,142.8571429,,,,,,,,,,,,,,,,,,,,,,514.9864,516.3403,a,0,[],[],[],[],[],[],[],0.6868,0,516.3407,516.8412,,,,,,1331,MAS,AGR,150,veneno,el,l,0.6868,,,,516.8417,516.842,-0.330555556,0.178703704,0,0,0,,0,200,200,430,1,,,,,
,,,,,,80762990725e4cc67cd2db71,66a626ef09d4e21e1a8894ec,67371d9a2e3972b3bbb983f6,2024-11-15_11h23.56.752,Tarea de género gramatical,2024.2.2,Win32,142.8571429,,,,,,,,,,,,,,,,,,,,,,516.8423,518.1948,l,1,[],[],[],[],[],[],[],0.6887,1,518.1952,518.6949,,,,,,1343,MAS,AGR,150,templo,el,l,0.6887,,,,518.6949,518.6949,-0.330555556,0.178703704,0,0,0,,0,201,201,442,1,,,,,
,,,,,,80762990725e4cc67cd2db71,66a626ef09d4e21e1a8894ec,67371d9a2e3972b3bbb983f6,2024-11-15_11h23.56.752,Tarea de género gramatical,2024.2.2,Win32,142.8571429,,,,,,,,,,,,,,,,,,,,,,518.6954,520.198,l,1,[],[],[],[],[],[],[],0.8426,1,520.198,520.6986,,,,,,1102,MAS,DIS,150,honor,la,l,0.8426,,,,520.6986,520.6986,-0.330555556,0.178703704,0,0,0,,0,202,202,201,1,,,,,
,,,,,,80762990725e4cc67cd2db71,66a626ef09d4e21e1a8894ec,67371d9a2e3972b3bbb983f6,2024-11-15_11h23.56.752,Tarea de género gramatical,2024.2.2,Win32,142.8571429,,,,,,,,,,,,,,,,,,,,,,520.699,521.8558,l,1,[],[],[],[],[],[],[],0.4992,1,521.8558,522.3552,,,,,,1338,MAS,CON,150,tanque,,l,0.4992,,,,522.3552,522.3552,-0.330555556,0.178703704,0,0,0,,0,203,203,437,1,,,,,
,,,,,,80762990725e4cc67cd2db71,66a626ef09d4e21e1a8894ec,67371d9a2e3972b3bbb983f6,2024-11-15_11h23.56.752,Tarea de género gramatical,2024.2.2,Win32,142.8571429,,,,,,,,,,,,,,,,,,,,,,522.3556,523.397,l,1,[],[],[],[],[],[],[],0.3822,1,523.3971,523.9005,,,,,,959,MAS,AGR,150,lobo,el,l,0.3822,,,,523.9009,523.9012,-0.330555556,0.178703704,0,0,0,,0,204,204,58,1,,,,,
,,,,,,80762990725e4cc67cd2db71,66a626ef09d4e21e1a8894ec,67371d9a2e3972b3bbb983f6,2024-11-15_11h23.56.752,Tarea de género gramatical,2024.2.2,Win32,142.8571429,,,,,,,,,,,,,,,,,,,,,,523.9014,524.9597,l,1,[],[],[],[],[],[],[],0.4007,1,524.9597,525.4598,,,,,,995,MAS,AGR,150,tomo,el,l,0.4007,,,,525.4598,525.4598,-0.330555556,0.178703704,0,0,0,,0,205,205,94,1,,,,,
,,,,,,80762990725e4cc67cd2db71,66a626ef09d4e21e1a8894ec,67371d9a2e3972b3bbb983f6,2024-11-15_11h23.56.752,Tarea de género gramatical,2024.2.2,Win32,142.8571429,,,,,,,,,,,,,,,,,,,,,,525.4602,526.4155,l,1,[],[],[],[],[],[],[],0.3,1,526.4155,526.9115,,,,,,1332,MAS,CON,150,océano,,l,0.3,,,,526.9115,526.9115,-0.330555556,0.178703704,0,0,0,,0,206,206,431,1,,,,,
,,,,,,80762990725e4cc67cd2db71,66a626ef09d4e21e1a8894ec,67371d9a2e3972b3bbb983f6,2024-11-15_11h23.56.752,Tarea de género gramatical,2024.2.2,Win32,142.8571429,,,,,,,,,,,,,,,,,,,,,,526.912,527.9532,l,1,[],[],[],[],[],[],[],0.3833,1,527.9532,528.4533,,,,,,1241,MAS,AGR,150,precio,el,l,0.3833,,,,528.4533,528.4534,-0.330555556,0.178703704,0,0,0,,0,207,207,340,1,,,,,
,,,,,,80762990725e4cc67cd2db71,66a626ef09d4e21e1a8894ec,67371d9a2e3972b3bbb983f6,2024-11-15_11h23.56.752,Tarea de género gramatical,2024.2.2,Win32,142.8571429,,,,,,,,,,,,,,,,,,,,,,528.4537,529.6897,a,1,[],[],[],[],[],[],[],0.5803,1,529.6897,530.1897,,,,,,981,FEM,CON,150,cima,,a,0.5803,,,,530.1897,530.1898,-0.330555556,0.178703704,0,0,0,,0,208,208,80,1,,,,,
,,,,,,80762990725e4cc67cd2db71,66a626ef09d4e21e1a8894ec,67371d9a2e3972b3bbb983f6,2024-11-15_11h23.56.752,Tarea de género gramatical,2024.2.2,Win32,142.8571429,,,,,,,,,,,,,,,,,,,,,,530.1901,531.2149,a,1,[],[],[],[],[],[],[],0.3611,1,531.2149,531.7137,,,,,,1016,FEM,AGR,150,nube,la,a,0.3611,,,,531.7141,531.7145,-0.330555556,0.178703704,0,0,0,,0,209,209,115,1,,,,,
,,,,,,80762990725e4cc67cd2db71,66a626ef09d4e21e1a8894ec,67371d9a2e3972b3bbb983f6,2024-11-15_11h23.56.752,Tarea de género gramatical,2024.2.2,Win32,142.8571429,,,,,,,,,,,,,,,,,,,,,,531.7148,532.7039,a,1,[],[],[],[],[],[],[],0.3242,1,532.7039,533.204,,,,,,1112,FEM,AGR,150,cinta,la,a,0.3242,,,,533.204,533.2041,-0.330555556,0.178703704,0,0,0,,0,210,210,211,1,,,,,
,,,,,,80762990725e4cc67cd2db71,66a626ef09d4e21e1a8894ec,67371d9a2e3972b3bbb983f6,2024-11-15_11h23.56.752,Tarea de género gramatical,2024.2.2,Win32,142.8571429,,,,,,,,,,,,,,,,,,,,,,533.2045,534.2251,a,1,[],[],[],[],[],[],[],0.3564,1,534.2251,534.7251,,,,,,1077,FEM,CON,150,broma,,a,0.3564,,,,534.7251,534.7251,-0.330555556,0.178703704,0,0,0,,0,211,211,176,1,,,,,
,,,,,,80762990725e4cc67cd2db71,66a626ef09d4e21e1a8894ec,67371d9a2e3972b3bbb983f6,2024-11-15_11h23.56.752,Tarea de género gramatical,2024.2.2,Win32,142.8571429,,,,,,,,,,,,,,,,,,,,,,534.7255,535.8435,l,1,[],[],[],[],[],[],[],0.4641,1,535.8435,536.3441,,,,,,1266,MAS,CON,150,riesgo,,l,0.4641,,,,536.3441,536.3441,-0.330555556,0.178703704,0,0,0,,0,212,212,365,1,,,,,
,,,,,,80762990725e4cc67cd2db71,66a626ef09d4e21e1a8894ec,67371d9a2e3972b3bbb983f6,2024-11-15_11h23.56.752,Tarea de género gramatical,2024.2.2,Win32,142.8571429,,,,,,,,,,,,,,,,,,,,,,536.3445,537.4686,a,1,[],[],[],[],[],[],[],0.4614,1,537.4686,537.9686,,,,,,1311,FEM,CON,150,actriz,,a,0.4614,,,,537.9691,537.9694,-0.330555556,0.178703704,0,0,0,,0,213,213,410,1,,,,,
,,,,,,80762990725e4cc67cd2db71,66a626ef09d4e21e1a8894ec,67371d9a2e3972b3bbb983f6,2024-11-15_11h23.56.752,Tarea de género gramatical,2024.2.2,Win32,142.8571429,,,,,,,,,,,,,,,,,,,,,,537.9697,539.073,l,1,[],[],[],[],[],[],[],0.4447,1,539.0731,539.5739,,,,,,1200,MAS,CON,150,túnel,,l,0.4447,,,,539.5739,539.5739,-0.330555556,0.178703704,0,0,0,,0,214,214,299,1,,,,,
,,,,,,80762990725e4cc67cd2db71,66a626ef09d4e21e1a8894ec,67371d9a2e3972b3bbb983f6,2024-11-15_11h23.56.752,Tarea de género gramatical,2024.2.2,Win32,142.8571429,,,,,,,,,,,,,,,,,,,,,,539.5743,540.6357,l,1,[],[],[],[],[],[],[],0.4031,1,540.6358,541.1326,,,,,,1133,MAS,AGR,150,golpe,el,l,0.4031,,,,541.1326,541.1327,-0.330555556,0.178703704,0,0,0,,0,215,215,232,1,,,,,
,,,,,,80762990725e4cc67cd2db71,66a626ef09d4e21e1a8894ec,67371d9a2e3972b3bbb983f6,2024-11-15_11h23.56.752,Tarea de género gramatical,2024.2.2,Win32,142.8571429,,,,,,,,,,,,,,,,,,,,,,541.1331,542.1638,a,1,[],[],[],[],[],[],[],0.3643,1,542.1639,542.6638,,,,,,1281,FEM,CON,150,bebida,,a,0.3643,,,,542.6639,542.6639,-0.330555556,0.178703704,0,0,0,,0,216,216,380,1,,,,,
,,,,,,80762990725e4cc67cd2db71,66a626ef09d4e21e1a8894ec,67371d9a2e3972b3bbb983f6,2024-11-15_11h23.56.752,Tarea de género gramatical,2024.2.2,Win32,142.8571429,,,,,,,,,,,,,,,,,,,,,,542.6642,543.8029,a,1,[],[],[],[],[],[],[],0.4791,1,543.8029,544.303,,,,,,1029,FEM,CON,150,rana,,a,0.4791,,,,544.303,544.303,-0.330555556,0.178703704,0,0,0,,0,217,217,128,1,,,,,
,,,,,,80762990725e4cc67cd2db71,66a626ef09d4e21e1a8894ec,67371d9a2e3972b3bbb983f6,2024-11-15_11h23.56.752,Tarea de género gramatical,2024.2.2,Win32,142.8571429,,,,,,,,,,,,,,,,,,,,,,544.3034,545.5741,a,1,[],[],[],[],[],[],[],0.6107,1,545.5741,546.0741,,,,,,1051,FEM,DIS,150,noche,el,a,0.6107,,,,546.0745,546.0747,-0.330555556,0.178703704,0,0,0,,0,218,218,150,1,,,,,
,,,,,,80762990725e4cc67cd2db71,66a626ef09d4e21e1a8894ec,67371d9a2e3972b3bbb983f6,2024-11-15_11h23.56.752,Tarea de género gramatical,2024.2.2,Win32,142.8571429,,,,,,,,,,,,,,,,,,,,,,546.0749,547.116,a,1,[],[],[],[],[],[],[],0.3823,1,547.116,547.6161,,,,,,1257,FEM,CON,150,lengua,,a,0.3823,,,,547.6161,547.6161,-0.330555556,0.178703704,0,0,0,,0,219,219,356,1,,,,,
,,,,,,80762990725e4cc67cd2db71,66a626ef09d4e21e1a8894ec,67371d9a2e3972b3bbb983f6,2024-11-15_11h23.56.752,Tarea de género gramatical,2024.2.2,Win32,142.8571429,,,,,,,,,,,,,,,,,,,,,,547.6165,548.6925,l,1,[],[],[],[],[],[],[],0.4175,1,548.6927,549.1927,,,,,,1044,MAS,CON,150,amor,,l,0.4175,,,,549.1927,549.1928,-0.330555556,0.178703704,0,0,0,,0,220,220,143,1,,,,,
,,,,,,80762990725e4cc67cd2db71,66a626ef09d4e21e1a8894ec,67371d9a2e3972b3bbb983f6,2024-11-15_11h23.56.752,Tarea de género gramatical,2024.2.2,Win32,142.8571429,,,,,,,,,,,,,,,,,,,,,,549.1932,550.8387,l,1,[],[],[],[],[],[],[],0.9873,1,550.8388,551.3388,,,,,,1234,MAS,DIS,150,ataque,la,l,0.9873,,,,551.3388,551.3389,-0.330555556,0.178703704,0,0,0,,0,221,221,333,1,,,,,
,,,,,,80762990725e4cc67cd2db71,66a626ef09d4e21e1a8894ec,67371d9a2e3972b3bbb983f6,2024-11-15_11h23.56.752,Tarea de género gramatical,2024.2.2,Win32,142.8571429,,,,,,,,,,,,,,,,,,,,,,551.3393,553.256,l,1,[],[],[],[],[],[],[],1.2615,1,553.256,553.7558,,,,,,1048,MAS,DIS,150,surf,la,l,1.2615,,,,553.7563,553.7565,-0.330555556,0.178703704,0,0,0,,0,222,222,147,1,,,,,
,,,,,,80762990725e4cc67cd2db71,66a626ef09d4e21e1a8894ec,67371d9a2e3972b3bbb983f6,2024-11-15_11h23.56.752,Tarea de género gramatical,2024.2.2,Win32,142.8571429,,,,,,,,,,,,,,,,,,,,,,553.7568,554.8255,l,1,[],[],[],[],[],[],[],0.4113,1,554.8255,555.3256,,,,,,1284,MAS,CON,150,pedazo,,l,0.4113,,,,555.3256,555.3256,-0.330555556,0.178703704,0,0,0,,0,223,223,383,1,,,,,
,,,,,,80762990725e4cc67cd2db71,66a626ef09d4e21e1a8894ec,67371d9a2e3972b3bbb983f6,2024-11-15_11h23.56.752,Tarea de género gramatical,2024.2.2,Win32,142.8571429,,,,,,,,,,,,,,,,,,,,,,555.3259,556.3673,l,1,[],[],[],[],[],[],[],0.3834,1,556.3674,556.8674,,,,,,1120,MAS,DIS,150,huevo,la,l,0.3834,,,,556.8674,556.8675,-0.330555556,0.178703704,0,0,0,,0,224,224,219,1,,,,,
,,,,,,80762990725e4cc67cd2db71,66a626ef09d4e21e1a8894ec,67371d9a2e3972b3bbb983f6,2024-11-15_11h23.56.752,Tarea de género gramatical,2024.2.2,Win32,142.8571429,,,,,,,,,,,,,,,,,,,,,,556.8679,558.201,a,1,[],[],[],[],[],[],[],0.6736,1,558.201,558.7011,,,,,,1189,FEM,DIS,150,tabla,el,a,0.6736,,,,558.7011,558.7011,-0.330555556,0.178703704,0,0,0,,0,225,225,288,1,,,,,
,,,,,,80762990725e4cc67cd2db71,66a626ef09d4e21e1a8894ec,67371d9a2e3972b3bbb983f6,2024-11-15_11h23.56.752,Tarea de género gramatical,2024.2.2,Win32,142.8571429,,,,,,,,,,,,,,,,,,,,,,558.7014,559.7637,a,1,[],[],[],[],[],[],[],0.4045,1,559.7637,560.2638,,,,,,902,FEM,AGR,150,vida,la,a,0.4045,,,,560.2638,560.2638,-0.330555556,0.178703704,0,0,0,,0,226,226,1,1,,,,,
,,,,,,80762990725e4cc67cd2db71,66a626ef09d4e21e1a8894ec,67371d9a2e3972b3bbb983f6,2024-11-15_11h23.56.752,Tarea de género gramatical,2024.2.2,Win32,142.8571429,,,,,,,,,,,,,,,,,,,,,,560.2642,561.2611,a,1,[],[],[],[],[],[],[],0.3334,1,561.2611,561.758,,,,,,1167,FEM,CON,150,barba,,a,0.3334,,,,561.7584,561.7586,-0.330555556,0.178703704,0,0,0,,0,227,227,266,1,,,,,
,,,,,,80762990725e4cc67cd2db71,66a626ef09d4e21e1a8894ec,67371d9a2e3972b3bbb983f6,2024-11-15_11h23.56.752,Tarea de género gramatical,2024.2.2,Win32,142.8571429,,,,,,,,,,,,,,,,,,,,,,561.7588,562.8005,a,1,[],[],[],[],[],[],[],0.383,1,562.8005,563.2991,,,,,,1263,FEM,CON,150,unidad,,a,0.383,,,,563.2991,563.2991,-0.330555556,0.178703704,0,0,0,,0,228,228,362,1,,,,,
,,,,,,80762990725e4cc67cd2db71,66a626ef09d4e21e1a8894ec,67371d9a2e3972b3bbb983f6,2024-11-15_11h23.56.752,Tarea de género gramatical,2024.2.2,Win32,142.8571429,,,,,,,,,,,,,,,,,,,,,,563.2996,564.6464,a,1,[],[],[],[],[],[],[],0.6886,1,564.6465,565.1467,,,,,,1279,FEM,DIS,150,granja,el,a,0.6886,,,,565.1467,565.1468,-0.330555556,0.178703704,0,0,0,,0,229,229,378,1,,,,,
,,,,,,80762990725e4cc67cd2db71,66a626ef09d4e21e1a8894ec,67371d9a2e3972b3bbb983f6,2024-11-15_11h23.56.752,Tarea de género gramatical,2024.2.2,Win32,142.8571429,,,,,,,,,,,,,,,,,,,,,,565.1472,566.2577,a,1,[],[],[],[],[],[],[],0.4519,1,566.2578,566.7578,,,,,,1149,FEM,CON,150,crema,,a,0.4519,,,,566.7579,566.7579,-0.330555556,0.178703704,0,0,0,,0,230,230,248,1,,,,,
,,,,,,80762990725e4cc67cd2db71,66a626ef09d4e21e1a8894ec,67371d9a2e3972b3bbb983f6,2024-11-15_11h23.56.752,Tarea de género gramatical,2024.2.2,Win32,142.8571429,,,,,,,,,,,,,,,,,,,,,,566.7582,567.8969,l,1,[],[],[],[],[],[],[],0.4815,1,567.8969,568.3971,,,,,,1252,MAS,DIS,150,estilo,la,l,0.4815,,,,568.3974,568.3977,-0.330555556,0.178703704,0,0,0,,0,231,231,351,1,,,,,
,,,,,,80762990725e4cc67cd2db71,66a626ef09d4e21e1a8894ec,67371d9a2e3972b3bbb983f6,2024-11-15_11h23.56.752,Tarea de género gramatical,2024.2.2,Win32,142.8571429,,,,,,,,,,,,,,,,,,,,,,568.3979,569.4874,l,1,[],[],[],[],[],[],[],0.4311,1,569.4876,569.9876,,,,,,1068,MAS,CON,150,sitio,,l,0.4311,,,,569.9876,569.9876,-0.330555556,0.178703704,0,0,0,,0,232,232,167,1,,,,,
,,,,,,80762990725e4cc67cd2db71,66a626ef09d4e21e1a8894ec,67371d9a2e3972b3bbb983f6,2024-11-15_11h23.56.752,Tarea de género gramatical,2024.2.2,Win32,142.8571429,,,,,,,,,,,,,,,,,,,,,,569.988,571.4001,l,1,[],[],[],[],[],[],[],0.7572,1,571.4001,571.8981,,,,,,910,MAS,DIS,150,niño,la,l,0.7572,,,,571.8982,571.8982,-0.330555556,0.178703704,0,0,0,,0,233,233,9,1,,,,,
,,,,,,80762990725e4cc67cd2db71,66a626ef09d4e21e1a8894ec,67371d9a2e3972b3bbb983f6,2024-11-15_11h23.56.752,Tarea de género gramatical,2024.2.2,Win32,142.8571429,,,,,,,,,,,,,,,,,,,,,,571.8986,573.1137,a,1,[],[],[],[],[],[],[],0.5558,1,573.1138,573.6102,,,,,,919,FEM,DIS,150,niña,el,a,0.5558,,,,573.6103,573.6103,-0.330555556,0.178703704,0,0,0,,0,234,234,18,1,,,,,
,,,,,,80762990725e4cc67cd2db71,66a626ef09d4e21e1a8894ec,67371d9a2e3972b3bbb983f6,2024-11-15_11h23.56.752,Tarea de género gramatical,2024.2.2,Win32,142.8571429,,,,,,,,,,,,,,,,,,,,,,573.6106,575.0063,a,1,[],[],[],[],[],[],[],0.7328,1,575.0064,575.5055,,,,,,1075,FEM,DIS,150,señal,el,a,0.7328,,,,575.5055,575.5055,-0.330555556,0.178703704,0,0,0,,0,235,235,174,1,,,,,
,,,,,,80762990725e4cc67cd2db71,66a626ef09d4e21e1a8894ec,67371d9a2e3972b3bbb983f6,2024-11-15_11h23.56.752,Tarea de género gramatical,2024.2.2,Win32,142.8571429,,,,,,,,,,,,,,,,,,,,,,575.5059,576.4885,l,1,[],[],[],[],[],[],[],0.3236,1,576.4885,576.9886,,,,,,1152,MAS,CON,150,viejo,,l,0.3236,,,,576.9892,576.9895,-0.330555556,0.178703704,0,0,0,,0,236,236,251,1,,,,,
,,,,,,80762990725e4cc67cd2db71,66a626ef09d4e21e1a8894ec,67371d9a2e3972b3bbb983f6,2024-11-15_11h23.56.752,Tarea de género gramatical,2024.2.2,Win32,142.8571429,,,,,,,,,,,,,,,,,,,,,,576.9898,578.4645,a,1,[],[],[],[],[],[],[],0.8176,1,578.4645,578.9611,,,,,,1310,FEM,AGR,150,piedad,la,a,0.8176,,,,578.9611,578.9612,-0.330555556,0.178703704,0,0,0,,0,237,237,409,1,,,,,
,,,,,,80762990725e4cc67cd2db71,66a626ef09d4e21e1a8894ec,67371d9a2e3972b3bbb983f6,2024-11-15_11h23.56.752,Tarea de género gramatical,2024.2.2,Win32,142.8571429,,,,,,,,,,,,,,,,,,,,,,578.9617,580.5378,a,1,[],[],[],[],[],[],[],0.9208,1,580.5378,581.0378,,,,,,1046,FEM,AGR,150,lana,la,a,0.9208,,,,581.0378,581.0379,-0.330555556,0.178703704,0,0,0,,0,238,238,145,1,,,,,
,,,,,,80762990725e4cc67cd2db71,66a626ef09d4e21e1a8894ec,67371d9a2e3972b3bbb983f6,2024-11-15_11h23.56.752,Tarea de género gramatical,2024.2.2,Win32,142.8571429,,,,,,,,,,,,,,,,,,,,,,581.0383,582.1282,a,1,[],[],[],[],[],[],[],0.4298,1,582.1284,582.6283,,,,,,1233,FEM,CON,150,locura,,a,0.4298,,,,582.6283,582.6284,-0.330555556,0.178703704,0,0,0,,0,239,239,332,1,,,,,
,,,,,,80762990725e4cc67cd2db71,66a626ef09d4e21e1a8894ec,67371d9a2e3972b3bbb983f6,2024-11-15_11h23.56.752,Tarea de género gramatical,2024.2.2,Win32,142.8571429,,,,,,,,,,,,,,,,,,,,,,582.6288,583.7605,a,1,[],[],[],[],[],[],[],0.4667,1,583.7605,584.2613,,,,,,975,FEM,CON,150,caza,,a,0.4667,,,,584.2617,584.262,-0.330555556,0.178703704,0,0,0,,0,240,240,74,1,,,,,
,,,,,,80762990725e4cc67cd2db71,66a626ef09d4e21e1a8894ec,67371d9a2e3972b3bbb983f6,2024-11-15_11h23.56.752,Tarea de género gramatical,2024.2.2,Win32,142.8571429,,,,,,,,,,,,,,,,,,,,,,584.2622,585.3349,l,1,[],[],[],[],[],[],[],0.4117,1,585.3349,585.8336,,,,,,1168,MAS,DIS,150,truco,la,l,0.4117,,,,585.8336,585.8337,-0.330555556,0.178703704,0,0,0,,0,241,241,267,1,,,,,
,,,,,,80762990725e4cc67cd2db71,66a626ef09d4e21e1a8894ec,67371d9a2e3972b3bbb983f6,2024-11-15_11h23.56.752,Tarea de género gramatical,2024.2.2,Win32,142.8571429,,,,,,,,,,,,,,,,,,,,,,585.834,587.0604,l,1,[],[],[],[],[],[],[],0.5741,1,587.0604,587.5597,,,,,,1235,MAS,AGR,150,montón,el,l,0.5741,,,,587.5597,587.5597,-0.330555556,0.178703704,0,0,0,,0,242,242,334,1,,,,,
,,,,,,80762990725e4cc67cd2db71,66a626ef09d4e21e1a8894ec,67371d9a2e3972b3bbb983f6,2024-11-15_11h23.56.752,Tarea de género gramatical,2024.2.2,Win32,142.8571429,,,,,,,,,,,,,,,,,,,,,,587.5602,588.7062,a,1,[],[],[],[],[],[],[],0.4915,1,588.7063,589.2058,,,,,,1015,FEM,DIS,150,seda,el,a,0.4915,,,,589.2058,589.2058,-0.330555556,0.178703704,0,0,0,,0,243,243,114,1,,,,,
,,,,,,80762990725e4cc67cd2db71,66a626ef09d4e21e1a8894ec,67371d9a2e3972b3bbb983f6,2024-11-15_11h23.56.752,Tarea de género gramatical,2024.2.2,Win32,142.8571429,,,,,,,,,,,,,,,,,,,,,,589.2063,590.2823,l,1,[],[],[],[],[],[],[],0.4211,1,590.2824,590.7824,,,,,,1097,MAS,AGR,150,avión,el,l,0.4211,,,,590.7824,590.7824,-0.330555556,0.178703704,0,0,0,,0,244,244,196,1,,,,,
,,,,,,80762990725e4cc67cd2db71,66a626ef09d4e21e1a8894ec,67371d9a2e3972b3bbb983f6,2024-11-15_11h23.56.752,Tarea de género gramatical,2024.2.2,Win32,142.8571429,,,,,,,,,,,,,,,,,,,,,,590.7828,591.8406,a,1,[],[],[],[],[],[],[],0.396,1,591.8406,592.3382,,,,,,1017,FEM,CON,150,raya,,a,0.396,,,,592.3386,592.3389,-0.330555556,0.178703704,0,0,0,,0,245,245,116,1,,,,,
,,,,,,80762990725e4cc67cd2db71,66a626ef09d4e21e1a8894ec,67371d9a2e3972b3bbb983f6,2024-11-15_11h23.56.752,Tarea de género gramatical,2024.2.2,Win32,142.8571429,,,,,,,,,,,,,,,,,,,,,,592.3392,593.4494,a,1,[],[],[],[],[],[],[],0.4534,1,593.4495,593.9502,,,,,,1315,FEM,DIS,150,cabina,el,a,0.4534,,,,593.9502,593.9503,-0.330555556,0.178703704,0,0,0,,0,246,246,414,1,,,,,
,,,,,,80762990725e4cc67cd2db71,66a626ef09d4e21e1a8894ec,67371d9a2e3972b3bbb983f6,2024-11-15_11h23.56.752,Tarea de género gramatical,2024.2.2,Win32,142.8571429,,,,,,,,,,,,,,,,,,,,,,593.9507,594.9881,a,1,[],[],[],[],[],[],[],0.3749,1,594.9881,595.4844,,,,,,1130,FEM,AGR,150,regla,la,a,0.3749,,,,595.4845,595.4845,-0.330555556,0.178703704,0,0,0,,0,247,247,229,1,,,,,
,,,,,,80762990725e4cc67cd2db71,66a626ef09d4e21e1a8894ec,67371d9a2e3972b3bbb983f6,2024-11-15_11h23.56.752,Tarea de género gramatical,2024.2.2,Win32,142.8571429,,,,,,,,,,,,,,,,,,,,,,595.4849,596.5296,a,1,[],[],[],[],[],[],[],0.3887,1,596.5297,597.0264,,,,,,1135,FEM,DIS,150,torre,el,a,0.3887,,,,597.0264,597.0264,-0.330555556,0.178703704,0,0,0,,0,248,248,234,1,,,,,
,,,,,,80762990725e4cc67cd2db71,66a626ef09d4e21e1a8894ec,67371d9a2e3972b3bbb983f6,2024-11-15_11h23.56.752,Tarea de género gramatical,2024.2.2,Win32,142.8571429,,,,,,,,,,,,,,,,,,,,,,597.0268,598.3426,l,1,[],[],[],[],[],[],[],0.6536,1,598.3427,598.8392,,,,,,1001,MAS,AGR,150,giro,el,l,0.6536,,,,598.8396,598.8398,-0.330555556,0.178703704,0,0,0,,0,249,249,100,1,,,,,
