counterbalancing_condition,consent_prescreening.block_1/declare_consent,consent_prescreening.block_1/age_years,consent_prescreening.block_1/gender,consent_prescreening.block_1/language_disorder,consent_prescreening.block_1/first_language,PROLIFIC_PID,STUDY_ID,SESSION_ID,date,expName,psychopyVersion,OS,frameRate,check_prescreening_answers.started,check_prescreening_answers.stopped,Instructions.started,Instructions.stopped,instr_done_keyboard.keys,instr_done_touch.x,instr_done_touch.y,instr_done_touch.leftButton,instr_done_touch.midButton,instr_done_touch.rightButton,instr_done_touch.clicked_name,instruction_pages.thisRepN,instruction_pages.thisTrialN,instruction_pages.thisN,instruction_pages.thisIndex,instruction_pages.ran,pageN,phase,instruct_text,has_image,instruct_image,instr_done_keyboard.rt,instr_done_keyboard.duration,presentTrial.started,presentTrial.stopped,response.keys,response.corr,touch_resp.x,touch_resp.y,touch_resp.leftButton,touch_resp.midButton,touch_resp.rightButton,touch_resp.time,touch_resp.clicked_name,rt,corr,feedback.started,feedback.stopped,practice_trials.thisRepN,practice_trials.thisTrialN,practice_trials.thisN,practice_trials.thisIndex,practice_trials.ran,TrialID,StimulusType,Condition,PrimeDuration,Prime,Flanker,corrAns,response.rt,response.duration,Break.started,Break.stopped,break_done_touch.x,break_done_touch.y,break_done_touch.leftButton,break_done_touch.midButton,break_done_touch.rightButton,break_done_keyboard.keys,experiment_trials.thisRepN,experiment_trials.thisTrialN,experiment_trials.thisN,experiment_trials.thisIndex,experiment_trials.ran,break_done_keyboard.rt,break_done_keyboard.duration,End.started,End.stopped
0,"[""over_18"",""comfortable"",""read_info"",""consent_given""]",40,M,"[""none""]","[""spanish""]",807ed545dbcc06b06f3750b6,66a626ef09d4e21e1a8894ec,6734e01871bd8e0004a40c6a,2024-11-13_11h24.51.797,Tarea de género gramatical,2024.2.2,MacIntel,60.14675809,,,,,,,,,,,,,,,,,,,,,,,,,,,,,,,,,,,,,,,,,,,,,,,,,,,,,,,,,,,,,,,,,,,,,
,,,,,,807ed545dbcc06b06f3750b6,66a626ef09d4e21e1a8894ec,6734e01871bd8e0004a40c6a,2024-11-13_11h24.51.797,Tarea de género gramatical,2024.2.2,MacIntel,60.14675809,42.2973,42.2975,,,,,,,,,,,,,,,,,,,,,,,,,,,,,,,,,,,,,,,,,,,,,,,,,,,,,,,,,,,,,,,,,,,
,,,,,,807ed545dbcc06b06f3750b6,66a626ef09d4e21e1a8894ec,6734e01871bd8e0004a40c6a,2024-11-13_11h24.51.797,Tarea de género gramatical,2024.2.2,MacIntel,60.14675809,,,42.3315,73.1291,,-0.102714844,-0.402236328,1,0,0,instr_done_button,0,0,0,0,1,1,instructions,"INSTRUCCIONES
Va a realizar una prueba de selección gramatical. Desde el comienzo de la prueba mire siempre al centro de la pantalla. Al cabo de un momento, aparecerán palabras. La tarea consiste en determinar si la palabra del centro (siempre será un sustantivo), pertenece al género masculino o femenino.

Pulse la tecla ESPACIO o toque el botón de abajo para continuar.",0,keyboardresponseFM.png,,,,,,,,,,,,,,,,,,,,,,,,,,,,,,,,,,,,,,,,,,,,,,,,
,,,,,,807ed545dbcc06b06f3750b6,66a626ef09d4e21e1a8894ec,6734e01871bd8e0004a40c6a,2024-11-13_11h24.51.797,Tarea de género gramatical,2024.2.2,MacIntel,60.14675809,,,73.1334,90.3455,space,-0.102714844,-0.402236328,0,0,0,,0,1,1,1,1,2,instructions,"Si su dispositivo tiene teclado, pulse la tecla ""A"" para las palabras en femenino (por ejemplo: ""mano"") y la tecla ""L"" para las palabras en masculino(por ejemplo: ""arroz"").
Pulse la tecla ESPACIO o toque el botón de abajo para continuar.",1,keyboardresponseFM.png,17.1409,,,,,,,,,,,,,,,,,,,,,,,,,,,,,,,,,,,,,,,,,,,,,,,
,,,,,,807ed545dbcc06b06f3750b6,66a626ef09d4e21e1a8894ec,6734e01871bd8e0004a40c6a,2024-11-13_11h24.51.797,Tarea de género gramatical,2024.2.2,MacIntel,60.14675809,,,90.348,96.9389,space,-0.102714844,-0.402236328,0,0,0,,0,2,2,2,1,3,instructions,"Si utiliza un dispositivo sólo táctil, colóquelo en horizontal y utilice los botones de la pantalla. No utilice el ratón.
Pulse la tecla ESPACIO o toque el botón de abajo para continuar.",2,touchresponseFM.png,6.546,,,,,,,,,,,,,,,,,,,,,,,,,,,,,,,,,,,,,,,,,,,,,,,
,,,,,,807ed545dbcc06b06f3750b6,66a626ef09d4e21e1a8894ec,6734e01871bd8e0004a40c6a,2024-11-13_11h24.51.797,Tarea de género gramatical,2024.2.2,MacIntel,60.14675809,,,96.9552,112.7029,space,-0.102714844,-0.402236328,0,0,0,,0,3,3,3,1,4,instructions,"Es muy importante que responda con la mayor rapidez y precisión posibles, ya que cada cadena de letras sólo estará en pantalla durante un instante. Si no responde en ese tiempo, aparecerá el mensaje ""Muy lento"" y el experimento pasará a la siguiente palabra. Los primeros 15 intentos serán de práctica y habrá dos descansos durante la prueba.
Pulse la tecla ESPACIO o toque el botón de abajo para iniciar la parte de práctica.",0,keyboardresponseFM.png,15.7257,,,,,,,,,,,,,,,,,,,,,,,,,,,,,,,,,,,,,,,,,,,,,,,
,,,,,,807ed545dbcc06b06f3750b6,66a626ef09d4e21e1a8894ec,6734e01871bd8e0004a40c6a,2024-11-13_11h24.51.797,Tarea de género gramatical,2024.2.2,MacIntel,60.14675809,,,,,,,,,,,,,,,,,,,,,,,,112.7487,115.3958,,0,[],[],[],[],[],[],[],,-1,115.3966,115.8937,0,0,0,4,1,2005,FEM,CON,150,placa,,a,,,,,,,,,,,,,,,,,,,
,,,,,,807ed545dbcc06b06f3750b6,66a626ef09d4e21e1a8894ec,6734e01871bd8e0004a40c6a,2024-11-13_11h24.51.797,Tarea de género gramatical,2024.2.2,MacIntel,60.14675809,,,,,,,,,,,,,,,,,,,,,,,,115.896,117.8056,l,1,[],[],[],[],[],[],[],1.2379,1,117.8923,118.3042,0,1,1,14,1,2015,MAS,DIS,150,robot,la,l,1.2379,,,,,,,,,,,,,,,,,,
,,,,,,807ed545dbcc06b06f3750b6,66a626ef09d4e21e1a8894ec,6734e01871bd8e0004a40c6a,2024-11-13_11h24.51.797,Tarea de género gramatical,2024.2.2,MacIntel,60.14675809,,,,,,,,,,,,,,,,,,,,,,,,118.3065,119.6513,l,1,[],[],[],[],[],[],[],0.6652,1,119.6515,120.1503,0,2,2,10,1,2011,MAS,CON,150,canal,,l,0.6652,,,,,,,,,,,,,,,,,,
,,,,,,807ed545dbcc06b06f3750b6,66a626ef09d4e21e1a8894ec,6734e01871bd8e0004a40c6a,2024-11-13_11h24.51.797,Tarea de género gramatical,2024.2.2,MacIntel,60.14675809,,,,,,,,,,,,,,,,,,,,,,,,120.1524,121.4469,a,0,[],[],[],[],[],[],[],0.6214,0,121.4489,121.9457,0,3,3,11,1,2012,MAS,DIS,150,clima,la,l,0.6214,,,,,,,,,,,,,,,,,,
,,,,,,807ed545dbcc06b06f3750b6,66a626ef09d4e21e1a8894ec,6734e01871bd8e0004a40c6a,2024-11-13_11h24.51.797,Tarea de género gramatical,2024.2.2,MacIntel,60.14675809,,,,,,,,,,,,,,,,,,,,,,,,121.9476,123.0933,l,1,[],[],[],[],[],[],[],0.4653,1,123.0952,123.5911,0,4,4,12,1,2013,MAS,AGR,150,acero,el,l,0.4653,,,,,,,,,,,,,,,,,,
,,,,,,807ed545dbcc06b06f3750b6,66a626ef09d4e21e1a8894ec,6734e01871bd8e0004a40c6a,2024-11-13_11h24.51.797,Tarea de género gramatical,2024.2.2,MacIntel,60.14675809,,,,,,,,,,,,,,,,,,,,,,,,123.5935,124.8388,a,1,[],[],[],[],[],[],[],0.5666,1,124.8389,125.338,0,5,5,0,1,2001,FEM,AGR,150,nuca,la,a,0.5666,,,,,,,,,,,,,,,,,,
,,,,,,807ed545dbcc06b06f3750b6,66a626ef09d4e21e1a8894ec,6734e01871bd8e0004a40c6a,2024-11-13_11h24.51.797,Tarea de género gramatical,2024.2.2,MacIntel,60.14675809,,,,,,,,,,,,,,,,,,,,,,,,125.3402,126.3677,l,1,[],[],[],[],[],[],[],0.3533,1,126.3679,126.8669,0,6,6,9,1,2010,MAS,AGR,150,vecino,el,l,0.3533,,,,,,,,,,,,,,,,,,
,,,,,,807ed545dbcc06b06f3750b6,66a626ef09d4e21e1a8894ec,6734e01871bd8e0004a40c6a,2024-11-13_11h24.51.797,Tarea de género gramatical,2024.2.2,MacIntel,60.14675809,,,,,,,,,,,,,,,,,,,,,,,,126.8691,127.9152,a,1,[],[],[],[],[],[],[],0.3656,1,127.9154,128.4125,0,7,7,5,1,2006,FEM,DIS,150,serie,el,a,0.3656,,,,,,,,,,,,,,,,,,
,,,,,,807ed545dbcc06b06f3750b6,66a626ef09d4e21e1a8894ec,6734e01871bd8e0004a40c6a,2024-11-13_11h24.51.797,Tarea de género gramatical,2024.2.2,MacIntel,60.14675809,,,,,,,,,,,,,,,,,,,,,,,,128.4141,129.7109,l,1,[],[],[],[],[],[],[],0.6224,1,129.7111,130.2094,0,8,8,13,1,2014,MAS,CON,150,siglo,,l,0.6224,,,,,,,,,,,,,,,,,,
,,,,,,807ed545dbcc06b06f3750b6,66a626ef09d4e21e1a8894ec,6734e01871bd8e0004a40c6a,2024-11-13_11h24.51.797,Tarea de género gramatical,2024.2.2,MacIntel,60.14675809,,,,,,,,,,,,,,,,,,,,,,,,130.2114,131.857,a,1,[],[],[],[],[],[],[],0.9668,1,131.8572,132.3546,0,9,9,2,1,2003,FEM,DIS,150,daga,el,a,0.9668,,,,,,,,,,,,,,,,,,
,,,,,,807ed545dbcc06b06f3750b6,66a626ef09d4e21e1a8894ec,6734e01871bd8e0004a40c6a,2024-11-13_11h24.51.797,Tarea de género gramatical,2024.2.2,MacIntel,60.14675809,,,,,,,,,,,,,,,,,,,,,,,,132.3565,133.6356,a,1,[],[],[],[],[],[],[],0.5994,1,133.6358,134.1351,0,10,10,1,1,2002,FEM,CON,150,pala,,a,0.5994,,,,,,,,,,,,,,,,,,
,,,,,,807ed545dbcc06b06f3750b6,66a626ef09d4e21e1a8894ec,6734e01871bd8e0004a40c6a,2024-11-13_11h24.51.797,Tarea de género gramatical,2024.2.2,MacIntel,60.14675809,,,,,,,,,,,,,,,,,,,,,,,,134.1374,135.5306,a,1,[],[],[],[],[],[],[],0.718,1,135.5307,136.0296,0,11,11,7,1,2008,FEM,CON,150,siesta,,a,0.718,,,,,,,,,,,,,,,,,,
,,,,,,807ed545dbcc06b06f3750b6,66a626ef09d4e21e1a8894ec,6734e01871bd8e0004a40c6a,2024-11-13_11h24.51.797,Tarea de género gramatical,2024.2.2,MacIntel,60.14675809,,,,,,,,,,,,,,,,,,,,,,,,136.0315,137.5259,a,1,[],[],[],[],[],[],[],0.8221,1,137.5262,138.0238,0,12,12,3,1,2004,FEM,AGR,150,venta,la,a,0.8221,,,,,,,,,,,,,,,,,,
,,,,,,807ed545dbcc06b06f3750b6,66a626ef09d4e21e1a8894ec,6734e01871bd8e0004a40c6a,2024-11-13_11h24.51.797,Tarea de género gramatical,2024.2.2,MacIntel,60.14675809,,,,,,,,,,,,,,,,,,,,,,,,138.026,139.2886,a,1,[],[],[],[],[],[],[],0.5817,1,139.2887,139.7873,0,13,13,6,1,2007,FEM,AGR,150,navaja,la,a,0.5817,,,,,,,,,,,,,,,,,,
,,,,,,807ed545dbcc06b06f3750b6,66a626ef09d4e21e1a8894ec,6734e01871bd8e0004a40c6a,2024-11-13_11h24.51.797,Tarea de género gramatical,2024.2.2,MacIntel,60.14675809,,,,,,,,,,,,,,,,,,,,,,,,139.7895,141.0675,l,1,[],[],[],[],[],[],[],0.6006,1,141.0675,141.5651,0,14,14,8,1,2009,MAS,DIS,150,puerto,la,l,0.6006,,,,,,,,,,,,,,,,,,
,,,,,,807ed545dbcc06b06f3750b6,66a626ef09d4e21e1a8894ec,6734e01871bd8e0004a40c6a,2024-11-13_11h24.51.797,Tarea de género gramatical,2024.2.2,MacIntel,60.14675809,,,146.8032,156.9136,space,-0.102714844,-0.402236328,0,0,0,,,,,,,,,,,,10.0916,,157.0194,158.2936,a,1,[],[],[],[],[],[],[],0.5996,1,158.2937,158.7923,,,,,,368,FEM,CON,150,gracia,,a,0.5996,,158.7927,158.7972,-0.102714844,-0.402236328,0,0,0,,0,0,0,367,1,,,,
,,,,,,807ed545dbcc06b06f3750b6,66a626ef09d4e21e1a8894ec,6734e01871bd8e0004a40c6a,2024-11-13_11h24.51.797,Tarea de género gramatical,2024.2.2,MacIntel,60.14675809,,,,,,,,,,,,,,,,,,,,,,,,158.7985,160.2055,a,1,[],[],[],[],[],[],[],0.7394,1,160.2057,160.7045,,,,,,231,FEM,DIS,150,bruja,el,a,0.7394,,160.7046,160.7047,-0.102714844,-0.402236328,0,0,0,,0,1,1,230,1,,,,
,,,,,,807ed545dbcc06b06f3750b6,66a626ef09d4e21e1a8894ec,6734e01871bd8e0004a40c6a,2024-11-13_11h24.51.797,Tarea de género gramatical,2024.2.2,MacIntel,60.14675809,,,,,,,,,,,,,,,,,,,,,,,,160.7067,162.0847,l,1,[],[],[],[],[],[],[],0.7,1,162.0849,162.5832,,,,,,191,MAS,CON,150,dolor,,l,0.7,,162.585,162.5867,-0.102714844,-0.402236328,0,0,0,,0,2,2,190,1,,,,
,,,,,,807ed545dbcc06b06f3750b6,66a626ef09d4e21e1a8894ec,6734e01871bd8e0004a40c6a,2024-11-13_11h24.51.797,Tarea de género gramatical,2024.2.2,MacIntel,60.14675809,,,,,,,,,,,,,,,,,,,,,,,,162.5881,163.797,l,1,[],[],[],[],[],[],[],0.5401,1,163.7971,164.2963,,,,,,258,MAS,DIS,150,polvo,la,l,0.5401,,164.2964,164.2966,-0.102714844,-0.402236328,0,0,0,,0,3,3,257,1,,,,
,,,,,,807ed545dbcc06b06f3750b6,66a626ef09d4e21e1a8894ec,6734e01871bd8e0004a40c6a,2024-11-13_11h24.51.797,Tarea de género gramatical,2024.2.2,MacIntel,60.14675809,,,,,,,,,,,,,,,,,,,,,,,,164.2984,165.6753,a,1,[],[],[],[],[],[],[],0.7081,1,165.6755,166.1744,,,,,,255,FEM,DIS,150,tribu,el,a,0.7081,,166.1745,166.1747,-0.102714844,-0.402236328,0,0,0,,0,4,4,254,1,,,,
,,,,,,807ed545dbcc06b06f3750b6,66a626ef09d4e21e1a8894ec,6734e01871bd8e0004a40c6a,2024-11-13_11h24.51.797,Tarea de género gramatical,2024.2.2,MacIntel,60.14675809,,,,,,,,,,,,,,,,,,,,,,,,166.1764,167.3221,l,1,[],[],[],[],[],[],[],0.4693,1,167.3222,167.8211,,,,,,178,MAS,AGR,150,punto,el,l,0.4693,,167.8212,167.8216,-0.102714844,-0.402236328,0,0,0,,0,5,5,177,1,,,,
,,,,,,807ed545dbcc06b06f3750b6,66a626ef09d4e21e1a8894ec,6734e01871bd8e0004a40c6a,2024-11-13_11h24.51.797,Tarea de género gramatical,2024.2.2,MacIntel,60.14675809,,,,,,,,,,,,,,,,,,,,,,,,167.8235,169.0851,l,1,[],[],[],[],[],[],[],0.5835,1,169.0853,169.5828,,,,,,240,MAS,DIS,150,ruido,la,l,0.5835,,169.5845,169.5864,-0.102714844,-0.402236328,0,0,0,,0,6,6,239,1,,,,
,,,,,,807ed545dbcc06b06f3750b6,66a626ef09d4e21e1a8894ec,6734e01871bd8e0004a40c6a,2024-11-13_11h24.51.797,Tarea de género gramatical,2024.2.2,MacIntel,60.14675809,,,,,,,,,,,,,,,,,,,,,,,,169.5877,170.7807,a,1,[],[],[],[],[],[],[],0.5254,1,170.7808,171.2805,,,,,,236,FEM,CON,150,deuda,,a,0.5254,,171.2806,171.2809,-0.102714844,-0.402236328,0,0,0,,0,7,7,235,1,,,,
,,,,,,807ed545dbcc06b06f3750b6,66a626ef09d4e21e1a8894ec,6734e01871bd8e0004a40c6a,2024-11-13_11h24.51.797,Tarea de género gramatical,2024.2.2,MacIntel,60.14675809,,,,,,,,,,,,,,,,,,,,,,,,171.2828,172.7117,a,1,[],[],[],[],[],[],[],0.7554,1,172.7119,173.2082,,,,,,219,FEM,DIS,150,costa,el,a,0.7554,,173.2083,173.2084,-0.102714844,-0.402236328,0,0,0,,0,8,8,218,1,,,,
,,,,,,807ed545dbcc06b06f3750b6,66a626ef09d4e21e1a8894ec,6734e01871bd8e0004a40c6a,2024-11-13_11h24.51.797,Tarea de género gramatical,2024.2.2,MacIntel,60.14675809,,,,,,,,,,,,,,,,,,,,,,,,173.2101,174.4055,l,1,[],[],[],[],[],[],[],0.5129,1,174.4057,174.9045,,,,,,234,MAS,DIS,150,héroe,la,l,0.5129,,174.9046,174.9049,-0.102714844,-0.402236328,0,0,0,,0,9,9,233,1,,,,
,,,,,,807ed545dbcc06b06f3750b6,66a626ef09d4e21e1a8894ec,6734e01871bd8e0004a40c6a,2024-11-13_11h24.51.797,Tarea de género gramatical,2024.2.2,MacIntel,60.14675809,,,,,,,,,,,,,,,,,,,,,,,,174.9067,176.2529,a,1,[],[],[],[],[],[],[],0.6672,1,176.2533,176.7505,,,,,,374,FEM,CON,150,herida,,a,0.6672,,176.7505,176.7508,-0.102714844,-0.402236328,0,0,0,,0,10,10,373,1,,,,
,,,,,,807ed545dbcc06b06f3750b6,66a626ef09d4e21e1a8894ec,6734e01871bd8e0004a40c6a,2024-11-13_11h24.51.797,Tarea de género gramatical,2024.2.2,MacIntel,60.14675809,,,,,,,,,,,,,,,,,,,,,,,,176.7528,177.9638,l,1,[],[],[],[],[],[],[],0.5326,1,177.964,178.4627,,,,,,396,MAS,DIS,150,tesoro,la,l,0.5326,,178.4649,178.4668,-0.102714844,-0.402236328,0,0,0,,0,11,11,395,1,,,,
,,,,,,807ed545dbcc06b06f3750b6,66a626ef09d4e21e1a8894ec,6734e01871bd8e0004a40c6a,2024-11-13_11h24.51.797,Tarea de género gramatical,2024.2.2,MacIntel,60.14675809,,,,,,,,,,,,,,,,,,,,,,,,178.4685,179.6763,l,1,[],[],[],[],[],[],[],0.5402,1,179.6765,180.1753,,,,,,120,MAS,DIS,150,puño,la,l,0.5402,,180.1755,180.1758,-0.102714844,-0.402236328,0,0,0,,0,12,12,119,1,,,,
,,,,,,807ed545dbcc06b06f3750b6,66a626ef09d4e21e1a8894ec,6734e01871bd8e0004a40c6a,2024-11-13_11h24.51.797,Tarea de género gramatical,2024.2.2,MacIntel,60.14675809,,,,,,,,,,,,,,,,,,,,,,,,180.1778,181.3893,a,1,[],[],[],[],[],[],[],0.5325,1,181.3895,181.8882,,,,,,391,FEM,AGR,150,altura,la,a,0.5325,,181.8883,181.8885,-0.102714844,-0.402236328,0,0,0,,0,13,13,390,1,,,,
,,,,,,807ed545dbcc06b06f3750b6,66a626ef09d4e21e1a8894ec,6734e01871bd8e0004a40c6a,2024-11-13_11h24.51.797,Tarea de género gramatical,2024.2.2,MacIntel,60.14675809,,,,,,,,,,,,,,,,,,,,,,,,181.8902,183.2667,a,1,[],[],[],[],[],[],[],0.7079,1,183.2668,183.767,,,,,,15,FEM,DIS,150,cama,el,a,0.7079,,183.7672,183.7674,-0.102714844,-0.402236328,0,0,0,,0,14,14,14,1,,,,
,,,,,,807ed545dbcc06b06f3750b6,66a626ef09d4e21e1a8894ec,6734e01871bd8e0004a40c6a,2024-11-13_11h24.51.797,Tarea de género gramatical,2024.2.2,MacIntel,60.14675809,,,,,,,,,,,,,,,,,,,,,,,,183.7688,184.946,a,1,[],[],[],[],[],[],[],0.5026,1,184.9461,185.4459,,,,,,25,FEM,AGR,150,nave,la,a,0.5026,,185.4478,185.4498,-0.102714844,-0.402236328,0,0,0,,0,15,15,24,1,,,,
,,,,,,807ed545dbcc06b06f3750b6,66a626ef09d4e21e1a8894ec,6734e01871bd8e0004a40c6a,2024-11-13_11h24.51.797,Tarea de género gramatical,2024.2.2,MacIntel,60.14675809,,,,,,,,,,,,,,,,,,,,,,,,185.4512,186.659,l,1,[],[],[],[],[],[],[],0.5387,1,186.659,187.1589,,,,,,126,MAS,DIS,150,lazo,la,l,0.5387,,187.159,187.1594,-0.102714844,-0.402236328,0,0,0,,0,16,16,125,1,,,,
,,,,,,807ed545dbcc06b06f3750b6,66a626ef09d4e21e1a8894ec,6734e01871bd8e0004a40c6a,2024-11-13_11h24.51.797,Tarea de género gramatical,2024.2.2,MacIntel,60.14675809,,,,,,,,,,,,,,,,,,,,,,,,187.1609,188.3382,l,1,[],[],[],[],[],[],[],0.5017,1,188.3382,188.8375,,,,,,346,MAS,AGR,150,juicio,el,l,0.5017,,188.8376,188.8378,-0.102714844,-0.402236328,0,0,0,,0,17,17,345,1,,,,
,,,,,,807ed545dbcc06b06f3750b6,66a626ef09d4e21e1a8894ec,6734e01871bd8e0004a40c6a,2024-11-13_11h24.51.797,Tarea de género gramatical,2024.2.2,MacIntel,60.14675809,,,,,,,,,,,,,,,,,,,,,,,,188.839,189.9185,l,1,[],[],[],[],[],[],[],0.4062,1,189.9187,190.4193,,,,,,137,MAS,CON,150,coco,,l,0.4062,,190.4194,190.4196,-0.102714844,-0.402236328,0,0,0,,0,18,18,136,1,,,,
,,,,,,807ed545dbcc06b06f3750b6,66a626ef09d4e21e1a8894ec,6734e01871bd8e0004a40c6a,2024-11-13_11h24.51.797,Tarea de género gramatical,2024.2.2,MacIntel,60.14675809,,,,,,,,,,,,,,,,,,,,,,,,190.421,191.5161,a,1,[],[],[],[],[],[],[],0.4232,1,191.5163,192.0148,,,,,,140,FEM,CON,150,mula,,a,0.4232,,192.0149,192.0152,-0.102714844,-0.402236328,0,0,0,,0,19,19,139,1,,,,
,,,,,,807ed545dbcc06b06f3750b6,66a626ef09d4e21e1a8894ec,6734e01871bd8e0004a40c6a,2024-11-13_11h24.51.797,Tarea de género gramatical,2024.2.2,MacIntel,60.14675809,,,,,,,,,,,,,,,,,,,,,,,,192.0172,193.3278,l,1,[],[],[],[],[],[],[],0.6352,1,193.3278,193.8278,,,,,,148,MAS,AGR,150,surf,el,l,0.6352,,193.8296,193.8316,-0.102714844,-0.402236328,0,0,0,,0,20,20,147,1,,,,
,,,,,,807ed545dbcc06b06f3750b6,66a626ef09d4e21e1a8894ec,6734e01871bd8e0004a40c6a,2024-11-13_11h24.51.797,Tarea de género gramatical,2024.2.2,MacIntel,60.14675809,,,,,,,,,,,,,,,,,,,,,,,,193.833,195.0398,l,1,[],[],[],[],[],[],[],0.5354,1,195.04,195.5393,,,,,,324,MAS,DIS,150,cuarto,la,l,0.5354,,195.5393,195.5395,-0.102714844,-0.402236328,0,0,0,,0,21,21,323,1,,,,
,,,,,,807ed545dbcc06b06f3750b6,66a626ef09d4e21e1a8894ec,6734e01871bd8e0004a40c6a,2024-11-13_11h24.51.797,Tarea de género gramatical,2024.2.2,MacIntel,60.14675809,,,,,,,,,,,,,,,,,,,,,,,,195.5413,196.7867,a,1,[],[],[],[],[],[],[],0.5764,1,196.7869,197.285,,,,,,447,FEM,DIS,150,lógica,el,a,0.5764,,197.2851,197.2853,-0.102714844,-0.402236328,0,0,0,,0,22,22,446,1,,,,
,,,,,,807ed545dbcc06b06f3750b6,66a626ef09d4e21e1a8894ec,6734e01871bd8e0004a40c6a,2024-11-13_11h24.51.797,Tarea de género gramatical,2024.2.2,MacIntel,60.14675809,,,,,,,,,,,,,,,,,,,,,,,,197.2877,198.7154,l,1,[],[],[],[],[],[],[],0.7589,1,198.7156,199.2143,,,,,,342,MAS,DIS,150,abuelo,la,l,0.7589,,199.2144,199.2146,-0.102714844,-0.402236328,0,0,0,,0,23,23,341,1,,,,
,,,,,,807ed545dbcc06b06f3750b6,66a626ef09d4e21e1a8894ec,6734e01871bd8e0004a40c6a,2024-11-13_11h24.51.797,Tarea de género gramatical,2024.2.2,MacIntel,60.14675809,,,,,,,,,,,,,,,,,,,,,,,,199.2165,200.4269,a,1,[],[],[],[],[],[],[],0.5345,1,200.427,200.9267,,,,,,302,FEM,CON,150,cabeza,,a,0.5345,,200.9286,200.9306,-0.102714844,-0.402236328,0,0,0,,0,24,24,301,1,,,,
,,,,,,807ed545dbcc06b06f3750b6,66a626ef09d4e21e1a8894ec,6734e01871bd8e0004a40c6a,2024-11-13_11h24.51.797,Tarea de género gramatical,2024.2.2,MacIntel,60.14675809,,,,,,,,,,,,,,,,,,,,,,,,200.932,202.1234,a,1,[],[],[],[],[],[],[],0.5132,1,202.1236,202.6222,,,,,,19,FEM,AGR,150,niña,la,a,0.5132,,202.6223,202.6225,-0.102714844,-0.402236328,0,0,0,,0,25,25,18,1,,,,
,,,,,,807ed545dbcc06b06f3750b6,66a626ef09d4e21e1a8894ec,6734e01871bd8e0004a40c6a,2024-11-13_11h24.51.797,Tarea de género gramatical,2024.2.2,MacIntel,60.14675809,,,,,,,,,,,,,,,,,,,,,,,,202.6242,203.8352,a,1,[],[],[],[],[],[],[],0.5399,1,203.8353,204.3345,,,,,,9,FEM,DIS,150,mamá,el,a,0.5399,,204.3345,204.3346,-0.102714844,-0.402236328,0,0,0,,0,26,26,8,1,,,,
,,,,,,807ed545dbcc06b06f3750b6,66a626ef09d4e21e1a8894ec,6734e01871bd8e0004a40c6a,2024-11-13_11h24.51.797,Tarea de género gramatical,2024.2.2,MacIntel,60.14675809,,,,,,,,,,,,,,,,,,,,,,,,204.3359,205.5476,l,1,[],[],[],[],[],[],[],0.5335,1,205.5477,206.0472,,,,,,287,MAS,CON,150,plato,,l,0.5335,,206.0473,206.0475,-0.102714844,-0.402236328,0,0,0,,0,27,27,286,1,,,,
,,,,,,807ed545dbcc06b06f3750b6,66a626ef09d4e21e1a8894ec,6734e01871bd8e0004a40c6a,2024-11-13_11h24.51.797,Tarea de género gramatical,2024.2.2,MacIntel,60.14675809,,,,,,,,,,,,,,,,,,,,,,,,206.0491,207.2596,a,1,[],[],[],[],[],[],[],0.5401,1,207.2597,207.7596,,,,,,339,FEM,DIS,150,salida,el,a,0.5401,,207.7597,207.7598,-0.102714844,-0.402236328,0,0,0,,0,28,28,338,1,,,,
,,,,,,807ed545dbcc06b06f3750b6,66a626ef09d4e21e1a8894ec,6734e01871bd8e0004a40c6a,2024-11-13_11h24.51.797,Tarea de género gramatical,2024.2.2,MacIntel,60.14675809,,,,,,,,,,,,,,,,,,,,,,,,207.7616,208.9575,a,1,[],[],[],[],[],[],[],0.5239,1,208.9577,209.4555,,,,,,200,FEM,CON,150,silla,,a,0.5239,,209.4569,209.4587,-0.102714844,-0.402236328,0,0,0,,0,29,29,199,1,,,,
,,,,,,807ed545dbcc06b06f3750b6,66a626ef09d4e21e1a8894ec,6734e01871bd8e0004a40c6a,2024-11-13_11h24.51.797,Tarea de género gramatical,2024.2.2,MacIntel,60.14675809,,,,,,,,,,,,,,,,,,,,,,,,209.4601,210.6701,l,1,[],[],[],[],[],[],[],0.5398,1,210.6701,211.1694,,,,,,299,MAS,CON,150,rumbo,,l,0.5398,,211.1695,211.1696,-0.102714844,-0.402236328,0,0,0,,0,30,30,298,1,,,,
,,,,,,807ed545dbcc06b06f3750b6,66a626ef09d4e21e1a8894ec,6734e01871bd8e0004a40c6a,2024-11-13_11h24.51.797,Tarea de género gramatical,2024.2.2,MacIntel,60.14675809,,,,,,,,,,,,,,,,,,,,,,,,211.1713,212.4331,l,1,[],[],[],[],[],[],[],0.5845,1,212.4332,212.9325,,,,,,77,MAS,CON,150,pico,,l,0.5845,,212.9326,212.9328,-0.102714844,-0.402236328,0,0,0,,0,31,31,76,1,,,,
,,,,,,807ed545dbcc06b06f3750b6,66a626ef09d4e21e1a8894ec,6734e01871bd8e0004a40c6a,2024-11-13_11h24.51.797,Tarea de género gramatical,2024.2.2,MacIntel,60.14675809,,,,,,,,,,,,,,,,,,,,,,,,212.9348,214.1296,a,1,[],[],[],[],[],[],[],0.5198,1,214.1298,214.6274,,,,,,271,FEM,AGR,150,viuda,la,a,0.5198,,214.6275,214.6276,-0.102714844,-0.402236328,0,0,0,,0,32,32,270,1,,,,
,,,,,,807ed545dbcc06b06f3750b6,66a626ef09d4e21e1a8894ec,6734e01871bd8e0004a40c6a,2024-11-13_11h24.51.797,Tarea de género gramatical,2024.2.2,MacIntel,60.14675809,,,,,,,,,,,,,,,,,,,,,,,,214.6291,215.9244,a,1,[],[],[],[],[],[],[],0.6169,1,215.9245,216.4232,,,,,,441,FEM,DIS,150,medida,el,a,0.6169,,216.4254,216.4275,-0.102714844,-0.402236328,0,0,0,,0,33,33,440,1,,,,
,,,,,,807ed545dbcc06b06f3750b6,66a626ef09d4e21e1a8894ec,6734e01871bd8e0004a40c6a,2024-11-13_11h24.51.797,Tarea de género gramatical,2024.2.2,MacIntel,60.14675809,,,,,,,,,,,,,,,,,,,,,,,,216.4292,217.7204,a,1,[],[],[],[],[],[],[],0.6205,1,217.7206,218.2191,,,,,,243,FEM,DIS,150,salsa,el,a,0.6205,,218.2192,218.2195,-0.102714844,-0.402236328,0,0,0,,0,34,34,242,1,,,,
,,,,,,807ed545dbcc06b06f3750b6,66a626ef09d4e21e1a8894ec,6734e01871bd8e0004a40c6a,2024-11-13_11h24.51.797,Tarea de género gramatical,2024.2.2,MacIntel,60.14675809,,,,,,,,,,,,,,,,,,,,,,,,218.2213,219.3497,a,1,[],[],[],[],[],[],[],0.4497,1,219.3499,219.8485,,,,,,1,FEM,AGR,150,casa,la,a,0.4497,,219.8486,219.8488,-0.102714844,-0.402236328,0,0,0,,0,35,35,0,1,,,,
,,,,,,807ed545dbcc06b06f3750b6,66a626ef09d4e21e1a8894ec,6734e01871bd8e0004a40c6a,2024-11-13_11h24.51.797,Tarea de género gramatical,2024.2.2,MacIntel,60.14675809,,,,,,,,,,,,,,,,,,,,,,,,219.8506,221.0121,a,1,[],[],[],[],[],[],[],0.4839,1,221.0122,221.5115,,,,,,421,FEM,AGR,150,novela,la,a,0.4839,,221.5116,221.5118,-0.102714844,-0.402236328,0,0,0,,0,36,36,420,1,,,,
,,,,,,807ed545dbcc06b06f3750b6,66a626ef09d4e21e1a8894ec,6734e01871bd8e0004a40c6a,2024-11-13_11h24.51.797,Tarea de género gramatical,2024.2.2,MacIntel,60.14675809,,,,,,,,,,,,,,,,,,,,,,,,221.5137,222.7581,a,1,[],[],[],[],[],[],[],0.5698,1,222.7582,223.2572,,,,,,273,FEM,DIS,150,tarta,el,a,0.5698,,223.2573,223.2575,-0.102714844,-0.402236328,0,0,0,,0,37,37,272,1,,,,
,,,,,,807ed545dbcc06b06f3750b6,66a626ef09d4e21e1a8894ec,6734e01871bd8e0004a40c6a,2024-11-13_11h24.51.797,Tarea de género gramatical,2024.2.2,MacIntel,60.14675809,,,,,,,,,,,,,,,,,,,,,,,,223.2593,224.3871,a,1,[],[],[],[],[],[],[],0.4592,1,224.3872,224.8862,,,,,,123,FEM,DIS,150,tela,el,a,0.4592,,224.8877,224.8895,-0.102714844,-0.402236328,0,0,0,,0,38,38,122,1,,,,
,,,,,,807ed545dbcc06b06f3750b6,66a626ef09d4e21e1a8894ec,6734e01871bd8e0004a40c6a,2024-11-13_11h24.51.797,Tarea de género gramatical,2024.2.2,MacIntel,60.14675809,,,,,,,,,,,,,,,,,,,,,,,,224.8909,226.0165,l,1,[],[],[],[],[],[],[],0.4518,1,226.0166,226.5154,,,,,,107,MAS,CON,150,cubo,,l,0.4518,,226.5156,226.5157,-0.102714844,-0.402236328,0,0,0,,0,39,39,106,1,,,,
,,,,,,807ed545dbcc06b06f3750b6,66a626ef09d4e21e1a8894ec,6734e01871bd8e0004a40c6a,2024-11-13_11h24.51.797,Tarea de género gramatical,2024.2.2,MacIntel,60.14675809,,,,,,,,,,,,,,,,,,,,,,,,226.5174,227.6799,l,1,[],[],[],[],[],[],[],0.4881,1,227.6801,228.1784,,,,,,89,MAS,CON,150,maíz,,l,0.4881,,228.1786,228.1786,-0.102714844,-0.402236328,0,0,0,,0,40,40,88,1,,,,
,,,,,,807ed545dbcc06b06f3750b6,66a626ef09d4e21e1a8894ec,6734e01871bd8e0004a40c6a,2024-11-13_11h24.51.797,Tarea de género gramatical,2024.2.2,MacIntel,60.14675809,,,,,,,,,,,,,,,,,,,,,,,,228.1803,229.3248,l,1,[],[],[],[],[],[],[],0.474,1,229.325,229.8244,,,,,,239,MAS,CON,150,reloj,,l,0.474,,229.8245,229.8246,-0.102714844,-0.402236328,0,0,0,,0,41,41,238,1,,,,
,,,,,,807ed545dbcc06b06f3750b6,66a626ef09d4e21e1a8894ec,6734e01871bd8e0004a40c6a,2024-11-13_11h24.51.797,Tarea de género gramatical,2024.2.2,MacIntel,60.14675809,,,,,,,,,,,,,,,,,,,,,,,,229.8265,231.1053,l,1,[],[],[],[],[],[],[],0.5977,1,231.1054,231.6056,,,,,,112,MAS,AGR,150,reto,el,l,0.5977,,231.6074,231.609,-0.102714844,-0.402236328,0,0,0,,0,42,42,111,1,,,,
,,,,,,807ed545dbcc06b06f3750b6,66a626ef09d4e21e1a8894ec,6734e01871bd8e0004a40c6a,2024-11-13_11h24.51.797,Tarea de género gramatical,2024.2.2,MacIntel,60.14675809,,,,,,,,,,,,,,,,,,,,,,,,231.6104,232.719,a,1,[],[],[],[],[],[],[],0.4321,1,232.7192,233.2172,,,,,,55,FEM,AGR,150,taza,la,a,0.4321,,233.2173,233.2174,-0.102714844,-0.402236328,0,0,0,,0,43,43,54,1,,,,
,,,,,,807ed545dbcc06b06f3750b6,66a626ef09d4e21e1a8894ec,6734e01871bd8e0004a40c6a,2024-11-13_11h24.51.797,Tarea de género gramatical,2024.2.2,MacIntel,60.14675809,,,,,,,,,,,,,,,,,,,,,,,,233.2192,234.4149,a,1,[],[],[],[],[],[],[],0.5147,1,234.415,234.9141,,,,,,201,FEM,DIS,150,leche,el,a,0.5147,,234.9143,234.9145,-0.102714844,-0.402236328,0,0,0,,0,44,44,200,1,,,,
,,,,,,807ed545dbcc06b06f3750b6,66a626ef09d4e21e1a8894ec,6734e01871bd8e0004a40c6a,2024-11-13_11h24.51.797,Tarea de género gramatical,2024.2.2,MacIntel,60.14675809,,,,,,,,,,,,,,,,,,,,,,,,234.9166,236.1109,l,1,[],[],[],[],[],[],[],0.5225,1,236.1109,236.6089,,,,,,204,MAS,DIS,150,papel,la,l,0.5225,,236.609,236.6091,-0.102714844,-0.402236328,0,0,0,,0,45,45,203,1,,,,
,,,,,,807ed545dbcc06b06f3750b6,66a626ef09d4e21e1a8894ec,6734e01871bd8e0004a40c6a,2024-11-13_11h24.51.797,Tarea de género gramatical,2024.2.2,MacIntel,60.14675809,,,,,,,,,,,,,,,,,,,,,,,,236.6111,237.7888,l,1,[],[],[],[],[],[],[],0.5066,1,237.7889,238.288,,,,,,420,MAS,DIS,150,helado,la,l,0.5066,,238.2881,238.2883,-0.102714844,-0.402236328,0,0,0,,0,46,46,419,1,,,,
,,,,,,807ed545dbcc06b06f3750b6,66a626ef09d4e21e1a8894ec,6734e01871bd8e0004a40c6a,2024-11-13_11h24.51.797,Tarea de género gramatical,2024.2.2,MacIntel,60.14675809,,,,,,,,,,,,,,,,,,,,,,,,238.2902,239.4523,a,1,[],[],[],[],[],[],[],0.4854,1,239.4524,239.951,,,,,,62,FEM,CON,150,sopa,,a,0.4854,,239.9526,239.9542,-0.102714844,-0.402236328,0,0,0,,0,47,47,61,1,,,,
,,,,,,807ed545dbcc06b06f3750b6,66a626ef09d4e21e1a8894ec,6734e01871bd8e0004a40c6a,2024-11-13_11h24.51.797,Tarea de género gramatical,2024.2.2,MacIntel,60.14675809,,,,,,,,,,,,,,,,,,,,,,,,239.9557,241.1813,l,1,[],[],[],[],[],[],[],0.557,1,241.1815,241.6803,,,,,,419,MAS,CON,150,cuento,,l,0.557,,241.6804,241.6806,-0.102714844,-0.402236328,0,0,0,,0,48,48,418,1,,,,
,,,,,,807ed545dbcc06b06f3750b6,66a626ef09d4e21e1a8894ec,6734e01871bd8e0004a40c6a,2024-11-13_11h24.51.797,Tarea de género gramatical,2024.2.2,MacIntel,60.14675809,,,,,,,,,,,,,,,,,,,,,,,,241.6825,242.9103,a,1,[],[],[],[],[],[],[],0.5521,1,242.9104,243.4111,,,,,,177,FEM,DIS,150,broma,el,a,0.5521,,243.4112,243.4114,-0.102714844,-0.402236328,0,0,0,,0,49,49,176,1,,,,
,,,,,,807ed545dbcc06b06f3750b6,66a626ef09d4e21e1a8894ec,6734e01871bd8e0004a40c6a,2024-11-13_11h24.51.797,Tarea de género gramatical,2024.2.2,MacIntel,60.14675809,,,,,,,,,,,,,,,,,,,,,,,,243.4131,244.6064,a,1,[],[],[],[],[],[],[],0.5222,1,244.6065,245.1045,,,,,,355,FEM,AGR,150,mirada,la,a,0.5222,,245.1045,245.1048,-0.102714844,-0.402236328,0,0,0,,0,50,50,354,1,,,,
,,,,,,807ed545dbcc06b06f3750b6,66a626ef09d4e21e1a8894ec,6734e01871bd8e0004a40c6a,2024-11-13_11h24.51.797,Tarea de género gramatical,2024.2.2,MacIntel,60.14675809,,,,,,,,,,,,,,,,,,,,,,,,245.1092,246.3024,l,1,[],[],[],[],[],[],[],0.5218,1,246.3025,246.8006,,,,,,202,MAS,AGR,150,honor,el,l,0.5218,,246.8034,246.8048,-0.102714844,-0.402236328,0,0,0,,0,51,51,201,1,,,,
,,,,,,807ed545dbcc06b06f3750b6,66a626ef09d4e21e1a8894ec,6734e01871bd8e0004a40c6a,2024-11-13_11h24.51.797,Tarea de género gramatical,2024.2.2,MacIntel,60.14675809,,,,,,,,,,,,,,,,,,,,,,,,246.8062,247.9481,l,1,[],[],[],[],[],[],[],0.4679,1,247.9483,248.4474,,,,,,10,MAS,AGR,150,niño,el,l,0.4679,,248.4475,248.4476,-0.102714844,-0.402236328,0,0,0,,0,52,52,9,1,,,,
,,,,,,807ed545dbcc06b06f3750b6,66a626ef09d4e21e1a8894ec,6734e01871bd8e0004a40c6a,2024-11-13_11h24.51.797,Tarea de género gramatical,2024.2.2,MacIntel,60.14675809,,,,,,,,,,,,,,,,,,,,,,,,248.4495,249.561,l,1,[],[],[],[],[],[],[],0.4366,1,249.5611,250.0604,,,,,,390,MAS,DIS,150,rostro,la,l,0.4366,,250.0605,250.0608,-0.102714844,-0.402236328,0,0,0,,0,53,53,389,1,,,,
,,,,,,807ed545dbcc06b06f3750b6,66a626ef09d4e21e1a8894ec,6734e01871bd8e0004a40c6a,2024-11-13_11h24.51.797,Tarea de género gramatical,2024.2.2,MacIntel,60.14675809,,,,,,,,,,,,,,,,,,,,,,,,250.0629,251.1426,a,1,[],[],[],[],[],[],[],0.4003,1,251.1428,251.64,,,,,,279,FEM,DIS,150,selva,el,a,0.4003,,251.6401,251.6402,-0.102714844,-0.402236328,0,0,0,,0,54,54,278,1,,,,
,,,,,,807ed545dbcc06b06f3750b6,66a626ef09d4e21e1a8894ec,6734e01871bd8e0004a40c6a,2024-11-13_11h24.51.797,Tarea de género gramatical,2024.2.2,MacIntel,60.14675809,,,,,,,,,,,,,,,,,,,,,,,,251.6418,252.8054,l,1,[],[],[],[],[],[],[],0.4817,1,252.8056,253.3044,,,,,,365,MAS,CON,150,código,,l,0.4817,,253.3045,253.3046,-0.102714844,-0.402236328,0,0,0,,0,55,55,364,1,,,,
,,,,,,807ed545dbcc06b06f3750b6,66a626ef09d4e21e1a8894ec,6734e01871bd8e0004a40c6a,2024-11-13_11h24.51.797,Tarea de género gramatical,2024.2.2,MacIntel,60.14675809,,,,,,,,,,,,,,,,,,,,,,,,253.3069,254.4337,l,1,[],[],[],[],[],[],[],0.4483,1,254.4338,254.9325,,,,,,4,MAS,AGR,150,hijo,el,l,0.4483,,254.9345,254.9365,-0.102714844,-0.402236328,0,0,0,,0,56,56,3,1,,,,
,,,,,,807ed545dbcc06b06f3750b6,66a626ef09d4e21e1a8894ec,6734e01871bd8e0004a40c6a,2024-11-13_11h24.51.797,Tarea de género gramatical,2024.2.2,MacIntel,60.14675809,,,,,,,,,,,,,,,,,,,,,,,,254.9385,255.9961,a,1,[],[],[],[],[],[],[],0.3907,1,255.9962,256.4954,,,,,,26,FEM,CON,150,pena,,a,0.3907,,256.4955,256.4956,-0.102714844,-0.402236328,0,0,0,,0,57,57,25,1,,,,
,,,,,,807ed545dbcc06b06f3750b6,66a626ef09d4e21e1a8894ec,6734e01871bd8e0004a40c6a,2024-11-13_11h24.51.797,Tarea de género gramatical,2024.2.2,MacIntel,60.14675809,,,,,,,,,,,,,,,,,,,,,,,,256.4975,257.7426,a,1,[],[],[],[],[],[],[],0.5663,1,257.7428,258.2412,,,,,,385,FEM,AGR,150,muñeca,la,a,0.5663,,258.2413,258.2415,-0.102714844,-0.402236328,0,0,0,,0,58,58,384,1,,,,
,,,,,,807ed545dbcc06b06f3750b6,66a626ef09d4e21e1a8894ec,6734e01871bd8e0004a40c6a,2024-11-13_11h24.51.797,Tarea de género gramatical,2024.2.2,MacIntel,60.14675809,,,,,,,,,,,,,,,,,,,,,,,,258.2436,259.4551,a,1,[],[],[],[],[],[],[],0.5383,1,259.4552,259.9535,,,,,,99,FEM,DIS,150,fase,el,a,0.5383,,259.9536,259.9538,-0.102714844,-0.402236328,0,0,0,,0,59,59,98,1,,,,
,,,,,,807ed545dbcc06b06f3750b6,66a626ef09d4e21e1a8894ec,6734e01871bd8e0004a40c6a,2024-11-13_11h24.51.797,Tarea de género gramatical,2024.2.2,MacIntel,60.14675809,,,,,,,,,,,,,,,,,,,,,,,,259.9563,261.1178,a,1,[],[],[],[],[],[],[],0.4843,1,261.118,261.6164,,,,,,182,FEM,CON,150,prisa,,a,0.4843,,261.6183,261.6201,-0.102714844,-0.402236328,0,0,0,,0,60,60,181,1,,,,
,,,,,,807ed545dbcc06b06f3750b6,66a626ef09d4e21e1a8894ec,6734e01871bd8e0004a40c6a,2024-11-13_11h24.51.797,Tarea de género gramatical,2024.2.2,MacIntel,60.14675809,,,,,,,,,,,,,,,,,,,,,,,,261.6218,262.747,l,1,[],[],[],[],[],[],[],0.4519,1,262.7472,263.2463,,,,,,41,MAS,CON,150,bote,,l,0.4519,,263.2464,263.2465,-0.102714844,-0.402236328,0,0,0,,0,61,61,40,1,,,,
,,,,,,807ed545dbcc06b06f3750b6,66a626ef09d4e21e1a8894ec,6734e01871bd8e0004a40c6a,2024-11-13_11h24.51.797,Tarea de género gramatical,2024.2.2,MacIntel,60.14675809,,,,,,,,,,,,,,,,,,,,,,,,263.2485,264.2936,a,1,[],[],[],[],[],[],[],0.374,1,264.2937,264.792,,,,,,248,FEM,CON,150,letra,,a,0.374,,264.7922,264.7923,-0.102714844,-0.402236328,0,0,0,,0,62,62,247,1,,,,
,,,,,,807ed545dbcc06b06f3750b6,66a626ef09d4e21e1a8894ec,6734e01871bd8e0004a40c6a,2024-11-13_11h24.51.797,Tarea de género gramatical,2024.2.2,MacIntel,60.14675809,,,,,,,,,,,,,,,,,,,,,,,,264.7943,265.9065,a,1,[],[],[],[],[],[],[],0.4354,1,265.9067,266.4053,,,,,,261,FEM,DIS,150,cueva,el,a,0.4354,,266.4054,266.4055,-0.102714844,-0.402236328,0,0,0,,0,63,63,260,1,,,,
,,,,,,807ed545dbcc06b06f3750b6,66a626ef09d4e21e1a8894ec,6734e01871bd8e0004a40c6a,2024-11-13_11h24.51.797,Tarea de género gramatical,2024.2.2,MacIntel,60.14675809,,,,,,,,,,,,,,,,,,,,,,,,266.4075,267.5194,a,1,[],[],[],[],[],[],[],0.4386,1,267.5196,268.0181,,,,,,241,FEM,AGR,150,pasta,la,a,0.4386,,268.0183,268.0185,-0.102714844,-0.402236328,0,0,0,,0,64,64,240,1,,,,
,,,,,,807ed545dbcc06b06f3750b6,66a626ef09d4e21e1a8894ec,6734e01871bd8e0004a40c6a,2024-11-13_11h24.51.797,Tarea de género gramatical,2024.2.2,MacIntel,60.14675809,,,,,,,,,,,,,,,,,,,,,,,,268.0208,269.1147,a,1,[],[],[],[],[],[],[],0.4189,1,269.1148,269.6131,,,,,,32,FEM,CON,150,caja,,a,0.4189,,269.6144,269.6159,-0.102714844,-0.402236328,0,0,0,,0,65,65,31,1,,,,
,,,,,,807ed545dbcc06b06f3750b6,66a626ef09d4e21e1a8894ec,6734e01871bd8e0004a40c6a,2024-11-13_11h24.51.797,Tarea de género gramatical,2024.2.2,MacIntel,60.14675809,,,,,,,,,,,,,,,,,,,,,,,,269.6171,270.7129,a,1,[],[],[],[],[],[],[],0.4214,1,270.7131,271.2111,,,,,,159,FEM,DIS,150,clase,el,a,0.4214,,271.2112,271.2113,-0.102714844,-0.402236328,0,0,0,,0,66,66,158,1,,,,
,,,,,,807ed545dbcc06b06f3750b6,66a626ef09d4e21e1a8894ec,6734e01871bd8e0004a40c6a,2024-11-13_11h24.51.797,Tarea de género gramatical,2024.2.2,MacIntel,60.14675809,,,,,,,,,,,,,,,,,,,,,,,,271.2126,272.2587,l,1,[],[],[],[],[],[],[],0.3768,1,272.2588,272.7574,,,,,,136,MAS,AGR,150,vago,el,l,0.3768,,272.7575,272.7577,-0.102714844,-0.402236328,0,0,0,,0,67,67,135,1,,,,
,,,,,,807ed545dbcc06b06f3750b6,66a626ef09d4e21e1a8894ec,6734e01871bd8e0004a40c6a,2024-11-13_11h24.51.797,Tarea de género gramatical,2024.2.2,MacIntel,60.14675809,,,,,,,,,,,,,,,,,,,,,,,,272.7592,274.4198,a,1,[],[],[],[],[],[],[],0.9806,1,274.4199,274.9188,,,,,,315,FEM,DIS,150,manera,el,a,0.9806,,274.9189,274.9191,-0.102714844,-0.402236328,0,0,0,,0,68,68,314,1,,,,
,,,,,,807ed545dbcc06b06f3750b6,66a626ef09d4e21e1a8894ec,6734e01871bd8e0004a40c6a,2024-11-13_11h24.51.797,Tarea de género gramatical,2024.2.2,MacIntel,60.14675809,,,,,,,,,,,,,,,,,,,,,,,,274.9204,275.916,l,0,[],[],[],[],[],[],[],0.325,0,275.917,276.415,,,,,,285,FEM,DIS,150,mafia,el,a,0.325,,276.4163,276.418,-0.102714844,-0.402236328,0,0,0,,0,69,69,284,1,,,,
,,,,,,807ed545dbcc06b06f3750b6,66a626ef09d4e21e1a8894ec,6734e01871bd8e0004a40c6a,2024-11-13_11h24.51.797,Tarea de género gramatical,2024.2.2,MacIntel,60.14675809,,,,,,,,,,,,,,,,,,,,,,,,276.4195,277.4959,l,1,[],[],[],[],[],[],[],0.4039,1,277.4967,277.9941,,,,,,288,MAS,DIS,150,grado,la,l,0.4039,,277.9941,277.9942,-0.102714844,-0.402236328,0,0,0,,0,70,70,287,1,,,,
,,,,,,807ed545dbcc06b06f3750b6,66a626ef09d4e21e1a8894ec,6734e01871bd8e0004a40c6a,2024-11-13_11h24.51.797,Tarea de género gramatical,2024.2.2,MacIntel,60.14675809,,,,,,,,,,,,,,,,,,,,,,,,277.9954,279.0919,a,1,[],[],[],[],[],[],[],0.4245,1,279.0921,279.5902,,,,,,411,FEM,DIS,150,actriz,el,a,0.4245,,279.5903,279.5905,-0.102714844,-0.402236328,0,0,0,,0,71,71,410,1,,,,
,,,,,,807ed545dbcc06b06f3750b6,66a626ef09d4e21e1a8894ec,6734e01871bd8e0004a40c6a,2024-11-13_11h24.51.797,Tarea de género gramatical,2024.2.2,MacIntel,60.14675809,,,,,,,,,,,,,,,,,,,,,,,,279.592,280.7383,l,1,[],[],[],[],[],[],[],0.4684,1,280.7385,281.2384,,,,,,436,MAS,AGR,150,objeto,el,l,0.4684,,281.2386,281.2386,-0.102714844,-0.402236328,0,0,0,,0,72,72,435,1,,,,
,,,,,,807ed545dbcc06b06f3750b6,66a626ef09d4e21e1a8894ec,6734e01871bd8e0004a40c6a,2024-11-13_11h24.51.797,Tarea de género gramatical,2024.2.2,MacIntel,60.14675809,,,,,,,,,,,,,,,,,,,,,,,,281.2401,282.5334,l,1,[],[],[],[],[],[],[],0.6172,1,282.5335,283.0328,,,,,,208,MAS,AGR,150,suelo,el,l,0.6172,,283.0329,283.0329,-0.102714844,-0.402236328,0,0,0,,0,73,73,207,1,,,,
,,,,,,807ed545dbcc06b06f3750b6,66a626ef09d4e21e1a8894ec,6734e01871bd8e0004a40c6a,2024-11-13_11h24.51.797,Tarea de género gramatical,2024.2.2,MacIntel,60.14675809,,,,,,,,,,,,,,,,,,,,,,,,283.0346,284.13,a,1,[],[],[],[],[],[],[],0.4192,1,284.1301,284.6276,,,,,,301,FEM,AGR,150,verdad,la,a,0.4192,,284.6288,284.6304,-0.102714844,-0.402236328,0,0,0,,0,74,74,300,1,,,,
,,,,,,807ed545dbcc06b06f3750b6,66a626ef09d4e21e1a8894ec,6734e01871bd8e0004a40c6a,2024-11-13_11h24.51.797,Tarea de género gramatical,2024.2.2,MacIntel,60.14675809,,,,,,,,,,,,,,,,,,,,,,,,284.6317,285.8427,l,1,[],[],[],[],[],[],[],0.5356,1,285.8428,286.3415,,,,,,222,MAS,DIS,150,valor,la,l,0.5356,,286.3415,286.3416,-0.102714844,-0.402236328,0,0,0,,0,75,75,221,1,,,,
,,,,,,807ed545dbcc06b06f3750b6,66a626ef09d4e21e1a8894ec,6734e01871bd8e0004a40c6a,2024-11-13_11h24.51.797,Tarea de género gramatical,2024.2.2,MacIntel,60.14675809,,,,,,,,,,,,,,,,,,,,,,,,286.3432,287.4724,l,1,[],[],[],[],[],[],[],0.4498,1,287.4725,287.9713,,,,,,437,MAS,CON,150,hombro,,l,0.4498,,287.9715,287.9716,-0.102714844,-0.402236328,0,0,0,,0,76,76,436,1,,,,
,,,,,,807ed545dbcc06b06f3750b6,66a626ef09d4e21e1a8894ec,6734e01871bd8e0004a40c6a,2024-11-13_11h24.51.797,Tarea de género gramatical,2024.2.2,MacIntel,60.14675809,,,,,,,,,,,,,,,,,,,,,,,,287.9731,289.0343,l,1,[],[],[],[],[],[],[],0.3831,1,289.0345,289.5344,,,,,,316,MAS,AGR,150,cuerpo,el,l,0.3831,,289.5345,289.5346,-0.102714844,-0.402236328,0,0,0,,0,77,77,315,1,,,,
,,,,,,807ed545dbcc06b06f3750b6,66a626ef09d4e21e1a8894ec,6734e01871bd8e0004a40c6a,2024-11-13_11h24.51.797,Tarea de género gramatical,2024.2.2,MacIntel,60.14675809,,,,,,,,,,,,,,,,,,,,,,,,289.5364,290.6828,a,1,[],[],[],[],[],[],[],0.4703,1,290.6829,291.1811,,,,,,344,FEM,CON,150,pareja,,a,0.4703,,291.1827,291.1842,-0.102714844,-0.402236328,0,0,0,,0,78,78,343,1,,,,
,,,,,,807ed545dbcc06b06f3750b6,66a626ef09d4e21e1a8894ec,6734e01871bd8e0004a40c6a,2024-11-13_11h24.51.797,Tarea de género gramatical,2024.2.2,MacIntel,60.14675809,,,,,,,,,,,,,,,,,,,,,,,,291.1854,292.3452,a,1,[],[],[],[],[],[],[],0.4829,1,292.3454,292.8431,,,,,,375,FEM,DIS,150,cadena,el,a,0.4829,,292.8431,292.8433,-0.102714844,-0.402236328,0,0,0,,0,79,79,374,1,,,,
,,,,,,807ed545dbcc06b06f3750b6,66a626ef09d4e21e1a8894ec,6734e01871bd8e0004a40c6a,2024-11-13_11h24.51.797,Tarea de género gramatical,2024.2.2,MacIntel,60.14675809,,,,,,,,,,,,,,,,,,,,,,,,292.8448,293.9241,l,1,[],[],[],[],[],[],[],0.4062,1,293.9242,294.4227,,,,,,180,MAS,DIS,150,fuego,la,l,0.4062,,294.4228,294.423,-0.102714844,-0.402236328,0,0,0,,0,80,80,179,1,,,,
,,,,,,807ed545dbcc06b06f3750b6,66a626ef09d4e21e1a8894ec,6734e01871bd8e0004a40c6a,2024-11-13_11h24.51.797,Tarea de género gramatical,2024.2.2,MacIntel,60.14675809,,,,,,,,,,,,,,,,,,,,,,,,294.4243,295.7196,l,1,[],[],[],[],[],[],[],0.616,1,295.7198,296.2185,,,,,,323,MAS,CON,150,marido,,l,0.616,,296.2186,296.2187,-0.102714844,-0.402236328,0,0,0,,0,81,81,322,1,,,,
,,,,,,807ed545dbcc06b06f3750b6,66a626ef09d4e21e1a8894ec,6734e01871bd8e0004a40c6a,2024-11-13_11h24.51.797,Tarea de género gramatical,2024.2.2,MacIntel,60.14675809,,,,,,,,,,,,,,,,,,,,,,,,296.2203,297.4156,l,1,[],[],[],[],[],[],[],0.5224,1,297.4158,297.9146,,,,,,228,MAS,DIS,150,nivel,la,l,0.5224,,297.9146,297.9148,-0.102714844,-0.402236328,0,0,0,,0,82,82,227,1,,,,
,,,,,,807ed545dbcc06b06f3750b6,66a626ef09d4e21e1a8894ec,6734e01871bd8e0004a40c6a,2024-11-13_11h24.51.797,Tarea de género gramatical,2024.2.2,MacIntel,60.14675809,,,,,,,,,,,,,,,,,,,,,,,,297.9163,298.9787,l,1,[],[],[],[],[],[],[],0.3931,1,298.9788,299.4771,,,,,,101,MAS,CON,150,giro,,l,0.3931,,299.4785,299.4801,-0.102714844,-0.402236328,0,0,0,,0,83,83,100,1,,,,
,,,,,,807ed545dbcc06b06f3750b6,66a626ef09d4e21e1a8894ec,6734e01871bd8e0004a40c6a,2024-11-13_11h24.51.797,Tarea de género gramatical,2024.2.2,MacIntel,60.14675809,,,,,,,,,,,,,,,,,,,,,,,,299.4813,300.6582,a,1,[],[],[],[],[],[],[],0.5021,1,300.6583,301.1569,,,,,,37,FEM,AGR,150,sala,la,a,0.5021,,301.1569,301.1571,-0.102714844,-0.402236328,0,0,0,,0,84,84,36,1,,,,
,,,,,,807ed545dbcc06b06f3750b6,66a626ef09d4e21e1a8894ec,6734e01871bd8e0004a40c6a,2024-11-13_11h24.51.797,Tarea de género gramatical,2024.2.2,MacIntel,60.14675809,,,,,,,,,,,,,,,,,,,,,,,,301.1589,302.2704,a,1,[],[],[],[],[],[],[],0.4384,1,302.2706,302.7695,,,,,,351,FEM,DIS,150,espada,el,a,0.4384,,302.7695,302.7696,-0.102714844,-0.402236328,0,0,0,,0,85,85,350,1,,,,
,,,,,,807ed545dbcc06b06f3750b6,66a626ef09d4e21e1a8894ec,6734e01871bd8e0004a40c6a,2024-11-13_11h24.51.797,Tarea de género gramatical,2024.2.2,MacIntel,60.14675809,,,,,,,,,,,,,,,,,,,,,,,,302.7711,304.1493,l,1,[],[],[],[],[],[],[],0.6971,1,304.1494,304.6486,,,,,,35,MAS,CON,150,taxi,,l,0.6971,,304.6487,304.6488,-0.102714844,-0.402236328,0,0,0,,0,86,86,34,1,,,,
,,,,,,807ed545dbcc06b06f3750b6,66a626ef09d4e21e1a8894ec,6734e01871bd8e0004a40c6a,2024-11-13_11h24.51.797,Tarea de género gramatical,2024.2.2,MacIntel,60.14675809,,,,,,,,,,,,,,,,,,,,,,,,304.6504,305.7452,a,1,[],[],[],[],[],[],[],0.4175,1,305.7453,306.2446,,,,,,141,FEM,DIS,150,cera,el,a,0.4175,,306.2461,306.2478,-0.102714844,-0.402236328,0,0,0,,0,87,87,140,1,,,,
,,,,,,807ed545dbcc06b06f3750b6,66a626ef09d4e21e1a8894ec,6734e01871bd8e0004a40c6a,2024-11-13_11h24.51.797,Tarea de género gramatical,2024.2.2,MacIntel,60.14675809,,,,,,,,,,,,,,,,,,,,,,,,306.2493,307.3588,l,1,[],[],[],[],[],[],[],0.4395,1,307.359,307.8567,,,,,,155,MAS,CON,150,mundo,,l,0.4395,,307.8569,307.857,-0.102714844,-0.402236328,0,0,0,,0,88,88,154,1,,,,
,,,,,,807ed545dbcc06b06f3750b6,66a626ef09d4e21e1a8894ec,6734e01871bd8e0004a40c6a,2024-11-13_11h24.51.797,Tarea de género gramatical,2024.2.2,MacIntel,60.14675809,,,,,,,,,,,,,,,,,,,,,,,,307.8584,308.9543,l,1,[],[],[],[],[],[],[],0.4192,1,308.9544,309.4538,,,,,,48,MAS,DIS,150,loco,la,l,0.4192,,309.4539,309.454,-0.102714844,-0.402236328,0,0,0,,0,89,89,47,1,,,,
,,,,,,807ed545dbcc06b06f3750b6,66a626ef09d4e21e1a8894ec,6734e01871bd8e0004a40c6a,2024-11-13_11h24.51.797,Tarea de género gramatical,2024.2.2,MacIntel,60.14675809,,,,,,,,,,,,,,,,,,,,,,,,309.4556,310.5192,a,1,[],[],[],[],[],[],[],0.3856,1,310.5194,311.0183,,,,,,169,FEM,AGR,150,vista,la,a,0.3856,,311.0185,311.0187,-0.102714844,-0.402236328,0,0,0,,0,90,90,168,1,,,,
,,,,,,807ed545dbcc06b06f3750b6,66a626ef09d4e21e1a8894ec,6734e01871bd8e0004a40c6a,2024-11-13_11h24.51.797,Tarea de género gramatical,2024.2.2,MacIntel,60.14675809,,,,,,,,,,,,,,,,,,,,,,,,311.0206,312.4474,l,1,[],[],[],[],[],[],[],0.7522,1,312.4475,312.9458,,,,,,22,MAS,AGR,150,pelo,el,l,0.7522,,312.9459,312.946,-0.102714844,-0.402236328,0,0,0,,0,91,91,21,1,,,,
,,,,,,807ed545dbcc06b06f3750b6,66a626ef09d4e21e1a8894ec,6734e01871bd8e0004a40c6a,2024-11-13_11h24.51.797,Tarea de género gramatical,2024.2.2,MacIntel,60.14675809,,,,,,,,,,,,,,,,,,,,,,,,312.9478,314.1428,a,1,[],[],[],[],[],[],[],0.5156,1,314.143,314.6429,,,,,,325,FEM,AGR,150,tierra,la,a,0.5156,,314.6446,314.6464,-0.102714844,-0.402236328,0,0,0,,0,92,92,324,1,,,,
,,,,,,807ed545dbcc06b06f3750b6,66a626ef09d4e21e1a8894ec,6734e01871bd8e0004a40c6a,2024-11-13_11h24.51.797,Tarea de género gramatical,2024.2.2,MacIntel,60.14675809,,,,,,,,,,,,,,,,,,,,,,,,314.648,316.1049,l,1,[],[],[],[],[],[],[],0.7858,1,316.105,316.603,,,,,,114,MAS,DIS,150,menú,la,l,0.7858,,316.6031,316.6033,-0.102714844,-0.402236328,0,0,0,,0,93,93,113,1,,,,
,,,,,,807ed545dbcc06b06f3750b6,66a626ef09d4e21e1a8894ec,6734e01871bd8e0004a40c6a,2024-11-13_11h24.51.797,Tarea de género gramatical,2024.2.2,MacIntel,60.14675809,,,,,,,,,,,,,,,,,,,,,,,,316.6048,317.7514,a,1,[],[],[],[],[],[],[],0.4692,1,317.7515,318.2498,,,,,,57,FEM,DIS,150,moda,el,a,0.4692,,318.2499,318.25,-0.102714844,-0.402236328,0,0,0,,0,94,94,56,1,,,,
,,,,,,807ed545dbcc06b06f3750b6,66a626ef09d4e21e1a8894ec,6734e01871bd8e0004a40c6a,2024-11-13_11h24.51.797,Tarea de género gramatical,2024.2.2,MacIntel,60.14675809,,,,,,,,,,,,,,,,,,,,,,,,318.2515,319.497,a,1,[],[],[],[],[],[],[],0.5704,1,319.4972,319.9958,,,,,,423,FEM,DIS,150,poesía,el,a,0.5704,,319.996,319.9961,-0.102714844,-0.402236328,0,0,0,,0,95,95,422,1,,,,
,,,,,,807ed545dbcc06b06f3750b6,66a626ef09d4e21e1a8894ec,6734e01871bd8e0004a40c6a,2024-11-13_11h24.51.797,Tarea de género gramatical,2024.2.2,MacIntel,60.14675809,,,,,,,,,,,,,,,,,,,,,,,,319.9981,321.2262,l,1,[],[],[],[],[],[],[],0.5524,1,321.2263,321.725,,,,,,210,MAS,DIS,150,baile,la,l,0.5524,,321.7265,321.7282,-0.102714844,-0.402236328,0,0,0,,0,96,96,209,1,,,,
,,,,,,807ed545dbcc06b06f3750b6,66a626ef09d4e21e1a8894ec,6734e01871bd8e0004a40c6a,2024-11-13_11h24.51.797,Tarea de género gramatical,2024.2.2,MacIntel,60.14675809,,,,,,,,,,,,,,,,,,,,,,,,321.7295,322.9884,a,1,[],[],[],[],[],[],[],0.5833,1,322.9885,323.4878,,,,,,98,FEM,CON,150,fuga,,a,0.5833,,323.4879,323.4881,-0.102714844,-0.402236328,0,0,0,,0,97,97,97,1,,,,
,,,,,,807ed545dbcc06b06f3750b6,66a626ef09d4e21e1a8894ec,6734e01871bd8e0004a40c6a,2024-11-13_11h24.51.797,Tarea de género gramatical,2024.2.2,MacIntel,60.14675809,,,,,,,,,,,,,,,,,,,,,,,,323.49,325.049,a,1,[],[],[],[],[],[],[],0.8831,1,325.0493,325.5485,,,,,,93,FEM,DIS,150,lata,el,a,0.8831,,325.5486,325.5488,-0.102714844,-0.402236328,0,0,0,,0,98,98,92,1,,,,
,,,,,,807ed545dbcc06b06f3750b6,66a626ef09d4e21e1a8894ec,6734e01871bd8e0004a40c6a,2024-11-13_11h24.51.797,Tarea de género gramatical,2024.2.2,MacIntel,60.14675809,,,,,,,,,,,,,,,,,,,,,,,,325.5503,326.6629,l,1,[],[],[],[],[],[],[],0.4329,1,326.663,327.1641,,,,,,358,MAS,AGR,150,motivo,el,l,0.4329,,327.1642,327.1643,-0.102714844,-0.402236328,0,0,0,,0,99,99,357,1,,,,
,,,,,,807ed545dbcc06b06f3750b6,66a626ef09d4e21e1a8894ec,6734e01871bd8e0004a40c6a,2024-11-13_11h24.51.797,Tarea de género gramatical,2024.2.2,MacIntel,60.14675809,,,,,,,,,,,,,,,,,,,,,,,,327.1663,328.3427,l,1,[],[],[],[],[],[],[],0.4996,1,328.3428,328.8415,,,,,,270,MAS,DIS,150,queso,la,l,0.4996,,328.8416,328.8418,-0.102714844,-0.402236328,0,0,0,,0,100,100,269,1,,,,
,,,,,,807ed545dbcc06b06f3750b6,66a626ef09d4e21e1a8894ec,6734e01871bd8e0004a40c6a,2024-11-13_11h24.51.797,Tarea de género gramatical,2024.2.2,MacIntel,60.14675809,,,,,,,,,,,,,,,,,,,,,,,,328.8436,330.2384,a,1,[],[],[],[],[],[],[],0.7169,1,330.2386,330.7371,,,,,,74,FEM,CON,150,flor,,a,0.7169,,330.7387,330.7405,-0.102714844,-0.402236328,0,0,0,,0,101,101,73,1,,,,
,,,,,,807ed545dbcc06b06f3750b6,66a626ef09d4e21e1a8894ec,6734e01871bd8e0004a40c6a,2024-11-13_11h24.51.797,Tarea de género gramatical,2024.2.2,MacIntel,60.14675809,,,,,,,,,,,,,,,,,,,,,,,,330.7419,332.035,l,1,[],[],[],[],[],[],[],0.6161,1,332.0352,332.5329,,,,,,443,MAS,CON,150,templo,,l,0.6161,,332.5329,332.5331,-0.102714844,-0.402236328,0,0,0,,0,102,102,442,1,,,,
,,,,,,807ed545dbcc06b06f3750b6,66a626ef09d4e21e1a8894ec,6734e01871bd8e0004a40c6a,2024-11-13_11h24.51.797,Tarea de género gramatical,2024.2.2,MacIntel,60.14675809,,,,,,,,,,,,,,,,,,,,,,,,332.5349,333.8297,l,1,[],[],[],[],[],[],[],0.623,1,333.8299,334.3284,,,,,,366,MAS,DIS,150,riesgo,la,l,0.623,,334.3286,334.3286,-0.102714844,-0.402236328,0,0,0,,0,103,103,365,1,,,,
,,,,,,807ed545dbcc06b06f3750b6,66a626ef09d4e21e1a8894ec,6734e01871bd8e0004a40c6a,2024-11-13_11h24.51.797,Tarea de género gramatical,2024.2.2,MacIntel,60.14675809,,,,,,,,,,,,,,,,,,,,,,,,334.3304,335.3929,l,1,[],[],[],[],[],[],[],0.3858,1,335.393,335.8917,,,,,,162,MAS,DIS,150,miedo,la,l,0.3858,,335.8919,335.8921,-0.102714844,-0.402236328,0,0,0,,0,104,104,161,1,,,,
,,,,,,807ed545dbcc06b06f3750b6,66a626ef09d4e21e1a8894ec,6734e01871bd8e0004a40c6a,2024-11-13_11h24.51.797,Tarea de género gramatical,2024.2.2,MacIntel,60.14675809,,,,,,,,,,,,,,,,,,,,,,,,335.8941,337.1057,l,1,[],[],[],[],[],[],[],0.5323,1,337.1058,337.6054,,,,,,444,MAS,DIS,150,límite,la,l,0.5323,,337.6074,337.6092,-0.102714844,-0.402236328,0,0,0,,0,105,105,443,1,,,,
,,,,,,807ed545dbcc06b06f3750b6,66a626ef09d4e21e1a8894ec,6734e01871bd8e0004a40c6a,2024-11-13_11h24.51.797,Tarea de género gramatical,2024.2.2,MacIntel,60.14675809,,,,,,,,,,,,,,,,,,,,,,,,337.6108,338.8184,a,1,[],[],[],[],[],[],[],0.5345,1,338.8187,339.3182,,,,,,81,FEM,DIS,150,cima,el,a,0.5345,,339.3183,339.3185,-0.102714844,-0.402236328,0,0,0,,0,106,106,80,1,,,,
,,,,,,807ed545dbcc06b06f3750b6,66a626ef09d4e21e1a8894ec,6734e01871bd8e0004a40c6a,2024-11-13_11h24.51.797,Tarea de género gramatical,2024.2.2,MacIntel,60.14675809,,,,,,,,,,,,,,,,,,,,,,,,339.3206,340.4817,a,1,[],[],[],[],[],[],[],0.4835,1,340.4818,340.9797,,,,,,79,FEM,AGR,150,mina,la,a,0.4835,,340.9798,340.9799,-0.102714844,-0.402236328,0,0,0,,0,107,107,78,1,,,,
,,,,,,807ed545dbcc06b06f3750b6,66a626ef09d4e21e1a8894ec,6734e01871bd8e0004a40c6a,2024-11-13_11h24.51.797,Tarea de género gramatical,2024.2.2,MacIntel,60.14675809,,,,,,,,,,,,,,,,,,,,,,,,340.9818,342.077,l,1,[],[],[],[],[],[],[],0.4167,1,342.0771,342.5756,,,,,,197,MAS,CON,150,avión,,l,0.4167,,342.5757,342.5758,-0.102714844,-0.402236328,0,0,0,,0,108,108,196,1,,,,
,,,,,,807ed545dbcc06b06f3750b6,66a626ef09d4e21e1a8894ec,6734e01871bd8e0004a40c6a,2024-11-13_11h24.51.797,Tarea de género gramatical,2024.2.2,MacIntel,60.14675809,,,,,,,,,,,,,,,,,,,,,,,,342.5778,343.8062,l,1,[],[],[],[],[],[],[],0.5499,1,343.8064,344.3043,,,,,,12,MAS,DIS,150,plan,la,l,0.5499,,344.3044,344.3045,-0.102714844,-0.402236328,0,0,0,,0,109,109,11,1,,,,
,,,,,,807ed545dbcc06b06f3750b6,66a626ef09d4e21e1a8894ec,6734e01871bd8e0004a40c6a,2024-11-13_11h24.51.797,Tarea de género gramatical,2024.2.2,MacIntel,60.14675809,,,,,,,,,,,,,,,,,,,,,,,,344.3065,345.4685,a,1,[],[],[],[],[],[],[],0.4834,1,345.4687,345.9675,,,,,,165,FEM,DIS,150,amiga,el,a,0.4834,,345.9694,345.971,-0.102714844,-0.402236328,0,0,0,,0,110,110,164,1,,,,
,,,,,,807ed545dbcc06b06f3750b6,66a626ef09d4e21e1a8894ec,6734e01871bd8e0004a40c6a,2024-11-13_11h24.51.797,Tarea de género gramatical,2024.2.2,MacIntel,60.14675809,,,,,,,,,,,,,,,,,,,,,,,,345.9725,347.0984,l,1,[],[],[],[],[],[],[],0.45,1,347.0985,347.5958,,,,,,407,MAS,CON,150,jurado,,l,0.45,,347.596,347.5961,-0.102714844,-0.402236328,0,0,0,,0,111,111,406,1,,,,
,,,,,,807ed545dbcc06b06f3750b6,66a626ef09d4e21e1a8894ec,6734e01871bd8e0004a40c6a,2024-11-13_11h24.51.797,Tarea de género gramatical,2024.2.2,MacIntel,60.14675809,,,,,,,,,,,,,,,,,,,,,,,,347.5978,349.2762,a,1,[],[],[],[],[],[],[],1.0009,1,349.2762,349.7755,,,,,,45,FEM,DIS,150,isla,el,a,1.0009,,349.7756,349.7758,-0.102714844,-0.402236328,0,0,0,,0,112,112,44,1,,,,
,,,,,,807ed545dbcc06b06f3750b6,66a626ef09d4e21e1a8894ec,6734e01871bd8e0004a40c6a,2024-11-13_11h24.51.797,Tarea de género gramatical,2024.2.2,MacIntel,60.14675809,,,,,,,,,,,,,,,,,,,,,,,,349.7774,350.9067,l,1,[],[],[],[],[],[],[],0.4513,1,350.9068,351.4062,,,,,,221,MAS,CON,150,brazo,,l,0.4513,,351.4062,351.4064,-0.102714844,-0.402236328,0,0,0,,0,113,113,220,1,,,,
,,,,,,807ed545dbcc06b06f3750b6,66a626ef09d4e21e1a8894ec,6734e01871bd8e0004a40c6a,2024-11-13_11h24.51.797,Tarea de género gramatical,2024.2.2,MacIntel,60.14675809,,,,,,,,,,,,,,,,,,,,,,,,351.4086,352.4195,a,1,[],[],[],[],[],[],[],0.3361,1,352.4196,352.9186,,,,,,194,FEM,CON,150,banda,,a,0.3361,,352.9207,352.9233,-0.102714844,-0.402236328,0,0,0,,0,114,114,193,1,,,,
,,,,,,807ed545dbcc06b06f3750b6,66a626ef09d4e21e1a8894ec,6734e01871bd8e0004a40c6a,2024-11-13_11h24.51.797,Tarea de género gramatical,2024.2.2,MacIntel,60.14675809,,,,,,,,,,,,,,,,,,,,,,,,352.925,354.1488,a,1,[],[],[],[],[],[],[],0.5473,1,354.1491,354.6475,,,,,,349,FEM,AGR,150,prensa,la,a,0.5473,,354.6476,354.6478,-0.102714844,-0.402236328,0,0,0,,0,115,115,348,1,,,,
,,,,,,807ed545dbcc06b06f3750b6,66a626ef09d4e21e1a8894ec,6734e01871bd8e0004a40c6a,2024-11-13_11h24.51.797,Tarea de género gramatical,2024.2.2,MacIntel,60.14675809,,,,,,,,,,,,,,,,,,,,,,,,354.6499,355.8283,a,1,[],[],[],[],[],[],[],0.5078,1,355.8283,356.3282,,,,,,73,FEM,AGR,150,roca,la,a,0.5078,,356.3283,356.3285,-0.102714844,-0.402236328,0,0,0,,0,116,116,72,1,,,,
,,,,,,807ed545dbcc06b06f3750b6,66a626ef09d4e21e1a8894ec,6734e01871bd8e0004a40c6a,2024-11-13_11h24.51.797,Tarea de género gramatical,2024.2.2,MacIntel,60.14675809,,,,,,,,,,,,,,,,,,,,,,,,356.3307,357.4744,l,1,[],[],[],[],[],[],[],0.469,1,357.4746,357.9729,,,,,,167,MAS,CON,150,juego,,l,0.469,,357.973,357.9732,-0.102714844,-0.402236328,0,0,0,,0,117,117,166,1,,,,
,,,,,,807ed545dbcc06b06f3750b6,66a626ef09d4e21e1a8894ec,6734e01871bd8e0004a40c6a,2024-11-13_11h24.51.797,Tarea de género gramatical,2024.2.2,MacIntel,60.14675809,,,,,,,,,,,,,,,,,,,,,,,,357.9751,359.0869,l,1,[],[],[],[],[],[],[],0.4353,1,359.0869,359.5853,,,,,,372,MAS,DIS,150,delito,la,l,0.4353,,359.5854,359.5856,-0.102714844,-0.402236328,0,0,0,,0,118,118,371,1,,,,
,,,,,,807ed545dbcc06b06f3750b6,66a626ef09d4e21e1a8894ec,6734e01871bd8e0004a40c6a,2024-11-13_11h24.51.797,Tarea de género gramatical,2024.2.2,MacIntel,60.14675809,,,,,,,,,,,,,,,,,,,,,,,,359.5873,360.7164,a,0,[],[],[],[],[],[],[],0.4492,0,360.7177,361.2152,,,,,,6,MAS,DIS,150,lado,la,l,0.4492,,361.2165,361.2183,-0.102714844,-0.402236328,0,0,0,,0,119,119,5,1,,,,
,,,,,,807ed545dbcc06b06f3750b6,66a626ef09d4e21e1a8894ec,6734e01871bd8e0004a40c6a,2024-11-13_11h24.51.797,Tarea de género gramatical,2024.2.2,MacIntel,60.14675809,,,,,,,,,,,,,,,,,,,,,,,,361.2196,362.3462,l,1,[],[],[],[],[],[],[],0.453,1,362.3472,362.8449,,,,,,250,MAS,AGR,150,cerdo,el,l,0.453,,362.8451,362.8453,-0.102714844,-0.402236328,0,0,0,,0,120,120,249,1,,,,
,,,,,,807ed545dbcc06b06f3750b6,66a626ef09d4e21e1a8894ec,6734e01871bd8e0004a40c6a,2024-11-13_11h24.51.797,Tarea de género gramatical,2024.2.2,MacIntel,60.14675809,,,,,,,,,,,,,,,,,,,,,,,,362.8468,363.8253,l,1,[],[],[],[],[],[],[],0.2991,1,363.8254,364.3245,,,,,,304,MAS,AGR,150,tiempo,el,l,0.2991,,364.3246,364.3248,-0.102714844,-0.402236328,0,0,0,,0,121,121,303,1,,,,
,,,,,,807ed545dbcc06b06f3750b6,66a626ef09d4e21e1a8894ec,6734e01871bd8e0004a40c6a,2024-11-13_11h24.51.797,Tarea de género gramatical,2024.2.2,MacIntel,60.14675809,,,,,,,,,,,,,,,,,,,,,,,,364.3267,365.3219,l,1,[],[],[],[],[],[],[],0.3189,1,365.322,365.8213,,,,,,353,MAS,CON,150,verano,,l,0.3189,,365.8213,365.8215,-0.102714844,-0.402236328,0,0,0,,0,122,122,352,1,,,,
,,,,,,807ed545dbcc06b06f3750b6,66a626ef09d4e21e1a8894ec,6734e01871bd8e0004a40c6a,2024-11-13_11h24.51.797,Tarea de género gramatical,2024.2.2,MacIntel,60.14675809,,,,,,,,,,,,,,,,,,,,,,,,365.8229,366.8678,l,1,[],[],[],[],[],[],[],0.3754,1,366.868,367.3672,,,,,,174,MAS,DIS,150,perro,la,l,0.3754,,367.3686,367.3706,-0.102714844,-0.402236328,0,0,0,,0,123,123,173,1,,,,
,,,,,,807ed545dbcc06b06f3750b6,66a626ef09d4e21e1a8894ec,6734e01871bd8e0004a40c6a,2024-11-13_11h24.51.797,Tarea de género gramatical,2024.2.2,MacIntel,60.14675809,,,,,,,,,,,,,,,,,,,,,,,,367.372,368.4483,l,1,[],[],[],[],[],[],[],0.3988,1,368.4484,368.9464,,,,,,449,MAS,CON,150,payaso,,l,0.3988,,368.9465,368.9466,-0.102714844,-0.402236328,0,0,0,,0,124,124,448,1,,,,
,,,,,,807ed545dbcc06b06f3750b6,66a626ef09d4e21e1a8894ec,6734e01871bd8e0004a40c6a,2024-11-13_11h24.51.797,Tarea de género gramatical,2024.2.2,MacIntel,60.14675809,,,,,,,,,,,,,,,,,,,,,,,,368.948,369.9776,l,1,[],[],[],[],[],[],[],0.3506,1,369.9777,370.4777,,,,,,274,MAS,AGR,150,motor,el,l,0.3506,,370.4777,370.4781,-0.102714844,-0.402236328,0,0,0,,0,125,125,273,1,,,,
,,,,,,807ed545dbcc06b06f3750b6,66a626ef09d4e21e1a8894ec,6734e01871bd8e0004a40c6a,2024-11-13_11h24.51.797,Tarea de género gramatical,2024.2.2,MacIntel,60.14675809,,,,,,,,,,,,,,,,,,,,,,,,370.4801,371.4749,l,1,[],[],[],[],[],[],[],0.3206,1,371.4751,371.9729,,,,,,377,MAS,CON,150,jardín,,l,0.3206,,371.973,371.9732,-0.102714844,-0.402236328,0,0,0,,0,126,126,376,1,,,,
,,,,,,807ed545dbcc06b06f3750b6,66a626ef09d4e21e1a8894ec,6734e01871bd8e0004a40c6a,2024-11-13_11h24.51.797,Tarea de género gramatical,2024.2.2,MacIntel,60.14675809,,,,,,,,,,,,,,,,,,,,,,,,371.9747,372.8875,l,0,[],[],[],[],[],[],[],0.2339,0,372.8885,373.3866,,,,,,153,FEM,DIS,150,mujer,el,a,0.2339,,373.3866,373.3868,-0.102714844,-0.402236328,0,0,0,,0,127,127,152,1,,,,
,,,,,,807ed545dbcc06b06f3750b6,66a626ef09d4e21e1a8894ec,6734e01871bd8e0004a40c6a,2024-11-13_11h24.51.797,Tarea de género gramatical,2024.2.2,MacIntel,60.14675809,,,,,,,,,,,,,,,,,,,,,,,,373.3883,374.4343,l,1,[],[],[],[],[],[],[],0.3706,1,374.4354,374.9328,,,,,,220,MAS,AGR,150,huevo,el,l,0.3706,,374.9342,374.9365,-0.102714844,-0.402236328,0,0,0,,0,128,128,219,1,,,,
,,,,,,807ed545dbcc06b06f3750b6,66a626ef09d4e21e1a8894ec,6734e01871bd8e0004a40c6a,2024-11-13_11h24.51.797,Tarea de género gramatical,2024.2.2,MacIntel,60.14675809,,,,,,,,,,,,,,,,,,,,,,,,374.9382,375.9314,l,1,[],[],[],[],[],[],[],0.3278,1,375.9315,376.4292,,,,,,72,MAS,DIS,150,hoyo,la,l,0.3278,,376.4293,376.4296,-0.102714844,-0.402236328,0,0,0,,0,129,129,71,1,,,,
,,,,,,807ed545dbcc06b06f3750b6,66a626ef09d4e21e1a8894ec,6734e01871bd8e0004a40c6a,2024-11-13_11h24.51.797,Tarea de género gramatical,2024.2.2,MacIntel,60.14675809,,,,,,,,,,,,,,,,,,,,,,,,376.4308,377.5261,l,1,[],[],[],[],[],[],[],0.4159,1,377.5263,378.0251,,,,,,18,MAS,DIS,150,tren,la,l,0.4159,,378.0252,378.0255,-0.102714844,-0.402236328,0,0,0,,0,130,130,17,1,,,,
,,,,,,807ed545dbcc06b06f3750b6,66a626ef09d4e21e1a8894ec,6734e01871bd8e0004a40c6a,2024-11-13_11h24.51.797,Tarea de género gramatical,2024.2.2,MacIntel,60.14675809,,,,,,,,,,,,,,,,,,,,,,,,378.0269,379.1572,l,1,[],[],[],[],[],[],[],0.4579,1,379.1574,379.6559,,,,,,340,MAS,AGR,150,pasado,el,l,0.4579,,379.656,379.6562,-0.102714844,-0.402236328,0,0,0,,0,131,131,339,1,,,,
,,,,,,807ed545dbcc06b06f3750b6,66a626ef09d4e21e1a8894ec,6734e01871bd8e0004a40c6a,2024-11-13_11h24.51.797,Tarea de género gramatical,2024.2.2,MacIntel,60.14675809,,,,,,,,,,,,,,,,,,,,,,,,379.658,380.719,l,1,[],[],[],[],[],[],[],0.388,1,380.7191,381.2182,,,,,,5,MAS,CON,150,tipo,,l,0.388,,381.2197,381.2216,-0.102714844,-0.402236328,0,0,0,,0,132,132,4,1,,,,
,,,,,,807ed545dbcc06b06f3750b6,66a626ef09d4e21e1a8894ec,6734e01871bd8e0004a40c6a,2024-11-13_11h24.51.797,Tarea de género gramatical,2024.2.2,MacIntel,60.14675809,,,,,,,,,,,,,,,,,,,,,,,,381.223,382.2649,a,1,[],[],[],[],[],[],[],0.3682,1,382.2649,382.7643,,,,,,43,FEM,AGR,150,nena,la,a,0.3682,,382.7643,382.7645,-0.102714844,-0.402236328,0,0,0,,0,133,133,42,1,,,,
,,,,,,807ed545dbcc06b06f3750b6,66a626ef09d4e21e1a8894ec,6734e01871bd8e0004a40c6a,2024-11-13_11h24.51.797,Tarea de género gramatical,2024.2.2,MacIntel,60.14675809,,,,,,,,,,,,,,,,,,,,,,,,382.766,383.8788,l,1,[],[],[],[],[],[],[],0.4326,1,383.879,384.3765,,,,,,161,MAS,CON,150,chico,,l,0.4326,,384.3766,384.3768,-0.102714844,-0.402236328,0,0,0,,0,134,134,160,1,,,,
,,,,,,807ed545dbcc06b06f3750b6,66a626ef09d4e21e1a8894ec,6734e01871bd8e0004a40c6a,2024-11-13_11h24.51.797,Tarea de género gramatical,2024.2.2,MacIntel,60.14675809,,,,,,,,,,,,,,,,,,,,,,,,384.3784,385.4582,l,1,[],[],[],[],[],[],[],0.4028,1,385.4583,385.9566,,,,,,118,MAS,AGR,150,baúl,el,l,0.4028,,385.9567,385.9568,-0.102714844,-0.402236328,0,0,0,,0,135,135,117,1,,,,
,,,,,,807ed545dbcc06b06f3750b6,66a626ef09d4e21e1a8894ec,6734e01871bd8e0004a40c6a,2024-11-13_11h24.51.797,Tarea de género gramatical,2024.2.2,MacIntel,60.14675809,,,,,,,,,,,,,,,,,,,,,,,,385.958,387.0871,a,1,[],[],[],[],[],[],[],0.4558,1,387.0872,387.5851,,,,,,404,FEM,CON,150,gloria,,a,0.4558,,387.5851,387.5853,-0.102714844,-0.402236328,0,0,0,,0,136,136,403,1,,,,
,,,,,,807ed545dbcc06b06f3750b6,66a626ef09d4e21e1a8894ec,6734e01871bd8e0004a40c6a,2024-11-13_11h24.51.797,Tarea de género gramatical,2024.2.2,MacIntel,60.14675809,,,,,,,,,,,,,,,,,,,,,,,,387.5865,388.6504,l,1,[],[],[],[],[],[],[],0.3827,1,388.6504,389.1494,,,,,,66,MAS,DIS,150,muro,la,l,0.3827,,389.1508,389.1528,-0.102714844,-0.402236328,0,0,0,,0,137,137,65,1,,,,
,,,,,,807ed545dbcc06b06f3750b6,66a626ef09d4e21e1a8894ec,6734e01871bd8e0004a40c6a,2024-11-13_11h24.51.797,Tarea de género gramatical,2024.2.2,MacIntel,60.14675809,,,,,,,,,,,,,,,,,,,,,,,,389.1543,390.3133,a,1,[],[],[],[],[],[],[],0.4813,1,390.3133,390.8121,,,,,,439,FEM,AGR,150,toalla,la,a,0.4813,,390.8122,390.8123,-0.102714844,-0.402236328,0,0,0,,0,138,138,438,1,,,,
,,,,,,807ed545dbcc06b06f3750b6,66a626ef09d4e21e1a8894ec,6734e01871bd8e0004a40c6a,2024-11-13_11h24.51.797,Tarea de género gramatical,2024.2.2,MacIntel,60.14675809,,,,,,,,,,,,,,,,,,,,,,,,390.8136,391.86,a,1,[],[],[],[],[],[],[],0.373,1,391.8601,392.3583,,,,,,267,FEM,DIS,150,barba,el,a,0.373,,392.3584,392.3586,-0.102714844,-0.402236328,0,0,0,,0,139,139,266,1,,,,
,,,,,,807ed545dbcc06b06f3750b6,66a626ef09d4e21e1a8894ec,6734e01871bd8e0004a40c6a,2024-11-13_11h24.51.797,Tarea de género gramatical,2024.2.2,MacIntel,60.14675809,,,,,,,,,,,,,,,,,,,,,,,,392.3599,393.4728,l,1,[],[],[],[],[],[],[],0.4353,1,393.4729,393.9716,,,,,,359,MAS,CON,150,bosque,,l,0.4353,,393.9718,393.9719,-0.102714844,-0.402236328,0,0,0,,0,140,140,358,1,,,,
,,,,,,807ed545dbcc06b06f3750b6,66a626ef09d4e21e1a8894ec,6734e01871bd8e0004a40c6a,2024-11-13_11h24.51.797,Tarea de género gramatical,2024.2.2,MacIntel,60.14675809,,,,,,,,,,,,,,,,,,,,,,,,393.9737,395.1353,l,1,[],[],[],[],[],[],[],0.4844,1,395.1355,395.6353,,,,,,430,MAS,AGR,150,título,el,l,0.4844,,395.6369,395.6385,-0.102714844,-0.402236328,0,0,0,,0,141,141,429,1,,,,
,,,,,,807ed545dbcc06b06f3750b6,66a626ef09d4e21e1a8894ec,6734e01871bd8e0004a40c6a,2024-11-13_11h24.51.797,Tarea de género gramatical,2024.2.2,MacIntel,60.14675809,,,,,,,,,,,,,,,,,,,,,,,,395.6398,396.6331,l,0,[],[],[],[],[],[],[],0.3146,0,396.6346,397.1305,,,,,,92,FEM,CON,150,masa,,a,0.3146,,397.1306,397.1307,-0.102714844,-0.402236328,0,0,0,,0,142,142,91,1,,,,
,,,,,,807ed545dbcc06b06f3750b6,66a626ef09d4e21e1a8894ec,6734e01871bd8e0004a40c6a,2024-11-13_11h24.51.797,Tarea de género gramatical,2024.2.2,MacIntel,60.14675809,,,,,,,,,,,,,,,,,,,,,,,,397.1323,398.4109,l,1,[],[],[],[],[],[],[],0.5992,1,398.4122,398.91,,,,,,216,MAS,DIS,150,éxito,la,l,0.5992,,398.9101,398.9103,-0.102714844,-0.402236328,0,0,0,,0,143,143,215,1,,,,
,,,,,,807ed545dbcc06b06f3750b6,66a626ef09d4e21e1a8894ec,6734e01871bd8e0004a40c6a,2024-11-13_11h24.51.797,Tarea de género gramatical,2024.2.2,MacIntel,60.14675809,,,,,,,,,,,,,,,,,,,,,,,,398.912,400.0905,a,1,[],[],[],[],[],[],[],0.4988,1,400.0907,400.5894,,,,,,38,FEM,CON,150,obra,,a,0.4988,,400.5894,400.5896,-0.102714844,-0.402236328,0,0,0,,0,144,144,37,1,,,,
,,,,,,807ed545dbcc06b06f3750b6,66a626ef09d4e21e1a8894ec,6734e01871bd8e0004a40c6a,2024-11-13_11h24.51.797,Tarea de género gramatical,2024.2.2,MacIntel,60.14675809,,,,,,,,,,,,,,,,,,,,,,,,400.5914,401.7696,l,1,[],[],[],[],[],[],[],0.5027,1,401.7697,402.2682,,,,,,408,MAS,DIS,150,cheque,la,l,0.5027,,402.2683,402.2685,-0.102714844,-0.402236328,0,0,0,,0,145,145,407,1,,,,
,,,,,,807ed545dbcc06b06f3750b6,66a626ef09d4e21e1a8894ec,6734e01871bd8e0004a40c6a,2024-11-13_11h24.51.797,Tarea de género gramatical,2024.2.2,MacIntel,60.14675809,,,,,,,,,,,,,,,,,,,,,,,,402.2704,403.7313,l,1,[],[],[],[],[],[],[],0.7843,1,403.7314,404.2294,,,,,,78,MAS,DIS,150,oído,la,l,0.7843,,404.231,404.2331,-0.102714844,-0.402236328,0,0,0,,0,146,146,77,1,,,,
,,,,,,807ed545dbcc06b06f3750b6,66a626ef09d4e21e1a8894ec,6734e01871bd8e0004a40c6a,2024-11-13_11h24.51.797,Tarea de género gramatical,2024.2.2,MacIntel,60.14675809,,,,,,,,,,,,,,,,,,,,,,,,404.2347,405.3114,l,1,[],[],[],[],[],[],[],0.397,1,405.3116,405.8101,,,,,,11,MAS,CON,150,país,,l,0.397,,405.8102,405.8104,-0.102714844,-0.402236328,0,0,0,,0,147,147,10,1,,,,
,,,,,,807ed545dbcc06b06f3750b6,66a626ef09d4e21e1a8894ec,6734e01871bd8e0004a40c6a,2024-11-13_11h24.51.797,Tarea de género gramatical,2024.2.2,MacIntel,60.14675809,,,,,,,,,,,,,,,,,,,,,,,,405.8125,407.1897,l,1,[],[],[],[],[],[],[],0.706,1,407.1899,407.6885,,,,,,100,MAS,AGR,150,nido,el,l,0.706,,407.6885,407.6888,-0.102714844,-0.402236328,0,0,0,,0,148,148,99,1,,,,
,,,,,,807ed545dbcc06b06f3750b6,66a626ef09d4e21e1a8894ec,6734e01871bd8e0004a40c6a,2024-11-13_11h24.51.797,Tarea de género gramatical,2024.2.2,MacIntel,60.14675809,,,,,,,,,,,,,,,,,,,,,,,,407.6907,408.9195,a,1,[],[],[],[],[],[],[],0.5557,1,408.9197,409.417,,,,,,171,FEM,DIS,150,mitad,el,a,0.5557,,409.417,409.4172,-0.102714844,-0.402236328,0,0,0,,0,149,149,170,1,,,,
,,,,,,807ed545dbcc06b06f3750b6,66a626ef09d4e21e1a8894ec,6734e01871bd8e0004a40c6a,2024-11-13_11h24.51.797,Tarea de género gramatical,2024.2.2,MacIntel,60.14675809,,,,,,,,,,,,,,,,,,,,,,,,409.4187,410.916,l,1,[],[],[],[],[],[],[],0.8186,1,410.9161,411.4146,,,,,,203,MAS,CON,150,novio,,l,0.8186,,411.4165,445.3503,-0.102714844,-0.402236328,0,0,0,space,0,150,150,202,1,33.9196,,,
,,,,,,807ed545dbcc06b06f3750b6,66a626ef09d4e21e1a8894ec,6734e01871bd8e0004a40c6a,2024-11-13_11h24.51.797,Tarea de género gramatical,2024.2.2,MacIntel,60.14675809,,,,,,,,,,,,,,,,,,,,,,,,445.364,448.0097,,0,[],[],[],[],[],[],[],0.8186,-1,448.0118,448.5082,,,,,,71,MAS,CON,150,pozo,,l,,,448.5083,448.5085,-0.102714844,-0.402236328,0,0,0,,0,151,151,70,1,,,,
,,,,,,807ed545dbcc06b06f3750b6,66a626ef09d4e21e1a8894ec,6734e01871bd8e0004a40c6a,2024-11-13_11h24.51.797,Tarea de género gramatical,2024.2.2,MacIntel,60.14675809,,,,,,,,,,,,,,,,,,,,,,,,448.5106,449.9892,a,1,[],[],[],[],[],[],[],0.7982,1,449.991,450.4871,,,,,,223,FEM,AGR,150,plata,la,a,0.7982,,450.4873,450.4875,-0.102714844,-0.402236328,0,0,0,,0,152,152,222,1,,,,
,,,,,,807ed545dbcc06b06f3750b6,66a626ef09d4e21e1a8894ec,6734e01871bd8e0004a40c6a,2024-11-13_11h24.51.797,Tarea de género gramatical,2024.2.2,MacIntel,60.14675809,,,,,,,,,,,,,,,,,,,,,,,,450.4896,451.6532,l,1,[],[],[],[],[],[],[],0.4864,1,451.6534,452.1509,,,,,,282,MAS,DIS,150,bolso,la,l,0.4864,,452.151,452.1511,-0.102714844,-0.402236328,0,0,0,,0,153,153,281,1,,,,
,,,,,,807ed545dbcc06b06f3750b6,66a626ef09d4e21e1a8894ec,6734e01871bd8e0004a40c6a,2024-11-13_11h24.51.797,Tarea de género gramatical,2024.2.2,MacIntel,60.14675809,,,,,,,,,,,,,,,,,,,,,,,,452.153,453.2312,l,1,[],[],[],[],[],[],[],0.4037,1,453.2314,453.7314,,,,,,384,MAS,DIS,150,pedazo,la,l,0.4037,,453.7314,453.7316,-0.102714844,-0.402236328,0,0,0,,0,154,154,383,1,,,,
,,,,,,807ed545dbcc06b06f3750b6,66a626ef09d4e21e1a8894ec,6734e01871bd8e0004a40c6a,2024-11-13_11h24.51.797,Tarea de género gramatical,2024.2.2,MacIntel,60.14675809,,,,,,,,,,,,,,,,,,,,,,,,453.7339,455.1775,a,1,[],[],[],[],[],[],[],0.774,1,455.1776,455.6762,,,,,,181,FEM,AGR,150,tarde,la,a,0.774,,455.6779,455.6801,-0.102714844,-0.402236328,0,0,0,,0,155,155,180,1,,,,
,,,,,,807ed545dbcc06b06f3750b6,66a626ef09d4e21e1a8894ec,6734e01871bd8e0004a40c6a,2024-11-13_11h24.51.797,Tarea de género gramatical,2024.2.2,MacIntel,60.14675809,,,,,,,,,,,,,,,,,,,,,,,,455.6815,456.7414,a,1,[],[],[],[],[],[],[],0.3843,1,456.7416,457.2391,,,,,,272,FEM,CON,150,oreja,,a,0.3843,,457.2392,457.2393,-0.102714844,-0.402236328,0,0,0,,0,156,156,271,1,,,,
,,,,,,807ed545dbcc06b06f3750b6,66a626ef09d4e21e1a8894ec,6734e01871bd8e0004a40c6a,2024-11-13_11h24.51.797,Tarea de género gramatical,2024.2.2,MacIntel,60.14675809,,,,,,,,,,,,,,,,,,,,,,,,457.241,458.3861,a,1,[],[],[],[],[],[],[],0.4685,1,458.3862,458.8848,,,,,,399,FEM,DIS,150,charla,el,a,0.4685,,458.8849,458.885,-0.102714844,-0.402236328,0,0,0,,0,157,157,398,1,,,,
,,,,,,807ed545dbcc06b06f3750b6,66a626ef09d4e21e1a8894ec,6734e01871bd8e0004a40c6a,2024-11-13_11h24.51.797,Tarea de género gramatical,2024.2.2,MacIntel,60.14675809,,,,,,,,,,,,,,,,,,,,,,,,458.8864,460.0657,a,1,[],[],[],[],[],[],[],0.5,1,460.0658,460.5647,,,,,,211,FEM,AGR,150,salud,la,a,0.5,,460.5648,460.5649,-0.102714844,-0.402236328,0,0,0,,0,158,158,210,1,,,,
,,,,,,807ed545dbcc06b06f3750b6,66a626ef09d4e21e1a8894ec,6734e01871bd8e0004a40c6a,2024-11-13_11h24.51.797,Tarea de género gramatical,2024.2.2,MacIntel,60.14675809,,,,,,,,,,,,,,,,,,,,,,,,460.5665,461.7614,l,1,[],[],[],[],[],[],[],0.5249,1,461.7616,462.2602,,,,,,166,MAS,AGR,150,coche,el,l,0.5249,,462.2614,462.2635,-0.102714844,-0.402236328,0,0,0,,0,159,159,165,1,,,,
,,,,,,807ed545dbcc06b06f3750b6,66a626ef09d4e21e1a8894ec,6734e01871bd8e0004a40c6a,2024-11-13_11h24.51.797,Tarea de género gramatical,2024.2.2,MacIntel,60.14675809,,,,,,,,,,,,,,,,,,,,,,,,462.2648,463.3569,l,1,[],[],[],[],[],[],[],0.4169,1,463.357,463.8568,,,,,,59,MAS,CON,150,lobo,,l,0.4169,,463.8569,463.8571,-0.102714844,-0.402236328,0,0,0,,0,160,160,58,1,,,,
,,,,,,807ed545dbcc06b06f3750b6,66a626ef09d4e21e1a8894ec,6734e01871bd8e0004a40c6a,2024-11-13_11h24.51.797,Tarea de género gramatical,2024.2.2,MacIntel,60.14675809,,,,,,,,,,,,,,,,,,,,,,,,463.8586,464.9705,l,1,[],[],[],[],[],[],[],0.4333,1,464.9706,465.4698,,,,,,378,MAS,DIS,150,pastel,la,l,0.4333,,465.4698,465.4699,-0.102714844,-0.402236328,0,0,0,,0,161,161,377,1,,,,
,,,,,,807ed545dbcc06b06f3750b6,66a626ef09d4e21e1a8894ec,6734e01871bd8e0004a40c6a,2024-11-13_11h24.51.797,Tarea de género gramatical,2024.2.2,MacIntel,60.14675809,,,,,,,,,,,,,,,,,,,,,,,,465.4715,466.6164,l,1,[],[],[],[],[],[],[],0.4656,1,466.6166,467.1146,,,,,,149,MAS,CON,150,nudo,,l,0.4656,,467.1146,467.1148,-0.102714844,-0.402236328,0,0,0,,0,162,162,148,1,,,,
,,,,,,807ed545dbcc06b06f3750b6,66a626ef09d4e21e1a8894ec,6734e01871bd8e0004a40c6a,2024-11-13_11h24.51.797,Tarea de género gramatical,2024.2.2,MacIntel,60.14675809,,,,,,,,,,,,,,,,,,,,,,,,467.116,468.4951,l,1,[],[],[],[],[],[],[],0.7023,1,468.4952,468.994,,,,,,252,MAS,DIS,150,viejo,la,l,0.7023,,468.9941,468.9943,-0.102714844,-0.402236328,0,0,0,,0,163,163,251,1,,,,
,,,,,,807ed545dbcc06b06f3750b6,66a626ef09d4e21e1a8894ec,6734e01871bd8e0004a40c6a,2024-11-13_11h24.51.797,Tarea de género gramatical,2024.2.2,MacIntel,60.14675809,,,,,,,,,,,,,,,,,,,,,,,,468.9958,470.1581,a,1,[],[],[],[],[],[],[],0.4863,1,470.1583,470.6585,,,,,,392,FEM,CON,150,maleta,,a,0.4863,,470.66,470.6616,-0.102714844,-0.402236328,0,0,0,,0,164,164,391,1,,,,
,,,,,,807ed545dbcc06b06f3750b6,66a626ef09d4e21e1a8894ec,6734e01871bd8e0004a40c6a,2024-11-13_11h24.51.797,Tarea de género gramatical,2024.2.2,MacIntel,60.14675809,,,,,,,,,,,,,,,,,,,,,,,,470.6628,472.0052,l,1,[],[],[],[],[],[],[],0.6709,1,472.0055,472.5042,,,,,,347,MAS,CON,150,cuello,,l,0.6709,,472.5043,472.5045,-0.102714844,-0.402236328,0,0,0,,0,165,165,346,1,,,,
,,,,,,807ed545dbcc06b06f3750b6,66a626ef09d4e21e1a8894ec,6734e01871bd8e0004a40c6a,2024-11-13_11h24.51.797,Tarea de género gramatical,2024.2.2,MacIntel,60.14675809,,,,,,,,,,,,,,,,,,,,,,,,472.5059,473.6339,a,1,[],[],[],[],[],[],[],0.4472,1,473.6341,474.1328,,,,,,326,FEM,CON,150,música,,a,0.4472,,474.1329,474.1331,-0.102714844,-0.402236328,0,0,0,,0,166,166,325,1,,,,
,,,,,,807ed545dbcc06b06f3750b6,66a626ef09d4e21e1a8894ec,6734e01871bd8e0004a40c6a,2024-11-13_11h24.51.797,Tarea de género gramatical,2024.2.2,MacIntel,60.14675809,,,,,,,,,,,,,,,,,,,,,,,,474.1347,475.2633,l,1,[],[],[],[],[],[],[],0.4484,1,475.2634,475.7615,,,,,,389,MAS,CON,150,tamaño,,l,0.4484,,475.7615,475.7617,-0.102714844,-0.402236328,0,0,0,,0,167,167,388,1,,,,
,,,,,,807ed545dbcc06b06f3750b6,66a626ef09d4e21e1a8894ec,6734e01871bd8e0004a40c6a,2024-11-13_11h24.51.797,Tarea de género gramatical,2024.2.2,MacIntel,60.14675809,,,,,,,,,,,,,,,,,,,,,,,,475.763,477.0757,a,1,[],[],[],[],[],[],[],0.6313,1,477.0758,477.5754,,,,,,381,FEM,DIS,150,bebida,el,a,0.6313,,477.5772,477.5792,-0.102714844,-0.402236328,0,0,0,,0,168,168,380,1,,,,
,,,,,,807ed545dbcc06b06f3750b6,66a626ef09d4e21e1a8894ec,6734e01871bd8e0004a40c6a,2024-11-13_11h24.51.797,Tarea de género gramatical,2024.2.2,MacIntel,60.14675809,,,,,,,,,,,,,,,,,,,,,,,,477.5806,478.7214,l,1,[],[],[],[],[],[],[],0.475,1,478.7215,479.2204,,,,,,298,MAS,AGR,150,botón,el,l,0.475,,479.2205,479.2206,-0.102714844,-0.402236328,0,0,0,,0,169,169,297,1,,,,
,,,,,,807ed545dbcc06b06f3750b6,66a626ef09d4e21e1a8894ec,6734e01871bd8e0004a40c6a,2024-11-13_11h24.51.797,Tarea de género gramatical,2024.2.2,MacIntel,60.14675809,,,,,,,,,,,,,,,,,,,,,,,,479.222,480.4506,a,1,[],[],[],[],[],[],[],0.5559,1,480.4508,480.9496,,,,,,307,FEM,AGR,150,suerte,la,a,0.5559,,480.9497,480.9499,-0.102714844,-0.402236328,0,0,0,,0,170,170,306,1,,,,
,,,,,,807ed545dbcc06b06f3750b6,66a626ef09d4e21e1a8894ec,6734e01871bd8e0004a40c6a,2024-11-13_11h24.51.797,Tarea de género gramatical,2024.2.2,MacIntel,60.14675809,,,,,,,,,,,,,,,,,,,,,,,,480.9513,482.2137,l,1,[],[],[],[],[],[],[],0.5807,1,482.2138,482.7123,,,,,,294,MAS,DIS,150,cable,la,l,0.5807,,482.7123,482.7124,-0.102714844,-0.402236328,0,0,0,,0,171,171,293,1,,,,
,,,,,,807ed545dbcc06b06f3750b6,66a626ef09d4e21e1a8894ec,6734e01871bd8e0004a40c6a,2024-11-13_11h24.51.797,Tarea de género gramatical,2024.2.2,MacIntel,60.14675809,,,,,,,,,,,,,,,,,,,,,,,,482.714,483.8256,l,1,[],[],[],[],[],[],[],0.4404,1,483.8257,484.3249,,,,,,186,MAS,DIS,150,error,la,l,0.4404,,484.325,484.3252,-0.102714844,-0.402236328,0,0,0,,0,172,172,185,1,,,,
,,,,,,807ed545dbcc06b06f3750b6,66a626ef09d4e21e1a8894ec,6734e01871bd8e0004a40c6a,2024-11-13_11h24.51.797,Tarea de género gramatical,2024.2.2,MacIntel,60.14675809,,,,,,,,,,,,,,,,,,,,,,,,484.3269,485.3726,a,1,[],[],[],[],[],[],[],0.3662,1,485.3726,485.8715,,,,,,61,FEM,AGR,150,ruta,la,a,0.3662,,485.8732,485.8753,-0.102714844,-0.402236328,0,0,0,,0,173,173,60,1,,,,
,,,,,,807ed545dbcc06b06f3750b6,66a626ef09d4e21e1a8894ec,6734e01871bd8e0004a40c6a,2024-11-13_11h24.51.797,Tarea de género gramatical,2024.2.2,MacIntel,60.14675809,,,,,,,,,,,,,,,,,,,,,,,,485.8768,486.9352,l,1,[],[],[],[],[],[],[],0.384,1,486.9353,487.4346,,,,,,306,MAS,DIS,150,dinero,la,l,0.384,,487.4347,487.4348,-0.102714844,-0.402236328,0,0,0,,0,174,174,305,1,,,,
,,,,,,807ed545dbcc06b06f3750b6,66a626ef09d4e21e1a8894ec,6734e01871bd8e0004a40c6a,2024-11-13_11h24.51.797,Tarea de género gramatical,2024.2.2,MacIntel,60.14675809,,,,,,,,,,,,,,,,,,,,,,,,487.4366,488.8312,a,1,[],[],[],[],[],[],[],0.7153,1,488.8314,489.3292,,,,,,362,FEM,CON,150,fuente,,a,0.7153,,489.3293,489.3295,-0.102714844,-0.402236328,0,0,0,,0,175,175,361,1,,,,
,,,,,,807ed545dbcc06b06f3750b6,66a626ef09d4e21e1a8894ec,6734e01871bd8e0004a40c6a,2024-11-13_11h24.51.797,Tarea de género gramatical,2024.2.2,MacIntel,60.14675809,,,,,,,,,,,,,,,,,,,,,,,,489.331,490.5429,a,1,[],[],[],[],[],[],[],0.5362,1,490.543,491.0427,,,,,,249,FEM,DIS,150,crema,el,a,0.5362,,491.0428,491.043,-0.102714844,-0.402236328,0,0,0,,0,176,176,248,1,,,,
,,,,,,807ed545dbcc06b06f3750b6,66a626ef09d4e21e1a8894ec,6734e01871bd8e0004a40c6a,2024-11-13_11h24.51.797,Tarea de género gramatical,2024.2.2,MacIntel,60.14675809,,,,,,,,,,,,,,,,,,,,,,,,491.0451,492.3062,l,1,[],[],[],[],[],[],[],0.5831,1,492.3063,492.8054,,,,,,360,MAS,DIS,150,puente,la,l,0.5831,,492.807,492.8086,-0.102714844,-0.402236328,0,0,0,,0,177,177,359,1,,,,
,,,,,,807ed545dbcc06b06f3750b6,66a626ef09d4e21e1a8894ec,6734e01871bd8e0004a40c6a,2024-11-13_11h24.51.797,Tarea de género gramatical,2024.2.2,MacIntel,60.14675809,,,,,,,,,,,,,,,,,,,,,,,,492.8099,494.0199,a,0,[],[],[],[],[],[],[],0.5334,0,494.0213,494.5188,,,,,,376,MAS,AGR,150,efecto,el,l,0.5334,,494.5188,494.519,-0.102714844,-0.402236328,0,0,0,,0,178,178,375,1,,,,
,,,,,,807ed545dbcc06b06f3750b6,66a626ef09d4e21e1a8894ec,6734e01871bd8e0004a40c6a,2024-11-13_11h24.51.797,Tarea de género gramatical,2024.2.2,MacIntel,60.14675809,,,,,,,,,,,,,,,,,,,,,,,,494.5208,495.5657,a,1,[],[],[],[],[],[],[],0.3659,1,495.5669,496.0643,,,,,,235,FEM,AGR,150,torre,la,a,0.3659,,496.0644,496.0645,-0.102714844,-0.402236328,0,0,0,,0,179,179,234,1,,,,
,,,,,,807ed545dbcc06b06f3750b6,66a626ef09d4e21e1a8894ec,6734e01871bd8e0004a40c6a,2024-11-13_11h24.51.797,Tarea de género gramatical,2024.2.2,MacIntel,60.14675809,,,,,,,,,,,,,,,,,,,,,,,,496.0664,497.1282,l,1,[],[],[],[],[],[],[],0.3829,1,497.1284,497.627,,,,,,34,MAS,AGR,150,gato,el,l,0.3829,,497.6272,497.6272,-0.102714844,-0.402236328,0,0,0,,0,180,180,33,1,,,,
,,,,,,807ed545dbcc06b06f3750b6,66a626ef09d4e21e1a8894ec,6734e01871bd8e0004a40c6a,2024-11-13_11h24.51.797,Tarea de género gramatical,2024.2.2,MacIntel,60.14675809,,,,,,,,,,,,,,,,,,,,,,,,497.6289,498.7912,l,1,[],[],[],[],[],[],[],0.4857,1,498.7914,499.2897,,,,,,154,MAS,AGR,150,padre,el,l,0.4857,,499.2899,499.2899,-0.102714844,-0.402236328,0,0,0,,0,181,181,153,1,,,,
,,,,,,807ed545dbcc06b06f3750b6,66a626ef09d4e21e1a8894ec,6734e01871bd8e0004a40c6a,2024-11-13_11h24.51.797,Tarea de género gramatical,2024.2.2,MacIntel,60.14675809,,,,,,,,,,,,,,,,,,,,,,,,499.2917,500.3379,l,1,[],[],[],[],[],[],[],0.3688,1,500.3381,500.8361,,,,,,246,MAS,DIS,150,humor,la,l,0.3688,,500.8379,500.84,-0.102714844,-0.402236328,0,0,0,,0,182,182,245,1,,,,
,,,,,,807ed545dbcc06b06f3750b6,66a626ef09d4e21e1a8894ec,6734e01871bd8e0004a40c6a,2024-11-13_11h24.51.797,Tarea de género gramatical,2024.2.2,MacIntel,60.14675809,,,,,,,,,,,,,,,,,,,,,,,,500.8414,502.4485,l,1,[],[],[],[],[],[],[],0.9415,1,502.4485,502.9481,,,,,,438,MAS,DIS,150,tanque,la,l,0.9415,,502.9482,502.9484,-0.102714844,-0.402236328,0,0,0,,0,183,183,437,1,,,,
,,,,,,807ed545dbcc06b06f3750b6,66a626ef09d4e21e1a8894ec,6734e01871bd8e0004a40c6a,2024-11-13_11h24.51.797,Tarea de género gramatical,2024.2.2,MacIntel,60.14675809,,,,,,,,,,,,,,,,,,,,,,,,502.9503,504.3442,a,1,[],[],[],[],[],[],[],0.7147,1,504.3443,504.8429,,,,,,188,FEM,CON,150,bomba,,a,0.7147,,504.843,504.8432,-0.102714844,-0.402236328,0,0,0,,0,184,184,187,1,,,,
,,,,,,807ed545dbcc06b06f3750b6,66a626ef09d4e21e1a8894ec,6734e01871bd8e0004a40c6a,2024-11-13_11h24.51.797,Tarea de género gramatical,2024.2.2,MacIntel,60.14675809,,,,,,,,,,,,,,,,,,,,,,,,504.8449,506.239,a,1,[],[],[],[],[],[],[],0.715,1,506.2392,506.7383,,,,,,207,FEM,DIS,150,playa,el,a,0.715,,506.7384,506.7385,-0.102714844,-0.402236328,0,0,0,,0,185,185,206,1,,,,
,,,,,,807ed545dbcc06b06f3750b6,66a626ef09d4e21e1a8894ec,6734e01871bd8e0004a40c6a,2024-11-13_11h24.51.797,Tarea de género gramatical,2024.2.2,MacIntel,60.14675809,,,,,,,,,,,,,,,,,,,,,,,,506.7402,508.1679,a,1,[],[],[],[],[],[],[],0.7523,1,508.168,508.6663,,,,,,357,FEM,DIS,150,lengua,el,a,0.7523,,508.668,508.67,-0.102714844,-0.402236328,0,0,0,,0,186,186,356,1,,,,
,,,,,,807ed545dbcc06b06f3750b6,66a626ef09d4e21e1a8894ec,6734e01871bd8e0004a40c6a,2024-11-13_11h24.51.797,Tarea de género gramatical,2024.2.2,MacIntel,60.14675809,,,,,,,,,,,,,,,,,,,,,,,,508.6717,509.8964,l,1,[],[],[],[],[],[],[],0.5575,1,509.8965,510.3959,,,,,,370,MAS,AGR,150,seguro,el,l,0.5575,,510.3959,510.3961,-0.102714844,-0.402236328,0,0,0,,0,187,187,369,1,,,,
,,,,,,807ed545dbcc06b06f3750b6,66a626ef09d4e21e1a8894ec,6734e01871bd8e0004a40c6a,2024-11-13_11h24.51.797,Tarea de género gramatical,2024.2.2,MacIntel,60.14675809,,,,,,,,,,,,,,,,,,,,,,,,510.3975,511.6449,a,1,[],[],[],[],[],[],[],0.5681,1,511.645,512.1435,,,,,,69,FEM,DIS,150,rata,el,a,0.5681,,512.1435,512.1437,-0.102714844,-0.402236328,0,0,0,,0,188,188,68,1,,,,
,,,,,,807ed545dbcc06b06f3750b6,66a626ef09d4e21e1a8894ec,6734e01871bd8e0004a40c6a,2024-11-13_11h24.51.797,Tarea de género gramatical,2024.2.2,MacIntel,60.14675809,,,,,,,,,,,,,,,,,,,,,,,,512.1459,513.3568,l,1,[],[],[],[],[],[],[],0.5328,1,513.3569,513.8568,,,,,,238,MAS,AGR,150,norte,el,l,0.5328,,513.8569,513.857,-0.102714844,-0.402236328,0,0,0,,0,189,189,237,1,,,,
,,,,,,807ed545dbcc06b06f3750b6,66a626ef09d4e21e1a8894ec,6734e01871bd8e0004a40c6a,2024-11-13_11h24.51.797,Tarea de género gramatical,2024.2.2,MacIntel,60.14675809,,,,,,,,,,,,,,,,,,,,,,,,513.8591,515.1031,a,1,[],[],[],[],[],[],[],0.5682,1,515.1033,515.6013,,,,,,97,FEM,AGR,150,capa,la,a,0.5682,,515.6014,515.6015,-0.102714844,-0.402236328,0,0,0,,0,190,190,96,1,,,,
,,,,,,807ed545dbcc06b06f3750b6,66a626ef09d4e21e1a8894ec,6734e01871bd8e0004a40c6a,2024-11-13_11h24.51.797,Tarea de género gramatical,2024.2.2,MacIntel,60.14675809,,,,,,,,,,,,,,,,,,,,,,,,515.6034,516.8482,a,1,[],[],[],[],[],[],[],0.5767,1,516.8483,517.3473,,,,,,163,FEM,AGR,150,calle,la,a,0.5767,,517.3491,517.3508,-0.102714844,-0.402236328,0,0,0,,0,191,191,162,1,,,,
,,,,,,807ed545dbcc06b06f3750b6,66a626ef09d4e21e1a8894ec,6734e01871bd8e0004a40c6a,2024-11-13_11h24.51.797,Tarea de género gramatical,2024.2.2,MacIntel,60.14675809,,,,,,,,,,,,,,,,,,,,,,,,517.3521,518.6276,a,1,[],[],[],[],[],[],[],0.6057,1,518.6278,519.1263,,,,,,129,FEM,DIS,150,rana,el,a,0.6057,,519.1263,519.1265,-0.102714844,-0.402236328,0,0,0,,0,192,192,128,1,,,,
,,,,,,807ed545dbcc06b06f3750b6,66a626ef09d4e21e1a8894ec,6734e01871bd8e0004a40c6a,2024-11-13_11h24.51.797,Tarea de género gramatical,2024.2.2,MacIntel,60.14675809,,,,,,,,,,,,,,,,,,,,,,,,519.1286,520.2737,l,0,[],[],[],[],[],[],[],0.4683,0,520.275,520.7714,,,,,,331,FEM,AGR,150,cárcel,la,a,0.4683,,520.7715,520.7717,-0.102714844,-0.402236328,0,0,0,,0,193,193,330,1,,,,
,,,,,,807ed545dbcc06b06f3750b6,66a626ef09d4e21e1a8894ec,6734e01871bd8e0004a40c6a,2024-11-13_11h24.51.797,Tarea de género gramatical,2024.2.2,MacIntel,60.14675809,,,,,,,,,,,,,,,,,,,,,,,,520.7735,522.3854,l,1,[],[],[],[],[],[],[],0.9344,1,522.3868,522.8831,,,,,,305,MAS,CON,150,hombre,,l,0.9344,,522.8832,522.8834,-0.102714844,-0.402236328,0,0,0,,0,194,194,304,1,,,,
,,,,,,807ed545dbcc06b06f3750b6,66a626ef09d4e21e1a8894ec,6734e01871bd8e0004a40c6a,2024-11-13_11h24.51.797,Tarea de género gramatical,2024.2.2,MacIntel,60.14675809,,,,,,,,,,,,,,,,,,,,,,,,522.885,524.9627,l,1,[],[],[],[],[],[],[],1.3962,1,524.9628,525.4606,,,,,,46,MAS,AGR,150,odio,el,l,1.3962,,525.4623,525.4641,-0.102714844,-0.402236328,0,0,0,,0,195,195,45,1,,,,
,,,,,,807ed545dbcc06b06f3750b6,66a626ef09d4e21e1a8894ec,6734e01871bd8e0004a40c6a,2024-11-13_11h24.51.797,Tarea de género gramatical,2024.2.2,MacIntel,60.14675809,,,,,,,,,,,,,,,,,,,,,,,,525.4657,526.5579,l,1,[],[],[],[],[],[],[],0.4194,1,526.5581,527.0569,,,,,,17,MAS,CON,150,modo,,l,0.4194,,527.057,527.0571,-0.102714844,-0.402236328,0,0,0,,0,196,196,16,1,,,,
,,,,,,807ed545dbcc06b06f3750b6,66a626ef09d4e21e1a8894ec,6734e01871bd8e0004a40c6a,2024-11-13_11h24.51.797,Tarea de género gramatical,2024.2.2,MacIntel,60.14675809,,,,,,,,,,,,,,,,,,,,,,,,527.0589,528.0383,l,1,[],[],[],[],[],[],[],0.2986,1,528.0385,528.5375,,,,,,335,MAS,CON,150,montón,,l,0.2986,,528.5376,528.5378,-0.102714844,-0.402236328,0,0,0,,0,197,197,334,1,,,,
,,,,,,807ed545dbcc06b06f3750b6,66a626ef09d4e21e1a8894ec,6734e01871bd8e0004a40c6a,2024-11-13_11h24.51.797,Tarea de género gramatical,2024.2.2,MacIntel,60.14675809,,,,,,,,,,,,,,,,,,,,,,,,528.5395,529.5508,a,0,[],[],[],[],[],[],[],0.3356,0,529.5522,530.0506,,,,,,262,MAS,AGR,150,video,el,l,0.3356,,530.0507,530.0508,-0.102714844,-0.402236328,0,0,0,,0,198,198,261,1,,,,
,,,,,,807ed545dbcc06b06f3750b6,66a626ef09d4e21e1a8894ec,6734e01871bd8e0004a40c6a,2024-11-13_11h24.51.797,Tarea de género gramatical,2024.2.2,MacIntel,60.14675809,,,,,,,,,,,,,,,,,,,,,,,,530.0527,531.1146,l,1,[],[],[],[],[],[],[],0.3875,1,531.1161,531.6135,,,,,,425,MAS,CON,150,chiste,,l,0.3875,,531.6135,531.6137,-0.102714844,-0.402236328,0,0,0,,0,199,199,424,1,,,,
,,,,,,807ed545dbcc06b06f3750b6,66a626ef09d4e21e1a8894ec,6734e01871bd8e0004a40c6a,2024-11-13_11h24.51.797,Tarea de género gramatical,2024.2.2,MacIntel,60.14675809,,,,,,,,,,,,,,,,,,,,,,,,531.6154,532.7785,a,1,[],[],[],[],[],[],[],0.4847,1,532.7786,533.2767,,,,,,189,FEM,DIS,150,pista,el,a,0.4847,,533.2783,533.28,-0.102714844,-0.402236328,0,0,0,,0,200,200,188,1,,,,
,,,,,,807ed545dbcc06b06f3750b6,66a626ef09d4e21e1a8894ec,6734e01871bd8e0004a40c6a,2024-11-13_11h24.51.797,Tarea de género gramatical,2024.2.2,MacIntel,60.14675809,,,,,,,,,,,,,,,,,,,,,,,,533.2814,534.4251,l,1,[],[],[],[],[],[],[],0.4663,1,534.4252,534.9237,,,,,,401,MAS,CON,150,abrigo,,l,0.4663,,534.9237,534.9239,-0.102714844,-0.402236328,0,0,0,,0,201,201,400,1,,,,
,,,,,,807ed545dbcc06b06f3750b6,66a626ef09d4e21e1a8894ec,6734e01871bd8e0004a40c6a,2024-11-13_11h24.51.797,Tarea de género gramatical,2024.2.2,MacIntel,60.14675809,,,,,,,,,,,,,,,,,,,,,,,,534.9261,536.0863,a,1,[],[],[],[],[],[],[],0.4833,1,536.0864,536.5853,,,,,,338,FEM,CON,150,abuela,,a,0.4833,,536.5854,536.5854,-0.102714844,-0.402236328,0,0,0,,0,202,202,337,1,,,,
,,,,,,807ed545dbcc06b06f3750b6,66a626ef09d4e21e1a8894ec,6734e01871bd8e0004a40c6a,2024-11-13_11h24.51.797,Tarea de género gramatical,2024.2.2,MacIntel,60.14675809,,,,,,,,,,,,,,,,,,,,,,,,536.5872,538.1146,a,1,[],[],[],[],[],[],[],0.8485,1,538.1147,538.6138,,,,,,363,FEM,DIS,150,unidad,el,a,0.8485,,538.6139,538.614,-0.102714844,-0.402236328,0,0,0,,0,203,203,362,1,,,,
,,,,,,807ed545dbcc06b06f3750b6,66a626ef09d4e21e1a8894ec,6734e01871bd8e0004a40c6a,2024-11-13_11h24.51.797,Tarea de género gramatical,2024.2.2,MacIntel,60.14675809,,,,,,,,,,,,,,,,,,,,,,,,538.6159,539.8775,a,1,[],[],[],[],[],[],[],0.5819,1,539.8777,540.3764,,,,,,111,FEM,DIS,150,goma,el,a,0.5819,,540.3784,540.3801,-0.102714844,-0.402236328,0,0,0,,0,204,204,110,1,,,,
,,,,,,807ed545dbcc06b06f3750b6,66a626ef09d4e21e1a8894ec,6734e01871bd8e0004a40c6a,2024-11-13_11h24.51.797,Tarea de género gramatical,2024.2.2,MacIntel,60.14675809,,,,,,,,,,,,,,,,,,,,,,,,540.3818,541.6901,a,1,[],[],[],[],[],[],[],0.6339,1,541.6903,542.1891,,,,,,205,FEM,AGR,150,reina,la,a,0.6339,,542.1892,542.1895,-0.102714844,-0.402236328,0,0,0,,0,205,205,204,1,,,,
,,,,,,807ed545dbcc06b06f3750b6,66a626ef09d4e21e1a8894ec,6734e01871bd8e0004a40c6a,2024-11-13_11h24.51.797,Tarea de género gramatical,2024.2.2,MacIntel,60.14675809,,,,,,,,,,,,,,,,,,,,,,,,542.1913,543.4523,a,1,[],[],[],[],[],[],[],0.5826,1,543.4526,543.9509,,,,,,422,FEM,CON,150,rutina,,a,0.5826,,543.951,543.9512,-0.102714844,-0.402236328,0,0,0,,0,206,206,421,1,,,,
,,,,,,807ed545dbcc06b06f3750b6,66a626ef09d4e21e1a8894ec,6734e01871bd8e0004a40c6a,2024-11-13_11h24.51.797,Tarea de género gramatical,2024.2.2,MacIntel,60.14675809,,,,,,,,,,,,,,,,,,,,,,,,543.9527,545.0652,a,1,[],[],[],[],[],[],[],0.4341,1,545.0653,545.5634,,,,,,134,FEM,CON,150,rama,,a,0.4341,,545.5635,545.5636,-0.102714844,-0.402236328,0,0,0,,0,207,207,133,1,,,,
,,,,,,807ed545dbcc06b06f3750b6,66a626ef09d4e21e1a8894ec,6734e01871bd8e0004a40c6a,2024-11-13_11h24.51.797,Tarea de género gramatical,2024.2.2,MacIntel,60.14675809,,,,,,,,,,,,,,,,,,,,,,,,545.565,546.7602,l,1,[],[],[],[],[],[],[],0.5252,1,546.7603,547.2591,,,,,,431,MAS,CON,150,veneno,,l,0.5252,,547.2591,547.2594,-0.102714844,-0.402236328,0,0,0,,0,208,208,430,1,,,,
,,,,,,807ed545dbcc06b06f3750b6,66a626ef09d4e21e1a8894ec,6734e01871bd8e0004a40c6a,2024-11-13_11h24.51.797,Tarea de género gramatical,2024.2.2,MacIntel,60.14675809,,,,,,,,,,,,,,,,,,,,,,,,547.2608,548.4726,l,1,[],[],[],[],[],[],[],0.5412,1,548.4727,548.9723,,,,,,24,MAS,DIS,150,voto,la,l,0.5412,,548.9735,548.9751,-0.102714844,-0.402236328,0,0,0,,0,209,209,23,1,,,,
,,,,,,807ed545dbcc06b06f3750b6,66a626ef09d4e21e1a8894ec,6734e01871bd8e0004a40c6a,2024-11-13_11h24.51.797,Tarea de género gramatical,2024.2.2,MacIntel,60.14675809,,,,,,,,,,,,,,,,,,,,,,,,548.9762,550.451,a,1,[],[],[],[],[],[],[],0.8044,1,550.4511,550.9513,,,,,,8,FEM,CON,150,idea,,a,0.8044,,550.9514,550.9515,-0.102714844,-0.402236328,0,0,0,,0,210,210,7,1,,,,
,,,,,,807ed545dbcc06b06f3750b6,66a626ef09d4e21e1a8894ec,6734e01871bd8e0004a40c6a,2024-11-13_11h24.51.797,Tarea de género gramatical,2024.2.2,MacIntel,60.14675809,,,,,,,,,,,,,,,,,,,,,,,,550.9528,552.5319,l,1,[],[],[],[],[],[],[],0.9055,1,552.5321,553.031,,,,,,276,MAS,DIS,150,ritmo,la,l,0.9055,,553.031,553.0314,-0.102714844,-0.402236328,0,0,0,,0,211,211,275,1,,,,
,,,,,,807ed545dbcc06b06f3750b6,66a626ef09d4e21e1a8894ec,6734e01871bd8e0004a40c6a,2024-11-13_11h24.51.797,Tarea de género gramatical,2024.2.2,MacIntel,60.14675809,,,,,,,,,,,,,,,,,,,,,,,,553.0329,555.193,l,1,[],[],[],[],[],[],[],1.4852,1,555.1931,555.6902,,,,,,54,MAS,DIS,150,humo,la,l,1.4852,,555.6903,555.6904,-0.102714844,-0.402236328,0,0,0,,0,212,212,53,1,,,,
,,,,,,807ed545dbcc06b06f3750b6,66a626ef09d4e21e1a8894ec,6734e01871bd8e0004a40c6a,2024-11-13_11h24.51.797,Tarea de género gramatical,2024.2.2,MacIntel,60.14675809,,,,,,,,,,,,,,,,,,,,,,,,555.6918,556.9203,a,1,[],[],[],[],[],[],[],0.5588,1,556.9205,557.4195,,,,,,345,FEM,DIS,150,pierna,el,a,0.5588,,557.4209,557.4228,-0.102714844,-0.402236328,0,0,0,,0,213,213,344,1,,,,
,,,,,,807ed545dbcc06b06f3750b6,66a626ef09d4e21e1a8894ec,6734e01871bd8e0004a40c6a,2024-11-13_11h24.51.797,Tarea de género gramatical,2024.2.2,MacIntel,60.14675809,,,,,,,,,,,,,,,,,,,,,,,,557.4239,558.7,a,1,[],[],[],[],[],[],[],0.5993,1,558.7002,559.1989,,,,,,145,FEM,AGR,150,bota,la,a,0.5993,,559.199,559.1992,-0.102714844,-0.402236328,0,0,0,,0,214,214,144,1,,,,
,,,,,,807ed545dbcc06b06f3750b6,66a626ef09d4e21e1a8894ec,6734e01871bd8e0004a40c6a,2024-11-13_11h24.51.797,Tarea de género gramatical,2024.2.2,MacIntel,60.14675809,,,,,,,,,,,,,,,,,,,,,,,,559.2008,560.4458,l,0,[],[],[],[],[],[],[],0.5705,0,560.4469,560.944,,,,,,387,FEM,DIS,150,página,el,a,0.5705,,560.9441,560.9443,-0.102714844,-0.402236328,0,0,0,,0,215,215,386,1,,,,
,,,,,,807ed545dbcc06b06f3750b6,66a626ef09d4e21e1a8894ec,6734e01871bd8e0004a40c6a,2024-11-13_11h24.51.797,Tarea de género gramatical,2024.2.2,MacIntel,60.14675809,,,,,,,,,,,,,,,,,,,,,,,,560.9459,562.0749,a,1,[],[],[],[],[],[],[],0.4567,1,562.0758,562.574,,,,,,3,FEM,DIS,150,cosa,el,a,0.4567,,562.574,562.5741,-0.102714844,-0.402236328,0,0,0,,0,216,216,2,1,,,,
,,,,,,807ed545dbcc06b06f3750b6,66a626ef09d4e21e1a8894ec,6734e01871bd8e0004a40c6a,2024-11-13_11h24.51.797,Tarea de género gramatical,2024.2.2,MacIntel,60.14675809,,,,,,,,,,,,,,,,,,,,,,,,562.5754,563.6713,a,1,[],[],[],[],[],[],[],0.418,1,563.6715,564.1702,,,,,,170,FEM,CON,150,carta,,a,0.418,,564.1703,564.1704,-0.102714844,-0.402236328,0,0,0,,0,217,217,169,1,,,,
,,,,,,807ed545dbcc06b06f3750b6,66a626ef09d4e21e1a8894ec,6734e01871bd8e0004a40c6a,2024-11-13_11h24.51.797,Tarea de género gramatical,2024.2.2,MacIntel,60.14675809,,,,,,,,,,,,,,,,,,,,,,,,564.1717,565.3345,l,1,[],[],[],[],[],[],[],0.4872,1,565.3347,565.8327,,,,,,179,MAS,CON,150,viaje,,l,0.4872,,565.834,565.8357,-0.102714844,-0.402236328,0,0,0,,0,218,218,178,1,,,,
,,,,,,807ed545dbcc06b06f3750b6,66a626ef09d4e21e1a8894ec,6734e01871bd8e0004a40c6a,2024-11-13_11h24.51.797,Tarea de género gramatical,2024.2.2,MacIntel,60.14675809,,,,,,,,,,,,,,,,,,,,,,,,565.8372,566.9293,l,1,[],[],[],[],[],[],[],0.4246,1,566.9295,567.4289,,,,,,160,MAS,AGR,150,señor,el,l,0.4246,,567.4289,567.4291,-0.102714844,-0.402236328,0,0,0,,0,219,219,159,1,,,,
,,,,,,807ed545dbcc06b06f3750b6,66a626ef09d4e21e1a8894ec,6734e01871bd8e0004a40c6a,2024-11-13_11h24.51.797,Tarea de género gramatical,2024.2.2,MacIntel,60.14675809,,,,,,,,,,,,,,,,,,,,,,,,567.4306,568.7088,a,1,[],[],[],[],[],[],[],0.6047,1,568.7089,569.2077,,,,,,297,FEM,DIS,150,manta,el,a,0.6047,,569.2077,569.2078,-0.102714844,-0.402236328,0,0,0,,0,220,220,296,1,,,,
,,,,,,807ed545dbcc06b06f3750b6,66a626ef09d4e21e1a8894ec,6734e01871bd8e0004a40c6a,2024-11-13_11h24.51.797,Tarea de género gramatical,2024.2.2,MacIntel,60.14675809,,,,,,,,,,,,,,,,,,,,,,,,569.2091,570.4885,l,1,[],[],[],[],[],[],[],0.6022,1,570.4886,570.9875,,,,,,30,MAS,DIS,150,cine,la,l,0.6022,,570.9877,570.9879,-0.102714844,-0.402236328,0,0,0,,0,221,221,29,1,,,,
,,,,,,807ed545dbcc06b06f3750b6,66a626ef09d4e21e1a8894ec,6734e01871bd8e0004a40c6a,2024-11-13_11h24.51.797,Tarea de género gramatical,2024.2.2,MacIntel,60.14675809,,,,,,,,,,,,,,,,,,,,,,,,570.9896,572.1527,l,1,[],[],[],[],[],[],[],0.4825,1,572.1529,572.6512,,,,,,406,MAS,AGR,150,premio,el,l,0.4825,,572.6527,572.6542,-0.102714844,-0.402236328,0,0,0,,0,222,222,405,1,,,,
,,,,,,807ed545dbcc06b06f3750b6,66a626ef09d4e21e1a8894ec,6734e01871bd8e0004a40c6a,2024-11-13_11h24.51.797,Tarea de género gramatical,2024.2.2,MacIntel,60.14675809,,,,,,,,,,,,,,,,,,,,,,,,572.6555,573.832,l,1,[],[],[],[],[],[],[],0.4988,1,573.8321,574.3309,,,,,,268,MAS,AGR,150,truco,el,l,0.4988,,574.331,574.3312,-0.102714844,-0.402236328,0,0,0,,0,223,223,267,1,,,,
,,,,,,807ed545dbcc06b06f3750b6,66a626ef09d4e21e1a8894ec,6734e01871bd8e0004a40c6a,2024-11-13_11h24.51.797,Tarea de género gramatical,2024.2.2,MacIntel,60.14675809,,,,,,,,,,,,,,,,,,,,,,,,574.333,575.4938,a,1,[],[],[],[],[],[],[],0.4874,1,575.494,575.9926,,,,,,266,FEM,CON,150,jaula,,a,0.4874,,575.9926,575.9928,-0.102714844,-0.402236328,0,0,0,,0,224,224,265,1,,,,
,,,,,,807ed545dbcc06b06f3750b6,66a626ef09d4e21e1a8894ec,6734e01871bd8e0004a40c6a,2024-11-13_11h24.51.797,Tarea de género gramatical,2024.2.2,MacIntel,60.14675809,,,,,,,,,,,,,,,,,,,,,,,,575.9945,577.0398,a,1,[],[],[],[],[],[],[],0.3638,1,577.0399,577.5393,,,,,,44,FEM,CON,150,zona,,a,0.3638,,577.5393,577.5395,-0.102714844,-0.402236328,0,0,0,,0,225,225,43,1,,,,
,,,,,,807ed545dbcc06b06f3750b6,66a626ef09d4e21e1a8894ec,6734e01871bd8e0004a40c6a,2024-11-13_11h24.51.797,Tarea de género gramatical,2024.2.2,MacIntel,60.14675809,,,,,,,,,,,,,,,,,,,,,,,,577.541,578.6195,a,1,[],[],[],[],[],[],[],0.406,1,578.6196,579.1184,,,,,,398,FEM,CON,150,hierba,,a,0.406,,579.1184,579.1185,-0.102714844,-0.402236328,0,0,0,,0,226,226,397,1,,,,
,,,,,,807ed545dbcc06b06f3750b6,66a626ef09d4e21e1a8894ec,6734e01871bd8e0004a40c6a,2024-11-13_11h24.51.797,Tarea de género gramatical,2024.2.2,MacIntel,60.14675809,,,,,,,,,,,,,,,,,,,,,,,,579.12,580.2166,a,1,[],[],[],[],[],[],[],0.4187,1,580.2167,580.7142,,,,,,369,FEM,DIS,150,camisa,el,a,0.4187,,580.7157,580.7176,-0.102714844,-0.402236328,0,0,0,,0,227,227,368,1,,,,
,,,,,,807ed545dbcc06b06f3750b6,66a626ef09d4e21e1a8894ec,6734e01871bd8e0004a40c6a,2024-11-13_11h24.51.797,Tarea de género gramatical,2024.2.2,MacIntel,60.14675809,,,,,,,,,,,,,,,,,,,,,,,,580.719,581.8452,a,1,[],[],[],[],[],[],[],0.449,1,581.8454,582.3444,,,,,,427,FEM,AGR,150,agenda,la,a,0.449,,582.3445,582.3448,-0.102714844,-0.402236328,0,0,0,,0,228,228,426,1,,,,
,,,,,,807ed545dbcc06b06f3750b6,66a626ef09d4e21e1a8894ec,6734e01871bd8e0004a40c6a,2024-11-13_11h24.51.797,Tarea de género gramatical,2024.2.2,MacIntel,60.14675809,,,,,,,,,,,,,,,,,,,,,,,,582.3463,583.5243,a,1,[],[],[],[],[],[],[],0.4999,1,583.5244,584.0235,,,,,,428,FEM,CON,150,jugada,,a,0.4999,,584.0235,584.0236,-0.102714844,-0.402236328,0,0,0,,0,229,229,427,1,,,,
,,,,,,807ed545dbcc06b06f3750b6,66a626ef09d4e21e1a8894ec,6734e01871bd8e0004a40c6a,2024-11-13_11h24.51.797,Tarea de género gramatical,2024.2.2,MacIntel,60.14675809,,,,,,,,,,,,,,,,,,,,,,,,584.0251,585.1043,l,1,[],[],[],[],[],[],[],0.3996,1,585.1044,585.6032,,,,,,251,MAS,CON,150,dueño,,l,0.3996,,585.6034,585.6036,-0.102714844,-0.402236328,0,0,0,,0,230,230,250,1,,,,
,,,,,,807ed545dbcc06b06f3750b6,66a626ef09d4e21e1a8894ec,6734e01871bd8e0004a40c6a,2024-11-13_11h24.51.797,Tarea de género gramatical,2024.2.2,MacIntel,60.14675809,,,,,,,,,,,,,,,,,,,,,,,,585.605,586.6673,l,1,[],[],[],[],[],[],[],0.3848,1,586.6675,587.1654,,,,,,198,MAS,DIS,150,hotel,la,l,0.3848,,587.1667,587.1684,-0.102714844,-0.402236328,0,0,0,,0,231,231,197,1,,,,
,,,,,,807ed545dbcc06b06f3750b6,66a626ef09d4e21e1a8894ec,6734e01871bd8e0004a40c6a,2024-11-13_11h24.51.797,Tarea de género gramatical,2024.2.2,MacIntel,60.14675809,,,,,,,,,,,,,,,,,,,,,,,,587.1699,588.3963,a,1,[],[],[],[],[],[],[],0.5497,1,588.3965,588.8944,,,,,,277,FEM,AGR,150,plaza,la,a,0.5497,,588.8944,588.8945,-0.102714844,-0.402236328,0,0,0,,0,232,232,276,1,,,,
,,,,,,807ed545dbcc06b06f3750b6,66a626ef09d4e21e1a8894ec,6734e01871bd8e0004a40c6a,2024-11-13_11h24.51.797,Tarea de género gramatical,2024.2.2,MacIntel,60.14675809,,,,,,,,,,,,,,,,,,,,,,,,588.8962,590.0088,a,1,[],[],[],[],[],[],[],0.4353,1,590.0089,590.5063,,,,,,121,FEM,AGR,150,pila,la,a,0.4353,,590.5063,590.5065,-0.102714844,-0.402236328,0,0,0,,0,233,233,120,1,,,,
,,,,,,807ed545dbcc06b06f3750b6,66a626ef09d4e21e1a8894ec,6734e01871bd8e0004a40c6a,2024-11-13_11h24.51.797,Tarea de género gramatical,2024.2.2,MacIntel,60.14675809,,,,,,,,,,,,,,,,,,,,,,,,590.5078,591.6553,a,1,[],[],[],[],[],[],[],0.4817,1,591.6553,592.1554,,,,,,350,FEM,CON,150,imagen,,a,0.4817,,592.1554,592.1556,-0.102714844,-0.402236328,0,0,0,,0,234,234,349,1,,,,
,,,,,,807ed545dbcc06b06f3750b6,66a626ef09d4e21e1a8894ec,6734e01871bd8e0004a40c6a,2024-11-13_11h24.51.797,Tarea de género gramatical,2024.2.2,MacIntel,60.14675809,,,,,,,,,,,,,,,,,,,,,,,,592.1575,593.2522,l,1,[],[],[],[],[],[],[],0.4159,1,593.2523,593.7513,,,,,,383,MAS,CON,150,parque,,l,0.4159,,593.7514,593.7516,-0.102714844,-0.402236328,0,0,0,,0,235,235,382,1,,,,
,,,,,,807ed545dbcc06b06f3750b6,66a626ef09d4e21e1a8894ec,6734e01871bd8e0004a40c6a,2024-11-13_11h24.51.797,Tarea de género gramatical,2024.2.2,MacIntel,60.14675809,,,,,,,,,,,,,,,,,,,,,,,,593.7534,594.8644,l,1,[],[],[],[],[],[],[],0.4427,1,594.8645,595.3639,,,,,,184,MAS,AGR,150,cielo,el,l,0.4427,,595.3656,595.3673,-0.102714844,-0.402236328,0,0,0,,0,236,236,183,1,,,,
,,,,,,807ed545dbcc06b06f3750b6,66a626ef09d4e21e1a8894ec,6734e01871bd8e0004a40c6a,2024-11-13_11h24.51.797,Tarea de género gramatical,2024.2.2,MacIntel,60.14675809,,,,,,,,,,,,,,,,,,,,,,,,595.3686,596.4286,l,1,[],[],[],[],[],[],[],0.3881,1,596.4287,596.9263,,,,,,395,MAS,CON,150,correo,,l,0.3881,,596.9264,596.9266,-0.102714844,-0.402236328,0,0,0,,0,237,237,394,1,,,,
,,,,,,807ed545dbcc06b06f3750b6,66a626ef09d4e21e1a8894ec,6734e01871bd8e0004a40c6a,2024-11-13_11h24.51.797,Tarea de género gramatical,2024.2.2,MacIntel,60.14675809,,,,,,,,,,,,,,,,,,,,,,,,596.9284,598.1401,l,1,[],[],[],[],[],[],[],0.5316,1,598.1402,598.639,,,,,,328,MAS,AGR,150,asunto,el,l,0.5316,,598.6391,598.6393,-0.102714844,-0.402236328,0,0,0,,0,238,238,327,1,,,,
,,,,,,807ed545dbcc06b06f3750b6,66a626ef09d4e21e1a8894ec,6734e01871bd8e0004a40c6a,2024-11-13_11h24.51.797,Tarea de género gramatical,2024.2.2,MacIntel,60.14675809,,,,,,,,,,,,,,,,,,,,,,,,598.6411,599.6865,l,1,[],[],[],[],[],[],[],0.368,1,599.6866,600.1853,,,,,,341,MAS,CON,150,precio,,l,0.368,,600.1853,600.1854,-0.102714844,-0.402236328,0,0,0,,0,239,239,340,1,,,,
,,,,,,807ed545dbcc06b06f3750b6,66a626ef09d4e21e1a8894ec,6734e01871bd8e0004a40c6a,2024-11-13_11h24.51.797,Tarea de género gramatical,2024.2.2,MacIntel,60.14675809,,,,,,,,,,,,,,,,,,,,,,,,600.1871,601.499,l,1,[],[],[],[],[],[],[],0.633,1,601.4991,601.9976,,,,,,312,MAS,DIS,150,equipo,la,l,0.633,,601.9993,602.0011,-0.102714844,-0.402236328,0,0,0,,0,240,240,311,1,,,,
,,,,,,807ed545dbcc06b06f3750b6,66a626ef09d4e21e1a8894ec,6734e01871bd8e0004a40c6a,2024-11-13_11h24.51.797,Tarea de género gramatical,2024.2.2,MacIntel,60.14675809,,,,,,,,,,,,,,,,,,,,,,,,602.0028,603.1446,l,1,[],[],[],[],[],[],[],0.4756,1,603.1448,603.6436,,,,,,88,MAS,AGR,150,pavo,el,l,0.4756,,603.6438,603.6439,-0.102714844,-0.402236328,0,0,0,,0,241,241,87,1,,,,
,,,,,,807ed545dbcc06b06f3750b6,66a626ef09d4e21e1a8894ec,6734e01871bd8e0004a40c6a,2024-11-13_11h24.51.797,Tarea de género gramatical,2024.2.2,MacIntel,60.14675809,,,,,,,,,,,,,,,,,,,,,,,,603.6457,604.9239,a,1,[],[],[],[],[],[],[],0.6051,1,604.924,605.4224,,,,,,176,FEM,CON,150,línea,,a,0.6051,,605.4225,605.4228,-0.102714844,-0.402236328,0,0,0,,0,242,242,175,1,,,,
,,,,,,807ed545dbcc06b06f3750b6,66a626ef09d4e21e1a8894ec,6734e01871bd8e0004a40c6a,2024-11-13_11h24.51.797,Tarea de género gramatical,2024.2.2,MacIntel,60.14675809,,,,,,,,,,,,,,,,,,,,,,,,605.4242,607.0015,a,1,[],[],[],[],[],[],[],0.8999,1,607.0017,607.5014,,,,,,105,FEM,DIS,150,jefa,el,a,0.8999,,607.5016,607.5018,-0.102714844,-0.402236328,0,0,0,,0,243,243,104,1,,,,
,,,,,,807ed545dbcc06b06f3750b6,66a626ef09d4e21e1a8894ec,6734e01871bd8e0004a40c6a,2024-11-13_11h24.51.797,Tarea de género gramatical,2024.2.2,MacIntel,60.14675809,,,,,,,,,,,,,,,,,,,,,,,,607.5038,608.6809,a,1,[],[],[],[],[],[],[],0.5011,1,608.681,609.1805,,,,,,56,FEM,CON,150,bola,,a,0.5011,,609.1806,609.1808,-0.102714844,-0.402236328,0,0,0,,0,244,244,55,1,,,,
,,,,,,807ed545dbcc06b06f3750b6,66a626ef09d4e21e1a8894ec,6734e01871bd8e0004a40c6a,2024-11-13_11h24.51.797,Tarea de género gramatical,2024.2.2,MacIntel,60.14675809,,,,,,,,,,,,,,,,,,,,,,,,609.1828,610.3112,a,1,[],[],[],[],[],[],[],0.4489,1,610.3114,610.8118,,,,,,409,FEM,AGR,150,moneda,la,a,0.4489,,610.8141,610.816,-0.102714844,-0.402236328,0,0,0,,0,245,245,408,1,,,,
,,,,,,807ed545dbcc06b06f3750b6,66a626ef09d4e21e1a8894ec,6734e01871bd8e0004a40c6a,2024-11-13_11h24.51.797,Tarea de género gramatical,2024.2.2,MacIntel,60.14675809,,,,,,,,,,,,,,,,,,,,,,,,610.8175,611.8911,l,1,[],[],[],[],[],[],[],0.3997,1,611.8912,612.3912,,,,,,336,MAS,DIS,150,crimen,la,l,0.3997,,612.3913,612.3915,-0.102714844,-0.402236328,0,0,0,,0,246,246,335,1,,,,
,,,,,,807ed545dbcc06b06f3750b6,66a626ef09d4e21e1a8894ec,6734e01871bd8e0004a40c6a,2024-11-13_11h24.51.797,Tarea de género gramatical,2024.2.2,MacIntel,60.14675809,,,,,,,,,,,,,,,,,,,,,,,,612.3934,613.5377,a,1,[],[],[],[],[],[],[],0.4729,1,613.5379,614.0361,,,,,,435,FEM,DIS,150,niebla,el,a,0.4729,,614.0361,614.0363,-0.102714844,-0.402236328,0,0,0,,0,247,247,434,1,,,,
