counterbalancing_condition,consent_prescreening.block_1/declare_consent,consent_prescreening.block_1/age_years,consent_prescreening.block_1/gender,consent_prescreening.block_1/language_disorder,consent_prescreening.block_1/first_language,PROLIFIC_PID,STUDY_ID,SESSION_ID,date,expName,psychopyVersion,OS,frameRate,check_prescreening_answers.started,check_prescreening_answers.stopped,Instructions.started,Instructions.stopped,instr_done_keyboard.keys,instr_done_touch.x,instr_done_touch.y,instr_done_touch.leftButton,instr_done_touch.midButton,instr_done_touch.rightButton,instr_done_touch.clicked_name,instruction_pages.thisRepN,instruction_pages.thisTrialN,instruction_pages.thisN,instruction_pages.thisIndex,instruction_pages.ran,pageN,phase,instruct_text,has_image,instruct_image,instr_done_keyboard.rt,instr_done_keyboard.duration,presentTrial.started,presentTrial.stopped,response.keys,response.corr,touch_resp.x,touch_resp.y,touch_resp.leftButton,touch_resp.midButton,touch_resp.rightButton,touch_resp.time,touch_resp.clicked_name,rt,corr,feedback.started,feedback.stopped,practice_trials.thisRepN,practice_trials.thisTrialN,practice_trials.thisN,practice_trials.thisIndex,practice_trials.ran,TrialID,StimulusType,Condition,PrimeDuration,Prime,Flanker,corrAns,response.rt,response.duration,Break.started,Break.stopped,break_done_touch.x,break_done_touch.y,break_done_touch.leftButton,break_done_touch.midButton,break_done_touch.rightButton,break_done_keyboard.keys,experiment_trials.thisRepN,experiment_trials.thisTrialN,experiment_trials.thisN,experiment_trials.thisIndex,experiment_trials.ran,break_done_keyboard.rt,break_done_keyboard.duration,End.started,End.stopped
2,"[""over_18"",""comfortable"",""read_info"",""consent_given""]",29,M,"[""none""]","[""spanish""]",8225dfdc5965dd4c3116192a,66a626ef09d4e21e1a8894ec,67376807b518710ec6ca16aa,2024-11-15_12h30.53.810,Tarea de género gramatical,2024.2.2,Win32,74.96251874,,,,,,,,,,,,,,,,,,,,,,,,,,,,,,,,,,,,,,,,,,,,,,,,,,,,,,,,,,,,,,,,,,,,,
,,,,,,8225dfdc5965dd4c3116192a,66a626ef09d4e21e1a8894ec,67376807b518710ec6ca16aa,2024-11-15_12h30.53.810,Tarea de género gramatical,2024.2.2,Win32,74.96251874,107.849,107.849,,,,,,,,,,,,,,,,,,,,,,,,,,,,,,,,,,,,,,,,,,,,,,,,,,,,,,,,,,,,,,,,,,,
,,,,,,8225dfdc5965dd4c3116192a,66a626ef09d4e21e1a8894ec,67376807b518710ec6ca16aa,2024-11-15_12h30.53.810,Tarea de género gramatical,2024.2.2,Win32,74.96251874,,,107.855,137.765,,0.026851852,-0.387037037,1,0,0,instr_done_button,0,0,0,0,1,1,instructions,"INSTRUCCIONES
Va a realizar una prueba de selección gramatical. Desde el comienzo de la prueba mire siempre al centro de la pantalla. Al cabo de un momento, aparecerán palabras. La tarea consiste en determinar si la palabra del centro (siempre será un sustantivo), pertenece al género masculino o femenino.

Pulse la tecla ESPACIO o toque el botón de abajo para continuar.",0,keyboardresponseMF.png,,,,,,,,,,,,,,,,,,,,,,,,,,,,,,,,,,,,,,,,,,,,,,,,
,,,,,,8225dfdc5965dd4c3116192a,66a626ef09d4e21e1a8894ec,67376807b518710ec6ca16aa,2024-11-15_12h30.53.810,Tarea de género gramatical,2024.2.2,Win32,74.96251874,,,137.766,169.109,space,0.221296296,0.036111111,0,0,0,,0,1,1,1,1,2,instructions,"Si su dispositivo tiene teclado, pulse la tecla ""A"" para las palabras en masculino (por ejemplo: ""arroz"") y la tecla ""L"" para las palabras en femenino (por ejemplo: ""mano"").
Pulse la tecla ESPACIO o toque el botón de abajo para continuar.",1,keyboardresponseMF.png,31.299,,,,,,,,,,,,,,,,,,,,,,,,,,,,,,,,,,,,,,,,,,,,,,,
,,,,,,8225dfdc5965dd4c3116192a,66a626ef09d4e21e1a8894ec,67376807b518710ec6ca16aa,2024-11-15_12h30.53.810,Tarea de género gramatical,2024.2.2,Win32,74.96251874,,,169.111,178.446,space,0.221296296,0.036111111,0,0,0,,0,2,2,2,1,3,instructions,"Si utiliza un dispositivo sólo táctil, colóquelo en horizontal y utilice los botones de la pantalla. No utilice el ratón.
Pulse la tecla ESPACIO o toque el botón de abajo para continuar.",2,touchresponseMF.png,9.306,,,,,,,,,,,,,,,,,,,,,,,,,,,,,,,,,,,,,,,,,,,,,,,
,,,,,,8225dfdc5965dd4c3116192a,66a626ef09d4e21e1a8894ec,67376807b518710ec6ca16aa,2024-11-15_12h30.53.810,Tarea de género gramatical,2024.2.2,Win32,74.96251874,,,178.447,195.973,space,0.391666667,-0.064814815,0,0,0,,0,3,3,3,1,4,instructions,"Es muy importante que responda con la mayor rapidez y precisión posibles, ya que cada cadena de letras sólo estará en pantalla durante un instante. Si no responde en ese tiempo, aparecerá el mensaje ""Muy lento"" y el experimento pasará a la siguiente palabra. Los primeros 15 intentos serán de práctica y habrá dos descansos durante la prueba.
Pulse la tecla ESPACIO o toque el botón de abajo para iniciar la parte de práctica.",0,keyboardresponseMF.png,17.518,,,,,,,,,,,,,,,,,,,,,,,,,,,,,,,,,,,,,,,,,,,,,,,
,,,,,,8225dfdc5965dd4c3116192a,66a626ef09d4e21e1a8894ec,67376807b518710ec6ca16aa,2024-11-15_12h30.53.810,Tarea de género gramatical,2024.2.2,Win32,74.96251874,,,,,,,,,,,,,,,,,,,,,,,,195.982,198.627,,0,[],[],[],[],[],[],[],,-1,198.627,199.12,0,0,0,14,1,2015,MAS,DIS,150,robot,la,l,,,,,,,,,,,,,,,,,,,
,,,,,,8225dfdc5965dd4c3116192a,66a626ef09d4e21e1a8894ec,67376807b518710ec6ca16aa,2024-11-15_12h30.53.810,Tarea de género gramatical,2024.2.2,Win32,74.96251874,,,,,,,,,,,,,,,,,,,,,,,,199.121,200.708,a,0,[],[],[],[],[],[],[],0.923,0,200.708,201.201,0,1,1,7,1,2008,FEM,CON,150,siesta,,a,0.923,,,,,,,,,,,,,,,,,,
,,,,,,8225dfdc5965dd4c3116192a,66a626ef09d4e21e1a8894ec,67376807b518710ec6ca16aa,2024-11-15_12h30.53.810,Tarea de género gramatical,2024.2.2,Win32,74.96251874,,,,,,,,,,,,,,,,,,,,,,,,201.202,202.575,l,0,[],[],[],[],[],[],[],0.715,0,202.576,203.068,0,2,2,12,1,2013,MAS,AGR,150,acero,el,l,0.715,,,,,,,,,,,,,,,,,,
,,,,,,8225dfdc5965dd4c3116192a,66a626ef09d4e21e1a8894ec,67376807b518710ec6ca16aa,2024-11-15_12h30.53.810,Tarea de género gramatical,2024.2.2,Win32,74.96251874,,,,,,,,,,,,,,,,,,,,,,,,203.069,204.349,l,0,[],[],[],[],[],[],[],0.617,0,204.35,204.843,0,3,3,13,1,2014,MAS,CON,150,siglo,,l,0.617,,,,,,,,,,,,,,,,,,
,,,,,,8225dfdc5965dd4c3116192a,66a626ef09d4e21e1a8894ec,67376807b518710ec6ca16aa,2024-11-15_12h30.53.810,Tarea de género gramatical,2024.2.2,Win32,74.96251874,,,,,,,,,,,,,,,,,,,,,,,,204.843,207.497,,0,[],[],[],[],[],[],[],0.617,-1,207.498,207.99,0,4,4,8,1,2009,MAS,DIS,150,puerto,la,l,,,,,,,,,,,,,,,,,,,
,,,,,,8225dfdc5965dd4c3116192a,66a626ef09d4e21e1a8894ec,67376807b518710ec6ca16aa,2024-11-15_12h30.53.810,Tarea de género gramatical,2024.2.2,Win32,74.96251874,,,,,,,,,,,,,,,,,,,,,,,,207.991,209.458,a,1,[],[],[],[],[],[],[],0.806,1,209.458,209.952,0,5,5,9,1,2010,MAS,AGR,150,vecino,el,l,0.806,,,,,,,,,,,,,,,,,,
,,,,,,8225dfdc5965dd4c3116192a,66a626ef09d4e21e1a8894ec,67376807b518710ec6ca16aa,2024-11-15_12h30.53.810,Tarea de género gramatical,2024.2.2,Win32,74.96251874,,,,,,,,,,,,,,,,,,,,,,,,209.952,211.645,a,1,[],[],[],[],[],[],[],1.04,1,211.645,212.139,0,6,6,11,1,2012,MAS,DIS,150,clima,la,l,1.04,,,,,,,,,,,,,,,,,,
,,,,,,8225dfdc5965dd4c3116192a,66a626ef09d4e21e1a8894ec,67376807b518710ec6ca16aa,2024-11-15_12h30.53.810,Tarea de género gramatical,2024.2.2,Win32,74.96251874,,,,,,,,,,,,,,,,,,,,,,,,212.139,213.446,l,1,[],[],[],[],[],[],[],0.643,1,213.446,213.939,0,7,7,0,1,2001,FEM,AGR,150,nuca,la,a,0.643,,,,,,,,,,,,,,,,,,
,,,,,,8225dfdc5965dd4c3116192a,66a626ef09d4e21e1a8894ec,67376807b518710ec6ca16aa,2024-11-15_12h30.53.810,Tarea de género gramatical,2024.2.2,Win32,74.96251874,,,,,,,,,,,,,,,,,,,,,,,,213.939,215.087,l,1,[],[],[],[],[],[],[],0.49,1,215.087,215.58,0,8,8,6,1,2007,FEM,AGR,150,navaja,la,a,0.49,,,,,,,,,,,,,,,,,,
,,,,,,8225dfdc5965dd4c3116192a,66a626ef09d4e21e1a8894ec,67376807b518710ec6ca16aa,2024-11-15_12h30.53.810,Tarea de género gramatical,2024.2.2,Win32,74.96251874,,,,,,,,,,,,,,,,,,,,,,,,215.582,216.994,l,1,[],[],[],[],[],[],[],0.751,1,216.994,217.487,0,9,9,5,1,2006,FEM,DIS,150,serie,el,a,0.751,,,,,,,,,,,,,,,,,,
,,,,,,8225dfdc5965dd4c3116192a,66a626ef09d4e21e1a8894ec,67376807b518710ec6ca16aa,2024-11-15_12h30.53.810,Tarea de género gramatical,2024.2.2,Win32,74.96251874,,,,,,,,,,,,,,,,,,,,,,,,217.488,218.635,l,1,[],[],[],[],[],[],[],0.48,1,218.635,219.128,0,10,10,4,1,2005,FEM,CON,150,placa,,a,0.48,,,,,,,,,,,,,,,,,,
,,,,,,8225dfdc5965dd4c3116192a,66a626ef09d4e21e1a8894ec,67376807b518710ec6ca16aa,2024-11-15_12h30.53.810,Tarea de género gramatical,2024.2.2,Win32,74.96251874,,,,,,,,,,,,,,,,,,,,,,,,219.128,220.102,l,1,[],[],[],[],[],[],[],0.307,1,220.102,220.596,0,11,11,3,1,2004,FEM,AGR,150,venta,la,a,0.307,,,,,,,,,,,,,,,,,,
,,,,,,8225dfdc5965dd4c3116192a,66a626ef09d4e21e1a8894ec,67376807b518710ec6ca16aa,2024-11-15_12h30.53.810,Tarea de género gramatical,2024.2.2,Win32,74.96251874,,,,,,,,,,,,,,,,,,,,,,,,220.596,221.662,a,1,[],[],[],[],[],[],[],0.409,1,221.663,222.156,0,12,12,10,1,2011,MAS,CON,150,canal,,l,0.409,,,,,,,,,,,,,,,,,,
,,,,,,8225dfdc5965dd4c3116192a,66a626ef09d4e21e1a8894ec,67376807b518710ec6ca16aa,2024-11-15_12h30.53.810,Tarea de género gramatical,2024.2.2,Win32,74.96251874,,,,,,,,,,,,,,,,,,,,,,,,222.157,223.663,l,1,[],[],[],[],[],[],[],0.849,1,223.663,224.157,0,13,13,2,1,2003,FEM,DIS,150,daga,el,a,0.849,,,,,,,,,,,,,,,,,,
,,,,,,8225dfdc5965dd4c3116192a,66a626ef09d4e21e1a8894ec,67376807b518710ec6ca16aa,2024-11-15_12h30.53.810,Tarea de género gramatical,2024.2.2,Win32,74.96251874,,,,,,,,,,,,,,,,,,,,,,,,224.157,225.223,l,1,[],[],[],[],[],[],[],0.41,1,225.223,225.717,0,14,14,1,1,2002,FEM,CON,150,pala,,a,0.41,,,,,,,,,,,,,,,,,,
,,,,,,8225dfdc5965dd4c3116192a,66a626ef09d4e21e1a8894ec,67376807b518710ec6ca16aa,2024-11-15_12h30.53.810,Tarea de género gramatical,2024.2.2,Win32,74.96251874,,,235.189,243.684,space,0.391666667,-0.064814815,0,0,0,,,,,,,,,,,,8.48,,243.706,244.964,a,1,[],[],[],[],[],[],[],0.597,1,244.964,245.457,,,,,,1307,MAS,AGR,150,jurado,el,l,0.597,,245.458,245.459,0.391666667,-0.064814815,0,0,0,,0,0,0,406,1,,,,
,,,,,,8225dfdc5965dd4c3116192a,66a626ef09d4e21e1a8894ec,67376807b518710ec6ca16aa,2024-11-15_12h30.53.810,Tarea de género gramatical,2024.2.2,Win32,74.96251874,,,,,,,,,,,,,,,,,,,,,,,,245.459,246.498,a,1,[],[],[],[],[],[],[],0.379,1,246.5,246.991,,,,,,911,MAS,AGR,150,país,el,l,0.379,,246.992,246.992,0.391666667,-0.064814815,0,0,0,,0,1,1,10,1,,,,
,,,,,,8225dfdc5965dd4c3116192a,66a626ef09d4e21e1a8894ec,67376807b518710ec6ca16aa,2024-11-15_12h30.53.810,Tarea de género gramatical,2024.2.2,Win32,74.96251874,,,,,,,,,,,,,,,,,,,,,,,,246.992,248.059,l,1,[],[],[],[],[],[],[],0.412,1,248.059,248.553,,,,,,1117,FEM,DIS,150,tarea,el,a,0.412,,248.553,248.554,0.391666667,-0.064814815,0,0,0,,0,2,2,216,1,,,,
,,,,,,8225dfdc5965dd4c3116192a,66a626ef09d4e21e1a8894ec,67376807b518710ec6ca16aa,2024-11-15_12h30.53.810,Tarea de género gramatical,2024.2.2,Win32,74.96251874,,,,,,,,,,,,,,,,,,,,,,,,248.554,250.087,a,1,[],[],[],[],[],[],[],0.875,1,250.087,250.579,,,,,,994,MAS,DIS,150,cabo,la,l,0.875,,250.579,250.579,0.391666667,-0.064814815,0,0,0,,0,3,3,93,1,,,,
,,,,,,8225dfdc5965dd4c3116192a,66a626ef09d4e21e1a8894ec,67376807b518710ec6ca16aa,2024-11-15_12h30.53.810,Tarea de género gramatical,2024.2.2,Win32,74.96251874,,,,,,,,,,,,,,,,,,,,,,,,250.581,251.78,l,1,[],[],[],[],[],[],[],0.545,1,251.78,252.274,,,,,,1033,FEM,DIS,150,joya,el,a,0.545,,252.274,252.274,0.391666667,-0.064814815,0,0,0,,0,4,4,132,1,,,,
,,,,,,8225dfdc5965dd4c3116192a,66a626ef09d4e21e1a8894ec,67376807b518710ec6ca16aa,2024-11-15_12h30.53.810,Tarea de género gramatical,2024.2.2,Win32,74.96251874,,,,,,,,,,,,,,,,,,,,,,,,252.274,253.62,a,1,[],[],[],[],[],[],[],0.683,1,253.62,254.114,,,,,,1276,MAS,DIS,150,efecto,la,l,0.683,,254.114,254.114,0.391666667,-0.064814815,0,0,0,,0,5,5,375,1,,,,
,,,,,,8225dfdc5965dd4c3116192a,66a626ef09d4e21e1a8894ec,67376807b518710ec6ca16aa,2024-11-15_12h30.53.810,Tarea de género gramatical,2024.2.2,Win32,74.96251874,,,,,,,,,,,,,,,,,,,,,,,,254.115,255.315,a,1,[],[],[],[],[],[],[],0.537,1,255.315,255.809,,,,,,1308,MAS,CON,150,cheque,,l,0.537,,255.809,255.81,0.391666667,-0.064814815,0,0,0,,0,6,6,407,1,,,,
,,,,,,8225dfdc5965dd4c3116192a,66a626ef09d4e21e1a8894ec,67376807b518710ec6ca16aa,2024-11-15_12h30.53.810,Tarea de género gramatical,2024.2.2,Win32,74.96251874,,,,,,,,,,,,,,,,,,,,,,,,255.81,256.822,l,1,[],[],[],[],[],[],[],0.355,1,256.822,257.316,,,,,,1256,FEM,AGR,150,piedra,la,a,0.355,,257.316,257.316,0.391666667,-0.064814815,0,0,0,,0,7,7,355,1,,,,
,,,,,,8225dfdc5965dd4c3116192a,66a626ef09d4e21e1a8894ec,67376807b518710ec6ca16aa,2024-11-15_12h30.53.810,Tarea de género gramatical,2024.2.2,Win32,74.96251874,,,,,,,,,,,,,,,,,,,,,,,,257.316,258.423,l,1,[],[],[],[],[],[],[],0.449,1,258.423,258.916,,,,,,1279,FEM,DIS,150,granja,el,a,0.449,,258.916,258.916,0.391666667,-0.064814815,0,0,0,,0,8,8,378,1,,,,
,,,,,,8225dfdc5965dd4c3116192a,66a626ef09d4e21e1a8894ec,67376807b518710ec6ca16aa,2024-11-15_12h30.53.810,Tarea de género gramatical,2024.2.2,Win32,74.96251874,,,,,,,,,,,,,,,,,,,,,,,,258.918,260.33,a,1,[],[],[],[],[],[],[],0.751,1,260.33,260.823,,,,,,1060,MAS,DIS,150,señor,la,l,0.751,,260.823,260.823,0.391666667,-0.064814815,0,0,0,,0,9,9,159,1,,,,
,,,,,,8225dfdc5965dd4c3116192a,66a626ef09d4e21e1a8894ec,67376807b518710ec6ca16aa,2024-11-15_12h30.53.810,Tarea de género gramatical,2024.2.2,Win32,74.96251874,,,,,,,,,,,,,,,,,,,,,,,,260.824,261.811,l,1,[],[],[],[],[],[],[],0.333,1,261.811,262.304,,,,,,1011,FEM,CON,150,goma,,a,0.333,,262.305,262.305,0.391666667,-0.064814815,0,0,0,,0,10,10,110,1,,,,
,,,,,,8225dfdc5965dd4c3116192a,66a626ef09d4e21e1a8894ec,67376807b518710ec6ca16aa,2024-11-15_12h30.53.810,Tarea de género gramatical,2024.2.2,Win32,74.96251874,,,,,,,,,,,,,,,,,,,,,,,,262.306,263.478,a,1,[],[],[],[],[],[],[],0.507,1,263.479,263.972,,,,,,1103,MAS,AGR,150,novio,el,l,0.507,,263.972,263.973,0.391666667,-0.064814815,0,0,0,,0,11,11,202,1,,,,
,,,,,,8225dfdc5965dd4c3116192a,66a626ef09d4e21e1a8894ec,67376807b518710ec6ca16aa,2024-11-15_12h30.53.810,Tarea de género gramatical,2024.2.2,Win32,74.96251874,,,,,,,,,,,,,,,,,,,,,,,,263.973,264.959,l,1,[],[],[],[],[],[],[],0.329,1,264.959,265.452,,,,,,945,FEM,CON,150,isla,,a,0.329,,265.452,265.452,0.391666667,-0.064814815,0,0,0,,0,12,12,44,1,,,,
,,,,,,8225dfdc5965dd4c3116192a,66a626ef09d4e21e1a8894ec,67376807b518710ec6ca16aa,2024-11-15_12h30.53.810,Tarea de género gramatical,2024.2.2,Win32,74.96251874,,,,,,,,,,,,,,,,,,,,,,,,265.453,266.56,l,1,[],[],[],[],[],[],[],0.448,1,266.56,267.053,,,,,,1339,FEM,DIS,150,toalla,el,a,0.448,,267.053,267.053,0.391666667,-0.064814815,0,0,0,,0,13,13,438,1,,,,
,,,,,,8225dfdc5965dd4c3116192a,66a626ef09d4e21e1a8894ec,67376807b518710ec6ca16aa,2024-11-15_12h30.53.810,Tarea de género gramatical,2024.2.2,Win32,74.96251874,,,,,,,,,,,,,,,,,,,,,,,,267.054,268.28,a,1,[],[],[],[],[],[],[],0.559,1,268.28,268.774,,,,,,1330,MAS,DIS,150,título,la,l,0.559,,268.774,268.774,0.391666667,-0.064814815,0,0,0,,0,14,14,429,1,,,,
,,,,,,8225dfdc5965dd4c3116192a,66a626ef09d4e21e1a8894ec,67376807b518710ec6ca16aa,2024-11-15_12h30.53.810,Tarea de género gramatical,2024.2.2,Win32,74.96251874,,,,,,,,,,,,,,,,,,,,,,,,268.775,269.774,l,1,[],[],[],[],[],[],[],0.345,1,269.774,270.267,,,,,,1003,FEM,DIS,150,fama,el,a,0.345,,270.268,270.268,0.391666667,-0.064814815,0,0,0,,0,15,15,102,1,,,,
,,,,,,8225dfdc5965dd4c3116192a,66a626ef09d4e21e1a8894ec,67376807b518710ec6ca16aa,2024-11-15_12h30.53.810,Tarea de género gramatical,2024.2.2,Win32,74.96251874,,,,,,,,,,,,,,,,,,,,,,,,270.269,271.348,a,1,[],[],[],[],[],[],[],0.417,1,271.348,271.841,,,,,,960,MAS,CON,150,tono,,l,0.417,,271.841,271.841,0.391666667,-0.064814815,0,0,0,,0,16,16,59,1,,,,
,,,,,,8225dfdc5965dd4c3116192a,66a626ef09d4e21e1a8894ec,67376807b518710ec6ca16aa,2024-11-15_12h30.53.810,Tarea de género gramatical,2024.2.2,Win32,74.96251874,,,,,,,,,,,,,,,,,,,,,,,,271.842,273.055,a,1,[],[],[],[],[],[],[],0.547,1,273.055,273.549,,,,,,1109,MAS,AGR,150,banco,el,l,0.547,,273.549,273.549,0.391666667,-0.064814815,0,0,0,,0,17,17,208,1,,,,
,,,,,,8225dfdc5965dd4c3116192a,66a626ef09d4e21e1a8894ec,67376807b518710ec6ca16aa,2024-11-15_12h30.53.810,Tarea de género gramatical,2024.2.2,Win32,74.96251874,,,,,,,,,,,,,,,,,,,,,,,,273.549,274.696,a,1,[],[],[],[],[],[],[],0.482,1,274.696,275.189,,,,,,916,MAS,DIS,150,baño,la,l,0.482,,275.189,275.189,0.391666667,-0.064814815,0,0,0,,0,18,18,15,1,,,,
,,,,,,8225dfdc5965dd4c3116192a,66a626ef09d4e21e1a8894ec,67376807b518710ec6ca16aa,2024-11-15_12h30.53.810,Tarea de género gramatical,2024.2.2,Win32,74.96251874,,,,,,,,,,,,,,,,,,,,,,,,275.19,276.202,a,1,[],[],[],[],[],[],[],0.353,1,276.202,276.696,,,,,,1169,MAS,AGR,150,primo,el,l,0.353,,276.696,276.696,0.391666667,-0.064814815,0,0,0,,0,19,19,268,1,,,,
,,,,,,8225dfdc5965dd4c3116192a,66a626ef09d4e21e1a8894ec,67376807b518710ec6ca16aa,2024-11-15_12h30.53.810,Tarea de género gramatical,2024.2.2,Win32,74.96251874,,,,,,,,,,,,,,,,,,,,,,,,276.697,277.71,l,1,[],[],[],[],[],[],[],0.356,1,277.71,278.204,,,,,,973,FEM,DIS,150,roca,el,a,0.356,,278.204,278.205,0.391666667,-0.064814815,0,0,0,,0,20,20,72,1,,,,
,,,,,,8225dfdc5965dd4c3116192a,66a626ef09d4e21e1a8894ec,67376807b518710ec6ca16aa,2024-11-15_12h30.53.810,Tarea de género gramatical,2024.2.2,Win32,74.96251874,,,,,,,,,,,,,,,,,,,,,,,,278.205,279.484,l,1,[],[],[],[],[],[],[],0.616,1,279.484,279.977,,,,,,991,FEM,DIS,150,hoja,el,a,0.616,,279.977,279.977,0.391666667,-0.064814815,0,0,0,,0,21,21,90,1,,,,
,,,,,,8225dfdc5965dd4c3116192a,66a626ef09d4e21e1a8894ec,67376807b518710ec6ca16aa,2024-11-15_12h30.53.810,Tarea de género gramatical,2024.2.2,Win32,74.96251874,,,,,,,,,,,,,,,,,,,,,,,,279.978,281.352,l,1,[],[],[],[],[],[],[],0.707,1,281.352,281.845,,,,,,1291,FEM,DIS,150,altura,el,a,0.707,,281.845,281.845,0.391666667,-0.064814815,0,0,0,,0,22,22,390,1,,,,
,,,,,,8225dfdc5965dd4c3116192a,66a626ef09d4e21e1a8894ec,67376807b518710ec6ca16aa,2024-11-15_12h30.53.810,Tarea de género gramatical,2024.2.2,Win32,74.96251874,,,,,,,,,,,,,,,,,,,,,,,,281.845,283.005,l,1,[],[],[],[],[],[],[],0.497,1,283.005,283.498,,,,,,1058,FEM,AGR,150,chica,la,a,0.497,,283.499,283.499,0.391666667,-0.064814815,0,0,0,,0,23,23,157,1,,,,
,,,,,,8225dfdc5965dd4c3116192a,66a626ef09d4e21e1a8894ec,67376807b518710ec6ca16aa,2024-11-15_12h30.53.810,Tarea de género gramatical,2024.2.2,Win32,74.96251874,,,,,,,,,,,,,,,,,,,,,,,,283.499,284.566,l,1,[],[],[],[],[],[],[],0.41,1,284.566,285.06,,,,,,1040,FEM,AGR,150,mula,la,a,0.41,,285.061,285.061,0.391666667,-0.064814815,0,0,0,,0,24,24,139,1,,,,
,,,,,,8225dfdc5965dd4c3116192a,66a626ef09d4e21e1a8894ec,67376807b518710ec6ca16aa,2024-11-15_12h30.53.810,Tarea de género gramatical,2024.2.2,Win32,74.96251874,,,,,,,,,,,,,,,,,,,,,,,,285.062,286.073,l,1,[],[],[],[],[],[],[],0.352,1,286.073,286.566,,,,,,919,FEM,DIS,150,niña,el,a,0.352,,286.566,286.566,0.391666667,-0.064814815,0,0,0,,0,25,25,18,1,,,,
,,,,,,8225dfdc5965dd4c3116192a,66a626ef09d4e21e1a8894ec,67376807b518710ec6ca16aa,2024-11-15_12h30.53.810,Tarea de género gramatical,2024.2.2,Win32,74.96251874,,,,,,,,,,,,,,,,,,,,,,,,286.567,287.54,a,1,[],[],[],[],[],[],[],0.311,1,287.541,288.034,,,,,,1127,MAS,AGR,150,vuelo,el,l,0.311,,288.034,288.034,0.391666667,-0.064814815,0,0,0,,0,26,26,226,1,,,,
,,,,,,8225dfdc5965dd4c3116192a,66a626ef09d4e21e1a8894ec,67376807b518710ec6ca16aa,2024-11-15_12h30.53.810,Tarea de género gramatical,2024.2.2,Win32,74.96251874,,,,,,,,,,,,,,,,,,,,,,,,288.035,289.048,l,1,[],[],[],[],[],[],[],0.354,1,289.048,289.541,,,,,,956,FEM,AGR,150,bola,la,a,0.354,,289.541,289.541,0.391666667,-0.064814815,0,0,0,,0,27,27,55,1,,,,
,,,,,,8225dfdc5965dd4c3116192a,66a626ef09d4e21e1a8894ec,67376807b518710ec6ca16aa,2024-11-15_12h30.53.810,Tarea de género gramatical,2024.2.2,Win32,74.96251874,,,,,,,,,,,,,,,,,,,,,,,,289.542,290.555,l,1,[],[],[],[],[],[],[],0.359,1,290.555,291.048,,,,,,1106,FEM,AGR,150,época,la,a,0.359,,291.048,291.048,0.391666667,-0.064814815,0,0,0,,0,28,28,205,1,,,,
,,,,,,8225dfdc5965dd4c3116192a,66a626ef09d4e21e1a8894ec,67376807b518710ec6ca16aa,2024-11-15_12h30.53.810,Tarea de género gramatical,2024.2.2,Win32,74.96251874,,,,,,,,,,,,,,,,,,,,,,,,291.048,292.049,l,1,[],[],[],[],[],[],[],0.333,1,292.049,292.542,,,,,,975,FEM,CON,150,caza,,a,0.333,,292.544,292.544,0.391666667,-0.064814815,0,0,0,,0,29,29,74,1,,,,
,,,,,,8225dfdc5965dd4c3116192a,66a626ef09d4e21e1a8894ec,67376807b518710ec6ca16aa,2024-11-15_12h30.53.810,Tarea de género gramatical,2024.2.2,Win32,74.96251874,,,,,,,,,,,,,,,,,,,,,,,,292.545,293.543,l,1,[],[],[],[],[],[],[],0.334,1,293.543,294.036,,,,,,1280,FEM,AGR,150,madera,la,a,0.334,,294.036,294.036,0.391666667,-0.064814815,0,0,0,,0,30,30,379,1,,,,
,,,,,,8225dfdc5965dd4c3116192a,66a626ef09d4e21e1a8894ec,67376807b518710ec6ca16aa,2024-11-15_12h30.53.810,Tarea de género gramatical,2024.2.2,Win32,74.96251874,,,,,,,,,,,,,,,,,,,,,,,,294.036,295.077,a,1,[],[],[],[],[],[],[],0.384,1,295.077,295.571,,,,,,988,MAS,DIS,150,pavo,la,l,0.384,,295.571,295.571,0.391666667,-0.064814815,0,0,0,,0,31,31,87,1,,,,
,,,,,,8225dfdc5965dd4c3116192a,66a626ef09d4e21e1a8894ec,67376807b518710ec6ca16aa,2024-11-15_12h30.53.810,Tarea de género gramatical,2024.2.2,Win32,74.96251874,,,,,,,,,,,,,,,,,,,,,,,,295.573,296.837,a,1,[],[],[],[],[],[],[],0.601,1,296.837,297.331,,,,,,1025,MAS,AGR,150,bate,el,l,0.601,,297.331,297.331,0.391666667,-0.064814815,0,0,0,,0,32,32,124,1,,,,
,,,,,,8225dfdc5965dd4c3116192a,66a626ef09d4e21e1a8894ec,67376807b518710ec6ca16aa,2024-11-15_12h30.53.810,Tarea de género gramatical,2024.2.2,Win32,74.96251874,,,,,,,,,,,,,,,,,,,,,,,,297.332,298.278,l,1,[],[],[],[],[],[],[],0.281,1,298.278,298.771,,,,,,1261,FEM,DIS,150,oferta,el,a,0.281,,298.772,298.772,0.391666667,-0.064814815,0,0,0,,0,33,33,360,1,,,,
,,,,,,8225dfdc5965dd4c3116192a,66a626ef09d4e21e1a8894ec,67376807b518710ec6ca16aa,2024-11-15_12h30.53.810,Tarea de género gramatical,2024.2.2,Win32,74.96251874,,,,,,,,,,,,,,,,,,,,,,,,298.773,300.278,a,1,[],[],[],[],[],[],[],0.841,1,300.279,300.772,,,,,,1272,MAS,CON,150,delito,,l,0.841,,300.772,300.772,0.391666667,-0.064814815,0,0,0,,0,34,34,371,1,,,,
,,,,,,8225dfdc5965dd4c3116192a,66a626ef09d4e21e1a8894ec,67376807b518710ec6ca16aa,2024-11-15_12h30.53.810,Tarea de género gramatical,2024.2.2,Win32,74.96251874,,,,,,,,,,,,,,,,,,,,,,,,300.773,301.799,a,1,[],[],[],[],[],[],[],0.368,1,301.799,302.292,,,,,,1098,MAS,CON,150,hotel,,l,0.368,,302.292,302.293,0.391666667,-0.064814815,0,0,0,,0,35,35,197,1,,,,
,,,,,,8225dfdc5965dd4c3116192a,66a626ef09d4e21e1a8894ec,67376807b518710ec6ca16aa,2024-11-15_12h30.53.810,Tarea de género gramatical,2024.2.2,Win32,74.96251874,,,,,,,,,,,,,,,,,,,,,,,,302.294,303.306,l,1,[],[],[],[],[],[],[],0.353,1,303.306,303.8,,,,,,1004,FEM,AGR,150,vela,la,a,0.353,,303.8,303.8,0.391666667,-0.064814815,0,0,0,,0,36,36,103,1,,,,
,,,,,,8225dfdc5965dd4c3116192a,66a626ef09d4e21e1a8894ec,67376807b518710ec6ca16aa,2024-11-15_12h30.53.810,Tarea de género gramatical,2024.2.2,Win32,74.96251874,,,,,,,,,,,,,,,,,,,,,,,,303.8,304.733,l,1,[],[],[],[],[],[],[],0.276,1,304.733,305.227,,,,,,1251,FEM,CON,150,espada,,a,0.276,,305.227,305.227,0.391666667,-0.064814815,0,0,0,,0,37,37,350,1,,,,
,,,,,,8225dfdc5965dd4c3116192a,66a626ef09d4e21e1a8894ec,67376807b518710ec6ca16aa,2024-11-15_12h30.53.810,Tarea de género gramatical,2024.2.2,Win32,74.96251874,,,,,,,,,,,,,,,,,,,,,,,,305.227,306.334,a,1,[],[],[],[],[],[],[],0.451,1,306.335,306.828,,,,,,972,MAS,CON,150,hoyo,,l,0.451,,306.828,306.829,0.391666667,-0.064814815,0,0,0,,0,38,38,71,1,,,,
,,,,,,8225dfdc5965dd4c3116192a,66a626ef09d4e21e1a8894ec,67376807b518710ec6ca16aa,2024-11-15_12h30.53.810,Tarea de género gramatical,2024.2.2,Win32,74.96251874,,,,,,,,,,,,,,,,,,,,,,,,306.829,307.868,a,1,[],[],[],[],[],[],[],0.384,1,307.868,308.361,,,,,,1157,MAS,AGR,150,pecho,el,l,0.384,,308.361,308.361,0.391666667,-0.064814815,0,0,0,,0,39,39,256,1,,,,
,,,,,,8225dfdc5965dd4c3116192a,66a626ef09d4e21e1a8894ec,67376807b518710ec6ca16aa,2024-11-15_12h30.53.810,Tarea de género gramatical,2024.2.2,Win32,74.96251874,,,,,,,,,,,,,,,,,,,,,,,,308.362,309.362,a,1,[],[],[],[],[],[],[],0.339,1,309.362,309.855,,,,,,1337,MAS,AGR,150,hombro,el,l,0.339,,309.855,309.855,0.391666667,-0.064814815,0,0,0,,0,40,40,436,1,,,,
,,,,,,8225dfdc5965dd4c3116192a,66a626ef09d4e21e1a8894ec,67376807b518710ec6ca16aa,2024-11-15_12h30.53.810,Tarea de género gramatical,2024.2.2,Win32,74.96251874,,,,,,,,,,,,,,,,,,,,,,,,309.855,310.909,l,1,[],[],[],[],[],[],[],0.396,1,310.909,311.402,,,,,,1124,FEM,AGR,150,arena,la,a,0.396,,311.402,311.402,0.391666667,-0.064814815,0,0,0,,0,41,41,223,1,,,,
,,,,,,8225dfdc5965dd4c3116192a,66a626ef09d4e21e1a8894ec,67376807b518710ec6ca16aa,2024-11-15_12h30.53.810,Tarea de género gramatical,2024.2.2,Win32,74.96251874,,,,,,,,,,,,,,,,,,,,,,,,311.404,312.416,a,1,[],[],[],[],[],[],[],0.352,1,312.416,312.91,,,,,,1145,MAS,AGR,150,turno,el,l,0.352,,312.91,312.911,0.391666667,-0.064814815,0,0,0,,0,42,42,244,1,,,,
,,,,,,8225dfdc5965dd4c3116192a,66a626ef09d4e21e1a8894ec,67376807b518710ec6ca16aa,2024-11-15_12h30.53.810,Tarea de género gramatical,2024.2.2,Win32,74.96251874,,,,,,,,,,,,,,,,,,,,,,,,312.911,313.95,l,0,[],[],[],[],[],[],[],0.375,0,313.95,314.443,,,,,,1110,MAS,CON,150,baile,,l,0.375,,314.444,314.444,0.391666667,-0.064814815,0,0,0,,0,43,43,209,1,,,,
,,,,,,8225dfdc5965dd4c3116192a,66a626ef09d4e21e1a8894ec,67376807b518710ec6ca16aa,2024-11-15_12h30.53.810,Tarea de género gramatical,2024.2.2,Win32,74.96251874,,,,,,,,,,,,,,,,,,,,,,,,314.444,315.351,l,1,[],[],[],[],[],[],[],0.25,1,315.351,315.845,,,,,,1005,FEM,CON,150,jefa,,a,0.25,,315.845,315.845,0.391666667,-0.064814815,0,0,0,,0,44,44,104,1,,,,
,,,,,,8225dfdc5965dd4c3116192a,66a626ef09d4e21e1a8894ec,67376807b518710ec6ca16aa,2024-11-15_12h30.53.810,Tarea de género gramatical,2024.2.2,Win32,74.96251874,,,,,,,,,,,,,,,,,,,,,,,,315.845,316.791,a,1,[],[],[],[],[],[],[],0.277,1,316.791,317.285,,,,,,1073,MAS,AGR,150,libro,el,l,0.277,,317.285,317.285,0.391666667,-0.064814815,0,0,0,,0,45,45,172,1,,,,
,,,,,,8225dfdc5965dd4c3116192a,66a626ef09d4e21e1a8894ec,67376807b518710ec6ca16aa,2024-11-15_12h30.53.810,Tarea de género gramatical,2024.2.2,Win32,74.96251874,,,,,,,,,,,,,,,,,,,,,,,,317.285,318.352,l,1,[],[],[],[],[],[],[],0.407,1,318.352,318.845,,,,,,1101,FEM,CON,150,leche,,a,0.407,,318.845,318.845,0.391666667,-0.064814815,0,0,0,,0,46,46,200,1,,,,
,,,,,,8225dfdc5965dd4c3116192a,66a626ef09d4e21e1a8894ec,67376807b518710ec6ca16aa,2024-11-15_12h30.53.810,Tarea de género gramatical,2024.2.2,Win32,74.96251874,,,,,,,,,,,,,,,,,,,,,,,,318.846,320.033,a,1,[],[],[],[],[],[],[],0.522,1,320.033,320.526,,,,,,982,MAS,DIS,150,tubo,la,l,0.522,,320.526,320.527,0.391666667,-0.064814815,0,0,0,,0,47,47,81,1,,,,
,,,,,,8225dfdc5965dd4c3116192a,66a626ef09d4e21e1a8894ec,67376807b518710ec6ca16aa,2024-11-15_12h30.53.810,Tarea de género gramatical,2024.2.2,Win32,74.96251874,,,,,,,,,,,,,,,,,,,,,,,,320.527,321.58,a,1,[],[],[],[],[],[],[],0.39,1,321.58,322.073,,,,,,1314,MAS,CON,150,sótano,,l,0.39,,322.073,322.073,0.391666667,-0.064814815,0,0,0,,0,48,48,413,1,,,,
,,,,,,8225dfdc5965dd4c3116192a,66a626ef09d4e21e1a8894ec,67376807b518710ec6ca16aa,2024-11-15_12h30.53.810,Tarea de género gramatical,2024.2.2,Win32,74.96251874,,,,,,,,,,,,,,,,,,,,,,,,322.074,323.167,a,1,[],[],[],[],[],[],[],0.427,1,323.167,323.661,,,,,,1283,MAS,AGR,150,parque,el,l,0.427,,323.661,323.661,0.391666667,-0.064814815,0,0,0,,0,49,49,382,1,,,,
,,,,,,8225dfdc5965dd4c3116192a,66a626ef09d4e21e1a8894ec,67376807b518710ec6ca16aa,2024-11-15_12h30.53.810,Tarea de género gramatical,2024.2.2,Win32,74.96251874,,,,,,,,,,,,,,,,,,,,,,,,323.661,324.621,l,0,[],[],[],[],[],[],[],0.303,0,324.621,325.114,,,,,,1012,MAS,DIS,150,reto,la,l,0.303,,325.114,325.114,0.391666667,-0.064814815,0,0,0,,0,50,50,111,1,,,,
,,,,,,8225dfdc5965dd4c3116192a,66a626ef09d4e21e1a8894ec,67376807b518710ec6ca16aa,2024-11-15_12h30.53.810,Tarea de género gramatical,2024.2.2,Win32,74.96251874,,,,,,,,,,,,,,,,,,,,,,,,325.115,326.141,l,1,[],[],[],[],[],[],[],0.37,1,326.142,326.635,,,,,,1179,FEM,CON,150,selva,,a,0.37,,326.635,326.636,0.391666667,-0.064814815,0,0,0,,0,51,51,278,1,,,,
,,,,,,8225dfdc5965dd4c3116192a,66a626ef09d4e21e1a8894ec,67376807b518710ec6ca16aa,2024-11-15_12h30.53.810,Tarea de género gramatical,2024.2.2,Win32,74.96251874,,,,,,,,,,,,,,,,,,,,,,,,326.636,327.742,a,1,[],[],[],[],[],[],[],0.449,1,327.742,328.235,,,,,,1248,MAS,CON,150,anillo,,l,0.449,,328.235,328.235,0.391666667,-0.064814815,0,0,0,,0,52,52,347,1,,,,
,,,,,,8225dfdc5965dd4c3116192a,66a626ef09d4e21e1a8894ec,67376807b518710ec6ca16aa,2024-11-15_12h30.53.810,Tarea de género gramatical,2024.2.2,Win32,74.96251874,,,,,,,,,,,,,,,,,,,,,,,,328.236,329.356,a,1,[],[],[],[],[],[],[],0.457,1,329.357,329.85,,,,,,1036,MAS,DIS,150,vago,la,l,0.457,,329.85,329.85,0.391666667,-0.064814815,0,0,0,,0,53,53,135,1,,,,
,,,,,,8225dfdc5965dd4c3116192a,66a626ef09d4e21e1a8894ec,67376807b518710ec6ca16aa,2024-11-15_12h30.53.810,Tarea de género gramatical,2024.2.2,Win32,74.96251874,,,,,,,,,,,,,,,,,,,,,,,,329.851,330.903,a,1,[],[],[],[],[],[],[],0.395,1,330.903,331.397,,,,,,935,MAS,AGR,150,taxi,el,l,0.395,,331.397,331.397,0.391666667,-0.064814815,0,0,0,,0,54,54,34,1,,,,
,,,,,,8225dfdc5965dd4c3116192a,66a626ef09d4e21e1a8894ec,67376807b518710ec6ca16aa,2024-11-15_12h30.53.810,Tarea de género gramatical,2024.2.2,Win32,74.96251874,,,,,,,,,,,,,,,,,,,,,,,,331.398,332.33,a,1,[],[],[],[],[],[],[],0.277,1,332.33,332.824,,,,,,1205,MAS,AGR,150,hombre,el,l,0.277,,332.824,332.824,0.391666667,-0.064814815,0,0,0,,0,55,55,304,1,,,,
,,,,,,8225dfdc5965dd4c3116192a,66a626ef09d4e21e1a8894ec,67376807b518710ec6ca16aa,2024-11-15_12h30.53.810,Tarea de género gramatical,2024.2.2,Win32,74.96251874,,,,,,,,,,,,,,,,,,,,,,,,332.825,333.745,a,1,[],[],[],[],[],[],[],0.261,1,333.745,334.238,,,,,,1277,MAS,AGR,150,jardín,el,l,0.261,,334.238,334.239,0.391666667,-0.064814815,0,0,0,,0,56,56,376,1,,,,
,,,,,,8225dfdc5965dd4c3116192a,66a626ef09d4e21e1a8894ec,67376807b518710ec6ca16aa,2024-11-15_12h30.53.810,Tarea de género gramatical,2024.2.2,Win32,74.96251874,,,,,,,,,,,,,,,,,,,,,,,,334.24,335.158,a,1,[],[],[],[],[],[],[],0.262,1,335.159,335.652,,,,,,1193,MAS,AGR,150,patio,el,l,0.262,,335.652,335.652,0.391666667,-0.064814815,0,0,0,,0,57,57,292,1,,,,
,,,,,,8225dfdc5965dd4c3116192a,66a626ef09d4e21e1a8894ec,67376807b518710ec6ca16aa,2024-11-15_12h30.53.810,Tarea de género gramatical,2024.2.2,Win32,74.96251874,,,,,,,,,,,,,,,,,,,,,,,,335.653,336.639,a,1,[],[],[],[],[],[],[],0.32,1,336.639,337.132,,,,,,1037,MAS,AGR,150,coco,el,l,0.32,,337.132,337.132,0.391666667,-0.064814815,0,0,0,,0,58,58,136,1,,,,
,,,,,,8225dfdc5965dd4c3116192a,66a626ef09d4e21e1a8894ec,67376807b518710ec6ca16aa,2024-11-15_12h30.53.810,Tarea de género gramatical,2024.2.2,Win32,74.96251874,,,,,,,,,,,,,,,,,,,,,,,,337.133,338.053,a,1,[],[],[],[],[],[],[],0.255,1,338.053,338.546,,,,,,1246,MAS,DIS,150,juicio,la,l,0.255,,338.546,338.546,0.391666667,-0.064814815,0,0,0,,0,59,59,345,1,,,,
,,,,,,8225dfdc5965dd4c3116192a,66a626ef09d4e21e1a8894ec,67376807b518710ec6ca16aa,2024-11-15_12h30.53.810,Tarea de género gramatical,2024.2.2,Win32,74.96251874,,,,,,,,,,,,,,,,,,,,,,,,338.547,339.559,l,1,[],[],[],[],[],[],[],0.347,1,339.559,340.053,,,,,,951,FEM,CON,150,bala,,a,0.347,,340.054,340.054,0.391666667,-0.064814815,0,0,0,,0,60,60,50,1,,,,
,,,,,,8225dfdc5965dd4c3116192a,66a626ef09d4e21e1a8894ec,67376807b518710ec6ca16aa,2024-11-15_12h30.53.810,Tarea de género gramatical,2024.2.2,Win32,74.96251874,,,,,,,,,,,,,,,,,,,,,,,,340.055,341.174,l,1,[],[],[],[],[],[],[],0.462,1,341.174,341.667,,,,,,1298,FEM,AGR,150,hierba,la,a,0.462,,341.667,341.667,0.391666667,-0.064814815,0,0,0,,0,61,61,397,1,,,,
,,,,,,8225dfdc5965dd4c3116192a,66a626ef09d4e21e1a8894ec,67376807b518710ec6ca16aa,2024-11-15_12h30.53.810,Tarea de género gramatical,2024.2.2,Win32,74.96251874,,,,,,,,,,,,,,,,,,,,,,,,341.668,342.641,l,1,[],[],[],[],[],[],[],0.314,1,342.641,343.135,,,,,,1022,FEM,AGR,150,loca,la,a,0.314,,343.135,343.135,0.391666667,-0.064814815,0,0,0,,0,62,62,121,1,,,,
,,,,,,8225dfdc5965dd4c3116192a,66a626ef09d4e21e1a8894ec,67376807b518710ec6ca16aa,2024-11-15_12h30.53.810,Tarea de género gramatical,2024.2.2,Win32,74.96251874,,,,,,,,,,,,,,,,,,,,,,,,343.135,344.095,a,1,[],[],[],[],[],[],[],0.301,1,344.095,344.588,,,,,,1206,MAS,CON,150,dinero,,l,0.301,,344.589,344.589,0.391666667,-0.064814815,0,0,0,,0,63,63,305,1,,,,
,,,,,,8225dfdc5965dd4c3116192a,66a626ef09d4e21e1a8894ec,67376807b518710ec6ca16aa,2024-11-15_12h30.53.810,Tarea de género gramatical,2024.2.2,Win32,74.96251874,,,,,,,,,,,,,,,,,,,,,,,,344.589,345.496,a,0,[],[],[],[],[],[],[],0.24,0,345.496,345.989,,,,,,1172,FEM,AGR,150,oreja,la,a,0.24,,345.989,345.989,0.391666667,-0.064814815,0,0,0,,0,64,64,271,1,,,,
,,,,,,8225dfdc5965dd4c3116192a,66a626ef09d4e21e1a8894ec,67376807b518710ec6ca16aa,2024-11-15_12h30.53.810,Tarea de género gramatical,2024.2.2,Win32,74.96251874,,,,,,,,,,,,,,,,,,,,,,,,345.99,347.03,a,1,[],[],[],[],[],[],[],0.383,1,347.03,347.522,,,,,,1182,MAS,CON,150,bolso,,l,0.383,,347.523,347.523,0.391666667,-0.064814815,0,0,0,,0,65,65,281,1,,,,
,,,,,,8225dfdc5965dd4c3116192a,66a626ef09d4e21e1a8894ec,67376807b518710ec6ca16aa,2024-11-15_12h30.53.810,Tarea de género gramatical,2024.2.2,Win32,74.96251874,,,,,,,,,,,,,,,,,,,,,,,,347.524,348.55,l,1,[],[],[],[],[],[],[],0.368,1,348.55,349.044,,,,,,1321,FEM,DIS,150,novela,el,a,0.368,,349.044,349.044,0.391666667,-0.064814815,0,0,0,,0,66,66,420,1,,,,
,,,,,,8225dfdc5965dd4c3116192a,66a626ef09d4e21e1a8894ec,67376807b518710ec6ca16aa,2024-11-15_12h30.53.810,Tarea de género gramatical,2024.2.2,Win32,74.96251874,,,,,,,,,,,,,,,,,,,,,,,,349.044,350.057,a,0,[],[],[],[],[],[],[],0.353,0,350.058,350.55,,,,,,985,FEM,DIS,150,gira,el,a,0.353,,350.55,350.55,0.391666667,-0.064814815,0,0,0,,0,67,67,84,1,,,,
,,,,,,8225dfdc5965dd4c3116192a,66a626ef09d4e21e1a8894ec,67376807b518710ec6ca16aa,2024-11-15_12h30.53.810,Tarea de género gramatical,2024.2.2,Win32,74.96251874,,,,,,,,,,,,,,,,,,,,,,,,350.551,351.457,a,0,[],[],[],[],[],[],[],0.245,0,351.457,351.951,,,,,,1274,FEM,AGR,150,herida,la,a,0.245,,351.951,351.951,0.391666667,-0.064814815,0,0,0,,0,68,68,373,1,,,,
,,,,,,8225dfdc5965dd4c3116192a,66a626ef09d4e21e1a8894ec,67376807b518710ec6ca16aa,2024-11-15_12h30.53.810,Tarea de género gramatical,2024.2.2,Win32,74.96251874,,,,,,,,,,,,,,,,,,,,,,,,351.951,352.964,a,1,[],[],[],[],[],[],[],0.357,1,352.965,353.459,,,,,,912,MAS,CON,150,plan,,l,0.357,,353.459,353.46,0.391666667,-0.064814815,0,0,0,,0,69,69,11,1,,,,
,,,,,,8225dfdc5965dd4c3116192a,66a626ef09d4e21e1a8894ec,67376807b518710ec6ca16aa,2024-11-15_12h30.53.810,Tarea de género gramatical,2024.2.2,Win32,74.96251874,,,,,,,,,,,,,,,,,,,,,,,,353.46,354.859,a,1,[],[],[],[],[],[],[],0.737,1,354.859,355.352,,,,,,1024,MAS,DIS,150,clan,la,l,0.737,,355.352,355.352,0.391666667,-0.064814815,0,0,0,,0,70,70,123,1,,,,
,,,,,,8225dfdc5965dd4c3116192a,66a626ef09d4e21e1a8894ec,67376807b518710ec6ca16aa,2024-11-15_12h30.53.810,Tarea de género gramatical,2024.2.2,Win32,74.96251874,,,,,,,,,,,,,,,,,,,,,,,,355.354,356.379,a,1,[],[],[],[],[],[],[],0.371,1,356.379,356.873,,,,,,1301,MAS,AGR,150,abrigo,el,l,0.371,,356.873,356.873,0.391666667,-0.064814815,0,0,0,,0,71,71,400,1,,,,
,,,,,,8225dfdc5965dd4c3116192a,66a626ef09d4e21e1a8894ec,67376807b518710ec6ca16aa,2024-11-15_12h30.53.810,Tarea de género gramatical,2024.2.2,Win32,74.96251874,,,,,,,,,,,,,,,,,,,,,,,,356.873,357.913,a,1,[],[],[],[],[],[],[],0.378,1,357.913,358.407,,,,,,1121,MAS,AGR,150,brazo,el,l,0.378,,358.407,358.407,0.391666667,-0.064814815,0,0,0,,0,72,72,220,1,,,,
,,,,,,8225dfdc5965dd4c3116192a,66a626ef09d4e21e1a8894ec,67376807b518710ec6ca16aa,2024-11-15_12h30.53.810,Tarea de género gramatical,2024.2.2,Win32,74.96251874,,,,,,,,,,,,,,,,,,,,,,,,358.407,359.674,a,1,[],[],[],[],[],[],[],0.604,1,359.675,360.167,,,,,,1032,MAS,CON,150,velo,,l,0.604,,360.167,360.167,0.391666667,-0.064814815,0,0,0,,0,73,73,131,1,,,,
,,,,,,8225dfdc5965dd4c3116192a,66a626ef09d4e21e1a8894ec,67376807b518710ec6ca16aa,2024-11-15_12h30.53.810,Tarea de género gramatical,2024.2.2,Win32,74.96251874,,,,,,,,,,,,,,,,,,,,,,,,360.168,361.101,l,1,[],[],[],[],[],[],[],0.277,1,361.101,361.595,,,,,,920,FEM,AGR,150,ropa,la,a,0.277,,361.595,361.596,0.391666667,-0.064814815,0,0,0,,0,74,74,19,1,,,,
,,,,,,8225dfdc5965dd4c3116192a,66a626ef09d4e21e1a8894ec,67376807b518710ec6ca16aa,2024-11-15_12h30.53.810,Tarea de género gramatical,2024.2.2,Win32,74.96251874,,,,,,,,,,,,,,,,,,,,,,,,361.596,362.689,l,1,[],[],[],[],[],[],[],0.433,1,362.689,363.182,,,,,,1303,FEM,DIS,150,paliza,el,a,0.433,,363.183,363.183,0.391666667,-0.064814815,0,0,0,,0,75,75,402,1,,,,
,,,,,,8225dfdc5965dd4c3116192a,66a626ef09d4e21e1a8894ec,67376807b518710ec6ca16aa,2024-11-15_12h30.53.810,Tarea de género gramatical,2024.2.2,Win32,74.96251874,,,,,,,,,,,,,,,,,,,,,,,,363.184,364.196,a,1,[],[],[],[],[],[],[],0.349,1,364.196,364.689,,,,,,1350,MAS,CON,150,conejo,,l,0.349,,364.689,364.689,0.391666667,-0.064814815,0,0,0,,0,76,76,449,1,,,,
,,,,,,8225dfdc5965dd4c3116192a,66a626ef09d4e21e1a8894ec,67376807b518710ec6ca16aa,2024-11-15_12h30.53.810,Tarea de género gramatical,2024.2.2,Win32,74.96251874,,,,,,,,,,,,,,,,,,,,,,,,364.69,365.796,l,1,[],[],[],[],[],[],[],0.45,1,365.796,366.29,,,,,,1100,FEM,AGR,150,silla,la,a,0.45,,366.29,366.29,0.391666667,-0.064814815,0,0,0,,0,77,77,199,1,,,,
,,,,,,8225dfdc5965dd4c3116192a,66a626ef09d4e21e1a8894ec,67376807b518710ec6ca16aa,2024-11-15_12h30.53.810,Tarea de género gramatical,2024.2.2,Win32,74.96251874,,,,,,,,,,,,,,,,,,,,,,,,366.29,367.303,l,1,[],[],[],[],[],[],[],0.354,1,367.304,367.797,,,,,,915,FEM,CON,150,cama,,a,0.354,,367.797,367.798,0.391666667,-0.064814815,0,0,0,,0,78,78,14,1,,,,
,,,,,,8225dfdc5965dd4c3116192a,66a626ef09d4e21e1a8894ec,67376807b518710ec6ca16aa,2024-11-15_12h30.53.810,Tarea de género gramatical,2024.2.2,Win32,74.96251874,,,,,,,,,,,,,,,,,,,,,,,,367.798,368.757,l,1,[],[],[],[],[],[],[],0.295,1,368.757,369.251,,,,,,1154,FEM,AGR,150,caída,la,a,0.295,,369.251,369.251,0.391666667,-0.064814815,0,0,0,,0,79,79,253,1,,,,
,,,,,,8225dfdc5965dd4c3116192a,66a626ef09d4e21e1a8894ec,67376807b518710ec6ca16aa,2024-11-15_12h30.53.810,Tarea de género gramatical,2024.2.2,Win32,74.96251874,,,,,,,,,,,,,,,,,,,,,,,,369.252,370.278,l,1,[],[],[],[],[],[],[],0.362,1,370.278,370.772,,,,,,1334,FEM,AGR,150,corona,la,a,0.362,,370.772,370.772,0.391666667,-0.064814815,0,0,0,,0,80,80,433,1,,,,
,,,,,,8225dfdc5965dd4c3116192a,66a626ef09d4e21e1a8894ec,67376807b518710ec6ca16aa,2024-11-15_12h30.53.810,Tarea de género gramatical,2024.2.2,Win32,74.96251874,,,,,,,,,,,,,,,,,,,,,,,,370.773,371.732,l,1,[],[],[],[],[],[],[],0.296,1,371.732,372.225,,,,,,980,FEM,AGR,150,vaca,la,a,0.296,,372.225,372.225,0.391666667,-0.064814815,0,0,0,,0,81,81,79,1,,,,
,,,,,,8225dfdc5965dd4c3116192a,66a626ef09d4e21e1a8894ec,67376807b518710ec6ca16aa,2024-11-15_12h30.53.810,Tarea de género gramatical,2024.2.2,Win32,74.96251874,,,,,,,,,,,,,,,,,,,,,,,,372.226,373.292,a,0,[],[],[],[],[],[],[],0.402,0,373.293,373.786,,,,,,1111,FEM,DIS,150,salud,el,a,0.402,,373.786,373.786,0.391666667,-0.064814815,0,0,0,,0,82,82,210,1,,,,
,,,,,,8225dfdc5965dd4c3116192a,66a626ef09d4e21e1a8894ec,67376807b518710ec6ca16aa,2024-11-15_12h30.53.810,Tarea de género gramatical,2024.2.2,Win32,74.96251874,,,,,,,,,,,,,,,,,,,,,,,,373.786,374.853,a,0,[],[],[],[],[],[],[],0.4,0,374.853,375.347,,,,,,1125,FEM,CON,150,pieza,,a,0.4,,375.347,375.348,0.391666667,-0.064814815,0,0,0,,0,83,83,224,1,,,,
,,,,,,8225dfdc5965dd4c3116192a,66a626ef09d4e21e1a8894ec,67376807b518710ec6ca16aa,2024-11-15_12h30.53.810,Tarea de género gramatical,2024.2.2,Win32,74.96251874,,,,,,,,,,,,,,,,,,,,,,,,375.348,376.547,l,1,[],[],[],[],[],[],[],0.538,1,376.548,377.041,,,,,,974,FEM,AGR,150,flor,la,a,0.538,,377.041,377.041,0.391666667,-0.064814815,0,0,0,,0,84,84,73,1,,,,
,,,,,,8225dfdc5965dd4c3116192a,66a626ef09d4e21e1a8894ec,67376807b518710ec6ca16aa,2024-11-15_12h30.53.810,Tarea de género gramatical,2024.2.2,Win32,74.96251874,,,,,,,,,,,,,,,,,,,,,,,,377.041,378.135,a,1,[],[],[],[],[],[],[],0.426,1,378.135,378.627,,,,,,984,MAS,CON,150,mago,,l,0.426,,378.627,378.627,0.391666667,-0.064814815,0,0,0,,0,85,85,83,1,,,,
,,,,,,8225dfdc5965dd4c3116192a,66a626ef09d4e21e1a8894ec,67376807b518710ec6ca16aa,2024-11-15_12h30.53.810,Tarea de género gramatical,2024.2.2,Win32,74.96251874,,,,,,,,,,,,,,,,,,,,,,,,378.628,379.895,a,1,[],[],[],[],[],[],[],0.6,1,379.895,380.388,,,,,,1152,MAS,CON,150,viejo,,l,0.6,,380.388,380.388,0.391666667,-0.064814815,0,0,0,,0,86,86,251,1,,,,
,,,,,,8225dfdc5965dd4c3116192a,66a626ef09d4e21e1a8894ec,67376807b518710ec6ca16aa,2024-11-15_12h30.53.810,Tarea de género gramatical,2024.2.2,Win32,74.96251874,,,,,,,,,,,,,,,,,,,,,,,,380.389,381.389,a,1,[],[],[],[],[],[],[],0.343,1,381.389,381.882,,,,,,1122,MAS,CON,150,valor,,l,0.343,,381.883,381.883,0.391666667,-0.064814815,0,0,0,,0,87,87,221,1,,,,
,,,,,,8225dfdc5965dd4c3116192a,66a626ef09d4e21e1a8894ec,67376807b518710ec6ca16aa,2024-11-15_12h30.53.810,Tarea de género gramatical,2024.2.2,Win32,74.96251874,,,,,,,,,,,,,,,,,,,,,,,,381.884,382.843,l,1,[],[],[],[],[],[],[],0.305,1,382.843,383.337,,,,,,1184,FEM,AGR,150,fruta,la,a,0.305,,383.337,383.337,0.391666667,-0.064814815,0,0,0,,0,88,88,283,1,,,,
,,,,,,8225dfdc5965dd4c3116192a,66a626ef09d4e21e1a8894ec,67376807b518710ec6ca16aa,2024-11-15_12h30.53.810,Tarea de género gramatical,2024.2.2,Win32,74.96251874,,,,,,,,,,,,,,,,,,,,,,,,383.337,384.337,a,1,[],[],[],[],[],[],[],0.339,1,384.337,384.83,,,,,,1115,MAS,AGR,150,hueso,el,l,0.339,,384.83,384.83,0.391666667,-0.064814815,0,0,0,,0,89,89,214,1,,,,
,,,,,,8225dfdc5965dd4c3116192a,66a626ef09d4e21e1a8894ec,67376807b518710ec6ca16aa,2024-11-15_12h30.53.810,Tarea de género gramatical,2024.2.2,Win32,74.96251874,,,,,,,,,,,,,,,,,,,,,,,,384.831,385.83,l,1,[],[],[],[],[],[],[],0.341,1,385.83,386.324,,,,,,1075,FEM,DIS,150,señal,el,a,0.341,,386.324,386.324,0.391666667,-0.064814815,0,0,0,,0,90,90,174,1,,,,
,,,,,,8225dfdc5965dd4c3116192a,66a626ef09d4e21e1a8894ec,67376807b518710ec6ca16aa,2024-11-15_12h30.53.810,Tarea de género gramatical,2024.2.2,Win32,74.96251874,,,,,,,,,,,,,,,,,,,,,,,,386.325,387.698,a,1,[],[],[],[],[],[],[],0.711,1,387.698,388.192,,,,,,1210,MAS,DIS,150,nombre,la,l,0.711,,388.192,388.192,0.391666667,-0.064814815,0,0,0,,0,91,91,309,1,,,,
,,,,,,8225dfdc5965dd4c3116192a,66a626ef09d4e21e1a8894ec,67376807b518710ec6ca16aa,2024-11-15_12h30.53.810,Tarea de género gramatical,2024.2.2,Win32,74.96251874,,,,,,,,,,,,,,,,,,,,,,,,388.192,389.245,a,1,[],[],[],[],[],[],[],0.39,1,389.245,389.739,,,,,,1140,MAS,CON,150,ruido,,l,0.39,,389.739,389.739,0.391666667,-0.064814815,0,0,0,,0,92,92,239,1,,,,
,,,,,,8225dfdc5965dd4c3116192a,66a626ef09d4e21e1a8894ec,67376807b518710ec6ca16aa,2024-11-15_12h30.53.810,Tarea de género gramatical,2024.2.2,Win32,74.96251874,,,,,,,,,,,,,,,,,,,,,,,,389.74,391.192,a,1,[],[],[],[],[],[],[],0.787,1,391.192,391.686,,,,,,995,MAS,AGR,150,tomo,el,l,0.787,,391.686,391.686,0.391666667,-0.064814815,0,0,0,,0,93,93,94,1,,,,
,,,,,,8225dfdc5965dd4c3116192a,66a626ef09d4e21e1a8894ec,67376807b518710ec6ca16aa,2024-11-15_12h30.53.810,Tarea de género gramatical,2024.2.2,Win32,74.96251874,,,,,,,,,,,,,,,,,,,,,,,,391.686,392.7,a,1,[],[],[],[],[],[],[],0.349,1,392.7,393.193,,,,,,1061,MAS,AGR,150,chico,el,l,0.349,,393.193,393.193,0.391666667,-0.064814815,0,0,0,,0,94,94,160,1,,,,
,,,,,,8225dfdc5965dd4c3116192a,66a626ef09d4e21e1a8894ec,67376807b518710ec6ca16aa,2024-11-15_12h30.53.810,Tarea de género gramatical,2024.2.2,Win32,74.96251874,,,,,,,,,,,,,,,,,,,,,,,,393.194,394.167,l,0,[],[],[],[],[],[],[],0.314,0,394.167,394.661,,,,,,1264,MAS,DIS,150,viento,la,l,0.314,,394.662,394.662,0.391666667,-0.064814815,0,0,0,,0,95,95,363,1,,,,
,,,,,,8225dfdc5965dd4c3116192a,66a626ef09d4e21e1a8894ec,67376807b518710ec6ca16aa,2024-11-15_12h30.53.810,Tarea de género gramatical,2024.2.2,Win32,74.96251874,,,,,,,,,,,,,,,,,,,,,,,,394.664,395.781,l,1,[],[],[],[],[],[],[],0.465,1,395.783,396.275,,,,,,1262,FEM,AGR,150,fuente,la,a,0.465,,396.275,396.276,0.391666667,-0.064814815,0,0,0,,0,96,96,361,1,,,,
,,,,,,8225dfdc5965dd4c3116192a,66a626ef09d4e21e1a8894ec,67376807b518710ec6ca16aa,2024-11-15_12h30.53.810,Tarea de género gramatical,2024.2.2,Win32,74.96251874,,,,,,,,,,,,,,,,,,,,,,,,396.277,397.408,a,1,[],[],[],[],[],[],[],0.473,1,397.408,397.901,,,,,,1343,MAS,AGR,150,templo,el,l,0.473,,397.901,397.902,0.391666667,-0.064814815,0,0,0,,0,97,97,442,1,,,,
,,,,,,8225dfdc5965dd4c3116192a,66a626ef09d4e21e1a8894ec,67376807b518710ec6ca16aa,2024-11-15_12h30.53.810,Tarea de género gramatical,2024.2.2,Win32,74.96251874,,,,,,,,,,,,,,,,,,,,,,,,397.903,398.942,a,1,[],[],[],[],[],[],[],0.373,1,398.942,399.436,,,,,,1199,MAS,AGR,150,rumbo,el,l,0.373,,399.436,399.436,0.391666667,-0.064814815,0,0,0,,0,98,98,298,1,,,,
,,,,,,8225dfdc5965dd4c3116192a,66a626ef09d4e21e1a8894ec,67376807b518710ec6ca16aa,2024-11-15_12h30.53.810,Tarea de género gramatical,2024.2.2,Win32,74.96251874,,,,,,,,,,,,,,,,,,,,,,,,399.436,400.462,a,1,[],[],[],[],[],[],[],0.369,1,400.462,400.956,,,,,,1175,MAS,AGR,150,disco,el,l,0.369,,400.956,400.956,0.391666667,-0.064814815,0,0,0,,0,99,99,274,1,,,,
,,,,,,8225dfdc5965dd4c3116192a,66a626ef09d4e21e1a8894ec,67376807b518710ec6ca16aa,2024-11-15_12h30.53.810,Tarea de género gramatical,2024.2.2,Win32,74.96251874,,,,,,,,,,,,,,,,,,,,,,,,400.957,402.077,l,1,[],[],[],[],[],[],[],0.455,1,402.077,402.57,,,,,,1028,FEM,AGR,150,leña,la,a,0.455,,402.57,402.57,0.391666667,-0.064814815,0,0,0,,0,100,100,127,1,,,,
,,,,,,8225dfdc5965dd4c3116192a,66a626ef09d4e21e1a8894ec,67376807b518710ec6ca16aa,2024-11-15_12h30.53.810,Tarea de género gramatical,2024.2.2,Win32,74.96251874,,,,,,,,,,,,,,,,,,,,,,,,402.57,403.597,a,1,[],[],[],[],[],[],[],0.361,1,403.597,404.091,,,,,,1235,MAS,AGR,150,montón,el,l,0.361,,404.092,404.092,0.391666667,-0.064814815,0,0,0,,0,101,101,334,1,,,,
,,,,,,8225dfdc5965dd4c3116192a,66a626ef09d4e21e1a8894ec,67376807b518710ec6ca16aa,2024-11-15_12h30.53.810,Tarea de género gramatical,2024.2.2,Win32,74.96251874,,,,,,,,,,,,,,,,,,,,,,,,404.093,405.185,l,1,[],[],[],[],[],[],[],0.432,1,405.185,405.678,,,,,,1093,FEM,DIS,150,bolsa,el,a,0.432,,405.678,405.678,0.391666667,-0.064814815,0,0,0,,0,102,102,192,1,,,,
,,,,,,8225dfdc5965dd4c3116192a,66a626ef09d4e21e1a8894ec,67376807b518710ec6ca16aa,2024-11-15_12h30.53.810,Tarea de género gramatical,2024.2.2,Win32,74.96251874,,,,,,,,,,,,,,,,,,,,,,,,405.678,406.932,l,1,[],[],[],[],[],[],[],0.59,1,406.932,407.425,,,,,,931,FEM,DIS,150,edad,el,a,0.59,,407.425,407.425,0.391666667,-0.064814815,0,0,0,,0,103,103,30,1,,,,
,,,,,,8225dfdc5965dd4c3116192a,66a626ef09d4e21e1a8894ec,67376807b518710ec6ca16aa,2024-11-15_12h30.53.810,Tarea de género gramatical,2024.2.2,Win32,74.96251874,,,,,,,,,,,,,,,,,,,,,,,,407.426,408.479,l,1,[],[],[],[],[],[],[],0.387,1,408.479,408.972,,,,,,1010,FEM,AGR,150,rosa,la,a,0.387,,408.972,408.972,0.391666667,-0.064814815,0,0,0,,0,104,104,109,1,,,,
,,,,,,8225dfdc5965dd4c3116192a,66a626ef09d4e21e1a8894ec,67376807b518710ec6ca16aa,2024-11-15_12h30.53.810,Tarea de género gramatical,2024.2.2,Win32,74.96251874,,,,,,,,,,,,,,,,,,,,,,,,408.974,410.08,a,1,[],[],[],[],[],[],[],0.441,1,410.08,410.573,,,,,,1217,MAS,AGR,150,número,el,l,0.441,,410.573,410.574,0.391666667,-0.064814815,0,0,0,,0,105,105,316,1,,,,
,,,,,,8225dfdc5965dd4c3116192a,66a626ef09d4e21e1a8894ec,67376807b518710ec6ca16aa,2024-11-15_12h30.53.810,Tarea de género gramatical,2024.2.2,Win32,74.96251874,,,,,,,,,,,,,,,,,,,,,,,,410.574,411.92,a,1,[],[],[],[],[],[],[],0.686,1,411.92,412.413,,,,,,1030,MAS,DIS,150,yate,la,l,0.686,,412.413,412.414,0.391666667,-0.064814815,0,0,0,,0,106,106,129,1,,,,
,,,,,,8225dfdc5965dd4c3116192a,66a626ef09d4e21e1a8894ec,67376807b518710ec6ca16aa,2024-11-15_12h30.53.810,Tarea de género gramatical,2024.2.2,Win32,74.96251874,,,,,,,,,,,,,,,,,,,,,,,,412.414,413.454,l,1,[],[],[],[],[],[],[],0.381,1,413.455,413.948,,,,,,957,FEM,CON,150,moda,,a,0.381,,413.948,413.948,0.391666667,-0.064814815,0,0,0,,0,107,107,56,1,,,,
,,,,,,8225dfdc5965dd4c3116192a,66a626ef09d4e21e1a8894ec,67376807b518710ec6ca16aa,2024-11-15_12h30.53.810,Tarea de género gramatical,2024.2.2,Win32,74.96251874,,,,,,,,,,,,,,,,,,,,,,,,413.948,415.175,a,1,[],[],[],[],[],[],[],0.56,1,415.175,415.668,,,,,,1170,MAS,CON,150,queso,,l,0.56,,415.668,415.668,0.391666667,-0.064814815,0,0,0,,0,108,108,269,1,,,,
,,,,,,8225dfdc5965dd4c3116192a,66a626ef09d4e21e1a8894ec,67376807b518710ec6ca16aa,2024-11-15_12h30.53.810,Tarea de género gramatical,2024.2.2,Win32,74.96251874,,,,,,,,,,,,,,,,,,,,,,,,415.669,416.695,l,0,[],[],[],[],[],[],[],0.369,0,416.696,417.189,,,,,,1044,MAS,CON,150,amor,,l,0.369,,417.189,417.189,0.391666667,-0.064814815,0,0,0,,0,109,109,143,1,,,,
,,,,,,8225dfdc5965dd4c3116192a,66a626ef09d4e21e1a8894ec,67376807b518710ec6ca16aa,2024-11-15_12h30.53.810,Tarea de género gramatical,2024.2.2,Win32,74.96251874,,,,,,,,,,,,,,,,,,,,,,,,417.189,418.296,a,1,[],[],[],[],[],[],[],0.446,1,418.296,418.79,,,,,,1001,MAS,AGR,150,giro,el,l,0.446,,418.79,418.791,0.391666667,-0.064814815,0,0,0,,0,110,110,100,1,,,,
,,,,,,8225dfdc5965dd4c3116192a,66a626ef09d4e21e1a8894ec,67376807b518710ec6ca16aa,2024-11-15_12h30.53.810,Tarea de género gramatical,2024.2.2,Win32,74.96251874,,,,,,,,,,,,,,,,,,,,,,,,418.791,420.004,a,1,[],[],[],[],[],[],[],0.551,1,420.004,420.497,,,,,,1228,MAS,DIS,150,asunto,la,l,0.551,,420.497,420.497,0.391666667,-0.064814815,0,0,0,,0,111,111,327,1,,,,
,,,,,,8225dfdc5965dd4c3116192a,66a626ef09d4e21e1a8894ec,67376807b518710ec6ca16aa,2024-11-15_12h30.53.810,Tarea de género gramatical,2024.2.2,Win32,74.96251874,,,,,,,,,,,,,,,,,,,,,,,,420.497,421.497,a,1,[],[],[],[],[],[],[],0.339,1,421.497,421.991,,,,,,1296,MAS,CON,150,tesoro,,l,0.339,,421.991,421.991,0.391666667,-0.064814815,0,0,0,,0,112,112,395,1,,,,
,,,,,,8225dfdc5965dd4c3116192a,66a626ef09d4e21e1a8894ec,67376807b518710ec6ca16aa,2024-11-15_12h30.53.810,Tarea de género gramatical,2024.2.2,Win32,74.96251874,,,,,,,,,,,,,,,,,,,,,,,,421.992,423.071,a,1,[],[],[],[],[],[],[],0.415,1,423.071,423.565,,,,,,1222,MAS,DIS,150,minuto,la,l,0.415,,423.565,423.565,0.391666667,-0.064814815,0,0,0,,0,113,113,321,1,,,,
,,,,,,8225dfdc5965dd4c3116192a,66a626ef09d4e21e1a8894ec,67376807b518710ec6ca16aa,2024-11-15_12h30.53.810,Tarea de género gramatical,2024.2.2,Win32,74.96251874,,,,,,,,,,,,,,,,,,,,,,,,423.566,424.618,l,1,[],[],[],[],[],[],[],0.392,1,424.618,425.112,,,,,,1196,FEM,AGR,150,feria,la,a,0.392,,425.113,425.113,0.391666667,-0.064814815,0,0,0,,0,114,114,295,1,,,,
,,,,,,8225dfdc5965dd4c3116192a,66a626ef09d4e21e1a8894ec,67376807b518710ec6ca16aa,2024-11-15_12h30.53.810,Tarea de género gramatical,2024.2.2,Win32,74.96251874,,,,,,,,,,,,,,,,,,,,,,,,425.114,426.206,a,1,[],[],[],[],[],[],[],0.426,1,426.206,426.699,,,,,,1144,MAS,DIS,150,hielo,la,l,0.426,,426.699,426.699,0.391666667,-0.064814815,0,0,0,,0,115,115,243,1,,,,
,,,,,,8225dfdc5965dd4c3116192a,66a626ef09d4e21e1a8894ec,67376807b518710ec6ca16aa,2024-11-15_12h30.53.810,Tarea de género gramatical,2024.2.2,Win32,74.96251874,,,,,,,,,,,,,,,,,,,,,,,,426.7,427.859,a,1,[],[],[],[],[],[],[],0.503,1,427.859,428.353,,,,,,1270,MAS,DIS,150,seguro,la,l,0.503,,428.353,428.353,0.391666667,-0.064814815,0,0,0,,0,116,116,369,1,,,,
,,,,,,8225dfdc5965dd4c3116192a,66a626ef09d4e21e1a8894ec,67376807b518710ec6ca16aa,2024-11-15_12h30.53.810,Tarea de género gramatical,2024.2.2,Win32,74.96251874,,,,,,,,,,,,,,,,,,,,,,,,428.353,429.661,l,1,[],[],[],[],[],[],[],0.649,1,429.661,430.153,,,,,,998,FEM,AGR,150,fuga,la,a,0.649,,430.154,430.154,0.391666667,-0.064814815,0,0,0,,0,117,117,97,1,,,,
,,,,,,8225dfdc5965dd4c3116192a,66a626ef09d4e21e1a8894ec,67376807b518710ec6ca16aa,2024-11-15_12h30.53.810,Tarea de género gramatical,2024.2.2,Win32,74.96251874,,,,,,,,,,,,,,,,,,,,,,,,430.156,431.247,l,1,[],[],[],[],[],[],[],0.427,1,431.247,431.741,,,,,,903,FEM,CON,150,cosa,,a,0.427,,431.741,431.741,0.391666667,-0.064814815,0,0,0,,0,118,118,2,1,,,,
,,,,,,8225dfdc5965dd4c3116192a,66a626ef09d4e21e1a8894ec,67376807b518710ec6ca16aa,2024-11-15_12h30.53.810,Tarea de género gramatical,2024.2.2,Win32,74.96251874,,,,,,,,,,,,,,,,,,,,,,,,431.742,432.781,a,0,[],[],[],[],[],[],[],0.382,0,432.782,433.275,,,,,,1219,FEM,DIS,150,sangre,el,a,0.382,,433.276,433.277,0.391666667,-0.064814815,0,0,0,,0,119,119,318,1,,,,
,,,,,,8225dfdc5965dd4c3116192a,66a626ef09d4e21e1a8894ec,67376807b518710ec6ca16aa,2024-11-15_12h30.53.810,Tarea de género gramatical,2024.2.2,Win32,74.96251874,,,,,,,,,,,,,,,,,,,,,,,,433.277,434.409,a,1,[],[],[],[],[],[],[],0.472,1,434.41,434.902,,,,,,1200,MAS,CON,150,túnel,,l,0.472,,434.902,434.903,0.391666667,-0.064814815,0,0,0,,0,120,120,299,1,,,,
,,,,,,8225dfdc5965dd4c3116192a,66a626ef09d4e21e1a8894ec,67376807b518710ec6ca16aa,2024-11-15_12h30.53.810,Tarea de género gramatical,2024.2.2,Win32,74.96251874,,,,,,,,,,,,,,,,,,,,,,,,434.903,436.197,l,1,[],[],[],[],[],[],[],0.63,1,436.197,436.689,,,,,,1051,FEM,DIS,150,noche,el,a,0.63,,436.689,436.69,0.391666667,-0.064814815,0,0,0,,0,121,121,150,1,,,,
,,,,,,8225dfdc5965dd4c3116192a,66a626ef09d4e21e1a8894ec,67376807b518710ec6ca16aa,2024-11-15_12h30.53.810,Tarea de género gramatical,2024.2.2,Win32,74.96251874,,,,,,,,,,,,,,,,,,,,,,,,436.69,438.197,a,1,[],[],[],[],[],[],[],0.842,1,438.197,438.691,,,,,,1324,MAS,DIS,150,rastro,la,l,0.842,,438.691,438.691,0.391666667,-0.064814815,0,0,0,,0,122,122,423,1,,,,
,,,,,,8225dfdc5965dd4c3116192a,66a626ef09d4e21e1a8894ec,67376807b518710ec6ca16aa,2024-11-15_12h30.53.810,Tarea de género gramatical,2024.2.2,Win32,74.96251874,,,,,,,,,,,,,,,,,,,,,,,,438.692,439.771,l,1,[],[],[],[],[],[],[],0.427,1,439.771,440.264,,,,,,1304,FEM,AGR,150,gloria,la,a,0.427,,440.264,440.266,0.391666667,-0.064814815,0,0,0,,0,123,123,403,1,,,,
,,,,,,8225dfdc5965dd4c3116192a,66a626ef09d4e21e1a8894ec,67376807b518710ec6ca16aa,2024-11-15_12h30.53.810,Tarea de género gramatical,2024.2.2,Win32,74.96251874,,,,,,,,,,,,,,,,,,,,,,,,440.266,441.398,a,0,[],[],[],[],[],[],[],0.476,0,441.398,441.893,,,,,,1309,FEM,DIS,150,moneda,el,a,0.476,,441.893,441.893,0.391666667,-0.064814815,0,0,0,,0,124,124,408,1,,,,
,,,,,,8225dfdc5965dd4c3116192a,66a626ef09d4e21e1a8894ec,67376807b518710ec6ca16aa,2024-11-15_12h30.53.810,Tarea de género gramatical,2024.2.2,Win32,74.96251874,,,,,,,,,,,,,,,,,,,,,,,,441.895,443.012,l,1,[],[],[],[],[],[],[],0.462,1,443.012,443.505,,,,,,949,FEM,DIS,150,piel,el,a,0.462,,443.505,443.505,0.391666667,-0.064814815,0,0,0,,0,125,125,48,1,,,,
,,,,,,8225dfdc5965dd4c3116192a,66a626ef09d4e21e1a8894ec,67376807b518710ec6ca16aa,2024-11-15_12h30.53.810,Tarea de género gramatical,2024.2.2,Win32,74.96251874,,,,,,,,,,,,,,,,,,,,,,,,443.506,444.692,a,1,[],[],[],[],[],[],[],0.529,1,444.692,445.186,,,,,,1289,MAS,AGR,150,tamaño,el,l,0.529,,445.186,445.186,0.391666667,-0.064814815,0,0,0,,0,126,126,388,1,,,,
,,,,,,8225dfdc5965dd4c3116192a,66a626ef09d4e21e1a8894ec,67376807b518710ec6ca16aa,2024-11-15_12h30.53.810,Tarea de género gramatical,2024.2.2,Win32,74.96251874,,,,,,,,,,,,,,,,,,,,,,,,445.186,446.414,a,1,[],[],[],[],[],[],[],0.57,1,446.414,446.907,,,,,,1079,MAS,AGR,150,viaje,el,l,0.57,,446.907,446.907,0.391666667,-0.064814815,0,0,0,,0,127,127,178,1,,,,
,,,,,,8225dfdc5965dd4c3116192a,66a626ef09d4e21e1a8894ec,67376807b518710ec6ca16aa,2024-11-15_12h30.53.810,Tarea de género gramatical,2024.2.2,Win32,74.96251874,,,,,,,,,,,,,,,,,,,,,,,,446.908,448.16,a,1,[],[],[],[],[],[],[],0.593,1,448.16,448.654,,,,,,1080,MAS,CON,150,fuego,,l,0.593,,448.654,448.655,0.391666667,-0.064814815,0,0,0,,0,128,128,179,1,,,,
,,,,,,8225dfdc5965dd4c3116192a,66a626ef09d4e21e1a8894ec,67376807b518710ec6ca16aa,2024-11-15_12h30.53.810,Tarea de género gramatical,2024.2.2,Win32,74.96251874,,,,,,,,,,,,,,,,,,,,,,,,448.655,449.801,a,1,[],[],[],[],[],[],[],0.484,1,449.801,450.295,,,,,,1042,MAS,DIS,150,lodo,la,l,0.484,,450.295,450.295,0.391666667,-0.064814815,0,0,0,,0,129,129,141,1,,,,
,,,,,,8225dfdc5965dd4c3116192a,66a626ef09d4e21e1a8894ec,67376807b518710ec6ca16aa,2024-11-15_12h30.53.810,Tarea de género gramatical,2024.2.2,Win32,74.96251874,,,,,,,,,,,,,,,,,,,,,,,,450.295,451.308,a,1,[],[],[],[],[],[],[],0.356,1,451.308,451.802,,,,,,1265,MAS,AGR,150,código,el,l,0.356,,451.802,451.802,0.391666667,-0.064814815,0,0,0,,0,130,130,364,1,,,,
,,,,,,8225dfdc5965dd4c3116192a,66a626ef09d4e21e1a8894ec,67376807b518710ec6ca16aa,2024-11-15_12h30.53.810,Tarea de género gramatical,2024.2.2,Win32,74.96251874,,,,,,,,,,,,,,,,,,,,,,,,451.802,452.989,l,1,[],[],[],[],[],[],[],0.529,1,452.989,453.483,,,,,,1202,FEM,AGR,150,cabeza,la,a,0.529,,453.483,453.483,0.391666667,-0.064814815,0,0,0,,0,131,131,301,1,,,,
,,,,,,8225dfdc5965dd4c3116192a,66a626ef09d4e21e1a8894ec,67376807b518710ec6ca16aa,2024-11-15_12h30.53.810,Tarea de género gramatical,2024.2.2,Win32,74.96251874,,,,,,,,,,,,,,,,,,,,,,,,453.483,454.669,a,1,[],[],[],[],[],[],[],0.521,1,454.669,455.163,,,,,,1332,MAS,CON,150,océano,,l,0.521,,455.163,455.164,0.391666667,-0.064814815,0,0,0,,0,132,132,431,1,,,,
,,,,,,8225dfdc5965dd4c3116192a,66a626ef09d4e21e1a8894ec,67376807b518710ec6ca16aa,2024-11-15_12h30.53.810,Tarea de género gramatical,2024.2.2,Win32,74.96251874,,,,,,,,,,,,,,,,,,,,,,,,455.165,456.297,l,1,[],[],[],[],[],[],[],0.47,1,456.297,456.79,,,,,,1099,FEM,DIS,150,nariz,el,a,0.47,,456.79,456.79,0.391666667,-0.064814815,0,0,0,,0,133,133,198,1,,,,
,,,,,,8225dfdc5965dd4c3116192a,66a626ef09d4e21e1a8894ec,67376807b518710ec6ca16aa,2024-11-15_12h30.53.810,Tarea de género gramatical,2024.2.2,Win32,74.96251874,,,,,,,,,,,,,,,,,,,,,,,,456.791,457.951,l,1,[],[],[],[],[],[],[],0.501,1,457.951,458.444,,,,,,1244,FEM,AGR,150,pareja,la,a,0.501,,458.445,458.445,0.391666667,-0.064814815,0,0,0,,0,134,134,343,1,,,,
,,,,,,8225dfdc5965dd4c3116192a,66a626ef09d4e21e1a8894ec,67376807b518710ec6ca16aa,2024-11-15_12h30.53.810,Tarea de género gramatical,2024.2.2,Win32,74.96251874,,,,,,,,,,,,,,,,,,,,,,,,458.445,459.485,l,1,[],[],[],[],[],[],[],0.375,1,459.485,459.979,,,,,,1076,FEM,AGR,150,línea,la,a,0.375,,459.979,459.979,0.391666667,-0.064814815,0,0,0,,0,135,135,175,1,,,,
,,,,,,8225dfdc5965dd4c3116192a,66a626ef09d4e21e1a8894ec,67376807b518710ec6ca16aa,2024-11-15_12h30.53.810,Tarea de género gramatical,2024.2.2,Win32,74.96251874,,,,,,,,,,,,,,,,,,,,,,,,459.979,461.219,l,1,[],[],[],[],[],[],[],0.577,1,461.219,461.713,,,,,,1045,FEM,DIS,150,bota,el,a,0.577,,461.713,461.713,0.391666667,-0.064814815,0,0,0,,0,136,136,144,1,,,,
,,,,,,8225dfdc5965dd4c3116192a,66a626ef09d4e21e1a8894ec,67376807b518710ec6ca16aa,2024-11-15_12h30.53.810,Tarea de género gramatical,2024.2.2,Win32,74.96251874,,,,,,,,,,,,,,,,,,,,,,,,461.713,462.913,a,1,[],[],[],[],[],[],[],0.54,1,462.913,463.406,,,,,,1331,MAS,AGR,150,veneno,el,l,0.54,,463.407,463.408,0.391666667,-0.064814815,0,0,0,,0,137,137,430,1,,,,
,,,,,,8225dfdc5965dd4c3116192a,66a626ef09d4e21e1a8894ec,67376807b518710ec6ca16aa,2024-11-15_12h30.53.810,Tarea de género gramatical,2024.2.2,Win32,74.96251874,,,,,,,,,,,,,,,,,,,,,,,,463.409,464.527,a,1,[],[],[],[],[],[],[],0.453,1,464.527,465.02,,,,,,929,MAS,AGR,150,frío,el,l,0.453,,465.02,465.02,0.391666667,-0.064814815,0,0,0,,0,138,138,28,1,,,,
,,,,,,8225dfdc5965dd4c3116192a,66a626ef09d4e21e1a8894ec,67376807b518710ec6ca16aa,2024-11-15_12h30.53.810,Tarea de género gramatical,2024.2.2,Win32,74.96251874,,,,,,,,,,,,,,,,,,,,,,,,465.021,466.034,l,1,[],[],[],[],[],[],[],0.359,1,466.034,466.527,,,,,,1287,FEM,CON,150,página,,a,0.359,,466.527,466.527,0.391666667,-0.064814815,0,0,0,,0,139,139,386,1,,,,
,,,,,,8225dfdc5965dd4c3116192a,66a626ef09d4e21e1a8894ec,67376807b518710ec6ca16aa,2024-11-15_12h30.53.810,Tarea de género gramatical,2024.2.2,Win32,74.96251874,,,,,,,,,,,,,,,,,,,,,,,,466.528,467.808,a,1,[],[],[],[],[],[],[],0.62,1,467.808,468.301,,,,,,948,MAS,CON,150,loco,,l,0.62,,468.301,468.301,0.391666667,-0.064814815,0,0,0,,0,140,140,47,1,,,,
,,,,,,8225dfdc5965dd4c3116192a,66a626ef09d4e21e1a8894ec,67376807b518710ec6ca16aa,2024-11-15_12h30.53.810,Tarea de género gramatical,2024.2.2,Win32,74.96251874,,,,,,,,,,,,,,,,,,,,,,,,468.302,469.355,l,1,[],[],[],[],[],[],[],0.397,1,469.355,469.85,,,,,,1149,FEM,CON,150,crema,,a,0.397,,469.85,469.851,0.391666667,-0.064814815,0,0,0,,0,141,141,248,1,,,,
,,,,,,8225dfdc5965dd4c3116192a,66a626ef09d4e21e1a8894ec,67376807b518710ec6ca16aa,2024-11-15_12h30.53.810,Tarea de género gramatical,2024.2.2,Win32,74.96251874,,,,,,,,,,,,,,,,,,,,,,,,469.851,470.836,l,1,[],[],[],[],[],[],[],0.331,1,470.836,471.33,,,,,,1190,FEM,AGR,150,cabra,la,a,0.331,,471.33,471.33,0.391666667,-0.064814815,0,0,0,,0,142,142,289,1,,,,
,,,,,,8225dfdc5965dd4c3116192a,66a626ef09d4e21e1a8894ec,67376807b518710ec6ca16aa,2024-11-15_12h30.53.810,Tarea de género gramatical,2024.2.2,Win32,74.96251874,,,,,,,,,,,,,,,,,,,,,,,,471.33,472.422,a,0,[],[],[],[],[],[],[],0.433,0,472.423,472.916,,,,,,1207,FEM,DIS,150,suerte,el,a,0.433,,472.916,472.916,0.391666667,-0.064814815,0,0,0,,0,143,143,306,1,,,,
,,,,,,8225dfdc5965dd4c3116192a,66a626ef09d4e21e1a8894ec,67376807b518710ec6ca16aa,2024-11-15_12h30.53.810,Tarea de género gramatical,2024.2.2,Win32,74.96251874,,,,,,,,,,,,,,,,,,,,,,,,472.917,473.997,a,1,[],[],[],[],[],[],[],0.423,1,473.998,474.49,,,,,,924,MAS,CON,150,voto,,l,0.423,,474.49,474.49,0.391666667,-0.064814815,0,0,0,,0,144,144,23,1,,,,
,,,,,,8225dfdc5965dd4c3116192a,66a626ef09d4e21e1a8894ec,67376807b518710ec6ca16aa,2024-11-15_12h30.53.810,Tarea de género gramatical,2024.2.2,Win32,74.96251874,,,,,,,,,,,,,,,,,,,,,,,,474.491,475.491,l,1,[],[],[],[],[],[],[],0.344,1,475.491,475.984,,,,,,902,FEM,AGR,150,vida,la,a,0.344,,475.984,475.984,0.391666667,-0.064814815,0,0,0,,0,145,145,1,1,,,,
,,,,,,8225dfdc5965dd4c3116192a,66a626ef09d4e21e1a8894ec,67376807b518710ec6ca16aa,2024-11-15_12h30.53.810,Tarea de género gramatical,2024.2.2,Win32,74.96251874,,,,,,,,,,,,,,,,,,,,,,,,475.985,477.198,a,1,[],[],[],[],[],[],[],0.546,1,477.198,477.692,,,,,,1326,MAS,CON,150,pánico,,l,0.546,,477.692,477.693,0.391666667,-0.064814815,0,0,0,,0,146,146,425,1,,,,
,,,,,,8225dfdc5965dd4c3116192a,66a626ef09d4e21e1a8894ec,67376807b518710ec6ca16aa,2024-11-15_12h30.53.810,Tarea de género gramatical,2024.2.2,Win32,74.96251874,,,,,,,,,,,,,,,,,,,,,,,,477.693,478.932,a,1,[],[],[],[],[],[],[],0.574,1,478.932,479.425,,,,,,964,MAS,DIS,150,saco,la,l,0.574,,479.426,479.426,0.391666667,-0.064814815,0,0,0,,0,147,147,63,1,,,,
,,,,,,8225dfdc5965dd4c3116192a,66a626ef09d4e21e1a8894ec,67376807b518710ec6ca16aa,2024-11-15_12h30.53.810,Tarea de género gramatical,2024.2.2,Win32,74.96251874,,,,,,,,,,,,,,,,,,,,,,,,479.426,480.519,l,1,[],[],[],[],[],[],[],0.433,1,480.519,481.013,,,,,,961,FEM,DIS,150,ruta,el,a,0.433,,481.013,481.013,0.391666667,-0.064814815,0,0,0,,0,148,148,60,1,,,,
,,,,,,8225dfdc5965dd4c3116192a,66a626ef09d4e21e1a8894ec,67376807b518710ec6ca16aa,2024-11-15_12h30.53.810,Tarea de género gramatical,2024.2.2,Win32,74.96251874,,,,,,,,,,,,,,,,,,,,,,,,481.013,482.213,a,1,[],[],[],[],[],[],[],0.542,1,482.214,482.707,,,,,,1132,MAS,DIS,150,calor,la,l,0.542,,482.707,482.707,0.391666667,-0.064814815,0,0,0,,0,149,149,231,1,,,,
,,,,,,8225dfdc5965dd4c3116192a,66a626ef09d4e21e1a8894ec,67376807b518710ec6ca16aa,2024-11-15_12h30.53.810,Tarea de género gramatical,2024.2.2,Win32,74.96251874,,,,,,,,,,,,,,,,,,,,,,,,482.707,483.787,l,1,[],[],[],[],[],[],[],0.415,1,483.787,484.281,,,,,,1215,FEM,CON,150,manera,,a,0.415,,484.281,620.572,0.390740741,-0.067592593,0,0,0,space,0,150,150,314,1,136.282,,,
,,,,,,8225dfdc5965dd4c3116192a,66a626ef09d4e21e1a8894ec,67376807b518710ec6ca16aa,2024-11-15_12h30.53.810,Tarea de género gramatical,2024.2.2,Win32,74.96251874,,,,,,,,,,,,,,,,,,,,,,,,620.574,621.8,a,1,[],[],[],[],[],[],[],0.566,1,621.8,622.293,,,,,,1026,MAS,CON,150,lazo,,l,0.566,,622.293,622.293,0.390740741,-0.067592593,0,0,0,,0,151,151,125,1,,,,
,,,,,,8225dfdc5965dd4c3116192a,66a626ef09d4e21e1a8894ec,67376807b518710ec6ca16aa,2024-11-15_12h30.53.810,Tarea de género gramatical,2024.2.2,Win32,74.96251874,,,,,,,,,,,,,,,,,,,,,,,,622.293,623.333,a,1,[],[],[],[],[],[],[],0.382,1,623.333,623.827,,,,,,1218,MAS,CON,150,pueblo,,l,0.382,,623.827,623.827,0.390740741,-0.067592593,0,0,0,,0,152,152,317,1,,,,
,,,,,,8225dfdc5965dd4c3116192a,66a626ef09d4e21e1a8894ec,67376807b518710ec6ca16aa,2024-11-15_12h30.53.810,Tarea de género gramatical,2024.2.2,Win32,74.96251874,,,,,,,,,,,,,,,,,,,,,,,,623.827,625.134,a,1,[],[],[],[],[],[],[],0.641,1,625.134,625.627,,,,,,910,MAS,DIS,150,niño,la,l,0.641,,625.627,625.627,0.390740741,-0.067592593,0,0,0,,0,153,153,9,1,,,,
,,,,,,8225dfdc5965dd4c3116192a,66a626ef09d4e21e1a8894ec,67376807b518710ec6ca16aa,2024-11-15_12h30.53.810,Tarea de género gramatical,2024.2.2,Win32,74.96251874,,,,,,,,,,,,,,,,,,,,,,,,625.628,626.694,a,0,[],[],[],[],[],[],[],0.4,0,626.695,627.188,,,,,,1119,FEM,CON,150,costa,,a,0.4,,627.188,627.188,0.390740741,-0.067592593,0,0,0,,0,154,154,218,1,,,,
,,,,,,8225dfdc5965dd4c3116192a,66a626ef09d4e21e1a8894ec,67376807b518710ec6ca16aa,2024-11-15_12h30.53.810,Tarea de género gramatical,2024.2.2,Win32,74.96251874,,,,,,,,,,,,,,,,,,,,,,,,627.188,628.455,a,1,[],[],[],[],[],[],[],0.606,1,628.456,628.948,,,,,,1204,MAS,DIS,150,tiempo,la,l,0.606,,628.95,628.951,0.390740741,-0.067592593,0,0,0,,0,155,155,303,1,,,,
,,,,,,8225dfdc5965dd4c3116192a,66a626ef09d4e21e1a8894ec,67376807b518710ec6ca16aa,2024-11-15_12h30.53.810,Tarea de género gramatical,2024.2.2,Win32,74.96251874,,,,,,,,,,,,,,,,,,,,,,,,628.952,630.002,l,1,[],[],[],[],[],[],[],0.384,1,630.003,630.495,,,,,,1088,FEM,AGR,150,bomba,la,a,0.384,,630.495,630.495,0.390740741,-0.067592593,0,0,0,,0,156,156,187,1,,,,
,,,,,,8225dfdc5965dd4c3116192a,66a626ef09d4e21e1a8894ec,67376807b518710ec6ca16aa,2024-11-15_12h30.53.810,Tarea de género gramatical,2024.2.2,Win32,74.96251874,,,,,,,,,,,,,,,,,,,,,,,,630.496,631.562,a,1,[],[],[],[],[],[],[],0.411,1,631.563,632.056,,,,,,1158,MAS,CON,150,polvo,,l,0.411,,632.056,632.056,0.390740741,-0.067592593,0,0,0,,0,157,157,257,1,,,,
,,,,,,8225dfdc5965dd4c3116192a,66a626ef09d4e21e1a8894ec,67376807b518710ec6ca16aa,2024-11-15_12h30.53.810,Tarea de género gramatical,2024.2.2,Win32,74.96251874,,,,,,,,,,,,,,,,,,,,,,,,632.058,633.11,l,1,[],[],[],[],[],[],[],0.387,1,633.11,633.603,,,,,,1034,FEM,AGR,150,rama,la,a,0.387,,633.603,633.603,0.390740741,-0.067592593,0,0,0,,0,158,158,133,1,,,,
,,,,,,8225dfdc5965dd4c3116192a,66a626ef09d4e21e1a8894ec,67376807b518710ec6ca16aa,2024-11-15_12h30.53.810,Tarea de género gramatical,2024.2.2,Win32,74.96251874,,,,,,,,,,,,,,,,,,,,,,,,633.604,634.763,l,1,[],[],[],[],[],[],[],0.494,1,634.764,635.257,,,,,,1243,FEM,DIS,150,trampa,el,a,0.494,,635.257,635.258,0.390740741,-0.067592593,0,0,0,,0,159,159,342,1,,,,
,,,,,,8225dfdc5965dd4c3116192a,66a626ef09d4e21e1a8894ec,67376807b518710ec6ca16aa,2024-11-15_12h30.53.810,Tarea de género gramatical,2024.2.2,Win32,74.96251874,,,,,,,,,,,,,,,,,,,,,,,,635.259,636.419,l,1,[],[],[],[],[],[],[],0.496,1,636.419,636.911,,,,,,962,FEM,AGR,150,sopa,la,a,0.496,,636.911,636.911,0.390740741,-0.067592593,0,0,0,,0,160,160,61,1,,,,
,,,,,,8225dfdc5965dd4c3116192a,66a626ef09d4e21e1a8894ec,67376807b518710ec6ca16aa,2024-11-15_12h30.53.810,Tarea de género gramatical,2024.2.2,Win32,74.96251874,,,,,,,,,,,,,,,,,,,,,,,,636.912,638.018,l,1,[],[],[],[],[],[],[],0.444,1,638.018,638.512,,,,,,1227,FEM,CON,150,tienda,,a,0.444,,638.512,638.512,0.390740741,-0.067592593,0,0,0,,0,161,161,326,1,,,,
,,,,,,8225dfdc5965dd4c3116192a,66a626ef09d4e21e1a8894ec,67376807b518710ec6ca16aa,2024-11-15_12h30.53.810,Tarea de género gramatical,2024.2.2,Win32,74.96251874,,,,,,,,,,,,,,,,,,,,,,,,638.512,639.752,l,1,[],[],[],[],[],[],[],0.578,1,639.752,640.246,,,,,,1059,FEM,CON,150,clase,,a,0.578,,640.246,640.246,0.390740741,-0.067592593,0,0,0,,0,162,162,158,1,,,,
,,,,,,8225dfdc5965dd4c3116192a,66a626ef09d4e21e1a8894ec,67376807b518710ec6ca16aa,2024-11-15_12h30.53.810,Tarea de género gramatical,2024.2.2,Win32,74.96251874,,,,,,,,,,,,,,,,,,,,,,,,640.246,641.633,l,1,[],[],[],[],[],[],[],0.723,1,641.633,642.127,,,,,,1345,FEM,DIS,150,bondad,el,a,0.723,,642.127,642.127,0.390740741,-0.067592593,0,0,0,,0,163,163,444,1,,,,
,,,,,,8225dfdc5965dd4c3116192a,66a626ef09d4e21e1a8894ec,67376807b518710ec6ca16aa,2024-11-15_12h30.53.810,Tarea de género gramatical,2024.2.2,Win32,74.96251874,,,,,,,,,,,,,,,,,,,,,,,,642.127,643.274,a,1,[],[],[],[],[],[],[],0.492,1,643.274,643.767,,,,,,1241,MAS,AGR,150,precio,el,l,0.492,,643.768,643.768,0.390740741,-0.067592593,0,0,0,,0,164,164,340,1,,,,
,,,,,,8225dfdc5965dd4c3116192a,66a626ef09d4e21e1a8894ec,67376807b518710ec6ca16aa,2024-11-15_12h30.53.810,Tarea de género gramatical,2024.2.2,Win32,74.96251874,,,,,,,,,,,,,,,,,,,,,,,,643.768,644.835,l,0,[],[],[],[],[],[],[],0.402,0,644.835,645.327,,,,,,1198,MAS,DIS,150,botón,la,l,0.402,,645.328,645.328,0.390740741,-0.067592593,0,0,0,,0,165,165,297,1,,,,
,,,,,,8225dfdc5965dd4c3116192a,66a626ef09d4e21e1a8894ec,67376807b518710ec6ca16aa,2024-11-15_12h30.53.810,Tarea de género gramatical,2024.2.2,Win32,74.96251874,,,,,,,,,,,,,,,,,,,,,,,,645.328,646.689,a,1,[],[],[],[],[],[],[],0.699,1,646.689,647.182,,,,,,970,MAS,DIS,150,palo,la,l,0.699,,647.182,647.182,0.390740741,-0.067592593,0,0,0,,0,166,166,69,1,,,,
,,,,,,8225dfdc5965dd4c3116192a,66a626ef09d4e21e1a8894ec,67376807b518710ec6ca16aa,2024-11-15_12h30.53.810,Tarea de género gramatical,2024.2.2,Win32,74.96251874,,,,,,,,,,,,,,,,,,,,,,,,647.182,648.449,a,1,[],[],[],[],[],[],[],0.605,1,648.449,648.942,,,,,,1018,MAS,DIS,150,baúl,la,l,0.605,,648.942,648.942,0.390740741,-0.067592593,0,0,0,,0,167,167,117,1,,,,
,,,,,,8225dfdc5965dd4c3116192a,66a626ef09d4e21e1a8894ec,67376807b518710ec6ca16aa,2024-11-15_12h30.53.810,Tarea de género gramatical,2024.2.2,Win32,74.96251874,,,,,,,,,,,,,,,,,,,,,,,,648.943,650.143,a,1,[],[],[],[],[],[],[],0.539,1,650.143,650.637,,,,,,1288,MAS,DIS,150,empleo,la,l,0.539,,650.637,650.638,0.390740741,-0.067592593,0,0,0,,0,168,168,387,1,,,,
,,,,,,8225dfdc5965dd4c3116192a,66a626ef09d4e21e1a8894ec,67376807b518710ec6ca16aa,2024-11-15_12h30.53.810,Tarea de género gramatical,2024.2.2,Win32,74.96251874,,,,,,,,,,,,,,,,,,,,,,,,650.638,651.717,l,1,[],[],[],[],[],[],[],0.414,1,651.717,652.211,,,,,,907,FEM,DIS,150,hora,el,a,0.414,,652.211,652.211,0.390740741,-0.067592593,0,0,0,,0,169,169,6,1,,,,
,,,,,,8225dfdc5965dd4c3116192a,66a626ef09d4e21e1a8894ec,67376807b518710ec6ca16aa,2024-11-15_12h30.53.810,Tarea de género gramatical,2024.2.2,Win32,74.96251874,,,,,,,,,,,,,,,,,,,,,,,,652.211,653.57,l,1,[],[],[],[],[],[],[],0.704,1,653.572,654.064,,,,,,969,FEM,CON,150,rata,,a,0.704,,654.064,654.064,0.390740741,-0.067592593,0,0,0,,0,170,170,68,1,,,,
,,,,,,8225dfdc5965dd4c3116192a,66a626ef09d4e21e1a8894ec,67376807b518710ec6ca16aa,2024-11-15_12h30.53.810,Tarea de género gramatical,2024.2.2,Win32,74.96251874,,,,,,,,,,,,,,,,,,,,,,,,654.065,655.238,a,1,[],[],[],[],[],[],[],0.513,1,655.238,655.733,,,,,,954,MAS,CON,150,humo,,l,0.513,,655.733,655.733,0.390740741,-0.067592593,0,0,0,,0,171,171,53,1,,,,
,,,,,,8225dfdc5965dd4c3116192a,66a626ef09d4e21e1a8894ec,67376807b518710ec6ca16aa,2024-11-15_12h30.53.810,Tarea de género gramatical,2024.2.2,Win32,74.96251874,,,,,,,,,,,,,,,,,,,,,,,,655.733,656.906,l,1,[],[],[],[],[],[],[],0.508,1,656.906,657.4,,,,,,1329,FEM,CON,150,fianza,,a,0.508,,657.4,657.4,0.390740741,-0.067592593,0,0,0,,0,172,172,428,1,,,,
,,,,,,8225dfdc5965dd4c3116192a,66a626ef09d4e21e1a8894ec,67376807b518710ec6ca16aa,2024-11-15_12h30.53.810,Tarea de género gramatical,2024.2.2,Win32,74.96251874,,,,,,,,,,,,,,,,,,,,,,,,657.4,658.559,a,1,[],[],[],[],[],[],[],0.5,1,658.559,659.053,,,,,,1258,MAS,DIS,150,motivo,la,l,0.5,,659.053,659.053,0.390740741,-0.067592593,0,0,0,,0,173,173,357,1,,,,
,,,,,,8225dfdc5965dd4c3116192a,66a626ef09d4e21e1a8894ec,67376807b518710ec6ca16aa,2024-11-15_12h30.53.810,Tarea de género gramatical,2024.2.2,Win32,74.96251874,,,,,,,,,,,,,,,,,,,,,,,,659.054,660.093,l,1,[],[],[],[],[],[],[],0.381,1,660.093,660.587,,,,,,997,FEM,DIS,150,capa,el,a,0.381,,660.587,660.587,0.390740741,-0.067592593,0,0,0,,0,174,174,96,1,,,,
,,,,,,8225dfdc5965dd4c3116192a,66a626ef09d4e21e1a8894ec,67376807b518710ec6ca16aa,2024-11-15_12h30.53.810,Tarea de género gramatical,2024.2.2,Win32,74.96251874,,,,,,,,,,,,,,,,,,,,,,,,660.587,661.735,a,1,[],[],[],[],[],[],[],0.489,1,661.735,662.228,,,,,,1266,MAS,CON,150,riesgo,,l,0.489,,662.228,662.228,0.390740741,-0.067592593,0,0,0,,0,175,175,365,1,,,,
,,,,,,8225dfdc5965dd4c3116192a,66a626ef09d4e21e1a8894ec,67376807b518710ec6ca16aa,2024-11-15_12h30.53.810,Tarea de género gramatical,2024.2.2,Win32,74.96251874,,,,,,,,,,,,,,,,,,,,,,,,662.23,663.534,l,1,[],[],[],[],[],[],[],0.646,1,663.535,664.028,,,,,,1135,FEM,DIS,150,torre,el,a,0.646,,664.028,664.028,0.390740741,-0.067592593,0,0,0,,0,176,176,234,1,,,,
,,,,,,8225dfdc5965dd4c3116192a,66a626ef09d4e21e1a8894ec,67376807b518710ec6ca16aa,2024-11-15_12h30.53.810,Tarea de género gramatical,2024.2.2,Win32,74.96251874,,,,,,,,,,,,,,,,,,,,,,,,664.029,665.042,l,1,[],[],[],[],[],[],[],0.357,1,665.042,665.536,,,,,,939,FEM,CON,150,luna,,a,0.357,,665.536,665.537,0.390740741,-0.067592593,0,0,0,,0,177,177,38,1,,,,
,,,,,,8225dfdc5965dd4c3116192a,66a626ef09d4e21e1a8894ec,67376807b518710ec6ca16aa,2024-11-15_12h30.53.810,Tarea de género gramatical,2024.2.2,Win32,74.96251874,,,,,,,,,,,,,,,,,,,,,,,,665.538,666.629,a,1,[],[],[],[],[],[],[],0.434,1,666.629,667.123,,,,,,934,MAS,DIS,150,gato,la,l,0.434,,667.123,667.123,0.390740741,-0.067592593,0,0,0,,0,178,178,33,1,,,,
,,,,,,8225dfdc5965dd4c3116192a,66a626ef09d4e21e1a8894ec,67376807b518710ec6ca16aa,2024-11-15_12h30.53.810,Tarea de género gramatical,2024.2.2,Win32,74.96251874,,,,,,,,,,,,,,,,,,,,,,,,667.123,668.377,a,1,[],[],[],[],[],[],[],0.59,1,668.377,668.87,,,,,,1187,MAS,AGR,150,plato,el,l,0.59,,668.87,668.87,0.390740741,-0.067592593,0,0,0,,0,179,179,286,1,,,,
,,,,,,8225dfdc5965dd4c3116192a,66a626ef09d4e21e1a8894ec,67376807b518710ec6ca16aa,2024-11-15_12h30.53.810,Tarea de género gramatical,2024.2.2,Win32,74.96251874,,,,,,,,,,,,,,,,,,,,,,,,668.871,670.178,a,1,[],[],[],[],[],[],[],0.644,1,670.178,670.671,,,,,,1138,MAS,DIS,150,norte,la,l,0.644,,670.671,670.671,0.390740741,-0.067592593,0,0,0,,0,180,180,237,1,,,,
,,,,,,8225dfdc5965dd4c3116192a,66a626ef09d4e21e1a8894ec,67376807b518710ec6ca16aa,2024-11-15_12h30.53.810,Tarea de género gramatical,2024.2.2,Win32,74.96251874,,,,,,,,,,,,,,,,,,,,,,,,670.671,672.071,a,1,[],[],[],[],[],[],[],0.741,1,672.071,672.565,,,,,,1006,MAS,DIS,150,test,la,l,0.741,,672.565,672.565,0.390740741,-0.067592593,0,0,0,,0,181,181,105,1,,,,
,,,,,,8225dfdc5965dd4c3116192a,66a626ef09d4e21e1a8894ec,67376807b518710ec6ca16aa,2024-11-15_12h30.53.810,Tarea de género gramatical,2024.2.2,Win32,74.96251874,,,,,,,,,,,,,,,,,,,,,,,,672.565,673.686,a,1,[],[],[],[],[],[],[],0.455,1,673.686,674.178,,,,,,1278,MAS,CON,150,pastel,,l,0.455,,674.179,674.179,0.390740741,-0.067592593,0,0,0,,0,182,182,377,1,,,,
,,,,,,8225dfdc5965dd4c3116192a,66a626ef09d4e21e1a8894ec,67376807b518710ec6ca16aa,2024-11-15_12h30.53.810,Tarea de género gramatical,2024.2.2,Win32,74.96251874,,,,,,,,,,,,,,,,,,,,,,,,674.18,675.272,l,1,[],[],[],[],[],[],[],0.439,1,675.272,675.766,,,,,,937,FEM,DIS,150,sala,el,a,0.439,,675.766,675.766,0.390740741,-0.067592593,0,0,0,,0,183,183,36,1,,,,
,,,,,,8225dfdc5965dd4c3116192a,66a626ef09d4e21e1a8894ec,67376807b518710ec6ca16aa,2024-11-15_12h30.53.810,Tarea de género gramatical,2024.2.2,Win32,74.96251874,,,,,,,,,,,,,,,,,,,,,,,,675.766,677.086,a,1,[],[],[],[],[],[],[],0.66,1,677.087,677.58,,,,,,905,MAS,AGR,150,tipo,el,l,0.66,,677.58,677.58,0.390740741,-0.067592593,0,0,0,,0,184,184,4,1,,,,
,,,,,,8225dfdc5965dd4c3116192a,66a626ef09d4e21e1a8894ec,67376807b518710ec6ca16aa,2024-11-15_12h30.53.810,Tarea de género gramatical,2024.2.2,Win32,74.96251874,,,,,,,,,,,,,,,,,,,,,,,,677.581,678.647,l,1,[],[],[],[],[],[],[],0.406,1,678.647,679.141,,,,,,1209,FEM,CON,150,esposa,,a,0.406,,679.141,679.141,0.390740741,-0.067592593,0,0,0,,0,185,185,308,1,,,,
,,,,,,8225dfdc5965dd4c3116192a,66a626ef09d4e21e1a8894ec,67376807b518710ec6ca16aa,2024-11-15_12h30.53.810,Tarea de género gramatical,2024.2.2,Win32,74.96251874,,,,,,,,,,,,,,,,,,,,,,,,679.141,680.381,a,1,[],[],[],[],[],[],[],0.581,1,680.381,680.875,,,,,,1247,MAS,AGR,150,cuello,el,l,0.581,,680.875,680.875,0.390740741,-0.067592593,0,0,0,,0,186,186,346,1,,,,
,,,,,,8225dfdc5965dd4c3116192a,66a626ef09d4e21e1a8894ec,67376807b518710ec6ca16aa,2024-11-15_12h30.53.810,Tarea de género gramatical,2024.2.2,Win32,74.96251874,,,,,,,,,,,,,,,,,,,,,,,,680.876,682.342,l,1,[],[],[],[],[],[],[],0.801,1,682.343,682.835,,,,,,981,FEM,CON,150,cima,,a,0.801,,682.835,682.835,0.390740741,-0.067592593,0,0,0,,0,187,187,80,1,,,,
,,,,,,8225dfdc5965dd4c3116192a,66a626ef09d4e21e1a8894ec,67376807b518710ec6ca16aa,2024-11-15_12h30.53.810,Tarea de género gramatical,2024.2.2,Win32,74.96251874,,,,,,,,,,,,,,,,,,,,,,,,682.836,684.009,a,1,[],[],[],[],[],[],[],0.51,1,684.009,684.503,,,,,,1090,MAS,DIS,150,campo,la,l,0.51,,684.503,684.503,0.390740741,-0.067592593,0,0,0,,0,188,188,189,1,,,,
,,,,,,8225dfdc5965dd4c3116192a,66a626ef09d4e21e1a8894ec,67376807b518710ec6ca16aa,2024-11-15_12h30.53.810,Tarea de género gramatical,2024.2.2,Win32,74.96251874,,,,,,,,,,,,,,,,,,,,,,,,684.503,685.729,a,1,[],[],[],[],[],[],[],0.57,1,685.729,686.223,,,,,,1342,MAS,DIS,150,cuadro,la,l,0.57,,686.223,686.223,0.390740741,-0.067592593,0,0,0,,0,189,189,441,1,,,,
,,,,,,8225dfdc5965dd4c3116192a,66a626ef09d4e21e1a8894ec,67376807b518710ec6ca16aa,2024-11-15_12h30.53.810,Tarea de género gramatical,2024.2.2,Win32,74.96251874,,,,,,,,,,,,,,,,,,,,,,,,686.224,687.343,l,1,[],[],[],[],[],[],[],0.46,1,687.344,687.837,,,,,,1113,FEM,CON,150,magia,,a,0.46,,687.837,687.837,0.390740741,-0.067592593,0,0,0,,0,190,190,212,1,,,,
,,,,,,8225dfdc5965dd4c3116192a,66a626ef09d4e21e1a8894ec,67376807b518710ec6ca16aa,2024-11-15_12h30.53.810,Tarea de género gramatical,2024.2.2,Win32,74.96251874,,,,,,,,,,,,,,,,,,,,,,,,687.838,689.024,l,1,[],[],[],[],[],[],[],0.524,1,689.025,689.531,,,,,,1027,FEM,DIS,150,cuna,el,a,0.524,,689.531,689.532,0.390740741,-0.067592593,0,0,0,,0,191,191,126,1,,,,
,,,,,,8225dfdc5965dd4c3116192a,66a626ef09d4e21e1a8894ec,67376807b518710ec6ca16aa,2024-11-15_12h30.53.810,Tarea de género gramatical,2024.2.2,Win32,74.96251874,,,,,,,,,,,,,,,,,,,,,,,,689.532,690.585,a,1,[],[],[],[],[],[],[],0.392,1,690.585,691.079,,,,,,1068,MAS,CON,150,sitio,,l,0.392,,691.079,691.079,0.390740741,-0.067592593,0,0,0,,0,192,192,167,1,,,,
,,,,,,8225dfdc5965dd4c3116192a,66a626ef09d4e21e1a8894ec,67376807b518710ec6ca16aa,2024-11-15_12h30.53.810,Tarea de género gramatical,2024.2.2,Win32,74.96251874,,,,,,,,,,,,,,,,,,,,,,,,691.079,692.265,a,1,[],[],[],[],[],[],[],0.531,1,692.266,692.759,,,,,,990,MAS,CON,150,león,,l,0.531,,692.759,692.759,0.390740741,-0.067592593,0,0,0,,0,193,193,89,1,,,,
,,,,,,8225dfdc5965dd4c3116192a,66a626ef09d4e21e1a8894ec,67376807b518710ec6ca16aa,2024-11-15_12h30.53.810,Tarea de género gramatical,2024.2.2,Win32,74.96251874,,,,,,,,,,,,,,,,,,,,,,,,692.759,693.959,a,1,[],[],[],[],[],[],[],0.541,1,693.959,694.453,,,,,,1234,MAS,DIS,150,ataque,la,l,0.541,,694.453,694.453,0.390740741,-0.067592593,0,0,0,,0,194,194,333,1,,,,
,,,,,,8225dfdc5965dd4c3116192a,66a626ef09d4e21e1a8894ec,67376807b518710ec6ca16aa,2024-11-15_12h30.53.810,Tarea de género gramatical,2024.2.2,Win32,74.96251874,,,,,,,,,,,,,,,,,,,,,,,,694.453,695.534,l,1,[],[],[],[],[],[],[],0.423,1,695.536,696.026,,,,,,1064,FEM,AGR,150,novia,la,a,0.423,,696.027,696.028,0.390740741,-0.067592593,0,0,0,,0,195,195,163,1,,,,
,,,,,,8225dfdc5965dd4c3116192a,66a626ef09d4e21e1a8894ec,67376807b518710ec6ca16aa,2024-11-15_12h30.53.810,Tarea de género gramatical,2024.2.2,Win32,74.96251874,,,,,,,,,,,,,,,,,,,,,,,,696.029,697.161,a,1,[],[],[],[],[],[],[],0.479,1,697.161,697.654,,,,,,1318,MAS,DIS,150,pájaro,la,l,0.479,,697.654,697.654,0.390740741,-0.067592593,0,0,0,,0,196,196,417,1,,,,
,,,,,,8225dfdc5965dd4c3116192a,66a626ef09d4e21e1a8894ec,67376807b518710ec6ca16aa,2024-11-15_12h30.53.810,Tarea de género gramatical,2024.2.2,Win32,74.96251874,,,,,,,,,,,,,,,,,,,,,,,,697.655,698.774,a,1,[],[],[],[],[],[],[],0.459,1,698.774,699.268,,,,,,1097,MAS,AGR,150,avión,el,l,0.459,,699.268,699.268,0.390740741,-0.067592593,0,0,0,,0,197,197,196,1,,,,
,,,,,,8225dfdc5965dd4c3116192a,66a626ef09d4e21e1a8894ec,67376807b518710ec6ca16aa,2024-11-15_12h30.53.810,Tarea de género gramatical,2024.2.2,Win32,74.96251874,,,,,,,,,,,,,,,,,,,,,,,,699.269,700.335,l,1,[],[],[],[],[],[],[],0.405,1,700.335,700.829,,,,,,1153,FEM,DIS,150,aldea,el,a,0.405,,700.829,700.829,0.390740741,-0.067592593,0,0,0,,0,198,198,252,1,,,,
,,,,,,8225dfdc5965dd4c3116192a,66a626ef09d4e21e1a8894ec,67376807b518710ec6ca16aa,2024-11-15_12h30.53.810,Tarea de género gramatical,2024.2.2,Win32,74.96251874,,,,,,,,,,,,,,,,,,,,,,,,700.83,702.122,a,1,[],[],[],[],[],[],[],0.639,1,702.122,702.616,,,,,,977,MAS,AGR,150,pico,el,l,0.639,,702.616,702.616,0.390740741,-0.067592593,0,0,0,,0,199,199,76,1,,,,
,,,,,,8225dfdc5965dd4c3116192a,66a626ef09d4e21e1a8894ec,67376807b518710ec6ca16aa,2024-11-15_12h30.53.810,Tarea de género gramatical,2024.2.2,Win32,74.96251874,,,,,,,,,,,,,,,,,,,,,,,,702.617,703.909,a,1,[],[],[],[],[],[],[],0.633,1,703.91,704.404,,,,,,1252,MAS,DIS,150,estilo,la,l,0.633,,704.404,704.405,0.390740741,-0.067592593,0,0,0,,0,200,200,351,1,,,,
,,,,,,8225dfdc5965dd4c3116192a,66a626ef09d4e21e1a8894ec,67376807b518710ec6ca16aa,2024-11-15_12h30.53.810,Tarea de género gramatical,2024.2.2,Win32,74.96251874,,,,,,,,,,,,,,,,,,,,,,,,704.405,705.71,a,1,[],[],[],[],[],[],[],0.645,1,705.71,706.204,,,,,,1254,MAS,CON,150,camión,,l,0.645,,706.204,706.204,0.390740741,-0.067592593,0,0,0,,0,201,201,353,1,,,,
,,,,,,8225dfdc5965dd4c3116192a,66a626ef09d4e21e1a8894ec,67376807b518710ec6ca16aa,2024-11-15_12h30.53.810,Tarea de género gramatical,2024.2.2,Win32,74.96251874,,,,,,,,,,,,,,,,,,,,,,,,706.205,707.258,l,1,[],[],[],[],[],[],[],0.398,1,707.258,707.751,,,,,,1148,FEM,AGR,150,letra,la,a,0.398,,707.751,707.751,0.390740741,-0.067592593,0,0,0,,0,202,202,247,1,,,,
,,,,,,8225dfdc5965dd4c3116192a,66a626ef09d4e21e1a8894ec,67376807b518710ec6ca16aa,2024-11-15_12h30.53.810,Tarea de género gramatical,2024.2.2,Win32,74.96251874,,,,,,,,,,,,,,,,,,,,,,,,707.752,708.845,a,1,[],[],[],[],[],[],[],0.437,1,708.845,709.338,,,,,,1168,MAS,DIS,150,truco,la,l,0.437,,709.338,709.339,0.390740741,-0.067592593,0,0,0,,0,203,203,267,1,,,,
,,,,,,8225dfdc5965dd4c3116192a,66a626ef09d4e21e1a8894ec,67376807b518710ec6ca16aa,2024-11-15_12h30.53.810,Tarea de género gramatical,2024.2.2,Win32,74.96251874,,,,,,,,,,,,,,,,,,,,,,,,709.339,710.446,l,1,[],[],[],[],[],[],[],0.448,1,710.446,710.94,,,,,,1130,FEM,AGR,150,regla,la,a,0.448,,710.94,710.941,0.390740741,-0.067592593,0,0,0,,0,204,204,229,1,,,,
,,,,,,8225dfdc5965dd4c3116192a,66a626ef09d4e21e1a8894ec,67376807b518710ec6ca16aa,2024-11-15_12h30.53.810,Tarea de género gramatical,2024.2.2,Win32,74.96251874,,,,,,,,,,,,,,,,,,,,,,,,710.941,712.153,a,1,[],[],[],[],[],[],[],0.549,1,712.153,712.646,,,,,,942,MAS,CON,150,show,,l,0.549,,712.646,712.646,0.390740741,-0.067592593,0,0,0,,0,205,205,41,1,,,,
,,,,,,8225dfdc5965dd4c3116192a,66a626ef09d4e21e1a8894ec,67376807b518710ec6ca16aa,2024-11-15_12h30.53.810,Tarea de género gramatical,2024.2.2,Win32,74.96251874,,,,,,,,,,,,,,,,,,,,,,,,712.647,713.74,l,1,[],[],[],[],[],[],[],0.429,1,713.74,714.234,,,,,,1341,FEM,CON,150,medida,,a,0.429,,714.234,714.234,0.390740741,-0.067592593,0,0,0,,0,206,206,440,1,,,,
,,,,,,8225dfdc5965dd4c3116192a,66a626ef09d4e21e1a8894ec,67376807b518710ec6ca16aa,2024-11-15_12h30.53.810,Tarea de género gramatical,2024.2.2,Win32,74.96251874,,,,,,,,,,,,,,,,,,,,,,,,714.234,715.394,l,1,[],[],[],[],[],[],[],0.504,1,715.394,715.888,,,,,,1333,FEM,DIS,150,huella,el,a,0.504,,715.888,715.888,0.390740741,-0.067592593,0,0,0,,0,207,207,432,1,,,,
,,,,,,8225dfdc5965dd4c3116192a,66a626ef09d4e21e1a8894ec,67376807b518710ec6ca16aa,2024-11-15_12h30.53.810,Tarea de género gramatical,2024.2.2,Win32,74.96251874,,,,,,,,,,,,,,,,,,,,,,,,715.889,716.915,l,1,[],[],[],[],[],[],[],0.362,1,716.915,717.409,,,,,,1069,FEM,DIS,150,vista,el,a,0.362,,717.409,717.409,0.390740741,-0.067592593,0,0,0,,0,208,208,168,1,,,,
,,,,,,8225dfdc5965dd4c3116192a,66a626ef09d4e21e1a8894ec,67376807b518710ec6ca16aa,2024-11-15_12h30.53.810,Tarea de género gramatical,2024.2.2,Win32,74.96251874,,,,,,,,,,,,,,,,,,,,,,,,717.409,718.556,l,1,[],[],[],[],[],[],[],0.482,1,718.556,719.048,,,,,,1208,FEM,AGR,150,semana,la,a,0.482,,719.049,719.049,0.390740741,-0.067592593,0,0,0,,0,209,209,307,1,,,,
,,,,,,8225dfdc5965dd4c3116192a,66a626ef09d4e21e1a8894ec,67376807b518710ec6ca16aa,2024-11-15_12h30.53.810,Tarea de género gramatical,2024.2.2,Win32,74.96251874,,,,,,,,,,,,,,,,,,,,,,,,719.05,720.143,l,1,[],[],[],[],[],[],[],0.436,1,720.143,720.636,,,,,,1047,FEM,CON,150,grúa,,a,0.436,,720.636,720.636,0.390740741,-0.067592593,0,0,0,,0,210,210,146,1,,,,
,,,,,,8225dfdc5965dd4c3116192a,66a626ef09d4e21e1a8894ec,67376807b518710ec6ca16aa,2024-11-15_12h30.53.810,Tarea de género gramatical,2024.2.2,Win32,74.96251874,,,,,,,,,,,,,,,,,,,,,,,,720.637,721.756,a,1,[],[],[],[],[],[],[],0.462,1,721.756,722.25,,,,,,1128,MAS,CON,150,nivel,,l,0.462,,722.25,722.25,0.390740741,-0.067592593,0,0,0,,0,211,211,227,1,,,,
,,,,,,8225dfdc5965dd4c3116192a,66a626ef09d4e21e1a8894ec,67376807b518710ec6ca16aa,2024-11-15_12h30.53.810,Tarea de género gramatical,2024.2.2,Win32,74.96251874,,,,,,,,,,,,,,,,,,,,,,,,722.251,723.264,l,1,[],[],[],[],[],[],[],0.351,1,723.264,723.757,,,,,,1177,FEM,DIS,150,plaza,el,a,0.351,,723.757,723.757,0.390740741,-0.067592593,0,0,0,,0,212,212,276,1,,,,
,,,,,,8225dfdc5965dd4c3116192a,66a626ef09d4e21e1a8894ec,67376807b518710ec6ca16aa,2024-11-15_12h30.53.810,Tarea de género gramatical,2024.2.2,Win32,74.96251874,,,,,,,,,,,,,,,,,,,,,,,,723.757,725.037,l,1,[],[],[],[],[],[],[],0.622,1,725.038,725.531,,,,,,1335,FEM,CON,150,niebla,,a,0.622,,725.531,725.532,0.390740741,-0.067592593,0,0,0,,0,213,213,434,1,,,,
,,,,,,8225dfdc5965dd4c3116192a,66a626ef09d4e21e1a8894ec,67376807b518710ec6ca16aa,2024-11-15_12h30.53.810,Tarea de género gramatical,2024.2.2,Win32,74.96251874,,,,,,,,,,,,,,,,,,,,,,,,725.532,726.571,l,1,[],[],[],[],[],[],[],0.374,1,726.571,727.065,,,,,,925,FEM,DIS,150,nave,el,a,0.374,,727.065,727.065,0.390740741,-0.067592593,0,0,0,,0,214,214,24,1,,,,
,,,,,,8225dfdc5965dd4c3116192a,66a626ef09d4e21e1a8894ec,67376807b518710ec6ca16aa,2024-11-15_12h30.53.810,Tarea de género gramatical,2024.2.2,Win32,74.96251874,,,,,,,,,,,,,,,,,,,,,,,,727.066,728.079,l,1,[],[],[],[],[],[],[],0.352,1,728.079,728.573,,,,,,1159,FEM,DIS,150,prima,el,a,0.352,,728.573,728.573,0.390740741,-0.067592593,0,0,0,,0,215,215,258,1,,,,
,,,,,,8225dfdc5965dd4c3116192a,66a626ef09d4e21e1a8894ec,67376807b518710ec6ca16aa,2024-11-15_12h30.53.810,Tarea de género gramatical,2024.2.2,Win32,74.96251874,,,,,,,,,,,,,,,,,,,,,,,,728.576,729.613,l,1,[],[],[],[],[],[],[],0.376,1,729.613,730.107,,,,,,1220,FEM,AGR,150,fiesta,la,a,0.376,,730.107,730.107,0.390740741,-0.067592593,0,0,0,,0,216,216,319,1,,,,
,,,,,,8225dfdc5965dd4c3116192a,66a626ef09d4e21e1a8894ec,67376807b518710ec6ca16aa,2024-11-15_12h30.53.810,Tarea de género gramatical,2024.2.2,Win32,74.96251874,,,,,,,,,,,,,,,,,,,,,,,,730.108,731.36,a,1,[],[],[],[],[],[],[],0.6,1,731.36,731.854,,,,,,1312,MAS,DIS,150,espejo,la,l,0.6,,731.854,731.854,0.390740741,-0.067592593,0,0,0,,0,217,217,411,1,,,,
,,,,,,8225dfdc5965dd4c3116192a,66a626ef09d4e21e1a8894ec,67376807b518710ec6ca16aa,2024-11-15_12h30.53.810,Tarea de género gramatical,2024.2.2,Win32,74.96251874,,,,,,,,,,,,,,,,,,,,,,,,731.855,733.068,a,1,[],[],[],[],[],[],[],0.556,1,733.068,733.561,,,,,,1020,MAS,CON,150,puño,,l,0.556,,733.561,733.563,0.390740741,-0.067592593,0,0,0,,0,218,218,119,1,,,,
,,,,,,8225dfdc5965dd4c3116192a,66a626ef09d4e21e1a8894ec,67376807b518710ec6ca16aa,2024-11-15_12h30.53.810,Tarea de género gramatical,2024.2.2,Win32,74.96251874,,,,,,,,,,,,,,,,,,,,,,,,733.563,734.681,a,1,[],[],[],[],[],[],[],0.464,1,734.682,735.174,,,,,,965,MAS,AGR,150,rayo,el,l,0.464,,735.174,735.174,0.390740741,-0.067592593,0,0,0,,0,219,219,64,1,,,,
,,,,,,8225dfdc5965dd4c3116192a,66a626ef09d4e21e1a8894ec,67376807b518710ec6ca16aa,2024-11-15_12h30.53.810,Tarea de género gramatical,2024.2.2,Win32,74.96251874,,,,,,,,,,,,,,,,,,,,,,,,735.176,736.228,l,1,[],[],[],[],[],[],[],0.388,1,736.228,736.722,,,,,,1195,FEM,DIS,150,grasa,el,a,0.388,,736.723,736.723,0.390740741,-0.067592593,0,0,0,,0,220,220,294,1,,,,
,,,,,,8225dfdc5965dd4c3116192a,66a626ef09d4e21e1a8894ec,67376807b518710ec6ca16aa,2024-11-15_12h30.53.810,Tarea de género gramatical,2024.2.2,Win32,74.96251874,,,,,,,,,,,,,,,,,,,,,,,,736.723,737.789,a,1,[],[],[],[],[],[],[],0.407,1,737.79,738.283,,,,,,1104,MAS,CON,150,papel,,l,0.407,,738.283,738.283,0.390740741,-0.067592593,0,0,0,,0,221,221,203,1,,,,
,,,,,,8225dfdc5965dd4c3116192a,66a626ef09d4e21e1a8894ec,67376807b518710ec6ca16aa,2024-11-15_12h30.53.810,Tarea de género gramatical,2024.2.2,Win32,74.96251874,,,,,,,,,,,,,,,,,,,,,,,,738.284,739.337,l,1,[],[],[],[],[],[],[],0.396,1,739.337,739.83,,,,,,1107,FEM,CON,150,playa,,a,0.396,,739.831,739.831,0.390740741,-0.067592593,0,0,0,,0,222,222,206,1,,,,
,,,,,,8225dfdc5965dd4c3116192a,66a626ef09d4e21e1a8894ec,67376807b518710ec6ca16aa,2024-11-15_12h30.53.810,Tarea de género gramatical,2024.2.2,Win32,74.96251874,,,,,,,,,,,,,,,,,,,,,,,,739.831,740.897,l,1,[],[],[],[],[],[],[],0.402,1,740.897,741.39,,,,,,1118,FEM,AGR,150,nieve,la,a,0.402,,741.39,741.39,0.390740741,-0.067592593,0,0,0,,0,223,223,217,1,,,,
,,,,,,8225dfdc5965dd4c3116192a,66a626ef09d4e21e1a8894ec,67376807b518710ec6ca16aa,2024-11-15_12h30.53.810,Tarea de género gramatical,2024.2.2,Win32,74.96251874,,,,,,,,,,,,,,,,,,,,,,,,741.392,742.524,a,1,[],[],[],[],[],[],[],0.467,1,742.524,743.018,,,,,,1319,MAS,AGR,150,cuento,el,l,0.467,,743.018,743.018,0.390740741,-0.067592593,0,0,0,,0,224,224,418,1,,,,
,,,,,,8225dfdc5965dd4c3116192a,66a626ef09d4e21e1a8894ec,67376807b518710ec6ca16aa,2024-11-15_12h30.53.810,Tarea de género gramatical,2024.2.2,Win32,74.96251874,,,,,,,,,,,,,,,,,,,,,,,,743.018,744.019,l,1,[],[],[],[],[],[],[],0.338,1,744.019,744.511,,,,,,1327,FEM,DIS,150,agenda,el,a,0.338,,744.511,744.511,0.390740741,-0.067592593,0,0,0,,0,225,225,426,1,,,,
,,,,,,8225dfdc5965dd4c3116192a,66a626ef09d4e21e1a8894ec,67376807b518710ec6ca16aa,2024-11-15_12h30.53.810,Tarea de género gramatical,2024.2.2,Win32,74.96251874,,,,,,,,,,,,,,,,,,,,,,,,744.512,745.579,a,1,[],[],[],[],[],[],[],0.41,1,745.579,746.072,,,,,,1133,MAS,AGR,150,golpe,el,l,0.41,,746.072,746.072,0.390740741,-0.067592593,0,0,0,,0,226,226,232,1,,,,
,,,,,,8225dfdc5965dd4c3116192a,66a626ef09d4e21e1a8894ec,67376807b518710ec6ca16aa,2024-11-15_12h30.53.810,Tarea de género gramatical,2024.2.2,Win32,74.96251874,,,,,,,,,,,,,,,,,,,,,,,,746.073,747.273,a,1,[],[],[],[],[],[],[],0.537,1,747.273,747.767,,,,,,1096,MAS,DIS,150,barco,la,l,0.537,,747.767,747.767,0.390740741,-0.067592593,0,0,0,,0,227,227,195,1,,,,
,,,,,,8225dfdc5965dd4c3116192a,66a626ef09d4e21e1a8894ec,67376807b518710ec6ca16aa,2024-11-15_12h30.53.810,Tarea de género gramatical,2024.2.2,Win32,74.96251874,,,,,,,,,,,,,,,,,,,,,,,,747.767,748.82,l,1,[],[],[],[],[],[],[],0.396,1,748.82,749.313,,,,,,999,FEM,CON,150,fase,,a,0.396,,749.313,749.313,0.390740741,-0.067592593,0,0,0,,0,228,228,98,1,,,,
,,,,,,8225dfdc5965dd4c3116192a,66a626ef09d4e21e1a8894ec,67376807b518710ec6ca16aa,2024-11-15_12h30.53.810,Tarea de género gramatical,2024.2.2,Win32,74.96251874,,,,,,,,,,,,,,,,,,,,,,,,749.313,750.394,a,1,[],[],[],[],[],[],[],0.416,1,750.394,750.888,,,,,,904,MAS,DIS,150,hijo,la,l,0.416,,750.888,750.888,0.390740741,-0.067592593,0,0,0,,0,229,229,3,1,,,,
,,,,,,8225dfdc5965dd4c3116192a,66a626ef09d4e21e1a8894ec,67376807b518710ec6ca16aa,2024-11-15_12h30.53.810,Tarea de género gramatical,2024.2.2,Win32,74.96251874,,,,,,,,,,,,,,,,,,,,,,,,750.888,751.861,l,1,[],[],[],[],[],[],[],0.316,1,751.861,752.355,,,,,,1269,FEM,CON,150,camisa,,a,0.316,,752.355,752.355,0.390740741,-0.067592593,0,0,0,,0,230,230,368,1,,,,
,,,,,,8225dfdc5965dd4c3116192a,66a626ef09d4e21e1a8894ec,67376807b518710ec6ca16aa,2024-11-15_12h30.53.810,Tarea de género gramatical,2024.2.2,Win32,74.96251874,,,,,,,,,,,,,,,,,,,,,,,,752.355,753.448,a,1,[],[],[],[],[],[],[],0.432,1,753.449,753.942,,,,,,1146,MAS,CON,150,humor,,l,0.432,,753.943,753.943,0.390740741,-0.067592593,0,0,0,,0,231,231,245,1,,,,
,,,,,,8225dfdc5965dd4c3116192a,66a626ef09d4e21e1a8894ec,67376807b518710ec6ca16aa,2024-11-15_12h30.53.810,Tarea de género gramatical,2024.2.2,Win32,74.96251874,,,,,,,,,,,,,,,,,,,,,,,,753.944,755.035,a,1,[],[],[],[],[],[],[],0.438,1,755.035,755.529,,,,,,1230,MAS,CON,150,estado,,l,0.438,,755.529,755.529,0.390740741,-0.067592593,0,0,0,,0,232,232,329,1,,,,
,,,,,,8225dfdc5965dd4c3116192a,66a626ef09d4e21e1a8894ec,67376807b518710ec6ca16aa,2024-11-15_12h30.53.810,Tarea de género gramatical,2024.2.2,Win32,74.96251874,,,,,,,,,,,,,,,,,,,,,,,,755.53,756.596,a,1,[],[],[],[],[],[],[],0.409,1,756.596,757.09,,,,,,1126,MAS,DIS,150,color,la,l,0.409,,757.09,757.09,0.390740741,-0.067592593,0,0,0,,0,233,233,225,1,,,,
,,,,,,8225dfdc5965dd4c3116192a,66a626ef09d4e21e1a8894ec,67376807b518710ec6ca16aa,2024-11-15_12h30.53.810,Tarea de género gramatical,2024.2.2,Win32,74.96251874,,,,,,,,,,,,,,,,,,,,,,,,757.09,758.17,l,1,[],[],[],[],[],[],[],0.424,1,758.17,758.664,,,,,,1267,FEM,DIS,150,teoría,el,a,0.424,,758.664,758.664,0.390740741,-0.067592593,0,0,0,,0,234,234,366,1,,,,
,,,,,,8225dfdc5965dd4c3116192a,66a626ef09d4e21e1a8894ec,67376807b518710ec6ca16aa,2024-11-15_12h30.53.810,Tarea de género gramatical,2024.2.2,Win32,74.96251874,,,,,,,,,,,,,,,,,,,,,,,,758.665,759.785,l,1,[],[],[],[],[],[],[],0.457,1,759.785,760.277,,,,,,938,FEM,AGR,150,obra,la,a,0.457,,760.277,760.278,0.390740741,-0.067592593,0,0,0,,0,235,235,37,1,,,,
,,,,,,8225dfdc5965dd4c3116192a,66a626ef09d4e21e1a8894ec,67376807b518710ec6ca16aa,2024-11-15_12h30.53.810,Tarea de género gramatical,2024.2.2,Win32,74.96251874,,,,,,,,,,,,,,,,,,,,,,,,760.278,761.291,l,1,[],[],[],[],[],[],[],0.356,1,761.291,761.785,,,,,,1023,FEM,CON,150,tela,,a,0.356,,761.785,761.786,0.390740741,-0.067592593,0,0,0,,0,236,236,122,1,,,,
,,,,,,8225dfdc5965dd4c3116192a,66a626ef09d4e21e1a8894ec,67376807b518710ec6ca16aa,2024-11-15_12h30.53.810,Tarea de género gramatical,2024.2.2,Win32,74.96251874,,,,,,,,,,,,,,,,,,,,,,,,761.786,762.799,l,1,[],[],[],[],[],[],[],0.354,1,762.799,763.292,,,,,,1165,FEM,DIS,150,rueda,el,a,0.354,,763.292,763.292,0.390740741,-0.067592593,0,0,0,,0,237,237,264,1,,,,
,,,,,,8225dfdc5965dd4c3116192a,66a626ef09d4e21e1a8894ec,67376807b518710ec6ca16aa,2024-11-15_12h30.53.810,Tarea de género gramatical,2024.2.2,Win32,74.96251874,,,,,,,,,,,,,,,,,,,,,,,,763.293,764.413,l,1,[],[],[],[],[],[],[],0.454,1,764.413,764.906,,,,,,968,FEM,AGR,150,pata,la,a,0.454,,764.906,764.906,0.390740741,-0.067592593,0,0,0,,0,238,238,67,1,,,,
,,,,,,8225dfdc5965dd4c3116192a,66a626ef09d4e21e1a8894ec,67376807b518710ec6ca16aa,2024-11-15_12h30.53.810,Tarea de género gramatical,2024.2.2,Win32,74.96251874,,,,,,,,,,,,,,,,,,,,,,,,764.906,765.974,a,1,[],[],[],[],[],[],[],0.403,1,765.974,766.466,,,,,,1338,MAS,CON,150,tanque,,l,0.403,,766.466,766.466,0.390740741,-0.067592593,0,0,0,,0,239,239,437,1,,,,
,,,,,,8225dfdc5965dd4c3116192a,66a626ef09d4e21e1a8894ec,67376807b518710ec6ca16aa,2024-11-15_12h30.53.810,Tarea de género gramatical,2024.2.2,Win32,74.96251874,,,,,,,,,,,,,,,,,,,,,,,,766.468,767.507,l,1,[],[],[],[],[],[],[],0.377,1,767.507,768,,,,,,1317,FEM,CON,150,cabaña,,a,0.377,,768.001,768.001,0.390740741,-0.067592593,0,0,0,,0,240,240,416,1,,,,
,,,,,,8225dfdc5965dd4c3116192a,66a626ef09d4e21e1a8894ec,67376807b518710ec6ca16aa,2024-11-15_12h30.53.810,Tarea de género gramatical,2024.2.2,Win32,74.96251874,,,,,,,,,,,,,,,,,,,,,,,,768.002,769.054,a,1,[],[],[],[],[],[],[],0.391,1,769.054,769.548,,,,,,930,MAS,CON,150,cine,,l,0.391,,769.548,769.548,0.390740741,-0.067592593,0,0,0,,0,241,241,29,1,,,,
,,,,,,8225dfdc5965dd4c3116192a,66a626ef09d4e21e1a8894ec,67376807b518710ec6ca16aa,2024-11-15_12h30.53.810,Tarea de género gramatical,2024.2.2,Win32,74.96251874,,,,,,,,,,,,,,,,,,,,,,,,769.548,770.535,l,1,[],[],[],[],[],[],[],0.32,1,770.535,771.029,,,,,,1105,FEM,DIS,150,reina,el,a,0.32,,771.029,771.029,0.390740741,-0.067592593,0,0,0,,0,242,242,204,1,,,,
,,,,,,8225dfdc5965dd4c3116192a,66a626ef09d4e21e1a8894ec,67376807b518710ec6ca16aa,2024-11-15_12h30.53.810,Tarea de género gramatical,2024.2.2,Win32,74.96251874,,,,,,,,,,,,,,,,,,,,,,,,771.029,772.096,a,1,[],[],[],[],[],[],[],0.408,1,772.096,772.589,,,,,,1295,MAS,AGR,150,correo,el,l,0.408,,772.589,772.589,0.390740741,-0.067592593,0,0,0,,0,243,243,394,1,,,,
,,,,,,8225dfdc5965dd4c3116192a,66a626ef09d4e21e1a8894ec,67376807b518710ec6ca16aa,2024-11-15_12h30.53.810,Tarea de género gramatical,2024.2.2,Win32,74.96251874,,,,,,,,,,,,,,,,,,,,,,,,772.59,773.789,a,1,[],[],[],[],[],[],[],0.533,1,773.789,774.283,,,,,,1014,MAS,CON,150,menú,,l,0.533,,774.283,774.283,0.390740741,-0.067592593,0,0,0,,0,244,244,113,1,,,,
,,,,,,8225dfdc5965dd4c3116192a,66a626ef09d4e21e1a8894ec,67376807b518710ec6ca16aa,2024-11-15_12h30.53.810,Tarea de género gramatical,2024.2.2,Win32,74.96251874,,,,,,,,,,,,,,,,,,,,,,,,774.283,775.443,a,1,[],[],[],[],[],[],[],0.503,1,775.443,775.937,,,,,,1049,MAS,AGR,150,nudo,el,l,0.503,,775.938,775.939,0.390740741,-0.067592593,0,0,0,,0,245,245,148,1,,,,
,,,,,,8225dfdc5965dd4c3116192a,66a626ef09d4e21e1a8894ec,67376807b518710ec6ca16aa,2024-11-15_12h30.53.810,Tarea de género gramatical,2024.2.2,Win32,74.96251874,,,,,,,,,,,,,,,,,,,,,,,,775.939,777.017,l,1,[],[],[],[],[],[],[],0.425,1,777.018,777.511,,,,,,1213,FEM,DIS,150,ciudad,el,a,0.425,,777.511,777.511,0.390740741,-0.067592593,0,0,0,,0,246,246,312,1,,,,
,,,,,,8225dfdc5965dd4c3116192a,66a626ef09d4e21e1a8894ec,67376807b518710ec6ca16aa,2024-11-15_12h30.53.810,Tarea de género gramatical,2024.2.2,Win32,74.96251874,,,,,,,,,,,,,,,,,,,,,,,,777.512,778.724,a,1,[],[],[],[],[],[],[],0.548,1,778.725,779.218,,,,,,917,MAS,AGR,150,modo,el,l,0.548,,779.218,779.218,0.390740741,-0.067592593,0,0,0,,0,247,247,16,1,,,,
,,,,,,8225dfdc5965dd4c3116192a,66a626ef09d4e21e1a8894ec,67376807b518710ec6ca16aa,2024-11-15_12h30.53.810,Tarea de género gramatical,2024.2.2,Win32,74.96251874,,,,,,,,,,,,,,,,,,,,,,,,779.218,780.219,l,1,[],[],[],[],[],[],[],0.334,1,780.219,780.711,,,,,,1087,FEM,DIS,150,lista,el,a,0.334,,780.711,780.712,0.390740741,-0.067592593,0,0,0,,0,248,248,186,1,,,,
,,,,,,8225dfdc5965dd4c3116192a,66a626ef09d4e21e1a8894ec,67376807b518710ec6ca16aa,2024-11-15_12h30.53.810,Tarea de género gramatical,2024.2.2,Win32,74.96251874,,,,,,,,,,,,,,,,,,,,,,,,780.712,781.899,l,1,[],[],[],[],[],[],[],0.52,1,781.899,782.393,,,,,,1231,FEM,DIS,150,cárcel,el,a,0.52,,782.393,782.394,0.390740741,-0.067592593,0,0,0,,0,249,249,330,1,,,,
,,,,,,8225dfdc5965dd4c3116192a,66a626ef09d4e21e1a8894ec,67376807b518710ec6ca16aa,2024-11-15_12h30.53.810,Tarea de género gramatical,2024.2.2,Win32,74.96251874,,,,,,,,,,,,,,,,,,,,,,,,782.394,783.5,l,1,[],[],[],[],[],[],[],0.442,1,783.5,783.993,,,,,,1095,FEM,CON,150,pared,,a,0.442,,783.994,783.994,0.390740741,-0.067592593,0,0,0,,0,250,250,194,1,,,,
,,,,,,8225dfdc5965dd4c3116192a,66a626ef09d4e21e1a8894ec,67376807b518710ec6ca16aa,2024-11-15_12h30.53.810,Tarea de género gramatical,2024.2.2,Win32,74.96251874,,,,,,,,,,,,,,,,,,,,,,,,783.994,785.02,a,1,[],[],[],[],[],[],[],0.37,1,785.021,785.513,,,,,,1211,MAS,AGR,150,camino,el,l,0.37,,785.513,785.514,0.390740741,-0.067592593,0,0,0,,0,251,251,310,1,,,,
,,,,,,8225dfdc5965dd4c3116192a,66a626ef09d4e21e1a8894ec,67376807b518710ec6ca16aa,2024-11-15_12h30.53.810,Tarea de género gramatical,2024.2.2,Win32,74.96251874,,,,,,,,,,,,,,,,,,,,,,,,785.514,786.54,l,1,[],[],[],[],[],[],[],0.368,1,786.541,787.034,,,,,,1237,FEM,DIS,150,escena,el,a,0.368,,787.034,787.034,0.390740741,-0.067592593,0,0,0,,0,252,252,336,1,,,,
,,,,,,8225dfdc5965dd4c3116192a,66a626ef09d4e21e1a8894ec,67376807b518710ec6ca16aa,2024-11-15_12h30.53.810,Tarea de género gramatical,2024.2.2,Win32,74.96251874,,,,,,,,,,,,,,,,,,,,,,,,787.035,788.169,a,1,[],[],[],[],[],[],[],0.47,1,788.169,788.662,,,,,,1043,MAS,AGR,150,faro,el,l,0.47,,788.662,788.662,0.390740741,-0.067592593,0,0,0,,0,253,253,142,1,,,,
,,,,,,8225dfdc5965dd4c3116192a,66a626ef09d4e21e1a8894ec,67376807b518710ec6ca16aa,2024-11-15_12h30.53.810,Tarea de género gramatical,2024.2.2,Win32,74.96251874,,,,,,,,,,,,,,,,,,,,,,,,788.662,789.688,l,1,[],[],[],[],[],[],[],0.364,1,789.688,790.182,,,,,,1245,FEM,CON,150,pierna,,a,0.364,,790.183,790.183,0.390740741,-0.067592593,0,0,0,,0,254,254,344,1,,,,
,,,,,,8225dfdc5965dd4c3116192a,66a626ef09d4e21e1a8894ec,67376807b518710ec6ca16aa,2024-11-15_12h30.53.810,Tarea de género gramatical,2024.2.2,Win32,74.96251874,,,,,,,,,,,,,,,,,,,,,,,,790.183,791.236,l,1,[],[],[],[],[],[],[],0.39,1,791.236,791.729,,,,,,1249,FEM,DIS,150,prensa,el,a,0.39,,791.729,791.729,0.390740741,-0.067592593,0,0,0,,0,255,255,348,1,,,,
,,,,,,8225dfdc5965dd4c3116192a,66a626ef09d4e21e1a8894ec,67376807b518710ec6ca16aa,2024-11-15_12h30.53.810,Tarea de género gramatical,2024.2.2,Win32,74.96251874,,,,,,,,,,,,,,,,,,,,,,,,791.73,792.797,l,1,[],[],[],[],[],[],[],0.409,1,792.797,793.29,,,,,,1232,FEM,AGR,150,basura,la,a,0.409,,793.29,793.29,0.390740741,-0.067592593,0,0,0,,0,256,256,331,1,,,,
