counterbalancing_condition,consent_prescreening.block_1/declare_consent,consent_prescreening.block_1/age_years,consent_prescreening.block_1/gender,consent_prescreening.block_1/language_disorder,consent_prescreening.block_1/first_language,PROLIFIC_PID,STUDY_ID,SESSION_ID,date,expName,psychopyVersion,OS,frameRate,check_prescreening_answers.started,check_prescreening_answers.stopped,Instructions.started,Instructions.stopped,instr_done_keyboard.keys,instr_done_touch.x,instr_done_touch.y,instr_done_touch.leftButton,instr_done_touch.midButton,instr_done_touch.rightButton,instr_done_touch.clicked_name,instruction_pages.thisRepN,instruction_pages.thisTrialN,instruction_pages.thisN,instruction_pages.thisIndex,instruction_pages.ran,pageN,phase,instruct_text,has_image,instruct_image,presentTrial.started,presentTrial.stopped,response.keys,response.corr,touch_resp.x,touch_resp.y,touch_resp.leftButton,touch_resp.midButton,touch_resp.rightButton,touch_resp.time,touch_resp.clicked_name,rt,corr,feedback.started,feedback.stopped,practice_trials.thisRepN,practice_trials.thisTrialN,practice_trials.thisN,practice_trials.thisIndex,practice_trials.ran,TrialID,StimulusType,Condition,PrimeDuration,Prime,Flanker,corrAns,response.rt,response.duration,instr_done_keyboard.rt,instr_done_keyboard.duration,Break.started,Break.stopped,break_done_touch.x,break_done_touch.y,break_done_touch.leftButton,break_done_touch.midButton,break_done_touch.rightButton,break_done_keyboard.keys,experiment_trials.thisRepN,experiment_trials.thisTrialN,experiment_trials.thisN,experiment_trials.thisIndex,experiment_trials.ran,break_done_keyboard.rt,break_done_keyboard.duration,End.started,End.stopped
0,"[""over_18"",""comfortable"",""read_info"",""consent_given""]",35,M,"[""none""]","[""spanish""]",84a09f4b3e24ff1a73c15508,66a626ef09d4e21e1a8894ec,6734e0442f4858cc57e7232a,2024-11-13_12h03.16.443,Tarea de género gramatical,2024.2.2,Win32,172.4137931,,,,,,,,,,,,,,,,,,,,,,,,,,,,,,,,,,,,,,,,,,,,,,,,,,,,,,,,,,,,,,,,,,,,,
,,,,,,84a09f4b3e24ff1a73c15508,66a626ef09d4e21e1a8894ec,6734e0442f4858cc57e7232a,2024-11-13_12h03.16.443,Tarea de género gramatical,2024.2.2,Win32,172.4137931,72.8685,72.8686,,,,,,,,,,,,,,,,,,,,,,,,,,,,,,,,,,,,,,,,,,,,,,,,,,,,,,,,,,,,,,,,,,,
,,,,,,84a09f4b3e24ff1a73c15508,66a626ef09d4e21e1a8894ec,6734e0442f4858cc57e7232a,2024-11-13_12h03.16.443,Tarea de género gramatical,2024.2.2,Win32,172.4137931,,,72.8873,83.1205,,0.029166645,-0.409027841,1,0,0,,0,0,0,0,1,1,instructions,"INSTRUCCIONES
Va a realizar una prueba de selección gramatical. Desde el comienzo de la prueba mire siempre al centro de la pantalla. Al cabo de un momento, aparecerán palabras. La tarea consiste en determinar si la palabra del centro (siempre será un sustantivo), pertenece al género masculino o femenino.

Pulse la tecla ESPACIO o toque el botón de abajo para continuar.",0,keyboardresponseMF.png,,,,,,,,,,,,,,,,,,,,,,,,,,,,,,,,,,,,,,,,,,,,,,,,
,,,,,,84a09f4b3e24ff1a73c15508,66a626ef09d4e21e1a8894ec,6734e0442f4858cc57e7232a,2024-11-13_12h03.16.443,Tarea de género gramatical,2024.2.2,Win32,172.4137931,,,83.1222,92.4203,,0.037500064,-0.388888889,1,0,0,instr_done_button,0,1,1,1,1,2,instructions,"Si su dispositivo tiene teclado, pulse la tecla ""A"" para las palabras en masculino (por ejemplo: ""arroz"") y la tecla ""L"" para las palabras en femenino (por ejemplo: ""mano"").
Pulse la tecla ESPACIO o toque el botón de abajo para continuar.",1,keyboardresponseMF.png,,,,,,,,,,,,,,,,,,,,,,,,,,,,,,,,,,,,,,,,,,,,,,,,
,,,,,,84a09f4b3e24ff1a73c15508,66a626ef09d4e21e1a8894ec,6734e0442f4858cc57e7232a,2024-11-13_12h03.16.443,Tarea de género gramatical,2024.2.2,Win32,172.4137931,,,92.4219,95.2929,,0.020138952,-0.406944487,1,0,0,instr_done_button,0,2,2,2,1,3,instructions,"Si utiliza un dispositivo sólo táctil, colóquelo en horizontal y utilice los botones de la pantalla. No utilice el ratón.
Pulse la tecla ESPACIO o toque el botón de abajo para continuar.",2,touchresponseMF.png,,,,,,,,,,,,,,,,,,,,,,,,,,,,,,,,,,,,,,,,,,,,,,,,
,,,,,,84a09f4b3e24ff1a73c15508,66a626ef09d4e21e1a8894ec,6734e0442f4858cc57e7232a,2024-11-13_12h03.16.443,Tarea de género gramatical,2024.2.2,Win32,172.4137931,,,95.2951,98.5686,,0.015972243,-0.404861132,1,0,0,instr_done_button,0,3,3,3,1,4,instructions,"Es muy importante que responda con la mayor rapidez y precisión posibles, ya que cada cadena de letras sólo estará en pantalla durante un instante. Si no responde en ese tiempo, aparecerá el mensaje ""Muy lento"" y el experimento pasará a la siguiente palabra. Los primeros 15 intentos serán de práctica y habrá dos descansos durante la prueba.
Pulse la tecla ESPACIO o toque el botón de abajo para iniciar la parte de práctica.",0,keyboardresponseMF.png,,,,,,,,,,,,,,,,,,,,,,,,,,,,,,,,,,,,,,,,,,,,,,,,
,,,,,,84a09f4b3e24ff1a73c15508,66a626ef09d4e21e1a8894ec,6734e0442f4858cc57e7232a,2024-11-13_12h03.16.443,Tarea de género gramatical,2024.2.2,Win32,172.4137931,,,,,,,,,,,,,,,,,,,,,,98.593,101.2443,,0,[],[],[],[],[],[],[],,-1,101.2445,101.7411,0,0,0,10,1,2011,MAS,CON,150,canal,,l,,,,,,,,,,,,,,,,,,,,,
,,,,,,84a09f4b3e24ff1a73c15508,66a626ef09d4e21e1a8894ec,6734e0442f4858cc57e7232a,2024-11-13_12h03.16.443,Tarea de género gramatical,2024.2.2,Win32,172.4137931,,,,,,,,,,,,,,,,,,,,,,101.7422,102.9931,l,1,[],[],[],[],[],[],[],0.5919,1,102.9983,103.4926,0,1,1,6,1,2007,FEM,AGR,150,navaja,la,a,0.5919,,,,,,,,,,,,,,,,,,,,
,,,,,,84a09f4b3e24ff1a73c15508,66a626ef09d4e21e1a8894ec,6734e0442f4858cc57e7232a,2024-11-13_12h03.16.443,Tarea de género gramatical,2024.2.2,Win32,172.4137931,,,,,,,,,,,,,,,,,,,,,,103.4935,104.6393,l,1,[],[],[],[],[],[],[],0.4864,1,104.6394,105.1351,0,2,2,1,1,2002,FEM,CON,150,pala,,a,0.4864,,,,,,,,,,,,,,,,,,,,
,,,,,,84a09f4b3e24ff1a73c15508,66a626ef09d4e21e1a8894ec,6734e0442f4858cc57e7232a,2024-11-13_12h03.16.443,Tarea de género gramatical,2024.2.2,Win32,172.4137931,,,,,,,,,,,,,,,,,,,,,,105.1366,106.3422,l,1,[],[],[],[],[],[],[],0.5468,1,106.3424,106.8381,0,3,3,7,1,2008,FEM,CON,150,siesta,,a,0.5468,,,,,,,,,,,,,,,,,,,,
,,,,,,84a09f4b3e24ff1a73c15508,66a626ef09d4e21e1a8894ec,6734e0442f4858cc57e7232a,2024-11-13_12h03.16.443,Tarea de género gramatical,2024.2.2,Win32,172.4137931,,,,,,,,,,,,,,,,,,,,,,106.8391,107.8454,a,1,[],[],[],[],[],[],[],0.347,1,107.8455,108.3411,0,4,4,13,1,2014,MAS,CON,150,siglo,,l,0.347,,,,,,,,,,,,,,,,,,,,
,,,,,,84a09f4b3e24ff1a73c15508,66a626ef09d4e21e1a8894ec,6734e0442f4858cc57e7232a,2024-11-13_12h03.16.443,Tarea de género gramatical,2024.2.2,Win32,172.4137931,,,,,,,,,,,,,,,,,,,,,,108.3422,109.8025,l,0,[],[],[],[],[],[],[],0.8009,0,109.8039,110.3023,0,5,5,14,1,2015,MAS,DIS,150,robot,la,l,0.8009,,,,,,,,,,,,,,,,,,,,
,,,,,,84a09f4b3e24ff1a73c15508,66a626ef09d4e21e1a8894ec,6734e0442f4858cc57e7232a,2024-11-13_12h03.16.443,Tarea de género gramatical,2024.2.2,Win32,172.4137931,,,,,,,,,,,,,,,,,,,,,,110.3032,111.7806,l,0,[],[],[],[],[],[],[],0.8181,0,111.7807,112.2776,0,6,6,8,1,2009,MAS,DIS,150,puerto,la,l,0.8181,,,,,,,,,,,,,,,,,,,,
,,,,,,84a09f4b3e24ff1a73c15508,66a626ef09d4e21e1a8894ec,6734e0442f4858cc57e7232a,2024-11-13_12h03.16.443,Tarea de género gramatical,2024.2.2,Win32,172.4137931,,,,,,,,,,,,,,,,,,,,,,112.2782,113.5958,l,1,[],[],[],[],[],[],[],0.6602,1,113.5962,114.0927,0,7,7,3,1,2004,FEM,AGR,150,venta,la,a,0.6602,,,,,,,,,,,,,,,,,,,,
,,,,,,84a09f4b3e24ff1a73c15508,66a626ef09d4e21e1a8894ec,6734e0442f4858cc57e7232a,2024-11-13_12h03.16.443,Tarea de género gramatical,2024.2.2,Win32,172.4137931,,,,,,,,,,,,,,,,,,,,,,114.0932,115.2153,l,1,[],[],[],[],[],[],[],0.4623,1,115.2153,115.7168,0,8,8,0,1,2001,FEM,AGR,150,nuca,la,a,0.4623,,,,,,,,,,,,,,,,,,,,
,,,,,,84a09f4b3e24ff1a73c15508,66a626ef09d4e21e1a8894ec,6734e0442f4858cc57e7232a,2024-11-13_12h03.16.443,Tarea de género gramatical,2024.2.2,Win32,172.4137931,,,,,,,,,,,,,,,,,,,,,,115.7173,116.8573,l,1,[],[],[],[],[],[],[],0.4801,1,116.8574,117.3593,0,9,9,4,1,2005,FEM,CON,150,placa,,a,0.4801,,,,,,,,,,,,,,,,,,,,
,,,,,,84a09f4b3e24ff1a73c15508,66a626ef09d4e21e1a8894ec,6734e0442f4858cc57e7232a,2024-11-13_12h03.16.443,Tarea de género gramatical,2024.2.2,Win32,172.4137931,,,,,,,,,,,,,,,,,,,,,,117.3598,118.4515,a,1,[],[],[],[],[],[],[],0.4355,1,118.4516,118.9472,0,10,10,9,1,2010,MAS,AGR,150,vecino,el,l,0.4355,,,,,,,,,,,,,,,,,,,,
,,,,,,84a09f4b3e24ff1a73c15508,66a626ef09d4e21e1a8894ec,6734e0442f4858cc57e7232a,2024-11-13_12h03.16.443,Tarea de género gramatical,2024.2.2,Win32,172.4137931,,,,,,,,,,,,,,,,,,,,,,118.948,120.0209,l,1,[],[],[],[],[],[],[],0.4134,1,120.0209,120.5228,0,11,11,2,1,2003,FEM,DIS,150,daga,el,a,0.4134,,,,,,,,,,,,,,,,,,,,
,,,,,,84a09f4b3e24ff1a73c15508,66a626ef09d4e21e1a8894ec,6734e0442f4858cc57e7232a,2024-11-13_12h03.16.443,Tarea de género gramatical,2024.2.2,Win32,172.4137931,,,,,,,,,,,,,,,,,,,,,,120.5234,121.8269,a,0,[],[],[],[],[],[],[],0.6437,0,121.8273,122.3229,0,12,12,5,1,2006,FEM,DIS,150,serie,el,a,0.6437,,,,,,,,,,,,,,,,,,,,
,,,,,,84a09f4b3e24ff1a73c15508,66a626ef09d4e21e1a8894ec,6734e0442f4858cc57e7232a,2024-11-13_12h03.16.443,Tarea de género gramatical,2024.2.2,Win32,172.4137931,,,,,,,,,,,,,,,,,,,,,,122.3237,123.5724,l,0,[],[],[],[],[],[],[],0.5927,0,123.5725,124.0683,0,13,13,11,1,2012,MAS,DIS,150,clima,la,l,0.5927,,,,,,,,,,,,,,,,,,,,
,,,,,,84a09f4b3e24ff1a73c15508,66a626ef09d4e21e1a8894ec,6734e0442f4858cc57e7232a,2024-11-13_12h03.16.443,Tarea de género gramatical,2024.2.2,Win32,172.4137931,,,,,,,,,,,,,,,,,,,,,,124.0688,125.232,a,1,[],[],[],[],[],[],[],0.5069,1,125.2324,125.7289,0,14,14,12,1,2013,MAS,AGR,150,acero,el,l,0.5069,,,,,,,,,,,,,,,,,,,,
,,,,,,84a09f4b3e24ff1a73c15508,66a626ef09d4e21e1a8894ec,6734e0442f4858cc57e7232a,2024-11-13_12h03.16.443,Tarea de género gramatical,2024.2.2,Win32,172.4137931,,,129.4715,131.0776,space,0.006944444,-0.386111101,0,0,0,,,,,,,,,,,,131.2155,132.2939,l,0,[],[],[],[],[],[],[],0.4232,0,132.2944,132.7897,,,,,,89,MAS,CON,150,maíz,,l,0.4232,,1.598,,132.7899,132.7933,0.006944444,-0.386111101,0,0,0,,0,0,0,88,1,,,,
,,,,,,84a09f4b3e24ff1a73c15508,66a626ef09d4e21e1a8894ec,6734e0442f4858cc57e7232a,2024-11-13_12h03.16.443,Tarea de género gramatical,2024.2.2,Win32,172.4137931,,,,,,,,,,,,,,,,,,,,,,132.7938,133.8471,a,1,[],[],[],[],[],[],[],0.3943,1,133.8476,134.3472,,,,,,383,MAS,CON,150,parque,,l,0.3943,,,,134.3472,134.3474,0.006944444,-0.386111101,0,0,0,,0,1,1,382,1,,,,
,,,,,,84a09f4b3e24ff1a73c15508,66a626ef09d4e21e1a8894ec,6734e0442f4858cc57e7232a,2024-11-13_12h03.16.443,Tarea de género gramatical,2024.2.2,Win32,172.4137931,,,,,,,,,,,,,,,,,,,,,,134.348,135.33,a,1,[],[],[],[],[],[],[],0.3238,1,135.3301,135.8259,,,,,,370,MAS,AGR,150,seguro,el,l,0.3238,,,,135.8268,135.8273,0.006944444,-0.386111101,0,0,0,,0,2,2,369,1,,,,
,,,,,,84a09f4b3e24ff1a73c15508,66a626ef09d4e21e1a8894ec,6734e0442f4858cc57e7232a,2024-11-13_12h03.16.443,Tarea de género gramatical,2024.2.2,Win32,172.4137931,,,,,,,,,,,,,,,,,,,,,,135.8276,137.2211,l,1,[],[],[],[],[],[],[],0.7384,1,137.2211,137.7168,,,,,,39,FEM,DIS,150,luna,el,a,0.7384,,,,137.7168,137.7168,0.006944444,-0.386111101,0,0,0,,0,3,3,38,1,,,,
,,,,,,84a09f4b3e24ff1a73c15508,66a626ef09d4e21e1a8894ec,6734e0442f4858cc57e7232a,2024-11-13_12h03.16.443,Tarea de género gramatical,2024.2.2,Win32,172.4137931,,,,,,,,,,,,,,,,,,,,,,137.7174,138.7808,l,0,[],[],[],[],[],[],[],0.4071,0,138.7813,139.2804,,,,,,238,MAS,AGR,150,norte,el,l,0.4071,,,,139.2804,139.2805,0.006944444,-0.386111101,0,0,0,,0,4,4,237,1,,,,
,,,,,,84a09f4b3e24ff1a73c15508,66a626ef09d4e21e1a8894ec,6734e0442f4858cc57e7232a,2024-11-13_12h03.16.443,Tarea de género gramatical,2024.2.2,Win32,172.4137931,,,,,,,,,,,,,,,,,,,,,,139.281,140.615,l,1,[],[],[],[],[],[],[],0.6743,1,140.6155,141.1115,,,,,,152,FEM,CON,150,gente,,a,0.6743,,,,141.1116,141.1116,0.006944444,-0.386111101,0,0,0,,0,5,5,151,1,,,,
,,,,,,84a09f4b3e24ff1a73c15508,66a626ef09d4e21e1a8894ec,6734e0442f4858cc57e7232a,2024-11-13_12h03.16.443,Tarea de género gramatical,2024.2.2,Win32,172.4137931,,,,,,,,,,,,,,,,,,,,,,141.1122,142.1755,a,0,[],[],[],[],[],[],[],0.4044,0,142.176,142.6744,,,,,,230,FEM,CON,150,regla,,a,0.4044,,,,142.6753,142.6758,0.006944444,-0.386111101,0,0,0,,0,6,6,229,1,,,,
,,,,,,84a09f4b3e24ff1a73c15508,66a626ef09d4e21e1a8894ec,6734e0442f4858cc57e7232a,2024-11-13_12h03.16.443,Tarea de género gramatical,2024.2.2,Win32,172.4137931,,,,,,,,,,,,,,,,,,,,,,142.6764,143.8634,a,1,[],[],[],[],[],[],[],0.5287,1,143.8639,144.3593,,,,,,4,MAS,AGR,150,hijo,el,l,0.5287,,,,144.3593,144.3593,0.006944444,-0.386111101,0,0,0,,0,7,7,3,1,,,,
,,,,,,84a09f4b3e24ff1a73c15508,66a626ef09d4e21e1a8894ec,6734e0442f4858cc57e7232a,2024-11-13_12h03.16.443,Tarea de género gramatical,2024.2.2,Win32,172.4137931,,,,,,,,,,,,,,,,,,,,,,144.3599,145.3358,l,1,[],[],[],[],[],[],[],0.3163,1,145.3359,145.832,,,,,,399,FEM,DIS,150,charla,el,a,0.3163,,,,145.832,145.8321,0.006944444,-0.386111101,0,0,0,,0,8,8,398,1,,,,
,,,,,,84a09f4b3e24ff1a73c15508,66a626ef09d4e21e1a8894ec,6734e0442f4858cc57e7232a,2024-11-13_12h03.16.443,Tarea de género gramatical,2024.2.2,Win32,172.4137931,,,,,,,,,,,,,,,,,,,,,,145.8326,146.8329,l,1,[],[],[],[],[],[],[],0.3406,1,146.833,147.3289,,,,,,55,FEM,AGR,150,taza,la,a,0.3406,,,,147.3289,147.329,0.006944444,-0.386111101,0,0,0,,0,9,9,54,1,,,,
,,,,,,84a09f4b3e24ff1a73c15508,66a626ef09d4e21e1a8894ec,6734e0442f4858cc57e7232a,2024-11-13_12h03.16.443,Tarea de género gramatical,2024.2.2,Win32,172.4137931,,,,,,,,,,,,,,,,,,,,,,147.3296,148.4695,a,0,[],[],[],[],[],[],[],0.4803,0,148.4699,148.9652,,,,,,67,FEM,AGR,150,miel,la,a,0.4803,,,,148.9653,148.9654,0.006944444,-0.386111101,0,0,0,,0,10,10,66,1,,,,
,,,,,,84a09f4b3e24ff1a73c15508,66a626ef09d4e21e1a8894ec,6734e0442f4858cc57e7232a,2024-11-13_12h03.16.443,Tarea de género gramatical,2024.2.2,Win32,172.4137931,,,,,,,,,,,,,,,,,,,,,,148.9659,150.2969,a,1,[],[],[],[],[],[],[],0.6761,1,150.2973,150.7956,,,,,,444,MAS,DIS,150,límite,la,l,0.6761,,,,150.7966,150.797,0.006944444,-0.386111101,0,0,0,,0,11,11,443,1,,,,
,,,,,,84a09f4b3e24ff1a73c15508,66a626ef09d4e21e1a8894ec,6734e0442f4858cc57e7232a,2024-11-13_12h03.16.443,Tarea de género gramatical,2024.2.2,Win32,172.4137931,,,,,,,,,,,,,,,,,,,,,,150.7975,152.1834,a,1,[],[],[],[],[],[],[],0.7275,1,152.1834,152.6805,,,,,,78,MAS,DIS,150,oído,la,l,0.7275,,,,152.6806,152.6806,0.006944444,-0.386111101,0,0,0,,0,12,12,77,1,,,,
,,,,,,84a09f4b3e24ff1a73c15508,66a626ef09d4e21e1a8894ec,6734e0442f4858cc57e7232a,2024-11-13_12h03.16.443,Tarea de género gramatical,2024.2.2,Win32,172.4137931,,,,,,,,,,,,,,,,,,,,,,152.6811,154.1117,a,1,[],[],[],[],[],[],[],0.7709,1,154.1118,154.6074,,,,,,443,MAS,CON,150,templo,,l,0.7709,,,,154.6074,154.6074,0.006944444,-0.386111101,0,0,0,,0,13,13,442,1,,,,
,,,,,,84a09f4b3e24ff1a73c15508,66a626ef09d4e21e1a8894ec,6734e0442f4858cc57e7232a,2024-11-13_12h03.16.443,Tarea de género gramatical,2024.2.2,Win32,172.4137931,,,,,,,,,,,,,,,,,,,,,,154.608,155.6817,l,1,[],[],[],[],[],[],[],0.4136,1,155.6817,156.1834,,,,,,266,FEM,CON,150,jaula,,a,0.4136,,,,156.1835,156.1835,0.006944444,-0.386111101,0,0,0,,0,14,14,265,1,,,,
,,,,,,84a09f4b3e24ff1a73c15508,66a626ef09d4e21e1a8894ec,6734e0442f4858cc57e7232a,2024-11-13_12h03.16.443,Tarea de género gramatical,2024.2.2,Win32,172.4137931,,,,,,,,,,,,,,,,,,,,,,156.1841,157.257,l,1,[],[],[],[],[],[],[],0.4143,1,157.2571,157.7531,,,,,,381,FEM,DIS,150,bebida,el,a,0.4143,,,,157.754,157.7546,0.006944444,-0.386111101,0,0,0,,0,15,15,380,1,,,,
,,,,,,84a09f4b3e24ff1a73c15508,66a626ef09d4e21e1a8894ec,6734e0442f4858cc57e7232a,2024-11-13_12h03.16.443,Tarea de género gramatical,2024.2.2,Win32,172.4137931,,,,,,,,,,,,,,,,,,,,,,157.7551,158.9421,a,1,[],[],[],[],[],[],[],0.5287,1,158.9422,159.438,,,,,,334,MAS,AGR,150,ataque,el,l,0.5287,,,,159.438,159.4381,0.006944444,-0.386111101,0,0,0,,0,16,16,333,1,,,,
,,,,,,84a09f4b3e24ff1a73c15508,66a626ef09d4e21e1a8894ec,6734e0442f4858cc57e7232a,2024-11-13_12h03.16.443,Tarea de género gramatical,2024.2.2,Win32,172.4137931,,,,,,,,,,,,,,,,,,,,,,159.4389,160.5179,l,1,[],[],[],[],[],[],[],0.4224,1,160.518,161.0199,,,,,,147,FEM,DIS,150,grúa,el,a,0.4224,,,,161.0199,161.0199,0.006944444,-0.386111101,0,0,0,,0,17,17,146,1,,,,
,,,,,,84a09f4b3e24ff1a73c15508,66a626ef09d4e21e1a8894ec,6734e0442f4858cc57e7232a,2024-11-13_12h03.16.443,Tarea de género gramatical,2024.2.2,Win32,172.4137931,,,,,,,,,,,,,,,,,,,,,,161.0205,162.2087,l,1,[],[],[],[],[],[],[],0.5286,1,162.2088,162.7046,,,,,,51,FEM,DIS,150,bala,el,a,0.5286,,,,162.7047,162.7047,0.006944444,-0.386111101,0,0,0,,0,18,18,50,1,,,,
,,,,,,84a09f4b3e24ff1a73c15508,66a626ef09d4e21e1a8894ec,6734e0442f4858cc57e7232a,2024-11-13_12h03.16.443,Tarea de género gramatical,2024.2.2,Win32,172.4137931,,,,,,,,,,,,,,,,,,,,,,162.7057,163.9239,a,1,[],[],[],[],[],[],[],0.5588,1,163.9239,164.4232,,,,,,432,MAS,DIS,150,océano,la,l,0.5588,,,,164.4232,164.4233,0.006944444,-0.386111101,0,0,0,,0,19,19,431,1,,,,
,,,,,,84a09f4b3e24ff1a73c15508,66a626ef09d4e21e1a8894ec,6734e0442f4858cc57e7232a,2024-11-13_12h03.16.443,Tarea de género gramatical,2024.2.2,Win32,172.4137931,,,,,,,,,,,,,,,,,,,,,,164.4238,165.4963,l,1,[],[],[],[],[],[],[],0.4152,1,165.4964,165.9929,,,,,,21,FEM,DIS,150,boca,el,a,0.4152,,,,165.9938,165.9942,0.006944444,-0.386111101,0,0,0,,0,20,20,20,1,,,,
,,,,,,84a09f4b3e24ff1a73c15508,66a626ef09d4e21e1a8894ec,6734e0442f4858cc57e7232a,2024-11-13_12h03.16.443,Tarea de género gramatical,2024.2.2,Win32,172.4137931,,,,,,,,,,,,,,,,,,,,,,165.9946,166.9785,a,1,[],[],[],[],[],[],[],0.3225,1,166.9785,167.4776,,,,,,34,MAS,AGR,150,gato,el,l,0.3225,,,,167.4776,167.4777,0.006944444,-0.386111101,0,0,0,,0,21,21,33,1,,,,
,,,,,,84a09f4b3e24ff1a73c15508,66a626ef09d4e21e1a8894ec,6734e0442f4858cc57e7232a,2024-11-13_12h03.16.443,Tarea de género gramatical,2024.2.2,Win32,172.4137931,,,,,,,,,,,,,,,,,,,,,,167.4789,168.4813,l,0,[],[],[],[],[],[],[],0.3422,0,168.4817,168.9773,,,,,,90,MAS,DIS,150,león,la,l,0.3422,,,,168.9773,168.9773,0.006944444,-0.386111101,0,0,0,,0,22,22,89,1,,,,
,,,,,,84a09f4b3e24ff1a73c15508,66a626ef09d4e21e1a8894ec,6734e0442f4858cc57e7232a,2024-11-13_12h03.16.443,Tarea de género gramatical,2024.2.2,Win32,172.4137931,,,,,,,,,,,,,,,,,,,,,,168.9779,170.0694,l,1,[],[],[],[],[],[],[],0.433,1,170.0699,170.5685,,,,,,373,FEM,AGR,150,lluvia,la,a,0.433,,,,170.5685,170.5685,0.006944444,-0.386111101,0,0,0,,0,23,23,372,1,,,,
,,,,,,84a09f4b3e24ff1a73c15508,66a626ef09d4e21e1a8894ec,6734e0442f4858cc57e7232a,2024-11-13_12h03.16.443,Tarea de género gramatical,2024.2.2,Win32,172.4137931,,,,,,,,,,,,,,,,,,,,,,170.5691,171.7967,a,1,[],[],[],[],[],[],[],0.5649,1,171.7968,172.2925,,,,,,202,MAS,AGR,150,honor,el,l,0.5649,,,,172.2934,172.2939,0.006944444,-0.386111101,0,0,0,,0,24,24,201,1,,,,
,,,,,,84a09f4b3e24ff1a73c15508,66a626ef09d4e21e1a8894ec,6734e0442f4858cc57e7232a,2024-11-13_12h03.16.443,Tarea de género gramatical,2024.2.2,Win32,172.4137931,,,,,,,,,,,,,,,,,,,,,,172.2944,173.4088,l,1,[],[],[],[],[],[],[],0.4559,1,173.4089,173.9046,,,,,,169,FEM,AGR,150,vista,la,a,0.4559,,,,173.9046,173.9047,0.006944444,-0.386111101,0,0,0,,0,25,25,168,1,,,,
,,,,,,84a09f4b3e24ff1a73c15508,66a626ef09d4e21e1a8894ec,6734e0442f4858cc57e7232a,2024-11-13_12h03.16.443,Tarea de género gramatical,2024.2.2,Win32,172.4137931,,,,,,,,,,,,,,,,,,,,,,173.9052,174.9866,a,1,[],[],[],[],[],[],[],0.4206,1,174.9866,175.4866,,,,,,24,MAS,DIS,150,voto,la,l,0.4206,,,,175.4866,175.4866,0.006944444,-0.386111101,0,0,0,,0,26,26,23,1,,,,
,,,,,,84a09f4b3e24ff1a73c15508,66a626ef09d4e21e1a8894ec,6734e0442f4858cc57e7232a,2024-11-13_12h03.16.443,Tarea de género gramatical,2024.2.2,Win32,172.4137931,,,,,,,,,,,,,,,,,,,,,,175.4872,176.724,l,1,[],[],[],[],[],[],[],0.5772,1,176.7241,177.2198,,,,,,159,FEM,DIS,150,clase,el,a,0.5772,,,,177.2198,177.2198,0.006944444,-0.386111101,0,0,0,,0,27,27,158,1,,,,
,,,,,,84a09f4b3e24ff1a73c15508,66a626ef09d4e21e1a8894ec,6734e0442f4858cc57e7232a,2024-11-13_12h03.16.443,Tarea de género gramatical,2024.2.2,Win32,172.4137931,,,,,,,,,,,,,,,,,,,,,,177.2205,178.5359,l,1,[],[],[],[],[],[],[],0.6595,1,178.536,179.032,,,,,,325,FEM,AGR,150,tierra,la,a,0.6595,,,,179.032,179.032,0.006944444,-0.386111101,0,0,0,,0,28,28,324,1,,,,
,,,,,,84a09f4b3e24ff1a73c15508,66a626ef09d4e21e1a8894ec,6734e0442f4858cc57e7232a,2024-11-13_12h03.16.443,Tarea de género gramatical,2024.2.2,Win32,172.4137931,,,,,,,,,,,,,,,,,,,,,,179.0326,180.1251,l,1,[],[],[],[],[],[],[],0.4367,1,180.1251,180.6259,,,,,,224,FEM,CON,150,arena,,a,0.4367,,,,180.6267,180.6272,0.006944444,-0.386111101,0,0,0,,0,29,29,223,1,,,,
,,,,,,84a09f4b3e24ff1a73c15508,66a626ef09d4e21e1a8894ec,6734e0442f4858cc57e7232a,2024-11-13_12h03.16.443,Tarea de género gramatical,2024.2.2,Win32,172.4137931,,,,,,,,,,,,,,,,,,,,,,180.6276,181.6472,a,1,[],[],[],[],[],[],[],0.3584,1,181.6472,182.1471,,,,,,274,MAS,AGR,150,motor,el,l,0.3584,,,,182.1471,182.1471,0.006944444,-0.386111101,0,0,0,,0,30,30,273,1,,,,
,,,,,,84a09f4b3e24ff1a73c15508,66a626ef09d4e21e1a8894ec,6734e0442f4858cc57e7232a,2024-11-13_12h03.16.443,Tarea de género gramatical,2024.2.2,Win32,172.4137931,,,,,,,,,,,,,,,,,,,,,,182.1478,183.2452,l,1,[],[],[],[],[],[],[],0.4377,1,183.2453,183.7471,,,,,,301,FEM,AGR,150,verdad,la,a,0.4377,,,,183.7471,183.7472,0.006944444,-0.386111101,0,0,0,,0,31,31,300,1,,,,
,,,,,,84a09f4b3e24ff1a73c15508,66a626ef09d4e21e1a8894ec,6734e0442f4858cc57e7232a,2024-11-13_12h03.16.443,Tarea de género gramatical,2024.2.2,Win32,172.4137931,,,,,,,,,,,,,,,,,,,,,,183.7477,184.815,l,1,[],[],[],[],[],[],[],0.4075,1,184.815,185.3167,,,,,,193,FEM,AGR,150,bolsa,la,a,0.4075,,,,185.3168,185.3168,0.006944444,-0.386111101,0,0,0,,0,32,32,192,1,,,,
,,,,,,84a09f4b3e24ff1a73c15508,66a626ef09d4e21e1a8894ec,6734e0442f4858cc57e7232a,2024-11-13_12h03.16.443,Tarea de género gramatical,2024.2.2,Win32,172.4137931,,,,,,,,,,,,,,,,,,,,,,185.3175,186.4511,l,1,[],[],[],[],[],[],[],0.4741,1,186.4512,186.947,,,,,,111,FEM,DIS,150,goma,el,a,0.4741,,,,186.9479,186.9483,0.006944444,-0.386111101,0,0,0,,0,33,33,110,1,,,,
,,,,,,84a09f4b3e24ff1a73c15508,66a626ef09d4e21e1a8894ec,6734e0442f4858cc57e7232a,2024-11-13_12h03.16.443,Tarea de género gramatical,2024.2.2,Win32,172.4137931,,,,,,,,,,,,,,,,,,,,,,186.9489,188.0446,l,1,[],[],[],[],[],[],[],0.4372,1,188.0447,188.547,,,,,,296,FEM,CON,150,feria,,a,0.4372,,,,188.5471,188.5471,0.006944444,-0.386111101,0,0,0,,0,34,34,295,1,,,,
,,,,,,84a09f4b3e24ff1a73c15508,66a626ef09d4e21e1a8894ec,6734e0442f4858cc57e7232a,2024-11-13_12h03.16.443,Tarea de género gramatical,2024.2.2,Win32,172.4137931,,,,,,,,,,,,,,,,,,,,,,188.5478,189.6695,l,1,[],[],[],[],[],[],[],0.4621,1,189.6695,190.1652,,,,,,49,FEM,AGR,150,piel,la,a,0.4621,,,,190.1652,190.1652,0.006944444,-0.386111101,0,0,0,,0,35,35,48,1,,,,
,,,,,,84a09f4b3e24ff1a73c15508,66a626ef09d4e21e1a8894ec,6734e0442f4858cc57e7232a,2024-11-13_12h03.16.443,Tarea de género gramatical,2024.2.2,Win32,172.4137931,,,,,,,,,,,,,,,,,,,,,,190.1658,191.272,l,1,[],[],[],[],[],[],[],0.4525,1,191.2721,191.7684,,,,,,326,FEM,CON,150,música,,a,0.4525,,,,191.7685,191.7686,0.006944444,-0.386111101,0,0,0,,0,36,36,325,1,,,,
,,,,,,84a09f4b3e24ff1a73c15508,66a626ef09d4e21e1a8894ec,6734e0442f4858cc57e7232a,2024-11-13_12h03.16.443,Tarea de género gramatical,2024.2.2,Win32,172.4137931,,,,,,,,,,,,,,,,,,,,,,191.7691,192.666,l,1,[],[],[],[],[],[],[],0.2401,1,192.666,193.1625,,,,,,68,FEM,CON,150,pata,,a,0.2401,,,,193.1625,193.1626,0.006944444,-0.386111101,0,0,0,,0,37,37,67,1,,,,
,,,,,,84a09f4b3e24ff1a73c15508,66a626ef09d4e21e1a8894ec,6734e0442f4858cc57e7232a,2024-11-13_12h03.16.443,Tarea de género gramatical,2024.2.2,Win32,172.4137931,,,,,,,,,,,,,,,,,,,,,,193.1632,194.1502,a,1,[],[],[],[],[],[],[],0.3286,1,194.1502,194.6473,,,,,,358,MAS,AGR,150,motivo,el,l,0.3286,,,,194.6482,194.6486,0.006944444,-0.386111101,0,0,0,,0,38,38,357,1,,,,
,,,,,,84a09f4b3e24ff1a73c15508,66a626ef09d4e21e1a8894ec,6734e0442f4858cc57e7232a,2024-11-13_12h03.16.443,Tarea de género gramatical,2024.2.2,Win32,172.4137931,,,,,,,,,,,,,,,,,,,,,,194.6491,195.6048,l,1,[],[],[],[],[],[],[],0.2983,1,195.6049,196.102,,,,,,259,FEM,AGR,150,prima,la,a,0.2983,,,,196.102,196.102,0.006944444,-0.386111101,0,0,0,,0,39,39,258,1,,,,
,,,,,,84a09f4b3e24ff1a73c15508,66a626ef09d4e21e1a8894ec,6734e0442f4858cc57e7232a,2024-11-13_12h03.16.443,Tarea de género gramatical,2024.2.2,Win32,172.4137931,,,,,,,,,,,,,,,,,,,,,,196.1027,197.1235,l,1,[],[],[],[],[],[],[],0.3644,1,197.1236,197.6195,,,,,,319,FEM,AGR,150,sangre,la,a,0.3644,,,,197.6196,197.6196,0.006944444,-0.386111101,0,0,0,,0,40,40,318,1,,,,
,,,,,,84a09f4b3e24ff1a73c15508,66a626ef09d4e21e1a8894ec,6734e0442f4858cc57e7232a,2024-11-13_12h03.16.443,Tarea de género gramatical,2024.2.2,Win32,172.4137931,,,,,,,,,,,,,,,,,,,,,,197.62,198.6693,l,1,[],[],[],[],[],[],[],0.3891,1,198.6693,199.1652,,,,,,104,FEM,CON,150,vela,,a,0.3891,,,,199.1653,199.1653,0.006944444,-0.386111101,0,0,0,,0,41,41,103,1,,,,
,,,,,,84a09f4b3e24ff1a73c15508,66a626ef09d4e21e1a8894ec,6734e0442f4858cc57e7232a,2024-11-13_12h03.16.443,Tarea de género gramatical,2024.2.2,Win32,172.4137931,,,,,,,,,,,,,,,,,,,,,,199.1659,200.2452,a,1,[],[],[],[],[],[],[],0.4196,1,200.2452,200.7409,,,,,,390,MAS,DIS,150,rostro,la,l,0.4196,,,,200.7416,200.7421,0.006944444,-0.386111101,0,0,0,,0,42,42,389,1,,,,
,,,,,,84a09f4b3e24ff1a73c15508,66a626ef09d4e21e1a8894ec,6734e0442f4858cc57e7232a,2024-11-13_12h03.16.443,Tarea de género gramatical,2024.2.2,Win32,172.4137931,,,,,,,,,,,,,,,,,,,,,,200.7425,201.6268,l,1,[],[],[],[],[],[],[],0.229,1,201.6268,202.1228,,,,,,253,FEM,AGR,150,aldea,la,a,0.229,,,,202.1229,202.123,0.006944444,-0.386111101,0,0,0,,0,43,43,252,1,,,,
,,,,,,84a09f4b3e24ff1a73c15508,66a626ef09d4e21e1a8894ec,6734e0442f4858cc57e7232a,2024-11-13_12h03.16.443,Tarea de género gramatical,2024.2.2,Win32,172.4137931,,,,,,,,,,,,,,,,,,,,,,202.1235,203.2411,l,1,[],[],[],[],[],[],[],0.4613,1,203.2411,203.7409,,,,,,45,FEM,DIS,150,isla,el,a,0.4613,,,,203.741,203.741,0.006944444,-0.386111101,0,0,0,,0,44,44,44,1,,,,
,,,,,,84a09f4b3e24ff1a73c15508,66a626ef09d4e21e1a8894ec,6734e0442f4858cc57e7232a,2024-11-13_12h03.16.443,Tarea de género gramatical,2024.2.2,Win32,172.4137931,,,,,,,,,,,,,,,,,,,,,,203.7419,204.7298,a,1,[],[],[],[],[],[],[],0.3286,1,204.7298,205.2258,,,,,,65,MAS,CON,150,rayo,,l,0.3286,,,,205.2258,205.2259,0.006944444,-0.386111101,0,0,0,,0,45,45,64,1,,,,
,,,,,,84a09f4b3e24ff1a73c15508,66a626ef09d4e21e1a8894ec,6734e0442f4858cc57e7232a,2024-11-13_12h03.16.443,Tarea de género gramatical,2024.2.2,Win32,172.4137931,,,,,,,,,,,,,,,,,,,,,,205.2264,206.2148,l,1,[],[],[],[],[],[],[],0.3286,1,206.2148,206.7107,,,,,,134,FEM,CON,150,rama,,a,0.3286,,,,206.7107,206.7107,0.006944444,-0.386111101,0,0,0,,0,46,46,133,1,,,,
,,,,,,84a09f4b3e24ff1a73c15508,66a626ef09d4e21e1a8894ec,6734e0442f4858cc57e7232a,2024-11-13_12h03.16.443,Tarea de género gramatical,2024.2.2,Win32,172.4137931,,,,,,,,,,,,,,,,,,,,,,206.7112,207.6778,l,1,[],[],[],[],[],[],[],0.3068,1,207.6779,208.1773,,,,,,249,FEM,DIS,150,crema,el,a,0.3068,,,,208.1781,208.1785,0.006944444,-0.386111101,0,0,0,,0,47,47,248,1,,,,
,,,,,,84a09f4b3e24ff1a73c15508,66a626ef09d4e21e1a8894ec,6734e0442f4858cc57e7232a,2024-11-13_12h03.16.443,Tarea de género gramatical,2024.2.2,Win32,172.4137931,,,,,,,,,,,,,,,,,,,,,,208.1789,209.1501,l,1,[],[],[],[],[],[],[],0.3124,1,209.1502,209.6501,,,,,,38,FEM,CON,150,obra,,a,0.3124,,,,209.6501,209.6501,0.006944444,-0.386111101,0,0,0,,0,48,48,37,1,,,,
,,,,,,84a09f4b3e24ff1a73c15508,66a626ef09d4e21e1a8894ec,6734e0442f4858cc57e7232a,2024-11-13_12h03.16.443,Tarea de género gramatical,2024.2.2,Win32,172.4137931,,,,,,,,,,,,,,,,,,,,,,209.6507,210.6249,l,1,[],[],[],[],[],[],[],0.3145,1,210.625,211.1229,,,,,,8,FEM,CON,150,idea,,a,0.3145,,,,211.1229,211.1229,0.006944444,-0.386111101,0,0,0,,0,49,49,7,1,,,,
,,,,,,84a09f4b3e24ff1a73c15508,66a626ef09d4e21e1a8894ec,6734e0442f4858cc57e7232a,2024-11-13_12h03.16.443,Tarea de género gramatical,2024.2.2,Win32,172.4137931,,,,,,,,,,,,,,,,,,,,,,211.1235,212.1543,l,1,[],[],[],[],[],[],[],0.3711,1,212.1543,212.6561,,,,,,289,FEM,AGR,150,tabla,la,a,0.3711,,,,212.6562,212.6562,0.006944444,-0.386111101,0,0,0,,0,50,50,288,1,,,,
,,,,,,84a09f4b3e24ff1a73c15508,66a626ef09d4e21e1a8894ec,6734e0442f4858cc57e7232a,2024-11-13_12h03.16.443,Tarea de género gramatical,2024.2.2,Win32,172.4137931,,,,,,,,,,,,,,,,,,,,,,212.6568,213.5989,a,1,[],[],[],[],[],[],[],0.286,1,213.599,214.0956,,,,,,354,MAS,DIS,150,camión,la,l,0.286,,,,214.0964,214.0969,0.006944444,-0.386111101,0,0,0,,0,51,51,353,1,,,,
,,,,,,84a09f4b3e24ff1a73c15508,66a626ef09d4e21e1a8894ec,6734e0442f4858cc57e7232a,2024-11-13_12h03.16.443,Tarea de género gramatical,2024.2.2,Win32,172.4137931,,,,,,,,,,,,,,,,,,,,,,214.0973,215.045,a,1,[],[],[],[],[],[],[],0.2861,1,215.0451,215.5468,,,,,,168,MAS,DIS,150,sitio,la,l,0.2861,,,,215.5469,215.547,0.006944444,-0.386111101,0,0,0,,0,52,52,167,1,,,,
,,,,,,84a09f4b3e24ff1a73c15508,66a626ef09d4e21e1a8894ec,6734e0442f4858cc57e7232a,2024-11-13_12h03.16.443,Tarea de género gramatical,2024.2.2,Win32,172.4137931,,,,,,,,,,,,,,,,,,,,,,215.5476,216.5117,l,1,[],[],[],[],[],[],[],0.3081,1,216.5118,217.0075,,,,,,7,FEM,AGR,150,hora,la,a,0.3081,,,,217.0076,217.0077,0.006944444,-0.386111101,0,0,0,,0,53,53,6,1,,,,
,,,,,,84a09f4b3e24ff1a73c15508,66a626ef09d4e21e1a8894ec,6734e0442f4858cc57e7232a,2024-11-13_12h03.16.443,Tarea de género gramatical,2024.2.2,Win32,172.4137931,,,,,,,,,,,,,,,,,,,,,,217.0082,217.9299,l,1,[],[],[],[],[],[],[],0.2619,1,217.93,218.4258,,,,,,211,FEM,AGR,150,salud,la,a,0.2619,,,,218.4258,218.4258,0.006944444,-0.386111101,0,0,0,,0,54,54,210,1,,,,
,,,,,,84a09f4b3e24ff1a73c15508,66a626ef09d4e21e1a8894ec,6734e0442f4858cc57e7232a,2024-11-13_12h03.16.443,Tarea de género gramatical,2024.2.2,Win32,172.4137931,,,,,,,,,,,,,,,,,,,,,,218.4264,219.5661,l,1,[],[],[],[],[],[],[],0.48,1,219.5662,220.0682,,,,,,98,FEM,CON,150,fuga,,a,0.48,,,,220.0682,220.0682,0.006944444,-0.386111101,0,0,0,,0,55,55,97,1,,,,
,,,,,,84a09f4b3e24ff1a73c15508,66a626ef09d4e21e1a8894ec,6734e0442f4858cc57e7232a,2024-11-13_12h03.16.443,Tarea de género gramatical,2024.2.2,Win32,172.4137931,,,,,,,,,,,,,,,,,,,,,,220.0688,221.1359,l,1,[],[],[],[],[],[],[],0.4075,1,221.136,221.6318,,,,,,43,FEM,AGR,150,nena,la,a,0.4075,,,,221.6326,221.633,0.006944444,-0.386111101,0,0,0,,0,56,56,42,1,,,,
,,,,,,84a09f4b3e24ff1a73c15508,66a626ef09d4e21e1a8894ec,6734e0442f4858cc57e7232a,2024-11-13_12h03.16.443,Tarea de género gramatical,2024.2.2,Win32,172.4137931,,,,,,,,,,,,,,,,,,,,,,221.6334,222.5686,l,1,[],[],[],[],[],[],[],0.28,1,222.5687,223.0654,,,,,,110,FEM,CON,150,rosa,,a,0.28,,,,223.0654,223.0655,0.006944444,-0.386111101,0,0,0,,0,57,57,109,1,,,,
,,,,,,84a09f4b3e24ff1a73c15508,66a626ef09d4e21e1a8894ec,6734e0442f4858cc57e7232a,2024-11-13_12h03.16.443,Tarea de género gramatical,2024.2.2,Win32,172.4137931,,,,,,,,,,,,,,,,,,,,,,223.066,224.0268,a,1,[],[],[],[],[],[],[],0.3043,1,224.0268,224.5228,,,,,,395,MAS,CON,150,correo,,l,0.3043,,,,224.5228,224.5228,0.006944444,-0.386111101,0,0,0,,0,58,58,394,1,,,,
,,,,,,84a09f4b3e24ff1a73c15508,66a626ef09d4e21e1a8894ec,6734e0442f4858cc57e7232a,2024-11-13_12h03.16.443,Tarea de género gramatical,2024.2.2,Win32,172.4137931,,,,,,,,,,,,,,,,,,,,,,224.5235,225.4089,l,1,[],[],[],[],[],[],[],0.2257,1,225.4089,225.9106,,,,,,171,FEM,DIS,150,mitad,el,a,0.2257,,,,225.9106,225.9107,0.006944444,-0.386111101,0,0,0,,0,59,59,170,1,,,,
,,,,,,84a09f4b3e24ff1a73c15508,66a626ef09d4e21e1a8894ec,6734e0442f4858cc57e7232a,2024-11-13_12h03.16.443,Tarea de género gramatical,2024.2.2,Win32,172.4137931,,,,,,,,,,,,,,,,,,,,,,225.9113,226.8509,a,1,[],[],[],[],[],[],[],0.28,1,226.8509,227.347,,,,,,208,MAS,AGR,150,suelo,el,l,0.28,,,,227.3477,227.3482,0.006944444,-0.386111101,0,0,0,,0,60,60,207,1,,,,
,,,,,,84a09f4b3e24ff1a73c15508,66a626ef09d4e21e1a8894ec,6734e0442f4858cc57e7232a,2024-11-13_12h03.16.443,Tarea de género gramatical,2024.2.2,Win32,172.4137931,,,,,,,,,,,,,,,,,,,,,,227.3487,228.3909,a,1,[],[],[],[],[],[],[],0.3835,1,228.3909,228.8924,,,,,,119,MAS,CON,150,mito,,l,0.3835,,,,228.8924,228.8924,0.006944444,-0.386111101,0,0,0,,0,61,61,118,1,,,,
,,,,,,84a09f4b3e24ff1a73c15508,66a626ef09d4e21e1a8894ec,6734e0442f4858cc57e7232a,2024-11-13_12h03.16.443,Tarea de género gramatical,2024.2.2,Win32,172.4137931,,,,,,,,,,,,,,,,,,,,,,228.893,229.7824,l,1,[],[],[],[],[],[],[],0.2293,1,229.7825,230.2802,,,,,,62,FEM,CON,150,sopa,,a,0.2293,,,,230.2803,230.2804,0.006944444,-0.386111101,0,0,0,,0,62,62,61,1,,,,
,,,,,,84a09f4b3e24ff1a73c15508,66a626ef09d4e21e1a8894ec,6734e0442f4858cc57e7232a,2024-11-13_12h03.16.443,Tarea de género gramatical,2024.2.2,Win32,172.4137931,,,,,,,,,,,,,,,,,,,,,,230.281,231.2089,l,1,[],[],[],[],[],[],[],0.2683,1,231.2089,231.7107,,,,,,355,FEM,AGR,150,mirada,la,a,0.2683,,,,231.7107,231.7108,0.006944444,-0.386111101,0,0,0,,0,63,63,354,1,,,,
,,,,,,84a09f4b3e24ff1a73c15508,66a626ef09d4e21e1a8894ec,6734e0442f4858cc57e7232a,2024-11-13_12h03.16.443,Tarea de género gramatical,2024.2.2,Win32,172.4137931,,,,,,,,,,,,,,,,,,,,,,231.7114,232.7966,a,1,[],[],[],[],[],[],[],0.4294,1,232.7967,233.2925,,,,,,233,MAS,CON,150,golpe,,l,0.4294,,,,233.2925,233.2925,0.006944444,-0.386111101,0,0,0,,0,64,64,232,1,,,,
,,,,,,84a09f4b3e24ff1a73c15508,66a626ef09d4e21e1a8894ec,6734e0442f4858cc57e7232a,2024-11-13_12h03.16.443,Tarea de género gramatical,2024.2.2,Win32,172.4137931,,,,,,,,,,,,,,,,,,,,,,233.2931,234.2636,l,1,[],[],[],[],[],[],[],0.3107,1,234.2637,234.7592,,,,,,285,FEM,DIS,150,mafia,el,a,0.3107,,,,234.7599,234.7603,0.006944444,-0.386111101,0,0,0,,0,65,65,284,1,,,,
,,,,,,84a09f4b3e24ff1a73c15508,66a626ef09d4e21e1a8894ec,6734e0442f4858cc57e7232a,2024-11-13_12h03.16.443,Tarea de género gramatical,2024.2.2,Win32,172.4137931,,,,,,,,,,,,,,,,,,,,,,234.7607,235.6935,l,1,[],[],[],[],[],[],[],0.2741,1,235.6936,236.1894,,,,,,163,FEM,AGR,150,calle,la,a,0.2741,,,,236.1894,236.1895,0.006944444,-0.386111101,0,0,0,,0,66,66,162,1,,,,
,,,,,,84a09f4b3e24ff1a73c15508,66a626ef09d4e21e1a8894ec,6734e0442f4858cc57e7232a,2024-11-13_12h03.16.443,Tarea de género gramatical,2024.2.2,Win32,172.4137931,,,,,,,,,,,,,,,,,,,,,,236.1902,237.148,a,1,[],[],[],[],[],[],[],0.2982,1,237.148,237.6439,,,,,,286,MAS,AGR,150,reino,el,l,0.2982,,,,237.644,237.644,0.006944444,-0.386111101,0,0,0,,0,67,67,285,1,,,,
,,,,,,84a09f4b3e24ff1a73c15508,66a626ef09d4e21e1a8894ec,6734e0442f4858cc57e7232a,2024-11-13_12h03.16.443,Tarea de género gramatical,2024.2.2,Win32,172.4137931,,,,,,,,,,,,,,,,,,,,,,237.6446,238.657,a,1,[],[],[],[],[],[],[],0.3526,1,238.6571,239.153,,,,,,353,MAS,CON,150,verano,,l,0.3526,,,,239.153,239.1531,0.006944444,-0.386111101,0,0,0,,0,68,68,352,1,,,,
,,,,,,84a09f4b3e24ff1a73c15508,66a626ef09d4e21e1a8894ec,6734e0442f4858cc57e7232a,2024-11-13_12h03.16.443,Tarea de género gramatical,2024.2.2,Win32,172.4137931,,,,,,,,,,,,,,,,,,,,,,239.1537,240.0751,l,1,[],[],[],[],[],[],[],0.2654,1,240.0751,240.5712,,,,,,415,FEM,AGR,150,cabina,la,a,0.2654,,,,240.572,240.5725,0.006944444,-0.386111101,0,0,0,,0,69,69,414,1,,,,
,,,,,,84a09f4b3e24ff1a73c15508,66a626ef09d4e21e1a8894ec,6734e0442f4858cc57e7232a,2024-11-13_12h03.16.443,Tarea de género gramatical,2024.2.2,Win32,172.4137931,,,,,,,,,,,,,,,,,,,,,,240.5729,241.8752,a,1,[],[],[],[],[],[],[],0.6436,1,241.8752,242.3713,,,,,,113,MAS,CON,150,toro,,l,0.6436,,,,242.3714,242.3714,0.006944444,-0.386111101,0,0,0,,0,70,70,112,1,,,,
,,,,,,84a09f4b3e24ff1a73c15508,66a626ef09d4e21e1a8894ec,6734e0442f4858cc57e7232a,2024-11-13_12h03.16.443,Tarea de género gramatical,2024.2.2,Win32,172.4137931,,,,,,,,,,,,,,,,,,,,,,242.3719,243.5121,a,0,[],[],[],[],[],[],[],0.4805,0,243.5128,244.0123,,,,,,115,FEM,AGR,150,seda,la,a,0.4805,,,,244.0123,244.0124,0.006944444,-0.386111101,0,0,0,,0,71,71,114,1,,,,
,,,,,,84a09f4b3e24ff1a73c15508,66a626ef09d4e21e1a8894ec,6734e0442f4858cc57e7232a,2024-11-13_12h03.16.443,Tarea de género gramatical,2024.2.2,Win32,172.4137931,,,,,,,,,,,,,,,,,,,,,,244.013,245.0023,l,1,[],[],[],[],[],[],[],0.3284,1,245.0028,245.5018,,,,,,37,FEM,AGR,150,sala,la,a,0.3284,,,,245.5018,245.5018,0.006944444,-0.386111101,0,0,0,,0,72,72,36,1,,,,
,,,,,,84a09f4b3e24ff1a73c15508,66a626ef09d4e21e1a8894ec,6734e0442f4858cc57e7232a,2024-11-13_12h03.16.443,Tarea de género gramatical,2024.2.2,Win32,172.4137931,,,,,,,,,,,,,,,,,,,,,,245.5024,246.6087,a,1,[],[],[],[],[],[],[],0.4438,1,246.6087,247.1046,,,,,,288,MAS,DIS,150,grado,la,l,0.4438,,,,247.1046,247.1047,0.006944444,-0.386111101,0,0,0,,0,73,73,287,1,,,,
,,,,,,84a09f4b3e24ff1a73c15508,66a626ef09d4e21e1a8894ec,6734e0442f4858cc57e7232a,2024-11-13_12h03.16.443,Tarea de género gramatical,2024.2.2,Win32,172.4137931,,,,,,,,,,,,,,,,,,,,,,247.1052,248.1659,a,1,[],[],[],[],[],[],[],0.401,1,248.166,248.6622,,,,,,244,MAS,AGR,150,hielo,el,l,0.401,,,,248.6629,248.6634,0.006944444,-0.386111101,0,0,0,,0,74,74,243,1,,,,
,,,,,,84a09f4b3e24ff1a73c15508,66a626ef09d4e21e1a8894ec,6734e0442f4858cc57e7232a,2024-11-13_12h03.16.443,Tarea de género gramatical,2024.2.2,Win32,172.4137931,,,,,,,,,,,,,,,,,,,,,,248.6639,249.6754,a,1,[],[],[],[],[],[],[],0.3528,1,249.6754,250.1711,,,,,,196,MAS,AGR,150,barco,el,l,0.3528,,,,250.1711,250.1712,0.006944444,-0.386111101,0,0,0,,0,75,75,195,1,,,,
,,,,,,84a09f4b3e24ff1a73c15508,66a626ef09d4e21e1a8894ec,6734e0442f4858cc57e7232a,2024-11-13_12h03.16.443,Tarea de género gramatical,2024.2.2,Win32,172.4137931,,,,,,,,,,,,,,,,,,,,,,250.1718,251.144,l,1,[],[],[],[],[],[],[],0.3109,1,251.1441,251.6439,,,,,,63,FEM,DIS,150,fila,el,a,0.3109,,,,251.644,251.644,0.006944444,-0.386111101,0,0,0,,0,76,76,62,1,,,,
,,,,,,84a09f4b3e24ff1a73c15508,66a626ef09d4e21e1a8894ec,6734e0442f4858cc57e7232a,2024-11-13_12h03.16.443,Tarea de género gramatical,2024.2.2,Win32,172.4137931,,,,,,,,,,,,,,,,,,,,,,251.6445,252.6754,l,1,[],[],[],[],[],[],[],0.371,1,252.6754,253.1712,,,,,,422,FEM,CON,150,rutina,,a,0.371,,,,253.1712,253.1713,0.006944444,-0.386111101,0,0,0,,0,77,77,421,1,,,,
,,,,,,84a09f4b3e24ff1a73c15508,66a626ef09d4e21e1a8894ec,6734e0442f4858cc57e7232a,2024-11-13_12h03.16.443,Tarea de género gramatical,2024.2.2,Win32,172.4137931,,,,,,,,,,,,,,,,,,,,,,253.1719,254.13,l,1,[],[],[],[],[],[],[],0.2984,1,254.1301,254.629,,,,,,217,FEM,AGR,150,tarea,la,a,0.2984,,,,254.6298,254.6305,0.006944444,-0.386111101,0,0,0,,0,78,78,216,1,,,,
,,,,,,84a09f4b3e24ff1a73c15508,66a626ef09d4e21e1a8894ec,6734e0442f4858cc57e7232a,2024-11-13_12h03.16.443,Tarea de género gramatical,2024.2.2,Win32,172.4137931,,,,,,,,,,,,,,,,,,,,,,254.6312,255.6328,l,1,[],[],[],[],[],[],[],0.3407,1,255.6328,256.1287,,,,,,385,FEM,AGR,150,muñeca,la,a,0.3407,,,,256.1288,256.1288,0.006944444,-0.386111101,0,0,0,,0,79,79,384,1,,,,
,,,,,,84a09f4b3e24ff1a73c15508,66a626ef09d4e21e1a8894ec,6734e0442f4858cc57e7232a,2024-11-13_12h03.16.443,Tarea de género gramatical,2024.2.2,Win32,172.4137931,,,,,,,,,,,,,,,,,,,,,,256.1294,257.0933,l,1,[],[],[],[],[],[],[],0.3042,1,257.0933,257.5953,,,,,,351,FEM,DIS,150,espada,el,a,0.3042,,,,257.5954,257.5954,0.006944444,-0.386111101,0,0,0,,0,80,80,350,1,,,,
,,,,,,84a09f4b3e24ff1a73c15508,66a626ef09d4e21e1a8894ec,6734e0442f4858cc57e7232a,2024-11-13_12h03.16.443,Tarea de género gramatical,2024.2.2,Win32,172.4137931,,,,,,,,,,,,,,,,,,,,,,257.596,258.6451,a,0,[],[],[],[],[],[],[],0.3929,0,258.6456,259.1409,,,,,,255,FEM,DIS,150,tribu,el,a,0.3929,,,,259.1409,259.141,0.006944444,-0.386111101,0,0,0,,0,81,81,254,1,,,,
,,,,,,84a09f4b3e24ff1a73c15508,66a626ef09d4e21e1a8894ec,6734e0442f4858cc57e7232a,2024-11-13_12h03.16.443,Tarea de género gramatical,2024.2.2,Win32,172.4137931,,,,,,,,,,,,,,,,,,,,,,259.1416,260.338,l,1,[],[],[],[],[],[],[],0.5353,1,260.3384,260.8379,,,,,,123,FEM,DIS,150,tela,el,a,0.5353,,,,260.8379,260.838,0.006944444,-0.386111101,0,0,0,,0,82,82,122,1,,,,
,,,,,,84a09f4b3e24ff1a73c15508,66a626ef09d4e21e1a8894ec,6734e0442f4858cc57e7232a,2024-11-13_12h03.16.443,Tarea de género gramatical,2024.2.2,Win32,172.4137931,,,,,,,,,,,,,,,,,,,,,,260.8385,261.8449,l,1,[],[],[],[],[],[],[],0.3466,1,261.845,262.341,,,,,,61,FEM,AGR,150,ruta,la,a,0.3466,,,,262.3417,262.3421,0.006944444,-0.386111101,0,0,0,,0,83,83,60,1,,,,
,,,,,,84a09f4b3e24ff1a73c15508,66a626ef09d4e21e1a8894ec,6734e0442f4858cc57e7232a,2024-11-13_12h03.16.443,Tarea de género gramatical,2024.2.2,Win32,172.4137931,,,,,,,,,,,,,,,,,,,,,,262.3426,263.3237,l,1,[],[],[],[],[],[],[],0.3261,1,263.3238,263.8197,,,,,,314,FEM,CON,150,señora,,a,0.3261,,,,263.8197,263.8198,0.006944444,-0.386111101,0,0,0,,0,84,84,313,1,,,,
,,,,,,84a09f4b3e24ff1a73c15508,66a626ef09d4e21e1a8894ec,6734e0442f4858cc57e7232a,2024-11-13_12h03.16.443,Tarea de género gramatical,2024.2.2,Win32,172.4137931,,,,,,,,,,,,,,,,,,,,,,263.8202,264.742,l,1,[],[],[],[],[],[],[],0.2619,1,264.742,265.2439,,,,,,260,FEM,CON,150,barra,,a,0.2619,,,,265.2439,265.244,0.006944444,-0.386111101,0,0,0,,0,85,85,259,1,,,,
,,,,,,84a09f4b3e24ff1a73c15508,66a626ef09d4e21e1a8894ec,6734e0442f4858cc57e7232a,2024-11-13_12h03.16.443,Tarea de género gramatical,2024.2.2,Win32,172.4137931,,,,,,,,,,,,,,,,,,,,,,265.2445,266.3239,l,1,[],[],[],[],[],[],[],0.4196,1,266.324,266.8197,,,,,,261,FEM,DIS,150,cueva,el,a,0.4196,,,,266.8197,266.8198,0.006944444,-0.386111101,0,0,0,,0,86,86,260,1,,,,
,,,,,,84a09f4b3e24ff1a73c15508,66a626ef09d4e21e1a8894ec,6734e0442f4858cc57e7232a,2024-11-13_12h03.16.443,Tarea de género gramatical,2024.2.2,Win32,172.4137931,,,,,,,,,,,,,,,,,,,,,,266.8203,267.9239,a,1,[],[],[],[],[],[],[],0.4438,1,267.9239,268.4196,,,,,,436,MAS,AGR,150,objeto,el,l,0.4438,,,,268.4205,268.4209,0.006944444,-0.386111101,0,0,0,,0,87,87,435,1,,,,
,,,,,,84a09f4b3e24ff1a73c15508,66a626ef09d4e21e1a8894ec,6734e0442f4858cc57e7232a,2024-11-13_12h03.16.443,Tarea de género gramatical,2024.2.2,Win32,172.4137931,,,,,,,,,,,,,,,,,,,,,,268.4213,269.3601,a,1,[],[],[],[],[],[],[],0.2802,1,269.3602,269.8561,,,,,,437,MAS,CON,150,hombro,,l,0.2802,,,,269.8561,269.8561,0.006944444,-0.386111101,0,0,0,,0,88,88,436,1,,,,
,,,,,,84a09f4b3e24ff1a73c15508,66a626ef09d4e21e1a8894ec,6734e0442f4858cc57e7232a,2024-11-13_12h03.16.443,Tarea de género gramatical,2024.2.2,Win32,172.4137931,,,,,,,,,,,,,,,,,,,,,,269.8567,270.8389,l,0,[],[],[],[],[],[],[],0.3228,0,270.84,271.3349,,,,,,124,MAS,AGR,150,clan,el,l,0.3228,,,,271.3349,271.335,0.006944444,-0.386111101,0,0,0,,0,89,89,123,1,,,,
,,,,,,84a09f4b3e24ff1a73c15508,66a626ef09d4e21e1a8894ec,6734e0442f4858cc57e7232a,2024-11-13_12h03.16.443,Tarea de género gramatical,2024.2.2,Win32,172.4137931,,,,,,,,,,,,,,,,,,,,,,271.3355,272.3463,l,1,[],[],[],[],[],[],[],0.3547,1,272.3466,272.8439,,,,,,164,FEM,CON,150,novia,,a,0.3547,,,,272.8439,272.844,0.006944444,-0.386111101,0,0,0,,0,90,90,163,1,,,,
,,,,,,84a09f4b3e24ff1a73c15508,66a626ef09d4e21e1a8894ec,6734e0442f4858cc57e7232a,2024-11-13_12h03.16.443,Tarea de género gramatical,2024.2.2,Win32,172.4137931,,,,,,,,,,,,,,,,,,,,,,272.8445,273.8391,l,1,[],[],[],[],[],[],[],0.3347,1,273.8391,274.335,,,,,,398,FEM,CON,150,hierba,,a,0.3347,,,,274.335,274.335,0.006944444,-0.386111101,0,0,0,,0,91,91,397,1,,,,
,,,,,,84a09f4b3e24ff1a73c15508,66a626ef09d4e21e1a8894ec,6734e0442f4858cc57e7232a,2024-11-13_12h03.16.443,Tarea de género gramatical,2024.2.2,Win32,172.4137931,,,,,,,,,,,,,,,,,,,,,,274.3356,275.2205,l,1,[],[],[],[],[],[],[],0.2253,1,275.2205,275.7226,,,,,,15,FEM,DIS,150,cama,el,a,0.2253,,,,275.7233,275.7238,0.006944444,-0.386111101,0,0,0,,0,92,92,14,1,,,,
,,,,,,84a09f4b3e24ff1a73c15508,66a626ef09d4e21e1a8894ec,6734e0442f4858cc57e7232a,2024-11-13_12h03.16.443,Tarea de género gramatical,2024.2.2,Win32,172.4137931,,,,,,,,,,,,,,,,,,,,,,275.7242,276.5659,l,1,[],[],[],[],[],[],[],0.1828,1,276.5661,277.0653,,,,,,236,FEM,CON,150,deuda,,a,0.1828,,,,277.0654,277.0654,0.006944444,-0.386111101,0,0,0,,0,93,93,235,1,,,,
,,,,,,84a09f4b3e24ff1a73c15508,66a626ef09d4e21e1a8894ec,6734e0442f4858cc57e7232a,2024-11-13_12h03.16.443,Tarea de género gramatical,2024.2.2,Win32,172.4137931,,,,,,,,,,,,,,,,,,,,,,277.0659,277.9966,a,1,[],[],[],[],[],[],[],0.274,1,277.9966,278.4924,,,,,,209,MAS,CON,150,banco,,l,0.274,,,,278.4924,278.4924,0.006944444,-0.386111101,0,0,0,,0,94,94,208,1,,,,
,,,,,,84a09f4b3e24ff1a73c15508,66a626ef09d4e21e1a8894ec,6734e0442f4858cc57e7232a,2024-11-13_12h03.16.443,Tarea de género gramatical,2024.2.2,Win32,172.4137931,,,,,,,,,,,,,,,,,,,,,,278.4929,279.4936,l,1,[],[],[],[],[],[],[],0.3409,1,279.4936,279.9893,,,,,,404,FEM,CON,150,gloria,,a,0.3409,,,,279.9894,279.9895,0.006944444,-0.386111101,0,0,0,,0,95,95,403,1,,,,
,,,,,,84a09f4b3e24ff1a73c15508,66a626ef09d4e21e1a8894ec,6734e0442f4858cc57e7232a,2024-11-13_12h03.16.443,Tarea de género gramatical,2024.2.2,Win32,172.4137931,,,,,,,,,,,,,,,,,,,,,,279.99,281.1322,l,1,[],[],[],[],[],[],[],0.4861,1,281.1323,281.6318,,,,,,74,FEM,CON,150,flor,,a,0.4861,,,,281.6326,281.6331,0.006944444,-0.386111101,0,0,0,,0,96,96,73,1,,,,
,,,,,,84a09f4b3e24ff1a73c15508,66a626ef09d4e21e1a8894ec,6734e0442f4858cc57e7232a,2024-11-13_12h03.16.443,Tarea de género gramatical,2024.2.2,Win32,172.4137931,,,,,,,,,,,,,,,,,,,,,,281.6335,282.5966,a,1,[],[],[],[],[],[],[],0.3044,1,282.5966,283.0986,,,,,,203,MAS,CON,150,novio,,l,0.3044,,,,283.0986,283.0986,0.006944444,-0.386111101,0,0,0,,0,97,97,202,1,,,,
,,,,,,84a09f4b3e24ff1a73c15508,66a626ef09d4e21e1a8894ec,6734e0442f4858cc57e7232a,2024-11-13_12h03.16.443,Tarea de género gramatical,2024.2.2,Win32,172.4137931,,,,,,,,,,,,,,,,,,,,,,283.0992,284.1359,a,1,[],[],[],[],[],[],[],0.377,1,284.1359,284.6379,,,,,,72,MAS,DIS,150,hoyo,la,l,0.377,,,,284.6379,284.6379,0.006944444,-0.386111101,0,0,0,,0,98,98,71,1,,,,
,,,,,,84a09f4b3e24ff1a73c15508,66a626ef09d4e21e1a8894ec,6734e0442f4858cc57e7232a,2024-11-13_12h03.16.443,Tarea de género gramatical,2024.2.2,Win32,172.4137931,,,,,,,,,,,,,,,,,,,,,,284.6384,285.6209,a,1,[],[],[],[],[],[],[],0.3263,1,285.6209,286.1227,,,,,,317,MAS,CON,150,número,,l,0.3263,,,,286.1228,286.1228,0.006944444,-0.386111101,0,0,0,,0,99,99,316,1,,,,
,,,,,,84a09f4b3e24ff1a73c15508,66a626ef09d4e21e1a8894ec,6734e0442f4858cc57e7232a,2024-11-13_12h03.16.443,Tarea de género gramatical,2024.2.2,Win32,172.4137931,,,,,,,,,,,,,,,,,,,,,,286.1234,287.1087,l,1,[],[],[],[],[],[],[],0.3257,1,287.1088,287.6075,,,,,,97,FEM,AGR,150,capa,la,a,0.3257,,,,287.6075,287.6076,0.006944444,-0.386111101,0,0,0,,0,100,100,96,1,,,,
,,,,,,84a09f4b3e24ff1a73c15508,66a626ef09d4e21e1a8894ec,6734e0442f4858cc57e7232a,2024-11-13_12h03.16.443,Tarea de género gramatical,2024.2.2,Win32,172.4137931,,,,,,,,,,,,,,,,,,,,,,287.6082,288.6052,a,1,[],[],[],[],[],[],[],0.3373,1,288.6053,289.1045,,,,,,228,MAS,DIS,150,nivel,la,l,0.3373,,,,289.1053,289.1058,0.006944444,-0.386111101,0,0,0,,0,101,101,227,1,,,,
,,,,,,84a09f4b3e24ff1a73c15508,66a626ef09d4e21e1a8894ec,6734e0442f4858cc57e7232a,2024-11-13_12h03.16.443,Tarea de género gramatical,2024.2.2,Win32,172.4137931,,,,,,,,,,,,,,,,,,,,,,289.1063,290.1585,l,1,[],[],[],[],[],[],[],0.3943,1,290.1585,290.6561,,,,,,393,FEM,DIS,150,alarma,el,a,0.3943,,,,290.6561,290.6561,0.006944444,-0.386111101,0,0,0,,0,102,102,392,1,,,,
,,,,,,84a09f4b3e24ff1a73c15508,66a626ef09d4e21e1a8894ec,6734e0442f4858cc57e7232a,2024-11-13_12h03.16.443,Tarea de género gramatical,2024.2.2,Win32,172.4137931,,,,,,,,,,,,,,,,,,,,,,290.6566,291.8267,l,1,[],[],[],[],[],[],[],0.5103,1,291.8269,292.3227,,,,,,225,FEM,DIS,150,pieza,el,a,0.5103,,,,292.3227,292.3228,0.006944444,-0.386111101,0,0,0,,0,103,103,224,1,,,,
,,,,,,84a09f4b3e24ff1a73c15508,66a626ef09d4e21e1a8894ec,6734e0442f4858cc57e7232a,2024-11-13_12h03.16.443,Tarea de género gramatical,2024.2.2,Win32,172.4137931,,,,,,,,,,,,,,,,,,,,,,292.3233,293.4632,a,1,[],[],[],[],[],[],[],0.4802,1,293.4633,293.959,,,,,,148,MAS,AGR,150,surf,el,l,0.4802,,,,293.959,293.959,0.006944444,-0.386111101,0,0,0,,0,104,104,147,1,,,,
,,,,,,84a09f4b3e24ff1a73c15508,66a626ef09d4e21e1a8894ec,6734e0442f4858cc57e7232a,2024-11-13_12h03.16.443,Tarea de género gramatical,2024.2.2,Win32,172.4137931,,,,,,,,,,,,,,,,,,,,,,293.9597,294.8974,a,1,[],[],[],[],[],[],[],0.2781,1,294.8975,295.3955,,,,,,305,MAS,CON,150,hombre,,l,0.2781,,,,295.3962,295.3966,0.006944444,-0.386111101,0,0,0,,0,105,105,304,1,,,,
,,,,,,84a09f4b3e24ff1a73c15508,66a626ef09d4e21e1a8894ec,6734e0442f4858cc57e7232a,2024-11-13_12h03.16.443,Tarea de género gramatical,2024.2.2,Win32,172.4137931,,,,,,,,,,,,,,,,,,,,,,295.397,296.441,l,1,[],[],[],[],[],[],[],0.3835,1,296.441,296.938,,,,,,145,FEM,AGR,150,bota,la,a,0.3835,,,,296.938,296.9381,0.006944444,-0.386111101,0,0,0,,0,106,106,144,1,,,,
,,,,,,84a09f4b3e24ff1a73c15508,66a626ef09d4e21e1a8894ec,6734e0442f4858cc57e7232a,2024-11-13_12h03.16.443,Tarea de género gramatical,2024.2.2,Win32,172.4137931,,,,,,,,,,,,,,,,,,,,,,296.9386,297.9602,a,1,[],[],[],[],[],[],[],0.365,1,297.9602,298.4561,,,,,,346,MAS,AGR,150,juicio,el,l,0.365,,,,298.4561,298.4561,0.006944444,-0.386111101,0,0,0,,0,107,107,345,1,,,,
,,,,,,84a09f4b3e24ff1a73c15508,66a626ef09d4e21e1a8894ec,6734e0442f4858cc57e7232a,2024-11-13_12h03.16.443,Tarea de género gramatical,2024.2.2,Win32,172.4137931,,,,,,,,,,,,,,,,,,,,,,298.4567,299.4516,a,1,[],[],[],[],[],[],[],0.3352,1,299.4517,299.9529,,,,,,54,MAS,DIS,150,humo,la,l,0.3352,,,,299.9529,299.953,0.006944444,-0.386111101,0,0,0,,0,108,108,53,1,,,,
,,,,,,84a09f4b3e24ff1a73c15508,66a626ef09d4e21e1a8894ec,6734e0442f4858cc57e7232a,2024-11-13_12h03.16.443,Tarea de género gramatical,2024.2.2,Win32,172.4137931,,,,,,,,,,,,,,,,,,,,,,299.9534,300.9418,a,0,[],[],[],[],[],[],[],0.3323,0,300.9422,301.4379,,,,,,26,FEM,CON,150,pena,,a,0.3323,,,,301.4379,301.4379,0.006944444,-0.386111101,0,0,0,,0,109,109,25,1,,,,
,,,,,,84a09f4b3e24ff1a73c15508,66a626ef09d4e21e1a8894ec,6734e0442f4858cc57e7232a,2024-11-13_12h03.16.443,Tarea de género gramatical,2024.2.2,Win32,172.4137931,,,,,,,,,,,,,,,,,,,,,,301.4385,302.3782,a,1,[],[],[],[],[],[],[],0.2837,1,302.3786,302.8741,,,,,,300,MAS,DIS,150,túnel,la,l,0.2837,,,,302.8748,302.8753,0.006944444,-0.386111101,0,0,0,,0,110,110,299,1,,,,
,,,,,,84a09f4b3e24ff1a73c15508,66a626ef09d4e21e1a8894ec,6734e0442f4858cc57e7232a,2024-11-13_12h03.16.443,Tarea de género gramatical,2024.2.2,Win32,172.4137931,,,,,,,,,,,,,,,,,,,,,,302.8757,303.8512,l,1,[],[],[],[],[],[],[],0.3165,1,303.8512,304.3469,,,,,,79,FEM,AGR,150,mina,la,a,0.3165,,,,304.3469,304.347,0.006944444,-0.386111101,0,0,0,,0,111,111,78,1,,,,
,,,,,,84a09f4b3e24ff1a73c15508,66a626ef09d4e21e1a8894ec,6734e0442f4858cc57e7232a,2024-11-13_12h03.16.443,Tarea de género gramatical,2024.2.2,Win32,172.4137931,,,,,,,,,,,,,,,,,,,,,,304.3476,305.235,a,1,[],[],[],[],[],[],[],0.2277,1,305.2351,305.7349,,,,,,167,MAS,CON,150,juego,,l,0.2277,,,,305.7349,305.7349,0.006944444,-0.386111101,0,0,0,,0,112,112,166,1,,,,
,,,,,,84a09f4b3e24ff1a73c15508,66a626ef09d4e21e1a8894ec,6734e0442f4858cc57e7232a,2024-11-13_12h03.16.443,Tarea de género gramatical,2024.2.2,Win32,172.4137931,,,,,,,,,,,,,,,,,,,,,,305.7355,306.6329,a,1,[],[],[],[],[],[],[],0.2378,1,306.6329,307.1287,,,,,,220,MAS,AGR,150,huevo,el,l,0.2378,,,,307.1287,307.1288,0.006944444,-0.386111101,0,0,0,,0,113,113,219,1,,,,
,,,,,,84a09f4b3e24ff1a73c15508,66a626ef09d4e21e1a8894ec,6734e0442f4858cc57e7232a,2024-11-13_12h03.16.443,Tarea de género gramatical,2024.2.2,Win32,172.4137931,,,,,,,,,,,,,,,,,,,,,,307.1294,308.0129,l,0,[],[],[],[],[],[],[],0.2275,0,308.0134,308.5105,,,,,,6,MAS,DIS,150,lado,la,l,0.2275,,,,308.5111,308.5116,0.006944444,-0.386111101,0,0,0,,0,114,114,5,1,,,,
,,,,,,84a09f4b3e24ff1a73c15508,66a626ef09d4e21e1a8894ec,6734e0442f4858cc57e7232a,2024-11-13_12h03.16.443,Tarea de género gramatical,2024.2.2,Win32,172.4137931,,,,,,,,,,,,,,,,,,,,,,308.512,309.6775,a,1,[],[],[],[],[],[],[],0.5051,1,309.6778,310.1772,,,,,,198,MAS,DIS,150,hotel,la,l,0.5051,,,,310.1772,310.1773,0.006944444,-0.386111101,0,0,0,,0,115,115,197,1,,,,
,,,,,,84a09f4b3e24ff1a73c15508,66a626ef09d4e21e1a8894ec,6734e0442f4858cc57e7232a,2024-11-13_12h03.16.443,Tarea de género gramatical,2024.2.2,Win32,172.4137931,,,,,,,,,,,,,,,,,,,,,,310.1778,311.2935,a,1,[],[],[],[],[],[],[],0.4559,1,311.2936,311.7953,,,,,,287,MAS,CON,150,plato,,l,0.4559,,,,311.7954,311.7954,0.006944444,-0.386111101,0,0,0,,0,116,116,286,1,,,,
,,,,,,84a09f4b3e24ff1a73c15508,66a626ef09d4e21e1a8894ec,6734e0442f4858cc57e7232a,2024-11-13_12h03.16.443,Tarea de género gramatical,2024.2.2,Win32,172.4137931,,,,,,,,,,,,,,,,,,,,,,311.796,312.7179,a,1,[],[],[],[],[],[],[],0.2621,1,312.7179,313.2136,,,,,,389,MAS,CON,150,tamaño,,l,0.2621,,,,313.2136,313.2137,0.006944444,-0.386111101,0,0,0,,0,117,117,388,1,,,,
,,,,,,84a09f4b3e24ff1a73c15508,66a626ef09d4e21e1a8894ec,6734e0442f4858cc57e7232a,2024-11-13_12h03.16.443,Tarea de género gramatical,2024.2.2,Win32,172.4137931,,,,,,,,,,,,,,,,,,,,,,313.2142,314.2571,l,1,[],[],[],[],[],[],[],0.3832,1,314.2572,314.753,,,,,,333,FEM,DIS,150,locura,el,a,0.3832,,,,314.753,314.753,0.006944444,-0.386111101,0,0,0,,0,118,118,332,1,,,,
,,,,,,84a09f4b3e24ff1a73c15508,66a626ef09d4e21e1a8894ec,6734e0442f4858cc57e7232a,2024-11-13_12h03.16.443,Tarea de género gramatical,2024.2.2,Win32,172.4137931,,,,,,,,,,,,,,,,,,,,,,314.7536,315.8076,a,1,[],[],[],[],[],[],[],0.3981,1,315.8078,316.3105,,,,,,102,MAS,DIS,150,coro,la,l,0.3981,,,,316.3113,316.3118,0.006944444,-0.386111101,0,0,0,,0,119,119,101,1,,,,
,,,,,,84a09f4b3e24ff1a73c15508,66a626ef09d4e21e1a8894ec,6734e0442f4858cc57e7232a,2024-11-13_12h03.16.443,Tarea de género gramatical,2024.2.2,Win32,172.4137931,,,,,,,,,,,,,,,,,,,,,,316.3122,317.32,l,1,[],[],[],[],[],[],[],0.349,1,317.3201,317.8196,,,,,,392,FEM,CON,150,maleta,,a,0.349,,,,317.8197,317.8197,0.006944444,-0.386111101,0,0,0,,0,120,120,391,1,,,,
,,,,,,84a09f4b3e24ff1a73c15508,66a626ef09d4e21e1a8894ec,6734e0442f4858cc57e7232a,2024-11-13_12h03.16.443,Tarea de género gramatical,2024.2.2,Win32,172.4137931,,,,,,,,,,,,,,,,,,,,,,317.8203,318.7964,a,0,[],[],[],[],[],[],[],0.3163,0,318.7967,319.2923,,,,,,423,FEM,DIS,150,poesía,el,a,0.3163,,,,319.2924,319.2924,0.006944444,-0.386111101,0,0,0,,0,121,121,422,1,,,,
,,,,,,84a09f4b3e24ff1a73c15508,66a626ef09d4e21e1a8894ec,6734e0442f4858cc57e7232a,2024-11-13_12h03.16.443,Tarea de género gramatical,2024.2.2,Win32,172.4137931,,,,,,,,,,,,,,,,,,,,,,319.2929,320.4507,a,1,[],[],[],[],[],[],[],0.4981,1,320.4512,320.9468,,,,,,180,MAS,DIS,150,fuego,la,l,0.4981,,,,320.9469,320.9469,0.006944444,-0.386111101,0,0,0,,0,122,122,179,1,,,,
,,,,,,84a09f4b3e24ff1a73c15508,66a626ef09d4e21e1a8894ec,6734e0442f4858cc57e7232a,2024-11-13_12h03.16.443,Tarea de género gramatical,2024.2.2,Win32,172.4137931,,,,,,,,,,,,,,,,,,,,,,320.9475,321.9237,l,1,[],[],[],[],[],[],[],0.3164,1,321.9237,322.4257,,,,,,207,FEM,DIS,150,playa,el,a,0.3164,,,,322.4264,322.4268,0.006944444,-0.386111101,0,0,0,,0,123,123,206,1,,,,
,,,,,,84a09f4b3e24ff1a73c15508,66a626ef09d4e21e1a8894ec,6734e0442f4858cc57e7232a,2024-11-13_12h03.16.443,Tarea de género gramatical,2024.2.2,Win32,172.4137931,,,,,,,,,,,,,,,,,,,,,,322.4272,323.3784,a,0,[],[],[],[],[],[],[],0.2923,0,323.3788,323.8741,,,,,,187,FEM,AGR,150,lista,la,a,0.2923,,,,323.8742,323.8743,0.006944444,-0.386111101,0,0,0,,0,124,124,186,1,,,,
,,,,,,84a09f4b3e24ff1a73c15508,66a626ef09d4e21e1a8894ec,6734e0442f4858cc57e7232a,2024-11-13_12h03.16.443,Tarea de género gramatical,2024.2.2,Win32,172.4137931,,,,,,,,,,,,,,,,,,,,,,323.8747,324.7661,l,0,[],[],[],[],[],[],[],0.2352,0,324.7661,325.2621,,,,,,66,MAS,DIS,150,muro,la,l,0.2352,,,,325.2621,325.2621,0.006944444,-0.386111101,0,0,0,,0,125,125,65,1,,,,
,,,,,,84a09f4b3e24ff1a73c15508,66a626ef09d4e21e1a8894ec,6734e0442f4858cc57e7232a,2024-11-13_12h03.16.443,Tarea de género gramatical,2024.2.2,Win32,172.4137931,,,,,,,,,,,,,,,,,,,,,,325.2627,326.3481,l,0,[],[],[],[],[],[],[],0.4257,0,326.3481,326.8438,,,,,,276,MAS,DIS,150,ritmo,la,l,0.4257,,,,326.8439,326.844,0.006944444,-0.386111101,0,0,0,,0,126,126,275,1,,,,
,,,,,,84a09f4b3e24ff1a73c15508,66a626ef09d4e21e1a8894ec,6734e0442f4858cc57e7232a,2024-11-13_12h03.16.443,Tarea de género gramatical,2024.2.2,Win32,172.4137931,,,,,,,,,,,,,,,,,,,,,,326.8445,327.9503,l,1,[],[],[],[],[],[],[],0.4498,1,327.9507,328.4499,,,,,,19,FEM,AGR,150,niña,la,a,0.4498,,,,328.4499,328.45,0.006944444,-0.386111101,0,0,0,,0,127,127,18,1,,,,
,,,,,,84a09f4b3e24ff1a73c15508,66a626ef09d4e21e1a8894ec,6734e0442f4858cc57e7232a,2024-11-13_12h03.16.443,Tarea de género gramatical,2024.2.2,Win32,172.4137931,,,,,,,,,,,,,,,,,,,,,,328.4505,329.4254,l,1,[],[],[],[],[],[],[],0.3152,1,329.4255,329.9227,,,,,,380,FEM,CON,150,madera,,a,0.3152,,,,329.9233,329.9238,0.006944444,-0.386111101,0,0,0,,0,128,128,379,1,,,,
,,,,,,84a09f4b3e24ff1a73c15508,66a626ef09d4e21e1a8894ec,6734e0442f4858cc57e7232a,2024-11-13_12h03.16.443,Tarea de género gramatical,2024.2.2,Win32,172.4137931,,,,,,,,,,,,,,,,,,,,,,329.9243,331.0084,l,1,[],[],[],[],[],[],[],0.4253,1,331.0084,331.5106,,,,,,277,FEM,AGR,150,plaza,la,a,0.4253,,,,331.5106,331.5106,0.006944444,-0.386111101,0,0,0,,0,129,129,276,1,,,,
,,,,,,84a09f4b3e24ff1a73c15508,66a626ef09d4e21e1a8894ec,6734e0442f4858cc57e7232a,2024-11-13_12h03.16.443,Tarea de género gramatical,2024.2.2,Win32,172.4137931,,,,,,,,,,,,,,,,,,,,,,331.5111,332.4573,l,1,[],[],[],[],[],[],[],0.2864,1,332.4573,332.959,,,,,,241,FEM,AGR,150,pasta,la,a,0.2864,,,,332.959,332.9591,0.006944444,-0.386111101,0,0,0,,0,130,130,240,1,,,,
,,,,,,84a09f4b3e24ff1a73c15508,66a626ef09d4e21e1a8894ec,6734e0442f4858cc57e7232a,2024-11-13_12h03.16.443,Tarea de género gramatical,2024.2.2,Win32,172.4137931,,,,,,,,,,,,,,,,,,,,,,332.9596,334.0256,l,1,[],[],[],[],[],[],[],0.4064,1,334.0257,334.5226,,,,,,27,FEM,DIS,150,mesa,el,a,0.4064,,,,334.5227,334.5227,0.006944444,-0.386111101,0,0,0,,0,131,131,26,1,,,,
,,,,,,84a09f4b3e24ff1a73c15508,66a626ef09d4e21e1a8894ec,6734e0442f4858cc57e7232a,2024-11-13_12h03.16.443,Tarea de género gramatical,2024.2.2,Win32,172.4137931,,,,,,,,,,,,,,,,,,,,,,334.5232,335.5439,l,1,[],[],[],[],[],[],[],0.3602,1,335.544,336.0436,,,,,,428,FEM,CON,150,jugada,,a,0.3602,,,,336.0443,336.0448,0.006944444,-0.386111101,0,0,0,,0,132,132,427,1,,,,
,,,,,,84a09f4b3e24ff1a73c15508,66a626ef09d4e21e1a8894ec,6734e0442f4858cc57e7232a,2024-11-13_12h03.16.443,Tarea de género gramatical,2024.2.2,Win32,172.4137931,,,,,,,,,,,,,,,,,,,,,,336.0452,336.9967,a,1,[],[],[],[],[],[],[],0.2988,1,336.9967,337.4922,,,,,,215,MAS,CON,150,hueso,,l,0.2988,,,,337.4922,337.4923,0.006944444,-0.386111101,0,0,0,,0,133,133,214,1,,,,
,,,,,,84a09f4b3e24ff1a73c15508,66a626ef09d4e21e1a8894ec,6734e0442f4858cc57e7232a,2024-11-13_12h03.16.443,Tarea de género gramatical,2024.2.2,Win32,172.4137931,,,,,,,,,,,,,,,,,,,,,,337.4929,338.5116,a,1,[],[],[],[],[],[],[],0.3589,1,338.5117,339.0135,,,,,,126,MAS,DIS,150,lazo,la,l,0.3589,,,,339.0136,339.0136,0.006944444,-0.386111101,0,0,0,,0,134,134,125,1,,,,
,,,,,,84a09f4b3e24ff1a73c15508,66a626ef09d4e21e1a8894ec,6734e0442f4858cc57e7232a,2024-11-13_12h03.16.443,Tarea de género gramatical,2024.2.2,Win32,172.4137931,,,,,,,,,,,,,,,,,,,,,,339.0141,339.9359,l,1,[],[],[],[],[],[],[],0.2619,1,339.9359,340.4379,,,,,,295,FEM,AGR,150,grasa,la,a,0.2619,,,,340.4379,340.4379,0.006944444,-0.386111101,0,0,0,,0,135,135,294,1,,,,
,,,,,,84a09f4b3e24ff1a73c15508,66a626ef09d4e21e1a8894ec,6734e0442f4858cc57e7232a,2024-11-13_12h03.16.443,Tarea de género gramatical,2024.2.2,Win32,172.4137931,,,,,,,,,,,,,,,,,,,,,,340.4384,341.3479,l,1,[],[],[],[],[],[],[],0.2497,1,341.3479,341.8438,,,,,,427,FEM,AGR,150,agenda,la,a,0.2497,,,,341.8438,341.8439,0.006944444,-0.386111101,0,0,0,,0,136,136,426,1,,,,
,,,,,,84a09f4b3e24ff1a73c15508,66a626ef09d4e21e1a8894ec,6734e0442f4858cc57e7232a,2024-11-13_12h03.16.443,Tarea de género gramatical,2024.2.2,Win32,172.4137931,,,,,,,,,,,,,,,,,,,,,,341.8444,342.7903,a,1,[],[],[],[],[],[],[],0.2862,1,342.7904,343.2863,,,,,,263,MAS,CON,150,carro,,l,0.2862,,,,343.2869,343.2873,0.006944444,-0.386111101,0,0,0,,0,137,137,262,1,,,,
,,,,,,84a09f4b3e24ff1a73c15508,66a626ef09d4e21e1a8894ec,6734e0442f4858cc57e7232a,2024-11-13_12h03.16.443,Tarea de género gramatical,2024.2.2,Win32,172.4137931,,,,,,,,,,,,,,,,,,,,,,343.2877,344.314,a,1,[],[],[],[],[],[],[],0.3673,1,344.314,344.8109,,,,,,324,MAS,DIS,150,cuarto,la,l,0.3673,,,,344.8109,344.8109,0.006944444,-0.386111101,0,0,0,,0,138,138,323,1,,,,
,,,,,,84a09f4b3e24ff1a73c15508,66a626ef09d4e21e1a8894ec,6734e0442f4858cc57e7232a,2024-11-13_12h03.16.443,Tarea de género gramatical,2024.2.2,Win32,172.4137931,,,,,,,,,,,,,,,,,,,,,,344.8115,345.7621,a,1,[],[],[],[],[],[],[],0.2929,1,345.7622,346.2594,,,,,,348,MAS,DIS,150,anillo,la,l,0.2929,,,,346.2594,346.2594,0.006944444,-0.386111101,0,0,0,,0,139,139,347,1,,,,
,,,,,,84a09f4b3e24ff1a73c15508,66a626ef09d4e21e1a8894ec,6734e0442f4858cc57e7232a,2024-11-13_12h03.16.443,Tarea de género gramatical,2024.2.2,Win32,172.4137931,,,,,,,,,,,,,,,,,,,,,,346.2599,347.2359,a,1,[],[],[],[],[],[],[],0.318,1,347.2359,347.7324,,,,,,114,MAS,DIS,150,menú,la,l,0.318,,,,347.7324,347.7324,0.006944444,-0.386111101,0,0,0,,0,140,140,113,1,,,,
,,,,,,84a09f4b3e24ff1a73c15508,66a626ef09d4e21e1a8894ec,6734e0442f4858cc57e7232a,2024-11-13_12h03.16.443,Tarea de género gramatical,2024.2.2,Win32,172.4137931,,,,,,,,,,,,,,,,,,,,,,347.7331,348.6895,a,1,[],[],[],[],[],[],[],0.2997,1,348.6896,349.1893,,,,,,406,MAS,AGR,150,premio,el,l,0.2997,,,,349.19,349.1904,0.006944444,-0.386111101,0,0,0,,0,141,141,405,1,,,,
,,,,,,84a09f4b3e24ff1a73c15508,66a626ef09d4e21e1a8894ec,6734e0442f4858cc57e7232a,2024-11-13_12h03.16.443,Tarea de género gramatical,2024.2.2,Win32,172.4137931,,,,,,,,,,,,,,,,,,,,,,349.1909,350.1714,l,1,[],[],[],[],[],[],[],0.3218,1,350.1715,350.6714,,,,,,92,FEM,CON,150,masa,,a,0.3218,,,,350.6714,350.6715,0.006944444,-0.386111101,0,0,0,,0,142,142,91,1,,,,
,,,,,,84a09f4b3e24ff1a73c15508,66a626ef09d4e21e1a8894ec,6734e0442f4858cc57e7232a,2024-11-13_12h03.16.443,Tarea de género gramatical,2024.2.2,Win32,172.4137931,,,,,,,,,,,,,,,,,,,,,,350.672,351.7482,l,1,[],[],[],[],[],[],[],0.4231,1,351.7482,352.2438,,,,,,421,FEM,AGR,150,novela,la,a,0.4231,,,,352.2438,352.2439,0.006944444,-0.386111101,0,0,0,,0,143,143,420,1,,,,
,,,,,,84a09f4b3e24ff1a73c15508,66a626ef09d4e21e1a8894ec,6734e0442f4858cc57e7232a,2024-11-13_12h03.16.443,Tarea de género gramatical,2024.2.2,Win32,172.4137931,,,,,,,,,,,,,,,,,,,,,,352.2444,353.1662,a,1,[],[],[],[],[],[],[],0.2654,1,353.1662,353.662,,,,,,245,MAS,CON,150,turno,,l,0.2654,,,,353.662,353.662,0.006944444,-0.386111101,0,0,0,,0,144,144,244,1,,,,
,,,,,,84a09f4b3e24ff1a73c15508,66a626ef09d4e21e1a8894ec,6734e0442f4858cc57e7232a,2024-11-13_12h03.16.443,Tarea de género gramatical,2024.2.2,Win32,172.4137931,,,,,,,,,,,,,,,,,,,,,,353.6626,354.5843,l,0,[],[],[],[],[],[],[],0.2618,0,354.5846,355.0863,,,,,,420,MAS,DIS,150,helado,la,l,0.2618,,,,355.0863,355.0863,0.006944444,-0.386111101,0,0,0,,0,145,145,419,1,,,,
,,,,,,84a09f4b3e24ff1a73c15508,66a626ef09d4e21e1a8894ec,6734e0442f4858cc57e7232a,2024-11-13_12h03.16.443,Tarea de género gramatical,2024.2.2,Win32,172.4137931,,,,,,,,,,,,,,,,,,,,,,355.0868,356.0874,l,1,[],[],[],[],[],[],[],0.3446,1,356.0879,356.5833,,,,,,3,FEM,DIS,150,cosa,el,a,0.3446,,,,356.584,356.5845,0.006944444,-0.386111101,0,0,0,,0,146,146,2,1,,,,
,,,,,,84a09f4b3e24ff1a73c15508,66a626ef09d4e21e1a8894ec,6734e0442f4858cc57e7232a,2024-11-13_12h03.16.443,Tarea de género gramatical,2024.2.2,Win32,172.4137931,,,,,,,,,,,,,,,,,,,,,,356.5848,357.5662,a,1,[],[],[],[],[],[],[],0.3263,1,357.5663,358.062,,,,,,173,MAS,CON,150,libro,,l,0.3263,,,,358.0621,358.0621,0.006944444,-0.386111101,0,0,0,,0,147,147,172,1,,,,
,,,,,,84a09f4b3e24ff1a73c15508,66a626ef09d4e21e1a8894ec,6734e0442f4858cc57e7232a,2024-11-13_12h03.16.443,Tarea de género gramatical,2024.2.2,Win32,172.4137931,,,,,,,,,,,,,,,,,,,,,,358.0626,359.0555,a,1,[],[],[],[],[],[],[],0.3331,1,359.0556,359.5528,,,,,,275,MAS,CON,150,disco,,l,0.3331,,,,359.5528,359.5529,0.006944444,-0.386111101,0,0,0,,0,148,148,274,1,,,,
,,,,,,84a09f4b3e24ff1a73c15508,66a626ef09d4e21e1a8894ec,6734e0442f4858cc57e7232a,2024-11-13_12h03.16.443,Tarea de género gramatical,2024.2.2,Win32,172.4137931,,,,,,,,,,,,,,,,,,,,,,359.5535,360.5175,l,1,[],[],[],[],[],[],[],0.3042,1,360.5175,361.0135,,,,,,56,FEM,CON,150,bola,,a,0.3042,,,,361.0136,361.0136,0.006944444,-0.386111101,0,0,0,,0,149,149,55,1,,,,
,,,,,,84a09f4b3e24ff1a73c15508,66a626ef09d4e21e1a8894ec,6734e0442f4858cc57e7232a,2024-11-13_12h03.16.443,Tarea de género gramatical,2024.2.2,Win32,172.4137931,,,,,,,,,,,,,,,,,,,,,,361.0142,361.9661,a,1,[],[],[],[],[],[],[],0.2922,1,361.9662,362.4681,,,,,,352,MAS,AGR,150,estilo,el,l,0.2922,,,,362.4687,376.4372,0.007638931,-0.385416667,0,0,0,space,0,150,150,351,1,13.9549,,,
,,,,,,84a09f4b3e24ff1a73c15508,66a626ef09d4e21e1a8894ec,6734e0442f4858cc57e7232a,2024-11-13_12h03.16.443,Tarea de género gramatical,2024.2.2,Win32,172.4137931,,,,,,,,,,,,,,,,,,,,,,376.4377,379.0851,,0,[],[],[],[],[],[],[],0.2922,-1,379.0855,379.5821,,,,,,190,MAS,AGR,150,campo,el,l,,,,,379.5821,379.5821,0.007638931,-0.385416667,0,0,0,,0,151,151,189,1,,,,
,,,,,,84a09f4b3e24ff1a73c15508,66a626ef09d4e21e1a8894ec,6734e0442f4858cc57e7232a,2024-11-13_12h03.16.443,Tarea de género gramatical,2024.2.2,Win32,172.4137931,,,,,,,,,,,,,,,,,,,,,,379.5827,380.5956,a,1,[],[],[],[],[],[],[],0.353,1,380.596,381.0915,,,,,,419,MAS,CON,150,cuento,,l,0.353,,,,381.0915,381.0916,0.007638931,-0.385416667,0,0,0,,0,152,152,418,1,,,,
,,,,,,84a09f4b3e24ff1a73c15508,66a626ef09d4e21e1a8894ec,6734e0442f4858cc57e7232a,2024-11-13_12h03.16.443,Tarea de género gramatical,2024.2.2,Win32,172.4137931,,,,,,,,,,,,,,,,,,,,,,381.0921,382.0138,a,1,[],[],[],[],[],[],[],0.2618,1,382.0138,382.5096,,,,,,76,MAS,AGR,150,lujo,el,l,0.2618,,,,382.5096,382.5097,0.007638931,-0.385416667,0,0,0,,0,153,153,75,1,,,,
,,,,,,84a09f4b3e24ff1a73c15508,66a626ef09d4e21e1a8894ec,6734e0442f4858cc57e7232a,2024-11-13_12h03.16.443,Tarea de género gramatical,2024.2.2,Win32,172.4137931,,,,,,,,,,,,,,,,,,,,,,382.5103,383.4443,l,1,[],[],[],[],[],[],[],0.2743,1,383.4443,383.946,,,,,,73,FEM,AGR,150,roca,la,a,0.2743,,,,383.946,383.946,0.007638931,-0.385416667,0,0,0,,0,154,154,72,1,,,,
,,,,,,84a09f4b3e24ff1a73c15508,66a626ef09d4e21e1a8894ec,6734e0442f4858cc57e7232a,2024-11-13_12h03.16.443,Tarea de género gramatical,2024.2.2,Win32,172.4137931,,,,,,,,,,,,,,,,,,,,,,383.9466,384.8621,a,1,[],[],[],[],[],[],[],0.2567,1,384.8622,385.3581,,,,,,312,MAS,DIS,150,equipo,la,l,0.2567,,,,385.3589,385.3593,0.007638931,-0.385416667,0,0,0,,0,155,155,311,1,,,,
,,,,,,84a09f4b3e24ff1a73c15508,66a626ef09d4e21e1a8894ec,6734e0442f4858cc57e7232a,2024-11-13_12h03.16.443,Tarea de género gramatical,2024.2.2,Win32,172.4137931,,,,,,,,,,,,,,,,,,,,,,385.3598,386.3279,a,1,[],[],[],[],[],[],[],0.3092,1,386.328,386.8248,,,,,,318,MAS,DIS,150,pueblo,la,l,0.3092,,,,386.8248,386.8249,0.007638931,-0.385416667,0,0,0,,0,156,156,317,1,,,,
,,,,,,84a09f4b3e24ff1a73c15508,66a626ef09d4e21e1a8894ec,6734e0442f4858cc57e7232a,2024-11-13_12h03.16.443,Tarea de género gramatical,2024.2.2,Win32,172.4137931,,,,,,,,,,,,,,,,,,,,,,386.8253,387.7471,a,1,[],[],[],[],[],[],[],0.2618,1,387.7471,388.2429,,,,,,166,MAS,AGR,150,coche,el,l,0.2618,,,,388.2429,388.243,0.007638931,-0.385416667,0,0,0,,0,157,157,165,1,,,,
,,,,,,84a09f4b3e24ff1a73c15508,66a626ef09d4e21e1a8894ec,6734e0442f4858cc57e7232a,2024-11-13_12h03.16.443,Tarea de género gramatical,2024.2.2,Win32,172.4137931,,,,,,,,,,,,,,,,,,,,,,388.2436,389.1439,a,0,[],[],[],[],[],[],[],0.2398,0,389.1443,389.643,,,,,,157,FEM,AGR,150,madre,la,a,0.2398,,,,389.643,389.6431,0.007638931,-0.385416667,0,0,0,,0,158,158,156,1,,,,
,,,,,,84a09f4b3e24ff1a73c15508,66a626ef09d4e21e1a8894ec,6734e0442f4858cc57e7232a,2024-11-13_12h03.16.443,Tarea de género gramatical,2024.2.2,Win32,172.4137931,,,,,,,,,,,,,,,,,,,,,,389.6436,390.5895,a,1,[],[],[],[],[],[],[],0.2861,1,390.5899,391.0855,,,,,,269,MAS,CON,150,primo,,l,0.2861,,,,391.0862,391.0866,0.007638931,-0.385416667,0,0,0,,0,159,159,268,1,,,,
,,,,,,84a09f4b3e24ff1a73c15508,66a626ef09d4e21e1a8894ec,6734e0442f4858cc57e7232a,2024-11-13_12h03.16.443,Tarea de género gramatical,2024.2.2,Win32,172.4137931,,,,,,,,,,,,,,,,,,,,,,391.0871,392.0743,l,1,[],[],[],[],[],[],[],0.3334,1,392.0743,392.5763,,,,,,80,FEM,CON,150,vaca,,a,0.3334,,,,392.5763,392.5764,0.007638931,-0.385416667,0,0,0,,0,160,160,79,1,,,,
,,,,,,84a09f4b3e24ff1a73c15508,66a626ef09d4e21e1a8894ec,6734e0442f4858cc57e7232a,2024-11-13_12h03.16.443,Tarea de género gramatical,2024.2.2,Win32,172.4137931,,,,,,,,,,,,,,,,,,,,,,392.577,393.529,a,1,[],[],[],[],[],[],[],0.2923,1,393.5291,394.031,,,,,,172,MAS,AGR,150,poder,el,l,0.2923,,,,394.031,394.0311,0.007638931,-0.385416667,0,0,0,,0,161,161,171,1,,,,
,,,,,,84a09f4b3e24ff1a73c15508,66a626ef09d4e21e1a8894ec,6734e0442f4858cc57e7232a,2024-11-13_12h03.16.443,Tarea de género gramatical,2024.2.2,Win32,172.4137931,,,,,,,,,,,,,,,,,,,,,,394.0316,395.0015,a,1,[],[],[],[],[],[],[],0.3143,1,395.0016,395.4979,,,,,,185,MAS,CON,150,sueño,,l,0.3143,,,,395.498,395.498,0.007638931,-0.385416667,0,0,0,,0,162,162,184,1,,,,
,,,,,,84a09f4b3e24ff1a73c15508,66a626ef09d4e21e1a8894ec,6734e0442f4858cc57e7232a,2024-11-13_12h03.16.443,Tarea de género gramatical,2024.2.2,Win32,172.4137931,,,,,,,,,,,,,,,,,,,,,,395.4988,396.5323,a,1,[],[],[],[],[],[],[],0.3745,1,396.5323,397.0309,,,,,,42,MAS,DIS,150,show,la,l,0.3745,,,,397.0309,397.0309,0.007638931,-0.385416667,0,0,0,,0,163,163,41,1,,,,
,,,,,,84a09f4b3e24ff1a73c15508,66a626ef09d4e21e1a8894ec,6734e0442f4858cc57e7232a,2024-11-13_12h03.16.443,Tarea de género gramatical,2024.2.2,Win32,172.4137931,,,,,,,,,,,,,,,,,,,,,,397.0315,397.9954,a,1,[],[],[],[],[],[],[],0.3077,1,397.9954,398.4915,,,,,,46,MAS,AGR,150,odio,el,l,0.3077,,,,398.4921,398.4926,0.007638931,-0.385416667,0,0,0,,0,164,164,45,1,,,,
,,,,,,84a09f4b3e24ff1a73c15508,66a626ef09d4e21e1a8894ec,6734e0442f4858cc57e7232a,2024-11-13_12h03.16.443,Tarea de género gramatical,2024.2.2,Win32,172.4137931,,,,,,,,,,,,,,,,,,,,,,398.493,399.4166,l,1,[],[],[],[],[],[],[],0.2638,1,399.4166,399.9158,,,,,,440,FEM,CON,150,patada,,a,0.2638,,,,399.9158,399.9158,0.007638931,-0.385416667,0,0,0,,0,165,165,439,1,,,,
,,,,,,84a09f4b3e24ff1a73c15508,66a626ef09d4e21e1a8894ec,6734e0442f4858cc57e7232a,2024-11-13_12h03.16.443,Tarea de género gramatical,2024.2.2,Win32,172.4137931,,,,,,,,,,,,,,,,,,,,,,399.9163,400.9499,a,1,[],[],[],[],[],[],[],0.3769,1,400.9499,401.449,,,,,,112,MAS,AGR,150,reto,el,l,0.3769,,,,401.449,401.4491,0.007638931,-0.385416667,0,0,0,,0,166,166,111,1,,,,
,,,,,,84a09f4b3e24ff1a73c15508,66a626ef09d4e21e1a8894ec,6734e0442f4858cc57e7232a,2024-11-13_12h03.16.443,Tarea de género gramatical,2024.2.2,Win32,172.4137931,,,,,,,,,,,,,,,,,,,,,,401.4496,402.4986,a,1,[],[],[],[],[],[],[],0.3892,1,402.4987,402.9985,,,,,,306,MAS,DIS,150,dinero,la,l,0.3892,,,,402.9985,402.9986,0.007638931,-0.385416667,0,0,0,,0,167,167,305,1,,,,
,,,,,,84a09f4b3e24ff1a73c15508,66a626ef09d4e21e1a8894ec,6734e0442f4858cc57e7232a,2024-11-13_12h03.16.443,Tarea de género gramatical,2024.2.2,Win32,172.4137931,,,,,,,,,,,,,,,,,,,,,,402.9994,404.1742,a,1,[],[],[],[],[],[],[],0.512,1,404.1742,404.6733,,,,,,280,MAS,AGR,150,salón,el,l,0.512,,,,404.674,404.6744,0.007638931,-0.385416667,0,0,0,,0,168,168,279,1,,,,
,,,,,,84a09f4b3e24ff1a73c15508,66a626ef09d4e21e1a8894ec,6734e0442f4858cc57e7232a,2024-11-13_12h03.16.443,Tarea de género gramatical,2024.2.2,Win32,172.4137931,,,,,,,,,,,,,,,,,,,,,,404.6748,405.6512,l,1,[],[],[],[],[],[],[],0.3215,1,405.6513,406.1522,,,,,,403,FEM,AGR,150,paliza,la,a,0.3215,,,,406.1522,406.1522,0.007638931,-0.385416667,0,0,0,,0,169,169,402,1,,,,
,,,,,,84a09f4b3e24ff1a73c15508,66a626ef09d4e21e1a8894ec,6734e0442f4858cc57e7232a,2024-11-13_12h03.16.443,Tarea de género gramatical,2024.2.2,Win32,172.4137931,,,,,,,,,,,,,,,,,,,,,,406.1528,407.2935,a,1,[],[],[],[],[],[],[],0.4866,1,407.2936,407.7893,,,,,,142,MAS,AGR,150,lodo,el,l,0.4866,,,,407.7893,407.7894,0.007638931,-0.385416667,0,0,0,,0,170,170,141,1,,,,
,,,,,,84a09f4b3e24ff1a73c15508,66a626ef09d4e21e1a8894ec,6734e0442f4858cc57e7232a,2024-11-13_12h03.16.443,Tarea de género gramatical,2024.2.2,Win32,172.4137931,,,,,,,,,,,,,,,,,,,,,,407.79,408.8025,a,1,[],[],[],[],[],[],[],0.3529,1,408.8026,409.2983,,,,,,28,MAS,AGR,150,club,el,l,0.3529,,,,409.2984,409.2984,0.007638931,-0.385416667,0,0,0,,0,171,171,27,1,,,,
,,,,,,84a09f4b3e24ff1a73c15508,66a626ef09d4e21e1a8894ec,6734e0442f4858cc57e7232a,2024-11-13_12h03.16.443,Tarea de género gramatical,2024.2.2,Win32,172.4137931,,,,,,,,,,,,,,,,,,,,,,409.299,410.4105,a,1,[],[],[],[],[],[],[],0.457,1,410.4105,410.9077,,,,,,23,MAS,CON,150,rato,,l,0.457,,,,410.9077,410.9077,0.007638931,-0.385416667,0,0,0,,0,172,172,22,1,,,,
,,,,,,84a09f4b3e24ff1a73c15508,66a626ef09d4e21e1a8894ec,6734e0442f4858cc57e7232a,2024-11-13_12h03.16.443,Tarea de género gramatical,2024.2.2,Win32,172.4137931,,,,,,,,,,,,,,,,,,,,,,410.9082,411.8206,a,1,[],[],[],[],[],[],[],0.2557,1,411.8206,412.3164,,,,,,149,MAS,CON,150,nudo,,l,0.2557,,,,412.3172,412.3176,0.007638931,-0.385416667,0,0,0,,0,173,173,148,1,,,,
,,,,,,84a09f4b3e24ff1a73c15508,66a626ef09d4e21e1a8894ec,6734e0442f4858cc57e7232a,2024-11-13_12h03.16.443,Tarea de género gramatical,2024.2.2,Win32,172.4137931,,,,,,,,,,,,,,,,,,,,,,412.318,413.2415,a,1,[],[],[],[],[],[],[],0.265,1,413.2415,413.7407,,,,,,364,MAS,AGR,150,viento,el,l,0.265,,,,413.7408,413.7408,0.007638931,-0.385416667,0,0,0,,0,174,174,363,1,,,,
,,,,,,84a09f4b3e24ff1a73c15508,66a626ef09d4e21e1a8894ec,6734e0442f4858cc57e7232a,2024-11-13_12h03.16.443,Tarea de género gramatical,2024.2.2,Win32,172.4137931,,,,,,,,,,,,,,,,,,,,,,413.7414,414.6329,a,1,[],[],[],[],[],[],[],0.2318,1,414.6329,415.1286,,,,,,376,MAS,AGR,150,efecto,el,l,0.2318,,,,415.1286,415.1287,0.007638931,-0.385416667,0,0,0,,0,175,175,375,1,,,,
,,,,,,84a09f4b3e24ff1a73c15508,66a626ef09d4e21e1a8894ec,6734e0442f4858cc57e7232a,2024-11-13_12h03.16.443,Tarea de género gramatical,2024.2.2,Win32,172.4137931,,,,,,,,,,,,,,,,,,,,,,415.1296,415.9587,a,1,[],[],[],[],[],[],[],0.1734,1,415.9588,416.4558,,,,,,59,MAS,CON,150,lobo,,l,0.1734,,,,416.4559,416.4559,0.007638931,-0.385416667,0,0,0,,0,176,176,58,1,,,,
,,,,,,84a09f4b3e24ff1a73c15508,66a626ef09d4e21e1a8894ec,6734e0442f4858cc57e7232a,2024-11-13_12h03.16.443,Tarea de género gramatical,2024.2.2,Win32,172.4137931,,,,,,,,,,,,,,,,,,,,,,416.4565,417.7388,a,0,[],[],[],[],[],[],[],0.6224,0,417.7391,418.2377,,,,,,199,FEM,AGR,150,nariz,la,a,0.6224,,,,418.2384,418.2389,0.007638931,-0.385416667,0,0,0,,0,177,177,198,1,,,,
,,,,,,84a09f4b3e24ff1a73c15508,66a626ef09d4e21e1a8894ec,6734e0442f4858cc57e7232a,2024-11-13_12h03.16.443,Tarea de género gramatical,2024.2.2,Win32,172.4137931,,,,,,,,,,,,,,,,,,,,,,418.2393,419.5361,l,1,[],[],[],[],[],[],[],0.6381,1,419.5366,420.0348,,,,,,267,FEM,DIS,150,barba,el,a,0.6381,,,,420.0349,420.0349,0.007638931,-0.385416667,0,0,0,,0,178,178,266,1,,,,
,,,,,,84a09f4b3e24ff1a73c15508,66a626ef09d4e21e1a8894ec,6734e0442f4858cc57e7232a,2024-11-13_12h03.16.443,Tarea de género gramatical,2024.2.2,Win32,172.4137931,,,,,,,,,,,,,,,,,,,,,,420.0354,421.0331,l,1,[],[],[],[],[],[],[],0.3351,1,421.0332,421.5333,,,,,,20,FEM,CON,150,ropa,,a,0.3351,,,,421.5333,421.5333,0.007638931,-0.385416667,0,0,0,,0,179,179,19,1,,,,
,,,,,,84a09f4b3e24ff1a73c15508,66a626ef09d4e21e1a8894ec,6734e0442f4858cc57e7232a,2024-11-13_12h03.16.443,Tarea de género gramatical,2024.2.2,Win32,172.4137931,,,,,,,,,,,,,,,,,,,,,,421.5339,422.578,l,1,[],[],[],[],[],[],[],0.3842,1,422.5781,423.0741,,,,,,369,FEM,DIS,150,camisa,el,a,0.3842,,,,423.0741,423.0742,0.007638931,-0.385416667,0,0,0,,0,180,180,368,1,,,,
,,,,,,84a09f4b3e24ff1a73c15508,66a626ef09d4e21e1a8894ec,6734e0442f4858cc57e7232a,2024-11-13_12h03.16.443,Tarea de género gramatical,2024.2.2,Win32,172.4137931,,,,,,,,,,,,,,,,,,,,,,423.0747,424.2136,l,1,[],[],[],[],[],[],[],0.4791,1,424.2136,424.7104,,,,,,247,FEM,AGR,150,frase,la,a,0.4791,,,,424.7105,424.7105,0.007638931,-0.385416667,0,0,0,,0,181,181,246,1,,,,
,,,,,,84a09f4b3e24ff1a73c15508,66a626ef09d4e21e1a8894ec,6734e0442f4858cc57e7232a,2024-11-13_12h03.16.443,Tarea de género gramatical,2024.2.2,Win32,172.4137931,,,,,,,,,,,,,,,,,,,,,,424.7111,425.9602,l,1,[],[],[],[],[],[],[],0.5894,1,425.9602,426.462,,,,,,177,FEM,DIS,150,broma,el,a,0.5894,,,,426.4626,426.4631,0.007638931,-0.385416667,0,0,0,,0,182,182,176,1,,,,
,,,,,,84a09f4b3e24ff1a73c15508,66a626ef09d4e21e1a8894ec,6734e0442f4858cc57e7232a,2024-11-13_12h03.16.443,Tarea de género gramatical,2024.2.2,Win32,172.4137931,,,,,,,,,,,,,,,,,,,,,,426.4635,427.4517,a,1,[],[],[],[],[],[],[],0.3294,1,427.4517,427.95,,,,,,450,MAS,DIS,150,conejo,la,l,0.3294,,,,427.9501,427.9501,0.007638931,-0.385416667,0,0,0,,0,183,183,449,1,,,,
,,,,,,84a09f4b3e24ff1a73c15508,66a626ef09d4e21e1a8894ec,6734e0442f4858cc57e7232a,2024-11-13_12h03.16.443,Tarea de género gramatical,2024.2.2,Win32,172.4137931,,,,,,,,,,,,,,,,,,,,,,427.9506,429.0144,l,1,[],[],[],[],[],[],[],0.4073,1,429.0145,429.5104,,,,,,127,FEM,AGR,150,cuna,la,a,0.4073,,,,429.5104,429.5104,0.007638931,-0.385416667,0,0,0,,0,184,184,126,1,,,,
,,,,,,84a09f4b3e24ff1a73c15508,66a626ef09d4e21e1a8894ec,6734e0442f4858cc57e7232a,2024-11-13_12h03.16.443,Tarea de género gramatical,2024.2.2,Win32,172.4137931,,,,,,,,,,,,,,,,,,,,,,429.511,430.4872,l,1,[],[],[],[],[],[],[],0.3164,1,430.4872,430.9832,,,,,,349,FEM,AGR,150,prensa,la,a,0.3164,,,,430.9832,430.9833,0.007638931,-0.385416667,0,0,0,,0,185,185,348,1,,,,
,,,,,,84a09f4b3e24ff1a73c15508,66a626ef09d4e21e1a8894ec,6734e0442f4858cc57e7232a,2024-11-13_12h03.16.443,Tarea de género gramatical,2024.2.2,Win32,172.4137931,,,,,,,,,,,,,,,,,,,,,,430.9837,431.9417,a,1,[],[],[],[],[],[],[],0.2983,1,431.9417,432.4377,,,,,,384,MAS,DIS,150,pedazo,la,l,0.2983,,,,432.4383,432.4388,0.007638931,-0.385416667,0,0,0,,0,186,186,383,1,,,,
,,,,,,84a09f4b3e24ff1a73c15508,66a626ef09d4e21e1a8894ec,6734e0442f4858cc57e7232a,2024-11-13_12h03.16.443,Tarea de género gramatical,2024.2.2,Win32,172.4137931,,,,,,,,,,,,,,,,,,,,,,432.4393,433.4753,a,1,[],[],[],[],[],[],[],0.3806,1,433.4753,433.9711,,,,,,310,MAS,AGR,150,nombre,el,l,0.3806,,,,433.9711,433.9711,0.007638931,-0.385416667,0,0,0,,0,187,187,309,1,,,,
,,,,,,84a09f4b3e24ff1a73c15508,66a626ef09d4e21e1a8894ec,6734e0442f4858cc57e7232a,2024-11-13_12h03.16.443,Tarea de género gramatical,2024.2.2,Win32,172.4137931,,,,,,,,,,,,,,,,,,,,,,433.9716,434.9599,a,0,[],[],[],[],[],[],[],0.3285,0,434.9603,435.4619,,,,,,116,FEM,CON,150,nube,,a,0.3285,,,,435.4619,435.4619,0.007638931,-0.385416667,0,0,0,,0,188,188,115,1,,,,
,,,,,,84a09f4b3e24ff1a73c15508,66a626ef09d4e21e1a8894ec,6734e0442f4858cc57e7232a,2024-11-13_12h03.16.443,Tarea de género gramatical,2024.2.2,Win32,172.4137931,,,,,,,,,,,,,,,,,,,,,,435.4625,436.5772,a,1,[],[],[],[],[],[],[],0.4584,1,436.5775,437.0741,,,,,,365,MAS,CON,150,código,,l,0.4584,,,,437.0741,437.0741,0.007638931,-0.385416667,0,0,0,,0,189,189,364,1,,,,
,,,,,,84a09f4b3e24ff1a73c15508,66a626ef09d4e21e1a8894ec,6734e0442f4858cc57e7232a,2024-11-13_12h03.16.443,Tarea de género gramatical,2024.2.2,Win32,172.4137931,,,,,,,,,,,,,,,,,,,,,,437.0747,438.1361,l,1,[],[],[],[],[],[],[],0.4017,1,438.1362,438.6377,,,,,,25,FEM,AGR,150,nave,la,a,0.4017,,,,438.6378,438.6378,0.007638931,-0.385416667,0,0,0,,0,190,190,24,1,,,,
,,,,,,84a09f4b3e24ff1a73c15508,66a626ef09d4e21e1a8894ec,6734e0442f4858cc57e7232a,2024-11-13_12h03.16.443,Tarea de género gramatical,2024.2.2,Win32,172.4137931,,,,,,,,,,,,,,,,,,,,,,438.6383,439.5903,l,1,[],[],[],[],[],[],[],0.2922,1,439.5903,440.0921,,,,,,128,FEM,CON,150,leña,,a,0.2922,,,,440.093,440.0934,0.007638931,-0.385416667,0,0,0,,0,191,191,127,1,,,,
,,,,,,84a09f4b3e24ff1a73c15508,66a626ef09d4e21e1a8894ec,6734e0442f4858cc57e7232a,2024-11-13_12h03.16.443,Tarea de género gramatical,2024.2.2,Win32,172.4137931,,,,,,,,,,,,,,,,,,,,,,440.094,441.0509,l,1,[],[],[],[],[],[],[],0.2983,1,441.051,441.5468,,,,,,386,FEM,CON,150,sombra,,a,0.2983,,,,441.5468,441.5469,0.007638931,-0.385416667,0,0,0,,0,192,192,385,1,,,,
,,,,,,84a09f4b3e24ff1a73c15508,66a626ef09d4e21e1a8894ec,6734e0442f4858cc57e7232a,2024-11-13_12h03.16.443,Tarea de género gramatical,2024.2.2,Win32,172.4137931,,,,,,,,,,,,,,,,,,,,,,441.5474,442.5237,l,1,[],[],[],[],[],[],[],0.3166,1,442.5238,443.0195,,,,,,278,FEM,CON,150,presa,,a,0.3166,,,,443.0195,443.0196,0.007638931,-0.385416667,0,0,0,,0,193,193,277,1,,,,
,,,,,,84a09f4b3e24ff1a73c15508,66a626ef09d4e21e1a8894ec,6734e0442f4858cc57e7232a,2024-11-13_12h03.16.443,Tarea de género gramatical,2024.2.2,Win32,172.4137931,,,,,,,,,,,,,,,,,,,,,,443.0201,443.9962,a,1,[],[],[],[],[],[],[],0.3163,1,443.9962,444.4923,,,,,,106,MAS,AGR,150,test,el,l,0.3163,,,,444.4923,444.4923,0.007638931,-0.385416667,0,0,0,,0,194,194,105,1,,,,
,,,,,,84a09f4b3e24ff1a73c15508,66a626ef09d4e21e1a8894ec,6734e0442f4858cc57e7232a,2024-11-13_12h03.16.443,Tarea de género gramatical,2024.2.2,Win32,172.4137931,,,,,,,,,,,,,,,,,,,,,,444.4928,445.4566,a,1,[],[],[],[],[],[],[],0.3076,1,445.4567,445.9528,,,,,,197,MAS,CON,150,avión,,l,0.3076,,,,445.9534,445.9539,0.007638931,-0.385416667,0,0,0,,0,195,195,196,1,,,,
,,,,,,84a09f4b3e24ff1a73c15508,66a626ef09d4e21e1a8894ec,6734e0442f4858cc57e7232a,2024-11-13_12h03.16.443,Tarea de género gramatical,2024.2.2,Win32,172.4137931,,,,,,,,,,,,,,,,,,,,,,445.9546,446.9843,a,1,[],[],[],[],[],[],[],0.371,1,446.9843,447.4802,,,,,,418,MAS,AGR,150,pájaro,el,l,0.371,,,,447.4802,447.4802,0.007638931,-0.385416667,0,0,0,,0,196,196,417,1,,,,
,,,,,,84a09f4b3e24ff1a73c15508,66a626ef09d4e21e1a8894ec,6734e0442f4858cc57e7232a,2024-11-13_12h03.16.443,Tarea de género gramatical,2024.2.2,Win32,172.4137931,,,,,,,,,,,,,,,,,,,,,,447.4807,448.4266,a,1,[],[],[],[],[],[],[],0.2863,1,448.4267,448.9285,,,,,,431,MAS,CON,150,veneno,,l,0.2863,,,,448.9286,448.9286,0.007638931,-0.385416667,0,0,0,,0,197,197,430,1,,,,
,,,,,,84a09f4b3e24ff1a73c15508,66a626ef09d4e21e1a8894ec,6734e0442f4858cc57e7232a,2024-11-13_12h03.16.443,Tarea de género gramatical,2024.2.2,Win32,172.4137931,,,,,,,,,,,,,,,,,,,,,,448.9291,449.96,l,1,[],[],[],[],[],[],[],0.3712,1,449.9601,450.4558,,,,,,271,FEM,AGR,150,viuda,la,a,0.3712,,,,450.4558,450.4559,0.007638931,-0.385416667,0,0,0,,0,198,198,270,1,,,,
,,,,,,84a09f4b3e24ff1a73c15508,66a626ef09d4e21e1a8894ec,6734e0442f4858cc57e7232a,2024-11-13_12h03.16.443,Tarea de género gramatical,2024.2.2,Win32,172.4137931,,,,,,,,,,,,,,,,,,,,,,450.4564,451.39,a,1,[],[],[],[],[],[],[],0.2738,1,451.39,451.8862,,,,,,330,MAS,DIS,150,estado,la,l,0.2738,,,,451.8862,451.8863,0.007638931,-0.385416667,0,0,0,,0,199,199,329,1,,,,
,,,,,,84a09f4b3e24ff1a73c15508,66a626ef09d4e21e1a8894ec,6734e0442f4858cc57e7232a,2024-11-13_12h03.16.443,Tarea de género gramatical,2024.2.2,Win32,172.4137931,,,,,,,,,,,,,,,,,,,,,,451.8868,452.8714,l,1,[],[],[],[],[],[],[],0.3249,1,452.8715,453.3709,,,,,,303,FEM,DIS,150,maldad,el,a,0.3249,,,,453.3717,453.3721,0.007638931,-0.385416667,0,0,0,,0,200,200,302,1,,,,
,,,,,,84a09f4b3e24ff1a73c15508,66a626ef09d4e21e1a8894ec,6734e0442f4858cc57e7232a,2024-11-13_12h03.16.443,Tarea de género gramatical,2024.2.2,Win32,172.4137931,,,,,,,,,,,,,,,,,,,,,,453.3725,454.3842,l,1,[],[],[],[],[],[],[],0.3565,1,454.3842,454.8801,,,,,,343,FEM,AGR,150,trampa,la,a,0.3565,,,,454.8801,454.8801,0.007638931,-0.385416667,0,0,0,,0,201,201,342,1,,,,
,,,,,,84a09f4b3e24ff1a73c15508,66a626ef09d4e21e1a8894ec,6734e0442f4858cc57e7232a,2024-11-13_12h03.16.443,Tarea de género gramatical,2024.2.2,Win32,172.4137931,,,,,,,,,,,,,,,,,,,,,,454.8807,455.8266,a,1,[],[],[],[],[],[],[],0.2861,1,455.8267,456.3258,,,,,,160,MAS,AGR,150,señor,el,l,0.2861,,,,456.3258,456.3259,0.007638931,-0.385416667,0,0,0,,0,202,202,159,1,,,,
,,,,,,84a09f4b3e24ff1a73c15508,66a626ef09d4e21e1a8894ec,6734e0442f4858cc57e7232a,2024-11-13_12h03.16.443,Tarea de género gramatical,2024.2.2,Win32,172.4137931,,,,,,,,,,,,,,,,,,,,,,456.3265,457.2631,a,1,[],[],[],[],[],[],[],0.2802,1,457.2632,457.7589,,,,,,40,MAS,AGR,150,dios,el,l,0.2802,,,,457.7589,457.7589,0.007638931,-0.385416667,0,0,0,,0,203,203,39,1,,,,
,,,,,,84a09f4b3e24ff1a73c15508,66a626ef09d4e21e1a8894ec,6734e0442f4858cc57e7232a,2024-11-13_12h03.16.443,Tarea de género gramatical,2024.2.2,Win32,172.4137931,,,,,,,,,,,,,,,,,,,,,,457.7595,458.9174,a,1,[],[],[],[],[],[],[],0.4981,1,458.9175,459.4134,,,,,,130,MAS,AGR,150,yate,el,l,0.4981,,,,459.4141,459.4145,0.007638931,-0.385416667,0,0,0,,0,204,204,129,1,,,,
,,,,,,84a09f4b3e24ff1a73c15508,66a626ef09d4e21e1a8894ec,6734e0442f4858cc57e7232a,2024-11-13_12h03.16.443,Tarea de género gramatical,2024.2.2,Win32,172.4137931,,,,,,,,,,,,,,,,,,,,,,459.4149,460.3539,a,1,[],[],[],[],[],[],[],0.2801,1,460.3539,460.8498,,,,,,257,MAS,CON,150,pecho,,l,0.2801,,,,460.8499,460.8499,0.007638931,-0.385416667,0,0,0,,0,205,205,256,1,,,,
,,,,,,84a09f4b3e24ff1a73c15508,66a626ef09d4e21e1a8894ec,6734e0442f4858cc57e7232a,2024-11-13_12h03.16.443,Tarea de género gramatical,2024.2.2,Win32,172.4137931,,,,,,,,,,,,,,,,,,,,,,460.8504,461.9055,l,1,[],[],[],[],[],[],[],0.3953,1,461.9055,462.4013,,,,,,165,FEM,DIS,150,amiga,el,a,0.3953,,,,462.4013,462.4014,0.007638931,-0.385416667,0,0,0,,0,206,206,164,1,,,,
,,,,,,84a09f4b3e24ff1a73c15508,66a626ef09d4e21e1a8894ec,6734e0442f4858cc57e7232a,2024-11-13_12h03.16.443,Tarea de género gramatical,2024.2.2,Win32,172.4137931,,,,,,,,,,,,,,,,,,,,,,462.4019,463.5541,a,1,[],[],[],[],[],[],[],0.4925,1,463.5542,464.0498,,,,,,378,MAS,DIS,150,pastel,la,l,0.4925,,,,464.0498,464.0498,0.007638931,-0.385416667,0,0,0,,0,207,207,377,1,,,,
,,,,,,84a09f4b3e24ff1a73c15508,66a626ef09d4e21e1a8894ec,6734e0442f4858cc57e7232a,2024-11-13_12h03.16.443,Tarea de género gramatical,2024.2.2,Win32,172.4137931,,,,,,,,,,,,,,,,,,,,,,464.0504,465.0569,a,1,[],[],[],[],[],[],[],0.3506,1,465.057,465.5585,,,,,,178,MAS,AGR,150,punto,el,l,0.3506,,,,465.5585,465.5585,0.007638931,-0.385416667,0,0,0,,0,208,208,177,1,,,,
,,,,,,84a09f4b3e24ff1a73c15508,66a626ef09d4e21e1a8894ec,6734e0442f4858cc57e7232a,2024-11-13_12h03.16.443,Tarea de género gramatical,2024.2.2,Win32,172.4137931,,,,,,,,,,,,,,,,,,,,,,465.5591,466.6005,a,1,[],[],[],[],[],[],[],0.3813,1,466.6005,467.0982,,,,,,250,MAS,AGR,150,cerdo,el,l,0.3813,,,,467.0989,467.0994,0.007638931,-0.385416667,0,0,0,,0,209,209,249,1,,,,
,,,,,,84a09f4b3e24ff1a73c15508,66a626ef09d4e21e1a8894ec,6734e0442f4858cc57e7232a,2024-11-13_12h03.16.443,Tarea de género gramatical,2024.2.2,Win32,172.4137931,,,,,,,,,,,,,,,,,,,,,,467.0998,467.9902,a,1,[],[],[],[],[],[],[],0.2318,1,467.9902,468.4861,,,,,,41,MAS,CON,150,bote,,l,0.2318,,,,468.4862,468.4862,0.007638931,-0.385416667,0,0,0,,0,210,210,40,1,,,,
,,,,,,84a09f4b3e24ff1a73c15508,66a626ef09d4e21e1a8894ec,6734e0442f4858cc57e7232a,2024-11-13_12h03.16.443,Tarea de género gramatical,2024.2.2,Win32,172.4137931,,,,,,,,,,,,,,,,,,,,,,468.4868,469.3904,a,1,[],[],[],[],[],[],[],0.2438,1,469.3904,469.8918,,,,,,16,MAS,AGR,150,baño,el,l,0.2438,,,,469.8919,469.8919,0.007638931,-0.385416667,0,0,0,,0,211,211,15,1,,,,
,,,,,,84a09f4b3e24ff1a73c15508,66a626ef09d4e21e1a8894ec,6734e0442f4858cc57e7232a,2024-11-13_12h03.16.443,Tarea de género gramatical,2024.2.2,Win32,172.4137931,,,,,,,,,,,,,,,,,,,,,,469.8926,470.8087,l,1,[],[],[],[],[],[],[],0.2561,1,470.8088,471.3075,,,,,,429,FEM,DIS,150,fianza,el,a,0.2561,,,,471.3075,471.3076,0.007638931,-0.385416667,0,0,0,,0,212,212,428,1,,,,
,,,,,,84a09f4b3e24ff1a73c15508,66a626ef09d4e21e1a8894ec,6734e0442f4858cc57e7232a,2024-11-13_12h03.16.443,Tarea de género gramatical,2024.2.2,Win32,172.4137931,,,,,,,,,,,,,,,,,,,,,,471.308,472.1599,a,1,[],[],[],[],[],[],[],0.1953,1,472.16,472.6558,,,,,,341,MAS,CON,150,precio,,l,0.1953,,,,472.6565,472.6569,0.007638931,-0.385416667,0,0,0,,0,213,213,340,1,,,,
,,,,,,84a09f4b3e24ff1a73c15508,66a626ef09d4e21e1a8894ec,6734e0442f4858cc57e7232a,2024-11-13_12h03.16.443,Tarea de género gramatical,2024.2.2,Win32,172.4137931,,,,,,,,,,,,,,,,,,,,,,472.6573,473.5598,a,0,[],[],[],[],[],[],[],0.2436,0,473.5602,474.0558,,,,,,200,FEM,CON,150,silla,,a,0.2436,,,,474.0558,474.0559,0.007638931,-0.385416667,0,0,0,,0,214,214,199,1,,,,
,,,,,,84a09f4b3e24ff1a73c15508,66a626ef09d4e21e1a8894ec,6734e0442f4858cc57e7232a,2024-11-13_12h03.16.443,Tarea de género gramatical,2024.2.2,Win32,172.4137931,,,,,,,,,,,,,,,,,,,,,,474.0565,475.1074,a,1,[],[],[],[],[],[],[],0.3907,1,475.1079,475.6045,,,,,,222,MAS,DIS,150,valor,la,l,0.3907,,,,475.6046,475.6046,0.007638931,-0.385416667,0,0,0,,0,215,215,221,1,,,,
,,,,,,84a09f4b3e24ff1a73c15508,66a626ef09d4e21e1a8894ec,6734e0442f4858cc57e7232a,2024-11-13_12h03.16.443,Tarea de género gramatical,2024.2.2,Win32,172.4137931,,,,,,,,,,,,,,,,,,,,,,475.6052,476.6106,l,1,[],[],[],[],[],[],[],0.3462,1,476.6106,477.1104,,,,,,121,FEM,AGR,150,pila,la,a,0.3462,,,,477.1104,477.1105,0.007638931,-0.385416667,0,0,0,,0,216,216,120,1,,,,
,,,,,,84a09f4b3e24ff1a73c15508,66a626ef09d4e21e1a8894ec,6734e0442f4858cc57e7232a,2024-11-13_12h03.16.443,Tarea de género gramatical,2024.2.2,Win32,172.4137931,,,,,,,,,,,,,,,,,,,,,,477.111,478.0207,a,1,[],[],[],[],[],[],[],0.25,1,478.0207,478.5164,,,,,,96,MAS,DIS,150,pato,la,l,0.25,,,,478.5165,478.5165,0.007638931,-0.385416667,0,0,0,,0,217,217,95,1,,,,
,,,,,,84a09f4b3e24ff1a73c15508,66a626ef09d4e21e1a8894ec,6734e0442f4858cc57e7232a,2024-11-13_12h03.16.443,Tarea de género gramatical,2024.2.2,Win32,172.4137931,,,,,,,,,,,,,,,,,,,,,,478.517,479.5114,l,1,[],[],[],[],[],[],[],0.3346,1,479.5115,480.0133,,,,,,409,FEM,AGR,150,moneda,la,a,0.3346,,,,480.014,480.0144,0.007638931,-0.385416667,0,0,0,,0,218,218,408,1,,,,
,,,,,,84a09f4b3e24ff1a73c15508,66a626ef09d4e21e1a8894ec,6734e0442f4858cc57e7232a,2024-11-13_12h03.16.443,Tarea de género gramatical,2024.2.2,Win32,172.4137931,,,,,,,,,,,,,,,,,,,,,,480.0149,480.8873,a,1,[],[],[],[],[],[],[],0.2135,1,480.8873,481.383,,,,,,17,MAS,CON,150,modo,,l,0.2135,,,,481.383,481.3831,0.007638931,-0.385416667,0,0,0,,0,219,219,16,1,,,,
,,,,,,84a09f4b3e24ff1a73c15508,66a626ef09d4e21e1a8894ec,6734e0442f4858cc57e7232a,2024-11-13_12h03.16.443,Tarea de género gramatical,2024.2.2,Win32,172.4137931,,,,,,,,,,,,,,,,,,,,,,481.3836,482.299,l,1,[],[],[],[],[],[],[],0.2556,1,482.299,482.7953,,,,,,229,FEM,AGR,150,celda,la,a,0.2556,,,,482.7953,482.7954,0.007638931,-0.385416667,0,0,0,,0,220,220,228,1,,,,
,,,,,,84a09f4b3e24ff1a73c15508,66a626ef09d4e21e1a8894ec,6734e0442f4858cc57e7232a,2024-11-13_12h03.16.443,Tarea de género gramatical,2024.2.2,Win32,172.4137931,,,,,,,,,,,,,,,,,,,,,,482.7959,483.7413,a,1,[],[],[],[],[],[],[],0.2878,1,483.7414,484.2377,,,,,,311,MAS,CON,150,camino,,l,0.2878,,,,484.2377,484.2377,0.007638931,-0.385416667,0,0,0,,0,221,221,310,1,,,,
,,,,,,84a09f4b3e24ff1a73c15508,66a626ef09d4e21e1a8894ec,6734e0442f4858cc57e7232a,2024-11-13_12h03.16.443,Tarea de género gramatical,2024.2.2,Win32,172.4137931,,,,,,,,,,,,,,,,,,,,,,484.2382,485.1184,l,1,[],[],[],[],[],[],[],0.2204,1,485.1185,485.6167,,,,,,387,FEM,DIS,150,página,el,a,0.2204,,,,485.6174,485.6182,0.007638931,-0.385416667,0,0,0,,0,222,222,386,1,,,,
,,,,,,84a09f4b3e24ff1a73c15508,66a626ef09d4e21e1a8894ec,6734e0442f4858cc57e7232a,2024-11-13_12h03.16.443,Tarea de género gramatical,2024.2.2,Win32,172.4137931,,,,,,,,,,,,,,,,,,,,,,485.6186,486.7115,l,1,[],[],[],[],[],[],[],0.4317,1,486.7115,487.2073,,,,,,283,FEM,AGR,150,pluma,la,a,0.4317,,,,487.2073,487.2074,0.007638931,-0.385416667,0,0,0,,0,223,223,282,1,,,,
,,,,,,84a09f4b3e24ff1a73c15508,66a626ef09d4e21e1a8894ec,6734e0442f4858cc57e7232a,2024-11-13_12h03.16.443,Tarea de género gramatical,2024.2.2,Win32,172.4137931,,,,,,,,,,,,,,,,,,,,,,487.208,488.0873,a,1,[],[],[],[],[],[],[],0.2196,1,488.0873,488.583,,,,,,137,MAS,CON,150,coco,,l,0.2196,,,,488.5831,488.5831,0.007638931,-0.385416667,0,0,0,,0,224,224,136,1,,,,
,,,,,,84a09f4b3e24ff1a73c15508,66a626ef09d4e21e1a8894ec,6734e0442f4858cc57e7232a,2024-11-13_12h03.16.443,Tarea de género gramatical,2024.2.2,Win32,172.4137931,,,,,,,,,,,,,,,,,,,,,,488.5837,489.4051,l,0,[],[],[],[],[],[],[],0.1615,0,489.4056,489.9043,,,,,,400,MAS,AGR,150,barrio,el,l,0.1615,,,,489.9043,489.9044,0.007638931,-0.385416667,0,0,0,,0,225,225,399,1,,,,
,,,,,,84a09f4b3e24ff1a73c15508,66a626ef09d4e21e1a8894ec,6734e0442f4858cc57e7232a,2024-11-13_12h03.16.443,Tarea de género gramatical,2024.2.2,Win32,172.4137931,,,,,,,,,,,,,,,,,,,,,,489.9049,490.9438,l,1,[],[],[],[],[],[],[],0.3788,1,490.9442,491.4444,,,,,,284,FEM,CON,150,fruta,,a,0.3788,,,,491.4444,491.4446,0.007638931,-0.385416667,0,0,0,,0,226,226,283,1,,,,
,,,,,,84a09f4b3e24ff1a73c15508,66a626ef09d4e21e1a8894ec,6734e0442f4858cc57e7232a,2024-11-13_12h03.16.443,Tarea de género gramatical,2024.2.2,Win32,172.4137931,,,,,,,,,,,,,,,,,,,,,,491.4451,492.4045,a,1,[],[],[],[],[],[],[],0.3053,1,492.4045,492.9016,,,,,,366,MAS,DIS,150,riesgo,la,l,0.3053,,,,492.9023,492.9027,0.007638931,-0.385416667,0,0,0,,0,227,227,365,1,,,,
,,,,,,84a09f4b3e24ff1a73c15508,66a626ef09d4e21e1a8894ec,6734e0442f4858cc57e7232a,2024-11-13_12h03.16.443,Tarea de género gramatical,2024.2.2,Win32,172.4137931,,,,,,,,,,,,,,,,,,,,,,492.9032,493.8896,a,1,[],[],[],[],[],[],[],0.33,1,493.8897,494.3867,,,,,,316,MAS,AGR,150,cuerpo,el,l,0.33,,,,494.3868,494.3868,0.007638931,-0.385416667,0,0,0,,0,228,228,315,1,,,,
,,,,,,84a09f4b3e24ff1a73c15508,66a626ef09d4e21e1a8894ec,6734e0442f4858cc57e7232a,2024-11-13_12h03.16.443,Tarea de género gramatical,2024.2.2,Win32,172.4137931,,,,,,,,,,,,,,,,,,,,,,494.3874,495.3439,a,1,[],[],[],[],[],[],[],0.2988,1,495.3439,495.8409,,,,,,83,MAS,CON,150,nene,,l,0.2988,,,,495.8409,495.8409,0.007638931,-0.385416667,0,0,0,,0,229,229,82,1,,,,
,,,,,,84a09f4b3e24ff1a73c15508,66a626ef09d4e21e1a8894ec,6734e0442f4858cc57e7232a,2024-11-13_12h03.16.443,Tarea de género gramatical,2024.2.2,Win32,172.4137931,,,,,,,,,,,,,,,,,,,,,,495.8415,496.7378,l,1,[],[],[],[],[],[],[],0.2393,1,496.7378,497.2348,,,,,,194,FEM,CON,150,banda,,a,0.2393,,,,497.2348,497.2349,0.007638931,-0.385416667,0,0,0,,0,230,230,193,1,,,,
,,,,,,84a09f4b3e24ff1a73c15508,66a626ef09d4e21e1a8894ec,6734e0442f4858cc57e7232a,2024-11-13_12h03.16.443,Tarea de género gramatical,2024.2.2,Win32,172.4137931,,,,,,,,,,,,,,,,,,,,,,497.2355,498.366,a,1,[],[],[],[],[],[],[],0.4741,1,498.366,498.8619,,,,,,425,MAS,CON,150,chiste,,l,0.4741,,,,498.8626,498.8632,0.007638931,-0.385416667,0,0,0,,0,231,231,424,1,,,,
,,,,,,84a09f4b3e24ff1a73c15508,66a626ef09d4e21e1a8894ec,6734e0442f4858cc57e7232a,2024-11-13_12h03.16.443,Tarea de género gramatical,2024.2.2,Win32,172.4137931,,,,,,,,,,,,,,,,,,,,,,498.8635,499.8168,a,1,[],[],[],[],[],[],[],0.2945,1,499.8169,500.3164,,,,,,426,MAS,DIS,150,pánico,la,l,0.2945,,,,500.3165,500.3165,0.007638931,-0.385416667,0,0,0,,0,232,232,425,1,,,,
,,,,,,84a09f4b3e24ff1a73c15508,66a626ef09d4e21e1a8894ec,6734e0442f4858cc57e7232a,2024-11-13_12h03.16.443,Tarea de género gramatical,2024.2.2,Win32,172.4137931,,,,,,,,,,,,,,,,,,,,,,500.317,501.2084,l,1,[],[],[],[],[],[],[],0.2351,1,501.2085,501.7042,,,,,,182,FEM,CON,150,prisa,,a,0.2351,,,,501.7043,501.7043,0.007638931,-0.385416667,0,0,0,,0,233,233,181,1,,,,
,,,,,,84a09f4b3e24ff1a73c15508,66a626ef09d4e21e1a8894ec,6734e0442f4858cc57e7232a,2024-11-13_12h03.16.443,Tarea de género gramatical,2024.2.2,Win32,172.4137931,,,,,,,,,,,,,,,,,,,,,,501.7048,502.6751,a,1,[],[],[],[],[],[],[],0.3103,1,502.6751,503.171,,,,,,108,MAS,DIS,150,hilo,la,l,0.3103,,,,503.1711,503.1711,0.007638931,-0.385416667,0,0,0,,0,234,234,107,1,,,,
,,,,,,84a09f4b3e24ff1a73c15508,66a626ef09d4e21e1a8894ec,6734e0442f4858cc57e7232a,2024-11-13_12h03.16.443,Tarea de género gramatical,2024.2.2,Win32,172.4137931,,,,,,,,,,,,,,,,,,,,,,503.1717,504.0995,a,1,[],[],[],[],[],[],[],0.2682,1,504.0995,504.5985,,,,,,214,MAS,AGR,150,fondo,el,l,0.2682,,,,504.5985,504.5986,0.007638931,-0.385416667,0,0,0,,0,235,235,213,1,,,,
,,,,,,84a09f4b3e24ff1a73c15508,66a626ef09d4e21e1a8894ec,6734e0442f4858cc57e7232a,2024-11-13_12h03.16.443,Tarea de género gramatical,2024.2.2,Win32,172.4137931,,,,,,,,,,,,,,,,,,,,,,504.5991,505.4446,l,1,[],[],[],[],[],[],[],0.1926,1,505.4447,505.9407,,,,,,32,FEM,CON,150,caja,,a,0.1926,,,,505.9414,505.9419,0.007638931,-0.385416667,0,0,0,,0,236,236,31,1,,,,
,,,,,,84a09f4b3e24ff1a73c15508,66a626ef09d4e21e1a8894ec,6734e0442f4858cc57e7232a,2024-11-13_12h03.16.443,Tarea de género gramatical,2024.2.2,Win32,172.4137931,,,,,,,,,,,,,,,,,,,,,,505.9423,506.9359,a,0,[],[],[],[],[],[],[],0.3349,0,506.9363,507.4316,,,,,,129,FEM,DIS,150,rana,el,a,0.3349,,,,507.4316,507.4318,0.007638931,-0.385416667,0,0,0,,0,237,237,128,1,,,,
,,,,,,84a09f4b3e24ff1a73c15508,66a626ef09d4e21e1a8894ec,6734e0442f4858cc57e7232a,2024-11-13_12h03.16.443,Tarea de género gramatical,2024.2.2,Win32,172.4137931,,,,,,,,,,,,,,,,,,,,,,507.4323,508.4994,a,1,[],[],[],[],[],[],[],0.4074,1,508.4997,508.9951,,,,,,150,MAS,DIS,150,mozo,la,l,0.4074,,,,508.9951,508.9952,0.007638931,-0.385416667,0,0,0,,0,238,238,149,1,,,,
,,,,,,84a09f4b3e24ff1a73c15508,66a626ef09d4e21e1a8894ec,6734e0442f4858cc57e7232a,2024-11-13_12h03.16.443,Tarea de género gramatical,2024.2.2,Win32,172.4137931,,,,,,,,,,,,,,,,,,,,,,508.9957,510.0022,a,1,[],[],[],[],[],[],[],0.3503,1,510.0022,510.5043,,,,,,143,MAS,CON,150,faro,,l,0.3503,,,,510.5043,510.5044,0.007638931,-0.385416667,0,0,0,,0,239,239,142,1,,,,
,,,,,,84a09f4b3e24ff1a73c15508,66a626ef09d4e21e1a8894ec,6734e0442f4858cc57e7232a,2024-11-13_12h03.16.443,Tarea de género gramatical,2024.2.2,Win32,172.4137931,,,,,,,,,,,,,,,,,,,,,,510.505,511.4853,a,1,[],[],[],[],[],[],[],0.3205,1,511.4853,511.9831,,,,,,430,MAS,AGR,150,título,el,l,0.3205,,,,511.9838,511.9842,0.007638931,-0.385416667,0,0,0,,0,240,240,429,1,,,,
,,,,,,84a09f4b3e24ff1a73c15508,66a626ef09d4e21e1a8894ec,6734e0442f4858cc57e7232a,2024-11-13_12h03.16.443,Tarea de género gramatical,2024.2.2,Win32,172.4137931,,,,,,,,,,,,,,,,,,,,,,511.9846,513.0357,a,1,[],[],[],[],[],[],[],0.3922,1,513.0357,513.5347,,,,,,30,MAS,DIS,150,cine,la,l,0.3922,,,,513.5348,513.5349,0.007638931,-0.385416667,0,0,0,,0,241,241,29,1,,,,
,,,,,,84a09f4b3e24ff1a73c15508,66a626ef09d4e21e1a8894ec,6734e0442f4858cc57e7232a,2024-11-13_12h03.16.443,Tarea de género gramatical,2024.2.2,Win32,172.4137931,,,,,,,,,,,,,,,,,,,,,,513.5354,514.3478,a,1,[],[],[],[],[],[],[],0.1529,1,514.3479,514.8436,,,,,,227,MAS,CON,150,vuelo,,l,0.1529,,,,514.8436,514.8437,0.007638931,-0.385416667,0,0,0,,0,242,242,226,1,,,,
,,,,,,84a09f4b3e24ff1a73c15508,66a626ef09d4e21e1a8894ec,6734e0442f4858cc57e7232a,2024-11-13_12h03.16.443,Tarea de género gramatical,2024.2.2,Win32,172.4137931,,,,,,,,,,,,,,,,,,,,,,514.8442,515.7781,l,1,[],[],[],[],[],[],[],0.2742,1,515.7782,516.2739,,,,,,435,FEM,DIS,150,niebla,el,a,0.2742,,,,516.2739,516.274,0.007638931,-0.385416667,0,0,0,,0,243,243,434,1,,,,
,,,,,,84a09f4b3e24ff1a73c15508,66a626ef09d4e21e1a8894ec,6734e0442f4858cc57e7232a,2024-11-13_12h03.16.443,Tarea de género gramatical,2024.2.2,Win32,172.4137931,,,,,,,,,,,,,,,,,,,,,,516.2746,517.1962,a,1,[],[],[],[],[],[],[],0.2618,1,517.1962,517.6922,,,,,,340,MAS,AGR,150,pasado,el,l,0.2618,,,,517.6922,517.6923,0.007638931,-0.385416667,0,0,0,,0,244,244,339,1,,,,
,,,,,,84a09f4b3e24ff1a73c15508,66a626ef09d4e21e1a8894ec,6734e0442f4858cc57e7232a,2024-11-13_12h03.16.443,Tarea de género gramatical,2024.2.2,Win32,172.4137931,,,,,,,,,,,,,,,,,,,,,,517.6928,518.5353,a,1,[],[],[],[],[],[],[],0.1828,1,518.5354,519.0315,,,,,,22,MAS,AGR,150,pelo,el,l,0.1828,,,,519.0322,519.0327,0.007638931,-0.385416667,0,0,0,,0,245,245,21,1,,,,
,,,,,,84a09f4b3e24ff1a73c15508,66a626ef09d4e21e1a8894ec,6734e0442f4858cc57e7232a,2024-11-13_12h03.16.443,Tarea de género gramatical,2024.2.2,Win32,172.4137931,,,,,,,,,,,,,,,,,,,,,,519.0332,519.9115,a,1,[],[],[],[],[],[],[],0.2195,1,519.9115,520.4074,,,,,,184,MAS,AGR,150,cielo,el,l,0.2195,,,,520.4074,520.4074,0.007638931,-0.385416667,0,0,0,,0,246,246,183,1,,,,
,,,,,,84a09f4b3e24ff1a73c15508,66a626ef09d4e21e1a8894ec,6734e0442f4858cc57e7232a,2024-11-13_12h03.16.443,Tarea de género gramatical,2024.2.2,Win32,172.4137931,,,,,,,,,,,,,,,,,,,,,,520.4079,521.3418,a,1,[],[],[],[],[],[],[],0.2741,1,521.3418,521.8376,,,,,,342,MAS,DIS,150,abuelo,la,l,0.2741,,,,521.8377,521.8377,0.007638931,-0.385416667,0,0,0,,0,247,247,341,1,,,,
,,,,,,84a09f4b3e24ff1a73c15508,66a626ef09d4e21e1a8894ec,6734e0442f4858cc57e7232a,2024-11-13_12h03.16.443,Tarea de género gramatical,2024.2.2,Win32,172.4137931,,,,,,,,,,,,,,,,,,,,,,521.8382,522.7256,l,1,[],[],[],[],[],[],[],0.2274,1,522.7256,523.2254,,,,,,320,FEM,CON,150,fiesta,,a,0.2274,,,,523.2254,523.2256,0.007638931,-0.385416667,0,0,0,,0,248,248,319,1,,,,
,,,,,,84a09f4b3e24ff1a73c15508,66a626ef09d4e21e1a8894ec,6734e0442f4858cc57e7232a,2024-11-13_12h03.16.443,Tarea de género gramatical,2024.2.2,Win32,172.4137931,,,,,,,,,,,,,,,,,,,,,,523.2261,524.259,l,1,[],[],[],[],[],[],[],0.3726,1,524.259,524.7587,,,,,,345,FEM,DIS,150,pierna,el,a,0.3726,,,,524.7595,524.7599,0.007638931,-0.385416667,0,0,0,,0,249,249,344,1,,,,
,,,,,,84a09f4b3e24ff1a73c15508,66a626ef09d4e21e1a8894ec,6734e0442f4858cc57e7232a,2024-11-13_12h03.16.443,Tarea de género gramatical,2024.2.2,Win32,172.4137931,,,,,,,,,,,,,,,,,,,,,,524.7604,525.6994,l,1,[],[],[],[],[],[],[],0.2801,1,525.6994,526.1951,,,,,,363,FEM,DIS,150,unidad,el,a,0.2801,,,,526.1952,526.1953,0.007638931,-0.385416667,0,0,0,,0,250,250,362,1,,,,
