counterbalancing_condition,consent_prescreening.block_1/declare_consent,consent_prescreening.block_1/age_years,consent_prescreening.block_1/gender,consent_prescreening.block_1/language_disorder,consent_prescreening.block_1/first_language,PROLIFIC_PID,STUDY_ID,SESSION_ID,date,expName,psychopyVersion,OS,frameRate,check_prescreening_answers.started,check_prescreening_answers.stopped,Instructions.started,Instructions.stopped,instr_done_keyboard.keys,instr_done_keyboard.rt,instr_done_keyboard.duration,instr_done_touch.x,instr_done_touch.y,instr_done_touch.leftButton,instr_done_touch.midButton,instr_done_touch.rightButton,instruction_pages.thisRepN,instruction_pages.thisTrialN,instruction_pages.thisN,instruction_pages.thisIndex,instruction_pages.ran,pageN,phase,instruct_text,has_image,instruct_image,presentTrial.started,presentTrial.stopped,response.keys,response.corr,touch_resp.x,touch_resp.y,touch_resp.leftButton,touch_resp.midButton,touch_resp.rightButton,touch_resp.time,touch_resp.clicked_name,rt,corr,feedback.started,feedback.stopped,practice_trials.thisRepN,practice_trials.thisTrialN,practice_trials.thisN,practice_trials.thisIndex,practice_trials.ran,TrialID,StimulusType,Condition,PrimeDuration,Prime,Flanker,corrAns,response.rt,response.duration,Break.started,Break.stopped,break_done_touch.x,break_done_touch.y,break_done_touch.leftButton,break_done_touch.midButton,break_done_touch.rightButton,break_done_keyboard.keys,experiment_trials.thisRepN,experiment_trials.thisTrialN,experiment_trials.thisN,experiment_trials.thisIndex,experiment_trials.ran,break_done_keyboard.rt,break_done_keyboard.duration,End.started,End.stopped
0,"[""over_18"",""comfortable"",""read_info"",""consent_given""]",39,M,"[""none""]","[""spanish""]",8577e2071a53498b184a5ce7,66a626ef09d4e21e1a8894ec,6735eceef5afe34882b19e38,2024-11-14_13h29.10.660,Tarea de género gramatical,2024.2.2,Win32,60.24096386,,,,,,,,,,,,,,,,,,,,,,,,,,,,,,,,,,,,,,,,,,,,,,,,,,,,,,,,,,,,,,,,,,,,
,,,,,,8577e2071a53498b184a5ce7,66a626ef09d4e21e1a8894ec,6735eceef5afe34882b19e38,2024-11-14_13h29.10.660,Tarea de género gramatical,2024.2.2,Win32,60.24096386,23.2571,23.2573,,,,,,,,,,,,,,,,,,,,,,,,,,,,,,,,,,,,,,,,,,,,,,,,,,,,,,,,,,,,,,,,,,
,,,,,,8577e2071a53498b184a5ce7,66a626ef09d4e21e1a8894ec,6735eceef5afe34882b19e38,2024-11-14_13h29.10.660,Tarea de género gramatical,2024.2.2,Win32,60.24096386,,,23.3006,36.611,space,13.242,,-0.434259259,-0.043518519,0,0,0,0,0,0,0,1,1,instructions,"INSTRUCCIONES
Va a realizar una prueba de selección gramatical. Desde el comienzo de la prueba mire siempre al centro de la pantalla. Al cabo de un momento, aparecerán palabras. La tarea consiste en determinar si la palabra del centro (siempre será un sustantivo), pertenece al género masculino o femenino.

Pulse la tecla ESPACIO o toque el botón de abajo para continuar.",0,keyboardresponseMF.png,,,,,,,,,,,,,,,,,,,,,,,,,,,,,,,,,,,,,,,,,,,,,,
,,,,,,8577e2071a53498b184a5ce7,66a626ef09d4e21e1a8894ec,6735eceef5afe34882b19e38,2024-11-14_13h29.10.660,Tarea de género gramatical,2024.2.2,Win32,60.24096386,,,36.6151,44.0962,space,7.4,,-0.423148148,-0.087037037,0,0,0,0,1,1,1,1,2,instructions,"Si su dispositivo tiene teclado, pulse la tecla ""A"" para las palabras en masculino (por ejemplo: ""arroz"") y la tecla ""L"" para las palabras en femenino (por ejemplo: ""mano"").
Pulse la tecla ESPACIO o toque el botón de abajo para continuar.",1,keyboardresponseMF.png,,,,,,,,,,,,,,,,,,,,,,,,,,,,,,,,,,,,,,,,,,,,,,
,,,,,,8577e2071a53498b184a5ce7,66a626ef09d4e21e1a8894ec,6735eceef5afe34882b19e38,2024-11-14_13h29.10.660,Tarea de género gramatical,2024.2.2,Win32,60.24096386,,,44.0999,48.7211,space,4.5575,,-0.423148148,-0.087037037,0,0,0,0,2,2,2,1,3,instructions,"Si utiliza un dispositivo sólo táctil, colóquelo en horizontal y utilice los botones de la pantalla. No utilice el ratón.
Pulse la tecla ESPACIO o toque el botón de abajo para continuar.",2,touchresponseMF.png,,,,,,,,,,,,,,,,,,,,,,,,,,,,,,,,,,,,,,,,,,,,,,
,,,,,,8577e2071a53498b184a5ce7,66a626ef09d4e21e1a8894ec,6735eceef5afe34882b19e38,2024-11-14_13h29.10.660,Tarea de género gramatical,2024.2.2,Win32,60.24096386,,,48.7256,55.4417,space,6.6988,,-0.423148148,-0.087037037,0,0,0,0,3,3,3,1,4,instructions,"Es muy importante que responda con la mayor rapidez y precisión posibles, ya que cada cadena de letras sólo estará en pantalla durante un instante. Si no responde en ese tiempo, aparecerá el mensaje ""Muy lento"" y el experimento pasará a la siguiente palabra. Los primeros 15 intentos serán de práctica y habrá dos descansos durante la prueba.
Pulse la tecla ESPACIO o toque el botón de abajo para iniciar la parte de práctica.",0,keyboardresponseMF.png,,,,,,,,,,,,,,,,,,,,,,,,,,,,,,,,,,,,,,,,,,,,,,
,,,,,,8577e2071a53498b184a5ce7,66a626ef09d4e21e1a8894ec,6735eceef5afe34882b19e38,2024-11-14_13h29.10.660,Tarea de género gramatical,2024.2.2,Win32,60.24096386,,,,,,,,,,,,,,,,,,,,,,,55.4688,58.1202,,0,[],[],[],[],[],[],[],,-1,58.1208,58.619,0,0,0,0,1,2001,FEM,AGR,150,nuca,la,a,,,,,,,,,,,,,,,,,,,
,,,,,,8577e2071a53498b184a5ce7,66a626ef09d4e21e1a8894ec,6735eceef5afe34882b19e38,2024-11-14_13h29.10.660,Tarea de género gramatical,2024.2.2,Win32,60.24096386,,,,,,,,,,,,,,,,,,,,,,,58.622,59.9,l,0,[],[],[],[],[],[],[],0.6043,0,59.9107,60.3987,0,1,1,9,1,2010,MAS,AGR,150,vecino,el,l,0.6043,,,,,,,,,,,,,,,,,,
,,,,,,8577e2071a53498b184a5ce7,66a626ef09d4e21e1a8894ec,6735eceef5afe34882b19e38,2024-11-14_13h29.10.660,Tarea de género gramatical,2024.2.2,Win32,60.24096386,,,,,,,,,,,,,,,,,,,,,,,60.4005,61.6468,l,1,[],[],[],[],[],[],[],0.576,1,61.6484,62.1455,0,2,2,3,1,2004,FEM,AGR,150,venta,la,a,0.576,,,,,,,,,,,,,,,,,,
,,,,,,8577e2071a53498b184a5ce7,66a626ef09d4e21e1a8894ec,6735eceef5afe34882b19e38,2024-11-14_13h29.10.660,Tarea de género gramatical,2024.2.2,Win32,60.24096386,,,,,,,,,,,,,,,,,,,,,,,62.1474,63.3099,a,1,[],[],[],[],[],[],[],0.485,1,63.3101,63.809,0,3,3,12,1,2013,MAS,AGR,150,acero,el,l,0.485,,,,,,,,,,,,,,,,,,
,,,,,,8577e2071a53498b184a5ce7,66a626ef09d4e21e1a8894ec,6735eceef5afe34882b19e38,2024-11-14_13h29.10.660,Tarea de género gramatical,2024.2.2,Win32,60.24096386,,,,,,,,,,,,,,,,,,,,,,,63.8106,65.6057,l,0,[],[],[],[],[],[],[],1.1173,0,65.6072,66.1047,0,4,4,10,1,2011,MAS,CON,150,canal,,l,1.1173,,,,,,,,,,,,,,,,,,
,,,,,,8577e2071a53498b184a5ce7,66a626ef09d4e21e1a8894ec,6735eceef5afe34882b19e38,2024-11-14_13h29.10.660,Tarea de género gramatical,2024.2.2,Win32,60.24096386,,,,,,,,,,,,,,,,,,,,,,,66.1068,67.5187,l,0,[],[],[],[],[],[],[],0.7416,0,67.5189,68.0177,0,5,5,11,1,2012,MAS,DIS,150,clima,la,l,0.7416,,,,,,,,,,,,,,,,,,
,,,,,,8577e2071a53498b184a5ce7,66a626ef09d4e21e1a8894ec,6735eceef5afe34882b19e38,2024-11-14_13h29.10.660,Tarea de género gramatical,2024.2.2,Win32,60.24096386,,,,,,,,,,,,,,,,,,,,,,,68.0196,69.3986,a,0,[],[],[],[],[],[],[],0.7086,0,69.3987,69.8976,0,6,6,5,1,2006,FEM,DIS,150,serie,el,a,0.7086,,,,,,,,,,,,,,,,,,
,,,,,,8577e2071a53498b184a5ce7,66a626ef09d4e21e1a8894ec,6735eceef5afe34882b19e38,2024-11-14_13h29.10.660,Tarea de género gramatical,2024.2.2,Win32,60.24096386,,,,,,,,,,,,,,,,,,,,,,,69.8994,71.8773,l,1,[],[],[],[],[],[],[],1.3011,1,71.8785,72.3764,0,7,7,6,1,2007,FEM,AGR,150,navaja,la,a,1.3011,,,,,,,,,,,,,,,,,,
,,,,,,8577e2071a53498b184a5ce7,66a626ef09d4e21e1a8894ec,6735eceef5afe34882b19e38,2024-11-14_13h29.10.660,Tarea de género gramatical,2024.2.2,Win32,60.24096386,,,,,,,,,,,,,,,,,,,,,,,72.3787,74.1895,l,1,[],[],[],[],[],[],[],1.1341,1,74.1897,74.6885,0,8,8,1,1,2002,FEM,CON,150,pala,,a,1.1341,,,,,,,,,,,,,,,,,,
,,,,,,8577e2071a53498b184a5ce7,66a626ef09d4e21e1a8894ec,6735eceef5afe34882b19e38,2024-11-14_13h29.10.660,Tarea de género gramatical,2024.2.2,Win32,60.24096386,,,,,,,,,,,,,,,,,,,,,,,74.6908,76.2023,a,0,[],[],[],[],[],[],[],0.832,0,76.2039,76.7014,0,9,9,2,1,2003,FEM,DIS,150,daga,el,a,0.832,,,,,,,,,,,,,,,,,,
,,,,,,8577e2071a53498b184a5ce7,66a626ef09d4e21e1a8894ec,6735eceef5afe34882b19e38,2024-11-14_13h29.10.660,Tarea de género gramatical,2024.2.2,Win32,60.24096386,,,,,,,,,,,,,,,,,,,,,,,76.7038,78.8973,a,1,[],[],[],[],[],[],[],1.5211,1,78.8987,79.3963,0,10,10,14,1,2015,MAS,DIS,150,robot,la,l,1.5211,,,,,,,,,,,,,,,,,,
,,,,,,8577e2071a53498b184a5ce7,66a626ef09d4e21e1a8894ec,6735eceef5afe34882b19e38,2024-11-14_13h29.10.660,Tarea de género gramatical,2024.2.2,Win32,60.24096386,,,,,,,,,,,,,,,,,,,,,,,79.3978,80.9433,a,1,[],[],[],[],[],[],[],0.8741,1,80.9435,81.4425,0,11,11,8,1,2009,MAS,DIS,150,puerto,la,l,0.8741,,,,,,,,,,,,,,,,,,
,,,,,,8577e2071a53498b184a5ce7,66a626ef09d4e21e1a8894ec,6735eceef5afe34882b19e38,2024-11-14_13h29.10.660,Tarea de género gramatical,2024.2.2,Win32,60.24096386,,,,,,,,,,,,,,,,,,,,,,,81.4439,83.0396,a,1,[],[],[],[],[],[],[],0.9249,1,83.0397,83.5387,0,12,12,13,1,2014,MAS,CON,150,siglo,,l,0.9249,,,,,,,,,,,,,,,,,,
,,,,,,8577e2071a53498b184a5ce7,66a626ef09d4e21e1a8894ec,6735eceef5afe34882b19e38,2024-11-14_13h29.10.660,Tarea de género gramatical,2024.2.2,Win32,60.24096386,,,,,,,,,,,,,,,,,,,,,,,83.5402,84.8195,l,1,[],[],[],[],[],[],[],0.6041,1,84.8197,85.3186,0,13,13,7,1,2008,FEM,CON,150,siesta,,a,0.6041,,,,,,,,,,,,,,,,,,
,,,,,,8577e2071a53498b184a5ce7,66a626ef09d4e21e1a8894ec,6735eceef5afe34882b19e38,2024-11-14_13h29.10.660,Tarea de género gramatical,2024.2.2,Win32,60.24096386,,,,,,,,,,,,,,,,,,,,,,,85.3201,86.7325,l,1,[],[],[],[],[],[],[],0.733,1,86.7326,87.2315,0,14,14,4,1,2005,FEM,CON,150,placa,,a,0.733,,,,,,,,,,,,,,,,,,
,,,,,,8577e2071a53498b184a5ce7,66a626ef09d4e21e1a8894ec,6735eceef5afe34882b19e38,2024-11-14_13h29.10.660,Tarea de género gramatical,2024.2.2,Win32,60.24096386,,,92.7919,106.5288,space,13.7141,,-0.423148148,-0.087037037,0,0,0,,,,,,,,,,,106.6055,107.8929,a,1,[],[],[],[],[],[],[],0.6178,1,107.8931,108.3918,,,,,,436,MAS,AGR,150,objeto,el,l,0.6178,,108.3923,108.399,-0.423148148,-0.087037037,0,0,0,,0,0,0,435,1,,,,
,,,,,,8577e2071a53498b184a5ce7,66a626ef09d4e21e1a8894ec,6735eceef5afe34882b19e38,2024-11-14_13h29.10.660,Tarea de género gramatical,2024.2.2,Win32,60.24096386,,,,,,,,,,,,,,,,,,,,,,,108.4003,109.6228,a,0,[],[],[],[],[],[],[],0.5509,0,109.624,110.122,,,,,,255,FEM,DIS,150,tribu,el,a,0.5509,,110.1221,110.1223,-0.423148148,-0.087037037,0,0,0,,0,1,1,254,1,,,,
,,,,,,8577e2071a53498b184a5ce7,66a626ef09d4e21e1a8894ec,6735eceef5afe34882b19e38,2024-11-14_13h29.10.660,Tarea de género gramatical,2024.2.2,Win32,60.24096386,,,,,,,,,,,,,,,,,,,,,,,110.1238,111.6357,a,1,[],[],[],[],[],[],[],0.8325,1,111.6369,112.1349,,,,,,17,MAS,CON,150,modo,,l,0.8325,,112.137,112.138,-0.423148148,-0.087037037,0,0,0,,0,2,2,16,1,,,,
,,,,,,8577e2071a53498b184a5ce7,66a626ef09d4e21e1a8894ec,6735eceef5afe34882b19e38,2024-11-14_13h29.10.660,Tarea de género gramatical,2024.2.2,Win32,60.24096386,,,,,,,,,,,,,,,,,,,,,,,112.1394,113.582,a,0,[],[],[],[],[],[],[],0.768,0,113.5834,114.081,,,,,,75,FEM,DIS,150,caza,el,a,0.768,,114.0811,114.0813,-0.423148148,-0.087037037,0,0,0,,0,3,3,74,1,,,,
,,,,,,8577e2071a53498b184a5ce7,66a626ef09d4e21e1a8894ec,6735eceef5afe34882b19e38,2024-11-14_13h29.10.660,Tarea de género gramatical,2024.2.2,Win32,60.24096386,,,,,,,,,,,,,,,,,,,,,,,114.083,115.7448,l,1,[],[],[],[],[],[],[],0.9821,1,115.7461,116.2438,,,,,,68,FEM,CON,150,pata,,a,0.9821,,116.2439,116.244,-0.423148148,-0.087037037,0,0,0,,0,4,4,67,1,,,,
,,,,,,8577e2071a53498b184a5ce7,66a626ef09d4e21e1a8894ec,6735eceef5afe34882b19e38,2024-11-14_13h29.10.660,Tarea de género gramatical,2024.2.2,Win32,60.24096386,,,,,,,,,,,,,,,,,,,,,,,116.2456,117.5414,a,1,[],[],[],[],[],[],[],0.6195,1,117.5415,118.0403,,,,,,370,MAS,AGR,150,seguro,el,l,0.6195,,118.0403,118.0406,-0.423148148,-0.087037037,0,0,0,,0,5,5,369,1,,,,
,,,,,,8577e2071a53498b184a5ce7,66a626ef09d4e21e1a8894ec,6735eceef5afe34882b19e38,2024-11-14_13h29.10.660,Tarea de género gramatical,2024.2.2,Win32,60.24096386,,,,,,,,,,,,,,,,,,,,,,,118.042,119.3546,a,1,[],[],[],[],[],[],[],0.6385,1,119.3547,119.8537,,,,,,76,MAS,AGR,150,lujo,el,l,0.6385,,119.856,119.8572,-0.423148148,-0.087037037,0,0,0,,0,6,6,75,1,,,,
,,,,,,8577e2071a53498b184a5ce7,66a626ef09d4e21e1a8894ec,6735eceef5afe34882b19e38,2024-11-14_13h29.10.660,Tarea de género gramatical,2024.2.2,Win32,60.24096386,,,,,,,,,,,,,,,,,,,,,,,119.8582,121.1511,a,1,[],[],[],[],[],[],[],0.617,1,121.1513,121.6503,,,,,,232,MAS,AGR,150,calor,el,l,0.617,,121.6503,121.6506,-0.423148148,-0.087037037,0,0,0,,0,7,7,231,1,,,,
,,,,,,8577e2071a53498b184a5ce7,66a626ef09d4e21e1a8894ec,6735eceef5afe34882b19e38,2024-11-14_13h29.10.660,Tarea de género gramatical,2024.2.2,Win32,60.24096386,,,,,,,,,,,,,,,,,,,,,,,121.6525,123.3471,a,1,[],[],[],[],[],[],[],1.0153,1,123.3473,123.8461,,,,,,408,MAS,DIS,150,cheque,la,l,1.0153,,123.8462,123.8464,-0.423148148,-0.087037037,0,0,0,,0,8,8,407,1,,,,
,,,,,,8577e2071a53498b184a5ce7,66a626ef09d4e21e1a8894ec,6735eceef5afe34882b19e38,2024-11-14_13h29.10.660,Tarea de género gramatical,2024.2.2,Win32,60.24096386,,,,,,,,,,,,,,,,,,,,,,,123.8478,125.4098,l,1,[],[],[],[],[],[],[],0.8824,1,125.41,125.9087,,,,,,171,FEM,DIS,150,mitad,el,a,0.8824,,125.9089,125.909,-0.423148148,-0.087037037,0,0,0,,0,9,9,170,1,,,,
,,,,,,8577e2071a53498b184a5ce7,66a626ef09d4e21e1a8894ec,6735eceef5afe34882b19e38,2024-11-14_13h29.10.660,Tarea de género gramatical,2024.2.2,Win32,60.24096386,,,,,,,,,,,,,,,,,,,,,,,125.9107,127.323,l,1,[],[],[],[],[],[],[],0.7382,1,127.3232,127.822,,,,,,8,FEM,CON,150,idea,,a,0.7382,,127.8221,127.8223,-0.423148148,-0.087037037,0,0,0,,0,10,10,7,1,,,,
,,,,,,8577e2071a53498b184a5ce7,66a626ef09d4e21e1a8894ec,6735eceef5afe34882b19e38,2024-11-14_13h29.10.660,Tarea de género gramatical,2024.2.2,Win32,60.24096386,,,,,,,,,,,,,,,,,,,,,,,127.8239,129.1694,l,1,[],[],[],[],[],[],[],0.6658,1,129.1696,129.6683,,,,,,272,FEM,CON,150,oreja,,a,0.6658,,129.6707,129.6717,-0.423148148,-0.087037037,0,0,0,,0,11,11,271,1,,,,
,,,,,,8577e2071a53498b184a5ce7,66a626ef09d4e21e1a8894ec,6735eceef5afe34882b19e38,2024-11-14_13h29.10.660,Tarea de género gramatical,2024.2.2,Win32,60.24096386,,,,,,,,,,,,,,,,,,,,,,,129.6728,130.9494,l,1,[],[],[],[],[],[],[],0.6023,1,130.9496,131.4485,,,,,,61,FEM,AGR,150,ruta,la,a,0.6023,,131.4486,131.4488,-0.423148148,-0.087037037,0,0,0,,0,12,12,60,1,,,,
,,,,,,8577e2071a53498b184a5ce7,66a626ef09d4e21e1a8894ec,6735eceef5afe34882b19e38,2024-11-14_13h29.10.660,Tarea de género gramatical,2024.2.2,Win32,60.24096386,,,,,,,,,,,,,,,,,,,,,,,131.4503,132.7958,l,1,[],[],[],[],[],[],[],0.6667,1,132.796,133.2949,,,,,,13,FEM,AGR,150,hija,la,a,0.6667,,133.295,133.2951,-0.423148148,-0.087037037,0,0,0,,0,13,13,12,1,,,,
,,,,,,8577e2071a53498b184a5ce7,66a626ef09d4e21e1a8894ec,6735eceef5afe34882b19e38,2024-11-14_13h29.10.660,Tarea de género gramatical,2024.2.2,Win32,60.24096386,,,,,,,,,,,,,,,,,,,,,,,133.2973,134.4929,a,1,[],[],[],[],[],[],[],0.5199,1,134.493,134.9918,,,,,,185,MAS,CON,150,sueño,,l,0.5199,,134.9919,134.9921,-0.423148148,-0.087037037,0,0,0,,0,14,14,184,1,,,,
,,,,,,8577e2071a53498b184a5ce7,66a626ef09d4e21e1a8894ec,6735eceef5afe34882b19e38,2024-11-14_13h29.10.660,Tarea de género gramatical,2024.2.2,Win32,60.24096386,,,,,,,,,,,,,,,,,,,,,,,134.9934,136.3226,a,1,[],[],[],[],[],[],[],0.6493,1,136.3227,136.8217,,,,,,287,MAS,CON,150,plato,,l,0.6493,,136.8239,136.8252,-0.423148148,-0.087037037,0,0,0,,0,15,15,286,1,,,,
,,,,,,8577e2071a53498b184a5ce7,66a626ef09d4e21e1a8894ec,6735eceef5afe34882b19e38,2024-11-14_13h29.10.660,Tarea de género gramatical,2024.2.2,Win32,60.24096386,,,,,,,,,,,,,,,,,,,,,,,136.8263,138.2689,a,1,[],[],[],[],[],[],[],0.7662,1,138.269,138.768,,,,,,270,MAS,DIS,150,queso,la,l,0.7662,,138.7681,138.7682,-0.423148148,-0.087037037,0,0,0,,0,16,16,269,1,,,,
,,,,,,8577e2071a53498b184a5ce7,66a626ef09d4e21e1a8894ec,6735eceef5afe34882b19e38,2024-11-14_13h29.10.660,Tarea de género gramatical,2024.2.2,Win32,60.24096386,,,,,,,,,,,,,,,,,,,,,,,138.7697,140.0488,l,1,[],[],[],[],[],[],[],0.5996,1,140.049,140.5479,,,,,,253,FEM,AGR,150,aldea,la,a,0.5996,,140.548,140.5481,-0.423148148,-0.087037037,0,0,0,,0,17,17,252,1,,,,
,,,,,,8577e2071a53498b184a5ce7,66a626ef09d4e21e1a8894ec,6735eceef5afe34882b19e38,2024-11-14_13h29.10.660,Tarea de género gramatical,2024.2.2,Win32,60.24096386,,,,,,,,,,,,,,,,,,,,,,,140.5495,141.7792,a,1,[],[],[],[],[],[],[],0.5547,1,141.7794,142.2781,,,,,,401,MAS,CON,150,abrigo,,l,0.5547,,142.2782,142.2784,-0.423148148,-0.087037037,0,0,0,,0,18,18,400,1,,,,
,,,,,,8577e2071a53498b184a5ce7,66a626ef09d4e21e1a8894ec,6735eceef5afe34882b19e38,2024-11-14_13h29.10.660,Tarea de género gramatical,2024.2.2,Win32,60.24096386,,,,,,,,,,,,,,,,,,,,,,,142.2798,143.7087,l,1,[],[],[],[],[],[],[],0.7529,1,143.7088,144.208,,,,,,218,FEM,CON,150,nieve,,a,0.7529,,144.208,144.2082,-0.423148148,-0.087037037,0,0,0,,0,19,19,217,1,,,,
,,,,,,8577e2071a53498b184a5ce7,66a626ef09d4e21e1a8894ec,6735eceef5afe34882b19e38,2024-11-14_13h29.10.660,Tarea de género gramatical,2024.2.2,Win32,60.24096386,,,,,,,,,,,,,,,,,,,,,,,144.2098,145.4887,l,1,[],[],[],[],[],[],[],0.6073,1,145.4888,145.9878,,,,,,50,FEM,CON,150,dama,,a,0.6073,,145.9897,145.9908,-0.423148148,-0.087037037,0,0,0,,0,20,20,49,1,,,,
,,,,,,8577e2071a53498b184a5ce7,66a626ef09d4e21e1a8894ec,6735eceef5afe34882b19e38,2024-11-14_13h29.10.660,Tarea de género gramatical,2024.2.2,Win32,60.24096386,,,,,,,,,,,,,,,,,,,,,,,145.9917,147.2188,a,1,[],[],[],[],[],[],[],0.5493,1,147.2189,147.7178,,,,,,383,MAS,CON,150,parque,,l,0.5493,,147.7179,147.718,-0.423148148,-0.087037037,0,0,0,,0,21,21,382,1,,,,
,,,,,,8577e2071a53498b184a5ce7,66a626ef09d4e21e1a8894ec,6735eceef5afe34882b19e38,2024-11-14_13h29.10.660,Tarea de género gramatical,2024.2.2,Win32,60.24096386,,,,,,,,,,,,,,,,,,,,,,,147.7196,148.9494,l,0,[],[],[],[],[],[],[],0.5614,0,148.9506,149.4479,,,,,,390,MAS,DIS,150,rostro,la,l,0.5614,,149.4481,149.4481,-0.423148148,-0.087037037,0,0,0,,0,22,22,389,1,,,,
,,,,,,8577e2071a53498b184a5ce7,66a626ef09d4e21e1a8894ec,6735eceef5afe34882b19e38,2024-11-14_13h29.10.660,Tarea de género gramatical,2024.2.2,Win32,60.24096386,,,,,,,,,,,,,,,,,,,,,,,149.4499,150.7787,l,1,[],[],[],[],[],[],[],0.6551,1,150.78,151.2777,,,,,,362,FEM,CON,150,fuente,,a,0.6551,,151.2778,151.2779,-0.423148148,-0.087037037,0,0,0,,0,23,23,361,1,,,,
,,,,,,8577e2071a53498b184a5ce7,66a626ef09d4e21e1a8894ec,6735eceef5afe34882b19e38,2024-11-14_13h29.10.660,Tarea de género gramatical,2024.2.2,Win32,60.24096386,,,,,,,,,,,,,,,,,,,,,,,151.2795,152.5587,l,1,[],[],[],[],[],[],[],0.6093,1,152.5588,153.0578,,,,,,15,FEM,DIS,150,cama,el,a,0.6093,,153.06,153.0613,-0.423148148,-0.087037037,0,0,0,,0,24,24,14,1,,,,
,,,,,,8577e2071a53498b184a5ce7,66a626ef09d4e21e1a8894ec,6735eceef5afe34882b19e38,2024-11-14_13h29.10.660,Tarea de género gramatical,2024.2.2,Win32,60.24096386,,,,,,,,,,,,,,,,,,,,,,,153.0622,154.2223,a,1,[],[],[],[],[],[],[],0.4936,1,154.2225,154.7214,,,,,,154,MAS,AGR,150,padre,el,l,0.4936,,154.7214,154.7216,-0.423148148,-0.087037037,0,0,0,,0,25,25,153,1,,,,
,,,,,,8577e2071a53498b184a5ce7,66a626ef09d4e21e1a8894ec,6735eceef5afe34882b19e38,2024-11-14_13h29.10.660,Tarea de género gramatical,2024.2.2,Win32,60.24096386,,,,,,,,,,,,,,,,,,,,,,,154.7237,155.9689,a,1,[],[],[],[],[],[],[],0.5736,1,155.9691,156.468,,,,,,298,MAS,AGR,150,botón,el,l,0.5736,,156.4681,156.4682,-0.423148148,-0.087037037,0,0,0,,0,26,26,297,1,,,,
,,,,,,8577e2071a53498b184a5ce7,66a626ef09d4e21e1a8894ec,6735eceef5afe34882b19e38,2024-11-14_13h29.10.660,Tarea de género gramatical,2024.2.2,Win32,60.24096386,,,,,,,,,,,,,,,,,,,,,,,156.4697,157.8488,a,1,[],[],[],[],[],[],[],0.6992,1,157.8489,158.348,,,,,,46,MAS,AGR,150,odio,el,l,0.6992,,158.348,158.3483,-0.423148148,-0.087037037,0,0,0,,0,27,27,45,1,,,,
,,,,,,8577e2071a53498b184a5ce7,66a626ef09d4e21e1a8894ec,6735eceef5afe34882b19e38,2024-11-14_13h29.10.660,Tarea de género gramatical,2024.2.2,Win32,60.24096386,,,,,,,,,,,,,,,,,,,,,,,158.3498,159.6455,a,1,[],[],[],[],[],[],[],0.616,1,159.6457,160.1445,,,,,,389,MAS,CON,150,tamaño,,l,0.616,,160.1446,160.1448,-0.423148148,-0.087037037,0,0,0,,0,28,28,388,1,,,,
,,,,,,8577e2071a53498b184a5ce7,66a626ef09d4e21e1a8894ec,6735eceef5afe34882b19e38,2024-11-14_13h29.10.660,Tarea de género gramatical,2024.2.2,Win32,60.24096386,,,,,,,,,,,,,,,,,,,,,,,160.147,161.5918,l,1,[],[],[],[],[],[],[],0.7746,1,161.5918,162.0909,,,,,,165,FEM,DIS,150,amiga,el,a,0.7746,,162.0928,162.0939,-0.423148148,-0.087037037,0,0,0,,0,29,29,164,1,,,,
,,,,,,8577e2071a53498b184a5ce7,66a626ef09d4e21e1a8894ec,6735eceef5afe34882b19e38,2024-11-14_13h29.10.660,Tarea de género gramatical,2024.2.2,Win32,60.24096386,,,,,,,,,,,,,,,,,,,,,,,162.0948,163.3052,a,1,[],[],[],[],[],[],[],0.5405,1,163.3054,163.8041,,,,,,281,MAS,CON,150,actor,,l,0.5405,,163.8042,163.8043,-0.423148148,-0.087037037,0,0,0,,0,30,30,280,1,,,,
,,,,,,8577e2071a53498b184a5ce7,66a626ef09d4e21e1a8894ec,6735eceef5afe34882b19e38,2024-11-14_13h29.10.660,Tarea de género gramatical,2024.2.2,Win32,60.24096386,,,,,,,,,,,,,,,,,,,,,,,163.8058,165.1518,a,1,[],[],[],[],[],[],[],0.6667,1,165.1519,165.6507,,,,,,178,MAS,AGR,150,punto,el,l,0.6667,,165.6508,165.651,-0.423148148,-0.087037037,0,0,0,,0,31,31,177,1,,,,
,,,,,,8577e2071a53498b184a5ce7,66a626ef09d4e21e1a8894ec,6735eceef5afe34882b19e38,2024-11-14_13h29.10.660,Tarea de género gramatical,2024.2.2,Win32,60.24096386,,,,,,,,,,,,,,,,,,,,,,,165.6523,167.0481,l,1,[],[],[],[],[],[],[],0.7164,1,167.0484,167.5471,,,,,,127,FEM,AGR,150,cuna,la,a,0.7164,,167.5472,167.5474,-0.423148148,-0.087037037,0,0,0,,0,32,32,126,1,,,,
,,,,,,8577e2071a53498b184a5ce7,66a626ef09d4e21e1a8894ec,6735eceef5afe34882b19e38,2024-11-14_13h29.10.660,Tarea de género gramatical,2024.2.2,Win32,60.24096386,,,,,,,,,,,,,,,,,,,,,,,167.5492,168.8619,a,1,[],[],[],[],[],[],[],0.6437,1,168.862,169.3606,,,,,,426,MAS,DIS,150,pánico,la,l,0.6437,,169.3627,169.364,-0.423148148,-0.087037037,0,0,0,,0,33,33,425,1,,,,
,,,,,,8577e2071a53498b184a5ce7,66a626ef09d4e21e1a8894ec,6735eceef5afe34882b19e38,2024-11-14_13h29.10.660,Tarea de género gramatical,2024.2.2,Win32,60.24096386,,,,,,,,,,,,,,,,,,,,,,,169.365,170.7412,l,1,[],[],[],[],[],[],[],0.6989,1,170.7414,171.2403,,,,,,344,FEM,CON,150,pareja,,a,0.6989,,171.2404,171.2407,-0.423148148,-0.087037037,0,0,0,,0,34,34,343,1,,,,
,,,,,,8577e2071a53498b184a5ce7,66a626ef09d4e21e1a8894ec,6735eceef5afe34882b19e38,2024-11-14_13h29.10.660,Tarea de género gramatical,2024.2.2,Win32,60.24096386,,,,,,,,,,,,,,,,,,,,,,,171.2422,172.5377,a,1,[],[],[],[],[],[],[],0.6158,1,172.5379,173.0368,,,,,,354,MAS,DIS,150,camión,la,l,0.6158,,173.037,173.0371,-0.423148148,-0.087037037,0,0,0,,0,35,35,353,1,,,,
,,,,,,8577e2071a53498b184a5ce7,66a626ef09d4e21e1a8894ec,6735eceef5afe34882b19e38,2024-11-14_13h29.10.660,Tarea de género gramatical,2024.2.2,Win32,60.24096386,,,,,,,,,,,,,,,,,,,,,,,173.0384,174.4176,a,1,[],[],[],[],[],[],[],0.708,1,174.4178,174.9166,,,,,,304,MAS,AGR,150,tiempo,el,l,0.708,,174.9167,174.9168,-0.423148148,-0.087037037,0,0,0,,0,36,36,303,1,,,,
,,,,,,8577e2071a53498b184a5ce7,66a626ef09d4e21e1a8894ec,6735eceef5afe34882b19e38,2024-11-14_13h29.10.660,Tarea de género gramatical,2024.2.2,Win32,60.24096386,,,,,,,,,,,,,,,,,,,,,,,174.9183,176.4139,a,1,[],[],[],[],[],[],[],0.8184,1,176.414,176.9131,,,,,,174,MAS,DIS,150,perro,la,l,0.8184,,176.9131,176.9132,-0.423148148,-0.087037037,0,0,0,,0,37,37,173,1,,,,
,,,,,,8577e2071a53498b184a5ce7,66a626ef09d4e21e1a8894ec,6735eceef5afe34882b19e38,2024-11-14_13h29.10.660,Tarea de género gramatical,2024.2.2,Win32,60.24096386,,,,,,,,,,,,,,,,,,,,,,,176.9147,178.2271,l,1,[],[],[],[],[],[],[],0.6326,1,178.2272,178.7262,,,,,,338,FEM,CON,150,abuela,,a,0.6326,,178.7283,178.7293,-0.423148148,-0.087037037,0,0,0,,0,38,38,337,1,,,,
,,,,,,8577e2071a53498b184a5ce7,66a626ef09d4e21e1a8894ec,6735eceef5afe34882b19e38,2024-11-14_13h29.10.660,Tarea de género gramatical,2024.2.2,Win32,60.24096386,,,,,,,,,,,,,,,,,,,,,,,178.7303,180.3898,l,1,[],[],[],[],[],[],[],0.9849,1,180.39,180.8888,,,,,,339,FEM,DIS,150,salida,el,a,0.9849,,180.8889,180.8891,-0.423148148,-0.087037037,0,0,0,,0,39,39,338,1,,,,
,,,,,,8577e2071a53498b184a5ce7,66a626ef09d4e21e1a8894ec,6735eceef5afe34882b19e38,2024-11-14_13h29.10.660,Tarea de género gramatical,2024.2.2,Win32,60.24096386,,,,,,,,,,,,,,,,,,,,,,,180.8907,182.153,a,1,[],[],[],[],[],[],[],0.5902,1,182.1532,182.6521,,,,,,407,MAS,CON,150,jurado,,l,0.5902,,182.6522,182.6523,-0.423148148,-0.087037037,0,0,0,,0,40,40,406,1,,,,
,,,,,,8577e2071a53498b184a5ce7,66a626ef09d4e21e1a8894ec,6735eceef5afe34882b19e38,2024-11-14_13h29.10.660,Tarea de género gramatical,2024.2.2,Win32,60.24096386,,,,,,,,,,,,,,,,,,,,,,,182.6537,183.9165,a,1,[],[],[],[],[],[],[],0.5872,1,183.9167,184.4156,,,,,,35,MAS,CON,150,taxi,,l,0.5872,,184.4157,184.4159,-0.423148148,-0.087037037,0,0,0,,0,41,41,34,1,,,,
,,,,,,8577e2071a53498b184a5ce7,66a626ef09d4e21e1a8894ec,6735eceef5afe34882b19e38,2024-11-14_13h29.10.660,Tarea de género gramatical,2024.2.2,Win32,60.24096386,,,,,,,,,,,,,,,,,,,,,,,184.4176,185.6141,l,1,[],[],[],[],[],[],[],0.5281,1,185.6141,186.1123,,,,,,266,FEM,CON,150,jaula,,a,0.5281,,186.1141,186.1151,-0.423148148,-0.087037037,0,0,0,,0,42,42,265,1,,,,
,,,,,,8577e2071a53498b184a5ce7,66a626ef09d4e21e1a8894ec,6735eceef5afe34882b19e38,2024-11-14_13h29.10.660,Tarea de género gramatical,2024.2.2,Win32,60.24096386,,,,,,,,,,,,,,,,,,,,,,,186.1166,187.3601,l,1,[],[],[],[],[],[],[],0.5667,1,187.3602,187.8589,,,,,,117,FEM,DIS,150,raya,el,a,0.5667,,187.8591,187.8591,-0.423148148,-0.087037037,0,0,0,,0,43,43,116,1,,,,
,,,,,,8577e2071a53498b184a5ce7,66a626ef09d4e21e1a8894ec,6735eceef5afe34882b19e38,2024-11-14_13h29.10.660,Tarea de género gramatical,2024.2.2,Win32,60.24096386,,,,,,,,,,,,,,,,,,,,,,,187.8605,189.0235,l,1,[],[],[],[],[],[],[],0.4843,1,189.0237,189.5225,,,,,,56,FEM,CON,150,bola,,a,0.4843,,189.5226,189.5228,-0.423148148,-0.087037037,0,0,0,,0,44,44,55,1,,,,
,,,,,,8577e2071a53498b184a5ce7,66a626ef09d4e21e1a8894ec,6735eceef5afe34882b19e38,2024-11-14_13h29.10.660,Tarea de género gramatical,2024.2.2,Win32,60.24096386,,,,,,,,,,,,,,,,,,,,,,,189.5241,190.7704,l,1,[],[],[],[],[],[],[],0.5664,1,190.7705,191.2692,,,,,,141,FEM,DIS,150,cera,el,a,0.5664,,191.2693,191.2695,-0.423148148,-0.087037037,0,0,0,,0,45,45,140,1,,,,
,,,,,,8577e2071a53498b184a5ce7,66a626ef09d4e21e1a8894ec,6735eceef5afe34882b19e38,2024-11-14_13h29.10.660,Tarea de género gramatical,2024.2.2,Win32,60.24096386,,,,,,,,,,,,,,,,,,,,,,,191.271,192.517,a,1,[],[],[],[],[],[],[],0.57,1,192.5172,193.0161,,,,,,274,MAS,AGR,150,motor,el,l,0.57,,193.0161,193.0163,-0.423148148,-0.087037037,0,0,0,,0,46,46,273,1,,,,
,,,,,,8577e2071a53498b184a5ce7,66a626ef09d4e21e1a8894ec,6735eceef5afe34882b19e38,2024-11-14_13h29.10.660,Tarea de género gramatical,2024.2.2,Win32,60.24096386,,,,,,,,,,,,,,,,,,,,,,,193.0178,194.2803,l,1,[],[],[],[],[],[],[],0.5915,1,194.2804,194.7793,,,,,,296,FEM,CON,150,feria,,a,0.5915,,194.7809,194.7819,-0.423148148,-0.087037037,0,0,0,,0,47,47,295,1,,,,
,,,,,,8577e2071a53498b184a5ce7,66a626ef09d4e21e1a8894ec,6735eceef5afe34882b19e38,2024-11-14_13h29.10.660,Tarea de género gramatical,2024.2.2,Win32,60.24096386,,,,,,,,,,,,,,,,,,,,,,,194.7829,196.0604,a,0,[],[],[],[],[],[],[],0.5998,0,196.0618,196.5593,,,,,,49,FEM,AGR,150,piel,la,a,0.5998,,196.5594,196.5596,-0.423148148,-0.087037037,0,0,0,,0,48,48,48,1,,,,
,,,,,,8577e2071a53498b184a5ce7,66a626ef09d4e21e1a8894ec,6735eceef5afe34882b19e38,2024-11-14_13h29.10.660,Tarea de género gramatical,2024.2.2,Win32,60.24096386,,,,,,,,,,,,,,,,,,,,,,,196.5612,197.7072,a,1,[],[],[],[],[],[],[],0.4666,1,197.7085,198.2061,,,,,,66,MAS,DIS,150,muro,la,l,0.4666,,198.2063,198.2064,-0.423148148,-0.087037037,0,0,0,,0,49,49,65,1,,,,
,,,,,,8577e2071a53498b184a5ce7,66a626ef09d4e21e1a8894ec,6735eceef5afe34882b19e38,2024-11-14_13h29.10.660,Tarea de género gramatical,2024.2.2,Win32,60.24096386,,,,,,,,,,,,,,,,,,,,,,,198.2082,199.404,l,1,[],[],[],[],[],[],[],0.5213,1,199.4042,199.9029,,,,,,147,FEM,DIS,150,grúa,el,a,0.5213,,199.9031,199.9032,-0.423148148,-0.087037037,0,0,0,,0,50,50,146,1,,,,
,,,,,,8577e2071a53498b184a5ce7,66a626ef09d4e21e1a8894ec,6735eceef5afe34882b19e38,2024-11-14_13h29.10.660,Tarea de género gramatical,2024.2.2,Win32,60.24096386,,,,,,,,,,,,,,,,,,,,,,,199.9049,201.0343,a,1,[],[],[],[],[],[],[],0.4566,1,201.0345,201.5332,,,,,,60,MAS,DIS,150,tono,la,l,0.4566,,201.5348,201.5358,-0.423148148,-0.087037037,0,0,0,,0,51,51,59,1,,,,
,,,,,,8577e2071a53498b184a5ce7,66a626ef09d4e21e1a8894ec,6735eceef5afe34882b19e38,2024-11-14_13h29.10.660,Tarea de género gramatical,2024.2.2,Win32,60.24096386,,,,,,,,,,,,,,,,,,,,,,,201.5367,202.7644,l,1,[],[],[],[],[],[],[],0.5539,1,202.7645,203.2637,,,,,,374,FEM,CON,150,herida,,a,0.5539,,203.2637,203.264,-0.423148148,-0.087037037,0,0,0,,0,52,52,373,1,,,,
,,,,,,8577e2071a53498b184a5ce7,66a626ef09d4e21e1a8894ec,6735eceef5afe34882b19e38,2024-11-14_13h29.10.660,Tarea de género gramatical,2024.2.2,Win32,60.24096386,,,,,,,,,,,,,,,,,,,,,,,203.2656,204.5775,a,1,[],[],[],[],[],[],[],0.6404,1,204.5776,205.0767,,,,,,138,MAS,DIS,150,luto,la,l,0.6404,,205.0768,205.077,-0.423148148,-0.087037037,0,0,0,,0,53,53,137,1,,,,
,,,,,,8577e2071a53498b184a5ce7,66a626ef09d4e21e1a8894ec,6735eceef5afe34882b19e38,2024-11-14_13h29.10.660,Tarea de género gramatical,2024.2.2,Win32,60.24096386,,,,,,,,,,,,,,,,,,,,,,,205.0784,206.3744,a,1,[],[],[],[],[],[],[],0.6269,1,206.3746,206.8732,,,,,,148,MAS,AGR,150,surf,el,l,0.6269,,206.8732,206.8734,-0.423148148,-0.087037037,0,0,0,,0,54,54,147,1,,,,
,,,,,,8577e2071a53498b184a5ce7,66a626ef09d4e21e1a8894ec,6735eceef5afe34882b19e38,2024-11-14_13h29.10.660,Tarea de género gramatical,2024.2.2,Win32,60.24096386,,,,,,,,,,,,,,,,,,,,,,,206.8747,208.038,l,1,[],[],[],[],[],[],[],0.4946,1,208.0381,208.5367,,,,,,63,FEM,DIS,150,fila,el,a,0.4946,,208.5369,208.537,-0.423148148,-0.087037037,0,0,0,,0,55,55,62,1,,,,
,,,,,,8577e2071a53498b184a5ce7,66a626ef09d4e21e1a8894ec,6735eceef5afe34882b19e38,2024-11-14_13h29.10.660,Tarea de género gramatical,2024.2.2,Win32,60.24096386,,,,,,,,,,,,,,,,,,,,,,,208.5385,209.9342,a,1,[],[],[],[],[],[],[],0.7186,1,209.9344,210.4332,,,,,,250,MAS,AGR,150,cerdo,el,l,0.7186,,210.4349,210.436,-0.423148148,-0.087037037,0,0,0,,0,56,56,249,1,,,,
,,,,,,8577e2071a53498b184a5ce7,66a626ef09d4e21e1a8894ec,6735eceef5afe34882b19e38,2024-11-14_13h29.10.660,Tarea de género gramatical,2024.2.2,Win32,60.24096386,,,,,,,,,,,,,,,,,,,,,,,210.4369,211.7641,l,1,[],[],[],[],[],[],[],0.6543,1,211.7643,212.2631,,,,,,182,FEM,CON,150,prisa,,a,0.6543,,212.2632,212.2634,-0.423148148,-0.087037037,0,0,0,,0,57,57,181,1,,,,
,,,,,,8577e2071a53498b184a5ce7,66a626ef09d4e21e1a8894ec,6735eceef5afe34882b19e38,2024-11-14_13h29.10.660,Tarea de género gramatical,2024.2.2,Win32,60.24096386,,,,,,,,,,,,,,,,,,,,,,,212.265,213.7103,l,1,[],[],[],[],[],[],[],0.7682,1,213.7104,214.2094,,,,,,357,FEM,DIS,150,lengua,el,a,0.7682,,214.2095,214.2096,-0.423148148,-0.087037037,0,0,0,,0,58,58,356,1,,,,
,,,,,,8577e2071a53498b184a5ce7,66a626ef09d4e21e1a8894ec,6735eceef5afe34882b19e38,2024-11-14_13h29.10.660,Tarea de género gramatical,2024.2.2,Win32,60.24096386,,,,,,,,,,,,,,,,,,,,,,,214.2111,215.3573,a,1,[],[],[],[],[],[],[],0.4702,1,215.3574,215.8565,,,,,,358,MAS,AGR,150,motivo,el,l,0.4702,,215.8565,215.8567,-0.423148148,-0.087037037,0,0,0,,0,59,59,357,1,,,,
,,,,,,8577e2071a53498b184a5ce7,66a626ef09d4e21e1a8894ec,6735eceef5afe34882b19e38,2024-11-14_13h29.10.660,Tarea de género gramatical,2024.2.2,Win32,60.24096386,,,,,,,,,,,,,,,,,,,,,,,215.8582,217.0377,l,1,[],[],[],[],[],[],[],0.5111,1,217.0378,217.5367,,,,,,261,FEM,DIS,150,cueva,el,a,0.5111,,217.5383,217.5393,-0.423148148,-0.087037037,0,0,0,,0,60,60,260,1,,,,
,,,,,,8577e2071a53498b184a5ce7,66a626ef09d4e21e1a8894ec,6735eceef5afe34882b19e38,2024-11-14_13h29.10.660,Tarea de género gramatical,2024.2.2,Win32,60.24096386,,,,,,,,,,,,,,,,,,,,,,,217.5402,218.6345,a,1,[],[],[],[],[],[],[],0.4161,1,218.6347,219.1336,,,,,,59,MAS,CON,150,lobo,,l,0.4161,,219.1336,219.1338,-0.423148148,-0.087037037,0,0,0,,0,61,61,58,1,,,,
,,,,,,8577e2071a53498b184a5ce7,66a626ef09d4e21e1a8894ec,6735eceef5afe34882b19e38,2024-11-14_13h29.10.660,Tarea de género gramatical,2024.2.2,Win32,60.24096386,,,,,,,,,,,,,,,,,,,,,,,219.1353,220.3479,a,0,[],[],[],[],[],[],[],0.5329,0,220.349,220.8469,,,,,,152,FEM,CON,150,gente,,a,0.5329,,220.847,220.8472,-0.423148148,-0.087037037,0,0,0,,0,62,62,151,1,,,,
,,,,,,8577e2071a53498b184a5ce7,66a626ef09d4e21e1a8894ec,6735eceef5afe34882b19e38,2024-11-14_13h29.10.660,Tarea de género gramatical,2024.2.2,Win32,60.24096386,,,,,,,,,,,,,,,,,,,,,,,220.8485,222.0947,l,1,[],[],[],[],[],[],[],0.5684,1,222.0962,222.5937,,,,,,343,FEM,AGR,150,trampa,la,a,0.5684,,222.5938,222.5939,-0.423148148,-0.087037037,0,0,0,,0,63,63,342,1,,,,
,,,,,,8577e2071a53498b184a5ce7,66a626ef09d4e21e1a8894ec,6735eceef5afe34882b19e38,2024-11-14_13h29.10.660,Tarea de género gramatical,2024.2.2,Win32,60.24096386,,,,,,,,,,,,,,,,,,,,,,,222.5957,223.858,a,1,[],[],[],[],[],[],[],0.5898,1,223.8581,224.357,,,,,,324,MAS,DIS,150,cuarto,la,l,0.5898,,224.357,224.3572,-0.423148148,-0.087037037,0,0,0,,0,64,64,323,1,,,,
,,,,,,8577e2071a53498b184a5ce7,66a626ef09d4e21e1a8894ec,6735eceef5afe34882b19e38,2024-11-14_13h29.10.660,Tarea de género gramatical,2024.2.2,Win32,60.24096386,,,,,,,,,,,,,,,,,,,,,,,224.3589,225.7379,a,1,[],[],[],[],[],[],[],0.6994,1,225.7382,226.2368,,,,,,11,MAS,CON,150,país,,l,0.6994,,226.2386,226.2401,-0.423148148,-0.087037037,0,0,0,,0,65,65,10,1,,,,
,,,,,,8577e2071a53498b184a5ce7,66a626ef09d4e21e1a8894ec,6735eceef5afe34882b19e38,2024-11-14_13h29.10.660,Tarea de género gramatical,2024.2.2,Win32,60.24096386,,,,,,,,,,,,,,,,,,,,,,,226.241,227.6674,l,1,[],[],[],[],[],[],[],0.749,1,227.6676,228.1666,,,,,,356,FEM,CON,150,piedra,,a,0.749,,228.1666,228.1668,-0.423148148,-0.087037037,0,0,0,,0,66,66,355,1,,,,
,,,,,,8577e2071a53498b184a5ce7,66a626ef09d4e21e1a8894ec,6735eceef5afe34882b19e38,2024-11-14_13h29.10.660,Tarea de género gramatical,2024.2.2,Win32,60.24096386,,,,,,,,,,,,,,,,,,,,,,,228.1681,229.4641,l,1,[],[],[],[],[],[],[],0.625,1,229.4642,229.9631,,,,,,433,FEM,AGR,150,huella,la,a,0.625,,229.9632,229.9633,-0.423148148,-0.087037037,0,0,0,,0,67,67,432,1,,,,
,,,,,,8577e2071a53498b184a5ce7,66a626ef09d4e21e1a8894ec,6735eceef5afe34882b19e38,2024-11-14_13h29.10.660,Tarea de género gramatical,2024.2.2,Win32,60.24096386,,,,,,,,,,,,,,,,,,,,,,,229.9646,231.2275,l,1,[],[],[],[],[],[],[],0.5885,1,231.2276,231.7265,,,,,,434,FEM,CON,150,corona,,a,0.5885,,231.7265,231.7267,-0.423148148,-0.087037037,0,0,0,,0,68,68,433,1,,,,
,,,,,,8577e2071a53498b184a5ce7,66a626ef09d4e21e1a8894ec,6735eceef5afe34882b19e38,2024-11-14_13h29.10.660,Tarea de género gramatical,2024.2.2,Win32,60.24096386,,,,,,,,,,,,,,,,,,,,,,,231.7281,232.9243,l,1,[],[],[],[],[],[],[],0.5211,1,232.9244,233.4234,,,,,,43,FEM,AGR,150,nena,la,a,0.5211,,233.4251,233.4262,-0.423148148,-0.087037037,0,0,0,,0,69,69,42,1,,,,
,,,,,,8577e2071a53498b184a5ce7,66a626ef09d4e21e1a8894ec,6735eceef5afe34882b19e38,2024-11-14_13h29.10.660,Tarea de género gramatical,2024.2.2,Win32,60.24096386,,,,,,,,,,,,,,,,,,,,,,,233.4271,234.6378,l,1,[],[],[],[],[],[],[],0.5333,1,234.6379,235.1367,,,,,,207,FEM,DIS,150,playa,el,a,0.5333,,235.1367,235.137,-0.423148148,-0.087037037,0,0,0,,0,70,70,206,1,,,,
,,,,,,8577e2071a53498b184a5ce7,66a626ef09d4e21e1a8894ec,6735eceef5afe34882b19e38,2024-11-14_13h29.10.660,Tarea de género gramatical,2024.2.2,Win32,60.24096386,,,,,,,,,,,,,,,,,,,,,,,235.1384,236.4842,l,1,[],[],[],[],[],[],[],0.6656,1,236.4843,236.9832,,,,,,211,FEM,AGR,150,salud,la,a,0.6656,,236.9833,236.9834,-0.423148148,-0.087037037,0,0,0,,0,71,71,210,1,,,,
,,,,,,8577e2071a53498b184a5ce7,66a626ef09d4e21e1a8894ec,6735eceef5afe34882b19e38,2024-11-14_13h29.10.660,Tarea de género gramatical,2024.2.2,Win32,60.24096386,,,,,,,,,,,,,,,,,,,,,,,236.9848,238.2476,l,1,[],[],[],[],[],[],[],0.5844,1,238.2478,238.7467,,,,,,44,FEM,CON,150,zona,,a,0.5844,,238.7468,238.7469,-0.423148148,-0.087037037,0,0,0,,0,72,72,43,1,,,,
,,,,,,8577e2071a53498b184a5ce7,66a626ef09d4e21e1a8894ec,6735eceef5afe34882b19e38,2024-11-14_13h29.10.660,Tarea de género gramatical,2024.2.2,Win32,60.24096386,,,,,,,,,,,,,,,,,,,,,,,238.7485,239.878,a,0,[],[],[],[],[],[],[],0.4612,0,239.8791,240.3769,,,,,,235,FEM,AGR,150,torre,la,a,0.4612,,240.377,240.3772,-0.423148148,-0.087037037,0,0,0,,0,73,73,234,1,,,,
,,,,,,8577e2071a53498b184a5ce7,66a626ef09d4e21e1a8894ec,6735eceef5afe34882b19e38,2024-11-14_13h29.10.660,Tarea de género gramatical,2024.2.2,Win32,60.24096386,,,,,,,,,,,,,,,,,,,,,,,240.3785,241.9408,a,1,[],[],[],[],[],[],[],0.8866,1,241.9421,242.4397,,,,,,292,MAS,AGR,150,piano,el,l,0.8866,,242.4415,242.443,-0.423148148,-0.087037037,0,0,0,,0,74,74,291,1,,,,
,,,,,,8577e2071a53498b184a5ce7,66a626ef09d4e21e1a8894ec,6735eceef5afe34882b19e38,2024-11-14_13h29.10.660,Tarea de género gramatical,2024.2.2,Win32,60.24096386,,,,,,,,,,,,,,,,,,,,,,,242.444,243.6873,l,1,[],[],[],[],[],[],[],0.5757,1,243.6875,244.1863,,,,,,122,FEM,CON,150,loca,,a,0.5757,,244.1864,244.1866,-0.423148148,-0.087037037,0,0,0,,0,75,75,121,1,,,,
,,,,,,8577e2071a53498b184a5ce7,66a626ef09d4e21e1a8894ec,6735eceef5afe34882b19e38,2024-11-14_13h29.10.660,Tarea de género gramatical,2024.2.2,Win32,60.24096386,,,,,,,,,,,,,,,,,,,,,,,244.1879,245.6171,l,1,[],[],[],[],[],[],[],0.7495,1,245.6173,246.1161,,,,,,319,FEM,AGR,150,sangre,la,a,0.7495,,246.1162,246.1164,-0.423148148,-0.087037037,0,0,0,,0,76,76,318,1,,,,
,,,,,,8577e2071a53498b184a5ce7,66a626ef09d4e21e1a8894ec,6735eceef5afe34882b19e38,2024-11-14_13h29.10.660,Tarea de género gramatical,2024.2.2,Win32,60.24096386,,,,,,,,,,,,,,,,,,,,,,,246.1179,247.4137,l,1,[],[],[],[],[],[],[],0.6195,1,247.4138,247.9129,,,,,,33,FEM,DIS,150,boda,el,a,0.6195,,247.913,247.9131,-0.423148148,-0.087037037,0,0,0,,0,77,77,32,1,,,,
,,,,,,8577e2071a53498b184a5ce7,66a626ef09d4e21e1a8894ec,6735eceef5afe34882b19e38,2024-11-14_13h29.10.660,Tarea de género gramatical,2024.2.2,Win32,60.24096386,,,,,,,,,,,,,,,,,,,,,,,247.9145,249.1938,l,1,[],[],[],[],[],[],[],0.5998,1,249.194,249.6931,,,,,,404,FEM,CON,150,gloria,,a,0.5998,,249.6948,249.6962,-0.423148148,-0.087037037,0,0,0,,0,78,78,403,1,,,,
,,,,,,8577e2071a53498b184a5ce7,66a626ef09d4e21e1a8894ec,6735eceef5afe34882b19e38,2024-11-14_13h29.10.660,Tarea de género gramatical,2024.2.2,Win32,60.24096386,,,,,,,,,,,,,,,,,,,,,,,249.6972,251.2732,l,1,[],[],[],[],[],[],[],0.8993,1,251.2733,251.7722,,,,,,7,FEM,AGR,150,hora,la,a,0.8993,,251.7722,251.7724,-0.423148148,-0.087037037,0,0,0,,0,79,79,6,1,,,,
,,,,,,8577e2071a53498b184a5ce7,66a626ef09d4e21e1a8894ec,6735eceef5afe34882b19e38,2024-11-14_13h29.10.660,Tarea de género gramatical,2024.2.2,Win32,60.24096386,,,,,,,,,,,,,,,,,,,,,,,251.774,253.1198,a,1,[],[],[],[],[],[],[],0.6755,1,253.1199,253.6187,,,,,,222,MAS,DIS,150,valor,la,l,0.6755,,253.6187,253.6189,-0.423148148,-0.087037037,0,0,0,,0,80,80,221,1,,,,
,,,,,,8577e2071a53498b184a5ce7,66a626ef09d4e21e1a8894ec,6735eceef5afe34882b19e38,2024-11-14_13h29.10.660,Tarea de género gramatical,2024.2.2,Win32,60.24096386,,,,,,,,,,,,,,,,,,,,,,,253.6203,254.8498,l,1,[],[],[],[],[],[],[],0.5569,1,254.85,255.3488,,,,,,386,FEM,CON,150,sombra,,a,0.5569,,255.3488,255.349,-0.423148148,-0.087037037,0,0,0,,0,81,81,385,1,,,,
,,,,,,8577e2071a53498b184a5ce7,66a626ef09d4e21e1a8894ec,6735eceef5afe34882b19e38,2024-11-14_13h29.10.660,Tarea de género gramatical,2024.2.2,Win32,60.24096386,,,,,,,,,,,,,,,,,,,,,,,255.3504,256.5797,l,1,[],[],[],[],[],[],[],0.5548,1,256.5799,257.0787,,,,,,289,FEM,AGR,150,tabla,la,a,0.5548,,257.0788,257.079,-0.423148148,-0.087037037,0,0,0,,0,82,82,288,1,,,,
,,,,,,8577e2071a53498b184a5ce7,66a626ef09d4e21e1a8894ec,6735eceef5afe34882b19e38,2024-11-14_13h29.10.660,Tarea de género gramatical,2024.2.2,Win32,60.24096386,,,,,,,,,,,,,,,,,,,,,,,257.0804,258.4929,l,1,[],[],[],[],[],[],[],0.7328,1,258.4931,258.9919,,,,,,327,FEM,DIS,150,tienda,el,a,0.7328,,258.9935,258.9949,-0.423148148,-0.087037037,0,0,0,,0,83,83,326,1,,,,
,,,,,,8577e2071a53498b184a5ce7,66a626ef09d4e21e1a8894ec,6735eceef5afe34882b19e38,2024-11-14_13h29.10.660,Tarea de género gramatical,2024.2.2,Win32,60.24096386,,,,,,,,,,,,,,,,,,,,,,,258.9959,260.4227,a,1,[],[],[],[],[],[],[],0.7519,1,260.4228,260.9217,,,,,,282,MAS,DIS,150,bolso,la,l,0.7519,,260.9218,260.9219,-0.423148148,-0.087037037,0,0,0,,0,84,84,281,1,,,,
,,,,,,8577e2071a53498b184a5ce7,66a626ef09d4e21e1a8894ec,6735eceef5afe34882b19e38,2024-11-14_13h29.10.660,Tarea de género gramatical,2024.2.2,Win32,60.24096386,,,,,,,,,,,,,,,,,,,,,,,260.9237,262.4355,a,1,[],[],[],[],[],[],[],0.8324,1,262.4357,262.9344,,,,,,192,MAS,DIS,150,grupo,la,l,0.8324,,262.9346,262.9347,-0.423148148,-0.087037037,0,0,0,,0,85,85,191,1,,,,
,,,,,,8577e2071a53498b184a5ce7,66a626ef09d4e21e1a8894ec,6735eceef5afe34882b19e38,2024-11-14_13h29.10.660,Tarea de género gramatical,2024.2.2,Win32,60.24096386,,,,,,,,,,,,,,,,,,,,,,,262.9362,264.2488,l,1,[],[],[],[],[],[],[],0.6332,1,264.2489,264.7479,,,,,,80,FEM,CON,150,vaca,,a,0.6332,,264.748,264.7481,-0.423148148,-0.087037037,0,0,0,,0,86,86,79,1,,,,
,,,,,,8577e2071a53498b184a5ce7,66a626ef09d4e21e1a8894ec,6735eceef5afe34882b19e38,2024-11-14_13h29.10.660,Tarea de género gramatical,2024.2.2,Win32,60.24096386,,,,,,,,,,,,,,,,,,,,,,,264.7501,266.2117,a,1,[],[],[],[],[],[],[],0.7825,1,266.2119,266.7108,,,,,,234,MAS,DIS,150,héroe,la,l,0.7825,,266.7126,266.7138,-0.423148148,-0.087037037,0,0,0,,0,87,87,233,1,,,,
,,,,,,8577e2071a53498b184a5ce7,66a626ef09d4e21e1a8894ec,6735eceef5afe34882b19e38,2024-11-14_13h29.10.660,Tarea de género gramatical,2024.2.2,Win32,60.24096386,,,,,,,,,,,,,,,,,,,,,,,266.7148,268.0249,l,1,[],[],[],[],[],[],[],0.6327,1,268.025,268.5239,,,,,,194,FEM,CON,150,banda,,a,0.6327,,268.524,268.5241,-0.423148148,-0.087037037,0,0,0,,0,88,88,193,1,,,,
,,,,,,8577e2071a53498b184a5ce7,66a626ef09d4e21e1a8894ec,6735eceef5afe34882b19e38,2024-11-14_13h29.10.660,Tarea de género gramatical,2024.2.2,Win32,60.24096386,,,,,,,,,,,,,,,,,,,,,,,268.5256,269.9713,l,1,[],[],[],[],[],[],[],0.7658,1,269.9715,270.4703,,,,,,146,FEM,CON,150,lana,,a,0.7658,,270.4704,270.4706,-0.423148148,-0.087037037,0,0,0,,0,89,89,145,1,,,,
,,,,,,8577e2071a53498b184a5ce7,66a626ef09d4e21e1a8894ec,6735eceef5afe34882b19e38,2024-11-14_13h29.10.660,Tarea de género gramatical,2024.2.2,Win32,60.24096386,,,,,,,,,,,,,,,,,,,,,,,270.4719,272.0508,l,1,[],[],[],[],[],[],[],0.9053,1,272.0509,272.5497,,,,,,189,FEM,DIS,150,pista,el,a,0.9053,,272.5497,272.5499,-0.423148148,-0.087037037,0,0,0,,0,90,90,188,1,,,,
,,,,,,8577e2071a53498b184a5ce7,66a626ef09d4e21e1a8894ec,6735eceef5afe34882b19e38,2024-11-14_13h29.10.660,Tarea de género gramatical,2024.2.2,Win32,60.24096386,,,,,,,,,,,,,,,,,,,,,,,272.5515,273.8807,a,1,[],[],[],[],[],[],[],0.6502,1,273.8808,274.3796,,,,,,238,MAS,AGR,150,norte,el,l,0.6502,,274.3797,274.3798,-0.423148148,-0.087037037,0,0,0,,0,91,91,237,1,,,,
,,,,,,8577e2071a53498b184a5ce7,66a626ef09d4e21e1a8894ec,6735eceef5afe34882b19e38,2024-11-14_13h29.10.660,Tarea de género gramatical,2024.2.2,Win32,60.24096386,,,,,,,,,,,,,,,,,,,,,,,274.3832,275.8271,a,1,[],[],[],[],[],[],[],0.7658,1,275.8272,276.326,,,,,,130,MAS,AGR,150,yate,el,l,0.7658,,276.3275,276.3287,-0.423148148,-0.087037037,0,0,0,,0,92,92,129,1,,,,
,,,,,,8577e2071a53498b184a5ce7,66a626ef09d4e21e1a8894ec,6735eceef5afe34882b19e38,2024-11-14_13h29.10.660,Tarea de género gramatical,2024.2.2,Win32,60.24096386,,,,,,,,,,,,,,,,,,,,,,,276.3297,277.5238,l,1,[],[],[],[],[],[],[],0.5215,1,277.5239,278.0228,,,,,,373,FEM,AGR,150,lluvia,la,a,0.5215,,278.0229,278.023,-0.423148148,-0.087037037,0,0,0,,0,93,93,372,1,,,,
,,,,,,8577e2071a53498b184a5ce7,66a626ef09d4e21e1a8894ec,6735eceef5afe34882b19e38,2024-11-14_13h29.10.660,Tarea de género gramatical,2024.2.2,Win32,60.24096386,,,,,,,,,,,,,,,,,,,,,,,278.0244,279.4367,l,1,[],[],[],[],[],[],[],0.7327,1,279.4369,279.936,,,,,,315,FEM,DIS,150,manera,el,a,0.7327,,279.936,279.9362,-0.423148148,-0.087037037,0,0,0,,0,94,94,314,1,,,,
,,,,,,8577e2071a53498b184a5ce7,66a626ef09d4e21e1a8894ec,6735eceef5afe34882b19e38,2024-11-14_13h29.10.660,Tarea de género gramatical,2024.2.2,Win32,60.24096386,,,,,,,,,,,,,,,,,,,,,,,279.9374,281.2002,a,1,[],[],[],[],[],[],[],0.584,1,281.2003,281.6992,,,,,,71,MAS,CON,150,pozo,,l,0.584,,281.6993,281.6994,-0.423148148,-0.087037037,0,0,0,,0,95,95,70,1,,,,
,,,,,,8577e2071a53498b184a5ce7,66a626ef09d4e21e1a8894ec,6735eceef5afe34882b19e38,2024-11-14_13h29.10.660,Tarea de género gramatical,2024.2.2,Win32,60.24096386,,,,,,,,,,,,,,,,,,,,,,,281.701,283.0632,a,1,[],[],[],[],[],[],[],0.6844,1,283.0634,283.5623,,,,,,413,MAS,CON,150,diario,,l,0.6844,,283.5639,283.5649,-0.423148148,-0.087037037,0,0,0,,0,96,96,412,1,,,,
,,,,,,8577e2071a53498b184a5ce7,66a626ef09d4e21e1a8894ec,6735eceef5afe34882b19e38,2024-11-14_13h29.10.660,Tarea de género gramatical,2024.2.2,Win32,60.24096386,,,,,,,,,,,,,,,,,,,,,,,283.5658,284.8267,a,1,[],[],[],[],[],[],[],0.583,1,284.8268,285.3259,,,,,,96,MAS,DIS,150,pato,la,l,0.583,,285.326,285.3261,-0.423148148,-0.087037037,0,0,0,,0,97,97,95,1,,,,
,,,,,,8577e2071a53498b184a5ce7,66a626ef09d4e21e1a8894ec,6735eceef5afe34882b19e38,2024-11-14_13h29.10.660,Tarea de género gramatical,2024.2.2,Win32,60.24096386,,,,,,,,,,,,,,,,,,,,,,,285.3276,286.6068,a,1,[],[],[],[],[],[],[],0.6104,1,286.6069,287.1057,,,,,,317,MAS,CON,150,número,,l,0.6104,,287.1058,287.106,-0.423148148,-0.087037037,0,0,0,,0,98,98,316,1,,,,
,,,,,,8577e2071a53498b184a5ce7,66a626ef09d4e21e1a8894ec,6735eceef5afe34882b19e38,2024-11-14_13h29.10.660,Tarea de género gramatical,2024.2.2,Win32,60.24096386,,,,,,,,,,,,,,,,,,,,,,,287.1073,288.47,a,1,[],[],[],[],[],[],[],0.6861,1,288.47,288.9688,,,,,,432,MAS,DIS,150,océano,la,l,0.6861,,288.9688,288.9691,-0.423148148,-0.087037037,0,0,0,,0,99,99,431,1,,,,
,,,,,,8577e2071a53498b184a5ce7,66a626ef09d4e21e1a8894ec,6735eceef5afe34882b19e38,2024-11-14_13h29.10.660,Tarea de género gramatical,2024.2.2,Win32,60.24096386,,,,,,,,,,,,,,,,,,,,,,,288.9708,290.2499,a,1,[],[],[],[],[],[],[],0.5997,1,290.25,290.7488,,,,,,352,MAS,AGR,150,estilo,el,l,0.5997,,290.7488,290.749,-0.423148148,-0.087037037,0,0,0,,0,100,100,351,1,,,,
,,,,,,8577e2071a53498b184a5ce7,66a626ef09d4e21e1a8894ec,6735eceef5afe34882b19e38,2024-11-14_13h29.10.660,Tarea de género gramatical,2024.2.2,Win32,60.24096386,,,,,,,,,,,,,,,,,,,,,,,290.7503,291.93,l,1,[],[],[],[],[],[],[],0.4997,1,291.9302,292.429,,,,,,446,FEM,CON,150,bañera,,a,0.4997,,292.4307,292.4317,-0.423148148,-0.087037037,0,0,0,,0,101,101,445,1,,,,
,,,,,,8577e2071a53498b184a5ce7,66a626ef09d4e21e1a8894ec,6735eceef5afe34882b19e38,2024-11-14_13h29.10.660,Tarea de género gramatical,2024.2.2,Win32,60.24096386,,,,,,,,,,,,,,,,,,,,,,,292.4326,293.7598,a,0,[],[],[],[],[],[],[],0.6589,0,293.761,294.2588,,,,,,206,FEM,CON,150,época,,a,0.6589,,294.2589,294.2591,-0.423148148,-0.087037037,0,0,0,,0,102,102,205,1,,,,
,,,,,,8577e2071a53498b184a5ce7,66a626ef09d4e21e1a8894ec,6735eceef5afe34882b19e38,2024-11-14_13h29.10.660,Tarea de género gramatical,2024.2.2,Win32,60.24096386,,,,,,,,,,,,,,,,,,,,,,,294.2604,295.44,a,1,[],[],[],[],[],[],[],0.5089,1,295.4413,295.939,,,,,,258,MAS,DIS,150,polvo,la,l,0.5089,,295.9391,295.9391,-0.423148148,-0.087037037,0,0,0,,0,103,103,257,1,,,,
,,,,,,8577e2071a53498b184a5ce7,66a626ef09d4e21e1a8894ec,6735eceef5afe34882b19e38,2024-11-14_13h29.10.660,Tarea de género gramatical,2024.2.2,Win32,60.24096386,,,,,,,,,,,,,,,,,,,,,,,295.9408,297.1371,l,1,[],[],[],[],[],[],[],0.5167,1,297.1372,297.6359,,,,,,20,FEM,CON,150,ropa,,a,0.5167,,297.636,297.6361,-0.423148148,-0.087037037,0,0,0,,0,104,104,19,1,,,,
,,,,,,8577e2071a53498b184a5ce7,66a626ef09d4e21e1a8894ec,6735eceef5afe34882b19e38,2024-11-14_13h29.10.660,Tarea de género gramatical,2024.2.2,Win32,60.24096386,,,,,,,,,,,,,,,,,,,,,,,297.6379,298.9003,l,1,[],[],[],[],[],[],[],0.5876,1,298.9004,299.3993,,,,,,236,FEM,CON,150,deuda,,a,0.5876,,299.401,299.4022,-0.423148148,-0.087037037,0,0,0,,0,105,105,235,1,,,,
,,,,,,8577e2071a53498b184a5ce7,66a626ef09d4e21e1a8894ec,6735eceef5afe34882b19e38,2024-11-14_13h29.10.660,Tarea de género gramatical,2024.2.2,Win32,60.24096386,,,,,,,,,,,,,,,,,,,,,,,299.4031,300.5805,a,1,[],[],[],[],[],[],[],0.5046,1,300.5806,301.0794,,,,,,198,MAS,DIS,150,hotel,la,l,0.5046,,301.0795,301.0796,-0.423148148,-0.087037037,0,0,0,,0,106,106,197,1,,,,
,,,,,,8577e2071a53498b184a5ce7,66a626ef09d4e21e1a8894ec,6735eceef5afe34882b19e38,2024-11-14_13h29.10.660,Tarea de género gramatical,2024.2.2,Win32,60.24096386,,,,,,,,,,,,,,,,,,,,,,,301.0811,302.3105,l,1,[],[],[],[],[],[],[],0.5526,1,302.3106,302.8095,,,,,,145,FEM,AGR,150,bota,la,a,0.5526,,302.8096,302.8097,-0.423148148,-0.087037037,0,0,0,,0,107,107,144,1,,,,
,,,,,,8577e2071a53498b184a5ce7,66a626ef09d4e21e1a8894ec,6735eceef5afe34882b19e38,2024-11-14_13h29.10.660,Tarea de género gramatical,2024.2.2,Win32,60.24096386,,,,,,,,,,,,,,,,,,,,,,,302.811,304.024,l,1,[],[],[],[],[],[],[],0.5343,1,304.0241,304.523,,,,,,188,FEM,CON,150,bomba,,a,0.5343,,304.5231,304.5231,-0.423148148,-0.087037037,0,0,0,,0,108,108,187,1,,,,
,,,,,,8577e2071a53498b184a5ce7,66a626ef09d4e21e1a8894ec,6735eceef5afe34882b19e38,2024-11-14_13h29.10.660,Tarea de género gramatical,2024.2.2,Win32,60.24096386,,,,,,,,,,,,,,,,,,,,,,,304.5245,305.8547,l,1,[],[],[],[],[],[],[],0.6614,1,305.8548,306.3528,,,,,,361,FEM,AGR,150,oferta,la,a,0.6614,,306.353,306.3531,-0.423148148,-0.087037037,0,0,0,,0,109,109,360,1,,,,
,,,,,,8577e2071a53498b184a5ce7,66a626ef09d4e21e1a8894ec,6735eceef5afe34882b19e38,2024-11-14_13h29.10.660,Tarea de género gramatical,2024.2.2,Win32,60.24096386,,,,,,,,,,,,,,,,,,,,,,,306.3547,307.5673,l,1,[],[],[],[],[],[],[],0.5351,1,307.5674,308.0663,,,,,,55,FEM,AGR,150,taza,la,a,0.5351,,308.0681,308.0691,-0.423148148,-0.087037037,0,0,0,,0,110,110,54,1,,,,
,,,,,,8577e2071a53498b184a5ce7,66a626ef09d4e21e1a8894ec,6735eceef5afe34882b19e38,2024-11-14_13h29.10.660,Tarea de género gramatical,2024.2.2,Win32,60.24096386,,,,,,,,,,,,,,,,,,,,,,,308.0701,309.2639,a,1,[],[],[],[],[],[],[],0.5254,1,309.2641,309.7632,,,,,,300,MAS,DIS,150,túnel,la,l,0.5254,,309.7633,309.7634,-0.423148148,-0.087037037,0,0,0,,0,111,111,299,1,,,,
,,,,,,8577e2071a53498b184a5ce7,66a626ef09d4e21e1a8894ec,6735eceef5afe34882b19e38,2024-11-14_13h29.10.660,Tarea de género gramatical,2024.2.2,Win32,60.24096386,,,,,,,,,,,,,,,,,,,,,,,309.7651,311.1937,a,1,[],[],[],[],[],[],[],0.7491,1,311.1939,311.6928,,,,,,179,MAS,CON,150,viaje,,l,0.7491,,311.6929,311.693,-0.423148148,-0.087037037,0,0,0,,0,112,112,178,1,,,,
,,,,,,8577e2071a53498b184a5ce7,66a626ef09d4e21e1a8894ec,6735eceef5afe34882b19e38,2024-11-14_13h29.10.660,Tarea de género gramatical,2024.2.2,Win32,60.24096386,,,,,,,,,,,,,,,,,,,,,,,311.6944,313.0901,l,1,[],[],[],[],[],[],[],0.7159,1,313.0903,313.5891,,,,,,242,FEM,CON,150,pizza,,a,0.7159,,313.5892,313.5893,-0.423148148,-0.087037037,0,0,0,,0,113,113,241,1,,,,
,,,,,,8577e2071a53498b184a5ce7,66a626ef09d4e21e1a8894ec,6735eceef5afe34882b19e38,2024-11-14_13h29.10.660,Tarea de género gramatical,2024.2.2,Win32,60.24096386,,,,,,,,,,,,,,,,,,,,,,,313.5909,314.9202,a,1,[],[],[],[],[],[],[],0.6506,1,314.9203,315.419,,,,,,420,MAS,DIS,150,helado,la,l,0.6506,,315.4209,315.422,-0.423148148,-0.087037037,0,0,0,,0,114,114,419,1,,,,
,,,,,,8577e2071a53498b184a5ce7,66a626ef09d4e21e1a8894ec,6735eceef5afe34882b19e38,2024-11-14_13h29.10.660,Tarea de género gramatical,2024.2.2,Win32,60.24096386,,,,,,,,,,,,,,,,,,,,,,,315.423,316.6169,a,1,[],[],[],[],[],[],[],0.5166,1,316.6171,317.1159,,,,,,251,MAS,CON,150,dueño,,l,0.5166,,317.116,317.1161,-0.423148148,-0.087037037,0,0,0,,0,115,115,250,1,,,,
,,,,,,8577e2071a53498b184a5ce7,66a626ef09d4e21e1a8894ec,6735eceef5afe34882b19e38,2024-11-14_13h29.10.660,Tarea de género gramatical,2024.2.2,Win32,60.24096386,,,,,,,,,,,,,,,,,,,,,,,317.1177,318.447,a,1,[],[],[],[],[],[],[],0.6523,1,318.447,318.9459,,,,,,341,MAS,CON,150,precio,,l,0.6523,,318.9459,318.9461,-0.423148148,-0.087037037,0,0,0,,0,116,116,340,1,,,,
,,,,,,8577e2071a53498b184a5ce7,66a626ef09d4e21e1a8894ec,6735eceef5afe34882b19e38,2024-11-14_13h29.10.660,Tarea de género gramatical,2024.2.2,Win32,60.24096386,,,,,,,,,,,,,,,,,,,,,,,318.9476,320.1103,a,1,[],[],[],[],[],[],[],0.4859,1,320.1105,320.6093,,,,,,90,MAS,DIS,150,león,la,l,0.4859,,320.6094,320.6094,-0.423148148,-0.087037037,0,0,0,,0,117,117,89,1,,,,
,,,,,,8577e2071a53498b184a5ce7,66a626ef09d4e21e1a8894ec,6735eceef5afe34882b19e38,2024-11-14_13h29.10.660,Tarea de género gramatical,2024.2.2,Win32,60.24096386,,,,,,,,,,,,,,,,,,,,,,,320.6109,321.7738,a,1,[],[],[],[],[],[],[],0.4833,1,321.7739,322.2729,,,,,,23,MAS,CON,150,rato,,l,0.4833,,322.273,322.2731,-0.423148148,-0.087037037,0,0,0,,0,118,118,22,1,,,,
,,,,,,8577e2071a53498b184a5ce7,66a626ef09d4e21e1a8894ec,6735eceef5afe34882b19e38,2024-11-14_13h29.10.660,Tarea de género gramatical,2024.2.2,Win32,60.24096386,,,,,,,,,,,,,,,,,,,,,,,322.2749,323.504,a,1,[],[],[],[],[],[],[],0.5595,1,323.5041,324.003,,,,,,102,MAS,DIS,150,coro,la,l,0.5595,,324.0048,324.006,-0.423148148,-0.087037037,0,0,0,,0,119,119,101,1,,,,
,,,,,,8577e2071a53498b184a5ce7,66a626ef09d4e21e1a8894ec,6735eceef5afe34882b19e38,2024-11-14_13h29.10.660,Tarea de género gramatical,2024.2.2,Win32,60.24096386,,,,,,,,,,,,,,,,,,,,,,,324.0069,325.2175,l,1,[],[],[],[],[],[],[],0.5411,1,325.2177,325.7163,,,,,,267,FEM,DIS,150,barba,el,a,0.5411,,325.7164,325.7165,-0.423148148,-0.087037037,0,0,0,,0,120,120,266,1,,,,
,,,,,,8577e2071a53498b184a5ce7,66a626ef09d4e21e1a8894ec,6735eceef5afe34882b19e38,2024-11-14_13h29.10.660,Tarea de género gramatical,2024.2.2,Win32,60.24096386,,,,,,,,,,,,,,,,,,,,,,,325.7179,326.7978,a,1,[],[],[],[],[],[],[],0.4034,1,326.7979,327.2968,,,,,,190,MAS,AGR,150,campo,el,l,0.4034,,327.2969,327.2969,-0.423148148,-0.087037037,0,0,0,,0,121,121,189,1,,,,
,,,,,,8577e2071a53498b184a5ce7,66a626ef09d4e21e1a8894ec,6735eceef5afe34882b19e38,2024-11-14_13h29.10.660,Tarea de género gramatical,2024.2.2,Win32,60.24096386,,,,,,,,,,,,,,,,,,,,,,,327.2986,328.7443,l,1,[],[],[],[],[],[],[],0.7672,1,328.7444,329.2431,,,,,,175,FEM,AGR,150,señal,la,a,0.7672,,329.2432,329.2434,-0.423148148,-0.087037037,0,0,0,,0,122,122,174,1,,,,
,,,,,,8577e2071a53498b184a5ce7,66a626ef09d4e21e1a8894ec,6735eceef5afe34882b19e38,2024-11-14_13h29.10.660,Tarea de género gramatical,2024.2.2,Win32,60.24096386,,,,,,,,,,,,,,,,,,,,,,,329.2448,330.4409,l,1,[],[],[],[],[],[],[],0.5169,1,330.441,330.94,,,,,,271,FEM,AGR,150,viuda,la,a,0.5169,,330.9416,330.9428,-0.423148148,-0.087037037,0,0,0,,0,123,123,270,1,,,,
,,,,,,8577e2071a53498b184a5ce7,66a626ef09d4e21e1a8894ec,6735eceef5afe34882b19e38,2024-11-14_13h29.10.660,Tarea de género gramatical,2024.2.2,Win32,60.24096386,,,,,,,,,,,,,,,,,,,,,,,330.9438,332.2874,a,1,[],[],[],[],[],[],[],0.6762,1,332.2875,332.7865,,,,,,204,MAS,DIS,150,papel,la,l,0.6762,,332.7865,332.7866,-0.423148148,-0.087037037,0,0,0,,0,124,124,203,1,,,,
,,,,,,8577e2071a53498b184a5ce7,66a626ef09d4e21e1a8894ec,6735eceef5afe34882b19e38,2024-11-14_13h29.10.660,Tarea de género gramatical,2024.2.2,Win32,60.24096386,,,,,,,,,,,,,,,,,,,,,,,332.7881,333.9508,l,1,[],[],[],[],[],[],[],0.4941,1,333.951,334.45,,,,,,92,FEM,CON,150,masa,,a,0.4941,,334.4501,334.4502,-0.423148148,-0.087037037,0,0,0,,0,125,125,91,1,,,,
,,,,,,8577e2071a53498b184a5ce7,66a626ef09d4e21e1a8894ec,6735eceef5afe34882b19e38,2024-11-14_13h29.10.660,Tarea de género gramatical,2024.2.2,Win32,60.24096386,,,,,,,,,,,,,,,,,,,,,,,334.4516,335.6479,a,1,[],[],[],[],[],[],[],0.5183,1,335.648,336.1468,,,,,,191,MAS,CON,150,dolor,,l,0.5183,,336.1468,336.147,-0.423148148,-0.087037037,0,0,0,,0,126,126,190,1,,,,
,,,,,,8577e2071a53498b184a5ce7,66a626ef09d4e21e1a8894ec,6735eceef5afe34882b19e38,2024-11-14_13h29.10.660,Tarea de género gramatical,2024.2.2,Win32,60.24096386,,,,,,,,,,,,,,,,,,,,,,,336.1483,337.4944,l,1,[],[],[],[],[],[],[],0.666,1,337.4945,337.9933,,,,,,393,FEM,DIS,150,alarma,el,a,0.666,,337.9935,337.9935,-0.423148148,-0.087037037,0,0,0,,0,127,127,392,1,,,,
,,,,,,8577e2071a53498b184a5ce7,66a626ef09d4e21e1a8894ec,6735eceef5afe34882b19e38,2024-11-14_13h29.10.660,Tarea de género gramatical,2024.2.2,Win32,60.24096386,,,,,,,,,,,,,,,,,,,,,,,337.9949,339.1748,l,1,[],[],[],[],[],[],[],0.5107,1,339.175,339.6736,,,,,,51,FEM,DIS,150,bala,el,a,0.5107,,339.6753,339.6763,-0.423148148,-0.087037037,0,0,0,,0,128,128,50,1,,,,
,,,,,,8577e2071a53498b184a5ce7,66a626ef09d4e21e1a8894ec,6735eceef5afe34882b19e38,2024-11-14_13h29.10.660,Tarea de género gramatical,2024.2.2,Win32,60.24096386,,,,,,,,,,,,,,,,,,,,,,,339.6772,341.3703,a,1,[],[],[],[],[],[],[],1.0226,1,341.3704,341.8694,,,,,,208,MAS,AGR,150,suelo,el,l,1.0226,,341.8694,341.8696,-0.423148148,-0.087037037,0,0,0,,0,129,129,207,1,,,,
,,,,,,8577e2071a53498b184a5ce7,66a626ef09d4e21e1a8894ec,6735eceef5afe34882b19e38,2024-11-14_13h29.10.660,Tarea de género gramatical,2024.2.2,Win32,60.24096386,,,,,,,,,,,,,,,,,,,,,,,341.8709,343.1004,a,1,[],[],[],[],[],[],[],0.5494,1,343.1006,343.5995,,,,,,400,MAS,AGR,150,barrio,el,l,0.5494,,343.5996,343.5997,-0.423148148,-0.087037037,0,0,0,,0,130,130,399,1,,,,
,,,,,,8577e2071a53498b184a5ce7,66a626ef09d4e21e1a8894ec,6735eceef5afe34882b19e38,2024-11-14_13h29.10.660,Tarea de género gramatical,2024.2.2,Win32,60.24096386,,,,,,,,,,,,,,,,,,,,,,,343.6012,344.7141,l,1,[],[],[],[],[],[],[],0.441,1,344.7142,345.2134,,,,,,9,FEM,DIS,150,mamá,el,a,0.441,,345.2135,345.2137,-0.423148148,-0.087037037,0,0,0,,0,131,131,8,1,,,,
,,,,,,8577e2071a53498b184a5ce7,66a626ef09d4e21e1a8894ec,6735eceef5afe34882b19e38,2024-11-14_13h29.10.660,Tarea de género gramatical,2024.2.2,Win32,60.24096386,,,,,,,,,,,,,,,,,,,,,,,345.2153,346.3775,l,1,[],[],[],[],[],[],[],0.4914,1,346.3776,346.8766,,,,,,309,FEM,DIS,150,esposa,el,a,0.4914,,346.8781,346.8794,-0.423148148,-0.087037037,0,0,0,,0,132,132,308,1,,,,
,,,,,,8577e2071a53498b184a5ce7,66a626ef09d4e21e1a8894ec,6735eceef5afe34882b19e38,2024-11-14_13h29.10.660,Tarea de género gramatical,2024.2.2,Win32,60.24096386,,,,,,,,,,,,,,,,,,,,,,,346.8804,347.8414,a,1,[],[],[],[],[],[],[],0.2917,1,347.8416,348.3405,,,,,,22,MAS,AGR,150,pelo,el,l,0.2917,,348.3405,348.3406,-0.423148148,-0.087037037,0,0,0,,0,133,133,21,1,,,,
,,,,,,8577e2071a53498b184a5ce7,66a626ef09d4e21e1a8894ec,6735eceef5afe34882b19e38,2024-11-14_13h29.10.660,Tarea de género gramatical,2024.2.2,Win32,60.24096386,,,,,,,,,,,,,,,,,,,,,,,348.342,349.6049,a,1,[],[],[],[],[],[],[],0.5873,1,349.605,350.1038,,,,,,221,MAS,CON,150,brazo,,l,0.5873,,350.104,350.1041,-0.423148148,-0.087037037,0,0,0,,0,134,134,220,1,,,,
,,,,,,8577e2071a53498b184a5ce7,66a626ef09d4e21e1a8894ec,6735eceef5afe34882b19e38,2024-11-14_13h29.10.660,Tarea de género gramatical,2024.2.2,Win32,60.24096386,,,,,,,,,,,,,,,,,,,,,,,350.1054,351.4848,l,1,[],[],[],[],[],[],[],0.7045,1,351.4849,351.9836,,,,,,3,FEM,DIS,150,cosa,el,a,0.7045,,351.9838,351.9839,-0.423148148,-0.087037037,0,0,0,,0,135,135,2,1,,,,
,,,,,,8577e2071a53498b184a5ce7,66a626ef09d4e21e1a8894ec,6735eceef5afe34882b19e38,2024-11-14_13h29.10.660,Tarea de género gramatical,2024.2.2,Win32,60.24096386,,,,,,,,,,,,,,,,,,,,,,,351.9854,353.4144,l,1,[],[],[],[],[],[],[],0.7528,1,353.4146,353.9134,,,,,,422,FEM,CON,150,rutina,,a,0.7528,,353.9135,353.9136,-0.423148148,-0.087037037,0,0,0,,0,136,136,421,1,,,,
,,,,,,8577e2071a53498b184a5ce7,66a626ef09d4e21e1a8894ec,6735eceef5afe34882b19e38,2024-11-14_13h29.10.660,Tarea de género gramatical,2024.2.2,Win32,60.24096386,,,,,,,,,,,,,,,,,,,,,,,353.9148,355.2941,a,1,[],[],[],[],[],[],[],0.703,1,355.2943,355.7932,,,,,,137,MAS,CON,150,coco,,l,0.703,,355.795,355.7959,-0.423148148,-0.087037037,0,0,0,,0,137,137,136,1,,,,
,,,,,,8577e2071a53498b184a5ce7,66a626ef09d4e21e1a8894ec,6735eceef5afe34882b19e38,2024-11-14_13h29.10.660,Tarea de género gramatical,2024.2.2,Win32,60.24096386,,,,,,,,,,,,,,,,,,,,,,,355.7969,356.991,l,1,[],[],[],[],[],[],[],0.5274,1,356.9911,357.4902,,,,,,45,FEM,DIS,150,isla,el,a,0.5274,,357.4902,357.4904,-0.423148148,-0.087037037,0,0,0,,0,138,138,44,1,,,,
,,,,,,8577e2071a53498b184a5ce7,66a626ef09d4e21e1a8894ec,6735eceef5afe34882b19e38,2024-11-14_13h29.10.660,Tarea de género gramatical,2024.2.2,Win32,60.24096386,,,,,,,,,,,,,,,,,,,,,,,357.4918,358.7044,l,1,[],[],[],[],[],[],[],0.5339,1,358.7045,359.2036,,,,,,67,FEM,AGR,150,miel,la,a,0.5339,,359.2037,359.2038,-0.423148148,-0.087037037,0,0,0,,0,139,139,66,1,,,,
,,,,,,8577e2071a53498b184a5ce7,66a626ef09d4e21e1a8894ec,6735eceef5afe34882b19e38,2024-11-14_13h29.10.660,Tarea de género gramatical,2024.2.2,Win32,60.24096386,,,,,,,,,,,,,,,,,,,,,,,359.2054,360.4512,l,1,[],[],[],[],[],[],[],0.5663,1,360.4514,360.9502,,,,,,26,FEM,CON,150,pena,,a,0.5663,,360.9503,360.9504,-0.423148148,-0.087037037,0,0,0,,0,140,140,25,1,,,,
,,,,,,8577e2071a53498b184a5ce7,66a626ef09d4e21e1a8894ec,6735eceef5afe34882b19e38,2024-11-14_13h29.10.660,Tarea de género gramatical,2024.2.2,Win32,60.24096386,,,,,,,,,,,,,,,,,,,,,,,360.9519,362.2477,l,1,[],[],[],[],[],[],[],0.6262,1,362.2478,362.7467,,,,,,183,FEM,DIS,150,llave,el,a,0.6262,,362.7482,362.7494,-0.423148148,-0.087037037,0,0,0,,0,141,141,182,1,,,,
,,,,,,8577e2071a53498b184a5ce7,66a626ef09d4e21e1a8894ec,6735eceef5afe34882b19e38,2024-11-14_13h29.10.660,Tarea de género gramatical,2024.2.2,Win32,60.24096386,,,,,,,,,,,,,,,,,,,,,,,362.7504,364.0445,l,1,[],[],[],[],[],[],[],0.6217,1,364.0446,364.5434,,,,,,163,FEM,AGR,150,calle,la,a,0.6217,,364.5434,364.5434,-0.423148148,-0.087037037,0,0,0,,0,142,142,162,1,,,,
,,,,,,8577e2071a53498b184a5ce7,66a626ef09d4e21e1a8894ec,6735eceef5afe34882b19e38,2024-11-14_13h29.10.660,Tarea de género gramatical,2024.2.2,Win32,60.24096386,,,,,,,,,,,,,,,,,,,,,,,364.5445,365.6413,a,1,[],[],[],[],[],[],[],0.4255,1,365.6414,366.1405,,,,,,113,MAS,CON,150,toro,,l,0.4255,,366.1406,366.1406,-0.423148148,-0.087037037,0,0,0,,0,143,143,112,1,,,,
,,,,,,8577e2071a53498b184a5ce7,66a626ef09d4e21e1a8894ec,6735eceef5afe34882b19e38,2024-11-14_13h29.10.660,Tarea de género gramatical,2024.2.2,Win32,60.24096386,,,,,,,,,,,,,,,,,,,,,,,366.1419,367.4381,a,1,[],[],[],[],[],[],[],0.6162,1,367.4382,367.9372,,,,,,329,MAS,CON,150,futuro,,l,0.6162,,367.9372,367.9373,-0.423148148,-0.087037037,0,0,0,,0,144,144,328,1,,,,
,,,,,,8577e2071a53498b184a5ce7,66a626ef09d4e21e1a8894ec,6735eceef5afe34882b19e38,2024-11-14_13h29.10.660,Tarea de género gramatical,2024.2.2,Win32,60.24096386,,,,,,,,,,,,,,,,,,,,,,,367.9387,369.1681,l,1,[],[],[],[],[],[],[],0.5593,1,369.1681,369.6671,,,,,,303,FEM,DIS,150,maldad,el,a,0.5593,,369.6672,369.6674,-0.423148148,-0.087037037,0,0,0,,0,145,145,302,1,,,,
,,,,,,8577e2071a53498b184a5ce7,66a626ef09d4e21e1a8894ec,6735eceef5afe34882b19e38,2024-11-14_13h29.10.660,Tarea de género gramatical,2024.2.2,Win32,60.24096386,,,,,,,,,,,,,,,,,,,,,,,369.6687,370.8648,a,1,[],[],[],[],[],[],[],0.5251,1,370.865,371.3639,,,,,,430,MAS,AGR,150,título,el,l,0.5251,,371.3654,371.3665,-0.423148148,-0.087037037,0,0,0,,0,146,146,429,1,,,,
,,,,,,8577e2071a53498b184a5ce7,66a626ef09d4e21e1a8894ec,6735eceef5afe34882b19e38,2024-11-14_13h29.10.660,Tarea de género gramatical,2024.2.2,Win32,60.24096386,,,,,,,,,,,,,,,,,,,,,,,371.3675,372.5119,l,1,[],[],[],[],[],[],[],0.4686,1,372.512,373.0109,,,,,,212,FEM,CON,150,cinta,,a,0.4686,,373.0109,373.0111,-0.423148148,-0.087037037,0,0,0,,0,147,147,211,1,,,,
,,,,,,8577e2071a53498b184a5ce7,66a626ef09d4e21e1a8894ec,6735eceef5afe34882b19e38,2024-11-14_13h29.10.660,Tarea de género gramatical,2024.2.2,Win32,60.24096386,,,,,,,,,,,,,,,,,,,,,,,373.0124,374.2585,a,1,[],[],[],[],[],[],[],0.5735,1,374.2586,374.7574,,,,,,161,MAS,CON,150,chico,,l,0.5735,,374.7575,374.7577,-0.423148148,-0.087037037,0,0,0,,0,148,148,160,1,,,,
,,,,,,8577e2071a53498b184a5ce7,66a626ef09d4e21e1a8894ec,6735eceef5afe34882b19e38,2024-11-14_13h29.10.660,Tarea de género gramatical,2024.2.2,Win32,60.24096386,,,,,,,,,,,,,,,,,,,,,,,374.7589,376.105,a,1,[],[],[],[],[],[],[],0.6751,1,376.1051,376.604,,,,,,126,MAS,DIS,150,lazo,la,l,0.6751,,376.6041,376.6042,-0.423148148,-0.087037037,0,0,0,,0,149,149,125,1,,,,
,,,,,,8577e2071a53498b184a5ce7,66a626ef09d4e21e1a8894ec,6735eceef5afe34882b19e38,2024-11-14_13h29.10.660,Tarea de género gramatical,2024.2.2,Win32,60.24096386,,,,,,,,,,,,,,,,,,,,,,,376.6056,377.8518,a,1,[],[],[],[],[],[],[],0.566,1,377.852,378.3509,,,,,,360,MAS,DIS,150,puente,la,l,0.566,,378.3524,388.1326,0.366666667,-0.428703704,0,0,0,space,0,150,150,359,1,9.7641,,,
,,,,,,8577e2071a53498b184a5ce7,66a626ef09d4e21e1a8894ec,6735eceef5afe34882b19e38,2024-11-14_13h29.10.660,Tarea de género gramatical,2024.2.2,Win32,60.24096386,,,,,,,,,,,,,,,,,,,,,,,388.134,389.5297,l,0,[],[],[],[],[],[],[],0.7163,0,389.5309,390.0288,,,,,,256,MAS,AGR,150,techo,el,l,0.7163,,390.0289,390.0291,0.366666667,-0.428703704,0,0,0,,0,151,151,255,1,,,,
,,,,,,8577e2071a53498b184a5ce7,66a626ef09d4e21e1a8894ec,6735eceef5afe34882b19e38,2024-11-14_13h29.10.660,Tarea de género gramatical,2024.2.2,Win32,60.24096386,,,,,,,,,,,,,,,,,,,,,,,390.0305,391.2432,l,1,[],[],[],[],[],[],[],0.5328,1,391.2445,391.7424,,,,,,387,FEM,DIS,150,página,el,a,0.5328,,391.7425,391.7427,0.366666667,-0.428703704,0,0,0,,0,152,152,386,1,,,,
,,,,,,8577e2071a53498b184a5ce7,66a626ef09d4e21e1a8894ec,6735eceef5afe34882b19e38,2024-11-14_13h29.10.660,Tarea de género gramatical,2024.2.2,Win32,60.24096386,,,,,,,,,,,,,,,,,,,,,,,391.7441,392.99,l,1,[],[],[],[],[],[],[],0.5664,1,392.9902,393.4889,,,,,,277,FEM,AGR,150,plaza,la,a,0.5664,,393.4889,393.4891,0.366666667,-0.428703704,0,0,0,,0,153,153,276,1,,,,
,,,,,,8577e2071a53498b184a5ce7,66a626ef09d4e21e1a8894ec,6735eceef5afe34882b19e38,2024-11-14_13h29.10.660,Tarea de género gramatical,2024.2.2,Win32,60.24096386,,,,,,,,,,,,,,,,,,,,,,,393.4904,394.8032,l,1,[],[],[],[],[],[],[],0.6397,1,394.8033,395.3022,,,,,,337,FEM,AGR,150,escena,la,a,0.6397,,395.3023,395.3025,0.366666667,-0.428703704,0,0,0,,0,154,154,336,1,,,,
,,,,,,8577e2071a53498b184a5ce7,66a626ef09d4e21e1a8894ec,6735eceef5afe34882b19e38,2024-11-14_13h29.10.660,Tarea de género gramatical,2024.2.2,Win32,60.24096386,,,,,,,,,,,,,,,,,,,,,,,395.3039,396.4333,a,1,[],[],[],[],[],[],[],0.4584,1,396.4335,396.9325,,,,,,227,MAS,CON,150,vuelo,,l,0.4584,,396.9341,396.9352,0.366666667,-0.428703704,0,0,0,,0,155,155,226,1,,,,
,,,,,,8577e2071a53498b184a5ce7,66a626ef09d4e21e1a8894ec,6735eceef5afe34882b19e38,2024-11-14_13h29.10.660,Tarea de género gramatical,2024.2.2,Win32,60.24096386,,,,,,,,,,,,,,,,,,,,,,,396.9362,398.33,l,1,[],[],[],[],[],[],[],0.7243,1,398.3301,398.8289,,,,,,231,FEM,DIS,150,bruja,el,a,0.7243,,398.829,398.8291,0.366666667,-0.428703704,0,0,0,,0,156,156,230,1,,,,
,,,,,,8577e2071a53498b184a5ce7,66a626ef09d4e21e1a8894ec,6735eceef5afe34882b19e38,2024-11-14_13h29.10.660,Tarea de género gramatical,2024.2.2,Win32,60.24096386,,,,,,,,,,,,,,,,,,,,,,,398.8304,400.1099,a,1,[],[],[],[],[],[],[],0.6036,1,400.11,400.6089,,,,,,100,MAS,AGR,150,nido,el,l,0.6036,,400.6089,400.609,0.366666667,-0.428703704,0,0,0,,0,157,157,99,1,,,,
,,,,,,8577e2071a53498b184a5ce7,66a626ef09d4e21e1a8894ec,6735eceef5afe34882b19e38,2024-11-14_13h29.10.660,Tarea de género gramatical,2024.2.2,Win32,60.24096386,,,,,,,,,,,,,,,,,,,,,,,400.6104,401.9731,a,1,[],[],[],[],[],[],[],0.6828,1,401.9733,402.472,,,,,,448,MAS,AGR,150,aceite,el,l,0.6828,,402.4721,402.4722,0.366666667,-0.428703704,0,0,0,,0,158,158,447,1,,,,
,,,,,,8577e2071a53498b184a5ce7,66a626ef09d4e21e1a8894ec,6735eceef5afe34882b19e38,2024-11-14_13h29.10.660,Tarea de género gramatical,2024.2.2,Win32,60.24096386,,,,,,,,,,,,,,,,,,,,,,,402.4736,403.687,l,1,[],[],[],[],[],[],[],0.5447,1,403.687,404.1855,,,,,,99,FEM,DIS,150,fase,el,a,0.5447,,404.187,404.1879,0.366666667,-0.428703704,0,0,0,,0,159,159,98,1,,,,
,,,,,,8577e2071a53498b184a5ce7,66a626ef09d4e21e1a8894ec,6735eceef5afe34882b19e38,2024-11-14_13h29.10.660,Tarea de género gramatical,2024.2.2,Win32,60.24096386,,,,,,,,,,,,,,,,,,,,,,,404.1889,405.3334,a,1,[],[],[],[],[],[],[],0.4668,1,405.3335,405.8326,,,,,,216,MAS,DIS,150,éxito,la,l,0.4668,,405.8326,405.8327,0.366666667,-0.428703704,0,0,0,,0,160,160,215,1,,,,
,,,,,,8577e2071a53498b184a5ce7,66a626ef09d4e21e1a8894ec,6735eceef5afe34882b19e38,2024-11-14_13h29.10.660,Tarea de género gramatical,2024.2.2,Win32,60.24096386,,,,,,,,,,,,,,,,,,,,,,,405.834,406.947,l,1,[],[],[],[],[],[],[],0.4404,1,406.9471,407.446,,,,,,260,FEM,CON,150,barra,,a,0.4404,,407.446,407.4462,0.366666667,-0.428703704,0,0,0,,0,161,161,259,1,,,,
,,,,,,8577e2071a53498b184a5ce7,66a626ef09d4e21e1a8894ec,6735eceef5afe34882b19e38,2024-11-14_13h29.10.660,Tarea de género gramatical,2024.2.2,Win32,60.24096386,,,,,,,,,,,,,,,,,,,,,,,407.4478,408.7769,l,0,[],[],[],[],[],[],[],0.6586,0,408.7781,409.276,,,,,,336,MAS,DIS,150,crimen,la,l,0.6586,,409.2761,409.2763,0.366666667,-0.428703704,0,0,0,,0,162,162,335,1,,,,
,,,,,,8577e2071a53498b184a5ce7,66a626ef09d4e21e1a8894ec,6735eceef5afe34882b19e38,2024-11-14_13h29.10.660,Tarea de género gramatical,2024.2.2,Win32,60.24096386,,,,,,,,,,,,,,,,,,,,,,,409.2775,410.4737,a,1,[],[],[],[],[],[],[],0.5168,1,410.4749,410.9728,,,,,,142,MAS,AGR,150,lodo,el,l,0.5168,,410.9729,410.973,0.366666667,-0.428703704,0,0,0,,0,163,163,141,1,,,,
,,,,,,8577e2071a53498b184a5ce7,66a626ef09d4e21e1a8894ec,6735eceef5afe34882b19e38,2024-11-14_13h29.10.660,Tarea de género gramatical,2024.2.2,Win32,60.24096386,,,,,,,,,,,,,,,,,,,,,,,410.9743,412.1872,a,1,[],[],[],[],[],[],[],0.5331,1,412.1874,412.6862,,,,,,322,MAS,AGR,150,minuto,el,l,0.5331,,412.6877,412.689,0.366666667,-0.428703704,0,0,0,,0,164,164,321,1,,,,
,,,,,,8577e2071a53498b184a5ce7,66a626ef09d4e21e1a8894ec,6735eceef5afe34882b19e38,2024-11-14_13h29.10.660,Tarea de género gramatical,2024.2.2,Win32,60.24096386,,,,,,,,,,,,,,,,,,,,,,,412.6898,413.8008,l,1,[],[],[],[],[],[],[],0.4423,1,413.8009,414.2998,,,,,,170,FEM,CON,150,carta,,a,0.4423,,414.2999,414.3001,0.366666667,-0.428703704,0,0,0,,0,165,165,169,1,,,,
,,,,,,8577e2071a53498b184a5ce7,66a626ef09d4e21e1a8894ec,6735eceef5afe34882b19e38,2024-11-14_13h29.10.660,Tarea de género gramatical,2024.2.2,Win32,60.24096386,,,,,,,,,,,,,,,,,,,,,,,414.3013,415.6143,a,1,[],[],[],[],[],[],[],0.6366,1,415.6144,416.1131,,,,,,6,MAS,DIS,150,lado,la,l,0.6366,,416.1132,416.1134,0.366666667,-0.428703704,0,0,0,,0,166,166,5,1,,,,
,,,,,,8577e2071a53498b184a5ce7,66a626ef09d4e21e1a8894ec,6735eceef5afe34882b19e38,2024-11-14_13h29.10.660,Tarea de género gramatical,2024.2.2,Win32,60.24096386,,,,,,,,,,,,,,,,,,,,,,,416.1149,417.3442,a,1,[],[],[],[],[],[],[],0.5517,1,417.3444,417.8432,,,,,,293,MAS,CON,150,patio,,l,0.5517,,417.8433,417.8435,0.366666667,-0.428703704,0,0,0,,0,167,167,292,1,,,,
,,,,,,8577e2071a53498b184a5ce7,66a626ef09d4e21e1a8894ec,6735eceef5afe34882b19e38,2024-11-14_13h29.10.660,Tarea de género gramatical,2024.2.2,Win32,60.24096386,,,,,,,,,,,,,,,,,,,,,,,417.845,419.0078,l,1,[],[],[],[],[],[],[],0.4939,1,419.0079,419.5065,,,,,,98,FEM,CON,150,fuga,,a,0.4939,,419.5082,419.5094,0.366666667,-0.428703704,0,0,0,,0,168,168,97,1,,,,
,,,,,,8577e2071a53498b184a5ce7,66a626ef09d4e21e1a8894ec,6735eceef5afe34882b19e38,2024-11-14_13h29.10.660,Tarea de género gramatical,2024.2.2,Win32,60.24096386,,,,,,,,,,,,,,,,,,,,,,,419.5103,420.7211,a,1,[],[],[],[],[],[],[],0.5417,1,420.7212,421.22,,,,,,18,MAS,DIS,150,tren,la,l,0.5417,,421.2202,421.2203,0.366666667,-0.428703704,0,0,0,,0,169,169,17,1,,,,
,,,,,,8577e2071a53498b184a5ce7,66a626ef09d4e21e1a8894ec,6735eceef5afe34882b19e38,2024-11-14_13h29.10.660,Tarea de género gramatical,2024.2.2,Win32,60.24096386,,,,,,,,,,,,,,,,,,,,,,,421.2216,422.3845,l,1,[],[],[],[],[],[],[],0.4926,1,422.3847,422.8837,,,,,,79,FEM,AGR,150,mina,la,a,0.4926,,422.8837,422.8839,0.366666667,-0.428703704,0,0,0,,0,170,170,78,1,,,,
,,,,,,8577e2071a53498b184a5ce7,66a626ef09d4e21e1a8894ec,6735eceef5afe34882b19e38,2024-11-14_13h29.10.660,Tarea de género gramatical,2024.2.2,Win32,60.24096386,,,,,,,,,,,,,,,,,,,,,,,422.8851,424.0482,a,0,[],[],[],[],[],[],[],0.4849,0,424.0494,424.5472,,,,,,38,FEM,CON,150,obra,,a,0.4849,,424.5473,424.5475,0.366666667,-0.428703704,0,0,0,,0,171,171,37,1,,,,
,,,,,,8577e2071a53498b184a5ce7,66a626ef09d4e21e1a8894ec,6735eceef5afe34882b19e38,2024-11-14_13h29.10.660,Tarea de género gramatical,2024.2.2,Win32,60.24096386,,,,,,,,,,,,,,,,,,,,,,,424.5489,425.7119,a,1,[],[],[],[],[],[],[],0.4934,1,425.713,426.2109,,,,,,186,MAS,DIS,150,error,la,l,0.4934,,426.211,426.2111,0.366666667,-0.428703704,0,0,0,,0,172,172,185,1,,,,
,,,,,,8577e2071a53498b184a5ce7,66a626ef09d4e21e1a8894ec,6735eceef5afe34882b19e38,2024-11-14_13h29.10.660,Tarea de género gramatical,2024.2.2,Win32,60.24096386,,,,,,,,,,,,,,,,,,,,,,,426.2127,427.392,l,1,[],[],[],[],[],[],[],0.5098,1,427.3922,427.8909,,,,,,249,FEM,DIS,150,crema,el,a,0.5098,,427.8928,427.8938,0.366666667,-0.428703704,0,0,0,,0,173,173,248,1,,,,
,,,,,,8577e2071a53498b184a5ce7,66a626ef09d4e21e1a8894ec,6735eceef5afe34882b19e38,2024-11-14_13h29.10.660,Tarea de género gramatical,2024.2.2,Win32,60.24096386,,,,,,,,,,,,,,,,,,,,,,,427.8948,429.0554,l,1,[],[],[],[],[],[],[],0.4938,1,429.0556,429.5546,,,,,,39,FEM,DIS,150,luna,el,a,0.4938,,429.5546,429.5548,0.366666667,-0.428703704,0,0,0,,0,174,174,38,1,,,,
,,,,,,8577e2071a53498b184a5ce7,66a626ef09d4e21e1a8894ec,6735eceef5afe34882b19e38,2024-11-14_13h29.10.660,Tarea de género gramatical,2024.2.2,Win32,60.24096386,,,,,,,,,,,,,,,,,,,,,,,429.5563,430.7023,a,1,[],[],[],[],[],[],[],0.4701,1,430.7025,431.2014,,,,,,419,MAS,CON,150,cuento,,l,0.4701,,431.2015,431.2017,0.366666667,-0.428703704,0,0,0,,0,175,175,418,1,,,,
,,,,,,8577e2071a53498b184a5ce7,66a626ef09d4e21e1a8894ec,6735eceef5afe34882b19e38,2024-11-14_13h29.10.660,Tarea de género gramatical,2024.2.2,Win32,60.24096386,,,,,,,,,,,,,,,,,,,,,,,431.2032,432.3492,l,1,[],[],[],[],[],[],[],0.4711,1,432.3494,432.8483,,,,,,423,FEM,DIS,150,poesía,el,a,0.4711,,432.8483,432.8485,0.366666667,-0.428703704,0,0,0,,0,176,176,422,1,,,,
,,,,,,8577e2071a53498b184a5ce7,66a626ef09d4e21e1a8894ec,6735eceef5afe34882b19e38,2024-11-14_13h29.10.660,Tarea de género gramatical,2024.2.2,Win32,60.24096386,,,,,,,,,,,,,,,,,,,,,,,432.8497,433.9794,a,1,[],[],[],[],[],[],[],0.4564,1,433.9796,434.4785,,,,,,263,MAS,CON,150,carro,,l,0.4564,,434.48,434.4809,0.366666667,-0.428703704,0,0,0,,0,177,177,262,1,,,,
,,,,,,8577e2071a53498b184a5ce7,66a626ef09d4e21e1a8894ec,6735eceef5afe34882b19e38,2024-11-14_13h29.10.660,Tarea de género gramatical,2024.2.2,Win32,60.24096386,,,,,,,,,,,,,,,,,,,,,,,434.4819,435.5932,l,1,[],[],[],[],[],[],[],0.434,1,435.5934,436.0922,,,,,,169,FEM,AGR,150,vista,la,a,0.434,,436.0923,436.0924,0.366666667,-0.428703704,0,0,0,,0,178,178,168,1,,,,
,,,,,,8577e2071a53498b184a5ce7,66a626ef09d4e21e1a8894ec,6735eceef5afe34882b19e38,2024-11-14_13h29.10.660,Tarea de género gramatical,2024.2.2,Win32,60.24096386,,,,,,,,,,,,,,,,,,,,,,,436.0939,437.2235,a,1,[],[],[],[],[],[],[],0.4605,1,437.2237,437.7225,,,,,,173,MAS,CON,150,libro,,l,0.4605,,437.7226,437.7227,0.366666667,-0.428703704,0,0,0,,0,179,179,172,1,,,,
,,,,,,8577e2071a53498b184a5ce7,66a626ef09d4e21e1a8894ec,6735eceef5afe34882b19e38,2024-11-14_13h29.10.660,Tarea de género gramatical,2024.2.2,Win32,60.24096386,,,,,,,,,,,,,,,,,,,,,,,437.7242,438.9537,a,1,[],[],[],[],[],[],[],0.5517,1,438.9538,439.4525,,,,,,346,MAS,AGR,150,juicio,el,l,0.5517,,439.4527,439.4528,0.366666667,-0.428703704,0,0,0,,0,180,180,345,1,,,,
,,,,,,8577e2071a53498b184a5ce7,66a626ef09d4e21e1a8894ec,6735eceef5afe34882b19e38,2024-11-14_13h29.10.660,Tarea de género gramatical,2024.2.2,Win32,60.24096386,,,,,,,,,,,,,,,,,,,,,,,439.4543,440.667,l,1,[],[],[],[],[],[],[],0.5333,1,440.6671,441.166,,,,,,223,FEM,AGR,150,plata,la,a,0.5333,,441.1661,441.1662,0.366666667,-0.428703704,0,0,0,,0,181,181,222,1,,,,
,,,,,,8577e2071a53498b184a5ce7,66a626ef09d4e21e1a8894ec,6735eceef5afe34882b19e38,2024-11-14_13h29.10.660,Tarea de género gramatical,2024.2.2,Win32,60.24096386,,,,,,,,,,,,,,,,,,,,,,,441.1679,442.447,l,1,[],[],[],[],[],[],[],0.6107,1,442.4472,442.946,,,,,,445,FEM,AGR,150,bondad,la,a,0.6107,,442.9477,442.9486,0.366666667,-0.428703704,0,0,0,,0,182,182,444,1,,,,
,,,,,,8577e2071a53498b184a5ce7,66a626ef09d4e21e1a8894ec,6735eceef5afe34882b19e38,2024-11-14_13h29.10.660,Tarea de género gramatical,2024.2.2,Win32,60.24096386,,,,,,,,,,,,,,,,,,,,,,,442.9495,444.1271,a,1,[],[],[],[],[],[],[],0.4994,1,444.1272,444.6262,,,,,,220,MAS,AGR,150,huevo,el,l,0.4994,,444.6263,444.6264,0.366666667,-0.428703704,0,0,0,,0,183,183,219,1,,,,
,,,,,,8577e2071a53498b184a5ce7,66a626ef09d4e21e1a8894ec,6735eceef5afe34882b19e38,2024-11-14_13h29.10.660,Tarea de género gramatical,2024.2.2,Win32,60.24096386,,,,,,,,,,,,,,,,,,,,,,,444.6277,445.7907,a,0,[],[],[],[],[],[],[],0.487,0,445.792,446.2897,,,,,,31,FEM,AGR,150,edad,la,a,0.487,,446.2898,446.2899,0.366666667,-0.428703704,0,0,0,,0,184,184,30,1,,,,
,,,,,,8577e2071a53498b184a5ce7,66a626ef09d4e21e1a8894ec,6735eceef5afe34882b19e38,2024-11-14_13h29.10.660,Tarea de género gramatical,2024.2.2,Win32,60.24096386,,,,,,,,,,,,,,,,,,,,,,,446.2914,447.604,a,1,[],[],[],[],[],[],[],0.6328,1,447.6051,448.1033,,,,,,28,MAS,AGR,150,club,el,l,0.6328,,448.1033,448.1034,0.366666667,-0.428703704,0,0,0,,0,185,185,27,1,,,,
,,,,,,8577e2071a53498b184a5ce7,66a626ef09d4e21e1a8894ec,6735eceef5afe34882b19e38,2024-11-14_13h29.10.660,Tarea de género gramatical,2024.2.2,Win32,60.24096386,,,,,,,,,,,,,,,,,,,,,,,448.1047,449.3673,a,1,[],[],[],[],[],[],[],0.586,1,449.3673,449.8663,,,,,,312,MAS,DIS,150,equipo,la,l,0.586,,449.8678,449.8687,0.366666667,-0.428703704,0,0,0,,0,186,186,311,1,,,,
,,,,,,8577e2071a53498b184a5ce7,66a626ef09d4e21e1a8894ec,6735eceef5afe34882b19e38,2024-11-14_13h29.10.660,Tarea de género gramatical,2024.2.2,Win32,60.24096386,,,,,,,,,,,,,,,,,,,,,,,449.8696,451.0142,l,1,[],[],[],[],[],[],[],0.4706,1,451.0143,451.5131,,,,,,86,FEM,CON,150,cruz,,a,0.4706,,451.5133,451.5135,0.366666667,-0.428703704,0,0,0,,0,187,187,85,1,,,,
,,,,,,8577e2071a53498b184a5ce7,66a626ef09d4e21e1a8894ec,6735eceef5afe34882b19e38,2024-11-14_13h29.10.660,Tarea de género gramatical,2024.2.2,Win32,60.24096386,,,,,,,,,,,,,,,,,,,,,,,451.5147,452.661,l,1,[],[],[],[],[],[],[],0.4666,1,452.6611,453.1602,,,,,,439,FEM,AGR,150,toalla,la,a,0.4666,,453.1603,453.1604,0.366666667,-0.428703704,0,0,0,,0,188,188,438,1,,,,
,,,,,,8577e2071a53498b184a5ce7,66a626ef09d4e21e1a8894ec,6735eceef5afe34882b19e38,2024-11-14_13h29.10.660,Tarea de género gramatical,2024.2.2,Win32,60.24096386,,,,,,,,,,,,,,,,,,,,,,,453.1621,454.2915,a,1,[],[],[],[],[],[],[],0.4499,1,454.2915,454.7904,,,,,,215,MAS,CON,150,hueso,,l,0.4499,,454.7905,454.7907,0.366666667,-0.428703704,0,0,0,,0,189,189,214,1,,,,
,,,,,,8577e2071a53498b184a5ce7,66a626ef09d4e21e1a8894ec,6735eceef5afe34882b19e38,2024-11-14_13h29.10.660,Tarea de género gramatical,2024.2.2,Win32,60.24096386,,,,,,,,,,,,,,,,,,,,,,,454.7922,455.905,l,1,[],[],[],[],[],[],[],0.4345,1,455.905,456.404,,,,,,181,FEM,AGR,150,tarde,la,a,0.4345,,456.404,456.4042,0.366666667,-0.428703704,0,0,0,,0,190,190,180,1,,,,
,,,,,,8577e2071a53498b184a5ce7,66a626ef09d4e21e1a8894ec,6735eceef5afe34882b19e38,2024-11-14_13h29.10.660,Tarea de género gramatical,2024.2.2,Win32,60.24096386,,,,,,,,,,,,,,,,,,,,,,,456.4057,457.6185,a,1,[],[],[],[],[],[],[],0.5408,1,457.6186,458.1174,,,,,,70,MAS,AGR,150,palo,el,l,0.5408,,458.1189,458.1198,0.366666667,-0.428703704,0,0,0,,0,191,191,69,1,,,,
,,,,,,8577e2071a53498b184a5ce7,66a626ef09d4e21e1a8894ec,6735eceef5afe34882b19e38,2024-11-14_13h29.10.660,Tarea de género gramatical,2024.2.2,Win32,60.24096386,,,,,,,,,,,,,,,,,,,,,,,458.1207,459.3818,l,1,[],[],[],[],[],[],[],0.5827,1,459.382,459.8809,,,,,,104,FEM,CON,150,vela,,a,0.5827,,459.881,459.8812,0.366666667,-0.428703704,0,0,0,,0,192,192,103,1,,,,
,,,,,,8577e2071a53498b184a5ce7,66a626ef09d4e21e1a8894ec,6735eceef5afe34882b19e38,2024-11-14_13h29.10.660,Tarea de género gramatical,2024.2.2,Win32,60.24096386,,,,,,,,,,,,,,,,,,,,,,,459.8825,461.1119,a,1,[],[],[],[],[],[],[],0.5524,1,461.1121,461.6109,,,,,,334,MAS,AGR,150,ataque,el,l,0.5524,,461.611,461.6112,0.366666667,-0.428703704,0,0,0,,0,193,193,333,1,,,,
,,,,,,8577e2071a53498b184a5ce7,66a626ef09d4e21e1a8894ec,6735eceef5afe34882b19e38,2024-11-14_13h29.10.660,Tarea de género gramatical,2024.2.2,Win32,60.24096386,,,,,,,,,,,,,,,,,,,,,,,461.6127,462.8585,a,1,[],[],[],[],[],[],[],0.5741,1,462.8586,463.3575,,,,,,132,MAS,DIS,150,velo,la,l,0.5741,,463.3576,463.3577,0.366666667,-0.428703704,0,0,0,,0,194,194,131,1,,,,
,,,,,,8577e2071a53498b184a5ce7,66a626ef09d4e21e1a8894ec,6735eceef5afe34882b19e38,2024-11-14_13h29.10.660,Tarea de género gramatical,2024.2.2,Win32,60.24096386,,,,,,,,,,,,,,,,,,,,,,,463.359,464.6054,a,1,[],[],[],[],[],[],[],0.5711,1,464.6056,465.1043,,,,,,450,MAS,DIS,150,conejo,la,l,0.5711,,465.1061,465.1077,0.366666667,-0.428703704,0,0,0,,0,195,195,449,1,,,,
,,,,,,8577e2071a53498b184a5ce7,66a626ef09d4e21e1a8894ec,6735eceef5afe34882b19e38,2024-11-14_13h29.10.660,Tarea de género gramatical,2024.2.2,Win32,60.24096386,,,,,,,,,,,,,,,,,,,,,,,465.1086,466.3354,l,1,[],[],[],[],[],[],[],0.5606,1,466.3355,466.8343,,,,,,290,FEM,CON,150,cabra,,a,0.5606,,466.8345,466.8346,0.366666667,-0.428703704,0,0,0,,0,196,196,289,1,,,,
,,,,,,8577e2071a53498b184a5ce7,66a626ef09d4e21e1a8894ec,6735eceef5afe34882b19e38,2024-11-14_13h29.10.660,Tarea de género gramatical,2024.2.2,Win32,60.24096386,,,,,,,,,,,,,,,,,,,,,,,466.8363,468.0488,a,1,[],[],[],[],[],[],[],0.5341,1,468.0489,468.5479,,,,,,311,MAS,CON,150,camino,,l,0.5341,,468.548,468.5481,0.366666667,-0.428703704,0,0,0,,0,197,197,310,1,,,,
,,,,,,8577e2071a53498b184a5ce7,66a626ef09d4e21e1a8894ec,6735eceef5afe34882b19e38,2024-11-14_13h29.10.660,Tarea de género gramatical,2024.2.2,Win32,60.24096386,,,,,,,,,,,,,,,,,,,,,,,468.5493,469.8788,a,1,[],[],[],[],[],[],[],0.6531,1,469.8789,470.3777,,,,,,143,MAS,CON,150,faro,,l,0.6531,,470.3778,470.378,0.366666667,-0.428703704,0,0,0,,0,198,198,142,1,,,,
,,,,,,8577e2071a53498b184a5ce7,66a626ef09d4e21e1a8894ec,6735eceef5afe34882b19e38,2024-11-14_13h29.10.660,Tarea de género gramatical,2024.2.2,Win32,60.24096386,,,,,,,,,,,,,,,,,,,,,,,470.3793,471.5756,a,1,[],[],[],[],[],[],[],0.519,1,471.5757,472.0746,,,,,,306,MAS,DIS,150,dinero,la,l,0.519,,472.0747,472.0749,0.366666667,-0.428703704,0,0,0,,0,199,199,305,1,,,,
,,,,,,8577e2071a53498b184a5ce7,66a626ef09d4e21e1a8894ec,6735eceef5afe34882b19e38,2024-11-14_13h29.10.660,Tarea de género gramatical,2024.2.2,Win32,60.24096386,,,,,,,,,,,,,,,,,,,,,,,472.0763,473.239,l,1,[],[],[],[],[],[],[],0.4864,1,473.2391,473.7381,,,,,,273,FEM,DIS,150,tarta,el,a,0.4864,,473.7396,473.7405,0.366666667,-0.428703704,0,0,0,,0,200,200,272,1,,,,
,,,,,,8577e2071a53498b184a5ce7,66a626ef09d4e21e1a8894ec,6735eceef5afe34882b19e38,2024-11-14_13h29.10.660,Tarea de género gramatical,2024.2.2,Win32,60.24096386,,,,,,,,,,,,,,,,,,,,,,,473.7415,474.9525,l,1,[],[],[],[],[],[],[],0.5349,1,474.9526,475.4514,,,,,,241,FEM,AGR,150,pasta,la,a,0.5349,,475.4515,475.4516,0.366666667,-0.428703704,0,0,0,,0,201,201,240,1,,,,
,,,,,,8577e2071a53498b184a5ce7,66a626ef09d4e21e1a8894ec,6735eceef5afe34882b19e38,2024-11-14_13h29.10.660,Tarea de género gramatical,2024.2.2,Win32,60.24096386,,,,,,,,,,,,,,,,,,,,,,,475.453,476.8821,l,1,[],[],[],[],[],[],[],0.7571,1,476.8823,477.3814,,,,,,368,FEM,CON,150,gracia,,a,0.7571,,477.3815,477.3816,0.366666667,-0.428703704,0,0,0,,0,202,202,367,1,,,,
,,,,,,8577e2071a53498b184a5ce7,66a626ef09d4e21e1a8894ec,6735eceef5afe34882b19e38,2024-11-14_13h29.10.660,Tarea de género gramatical,2024.2.2,Win32,60.24096386,,,,,,,,,,,,,,,,,,,,,,,477.383,478.4792,a,1,[],[],[],[],[],[],[],0.4168,1,478.4794,478.9781,,,,,,172,MAS,AGR,150,poder,el,l,0.4168,,478.9782,478.9784,0.366666667,-0.428703704,0,0,0,,0,203,203,171,1,,,,
,,,,,,8577e2071a53498b184a5ce7,66a626ef09d4e21e1a8894ec,6735eceef5afe34882b19e38,2024-11-14_13h29.10.660,Tarea de género gramatical,2024.2.2,Win32,60.24096386,,,,,,,,,,,,,,,,,,,,,,,478.9797,480.2759,l,1,[],[],[],[],[],[],[],0.616,1,480.276,480.7748,,,,,,134,FEM,CON,150,rama,,a,0.616,,480.7766,480.7775,0.366666667,-0.428703704,0,0,0,,0,204,204,133,1,,,,
,,,,,,8577e2071a53498b184a5ce7,66a626ef09d4e21e1a8894ec,6735eceef5afe34882b19e38,2024-11-14_13h29.10.660,Tarea de género gramatical,2024.2.2,Win32,60.24096386,,,,,,,,,,,,,,,,,,,,,,,480.7785,481.9061,a,1,[],[],[],[],[],[],[],0.4506,1,481.9063,482.4051,,,,,,10,MAS,AGR,150,niño,el,l,0.4506,,482.4052,482.4053,0.366666667,-0.428703704,0,0,0,,0,205,205,9,1,,,,
,,,,,,8577e2071a53498b184a5ce7,66a626ef09d4e21e1a8894ec,6735eceef5afe34882b19e38,2024-11-14_13h29.10.660,Tarea de género gramatical,2024.2.2,Win32,60.24096386,,,,,,,,,,,,,,,,,,,,,,,482.4068,483.603,a,1,[],[],[],[],[],[],[],0.5163,1,483.6031,484.102,,,,,,78,MAS,DIS,150,oído,la,l,0.5163,,484.102,484.1021,0.366666667,-0.428703704,0,0,0,,0,206,206,77,1,,,,
,,,,,,8577e2071a53498b184a5ce7,66a626ef09d4e21e1a8894ec,6735eceef5afe34882b19e38,2024-11-14_13h29.10.660,Tarea de género gramatical,2024.2.2,Win32,60.24096386,,,,,,,,,,,,,,,,,,,,,,,484.1036,485.1833,a,1,[],[],[],[],[],[],[],0.3998,1,485.1834,485.6823,,,,,,203,MAS,CON,150,novio,,l,0.3998,,485.6824,485.6825,0.366666667,-0.428703704,0,0,0,,0,207,207,202,1,,,,
,,,,,,8577e2071a53498b184a5ce7,66a626ef09d4e21e1a8894ec,6735eceef5afe34882b19e38,2024-11-14_13h29.10.660,Tarea de género gramatical,2024.2.2,Win32,60.24096386,,,,,,,,,,,,,,,,,,,,,,,485.6841,486.8801,a,1,[],[],[],[],[],[],[],0.527,1,486.8802,487.3791,,,,,,16,MAS,AGR,150,baño,el,l,0.527,,487.3791,487.3793,0.366666667,-0.428703704,0,0,0,,0,208,208,15,1,,,,
,,,,,,8577e2071a53498b184a5ce7,66a626ef09d4e21e1a8894ec,6735eceef5afe34882b19e38,2024-11-14_13h29.10.660,Tarea de género gramatical,2024.2.2,Win32,60.24096386,,,,,,,,,,,,,,,,,,,,,,,487.381,488.3938,a,1,[],[],[],[],[],[],[],0.3418,1,488.3939,488.8929,,,,,,376,MAS,AGR,150,efecto,el,l,0.3418,,488.8947,488.896,0.366666667,-0.428703704,0,0,0,,0,209,209,375,1,,,,
,,,,,,8577e2071a53498b184a5ce7,66a626ef09d4e21e1a8894ec,6735eceef5afe34882b19e38,2024-11-14_13h29.10.660,Tarea de género gramatical,2024.2.2,Win32,60.24096386,,,,,,,,,,,,,,,,,,,,,,,488.8969,490.1406,l,1,[],[],[],[],[],[],[],0.5666,1,490.1408,490.6395,,,,,,283,FEM,AGR,150,pluma,la,a,0.5666,,490.6396,490.6398,0.366666667,-0.428703704,0,0,0,,0,210,210,282,1,,,,
,,,,,,8577e2071a53498b184a5ce7,66a626ef09d4e21e1a8894ec,6735eceef5afe34882b19e38,2024-11-14_13h29.10.660,Tarea de género gramatical,2024.2.2,Win32,60.24096386,,,,,,,,,,,,,,,,,,,,,,,490.6413,491.7874,a,1,[],[],[],[],[],[],[],0.4736,1,491.7875,492.2864,,,,,,366,MAS,DIS,150,riesgo,la,l,0.4736,,492.2865,492.2867,0.366666667,-0.428703704,0,0,0,,0,211,211,365,1,,,,
,,,,,,8577e2071a53498b184a5ce7,66a626ef09d4e21e1a8894ec,6735eceef5afe34882b19e38,2024-11-14_13h29.10.660,Tarea de género gramatical,2024.2.2,Win32,60.24096386,,,,,,,,,,,,,,,,,,,,,,,492.2879,493.4511,l,1,[],[],[],[],[],[],[],0.4834,1,493.4513,493.95,,,,,,140,FEM,CON,150,mula,,a,0.4834,,493.9501,493.9503,0.366666667,-0.428703704,0,0,0,,0,212,212,139,1,,,,
,,,,,,8577e2071a53498b184a5ce7,66a626ef09d4e21e1a8894ec,6735eceef5afe34882b19e38,2024-11-14_13h29.10.660,Tarea de género gramatical,2024.2.2,Win32,60.24096386,,,,,,,,,,,,,,,,,,,,,,,493.9519,495.0646,a,1,[],[],[],[],[],[],[],0.4429,1,495.0648,495.5637,,,,,,210,MAS,DIS,150,baile,la,l,0.4429,,495.5655,495.5664,0.366666667,-0.428703704,0,0,0,,0,213,213,209,1,,,,
,,,,,,8577e2071a53498b184a5ce7,66a626ef09d4e21e1a8894ec,6735eceef5afe34882b19e38,2024-11-14_13h29.10.660,Tarea de género gramatical,2024.2.2,Win32,60.24096386,,,,,,,,,,,,,,,,,,,,,,,495.5674,496.795,a,0,[],[],[],[],[],[],[],0.5497,0,496.7963,497.2938,,,,,,313,FEM,AGR,150,ciudad,la,a,0.5497,,497.294,497.2942,0.366666667,-0.428703704,0,0,0,,0,214,214,312,1,,,,
,,,,,,8577e2071a53498b184a5ce7,66a626ef09d4e21e1a8894ec,6735eceef5afe34882b19e38,2024-11-14_13h29.10.660,Tarea de género gramatical,2024.2.2,Win32,60.24096386,,,,,,,,,,,,,,,,,,,,,,,497.2957,498.7078,l,1,[],[],[],[],[],[],[],0.7323,1,498.7089,499.2069,,,,,,421,FEM,AGR,150,novela,la,a,0.7323,,499.2069,499.2071,0.366666667,-0.428703704,0,0,0,,0,215,215,420,1,,,,
,,,,,,8577e2071a53498b184a5ce7,66a626ef09d4e21e1a8894ec,6735eceef5afe34882b19e38,2024-11-14_13h29.10.660,Tarea de género gramatical,2024.2.2,Win32,60.24096386,,,,,,,,,,,,,,,,,,,,,,,499.2084,500.4047,a,1,[],[],[],[],[],[],[],0.5161,1,500.4049,500.9037,,,,,,149,MAS,CON,150,nudo,,l,0.5161,,500.9038,500.9039,0.366666667,-0.428703704,0,0,0,,0,216,216,148,1,,,,
,,,,,,8577e2071a53498b184a5ce7,66a626ef09d4e21e1a8894ec,6735eceef5afe34882b19e38,2024-11-14_13h29.10.660,Tarea de género gramatical,2024.2.2,Win32,60.24096386,,,,,,,,,,,,,,,,,,,,,,,500.9052,502.0516,l,1,[],[],[],[],[],[],[],0.4665,1,502.0517,502.5506,,,,,,14,FEM,CON,150,cara,,a,0.4665,,502.5506,502.5508,0.366666667,-0.428703704,0,0,0,,0,217,217,13,1,,,,
,,,,,,8577e2071a53498b184a5ce7,66a626ef09d4e21e1a8894ec,6735eceef5afe34882b19e38,2024-11-14_13h29.10.660,Tarea de género gramatical,2024.2.2,Win32,60.24096386,,,,,,,,,,,,,,,,,,,,,,,502.5526,503.7484,l,1,[],[],[],[],[],[],[],0.5227,1,503.7485,504.2474,,,,,,265,FEM,AGR,150,rueda,la,a,0.5227,,504.249,504.2502,0.366666667,-0.428703704,0,0,0,,0,218,218,264,1,,,,
,,,,,,8577e2071a53498b184a5ce7,66a626ef09d4e21e1a8894ec,6735eceef5afe34882b19e38,2024-11-14_13h29.10.660,Tarea de género gramatical,2024.2.2,Win32,60.24096386,,,,,,,,,,,,,,,,,,,,,,,504.2511,505.4284,a,1,[],[],[],[],[],[],[],0.4997,1,505.4286,505.9277,,,,,,162,MAS,DIS,150,miedo,la,l,0.4997,,505.9278,505.928,0.366666667,-0.428703704,0,0,0,,0,219,219,161,1,,,,
,,,,,,8577e2071a53498b184a5ce7,66a626ef09d4e21e1a8894ec,6735eceef5afe34882b19e38,2024-11-14_13h29.10.660,Tarea de género gramatical,2024.2.2,Win32,60.24096386,,,,,,,,,,,,,,,,,,,,,,,505.9292,507.4747,a,0,[],[],[],[],[],[],[],0.8656,0,507.4759,507.9737,,,,,,350,FEM,CON,150,imagen,,a,0.8656,,507.9738,507.974,0.366666667,-0.428703704,0,0,0,,0,220,220,349,1,,,,
,,,,,,8577e2071a53498b184a5ce7,66a626ef09d4e21e1a8894ec,6735eceef5afe34882b19e38,2024-11-14_13h29.10.660,Tarea de género gramatical,2024.2.2,Win32,60.24096386,,,,,,,,,,,,,,,,,,,,,,,507.9753,509.3544,a,1,[],[],[],[],[],[],[],0.7077,1,509.3555,509.8535,,,,,,168,MAS,DIS,150,sitio,la,l,0.7077,,509.8535,509.8536,0.366666667,-0.428703704,0,0,0,,0,221,221,167,1,,,,
,,,,,,8577e2071a53498b184a5ce7,66a626ef09d4e21e1a8894ec,6735eceef5afe34882b19e38,2024-11-14_13h29.10.660,Tarea de género gramatical,2024.2.2,Win32,60.24096386,,,,,,,,,,,,,,,,,,,,,,,509.8549,511.0346,l,1,[],[],[],[],[],[],[],0.5081,1,511.0347,511.5336,,,,,,129,FEM,DIS,150,rana,el,a,0.5081,,511.5351,511.536,0.366666667,-0.428703704,0,0,0,,0,222,222,128,1,,,,
,,,,,,8577e2071a53498b184a5ce7,66a626ef09d4e21e1a8894ec,6735eceef5afe34882b19e38,2024-11-14_13h29.10.660,Tarea de género gramatical,2024.2.2,Win32,60.24096386,,,,,,,,,,,,,,,,,,,,,,,511.537,512.7647,a,1,[],[],[],[],[],[],[],0.5555,1,512.7648,513.2637,,,,,,118,MAS,AGR,150,baúl,el,l,0.5555,,513.2638,513.264,0.366666667,-0.428703704,0,0,0,,0,223,223,117,1,,,,
,,,,,,8577e2071a53498b184a5ce7,66a626ef09d4e21e1a8894ec,6735eceef5afe34882b19e38,2024-11-14_13h29.10.660,Tarea de género gramatical,2024.2.2,Win32,60.24096386,,,,,,,,,,,,,,,,,,,,,,,513.2656,514.512,l,0,[],[],[],[],[],[],[],0.5779,0,514.513,515.0105,,,,,,294,MAS,DIS,150,cable,la,l,0.5779,,515.0105,515.0107,0.366666667,-0.428703704,0,0,0,,0,224,224,293,1,,,,
,,,,,,8577e2071a53498b184a5ce7,66a626ef09d4e21e1a8894ec,6735eceef5afe34882b19e38,2024-11-14_13h29.10.660,Tarea de género gramatical,2024.2.2,Win32,60.24096386,,,,,,,,,,,,,,,,,,,,,,,515.0122,516.5411,a,1,[],[],[],[],[],[],[],0.8488,1,516.5424,517.04,,,,,,323,MAS,CON,150,marido,,l,0.8488,,517.04,517.0402,0.366666667,-0.428703704,0,0,0,,0,225,225,322,1,,,,
,,,,,,8577e2071a53498b184a5ce7,66a626ef09d4e21e1a8894ec,6735eceef5afe34882b19e38,2024-11-14_13h29.10.660,Tarea de género gramatical,2024.2.2,Win32,60.24096386,,,,,,,,,,,,,,,,,,,,,,,517.0414,518.2212,a,1,[],[],[],[],[],[],[],0.4995,1,518.2213,518.7201,,,,,,395,MAS,CON,150,correo,,l,0.4995,,518.7202,518.7203,0.366666667,-0.428703704,0,0,0,,0,226,226,394,1,,,,
,,,,,,8577e2071a53498b184a5ce7,66a626ef09d4e21e1a8894ec,6735eceef5afe34882b19e38,2024-11-14_13h29.10.660,Tarea de género gramatical,2024.2.2,Win32,60.24096386,,,,,,,,,,,,,,,,,,,,,,,518.7216,519.868,l,1,[],[],[],[],[],[],[],0.4677,1,519.8681,520.367,,,,,,121,FEM,AGR,150,pila,la,a,0.4677,,520.3686,520.3699,0.366666667,-0.428703704,0,0,0,,0,227,227,120,1,,,,
,,,,,,8577e2071a53498b184a5ce7,66a626ef09d4e21e1a8894ec,6735eceef5afe34882b19e38,2024-11-14_13h29.10.660,Tarea de género gramatical,2024.2.2,Win32,60.24096386,,,,,,,,,,,,,,,,,,,,,,,520.3708,521.6319,a,1,[],[],[],[],[],[],[],0.5946,1,521.632,522.1303,,,,,,396,MAS,DIS,150,tesoro,la,l,0.5946,,522.1305,522.1306,0.366666667,-0.428703704,0,0,0,,0,228,228,395,1,,,,
,,,,,,8577e2071a53498b184a5ce7,66a626ef09d4e21e1a8894ec,6735eceef5afe34882b19e38,2024-11-14_13h29.10.660,Tarea de género gramatical,2024.2.2,Win32,60.24096386,,,,,,,,,,,,,,,,,,,,,,,522.1322,523.3615,a,1,[],[],[],[],[],[],[],0.551,1,523.3616,523.8606,,,,,,64,MAS,AGR,150,saco,el,l,0.551,,523.8606,523.8608,0.366666667,-0.428703704,0,0,0,,0,229,229,63,1,,,,
,,,,,,8577e2071a53498b184a5ce7,66a626ef09d4e21e1a8894ec,6735eceef5afe34882b19e38,2024-11-14_13h29.10.660,Tarea de género gramatical,2024.2.2,Win32,60.24096386,,,,,,,,,,,,,,,,,,,,,,,523.8623,525.0915,a,1,[],[],[],[],[],[],[],0.5496,1,525.0916,525.5907,,,,,,316,MAS,AGR,150,cuerpo,el,l,0.5496,,525.5907,525.5909,0.366666667,-0.428703704,0,0,0,,0,230,230,315,1,,,,
,,,,,,8577e2071a53498b184a5ce7,66a626ef09d4e21e1a8894ec,6735eceef5afe34882b19e38,2024-11-14_13h29.10.660,Tarea de género gramatical,2024.2.2,Win32,60.24096386,,,,,,,,,,,,,,,,,,,,,,,525.5924,526.6885,l,1,[],[],[],[],[],[],[],0.4266,1,526.6886,527.1875,,,,,,109,FEM,AGR,150,gota,la,a,0.4266,,527.189,527.1899,0.366666667,-0.428703704,0,0,0,,0,231,231,108,1,,,,
,,,,,,8577e2071a53498b184a5ce7,66a626ef09d4e21e1a8894ec,6735eceef5afe34882b19e38,2024-11-14_13h29.10.660,Tarea de género gramatical,2024.2.2,Win32,60.24096386,,,,,,,,,,,,,,,,,,,,,,,527.1909,528.336,a,1,[],[],[],[],[],[],[],0.478,1,528.3361,528.8345,,,,,,156,MAS,DIS,150,amigo,la,l,0.478,,528.8346,528.8347,0.366666667,-0.428703704,0,0,0,,0,232,232,155,1,,,,
,,,,,,8577e2071a53498b184a5ce7,66a626ef09d4e21e1a8894ec,6735eceef5afe34882b19e38,2024-11-14_13h29.10.660,Tarea de género gramatical,2024.2.2,Win32,60.24096386,,,,,,,,,,,,,,,,,,,,,,,528.8363,530.1987,a,1,[],[],[],[],[],[],[],0.6829,1,530.1987,530.6976,,,,,,438,MAS,DIS,150,tanque,la,l,0.6829,,530.6976,530.6979,0.366666667,-0.428703704,0,0,0,,0,233,233,437,1,,,,
,,,,,,8577e2071a53498b184a5ce7,66a626ef09d4e21e1a8894ec,6735eceef5afe34882b19e38,2024-11-14_13h29.10.660,Tarea de género gramatical,2024.2.2,Win32,60.24096386,,,,,,,,,,,,,,,,,,,,,,,530.6993,531.8621,a,1,[],[],[],[],[],[],[],0.483,1,531.8623,532.3613,,,,,,196,MAS,AGR,150,barco,el,l,0.483,,532.3614,532.3615,0.366666667,-0.428703704,0,0,0,,0,234,234,195,1,,,,
,,,,,,8577e2071a53498b184a5ce7,66a626ef09d4e21e1a8894ec,6735eceef5afe34882b19e38,2024-11-14_13h29.10.660,Tarea de género gramatical,2024.2.2,Win32,60.24096386,,,,,,,,,,,,,,,,,,,,,,,532.3632,533.692,l,1,[],[],[],[],[],[],[],0.6495,1,533.6921,534.1911,,,,,,427,FEM,AGR,150,agenda,la,a,0.6495,,534.1912,534.1914,0.366666667,-0.428703704,0,0,0,,0,235,235,426,1,,,,
,,,,,,8577e2071a53498b184a5ce7,66a626ef09d4e21e1a8894ec,6735eceef5afe34882b19e38,2024-11-14_13h29.10.660,Tarea de género gramatical,2024.2.2,Win32,60.24096386,,,,,,,,,,,,,,,,,,,,,,,534.193,535.4555,l,1,[],[],[],[],[],[],[],0.5831,1,535.4555,535.9544,,,,,,369,FEM,DIS,150,camisa,el,a,0.5831,,535.9562,535.9575,0.366666667,-0.428703704,0,0,0,,0,236,236,368,1,,,,
,,,,,,8577e2071a53498b184a5ce7,66a626ef09d4e21e1a8894ec,6735eceef5afe34882b19e38,2024-11-14_13h29.10.660,Tarea de género gramatical,2024.2.2,Win32,60.24096386,,,,,,,,,,,,,,,,,,,,,,,535.9584,537.4682,a,1,[],[],[],[],[],[],[],0.839,1,537.4683,537.9673,,,,,,310,MAS,AGR,150,nombre,el,l,0.839,,537.9674,537.9674,0.366666667,-0.428703704,0,0,0,,0,237,237,309,1,,,,
,,,,,,8577e2071a53498b184a5ce7,66a626ef09d4e21e1a8894ec,6735eceef5afe34882b19e38,2024-11-14_13h29.10.660,Tarea de género gramatical,2024.2.2,Win32,60.24096386,,,,,,,,,,,,,,,,,,,,,,,537.9688,539.1982,a,1,[],[],[],[],[],[],[],0.5539,1,539.1984,539.6974,,,,,,425,MAS,CON,150,chiste,,l,0.5539,,539.6975,539.6977,0.366666667,-0.428703704,0,0,0,,0,238,238,424,1,,,,
,,,,,,8577e2071a53498b184a5ce7,66a626ef09d4e21e1a8894ec,6735eceef5afe34882b19e38,2024-11-14_13h29.10.660,Tarea de género gramatical,2024.2.2,Win32,60.24096386,,,,,,,,,,,,,,,,,,,,,,,539.699,540.8453,l,1,[],[],[],[],[],[],[],0.472,1,540.8454,541.3442,,,,,,97,FEM,AGR,150,capa,la,a,0.472,,541.3442,541.3444,0.366666667,-0.428703704,0,0,0,,0,239,239,96,1,,,,
,,,,,,8577e2071a53498b184a5ce7,66a626ef09d4e21e1a8894ec,6735eceef5afe34882b19e38,2024-11-14_13h29.10.660,Tarea de género gramatical,2024.2.2,Win32,60.24096386,,,,,,,,,,,,,,,,,,,,,,,541.3457,542.5087,a,1,[],[],[],[],[],[],[],0.4891,1,542.5088,543.0077,,,,,,233,MAS,CON,150,golpe,,l,0.4891,,543.0094,543.0107,0.366666667,-0.428703704,0,0,0,,0,240,240,232,1,,,,
,,,,,,8577e2071a53498b184a5ce7,66a626ef09d4e21e1a8894ec,6735eceef5afe34882b19e38,2024-11-14_13h29.10.660,Tarea de género gramatical,2024.2.2,Win32,60.24096386,,,,,,,,,,,,,,,,,,,,,,,543.0117,544.1557,l,1,[],[],[],[],[],[],[],0.4661,1,544.1558,544.6548,,,,,,411,FEM,DIS,150,actriz,el,a,0.4661,,544.6548,544.655,0.366666667,-0.428703704,0,0,0,,0,241,241,410,1,,,,
,,,,,,8577e2071a53498b184a5ce7,66a626ef09d4e21e1a8894ec,6735eceef5afe34882b19e38,2024-11-14_13h29.10.660,Tarea de género gramatical,2024.2.2,Win32,60.24096386,,,,,,,,,,,,,,,,,,,,,,,544.6564,545.9025,l,1,[],[],[],[],[],[],[],0.5665,1,545.9025,546.4015,,,,,,392,FEM,CON,150,maleta,,a,0.5665,,546.4016,546.4017,0.366666667,-0.428703704,0,0,0,,0,242,242,391,1,,,,
,,,,,,8577e2071a53498b184a5ce7,66a626ef09d4e21e1a8894ec,6735eceef5afe34882b19e38,2024-11-14_13h29.10.660,Tarea de género gramatical,2024.2.2,Win32,60.24096386,,,,,,,,,,,,,,,,,,,,,,,546.4032,547.4829,l,1,[],[],[],[],[],[],[],0.4001,1,547.483,547.9818,,,,,,69,FEM,DIS,150,rata,el,a,0.4001,,547.9818,547.9821,0.366666667,-0.428703704,0,0,0,,0,243,243,68,1,,,,
,,,,,,8577e2071a53498b184a5ce7,66a626ef09d4e21e1a8894ec,6735eceef5afe34882b19e38,2024-11-14_13h29.10.660,Tarea de género gramatical,2024.2.2,Win32,60.24096386,,,,,,,,,,,,,,,,,,,,,,,547.9836,549.0633,a,1,[],[],[],[],[],[],[],0.4002,1,549.0634,549.5622,,,,,,406,MAS,AGR,150,premio,el,l,0.4002,,549.5623,549.5624,0.366666667,-0.428703704,0,0,0,,0,244,244,405,1,,,,
,,,,,,8577e2071a53498b184a5ce7,66a626ef09d4e21e1a8894ec,6735eceef5afe34882b19e38,2024-11-14_13h29.10.660,Tarea de género gramatical,2024.2.2,Win32,60.24096386,,,,,,,,,,,,,,,,,,,,,,,549.5639,550.6268,l,1,[],[],[],[],[],[],[],0.3916,1,550.6269,551.126,,,,,,284,FEM,CON,150,fruta,,a,0.3916,,551.1276,551.1288,0.366666667,-0.428703704,0,0,0,,0,245,245,283,1,,,,
,,,,,,8577e2071a53498b184a5ce7,66a626ef09d4e21e1a8894ec,6735eceef5afe34882b19e38,2024-11-14_13h29.10.660,Tarea de género gramatical,2024.2.2,Win32,60.24096386,,,,,,,,,,,,,,,,,,,,,,,551.1297,552.2087,a,1,[],[],[],[],[],[],[],0.4124,1,552.2088,552.7062,,,,,,4,MAS,AGR,150,hijo,el,l,0.4124,,552.7062,552.7064,0.366666667,-0.428703704,0,0,0,,0,246,246,3,1,,,,
,,,,,,8577e2071a53498b184a5ce7,66a626ef09d4e21e1a8894ec,6735eceef5afe34882b19e38,2024-11-14_13h29.10.660,Tarea de género gramatical,2024.2.2,Win32,60.24096386,,,,,,,,,,,,,,,,,,,,,,,552.7078,553.8043,l,1,[],[],[],[],[],[],[],0.4164,1,553.8044,554.3033,,,,,,25,FEM,AGR,150,nave,la,a,0.4164,,554.3033,554.3035,0.366666667,-0.428703704,0,0,0,,0,247,247,24,1,,,,
,,,,,,8577e2071a53498b184a5ce7,66a626ef09d4e21e1a8894ec,6735eceef5afe34882b19e38,2024-11-14_13h29.10.660,Tarea de género gramatical,2024.2.2,Win32,60.24096386,,,,,,,,,,,,,,,,,,,,,,,554.3049,555.5178,a,1,[],[],[],[],[],[],[],0.5329,1,555.5179,556.0167,,,,,,106,MAS,AGR,150,test,el,l,0.5329,,556.0168,556.017,0.366666667,-0.428703704,0,0,0,,0,248,248,105,1,,,,
,,,,,,8577e2071a53498b184a5ce7,66a626ef09d4e21e1a8894ec,6735eceef5afe34882b19e38,2024-11-14_13h29.10.660,Tarea de género gramatical,2024.2.2,Win32,60.24096386,,,,,,,,,,,,,,,,,,,,,,,556.0183,557.1479,a,1,[],[],[],[],[],[],[],0.4495,1,557.148,557.6469,,,,,,180,MAS,DIS,150,fuego,la,l,0.4495,,557.6484,557.6493,0.366666667,-0.428703704,0,0,0,,0,249,249,179,1,,,,
,,,,,,8577e2071a53498b184a5ce7,66a626ef09d4e21e1a8894ec,6735eceef5afe34882b19e38,2024-11-14_13h29.10.660,Tarea de género gramatical,2024.2.2,Win32,60.24096386,,,,,,,,,,,,,,,,,,,,,,,557.6503,558.7782,l,1,[],[],[],[],[],[],[],0.4505,1,558.7783,559.2772,,,,,,398,FEM,CON,150,hierba,,a,0.4505,,559.2773,559.2774,0.366666667,-0.428703704,0,0,0,,0,250,250,397,1,,,,
,,,,,,8577e2071a53498b184a5ce7,66a626ef09d4e21e1a8894ec,6735eceef5afe34882b19e38,2024-11-14_13h29.10.660,Tarea de género gramatical,2024.2.2,Win32,60.24096386,,,,,,,,,,,,,,,,,,,,,,,559.2788,560.3254,a,1,[],[],[],[],[],[],[],0.3724,1,560.3255,560.8244,,,,,,388,MAS,AGR,150,empleo,el,l,0.3724,,560.8244,560.8246,0.366666667,-0.428703704,0,0,0,,0,251,251,387,1,,,,
