counterbalancing_condition,consent_prescreening.block_1/declare_consent,consent_prescreening.block_1/age_years,consent_prescreening.block_1/gender,consent_prescreening.block_1/language_disorder,consent_prescreening.block_1/first_language,PROLIFIC_PID,STUDY_ID,SESSION_ID,date,expName,psychopyVersion,OS,frameRate,check_prescreening_answers.started,check_prescreening_answers.stopped,Instructions.started,Instructions.stopped,instr_done_keyboard.keys,instr_done_keyboard.rt,instr_done_keyboard.duration,instr_done_touch.x,instr_done_touch.y,instr_done_touch.leftButton,instr_done_touch.midButton,instr_done_touch.rightButton,instruction_pages.thisRepN,instruction_pages.thisTrialN,instruction_pages.thisN,instruction_pages.thisIndex,instruction_pages.ran,pageN,phase,instruct_text,has_image,instruct_image,presentTrial.started,presentTrial.stopped,response.keys,response.corr,touch_resp.x,touch_resp.y,touch_resp.leftButton,touch_resp.midButton,touch_resp.rightButton,touch_resp.time,touch_resp.clicked_name,rt,corr,feedback.started,feedback.stopped,practice_trials.thisRepN,practice_trials.thisTrialN,practice_trials.thisN,practice_trials.thisIndex,practice_trials.ran,TrialID,StimulusType,Condition,PrimeDuration,Prime,Flanker,corrAns,response.rt,response.duration,Break.started,Break.stopped,break_done_touch.x,break_done_touch.y,break_done_touch.leftButton,break_done_touch.midButton,break_done_touch.rightButton,break_done_keyboard.keys,experiment_trials.thisRepN,experiment_trials.thisTrialN,experiment_trials.thisN,experiment_trials.thisIndex,experiment_trials.ran,break_done_keyboard.rt,break_done_keyboard.duration,End.started,End.stopped
2,"[""over_18"",""comfortable"",""read_info"",""consent_given""]",23,F,"[""none""]","[""spanish"",""english""]",8612007c4eda4d4d471e4722,66a626ef09d4e21e1a8894ec,6737726643bef4be204bf0c1,2024-11-15_10h11.20.164,Tarea de género gramatical,2024.2.2,Win32,12.80409731,,,,,,,,,,,,,,,,,,,,,,,,,,,,,,,,,,,,,,,,,,,,,,,,,,,,,,,,,,,,,,,,,,,,
,,,,,,8612007c4eda4d4d471e4722,66a626ef09d4e21e1a8894ec,6737726643bef4be204bf0c1,2024-11-15_10h11.20.164,Tarea de género gramatical,2024.2.2,Win32,12.80409731,25.8852,25.8853,,,,,,,,,,,,,,,,,,,,,,,,,,,,,,,,,,,,,,,,,,,,,,,,,,,,,,,,,,,,,,,,,,
,,,,,,8612007c4eda4d4d471e4722,66a626ef09d4e21e1a8894ec,6737726643bef4be204bf0c1,2024-11-15_10h11.20.164,Tarea de género gramatical,2024.2.2,Win32,12.80409731,,,25.8981,31.368,space,5.3553,,-0.037037037,-0.416666667,0,0,0,0,0,0,0,1,1,instructions,"INSTRUCCIONES
Va a realizar una prueba de selección gramatical. Desde el comienzo de la prueba mire siempre al centro de la pantalla. Al cabo de un momento, aparecerán palabras. La tarea consiste en determinar si la palabra del centro (siempre será un sustantivo), pertenece al género masculino o femenino.

Pulse la tecla ESPACIO o toque el botón de abajo para continuar.",0,keyboardresponseMF.png,,,,,,,,,,,,,,,,,,,,,,,,,,,,,,,,,,,,,,,,,,,,,,
,,,,,,8612007c4eda4d4d471e4722,66a626ef09d4e21e1a8894ec,6737726643bef4be204bf0c1,2024-11-15_10h11.20.164,Tarea de género gramatical,2024.2.2,Win32,12.80409731,,,31.3713,47.7811,space,16.283,,0.239814815,-0.258333333,0,0,0,0,1,1,1,1,2,instructions,"Si su dispositivo tiene teclado, pulse la tecla ""A"" para las palabras en masculino (por ejemplo: ""arroz"") y la tecla ""L"" para las palabras en femenino (por ejemplo: ""mano"").
Pulse la tecla ESPACIO o toque el botón de abajo para continuar.",1,keyboardresponseMF.png,,,,,,,,,,,,,,,,,,,,,,,,,,,,,,,,,,,,,,,,,,,,,,
,,,,,,8612007c4eda4d4d471e4722,66a626ef09d4e21e1a8894ec,6737726643bef4be204bf0c1,2024-11-15_10h11.20.164,Tarea de género gramatical,2024.2.2,Win32,12.80409731,,,47.7826,53.35,space,5.4572,,0.239814815,-0.258333333,0,0,0,0,2,2,2,1,3,instructions,"Si utiliza un dispositivo sólo táctil, colóquelo en horizontal y utilice los botones de la pantalla. No utilice el ratón.
Pulse la tecla ESPACIO o toque el botón de abajo para continuar.",2,touchresponseMF.png,,,,,,,,,,,,,,,,,,,,,,,,,,,,,,,,,,,,,,,,,,,,,,
,,,,,,8612007c4eda4d4d471e4722,66a626ef09d4e21e1a8894ec,6737726643bef4be204bf0c1,2024-11-15_10h11.20.164,Tarea de género gramatical,2024.2.2,Win32,12.80409731,,,53.352,55.3996,space,1.9555,,0.239814815,-0.258333333,0,0,0,0,3,3,3,1,4,instructions,"Es muy importante que responda con la mayor rapidez y precisión posibles, ya que cada cadena de letras sólo estará en pantalla durante un instante. Si no responde en ese tiempo, aparecerá el mensaje ""Muy lento"" y el experimento pasará a la siguiente palabra. Los primeros 15 intentos serán de práctica y habrá dos descansos durante la prueba.
Pulse la tecla ESPACIO o toque el botón de abajo para iniciar la parte de práctica.",0,keyboardresponseMF.png,,,,,,,,,,,,,,,,,,,,,,,,,,,,,,,,,,,,,,,,,,,,,,
,,,,,,8612007c4eda4d4d471e4722,66a626ef09d4e21e1a8894ec,6737726643bef4be204bf0c1,2024-11-15_10h11.20.164,Tarea de género gramatical,2024.2.2,Win32,12.80409731,,,,,,,,,,,,,,,,,,,,,,,55.4107,58.017,,0,[],[],[],[],[],[],[],,-1,58.0172,58.5067,0,0,0,10,1,2011,MAS,CON,150,canal,,l,,,,,,,,,,,,,,,,,,,
,,,,,,8612007c4eda4d4d471e4722,66a626ef09d4e21e1a8894ec,6737726643bef4be204bf0c1,2024-11-15_10h11.20.164,Tarea de género gramatical,2024.2.2,Win32,12.80409731,,,,,,,,,,,,,,,,,,,,,,,58.5084,61.1203,,0,[],[],[],[],[],[],[],,-1,61.1204,61.5981,0,1,1,13,1,2014,MAS,CON,150,siglo,,l,,,,,,,,,,,,,,,,,,,
,,,,,,8612007c4eda4d4d471e4722,66a626ef09d4e21e1a8894ec,6737726643bef4be204bf0c1,2024-11-15_10h11.20.164,Tarea de género gramatical,2024.2.2,Win32,12.80409731,,,,,,,,,,,,,,,,,,,,,,,61.5992,62.7239,a,0,[],[],[],[],[],[],[],0.3783,0,62.7292,63.2189,0,2,2,1,1,2002,FEM,CON,150,pala,,a,0.3783,,,,,,,,,,,,,,,,,,
,,,,,,8612007c4eda4d4d471e4722,66a626ef09d4e21e1a8894ec,6737726643bef4be204bf0c1,2024-11-15_10h11.20.164,Tarea de género gramatical,2024.2.2,Win32,12.80409731,,,,,,,,,,,,,,,,,,,,,,,63.2202,64.5396,a,0,[],[],[],[],[],[],[],0.5779,0,64.5396,65.0182,0,3,3,3,1,2004,FEM,AGR,150,venta,la,a,0.5779,,,,,,,,,,,,,,,,,,
,,,,,,8612007c4eda4d4d471e4722,66a626ef09d4e21e1a8894ec,6737726643bef4be204bf0c1,2024-11-15_10h11.20.164,Tarea de género gramatical,2024.2.2,Win32,12.80409731,,,,,,,,,,,,,,,,,,,,,,,65.0194,67.6155,,0,[],[],[],[],[],[],[],0.5779,-1,67.6161,68.0978,0,4,4,8,1,2009,MAS,DIS,150,puerto,la,l,,,,,,,,,,,,,,,,,,,
,,,,,,8612007c4eda4d4d471e4722,66a626ef09d4e21e1a8894ec,6737726643bef4be204bf0c1,2024-11-15_10h11.20.164,Tarea de género gramatical,2024.2.2,Win32,12.80409731,,,,,,,,,,,,,,,,,,,,,,,68.0987,69.3026,l,1,[],[],[],[],[],[],[],0.4243,1,69.3038,69.785,0,5,5,4,1,2005,FEM,CON,150,placa,,a,0.4243,,,,,,,,,,,,,,,,,,
,,,,,,8612007c4eda4d4d471e4722,66a626ef09d4e21e1a8894ec,6737726643bef4be204bf0c1,2024-11-15_10h11.20.164,Tarea de género gramatical,2024.2.2,Win32,12.80409731,,,,,,,,,,,,,,,,,,,,,,,69.7859,72.395,,0,[],[],[],[],[],[],[],0.4243,-1,72.3958,72.8843,0,6,6,9,1,2010,MAS,AGR,150,vecino,el,l,,,,,,,,,,,,,,,,,,,
,,,,,,8612007c4eda4d4d471e4722,66a626ef09d4e21e1a8894ec,6737726643bef4be204bf0c1,2024-11-15_10h11.20.164,Tarea de género gramatical,2024.2.2,Win32,12.80409731,,,,,,,,,,,,,,,,,,,,,,,72.8854,75.519,,0,[],[],[],[],[],[],[],0.4243,-1,75.5191,76.0109,0,7,7,11,1,2012,MAS,DIS,150,clima,la,l,,,,,,,,,,,,,,,,,,,
,,,,,,8612007c4eda4d4d471e4722,66a626ef09d4e21e1a8894ec,6737726643bef4be204bf0c1,2024-11-15_10h11.20.164,Tarea de género gramatical,2024.2.2,Win32,12.80409731,,,,,,,,,,,,,,,,,,,,,,,76.0122,77.1858,a,0,[],[],[],[],[],[],[],0.4051,0,77.1866,77.6621,0,8,8,2,1,2003,FEM,DIS,150,daga,el,a,0.4051,,,,,,,,,,,,,,,,,,
,,,,,,8612007c4eda4d4d471e4722,66a626ef09d4e21e1a8894ec,6737726643bef4be204bf0c1,2024-11-15_10h11.20.164,Tarea de género gramatical,2024.2.2,Win32,12.80409731,,,,,,,,,,,,,,,,,,,,,,,77.663,78.9047,a,0,[],[],[],[],[],[],[],0.4812,0,78.9048,79.4085,0,9,9,0,1,2001,FEM,AGR,150,nuca,la,a,0.4812,,,,,,,,,,,,,,,,,,
,,,,,,8612007c4eda4d4d471e4722,66a626ef09d4e21e1a8894ec,6737726643bef4be204bf0c1,2024-11-15_10h11.20.164,Tarea de género gramatical,2024.2.2,Win32,12.80409731,,,,,,,,,,,,,,,,,,,,,,,79.4094,82.0781,,0,[],[],[],[],[],[],[],0.4812,-1,82.0787,82.5588,0,10,10,5,1,2006,FEM,DIS,150,serie,el,a,,,,,,,,,,,,,,,,,,,
,,,,,,8612007c4eda4d4d471e4722,66a626ef09d4e21e1a8894ec,6737726643bef4be204bf0c1,2024-11-15_10h11.20.164,Tarea de género gramatical,2024.2.2,Win32,12.80409731,,,,,,,,,,,,,,,,,,,,,,,82.5599,85.1654,,0,[],[],[],[],[],[],[],0.4812,-1,85.1655,85.6403,0,11,11,14,1,2015,MAS,DIS,150,robot,la,l,,,,,,,,,,,,,,,,,,,
,,,,,,8612007c4eda4d4d471e4722,66a626ef09d4e21e1a8894ec,6737726643bef4be204bf0c1,2024-11-15_10h11.20.164,Tarea de género gramatical,2024.2.2,Win32,12.80409731,,,,,,,,,,,,,,,,,,,,,,,85.6411,88.2401,,0,[],[],[],[],[],[],[],0.4812,-1,88.2402,88.7101,0,12,12,7,1,2008,FEM,CON,150,siesta,,a,,,,,,,,,,,,,,,,,,,
,,,,,,8612007c4eda4d4d471e4722,66a626ef09d4e21e1a8894ec,6737726643bef4be204bf0c1,2024-11-15_10h11.20.164,Tarea de género gramatical,2024.2.2,Win32,12.80409731,,,,,,,,,,,,,,,,,,,,,,,88.7112,89.9553,l,1,[],[],[],[],[],[],[],0.4849,1,89.956,90.4223,0,13,13,6,1,2007,FEM,AGR,150,navaja,la,a,0.4849,,,,,,,,,,,,,,,,,,
,,,,,,8612007c4eda4d4d471e4722,66a626ef09d4e21e1a8894ec,6737726643bef4be204bf0c1,2024-11-15_10h11.20.164,Tarea de género gramatical,2024.2.2,Win32,12.80409731,,,,,,,,,,,,,,,,,,,,,,,90.4232,91.5865,a,1,[],[],[],[],[],[],[],0.4107,1,91.5865,92.0471,0,14,14,12,1,2013,MAS,AGR,150,acero,el,l,0.4107,,,,,,,,,,,,,,,,,,
,,,,,,8612007c4eda4d4d471e4722,66a626ef09d4e21e1a8894ec,6737726643bef4be204bf0c1,2024-11-15_10h11.20.164,Tarea de género gramatical,2024.2.2,Win32,12.80409731,,,97.0054,98.8067,space,1.7056,,0.239814815,-0.258333333,0,0,0,,,,,,,,,,,98.8355,101.4594,,0,[],[],[],[],[],[],[],0.4107,-1,101.46,101.9314,,,,,,1258,MAS,DIS,150,motivo,la,l,,,101.9317,101.9352,0.239814815,-0.258333333,0,0,0,,0,0,0,357,1,,,,
,,,,,,8612007c4eda4d4d471e4722,66a626ef09d4e21e1a8894ec,6737726643bef4be204bf0c1,2024-11-15_10h11.20.164,Tarea de género gramatical,2024.2.2,Win32,12.80409731,,,,,,,,,,,,,,,,,,,,,,,101.9358,103.1477,a,1,[],[],[],[],[],[],[],0.4687,1,103.1483,103.6205,,,,,,1150,MAS,DIS,150,cerdo,la,l,0.4687,,103.6206,103.6206,0.239814815,-0.258333333,0,0,0,,0,1,1,249,1,,,,
,,,,,,8612007c4eda4d4d471e4722,66a626ef09d4e21e1a8894ec,6737726643bef4be204bf0c1,2024-11-15_10h11.20.164,Tarea de género gramatical,2024.2.2,Win32,12.80409731,,,,,,,,,,,,,,,,,,,,,,,103.6216,106.2126,,0,[],[],[],[],[],[],[],0.4687,-1,106.2132,106.6934,,,,,,1074,MAS,CON,150,perro,,l,,,106.6945,106.6959,0.239814815,-0.258333333,0,0,0,,0,2,2,173,1,,,,
,,,,,,8612007c4eda4d4d471e4722,66a626ef09d4e21e1a8894ec,6737726643bef4be204bf0c1,2024-11-15_10h11.20.164,Tarea de género gramatical,2024.2.2,Win32,12.80409731,,,,,,,,,,,,,,,,,,,,,,,106.6968,107.8367,l,0,[],[],[],[],[],[],[],0.3948,0,107.8374,108.2983,,,,,,1302,MAS,CON,150,ladrón,,l,0.3948,,108.2984,108.2985,0.239814815,-0.258333333,0,0,0,,0,3,3,401,1,,,,
,,,,,,8612007c4eda4d4d471e4722,66a626ef09d4e21e1a8894ec,6737726643bef4be204bf0c1,2024-11-15_10h11.20.164,Tarea de género gramatical,2024.2.2,Win32,12.80409731,,,,,,,,,,,,,,,,,,,,,,,108.2994,109.7292,l,1,[],[],[],[],[],[],[],0.6806,1,109.7298,110.198,,,,,,1082,FEM,AGR,150,prisa,la,a,0.6806,,110.1982,110.1982,0.239814815,-0.258333333,0,0,0,,0,4,4,181,1,,,,
,,,,,,8612007c4eda4d4d471e4722,66a626ef09d4e21e1a8894ec,6737726643bef4be204bf0c1,2024-11-15_10h11.20.164,Tarea de género gramatical,2024.2.2,Win32,12.80409731,,,,,,,,,,,,,,,,,,,,,,,110.1991,112.8321,,0,[],[],[],[],[],[],[],0.6806,-1,112.8328,113.3087,,,,,,1347,FEM,CON,150,lógica,,a,,,113.3087,113.3089,0.239814815,-0.258333333,0,0,0,,0,5,5,446,1,,,,
,,,,,,8612007c4eda4d4d471e4722,66a626ef09d4e21e1a8894ec,6737726643bef4be204bf0c1,2024-11-15_10h11.20.164,Tarea de género gramatical,2024.2.2,Win32,12.80409731,,,,,,,,,,,,,,,,,,,,,,,113.3099,114.4655,l,1,[],[],[],[],[],[],[],0.3943,1,114.4663,114.9365,,,,,,1142,FEM,AGR,150,pizza,la,a,0.3943,,114.9377,114.9392,0.239814815,-0.258333333,0,0,0,,0,6,6,241,1,,,,
,,,,,,8612007c4eda4d4d471e4722,66a626ef09d4e21e1a8894ec,6737726643bef4be204bf0c1,2024-11-15_10h11.20.164,Tarea de género gramatical,2024.2.2,Win32,12.80409731,,,,,,,,,,,,,,,,,,,,,,,114.9397,116.0955,l,1,[],[],[],[],[],[],[],0.3901,1,116.0956,116.5724,,,,,,1100,FEM,AGR,150,silla,la,a,0.3901,,116.5724,116.5725,0.239814815,-0.258333333,0,0,0,,0,7,7,199,1,,,,
,,,,,,8612007c4eda4d4d471e4722,66a626ef09d4e21e1a8894ec,6737726643bef4be204bf0c1,2024-11-15_10h11.20.164,Tarea de género gramatical,2024.2.2,Win32,12.80409731,,,,,,,,,,,,,,,,,,,,,,,116.5733,117.6254,l,1,[],[],[],[],[],[],[],0.3068,1,117.6255,118.085,,,,,,1183,FEM,DIS,150,pluma,el,a,0.3068,,118.0851,118.0852,0.239814815,-0.258333333,0,0,0,,0,8,8,282,1,,,,
,,,,,,8612007c4eda4d4d471e4722,66a626ef09d4e21e1a8894ec,6737726643bef4be204bf0c1,2024-11-15_10h11.20.164,Tarea de género gramatical,2024.2.2,Win32,12.80409731,,,,,,,,,,,,,,,,,,,,,,,118.0861,120.6721,,0,[],[],[],[],[],[],[],0.3068,-1,120.6728,121.1743,,,,,,1256,FEM,AGR,150,piedra,la,a,,,121.1743,121.1744,0.239814815,-0.258333333,0,0,0,,0,9,9,355,1,,,,
,,,,,,8612007c4eda4d4d471e4722,66a626ef09d4e21e1a8894ec,6737726643bef4be204bf0c1,2024-11-15_10h11.20.164,Tarea de género gramatical,2024.2.2,Win32,12.80409731,,,,,,,,,,,,,,,,,,,,,,,121.1753,122.3449,l,1,[],[],[],[],[],[],[],0.4042,1,122.3456,122.831,,,,,,1297,FEM,DIS,150,cuerda,el,a,0.4042,,122.831,122.8311,0.239814815,-0.258333333,0,0,0,,0,10,10,396,1,,,,
,,,,,,8612007c4eda4d4d471e4722,66a626ef09d4e21e1a8894ec,6737726643bef4be204bf0c1,2024-11-15_10h11.20.164,Tarea de género gramatical,2024.2.2,Win32,12.80409731,,,,,,,,,,,,,,,,,,,,,,,122.8319,125.4589,,0,[],[],[],[],[],[],[],0.4042,-1,125.4595,125.9264,,,,,,1159,FEM,DIS,150,prima,el,a,,,125.9275,125.929,0.239814815,-0.258333333,0,0,0,,0,11,11,258,1,,,,
,,,,,,8612007c4eda4d4d471e4722,66a626ef09d4e21e1a8894ec,6737726643bef4be204bf0c1,2024-11-15_10h11.20.164,Tarea de género gramatical,2024.2.2,Win32,12.80409731,,,,,,,,,,,,,,,,,,,,,,,125.9297,126.96,a,1,[],[],[],[],[],[],[],0.2973,1,126.9606,127.4395,,,,,,1109,MAS,AGR,150,banco,el,l,0.2973,,127.4395,127.4396,0.239814815,-0.258333333,0,0,0,,0,12,12,208,1,,,,
,,,,,,8612007c4eda4d4d471e4722,66a626ef09d4e21e1a8894ec,6737726643bef4be204bf0c1,2024-11-15_10h11.20.164,Tarea de género gramatical,2024.2.2,Win32,12.80409731,,,,,,,,,,,,,,,,,,,,,,,127.4405,130.0394,,0,[],[],[],[],[],[],[],0.2973,-1,130.0399,130.503,,,,,,1204,MAS,DIS,150,tiempo,la,l,,,130.5031,130.5031,0.239814815,-0.258333333,0,0,0,,0,13,13,303,1,,,,
,,,,,,8612007c4eda4d4d471e4722,66a626ef09d4e21e1a8894ec,6737726643bef4be204bf0c1,2024-11-15_10h11.20.164,Tarea de género gramatical,2024.2.2,Win32,12.80409731,,,,,,,,,,,,,,,,,,,,,,,130.5045,133.1713,,0,[],[],[],[],[],[],[],0.2973,-1,133.1714,133.6514,,,,,,1102,MAS,DIS,150,honor,la,l,,,133.6514,133.6514,0.239814815,-0.258333333,0,0,0,,0,14,14,201,1,,,,
,,,,,,8612007c4eda4d4d471e4722,66a626ef09d4e21e1a8894ec,6737726643bef4be204bf0c1,2024-11-15_10h11.20.164,Tarea de género gramatical,2024.2.2,Win32,12.80409731,,,,,,,,,,,,,,,,,,,,,,,133.6523,134.7202,l,1,[],[],[],[],[],[],[],0.3094,1,134.7208,135.2153,,,,,,1124,FEM,AGR,150,arena,la,a,0.3094,,135.2163,135.2179,0.239814815,-0.258333333,0,0,0,,0,15,15,223,1,,,,
,,,,,,8612007c4eda4d4d471e4722,66a626ef09d4e21e1a8894ec,6737726643bef4be204bf0c1,2024-11-15_10h11.20.164,Tarea de género gramatical,2024.2.2,Win32,12.80409731,,,,,,,,,,,,,,,,,,,,,,,135.2187,136.278,l,0,[],[],[],[],[],[],[],0.3024,0,136.2787,136.784,,,,,,1012,MAS,DIS,150,reto,la,l,0.3024,,136.7841,136.7841,0.239814815,-0.258333333,0,0,0,,0,16,16,111,1,,,,
,,,,,,8612007c4eda4d4d471e4722,66a626ef09d4e21e1a8894ec,6737726643bef4be204bf0c1,2024-11-15_10h11.20.164,Tarea de género gramatical,2024.2.2,Win32,12.80409731,,,,,,,,,,,,,,,,,,,,,,,136.785,139.3728,,0,[],[],[],[],[],[],[],0.3024,-1,139.3734,139.8399,,,,,,1016,FEM,AGR,150,nube,la,a,,,139.8399,139.84,0.239814815,-0.258333333,0,0,0,,0,17,17,115,1,,,,
,,,,,,8612007c4eda4d4d471e4722,66a626ef09d4e21e1a8894ec,6737726643bef4be204bf0c1,2024-11-15_10h11.20.164,Tarea de género gramatical,2024.2.2,Win32,12.80409731,,,,,,,,,,,,,,,,,,,,,,,139.8407,140.7082,l,1,[],[],[],[],[],[],[],0.1051,1,140.7088,141.1884,,,,,,1179,FEM,CON,150,selva,,a,0.1051,,141.1884,141.1885,0.239814815,-0.258333333,0,0,0,,0,18,18,278,1,,,,
,,,,,,8612007c4eda4d4d471e4722,66a626ef09d4e21e1a8894ec,6737726643bef4be204bf0c1,2024-11-15_10h11.20.164,Tarea de género gramatical,2024.2.2,Win32,12.80409731,,,,,,,,,,,,,,,,,,,,,,,141.1896,141.9555,l,0,[],[],[],[],[],[],[],0.0085,0,141.9562,142.4276,,,,,,1042,MAS,DIS,150,lodo,la,l,0.0085,,142.4276,142.4277,0.239814815,-0.258333333,0,0,0,,0,19,19,141,1,,,,
,,,,,,8612007c4eda4d4d471e4722,66a626ef09d4e21e1a8894ec,6737726643bef4be204bf0c1,2024-11-15_10h11.20.164,Tarea de género gramatical,2024.2.2,Win32,12.80409731,,,,,,,,,,,,,,,,,,,,,,,142.4287,143.2674,l,0,[],[],[],[],[],[],[],0.0084,0,143.2675,143.7629,,,,,,1169,MAS,AGR,150,primo,el,l,0.0084,,143.7639,143.7653,0.239814815,-0.258333333,0,0,0,,0,20,20,268,1,,,,
,,,,,,8612007c4eda4d4d471e4722,66a626ef09d4e21e1a8894ec,6737726643bef4be204bf0c1,2024-11-15_10h11.20.164,Tarea de género gramatical,2024.2.2,Win32,12.80409731,,,,,,,,,,,,,,,,,,,,,,,143.7659,144.7114,a,0,[],[],[],[],[],[],[],0.1965,0,144.7115,145.189,,,,,,1279,FEM,DIS,150,granja,el,a,0.1965,,145.1891,145.1891,0.239814815,-0.258333333,0,0,0,,0,21,21,378,1,,,,
,,,,,,8612007c4eda4d4d471e4722,66a626ef09d4e21e1a8894ec,6737726643bef4be204bf0c1,2024-11-15_10h11.20.164,Tarea de género gramatical,2024.2.2,Win32,12.80409731,,,,,,,,,,,,,,,,,,,,,,,145.1899,147.8433,,0,[],[],[],[],[],[],[],0.1965,-1,147.8439,148.3148,,,,,,1290,MAS,CON,150,rostro,,l,,,148.3148,148.3149,0.239814815,-0.258333333,0,0,0,,0,22,22,389,1,,,,
,,,,,,8612007c4eda4d4d471e4722,66a626ef09d4e21e1a8894ec,6737726643bef4be204bf0c1,2024-11-15_10h11.20.164,Tarea de género gramatical,2024.2.2,Win32,12.80409731,,,,,,,,,,,,,,,,,,,,,,,148.3161,149.4605,l,1,[],[],[],[],[],[],[],0.3925,1,149.461,149.9431,,,,,,1226,FEM,AGR,150,música,la,a,0.3925,,149.9432,149.9433,0.239814815,-0.258333333,0,0,0,,0,23,23,325,1,,,,
,,,,,,8612007c4eda4d4d471e4722,66a626ef09d4e21e1a8894ec,6737726643bef4be204bf0c1,2024-11-15_10h11.20.164,Tarea de género gramatical,2024.2.2,Win32,12.80409731,,,,,,,,,,,,,,,,,,,,,,,149.9441,151.0776,l,1,[],[],[],[],[],[],[],0.3836,1,151.0776,151.5682,,,,,,944,FEM,AGR,150,zona,la,a,0.3836,,151.5693,151.5708,0.239814815,-0.258333333,0,0,0,,0,24,24,43,1,,,,
,,,,,,8612007c4eda4d4d471e4722,66a626ef09d4e21e1a8894ec,6737726643bef4be204bf0c1,2024-11-15_10h11.20.164,Tarea de género gramatical,2024.2.2,Win32,12.80409731,,,,,,,,,,,,,,,,,,,,,,,151.5716,154.1722,,0,[],[],[],[],[],[],[],0.3836,-1,154.1729,154.6769,,,,,,1321,FEM,DIS,150,novela,el,a,,,154.677,154.677,0.239814815,-0.258333333,0,0,0,,0,25,25,420,1,,,,
,,,,,,8612007c4eda4d4d471e4722,66a626ef09d4e21e1a8894ec,6737726643bef4be204bf0c1,2024-11-15_10h11.20.164,Tarea de género gramatical,2024.2.2,Win32,12.80409731,,,,,,,,,,,,,,,,,,,,,,,154.6778,155.7168,l,1,[],[],[],[],[],[],[],0.2944,1,155.7175,156.1981,,,,,,1153,FEM,DIS,150,aldea,el,a,0.2944,,156.1981,156.1983,0.239814815,-0.258333333,0,0,0,,0,26,26,252,1,,,,
,,,,,,8612007c4eda4d4d471e4722,66a626ef09d4e21e1a8894ec,6737726643bef4be204bf0c1,2024-11-15_10h11.20.164,Tarea de género gramatical,2024.2.2,Win32,12.80409731,,,,,,,,,,,,,,,,,,,,,,,156.1993,157.2608,l,0,[],[],[],[],[],[],[],0.2893,0,157.2617,157.7341,,,,,,1294,MAS,DIS,150,examen,la,l,0.2893,,157.7342,157.7342,0.239814815,-0.258333333,0,0,0,,0,27,27,393,1,,,,
,,,,,,8612007c4eda4d4d471e4722,66a626ef09d4e21e1a8894ec,6737726643bef4be204bf0c1,2024-11-15_10h11.20.164,Tarea de género gramatical,2024.2.2,Win32,12.80409731,,,,,,,,,,,,,,,,,,,,,,,157.7352,158.788,l,0,[],[],[],[],[],[],[],0.2899,0,158.788,159.2713,,,,,,1247,MAS,AGR,150,cuello,el,l,0.2899,,159.2713,159.2714,0.239814815,-0.258333333,0,0,0,,0,28,28,346,1,,,,
,,,,,,8612007c4eda4d4d471e4722,66a626ef09d4e21e1a8894ec,6737726643bef4be204bf0c1,2024-11-15_10h11.20.164,Tarea de género gramatical,2024.2.2,Win32,12.80409731,,,,,,,,,,,,,,,,,,,,,,,159.2723,160.3401,l,1,[],[],[],[],[],[],[],0.3032,1,160.3408,160.8115,,,,,,1273,FEM,DIS,150,lluvia,el,a,0.3032,,160.8127,160.8142,0.239814815,-0.258333333,0,0,0,,0,29,29,372,1,,,,
,,,,,,8612007c4eda4d4d471e4722,66a626ef09d4e21e1a8894ec,6737726643bef4be204bf0c1,2024-11-15_10h11.20.164,Tarea de género gramatical,2024.2.2,Win32,12.80409731,,,,,,,,,,,,,,,,,,,,,,,160.8149,163.4038,,0,[],[],[],[],[],[],[],0.3032,-1,163.4044,163.8868,,,,,,1305,FEM,CON,150,parada,,a,,,163.8868,163.8869,0.239814815,-0.258333333,0,0,0,,0,30,30,404,1,,,,
,,,,,,8612007c4eda4d4d471e4722,66a626ef09d4e21e1a8894ec,6737726643bef4be204bf0c1,2024-11-15_10h11.20.164,Tarea de género gramatical,2024.2.2,Win32,12.80409731,,,,,,,,,,,,,,,,,,,,,,,163.888,165.0232,l,1,[],[],[],[],[],[],[],0.3866,1,165.0238,165.4988,,,,,,1154,FEM,AGR,150,caída,la,a,0.3866,,165.4988,165.4989,0.239814815,-0.258333333,0,0,0,,0,31,31,253,1,,,,
,,,,,,8612007c4eda4d4d471e4722,66a626ef09d4e21e1a8894ec,6737726643bef4be204bf0c1,2024-11-15_10h11.20.164,Tarea de género gramatical,2024.2.2,Win32,12.80409731,,,,,,,,,,,,,,,,,,,,,,,165.4998,166.5462,l,1,[],[],[],[],[],[],[],0.2974,1,166.5462,167.0168,,,,,,961,FEM,DIS,150,ruta,el,a,0.2974,,167.0169,167.0169,0.239814815,-0.258333333,0,0,0,,0,32,32,60,1,,,,
,,,,,,8612007c4eda4d4d471e4722,66a626ef09d4e21e1a8894ec,6737726643bef4be204bf0c1,2024-11-15_10h11.20.164,Tarea de género gramatical,2024.2.2,Win32,12.80409731,,,,,,,,,,,,,,,,,,,,,,,167.0178,168.0729,l,0,[],[],[],[],[],[],[],0.2889,0,168.0736,168.5557,,,,,,988,MAS,DIS,150,pavo,la,l,0.2889,,168.5571,168.5584,0.239814815,-0.258333333,0,0,0,,0,33,33,87,1,,,,
,,,,,,8612007c4eda4d4d471e4722,66a626ef09d4e21e1a8894ec,6737726643bef4be204bf0c1,2024-11-15_10h11.20.164,Tarea de género gramatical,2024.2.2,Win32,12.80409731,,,,,,,,,,,,,,,,,,,,,,,168.559,171.1823,,0,[],[],[],[],[],[],[],0.2889,-1,171.1829,171.6632,,,,,,1027,FEM,DIS,150,cuna,el,a,,,171.6633,171.6634,0.239814815,-0.258333333,0,0,0,,0,34,34,126,1,,,,
,,,,,,8612007c4eda4d4d471e4722,66a626ef09d4e21e1a8894ec,6737726643bef4be204bf0c1,2024-11-15_10h11.20.164,Tarea de género gramatical,2024.2.2,Win32,12.80409731,,,,,,,,,,,,,,,,,,,,,,,171.6642,172.8072,l,1,[],[],[],[],[],[],[],0.3898,1,172.8078,173.2864,,,,,,1238,FEM,AGR,150,abuela,la,a,0.3898,,173.2865,173.2865,0.239814815,-0.258333333,0,0,0,,0,35,35,337,1,,,,
,,,,,,8612007c4eda4d4d471e4722,66a626ef09d4e21e1a8894ec,6737726643bef4be204bf0c1,2024-11-15_10h11.20.164,Tarea de género gramatical,2024.2.2,Win32,12.80409731,,,,,,,,,,,,,,,,,,,,,,,173.288,174.342,l,0,[],[],[],[],[],[],[],0.2944,0,174.3426,174.8121,,,,,,1229,MAS,AGR,150,futuro,el,l,0.2944,,174.8122,174.8122,0.239814815,-0.258333333,0,0,0,,0,36,36,328,1,,,,
,,,,,,8612007c4eda4d4d471e4722,66a626ef09d4e21e1a8894ec,6737726643bef4be204bf0c1,2024-11-15_10h11.20.164,Tarea de género gramatical,2024.2.2,Win32,12.80409731,,,,,,,,,,,,,,,,,,,,,,,174.813,175.9633,l,1,[],[],[],[],[],[],[],0.3837,1,175.9641,176.4453,,,,,,997,FEM,DIS,150,capa,el,a,0.3837,,176.4454,176.4455,0.239814815,-0.258333333,0,0,0,,0,37,37,96,1,,,,
,,,,,,8612007c4eda4d4d471e4722,66a626ef09d4e21e1a8894ec,6737726643bef4be204bf0c1,2024-11-15_10h11.20.164,Tarea de género gramatical,2024.2.2,Win32,12.80409731,,,,,,,,,,,,,,,,,,,,,,,176.4466,177.4851,a,1,[],[],[],[],[],[],[],0.294,1,177.4852,177.9568,,,,,,1332,MAS,CON,150,océano,,l,0.294,,177.958,177.9594,0.239814815,-0.258333333,0,0,0,,0,38,38,431,1,,,,
,,,,,,8612007c4eda4d4d471e4722,66a626ef09d4e21e1a8894ec,6737726643bef4be204bf0c1,2024-11-15_10h11.20.164,Tarea de género gramatical,2024.2.2,Win32,12.80409731,,,,,,,,,,,,,,,,,,,,,,,177.9601,178.9429,l,0,[],[],[],[],[],[],[],0.1975,0,178.9435,179.4216,,,,,,1157,MAS,AGR,150,pecho,el,l,0.1975,0,179.4217,179.4218,0.239814815,-0.258333333,0,0,0,,0,39,39,256,1,,,,
,,,,,,8612007c4eda4d4d471e4722,66a626ef09d4e21e1a8894ec,6737726643bef4be204bf0c1,2024-11-15_10h11.20.164,Tarea de género gramatical,2024.2.2,Win32,12.80409731,,,,,,,,,,,,,,,,,,,,,,,179.4226,180.4621,l,0,[],[],[],[],[],[],[],0.2953,0,180.4622,180.9407,,,,,,1066,MAS,DIS,150,coche,la,l,0.2953,,180.9409,180.9409,0.239814815,-0.258333333,0,0,0,,0,40,40,165,1,,,,
,,,,,,8612007c4eda4d4d471e4722,66a626ef09d4e21e1a8894ec,6737726643bef4be204bf0c1,2024-11-15_10h11.20.164,Tarea de género gramatical,2024.2.2,Win32,12.80409731,,,,,,,,,,,,,,,,,,,,,,,180.9418,183.5226,,0,[],[],[],[],[],[],[],0.2953,-1,183.5232,184.002,,,,,,1236,MAS,CON,150,crimen,,l,,,184.0021,184.0022,0.239814815,-0.258333333,0,0,0,,0,41,41,335,1,,,,
,,,,,,8612007c4eda4d4d471e4722,66a626ef09d4e21e1a8894ec,6737726643bef4be204bf0c1,2024-11-15_10h11.20.164,Tarea de género gramatical,2024.2.2,Win32,12.80409731,,,,,,,,,,,,,,,,,,,,,,,184.0032,186.6664,,0,[],[],[],[],[],[],[],0.2953,-1,186.6666,187.1503,,,,,,1275,FEM,CON,150,cadena,,a,,,187.1512,187.1527,0.239814815,-0.258333333,0,0,0,,0,42,42,374,1,,,,
,,,,,,8612007c4eda4d4d471e4722,66a626ef09d4e21e1a8894ec,6737726643bef4be204bf0c1,2024-11-15_10h11.20.164,Tarea de género gramatical,2024.2.2,Win32,12.80409731,,,,,,,,,,,,,,,,,,,,,,,187.1533,188.2168,l,1,[],[],[],[],[],[],[],0.3107,1,188.2174,188.7013,,,,,,1185,FEM,CON,150,mafia,,a,0.3107,,188.7014,188.7015,0.239814815,-0.258333333,0,0,0,,0,43,43,284,1,,,,
,,,,,,8612007c4eda4d4d471e4722,66a626ef09d4e21e1a8894ec,6737726643bef4be204bf0c1,2024-11-15_10h11.20.164,Tarea de género gramatical,2024.2.2,Win32,12.80409731,,,,,,,,,,,,,,,,,,,,,,,188.7024,191.2971,,0,[],[],[],[],[],[],[],0.3107,-1,191.2977,191.7851,,,,,,1035,FEM,CON,150,raíz,,a,,,191.7851,191.7852,0.239814815,-0.258333333,0,0,0,,0,44,44,134,1,,,,
,,,,,,8612007c4eda4d4d471e4722,66a626ef09d4e21e1a8894ec,6737726643bef4be204bf0c1,2024-11-15_10h11.20.164,Tarea de género gramatical,2024.2.2,Win32,12.80409731,,,,,,,,,,,,,,,,,,,,,,,191.7863,194.4615,,0,[],[],[],[],[],[],[],0.3107,-1,194.4617,194.9433,,,,,,1232,FEM,AGR,150,basura,la,a,,,194.9433,194.9434,0.239814815,-0.258333333,0,0,0,,0,45,45,331,1,,,,
,,,,,,8612007c4eda4d4d471e4722,66a626ef09d4e21e1a8894ec,6737726643bef4be204bf0c1,2024-11-15_10h11.20.164,Tarea de género gramatical,2024.2.2,Win32,12.80409731,,,,,,,,,,,,,,,,,,,,,,,194.9443,197.5454,,0,[],[],[],[],[],[],[],0.3107,-1,197.5454,198.0326,,,,,,1210,MAS,DIS,150,nombre,la,l,,,198.0327,198.0328,0.239814815,-0.258333333,0,0,0,,0,46,46,309,1,,,,
,,,,,,8612007c4eda4d4d471e4722,66a626ef09d4e21e1a8894ec,6737726643bef4be204bf0c1,2024-11-15_10h11.20.164,Tarea de género gramatical,2024.2.2,Win32,12.80409731,,,,,,,,,,,,,,,,,,,,,,,198.0336,200.2396,l,1,[],[],[],[],[],[],[],1.457,1,200.2402,200.7055,,,,,,1010,FEM,AGR,150,rosa,la,a,1.457,,200.7064,200.7078,0.239814815,-0.258333333,0,0,0,,0,47,47,109,1,,,,
,,,,,,8612007c4eda4d4d471e4722,66a626ef09d4e21e1a8894ec,6737726643bef4be204bf0c1,2024-11-15_10h11.20.164,Tarea de género gramatical,2024.2.2,Win32,12.80409731,,,,,,,,,,,,,,,,,,,,,,,200.7084,201.6981,l,1,[],[],[],[],[],[],[],0.1952,1,201.6982,202.1994,,,,,,1148,FEM,AGR,150,letra,la,a,0.1952,,202.1995,202.1995,0.239814815,-0.258333333,0,0,0,,0,48,48,247,1,,,,
,,,,,,8612007c4eda4d4d471e4722,66a626ef09d4e21e1a8894ec,6737726643bef4be204bf0c1,2024-11-15_10h11.20.164,Tarea de género gramatical,2024.2.2,Win32,12.80409731,,,,,,,,,,,,,,,,,,,,,,,202.2004,203.5377,l,0,[],[],[],[],[],[],[],0.5718,0,203.5383,204.017,,,,,,1139,MAS,AGR,150,reloj,el,l,0.5718,,204.017,204.0171,0.239814815,-0.258333333,0,0,0,,0,49,49,238,1,,,,
,,,,,,8612007c4eda4d4d471e4722,66a626ef09d4e21e1a8894ec,6737726643bef4be204bf0c1,2024-11-15_10h11.20.164,Tarea de género gramatical,2024.2.2,Win32,12.80409731,,,,,,,,,,,,,,,,,,,,,,,204.0179,206.6164,,0,[],[],[],[],[],[],[],0.5718,-1,206.6171,207.0876,,,,,,1056,MAS,CON,150,amigo,,l,,,207.0876,207.0877,0.239814815,-0.258333333,0,0,0,,0,50,50,155,1,,,,
,,,,,,8612007c4eda4d4d471e4722,66a626ef09d4e21e1a8894ec,6737726643bef4be204bf0c1,2024-11-15_10h11.20.164,Tarea de género gramatical,2024.2.2,Win32,12.80409731,,,,,,,,,,,,,,,,,,,,,,,207.0885,207.8563,a,1,[],[],[],[],[],[],[],0.0085,1,207.8569,208.343,,,,,,960,MAS,CON,150,tono,,l,0.0085,,208.3438,208.3452,0.239814815,-0.258333333,0,0,0,,0,51,51,59,1,,,,
,,,,,,8612007c4eda4d4d471e4722,66a626ef09d4e21e1a8894ec,6737726643bef4be204bf0c1,2024-11-15_10h11.20.164,Tarea de género gramatical,2024.2.2,Win32,12.80409731,,,,,,,,,,,,,,,,,,,,,,,208.3458,209.3971,a,1,[],[],[],[],[],[],[],0.2973,1,209.3971,209.86,,,,,,1096,MAS,DIS,150,barco,la,l,0.2973,,209.8601,209.8601,0.239814815,-0.258333333,0,0,0,,0,52,52,195,1,,,,
,,,,,,8612007c4eda4d4d471e4722,66a626ef09d4e21e1a8894ec,6737726643bef4be204bf0c1,2024-11-15_10h11.20.164,Tarea de género gramatical,2024.2.2,Win32,12.80409731,,,,,,,,,,,,,,,,,,,,,,,209.861,212.4628,,0,[],[],[],[],[],[],[],0.2973,-1,212.4635,212.9403,,,,,,1067,MAS,AGR,150,juego,el,l,,,212.9404,212.9404,0.239814815,-0.258333333,0,0,0,,0,53,53,166,1,,,,
,,,,,,8612007c4eda4d4d471e4722,66a626ef09d4e21e1a8894ec,6737726643bef4be204bf0c1,2024-11-15_10h11.20.164,Tarea de género gramatical,2024.2.2,Win32,12.80409731,,,,,,,,,,,,,,,,,,,,,,,212.9412,214.1128,a,0,[],[],[],[],[],[],[],0.3976,0,214.1134,214.588,,,,,,932,FEM,AGR,150,caja,la,a,0.3976,,214.588,214.5881,0.239814815,-0.258333333,0,0,0,,0,54,54,31,1,,,,
,,,,,,8612007c4eda4d4d471e4722,66a626ef09d4e21e1a8894ec,6737726643bef4be204bf0c1,2024-11-15_10h11.20.164,Tarea de género gramatical,2024.2.2,Win32,12.80409731,,,,,,,,,,,,,,,,,,,,,,,214.589,217.2054,,0,[],[],[],[],[],[],[],0.3976,-1,217.206,217.6976,,,,,,1051,FEM,DIS,150,noche,el,a,,,217.6977,217.6978,0.239814815,-0.258333333,0,0,0,,0,55,55,150,1,,,,
,,,,,,8612007c4eda4d4d471e4722,66a626ef09d4e21e1a8894ec,6737726643bef4be204bf0c1,2024-11-15_10h11.20.164,Tarea de género gramatical,2024.2.2,Win32,12.80409731,,,,,,,,,,,,,,,,,,,,,,,217.6986,218.5811,l,1,[],[],[],[],[],[],[],0.1045,1,218.5818,219.0635,,,,,,1141,FEM,DIS,150,pasta,el,a,0.1045,,219.0643,219.0658,0.239814815,-0.258333333,0,0,0,,0,56,56,240,1,,,,
,,,,,,8612007c4eda4d4d471e4722,66a626ef09d4e21e1a8894ec,6737726643bef4be204bf0c1,2024-11-15_10h11.20.164,Tarea de género gramatical,2024.2.2,Win32,12.80409731,,,,,,,,,,,,,,,,,,,,,,,219.0664,219.9599,l,1,[],[],[],[],[],[],[],0.1128,1,219.9601,220.4289,,,,,,1293,FEM,CON,150,alarma,,a,0.1128,,220.429,220.429,0.239814815,-0.258333333,0,0,0,,0,57,57,392,1,,,,
,,,,,,8612007c4eda4d4d471e4722,66a626ef09d4e21e1a8894ec,6737726643bef4be204bf0c1,2024-11-15_10h11.20.164,Tarea de género gramatical,2024.2.2,Win32,12.80409731,,,,,,,,,,,,,,,,,,,,,,,220.4298,221.2828,a,0,[],[],[],[],[],[],[],0.1062,0,221.2835,221.7644,,,,,,1047,FEM,CON,150,grúa,,a,0.1062,,221.7644,221.7645,0.239814815,-0.258333333,0,0,0,,0,58,58,146,1,,,,
,,,,,,8612007c4eda4d4d471e4722,66a626ef09d4e21e1a8894ec,6737726643bef4be204bf0c1,2024-11-15_10h11.20.164,Tarea de género gramatical,2024.2.2,Win32,12.80409731,,,,,,,,,,,,,,,,,,,,,,,221.7653,222.7907,a,0,[],[],[],[],[],[],[],0.2809,0,222.7907,223.2565,,,,,,1195,FEM,DIS,150,grasa,el,a,0.2809,,223.2565,223.2565,0.239814815,-0.258333333,0,0,0,,0,59,59,294,1,,,,
,,,,,,8612007c4eda4d4d471e4722,66a626ef09d4e21e1a8894ec,6737726643bef4be204bf0c1,2024-11-15_10h11.20.164,Tarea de género gramatical,2024.2.2,Win32,12.80409731,,,,,,,,,,,,,,,,,,,,,,,223.2575,224.3117,a,1,[],[],[],[],[],[],[],0.2905,1,224.3124,224.7943,,,,,,1224,MAS,CON,150,cuarto,,l,0.2905,,224.7952,224.7967,0.239814815,-0.258333333,0,0,0,,0,60,60,323,1,,,,
,,,,,,8612007c4eda4d4d471e4722,66a626ef09d4e21e1a8894ec,6737726643bef4be204bf0c1,2024-11-15_10h11.20.164,Tarea de género gramatical,2024.2.2,Win32,12.80409731,,,,,,,,,,,,,,,,,,,,,,,224.7973,225.9376,a,0,[],[],[],[],[],[],[],0.3823,0,225.9383,226.4225,,,,,,1345,FEM,DIS,150,bondad,el,a,0.3823,,226.4226,226.4226,0.239814815,-0.258333333,0,0,0,,0,61,61,444,1,,,,
,,,,,,8612007c4eda4d4d471e4722,66a626ef09d4e21e1a8894ec,6737726643bef4be204bf0c1,2024-11-15_10h11.20.164,Tarea de género gramatical,2024.2.2,Win32,12.80409731,,,,,,,,,,,,,,,,,,,,,,,226.4235,228.5388,l,1,[],[],[],[],[],[],[],1.3567,1,228.5394,229.0254,,,,,,1178,FEM,AGR,150,presa,la,a,1.3567,,229.0254,229.0255,0.239814815,-0.258333333,0,0,0,,0,62,62,277,1,,,,
,,,,,,8612007c4eda4d4d471e4722,66a626ef09d4e21e1a8894ec,6737726643bef4be204bf0c1,2024-11-15_10h11.20.164,Tarea de género gramatical,2024.2.2,Win32,12.80409731,,,,,,,,,,,,,,,,,,,,,,,229.0263,229.8137,a,1,[],[],[],[],[],[],[],0.0081,1,229.8137,230.3147,,,,,,1338,MAS,CON,150,tanque,,l,0.0081,,230.3147,230.3148,0.239814815,-0.258333333,0,0,0,,0,63,63,437,1,,,,
,,,,,,8612007c4eda4d4d471e4722,66a626ef09d4e21e1a8894ec,6737726643bef4be204bf0c1,2024-11-15_10h11.20.164,Tarea de género gramatical,2024.2.2,Win32,12.80409731,,,,,,,,,,,,,,,,,,,,,,,230.3156,231.0757,a,1,[],[],[],[],[],[],[],0.0082,1,231.0757,231.5365,,,,,,1084,MAS,DIS,150,cielo,la,l,0.0082,0.0001,231.5365,231.5366,0.239814815,-0.258333333,0,0,0,,0,64,64,183,1,,,,
,,,,,,8612007c4eda4d4d471e4722,66a626ef09d4e21e1a8894ec,6737726643bef4be204bf0c1,2024-11-15_10h11.20.164,Tarea de género gramatical,2024.2.2,Win32,12.80409731,,,,,,,,,,,,,,,,,,,,,,,231.5375,234.1453,,0,[],[],[],[],[],[],[],0.0082,-1,234.1459,234.6199,,,,,,1093,FEM,DIS,150,bolsa,el,a,,,234.6207,234.6221,0.239814815,-0.258333333,0,0,0,,0,65,65,192,1,,,,
,,,,,,8612007c4eda4d4d471e4722,66a626ef09d4e21e1a8894ec,6737726643bef4be204bf0c1,2024-11-15_10h11.20.164,Tarea de género gramatical,2024.2.2,Win32,12.80409731,,,,,,,,,,,,,,,,,,,,,,,234.6228,235.6914,l,0,[],[],[],[],[],[],[],0.2945,0,235.6919,236.1844,,,,,,1144,MAS,DIS,150,hielo,la,l,0.2945,,236.1844,236.1845,0.239814815,-0.258333333,0,0,0,,0,66,66,243,1,,,,
,,,,,,8612007c4eda4d4d471e4722,66a626ef09d4e21e1a8894ec,6737726643bef4be204bf0c1,2024-11-15_10h11.20.164,Tarea de género gramatical,2024.2.2,Win32,12.80409731,,,,,,,,,,,,,,,,,,,,,,,236.1853,238.7699,,0,[],[],[],[],[],[],[],0.2945,-1,238.7706,239.2673,,,,,,1235,MAS,AGR,150,montón,el,l,,,239.2674,239.2675,0.239814815,-0.258333333,0,0,0,,0,67,67,334,1,,,,
,,,,,,8612007c4eda4d4d471e4722,66a626ef09d4e21e1a8894ec,6737726643bef4be204bf0c1,2024-11-15_10h11.20.164,Tarea de género gramatical,2024.2.2,Win32,12.80409731,,,,,,,,,,,,,,,,,,,,,,,239.2684,240.4377,l,1,[],[],[],[],[],[],[],0.4056,1,240.4382,240.9134,,,,,,1071,FEM,CON,150,mitad,,a,0.4056,,240.9134,240.9135,0.239814815,-0.258333333,0,0,0,,0,68,68,170,1,,,,
,,,,,,8612007c4eda4d4d471e4722,66a626ef09d4e21e1a8894ec,6737726643bef4be204bf0c1,2024-11-15_10h11.20.164,Tarea de género gramatical,2024.2.2,Win32,12.80409731,,,,,,,,,,,,,,,,,,,,,,,240.9144,242.0767,l,1,[],[],[],[],[],[],[],0.4061,1,242.0767,242.5558,,,,,,927,FEM,CON,150,mesa,,a,0.4061,,242.5565,242.5579,0.239814815,-0.258333333,0,0,0,,0,69,69,26,1,,,,
,,,,,,8612007c4eda4d4d471e4722,66a626ef09d4e21e1a8894ec,6737726643bef4be204bf0c1,2024-11-15_10h11.20.164,Tarea de género gramatical,2024.2.2,Win32,12.80409731,,,,,,,,,,,,,,,,,,,,,,,242.5585,243.6328,l,0,[],[],[],[],[],[],[],0.3122,0,243.6334,244.1199,,,,,,1090,MAS,DIS,150,campo,la,l,0.3122,0.0001,244.1199,244.12,0.239814815,-0.258333333,0,0,0,,0,70,70,189,1,,,,
,,,,,,8612007c4eda4d4d471e4722,66a626ef09d4e21e1a8894ec,6737726643bef4be204bf0c1,2024-11-15_10h11.20.164,Tarea de género gramatical,2024.2.2,Win32,12.80409731,,,,,,,,,,,,,,,,,,,,,,,244.1208,245.1506,l,1,[],[],[],[],[],[],[],0.2105,1,245.1512,245.6358,,,,,,1167,FEM,CON,150,barba,,a,0.2105,,245.6359,245.636,0.239814815,-0.258333333,0,0,0,,0,71,71,266,1,,,,
,,,,,,8612007c4eda4d4d471e4722,66a626ef09d4e21e1a8894ec,6737726643bef4be204bf0c1,2024-11-15_10h11.20.164,Tarea de género gramatical,2024.2.2,Win32,12.80409731,,,,,,,,,,,,,,,,,,,,,,,245.6368,246.6834,a,1,[],[],[],[],[],[],[],0.2878,1,246.6834,247.1672,,,,,,1264,MAS,DIS,150,viento,la,l,0.2878,,247.1672,247.1674,0.239814815,-0.258333333,0,0,0,,0,72,72,363,1,,,,
,,,,,,8612007c4eda4d4d471e4722,66a626ef09d4e21e1a8894ec,6737726643bef4be204bf0c1,2024-11-15_10h11.20.164,Tarea de género gramatical,2024.2.2,Win32,12.80409731,,,,,,,,,,,,,,,,,,,,,,,247.1681,248.2145,l,0,[],[],[],[],[],[],[],0.2943,0,248.215,248.6883,,,,,,1127,MAS,AGR,150,vuelo,el,l,0.2943,,248.6883,248.6885,0.239814815,-0.258333333,0,0,0,,0,73,73,226,1,,,,
,,,,,,8612007c4eda4d4d471e4722,66a626ef09d4e21e1a8894ec,6737726643bef4be204bf0c1,2024-11-15_10h11.20.164,Tarea de género gramatical,2024.2.2,Win32,12.80409731,,,,,,,,,,,,,,,,,,,,,,,248.6893,249.8626,l,0,[],[],[],[],[],[],[],0.4058,0,249.8627,250.3439,,,,,,1180,MAS,DIS,150,salón,la,l,0.4058,,250.3447,250.3462,0.239814815,-0.258333333,0,0,0,,0,74,74,279,1,,,,
,,,,,,8612007c4eda4d4d471e4722,66a626ef09d4e21e1a8894ec,6737726643bef4be204bf0c1,2024-11-15_10h11.20.164,Tarea de género gramatical,2024.2.2,Win32,12.80409731,,,,,,,,,,,,,,,,,,,,,,,250.3469,252.9555,,0,[],[],[],[],[],[],[],0.4058,-1,252.9562,253.4242,,,,,,1162,MAS,DIS,150,video,la,l,,,253.4242,253.4243,0.239814815,-0.258333333,0,0,0,,0,75,75,261,1,,,,
,,,,,,8612007c4eda4d4d471e4722,66a626ef09d4e21e1a8894ec,6737726643bef4be204bf0c1,2024-11-15_10h11.20.164,Tarea de género gramatical,2024.2.2,Win32,12.80409731,,,,,,,,,,,,,,,,,,,,,,,253.4251,256.0312,,0,[],[],[],[],[],[],[],0.4058,-1,256.0313,256.5092,,,,,,1155,FEM,CON,150,tribu,,a,,,256.5092,256.5093,0.239814815,-0.258333333,0,0,0,,0,76,76,254,1,,,,
,,,,,,8612007c4eda4d4d471e4722,66a626ef09d4e21e1a8894ec,6737726643bef4be204bf0c1,2024-11-15_10h11.20.164,Tarea de género gramatical,2024.2.2,Win32,12.80409731,,,,,,,,,,,,,,,,,,,,,,,256.51,257.6426,l,1,[],[],[],[],[],[],[],0.3921,1,257.6431,258.1259,,,,,,1340,FEM,AGR,150,patada,la,a,0.3921,,258.1259,258.126,0.239814815,-0.258333333,0,0,0,,0,77,77,439,1,,,,
,,,,,,8612007c4eda4d4d471e4722,66a626ef09d4e21e1a8894ec,6737726643bef4be204bf0c1,2024-11-15_10h11.20.164,Tarea de género gramatical,2024.2.2,Win32,12.80409731,,,,,,,,,,,,,,,,,,,,,,,258.127,259.378,a,1,[],[],[],[],[],[],[],0.4828,1,259.3781,259.8659,,,,,,959,MAS,AGR,150,lobo,el,l,0.4828,,259.8668,259.8682,0.239814815,-0.258333333,0,0,0,,0,78,78,58,1,,,,
,,,,,,8612007c4eda4d4d471e4722,66a626ef09d4e21e1a8894ec,6737726643bef4be204bf0c1,2024-11-15_10h11.20.164,Tarea de género gramatical,2024.2.2,Win32,12.80409731,,,,,,,,,,,,,,,,,,,,,,,259.8689,262.0838,a,0,[],[],[],[],[],[],[],1.4408,0,262.0844,262.5652,,,,,,1034,FEM,AGR,150,rama,la,a,1.4408,,262.5652,262.5654,0.239814815,-0.258333333,0,0,0,,0,79,79,133,1,,,,
,,,,,,8612007c4eda4d4d471e4722,66a626ef09d4e21e1a8894ec,6737726643bef4be204bf0c1,2024-11-15_10h11.20.164,Tarea de género gramatical,2024.2.2,Win32,12.80409731,,,,,,,,,,,,,,,,,,,,,,,262.5662,263.3574,l,0,[],[],[],[],[],[],[],0.0084,0,263.3575,263.8349,,,,,,1200,MAS,CON,150,túnel,,l,0.0084,,263.8349,263.835,0.239814815,-0.258333333,0,0,0,,0,80,80,299,1,,,,
,,,,,,8612007c4eda4d4d471e4722,66a626ef09d4e21e1a8894ec,6737726643bef4be204bf0c1,2024-11-15_10h11.20.164,Tarea de género gramatical,2024.2.2,Win32,12.80409731,,,,,,,,,,,,,,,,,,,,,,,263.8358,264.6171,l,1,[],[],[],[],[],[],[],0.0082,1,264.6178,265.0914,,,,,,1213,FEM,DIS,150,ciudad,el,a,0.0082,,265.0914,265.0915,0.239814815,-0.258333333,0,0,0,,0,81,81,312,1,,,,
,,,,,,8612007c4eda4d4d471e4722,66a626ef09d4e21e1a8894ec,6737726643bef4be204bf0c1,2024-11-15_10h11.20.164,Tarea de género gramatical,2024.2.2,Win32,12.80409731,,,,,,,,,,,,,,,,,,,,,,,265.0924,266.2458,l,0,[],[],[],[],[],[],[],0.3997,0,266.2464,266.7198,,,,,,1313,MAS,AGR,150,diario,el,l,0.3997,0,266.7199,266.7199,0.239814815,-0.258333333,0,0,0,,0,82,82,412,1,,,,
,,,,,,8612007c4eda4d4d471e4722,66a626ef09d4e21e1a8894ec,6737726643bef4be204bf0c1,2024-11-15_10h11.20.164,Tarea de género gramatical,2024.2.2,Win32,12.80409731,,,,,,,,,,,,,,,,,,,,,,,266.7207,269.3056,,0,[],[],[],[],[],[],[],0.3997,-1,269.3063,269.7966,,,,,,926,FEM,AGR,150,pena,la,a,,,269.7974,269.7989,0.239814815,-0.258333333,0,0,0,,0,83,83,25,1,,,,
,,,,,,8612007c4eda4d4d471e4722,66a626ef09d4e21e1a8894ec,6737726643bef4be204bf0c1,2024-11-15_10h11.20.164,Tarea de género gramatical,2024.2.2,Win32,12.80409731,,,,,,,,,,,,,,,,,,,,,,,269.7995,271.0457,l,1,[],[],[],[],[],[],[],0.4916,1,271.0463,271.5316,,,,,,956,FEM,AGR,150,bola,la,a,0.4916,0.0001,271.5316,271.5317,0.239814815,-0.258333333,0,0,0,,0,84,84,55,1,,,,
,,,,,,8612007c4eda4d4d471e4722,66a626ef09d4e21e1a8894ec,6737726643bef4be204bf0c1,2024-11-15_10h11.20.164,Tarea de género gramatical,2024.2.2,Win32,12.80409731,,,,,,,,,,,,,,,,,,,,,,,271.5325,274.1349,,0,[],[],[],[],[],[],[],0.4916,-1,274.1354,274.6176,,,,,,1173,FEM,CON,150,tarta,,a,,,274.6176,274.6178,0.239814815,-0.258333333,0,0,0,,0,85,85,272,1,,,,
,,,,,,8612007c4eda4d4d471e4722,66a626ef09d4e21e1a8894ec,6737726643bef4be204bf0c1,2024-11-15_10h11.20.164,Tarea de género gramatical,2024.2.2,Win32,12.80409731,,,,,,,,,,,,,,,,,,,,,,,274.6185,275.8669,l,1,[],[],[],[],[],[],[],0.4926,1,275.8676,276.3569,,,,,,903,FEM,CON,150,cosa,,a,0.4926,,276.3569,276.357,0.239814815,-0.258333333,0,0,0,,0,86,86,2,1,,,,
,,,,,,8612007c4eda4d4d471e4722,66a626ef09d4e21e1a8894ec,6737726643bef4be204bf0c1,2024-11-15_10h11.20.164,Tarea de género gramatical,2024.2.2,Win32,12.80409731,,,,,,,,,,,,,,,,,,,,,,,276.3578,277.501,l,0,[],[],[],[],[],[],[],0.3874,0,277.5017,277.9865,,,,,,1296,MAS,CON,150,tesoro,,l,0.3874,0.0002,277.9874,277.989,0.239814815,-0.258333333,0,0,0,,0,87,87,395,1,,,,
,,,,,,8612007c4eda4d4d471e4722,66a626ef09d4e21e1a8894ec,6737726643bef4be204bf0c1,2024-11-15_10h11.20.164,Tarea de género gramatical,2024.2.2,Win32,12.80409731,,,,,,,,,,,,,,,,,,,,,,,277.9898,279.1516,a,1,[],[],[],[],[],[],[],0.3968,1,279.1521,279.6242,,,,,,924,MAS,CON,150,voto,,l,0.3968,,279.6243,279.6243,0.239814815,-0.258333333,0,0,0,,0,88,88,23,1,,,,
,,,,,,8612007c4eda4d4d471e4722,66a626ef09d4e21e1a8894ec,6737726643bef4be204bf0c1,2024-11-15_10h11.20.164,Tarea de género gramatical,2024.2.2,Win32,12.80409731,,,,,,,,,,,,,,,,,,,,,,,279.625,282.2293,,0,[],[],[],[],[],[],[],0.3968,-1,282.23,282.7193,,,,,,994,MAS,DIS,150,cabo,la,l,,,282.7193,282.7193,0.239814815,-0.258333333,0,0,0,,0,89,89,93,1,,,,
,,,,,,8612007c4eda4d4d471e4722,66a626ef09d4e21e1a8894ec,6737726643bef4be204bf0c1,2024-11-15_10h11.20.164,Tarea de género gramatical,2024.2.2,Win32,12.80409731,,,,,,,,,,,,,,,,,,,,,,,282.7201,285.3163,,0,[],[],[],[],[],[],[],0.3968,-1,285.3164,285.7979,,,,,,1182,MAS,CON,150,bolso,,l,,,285.7979,285.7981,0.239814815,-0.258333333,0,0,0,,0,90,90,281,1,,,,
,,,,,,8612007c4eda4d4d471e4722,66a626ef09d4e21e1a8894ec,6737726643bef4be204bf0c1,2024-11-15_10h11.20.164,Tarea de género gramatical,2024.2.2,Win32,12.80409731,,,,,,,,,,,,,,,,,,,,,,,285.7988,286.96,l,1,[],[],[],[],[],[],[],0.4056,1,286.9606,287.4382,,,,,,991,FEM,DIS,150,hoja,el,a,0.4056,,287.4383,287.4384,0.239814815,-0.258333333,0,0,0,,0,91,91,90,1,,,,
,,,,,,8612007c4eda4d4d471e4722,66a626ef09d4e21e1a8894ec,6737726643bef4be204bf0c1,2024-11-15_10h11.20.164,Tarea de género gramatical,2024.2.2,Win32,12.80409731,,,,,,,,,,,,,,,,,,,,,,,287.4392,288.5819,l,1,[],[],[],[],[],[],[],0.395,1,288.582,289.0767,,,,,,999,FEM,CON,150,fase,,a,0.395,,289.0775,289.079,0.239814815,-0.258333333,0,0,0,,0,92,92,98,1,,,,
,,,,,,8612007c4eda4d4d471e4722,66a626ef09d4e21e1a8894ec,6737726643bef4be204bf0c1,2024-11-15_10h11.20.164,Tarea de género gramatical,2024.2.2,Win32,12.80409731,,,,,,,,,,,,,,,,,,,,,,,289.0797,290.2254,a,1,[],[],[],[],[],[],[],0.3855,1,290.2254,290.7045,,,,,,1265,MAS,AGR,150,código,el,l,0.3855,,290.7045,290.7046,0.239814815,-0.258333333,0,0,0,,0,93,93,364,1,,,,
,,,,,,8612007c4eda4d4d471e4722,66a626ef09d4e21e1a8894ec,6737726643bef4be204bf0c1,2024-11-15_10h11.20.164,Tarea de género gramatical,2024.2.2,Win32,12.80409731,,,,,,,,,,,,,,,,,,,,,,,290.7054,293.3766,,0,[],[],[],[],[],[],[],0.3855,-1,293.3773,293.8524,,,,,,1134,MAS,CON,150,héroe,,l,,,293.8524,293.8526,0.239814815,-0.258333333,0,0,0,,0,94,94,233,1,,,,
,,,,,,8612007c4eda4d4d471e4722,66a626ef09d4e21e1a8894ec,6737726643bef4be204bf0c1,2024-11-15_10h11.20.164,Tarea de género gramatical,2024.2.2,Win32,12.80409731,,,,,,,,,,,,,,,,,,,,,,,293.8533,296.4676,,0,[],[],[],[],[],[],[],0.3855,-1,296.4677,296.9328,,,,,,990,MAS,CON,150,león,,l,,,296.9328,296.9329,0.239814815,-0.258333333,0,0,0,,0,95,95,89,1,,,,
,,,,,,8612007c4eda4d4d471e4722,66a626ef09d4e21e1a8894ec,6737726643bef4be204bf0c1,2024-11-15_10h11.20.164,Tarea de género gramatical,2024.2.2,Win32,12.80409731,,,,,,,,,,,,,,,,,,,,,,,296.9336,299.5305,,0,[],[],[],[],[],[],[],0.3855,-1,299.5305,300.0145,,,,,,953,MAS,AGR,150,vaso,el,l,,,300.0153,300.0168,0.239814815,-0.258333333,0,0,0,,0,96,96,52,1,,,,
,,,,,,8612007c4eda4d4d471e4722,66a626ef09d4e21e1a8894ec,6737726643bef4be204bf0c1,2024-11-15_10h11.20.164,Tarea de género gramatical,2024.2.2,Win32,12.80409731,,,,,,,,,,,,,,,,,,,,,,,300.0176,301.3611,l,1,[],[],[],[],[],[],[],0.5968,1,301.3618,301.8351,,,,,,1033,FEM,DIS,150,joya,el,a,0.5968,,301.8351,301.8352,0.239814815,-0.258333333,0,0,0,,0,97,97,132,1,,,,
,,,,,,8612007c4eda4d4d471e4722,66a626ef09d4e21e1a8894ec,6737726643bef4be204bf0c1,2024-11-15_10h11.20.164,Tarea de género gramatical,2024.2.2,Win32,12.80409731,,,,,,,,,,,,,,,,,,,,,,,301.836,303.1626,l,1,[],[],[],[],[],[],[],0.56,1,303.1627,303.635,,,,,,1303,FEM,DIS,150,paliza,el,a,0.56,,303.6352,303.6352,0.239814815,-0.258333333,0,0,0,,0,98,98,402,1,,,,
,,,,,,8612007c4eda4d4d471e4722,66a626ef09d4e21e1a8894ec,6737726643bef4be204bf0c1,2024-11-15_10h11.20.164,Tarea de género gramatical,2024.2.2,Win32,12.80409731,,,,,,,,,,,,,,,,,,,,,,,303.636,304.7698,l,1,[],[],[],[],[],[],[],0.3784,1,304.7698,305.2516,,,,,,1046,FEM,AGR,150,lana,la,a,0.3784,,305.2516,305.2517,0.239814815,-0.258333333,0,0,0,,0,99,99,145,1,,,,
,,,,,,8612007c4eda4d4d471e4722,66a626ef09d4e21e1a8894ec,6737726643bef4be204bf0c1,2024-11-15_10h11.20.164,Tarea de género gramatical,2024.2.2,Win32,12.80409731,,,,,,,,,,,,,,,,,,,,,,,305.2525,306.3017,l,1,[],[],[],[],[],[],[],0.2953,1,306.3018,306.7775,,,,,,1095,FEM,CON,150,pared,,a,0.2953,,306.7775,306.7775,0.239814815,-0.258333333,0,0,0,,0,100,100,194,1,,,,
,,,,,,8612007c4eda4d4d471e4722,66a626ef09d4e21e1a8894ec,6737726643bef4be204bf0c1,2024-11-15_10h11.20.164,Tarea de género gramatical,2024.2.2,Win32,12.80409731,,,,,,,,,,,,,,,,,,,,,,,306.7783,307.8176,a,1,[],[],[],[],[],[],[],0.2841,1,307.8177,308.2879,,,,,,1120,MAS,DIS,150,huevo,la,l,0.2841,,308.2888,308.2901,0.239814815,-0.258333333,0,0,0,,0,101,101,219,1,,,,
,,,,,,8612007c4eda4d4d471e4722,66a626ef09d4e21e1a8894ec,6737726643bef4be204bf0c1,2024-11-15_10h11.20.164,Tarea de género gramatical,2024.2.2,Win32,12.80409731,,,,,,,,,,,,,,,,,,,,,,,308.2908,309.3479,l,0,[],[],[],[],[],[],[],0.2981,0,309.3485,309.838,,,,,,996,MAS,CON,150,pato,,l,0.2981,,309.8381,309.8381,0.239814815,-0.258333333,0,0,0,,0,102,102,95,1,,,,
,,,,,,8612007c4eda4d4d471e4722,66a626ef09d4e21e1a8894ec,6737726643bef4be204bf0c1,2024-11-15_10h11.20.164,Tarea de género gramatical,2024.2.2,Win32,12.80409731,,,,,,,,,,,,,,,,,,,,,,,309.8389,312.4335,,0,[],[],[],[],[],[],[],0.2981,-1,312.4341,312.916,,,,,,1146,MAS,CON,150,humor,,l,,,312.9161,312.9161,0.239814815,-0.258333333,0,0,0,,0,103,103,245,1,,,,
,,,,,,8612007c4eda4d4d471e4722,66a626ef09d4e21e1a8894ec,6737726643bef4be204bf0c1,2024-11-15_10h11.20.164,Tarea de género gramatical,2024.2.2,Win32,12.80409731,,,,,,,,,,,,,,,,,,,,,,,312.917,314.1494,l,1,[],[],[],[],[],[],[],0.4775,1,314.1501,314.6084,,,,,,1208,FEM,AGR,150,semana,la,a,0.4775,0.0002,314.6085,314.6085,0.239814815,-0.258333333,0,0,0,,0,104,104,307,1,,,,
,,,,,,8612007c4eda4d4d471e4722,66a626ef09d4e21e1a8894ec,6737726643bef4be204bf0c1,2024-11-15_10h11.20.164,Tarea de género gramatical,2024.2.2,Win32,12.80409731,,,,,,,,,,,,,,,,,,,,,,,314.6093,317.2186,,0,[],[],[],[],[],[],[],0.4775,-1,317.2192,317.696,,,,,,1177,FEM,DIS,150,plaza,el,a,,,317.6969,317.6984,0.239814815,-0.258333333,0,0,0,,0,105,105,276,1,,,,
,,,,,,8612007c4eda4d4d471e4722,66a626ef09d4e21e1a8894ec,6737726643bef4be204bf0c1,2024-11-15_10h11.20.164,Tarea de género gramatical,2024.2.2,Win32,12.80409731,,,,,,,,,,,,,,,,,,,,,,,317.699,318.8381,l,0,[],[],[],[],[],[],[],0.3946,0,318.8387,319.3344,,,,,,1350,MAS,CON,150,conejo,,l,0.3946,,319.3344,319.3345,0.239814815,-0.258333333,0,0,0,,0,106,106,449,1,,,,
,,,,,,8612007c4eda4d4d471e4722,66a626ef09d4e21e1a8894ec,6737726643bef4be204bf0c1,2024-11-15_10h11.20.164,Tarea de género gramatical,2024.2.2,Win32,12.80409731,,,,,,,,,,,,,,,,,,,,,,,319.3353,321.9261,,0,[],[],[],[],[],[],[],0.3946,-1,321.9267,322.4107,,,,,,1184,FEM,AGR,150,fruta,la,a,,,322.4108,322.4109,0.239814815,-0.258333333,0,0,0,,0,107,107,283,1,,,,
,,,,,,8612007c4eda4d4d471e4722,66a626ef09d4e21e1a8894ec,6737726643bef4be204bf0c1,2024-11-15_10h11.20.164,Tarea de género gramatical,2024.2.2,Win32,12.80409731,,,,,,,,,,,,,,,,,,,,,,,322.4117,323.6499,l,1,[],[],[],[],[],[],[],0.4838,1,323.6504,324.1186,,,,,,1291,FEM,DIS,150,altura,el,a,0.4838,,324.1186,324.1187,0.239814815,-0.258333333,0,0,0,,0,108,108,390,1,,,,
,,,,,,8612007c4eda4d4d471e4722,66a626ef09d4e21e1a8894ec,6737726643bef4be204bf0c1,2024-11-15_10h11.20.164,Tarea de género gramatical,2024.2.2,Win32,12.80409731,,,,,,,,,,,,,,,,,,,,,,,324.1196,326.7554,,0,[],[],[],[],[],[],[],0.4838,-1,326.756,327.2523,,,,,,1299,FEM,CON,150,charla,,a,,,327.2523,327.2524,0.239814815,-0.258333333,0,0,0,,0,109,109,398,1,,,,
,,,,,,8612007c4eda4d4d471e4722,66a626ef09d4e21e1a8894ec,6737726643bef4be204bf0c1,2024-11-15_10h11.20.164,Tarea de género gramatical,2024.2.2,Win32,12.80409731,,,,,,,,,,,,,,,,,,,,,,,327.2533,328.4117,l,0,[],[],[],[],[],[],[],0.4003,0,328.4124,328.8889,,,,,,1043,MAS,AGR,150,faro,el,l,0.4003,,328.8897,328.8912,0.239814815,-0.258333333,0,0,0,,0,110,110,142,1,,,,
,,,,,,8612007c4eda4d4d471e4722,66a626ef09d4e21e1a8894ec,6737726643bef4be204bf0c1,2024-11-15_10h11.20.164,Tarea de género gramatical,2024.2.2,Win32,12.80409731,,,,,,,,,,,,,,,,,,,,,,,328.8921,330.1093,l,0,[],[],[],[],[],[],[],0.4814,0,330.1094,330.5966,,,,,,929,MAS,AGR,150,frío,el,l,0.4814,,330.5967,330.5967,0.239814815,-0.258333333,0,0,0,,0,111,111,28,1,,,,
,,,,,,8612007c4eda4d4d471e4722,66a626ef09d4e21e1a8894ec,6737726643bef4be204bf0c1,2024-11-15_10h11.20.164,Tarea de género gramatical,2024.2.2,Win32,12.80409731,,,,,,,,,,,,,,,,,,,,,,,330.5976,333.212,,0,[],[],[],[],[],[],[],0.4814,-1,333.2126,333.709,,,,,,918,MAS,CON,150,tren,,l,,,333.709,333.709,0.239814815,-0.258333333,0,0,0,,0,112,112,17,1,,,,
,,,,,,8612007c4eda4d4d471e4722,66a626ef09d4e21e1a8894ec,6737726643bef4be204bf0c1,2024-11-15_10h11.20.164,Tarea de género gramatical,2024.2.2,Win32,12.80409731,,,,,,,,,,,,,,,,,,,,,,,333.7102,336.3287,,0,[],[],[],[],[],[],[],0.4814,-1,336.3288,336.7988,,,,,,1346,FEM,AGR,150,bañera,la,a,,,336.7988,336.7988,0.239814815,-0.258333333,0,0,0,,0,113,113,445,1,,,,
,,,,,,8612007c4eda4d4d471e4722,66a626ef09d4e21e1a8894ec,6737726643bef4be204bf0c1,2024-11-15_10h11.20.164,Tarea de género gramatical,2024.2.2,Win32,12.80409731,,,,,,,,,,,,,,,,,,,,,,,336.7997,337.948,l,0,[],[],[],[],[],[],[],0.3944,0,337.9486,338.4268,,,,,,1206,MAS,CON,150,dinero,,l,0.3944,,338.4277,338.4292,0.239814815,-0.258333333,0,0,0,,0,114,114,305,1,,,,
,,,,,,8612007c4eda4d4d471e4722,66a626ef09d4e21e1a8894ec,6737726643bef4be204bf0c1,2024-11-15_10h11.20.164,Tarea de género gramatical,2024.2.2,Win32,12.80409731,,,,,,,,,,,,,,,,,,,,,,,338.4298,341.093,,0,[],[],[],[],[],[],[],0.3944,-1,341.0937,341.586,,,,,,1049,MAS,AGR,150,nudo,el,l,,,341.586,341.586,0.239814815,-0.258333333,0,0,0,,0,115,115,148,1,,,,
,,,,,,8612007c4eda4d4d471e4722,66a626ef09d4e21e1a8894ec,6737726643bef4be204bf0c1,2024-11-15_10h11.20.164,Tarea de género gramatical,2024.2.2,Win32,12.80409731,,,,,,,,,,,,,,,,,,,,,,,341.5868,342.8191,a,1,[],[],[],[],[],[],[],0.4674,1,342.8196,343.29,,,,,,940,MAS,DIS,150,dios,la,l,0.4674,,343.29,343.29,0.239814815,-0.258333333,0,0,0,,0,116,116,39,1,,,,
,,,,,,8612007c4eda4d4d471e4722,66a626ef09d4e21e1a8894ec,6737726643bef4be204bf0c1,2024-11-15_10h11.20.164,Tarea de género gramatical,2024.2.2,Win32,12.80409731,,,,,,,,,,,,,,,,,,,,,,,343.2908,344.5496,a,0,[],[],[],[],[],[],[],0.4899,0,344.5502,345.0172,,,,,,931,FEM,DIS,150,edad,el,a,0.4899,0.0002,345.0172,345.0173,0.239814815,-0.258333333,0,0,0,,0,117,117,30,1,,,,
,,,,,,8612007c4eda4d4d471e4722,66a626ef09d4e21e1a8894ec,6737726643bef4be204bf0c1,2024-11-15_10h11.20.164,Tarea de género gramatical,2024.2.2,Win32,12.80409731,,,,,,,,,,,,,,,,,,,,,,,345.0181,346.1809,l,1,[],[],[],[],[],[],[],0.3967,1,346.1814,346.6629,,,,,,1220,FEM,AGR,150,fiesta,la,a,0.3967,,346.6629,346.663,0.239814815,-0.258333333,0,0,0,,0,118,118,319,1,,,,
,,,,,,8612007c4eda4d4d471e4722,66a626ef09d4e21e1a8894ec,6737726643bef4be204bf0c1,2024-11-15_10h11.20.164,Tarea de género gramatical,2024.2.2,Win32,12.80409731,,,,,,,,,,,,,,,,,,,,,,,346.664,347.7216,l,1,[],[],[],[],[],[],[],0.2963,1,347.7217,348.2071,,,,,,951,FEM,CON,150,bala,,a,0.2963,,348.208,348.2094,0.239814815,-0.258333333,0,0,0,,0,119,119,50,1,,,,
,,,,,,8612007c4eda4d4d471e4722,66a626ef09d4e21e1a8894ec,6737726643bef4be204bf0c1,2024-11-15_10h11.20.164,Tarea de género gramatical,2024.2.2,Win32,12.80409731,,,,,,,,,,,,,,,,,,,,,,,348.2101,350.8208,,0,[],[],[],[],[],[],[],0.2963,-1,350.8214,351.3201,,,,,,971,MAS,AGR,150,pozo,el,l,,,351.3201,351.3201,0.239814815,-0.258333333,0,0,0,,0,120,120,70,1,,,,
,,,,,,8612007c4eda4d4d471e4722,66a626ef09d4e21e1a8894ec,6737726643bef4be204bf0c1,2024-11-15_10h11.20.164,Tarea de género gramatical,2024.2.2,Win32,12.80409731,,,,,,,,,,,,,,,,,,,,,,,351.3209,353.9927,,0,[],[],[],[],[],[],[],0.2963,-1,353.9927,354.4804,,,,,,1161,FEM,CON,150,cueva,,a,,,354.4804,354.4805,0.239814815,-0.258333333,0,0,0,,0,121,121,260,1,,,,
,,,,,,8612007c4eda4d4d471e4722,66a626ef09d4e21e1a8894ec,6737726643bef4be204bf0c1,2024-11-15_10h11.20.164,Tarea de género gramatical,2024.2.2,Win32,12.80409731,,,,,,,,,,,,,,,,,,,,,,,354.4813,357.0755,,0,[],[],[],[],[],[],[],0.2963,-1,357.0755,357.5425,,,,,,995,MAS,AGR,150,tomo,el,l,,,357.5426,357.5427,0.239814815,-0.258333333,0,0,0,,0,122,122,94,1,,,,
,,,,,,8612007c4eda4d4d471e4722,66a626ef09d4e21e1a8894ec,6737726643bef4be204bf0c1,2024-11-15_10h11.20.164,Tarea de género gramatical,2024.2.2,Win32,12.80409731,,,,,,,,,,,,,,,,,,,,,,,357.5434,358.3154,l,1,[],[],[],[],[],[],[],0.0078,1,358.3161,358.7934,,,,,,907,FEM,DIS,150,hora,el,a,0.0078,,358.7943,358.7959,0.239814815,-0.258333333,0,0,0,,0,123,123,6,1,,,,
,,,,,,8612007c4eda4d4d471e4722,66a626ef09d4e21e1a8894ec,6737726643bef4be204bf0c1,2024-11-15_10h11.20.164,Tarea de género gramatical,2024.2.2,Win32,12.80409731,,,,,,,,,,,,,,,,,,,,,,,358.7966,360.0626,l,0,[],[],[],[],[],[],[],0.5105,0,360.0633,360.5353,,,,,,1336,MAS,DIS,150,objeto,la,l,0.5105,,360.5353,360.5353,0.239814815,-0.258333333,0,0,0,,0,124,124,435,1,,,,
,,,,,,8612007c4eda4d4d471e4722,66a626ef09d4e21e1a8894ec,6737726643bef4be204bf0c1,2024-11-15_10h11.20.164,Tarea de género gramatical,2024.2.2,Win32,12.80409731,,,,,,,,,,,,,,,,,,,,,,,360.5362,363.1284,,0,[],[],[],[],[],[],[],0.5105,-1,363.1291,363.6053,,,,,,1088,FEM,AGR,150,bomba,la,a,,,363.6053,363.6053,0.239814815,-0.258333333,0,0,0,,0,125,125,187,1,,,,
,,,,,,8612007c4eda4d4d471e4722,66a626ef09d4e21e1a8894ec,6737726643bef4be204bf0c1,2024-11-15_10h11.20.164,Tarea de género gramatical,2024.2.2,Win32,12.80409731,,,,,,,,,,,,,,,,,,,,,,,363.6061,364.64,l,0,[],[],[],[],[],[],[],0.2011,0,364.6406,365.125,,,,,,1271,MAS,AGR,150,sonido,el,l,0.2011,,365.1251,365.1252,0.239814815,-0.258333333,0,0,0,,0,126,126,370,1,,,,
,,,,,,8612007c4eda4d4d471e4722,66a626ef09d4e21e1a8894ec,6737726643bef4be204bf0c1,2024-11-15_10h11.20.164,Tarea de género gramatical,2024.2.2,Win32,12.80409731,,,,,,,,,,,,,,,,,,,,,,,365.1262,366.1826,l,1,[],[],[],[],[],[],[],0.2931,1,366.1831,366.674,,,,,,1190,FEM,AGR,150,cabra,la,a,0.2931,,366.6741,366.6741,0.239814815,-0.258333333,0,0,0,,0,127,127,289,1,,,,
,,,,,,8612007c4eda4d4d471e4722,66a626ef09d4e21e1a8894ec,6737726643bef4be204bf0c1,2024-11-15_10h11.20.164,Tarea de género gramatical,2024.2.2,Win32,12.80409731,,,,,,,,,,,,,,,,,,,,,,,366.6749,369.2676,,0,[],[],[],[],[],[],[],0.2931,-1,369.2682,369.7416,,,,,,1251,FEM,CON,150,espada,,a,,,369.7424,369.7437,0.239814815,-0.258333333,0,0,0,,0,128,128,350,1,,,,
,,,,,,8612007c4eda4d4d471e4722,66a626ef09d4e21e1a8894ec,6737726643bef4be204bf0c1,2024-11-15_10h11.20.164,Tarea de género gramatical,2024.2.2,Win32,12.80409731,,,,,,,,,,,,,,,,,,,,,,,369.7443,372.3855,,0,[],[],[],[],[],[],[],0.2931,-1,372.3856,372.8574,,,,,,1198,MAS,DIS,150,botón,la,l,,,372.8574,372.8575,0.239814815,-0.258333333,0,0,0,,0,129,129,297,1,,,,
,,,,,,8612007c4eda4d4d471e4722,66a626ef09d4e21e1a8894ec,6737726643bef4be204bf0c1,2024-11-15_10h11.20.164,Tarea de género gramatical,2024.2.2,Win32,12.80409731,,,,,,,,,,,,,,,,,,,,,,,372.8582,374.1054,a,1,[],[],[],[],[],[],[],0.4977,1,374.1061,374.5856,,,,,,983,MAS,AGR,150,nene,el,l,0.4977,,374.5856,374.5857,0.239814815,-0.258333333,0,0,0,,0,130,130,82,1,,,,
,,,,,,8612007c4eda4d4d471e4722,66a626ef09d4e21e1a8894ec,6737726643bef4be204bf0c1,2024-11-15_10h11.20.164,Tarea de género gramatical,2024.2.2,Win32,12.80409731,,,,,,,,,,,,,,,,,,,,,,,374.5865,377.2032,,0,[],[],[],[],[],[],[],0.4977,-1,377.2038,377.7018,,,,,,905,MAS,AGR,150,tipo,el,l,,,377.7018,377.7019,0.239814815,-0.258333333,0,0,0,,0,131,131,4,1,,,,
,,,,,,8612007c4eda4d4d471e4722,66a626ef09d4e21e1a8894ec,6737726643bef4be204bf0c1,2024-11-15_10h11.20.164,Tarea de género gramatical,2024.2.2,Win32,12.80409731,,,,,,,,,,,,,,,,,,,,,,,377.7027,380.328,,0,[],[],[],[],[],[],[],0.4977,-1,380.328,380.799,,,,,,1152,MAS,CON,150,viejo,,l,,,380.7998,380.8013,0.239814815,-0.258333333,0,0,0,,0,132,132,251,1,,,,
,,,,,,8612007c4eda4d4d471e4722,66a626ef09d4e21e1a8894ec,6737726643bef4be204bf0c1,2024-11-15_10h11.20.164,Tarea de género gramatical,2024.2.2,Win32,12.80409731,,,,,,,,,,,,,,,,,,,,,,,380.802,383.4336,,0,[],[],[],[],[],[],[],0.4977,-1,383.4337,383.9119,,,,,,934,MAS,DIS,150,gato,la,l,,,383.9119,383.9121,0.239814815,-0.258333333,0,0,0,,0,133,133,33,1,,,,
,,,,,,8612007c4eda4d4d471e4722,66a626ef09d4e21e1a8894ec,6737726643bef4be204bf0c1,2024-11-15_10h11.20.164,Tarea de género gramatical,2024.2.2,Win32,12.80409731,,,,,,,,,,,,,,,,,,,,,,,383.913,384.9667,l,0,[],[],[],[],[],[],[],0.2904,0,384.9672,385.4405,,,,,,977,MAS,AGR,150,pico,el,l,0.2904,,385.4405,385.4405,0.239814815,-0.258333333,0,0,0,,0,134,134,76,1,,,,
,,,,,,8612007c4eda4d4d471e4722,66a626ef09d4e21e1a8894ec,6737726643bef4be204bf0c1,2024-11-15_10h11.20.164,Tarea de género gramatical,2024.2.2,Win32,12.80409731,,,,,,,,,,,,,,,,,,,,,,,385.4413,386.6903,a,1,[],[],[],[],[],[],[],0.4897,1,386.691,387.1692,,,,,,1126,MAS,DIS,150,color,la,l,0.4897,,387.1693,387.1693,0.239814815,-0.258333333,0,0,0,,0,135,135,225,1,,,,
,,,,,,8612007c4eda4d4d471e4722,66a626ef09d4e21e1a8894ec,6737726643bef4be204bf0c1,2024-11-15_10h11.20.164,Tarea de género gramatical,2024.2.2,Win32,12.80409731,,,,,,,,,,,,,,,,,,,,,,,387.1702,389.7609,,0,[],[],[],[],[],[],[],0.4897,-1,389.7615,390.2398,,,,,,1314,MAS,CON,150,sótano,,l,,,390.2398,390.2399,0.239814815,-0.258333333,0,0,0,,0,136,136,413,1,,,,
,,,,,,8612007c4eda4d4d471e4722,66a626ef09d4e21e1a8894ec,6737726643bef4be204bf0c1,2024-11-15_10h11.20.164,Tarea de género gramatical,2024.2.2,Win32,12.80409731,,,,,,,,,,,,,,,,,,,,,,,390.2407,392.8781,,0,[],[],[],[],[],[],[],0.4897,-1,392.8781,393.3565,,,,,,1163,MAS,AGR,150,carro,el,l,,,393.3572,393.3587,0.239814815,-0.258333333,0,0,0,,0,137,137,262,1,,,,
,,,,,,8612007c4eda4d4d471e4722,66a626ef09d4e21e1a8894ec,6737726643bef4be204bf0c1,2024-11-15_10h11.20.164,Tarea de género gramatical,2024.2.2,Win32,12.80409731,,,,,,,,,,,,,,,,,,,,,,,393.3593,394.5004,a,1,[],[],[],[],[],[],[],0.3978,1,394.5009,394.9831,,,,,,941,MAS,AGR,150,bote,el,l,0.3978,,394.9831,394.9832,0.239814815,-0.258333333,0,0,0,,0,138,138,40,1,,,,
,,,,,,8612007c4eda4d4d471e4722,66a626ef09d4e21e1a8894ec,6737726643bef4be204bf0c1,2024-11-15_10h11.20.164,Tarea de género gramatical,2024.2.2,Win32,12.80409731,,,,,,,,,,,,,,,,,,,,,,,394.9845,397.6036,,0,[],[],[],[],[],[],[],0.3978,-1,397.6042,398.0729,,,,,,942,MAS,CON,150,show,,l,,,398.0729,398.0729,0.239814815,-0.258333333,0,0,0,,0,139,139,41,1,,,,
,,,,,,8612007c4eda4d4d471e4722,66a626ef09d4e21e1a8894ec,6737726643bef4be204bf0c1,2024-11-15_10h11.20.164,Tarea de género gramatical,2024.2.2,Win32,12.80409731,,,,,,,,,,,,,,,,,,,,,,,398.0737,399.2987,a,1,[],[],[],[],[],[],[],0.3889,1,399.2993,399.7806,,,,,,1284,MAS,CON,150,pedazo,,l,0.3889,,399.7807,399.7808,0.239814815,-0.258333333,0,0,0,,0,140,140,383,1,,,,
,,,,,,8612007c4eda4d4d471e4722,66a626ef09d4e21e1a8894ec,6737726643bef4be204bf0c1,2024-11-15_10h11.20.164,Tarea de género gramatical,2024.2.2,Win32,12.80409731,,,,,,,,,,,,,,,,,,,,,,,399.7817,402.3933,,0,[],[],[],[],[],[],[],0.3889,-1,402.3938,402.8854,,,,,,906,MAS,CON,150,lado,,l,,,402.8862,402.8876,0.239814815,-0.258333333,0,0,0,,0,141,141,5,1,,,,
,,,,,,8612007c4eda4d4d471e4722,66a626ef09d4e21e1a8894ec,6737726643bef4be204bf0c1,2024-11-15_10h11.20.164,Tarea de género gramatical,2024.2.2,Win32,12.80409731,,,,,,,,,,,,,,,,,,,,,,,402.8882,405.5675,,0,[],[],[],[],[],[],[],0.3889,-1,405.5676,406.0615,,,,,,1267,FEM,DIS,150,teoría,el,a,,,406.0615,406.0616,0.239814815,-0.258333333,0,0,0,,0,142,142,366,1,,,,
,,,,,,8612007c4eda4d4d471e4722,66a626ef09d4e21e1a8894ec,6737726643bef4be204bf0c1,2024-11-15_10h11.20.164,Tarea de género gramatical,2024.2.2,Win32,12.80409731,,,,,,,,,,,,,,,,,,,,,,,406.0625,407.2044,a,0,[],[],[],[],[],[],[],0.3897,0,407.205,407.695,,,,,,1201,FEM,DIS,150,verdad,el,a,0.3897,,407.695,407.6951,0.239814815,-0.258333333,0,0,0,,0,143,143,300,1,,,,
,,,,,,8612007c4eda4d4d471e4722,66a626ef09d4e21e1a8894ec,6737726643bef4be204bf0c1,2024-11-15_10h11.20.164,Tarea de género gramatical,2024.2.2,Win32,12.80409731,,,,,,,,,,,,,,,,,,,,,,,407.6959,408.9357,a,0,[],[],[],[],[],[],[],0.4769,0,408.9357,409.4113,,,,,,1341,FEM,CON,150,medida,,a,0.4769,0.0002,409.4114,409.4115,0.239814815,-0.258333333,0,0,0,,0,144,144,440,1,,,,
,,,,,,8612007c4eda4d4d471e4722,66a626ef09d4e21e1a8894ec,6737726643bef4be204bf0c1,2024-11-15_10h11.20.164,Tarea de género gramatical,2024.2.2,Win32,12.80409731,,,,,,,,,,,,,,,,,,,,,,,409.4122,412.0253,,0,[],[],[],[],[],[],[],0.4769,-1,412.026,412.4984,,,,,,1147,FEM,DIS,150,frase,el,a,,,412.4984,412.4985,0.239814815,-0.258333333,0,0,0,,0,145,145,246,1,,,,
,,,,,,8612007c4eda4d4d471e4722,66a626ef09d4e21e1a8894ec,6737726643bef4be204bf0c1,2024-11-15_10h11.20.164,Tarea de género gramatical,2024.2.2,Win32,12.80409731,,,,,,,,,,,,,,,,,,,,,,,412.4993,415.0934,,0,[],[],[],[],[],[],[],0.4769,-1,415.0934,415.5716,,,,,,1122,MAS,CON,150,valor,,l,,,415.5724,415.574,0.239814815,-0.258333333,0,0,0,,0,146,146,221,1,,,,
,,,,,,8612007c4eda4d4d471e4722,66a626ef09d4e21e1a8894ec,6737726643bef4be204bf0c1,2024-11-15_10h11.20.164,Tarea de género gramatical,2024.2.2,Win32,12.80409731,,,,,,,,,,,,,,,,,,,,,,,415.5746,416.82,a,0,[],[],[],[],[],[],[],0.4869,0,416.8206,417.2979,,,,,,1207,FEM,DIS,150,suerte,el,a,0.4869,,417.2979,417.2979,0.239814815,-0.258333333,0,0,0,,0,147,147,306,1,,,,
,,,,,,8612007c4eda4d4d471e4722,66a626ef09d4e21e1a8894ec,6737726643bef4be204bf0c1,2024-11-15_10h11.20.164,Tarea de género gramatical,2024.2.2,Win32,12.80409731,,,,,,,,,,,,,,,,,,,,,,,417.2988,418.7309,l,1,[],[],[],[],[],[],[],0.6705,1,418.7314,419.2204,,,,,,1076,FEM,AGR,150,línea,la,a,0.6705,,419.2204,419.2205,0.239814815,-0.258333333,0,0,0,,0,148,148,175,1,,,,
,,,,,,8612007c4eda4d4d471e4722,66a626ef09d4e21e1a8894ec,6737726643bef4be204bf0c1,2024-11-15_10h11.20.164,Tarea de género gramatical,2024.2.2,Win32,12.80409731,,,,,,,,,,,,,,,,,,,,,,,419.2214,420.4553,l,0,[],[],[],[],[],[],[],0.4755,0,420.4558,420.9308,,,,,,1054,MAS,DIS,150,padre,la,l,0.4755,,420.9309,420.931,0.239814815,-0.258333333,0,0,0,,0,149,149,153,1,,,,
,,,,,,8612007c4eda4d4d471e4722,66a626ef09d4e21e1a8894ec,6737726643bef4be204bf0c1,2024-11-15_10h11.20.164,Tarea de género gramatical,2024.2.2,Win32,12.80409731,,,,,,,,,,,,,,,,,,,,,,,420.9318,422.0794,l,1,[],[],[],[],[],[],[],0.3941,1,422.0801,422.5675,,,,,,1137,FEM,CON,150,ducha,,a,0.3941,,422.5685,427.0164,0.153703704,-0.212037037,0,0,0,space,0,150,150,236,1,4.3556,0.0002,,
,,,,,,8612007c4eda4d4d471e4722,66a626ef09d4e21e1a8894ec,6737726643bef4be204bf0c1,2024-11-15_10h11.20.164,Tarea de género gramatical,2024.2.2,Win32,12.80409731,,,,,,,,,,,,,,,,,,,,,,,427.0172,429.676,,0,[],[],[],[],[],[],[],0.3941,-1,429.6766,430.159,,,,,,933,FEM,CON,150,boda,,a,,,430.159,430.1591,0.152777778,-0.211111111,0,0,0,,0,151,151,32,1,,,,
,,,,,,8612007c4eda4d4d471e4722,66a626ef09d4e21e1a8894ec,6737726643bef4be204bf0c1,2024-11-15_10h11.20.164,Tarea de género gramatical,2024.2.2,Win32,12.80409731,,,,,,,,,,,,,,,,,,,,,,,430.1599,432.781,,0,[],[],[],[],[],[],[],0.3941,-1,432.7811,433.2697,,,,,,1215,FEM,CON,150,manera,,a,,,433.2697,433.2698,0.152777778,-0.211111111,0,0,0,,0,152,152,314,1,,,,
,,,,,,8612007c4eda4d4d471e4722,66a626ef09d4e21e1a8894ec,6737726643bef4be204bf0c1,2024-11-15_10h11.20.164,Tarea de género gramatical,2024.2.2,Win32,12.80409731,,,,,,,,,,,,,,,,,,,,,,,433.2706,434.509,l,1,[],[],[],[],[],[],[],0.4927,1,434.5096,434.989,,,,,,1197,FEM,CON,150,manta,,a,0.4927,,434.989,434.9891,0.152777778,-0.211111111,0,0,0,,0,153,153,296,1,,,,
,,,,,,8612007c4eda4d4d471e4722,66a626ef09d4e21e1a8894ec,6737726643bef4be204bf0c1,2024-11-15_10h11.20.164,Tarea de género gramatical,2024.2.2,Win32,12.80409731,,,,,,,,,,,,,,,,,,,,,,,434.9899,436.1152,l,1,[],[],[],[],[],[],[],0.3886,1,436.1152,436.5976,,,,,,1101,FEM,CON,150,leche,,a,0.3886,0.0001,436.5977,436.5978,0.152777778,-0.211111111,0,0,0,,0,154,154,200,1,,,,
,,,,,,8612007c4eda4d4d471e4722,66a626ef09d4e21e1a8894ec,6737726643bef4be204bf0c1,2024-11-15_10h11.20.164,Tarea de género gramatical,2024.2.2,Win32,12.80409731,,,,,,,,,,,,,,,,,,,,,,,436.5985,437.6558,l,0,[],[],[],[],[],[],[],0.2971,0,437.6564,438.1406,,,,,,1036,MAS,DIS,150,vago,la,l,0.2971,,438.1414,438.1428,0.152777778,-0.211111111,0,0,0,,0,155,155,135,1,,,,
,,,,,,8612007c4eda4d4d471e4722,66a626ef09d4e21e1a8894ec,6737726643bef4be204bf0c1,2024-11-15_10h11.20.164,Tarea de género gramatical,2024.2.2,Win32,12.80409731,,,,,,,,,,,,,,,,,,,,,,,438.1437,439.1092,a,1,[],[],[],[],[],[],[],0.2007,1,439.1098,439.6013,,,,,,1318,MAS,DIS,150,pájaro,la,l,0.2007,,439.6013,439.6014,0.152777778,-0.211111111,0,0,0,,0,156,156,417,1,,,,
,,,,,,8612007c4eda4d4d471e4722,66a626ef09d4e21e1a8894ec,6737726643bef4be204bf0c1,2024-11-15_10h11.20.164,Tarea de género gramatical,2024.2.2,Win32,12.80409731,,,,,,,,,,,,,,,,,,,,,,,439.6022,442.2094,,0,[],[],[],[],[],[],[],0.2007,-1,442.2099,442.6866,,,,,,1344,MAS,CON,150,límite,,l,,,442.6866,442.6867,0.152777778,-0.211111111,0,0,0,,0,157,157,443,1,,,,
,,,,,,8612007c4eda4d4d471e4722,66a626ef09d4e21e1a8894ec,6737726643bef4be204bf0c1,2024-11-15_10h11.20.164,Tarea de género gramatical,2024.2.2,Win32,12.80409731,,,,,,,,,,,,,,,,,,,,,,,442.6876,444.7243,a,1,[],[],[],[],[],[],[],1.2578,1,444.7249,445.2051,,,,,,910,MAS,DIS,150,niño,la,l,1.2578,,445.2052,445.2053,0.152777778,-0.211111111,0,0,0,,0,158,158,9,1,,,,
,,,,,,8612007c4eda4d4d471e4722,66a626ef09d4e21e1a8894ec,6737726643bef4be204bf0c1,2024-11-15_10h11.20.164,Tarea de género gramatical,2024.2.2,Win32,12.80409731,,,,,,,,,,,,,,,,,,,,,,,445.2062,446.0773,l,0,[],[],[],[],[],[],[],0.1125,0,446.0779,446.5567,,,,,,952,MAS,DIS,150,lago,la,l,0.1125,,446.5575,446.5589,0.152777778,-0.211111111,0,0,0,,0,159,159,51,1,,,,
,,,,,,8612007c4eda4d4d471e4722,66a626ef09d4e21e1a8894ec,6737726643bef4be204bf0c1,2024-11-15_10h11.20.164,Tarea de género gramatical,2024.2.2,Win32,12.80409731,,,,,,,,,,,,,,,,,,,,,,,446.5595,447.3375,l,0,[],[],[],[],[],[],[],0.0078,0,447.3376,447.8038,,,,,,1319,MAS,AGR,150,cuento,el,l,0.0078,0.0001,447.8039,447.8039,0.152777778,-0.211111111,0,0,0,,0,160,160,418,1,,,,
,,,,,,8612007c4eda4d4d471e4722,66a626ef09d4e21e1a8894ec,6737726643bef4be204bf0c1,2024-11-15_10h11.20.164,Tarea de género gramatical,2024.2.2,Win32,12.80409731,,,,,,,,,,,,,,,,,,,,,,,447.8047,449.168,l,0,[],[],[],[],[],[],[],0.5876,0,449.168,449.6569,,,,,,912,MAS,CON,150,plan,,l,0.5876,,449.657,449.6571,0.152777778,-0.211111111,0,0,0,,0,161,161,11,1,,,,
,,,,,,8612007c4eda4d4d471e4722,66a626ef09d4e21e1a8894ec,6737726643bef4be204bf0c1,2024-11-15_10h11.20.164,Tarea de género gramatical,2024.2.2,Win32,12.80409731,,,,,,,,,,,,,,,,,,,,,,,449.6579,450.6299,a,1,[],[],[],[],[],[],[],0.2,1,450.6305,451.1145,,,,,,1325,MAS,AGR,150,chiste,el,l,0.2,,451.1145,451.1145,0.152777778,-0.211111111,0,0,0,,0,162,162,424,1,,,,
,,,,,,8612007c4eda4d4d471e4722,66a626ef09d4e21e1a8894ec,6737726643bef4be204bf0c1,2024-11-15_10h11.20.164,Tarea de género gramatical,2024.2.2,Win32,12.80409731,,,,,,,,,,,,,,,,,,,,,,,451.1154,451.8945,a,1,[],[],[],[],[],[],[],0.0087,1,451.8945,452.3696,,,,,,1121,MAS,AGR,150,brazo,el,l,0.0087,,452.3696,452.3697,0.152777778,-0.211111111,0,0,0,,0,163,163,220,1,,,,
,,,,,,8612007c4eda4d4d471e4722,66a626ef09d4e21e1a8894ec,6737726643bef4be204bf0c1,2024-11-15_10h11.20.164,Tarea de género gramatical,2024.2.2,Win32,12.80409731,,,,,,,,,,,,,,,,,,,,,,,452.3705,453.1399,l,0,[],[],[],[],[],[],[],0.0083,0,453.1405,453.6193,,,,,,1133,MAS,AGR,150,golpe,el,l,0.0083,,453.6202,453.6219,0.152777778,-0.211111111,0,0,0,,0,164,164,232,1,,,,
,,,,,,8612007c4eda4d4d471e4722,66a626ef09d4e21e1a8894ec,6737726643bef4be204bf0c1,2024-11-15_10h11.20.164,Tarea de género gramatical,2024.2.2,Win32,12.80409731,,,,,,,,,,,,,,,,,,,,,,,453.6226,454.37,l,0,[],[],[],[],[],[],[],0.0084,0,454.3701,454.8485,,,,,,1080,MAS,CON,150,fuego,,l,0.0084,,454.8485,454.8486,0.152777778,-0.211111111,0,0,0,,0,165,165,179,1,,,,
,,,,,,8612007c4eda4d4d471e4722,66a626ef09d4e21e1a8894ec,6737726643bef4be204bf0c1,2024-11-15_10h11.20.164,Tarea de género gramatical,2024.2.2,Win32,12.80409731,,,,,,,,,,,,,,,,,,,,,,,454.8493,456.0138,l,0,[],[],[],[],[],[],[],0.4039,0,456.0139,456.4906,,,,,,1128,MAS,CON,150,nivel,,l,0.4039,,456.4906,456.4907,0.152777778,-0.211111111,0,0,0,,0,166,166,227,1,,,,
,,,,,,8612007c4eda4d4d471e4722,66a626ef09d4e21e1a8894ec,6737726643bef4be204bf0c1,2024-11-15_10h11.20.164,Tarea de género gramatical,2024.2.2,Win32,12.80409731,,,,,,,,,,,,,,,,,,,,,,,456.4916,457.3537,l,1,[],[],[],[],[],[],[],0.1088,1,457.3543,457.8306,,,,,,1149,FEM,CON,150,crema,,a,0.1088,,457.8306,457.8307,0.152777778,-0.211111111,0,0,0,,0,167,167,248,1,,,,
,,,,,,8612007c4eda4d4d471e4722,66a626ef09d4e21e1a8894ec,6737726643bef4be204bf0c1,2024-11-15_10h11.20.164,Tarea de género gramatical,2024.2.2,Win32,12.80409731,,,,,,,,,,,,,,,,,,,,,,,457.8314,458.8564,a,1,[],[],[],[],[],[],[],0.2027,1,458.8564,459.3383,,,,,,1320,MAS,CON,150,helado,,l,0.2027,0.0002,459.3391,459.3404,0.152777778,-0.211111111,0,0,0,,0,168,168,419,1,,,,
,,,,,,8612007c4eda4d4d471e4722,66a626ef09d4e21e1a8894ec,6737726643bef4be204bf0c1,2024-11-15_10h11.20.164,Tarea de género gramatical,2024.2.2,Win32,12.80409731,,,,,,,,,,,,,,,,,,,,,,,459.3411,460.4023,l,0,[],[],[],[],[],[],[],0.2987,0,460.4028,460.8811,,,,,,1312,MAS,DIS,150,espejo,la,l,0.2987,0,460.8812,460.8812,0.152777778,-0.211111111,0,0,0,,0,169,169,411,1,,,,
,,,,,,8612007c4eda4d4d471e4722,66a626ef09d4e21e1a8894ec,6737726643bef4be204bf0c1,2024-11-15_10h11.20.164,Tarea de género gramatical,2024.2.2,Win32,12.80409731,,,,,,,,,,,,,,,,,,,,,,,460.882,461.9312,l,0,[],[],[],[],[],[],[],0.292,0,461.9313,462.4351,,,,,,1331,MAS,AGR,150,veneno,el,l,0.292,,462.4352,462.4353,0.152777778,-0.211111111,0,0,0,,0,170,170,430,1,,,,
,,,,,,8612007c4eda4d4d471e4722,66a626ef09d4e21e1a8894ec,6737726643bef4be204bf0c1,2024-11-15_10h11.20.164,Tarea de género gramatical,2024.2.2,Win32,12.80409731,,,,,,,,,,,,,,,,,,,,,,,462.4362,464.0962,a,0,[],[],[],[],[],[],[],0.8863,0,464.0964,464.5628,,,,,,967,FEM,DIS,150,miel,el,a,0.8863,,464.5629,464.5629,0.152777778,-0.211111111,0,0,0,,0,171,171,66,1,,,,
,,,,,,8612007c4eda4d4d471e4722,66a626ef09d4e21e1a8894ec,6737726643bef4be204bf0c1,2024-11-15_10h11.20.164,Tarea de género gramatical,2024.2.2,Win32,12.80409731,,,,,,,,,,,,,,,,,,,,,,,464.5638,465.3361,a,0,[],[],[],[],[],[],[],0.0079,0,465.3361,465.8054,,,,,,993,FEM,CON,150,lata,,a,0.0079,,465.8054,465.8054,0.152777778,-0.211111111,0,0,0,,0,172,172,92,1,,,,
,,,,,,8612007c4eda4d4d471e4722,66a626ef09d4e21e1a8894ec,6737726643bef4be204bf0c1,2024-11-15_10h11.20.164,Tarea de género gramatical,2024.2.2,Win32,12.80409731,,,,,,,,,,,,,,,,,,,,,,,465.8063,466.5803,a,1,[],[],[],[],[],[],[],0.0081,1,466.581,467.0558,,,,,,1103,MAS,AGR,150,novio,el,l,0.0081,,467.0566,467.0581,0.152777778,-0.211111111,0,0,0,,0,173,173,202,1,,,,
,,,,,,8612007c4eda4d4d471e4722,66a626ef09d4e21e1a8894ec,6737726643bef4be204bf0c1,2024-11-15_10h11.20.164,Tarea de género gramatical,2024.2.2,Win32,12.80409731,,,,,,,,,,,,,,,,,,,,,,,467.0587,467.8457,l,1,[],[],[],[],[],[],[],0.0082,1,467.8458,468.316,,,,,,1135,FEM,DIS,150,torre,el,a,0.0082,,468.3162,468.3162,0.152777778,-0.211111111,0,0,0,,0,174,174,234,1,,,,
,,,,,,8612007c4eda4d4d471e4722,66a626ef09d4e21e1a8894ec,6737726643bef4be204bf0c1,2024-11-15_10h11.20.164,Tarea de género gramatical,2024.2.2,Win32,12.80409731,,,,,,,,,,,,,,,,,,,,,,,468.317,469.1728,l,0,[],[],[],[],[],[],[],0.109,0,469.1735,469.6623,,,,,,1342,MAS,DIS,150,cuadro,la,l,0.109,,469.6624,469.6625,0.152777778,-0.211111111,0,0,0,,0,175,175,441,1,,,,
,,,,,,8612007c4eda4d4d471e4722,66a626ef09d4e21e1a8894ec,6737726643bef4be204bf0c1,2024-11-15_10h11.20.164,Tarea de género gramatical,2024.2.2,Win32,12.80409731,,,,,,,,,,,,,,,,,,,,,,,469.6633,470.6528,l,1,[],[],[],[],[],[],[],0.205,1,470.6534,471.127,,,,,,909,FEM,CON,150,mamá,,a,0.205,,471.127,471.1271,0.152777778,-0.211111111,0,0,0,,0,176,176,8,1,,,,
,,,,,,8612007c4eda4d4d471e4722,66a626ef09d4e21e1a8894ec,6737726643bef4be204bf0c1,2024-11-15_10h11.20.164,Tarea de género gramatical,2024.2.2,Win32,12.80409731,,,,,,,,,,,,,,,,,,,,,,,471.1281,473.7404,,0,[],[],[],[],[],[],[],0.205,-1,473.7409,474.2267,,,,,,1130,FEM,AGR,150,regla,la,a,,,474.2274,474.2293,0.152777778,-0.211111111,0,0,0,,0,177,177,229,1,,,,
,,,,,,8612007c4eda4d4d471e4722,66a626ef09d4e21e1a8894ec,6737726643bef4be204bf0c1,2024-11-15_10h11.20.164,Tarea de género gramatical,2024.2.2,Win32,12.80409731,,,,,,,,,,,,,,,,,,,,,,,474.2299,476.3211,l,1,[],[],[],[],[],[],[],1.3286,1,476.3217,476.8052,,,,,,1231,FEM,DIS,150,cárcel,el,a,1.3286,,476.8052,476.8053,0.152777778,-0.211111111,0,0,0,,0,178,178,330,1,,,,
,,,,,,8612007c4eda4d4d471e4722,66a626ef09d4e21e1a8894ec,6737726643bef4be204bf0c1,2024-11-15_10h11.20.164,Tarea de género gramatical,2024.2.2,Win32,12.80409731,,,,,,,,,,,,,,,,,,,,,,,476.8062,477.964,l,0,[],[],[],[],[],[],[],0.4044,0,477.9646,478.4305,,,,,,1030,MAS,DIS,150,yate,la,l,0.4044,,478.4306,478.4306,0.152777778,-0.211111111,0,0,0,,0,179,179,129,1,,,,
,,,,,,8612007c4eda4d4d471e4722,66a626ef09d4e21e1a8894ec,6737726643bef4be204bf0c1,2024-11-15_10h11.20.164,Tarea de género gramatical,2024.2.2,Win32,12.80409731,,,,,,,,,,,,,,,,,,,,,,,478.4314,481.0578,,0,[],[],[],[],[],[],[],0.4044,-1,481.0584,481.5597,,,,,,1261,FEM,DIS,150,oferta,el,a,,,481.5598,481.5598,0.152777778,-0.211111111,0,0,0,,0,180,180,360,1,,,,
,,,,,,8612007c4eda4d4d471e4722,66a626ef09d4e21e1a8894ec,6737726643bef4be204bf0c1,2024-11-15_10h11.20.164,Tarea de género gramatical,2024.2.2,Win32,12.80409731,,,,,,,,,,,,,,,,,,,,,,,481.5606,482.3293,l,1,[],[],[],[],[],[],[],0.008,1,482.3299,482.8087,,,,,,1083,FEM,CON,150,llave,,a,0.008,,482.8088,482.8089,0.152777778,-0.211111111,0,0,0,,0,181,181,182,1,,,,
,,,,,,8612007c4eda4d4d471e4722,66a626ef09d4e21e1a8894ec,6737726643bef4be204bf0c1,2024-11-15_10h11.20.164,Tarea de género gramatical,2024.2.2,Win32,12.80409731,,,,,,,,,,,,,,,,,,,,,,,482.8098,484.5461,l,0,[],[],[],[],[],[],[],0.9617,0,484.5468,485.036,,,,,,1282,MAS,DIS,150,teatro,la,l,0.9617,,485.0368,485.0383,0.152777778,-0.211111111,0,0,0,,0,182,182,381,1,,,,
,,,,,,8612007c4eda4d4d471e4722,66a626ef09d4e21e1a8894ec,6737726643bef4be204bf0c1,2024-11-15_10h11.20.164,Tarea de género gramatical,2024.2.2,Win32,12.80409731,,,,,,,,,,,,,,,,,,,,,,,485.0389,485.8069,l,0,[],[],[],[],[],[],[],0.0083,0,485.807,486.2864,,,,,,1218,MAS,CON,150,pueblo,,l,0.0083,,486.2864,486.2866,0.152777778,-0.211111111,0,0,0,,0,183,183,317,1,,,,
,,,,,,8612007c4eda4d4d471e4722,66a626ef09d4e21e1a8894ec,6737726643bef4be204bf0c1,2024-11-15_10h11.20.164,Tarea de género gramatical,2024.2.2,Win32,12.80409731,,,,,,,,,,,,,,,,,,,,,,,486.2873,487.1618,a,0,[],[],[],[],[],[],[],0.1098,0,487.1618,487.6455,,,,,,1327,FEM,DIS,150,agenda,el,a,0.1098,,487.6455,487.6455,0.152777778,-0.211111111,0,0,0,,0,184,184,426,1,,,,
,,,,,,8612007c4eda4d4d471e4722,66a626ef09d4e21e1a8894ec,6737726643bef4be204bf0c1,2024-11-15_10h11.20.164,Tarea de género gramatical,2024.2.2,Win32,12.80409731,,,,,,,,,,,,,,,,,,,,,,,487.6465,488.4262,l,0,[],[],[],[],[],[],[],0.0082,0,488.4262,488.9107,,,,,,1289,MAS,AGR,150,tamaño,el,l,0.0082,,488.9108,488.9108,0.152777778,-0.211111111,0,0,0,,0,185,185,388,1,,,,
,,,,,,8612007c4eda4d4d471e4722,66a626ef09d4e21e1a8894ec,6737726643bef4be204bf0c1,2024-11-15_10h11.20.164,Tarea de género gramatical,2024.2.2,Win32,12.80409731,,,,,,,,,,,,,,,,,,,,,,,488.9116,489.784,a,1,[],[],[],[],[],[],[],0.1076,1,489.7845,490.2839,,,,,,1276,MAS,DIS,150,efecto,la,l,0.1076,,490.2847,490.2861,0.152777778,-0.211111111,0,0,0,,0,186,186,375,1,,,,
,,,,,,8612007c4eda4d4d471e4722,66a626ef09d4e21e1a8894ec,6737726643bef4be204bf0c1,2024-11-15_10h11.20.164,Tarea de género gramatical,2024.2.2,Win32,12.80409731,,,,,,,,,,,,,,,,,,,,,,,490.2867,491.3432,l,0,[],[],[],[],[],[],[],0.3094,0,491.3437,491.8175,,,,,,1001,MAS,AGR,150,giro,el,l,0.3094,,491.8176,491.8177,0.152777778,-0.211111111,0,0,0,,0,187,187,100,1,,,,
,,,,,,8612007c4eda4d4d471e4722,66a626ef09d4e21e1a8894ec,6737726643bef4be204bf0c1,2024-11-15_10h11.20.164,Tarea de género gramatical,2024.2.2,Win32,12.80409731,,,,,,,,,,,,,,,,,,,,,,,491.8185,494.4579,,0,[],[],[],[],[],[],[],0.3094,-1,494.4585,494.9464,,,,,,954,MAS,CON,150,humo,,l,,,494.9465,494.9466,0.152777778,-0.211111111,0,0,0,,0,188,188,53,1,,,,
,,,,,,8612007c4eda4d4d471e4722,66a626ef09d4e21e1a8894ec,6737726643bef4be204bf0c1,2024-11-15_10h11.20.164,Tarea de género gramatical,2024.2.2,Win32,12.80409731,,,,,,,,,,,,,,,,,,,,,,,494.9474,496.0988,l,1,[],[],[],[],[],[],[],0.4046,1,496.0993,496.5703,,,,,,1143,FEM,CON,150,salsa,,a,0.4046,,496.5703,496.5704,0.152777778,-0.211111111,0,0,0,,0,189,189,242,1,,,,
,,,,,,8612007c4eda4d4d471e4722,66a626ef09d4e21e1a8894ec,6737726643bef4be204bf0c1,2024-11-15_10h11.20.164,Tarea de género gramatical,2024.2.2,Win32,12.80409731,,,,,,,,,,,,,,,,,,,,,,,496.5713,497.6257,l,0,[],[],[],[],[],[],[],0.2936,0,497.6263,498.1101,,,,,,989,MAS,AGR,150,maíz,el,l,0.2936,,498.1102,498.1102,0.152777778,-0.211111111,0,0,0,,0,190,190,88,1,,,,
,,,,,,8612007c4eda4d4d471e4722,66a626ef09d4e21e1a8894ec,6737726643bef4be204bf0c1,2024-11-15_10h11.20.164,Tarea de género gramatical,2024.2.2,Win32,12.80409731,,,,,,,,,,,,,,,,,,,,,,,498.1111,500.6964,,0,[],[],[],[],[],[],[],0.2936,-1,500.697,501.1855,,,,,,948,MAS,CON,150,loco,,l,,,501.1863,501.1879,0.152777778,-0.211111111,0,0,0,,0,191,191,47,1,,,,
,,,,,,8612007c4eda4d4d471e4722,66a626ef09d4e21e1a8894ec,6737726643bef4be204bf0c1,2024-11-15_10h11.20.164,Tarea de género gramatical,2024.2.2,Win32,12.80409731,,,,,,,,,,,,,,,,,,,,,,,501.1888,502.3416,a,0,[],[],[],[],[],[],[],0.3866,0,502.3421,502.8062,,,,,,950,FEM,AGR,150,dama,la,a,0.3866,,502.8062,502.8063,0.152777778,-0.211111111,0,0,0,,0,192,192,49,1,,,,
,,,,,,8612007c4eda4d4d471e4722,66a626ef09d4e21e1a8894ec,6737726643bef4be204bf0c1,2024-11-15_10h11.20.164,Tarea de género gramatical,2024.2.2,Win32,12.80409731,,,,,,,,,,,,,,,,,,,,,,,502.8071,503.9712,a,0,[],[],[],[],[],[],[],0.4026,0,503.9713,504.4496,,,,,,1005,FEM,CON,150,jefa,,a,0.4026,,504.4496,504.4497,0.152777778,-0.211111111,0,0,0,,0,193,193,104,1,,,,
,,,,,,8612007c4eda4d4d471e4722,66a626ef09d4e21e1a8894ec,6737726643bef4be204bf0c1,2024-11-15_10h11.20.164,Tarea de género gramatical,2024.2.2,Win32,12.80409731,,,,,,,,,,,,,,,,,,,,,,,504.4505,505.5233,a,1,[],[],[],[],[],[],[],0.311,1,505.524,506.0116,,,,,,1301,MAS,AGR,150,abrigo,el,l,0.311,,506.0116,506.0116,0.152777778,-0.211111111,0,0,0,,0,194,194,400,1,,,,
,,,,,,8612007c4eda4d4d471e4722,66a626ef09d4e21e1a8894ec,6737726643bef4be204bf0c1,2024-11-15_10h11.20.164,Tarea de género gramatical,2024.2.2,Win32,12.80409731,,,,,,,,,,,,,,,,,,,,,,,506.0124,507.0703,l,0,[],[],[],[],[],[],[],0.295,0,507.0709,507.5496,,,,,,1216,MAS,DIS,150,cuerpo,la,l,0.295,,507.5504,507.5518,0.152777778,-0.211111111,0,0,0,,0,195,195,315,1,,,,
,,,,,,8612007c4eda4d4d471e4722,66a626ef09d4e21e1a8894ec,6737726643bef4be204bf0c1,2024-11-15_10h11.20.164,Tarea de género gramatical,2024.2.2,Win32,12.80409731,,,,,,,,,,,,,,,,,,,,,,,507.5524,508.7156,l,1,[],[],[],[],[],[],[],0.4109,1,508.7161,509.2018,,,,,,1118,FEM,AGR,150,nieve,la,a,0.4109,0.0001,509.2018,509.2019,0.152777778,-0.211111111,0,0,0,,0,196,196,217,1,,,,
,,,,,,8612007c4eda4d4d471e4722,66a626ef09d4e21e1a8894ec,6737726643bef4be204bf0c1,2024-11-15_10h11.20.164,Tarea de género gramatical,2024.2.2,Win32,12.80409731,,,,,,,,,,,,,,,,,,,,,,,509.2027,511.796,,0,[],[],[],[],[],[],[],0.4109,-1,511.7966,512.2847,,,,,,975,FEM,CON,150,caza,,a,,,512.2848,512.2848,0.152777778,-0.211111111,0,0,0,,0,197,197,74,1,,,,
,,,,,,8612007c4eda4d4d471e4722,66a626ef09d4e21e1a8894ec,6737726643bef4be204bf0c1,2024-11-15_10h11.20.164,Tarea de género gramatical,2024.2.2,Win32,12.80409731,,,,,,,,,,,,,,,,,,,,,,,512.2856,513.4506,a,1,[],[],[],[],[],[],[],0.407,1,513.4513,513.9236,,,,,,1230,MAS,CON,150,estado,,l,0.407,,513.9236,513.9236,0.152777778,-0.211111111,0,0,0,,0,198,198,329,1,,,,
,,,,,,8612007c4eda4d4d471e4722,66a626ef09d4e21e1a8894ec,6737726643bef4be204bf0c1,2024-11-15_10h11.20.164,Tarea de género gramatical,2024.2.2,Win32,12.80409731,,,,,,,,,,,,,,,,,,,,,,,513.9245,515.0602,l,1,[],[],[],[],[],[],[],0.3849,1,515.0603,515.5489,,,,,,1244,FEM,AGR,150,pareja,la,a,0.3849,,515.5489,515.549,0.152777778,-0.211111111,0,0,0,,0,199,199,343,1,,,,
,,,,,,8612007c4eda4d4d471e4722,66a626ef09d4e21e1a8894ec,6737726643bef4be204bf0c1,2024-11-15_10h11.20.164,Tarea de género gramatical,2024.2.2,Win32,12.80409731,,,,,,,,,,,,,,,,,,,,,,,515.5499,516.608,l,1,[],[],[],[],[],[],[],0.3051,1,516.6081,517.0908,,,,,,1107,FEM,CON,150,playa,,a,0.3051,,517.0916,517.093,0.152777778,-0.211111111,0,0,0,,0,200,200,206,1,,,,
,,,,,,8612007c4eda4d4d471e4722,66a626ef09d4e21e1a8894ec,6737726643bef4be204bf0c1,2024-11-15_10h11.20.164,Tarea de género gramatical,2024.2.2,Win32,12.80409731,,,,,,,,,,,,,,,,,,,,,,,517.0936,518.1371,l,0,[],[],[],[],[],[],[],0.2969,0,518.1377,518.6105,,,,,,1330,MAS,DIS,150,título,la,l,0.2969,,518.6106,518.6106,0.152777778,-0.211111111,0,0,0,,0,201,201,429,1,,,,
,,,,,,8612007c4eda4d4d471e4722,66a626ef09d4e21e1a8894ec,6737726643bef4be204bf0c1,2024-11-15_10h11.20.164,Tarea de género gramatical,2024.2.2,Win32,12.80409731,,,,,,,,,,,,,,,,,,,,,,,518.6114,519.7714,l,0,[],[],[],[],[],[],[],0.3962,0,519.7715,520.2659,,,,,,1002,MAS,CON,150,coro,,l,0.3962,0.0003,520.2659,520.266,0.152777778,-0.211111111,0,0,0,,0,202,202,101,1,,,,
,,,,,,8612007c4eda4d4d471e4722,66a626ef09d4e21e1a8894ec,6737726643bef4be204bf0c1,2024-11-15_10h11.20.164,Tarea de género gramatical,2024.2.2,Win32,12.80409731,,,,,,,,,,,,,,,,,,,,,,,520.2667,521.4131,a,1,[],[],[],[],[],[],[],0.3879,1,521.4137,521.8919,,,,,,1115,MAS,AGR,150,hueso,el,l,0.3879,,521.8919,521.8919,0.152777778,-0.211111111,0,0,0,,0,203,203,214,1,,,,
,,,,,,8612007c4eda4d4d471e4722,66a626ef09d4e21e1a8894ec,6737726643bef4be204bf0c1,2024-11-15_10h11.20.164,Tarea de género gramatical,2024.2.2,Win32,12.80409731,,,,,,,,,,,,,,,,,,,,,,,521.8929,523.0522,l,1,[],[],[],[],[],[],[],0.4039,1,523.0524,523.5362,,,,,,1189,FEM,DIS,150,tabla,el,a,0.4039,,523.5369,523.5383,0.152777778,-0.211111111,0,0,0,,0,204,204,288,1,,,,
,,,,,,8612007c4eda4d4d471e4722,66a626ef09d4e21e1a8894ec,6737726643bef4be204bf0c1,2024-11-15_10h11.20.164,Tarea de género gramatical,2024.2.2,Win32,12.80409731,,,,,,,,,,,,,,,,,,,,,,,523.5389,526.1427,,0,[],[],[],[],[],[],[],0.4039,-1,526.1433,526.6357,,,,,,1171,FEM,DIS,150,viuda,el,a,,,526.6357,526.6358,0.152777778,-0.211111111,0,0,0,,0,205,205,270,1,,,,
,,,,,,8612007c4eda4d4d471e4722,66a626ef09d4e21e1a8894ec,6737726643bef4be204bf0c1,2024-11-15_10h11.20.164,Tarea de género gramatical,2024.2.2,Win32,12.80409731,,,,,,,,,,,,,,,,,,,,,,,526.6366,527.9968,l,1,[],[],[],[],[],[],[],0.6002,1,527.9974,528.4695,,,,,,1160,FEM,AGR,150,barra,la,a,0.6002,0.0001,528.4695,528.4696,0.152777778,-0.211111111,0,0,0,,0,206,206,259,1,,,,
,,,,,,8612007c4eda4d4d471e4722,66a626ef09d4e21e1a8894ec,6737726643bef4be204bf0c1,2024-11-15_10h11.20.164,Tarea de género gramatical,2024.2.2,Win32,12.80409731,,,,,,,,,,,,,,,,,,,,,,,528.4707,529.5135,l,0,[],[],[],[],[],[],[],0.2928,0,529.5142,529.9972,,,,,,935,MAS,AGR,150,taxi,el,l,0.2928,,529.9973,529.9973,0.152777778,-0.211111111,0,0,0,,0,207,207,34,1,,,,
,,,,,,8612007c4eda4d4d471e4722,66a626ef09d4e21e1a8894ec,6737726643bef4be204bf0c1,2024-11-15_10h11.20.164,Tarea de género gramatical,2024.2.2,Win32,12.80409731,,,,,,,,,,,,,,,,,,,,,,,529.9982,531.1377,l,0,[],[],[],[],[],[],[],0.3949,0,531.1378,531.6195,,,,,,1072,MAS,DIS,150,poder,la,l,0.3949,0.0002,531.6196,531.6196,0.152777778,-0.211111111,0,0,0,,0,208,208,171,1,,,,
,,,,,,8612007c4eda4d4d471e4722,66a626ef09d4e21e1a8894ec,6737726643bef4be204bf0c1,2024-11-15_10h11.20.164,Tarea de género gramatical,2024.2.2,Win32,12.80409731,,,,,,,,,,,,,,,,,,,,,,,531.6204,534.2277,,0,[],[],[],[],[],[],[],0.3949,-1,534.2282,534.7171,,,,,,1156,MAS,DIS,150,techo,la,l,,,534.7179,534.7194,0.152777778,-0.211111111,0,0,0,,0,209,209,255,1,,,,
,,,,,,8612007c4eda4d4d471e4722,66a626ef09d4e21e1a8894ec,6737726643bef4be204bf0c1,2024-11-15_10h11.20.164,Tarea de género gramatical,2024.2.2,Win32,12.80409731,,,,,,,,,,,,,,,,,,,,,,,534.72,537.3697,,0,[],[],[],[],[],[],[],0.3949,-1,537.3698,537.8413,,,,,,1269,FEM,CON,150,camisa,,a,,,537.8413,537.8413,0.152777778,-0.211111111,0,0,0,,0,210,210,368,1,,,,
,,,,,,8612007c4eda4d4d471e4722,66a626ef09d4e21e1a8894ec,6737726643bef4be204bf0c1,2024-11-15_10h11.20.164,Tarea de género gramatical,2024.2.2,Win32,12.80409731,,,,,,,,,,,,,,,,,,,,,,,537.8422,539.0189,a,1,[],[],[],[],[],[],[],0.397,1,539.0193,539.5127,,,,,,1176,MAS,CON,150,ritmo,,l,0.397,,539.5128,539.5129,0.152777778,-0.211111111,0,0,0,,0,211,211,275,1,,,,
,,,,,,8612007c4eda4d4d471e4722,66a626ef09d4e21e1a8894ec,6737726643bef4be204bf0c1,2024-11-15_10h11.20.164,Tarea de género gramatical,2024.2.2,Win32,12.80409731,,,,,,,,,,,,,,,,,,,,,,,539.5138,540.6725,l,1,[],[],[],[],[],[],[],0.3953,1,540.6726,541.1575,,,,,,1009,FEM,DIS,150,gota,el,a,0.3953,,541.1576,541.1576,0.152777778,-0.211111111,0,0,0,,0,212,212,108,1,,,,
,,,,,,8612007c4eda4d4d471e4722,66a626ef09d4e21e1a8894ec,6737726643bef4be204bf0c1,2024-11-15_10h11.20.164,Tarea de género gramatical,2024.2.2,Win32,12.80409731,,,,,,,,,,,,,,,,,,,,,,,541.1584,542.3175,l,1,[],[],[],[],[],[],[],0.3989,1,542.3176,542.8087,,,,,,980,FEM,AGR,150,vaca,la,a,0.3989,,542.8096,542.8112,0.152777778,-0.211111111,0,0,0,,0,213,213,79,1,,,,
,,,,,,8612007c4eda4d4d471e4722,66a626ef09d4e21e1a8894ec,6737726643bef4be204bf0c1,2024-11-15_10h11.20.164,Tarea de género gramatical,2024.2.2,Win32,12.80409731,,,,,,,,,,,,,,,,,,,,,,,542.8118,544.0497,a,0,[],[],[],[],[],[],[],0.4814,0,544.0503,544.523,,,,,,913,FEM,DIS,150,hija,el,a,0.4814,,544.523,544.5231,0.152777778,-0.211111111,0,0,0,,0,214,214,12,1,,,,
,,,,,,8612007c4eda4d4d471e4722,66a626ef09d4e21e1a8894ec,6737726643bef4be204bf0c1,2024-11-15_10h11.20.164,Tarea de género gramatical,2024.2.2,Win32,12.80409731,,,,,,,,,,,,,,,,,,,,,,,544.5239,545.6596,l,1,[],[],[],[],[],[],[],0.3889,1,545.6602,546.1338,,,,,,1227,FEM,CON,150,tienda,,a,0.3889,0.0001,546.1339,546.1339,0.152777778,-0.211111111,0,0,0,,0,215,215,326,1,,,,
,,,,,,8612007c4eda4d4d471e4722,66a626ef09d4e21e1a8894ec,6737726643bef4be204bf0c1,2024-11-15_10h11.20.164,Tarea de género gramatical,2024.2.2,Win32,12.80409731,,,,,,,,,,,,,,,,,,,,,,,546.1347,547.1914,l,0,[],[],[],[],[],[],[],0.2949,0,547.1919,547.6627,,,,,,928,MAS,DIS,150,club,la,l,0.2949,,547.6628,547.6629,0.152777778,-0.211111111,0,0,0,,0,216,216,27,1,,,,
,,,,,,8612007c4eda4d4d471e4722,66a626ef09d4e21e1a8894ec,6737726643bef4be204bf0c1,2024-11-15_10h11.20.164,Tarea de género gramatical,2024.2.2,Win32,12.80409731,,,,,,,,,,,,,,,,,,,,,,,547.6637,548.7052,l,1,[],[],[],[],[],[],[],0.2915,1,548.7058,549.1747,,,,,,985,FEM,DIS,150,gira,el,a,0.2915,,549.1747,549.1748,0.152777778,-0.211111111,0,0,0,,0,217,217,84,1,,,,
,,,,,,8612007c4eda4d4d471e4722,66a626ef09d4e21e1a8894ec,6737726643bef4be204bf0c1,2024-11-15_10h11.20.164,Tarea de género gramatical,2024.2.2,Win32,12.80409731,,,,,,,,,,,,,,,,,,,,,,,549.1756,551.7769,,0,[],[],[],[],[],[],[],0.2915,-1,551.7774,552.2397,,,,,,966,MAS,CON,150,muro,,l,,,552.2405,552.2419,0.152777778,-0.211111111,0,0,0,,0,218,218,65,1,,,,
,,,,,,8612007c4eda4d4d471e4722,66a626ef09d4e21e1a8894ec,6737726643bef4be204bf0c1,2024-11-15_10h11.20.164,Tarea de género gramatical,2024.2.2,Win32,12.80409731,,,,,,,,,,,,,,,,,,,,,,,552.2425,554.9052,,0,[],[],[],[],[],[],[],0.2915,-1,554.9053,555.394,,,,,,943,FEM,DIS,150,nena,el,a,,,555.3941,555.3941,0.152777778,-0.211111111,0,0,0,,0,219,219,42,1,,,,
,,,,,,8612007c4eda4d4d471e4722,66a626ef09d4e21e1a8894ec,6737726643bef4be204bf0c1,2024-11-15_10h11.20.164,Tarea de género gramatical,2024.2.2,Win32,12.80409731,,,,,,,,,,,,,,,,,,,,,,,555.3949,556.6273,l,1,[],[],[],[],[],[],[],0.4909,1,556.6281,557.0993,,,,,,1087,FEM,DIS,150,lista,el,a,0.4909,,557.0994,557.0994,0.152777778,-0.211111111,0,0,0,,0,220,220,186,1,,,,
,,,,,,8612007c4eda4d4d471e4722,66a626ef09d4e21e1a8894ec,6737726643bef4be204bf0c1,2024-11-15_10h11.20.164,Tarea de género gramatical,2024.2.2,Win32,12.80409731,,,,,,,,,,,,,,,,,,,,,,,557.1002,558.5392,l,1,[],[],[],[],[],[],[],0.6926,1,558.5392,558.996,,,,,,1233,FEM,CON,150,locura,,a,0.6926,,558.996,558.9961,0.152777778,-0.211111111,0,0,0,,0,221,221,332,1,,,,
,,,,,,8612007c4eda4d4d471e4722,66a626ef09d4e21e1a8894ec,6737726643bef4be204bf0c1,2024-11-15_10h11.20.164,Tarea de género gramatical,2024.2.2,Win32,12.80409731,,,,,,,,,,,,,,,,,,,,,,,558.9967,560.0467,l,1,[],[],[],[],[],[],[],0.2901,1,560.0468,560.5159,,,,,,1011,FEM,CON,150,goma,,a,0.2901,,560.5167,560.5181,0.152777778,-0.211111111,0,0,0,,0,222,222,110,1,,,,
,,,,,,8612007c4eda4d4d471e4722,66a626ef09d4e21e1a8894ec,6737726643bef4be204bf0c1,2024-11-15_10h11.20.164,Tarea de género gramatical,2024.2.2,Win32,12.80409731,,,,,,,,,,,,,,,,,,,,,,,560.5187,563.1059,,0,[],[],[],[],[],[],[],0.2901,-1,563.1065,563.5938,,,,,,1234,MAS,DIS,150,ataque,la,l,,,563.5938,563.5938,0.152777778,-0.211111111,0,0,0,,0,223,223,333,1,,,,
,,,,,,8612007c4eda4d4d471e4722,66a626ef09d4e21e1a8894ec,6737726643bef4be204bf0c1,2024-11-15_10h11.20.164,Tarea de género gramatical,2024.2.2,Win32,12.80409731,,,,,,,,,,,,,,,,,,,,,,,563.5947,564.7385,l,1,[],[],[],[],[],[],[],0.3797,1,564.7391,565.202,,,,,,1317,FEM,CON,150,cabaña,,a,0.3797,,565.2021,565.2021,0.152777778,-0.211111111,0,0,0,,0,224,224,416,1,,,,
,,,,,,8612007c4eda4d4d471e4722,66a626ef09d4e21e1a8894ec,6737726643bef4be204bf0c1,2024-11-15_10h11.20.164,Tarea de género gramatical,2024.2.2,Win32,12.80409731,,,,,,,,,,,,,,,,,,,,,,,565.2029,566.4403,l,1,[],[],[],[],[],[],[],0.4638,1,566.4404,566.9122,,,,,,1225,FEM,DIS,150,tierra,el,a,0.4638,,566.9123,566.9123,0.152777778,-0.211111111,0,0,0,,0,225,225,324,1,,,,
,,,,,,8612007c4eda4d4d471e4722,66a626ef09d4e21e1a8894ec,6737726643bef4be204bf0c1,2024-11-15_10h11.20.164,Tarea de género gramatical,2024.2.2,Win32,12.80409731,,,,,,,,,,,,,,,,,,,,,,,566.9131,568.0537,l,1,[],[],[],[],[],[],[],0.3777,1,568.0538,568.5187,,,,,,1131,FEM,CON,150,bruja,,a,0.3777,,568.5187,568.5189,0.152777778,-0.211111111,0,0,0,,0,226,226,230,1,,,,
,,,,,,8612007c4eda4d4d471e4722,66a626ef09d4e21e1a8894ec,6737726643bef4be204bf0c1,2024-11-15_10h11.20.164,Tarea de género gramatical,2024.2.2,Win32,12.80409731,,,,,,,,,,,,,,,,,,,,,,,568.5197,571.1121,,0,[],[],[],[],[],[],[],0.3777,-1,571.1126,571.5951,,,,,,902,FEM,AGR,150,vida,la,a,,,571.5958,571.5974,0.152777778,-0.211111111,0,0,0,,0,227,227,1,1,,,,
,,,,,,8612007c4eda4d4d471e4722,66a626ef09d4e21e1a8894ec,6737726643bef4be204bf0c1,2024-11-15_10h11.20.164,Tarea de género gramatical,2024.2.2,Win32,12.80409731,,,,,,,,,,,,,,,,,,,,,,,571.5982,573.0222,l,0,[],[],[],[],[],[],[],0.6664,0,573.0228,573.4926,,,,,,1324,MAS,DIS,150,rastro,la,l,0.6664,,573.4926,573.4926,0.152777778,-0.211111111,0,0,0,,0,228,228,423,1,,,,
,,,,,,8612007c4eda4d4d471e4722,66a626ef09d4e21e1a8894ec,6737726643bef4be204bf0c1,2024-11-15_10h11.20.164,Tarea de género gramatical,2024.2.2,Win32,12.80409731,,,,,,,,,,,,,,,,,,,,,,,573.4935,574.7471,l,1,[],[],[],[],[],[],[],0.4985,1,574.7477,575.221,,,,,,962,FEM,AGR,150,sopa,la,a,0.4985,,575.2211,575.2212,0.152777778,-0.211111111,0,0,0,,0,229,229,61,1,,,,
,,,,,,8612007c4eda4d4d471e4722,66a626ef09d4e21e1a8894ec,6737726643bef4be204bf0c1,2024-11-15_10h11.20.164,Tarea de género gramatical,2024.2.2,Win32,12.80409731,,,,,,,,,,,,,,,,,,,,,,,575.222,577.8328,,0,[],[],[],[],[],[],[],0.4985,-1,577.8334,578.3228,,,,,,965,MAS,AGR,150,rayo,el,l,,,578.3229,578.3229,0.152777778,-0.211111111,0,0,0,,0,230,230,64,1,,,,
,,,,,,8612007c4eda4d4d471e4722,66a626ef09d4e21e1a8894ec,6737726643bef4be204bf0c1,2024-11-15_10h11.20.164,Tarea de género gramatical,2024.2.2,Win32,12.80409731,,,,,,,,,,,,,,,,,,,,,,,578.3237,580.9667,,0,[],[],[],[],[],[],[],0.4985,-1,580.9667,581.4257,,,,,,1240,MAS,DIS,150,pasado,la,l,,,581.4265,581.428,0.152777778,-0.211111111,0,0,0,,0,231,231,339,1,,,,
,,,,,,8612007c4eda4d4d471e4722,66a626ef09d4e21e1a8894ec,6737726643bef4be204bf0c1,2024-11-15_10h11.20.164,Tarea de género gramatical,2024.2.2,Win32,12.80409731,,,,,,,,,,,,,,,,,,,,,,,581.4286,584.0215,,0,[],[],[],[],[],[],[],0.4985,-1,584.0216,584.5227,,,,,,1175,MAS,AGR,150,disco,el,l,,,584.5227,584.5228,0.152777778,-0.211111111,0,0,0,,0,232,232,274,1,,,,
,,,,,,8612007c4eda4d4d471e4722,66a626ef09d4e21e1a8894ec,6737726643bef4be204bf0c1,2024-11-15_10h11.20.164,Tarea de género gramatical,2024.2.2,Win32,12.80409731,,,,,,,,,,,,,,,,,,,,,,,584.5236,585.6581,l,0,[],[],[],[],[],[],[],0.3841,0,585.6587,586.1399,,,,,,1000,MAS,DIS,150,nido,la,l,0.3841,,586.14,586.14,0.152777778,-0.211111111,0,0,0,,0,233,233,99,1,,,,
,,,,,,8612007c4eda4d4d471e4722,66a626ef09d4e21e1a8894ec,6737726643bef4be204bf0c1,2024-11-15_10h11.20.164,Tarea de género gramatical,2024.2.2,Win32,12.80409731,,,,,,,,,,,,,,,,,,,,,,,586.1409,588.7318,,0,[],[],[],[],[],[],[],0.3841,-1,588.7323,589.2052,,,,,,1078,MAS,DIS,150,punto,la,l,,,589.2052,589.2054,0.152777778,-0.211111111,0,0,0,,0,234,234,177,1,,,,
,,,,,,8612007c4eda4d4d471e4722,66a626ef09d4e21e1a8894ec,6737726643bef4be204bf0c1,2024-11-15_10h11.20.164,Tarea de género gramatical,2024.2.2,Win32,12.80409731,,,,,,,,,,,,,,,,,,,,,,,589.2064,590.354,l,1,[],[],[],[],[],[],[],0.3926,1,590.3545,590.8485,,,,,,1285,FEM,DIS,150,muñeca,el,a,0.3926,,590.8485,590.8485,0.152777778,-0.211111111,0,0,0,,0,235,235,384,1,,,,
,,,,,,8612007c4eda4d4d471e4722,66a626ef09d4e21e1a8894ec,6737726643bef4be204bf0c1,2024-11-15_10h11.20.164,Tarea de género gramatical,2024.2.2,Win32,12.80409731,,,,,,,,,,,,,,,,,,,,,,,590.8494,592.6082,a,0,[],[],[],[],[],[],[],0.9979,0,592.6088,593.0958,,,,,,1058,FEM,AGR,150,chica,la,a,0.9979,,593.0966,593.0981,0.152777778,-0.211111111,0,0,0,,0,236,236,157,1,,,,
,,,,,,8612007c4eda4d4d471e4722,66a626ef09d4e21e1a8894ec,6737726643bef4be204bf0c1,2024-11-15_10h11.20.164,Tarea de género gramatical,2024.2.2,Win32,12.80409731,,,,,,,,,,,,,,,,,,,,,,,593.0987,593.867,l,0,[],[],[],[],[],[],[],0.0081,0,593.8671,594.3587,,,,,,1349,MAS,AGR,150,payaso,el,l,0.0081,,594.3588,594.3588,0.152777778,-0.211111111,0,0,0,,0,237,237,448,1,,,,
,,,,,,8612007c4eda4d4d471e4722,66a626ef09d4e21e1a8894ec,6737726643bef4be204bf0c1,2024-11-15_10h11.20.164,Tarea de género gramatical,2024.2.2,Win32,12.80409731,,,,,,,,,,,,,,,,,,,,,,,594.3596,595.4215,l,0,[],[],[],[],[],[],[],0.3059,0,595.4216,595.8834,,,,,,1212,MAS,CON,150,equipo,,l,0.3059,,595.8835,595.8835,0.152777778,-0.211111111,0,0,0,,0,238,238,311,1,,,,
,,,,,,8612007c4eda4d4d471e4722,66a626ef09d4e21e1a8894ec,6737726643bef4be204bf0c1,2024-11-15_10h11.20.164,Tarea de género gramatical,2024.2.2,Win32,12.80409731,,,,,,,,,,,,,,,,,,,,,,,595.8843,596.9536,l,1,[],[],[],[],[],[],[],0.3094,1,596.9541,597.4625,,,,,,1323,FEM,CON,150,poesía,,a,0.3094,,597.4625,597.4627,0.152777778,-0.211111111,0,0,0,,0,239,239,422,1,,,,
,,,,,,8612007c4eda4d4d471e4722,66a626ef09d4e21e1a8894ec,6737726643bef4be204bf0c1,2024-11-15_10h11.20.164,Tarea de género gramatical,2024.2.2,Win32,12.80409731,,,,,,,,,,,,,,,,,,,,,,,597.4635,598.5224,l,0,[],[],[],[],[],[],[],0.2974,0,598.5231,598.9916,,,,,,978,MAS,CON,150,oído,,l,0.2974,,598.9924,598.9939,0.152777778,-0.211111111,0,0,0,,0,240,240,77,1,,,,
,,,,,,8612007c4eda4d4d471e4722,66a626ef09d4e21e1a8894ec,6737726643bef4be204bf0c1,2024-11-15_10h11.20.164,Tarea de género gramatical,2024.2.2,Win32,12.80409731,,,,,,,,,,,,,,,,,,,,,,,598.9946,601.5882,,0,[],[],[],[],[],[],[],0.2974,-1,601.5888,602.0572,,,,,,1193,MAS,AGR,150,patio,el,l,,,602.0572,602.0573,0.152777778,-0.211111111,0,0,0,,0,241,241,292,1,,,,
,,,,,,8612007c4eda4d4d471e4722,66a626ef09d4e21e1a8894ec,6737726643bef4be204bf0c1,2024-11-15_10h11.20.164,Tarea de género gramatical,2024.2.2,Win32,12.80409731,,,,,,,,,,,,,,,,,,,,,,,602.0583,604.6461,,0,[],[],[],[],[],[],[],0.2974,-1,604.6462,605.1256,,,,,,1045,FEM,DIS,150,bota,el,a,,,605.1257,605.1257,0.152777778,-0.211111111,0,0,0,,0,242,242,144,1,,,,
,,,,,,8612007c4eda4d4d471e4722,66a626ef09d4e21e1a8894ec,6737726643bef4be204bf0c1,2024-11-15_10h11.20.164,Tarea de género gramatical,2024.2.2,Win32,12.80409731,,,,,,,,,,,,,,,,,,,,,,,605.1265,606.489,l,1,[],[],[],[],[],[],[],0.6018,1,606.4897,606.965,,,,,,1063,FEM,DIS,150,calle,el,a,0.6018,,606.965,606.9652,0.152777778,-0.211111111,0,0,0,,0,243,243,162,1,,,,
,,,,,,8612007c4eda4d4d471e4722,66a626ef09d4e21e1a8894ec,6737726643bef4be204bf0c1,2024-11-15_10h11.20.164,Tarea de género gramatical,2024.2.2,Win32,12.80409731,,,,,,,,,,,,,,,,,,,,,,,606.966,608.2172,l,0,[],[],[],[],[],[],[],0.4919,0,608.2177,608.7206,,,,,,964,MAS,DIS,150,saco,la,l,0.4919,,608.7207,608.7207,0.152777778,-0.211111111,0,0,0,,0,244,244,63,1,,,,
,,,,,,8612007c4eda4d4d471e4722,66a626ef09d4e21e1a8894ec,6737726643bef4be204bf0c1,2024-11-15_10h11.20.164,Tarea de género gramatical,2024.2.2,Win32,12.80409731,,,,,,,,,,,,,,,,,,,,,,,608.7216,611.3045,,0,[],[],[],[],[],[],[],0.4919,-1,611.3052,611.7843,,,,,,916,MAS,DIS,150,baño,la,l,,,611.7852,611.787,0.152777778,-0.211111111,0,0,0,,0,245,245,15,1,,,,
,,,,,,8612007c4eda4d4d471e4722,66a626ef09d4e21e1a8894ec,6737726643bef4be204bf0c1,2024-11-15_10h11.20.164,Tarea de género gramatical,2024.2.2,Win32,12.80409731,,,,,,,,,,,,,,,,,,,,,,,611.7877,612.9443,l,1,[],[],[],[],[],[],[],0.3892,1,612.9449,613.4201,,,,,,1339,FEM,DIS,150,toalla,el,a,0.3892,,613.4201,613.4201,0.152777778,-0.211111111,0,0,0,,0,246,246,438,1,,,,
,,,,,,8612007c4eda4d4d471e4722,66a626ef09d4e21e1a8894ec,6737726643bef4be204bf0c1,2024-11-15_10h11.20.164,Tarea de género gramatical,2024.2.2,Win32,12.80409731,,,,,,,,,,,,,,,,,,,,,,,613.421,614.7471,l,0,[],[],[],[],[],[],[],0.5726,0,614.7477,615.2313,,,,,,1138,MAS,DIS,150,norte,la,l,0.5726,,615.2314,615.2314,0.152777778,-0.211111111,0,0,0,,0,247,247,237,1,,,,
,,,,,,8612007c4eda4d4d471e4722,66a626ef09d4e21e1a8894ec,6737726643bef4be204bf0c1,2024-11-15_10h11.20.164,Tarea de género gramatical,2024.2.2,Win32,12.80409731,,,,,,,,,,,,,,,,,,,,,,,615.2322,617.8405,,0,[],[],[],[],[],[],[],0.5726,-1,617.8411,618.3228,,,,,,1192,MAS,DIS,150,piano,la,l,,,618.3229,618.323,0.152777778,-0.211111111,0,0,0,,0,248,248,291,1,,,,
,,,,,,8612007c4eda4d4d471e4722,66a626ef09d4e21e1a8894ec,6737726643bef4be204bf0c1,2024-11-15_10h11.20.164,Tarea de género gramatical,2024.2.2,Win32,12.80409731,,,,,,,,,,,,,,,,,,,,,,,618.3237,619.4825,l,1,[],[],[],[],[],[],[],0.4082,1,619.4832,619.9541,,,,,,937,FEM,DIS,150,sala,el,a,0.4082,,619.955,619.9564,0.152777778,-0.211111111,0,0,0,,0,249,249,36,1,,,,
,,,,,,8612007c4eda4d4d471e4722,66a626ef09d4e21e1a8894ec,6737726643bef4be204bf0c1,2024-11-15_10h11.20.164,Tarea de género gramatical,2024.2.2,Win32,12.80409731,,,,,,,,,,,,,,,,,,,,,,,619.9571,621.0887,l,0,[],[],[],[],[],[],[],0.3908,0,621.0892,621.5647,,,,,,1044,MAS,CON,150,amor,,l,0.3908,,621.5648,621.5649,0.152777778,-0.211111111,0,0,0,,0,250,250,143,1,,,,
,,,,,,8612007c4eda4d4d471e4722,66a626ef09d4e21e1a8894ec,6737726643bef4be204bf0c1,2024-11-15_10h11.20.164,Tarea de género gramatical,2024.2.2,Win32,12.80409731,,,,,,,,,,,,,,,,,,,,,,,621.5657,622.6169,l,1,[],[],[],[],[],[],[],0.2964,1,622.6174,623.1064,,,,,,1202,FEM,AGR,150,cabeza,la,a,0.2964,,623.1064,623.1064,0.152777778,-0.211111111,0,0,0,,0,251,251,301,1,,,,
,,,,,,8612007c4eda4d4d471e4722,66a626ef09d4e21e1a8894ec,6737726643bef4be204bf0c1,2024-11-15_10h11.20.164,Tarea de género gramatical,2024.2.2,Win32,12.80409731,,,,,,,,,,,,,,,,,,,,,,,623.1073,625.6945,,0,[],[],[],[],[],[],[],0.2964,-1,625.6951,626.2043,,,,,,922,MAS,DIS,150,pelo,la,l,,,626.2044,626.2044,0.152777778,-0.211111111,0,0,0,,0,252,252,21,1,,,,
