counterbalancing_condition,consent_prescreening.block_1/declare_consent,consent_prescreening.block_1/age_years,consent_prescreening.block_1/gender,consent_prescreening.block_1/language_disorder,consent_prescreening.block_1/first_language,PROLIFIC_PID,STUDY_ID,SESSION_ID,date,expName,psychopyVersion,OS,frameRate,check_prescreening_answers.started,check_prescreening_answers.stopped,Instructions.started,Instructions.stopped,instr_done_keyboard.keys,instr_done_keyboard.rt,instr_done_keyboard.duration,instr_done_touch.x,instr_done_touch.y,instr_done_touch.leftButton,instr_done_touch.midButton,instr_done_touch.rightButton,instr_done_touch.clicked_name,instruction_pages.thisRepN,instruction_pages.thisTrialN,instruction_pages.thisN,instruction_pages.thisIndex,instruction_pages.ran,pageN,phase,instruct_text,has_image,instruct_image,presentTrial.started,presentTrial.stopped,response.keys,response.corr,response.rt,response.duration,touch_resp.x,touch_resp.y,touch_resp.leftButton,touch_resp.midButton,touch_resp.rightButton,touch_resp.time,touch_resp.clicked_name,rt,corr,feedback.started,feedback.stopped,practice_trials.thisRepN,practice_trials.thisTrialN,practice_trials.thisN,practice_trials.thisIndex,practice_trials.ran,TrialID,StimulusType,Condition,PrimeDuration,Prime,Flanker,corrAns,Break.started,Break.stopped,break_done_touch.x,break_done_touch.y,break_done_touch.leftButton,break_done_touch.midButton,break_done_touch.rightButton,break_done_keyboard.keys,experiment_trials.thisRepN,experiment_trials.thisTrialN,experiment_trials.thisN,experiment_trials.thisIndex,experiment_trials.ran,break_done_keyboard.rt,break_done_keyboard.duration,End.started,End.stopped
2,"[""over_18"",""comfortable"",""read_info"",""consent_given""]",25,M,"[""none""]","[""spanish""]",88a1a89627a95ec26674f64e,66a626ef09d4e21e1a8894ec,6734e025c2d87c625531db37,2024-11-13_18h33.45.873,Tarea de género gramatical,2024.2.2,Win32,14.4092219,,,,,,,,,,,,,,,,,,,,,,,,,,,,,,,,,,,,,,,,,,,,,,,,,,,,,,,,,,,,,,,,,,,,,
,,,,,,88a1a89627a95ec26674f64e,66a626ef09d4e21e1a8894ec,6734e025c2d87c625531db37,2024-11-13_18h33.45.873,Tarea de género gramatical,2024.2.2,Win32,14.4092219,33.7213,33.7221,,,,,,,,,,,,,,,,,,,,,,,,,,,,,,,,,,,,,,,,,,,,,,,,,,,,,,,,,,,,,,,,,,,
,,,,,,88a1a89627a95ec26674f64e,66a626ef09d4e21e1a8894ec,6734e025c2d87c625531db37,2024-11-13_18h33.45.873,Tarea de género gramatical,2024.2.2,Win32,14.4092219,,,33.7727,49.8634,space,15.9818,,0.061111111,-0.144444444,0,0,0,,0,0,0,0,1,1,instructions,"INSTRUCCIONES
Va a realizar una prueba de selección gramatical. Desde el comienzo de la prueba mire siempre al centro de la pantalla. Al cabo de un momento, aparecerán palabras. La tarea consiste en determinar si la palabra del centro (siempre será un sustantivo), pertenece al género masculino o femenino.

Pulse la tecla ESPACIO o toque el botón de abajo para continuar.",0,keyboardresponseFM.png,,,,,,,,,,,,,,,,,,,,,,,,,,,,,,,,,,,,,,,,,,,,,,
,,,,,,88a1a89627a95ec26674f64e,66a626ef09d4e21e1a8894ec,6734e025c2d87c625531db37,2024-11-13_18h33.45.873,Tarea de género gramatical,2024.2.2,Win32,14.4092219,,,49.8652,65.0113,space,15.0245,,0.040740741,0.158333333,0,0,0,,0,1,1,1,1,2,instructions,"Si su dispositivo tiene teclado, pulse la tecla ""A"" para las palabras en femenino (por ejemplo: ""mano"") y la tecla ""L"" para las palabras en masculino(por ejemplo: ""arroz"").
Pulse la tecla ESPACIO o toque el botón de abajo para continuar.",1,keyboardresponseFM.png,,,,,,,,,,,,,,,,,,,,,,,,,,,,,,,,,,,,,,,,,,,,,,
,,,,,,88a1a89627a95ec26674f64e,66a626ef09d4e21e1a8894ec,6734e025c2d87c625531db37,2024-11-13_18h33.45.873,Tarea de género gramatical,2024.2.2,Win32,14.4092219,,,65.0126,72.1075,space,6.9881,,0.040740741,0.158333333,0,0,0,,0,2,2,2,1,3,instructions,"Si utiliza un dispositivo sólo táctil, colóquelo en horizontal y utilice los botones de la pantalla. No utilice el ratón.
Pulse la tecla ESPACIO o toque el botón de abajo para continuar.",2,touchresponseFM.png,,,,,,,,,,,,,,,,,,,,,,,,,,,,,,,,,,,,,,,,,,,,,,
,,,,,,88a1a89627a95ec26674f64e,66a626ef09d4e21e1a8894ec,6734e025c2d87c625531db37,2024-11-13_18h33.45.873,Tarea de género gramatical,2024.2.2,Win32,14.4092219,,,72.1091,87.409,space,15.2138,,0.040740741,0.158333333,0,0,0,,0,3,3,3,1,4,instructions,"Es muy importante que responda con la mayor rapidez y precisión posibles, ya que cada cadena de letras sólo estará en pantalla durante un instante. Si no responde en ese tiempo, aparecerá el mensaje ""Muy lento"" y el experimento pasará a la siguiente palabra. Los primeros 15 intentos serán de práctica y habrá dos descansos durante la prueba.
Pulse la tecla ESPACIO o toque el botón de abajo para iniciar la parte de práctica.",0,keyboardresponseFM.png,,,,,,,,,,,,,,,,,,,,,,,,,,,,,,,,,,,,,,,,,,,,,,
,,,,,,88a1a89627a95ec26674f64e,66a626ef09d4e21e1a8894ec,6734e025c2d87c625531db37,2024-11-13_18h33.45.873,Tarea de género gramatical,2024.2.2,Win32,14.4092219,,,,,,,,,,,,,,,,,,,,,,,,87.4225,89.9693,a,0,1.775,,[],[],[],[],[],[],[],1.775,0,89.9695,90.4814,0,0,0,8,1,2009,MAS,DIS,150,puerto,la,l,,,,,,,,,,,,,,,,,
,,,,,,88a1a89627a95ec26674f64e,66a626ef09d4e21e1a8894ec,6734e025c2d87c625531db37,2024-11-13_18h33.45.873,Tarea de género gramatical,2024.2.2,Win32,14.4092219,,,,,,,,,,,,,,,,,,,,,,,,90.4825,91.8367,l,1,0.5973,,[],[],[],[],[],[],[],0.5973,1,91.8375,92.3442,0,1,1,13,1,2014,MAS,CON,150,siglo,,l,,,,,,,,,,,,,,,,,
,,,,,,88a1a89627a95ec26674f64e,66a626ef09d4e21e1a8894ec,6734e025c2d87c625531db37,2024-11-13_18h33.45.873,Tarea de género gramatical,2024.2.2,Win32,14.4092219,,,,,,,,,,,,,,,,,,,,,,,,92.345,93.8691,a,1,0.7643,,[],[],[],[],[],[],[],0.7643,1,93.8692,94.38,0,2,2,4,1,2005,FEM,CON,150,placa,,a,,,,,,,,,,,,,,,,,
,,,,,,88a1a89627a95ec26674f64e,66a626ef09d4e21e1a8894ec,6734e025c2d87c625531db37,2024-11-13_18h33.45.873,Tarea de género gramatical,2024.2.2,Win32,14.4092219,,,,,,,,,,,,,,,,,,,,,,,,94.3808,95.9075,a,0,0.7661,,[],[],[],[],[],[],[],0.7661,0,95.9079,96.4132,0,3,3,11,1,2012,MAS,DIS,150,clima,la,l,,,,,,,,,,,,,,,,,
,,,,,,88a1a89627a95ec26674f64e,66a626ef09d4e21e1a8894ec,6734e025c2d87c625531db37,2024-11-13_18h33.45.873,Tarea de género gramatical,2024.2.2,Win32,14.4092219,,,,,,,,,,,,,,,,,,,,,,,,96.4141,98.326,l,1,1.1561,,[],[],[],[],[],[],[],1.1561,1,98.3264,98.8474,0,4,4,10,1,2011,MAS,CON,150,canal,,l,,,,,,,,,,,,,,,,,
,,,,,,88a1a89627a95ec26674f64e,66a626ef09d4e21e1a8894ec,6734e025c2d87c625531db37,2024-11-13_18h33.45.873,Tarea de género gramatical,2024.2.2,Win32,14.4092219,,,,,,,,,,,,,,,,,,,,,,,,98.8479,100.1979,a,1,0.5965,,[],[],[],[],[],[],[],0.5965,1,100.1979,100.7041,0,5,5,1,1,2002,FEM,CON,150,pala,,a,,,,,,,,,,,,,,,,,
,,,,,,88a1a89627a95ec26674f64e,66a626ef09d4e21e1a8894ec,6734e025c2d87c625531db37,2024-11-13_18h33.45.873,Tarea de género gramatical,2024.2.2,Win32,14.4092219,,,,,,,,,,,,,,,,,,,,,,,,100.7049,102.4773,l,1,1.0172,,[],[],[],[],[],[],[],1.0172,1,102.4773,102.9833,0,6,6,14,1,2015,MAS,DIS,150,robot,la,l,,,,,,,,,,,,,,,,,
,,,,,,88a1a89627a95ec26674f64e,66a626ef09d4e21e1a8894ec,6734e025c2d87c625531db37,2024-11-13_18h33.45.873,Tarea de género gramatical,2024.2.2,Win32,14.4092219,,,,,,,,,,,,,,,,,,,,,,,,102.9839,105.1892,l,0,1.4451,0.0001,[],[],[],[],[],[],[],1.4451,0,105.1897,105.6947,0,7,7,5,1,2006,FEM,DIS,150,serie,el,a,,,,,,,,,,,,,,,,,
,,,,,,88a1a89627a95ec26674f64e,66a626ef09d4e21e1a8894ec,6734e025c2d87c625531db37,2024-11-13_18h33.45.873,Tarea de género gramatical,2024.2.2,Win32,14.4092219,,,,,,,,,,,,,,,,,,,,,,,,105.6953,107.5548,a,1,1.1019,,[],[],[],[],[],[],[],1.1019,1,107.5552,108.0615,0,8,8,7,1,2008,FEM,CON,150,siesta,,a,,,,,,,,,,,,,,,,,
,,,,,,88a1a89627a95ec26674f64e,66a626ef09d4e21e1a8894ec,6734e025c2d87c625531db37,2024-11-13_18h33.45.873,Tarea de género gramatical,2024.2.2,Win32,14.4092219,,,,,,,,,,,,,,,,,,,,,,,,108.0623,109.5994,l,1,0.7809,,[],[],[],[],[],[],[],0.7809,1,109.5994,110.106,0,9,9,9,1,2010,MAS,AGR,150,vecino,el,l,,,,,,,,,,,,,,,,,
,,,,,,88a1a89627a95ec26674f64e,66a626ef09d4e21e1a8894ec,6734e025c2d87c625531db37,2024-11-13_18h33.45.873,Tarea de género gramatical,2024.2.2,Win32,14.4092219,,,,,,,,,,,,,,,,,,,,,,,,110.1068,111.7949,a,1,0.9332,,[],[],[],[],[],[],[],0.9332,1,111.7949,112.3071,0,10,10,2,1,2003,FEM,DIS,150,daga,el,a,,,,,,,,,,,,,,,,,
,,,,,,88a1a89627a95ec26674f64e,66a626ef09d4e21e1a8894ec,6734e025c2d87c625531db37,2024-11-13_18h33.45.873,Tarea de género gramatical,2024.2.2,Win32,14.4092219,,,,,,,,,,,,,,,,,,,,,,,,112.3077,114.0799,a,1,1.0169,,[],[],[],[],[],[],[],1.0169,1,114.0799,114.5858,0,11,11,3,1,2004,FEM,AGR,150,venta,la,a,,,,,,,,,,,,,,,,,
,,,,,,88a1a89627a95ec26674f64e,66a626ef09d4e21e1a8894ec,6734e025c2d87c625531db37,2024-11-13_18h33.45.873,Tarea de género gramatical,2024.2.2,Win32,14.4092219,,,,,,,,,,,,,,,,,,,,,,,,114.5865,115.9368,a,1,0.5951,,[],[],[],[],[],[],[],0.5951,1,115.9369,116.4428,0,12,12,6,1,2007,FEM,AGR,150,navaja,la,a,,,,,,,,,,,,,,,,,
,,,,,,88a1a89627a95ec26674f64e,66a626ef09d4e21e1a8894ec,6734e025c2d87c625531db37,2024-11-13_18h33.45.873,Tarea de género gramatical,2024.2.2,Win32,14.4092219,,,,,,,,,,,,,,,,,,,,,,,,116.4434,118.3003,l,1,1.1009,,[],[],[],[],[],[],[],1.1009,1,118.3004,118.8058,0,13,13,12,1,2013,MAS,AGR,150,acero,el,l,,,,,,,,,,,,,,,,,
,,,,,,88a1a89627a95ec26674f64e,66a626ef09d4e21e1a8894ec,6734e025c2d87c625531db37,2024-11-13_18h33.45.873,Tarea de género gramatical,2024.2.2,Win32,14.4092219,,,,,,,,,,,,,,,,,,,,,,,,118.8064,120.3311,a,1,0.7675,,[],[],[],[],[],[],[],0.7675,1,120.3312,120.8433,0,14,14,0,1,2001,FEM,AGR,150,nuca,la,a,,,,,,,,,,,,,,,,,
,,,,,,88a1a89627a95ec26674f64e,66a626ef09d4e21e1a8894ec,6734e025c2d87c625531db37,2024-11-13_18h33.45.873,Tarea de género gramatical,2024.2.2,Win32,14.4092219,,,164.6737,420.9283,space,256.1691,,-0.25,0.261111111,0,0,0,,,,,,,,,,,,420.9533,422.4838,a,1,0.7629,,[],[],[],[],[],[],[],0.7629,1,422.4838,422.9892,,,,,,1166,FEM,AGR,150,jaula,la,a,422.9894,422.9926,-0.25,0.261111111,0,0,0,,0,0,0,265,1,,,,
,,,,,,88a1a89627a95ec26674f64e,66a626ef09d4e21e1a8894ec,6734e025c2d87c625531db37,2024-11-13_18h33.45.873,Tarea de género gramatical,2024.2.2,Win32,14.4092219,,,,,,,,,,,,,,,,,,,,,,,,422.9931,424.3526,a,1,0.5962,,[],[],[],[],[],[],[],0.5962,1,424.3527,424.8565,,,,,,1233,FEM,CON,150,locura,,a,424.8567,424.8567,-0.25,0.261111111,0,0,0,,0,1,1,332,1,,,,
,,,,,,88a1a89627a95ec26674f64e,66a626ef09d4e21e1a8894ec,6734e025c2d87c625531db37,2024-11-13_18h33.45.873,Tarea de género gramatical,2024.2.2,Win32,14.4092219,,,,,,,,,,,,,,,,,,,,,,,,424.8572,426.1248,a,1,0.5102,,[],[],[],[],[],[],[],0.5102,1,426.1248,426.6475,,,,,,1341,FEM,CON,150,medida,,a,426.6485,426.6498,-0.25,0.261111111,0,0,0,,0,2,2,440,1,,,,
,,,,,,88a1a89627a95ec26674f64e,66a626ef09d4e21e1a8894ec,6734e025c2d87c625531db37,2024-11-13_18h33.45.873,Tarea de género gramatical,2024.2.2,Win32,14.4092219,,,,,,,,,,,,,,,,,,,,,,,,426.6505,428.2687,a,1,0.8484,,[],[],[],[],[],[],[],0.8484,1,428.2687,428.7795,,,,,,1267,FEM,DIS,150,teoría,el,a,428.7796,428.7797,-0.25,0.261111111,0,0,0,,0,3,3,366,1,,,,
,,,,,,88a1a89627a95ec26674f64e,66a626ef09d4e21e1a8894ec,6734e025c2d87c625531db37,2024-11-13_18h33.45.873,Tarea de género gramatical,2024.2.2,Win32,14.4092219,,,,,,,,,,,,,,,,,,,,,,,,428.7804,430.0775,a,1,0.512,,[],[],[],[],[],[],[],0.512,1,430.0775,430.582,,,,,,944,FEM,AGR,150,zona,la,a,430.5821,430.5822,-0.25,0.261111111,0,0,0,,0,4,4,43,1,,,,
,,,,,,88a1a89627a95ec26674f64e,66a626ef09d4e21e1a8894ec,6734e025c2d87c625531db37,2024-11-13_18h33.45.873,Tarea de género gramatical,2024.2.2,Win32,14.4092219,,,,,,,,,,,,,,,,,,,,,,,,430.5827,431.9363,l,1,0.5947,,[],[],[],[],[],[],[],0.5947,1,431.9363,432.4419,,,,,,1050,MAS,CON,150,mozo,,l,432.442,432.4421,-0.25,0.261111111,0,0,0,,0,5,5,149,1,,,,
,,,,,,88a1a89627a95ec26674f64e,66a626ef09d4e21e1a8894ec,6734e025c2d87c625531db37,2024-11-13_18h33.45.873,Tarea de género gramatical,2024.2.2,Win32,14.4092219,,,,,,,,,,,,,,,,,,,,,,,,432.4427,433.9638,a,1,0.7688,,[],[],[],[],[],[],[],0.7688,1,433.9638,434.469,,,,,,1027,FEM,DIS,150,cuna,el,a,434.4699,434.4712,-0.25,0.261111111,0,0,0,,0,6,6,126,1,,,,
,,,,,,88a1a89627a95ec26674f64e,66a626ef09d4e21e1a8894ec,6734e025c2d87c625531db37,2024-11-13_18h33.45.873,Tarea de género gramatical,2024.2.2,Win32,14.4092219,,,,,,,,,,,,,,,,,,,,,,,,434.4716,435.756,l,1,0.5105,,[],[],[],[],[],[],[],0.5105,1,435.7561,436.265,,,,,,1186,MAS,DIS,150,reino,la,l,436.265,436.2651,-0.25,0.261111111,0,0,0,,0,7,7,285,1,,,,
,,,,,,88a1a89627a95ec26674f64e,66a626ef09d4e21e1a8894ec,6734e025c2d87c625531db37,2024-11-13_18h33.45.873,Tarea de género gramatical,2024.2.2,Win32,14.4092219,,,,,,,,,,,,,,,,,,,,,,,,436.2656,438.2911,a,1,1.2706,,[],[],[],[],[],[],[],1.2706,1,438.2911,438.8048,,,,,,1087,FEM,DIS,150,lista,el,a,438.8049,438.8049,-0.25,0.261111111,0,0,0,,0,8,8,186,1,,,,
,,,,,,88a1a89627a95ec26674f64e,66a626ef09d4e21e1a8894ec,6734e025c2d87c625531db37,2024-11-13_18h33.45.873,Tarea de género gramatical,2024.2.2,Win32,14.4092219,,,,,,,,,,,,,,,,,,,,,,,,438.8056,440.1569,a,1,0.5958,,[],[],[],[],[],[],[],0.5958,1,440.157,440.6615,,,,,,1329,FEM,CON,150,fianza,,a,440.6616,440.6617,-0.25,0.261111111,0,0,0,,0,9,9,428,1,,,,
,,,,,,88a1a89627a95ec26674f64e,66a626ef09d4e21e1a8894ec,6734e025c2d87c625531db37,2024-11-13_18h33.45.873,Tarea de género gramatical,2024.2.2,Win32,14.4092219,,,,,,,,,,,,,,,,,,,,,,,,440.6622,441.9279,a,0,0.5103,,[],[],[],[],[],[],[],0.5103,0,441.9283,442.4377,,,,,,1001,MAS,AGR,150,giro,el,l,442.4377,442.4378,-0.25,0.261111111,0,0,0,,0,10,10,100,1,,,,
,,,,,,88a1a89627a95ec26674f64e,66a626ef09d4e21e1a8894ec,6734e025c2d87c625531db37,2024-11-13_18h33.45.873,Tarea de género gramatical,2024.2.2,Win32,14.4092219,,,,,,,,,,,,,,,,,,,,,,,,442.4383,444.0411,l,1,0.8491,,[],[],[],[],[],[],[],0.8491,1,444.0415,444.5523,,,,,,1170,MAS,CON,150,queso,,l,444.5532,444.5544,-0.25,0.261111111,0,0,0,,0,11,11,269,1,,,,
,,,,,,88a1a89627a95ec26674f64e,66a626ef09d4e21e1a8894ec,6734e025c2d87c625531db37,2024-11-13_18h33.45.873,Tarea de género gramatical,2024.2.2,Win32,14.4092219,,,,,,,,,,,,,,,,,,,,,,,,444.5547,445.8193,a,1,0.5104,,[],[],[],[],[],[],[],0.5104,1,445.8194,446.3258,,,,,,1232,FEM,AGR,150,basura,la,a,446.3259,446.326,-0.25,0.261111111,0,0,0,,0,12,12,331,1,,,,
,,,,,,88a1a89627a95ec26674f64e,66a626ef09d4e21e1a8894ec,6734e025c2d87c625531db37,2024-11-13_18h33.45.873,Tarea de género gramatical,2024.2.2,Win32,14.4092219,,,,,,,,,,,,,,,,,,,,,,,,446.3264,447.8462,l,1,0.766,,[],[],[],[],[],[],[],0.766,1,447.8463,448.3511,,,,,,1266,MAS,CON,150,riesgo,,l,448.3511,448.3512,-0.25,0.261111111,0,0,0,,0,13,13,365,1,,,,
,,,,,,88a1a89627a95ec26674f64e,66a626ef09d4e21e1a8894ec,6734e025c2d87c625531db37,2024-11-13_18h33.45.873,Tarea de género gramatical,2024.2.2,Win32,14.4092219,,,,,,,,,,,,,,,,,,,,,,,,448.3518,449.6968,a,1,0.5947,,[],[],[],[],[],[],[],0.5947,1,449.6968,450.2022,,,,,,963,FEM,CON,150,fila,,a,450.2022,450.2023,-0.25,0.261111111,0,0,0,,0,14,14,62,1,,,,
,,,,,,88a1a89627a95ec26674f64e,66a626ef09d4e21e1a8894ec,6734e025c2d87c625531db37,2024-11-13_18h33.45.873,Tarea de género gramatical,2024.2.2,Win32,14.4092219,,,,,,,,,,,,,,,,,,,,,,,,450.203,451.3888,l,1,0.4278,,[],[],[],[],[],[],[],0.4278,1,451.389,451.8963,,,,,,1020,MAS,CON,150,puño,,l,451.8971,451.8983,-0.25,0.261111111,0,0,0,,0,15,15,119,1,,,,
,,,,,,88a1a89627a95ec26674f64e,66a626ef09d4e21e1a8894ec,6734e025c2d87c625531db37,2024-11-13_18h33.45.873,Tarea de género gramatical,2024.2.2,Win32,14.4092219,,,,,,,,,,,,,,,,,,,,,,,,451.8986,453.2509,l,1,0.5963,,[],[],[],[],[],[],[],0.5963,1,453.251,453.7568,,,,,,1176,MAS,CON,150,ritmo,,l,453.7569,453.7569,-0.25,0.261111111,0,0,0,,0,16,16,275,1,,,,
,,,,,,88a1a89627a95ec26674f64e,66a626ef09d4e21e1a8894ec,6734e025c2d87c625531db37,2024-11-13_18h33.45.873,Tarea de género gramatical,2024.2.2,Win32,14.4092219,,,,,,,,,,,,,,,,,,,,,,,,453.7575,454.9406,a,1,0.4266,,[],[],[],[],[],[],[],0.4266,1,454.9406,455.4477,,,,,,1010,FEM,AGR,150,rosa,la,a,455.4478,455.4478,-0.25,0.261111111,0,0,0,,0,17,17,109,1,,,,
,,,,,,88a1a89627a95ec26674f64e,66a626ef09d4e21e1a8894ec,6734e025c2d87c625531db37,2024-11-13_18h33.45.873,Tarea de género gramatical,2024.2.2,Win32,14.4092219,,,,,,,,,,,,,,,,,,,,,,,,455.4486,456.6287,l,1,0.4255,,[],[],[],[],[],[],[],0.4255,1,456.6288,457.1338,,,,,,1146,MAS,CON,150,humor,,l,457.1338,457.1339,-0.25,0.261111111,0,0,0,,0,18,18,245,1,,,,
,,,,,,88a1a89627a95ec26674f64e,66a626ef09d4e21e1a8894ec,6734e025c2d87c625531db37,2024-11-13_18h33.45.873,Tarea de género gramatical,2024.2.2,Win32,14.4092219,,,,,,,,,,,,,,,,,,,,,,,,457.1346,458.3301,a,1,0.4263,,[],[],[],[],[],[],[],0.4263,1,458.3302,458.8349,,,,,,1227,FEM,CON,150,tienda,,a,458.8351,458.8351,-0.25,0.261111111,0,0,0,,0,19,19,326,1,,,,
,,,,,,88a1a89627a95ec26674f64e,66a626ef09d4e21e1a8894ec,6734e025c2d87c625531db37,2024-11-13_18h33.45.873,Tarea de género gramatical,2024.2.2,Win32,14.4092219,,,,,,,,,,,,,,,,,,,,,,,,458.8358,460.1914,l,0,0.5998,,[],[],[],[],[],[],[],0.5998,0,460.192,460.6976,,,,,,1033,FEM,DIS,150,joya,el,a,460.6983,460.6996,-0.25,0.261111111,0,0,0,,0,20,20,132,1,,,,
,,,,,,88a1a89627a95ec26674f64e,66a626ef09d4e21e1a8894ec,6734e025c2d87c625531db37,2024-11-13_18h33.45.873,Tarea de género gramatical,2024.2.2,Win32,14.4092219,,,,,,,,,,,,,,,,,,,,,,,,460.6999,462.0552,l,1,0.5972,,[],[],[],[],[],[],[],0.5972,1,462.0557,462.5624,,,,,,978,MAS,CON,150,oído,,l,462.5624,462.5625,-0.25,0.261111111,0,0,0,,0,21,21,77,1,,,,
,,,,,,88a1a89627a95ec26674f64e,66a626ef09d4e21e1a8894ec,6734e025c2d87c625531db37,2024-11-13_18h33.45.873,Tarea de género gramatical,2024.2.2,Win32,14.4092219,,,,,,,,,,,,,,,,,,,,,,,,462.5631,464.2516,a,1,0.9345,,[],[],[],[],[],[],[],0.9345,1,464.2517,464.7566,,,,,,1015,FEM,DIS,150,seda,el,a,464.7567,464.7567,-0.25,0.261111111,0,0,0,,0,22,22,114,1,,,,
,,,,,,88a1a89627a95ec26674f64e,66a626ef09d4e21e1a8894ec,6734e025c2d87c625531db37,2024-11-13_18h33.45.873,Tarea de género gramatical,2024.2.2,Win32,14.4092219,,,,,,,,,,,,,,,,,,,,,,,,464.7573,466.2042,a,1,0.6789,,[],[],[],[],[],[],[],0.6789,1,466.2043,466.7097,,,,,,981,FEM,CON,150,cima,,a,466.7098,466.7098,-0.25,0.261111111,0,0,0,,0,23,23,80,1,,,,
,,,,,,88a1a89627a95ec26674f64e,66a626ef09d4e21e1a8894ec,6734e025c2d87c625531db37,2024-11-13_18h33.45.873,Tarea de género gramatical,2024.2.2,Win32,14.4092219,,,,,,,,,,,,,,,,,,,,,,,,466.7103,468.0183,l,1,0.5493,,[],[],[],[],[],[],[],0.5493,1,468.0184,468.5265,,,,,,1086,MAS,CON,150,error,,l,468.5274,468.5285,-0.25,0.261111111,0,0,0,,0,24,24,185,1,,,,
,,,,,,88a1a89627a95ec26674f64e,66a626ef09d4e21e1a8894ec,6734e025c2d87c625531db37,2024-11-13_18h33.45.873,Tarea de género gramatical,2024.2.2,Win32,14.4092219,,,,,,,,,,,,,,,,,,,,,,,,468.5289,470.1341,a,1,0.8495,,[],[],[],[],[],[],[],0.8495,1,470.1341,470.6387,,,,,,1315,FEM,DIS,150,cabina,el,a,470.6388,470.6388,-0.25,0.261111111,0,0,0,,0,25,25,414,1,,,,
,,,,,,88a1a89627a95ec26674f64e,66a626ef09d4e21e1a8894ec,6734e025c2d87c625531db37,2024-11-13_18h33.45.873,Tarea de género gramatical,2024.2.2,Win32,14.4092219,,,,,,,,,,,,,,,,,,,,,,,,470.6394,472.2417,a,1,0.8461,,[],[],[],[],[],[],[],0.8461,1,472.2418,472.746,,,,,,1069,FEM,DIS,150,vista,el,a,472.746,472.7461,-0.25,0.261111111,0,0,0,,0,26,26,168,1,,,,
,,,,,,88a1a89627a95ec26674f64e,66a626ef09d4e21e1a8894ec,6734e025c2d87c625531db37,2024-11-13_18h33.45.873,Tarea de género gramatical,2024.2.2,Win32,14.4092219,,,,,,,,,,,,,,,,,,,,,,,,472.7468,474.1787,a,1,0.6802,,[],[],[],[],[],[],[],0.6802,1,474.1788,474.6852,,,,,,1047,FEM,CON,150,grúa,,a,474.6852,474.6853,-0.25,0.261111111,0,0,0,,0,27,27,146,1,,,,
,,,,,,88a1a89627a95ec26674f64e,66a626ef09d4e21e1a8894ec,6734e025c2d87c625531db37,2024-11-13_18h33.45.873,Tarea de género gramatical,2024.2.2,Win32,14.4092219,,,,,,,,,,,,,,,,,,,,,,,,474.686,475.9546,a,1,0.5116,,[],[],[],[],[],[],[],0.5116,1,475.9547,476.4599,,,,,,1316,FEM,AGR,150,colina,la,a,476.46,476.46,-0.25,0.261111111,0,0,0,,0,28,28,415,1,,,,
,,,,,,88a1a89627a95ec26674f64e,66a626ef09d4e21e1a8894ec,6734e025c2d87c625531db37,2024-11-13_18h33.45.873,Tarea de género gramatical,2024.2.2,Win32,14.4092219,,,,,,,,,,,,,,,,,,,,,,,,476.4606,477.6403,a,1,0.4261,,[],[],[],[],[],[],[],0.4261,1,477.6403,478.1528,,,,,,1335,FEM,CON,150,niebla,,a,478.1535,478.1547,-0.25,0.261111111,0,0,0,,0,29,29,434,1,,,,
,,,,,,88a1a89627a95ec26674f64e,66a626ef09d4e21e1a8894ec,6734e025c2d87c625531db37,2024-11-13_18h33.45.873,Tarea de género gramatical,2024.2.2,Win32,14.4092219,,,,,,,,,,,,,,,,,,,,,,,,478.1551,479.7618,l,1,0.848,,[],[],[],[],[],[],[],0.848,1,479.7618,480.2676,,,,,,922,MAS,DIS,150,pelo,la,l,480.2677,480.2677,-0.25,0.261111111,0,0,0,,0,30,30,21,1,,,,
,,,,,,88a1a89627a95ec26674f64e,66a626ef09d4e21e1a8894ec,6734e025c2d87c625531db37,2024-11-13_18h33.45.873,Tarea de género gramatical,2024.2.2,Win32,14.4092219,,,,,,,,,,,,,,,,,,,,,,,,480.2683,481.6206,l,1,0.5968,,[],[],[],[],[],[],[],0.5968,1,481.6207,482.1358,,,,,,1217,MAS,AGR,150,número,el,l,482.1358,482.1359,-0.25,0.261111111,0,0,0,,0,31,31,316,1,,,,
,,,,,,88a1a89627a95ec26674f64e,66a626ef09d4e21e1a8894ec,6734e025c2d87c625531db37,2024-11-13_18h33.45.873,Tarea de género gramatical,2024.2.2,Win32,14.4092219,,,,,,,,,,,,,,,,,,,,,,,,482.1366,483.9059,l,1,1.0161,,[],[],[],[],[],[],[],1.0161,1,483.906,484.4192,,,,,,958,MAS,DIS,150,mono,la,l,484.4193,484.4193,-0.25,0.261111111,0,0,0,,0,32,32,57,1,,,,
,,,,,,88a1a89627a95ec26674f64e,66a626ef09d4e21e1a8894ec,6734e025c2d87c625531db37,2024-11-13_18h33.45.873,Tarea de género gramatical,2024.2.2,Win32,14.4092219,,,,,,,,,,,,,,,,,,,,,,,,484.4199,485.9389,l,1,0.7665,,[],[],[],[],[],[],[],0.7665,1,485.939,486.4561,,,,,,1164,MAS,CON,150,pollo,,l,486.4569,486.4582,-0.25,0.261111111,0,0,0,,0,33,33,263,1,,,,
,,,,,,88a1a89627a95ec26674f64e,66a626ef09d4e21e1a8894ec,6734e025c2d87c625531db37,2024-11-13_18h33.45.873,Tarea de género gramatical,2024.2.2,Win32,14.4092219,,,,,,,,,,,,,,,,,,,,,,,,486.4586,487.9097,l,1,0.6778,,[],[],[],[],[],[],[],0.6778,1,487.9098,488.414,,,,,,1128,MAS,CON,150,nivel,,l,488.414,488.4141,-0.25,0.261111111,0,0,0,,0,34,34,227,1,,,,
,,,,,,88a1a89627a95ec26674f64e,66a626ef09d4e21e1a8894ec,6734e025c2d87c625531db37,2024-11-13_18h33.45.873,Tarea de género gramatical,2024.2.2,Win32,14.4092219,,,,,,,,,,,,,,,,,,,,,,,,488.4146,490.1132,l,1,0.9436,,[],[],[],[],[],[],[],0.9436,1,490.1133,490.6177,,,,,,1312,MAS,DIS,150,espejo,la,l,490.6177,490.6178,-0.25,0.261111111,0,0,0,,0,35,35,411,1,,,,
,,,,,,88a1a89627a95ec26674f64e,66a626ef09d4e21e1a8894ec,6734e025c2d87c625531db37,2024-11-13_18h33.45.873,Tarea de género gramatical,2024.2.2,Win32,14.4092219,,,,,,,,,,,,,,,,,,,,,,,,490.6184,492.4747,l,1,1.1045,,[],[],[],[],[],[],[],1.1045,1,492.4747,492.9776,,,,,,1324,MAS,DIS,150,rastro,la,l,492.9776,492.9777,-0.25,0.261111111,0,0,0,,0,36,36,423,1,,,,
,,,,,,88a1a89627a95ec26674f64e,66a626ef09d4e21e1a8894ec,6734e025c2d87c625531db37,2024-11-13_18h33.45.873,Tarea de género gramatical,2024.2.2,Win32,14.4092219,,,,,,,,,,,,,,,,,,,,,,,,492.9782,494.1571,a,1,0.4266,,[],[],[],[],[],[],[],0.4266,1,494.1572,494.6631,,,,,,1269,FEM,CON,150,camisa,,a,494.6631,494.6631,-0.25,0.261111111,0,0,0,,0,37,37,368,1,,,,
,,,,,,88a1a89627a95ec26674f64e,66a626ef09d4e21e1a8894ec,6734e025c2d87c625531db37,2024-11-13_18h33.45.873,Tarea de género gramatical,2024.2.2,Win32,14.4092219,,,,,,,,,,,,,,,,,,,,,,,,494.6636,496.0129,l,1,0.5947,,[],[],[],[],[],[],[],0.5947,1,496.013,496.5193,,,,,,1222,MAS,DIS,150,minuto,la,l,496.5202,496.5215,-0.25,0.261111111,0,0,0,,0,38,38,321,1,,,,
,,,,,,88a1a89627a95ec26674f64e,66a626ef09d4e21e1a8894ec,6734e025c2d87c625531db37,2024-11-13_18h33.45.873,Tarea de género gramatical,2024.2.2,Win32,14.4092219,,,,,,,,,,,,,,,,,,,,,,,,496.5219,498.4555,l,1,1.1801,,[],[],[],[],[],[],[],1.1801,1,498.4556,498.9602,,,,,,928,MAS,DIS,150,club,la,l,498.9602,498.9603,-0.25,0.261111111,0,0,0,,0,39,39,27,1,,,,
,,,,,,88a1a89627a95ec26674f64e,66a626ef09d4e21e1a8894ec,6734e025c2d87c625531db37,2024-11-13_18h33.45.873,Tarea de género gramatical,2024.2.2,Win32,14.4092219,,,,,,,,,,,,,,,,,,,,,,,,498.9608,500.729,l,1,1.015,,[],[],[],[],[],[],[],1.015,1,500.7291,501.2325,,,,,,1006,MAS,DIS,150,test,la,l,501.2326,501.2327,-0.25,0.261111111,0,0,0,,0,40,40,105,1,,,,
,,,,,,88a1a89627a95ec26674f64e,66a626ef09d4e21e1a8894ec,6734e025c2d87c625531db37,2024-11-13_18h33.45.873,Tarea de género gramatical,2024.2.2,Win32,14.4092219,,,,,,,,,,,,,,,,,,,,,,,,501.2332,502.4962,a,1,0.5107,,[],[],[],[],[],[],[],0.5107,1,502.4962,503.0041,,,,,,1153,FEM,DIS,150,aldea,el,a,503.0042,503.0042,-0.25,0.261111111,0,0,0,,0,41,41,252,1,,,,
,,,,,,88a1a89627a95ec26674f64e,66a626ef09d4e21e1a8894ec,6734e025c2d87c625531db37,2024-11-13_18h33.45.873,Tarea de género gramatical,2024.2.2,Win32,14.4092219,,,,,,,,,,,,,,,,,,,,,,,,503.0048,504.2699,l,1,0.5132,,[],[],[],[],[],[],[],0.5132,1,504.27,504.7854,,,,,,1110,MAS,CON,150,baile,,l,504.7859,504.7871,-0.25,0.261111111,0,0,0,,0,42,42,209,1,,,,
,,,,,,88a1a89627a95ec26674f64e,66a626ef09d4e21e1a8894ec,6734e025c2d87c625531db37,2024-11-13_18h33.45.873,Tarea de género gramatical,2024.2.2,Win32,14.4092219,,,,,,,,,,,,,,,,,,,,,,,,504.7875,506.0559,l,1,0.5124,,[],[],[],[],[],[],[],0.5124,1,506.0559,506.5664,,,,,,1193,MAS,AGR,150,patio,el,l,506.5664,506.5664,-0.25,0.261111111,0,0,0,,0,43,43,292,1,,,,
,,,,,,88a1a89627a95ec26674f64e,66a626ef09d4e21e1a8894ec,6734e025c2d87c625531db37,2024-11-13_18h33.45.873,Tarea de género gramatical,2024.2.2,Win32,14.4092219,,,,,,,,,,,,,,,,,,,,,,,,506.567,507.9148,a,1,0.5956,,[],[],[],[],[],[],[],0.5956,1,507.9148,508.4207,,,,,,933,FEM,CON,150,boda,,a,508.4207,508.4207,-0.25,0.261111111,0,0,0,,0,44,44,32,1,,,,
,,,,,,88a1a89627a95ec26674f64e,66a626ef09d4e21e1a8894ec,6734e025c2d87c625531db37,2024-11-13_18h33.45.873,Tarea de género gramatical,2024.2.2,Win32,14.4092219,,,,,,,,,,,,,,,,,,,,,,,,508.4214,509.602,l,1,0.4282,,[],[],[],[],[],[],[],0.4282,1,509.6021,510.109,,,,,,1085,MAS,AGR,150,sueño,el,l,510.1091,510.1091,-0.25,0.261111111,0,0,0,,0,45,45,184,1,,,,
,,,,,,88a1a89627a95ec26674f64e,66a626ef09d4e21e1a8894ec,6734e025c2d87c625531db37,2024-11-13_18h33.45.873,Tarea de género gramatical,2024.2.2,Win32,14.4092219,,,,,,,,,,,,,,,,,,,,,,,,510.1097,511.5458,a,1,0.68,,[],[],[],[],[],[],[],0.68,1,511.5458,512.0528,,,,,,949,FEM,DIS,150,piel,el,a,512.0528,512.0529,-0.25,0.261111111,0,0,0,,0,46,46,48,1,,,,
,,,,,,88a1a89627a95ec26674f64e,66a626ef09d4e21e1a8894ec,6734e025c2d87c625531db37,2024-11-13_18h33.45.873,Tarea de género gramatical,2024.2.2,Win32,14.4092219,,,,,,,,,,,,,,,,,,,,,,,,512.0536,513.2376,l,1,0.4311,,[],[],[],[],[],[],[],0.4311,1,513.2377,513.7417,,,,,,1332,MAS,CON,150,océano,,l,513.7423,513.7436,-0.25,0.261111111,0,0,0,,0,47,47,431,1,,,,
,,,,,,88a1a89627a95ec26674f64e,66a626ef09d4e21e1a8894ec,6734e025c2d87c625531db37,2024-11-13_18h33.45.873,Tarea de género gramatical,2024.2.2,Win32,14.4092219,,,,,,,,,,,,,,,,,,,,,,,,513.7441,515.093,l,1,0.5954,,[],[],[],[],[],[],[],0.5954,1,515.0931,515.603,,,,,,1302,MAS,CON,150,ladrón,,l,515.6031,515.6031,-0.25,0.261111111,0,0,0,,0,48,48,401,1,,,,
,,,,,,88a1a89627a95ec26674f64e,66a626ef09d4e21e1a8894ec,6734e025c2d87c625531db37,2024-11-13_18h33.45.873,Tarea de género gramatical,2024.2.2,Win32,14.4092219,,,,,,,,,,,,,,,,,,,,,,,,515.6038,516.7924,a,1,0.4276,,[],[],[],[],[],[],[],0.4276,1,516.7925,517.2982,,,,,,915,FEM,CON,150,cama,,a,517.2982,517.2982,-0.25,0.261111111,0,0,0,,0,49,49,14,1,,,,
,,,,,,88a1a89627a95ec26674f64e,66a626ef09d4e21e1a8894ec,6734e025c2d87c625531db37,2024-11-13_18h33.45.873,Tarea de género gramatical,2024.2.2,Win32,14.4092219,,,,,,,,,,,,,,,,,,,,,,,,517.2988,518.5017,l,1,0.4415,,[],[],[],[],[],[],[],0.4415,1,518.5019,519.0079,,,,,,1336,MAS,DIS,150,objeto,la,l,519.0079,519.008,-0.25,0.261111111,0,0,0,,0,50,50,435,1,,,,
,,,,,,88a1a89627a95ec26674f64e,66a626ef09d4e21e1a8894ec,6734e025c2d87c625531db37,2024-11-13_18h33.45.873,Tarea de género gramatical,2024.2.2,Win32,14.4092219,,,,,,,,,,,,,,,,,,,,,,,,519.0086,520.4581,l,1,0.6923,,[],[],[],[],[],[],[],0.6923,1,520.4582,520.9616,,,,,,1276,MAS,DIS,150,efecto,la,l,520.9622,520.9633,-0.25,0.261111111,0,0,0,,0,51,51,375,1,,,,
,,,,,,88a1a89627a95ec26674f64e,66a626ef09d4e21e1a8894ec,6734e025c2d87c625531db37,2024-11-13_18h33.45.873,Tarea de género gramatical,2024.2.2,Win32,14.4092219,,,,,,,,,,,,,,,,,,,,,,,,520.9637,522.2313,a,1,0.5125,,[],[],[],[],[],[],[],0.5125,1,522.2314,522.7371,,,,,,1340,FEM,AGR,150,patada,la,a,522.7371,522.7372,-0.25,0.261111111,0,0,0,,0,52,52,439,1,,,,
,,,,,,88a1a89627a95ec26674f64e,66a626ef09d4e21e1a8894ec,6734e025c2d87c625531db37,2024-11-13_18h33.45.873,Tarea de género gramatical,2024.2.2,Win32,14.4092219,,,,,,,,,,,,,,,,,,,,,,,,522.7378,523.9258,l,1,0.4267,,[],[],[],[],[],[],[],0.4267,1,523.926,524.4311,,,,,,1092,MAS,CON,150,grupo,,l,524.4311,524.4312,-0.25,0.261111111,0,0,0,,0,53,53,191,1,,,,
,,,,,,88a1a89627a95ec26674f64e,66a626ef09d4e21e1a8894ec,6734e025c2d87c625531db37,2024-11-13_18h33.45.873,Tarea de género gramatical,2024.2.2,Win32,14.4092219,,,,,,,,,,,,,,,,,,,,,,,,524.4317,525.7051,a,1,0.5143,,[],[],[],[],[],[],[],0.5143,1,525.7052,526.2116,,,,,,1293,FEM,CON,150,alarma,,a,526.2116,526.2116,-0.25,0.261111111,0,0,0,,0,54,54,392,1,,,,
,,,,,,88a1a89627a95ec26674f64e,66a626ef09d4e21e1a8894ec,6734e025c2d87c625531db37,2024-11-13_18h33.45.873,Tarea de género gramatical,2024.2.2,Win32,14.4092219,,,,,,,,,,,,,,,,,,,,,,,,526.2122,527.4192,a,1,0.4281,,[],[],[],[],[],[],[],0.4281,1,527.4192,527.8577,,,,,,1305,FEM,CON,150,parada,,a,527.8577,527.8579,-0.25,0.261111111,0,0,0,,0,55,55,404,1,,,,
,,,,,,88a1a89627a95ec26674f64e,66a626ef09d4e21e1a8894ec,6734e025c2d87c625531db37,2024-11-13_18h33.45.873,Tarea de género gramatical,2024.2.2,Win32,14.4092219,,,,,,,,,,,,,,,,,,,,,,,,527.8586,529.4677,l,1,0.8477,,[],[],[],[],[],[],[],0.8477,1,529.4678,529.9755,,,,,,1078,MAS,DIS,150,punto,la,l,529.9762,529.9774,-0.25,0.261111111,0,0,0,,0,56,56,177,1,,,,
,,,,,,88a1a89627a95ec26674f64e,66a626ef09d4e21e1a8894ec,6734e025c2d87c625531db37,2024-11-13_18h33.45.873,Tarea de género gramatical,2024.2.2,Win32,14.4092219,,,,,,,,,,,,,,,,,,,,,,,,529.9777,531.2427,l,1,0.5103,,[],[],[],[],[],[],[],0.5103,1,531.2427,531.7477,,,,,,1246,MAS,DIS,150,juicio,la,l,531.7477,531.7478,-0.25,0.261111111,0,0,0,,0,57,57,345,1,,,,
,,,,,,88a1a89627a95ec26674f64e,66a626ef09d4e21e1a8894ec,6734e025c2d87c625531db37,2024-11-13_18h33.45.873,Tarea de género gramatical,2024.2.2,Win32,14.4092219,,,,,,,,,,,,,,,,,,,,,,,,531.7485,533.1964,a,1,0.6909,,[],[],[],[],[],[],[],0.6909,1,533.1965,533.7023,,,,,,974,FEM,AGR,150,flor,la,a,533.7023,533.7024,-0.25,0.261111111,0,0,0,,0,58,58,73,1,,,,
,,,,,,88a1a89627a95ec26674f64e,66a626ef09d4e21e1a8894ec,6734e025c2d87c625531db37,2024-11-13_18h33.45.873,Tarea de género gramatical,2024.2.2,Win32,14.4092219,,,,,,,,,,,,,,,,,,,,,,,,533.703,535.2215,l,1,0.7626,,[],[],[],[],[],[],[],0.7626,1,535.2215,535.7273,,,,,,1206,MAS,CON,150,dinero,,l,535.7274,535.7274,-0.25,0.261111111,0,0,0,,0,59,59,305,1,,,,
,,,,,,88a1a89627a95ec26674f64e,66a626ef09d4e21e1a8894ec,6734e025c2d87c625531db37,2024-11-13_18h33.45.873,Tarea de género gramatical,2024.2.2,Win32,14.4092219,,,,,,,,,,,,,,,,,,,,,,,,535.728,537.2484,l,1,0.7646,,[],[],[],[],[],[],[],0.7646,1,537.2485,537.7534,,,,,,1114,MAS,DIS,150,fondo,la,l,537.754,537.7552,-0.25,0.261111111,0,0,0,,0,60,60,213,1,,,,
,,,,,,88a1a89627a95ec26674f64e,66a626ef09d4e21e1a8894ec,6734e025c2d87c625531db37,2024-11-13_18h33.45.873,Tarea de género gramatical,2024.2.2,Win32,14.4092219,,,,,,,,,,,,,,,,,,,,,,,,537.7556,538.939,a,1,0.428,,[],[],[],[],[],[],[],0.428,1,538.9391,539.4453,,,,,,1208,FEM,AGR,150,semana,la,a,539.4453,539.4453,-0.25,0.261111111,0,0,0,,0,61,61,307,1,,,,
,,,,,,88a1a89627a95ec26674f64e,66a626ef09d4e21e1a8894ec,6734e025c2d87c625531db37,2024-11-13_18h33.45.873,Tarea de género gramatical,2024.2.2,Win32,14.4092219,,,,,,,,,,,,,,,,,,,,,,,,539.4459,540.7099,l,1,0.5112,,[],[],[],[],[],[],[],0.5112,1,540.71,541.2147,,,,,,1074,MAS,CON,150,perro,,l,541.2147,541.2148,-0.25,0.261111111,0,0,0,,0,62,62,173,1,,,,
,,,,,,88a1a89627a95ec26674f64e,66a626ef09d4e21e1a8894ec,6734e025c2d87c625531db37,2024-11-13_18h33.45.873,Tarea de género gramatical,2024.2.2,Win32,14.4092219,,,,,,,,,,,,,,,,,,,,,,,,541.2154,542.4797,l,1,0.5115,,[],[],[],[],[],[],[],0.5115,1,542.4798,542.9839,,,,,,1140,MAS,CON,150,ruido,,l,542.9839,542.984,-0.25,0.261111111,0,0,0,,0,63,63,239,1,,,,
,,,,,,88a1a89627a95ec26674f64e,66a626ef09d4e21e1a8894ec,6734e025c2d87c625531db37,2024-11-13_18h33.45.873,Tarea de género gramatical,2024.2.2,Win32,14.4092219,,,,,,,,,,,,,,,,,,,,,,,,542.9846,544.2576,a,1,0.5182,,[],[],[],[],[],[],[],0.5182,1,544.2577,544.7634,,,,,,1256,FEM,AGR,150,piedra,la,a,544.7634,544.7641,-0.25,0.261111111,0,0,0,,0,64,64,355,1,,,,
,,,,,,88a1a89627a95ec26674f64e,66a626ef09d4e21e1a8894ec,6734e025c2d87c625531db37,2024-11-13_18h33.45.873,Tarea de género gramatical,2024.2.2,Win32,14.4092219,,,,,,,,,,,,,,,,,,,,,,,,544.7669,546.0402,a,1,0.5115,,[],[],[],[],[],[],[],0.5115,1,546.0403,546.5451,,,,,,968,FEM,AGR,150,pata,la,a,546.5458,546.5469,-0.25,0.261111111,0,0,0,,0,65,65,67,1,,,,
,,,,,,88a1a89627a95ec26674f64e,66a626ef09d4e21e1a8894ec,6734e025c2d87c625531db37,2024-11-13_18h33.45.873,Tarea de género gramatical,2024.2.2,Win32,14.4092219,,,,,,,,,,,,,,,,,,,,,,,,546.5473,547.8144,l,1,0.5139,,[],[],[],[],[],[],[],0.5139,1,547.8144,548.3192,,,,,,1314,MAS,CON,150,sótano,,l,548.3192,548.3192,-0.25,0.261111111,0,0,0,,0,66,66,413,1,,,,
,,,,,,88a1a89627a95ec26674f64e,66a626ef09d4e21e1a8894ec,6734e025c2d87c625531db37,2024-11-13_18h33.45.873,Tarea de género gramatical,2024.2.2,Win32,14.4092219,,,,,,,,,,,,,,,,,,,,,,,,548.3198,549.5962,l,1,0.512,,[],[],[],[],[],[],[],0.512,1,549.5962,550.1017,,,,,,1079,MAS,AGR,150,viaje,el,l,550.1017,550.1018,-0.25,0.261111111,0,0,0,,0,67,67,178,1,,,,
,,,,,,88a1a89627a95ec26674f64e,66a626ef09d4e21e1a8894ec,6734e025c2d87c625531db37,2024-11-13_18h33.45.873,Tarea de género gramatical,2024.2.2,Win32,14.4092219,,,,,,,,,,,,,,,,,,,,,,,,550.1027,551.4572,a,1,0.5944,,[],[],[],[],[],[],[],0.5944,1,551.4573,551.9653,,,,,,909,FEM,CON,150,mamá,,a,551.9653,551.9654,-0.25,0.261111111,0,0,0,,0,68,68,8,1,,,,
,,,,,,88a1a89627a95ec26674f64e,66a626ef09d4e21e1a8894ec,6734e025c2d87c625531db37,2024-11-13_18h33.45.873,Tarea de género gramatical,2024.2.2,Win32,14.4092219,,,,,,,,,,,,,,,,,,,,,,,,551.9659,553.3127,a,1,0.5959,,[],[],[],[],[],[],[],0.5959,1,553.3129,553.8194,,,,,,939,FEM,CON,150,luna,,a,553.8201,553.8213,-0.25,0.261111111,0,0,0,,0,69,69,38,1,,,,
,,,,,,88a1a89627a95ec26674f64e,66a626ef09d4e21e1a8894ec,6734e025c2d87c625531db37,2024-11-13_18h33.45.873,Tarea de género gramatical,2024.2.2,Win32,14.4092219,,,,,,,,,,,,,,,,,,,,,,,,553.8216,555.0247,l,1,0.4456,,[],[],[],[],[],[],[],0.4456,1,555.0248,555.53,,,,,,1344,MAS,CON,150,límite,,l,555.53,555.5301,-0.25,0.261111111,0,0,0,,0,70,70,443,1,,,,
,,,,,,88a1a89627a95ec26674f64e,66a626ef09d4e21e1a8894ec,6734e025c2d87c625531db37,2024-11-13_18h33.45.873,Tarea de género gramatical,2024.2.2,Win32,14.4092219,,,,,,,,,,,,,,,,,,,,,,,,555.5308,556.8802,l,1,0.5962,,[],[],[],[],[],[],[],0.5962,1,556.8802,557.3848,,,,,,1031,MAS,AGR,150,kilo,el,l,557.3849,557.3849,-0.25,0.261111111,0,0,0,,0,71,71,130,1,,,,
,,,,,,88a1a89627a95ec26674f64e,66a626ef09d4e21e1a8894ec,6734e025c2d87c625531db37,2024-11-13_18h33.45.873,Tarea de género gramatical,2024.2.2,Win32,14.4092219,,,,,,,,,,,,,,,,,,,,,,,,557.3854,558.6507,l,1,0.5109,,[],[],[],[],[],[],[],0.5109,1,558.6508,559.1561,,,,,,972,MAS,CON,150,hoyo,,l,559.1561,559.1562,-0.25,0.261111111,0,0,0,,0,72,72,71,1,,,,
,,,,,,88a1a89627a95ec26674f64e,66a626ef09d4e21e1a8894ec,6734e025c2d87c625531db37,2024-11-13_18h33.45.873,Tarea de género gramatical,2024.2.2,Win32,14.4092219,,,,,,,,,,,,,,,,,,,,,,,,559.1568,560.4295,a,1,0.5122,,[],[],[],[],[],[],[],0.5122,1,560.4296,560.9352,,,,,,1346,FEM,AGR,150,bañera,la,a,560.9353,560.9354,-0.25,0.261111111,0,0,0,,0,73,73,445,1,,,,
,,,,,,88a1a89627a95ec26674f64e,66a626ef09d4e21e1a8894ec,6734e025c2d87c625531db37,2024-11-13_18h33.45.873,Tarea de género gramatical,2024.2.2,Win32,14.4092219,,,,,,,,,,,,,,,,,,,,,,,,560.9359,562.3719,l,1,0.6798,,[],[],[],[],[],[],[],0.6798,1,562.372,562.8762,,,,,,1013,MAS,AGR,150,toro,el,l,562.8768,562.878,-0.25,0.261111111,0,0,0,,0,74,74,112,1,,,,
,,,,,,88a1a89627a95ec26674f64e,66a626ef09d4e21e1a8894ec,6734e025c2d87c625531db37,2024-11-13_18h33.45.873,Tarea de género gramatical,2024.2.2,Win32,14.4092219,,,,,,,,,,,,,,,,,,,,,,,,562.8784,564.8202,l,1,1.1874,,[],[],[],[],[],[],[],1.1874,1,564.8203,565.3258,,,,,,1018,MAS,DIS,150,baúl,la,l,565.3258,565.3259,-0.25,0.261111111,0,0,0,,0,75,75,117,1,,,,
,,,,,,88a1a89627a95ec26674f64e,66a626ef09d4e21e1a8894ec,6734e025c2d87c625531db37,2024-11-13_18h33.45.873,Tarea de género gramatical,2024.2.2,Win32,14.4092219,,,,,,,,,,,,,,,,,,,,,,,,565.3264,567.0122,l,1,0.9318,,[],[],[],[],[],[],[],0.9318,1,567.0122,567.518,,,,,,1234,MAS,DIS,150,ataque,la,l,567.518,567.5181,-0.25,0.261111111,0,0,0,,0,76,76,333,1,,,,
,,,,,,88a1a89627a95ec26674f64e,66a626ef09d4e21e1a8894ec,6734e025c2d87c625531db37,2024-11-13_18h33.45.873,Tarea de género gramatical,2024.2.2,Win32,14.4092219,,,,,,,,,,,,,,,,,,,,,,,,567.5186,568.7064,l,1,0.4291,,[],[],[],[],[],[],[],0.4291,1,568.7064,569.2111,,,,,,1230,MAS,CON,150,estado,,l,569.2112,569.2112,-0.25,0.261111111,0,0,0,,0,77,77,329,1,,,,
,,,,,,88a1a89627a95ec26674f64e,66a626ef09d4e21e1a8894ec,6734e025c2d87c625531db37,2024-11-13_18h33.45.873,Tarea de género gramatical,2024.2.2,Win32,14.4092219,,,,,,,,,,,,,,,,,,,,,,,,569.2118,570.3938,l,1,0.4293,,[],[],[],[],[],[],[],0.4293,1,570.3939,570.8985,,,,,,1061,MAS,AGR,150,chico,el,l,570.8991,570.9003,-0.25,0.261111111,0,0,0,,0,78,78,160,1,,,,
,,,,,,88a1a89627a95ec26674f64e,66a626ef09d4e21e1a8894ec,6734e025c2d87c625531db37,2024-11-13_18h33.45.873,Tarea de género gramatical,2024.2.2,Win32,14.4092219,,,,,,,,,,,,,,,,,,,,,,,,570.9007,572.1647,l,1,0.51,,[],[],[],[],[],[],[],0.51,1,572.1648,572.6699,,,,,,1301,MAS,AGR,150,abrigo,el,l,572.6699,572.67,-0.25,0.261111111,0,0,0,,0,79,79,400,1,,,,
,,,,,,88a1a89627a95ec26674f64e,66a626ef09d4e21e1a8894ec,6734e025c2d87c625531db37,2024-11-13_18h33.45.873,Tarea de género gramatical,2024.2.2,Win32,14.4092219,,,,,,,,,,,,,,,,,,,,,,,,572.6705,574.0195,a,1,0.5951,,[],[],[],[],[],[],[],0.5951,1,574.0196,574.5237,,,,,,1129,FEM,DIS,150,celda,el,a,574.5237,574.5237,-0.25,0.261111111,0,0,0,,0,80,80,228,1,,,,
,,,,,,88a1a89627a95ec26674f64e,66a626ef09d4e21e1a8894ec,6734e025c2d87c625531db37,2024-11-13_18h33.45.873,Tarea de género gramatical,2024.2.2,Win32,14.4092219,,,,,,,,,,,,,,,,,,,,,,,,574.5243,575.874,l,1,0.5957,,[],[],[],[],[],[],[],0.5957,1,575.874,576.3799,,,,,,1242,MAS,CON,150,abuelo,,l,576.3799,576.38,-0.25,0.261111111,0,0,0,,0,81,81,341,1,,,,
,,,,,,88a1a89627a95ec26674f64e,66a626ef09d4e21e1a8894ec,6734e025c2d87c625531db37,2024-11-13_18h33.45.873,Tarea de género gramatical,2024.2.2,Win32,14.4092219,,,,,,,,,,,,,,,,,,,,,,,,576.3805,577.7828,l,1,0.6493,,[],[],[],[],[],[],[],0.6493,1,577.7828,578.2886,,,,,,1283,MAS,AGR,150,parque,el,l,578.2886,578.2886,-0.25,0.261111111,0,0,0,,0,82,82,382,1,,,,
,,,,,,88a1a89627a95ec26674f64e,66a626ef09d4e21e1a8894ec,6734e025c2d87c625531db37,2024-11-13_18h33.45.873,Tarea de género gramatical,2024.2.2,Win32,14.4092219,,,,,,,,,,,,,,,,,,,,,,,,578.2893,579.723,a,1,0.6808,,[],[],[],[],[],[],[],0.6808,1,579.723,580.2283,,,,,,1237,FEM,DIS,150,escena,el,a,580.2289,580.2301,-0.25,0.261111111,0,0,0,,0,83,83,336,1,,,,
,,,,,,88a1a89627a95ec26674f64e,66a626ef09d4e21e1a8894ec,6734e025c2d87c625531db37,2024-11-13_18h33.45.873,Tarea de género gramatical,2024.2.2,Win32,14.4092219,,,,,,,,,,,,,,,,,,,,,,,,580.2305,581.8336,a,1,0.8478,,[],[],[],[],[],[],[],0.8478,1,581.8336,582.3392,,,,,,1045,FEM,DIS,150,bota,el,a,582.3392,582.3393,-0.25,0.261111111,0,0,0,,0,84,84,144,1,,,,
,,,,,,88a1a89627a95ec26674f64e,66a626ef09d4e21e1a8894ec,6734e025c2d87c625531db37,2024-11-13_18h33.45.873,Tarea de género gramatical,2024.2.2,Win32,14.4092219,,,,,,,,,,,,,,,,,,,,,,,,582.3398,583.606,l,1,0.5118,,[],[],[],[],[],[],[],0.5118,1,583.606,584.11,,,,,,1174,MAS,DIS,150,motor,la,l,584.1101,584.1101,-0.25,0.261111111,0,0,0,,0,85,85,273,1,,,,
,,,,,,88a1a89627a95ec26674f64e,66a626ef09d4e21e1a8894ec,6734e025c2d87c625531db37,2024-11-13_18h33.45.873,Tarea de género gramatical,2024.2.2,Win32,14.4092219,,,,,,,,,,,,,,,,,,,,,,,,584.1107,585.2206,l,1,0.3567,,[],[],[],[],[],[],[],0.3567,1,585.2206,585.7245,,,,,,1182,MAS,CON,150,bolso,,l,585.7245,585.7245,-0.25,0.261111111,0,0,0,,0,86,86,281,1,,,,
,,,,,,88a1a89627a95ec26674f64e,66a626ef09d4e21e1a8894ec,6734e025c2d87c625531db37,2024-11-13_18h33.45.873,Tarea de género gramatical,2024.2.2,Win32,14.4092219,,,,,,,,,,,,,,,,,,,,,,,,585.7251,587.0155,a,1,0.5185,,[],[],[],[],[],[],[],0.5185,1,587.0156,587.5283,,,,,,1100,FEM,AGR,150,silla,la,a,587.5289,587.5302,-0.25,0.261111111,0,0,0,,0,87,87,199,1,,,,
,,,,,,88a1a89627a95ec26674f64e,66a626ef09d4e21e1a8894ec,6734e025c2d87c625531db37,2024-11-13_18h33.45.873,Tarea de género gramatical,2024.2.2,Win32,14.4092219,,,,,,,,,,,,,,,,,,,,,,,,587.5306,589.2992,a,1,1.0156,,[],[],[],[],[],[],[],1.0156,1,589.2992,589.805,,,,,,1135,FEM,DIS,150,torre,el,a,589.8051,589.8051,-0.25,0.261111111,0,0,0,,0,88,88,234,1,,,,
,,,,,,88a1a89627a95ec26674f64e,66a626ef09d4e21e1a8894ec,6734e025c2d87c625531db37,2024-11-13_18h33.45.873,Tarea de género gramatical,2024.2.2,Win32,14.4092219,,,,,,,,,,,,,,,,,,,,,,,,589.8057,591.4109,l,1,0.848,,[],[],[],[],[],[],[],0.848,1,591.4109,591.9163,,,,,,1030,MAS,DIS,150,yate,la,l,591.9163,591.9163,-0.25,0.261111111,0,0,0,,0,89,89,129,1,,,,
,,,,,,88a1a89627a95ec26674f64e,66a626ef09d4e21e1a8894ec,6734e025c2d87c625531db37,2024-11-13_18h33.45.873,Tarea de género gramatical,2024.2.2,Win32,14.4092219,,,,,,,,,,,,,,,,,,,,,,,,591.9169,593.2699,l,1,0.5968,,[],[],[],[],[],[],[],0.5968,1,593.27,593.7752,,,,,,911,MAS,AGR,150,país,el,l,593.7753,593.7754,-0.25,0.261111111,0,0,0,,0,90,90,10,1,,,,
,,,,,,88a1a89627a95ec26674f64e,66a626ef09d4e21e1a8894ec,6734e025c2d87c625531db37,2024-11-13_18h33.45.873,Tarea de género gramatical,2024.2.2,Win32,14.4092219,,,,,,,,,,,,,,,,,,,,,,,,593.7759,594.9641,l,1,0.4341,,[],[],[],[],[],[],[],0.4341,1,594.9641,595.4685,,,,,,1127,MAS,AGR,150,vuelo,el,l,595.4685,595.4686,-0.25,0.261111111,0,0,0,,0,91,91,226,1,,,,
,,,,,,88a1a89627a95ec26674f64e,66a626ef09d4e21e1a8894ec,6734e025c2d87c625531db37,2024-11-13_18h33.45.873,Tarea de género gramatical,2024.2.2,Win32,14.4092219,,,,,,,,,,,,,,,,,,,,,,,,595.4691,596.8997,a,1,0.6782,,[],[],[],[],[],[],[],0.6782,1,596.8998,597.4064,,,,,,1298,FEM,AGR,150,hierba,la,a,597.407,597.4084,-0.25,0.261111111,0,0,0,,0,92,92,397,1,,,,
,,,,,,88a1a89627a95ec26674f64e,66a626ef09d4e21e1a8894ec,6734e025c2d87c625531db37,2024-11-13_18h33.45.873,Tarea de género gramatical,2024.2.2,Win32,14.4092219,,,,,,,,,,,,,,,,,,,,,,,,597.4088,598.8417,a,1,0.6788,,[],[],[],[],[],[],[],0.6788,1,598.8417,599.3523,,,,,,1250,FEM,AGR,150,imagen,la,a,599.3523,599.3524,-0.25,0.261111111,0,0,0,,0,93,93,349,1,,,,
,,,,,,88a1a89627a95ec26674f64e,66a626ef09d4e21e1a8894ec,6734e025c2d87c625531db37,2024-11-13_18h33.45.873,Tarea de género gramatical,2024.2.2,Win32,14.4092219,,,,,,,,,,,,,,,,,,,,,,,,599.3529,600.7059,a,1,0.5991,,[],[],[],[],[],[],[],0.5991,1,600.706,601.2101,,,,,,1077,FEM,CON,150,broma,,a,601.2101,601.2102,-0.25,0.261111111,0,0,0,,0,94,94,176,1,,,,
,,,,,,88a1a89627a95ec26674f64e,66a626ef09d4e21e1a8894ec,6734e025c2d87c625531db37,2024-11-13_18h33.45.873,Tarea de género gramatical,2024.2.2,Win32,14.4092219,,,,,,,,,,,,,,,,,,,,,,,,601.2107,602.4761,a,1,0.5106,,[],[],[],[],[],[],[],0.5106,1,602.4762,602.9818,,,,,,1083,FEM,CON,150,llave,,a,602.9819,602.982,-0.25,0.261111111,0,0,0,,0,95,95,182,1,,,,
,,,,,,88a1a89627a95ec26674f64e,66a626ef09d4e21e1a8894ec,6734e025c2d87c625531db37,2024-11-13_18h33.45.873,Tarea de género gramatical,2024.2.2,Win32,14.4092219,,,,,,,,,,,,,,,,,,,,,,,,602.9825,604.2453,a,1,0.5109,,[],[],[],[],[],[],[],0.5109,1,604.2453,604.7494,,,,,,1203,FEM,CON,150,maldad,,a,604.75,604.7512,-0.25,0.261111111,0,0,0,,0,96,96,302,1,,,,
,,,,,,88a1a89627a95ec26674f64e,66a626ef09d4e21e1a8894ec,6734e025c2d87c625531db37,2024-11-13_18h33.45.873,Tarea de género gramatical,2024.2.2,Win32,14.4092219,,,,,,,,,,,,,,,,,,,,,,,,604.7516,606.6199,a,1,1.112,,[],[],[],[],[],[],[],1.112,1,606.6199,607.1302,,,,,,1172,FEM,AGR,150,oreja,la,a,607.1303,607.1303,-0.25,0.261111111,0,0,0,,0,97,97,271,1,,,,
,,,,,,88a1a89627a95ec26674f64e,66a626ef09d4e21e1a8894ec,6734e025c2d87c625531db37,2024-11-13_18h33.45.873,Tarea de género gramatical,2024.2.2,Win32,14.4092219,,,,,,,,,,,,,,,,,,,,,,,,607.131,608.9021,l,0,1.0165,,[],[],[],[],[],[],[],1.0165,0,608.9025,609.4071,,,,,,997,FEM,DIS,150,capa,el,a,609.4072,609.4072,-0.25,0.261111111,0,0,0,,0,98,98,96,1,,,,
,,,,,,88a1a89627a95ec26674f64e,66a626ef09d4e21e1a8894ec,6734e025c2d87c625531db37,2024-11-13_18h33.45.873,Tarea de género gramatical,2024.2.2,Win32,14.4092219,,,,,,,,,,,,,,,,,,,,,,,,609.4078,611.0329,a,1,0.8699,,[],[],[],[],[],[],[],0.8699,1,611.0338,611.5407,,,,,,1053,FEM,CON,150,mujer,,a,611.5408,611.5408,-0.25,0.261111111,0,0,0,,0,99,99,152,1,,,,
,,,,,,88a1a89627a95ec26674f64e,66a626ef09d4e21e1a8894ec,6734e025c2d87c625531db37,2024-11-13_18h33.45.873,Tarea de género gramatical,2024.2.2,Win32,14.4092219,,,,,,,,,,,,,,,,,,,,,,,,611.5413,613.0589,l,1,0.7636,,[],[],[],[],[],[],[],0.7636,1,613.0589,613.5637,,,,,,1192,MAS,DIS,150,piano,la,l,613.5637,613.5638,-0.25,0.261111111,0,0,0,,0,100,100,291,1,,,,
,,,,,,88a1a89627a95ec26674f64e,66a626ef09d4e21e1a8894ec,6734e025c2d87c625531db37,2024-11-13_18h33.45.873,Tarea de género gramatical,2024.2.2,Win32,14.4092219,,,,,,,,,,,,,,,,,,,,,,,,613.5643,614.9163,a,1,0.5974,,[],[],[],[],[],[],[],0.5974,1,614.9163,615.423,,,,,,1334,FEM,AGR,150,corona,la,a,615.4236,615.4248,-0.25,0.261111111,0,0,0,,0,101,101,433,1,,,,
,,,,,,88a1a89627a95ec26674f64e,66a626ef09d4e21e1a8894ec,6734e025c2d87c625531db37,2024-11-13_18h33.45.873,Tarea de género gramatical,2024.2.2,Win32,14.4092219,,,,,,,,,,,,,,,,,,,,,,,,615.4251,617.7836,a,1,1.6039,,[],[],[],[],[],[],[],1.6039,1,617.7838,618.2895,,,,,,961,FEM,DIS,150,ruta,el,a,618.2896,618.2896,-0.25,0.261111111,0,0,0,,0,102,102,60,1,,,,
,,,,,,88a1a89627a95ec26674f64e,66a626ef09d4e21e1a8894ec,6734e025c2d87c625531db37,2024-11-13_18h33.45.873,Tarea de género gramatical,2024.2.2,Win32,14.4092219,,,,,,,,,,,,,,,,,,,,,,,,618.2901,619.6411,l,1,0.5956,,[],[],[],[],[],[],[],0.5956,1,619.6413,620.148,,,,,,1049,MAS,AGR,150,nudo,el,l,620.148,620.148,-0.25,0.261111111,0,0,0,,0,103,103,148,1,,,,
,,,,,,88a1a89627a95ec26674f64e,66a626ef09d4e21e1a8894ec,6734e025c2d87c625531db37,2024-11-13_18h33.45.873,Tarea de género gramatical,2024.2.2,Win32,14.4092219,,,,,,,,,,,,,,,,,,,,,,,,620.1486,621.4137,l,1,0.5103,,[],[],[],[],[],[],[],0.5103,1,621.4138,621.9228,,,,,,1000,MAS,DIS,150,nido,la,l,621.9228,621.9228,-0.25,0.261111111,0,0,0,,0,104,104,99,1,,,,
,,,,,,88a1a89627a95ec26674f64e,66a626ef09d4e21e1a8894ec,6734e025c2d87c625531db37,2024-11-13_18h33.45.873,Tarea de género gramatical,2024.2.2,Win32,14.4092219,,,,,,,,,,,,,,,,,,,,,,,,621.9236,623.277,l,1,0.5976,,[],[],[],[],[],[],[],0.5976,1,623.2771,623.7859,,,,,,942,MAS,CON,150,show,,l,623.7866,623.7878,-0.25,0.261111111,0,0,0,,0,105,105,41,1,,,,
,,,,,,88a1a89627a95ec26674f64e,66a626ef09d4e21e1a8894ec,6734e025c2d87c625531db37,2024-11-13_18h33.45.873,Tarea de género gramatical,2024.2.2,Win32,14.4092219,,,,,,,,,,,,,,,,,,,,,,,,623.7883,625.276,a,1,0.7101,,[],[],[],[],[],[],[],0.7101,1,625.2761,625.7827,,,,,,1257,FEM,CON,150,lengua,,a,625.7827,625.7827,-0.25,0.261111111,0,0,0,,0,106,106,356,1,,,,
,,,,,,88a1a89627a95ec26674f64e,66a626ef09d4e21e1a8894ec,6734e025c2d87c625531db37,2024-11-13_18h33.45.873,Tarea de género gramatical,2024.2.2,Win32,14.4092219,,,,,,,,,,,,,,,,,,,,,,,,625.7833,627.1326,l,1,0.5941,,[],[],[],[],[],[],[],0.5941,1,627.1326,627.637,,,,,,1098,MAS,CON,150,hotel,,l,627.6371,627.6371,-0.25,0.261111111,0,0,0,,0,107,107,197,1,,,,
,,,,,,88a1a89627a95ec26674f64e,66a626ef09d4e21e1a8894ec,6734e025c2d87c625531db37,2024-11-13_18h33.45.873,Tarea de género gramatical,2024.2.2,Win32,14.4092219,,,,,,,,,,,,,,,,,,,,,,,,627.6376,628.9878,a,1,0.5957,,[],[],[],[],[],[],[],0.5957,1,628.9879,629.4944,,,,,,1281,FEM,CON,150,bebida,,a,629.4944,629.4944,-0.25,0.261111111,0,0,0,,0,108,108,380,1,,,,
,,,,,,88a1a89627a95ec26674f64e,66a626ef09d4e21e1a8894ec,6734e025c2d87c625531db37,2024-11-13_18h33.45.873,Tarea de género gramatical,2024.2.2,Win32,14.4092219,,,,,,,,,,,,,,,,,,,,,,,,629.4949,630.7571,l,1,0.5098,,[],[],[],[],[],[],[],0.5098,1,630.7572,631.2646,,,,,,936,MAS,CON,150,dedo,,l,631.2646,631.2647,-0.25,0.261111111,0,0,0,,0,109,109,35,1,,,,
,,,,,,88a1a89627a95ec26674f64e,66a626ef09d4e21e1a8894ec,6734e025c2d87c625531db37,2024-11-13_18h33.45.873,Tarea de género gramatical,2024.2.2,Win32,14.4092219,,,,,,,,,,,,,,,,,,,,,,,,631.2652,632.4466,l,1,0.4276,,[],[],[],[],[],[],[],0.4276,1,632.4467,632.9522,,,,,,1073,MAS,AGR,150,libro,el,l,632.9528,632.954,-0.25,0.261111111,0,0,0,,0,110,110,172,1,,,,
,,,,,,88a1a89627a95ec26674f64e,66a626ef09d4e21e1a8894ec,6734e025c2d87c625531db37,2024-11-13_18h33.45.873,Tarea de género gramatical,2024.2.2,Win32,14.4092219,,,,,,,,,,,,,,,,,,,,,,,,632.9544,634.052,a,1,0.3447,,[],[],[],[],[],[],[],0.3447,1,634.0521,634.5565,,,,,,962,FEM,AGR,150,sopa,la,a,634.5565,634.5566,-0.25,0.261111111,0,0,0,,0,111,111,61,1,,,,
,,,,,,88a1a89627a95ec26674f64e,66a626ef09d4e21e1a8894ec,6734e025c2d87c625531db37,2024-11-13_18h33.45.873,Tarea de género gramatical,2024.2.2,Win32,14.4092219,,,,,,,,,,,,,,,,,,,,,,,,634.5573,635.8252,a,1,0.5124,,[],[],[],[],[],[],[],0.5124,1,635.8253,636.2581,,,,,,1219,FEM,DIS,150,sangre,el,a,636.2582,636.2582,-0.25,0.261111111,0,0,0,,0,112,112,318,1,,,,
,,,,,,88a1a89627a95ec26674f64e,66a626ef09d4e21e1a8894ec,6734e025c2d87c625531db37,2024-11-13_18h33.45.873,Tarea de género gramatical,2024.2.2,Win32,14.4092219,,,,,,,,,,,,,,,,,,,,,,,,636.259,637.8114,a,1,0.7695,,[],[],[],[],[],[],[],0.7695,1,637.8115,638.3151,,,,,,1081,FEM,DIS,150,tarde,el,a,638.3151,638.3152,-0.25,0.261111111,0,0,0,,0,113,113,180,1,,,,
,,,,,,88a1a89627a95ec26674f64e,66a626ef09d4e21e1a8894ec,6734e025c2d87c625531db37,2024-11-13_18h33.45.873,Tarea de género gramatical,2024.2.2,Win32,14.4092219,,,,,,,,,,,,,,,,,,,,,,,,638.3157,639.4943,l,1,0.4267,,[],[],[],[],[],[],[],0.4267,1,639.4943,640.0005,,,,,,918,MAS,CON,150,tren,,l,640.0011,640.0023,-0.25,0.261111111,0,0,0,,0,114,114,17,1,,,,
,,,,,,88a1a89627a95ec26674f64e,66a626ef09d4e21e1a8894ec,6734e025c2d87c625531db37,2024-11-13_18h33.45.873,Tarea de género gramatical,2024.2.2,Win32,14.4092219,,,,,,,,,,,,,,,,,,,,,,,,640.0027,641.3653,l,1,0.6075,,[],[],[],[],[],[],[],0.6075,1,641.3653,641.8707,,,,,,1348,MAS,DIS,150,aceite,la,l,641.8707,641.8708,-0.25,0.261111111,0,0,0,,0,115,115,447,1,,,,
,,,,,,88a1a89627a95ec26674f64e,66a626ef09d4e21e1a8894ec,6734e025c2d87c625531db37,2024-11-13_18h33.45.873,Tarea de género gramatical,2024.2.2,Win32,14.4092219,,,,,,,,,,,,,,,,,,,,,,,,641.8714,643.3959,a,1,0.7709,,[],[],[],[],[],[],[],0.7709,1,643.3959,643.9005,,,,,,1345,FEM,DIS,150,bondad,el,a,643.9005,643.9005,-0.25,0.261111111,0,0,0,,0,116,116,444,1,,,,
,,,,,,88a1a89627a95ec26674f64e,66a626ef09d4e21e1a8894ec,6734e025c2d87c625531db37,2024-11-13_18h33.45.873,Tarea de género gramatical,2024.2.2,Win32,14.4092219,,,,,,,,,,,,,,,,,,,,,,,,643.9012,645.1767,l,1,0.5221,,[],[],[],[],[],[],[],0.5221,1,645.1767,645.6908,,,,,,1331,MAS,AGR,150,veneno,el,l,645.6908,645.6909,-0.25,0.261111111,0,0,0,,0,117,117,430,1,,,,
,,,,,,88a1a89627a95ec26674f64e,66a626ef09d4e21e1a8894ec,6734e025c2d87c625531db37,2024-11-13_18h33.45.873,Tarea de género gramatical,2024.2.2,Win32,14.4092219,,,,,,,,,,,,,,,,,,,,,,,,645.6914,647.1213,l,1,0.6787,,[],[],[],[],[],[],[],0.6787,1,647.1213,647.6266,,,,,,1032,MAS,CON,150,velo,,l,647.6267,647.6267,-0.25,0.261111111,0,0,0,,0,118,118,131,1,,,,
,,,,,,88a1a89627a95ec26674f64e,66a626ef09d4e21e1a8894ec,6734e025c2d87c625531db37,2024-11-13_18h33.45.873,Tarea de género gramatical,2024.2.2,Win32,14.4092219,,,,,,,,,,,,,,,,,,,,,,,,647.6273,648.8922,l,1,0.5117,,[],[],[],[],[],[],[],0.5117,1,648.8922,649.3973,,,,,,1187,MAS,AGR,150,plato,el,l,649.3979,649.399,-0.25,0.261111111,0,0,0,,0,119,119,286,1,,,,
,,,,,,88a1a89627a95ec26674f64e,66a626ef09d4e21e1a8894ec,6734e025c2d87c625531db37,2024-11-13_18h33.45.873,Tarea de género gramatical,2024.2.2,Win32,14.4092219,,,,,,,,,,,,,,,,,,,,,,,,649.3994,650.5896,a,1,0.4269,,[],[],[],[],[],[],[],0.4269,1,650.5896,651.0945,,,,,,1245,FEM,CON,150,pierna,,a,651.0945,651.0947,-0.25,0.261111111,0,0,0,,0,120,120,344,1,,,,
,,,,,,88a1a89627a95ec26674f64e,66a626ef09d4e21e1a8894ec,6734e025c2d87c625531db37,2024-11-13_18h33.45.873,Tarea de género gramatical,2024.2.2,Win32,14.4092219,,,,,,,,,,,,,,,,,,,,,,,,651.0951,652.4531,l,1,0.6049,,[],[],[],[],[],[],[],0.6049,1,652.4532,652.9573,,,,,,1084,MAS,DIS,150,cielo,la,l,652.9573,652.9574,-0.25,0.261111111,0,0,0,,0,121,121,183,1,,,,
,,,,,,88a1a89627a95ec26674f64e,66a626ef09d4e21e1a8894ec,6734e025c2d87c625531db37,2024-11-13_18h33.45.873,Tarea de género gramatical,2024.2.2,Win32,14.4092219,,,,,,,,,,,,,,,,,,,,,,,,652.958,654.7306,a,1,1.0183,,[],[],[],[],[],[],[],1.0183,1,654.7307,655.2369,,,,,,955,FEM,DIS,150,taza,el,a,655.2369,655.2369,-0.25,0.261111111,0,0,0,,0,122,122,54,1,,,,
,,,,,,88a1a89627a95ec26674f64e,66a626ef09d4e21e1a8894ec,6734e025c2d87c625531db37,2024-11-13_18h33.45.873,Tarea de género gramatical,2024.2.2,Win32,14.4092219,,,,,,,,,,,,,,,,,,,,,,,,655.2375,656.6717,a,1,0.6813,,[],[],[],[],[],[],[],0.6813,1,656.6717,657.177,,,,,,1333,FEM,DIS,150,huella,el,a,657.1777,657.179,-0.25,0.261111111,0,0,0,,0,123,123,432,1,,,,
,,,,,,88a1a89627a95ec26674f64e,66a626ef09d4e21e1a8894ec,6734e025c2d87c625531db37,2024-11-13_18h33.45.873,Tarea de género gramatical,2024.2.2,Win32,14.4092219,,,,,,,,,,,,,,,,,,,,,,,,657.1793,658.4506,l,1,0.5118,,[],[],[],[],[],[],[],0.5118,1,658.4507,658.9623,,,,,,1188,MAS,CON,150,grado,,l,658.9623,658.9623,-0.25,0.261111111,0,0,0,,0,124,124,287,1,,,,
,,,,,,88a1a89627a95ec26674f64e,66a626ef09d4e21e1a8894ec,6734e025c2d87c625531db37,2024-11-13_18h33.45.873,Tarea de género gramatical,2024.2.2,Win32,14.4092219,,,,,,,,,,,,,,,,,,,,,,,,658.9629,660.5671,l,1,0.8498,,[],[],[],[],[],[],[],0.8498,1,660.5672,661.0727,,,,,,994,MAS,DIS,150,cabo,la,l,661.0727,661.0727,-0.25,0.261111111,0,0,0,,0,125,125,93,1,,,,
,,,,,,88a1a89627a95ec26674f64e,66a626ef09d4e21e1a8894ec,6734e025c2d87c625531db37,2024-11-13_18h33.45.873,Tarea de género gramatical,2024.2.2,Win32,14.4092219,,,,,,,,,,,,,,,,,,,,,,,,661.0733,662.3373,a,1,0.5102,,[],[],[],[],[],[],[],0.5102,1,662.3374,662.8531,,,,,,937,FEM,DIS,150,sala,el,a,662.8531,662.8531,-0.25,0.261111111,0,0,0,,0,126,126,36,1,,,,
,,,,,,88a1a89627a95ec26674f64e,66a626ef09d4e21e1a8894ec,6734e025c2d87c625531db37,2024-11-13_18h33.45.873,Tarea de género gramatical,2024.2.2,Win32,14.4092219,,,,,,,,,,,,,,,,,,,,,,,,662.854,664.1623,l,1,0.5105,,[],[],[],[],[],[],[],0.5105,1,664.1624,664.6689,,,,,,1175,MAS,AGR,150,disco,el,l,664.6689,664.669,-0.25,0.261111111,0,0,0,,0,127,127,274,1,,,,
,,,,,,88a1a89627a95ec26674f64e,66a626ef09d4e21e1a8894ec,6734e025c2d87c625531db37,2024-11-13_18h33.45.873,Tarea de género gramatical,2024.2.2,Win32,14.4092219,,,,,,,,,,,,,,,,,,,,,,,,664.6695,666.0191,a,1,0.5959,,[],[],[],[],[],[],[],0.5959,1,666.0192,666.5243,,,,,,1309,FEM,DIS,150,moneda,el,a,666.5249,666.5262,-0.25,0.261111111,0,0,0,,0,128,128,408,1,,,,
,,,,,,88a1a89627a95ec26674f64e,66a626ef09d4e21e1a8894ec,6734e025c2d87c625531db37,2024-11-13_18h33.45.873,Tarea de género gramatical,2024.2.2,Win32,14.4092219,,,,,,,,,,,,,,,,,,,,,,,,666.5265,668.075,a,1,0.7778,,[],[],[],[],[],[],[],0.7778,1,668.0751,668.5808,,,,,,1111,FEM,DIS,150,salud,el,a,668.5809,668.5809,-0.25,0.261111111,0,0,0,,0,129,129,210,1,,,,
,,,,,,88a1a89627a95ec26674f64e,66a626ef09d4e21e1a8894ec,6734e025c2d87c625531db37,2024-11-13_18h33.45.873,Tarea de género gramatical,2024.2.2,Win32,14.4092219,,,,,,,,,,,,,,,,,,,,,,,,668.5815,669.931,l,1,0.5949,,[],[],[],[],[],[],[],0.5949,1,669.9311,670.4356,,,,,,1319,MAS,AGR,150,cuento,el,l,670.4356,670.4357,-0.25,0.261111111,0,0,0,,0,130,130,418,1,,,,
,,,,,,88a1a89627a95ec26674f64e,66a626ef09d4e21e1a8894ec,6734e025c2d87c625531db37,2024-11-13_18h33.45.873,Tarea de género gramatical,2024.2.2,Win32,14.4092219,,,,,,,,,,,,,,,,,,,,,,,,670.4363,671.7963,l,1,0.5943,,[],[],[],[],[],[],[],0.5943,1,671.7963,672.302,,,,,,1156,MAS,DIS,150,techo,la,l,672.3021,672.3021,-0.25,0.261111111,0,0,0,,0,131,131,255,1,,,,
,,,,,,88a1a89627a95ec26674f64e,66a626ef09d4e21e1a8894ec,6734e025c2d87c625531db37,2024-11-13_18h33.45.873,Tarea de género gramatical,2024.2.2,Win32,14.4092219,,,,,,,,,,,,,,,,,,,,,,,,672.3027,673.4818,l,1,0.427,,[],[],[],[],[],[],[],0.427,1,673.4819,673.988,,,,,,1133,MAS,AGR,150,golpe,el,l,673.9887,673.99,-0.25,0.261111111,0,0,0,,0,132,132,232,1,,,,
,,,,,,88a1a89627a95ec26674f64e,66a626ef09d4e21e1a8894ec,6734e025c2d87c625531db37,2024-11-13_18h33.45.873,Tarea de género gramatical,2024.2.2,Win32,14.4092219,,,,,,,,,,,,,,,,,,,,,,,,673.9903,675.321,a,1,0.5949,,[],[],[],[],[],[],[],0.5949,1,675.321,675.828,,,,,,1327,FEM,DIS,150,agenda,el,a,675.8281,675.8281,-0.25,0.261111111,0,0,0,,0,133,133,426,1,,,,
,,,,,,88a1a89627a95ec26674f64e,66a626ef09d4e21e1a8894ec,6734e025c2d87c625531db37,2024-11-13_18h33.45.873,Tarea de género gramatical,2024.2.2,Win32,14.4092219,,,,,,,,,,,,,,,,,,,,,,,,675.8287,677.3491,a,1,0.7643,,[],[],[],[],[],[],[],0.7643,1,677.3492,677.8538,,,,,,1148,FEM,AGR,150,letra,la,a,677.8538,677.8539,-0.25,0.261111111,0,0,0,,0,134,134,247,1,,,,
,,,,,,88a1a89627a95ec26674f64e,66a626ef09d4e21e1a8894ec,6734e025c2d87c625531db37,2024-11-13_18h33.45.873,Tarea de género gramatical,2024.2.2,Win32,14.4092219,,,,,,,,,,,,,,,,,,,,,,,,677.8544,679.2035,a,1,0.5951,,[],[],[],[],[],[],[],0.5951,1,679.2035,679.7073,,,,,,1113,FEM,CON,150,magia,,a,679.7073,679.7074,-0.25,0.261111111,0,0,0,,0,135,135,212,1,,,,
,,,,,,88a1a89627a95ec26674f64e,66a626ef09d4e21e1a8894ec,6734e025c2d87c625531db37,2024-11-13_18h33.45.873,Tarea de género gramatical,2024.2.2,Win32,14.4092219,,,,,,,,,,,,,,,,,,,,,,,,679.7079,681.141,l,1,0.6795,,[],[],[],[],[],[],[],0.6795,1,681.1411,681.6461,,,,,,1337,MAS,AGR,150,hombro,el,l,681.6462,681.6462,-0.25,0.261111111,0,0,0,,0,136,136,436,1,,,,
,,,,,,88a1a89627a95ec26674f64e,66a626ef09d4e21e1a8894ec,6734e025c2d87c625531db37,2024-11-13_18h33.45.873,Tarea de género gramatical,2024.2.2,Win32,14.4092219,,,,,,,,,,,,,,,,,,,,,,,,681.6468,683.0805,l,1,0.6771,,[],[],[],[],[],[],[],0.6771,1,683.0806,683.5888,,,,,,1162,MAS,DIS,150,video,la,l,683.5894,683.5905,-0.25,0.261111111,0,0,0,,0,137,137,261,1,,,,
,,,,,,88a1a89627a95ec26674f64e,66a626ef09d4e21e1a8894ec,6734e025c2d87c625531db37,2024-11-13_18h33.45.873,Tarea de género gramatical,2024.2.2,Win32,14.4092219,,,,,,,,,,,,,,,,,,,,,,,,683.5909,685.0273,a,1,0.6783,,[],[],[],[],[],[],[],0.6783,1,685.0273,685.5325,,,,,,1070,FEM,AGR,150,carta,la,a,685.5325,685.5326,-0.25,0.261111111,0,0,0,,0,138,138,169,1,,,,
,,,,,,88a1a89627a95ec26674f64e,66a626ef09d4e21e1a8894ec,6734e025c2d87c625531db37,2024-11-13_18h33.45.873,Tarea de género gramatical,2024.2.2,Win32,14.4092219,,,,,,,,,,,,,,,,,,,,,,,,685.5332,686.8865,a,1,0.5923,,[],[],[],[],[],[],[],0.5923,1,686.8866,687.3937,,,,,,1041,FEM,CON,150,cera,,a,687.3937,687.3938,-0.25,0.261111111,0,0,0,,0,139,139,140,1,,,,
,,,,,,88a1a89627a95ec26674f64e,66a626ef09d4e21e1a8894ec,6734e025c2d87c625531db37,2024-11-13_18h33.45.873,Tarea de género gramatical,2024.2.2,Win32,14.4092219,,,,,,,,,,,,,,,,,,,,,,,,687.3943,688.7453,a,1,0.5991,,[],[],[],[],[],[],[],0.5991,1,688.7453,689.2506,,,,,,1101,FEM,CON,150,leche,,a,689.2506,689.2507,-0.25,0.261111111,0,0,0,,0,140,140,200,1,,,,
,,,,,,88a1a89627a95ec26674f64e,66a626ef09d4e21e1a8894ec,6734e025c2d87c625531db37,2024-11-13_18h33.45.873,Tarea de género gramatical,2024.2.2,Win32,14.4092219,,,,,,,,,,,,,,,,,,,,,,,,689.2512,690.5244,l,1,0.5191,,[],[],[],[],[],[],[],0.5191,1,690.5245,691.0293,,,,,,1236,MAS,CON,150,crimen,,l,691.0299,691.0311,-0.25,0.261111111,0,0,0,,0,141,141,335,1,,,,
,,,,,,88a1a89627a95ec26674f64e,66a626ef09d4e21e1a8894ec,6734e025c2d87c625531db37,2024-11-13_18h33.45.873,Tarea de género gramatical,2024.2.2,Win32,14.4092219,,,,,,,,,,,,,,,,,,,,,,,,691.0315,692.2123,a,1,0.4254,,[],[],[],[],[],[],[],0.4254,1,692.2123,692.7192,,,,,,1190,FEM,AGR,150,cabra,la,a,692.7192,692.7192,-0.25,0.261111111,0,0,0,,0,142,142,289,1,,,,
,,,,,,88a1a89627a95ec26674f64e,66a626ef09d4e21e1a8894ec,6734e025c2d87c625531db37,2024-11-13_18h33.45.873,Tarea de género gramatical,2024.2.2,Win32,14.4092219,,,,,,,,,,,,,,,,,,,,,,,,692.7199,694.0817,a,1,0.6054,,[],[],[],[],[],[],[],0.6054,1,694.0818,694.588,,,,,,1243,FEM,DIS,150,trampa,el,a,694.5881,694.5881,-0.25,0.261111111,0,0,0,,0,143,143,342,1,,,,
,,,,,,88a1a89627a95ec26674f64e,66a626ef09d4e21e1a8894ec,6734e025c2d87c625531db37,2024-11-13_18h33.45.873,Tarea de género gramatical,2024.2.2,Win32,14.4092219,,,,,,,,,,,,,,,,,,,,,,,,694.5886,695.9375,a,1,0.5938,,[],[],[],[],[],[],[],0.5938,1,695.9375,696.4479,,,,,,1323,FEM,CON,150,poesía,,a,696.448,696.4481,-0.25,0.261111111,0,0,0,,0,144,144,422,1,,,,
,,,,,,88a1a89627a95ec26674f64e,66a626ef09d4e21e1a8894ec,6734e025c2d87c625531db37,2024-11-13_18h33.45.873,Tarea de género gramatical,2024.2.2,Win32,14.4092219,,,,,,,,,,,,,,,,,,,,,,,,696.4486,698.0975,l,0,0.8909,,[],[],[],[],[],[],[],0.8909,0,698.0979,698.6047,,,,,,1136,FEM,AGR,150,deuda,la,a,698.6048,698.6048,-0.25,0.261111111,0,0,0,,0,145,145,235,1,,,,
,,,,,,88a1a89627a95ec26674f64e,66a626ef09d4e21e1a8894ec,6734e025c2d87c625531db37,2024-11-13_18h33.45.873,Tarea de género gramatical,2024.2.2,Win32,14.4092219,,,,,,,,,,,,,,,,,,,,,,,,698.6054,700.6276,l,0,1.2673,,[],[],[],[],[],[],[],1.2673,0,700.6276,701.1394,,,,,,1285,FEM,DIS,150,muñeca,el,a,701.14,701.1412,-0.25,0.261111111,0,0,0,,0,146,146,384,1,,,,
,,,,,,88a1a89627a95ec26674f64e,66a626ef09d4e21e1a8894ec,6734e025c2d87c625531db37,2024-11-13_18h33.45.873,Tarea de género gramatical,2024.2.2,Win32,14.4092219,,,,,,,,,,,,,,,,,,,,,,,,701.1416,702.6776,a,1,0.7721,,[],[],[],[],[],[],[],0.7721,1,702.678,703.1843,,,,,,1286,FEM,AGR,150,sombra,la,a,703.1843,703.1844,-0.25,0.261111111,0,0,0,,0,147,147,385,1,,,,
,,,,,,88a1a89627a95ec26674f64e,66a626ef09d4e21e1a8894ec,6734e025c2d87c625531db37,2024-11-13_18h33.45.873,Tarea de género gramatical,2024.2.2,Win32,14.4092219,,,,,,,,,,,,,,,,,,,,,,,,703.1851,704.5331,l,1,0.5956,,[],[],[],[],[],[],[],0.5956,1,704.5332,705.0372,,,,,,959,MAS,AGR,150,lobo,el,l,705.0372,705.0373,-0.25,0.261111111,0,0,0,,0,148,148,58,1,,,,
,,,,,,88a1a89627a95ec26674f64e,66a626ef09d4e21e1a8894ec,6734e025c2d87c625531db37,2024-11-13_18h33.45.873,Tarea de género gramatical,2024.2.2,Win32,14.4092219,,,,,,,,,,,,,,,,,,,,,,,,705.0378,706.4856,l,1,0.6795,,[],[],[],[],[],[],[],0.6795,1,706.4857,706.9141,,,,,,971,MAS,AGR,150,pozo,el,l,706.9142,706.9143,-0.25,0.261111111,0,0,0,,0,149,149,70,1,,,,
,,,,,,88a1a89627a95ec26674f64e,66a626ef09d4e21e1a8894ec,6734e025c2d87c625531db37,2024-11-13_18h33.45.873,Tarea de género gramatical,2024.2.2,Win32,14.4092219,,,,,,,,,,,,,,,,,,,,,,,,706.9148,708.3499,l,1,0.6813,,[],[],[],[],[],[],[],0.6813,1,708.3499,708.8546,,,,,,1012,MAS,DIS,150,reto,la,l,708.8553,874.3064,-0.25,0.261111111,0,0,0,space,0,150,150,111,1,165.3637,,,
,,,,,,88a1a89627a95ec26674f64e,66a626ef09d4e21e1a8894ec,6734e025c2d87c625531db37,2024-11-13_18h33.45.873,Tarea de género gramatical,2024.2.2,Win32,14.4092219,,,,,,,,,,,,,,,,,,,,,,,,874.307,875.9136,l,1,0.8508,,[],[],[],[],[],[],[],0.8508,1,875.9136,876.4246,,,,,,1043,MAS,AGR,150,faro,el,l,876.4247,876.4247,-0.25,0.261111111,0,0,0,,0,151,151,142,1,,,,
,,,,,,88a1a89627a95ec26674f64e,66a626ef09d4e21e1a8894ec,6734e025c2d87c625531db37,2024-11-13_18h33.45.873,Tarea de género gramatical,2024.2.2,Win32,14.4092219,,,,,,,,,,,,,,,,,,,,,,,,876.4253,877.7879,a,1,0.5958,,[],[],[],[],[],[],[],0.5958,1,877.7879,878.2929,,,,,,1178,FEM,AGR,150,presa,la,a,878.2929,878.293,-0.25,0.261111111,0,0,0,,0,152,152,277,1,,,,
,,,,,,88a1a89627a95ec26674f64e,66a626ef09d4e21e1a8894ec,6734e025c2d87c625531db37,2024-11-13_18h33.45.873,Tarea de género gramatical,2024.2.2,Win32,14.4092219,,,,,,,,,,,,,,,,,,,,,,,,878.2935,879.7245,a,1,0.6781,,[],[],[],[],[],[],[],0.6781,1,879.7245,880.2297,,,,,,1075,FEM,DIS,150,señal,el,a,880.2297,880.2298,-0.25,0.261111111,0,0,0,,0,153,153,174,1,,,,
,,,,,,88a1a89627a95ec26674f64e,66a626ef09d4e21e1a8894ec,6734e025c2d87c625531db37,2024-11-13_18h33.45.873,Tarea de género gramatical,2024.2.2,Win32,14.4092219,,,,,,,,,,,,,,,,,,,,,,,,880.2304,881.4937,l,1,0.511,,[],[],[],[],[],[],[],0.511,1,881.4937,881.9988,,,,,,1056,MAS,CON,150,amigo,,l,881.9988,881.9989,-0.25,0.261111111,0,0,0,,0,154,154,155,1,,,,
,,,,,,88a1a89627a95ec26674f64e,66a626ef09d4e21e1a8894ec,6734e025c2d87c625531db37,2024-11-13_18h33.45.873,Tarea de género gramatical,2024.2.2,Win32,14.4092219,,,,,,,,,,,,,,,,,,,,,,,,881.9994,883.1876,a,1,0.4274,,[],[],[],[],[],[],[],0.4274,1,883.1877,883.6919,,,,,,999,FEM,CON,150,fase,,a,883.6925,883.6937,-0.25,0.261111111,0,0,0,,0,155,155,98,1,,,,
,,,,,,88a1a89627a95ec26674f64e,66a626ef09d4e21e1a8894ec,6734e025c2d87c625531db37,2024-11-13_18h33.45.873,Tarea de género gramatical,2024.2.2,Win32,14.4092219,,,,,,,,,,,,,,,,,,,,,,,,883.6942,885.2122,a,1,0.7642,0.0001,[],[],[],[],[],[],[],0.7642,1,885.2122,885.7195,,,,,,1183,FEM,DIS,150,pluma,el,a,885.7195,885.7197,-0.25,0.261111111,0,0,0,,0,156,156,282,1,,,,
,,,,,,88a1a89627a95ec26674f64e,66a626ef09d4e21e1a8894ec,6734e025c2d87c625531db37,2024-11-13_18h33.45.873,Tarea de género gramatical,2024.2.2,Win32,14.4092219,,,,,,,,,,,,,,,,,,,,,,,,885.7204,887.0825,l,1,0.5949,,[],[],[],[],[],[],[],0.5949,1,887.0825,887.5918,,,,,,988,MAS,DIS,150,pavo,la,l,887.5919,887.5919,-0.25,0.261111111,0,0,0,,0,157,157,87,1,,,,
,,,,,,88a1a89627a95ec26674f64e,66a626ef09d4e21e1a8894ec,6734e025c2d87c625531db37,2024-11-13_18h33.45.873,Tarea de género gramatical,2024.2.2,Win32,14.4092219,,,,,,,,,,,,,,,,,,,,,,,,887.5925,888.8647,l,1,0.5129,,[],[],[],[],[],[],[],0.5129,1,888.8648,889.3678,,,,,,989,MAS,AGR,150,maíz,el,l,889.3679,889.3679,-0.25,0.261111111,0,0,0,,0,158,158,88,1,,,,
,,,,,,88a1a89627a95ec26674f64e,66a626ef09d4e21e1a8894ec,6734e025c2d87c625531db37,2024-11-13_18h33.45.873,Tarea de género gramatical,2024.2.2,Win32,14.4092219,,,,,,,,,,,,,,,,,,,,,,,,889.3685,890.7195,l,1,0.5954,,[],[],[],[],[],[],[],0.5954,1,890.7195,891.2252,,,,,,976,MAS,DIS,150,lujo,la,l,891.2259,891.227,-0.25,0.261111111,0,0,0,,0,159,159,75,1,,,,
,,,,,,88a1a89627a95ec26674f64e,66a626ef09d4e21e1a8894ec,6734e025c2d87c625531db37,2024-11-13_18h33.45.873,Tarea de género gramatical,2024.2.2,Win32,14.4092219,,,,,,,,,,,,,,,,,,,,,,,,891.2274,892.5795,l,1,0.5959,,[],[],[],[],[],[],[],0.5959,1,892.5796,893.0844,,,,,,940,MAS,DIS,150,dios,la,l,893.0844,893.0845,-0.25,0.261111111,0,0,0,,0,160,160,39,1,,,,
,,,,,,88a1a89627a95ec26674f64e,66a626ef09d4e21e1a8894ec,6734e025c2d87c625531db37,2024-11-13_18h33.45.873,Tarea de género gramatical,2024.2.2,Win32,14.4092219,,,,,,,,,,,,,,,,,,,,,,,,893.0851,894.534,a,1,0.6919,,[],[],[],[],[],[],[],0.6919,1,894.534,895.0404,,,,,,1226,FEM,AGR,150,música,la,a,895.0404,895.0404,-0.25,0.261111111,0,0,0,,0,161,161,325,1,,,,
,,,,,,88a1a89627a95ec26674f64e,66a626ef09d4e21e1a8894ec,6734e025c2d87c625531db37,2024-11-13_18h33.45.873,Tarea de género gramatical,2024.2.2,Win32,14.4092219,,,,,,,,,,,,,,,,,,,,,,,,895.041,896.3912,l,1,0.5968,,[],[],[],[],[],[],[],0.5968,1,896.3912,896.8946,,,,,,1294,MAS,DIS,150,examen,la,l,896.8946,896.8947,-0.25,0.261111111,0,0,0,,0,162,162,393,1,,,,
,,,,,,88a1a89627a95ec26674f64e,66a626ef09d4e21e1a8894ec,6734e025c2d87c625531db37,2024-11-13_18h33.45.873,Tarea de género gramatical,2024.2.2,Win32,14.4092219,,,,,,,,,,,,,,,,,,,,,,,,896.8953,898.1626,l,1,0.5121,,[],[],[],[],[],[],[],0.5121,1,898.1626,898.6693,,,,,,1109,MAS,AGR,150,banco,el,l,898.6694,898.6694,-0.25,0.261111111,0,0,0,,0,163,163,208,1,,,,
,,,,,,88a1a89627a95ec26674f64e,66a626ef09d4e21e1a8894ec,6734e025c2d87c625531db37,2024-11-13_18h33.45.873,Tarea de género gramatical,2024.2.2,Win32,14.4092219,,,,,,,,,,,,,,,,,,,,,,,,898.6699,900.1893,a,1,0.7629,,[],[],[],[],[],[],[],0.7629,1,900.1893,900.6952,,,,,,1039,FEM,DIS,150,pipa,el,a,900.6959,900.697,-0.25,0.261111111,0,0,0,,0,164,164,138,1,,,,
,,,,,,88a1a89627a95ec26674f64e,66a626ef09d4e21e1a8894ec,6734e025c2d87c625531db37,2024-11-13_18h33.45.873,Tarea de género gramatical,2024.2.2,Win32,14.4092219,,,,,,,,,,,,,,,,,,,,,,,,900.6974,902.3007,l,1,0.8507,,[],[],[],[],[],[],[],0.8507,1,902.3007,902.8066,,,,,,1325,MAS,AGR,150,chiste,el,l,902.8067,902.8067,-0.25,0.261111111,0,0,0,,0,165,165,424,1,,,,
,,,,,,88a1a89627a95ec26674f64e,66a626ef09d4e21e1a8894ec,6734e025c2d87c625531db37,2024-11-13_18h33.45.873,Tarea de género gramatical,2024.2.2,Win32,14.4092219,,,,,,,,,,,,,,,,,,,,,,,,902.8073,904.3318,a,1,0.7671,,[],[],[],[],[],[],[],0.7671,1,904.3318,904.8358,,,,,,1059,FEM,CON,150,clase,,a,904.8358,904.8359,-0.25,0.261111111,0,0,0,,0,166,166,158,1,,,,
,,,,,,88a1a89627a95ec26674f64e,66a626ef09d4e21e1a8894ec,6734e025c2d87c625531db37,2024-11-13_18h33.45.873,Tarea de género gramatical,2024.2.2,Win32,14.4092219,,,,,,,,,,,,,,,,,,,,,,,,904.8364,906.5244,a,1,0.9321,,[],[],[],[],[],[],[],0.9321,1,906.5245,907.0307,,,,,,1095,FEM,CON,150,pared,,a,907.0307,907.0308,-0.25,0.261111111,0,0,0,,0,167,167,194,1,,,,
,,,,,,88a1a89627a95ec26674f64e,66a626ef09d4e21e1a8894ec,6734e025c2d87c625531db37,2024-11-13_18h33.45.873,Tarea de género gramatical,2024.2.2,Win32,14.4092219,,,,,,,,,,,,,,,,,,,,,,,,907.0312,908.5829,l,1,0.7629,,[],[],[],[],[],[],[],0.7629,1,908.583,909.0887,,,,,,1308,MAS,CON,150,cheque,,l,909.0893,909.0906,-0.25,0.261111111,0,0,0,,0,168,168,407,1,,,,
,,,,,,88a1a89627a95ec26674f64e,66a626ef09d4e21e1a8894ec,6734e025c2d87c625531db37,2024-11-13_18h33.45.873,Tarea de género gramatical,2024.2.2,Win32,14.4092219,,,,,,,,,,,,,,,,,,,,,,,,909.0911,910.5488,a,1,0.7026,,[],[],[],[],[],[],[],0.7026,1,910.5489,911.0563,,,,,,945,FEM,CON,150,isla,,a,911.0564,911.0564,-0.25,0.261111111,0,0,0,,0,169,169,44,1,,,,
,,,,,,88a1a89627a95ec26674f64e,66a626ef09d4e21e1a8894ec,6734e025c2d87c625531db37,2024-11-13_18h33.45.873,Tarea de género gramatical,2024.2.2,Win32,14.4092219,,,,,,,,,,,,,,,,,,,,,,,,911.0569,912.7658,l,1,0.953,,[],[],[],[],[],[],[],0.953,1,912.7659,913.2718,,,,,,1036,MAS,DIS,150,vago,la,l,913.2719,913.2719,-0.25,0.261111111,0,0,0,,0,170,170,135,1,,,,
,,,,,,88a1a89627a95ec26674f64e,66a626ef09d4e21e1a8894ec,6734e025c2d87c625531db37,2024-11-13_18h33.45.873,Tarea de género gramatical,2024.2.2,Win32,14.4092219,,,,,,,,,,,,,,,,,,,,,,,,913.2724,914.6215,a,1,0.5964,,[],[],[],[],[],[],[],0.5964,1,914.6215,915.1282,,,,,,1160,FEM,AGR,150,barra,la,a,915.1282,915.1283,-0.25,0.261111111,0,0,0,,0,171,171,259,1,,,,
,,,,,,88a1a89627a95ec26674f64e,66a626ef09d4e21e1a8894ec,6734e025c2d87c625531db37,2024-11-13_18h33.45.873,Tarea de género gramatical,2024.2.2,Win32,14.4092219,,,,,,,,,,,,,,,,,,,,,,,,915.1288,916.5665,a,1,0.68,,[],[],[],[],[],[],[],0.68,1,916.5666,917.0734,,,,,,1094,FEM,AGR,150,banda,la,a,917.0735,917.0735,-0.25,0.261111111,0,0,0,,0,172,172,193,1,,,,
,,,,,,88a1a89627a95ec26674f64e,66a626ef09d4e21e1a8894ec,6734e025c2d87c625531db37,2024-11-13_18h33.45.873,Tarea de género gramatical,2024.2.2,Win32,14.4092219,,,,,,,,,,,,,,,,,,,,,,,,917.0741,918.842,a,1,1.0142,,[],[],[],[],[],[],[],1.0142,1,918.8421,919.35,,,,,,985,FEM,DIS,150,gira,el,a,919.3506,919.3519,-0.25,0.261111111,0,0,0,,0,173,173,84,1,,,,
,,,,,,88a1a89627a95ec26674f64e,66a626ef09d4e21e1a8894ec,6734e025c2d87c625531db37,2024-11-13_18h33.45.873,Tarea de género gramatical,2024.2.2,Win32,14.4092219,,,,,,,,,,,,,,,,,,,,,,,,919.3523,921.038,l,1,0.932,,[],[],[],[],[],[],[],0.932,1,921.0381,921.546,,,,,,906,MAS,CON,150,lado,,l,921.546,921.5461,-0.25,0.261111111,0,0,0,,0,174,174,5,1,,,,
,,,,,,88a1a89627a95ec26674f64e,66a626ef09d4e21e1a8894ec,6734e025c2d87c625531db37,2024-11-13_18h33.45.873,Tarea de género gramatical,2024.2.2,Win32,14.4092219,,,,,,,,,,,,,,,,,,,,,,,,921.5466,922.8946,a,1,0.5941,,[],[],[],[],[],[],[],0.5941,1,922.8946,923.3995,,,,,,1131,FEM,CON,150,bruja,,a,923.3995,923.3995,-0.25,0.261111111,0,0,0,,0,175,175,230,1,,,,
,,,,,,88a1a89627a95ec26674f64e,66a626ef09d4e21e1a8894ec,6734e025c2d87c625531db37,2024-11-13_18h33.45.873,Tarea de género gramatical,2024.2.2,Win32,14.4092219,,,,,,,,,,,,,,,,,,,,,,,,923.4001,924.9242,l,1,0.7638,,[],[],[],[],[],[],[],0.7638,1,924.9242,925.4298,,,,,,1306,MAS,DIS,150,premio,la,l,925.4298,925.4298,-0.25,0.261111111,0,0,0,,0,176,176,405,1,,,,
,,,,,,88a1a89627a95ec26674f64e,66a626ef09d4e21e1a8894ec,6734e025c2d87c625531db37,2024-11-13_18h33.45.873,Tarea de género gramatical,2024.2.2,Win32,14.4092219,,,,,,,,,,,,,,,,,,,,,,,,925.4304,927.4884,l,1,1.3025,,[],[],[],[],[],[],[],1.3025,1,927.4884,928.0056,,,,,,1180,MAS,DIS,150,salón,la,l,928.0062,928.0073,-0.25,0.261111111,0,0,0,,0,177,177,279,1,,,,
,,,,,,88a1a89627a95ec26674f64e,66a626ef09d4e21e1a8894ec,6734e025c2d87c625531db37,2024-11-13_18h33.45.873,Tarea de género gramatical,2024.2.2,Win32,14.4092219,,,,,,,,,,,,,,,,,,,,,,,,928.0077,929.2738,a,1,0.5117,,[],[],[],[],[],[],[],0.5117,1,929.274,929.7783,,,,,,1202,FEM,AGR,150,cabeza,la,a,929.7784,929.7784,-0.25,0.261111111,0,0,0,,0,178,178,301,1,,,,
,,,,,,88a1a89627a95ec26674f64e,66a626ef09d4e21e1a8894ec,6734e025c2d87c625531db37,2024-11-13_18h33.45.873,Tarea de género gramatical,2024.2.2,Win32,14.4092219,,,,,,,,,,,,,,,,,,,,,,,,929.779,931.3816,a,1,0.8478,,[],[],[],[],[],[],[],0.8478,1,931.3816,931.8868,,,,,,1058,FEM,AGR,150,chica,la,a,931.8868,931.8869,-0.25,0.261111111,0,0,0,,0,179,179,157,1,,,,
,,,,,,88a1a89627a95ec26674f64e,66a626ef09d4e21e1a8894ec,6734e025c2d87c625531db37,2024-11-13_18h33.45.873,Tarea de género gramatical,2024.2.2,Win32,14.4092219,,,,,,,,,,,,,,,,,,,,,,,,931.8874,934.5031,,0,,,[],[],[],[],[],[],[],0.8478,-1,934.5039,935.0151,,,,,,1124,FEM,AGR,150,arena,la,a,935.0151,935.0151,-0.25,0.261111111,0,0,0,,0,180,180,223,1,,,,
,,,,,,88a1a89627a95ec26674f64e,66a626ef09d4e21e1a8894ec,6734e025c2d87c625531db37,2024-11-13_18h33.45.873,Tarea de género gramatical,2024.2.2,Win32,14.4092219,,,,,,,,,,,,,,,,,,,,,,,,935.0157,936.2945,l,1,0.5237,,[],[],[],[],[],[],[],0.5237,1,936.2949,936.7992,,,,,,983,MAS,AGR,150,nene,el,l,936.7992,936.7992,-0.25,0.261111111,0,0,0,,0,181,181,82,1,,,,
,,,,,,88a1a89627a95ec26674f64e,66a626ef09d4e21e1a8894ec,6734e025c2d87c625531db37,2024-11-13_18h33.45.873,Tarea de género gramatical,2024.2.2,Win32,14.4092219,,,,,,,,,,,,,,,,,,,,,,,,936.7998,938.2358,a,1,0.6807,,[],[],[],[],[],[],[],0.6807,1,938.2358,938.7412,,,,,,998,FEM,AGR,150,fuga,la,a,938.7419,938.7432,-0.25,0.261111111,0,0,0,,0,182,182,97,1,,,,
,,,,,,88a1a89627a95ec26674f64e,66a626ef09d4e21e1a8894ec,6734e025c2d87c625531db37,2024-11-13_18h33.45.873,Tarea de género gramatical,2024.2.2,Win32,14.4092219,,,,,,,,,,,,,,,,,,,,,,,,938.7436,940.1863,l,0,0.6857,,[],[],[],[],[],[],[],0.6857,0,940.1868,940.6921,,,,,,1016,FEM,AGR,150,nube,la,a,940.6921,940.6922,-0.25,0.261111111,0,0,0,,0,183,183,115,1,,,,
,,,,,,88a1a89627a95ec26674f64e,66a626ef09d4e21e1a8894ec,6734e025c2d87c625531db37,2024-11-13_18h33.45.873,Tarea de género gramatical,2024.2.2,Win32,14.4092219,,,,,,,,,,,,,,,,,,,,,,,,940.6928,942.296,a,1,0.8462,,[],[],[],[],[],[],[],0.8462,1,942.2965,942.7375,,,,,,1249,FEM,DIS,150,prensa,el,a,942.7375,942.7376,-0.25,0.261111111,0,0,0,,0,184,184,348,1,,,,
,,,,,,88a1a89627a95ec26674f64e,66a626ef09d4e21e1a8894ec,6734e025c2d87c625531db37,2024-11-13_18h33.45.873,Tarea de género gramatical,2024.2.2,Win32,14.4092219,,,,,,,,,,,,,,,,,,,,,,,,942.7381,944.2561,a,1,0.7657,,[],[],[],[],[],[],[],0.7657,1,944.2562,944.762,,,,,,1263,FEM,CON,150,unidad,,a,944.762,944.762,-0.25,0.261111111,0,0,0,,0,185,185,362,1,,,,
,,,,,,88a1a89627a95ec26674f64e,66a626ef09d4e21e1a8894ec,6734e025c2d87c625531db37,2024-11-13_18h33.45.873,Tarea de género gramatical,2024.2.2,Win32,14.4092219,,,,,,,,,,,,,,,,,,,,,,,,944.7626,946.2042,a,1,0.6848,,[],[],[],[],[],[],[],0.6848,1,946.2043,946.7079,,,,,,956,FEM,AGR,150,bola,la,a,946.7086,946.7097,-0.25,0.261111111,0,0,0,,0,186,186,55,1,,,,
,,,,,,88a1a89627a95ec26674f64e,66a626ef09d4e21e1a8894ec,6734e025c2d87c625531db37,2024-11-13_18h33.45.873,Tarea de género gramatical,2024.2.2,Win32,14.4092219,,,,,,,,,,,,,,,,,,,,,,,,946.7101,947.89,a,1,0.4267,,[],[],[],[],[],[],[],0.4267,1,947.89,948.3935,,,,,,1191,FEM,CON,150,aguja,,a,948.3935,948.3936,-0.25,0.261111111,0,0,0,,0,187,187,290,1,,,,
,,,,,,88a1a89627a95ec26674f64e,66a626ef09d4e21e1a8894ec,6734e025c2d87c625531db37,2024-11-13_18h33.45.873,Tarea de género gramatical,2024.2.2,Win32,14.4092219,,,,,,,,,,,,,,,,,,,,,,,,948.3941,949.7424,l,1,0.5959,,[],[],[],[],[],[],[],0.5959,1,949.7424,950.2485,,,,,,1097,MAS,AGR,150,avión,el,l,950.2485,950.2486,-0.25,0.261111111,0,0,0,,0,188,188,196,1,,,,
,,,,,,88a1a89627a95ec26674f64e,66a626ef09d4e21e1a8894ec,6734e025c2d87c625531db37,2024-11-13_18h33.45.873,Tarea de género gramatical,2024.2.2,Win32,14.4092219,,,,,,,,,,,,,,,,,,,,,,,,950.2491,951.6821,a,1,0.6797,,[],[],[],[],[],[],[],0.6797,1,951.6822,952.1901,,,,,,1154,FEM,AGR,150,caída,la,a,952.1901,952.1902,-0.25,0.261111111,0,0,0,,0,189,189,253,1,,,,
,,,,,,88a1a89627a95ec26674f64e,66a626ef09d4e21e1a8894ec,6734e025c2d87c625531db37,2024-11-13_18h33.45.873,Tarea de género gramatical,2024.2.2,Win32,14.4092219,,,,,,,,,,,,,,,,,,,,,,,,952.1908,953.4576,l,1,0.5128,,[],[],[],[],[],[],[],0.5128,1,953.4577,953.961,,,,,,1169,MAS,AGR,150,primo,el,l,953.961,953.9611,-0.25,0.261111111,0,0,0,,0,190,190,268,1,,,,
,,,,,,88a1a89627a95ec26674f64e,66a626ef09d4e21e1a8894ec,6734e025c2d87c625531db37,2024-11-13_18h33.45.873,Tarea de género gramatical,2024.2.2,Win32,14.4092219,,,,,,,,,,,,,,,,,,,,,,,,953.9617,955.4957,l,1,0.7648,,[],[],[],[],[],[],[],0.7648,1,955.4958,956.004,,,,,,1120,MAS,DIS,150,huevo,la,l,956.0046,956.0058,-0.25,0.261111111,0,0,0,,0,191,191,219,1,,,,
,,,,,,88a1a89627a95ec26674f64e,66a626ef09d4e21e1a8894ec,6734e025c2d87c625531db37,2024-11-13_18h33.45.873,Tarea de género gramatical,2024.2.2,Win32,14.4092219,,,,,,,,,,,,,,,,,,,,,,,,956.0062,957.5315,a,1,0.7642,,[],[],[],[],[],[],[],0.7642,1,957.5316,957.9729,,,,,,926,FEM,AGR,150,pena,la,a,957.9729,957.9729,-0.25,0.261111111,0,0,0,,0,192,192,25,1,,,,
,,,,,,88a1a89627a95ec26674f64e,66a626ef09d4e21e1a8894ec,6734e025c2d87c625531db37,2024-11-13_18h33.45.873,Tarea de género gramatical,2024.2.2,Win32,14.4092219,,,,,,,,,,,,,,,,,,,,,,,,957.9735,959.5717,a,1,0.8465,,[],[],[],[],[],[],[],0.8465,1,959.5719,960.0762,,,,,,1291,FEM,DIS,150,altura,el,a,960.0763,960.0764,-0.25,0.261111111,0,0,0,,0,193,193,390,1,,,,
,,,,,,88a1a89627a95ec26674f64e,66a626ef09d4e21e1a8894ec,6734e025c2d87c625531db37,2024-11-13_18h33.45.873,Tarea de género gramatical,2024.2.2,Win32,14.4092219,,,,,,,,,,,,,,,,,,,,,,,,960.0769,961.3425,a,1,0.5115,,[],[],[],[],[],[],[],0.5115,1,961.3425,961.849,,,,,,1142,FEM,AGR,150,pizza,la,a,961.849,961.8491,-0.25,0.261111111,0,0,0,,0,194,194,241,1,,,,
,,,,,,88a1a89627a95ec26674f64e,66a626ef09d4e21e1a8894ec,6734e025c2d87c625531db37,2024-11-13_18h33.45.873,Tarea de género gramatical,2024.2.2,Win32,14.4092219,,,,,,,,,,,,,,,,,,,,,,,,961.8496,963.1998,a,1,0.5957,,[],[],[],[],[],[],[],0.5957,1,963.1999,963.7091,,,,,,1255,FEM,DIS,150,mirada,el,a,963.7097,963.7111,-0.25,0.261111111,0,0,0,,0,195,195,354,1,,,,
,,,,,,88a1a89627a95ec26674f64e,66a626ef09d4e21e1a8894ec,6734e025c2d87c625531db37,2024-11-13_18h33.45.873,Tarea de género gramatical,2024.2.2,Win32,14.4092219,,,,,,,,,,,,,,,,,,,,,,,,963.7115,964.9783,a,1,0.5131,,[],[],[],[],[],[],[],0.5131,1,964.9784,965.4219,,,,,,1009,FEM,DIS,150,gota,el,a,965.422,965.4221,-0.25,0.261111111,0,0,0,,0,196,196,108,1,,,,
,,,,,,88a1a89627a95ec26674f64e,66a626ef09d4e21e1a8894ec,6734e025c2d87c625531db37,2024-11-13_18h33.45.873,Tarea de género gramatical,2024.2.2,Win32,14.4092219,,,,,,,,,,,,,,,,,,,,,,,,965.4229,966.7147,a,1,0.5123,,[],[],[],[],[],[],[],0.5123,1,966.7148,967.2194,,,,,,1274,FEM,AGR,150,herida,la,a,967.2194,967.2195,-0.25,0.261111111,0,0,0,,0,197,197,373,1,,,,
,,,,,,88a1a89627a95ec26674f64e,66a626ef09d4e21e1a8894ec,6734e025c2d87c625531db37,2024-11-13_18h33.45.873,Tarea de género gramatical,2024.2.2,Win32,14.4092219,,,,,,,,,,,,,,,,,,,,,,,,967.2201,968.4033,a,1,0.4265,,[],[],[],[],[],[],[],0.4265,1,968.4034,968.8588,,,,,,1003,FEM,DIS,150,fama,el,a,968.8588,968.8589,-0.25,0.261111111,0,0,0,,0,198,198,102,1,,,,
,,,,,,88a1a89627a95ec26674f64e,66a626ef09d4e21e1a8894ec,6734e025c2d87c625531db37,2024-11-13_18h33.45.873,Tarea de género gramatical,2024.2.2,Win32,14.4092219,,,,,,,,,,,,,,,,,,,,,,,,968.8596,970.3806,a,1,0.7658,,[],[],[],[],[],[],[],0.7658,1,970.3806,970.8838,,,,,,1261,FEM,DIS,150,oferta,el,a,970.8838,970.8839,-0.25,0.261111111,0,0,0,,0,199,199,360,1,,,,
,,,,,,88a1a89627a95ec26674f64e,66a626ef09d4e21e1a8894ec,6734e025c2d87c625531db37,2024-11-13_18h33.45.873,Tarea de género gramatical,2024.2.2,Win32,14.4092219,,,,,,,,,,,,,,,,,,,,,,,,970.8844,972.0661,a,1,0.427,,[],[],[],[],[],[],[],0.427,1,972.0661,972.5701,,,,,,1238,FEM,AGR,150,abuela,la,a,972.5707,972.5718,-0.25,0.261111111,0,0,0,,0,200,200,337,1,,,,
,,,,,,88a1a89627a95ec26674f64e,66a626ef09d4e21e1a8894ec,6734e025c2d87c625531db37,2024-11-13_18h33.45.873,Tarea de género gramatical,2024.2.2,Win32,14.4092219,,,,,,,,,,,,,,,,,,,,,,,,972.5723,973.846,l,1,0.5092,,[],[],[],[],[],[],[],0.5092,1,973.846,974.3528,,,,,,1157,MAS,AGR,150,pecho,el,l,974.3529,974.353,-0.25,0.261111111,0,0,0,,0,201,201,256,1,,,,
,,,,,,88a1a89627a95ec26674f64e,66a626ef09d4e21e1a8894ec,6734e025c2d87c625531db37,2024-11-13_18h33.45.873,Tarea de género gramatical,2024.2.2,Win32,14.4092219,,,,,,,,,,,,,,,,,,,,,,,,974.3535,975.5361,l,1,0.4272,,[],[],[],[],[],[],[],0.4272,1,975.5361,976.0409,,,,,,1289,MAS,AGR,150,tamaño,el,l,976.0409,976.0409,-0.25,0.261111111,0,0,0,,0,202,202,388,1,,,,
,,,,,,88a1a89627a95ec26674f64e,66a626ef09d4e21e1a8894ec,6734e025c2d87c625531db37,2024-11-13_18h33.45.873,Tarea de género gramatical,2024.2.2,Win32,14.4092219,,,,,,,,,,,,,,,,,,,,,,,,976.0414,977.3107,a,1,0.5137,,[],[],[],[],[],[],[],0.5137,1,977.3108,977.8299,,,,,,1165,FEM,DIS,150,rueda,el,a,977.83,977.83,-0.25,0.261111111,0,0,0,,0,203,203,264,1,,,,
,,,,,,88a1a89627a95ec26674f64e,66a626ef09d4e21e1a8894ec,6734e025c2d87c625531db37,2024-11-13_18h33.45.873,Tarea de género gramatical,2024.2.2,Win32,14.4092219,,,,,,,,,,,,,,,,,,,,,,,,977.8305,979.0144,l,1,0.4291,,[],[],[],[],[],[],[],0.4291,1,979.0145,979.521,,,,,,929,MAS,AGR,150,frío,el,l,979.5216,979.5228,-0.25,0.261111111,0,0,0,,0,204,204,28,1,,,,
,,,,,,88a1a89627a95ec26674f64e,66a626ef09d4e21e1a8894ec,6734e025c2d87c625531db37,2024-11-13_18h33.45.873,Tarea de género gramatical,2024.2.2,Win32,14.4092219,,,,,,,,,,,,,,,,,,,,,,,,979.5232,980.8841,l,1,0.6056,,[],[],[],[],[],[],[],0.6056,1,980.8842,981.3996,,,,,,1254,MAS,CON,150,camión,,l,981.3996,981.3996,-0.25,0.261111111,0,0,0,,0,205,205,353,1,,,,
,,,,,,88a1a89627a95ec26674f64e,66a626ef09d4e21e1a8894ec,6734e025c2d87c625531db37,2024-11-13_18h33.45.873,Tarea de género gramatical,2024.2.2,Win32,14.4092219,,,,,,,,,,,,,,,,,,,,,,,,981.4002,982.6026,a,1,0.4481,,[],[],[],[],[],[],[],0.4481,1,982.6026,983.1076,,,,,,967,FEM,DIS,150,miel,el,a,983.1076,983.1076,-0.25,0.261111111,0,0,0,,0,206,206,66,1,,,,
,,,,,,88a1a89627a95ec26674f64e,66a626ef09d4e21e1a8894ec,6734e025c2d87c625531db37,2024-11-13_18h33.45.873,Tarea de género gramatical,2024.2.2,Win32,14.4092219,,,,,,,,,,,,,,,,,,,,,,,,983.1082,984.3782,a,1,0.5094,,[],[],[],[],[],[],[],0.5094,1,984.3783,984.883,,,,,,1141,FEM,DIS,150,pasta,el,a,984.883,984.883,-0.25,0.261111111,0,0,0,,0,207,207,240,1,,,,
,,,,,,88a1a89627a95ec26674f64e,66a626ef09d4e21e1a8894ec,6734e025c2d87c625531db37,2024-11-13_18h33.45.873,Tarea de género gramatical,2024.2.2,Win32,14.4092219,,,,,,,,,,,,,,,,,,,,,,,,984.8836,986.0657,a,1,0.4273,,[],[],[],[],[],[],[],0.4273,1,986.0657,986.5722,,,,,,1171,FEM,DIS,150,viuda,el,a,986.5722,986.5722,-0.25,0.261111111,0,0,0,,0,208,208,270,1,,,,
,,,,,,88a1a89627a95ec26674f64e,66a626ef09d4e21e1a8894ec,6734e025c2d87c625531db37,2024-11-13_18h33.45.873,Tarea de género gramatical,2024.2.2,Win32,14.4092219,,,,,,,,,,,,,,,,,,,,,,,,986.5728,988.5151,a,1,1.1862,,[],[],[],[],[],[],[],1.1862,1,988.5151,989.0205,,,,,,943,FEM,DIS,150,nena,el,a,989.0211,989.0223,-0.25,0.261111111,0,0,0,,0,209,209,42,1,,,,
,,,,,,88a1a89627a95ec26674f64e,66a626ef09d4e21e1a8894ec,6734e025c2d87c625531db37,2024-11-13_18h33.45.873,Tarea de género gramatical,2024.2.2,Win32,14.4092219,,,,,,,,,,,,,,,,,,,,,,,,989.0226,990.3808,l,1,0.5962,,[],[],[],[],[],[],[],0.5962,1,990.3809,990.8908,,,,,,1168,MAS,DIS,150,truco,la,l,990.8908,990.8909,-0.25,0.261111111,0,0,0,,0,210,210,267,1,,,,
,,,,,,88a1a89627a95ec26674f64e,66a626ef09d4e21e1a8894ec,6734e025c2d87c625531db37,2024-11-13_18h33.45.873,Tarea de género gramatical,2024.2.2,Win32,14.4092219,,,,,,,,,,,,,,,,,,,,,,,,990.8914,992.3304,l,1,0.6802,,[],[],[],[],[],[],[],0.6802,1,992.3305,992.8354,,,,,,1282,MAS,DIS,150,teatro,la,l,992.8355,992.8355,-0.25,0.261111111,0,0,0,,0,211,211,381,1,,,,
,,,,,,88a1a89627a95ec26674f64e,66a626ef09d4e21e1a8894ec,6734e025c2d87c625531db37,2024-11-13_18h33.45.873,Tarea de género gramatical,2024.2.2,Win32,14.4092219,,,,,,,,,,,,,,,,,,,,,,,,992.8361,994.1018,a,0,0.511,,[],[],[],[],[],[],[],0.511,0,994.1022,994.6174,,,,,,1240,MAS,DIS,150,pasado,la,l,994.6174,994.6175,-0.25,0.261111111,0,0,0,,0,212,212,339,1,,,,
,,,,,,88a1a89627a95ec26674f64e,66a626ef09d4e21e1a8894ec,6734e025c2d87c625531db37,2024-11-13_18h33.45.873,Tarea de género gramatical,2024.2.2,Win32,14.4092219,,,,,,,,,,,,,,,,,,,,,,,,994.6179,996.3007,l,1,0.9321,,[],[],[],[],[],[],[],0.9321,1,996.3011,996.8061,,,,,,1038,MAS,CON,150,luto,,l,996.8067,996.8079,-0.25,0.261111111,0,0,0,,0,213,213,137,1,,,,
,,,,,,88a1a89627a95ec26674f64e,66a626ef09d4e21e1a8894ec,6734e025c2d87c625531db37,2024-11-13_18h33.45.873,Tarea de género gramatical,2024.2.2,Win32,14.4092219,,,,,,,,,,,,,,,,,,,,,,,,996.8082,997.9877,l,1,0.4257,,[],[],[],[],[],[],[],0.4257,1,997.9878,998.5074,,,,,,1198,MAS,DIS,150,botón,la,l,998.5074,998.5075,-0.25,0.261111111,0,0,0,,0,214,214,297,1,,,,
,,,,,,88a1a89627a95ec26674f64e,66a626ef09d4e21e1a8894ec,6734e025c2d87c625531db37,2024-11-13_18h33.45.873,Tarea de género gramatical,2024.2.2,Win32,14.4092219,,,,,,,,,,,,,,,,,,,,,,,,998.5081,999.7728,a,1,0.5111,,[],[],[],[],[],[],[],0.5111,1,999.7728,1000.2808,,,,,,1185,FEM,CON,150,mafia,,a,1000.2808,1000.2809,-0.25,0.261111111,0,0,0,,0,215,215,284,1,,,,
,,,,,,88a1a89627a95ec26674f64e,66a626ef09d4e21e1a8894ec,6734e025c2d87c625531db37,2024-11-13_18h33.45.873,Tarea de género gramatical,2024.2.2,Win32,14.4092219,,,,,,,,,,,,,,,,,,,,,,,,1000.2814,1001.5481,l,1,0.5122,,[],[],[],[],[],[],[],0.5122,1,1001.5481,1002.0569,,,,,,1199,MAS,AGR,150,rumbo,el,l,1002.0569,1002.0569,-0.25,0.261111111,0,0,0,,0,216,216,298,1,,,,
,,,,,,88a1a89627a95ec26674f64e,66a626ef09d4e21e1a8894ec,6734e025c2d87c625531db37,2024-11-13_18h33.45.873,Tarea de género gramatical,2024.2.2,Win32,14.4092219,,,,,,,,,,,,,,,,,,,,,,,,1002.0575,1003.4192,a,1,0.6079,,[],[],[],[],[],[],[],0.6079,1,1003.4193,1003.9252,,,,,,1209,FEM,CON,150,esposa,,a,1003.9252,1003.9252,-0.25,0.261111111,0,0,0,,0,217,217,308,1,,,,
,,,,,,88a1a89627a95ec26674f64e,66a626ef09d4e21e1a8894ec,6734e025c2d87c625531db37,2024-11-13_18h33.45.873,Tarea de género gramatical,2024.2.2,Win32,14.4092219,,,,,,,,,,,,,,,,,,,,,,,,1003.9258,1005.2798,a,1,0.5979,,[],[],[],[],[],[],[],0.5979,1,1005.2799,1005.7863,,,,,,1262,FEM,AGR,150,fuente,la,a,1005.7869,1005.788,-0.25,0.261111111,0,0,0,,0,218,218,361,1,,,,
,,,,,,88a1a89627a95ec26674f64e,66a626ef09d4e21e1a8894ec,6734e025c2d87c625531db37,2024-11-13_18h33.45.873,Tarea de género gramatical,2024.2.2,Win32,14.4092219,,,,,,,,,,,,,,,,,,,,,,,,1005.7884,1007.2284,l,1,0.679,,[],[],[],[],[],[],[],0.679,1,1007.2286,1007.7325,,,,,,1211,MAS,AGR,150,camino,el,l,1007.7325,1007.7325,-0.25,0.261111111,0,0,0,,0,219,219,310,1,,,,
,,,,,,88a1a89627a95ec26674f64e,66a626ef09d4e21e1a8894ec,6734e025c2d87c625531db37,2024-11-13_18h33.45.873,Tarea de género gramatical,2024.2.2,Win32,14.4092219,,,,,,,,,,,,,,,,,,,,,,,,1007.7331,1009.084,a,1,0.5958,,[],[],[],[],[],[],[],0.5958,1,1009.084,1009.5894,,,,,,1280,FEM,AGR,150,madera,la,a,1009.5894,1009.5894,-0.25,0.261111111,0,0,0,,0,220,220,379,1,,,,
,,,,,,88a1a89627a95ec26674f64e,66a626ef09d4e21e1a8894ec,6734e025c2d87c625531db37,2024-11-13_18h33.45.873,Tarea de género gramatical,2024.2.2,Win32,14.4092219,,,,,,,,,,,,,,,,,,,,,,,,1009.59,1010.8547,a,1,0.5088,,[],[],[],[],[],[],[],0.5088,1,1010.8547,1011.3614,,,,,,1028,FEM,AGR,150,leña,la,a,1011.3615,1011.3616,-0.25,0.261111111,0,0,0,,0,221,221,127,1,,,,
,,,,,,88a1a89627a95ec26674f64e,66a626ef09d4e21e1a8894ec,6734e025c2d87c625531db37,2024-11-13_18h33.45.873,Tarea de género gramatical,2024.2.2,Win32,14.4092219,,,,,,,,,,,,,,,,,,,,,,,,1011.3621,1012.711,a,1,0.5954,,[],[],[],[],[],[],[],0.5954,1,1012.7111,1013.2182,,,,,,1213,FEM,DIS,150,ciudad,el,a,1013.2189,1013.2203,-0.25,0.261111111,0,0,0,,0,222,222,312,1,,,,
,,,,,,88a1a89627a95ec26674f64e,66a626ef09d4e21e1a8894ec,6734e025c2d87c625531db37,2024-11-13_18h33.45.873,Tarea de género gramatical,2024.2.2,Win32,14.4092219,,,,,,,,,,,,,,,,,,,,,,,,1013.2207,1014.4039,l,1,0.4286,,[],[],[],[],[],[],[],0.4286,1,1014.4039,1014.9078,,,,,,930,MAS,CON,150,cine,,l,1014.9078,1014.9078,-0.25,0.261111111,0,0,0,,0,223,223,29,1,,,,
,,,,,,88a1a89627a95ec26674f64e,66a626ef09d4e21e1a8894ec,6734e025c2d87c625531db37,2024-11-13_18h33.45.873,Tarea de género gramatical,2024.2.2,Win32,14.4092219,,,,,,,,,,,,,,,,,,,,,,,,1014.9084,1016.4278,l,1,0.763,,[],[],[],[],[],[],[],0.763,1,1016.4279,1016.9334,,,,,,1054,MAS,DIS,150,padre,la,l,1016.9335,1016.9335,-0.25,0.261111111,0,0,0,,0,224,224,153,1,,,,
,,,,,,88a1a89627a95ec26674f64e,66a626ef09d4e21e1a8894ec,6734e025c2d87c625531db37,2024-11-13_18h33.45.873,Tarea de género gramatical,2024.2.2,Win32,14.4092219,,,,,,,,,,,,,,,,,,,,,,,,1016.9341,1018.9572,a,1,1.2665,,[],[],[],[],[],[],[],1.2665,1,1018.9573,1019.4622,,,,,,979,FEM,DIS,150,mina,el,a,1019.4623,1019.4623,-0.25,0.261111111,0,0,0,,0,225,225,78,1,,,,
,,,,,,88a1a89627a95ec26674f64e,66a626ef09d4e21e1a8894ec,6734e025c2d87c625531db37,2024-11-13_18h33.45.873,Tarea de género gramatical,2024.2.2,Win32,14.4092219,,,,,,,,,,,,,,,,,,,,,,,,1019.463,1020.6436,a,1,0.4268,,[],[],[],[],[],[],[],0.4268,1,1020.6436,1021.1475,,,,,,1322,FEM,AGR,150,rutina,la,a,1021.1475,1021.1475,-0.25,0.261111111,0,0,0,,0,226,226,421,1,,,,
,,,,,,88a1a89627a95ec26674f64e,66a626ef09d4e21e1a8894ec,6734e025c2d87c625531db37,2024-11-13_18h33.45.873,Tarea de género gramatical,2024.2.2,Win32,14.4092219,,,,,,,,,,,,,,,,,,,,,,,,1021.1481,1022.5798,l,1,0.6788,,[],[],[],[],[],[],[],0.6788,1,1022.5799,1023.0847,,,,,,953,MAS,AGR,150,vaso,el,l,1023.0853,1023.0865,-0.25,0.261111111,0,0,0,,0,227,227,52,1,,,,
,,,,,,88a1a89627a95ec26674f64e,66a626ef09d4e21e1a8894ec,6734e025c2d87c625531db37,2024-11-13_18h33.45.873,Tarea de género gramatical,2024.2.2,Win32,14.4092219,,,,,,,,,,,,,,,,,,,,,,,,1023.0869,1024.5241,a,1,0.6815,,[],[],[],[],[],[],[],0.6815,1,1024.5241,1025.0298,,,,,,914,FEM,AGR,150,cara,la,a,1025.0298,1025.0299,-0.25,0.261111111,0,0,0,,0,228,228,13,1,,,,
,,,,,,88a1a89627a95ec26674f64e,66a626ef09d4e21e1a8894ec,6734e025c2d87c625531db37,2024-11-13_18h33.45.873,Tarea de género gramatical,2024.2.2,Win32,14.4092219,,,,,,,,,,,,,,,,,,,,,,,,1025.0304,1026.215,l,1,0.4281,,[],[],[],[],[],[],[],0.4281,1,1026.2152,1026.7204,,,,,,1145,MAS,AGR,150,turno,el,l,1026.7204,1026.7205,-0.25,0.261111111,0,0,0,,0,229,229,244,1,,,,
,,,,,,88a1a89627a95ec26674f64e,66a626ef09d4e21e1a8894ec,6734e025c2d87c625531db37,2024-11-13_18h33.45.873,Tarea de género gramatical,2024.2.2,Win32,14.4092219,,,,,,,,,,,,,,,,,,,,,,,,1026.7211,1028.1891,a,1,0.7135,0,[],[],[],[],[],[],[],0.7135,1,1028.1891,1028.7102,,,,,,920,FEM,AGR,150,ropa,la,a,1028.7102,1028.7102,-0.25,0.261111111,0,0,0,,0,230,230,19,1,,,,
,,,,,,88a1a89627a95ec26674f64e,66a626ef09d4e21e1a8894ec,6734e025c2d87c625531db37,2024-11-13_18h33.45.873,Tarea de género gramatical,2024.2.2,Win32,14.4092219,,,,,,,,,,,,,,,,,,,,,,,,1028.7108,1029.974,a,1,0.5106,,[],[],[],[],[],[],[],0.5106,1,1029.974,1030.482,,,,,,1004,FEM,AGR,150,vela,la,a,1030.4827,1030.484,-0.25,0.261111111,0,0,0,,0,231,231,103,1,,,,
,,,,,,88a1a89627a95ec26674f64e,66a626ef09d4e21e1a8894ec,6734e025c2d87c625531db37,2024-11-13_18h33.45.873,Tarea de género gramatical,2024.2.2,Win32,14.4092219,,,,,,,,,,,,,,,,,,,,,,,,1030.4843,1031.6681,l,1,0.4296,,[],[],[],[],[],[],[],0.4296,1,1031.6681,1032.1738,,,,,,1072,MAS,DIS,150,poder,la,l,1032.1738,1032.1738,-0.25,0.261111111,0,0,0,,0,232,232,171,1,,,,
,,,,,,88a1a89627a95ec26674f64e,66a626ef09d4e21e1a8894ec,6734e025c2d87c625531db37,2024-11-13_18h33.45.873,Tarea de género gramatical,2024.2.2,Win32,14.4092219,,,,,,,,,,,,,,,,,,,,,,,,1032.1745,1033.3643,l,1,0.4362,,[],[],[],[],[],[],[],0.4362,1,1033.3644,1033.8684,,,,,,1271,MAS,AGR,150,sonido,el,l,1033.8685,1033.8685,-0.25,0.261111111,0,0,0,,0,233,233,370,1,,,,
,,,,,,88a1a89627a95ec26674f64e,66a626ef09d4e21e1a8894ec,6734e025c2d87c625531db37,2024-11-13_18h33.45.873,Tarea de género gramatical,2024.2.2,Win32,14.4092219,,,,,,,,,,,,,,,,,,,,,,,,1033.869,1035.2242,a,1,0.5961,,[],[],[],[],[],[],[],0.5961,1,1035.2243,1035.7284,,,,,,1137,FEM,CON,150,ducha,,a,1035.7284,1035.7285,-0.25,0.261111111,0,0,0,,0,234,234,236,1,,,,
,,,,,,88a1a89627a95ec26674f64e,66a626ef09d4e21e1a8894ec,6734e025c2d87c625531db37,2024-11-13_18h33.45.873,Tarea de género gramatical,2024.2.2,Win32,14.4092219,,,,,,,,,,,,,,,,,,,,,,,,1035.729,1036.9974,a,1,0.5109,,[],[],[],[],[],[],[],0.5109,1,1036.9975,1037.5052,,,,,,1304,FEM,AGR,150,gloria,la,a,1037.5053,1037.5054,-0.25,0.261111111,0,0,0,,0,235,235,403,1,,,,
,,,,,,88a1a89627a95ec26674f64e,66a626ef09d4e21e1a8894ec,6734e025c2d87c625531db37,2024-11-13_18h33.45.873,Tarea de género gramatical,2024.2.2,Win32,14.4092219,,,,,,,,,,,,,,,,,,,,,,,,1037.5059,1039.2008,l,1,0.9415,,[],[],[],[],[],[],[],0.9415,1,1039.2008,1039.7092,,,,,,1102,MAS,DIS,150,honor,la,l,1039.7099,1039.7112,-0.25,0.261111111,0,0,0,,0,236,236,201,1,,,,
,,,,,,88a1a89627a95ec26674f64e,66a626ef09d4e21e1a8894ec,6734e025c2d87c625531db37,2024-11-13_18h33.45.873,Tarea de género gramatical,2024.2.2,Win32,14.4092219,,,,,,,,,,,,,,,,,,,,,,,,1039.7117,1041.4849,l,1,1.0166,,[],[],[],[],[],[],[],1.0166,1,1041.485,1041.9883,,,,,,970,MAS,DIS,150,palo,la,l,1041.9884,1041.9884,-0.25,0.261111111,0,0,0,,0,237,237,69,1,,,,
,,,,,,88a1a89627a95ec26674f64e,66a626ef09d4e21e1a8894ec,6734e025c2d87c625531db37,2024-11-13_18h33.45.873,Tarea de género gramatical,2024.2.2,Win32,14.4092219,,,,,,,,,,,,,,,,,,,,,,,,1041.989,1043.4179,l,1,0.678,,[],[],[],[],[],[],[],0.678,1,1043.418,1043.9232,,,,,,1134,MAS,CON,150,héroe,,l,1043.9232,1043.9232,-0.25,0.261111111,0,0,0,,0,238,238,233,1,,,,
,,,,,,88a1a89627a95ec26674f64e,66a626ef09d4e21e1a8894ec,6734e025c2d87c625531db37,2024-11-13_18h33.45.873,Tarea de género gramatical,2024.2.2,Win32,14.4092219,,,,,,,,,,,,,,,,,,,,,,,,1043.9238,1045.1039,l,1,0.4258,,[],[],[],[],[],[],[],0.4258,1,1045.1039,1045.6102,,,,,,1205,MAS,AGR,150,hombre,el,l,1045.6102,1045.6102,-0.25,0.261111111,0,0,0,,0,239,239,304,1,,,,
,,,,,,88a1a89627a95ec26674f64e,66a626ef09d4e21e1a8894ec,6734e025c2d87c625531db37,2024-11-13_18h33.45.873,Tarea de género gramatical,2024.2.2,Win32,14.4092219,,,,,,,,,,,,,,,,,,,,,,,,1045.6108,1046.8893,a,1,0.5235,,[],[],[],[],[],[],[],0.5235,1,1046.8894,1047.394,,,,,,1046,FEM,AGR,150,lana,la,a,1047.3946,1047.3958,-0.25,0.261111111,0,0,0,,0,240,240,145,1,,,,
,,,,,,88a1a89627a95ec26674f64e,66a626ef09d4e21e1a8894ec,6734e025c2d87c625531db37,2024-11-13_18h33.45.873,Tarea de género gramatical,2024.2.2,Win32,14.4092219,,,,,,,,,,,,,,,,,,,,,,,,1047.3962,1048.9138,a,1,0.7635,,[],[],[],[],[],[],[],0.7635,1,1048.9138,1049.419,,,,,,991,FEM,DIS,150,hoja,el,a,1049.419,1049.419,-0.25,0.261111111,0,0,0,,0,241,241,90,1,,,,
,,,,,,88a1a89627a95ec26674f64e,66a626ef09d4e21e1a8894ec,6734e025c2d87c625531db37,2024-11-13_18h33.45.873,Tarea de género gramatical,2024.2.2,Win32,14.4092219,,,,,,,,,,,,,,,,,,,,,,,,1049.4196,1050.6868,a,1,0.5147,,[],[],[],[],[],[],[],0.5147,1,1050.6868,1051.1915,,,,,,1179,FEM,CON,150,selva,,a,1051.1916,1051.1916,-0.25,0.261111111,0,0,0,,0,242,242,278,1,,,,
,,,,,,88a1a89627a95ec26674f64e,66a626ef09d4e21e1a8894ec,6734e025c2d87c625531db37,2024-11-13_18h33.45.873,Tarea de género gramatical,2024.2.2,Win32,14.4092219,,,,,,,,,,,,,,,,,,,,,,,,1051.1922,1052.4622,a,1,0.5151,,[],[],[],[],[],[],[],0.5151,1,1052.4624,1052.9675,,,,,,1328,FEM,AGR,150,jugada,la,a,1052.9675,1052.9677,-0.25,0.261111111,0,0,0,,0,243,243,427,1,,,,
,,,,,,88a1a89627a95ec26674f64e,66a626ef09d4e21e1a8894ec,6734e025c2d87c625531db37,2024-11-13_18h33.45.873,Tarea de género gramatical,2024.2.2,Win32,14.4092219,,,,,,,,,,,,,,,,,,,,,,,,1052.9682,1054.2369,a,1,0.5121,,[],[],[],[],[],[],[],0.5121,1,1054.237,1054.74,,,,,,1088,FEM,AGR,150,bomba,la,a,1054.7401,1054.7402,-0.25,0.261111111,0,0,0,,0,244,244,187,1,,,,
,,,,,,88a1a89627a95ec26674f64e,66a626ef09d4e21e1a8894ec,6734e025c2d87c625531db37,2024-11-13_18h33.45.873,Tarea de género gramatical,2024.2.2,Win32,14.4092219,,,,,,,,,,,,,,,,,,,,,,,,1054.7407,1056.2775,a,1,0.7818,,[],[],[],[],[],[],[],0.7818,1,1056.2775,1056.7816,,,,,,1297,FEM,DIS,150,cuerda,el,a,1056.7823,1056.7834,-0.25,0.261111111,0,0,0,,0,245,245,396,1,,,,
,,,,,,88a1a89627a95ec26674f64e,66a626ef09d4e21e1a8894ec,6734e025c2d87c625531db37,2024-11-13_18h33.45.873,Tarea de género gramatical,2024.2.2,Win32,14.4092219,,,,,,,,,,,,,,,,,,,,,,,,1056.7839,1057.9582,a,1,0.4014,,[],[],[],[],[],[],[],0.4014,1,1057.9583,1058.4558,,,,,,1076,FEM,AGR,150,línea,la,a,1058.4558,1058.4558,-0.25,0.261111111,0,0,0,,0,246,246,175,1,,,,
,,,,,,88a1a89627a95ec26674f64e,66a626ef09d4e21e1a8894ec,6734e025c2d87c625531db37,2024-11-13_18h33.45.873,Tarea de género gramatical,2024.2.2,Win32,14.4092219,,,,,,,,,,,,,,,,,,,,,,,,1058.4564,1060.0354,l,1,0.7709,,[],[],[],[],[],[],[],0.7709,1,1060.0356,1060.5412,,,,,,1320,MAS,CON,150,helado,,l,1060.5412,1060.5413,-0.25,0.261111111,0,0,0,,0,247,247,419,1,,,,
,,,,,,88a1a89627a95ec26674f64e,66a626ef09d4e21e1a8894ec,6734e025c2d87c625531db37,2024-11-13_18h33.45.873,Tarea de género gramatical,2024.2.2,Win32,14.4092219,,,,,,,,,,,,,,,,,,,,,,,,1060.5418,1062.0597,l,1,0.7651,,[],[],[],[],[],[],[],0.7651,1,1062.0597,1062.5652,,,,,,984,MAS,CON,150,mago,,l,1062.5653,1062.5654,-0.25,0.261111111,0,0,0,,0,248,248,83,1,,,,
,,,,,,88a1a89627a95ec26674f64e,66a626ef09d4e21e1a8894ec,6734e025c2d87c625531db37,2024-11-13_18h33.45.873,Tarea de género gramatical,2024.2.2,Win32,14.4092219,,,,,,,,,,,,,,,,,,,,,,,,1062.5663,1063.8425,a,1,0.5192,,[],[],[],[],[],[],[],0.5192,1,1063.8425,1064.3529,,,,,,919,FEM,DIS,150,niña,el,a,1064.3535,1064.3549,-0.25,0.261111111,0,0,0,,0,249,249,18,1,,,,
,,,,,,88a1a89627a95ec26674f64e,66a626ef09d4e21e1a8894ec,6734e025c2d87c625531db37,2024-11-13_18h33.45.873,Tarea de género gramatical,2024.2.2,Win32,14.4092219,,,,,,,,,,,,,,,,,,,,,,,,1064.3552,1065.8718,a,1,0.7644,,[],[],[],[],[],[],[],0.7644,1,1065.8718,1066.3865,,,,,,975,FEM,CON,150,caza,,a,1066.3865,1066.3866,-0.25,0.261111111,0,0,0,,0,250,250,74,1,,,,
,,,,,,88a1a89627a95ec26674f64e,66a626ef09d4e21e1a8894ec,6734e025c2d87c625531db37,2024-11-13_18h33.45.873,Tarea de género gramatical,2024.2.2,Win32,14.4092219,,,,,,,,,,,,,,,,,,,,,,,,1066.3871,1067.9174,a,1,0.7672,,[],[],[],[],[],[],[],0.7672,1,1067.9174,1068.4246,,,,,,1005,FEM,CON,150,jefa,,a,1068.4247,1068.4247,-0.25,0.261111111,0,0,0,,0,251,251,104,1,,,,
,,,,,,88a1a89627a95ec26674f64e,66a626ef09d4e21e1a8894ec,6734e025c2d87c625531db37,2024-11-13_18h33.45.873,Tarea de género gramatical,2024.2.2,Win32,14.4092219,,,,,,,,,,,,,,,,,,,,,,,,1068.4253,1069.6933,a,1,0.5139,,[],[],[],[],[],[],[],0.5139,1,1069.6934,1070.2009,,,,,,931,FEM,DIS,150,edad,el,a,1070.201,1070.201,-0.25,0.261111111,0,0,0,,0,252,252,30,1,,,,
,,,,,,88a1a89627a95ec26674f64e,66a626ef09d4e21e1a8894ec,6734e025c2d87c625531db37,2024-11-13_18h33.45.873,Tarea de género gramatical,2024.2.2,Win32,14.4092219,,,,,,,,,,,,,,,,,,,,,,,,1070.2016,1071.4842,a,1,0.5183,,[],[],[],[],[],[],[],0.5183,1,1071.4842,1071.9894,,,,,,992,FEM,AGR,150,masa,la,a,1071.9895,1071.9895,-0.25,0.261111111,0,0,0,,0,253,253,91,1,,,,
,,,,,,88a1a89627a95ec26674f64e,66a626ef09d4e21e1a8894ec,6734e025c2d87c625531db37,2024-11-13_18h33.45.873,Tarea de género gramatical,2024.2.2,Win32,14.4092219,,,,,,,,,,,,,,,,,,,,,,,,1071.99,1073.1787,l,1,0.4356,,[],[],[],[],[],[],[],0.4356,1,1073.1788,1073.684,,,,,,917,MAS,AGR,150,modo,el,l,1073.6846,1073.686,-0.25,0.261111111,0,0,0,,0,254,254,16,1,,,,
,,,,,,88a1a89627a95ec26674f64e,66a626ef09d4e21e1a8894ec,6734e025c2d87c625531db37,2024-11-13_18h33.45.873,Tarea de género gramatical,2024.2.2,Win32,14.4092219,,,,,,,,,,,,,,,,,,,,,,,,1073.6863,1074.9598,l,1,0.5117,,[],[],[],[],[],[],[],0.5117,1,1074.9598,1075.4638,,,,,,1307,MAS,AGR,150,jurado,el,l,1075.4638,1075.4639,-0.25,0.261111111,0,0,0,,0,255,255,406,1,,,,
