counterbalancing_condition,consent_prescreening.block_1/declare_consent,consent_prescreening.block_1/age_years,consent_prescreening.block_1/gender,consent_prescreening.block_1/language_disorder,consent_prescreening.block_1/first_language,PROLIFIC_PID,STUDY_ID,SESSION_ID,date,expName,psychopyVersion,OS,frameRate,check_prescreening_answers.started,check_prescreening_answers.stopped,Instructions.started,Instructions.stopped,instr_done_keyboard.keys,instr_done_keyboard.rt,instr_done_keyboard.duration,instr_done_touch.x,instr_done_touch.y,instr_done_touch.leftButton,instr_done_touch.midButton,instr_done_touch.rightButton,instruction_pages.thisRepN,instruction_pages.thisTrialN,instruction_pages.thisN,instruction_pages.thisIndex,instruction_pages.ran,pageN,phase,instruct_text,has_image,instruct_image,presentTrial.started,presentTrial.stopped,response.keys,response.corr,touch_resp.x,touch_resp.y,touch_resp.leftButton,touch_resp.midButton,touch_resp.rightButton,touch_resp.time,touch_resp.clicked_name,rt,corr,feedback.started,feedback.stopped,practice_trials.thisRepN,practice_trials.thisTrialN,practice_trials.thisN,practice_trials.thisIndex,practice_trials.ran,TrialID,StimulusType,Condition,PrimeDuration,Prime,Flanker,corrAns,response.rt,response.duration,Break.started,Break.stopped,break_done_touch.x,break_done_touch.y,break_done_touch.leftButton,break_done_touch.midButton,break_done_touch.rightButton,break_done_keyboard.keys,experiment_trials.thisRepN,experiment_trials.thisTrialN,experiment_trials.thisN,experiment_trials.thisIndex,experiment_trials.ran,break_done_touch.clicked_name,break_done_keyboard.rt,break_done_keyboard.duration,End.started,End.stopped
1,"[""comfortable"",""read_info"",""consent_given"",""over_18""]",35,F,"[""none""]","[""spanish""]",8c18ae3a88feee99317f25b9,66a626ef09d4e21e1a8894ec,67360fd2e525050b8ad924a1,2024-11-14_11h58.14.095,Tarea de género gramatical,2024.2.2,Win32,144.9275362,,,,,,,,,,,,,,,,,,,,,,,,,,,,,,,,,,,,,,,,,,,,,,,,,,,,,,,,,,,,,,,,,,,,,
,,,,,,8c18ae3a88feee99317f25b9,66a626ef09d4e21e1a8894ec,67360fd2e525050b8ad924a1,2024-11-14_11h58.14.095,Tarea de género gramatical,2024.2.2,Win32,144.9275362,24.4765,24.4766,,,,,,,,,,,,,,,,,,,,,,,,,,,,,,,,,,,,,,,,,,,,,,,,,,,,,,,,,,,,,,,,,,,
,,,,,,8c18ae3a88feee99317f25b9,66a626ef09d4e21e1a8894ec,67360fd2e525050b8ad924a1,2024-11-14_11h58.14.095,Tarea de género gramatical,2024.2.2,Win32,144.9275362,,,24.4885,33.4971,space,8.9817,,-0.02407406,-0.395370413,0,0,0,0,0,0,0,1,1,instructions,"INSTRUCCIONES
Va a realizar una prueba de selección gramatical. Desde el comienzo de la prueba mire siempre al centro de la pantalla. Al cabo de un momento, aparecerán palabras. La tarea consiste en determinar si la palabra del centro (siempre será un sustantivo), pertenece al género masculino o femenino.

Pulse la tecla ESPACIO o toque el botón de abajo para continuar.",0,keyboardresponseMF.png,,,,,,,,,,,,,,,,,,,,,,,,,,,,,,,,,,,,,,,,,,,,,,,
,,,,,,8c18ae3a88feee99317f25b9,66a626ef09d4e21e1a8894ec,67360fd2e525050b8ad924a1,2024-11-14_11h58.14.095,Tarea de género gramatical,2024.2.2,Win32,144.9275362,,,33.4989,42.6468,space,9.112,,-0.02407406,-0.395370413,0,0,0,0,1,1,1,1,2,instructions,"Si su dispositivo tiene teclado, pulse la tecla ""A"" para las palabras en masculino (por ejemplo: ""arroz"") y la tecla ""L"" para las palabras en femenino (por ejemplo: ""mano"").
Pulse la tecla ESPACIO o toque el botón de abajo para continuar.",1,keyboardresponseMF.png,,,,,,,,,,,,,,,,,,,,,,,,,,,,,,,,,,,,,,,,,,,,,,,
,,,,,,8c18ae3a88feee99317f25b9,66a626ef09d4e21e1a8894ec,67360fd2e525050b8ad924a1,2024-11-14_11h58.14.095,Tarea de género gramatical,2024.2.2,Win32,144.9275362,,,42.6482,53.4596,space,10.7847,,-0.02407406,-0.395370413,0,0,0,0,2,2,2,1,3,instructions,"Si utiliza un dispositivo sólo táctil, colóquelo en horizontal y utilice los botones de la pantalla. No utilice el ratón.
Pulse la tecla ESPACIO o toque el botón de abajo para continuar.",2,touchresponseMF.png,,,,,,,,,,,,,,,,,,,,,,,,,,,,,,,,,,,,,,,,,,,,,,,
,,,,,,8c18ae3a88feee99317f25b9,66a626ef09d4e21e1a8894ec,67360fd2e525050b8ad924a1,2024-11-14_11h58.14.095,Tarea de género gramatical,2024.2.2,Win32,144.9275362,,,53.4616,61.1976,space,7.7286,,-0.02407406,-0.395370413,0,0,0,0,3,3,3,1,4,instructions,"Es muy importante que responda con la mayor rapidez y precisión posibles, ya que cada cadena de letras sólo estará en pantalla durante un instante. Si no responde en ese tiempo, aparecerá el mensaje ""Muy lento"" y el experimento pasará a la siguiente palabra. Los primeros 15 intentos serán de práctica y habrá dos descansos durante la prueba.
Pulse la tecla ESPACIO o toque el botón de abajo para iniciar la parte de práctica.",0,keyboardresponseMF.png,,,,,,,,,,,,,,,,,,,,,,,,,,,,,,,,,,,,,,,,,,,,,,,
,,,,,,8c18ae3a88feee99317f25b9,66a626ef09d4e21e1a8894ec,67360fd2e525050b8ad924a1,2024-11-14_11h58.14.095,Tarea de género gramatical,2024.2.2,Win32,144.9275362,,,,,,,,,,,,,,,,,,,,,,,61.2085,63.8568,,0,[],[],[],[],[],[],[],,-1,63.857,64.3541,0,0,0,3,1,2004,FEM,AGR,150,venta,la,a,,,,,,,,,,,,,,,,,,,,
,,,,,,8c18ae3a88feee99317f25b9,66a626ef09d4e21e1a8894ec,67360fd2e525050b8ad924a1,2024-11-14_11h58.14.095,Tarea de género gramatical,2024.2.2,Win32,144.9275362,,,,,,,,,,,,,,,,,,,,,,,64.3552,65.8613,l,1,[],[],[],[],[],[],[],0.8505,1,65.8655,66.3566,0,1,1,2,1,2003,FEM,DIS,150,daga,el,a,0.8505,,,,,,,,,,,,,,,,,,,
,,,,,,8c18ae3a88feee99317f25b9,66a626ef09d4e21e1a8894ec,67360fd2e525050b8ad924a1,2024-11-14_11h58.14.095,Tarea de género gramatical,2024.2.2,Win32,144.9275362,,,,,,,,,,,,,,,,,,,,,,,66.3581,67.7871,l,1,[],[],[],[],[],[],[],0.7726,1,67.7872,68.2871,0,2,2,1,1,2002,FEM,CON,150,pala,,a,0.7726,,,,,,,,,,,,,,,,,,,
,,,,,,8c18ae3a88feee99317f25b9,66a626ef09d4e21e1a8894ec,67360fd2e525050b8ad924a1,2024-11-14_11h58.14.095,Tarea de género gramatical,2024.2.2,Win32,144.9275362,,,,,,,,,,,,,,,,,,,,,,,68.2885,69.9121,a,1,[],[],[],[],[],[],[],0.9657,1,69.9122,70.412,0,3,3,9,1,2010,MAS,AGR,150,vecino,el,l,0.9657,,,,,,,,,,,,,,,,,,,
,,,,,,8c18ae3a88feee99317f25b9,66a626ef09d4e21e1a8894ec,67360fd2e525050b8ad924a1,2024-11-14_11h58.14.095,Tarea de género gramatical,2024.2.2,Win32,144.9275362,,,,,,,,,,,,,,,,,,,,,,,70.4135,71.5162,a,0,[],[],[],[],[],[],[],0.443,0,71.5175,72.0163,0,4,4,5,1,2006,FEM,DIS,150,serie,el,a,0.443,,,,,,,,,,,,,,,,,,,
,,,,,,8c18ae3a88feee99317f25b9,66a626ef09d4e21e1a8894ec,67360fd2e525050b8ad924a1,2024-11-14_11h58.14.095,Tarea de género gramatical,2024.2.2,Win32,144.9275362,,,,,,,,,,,,,,,,,,,,,,,72.0176,73.2782,l,0,[],[],[],[],[],[],[],0.5974,0,73.2783,73.7732,0,5,5,8,1,2009,MAS,DIS,150,puerto,la,l,0.5974,,,,,,,,,,,,,,,,,,,
,,,,,,8c18ae3a88feee99317f25b9,66a626ef09d4e21e1a8894ec,67360fd2e525050b8ad924a1,2024-11-14_11h58.14.095,Tarea de género gramatical,2024.2.2,Win32,144.9275362,,,,,,,,,,,,,,,,,,,,,,,73.7746,75.0162,l,1,[],[],[],[],[],[],[],0.5837,1,75.0174,75.5128,0,6,6,4,1,2005,FEM,CON,150,placa,,a,0.5837,,,,,,,,,,,,,,,,,,,
,,,,,,8c18ae3a88feee99317f25b9,66a626ef09d4e21e1a8894ec,67360fd2e525050b8ad924a1,2024-11-14_11h58.14.095,Tarea de género gramatical,2024.2.2,Win32,144.9275362,,,,,,,,,,,,,,,,,,,,,,,75.5135,76.8334,l,1,[],[],[],[],[],[],[],0.653,1,76.8335,77.3326,0,7,7,7,1,2008,FEM,CON,150,siesta,,a,0.653,,,,,,,,,,,,,,,,,,,
,,,,,,8c18ae3a88feee99317f25b9,66a626ef09d4e21e1a8894ec,67360fd2e525050b8ad924a1,2024-11-14_11h58.14.095,Tarea de género gramatical,2024.2.2,Win32,144.9275362,,,,,,,,,,,,,,,,,,,,,,,77.3335,78.3889,a,0,[],[],[],[],[],[],[],0.4003,0,78.3895,78.8842,0,8,8,6,1,2007,FEM,AGR,150,navaja,la,a,0.4003,,,,,,,,,,,,,,,,,,,
,,,,,,8c18ae3a88feee99317f25b9,66a626ef09d4e21e1a8894ec,67360fd2e525050b8ad924a1,2024-11-14_11h58.14.095,Tarea de género gramatical,2024.2.2,Win32,144.9275362,,,,,,,,,,,,,,,,,,,,,,,78.8856,80.0716,a,1,[],[],[],[],[],[],[],0.5248,1,80.0728,80.5689,0,9,9,12,1,2013,MAS,AGR,150,acero,el,l,0.5248,,,,,,,,,,,,,,,,,,,
,,,,,,8c18ae3a88feee99317f25b9,66a626ef09d4e21e1a8894ec,67360fd2e525050b8ad924a1,2024-11-14_11h58.14.095,Tarea de género gramatical,2024.2.2,Win32,144.9275362,,,,,,,,,,,,,,,,,,,,,,,80.5696,81.4515,l,1,[],[],[],[],[],[],[],0.2226,1,81.4515,81.948,0,10,10,0,1,2001,FEM,AGR,150,nuca,la,a,0.2226,,,,,,,,,,,,,,,,,,,
,,,,,,8c18ae3a88feee99317f25b9,66a626ef09d4e21e1a8894ec,67360fd2e525050b8ad924a1,2024-11-14_11h58.14.095,Tarea de género gramatical,2024.2.2,Win32,144.9275362,,,,,,,,,,,,,,,,,,,,,,,81.9499,82.8542,l,0,[],[],[],[],[],[],[],0.2468,0,82.8547,83.3495,0,11,11,14,1,2015,MAS,DIS,150,robot,la,l,0.2468,,,,,,,,,,,,,,,,,,,
,,,,,,8c18ae3a88feee99317f25b9,66a626ef09d4e21e1a8894ec,67360fd2e525050b8ad924a1,2024-11-14_11h58.14.095,Tarea de género gramatical,2024.2.2,Win32,144.9275362,,,,,,,,,,,,,,,,,,,,,,,83.351,84.4899,a,1,[],[],[],[],[],[],[],0.4771,1,84.4913,84.9882,0,12,12,11,1,2012,MAS,DIS,150,clima,la,l,0.4771,,,,,,,,,,,,,,,,,,,
,,,,,,8c18ae3a88feee99317f25b9,66a626ef09d4e21e1a8894ec,67360fd2e525050b8ad924a1,2024-11-14_11h58.14.095,Tarea de género gramatical,2024.2.2,Win32,144.9275362,,,,,,,,,,,,,,,,,,,,,,,84.9897,86.1875,l,0,[],[],[],[],[],[],[],0.5408,0,86.188,86.6827,0,13,13,10,1,2011,MAS,CON,150,canal,,l,0.5408,,,,,,,,,,,,,,,,,,,
,,,,,,8c18ae3a88feee99317f25b9,66a626ef09d4e21e1a8894ec,67360fd2e525050b8ad924a1,2024-11-14_11h58.14.095,Tarea de género gramatical,2024.2.2,Win32,144.9275362,,,,,,,,,,,,,,,,,,,,,,,86.684,88.0137,l,0,[],[],[],[],[],[],[],0.671,0,88.0137,88.5134,0,14,14,13,1,2014,MAS,CON,150,siglo,,l,0.671,,,,,,,,,,,,,,,,,,,
,,,,,,8c18ae3a88feee99317f25b9,66a626ef09d4e21e1a8894ec,67360fd2e525050b8ad924a1,2024-11-14_11h58.14.095,Tarea de género gramatical,2024.2.2,Win32,144.9275362,,,93.6723,102.6663,space,8.9857,,-0.02407406,-0.395370413,0,0,0,,,,,,,,,,,102.6907,103.9934,l,1,[],[],[],[],[],[],[],0.6466,1,103.994,104.4921,,,,,,493,FEM,CON,150,nena,,a,0.6466,,104.4923,104.4953,-0.02407406,-0.395370413,0,0,0,,0,0,0,42,1,,,,,
,,,,,,8c18ae3a88feee99317f25b9,66a626ef09d4e21e1a8894ec,67360fd2e525050b8ad924a1,2024-11-14_11h58.14.095,Tarea de género gramatical,2024.2.2,Win32,144.9275362,,,,,,,,,,,,,,,,,,,,,,,104.4964,105.5028,a,1,[],[],[],[],[],[],[],0.3438,1,105.503,105.999,,,,,,642,MAS,AGR,150,grupo,el,l,0.3438,,105.999,105.9991,-0.02407406,-0.395370413,0,0,0,,0,1,1,191,1,,,,,
,,,,,,8c18ae3a88feee99317f25b9,66a626ef09d4e21e1a8894ec,67360fd2e525050b8ad924a1,2024-11-14_11h58.14.095,Tarea de género gramatical,2024.2.2,Win32,144.9275362,,,,,,,,,,,,,,,,,,,,,,,105.9999,106.9963,a,0,[],[],[],[],[],[],[],0.3325,0,106.9974,107.492,,,,,,650,FEM,DIS,150,silla,el,a,0.3325,,107.4928,107.4933,-0.02407406,-0.395370413,0,0,0,,0,2,2,199,1,,,,,
,,,,,,8c18ae3a88feee99317f25b9,66a626ef09d4e21e1a8894ec,67360fd2e525050b8ad924a1,2024-11-14_11h58.14.095,Tarea de género gramatical,2024.2.2,Win32,144.9275362,,,,,,,,,,,,,,,,,,,,,,,107.4937,108.4231,a,1,[],[],[],[],[],[],[],0.2647,1,108.4236,108.9182,,,,,,612,MAS,AGR,150,miedo,el,l,0.2647,,108.9184,108.9185,-0.02407406,-0.395370413,0,0,0,,0,3,3,161,1,,,,,
,,,,,,8c18ae3a88feee99317f25b9,66a626ef09d4e21e1a8894ec,67360fd2e525050b8ad924a1,2024-11-14_11h58.14.095,Tarea de género gramatical,2024.2.2,Win32,144.9275362,,,,,,,,,,,,,,,,,,,,,,,108.9199,109.9024,l,0,[],[],[],[],[],[],[],0.326,0,109.9029,110.3975,,,,,,478,MAS,CON,150,club,,l,0.326,,110.3977,110.3979,-0.02407406,-0.395370413,0,0,0,,0,4,4,27,1,,,,,
,,,,,,8c18ae3a88feee99317f25b9,66a626ef09d4e21e1a8894ec,67360fd2e525050b8ad924a1,2024-11-14_11h58.14.095,Tarea de género gramatical,2024.2.2,Win32,144.9275362,,,,,,,,,,,,,,,,,,,,,,,110.3992,111.4322,l,0,[],[],[],[],[],[],[],0.3684,0,111.4324,111.9321,,,,,,671,MAS,DIS,150,brazo,la,l,0.3684,,111.9322,111.9332,-0.02407406,-0.395370413,0,0,0,,0,5,5,220,1,,,,,
,,,,,,8c18ae3a88feee99317f25b9,66a626ef09d4e21e1a8894ec,67360fd2e525050b8ad924a1,2024-11-14_11h58.14.095,Tarea de género gramatical,2024.2.2,Win32,144.9275362,,,,,,,,,,,,,,,,,,,,,,,111.9339,113.1032,l,1,[],[],[],[],[],[],[],0.5075,1,113.1037,113.6,,,,,,579,FEM,AGR,150,rana,la,a,0.5075,,113.6018,113.6024,-0.02407406,-0.395370413,0,0,0,,0,6,6,128,1,,,,,
,,,,,,8c18ae3a88feee99317f25b9,66a626ef09d4e21e1a8894ec,67360fd2e525050b8ad924a1,2024-11-14_11h58.14.095,Tarea de género gramatical,2024.2.2,Win32,144.9275362,,,,,,,,,,,,,,,,,,,,,,,113.6028,114.7723,a,1,[],[],[],[],[],[],[],0.5072,1,114.7725,115.2723,,,,,,720,MAS,AGR,150,queso,el,l,0.5072,,115.2725,115.2727,-0.02407406,-0.395370413,0,0,0,,0,7,7,269,1,,,,,
,,,,,,8c18ae3a88feee99317f25b9,66a626ef09d4e21e1a8894ec,67360fd2e525050b8ad924a1,2024-11-14_11h58.14.095,Tarea de género gramatical,2024.2.2,Win32,144.9275362,,,,,,,,,,,,,,,,,,,,,,,115.2738,116.2793,a,0,[],[],[],[],[],[],[],0.341,0,116.2807,116.7836,,,,,,537,FEM,AGR,150,risa,la,a,0.341,,116.7836,116.7837,-0.02407406,-0.395370413,0,0,0,,0,8,8,86,1,,,,,
,,,,,,8c18ae3a88feee99317f25b9,66a626ef09d4e21e1a8894ec,67360fd2e525050b8ad924a1,2024-11-14_11h58.14.095,Tarea de género gramatical,2024.2.2,Win32,144.9275362,,,,,,,,,,,,,,,,,,,,,,,116.7843,117.8251,l,0,[],[],[],[],[],[],[],0.3751,0,117.8252,118.3258,,,,,,778,MAS,CON,150,asunto,,l,0.3751,,118.3258,118.326,-0.02407406,-0.395370413,0,0,0,,0,9,9,327,1,,,,,
,,,,,,8c18ae3a88feee99317f25b9,66a626ef09d4e21e1a8894ec,67360fd2e525050b8ad924a1,2024-11-14_11h58.14.095,Tarea de género gramatical,2024.2.2,Win32,144.9275362,,,,,,,,,,,,,,,,,,,,,,,118.3268,119.1448,l,1,[],[],[],[],[],[],[],0.1535,1,119.1454,119.6402,,,,,,542,FEM,DIS,150,masa,el,a,0.1535,,119.6403,119.6405,-0.02407406,-0.395370413,0,0,0,,0,10,10,91,1,,,,,
,,,,,,8c18ae3a88feee99317f25b9,66a626ef09d4e21e1a8894ec,67360fd2e525050b8ad924a1,2024-11-14_11h58.14.095,Tarea de género gramatical,2024.2.2,Win32,144.9275362,,,,,,,,,,,,,,,,,,,,,,,119.6417,120.6031,a,1,[],[],[],[],[],[],[],0.299,1,120.6032,121.0996,,,,,,719,MAS,DIS,150,primo,la,l,0.299,,121.1012,121.1017,-0.02407406,-0.395370413,0,0,0,,0,11,11,268,1,,,,,
,,,,,,8c18ae3a88feee99317f25b9,66a626ef09d4e21e1a8894ec,67360fd2e525050b8ad924a1,2024-11-14_11h58.14.095,Tarea de género gramatical,2024.2.2,Win32,144.9275362,,,,,,,,,,,,,,,,,,,,,,,121.1022,121.8945,a,1,[],[],[],[],[],[],[],0.1256,1,121.8946,122.391,,,,,,784,MAS,CON,150,ataque,,l,0.1256,,122.3912,122.3913,-0.02407406,-0.395370413,0,0,0,,0,12,12,333,1,,,,,
,,,,,,8c18ae3a88feee99317f25b9,66a626ef09d4e21e1a8894ec,67360fd2e525050b8ad924a1,2024-11-14_11h58.14.095,Tarea de género gramatical,2024.2.2,Win32,144.9275362,,,,,,,,,,,,,,,,,,,,,,,122.3926,123.2721,a,1,[],[],[],[],[],[],[],0.2232,1,123.2723,123.772,,,,,,744,MAS,AGR,150,cable,el,l,0.2232,,123.7722,123.7722,-0.02407406,-0.395370413,0,0,0,,0,13,13,293,1,,,,,
,,,,,,8c18ae3a88feee99317f25b9,66a626ef09d4e21e1a8894ec,67360fd2e525050b8ad924a1,2024-11-14_11h58.14.095,Tarea de género gramatical,2024.2.2,Win32,144.9275362,,,,,,,,,,,,,,,,,,,,,,,123.7735,124.5361,a,0,[],[],[],[],[],[],[],0.1017,0,124.5373,125.0326,,,,,,847,FEM,CON,150,cuerda,,a,0.1017,,125.0327,125.0327,-0.02407406,-0.395370413,0,0,0,,0,14,14,396,1,,,,,
,,,,,,8c18ae3a88feee99317f25b9,66a626ef09d4e21e1a8894ec,67360fd2e525050b8ad924a1,2024-11-14_11h58.14.095,Tarea de género gramatical,2024.2.2,Win32,144.9275362,,,,,,,,,,,,,,,,,,,,,,,125.0334,125.8553,a,0,[],[],[],[],[],[],[],0.1551,0,125.8555,126.3556,,,,,,619,FEM,CON,150,vista,,a,0.1551,,126.3572,126.3578,-0.02407406,-0.395370413,0,0,0,,0,15,15,168,1,,,,,
,,,,,,8c18ae3a88feee99317f25b9,66a626ef09d4e21e1a8894ec,67360fd2e525050b8ad924a1,2024-11-14_11h58.14.095,Tarea de género gramatical,2024.2.2,Win32,144.9275362,,,,,,,,,,,,,,,,,,,,,,,126.3582,127.0542,l,0,[],[],[],[],[],[],[],0.0315,0,127.0542,127.5497,,,,,,473,MAS,DIS,150,rato,la,l,0.0315,,127.5499,127.5501,-0.02407406,-0.395370413,0,0,0,,0,16,16,22,1,,,,,
,,,,,,8c18ae3a88feee99317f25b9,66a626ef09d4e21e1a8894ec,67360fd2e525050b8ad924a1,2024-11-14_11h58.14.095,Tarea de género gramatical,2024.2.2,Win32,144.9275362,,,,,,,,,,,,,,,,,,,,,,,127.5512,128.545,a,0,[],[],[],[],[],[],[],0.3371,0,128.545,129.0429,,,,,,769,FEM,CON,150,sangre,,a,0.3371,,129.0431,129.0432,-0.02407406,-0.395370413,0,0,0,,0,17,17,318,1,,,,,
,,,,,,8c18ae3a88feee99317f25b9,66a626ef09d4e21e1a8894ec,67360fd2e525050b8ad924a1,2024-11-14_11h58.14.095,Tarea de género gramatical,2024.2.2,Win32,144.9275362,,,,,,,,,,,,,,,,,,,,,,,129.0444,129.7671,l,0,[],[],[],[],[],[],[],0.0606,0,129.7671,130.2651,,,,,,594,MAS,AGR,150,amor,el,l,0.0606,,130.2653,130.2654,-0.02407406,-0.395370413,0,0,0,,0,18,18,143,1,,,,,
,,,,,,8c18ae3a88feee99317f25b9,66a626ef09d4e21e1a8894ec,67360fd2e525050b8ad924a1,2024-11-14_11h58.14.095,Tarea de género gramatical,2024.2.2,Win32,144.9275362,,,,,,,,,,,,,,,,,,,,,,,130.2665,131.0774,a,0,[],[],[],[],[],[],[],0.1476,0,131.0776,131.5774,,,,,,727,FEM,CON,150,plaza,,a,0.1476,,131.5778,131.5778,-0.02407406,-0.395370413,0,0,0,,0,19,19,276,1,,,,,
,,,,,,8c18ae3a88feee99317f25b9,66a626ef09d4e21e1a8894ec,67360fd2e525050b8ad924a1,2024-11-14_11h58.14.095,Tarea de género gramatical,2024.2.2,Win32,144.9275362,,,,,,,,,,,,,,,,,,,,,,,131.579,132.3347,a,1,[],[],[],[],[],[],[],0.0965,1,132.3356,132.8343,,,,,,462,MAS,AGR,150,plan,el,l,0.0965,,132.8358,132.8363,-0.02407406,-0.395370413,0,0,0,,0,20,20,11,1,,,,,
,,,,,,8c18ae3a88feee99317f25b9,66a626ef09d4e21e1a8894ec,67360fd2e525050b8ad924a1,2024-11-14_11h58.14.095,Tarea de género gramatical,2024.2.2,Win32,144.9275362,,,,,,,,,,,,,,,,,,,,,,,132.8368,133.6903,a,1,[],[],[],[],[],[],[],0.1914,1,133.6905,134.1861,,,,,,587,MAS,DIS,150,coco,la,l,0.1914,,134.1862,134.1862,-0.02407406,-0.395370413,0,0,0,,0,21,21,136,1,,,,,
,,,,,,8c18ae3a88feee99317f25b9,66a626ef09d4e21e1a8894ec,67360fd2e525050b8ad924a1,2024-11-14_11h58.14.095,Tarea de género gramatical,2024.2.2,Win32,144.9275362,,,,,,,,,,,,,,,,,,,,,,,134.1871,135.0433,a,1,[],[],[],[],[],[],[],0.1925,1,135.0434,135.5469,,,,,,773,MAS,DIS,150,marido,la,l,0.1925,,135.5469,135.547,-0.02407406,-0.395370413,0,0,0,,0,22,22,322,1,,,,,
,,,,,,8c18ae3a88feee99317f25b9,66a626ef09d4e21e1a8894ec,67360fd2e525050b8ad924a1,2024-11-14_11h58.14.095,Tarea de género gramatical,2024.2.2,Win32,144.9275362,,,,,,,,,,,,,,,,,,,,,,,135.5483,136.4961,a,0,[],[],[],[],[],[],[],0.2829,0,136.4966,136.9941,,,,,,578,FEM,DIS,150,leña,el,a,0.2829,,136.9941,136.9943,-0.02407406,-0.395370413,0,0,0,,0,23,23,127,1,,,,,
,,,,,,8c18ae3a88feee99317f25b9,66a626ef09d4e21e1a8894ec,67360fd2e525050b8ad924a1,2024-11-14_11h58.14.095,Tarea de género gramatical,2024.2.2,Win32,144.9275362,,,,,,,,,,,,,,,,,,,,,,,136.9956,138.5193,l,1,[],[],[],[],[],[],[],0.8671,1,138.5198,139.0147,,,,,,848,FEM,DIS,150,hierba,el,a,0.8671,,139.0162,139.0168,-0.02407406,-0.395370413,0,0,0,,0,24,24,397,1,,,,,
,,,,,,8c18ae3a88feee99317f25b9,66a626ef09d4e21e1a8894ec,67360fd2e525050b8ad924a1,2024-11-14_11h58.14.095,Tarea de género gramatical,2024.2.2,Win32,144.9275362,,,,,,,,,,,,,,,,,,,,,,,139.0172,140.1858,l,1,[],[],[],[],[],[],[],0.5127,1,140.1859,140.6815,,,,,,807,FEM,AGR,150,lengua,la,a,0.5127,,140.6816,140.6818,-0.02407406,-0.395370413,0,0,0,,0,25,25,356,1,,,,,
,,,,,,8c18ae3a88feee99317f25b9,66a626ef09d4e21e1a8894ec,67360fd2e525050b8ad924a1,2024-11-14_11h58.14.095,Tarea de género gramatical,2024.2.2,Win32,144.9275362,,,,,,,,,,,,,,,,,,,,,,,140.683,141.7347,l,1,[],[],[],[],[],[],[],0.3895,1,141.7348,142.2301,,,,,,469,FEM,CON,150,niña,,a,0.3895,,142.2301,142.2302,-0.02407406,-0.395370413,0,0,0,,0,26,26,18,1,,,,,
,,,,,,8c18ae3a88feee99317f25b9,66a626ef09d4e21e1a8894ec,67360fd2e525050b8ad924a1,2024-11-14_11h58.14.095,Tarea de género gramatical,2024.2.2,Win32,144.9275362,,,,,,,,,,,,,,,,,,,,,,,142.2317,143.2902,a,1,[],[],[],[],[],[],[],0.4034,1,143.2903,143.7856,,,,,,474,MAS,AGR,150,voto,el,l,0.4034,,143.7857,143.7859,-0.02407406,-0.395370413,0,0,0,,0,27,27,23,1,,,,,
,,,,,,8c18ae3a88feee99317f25b9,66a626ef09d4e21e1a8894ec,67360fd2e525050b8ad924a1,2024-11-14_11h58.14.095,Tarea de género gramatical,2024.2.2,Win32,144.9275362,,,,,,,,,,,,,,,,,,,,,,,143.7873,145.0495,l,1,[],[],[],[],[],[],[],0.6042,1,145.0497,145.5491,,,,,,686,FEM,DIS,150,deuda,el,a,0.6042,,145.5492,145.5494,-0.02407406,-0.395370413,0,0,0,,0,28,28,235,1,,,,,
,,,,,,8c18ae3a88feee99317f25b9,66a626ef09d4e21e1a8894ec,67360fd2e525050b8ad924a1,2024-11-14_11h58.14.095,Tarea de género gramatical,2024.2.2,Win32,144.9275362,,,,,,,,,,,,,,,,,,,,,,,145.5507,146.6697,l,0,[],[],[],[],[],[],[],0.4601,0,146.6702,147.1672,,,,,,838,MAS,CON,150,empleo,,l,0.4601,,147.1688,147.1694,-0.02407406,-0.395370413,0,0,0,,0,29,29,387,1,,,,,
,,,,,,8c18ae3a88feee99317f25b9,66a626ef09d4e21e1a8894ec,67360fd2e525050b8ad924a1,2024-11-14_11h58.14.095,Tarea de género gramatical,2024.2.2,Win32,144.9275362,,,,,,,,,,,,,,,,,,,,,,,147.1698,148.6395,l,1,[],[],[],[],[],[],[],0.8077,1,148.6409,149.1395,,,,,,499,FEM,CON,150,piel,,a,0.8077,,149.1397,149.1397,-0.02407406,-0.395370413,0,0,0,,0,30,30,48,1,,,,,
,,,,,,8c18ae3a88feee99317f25b9,66a626ef09d4e21e1a8894ec,67360fd2e525050b8ad924a1,2024-11-14_11h58.14.095,Tarea de género gramatical,2024.2.2,Win32,144.9275362,,,,,,,,,,,,,,,,,,,,,,,149.141,150.1743,l,1,[],[],[],[],[],[],[],0.3733,1,150.1745,150.6716,,,,,,655,FEM,CON,150,reina,,a,0.3733,,150.6716,150.6716,-0.02407406,-0.395370413,0,0,0,,0,31,31,204,1,,,,,
,,,,,,8c18ae3a88feee99317f25b9,66a626ef09d4e21e1a8894ec,67360fd2e525050b8ad924a1,2024-11-14_11h58.14.095,Tarea de género gramatical,2024.2.2,Win32,144.9275362,,,,,,,,,,,,,,,,,,,,,,,150.6722,151.6672,l,1,[],[],[],[],[],[],[],0.328,1,151.6675,152.1646,,,,,,471,FEM,AGR,150,boca,la,a,0.328,,152.1647,152.1647,-0.02407406,-0.395370413,0,0,0,,0,32,32,20,1,,,,,
,,,,,,8c18ae3a88feee99317f25b9,66a626ef09d4e21e1a8894ec,67360fd2e525050b8ad924a1,2024-11-14_11h58.14.095,Tarea de género gramatical,2024.2.2,Win32,144.9275362,,,,,,,,,,,,,,,,,,,,,,,152.1654,153.4772,a,1,[],[],[],[],[],[],[],0.6497,1,153.4773,153.973,,,,,,696,MAS,AGR,150,humor,el,l,0.6497,,153.9747,153.9753,-0.02407406,-0.395370413,0,0,0,,0,33,33,245,1,,,,,
,,,,,,8c18ae3a88feee99317f25b9,66a626ef09d4e21e1a8894ec,67360fd2e525050b8ad924a1,2024-11-14_11h58.14.095,Tarea de género gramatical,2024.2.2,Win32,144.9275362,,,,,,,,,,,,,,,,,,,,,,,153.9757,155.5075,l,1,[],[],[],[],[],[],[],0.8698,1,155.5076,156.0076,,,,,,451,FEM,CON,150,casa,,a,0.8698,,156.0076,156.0078,-0.02407406,-0.395370413,0,0,0,,0,34,34,0,1,,,,,
,,,,,,8c18ae3a88feee99317f25b9,66a626ef09d4e21e1a8894ec,67360fd2e525050b8ad924a1,2024-11-14_11h58.14.095,Tarea de género gramatical,2024.2.2,Win32,144.9275362,,,,,,,,,,,,,,,,,,,,,,,156.0089,157.4146,a,0,[],[],[],[],[],[],[],0.7456,0,157.415,157.9143,,,,,,836,FEM,DIS,150,sombra,el,a,0.7456,,157.9143,157.9144,-0.02407406,-0.395370413,0,0,0,,0,35,35,385,1,,,,,
,,,,,,8c18ae3a88feee99317f25b9,66a626ef09d4e21e1a8894ec,67360fd2e525050b8ad924a1,2024-11-14_11h58.14.095,Tarea de género gramatical,2024.2.2,Win32,144.9275362,,,,,,,,,,,,,,,,,,,,,,,157.9151,159.2549,l,1,[],[],[],[],[],[],[],0.6776,1,159.2554,159.7506,,,,,,818,FEM,DIS,150,gracia,el,a,0.6776,,159.7507,159.7508,-0.02407406,-0.395370413,0,0,0,,0,36,36,367,1,,,,,
,,,,,,8c18ae3a88feee99317f25b9,66a626ef09d4e21e1a8894ec,67360fd2e525050b8ad924a1,2024-11-14_11h58.14.095,Tarea de género gramatical,2024.2.2,Win32,144.9275362,,,,,,,,,,,,,,,,,,,,,,,159.7519,160.9567,l,0,[],[],[],[],[],[],[],0.5426,0,160.9572,161.456,,,,,,617,MAS,DIS,150,juego,la,l,0.5426,,161.4561,161.4562,-0.02407406,-0.395370413,0,0,0,,0,37,37,166,1,,,,,
,,,,,,8c18ae3a88feee99317f25b9,66a626ef09d4e21e1a8894ec,67360fd2e525050b8ad924a1,2024-11-14_11h58.14.095,Tarea de género gramatical,2024.2.2,Win32,144.9275362,,,,,,,,,,,,,,,,,,,,,,,161.4568,162.5047,l,0,[],[],[],[],[],[],[],0.3853,0,162.5048,163.0007,,,,,,616,MAS,CON,150,coche,,l,0.3853,,163.0019,163.0024,-0.02407406,-0.395370413,0,0,0,,0,38,38,165,1,,,,,
,,,,,,8c18ae3a88feee99317f25b9,66a626ef09d4e21e1a8894ec,67360fd2e525050b8ad924a1,2024-11-14_11h58.14.095,Tarea de género gramatical,2024.2.2,Win32,144.9275362,,,,,,,,,,,,,,,,,,,,,,,163.0028,164.3104,a,0,[],[],[],[],[],[],[],0.6485,0,164.3104,164.8059,,,,,,680,FEM,DIS,150,regla,el,a,0.6485,,164.8061,164.8063,-0.02407406,-0.395370413,0,0,0,,0,39,39,229,1,,,,,
,,,,,,8c18ae3a88feee99317f25b9,66a626ef09d4e21e1a8894ec,67360fd2e525050b8ad924a1,2024-11-14_11h58.14.095,Tarea de género gramatical,2024.2.2,Win32,144.9275362,,,,,,,,,,,,,,,,,,,,,,,164.8075,166.2577,a,1,[],[],[],[],[],[],[],0.7912,1,166.2587,166.7615,,,,,,888,MAS,AGR,150,tanque,el,l,0.7912,,166.7616,166.7617,-0.02407406,-0.395370413,0,0,0,,0,40,40,437,1,,,,,
,,,,,,8c18ae3a88feee99317f25b9,66a626ef09d4e21e1a8894ec,67360fd2e525050b8ad924a1,2024-11-14_11h58.14.095,Tarea de género gramatical,2024.2.2,Win32,144.9275362,,,,,,,,,,,,,,,,,,,,,,,166.7623,167.8913,a,1,[],[],[],[],[],[],[],0.4629,1,167.8914,168.3891,,,,,,798,MAS,AGR,150,anillo,el,l,0.4629,,168.3892,168.3893,-0.02407406,-0.395370413,0,0,0,,0,41,41,347,1,,,,,
,,,,,,8c18ae3a88feee99317f25b9,66a626ef09d4e21e1a8894ec,67360fd2e525050b8ad924a1,2024-11-14_11h58.14.095,Tarea de género gramatical,2024.2.2,Win32,144.9275362,,,,,,,,,,,,,,,,,,,,,,,168.3905,169.7016,l,1,[],[],[],[],[],[],[],0.6533,1,169.7017,170.2014,,,,,,878,FEM,DIS,150,jugada,el,a,0.6533,,170.2029,170.2034,-0.02407406,-0.395370413,0,0,0,,0,42,42,427,1,,,,,
,,,,,,8c18ae3a88feee99317f25b9,66a626ef09d4e21e1a8894ec,67360fd2e525050b8ad924a1,2024-11-14_11h58.14.095,Tarea de género gramatical,2024.2.2,Win32,144.9275362,,,,,,,,,,,,,,,,,,,,,,,170.2038,171.453,l,1,[],[],[],[],[],[],[],0.5876,1,171.4533,171.9516,,,,,,794,FEM,DIS,150,pareja,el,a,0.5876,,171.9518,171.9519,-0.02407406,-0.395370413,0,0,0,,0,43,43,343,1,,,,,
,,,,,,8c18ae3a88feee99317f25b9,66a626ef09d4e21e1a8894ec,67360fd2e525050b8ad924a1,2024-11-14_11h58.14.095,Tarea de género gramatical,2024.2.2,Win32,144.9275362,,,,,,,,,,,,,,,,,,,,,,,171.9532,173.3794,a,1,[],[],[],[],[],[],[],0.7642,1,173.3795,173.8752,,,,,,750,MAS,AGR,150,túnel,el,l,0.7642,,173.8754,173.8754,-0.02407406,-0.395370413,0,0,0,,0,44,44,299,1,,,,,
,,,,,,8c18ae3a88feee99317f25b9,66a626ef09d4e21e1a8894ec,67360fd2e525050b8ad924a1,2024-11-14_11h58.14.095,Tarea de género gramatical,2024.2.2,Win32,144.9275362,,,,,,,,,,,,,,,,,,,,,,,173.8766,175.1063,l,0,[],[],[],[],[],[],[],0.5711,0,175.1069,175.6086,,,,,,472,MAS,CON,150,pelo,,l,0.5711,,175.6086,175.6087,-0.02407406,-0.395370413,0,0,0,,0,45,45,21,1,,,,,
,,,,,,8c18ae3a88feee99317f25b9,66a626ef09d4e21e1a8894ec,67360fd2e525050b8ad924a1,2024-11-14_11h58.14.095,Tarea de género gramatical,2024.2.2,Win32,144.9275362,,,,,,,,,,,,,,,,,,,,,,,175.6093,177.3474,a,1,[],[],[],[],[],[],[],1.071,1,177.3486,177.8517,,,,,,538,MAS,CON,150,pavo,,l,1.071,,177.8517,177.8518,-0.02407406,-0.395370413,0,0,0,,0,46,46,87,1,,,,,
,,,,,,8c18ae3a88feee99317f25b9,66a626ef09d4e21e1a8894ec,67360fd2e525050b8ad924a1,2024-11-14_11h58.14.095,Tarea de género gramatical,2024.2.2,Win32,144.9275362,,,,,,,,,,,,,,,,,,,,,,,177.8523,179.2335,a,1,[],[],[],[],[],[],[],0.7191,1,179.2335,179.731,,,,,,670,MAS,CON,150,huevo,,l,0.7191,,179.7316,179.732,-0.02407406,-0.395370413,0,0,0,,0,47,47,219,1,,,,,
,,,,,,8c18ae3a88feee99317f25b9,66a626ef09d4e21e1a8894ec,67360fd2e525050b8ad924a1,2024-11-14_11h58.14.095,Tarea de género gramatical,2024.2.2,Win32,144.9275362,,,,,,,,,,,,,,,,,,,,,,,179.7325,180.8888,a,1,[],[],[],[],[],[],[],0.4938,1,180.889,181.3889,,,,,,552,MAS,AGR,150,coro,el,l,0.4938,,181.3889,181.3891,-0.02407406,-0.395370413,0,0,0,,0,48,48,101,1,,,,,
,,,,,,8c18ae3a88feee99317f25b9,66a626ef09d4e21e1a8894ec,67360fd2e525050b8ad924a1,2024-11-14_11h58.14.095,Tarea de género gramatical,2024.2.2,Win32,144.9275362,,,,,,,,,,,,,,,,,,,,,,,181.3902,182.6363,l,1,[],[],[],[],[],[],[],0.5869,1,182.6365,183.1318,,,,,,895,FEM,CON,150,bondad,,a,0.5869,,183.1319,183.1321,-0.02407406,-0.395370413,0,0,0,,0,49,49,444,1,,,,,
,,,,,,8c18ae3a88feee99317f25b9,66a626ef09d4e21e1a8894ec,67360fd2e525050b8ad924a1,2024-11-14_11h58.14.095,Tarea de género gramatical,2024.2.2,Win32,144.9275362,,,,,,,,,,,,,,,,,,,,,,,183.1332,184.4303,l,1,[],[],[],[],[],[],[],0.6385,1,184.4305,184.9303,,,,,,883,FEM,CON,150,huella,,a,0.6385,,184.9305,184.9306,-0.02407406,-0.395370413,0,0,0,,0,50,50,432,1,,,,,
,,,,,,8c18ae3a88feee99317f25b9,66a626ef09d4e21e1a8894ec,67360fd2e525050b8ad924a1,2024-11-14_11h58.14.095,Tarea de género gramatical,2024.2.2,Win32,144.9275362,,,,,,,,,,,,,,,,,,,,,,,184.9318,186.1249,a,1,[],[],[],[],[],[],[],0.5291,1,186.1251,186.6219,,,,,,496,MAS,CON,150,odio,,l,0.5291,,186.6226,186.6231,-0.02407406,-0.395370413,0,0,0,,0,51,51,45,1,,,,,
,,,,,,8c18ae3a88feee99317f25b9,66a626ef09d4e21e1a8894ec,67360fd2e525050b8ad924a1,2024-11-14_11h58.14.095,Tarea de género gramatical,2024.2.2,Win32,144.9275362,,,,,,,,,,,,,,,,,,,,,,,186.6235,187.8212,l,0,[],[],[],[],[],[],[],0.536,0,187.8217,188.3191,,,,,,731,MAS,DIS,150,actor,la,l,0.536,,188.3192,188.3194,-0.02407406,-0.395370413,0,0,0,,0,52,52,280,1,,,,,
,,,,,,8c18ae3a88feee99317f25b9,66a626ef09d4e21e1a8894ec,67360fd2e525050b8ad924a1,2024-11-14_11h58.14.095,Tarea de género gramatical,2024.2.2,Win32,144.9275362,,,,,,,,,,,,,,,,,,,,,,,188.3208,189.7915,a,1,[],[],[],[],[],[],[],0.8098,1,189.7926,190.2914,,,,,,724,MAS,CON,150,motor,,l,0.8098,,190.2915,190.2916,-0.02407406,-0.395370413,0,0,0,,0,53,53,273,1,,,,,
,,,,,,8c18ae3a88feee99317f25b9,66a626ef09d4e21e1a8894ec,67360fd2e525050b8ad924a1,2024-11-14_11h58.14.095,Tarea de género gramatical,2024.2.2,Win32,144.9275362,,,,,,,,,,,,,,,,,,,,,,,190.2928,191.8027,l,1,[],[],[],[],[],[],[],0.8507,1,191.8027,192.2995,,,,,,699,FEM,AGR,150,crema,la,a,0.8507,,192.2995,192.2996,-0.02407406,-0.395370413,0,0,0,,0,54,54,248,1,,,,,
,,,,,,8c18ae3a88feee99317f25b9,66a626ef09d4e21e1a8894ec,67360fd2e525050b8ad924a1,2024-11-14_11h58.14.095,Tarea de género gramatical,2024.2.2,Win32,144.9275362,,,,,,,,,,,,,,,,,,,,,,,192.3012,193.5504,l,1,[],[],[],[],[],[],[],0.5923,1,193.5506,194.0526,,,,,,765,FEM,AGR,150,manera,la,a,0.5923,,194.0527,194.0527,-0.02407406,-0.395370413,0,0,0,,0,55,55,314,1,,,,,
,,,,,,8c18ae3a88feee99317f25b9,66a626ef09d4e21e1a8894ec,67360fd2e525050b8ad924a1,2024-11-14_11h58.14.095,Tarea de género gramatical,2024.2.2,Win32,144.9275362,,,,,,,,,,,,,,,,,,,,,,,194.0535,195.0761,l,1,[],[],[],[],[],[],[],0.3662,1,195.0763,195.5759,,,,,,669,FEM,AGR,150,costa,la,a,0.3662,,195.5773,195.5778,-0.02407406,-0.395370413,0,0,0,,0,56,56,218,1,,,,,
,,,,,,8c18ae3a88feee99317f25b9,66a626ef09d4e21e1a8894ec,67360fd2e525050b8ad924a1,2024-11-14_11h58.14.095,Tarea de género gramatical,2024.2.2,Win32,144.9275362,,,,,,,,,,,,,,,,,,,,,,,195.5782,196.7588,a,1,[],[],[],[],[],[],[],0.5189,1,196.7588,197.2587,,,,,,803,MAS,DIS,150,verano,la,l,0.5189,,197.2587,197.2588,-0.02407406,-0.395370413,0,0,0,,0,57,57,352,1,,,,,
,,,,,,8c18ae3a88feee99317f25b9,66a626ef09d4e21e1a8894ec,67360fd2e525050b8ad924a1,2024-11-14_11h58.14.095,Tarea de género gramatical,2024.2.2,Win32,144.9275362,,,,,,,,,,,,,,,,,,,,,,,197.2594,198.6986,a,1,[],[],[],[],[],[],[],0.7811,1,198.6986,199.194,,,,,,821,MAS,DIS,150,sonido,la,l,0.7811,,199.1942,199.1943,-0.02407406,-0.395370413,0,0,0,,0,58,58,370,1,,,,,
,,,,,,8c18ae3a88feee99317f25b9,66a626ef09d4e21e1a8894ec,67360fd2e525050b8ad924a1,2024-11-14_11h58.14.095,Tarea de género gramatical,2024.2.2,Win32,144.9275362,,,,,,,,,,,,,,,,,,,,,,,199.1955,200.3581,l,1,[],[],[],[],[],[],[],0.5003,1,200.3582,200.8538,,,,,,637,FEM,CON,150,lista,,a,0.5003,,200.8539,200.854,-0.02407406,-0.395370413,0,0,0,,0,59,59,186,1,,,,,
,,,,,,8c18ae3a88feee99317f25b9,66a626ef09d4e21e1a8894ec,67360fd2e525050b8ad924a1,2024-11-14_11h58.14.095,Tarea de género gramatical,2024.2.2,Win32,144.9275362,,,,,,,,,,,,,,,,,,,,,,,200.8552,202.0135,a,1,[],[],[],[],[],[],[],0.497,1,202.0138,202.5177,,,,,,558,MAS,AGR,150,hilo,el,l,0.497,,202.5184,202.5189,-0.02407406,-0.395370413,0,0,0,,0,60,60,107,1,,,,,
,,,,,,8c18ae3a88feee99317f25b9,66a626ef09d4e21e1a8894ec,67360fd2e525050b8ad924a1,2024-11-14_11h58.14.095,Tarea de género gramatical,2024.2.2,Win32,144.9275362,,,,,,,,,,,,,,,,,,,,,,,202.5194,203.7403,l,1,[],[],[],[],[],[],[],0.5662,1,203.7404,204.2375,,,,,,679,FEM,CON,150,celda,,a,0.5662,,204.2375,204.2375,-0.02407406,-0.395370413,0,0,0,,0,61,61,228,1,,,,,
,,,,,,8c18ae3a88feee99317f25b9,66a626ef09d4e21e1a8894ec,67360fd2e525050b8ad924a1,2024-11-14_11h58.14.095,Tarea de género gramatical,2024.2.2,Win32,144.9275362,,,,,,,,,,,,,,,,,,,,,,,204.2381,205.3837,l,1,[],[],[],[],[],[],[],0.4865,1,205.3837,205.8823,,,,,,603,FEM,AGR,150,mujer,la,a,0.4865,,205.8823,205.8824,-0.02407406,-0.395370413,0,0,0,,0,62,62,152,1,,,,,
,,,,,,8c18ae3a88feee99317f25b9,66a626ef09d4e21e1a8894ec,67360fd2e525050b8ad924a1,2024-11-14_11h58.14.095,Tarea de género gramatical,2024.2.2,Win32,144.9275362,,,,,,,,,,,,,,,,,,,,,,,205.8843,207.0633,a,1,[],[],[],[],[],[],[],0.5181,1,207.0635,207.5593,,,,,,479,MAS,DIS,150,frío,la,l,0.5181,,207.5593,207.5594,-0.02407406,-0.395370413,0,0,0,,0,63,63,28,1,,,,,
,,,,,,8c18ae3a88feee99317f25b9,66a626ef09d4e21e1a8894ec,67360fd2e525050b8ad924a1,2024-11-14_11h58.14.095,Tarea de género gramatical,2024.2.2,Win32,144.9275362,,,,,,,,,,,,,,,,,,,,,,,207.5602,208.7425,a,1,[],[],[],[],[],[],[],0.5197,1,208.7427,209.2424,,,,,,690,MAS,AGR,150,ruido,el,l,0.5197,,209.2425,209.2426,-0.02407406,-0.395370413,0,0,0,,0,64,64,239,1,,,,,
,,,,,,8c18ae3a88feee99317f25b9,66a626ef09d4e21e1a8894ec,67360fd2e525050b8ad924a1,2024-11-14_11h58.14.095,Tarea de género gramatical,2024.2.2,Win32,144.9275362,,,,,,,,,,,,,,,,,,,,,,,209.2438,210.501,l,1,[],[],[],[],[],[],[],0.5974,1,210.5012,210.9994,,,,,,800,FEM,DIS,150,imagen,el,a,0.5974,,211.0008,211.0013,-0.02407406,-0.395370413,0,0,0,,0,65,65,349,1,,,,,
,,,,,,8c18ae3a88feee99317f25b9,66a626ef09d4e21e1a8894ec,67360fd2e525050b8ad924a1,2024-11-14_11h58.14.095,Tarea de género gramatical,2024.2.2,Win32,144.9275362,,,,,,,,,,,,,,,,,,,,,,,211.0016,212.2678,a,1,[],[],[],[],[],[],[],0.6047,1,212.2678,212.7674,,,,,,550,MAS,CON,150,nido,,l,0.6047,,212.7675,212.7675,-0.02407406,-0.395370413,0,0,0,,0,66,66,99,1,,,,,
,,,,,,8c18ae3a88feee99317f25b9,66a626ef09d4e21e1a8894ec,67360fd2e525050b8ad924a1,2024-11-14_11h58.14.095,Tarea de género gramatical,2024.2.2,Win32,144.9275362,,,,,,,,,,,,,,,,,,,,,,,212.7684,213.891,a,1,[],[],[],[],[],[],[],0.4564,1,213.8912,214.3879,,,,,,864,MAS,AGR,150,sótano,el,l,0.4564,,214.388,214.388,-0.02407406,-0.395370413,0,0,0,,0,67,67,413,1,,,,,
,,,,,,8c18ae3a88feee99317f25b9,66a626ef09d4e21e1a8894ec,67360fd2e525050b8ad924a1,2024-11-14_11h58.14.095,Tarea de género gramatical,2024.2.2,Win32,144.9275362,,,,,,,,,,,,,,,,,,,,,,,214.3893,215.5616,a,1,[],[],[],[],[],[],[],0.5145,1,215.5616,216.0615,,,,,,678,MAS,AGR,150,nivel,el,l,0.5145,,216.0616,216.0616,-0.02407406,-0.395370413,0,0,0,,0,68,68,227,1,,,,,
,,,,,,8c18ae3a88feee99317f25b9,66a626ef09d4e21e1a8894ec,67360fd2e525050b8ad924a1,2024-11-14_11h58.14.095,Tarea de género gramatical,2024.2.2,Win32,144.9275362,,,,,,,,,,,,,,,,,,,,,,,216.0625,217.617,a,1,[],[],[],[],[],[],[],0.8961,1,217.6171,218.1171,,,,,,508,MAS,CON,150,mono,,l,0.8961,,218.1181,218.1191,-0.02407406,-0.395370413,0,0,0,,0,69,69,57,1,,,,,
,,,,,,8c18ae3a88feee99317f25b9,66a626ef09d4e21e1a8894ec,67360fd2e525050b8ad924a1,2024-11-14_11h58.14.095,Tarea de género gramatical,2024.2.2,Win32,144.9275362,,,,,,,,,,,,,,,,,,,,,,,218.1196,219.3532,l,1,[],[],[],[],[],[],[],0.5756,1,219.3532,219.853,,,,,,704,FEM,DIS,150,caída,el,a,0.5756,,219.853,219.8531,-0.02407406,-0.395370413,0,0,0,,0,70,70,253,1,,,,,
,,,,,,8c18ae3a88feee99317f25b9,66a626ef09d4e21e1a8894ec,67360fd2e525050b8ad924a1,2024-11-14_11h58.14.095,Tarea de género gramatical,2024.2.2,Win32,144.9275362,,,,,,,,,,,,,,,,,,,,,,,219.854,221.1378,a,0,[],[],[],[],[],[],[],0.6267,0,221.1383,221.6378,,,,,,506,FEM,DIS,150,bola,el,a,0.6267,,221.6378,221.6378,-0.02407406,-0.395370413,0,0,0,,0,71,71,55,1,,,,,
,,,,,,8c18ae3a88feee99317f25b9,66a626ef09d4e21e1a8894ec,67360fd2e525050b8ad924a1,2024-11-14_11h58.14.095,Tarea de género gramatical,2024.2.2,Win32,144.9275362,,,,,,,,,,,,,,,,,,,,,,,221.639,222.8808,l,1,[],[],[],[],[],[],[],0.5838,1,222.8813,223.3809,,,,,,495,FEM,AGR,150,isla,la,a,0.5838,,223.381,223.381,-0.02407406,-0.395370413,0,0,0,,0,72,72,44,1,,,,,
,,,,,,8c18ae3a88feee99317f25b9,66a626ef09d4e21e1a8894ec,67360fd2e525050b8ad924a1,2024-11-14_11h58.14.095,Tarea de género gramatical,2024.2.2,Win32,144.9275362,,,,,,,,,,,,,,,,,,,,,,,223.3824,224.4731,l,1,[],[],[],[],[],[],[],0.4285,1,224.4731,224.9687,,,,,,885,FEM,AGR,150,niebla,la,a,0.4285,,224.9688,224.9688,-0.02407406,-0.395370413,0,0,0,,0,73,73,434,1,,,,,
,,,,,,8c18ae3a88feee99317f25b9,66a626ef09d4e21e1a8894ec,67360fd2e525050b8ad924a1,2024-11-14_11h58.14.095,Tarea de género gramatical,2024.2.2,Win32,144.9275362,,,,,,,,,,,,,,,,,,,,,,,224.9695,226.0173,l,1,[],[],[],[],[],[],[],0.3847,1,226.0174,226.5131,,,,,,613,FEM,CON,150,calle,,a,0.3847,,226.5144,226.5149,-0.02407406,-0.395370413,0,0,0,,0,74,74,162,1,,,,,
,,,,,,8c18ae3a88feee99317f25b9,66a626ef09d4e21e1a8894ec,67360fd2e525050b8ad924a1,2024-11-14_11h58.14.095,Tarea de género gramatical,2024.2.2,Win32,144.9275362,,,,,,,,,,,,,,,,,,,,,,,226.5154,227.6906,a,1,[],[],[],[],[],[],[],0.5169,1,227.6907,228.1865,,,,,,755,MAS,DIS,150,hombre,la,l,0.5169,,228.1866,228.1868,-0.02407406,-0.395370413,0,0,0,,0,75,75,304,1,,,,,
,,,,,,8c18ae3a88feee99317f25b9,66a626ef09d4e21e1a8894ec,67360fd2e525050b8ad924a1,2024-11-14_11h58.14.095,Tarea de género gramatical,2024.2.2,Win32,144.9275362,,,,,,,,,,,,,,,,,,,,,,,228.188,229.4338,a,0,[],[],[],[],[],[],[],0.5869,0,229.4348,229.9292,,,,,,795,FEM,AGR,150,pierna,la,a,0.5869,,229.9293,229.9295,-0.02407406,-0.395370413,0,0,0,,0,76,76,344,1,,,,,
,,,,,,8c18ae3a88feee99317f25b9,66a626ef09d4e21e1a8894ec,67360fd2e525050b8ad924a1,2024-11-14_11h58.14.095,Tarea de género gramatical,2024.2.2,Win32,144.9275362,,,,,,,,,,,,,,,,,,,,,,,229.9307,231.1765,a,1,[],[],[],[],[],[],[],0.587,1,231.177,231.6724,,,,,,640,MAS,CON,150,campo,,l,0.587,,231.6725,231.6725,-0.02407406,-0.395370413,0,0,0,,0,77,77,189,1,,,,,
,,,,,,8c18ae3a88feee99317f25b9,66a626ef09d4e21e1a8894ec,67360fd2e525050b8ad924a1,2024-11-14_11h58.14.095,Tarea de género gramatical,2024.2.2,Win32,144.9275362,,,,,,,,,,,,,,,,,,,,,,,231.6741,232.9156,l,1,[],[],[],[],[],[],[],0.5808,1,232.9159,233.4154,,,,,,705,FEM,AGR,150,tribu,la,a,0.5808,,233.4168,233.4173,-0.02407406,-0.395370413,0,0,0,,0,78,78,254,1,,,,,
,,,,,,8c18ae3a88feee99317f25b9,66a626ef09d4e21e1a8894ec,67360fd2e525050b8ad924a1,2024-11-14_11h58.14.095,Tarea de género gramatical,2024.2.2,Win32,144.9275362,,,,,,,,,,,,,,,,,,,,,,,233.4177,234.7436,a,1,[],[],[],[],[],[],[],0.6641,1,234.7439,235.2437,,,,,,568,MAS,CON,150,baúl,,l,0.6641,,235.2437,235.2437,-0.02407406,-0.395370413,0,0,0,,0,79,79,117,1,,,,,
,,,,,,8c18ae3a88feee99317f25b9,66a626ef09d4e21e1a8894ec,67360fd2e525050b8ad924a1,2024-11-14_11h58.14.095,Tarea de género gramatical,2024.2.2,Win32,144.9275362,,,,,,,,,,,,,,,,,,,,,,,235.2444,236.3781,a,1,[],[],[],[],[],[],[],0.4775,1,236.3783,236.8744,,,,,,858,MAS,AGR,150,cheque,el,l,0.4775,,236.8745,236.8749,-0.02407406,-0.395370413,0,0,0,,0,80,80,407,1,,,,,
,,,,,,8c18ae3a88feee99317f25b9,66a626ef09d4e21e1a8894ec,67360fd2e525050b8ad924a1,2024-11-14_11h58.14.095,Tarea de género gramatical,2024.2.2,Win32,144.9275362,,,,,,,,,,,,,,,,,,,,,,,236.8762,237.95,a,1,[],[],[],[],[],[],[],0.4115,1,237.9503,238.4543,,,,,,870,MAS,AGR,150,helado,el,l,0.4115,,238.4544,238.4544,-0.02407406,-0.395370413,0,0,0,,0,81,81,419,1,,,,,
,,,,,,8c18ae3a88feee99317f25b9,66a626ef09d4e21e1a8894ec,67360fd2e525050b8ad924a1,2024-11-14_11h58.14.095,Tarea de género gramatical,2024.2.2,Win32,144.9275362,,,,,,,,,,,,,,,,,,,,,,,238.455,239.6059,l,1,[],[],[],[],[],[],[],0.4956,1,239.606,240.1027,,,,,,734,FEM,DIS,150,fruta,el,a,0.4956,,240.1028,240.1029,-0.02407406,-0.395370413,0,0,0,,0,82,82,283,1,,,,,
,,,,,,8c18ae3a88feee99317f25b9,66a626ef09d4e21e1a8894ec,67360fd2e525050b8ad924a1,2024-11-14_11h58.14.095,Tarea de género gramatical,2024.2.2,Win32,144.9275362,,,,,,,,,,,,,,,,,,,,,,,240.1042,241.2808,a,1,[],[],[],[],[],[],[],0.5176,1,241.2808,241.7774,,,,,,636,MAS,AGR,150,error,el,l,0.5176,,241.7787,241.7795,-0.02407406,-0.395370413,0,0,0,,0,83,83,185,1,,,,,
,,,,,,8c18ae3a88feee99317f25b9,66a626ef09d4e21e1a8894ec,67360fd2e525050b8ad924a1,2024-11-14_11h58.14.095,Tarea de género gramatical,2024.2.2,Win32,144.9275362,,,,,,,,,,,,,,,,,,,,,,,241.7801,243.0971,l,1,[],[],[],[],[],[],[],0.6505,1,243.0974,243.5996,,,,,,553,FEM,CON,150,fama,,a,0.6505,,243.5997,243.5997,-0.02407406,-0.395370413,0,0,0,,0,84,84,102,1,,,,,
,,,,,,8c18ae3a88feee99317f25b9,66a626ef09d4e21e1a8894ec,67360fd2e525050b8ad924a1,2024-11-14_11h58.14.095,Tarea de género gramatical,2024.2.2,Win32,144.9275362,,,,,,,,,,,,,,,,,,,,,,,243.6003,244.6304,l,1,[],[],[],[],[],[],[],0.3662,1,244.6307,245.1347,,,,,,763,FEM,CON,150,ciudad,,a,0.3662,,245.1348,245.1349,-0.02407406,-0.395370413,0,0,0,,0,85,85,312,1,,,,,
,,,,,,8c18ae3a88feee99317f25b9,66a626ef09d4e21e1a8894ec,67360fd2e525050b8ad924a1,2024-11-14_11h58.14.095,Tarea de género gramatical,2024.2.2,Win32,144.9275362,,,,,,,,,,,,,,,,,,,,,,,245.1354,246.2416,l,1,[],[],[],[],[],[],[],0.4415,1,246.2418,246.7388,,,,,,879,FEM,AGR,150,fianza,la,a,0.4415,,246.7388,246.7389,-0.02407406,-0.395370413,0,0,0,,0,86,86,428,1,,,,,
,,,,,,8c18ae3a88feee99317f25b9,66a626ef09d4e21e1a8894ec,67360fd2e525050b8ad924a1,2024-11-14_11h58.14.095,Tarea de género gramatical,2024.2.2,Win32,144.9275362,,,,,,,,,,,,,,,,,,,,,,,246.7397,247.8527,a,1,[],[],[],[],[],[],[],0.4543,1,247.8529,248.3546,,,,,,714,MAS,AGR,150,pollo,el,l,0.4543,,248.3555,248.356,-0.02407406,-0.395370413,0,0,0,,0,87,87,263,1,,,,,
,,,,,,8c18ae3a88feee99317f25b9,66a626ef09d4e21e1a8894ec,67360fd2e525050b8ad924a1,2024-11-14_11h58.14.095,Tarea de género gramatical,2024.2.2,Win32,144.9275362,,,,,,,,,,,,,,,,,,,,,,,248.3564,249.5171,l,1,[],[],[],[],[],[],[],0.497,1,249.5171,250.0131,,,,,,805,FEM,CON,150,mirada,,a,0.497,,250.0132,250.0132,-0.02407406,-0.395370413,0,0,0,,0,88,88,354,1,,,,,
,,,,,,8c18ae3a88feee99317f25b9,66a626ef09d4e21e1a8894ec,67360fd2e525050b8ad924a1,2024-11-14_11h58.14.095,Tarea de género gramatical,2024.2.2,Win32,144.9275362,,,,,,,,,,,,,,,,,,,,,,,250.0146,251.3157,a,0,[],[],[],[],[],[],[],0.6428,0,251.3163,251.8109,,,,,,692,FEM,DIS,150,pizza,el,a,0.6428,,251.811,251.8112,-0.02407406,-0.395370413,0,0,0,,0,89,89,241,1,,,,,
,,,,,,8c18ae3a88feee99317f25b9,66a626ef09d4e21e1a8894ec,67360fd2e525050b8ad924a1,2024-11-14_11h58.14.095,Tarea de género gramatical,2024.2.2,Win32,144.9275362,,,,,,,,,,,,,,,,,,,,,,,251.8122,253.2555,l,1,[],[],[],[],[],[],[],0.7822,1,253.2569,253.7595,,,,,,752,FEM,DIS,150,cabeza,el,a,0.7822,,253.7596,253.7596,-0.02407406,-0.395370413,0,0,0,,0,90,90,301,1,,,,,
,,,,,,8c18ae3a88feee99317f25b9,66a626ef09d4e21e1a8894ec,67360fd2e525050b8ad924a1,2024-11-14_11h58.14.095,Tarea de género gramatical,2024.2.2,Win32,144.9275362,,,,,,,,,,,,,,,,,,,,,,,253.7602,254.8524,l,1,[],[],[],[],[],[],[],0.4331,1,254.8527,255.3561,,,,,,801,FEM,AGR,150,espada,la,a,0.4331,,255.3561,255.3562,-0.02407406,-0.395370413,0,0,0,,0,91,91,350,1,,,,,
,,,,,,8c18ae3a88feee99317f25b9,66a626ef09d4e21e1a8894ec,67360fd2e525050b8ad924a1,2024-11-14_11h58.14.095,Tarea de género gramatical,2024.2.2,Win32,144.9275362,,,,,,,,,,,,,,,,,,,,,,,255.3569,256.7205,a,1,[],[],[],[],[],[],[],0.7068,1,256.7208,257.2204,,,,,,646,MAS,CON,150,barco,,l,0.7068,,257.2218,257.2223,-0.02407406,-0.395370413,0,0,0,,0,92,92,195,1,,,,,
,,,,,,8c18ae3a88feee99317f25b9,66a626ef09d4e21e1a8894ec,67360fd2e525050b8ad924a1,2024-11-14_11h58.14.095,Tarea de género gramatical,2024.2.2,Win32,144.9275362,,,,,,,,,,,,,,,,,,,,,,,257.2227,258.519,a,1,[],[],[],[],[],[],[],0.6325,1,258.5192,259.0234,,,,,,754,MAS,CON,150,tiempo,,l,0.6325,,259.0235,259.0235,-0.02407406,-0.395370413,0,0,0,,0,93,93,303,1,,,,,
,,,,,,8c18ae3a88feee99317f25b9,66a626ef09d4e21e1a8894ec,67360fd2e525050b8ad924a1,2024-11-14_11h58.14.095,Tarea de género gramatical,2024.2.2,Win32,144.9275362,,,,,,,,,,,,,,,,,,,,,,,259.0244,260.2691,l,1,[],[],[],[],[],[],[],0.5808,1,260.2693,260.769,,,,,,657,FEM,AGR,150,playa,la,a,0.5808,,260.7691,260.7692,-0.02407406,-0.395370413,0,0,0,,0,94,94,206,1,,,,,
,,,,,,8c18ae3a88feee99317f25b9,66a626ef09d4e21e1a8894ec,67360fd2e525050b8ad924a1,2024-11-14_11h58.14.095,Tarea de género gramatical,2024.2.2,Win32,144.9275362,,,,,,,,,,,,,,,,,,,,,,,260.7704,262.1855,l,1,[],[],[],[],[],[],[],0.7557,1,262.1857,262.6856,,,,,,601,FEM,CON,150,noche,,a,0.7557,,262.6857,262.6858,-0.02407406,-0.395370413,0,0,0,,0,95,95,150,1,,,,,
,,,,,,8c18ae3a88feee99317f25b9,66a626ef09d4e21e1a8894ec,67360fd2e525050b8ad924a1,2024-11-14_11h58.14.095,Tarea de género gramatical,2024.2.2,Win32,144.9275362,,,,,,,,,,,,,,,,,,,,,,,262.6871,264.0744,l,1,[],[],[],[],[],[],[],0.7271,1,264.0746,264.5744,,,,,,788,FEM,DIS,150,abuela,el,a,0.7271,,264.5757,264.5762,-0.02407406,-0.395370413,0,0,0,,0,96,96,337,1,,,,,
,,,,,,8c18ae3a88feee99317f25b9,66a626ef09d4e21e1a8894ec,67360fd2e525050b8ad924a1,2024-11-14_11h58.14.095,Tarea de género gramatical,2024.2.2,Win32,144.9275362,,,,,,,,,,,,,,,,,,,,,,,264.5766,265.6232,l,1,[],[],[],[],[],[],[],0.3829,1,265.6234,266.1271,,,,,,753,FEM,AGR,150,maldad,la,a,0.3829,,266.1272,266.1272,-0.02407406,-0.395370413,0,0,0,,0,97,97,302,1,,,,,
,,,,,,8c18ae3a88feee99317f25b9,66a626ef09d4e21e1a8894ec,67360fd2e525050b8ad924a1,2024-11-14_11h58.14.095,Tarea de género gramatical,2024.2.2,Win32,144.9275362,,,,,,,,,,,,,,,,,,,,,,,266.1279,267.262,l,1,[],[],[],[],[],[],[],0.4726,1,267.2621,267.7618,,,,,,572,FEM,DIS,150,loca,el,a,0.4726,,267.762,267.7621,-0.02407406,-0.395370413,0,0,0,,0,98,98,121,1,,,,,
,,,,,,8c18ae3a88feee99317f25b9,66a626ef09d4e21e1a8894ec,67360fd2e525050b8ad924a1,2024-11-14_11h58.14.095,Tarea de género gramatical,2024.2.2,Win32,144.9275362,,,,,,,,,,,,,,,,,,,,,,,267.7633,268.9775,a,1,[],[],[],[],[],[],[],0.5563,1,268.9776,269.4813,,,,,,570,MAS,AGR,150,puño,el,l,0.5563,,269.4813,269.4813,-0.02407406,-0.395370413,0,0,0,,0,99,99,119,1,,,,,
,,,,,,8c18ae3a88feee99317f25b9,66a626ef09d4e21e1a8894ec,67360fd2e525050b8ad924a1,2024-11-14_11h58.14.095,Tarea de género gramatical,2024.2.2,Win32,144.9275362,,,,,,,,,,,,,,,,,,,,,,,269.4819,270.5579,l,1,[],[],[],[],[],[],[],0.4168,1,270.5579,271.0534,,,,,,609,FEM,AGR,150,clase,la,a,0.4168,,271.0535,271.0536,-0.02407406,-0.395370413,0,0,0,,0,100,100,158,1,,,,,
,,,,,,8c18ae3a88feee99317f25b9,66a626ef09d4e21e1a8894ec,67360fd2e525050b8ad924a1,2024-11-14_11h58.14.095,Tarea de género gramatical,2024.2.2,Win32,144.9275362,,,,,,,,,,,,,,,,,,,,,,,271.0549,272.1836,a,1,[],[],[],[],[],[],[],0.4728,1,272.1836,272.6794,,,,,,498,MAS,AGR,150,loco,el,l,0.4728,,272.6807,272.6815,-0.02407406,-0.395370413,0,0,0,,0,101,101,47,1,,,,,
,,,,,,8c18ae3a88feee99317f25b9,66a626ef09d4e21e1a8894ec,67360fd2e525050b8ad924a1,2024-11-14_11h58.14.095,Tarea de género gramatical,2024.2.2,Win32,144.9275362,,,,,,,,,,,,,,,,,,,,,,,272.682,273.7687,l,0,[],[],[],[],[],[],[],0.4207,0,273.7699,274.2687,,,,,,689,MAS,DIS,150,reloj,la,l,0.4207,,274.2689,274.2689,-0.02407406,-0.395370413,0,0,0,,0,102,102,238,1,,,,,
,,,,,,8c18ae3a88feee99317f25b9,66a626ef09d4e21e1a8894ec,67360fd2e525050b8ad924a1,2024-11-14_11h58.14.095,Tarea de género gramatical,2024.2.2,Win32,144.9275362,,,,,,,,,,,,,,,,,,,,,,,274.2703,275.4467,a,1,[],[],[],[],[],[],[],0.518,1,275.4472,275.9461,,,,,,882,MAS,AGR,150,océano,el,l,0.518,,275.9462,275.9462,-0.02407406,-0.395370413,0,0,0,,0,103,103,431,1,,,,,
,,,,,,8c18ae3a88feee99317f25b9,66a626ef09d4e21e1a8894ec,67360fd2e525050b8ad924a1,2024-11-14_11h58.14.095,Tarea de género gramatical,2024.2.2,Win32,144.9275362,,,,,,,,,,,,,,,,,,,,,,,275.9469,277.1993,l,1,[],[],[],[],[],[],[],0.5914,1,277.1995,277.699,,,,,,896,FEM,DIS,150,bañera,el,a,0.5914,,277.6991,277.6992,-0.02407406,-0.395370413,0,0,0,,0,104,104,445,1,,,,,
,,,,,,8c18ae3a88feee99317f25b9,66a626ef09d4e21e1a8894ec,67360fd2e525050b8ad924a1,2024-11-14_11h58.14.095,Tarea de género gramatical,2024.2.2,Win32,144.9275362,,,,,,,,,,,,,,,,,,,,,,,277.7004,278.9839,a,1,[],[],[],[],[],[],[],0.6228,1,278.9842,279.4879,,,,,,874,MAS,CON,150,rastro,,l,0.6228,,279.4887,279.4891,-0.02407406,-0.395370413,0,0,0,,0,105,105,423,1,,,,,
,,,,,,8c18ae3a88feee99317f25b9,66a626ef09d4e21e1a8894ec,67360fd2e525050b8ad924a1,2024-11-14_11h58.14.095,Tarea de género gramatical,2024.2.2,Win32,144.9275362,,,,,,,,,,,,,,,,,,,,,,,279.4895,280.7408,a,1,[],[],[],[],[],[],[],0.5908,1,280.741,281.2427,,,,,,768,MAS,AGR,150,pueblo,el,l,0.5908,,281.2428,281.2428,-0.02407406,-0.395370413,0,0,0,,0,106,106,317,1,,,,,
,,,,,,8c18ae3a88feee99317f25b9,66a626ef09d4e21e1a8894ec,67360fd2e525050b8ad924a1,2024-11-14_11h58.14.095,Tarea de género gramatical,2024.2.2,Win32,144.9275362,,,,,,,,,,,,,,,,,,,,,,,281.2434,282.5185,l,1,[],[],[],[],[],[],[],0.6128,1,282.5188,283.0187,,,,,,643,FEM,CON,150,bolsa,,a,0.6128,,283.0188,283.0189,-0.02407406,-0.395370413,0,0,0,,0,107,107,192,1,,,,,
,,,,,,8c18ae3a88feee99317f25b9,66a626ef09d4e21e1a8894ec,67360fd2e525050b8ad924a1,2024-11-14_11h58.14.095,Tarea de género gramatical,2024.2.2,Win32,144.9275362,,,,,,,,,,,,,,,,,,,,,,,283.0204,284.2198,l,1,[],[],[],[],[],[],[],0.5421,1,284.22,284.7241,,,,,,897,FEM,AGR,150,lógica,la,a,0.5421,,284.7241,284.7242,-0.02407406,-0.395370413,0,0,0,,0,108,108,446,1,,,,,
,,,,,,8c18ae3a88feee99317f25b9,66a626ef09d4e21e1a8894ec,67360fd2e525050b8ad924a1,2024-11-14_11h58.14.095,Tarea de género gramatical,2024.2.2,Win32,144.9275362,,,,,,,,,,,,,,,,,,,,,,,284.7248,286.0339,l,1,[],[],[],[],[],[],[],0.6468,1,286.0341,286.5325,,,,,,775,FEM,CON,150,tierra,,a,0.6468,,286.5327,286.5328,-0.02407406,-0.395370413,0,0,0,,0,109,109,324,1,,,,,
,,,,,,8c18ae3a88feee99317f25b9,66a626ef09d4e21e1a8894ec,67360fd2e525050b8ad924a1,2024-11-14_11h58.14.095,Tarea de género gramatical,2024.2.2,Win32,144.9275362,,,,,,,,,,,,,,,,,,,,,,,286.5341,287.7476,a,1,[],[],[],[],[],[],[],0.5521,1,287.7477,288.2474,,,,,,581,MAS,DIS,150,kilo,la,l,0.5521,,288.249,288.2496,-0.02407406,-0.395370413,0,0,0,,0,110,110,130,1,,,,,
,,,,,,8c18ae3a88feee99317f25b9,66a626ef09d4e21e1a8894ec,67360fd2e525050b8ad924a1,2024-11-14_11h58.14.095,Tarea de género gramatical,2024.2.2,Win32,144.9275362,,,,,,,,,,,,,,,,,,,,,,,288.25,289.3655,a,1,[],[],[],[],[],[],[],0.4528,1,289.3658,289.8623,,,,,,856,MAS,CON,150,premio,,l,0.4528,,289.8624,289.8625,-0.02407406,-0.395370413,0,0,0,,0,111,111,405,1,,,,,
,,,,,,8c18ae3a88feee99317f25b9,66a626ef09d4e21e1a8894ec,67360fd2e525050b8ad924a1,2024-11-14_11h58.14.095,Tarea de género gramatical,2024.2.2,Win32,144.9275362,,,,,,,,,,,,,,,,,,,,,,,289.8631,291.0435,a,1,[],[],[],[],[],[],[],0.5142,1,291.0436,291.5435,,,,,,857,MAS,DIS,150,jurado,la,l,0.5142,,291.5436,291.5437,-0.02407406,-0.395370413,0,0,0,,0,112,112,406,1,,,,,
,,,,,,8c18ae3a88feee99317f25b9,66a626ef09d4e21e1a8894ec,67360fd2e525050b8ad924a1,2024-11-14_11h58.14.095,Tarea de género gramatical,2024.2.2,Win32,144.9275362,,,,,,,,,,,,,,,,,,,,,,,291.5443,293.1592,l,1,[],[],[],[],[],[],[],0.9529,1,293.1593,293.6573,,,,,,555,FEM,AGR,150,jefa,la,a,0.9529,,293.6575,293.6575,-0.02407406,-0.395370413,0,0,0,,0,113,113,104,1,,,,,
,,,,,,8c18ae3a88feee99317f25b9,66a626ef09d4e21e1a8894ec,67360fd2e525050b8ad924a1,2024-11-14_11h58.14.095,Tarea de género gramatical,2024.2.2,Win32,144.9275362,,,,,,,,,,,,,,,,,,,,,,,293.6588,294.8489,a,1,[],[],[],[],[],[],[],0.5336,1,294.8489,295.3447,,,,,,706,MAS,CON,150,techo,,l,0.5336,,295.346,295.3465,-0.02407406,-0.395370413,0,0,0,,0,114,114,255,1,,,,,
,,,,,,8c18ae3a88feee99317f25b9,66a626ef09d4e21e1a8894ec,67360fd2e525050b8ad924a1,2024-11-14_11h58.14.095,Tarea de género gramatical,2024.2.2,Win32,144.9275362,,,,,,,,,,,,,,,,,,,,,,,295.3469,296.7726,l,1,[],[],[],[],[],[],[],0.7644,1,296.7726,297.272,,,,,,529,FEM,CON,150,mina,,a,0.7644,,297.272,297.272,-0.02407406,-0.395370413,0,0,0,,0,115,115,78,1,,,,,
,,,,,,8c18ae3a88feee99317f25b9,66a626ef09d4e21e1a8894ec,67360fd2e525050b8ad924a1,2024-11-14_11h58.14.095,Tarea de género gramatical,2024.2.2,Win32,144.9275362,,,,,,,,,,,,,,,,,,,,,,,297.2727,298.3492,l,1,[],[],[],[],[],[],[],0.4135,1,298.3493,298.8444,,,,,,625,FEM,CON,150,señal,,a,0.4135,,298.8445,298.8446,-0.02407406,-0.395370413,0,0,0,,0,116,116,174,1,,,,,
,,,,,,8c18ae3a88feee99317f25b9,66a626ef09d4e21e1a8894ec,67360fd2e525050b8ad924a1,2024-11-14_11h58.14.095,Tarea de género gramatical,2024.2.2,Win32,144.9275362,,,,,,,,,,,,,,,,,,,,,,,298.846,300.0133,a,0,[],[],[],[],[],[],[],0.5051,0,300.0144,300.5113,,,,,,842,FEM,DIS,150,maleta,el,a,0.5051,,300.5114,300.5115,-0.02407406,-0.395370413,0,0,0,,0,117,117,391,1,,,,,
,,,,,,8c18ae3a88feee99317f25b9,66a626ef09d4e21e1a8894ec,67360fd2e525050b8ad924a1,2024-11-14_11h58.14.095,Tarea de género gramatical,2024.2.2,Win32,144.9275362,,,,,,,,,,,,,,,,,,,,,,,300.513,301.9315,l,1,[],[],[],[],[],[],[],0.7567,1,301.932,302.4279,,,,,,806,FEM,DIS,150,piedra,el,a,0.7567,,302.4281,302.4282,-0.02407406,-0.395370413,0,0,0,,0,118,118,355,1,,,,,
,,,,,,8c18ae3a88feee99317f25b9,66a626ef09d4e21e1a8894ec,67360fd2e525050b8ad924a1,2024-11-14_11h58.14.095,Tarea de género gramatical,2024.2.2,Win32,144.9275362,,,,,,,,,,,,,,,,,,,,,,,302.4295,303.6015,l,1,[],[],[],[],[],[],[],0.5155,1,303.6015,304.1013,,,,,,811,FEM,CON,150,oferta,,a,0.5155,,304.1027,304.1032,-0.02407406,-0.395370413,0,0,0,,0,119,119,360,1,,,,,
,,,,,,8c18ae3a88feee99317f25b9,66a626ef09d4e21e1a8894ec,67360fd2e525050b8ad924a1,2024-11-14_11h58.14.095,Tarea de género gramatical,2024.2.2,Win32,144.9275362,,,,,,,,,,,,,,,,,,,,,,,304.1035,305.186,l,1,[],[],[],[],[],[],[],0.4208,1,305.1861,305.6845,,,,,,729,FEM,AGR,150,selva,la,a,0.4208,,305.6845,305.6847,-0.02407406,-0.395370413,0,0,0,,0,120,120,278,1,,,,,
,,,,,,8c18ae3a88feee99317f25b9,66a626ef09d4e21e1a8894ec,67360fd2e525050b8ad924a1,2024-11-14_11h58.14.095,Tarea de género gramatical,2024.2.2,Win32,144.9275362,,,,,,,,,,,,,,,,,,,,,,,305.6861,307.0249,a,1,[],[],[],[],[],[],[],0.675,1,307.025,307.522,,,,,,713,MAS,DIS,150,carro,la,l,0.675,,307.5221,307.5221,-0.02407406,-0.395370413,0,0,0,,0,121,121,262,1,,,,,
,,,,,,8c18ae3a88feee99317f25b9,66a626ef09d4e21e1a8894ec,67360fd2e525050b8ad924a1,2024-11-14_11h58.14.095,Tarea de género gramatical,2024.2.2,Win32,144.9275362,,,,,,,,,,,,,,,,,,,,,,,307.5229,309.0086,a,1,[],[],[],[],[],[],[],0.8308,1,309.0086,309.5081,,,,,,868,MAS,CON,150,pájaro,,l,0.8308,,309.5081,309.5082,-0.02407406,-0.395370413,0,0,0,,0,122,122,417,1,,,,,
,,,,,,8c18ae3a88feee99317f25b9,66a626ef09d4e21e1a8894ec,67360fd2e525050b8ad924a1,2024-11-14_11h58.14.095,Tarea de género gramatical,2024.2.2,Win32,144.9275362,,,,,,,,,,,,,,,,,,,,,,,309.5089,310.5774,a,1,[],[],[],[],[],[],[],0.4124,1,310.5775,311.0733,,,,,,676,MAS,CON,150,color,,l,0.4124,,311.0747,311.0755,-0.02407406,-0.395370413,0,0,0,,0,123,123,225,1,,,,,
,,,,,,8c18ae3a88feee99317f25b9,66a626ef09d4e21e1a8894ec,67360fd2e525050b8ad924a1,2024-11-14_11h58.14.095,Tarea de género gramatical,2024.2.2,Win32,144.9275362,,,,,,,,,,,,,,,,,,,,,,,311.0759,312.242,l,0,[],[],[],[],[],[],[],0.5049,0,312.2424,312.7445,,,,,,779,MAS,DIS,150,futuro,la,l,0.5049,,312.7446,312.7446,-0.02407406,-0.395370413,0,0,0,,0,124,124,328,1,,,,,
,,,,,,8c18ae3a88feee99317f25b9,66a626ef09d4e21e1a8894ec,67360fd2e525050b8ad924a1,2024-11-14_11h58.14.095,Tarea de género gramatical,2024.2.2,Win32,144.9275362,,,,,,,,,,,,,,,,,,,,,,,312.7453,314.057,l,1,[],[],[],[],[],[],[],0.6567,1,314.0575,314.5525,,,,,,477,FEM,AGR,150,mesa,la,a,0.6567,,314.5527,314.5528,-0.02407406,-0.395370413,0,0,0,,0,125,125,26,1,,,,,
,,,,,,8c18ae3a88feee99317f25b9,66a626ef09d4e21e1a8894ec,67360fd2e525050b8ad924a1,2024-11-14_11h58.14.095,Tarea de género gramatical,2024.2.2,Win32,144.9275362,,,,,,,,,,,,,,,,,,,,,,,314.5542,315.594,a,1,[],[],[],[],[],[],[],0.3828,1,315.5942,316.0943,,,,,,610,MAS,CON,150,señor,,l,0.3828,,316.0944,316.0945,-0.02407406,-0.395370413,0,0,0,,0,126,126,159,1,,,,,
,,,,,,8c18ae3a88feee99317f25b9,66a626ef09d4e21e1a8894ec,67360fd2e525050b8ad924a1,2024-11-14_11h58.14.095,Tarea de género gramatical,2024.2.2,Win32,144.9275362,,,,,,,,,,,,,,,,,,,,,,,316.0956,317.111,a,1,[],[],[],[],[],[],[],0.3599,1,317.1111,317.6079,,,,,,622,MAS,CON,150,poder,,l,0.3599,,317.608,317.6082,-0.02407406,-0.395370413,0,0,0,,0,127,127,171,1,,,,,
,,,,,,8c18ae3a88feee99317f25b9,66a626ef09d4e21e1a8894ec,67360fd2e525050b8ad924a1,2024-11-14_11h58.14.095,Tarea de género gramatical,2024.2.2,Win32,144.9275362,,,,,,,,,,,,,,,,,,,,,,,317.6095,318.7229,l,1,[],[],[],[],[],[],[],0.4509,1,318.7229,319.2231,,,,,,745,FEM,CON,150,grasa,,a,0.4509,,319.2239,319.2243,-0.02407406,-0.395370413,0,0,0,,0,128,128,294,1,,,,,
,,,,,,8c18ae3a88feee99317f25b9,66a626ef09d4e21e1a8894ec,67360fd2e525050b8ad924a1,2024-11-14_11h58.14.095,Tarea de género gramatical,2024.2.2,Win32,144.9275362,,,,,,,,,,,,,,,,,,,,,,,319.2248,320.3548,a,1,[],[],[],[],[],[],[],0.4721,1,320.3549,320.851,,,,,,510,MAS,AGR,150,tono,el,l,0.4721,,320.8511,320.8513,-0.02407406,-0.395370413,0,0,0,,0,129,129,59,1,,,,,
,,,,,,8c18ae3a88feee99317f25b9,66a626ef09d4e21e1a8894ec,67360fd2e525050b8ad924a1,2024-11-14_11h58.14.095,Tarea de género gramatical,2024.2.2,Win32,144.9275362,,,,,,,,,,,,,,,,,,,,,,,320.8524,321.8648,a,1,[],[],[],[],[],[],[],0.3532,1,321.8652,322.3646,,,,,,562,MAS,CON,150,reto,,l,0.3532,,322.3648,322.365,-0.02407406,-0.395370413,0,0,0,,0,130,130,111,1,,,,,
,,,,,,8c18ae3a88feee99317f25b9,66a626ef09d4e21e1a8894ec,67360fd2e525050b8ad924a1,2024-11-14_11h58.14.095,Tarea de género gramatical,2024.2.2,Win32,144.9275362,,,,,,,,,,,,,,,,,,,,,,,322.3662,323.4006,a,1,[],[],[],[],[],[],[],0.3773,1,323.4008,323.8994,,,,,,672,MAS,AGR,150,valor,el,l,0.3773,,323.8995,323.8997,-0.02407406,-0.395370413,0,0,0,,0,131,131,221,1,,,,,
,,,,,,8c18ae3a88feee99317f25b9,66a626ef09d4e21e1a8894ec,67360fd2e525050b8ad924a1,2024-11-14_11h58.14.095,Tarea de género gramatical,2024.2.2,Win32,144.9275362,,,,,,,,,,,,,,,,,,,,,,,323.9008,325.1516,l,1,[],[],[],[],[],[],[],0.5882,1,325.1517,325.6468,,,,,,511,FEM,CON,150,ruta,,a,0.5882,,325.6474,325.6479,-0.02407406,-0.395370413,0,0,0,,0,132,132,60,1,,,,,
,,,,,,8c18ae3a88feee99317f25b9,66a626ef09d4e21e1a8894ec,67360fd2e525050b8ad924a1,2024-11-14_11h58.14.095,Tarea de género gramatical,2024.2.2,Win32,144.9275362,,,,,,,,,,,,,,,,,,,,,,,325.6483,327.1923,a,1,[],[],[],[],[],[],[],0.8793,1,327.1925,327.6929,,,,,,491,MAS,DIS,150,bote,la,l,0.8793,,327.6929,327.693,-0.02407406,-0.395370413,0,0,0,,0,133,133,40,1,,,,,
,,,,,,8c18ae3a88feee99317f25b9,66a626ef09d4e21e1a8894ec,67360fd2e525050b8ad924a1,2024-11-14_11h58.14.095,Tarea de género gramatical,2024.2.2,Win32,144.9275362,,,,,,,,,,,,,,,,,,,,,,,327.6937,328.8414,a,1,[],[],[],[],[],[],[],0.4919,1,328.8415,329.3372,,,,,,654,MAS,AGR,150,papel,el,l,0.4919,,329.3373,329.3373,-0.02407406,-0.395370413,0,0,0,,0,134,134,203,1,,,,,
,,,,,,8c18ae3a88feee99317f25b9,66a626ef09d4e21e1a8894ec,67360fd2e525050b8ad924a1,2024-11-14_11h58.14.095,Tarea de género gramatical,2024.2.2,Win32,144.9275362,,,,,,,,,,,,,,,,,,,,,,,329.3388,330.6652,a,0,[],[],[],[],[],[],[],0.6698,0,330.6657,331.1606,,,,,,740,FEM,DIS,150,cabra,el,a,0.6698,,331.1606,331.1606,-0.02407406,-0.395370413,0,0,0,,0,135,135,289,1,,,,,
,,,,,,8c18ae3a88feee99317f25b9,66a626ef09d4e21e1a8894ec,67360fd2e525050b8ad924a1,2024-11-14_11h58.14.095,Tarea de género gramatical,2024.2.2,Win32,144.9275362,,,,,,,,,,,,,,,,,,,,,,,331.1613,332.6259,l,0,[],[],[],[],[],[],[],0.8015,0,332.6259,333.1259,,,,,,461,MAS,DIS,150,país,la,l,0.8015,,333.1259,333.1259,-0.02407406,-0.395370413,0,0,0,,0,136,136,10,1,,,,,
,,,,,,8c18ae3a88feee99317f25b9,66a626ef09d4e21e1a8894ec,67360fd2e525050b8ad924a1,2024-11-14_11h58.14.095,Tarea de género gramatical,2024.2.2,Win32,144.9275362,,,,,,,,,,,,,,,,,,,,,,,333.1266,334.3227,a,1,[],[],[],[],[],[],[],0.5329,1,334.3236,334.8228,,,,,,808,MAS,CON,150,motivo,,l,0.5329,,334.8239,334.8245,-0.02407406,-0.395370413,0,0,0,,0,137,137,357,1,,,,,
,,,,,,8c18ae3a88feee99317f25b9,66a626ef09d4e21e1a8894ec,67360fd2e525050b8ad924a1,2024-11-14_11h58.14.095,Tarea de género gramatical,2024.2.2,Win32,144.9275362,,,,,,,,,,,,,,,,,,,,,,,334.8249,335.9376,a,0,[],[],[],[],[],[],[],0.4541,0,335.9381,336.4384,,,,,,458,FEM,DIS,150,idea,el,a,0.4541,,336.4384,336.4384,-0.02407406,-0.395370413,0,0,0,,0,138,138,7,1,,,,,
,,,,,,8c18ae3a88feee99317f25b9,66a626ef09d4e21e1a8894ec,67360fd2e525050b8ad924a1,2024-11-14_11h58.14.095,Tarea de género gramatical,2024.2.2,Win32,144.9275362,,,,,,,,,,,,,,,,,,,,,,,336.4391,337.5798,a,1,[],[],[],[],[],[],[],0.477,1,337.5808,338.0773,,,,,,660,MAS,AGR,150,baile,el,l,0.477,,338.0773,338.0773,-0.02407406,-0.395370413,0,0,0,,0,139,139,209,1,,,,,
,,,,,,8c18ae3a88feee99317f25b9,66a626ef09d4e21e1a8894ec,67360fd2e525050b8ad924a1,2024-11-14_11h58.14.095,Tarea de género gramatical,2024.2.2,Win32,144.9275362,,,,,,,,,,,,,,,,,,,,,,,338.0779,339.4588,l,1,[],[],[],[],[],[],[],0.7182,1,339.4589,339.9561,,,,,,687,FEM,AGR,150,ducha,la,a,0.7182,,339.9561,339.9562,-0.02407406,-0.395370413,0,0,0,,0,140,140,236,1,,,,,
,,,,,,8c18ae3a88feee99317f25b9,66a626ef09d4e21e1a8894ec,67360fd2e525050b8ad924a1,2024-11-14_11h58.14.095,Tarea de género gramatical,2024.2.2,Win32,144.9275362,,,,,,,,,,,,,,,,,,,,,,,339.9572,341.7325,l,1,[],[],[],[],[],[],[],1.1117,1,341.7327,342.2322,,,,,,817,FEM,CON,150,teoría,,a,1.1117,,342.2336,342.2342,-0.02407406,-0.395370413,0,0,0,,0,141,141,366,1,,,,,
,,,,,,8c18ae3a88feee99317f25b9,66a626ef09d4e21e1a8894ec,67360fd2e525050b8ad924a1,2024-11-14_11h58.14.095,Tarea de género gramatical,2024.2.2,Win32,144.9275362,,,,,,,,,,,,,,,,,,,,,,,342.2345,343.3038,a,1,[],[],[],[],[],[],[],0.4139,1,343.304,343.8018,,,,,,718,MAS,CON,150,truco,,l,0.4139,,343.8019,343.802,-0.02407406,-0.395370413,0,0,0,,0,142,142,267,1,,,,,
,,,,,,8c18ae3a88feee99317f25b9,66a626ef09d4e21e1a8894ec,67360fd2e525050b8ad924a1,2024-11-14_11h58.14.095,Tarea de género gramatical,2024.2.2,Win32,144.9275362,,,,,,,,,,,,,,,,,,,,,,,343.8033,345.0587,l,1,[],[],[],[],[],[],[],0.5925,1,345.0589,345.5587,,,,,,500,FEM,DIS,150,dama,el,a,0.5925,,345.5589,345.559,-0.02407406,-0.395370413,0,0,0,,0,143,143,49,1,,,,,
,,,,,,8c18ae3a88feee99317f25b9,66a626ef09d4e21e1a8894ec,67360fd2e525050b8ad924a1,2024-11-14_11h58.14.095,Tarea de género gramatical,2024.2.2,Win32,144.9275362,,,,,,,,,,,,,,,,,,,,,,,345.5602,346.9308,a,1,[],[],[],[],[],[],[],0.7115,1,346.9309,347.4267,,,,,,527,MAS,DIS,150,pico,la,l,0.7115,,347.4268,347.4269,-0.02407406,-0.395370413,0,0,0,,0,144,144,76,1,,,,,
,,,,,,8c18ae3a88feee99317f25b9,66a626ef09d4e21e1a8894ec,67360fd2e525050b8ad924a1,2024-11-14_11h58.14.095,Tarea de género gramatical,2024.2.2,Win32,144.9275362,,,,,,,,,,,,,,,,,,,,,,,347.4283,348.7713,a,1,[],[],[],[],[],[],[],0.69,1,348.7713,349.2714,,,,,,738,MAS,AGR,150,grado,el,l,0.69,,349.2714,349.2715,-0.02407406,-0.395370413,0,0,0,,0,145,145,287,1,,,,,
,,,,,,8c18ae3a88feee99317f25b9,66a626ef09d4e21e1a8894ec,67360fd2e525050b8ad924a1,2024-11-14_11h58.14.095,Tarea de género gramatical,2024.2.2,Win32,144.9275362,,,,,,,,,,,,,,,,,,,,,,,349.2722,350.4478,l,1,[],[],[],[],[],[],[],0.5101,1,350.4481,350.9474,,,,,,830,FEM,DIS,150,madera,el,a,0.5101,,350.9487,350.9493,-0.02407406,-0.395370413,0,0,0,,0,146,146,379,1,,,,,
,,,,,,8c18ae3a88feee99317f25b9,66a626ef09d4e21e1a8894ec,67360fd2e525050b8ad924a1,2024-11-14_11h58.14.095,Tarea de género gramatical,2024.2.2,Win32,144.9275362,,,,,,,,,,,,,,,,,,,,,,,350.9497,352.1717,a,1,[],[],[],[],[],[],[],0.5605,1,352.1717,352.6695,,,,,,834,MAS,AGR,150,pedazo,el,l,0.5605,,352.6697,352.6698,-0.02407406,-0.395370413,0,0,0,,0,147,147,383,1,,,,,
,,,,,,8c18ae3a88feee99317f25b9,66a626ef09d4e21e1a8894ec,67360fd2e525050b8ad924a1,2024-11-14_11h58.14.095,Tarea de género gramatical,2024.2.2,Win32,144.9275362,,,,,,,,,,,,,,,,,,,,,,,352.6711,353.931,l,1,[],[],[],[],[],[],[],0.6009,1,353.9311,354.4286,,,,,,739,FEM,CON,150,tabla,,a,0.6009,,354.4287,354.4288,-0.02407406,-0.395370413,0,0,0,,0,148,148,288,1,,,,,
,,,,,,8c18ae3a88feee99317f25b9,66a626ef09d4e21e1a8894ec,67360fd2e525050b8ad924a1,2024-11-14_11h58.14.095,Tarea de género gramatical,2024.2.2,Win32,144.9275362,,,,,,,,,,,,,,,,,,,,,,,354.4294,355.5795,l,0,[],[],[],[],[],[],[],0.4886,0,355.5806,356.0792,,,,,,725,MAS,DIS,150,disco,la,l,0.4886,,356.0793,356.0795,-0.02407406,-0.395370413,0,0,0,,0,149,149,274,1,,,,,
,,,,,,8c18ae3a88feee99317f25b9,66a626ef09d4e21e1a8894ec,67360fd2e525050b8ad924a1,2024-11-14_11h58.14.095,Tarea de género gramatical,2024.2.2,Win32,144.9275362,,,,,,,,,,,,,,,,,,,,,,,356.0807,357.4034,l,1,[],[],[],[],[],[],[],0.6632,1,357.4038,357.903,,,,,,483,FEM,AGR,150,boda,la,a,0.6632,,357.9036,368.5862,-0.022222236,-0.406481496,1,0,0,,0,150,150,32,1,break_done_button,,,,
,,,,,,8c18ae3a88feee99317f25b9,66a626ef09d4e21e1a8894ec,67360fd2e525050b8ad924a1,2024-11-14_11h58.14.095,Tarea de género gramatical,2024.2.2,Win32,144.9275362,,,,,,,,,,,,,,,,,,,,,,,368.5872,371.2316,,0,[],[],[],[],[],[],[],0.6632,-1,371.2321,371.7316,,,,,,872,FEM,DIS,150,rutina,el,a,,,371.7316,371.7316,-0.022222236,-0.406481496,0,0,0,,0,151,151,421,1,,,,,
,,,,,,8c18ae3a88feee99317f25b9,66a626ef09d4e21e1a8894ec,67360fd2e525050b8ad924a1,2024-11-14_11h58.14.095,Tarea de género gramatical,2024.2.2,Win32,144.9275362,,,,,,,,,,,,,,,,,,,,,,,371.7324,372.8705,a,1,[],[],[],[],[],[],[],0.4781,1,372.8709,373.3705,,,,,,582,MAS,AGR,150,velo,el,l,0.4781,,373.3705,373.3706,-0.022222236,-0.406481496,0,0,0,,0,152,152,131,1,,,,,
,,,,,,8c18ae3a88feee99317f25b9,66a626ef09d4e21e1a8894ec,67360fd2e525050b8ad924a1,2024-11-14_11h58.14.095,Tarea de género gramatical,2024.2.2,Win32,144.9275362,,,,,,,,,,,,,,,,,,,,,,,373.3716,374.3983,a,0,[],[],[],[],[],[],[],0.3669,0,374.3987,374.8983,,,,,,488,FEM,DIS,150,obra,el,a,0.3669,,374.8983,374.8983,-0.022222236,-0.406481496,0,0,0,,0,153,153,37,1,,,,,
,,,,,,8c18ae3a88feee99317f25b9,66a626ef09d4e21e1a8894ec,67360fd2e525050b8ad924a1,2024-11-14_11h58.14.095,Tarea de género gramatical,2024.2.2,Win32,144.9275362,,,,,,,,,,,,,,,,,,,,,,,374.8992,375.8564,l,1,[],[],[],[],[],[],[],0.3018,1,375.8568,376.3565,,,,,,547,FEM,CON,150,capa,,a,0.3018,,376.3565,376.3565,-0.022222236,-0.406481496,0,0,0,,0,154,154,96,1,,,,,
,,,,,,8c18ae3a88feee99317f25b9,66a626ef09d4e21e1a8894ec,67360fd2e525050b8ad924a1,2024-11-14_11h58.14.095,Tarea de género gramatical,2024.2.2,Win32,144.9275362,,,,,,,,,,,,,,,,,,,,,,,376.3573,377.2454,l,1,[],[],[],[],[],[],[],0.2297,1,377.2455,377.7454,,,,,,673,FEM,CON,150,plata,,a,0.2297,,377.7462,377.7472,-0.022222236,-0.406481496,0,0,0,,0,155,155,222,1,,,,,
,,,,,,8c18ae3a88feee99317f25b9,66a626ef09d4e21e1a8894ec,67360fd2e525050b8ad924a1,2024-11-14_11h58.14.095,Tarea de género gramatical,2024.2.2,Win32,144.9275362,,,,,,,,,,,,,,,,,,,,,,,377.7478,378.794,l,0,[],[],[],[],[],[],[],0.3897,0,378.7944,379.2939,,,,,,881,MAS,DIS,150,veneno,la,l,0.3897,,379.294,379.294,-0.022222236,-0.406481496,0,0,0,,0,156,156,430,1,,,,,
,,,,,,8c18ae3a88feee99317f25b9,66a626ef09d4e21e1a8894ec,67360fd2e525050b8ad924a1,2024-11-14_11h58.14.095,Tarea de género gramatical,2024.2.2,Win32,144.9275362,,,,,,,,,,,,,,,,,,,,,,,379.2946,380.3773,l,0,[],[],[],[],[],[],[],0.4257,0,380.3773,380.8773,,,,,,484,MAS,CON,150,gato,,l,0.4257,,380.8773,380.8773,-0.022222236,-0.406481496,0,0,0,,0,157,157,33,1,,,,,
,,,,,,8c18ae3a88feee99317f25b9,66a626ef09d4e21e1a8894ec,67360fd2e525050b8ad924a1,2024-11-14_11h58.14.095,Tarea de género gramatical,2024.2.2,Win32,144.9275362,,,,,,,,,,,,,,,,,,,,,,,380.8783,382.0023,a,0,[],[],[],[],[],[],[],0.4677,0,382.0023,382.5022,,,,,,837,FEM,AGR,150,página,la,a,0.4677,,382.5022,382.5022,-0.022222236,-0.406481496,0,0,0,,0,158,158,386,1,,,,,
,,,,,,8c18ae3a88feee99317f25b9,66a626ef09d4e21e1a8894ec,67360fd2e525050b8ad924a1,2024-11-14_11h58.14.095,Tarea de género gramatical,2024.2.2,Win32,144.9275362,,,,,,,,,,,,,,,,,,,,,,,382.5033,383.5647,l,1,[],[],[],[],[],[],[],0.4048,1,383.5651,384.0647,,,,,,649,FEM,CON,150,nariz,,a,0.4048,,384.0655,384.0664,-0.022222236,-0.406481496,0,0,0,,0,159,159,198,1,,,,,
,,,,,,8c18ae3a88feee99317f25b9,66a626ef09d4e21e1a8894ec,67360fd2e525050b8ad924a1,2024-11-14_11h58.14.095,Tarea de género gramatical,2024.2.2,Win32,144.9275362,,,,,,,,,,,,,,,,,,,,,,,384.0669,385.2174,a,0,[],[],[],[],[],[],[],0.4934,0,385.2178,385.7174,,,,,,728,FEM,DIS,150,presa,el,a,0.4934,,385.7174,385.7175,-0.022222236,-0.406481496,0,0,0,,0,160,160,277,1,,,,,
,,,,,,8c18ae3a88feee99317f25b9,66a626ef09d4e21e1a8894ec,67360fd2e525050b8ad924a1,2024-11-14_11h58.14.095,Tarea de género gramatical,2024.2.2,Win32,144.9275362,,,,,,,,,,,,,,,,,,,,,,,385.7182,387.3562,a,1,[],[],[],[],[],[],[],0.9807,1,387.3567,387.8562,,,,,,509,MAS,DIS,150,lobo,la,l,0.9807,,387.8563,387.8563,-0.022222236,-0.406481496,0,0,0,,0,161,161,58,1,,,,,
,,,,,,8c18ae3a88feee99317f25b9,66a626ef09d4e21e1a8894ec,67360fd2e525050b8ad924a1,2024-11-14_11h58.14.095,Tarea de género gramatical,2024.2.2,Win32,144.9275362,,,,,,,,,,,,,,,,,,,,,,,387.8572,389.1201,a,1,[],[],[],[],[],[],[],0.6046,1,389.1202,389.6201,,,,,,815,MAS,DIS,150,código,la,l,0.6046,,389.6201,389.6201,-0.022222236,-0.406481496,0,0,0,,0,162,162,364,1,,,,,
,,,,,,8c18ae3a88feee99317f25b9,66a626ef09d4e21e1a8894ec,67360fd2e525050b8ad924a1,2024-11-14_11h58.14.095,Tarea de género gramatical,2024.2.2,Win32,144.9275362,,,,,,,,,,,,,,,,,,,,,,,389.6211,390.6409,a,1,[],[],[],[],[],[],[],0.3631,1,390.641,391.1408,,,,,,852,MAS,AGR,150,ladrón,el,l,0.3631,,391.1409,391.141,-0.022222236,-0.406481496,0,0,0,,0,163,163,401,1,,,,,
,,,,,,8c18ae3a88feee99317f25b9,66a626ef09d4e21e1a8894ec,67360fd2e525050b8ad924a1,2024-11-14_11h58.14.095,Tarea de género gramatical,2024.2.2,Win32,144.9275362,,,,,,,,,,,,,,,,,,,,,,,391.1419,392.2312,l,1,[],[],[],[],[],[],[],0.4324,1,392.2312,392.7312,,,,,,865,FEM,CON,150,cabina,,a,0.4324,,392.7319,392.7328,-0.022222236,-0.406481496,0,0,0,,0,164,164,414,1,,,,,
,,,,,,8c18ae3a88feee99317f25b9,66a626ef09d4e21e1a8894ec,67360fd2e525050b8ad924a1,2024-11-14_11h58.14.095,Tarea de género gramatical,2024.2.2,Win32,144.9275362,,,,,,,,,,,,,,,,,,,,,,,392.7335,394.0297,l,1,[],[],[],[],[],[],[],0.6384,1,394.0297,394.5297,,,,,,758,FEM,DIS,150,semana,el,a,0.6384,,394.5297,394.5298,-0.022222236,-0.406481496,0,0,0,,0,165,165,307,1,,,,,
,,,,,,8c18ae3a88feee99317f25b9,66a626ef09d4e21e1a8894ec,67360fd2e525050b8ad924a1,2024-11-14_11h58.14.095,Tarea de género gramatical,2024.2.2,Win32,144.9275362,,,,,,,,,,,,,,,,,,,,,,,394.5305,395.7796,l,1,[],[],[],[],[],[],[],0.5928,1,395.7797,396.2796,,,,,,644,FEM,DIS,150,banda,el,a,0.5928,,396.2797,396.2797,-0.022222236,-0.406481496,0,0,0,,0,166,166,193,1,,,,,
,,,,,,8c18ae3a88feee99317f25b9,66a626ef09d4e21e1a8894ec,67360fd2e525050b8ad924a1,2024-11-14_11h58.14.095,Tarea de género gramatical,2024.2.2,Win32,144.9275362,,,,,,,,,,,,,,,,,,,,,,,396.2807,397.3491,l,0,[],[],[],[],[],[],[],0.4104,0,397.3496,397.849,,,,,,828,MAS,AGR,150,pastel,el,l,0.4104,,397.8491,397.8491,-0.022222236,-0.406481496,0,0,0,,0,167,167,377,1,,,,,
,,,,,,8c18ae3a88feee99317f25b9,66a626ef09d4e21e1a8894ec,67360fd2e525050b8ad924a1,2024-11-14_11h58.14.095,Tarea de género gramatical,2024.2.2,Win32,144.9275362,,,,,,,,,,,,,,,,,,,,,,,397.85,398.9949,l,1,[],[],[],[],[],[],[],0.487,1,398.9954,399.4949,,,,,,759,FEM,AGR,150,esposa,la,a,0.487,,399.4955,399.4965,-0.022222236,-0.406481496,0,0,0,,0,168,168,308,1,,,,,
,,,,,,8c18ae3a88feee99317f25b9,66a626ef09d4e21e1a8894ec,67360fd2e525050b8ad924a1,2024-11-14_11h58.14.095,Tarea de género gramatical,2024.2.2,Win32,144.9275362,,,,,,,,,,,,,,,,,,,,,,,399.4971,400.6685,a,1,[],[],[],[],[],[],[],0.5144,1,400.6685,401.1686,,,,,,766,MAS,CON,150,cuerpo,,l,0.5144,,401.1687,401.1688,-0.022222236,-0.406481496,0,0,0,,0,169,169,315,1,,,,,
,,,,,,8c18ae3a88feee99317f25b9,66a626ef09d4e21e1a8894ec,67360fd2e525050b8ad924a1,2024-11-14_11h58.14.095,Tarea de género gramatical,2024.2.2,Win32,144.9275362,,,,,,,,,,,,,,,,,,,,,,,401.1697,402.5087,l,1,[],[],[],[],[],[],[],0.6796,1,402.5087,403.0087,,,,,,639,FEM,AGR,150,pista,la,a,0.6796,,403.0088,403.0088,-0.022222236,-0.406481496,0,0,0,,0,170,170,188,1,,,,,
,,,,,,8c18ae3a88feee99317f25b9,66a626ef09d4e21e1a8894ec,67360fd2e525050b8ad924a1,2024-11-14_11h58.14.095,Tarea de género gramatical,2024.2.2,Win32,144.9275362,,,,,,,,,,,,,,,,,,,,,,,403.0097,404.238,l,0,[],[],[],[],[],[],[],0.5651,0,404.2391,404.7379,,,,,,785,MAS,DIS,150,montón,la,l,0.5651,,404.7379,404.738,-0.022222236,-0.406481496,0,0,0,,0,171,171,334,1,,,,,
,,,,,,8c18ae3a88feee99317f25b9,66a626ef09d4e21e1a8894ec,67360fd2e525050b8ad924a1,2024-11-14_11h58.14.095,Tarea de género gramatical,2024.2.2,Win32,144.9275362,,,,,,,,,,,,,,,,,,,,,,,404.7396,405.8228,l,1,[],[],[],[],[],[],[],0.4247,1,405.824,406.3213,,,,,,757,FEM,CON,150,suerte,,a,0.4247,,406.3215,406.3217,-0.022222236,-0.406481496,0,0,0,,0,172,172,306,1,,,,,
,,,,,,8c18ae3a88feee99317f25b9,66a626ef09d4e21e1a8894ec,67360fd2e525050b8ad924a1,2024-11-14_11h58.14.095,Tarea de género gramatical,2024.2.2,Win32,144.9275362,,,,,,,,,,,,,,,,,,,,,,,406.3229,407.3837,a,0,[],[],[],[],[],[],[],0.4007,0,407.3849,407.8882,,,,,,482,FEM,DIS,150,caja,el,a,0.4007,,407.889,407.8895,-0.022222236,-0.406481496,0,0,0,,0,173,173,31,1,,,,,
,,,,,,8c18ae3a88feee99317f25b9,66a626ef09d4e21e1a8894ec,67360fd2e525050b8ad924a1,2024-11-14_11h58.14.095,Tarea de género gramatical,2024.2.2,Win32,144.9275362,,,,,,,,,,,,,,,,,,,,,,,407.8899,409.0108,l,1,[],[],[],[],[],[],[],0.4598,1,409.0113,409.5106,,,,,,614,FEM,DIS,150,novia,el,a,0.4598,,409.5107,409.5107,-0.022222236,-0.406481496,0,0,0,,0,174,174,163,1,,,,,
,,,,,,8c18ae3a88feee99317f25b9,66a626ef09d4e21e1a8894ec,67360fd2e525050b8ad924a1,2024-11-14_11h58.14.095,Tarea de género gramatical,2024.2.2,Win32,144.9275362,,,,,,,,,,,,,,,,,,,,,,,409.5113,410.6937,l,0,[],[],[],[],[],[],[],0.5233,0,410.6941,411.1892,,,,,,539,MAS,DIS,150,maíz,la,l,0.5233,,411.1894,411.1895,-0.022222236,-0.406481496,0,0,0,,0,175,175,88,1,,,,,
,,,,,,8c18ae3a88feee99317f25b9,66a626ef09d4e21e1a8894ec,67360fd2e525050b8ad924a1,2024-11-14_11h58.14.095,Tarea de género gramatical,2024.2.2,Win32,144.9275362,,,,,,,,,,,,,,,,,,,,,,,411.1907,412.0503,l,1,[],[],[],[],[],[],[],0.2002,1,412.0514,412.5475,,,,,,891,FEM,AGR,150,medida,la,a,0.2002,,412.5476,412.5476,-0.022222236,-0.406481496,0,0,0,,0,176,176,440,1,,,,,
,,,,,,8c18ae3a88feee99317f25b9,66a626ef09d4e21e1a8894ec,67360fd2e525050b8ad924a1,2024-11-14_11h58.14.095,Tarea de género gramatical,2024.2.2,Win32,144.9275362,,,,,,,,,,,,,,,,,,,,,,,412.5483,413.7812,l,1,[],[],[],[],[],[],[],0.5738,1,413.7813,414.2796,,,,,,819,FEM,AGR,150,camisa,la,a,0.5738,,414.2808,414.2812,-0.022222236,-0.406481496,0,0,0,,0,177,177,368,1,,,,,
,,,,,,8c18ae3a88feee99317f25b9,66a626ef09d4e21e1a8894ec,67360fd2e525050b8ad924a1,2024-11-14_11h58.14.095,Tarea de género gramatical,2024.2.2,Win32,144.9275362,,,,,,,,,,,,,,,,,,,,,,,414.2816,415.4807,a,1,[],[],[],[],[],[],[],0.5383,1,415.481,415.9784,,,,,,863,MAS,DIS,150,diario,la,l,0.5383,,415.9785,415.9786,-0.022222236,-0.406481496,0,0,0,,0,178,178,412,1,,,,,
,,,,,,8c18ae3a88feee99317f25b9,66a626ef09d4e21e1a8894ec,67360fd2e525050b8ad924a1,2024-11-14_11h58.14.095,Tarea de género gramatical,2024.2.2,Win32,144.9275362,,,,,,,,,,,,,,,,,,,,,,,415.9792,417.2587,l,0,[],[],[],[],[],[],[],0.6116,0,417.2599,417.7559,,,,,,611,MAS,DIS,150,chico,la,l,0.6116,,417.7559,417.756,-0.022222236,-0.406481496,0,0,0,,0,179,179,160,1,,,,,
,,,,,,8c18ae3a88feee99317f25b9,66a626ef09d4e21e1a8894ec,67360fd2e525050b8ad924a1,2024-11-14_11h58.14.095,Tarea de género gramatical,2024.2.2,Win32,144.9275362,,,,,,,,,,,,,,,,,,,,,,,417.7568,418.7308,l,0,[],[],[],[],[],[],[],0.3061,0,418.731,419.2349,,,,,,653,MAS,DIS,150,novio,la,l,0.3061,,419.235,419.2351,-0.022222236,-0.406481496,0,0,0,,0,180,180,202,1,,,,,
,,,,,,8c18ae3a88feee99317f25b9,66a626ef09d4e21e1a8894ec,67360fd2e525050b8ad924a1,2024-11-14_11h58.14.095,Tarea de género gramatical,2024.2.2,Win32,144.9275362,,,,,,,,,,,,,,,,,,,,,,,419.2358,421.8806,,0,[],[],[],[],[],[],[],0.3061,-1,421.8811,422.3771,,,,,,627,FEM,AGR,150,broma,la,a,,,422.3772,422.3773,-0.022222236,-0.406481496,0,0,0,,0,181,181,176,1,,,,,
,,,,,,8c18ae3a88feee99317f25b9,66a626ef09d4e21e1a8894ec,67360fd2e525050b8ad924a1,2024-11-14_11h58.14.095,Tarea de género gramatical,2024.2.2,Win32,144.9275362,,,,,,,,,,,,,,,,,,,,,,,422.3788,423.6237,a,1,[],[],[],[],[],[],[],0.5835,1,423.6242,424.1192,,,,,,786,MAS,AGR,150,crimen,el,l,0.5835,,424.1207,424.1212,-0.022222236,-0.406481496,0,0,0,,0,182,182,335,1,,,,,
,,,,,,8c18ae3a88feee99317f25b9,66a626ef09d4e21e1a8894ec,67360fd2e525050b8ad924a1,2024-11-14_11h58.14.095,Tarea de género gramatical,2024.2.2,Win32,144.9275362,,,,,,,,,,,,,,,,,,,,,,,424.1216,425.1446,a,0,[],[],[],[],[],[],[],0.3613,0,425.145,425.6443,,,,,,524,FEM,DIS,150,flor,el,a,0.3613,,425.6443,425.6444,-0.022222236,-0.406481496,0,0,0,,0,183,183,73,1,,,,,
,,,,,,8c18ae3a88feee99317f25b9,66a626ef09d4e21e1a8894ec,67360fd2e525050b8ad924a1,2024-11-14_11h58.14.095,Tarea de género gramatical,2024.2.2,Win32,144.9275362,,,,,,,,,,,,,,,,,,,,,,,425.645,426.4526,l,0,[],[],[],[],[],[],[],0.1513,0,426.4529,426.9479,,,,,,851,MAS,DIS,150,abrigo,la,l,0.1513,,426.9479,426.948,-0.022222236,-0.406481496,0,0,0,,0,184,184,400,1,,,,,
,,,,,,8c18ae3a88feee99317f25b9,66a626ef09d4e21e1a8894ec,67360fd2e525050b8ad924a1,2024-11-14_11h58.14.095,Tarea de género gramatical,2024.2.2,Win32,144.9275362,,,,,,,,,,,,,,,,,,,,,,,426.9487,427.8808,a,0,[],[],[],[],[],[],[],0.2714,0,427.8809,428.3761,,,,,,531,FEM,AGR,150,cima,la,a,0.2714,,428.3762,428.3763,-0.022222236,-0.406481496,0,0,0,,0,185,185,80,1,,,,,
,,,,,,8c18ae3a88feee99317f25b9,66a626ef09d4e21e1a8894ec,67360fd2e525050b8ad924a1,2024-11-14_11h58.14.095,Tarea de género gramatical,2024.2.2,Win32,144.9275362,,,,,,,,,,,,,,,,,,,,,,,428.3776,429.1698,l,1,[],[],[],[],[],[],[],0.133,1,429.1709,429.665,,,,,,465,FEM,AGR,150,cama,la,a,0.133,,429.6656,429.6662,-0.022222236,-0.406481496,0,0,0,,0,186,186,14,1,,,,,
,,,,,,8c18ae3a88feee99317f25b9,66a626ef09d4e21e1a8894ec,67360fd2e525050b8ad924a1,2024-11-14_11h58.14.095,Tarea de género gramatical,2024.2.2,Win32,144.9275362,,,,,,,,,,,,,,,,,,,,,,,429.6666,430.5542,l,1,[],[],[],[],[],[],[],0.2227,1,430.5542,431.0496,,,,,,674,FEM,DIS,150,arena,el,a,0.2227,,431.0497,431.0499,-0.022222236,-0.406481496,0,0,0,,0,187,187,223,1,,,,,
,,,,,,8c18ae3a88feee99317f25b9,66a626ef09d4e21e1a8894ec,67360fd2e525050b8ad924a1,2024-11-14_11h58.14.095,Tarea de género gramatical,2024.2.2,Win32,144.9275362,,,,,,,,,,,,,,,,,,,,,,,431.0511,431.8831,l,0,[],[],[],[],[],[],[],0.1684,0,431.8842,432.3786,,,,,,534,MAS,AGR,150,mago,el,l,0.1684,,432.3787,432.3787,-0.022222236,-0.406481496,0,0,0,,0,188,188,83,1,,,,,
,,,,,,8c18ae3a88feee99317f25b9,66a626ef09d4e21e1a8894ec,67360fd2e525050b8ad924a1,2024-11-14_11h58.14.095,Tarea de género gramatical,2024.2.2,Win32,144.9275362,,,,,,,,,,,,,,,,,,,,,,,432.3793,433.3225,a,0,[],[],[],[],[],[],[],0.2791,0,433.3226,433.8206,,,,,,494,FEM,DIS,150,zona,el,a,0.2791,,433.8208,433.8211,-0.022222236,-0.406481496,0,0,0,,0,189,189,43,1,,,,,
,,,,,,8c18ae3a88feee99317f25b9,66a626ef09d4e21e1a8894ec,67360fd2e525050b8ad924a1,2024-11-14_11h58.14.095,Tarea de género gramatical,2024.2.2,Win32,144.9275362,,,,,,,,,,,,,,,,,,,,,,,433.8221,434.8668,l,0,[],[],[],[],[],[],[],0.3858,0,434.8669,435.3621,,,,,,682,MAS,CON,150,calor,,l,0.3858,,435.3623,435.3624,-0.022222236,-0.406481496,0,0,0,,0,190,190,231,1,,,,,
,,,,,,8c18ae3a88feee99317f25b9,66a626ef09d4e21e1a8894ec,67360fd2e525050b8ad924a1,2024-11-14_11h58.14.095,Tarea de género gramatical,2024.2.2,Win32,144.9275362,,,,,,,,,,,,,,,,,,,,,,,435.3636,436.0995,a,1,[],[],[],[],[],[],[],0.077,1,436.1006,436.5983,,,,,,876,MAS,AGR,150,pánico,el,l,0.077,,436.5998,436.6004,-0.022222236,-0.406481496,0,0,0,,0,191,191,425,1,,,,,
,,,,,,8c18ae3a88feee99317f25b9,66a626ef09d4e21e1a8894ec,67360fd2e525050b8ad924a1,2024-11-14_11h58.14.095,Tarea de género gramatical,2024.2.2,Win32,144.9275362,,,,,,,,,,,,,,,,,,,,,,,436.6007,437.8412,a,1,[],[],[],[],[],[],[],0.5822,1,437.8414,438.3457,,,,,,875,MAS,DIS,150,chiste,la,l,0.5822,,438.3458,438.3458,-0.022222236,-0.406481496,0,0,0,,0,192,192,424,1,,,,,
,,,,,,8c18ae3a88feee99317f25b9,66a626ef09d4e21e1a8894ec,67360fd2e525050b8ad924a1,2024-11-14_11h58.14.095,Tarea de género gramatical,2024.2.2,Win32,144.9275362,,,,,,,,,,,,,,,,,,,,,,,438.3465,439.4847,a,1,[],[],[],[],[],[],[],0.4823,1,439.4848,439.9801,,,,,,694,MAS,CON,150,hielo,,l,0.4823,,439.9804,439.9805,-0.022222236,-0.406481496,0,0,0,,0,193,193,243,1,,,,,
,,,,,,8c18ae3a88feee99317f25b9,66a626ef09d4e21e1a8894ec,67360fd2e525050b8ad924a1,2024-11-14_11h58.14.095,Tarea de género gramatical,2024.2.2,Win32,144.9275362,,,,,,,,,,,,,,,,,,,,,,,439.9817,440.9016,a,1,[],[],[],[],[],[],[],0.2606,1,440.9016,441.4019,,,,,,564,MAS,AGR,150,menú,el,l,0.2606,,441.402,441.402,-0.022222236,-0.406481496,0,0,0,,0,194,194,113,1,,,,,
,,,,,,8c18ae3a88feee99317f25b9,66a626ef09d4e21e1a8894ec,67360fd2e525050b8ad924a1,2024-11-14_11h58.14.095,Tarea de género gramatical,2024.2.2,Win32,144.9275362,,,,,,,,,,,,,,,,,,,,,,,441.4028,442.2717,a,0,[],[],[],[],[],[],[],0.209,0,442.2722,442.7718,,,,,,651,FEM,AGR,150,leche,la,a,0.209,,442.7725,442.7732,-0.022222236,-0.406481496,0,0,0,,0,195,195,200,1,,,,,
,,,,,,8c18ae3a88feee99317f25b9,66a626ef09d4e21e1a8894ec,67360fd2e525050b8ad924a1,2024-11-14_11h58.14.095,Tarea de género gramatical,2024.2.2,Win32,144.9275362,,,,,,,,,,,,,,,,,,,,,,,442.7738,443.8411,a,1,[],[],[],[],[],[],[],0.4103,1,443.8415,444.341,,,,,,780,MAS,AGR,150,estado,el,l,0.4103,,444.341,444.3411,-0.022222236,-0.406481496,0,0,0,,0,196,196,329,1,,,,,
,,,,,,8c18ae3a88feee99317f25b9,66a626ef09d4e21e1a8894ec,67360fd2e525050b8ad924a1,2024-11-14_11h58.14.095,Tarea de género gramatical,2024.2.2,Win32,144.9275362,,,,,,,,,,,,,,,,,,,,,,,444.3418,445.5701,l,1,[],[],[],[],[],[],[],0.5697,1,445.5702,446.0703,,,,,,554,FEM,DIS,150,vela,el,a,0.5697,,446.0703,446.0704,-0.022222236,-0.406481496,0,0,0,,0,197,197,103,1,,,,,
,,,,,,8c18ae3a88feee99317f25b9,66a626ef09d4e21e1a8894ec,67360fd2e525050b8ad924a1,2024-11-14_11h58.14.095,Tarea de género gramatical,2024.2.2,Win32,144.9275362,,,,,,,,,,,,,,,,,,,,,,,446.0712,447.0842,l,0,[],[],[],[],[],[],[],0.3544,0,447.0847,447.5841,,,,,,526,MAS,CON,150,lujo,,l,0.3544,,447.5841,447.5842,-0.022222236,-0.406481496,0,0,0,,0,198,198,75,1,,,,,
,,,,,,8c18ae3a88feee99317f25b9,66a626ef09d4e21e1a8894ec,67360fd2e525050b8ad924a1,2024-11-14_11h58.14.095,Tarea de género gramatical,2024.2.2,Win32,144.9275362,,,,,,,,,,,,,,,,,,,,,,,447.5851,448.5077,a,1,[],[],[],[],[],[],[],0.2643,1,448.5081,449.0075,,,,,,490,MAS,CON,150,dios,,l,0.2643,,449.0076,449.0076,-0.022222236,-0.406481496,0,0,0,,0,199,199,39,1,,,,,
,,,,,,8c18ae3a88feee99317f25b9,66a626ef09d4e21e1a8894ec,67360fd2e525050b8ad924a1,2024-11-14_11h58.14.095,Tarea de género gramatical,2024.2.2,Win32,144.9275362,,,,,,,,,,,,,,,,,,,,,,,449.0087,450.223,l,1,[],[],[],[],[],[],[],0.5564,1,450.2231,450.7229,,,,,,632,FEM,DIS,150,prisa,el,a,0.5564,,450.7236,450.7244,-0.022222236,-0.406481496,0,0,0,,0,200,200,181,1,,,,,
,,,,,,8c18ae3a88feee99317f25b9,66a626ef09d4e21e1a8894ec,67360fd2e525050b8ad924a1,2024-11-14_11h58.14.095,Tarea de género gramatical,2024.2.2,Win32,144.9275362,,,,,,,,,,,,,,,,,,,,,,,450.7251,451.945,a,1,[],[],[],[],[],[],[],0.5629,1,451.9451,452.4451,,,,,,737,MAS,DIS,150,plato,la,l,0.5629,,452.4452,452.4452,-0.022222236,-0.406481496,0,0,0,,0,201,201,286,1,,,,,
,,,,,,8c18ae3a88feee99317f25b9,66a626ef09d4e21e1a8894ec,67360fd2e525050b8ad924a1,2024-11-14_11h58.14.095,Tarea de género gramatical,2024.2.2,Win32,144.9275362,,,,,,,,,,,,,,,,,,,,,,,452.446,453.4729,a,1,[],[],[],[],[],[],[],0.3692,1,453.473,453.9732,,,,,,504,MAS,AGR,150,humo,el,l,0.3692,,453.9732,453.9733,-0.022222236,-0.406481496,0,0,0,,0,202,202,53,1,,,,,
,,,,,,8c18ae3a88feee99317f25b9,66a626ef09d4e21e1a8894ec,67360fd2e525050b8ad924a1,2024-11-14_11h58.14.095,Tarea de género gramatical,2024.2.2,Win32,144.9275362,,,,,,,,,,,,,,,,,,,,,,,453.9742,455.1186,l,1,[],[],[],[],[],[],[],0.4858,1,455.1187,455.6187,,,,,,867,FEM,AGR,150,cabaña,la,a,0.4858,,455.6189,455.6189,-0.022222236,-0.406481496,0,0,0,,0,203,203,416,1,,,,,
,,,,,,8c18ae3a88feee99317f25b9,66a626ef09d4e21e1a8894ec,67360fd2e525050b8ad924a1,2024-11-14_11h58.14.095,Tarea de género gramatical,2024.2.2,Win32,144.9275362,,,,,,,,,,,,,,,,,,,,,,,455.6198,456.8478,a,1,[],[],[],[],[],[],[],0.5699,1,456.8478,457.3477,,,,,,544,MAS,CON,150,cabo,,l,0.5699,,457.3486,457.3492,-0.022222236,-0.406481496,0,0,0,,0,204,204,93,1,,,,,
,,,,,,8c18ae3a88feee99317f25b9,66a626ef09d4e21e1a8894ec,67360fd2e525050b8ad924a1,2024-11-14_11h58.14.095,Tarea de género gramatical,2024.2.2,Win32,144.9275362,,,,,,,,,,,,,,,,,,,,,,,457.3499,458.5986,l,1,[],[],[],[],[],[],[],0.592,1,458.5986,459.0977,,,,,,854,FEM,DIS,150,gloria,el,a,0.592,,459.0978,459.0978,-0.022222236,-0.406481496,0,0,0,,0,205,205,403,1,,,,,
,,,,,,8c18ae3a88feee99317f25b9,66a626ef09d4e21e1a8894ec,67360fd2e525050b8ad924a1,2024-11-14_11h58.14.095,Tarea de género gramatical,2024.2.2,Win32,144.9275362,,,,,,,,,,,,,,,,,,,,,,,459.0988,460.4939,a,1,[],[],[],[],[],[],[],0.7373,1,460.4939,460.9936,,,,,,502,MAS,CON,150,lago,,l,0.7373,,460.9936,460.9936,-0.022222236,-0.406481496,0,0,0,,0,206,206,51,1,,,,,
,,,,,,8c18ae3a88feee99317f25b9,66a626ef09d4e21e1a8894ec,67360fd2e525050b8ad924a1,2024-11-14_11h58.14.095,Tarea de género gramatical,2024.2.2,Win32,144.9275362,,,,,,,,,,,,,,,,,,,,,,,460.9945,462.2921,l,0,[],[],[],[],[],[],[],0.6391,0,462.2926,462.7921,,,,,,809,MAS,DIS,150,bosque,la,l,0.6391,,462.7922,462.7923,-0.022222236,-0.406481496,0,0,0,,0,207,207,358,1,,,,,
,,,,,,8c18ae3a88feee99317f25b9,66a626ef09d4e21e1a8894ec,67360fd2e525050b8ad924a1,2024-11-14_11h58.14.095,Tarea de género gramatical,2024.2.2,Win32,144.9275362,,,,,,,,,,,,,,,,,,,,,,,462.7933,463.8407,a,0,[],[],[],[],[],[],[],0.3896,0,463.8408,464.3407,,,,,,723,FEM,AGR,150,tarta,la,a,0.3896,,464.3408,464.3408,-0.022222236,-0.406481496,0,0,0,,0,208,208,272,1,,,,,
,,,,,,8c18ae3a88feee99317f25b9,66a626ef09d4e21e1a8894ec,67360fd2e525050b8ad924a1,2024-11-14_11h58.14.095,Tarea de género gramatical,2024.2.2,Win32,144.9275362,,,,,,,,,,,,,,,,,,,,,,,464.3416,465.6114,l,1,[],[],[],[],[],[],[],0.6117,1,465.612,466.1114,,,,,,781,FEM,CON,150,cárcel,,a,0.6117,,466.1123,466.1129,-0.022222236,-0.406481496,0,0,0,,0,209,209,330,1,,,,,
,,,,,,8c18ae3a88feee99317f25b9,66a626ef09d4e21e1a8894ec,67360fd2e525050b8ad924a1,2024-11-14_11h58.14.095,Tarea de género gramatical,2024.2.2,Win32,144.9275362,,,,,,,,,,,,,,,,,,,,,,,466.1135,467.1808,l,1,[],[],[],[],[],[],[],0.4106,1,467.1809,467.6807,,,,,,884,FEM,DIS,150,corona,el,a,0.4106,,467.6808,467.6808,-0.022222236,-0.406481496,0,0,0,,0,210,210,433,1,,,,,
,,,,,,8c18ae3a88feee99317f25b9,66a626ef09d4e21e1a8894ec,67360fd2e525050b8ad924a1,2024-11-14_11h58.14.095,Tarea de género gramatical,2024.2.2,Win32,144.9275362,,,,,,,,,,,,,,,,,,,,,,,467.6816,469.1947,a,0,[],[],[],[],[],[],[],0.8546,0,469.1953,469.6947,,,,,,685,FEM,CON,150,torre,,a,0.8546,,469.6947,469.6947,-0.022222236,-0.406481496,0,0,0,,0,211,211,234,1,,,,,
,,,,,,8c18ae3a88feee99317f25b9,66a626ef09d4e21e1a8894ec,67360fd2e525050b8ad924a1,2024-11-14_11h58.14.095,Tarea de género gramatical,2024.2.2,Win32,144.9275362,,,,,,,,,,,,,,,,,,,,,,,469.6956,470.6807,l,0,[],[],[],[],[],[],[],0.3265,0,470.6808,471.1807,,,,,,460,MAS,CON,150,niño,,l,0.3265,,471.1808,471.1808,-0.022222236,-0.406481496,0,0,0,,0,212,212,9,1,,,,,
,,,,,,8c18ae3a88feee99317f25b9,66a626ef09d4e21e1a8894ec,67360fd2e525050b8ad924a1,2024-11-14_11h58.14.095,Tarea de género gramatical,2024.2.2,Win32,144.9275362,,,,,,,,,,,,,,,,,,,,,,,471.1816,472.2293,a,1,[],[],[],[],[],[],[],0.3895,1,472.2299,472.7293,,,,,,576,MAS,AGR,150,lazo,el,l,0.3895,,472.73,472.7305,-0.022222236,-0.406481496,0,0,0,,0,213,213,125,1,,,,,
,,,,,,8c18ae3a88feee99317f25b9,66a626ef09d4e21e1a8894ec,67360fd2e525050b8ad924a1,2024-11-14_11h58.14.095,Tarea de género gramatical,2024.2.2,Win32,144.9275362,,,,,,,,,,,,,,,,,,,,,,,472.7311,473.7432,a,1,[],[],[],[],[],[],[],0.3551,1,473.7433,474.2434,,,,,,790,MAS,CON,150,pasado,,l,0.3551,,474.2435,474.2435,-0.022222236,-0.406481496,0,0,0,,0,214,214,339,1,,,,,
,,,,,,8c18ae3a88feee99317f25b9,66a626ef09d4e21e1a8894ec,67360fd2e525050b8ad924a1,2024-11-14_11h58.14.095,Tarea de género gramatical,2024.2.2,Win32,144.9275362,,,,,,,,,,,,,,,,,,,,,,,474.2443,475.1946,a,1,[],[],[],[],[],[],[],0.2922,1,475.1947,475.6946,,,,,,792,MAS,AGR,150,abuelo,el,l,0.2922,,475.6946,475.6948,-0.022222236,-0.406481496,0,0,0,,0,215,215,341,1,,,,,
,,,,,,8c18ae3a88feee99317f25b9,66a626ef09d4e21e1a8894ec,67360fd2e525050b8ad924a1,2024-11-14_11h58.14.095,Tarea de género gramatical,2024.2.2,Win32,144.9275362,,,,,,,,,,,,,,,,,,,,,,,475.6956,476.6598,a,1,[],[],[],[],[],[],[],0.3062,1,476.6599,477.1598,,,,,,456,MAS,AGR,150,lado,el,l,0.3062,,477.1599,477.1599,-0.022222236,-0.406481496,0,0,0,,0,216,216,5,1,,,,,
,,,,,,8c18ae3a88feee99317f25b9,66a626ef09d4e21e1a8894ec,67360fd2e525050b8ad924a1,2024-11-14_11h58.14.095,Tarea de género gramatical,2024.2.2,Win32,144.9275362,,,,,,,,,,,,,,,,,,,,,,,477.1611,478.3749,l,0,[],[],[],[],[],[],[],0.5559,0,478.3755,478.875,,,,,,521,MAS,DIS,150,pozo,la,l,0.5559,,478.875,478.875,-0.022222236,-0.406481496,0,0,0,,0,217,217,70,1,,,,,
,,,,,,8c18ae3a88feee99317f25b9,66a626ef09d4e21e1a8894ec,67360fd2e525050b8ad924a1,2024-11-14_11h58.14.095,Tarea de género gramatical,2024.2.2,Win32,144.9275362,,,,,,,,,,,,,,,,,,,,,,,478.8759,479.764,a,1,[],[],[],[],[],[],[],0.2293,1,479.7645,480.264,,,,,,514,MAS,CON,150,saco,,l,0.2293,,480.2649,480.2654,-0.022222236,-0.406481496,0,0,0,,0,218,218,63,1,,,,,
,,,,,,8c18ae3a88feee99317f25b9,66a626ef09d4e21e1a8894ec,67360fd2e525050b8ad924a1,2024-11-14_11h58.14.095,Tarea de género gramatical,2024.2.2,Win32,144.9275362,,,,,,,,,,,,,,,,,,,,,,,480.2662,481.3125,a,1,[],[],[],[],[],[],[],0.3891,1,481.3126,481.8126,,,,,,606,MAS,AGR,150,amigo,el,l,0.3891,,481.8126,481.8126,-0.022222236,-0.406481496,0,0,0,,0,219,219,155,1,,,,,
,,,,,,8c18ae3a88feee99317f25b9,66a626ef09d4e21e1a8894ec,67360fd2e525050b8ad924a1,2024-11-14_11h58.14.095,Tarea de género gramatical,2024.2.2,Win32,144.9275362,,,,,,,,,,,,,,,,,,,,,,,481.8136,482.9166,l,0,[],[],[],[],[],[],[],0.4448,0,482.9171,483.4166,,,,,,635,MAS,DIS,150,sueño,la,l,0.4448,,483.4166,483.4167,-0.022222236,-0.406481496,0,0,0,,0,220,220,184,1,,,,,
,,,,,,8c18ae3a88feee99317f25b9,66a626ef09d4e21e1a8894ec,67360fd2e525050b8ad924a1,2024-11-14_11h58.14.095,Tarea de género gramatical,2024.2.2,Win32,144.9275362,,,,,,,,,,,,,,,,,,,,,,,483.4177,484.5068,l,1,[],[],[],[],[],[],[],0.4309,1,484.5073,485.0069,,,,,,889,FEM,CON,150,toalla,,a,0.4309,,485.0069,485.0069,-0.022222236,-0.406481496,0,0,0,,0,221,221,438,1,,,,,
,,,,,,8c18ae3a88feee99317f25b9,66a626ef09d4e21e1a8894ec,67360fd2e525050b8ad924a1,2024-11-14_11h58.14.095,Tarea de género gramatical,2024.2.2,Win32,144.9275362,,,,,,,,,,,,,,,,,,,,,,,485.0081,486.2845,l,1,[],[],[],[],[],[],[],0.6191,1,486.2847,486.7846,,,,,,741,FEM,AGR,150,aguja,la,a,0.6191,,486.7854,486.7861,-0.022222236,-0.406481496,0,0,0,,0,222,222,290,1,,,,,
,,,,,,8c18ae3a88feee99317f25b9,66a626ef09d4e21e1a8894ec,67360fd2e525050b8ad924a1,2024-11-14_11h58.14.095,Tarea de género gramatical,2024.2.2,Win32,144.9275362,,,,,,,,,,,,,,,,,,,,,,,486.7867,488.2429,a,0,[],[],[],[],[],[],[],0.799,0,488.244,488.7429,,,,,,722,FEM,DIS,150,oreja,el,a,0.799,,488.743,488.743,-0.022222236,-0.406481496,0,0,0,,0,223,223,271,1,,,,,
,,,,,,8c18ae3a88feee99317f25b9,66a626ef09d4e21e1a8894ec,67360fd2e525050b8ad924a1,2024-11-14_11h58.14.095,Tarea de género gramatical,2024.2.2,Win32,144.9275362,,,,,,,,,,,,,,,,,,,,,,,488.7439,489.7637,l,0,[],[],[],[],[],[],[],0.3618,0,489.7638,490.2636,,,,,,533,MAS,DIS,150,nene,la,l,0.3618,,490.2637,490.2637,-0.022222236,-0.406481496,0,0,0,,0,224,224,82,1,,,,,
,,,,,,8c18ae3a88feee99317f25b9,66a626ef09d4e21e1a8894ec,67360fd2e525050b8ad924a1,2024-11-14_11h58.14.095,Tarea de género gramatical,2024.2.2,Win32,144.9275362,,,,,,,,,,,,,,,,,,,,,,,490.2647,491.3887,l,1,[],[],[],[],[],[],[],0.4657,1,491.3892,491.8887,,,,,,835,FEM,CON,150,muñeca,,a,0.4657,,491.8887,491.8887,-0.022222236,-0.406481496,0,0,0,,0,225,225,384,1,,,,,
,,,,,,8c18ae3a88feee99317f25b9,66a626ef09d4e21e1a8894ec,67360fd2e525050b8ad924a1,2024-11-14_11h58.14.095,Tarea de género gramatical,2024.2.2,Win32,144.9275362,,,,,,,,,,,,,,,,,,,,,,,491.8894,493.1109,l,1,[],[],[],[],[],[],[],0.5634,1,493.111,493.6108,,,,,,585,FEM,AGR,150,raíz,la,a,0.5634,,493.6109,493.6109,-0.022222236,-0.406481496,0,0,0,,0,226,226,134,1,,,,,
,,,,,,8c18ae3a88feee99317f25b9,66a626ef09d4e21e1a8894ec,67360fd2e525050b8ad924a1,2024-11-14_11h58.14.095,Tarea de género gramatical,2024.2.2,Win32,144.9275362,,,,,,,,,,,,,,,,,,,,,,,493.6117,494.8469,l,1,[],[],[],[],[],[],[],0.5769,1,494.847,495.3469,,,,,,566,FEM,DIS,150,nube,el,a,0.5769,,495.3478,495.3485,-0.022222236,-0.406481496,0,0,0,,0,227,227,115,1,,,,,
,,,,,,8c18ae3a88feee99317f25b9,66a626ef09d4e21e1a8894ec,67360fd2e525050b8ad924a1,2024-11-14_11h58.14.095,Tarea de género gramatical,2024.2.2,Win32,144.9275362,,,,,,,,,,,,,,,,,,,,,,,495.3493,496.6245,l,1,[],[],[],[],[],[],[],0.6188,1,496.6247,497.1246,,,,,,561,FEM,AGR,150,goma,la,a,0.6188,,497.1247,497.1247,-0.022222236,-0.406481496,0,0,0,,0,228,228,110,1,,,,,
,,,,,,8c18ae3a88feee99317f25b9,66a626ef09d4e21e1a8894ec,67360fd2e525050b8ad924a1,2024-11-14_11h58.14.095,Tarea de género gramatical,2024.2.2,Win32,144.9275362,,,,,,,,,,,,,,,,,,,,,,,497.1256,498.0483,l,1,[],[],[],[],[],[],[],0.2646,1,498.0483,498.5483,,,,,,711,FEM,AGR,150,cueva,la,a,0.2646,,498.5483,498.5484,-0.022222236,-0.406481496,0,0,0,,0,229,229,260,1,,,,,
,,,,,,8c18ae3a88feee99317f25b9,66a626ef09d4e21e1a8894ec,67360fd2e525050b8ad924a1,2024-11-14_11h58.14.095,Tarea de género gramatical,2024.2.2,Win32,144.9275362,,,,,,,,,,,,,,,,,,,,,,,498.5495,499.4511,l,1,[],[],[],[],[],[],[],0.2434,1,499.4512,499.951,,,,,,615,FEM,AGR,150,amiga,la,a,0.2434,,499.951,499.951,-0.022222236,-0.406481496,0,0,0,,0,230,230,164,1,,,,,
,,,,,,8c18ae3a88feee99317f25b9,66a626ef09d4e21e1a8894ec,67360fd2e525050b8ad924a1,2024-11-14_11h58.14.095,Tarea de género gramatical,2024.2.2,Win32,144.9275362,,,,,,,,,,,,,,,,,,,,,,,499.9519,500.9232,l,0,[],[],[],[],[],[],[],0.3129,0,500.9237,501.4232,,,,,,659,MAS,DIS,150,banco,la,l,0.3129,,501.424,501.4245,-0.022222236,-0.406481496,0,0,0,,0,231,231,208,1,,,,,
,,,,,,8c18ae3a88feee99317f25b9,66a626ef09d4e21e1a8894ec,67360fd2e525050b8ad924a1,2024-11-14_11h58.14.095,Tarea de género gramatical,2024.2.2,Win32,144.9275362,,,,,,,,,,,,,,,,,,,,,,,501.4251,502.6522,l,1,[],[],[],[],[],[],[],0.5699,1,502.6528,503.1523,,,,,,733,FEM,CON,150,pluma,,a,0.5699,,503.1523,503.1524,-0.022222236,-0.406481496,0,0,0,,0,232,232,282,1,,,,,
,,,,,,8c18ae3a88feee99317f25b9,66a626ef09d4e21e1a8894ec,67360fd2e525050b8ad924a1,2024-11-14_11h58.14.095,Tarea de género gramatical,2024.2.2,Win32,144.9275362,,,,,,,,,,,,,,,,,,,,,,,503.1532,504.3334,l,1,[],[],[],[],[],[],[],0.5217,1,504.3335,504.8327,,,,,,512,FEM,DIS,150,sopa,el,a,0.5217,,504.8328,504.8328,-0.022222236,-0.406481496,0,0,0,,0,233,233,61,1,,,,,
,,,,,,8c18ae3a88feee99317f25b9,66a626ef09d4e21e1a8894ec,67360fd2e525050b8ad924a1,2024-11-14_11h58.14.095,Tarea de género gramatical,2024.2.2,Win32,144.9275362,,,,,,,,,,,,,,,,,,,,,,,504.8335,506.2286,l,1,[],[],[],[],[],[],[],0.7364,1,506.2286,506.7286,,,,,,518,FEM,DIS,150,pata,el,a,0.7364,,506.7286,506.7287,-0.022222236,-0.406481496,0,0,0,,0,234,234,67,1,,,,,
,,,,,,8c18ae3a88feee99317f25b9,66a626ef09d4e21e1a8894ec,67360fd2e525050b8ad924a1,2024-11-14_11h58.14.095,Tarea de género gramatical,2024.2.2,Win32,144.9275362,,,,,,,,,,,,,,,,,,,,,,,506.7297,507.8744,a,1,[],[],[],[],[],[],[],0.4867,1,507.8744,508.3745,,,,,,886,MAS,CON,150,objeto,,l,0.4867,,508.3745,508.3746,-0.022222236,-0.406481496,0,0,0,,0,235,235,435,1,,,,,
,,,,,,8c18ae3a88feee99317f25b9,66a626ef09d4e21e1a8894ec,67360fd2e525050b8ad924a1,2024-11-14_11h58.14.095,Tarea de género gramatical,2024.2.2,Win32,144.9275362,,,,,,,,,,,,,,,,,,,,,,,508.3757,509.6313,l,1,[],[],[],[],[],[],[],0.5975,1,509.6314,510.1314,,,,,,717,FEM,AGR,150,barba,la,a,0.5975,,510.1321,510.1327,-0.022222236,-0.406481496,0,0,0,,0,236,236,266,1,,,,,
,,,,,,8c18ae3a88feee99317f25b9,66a626ef09d4e21e1a8894ec,67360fd2e525050b8ad924a1,2024-11-14_11h58.14.095,Tarea de género gramatical,2024.2.2,Win32,144.9275362,,,,,,,,,,,,,,,,,,,,,,,510.1335,511.1729,l,1,[],[],[],[],[],[],[],0.3828,1,511.1731,511.6728,,,,,,777,FEM,AGR,150,tienda,la,a,0.3828,,511.6729,511.673,-0.022222236,-0.406481496,0,0,0,,0,237,237,326,1,,,,,
,,,,,,8c18ae3a88feee99317f25b9,66a626ef09d4e21e1a8894ec,67360fd2e525050b8ad924a1,2024-11-14_11h58.14.095,Tarea de género gramatical,2024.2.2,Win32,144.9275362,,,,,,,,,,,,,,,,,,,,,,,511.6738,512.8119,a,1,[],[],[],[],[],[],[],0.4799,1,512.8119,513.3117,,,,,,497,MAS,DIS,150,olor,la,l,0.4799,,513.3117,513.3118,-0.022222236,-0.406481496,0,0,0,,0,238,238,46,1,,,,,
,,,,,,8c18ae3a88feee99317f25b9,66a626ef09d4e21e1a8894ec,67360fd2e525050b8ad924a1,2024-11-14_11h58.14.095,Tarea de género gramatical,2024.2.2,Win32,144.9275362,,,,,,,,,,,,,,,,,,,,,,,513.3127,514.6243,a,1,[],[],[],[],[],[],[],0.6534,1,514.6244,515.1241,,,,,,556,MAS,CON,150,test,,l,0.6534,,515.1242,515.1242,-0.022222236,-0.406481496,0,0,0,,0,239,239,105,1,,,,,
,,,,,,8c18ae3a88feee99317f25b9,66a626ef09d4e21e1a8894ec,67360fd2e525050b8ad924a1,2024-11-14_11h58.14.095,Tarea de género gramatical,2024.2.2,Win32,144.9275362,,,,,,,,,,,,,,,,,,,,,,,515.1248,516.2977,l,1,[],[],[],[],[],[],[],0.5142,1,516.2978,516.7979,,,,,,849,FEM,AGR,150,charla,la,a,0.5142,,516.799,516.7999,-0.022222236,-0.406481496,0,0,0,,0,240,240,398,1,,,,,
,,,,,,8c18ae3a88feee99317f25b9,66a626ef09d4e21e1a8894ec,67360fd2e525050b8ad924a1,2024-11-14_11h58.14.095,Tarea de género gramatical,2024.2.2,Win32,144.9275362,,,,,,,,,,,,,,,,,,,,,,,516.8006,517.9228,a,1,[],[],[],[],[],[],[],0.4653,1,517.9228,518.4227,,,,,,810,MAS,AGR,150,puente,el,l,0.4653,,518.4228,518.4228,-0.022222236,-0.406481496,0,0,0,,0,241,241,359,1,,,,,
,,,,,,8c18ae3a88feee99317f25b9,66a626ef09d4e21e1a8894ec,67360fd2e525050b8ad924a1,2024-11-14_11h58.14.095,Tarea de género gramatical,2024.2.2,Win32,144.9275362,,,,,,,,,,,,,,,,,,,,,,,518.4237,519.645,l,1,[],[],[],[],[],[],[],0.5628,1,519.645,520.145,,,,,,475,FEM,CON,150,nave,,a,0.5628,,520.145,520.1451,-0.022222236,-0.406481496,0,0,0,,0,242,242,24,1,,,,,
,,,,,,8c18ae3a88feee99317f25b9,66a626ef09d4e21e1a8894ec,67360fd2e525050b8ad924a1,2024-11-14_11h58.14.095,Tarea de género gramatical,2024.2.2,Win32,144.9275362,,,,,,,,,,,,,,,,,,,,,,,520.146,521.3397,a,1,[],[],[],[],[],[],[],0.536,1,521.3397,521.8393,,,,,,845,MAS,DIS,150,correo,la,l,0.536,,521.8394,521.8394,-0.022222236,-0.406481496,0,0,0,,0,243,243,394,1,,,,,
,,,,,,8c18ae3a88feee99317f25b9,66a626ef09d4e21e1a8894ec,67360fd2e525050b8ad924a1,2024-11-14_11h58.14.095,Tarea de género gramatical,2024.2.2,Win32,144.9275362,,,,,,,,,,,,,,,,,,,,,,,521.8402,523.1448,a,1,[],[],[],[],[],[],[],0.6456,1,523.1449,523.6448,,,,,,557,MAS,DIS,150,cubo,la,l,0.6456,,523.6449,523.645,-0.022222236,-0.406481496,0,0,0,,0,244,244,106,1,,,,,
,,,,,,8c18ae3a88feee99317f25b9,66a626ef09d4e21e1a8894ec,67360fd2e525050b8ad924a1,2024-11-14_11h58.14.095,Tarea de género gramatical,2024.2.2,Win32,144.9275362,,,,,,,,,,,,,,,,,,,,,,,523.646,524.867,a,1,[],[],[],[],[],[],[],0.5625,1,524.867,525.367,,,,,,592,MAS,CON,150,lodo,,l,0.5625,,525.3679,525.3685,-0.022222236,-0.406481496,0,0,0,,0,245,245,141,1,,,,,
,,,,,,8c18ae3a88feee99317f25b9,66a626ef09d4e21e1a8894ec,67360fd2e525050b8ad924a1,2024-11-14_11h58.14.095,Tarea de género gramatical,2024.2.2,Win32,144.9275362,,,,,,,,,,,,,,,,,,,,,,,525.3691,526.3323,a,1,[],[],[],[],[],[],[],0.3061,1,526.3323,526.8324,,,,,,516,MAS,AGR,150,muro,el,l,0.3061,,526.8324,526.8325,-0.022222236,-0.406481496,0,0,0,,0,246,246,65,1,,,,,
,,,,,,8c18ae3a88feee99317f25b9,66a626ef09d4e21e1a8894ec,67360fd2e525050b8ad924a1,2024-11-14_11h58.14.095,Tarea de género gramatical,2024.2.2,Win32,144.9275362,,,,,,,,,,,,,,,,,,,,,,,526.8334,527.9018,l,1,[],[],[],[],[],[],[],0.4108,1,527.9019,528.4018,,,,,,535,FEM,CON,150,gira,,a,0.4108,,528.4018,528.4018,-0.022222236,-0.406481496,0,0,0,,0,247,247,84,1,,,,,
,,,,,,8c18ae3a88feee99317f25b9,66a626ef09d4e21e1a8894ec,67360fd2e525050b8ad924a1,2024-11-14_11h58.14.095,Tarea de género gramatical,2024.2.2,Win32,144.9275362,,,,,,,,,,,,,,,,,,,,,,,528.4027,529.464,a,0,[],[],[],[],[],[],[],0.4036,0,529.4646,529.9643,,,,,,638,FEM,DIS,150,bomba,el,a,0.4036,,529.9643,529.9643,-0.022222236,-0.406481496,0,0,0,,0,248,248,187,1,,,,,
,,,,,,8c18ae3a88feee99317f25b9,66a626ef09d4e21e1a8894ec,67360fd2e525050b8ad924a1,2024-11-14_11h58.14.095,Tarea de género gramatical,2024.2.2,Win32,144.9275362,,,,,,,,,,,,,,,,,,,,,,,529.9652,530.9572,l,1,[],[],[],[],[],[],[],0.3338,1,530.9579,531.4575,,,,,,543,FEM,AGR,150,lata,la,a,0.3338,,531.4583,531.459,-0.022222236,-0.406481496,0,0,0,,0,249,249,92,1,,,,,
,,,,,,8c18ae3a88feee99317f25b9,66a626ef09d4e21e1a8894ec,67360fd2e525050b8ad924a1,2024-11-14_11h58.14.095,Tarea de género gramatical,2024.2.2,Win32,144.9275362,,,,,,,,,,,,,,,,,,,,,,,531.4601,532.4859,l,1,[],[],[],[],[],[],[],0.3693,1,532.486,532.9849,,,,,,530,FEM,DIS,150,vaca,el,a,0.3693,,532.985,532.985,-0.022222236,-0.406481496,0,0,0,,0,250,250,79,1,,,,,
