counterbalancing_condition,consent_prescreening.block_1/declare_consent,consent_prescreening.block_1/age_years,consent_prescreening.block_1/gender,consent_prescreening.block_1/language_disorder,consent_prescreening.block_1/first_language,consent_prescreening.block_1/first_language-Comment,PROLIFIC_PID,STUDY_ID,SESSION_ID,date,expName,psychopyVersion,OS,frameRate,check_prescreening_answers.started,check_prescreening_answers.stopped,Instructions.started,Instructions.stopped,instr_done_keyboard.keys,instr_done_touch.x,instr_done_touch.y,instr_done_touch.leftButton,instr_done_touch.midButton,instr_done_touch.rightButton,instr_done_touch.clicked_name,instruction_pages.thisRepN,instruction_pages.thisTrialN,instruction_pages.thisN,instruction_pages.thisIndex,instruction_pages.ran,pageN,phase,instruct_text,has_image,instruct_image,instr_done_keyboard.rt,instr_done_keyboard.duration,presentTrial.started,presentTrial.stopped,response.keys,response.corr,touch_resp.x,touch_resp.y,touch_resp.leftButton,touch_resp.midButton,touch_resp.rightButton,touch_resp.time,touch_resp.clicked_name,rt,corr,feedback.started,feedback.stopped,practice_trials.thisRepN,practice_trials.thisTrialN,practice_trials.thisN,practice_trials.thisIndex,practice_trials.ran,TrialID,StimulusType,Condition,PrimeDuration,Prime,Flanker,corrAns,response.rt,response.duration,Break.started,Break.stopped,break_done_touch.x,break_done_touch.y,break_done_touch.leftButton,break_done_touch.midButton,break_done_touch.rightButton,break_done_keyboard.keys,experiment_trials.thisRepN,experiment_trials.thisTrialN,experiment_trials.thisN,experiment_trials.thisIndex,experiment_trials.ran,break_done_keyboard.rt,break_done_keyboard.duration,End.started,End.stopped
0,"[""comfortable"",""over_18"",""read_info"",""consent_given""]",37,M,"[""none""]","[""spanish"",""other""]",Gallego,8c98e1004b82ed9ca8aadbd2,66a626ef09d4e21e1a8894ec,67373fb4e0b03d789ef17b54,2024-11-15_13h34.02.153,Tarea de género gramatical,2024.2.2,Win32,59.52380952,,,,,,,,,,,,,,,,,,,,,,,,,,,,,,,,,,,,,,,,,,,,,,,,,,,,,,,,,,,,,,,,,,,,,
,,,,,,,8c98e1004b82ed9ca8aadbd2,66a626ef09d4e21e1a8894ec,67373fb4e0b03d789ef17b54,2024-11-15_13h34.02.153,Tarea de género gramatical,2024.2.2,Win32,59.52380952,22.0588,22.0591,,,,,,,,,,,,,,,,,,,,,,,,,,,,,,,,,,,,,,,,,,,,,,,,,,,,,,,,,,,,,,,,,,,
,,,,,,,8c98e1004b82ed9ca8aadbd2,66a626ef09d4e21e1a8894ec,67373fb4e0b03d789ef17b54,2024-11-15_13h34.02.153,Tarea de género gramatical,2024.2.2,Win32,59.52380952,,,22.0979,31.9741,,-0.006481481,-0.39537037,1,0,0,instr_done_button,0,0,0,0,1,1,instructions,"INSTRUCCIONES
Va a realizar una prueba de selección gramatical. Desde el comienzo de la prueba mire siempre al centro de la pantalla. Al cabo de un momento, aparecerán palabras. La tarea consiste en determinar si la palabra del centro (siempre será un sustantivo), pertenece al género masculino o femenino.

Pulse la tecla ESPACIO o toque el botón de abajo para continuar.",0,keyboardresponseFM.png,,,,,,,,,,,,,,,,,,,,,,,,,,,,,,,,,,,,,,,,,,,,,,,,
,,,,,,,8c98e1004b82ed9ca8aadbd2,66a626ef09d4e21e1a8894ec,67373fb4e0b03d789ef17b54,2024-11-15_13h34.02.153,Tarea de género gramatical,2024.2.2,Win32,59.52380952,,,31.9761,89.0093,,-0.025925926,-0.418518519,1,0,0,,0,1,1,1,1,2,instructions,"Si su dispositivo tiene teclado, pulse la tecla ""A"" para las palabras en femenino (por ejemplo: ""mano"") y la tecla ""L"" para las palabras en masculino(por ejemplo: ""arroz"").
Pulse la tecla ESPACIO o toque el botón de abajo para continuar.",1,keyboardresponseFM.png,,,,,,,,,,,,,,,,,,,,,,,,,,,,,,,,,,,,,,,,,,,,,,,,
,,,,,,,8c98e1004b82ed9ca8aadbd2,66a626ef09d4e21e1a8894ec,67373fb4e0b03d789ef17b54,2024-11-15_13h34.02.153,Tarea de género gramatical,2024.2.2,Win32,59.52380952,,,89.0117,92.6597,space,-0.025925926,-0.418518519,0,0,0,,0,2,2,2,1,3,instructions,"Si utiliza un dispositivo sólo táctil, colóquelo en horizontal y utilice los botones de la pantalla. No utilice el ratón.
Pulse la tecla ESPACIO o toque el botón de abajo para continuar.",2,touchresponseFM.png,3.5968,,,,,,,,,,,,,,,,,,,,,,,,,,,,,,,,,,,,,,,,,,,,,,,
,,,,,,,8c98e1004b82ed9ca8aadbd2,66a626ef09d4e21e1a8894ec,67373fb4e0b03d789ef17b54,2024-11-15_13h34.02.153,Tarea de género gramatical,2024.2.2,Win32,59.52380952,,,92.6626,96.226,space,-0.025925926,-0.418518519,0,0,0,,0,3,3,3,1,4,instructions,"Es muy importante que responda con la mayor rapidez y precisión posibles, ya que cada cadena de letras sólo estará en pantalla durante un instante. Si no responde en ese tiempo, aparecerá el mensaje ""Muy lento"" y el experimento pasará a la siguiente palabra. Los primeros 15 intentos serán de práctica y habrá dos descansos durante la prueba.
Pulse la tecla ESPACIO o toque el botón de abajo para iniciar la parte de práctica.",0,keyboardresponseFM.png,3.546,,,,,,,,,,,,,,,,,,,,,,,,,,,,,,,,,,,,,,,,,,,,,,,
,,,,,,,8c98e1004b82ed9ca8aadbd2,66a626ef09d4e21e1a8894ec,67373fb4e0b03d789ef17b54,2024-11-15_13h34.02.153,Tarea de género gramatical,2024.2.2,Win32,59.52380952,,,,,,,,,,,,,,,,,,,,,,,,96.2404,98.893,,0,[],[],[],[],[],[],[],,-1,98.8933,99.3928,0,0,0,0,1,2001,FEM,AGR,150,nuca,la,a,,,,,,,,,,,,,,,,,,,
,,,,,,,8c98e1004b82ed9ca8aadbd2,66a626ef09d4e21e1a8894ec,67373fb4e0b03d789ef17b54,2024-11-15_13h34.02.153,Tarea de género gramatical,2024.2.2,Win32,59.52380952,,,,,,,,,,,,,,,,,,,,,,,,99.395,101.3763,l,1,[],[],[],[],[],[],[],1.3062,1,101.4001,101.876,0,1,1,8,1,2009,MAS,DIS,150,puerto,la,l,1.3062,,,,,,,,,,,,,,,,,,
,,,,,,,8c98e1004b82ed9ca8aadbd2,66a626ef09d4e21e1a8894ec,67373fb4e0b03d789ef17b54,2024-11-15_13h34.02.153,Tarea de género gramatical,2024.2.2,Win32,59.52380952,,,,,,,,,,,,,,,,,,,,,,,,101.8776,103.2594,l,1,[],[],[],[],[],[],[],0.7022,1,103.2596,103.7597,0,2,2,13,1,2014,MAS,CON,150,siglo,,l,0.7022,,,,,,,,,,,,,,,,,,
,,,,,,,8c98e1004b82ed9ca8aadbd2,66a626ef09d4e21e1a8894ec,67373fb4e0b03d789ef17b54,2024-11-15_13h34.02.153,Tarea de género gramatical,2024.2.2,Win32,59.52380952,,,,,,,,,,,,,,,,,,,,,,,,103.7613,104.943,a,0,[],[],[],[],[],[],[],0.5005,0,104.9444,105.443,0,3,3,11,1,2012,MAS,DIS,150,clima,la,l,0.5005,,,,,,,,,,,,,,,,,,
,,,,,,,8c98e1004b82ed9ca8aadbd2,66a626ef09d4e21e1a8894ec,67373fb4e0b03d789ef17b54,2024-11-15_13h34.02.153,Tarea de género gramatical,2024.2.2,Win32,59.52380952,,,,,,,,,,,,,,,,,,,,,,,,105.4443,106.9763,l,1,[],[],[],[],[],[],[],0.8483,1,106.9774,107.4763,0,4,4,10,1,2011,MAS,CON,150,canal,,l,0.8483,,,,,,,,,,,,,,,,,,
,,,,,,,8c98e1004b82ed9ca8aadbd2,66a626ef09d4e21e1a8894ec,67373fb4e0b03d789ef17b54,2024-11-15_13h34.02.153,Tarea de género gramatical,2024.2.2,Win32,59.52380952,,,,,,,,,,,,,,,,,,,,,,,,107.4778,108.5928,l,1,[],[],[],[],[],[],[],0.434,1,108.5929,109.0927,0,5,5,9,1,2010,MAS,AGR,150,vecino,el,l,0.434,,,,,,,,,,,,,,,,,,
,,,,,,,8c98e1004b82ed9ca8aadbd2,66a626ef09d4e21e1a8894ec,67373fb4e0b03d789ef17b54,2024-11-15_13h34.02.153,Tarea de género gramatical,2024.2.2,Win32,59.52380952,,,,,,,,,,,,,,,,,,,,,,,,109.0941,110.5268,l,1,[],[],[],[],[],[],[],0.754,1,110.5269,111.0264,0,6,6,14,1,2015,MAS,DIS,150,robot,la,l,0.754,,,,,,,,,,,,,,,,,,
,,,,,,,8c98e1004b82ed9ca8aadbd2,66a626ef09d4e21e1a8894ec,67373fb4e0b03d789ef17b54,2024-11-15_13h34.02.153,Tarea de género gramatical,2024.2.2,Win32,59.52380952,,,,,,,,,,,,,,,,,,,,,,,,111.028,112.3095,a,1,[],[],[],[],[],[],[],0.601,1,112.3096,112.8099,0,7,7,5,1,2006,FEM,DIS,150,serie,el,a,0.601,,,,,,,,,,,,,,,,,,
,,,,,,,8c98e1004b82ed9ca8aadbd2,66a626ef09d4e21e1a8894ec,67373fb4e0b03d789ef17b54,2024-11-15_13h34.02.153,Tarea de género gramatical,2024.2.2,Win32,59.52380952,,,,,,,,,,,,,,,,,,,,,,,,112.8114,114.0264,a,1,[],[],[],[],[],[],[],0.534,1,114.0265,114.5266,0,8,8,7,1,2008,FEM,CON,150,siesta,,a,0.534,,,,,,,,,,,,,,,,,,
,,,,,,,8c98e1004b82ed9ca8aadbd2,66a626ef09d4e21e1a8894ec,67373fb4e0b03d789ef17b54,2024-11-15_13h34.02.153,Tarea de género gramatical,2024.2.2,Win32,59.52380952,,,,,,,,,,,,,,,,,,,,,,,,114.5282,115.7264,a,1,[],[],[],[],[],[],[],0.5176,1,115.7267,116.2266,0,9,9,4,1,2005,FEM,CON,150,placa,,a,0.5176,,,,,,,,,,,,,,,,,,
,,,,,,,8c98e1004b82ed9ca8aadbd2,66a626ef09d4e21e1a8894ec,67373fb4e0b03d789ef17b54,2024-11-15_13h34.02.153,Tarea de género gramatical,2024.2.2,Win32,59.52380952,,,,,,,,,,,,,,,,,,,,,,,,116.2281,117.7769,a,1,[],[],[],[],[],[],[],0.8738,1,117.777,118.2768,0,10,10,2,1,2003,FEM,DIS,150,daga,el,a,0.8738,,,,,,,,,,,,,,,,,,
,,,,,,,8c98e1004b82ed9ca8aadbd2,66a626ef09d4e21e1a8894ec,67373fb4e0b03d789ef17b54,2024-11-15_13h34.02.153,Tarea de género gramatical,2024.2.2,Win32,59.52380952,,,,,,,,,,,,,,,,,,,,,,,,118.2781,119.4269,a,1,[],[],[],[],[],[],[],0.4673,1,119.427,119.9269,0,11,11,3,1,2004,FEM,AGR,150,venta,la,a,0.4673,,,,,,,,,,,,,,,,,,
,,,,,,,8c98e1004b82ed9ca8aadbd2,66a626ef09d4e21e1a8894ec,67373fb4e0b03d789ef17b54,2024-11-15_13h34.02.153,Tarea de género gramatical,2024.2.2,Win32,59.52380952,,,,,,,,,,,,,,,,,,,,,,,,119.9283,121.0599,l,1,[],[],[],[],[],[],[],0.4497,1,121.06,121.5603,0,12,12,12,1,2013,MAS,AGR,150,acero,el,l,0.4497,,,,,,,,,,,,,,,,,,
,,,,,,,8c98e1004b82ed9ca8aadbd2,66a626ef09d4e21e1a8894ec,67373fb4e0b03d789ef17b54,2024-11-15_13h34.02.153,Tarea de género gramatical,2024.2.2,Win32,59.52380952,,,,,,,,,,,,,,,,,,,,,,,,121.562,122.727,a,1,[],[],[],[],[],[],[],0.484,1,122.7271,123.2271,0,13,13,6,1,2007,FEM,AGR,150,navaja,la,a,0.484,,,,,,,,,,,,,,,,,,
,,,,,,,8c98e1004b82ed9ca8aadbd2,66a626ef09d4e21e1a8894ec,67373fb4e0b03d789ef17b54,2024-11-15_13h34.02.153,Tarea de género gramatical,2024.2.2,Win32,59.52380952,,,,,,,,,,,,,,,,,,,,,,,,123.2283,124.5603,a,1,[],[],[],[],[],[],[],0.6505,1,124.5604,125.0605,0,14,14,1,1,2002,FEM,CON,150,pala,,a,0.6505,,,,,,,,,,,,,,,,,,
,,,,,,,8c98e1004b82ed9ca8aadbd2,66a626ef09d4e21e1a8894ec,67373fb4e0b03d789ef17b54,2024-11-15_13h34.02.153,Tarea de género gramatical,2024.2.2,Win32,59.52380952,,,127.6793,129.5603,space,-0.025925926,-0.418518519,0,0,0,,,,,,,,,,,,1.8655,,129.6002,130.9272,a,1,[],[],[],[],[],[],[],0.6504,1,130.9274,131.4269,,,,,,303,FEM,DIS,150,maldad,el,a,0.6504,,131.4272,131.4312,-0.025925926,-0.418518519,0,0,0,,0,0,0,302,1,,,,
,,,,,,,8c98e1004b82ed9ca8aadbd2,66a626ef09d4e21e1a8894ec,67373fb4e0b03d789ef17b54,2024-11-15_13h34.02.153,Tarea de género gramatical,2024.2.2,Win32,59.52380952,,,,,,,,,,,,,,,,,,,,,,,,131.4327,132.5106,l,1,[],[],[],[],[],[],[],0.4058,1,132.5109,133.0102,,,,,,395,MAS,CON,150,correo,,l,0.4058,,133.0104,133.0105,-0.025925926,-0.418518519,0,0,0,,0,1,1,394,1,,,,
,,,,,,,8c98e1004b82ed9ca8aadbd2,66a626ef09d4e21e1a8894ec,67373fb4e0b03d789ef17b54,2024-11-15_13h34.02.153,Tarea de género gramatical,2024.2.2,Win32,59.52380952,,,,,,,,,,,,,,,,,,,,,,,,133.0119,134.0613,a,1,[],[],[],[],[],[],[],0.3707,1,134.0614,134.5606,,,,,,427,FEM,AGR,150,agenda,la,a,0.3707,,134.5622,134.5628,-0.025925926,-0.418518519,0,0,0,,0,2,2,426,1,,,,
,,,,,,,8c98e1004b82ed9ca8aadbd2,66a626ef09d4e21e1a8894ec,67373fb4e0b03d789ef17b54,2024-11-15_13h34.02.153,Tarea de género gramatical,2024.2.2,Win32,59.52380952,,,,,,,,,,,,,,,,,,,,,,,,134.5636,135.9442,l,0,[],[],[],[],[],[],[],0.7005,0,135.9453,136.4438,,,,,,39,FEM,DIS,150,luna,el,a,0.7005,,136.4438,136.4439,-0.025925926,-0.418518519,0,0,0,,0,3,3,38,1,,,,
,,,,,,,8c98e1004b82ed9ca8aadbd2,66a626ef09d4e21e1a8894ec,67373fb4e0b03d789ef17b54,2024-11-15_13h34.02.153,Tarea de género gramatical,2024.2.2,Win32,59.52380952,,,,,,,,,,,,,,,,,,,,,,,,136.4451,138.0441,a,1,[],[],[],[],[],[],[],0.9175,1,138.0451,138.5442,,,,,,159,FEM,DIS,150,clase,el,a,0.9175,,138.5442,138.5446,-0.025925926,-0.418518519,0,0,0,,0,4,4,158,1,,,,
,,,,,,,8c98e1004b82ed9ca8aadbd2,66a626ef09d4e21e1a8894ec,67373fb4e0b03d789ef17b54,2024-11-15_13h34.02.153,Tarea de género gramatical,2024.2.2,Win32,59.52380952,,,,,,,,,,,,,,,,,,,,,,,,138.5458,139.911,l,1,[],[],[],[],[],[],[],0.6842,1,139.9111,140.4106,,,,,,114,MAS,DIS,150,menú,la,l,0.6842,,140.4107,140.4109,-0.025925926,-0.418518519,0,0,0,,0,5,5,113,1,,,,
,,,,,,,8c98e1004b82ed9ca8aadbd2,66a626ef09d4e21e1a8894ec,67373fb4e0b03d789ef17b54,2024-11-15_13h34.02.153,Tarea de género gramatical,2024.2.2,Win32,59.52380952,,,,,,,,,,,,,,,,,,,,,,,,140.4121,142.094,l,1,[],[],[],[],[],[],[],1.0016,1,142.0942,142.5943,,,,,,318,MAS,DIS,150,pueblo,la,l,1.0016,,142.5958,142.5963,-0.025925926,-0.418518519,0,0,0,,0,6,6,317,1,,,,
,,,,,,,8c98e1004b82ed9ca8aadbd2,66a626ef09d4e21e1a8894ec,67373fb4e0b03d789ef17b54,2024-11-15_13h34.02.153,Tarea de género gramatical,2024.2.2,Win32,59.52380952,,,,,,,,,,,,,,,,,,,,,,,,142.5972,143.8277,a,1,[],[],[],[],[],[],[],0.5506,1,143.8279,144.3277,,,,,,387,FEM,DIS,150,página,el,a,0.5506,,144.3278,144.3281,-0.025925926,-0.418518519,0,0,0,,0,7,7,386,1,,,,
,,,,,,,8c98e1004b82ed9ca8aadbd2,66a626ef09d4e21e1a8894ec,67373fb4e0b03d789ef17b54,2024-11-15_13h34.02.153,Tarea de género gramatical,2024.2.2,Win32,59.52380952,,,,,,,,,,,,,,,,,,,,,,,,144.3292,145.5276,l,1,[],[],[],[],[],[],[],0.5174,1,145.528,146.0277,,,,,,426,MAS,DIS,150,pánico,la,l,0.5174,,146.0281,146.0282,-0.025925926,-0.418518519,0,0,0,,0,8,8,425,1,,,,
,,,,,,,8c98e1004b82ed9ca8aadbd2,66a626ef09d4e21e1a8894ec,67373fb4e0b03d789ef17b54,2024-11-15_13h34.02.153,Tarea de género gramatical,2024.2.2,Win32,59.52380952,,,,,,,,,,,,,,,,,,,,,,,,146.0292,147.1109,a,1,[],[],[],[],[],[],[],0.4035,1,147.111,147.6117,,,,,,25,FEM,AGR,150,nave,la,a,0.4035,,147.6117,147.6119,-0.025925926,-0.418518519,0,0,0,,0,9,9,24,1,,,,
,,,,,,,8c98e1004b82ed9ca8aadbd2,66a626ef09d4e21e1a8894ec,67373fb4e0b03d789ef17b54,2024-11-15_13h34.02.153,Tarea de género gramatical,2024.2.2,Win32,59.52380952,,,,,,,,,,,,,,,,,,,,,,,,147.613,148.8945,a,1,[],[],[],[],[],[],[],0.6007,1,148.8947,149.3946,,,,,,99,FEM,DIS,150,fase,el,a,0.6007,,149.3947,149.395,-0.025925926,-0.418518519,0,0,0,,0,10,10,98,1,,,,
,,,,,,,8c98e1004b82ed9ca8aadbd2,66a626ef09d4e21e1a8894ec,67373fb4e0b03d789ef17b54,2024-11-15_13h34.02.153,Tarea de género gramatical,2024.2.2,Win32,59.52380952,,,,,,,,,,,,,,,,,,,,,,,,149.396,150.5283,a,1,[],[],[],[],[],[],[],0.451,1,150.5284,151.0281,,,,,,421,FEM,AGR,150,novela,la,a,0.451,,151.0295,151.0302,-0.025925926,-0.418518519,0,0,0,,0,11,11,420,1,,,,
,,,,,,,8c98e1004b82ed9ca8aadbd2,66a626ef09d4e21e1a8894ec,67373fb4e0b03d789ef17b54,2024-11-15_13h34.02.153,Tarea de género gramatical,2024.2.2,Win32,59.52380952,,,,,,,,,,,,,,,,,,,,,,,,151.0307,152.1278,a,1,[],[],[],[],[],[],[],0.4171,1,152.1281,152.6279,,,,,,301,FEM,AGR,150,verdad,la,a,0.4171,,152.628,152.6281,-0.025925926,-0.418518519,0,0,0,,0,12,12,300,1,,,,
,,,,,,,8c98e1004b82ed9ca8aadbd2,66a626ef09d4e21e1a8894ec,67373fb4e0b03d789ef17b54,2024-11-15_13h34.02.153,Tarea de género gramatical,2024.2.2,Win32,59.52380952,,,,,,,,,,,,,,,,,,,,,,,,152.6292,153.9117,l,1,[],[],[],[],[],[],[],0.6067,1,153.9118,154.4114,,,,,,48,MAS,DIS,150,loco,la,l,0.6067,,154.4115,154.4117,-0.025925926,-0.418518519,0,0,0,,0,13,13,47,1,,,,
,,,,,,,8c98e1004b82ed9ca8aadbd2,66a626ef09d4e21e1a8894ec,67373fb4e0b03d789ef17b54,2024-11-15_13h34.02.153,Tarea de género gramatical,2024.2.2,Win32,59.52380952,,,,,,,,,,,,,,,,,,,,,,,,154.4134,155.6946,a,1,[],[],[],[],[],[],[],0.6038,1,155.6947,156.1946,,,,,,447,FEM,DIS,150,lógica,el,a,0.6038,,156.1948,156.195,-0.025925926,-0.418518519,0,0,0,,0,14,14,446,1,,,,
,,,,,,,8c98e1004b82ed9ca8aadbd2,66a626ef09d4e21e1a8894ec,67373fb4e0b03d789ef17b54,2024-11-15_13h34.02.153,Tarea de género gramatical,2024.2.2,Win32,59.52380952,,,,,,,,,,,,,,,,,,,,,,,,156.196,157.6948,l,1,[],[],[],[],[],[],[],0.817,1,157.695,158.1946,,,,,,310,MAS,AGR,150,nombre,el,l,0.817,,158.196,158.1966,-0.025925926,-0.418518519,0,0,0,,0,15,15,309,1,,,,
,,,,,,,8c98e1004b82ed9ca8aadbd2,66a626ef09d4e21e1a8894ec,67373fb4e0b03d789ef17b54,2024-11-15_13h34.02.153,Tarea de género gramatical,2024.2.2,Win32,59.52380952,,,,,,,,,,,,,,,,,,,,,,,,158.1971,159.4614,l,1,[],[],[],[],[],[],[],0.5843,1,159.4616,159.9616,,,,,,53,MAS,CON,150,vaso,,l,0.5843,,159.9617,159.9619,-0.025925926,-0.418518519,0,0,0,,0,16,16,52,1,,,,
,,,,,,,8c98e1004b82ed9ca8aadbd2,66a626ef09d4e21e1a8894ec,67373fb4e0b03d789ef17b54,2024-11-15_13h34.02.153,Tarea de género gramatical,2024.2.2,Win32,59.52380952,,,,,,,,,,,,,,,,,,,,,,,,159.9631,161.3118,l,1,[],[],[],[],[],[],[],0.6716,1,161.3119,161.8116,,,,,,108,MAS,DIS,150,hilo,la,l,0.6716,,161.8121,161.8121,-0.025925926,-0.418518519,0,0,0,,0,17,17,107,1,,,,
,,,,,,,8c98e1004b82ed9ca8aadbd2,66a626ef09d4e21e1a8894ec,67373fb4e0b03d789ef17b54,2024-11-15_13h34.02.153,Tarea de género gramatical,2024.2.2,Win32,59.52380952,,,,,,,,,,,,,,,,,,,,,,,,161.8132,162.9449,l,0,[],[],[],[],[],[],[],0.4508,0,162.946,163.4448,,,,,,188,FEM,CON,150,bomba,,a,0.4508,,163.4449,163.4451,-0.025925926,-0.418518519,0,0,0,,0,18,18,187,1,,,,
,,,,,,,8c98e1004b82ed9ca8aadbd2,66a626ef09d4e21e1a8894ec,67373fb4e0b03d789ef17b54,2024-11-15_13h34.02.153,Tarea de género gramatical,2024.2.2,Win32,59.52380952,,,,,,,,,,,,,,,,,,,,,,,,163.4461,164.6447,l,1,[],[],[],[],[],[],[],0.5173,1,164.6459,165.145,,,,,,388,MAS,AGR,150,empleo,el,l,0.5173,,165.1452,165.1453,-0.025925926,-0.418518519,0,0,0,,0,19,19,387,1,,,,
,,,,,,,8c98e1004b82ed9ca8aadbd2,66a626ef09d4e21e1a8894ec,67373fb4e0b03d789ef17b54,2024-11-15_13h34.02.153,Tarea de género gramatical,2024.2.2,Win32,59.52380952,,,,,,,,,,,,,,,,,,,,,,,,165.1464,166.4952,a,1,[],[],[],[],[],[],[],0.6674,1,166.4953,166.995,,,,,,278,FEM,CON,150,presa,,a,0.6674,,166.9964,166.997,-0.025925926,-0.418518519,0,0,0,,0,20,20,277,1,,,,
,,,,,,,8c98e1004b82ed9ca8aadbd2,66a626ef09d4e21e1a8894ec,67373fb4e0b03d789ef17b54,2024-11-15_13h34.02.153,Tarea de género gramatical,2024.2.2,Win32,59.52380952,,,,,,,,,,,,,,,,,,,,,,,,166.9977,168.3284,l,1,[],[],[],[],[],[],[],0.6502,1,168.3288,168.8293,,,,,,126,MAS,DIS,150,lazo,la,l,0.6502,,168.8293,168.8293,-0.025925926,-0.418518519,0,0,0,,0,21,21,125,1,,,,
,,,,,,,8c98e1004b82ed9ca8aadbd2,66a626ef09d4e21e1a8894ec,67373fb4e0b03d789ef17b54,2024-11-15_13h34.02.153,Tarea de género gramatical,2024.2.2,Win32,59.52380952,,,,,,,,,,,,,,,,,,,,,,,,168.8302,170.3115,l,1,[],[],[],[],[],[],[],0.8008,1,170.3117,170.8118,,,,,,186,MAS,DIS,150,error,la,l,0.8008,,170.8118,170.8119,-0.025925926,-0.418518519,0,0,0,,0,22,22,185,1,,,,
,,,,,,,8c98e1004b82ed9ca8aadbd2,66a626ef09d4e21e1a8894ec,67373fb4e0b03d789ef17b54,2024-11-15_13h34.02.153,Tarea de género gramatical,2024.2.2,Win32,59.52380952,,,,,,,,,,,,,,,,,,,,,,,,170.8131,171.9949,a,1,[],[],[],[],[],[],[],0.5036,1,171.995,172.4951,,,,,,20,FEM,CON,150,ropa,,a,0.5036,,172.4952,172.4954,-0.025925926,-0.418518519,0,0,0,,0,23,23,19,1,,,,
,,,,,,,8c98e1004b82ed9ca8aadbd2,66a626ef09d4e21e1a8894ec,67373fb4e0b03d789ef17b54,2024-11-15_13h34.02.153,Tarea de género gramatical,2024.2.2,Win32,59.52380952,,,,,,,,,,,,,,,,,,,,,,,,172.4966,173.6119,l,1,[],[],[],[],[],[],[],0.4366,1,173.612,174.1118,,,,,,142,MAS,AGR,150,lodo,el,l,0.4366,,174.1132,174.1138,-0.025925926,-0.418518519,0,0,0,,0,24,24,141,1,,,,
,,,,,,,8c98e1004b82ed9ca8aadbd2,66a626ef09d4e21e1a8894ec,67373fb4e0b03d789ef17b54,2024-11-15_13h34.02.153,Tarea de género gramatical,2024.2.2,Win32,59.52380952,,,,,,,,,,,,,,,,,,,,,,,,174.1147,175.3454,a,1,[],[],[],[],[],[],[],0.5534,1,175.3455,175.8451,,,,,,128,FEM,CON,150,leña,,a,0.5534,,175.8451,175.8452,-0.025925926,-0.418518519,0,0,0,,0,25,25,127,1,,,,
,,,,,,,8c98e1004b82ed9ca8aadbd2,66a626ef09d4e21e1a8894ec,67373fb4e0b03d789ef17b54,2024-11-15_13h34.02.153,Tarea de género gramatical,2024.2.2,Win32,59.52380952,,,,,,,,,,,,,,,,,,,,,,,,175.8465,177.062,l,0,[],[],[],[],[],[],[],0.5343,0,177.063,177.5619,,,,,,231,FEM,DIS,150,bruja,el,a,0.5343,,177.562,177.5622,-0.025925926,-0.418518519,0,0,0,,0,26,26,230,1,,,,
,,,,,,,8c98e1004b82ed9ca8aadbd2,66a626ef09d4e21e1a8894ec,67373fb4e0b03d789ef17b54,2024-11-15_13h34.02.153,Tarea de género gramatical,2024.2.2,Win32,59.52380952,,,,,,,,,,,,,,,,,,,,,,,,177.5635,178.962,l,1,[],[],[],[],[],[],[],0.7175,1,178.963,179.4621,,,,,,180,MAS,DIS,150,fuego,la,l,0.7175,,179.4621,179.4622,-0.025925926,-0.418518519,0,0,0,,0,27,27,179,1,,,,
,,,,,,,8c98e1004b82ed9ca8aadbd2,66a626ef09d4e21e1a8894ec,67373fb4e0b03d789ef17b54,2024-11-15_13h34.02.153,Tarea de género gramatical,2024.2.2,Win32,59.52380952,,,,,,,,,,,,,,,,,,,,,,,,179.4633,180.7953,l,1,[],[],[],[],[],[],[],0.6556,1,180.7954,181.2956,,,,,,244,MAS,AGR,150,hielo,el,l,0.6556,,181.2957,181.2957,-0.025925926,-0.418518519,0,0,0,,0,28,28,243,1,,,,
,,,,,,,8c98e1004b82ed9ca8aadbd2,66a626ef09d4e21e1a8894ec,67373fb4e0b03d789ef17b54,2024-11-15_13h34.02.153,Tarea de género gramatical,2024.2.2,Win32,59.52380952,,,,,,,,,,,,,,,,,,,,,,,,181.2968,182.5288,l,1,[],[],[],[],[],[],[],0.5508,1,182.529,183.0291,,,,,,34,MAS,AGR,150,gato,el,l,0.5508,,183.0308,183.0316,-0.025925926,-0.418518519,0,0,0,,0,29,29,33,1,,,,
,,,,,,,8c98e1004b82ed9ca8aadbd2,66a626ef09d4e21e1a8894ec,67373fb4e0b03d789ef17b54,2024-11-15_13h34.02.153,Tarea de género gramatical,2024.2.2,Win32,59.52380952,,,,,,,,,,,,,,,,,,,,,,,,183.0325,184.2123,a,1,[],[],[],[],[],[],[],0.5004,1,184.2123,184.7124,,,,,,49,FEM,AGR,150,piel,la,a,0.5004,,184.7125,184.7128,-0.025925926,-0.418518519,0,0,0,,0,30,30,48,1,,,,
,,,,,,,8c98e1004b82ed9ca8aadbd2,66a626ef09d4e21e1a8894ec,67373fb4e0b03d789ef17b54,2024-11-15_13h34.02.153,Tarea de género gramatical,2024.2.2,Win32,59.52380952,,,,,,,,,,,,,,,,,,,,,,,,184.7138,185.7623,a,1,[],[],[],[],[],[],[],0.367,1,185.7623,186.2625,,,,,,315,FEM,DIS,150,manera,el,a,0.367,,186.2625,186.2628,-0.025925926,-0.418518519,0,0,0,,0,31,31,314,1,,,,
,,,,,,,8c98e1004b82ed9ca8aadbd2,66a626ef09d4e21e1a8894ec,67373fb4e0b03d789ef17b54,2024-11-15_13h34.02.153,Tarea de género gramatical,2024.2.2,Win32,59.52380952,,,,,,,,,,,,,,,,,,,,,,,,186.2641,187.5624,l,1,[],[],[],[],[],[],[],0.6174,1,187.5627,188.0624,,,,,,336,MAS,DIS,150,crimen,la,l,0.6174,,188.0625,188.0627,-0.025925926,-0.418518519,0,0,0,,0,32,32,335,1,,,,
,,,,,,,8c98e1004b82ed9ca8aadbd2,66a626ef09d4e21e1a8894ec,67373fb4e0b03d789ef17b54,2024-11-15_13h34.02.153,Tarea de género gramatical,2024.2.2,Win32,59.52380952,,,,,,,,,,,,,,,,,,,,,,,,188.0637,189.4458,l,1,[],[],[],[],[],[],[],0.703,1,189.446,189.9458,,,,,,18,MAS,DIS,150,tren,la,l,0.703,,189.9474,189.9481,-0.025925926,-0.418518519,0,0,0,,0,33,33,17,1,,,,
,,,,,,,8c98e1004b82ed9ca8aadbd2,66a626ef09d4e21e1a8894ec,67373fb4e0b03d789ef17b54,2024-11-15_13h34.02.153,Tarea de género gramatical,2024.2.2,Win32,59.52380952,,,,,,,,,,,,,,,,,,,,,,,,189.9487,191.0625,a,1,[],[],[],[],[],[],[],0.4362,1,191.0627,191.5626,,,,,,386,FEM,CON,150,sombra,,a,0.4362,,191.5627,191.5628,-0.025925926,-0.418518519,0,0,0,,0,34,34,385,1,,,,
,,,,,,,8c98e1004b82ed9ca8aadbd2,66a626ef09d4e21e1a8894ec,67373fb4e0b03d789ef17b54,2024-11-15_13h34.02.153,Tarea de género gramatical,2024.2.2,Win32,59.52380952,,,,,,,,,,,,,,,,,,,,,,,,191.5639,192.7127,l,1,[],[],[],[],[],[],[],0.4672,1,192.7129,193.2126,,,,,,348,MAS,DIS,150,anillo,la,l,0.4672,,193.2127,193.2128,-0.025925926,-0.418518519,0,0,0,,0,35,35,347,1,,,,
,,,,,,,8c98e1004b82ed9ca8aadbd2,66a626ef09d4e21e1a8894ec,67373fb4e0b03d789ef17b54,2024-11-15_13h34.02.153,Tarea de género gramatical,2024.2.2,Win32,59.52380952,,,,,,,,,,,,,,,,,,,,,,,,193.2141,194.3293,a,1,[],[],[],[],[],[],[],0.4335,1,194.3295,194.8296,,,,,,397,FEM,AGR,150,cuerda,la,a,0.4335,,194.8297,194.8299,-0.025925926,-0.418518519,0,0,0,,0,36,36,396,1,,,,
,,,,,,,8c98e1004b82ed9ca8aadbd2,66a626ef09d4e21e1a8894ec,67373fb4e0b03d789ef17b54,2024-11-15_13h34.02.153,Tarea de género gramatical,2024.2.2,Win32,59.52380952,,,,,,,,,,,,,,,,,,,,,,,,194.8311,196.0461,l,1,[],[],[],[],[],[],[],0.5359,1,196.0464,196.5458,,,,,,156,MAS,DIS,150,amigo,la,l,0.5359,,196.5459,196.546,-0.025925926,-0.418518519,0,0,0,,0,37,37,155,1,,,,
,,,,,,,8c98e1004b82ed9ca8aadbd2,66a626ef09d4e21e1a8894ec,67373fb4e0b03d789ef17b54,2024-11-15_13h34.02.153,Tarea de género gramatical,2024.2.2,Win32,59.52380952,,,,,,,,,,,,,,,,,,,,,,,,196.5472,197.8125,a,1,[],[],[],[],[],[],[],0.5844,1,197.8127,198.3127,,,,,,259,FEM,AGR,150,prima,la,a,0.5844,,198.3144,198.3152,-0.025925926,-0.418518519,0,0,0,,0,38,38,258,1,,,,
,,,,,,,8c98e1004b82ed9ca8aadbd2,66a626ef09d4e21e1a8894ec,67373fb4e0b03d789ef17b54,2024-11-15_13h34.02.153,Tarea de género gramatical,2024.2.2,Win32,59.52380952,,,,,,,,,,,,,,,,,,,,,,,,198.3159,199.5629,a,1,[],[],[],[],[],[],[],0.567,1,199.563,200.0629,,,,,,319,FEM,AGR,150,sangre,la,a,0.567,,200.0631,200.0633,-0.025925926,-0.418518519,0,0,0,,0,39,39,318,1,,,,
,,,,,,,8c98e1004b82ed9ca8aadbd2,66a626ef09d4e21e1a8894ec,67373fb4e0b03d789ef17b54,2024-11-15_13h34.02.153,Tarea de género gramatical,2024.2.2,Win32,59.52380952,,,,,,,,,,,,,,,,,,,,,,,,200.0644,201.4965,l,1,[],[],[],[],[],[],[],0.7507,1,201.4966,201.9963,,,,,,124,MAS,AGR,150,clan,el,l,0.7507,,201.9964,201.9966,-0.025925926,-0.418518519,0,0,0,,0,40,40,123,1,,,,
,,,,,,,8c98e1004b82ed9ca8aadbd2,66a626ef09d4e21e1a8894ec,67373fb4e0b03d789ef17b54,2024-11-15_13h34.02.153,Tarea de género gramatical,2024.2.2,Win32,59.52380952,,,,,,,,,,,,,,,,,,,,,,,,201.9979,203.1127,l,1,[],[],[],[],[],[],[],0.4347,1,203.1129,203.6128,,,,,,256,MAS,AGR,150,techo,el,l,0.4347,,203.613,203.6132,-0.025925926,-0.418518519,0,0,0,,0,41,41,255,1,,,,
,,,,,,,8c98e1004b82ed9ca8aadbd2,66a626ef09d4e21e1a8894ec,67373fb4e0b03d789ef17b54,2024-11-15_13h34.02.153,Tarea de género gramatical,2024.2.2,Win32,59.52380952,,,,,,,,,,,,,,,,,,,,,,,,203.6143,205.0964,l,1,[],[],[],[],[],[],[],0.8052,1,205.0966,205.5963,,,,,,60,MAS,DIS,150,tono,la,l,0.8052,,205.5976,205.5984,-0.025925926,-0.418518519,0,0,0,,0,42,42,59,1,,,,
,,,,,,,8c98e1004b82ed9ca8aadbd2,66a626ef09d4e21e1a8894ec,67373fb4e0b03d789ef17b54,2024-11-15_13h34.02.153,Tarea de género gramatical,2024.2.2,Win32,59.52380952,,,,,,,,,,,,,,,,,,,,,,,,205.5999,207.1299,l,1,[],[],[],[],[],[],[],0.8567,1,207.1301,207.6298,,,,,,234,MAS,DIS,150,héroe,la,l,0.8567,,207.6299,207.6303,-0.025925926,-0.418518519,0,0,0,,0,43,43,233,1,,,,
,,,,,,,8c98e1004b82ed9ca8aadbd2,66a626ef09d4e21e1a8894ec,67373fb4e0b03d789ef17b54,2024-11-15_13h34.02.153,Tarea de género gramatical,2024.2.2,Win32,59.52380952,,,,,,,,,,,,,,,,,,,,,,,,207.6315,208.9133,a,1,[],[],[],[],[],[],[],0.6037,1,208.9135,209.4134,,,,,,349,FEM,AGR,150,prensa,la,a,0.6037,,209.4134,209.4135,-0.025925926,-0.418518519,0,0,0,,0,44,44,348,1,,,,
,,,,,,,8c98e1004b82ed9ca8aadbd2,66a626ef09d4e21e1a8894ec,67373fb4e0b03d789ef17b54,2024-11-15_13h34.02.153,Tarea de género gramatical,2024.2.2,Win32,59.52380952,,,,,,,,,,,,,,,,,,,,,,,,209.4148,210.6129,l,1,[],[],[],[],[],[],[],0.5231,1,210.6131,211.1133,,,,,,30,MAS,DIS,150,cine,la,l,0.5231,,211.1134,211.1138,-0.025925926,-0.418518519,0,0,0,,0,45,45,29,1,,,,
,,,,,,,8c98e1004b82ed9ca8aadbd2,66a626ef09d4e21e1a8894ec,67373fb4e0b03d789ef17b54,2024-11-15_13h34.02.153,Tarea de género gramatical,2024.2.2,Win32,59.52380952,,,,,,,,,,,,,,,,,,,,,,,,211.1147,212.3801,l,1,[],[],[],[],[],[],[],0.5838,1,212.3802,212.8801,,,,,,71,MAS,CON,150,pozo,,l,0.5838,,212.8802,212.8804,-0.025925926,-0.418518519,0,0,0,,0,46,46,70,1,,,,
,,,,,,,8c98e1004b82ed9ca8aadbd2,66a626ef09d4e21e1a8894ec,67373fb4e0b03d789ef17b54,2024-11-15_13h34.02.153,Tarea de género gramatical,2024.2.2,Win32,59.52380952,,,,,,,,,,,,,,,,,,,,,,,,212.8818,214.0298,l,1,[],[],[],[],[],[],[],0.4667,1,214.0299,214.5301,,,,,,143,MAS,CON,150,faro,,l,0.4667,,214.5317,214.5323,-0.025925926,-0.418518519,0,0,0,,0,47,47,142,1,,,,
,,,,,,,8c98e1004b82ed9ca8aadbd2,66a626ef09d4e21e1a8894ec,67373fb4e0b03d789ef17b54,2024-11-15_13h34.02.153,Tarea de género gramatical,2024.2.2,Win32,59.52380952,,,,,,,,,,,,,,,,,,,,,,,,214.5328,215.7968,a,1,[],[],[],[],[],[],[],0.5872,1,215.797,216.2968,,,,,,339,FEM,DIS,150,salida,el,a,0.5872,,216.2968,216.2969,-0.025925926,-0.418518519,0,0,0,,0,48,48,338,1,,,,
,,,,,,,8c98e1004b82ed9ca8aadbd2,66a626ef09d4e21e1a8894ec,67373fb4e0b03d789ef17b54,2024-11-15_13h34.02.153,Tarea de género gramatical,2024.2.2,Win32,59.52380952,,,,,,,,,,,,,,,,,,,,,,,,216.2981,217.7134,l,1,[],[],[],[],[],[],[],0.7392,1,217.7135,218.2134,,,,,,78,MAS,DIS,150,oído,la,l,0.7392,,218.2135,218.2136,-0.025925926,-0.418518519,0,0,0,,0,49,49,77,1,,,,
,,,,,,,8c98e1004b82ed9ca8aadbd2,66a626ef09d4e21e1a8894ec,67373fb4e0b03d789ef17b54,2024-11-15_13h34.02.153,Tarea de género gramatical,2024.2.2,Win32,59.52380952,,,,,,,,,,,,,,,,,,,,,,,,218.2148,219.3304,a,1,[],[],[],[],[],[],[],0.4342,1,219.3306,219.8304,,,,,,393,FEM,DIS,150,alarma,el,a,0.4342,,219.8305,219.8307,-0.025925926,-0.418518519,0,0,0,,0,50,50,392,1,,,,
,,,,,,,8c98e1004b82ed9ca8aadbd2,66a626ef09d4e21e1a8894ec,67373fb4e0b03d789ef17b54,2024-11-15_13h34.02.153,Tarea de género gramatical,2024.2.2,Win32,59.52380952,,,,,,,,,,,,,,,,,,,,,,,,219.8321,221.0637,a,1,[],[],[],[],[],[],[],0.5509,1,221.0638,221.5637,,,,,,307,FEM,AGR,150,suerte,la,a,0.5509,,221.5651,221.5657,-0.025925926,-0.418518519,0,0,0,,0,51,51,306,1,,,,
,,,,,,,8c98e1004b82ed9ca8aadbd2,66a626ef09d4e21e1a8894ec,67373fb4e0b03d789ef17b54,2024-11-15_13h34.02.153,Tarea de género gramatical,2024.2.2,Win32,59.52380952,,,,,,,,,,,,,,,,,,,,,,,,221.5663,222.7304,a,1,[],[],[],[],[],[],[],0.484,1,222.7306,223.2305,,,,,,272,FEM,CON,150,oreja,,a,0.484,,223.2308,223.2309,-0.025925926,-0.418518519,0,0,0,,0,52,52,271,1,,,,
,,,,,,,8c98e1004b82ed9ca8aadbd2,66a626ef09d4e21e1a8894ec,67373fb4e0b03d789ef17b54,2024-11-15_13h34.02.153,Tarea de género gramatical,2024.2.2,Win32,59.52380952,,,,,,,,,,,,,,,,,,,,,,,,223.232,224.5305,a,1,[],[],[],[],[],[],[],0.6174,1,224.5308,225.0304,,,,,,56,FEM,CON,150,bola,,a,0.6174,,225.0305,225.0309,-0.025925926,-0.418518519,0,0,0,,0,53,53,55,1,,,,
,,,,,,,8c98e1004b82ed9ca8aadbd2,66a626ef09d4e21e1a8894ec,67373fb4e0b03d789ef17b54,2024-11-15_13h34.02.153,Tarea de género gramatical,2024.2.2,Win32,59.52380952,,,,,,,,,,,,,,,,,,,,,,,,225.0324,226.5972,l,1,[],[],[],[],[],[],[],0.8845,1,226.5973,227.0971,,,,,,449,MAS,CON,150,payaso,,l,0.8845,,227.0973,227.0974,-0.025925926,-0.418518519,0,0,0,,0,54,54,448,1,,,,
,,,,,,,8c98e1004b82ed9ca8aadbd2,66a626ef09d4e21e1a8894ec,67373fb4e0b03d789ef17b54,2024-11-15_13h34.02.153,Tarea de género gramatical,2024.2.2,Win32,59.52380952,,,,,,,,,,,,,,,,,,,,,,,,227.0985,228.1971,l,1,[],[],[],[],[],[],[],0.4172,1,228.1973,228.6974,,,,,,407,MAS,CON,150,jurado,,l,0.4172,,228.6975,228.6979,-0.025925926,-0.418518519,0,0,0,,0,55,55,406,1,,,,
,,,,,,,8c98e1004b82ed9ca8aadbd2,66a626ef09d4e21e1a8894ec,67373fb4e0b03d789ef17b54,2024-11-15_13h34.02.153,Tarea de género gramatical,2024.2.2,Win32,59.52380952,,,,,,,,,,,,,,,,,,,,,,,,228.6988,229.897,l,1,[],[],[],[],[],[],[],0.5194,1,229.897,230.3971,,,,,,208,MAS,AGR,150,suelo,el,l,0.5194,,230.3986,230.3992,-0.025925926,-0.418518519,0,0,0,,0,56,56,207,1,,,,
,,,,,,,8c98e1004b82ed9ca8aadbd2,66a626ef09d4e21e1a8894ec,67373fb4e0b03d789ef17b54,2024-11-15_13h34.02.153,Tarea de género gramatical,2024.2.2,Win32,59.52380952,,,,,,,,,,,,,,,,,,,,,,,,230.3997,231.464,a,1,[],[],[],[],[],[],[],0.3841,1,231.4641,231.9639,,,,,,297,FEM,DIS,150,manta,el,a,0.3841,,231.9641,231.9644,-0.025925926,-0.418518519,0,0,0,,0,57,57,296,1,,,,
,,,,,,,8c98e1004b82ed9ca8aadbd2,66a626ef09d4e21e1a8894ec,67373fb4e0b03d789ef17b54,2024-11-15_13h34.02.153,Tarea de género gramatical,2024.2.2,Win32,59.52380952,,,,,,,,,,,,,,,,,,,,,,,,231.9655,233.2308,a,1,[],[],[],[],[],[],[],0.5838,1,233.2311,233.731,,,,,,410,FEM,CON,150,piedad,,a,0.5838,,233.7311,233.7312,-0.025925926,-0.418518519,0,0,0,,0,58,58,409,1,,,,
,,,,,,,8c98e1004b82ed9ca8aadbd2,66a626ef09d4e21e1a8894ec,67373fb4e0b03d789ef17b54,2024-11-15_13h34.02.153,Tarea de género gramatical,2024.2.2,Win32,59.52380952,,,,,,,,,,,,,,,,,,,,,,,,233.7322,234.7472,a,1,[],[],[],[],[],[],[],0.3394,1,234.7473,235.2475,,,,,,261,FEM,DIS,150,cueva,el,a,0.3394,,235.2476,235.2479,-0.025925926,-0.418518519,0,0,0,,0,59,59,260,1,,,,
,,,,,,,8c98e1004b82ed9ca8aadbd2,66a626ef09d4e21e1a8894ec,67373fb4e0b03d789ef17b54,2024-11-15_13h34.02.153,Tarea de género gramatical,2024.2.2,Win32,59.52380952,,,,,,,,,,,,,,,,,,,,,,,,235.2489,236.3476,a,1,[],[],[],[],[],[],[],0.4175,1,236.3478,236.8475,,,,,,417,FEM,DIS,150,cabaña,el,a,0.4175,,236.8488,236.8494,-0.025925926,-0.418518519,0,0,0,,0,60,60,416,1,,,,
,,,,,,,8c98e1004b82ed9ca8aadbd2,66a626ef09d4e21e1a8894ec,67373fb4e0b03d789ef17b54,2024-11-15_13h34.02.153,Tarea de género gramatical,2024.2.2,Win32,59.52380952,,,,,,,,,,,,,,,,,,,,,,,,236.85,237.9807,l,1,[],[],[],[],[],[],[],0.4514,1,237.9812,238.4807,,,,,,335,MAS,CON,150,montón,,l,0.4514,,238.4807,238.4808,-0.025925926,-0.418518519,0,0,0,,0,61,61,334,1,,,,
,,,,,,,8c98e1004b82ed9ca8aadbd2,66a626ef09d4e21e1a8894ec,67373fb4e0b03d789ef17b54,2024-11-15_13h34.02.153,Tarea de género gramatical,2024.2.2,Win32,59.52380952,,,,,,,,,,,,,,,,,,,,,,,,238.4819,239.6476,l,1,[],[],[],[],[],[],[],0.484,1,239.6477,240.1477,,,,,,406,MAS,AGR,150,premio,el,l,0.484,,240.1479,240.1481,-0.025925926,-0.418518519,0,0,0,,0,62,62,405,1,,,,
,,,,,,,8c98e1004b82ed9ca8aadbd2,66a626ef09d4e21e1a8894ec,67373fb4e0b03d789ef17b54,2024-11-15_13h34.02.153,Tarea de género gramatical,2024.2.2,Win32,59.52380952,,,,,,,,,,,,,,,,,,,,,,,,240.1492,241.2478,l,1,[],[],[],[],[],[],[],0.4176,1,241.248,241.7475,,,,,,76,MAS,AGR,150,lujo,el,l,0.4176,,241.7476,241.7476,-0.025925926,-0.418518519,0,0,0,,0,63,63,75,1,,,,
,,,,,,,8c98e1004b82ed9ca8aadbd2,66a626ef09d4e21e1a8894ec,67373fb4e0b03d789ef17b54,2024-11-15_13h34.02.153,Tarea de género gramatical,2024.2.2,Win32,59.52380952,,,,,,,,,,,,,,,,,,,,,,,,241.7488,242.898,l,1,[],[],[],[],[],[],[],0.4674,1,242.8981,243.3979,,,,,,167,MAS,CON,150,juego,,l,0.4674,,243.3981,243.3982,-0.025925926,-0.418518519,0,0,0,,0,64,64,166,1,,,,
,,,,,,,8c98e1004b82ed9ca8aadbd2,66a626ef09d4e21e1a8894ec,67373fb4e0b03d789ef17b54,2024-11-15_13h34.02.153,Tarea de género gramatical,2024.2.2,Win32,59.52380952,,,,,,,,,,,,,,,,,,,,,,,,243.3993,244.5142,a,1,[],[],[],[],[],[],[],0.437,1,244.5143,245.0145,,,,,,207,FEM,DIS,150,playa,el,a,0.437,,245.0159,245.0166,-0.025925926,-0.418518519,0,0,0,,0,65,65,206,1,,,,
,,,,,,,8c98e1004b82ed9ca8aadbd2,66a626ef09d4e21e1a8894ec,67373fb4e0b03d789ef17b54,2024-11-15_13h34.02.153,Tarea de género gramatical,2024.2.2,Win32,59.52380952,,,,,,,,,,,,,,,,,,,,,,,,245.0174,246.1812,a,1,[],[],[],[],[],[],[],0.484,1,246.1815,246.6812,,,,,,109,FEM,AGR,150,gota,la,a,0.484,,246.6814,246.6815,-0.025925926,-0.418518519,0,0,0,,0,66,66,108,1,,,,
,,,,,,,8c98e1004b82ed9ca8aadbd2,66a626ef09d4e21e1a8894ec,67373fb4e0b03d789ef17b54,2024-11-15_13h34.02.153,Tarea de género gramatical,2024.2.2,Win32,59.52380952,,,,,,,,,,,,,,,,,,,,,,,,246.6826,247.7977,l,1,[],[],[],[],[],[],[],0.4339,1,247.7978,248.2979,,,,,,113,MAS,CON,150,toro,,l,0.4339,,248.298,248.2982,-0.025925926,-0.418518519,0,0,0,,0,67,67,112,1,,,,
,,,,,,,8c98e1004b82ed9ca8aadbd2,66a626ef09d4e21e1a8894ec,67373fb4e0b03d789ef17b54,2024-11-15_13h34.02.153,Tarea de género gramatical,2024.2.2,Win32,59.52380952,,,,,,,,,,,,,,,,,,,,,,,,248.2993,249.3144,a,1,[],[],[],[],[],[],[],0.3392,1,249.3145,249.8148,,,,,,254,FEM,CON,150,caída,,a,0.3392,,249.8149,249.8151,-0.025925926,-0.418518519,0,0,0,,0,68,68,253,1,,,,
,,,,,,,8c98e1004b82ed9ca8aadbd2,66a626ef09d4e21e1a8894ec,67373fb4e0b03d789ef17b54,2024-11-15_13h34.02.153,Tarea de género gramatical,2024.2.2,Win32,59.52380952,,,,,,,,,,,,,,,,,,,,,,,,249.8163,250.9317,a,1,[],[],[],[],[],[],[],0.4341,1,250.9318,251.4314,,,,,,117,FEM,DIS,150,raya,el,a,0.4341,,251.4329,251.4334,-0.025925926,-0.418518519,0,0,0,,0,69,69,116,1,,,,
,,,,,,,8c98e1004b82ed9ca8aadbd2,66a626ef09d4e21e1a8894ec,67373fb4e0b03d789ef17b54,2024-11-15_13h34.02.153,Tarea de género gramatical,2024.2.2,Win32,59.52380952,,,,,,,,,,,,,,,,,,,,,,,,251.434,252.4815,a,1,[],[],[],[],[],[],[],0.3674,1,252.4817,252.9817,,,,,,229,FEM,AGR,150,celda,la,a,0.3674,,252.9817,252.9818,-0.025925926,-0.418518519,0,0,0,,0,70,70,228,1,,,,
,,,,,,,8c98e1004b82ed9ca8aadbd2,66a626ef09d4e21e1a8894ec,67373fb4e0b03d789ef17b54,2024-11-15_13h34.02.153,Tarea de género gramatical,2024.2.2,Win32,59.52380952,,,,,,,,,,,,,,,,,,,,,,,,252.983,254.0149,a,1,[],[],[],[],[],[],[],0.3505,1,254.015,254.5149,,,,,,85,FEM,AGR,150,gira,la,a,0.3505,,254.515,254.5152,-0.025925926,-0.418518519,0,0,0,,0,71,71,84,1,,,,
,,,,,,,8c98e1004b82ed9ca8aadbd2,66a626ef09d4e21e1a8894ec,67373fb4e0b03d789ef17b54,2024-11-15_13h34.02.153,Tarea de género gramatical,2024.2.2,Win32,59.52380952,,,,,,,,,,,,,,,,,,,,,,,,254.5163,255.5982,l,1,[],[],[],[],[],[],[],0.4008,1,255.5984,256.0983,,,,,,95,MAS,CON,150,tomo,,l,0.4008,,256.0985,256.0987,-0.025925926,-0.418518519,0,0,0,,0,72,72,94,1,,,,
,,,,,,,8c98e1004b82ed9ca8aadbd2,66a626ef09d4e21e1a8894ec,67373fb4e0b03d789ef17b54,2024-11-15_13h34.02.153,Tarea de género gramatical,2024.2.2,Win32,59.52380952,,,,,,,,,,,,,,,,,,,,,,,,256.0998,257.5147,l,1,[],[],[],[],[],[],[],0.7338,1,257.5148,258.0151,,,,,,448,MAS,AGR,150,aceite,el,l,0.7338,,258.0153,258.0155,-0.025925926,-0.418518519,0,0,0,,0,73,73,447,1,,,,
,,,,,,,8c98e1004b82ed9ca8aadbd2,66a626ef09d4e21e1a8894ec,67373fb4e0b03d789ef17b54,2024-11-15_13h34.02.153,Tarea de género gramatical,2024.2.2,Win32,59.52380952,,,,,,,,,,,,,,,,,,,,,,,,258.0164,259.2316,l,1,[],[],[],[],[],[],[],0.5385,1,259.2318,259.732,,,,,,443,MAS,CON,150,templo,,l,0.5385,,259.7332,259.7337,-0.025925926,-0.418518519,0,0,0,,0,74,74,442,1,,,,
,,,,,,,8c98e1004b82ed9ca8aadbd2,66a626ef09d4e21e1a8894ec,67373fb4e0b03d789ef17b54,2024-11-15_13h34.02.153,Tarea de género gramatical,2024.2.2,Win32,59.52380952,,,,,,,,,,,,,,,,,,,,,,,,259.7343,261.0485,l,1,[],[],[],[],[],[],[],0.6364,1,261.0487,261.5484,,,,,,40,MAS,AGR,150,dios,el,l,0.6364,,261.5485,261.5488,-0.025925926,-0.418518519,0,0,0,,0,75,75,39,1,,,,
,,,,,,,8c98e1004b82ed9ca8aadbd2,66a626ef09d4e21e1a8894ec,67373fb4e0b03d789ef17b54,2024-11-15_13h34.02.153,Tarea de género gramatical,2024.2.2,Win32,59.52380952,,,,,,,,,,,,,,,,,,,,,,,,261.5499,262.7151,a,1,[],[],[],[],[],[],[],0.4845,1,262.7152,263.2149,,,,,,213,FEM,DIS,150,magia,el,a,0.4845,,263.215,263.2151,-0.025925926,-0.418518519,0,0,0,,0,76,76,212,1,,,,
,,,,,,,8c98e1004b82ed9ca8aadbd2,66a626ef09d4e21e1a8894ec,67373fb4e0b03d789ef17b54,2024-11-15_13h34.02.153,Tarea de género gramatical,2024.2.2,Win32,59.52380952,,,,,,,,,,,,,,,,,,,,,,,,263.2162,264.3485,a,1,[],[],[],[],[],[],[],0.4517,1,264.3487,264.8485,,,,,,428,FEM,CON,150,jugada,,a,0.4517,,264.8488,264.8489,-0.025925926,-0.418518519,0,0,0,,0,77,77,427,1,,,,
,,,,,,,8c98e1004b82ed9ca8aadbd2,66a626ef09d4e21e1a8894ec,67373fb4e0b03d789ef17b54,2024-11-15_13h34.02.153,Tarea de género gramatical,2024.2.2,Win32,59.52380952,,,,,,,,,,,,,,,,,,,,,,,,264.8501,265.8987,a,1,[],[],[],[],[],[],[],0.3666,1,265.8988,266.3987,,,,,,380,FEM,CON,150,madera,,a,0.3666,,266.4001,266.4006,-0.025925926,-0.418518519,0,0,0,,0,78,78,379,1,,,,
,,,,,,,8c98e1004b82ed9ca8aadbd2,66a626ef09d4e21e1a8894ec,67373fb4e0b03d789ef17b54,2024-11-15_13h34.02.153,Tarea de género gramatical,2024.2.2,Win32,59.52380952,,,,,,,,,,,,,,,,,,,,,,,,266.4013,267.5487,l,1,[],[],[],[],[],[],[],0.4668,1,267.5489,268.0484,,,,,,257,MAS,CON,150,pecho,,l,0.4668,,268.0484,268.0485,-0.025925926,-0.418518519,0,0,0,,0,79,79,256,1,,,,
,,,,,,,8c98e1004b82ed9ca8aadbd2,66a626ef09d4e21e1a8894ec,67373fb4e0b03d789ef17b54,2024-11-15_13h34.02.153,Tarea de género gramatical,2024.2.2,Win32,59.52380952,,,,,,,,,,,,,,,,,,,,,,,,268.0495,269.1654,a,1,[],[],[],[],[],[],[],0.4342,1,269.1655,269.6657,,,,,,445,FEM,AGR,150,bondad,la,a,0.4342,,269.6657,269.6659,-0.025925926,-0.418518519,0,0,0,,0,80,80,444,1,,,,
,,,,,,,8c98e1004b82ed9ca8aadbd2,66a626ef09d4e21e1a8894ec,67373fb4e0b03d789ef17b54,2024-11-15_13h34.02.153,Tarea de género gramatical,2024.2.2,Win32,59.52380952,,,,,,,,,,,,,,,,,,,,,,,,269.6669,270.882,l,1,[],[],[],[],[],[],[],0.5344,1,270.8821,271.3819,,,,,,340,MAS,AGR,150,pasado,el,l,0.5344,,271.3821,271.3822,-0.025925926,-0.418518519,0,0,0,,0,81,81,339,1,,,,
,,,,,,,8c98e1004b82ed9ca8aadbd2,66a626ef09d4e21e1a8894ec,67373fb4e0b03d789ef17b54,2024-11-15_13h34.02.153,Tarea de género gramatical,2024.2.2,Win32,59.52380952,,,,,,,,,,,,,,,,,,,,,,,,271.3832,272.4827,a,1,[],[],[],[],[],[],[],0.4237,1,272.4828,272.982,,,,,,219,FEM,DIS,150,costa,el,a,0.4237,,272.982,272.9821,-0.025925926,-0.418518519,0,0,0,,0,82,82,218,1,,,,
,,,,,,,8c98e1004b82ed9ca8aadbd2,66a626ef09d4e21e1a8894ec,67373fb4e0b03d789ef17b54,2024-11-15_13h34.02.153,Tarea de género gramatical,2024.2.2,Win32,59.52380952,,,,,,,,,,,,,,,,,,,,,,,,272.9833,274.049,a,1,[],[],[],[],[],[],[],0.384,1,274.0492,274.5487,,,,,,241,FEM,AGR,150,pasta,la,a,0.384,,274.5499,274.5505,-0.025925926,-0.418518519,0,0,0,,0,83,83,240,1,,,,
,,,,,,,8c98e1004b82ed9ca8aadbd2,66a626ef09d4e21e1a8894ec,67373fb4e0b03d789ef17b54,2024-11-15_13h34.02.153,Tarea de género gramatical,2024.2.2,Win32,59.52380952,,,,,,,,,,,,,,,,,,,,,,,,274.551,275.6821,l,1,[],[],[],[],[],[],[],0.4511,1,275.6822,276.1823,,,,,,317,MAS,CON,150,número,,l,0.4511,,276.1824,276.1825,-0.025925926,-0.418518519,0,0,0,,0,84,84,316,1,,,,
,,,,,,,8c98e1004b82ed9ca8aadbd2,66a626ef09d4e21e1a8894ec,67373fb4e0b03d789ef17b54,2024-11-15_13h34.02.153,Tarea de género gramatical,2024.2.2,Win32,59.52380952,,,,,,,,,,,,,,,,,,,,,,,,276.1835,277.4324,l,1,[],[],[],[],[],[],[],0.57,1,277.4327,277.9321,,,,,,353,MAS,CON,150,verano,,l,0.57,,277.9321,277.9324,-0.025925926,-0.418518519,0,0,0,,0,85,85,352,1,,,,
,,,,,,,8c98e1004b82ed9ca8aadbd2,66a626ef09d4e21e1a8894ec,67373fb4e0b03d789ef17b54,2024-11-15_13h34.02.153,Tarea de género gramatical,2024.2.2,Win32,59.52380952,,,,,,,,,,,,,,,,,,,,,,,,277.9337,279.0991,l,1,[],[],[],[],[],[],[],0.4868,1,279.0992,279.5993,,,,,,408,MAS,DIS,150,cheque,la,l,0.4868,,279.5994,279.5995,-0.025925926,-0.418518519,0,0,0,,0,86,86,407,1,,,,
,,,,,,,8c98e1004b82ed9ca8aadbd2,66a626ef09d4e21e1a8894ec,67373fb4e0b03d789ef17b54,2024-11-15_13h34.02.153,Tarea de género gramatical,2024.2.2,Win32,59.52380952,,,,,,,,,,,,,,,,,,,,,,,,279.6008,280.7324,a,1,[],[],[],[],[],[],[],0.4504,1,280.7326,281.2323,,,,,,31,FEM,AGR,150,edad,la,a,0.4504,,281.2336,281.2342,-0.025925926,-0.418518519,0,0,0,,0,87,87,30,1,,,,
,,,,,,,8c98e1004b82ed9ca8aadbd2,66a626ef09d4e21e1a8894ec,67373fb4e0b03d789ef17b54,2024-11-15_13h34.02.153,Tarea de género gramatical,2024.2.2,Win32,59.52380952,,,,,,,,,,,,,,,,,,,,,,,,281.2349,282.4157,a,1,[],[],[],[],[],[],[],0.5008,1,282.4159,282.9159,,,,,,236,FEM,CON,150,deuda,,a,0.5008,,282.9159,282.9163,-0.025925926,-0.418518519,0,0,0,,0,88,88,235,1,,,,
,,,,,,,8c98e1004b82ed9ca8aadbd2,66a626ef09d4e21e1a8894ec,67373fb4e0b03d789ef17b54,2024-11-15_13h34.02.153,Tarea de género gramatical,2024.2.2,Win32,59.52380952,,,,,,,,,,,,,,,,,,,,,,,,282.9174,284.0324,l,1,[],[],[],[],[],[],[],0.439,1,284.0326,284.5325,,,,,,377,MAS,CON,150,jardín,,l,0.439,,284.5326,284.5328,-0.025925926,-0.418518519,0,0,0,,0,89,89,376,1,,,,
,,,,,,,8c98e1004b82ed9ca8aadbd2,66a626ef09d4e21e1a8894ec,67373fb4e0b03d789ef17b54,2024-11-15_13h34.02.153,Tarea de género gramatical,2024.2.2,Win32,59.52380952,,,,,,,,,,,,,,,,,,,,,,,,284.5339,285.6491,a,1,[],[],[],[],[],[],[],0.4382,1,285.6492,286.1492,,,,,,61,FEM,AGR,150,ruta,la,a,0.4382,,286.1494,286.1496,-0.025925926,-0.418518519,0,0,0,,0,90,90,60,1,,,,
,,,,,,,8c98e1004b82ed9ca8aadbd2,66a626ef09d4e21e1a8894ec,67373fb4e0b03d789ef17b54,2024-11-15_13h34.02.153,Tarea de género gramatical,2024.2.2,Win32,59.52380952,,,,,,,,,,,,,,,,,,,,,,,,286.1507,287.3492,l,1,[],[],[],[],[],[],[],0.5205,1,287.3493,287.8492,,,,,,197,MAS,CON,150,avión,,l,0.5205,,287.8492,287.8493,-0.025925926,-0.418518519,0,0,0,,0,91,91,196,1,,,,
,,,,,,,8c98e1004b82ed9ca8aadbd2,66a626ef09d4e21e1a8894ec,67373fb4e0b03d789ef17b54,2024-11-15_13h34.02.153,Tarea de género gramatical,2024.2.2,Win32,59.52380952,,,,,,,,,,,,,,,,,,,,,,,,287.8504,289.1328,l,1,[],[],[],[],[],[],[],0.5988,1,289.1329,289.6329,,,,,,430,MAS,AGR,150,título,el,l,0.5988,,289.6342,289.6348,-0.025925926,-0.418518519,0,0,0,,0,92,92,429,1,,,,
,,,,,,,8c98e1004b82ed9ca8aadbd2,66a626ef09d4e21e1a8894ec,67373fb4e0b03d789ef17b54,2024-11-15_13h34.02.153,Tarea de género gramatical,2024.2.2,Win32,59.52380952,,,,,,,,,,,,,,,,,,,,,,,,289.6357,291.1166,a,0,[],[],[],[],[],[],[],0.8009,0,291.1175,291.6163,,,,,,324,MAS,DIS,150,cuarto,la,l,0.8009,,291.6164,291.6166,-0.025925926,-0.418518519,0,0,0,,0,93,93,323,1,,,,
,,,,,,,8c98e1004b82ed9ca8aadbd2,66a626ef09d4e21e1a8894ec,67373fb4e0b03d789ef17b54,2024-11-15_13h34.02.153,Tarea de género gramatical,2024.2.2,Win32,59.52380952,,,,,,,,,,,,,,,,,,,,,,,,291.6177,292.6827,a,1,[],[],[],[],[],[],[],0.3857,1,292.6836,293.183,,,,,,243,FEM,DIS,150,salsa,el,a,0.3857,,293.183,293.1833,-0.025925926,-0.418518519,0,0,0,,0,94,94,242,1,,,,
,,,,,,,8c98e1004b82ed9ca8aadbd2,66a626ef09d4e21e1a8894ec,67373fb4e0b03d789ef17b54,2024-11-15_13h34.02.153,Tarea de género gramatical,2024.2.2,Win32,59.52380952,,,,,,,,,,,,,,,,,,,,,,,,293.1844,294.2495,a,1,[],[],[],[],[],[],[],0.3837,1,294.2496,294.7498,,,,,,15,FEM,DIS,150,cama,el,a,0.3837,,294.7499,294.75,-0.025925926,-0.418518519,0,0,0,,0,95,95,14,1,,,,
,,,,,,,8c98e1004b82ed9ca8aadbd2,66a626ef09d4e21e1a8894ec,67373fb4e0b03d789ef17b54,2024-11-15_13h34.02.153,Tarea de género gramatical,2024.2.2,Win32,59.52380952,,,,,,,,,,,,,,,,,,,,,,,,294.7512,296.0498,l,1,[],[],[],[],[],[],[],0.6174,1,296.0499,296.5496,,,,,,90,MAS,DIS,150,león,la,l,0.6174,,296.5509,296.5515,-0.025925926,-0.418518519,0,0,0,,0,96,96,89,1,,,,
,,,,,,,8c98e1004b82ed9ca8aadbd2,66a626ef09d4e21e1a8894ec,67373fb4e0b03d789ef17b54,2024-11-15_13h34.02.153,Tarea de género gramatical,2024.2.2,Win32,59.52380952,,,,,,,,,,,,,,,,,,,,,,,,296.5521,297.6831,a,0,[],[],[],[],[],[],[],0.4504,0,297.6843,298.1829,,,,,,420,MAS,DIS,150,helado,la,l,0.4504,,298.183,298.1833,-0.025925926,-0.418518519,0,0,0,,0,97,97,419,1,,,,
,,,,,,,8c98e1004b82ed9ca8aadbd2,66a626ef09d4e21e1a8894ec,67373fb4e0b03d789ef17b54,2024-11-15_13h34.02.153,Tarea de género gramatical,2024.2.2,Win32,59.52380952,,,,,,,,,,,,,,,,,,,,,,,,298.1852,299.4162,a,1,[],[],[],[],[],[],[],0.5501,1,299.4172,299.9165,,,,,,147,FEM,DIS,150,grúa,el,a,0.5501,,299.9165,299.917,-0.025925926,-0.418518519,0,0,0,,0,98,98,146,1,,,,
,,,,,,,8c98e1004b82ed9ca8aadbd2,66a626ef09d4e21e1a8894ec,67373fb4e0b03d789ef17b54,2024-11-15_13h34.02.153,Tarea de género gramatical,2024.2.2,Win32,59.52380952,,,,,,,,,,,,,,,,,,,,,,,,299.918,301.0333,l,1,[],[],[],[],[],[],[],0.434,1,301.0334,301.5333,,,,,,323,MAS,CON,150,marido,,l,0.434,,301.5334,301.5336,-0.025925926,-0.418518519,0,0,0,,0,99,99,322,1,,,,
,,,,,,,8c98e1004b82ed9ca8aadbd2,66a626ef09d4e21e1a8894ec,67373fb4e0b03d789ef17b54,2024-11-15_13h34.02.153,Tarea de género gramatical,2024.2.2,Win32,59.52380952,,,,,,,,,,,,,,,,,,,,,,,,301.5347,302.6168,a,1,[],[],[],[],[],[],[],0.4004,1,302.617,303.1165,,,,,,206,FEM,CON,150,época,,a,0.4004,,303.1166,303.1168,-0.025925926,-0.418518519,0,0,0,,0,100,100,205,1,,,,
,,,,,,,8c98e1004b82ed9ca8aadbd2,66a626ef09d4e21e1a8894ec,67373fb4e0b03d789ef17b54,2024-11-15_13h34.02.153,Tarea de género gramatical,2024.2.2,Win32,59.52380952,,,,,,,,,,,,,,,,,,,,,,,,303.118,304.1501,l,1,[],[],[],[],[],[],[],0.351,1,304.1502,304.6501,,,,,,16,MAS,AGR,150,baño,el,l,0.351,,304.6515,304.6522,-0.025925926,-0.418518519,0,0,0,,0,101,101,15,1,,,,
,,,,,,,8c98e1004b82ed9ca8aadbd2,66a626ef09d4e21e1a8894ec,67373fb4e0b03d789ef17b54,2024-11-15_13h34.02.153,Tarea de género gramatical,2024.2.2,Win32,59.52380952,,,,,,,,,,,,,,,,,,,,,,,,304.6529,305.7666,l,1,[],[],[],[],[],[],[],0.434,1,305.7668,306.2665,,,,,,70,MAS,AGR,150,palo,el,l,0.434,,306.2671,306.2671,-0.025925926,-0.418518519,0,0,0,,0,102,102,69,1,,,,
,,,,,,,8c98e1004b82ed9ca8aadbd2,66a626ef09d4e21e1a8894ec,67373fb4e0b03d789ef17b54,2024-11-15_13h34.02.153,Tarea de género gramatical,2024.2.2,Win32,59.52380952,,,,,,,,,,,,,,,,,,,,,,,,306.2682,307.4167,a,1,[],[],[],[],[],[],[],0.4695,1,307.4168,307.9167,,,,,,164,FEM,CON,150,novia,,a,0.4695,,307.9168,307.9169,-0.025925926,-0.418518519,0,0,0,,0,103,103,163,1,,,,
,,,,,,,8c98e1004b82ed9ca8aadbd2,66a626ef09d4e21e1a8894ec,67373fb4e0b03d789ef17b54,2024-11-15_13h34.02.153,Tarea de género gramatical,2024.2.2,Win32,59.52380952,,,,,,,,,,,,,,,,,,,,,,,,307.9177,309.1667,a,1,[],[],[],[],[],[],[],0.5676,1,309.1669,309.6668,,,,,,326,FEM,CON,150,música,,a,0.5676,,309.6669,309.6672,-0.025925926,-0.418518519,0,0,0,,0,104,104,325,1,,,,
,,,,,,,8c98e1004b82ed9ca8aadbd2,66a626ef09d4e21e1a8894ec,67373fb4e0b03d789ef17b54,2024-11-15_13h34.02.153,Tarea de género gramatical,2024.2.2,Win32,59.52380952,,,,,,,,,,,,,,,,,,,,,,,,309.6682,310.8,a,1,[],[],[],[],[],[],[],0.4506,1,310.8002,311.3,,,,,,411,FEM,DIS,150,actriz,el,a,0.4506,,311.3015,311.3022,-0.025925926,-0.418518519,0,0,0,,0,105,105,410,1,,,,
,,,,,,,8c98e1004b82ed9ca8aadbd2,66a626ef09d4e21e1a8894ec,67373fb4e0b03d789ef17b54,2024-11-15_13h34.02.153,Tarea de género gramatical,2024.2.2,Win32,59.52380952,,,,,,,,,,,,,,,,,,,,,,,,311.3033,312.3835,l,1,[],[],[],[],[],[],[],0.4016,1,312.3836,312.8834,,,,,,352,MAS,AGR,150,estilo,el,l,0.4016,,312.8834,312.8836,-0.025925926,-0.418518519,0,0,0,,0,106,106,351,1,,,,
,,,,,,,8c98e1004b82ed9ca8aadbd2,66a626ef09d4e21e1a8894ec,67373fb4e0b03d789ef17b54,2024-11-15_13h34.02.153,Tarea de género gramatical,2024.2.2,Win32,59.52380952,,,,,,,,,,,,,,,,,,,,,,,,312.8847,314.0667,a,1,[],[],[],[],[],[],[],0.5035,1,314.0668,314.5669,,,,,,225,FEM,DIS,150,pieza,el,a,0.5035,,314.567,314.5672,-0.025925926,-0.418518519,0,0,0,,0,107,107,224,1,,,,
,,,,,,,8c98e1004b82ed9ca8aadbd2,66a626ef09d4e21e1a8894ec,67373fb4e0b03d789ef17b54,2024-11-15_13h34.02.153,Tarea de género gramatical,2024.2.2,Win32,59.52380952,,,,,,,,,,,,,,,,,,,,,,,,314.5684,316.0673,a,1,[],[],[],[],[],[],[],0.8169,1,316.0674,316.567,,,,,,249,FEM,DIS,150,crema,el,a,0.8169,,316.567,316.5671,-0.025925926,-0.418518519,0,0,0,,0,108,108,248,1,,,,
,,,,,,,8c98e1004b82ed9ca8aadbd2,66a626ef09d4e21e1a8894ec,67373fb4e0b03d789ef17b54,2024-11-15_13h34.02.153,Tarea de género gramatical,2024.2.2,Win32,59.52380952,,,,,,,,,,,,,,,,,,,,,,,,316.5679,317.7503,l,1,[],[],[],[],[],[],[],0.5017,1,317.7503,318.2505,,,,,,419,MAS,CON,150,cuento,,l,0.5017,,318.2506,318.2508,-0.025925926,-0.418518519,0,0,0,,0,109,109,418,1,,,,
,,,,,,,8c98e1004b82ed9ca8aadbd2,66a626ef09d4e21e1a8894ec,67373fb4e0b03d789ef17b54,2024-11-15_13h34.02.153,Tarea de género gramatical,2024.2.2,Win32,59.52380952,,,,,,,,,,,,,,,,,,,,,,,,318.252,319.984,a,1,[],[],[],[],[],[],[],1.0505,1,319.984,320.4838,,,,,,313,FEM,AGR,150,ciudad,la,a,1.0505,,320.4852,320.4857,-0.025925926,-0.418518519,0,0,0,,0,110,110,312,1,,,,
,,,,,,,8c98e1004b82ed9ca8aadbd2,66a626ef09d4e21e1a8894ec,67373fb4e0b03d789ef17b54,2024-11-15_13h34.02.153,Tarea de género gramatical,2024.2.2,Win32,59.52380952,,,,,,,,,,,,,,,,,,,,,,,,320.4863,321.6839,l,1,[],[],[],[],[],[],[],0.5169,1,321.684,322.1839,,,,,,450,MAS,DIS,150,conejo,la,l,0.5169,,322.184,322.1842,-0.025925926,-0.418518519,0,0,0,,0,111,111,449,1,,,,
,,,,,,,8c98e1004b82ed9ca8aadbd2,66a626ef09d4e21e1a8894ec,67373fb4e0b03d789ef17b54,2024-11-15_13h34.02.153,Tarea de género gramatical,2024.2.2,Win32,59.52380952,,,,,,,,,,,,,,,,,,,,,,,,322.1855,323.3173,a,1,[],[],[],[],[],[],[],0.4428,1,323.3174,323.8173,,,,,,121,FEM,AGR,150,pila,la,a,0.4428,,323.8174,323.8176,-0.025925926,-0.418518519,0,0,0,,0,112,112,120,1,,,,
,,,,,,,8c98e1004b82ed9ca8aadbd2,66a626ef09d4e21e1a8894ec,67373fb4e0b03d789ef17b54,2024-11-15_13h34.02.153,Tarea de género gramatical,2024.2.2,Win32,59.52380952,,,,,,,,,,,,,,,,,,,,,,,,323.8187,325.151,a,1,[],[],[],[],[],[],[],0.6545,1,325.1511,325.6508,,,,,,237,FEM,DIS,150,ducha,el,a,0.6545,,325.6511,325.6512,-0.025925926,-0.418518519,0,0,0,,0,113,113,236,1,,,,
,,,,,,,8c98e1004b82ed9ca8aadbd2,66a626ef09d4e21e1a8894ec,67373fb4e0b03d789ef17b54,2024-11-15_13h34.02.153,Tarea de género gramatical,2024.2.2,Win32,59.52380952,,,,,,,,,,,,,,,,,,,,,,,,325.6524,326.851,l,1,[],[],[],[],[],[],[],0.5175,1,326.8512,327.3506,,,,,,136,MAS,AGR,150,vago,el,l,0.5175,,327.352,327.3525,-0.025925926,-0.418518519,0,0,0,,0,114,114,135,1,,,,
,,,,,,,8c98e1004b82ed9ca8aadbd2,66a626ef09d4e21e1a8894ec,67373fb4e0b03d789ef17b54,2024-11-15_13h34.02.153,Tarea de género gramatical,2024.2.2,Win32,59.52380952,,,,,,,,,,,,,,,,,,,,,,,,327.3531,328.5009,a,1,[],[],[],[],[],[],[],0.4674,1,328.501,329.0009,,,,,,169,FEM,AGR,150,vista,la,a,0.4674,,329.001,329.0013,-0.025925926,-0.418518519,0,0,0,,0,115,115,168,1,,,,
,,,,,,,8c98e1004b82ed9ca8aadbd2,66a626ef09d4e21e1a8894ec,67373fb4e0b03d789ef17b54,2024-11-15_13h34.02.153,Tarea de género gramatical,2024.2.2,Win32,59.52380952,,,,,,,,,,,,,,,,,,,,,,,,329.0025,330.1843,l,1,[],[],[],[],[],[],[],0.5033,1,330.1844,330.684,,,,,,168,MAS,DIS,150,sitio,la,l,0.5033,,330.6841,330.6842,-0.025925926,-0.418518519,0,0,0,,0,116,116,167,1,,,,
,,,,,,,8c98e1004b82ed9ca8aadbd2,66a626ef09d4e21e1a8894ec,67373fb4e0b03d789ef17b54,2024-11-15_13h34.02.153,Tarea de género gramatical,2024.2.2,Win32,59.52380952,,,,,,,,,,,,,,,,,,,,,,,,330.6854,331.9176,l,1,[],[],[],[],[],[],[],0.5532,1,331.9178,332.4177,,,,,,185,MAS,CON,150,sueño,,l,0.5532,,332.4181,332.4182,-0.025925926,-0.418518519,0,0,0,,0,117,117,184,1,,,,
,,,,,,,8c98e1004b82ed9ca8aadbd2,66a626ef09d4e21e1a8894ec,67373fb4e0b03d789ef17b54,2024-11-15_13h34.02.153,Tarea de género gramatical,2024.2.2,Win32,59.52380952,,,,,,,,,,,,,,,,,,,,,,,,332.4192,333.6509,l,1,[],[],[],[],[],[],[],0.5522,1,333.6512,334.151,,,,,,228,MAS,DIS,150,nivel,la,l,0.5522,,334.1511,334.1515,-0.025925926,-0.418518519,0,0,0,,0,118,118,227,1,,,,
,,,,,,,8c98e1004b82ed9ca8aadbd2,66a626ef09d4e21e1a8894ec,67373fb4e0b03d789ef17b54,2024-11-15_13h34.02.153,Tarea de género gramatical,2024.2.2,Win32,59.52380952,,,,,,,,,,,,,,,,,,,,,,,,334.1529,335.5849,a,1,[],[],[],[],[],[],[],0.7506,1,335.5849,336.0842,,,,,,122,FEM,CON,150,loca,,a,0.7506,,336.0854,336.086,-0.025925926,-0.418518519,0,0,0,,0,119,119,121,1,,,,
,,,,,,,8c98e1004b82ed9ca8aadbd2,66a626ef09d4e21e1a8894ec,67373fb4e0b03d789ef17b54,2024-11-15_13h34.02.153,Tarea de género gramatical,2024.2.2,Win32,59.52380952,,,,,,,,,,,,,,,,,,,,,,,,336.0866,337.2679,l,1,[],[],[],[],[],[],[],0.5008,1,337.268,337.7678,,,,,,371,MAS,CON,150,sonido,,l,0.5008,,337.7679,337.7681,-0.025925926,-0.418518519,0,0,0,,0,120,120,370,1,,,,
,,,,,,,8c98e1004b82ed9ca8aadbd2,66a626ef09d4e21e1a8894ec,67373fb4e0b03d789ef17b54,2024-11-15_13h34.02.153,Tarea de género gramatical,2024.2.2,Win32,59.52380952,,,,,,,,,,,,,,,,,,,,,,,,337.7692,338.9845,a,1,[],[],[],[],[],[],[],0.5387,1,338.9846,339.4844,,,,,,74,FEM,CON,150,flor,,a,0.5387,,339.4846,339.4848,-0.025925926,-0.418518519,0,0,0,,0,121,121,73,1,,,,
,,,,,,,8c98e1004b82ed9ca8aadbd2,66a626ef09d4e21e1a8894ec,67373fb4e0b03d789ef17b54,2024-11-15_13h34.02.153,Tarea de género gramatical,2024.2.2,Win32,59.52380952,,,,,,,,,,,,,,,,,,,,,,,,339.4858,340.9346,l,1,[],[],[],[],[],[],[],0.7672,1,340.9347,341.4348,,,,,,300,MAS,DIS,150,túnel,la,l,0.7672,,341.4348,341.435,-0.025925926,-0.418518519,0,0,0,,0,122,122,299,1,,,,
,,,,,,,8c98e1004b82ed9ca8aadbd2,66a626ef09d4e21e1a8894ec,67373fb4e0b03d789ef17b54,2024-11-15_13h34.02.153,Tarea de género gramatical,2024.2.2,Win32,59.52380952,,,,,,,,,,,,,,,,,,,,,,,,341.4361,342.5177,a,1,[],[],[],[],[],[],[],0.4023,1,342.5178,343.018,,,,,,271,FEM,AGR,150,viuda,la,a,0.4023,,343.0193,343.02,-0.025925926,-0.418518519,0,0,0,,0,123,123,270,1,,,,
,,,,,,,8c98e1004b82ed9ca8aadbd2,66a626ef09d4e21e1a8894ec,67373fb4e0b03d789ef17b54,2024-11-15_13h34.02.153,Tarea de género gramatical,2024.2.2,Win32,59.52380952,,,,,,,,,,,,,,,,,,,,,,,,343.0207,344.068,l,1,[],[],[],[],[],[],[],0.3674,1,344.0683,344.5681,,,,,,258,MAS,DIS,150,polvo,la,l,0.3674,,344.5683,344.5686,-0.025925926,-0.418518519,0,0,0,,0,124,124,257,1,,,,
,,,,,,,8c98e1004b82ed9ca8aadbd2,66a626ef09d4e21e1a8894ec,67373fb4e0b03d789ef17b54,2024-11-15_13h34.02.153,Tarea de género gramatical,2024.2.2,Win32,59.52380952,,,,,,,,,,,,,,,,,,,,,,,,344.5696,345.6519,l,1,[],[],[],[],[],[],[],0.4072,1,345.6521,346.1516,,,,,,442,MAS,AGR,150,cuadro,el,l,0.4072,,346.1517,346.1519,-0.025925926,-0.418518519,0,0,0,,0,125,125,441,1,,,,
,,,,,,,8c98e1004b82ed9ca8aadbd2,66a626ef09d4e21e1a8894ec,67373fb4e0b03d789ef17b54,2024-11-15_13h34.02.153,Tarea de género gramatical,2024.2.2,Win32,59.52380952,,,,,,,,,,,,,,,,,,,,,,,,346.153,347.2346,a,1,[],[],[],[],[],[],[],0.4001,1,347.2347,347.7349,,,,,,14,FEM,CON,150,cara,,a,0.4001,,347.7351,347.7352,-0.025925926,-0.418518519,0,0,0,,0,126,126,13,1,,,,
,,,,,,,8c98e1004b82ed9ca8aadbd2,66a626ef09d4e21e1a8894ec,67373fb4e0b03d789ef17b54,2024-11-15_13h34.02.153,Tarea de género gramatical,2024.2.2,Win32,59.52380952,,,,,,,,,,,,,,,,,,,,,,,,347.7362,348.9679,l,1,[],[],[],[],[],[],[],0.5503,1,348.9679,349.4683,,,,,,366,MAS,DIS,150,riesgo,la,l,0.5503,,349.4684,349.4686,-0.025925926,-0.418518519,0,0,0,,0,127,127,365,1,,,,
,,,,,,,8c98e1004b82ed9ca8aadbd2,66a626ef09d4e21e1a8894ec,67373fb4e0b03d789ef17b54,2024-11-15_13h34.02.153,Tarea de género gramatical,2024.2.2,Win32,59.52380952,,,,,,,,,,,,,,,,,,,,,,,,349.4699,350.8353,l,1,[],[],[],[],[],[],[],0.6836,1,350.8354,351.3351,,,,,,372,MAS,DIS,150,delito,la,l,0.6836,,351.3364,351.3369,-0.025925926,-0.418518519,0,0,0,,0,128,128,371,1,,,,
,,,,,,,8c98e1004b82ed9ca8aadbd2,66a626ef09d4e21e1a8894ec,67373fb4e0b03d789ef17b54,2024-11-15_13h34.02.153,Tarea de género gramatical,2024.2.2,Win32,59.52380952,,,,,,,,,,,,,,,,,,,,,,,,351.3374,352.5185,l,1,[],[],[],[],[],[],[],0.5006,1,352.5186,353.0184,,,,,,293,MAS,CON,150,patio,,l,0.5006,,353.0185,353.0187,-0.025925926,-0.418518519,0,0,0,,0,129,129,292,1,,,,
,,,,,,,8c98e1004b82ed9ca8aadbd2,66a626ef09d4e21e1a8894ec,67373fb4e0b03d789ef17b54,2024-11-15_13h34.02.153,Tarea de género gramatical,2024.2.2,Win32,59.52380952,,,,,,,,,,,,,,,,,,,,,,,,353.0199,354.2351,a,1,[],[],[],[],[],[],[],0.5341,1,354.2354,354.7351,,,,,,308,FEM,CON,150,semana,,a,0.5341,,354.7351,354.7354,-0.025925926,-0.418518519,0,0,0,,0,130,130,307,1,,,,
,,,,,,,8c98e1004b82ed9ca8aadbd2,66a626ef09d4e21e1a8894ec,67373fb4e0b03d789ef17b54,2024-11-15_13h34.02.153,Tarea de género gramatical,2024.2.2,Win32,59.52380952,,,,,,,,,,,,,,,,,,,,,,,,354.7365,355.885,l,1,[],[],[],[],[],[],[],0.4671,1,355.885,356.3851,,,,,,316,MAS,AGR,150,cuerpo,el,l,0.4671,,356.3852,356.3854,-0.025925926,-0.418518519,0,0,0,,0,131,131,315,1,,,,
,,,,,,,8c98e1004b82ed9ca8aadbd2,66a626ef09d4e21e1a8894ec,67373fb4e0b03d789ef17b54,2024-11-15_13h34.02.153,Tarea de género gramatical,2024.2.2,Win32,59.52380952,,,,,,,,,,,,,,,,,,,,,,,,356.3865,357.4352,l,1,[],[],[],[],[],[],[],0.3673,1,357.4354,357.9349,,,,,,322,MAS,AGR,150,minuto,el,l,0.3673,,357.9362,357.9368,-0.025925926,-0.418518519,0,0,0,,0,132,132,321,1,,,,
,,,,,,,8c98e1004b82ed9ca8aadbd2,66a626ef09d4e21e1a8894ec,67373fb4e0b03d789ef17b54,2024-11-15_13h34.02.153,Tarea de género gramatical,2024.2.2,Win32,59.52380952,,,,,,,,,,,,,,,,,,,,,,,,357.9374,359.0018,a,1,[],[],[],[],[],[],[],0.3843,1,359.002,359.5019,,,,,,151,FEM,AGR,150,noche,la,a,0.3843,,359.5019,359.5021,-0.025925926,-0.418518519,0,0,0,,0,133,133,150,1,,,,
,,,,,,,8c98e1004b82ed9ca8aadbd2,66a626ef09d4e21e1a8894ec,67373fb4e0b03d789ef17b54,2024-11-15_13h34.02.153,Tarea de género gramatical,2024.2.2,Win32,59.52380952,,,,,,,,,,,,,,,,,,,,,,,,359.5031,360.552,a,1,[],[],[],[],[],[],[],0.3675,1,360.5522,361.052,,,,,,212,FEM,CON,150,cinta,,a,0.3675,,361.052,361.0522,-0.025925926,-0.418518519,0,0,0,,0,134,134,211,1,,,,
,,,,,,,8c98e1004b82ed9ca8aadbd2,66a626ef09d4e21e1a8894ec,67373fb4e0b03d789ef17b54,2024-11-15_13h34.02.153,Tarea de género gramatical,2024.2.2,Win32,59.52380952,,,,,,,,,,,,,,,,,,,,,,,,361.0533,362.1187,a,1,[],[],[],[],[],[],[],0.3839,1,362.1189,362.6187,,,,,,205,FEM,AGR,150,reina,la,a,0.3839,,362.6189,362.619,-0.025925926,-0.418518519,0,0,0,,0,135,135,204,1,,,,
,,,,,,,8c98e1004b82ed9ca8aadbd2,66a626ef09d4e21e1a8894ec,67373fb4e0b03d789ef17b54,2024-11-15_13h34.02.153,Tarea de género gramatical,2024.2.2,Win32,59.52380952,,,,,,,,,,,,,,,,,,,,,,,,362.6202,363.7685,a,1,[],[],[],[],[],[],[],0.4669,1,363.7686,364.2689,,,,,,176,FEM,CON,150,línea,,a,0.4669,,364.2691,364.2692,-0.025925926,-0.418518519,0,0,0,,0,136,136,175,1,,,,
,,,,,,,8c98e1004b82ed9ca8aadbd2,66a626ef09d4e21e1a8894ec,67373fb4e0b03d789ef17b54,2024-11-15_13h34.02.153,Tarea de género gramatical,2024.2.2,Win32,59.52380952,,,,,,,,,,,,,,,,,,,,,,,,364.2703,365.2855,l,1,[],[],[],[],[],[],[],0.3335,1,365.2856,365.7853,,,,,,41,MAS,CON,150,bote,,l,0.3335,,365.7869,365.7876,-0.025925926,-0.418518519,0,0,0,,0,137,137,40,1,,,,
,,,,,,,8c98e1004b82ed9ca8aadbd2,66a626ef09d4e21e1a8894ec,67373fb4e0b03d789ef17b54,2024-11-15_13h34.02.153,Tarea de género gramatical,2024.2.2,Win32,59.52380952,,,,,,,,,,,,,,,,,,,,,,,,365.7884,366.8856,a,1,[],[],[],[],[],[],[],0.4175,1,366.8857,367.3855,,,,,,33,FEM,DIS,150,boda,el,a,0.4175,,367.3855,367.3858,-0.025925926,-0.418518519,0,0,0,,0,138,138,32,1,,,,
,,,,,,,8c98e1004b82ed9ca8aadbd2,66a626ef09d4e21e1a8894ec,67373fb4e0b03d789ef17b54,2024-11-15_13h34.02.153,Tarea de género gramatical,2024.2.2,Win32,59.52380952,,,,,,,,,,,,,,,,,,,,,,,,367.3868,368.4689,a,1,[],[],[],[],[],[],[],0.4009,1,368.4691,368.9696,,,,,,403,FEM,AGR,150,paliza,la,a,0.4009,,368.9697,368.9697,-0.025925926,-0.418518519,0,0,0,,0,139,139,402,1,,,,
,,,,,,,8c98e1004b82ed9ca8aadbd2,66a626ef09d4e21e1a8894ec,67373fb4e0b03d789ef17b54,2024-11-15_13h34.02.153,Tarea de género gramatical,2024.2.2,Win32,59.52380952,,,,,,,,,,,,,,,,,,,,,,,,368.9705,370.2186,l,0,[],[],[],[],[],[],[],0.5718,0,370.2196,370.719,,,,,,255,FEM,DIS,150,tribu,el,a,0.5718,,370.7191,370.7193,-0.025925926,-0.418518519,0,0,0,,0,140,140,254,1,,,,
,,,,,,,8c98e1004b82ed9ca8aadbd2,66a626ef09d4e21e1a8894ec,67373fb4e0b03d789ef17b54,2024-11-15_13h34.02.153,Tarea de género gramatical,2024.2.2,Win32,59.52380952,,,,,,,,,,,,,,,,,,,,,,,,370.7203,372.8689,a,1,[],[],[],[],[],[],[],1.4729,1,372.8697,373.369,,,,,,344,FEM,CON,150,pareja,,a,1.4729,,373.3702,373.3709,-0.025925926,-0.418518519,0,0,0,,0,141,141,343,1,,,,
,,,,,,,8c98e1004b82ed9ca8aadbd2,66a626ef09d4e21e1a8894ec,67373fb4e0b03d789ef17b54,2024-11-15_13h34.02.153,Tarea de género gramatical,2024.2.2,Win32,59.52380952,,,,,,,,,,,,,,,,,,,,,,,,373.3715,376.0191,,0,[],[],[],[],[],[],[],1.4729,-1,376.0202,376.5192,,,,,,309,FEM,DIS,150,esposa,el,a,,,376.5194,376.5196,0.021296296,-0.056481481,0,0,0,,0,142,142,308,1,,,,
,,,,,,,8c98e1004b82ed9ca8aadbd2,66a626ef09d4e21e1a8894ec,67373fb4e0b03d789ef17b54,2024-11-15_13h34.02.153,Tarea de género gramatical,2024.2.2,Win32,59.52380952,,,,,,,,,,,,,,,,,,,,,,,,376.5208,379.1694,,0,[],[],[],[],[],[],[],1.4729,-1,379.1696,379.6694,,,,,,152,FEM,CON,150,gente,,a,,,379.6696,379.6698,0.021296296,-0.056481481,0,0,0,,0,143,143,151,1,,,,
,,,,,,,8c98e1004b82ed9ca8aadbd2,66a626ef09d4e21e1a8894ec,67373fb4e0b03d789ef17b54,2024-11-15_13h34.02.153,Tarea de género gramatical,2024.2.2,Win32,59.52380952,,,,,,,,,,,,,,,,,,,,,,,,379.6709,381.0028,l,1,[],[],[],[],[],[],[],0.6546,1,381.0038,381.5026,,,,,,359,MAS,CON,150,bosque,,l,0.6546,,381.5028,381.5028,0.021296296,-0.056481481,0,0,0,,0,144,144,358,1,,,,
,,,,,,,8c98e1004b82ed9ca8aadbd2,66a626ef09d4e21e1a8894ec,67373fb4e0b03d789ef17b54,2024-11-15_13h34.02.153,Tarea de género gramatical,2024.2.2,Win32,59.52380952,,,,,,,,,,,,,,,,,,,,,,,,381.5038,382.603,a,1,[],[],[],[],[],[],[],0.4173,1,382.6031,383.1027,,,,,,434,FEM,CON,150,corona,,a,0.4173,,383.1028,383.103,0.021296296,-0.056481481,0,0,0,,0,145,145,433,1,,,,
,,,,,,,8c98e1004b82ed9ca8aadbd2,66a626ef09d4e21e1a8894ec,67373fb4e0b03d789ef17b54,2024-11-15_13h34.02.153,Tarea de género gramatical,2024.2.2,Win32,59.52380952,,,,,,,,,,,,,,,,,,,,,,,,383.1039,384.3695,l,1,[],[],[],[],[],[],[],0.5837,1,384.3697,384.8696,,,,,,215,MAS,CON,150,hueso,,l,0.5837,,384.8711,384.8717,0.021296296,-0.056481481,0,0,0,,0,146,146,214,1,,,,
,,,,,,,8c98e1004b82ed9ca8aadbd2,66a626ef09d4e21e1a8894ec,67373fb4e0b03d789ef17b54,2024-11-15_13h34.02.153,Tarea de género gramatical,2024.2.2,Win32,59.52380952,,,,,,,,,,,,,,,,,,,,,,,,384.8724,386.203,a,1,[],[],[],[],[],[],[],0.6506,1,386.2031,386.7026,,,,,,362,FEM,CON,150,fuente,,a,0.6506,,386.7026,386.7028,0.021296296,-0.056481481,0,0,0,,0,147,147,361,1,,,,
,,,,,,,8c98e1004b82ed9ca8aadbd2,66a626ef09d4e21e1a8894ec,67373fb4e0b03d789ef17b54,2024-11-15_13h34.02.153,Tarea de género gramatical,2024.2.2,Win32,59.52380952,,,,,,,,,,,,,,,,,,,,,,,,386.7041,387.8697,l,0,[],[],[],[],[],[],[],0.488,0,387.8709,388.3696,,,,,,55,FEM,AGR,150,taza,la,a,0.488,,388.3698,388.37,0.021296296,-0.056481481,0,0,0,,0,148,148,54,1,,,,
,,,,,,,8c98e1004b82ed9ca8aadbd2,66a626ef09d4e21e1a8894ec,67373fb4e0b03d789ef17b54,2024-11-15_13h34.02.153,Tarea de género gramatical,2024.2.2,Win32,59.52380952,,,,,,,,,,,,,,,,,,,,,,,,388.3712,389.4863,a,1,[],[],[],[],[],[],[],0.4333,1,389.4876,389.9864,,,,,,284,FEM,CON,150,fruta,,a,0.4333,,389.9864,389.9867,0.021296296,-0.056481481,0,0,0,,0,149,149,283,1,,,,
,,,,,,,8c98e1004b82ed9ca8aadbd2,66a626ef09d4e21e1a8894ec,67373fb4e0b03d789ef17b54,2024-11-15_13h34.02.153,Tarea de género gramatical,2024.2.2,Win32,59.52380952,,,,,,,,,,,,,,,,,,,,,,,,389.9877,391.0693,l,1,[],[],[],[],[],[],[],0.4011,1,391.0695,391.57,,,,,,119,MAS,CON,150,mito,,l,0.4011,,391.5714,400.2704,0.021296296,-0.056481481,0,0,0,space,0,150,150,118,1,8.6855,,,
,,,,,,,8c98e1004b82ed9ca8aadbd2,66a626ef09d4e21e1a8894ec,67373fb4e0b03d789ef17b54,2024-11-15_13h34.02.153,Tarea de género gramatical,2024.2.2,Win32,59.52380952,,,,,,,,,,,,,,,,,,,,,,,,400.2717,401.3869,a,1,[],[],[],[],[],[],[],0.4339,1,401.3871,401.8865,,,,,,133,FEM,AGR,150,joya,la,a,0.4339,,401.8866,401.8867,0.021296296,-0.056481481,0,0,0,,0,151,151,132,1,,,,
,,,,,,,8c98e1004b82ed9ca8aadbd2,66a626ef09d4e21e1a8894ec,67373fb4e0b03d789ef17b54,2024-11-15_13h34.02.153,Tarea de género gramatical,2024.2.2,Win32,59.52380952,,,,,,,,,,,,,,,,,,,,,,,,401.8876,402.9703,l,1,[],[],[],[],[],[],[],0.4006,1,402.9704,403.4701,,,,,,365,MAS,CON,150,código,,l,0.4006,,403.4703,403.4704,0.021296296,-0.056481481,0,0,0,,0,152,152,364,1,,,,
,,,,,,,8c98e1004b82ed9ca8aadbd2,66a626ef09d4e21e1a8894ec,67373fb4e0b03d789ef17b54,2024-11-15_13h34.02.153,Tarea de género gramatical,2024.2.2,Win32,59.52380952,,,,,,,,,,,,,,,,,,,,,,,,403.4716,404.6202,l,1,[],[],[],[],[],[],[],0.4701,1,404.6204,405.1204,,,,,,221,MAS,CON,150,brazo,,l,0.4701,,405.1205,405.1206,0.021296296,-0.056481481,0,0,0,,0,153,153,220,1,,,,
,,,,,,,8c98e1004b82ed9ca8aadbd2,66a626ef09d4e21e1a8894ec,67373fb4e0b03d789ef17b54,2024-11-15_13h34.02.153,Tarea de género gramatical,2024.2.2,Win32,59.52380952,,,,,,,,,,,,,,,,,,,,,,,,405.1218,406.6204,a,1,[],[],[],[],[],[],[],0.8199,1,406.6205,407.1204,,,,,,111,FEM,DIS,150,goma,el,a,0.8199,,407.1205,407.1207,0.021296296,-0.056481481,0,0,0,,0,154,154,110,1,,,,
,,,,,,,8c98e1004b82ed9ca8aadbd2,66a626ef09d4e21e1a8894ec,67373fb4e0b03d789ef17b54,2024-11-15_13h34.02.153,Tarea de género gramatical,2024.2.2,Win32,59.52380952,,,,,,,,,,,,,,,,,,,,,,,,407.122,408.3537,l,1,[],[],[],[],[],[],[],0.5512,1,408.3539,408.8533,,,,,,148,MAS,AGR,150,surf,el,l,0.5512,,408.8544,408.8549,0.021296296,-0.056481481,0,0,0,,0,155,155,147,1,,,,
,,,,,,,8c98e1004b82ed9ca8aadbd2,66a626ef09d4e21e1a8894ec,67373fb4e0b03d789ef17b54,2024-11-15_13h34.02.153,Tarea de género gramatical,2024.2.2,Win32,59.52380952,,,,,,,,,,,,,,,,,,,,,,,,408.8556,410.0038,l,1,[],[],[],[],[],[],[],0.4673,1,410.0039,410.5038,,,,,,210,MAS,DIS,150,baile,la,l,0.4673,,410.5039,410.5041,0.021296296,-0.056481481,0,0,0,,0,156,156,209,1,,,,
,,,,,,,8c98e1004b82ed9ca8aadbd2,66a626ef09d4e21e1a8894ec,67373fb4e0b03d789ef17b54,2024-11-15_13h34.02.153,Tarea de género gramatical,2024.2.2,Win32,59.52380952,,,,,,,,,,,,,,,,,,,,,,,,410.5053,411.8371,a,1,[],[],[],[],[],[],[],0.651,1,411.8373,412.3373,,,,,,189,FEM,DIS,150,pista,el,a,0.651,,412.3373,412.3375,0.021296296,-0.056481481,0,0,0,,0,157,157,188,1,,,,
,,,,,,,8c98e1004b82ed9ca8aadbd2,66a626ef09d4e21e1a8894ec,67373fb4e0b03d789ef17b54,2024-11-15_13h34.02.153,Tarea de género gramatical,2024.2.2,Win32,59.52380952,,,,,,,,,,,,,,,,,,,,,,,,412.3386,413.4705,l,1,[],[],[],[],[],[],[],0.4521,1,413.4706,413.9706,,,,,,192,MAS,DIS,150,grupo,la,l,0.4521,,413.9707,413.971,0.021296296,-0.056481481,0,0,0,,0,158,158,191,1,,,,
,,,,,,,8c98e1004b82ed9ca8aadbd2,66a626ef09d4e21e1a8894ec,67373fb4e0b03d789ef17b54,2024-11-15_13h34.02.153,Tarea de género gramatical,2024.2.2,Win32,59.52380952,,,,,,,,,,,,,,,,,,,,,,,,413.972,415.187,a,1,[],[],[],[],[],[],[],0.5335,1,415.1871,415.6878,,,,,,13,FEM,AGR,150,hija,la,a,0.5335,,415.6889,415.6894,0.021296296,-0.056481481,0,0,0,,0,159,159,12,1,,,,
,,,,,,,8c98e1004b82ed9ca8aadbd2,66a626ef09d4e21e1a8894ec,67373fb4e0b03d789ef17b54,2024-11-15_13h34.02.153,Tarea de género gramatical,2024.2.2,Win32,59.52380952,,,,,,,,,,,,,,,,,,,,,,,,415.6902,416.8208,a,1,[],[],[],[],[],[],[],0.4513,1,416.821,417.3207,,,,,,283,FEM,AGR,150,pluma,la,a,0.4513,,417.321,417.3211,0.021296296,-0.056481481,0,0,0,,0,160,160,282,1,,,,
,,,,,,,8c98e1004b82ed9ca8aadbd2,66a626ef09d4e21e1a8894ec,67373fb4e0b03d789ef17b54,2024-11-15_13h34.02.153,Tarea de género gramatical,2024.2.2,Win32,59.52380952,,,,,,,,,,,,,,,,,,,,,,,,417.3221,418.3872,a,1,[],[],[],[],[],[],[],0.384,1,418.3874,418.8874,,,,,,433,FEM,AGR,150,huella,la,a,0.384,,418.8874,418.8878,0.021296296,-0.056481481,0,0,0,,0,161,161,432,1,,,,
,,,,,,,8c98e1004b82ed9ca8aadbd2,66a626ef09d4e21e1a8894ec,67373fb4e0b03d789ef17b54,2024-11-15_13h34.02.153,Tarea de género gramatical,2024.2.2,Win32,59.52380952,,,,,,,,,,,,,,,,,,,,,,,,418.8888,419.9708,l,1,[],[],[],[],[],[],[],0.4,1,419.9711,420.4708,,,,,,149,MAS,CON,150,nudo,,l,0.4,,420.4709,420.4711,0.021296296,-0.056481481,0,0,0,,0,162,162,148,1,,,,
,,,,,,,8c98e1004b82ed9ca8aadbd2,66a626ef09d4e21e1a8894ec,67373fb4e0b03d789ef17b54,2024-11-15_13h34.02.153,Tarea de género gramatical,2024.2.2,Win32,59.52380952,,,,,,,,,,,,,,,,,,,,,,,,420.4721,421.604,a,1,[],[],[],[],[],[],[],0.4526,1,421.6041,422.1042,,,,,,146,FEM,CON,150,lana,,a,0.4526,,422.1043,422.1045,0.021296296,-0.056481481,0,0,0,,0,163,163,145,1,,,,
,,,,,,,8c98e1004b82ed9ca8aadbd2,66a626ef09d4e21e1a8894ec,67373fb4e0b03d789ef17b54,2024-11-15_13h34.02.153,Tarea de género gramatical,2024.2.2,Win32,59.52380952,,,,,,,,,,,,,,,,,,,,,,,,422.1057,423.5377,a,1,[],[],[],[],[],[],[],0.7507,1,423.5378,424.0374,,,,,,363,FEM,DIS,150,unidad,el,a,0.7507,,424.0385,424.0391,0.021296296,-0.056481481,0,0,0,,0,164,164,362,1,,,,
,,,,,,,8c98e1004b82ed9ca8aadbd2,66a626ef09d4e21e1a8894ec,67373fb4e0b03d789ef17b54,2024-11-15_13h34.02.153,Tarea de género gramatical,2024.2.2,Win32,59.52380952,,,,,,,,,,,,,,,,,,,,,,,,424.0396,425.1542,l,1,[],[],[],[],[],[],[],0.434,1,425.1544,425.654,,,,,,88,MAS,AGR,150,pavo,el,l,0.434,,425.654,425.6541,0.021296296,-0.056481481,0,0,0,,0,165,165,87,1,,,,
,,,,,,,8c98e1004b82ed9ca8aadbd2,66a626ef09d4e21e1a8894ec,67373fb4e0b03d789ef17b54,2024-11-15_13h34.02.153,Tarea de género gramatical,2024.2.2,Win32,59.52380952,,,,,,,,,,,,,,,,,,,,,,,,425.6554,426.7378,l,1,[],[],[],[],[],[],[],0.4025,1,426.738,427.2374,,,,,,270,MAS,DIS,150,queso,la,l,0.4025,,427.2374,427.2375,0.021296296,-0.056481481,0,0,0,,0,166,166,269,1,,,,
,,,,,,,8c98e1004b82ed9ca8aadbd2,66a626ef09d4e21e1a8894ec,67373fb4e0b03d789ef17b54,2024-11-15_13h34.02.153,Tarea de género gramatical,2024.2.2,Win32,59.52380952,,,,,,,,,,,,,,,,,,,,,,,,427.2387,428.3711,l,1,[],[],[],[],[],[],[],0.4508,1,428.3714,428.8709,,,,,,238,MAS,AGR,150,norte,el,l,0.4508,,428.8709,428.8711,0.021296296,-0.056481481,0,0,0,,0,167,167,237,1,,,,
,,,,,,,8c98e1004b82ed9ca8aadbd2,66a626ef09d4e21e1a8894ec,67373fb4e0b03d789ef17b54,2024-11-15_13h34.02.153,Tarea de género gramatical,2024.2.2,Win32,59.52380952,,,,,,,,,,,,,,,,,,,,,,,,428.8722,429.9545,a,1,[],[],[],[],[],[],[],0.4012,1,429.9547,430.4544,,,,,,361,FEM,AGR,150,oferta,la,a,0.4012,,430.4557,430.4563,0.021296296,-0.056481481,0,0,0,,0,168,168,360,1,,,,
,,,,,,,8c98e1004b82ed9ca8aadbd2,66a626ef09d4e21e1a8894ec,67373fb4e0b03d789ef17b54,2024-11-15_13h34.02.153,Tarea de género gramatical,2024.2.2,Win32,59.52380952,,,,,,,,,,,,,,,,,,,,,,,,430.4568,431.5546,a,1,[],[],[],[],[],[],[],0.4215,1,431.5547,432.0546,,,,,,127,FEM,AGR,150,cuna,la,a,0.4215,,432.0546,432.0548,0.021296296,-0.056481481,0,0,0,,0,169,169,126,1,,,,
,,,,,,,8c98e1004b82ed9ca8aadbd2,66a626ef09d4e21e1a8894ec,67373fb4e0b03d789ef17b54,2024-11-15_13h34.02.153,Tarea de género gramatical,2024.2.2,Win32,59.52380952,,,,,,,,,,,,,,,,,,,,,,,,432.0558,433.0546,a,1,[],[],[],[],[],[],[],0.3178,1,433.0548,433.5546,,,,,,187,FEM,AGR,150,lista,la,a,0.3178,,433.5547,433.5549,0.021296296,-0.056481481,0,0,0,,0,170,170,186,1,,,,
,,,,,,,8c98e1004b82ed9ca8aadbd2,66a626ef09d4e21e1a8894ec,67373fb4e0b03d789ef17b54,2024-11-15_13h34.02.153,Tarea de género gramatical,2024.2.2,Win32,59.52380952,,,,,,,,,,,,,,,,,,,,,,,,433.5559,434.5713,a,1,[],[],[],[],[],[],[],0.339,1,434.5714,435.0714,,,,,,367,FEM,AGR,150,teoría,la,a,0.339,,435.0715,435.0717,0.021296296,-0.056481481,0,0,0,,0,171,171,366,1,,,,
,,,,,,,8c98e1004b82ed9ca8aadbd2,66a626ef09d4e21e1a8894ec,67373fb4e0b03d789ef17b54,2024-11-15_13h34.02.153,Tarea de género gramatical,2024.2.2,Win32,59.52380952,,,,,,,,,,,,,,,,,,,,,,,,435.0729,436.0548,a,1,[],[],[],[],[],[],[],0.3006,1,436.0549,436.5547,,,,,,355,FEM,AGR,150,mirada,la,a,0.3006,,436.5548,436.5551,0.021296296,-0.056481481,0,0,0,,0,172,172,354,1,,,,
,,,,,,,8c98e1004b82ed9ca8aadbd2,66a626ef09d4e21e1a8894ec,67373fb4e0b03d789ef17b54,2024-11-15_13h34.02.153,Tarea de género gramatical,2024.2.2,Win32,59.52380952,,,,,,,,,,,,,,,,,,,,,,,,436.5562,437.6378,l,1,[],[],[],[],[],[],[],0.4006,1,437.6378,438.1381,,,,,,179,MAS,CON,150,viaje,,l,0.4006,,438.1393,438.1399,0.021296296,-0.056481481,0,0,0,,0,173,173,178,1,,,,
,,,,,,,8c98e1004b82ed9ca8aadbd2,66a626ef09d4e21e1a8894ec,67373fb4e0b03d789ef17b54,2024-11-15_13h34.02.153,Tarea de género gramatical,2024.2.2,Win32,59.52380952,,,,,,,,,,,,,,,,,,,,,,,,438.1404,439.3382,l,1,[],[],[],[],[],[],[],0.5178,1,439.3383,439.8383,,,,,,83,MAS,CON,150,nene,,l,0.5178,,439.8386,439.8388,0.021296296,-0.056481481,0,0,0,,0,174,174,82,1,,,,
,,,,,,,8c98e1004b82ed9ca8aadbd2,66a626ef09d4e21e1a8894ec,67373fb4e0b03d789ef17b54,2024-11-15_13h34.02.153,Tarea de género gramatical,2024.2.2,Win32,59.52380952,,,,,,,,,,,,,,,,,,,,,,,,439.8398,440.9046,a,1,[],[],[],[],[],[],[],0.3831,1,440.9047,441.4051,,,,,,338,FEM,CON,150,abuela,,a,0.3831,,441.4053,441.4054,0.021296296,-0.056481481,0,0,0,,0,175,175,337,1,,,,
,,,,,,,8c98e1004b82ed9ca8aadbd2,66a626ef09d4e21e1a8894ec,67373fb4e0b03d789ef17b54,2024-11-15_13h34.02.153,Tarea de género gramatical,2024.2.2,Win32,59.52380952,,,,,,,,,,,,,,,,,,,,,,,,441.4065,443.0383,l,1,[],[],[],[],[],[],[],0.9505,1,443.0384,443.5384,,,,,,390,MAS,DIS,150,rostro,la,l,0.9505,,443.5384,443.5387,0.021296296,-0.056481481,0,0,0,,0,176,176,389,1,,,,
,,,,,,,8c98e1004b82ed9ca8aadbd2,66a626ef09d4e21e1a8894ec,67373fb4e0b03d789ef17b54,2024-11-15_13h34.02.153,Tarea de género gramatical,2024.2.2,Win32,59.52380952,,,,,,,,,,,,,,,,,,,,,,,,443.5397,444.6717,l,1,[],[],[],[],[],[],[],0.4545,1,444.6719,445.1717,,,,,,184,MAS,AGR,150,cielo,el,l,0.4545,,445.173,445.1738,0.021296296,-0.056481481,0,0,0,,0,177,177,183,1,,,,
,,,,,,,8c98e1004b82ed9ca8aadbd2,66a626ef09d4e21e1a8894ec,67373fb4e0b03d789ef17b54,2024-11-15_13h34.02.153,Tarea de género gramatical,2024.2.2,Win32,59.52380952,,,,,,,,,,,,,,,,,,,,,,,,445.1745,446.2217,a,1,[],[],[],[],[],[],[],0.3672,1,446.2218,446.7217,,,,,,331,FEM,AGR,150,cárcel,la,a,0.3672,,446.7217,446.722,0.021296296,-0.056481481,0,0,0,,0,178,178,330,1,,,,
,,,,,,,8c98e1004b82ed9ca8aadbd2,66a626ef09d4e21e1a8894ec,67373fb4e0b03d789ef17b54,2024-11-15_13h34.02.153,Tarea de género gramatical,2024.2.2,Win32,59.52380952,,,,,,,,,,,,,,,,,,,,,,,,446.7231,448.0381,l,1,[],[],[],[],[],[],[],0.6378,1,448.0382,448.5386,,,,,,220,MAS,AGR,150,huevo,el,l,0.6378,,448.5387,448.5389,0.021296296,-0.056481481,0,0,0,,0,179,179,219,1,,,,
,,,,,,,8c98e1004b82ed9ca8aadbd2,66a626ef09d4e21e1a8894ec,67373fb4e0b03d789ef17b54,2024-11-15_13h34.02.153,Tarea de género gramatical,2024.2.2,Win32,59.52380952,,,,,,,,,,,,,,,,,,,,,,,,448.5399,449.6218,a,1,[],[],[],[],[],[],[],0.403,1,449.6219,450.1217,,,,,,446,FEM,CON,150,bañera,,a,0.403,,450.1218,450.1219,0.021296296,-0.056481481,0,0,0,,0,180,180,445,1,,,,
,,,,,,,8c98e1004b82ed9ca8aadbd2,66a626ef09d4e21e1a8894ec,67373fb4e0b03d789ef17b54,2024-11-15_13h34.02.153,Tarea de género gramatical,2024.2.2,Win32,59.52380952,,,,,,,,,,,,,,,,,,,,,,,,450.1229,451.2386,l,1,[],[],[],[],[],[],[],0.436,1,451.2387,451.7386,,,,,,154,MAS,AGR,150,padre,el,l,0.436,,451.7386,451.7388,0.021296296,-0.056481481,0,0,0,,0,181,181,153,1,,,,
,,,,,,,8c98e1004b82ed9ca8aadbd2,66a626ef09d4e21e1a8894ec,67373fb4e0b03d789ef17b54,2024-11-15_13h34.02.153,Tarea de género gramatical,2024.2.2,Win32,59.52380952,,,,,,,,,,,,,,,,,,,,,,,,451.7399,452.8385,a,1,[],[],[],[],[],[],[],0.4169,1,452.8387,453.3385,,,,,,116,FEM,CON,150,nube,,a,0.4169,,453.3399,453.3404,0.021296296,-0.056481481,0,0,0,,0,182,182,115,1,,,,
,,,,,,,8c98e1004b82ed9ca8aadbd2,66a626ef09d4e21e1a8894ec,67373fb4e0b03d789ef17b54,2024-11-15_13h34.02.153,Tarea de género gramatical,2024.2.2,Win32,59.52380952,,,,,,,,,,,,,,,,,,,,,,,,453.341,454.4218,a,1,[],[],[],[],[],[],[],0.4004,1,454.4219,454.9218,,,,,,75,FEM,DIS,150,caza,el,a,0.4004,,454.9219,454.9221,0.021296296,-0.056481481,0,0,0,,0,183,183,74,1,,,,
,,,,,,,8c98e1004b82ed9ca8aadbd2,66a626ef09d4e21e1a8894ec,67373fb4e0b03d789ef17b54,2024-11-15_13h34.02.153,Tarea de género gramatical,2024.2.2,Win32,59.52380952,,,,,,,,,,,,,,,,,,,,,,,,454.9232,456.0888,l,1,[],[],[],[],[],[],[],0.4843,1,456.089,456.5888,,,,,,286,MAS,AGR,150,reino,el,l,0.4843,,456.5888,456.589,0.021296296,-0.056481481,0,0,0,,0,184,184,285,1,,,,
,,,,,,,8c98e1004b82ed9ca8aadbd2,66a626ef09d4e21e1a8894ec,67373fb4e0b03d789ef17b54,2024-11-15_13h34.02.153,Tarea de género gramatical,2024.2.2,Win32,59.52380952,,,,,,,,,,,,,,,,,,,,,,,,456.5901,457.8723,l,1,[],[],[],[],[],[],[],0.6006,1,457.8725,458.3717,,,,,,11,MAS,CON,150,país,,l,0.6006,,458.3718,458.3719,0.021296296,-0.056481481,0,0,0,,0,185,185,10,1,,,,
,,,,,,,8c98e1004b82ed9ca8aadbd2,66a626ef09d4e21e1a8894ec,67373fb4e0b03d789ef17b54,2024-11-15_13h34.02.153,Tarea de género gramatical,2024.2.2,Win32,59.52380952,,,,,,,,,,,,,,,,,,,,,,,,458.3729,459.4391,a,1,[],[],[],[],[],[],[],0.3837,1,459.4393,459.9389,,,,,,265,FEM,AGR,150,rueda,la,a,0.3837,,459.9403,459.9409,0.021296296,-0.056481481,0,0,0,,0,186,186,264,1,,,,
,,,,,,,8c98e1004b82ed9ca8aadbd2,66a626ef09d4e21e1a8894ec,67373fb4e0b03d789ef17b54,2024-11-15_13h34.02.153,Tarea de género gramatical,2024.2.2,Win32,59.52380952,,,,,,,,,,,,,,,,,,,,,,,,459.9416,460.9555,l,1,[],[],[],[],[],[],[],0.335,1,460.9557,461.4556,,,,,,306,MAS,DIS,150,dinero,la,l,0.335,,461.4557,461.4559,0.021296296,-0.056481481,0,0,0,,0,187,187,305,1,,,,
,,,,,,,8c98e1004b82ed9ca8aadbd2,66a626ef09d4e21e1a8894ec,67373fb4e0b03d789ef17b54,2024-11-15_13h34.02.153,Tarea de género gramatical,2024.2.2,Win32,59.52380952,,,,,,,,,,,,,,,,,,,,,,,,461.4572,462.6556,l,1,[],[],[],[],[],[],[],0.5215,1,462.6558,463.1556,,,,,,232,MAS,AGR,150,calor,el,l,0.5215,,463.1557,463.1559,0.021296296,-0.056481481,0,0,0,,0,188,188,231,1,,,,
,,,,,,,8c98e1004b82ed9ca8aadbd2,66a626ef09d4e21e1a8894ec,67373fb4e0b03d789ef17b54,2024-11-15_13h34.02.153,Tarea de género gramatical,2024.2.2,Win32,59.52380952,,,,,,,,,,,,,,,,,,,,,,,,463.157,464.339,l,1,[],[],[],[],[],[],[],0.5071,1,464.339,464.8387,,,,,,106,MAS,AGR,150,test,el,l,0.5071,,464.8389,464.8391,0.021296296,-0.056481481,0,0,0,,0,189,189,105,1,,,,
,,,,,,,8c98e1004b82ed9ca8aadbd2,66a626ef09d4e21e1a8894ec,67373fb4e0b03d789ef17b54,2024-11-15_13h34.02.153,Tarea de género gramatical,2024.2.2,Win32,59.52380952,,,,,,,,,,,,,,,,,,,,,,,,464.8404,465.9724,l,1,[],[],[],[],[],[],[],0.4498,1,465.9725,466.4723,,,,,,52,MAS,AGR,150,lago,el,l,0.4498,,466.4724,466.4726,0.021296296,-0.056481481,0,0,0,,0,190,190,51,1,,,,
,,,,,,,8c98e1004b82ed9ca8aadbd2,66a626ef09d4e21e1a8894ec,67373fb4e0b03d789ef17b54,2024-11-15_13h34.02.153,Tarea de género gramatical,2024.2.2,Win32,59.52380952,,,,,,,,,,,,,,,,,,,,,,,,466.4737,467.5055,a,1,[],[],[],[],[],[],[],0.3505,1,467.5056,468.0059,,,,,,260,FEM,CON,150,barra,,a,0.3505,,468.0071,468.0076,0.021296296,-0.056481481,0,0,0,,0,191,191,259,1,,,,
,,,,,,,8c98e1004b82ed9ca8aadbd2,66a626ef09d4e21e1a8894ec,67373fb4e0b03d789ef17b54,2024-11-15_13h34.02.153,Tarea de género gramatical,2024.2.2,Win32,59.52380952,,,,,,,,,,,,,,,,,,,,,,,,468.0082,469.2059,l,0,[],[],[],[],[],[],[],0.5183,0,469.2072,469.706,,,,,,87,FEM,DIS,150,risa,el,a,0.5183,,469.7061,469.7063,0.021296296,-0.056481481,0,0,0,,0,192,192,86,1,,,,
,,,,,,,8c98e1004b82ed9ca8aadbd2,66a626ef09d4e21e1a8894ec,67373fb4e0b03d789ef17b54,2024-11-15_13h34.02.153,Tarea de género gramatical,2024.2.2,Win32,59.52380952,,,,,,,,,,,,,,,,,,,,,,,,469.7073,470.856,l,1,[],[],[],[],[],[],[],0.4691,1,470.8569,471.3562,,,,,,191,MAS,CON,150,dolor,,l,0.4691,,471.3563,471.3564,0.021296296,-0.056481481,0,0,0,,0,193,193,190,1,,,,
,,,,,,,8c98e1004b82ed9ca8aadbd2,66a626ef09d4e21e1a8894ec,67373fb4e0b03d789ef17b54,2024-11-15_13h34.02.153,Tarea de género gramatical,2024.2.2,Win32,59.52380952,,,,,,,,,,,,,,,,,,,,,,,,471.3575,472.506,l,0,[],[],[],[],[],[],[],0.4701,0,472.5071,473.0061,,,,,,92,FEM,CON,150,masa,,a,0.4701,,473.0061,473.0063,0.021296296,-0.056481481,0,0,0,,0,194,194,91,1,,,,
,,,,,,,8c98e1004b82ed9ca8aadbd2,66a626ef09d4e21e1a8894ec,67373fb4e0b03d789ef17b54,2024-11-15_13h34.02.153,Tarea de género gramatical,2024.2.2,Win32,59.52380952,,,,,,,,,,,,,,,,,,,,,,,,473.0074,474.2727,l,1,[],[],[],[],[],[],[],0.584,1,474.2738,474.7726,,,,,,35,MAS,CON,150,taxi,,l,0.584,,474.7739,474.7745,0.021296296,-0.056481481,0,0,0,,0,195,195,34,1,,,,
,,,,,,,8c98e1004b82ed9ca8aadbd2,66a626ef09d4e21e1a8894ec,67373fb4e0b03d789ef17b54,2024-11-15_13h34.02.153,Tarea de género gramatical,2024.2.2,Win32,59.52380952,,,,,,,,,,,,,,,,,,,,,,,,474.775,475.8894,l,1,[],[],[],[],[],[],[],0.4343,1,475.8897,476.3894,,,,,,190,MAS,AGR,150,campo,el,l,0.4343,,476.3895,476.3895,0.021296296,-0.056481481,0,0,0,,0,196,196,189,1,,,,
,,,,,,,8c98e1004b82ed9ca8aadbd2,66a626ef09d4e21e1a8894ec,67373fb4e0b03d789ef17b54,2024-11-15_13h34.02.153,Tarea de género gramatical,2024.2.2,Win32,59.52380952,,,,,,,,,,,,,,,,,,,,,,,,476.391,477.4725,a,1,[],[],[],[],[],[],[],0.4063,1,477.4725,477.9727,,,,,,217,FEM,AGR,150,tarea,la,a,0.4063,,477.9727,477.9728,0.021296296,-0.056481481,0,0,0,,0,197,197,216,1,,,,
,,,,,,,8c98e1004b82ed9ca8aadbd2,66a626ef09d4e21e1a8894ec,67373fb4e0b03d789ef17b54,2024-11-15_13h34.02.153,Tarea de género gramatical,2024.2.2,Win32,59.52380952,,,,,,,,,,,,,,,,,,,,,,,,477.9739,479.0562,l,1,[],[],[],[],[],[],[],0.4008,1,479.0563,479.5565,,,,,,262,MAS,AGR,150,video,el,l,0.4008,,479.5565,479.5567,0.021296296,-0.056481481,0,0,0,,0,198,198,261,1,,,,
,,,,,,,8c98e1004b82ed9ca8aadbd2,66a626ef09d4e21e1a8894ec,67373fb4e0b03d789ef17b54,2024-11-15_13h34.02.153,Tarea de género gramatical,2024.2.2,Win32,59.52380952,,,,,,,,,,,,,,,,,,,,,,,,479.5578,480.5897,a,1,[],[],[],[],[],[],[],0.351,1,480.5898,481.0896,,,,,,296,FEM,CON,150,feria,,a,0.351,,481.0897,481.0899,0.021296296,-0.056481481,0,0,0,,0,199,199,295,1,,,,
,,,,,,,8c98e1004b82ed9ca8aadbd2,66a626ef09d4e21e1a8894ec,67373fb4e0b03d789ef17b54,2024-11-15_13h34.02.153,Tarea de género gramatical,2024.2.2,Win32,59.52380952,,,,,,,,,,,,,,,,,,,,,,,,481.0911,482.173,a,1,[],[],[],[],[],[],[],0.4012,1,482.1732,482.673,,,,,,26,FEM,CON,150,pena,,a,0.4012,,482.6743,482.6751,0.021296296,-0.056481481,0,0,0,,0,200,200,25,1,,,,
,,,,,,,8c98e1004b82ed9ca8aadbd2,66a626ef09d4e21e1a8894ec,67373fb4e0b03d789ef17b54,2024-11-15_13h34.02.153,Tarea de género gramatical,2024.2.2,Win32,59.52380952,,,,,,,,,,,,,,,,,,,,,,,,482.6757,483.6896,a,1,[],[],[],[],[],[],[],0.338,1,483.6898,484.1899,,,,,,158,FEM,CON,150,chica,,a,0.338,,484.19,484.1901,0.021296296,-0.056481481,0,0,0,,0,201,201,157,1,,,,
,,,,,,,8c98e1004b82ed9ca8aadbd2,66a626ef09d4e21e1a8894ec,67373fb4e0b03d789ef17b54,2024-11-15_13h34.02.153,Tarea de género gramatical,2024.2.2,Win32,59.52380952,,,,,,,,,,,,,,,,,,,,,,,,484.1912,485.223,a,1,[],[],[],[],[],[],[],0.3509,1,485.2232,485.723,,,,,,51,FEM,DIS,150,bala,el,a,0.3509,,485.7231,485.7233,0.021296296,-0.056481481,0,0,0,,0,202,202,50,1,,,,
,,,,,,,8c98e1004b82ed9ca8aadbd2,66a626ef09d4e21e1a8894ec,67373fb4e0b03d789ef17b54,2024-11-15_13h34.02.153,Tarea de género gramatical,2024.2.2,Win32,59.52380952,,,,,,,,,,,,,,,,,,,,,,,,485.7243,486.7231,l,1,[],[],[],[],[],[],[],0.3173,1,486.7232,487.2232,,,,,,400,MAS,AGR,150,barrio,el,l,0.3173,,487.2233,487.2235,0.021296296,-0.056481481,0,0,0,,0,203,203,399,1,,,,
,,,,,,,8c98e1004b82ed9ca8aadbd2,66a626ef09d4e21e1a8894ec,67373fb4e0b03d789ef17b54,2024-11-15_13h34.02.153,Tarea de género gramatical,2024.2.2,Win32,59.52380952,,,,,,,,,,,,,,,,,,,,,,,,487.2246,488.4566,a,1,[],[],[],[],[],[],[],0.5509,1,488.4567,488.9566,,,,,,103,FEM,AGR,150,fama,la,a,0.5509,,488.9578,488.9584,0.021296296,-0.056481481,0,0,0,,0,204,204,102,1,,,,
,,,,,,,8c98e1004b82ed9ca8aadbd2,66a626ef09d4e21e1a8894ec,67373fb4e0b03d789ef17b54,2024-11-15_13h34.02.153,Tarea de género gramatical,2024.2.2,Win32,59.52380952,,,,,,,,,,,,,,,,,,,,,,,,488.959,490.0565,l,1,[],[],[],[],[],[],[],0.4169,1,490.0566,490.5567,,,,,,137,MAS,CON,150,coco,,l,0.4169,,490.5568,490.557,0.021296296,-0.056481481,0,0,0,,0,205,205,136,1,,,,
,,,,,,,8c98e1004b82ed9ca8aadbd2,66a626ef09d4e21e1a8894ec,67373fb4e0b03d789ef17b54,2024-11-15_13h34.02.153,Tarea de género gramatical,2024.2.2,Win32,59.52380952,,,,,,,,,,,,,,,,,,,,,,,,490.5581,491.7729,l,1,[],[],[],[],[],[],[],0.5354,1,491.773,492.2736,,,,,,222,MAS,DIS,150,valor,la,l,0.5354,,492.2736,492.2737,0.021296296,-0.056481481,0,0,0,,0,206,206,221,1,,,,
,,,,,,,8c98e1004b82ed9ca8aadbd2,66a626ef09d4e21e1a8894ec,67373fb4e0b03d789ef17b54,2024-11-15_13h34.02.153,Tarea de género gramatical,2024.2.2,Win32,59.52380952,,,,,,,,,,,,,,,,,,,,,,,,492.275,493.3732,a,1,[],[],[],[],[],[],[],0.4229,1,493.3733,493.8734,,,,,,62,FEM,CON,150,sopa,,a,0.4229,,493.8736,493.8737,0.021296296,-0.056481481,0,0,0,,0,207,207,61,1,,,,
,,,,,,,8c98e1004b82ed9ca8aadbd2,66a626ef09d4e21e1a8894ec,67373fb4e0b03d789ef17b54,2024-11-15_13h34.02.153,Tarea de género gramatical,2024.2.2,Win32,59.52380952,,,,,,,,,,,,,,,,,,,,,,,,493.8748,494.9901,l,1,[],[],[],[],[],[],[],0.4341,1,494.9903,495.4902,,,,,,82,MAS,AGR,150,tubo,el,l,0.4341,,495.4904,495.4906,0.021296296,-0.056481481,0,0,0,,0,208,208,81,1,,,,
,,,,,,,8c98e1004b82ed9ca8aadbd2,66a626ef09d4e21e1a8894ec,67373fb4e0b03d789ef17b54,2024-11-15_13h34.02.153,Tarea de género gramatical,2024.2.2,Win32,59.52380952,,,,,,,,,,,,,,,,,,,,,,,,495.4919,496.707,a,1,[],[],[],[],[],[],[],0.5338,1,496.7072,497.2066,,,,,,356,FEM,CON,150,piedra,,a,0.5338,,497.208,497.2087,0.021296296,-0.056481481,0,0,0,,0,209,209,355,1,,,,
,,,,,,,8c98e1004b82ed9ca8aadbd2,66a626ef09d4e21e1a8894ec,67373fb4e0b03d789ef17b54,2024-11-15_13h34.02.153,Tarea de género gramatical,2024.2.2,Win32,59.52380952,,,,,,,,,,,,,,,,,,,,,,,,497.2093,498.2405,l,1,[],[],[],[],[],[],[],0.3508,1,498.2406,498.7403,,,,,,65,MAS,CON,150,rayo,,l,0.3508,,498.7404,498.7405,0.021296296,-0.056481481,0,0,0,,0,210,210,64,1,,,,
,,,,,,,8c98e1004b82ed9ca8aadbd2,66a626ef09d4e21e1a8894ec,67373fb4e0b03d789ef17b54,2024-11-15_13h34.02.153,Tarea de género gramatical,2024.2.2,Win32,59.52380952,,,,,,,,,,,,,,,,,,,,,,,,498.7418,499.7902,l,1,[],[],[],[],[],[],[],0.3672,1,499.7903,500.2903,,,,,,58,MAS,AGR,150,mono,el,l,0.3672,,500.2904,500.2905,0.021296296,-0.056481481,0,0,0,,0,211,211,57,1,,,,
,,,,,,,8c98e1004b82ed9ca8aadbd2,66a626ef09d4e21e1a8894ec,67373fb4e0b03d789ef17b54,2024-11-15_13h34.02.153,Tarea de género gramatical,2024.2.2,Win32,59.52380952,,,,,,,,,,,,,,,,,,,,,,,,500.2917,501.5234,l,1,[],[],[],[],[],[],[],0.551,1,501.5235,502.0238,,,,,,250,MAS,AGR,150,cerdo,el,l,0.551,,502.0239,502.0241,0.021296296,-0.056481481,0,0,0,,0,212,212,249,1,,,,
,,,,,,,8c98e1004b82ed9ca8aadbd2,66a626ef09d4e21e1a8894ec,67373fb4e0b03d789ef17b54,2024-11-15_13h34.02.153,Tarea de género gramatical,2024.2.2,Win32,59.52380952,,,,,,,,,,,,,,,,,,,,,,,,502.0252,503.2238,l,1,[],[],[],[],[],[],[],0.5174,1,503.2239,503.7237,,,,,,54,MAS,DIS,150,humo,la,l,0.5174,,503.7248,503.7254,0.021296296,-0.056481481,0,0,0,,0,213,213,53,1,,,,
,,,,,,,8c98e1004b82ed9ca8aadbd2,66a626ef09d4e21e1a8894ec,67373fb4e0b03d789ef17b54,2024-11-15_13h34.02.153,Tarea de género gramatical,2024.2.2,Win32,59.52380952,,,,,,,,,,,,,,,,,,,,,,,,503.726,504.7738,l,1,[],[],[],[],[],[],[],0.367,1,504.7741,505.274,,,,,,281,MAS,CON,150,actor,,l,0.367,,505.274,505.2742,0.021296296,-0.056481481,0,0,0,,0,214,214,280,1,,,,
,,,,,,,8c98e1004b82ed9ca8aadbd2,66a626ef09d4e21e1a8894ec,67373fb4e0b03d789ef17b54,2024-11-15_13h34.02.153,Tarea de género gramatical,2024.2.2,Win32,59.52380952,,,,,,,,,,,,,,,,,,,,,,,,505.2753,506.3572,a,1,[],[],[],[],[],[],[],0.4032,1,506.3573,506.8573,,,,,,391,FEM,AGR,150,altura,la,a,0.4032,,506.8574,506.8576,0.021296296,-0.056481481,0,0,0,,0,215,215,390,1,,,,
,,,,,,,8c98e1004b82ed9ca8aadbd2,66a626ef09d4e21e1a8894ec,67373fb4e0b03d789ef17b54,2024-11-15_13h34.02.153,Tarea de género gramatical,2024.2.2,Win32,59.52380952,,,,,,,,,,,,,,,,,,,,,,,,506.8586,507.9907,a,1,[],[],[],[],[],[],[],0.4503,1,507.991,508.4909,,,,,,409,FEM,AGR,150,moneda,la,a,0.4503,,508.491,508.4912,0.021296296,-0.056481481,0,0,0,,0,216,216,408,1,,,,
,,,,,,,8c98e1004b82ed9ca8aadbd2,66a626ef09d4e21e1a8894ec,67373fb4e0b03d789ef17b54,2024-11-15_13h34.02.153,Tarea de género gramatical,2024.2.2,Win32,59.52380952,,,,,,,,,,,,,,,,,,,,,,,,508.4923,509.6071,a,1,[],[],[],[],[],[],[],0.4371,1,509.6073,510.1072,,,,,,327,FEM,DIS,150,tienda,el,a,0.4371,,510.1072,510.1072,0.021296296,-0.056481481,0,0,0,,0,217,217,326,1,,,,
,,,,,,,8c98e1004b82ed9ca8aadbd2,66a626ef09d4e21e1a8894ec,67373fb4e0b03d789ef17b54,2024-11-15_13h34.02.153,Tarea de género gramatical,2024.2.2,Win32,59.52380952,,,,,,,,,,,,,,,,,,,,,,,,510.1085,511.1574,l,1,[],[],[],[],[],[],[],0.3677,1,511.1575,511.6574,,,,,,431,MAS,CON,150,veneno,,l,0.3677,,511.6586,511.6594,0.021296296,-0.056481481,0,0,0,,0,218,218,430,1,,,,
,,,,,,,8c98e1004b82ed9ca8aadbd2,66a626ef09d4e21e1a8894ec,67373fb4e0b03d789ef17b54,2024-11-15_13h34.02.153,Tarea de género gramatical,2024.2.2,Win32,59.52380952,,,,,,,,,,,,,,,,,,,,,,,,511.6601,512.7742,a,1,[],[],[],[],[],[],[],0.4342,1,512.7745,513.2741,,,,,,398,FEM,CON,150,hierba,,a,0.4342,,513.2742,513.2745,0.021296296,-0.056481481,0,0,0,,0,219,219,397,1,,,,
,,,,,,,8c98e1004b82ed9ca8aadbd2,66a626ef09d4e21e1a8894ec,67373fb4e0b03d789ef17b54,2024-11-15_13h34.02.153,Tarea de género gramatical,2024.2.2,Win32,59.52380952,,,,,,,,,,,,,,,,,,,,,,,,513.2755,514.9075,a,1,[],[],[],[],[],[],[],0.9507,1,514.9076,515.4077,,,,,,381,FEM,DIS,150,bebida,el,a,0.9507,,515.4079,515.408,0.021296296,-0.056481481,0,0,0,,0,220,220,380,1,,,,
,,,,,,,8c98e1004b82ed9ca8aadbd2,66a626ef09d4e21e1a8894ec,67373fb4e0b03d789ef17b54,2024-11-15_13h34.02.153,Tarea de género gramatical,2024.2.2,Win32,59.52380952,,,,,,,,,,,,,,,,,,,,,,,,515.4089,516.5907,l,1,[],[],[],[],[],[],[],0.5055,1,516.5907,517.0912,,,,,,125,MAS,CON,150,bate,,l,0.5055,,517.0914,517.0914,0.021296296,-0.056481481,0,0,0,,0,221,221,124,1,,,,
,,,,,,,8c98e1004b82ed9ca8aadbd2,66a626ef09d4e21e1a8894ec,67373fb4e0b03d789ef17b54,2024-11-15_13h34.02.153,Tarea de género gramatical,2024.2.2,Win32,59.52380952,,,,,,,,,,,,,,,,,,,,,,,,517.0924,518.6074,l,1,[],[],[],[],[],[],[],0.839,1,518.6075,519.1077,,,,,,102,MAS,DIS,150,coro,la,l,0.839,,519.1089,519.1095,0.021296296,-0.056481481,0,0,0,,0,222,222,101,1,,,,
,,,,,,,8c98e1004b82ed9ca8aadbd2,66a626ef09d4e21e1a8894ec,67373fb4e0b03d789ef17b54,2024-11-15_13h34.02.153,Tarea de género gramatical,2024.2.2,Win32,59.52380952,,,,,,,,,,,,,,,,,,,,,,,,519.11,520.1577,a,1,[],[],[],[],[],[],[],0.3675,1,520.1578,520.6577,,,,,,19,FEM,AGR,150,niña,la,a,0.3675,,520.6578,520.658,0.021296296,-0.056481481,0,0,0,,0,223,223,18,1,,,,
,,,,,,,8c98e1004b82ed9ca8aadbd2,66a626ef09d4e21e1a8894ec,67373fb4e0b03d789ef17b54,2024-11-15_13h34.02.153,Tarea de género gramatical,2024.2.2,Win32,59.52380952,,,,,,,,,,,,,,,,,,,,,,,,520.6591,522.0911,l,1,[],[],[],[],[],[],[],0.751,1,522.0914,522.591,,,,,,132,MAS,DIS,150,velo,la,l,0.751,,522.5912,522.5915,0.021296296,-0.056481481,0,0,0,,0,224,224,131,1,,,,
,,,,,,,8c98e1004b82ed9ca8aadbd2,66a626ef09d4e21e1a8894ec,67373fb4e0b03d789ef17b54,2024-11-15_13h34.02.153,Tarea de género gramatical,2024.2.2,Win32,59.52380952,,,,,,,,,,,,,,,,,,,,,,,,522.5926,523.8243,a,1,[],[],[],[],[],[],[],0.5505,1,523.8243,524.3245,,,,,,195,FEM,DIS,150,pared,el,a,0.5505,,524.3245,524.3248,0.021296296,-0.056481481,0,0,0,,0,225,225,194,1,,,,
,,,,,,,8c98e1004b82ed9ca8aadbd2,66a626ef09d4e21e1a8894ec,67373fb4e0b03d789ef17b54,2024-11-15_13h34.02.153,Tarea de género gramatical,2024.2.2,Win32,59.52380952,,,,,,,,,,,,,,,,,,,,,,,,524.3259,525.4081,l,1,[],[],[],[],[],[],[],0.4016,1,525.4081,525.9079,,,,,,172,MAS,AGR,150,poder,el,l,0.4016,,525.908,525.9082,0.021296296,-0.056481481,0,0,0,,0,226,226,171,1,,,,
,,,,,,,8c98e1004b82ed9ca8aadbd2,66a626ef09d4e21e1a8894ec,67373fb4e0b03d789ef17b54,2024-11-15_13h34.02.153,Tarea de género gramatical,2024.2.2,Win32,59.52380952,,,,,,,,,,,,,,,,,,,,,,,,525.9093,526.9411,a,1,[],[],[],[],[],[],[],0.3503,1,526.9419,527.4416,,,,,,375,FEM,DIS,150,cadena,el,a,0.3503,,527.4428,527.4434,0.021296296,-0.056481481,0,0,0,,0,227,227,374,1,,,,
,,,,,,,8c98e1004b82ed9ca8aadbd2,66a626ef09d4e21e1a8894ec,67373fb4e0b03d789ef17b54,2024-11-15_13h34.02.153,Tarea de género gramatical,2024.2.2,Win32,59.52380952,,,,,,,,,,,,,,,,,,,,,,,,527.444,528.5246,l,1,[],[],[],[],[],[],[],0.4053,1,528.5246,529.0245,,,,,,252,MAS,DIS,150,viejo,la,l,0.4053,,529.0246,529.0247,0.021296296,-0.056481481,0,0,0,,0,228,228,251,1,,,,
,,,,,,,8c98e1004b82ed9ca8aadbd2,66a626ef09d4e21e1a8894ec,67373fb4e0b03d789ef17b54,2024-11-15_13h34.02.153,Tarea de género gramatical,2024.2.2,Win32,59.52380952,,,,,,,,,,,,,,,,,,,,,,,,529.0256,530.1247,l,1,[],[],[],[],[],[],[],0.4173,1,530.1256,530.625,,,,,,36,MAS,DIS,150,dedo,la,l,0.4173,,530.6251,530.6253,0.021296296,-0.056481481,0,0,0,,0,229,229,35,1,,,,
,,,,,,,8c98e1004b82ed9ca8aadbd2,66a626ef09d4e21e1a8894ec,67373fb4e0b03d789ef17b54,2024-11-15_13h34.02.153,Tarea de género gramatical,2024.2.2,Win32,59.52380952,,,,,,,,,,,,,,,,,,,,,,,,530.6261,531.6081,a,1,[],[],[],[],[],[],[],0.3005,1,531.6083,532.1081,,,,,,44,FEM,CON,150,zona,,a,0.3005,,532.1082,532.1083,0.021296296,-0.056481481,0,0,0,,0,230,230,43,1,,,,
,,,,,,,8c98e1004b82ed9ca8aadbd2,66a626ef09d4e21e1a8894ec,67373fb4e0b03d789ef17b54,2024-11-15_13h34.02.153,Tarea de género gramatical,2024.2.2,Win32,59.52380952,,,,,,,,,,,,,,,,,,,,,,,,532.1096,533.2412,l,1,[],[],[],[],[],[],[],0.4501,1,533.2413,533.7416,,,,,,100,MAS,AGR,150,nido,el,l,0.4501,,533.7427,533.7433,0.021296296,-0.056481481,0,0,0,,0,231,231,99,1,,,,
,,,,,,,8c98e1004b82ed9ca8aadbd2,66a626ef09d4e21e1a8894ec,67373fb4e0b03d789ef17b54,2024-11-15_13h34.02.153,Tarea de género gramatical,2024.2.2,Win32,59.52380952,,,,,,,,,,,,,,,,,,,,,,,,533.7438,534.7251,a,1,[],[],[],[],[],[],[],0.3006,1,534.7252,535.225,,,,,,325,FEM,AGR,150,tierra,la,a,0.3006,,535.225,535.2252,0.021296296,-0.056481481,0,0,0,,0,232,232,324,1,,,,
,,,,,,,8c98e1004b82ed9ca8aadbd2,66a626ef09d4e21e1a8894ec,67373fb4e0b03d789ef17b54,2024-11-15_13h34.02.153,Tarea de género gramatical,2024.2.2,Win32,59.52380952,,,,,,,,,,,,,,,,,,,,,,,,535.2263,536.2749,a,1,[],[],[],[],[],[],[],0.3679,1,536.2749,536.775,,,,,,123,FEM,DIS,150,tela,el,a,0.3679,,536.7751,536.7753,0.021296296,-0.056481481,0,0,0,,0,233,233,122,1,,,,
,,,,,,,8c98e1004b82ed9ca8aadbd2,66a626ef09d4e21e1a8894ec,67373fb4e0b03d789ef17b54,2024-11-15_13h34.02.153,Tarea de género gramatical,2024.2.2,Win32,59.52380952,,,,,,,,,,,,,,,,,,,,,,,,536.7764,538.1415,a,1,[],[],[],[],[],[],[],0.6841,1,538.1418,538.6418,,,,,,27,FEM,DIS,150,mesa,el,a,0.6841,,538.642,538.6422,0.021296296,-0.056481481,0,0,0,,0,234,234,26,1,,,,
,,,,,,,8c98e1004b82ed9ca8aadbd2,66a626ef09d4e21e1a8894ec,67373fb4e0b03d789ef17b54,2024-11-15_13h34.02.153,Tarea de género gramatical,2024.2.2,Win32,59.52380952,,,,,,,,,,,,,,,,,,,,,,,,538.6435,539.8082,a,1,[],[],[],[],[],[],[],0.4841,1,539.8083,540.3085,,,,,,321,FEM,DIS,150,comida,el,a,0.4841,,540.3085,540.3087,0.021296296,-0.056481481,0,0,0,,0,235,235,320,1,,,,
,,,,,,,8c98e1004b82ed9ca8aadbd2,66a626ef09d4e21e1a8894ec,67373fb4e0b03d789ef17b54,2024-11-15_13h34.02.153,Tarea de género gramatical,2024.2.2,Win32,59.52380952,,,,,,,,,,,,,,,,,,,,,,,,540.3098,541.3918,a,1,[],[],[],[],[],[],[],0.4004,1,541.3919,541.892,,,,,,435,FEM,DIS,150,niebla,el,a,0.4004,,541.8932,541.8938,0.021296296,-0.056481481,0,0,0,,0,236,236,434,1,,,,
,,,,,,,8c98e1004b82ed9ca8aadbd2,66a626ef09d4e21e1a8894ec,67373fb4e0b03d789ef17b54,2024-11-15_13h34.02.153,Tarea de género gramatical,2024.2.2,Win32,59.52380952,,,,,,,,,,,,,,,,,,,,,,,,541.8944,543.2918,a,1,[],[],[],[],[],[],[],0.7172,1,543.2919,543.7927,,,,,,290,FEM,CON,150,cabra,,a,0.7172,,543.7928,543.7928,0.021296296,-0.056481481,0,0,0,,0,237,237,289,1,,,,
,,,,,,,8c98e1004b82ed9ca8aadbd2,66a626ef09d4e21e1a8894ec,67373fb4e0b03d789ef17b54,2024-11-15_13h34.02.153,Tarea de género gramatical,2024.2.2,Win32,59.52380952,,,,,,,,,,,,,,,,,,,,,,,,543.7935,545.2254,a,1,[],[],[],[],[],[],[],0.7505,1,545.2255,545.7254,,,,,,177,FEM,DIS,150,broma,el,a,0.7505,,545.7255,545.7257,0.021296296,-0.056481481,0,0,0,,0,238,238,176,1,,,,
,,,,,,,8c98e1004b82ed9ca8aadbd2,66a626ef09d4e21e1a8894ec,67373fb4e0b03d789ef17b54,2024-11-15_13h34.02.153,Tarea de género gramatical,2024.2.2,Win32,59.52380952,,,,,,,,,,,,,,,,,,,,,,,,545.7268,546.8251,a,1,[],[],[],[],[],[],[],0.4211,1,546.8253,547.3251,,,,,,163,FEM,AGR,150,calle,la,a,0.4211,,547.3252,547.3252,0.021296296,-0.056481481,0,0,0,,0,239,239,162,1,,,,
,,,,,,,8c98e1004b82ed9ca8aadbd2,66a626ef09d4e21e1a8894ec,67373fb4e0b03d789ef17b54,2024-11-15_13h34.02.153,Tarea de género gramatical,2024.2.2,Win32,59.52380952,,,,,,,,,,,,,,,,,,,,,,,,547.3263,548.4588,a,1,[],[],[],[],[],[],[],0.4523,1,548.4591,548.9585,,,,,,8,FEM,CON,150,idea,,a,0.4523,,548.9597,548.9603,0.021296296,-0.056481481,0,0,0,,0,240,240,7,1,,,,
,,,,,,,8c98e1004b82ed9ca8aadbd2,66a626ef09d4e21e1a8894ec,67373fb4e0b03d789ef17b54,2024-11-15_13h34.02.153,Tarea de género gramatical,2024.2.2,Win32,59.52380952,,,,,,,,,,,,,,,,,,,,,,,,548.9608,550.0923,a,1,[],[],[],[],[],[],[],0.451,1,550.0924,550.5921,,,,,,247,FEM,AGR,150,frase,la,a,0.451,,550.5921,550.5924,0.021296296,-0.056481481,0,0,0,,0,241,241,246,1,,,,
,,,,,,,8c98e1004b82ed9ca8aadbd2,66a626ef09d4e21e1a8894ec,67373fb4e0b03d789ef17b54,2024-11-15_13h34.02.153,Tarea de género gramatical,2024.2.2,Win32,59.52380952,,,,,,,,,,,,,,,,,,,,,,,,550.5938,551.6756,l,1,[],[],[],[],[],[],[],0.4,1,551.6757,552.1754,,,,,,282,MAS,DIS,150,bolso,la,l,0.4,,552.1754,552.1755,0.021296296,-0.056481481,0,0,0,,0,242,242,281,1,,,,
,,,,,,,8c98e1004b82ed9ca8aadbd2,66a626ef09d4e21e1a8894ec,67373fb4e0b03d789ef17b54,2024-11-15_13h34.02.153,Tarea de género gramatical,2024.2.2,Win32,59.52380952,,,,,,,,,,,,,,,,,,,,,,,,552.1765,553.4758,a,1,[],[],[],[],[],[],[],0.6176,1,553.4759,553.9756,,,,,,357,FEM,DIS,150,lengua,el,a,0.6176,,553.9759,553.9761,0.021296296,-0.056481481,0,0,0,,0,243,243,356,1,,,,
,,,,,,,8c98e1004b82ed9ca8aadbd2,66a626ef09d4e21e1a8894ec,67373fb4e0b03d789ef17b54,2024-11-15_13h34.02.153,Tarea de género gramatical,2024.2.2,Win32,59.52380952,,,,,,,,,,,,,,,,,,,,,,,,553.9768,555.1586,l,0,[],[],[],[],[],[],[],0.5061,0,555.1596,555.6588,,,,,,441,FEM,DIS,150,medida,el,a,0.5061,,555.6589,555.6591,0.021296296,-0.056481481,0,0,0,,0,244,244,440,1,,,,
,,,,,,,8c98e1004b82ed9ca8aadbd2,66a626ef09d4e21e1a8894ec,67373fb4e0b03d789ef17b54,2024-11-15_13h34.02.153,Tarea de género gramatical,2024.2.2,Win32,59.52380952,,,,,,,,,,,,,,,,,,,,,,,,555.6601,556.8257,a,1,[],[],[],[],[],[],[],0.4857,1,556.8266,557.3256,,,,,,115,FEM,AGR,150,seda,la,a,0.4857,,557.3268,557.3273,0.021296296,-0.056481481,0,0,0,,0,245,245,114,1,,,,
,,,,,,,8c98e1004b82ed9ca8aadbd2,66a626ef09d4e21e1a8894ec,67373fb4e0b03d789ef17b54,2024-11-15_13h34.02.153,Tarea de género gramatical,2024.2.2,Win32,59.52380952,,,,,,,,,,,,,,,,,,,,,,,,557.3278,558.4422,a,1,[],[],[],[],[],[],[],0.4347,1,558.4424,558.9421,,,,,,80,FEM,CON,150,vaca,,a,0.4347,,558.9422,558.9424,0.021296296,-0.056481481,0,0,0,,0,246,246,79,1,,,,
,,,,,,,8c98e1004b82ed9ca8aadbd2,66a626ef09d4e21e1a8894ec,67373fb4e0b03d789ef17b54,2024-11-15_13h34.02.153,Tarea de género gramatical,2024.2.2,Win32,59.52380952,,,,,,,,,,,,,,,,,,,,,,,,558.9434,560.0935,l,1,[],[],[],[],[],[],[],0.4745,1,560.0936,560.5923,,,,,,382,MAS,AGR,150,teatro,el,l,0.4745,,560.5923,560.5924,0.021296296,-0.056481481,0,0,0,,0,247,247,381,1,,,,
,,,,,,,8c98e1004b82ed9ca8aadbd2,66a626ef09d4e21e1a8894ec,67373fb4e0b03d789ef17b54,2024-11-15_13h34.02.153,Tarea de género gramatical,2024.2.2,Win32,59.52380952,,,,,,,,,,,,,,,,,,,,,,,,560.5935,561.7594,l,1,[],[],[],[],[],[],[],0.5007,1,561.7595,562.2589,,,,,,396,MAS,DIS,150,tesoro,la,l,0.5007,,562.2589,562.2591,0.021296296,-0.056481481,0,0,0,,0,248,248,395,1,,,,
,,,,,,,8c98e1004b82ed9ca8aadbd2,66a626ef09d4e21e1a8894ec,67373fb4e0b03d789ef17b54,2024-11-15_13h34.02.153,Tarea de género gramatical,2024.2.2,Win32,59.52380952,,,,,,,,,,,,,,,,,,,,,,,,562.2602,563.3594,l,1,[],[],[],[],[],[],[],0.4205,1,563.3596,563.8593,,,,,,312,MAS,DIS,150,equipo,la,l,0.4205,,563.8605,563.8611,0.021296296,-0.056481481,0,0,0,,0,249,249,311,1,,,,
