counterbalancing_condition,consent_prescreening.block_1/declare_consent,consent_prescreening.block_1/age_years,consent_prescreening.block_1/gender,consent_prescreening.block_1/language_disorder,consent_prescreening.block_1/first_language,PROLIFIC_PID,STUDY_ID,SESSION_ID,date,expName,psychopyVersion,OS,frameRate,check_prescreening_answers.started,check_prescreening_answers.stopped,Instructions.started,Instructions.stopped,instr_done_keyboard.keys,instr_done_touch.x,instr_done_touch.y,instr_done_touch.leftButton,instr_done_touch.midButton,instr_done_touch.rightButton,instr_done_touch.clicked_name,instruction_pages.thisRepN,instruction_pages.thisTrialN,instruction_pages.thisN,instruction_pages.thisIndex,instruction_pages.ran,pageN,phase,instruct_text,has_image,instruct_image,instr_done_keyboard.rt,instr_done_keyboard.duration,presentTrial.started,presentTrial.stopped,response.keys,response.corr,touch_resp.x,touch_resp.y,touch_resp.leftButton,touch_resp.midButton,touch_resp.rightButton,touch_resp.time,touch_resp.clicked_name,rt,corr,feedback.started,feedback.stopped,practice_trials.thisRepN,practice_trials.thisTrialN,practice_trials.thisN,practice_trials.thisIndex,practice_trials.ran,TrialID,StimulusType,Condition,PrimeDuration,Prime,Flanker,corrAns,response.rt,response.duration,Break.started,Break.stopped,break_done_touch.x,break_done_touch.y,break_done_touch.leftButton,break_done_touch.midButton,break_done_touch.rightButton,break_done_keyboard.keys,experiment_trials.thisRepN,experiment_trials.thisTrialN,experiment_trials.thisN,experiment_trials.thisIndex,experiment_trials.ran,break_done_keyboard.rt,break_done_keyboard.duration,End.started,End.stopped
0,"[""over_18"",""comfortable"",""read_info"",""consent_given""]",28,M,"[""none""]","[""spanish""]",95e50b760d36ea7627bbb18e,66a626ef09d4e21e1a8894ec,6734e02099066fddf07ba2ba,2024-11-13_11h23.34.448,Tarea de género gramatical,2024.2.2,Win32,59.17159763,,,,,,,,,,,,,,,,,,,,,,,,,,,,,,,,,,,,,,,,,,,,,,,,,,,,,,,,,,,,,,,,,,,,,
,,,,,,95e50b760d36ea7627bbb18e,66a626ef09d4e21e1a8894ec,6734e02099066fddf07ba2ba,2024-11-13_11h23.34.448,Tarea de género gramatical,2024.2.2,Win32,59.17159763,30.0019,30.0024,,,,,,,,,,,,,,,,,,,,,,,,,,,,,,,,,,,,,,,,,,,,,,,,,,,,,,,,,,,,,,,,,,,
,,,,,,95e50b760d36ea7627bbb18e,66a626ef09d4e21e1a8894ec,6734e02099066fddf07ba2ba,2024-11-13_11h23.34.448,Tarea de género gramatical,2024.2.2,Win32,59.17159763,,,30.0499,68.1598,,-0.024999972,-0.381481524,1,0,0,instr_done_button,0,0,0,0,1,1,instructions,"INSTRUCCIONES
Va a realizar una prueba de selección gramatical. Desde el comienzo de la prueba mire siempre al centro de la pantalla. Al cabo de un momento, aparecerán palabras. La tarea consiste en determinar si la palabra del centro (siempre será un sustantivo), pertenece al género masculino o femenino.

Pulse la tecla ESPACIO o toque el botón de abajo para continuar.",0,keyboardresponseMF.png,,,,,,,,,,,,,,,,,,,,,,,,,,,,,,,,,,,,,,,,,,,,,,,,
,,,,,,95e50b760d36ea7627bbb18e,66a626ef09d4e21e1a8894ec,6734e02099066fddf07ba2ba,2024-11-13_11h23.34.448,Tarea de género gramatical,2024.2.2,Win32,59.17159763,,,68.1752,84.6698,space,-0.614814811,-0.19722225,0,0,0,,0,1,1,1,1,2,instructions,"Si su dispositivo tiene teclado, pulse la tecla ""A"" para las palabras en masculino (por ejemplo: ""arroz"") y la tecla ""L"" para las palabras en femenino (por ejemplo: ""mano"").
Pulse la tecla ESPACIO o toque el botón de abajo para continuar.",1,keyboardresponseMF.png,16.4029,,,,,,,,,,,,,,,,,,,,,,,,,,,,,,,,,,,,,,,,,,,,,,,
,,,,,,95e50b760d36ea7627bbb18e,66a626ef09d4e21e1a8894ec,6734e02099066fddf07ba2ba,2024-11-13_11h23.34.448,Tarea de género gramatical,2024.2.2,Win32,59.17159763,,,84.6761,95.235,space,-0.614814811,-0.19722225,0,0,0,,0,2,2,2,1,3,instructions,"Si utiliza un dispositivo sólo táctil, colóquelo en horizontal y utilice los botones de la pantalla. No utilice el ratón.
Pulse la tecla ESPACIO o toque el botón de abajo para continuar.",2,touchresponseMF.png,10.482,,,,,,,,,,,,,,,,,,,,,,,,,,,,,,,,,,,,,,,,,,,,,,,
,,,,,,95e50b760d36ea7627bbb18e,66a626ef09d4e21e1a8894ec,6734e02099066fddf07ba2ba,2024-11-13_11h23.34.448,Tarea de género gramatical,2024.2.2,Win32,59.17159763,,,95.2448,112.3327,space,-0.614814811,-0.19722225,0,0,0,,0,3,3,3,1,4,instructions,"Es muy importante que responda con la mayor rapidez y precisión posibles, ya que cada cadena de letras sólo estará en pantalla durante un instante. Si no responde en ese tiempo, aparecerá el mensaje ""Muy lento"" y el experimento pasará a la siguiente palabra. Los primeros 15 intentos serán de práctica y habrá dos descansos durante la prueba.
Pulse la tecla ESPACIO o toque el botón de abajo para iniciar la parte de práctica.",0,keyboardresponseMF.png,17.0589,,,,,,,,,,,,,,,,,,,,,,,,,,,,,,,,,,,,,,,,,,,,,,,
,,,,,,95e50b760d36ea7627bbb18e,66a626ef09d4e21e1a8894ec,6734e02099066fddf07ba2ba,2024-11-13_11h23.34.448,Tarea de género gramatical,2024.2.2,Win32,59.17159763,,,,,,,,,,,,,,,,,,,,,,,,112.3903,115.033,,0,[],[],[],[],[],[],[],,-1,115.0337,115.5325,0,0,0,5,1,2006,FEM,DIS,150,serie,el,a,,,,,,,,,,,,,,,,,,,
,,,,,,95e50b760d36ea7627bbb18e,66a626ef09d4e21e1a8894ec,6734e02099066fddf07ba2ba,2024-11-13_11h23.34.448,Tarea de género gramatical,2024.2.2,Win32,59.17159763,,,,,,,,,,,,,,,,,,,,,,,,115.5376,117.382,l,1,[],[],[],[],[],[],[],1.1693,1,117.4124,117.8822,0,1,1,0,1,2001,FEM,AGR,150,nuca,la,a,1.1693,,,,,,,,,,,,,,,,,,
,,,,,,95e50b760d36ea7627bbb18e,66a626ef09d4e21e1a8894ec,6734e02099066fddf07ba2ba,2024-11-13_11h23.34.448,Tarea de género gramatical,2024.2.2,Win32,59.17159763,,,,,,,,,,,,,,,,,,,,,,,,117.8859,119.5481,l,1,[],[],[],[],[],[],[],0.9844,1,119.5484,120.0482,0,2,2,3,1,2004,FEM,AGR,150,venta,la,a,0.9844,,,,,,,,,,,,,,,,,,
,,,,,,95e50b760d36ea7627bbb18e,66a626ef09d4e21e1a8894ec,6734e02099066fddf07ba2ba,2024-11-13_11h23.34.448,Tarea de género gramatical,2024.2.2,Win32,59.17159763,,,,,,,,,,,,,,,,,,,,,,,,120.0514,121.3478,l,1,[],[],[],[],[],[],[],0.6228,1,121.3481,121.848,0,3,3,6,1,2007,FEM,AGR,150,navaja,la,a,0.6228,,,,,,,,,,,,,,,,,,
,,,,,,95e50b760d36ea7627bbb18e,66a626ef09d4e21e1a8894ec,6734e02099066fddf07ba2ba,2024-11-13_11h23.34.448,Tarea de género gramatical,2024.2.2,Win32,59.17159763,,,,,,,,,,,,,,,,,,,,,,,,121.851,123.1812,l,0,[],[],[],[],[],[],[],0.6493,0,123.1844,123.6816,0,4,4,11,1,2012,MAS,DIS,150,clima,la,l,0.6493,,,,,,,,,,,,,,,,,,
,,,,,,95e50b760d36ea7627bbb18e,66a626ef09d4e21e1a8894ec,6734e02099066fddf07ba2ba,2024-11-13_11h23.34.448,Tarea de género gramatical,2024.2.2,Win32,59.17159763,,,,,,,,,,,,,,,,,,,,,,,,123.6843,125.1145,l,1,[],[],[],[],[],[],[],0.7537,1,125.1167,125.6144,0,5,5,7,1,2008,FEM,CON,150,siesta,,a,0.7537,,,,,,,,,,,,,,,,,,
,,,,,,95e50b760d36ea7627bbb18e,66a626ef09d4e21e1a8894ec,6734e02099066fddf07ba2ba,2024-11-13_11h23.34.448,Tarea de género gramatical,2024.2.2,Win32,59.17159763,,,,,,,,,,,,,,,,,,,,,,,,125.618,126.7808,a,1,[],[],[],[],[],[],[],0.4882,1,126.7811,127.2807,0,6,6,8,1,2009,MAS,DIS,150,puerto,la,l,0.4882,,,,,,,,,,,,,,,,,,
,,,,,,95e50b760d36ea7627bbb18e,66a626ef09d4e21e1a8894ec,6734e02099066fddf07ba2ba,2024-11-13_11h23.34.448,Tarea de género gramatical,2024.2.2,Win32,59.17159763,,,,,,,,,,,,,,,,,,,,,,,,127.2827,128.3472,l,1,[],[],[],[],[],[],[],0.3876,1,128.3475,128.847,0,7,7,1,1,2002,FEM,CON,150,pala,,a,0.3876,,,,,,,,,,,,,,,,,,
,,,,,,95e50b760d36ea7627bbb18e,66a626ef09d4e21e1a8894ec,6734e02099066fddf07ba2ba,2024-11-13_11h23.34.448,Tarea de género gramatical,2024.2.2,Win32,59.17159763,,,,,,,,,,,,,,,,,,,,,,,,128.8494,129.8637,l,1,[],[],[],[],[],[],[],0.3356,1,129.864,130.3639,0,8,8,4,1,2005,FEM,CON,150,placa,,a,0.3356,,,,,,,,,,,,,,,,,,
,,,,,,95e50b760d36ea7627bbb18e,66a626ef09d4e21e1a8894ec,6734e02099066fddf07ba2ba,2024-11-13_11h23.34.448,Tarea de género gramatical,2024.2.2,Win32,59.17159763,,,,,,,,,,,,,,,,,,,,,,,,130.3672,131.4793,a,1,[],[],[],[],[],[],[],0.4361,1,131.4794,131.9792,0,9,9,13,1,2014,MAS,CON,150,siglo,,l,0.4361,,,,,,,,,,,,,,,,,,
,,,,,,95e50b760d36ea7627bbb18e,66a626ef09d4e21e1a8894ec,6734e02099066fddf07ba2ba,2024-11-13_11h23.34.448,Tarea de género gramatical,2024.2.2,Win32,59.17159763,,,,,,,,,,,,,,,,,,,,,,,,131.9812,133.229,a,1,[],[],[],[],[],[],[],0.574,1,133.2291,133.7288,0,10,10,14,1,2015,MAS,DIS,150,robot,la,l,0.574,,,,,,,,,,,,,,,,,,
,,,,,,95e50b760d36ea7627bbb18e,66a626ef09d4e21e1a8894ec,6734e02099066fddf07ba2ba,2024-11-13_11h23.34.448,Tarea de género gramatical,2024.2.2,Win32,59.17159763,,,,,,,,,,,,,,,,,,,,,,,,133.7299,135.1956,a,1,[],[],[],[],[],[],[],0.79,1,135.1957,135.6955,0,11,11,9,1,2010,MAS,AGR,150,vecino,el,l,0.79,,,,,,,,,,,,,,,,,,
,,,,,,95e50b760d36ea7627bbb18e,66a626ef09d4e21e1a8894ec,6734e02099066fddf07ba2ba,2024-11-13_11h23.34.448,Tarea de género gramatical,2024.2.2,Win32,59.17159763,,,,,,,,,,,,,,,,,,,,,,,,135.6969,136.896,l,0,[],[],[],[],[],[],[],0.52,0,136.8976,137.3954,0,12,12,10,1,2011,MAS,CON,150,canal,,l,0.52,,,,,,,,,,,,,,,,,,
,,,,,,95e50b760d36ea7627bbb18e,66a626ef09d4e21e1a8894ec,6734e02099066fddf07ba2ba,2024-11-13_11h23.34.448,Tarea de género gramatical,2024.2.2,Win32,59.17159763,,,,,,,,,,,,,,,,,,,,,,,,137.3968,138.9617,l,1,[],[],[],[],[],[],[],0.8838,1,138.9626,139.4622,0,13,13,2,1,2003,FEM,DIS,150,daga,el,a,0.8838,,,,,,,,,,,,,,,,,,
,,,,,,95e50b760d36ea7627bbb18e,66a626ef09d4e21e1a8894ec,6734e02099066fddf07ba2ba,2024-11-13_11h23.34.448,Tarea de género gramatical,2024.2.2,Win32,59.17159763,,,,,,,,,,,,,,,,,,,,,,,,139.4641,142.1114,,0,[],[],[],[],[],[],[],0.8838,-1,142.1125,142.6113,0,14,14,12,1,2013,MAS,AGR,150,acero,el,l,,,,,,,,,,,,,,,,,,,
,,,,,,95e50b760d36ea7627bbb18e,66a626ef09d4e21e1a8894ec,6734e02099066fddf07ba2ba,2024-11-13_11h23.34.448,Tarea de género gramatical,2024.2.2,Win32,59.17159763,,,149.5629,160.1265,space,-0.614814811,-0.19722225,0,0,0,,,,,,,,,,,,10.5466,,160.1898,161.6756,l,0,[],[],[],[],[],[],[],0.8169,0,161.6766,162.1756,,,,,,384,MAS,DIS,150,pedazo,la,l,0.8169,,162.176,162.183,-0.614814811,-0.19722225,0,0,0,,0,0,0,383,1,,,,
,,,,,,95e50b760d36ea7627bbb18e,66a626ef09d4e21e1a8894ec,6734e02099066fddf07ba2ba,2024-11-13_11h23.34.448,Tarea de género gramatical,2024.2.2,Win32,59.17159763,,,,,,,,,,,,,,,,,,,,,,,,162.1855,163.7754,a,1,[],[],[],[],[],[],[],0.9203,1,163.7763,164.2754,,,,,,413,MAS,CON,150,diario,,l,0.9203,,164.2755,164.2757,-0.614814811,-0.19722225,0,0,0,,0,1,1,412,1,,,,
,,,,,,95e50b760d36ea7627bbb18e,66a626ef09d4e21e1a8894ec,6734e02099066fddf07ba2ba,2024-11-13_11h23.34.448,Tarea de género gramatical,2024.2.2,Win32,59.17159763,,,,,,,,,,,,,,,,,,,,,,,,164.277,165.4424,a,1,[],[],[],[],[],[],[],0.4849,1,165.4426,165.9426,,,,,,388,MAS,AGR,150,empleo,el,l,0.4849,,165.9455,165.9482,-0.614814811,-0.19722225,0,0,0,,0,2,2,387,1,,,,
,,,,,,95e50b760d36ea7627bbb18e,66a626ef09d4e21e1a8894ec,6734e02099066fddf07ba2ba,2024-11-13_11h23.34.448,Tarea de género gramatical,2024.2.2,Win32,59.17159763,,,,,,,,,,,,,,,,,,,,,,,,165.9514,167.1758,l,1,[],[],[],[],[],[],[],0.5517,1,167.176,167.6752,,,,,,176,FEM,CON,150,línea,,a,0.5517,,167.6753,167.6755,-0.614814811,-0.19722225,0,0,0,,0,3,3,175,1,,,,
,,,,,,95e50b760d36ea7627bbb18e,66a626ef09d4e21e1a8894ec,6734e02099066fddf07ba2ba,2024-11-13_11h23.34.448,Tarea de género gramatical,2024.2.2,Win32,59.17159763,,,,,,,,,,,,,,,,,,,,,,,,167.677,168.8087,a,1,[],[],[],[],[],[],[],0.4512,1,168.809,169.309,,,,,,18,MAS,DIS,150,tren,la,l,0.4512,,169.3091,169.3094,-0.614814811,-0.19722225,0,0,0,,0,4,4,17,1,,,,
,,,,,,95e50b760d36ea7627bbb18e,66a626ef09d4e21e1a8894ec,6734e02099066fddf07ba2ba,2024-11-13_11h23.34.448,Tarea de género gramatical,2024.2.2,Win32,59.17159763,,,,,,,,,,,,,,,,,,,,,,,,169.3113,170.509,l,1,[],[],[],[],[],[],[],0.5179,1,170.5092,171.0087,,,,,,32,FEM,CON,150,caja,,a,0.5179,,171.0089,171.0093,-0.614814811,-0.19722225,0,0,0,,0,5,5,31,1,,,,
,,,,,,95e50b760d36ea7627bbb18e,66a626ef09d4e21e1a8894ec,6734e02099066fddf07ba2ba,2024-11-13_11h23.34.448,Tarea de género gramatical,2024.2.2,Win32,59.17159763,,,,,,,,,,,,,,,,,,,,,,,,171.0113,172.4923,l,1,[],[],[],[],[],[],[],0.8089,1,172.4925,172.9917,,,,,,38,FEM,CON,150,obra,,a,0.8089,,172.9948,172.9972,-0.614814811,-0.19722225,0,0,0,,0,6,6,37,1,,,,
,,,,,,95e50b760d36ea7627bbb18e,66a626ef09d4e21e1a8894ec,6734e02099066fddf07ba2ba,2024-11-13_11h23.34.448,Tarea de género gramatical,2024.2.2,Win32,59.17159763,,,,,,,,,,,,,,,,,,,,,,,,172.9996,174.3084,a,1,[],[],[],[],[],[],[],0.6345,1,174.3085,174.8083,,,,,,436,MAS,AGR,150,objeto,el,l,0.6345,,174.8085,174.8087,-0.614814811,-0.19722225,0,0,0,,0,7,7,435,1,,,,
,,,,,,95e50b760d36ea7627bbb18e,66a626ef09d4e21e1a8894ec,6734e02099066fddf07ba2ba,2024-11-13_11h23.34.448,Tarea de género gramatical,2024.2.2,Win32,59.17159763,,,,,,,,,,,,,,,,,,,,,,,,174.8114,176.0749,a,1,[],[],[],[],[],[],[],0.5846,1,176.0753,176.575,,,,,,376,MAS,AGR,150,efecto,el,l,0.5846,,176.5752,176.5755,-0.614814811,-0.19722225,0,0,0,,0,8,8,375,1,,,,
,,,,,,95e50b760d36ea7627bbb18e,66a626ef09d4e21e1a8894ec,6734e02099066fddf07ba2ba,2024-11-13_11h23.34.448,Tarea de género gramatical,2024.2.2,Win32,59.17159763,,,,,,,,,,,,,,,,,,,,,,,,176.5776,177.9744,l,1,[],[],[],[],[],[],[],0.719,1,177.9749,178.4747,,,,,,386,FEM,CON,150,sombra,,a,0.719,,178.4749,178.4753,-0.614814811,-0.19722225,0,0,0,,0,9,9,385,1,,,,
,,,,,,95e50b760d36ea7627bbb18e,66a626ef09d4e21e1a8894ec,6734e02099066fddf07ba2ba,2024-11-13_11h23.34.448,Tarea de género gramatical,2024.2.2,Win32,59.17159763,,,,,,,,,,,,,,,,,,,,,,,,178.4775,179.6571,a,0,[],[],[],[],[],[],[],0.5012,0,179.6584,180.157,,,,,,247,FEM,AGR,150,frase,la,a,0.5012,,180.157,180.1572,-0.614814811,-0.19722225,0,0,0,,0,10,10,246,1,,,,
,,,,,,95e50b760d36ea7627bbb18e,66a626ef09d4e21e1a8894ec,6734e02099066fddf07ba2ba,2024-11-13_11h23.34.448,Tarea de género gramatical,2024.2.2,Win32,59.17159763,,,,,,,,,,,,,,,,,,,,,,,,180.159,182.2567,a,1,[],[],[],[],[],[],[],1.4182,1,182.2578,182.7562,,,,,,414,MAS,DIS,150,sótano,la,l,1.4182,,182.7575,182.7581,-0.614814811,-0.19722225,0,0,0,,0,11,11,413,1,,,,
,,,,,,95e50b760d36ea7627bbb18e,66a626ef09d4e21e1a8894ec,6734e02099066fddf07ba2ba,2024-11-13_11h23.34.448,Tarea de género gramatical,2024.2.2,Win32,59.17159763,,,,,,,,,,,,,,,,,,,,,,,,182.7592,183.9229,l,1,[],[],[],[],[],[],[],0.4886,1,183.923,184.423,,,,,,67,FEM,AGR,150,miel,la,a,0.4886,,184.4231,184.4232,-0.614814811,-0.19722225,0,0,0,,0,12,12,66,1,,,,
,,,,,,95e50b760d36ea7627bbb18e,66a626ef09d4e21e1a8894ec,6734e02099066fddf07ba2ba,2024-11-13_11h23.34.448,Tarea de género gramatical,2024.2.2,Win32,59.17159763,,,,,,,,,,,,,,,,,,,,,,,,184.4244,185.5563,a,1,[],[],[],[],[],[],[],0.4508,1,185.5565,186.056,,,,,,59,MAS,CON,150,lobo,,l,0.4508,,186.056,186.0562,-0.614814811,-0.19722225,0,0,0,,0,13,13,58,1,,,,
,,,,,,95e50b760d36ea7627bbb18e,66a626ef09d4e21e1a8894ec,6734e02099066fddf07ba2ba,2024-11-13_11h23.34.448,Tarea de género gramatical,2024.2.2,Win32,59.17159763,,,,,,,,,,,,,,,,,,,,,,,,186.0572,187.2226,a,1,[],[],[],[],[],[],[],0.4851,1,187.2226,187.7226,,,,,,262,MAS,AGR,150,video,el,l,0.4851,,187.7227,187.7229,-0.614814811,-0.19722225,0,0,0,,0,14,14,261,1,,,,
,,,,,,95e50b760d36ea7627bbb18e,66a626ef09d4e21e1a8894ec,6734e02099066fddf07ba2ba,2024-11-13_11h23.34.448,Tarea de género gramatical,2024.2.2,Win32,59.17159763,,,,,,,,,,,,,,,,,,,,,,,,187.7244,188.9724,a,1,[],[],[],[],[],[],[],0.5672,1,188.9724,189.4723,,,,,,101,MAS,CON,150,giro,,l,0.5672,,189.4739,189.475,-0.614814811,-0.19722225,0,0,0,,0,15,15,100,1,,,,
,,,,,,95e50b760d36ea7627bbb18e,66a626ef09d4e21e1a8894ec,6734e02099066fddf07ba2ba,2024-11-13_11h23.34.448,Tarea de género gramatical,2024.2.2,Win32,59.17159763,,,,,,,,,,,,,,,,,,,,,,,,189.4764,190.9555,a,0,[],[],[],[],[],[],[],0.7993,0,190.9566,191.4556,,,,,,243,FEM,DIS,150,salsa,el,a,0.7993,,191.4556,191.4557,-0.614814811,-0.19722225,0,0,0,,0,16,16,242,1,,,,
,,,,,,95e50b760d36ea7627bbb18e,66a626ef09d4e21e1a8894ec,6734e02099066fddf07ba2ba,2024-11-13_11h23.34.448,Tarea de género gramatical,2024.2.2,Win32,59.17159763,,,,,,,,,,,,,,,,,,,,,,,,191.4577,193.0385,l,1,[],[],[],[],[],[],[],0.9057,1,193.0399,193.5385,,,,,,117,FEM,DIS,150,raya,el,a,0.9057,,193.5386,193.5387,-0.614814811,-0.19722225,0,0,0,,0,17,17,116,1,,,,
,,,,,,95e50b760d36ea7627bbb18e,66a626ef09d4e21e1a8894ec,6734e02099066fddf07ba2ba,2024-11-13_11h23.34.448,Tarea de género gramatical,2024.2.2,Win32,59.17159763,,,,,,,,,,,,,,,,,,,,,,,,193.5395,194.7052,l,1,[],[],[],[],[],[],[],0.4851,1,194.7053,195.2053,,,,,,392,FEM,CON,150,maleta,,a,0.4851,,195.2053,195.2055,-0.614814811,-0.19722225,0,0,0,,0,18,18,391,1,,,,
,,,,,,95e50b760d36ea7627bbb18e,66a626ef09d4e21e1a8894ec,6734e02099066fddf07ba2ba,2024-11-13_11h23.34.448,Tarea de género gramatical,2024.2.2,Win32,59.17159763,,,,,,,,,,,,,,,,,,,,,,,,195.2069,196.8551,a,1,[],[],[],[],[],[],[],0.9685,1,196.8552,197.3547,,,,,,281,MAS,CON,150,actor,,l,0.9685,,197.3548,197.3548,-0.614814811,-0.19722225,0,0,0,,0,19,19,280,1,,,,
,,,,,,95e50b760d36ea7627bbb18e,66a626ef09d4e21e1a8894ec,6734e02099066fddf07ba2ba,2024-11-13_11h23.34.448,Tarea de género gramatical,2024.2.2,Win32,59.17159763,,,,,,,,,,,,,,,,,,,,,,,,197.3559,198.6379,l,1,[],[],[],[],[],[],[],0.5998,1,198.6381,199.1376,,,,,,373,FEM,AGR,150,lluvia,la,a,0.5998,,199.1388,199.1396,-0.614814811,-0.19722225,0,0,0,,0,20,20,372,1,,,,
,,,,,,95e50b760d36ea7627bbb18e,66a626ef09d4e21e1a8894ec,6734e02099066fddf07ba2ba,2024-11-13_11h23.34.448,Tarea de género gramatical,2024.2.2,Win32,59.17159763,,,,,,,,,,,,,,,,,,,,,,,,199.1407,200.3044,a,1,[],[],[],[],[],[],[],0.483,1,200.3045,200.8044,,,,,,347,MAS,CON,150,cuello,,l,0.483,,200.8045,200.8047,-0.614814811,-0.19722225,0,0,0,,0,21,21,346,1,,,,
,,,,,,95e50b760d36ea7627bbb18e,66a626ef09d4e21e1a8894ec,6734e02099066fddf07ba2ba,2024-11-13_11h23.34.448,Tarea de género gramatical,2024.2.2,Win32,59.17159763,,,,,,,,,,,,,,,,,,,,,,,,200.806,201.9874,l,1,[],[],[],[],[],[],[],0.4997,1,201.9874,202.4876,,,,,,290,FEM,CON,150,cabra,,a,0.4997,,202.4876,202.4877,-0.614814811,-0.19722225,0,0,0,,0,22,22,289,1,,,,
,,,,,,95e50b760d36ea7627bbb18e,66a626ef09d4e21e1a8894ec,6734e02099066fddf07ba2ba,2024-11-13_11h23.34.448,Tarea de género gramatical,2024.2.2,Win32,59.17159763,,,,,,,,,,,,,,,,,,,,,,,,202.489,203.6707,l,1,[],[],[],[],[],[],[],0.5091,1,203.6708,204.1705,,,,,,169,FEM,AGR,150,vista,la,a,0.5091,,204.1706,204.1708,-0.614814811,-0.19722225,0,0,0,,0,23,23,168,1,,,,
,,,,,,95e50b760d36ea7627bbb18e,66a626ef09d4e21e1a8894ec,6734e02099066fddf07ba2ba,2024-11-13_11h23.34.448,Tarea de género gramatical,2024.2.2,Win32,59.17159763,,,,,,,,,,,,,,,,,,,,,,,,204.172,205.8538,a,1,[],[],[],[],[],[],[],1.0001,1,205.854,206.3536,,,,,,336,MAS,DIS,150,crimen,la,l,1.0001,,206.3552,206.3564,-0.614814811,-0.19722225,0,0,0,,0,24,24,335,1,,,,
,,,,,,95e50b760d36ea7627bbb18e,66a626ef09d4e21e1a8894ec,6734e02099066fddf07ba2ba,2024-11-13_11h23.34.448,Tarea de género gramatical,2024.2.2,Win32,59.17159763,,,,,,,,,,,,,,,,,,,,,,,,206.3578,207.7036,a,1,[],[],[],[],[],[],[],0.6721,1,207.7037,208.2035,,,,,,108,MAS,DIS,150,hilo,la,l,0.6721,,208.2035,208.2037,-0.614814811,-0.19722225,0,0,0,,0,25,25,107,1,,,,
,,,,,,95e50b760d36ea7627bbb18e,66a626ef09d4e21e1a8894ec,6734e02099066fddf07ba2ba,2024-11-13_11h23.34.448,Tarea de género gramatical,2024.2.2,Win32,59.17159763,,,,,,,,,,,,,,,,,,,,,,,,208.2049,209.3033,l,1,[],[],[],[],[],[],[],0.4247,1,209.3034,209.8034,,,,,,380,FEM,CON,150,madera,,a,0.4247,,209.8035,209.8037,-0.614814811,-0.19722225,0,0,0,,0,26,26,379,1,,,,
,,,,,,95e50b760d36ea7627bbb18e,66a626ef09d4e21e1a8894ec,6734e02099066fddf07ba2ba,2024-11-13_11h23.34.448,Tarea de género gramatical,2024.2.2,Win32,59.17159763,,,,,,,,,,,,,,,,,,,,,,,,209.8053,211.0365,a,0,[],[],[],[],[],[],[],0.5543,0,211.0377,211.5362,,,,,,349,FEM,AGR,150,prensa,la,a,0.5543,,211.5363,211.5364,-0.614814811,-0.19722225,0,0,0,,0,27,27,348,1,,,,
,,,,,,95e50b760d36ea7627bbb18e,66a626ef09d4e21e1a8894ec,6734e02099066fddf07ba2ba,2024-11-13_11h23.34.448,Tarea de género gramatical,2024.2.2,Win32,59.17159763,,,,,,,,,,,,,,,,,,,,,,,,211.5376,213.3861,a,1,[],[],[],[],[],[],[],1.1678,1,213.3871,213.8859,,,,,,102,MAS,DIS,150,coro,la,l,1.1678,,213.886,213.886,-0.614814811,-0.19722225,0,0,0,,0,28,28,101,1,,,,
,,,,,,95e50b760d36ea7627bbb18e,66a626ef09d4e21e1a8894ec,6734e02099066fddf07ba2ba,2024-11-13_11h23.34.448,Tarea de género gramatical,2024.2.2,Win32,59.17159763,,,,,,,,,,,,,,,,,,,,,,,,213.8872,215.0859,a,1,[],[],[],[],[],[],[],0.5236,1,215.0861,215.586,,,,,,365,MAS,CON,150,código,,l,0.5236,,215.5878,215.5889,-0.614814811,-0.19722225,0,0,0,,0,29,29,364,1,,,,
,,,,,,95e50b760d36ea7627bbb18e,66a626ef09d4e21e1a8894ec,6734e02099066fddf07ba2ba,2024-11-13_11h23.34.448,Tarea de género gramatical,2024.2.2,Win32,59.17159763,,,,,,,,,,,,,,,,,,,,,,,,215.5905,216.6692,l,1,[],[],[],[],[],[],[],0.4021,1,216.6692,217.1692,,,,,,333,FEM,DIS,150,locura,el,a,0.4021,,217.1692,217.1694,-0.614814811,-0.19722225,0,0,0,,0,30,30,332,1,,,,
,,,,,,95e50b760d36ea7627bbb18e,66a626ef09d4e21e1a8894ec,6734e02099066fddf07ba2ba,2024-11-13_11h23.34.448,Tarea de género gramatical,2024.2.2,Win32,59.17159763,,,,,,,,,,,,,,,,,,,,,,,,217.1708,218.5189,a,1,[],[],[],[],[],[],[],0.6673,1,218.5191,219.0187,,,,,,12,MAS,DIS,150,plan,la,l,0.6673,,219.0187,219.0188,-0.614814811,-0.19722225,0,0,0,,0,31,31,11,1,,,,
,,,,,,95e50b760d36ea7627bbb18e,66a626ef09d4e21e1a8894ec,6734e02099066fddf07ba2ba,2024-11-13_11h23.34.448,Tarea de género gramatical,2024.2.2,Win32,59.17159763,,,,,,,,,,,,,,,,,,,,,,,,219.02,220.3187,l,1,[],[],[],[],[],[],[],0.6178,1,220.3188,220.8187,,,,,,242,FEM,CON,150,pizza,,a,0.6178,,220.8187,220.8188,-0.614814811,-0.19722225,0,0,0,,0,32,32,241,1,,,,
,,,,,,95e50b760d36ea7627bbb18e,66a626ef09d4e21e1a8894ec,6734e02099066fddf07ba2ba,2024-11-13_11h23.34.448,Tarea de género gramatical,2024.2.2,Win32,59.17159763,,,,,,,,,,,,,,,,,,,,,,,,220.8203,222.2851,l,1,[],[],[],[],[],[],[],0.7843,1,222.2852,222.785,,,,,,445,FEM,AGR,150,bondad,la,a,0.7843,,222.7871,222.7884,-0.614814811,-0.19722225,0,0,0,,0,33,33,444,1,,,,
,,,,,,95e50b760d36ea7627bbb18e,66a626ef09d4e21e1a8894ec,6734e02099066fddf07ba2ba,2024-11-13_11h23.34.448,Tarea de género gramatical,2024.2.2,Win32,59.17159763,,,,,,,,,,,,,,,,,,,,,,,,222.7896,223.885,l,1,[],[],[],[],[],[],[],0.4178,1,223.8851,224.3848,,,,,,13,FEM,AGR,150,hija,la,a,0.4178,,224.3849,224.385,-0.614814811,-0.19722225,0,0,0,,0,34,34,12,1,,,,
,,,,,,95e50b760d36ea7627bbb18e,66a626ef09d4e21e1a8894ec,6734e02099066fddf07ba2ba,2024-11-13_11h23.34.448,Tarea de género gramatical,2024.2.2,Win32,59.17159763,,,,,,,,,,,,,,,,,,,,,,,,224.3863,225.4513,l,1,[],[],[],[],[],[],[],0.389,1,225.4515,225.9513,,,,,,375,FEM,DIS,150,cadena,el,a,0.389,,225.9514,225.9515,-0.614814811,-0.19722225,0,0,0,,0,35,35,374,1,,,,
,,,,,,95e50b760d36ea7627bbb18e,66a626ef09d4e21e1a8894ec,6734e02099066fddf07ba2ba,2024-11-13_11h23.34.448,Tarea de género gramatical,2024.2.2,Win32,59.17159763,,,,,,,,,,,,,,,,,,,,,,,,225.9529,227.0513,a,1,[],[],[],[],[],[],[],0.4172,1,227.0513,227.5512,,,,,,370,MAS,AGR,150,seguro,el,l,0.4172,,227.5513,227.5514,-0.614814811,-0.19722225,0,0,0,,0,36,36,369,1,,,,
,,,,,,95e50b760d36ea7627bbb18e,66a626ef09d4e21e1a8894ec,6734e02099066fddf07ba2ba,2024-11-13_11h23.34.448,Tarea de género gramatical,2024.2.2,Win32,59.17159763,,,,,,,,,,,,,,,,,,,,,,,,227.5526,228.9341,a,1,[],[],[],[],[],[],[],0.7007,1,228.9342,229.4344,,,,,,383,MAS,CON,150,parque,,l,0.7007,,229.4344,229.4346,-0.614814811,-0.19722225,0,0,0,,0,37,37,382,1,,,,
,,,,,,95e50b760d36ea7627bbb18e,66a626ef09d4e21e1a8894ec,6734e02099066fddf07ba2ba,2024-11-13_11h23.34.448,Tarea de género gramatical,2024.2.2,Win32,59.17159763,,,,,,,,,,,,,,,,,,,,,,,,229.4359,230.9843,l,1,[],[],[],[],[],[],[],0.8741,1,230.9844,231.4844,,,,,,351,FEM,DIS,150,espada,el,a,0.8741,,231.4892,231.4909,-0.614814811,-0.19722225,0,0,0,,0,38,38,350,1,,,,
,,,,,,95e50b760d36ea7627bbb18e,66a626ef09d4e21e1a8894ec,6734e02099066fddf07ba2ba,2024-11-13_11h23.34.448,Tarea de género gramatical,2024.2.2,Win32,59.17159763,,,,,,,,,,,,,,,,,,,,,,,,231.4928,232.6514,a,1,[],[],[],[],[],[],[],0.49,1,232.6517,233.1515,,,,,,222,MAS,DIS,150,valor,la,l,0.49,,233.1516,233.1518,-0.614814811,-0.19722225,0,0,0,,0,39,39,221,1,,,,
,,,,,,95e50b760d36ea7627bbb18e,66a626ef09d4e21e1a8894ec,6734e02099066fddf07ba2ba,2024-11-13_11h23.34.448,Tarea de género gramatical,2024.2.2,Win32,59.17159763,,,,,,,,,,,,,,,,,,,,,,,,233.1547,234.4682,a,1,[],[],[],[],[],[],[],0.6349,1,234.4684,234.9679,,,,,,226,MAS,AGR,150,color,el,l,0.6349,,234.9681,234.9683,-0.614814811,-0.19722225,0,0,0,,0,40,40,225,1,,,,
,,,,,,95e50b760d36ea7627bbb18e,66a626ef09d4e21e1a8894ec,6734e02099066fddf07ba2ba,2024-11-13_11h23.34.448,Tarea de género gramatical,2024.2.2,Win32,59.17159763,,,,,,,,,,,,,,,,,,,,,,,,234.9705,236.151,l,1,[],[],[],[],[],[],[],0.5011,1,236.1513,236.6507,,,,,,434,FEM,CON,150,corona,,a,0.5011,,236.6508,236.651,-0.614814811,-0.19722225,0,0,0,,0,41,41,433,1,,,,
,,,,,,95e50b760d36ea7627bbb18e,66a626ef09d4e21e1a8894ec,6734e02099066fddf07ba2ba,2024-11-13_11h23.34.448,Tarea de género gramatical,2024.2.2,Win32,59.17159763,,,,,,,,,,,,,,,,,,,,,,,,236.6547,237.9511,a,1,[],[],[],[],[],[],[],0.6176,1,237.9514,238.4501,,,,,,131,MAS,CON,150,kilo,,l,0.6176,,238.4521,238.4535,-0.614814811,-0.19722225,0,0,0,,0,42,42,130,1,,,,
,,,,,,95e50b760d36ea7627bbb18e,66a626ef09d4e21e1a8894ec,6734e02099066fddf07ba2ba,2024-11-13_11h23.34.448,Tarea de género gramatical,2024.2.2,Win32,59.17159763,,,,,,,,,,,,,,,,,,,,,,,,238.455,239.7008,l,1,[],[],[],[],[],[],[],0.5679,1,239.7009,240.2005,,,,,,411,FEM,DIS,150,actriz,el,a,0.5679,,240.2005,240.2009,-0.614814811,-0.19722225,0,0,0,,0,43,43,410,1,,,,
,,,,,,95e50b760d36ea7627bbb18e,66a626ef09d4e21e1a8894ec,6734e02099066fddf07ba2ba,2024-11-13_11h23.34.448,Tarea de género gramatical,2024.2.2,Win32,59.17159763,,,,,,,,,,,,,,,,,,,,,,,,240.2028,241.4002,l,1,[],[],[],[],[],[],[],0.5214,1,241.4004,241.9,,,,,,140,FEM,CON,150,mula,,a,0.5214,,241.9,241.9002,-0.614814811,-0.19722225,0,0,0,,0,44,44,139,1,,,,
,,,,,,95e50b760d36ea7627bbb18e,66a626ef09d4e21e1a8894ec,6734e02099066fddf07ba2ba,2024-11-13_11h23.34.448,Tarea de género gramatical,2024.2.2,Win32,59.17159763,,,,,,,,,,,,,,,,,,,,,,,,241.9024,243.1332,a,1,[],[],[],[],[],[],[],0.5574,1,243.1334,243.6336,,,,,,407,MAS,CON,150,jurado,,l,0.5574,,243.6337,243.6338,-0.614814811,-0.19722225,0,0,0,,0,45,45,406,1,,,,
,,,,,,95e50b760d36ea7627bbb18e,66a626ef09d4e21e1a8894ec,6734e02099066fddf07ba2ba,2024-11-13_11h23.34.448,Tarea de género gramatical,2024.2.2,Win32,59.17159763,,,,,,,,,,,,,,,,,,,,,,,,243.636,244.8001,a,1,[],[],[],[],[],[],[],0.488,1,244.8002,245.3,,,,,,113,MAS,CON,150,toro,,l,0.488,,245.3002,245.3003,-0.614814811,-0.19722225,0,0,0,,0,46,46,112,1,,,,
,,,,,,95e50b760d36ea7627bbb18e,66a626ef09d4e21e1a8894ec,6734e02099066fddf07ba2ba,2024-11-13_11h23.34.448,Tarea de género gramatical,2024.2.2,Win32,59.17159763,,,,,,,,,,,,,,,,,,,,,,,,245.3025,246.4163,a,1,[],[],[],[],[],[],[],0.4338,1,246.4165,246.9164,,,,,,258,MAS,DIS,150,polvo,la,l,0.4338,,246.9196,246.9223,-0.614814811,-0.19722225,0,0,0,,0,47,47,257,1,,,,
,,,,,,95e50b760d36ea7627bbb18e,66a626ef09d4e21e1a8894ec,6734e02099066fddf07ba2ba,2024-11-13_11h23.34.448,Tarea de género gramatical,2024.2.2,Win32,59.17159763,,,,,,,,,,,,,,,,,,,,,,,,246.9245,248.0823,a,0,[],[],[],[],[],[],[],0.482,0,248.0834,248.5828,,,,,,313,FEM,AGR,150,ciudad,la,a,0.482,,248.5829,248.5832,-0.614814811,-0.19722225,0,0,0,,0,48,48,312,1,,,,
,,,,,,95e50b760d36ea7627bbb18e,66a626ef09d4e21e1a8894ec,6734e02099066fddf07ba2ba,2024-11-13_11h23.34.448,Tarea de género gramatical,2024.2.2,Win32,59.17159763,,,,,,,,,,,,,,,,,,,,,,,,248.5852,249.8661,a,1,[],[],[],[],[],[],[],0.6012,1,249.8677,250.3657,,,,,,83,MAS,CON,150,nene,,l,0.6012,,250.3659,250.3661,-0.614814811,-0.19722225,0,0,0,,0,49,49,82,1,,,,
,,,,,,95e50b760d36ea7627bbb18e,66a626ef09d4e21e1a8894ec,6734e02099066fddf07ba2ba,2024-11-13_11h23.34.448,Tarea de género gramatical,2024.2.2,Win32,59.17159763,,,,,,,,,,,,,,,,,,,,,,,,250.3684,251.4996,l,1,[],[],[],[],[],[],[],0.4567,1,251.4998,251.9992,,,,,,374,FEM,CON,150,herida,,a,0.4567,,251.9993,251.9996,-0.614814811,-0.19722225,0,0,0,,0,50,50,373,1,,,,
,,,,,,95e50b760d36ea7627bbb18e,66a626ef09d4e21e1a8894ec,6734e02099066fddf07ba2ba,2024-11-13_11h23.34.448,Tarea de género gramatical,2024.2.2,Win32,59.17159763,,,,,,,,,,,,,,,,,,,,,,,,252.0014,253.3819,l,1,[],[],[],[],[],[],[],0.7022,1,253.3821,253.8824,,,,,,356,FEM,CON,150,piedra,,a,0.7022,,253.8851,253.8868,-0.614814811,-0.19722225,0,0,0,,0,51,51,355,1,,,,
,,,,,,95e50b760d36ea7627bbb18e,66a626ef09d4e21e1a8894ec,6734e02099066fddf07ba2ba,2024-11-13_11h23.34.448,Tarea de género gramatical,2024.2.2,Win32,59.17159763,,,,,,,,,,,,,,,,,,,,,,,,253.8887,255.0488,l,1,[],[],[],[],[],[],[],0.4855,1,255.0491,255.5485,,,,,,433,FEM,AGR,150,huella,la,a,0.4855,,255.5486,255.5488,-0.614814811,-0.19722225,0,0,0,,0,52,52,432,1,,,,
,,,,,,95e50b760d36ea7627bbb18e,66a626ef09d4e21e1a8894ec,6734e02099066fddf07ba2ba,2024-11-13_11h23.34.448,Tarea de género gramatical,2024.2.2,Win32,59.17159763,,,,,,,,,,,,,,,,,,,,,,,,255.5516,257.3651,l,1,[],[],[],[],[],[],[],1.1345,1,257.3654,257.865,,,,,,147,FEM,DIS,150,grúa,el,a,1.1345,,257.8651,257.8654,-0.614814811,-0.19722225,0,0,0,,0,53,53,146,1,,,,
,,,,,,95e50b760d36ea7627bbb18e,66a626ef09d4e21e1a8894ec,6734e02099066fddf07ba2ba,2024-11-13_11h23.34.448,Tarea de género gramatical,2024.2.2,Win32,59.17159763,,,,,,,,,,,,,,,,,,,,,,,,257.8672,259.0319,a,1,[],[],[],[],[],[],[],0.4845,1,259.0321,259.5316,,,,,,41,MAS,CON,150,bote,,l,0.4845,,259.5317,259.5321,-0.614814811,-0.19722225,0,0,0,,0,54,54,40,1,,,,
,,,,,,95e50b760d36ea7627bbb18e,66a626ef09d4e21e1a8894ec,6734e02099066fddf07ba2ba,2024-11-13_11h23.34.448,Tarea de género gramatical,2024.2.2,Win32,59.17159763,,,,,,,,,,,,,,,,,,,,,,,,259.535,261.2317,l,1,[],[],[],[],[],[],[],1.0196,1,261.2319,261.7314,,,,,,319,FEM,AGR,150,sangre,la,a,1.0196,,261.7315,261.7318,-0.614814811,-0.19722225,0,0,0,,0,55,55,318,1,,,,
,,,,,,95e50b760d36ea7627bbb18e,66a626ef09d4e21e1a8894ec,6734e02099066fddf07ba2ba,2024-11-13_11h23.34.448,Tarea de género gramatical,2024.2.2,Win32,59.17159763,,,,,,,,,,,,,,,,,,,,,,,,261.7339,263.0308,l,1,[],[],[],[],[],[],[],0.6228,1,263.031,263.531,,,,,,129,FEM,DIS,150,rana,el,a,0.6228,,263.5341,263.5364,-0.614814811,-0.19722225,0,0,0,,0,56,56,128,1,,,,
,,,,,,95e50b760d36ea7627bbb18e,66a626ef09d4e21e1a8894ec,6734e02099066fddf07ba2ba,2024-11-13_11h23.34.448,Tarea de género gramatical,2024.2.2,Win32,59.17159763,,,,,,,,,,,,,,,,,,,,,,,,263.5381,264.7644,l,1,[],[],[],[],[],[],[],0.5536,1,264.7646,265.2644,,,,,,50,FEM,CON,150,dama,,a,0.5536,,265.2645,265.2646,-0.614814811,-0.19722225,0,0,0,,0,57,57,49,1,,,,
,,,,,,95e50b760d36ea7627bbb18e,66a626ef09d4e21e1a8894ec,6734e02099066fddf07ba2ba,2024-11-13_11h23.34.448,Tarea de género gramatical,2024.2.2,Win32,59.17159763,,,,,,,,,,,,,,,,,,,,,,,,265.2668,266.4143,l,1,[],[],[],[],[],[],[],0.47,1,266.4145,266.914,,,,,,429,FEM,DIS,150,fianza,el,a,0.47,,266.9141,266.9143,-0.614814811,-0.19722225,0,0,0,,0,58,58,428,1,,,,
,,,,,,95e50b760d36ea7627bbb18e,66a626ef09d4e21e1a8894ec,6734e02099066fddf07ba2ba,2024-11-13_11h23.34.448,Tarea de género gramatical,2024.2.2,Win32,59.17159763,,,,,,,,,,,,,,,,,,,,,,,,266.9166,268.0306,l,1,[],[],[],[],[],[],[],0.4346,1,268.0309,268.5305,,,,,,39,FEM,DIS,150,luna,el,a,0.4346,,268.5306,268.5309,-0.614814811,-0.19722225,0,0,0,,0,59,59,38,1,,,,
,,,,,,95e50b760d36ea7627bbb18e,66a626ef09d4e21e1a8894ec,6734e02099066fddf07ba2ba,2024-11-13_11h23.34.448,Tarea de género gramatical,2024.2.2,Win32,59.17159763,,,,,,,,,,,,,,,,,,,,,,,,268.5328,269.5973,a,1,[],[],[],[],[],[],[],0.3908,1,269.5974,270.097,,,,,,346,MAS,AGR,150,juicio,el,l,0.3908,,270.1002,270.1021,-0.614814811,-0.19722225,0,0,0,,0,60,60,345,1,,,,
,,,,,,95e50b760d36ea7627bbb18e,66a626ef09d4e21e1a8894ec,6734e02099066fddf07ba2ba,2024-11-13_11h23.34.448,Tarea de género gramatical,2024.2.2,Win32,59.17159763,,,,,,,,,,,,,,,,,,,,,,,,270.104,271.2806,l,1,[],[],[],[],[],[],[],0.5001,1,271.2808,271.7802,,,,,,405,FEM,DIS,150,parada,el,a,0.5001,,271.7805,271.7807,-0.614814811,-0.19722225,0,0,0,,0,61,61,404,1,,,,
,,,,,,95e50b760d36ea7627bbb18e,66a626ef09d4e21e1a8894ec,6734e02099066fddf07ba2ba,2024-11-13_11h23.34.448,Tarea de género gramatical,2024.2.2,Win32,59.17159763,,,,,,,,,,,,,,,,,,,,,,,,271.7837,273.0964,l,1,[],[],[],[],[],[],[],0.6347,1,273.0967,273.5967,,,,,,175,FEM,AGR,150,señal,la,a,0.6347,,273.597,273.5973,-0.614814811,-0.19722225,0,0,0,,0,62,62,174,1,,,,
,,,,,,95e50b760d36ea7627bbb18e,66a626ef09d4e21e1a8894ec,6734e02099066fddf07ba2ba,2024-11-13_11h23.34.448,Tarea de género gramatical,2024.2.2,Win32,59.17159763,,,,,,,,,,,,,,,,,,,,,,,,273.5992,274.6967,a,1,[],[],[],[],[],[],[],0.4181,1,274.6968,275.1964,,,,,,412,MAS,AGR,150,espejo,el,l,0.4181,,275.1965,275.1967,-0.614814811,-0.19722225,0,0,0,,0,63,63,411,1,,,,
,,,,,,95e50b760d36ea7627bbb18e,66a626ef09d4e21e1a8894ec,6734e02099066fddf07ba2ba,2024-11-13_11h23.34.448,Tarea de género gramatical,2024.2.2,Win32,59.17159763,,,,,,,,,,,,,,,,,,,,,,,,275.1989,276.3287,a,1,[],[],[],[],[],[],[],0.4502,1,276.3288,276.8293,,,,,,160,MAS,AGR,150,señor,el,l,0.4502,,276.8294,276.8298,-0.614814811,-0.19722225,0,0,0,,0,64,64,159,1,,,,
,,,,,,95e50b760d36ea7627bbb18e,66a626ef09d4e21e1a8894ec,6734e02099066fddf07ba2ba,2024-11-13_11h23.34.448,Tarea de género gramatical,2024.2.2,Win32,59.17159763,,,,,,,,,,,,,,,,,,,,,,,,276.8323,278.0457,l,1,[],[],[],[],[],[],[],0.5349,1,278.0459,278.5459,,,,,,85,FEM,AGR,150,gira,la,a,0.5349,,278.5486,278.5507,-0.614814811,-0.19722225,0,0,0,,0,65,65,84,1,,,,
,,,,,,95e50b760d36ea7627bbb18e,66a626ef09d4e21e1a8894ec,6734e02099066fddf07ba2ba,2024-11-13_11h23.34.448,Tarea de género gramatical,2024.2.2,Win32,59.17159763,,,,,,,,,,,,,,,,,,,,,,,,278.5527,279.546,a,1,[],[],[],[],[],[],[],0.3168,1,279.5463,280.0457,,,,,,323,MAS,CON,150,marido,,l,0.3168,,280.0459,280.0461,-0.614814811,-0.19722225,0,0,0,,0,66,66,322,1,,,,
,,,,,,95e50b760d36ea7627bbb18e,66a626ef09d4e21e1a8894ec,6734e02099066fddf07ba2ba,2024-11-13_11h23.34.448,Tarea de género gramatical,2024.2.2,Win32,59.17159763,,,,,,,,,,,,,,,,,,,,,,,,280.0482,281.2621,l,1,[],[],[],[],[],[],[],0.5362,1,281.2624,281.7626,,,,,,133,FEM,AGR,150,joya,la,a,0.5362,,281.7628,281.763,-0.614814811,-0.19722225,0,0,0,,0,67,67,132,1,,,,
,,,,,,95e50b760d36ea7627bbb18e,66a626ef09d4e21e1a8894ec,6734e02099066fddf07ba2ba,2024-11-13_11h23.34.448,Tarea de género gramatical,2024.2.2,Win32,59.17159763,,,,,,,,,,,,,,,,,,,,,,,,281.7654,282.9284,a,1,[],[],[],[],[],[],[],0.4907,1,282.9287,283.4288,,,,,,96,MAS,DIS,150,pato,la,l,0.4907,,283.4289,283.4291,-0.614814811,-0.19722225,0,0,0,,0,68,68,95,1,,,,
,,,,,,95e50b760d36ea7627bbb18e,66a626ef09d4e21e1a8894ec,6734e02099066fddf07ba2ba,2024-11-13_11h23.34.448,Tarea de género gramatical,2024.2.2,Win32,59.17159763,,,,,,,,,,,,,,,,,,,,,,,,283.4312,284.4954,l,1,[],[],[],[],[],[],[],0.3844,1,284.4955,284.9953,,,,,,355,FEM,AGR,150,mirada,la,a,0.3844,,284.998,284.9998,-0.614814811,-0.19722225,0,0,0,,0,69,69,354,1,,,,
,,,,,,95e50b760d36ea7627bbb18e,66a626ef09d4e21e1a8894ec,6734e02099066fddf07ba2ba,2024-11-13_11h23.34.448,Tarea de género gramatical,2024.2.2,Win32,59.17159763,,,,,,,,,,,,,,,,,,,,,,,,285.0017,286.2949,l,1,[],[],[],[],[],[],[],0.6181,1,286.2952,286.7952,,,,,,361,FEM,AGR,150,oferta,la,a,0.6181,,286.7953,286.7956,-0.614814811,-0.19722225,0,0,0,,0,70,70,360,1,,,,
,,,,,,95e50b760d36ea7627bbb18e,66a626ef09d4e21e1a8894ec,6734e02099066fddf07ba2ba,2024-11-13_11h23.34.448,Tarea de género gramatical,2024.2.2,Win32,59.17159763,,,,,,,,,,,,,,,,,,,,,,,,286.7977,287.9112,l,1,[],[],[],[],[],[],[],0.4381,1,287.9114,288.4116,,,,,,91,FEM,AGR,150,hoja,la,a,0.4381,,288.4117,288.4119,-0.614814811,-0.19722225,0,0,0,,0,71,71,90,1,,,,
,,,,,,95e50b760d36ea7627bbb18e,66a626ef09d4e21e1a8894ec,6734e02099066fddf07ba2ba,2024-11-13_11h23.34.448,Tarea de género gramatical,2024.2.2,Win32,59.17159763,,,,,,,,,,,,,,,,,,,,,,,,288.414,289.528,l,1,[],[],[],[],[],[],[],0.4391,1,289.5283,290.0281,,,,,,343,FEM,AGR,150,trampa,la,a,0.4391,,290.0283,290.0286,-0.614814811,-0.19722225,0,0,0,,0,72,72,342,1,,,,
,,,,,,95e50b760d36ea7627bbb18e,66a626ef09d4e21e1a8894ec,6734e02099066fddf07ba2ba,2024-11-13_11h23.34.448,Tarea de género gramatical,2024.2.2,Win32,59.17159763,,,,,,,,,,,,,,,,,,,,,,,,290.0308,291.1109,l,1,[],[],[],[],[],[],[],0.4027,1,291.1111,291.6107,,,,,,283,FEM,AGR,150,pluma,la,a,0.4027,,291.6109,291.6111,-0.614814811,-0.19722225,0,0,0,,0,73,73,282,1,,,,
,,,,,,95e50b760d36ea7627bbb18e,66a626ef09d4e21e1a8894ec,6734e02099066fddf07ba2ba,2024-11-13_11h23.34.448,Tarea de género gramatical,2024.2.2,Win32,59.17159763,,,,,,,,,,,,,,,,,,,,,,,,291.6131,292.6612,a,1,[],[],[],[],[],[],[],0.3689,1,292.6614,293.1609,,,,,,47,MAS,CON,150,olor,,l,0.3689,,293.1636,293.1661,-0.614814811,-0.19722225,0,0,0,,0,74,74,46,1,,,,
,,,,,,95e50b760d36ea7627bbb18e,66a626ef09d4e21e1a8894ec,6734e02099066fddf07ba2ba,2024-11-13_11h23.34.448,Tarea de género gramatical,2024.2.2,Win32,59.17159763,,,,,,,,,,,,,,,,,,,,,,,,293.1679,294.2107,a,1,[],[],[],[],[],[],[],0.366,1,294.2109,294.7109,,,,,,203,MAS,CON,150,novio,,l,0.366,,294.711,294.7115,-0.614814811,-0.19722225,0,0,0,,0,75,75,202,1,,,,
,,,,,,95e50b760d36ea7627bbb18e,66a626ef09d4e21e1a8894ec,6734e02099066fddf07ba2ba,2024-11-13_11h23.34.448,Tarea de género gramatical,2024.2.2,Win32,59.17159763,,,,,,,,,,,,,,,,,,,,,,,,294.7136,295.8272,a,1,[],[],[],[],[],[],[],0.4327,1,295.8274,296.3271,,,,,,172,MAS,AGR,150,poder,el,l,0.4327,,296.3274,296.3277,-0.614814811,-0.19722225,0,0,0,,0,76,76,171,1,,,,
,,,,,,95e50b760d36ea7627bbb18e,66a626ef09d4e21e1a8894ec,6734e02099066fddf07ba2ba,2024-11-13_11h23.34.448,Tarea de género gramatical,2024.2.2,Win32,59.17159763,,,,,,,,,,,,,,,,,,,,,,,,296.3299,297.4605,a,1,[],[],[],[],[],[],[],0.455,1,297.4608,297.9604,,,,,,360,MAS,DIS,150,puente,la,l,0.455,,297.9606,297.9608,-0.614814811,-0.19722225,0,0,0,,0,77,77,359,1,,,,
,,,,,,95e50b760d36ea7627bbb18e,66a626ef09d4e21e1a8894ec,6734e02099066fddf07ba2ba,2024-11-13_11h23.34.448,Tarea de género gramatical,2024.2.2,Win32,59.17159763,,,,,,,,,,,,,,,,,,,,,,,,297.9629,299.0098,a,1,[],[],[],[],[],[],[],0.3717,1,299.01,299.5098,,,,,,239,MAS,CON,150,reloj,,l,0.3717,,299.5128,299.5149,-0.614814811,-0.19722225,0,0,0,,0,78,78,238,1,,,,
,,,,,,95e50b760d36ea7627bbb18e,66a626ef09d4e21e1a8894ec,6734e02099066fddf07ba2ba,2024-11-13_11h23.34.448,Tarea de género gramatical,2024.2.2,Win32,59.17159763,,,,,,,,,,,,,,,,,,,,,,,,299.5167,300.6768,l,1,[],[],[],[],[],[],[],0.4864,1,300.677,301.1766,,,,,,397,FEM,AGR,150,cuerda,la,a,0.4864,,301.1767,301.1771,-0.614814811,-0.19722225,0,0,0,,0,79,79,396,1,,,,
,,,,,,95e50b760d36ea7627bbb18e,66a626ef09d4e21e1a8894ec,6734e02099066fddf07ba2ba,2024-11-13_11h23.34.448,Tarea de género gramatical,2024.2.2,Win32,59.17159763,,,,,,,,,,,,,,,,,,,,,,,,301.1789,302.41,a,1,[],[],[],[],[],[],[],0.5516,1,302.4103,302.9097,,,,,,65,MAS,CON,150,rayo,,l,0.5516,,302.9098,302.91,-0.614814811,-0.19722225,0,0,0,,0,80,80,64,1,,,,
,,,,,,95e50b760d36ea7627bbb18e,66a626ef09d4e21e1a8894ec,6734e02099066fddf07ba2ba,2024-11-13_11h23.34.448,Tarea de género gramatical,2024.2.2,Win32,59.17159763,,,,,,,,,,,,,,,,,,,,,,,,302.9121,304.0765,l,1,[],[],[],[],[],[],[],0.4845,1,304.0767,304.5763,,,,,,291,FEM,DIS,150,aguja,el,a,0.4845,,304.5763,304.5766,-0.614814811,-0.19722225,0,0,0,,0,81,81,290,1,,,,
,,,,,,95e50b760d36ea7627bbb18e,66a626ef09d4e21e1a8894ec,6734e02099066fddf07ba2ba,2024-11-13_11h23.34.448,Tarea de género gramatical,2024.2.2,Win32,59.17159763,,,,,,,,,,,,,,,,,,,,,,,,304.5786,305.8927,l,1,[],[],[],[],[],[],[],0.6401,1,305.8929,306.3926,,,,,,260,FEM,CON,150,barra,,a,0.6401,,306.3927,306.3931,-0.614814811,-0.19722225,0,0,0,,0,82,82,259,1,,,,
,,,,,,95e50b760d36ea7627bbb18e,66a626ef09d4e21e1a8894ec,6734e02099066fddf07ba2ba,2024-11-13_11h23.34.448,Tarea de género gramatical,2024.2.2,Win32,59.17159763,,,,,,,,,,,,,,,,,,,,,,,,306.3953,307.6092,l,1,[],[],[],[],[],[],[],0.5341,1,307.6095,308.1089,,,,,,345,FEM,DIS,150,pierna,el,a,0.5341,,308.1116,308.1133,-0.614814811,-0.19722225,0,0,0,,0,83,83,344,1,,,,
,,,,,,95e50b760d36ea7627bbb18e,66a626ef09d4e21e1a8894ec,6734e02099066fddf07ba2ba,2024-11-13_11h23.34.448,Tarea de género gramatical,2024.2.2,Win32,59.17159763,,,,,,,,,,,,,,,,,,,,,,,,308.1152,309.2757,l,0,[],[],[],[],[],[],[],0.484,0,309.2777,309.7756,,,,,,438,MAS,DIS,150,tanque,la,l,0.484,,309.7757,309.776,-0.614814811,-0.19722225,0,0,0,,0,84,84,437,1,,,,
,,,,,,95e50b760d36ea7627bbb18e,66a626ef09d4e21e1a8894ec,6734e02099066fddf07ba2ba,2024-11-13_11h23.34.448,Tarea de género gramatical,2024.2.2,Win32,59.17159763,,,,,,,,,,,,,,,,,,,,,,,,309.7784,311.2093,l,1,[],[],[],[],[],[],[],0.7533,1,311.2121,311.7089,,,,,,363,FEM,DIS,150,unidad,el,a,0.7533,,311.7091,311.7093,-0.614814811,-0.19722225,0,0,0,,0,85,85,362,1,,,,
,,,,,,95e50b760d36ea7627bbb18e,66a626ef09d4e21e1a8894ec,6734e02099066fddf07ba2ba,2024-11-13_11h23.34.448,Tarea de género gramatical,2024.2.2,Win32,59.17159763,,,,,,,,,,,,,,,,,,,,,,,,311.7115,312.9083,a,1,[],[],[],[],[],[],[],0.5178,1,312.9088,313.4082,,,,,,186,MAS,DIS,150,error,la,l,0.5178,,313.4084,313.4088,-0.614814811,-0.19722225,0,0,0,,0,86,86,185,1,,,,
,,,,,,95e50b760d36ea7627bbb18e,66a626ef09d4e21e1a8894ec,6734e02099066fddf07ba2ba,2024-11-13_11h23.34.448,Tarea de género gramatical,2024.2.2,Win32,59.17159763,,,,,,,,,,,,,,,,,,,,,,,,313.4114,314.5747,a,1,[],[],[],[],[],[],[],0.488,1,314.5748,315.0741,,,,,,232,MAS,AGR,150,calor,el,l,0.488,,315.0758,315.0769,-0.614814811,-0.19722225,0,0,0,,0,87,87,231,1,,,,
,,,,,,95e50b760d36ea7627bbb18e,66a626ef09d4e21e1a8894ec,6734e02099066fddf07ba2ba,2024-11-13_11h23.34.448,Tarea de género gramatical,2024.2.2,Win32,59.17159763,,,,,,,,,,,,,,,,,,,,,,,,315.0783,316.1585,l,1,[],[],[],[],[],[],[],0.4087,1,316.1587,316.6582,,,,,,309,FEM,DIS,150,esposa,el,a,0.4087,,316.6583,316.6587,-0.614814811,-0.19722225,0,0,0,,0,88,88,308,1,,,,
,,,,,,95e50b760d36ea7627bbb18e,66a626ef09d4e21e1a8894ec,6734e02099066fddf07ba2ba,2024-11-13_11h23.34.448,Tarea de género gramatical,2024.2.2,Win32,59.17159763,,,,,,,,,,,,,,,,,,,,,,,,316.6608,317.7916,a,1,[],[],[],[],[],[],[],0.4505,1,317.7918,318.2912,,,,,,280,MAS,AGR,150,salón,el,l,0.4505,,318.2913,318.2916,-0.614814811,-0.19722225,0,0,0,,0,89,89,279,1,,,,
,,,,,,95e50b760d36ea7627bbb18e,66a626ef09d4e21e1a8894ec,6734e02099066fddf07ba2ba,2024-11-13_11h23.34.448,Tarea de género gramatical,2024.2.2,Win32,59.17159763,,,,,,,,,,,,,,,,,,,,,,,,318.294,319.5235,l,1,[],[],[],[],[],[],[],0.5482,1,319.5237,320.0245,,,,,,105,FEM,DIS,150,jefa,el,a,0.5482,,320.0245,320.0248,-0.614814811,-0.19722225,0,0,0,,0,90,90,104,1,,,,
,,,,,,95e50b760d36ea7627bbb18e,66a626ef09d4e21e1a8894ec,6734e02099066fddf07ba2ba,2024-11-13_11h23.34.448,Tarea de género gramatical,2024.2.2,Win32,59.17159763,,,,,,,,,,,,,,,,,,,,,,,,320.0269,321.1406,a,1,[],[],[],[],[],[],[],0.436,1,321.1408,321.641,,,,,,304,MAS,AGR,150,tiempo,el,l,0.436,,321.6412,321.6415,-0.614814811,-0.19722225,0,0,0,,0,91,91,303,1,,,,
,,,,,,95e50b760d36ea7627bbb18e,66a626ef09d4e21e1a8894ec,6734e02099066fddf07ba2ba,2024-11-13_11h23.34.448,Tarea de género gramatical,2024.2.2,Win32,59.17159763,,,,,,,,,,,,,,,,,,,,,,,,321.6474,322.7903,l,1,[],[],[],[],[],[],[],0.4666,1,322.7905,323.2907,,,,,,301,FEM,AGR,150,verdad,la,a,0.4666,,323.2934,323.2952,-0.614814811,-0.19722225,0,0,0,,0,92,92,300,1,,,,
,,,,,,95e50b760d36ea7627bbb18e,66a626ef09d4e21e1a8894ec,6734e02099066fddf07ba2ba,2024-11-13_11h23.34.448,Tarea de género gramatical,2024.2.2,Win32,59.17159763,,,,,,,,,,,,,,,,,,,,,,,,323.297,324.4062,l,1,[],[],[],[],[],[],[],0.4319,1,324.4064,324.9073,,,,,,404,FEM,CON,150,gloria,,a,0.4319,,324.9074,324.9078,-0.614814811,-0.19722225,0,0,0,,0,93,93,403,1,,,,
,,,,,,95e50b760d36ea7627bbb18e,66a626ef09d4e21e1a8894ec,6734e02099066fddf07ba2ba,2024-11-13_11h23.34.448,Tarea de género gramatical,2024.2.2,Win32,59.17159763,,,,,,,,,,,,,,,,,,,,,,,,324.9096,326.0573,a,1,[],[],[],[],[],[],[],0.4691,1,326.0576,326.5567,,,,,,23,MAS,CON,150,rato,,l,0.4691,,326.5568,326.5571,-0.614814811,-0.19722225,0,0,0,,0,94,94,22,1,,,,
,,,,,,95e50b760d36ea7627bbb18e,66a626ef09d4e21e1a8894ec,6734e02099066fddf07ba2ba,2024-11-13_11h23.34.448,Tarea de género gramatical,2024.2.2,Win32,59.17159763,,,,,,,,,,,,,,,,,,,,,,,,326.5597,327.6736,l,1,[],[],[],[],[],[],[],0.4362,1,327.6739,328.1733,,,,,,314,FEM,CON,150,señora,,a,0.4362,,328.1734,328.1737,-0.614814811,-0.19722225,0,0,0,,0,95,95,313,1,,,,
,,,,,,95e50b760d36ea7627bbb18e,66a626ef09d4e21e1a8894ec,6734e02099066fddf07ba2ba,2024-11-13_11h23.34.448,Tarea de género gramatical,2024.2.2,Win32,59.17159763,,,,,,,,,,,,,,,,,,,,,,,,328.1758,329.3399,a,1,[],[],[],[],[],[],[],0.4865,1,329.34,329.8398,,,,,,431,MAS,CON,150,veneno,,l,0.4865,,329.8444,329.8465,-0.614814811,-0.19722225,0,0,0,,0,96,96,430,1,,,,
,,,,,,95e50b760d36ea7627bbb18e,66a626ef09d4e21e1a8894ec,6734e02099066fddf07ba2ba,2024-11-13_11h23.34.448,Tarea de género gramatical,2024.2.2,Win32,59.17159763,,,,,,,,,,,,,,,,,,,,,,,,329.8481,330.9895,l,1,[],[],[],[],[],[],[],0.4684,1,330.9898,331.49,,,,,,158,FEM,CON,150,chica,,a,0.4684,,331.4901,331.4904,-0.614814811,-0.19722225,0,0,0,,0,97,97,157,1,,,,
,,,,,,95e50b760d36ea7627bbb18e,66a626ef09d4e21e1a8894ec,6734e02099066fddf07ba2ba,2024-11-13_11h23.34.448,Tarea de género gramatical,2024.2.2,Win32,59.17159763,,,,,,,,,,,,,,,,,,,,,,,,331.4923,332.606,l,1,[],[],[],[],[],[],[],0.4369,1,332.6062,333.1059,,,,,,440,FEM,CON,150,patada,,a,0.4369,,333.1059,333.1061,-0.614814811,-0.19722225,0,0,0,,0,98,98,439,1,,,,
,,,,,,95e50b760d36ea7627bbb18e,66a626ef09d4e21e1a8894ec,6734e02099066fddf07ba2ba,2024-11-13_11h23.34.448,Tarea de género gramatical,2024.2.2,Win32,59.17159763,,,,,,,,,,,,,,,,,,,,,,,,333.108,334.1725,l,0,[],[],[],[],[],[],[],0.3883,0,334.1739,334.6725,,,,,,215,MAS,CON,150,hueso,,l,0.3883,,334.6727,334.6729,-0.614814811,-0.19722225,0,0,0,,0,99,99,214,1,,,,
,,,,,,95e50b760d36ea7627bbb18e,66a626ef09d4e21e1a8894ec,6734e02099066fddf07ba2ba,2024-11-13_11h23.34.448,Tarea de género gramatical,2024.2.2,Win32,59.17159763,,,,,,,,,,,,,,,,,,,,,,,,334.6749,336.0387,a,1,[],[],[],[],[],[],[],0.6841,1,336.0407,336.5391,,,,,,180,MAS,DIS,150,fuego,la,l,0.6841,,336.5392,336.5394,-0.614814811,-0.19722225,0,0,0,,0,100,100,179,1,,,,
,,,,,,95e50b760d36ea7627bbb18e,66a626ef09d4e21e1a8894ec,6734e02099066fddf07ba2ba,2024-11-13_11h23.34.448,Tarea de género gramatical,2024.2.2,Win32,59.17159763,,,,,,,,,,,,,,,,,,,,,,,,336.5415,337.6718,a,1,[],[],[],[],[],[],[],0.456,1,337.6721,338.1719,,,,,,162,MAS,DIS,150,miedo,la,l,0.456,,338.1746,338.1769,-0.614814811,-0.19722225,0,0,0,,0,101,101,161,1,,,,
,,,,,,95e50b760d36ea7627bbb18e,66a626ef09d4e21e1a8894ec,6734e02099066fddf07ba2ba,2024-11-13_11h23.34.448,Tarea de género gramatical,2024.2.2,Win32,59.17159763,,,,,,,,,,,,,,,,,,,,,,,,338.179,339.4885,l,1,[],[],[],[],[],[],[],0.6373,1,339.4887,339.9886,,,,,,307,FEM,AGR,150,suerte,la,a,0.6373,,339.9887,339.9891,-0.614814811,-0.19722225,0,0,0,,0,102,102,306,1,,,,
,,,,,,95e50b760d36ea7627bbb18e,66a626ef09d4e21e1a8894ec,6734e02099066fddf07ba2ba,2024-11-13_11h23.34.448,Tarea de género gramatical,2024.2.2,Win32,59.17159763,,,,,,,,,,,,,,,,,,,,,,,,339.991,341.0719,a,1,[],[],[],[],[],[],[],0.4044,1,341.0721,341.5722,,,,,,156,MAS,DIS,150,amigo,la,l,0.4044,,341.5724,341.5726,-0.614814811,-0.19722225,0,0,0,,0,103,103,155,1,,,,
,,,,,,95e50b760d36ea7627bbb18e,66a626ef09d4e21e1a8894ec,6734e02099066fddf07ba2ba,2024-11-13_11h23.34.448,Tarea de género gramatical,2024.2.2,Win32,59.17159763,,,,,,,,,,,,,,,,,,,,,,,,341.5744,342.6883,a,1,[],[],[],[],[],[],[],0.4363,1,342.6885,343.1883,,,,,,227,MAS,CON,150,vuelo,,l,0.4363,,343.1884,343.1889,-0.614814811,-0.19722225,0,0,0,,0,104,104,226,1,,,,
,,,,,,95e50b760d36ea7627bbb18e,66a626ef09d4e21e1a8894ec,6734e02099066fddf07ba2ba,2024-11-13_11h23.34.448,Tarea de género gramatical,2024.2.2,Win32,59.17159763,,,,,,,,,,,,,,,,,,,,,,,,343.1909,344.3548,a,1,[],[],[],[],[],[],[],0.4844,1,344.3551,344.8548,,,,,,287,MAS,CON,150,plato,,l,0.4844,,344.8576,344.8596,-0.614814811,-0.19722225,0,0,0,,0,105,105,286,1,,,,
,,,,,,95e50b760d36ea7627bbb18e,66a626ef09d4e21e1a8894ec,6734e02099066fddf07ba2ba,2024-11-13_11h23.34.448,Tarea de género gramatical,2024.2.2,Win32,59.17159763,,,,,,,,,,,,,,,,,,,,,,,,344.8613,345.9545,a,1,[],[],[],[],[],[],[],0.417,1,345.9548,346.4543,,,,,,173,MAS,CON,150,libro,,l,0.417,,346.4543,346.4547,-0.614814811,-0.19722225,0,0,0,,0,106,106,172,1,,,,
,,,,,,95e50b760d36ea7627bbb18e,66a626ef09d4e21e1a8894ec,6734e02099066fddf07ba2ba,2024-11-13_11h23.34.448,Tarea de género gramatical,2024.2.2,Win32,59.17159763,,,,,,,,,,,,,,,,,,,,,,,,346.4567,347.5045,a,1,[],[],[],[],[],[],[],0.3678,1,347.5047,348.0041,,,,,,396,MAS,DIS,150,tesoro,la,l,0.3678,,348.0042,348.0044,-0.614814811,-0.19722225,0,0,0,,0,107,107,395,1,,,,
,,,,,,95e50b760d36ea7627bbb18e,66a626ef09d4e21e1a8894ec,6734e02099066fddf07ba2ba,2024-11-13_11h23.34.448,Tarea de género gramatical,2024.2.2,Win32,59.17159763,,,,,,,,,,,,,,,,,,,,,,,,348.0062,349.2374,l,1,[],[],[],[],[],[],[],0.5554,1,349.2376,349.7364,,,,,,398,FEM,CON,150,hierba,,a,0.5554,,349.7364,349.7366,-0.614814811,-0.19722225,0,0,0,,0,108,108,397,1,,,,
,,,,,,95e50b760d36ea7627bbb18e,66a626ef09d4e21e1a8894ec,6734e02099066fddf07ba2ba,2024-11-13_11h23.34.448,Tarea de género gramatical,2024.2.2,Win32,59.17159763,,,,,,,,,,,,,,,,,,,,,,,,349.7376,350.8875,l,1,[],[],[],[],[],[],[],0.4667,1,350.8876,351.3871,,,,,,399,FEM,DIS,150,charla,el,a,0.4667,,351.3872,351.3876,-0.614814811,-0.19722225,0,0,0,,0,109,109,398,1,,,,
,,,,,,95e50b760d36ea7627bbb18e,66a626ef09d4e21e1a8894ec,6734e02099066fddf07ba2ba,2024-11-13_11h23.34.448,Tarea de género gramatical,2024.2.2,Win32,59.17159763,,,,,,,,,,,,,,,,,,,,,,,,351.3898,352.7542,l,1,[],[],[],[],[],[],[],0.6912,1,352.7543,353.2536,,,,,,193,FEM,AGR,150,bolsa,la,a,0.6912,,353.256,353.2579,-0.614814811,-0.19722225,0,0,0,,0,110,110,192,1,,,,
,,,,,,95e50b760d36ea7627bbb18e,66a626ef09d4e21e1a8894ec,6734e02099066fddf07ba2ba,2024-11-13_11h23.34.448,Tarea de género gramatical,2024.2.2,Win32,59.17159763,,,,,,,,,,,,,,,,,,,,,,,,353.2597,354.3698,l,1,[],[],[],[],[],[],[],0.438,1,354.37,354.8704,,,,,,181,FEM,AGR,150,tarde,la,a,0.438,,354.8705,354.8707,-0.614814811,-0.19722225,0,0,0,,0,111,111,180,1,,,,
,,,,,,95e50b760d36ea7627bbb18e,66a626ef09d4e21e1a8894ec,6734e02099066fddf07ba2ba,2024-11-13_11h23.34.448,Tarea de género gramatical,2024.2.2,Win32,59.17159763,,,,,,,,,,,,,,,,,,,,,,,,354.8729,355.9866,a,1,[],[],[],[],[],[],[],0.4359,1,355.9868,356.4868,,,,,,401,MAS,CON,150,abrigo,,l,0.4359,,356.4869,356.4872,-0.614814811,-0.19722225,0,0,0,,0,112,112,400,1,,,,
,,,,,,95e50b760d36ea7627bbb18e,66a626ef09d4e21e1a8894ec,6734e02099066fddf07ba2ba,2024-11-13_11h23.34.448,Tarea de género gramatical,2024.2.2,Win32,59.17159763,,,,,,,,,,,,,,,,,,,,,,,,356.4896,357.5867,a,1,[],[],[],[],[],[],[],0.4208,1,357.5869,358.0862,,,,,,185,MAS,CON,150,sueño,,l,0.4208,,358.0864,358.0868,-0.614814811,-0.19722225,0,0,0,,0,113,113,184,1,,,,
,,,,,,95e50b760d36ea7627bbb18e,66a626ef09d4e21e1a8894ec,6734e02099066fddf07ba2ba,2024-11-13_11h23.34.448,Tarea de género gramatical,2024.2.2,Win32,59.17159763,,,,,,,,,,,,,,,,,,,,,,,,358.0895,360.0026,l,1,[],[],[],[],[],[],[],1.2349,1,360.0028,360.503,,,,,,151,FEM,AGR,150,noche,la,a,1.2349,,360.5056,360.5073,-0.614814811,-0.19722225,0,0,0,,0,114,114,150,1,,,,
,,,,,,95e50b760d36ea7627bbb18e,66a626ef09d4e21e1a8894ec,6734e02099066fddf07ba2ba,2024-11-13_11h23.34.448,Tarea de género gramatical,2024.2.2,Win32,59.17159763,,,,,,,,,,,,,,,,,,,,,,,,360.5091,361.6524,a,1,[],[],[],[],[],[],[],0.4686,1,361.6525,362.1525,,,,,,268,MAS,AGR,150,truco,el,l,0.4686,,362.1526,362.1528,-0.614814811,-0.19722225,0,0,0,,0,115,115,267,1,,,,
,,,,,,95e50b760d36ea7627bbb18e,66a626ef09d4e21e1a8894ec,6734e02099066fddf07ba2ba,2024-11-13_11h23.34.448,Tarea de género gramatical,2024.2.2,Win32,59.17159763,,,,,,,,,,,,,,,,,,,,,,,,362.1548,363.4858,a,1,[],[],[],[],[],[],[],0.6553,1,363.486,363.9854,,,,,,120,MAS,DIS,150,puño,la,l,0.6553,,363.9855,363.9857,-0.614814811,-0.19722225,0,0,0,,0,116,116,119,1,,,,
,,,,,,95e50b760d36ea7627bbb18e,66a626ef09d4e21e1a8894ec,6734e02099066fddf07ba2ba,2024-11-13_11h23.34.448,Tarea de género gramatical,2024.2.2,Win32,59.17159763,,,,,,,,,,,,,,,,,,,,,,,,363.9875,365.3355,a,1,[],[],[],[],[],[],[],0.6693,1,365.3358,365.8356,,,,,,425,MAS,CON,150,chiste,,l,0.6693,,365.8357,365.836,-0.614814811,-0.19722225,0,0,0,,0,117,117,424,1,,,,
,,,,,,95e50b760d36ea7627bbb18e,66a626ef09d4e21e1a8894ec,6734e02099066fddf07ba2ba,2024-11-13_11h23.34.448,Tarea de género gramatical,2024.2.2,Win32,59.17159763,,,,,,,,,,,,,,,,,,,,,,,,365.8384,366.9185,a,1,[],[],[],[],[],[],[],0.4007,1,366.9187,367.4185,,,,,,35,MAS,CON,150,taxi,,l,0.4007,,367.4187,367.4188,-0.614814811,-0.19722225,0,0,0,,0,118,118,34,1,,,,
,,,,,,95e50b760d36ea7627bbb18e,66a626ef09d4e21e1a8894ec,6734e02099066fddf07ba2ba,2024-11-13_11h23.34.448,Tarea de género gramatical,2024.2.2,Win32,59.17159763,,,,,,,,,,,,,,,,,,,,,,,,367.4214,368.5526,a,0,[],[],[],[],[],[],[],0.4503,0,368.5543,369.0517,,,,,,201,FEM,DIS,150,leche,el,a,0.4503,,369.0544,369.0564,-0.614814811,-0.19722225,0,0,0,,0,119,119,200,1,,,,
,,,,,,95e50b760d36ea7627bbb18e,66a626ef09d4e21e1a8894ec,6734e02099066fddf07ba2ba,2024-11-13_11h23.34.448,Tarea de género gramatical,2024.2.2,Win32,59.17159763,,,,,,,,,,,,,,,,,,,,,,,,369.0584,370.2016,a,1,[],[],[],[],[],[],[],0.4737,1,370.2034,370.7015,,,,,,256,MAS,AGR,150,techo,el,l,0.4737,,370.7016,370.7018,-0.614814811,-0.19722225,0,0,0,,0,120,120,255,1,,,,
,,,,,,95e50b760d36ea7627bbb18e,66a626ef09d4e21e1a8894ec,6734e02099066fddf07ba2ba,2024-11-13_11h23.34.448,Tarea de género gramatical,2024.2.2,Win32,59.17159763,,,,,,,,,,,,,,,,,,,,,,,,370.7038,371.8514,l,1,[],[],[],[],[],[],[],0.4681,1,371.8517,372.3517,,,,,,369,FEM,DIS,150,camisa,el,a,0.4681,,372.3518,372.3521,-0.614814811,-0.19722225,0,0,0,,0,121,121,368,1,,,,
,,,,,,95e50b760d36ea7627bbb18e,66a626ef09d4e21e1a8894ec,6734e02099066fddf07ba2ba,2024-11-13_11h23.34.448,Tarea de género gramatical,2024.2.2,Win32,59.17159763,,,,,,,,,,,,,,,,,,,,,,,,372.3543,373.4843,l,1,[],[],[],[],[],[],[],0.4522,1,373.4844,373.9847,,,,,,230,FEM,CON,150,regla,,a,0.4522,,373.9847,373.9851,-0.614814811,-0.19722225,0,0,0,,0,122,122,229,1,,,,
,,,,,,95e50b760d36ea7627bbb18e,66a626ef09d4e21e1a8894ec,6734e02099066fddf07ba2ba,2024-11-13_11h23.34.448,Tarea de género gramatical,2024.2.2,Win32,59.17159763,,,,,,,,,,,,,,,,,,,,,,,,373.9873,375.0508,l,1,[],[],[],[],[],[],[],0.3912,1,375.0511,375.5511,,,,,,212,FEM,CON,150,cinta,,a,0.3912,,375.5537,375.5555,-0.614814811,-0.19722225,0,0,0,,0,123,123,211,1,,,,
,,,,,,95e50b760d36ea7627bbb18e,66a626ef09d4e21e1a8894ec,6734e02099066fddf07ba2ba,2024-11-13_11h23.34.448,Tarea de género gramatical,2024.2.2,Win32,59.17159763,,,,,,,,,,,,,,,,,,,,,,,,375.5575,376.801,a,1,[],[],[],[],[],[],[],0.5681,1,376.8012,377.3007,,,,,,76,MAS,AGR,150,lujo,el,l,0.5681,,377.3009,377.3011,-0.614814811,-0.19722225,0,0,0,,0,124,124,75,1,,,,
,,,,,,95e50b760d36ea7627bbb18e,66a626ef09d4e21e1a8894ec,6734e02099066fddf07ba2ba,2024-11-13_11h23.34.448,Tarea de género gramatical,2024.2.2,Win32,59.17159763,,,,,,,,,,,,,,,,,,,,,,,,377.3032,378.8003,l,1,[],[],[],[],[],[],[],0.8181,1,378.8005,379.2996,,,,,,153,FEM,DIS,150,mujer,el,a,0.8181,,379.2997,379.2999,-0.614814811,-0.19722225,0,0,0,,0,125,125,152,1,,,,
,,,,,,95e50b760d36ea7627bbb18e,66a626ef09d4e21e1a8894ec,6734e02099066fddf07ba2ba,2024-11-13_11h23.34.448,Tarea de género gramatical,2024.2.2,Win32,59.17159763,,,,,,,,,,,,,,,,,,,,,,,,379.3013,380.5668,a,1,[],[],[],[],[],[],[],0.5867,1,380.5671,381.0669,,,,,,36,MAS,DIS,150,dedo,la,l,0.5867,,381.0669,381.0671,-0.614814811,-0.19722225,0,0,0,,0,126,126,35,1,,,,
,,,,,,95e50b760d36ea7627bbb18e,66a626ef09d4e21e1a8894ec,6734e02099066fddf07ba2ba,2024-11-13_11h23.34.448,Tarea de género gramatical,2024.2.2,Win32,59.17159763,,,,,,,,,,,,,,,,,,,,,,,,381.0694,382.4501,l,1,[],[],[],[],[],[],[],0.6999,1,382.4505,382.9499,,,,,,68,FEM,CON,150,pata,,a,0.6999,,382.9499,382.9501,-0.614814811,-0.19722225,0,0,0,,0,127,127,67,1,,,,
,,,,,,95e50b760d36ea7627bbb18e,66a626ef09d4e21e1a8894ec,6734e02099066fddf07ba2ba,2024-11-13_11h23.34.448,Tarea de género gramatical,2024.2.2,Win32,59.17159763,,,,,,,,,,,,,,,,,,,,,,,,382.9522,384.0339,a,1,[],[],[],[],[],[],[],0.4047,1,384.0342,384.5335,,,,,,16,MAS,AGR,150,baño,el,l,0.4047,,384.5361,384.5383,-0.614814811,-0.19722225,0,0,0,,0,128,128,15,1,,,,
,,,,,,95e50b760d36ea7627bbb18e,66a626ef09d4e21e1a8894ec,6734e02099066fddf07ba2ba,2024-11-13_11h23.34.448,Tarea de género gramatical,2024.2.2,Win32,59.17159763,,,,,,,,,,,,,,,,,,,,,,,,384.5406,385.8163,a,1,[],[],[],[],[],[],[],0.6002,1,385.8165,386.3154,,,,,,24,MAS,DIS,150,voto,la,l,0.6002,,386.3155,386.3156,-0.614814811,-0.19722225,0,0,0,,0,129,129,23,1,,,,
,,,,,,95e50b760d36ea7627bbb18e,66a626ef09d4e21e1a8894ec,6734e02099066fddf07ba2ba,2024-11-13_11h23.34.448,Tarea de género gramatical,2024.2.2,Win32,59.17159763,,,,,,,,,,,,,,,,,,,,,,,,386.3169,387.4496,l,1,[],[],[],[],[],[],[],0.4692,1,387.4499,387.9496,,,,,,45,FEM,DIS,150,isla,el,a,0.4692,,387.9496,387.9499,-0.614814811,-0.19722225,0,0,0,,0,130,130,44,1,,,,
,,,,,,95e50b760d36ea7627bbb18e,66a626ef09d4e21e1a8894ec,6734e02099066fddf07ba2ba,2024-11-13_11h23.34.448,Tarea de género gramatical,2024.2.2,Win32,59.17159763,,,,,,,,,,,,,,,,,,,,,,,,387.9521,389.0826,l,1,[],[],[],[],[],[],[],0.4514,1,389.0827,389.5824,,,,,,320,FEM,CON,150,fiesta,,a,0.4514,,389.5825,389.5826,-0.614814811,-0.19722225,0,0,0,,0,131,131,319,1,,,,
,,,,,,95e50b760d36ea7627bbb18e,66a626ef09d4e21e1a8894ec,6734e02099066fddf07ba2ba,2024-11-13_11h23.34.448,Tarea de género gramatical,2024.2.2,Win32,59.17159763,,,,,,,,,,,,,,,,,,,,,,,,389.5847,390.9659,l,1,[],[],[],[],[],[],[],0.7011,1,390.9661,391.4659,,,,,,321,FEM,DIS,150,comida,el,a,0.7011,,391.4687,391.4709,-0.614814811,-0.19722225,0,0,0,,0,132,132,320,1,,,,
,,,,,,95e50b760d36ea7627bbb18e,66a626ef09d4e21e1a8894ec,6734e02099066fddf07ba2ba,2024-11-13_11h23.34.448,Tarea de género gramatical,2024.2.2,Win32,59.17159763,,,,,,,,,,,,,,,,,,,,,,,,391.4726,392.7823,a,1,[],[],[],[],[],[],[],0.6336,1,392.7824,393.2821,,,,,,329,MAS,CON,150,futuro,,l,0.6336,,393.2822,393.2824,-0.614814811,-0.19722225,0,0,0,,0,133,133,328,1,,,,
,,,,,,95e50b760d36ea7627bbb18e,66a626ef09d4e21e1a8894ec,6734e02099066fddf07ba2ba,2024-11-13_11h23.34.448,Tarea de género gramatical,2024.2.2,Win32,59.17159763,,,,,,,,,,,,,,,,,,,,,,,,393.2845,394.3655,a,1,[],[],[],[],[],[],[],0.4038,1,394.3658,394.8657,,,,,,112,MAS,AGR,150,reto,el,l,0.4038,,394.8658,394.8659,-0.614814811,-0.19722225,0,0,0,,0,134,134,111,1,,,,
,,,,,,95e50b760d36ea7627bbb18e,66a626ef09d4e21e1a8894ec,6734e02099066fddf07ba2ba,2024-11-13_11h23.34.448,Tarea de género gramatical,2024.2.2,Win32,59.17159763,,,,,,,,,,,,,,,,,,,,,,,,394.8682,395.9488,l,1,[],[],[],[],[],[],[],0.4051,1,395.949,396.4482,,,,,,381,FEM,DIS,150,bebida,el,a,0.4051,,396.4483,396.4485,-0.614814811,-0.19722225,0,0,0,,0,135,135,380,1,,,,
,,,,,,95e50b760d36ea7627bbb18e,66a626ef09d4e21e1a8894ec,6734e02099066fddf07ba2ba,2024-11-13_11h23.34.448,Tarea de género gramatical,2024.2.2,Win32,59.17159763,,,,,,,,,,,,,,,,,,,,,,,,396.4516,397.7481,a,1,[],[],[],[],[],[],[],0.618,1,397.7484,398.2485,,,,,,234,MAS,DIS,150,héroe,la,l,0.618,,398.2485,398.2489,-0.614814811,-0.19722225,0,0,0,,0,136,136,233,1,,,,
,,,,,,95e50b760d36ea7627bbb18e,66a626ef09d4e21e1a8894ec,6734e02099066fddf07ba2ba,2024-11-13_11h23.34.448,Tarea de género gramatical,2024.2.2,Win32,59.17159763,,,,,,,,,,,,,,,,,,,,,,,,398.251,399.3984,l,1,[],[],[],[],[],[],[],0.4678,1,399.3987,399.8982,,,,,,447,FEM,DIS,150,lógica,el,a,0.4678,,399.9007,399.9025,-0.614814811,-0.19722225,0,0,0,,0,137,137,446,1,,,,
,,,,,,95e50b760d36ea7627bbb18e,66a626ef09d4e21e1a8894ec,6734e02099066fddf07ba2ba,2024-11-13_11h23.34.448,Tarea de género gramatical,2024.2.2,Win32,59.17159763,,,,,,,,,,,,,,,,,,,,,,,,399.9044,401.1314,l,1,[],[],[],[],[],[],[],0.5511,1,401.1317,401.631,,,,,,213,FEM,DIS,150,magia,el,a,0.5511,,401.6311,401.6313,-0.614814811,-0.19722225,0,0,0,,0,138,138,212,1,,,,
,,,,,,95e50b760d36ea7627bbb18e,66a626ef09d4e21e1a8894ec,6734e02099066fddf07ba2ba,2024-11-13_11h23.34.448,Tarea de género gramatical,2024.2.2,Win32,59.17159763,,,,,,,,,,,,,,,,,,,,,,,,401.6332,402.8642,a,1,[],[],[],[],[],[],[],0.551,1,402.8645,403.3633,,,,,,274,MAS,AGR,150,motor,el,l,0.551,,403.3633,403.3634,-0.614814811,-0.19722225,0,0,0,,0,139,139,273,1,,,,
,,,,,,95e50b760d36ea7627bbb18e,66a626ef09d4e21e1a8894ec,6734e02099066fddf07ba2ba,2024-11-13_11h23.34.448,Tarea de género gramatical,2024.2.2,Win32,59.17159763,,,,,,,,,,,,,,,,,,,,,,,,403.3644,404.5307,l,1,[],[],[],[],[],[],[],0.4867,1,404.531,405.0306,,,,,,200,FEM,CON,150,silla,,a,0.4867,,405.0307,405.0309,-0.614814811,-0.19722225,0,0,0,,0,140,140,199,1,,,,
,,,,,,95e50b760d36ea7627bbb18e,66a626ef09d4e21e1a8894ec,6734e02099066fddf07ba2ba,2024-11-13_11h23.34.448,Tarea de género gramatical,2024.2.2,Win32,59.17159763,,,,,,,,,,,,,,,,,,,,,,,,405.0329,406.1474,a,1,[],[],[],[],[],[],[],0.4343,1,406.1476,406.6474,,,,,,138,MAS,DIS,150,luto,la,l,0.4343,,406.6501,406.6521,-0.614814811,-0.19722225,0,0,0,,0,141,141,137,1,,,,
,,,,,,95e50b760d36ea7627bbb18e,66a626ef09d4e21e1a8894ec,6734e02099066fddf07ba2ba,2024-11-13_11h23.34.448,Tarea de género gramatical,2024.2.2,Win32,59.17159763,,,,,,,,,,,,,,,,,,,,,,,,406.654,407.8472,a,1,[],[],[],[],[],[],[],0.5186,1,407.8473,408.3475,,,,,,372,MAS,DIS,150,delito,la,l,0.5186,,408.3476,408.348,-0.614814811,-0.19722225,0,0,0,,0,142,142,371,1,,,,
,,,,,,95e50b760d36ea7627bbb18e,66a626ef09d4e21e1a8894ec,6734e02099066fddf07ba2ba,2024-11-13_11h23.34.448,Tarea de género gramatical,2024.2.2,Win32,59.17159763,,,,,,,,,,,,,,,,,,,,,,,,408.3502,409.4633,l,1,[],[],[],[],[],[],[],0.4409,1,409.4635,409.9637,,,,,,115,FEM,AGR,150,seda,la,a,0.4409,,409.9638,409.9641,-0.614814811,-0.19722225,0,0,0,,0,143,143,114,1,,,,
,,,,,,95e50b760d36ea7627bbb18e,66a626ef09d4e21e1a8894ec,6734e02099066fddf07ba2ba,2024-11-13_11h23.34.448,Tarea de género gramatical,2024.2.2,Win32,59.17159763,,,,,,,,,,,,,,,,,,,,,,,,409.9665,411.0298,a,1,[],[],[],[],[],[],[],0.3846,1,411.03,411.53,,,,,,419,MAS,CON,150,cuento,,l,0.3846,,411.5301,411.5304,-0.614814811,-0.19722225,0,0,0,,0,144,144,418,1,,,,
,,,,,,95e50b760d36ea7627bbb18e,66a626ef09d4e21e1a8894ec,6734e02099066fddf07ba2ba,2024-11-13_11h23.34.448,Tarea de género gramatical,2024.2.2,Win32,59.17159763,,,,,,,,,,,,,,,,,,,,,,,,411.5325,412.6131,a,1,[],[],[],[],[],[],[],0.4014,1,412.6134,413.1132,,,,,,322,MAS,AGR,150,minuto,el,l,0.4014,,413.1133,413.1135,-0.614814811,-0.19722225,0,0,0,,0,145,145,321,1,,,,
,,,,,,95e50b760d36ea7627bbb18e,66a626ef09d4e21e1a8894ec,6734e02099066fddf07ba2ba,2024-11-13_11h23.34.448,Tarea de género gramatical,2024.2.2,Win32,59.17159763,,,,,,,,,,,,,,,,,,,,,,,,413.1155,414.1796,a,1,[],[],[],[],[],[],[],0.3876,1,414.1797,414.6795,,,,,,148,MAS,AGR,150,surf,el,l,0.3876,,414.6819,414.6837,-0.614814811,-0.19722225,0,0,0,,0,146,146,147,1,,,,
,,,,,,95e50b760d36ea7627bbb18e,66a626ef09d4e21e1a8894ec,6734e02099066fddf07ba2ba,2024-11-13_11h23.34.448,Tarea de género gramatical,2024.2.2,Win32,59.17159763,,,,,,,,,,,,,,,,,,,,,,,,414.6856,415.7458,a,1,[],[],[],[],[],[],[],0.3896,1,415.746,416.2462,,,,,,444,MAS,DIS,150,límite,la,l,0.3896,,416.2463,416.2466,-0.614814811,-0.19722225,0,0,0,,0,147,147,443,1,,,,
,,,,,,95e50b760d36ea7627bbb18e,66a626ef09d4e21e1a8894ec,6734e02099066fddf07ba2ba,2024-11-13_11h23.34.448,Tarea de género gramatical,2024.2.2,Win32,59.17159763,,,,,,,,,,,,,,,,,,,,,,,,416.249,417.3125,a,0,[],[],[],[],[],[],[],0.385,0,417.3142,417.8124,,,,,,284,FEM,CON,150,fruta,,a,0.385,,417.8125,417.8127,-0.614814811,-0.19722225,0,0,0,,0,148,148,283,1,,,,
,,,,,,95e50b760d36ea7627bbb18e,66a626ef09d4e21e1a8894ec,6734e02099066fddf07ba2ba,2024-11-13_11h23.34.448,Tarea de género gramatical,2024.2.2,Win32,59.17159763,,,,,,,,,,,,,,,,,,,,,,,,417.8149,419.1625,l,1,[],[],[],[],[],[],[],0.6682,1,419.1642,419.6623,,,,,,235,FEM,AGR,150,torre,la,a,0.6682,,419.6624,419.6625,-0.614814811,-0.19722225,0,0,0,,0,149,149,234,1,,,,
,,,,,,95e50b760d36ea7627bbb18e,66a626ef09d4e21e1a8894ec,6734e02099066fddf07ba2ba,2024-11-13_11h23.34.448,Tarea de género gramatical,2024.2.2,Win32,59.17159763,,,,,,,,,,,,,,,,,,,,,,,,419.6646,420.7954,a,1,[],[],[],[],[],[],[],0.4445,1,420.7957,421.2973,,,,,,118,MAS,AGR,150,baúl,el,l,0.4445,,421.2999,431.212,-0.614814811,-0.19722225,0,0,0,space,0,150,150,117,1,9.8801,,,
,,,,,,95e50b760d36ea7627bbb18e,66a626ef09d4e21e1a8894ec,6734e02099066fddf07ba2ba,2024-11-13_11h23.34.448,Tarea de género gramatical,2024.2.2,Win32,59.17159763,,,,,,,,,,,,,,,,,,,,,,,,431.2139,432.4109,a,1,[],[],[],[],[],[],[],0.5159,1,432.4112,432.9108,,,,,,364,MAS,AGR,150,viento,el,l,0.5159,,432.9109,432.9112,-0.614814811,-0.19722225,0,0,0,,0,151,151,363,1,,,,
,,,,,,95e50b760d36ea7627bbb18e,66a626ef09d4e21e1a8894ec,6734e02099066fddf07ba2ba,2024-11-13_11h23.34.448,Tarea de género gramatical,2024.2.2,Win32,59.17159763,,,,,,,,,,,,,,,,,,,,,,,,432.9153,434.144,l,1,[],[],[],[],[],[],[],0.5516,1,434.1441,434.6441,,,,,,387,FEM,DIS,150,página,el,a,0.5516,,434.6442,434.6445,-0.614814811,-0.19722225,0,0,0,,0,152,152,386,1,,,,
,,,,,,95e50b760d36ea7627bbb18e,66a626ef09d4e21e1a8894ec,6734e02099066fddf07ba2ba,2024-11-13_11h23.34.448,Tarea de género gramatical,2024.2.2,Win32,59.17159763,,,,,,,,,,,,,,,,,,,,,,,,434.6465,435.977,a,0,[],[],[],[],[],[],[],0.6505,0,435.9784,436.4771,,,,,,135,FEM,DIS,150,raíz,el,a,0.6505,,436.4771,436.4773,-0.614814811,-0.19722225,0,0,0,,0,153,153,134,1,,,,
,,,,,,95e50b760d36ea7627bbb18e,66a626ef09d4e21e1a8894ec,6734e02099066fddf07ba2ba,2024-11-13_11h23.34.448,Tarea de género gramatical,2024.2.2,Win32,59.17159763,,,,,,,,,,,,,,,,,,,,,,,,436.4796,437.727,a,1,[],[],[],[],[],[],[],0.5718,1,437.7288,438.2265,,,,,,124,MAS,AGR,150,clan,el,l,0.5718,,438.2266,438.227,-0.614814811,-0.19722225,0,0,0,,0,154,154,123,1,,,,
,,,,,,95e50b760d36ea7627bbb18e,66a626ef09d4e21e1a8894ec,6734e02099066fddf07ba2ba,2024-11-13_11h23.34.448,Tarea de género gramatical,2024.2.2,Win32,59.17159763,,,,,,,,,,,,,,,,,,,,,,,,438.2292,439.4768,a,1,[],[],[],[],[],[],[],0.5678,1,439.4768,439.9767,,,,,,142,MAS,AGR,150,lodo,el,l,0.5678,,439.9793,439.9815,-0.614814811,-0.19722225,0,0,0,,0,155,155,141,1,,,,
,,,,,,95e50b760d36ea7627bbb18e,66a626ef09d4e21e1a8894ec,6734e02099066fddf07ba2ba,2024-11-13_11h23.34.448,Tarea de género gramatical,2024.2.2,Win32,59.17159763,,,,,,,,,,,,,,,,,,,,,,,,439.9832,441.3428,l,1,[],[],[],[],[],[],[],0.684,1,441.3429,441.8428,,,,,,152,FEM,CON,150,gente,,a,0.684,,441.843,441.8432,-0.614814811,-0.19722225,0,0,0,,0,156,156,151,1,,,,
,,,,,,95e50b760d36ea7627bbb18e,66a626ef09d4e21e1a8894ec,6734e02099066fddf07ba2ba,2024-11-13_11h23.34.448,Tarea de género gramatical,2024.2.2,Win32,59.17159763,,,,,,,,,,,,,,,,,,,,,,,,441.8451,442.9432,l,1,[],[],[],[],[],[],[],0.4204,1,442.9435,443.4428,,,,,,44,FEM,CON,150,zona,,a,0.4204,,443.4429,443.4431,-0.614814811,-0.19722225,0,0,0,,0,157,157,43,1,,,,
,,,,,,95e50b760d36ea7627bbb18e,66a626ef09d4e21e1a8894ec,6734e02099066fddf07ba2ba,2024-11-13_11h23.34.448,Tarea de género gramatical,2024.2.2,Win32,59.17159763,,,,,,,,,,,,,,,,,,,,,,,,443.4452,444.5592,a,1,[],[],[],[],[],[],[],0.4345,1,444.5595,445.0596,,,,,,132,MAS,DIS,150,velo,la,l,0.4345,,445.0596,445.0599,-0.614814811,-0.19722225,0,0,0,,0,158,158,131,1,,,,
,,,,,,95e50b760d36ea7627bbb18e,66a626ef09d4e21e1a8894ec,6734e02099066fddf07ba2ba,2024-11-13_11h23.34.448,Tarea de género gramatical,2024.2.2,Win32,59.17159763,,,,,,,,,,,,,,,,,,,,,,,,445.0624,446.2083,a,1,[],[],[],[],[],[],[],0.4691,1,446.2084,446.7089,,,,,,324,MAS,DIS,150,cuarto,la,l,0.4691,,446.7123,446.7149,-0.614814811,-0.19722225,0,0,0,,0,159,159,323,1,,,,
,,,,,,95e50b760d36ea7627bbb18e,66a626ef09d4e21e1a8894ec,6734e02099066fddf07ba2ba,2024-11-13_11h23.34.448,Tarea de género gramatical,2024.2.2,Win32,59.17159763,,,,,,,,,,,,,,,,,,,,,,,,446.7169,447.7754,l,1,[],[],[],[],[],[],[],0.3873,1,447.7756,448.2754,,,,,,241,FEM,AGR,150,pasta,la,a,0.3873,,448.2755,448.2758,-0.614814811,-0.19722225,0,0,0,,0,160,160,240,1,,,,
,,,,,,95e50b760d36ea7627bbb18e,66a626ef09d4e21e1a8894ec,6734e02099066fddf07ba2ba,2024-11-13_11h23.34.448,Tarea de género gramatical,2024.2.2,Win32,59.17159763,,,,,,,,,,,,,,,,,,,,,,,,448.2778,449.559,l,1,[],[],[],[],[],[],[],0.6027,1,449.5593,450.059,,,,,,332,FEM,CON,150,basura,,a,0.6027,,450.059,450.0593,-0.614814811,-0.19722225,0,0,0,,0,161,161,331,1,,,,
,,,,,,95e50b760d36ea7627bbb18e,66a626ef09d4e21e1a8894ec,6734e02099066fddf07ba2ba,2024-11-13_11h23.34.448,Tarea de género gramatical,2024.2.2,Win32,59.17159763,,,,,,,,,,,,,,,,,,,,,,,,450.0614,451.1753,a,1,[],[],[],[],[],[],[],0.435,1,451.1756,451.6752,,,,,,270,MAS,DIS,150,queso,la,l,0.435,,451.6752,451.6755,-0.614814811,-0.19722225,0,0,0,,0,162,162,269,1,,,,
,,,,,,95e50b760d36ea7627bbb18e,66a626ef09d4e21e1a8894ec,6734e02099066fddf07ba2ba,2024-11-13_11h23.34.448,Tarea de género gramatical,2024.2.2,Win32,59.17159763,,,,,,,,,,,,,,,,,,,,,,,,451.6776,452.9089,a,1,[],[],[],[],[],[],[],0.5509,1,452.909,453.4082,,,,,,166,MAS,AGR,150,coche,el,l,0.5509,,453.4083,453.4085,-0.614814811,-0.19722225,0,0,0,,0,163,163,165,1,,,,
,,,,,,95e50b760d36ea7627bbb18e,66a626ef09d4e21e1a8894ec,6734e02099066fddf07ba2ba,2024-11-13_11h23.34.448,Tarea de género gramatical,2024.2.2,Win32,59.17159763,,,,,,,,,,,,,,,,,,,,,,,,453.4105,454.4586,l,1,[],[],[],[],[],[],[],0.3672,1,454.4589,454.9583,,,,,,188,FEM,CON,150,bomba,,a,0.3672,,454.961,454.9629,-0.614814811,-0.19722225,0,0,0,,0,164,164,187,1,,,,
,,,,,,95e50b760d36ea7627bbb18e,66a626ef09d4e21e1a8894ec,6734e02099066fddf07ba2ba,2024-11-13_11h23.34.448,Tarea de género gramatical,2024.2.2,Win32,59.17159763,,,,,,,,,,,,,,,,,,,,,,,,454.9646,456.1414,l,1,[],[],[],[],[],[],[],0.5014,1,456.1415,456.6414,,,,,,207,FEM,DIS,150,playa,el,a,0.5014,,456.6415,456.6419,-0.614814811,-0.19722225,0,0,0,,0,165,165,206,1,,,,
,,,,,,95e50b760d36ea7627bbb18e,66a626ef09d4e21e1a8894ec,6734e02099066fddf07ba2ba,2024-11-13_11h23.34.448,Tarea de género gramatical,2024.2.2,Win32,59.17159763,,,,,,,,,,,,,,,,,,,,,,,,456.6439,457.8078,l,1,[],[],[],[],[],[],[],0.4847,1,457.8079,458.308,,,,,,439,FEM,AGR,150,toalla,la,a,0.4847,,458.3081,458.3083,-0.614814811,-0.19722225,0,0,0,,0,166,166,438,1,,,,
,,,,,,95e50b760d36ea7627bbb18e,66a626ef09d4e21e1a8894ec,6734e02099066fddf07ba2ba,2024-11-13_11h23.34.448,Tarea de género gramatical,2024.2.2,Win32,59.17159763,,,,,,,,,,,,,,,,,,,,,,,,458.3102,459.3745,a,1,[],[],[],[],[],[],[],0.385,1,459.3748,459.8744,,,,,,443,MAS,CON,150,templo,,l,0.385,,459.8745,459.8748,-0.614814811,-0.19722225,0,0,0,,0,167,167,442,1,,,,
,,,,,,95e50b760d36ea7627bbb18e,66a626ef09d4e21e1a8894ec,6734e02099066fddf07ba2ba,2024-11-13_11h23.34.448,Tarea de género gramatical,2024.2.2,Win32,59.17159763,,,,,,,,,,,,,,,,,,,,,,,,459.8771,460.841,a,1,[],[],[],[],[],[],[],0.2876,1,460.8412,461.342,,,,,,311,MAS,CON,150,camino,,l,0.2876,,461.3455,461.348,-0.614814811,-0.19722225,0,0,0,,0,168,168,310,1,,,,
,,,,,,95e50b760d36ea7627bbb18e,66a626ef09d4e21e1a8894ec,6734e02099066fddf07ba2ba,2024-11-13_11h23.34.448,Tarea de género gramatical,2024.2.2,Win32,59.17159763,,,,,,,,,,,,,,,,,,,,,,,,461.3497,462.3237,a,1,[],[],[],[],[],[],[],0.3018,1,462.3239,462.8239,,,,,,299,MAS,CON,150,rumbo,,l,0.3018,,462.8241,462.8244,-0.614814811,-0.19722225,0,0,0,,0,169,169,298,1,,,,
,,,,,,95e50b760d36ea7627bbb18e,66a626ef09d4e21e1a8894ec,6734e02099066fddf07ba2ba,2024-11-13_11h23.34.448,Tarea de género gramatical,2024.2.2,Win32,59.17159763,,,,,,,,,,,,,,,,,,,,,,,,462.8265,463.8409,a,1,[],[],[],[],[],[],[],0.3405,1,463.841,464.3405,,,,,,6,MAS,DIS,150,lado,la,l,0.3405,,464.3407,464.3408,-0.614814811,-0.19722225,0,0,0,,0,170,170,5,1,,,,
,,,,,,95e50b760d36ea7627bbb18e,66a626ef09d4e21e1a8894ec,6734e02099066fddf07ba2ba,2024-11-13_11h23.34.448,Tarea de género gramatical,2024.2.2,Win32,59.17159763,,,,,,,,,,,,,,,,,,,,,,,,464.3431,465.5405,l,1,[],[],[],[],[],[],[],0.5177,1,465.5407,466.0401,,,,,,229,FEM,AGR,150,celda,la,a,0.5177,,466.0401,466.0404,-0.614814811,-0.19722225,0,0,0,,0,171,171,228,1,,,,
,,,,,,95e50b760d36ea7627bbb18e,66a626ef09d4e21e1a8894ec,6734e02099066fddf07ba2ba,2024-11-13_11h23.34.448,Tarea de género gramatical,2024.2.2,Win32,59.17159763,,,,,,,,,,,,,,,,,,,,,,,,466.0426,467.1232,l,1,[],[],[],[],[],[],[],0.4001,1,467.1234,467.623,,,,,,327,FEM,DIS,150,tienda,el,a,0.4001,,467.6232,467.6234,-0.614814811,-0.19722225,0,0,0,,0,172,172,326,1,,,,
,,,,,,95e50b760d36ea7627bbb18e,66a626ef09d4e21e1a8894ec,6734e02099066fddf07ba2ba,2024-11-13_11h23.34.448,Tarea de género gramatical,2024.2.2,Win32,59.17159763,,,,,,,,,,,,,,,,,,,,,,,,467.6253,468.6565,a,1,[],[],[],[],[],[],[],0.357,1,468.6566,469.1568,,,,,,64,MAS,AGR,150,saco,el,l,0.357,,469.1597,469.1614,-0.614814811,-0.19722225,0,0,0,,0,173,173,63,1,,,,
,,,,,,95e50b760d36ea7627bbb18e,66a626ef09d4e21e1a8894ec,6734e02099066fddf07ba2ba,2024-11-13_11h23.34.448,Tarea de género gramatical,2024.2.2,Win32,59.17159763,,,,,,,,,,,,,,,,,,,,,,,,469.1631,470.2898,l,1,[],[],[],[],[],[],[],0.4535,1,470.2901,470.7897,,,,,,116,FEM,CON,150,nube,,a,0.4535,,470.7898,470.7901,-0.614814811,-0.19722225,0,0,0,,0,174,174,115,1,,,,
,,,,,,95e50b760d36ea7627bbb18e,66a626ef09d4e21e1a8894ec,6734e02099066fddf07ba2ba,2024-11-13_11h23.34.448,Tarea de género gramatical,2024.2.2,Win32,59.17159763,,,,,,,,,,,,,,,,,,,,,,,,470.793,471.8393,l,1,[],[],[],[],[],[],[],0.3678,1,471.8394,472.3393,,,,,,379,FEM,AGR,150,granja,la,a,0.3678,,472.3393,472.3395,-0.614814811,-0.19722225,0,0,0,,0,175,175,378,1,,,,
,,,,,,95e50b760d36ea7627bbb18e,66a626ef09d4e21e1a8894ec,6734e02099066fddf07ba2ba,2024-11-13_11h23.34.448,Tarea de género gramatical,2024.2.2,Win32,59.17159763,,,,,,,,,,,,,,,,,,,,,,,,472.3416,473.4058,a,1,[],[],[],[],[],[],[],0.3864,1,473.4061,473.9056,,,,,,184,MAS,AGR,150,cielo,el,l,0.3864,,473.9057,473.9061,-0.614814811,-0.19722225,0,0,0,,0,176,176,183,1,,,,
,,,,,,95e50b760d36ea7627bbb18e,66a626ef09d4e21e1a8894ec,6734e02099066fddf07ba2ba,2024-11-13_11h23.34.448,Tarea de género gramatical,2024.2.2,Win32,59.17159763,,,,,,,,,,,,,,,,,,,,,,,,473.9081,475.006,a,1,[],[],[],[],[],[],[],0.4167,1,475.0062,475.5056,,,,,,34,MAS,AGR,150,gato,el,l,0.4167,,475.5082,475.5102,-0.614814811,-0.19722225,0,0,0,,0,177,177,33,1,,,,
,,,,,,95e50b760d36ea7627bbb18e,66a626ef09d4e21e1a8894ec,6734e02099066fddf07ba2ba,2024-11-13_11h23.34.448,Tarea de género gramatical,2024.2.2,Win32,59.17159763,,,,,,,,,,,,,,,,,,,,,,,,475.5124,476.589,a,1,[],[],[],[],[],[],[],0.4009,1,476.5892,477.0886,,,,,,10,MAS,AGR,150,niño,el,l,0.4009,,477.0888,477.0891,-0.614814811,-0.19722225,0,0,0,,0,178,178,9,1,,,,
,,,,,,95e50b760d36ea7627bbb18e,66a626ef09d4e21e1a8894ec,6734e02099066fddf07ba2ba,2024-11-13_11h23.34.448,Tarea de género gramatical,2024.2.2,Win32,59.17159763,,,,,,,,,,,,,,,,,,,,,,,,477.091,478.3382,a,1,[],[],[],[],[],[],[],0.5727,1,478.3385,478.8387,,,,,,330,MAS,DIS,150,estado,la,l,0.5727,,478.8387,478.8391,-0.614814811,-0.19722225,0,0,0,,0,179,179,329,1,,,,
,,,,,,95e50b760d36ea7627bbb18e,66a626ef09d4e21e1a8894ec,6734e02099066fddf07ba2ba,2024-11-13_11h23.34.448,Tarea de género gramatical,2024.2.2,Win32,59.17159763,,,,,,,,,,,,,,,,,,,,,,,,478.8413,480.0717,l,1,[],[],[],[],[],[],[],0.5524,1,480.0718,480.5718,,,,,,31,FEM,AGR,150,edad,la,a,0.5524,,480.5718,480.572,-0.614814811,-0.19722225,0,0,0,,0,180,180,30,1,,,,
,,,,,,95e50b760d36ea7627bbb18e,66a626ef09d4e21e1a8894ec,6734e02099066fddf07ba2ba,2024-11-13_11h23.34.448,Tarea de género gramatical,2024.2.2,Win32,59.17159763,,,,,,,,,,,,,,,,,,,,,,,,480.574,481.6546,a,1,[],[],[],[],[],[],[],0.4059,1,481.6548,482.1551,,,,,,191,MAS,CON,150,dolor,,l,0.4059,,482.1553,482.1556,-0.614814811,-0.19722225,0,0,0,,0,181,181,190,1,,,,
,,,,,,95e50b760d36ea7627bbb18e,66a626ef09d4e21e1a8894ec,6734e02099066fddf07ba2ba,2024-11-13_11h23.34.448,Tarea de género gramatical,2024.2.2,Win32,59.17159763,,,,,,,,,,,,,,,,,,,,,,,,482.1578,483.2721,l,1,[],[],[],[],[],[],[],0.4407,1,483.2723,483.7715,,,,,,98,FEM,CON,150,fuga,,a,0.4407,,483.7741,483.776,-0.614814811,-0.19722225,0,0,0,,0,182,182,97,1,,,,
,,,,,,95e50b760d36ea7627bbb18e,66a626ef09d4e21e1a8894ec,6734e02099066fddf07ba2ba,2024-11-13_11h23.34.448,Tarea de género gramatical,2024.2.2,Win32,59.17159763,,,,,,,,,,,,,,,,,,,,,,,,483.7777,484.8552,a,1,[],[],[],[],[],[],[],0.4091,1,484.8554,485.3547,,,,,,106,MAS,AGR,150,test,el,l,0.4091,,485.3548,485.3551,-0.614814811,-0.19722225,0,0,0,,0,183,183,105,1,,,,
,,,,,,95e50b760d36ea7627bbb18e,66a626ef09d4e21e1a8894ec,6734e02099066fddf07ba2ba,2024-11-13_11h23.34.448,Tarea de género gramatical,2024.2.2,Win32,59.17159763,,,,,,,,,,,,,,,,,,,,,,,,485.3574,486.4209,l,1,[],[],[],[],[],[],[],0.3874,1,486.4211,486.9209,,,,,,205,FEM,AGR,150,reina,la,a,0.3874,,486.921,486.9212,-0.614814811,-0.19722225,0,0,0,,0,184,184,204,1,,,,
,,,,,,95e50b760d36ea7627bbb18e,66a626ef09d4e21e1a8894ec,6734e02099066fddf07ba2ba,2024-11-13_11h23.34.448,Tarea de género gramatical,2024.2.2,Win32,59.17159763,,,,,,,,,,,,,,,,,,,,,,,,486.9232,487.971,l,1,[],[],[],[],[],[],[],0.367,1,487.9712,488.4707,,,,,,446,FEM,CON,150,bañera,,a,0.367,,488.4708,488.4711,-0.614814811,-0.19722225,0,0,0,,0,185,185,445,1,,,,
,,,,,,95e50b760d36ea7627bbb18e,66a626ef09d4e21e1a8894ec,6734e02099066fddf07ba2ba,2024-11-13_11h23.34.448,Tarea de género gramatical,2024.2.2,Win32,59.17159763,,,,,,,,,,,,,,,,,,,,,,,,488.4731,489.4707,l,1,[],[],[],[],[],[],[],0.3167,1,489.4709,489.9707,,,,,,236,FEM,CON,150,deuda,,a,0.3167,,489.9735,489.9751,-0.614814811,-0.19722225,0,0,0,,0,186,186,235,1,,,,
,,,,,,95e50b760d36ea7627bbb18e,66a626ef09d4e21e1a8894ec,6734e02099066fddf07ba2ba,2024-11-13_11h23.34.448,Tarea de género gramatical,2024.2.2,Win32,59.17159763,,,,,,,,,,,,,,,,,,,,,,,,489.9769,490.9874,l,1,[],[],[],[],[],[],[],0.3348,1,490.9876,491.4874,,,,,,278,FEM,CON,150,presa,,a,0.3348,,491.4876,491.4878,-0.614814811,-0.19722225,0,0,0,,0,187,187,277,1,,,,
,,,,,,95e50b760d36ea7627bbb18e,66a626ef09d4e21e1a8894ec,6734e02099066fddf07ba2ba,2024-11-13_11h23.34.448,Tarea de género gramatical,2024.2.2,Win32,59.17159763,,,,,,,,,,,,,,,,,,,,,,,,491.4899,492.4874,a,1,[],[],[],[],[],[],[],0.326,1,492.4876,492.9873,,,,,,246,MAS,DIS,150,humor,la,l,0.326,,492.9874,492.9876,-0.614814811,-0.19722225,0,0,0,,0,188,188,245,1,,,,
,,,,,,95e50b760d36ea7627bbb18e,66a626ef09d4e21e1a8894ec,6734e02099066fddf07ba2ba,2024-11-13_11h23.34.448,Tarea de género gramatical,2024.2.2,Win32,59.17159763,,,,,,,,,,,,,,,,,,,,,,,,492.9898,494.2702,a,1,[],[],[],[],[],[],[],0.6026,1,494.2704,494.77,,,,,,334,MAS,AGR,150,ataque,el,l,0.6026,,494.7701,494.7704,-0.614814811,-0.19722225,0,0,0,,0,189,189,333,1,,,,
,,,,,,95e50b760d36ea7627bbb18e,66a626ef09d4e21e1a8894ec,6734e02099066fddf07ba2ba,2024-11-13_11h23.34.448,Tarea de género gramatical,2024.2.2,Win32,59.17159763,,,,,,,,,,,,,,,,,,,,,,,,494.7728,495.8031,a,1,[],[],[],[],[],[],[],0.3515,1,495.8033,496.3032,,,,,,312,MAS,DIS,150,equipo,la,l,0.3515,,496.3033,496.3036,-0.614814811,-0.19722225,0,0,0,,0,190,190,311,1,,,,
,,,,,,95e50b760d36ea7627bbb18e,66a626ef09d4e21e1a8894ec,6734e02099066fddf07ba2ba,2024-11-13_11h23.34.448,Tarea de género gramatical,2024.2.2,Win32,59.17159763,,,,,,,,,,,,,,,,,,,,,,,,496.3058,497.3364,a,1,[],[],[],[],[],[],[],0.3511,1,497.3366,497.8366,,,,,,197,MAS,CON,150,avión,,l,0.3511,,497.8393,497.8414,-0.614814811,-0.19722225,0,0,0,,0,191,191,196,1,,,,
,,,,,,95e50b760d36ea7627bbb18e,66a626ef09d4e21e1a8894ec,6734e02099066fddf07ba2ba,2024-11-13_11h23.34.448,Tarea de género gramatical,2024.2.2,Win32,59.17159763,,,,,,,,,,,,,,,,,,,,,,,,497.8433,498.8529,a,0,[],[],[],[],[],[],[],0.3364,0,498.8546,499.3535,,,,,,146,FEM,CON,150,lana,,a,0.3364,,499.3535,499.3538,-0.614814811,-0.19722225,0,0,0,,0,192,192,145,1,,,,
,,,,,,95e50b760d36ea7627bbb18e,66a626ef09d4e21e1a8894ec,6734e02099066fddf07ba2ba,2024-11-13_11h23.34.448,Tarea de género gramatical,2024.2.2,Win32,59.17159763,,,,,,,,,,,,,,,,,,,,,,,,499.3562,500.8695,a,1,[],[],[],[],[],[],[],0.8329,1,500.8712,501.369,,,,,,382,MAS,AGR,150,teatro,el,l,0.8329,,501.3691,501.3692,-0.614814811,-0.19722225,0,0,0,,0,193,193,381,1,,,,
,,,,,,95e50b760d36ea7627bbb18e,66a626ef09d4e21e1a8894ec,6734e02099066fddf07ba2ba,2024-11-13_11h23.34.448,Tarea de género gramatical,2024.2.2,Win32,59.17159763,,,,,,,,,,,,,,,,,,,,,,,,501.3714,502.586,a,1,[],[],[],[],[],[],[],0.5348,1,502.5861,503.0859,,,,,,424,MAS,AGR,150,rastro,el,l,0.5348,,503.0861,503.0864,-0.614814811,-0.19722225,0,0,0,,0,194,194,423,1,,,,
,,,,,,95e50b760d36ea7627bbb18e,66a626ef09d4e21e1a8894ec,6734e02099066fddf07ba2ba,2024-11-13_11h23.34.448,Tarea de género gramatical,2024.2.2,Win32,59.17159763,,,,,,,,,,,,,,,,,,,,,,,,503.0891,504.2685,l,1,[],[],[],[],[],[],[],0.5023,1,504.2688,504.7678,,,,,,417,FEM,DIS,150,cabaña,el,a,0.5023,,504.769,504.7698,-0.614814811,-0.19722225,0,0,0,,0,195,195,416,1,,,,
,,,,,,95e50b760d36ea7627bbb18e,66a626ef09d4e21e1a8894ec,6734e02099066fddf07ba2ba,2024-11-13_11h23.34.448,Tarea de género gramatical,2024.2.2,Win32,59.17159763,,,,,,,,,,,,,,,,,,,,,,,,504.7712,506.3524,l,0,[],[],[],[],[],[],[],0.8983,0,506.354,506.8523,,,,,,294,MAS,DIS,150,cable,la,l,0.8983,,506.8524,506.8526,-0.614814811,-0.19722225,0,0,0,,0,196,196,293,1,,,,
,,,,,,95e50b760d36ea7627bbb18e,66a626ef09d4e21e1a8894ec,6734e02099066fddf07ba2ba,2024-11-13_11h23.34.448,Tarea de género gramatical,2024.2.2,Win32,59.17159763,,,,,,,,,,,,,,,,,,,,,,,,506.8546,508.102,l,1,[],[],[],[],[],[],[],0.5671,1,508.1038,508.6021,,,,,,410,FEM,CON,150,piedad,,a,0.5671,,508.6022,508.6024,-0.614814811,-0.19722225,0,0,0,,0,197,197,409,1,,,,
,,,,,,95e50b760d36ea7627bbb18e,66a626ef09d4e21e1a8894ec,6734e02099066fddf07ba2ba,2024-11-13_11h23.34.448,Tarea de género gramatical,2024.2.2,Win32,59.17159763,,,,,,,,,,,,,,,,,,,,,,,,508.6045,510.3015,a,1,[],[],[],[],[],[],[],1.0195,1,510.3016,510.8012,,,,,,168,MAS,DIS,150,sitio,la,l,1.0195,,510.8013,510.8017,-0.614814811,-0.19722225,0,0,0,,0,198,198,167,1,,,,
,,,,,,95e50b760d36ea7627bbb18e,66a626ef09d4e21e1a8894ec,6734e02099066fddf07ba2ba,2024-11-13_11h23.34.448,Tarea de género gramatical,2024.2.2,Win32,59.17159763,,,,,,,,,,,,,,,,,,,,,,,,510.8042,511.9682,l,1,[],[],[],[],[],[],[],0.4849,1,511.9684,512.4671,,,,,,422,FEM,CON,150,rutina,,a,0.4849,,512.4671,512.4673,-0.614814811,-0.19722225,0,0,0,,0,199,199,421,1,,,,
,,,,,,95e50b760d36ea7627bbb18e,66a626ef09d4e21e1a8894ec,6734e02099066fddf07ba2ba,2024-11-13_11h23.34.448,Tarea de género gramatical,2024.2.2,Win32,59.17159763,,,,,,,,,,,,,,,,,,,,,,,,512.4683,513.5512,l,0,[],[],[],[],[],[],[],0.4015,0,513.5529,514.0503,,,,,,251,MAS,CON,150,dueño,,l,0.4015,,514.0519,514.0531,-0.614814811,-0.19722225,0,0,0,,0,200,200,250,1,,,,
,,,,,,95e50b760d36ea7627bbb18e,66a626ef09d4e21e1a8894ec,6734e02099066fddf07ba2ba,2024-11-13_11h23.34.448,Tarea de género gramatical,2024.2.2,Win32,59.17159763,,,,,,,,,,,,,,,,,,,,,,,,514.0545,515.834,l,1,[],[],[],[],[],[],[],1.1008,1,515.836,516.334,,,,,,409,FEM,AGR,150,moneda,la,a,1.1008,,516.3341,516.3344,-0.614814811,-0.19722225,0,0,0,,0,201,201,408,1,,,,
,,,,,,95e50b760d36ea7627bbb18e,66a626ef09d4e21e1a8894ec,6734e02099066fddf07ba2ba,2024-11-13_11h23.34.448,Tarea de género gramatical,2024.2.2,Win32,59.17159763,,,,,,,,,,,,,,,,,,,,,,,,516.3362,517.3675,l,1,[],[],[],[],[],[],[],0.3541,1,517.3677,517.8676,,,,,,20,FEM,CON,150,ropa,,a,0.3541,,517.8678,517.8682,-0.614814811,-0.19722225,0,0,0,,0,202,202,19,1,,,,
,,,,,,95e50b760d36ea7627bbb18e,66a626ef09d4e21e1a8894ec,6734e02099066fddf07ba2ba,2024-11-13_11h23.34.448,Tarea de género gramatical,2024.2.2,Win32,59.17159763,,,,,,,,,,,,,,,,,,,,,,,,517.8706,519.0338,l,1,[],[],[],[],[],[],[],0.4881,1,519.034,519.5339,,,,,,195,FEM,DIS,150,pared,el,a,0.4881,,519.534,519.5342,-0.614814811,-0.19722225,0,0,0,,0,203,203,194,1,,,,
,,,,,,95e50b760d36ea7627bbb18e,66a626ef09d4e21e1a8894ec,6734e02099066fddf07ba2ba,2024-11-13_11h23.34.448,Tarea de género gramatical,2024.2.2,Win32,59.17159763,,,,,,,,,,,,,,,,,,,,,,,,519.5365,520.6504,l,1,[],[],[],[],[],[],[],0.435,1,520.6505,521.1503,,,,,,97,FEM,AGR,150,capa,la,a,0.435,,521.1529,521.1546,-0.614814811,-0.19722225,0,0,0,,0,204,204,96,1,,,,
,,,,,,95e50b760d36ea7627bbb18e,66a626ef09d4e21e1a8894ec,6734e02099066fddf07ba2ba,2024-11-13_11h23.34.448,Tarea de género gramatical,2024.2.2,Win32,59.17159763,,,,,,,,,,,,,,,,,,,,,,,,521.1564,522.2334,l,1,[],[],[],[],[],[],[],0.4027,1,522.2335,522.7331,,,,,,427,FEM,AGR,150,agenda,la,a,0.4027,,522.7332,522.7335,-0.614814811,-0.19722225,0,0,0,,0,205,205,426,1,,,,
,,,,,,95e50b760d36ea7627bbb18e,66a626ef09d4e21e1a8894ec,6734e02099066fddf07ba2ba,2024-11-13_11h23.34.448,Tarea de género gramatical,2024.2.2,Win32,59.17159763,,,,,,,,,,,,,,,,,,,,,,,,522.7354,523.7667,l,1,[],[],[],[],[],[],[],0.3498,1,523.7668,524.2664,,,,,,92,FEM,CON,150,masa,,a,0.3498,,524.2665,524.2667,-0.614814811,-0.19722225,0,0,0,,0,206,206,91,1,,,,
,,,,,,95e50b760d36ea7627bbb18e,66a626ef09d4e21e1a8894ec,6734e02099066fddf07ba2ba,2024-11-13_11h23.34.448,Tarea de género gramatical,2024.2.2,Win32,59.17159763,,,,,,,,,,,,,,,,,,,,,,,,524.2688,525.4827,l,1,[],[],[],[],[],[],[],0.5394,1,525.4829,525.9829,,,,,,199,FEM,AGR,150,nariz,la,a,0.5394,,525.983,525.9833,-0.614814811,-0.19722225,0,0,0,,0,207,207,198,1,,,,
,,,,,,95e50b760d36ea7627bbb18e,66a626ef09d4e21e1a8894ec,6734e02099066fddf07ba2ba,2024-11-13_11h23.34.448,Tarea de género gramatical,2024.2.2,Win32,59.17159763,,,,,,,,,,,,,,,,,,,,,,,,525.9854,527.3161,l,1,[],[],[],[],[],[],[],0.6515,1,527.3162,527.8161,,,,,,206,FEM,CON,150,época,,a,0.6515,,527.8162,527.8165,-0.614814811,-0.19722225,0,0,0,,0,208,208,205,1,,,,
,,,,,,95e50b760d36ea7627bbb18e,66a626ef09d4e21e1a8894ec,6734e02099066fddf07ba2ba,2024-11-13_11h23.34.448,Tarea de género gramatical,2024.2.2,Win32,59.17159763,,,,,,,,,,,,,,,,,,,,,,,,527.8183,528.9662,a,1,[],[],[],[],[],[],[],0.4682,1,528.9664,529.4659,,,,,,353,MAS,CON,150,verano,,l,0.4682,,529.469,529.471,-0.614814811,-0.19722225,0,0,0,,0,209,209,352,1,,,,
,,,,,,95e50b760d36ea7627bbb18e,66a626ef09d4e21e1a8894ec,6734e02099066fddf07ba2ba,2024-11-13_11h23.34.448,Tarea de género gramatical,2024.2.2,Win32,59.17159763,,,,,,,,,,,,,,,,,,,,,,,,529.4729,530.8324,l,1,[],[],[],[],[],[],[],0.6866,1,530.8326,531.3323,,,,,,285,FEM,DIS,150,mafia,el,a,0.6866,,531.3324,531.3327,-0.614814811,-0.19722225,0,0,0,,0,210,210,284,1,,,,
,,,,,,95e50b760d36ea7627bbb18e,66a626ef09d4e21e1a8894ec,6734e02099066fddf07ba2ba,2024-11-13_11h23.34.448,Tarea de género gramatical,2024.2.2,Win32,59.17159763,,,,,,,,,,,,,,,,,,,,,,,,531.3347,532.4986,a,1,[],[],[],[],[],[],[],0.4904,1,532.4989,532.9988,,,,,,298,MAS,AGR,150,botón,el,l,0.4904,,532.999,532.9992,-0.614814811,-0.19722225,0,0,0,,0,211,211,297,1,,,,
,,,,,,95e50b760d36ea7627bbb18e,66a626ef09d4e21e1a8894ec,6734e02099066fddf07ba2ba,2024-11-13_11h23.34.448,Tarea de género gramatical,2024.2.2,Win32,59.17159763,,,,,,,,,,,,,,,,,,,,,,,,533.0011,534.0823,a,1,[],[],[],[],[],[],[],0.4014,1,534.0826,534.5828,,,,,,192,MAS,DIS,150,grupo,la,l,0.4014,,534.583,534.5833,-0.614814811,-0.19722225,0,0,0,,0,212,212,191,1,,,,
,,,,,,95e50b760d36ea7627bbb18e,66a626ef09d4e21e1a8894ec,6734e02099066fddf07ba2ba,2024-11-13_11h23.34.448,Tarea de género gramatical,2024.2.2,Win32,59.17159763,,,,,,,,,,,,,,,,,,,,,,,,534.5855,535.6652,a,1,[],[],[],[],[],[],[],0.3999,1,535.6654,536.1652,,,,,,204,MAS,DIS,150,papel,la,l,0.3999,,536.168,536.1699,-0.614814811,-0.19722225,0,0,0,,0,213,213,203,1,,,,
,,,,,,95e50b760d36ea7627bbb18e,66a626ef09d4e21e1a8894ec,6734e02099066fddf07ba2ba,2024-11-13_11h23.34.448,Tarea de género gramatical,2024.2.2,Win32,59.17159763,,,,,,,,,,,,,,,,,,,,,,,,536.1716,537.2318,a,1,[],[],[],[],[],[],[],0.3834,1,537.232,537.7321,,,,,,316,MAS,AGR,150,cuerpo,el,l,0.3834,,537.7322,537.7326,-0.614814811,-0.19722225,0,0,0,,0,214,214,315,1,,,,
,,,,,,95e50b760d36ea7627bbb18e,66a626ef09d4e21e1a8894ec,6734e02099066fddf07ba2ba,2024-11-13_11h23.34.448,Tarea de género gramatical,2024.2.2,Win32,59.17159763,,,,,,,,,,,,,,,,,,,,,,,,537.7348,538.7648,a,1,[],[],[],[],[],[],[],0.3531,1,538.7651,539.2647,,,,,,394,MAS,AGR,150,examen,el,l,0.3531,,539.2647,539.2649,-0.614814811,-0.19722225,0,0,0,,0,215,215,393,1,,,,
,,,,,,95e50b760d36ea7627bbb18e,66a626ef09d4e21e1a8894ec,6734e02099066fddf07ba2ba,2024-11-13_11h23.34.448,Tarea de género gramatical,2024.2.2,Win32,59.17159763,,,,,,,,,,,,,,,,,,,,,,,,539.2669,540.3649,l,1,[],[],[],[],[],[],[],0.4169,1,540.365,540.8642,,,,,,49,FEM,AGR,150,piel,la,a,0.4169,,540.8645,540.8648,-0.614814811,-0.19722225,0,0,0,,0,216,216,48,1,,,,
,,,,,,95e50b760d36ea7627bbb18e,66a626ef09d4e21e1a8894ec,6734e02099066fddf07ba2ba,2024-11-13_11h23.34.448,Tarea de género gramatical,2024.2.2,Win32,59.17159763,,,,,,,,,,,,,,,,,,,,,,,,540.8668,542.2313,l,1,[],[],[],[],[],[],[],0.6844,1,542.2315,542.7312,,,,,,339,FEM,DIS,150,salida,el,a,0.6844,,542.7313,542.7317,-0.614814811,-0.19722225,0,0,0,,0,217,217,338,1,,,,
,,,,,,95e50b760d36ea7627bbb18e,66a626ef09d4e21e1a8894ec,6734e02099066fddf07ba2ba,2024-11-13_11h23.34.448,Tarea de género gramatical,2024.2.2,Win32,59.17159763,,,,,,,,,,,,,,,,,,,,,,,,542.7336,543.831,l,1,[],[],[],[],[],[],[],0.4201,1,543.8312,544.331,,,,,,121,FEM,AGR,150,pila,la,a,0.4201,,544.3345,544.3362,-0.614814811,-0.19722225,0,0,0,,0,218,218,120,1,,,,
,,,,,,95e50b760d36ea7627bbb18e,66a626ef09d4e21e1a8894ec,6734e02099066fddf07ba2ba,2024-11-13_11h23.34.448,Tarea de género gramatical,2024.2.2,Win32,59.17159763,,,,,,,,,,,,,,,,,,,,,,,,544.3379,545.3809,l,1,[],[],[],[],[],[],[],0.3683,1,545.3811,545.8803,,,,,,170,FEM,CON,150,carta,,a,0.3683,,545.8806,545.8809,-0.614814811,-0.19722225,0,0,0,,0,219,219,169,1,,,,
,,,,,,95e50b760d36ea7627bbb18e,66a626ef09d4e21e1a8894ec,6734e02099066fddf07ba2ba,2024-11-13_11h23.34.448,Tarea de género gramatical,2024.2.2,Win32,59.17159763,,,,,,,,,,,,,,,,,,,,,,,,545.8834,546.9137,l,1,[],[],[],[],[],[],[],0.354,1,546.914,547.4136,,,,,,367,FEM,AGR,150,teoría,la,a,0.354,,547.4137,547.4139,-0.614814811,-0.19722225,0,0,0,,0,220,220,366,1,,,,
,,,,,,95e50b760d36ea7627bbb18e,66a626ef09d4e21e1a8894ec,6734e02099066fddf07ba2ba,2024-11-13_11h23.34.448,Tarea de género gramatical,2024.2.2,Win32,59.17159763,,,,,,,,,,,,,,,,,,,,,,,,547.416,548.5468,a,1,[],[],[],[],[],[],[],0.4541,1,548.547,549.0473,,,,,,78,MAS,DIS,150,oído,la,l,0.4541,,549.0475,549.0478,-0.614814811,-0.19722225,0,0,0,,0,221,221,77,1,,,,
,,,,,,95e50b760d36ea7627bbb18e,66a626ef09d4e21e1a8894ec,6734e02099066fddf07ba2ba,2024-11-13_11h23.34.448,Tarea de género gramatical,2024.2.2,Win32,59.17159763,,,,,,,,,,,,,,,,,,,,,,,,549.05,550.1134,l,1,[],[],[],[],[],[],[],0.3874,1,550.1135,550.6135,,,,,,75,FEM,DIS,150,caza,el,a,0.3874,,550.6162,550.6179,-0.614814811,-0.19722225,0,0,0,,0,222,222,74,1,,,,
,,,,,,95e50b760d36ea7627bbb18e,66a626ef09d4e21e1a8894ec,6734e02099066fddf07ba2ba,2024-11-13_11h23.34.448,Tarea de género gramatical,2024.2.2,Win32,59.17159763,,,,,,,,,,,,,,,,,,,,,,,,550.6196,551.73,a,1,[],[],[],[],[],[],[],0.434,1,551.7301,552.2302,,,,,,257,MAS,CON,150,pecho,,l,0.434,,552.2303,552.2308,-0.614814811,-0.19722225,0,0,0,,0,223,223,256,1,,,,
,,,,,,95e50b760d36ea7627bbb18e,66a626ef09d4e21e1a8894ec,6734e02099066fddf07ba2ba,2024-11-13_11h23.34.448,Tarea de género gramatical,2024.2.2,Win32,59.17159763,,,,,,,,,,,,,,,,,,,,,,,,552.233,553.263,l,1,[],[],[],[],[],[],[],0.3527,1,553.2632,553.7631,,,,,,19,FEM,AGR,150,niña,la,a,0.3527,,553.7632,553.7636,-0.614814811,-0.19722225,0,0,0,,0,224,224,18,1,,,,
,,,,,,95e50b760d36ea7627bbb18e,66a626ef09d4e21e1a8894ec,6734e02099066fddf07ba2ba,2024-11-13_11h23.34.448,Tarea de género gramatical,2024.2.2,Win32,59.17159763,,,,,,,,,,,,,,,,,,,,,,,,553.7656,554.7126,a,1,[],[],[],[],[],[],[],0.2715,1,554.7129,555.2131,,,,,,22,MAS,AGR,150,pelo,el,l,0.2715,,555.2132,555.2135,-0.614814811,-0.19722225,0,0,0,,0,225,225,21,1,,,,
,,,,,,95e50b760d36ea7627bbb18e,66a626ef09d4e21e1a8894ec,6734e02099066fddf07ba2ba,2024-11-13_11h23.34.448,Tarea de género gramatical,2024.2.2,Win32,59.17159763,,,,,,,,,,,,,,,,,,,,,,,,555.2155,556.3624,a,1,[],[],[],[],[],[],[],0.4679,1,556.3626,556.8624,,,,,,114,MAS,DIS,150,menú,la,l,0.4679,,556.8625,556.8629,-0.614814811,-0.19722225,0,0,0,,0,226,226,113,1,,,,
,,,,,,95e50b760d36ea7627bbb18e,66a626ef09d4e21e1a8894ec,6734e02099066fddf07ba2ba,2024-11-13_11h23.34.448,Tarea de género gramatical,2024.2.2,Win32,59.17159763,,,,,,,,,,,,,,,,,,,,,,,,556.8651,557.9293,l,1,[],[],[],[],[],[],[],0.3865,1,557.9296,558.4292,,,,,,123,FEM,DIS,150,tela,el,a,0.3865,,558.4319,558.4338,-0.614814811,-0.19722225,0,0,0,,0,227,227,122,1,,,,
,,,,,,95e50b760d36ea7627bbb18e,66a626ef09d4e21e1a8894ec,6734e02099066fddf07ba2ba,2024-11-13_11h23.34.448,Tarea de género gramatical,2024.2.2,Win32,59.17159763,,,,,,,,,,,,,,,,,,,,,,,,558.4356,559.4293,a,0,[],[],[],[],[],[],[],0.3255,0,559.4306,559.929,,,,,,163,FEM,AGR,150,calle,la,a,0.3255,,559.929,559.9293,-0.614814811,-0.19722225,0,0,0,,0,228,228,162,1,,,,
,,,,,,95e50b760d36ea7627bbb18e,66a626ef09d4e21e1a8894ec,6734e02099066fddf07ba2ba,2024-11-13_11h23.34.448,Tarea de género gramatical,2024.2.2,Win32,59.17159763,,,,,,,,,,,,,,,,,,,,,,,,559.9314,561.1955,a,1,[],[],[],[],[],[],[],0.5845,1,561.1972,561.6951,,,,,,40,MAS,AGR,150,dios,el,l,0.5845,,561.6952,561.6955,-0.614814811,-0.19722225,0,0,0,,0,229,229,39,1,,,,
,,,,,,95e50b760d36ea7627bbb18e,66a626ef09d4e21e1a8894ec,6734e02099066fddf07ba2ba,2024-11-13_11h23.34.448,Tarea de género gramatical,2024.2.2,Win32,59.17159763,,,,,,,,,,,,,,,,,,,,,,,,561.6976,562.7955,a,1,[],[],[],[],[],[],[],0.418,1,562.7956,563.295,,,,,,88,MAS,AGR,150,pavo,el,l,0.418,,563.2951,563.2953,-0.614814811,-0.19722225,0,0,0,,0,230,230,87,1,,,,
,,,,,,95e50b760d36ea7627bbb18e,66a626ef09d4e21e1a8894ec,6734e02099066fddf07ba2ba,2024-11-13_11h23.34.448,Tarea de género gramatical,2024.2.2,Win32,59.17159763,,,,,,,,,,,,,,,,,,,,,,,,563.2972,564.3455,l,1,[],[],[],[],[],[],[],0.367,1,564.3458,564.845,,,,,,224,FEM,CON,150,arena,,a,0.367,,564.8476,564.8493,-0.614814811,-0.19722225,0,0,0,,0,231,231,223,1,,,,
,,,,,,95e50b760d36ea7627bbb18e,66a626ef09d4e21e1a8894ec,6734e02099066fddf07ba2ba,2024-11-13_11h23.34.448,Tarea de género gramatical,2024.2.2,Win32,59.17159763,,,,,,,,,,,,,,,,,,,,,,,,564.8511,565.9281,a,1,[],[],[],[],[],[],[],0.3998,1,565.9283,566.428,,,,,,149,MAS,CON,150,nudo,,l,0.3998,,566.428,566.4283,-0.614814811,-0.19722225,0,0,0,,0,232,232,148,1,,,,
,,,,,,95e50b760d36ea7627bbb18e,66a626ef09d4e21e1a8894ec,6734e02099066fddf07ba2ba,2024-11-13_11h23.34.448,Tarea de género gramatical,2024.2.2,Win32,59.17159763,,,,,,,,,,,,,,,,,,,,,,,,566.4302,567.6781,l,1,[],[],[],[],[],[],[],0.5679,1,567.6783,568.178,,,,,,187,FEM,AGR,150,lista,la,a,0.5679,,568.1782,568.1785,-0.614814811,-0.19722225,0,0,0,,0,233,233,186,1,,,,
,,,,,,95e50b760d36ea7627bbb18e,66a626ef09d4e21e1a8894ec,6734e02099066fddf07ba2ba,2024-11-13_11h23.34.448,Tarea de género gramatical,2024.2.2,Win32,59.17159763,,,,,,,,,,,,,,,,,,,,,,,,568.1812,569.2113,a,1,[],[],[],[],[],[],[],0.3527,1,569.2114,569.7111,,,,,,292,MAS,AGR,150,piano,el,l,0.3527,,569.7113,569.7115,-0.614814811,-0.19722225,0,0,0,,0,234,234,291,1,,,,
,,,,,,95e50b760d36ea7627bbb18e,66a626ef09d4e21e1a8894ec,6734e02099066fddf07ba2ba,2024-11-13_11h23.34.448,Tarea de género gramatical,2024.2.2,Win32,59.17159763,,,,,,,,,,,,,,,,,,,,,,,,569.7138,570.861,a,1,[],[],[],[],[],[],[],0.4671,1,570.8612,571.361,,,,,,286,MAS,AGR,150,reino,el,l,0.4671,,571.3611,571.3614,-0.614814811,-0.19722225,0,0,0,,0,235,235,285,1,,,,
,,,,,,95e50b760d36ea7627bbb18e,66a626ef09d4e21e1a8894ec,6734e02099066fddf07ba2ba,2024-11-13_11h23.34.448,Tarea de género gramatical,2024.2.2,Win32,59.17159763,,,,,,,,,,,,,,,,,,,,,,,,571.3635,572.4273,a,1,[],[],[],[],[],[],[],0.3847,1,572.4275,572.9272,,,,,,136,MAS,AGR,150,vago,el,l,0.3847,,572.9296,572.9312,-0.614814811,-0.19722225,0,0,0,,0,236,236,135,1,,,,
,,,,,,95e50b760d36ea7627bbb18e,66a626ef09d4e21e1a8894ec,6734e02099066fddf07ba2ba,2024-11-13_11h23.34.448,Tarea de género gramatical,2024.2.2,Win32,59.17159763,,,,,,,,,,,,,,,,,,,,,,,,572.9331,574.0608,a,1,[],[],[],[],[],[],[],0.4507,1,574.061,574.5603,,,,,,221,MAS,CON,150,brazo,,l,0.4507,,574.5604,574.5607,-0.614814811,-0.19722225,0,0,0,,0,237,237,220,1,,,,
,,,,,,95e50b760d36ea7627bbb18e,66a626ef09d4e21e1a8894ec,6734e02099066fddf07ba2ba,2024-11-13_11h23.34.448,Tarea de género gramatical,2024.2.2,Win32,59.17159763,,,,,,,,,,,,,,,,,,,,,,,,574.5629,575.6268,l,1,[],[],[],[],[],[],[],0.3845,1,575.627,576.1266,,,,,,25,FEM,AGR,150,nave,la,a,0.3845,,576.1268,576.1272,-0.614814811,-0.19722225,0,0,0,,0,238,238,24,1,,,,
,,,,,,95e50b760d36ea7627bbb18e,66a626ef09d4e21e1a8894ec,6734e02099066fddf07ba2ba,2024-11-13_11h23.34.448,Tarea de género gramatical,2024.2.2,Win32,59.17159763,,,,,,,,,,,,,,,,,,,,,,,,576.1295,577.4761,a,1,[],[],[],[],[],[],[],0.6649,1,577.4762,577.977,,,,,,125,MAS,CON,150,bate,,l,0.6649,,577.9772,577.9777,-0.614814811,-0.19722225,0,0,0,,0,239,239,124,1,,,,
,,,,,,95e50b760d36ea7627bbb18e,66a626ef09d4e21e1a8894ec,6734e02099066fddf07ba2ba,2024-11-13_11h23.34.448,Tarea de género gramatical,2024.2.2,Win32,59.17159763,,,,,,,,,,,,,,,,,,,,,,,,577.9807,579.0597,l,1,[],[],[],[],[],[],[],0.4028,1,579.0599,579.5589,,,,,,435,FEM,DIS,150,niebla,el,a,0.4028,,579.5606,579.5619,-0.614814811,-0.19722225,0,0,0,,0,240,240,434,1,,,,
,,,,,,95e50b760d36ea7627bbb18e,66a626ef09d4e21e1a8894ec,6734e02099066fddf07ba2ba,2024-11-13_11h23.34.448,Tarea de género gramatical,2024.2.2,Win32,59.17159763,,,,,,,,,,,,,,,,,,,,,,,,579.5631,580.8098,a,1,[],[],[],[],[],[],[],0.571,1,580.81,581.3094,,,,,,72,MAS,DIS,150,hoyo,la,l,0.571,,581.3094,581.3097,-0.614814811,-0.19722225,0,0,0,,0,241,241,71,1,,,,
,,,,,,95e50b760d36ea7627bbb18e,66a626ef09d4e21e1a8894ec,6734e02099066fddf07ba2ba,2024-11-13_11h23.34.448,Tarea de género gramatical,2024.2.2,Win32,59.17159763,,,,,,,,,,,,,,,,,,,,,,,,581.3117,582.4929,a,1,[],[],[],[],[],[],[],0.4994,1,582.493,582.9926,,,,,,154,MAS,AGR,150,padre,el,l,0.4994,,582.9928,582.9931,-0.614814811,-0.19722225,0,0,0,,0,242,242,153,1,,,,
,,,,,,95e50b760d36ea7627bbb18e,66a626ef09d4e21e1a8894ec,6734e02099066fddf07ba2ba,2024-11-13_11h23.34.448,Tarea de género gramatical,2024.2.2,Win32,59.17159763,,,,,,,,,,,,,,,,,,,,,,,,582.9949,584.1095,l,1,[],[],[],[],[],[],[],0.4348,1,584.1098,584.6095,,,,,,326,FEM,CON,150,música,,a,0.4348,,584.6097,584.61,-0.614814811,-0.19722225,0,0,0,,0,243,243,325,1,,,,
,,,,,,95e50b760d36ea7627bbb18e,66a626ef09d4e21e1a8894ec,6734e02099066fddf07ba2ba,2024-11-13_11h23.34.448,Tarea de género gramatical,2024.2.2,Win32,59.17159763,,,,,,,,,,,,,,,,,,,,,,,,584.6119,585.8093,l,1,[],[],[],[],[],[],[],0.5204,1,585.8095,586.3089,,,,,,416,FEM,CON,150,colina,,a,0.5204,,586.309,586.3093,-0.614814811,-0.19722225,0,0,0,,0,244,244,415,1,,,,
,,,,,,95e50b760d36ea7627bbb18e,66a626ef09d4e21e1a8894ec,6734e02099066fddf07ba2ba,2024-11-13_11h23.34.448,Tarea de género gramatical,2024.2.2,Win32,59.17159763,,,,,,,,,,,,,,,,,,,,,,,,586.3113,587.4591,a,1,[],[],[],[],[],[],[],0.4662,1,587.4593,587.9591,,,,,,300,MAS,DIS,150,túnel,la,l,0.4662,,587.9617,587.9633,-0.614814811,-0.19722225,0,0,0,,0,245,245,299,1,,,,
,,,,,,95e50b760d36ea7627bbb18e,66a626ef09d4e21e1a8894ec,6734e02099066fddf07ba2ba,2024-11-13_11h23.34.448,Tarea de género gramatical,2024.2.2,Win32,59.17159763,,,,,,,,,,,,,,,,,,,,,,,,587.9652,589.092,a,1,[],[],[],[],[],[],[],0.4512,1,589.0922,589.5918,,,,,,269,MAS,CON,150,primo,,l,0.4512,,589.592,589.5922,-0.614814811,-0.19722225,0,0,0,,0,246,246,268,1,,,,
,,,,,,95e50b760d36ea7627bbb18e,66a626ef09d4e21e1a8894ec,6734e02099066fddf07ba2ba,2024-11-13_11h23.34.448,Tarea de género gramatical,2024.2.2,Win32,59.17159763,,,,,,,,,,,,,,,,,,,,,,,,589.5945,590.6753,l,1,[],[],[],[],[],[],[],0.4027,1,590.6755,591.1752,,,,,,219,FEM,DIS,150,costa,el,a,0.4027,,591.1752,591.1756,-0.614814811,-0.19722225,0,0,0,,0,247,247,218,1,,,,
,,,,,,95e50b760d36ea7627bbb18e,66a626ef09d4e21e1a8894ec,6734e02099066fddf07ba2ba,2024-11-13_11h23.34.448,Tarea de género gramatical,2024.2.2,Win32,59.17159763,,,,,,,,,,,,,,,,,,,,,,,,591.1781,592.5913,l,0,[],[],[],[],[],[],[],0.7393,0,592.5934,593.0916,,,,,,450,MAS,DIS,150,conejo,la,l,0.7393,,593.0916,593.0918,-0.614814811,-0.19722225,0,0,0,,0,248,248,449,1,,,,
,,,,,,95e50b760d36ea7627bbb18e,66a626ef09d4e21e1a8894ec,6734e02099066fddf07ba2ba,2024-11-13_11h23.34.448,Tarea de género gramatical,2024.2.2,Win32,59.17159763,,,,,,,,,,,,,,,,,,,,,,,,593.094,594.2418,l,1,[],[],[],[],[],[],[],0.4688,1,594.2435,594.7415,,,,,,296,FEM,CON,150,feria,,a,0.4688,,594.7438,594.7457,-0.614814811,-0.19722225,0,0,0,,0,249,249,295,1,,,,
,,,,,,95e50b760d36ea7627bbb18e,66a626ef09d4e21e1a8894ec,6734e02099066fddf07ba2ba,2024-11-13_11h23.34.448,Tarea de género gramatical,2024.2.2,Win32,59.17159763,,,,,,,,,,,,,,,,,,,,,,,,594.7476,595.9411,l,1,[],[],[],[],[],[],[],0.5178,1,595.9413,596.4411,,,,,,141,FEM,DIS,150,cera,el,a,0.5178,,596.4411,596.4415,-0.614814811,-0.19722225,0,0,0,,0,250,250,140,1,,,,
