counterbalancing_condition,consent_prescreening.block_1/declare_consent,consent_prescreening.block_1/age_years,consent_prescreening.block_1/gender,consent_prescreening.block_1/language_disorder,consent_prescreening.block_1/first_language,PROLIFIC_PID,STUDY_ID,SESSION_ID,date,expName,psychopyVersion,OS,frameRate,check_prescreening_answers.started,check_prescreening_answers.stopped,Instructions.started,Instructions.stopped,instr_done_keyboard.keys,instr_done_keyboard.rt,instr_done_keyboard.duration,instr_done_touch.x,instr_done_touch.y,instr_done_touch.leftButton,instr_done_touch.midButton,instr_done_touch.rightButton,instruction_pages.thisRepN,instruction_pages.thisTrialN,instruction_pages.thisN,instruction_pages.thisIndex,instruction_pages.ran,pageN,phase,instruct_text,has_image,instruct_image,presentTrial.started,presentTrial.stopped,response.keys,response.corr,response.rt,response.duration,touch_resp.x,touch_resp.y,touch_resp.leftButton,touch_resp.midButton,touch_resp.rightButton,touch_resp.time,touch_resp.clicked_name,rt,corr,feedback.started,feedback.stopped,practice_trials.thisRepN,practice_trials.thisTrialN,practice_trials.thisN,practice_trials.thisIndex,practice_trials.ran,TrialID,StimulusType,Condition,PrimeDuration,Prime,Flanker,corrAns,Break.started,Break.stopped,break_done_touch.x,break_done_touch.y,break_done_touch.leftButton,break_done_touch.midButton,break_done_touch.rightButton,break_done_keyboard.keys,experiment_trials.thisRepN,experiment_trials.thisTrialN,experiment_trials.thisN,experiment_trials.thisIndex,experiment_trials.ran,break_done_keyboard.rt,break_done_keyboard.duration,End.started,End.stopped
1,"[""over_18"",""comfortable"",""read_info"",""consent_given""]",30,M,"[""none""]","[""spanish""]",96f2b85174718d2e5cf77969,66a626ef09d4e21e1a8894ec,673649ad62b367cb4329d168,2024-11-14_13h04.27.947,Tarea de género gramatical,2024.2.2,Win32,30.08061605,,,,,,,,,,,,,,,,,,,,,,,,,,,,,,,,,,,,,,,,,,,,,,,,,,,,,,,,,,,,,,,,,,,,
,,,,,,96f2b85174718d2e5cf77969,66a626ef09d4e21e1a8894ec,673649ad62b367cb4329d168,2024-11-14_13h04.27.947,Tarea de género gramatical,2024.2.2,Win32,30.08061605,54.4937,54.494,,,,,,,,,,,,,,,,,,,,,,,,,,,,,,,,,,,,,,,,,,,,,,,,,,,,,,,,,,,,,,,,,,
,,,,,,96f2b85174718d2e5cf77969,66a626ef09d4e21e1a8894ec,673649ad62b367cb4329d168,2024-11-14_13h04.27.947,Tarea de género gramatical,2024.2.2,Win32,30.08061605,,,54.5327,64.3557,space,9.7758,,0.093518519,-0.103703704,0,0,0,0,0,0,0,1,1,instructions,"INSTRUCCIONES
Va a realizar una prueba de selección gramatical. Desde el comienzo de la prueba mire siempre al centro de la pantalla. Al cabo de un momento, aparecerán palabras. La tarea consiste en determinar si la palabra del centro (siempre será un sustantivo), pertenece al género masculino o femenino.

Pulse la tecla ESPACIO o toque el botón de abajo para continuar.",0,keyboardresponseFM.png,,,,,,,,,,,,,,,,,,,,,,,,,,,,,,,,,,,,,,,,,,,,,,
,,,,,,96f2b85174718d2e5cf77969,66a626ef09d4e21e1a8894ec,673649ad62b367cb4329d168,2024-11-14_13h04.27.947,Tarea de género gramatical,2024.2.2,Win32,30.08061605,,,64.3591,79.9024,space,15.471,,0.093518519,-0.103703704,0,0,0,0,1,1,1,1,2,instructions,"Si su dispositivo tiene teclado, pulse la tecla ""A"" para las palabras en femenino (por ejemplo: ""mano"") y la tecla ""L"" para las palabras en masculino(por ejemplo: ""arroz"").
Pulse la tecla ESPACIO o toque el botón de abajo para continuar.",1,keyboardresponseFM.png,,,,,,,,,,,,,,,,,,,,,,,,,,,,,,,,,,,,,,,,,,,,,,
,,,,,,96f2b85174718d2e5cf77969,66a626ef09d4e21e1a8894ec,673649ad62b367cb4329d168,2024-11-14_13h04.27.947,Tarea de género gramatical,2024.2.2,Win32,30.08061605,,,79.9161,87.3175,space,7.3484,,0.093518519,-0.103703704,0,0,0,0,2,2,2,1,3,instructions,"Si utiliza un dispositivo sólo táctil, colóquelo en horizontal y utilice los botones de la pantalla. No utilice el ratón.
Pulse la tecla ESPACIO o toque el botón de abajo para continuar.",2,touchresponseFM.png,,,,,,,,,,,,,,,,,,,,,,,,,,,,,,,,,,,,,,,,,,,,,,
,,,,,,96f2b85174718d2e5cf77969,66a626ef09d4e21e1a8894ec,673649ad62b367cb4329d168,2024-11-14_13h04.27.947,Tarea de género gramatical,2024.2.2,Win32,30.08061605,,,87.328,96.6792,space,9.3311,,0.093518519,-0.103703704,0,0,0,0,3,3,3,1,4,instructions,"Es muy importante que responda con la mayor rapidez y precisión posibles, ya que cada cadena de letras sólo estará en pantalla durante un instante. Si no responde en ese tiempo, aparecerá el mensaje ""Muy lento"" y el experimento pasará a la siguiente palabra. Los primeros 15 intentos serán de práctica y habrá dos descansos durante la prueba.
Pulse la tecla ESPACIO o toque el botón de abajo para iniciar la parte de práctica.",0,keyboardresponseFM.png,,,,,,,,,,,,,,,,,,,,,,,,,,,,,,,,,,,,,,,,,,,,,,
,,,,,,96f2b85174718d2e5cf77969,66a626ef09d4e21e1a8894ec,673649ad62b367cb4329d168,2024-11-14_13h04.27.947,Tarea de género gramatical,2024.2.2,Win32,30.08061605,,,,,,,,,,,,,,,,,,,,,,,96.7126,98.167,a,1,0.78,,[],[],[],[],[],[],[],0.78,1,98.1674,98.6743,0,0,0,6,1,2007,FEM,AGR,150,navaja,la,a,,,,,,,,,,,,,,,,,
,,,,,,96f2b85174718d2e5cf77969,66a626ef09d4e21e1a8894ec,673649ad62b367cb4329d168,2024-11-14_13h04.27.947,Tarea de género gramatical,2024.2.2,Win32,30.08061605,,,,,,,,,,,,,,,,,,,,,,,98.6794,99.9456,a,0,0.5718,,[],[],[],[],[],[],[],0.5718,0,99.9484,100.4366,0,1,1,14,1,2015,MAS,DIS,150,robot,la,l,,,,,,,,,,,,,,,,,
,,,,,,96f2b85174718d2e5cf77969,66a626ef09d4e21e1a8894ec,673649ad62b367cb4329d168,2024-11-14_13h04.27.947,Tarea de género gramatical,2024.2.2,Win32,30.08061605,,,,,,,,,,,,,,,,,,,,,,,100.4392,102.5738,a,1,1.4633,,[],[],[],[],[],[],[],1.4633,1,102.5751,103.0761,0,2,2,0,1,2001,FEM,AGR,150,nuca,la,a,,,,,,,,,,,,,,,,,
,,,,,,96f2b85174718d2e5cf77969,66a626ef09d4e21e1a8894ec,673649ad62b367cb4329d168,2024-11-14_13h04.27.947,Tarea de género gramatical,2024.2.2,Win32,30.08061605,,,,,,,,,,,,,,,,,,,,,,,103.0779,104.317,l,1,0.5658,,[],[],[],[],[],[],[],0.5658,1,104.3172,104.8074,0,3,3,8,1,2009,MAS,DIS,150,puerto,la,l,,,,,,,,,,,,,,,,,
,,,,,,96f2b85174718d2e5cf77969,66a626ef09d4e21e1a8894ec,673649ad62b367cb4329d168,2024-11-14_13h04.27.947,Tarea de género gramatical,2024.2.2,Win32,30.08061605,,,,,,,,,,,,,,,,,,,,,,,104.8097,106.0551,l,1,0.5504,,[],[],[],[],[],[],[],0.5504,1,106.0554,106.5308,0,4,4,10,1,2011,MAS,CON,150,canal,,l,,,,,,,,,,,,,,,,,
,,,,,,96f2b85174718d2e5cf77969,66a626ef09d4e21e1a8894ec,673649ad62b367cb4329d168,2024-11-14_13h04.27.947,Tarea de género gramatical,2024.2.2,Win32,30.08061605,,,,,,,,,,,,,,,,,,,,,,,106.5325,107.5928,a,1,0.3829,,[],[],[],[],[],[],[],0.3829,1,107.5929,108.1042,0,5,5,4,1,2005,FEM,CON,150,placa,,a,,,,,,,,,,,,,,,,,
,,,,,,96f2b85174718d2e5cf77969,66a626ef09d4e21e1a8894ec,673649ad62b367cb4329d168,2024-11-14_13h04.27.947,Tarea de género gramatical,2024.2.2,Win32,30.08061605,,,,,,,,,,,,,,,,,,,,,,,108.106,109.5876,a,1,0.8093,,[],[],[],[],[],[],[],0.8093,1,109.5877,110.0602,0,6,6,3,1,2004,FEM,AGR,150,venta,la,a,,,,,,,,,,,,,,,,,
,,,,,,96f2b85174718d2e5cf77969,66a626ef09d4e21e1a8894ec,673649ad62b367cb4329d168,2024-11-14_13h04.27.947,Tarea de género gramatical,2024.2.2,Win32,30.08061605,,,,,,,,,,,,,,,,,,,,,,,110.0639,111.3844,l,1,0.6432,,[],[],[],[],[],[],[],0.6432,1,111.3847,111.8942,0,7,7,11,1,2012,MAS,DIS,150,clima,la,l,,,,,,,,,,,,,,,,,
,,,,,,96f2b85174718d2e5cf77969,66a626ef09d4e21e1a8894ec,673649ad62b367cb4329d168,2024-11-14_13h04.27.947,Tarea de género gramatical,2024.2.2,Win32,30.08061605,,,,,,,,,,,,,,,,,,,,,,,111.8955,113.0935,l,1,0.5245,,[],[],[],[],[],[],[],0.5245,1,113.0937,113.5599,0,8,8,12,1,2013,MAS,AGR,150,acero,el,l,,,,,,,,,,,,,,,,,
,,,,,,96f2b85174718d2e5cf77969,66a626ef09d4e21e1a8894ec,673649ad62b367cb4329d168,2024-11-14_13h04.27.947,Tarea de género gramatical,2024.2.2,Win32,30.08061605,,,,,,,,,,,,,,,,,,,,,,,113.5626,114.988,a,1,0.7385,,[],[],[],[],[],[],[],0.7385,1,114.9882,115.4918,0,9,9,5,1,2006,FEM,DIS,150,serie,el,a,,,,,,,,,,,,,,,,,
,,,,,,96f2b85174718d2e5cf77969,66a626ef09d4e21e1a8894ec,673649ad62b367cb4329d168,2024-11-14_13h04.27.947,Tarea de género gramatical,2024.2.2,Win32,30.08061605,,,,,,,,,,,,,,,,,,,,,,,115.4934,116.6811,a,1,0.489,,[],[],[],[],[],[],[],0.489,1,116.6812,117.1811,0,10,10,1,1,2002,FEM,CON,150,pala,,a,,,,,,,,,,,,,,,,,
,,,,,,96f2b85174718d2e5cf77969,66a626ef09d4e21e1a8894ec,673649ad62b367cb4329d168,2024-11-14_13h04.27.947,Tarea de género gramatical,2024.2.2,Win32,30.08061605,,,,,,,,,,,,,,,,,,,,,,,117.1835,118.303,a,1,0.4317,,[],[],[],[],[],[],[],0.4317,1,118.3032,118.7917,0,11,11,7,1,2008,FEM,CON,150,siesta,,a,,,,,,,,,,,,,,,,,
,,,,,,96f2b85174718d2e5cf77969,66a626ef09d4e21e1a8894ec,673649ad62b367cb4329d168,2024-11-14_13h04.27.947,Tarea de género gramatical,2024.2.2,Win32,30.08061605,,,,,,,,,,,,,,,,,,,,,,,118.7938,120.0069,a,1,0.5277,,[],[],[],[],[],[],[],0.5277,1,120.0071,120.4969,0,12,12,2,1,2003,FEM,DIS,150,daga,el,a,,,,,,,,,,,,,,,,,
,,,,,,96f2b85174718d2e5cf77969,66a626ef09d4e21e1a8894ec,673649ad62b367cb4329d168,2024-11-14_13h04.27.947,Tarea de género gramatical,2024.2.2,Win32,30.08061605,,,,,,,,,,,,,,,,,,,,,,,120.4988,121.8141,a,0,0.633,,[],[],[],[],[],[],[],0.633,0,121.8162,122.3347,0,13,13,9,1,2010,MAS,AGR,150,vecino,el,l,,,,,,,,,,,,,,,,,
,,,,,,96f2b85174718d2e5cf77969,66a626ef09d4e21e1a8894ec,673649ad62b367cb4329d168,2024-11-14_13h04.27.947,Tarea de género gramatical,2024.2.2,Win32,30.08061605,,,,,,,,,,,,,,,,,,,,,,,122.337,123.7414,l,1,0.7246,,[],[],[],[],[],[],[],0.7246,1,123.7431,124.2173,0,14,14,13,1,2014,MAS,CON,150,siglo,,l,,,,,,,,,,,,,,,,,
,,,,,,96f2b85174718d2e5cf77969,66a626ef09d4e21e1a8894ec,673649ad62b367cb4329d168,2024-11-14_13h04.27.947,Tarea de género gramatical,2024.2.2,Win32,30.08061605,,,128.945,166.5408,space,37.5742,,0.093518519,-0.103703704,0,0,0,,,,,,,,,,,166.6258,167.7638,l,1,0.4518,,[],[],[],[],[],[],[],0.4518,1,167.764,168.2629,,,,,,732,MAS,AGR,150,bolso,el,l,168.2639,168.2732,0.093518519,-0.103703704,0,0,0,,0,0,0,281,1,,,,
,,,,,,96f2b85174718d2e5cf77969,66a626ef09d4e21e1a8894ec,673649ad62b367cb4329d168,2024-11-14_13h04.27.947,Tarea de género gramatical,2024.2.2,Win32,30.08061605,,,,,,,,,,,,,,,,,,,,,,,168.275,169.4474,l,1,0.4839,,[],[],[],[],[],[],[],0.4839,1,169.4475,169.9449,,,,,,761,MAS,DIS,150,camino,la,l,169.945,169.9453,0.093518519,-0.103703704,0,0,0,,0,1,1,310,1,,,,
,,,,,,96f2b85174718d2e5cf77969,66a626ef09d4e21e1a8894ec,673649ad62b367cb4329d168,2024-11-14_13h04.27.947,Tarea de género gramatical,2024.2.2,Win32,30.08061605,,,,,,,,,,,,,,,,,,,,,,,169.9468,170.9744,a,1,0.3513,,[],[],[],[],[],[],[],0.3513,1,170.9745,171.4629,,,,,,609,FEM,AGR,150,clase,la,a,171.4648,171.4658,0.093518519,-0.103703704,0,0,0,,0,2,2,158,1,,,,
,,,,,,96f2b85174718d2e5cf77969,66a626ef09d4e21e1a8894ec,673649ad62b367cb4329d168,2024-11-14_13h04.27.947,Tarea de género gramatical,2024.2.2,Win32,30.08061605,,,,,,,,,,,,,,,,,,,,,,,171.4668,172.693,l,1,0.5326,,[],[],[],[],[],[],[],0.5326,1,172.6932,173.184,,,,,,456,MAS,AGR,150,lado,el,l,173.1842,173.1845,0.093518519,-0.103703704,0,0,0,,0,3,3,5,1,,,,
,,,,,,96f2b85174718d2e5cf77969,66a626ef09d4e21e1a8894ec,673649ad62b367cb4329d168,2024-11-14_13h04.27.947,Tarea de género gramatical,2024.2.2,Win32,30.08061605,,,,,,,,,,,,,,,,,,,,,,,173.1865,174.4294,a,1,0.5485,,[],[],[],[],[],[],[],0.5485,1,174.4296,174.9285,,,,,,482,FEM,DIS,150,caja,el,a,174.9287,174.9293,0.093518519,-0.103703704,0,0,0,,0,4,4,31,1,,,,
,,,,,,96f2b85174718d2e5cf77969,66a626ef09d4e21e1a8894ec,673649ad62b367cb4329d168,2024-11-14_13h04.27.947,Tarea de género gramatical,2024.2.2,Win32,30.08061605,,,,,,,,,,,,,,,,,,,,,,,174.9314,176.2323,a,1,0.6203,,[],[],[],[],[],[],[],0.6203,1,176.2324,176.7129,,,,,,872,FEM,DIS,150,rutina,el,a,176.7129,176.7132,0.093518519,-0.103703704,0,0,0,,0,5,5,421,1,,,,
,,,,,,96f2b85174718d2e5cf77969,66a626ef09d4e21e1a8894ec,673649ad62b367cb4329d168,2024-11-14_13h04.27.947,Tarea de género gramatical,2024.2.2,Win32,30.08061605,,,,,,,,,,,,,,,,,,,,,,,176.7146,177.8303,a,1,0.4263,,[],[],[],[],[],[],[],0.4263,1,177.8305,178.3221,,,,,,650,FEM,DIS,150,silla,el,a,178.3241,178.3255,0.093518519,-0.103703704,0,0,0,,0,6,6,199,1,,,,
,,,,,,96f2b85174718d2e5cf77969,66a626ef09d4e21e1a8894ec,673649ad62b367cb4329d168,2024-11-14_13h04.27.947,Tarea de género gramatical,2024.2.2,Win32,30.08061605,,,,,,,,,,,,,,,,,,,,,,,178.3264,179.3969,l,1,0.3932,,[],[],[],[],[],[],[],0.3932,1,179.397,179.8735,,,,,,516,MAS,AGR,150,muro,el,l,179.8735,179.8737,0.093518519,-0.103703704,0,0,0,,0,7,7,65,1,,,,
,,,,,,96f2b85174718d2e5cf77969,66a626ef09d4e21e1a8894ec,673649ad62b367cb4329d168,2024-11-14_13h04.27.947,Tarea de género gramatical,2024.2.2,Win32,30.08061605,,,,,,,,,,,,,,,,,,,,,,,179.8752,181.5225,l,1,0.9628,,[],[],[],[],[],[],[],0.9628,1,181.5227,182.012,,,,,,485,MAS,DIS,150,taxi,la,l,182.0121,182.0124,0.093518519,-0.103703704,0,0,0,,0,8,8,34,1,,,,
,,,,,,96f2b85174718d2e5cf77969,66a626ef09d4e21e1a8894ec,673649ad62b367cb4329d168,2024-11-14_13h04.27.947,Tarea de género gramatical,2024.2.2,Win32,30.08061605,,,,,,,,,,,,,,,,,,,,,,,182.0148,183.3363,a,1,0.6479,,[],[],[],[],[],[],[],0.6479,1,183.3364,183.8355,,,,,,487,FEM,CON,150,sala,,a,183.8356,183.8361,0.093518519,-0.103703704,0,0,0,,0,9,9,36,1,,,,
,,,,,,96f2b85174718d2e5cf77969,66a626ef09d4e21e1a8894ec,673649ad62b367cb4329d168,2024-11-14_13h04.27.947,Tarea de género gramatical,2024.2.2,Win32,30.08061605,,,,,,,,,,,,,,,,,,,,,,,183.8379,185.2886,a,1,0.7559,,[],[],[],[],[],[],[],0.7559,1,185.2887,185.769,,,,,,621,FEM,AGR,150,mitad,la,a,185.7691,185.7692,0.093518519,-0.103703704,0,0,0,,0,10,10,170,1,,,,
,,,,,,96f2b85174718d2e5cf77969,66a626ef09d4e21e1a8894ec,673649ad62b367cb4329d168,2024-11-14_13h04.27.947,Tarea de género gramatical,2024.2.2,Win32,30.08061605,,,,,,,,,,,,,,,,,,,,,,,185.7706,186.9602,l,1,0.4995,,[],[],[],[],[],[],[],0.4995,1,186.9604,187.4711,,,,,,803,MAS,DIS,150,verano,la,l,187.474,187.4758,0.093518519,-0.103703704,0,0,0,,0,11,11,352,1,,,,
,,,,,,96f2b85174718d2e5cf77969,66a626ef09d4e21e1a8894ec,673649ad62b367cb4329d168,2024-11-14_13h04.27.947,Tarea de género gramatical,2024.2.2,Win32,30.08061605,,,,,,,,,,,,,,,,,,,,,,,187.4777,188.7344,a,1,0.5772,,[],[],[],[],[],[],[],0.5772,1,188.7346,189.2469,,,,,,627,FEM,AGR,150,broma,la,a,189.2471,189.2475,0.093518519,-0.103703704,0,0,0,,0,12,12,176,1,,,,
,,,,,,96f2b85174718d2e5cf77969,66a626ef09d4e21e1a8894ec,673649ad62b367cb4329d168,2024-11-14_13h04.27.947,Tarea de género gramatical,2024.2.2,Win32,30.08061605,,,,,,,,,,,,,,,,,,,,,,,189.2498,190.916,l,0,0.962,,[],[],[],[],[],[],[],0.962,0,190.9171,191.4044,,,,,,836,FEM,DIS,150,sombra,el,a,191.4045,191.4048,0.093518519,-0.103703704,0,0,0,,0,13,13,385,1,,,,
,,,,,,96f2b85174718d2e5cf77969,66a626ef09d4e21e1a8894ec,673649ad62b367cb4329d168,2024-11-14_13h04.27.947,Tarea de género gramatical,2024.2.2,Win32,30.08061605,,,,,,,,,,,,,,,,,,,,,,,191.4077,193.0363,a,1,0.9446,,[],[],[],[],[],[],[],0.9446,1,193.0384,193.5404,,,,,,764,FEM,DIS,150,señora,el,a,193.5406,193.5408,0.093518519,-0.103703704,0,0,0,,0,14,14,313,1,,,,
,,,,,,96f2b85174718d2e5cf77969,66a626ef09d4e21e1a8894ec,673649ad62b367cb4329d168,2024-11-14_13h04.27.947,Tarea de género gramatical,2024.2.2,Win32,30.08061605,,,,,,,,,,,,,,,,,,,,,,,193.5426,194.7085,l,1,0.4693,,[],[],[],[],[],[],[],0.4693,1,194.7086,195.2015,,,,,,616,MAS,CON,150,coche,,l,195.2036,195.2048,0.093518519,-0.103703704,0,0,0,,0,15,15,165,1,,,,
,,,,,,96f2b85174718d2e5cf77969,66a626ef09d4e21e1a8894ec,673649ad62b367cb4329d168,2024-11-14_13h04.27.947,Tarea de género gramatical,2024.2.2,Win32,30.08061605,,,,,,,,,,,,,,,,,,,,,,,195.2058,196.5998,l,1,0.7155,,[],[],[],[],[],[],[],0.7155,1,196.5999,197.1051,,,,,,720,MAS,AGR,150,queso,el,l,197.1053,197.1058,0.093518519,-0.103703704,0,0,0,,0,16,16,269,1,,,,
,,,,,,96f2b85174718d2e5cf77969,66a626ef09d4e21e1a8894ec,673649ad62b367cb4329d168,2024-11-14_13h04.27.947,Tarea de género gramatical,2024.2.2,Win32,30.08061605,,,,,,,,,,,,,,,,,,,,,,,197.1075,198.345,a,1,0.5651,,[],[],[],[],[],[],[],0.5651,1,198.3451,198.8434,,,,,,704,FEM,DIS,150,caída,el,a,198.8435,198.8437,0.093518519,-0.103703704,0,0,0,,0,17,17,253,1,,,,
,,,,,,96f2b85174718d2e5cf77969,66a626ef09d4e21e1a8894ec,673649ad62b367cb4329d168,2024-11-14_13h04.27.947,Tarea de género gramatical,2024.2.2,Win32,30.08061605,,,,,,,,,,,,,,,,,,,,,,,198.8452,200.0718,l,1,0.5475,,[],[],[],[],[],[],[],0.5475,1,200.0719,200.5785,,,,,,756,MAS,AGR,150,dinero,el,l,200.5785,200.5789,0.093518519,-0.103703704,0,0,0,,0,18,18,305,1,,,,
,,,,,,96f2b85174718d2e5cf77969,66a626ef09d4e21e1a8894ec,673649ad62b367cb4329d168,2024-11-14_13h04.27.947,Tarea de género gramatical,2024.2.2,Win32,30.08061605,,,,,,,,,,,,,,,,,,,,,,,200.5808,201.9565,a,1,0.6962,,[],[],[],[],[],[],[],0.6962,1,201.9566,202.4581,,,,,,631,FEM,CON,150,tarde,,a,202.4581,202.4582,0.093518519,-0.103703704,0,0,0,,0,19,19,180,1,,,,
,,,,,,96f2b85174718d2e5cf77969,66a626ef09d4e21e1a8894ec,673649ad62b367cb4329d168,2024-11-14_13h04.27.947,Tarea de género gramatical,2024.2.2,Win32,30.08061605,,,,,,,,,,,,,,,,,,,,,,,202.4596,203.7256,a,1,0.5861,,[],[],[],[],[],[],[],0.5861,1,203.7258,204.245,,,,,,681,FEM,AGR,150,bruja,la,a,204.247,204.2483,0.093518519,-0.103703704,0,0,0,,0,20,20,230,1,,,,
,,,,,,96f2b85174718d2e5cf77969,66a626ef09d4e21e1a8894ec,673649ad62b367cb4329d168,2024-11-14_13h04.27.947,Tarea de género gramatical,2024.2.2,Win32,30.08061605,,,,,,,,,,,,,,,,,,,,,,,204.2494,206.0993,a,1,1.1583,,[],[],[],[],[],[],[],1.1583,1,206.0993,206.5875,,,,,,686,FEM,DIS,150,deuda,el,a,206.5875,206.5877,0.093518519,-0.103703704,0,0,0,,0,21,21,235,1,,,,
,,,,,,96f2b85174718d2e5cf77969,66a626ef09d4e21e1a8894ec,673649ad62b367cb4329d168,2024-11-14_13h04.27.947,Tarea de género gramatical,2024.2.2,Win32,30.08061605,,,,,,,,,,,,,,,,,,,,,,,206.5894,208.0065,a,1,0.7274,,[],[],[],[],[],[],[],0.7274,1,208.0065,208.4993,,,,,,711,FEM,AGR,150,cueva,la,a,208.4994,208.4996,0.093518519,-0.103703704,0,0,0,,0,22,22,260,1,,,,
,,,,,,96f2b85174718d2e5cf77969,66a626ef09d4e21e1a8894ec,673649ad62b367cb4329d168,2024-11-14_13h04.27.947,Tarea de género gramatical,2024.2.2,Win32,30.08061605,,,,,,,,,,,,,,,,,,,,,,,208.5014,209.6994,a,1,0.4986,,[],[],[],[],[],[],[],0.4986,1,209.6995,210.1888,,,,,,745,FEM,CON,150,grasa,,a,210.189,210.1895,0.093518519,-0.103703704,0,0,0,,0,23,23,294,1,,,,
,,,,,,96f2b85174718d2e5cf77969,66a626ef09d4e21e1a8894ec,673649ad62b367cb4329d168,2024-11-14_13h04.27.947,Tarea de género gramatical,2024.2.2,Win32,30.08061605,,,,,,,,,,,,,,,,,,,,,,,210.1915,211.4786,l,1,0.6017,,[],[],[],[],[],[],[],0.6017,1,211.4787,211.9581,,,,,,713,MAS,DIS,150,carro,la,l,211.9596,211.9606,0.093518519,-0.103703704,0,0,0,,0,24,24,262,1,,,,
,,,,,,96f2b85174718d2e5cf77969,66a626ef09d4e21e1a8894ec,673649ad62b367cb4329d168,2024-11-14_13h04.27.947,Tarea de género gramatical,2024.2.2,Win32,30.08061605,,,,,,,,,,,,,,,,,,,,,,,211.9618,213.2646,l,1,0.6067,,[],[],[],[],[],[],[],0.6067,1,213.2647,213.7555,,,,,,900,MAS,AGR,150,conejo,el,l,213.7556,213.7557,0.093518519,-0.103703704,0,0,0,,0,25,25,449,1,,,,
,,,,,,96f2b85174718d2e5cf77969,66a626ef09d4e21e1a8894ec,673649ad62b367cb4329d168,2024-11-14_13h04.27.947,Tarea de género gramatical,2024.2.2,Win32,30.08061605,,,,,,,,,,,,,,,,,,,,,,,213.7574,214.9454,a,1,0.5111,,[],[],[],[],[],[],[],0.5111,1,214.9456,215.4486,,,,,,657,FEM,AGR,150,playa,la,a,215.4487,215.4489,0.093518519,-0.103703704,0,0,0,,0,26,26,206,1,,,,
,,,,,,96f2b85174718d2e5cf77969,66a626ef09d4e21e1a8894ec,673649ad62b367cb4329d168,2024-11-14_13h04.27.947,Tarea de género gramatical,2024.2.2,Win32,30.08061605,,,,,,,,,,,,,,,,,,,,,,,215.4503,216.5496,l,1,0.4036,,[],[],[],[],[],[],[],0.4036,1,216.5498,217.0389,,,,,,636,MAS,AGR,150,error,el,l,217.039,217.0391,0.093518519,-0.103703704,0,0,0,,0,27,27,185,1,,,,
,,,,,,96f2b85174718d2e5cf77969,66a626ef09d4e21e1a8894ec,673649ad62b367cb4329d168,2024-11-14_13h04.27.947,Tarea de género gramatical,2024.2.2,Win32,30.08061605,,,,,,,,,,,,,,,,,,,,,,,217.0404,218.2078,l,1,0.4966,,[],[],[],[],[],[],[],0.4966,1,218.208,218.7091,,,,,,790,MAS,CON,150,pasado,,l,218.7091,218.7093,0.093518519,-0.103703704,0,0,0,,0,28,28,339,1,,,,
,,,,,,96f2b85174718d2e5cf77969,66a626ef09d4e21e1a8894ec,673649ad62b367cb4329d168,2024-11-14_13h04.27.947,Tarea de género gramatical,2024.2.2,Win32,30.08061605,,,,,,,,,,,,,,,,,,,,,,,218.7112,220.2515,l,1,0.8612,,[],[],[],[],[],[],[],0.8612,1,220.2519,220.7665,,,,,,767,MAS,DIS,150,número,la,l,220.7681,220.7694,0.093518519,-0.103703704,0,0,0,,0,29,29,316,1,,,,
,,,,,,96f2b85174718d2e5cf77969,66a626ef09d4e21e1a8894ec,673649ad62b367cb4329d168,2024-11-14_13h04.27.947,Tarea de género gramatical,2024.2.2,Win32,30.08061605,,,,,,,,,,,,,,,,,,,,,,,220.7707,221.8973,l,1,0.4406,,[],[],[],[],[],[],[],0.4406,1,221.8975,222.4001,,,,,,894,MAS,AGR,150,límite,el,l,222.4001,222.4003,0.093518519,-0.103703704,0,0,0,,0,30,30,443,1,,,,
,,,,,,96f2b85174718d2e5cf77969,66a626ef09d4e21e1a8894ec,673649ad62b367cb4329d168,2024-11-14_13h04.27.947,Tarea de género gramatical,2024.2.2,Win32,30.08061605,,,,,,,,,,,,,,,,,,,,,,,222.4021,223.4551,l,1,0.3535,,[],[],[],[],[],[],[],0.3535,1,223.4553,223.9441,,,,,,628,MAS,CON,150,punto,,l,223.9442,223.9443,0.093518519,-0.103703704,0,0,0,,0,31,31,177,1,,,,
,,,,,,96f2b85174718d2e5cf77969,66a626ef09d4e21e1a8894ec,673649ad62b367cb4329d168,2024-11-14_13h04.27.947,Tarea de género gramatical,2024.2.2,Win32,30.08061605,,,,,,,,,,,,,,,,,,,,,,,223.9467,225.2056,a,1,0.5709,,[],[],[],[],[],[],[],0.5709,1,225.2057,225.7112,,,,,,626,FEM,DIS,150,línea,el,a,225.7113,225.7115,0.093518519,-0.103703704,0,0,0,,0,32,32,175,1,,,,
,,,,,,96f2b85174718d2e5cf77969,66a626ef09d4e21e1a8894ec,673649ad62b367cb4329d168,2024-11-14_13h04.27.947,Tarea de género gramatical,2024.2.2,Win32,30.08061605,,,,,,,,,,,,,,,,,,,,,,,225.7138,226.9316,a,1,0.537,,[],[],[],[],[],[],[],0.537,1,226.9317,227.4317,,,,,,613,FEM,CON,150,calle,,a,227.4333,227.4344,0.093518519,-0.103703704,0,0,0,,0,33,33,162,1,,,,
,,,,,,96f2b85174718d2e5cf77969,66a626ef09d4e21e1a8894ec,673649ad62b367cb4329d168,2024-11-14_13h04.27.947,Tarea de género gramatical,2024.2.2,Win32,30.08061605,,,,,,,,,,,,,,,,,,,,,,,227.4355,228.6626,a,1,0.5378,,[],[],[],[],[],[],[],0.5378,1,228.6627,229.1528,,,,,,763,FEM,CON,150,ciudad,,a,229.1529,229.1531,0.093518519,-0.103703704,0,0,0,,0,34,34,312,1,,,,
,,,,,,96f2b85174718d2e5cf77969,66a626ef09d4e21e1a8894ec,673649ad62b367cb4329d168,2024-11-14_13h04.27.947,Tarea de género gramatical,2024.2.2,Win32,30.08061605,,,,,,,,,,,,,,,,,,,,,,,229.1551,230.3001,l,1,0.4652,,[],[],[],[],[],[],[],0.4652,1,230.3003,230.7811,,,,,,666,MAS,AGR,150,éxito,el,l,230.7812,230.7814,0.093518519,-0.103703704,0,0,0,,0,35,35,215,1,,,,
,,,,,,96f2b85174718d2e5cf77969,66a626ef09d4e21e1a8894ec,673649ad62b367cb4329d168,2024-11-14_13h04.27.947,Tarea de género gramatical,2024.2.2,Win32,30.08061605,,,,,,,,,,,,,,,,,,,,,,,230.7835,231.9269,a,1,0.4608,,[],[],[],[],[],[],[],0.4608,1,231.927,232.411,,,,,,529,FEM,CON,150,mina,,a,232.4111,232.4113,0.093518519,-0.103703704,0,0,0,,0,36,36,78,1,,,,
,,,,,,96f2b85174718d2e5cf77969,66a626ef09d4e21e1a8894ec,673649ad62b367cb4329d168,2024-11-14_13h04.27.947,Tarea de género gramatical,2024.2.2,Win32,30.08061605,,,,,,,,,,,,,,,,,,,,,,,232.4129,233.5179,a,1,0.4179,,[],[],[],[],[],[],[],0.4179,1,233.5181,233.9988,,,,,,603,FEM,AGR,150,mujer,la,a,233.9988,233.999,0.093518519,-0.103703704,0,0,0,,0,37,37,152,1,,,,
,,,,,,96f2b85174718d2e5cf77969,66a626ef09d4e21e1a8894ec,673649ad62b367cb4329d168,2024-11-14_13h04.27.947,Tarea de género gramatical,2024.2.2,Win32,30.08061605,,,,,,,,,,,,,,,,,,,,,,,234.0003,235.6266,a,1,0.9479,,[],[],[],[],[],[],[],0.9479,1,235.6267,236.129,,,,,,566,FEM,DIS,150,nube,el,a,236.1306,236.1319,0.093518519,-0.103703704,0,0,0,,0,38,38,115,1,,,,
,,,,,,96f2b85174718d2e5cf77969,66a626ef09d4e21e1a8894ec,673649ad62b367cb4329d168,2024-11-14_13h04.27.947,Tarea de género gramatical,2024.2.2,Win32,30.08061605,,,,,,,,,,,,,,,,,,,,,,,236.1328,237.3565,l,1,0.546,,[],[],[],[],[],[],[],0.546,1,237.3567,237.8467,,,,,,797,MAS,DIS,150,cuello,la,l,237.8468,237.8472,0.093518519,-0.103703704,0,0,0,,0,39,39,346,1,,,,
,,,,,,96f2b85174718d2e5cf77969,66a626ef09d4e21e1a8894ec,673649ad62b367cb4329d168,2024-11-14_13h04.27.947,Tarea de género gramatical,2024.2.2,Win32,30.08061605,,,,,,,,,,,,,,,,,,,,,,,237.8488,239.0012,l,1,0.4612,,[],[],[],[],[],[],[],0.4612,1,239.0013,239.4961,,,,,,840,MAS,AGR,150,rostro,el,l,239.4962,239.4964,0.093518519,-0.103703704,0,0,0,,0,40,40,389,1,,,,
,,,,,,96f2b85174718d2e5cf77969,66a626ef09d4e21e1a8894ec,673649ad62b367cb4329d168,2024-11-14_13h04.27.947,Tarea de género gramatical,2024.2.2,Win32,30.08061605,,,,,,,,,,,,,,,,,,,,,,,239.498,240.7138,l,1,0.5323,,[],[],[],[],[],[],[],0.5323,1,240.714,241.2001,,,,,,892,MAS,CON,150,cuadro,,l,241.2002,241.2003,0.093518519,-0.103703704,0,0,0,,0,41,41,441,1,,,,
,,,,,,96f2b85174718d2e5cf77969,66a626ef09d4e21e1a8894ec,673649ad62b367cb4329d168,2024-11-14_13h04.27.947,Tarea de género gramatical,2024.2.2,Win32,30.08061605,,,,,,,,,,,,,,,,,,,,,,,241.2022,242.3587,a,1,0.4775,,[],[],[],[],[],[],[],0.4775,1,242.3588,242.8422,,,,,,483,FEM,AGR,150,boda,la,a,242.844,242.8451,0.093518519,-0.103703704,0,0,0,,0,42,42,32,1,,,,
,,,,,,96f2b85174718d2e5cf77969,66a626ef09d4e21e1a8894ec,673649ad62b367cb4329d168,2024-11-14_13h04.27.947,Tarea de género gramatical,2024.2.2,Win32,30.08061605,,,,,,,,,,,,,,,,,,,,,,,242.8461,244.0925,l,1,0.5627,,[],[],[],[],[],[],[],0.5627,1,244.0926,244.5943,,,,,,688,MAS,CON,150,norte,,l,244.5944,244.5946,0.093518519,-0.103703704,0,0,0,,0,43,43,237,1,,,,
,,,,,,96f2b85174718d2e5cf77969,66a626ef09d4e21e1a8894ec,673649ad62b367cb4329d168,2024-11-14_13h04.27.947,Tarea de género gramatical,2024.2.2,Win32,30.08061605,,,,,,,,,,,,,,,,,,,,,,,244.5969,245.9909,l,1,0.7046,,[],[],[],[],[],[],[],0.7046,1,245.9911,246.4841,,,,,,611,MAS,DIS,150,chico,la,l,246.4842,246.4846,0.093518519,-0.103703704,0,0,0,,0,44,44,160,1,,,,
,,,,,,96f2b85174718d2e5cf77969,66a626ef09d4e21e1a8894ec,673649ad62b367cb4329d168,2024-11-14_13h04.27.947,Tarea de género gramatical,2024.2.2,Win32,30.08061605,,,,,,,,,,,,,,,,,,,,,,,246.4875,247.6642,l,1,0.4973,,[],[],[],[],[],[],[],0.4973,1,247.6643,248.157,,,,,,478,MAS,CON,150,club,,l,248.1572,248.1574,0.093518519,-0.103703704,0,0,0,,0,45,45,27,1,,,,
,,,,,,96f2b85174718d2e5cf77969,66a626ef09d4e21e1a8894ec,673649ad62b367cb4329d168,2024-11-14_13h04.27.947,Tarea de género gramatical,2024.2.2,Win32,30.08061605,,,,,,,,,,,,,,,,,,,,,,,248.1596,249.7886,l,1,0.9429,,[],[],[],[],[],[],[],0.9429,1,249.7887,250.2789,,,,,,702,MAS,AGR,150,viejo,el,l,250.2791,250.2794,0.093518519,-0.103703704,0,0,0,,0,46,46,251,1,,,,
,,,,,,96f2b85174718d2e5cf77969,66a626ef09d4e21e1a8894ec,673649ad62b367cb4329d168,2024-11-14_13h04.27.947,Tarea de género gramatical,2024.2.2,Win32,30.08061605,,,,,,,,,,,,,,,,,,,,,,,250.2818,251.4547,l,1,0.5005,,[],[],[],[],[],[],[],0.5005,1,251.4549,251.9468,,,,,,479,MAS,DIS,150,frío,la,l,251.9484,251.9496,0.093518519,-0.103703704,0,0,0,,0,47,47,28,1,,,,
,,,,,,96f2b85174718d2e5cf77969,66a626ef09d4e21e1a8894ec,673649ad62b367cb4329d168,2024-11-14_13h04.27.947,Tarea de género gramatical,2024.2.2,Win32,30.08061605,,,,,,,,,,,,,,,,,,,,,,,251.9508,253.4416,l,1,0.7899,,[],[],[],[],[],[],[],0.7899,1,253.4417,253.9475,,,,,,881,MAS,DIS,150,veneno,la,l,253.9476,253.9478,0.093518519,-0.103703704,0,0,0,,0,48,48,430,1,,,,
,,,,,,96f2b85174718d2e5cf77969,66a626ef09d4e21e1a8894ec,673649ad62b367cb4329d168,2024-11-14_13h04.27.947,Tarea de género gramatical,2024.2.2,Win32,30.08061605,,,,,,,,,,,,,,,,,,,,,,,253.9493,255.226,a,1,0.5876,,[],[],[],[],[],[],[],0.5876,1,255.2262,255.7302,,,,,,859,FEM,CON,150,moneda,,a,255.7302,255.7304,0.093518519,-0.103703704,0,0,0,,0,49,49,408,1,,,,
,,,,,,96f2b85174718d2e5cf77969,66a626ef09d4e21e1a8894ec,673649ad62b367cb4329d168,2024-11-14_13h04.27.947,Tarea de género gramatical,2024.2.2,Win32,30.08061605,,,,,,,,,,,,,,,,,,,,,,,255.732,256.908,l,1,0.4962,,[],[],[],[],[],[],[],0.4962,1,256.9082,257.3956,,,,,,834,MAS,AGR,150,pedazo,el,l,257.3958,257.3961,0.093518519,-0.103703704,0,0,0,,0,50,50,383,1,,,,
,,,,,,96f2b85174718d2e5cf77969,66a626ef09d4e21e1a8894ec,673649ad62b367cb4329d168,2024-11-14_13h04.27.947,Tarea de género gramatical,2024.2.2,Win32,30.08061605,,,,,,,,,,,,,,,,,,,,,,,257.398,258.7024,l,1,0.607,,[],[],[],[],[],[],[],0.607,1,258.7025,259.2149,,,,,,563,MAS,DIS,150,toro,la,l,259.2166,259.218,0.093518519,-0.103703704,0,0,0,,0,51,51,112,1,,,,
,,,,,,96f2b85174718d2e5cf77969,66a626ef09d4e21e1a8894ec,673649ad62b367cb4329d168,2024-11-14_13h04.27.947,Tarea de género gramatical,2024.2.2,Win32,30.08061605,,,,,,,,,,,,,,,,,,,,,,,259.2196,260.482,l,1,0.5761,,[],[],[],[],[],[],[],0.5761,1,260.482,260.9636,,,,,,510,MAS,AGR,150,tono,el,l,260.9638,260.9641,0.093518519,-0.103703704,0,0,0,,0,52,52,59,1,,,,
,,,,,,96f2b85174718d2e5cf77969,66a626ef09d4e21e1a8894ec,673649ad62b367cb4329d168,2024-11-14_13h04.27.947,Tarea de género gramatical,2024.2.2,Win32,30.08061605,,,,,,,,,,,,,,,,,,,,,,,260.9661,262.2472,l,1,0.5777,,[],[],[],[],[],[],[],0.5777,1,262.2473,262.7392,,,,,,617,MAS,DIS,150,juego,la,l,262.7394,262.7396,0.093518519,-0.103703704,0,0,0,,0,53,53,166,1,,,,
,,,,,,96f2b85174718d2e5cf77969,66a626ef09d4e21e1a8894ec,673649ad62b367cb4329d168,2024-11-14_13h04.27.947,Tarea de género gramatical,2024.2.2,Win32,30.08061605,,,,,,,,,,,,,,,,,,,,,,,262.7412,264.0715,a,1,0.6419,,[],[],[],[],[],[],[],0.6419,1,264.0717,264.5695,,,,,,519,FEM,AGR,150,rata,la,a,264.5696,264.5698,0.093518519,-0.103703704,0,0,0,,0,54,54,68,1,,,,
,,,,,,96f2b85174718d2e5cf77969,66a626ef09d4e21e1a8894ec,673649ad62b367cb4329d168,2024-11-14_13h04.27.947,Tarea de género gramatical,2024.2.2,Win32,30.08061605,,,,,,,,,,,,,,,,,,,,,,,264.5721,265.7478,l,1,0.4886,,[],[],[],[],[],[],[],0.4886,1,265.748,266.2525,,,,,,754,MAS,CON,150,tiempo,,l,266.2526,266.2529,0.093518519,-0.103703704,0,0,0,,0,55,55,303,1,,,,
,,,,,,96f2b85174718d2e5cf77969,66a626ef09d4e21e1a8894ec,673649ad62b367cb4329d168,2024-11-14_13h04.27.947,Tarea de género gramatical,2024.2.2,Win32,30.08061605,,,,,,,,,,,,,,,,,,,,,,,266.2552,267.4615,l,1,0.5324,,[],[],[],[],[],[],[],0.5324,1,267.4617,267.9603,,,,,,743,MAS,DIS,150,patio,la,l,267.9618,267.9629,0.093518519,-0.103703704,0,0,0,,0,56,56,292,1,,,,
,,,,,,96f2b85174718d2e5cf77969,66a626ef09d4e21e1a8894ec,673649ad62b367cb4329d168,2024-11-14_13h04.27.947,Tarea de género gramatical,2024.2.2,Win32,30.08061605,,,,,,,,,,,,,,,,,,,,,,,267.9641,269.3737,a,1,0.7155,,[],[],[],[],[],[],[],0.7155,1,269.3738,269.8624,,,,,,819,FEM,AGR,150,camisa,la,a,269.8625,269.8626,0.093518519,-0.103703704,0,0,0,,0,57,57,368,1,,,,
,,,,,,96f2b85174718d2e5cf77969,66a626ef09d4e21e1a8894ec,673649ad62b367cb4329d168,2024-11-14_13h04.27.947,Tarea de género gramatical,2024.2.2,Win32,30.08061605,,,,,,,,,,,,,,,,,,,,,,,269.8643,271.2197,l,1,0.6618,,[],[],[],[],[],[],[],0.6618,1,271.2199,271.703,,,,,,647,MAS,DIS,150,avión,la,l,271.7031,271.7033,0.093518519,-0.103703704,0,0,0,,0,58,58,196,1,,,,
,,,,,,96f2b85174718d2e5cf77969,66a626ef09d4e21e1a8894ec,673649ad62b367cb4329d168,2024-11-14_13h04.27.947,Tarea de género gramatical,2024.2.2,Win32,30.08061605,,,,,,,,,,,,,,,,,,,,,,,271.7052,273.1443,l,1,0.753,,[],[],[],[],[],[],[],0.753,1,273.1445,273.6469,,,,,,540,MAS,AGR,150,león,el,l,273.647,273.6471,0.093518519,-0.103703704,0,0,0,,0,59,59,89,1,,,,
,,,,,,96f2b85174718d2e5cf77969,66a626ef09d4e21e1a8894ec,673649ad62b367cb4329d168,2024-11-14_13h04.27.947,Tarea de género gramatical,2024.2.2,Win32,30.08061605,,,,,,,,,,,,,,,,,,,,,,,273.6486,275.2834,a,1,0.9475,,[],[],[],[],[],[],[],0.9475,1,275.2835,275.7717,,,,,,735,FEM,AGR,150,mafia,la,a,275.7734,275.7747,0.093518519,-0.103703704,0,0,0,,0,60,60,284,1,,,,
,,,,,,96f2b85174718d2e5cf77969,66a626ef09d4e21e1a8894ec,673649ad62b367cb4329d168,2024-11-14_13h04.27.947,Tarea de género gramatical,2024.2.2,Win32,30.08061605,,,,,,,,,,,,,,,,,,,,,,,275.7757,276.9539,l,1,0.4911,,[],[],[],[],[],[],[],0.4911,1,276.9541,277.4518,,,,,,857,MAS,DIS,150,jurado,la,l,277.4519,277.4522,0.093518519,-0.103703704,0,0,0,,0,61,61,406,1,,,,
,,,,,,96f2b85174718d2e5cf77969,66a626ef09d4e21e1a8894ec,673649ad62b367cb4329d168,2024-11-14_13h04.27.947,Tarea de género gramatical,2024.2.2,Win32,30.08061605,,,,,,,,,,,,,,,,,,,,,,,277.4545,278.6245,a,1,0.4917,,[],[],[],[],[],[],[],0.4917,1,278.6247,279.1287,,,,,,559,FEM,CON,150,gota,,a,279.1288,279.129,0.093518519,-0.103703704,0,0,0,,0,62,62,108,1,,,,
,,,,,,96f2b85174718d2e5cf77969,66a626ef09d4e21e1a8894ec,673649ad62b367cb4329d168,2024-11-14_13h04.27.947,Tarea de género gramatical,2024.2.2,Win32,30.08061605,,,,,,,,,,,,,,,,,,,,,,,279.1307,280.4713,l,1,0.6611,,[],[],[],[],[],[],[],0.6611,1,280.4714,280.945,,,,,,468,MAS,AGR,150,tren,el,l,280.9452,280.9455,0.093518519,-0.103703704,0,0,0,,0,63,63,17,1,,,,
,,,,,,96f2b85174718d2e5cf77969,66a626ef09d4e21e1a8894ec,673649ad62b367cb4329d168,2024-11-14_13h04.27.947,Tarea de género gramatical,2024.2.2,Win32,30.08061605,,,,,,,,,,,,,,,,,,,,,,,280.9475,282.5063,a,1,0.8728,,[],[],[],[],[],[],[],0.8728,1,282.5065,283.0037,,,,,,746,FEM,DIS,150,feria,el,a,283.0037,283.0039,0.093518519,-0.103703704,0,0,0,,0,64,64,295,1,,,,
,,,,,,96f2b85174718d2e5cf77969,66a626ef09d4e21e1a8894ec,673649ad62b367cb4329d168,2024-11-14_13h04.27.947,Tarea de género gramatical,2024.2.2,Win32,30.08061605,,,,,,,,,,,,,,,,,,,,,,,283.0063,284.1178,l,1,0.4294,,[],[],[],[],[],[],[],0.4294,1,284.118,284.5919,,,,,,520,MAS,CON,150,palo,,l,284.5942,284.5962,0.093518519,-0.103703704,0,0,0,,0,65,65,69,1,,,,
,,,,,,96f2b85174718d2e5cf77969,66a626ef09d4e21e1a8894ec,673649ad62b367cb4329d168,2024-11-14_13h04.27.947,Tarea de género gramatical,2024.2.2,Win32,30.08061605,,,,,,,,,,,,,,,,,,,,,,,284.5979,285.8141,l,1,0.5191,,[],[],[],[],[],[],[],0.5191,1,285.8143,286.295,,,,,,652,MAS,CON,150,honor,,l,286.2951,286.2953,0.093518519,-0.103703704,0,0,0,,0,66,66,201,1,,,,
,,,,,,96f2b85174718d2e5cf77969,66a626ef09d4e21e1a8894ec,673649ad62b367cb4329d168,2024-11-14_13h04.27.947,Tarea de género gramatical,2024.2.2,Win32,30.08061605,,,,,,,,,,,,,,,,,,,,,,,286.2976,287.4754,l,1,0.4864,,[],[],[],[],[],[],[],0.4864,1,287.4756,287.9674,,,,,,604,MAS,CON,150,padre,,l,287.9675,287.9679,0.093518519,-0.103703704,0,0,0,,0,67,67,153,1,,,,
,,,,,,96f2b85174718d2e5cf77969,66a626ef09d4e21e1a8894ec,673649ad62b367cb4329d168,2024-11-14_13h04.27.947,Tarea de género gramatical,2024.2.2,Win32,30.08061605,,,,,,,,,,,,,,,,,,,,,,,287.9702,289.1124,a,1,0.4589,,[],[],[],[],[],[],[],0.4589,1,289.1124,289.6162,,,,,,897,FEM,AGR,150,lógica,la,a,289.6165,289.6168,0.093518519,-0.103703704,0,0,0,,0,68,68,446,1,,,,
,,,,,,96f2b85174718d2e5cf77969,66a626ef09d4e21e1a8894ec,673649ad62b367cb4329d168,2024-11-14_13h04.27.947,Tarea de género gramatical,2024.2.2,Win32,30.08061605,,,,,,,,,,,,,,,,,,,,,,,289.6187,290.8362,a,1,0.5384,,[],[],[],[],[],[],[],0.5384,1,290.8363,291.3187,,,,,,590,FEM,DIS,150,mula,el,a,291.3202,291.3214,0.093518519,-0.103703704,0,0,0,,0,69,69,139,1,,,,
,,,,,,96f2b85174718d2e5cf77969,66a626ef09d4e21e1a8894ec,673649ad62b367cb4329d168,2024-11-14_13h04.27.947,Tarea de género gramatical,2024.2.2,Win32,30.08061605,,,,,,,,,,,,,,,,,,,,,,,291.3228,292.5333,l,1,0.5287,,[],[],[],[],[],[],[],0.5287,1,292.5334,293.0132,,,,,,581,MAS,DIS,150,kilo,la,l,293.0133,293.0135,0.093518519,-0.103703704,0,0,0,,0,70,70,130,1,,,,
,,,,,,96f2b85174718d2e5cf77969,66a626ef09d4e21e1a8894ec,673649ad62b367cb4329d168,2024-11-14_13h04.27.947,Tarea de género gramatical,2024.2.2,Win32,30.08061605,,,,,,,,,,,,,,,,,,,,,,,293.0151,294.2073,a,1,0.4992,,[],[],[],[],[],[],[],0.4992,1,294.2074,294.7025,,,,,,523,FEM,CON,150,roca,,a,294.7026,294.7029,0.093518519,-0.103703704,0,0,0,,0,71,71,72,1,,,,
,,,,,,96f2b85174718d2e5cf77969,66a626ef09d4e21e1a8894ec,673649ad62b367cb4329d168,2024-11-14_13h04.27.947,Tarea de género gramatical,2024.2.2,Win32,30.08061605,,,,,,,,,,,,,,,,,,,,,,,294.7042,296.2503,a,1,0.8731,,[],[],[],[],[],[],[],0.8731,1,296.2504,296.7498,,,,,,883,FEM,CON,150,huella,,a,296.7499,296.7502,0.093518519,-0.103703704,0,0,0,,0,72,72,432,1,,,,
,,,,,,96f2b85174718d2e5cf77969,66a626ef09d4e21e1a8894ec,673649ad62b367cb4329d168,2024-11-14_13h04.27.947,Tarea de género gramatical,2024.2.2,Win32,30.08061605,,,,,,,,,,,,,,,,,,,,,,,296.7516,297.7718,l,1,0.3405,,[],[],[],[],[],[],[],0.3405,1,297.7719,298.263,,,,,,640,MAS,CON,150,campo,,l,298.263,298.2632,0.093518519,-0.103703704,0,0,0,,0,73,73,189,1,,,,
,,,,,,96f2b85174718d2e5cf77969,66a626ef09d4e21e1a8894ec,673649ad62b367cb4329d168,2024-11-14_13h04.27.947,Tarea de género gramatical,2024.2.2,Win32,30.08061605,,,,,,,,,,,,,,,,,,,,,,,298.2647,299.3994,a,1,0.441,,[],[],[],[],[],[],[],0.441,1,299.3995,299.8918,,,,,,535,FEM,CON,150,gira,,a,299.8934,299.8947,0.093518519,-0.103703704,0,0,0,,0,74,74,84,1,,,,
,,,,,,96f2b85174718d2e5cf77969,66a626ef09d4e21e1a8894ec,673649ad62b367cb4329d168,2024-11-14_13h04.27.947,Tarea de género gramatical,2024.2.2,Win32,30.08061605,,,,,,,,,,,,,,,,,,,,,,,299.8958,301.1346,l,1,0.5582,,[],[],[],[],[],[],[],0.5582,1,301.1348,301.6189,,,,,,598,MAS,CON,150,surf,,l,301.6191,301.6194,0.093518519,-0.103703704,0,0,0,,0,75,75,147,1,,,,
,,,,,,96f2b85174718d2e5cf77969,66a626ef09d4e21e1a8894ec,673649ad62b367cb4329d168,2024-11-14_13h04.27.947,Tarea de género gramatical,2024.2.2,Win32,30.08061605,,,,,,,,,,,,,,,,,,,,,,,301.6211,302.7716,a,0,0.4591,,[],[],[],[],[],[],[],0.4591,0,302.7735,303.2667,,,,,,876,MAS,AGR,150,pánico,el,l,303.2667,303.267,0.093518519,-0.103703704,0,0,0,,0,76,76,425,1,,,,
,,,,,,96f2b85174718d2e5cf77969,66a626ef09d4e21e1a8894ec,673649ad62b367cb4329d168,2024-11-14_13h04.27.947,Tarea de género gramatical,2024.2.2,Win32,30.08061605,,,,,,,,,,,,,,,,,,,,,,,303.2691,304.5471,a,1,0.5991,,[],[],[],[],[],[],[],0.5991,1,304.5484,305.053,,,,,,799,FEM,CON,150,prensa,,a,305.0531,305.0535,0.093518519,-0.103703704,0,0,0,,0,77,77,348,1,,,,
,,,,,,96f2b85174718d2e5cf77969,66a626ef09d4e21e1a8894ec,673649ad62b367cb4329d168,2024-11-14_13h04.27.947,Tarea de género gramatical,2024.2.2,Win32,30.08061605,,,,,,,,,,,,,,,,,,,,,,,305.0555,306.362,l,1,0.6186,,[],[],[],[],[],[],[],0.6186,1,306.3621,306.864,,,,,,821,MAS,DIS,150,sonido,la,l,306.8654,306.8665,0.093518519,-0.103703704,0,0,0,,0,78,78,370,1,,,,
,,,,,,96f2b85174718d2e5cf77969,66a626ef09d4e21e1a8894ec,673649ad62b367cb4329d168,2024-11-14_13h04.27.947,Tarea de género gramatical,2024.2.2,Win32,30.08061605,,,,,,,,,,,,,,,,,,,,,,,306.8675,308.1539,a,1,0.6085,,[],[],[],[],[],[],[],0.6085,1,308.1543,308.646,,,,,,800,FEM,DIS,150,imagen,el,a,308.646,308.6463,0.093518519,-0.103703704,0,0,0,,0,79,79,349,1,,,,
,,,,,,96f2b85174718d2e5cf77969,66a626ef09d4e21e1a8894ec,673649ad62b367cb4329d168,2024-11-14_13h04.27.947,Tarea de género gramatical,2024.2.2,Win32,30.08061605,,,,,,,,,,,,,,,,,,,,,,,308.6484,309.8847,a,1,0.5651,,[],[],[],[],[],[],[],0.5651,1,309.8848,310.3808,,,,,,871,FEM,CON,150,novela,,a,310.3809,310.3812,0.093518519,-0.103703704,0,0,0,,0,80,80,420,1,,,,
,,,,,,96f2b85174718d2e5cf77969,66a626ef09d4e21e1a8894ec,673649ad62b367cb4329d168,2024-11-14_13h04.27.947,Tarea de género gramatical,2024.2.2,Win32,30.08061605,,,,,,,,,,,,,,,,,,,,,,,310.3831,311.5236,l,1,0.438,,[],[],[],[],[],[],[],0.438,1,311.5237,312.0133,,,,,,546,MAS,AGR,150,pato,el,l,312.0135,312.0138,0.093518519,-0.103703704,0,0,0,,0,81,81,95,1,,,,
,,,,,,96f2b85174718d2e5cf77969,66a626ef09d4e21e1a8894ec,673649ad62b367cb4329d168,2024-11-14_13h04.27.947,Tarea de género gramatical,2024.2.2,Win32,30.08061605,,,,,,,,,,,,,,,,,,,,,,,312.0163,313.399,a,1,0.694,,[],[],[],[],[],[],[],0.694,1,313.3991,313.893,,,,,,788,FEM,DIS,150,abuela,el,a,313.8931,313.8933,0.093518519,-0.103703704,0,0,0,,0,82,82,337,1,,,,
,,,,,,96f2b85174718d2e5cf77969,66a626ef09d4e21e1a8894ec,673649ad62b367cb4329d168,2024-11-14_13h04.27.947,Tarea de género gramatical,2024.2.2,Win32,30.08061605,,,,,,,,,,,,,,,,,,,,,,,313.8955,315.1551,a,1,0.5631,,[],[],[],[],[],[],[],0.5631,1,315.1553,315.6565,,,,,,817,FEM,CON,150,teoría,,a,315.6582,315.6594,0.093518519,-0.103703704,0,0,0,,0,83,83,366,1,,,,
,,,,,,96f2b85174718d2e5cf77969,66a626ef09d4e21e1a8894ec,673649ad62b367cb4329d168,2024-11-14_13h04.27.947,Tarea de género gramatical,2024.2.2,Win32,30.08061605,,,,,,,,,,,,,,,,,,,,,,,315.6605,316.8292,a,1,0.4974,,[],[],[],[],[],[],[],0.4974,1,316.8294,317.3272,,,,,,512,FEM,DIS,150,sopa,el,a,317.3272,317.3275,0.093518519,-0.103703704,0,0,0,,0,84,84,61,1,,,,
,,,,,,96f2b85174718d2e5cf77969,66a626ef09d4e21e1a8894ec,673649ad62b367cb4329d168,2024-11-14_13h04.27.947,Tarea de género gramatical,2024.2.2,Win32,30.08061605,,,,,,,,,,,,,,,,,,,,,,,317.3298,318.4097,l,1,0.4059,,[],[],[],[],[],[],[],0.4059,1,318.4099,318.9083,,,,,,804,MAS,AGR,150,camión,el,l,318.9084,318.9086,0.093518519,-0.103703704,0,0,0,,0,85,85,353,1,,,,
,,,,,,96f2b85174718d2e5cf77969,66a626ef09d4e21e1a8894ec,673649ad62b367cb4329d168,2024-11-14_13h04.27.947,Tarea de género gramatical,2024.2.2,Win32,30.08061605,,,,,,,,,,,,,,,,,,,,,,,318.9104,320.3017,a,1,0.7035,,[],[],[],[],[],[],[],0.7035,1,320.3018,320.7912,,,,,,548,FEM,DIS,150,fuga,el,a,320.7913,320.7916,0.093518519,-0.103703704,0,0,0,,0,86,86,97,1,,,,
,,,,,,96f2b85174718d2e5cf77969,66a626ef09d4e21e1a8894ec,673649ad62b367cb4329d168,2024-11-14_13h04.27.947,Tarea de género gramatical,2024.2.2,Win32,30.08061605,,,,,,,,,,,,,,,,,,,,,,,320.7931,322.0849,a,1,0.6062,,[],[],[],[],[],[],[],0.6062,1,322.0852,322.5614,,,,,,542,FEM,DIS,150,masa,el,a,322.5627,322.5638,0.093518519,-0.103703704,0,0,0,,0,87,87,91,1,,,,
,,,,,,96f2b85174718d2e5cf77969,66a626ef09d4e21e1a8894ec,673649ad62b367cb4329d168,2024-11-14_13h04.27.947,Tarea de género gramatical,2024.2.2,Win32,30.08061605,,,,,,,,,,,,,,,,,,,,,,,322.565,323.6714,a,1,0.4164,,[],[],[],[],[],[],[],0.4164,1,323.6715,324.1606,,,,,,835,FEM,CON,150,muñeca,,a,324.1607,324.1608,0.093518519,-0.103703704,0,0,0,,0,88,88,384,1,,,,
,,,,,,96f2b85174718d2e5cf77969,66a626ef09d4e21e1a8894ec,673649ad62b367cb4329d168,2024-11-14_13h04.27.947,Tarea de género gramatical,2024.2.2,Win32,30.08061605,,,,,,,,,,,,,,,,,,,,,,,324.1625,325.2918,l,1,0.4374,,[],[],[],[],[],[],[],0.4374,1,325.2919,325.7895,,,,,,660,MAS,AGR,150,baile,el,l,325.7896,325.7901,0.093518519,-0.103703704,0,0,0,,0,89,89,209,1,,,,
,,,,,,96f2b85174718d2e5cf77969,66a626ef09d4e21e1a8894ec,673649ad62b367cb4329d168,2024-11-14_13h04.27.947,Tarea de género gramatical,2024.2.2,Win32,30.08061605,,,,,,,,,,,,,,,,,,,,,,,325.7921,327.2503,l,1,0.7844,,[],[],[],[],[],[],[],0.7844,1,327.2503,327.7511,,,,,,773,MAS,DIS,150,marido,la,l,327.7513,327.7516,0.093518519,-0.103703704,0,0,0,,0,90,90,322,1,,,,
,,,,,,96f2b85174718d2e5cf77969,66a626ef09d4e21e1a8894ec,673649ad62b367cb4329d168,2024-11-14_13h04.27.947,Tarea de género gramatical,2024.2.2,Win32,30.08061605,,,,,,,,,,,,,,,,,,,,,,,327.7537,328.9132,l,1,0.4656,,[],[],[],[],[],[],[],0.4656,1,328.9133,329.4094,,,,,,780,MAS,AGR,150,estado,el,l,329.4094,329.4097,0.093518519,-0.103703704,0,0,0,,0,91,91,329,1,,,,
,,,,,,96f2b85174718d2e5cf77969,66a626ef09d4e21e1a8894ec,673649ad62b367cb4329d168,2024-11-14_13h04.27.947,Tarea de género gramatical,2024.2.2,Win32,30.08061605,,,,,,,,,,,,,,,,,,,,,,,329.4113,330.9895,a,1,0.9035,,[],[],[],[],[],[],[],0.9035,1,330.9898,331.4878,,,,,,879,FEM,AGR,150,fianza,la,a,331.4894,331.4907,0.093518519,-0.103703704,0,0,0,,0,92,92,428,1,,,,
,,,,,,96f2b85174718d2e5cf77969,66a626ef09d4e21e1a8894ec,673649ad62b367cb4329d168,2024-11-14_13h04.27.947,Tarea de género gramatical,2024.2.2,Win32,30.08061605,,,,,,,,,,,,,,,,,,,,,,,331.4922,332.6374,a,1,0.465,,[],[],[],[],[],[],[],0.465,1,332.6375,333.1206,,,,,,729,FEM,AGR,150,selva,la,a,333.1207,333.1208,0.093518519,-0.103703704,0,0,0,,0,93,93,278,1,,,,
,,,,,,96f2b85174718d2e5cf77969,66a626ef09d4e21e1a8894ec,673649ad62b367cb4329d168,2024-11-14_13h04.27.947,Tarea de género gramatical,2024.2.2,Win32,30.08061605,,,,,,,,,,,,,,,,,,,,,,,333.1223,334.4461,l,1,0.6458,,[],[],[],[],[],[],[],0.6458,1,334.4462,334.9544,,,,,,551,MAS,DIS,150,giro,la,l,334.9545,334.9547,0.093518519,-0.103703704,0,0,0,,0,94,94,100,1,,,,
,,,,,,96f2b85174718d2e5cf77969,66a626ef09d4e21e1a8894ec,673649ad62b367cb4329d168,2024-11-14_13h04.27.947,Tarea de género gramatical,2024.2.2,Win32,30.08061605,,,,,,,,,,,,,,,,,,,,,,,334.9561,336.1993,a,1,0.5307,,[],[],[],[],[],[],[],0.5307,1,336.1995,336.6902,,,,,,663,FEM,AGR,150,magia,la,a,336.6902,336.6904,0.093518519,-0.103703704,0,0,0,,0,95,95,212,1,,,,
,,,,,,96f2b85174718d2e5cf77969,66a626ef09d4e21e1a8894ec,673649ad62b367cb4329d168,2024-11-14_13h04.27.947,Tarea de género gramatical,2024.2.2,Win32,30.08061605,,,,,,,,,,,,,,,,,,,,,,,336.6921,338.0148,l,0,0.6479,,[],[],[],[],[],[],[],0.6479,0,338.0163,338.5355,,,,,,705,FEM,AGR,150,tribu,la,a,338.5371,338.5384,0.093518519,-0.103703704,0,0,0,,0,96,96,254,1,,,,
,,,,,,96f2b85174718d2e5cf77969,66a626ef09d4e21e1a8894ec,673649ad62b367cb4329d168,2024-11-14_13h04.27.947,Tarea de género gramatical,2024.2.2,Win32,30.08061605,,,,,,,,,,,,,,,,,,,,,,,338.5394,340.0515,l,1,0.8122,,[],[],[],[],[],[],[],0.8122,1,340.054,340.5662,,,,,,527,MAS,DIS,150,pico,la,l,340.5663,340.5664,0.093518519,-0.103703704,0,0,0,,0,97,97,76,1,,,,
,,,,,,96f2b85174718d2e5cf77969,66a626ef09d4e21e1a8894ec,673649ad62b367cb4329d168,2024-11-14_13h04.27.947,Tarea de género gramatical,2024.2.2,Win32,30.08061605,,,,,,,,,,,,,,,,,,,,,,,340.5686,341.7006,l,1,0.4503,,[],[],[],[],[],[],[],0.4503,1,341.7008,342.192,,,,,,492,MAS,AGR,150,show,el,l,342.1921,342.1923,0.093518519,-0.103703704,0,0,0,,0,98,98,41,1,,,,
,,,,,,96f2b85174718d2e5cf77969,66a626ef09d4e21e1a8894ec,673649ad62b367cb4329d168,2024-11-14_13h04.27.947,Tarea de género gramatical,2024.2.2,Win32,30.08061605,,,,,,,,,,,,,,,,,,,,,,,342.1938,343.6108,a,1,0.7159,,[],[],[],[],[],[],[],0.7159,1,343.6109,344.1023,,,,,,452,FEM,DIS,150,vida,el,a,344.1023,344.1025,0.093518519,-0.103703704,0,0,0,,0,99,99,1,1,,,,
,,,,,,96f2b85174718d2e5cf77969,66a626ef09d4e21e1a8894ec,673649ad62b367cb4329d168,2024-11-14_13h04.27.947,Tarea de género gramatical,2024.2.2,Win32,30.08061605,,,,,,,,,,,,,,,,,,,,,,,344.1036,345.4088,l,1,0.626,,[],[],[],[],[],[],[],0.626,1,345.4089,345.9096,,,,,,827,MAS,DIS,150,jardín,la,l,345.9096,345.9098,0.093518519,-0.103703704,0,0,0,,0,100,100,376,1,,,,
,,,,,,96f2b85174718d2e5cf77969,66a626ef09d4e21e1a8894ec,673649ad62b367cb4329d168,2024-11-14_13h04.27.947,Tarea de género gramatical,2024.2.2,Win32,30.08061605,,,,,,,,,,,,,,,,,,,,,,,345.9115,347.0358,a,1,0.4531,,[],[],[],[],[],[],[],0.4531,1,347.0359,347.5404,,,,,,873,FEM,AGR,150,poesía,la,a,347.542,347.5431,0.093518519,-0.103703704,0,0,0,,0,101,101,422,1,,,,
,,,,,,96f2b85174718d2e5cf77969,66a626ef09d4e21e1a8894ec,673649ad62b367cb4329d168,2024-11-14_13h04.27.947,Tarea de género gramatical,2024.2.2,Win32,30.08061605,,,,,,,,,,,,,,,,,,,,,,,347.5442,349.0278,a,1,0.8027,,[],[],[],[],[],[],[],0.8027,1,349.0279,349.5302,,,,,,698,FEM,DIS,150,letra,el,a,349.5302,349.5304,0.093518519,-0.103703704,0,0,0,,0,102,102,247,1,,,,
,,,,,,96f2b85174718d2e5cf77969,66a626ef09d4e21e1a8894ec,673649ad62b367cb4329d168,2024-11-14_13h04.27.947,Tarea de género gramatical,2024.2.2,Win32,30.08061605,,,,,,,,,,,,,,,,,,,,,,,349.5319,351.0431,a,1,0.8295,,[],[],[],[],[],[],[],0.8295,1,351.0432,351.5328,,,,,,716,FEM,DIS,150,jaula,el,a,351.5329,351.5331,0.093518519,-0.103703704,0,0,0,,0,103,103,265,1,,,,
,,,,,,96f2b85174718d2e5cf77969,66a626ef09d4e21e1a8894ec,673649ad62b367cb4329d168,2024-11-14_13h04.27.947,Tarea de género gramatical,2024.2.2,Win32,30.08061605,,,,,,,,,,,,,,,,,,,,,,,351.5342,352.6456,l,1,0.4126,,[],[],[],[],[],[],[],0.4126,1,352.6458,353.1617,,,,,,700,MAS,CON,150,cerdo,,l,353.1618,353.1619,0.093518519,-0.103703704,0,0,0,,0,104,104,249,1,,,,
,,,,,,96f2b85174718d2e5cf77969,66a626ef09d4e21e1a8894ec,673649ad62b367cb4329d168,2024-11-14_13h04.27.947,Tarea de género gramatical,2024.2.2,Win32,30.08061605,,,,,,,,,,,,,,,,,,,,,,,353.1632,354.3646,l,1,0.5151,,[],[],[],[],[],[],[],0.5151,1,354.3647,354.8804,,,,,,820,MAS,CON,150,seguro,,l,354.8826,354.8844,0.093518519,-0.103703704,0,0,0,,0,105,105,369,1,,,,
,,,,,,96f2b85174718d2e5cf77969,66a626ef09d4e21e1a8894ec,673649ad62b367cb4329d168,2024-11-14_13h04.27.947,Tarea de género gramatical,2024.2.2,Win32,30.08061605,,,,,,,,,,,,,,,,,,,,,,,354.8861,357.5335,,0,,,[],[],[],[],[],[],[],0.5151,-1,357.5456,358.0329,,,,,,845,MAS,DIS,150,correo,la,l,358.033,358.0332,0.093518519,-0.103703704,0,0,0,,0,106,106,394,1,,,,
,,,,,,96f2b85174718d2e5cf77969,66a626ef09d4e21e1a8894ec,673649ad62b367cb4329d168,2024-11-14_13h04.27.947,Tarea de género gramatical,2024.2.2,Win32,30.08061605,,,,,,,,,,,,,,,,,,,,,,,358.0347,359.456,a,1,0.7366,,[],[],[],[],[],[],[],0.7366,1,359.4572,359.9457,,,,,,651,FEM,AGR,150,leche,la,a,359.9458,359.9461,0.093518519,-0.103703704,0,0,0,,0,107,107,200,1,,,,
,,,,,,96f2b85174718d2e5cf77969,66a626ef09d4e21e1a8894ec,673649ad62b367cb4329d168,2024-11-14_13h04.27.947,Tarea de género gramatical,2024.2.2,Win32,30.08061605,,,,,,,,,,,,,,,,,,,,,,,359.9473,361.1592,l,1,0.547,,[],[],[],[],[],[],[],0.547,1,361.1593,361.6395,,,,,,706,MAS,CON,150,techo,,l,361.6396,361.6398,0.093518519,-0.103703704,0,0,0,,0,108,108,255,1,,,,
,,,,,,96f2b85174718d2e5cf77969,66a626ef09d4e21e1a8894ec,673649ad62b367cb4329d168,2024-11-14_13h04.27.947,Tarea de género gramatical,2024.2.2,Win32,30.08061605,,,,,,,,,,,,,,,,,,,,,,,361.641,362.8217,a,1,0.4963,,[],[],[],[],[],[],[],0.4963,1,362.8218,363.3219,,,,,,530,FEM,DIS,150,vaca,el,a,363.3221,363.3222,0.093518519,-0.103703704,0,0,0,,0,109,109,79,1,,,,
,,,,,,96f2b85174718d2e5cf77969,66a626ef09d4e21e1a8894ec,673649ad62b367cb4329d168,2024-11-14_13h04.27.947,Tarea de género gramatical,2024.2.2,Win32,30.08061605,,,,,,,,,,,,,,,,,,,,,,,363.3237,364.594,l,1,0.5941,,[],[],[],[],[],[],[],0.5941,1,364.594,365.0917,,,,,,826,MAS,CON,150,efecto,,l,365.0934,365.0949,0.093518519,-0.103703704,0,0,0,,0,110,110,375,1,,,,
,,,,,,96f2b85174718d2e5cf77969,66a626ef09d4e21e1a8894ec,673649ad62b367cb4329d168,2024-11-14_13h04.27.947,Tarea de género gramatical,2024.2.2,Win32,30.08061605,,,,,,,,,,,,,,,,,,,,,,,365.0967,366.2312,l,1,0.4492,,[],[],[],[],[],[],[],0.4492,1,366.2314,366.735,,,,,,850,MAS,CON,150,barrio,,l,366.7351,366.7352,0.093518519,-0.103703704,0,0,0,,0,111,111,399,1,,,,
,,,,,,96f2b85174718d2e5cf77969,66a626ef09d4e21e1a8894ec,673649ad62b367cb4329d168,2024-11-14_13h04.27.947,Tarea de género gramatical,2024.2.2,Win32,30.08061605,,,,,,,,,,,,,,,,,,,,,,,366.7368,367.8581,l,1,0.4472,,[],[],[],[],[],[],[],0.4472,1,367.8581,368.3409,,,,,,712,MAS,CON,150,video,,l,368.341,368.3412,0.093518519,-0.103703704,0,0,0,,0,112,112,261,1,,,,
,,,,,,96f2b85174718d2e5cf77969,66a626ef09d4e21e1a8894ec,673649ad62b367cb4329d168,2024-11-14_13h04.27.947,Tarea de género gramatical,2024.2.2,Win32,30.08061605,,,,,,,,,,,,,,,,,,,,,,,368.3425,369.5571,a,1,0.5341,,[],[],[],[],[],[],[],0.5341,1,369.5572,370.0649,,,,,,500,FEM,DIS,150,dama,el,a,370.0649,370.0651,0.093518519,-0.103703704,0,0,0,,0,113,113,49,1,,,,
,,,,,,96f2b85174718d2e5cf77969,66a626ef09d4e21e1a8894ec,673649ad62b367cb4329d168,2024-11-14_13h04.27.947,Tarea de género gramatical,2024.2.2,Win32,30.08061605,,,,,,,,,,,,,,,,,,,,,,,370.0668,371.1489,l,1,0.4104,,[],[],[],[],[],[],[],0.4104,1,371.149,371.6574,,,,,,514,MAS,CON,150,saco,,l,371.6586,371.6596,0.093518519,-0.103703704,0,0,0,,0,114,114,63,1,,,,
,,,,,,96f2b85174718d2e5cf77969,66a626ef09d4e21e1a8894ec,673649ad62b367cb4329d168,2024-11-14_13h04.27.947,Tarea de género gramatical,2024.2.2,Win32,30.08061605,,,,,,,,,,,,,,,,,,,,,,,371.6605,372.804,a,1,0.4715,,[],[],[],[],[],[],[],0.4715,1,372.8041,373.2923,,,,,,890,FEM,DIS,150,patada,el,a,373.2923,373.2925,0.093518519,-0.103703704,0,0,0,,0,115,115,439,1,,,,
,,,,,,96f2b85174718d2e5cf77969,66a626ef09d4e21e1a8894ec,673649ad62b367cb4329d168,2024-11-14_13h04.27.947,Tarea de género gramatical,2024.2.2,Win32,30.08061605,,,,,,,,,,,,,,,,,,,,,,,373.2939,374.5599,a,1,0.5799,,[],[],[],[],[],[],[],0.5799,1,374.5601,375.0383,,,,,,517,FEM,CON,150,miel,,a,375.0384,375.0385,0.093518519,-0.103703704,0,0,0,,0,116,116,66,1,,,,
,,,,,,96f2b85174718d2e5cf77969,66a626ef09d4e21e1a8894ec,673649ad62b367cb4329d168,2024-11-14_13h04.27.947,Tarea de género gramatical,2024.2.2,Win32,30.08061605,,,,,,,,,,,,,,,,,,,,,,,375.04,376.1411,a,1,0.4296,,[],[],[],[],[],[],[],0.4296,1,376.1412,376.6059,,,,,,541,FEM,CON,150,hoja,,a,376.606,376.6062,0.093518519,-0.103703704,0,0,0,,0,117,117,90,1,,,,
,,,,,,96f2b85174718d2e5cf77969,66a626ef09d4e21e1a8894ec,673649ad62b367cb4329d168,2024-11-14_13h04.27.947,Tarea de género gramatical,2024.2.2,Win32,30.08061605,,,,,,,,,,,,,,,,,,,,,,,376.6086,377.7275,a,1,0.4319,,[],[],[],[],[],[],[],0.4319,1,377.7277,378.2237,,,,,,493,FEM,CON,150,nena,,a,378.2238,378.2241,0.093518519,-0.103703704,0,0,0,,0,118,118,42,1,,,,
,,,,,,96f2b85174718d2e5cf77969,66a626ef09d4e21e1a8894ec,673649ad62b367cb4329d168,2024-11-14_13h04.27.947,Tarea de género gramatical,2024.2.2,Win32,30.08061605,,,,,,,,,,,,,,,,,,,,,,,378.2255,379.4659,a,1,0.5585,,[],[],[],[],[],[],[],0.5585,1,379.466,379.9456,,,,,,824,FEM,DIS,150,herida,el,a,379.947,379.948,0.093518519,-0.103703704,0,0,0,,0,119,119,373,1,,,,
,,,,,,96f2b85174718d2e5cf77969,66a626ef09d4e21e1a8894ec,673649ad62b367cb4329d168,2024-11-14_13h04.27.947,Tarea de género gramatical,2024.2.2,Win32,30.08061605,,,,,,,,,,,,,,,,,,,,,,,379.9489,381.436,a,1,0.8112,,[],[],[],[],[],[],[],0.8112,1,381.4362,381.9364,,,,,,476,FEM,DIS,150,pena,el,a,381.9366,381.9369,0.093518519,-0.103703704,0,0,0,,0,120,120,25,1,,,,
,,,,,,96f2b85174718d2e5cf77969,66a626ef09d4e21e1a8894ec,673649ad62b367cb4329d168,2024-11-14_13h04.27.947,Tarea de género gramatical,2024.2.2,Win32,30.08061605,,,,,,,,,,,,,,,,,,,,,,,381.9385,383.1636,l,1,0.5439,,[],[],[],[],[],[],[],0.5439,1,383.1636,383.6521,,,,,,665,MAS,DIS,150,hueso,la,l,383.6522,383.6524,0.093518519,-0.103703704,0,0,0,,0,121,121,214,1,,,,
,,,,,,96f2b85174718d2e5cf77969,66a626ef09d4e21e1a8894ec,673649ad62b367cb4329d168,2024-11-14_13h04.27.947,Tarea de género gramatical,2024.2.2,Win32,30.08061605,,,,,,,,,,,,,,,,,,,,,,,383.6539,384.7589,a,1,0.4098,,[],[],[],[],[],[],[],0.4098,1,384.759,385.2547,,,,,,747,FEM,AGR,150,manta,la,a,385.2547,385.2548,0.093518519,-0.103703704,0,0,0,,0,122,122,296,1,,,,
,,,,,,96f2b85174718d2e5cf77969,66a626ef09d4e21e1a8894ec,673649ad62b367cb4329d168,2024-11-14_13h04.27.947,Tarea de género gramatical,2024.2.2,Win32,30.08061605,,,,,,,,,,,,,,,,,,,,,,,385.2565,386.4128,a,1,0.4879,,[],[],[],[],[],[],[],0.4879,1,386.4129,386.9155,,,,,,620,FEM,DIS,150,carta,el,a,386.918,386.9198,0.093518519,-0.103703704,0,0,0,,0,123,123,169,1,,,,
,,,,,,96f2b85174718d2e5cf77969,66a626ef09d4e21e1a8894ec,673649ad62b367cb4329d168,2024-11-14_13h04.27.947,Tarea de género gramatical,2024.2.2,Win32,30.08061605,,,,,,,,,,,,,,,,,,,,,,,386.9218,388.0051,l,1,0.3839,,[],[],[],[],[],[],[],0.3839,1,388.0053,388.5039,,,,,,864,MAS,AGR,150,sótano,el,l,388.5039,388.504,0.093518519,-0.103703704,0,0,0,,0,124,124,413,1,,,,
,,,,,,96f2b85174718d2e5cf77969,66a626ef09d4e21e1a8894ec,673649ad62b367cb4329d168,2024-11-14_13h04.27.947,Tarea de género gramatical,2024.2.2,Win32,30.08061605,,,,,,,,,,,,,,,,,,,,,,,388.5056,389.7583,l,1,0.5808,,[],[],[],[],[],[],[],0.5808,1,389.7585,390.2497,,,,,,724,MAS,CON,150,motor,,l,390.2497,390.2499,0.093518519,-0.103703704,0,0,0,,0,125,125,273,1,,,,
,,,,,,96f2b85174718d2e5cf77969,66a626ef09d4e21e1a8894ec,673649ad62b367cb4329d168,2024-11-14_13h04.27.947,Tarea de género gramatical,2024.2.2,Win32,30.08061605,,,,,,,,,,,,,,,,,,,,,,,390.2516,391.3456,l,1,0.4149,,[],[],[],[],[],[],[],0.4149,1,391.3458,391.8324,,,,,,772,MAS,CON,150,minuto,,l,391.8325,391.8327,0.093518519,-0.103703704,0,0,0,,0,126,126,321,1,,,,
,,,,,,96f2b85174718d2e5cf77969,66a626ef09d4e21e1a8894ec,673649ad62b367cb4329d168,2024-11-14_13h04.27.947,Tarea de género gramatical,2024.2.2,Win32,30.08061605,,,,,,,,,,,,,,,,,,,,,,,391.8349,393.0951,l,1,0.5796,,[],[],[],[],[],[],[],0.5796,1,393.0952,393.5885,,,,,,461,MAS,DIS,150,país,la,l,393.5887,393.5889,0.093518519,-0.103703704,0,0,0,,0,127,127,10,1,,,,
,,,,,,96f2b85174718d2e5cf77969,66a626ef09d4e21e1a8894ec,673649ad62b367cb4329d168,2024-11-14_13h04.27.947,Tarea de género gramatical,2024.2.2,Win32,30.08061605,,,,,,,,,,,,,,,,,,,,,,,393.5904,394.8408,a,1,0.5735,,[],[],[],[],[],[],[],0.5735,1,394.8409,395.3342,,,,,,565,FEM,CON,150,seda,,a,395.3357,395.3369,0.093518519,-0.103703704,0,0,0,,0,128,128,114,1,,,,
,,,,,,96f2b85174718d2e5cf77969,66a626ef09d4e21e1a8894ec,673649ad62b367cb4329d168,2024-11-14_13h04.27.947,Tarea de género gramatical,2024.2.2,Win32,30.08061605,,,,,,,,,,,,,,,,,,,,,,,395.3379,396.3947,a,1,0.3848,,[],[],[],[],[],[],[],0.3848,1,396.3948,396.8937,,,,,,673,FEM,CON,150,plata,,a,396.8937,396.8939,0.093518519,-0.103703704,0,0,0,,0,129,129,222,1,,,,
,,,,,,96f2b85174718d2e5cf77969,66a626ef09d4e21e1a8894ec,673649ad62b367cb4329d168,2024-11-14_13h04.27.947,Tarea de género gramatical,2024.2.2,Win32,30.08061605,,,,,,,,,,,,,,,,,,,,,,,396.8952,397.9398,l,1,0.3394,,[],[],[],[],[],[],[],0.3394,1,397.9402,398.4424,,,,,,730,MAS,CON,150,salón,,l,398.4427,398.443,0.093518519,-0.103703704,0,0,0,,0,130,130,279,1,,,,
,,,,,,96f2b85174718d2e5cf77969,66a626ef09d4e21e1a8894ec,673649ad62b367cb4329d168,2024-11-14_13h04.27.947,Tarea de género gramatical,2024.2.2,Win32,30.08061605,,,,,,,,,,,,,,,,,,,,,,,398.4459,399.9193,a,1,0.7968,,[],[],[],[],[],[],[],0.7968,1,399.9194,400.4177,,,,,,511,FEM,CON,150,ruta,,a,400.4178,400.4179,0.093518519,-0.103703704,0,0,0,,0,131,131,60,1,,,,
,,,,,,96f2b85174718d2e5cf77969,66a626ef09d4e21e1a8894ec,673649ad62b367cb4329d168,2024-11-14_13h04.27.947,Tarea de género gramatical,2024.2.2,Win32,30.08061605,,,,,,,,,,,,,,,,,,,,,,,400.4193,401.5698,l,1,0.4523,,[],[],[],[],[],[],[],0.4523,1,401.5699,402.0653,,,,,,600,MAS,AGR,150,mozo,el,l,402.0671,402.0681,0.093518519,-0.103703704,0,0,0,,0,132,132,149,1,,,,
,,,,,,96f2b85174718d2e5cf77969,66a626ef09d4e21e1a8894ec,673649ad62b367cb4329d168,2024-11-14_13h04.27.947,Tarea de género gramatical,2024.2.2,Win32,30.08061605,,,,,,,,,,,,,,,,,,,,,,,402.0691,403.3111,l,1,0.5622,,[],[],[],[],[],[],[],0.5622,1,403.3112,403.8079,,,,,,786,MAS,AGR,150,crimen,el,l,403.808,403.8082,0.093518519,-0.103703704,0,0,0,,0,133,133,335,1,,,,
,,,,,,96f2b85174718d2e5cf77969,66a626ef09d4e21e1a8894ec,673649ad62b367cb4329d168,2024-11-14_13h04.27.947,Tarea de género gramatical,2024.2.2,Win32,30.08061605,,,,,,,,,,,,,,,,,,,,,,,403.8099,404.9314,a,1,0.4296,,[],[],[],[],[],[],[],0.4296,1,404.9316,405.4541,,,,,,715,FEM,CON,150,rueda,,a,405.4541,405.4544,0.093518519,-0.103703704,0,0,0,,0,134,134,264,1,,,,
,,,,,,96f2b85174718d2e5cf77969,66a626ef09d4e21e1a8894ec,673649ad62b367cb4329d168,2024-11-14_13h04.27.947,Tarea de género gramatical,2024.2.2,Win32,30.08061605,,,,,,,,,,,,,,,,,,,,,,,405.4559,406.5829,a,1,0.4456,,[],[],[],[],[],[],[],0.4456,1,406.583,407.0779,,,,,,841,FEM,CON,150,altura,,a,407.078,407.0781,0.093518519,-0.103703704,0,0,0,,0,135,135,390,1,,,,
,,,,,,96f2b85174718d2e5cf77969,66a626ef09d4e21e1a8894ec,673649ad62b367cb4329d168,2024-11-14_13h04.27.947,Tarea de género gramatical,2024.2.2,Win32,30.08061605,,,,,,,,,,,,,,,,,,,,,,,407.0796,408.0974,l,0,0.3286,,[],[],[],[],[],[],[],0.3286,0,408.0984,408.5966,,,,,,878,FEM,DIS,150,jugada,el,a,408.5967,408.5968,0.093518519,-0.103703704,0,0,0,,0,136,136,427,1,,,,
,,,,,,96f2b85174718d2e5cf77969,66a626ef09d4e21e1a8894ec,673649ad62b367cb4329d168,2024-11-14_13h04.27.947,Tarea de género gramatical,2024.2.2,Win32,30.08061605,,,,,,,,,,,,,,,,,,,,,,,408.5983,409.8256,a,1,0.5513,,[],[],[],[],[],[],[],0.5513,1,409.8269,410.3403,,,,,,543,FEM,AGR,150,lata,la,a,410.3418,410.3431,0.093518519,-0.103703704,0,0,0,,0,137,137,92,1,,,,
,,,,,,96f2b85174718d2e5cf77969,66a626ef09d4e21e1a8894ec,673649ad62b367cb4329d168,2024-11-14_13h04.27.947,Tarea de género gramatical,2024.2.2,Win32,30.08061605,,,,,,,,,,,,,,,,,,,,,,,410.344,411.5562,a,1,0.5264,,[],[],[],[],[],[],[],0.5264,1,411.5563,412.0564,,,,,,722,FEM,DIS,150,oreja,el,a,412.0564,412.0568,0.093518519,-0.103703704,0,0,0,,0,138,138,271,1,,,,
,,,,,,96f2b85174718d2e5cf77969,66a626ef09d4e21e1a8894ec,673649ad62b367cb4329d168,2024-11-14_13h04.27.947,Tarea de género gramatical,2024.2.2,Win32,30.08061605,,,,,,,,,,,,,,,,,,,,,,,412.0597,413.2998,l,1,0.5608,,[],[],[],[],[],[],[],0.5608,1,413.2998,413.8174,,,,,,678,MAS,AGR,150,nivel,el,l,413.8175,413.8178,0.093518519,-0.103703704,0,0,0,,0,139,139,227,1,,,,
,,,,,,96f2b85174718d2e5cf77969,66a626ef09d4e21e1a8894ec,673649ad62b367cb4329d168,2024-11-14_13h04.27.947,Tarea de género gramatical,2024.2.2,Win32,30.08061605,,,,,,,,,,,,,,,,,,,,,,,413.8199,415.4271,l,1,0.9235,,[],[],[],[],[],[],[],0.9235,1,415.4271,415.9253,,,,,,868,MAS,CON,150,pájaro,,l,415.9253,415.9256,0.093518519,-0.103703704,0,0,0,,0,140,140,417,1,,,,
,,,,,,96f2b85174718d2e5cf77969,66a626ef09d4e21e1a8894ec,673649ad62b367cb4329d168,2024-11-14_13h04.27.947,Tarea de género gramatical,2024.2.2,Win32,30.08061605,,,,,,,,,,,,,,,,,,,,,,,415.9274,417.1184,a,1,0.5225,,[],[],[],[],[],[],[],0.5225,1,417.1186,417.6213,,,,,,717,FEM,AGR,150,barba,la,a,417.6228,417.6242,0.093518519,-0.103703704,0,0,0,,0,141,141,266,1,,,,
,,,,,,96f2b85174718d2e5cf77969,66a626ef09d4e21e1a8894ec,673649ad62b367cb4329d168,2024-11-14_13h04.27.947,Tarea de género gramatical,2024.2.2,Win32,30.08061605,,,,,,,,,,,,,,,,,,,,,,,417.6254,418.7449,a,1,0.4446,,[],[],[],[],[],[],[],0.4446,1,418.745,419.2335,,,,,,459,FEM,AGR,150,mamá,la,a,419.2336,419.2338,0.093518519,-0.103703704,0,0,0,,0,142,142,8,1,,,,
,,,,,,96f2b85174718d2e5cf77969,66a626ef09d4e21e1a8894ec,673649ad62b367cb4329d168,2024-11-14_13h04.27.947,Tarea de género gramatical,2024.2.2,Win32,30.08061605,,,,,,,,,,,,,,,,,,,,,,,419.2351,420.3644,l,1,0.4341,,[],[],[],[],[],[],[],0.4341,1,420.3645,420.8627,,,,,,898,MAS,CON,150,aceite,,l,420.8628,420.8631,0.093518519,-0.103703704,0,0,0,,0,143,143,447,1,,,,
,,,,,,96f2b85174718d2e5cf77969,66a626ef09d4e21e1a8894ec,673649ad62b367cb4329d168,2024-11-14_13h04.27.947,Tarea de género gramatical,2024.2.2,Win32,30.08061605,,,,,,,,,,,,,,,,,,,,,,,420.8644,422.1923,l,0,0.6272,,[],[],[],[],[],[],[],0.6272,0,422.194,422.6896,,,,,,602,FEM,DIS,150,gente,el,a,422.6896,422.69,0.093518519,-0.103703704,0,0,0,,0,144,144,151,1,,,,
,,,,,,96f2b85174718d2e5cf77969,66a626ef09d4e21e1a8894ec,673649ad62b367cb4329d168,2024-11-14_13h04.27.947,Tarea de género gramatical,2024.2.2,Win32,30.08061605,,,,,,,,,,,,,,,,,,,,,,,422.6917,424.4614,l,1,1.1006,,[],[],[],[],[],[],[],1.1006,1,424.463,424.9541,,,,,,707,MAS,DIS,150,pecho,la,l,424.9541,424.9544,0.093518519,-0.103703704,0,0,0,,0,145,145,256,1,,,,
,,,,,,96f2b85174718d2e5cf77969,66a626ef09d4e21e1a8894ec,673649ad62b367cb4329d168,2024-11-14_13h04.27.947,Tarea de género gramatical,2024.2.2,Win32,30.08061605,,,,,,,,,,,,,,,,,,,,,,,424.9565,426.1837,a,1,0.5467,,[],[],[],[],[],[],[],0.5467,1,426.1838,426.6728,,,,,,727,FEM,CON,150,plaza,,a,426.6745,426.6758,0.093518519,-0.103703704,0,0,0,,0,146,146,276,1,,,,
,,,,,,96f2b85174718d2e5cf77969,66a626ef09d4e21e1a8894ec,673649ad62b367cb4329d168,2024-11-14_13h04.27.947,Tarea de género gramatical,2024.2.2,Win32,30.08061605,,,,,,,,,,,,,,,,,,,,,,,426.6769,427.8103,a,1,0.4344,,[],[],[],[],[],[],[],0.4344,1,427.8104,428.3078,,,,,,889,FEM,CON,150,toalla,,a,428.3079,428.308,0.093518519,-0.103703704,0,0,0,,0,147,147,438,1,,,,
,,,,,,96f2b85174718d2e5cf77969,66a626ef09d4e21e1a8894ec,673649ad62b367cb4329d168,2024-11-14_13h04.27.947,Tarea de género gramatical,2024.2.2,Win32,30.08061605,,,,,,,,,,,,,,,,,,,,,,,428.3096,429.4454,l,1,0.4501,,[],[],[],[],[],[],[],0.4501,1,429.4456,429.9405,,,,,,623,MAS,DIS,150,libro,la,l,429.9406,429.9408,0.093518519,-0.103703704,0,0,0,,0,148,148,172,1,,,,
,,,,,,96f2b85174718d2e5cf77969,66a626ef09d4e21e1a8894ec,673649ad62b367cb4329d168,2024-11-14_13h04.27.947,Tarea de género gramatical,2024.2.2,Win32,30.08061605,,,,,,,,,,,,,,,,,,,,,,,429.9429,431.0113,l,1,0.37,,[],[],[],[],[],[],[],0.37,1,431.0115,431.5053,,,,,,521,MAS,DIS,150,pozo,la,l,431.5054,431.5055,0.093518519,-0.103703704,0,0,0,,0,149,149,70,1,,,,
,,,,,,96f2b85174718d2e5cf77969,66a626ef09d4e21e1a8894ec,673649ad62b367cb4329d168,2024-11-14_13h04.27.947,Tarea de género gramatical,2024.2.2,Win32,30.08061605,,,,,,,,,,,,,,,,,,,,,,,431.5071,432.6358,l,1,0.4373,,[],[],[],[],[],[],[],0.4373,1,432.636,433.1279,,,,,,899,MAS,DIS,150,payaso,la,l,433.1305,457.5051,0.093518519,-0.103703704,0,0,0,space,0,150,150,448,1,24.3451,,,
,,,,,,96f2b85174718d2e5cf77969,66a626ef09d4e21e1a8894ec,673649ad62b367cb4329d168,2024-11-14_13h04.27.947,Tarea de género gramatical,2024.2.2,Win32,30.08061605,,,,,,,,,,,,,,,,,,,,,,,457.5227,459.0261,a,1,0.8296,,[],[],[],[],[],[],[],0.8296,1,459.0263,459.5283,,,,,,757,FEM,CON,150,suerte,,a,459.5283,459.5284,0.093518519,-0.103703704,0,0,0,,0,151,151,306,1,,,,
,,,,,,96f2b85174718d2e5cf77969,66a626ef09d4e21e1a8894ec,673649ad62b367cb4329d168,2024-11-14_13h04.27.947,Tarea de género gramatical,2024.2.2,Win32,30.08061605,,,,,,,,,,,,,,,,,,,,,,,459.5308,460.9909,a,1,0.7823,,[],[],[],[],[],[],[],0.7823,1,460.991,461.4728,,,,,,813,FEM,AGR,150,unidad,la,a,461.473,461.4735,0.093518519,-0.103703704,0,0,0,,0,152,152,362,1,,,,
,,,,,,96f2b85174718d2e5cf77969,66a626ef09d4e21e1a8894ec,673649ad62b367cb4329d168,2024-11-14_13h04.27.947,Tarea de género gramatical,2024.2.2,Win32,30.08061605,,,,,,,,,,,,,,,,,,,,,,,461.4753,462.6343,a,1,0.487,,[],[],[],[],[],[],[],0.487,1,462.6345,463.1209,,,,,,847,FEM,CON,150,cuerda,,a,463.121,463.1213,0.093518519,-0.103703704,0,0,0,,0,153,153,396,1,,,,
,,,,,,96f2b85174718d2e5cf77969,66a626ef09d4e21e1a8894ec,673649ad62b367cb4329d168,2024-11-14_13h04.27.947,Tarea de género gramatical,2024.2.2,Win32,30.08061605,,,,,,,,,,,,,,,,,,,,,,,463.1228,464.1824,a,1,0.3759,,[],[],[],[],[],[],[],0.3759,1,464.1826,464.6854,,,,,,741,FEM,AGR,150,aguja,la,a,464.6855,464.6857,0.093518519,-0.103703704,0,0,0,,0,154,154,290,1,,,,
,,,,,,96f2b85174718d2e5cf77969,66a626ef09d4e21e1a8894ec,673649ad62b367cb4329d168,2024-11-14_13h04.27.947,Tarea de género gramatical,2024.2.2,Win32,30.08061605,,,,,,,,,,,,,,,,,,,,,,,464.688,465.8923,l,1,0.5289,,[],[],[],[],[],[],[],0.5289,1,465.8924,466.3827,,,,,,760,MAS,CON,150,nombre,,l,466.3841,466.3854,0.093518519,-0.103703704,0,0,0,,0,155,155,309,1,,,,
,,,,,,96f2b85174718d2e5cf77969,66a626ef09d4e21e1a8894ec,673649ad62b367cb4329d168,2024-11-14_13h04.27.947,Tarea de género gramatical,2024.2.2,Win32,30.08061605,,,,,,,,,,,,,,,,,,,,,,,466.3865,467.5935,l,1,0.5259,,[],[],[],[],[],[],[],0.5259,1,467.5936,468.0855,,,,,,762,MAS,AGR,150,equipo,el,l,468.0855,468.0857,0.093518519,-0.103703704,0,0,0,,0,156,156,311,1,,,,
,,,,,,96f2b85174718d2e5cf77969,66a626ef09d4e21e1a8894ec,673649ad62b367cb4329d168,2024-11-14_13h04.27.947,Tarea de género gramatical,2024.2.2,Win32,30.08061605,,,,,,,,,,,,,,,,,,,,,,,468.0869,469.1567,a,1,0.3778,,[],[],[],[],[],[],[],0.3778,1,469.157,469.6506,,,,,,505,FEM,CON,150,taza,,a,469.6506,469.6509,0.093518519,-0.103703704,0,0,0,,0,157,157,54,1,,,,
,,,,,,96f2b85174718d2e5cf77969,66a626ef09d4e21e1a8894ec,673649ad62b367cb4329d168,2024-11-14_13h04.27.947,Tarea de género gramatical,2024.2.2,Win32,30.08061605,,,,,,,,,,,,,,,,,,,,,,,469.6531,470.7371,l,1,0.3912,,[],[],[],[],[],[],[],0.3912,1,470.7373,471.2351,,,,,,714,MAS,AGR,150,pollo,el,l,471.2353,471.2354,0.093518519,-0.103703704,0,0,0,,0,158,158,263,1,,,,
,,,,,,96f2b85174718d2e5cf77969,66a626ef09d4e21e1a8894ec,673649ad62b367cb4329d168,2024-11-14_13h04.27.947,Tarea de género gramatical,2024.2.2,Win32,30.08061605,,,,,,,,,,,,,,,,,,,,,,,471.2377,472.5447,a,1,0.6314,,[],[],[],[],[],[],[],0.6314,1,472.5448,473.0245,,,,,,601,FEM,CON,150,noche,,a,473.0269,473.0285,0.093518519,-0.103703704,0,0,0,,0,159,159,150,1,,,,
,,,,,,96f2b85174718d2e5cf77969,66a626ef09d4e21e1a8894ec,673649ad62b367cb4329d168,2024-11-14_13h04.27.947,Tarea de género gramatical,2024.2.2,Win32,30.08061605,,,,,,,,,,,,,,,,,,,,,,,473.03,474.3615,l,1,0.6532,,[],[],[],[],[],[],[],0.6532,1,474.3616,474.8547,,,,,,528,MAS,AGR,150,oído,el,l,474.8547,474.8548,0.093518519,-0.103703704,0,0,0,,0,160,160,77,1,,,,
,,,,,,96f2b85174718d2e5cf77969,66a626ef09d4e21e1a8894ec,673649ad62b367cb4329d168,2024-11-14_13h04.27.947,Tarea de género gramatical,2024.2.2,Win32,30.08061605,,,,,,,,,,,,,,,,,,,,,,,474.8563,475.9996,a,1,0.4615,,[],[],[],[],[],[],[],0.4615,1,475.9998,476.5084,,,,,,830,FEM,DIS,150,madera,el,a,476.5085,476.5087,0.093518519,-0.103703704,0,0,0,,0,161,161,379,1,,,,
,,,,,,96f2b85174718d2e5cf77969,66a626ef09d4e21e1a8894ec,673649ad62b367cb4329d168,2024-11-14_13h04.27.947,Tarea de género gramatical,2024.2.2,Win32,30.08061605,,,,,,,,,,,,,,,,,,,,,,,476.5109,477.9296,a,1,0.7322,,[],[],[],[],[],[],[],0.7322,1,477.9296,478.4411,,,,,,513,FEM,AGR,150,fila,la,a,478.4411,478.4414,0.093518519,-0.103703704,0,0,0,,0,162,162,62,1,,,,
,,,,,,96f2b85174718d2e5cf77969,66a626ef09d4e21e1a8894ec,673649ad62b367cb4329d168,2024-11-14_13h04.27.947,Tarea de género gramatical,2024.2.2,Win32,30.08061605,,,,,,,,,,,,,,,,,,,,,,,478.4426,479.722,a,1,0.5927,,[],[],[],[],[],[],[],0.5927,1,479.7222,480.2192,,,,,,751,FEM,CON,150,verdad,,a,480.2194,480.2194,0.093518519,-0.103703704,0,0,0,,0,163,163,300,1,,,,
,,,,,,96f2b85174718d2e5cf77969,66a626ef09d4e21e1a8894ec,673649ad62b367cb4329d168,2024-11-14_13h04.27.947,Tarea de género gramatical,2024.2.2,Win32,30.08061605,,,,,,,,,,,,,,,,,,,,,,,480.2212,481.3378,a,1,0.4384,,[],[],[],[],[],[],[],0.4384,1,481.338,481.8202,,,,,,632,FEM,DIS,150,prisa,el,a,481.8216,481.8229,0.093518519,-0.103703704,0,0,0,,0,164,164,181,1,,,,
,,,,,,96f2b85174718d2e5cf77969,66a626ef09d4e21e1a8894ec,673649ad62b367cb4329d168,2024-11-14_13h04.27.947,Tarea de género gramatical,2024.2.2,Win32,30.08061605,,,,,,,,,,,,,,,,,,,,,,,481.824,482.9792,a,1,0.4685,,[],[],[],[],[],[],[],0.4685,1,482.9794,483.4854,,,,,,583,FEM,CON,150,joya,,a,483.4855,483.4858,0.093518519,-0.103703704,0,0,0,,0,165,165,132,1,,,,
,,,,,,96f2b85174718d2e5cf77969,66a626ef09d4e21e1a8894ec,673649ad62b367cb4329d168,2024-11-14_13h04.27.947,Tarea de género gramatical,2024.2.2,Win32,30.08061605,,,,,,,,,,,,,,,,,,,,,,,483.4879,484.5893,a,1,0.4256,,[],[],[],[],[],[],[],0.4256,1,484.5894,485.0761,,,,,,831,FEM,AGR,150,bebida,la,a,485.0763,485.0765,0.093518519,-0.103703704,0,0,0,,0,166,166,380,1,,,,
,,,,,,96f2b85174718d2e5cf77969,66a626ef09d4e21e1a8894ec,673649ad62b367cb4329d168,2024-11-14_13h04.27.947,Tarea de género gramatical,2024.2.2,Win32,30.08061605,,,,,,,,,,,,,,,,,,,,,,,485.078,486.2255,a,1,0.4665,,[],[],[],[],[],[],[],0.4665,1,486.2256,486.728,,,,,,794,FEM,DIS,150,pareja,el,a,486.7281,486.7283,0.093518519,-0.103703704,0,0,0,,0,167,167,343,1,,,,
,,,,,,96f2b85174718d2e5cf77969,66a626ef09d4e21e1a8894ec,673649ad62b367cb4329d168,2024-11-14_13h04.27.947,Tarea de género gramatical,2024.2.2,Win32,30.08061605,,,,,,,,,,,,,,,,,,,,,,,486.7305,487.8993,a,1,0.4843,,[],[],[],[],[],[],[],0.4843,1,487.8994,488.3959,,,,,,499,FEM,CON,150,piel,,a,488.3973,488.3984,0.093518519,-0.103703704,0,0,0,,0,168,168,48,1,,,,
,,,,,,96f2b85174718d2e5cf77969,66a626ef09d4e21e1a8894ec,673649ad62b367cb4329d168,2024-11-14_13h04.27.947,Tarea de género gramatical,2024.2.2,Win32,30.08061605,,,,,,,,,,,,,,,,,,,,,,,488.3994,489.5147,l,1,0.4365,,[],[],[],[],[],[],[],0.4365,1,489.5148,490.0128,,,,,,870,MAS,AGR,150,helado,el,l,490.0129,490.0131,0.093518519,-0.103703704,0,0,0,,0,169,169,419,1,,,,
,,,,,,96f2b85174718d2e5cf77969,66a626ef09d4e21e1a8894ec,673649ad62b367cb4329d168,2024-11-14_13h04.27.947,Tarea de género gramatical,2024.2.2,Win32,30.08061605,,,,,,,,,,,,,,,,,,,,,,,490.0153,491.0744,l,1,0.3774,,[],[],[],[],[],[],[],0.3774,1,491.0745,491.5586,,,,,,472,MAS,CON,150,pelo,,l,491.5586,491.5589,0.093518519,-0.103703704,0,0,0,,0,170,170,21,1,,,,
,,,,,,96f2b85174718d2e5cf77969,66a626ef09d4e21e1a8894ec,673649ad62b367cb4329d168,2024-11-14_13h04.27.947,Tarea de género gramatical,2024.2.2,Win32,30.08061605,,,,,,,,,,,,,,,,,,,,,,,491.5602,492.6522,l,1,0.4176,,[],[],[],[],[],[],[],0.4176,1,492.6524,493.1485,,,,,,646,MAS,CON,150,barco,,l,493.1486,493.1487,0.093518519,-0.103703704,0,0,0,,0,171,171,195,1,,,,
,,,,,,96f2b85174718d2e5cf77969,66a626ef09d4e21e1a8894ec,673649ad62b367cb4329d168,2024-11-14_13h04.27.947,Tarea de género gramatical,2024.2.2,Win32,30.08061605,,,,,,,,,,,,,,,,,,,,,,,493.1503,494.2703,a,1,0.4414,,[],[],[],[],[],[],[],0.4414,1,494.2704,494.7727,,,,,,668,FEM,DIS,150,nieve,el,a,494.7727,494.7729,0.093518519,-0.103703704,0,0,0,,0,172,172,217,1,,,,
,,,,,,96f2b85174718d2e5cf77969,66a626ef09d4e21e1a8894ec,673649ad62b367cb4329d168,2024-11-14_13h04.27.947,Tarea de género gramatical,2024.2.2,Win32,30.08061605,,,,,,,,,,,,,,,,,,,,,,,494.7743,496.014,l,1,0.5557,,[],[],[],[],[],[],[],0.5557,1,496.0142,496.5219,,,,,,701,MAS,DIS,150,dueño,la,l,496.5232,496.5244,0.093518519,-0.103703704,0,0,0,,0,173,173,250,1,,,,
,,,,,,96f2b85174718d2e5cf77969,66a626ef09d4e21e1a8894ec,673649ad62b367cb4329d168,2024-11-14_13h04.27.947,Tarea de género gramatical,2024.2.2,Win32,30.08061605,,,,,,,,,,,,,,,,,,,,,,,496.5255,497.7448,a,1,0.5312,,[],[],[],[],[],[],[],0.5312,1,497.7449,498.2378,,,,,,734,FEM,DIS,150,fruta,el,a,498.2379,498.238,0.093518519,-0.103703704,0,0,0,,0,174,174,283,1,,,,
,,,,,,96f2b85174718d2e5cf77969,66a626ef09d4e21e1a8894ec,673649ad62b367cb4329d168,2024-11-14_13h04.27.947,Tarea de género gramatical,2024.2.2,Win32,30.08061605,,,,,,,,,,,,,,,,,,,,,,,498.2398,499.3738,a,1,0.4303,,[],[],[],[],[],[],[],0.4303,1,499.3739,499.8673,,,,,,693,FEM,AGR,150,salsa,la,a,499.8674,499.8676,0.093518519,-0.103703704,0,0,0,,0,175,175,242,1,,,,
,,,,,,96f2b85174718d2e5cf77969,66a626ef09d4e21e1a8894ec,673649ad62b367cb4329d168,2024-11-14_13h04.27.947,Tarea de género gramatical,2024.2.2,Win32,30.08061605,,,,,,,,,,,,,,,,,,,,,,,499.869,501.0047,l,1,0.4538,,[],[],[],[],[],[],[],0.4538,1,501.0049,501.4993,,,,,,798,MAS,AGR,150,anillo,el,l,501.4994,501.4995,0.093518519,-0.103703704,0,0,0,,0,176,176,347,1,,,,
,,,,,,96f2b85174718d2e5cf77969,66a626ef09d4e21e1a8894ec,673649ad62b367cb4329d168,2024-11-14_13h04.27.947,Tarea de género gramatical,2024.2.2,Win32,30.08061605,,,,,,,,,,,,,,,,,,,,,,,501.501,502.6245,a,1,0.4494,,[],[],[],[],[],[],[],0.4494,1,502.6245,503.1298,,,,,,518,FEM,DIS,150,pata,el,a,503.1314,503.1328,0.093518519,-0.103703704,0,0,0,,0,177,177,67,1,,,,
,,,,,,96f2b85174718d2e5cf77969,66a626ef09d4e21e1a8894ec,673649ad62b367cb4329d168,2024-11-14_13h04.27.947,Tarea de género gramatical,2024.2.2,Win32,30.08061605,,,,,,,,,,,,,,,,,,,,,,,503.1338,504.1923,l,1,0.3842,,[],[],[],[],[],[],[],0.3842,1,504.1925,504.7044,,,,,,744,MAS,AGR,150,cable,el,l,504.7045,504.7047,0.093518519,-0.103703704,0,0,0,,0,178,178,293,1,,,,
,,,,,,96f2b85174718d2e5cf77969,66a626ef09d4e21e1a8894ec,673649ad62b367cb4329d168,2024-11-14_13h04.27.947,Tarea de género gramatical,2024.2.2,Win32,30.08061605,,,,,,,,,,,,,,,,,,,,,,,504.706,506.3492,l,1,0.9677,,[],[],[],[],[],[],[],0.9677,1,506.3493,506.8506,,,,,,515,MAS,DIS,150,rayo,la,l,506.8508,506.8511,0.093518519,-0.103703704,0,0,0,,0,179,179,64,1,,,,
,,,,,,96f2b85174718d2e5cf77969,66a626ef09d4e21e1a8894ec,673649ad62b367cb4329d168,2024-11-14_13h04.27.947,Tarea de género gramatical,2024.2.2,Win32,30.08061605,,,,,,,,,,,,,,,,,,,,,,,506.853,507.9606,a,0,0.4135,,[],[],[],[],[],[],[],0.4135,0,507.962,508.4633,,,,,,778,MAS,CON,150,asunto,,l,508.4634,508.4638,0.093518519,-0.103703704,0,0,0,,0,180,180,327,1,,,,
,,,,,,96f2b85174718d2e5cf77969,66a626ef09d4e21e1a8894ec,673649ad62b367cb4329d168,2024-11-14_13h04.27.947,Tarea de género gramatical,2024.2.2,Win32,30.08061605,,,,,,,,,,,,,,,,,,,,,,,508.4657,509.875,l,1,0.7203,,[],[],[],[],[],[],[],0.7203,1,509.8764,510.3895,,,,,,822,MAS,AGR,150,delito,el,l,510.3896,510.3899,0.093518519,-0.103703704,0,0,0,,0,181,181,371,1,,,,
,,,,,,96f2b85174718d2e5cf77969,66a626ef09d4e21e1a8894ec,673649ad62b367cb4329d168,2024-11-14_13h04.27.947,Tarea de género gramatical,2024.2.2,Win32,30.08061605,,,,,,,,,,,,,,,,,,,,,,,510.3915,511.547,a,1,0.4713,,[],[],[],[],[],[],[],0.4713,1,511.5471,512.0357,,,,,,555,FEM,AGR,150,jefa,la,a,512.0371,512.0384,0.093518519,-0.103703704,0,0,0,,0,182,182,104,1,,,,
,,,,,,96f2b85174718d2e5cf77969,66a626ef09d4e21e1a8894ec,673649ad62b367cb4329d168,2024-11-14_13h04.27.947,Tarea de género gramatical,2024.2.2,Win32,30.08061605,,,,,,,,,,,,,,,,,,,,,,,512.0396,513.1953,l,1,0.459,,[],[],[],[],[],[],[],0.459,1,513.1955,513.6752,,,,,,695,MAS,DIS,150,turno,la,l,513.6753,513.6755,0.093518519,-0.103703704,0,0,0,,0,183,183,244,1,,,,
,,,,,,96f2b85174718d2e5cf77969,66a626ef09d4e21e1a8894ec,673649ad62b367cb4329d168,2024-11-14_13h04.27.947,Tarea de género gramatical,2024.2.2,Win32,30.08061605,,,,,,,,,,,,,,,,,,,,,,,513.6779,514.7792,l,1,0.4234,,[],[],[],[],[],[],[],0.4234,1,514.7793,515.2779,,,,,,618,MAS,AGR,150,sitio,el,l,515.278,515.2783,0.093518519,-0.103703704,0,0,0,,0,184,184,167,1,,,,
,,,,,,96f2b85174718d2e5cf77969,66a626ef09d4e21e1a8894ec,673649ad62b367cb4329d168,2024-11-14_13h04.27.947,Tarea de género gramatical,2024.2.2,Win32,30.08061605,,,,,,,,,,,,,,,,,,,,,,,515.2796,516.4209,a,1,0.4414,,[],[],[],[],[],[],[],0.4414,1,516.421,516.9265,,,,,,825,FEM,AGR,150,cadena,la,a,516.9266,516.9267,0.093518519,-0.103703704,0,0,0,,0,185,185,374,1,,,,
,,,,,,96f2b85174718d2e5cf77969,66a626ef09d4e21e1a8894ec,673649ad62b367cb4329d168,2024-11-14_13h04.27.947,Tarea de género gramatical,2024.2.2,Win32,30.08061605,,,,,,,,,,,,,,,,,,,,,,,516.9283,518.0295,a,1,0.4094,,[],[],[],[],[],[],[],0.4094,1,518.0297,518.5211,,,,,,758,FEM,DIS,150,semana,el,a,518.523,518.5244,0.093518519,-0.103703704,0,0,0,,0,186,186,307,1,,,,
,,,,,,96f2b85174718d2e5cf77969,66a626ef09d4e21e1a8894ec,673649ad62b367cb4329d168,2024-11-14_13h04.27.947,Tarea de género gramatical,2024.2.2,Win32,30.08061605,,,,,,,,,,,,,,,,,,,,,,,518.5254,519.5515,l,1,0.3372,,[],[],[],[],[],[],[],0.3372,1,519.5517,520.04,,,,,,814,MAS,CON,150,viento,,l,520.0401,520.0403,0.093518519,-0.103703704,0,0,0,,0,187,187,363,1,,,,
,,,,,,96f2b85174718d2e5cf77969,66a626ef09d4e21e1a8894ec,673649ad62b367cb4329d168,2024-11-14_13h04.27.947,Tarea de género gramatical,2024.2.2,Win32,30.08061605,,,,,,,,,,,,,,,,,,,,,,,520.0419,521.2497,a,1,0.5167,,[],[],[],[],[],[],[],0.5167,1,521.2498,521.7426,,,,,,501,FEM,AGR,150,bala,la,a,521.7428,521.743,0.093518519,-0.103703704,0,0,0,,0,188,188,50,1,,,,
,,,,,,96f2b85174718d2e5cf77969,66a626ef09d4e21e1a8894ec,673649ad62b367cb4329d168,2024-11-14_13h04.27.947,Tarea de género gramatical,2024.2.2,Win32,30.08061605,,,,,,,,,,,,,,,,,,,,,,,521.7443,523.0148,l,1,0.5994,,[],[],[],[],[],[],[],0.5994,1,523.015,523.5051,,,,,,588,MAS,AGR,150,luto,el,l,523.5052,523.5053,0.093518519,-0.103703704,0,0,0,,0,189,189,137,1,,,,
,,,,,,96f2b85174718d2e5cf77969,66a626ef09d4e21e1a8894ec,673649ad62b367cb4329d168,2024-11-14_13h04.27.947,Tarea de género gramatical,2024.2.2,Win32,30.08061605,,,,,,,,,,,,,,,,,,,,,,,523.507,524.7056,a,1,0.5012,,[],[],[],[],[],[],[],0.5012,1,524.7057,525.2003,,,,,,619,FEM,CON,150,vista,,a,525.2005,525.2011,0.093518519,-0.103703704,0,0,0,,0,190,190,168,1,,,,
,,,,,,96f2b85174718d2e5cf77969,66a626ef09d4e21e1a8894ec,673649ad62b367cb4329d168,2024-11-14_13h04.27.947,Tarea de género gramatical,2024.2.2,Win32,30.08061605,,,,,,,,,,,,,,,,,,,,,,,525.2035,526.3181,l,1,0.4373,,[],[],[],[],[],[],[],0.4373,1,526.3182,526.8159,,,,,,684,MAS,AGR,150,héroe,el,l,526.8173,526.8185,0.093518519,-0.103703704,0,0,0,,0,191,191,233,1,,,,
,,,,,,96f2b85174718d2e5cf77969,66a626ef09d4e21e1a8894ec,673649ad62b367cb4329d168,2024-11-14_13h04.27.947,Tarea de género gramatical,2024.2.2,Win32,30.08061605,,,,,,,,,,,,,,,,,,,,,,,526.8197,527.9663,a,0,0.4626,,[],[],[],[],[],[],[],0.4626,0,527.9682,528.4557,,,,,,467,MAS,DIS,150,modo,la,l,528.4557,528.4558,0.093518519,-0.103703704,0,0,0,,0,192,192,16,1,,,,
,,,,,,96f2b85174718d2e5cf77969,66a626ef09d4e21e1a8894ec,673649ad62b367cb4329d168,2024-11-14_13h04.27.947,Tarea de género gramatical,2024.2.2,Win32,30.08061605,,,,,,,,,,,,,,,,,,,,,,,528.4576,530.1233,a,1,0.9908,,[],[],[],[],[],[],[],0.9908,1,530.1251,530.6107,,,,,,465,FEM,AGR,150,cama,la,a,530.6107,530.611,0.093518519,-0.103703704,0,0,0,,0,193,193,14,1,,,,
,,,,,,96f2b85174718d2e5cf77969,66a626ef09d4e21e1a8894ec,673649ad62b367cb4329d168,2024-11-14_13h04.27.947,Tarea de género gramatical,2024.2.2,Win32,30.08061605,,,,,,,,,,,,,,,,,,,,,,,530.6128,531.8572,l,0,0.5545,,[],[],[],[],[],[],[],0.5545,0,531.8593,532.3499,,,,,,829,FEM,CON,150,granja,,a,532.35,532.3502,0.093518519,-0.103703704,0,0,0,,0,194,194,378,1,,,,
,,,,,,96f2b85174718d2e5cf77969,66a626ef09d4e21e1a8894ec,673649ad62b367cb4329d168,2024-11-14_13h04.27.947,Tarea de género gramatical,2024.2.2,Win32,30.08061605,,,,,,,,,,,,,,,,,,,,,,,532.3526,533.6926,a,1,0.6672,,[],[],[],[],[],[],[],0.6672,1,533.694,534.1777,,,,,,848,FEM,DIS,150,hierba,el,a,534.1791,534.1801,0.093518519,-0.103703704,0,0,0,,0,195,195,397,1,,,,
,,,,,,96f2b85174718d2e5cf77969,66a626ef09d4e21e1a8894ec,673649ad62b367cb4329d168,2024-11-14_13h04.27.947,Tarea de género gramatical,2024.2.2,Win32,30.08061605,,,,,,,,,,,,,,,,,,,,,,,534.1811,535.3551,l,1,0.4896,,[],[],[],[],[],[],[],0.4896,1,535.3552,535.8307,,,,,,852,MAS,AGR,150,ladrón,el,l,535.8307,535.8309,0.093518519,-0.103703704,0,0,0,,0,196,196,401,1,,,,
,,,,,,96f2b85174718d2e5cf77969,66a626ef09d4e21e1a8894ec,673649ad62b367cb4329d168,2024-11-14_13h04.27.947,Tarea de género gramatical,2024.2.2,Win32,30.08061605,,,,,,,,,,,,,,,,,,,,,,,535.8324,537.0141,l,1,0.506,,[],[],[],[],[],[],[],0.506,1,537.0144,537.5192,,,,,,791,MAS,DIS,150,precio,la,l,537.5192,537.5195,0.093518519,-0.103703704,0,0,0,,0,197,197,340,1,,,,
,,,,,,96f2b85174718d2e5cf77969,66a626ef09d4e21e1a8894ec,673649ad62b367cb4329d168,2024-11-14_13h04.27.947,Tarea de género gramatical,2024.2.2,Win32,30.08061605,,,,,,,,,,,,,,,,,,,,,,,537.5219,538.6806,a,1,0.4883,,[],[],[],[],[],[],[],0.4883,1,538.6808,539.1794,,,,,,842,FEM,DIS,150,maleta,el,a,539.1795,539.1797,0.093518519,-0.103703704,0,0,0,,0,198,198,391,1,,,,
,,,,,,96f2b85174718d2e5cf77969,66a626ef09d4e21e1a8894ec,673649ad62b367cb4329d168,2024-11-14_13h04.27.947,Tarea de género gramatical,2024.2.2,Win32,30.08061605,,,,,,,,,,,,,,,,,,,,,,,539.1812,540.3124,l,1,0.4409,,[],[],[],[],[],[],[],0.4409,1,540.3126,540.827,,,,,,484,MAS,CON,150,gato,,l,540.8271,540.8274,0.093518519,-0.103703704,0,0,0,,0,199,199,33,1,,,,
,,,,,,96f2b85174718d2e5cf77969,66a626ef09d4e21e1a8894ec,673649ad62b367cb4329d168,2024-11-14_13h04.27.947,Tarea de género gramatical,2024.2.2,Win32,30.08061605,,,,,,,,,,,,,,,,,,,,,,,540.8297,541.9338,l,1,0.4176,,[],[],[],[],[],[],[],0.4176,1,541.934,542.4559,,,,,,490,MAS,CON,150,dios,,l,542.4584,542.4603,0.093518519,-0.103703704,0,0,0,,0,200,200,39,1,,,,
,,,,,,96f2b85174718d2e5cf77969,66a626ef09d4e21e1a8894ec,673649ad62b367cb4329d168,2024-11-14_13h04.27.947,Tarea de género gramatical,2024.2.2,Win32,30.08061605,,,,,,,,,,,,,,,,,,,,,,,542.4619,543.7055,a,1,0.5509,,[],[],[],[],[],[],[],0.5509,1,543.7056,544.2179,,,,,,494,FEM,DIS,150,zona,el,a,544.218,544.2182,0.093518519,-0.103703704,0,0,0,,0,201,201,43,1,,,,
,,,,,,96f2b85174718d2e5cf77969,66a626ef09d4e21e1a8894ec,673649ad62b367cb4329d168,2024-11-14_13h04.27.947,Tarea de género gramatical,2024.2.2,Win32,30.08061605,,,,,,,,,,,,,,,,,,,,,,,544.2208,545.3442,l,1,0.4333,,[],[],[],[],[],[],[],0.4333,1,545.3444,545.8412,,,,,,809,MAS,DIS,150,bosque,la,l,545.8413,545.8416,0.093518519,-0.103703704,0,0,0,,0,202,202,358,1,,,,
,,,,,,96f2b85174718d2e5cf77969,66a626ef09d4e21e1a8894ec,673649ad62b367cb4329d168,2024-11-14_13h04.27.947,Tarea de género gramatical,2024.2.2,Win32,30.08061605,,,,,,,,,,,,,,,,,,,,,,,545.8431,546.9247,l,1,0.3994,,[],[],[],[],[],[],[],0.3994,1,546.9248,547.4329,,,,,,558,MAS,AGR,150,hilo,el,l,547.4329,547.433,0.093518519,-0.103703704,0,0,0,,0,203,203,107,1,,,,
,,,,,,96f2b85174718d2e5cf77969,66a626ef09d4e21e1a8894ec,673649ad62b367cb4329d168,2024-11-14_13h04.27.947,Tarea de género gramatical,2024.2.2,Win32,30.08061605,,,,,,,,,,,,,,,,,,,,,,,547.4349,548.5758,a,1,0.4504,,[],[],[],[],[],[],[],0.4504,1,548.5759,549.064,,,,,,506,FEM,DIS,150,bola,el,a,549.0661,549.0676,0.093518519,-0.103703704,0,0,0,,0,204,204,55,1,,,,
,,,,,,96f2b85174718d2e5cf77969,66a626ef09d4e21e1a8894ec,673649ad62b367cb4329d168,2024-11-14_13h04.27.947,Tarea de género gramatical,2024.2.2,Win32,30.08061605,,,,,,,,,,,,,,,,,,,,,,,549.0689,550.186,l,1,0.4264,,[],[],[],[],[],[],[],0.4264,1,550.1861,550.6917,,,,,,731,MAS,DIS,150,actor,la,l,550.6918,550.6921,0.093518519,-0.103703704,0,0,0,,0,205,205,280,1,,,,
,,,,,,96f2b85174718d2e5cf77969,66a626ef09d4e21e1a8894ec,673649ad62b367cb4329d168,2024-11-14_13h04.27.947,Tarea de género gramatical,2024.2.2,Win32,30.08061605,,,,,,,,,,,,,,,,,,,,,,,550.6943,551.7625,l,1,0.386,,[],[],[],[],[],[],[],0.386,1,551.7626,552.2645,,,,,,802,MAS,CON,150,estilo,,l,552.2645,552.2648,0.093518519,-0.103703704,0,0,0,,0,206,206,351,1,,,,
,,,,,,96f2b85174718d2e5cf77969,66a626ef09d4e21e1a8894ec,673649ad62b367cb4329d168,2024-11-14_13h04.27.947,Tarea de género gramatical,2024.2.2,Win32,30.08061605,,,,,,,,,,,,,,,,,,,,,,,552.2665,553.3668,l,1,0.4144,,[],[],[],[],[],[],[],0.4144,1,553.3669,553.8567,,,,,,570,MAS,AGR,150,puño,el,l,553.8568,553.857,0.093518519,-0.103703704,0,0,0,,0,207,207,119,1,,,,
,,,,,,96f2b85174718d2e5cf77969,66a626ef09d4e21e1a8894ec,673649ad62b367cb4329d168,2024-11-14_13h04.27.947,Tarea de género gramatical,2024.2.2,Win32,30.08061605,,,,,,,,,,,,,,,,,,,,,,,553.8585,554.882,a,1,0.3401,,[],[],[],[],[],[],[],0.3401,1,554.8821,555.3701,,,,,,639,FEM,AGR,150,pista,la,a,555.3702,555.3706,0.093518519,-0.103703704,0,0,0,,0,208,208,188,1,,,,
,,,,,,96f2b85174718d2e5cf77969,66a626ef09d4e21e1a8894ec,673649ad62b367cb4329d168,2024-11-14_13h04.27.947,Tarea de género gramatical,2024.2.2,Win32,30.08061605,,,,,,,,,,,,,,,,,,,,,,,555.3726,556.5658,l,0,0.5028,,[],[],[],[],[],[],[],0.5028,0,556.5669,557.0642,,,,,,475,FEM,CON,150,nave,,a,557.0654,557.0667,0.093518519,-0.103703704,0,0,0,,0,209,209,24,1,,,,
,,,,,,96f2b85174718d2e5cf77969,66a626ef09d4e21e1a8894ec,673649ad62b367cb4329d168,2024-11-14_13h04.27.947,Tarea de género gramatical,2024.2.2,Win32,30.08061605,,,,,,,,,,,,,,,,,,,,,,,557.0678,558.2878,l,1,0.5375,,[],[],[],[],[],[],[],0.5375,1,558.2891,558.7604,,,,,,610,MAS,CON,150,señor,,l,558.7605,558.7607,0.093518519,-0.103703704,0,0,0,,0,210,210,159,1,,,,
,,,,,,96f2b85174718d2e5cf77969,66a626ef09d4e21e1a8894ec,673649ad62b367cb4329d168,2024-11-14_13h04.27.947,Tarea de género gramatical,2024.2.2,Win32,30.08061605,,,,,,,,,,,,,,,,,,,,,,,558.762,560.1774,l,1,0.7437,,[],[],[],[],[],[],[],0.7437,1,560.1775,560.6593,,,,,,869,MAS,DIS,150,cuento,la,l,560.6594,560.6596,0.093518519,-0.103703704,0,0,0,,0,211,211,418,1,,,,
,,,,,,96f2b85174718d2e5cf77969,66a626ef09d4e21e1a8894ec,673649ad62b367cb4329d168,2024-11-14_13h04.27.947,Tarea de género gramatical,2024.2.2,Win32,30.08061605,,,,,,,,,,,,,,,,,,,,,,,560.6613,561.8765,a,1,0.539,,[],[],[],[],[],[],[],0.539,1,561.8766,562.3858,,,,,,781,FEM,CON,150,cárcel,,a,562.3859,562.3862,0.093518519,-0.103703704,0,0,0,,0,212,212,330,1,,,,
,,,,,,96f2b85174718d2e5cf77969,66a626ef09d4e21e1a8894ec,673649ad62b367cb4329d168,2024-11-14_13h04.27.947,Tarea de género gramatical,2024.2.2,Win32,30.08061605,,,,,,,,,,,,,,,,,,,,,,,562.3886,563.5727,a,1,0.4912,,[],[],[],[],[],[],[],0.4912,1,563.5728,564.0621,,,,,,645,FEM,AGR,150,pared,la,a,564.0638,564.0652,0.093518519,-0.103703704,0,0,0,,0,213,213,194,1,,,,
,,,,,,96f2b85174718d2e5cf77969,66a626ef09d4e21e1a8894ec,673649ad62b367cb4329d168,2024-11-14_13h04.27.947,Tarea de género gramatical,2024.2.2,Win32,30.08061605,,,,,,,,,,,,,,,,,,,,,,,564.0665,565.2936,a,1,0.5474,,[],[],[],[],[],[],[],0.5474,1,565.2937,565.7968,,,,,,488,FEM,DIS,150,obra,el,a,565.7968,565.797,0.093518519,-0.103703704,0,0,0,,0,214,214,37,1,,,,
,,,,,,96f2b85174718d2e5cf77969,66a626ef09d4e21e1a8894ec,673649ad62b367cb4329d168,2024-11-14_13h04.27.947,Tarea de género gramatical,2024.2.2,Win32,30.08061605,,,,,,,,,,,,,,,,,,,,,,,565.7991,566.8909,a,1,0.3994,,[],[],[],[],[],[],[],0.3994,1,566.891,567.3782,,,,,,607,FEM,CON,150,madre,,a,567.3782,567.3785,0.093518519,-0.103703704,0,0,0,,0,215,215,156,1,,,,
,,,,,,96f2b85174718d2e5cf77969,66a626ef09d4e21e1a8894ec,673649ad62b367cb4329d168,2024-11-14_13h04.27.947,Tarea de género gramatical,2024.2.2,Win32,30.08061605,,,,,,,,,,,,,,,,,,,,,,,567.3808,568.5435,l,1,0.4865,,[],[],[],[],[],[],[],0.4865,1,568.5437,569.0377,,,,,,629,MAS,DIS,150,viaje,la,l,569.0378,569.0381,0.093518519,-0.103703704,0,0,0,,0,216,216,178,1,,,,
,,,,,,96f2b85174718d2e5cf77969,66a626ef09d4e21e1a8894ec,673649ad62b367cb4329d168,2024-11-14_13h04.27.947,Tarea de género gramatical,2024.2.2,Win32,30.08061605,,,,,,,,,,,,,,,,,,,,,,,569.0394,570.1697,a,1,0.4487,,[],[],[],[],[],[],[],0.4487,1,570.1698,570.6591,,,,,,710,FEM,DIS,150,barra,el,a,570.6592,570.6594,0.093518519,-0.103703704,0,0,0,,0,217,217,259,1,,,,
,,,,,,96f2b85174718d2e5cf77969,66a626ef09d4e21e1a8894ec,673649ad62b367cb4329d168,2024-11-14_13h04.27.947,Tarea de género gramatical,2024.2.2,Win32,30.08061605,,,,,,,,,,,,,,,,,,,,,,,570.6622,571.7466,a,1,0.3989,,[],[],[],[],[],[],[],0.3989,1,571.7467,572.2356,,,,,,795,FEM,AGR,150,pierna,la,a,572.2367,572.2376,0.093518519,-0.103703704,0,0,0,,0,218,218,344,1,,,,
,,,,,,96f2b85174718d2e5cf77969,66a626ef09d4e21e1a8894ec,673649ad62b367cb4329d168,2024-11-14_13h04.27.947,Tarea de género gramatical,2024.2.2,Win32,30.08061605,,,,,,,,,,,,,,,,,,,,,,,572.2387,573.5133,a,1,0.588,,[],[],[],[],[],[],[],0.588,1,573.5134,574.0185,,,,,,891,FEM,AGR,150,medida,la,a,574.0186,574.0188,0.093518519,-0.103703704,0,0,0,,0,219,219,440,1,,,,
,,,,,,96f2b85174718d2e5cf77969,66a626ef09d4e21e1a8894ec,673649ad62b367cb4329d168,2024-11-14_13h04.27.947,Tarea de género gramatical,2024.2.2,Win32,30.08061605,,,,,,,,,,,,,,,,,,,,,,,574.0199,575.1852,a,1,0.4748,,[],[],[],[],[],[],[],0.4748,1,575.1854,575.6802,,,,,,661,FEM,CON,150,salud,,a,575.6803,575.6804,0.093518519,-0.103703704,0,0,0,,0,220,220,210,1,,,,
,,,,,,96f2b85174718d2e5cf77969,66a626ef09d4e21e1a8894ec,673649ad62b367cb4329d168,2024-11-14_13h04.27.947,Tarea de género gramatical,2024.2.2,Win32,30.08061605,,,,,,,,,,,,,,,,,,,,,,,575.6817,576.7322,l,1,0.3805,,[],[],[],[],[],[],[],0.3805,1,576.7324,577.2311,,,,,,460,MAS,CON,150,niño,,l,577.2311,577.2315,0.093518519,-0.103703704,0,0,0,,0,221,221,9,1,,,,
,,,,,,96f2b85174718d2e5cf77969,66a626ef09d4e21e1a8894ec,673649ad62b367cb4329d168,2024-11-14_13h04.27.947,Tarea de género gramatical,2024.2.2,Win32,30.08061605,,,,,,,,,,,,,,,,,,,,,,,577.2334,578.5077,a,1,0.5933,,[],[],[],[],[],[],[],0.5933,1,578.5079,578.9977,,,,,,801,FEM,AGR,150,espada,la,a,579.0002,579.0018,0.093518519,-0.103703704,0,0,0,,0,222,222,350,1,,,,
,,,,,,96f2b85174718d2e5cf77969,66a626ef09d4e21e1a8894ec,673649ad62b367cb4329d168,2024-11-14_13h04.27.947,Tarea de género gramatical,2024.2.2,Win32,30.08061605,,,,,,,,,,,,,,,,,,,,,,,579.0034,580.161,l,1,0.4849,,[],[],[],[],[],[],[],0.4849,1,580.1612,580.6625,,,,,,605,MAS,DIS,150,mundo,la,l,580.6626,580.6628,0.093518519,-0.103703704,0,0,0,,0,223,223,154,1,,,,
,,,,,,96f2b85174718d2e5cf77969,66a626ef09d4e21e1a8894ec,673649ad62b367cb4329d168,2024-11-14_13h04.27.947,Tarea de género gramatical,2024.2.2,Win32,30.08061605,,,,,,,,,,,,,,,,,,,,,,,580.6652,582.0321,a,1,0.6605,,[],[],[],[],[],[],[],0.6605,1,582.0322,582.5413,,,,,,782,FEM,DIS,150,basura,el,a,582.5413,582.5415,0.093518519,-0.103703704,0,0,0,,0,224,224,331,1,,,,
,,,,,,96f2b85174718d2e5cf77969,66a626ef09d4e21e1a8894ec,673649ad62b367cb4329d168,2024-11-14_13h04.27.947,Tarea de género gramatical,2024.2.2,Win32,30.08061605,,,,,,,,,,,,,,,,,,,,,,,582.5439,583.697,l,1,0.4748,,[],[],[],[],[],[],[],0.4748,1,583.6972,584.1862,,,,,,808,MAS,CON,150,motivo,,l,584.1863,584.1865,0.093518519,-0.103703704,0,0,0,,0,225,225,357,1,,,,
,,,,,,96f2b85174718d2e5cf77969,66a626ef09d4e21e1a8894ec,673649ad62b367cb4329d168,2024-11-14_13h04.27.947,Tarea de género gramatical,2024.2.2,Win32,30.08061605,,,,,,,,,,,,,,,,,,,,,,,584.1889,585.4392,a,1,0.571,,[],[],[],[],[],[],[],0.571,1,585.4393,585.9485,,,,,,884,FEM,DIS,150,corona,el,a,585.9486,585.9487,0.093518519,-0.103703704,0,0,0,,0,226,226,433,1,,,,
,,,,,,96f2b85174718d2e5cf77969,66a626ef09d4e21e1a8894ec,673649ad62b367cb4329d168,2024-11-14_13h04.27.947,Tarea de género gramatical,2024.2.2,Win32,30.08061605,,,,,,,,,,,,,,,,,,,,,,,585.9502,587.136,a,1,0.4849,,[],[],[],[],[],[],[],0.4849,1,587.1362,587.6353,,,,,,638,FEM,DIS,150,bomba,el,a,587.6373,587.6396,0.093518519,-0.103703704,0,0,0,,0,227,227,187,1,,,,
,,,,,,96f2b85174718d2e5cf77969,66a626ef09d4e21e1a8894ec,673649ad62b367cb4329d168,2024-11-14_13h04.27.947,Tarea de género gramatical,2024.2.2,Win32,30.08061605,,,,,,,,,,,,,,,,,,,,,,,587.6413,588.6804,a,0,0.3616,,[],[],[],[],[],[],[],0.3616,0,588.6816,589.1507,,,,,,526,MAS,CON,150,lujo,,l,589.1508,589.151,0.093518519,-0.103703704,0,0,0,,0,228,228,75,1,,,,
,,,,,,96f2b85174718d2e5cf77969,66a626ef09d4e21e1a8894ec,673649ad62b367cb4329d168,2024-11-14_13h04.27.947,Tarea de género gramatical,2024.2.2,Win32,30.08061605,,,,,,,,,,,,,,,,,,,,,,,589.1526,590.5051,l,1,0.665,,[],[],[],[],[],[],[],0.665,1,590.5061,591.0107,,,,,,748,MAS,CON,150,botón,,l,591.0107,591.011,0.093518519,-0.103703704,0,0,0,,0,229,229,297,1,,,,
,,,,,,96f2b85174718d2e5cf77969,66a626ef09d4e21e1a8894ec,673649ad62b367cb4329d168,2024-11-14_13h04.27.947,Tarea de género gramatical,2024.2.2,Win32,30.08061605,,,,,,,,,,,,,,,,,,,,,,,591.0133,592.2402,a,1,0.5498,,[],[],[],[],[],[],[],0.5498,1,592.2403,592.7063,,,,,,547,FEM,CON,150,capa,,a,592.7064,592.7068,0.093518519,-0.103703704,0,0,0,,0,230,230,96,1,,,,
,,,,,,96f2b85174718d2e5cf77969,66a626ef09d4e21e1a8894ec,673649ad62b367cb4329d168,2024-11-14_13h04.27.947,Tarea de género gramatical,2024.2.2,Win32,30.08061605,,,,,,,,,,,,,,,,,,,,,,,592.7087,594.0665,a,1,0.6658,,[],[],[],[],[],[],[],0.6658,1,594.0666,594.5672,,,,,,656,FEM,DIS,150,época,el,a,594.5687,594.5698,0.093518519,-0.103703704,0,0,0,,0,231,231,205,1,,,,
,,,,,,96f2b85174718d2e5cf77969,66a626ef09d4e21e1a8894ec,673649ad62b367cb4329d168,2024-11-14_13h04.27.947,Tarea de género gramatical,2024.2.2,Win32,30.08061605,,,,,,,,,,,,,,,,,,,,,,,594.5709,595.7138,l,1,0.4571,,[],[],[],[],[],[],[],0.4571,1,595.714,596.2069,,,,,,766,MAS,CON,150,cuerpo,,l,596.207,596.2072,0.093518519,-0.103703704,0,0,0,,0,232,232,315,1,,,,
,,,,,,96f2b85174718d2e5cf77969,66a626ef09d4e21e1a8894ec,673649ad62b367cb4329d168,2024-11-14_13h04.27.947,Tarea de género gramatical,2024.2.2,Win32,30.08061605,,,,,,,,,,,,,,,,,,,,,,,596.2086,597.4368,l,1,0.5429,,[],[],[],[],[],[],[],0.5429,1,597.4369,597.9393,,,,,,718,MAS,CON,150,truco,,l,597.9394,597.9397,0.093518519,-0.103703704,0,0,0,,0,233,233,267,1,,,,
,,,,,,96f2b85174718d2e5cf77969,66a626ef09d4e21e1a8894ec,673649ad62b367cb4329d168,2024-11-14_13h04.27.947,Tarea de género gramatical,2024.2.2,Win32,30.08061605,,,,,,,,,,,,,,,,,,,,,,,597.9419,599.0081,l,1,0.3995,,[],[],[],[],[],[],[],0.3995,1,599.0083,599.5061,,,,,,736,MAS,CON,150,reino,,l,599.5062,599.5065,0.093518519,-0.103703704,0,0,0,,0,234,234,285,1,,,,
,,,,,,96f2b85174718d2e5cf77969,66a626ef09d4e21e1a8894ec,673649ad62b367cb4329d168,2024-11-14_13h04.27.947,Tarea de género gramatical,2024.2.2,Win32,30.08061605,,,,,,,,,,,,,,,,,,,,,,,599.5087,600.5174,a,1,0.3361,,[],[],[],[],[],[],[],0.3361,1,600.5175,601.0222,,,,,,579,FEM,AGR,150,rana,la,a,601.0224,601.0225,0.093518519,-0.103703704,0,0,0,,0,235,235,128,1,,,,
,,,,,,96f2b85174718d2e5cf77969,66a626ef09d4e21e1a8894ec,673649ad62b367cb4329d168,2024-11-14_13h04.27.947,Tarea de género gramatical,2024.2.2,Win32,30.08061605,,,,,,,,,,,,,,,,,,,,,,,601.0239,602.1287,a,1,0.4294,,[],[],[],[],[],[],[],0.4294,1,602.1289,602.6278,,,,,,687,FEM,AGR,150,ducha,la,a,602.6302,602.6319,0.093518519,-0.103703704,0,0,0,,0,236,236,236,1,,,,
,,,,,,96f2b85174718d2e5cf77969,66a626ef09d4e21e1a8894ec,673649ad62b367cb4329d168,2024-11-14_13h04.27.947,Tarea de género gramatical,2024.2.2,Win32,30.08061605,,,,,,,,,,,,,,,,,,,,,,,602.6333,603.9787,l,1,0.653,,[],[],[],[],[],[],[],0.653,1,603.9788,604.4584,,,,,,550,MAS,CON,150,nido,,l,604.4585,604.4589,0.093518519,-0.103703704,0,0,0,,0,237,237,99,1,,,,
,,,,,,96f2b85174718d2e5cf77969,66a626ef09d4e21e1a8894ec,673649ad62b367cb4329d168,2024-11-14_13h04.27.947,Tarea de género gramatical,2024.2.2,Win32,30.08061605,,,,,,,,,,,,,,,,,,,,,,,604.461,605.5934,l,1,0.4423,,[],[],[],[],[],[],[],0.4423,1,605.5935,606.0998,,,,,,880,MAS,CON,150,título,,l,606.0999,606.1001,0.093518519,-0.103703704,0,0,0,,0,238,238,429,1,,,,
,,,,,,96f2b85174718d2e5cf77969,66a626ef09d4e21e1a8894ec,673649ad62b367cb4329d168,2024-11-14_13h04.27.947,Tarea de género gramatical,2024.2.2,Win32,30.08061605,,,,,,,,,,,,,,,,,,,,,,,606.1017,607.9118,a,1,1.121,,[],[],[],[],[],[],[],1.121,1,607.9119,608.4072,,,,,,860,FEM,DIS,150,piedad,el,a,608.4073,608.4074,0.093518519,-0.103703704,0,0,0,,0,239,239,409,1,,,,
,,,,,,96f2b85174718d2e5cf77969,66a626ef09d4e21e1a8894ec,673649ad62b367cb4329d168,2024-11-14_13h04.27.947,Tarea de género gramatical,2024.2.2,Win32,30.08061605,,,,,,,,,,,,,,,,,,,,,,,608.4092,609.786,l,1,0.7022,,[],[],[],[],[],[],[],0.7022,1,609.7861,610.3073,,,,,,862,MAS,CON,150,espejo,,l,610.3095,610.3113,0.093518519,-0.103703704,0,0,0,,0,240,240,411,1,,,,
,,,,,,96f2b85174718d2e5cf77969,66a626ef09d4e21e1a8894ec,673649ad62b367cb4329d168,2024-11-14_13h04.27.947,Tarea de género gramatical,2024.2.2,Win32,30.08061605,,,,,,,,,,,,,,,,,,,,,,,610.3129,611.8665,a,1,0.8659,,[],[],[],[],[],[],[],0.8659,1,611.8666,612.3569,,,,,,733,FEM,CON,150,pluma,,a,612.357,612.3574,0.093518519,-0.103703704,0,0,0,,0,241,241,282,1,,,,
,,,,,,96f2b85174718d2e5cf77969,66a626ef09d4e21e1a8894ec,673649ad62b367cb4329d168,2024-11-14_13h04.27.947,Tarea de género gramatical,2024.2.2,Win32,30.08061605,,,,,,,,,,,,,,,,,,,,,,,612.3594,613.4666,l,1,0.431,,[],[],[],[],[],[],[],0.431,1,613.4666,613.9815,,,,,,593,MAS,DIS,150,faro,la,l,613.9816,613.9817,0.093518519,-0.103703704,0,0,0,,0,242,242,142,1,,,,
,,,,,,96f2b85174718d2e5cf77969,66a626ef09d4e21e1a8894ec,673649ad62b367cb4329d168,2024-11-14_13h04.27.947,Tarea de género gramatical,2024.2.2,Win32,30.08061605,,,,,,,,,,,,,,,,,,,,,,,613.9835,615.1274,a,1,0.466,,[],[],[],[],[],[],[],0.466,1,615.1277,615.6311,,,,,,471,FEM,AGR,150,boca,la,a,615.6312,615.6317,0.093518519,-0.103703704,0,0,0,,0,243,243,20,1,,,,
,,,,,,96f2b85174718d2e5cf77969,66a626ef09d4e21e1a8894ec,673649ad62b367cb4329d168,2024-11-14_13h04.27.947,Tarea de género gramatical,2024.2.2,Win32,30.08061605,,,,,,,,,,,,,,,,,,,,,,,615.6338,616.6431,l,1,0.3342,,[],[],[],[],[],[],[],0.3342,1,616.6432,617.1369,,,,,,486,MAS,AGR,150,dedo,el,l,617.137,617.1372,0.093518519,-0.103703704,0,0,0,,0,244,244,35,1,,,,
,,,,,,96f2b85174718d2e5cf77969,66a626ef09d4e21e1a8894ec,673649ad62b367cb4329d168,2024-11-14_13h04.27.947,Tarea de género gramatical,2024.2.2,Win32,30.08061605,,,,,,,,,,,,,,,,,,,,,,,617.1388,618.1386,a,1,0.3106,,[],[],[],[],[],[],[],0.3106,1,618.1386,618.6428,,,,,,675,FEM,AGR,150,pieza,la,a,618.6452,618.6472,0.093518519,-0.103703704,0,0,0,,0,245,245,224,1,,,,
,,,,,,96f2b85174718d2e5cf77969,66a626ef09d4e21e1a8894ec,673649ad62b367cb4329d168,2024-11-14_13h04.27.947,Tarea de género gramatical,2024.2.2,Win32,30.08061605,,,,,,,,,,,,,,,,,,,,,,,618.6488,619.8232,l,1,0.4881,,[],[],[],[],[],[],[],0.4881,1,619.8234,620.344,,,,,,522,MAS,AGR,150,hoyo,el,l,620.3441,620.3442,0.093518519,-0.103703704,0,0,0,,0,246,246,71,1,,,,
,,,,,,96f2b85174718d2e5cf77969,66a626ef09d4e21e1a8894ec,673649ad62b367cb4329d168,2024-11-14_13h04.27.947,Tarea de género gramatical,2024.2.2,Win32,30.08061605,,,,,,,,,,,,,,,,,,,,,,,620.3453,621.5613,l,1,0.5315,,[],[],[],[],[],[],[],0.5315,1,621.5615,622.0587,,,,,,545,MAS,DIS,150,tomo,la,l,622.0588,622.059,0.093518519,-0.103703704,0,0,0,,0,247,247,94,1,,,,
,,,,,,96f2b85174718d2e5cf77969,66a626ef09d4e21e1a8894ec,673649ad62b367cb4329d168,2024-11-14_13h04.27.947,Tarea de género gramatical,2024.2.2,Win32,30.08061605,,,,,,,,,,,,,,,,,,,,,,,622.0613,623.4894,l,1,0.7488,,[],[],[],[],[],[],[],0.7488,1,623.4896,623.9908,,,,,,654,MAS,AGR,150,papel,el,l,623.991,623.9913,0.093518519,-0.103703704,0,0,0,,0,248,248,203,1,,,,
,,,,,,96f2b85174718d2e5cf77969,66a626ef09d4e21e1a8894ec,673649ad62b367cb4329d168,2024-11-14_13h04.27.947,Tarea de género gramatical,2024.2.2,Win32,30.08061605,,,,,,,,,,,,,,,,,,,,,,,623.9932,625.3469,l,1,0.6762,,[],[],[],[],[],[],[],0.6762,1,625.347,625.8371,,,,,,796,MAS,CON,150,juicio,,l,625.8383,625.8395,0.093518519,-0.103703704,0,0,0,,0,249,249,345,1,,,,
,,,,,,96f2b85174718d2e5cf77969,66a626ef09d4e21e1a8894ec,673649ad62b367cb4329d168,2024-11-14_13h04.27.947,Tarea de género gramatical,2024.2.2,Win32,30.08061605,,,,,,,,,,,,,,,,,,,,,,,625.8405,626.9777,a,1,0.4731,,[],[],[],[],[],[],[],0.4731,1,626.9779,627.4535,,,,,,585,FEM,AGR,150,raíz,la,a,627.4537,627.4538,0.093518519,-0.103703704,0,0,0,,0,250,250,134,1,,,,
,,,,,,96f2b85174718d2e5cf77969,66a626ef09d4e21e1a8894ec,673649ad62b367cb4329d168,2024-11-14_13h04.27.947,Tarea de género gramatical,2024.2.2,Win32,30.08061605,,,,,,,,,,,,,,,,,,,,,,,627.4552,628.69,a,1,0.5473,,[],[],[],[],[],[],[],0.5473,1,628.6902,629.1809,,,,,,458,FEM,DIS,150,idea,el,a,629.1809,629.1811,0.093518519,-0.103703704,0,0,0,,0,251,251,7,1,,,,
