counterbalancing_condition,consent_prescreening.block_1/declare_consent,consent_prescreening.block_1/age_years,consent_prescreening.block_1/gender,consent_prescreening.block_1/language_disorder,consent_prescreening.block_1/first_language,PROLIFIC_PID,STUDY_ID,SESSION_ID,date,expName,psychopyVersion,OS,frameRate,check_prescreening_answers.started,check_prescreening_answers.stopped,Instructions.started,Instructions.stopped,instr_done_keyboard.keys,instr_done_keyboard.rt,instr_done_keyboard.duration,instr_done_touch.x,instr_done_touch.y,instr_done_touch.leftButton,instr_done_touch.midButton,instr_done_touch.rightButton,instruction_pages.thisRepN,instruction_pages.thisTrialN,instruction_pages.thisN,instruction_pages.thisIndex,instruction_pages.ran,pageN,phase,instruct_text,has_image,instruct_image,presentTrial.started,presentTrial.stopped,response.keys,response.corr,touch_resp.x,touch_resp.y,touch_resp.leftButton,touch_resp.midButton,touch_resp.rightButton,touch_resp.time,touch_resp.clicked_name,rt,corr,feedback.started,feedback.stopped,practice_trials.thisRepN,practice_trials.thisTrialN,practice_trials.thisN,practice_trials.thisIndex,practice_trials.ran,TrialID,StimulusType,Condition,PrimeDuration,Prime,Flanker,corrAns,response.rt,response.duration,Break.started,Break.stopped,break_done_touch.x,break_done_touch.y,break_done_touch.leftButton,break_done_touch.midButton,break_done_touch.rightButton,break_done_keyboard.keys,experiment_trials.thisRepN,experiment_trials.thisTrialN,experiment_trials.thisN,experiment_trials.thisIndex,experiment_trials.ran,break_done_keyboard.rt,break_done_keyboard.duration,End.started,End.stopped
1,"[""over_18"",""comfortable"",""read_info"",""consent_given""]",33,F,"[""none""]","[""spanish""]",9a8af3135c09cf7c9cfcb05c,66a626ef09d4e21e1a8894ec,673606c62238f947512d2937,2024-11-14_15h19.05.462,Tarea de género gramatical,2024.2.2,Win32,60.97560976,,,,,,,,,,,,,,,,,,,,,,,,,,,,,,,,,,,,,,,,,,,,,,,,,,,,,,,,,,,,,,,,,,,,
,,,,,,9a8af3135c09cf7c9cfcb05c,66a626ef09d4e21e1a8894ec,673606c62238f947512d2937,2024-11-14_15h19.05.462,Tarea de género gramatical,2024.2.2,Win32,60.97560976,31.7066,31.7068,,,,,,,,,,,,,,,,,,,,,,,,,,,,,,,,,,,,,,,,,,,,,,,,,,,,,,,,,,,,,,,,,,
,,,,,,9a8af3135c09cf7c9cfcb05c,66a626ef09d4e21e1a8894ec,673606c62238f947512d2937,2024-11-14_15h19.05.462,Tarea de género gramatical,2024.2.2,Win32,60.97560976,,,31.7374,40.4728,space,8.6862,,0.112037023,0.113888882,0,0,0,0,0,0,0,1,1,instructions,"INSTRUCCIONES
Va a realizar una prueba de selección gramatical. Desde el comienzo de la prueba mire siempre al centro de la pantalla. Al cabo de un momento, aparecerán palabras. La tarea consiste en determinar si la palabra del centro (siempre será un sustantivo), pertenece al género masculino o femenino.

Pulse la tecla ESPACIO o toque el botón de abajo para continuar.",0,keyboardresponseMF.png,,,,,,,,,,,,,,,,,,,,,,,,,,,,,,,,,,,,,,,,,,,,,,
,,,,,,9a8af3135c09cf7c9cfcb05c,66a626ef09d4e21e1a8894ec,673606c62238f947512d2937,2024-11-14_15h19.05.462,Tarea de género gramatical,2024.2.2,Win32,60.97560976,,,40.4761,50.3072,space,9.7434,,0.112037023,0.113888882,0,0,0,0,1,1,1,1,2,instructions,"Si su dispositivo tiene teclado, pulse la tecla ""A"" para las palabras en masculino (por ejemplo: ""arroz"") y la tecla ""L"" para las palabras en femenino (por ejemplo: ""mano"").
Pulse la tecla ESPACIO o toque el botón de abajo para continuar.",1,keyboardresponseMF.png,,,,,,,,,,,,,,,,,,,,,,,,,,,,,,,,,,,,,,,,,,,,,,
,,,,,,9a8af3135c09cf7c9cfcb05c,66a626ef09d4e21e1a8894ec,673606c62238f947512d2937,2024-11-14_15h19.05.462,Tarea de género gramatical,2024.2.2,Win32,60.97560976,,,50.3095,54.5788,space,4.21,,0.112037023,0.113888882,0,0,0,0,2,2,2,1,3,instructions,"Si utiliza un dispositivo sólo táctil, colóquelo en horizontal y utilice los botones de la pantalla. No utilice el ratón.
Pulse la tecla ESPACIO o toque el botón de abajo para continuar.",2,touchresponseMF.png,,,,,,,,,,,,,,,,,,,,,,,,,,,,,,,,,,,,,,,,,,,,,,
,,,,,,9a8af3135c09cf7c9cfcb05c,66a626ef09d4e21e1a8894ec,673606c62238f947512d2937,2024-11-14_15h19.05.462,Tarea de género gramatical,2024.2.2,Win32,60.97560976,,,54.5823,65.3496,space,10.7466,,0.112037023,0.113888882,0,0,0,0,3,3,3,1,4,instructions,"Es muy importante que responda con la mayor rapidez y precisión posibles, ya que cada cadena de letras sólo estará en pantalla durante un instante. Si no responde en ese tiempo, aparecerá el mensaje ""Muy lento"" y el experimento pasará a la siguiente palabra. Los primeros 15 intentos serán de práctica y habrá dos descansos durante la prueba.
Pulse la tecla ESPACIO o toque el botón de abajo para iniciar la parte de práctica.",0,keyboardresponseMF.png,,,,,,,,,,,,,,,,,,,,,,,,,,,,,,,,,,,,,,,,,,,,,,
,,,,,,9a8af3135c09cf7c9cfcb05c,66a626ef09d4e21e1a8894ec,673606c62238f947512d2937,2024-11-14_15h19.05.462,Tarea de género gramatical,2024.2.2,Win32,60.97560976,,,,,,,,,,,,,,,,,,,,,,,65.3688,68.0091,,0,[],[],[],[],[],[],[],,-1,68.0094,68.5075,0,0,0,1,1,2002,FEM,CON,150,pala,,a,,,,,,,,,,,,,,,,,,,
,,,,,,9a8af3135c09cf7c9cfcb05c,66a626ef09d4e21e1a8894ec,673606c62238f947512d2937,2024-11-14_15h19.05.462,Tarea de género gramatical,2024.2.2,Win32,60.97560976,,,,,,,,,,,,,,,,,,,,,,,68.5101,70.2362,l,1,[],[],[],[],[],[],[],1.0533,1,70.2506,70.7348,0,1,1,3,1,2004,FEM,AGR,150,venta,la,a,1.0533,,,,,,,,,,,,,,,,,,
,,,,,,9a8af3135c09cf7c9cfcb05c,66a626ef09d4e21e1a8894ec,673606c62238f947512d2937,2024-11-14_15h19.05.462,Tarea de género gramatical,2024.2.2,Win32,60.97560976,,,,,,,,,,,,,,,,,,,,,,,70.7365,71.8816,a,1,[],[],[],[],[],[],[],0.4657,1,71.8816,72.3804,0,2,2,9,1,2010,MAS,AGR,150,vecino,el,l,0.4657,,,,,,,,,,,,,,,,,,
,,,,,,9a8af3135c09cf7c9cfcb05c,66a626ef09d4e21e1a8894ec,673606c62238f947512d2937,2024-11-14_15h19.05.462,Tarea de género gramatical,2024.2.2,Win32,60.97560976,,,,,,,,,,,,,,,,,,,,,,,72.3819,73.6769,a,0,[],[],[],[],[],[],[],0.6163,0,73.6785,74.175,0,3,3,5,1,2006,FEM,DIS,150,serie,el,a,0.6163,,,,,,,,,,,,,,,,,,
,,,,,,9a8af3135c09cf7c9cfcb05c,66a626ef09d4e21e1a8894ec,673606c62238f947512d2937,2024-11-14_15h19.05.462,Tarea de género gramatical,2024.2.2,Win32,60.97560976,,,,,,,,,,,,,,,,,,,,,,,74.1763,75.422,a,1,[],[],[],[],[],[],[],0.5668,1,75.4227,75.9206,0,4,4,8,1,2009,MAS,DIS,150,puerto,la,l,0.5668,,,,,,,,,,,,,,,,,,
,,,,,,9a8af3135c09cf7c9cfcb05c,66a626ef09d4e21e1a8894ec,673606c62238f947512d2937,2024-11-14_15h19.05.462,Tarea de género gramatical,2024.2.2,Win32,60.97560976,,,,,,,,,,,,,,,,,,,,,,,75.9217,77.1009,l,1,[],[],[],[],[],[],[],0.5061,1,77.1011,77.5995,0,5,5,0,1,2001,FEM,AGR,150,nuca,la,a,0.5061,,,,,,,,,,,,,,,,,,
,,,,,,9a8af3135c09cf7c9cfcb05c,66a626ef09d4e21e1a8894ec,673606c62238f947512d2937,2024-11-14_15h19.05.462,Tarea de género gramatical,2024.2.2,Win32,60.97560976,,,,,,,,,,,,,,,,,,,,,,,77.6003,78.7796,l,1,[],[],[],[],[],[],[],0.502,1,78.7797,79.2782,0,6,6,4,1,2005,FEM,CON,150,placa,,a,0.502,,,,,,,,,,,,,,,,,,
,,,,,,9a8af3135c09cf7c9cfcb05c,66a626ef09d4e21e1a8894ec,673606c62238f947512d2937,2024-11-14_15h19.05.462,Tarea de género gramatical,2024.2.2,Win32,60.97560976,,,,,,,,,,,,,,,,,,,,,,,79.2794,80.3914,a,1,[],[],[],[],[],[],[],0.4397,1,80.3915,80.8903,0,7,7,14,1,2015,MAS,DIS,150,robot,la,l,0.4397,,,,,,,,,,,,,,,,,,
,,,,,,9a8af3135c09cf7c9cfcb05c,66a626ef09d4e21e1a8894ec,673606c62238f947512d2937,2024-11-14_15h19.05.462,Tarea de género gramatical,2024.2.2,Win32,60.97560976,,,,,,,,,,,,,,,,,,,,,,,80.8918,82.1255,l,1,[],[],[],[],[],[],[],0.5495,1,82.1256,82.6189,0,8,8,6,1,2007,FEM,AGR,150,navaja,la,a,0.5495,,,,,,,,,,,,,,,,,,
,,,,,,9a8af3135c09cf7c9cfcb05c,66a626ef09d4e21e1a8894ec,673606c62238f947512d2937,2024-11-14_15h19.05.462,Tarea de género gramatical,2024.2.2,Win32,60.97560976,,,,,,,,,,,,,,,,,,,,,,,82.62,83.8539,a,1,[],[],[],[],[],[],[],0.5497,1,83.854,84.3524,0,9,9,10,1,2011,MAS,CON,150,canal,,l,0.5497,,,,,,,,,,,,,,,,,,
,,,,,,9a8af3135c09cf7c9cfcb05c,66a626ef09d4e21e1a8894ec,673606c62238f947512d2937,2024-11-14_15h19.05.462,Tarea de género gramatical,2024.2.2,Win32,60.97560976,,,,,,,,,,,,,,,,,,,,,,,84.3533,85.5492,l,1,[],[],[],[],[],[],[],0.5166,1,85.5493,86.0426,0,10,10,7,1,2008,FEM,CON,150,siesta,,a,0.5166,,,,,,,,,,,,,,,,,,
,,,,,,9a8af3135c09cf7c9cfcb05c,66a626ef09d4e21e1a8894ec,673606c62238f947512d2937,2024-11-14_15h19.05.462,Tarea de género gramatical,2024.2.2,Win32,60.97560976,,,,,,,,,,,,,,,,,,,,,,,86.0438,87.1071,a,1,[],[],[],[],[],[],[],0.3847,1,87.1073,87.6053,0,11,11,13,1,2014,MAS,CON,150,siglo,,l,0.3847,,,,,,,,,,,,,,,,,,
,,,,,,9a8af3135c09cf7c9cfcb05c,66a626ef09d4e21e1a8894ec,673606c62238f947512d2937,2024-11-14_15h19.05.462,Tarea de género gramatical,2024.2.2,Win32,60.97560976,,,,,,,,,,,,,,,,,,,,,,,87.6072,88.6522,a,1,[],[],[],[],[],[],[],0.3661,1,88.6523,89.151,0,12,12,12,1,2013,MAS,AGR,150,acero,el,l,0.3661,,,,,,,,,,,,,,,,,,
,,,,,,9a8af3135c09cf7c9cfcb05c,66a626ef09d4e21e1a8894ec,673606c62238f947512d2937,2024-11-14_15h19.05.462,Tarea de género gramatical,2024.2.2,Win32,60.97560976,,,,,,,,,,,,,,,,,,,,,,,89.1527,90.2529,l,1,[],[],[],[],[],[],[],0.4466,1,90.2531,90.7515,0,13,13,2,1,2003,FEM,DIS,150,daga,el,a,0.4466,,,,,,,,,,,,,,,,,,
,,,,,,9a8af3135c09cf7c9cfcb05c,66a626ef09d4e21e1a8894ec,673606c62238f947512d2937,2024-11-14_15h19.05.462,Tarea de género gramatical,2024.2.2,Win32,60.97560976,,,,,,,,,,,,,,,,,,,,,,,90.7528,91.8819,a,1,[],[],[],[],[],[],[],0.4493,1,91.8819,92.3803,0,14,14,11,1,2012,MAS,DIS,150,clima,la,l,0.4493,,,,,,,,,,,,,,,,,,
,,,,,,9a8af3135c09cf7c9cfcb05c,66a626ef09d4e21e1a8894ec,673606c62238f947512d2937,2024-11-14_15h19.05.462,Tarea de género gramatical,2024.2.2,Win32,60.97560976,,,95.9568,103.0798,space,7.1014,,0.112037023,0.113888882,0,0,0,,,,,,,,,,,103.139,104.2435,a,0,[],[],[],[],[],[],[],0.4312,0,104.2443,104.742,,,,,,867,FEM,AGR,150,cabaña,la,a,0.4312,,104.7424,104.7476,0.112037023,0.113888882,0,0,0,,0,0,0,416,1,,,,
,,,,,,9a8af3135c09cf7c9cfcb05c,66a626ef09d4e21e1a8894ec,673606c62238f947512d2937,2024-11-14_15h19.05.462,Tarea de género gramatical,2024.2.2,Win32,60.97560976,,,,,,,,,,,,,,,,,,,,,,,104.7491,105.7723,l,1,[],[],[],[],[],[],[],0.3538,1,105.7731,106.2707,,,,,,567,FEM,AGR,150,raya,la,a,0.3538,,106.2708,106.271,0.112037023,0.113888882,0,0,0,,0,1,1,116,1,,,,
,,,,,,9a8af3135c09cf7c9cfcb05c,66a626ef09d4e21e1a8894ec,673606c62238f947512d2937,2024-11-14_15h19.05.462,Tarea de género gramatical,2024.2.2,Win32,60.97560976,,,,,,,,,,,,,,,,,,,,,,,106.2724,107.2848,a,1,[],[],[],[],[],[],[],0.3405,1,107.2849,107.7838,,,,,,730,MAS,CON,150,salón,,l,0.3405,,107.7852,107.7859,0.112037023,0.113888882,0,0,0,,0,2,2,279,1,,,,
,,,,,,9a8af3135c09cf7c9cfcb05c,66a626ef09d4e21e1a8894ec,673606c62238f947512d2937,2024-11-14_15h19.05.462,Tarea de género gramatical,2024.2.2,Win32,60.97560976,,,,,,,,,,,,,,,,,,,,,,,107.7865,108.914,a,1,[],[],[],[],[],[],[],0.45,1,108.9141,109.4124,,,,,,594,MAS,AGR,150,amor,el,l,0.45,,109.4124,109.4125,0.112037023,0.113888882,0,0,0,,0,3,3,143,1,,,,
,,,,,,9a8af3135c09cf7c9cfcb05c,66a626ef09d4e21e1a8894ec,673606c62238f947512d2937,2024-11-14_15h19.05.462,Tarea de género gramatical,2024.2.2,Win32,60.97560976,,,,,,,,,,,,,,,,,,,,,,,109.4134,110.4099,l,1,[],[],[],[],[],[],[],0.3215,1,110.4099,110.9085,,,,,,841,FEM,CON,150,altura,,a,0.3215,,110.9086,110.9087,0.112037023,0.113888882,0,0,0,,0,4,4,390,1,,,,
,,,,,,9a8af3135c09cf7c9cfcb05c,66a626ef09d4e21e1a8894ec,673606c62238f947512d2937,2024-11-14_15h19.05.462,Tarea de género gramatical,2024.2.2,Win32,60.97560976,,,,,,,,,,,,,,,,,,,,,,,110.9096,111.9057,a,1,[],[],[],[],[],[],[],0.3214,1,111.9058,112.4044,,,,,,708,MAS,AGR,150,polvo,el,l,0.3214,,112.4045,112.4047,0.112037023,0.113888882,0,0,0,,0,5,5,257,1,,,,
,,,,,,9a8af3135c09cf7c9cfcb05c,66a626ef09d4e21e1a8894ec,673606c62238f947512d2937,2024-11-14_15h19.05.462,Tarea de género gramatical,2024.2.2,Win32,60.97560976,,,,,,,,,,,,,,,,,,,,,,,112.406,113.6009,l,1,[],[],[],[],[],[],[],0.5258,1,113.6009,114.0994,,,,,,861,FEM,AGR,150,actriz,la,a,0.5258,,114.1008,114.1015,0.112037023,0.113888882,0,0,0,,0,6,6,410,1,,,,
,,,,,,9a8af3135c09cf7c9cfcb05c,66a626ef09d4e21e1a8894ec,673606c62238f947512d2937,2024-11-14_15h19.05.462,Tarea de género gramatical,2024.2.2,Win32,60.97560976,,,,,,,,,,,,,,,,,,,,,,,114.1021,115.2466,l,1,[],[],[],[],[],[],[],0.476,1,115.2467,115.745,,,,,,865,FEM,CON,150,cabina,,a,0.476,,115.7451,115.7452,0.112037023,0.113888882,0,0,0,,0,7,7,414,1,,,,
,,,,,,9a8af3135c09cf7c9cfcb05c,66a626ef09d4e21e1a8894ec,673606c62238f947512d2937,2024-11-14_15h19.05.462,Tarea de género gramatical,2024.2.2,Win32,60.97560976,,,,,,,,,,,,,,,,,,,,,,,115.7464,116.7095,a,1,[],[],[],[],[],[],[],0.2842,1,116.7096,117.208,,,,,,666,MAS,AGR,150,éxito,el,l,0.2842,,117.208,117.2082,0.112037023,0.113888882,0,0,0,,0,8,8,215,1,,,,
,,,,,,9a8af3135c09cf7c9cfcb05c,66a626ef09d4e21e1a8894ec,673606c62238f947512d2937,2024-11-14_15h19.05.462,Tarea de género gramatical,2024.2.2,Win32,60.97560976,,,,,,,,,,,,,,,,,,,,,,,117.209,118.2551,l,1,[],[],[],[],[],[],[],0.3667,1,118.2552,118.7538,,,,,,566,FEM,DIS,150,nube,el,a,0.3667,,118.7539,118.7541,0.112037023,0.113888882,0,0,0,,0,9,9,115,1,,,,
,,,,,,9a8af3135c09cf7c9cfcb05c,66a626ef09d4e21e1a8894ec,673606c62238f947512d2937,2024-11-14_15h19.05.462,Tarea de género gramatical,2024.2.2,Win32,60.97560976,,,,,,,,,,,,,,,,,,,,,,,118.7551,120.0668,l,1,[],[],[],[],[],[],[],0.6437,1,120.067,120.5654,,,,,,482,FEM,DIS,150,caja,el,a,0.6437,,120.5655,120.5656,0.112037023,0.113888882,0,0,0,,0,10,10,31,1,,,,
,,,,,,9a8af3135c09cf7c9cfcb05c,66a626ef09d4e21e1a8894ec,673606c62238f947512d2937,2024-11-14_15h19.05.462,Tarea de género gramatical,2024.2.2,Win32,60.97560976,,,,,,,,,,,,,,,,,,,,,,,120.5665,121.5462,a,1,[],[],[],[],[],[],[],0.3002,1,121.5463,122.0446,,,,,,719,MAS,DIS,150,primo,la,l,0.3002,,122.0461,122.0468,0.112037023,0.113888882,0,0,0,,0,11,11,268,1,,,,
,,,,,,9a8af3135c09cf7c9cfcb05c,66a626ef09d4e21e1a8894ec,673606c62238f947512d2937,2024-11-14_15h19.05.462,Tarea de género gramatical,2024.2.2,Win32,60.97560976,,,,,,,,,,,,,,,,,,,,,,,122.0476,123.025,a,1,[],[],[],[],[],[],[],0.3093,1,123.0251,123.5238,,,,,,677,MAS,DIS,150,vuelo,la,l,0.3093,,123.5239,123.524,0.112037023,0.113888882,0,0,0,,0,12,12,226,1,,,,
,,,,,,9a8af3135c09cf7c9cfcb05c,66a626ef09d4e21e1a8894ec,673606c62238f947512d2937,2024-11-14_15h19.05.462,Tarea de género gramatical,2024.2.2,Win32,60.97560976,,,,,,,,,,,,,,,,,,,,,,,123.5249,124.4713,l,1,[],[],[],[],[],[],[],0.2692,1,124.4714,124.9702,,,,,,829,FEM,CON,150,granja,,a,0.2692,,124.9702,124.9703,0.112037023,0.113888882,0,0,0,,0,13,13,378,1,,,,
,,,,,,9a8af3135c09cf7c9cfcb05c,66a626ef09d4e21e1a8894ec,673606c62238f947512d2937,2024-11-14_15h19.05.462,Tarea de género gramatical,2024.2.2,Win32,60.97560976,,,,,,,,,,,,,,,,,,,,,,,124.9712,126.0006,a,1,[],[],[],[],[],[],[],0.3551,1,126.0007,126.4989,,,,,,718,MAS,CON,150,truco,,l,0.3551,,126.4989,126.4991,0.112037023,0.113888882,0,0,0,,0,14,14,267,1,,,,
,,,,,,9a8af3135c09cf7c9cfcb05c,66a626ef09d4e21e1a8894ec,673606c62238f947512d2937,2024-11-14_15h19.05.462,Tarea de género gramatical,2024.2.2,Win32,60.97560976,,,,,,,,,,,,,,,,,,,,,,,126.5,127.4965,l,1,[],[],[],[],[],[],[],0.3164,1,127.4966,127.9951,,,,,,615,FEM,AGR,150,amiga,la,a,0.3164,,127.9965,127.9972,0.112037023,0.113888882,0,0,0,,0,15,15,164,1,,,,
,,,,,,9a8af3135c09cf7c9cfcb05c,66a626ef09d4e21e1a8894ec,673606c62238f947512d2937,2024-11-14_15h19.05.462,Tarea de género gramatical,2024.2.2,Win32,60.97560976,,,,,,,,,,,,,,,,,,,,,,,127.9981,129.1586,l,1,[],[],[],[],[],[],[],0.4817,1,129.1586,129.6572,,,,,,686,FEM,DIS,150,deuda,el,a,0.4817,,129.6573,129.6574,0.112037023,0.113888882,0,0,0,,0,16,16,235,1,,,,
,,,,,,9a8af3135c09cf7c9cfcb05c,66a626ef09d4e21e1a8894ec,673606c62238f947512d2937,2024-11-14_15h19.05.462,Tarea de género gramatical,2024.2.2,Win32,60.97560976,,,,,,,,,,,,,,,,,,,,,,,129.6583,130.7044,a,0,[],[],[],[],[],[],[],0.3651,0,130.7052,131.2028,,,,,,685,FEM,CON,150,torre,,a,0.3651,,131.2028,131.2029,0.112037023,0.113888882,0,0,0,,0,17,17,234,1,,,,
,,,,,,9a8af3135c09cf7c9cfcb05c,66a626ef09d4e21e1a8894ec,673606c62238f947512d2937,2024-11-14_15h19.05.462,Tarea de género gramatical,2024.2.2,Win32,60.97560976,,,,,,,,,,,,,,,,,,,,,,,131.2037,132.2004,a,1,[],[],[],[],[],[],[],0.3202,1,132.2017,132.6992,,,,,,551,MAS,DIS,150,giro,la,l,0.3202,,132.6995,132.6996,0.112037023,0.113888882,0,0,0,,0,18,18,100,1,,,,
,,,,,,9a8af3135c09cf7c9cfcb05c,66a626ef09d4e21e1a8894ec,673606c62238f947512d2937,2024-11-14_15h19.05.462,Tarea de género gramatical,2024.2.2,Win32,60.97560976,,,,,,,,,,,,,,,,,,,,,,,132.7008,133.713,l,1,[],[],[],[],[],[],[],0.3387,1,133.7131,134.2116,,,,,,535,FEM,CON,150,gira,,a,0.3387,,134.2116,134.2117,0.112037023,0.113888882,0,0,0,,0,19,19,84,1,,,,
,,,,,,9a8af3135c09cf7c9cfcb05c,66a626ef09d4e21e1a8894ec,673606c62238f947512d2937,2024-11-14_15h19.05.462,Tarea de género gramatical,2024.2.2,Win32,60.97560976,,,,,,,,,,,,,,,,,,,,,,,134.2126,135.2253,l,1,[],[],[],[],[],[],[],0.3364,1,135.2254,135.7239,,,,,,500,FEM,DIS,150,dama,el,a,0.3364,,135.7254,135.726,0.112037023,0.113888882,0,0,0,,0,20,20,49,1,,,,
,,,,,,9a8af3135c09cf7c9cfcb05c,66a626ef09d4e21e1a8894ec,673606c62238f947512d2937,2024-11-14_15h19.05.462,Tarea de género gramatical,2024.2.2,Win32,60.97560976,,,,,,,,,,,,,,,,,,,,,,,135.7269,136.7881,l,1,[],[],[],[],[],[],[],0.3919,1,136.7882,137.2862,,,,,,673,FEM,CON,150,plata,,a,0.3919,,137.2863,137.2864,0.112037023,0.113888882,0,0,0,,0,21,21,222,1,,,,
,,,,,,9a8af3135c09cf7c9cfcb05c,66a626ef09d4e21e1a8894ec,673606c62238f947512d2937,2024-11-14_15h19.05.462,Tarea de género gramatical,2024.2.2,Win32,60.97560976,,,,,,,,,,,,,,,,,,,,,,,137.2872,138.3668,a,1,[],[],[],[],[],[],[],0.403,1,138.3669,138.8655,,,,,,462,MAS,AGR,150,plan,el,l,0.403,,138.8657,138.8657,0.112037023,0.113888882,0,0,0,,0,22,22,11,1,,,,
,,,,,,9a8af3135c09cf7c9cfcb05c,66a626ef09d4e21e1a8894ec,673606c62238f947512d2937,2024-11-14_15h19.05.462,Tarea de género gramatical,2024.2.2,Win32,60.97560976,,,,,,,,,,,,,,,,,,,,,,,138.8666,140.3114,a,1,[],[],[],[],[],[],[],0.7636,1,140.3115,140.8101,,,,,,713,MAS,DIS,150,carro,la,l,0.7636,,140.8103,140.8105,0.112037023,0.113888882,0,0,0,,0,23,23,262,1,,,,
,,,,,,9a8af3135c09cf7c9cfcb05c,66a626ef09d4e21e1a8894ec,673606c62238f947512d2937,2024-11-14_15h19.05.462,Tarea de género gramatical,2024.2.2,Win32,60.97560976,,,,,,,,,,,,,,,,,,,,,,,140.8116,142.1728,l,1,[],[],[],[],[],[],[],0.6813,1,142.173,142.6718,,,,,,627,FEM,AGR,150,broma,la,a,0.6813,,142.6731,142.6738,0.112037023,0.113888882,0,0,0,,0,24,24,176,1,,,,
,,,,,,9a8af3135c09cf7c9cfcb05c,66a626ef09d4e21e1a8894ec,673606c62238f947512d2937,2024-11-14_15h19.05.462,Tarea de género gramatical,2024.2.2,Win32,60.97560976,,,,,,,,,,,,,,,,,,,,,,,142.6744,143.7521,a,1,[],[],[],[],[],[],[],0.3986,1,143.7522,144.2509,,,,,,736,MAS,CON,150,reino,,l,0.3986,,144.2509,144.2513,0.112037023,0.113888882,0,0,0,,0,25,25,285,1,,,,
,,,,,,9a8af3135c09cf7c9cfcb05c,66a626ef09d4e21e1a8894ec,673606c62238f947512d2937,2024-11-14_15h19.05.462,Tarea de género gramatical,2024.2.2,Win32,60.97560976,,,,,,,,,,,,,,,,,,,,,,,144.2528,145.2978,a,1,[],[],[],[],[],[],[],0.3663,1,145.298,145.7966,,,,,,792,MAS,AGR,150,abuelo,el,l,0.3663,,145.7966,145.7967,0.112037023,0.113888882,0,0,0,,0,26,26,341,1,,,,
,,,,,,9a8af3135c09cf7c9cfcb05c,66a626ef09d4e21e1a8894ec,673606c62238f947512d2937,2024-11-14_15h19.05.462,Tarea de género gramatical,2024.2.2,Win32,60.97560976,,,,,,,,,,,,,,,,,,,,,,,145.7976,146.8936,a,1,[],[],[],[],[],[],[],0.4245,1,146.8937,147.3918,,,,,,756,MAS,AGR,150,dinero,el,l,0.4245,,147.3918,147.3919,0.112037023,0.113888882,0,0,0,,0,27,27,305,1,,,,
,,,,,,9a8af3135c09cf7c9cfcb05c,66a626ef09d4e21e1a8894ec,673606c62238f947512d2937,2024-11-14_15h19.05.462,Tarea de género gramatical,2024.2.2,Win32,60.97560976,,,,,,,,,,,,,,,,,,,,,,,147.3929,148.4561,a,1,[],[],[],[],[],[],[],0.3913,1,148.4563,148.9548,,,,,,744,MAS,AGR,150,cable,el,l,0.3913,,148.9549,148.955,0.112037023,0.113888882,0,0,0,,0,28,28,293,1,,,,
,,,,,,9a8af3135c09cf7c9cfcb05c,66a626ef09d4e21e1a8894ec,673606c62238f947512d2937,2024-11-14_15h19.05.462,Tarea de género gramatical,2024.2.2,Win32,60.97560976,,,,,,,,,,,,,,,,,,,,,,,148.9564,150.0019,a,1,[],[],[],[],[],[],[],0.3767,1,150.0021,150.5,,,,,,864,MAS,AGR,150,sótano,el,l,0.3767,,150.5015,150.5024,0.112037023,0.113888882,0,0,0,,0,29,29,413,1,,,,
,,,,,,9a8af3135c09cf7c9cfcb05c,66a626ef09d4e21e1a8894ec,673606c62238f947512d2937,2024-11-14_15h19.05.462,Tarea de género gramatical,2024.2.2,Win32,60.97560976,,,,,,,,,,,,,,,,,,,,,,,150.5034,151.4644,a,1,[],[],[],[],[],[],[],0.2839,1,151.4645,151.963,,,,,,684,MAS,AGR,150,héroe,el,l,0.2839,,151.963,151.9631,0.112037023,0.113888882,0,0,0,,0,30,30,233,1,,,,
,,,,,,9a8af3135c09cf7c9cfcb05c,66a626ef09d4e21e1a8894ec,673606c62238f947512d2937,2024-11-14_15h19.05.462,Tarea de género gramatical,2024.2.2,Win32,60.97560976,,,,,,,,,,,,,,,,,,,,,,,151.964,152.9769,l,1,[],[],[],[],[],[],[],0.3385,1,152.9771,153.4756,,,,,,649,FEM,CON,150,nariz,,a,0.3385,,153.4757,153.4757,0.112037023,0.113888882,0,0,0,,0,31,31,198,1,,,,
,,,,,,9a8af3135c09cf7c9cfcb05c,66a626ef09d4e21e1a8894ec,673606c62238f947512d2937,2024-11-14_15h19.05.462,Tarea de género gramatical,2024.2.2,Win32,60.97560976,,,,,,,,,,,,,,,,,,,,,,,153.4766,154.4728,a,1,[],[],[],[],[],[],[],0.3162,1,154.4729,154.9716,,,,,,810,MAS,AGR,150,puente,el,l,0.3162,,154.9716,154.9718,0.112037023,0.113888882,0,0,0,,0,32,32,359,1,,,,
,,,,,,9a8af3135c09cf7c9cfcb05c,66a626ef09d4e21e1a8894ec,673606c62238f947512d2937,2024-11-14_15h19.05.462,Tarea de género gramatical,2024.2.2,Win32,60.97560976,,,,,,,,,,,,,,,,,,,,,,,154.9729,156.0184,a,0,[],[],[],[],[],[],[],0.3694,0,156.0196,156.517,,,,,,812,FEM,DIS,150,fuente,el,a,0.3694,,156.5185,156.5193,0.112037023,0.113888882,0,0,0,,0,33,33,361,1,,,,
,,,,,,9a8af3135c09cf7c9cfcb05c,66a626ef09d4e21e1a8894ec,673606c62238f947512d2937,2024-11-14_15h19.05.462,Tarea de género gramatical,2024.2.2,Win32,60.97560976,,,,,,,,,,,,,,,,,,,,,,,156.52,157.6974,l,1,[],[],[],[],[],[],[],0.5089,1,157.6981,158.1958,,,,,,831,FEM,AGR,150,bebida,la,a,0.5089,,158.1958,158.1959,0.112037023,0.113888882,0,0,0,,0,34,34,380,1,,,,
,,,,,,9a8af3135c09cf7c9cfcb05c,66a626ef09d4e21e1a8894ec,673606c62238f947512d2937,2024-11-14_15h19.05.462,Tarea de género gramatical,2024.2.2,Win32,60.97560976,,,,,,,,,,,,,,,,,,,,,,,158.1969,159.5419,l,1,[],[],[],[],[],[],[],0.6649,1,159.542,160.0406,,,,,,795,FEM,AGR,150,pierna,la,a,0.6649,,160.0406,160.0407,0.112037023,0.113888882,0,0,0,,0,35,35,344,1,,,,
,,,,,,9a8af3135c09cf7c9cfcb05c,66a626ef09d4e21e1a8894ec,673606c62238f947512d2937,2024-11-14_15h19.05.462,Tarea de género gramatical,2024.2.2,Win32,60.97560976,,,,,,,,,,,,,,,,,,,,,,,160.0418,161.1211,a,1,[],[],[],[],[],[],[],0.4046,1,161.1212,161.6197,,,,,,646,MAS,CON,150,barco,,l,0.4046,,161.6197,161.6198,0.112037023,0.113888882,0,0,0,,0,36,36,195,1,,,,
,,,,,,9a8af3135c09cf7c9cfcb05c,66a626ef09d4e21e1a8894ec,673606c62238f947512d2937,2024-11-14_15h19.05.462,Tarea de género gramatical,2024.2.2,Win32,60.97560976,,,,,,,,,,,,,,,,,,,,,,,161.6208,162.6668,l,1,[],[],[],[],[],[],[],0.3656,1,162.667,163.166,,,,,,573,FEM,AGR,150,tela,la,a,0.3656,,163.1661,163.1662,0.112037023,0.113888882,0,0,0,,0,37,37,122,1,,,,
,,,,,,9a8af3135c09cf7c9cfcb05c,66a626ef09d4e21e1a8894ec,673606c62238f947512d2937,2024-11-14_15h19.05.462,Tarea de género gramatical,2024.2.2,Win32,60.97560976,,,,,,,,,,,,,,,,,,,,,,,163.1675,164.2795,a,0,[],[],[],[],[],[],[],0.4377,0,164.2804,164.7776,,,,,,529,FEM,CON,150,mina,,a,0.4377,,164.7797,164.7806,0.112037023,0.113888882,0,0,0,,0,38,38,78,1,,,,
,,,,,,9a8af3135c09cf7c9cfcb05c,66a626ef09d4e21e1a8894ec,673606c62238f947512d2937,2024-11-14_15h19.05.462,Tarea de género gramatical,2024.2.2,Win32,60.97560976,,,,,,,,,,,,,,,,,,,,,,,164.7815,165.8088,a,1,[],[],[],[],[],[],[],0.3505,1,165.8099,166.3076,,,,,,888,MAS,AGR,150,tanque,el,l,0.3505,,166.3077,166.3079,0.112037023,0.113888882,0,0,0,,0,39,39,437,1,,,,
,,,,,,9a8af3135c09cf7c9cfcb05c,66a626ef09d4e21e1a8894ec,673606c62238f947512d2937,2024-11-14_15h19.05.462,Tarea de género gramatical,2024.2.2,Win32,60.97560976,,,,,,,,,,,,,,,,,,,,,,,166.3093,167.3546,l,1,[],[],[],[],[],[],[],0.3684,1,167.3547,167.8532,,,,,,715,FEM,CON,150,rueda,,a,0.3684,,167.8533,167.8534,0.112037023,0.113888882,0,0,0,,0,40,40,264,1,,,,
,,,,,,9a8af3135c09cf7c9cfcb05c,66a626ef09d4e21e1a8894ec,673606c62238f947512d2937,2024-11-14_15h19.05.462,Tarea de género gramatical,2024.2.2,Win32,60.97560976,,,,,,,,,,,,,,,,,,,,,,,167.8554,169.0001,l,1,[],[],[],[],[],[],[],0.4659,1,169.0002,169.4987,,,,,,554,FEM,DIS,150,vela,el,a,0.4659,,169.4988,169.4989,0.112037023,0.113888882,0,0,0,,0,41,41,103,1,,,,
,,,,,,9a8af3135c09cf7c9cfcb05c,66a626ef09d4e21e1a8894ec,673606c62238f947512d2937,2024-11-14_15h19.05.462,Tarea de género gramatical,2024.2.2,Win32,60.97560976,,,,,,,,,,,,,,,,,,,,,,,169.5002,170.4956,a,1,[],[],[],[],[],[],[],0.3173,1,170.4958,170.9945,,,,,,611,MAS,DIS,150,chico,la,l,0.3173,,170.9965,170.9977,0.112037023,0.113888882,0,0,0,,0,42,42,160,1,,,,
,,,,,,9a8af3135c09cf7c9cfcb05c,66a626ef09d4e21e1a8894ec,673606c62238f947512d2937,2024-11-14_15h19.05.462,Tarea de género gramatical,2024.2.2,Win32,60.97560976,,,,,,,,,,,,,,,,,,,,,,,170.9987,172.175,l,1,[],[],[],[],[],[],[],0.5007,1,172.1754,172.6734,,,,,,625,FEM,CON,150,señal,,a,0.5007,,172.6735,172.6737,0.112037023,0.113888882,0,0,0,,0,43,43,174,1,,,,
,,,,,,9a8af3135c09cf7c9cfcb05c,66a626ef09d4e21e1a8894ec,673606c62238f947512d2937,2024-11-14_15h19.05.462,Tarea de género gramatical,2024.2.2,Win32,60.97560976,,,,,,,,,,,,,,,,,,,,,,,172.6755,173.7703,a,0,[],[],[],[],[],[],[],0.4162,0,173.771,174.2687,,,,,,536,FEM,DIS,150,cruz,el,a,0.4162,,174.2687,174.2687,0.112037023,0.113888882,0,0,0,,0,44,44,85,1,,,,
,,,,,,9a8af3135c09cf7c9cfcb05c,66a626ef09d4e21e1a8894ec,673606c62238f947512d2937,2024-11-14_15h19.05.462,Tarea de género gramatical,2024.2.2,Win32,60.97560976,,,,,,,,,,,,,,,,,,,,,,,174.2697,175.2659,a,1,[],[],[],[],[],[],[],0.3195,1,175.2667,175.7645,,,,,,702,MAS,AGR,150,viejo,el,l,0.3195,,175.7646,175.7647,0.112037023,0.113888882,0,0,0,,0,45,45,251,1,,,,
,,,,,,9a8af3135c09cf7c9cfcb05c,66a626ef09d4e21e1a8894ec,673606c62238f947512d2937,2024-11-14_15h19.05.462,Tarea de género gramatical,2024.2.2,Win32,60.97560976,,,,,,,,,,,,,,,,,,,,,,,175.7656,176.8781,a,1,[],[],[],[],[],[],[],0.4416,1,176.8781,177.3766,,,,,,724,MAS,CON,150,motor,,l,0.4416,,177.3766,177.3768,0.112037023,0.113888882,0,0,0,,0,46,46,273,1,,,,
,,,,,,9a8af3135c09cf7c9cfcb05c,66a626ef09d4e21e1a8894ec,673606c62238f947512d2937,2024-11-14_15h19.05.462,Tarea de género gramatical,2024.2.2,Win32,60.97560976,,,,,,,,,,,,,,,,,,,,,,,177.3776,178.3409,a,1,[],[],[],[],[],[],[],0.2815,1,178.341,178.8397,,,,,,622,MAS,CON,150,poder,,l,0.2815,,178.8409,178.8415,0.112037023,0.113888882,0,0,0,,0,47,47,171,1,,,,
,,,,,,9a8af3135c09cf7c9cfcb05c,66a626ef09d4e21e1a8894ec,673606c62238f947512d2937,2024-11-14_15h19.05.462,Tarea de género gramatical,2024.2.2,Win32,60.97560976,,,,,,,,,,,,,,,,,,,,,,,178.8425,179.837,a,1,[],[],[],[],[],[],[],0.3206,1,179.8371,180.3354,,,,,,648,MAS,AGR,150,hotel,el,l,0.3206,,180.3354,180.3355,0.112037023,0.113888882,0,0,0,,0,48,48,197,1,,,,
,,,,,,9a8af3135c09cf7c9cfcb05c,66a626ef09d4e21e1a8894ec,673606c62238f947512d2937,2024-11-14_15h19.05.462,Tarea de género gramatical,2024.2.2,Win32,60.97560976,,,,,,,,,,,,,,,,,,,,,,,180.3366,181.3825,a,1,[],[],[],[],[],[],[],0.3647,1,181.3826,181.8811,,,,,,899,MAS,DIS,150,payaso,la,l,0.3647,,181.8812,181.8814,0.112037023,0.113888882,0,0,0,,0,49,49,448,1,,,,
,,,,,,9a8af3135c09cf7c9cfcb05c,66a626ef09d4e21e1a8894ec,673606c62238f947512d2937,2024-11-14_15h19.05.462,Tarea de género gramatical,2024.2.2,Win32,60.97560976,,,,,,,,,,,,,,,,,,,,,,,181.8826,182.8119,l,1,[],[],[],[],[],[],[],0.2529,1,182.812,183.311,,,,,,704,FEM,DIS,150,caída,el,a,0.2529,,183.311,183.3111,0.112037023,0.113888882,0,0,0,,0,50,50,253,1,,,,
,,,,,,9a8af3135c09cf7c9cfcb05c,66a626ef09d4e21e1a8894ec,673606c62238f947512d2937,2024-11-14_15h19.05.462,Tarea de género gramatical,2024.2.2,Win32,60.97560976,,,,,,,,,,,,,,,,,,,,,,,183.312,184.2747,a,1,[],[],[],[],[],[],[],0.2825,1,184.2747,184.7735,,,,,,474,MAS,AGR,150,voto,el,l,0.2825,,184.7747,184.7754,0.112037023,0.113888882,0,0,0,,0,51,51,23,1,,,,
,,,,,,9a8af3135c09cf7c9cfcb05c,66a626ef09d4e21e1a8894ec,673606c62238f947512d2937,2024-11-14_15h19.05.462,Tarea de género gramatical,2024.2.2,Win32,60.97560976,,,,,,,,,,,,,,,,,,,,,,,184.7764,185.8039,a,1,[],[],[],[],[],[],[],0.3501,1,185.804,186.3023,,,,,,498,MAS,AGR,150,loco,el,l,0.3501,,186.3024,186.3024,0.112037023,0.113888882,0,0,0,,0,52,52,47,1,,,,
,,,,,,9a8af3135c09cf7c9cfcb05c,66a626ef09d4e21e1a8894ec,673606c62238f947512d2937,2024-11-14_15h19.05.462,Tarea de género gramatical,2024.2.2,Win32,60.97560976,,,,,,,,,,,,,,,,,,,,,,,186.3032,187.3662,l,1,[],[],[],[],[],[],[],0.3908,1,187.3662,187.8651,,,,,,571,FEM,CON,150,pila,,a,0.3908,,187.8651,187.8652,0.112037023,0.113888882,0,0,0,,0,53,53,120,1,,,,
,,,,,,9a8af3135c09cf7c9cfcb05c,66a626ef09d4e21e1a8894ec,673606c62238f947512d2937,2024-11-14_15h19.05.462,Tarea de género gramatical,2024.2.2,Win32,60.97560976,,,,,,,,,,,,,,,,,,,,,,,187.8662,189.0282,a,1,[],[],[],[],[],[],[],0.4831,1,189.0283,189.5268,,,,,,678,MAS,AGR,150,nivel,el,l,0.4831,,189.5268,189.527,0.112037023,0.113888882,0,0,0,,0,54,54,227,1,,,,
,,,,,,9a8af3135c09cf7c9cfcb05c,66a626ef09d4e21e1a8894ec,673606c62238f947512d2937,2024-11-14_15h19.05.462,Tarea de género gramatical,2024.2.2,Win32,60.97560976,,,,,,,,,,,,,,,,,,,,,,,189.5282,190.5244,l,1,[],[],[],[],[],[],[],0.3243,1,190.5244,191.0227,,,,,,597,FEM,AGR,150,grúa,la,a,0.3243,,191.0227,191.0228,0.112037023,0.113888882,0,0,0,,0,55,55,146,1,,,,
,,,,,,9a8af3135c09cf7c9cfcb05c,66a626ef09d4e21e1a8894ec,673606c62238f947512d2937,2024-11-14_15h19.05.462,Tarea de género gramatical,2024.2.2,Win32,60.97560976,,,,,,,,,,,,,,,,,,,,,,,191.0236,192.1364,a,0,[],[],[],[],[],[],[],0.4382,0,192.1372,192.6353,,,,,,757,FEM,CON,150,suerte,,a,0.4382,,192.6366,192.6373,0.112037023,0.113888882,0,0,0,,0,56,56,306,1,,,,
,,,,,,9a8af3135c09cf7c9cfcb05c,66a626ef09d4e21e1a8894ec,673606c62238f947512d2937,2024-11-14_15h19.05.462,Tarea de género gramatical,2024.2.2,Win32,60.97560976,,,,,,,,,,,,,,,,,,,,,,,192.6382,193.5494,a,1,[],[],[],[],[],[],[],0.2325,1,193.5503,194.0481,,,,,,714,MAS,AGR,150,pollo,el,l,0.2325,,194.0481,194.0483,0.112037023,0.113888882,0,0,0,,0,57,57,263,1,,,,
,,,,,,9a8af3135c09cf7c9cfcb05c,66a626ef09d4e21e1a8894ec,673606c62238f947512d2937,2024-11-14_15h19.05.462,Tarea de género gramatical,2024.2.2,Win32,60.97560976,,,,,,,,,,,,,,,,,,,,,,,194.0492,195.0454,l,1,[],[],[],[],[],[],[],0.3151,1,195.0454,195.544,,,,,,782,FEM,DIS,150,basura,el,a,0.3151,,195.5441,195.5442,0.112037023,0.113888882,0,0,0,,0,58,58,331,1,,,,
,,,,,,9a8af3135c09cf7c9cfcb05c,66a626ef09d4e21e1a8894ec,673606c62238f947512d2937,2024-11-14_15h19.05.462,Tarea de género gramatical,2024.2.2,Win32,60.97560976,,,,,,,,,,,,,,,,,,,,,,,195.545,196.6077,l,1,[],[],[],[],[],[],[],0.383,1,196.6079,197.1061,,,,,,553,FEM,CON,150,fama,,a,0.383,,197.1061,197.1063,0.112037023,0.113888882,0,0,0,,0,59,59,102,1,,,,
,,,,,,9a8af3135c09cf7c9cfcb05c,66a626ef09d4e21e1a8894ec,673606c62238f947512d2937,2024-11-14_15h19.05.462,Tarea de género gramatical,2024.2.2,Win32,60.97560976,,,,,,,,,,,,,,,,,,,,,,,197.1072,198.1868,a,1,[],[],[],[],[],[],[],0.4031,1,198.187,198.6854,,,,,,725,MAS,DIS,150,disco,la,l,0.4031,,198.6866,198.6873,0.112037023,0.113888882,0,0,0,,0,60,60,274,1,,,,
,,,,,,9a8af3135c09cf7c9cfcb05c,66a626ef09d4e21e1a8894ec,673606c62238f947512d2937,2024-11-14_15h19.05.462,Tarea de género gramatical,2024.2.2,Win32,60.97560976,,,,,,,,,,,,,,,,,,,,,,,198.6882,200.1316,l,0,[],[],[],[],[],[],[],0.7658,0,200.1322,200.6303,,,,,,846,MAS,AGR,150,tesoro,el,l,0.7658,,200.6304,200.6305,0.112037023,0.113888882,0,0,0,,0,61,61,395,1,,,,
,,,,,,9a8af3135c09cf7c9cfcb05c,66a626ef09d4e21e1a8894ec,673606c62238f947512d2937,2024-11-14_15h19.05.462,Tarea de género gramatical,2024.2.2,Win32,60.97560976,,,,,,,,,,,,,,,,,,,,,,,200.6314,202.3256,a,1,[],[],[],[],[],[],[],1.0162,1,202.3263,202.8241,,,,,,647,MAS,DIS,150,avión,la,l,1.0162,,202.8242,202.8242,0.112037023,0.113888882,0,0,0,,0,62,62,196,1,,,,
,,,,,,9a8af3135c09cf7c9cfcb05c,66a626ef09d4e21e1a8894ec,673606c62238f947512d2937,2024-11-14_15h19.05.462,Tarea de género gramatical,2024.2.2,Win32,60.97560976,,,,,,,,,,,,,,,,,,,,,,,202.8251,204.054,a,1,[],[],[],[],[],[],[],0.5534,1,204.0541,204.5528,,,,,,580,MAS,CON,150,yate,,l,0.5534,,204.5528,204.553,0.112037023,0.113888882,0,0,0,,0,63,63,129,1,,,,
,,,,,,9a8af3135c09cf7c9cfcb05c,66a626ef09d4e21e1a8894ec,673606c62238f947512d2937,2024-11-14_15h19.05.462,Tarea de género gramatical,2024.2.2,Win32,60.97560976,,,,,,,,,,,,,,,,,,,,,,,204.5538,205.6827,l,1,[],[],[],[],[],[],[],0.4473,1,205.6828,206.1814,,,,,,607,FEM,CON,150,madre,,a,0.4473,,206.1814,206.1815,0.112037023,0.113888882,0,0,0,,0,64,64,156,1,,,,
,,,,,,9a8af3135c09cf7c9cfcb05c,66a626ef09d4e21e1a8894ec,673606c62238f947512d2937,2024-11-14_15h19.05.462,Tarea de género gramatical,2024.2.2,Win32,60.97560976,,,,,,,,,,,,,,,,,,,,,,,206.1824,207.179,a,1,[],[],[],[],[],[],[],0.3184,1,207.1791,207.6771,,,,,,784,MAS,CON,150,ataque,,l,0.3184,,207.6784,207.6791,0.112037023,0.113888882,0,0,0,,0,65,65,333,1,,,,
,,,,,,9a8af3135c09cf7c9cfcb05c,66a626ef09d4e21e1a8894ec,673606c62238f947512d2937,2024-11-14_15h19.05.462,Tarea de género gramatical,2024.2.2,Win32,60.97560976,,,,,,,,,,,,,,,,,,,,,,,207.6799,208.758,l,1,[],[],[],[],[],[],[],0.4015,1,208.758,209.2565,,,,,,699,FEM,AGR,150,crema,la,a,0.4015,,209.2567,209.2567,0.112037023,0.113888882,0,0,0,,0,66,66,248,1,,,,
,,,,,,9a8af3135c09cf7c9cfcb05c,66a626ef09d4e21e1a8894ec,673606c62238f947512d2937,2024-11-14_15h19.05.462,Tarea de género gramatical,2024.2.2,Win32,60.97560976,,,,,,,,,,,,,,,,,,,,,,,209.2576,210.4035,a,1,[],[],[],[],[],[],[],0.4646,1,210.4035,210.9018,,,,,,700,MAS,CON,150,cerdo,,l,0.4646,,210.9018,210.902,0.112037023,0.113888882,0,0,0,,0,67,67,249,1,,,,
,,,,,,9a8af3135c09cf7c9cfcb05c,66a626ef09d4e21e1a8894ec,673606c62238f947512d2937,2024-11-14_15h19.05.462,Tarea de género gramatical,2024.2.2,Win32,60.97560976,,,,,,,,,,,,,,,,,,,,,,,210.9029,211.9328,l,1,[],[],[],[],[],[],[],0.3497,1,211.9328,212.4312,,,,,,878,FEM,DIS,150,jugada,el,a,0.3497,,212.4313,212.4314,0.112037023,0.113888882,0,0,0,,0,68,68,427,1,,,,
,,,,,,9a8af3135c09cf7c9cfcb05c,66a626ef09d4e21e1a8894ec,673606c62238f947512d2937,2024-11-14_15h19.05.462,Tarea de género gramatical,2024.2.2,Win32,60.97560976,,,,,,,,,,,,,,,,,,,,,,,212.4324,213.6778,l,1,[],[],[],[],[],[],[],0.5759,1,213.6778,214.1765,,,,,,705,FEM,AGR,150,tribu,la,a,0.5759,,214.1777,214.1783,0.112037023,0.113888882,0,0,0,,0,69,69,254,1,,,,
,,,,,,9a8af3135c09cf7c9cfcb05c,66a626ef09d4e21e1a8894ec,673606c62238f947512d2937,2024-11-14_15h19.05.462,Tarea de género gramatical,2024.2.2,Win32,60.97560976,,,,,,,,,,,,,,,,,,,,,,,214.179,215.1574,l,1,[],[],[],[],[],[],[],0.3039,1,215.1576,215.6557,,,,,,583,FEM,CON,150,joya,,a,0.3039,,215.6558,215.6559,0.112037023,0.113888882,0,0,0,,0,70,70,132,1,,,,
,,,,,,9a8af3135c09cf7c9cfcb05c,66a626ef09d4e21e1a8894ec,673606c62238f947512d2937,2024-11-14_15h19.05.462,Tarea de género gramatical,2024.2.2,Win32,60.97560976,,,,,,,,,,,,,,,,,,,,,,,215.6567,216.5865,a,0,[],[],[],[],[],[],[],0.2498,0,216.5872,217.0848,,,,,,770,FEM,DIS,150,fiesta,el,a,0.2498,,217.0848,217.0849,0.112037023,0.113888882,0,0,0,,0,71,71,319,1,,,,
,,,,,,9a8af3135c09cf7c9cfcb05c,66a626ef09d4e21e1a8894ec,673606c62238f947512d2937,2024-11-14_15h19.05.462,Tarea de género gramatical,2024.2.2,Win32,60.97560976,,,,,,,,,,,,,,,,,,,,,,,217.0859,218.0324,a,1,[],[],[],[],[],[],[],0.2692,1,218.033,218.5321,,,,,,773,MAS,DIS,150,marido,la,l,0.2692,,218.5321,218.5323,0.112037023,0.113888882,0,0,0,,0,72,72,322,1,,,,
,,,,,,9a8af3135c09cf7c9cfcb05c,66a626ef09d4e21e1a8894ec,673606c62238f947512d2937,2024-11-14_15h19.05.462,Tarea de género gramatical,2024.2.2,Win32,60.97560976,,,,,,,,,,,,,,,,,,,,,,,218.5331,219.5286,a,1,[],[],[],[],[],[],[],0.3224,1,219.5286,220.0273,,,,,,588,MAS,AGR,150,luto,el,l,0.3224,,220.0273,220.0274,0.112037023,0.113888882,0,0,0,,0,73,73,137,1,,,,
,,,,,,9a8af3135c09cf7c9cfcb05c,66a626ef09d4e21e1a8894ec,673606c62238f947512d2937,2024-11-14_15h19.05.462,Tarea de género gramatical,2024.2.2,Win32,60.97560976,,,,,,,,,,,,,,,,,,,,,,,220.0284,221.1574,l,1,[],[],[],[],[],[],[],0.4513,1,221.1576,221.6561,,,,,,866,FEM,DIS,150,colina,el,a,0.4513,,221.6574,221.6582,0.112037023,0.113888882,0,0,0,,0,74,74,415,1,,,,
,,,,,,9a8af3135c09cf7c9cfcb05c,66a626ef09d4e21e1a8894ec,673606c62238f947512d2937,2024-11-14_15h19.05.462,Tarea de género gramatical,2024.2.2,Win32,60.97560976,,,,,,,,,,,,,,,,,,,,,,,221.6592,222.7862,a,1,[],[],[],[],[],[],[],0.4585,1,222.7864,223.2849,,,,,,900,MAS,AGR,150,conejo,el,l,0.4585,,223.285,223.2851,0.112037023,0.113888882,0,0,0,,0,75,75,449,1,,,,
,,,,,,9a8af3135c09cf7c9cfcb05c,66a626ef09d4e21e1a8894ec,673606c62238f947512d2937,2024-11-14_15h19.05.462,Tarea de género gramatical,2024.2.2,Win32,60.97560976,,,,,,,,,,,,,,,,,,,,,,,223.286,224.3487,a,1,[],[],[],[],[],[],[],0.3877,1,224.3488,224.8474,,,,,,815,MAS,DIS,150,código,la,l,0.3877,,224.8474,224.8478,0.112037023,0.113888882,0,0,0,,0,76,76,364,1,,,,
,,,,,,9a8af3135c09cf7c9cfcb05c,66a626ef09d4e21e1a8894ec,673606c62238f947512d2937,2024-11-14_15h19.05.462,Tarea de género gramatical,2024.2.2,Win32,60.97560976,,,,,,,,,,,,,,,,,,,,,,,224.8489,225.8614,a,1,[],[],[],[],[],[],[],0.3316,1,225.8616,226.3599,,,,,,780,MAS,AGR,150,estado,el,l,0.3316,,226.36,226.3601,0.112037023,0.113888882,0,0,0,,0,77,77,329,1,,,,
,,,,,,9a8af3135c09cf7c9cfcb05c,66a626ef09d4e21e1a8894ec,673606c62238f947512d2937,2024-11-14_15h19.05.462,Tarea de género gramatical,2024.2.2,Win32,60.97560976,,,,,,,,,,,,,,,,,,,,,,,226.3609,227.4569,a,1,[],[],[],[],[],[],[],0.4204,1,227.457,227.9554,,,,,,574,MAS,CON,150,clan,,l,0.4204,,227.9566,227.9572,0.112037023,0.113888882,0,0,0,,0,78,78,123,1,,,,
,,,,,,9a8af3135c09cf7c9cfcb05c,66a626ef09d4e21e1a8894ec,673606c62238f947512d2937,2024-11-14_15h19.05.462,Tarea de género gramatical,2024.2.2,Win32,60.97560976,,,,,,,,,,,,,,,,,,,,,,,227.9581,228.9694,l,1,[],[],[],[],[],[],[],0.3372,1,228.9696,229.4681,,,,,,475,FEM,CON,150,nave,,a,0.3372,,229.4681,229.4682,0.112037023,0.113888882,0,0,0,,0,79,79,24,1,,,,
,,,,,,9a8af3135c09cf7c9cfcb05c,66a626ef09d4e21e1a8894ec,673606c62238f947512d2937,2024-11-14_15h19.05.462,Tarea de género gramatical,2024.2.2,Win32,60.97560976,,,,,,,,,,,,,,,,,,,,,,,229.4691,230.482,a,1,[],[],[],[],[],[],[],0.3387,1,230.4821,230.9804,,,,,,696,MAS,AGR,150,humor,el,l,0.3387,,230.9804,230.9805,0.112037023,0.113888882,0,0,0,,0,80,80,245,1,,,,
,,,,,,9a8af3135c09cf7c9cfcb05c,66a626ef09d4e21e1a8894ec,673606c62238f947512d2937,2024-11-14_15h19.05.462,Tarea de género gramatical,2024.2.2,Win32,60.97560976,,,,,,,,,,,,,,,,,,,,,,,230.9815,232.0112,l,1,[],[],[],[],[],[],[],0.3598,1,232.0113,232.5097,,,,,,733,FEM,CON,150,pluma,,a,0.3598,,232.5097,232.5098,0.112037023,0.113888882,0,0,0,,0,81,81,282,1,,,,
,,,,,,9a8af3135c09cf7c9cfcb05c,66a626ef09d4e21e1a8894ec,673606c62238f947512d2937,2024-11-14_15h19.05.462,Tarea de género gramatical,2024.2.2,Win32,60.97560976,,,,,,,,,,,,,,,,,,,,,,,232.5108,233.5243,a,1,[],[],[],[],[],[],[],0.3336,1,233.5244,234.0222,,,,,,671,MAS,DIS,150,brazo,la,l,0.3336,,234.0222,234.0223,0.112037023,0.113888882,0,0,0,,0,82,82,220,1,,,,
,,,,,,9a8af3135c09cf7c9cfcb05c,66a626ef09d4e21e1a8894ec,673606c62238f947512d2937,2024-11-14_15h19.05.462,Tarea de género gramatical,2024.2.2,Win32,60.97560976,,,,,,,,,,,,,,,,,,,,,,,234.0233,235.0692,a,1,[],[],[],[],[],[],[],0.3668,1,235.0693,235.5679,,,,,,833,MAS,DIS,150,parque,la,l,0.3668,,235.5691,235.5697,0.112037023,0.113888882,0,0,0,,0,83,83,382,1,,,,
,,,,,,9a8af3135c09cf7c9cfcb05c,66a626ef09d4e21e1a8894ec,673606c62238f947512d2937,2024-11-14_15h19.05.462,Tarea de género gramatical,2024.2.2,Win32,60.97560976,,,,,,,,,,,,,,,,,,,,,,,235.5705,236.5154,l,1,[],[],[],[],[],[],[],0.2642,1,236.5155,237.0137,,,,,,727,FEM,CON,150,plaza,,a,0.2642,,237.0138,237.0139,0.112037023,0.113888882,0,0,0,,0,84,84,276,1,,,,
,,,,,,9a8af3135c09cf7c9cfcb05c,66a626ef09d4e21e1a8894ec,673606c62238f947512d2937,2024-11-14_15h19.05.462,Tarea de género gramatical,2024.2.2,Win32,60.97560976,,,,,,,,,,,,,,,,,,,,,,,237.0148,238.111,l,1,[],[],[],[],[],[],[],0.4268,1,238.111,238.6097,,,,,,741,FEM,AGR,150,aguja,la,a,0.4268,,238.6098,238.6099,0.112037023,0.113888882,0,0,0,,0,85,85,290,1,,,,
,,,,,,9a8af3135c09cf7c9cfcb05c,66a626ef09d4e21e1a8894ec,673606c62238f947512d2937,2024-11-14_15h19.05.462,Tarea de género gramatical,2024.2.2,Win32,60.97560976,,,,,,,,,,,,,,,,,,,,,,,238.6108,239.5902,a,1,[],[],[],[],[],[],[],0.3008,1,239.5903,240.0891,,,,,,802,MAS,CON,150,estilo,,l,0.3008,,240.0891,240.0892,0.112037023,0.113888882,0,0,0,,0,86,86,351,1,,,,
,,,,,,9a8af3135c09cf7c9cfcb05c,66a626ef09d4e21e1a8894ec,673606c62238f947512d2937,2024-11-14_15h19.05.462,Tarea de género gramatical,2024.2.2,Win32,60.97560976,,,,,,,,,,,,,,,,,,,,,,,240.0901,241.1528,a,1,[],[],[],[],[],[],[],0.3895,1,241.1529,241.6515,,,,,,587,MAS,DIS,150,coco,la,l,0.3895,,241.6526,241.6532,0.112037023,0.113888882,0,0,0,,0,87,87,136,1,,,,
,,,,,,9a8af3135c09cf7c9cfcb05c,66a626ef09d4e21e1a8894ec,673606c62238f947512d2937,2024-11-14_15h19.05.462,Tarea de género gramatical,2024.2.2,Win32,60.97560976,,,,,,,,,,,,,,,,,,,,,,,241.6539,242.6816,l,1,[],[],[],[],[],[],[],0.3594,1,242.6817,243.1807,,,,,,806,FEM,DIS,150,piedra,el,a,0.3594,,243.1808,243.1809,0.112037023,0.113888882,0,0,0,,0,88,88,355,1,,,,
,,,,,,9a8af3135c09cf7c9cfcb05c,66a626ef09d4e21e1a8894ec,673606c62238f947512d2937,2024-11-14_15h19.05.462,Tarea de género gramatical,2024.2.2,Win32,60.97560976,,,,,,,,,,,,,,,,,,,,,,,243.1821,244.1775,a,1,[],[],[],[],[],[],[],0.3288,1,244.1777,244.6765,,,,,,485,MAS,DIS,150,taxi,la,l,0.3288,,244.6766,244.6766,0.112037023,0.113888882,0,0,0,,0,89,89,34,1,,,,
,,,,,,9a8af3135c09cf7c9cfcb05c,66a626ef09d4e21e1a8894ec,673606c62238f947512d2937,2024-11-14_15h19.05.462,Tarea de género gramatical,2024.2.2,Win32,60.97560976,,,,,,,,,,,,,,,,,,,,,,,244.6776,245.7236,a,1,[],[],[],[],[],[],[],0.366,1,245.7238,246.2221,,,,,,509,MAS,DIS,150,lobo,la,l,0.366,,246.2221,246.2222,0.112037023,0.113888882,0,0,0,,0,90,90,58,1,,,,
,,,,,,9a8af3135c09cf7c9cfcb05c,66a626ef09d4e21e1a8894ec,673606c62238f947512d2937,2024-11-14_15h19.05.462,Tarea de género gramatical,2024.2.2,Win32,60.97560976,,,,,,,,,,,,,,,,,,,,,,,246.223,247.2527,l,1,[],[],[],[],[],[],[],0.3529,1,247.2528,247.7514,,,,,,494,FEM,DIS,150,zona,el,a,0.3529,,247.7515,247.7516,0.112037023,0.113888882,0,0,0,,0,91,91,43,1,,,,
,,,,,,9a8af3135c09cf7c9cfcb05c,66a626ef09d4e21e1a8894ec,673606c62238f947512d2937,2024-11-14_15h19.05.462,Tarea de género gramatical,2024.2.2,Win32,60.97560976,,,,,,,,,,,,,,,,,,,,,,,247.7525,248.6819,a,1,[],[],[],[],[],[],[],0.2523,1,248.6821,249.1809,,,,,,798,MAS,AGR,150,anillo,el,l,0.2523,,249.1821,249.1827,0.112037023,0.113888882,0,0,0,,0,92,92,347,1,,,,
,,,,,,9a8af3135c09cf7c9cfcb05c,66a626ef09d4e21e1a8894ec,673606c62238f947512d2937,2024-11-14_15h19.05.462,Tarea de género gramatical,2024.2.2,Win32,60.97560976,,,,,,,,,,,,,,,,,,,,,,,249.1835,250.3776,l,1,[],[],[],[],[],[],[],0.5158,1,250.3778,250.8766,,,,,,559,FEM,CON,150,gota,,a,0.5158,,250.8767,250.8768,0.112037023,0.113888882,0,0,0,,0,93,93,108,1,,,,
,,,,,,9a8af3135c09cf7c9cfcb05c,66a626ef09d4e21e1a8894ec,673606c62238f947512d2937,2024-11-14_15h19.05.462,Tarea de género gramatical,2024.2.2,Win32,60.97560976,,,,,,,,,,,,,,,,,,,,,,,250.8781,251.9398,a,1,[],[],[],[],[],[],[],0.3827,1,251.9399,252.4387,,,,,,527,MAS,DIS,150,pico,la,l,0.3827,,252.4387,252.4389,0.112037023,0.113888882,0,0,0,,0,94,94,76,1,,,,
,,,,,,9a8af3135c09cf7c9cfcb05c,66a626ef09d4e21e1a8894ec,673606c62238f947512d2937,2024-11-14_15h19.05.462,Tarea de género gramatical,2024.2.2,Win32,60.97560976,,,,,,,,,,,,,,,,,,,,,,,252.4397,253.4691,a,1,[],[],[],[],[],[],[],0.3569,1,253.4692,253.9681,,,,,,630,MAS,AGR,150,fuego,el,l,0.3569,,253.9682,253.9683,0.112037023,0.113888882,0,0,0,,0,95,95,179,1,,,,
,,,,,,9a8af3135c09cf7c9cfcb05c,66a626ef09d4e21e1a8894ec,673606c62238f947512d2937,2024-11-14_15h19.05.462,Tarea de género gramatical,2024.2.2,Win32,60.97560976,,,,,,,,,,,,,,,,,,,,,,,253.9695,254.9983,l,1,[],[],[],[],[],[],[],0.3595,1,254.9984,255.497,,,,,,667,FEM,CON,150,tarea,,a,0.3595,,255.4981,255.4988,0.112037023,0.113888882,0,0,0,,0,96,96,216,1,,,,
,,,,,,9a8af3135c09cf7c9cfcb05c,66a626ef09d4e21e1a8894ec,673606c62238f947512d2937,2024-11-14_15h19.05.462,Tarea de género gramatical,2024.2.2,Win32,60.97560976,,,,,,,,,,,,,,,,,,,,,,,255.4997,256.4114,a,1,[],[],[],[],[],[],[],0.2337,1,256.4115,256.9098,,,,,,640,MAS,CON,150,campo,,l,0.2337,,256.9098,256.9099,0.112037023,0.113888882,0,0,0,,0,97,97,189,1,,,,
,,,,,,9a8af3135c09cf7c9cfcb05c,66a626ef09d4e21e1a8894ec,673606c62238f947512d2937,2024-11-14_15h19.05.462,Tarea de género gramatical,2024.2.2,Win32,60.97560976,,,,,,,,,,,,,,,,,,,,,,,256.9111,257.8572,a,1,[],[],[],[],[],[],[],0.2676,1,257.8572,258.3559,,,,,,893,MAS,DIS,150,templo,la,l,0.2676,,258.3559,258.3561,0.112037023,0.113888882,0,0,0,,0,98,98,442,1,,,,
,,,,,,9a8af3135c09cf7c9cfcb05c,66a626ef09d4e21e1a8894ec,673606c62238f947512d2937,2024-11-14_15h19.05.462,Tarea de género gramatical,2024.2.2,Win32,60.97560976,,,,,,,,,,,,,,,,,,,,,,,258.3569,259.2701,l,1,[],[],[],[],[],[],[],0.2353,1,259.2701,259.7686,,,,,,747,FEM,AGR,150,manta,la,a,0.2353,,259.7687,259.7688,0.112037023,0.113888882,0,0,0,,0,99,99,296,1,,,,
,,,,,,9a8af3135c09cf7c9cfcb05c,66a626ef09d4e21e1a8894ec,673606c62238f947512d2937,2024-11-14_15h19.05.462,Tarea de género gramatical,2024.2.2,Win32,60.97560976,,,,,,,,,,,,,,,,,,,,,,,259.7697,260.716,l,1,[],[],[],[],[],[],[],0.2669,1,260.7161,261.2145,,,,,,662,FEM,DIS,150,cinta,el,a,0.2669,,261.2146,261.2146,0.112037023,0.113888882,0,0,0,,0,100,100,211,1,,,,
,,,,,,9a8af3135c09cf7c9cfcb05c,66a626ef09d4e21e1a8894ec,673606c62238f947512d2937,2024-11-14_15h19.05.462,Tarea de género gramatical,2024.2.2,Win32,60.97560976,,,,,,,,,,,,,,,,,,,,,,,261.2155,262.1289,a,1,[],[],[],[],[],[],[],0.2329,1,262.129,262.6276,,,,,,834,MAS,AGR,150,pedazo,el,l,0.2329,,262.6286,262.6293,0.112037023,0.113888882,0,0,0,,0,101,101,383,1,,,,
,,,,,,9a8af3135c09cf7c9cfcb05c,66a626ef09d4e21e1a8894ec,673606c62238f947512d2937,2024-11-14_15h19.05.462,Tarea de género gramatical,2024.2.2,Win32,60.97560976,,,,,,,,,,,,,,,,,,,,,,,262.63,263.7244,l,1,[],[],[],[],[],[],[],0.4187,1,263.7245,264.2234,,,,,,589,FEM,CON,150,pipa,,a,0.4187,,264.2234,264.2236,0.112037023,0.113888882,0,0,0,,0,102,102,138,1,,,,
,,,,,,9a8af3135c09cf7c9cfcb05c,66a626ef09d4e21e1a8894ec,673606c62238f947512d2937,2024-11-14_15h19.05.462,Tarea de género gramatical,2024.2.2,Win32,60.97560976,,,,,,,,,,,,,,,,,,,,,,,264.2245,265.6193,a,1,[],[],[],[],[],[],[],0.725,1,265.6194,266.118,,,,,,539,MAS,DIS,150,maíz,la,l,0.725,,266.1181,266.1181,0.112037023,0.113888882,0,0,0,,0,103,103,88,1,,,,
,,,,,,9a8af3135c09cf7c9cfcb05c,66a626ef09d4e21e1a8894ec,673606c62238f947512d2937,2024-11-14_15h19.05.462,Tarea de género gramatical,2024.2.2,Win32,60.97560976,,,,,,,,,,,,,,,,,,,,,,,266.119,267.1149,l,1,[],[],[],[],[],[],[],0.3158,1,267.115,267.6136,,,,,,639,FEM,AGR,150,pista,la,a,0.3158,,267.6137,267.6138,0.112037023,0.113888882,0,0,0,,0,104,104,188,1,,,,
,,,,,,9a8af3135c09cf7c9cfcb05c,66a626ef09d4e21e1a8894ec,673606c62238f947512d2937,2024-11-14_15h19.05.462,Tarea de género gramatical,2024.2.2,Win32,60.97560976,,,,,,,,,,,,,,,,,,,,,,,267.6149,268.7774,l,1,[],[],[],[],[],[],[],0.4898,1,268.7774,269.276,,,,,,783,FEM,AGR,150,locura,la,a,0.4898,,269.277,269.2777,0.112037023,0.113888882,0,0,0,,0,105,105,332,1,,,,
,,,,,,9a8af3135c09cf7c9cfcb05c,66a626ef09d4e21e1a8894ec,673606c62238f947512d2937,2024-11-14_15h19.05.462,Tarea de género gramatical,2024.2.2,Win32,60.97560976,,,,,,,,,,,,,,,,,,,,,,,269.2784,270.2566,a,1,[],[],[],[],[],[],[],0.3048,1,270.2567,270.7551,,,,,,695,MAS,DIS,150,turno,la,l,0.3048,,270.7551,270.7552,0.112037023,0.113888882,0,0,0,,0,106,106,244,1,,,,
,,,,,,9a8af3135c09cf7c9cfcb05c,66a626ef09d4e21e1a8894ec,673606c62238f947512d2937,2024-11-14_15h19.05.462,Tarea de género gramatical,2024.2.2,Win32,60.97560976,,,,,,,,,,,,,,,,,,,,,,,270.7562,271.7693,l,1,[],[],[],[],[],[],[],0.3429,1,271.7693,272.2676,,,,,,711,FEM,AGR,150,cueva,la,a,0.3429,,272.2676,272.2677,0.112037023,0.113888882,0,0,0,,0,107,107,260,1,,,,
,,,,,,9a8af3135c09cf7c9cfcb05c,66a626ef09d4e21e1a8894ec,673606c62238f947512d2937,2024-11-14_15h19.05.462,Tarea de género gramatical,2024.2.2,Win32,60.97560976,,,,,,,,,,,,,,,,,,,,,,,272.2686,273.2817,a,1,[],[],[],[],[],[],[],0.3411,1,273.2818,273.7803,,,,,,521,MAS,DIS,150,pozo,la,l,0.3411,,273.7804,273.7805,0.112037023,0.113888882,0,0,0,,0,108,108,70,1,,,,
,,,,,,9a8af3135c09cf7c9cfcb05c,66a626ef09d4e21e1a8894ec,673606c62238f947512d2937,2024-11-14_15h19.05.462,Tarea de género gramatical,2024.2.2,Win32,60.97560976,,,,,,,,,,,,,,,,,,,,,,,273.7814,274.8275,l,1,[],[],[],[],[],[],[],0.3767,1,274.8275,275.3262,,,,,,885,FEM,AGR,150,niebla,la,a,0.3767,,275.3263,275.3264,0.112037023,0.113888882,0,0,0,,0,109,109,434,1,,,,
,,,,,,9a8af3135c09cf7c9cfcb05c,66a626ef09d4e21e1a8894ec,673606c62238f947512d2937,2024-11-14_15h19.05.462,Tarea de género gramatical,2024.2.2,Win32,60.97560976,,,,,,,,,,,,,,,,,,,,,,,275.3273,276.3733,l,1,[],[],[],[],[],[],[],0.3685,1,276.3734,276.8719,,,,,,717,FEM,AGR,150,barba,la,a,0.3685,,276.873,276.8737,0.112037023,0.113888882,0,0,0,,0,110,110,266,1,,,,
,,,,,,9a8af3135c09cf7c9cfcb05c,66a626ef09d4e21e1a8894ec,673606c62238f947512d2937,2024-11-14_15h19.05.462,Tarea de género gramatical,2024.2.2,Win32,60.97560976,,,,,,,,,,,,,,,,,,,,,,,276.8745,277.8692,a,1,[],[],[],[],[],[],[],0.3187,1,277.8694,278.3678,,,,,,582,MAS,AGR,150,velo,el,l,0.3187,,278.3679,278.3679,0.112037023,0.113888882,0,0,0,,0,111,111,131,1,,,,
,,,,,,9a8af3135c09cf7c9cfcb05c,66a626ef09d4e21e1a8894ec,673606c62238f947512d2937,2024-11-14_15h19.05.462,Tarea de género gramatical,2024.2.2,Win32,60.97560976,,,,,,,,,,,,,,,,,,,,,,,278.369,279.3816,a,1,[],[],[],[],[],[],[],0.3388,1,279.3816,279.8804,,,,,,768,MAS,AGR,150,pueblo,el,l,0.3388,,279.8804,279.8805,0.112037023,0.113888882,0,0,0,,0,112,112,317,1,,,,
,,,,,,9a8af3135c09cf7c9cfcb05c,66a626ef09d4e21e1a8894ec,673606c62238f947512d2937,2024-11-14_15h19.05.462,Tarea de género gramatical,2024.2.2,Win32,60.97560976,,,,,,,,,,,,,,,,,,,,,,,279.8814,280.9275,l,1,[],[],[],[],[],[],[],0.3661,1,280.9276,281.4262,,,,,,633,FEM,AGR,150,llave,la,a,0.3661,,281.4262,281.4263,0.112037023,0.113888882,0,0,0,,0,113,113,182,1,,,,
,,,,,,9a8af3135c09cf7c9cfcb05c,66a626ef09d4e21e1a8894ec,673606c62238f947512d2937,2024-11-14_15h19.05.462,Tarea de género gramatical,2024.2.2,Win32,60.97560976,,,,,,,,,,,,,,,,,,,,,,,281.4271,282.4234,a,1,[],[],[],[],[],[],[],0.3159,1,282.4235,282.9221,,,,,,742,MAS,CON,150,piano,,l,0.3159,,282.9232,282.9239,0.112037023,0.113888882,0,0,0,,0,114,114,291,1,,,,
,,,,,,9a8af3135c09cf7c9cfcb05c,66a626ef09d4e21e1a8894ec,673606c62238f947512d2937,2024-11-14_15h19.05.462,Tarea de género gramatical,2024.2.2,Win32,60.97560976,,,,,,,,,,,,,,,,,,,,,,,282.9247,283.886,a,0,[],[],[],[],[],[],[],0.2831,0,283.8868,284.3848,,,,,,517,FEM,CON,150,miel,,a,0.2831,,284.3848,284.3849,0.112037023,0.113888882,0,0,0,,0,115,115,66,1,,,,
,,,,,,9a8af3135c09cf7c9cfcb05c,66a626ef09d4e21e1a8894ec,673606c62238f947512d2937,2024-11-14_15h19.05.462,Tarea de género gramatical,2024.2.2,Win32,60.97560976,,,,,,,,,,,,,,,,,,,,,,,284.3858,285.4819,l,1,[],[],[],[],[],[],[],0.4227,1,285.4826,285.9803,,,,,,771,FEM,AGR,150,comida,la,a,0.4227,,285.9804,285.9805,0.112037023,0.113888882,0,0,0,,0,116,116,320,1,,,,
,,,,,,9a8af3135c09cf7c9cfcb05c,66a626ef09d4e21e1a8894ec,673606c62238f947512d2937,2024-11-14_15h19.05.462,Tarea de género gramatical,2024.2.2,Win32,60.97560976,,,,,,,,,,,,,,,,,,,,,,,285.9815,287.0112,l,1,[],[],[],[],[],[],[],0.3512,1,287.0112,287.5093,,,,,,458,FEM,DIS,150,idea,el,a,0.3512,,287.5093,287.5094,0.112037023,0.113888882,0,0,0,,0,117,117,7,1,,,,
,,,,,,9a8af3135c09cf7c9cfcb05c,66a626ef09d4e21e1a8894ec,673606c62238f947512d2937,2024-11-14_15h19.05.462,Tarea de género gramatical,2024.2.2,Win32,60.97560976,,,,,,,,,,,,,,,,,,,,,,,287.5107,288.5899,l,1,[],[],[],[],[],[],[],0.3997,1,288.59,289.0888,,,,,,703,FEM,CON,150,aldea,,a,0.3997,,289.0888,289.0891,0.112037023,0.113888882,0,0,0,,0,118,118,252,1,,,,
,,,,,,9a8af3135c09cf7c9cfcb05c,66a626ef09d4e21e1a8894ec,673606c62238f947512d2937,2024-11-14_15h19.05.462,Tarea de género gramatical,2024.2.2,Win32,60.97560976,,,,,,,,,,,,,,,,,,,,,,,289.0904,290.1022,a,1,[],[],[],[],[],[],[],0.3335,1,290.1023,290.6012,,,,,,882,MAS,AGR,150,océano,el,l,0.3335,,290.6024,290.603,0.112037023,0.113888882,0,0,0,,0,119,119,431,1,,,,
,,,,,,9a8af3135c09cf7c9cfcb05c,66a626ef09d4e21e1a8894ec,673606c62238f947512d2937,2024-11-14_15h19.05.462,Tarea de género gramatical,2024.2.2,Win32,60.97560976,,,,,,,,,,,,,,,,,,,,,,,290.6038,291.5817,a,1,[],[],[],[],[],[],[],0.2978,1,291.5818,292.0803,,,,,,804,MAS,AGR,150,camión,el,l,0.2978,,292.0804,292.0804,0.112037023,0.113888882,0,0,0,,0,120,120,353,1,,,,
,,,,,,9a8af3135c09cf7c9cfcb05c,66a626ef09d4e21e1a8894ec,673606c62238f947512d2937,2024-11-14_15h19.05.462,Tarea de género gramatical,2024.2.2,Win32,60.97560976,,,,,,,,,,,,,,,,,,,,,,,292.0814,293.1439,l,1,[],[],[],[],[],[],[],0.3923,1,293.144,293.6426,,,,,,883,FEM,CON,150,huella,,a,0.3923,,293.6426,293.6427,0.112037023,0.113888882,0,0,0,,0,121,121,432,1,,,,
,,,,,,9a8af3135c09cf7c9cfcb05c,66a626ef09d4e21e1a8894ec,673606c62238f947512d2937,2024-11-14_15h19.05.462,Tarea de género gramatical,2024.2.2,Win32,60.97560976,,,,,,,,,,,,,,,,,,,,,,,293.6436,294.6567,l,1,[],[],[],[],[],[],[],0.3374,1,294.6568,295.1554,,,,,,638,FEM,DIS,150,bomba,el,a,0.3374,,295.1554,295.1555,0.112037023,0.113888882,0,0,0,,0,122,122,187,1,,,,
,,,,,,9a8af3135c09cf7c9cfcb05c,66a626ef09d4e21e1a8894ec,673606c62238f947512d2937,2024-11-14_15h19.05.462,Tarea de género gramatical,2024.2.2,Win32,60.97560976,,,,,,,,,,,,,,,,,,,,,,,295.1564,296.4353,l,1,[],[],[],[],[],[],[],0.6003,1,296.4353,296.9336,,,,,,746,FEM,DIS,150,feria,el,a,0.6003,,296.9346,296.9353,0.112037023,0.113888882,0,0,0,,0,123,123,295,1,,,,
,,,,,,9a8af3135c09cf7c9cfcb05c,66a626ef09d4e21e1a8894ec,673606c62238f947512d2937,2024-11-14_15h19.05.462,Tarea de género gramatical,2024.2.2,Win32,60.97560976,,,,,,,,,,,,,,,,,,,,,,,296.936,297.8145,a,0,[],[],[],[],[],[],[],0.2002,0,297.8153,298.313,,,,,,483,FEM,AGR,150,boda,la,a,0.2002,,298.313,298.3131,0.112037023,0.113888882,0,0,0,,0,124,124,32,1,,,,
,,,,,,9a8af3135c09cf7c9cfcb05c,66a626ef09d4e21e1a8894ec,673606c62238f947512d2937,2024-11-14_15h19.05.462,Tarea de género gramatical,2024.2.2,Win32,60.97560976,,,,,,,,,,,,,,,,,,,,,,,298.3142,299.1609,a,1,[],[],[],[],[],[],[],0.1668,1,299.1617,299.6597,,,,,,552,MAS,AGR,150,coro,el,l,0.1668,,299.6598,299.6599,0.112037023,0.113888882,0,0,0,,0,125,125,101,1,,,,
,,,,,,9a8af3135c09cf7c9cfcb05c,66a626ef09d4e21e1a8894ec,673606c62238f947512d2937,2024-11-14_15h19.05.462,Tarea de género gramatical,2024.2.2,Win32,60.97560976,,,,,,,,,,,,,,,,,,,,,,,299.661,300.6736,l,1,[],[],[],[],[],[],[],0.3332,1,300.6737,301.172,,,,,,621,FEM,AGR,150,mitad,la,a,0.3332,,301.172,301.1721,0.112037023,0.113888882,0,0,0,,0,126,126,170,1,,,,
,,,,,,9a8af3135c09cf7c9cfcb05c,66a626ef09d4e21e1a8894ec,673606c62238f947512d2937,2024-11-14_15h19.05.462,Tarea de género gramatical,2024.2.2,Win32,60.97560976,,,,,,,,,,,,,,,,,,,,,,,301.1729,302.4851,l,1,[],[],[],[],[],[],[],0.6324,1,302.4851,302.984,,,,,,860,FEM,DIS,150,piedad,el,a,0.6324,,302.984,302.9841,0.112037023,0.113888882,0,0,0,,0,127,127,409,1,,,,
,,,,,,9a8af3135c09cf7c9cfcb05c,66a626ef09d4e21e1a8894ec,673606c62238f947512d2937,2024-11-14_15h19.05.462,Tarea de género gramatical,2024.2.2,Win32,60.97560976,,,,,,,,,,,,,,,,,,,,,,,302.985,304.2471,l,1,[],[],[],[],[],[],[],0.5823,1,304.2472,304.746,,,,,,751,FEM,CON,150,verdad,,a,0.5823,,304.7471,304.7478,0.112037023,0.113888882,0,0,0,,0,128,128,300,1,,,,
,,,,,,9a8af3135c09cf7c9cfcb05c,66a626ef09d4e21e1a8894ec,673606c62238f947512d2937,2024-11-14_15h19.05.462,Tarea de género gramatical,2024.2.2,Win32,60.97560976,,,,,,,,,,,,,,,,,,,,,,,304.7486,305.8262,l,1,[],[],[],[],[],[],[],0.4004,1,305.8263,306.3245,,,,,,723,FEM,AGR,150,tarta,la,a,0.4004,,306.3246,306.3247,0.112037023,0.113888882,0,0,0,,0,129,129,272,1,,,,
,,,,,,9a8af3135c09cf7c9cfcb05c,66a626ef09d4e21e1a8894ec,673606c62238f947512d2937,2024-11-14_15h19.05.462,Tarea de género gramatical,2024.2.2,Win32,60.97560976,,,,,,,,,,,,,,,,,,,,,,,306.3257,307.3888,l,1,[],[],[],[],[],[],[],0.3826,1,307.3891,307.8871,,,,,,495,FEM,AGR,150,isla,la,a,0.3826,,307.8871,307.8872,0.112037023,0.113888882,0,0,0,,0,130,130,44,1,,,,
,,,,,,9a8af3135c09cf7c9cfcb05c,66a626ef09d4e21e1a8894ec,673606c62238f947512d2937,2024-11-14_15h19.05.462,Tarea de género gramatical,2024.2.2,Win32,60.97560976,,,,,,,,,,,,,,,,,,,,,,,307.8881,308.7846,a,1,[],[],[],[],[],[],[],0.2168,1,308.7848,309.2832,,,,,,490,MAS,CON,150,dios,,l,0.2168,,309.2832,309.2833,0.112037023,0.113888882,0,0,0,,0,131,131,39,1,,,,
,,,,,,9a8af3135c09cf7c9cfcb05c,66a626ef09d4e21e1a8894ec,673606c62238f947512d2937,2024-11-14_15h19.05.462,Tarea de género gramatical,2024.2.2,Win32,60.97560976,,,,,,,,,,,,,,,,,,,,,,,309.2841,310.4799,a,1,[],[],[],[],[],[],[],0.5169,1,310.4799,310.9788,,,,,,827,MAS,DIS,150,jardín,la,l,0.5169,,310.9798,310.9805,0.112037023,0.113888882,0,0,0,,0,132,132,376,1,,,,
,,,,,,9a8af3135c09cf7c9cfcb05c,66a626ef09d4e21e1a8894ec,673606c62238f947512d2937,2024-11-14_15h19.05.462,Tarea de género gramatical,2024.2.2,Win32,60.97560976,,,,,,,,,,,,,,,,,,,,,,,310.9813,312.0423,l,0,[],[],[],[],[],[],[],0.3818,0,312.043,312.5413,,,,,,604,MAS,CON,150,padre,,l,0.3818,,312.5414,312.5414,0.112037023,0.113888882,0,0,0,,0,133,133,153,1,,,,
,,,,,,9a8af3135c09cf7c9cfcb05c,66a626ef09d4e21e1a8894ec,673606c62238f947512d2937,2024-11-14_15h19.05.462,Tarea de género gramatical,2024.2.2,Win32,60.97560976,,,,,,,,,,,,,,,,,,,,,,,312.5424,313.5551,l,1,[],[],[],[],[],[],[],0.3388,1,313.5558,314.0537,,,,,,511,FEM,CON,150,ruta,,a,0.3388,,314.0537,314.0538,0.112037023,0.113888882,0,0,0,,0,134,134,60,1,,,,
,,,,,,9a8af3135c09cf7c9cfcb05c,66a626ef09d4e21e1a8894ec,673606c62238f947512d2937,2024-11-14_15h19.05.462,Tarea de género gramatical,2024.2.2,Win32,60.97560976,,,,,,,,,,,,,,,,,,,,,,,314.0547,315.1674,l,1,[],[],[],[],[],[],[],0.4322,1,315.1674,315.666,,,,,,884,FEM,DIS,150,corona,el,a,0.4322,,315.6661,315.6662,0.112037023,0.113888882,0,0,0,,0,135,135,433,1,,,,
,,,,,,9a8af3135c09cf7c9cfcb05c,66a626ef09d4e21e1a8894ec,673606c62238f947512d2937,2024-11-14_15h19.05.462,Tarea de género gramatical,2024.2.2,Win32,60.97560976,,,,,,,,,,,,,,,,,,,,,,,315.6671,316.7298,l,1,[],[],[],[],[],[],[],0.3919,1,316.7299,317.2286,,,,,,577,FEM,CON,150,cuna,,a,0.3919,,317.2286,317.2287,0.112037023,0.113888882,0,0,0,,0,136,136,126,1,,,,
,,,,,,9a8af3135c09cf7c9cfcb05c,66a626ef09d4e21e1a8894ec,673606c62238f947512d2937,2024-11-14_15h19.05.462,Tarea de género gramatical,2024.2.2,Win32,60.97560976,,,,,,,,,,,,,,,,,,,,,,,317.2296,318.2587,l,1,[],[],[],[],[],[],[],0.3512,1,318.2589,318.7577,,,,,,525,FEM,AGR,150,caza,la,a,0.3512,,318.7591,318.7598,0.112037023,0.113888882,0,0,0,,0,137,137,74,1,,,,
,,,,,,9a8af3135c09cf7c9cfcb05c,66a626ef09d4e21e1a8894ec,673606c62238f947512d2937,2024-11-14_15h19.05.462,Tarea de género gramatical,2024.2.2,Win32,60.97560976,,,,,,,,,,,,,,,,,,,,,,,318.7604,319.7714,l,1,[],[],[],[],[],[],[],0.3379,1,319.7715,320.2701,,,,,,895,FEM,CON,150,bondad,,a,0.3379,,320.2701,320.2702,0.112037023,0.113888882,0,0,0,,0,138,138,444,1,,,,
,,,,,,9a8af3135c09cf7c9cfcb05c,66a626ef09d4e21e1a8894ec,673606c62238f947512d2937,2024-11-14_15h19.05.462,Tarea de género gramatical,2024.2.2,Win32,60.97560976,,,,,,,,,,,,,,,,,,,,,,,320.2712,321.4669,a,1,[],[],[],[],[],[],[],0.5146,1,321.467,321.9656,,,,,,623,MAS,DIS,150,libro,la,l,0.5146,,321.9656,321.9657,0.112037023,0.113888882,0,0,0,,0,139,139,172,1,,,,
,,,,,,9a8af3135c09cf7c9cfcb05c,66a626ef09d4e21e1a8894ec,673606c62238f947512d2937,2024-11-14_15h19.05.462,Tarea de género gramatical,2024.2.2,Win32,60.97560976,,,,,,,,,,,,,,,,,,,,,,,321.9665,323.0621,a,1,[],[],[],[],[],[],[],0.4271,1,323.0622,323.5609,,,,,,874,MAS,CON,150,rastro,,l,0.4271,,323.561,323.5611,0.112037023,0.113888882,0,0,0,,0,140,140,423,1,,,,
,,,,,,9a8af3135c09cf7c9cfcb05c,66a626ef09d4e21e1a8894ec,673606c62238f947512d2937,2024-11-14_15h19.05.462,Tarea de género gramatical,2024.2.2,Win32,60.97560976,,,,,,,,,,,,,,,,,,,,,,,323.5619,324.5417,a,1,[],[],[],[],[],[],[],0.2994,1,324.5417,325.0405,,,,,,766,MAS,CON,150,cuerpo,,l,0.2994,,325.0415,325.0422,0.112037023,0.113888882,0,0,0,,0,141,141,315,1,,,,
,,,,,,9a8af3135c09cf7c9cfcb05c,66a626ef09d4e21e1a8894ec,673606c62238f947512d2937,2024-11-14_15h19.05.462,Tarea de género gramatical,2024.2.2,Win32,60.97560976,,,,,,,,,,,,,,,,,,,,,,,325.0427,325.9543,a,0,[],[],[],[],[],[],[],0.2437,0,325.9551,326.4531,,,,,,601,FEM,CON,150,noche,,a,0.2437,,326.4532,326.4533,0.112037023,0.113888882,0,0,0,,0,142,142,150,1,,,,
,,,,,,9a8af3135c09cf7c9cfcb05c,66a626ef09d4e21e1a8894ec,673606c62238f947512d2937,2024-11-14_15h19.05.462,Tarea de género gramatical,2024.2.2,Win32,60.97560976,,,,,,,,,,,,,,,,,,,,,,,326.4541,327.5503,l,1,[],[],[],[],[],[],[],0.4249,1,327.5516,328.0485,,,,,,679,FEM,CON,150,celda,,a,0.4249,,328.0486,328.0488,0.112037023,0.113888882,0,0,0,,0,143,143,228,1,,,,
,,,,,,9a8af3135c09cf7c9cfcb05c,66a626ef09d4e21e1a8894ec,673606c62238f947512d2937,2024-11-14_15h19.05.462,Tarea de género gramatical,2024.2.2,Win32,60.97560976,,,,,,,,,,,,,,,,,,,,,,,328.0496,329.079,a,1,[],[],[],[],[],[],[],0.3563,1,329.0791,329.5781,,,,,,642,MAS,AGR,150,grupo,el,l,0.3563,,329.5781,329.5782,0.112037023,0.113888882,0,0,0,,0,144,144,191,1,,,,
,,,,,,9a8af3135c09cf7c9cfcb05c,66a626ef09d4e21e1a8894ec,673606c62238f947512d2937,2024-11-14_15h19.05.462,Tarea de género gramatical,2024.2.2,Win32,60.97560976,,,,,,,,,,,,,,,,,,,,,,,329.579,330.6084,a,1,[],[],[],[],[],[],[],0.3565,1,330.6085,331.1071,,,,,,808,MAS,CON,150,motivo,,l,0.3565,,331.1072,331.1072,0.112037023,0.113888882,0,0,0,,0,145,145,357,1,,,,
,,,,,,9a8af3135c09cf7c9cfcb05c,66a626ef09d4e21e1a8894ec,673606c62238f947512d2937,2024-11-14_15h19.05.462,Tarea de género gramatical,2024.2.2,Win32,60.97560976,,,,,,,,,,,,,,,,,,,,,,,331.1081,332.387,l,1,[],[],[],[],[],[],[],0.6002,1,332.3871,332.8856,,,,,,595,FEM,CON,150,bota,,a,0.6002,,332.8867,332.8872,0.112037023,0.113888882,0,0,0,,0,146,146,144,1,,,,
,,,,,,9a8af3135c09cf7c9cfcb05c,66a626ef09d4e21e1a8894ec,673606c62238f947512d2937,2024-11-14_15h19.05.462,Tarea de género gramatical,2024.2.2,Win32,60.97560976,,,,,,,,,,,,,,,,,,,,,,,332.8885,333.833,l,1,[],[],[],[],[],[],[],0.2707,1,333.8331,334.3316,,,,,,459,FEM,AGR,150,mamá,la,a,0.2707,,334.3316,334.3318,0.112037023,0.113888882,0,0,0,,0,147,147,8,1,,,,
,,,,,,9a8af3135c09cf7c9cfcb05c,66a626ef09d4e21e1a8894ec,673606c62238f947512d2937,2024-11-14_15h19.05.462,Tarea de género gramatical,2024.2.2,Win32,60.97560976,,,,,,,,,,,,,,,,,,,,,,,334.3326,335.2458,a,1,[],[],[],[],[],[],[],0.239,1,335.2459,335.7443,,,,,,504,MAS,AGR,150,humo,el,l,0.239,,335.7444,335.7445,0.112037023,0.113888882,0,0,0,,0,148,148,53,1,,,,
,,,,,,9a8af3135c09cf7c9cfcb05c,66a626ef09d4e21e1a8894ec,673606c62238f947512d2937,2024-11-14_15h19.05.462,Tarea de género gramatical,2024.2.2,Win32,60.97560976,,,,,,,,,,,,,,,,,,,,,,,335.7452,336.8581,a,1,[],[],[],[],[],[],[],0.4402,1,336.8582,337.3567,,,,,,491,MAS,DIS,150,bote,la,l,0.4402,,337.3567,337.3567,0.112037023,0.113888882,0,0,0,,0,149,149,40,1,,,,
,,,,,,9a8af3135c09cf7c9cfcb05c,66a626ef09d4e21e1a8894ec,673606c62238f947512d2937,2024-11-14_15h19.05.462,Tarea de género gramatical,2024.2.2,Win32,60.97560976,,,,,,,,,,,,,,,,,,,,,,,337.3576,338.4871,l,1,[],[],[],[],[],[],[],0.4547,1,338.4872,338.9855,,,,,,620,FEM,DIS,150,carta,el,a,0.4547,,338.9866,371.2309,0.112037023,0.113888882,0,0,0,space,0,150,150,169,1,32.2188,,,
,,,,,,9a8af3135c09cf7c9cfcb05c,66a626ef09d4e21e1a8894ec,673606c62238f947512d2937,2024-11-14_15h19.05.462,Tarea de género gramatical,2024.2.2,Win32,60.97560976,,,,,,,,,,,,,,,,,,,,,,,371.2318,372.3778,l,1,[],[],[],[],[],[],[],0.4661,1,372.3779,372.8764,,,,,,457,FEM,CON,150,hora,,a,0.4661,,372.8764,372.8765,0.112037023,0.113888882,0,0,0,,0,151,151,6,1,,,,
,,,,,,9a8af3135c09cf7c9cfcb05c,66a626ef09d4e21e1a8894ec,673606c62238f947512d2937,2024-11-14_15h19.05.462,Tarea de género gramatical,2024.2.2,Win32,60.97560976,,,,,,,,,,,,,,,,,,,,,,,372.8775,373.8405,a,1,[],[],[],[],[],[],[],0.2842,1,373.8406,374.3391,,,,,,840,MAS,AGR,150,rostro,el,l,0.2842,,374.3391,374.3392,0.112037023,0.113888882,0,0,0,,0,152,152,389,1,,,,
,,,,,,9a8af3135c09cf7c9cfcb05c,66a626ef09d4e21e1a8894ec,673606c62238f947512d2937,2024-11-14_15h19.05.462,Tarea de género gramatical,2024.2.2,Win32,60.97560976,,,,,,,,,,,,,,,,,,,,,,,374.3401,375.4361,l,1,[],[],[],[],[],[],[],0.4163,1,375.4362,375.9348,,,,,,769,FEM,CON,150,sangre,,a,0.4163,,375.9349,375.9351,0.112037023,0.113888882,0,0,0,,0,153,153,318,1,,,,
,,,,,,9a8af3135c09cf7c9cfcb05c,66a626ef09d4e21e1a8894ec,673606c62238f947512d2937,2024-11-14_15h19.05.462,Tarea de género gramatical,2024.2.2,Win32,60.97560976,,,,,,,,,,,,,,,,,,,,,,,375.936,376.8658,l,1,[],[],[],[],[],[],[],0.2517,1,376.866,377.3641,,,,,,823,FEM,CON,150,lluvia,,a,0.2517,,377.3642,377.3642,0.112037023,0.113888882,0,0,0,,0,154,154,372,1,,,,
,,,,,,9a8af3135c09cf7c9cfcb05c,66a626ef09d4e21e1a8894ec,673606c62238f947512d2937,2024-11-14_15h19.05.462,Tarea de género gramatical,2024.2.2,Win32,60.97560976,,,,,,,,,,,,,,,,,,,,,,,377.3654,378.5608,l,0,[],[],[],[],[],[],[],0.5143,0,378.5614,379.0595,,,,,,545,MAS,DIS,150,tomo,la,l,0.5143,,379.0606,379.0614,0.112037023,0.113888882,0,0,0,,0,155,155,94,1,,,,
,,,,,,9a8af3135c09cf7c9cfcb05c,66a626ef09d4e21e1a8894ec,673606c62238f947512d2937,2024-11-14_15h19.05.462,Tarea de género gramatical,2024.2.2,Win32,60.97560976,,,,,,,,,,,,,,,,,,,,,,,379.0622,380.2063,l,1,[],[],[],[],[],[],[],0.4714,1,380.207,380.705,,,,,,759,FEM,AGR,150,esposa,la,a,0.4714,,380.7051,380.7052,0.112037023,0.113888882,0,0,0,,0,156,156,308,1,,,,
,,,,,,9a8af3135c09cf7c9cfcb05c,66a626ef09d4e21e1a8894ec,673606c62238f947512d2937,2024-11-14_15h19.05.462,Tarea de género gramatical,2024.2.2,Win32,60.97560976,,,,,,,,,,,,,,,,,,,,,,,380.706,381.8519,l,1,[],[],[],[],[],[],[],0.4756,1,381.8519,382.3503,,,,,,661,FEM,CON,150,salud,,a,0.4756,,382.3503,382.3505,0.112037023,0.113888882,0,0,0,,0,157,157,210,1,,,,
,,,,,,9a8af3135c09cf7c9cfcb05c,66a626ef09d4e21e1a8894ec,673606c62238f947512d2937,2024-11-14_15h19.05.462,Tarea de género gramatical,2024.2.2,Win32,60.97560976,,,,,,,,,,,,,,,,,,,,,,,382.3514,383.4473,l,1,[],[],[],[],[],[],[],0.4211,1,383.4474,383.9459,,,,,,896,FEM,DIS,150,bañera,el,a,0.4211,,383.9459,383.946,0.112037023,0.113888882,0,0,0,,0,158,158,445,1,,,,
,,,,,,9a8af3135c09cf7c9cfcb05c,66a626ef09d4e21e1a8894ec,673606c62238f947512d2937,2024-11-14_15h19.05.462,Tarea de género gramatical,2024.2.2,Win32,60.97560976,,,,,,,,,,,,,,,,,,,,,,,383.9468,384.91,a,1,[],[],[],[],[],[],[],0.293,1,384.91,385.4089,,,,,,670,MAS,CON,150,huevo,,l,0.293,,385.4112,385.4124,0.112037023,0.113888882,0,0,0,,0,159,159,219,1,,,,
,,,,,,9a8af3135c09cf7c9cfcb05c,66a626ef09d4e21e1a8894ec,673606c62238f947512d2937,2024-11-14_15h19.05.462,Tarea de género gramatical,2024.2.2,Win32,60.97560976,,,,,,,,,,,,,,,,,,,,,,,385.4136,386.3231,a,1,[],[],[],[],[],[],[],0.2457,1,386.3232,386.8224,,,,,,826,MAS,CON,150,efecto,,l,0.2457,,386.8225,386.8226,0.112037023,0.113888882,0,0,0,,0,160,160,375,1,,,,
,,,,,,9a8af3135c09cf7c9cfcb05c,66a626ef09d4e21e1a8894ec,673606c62238f947512d2937,2024-11-14_15h19.05.462,Tarea de género gramatical,2024.2.2,Win32,60.97560976,,,,,,,,,,,,,,,,,,,,,,,386.8249,387.9356,l,1,[],[],[],[],[],[],[],0.4363,1,387.9357,388.4341,,,,,,728,FEM,DIS,150,presa,el,a,0.4363,,388.4341,388.4342,0.112037023,0.113888882,0,0,0,,0,161,161,277,1,,,,
,,,,,,9a8af3135c09cf7c9cfcb05c,66a626ef09d4e21e1a8894ec,673606c62238f947512d2937,2024-11-14_15h19.05.462,Tarea de género gramatical,2024.2.2,Win32,60.97560976,,,,,,,,,,,,,,,,,,,,,,,388.4354,389.6144,l,0,[],[],[],[],[],[],[],0.5083,0,389.6156,390.1125,,,,,,791,MAS,DIS,150,precio,la,l,0.5083,,390.1126,390.1127,0.112037023,0.113888882,0,0,0,,0,162,162,340,1,,,,
,,,,,,9a8af3135c09cf7c9cfcb05c,66a626ef09d4e21e1a8894ec,673606c62238f947512d2937,2024-11-14_15h19.05.462,Tarea de género gramatical,2024.2.2,Win32,60.97560976,,,,,,,,,,,,,,,,,,,,,,,390.1135,391.3429,a,1,[],[],[],[],[],[],[],0.5504,1,391.344,391.8417,,,,,,593,MAS,DIS,150,faro,la,l,0.5504,,391.8418,391.8419,0.112037023,0.113888882,0,0,0,,0,163,163,142,1,,,,
,,,,,,9a8af3135c09cf7c9cfcb05c,66a626ef09d4e21e1a8894ec,673606c62238f947512d2937,2024-11-14_15h19.05.462,Tarea de género gramatical,2024.2.2,Win32,60.97560976,,,,,,,,,,,,,,,,,,,,,,,391.8434,392.8053,a,1,[],[],[],[],[],[],[],0.2836,1,392.8055,393.3043,,,,,,460,MAS,CON,150,niño,,l,0.2836,,393.3058,393.3069,0.112037023,0.113888882,0,0,0,,0,164,164,9,1,,,,
,,,,,,9a8af3135c09cf7c9cfcb05c,66a626ef09d4e21e1a8894ec,673606c62238f947512d2937,2024-11-14_15h19.05.462,Tarea de género gramatical,2024.2.2,Win32,60.97560976,,,,,,,,,,,,,,,,,,,,,,,393.308,394.3016,a,1,[],[],[],[],[],[],[],0.3295,1,394.3018,394.8004,,,,,,828,MAS,AGR,150,pastel,el,l,0.3295,,394.8005,394.8007,0.112037023,0.113888882,0,0,0,,0,165,165,377,1,,,,
,,,,,,9a8af3135c09cf7c9cfcb05c,66a626ef09d4e21e1a8894ec,673606c62238f947512d2937,2024-11-14_15h19.05.462,Tarea de género gramatical,2024.2.2,Win32,60.97560976,,,,,,,,,,,,,,,,,,,,,,,394.8036,395.7972,a,1,[],[],[],[],[],[],[],0.3205,1,395.7974,396.2957,,,,,,492,MAS,AGR,150,show,el,l,0.3205,,396.2958,396.2959,0.112037023,0.113888882,0,0,0,,0,166,166,41,1,,,,
,,,,,,9a8af3135c09cf7c9cfcb05c,66a626ef09d4e21e1a8894ec,673606c62238f947512d2937,2024-11-14_15h19.05.462,Tarea de género gramatical,2024.2.2,Win32,60.97560976,,,,,,,,,,,,,,,,,,,,,,,396.2968,397.2101,l,1,[],[],[],[],[],[],[],0.2352,1,397.2102,397.7085,,,,,,854,FEM,DIS,150,gloria,el,a,0.2352,,397.7085,397.7086,0.112037023,0.113888882,0,0,0,,0,167,167,403,1,,,,
,,,,,,9a8af3135c09cf7c9cfcb05c,66a626ef09d4e21e1a8894ec,673606c62238f947512d2937,2024-11-14_15h19.05.462,Tarea de género gramatical,2024.2.2,Win32,60.97560976,,,,,,,,,,,,,,,,,,,,,,,397.7098,398.656,a,1,[],[],[],[],[],[],[],0.2715,1,398.6562,399.1548,,,,,,772,MAS,CON,150,minuto,,l,0.2715,,399.156,399.1568,0.112037023,0.113888882,0,0,0,,0,168,168,321,1,,,,
,,,,,,9a8af3135c09cf7c9cfcb05c,66a626ef09d4e21e1a8894ec,673606c62238f947512d2937,2024-11-14_15h19.05.462,Tarea de género gramatical,2024.2.2,Win32,60.97560976,,,,,,,,,,,,,,,,,,,,,,,399.1578,400.3347,a,1,[],[],[],[],[],[],[],0.499,1,400.3348,400.8334,,,,,,533,MAS,DIS,150,nene,la,l,0.499,,400.8334,400.8336,0.112037023,0.113888882,0,0,0,,0,169,169,82,1,,,,
,,,,,,9a8af3135c09cf7c9cfcb05c,66a626ef09d4e21e1a8894ec,673606c62238f947512d2937,2024-11-14_15h19.05.462,Tarea de género gramatical,2024.2.2,Win32,60.97560976,,,,,,,,,,,,,,,,,,,,,,,400.8345,401.8972,a,1,[],[],[],[],[],[],[],0.3882,1,401.8972,402.3958,,,,,,600,MAS,AGR,150,mozo,el,l,0.3882,,402.3959,402.3959,0.112037023,0.113888882,0,0,0,,0,170,170,149,1,,,,
,,,,,,9a8af3135c09cf7c9cfcb05c,66a626ef09d4e21e1a8894ec,673606c62238f947512d2937,2024-11-14_15h19.05.462,Tarea de género gramatical,2024.2.2,Win32,60.97560976,,,,,,,,,,,,,,,,,,,,,,,402.3968,403.3932,l,1,[],[],[],[],[],[],[],0.3164,1,403.3933,403.8915,,,,,,752,FEM,DIS,150,cabeza,el,a,0.3164,,403.8916,403.8917,0.112037023,0.113888882,0,0,0,,0,171,171,301,1,,,,
,,,,,,9a8af3135c09cf7c9cfcb05c,66a626ef09d4e21e1a8894ec,673606c62238f947512d2937,2024-11-14_15h19.05.462,Tarea de género gramatical,2024.2.2,Win32,60.97560976,,,,,,,,,,,,,,,,,,,,,,,403.8924,405.0883,a,1,[],[],[],[],[],[],[],0.5159,1,405.0883,405.5868,,,,,,676,MAS,CON,150,color,,l,0.5159,,405.5868,405.5869,0.112037023,0.113888882,0,0,0,,0,172,172,225,1,,,,
,,,,,,9a8af3135c09cf7c9cfcb05c,66a626ef09d4e21e1a8894ec,673606c62238f947512d2937,2024-11-14_15h19.05.462,Tarea de género gramatical,2024.2.2,Win32,60.97560976,,,,,,,,,,,,,,,,,,,,,,,405.5878,406.7007,a,1,[],[],[],[],[],[],[],0.4361,1,406.7008,407.1995,,,,,,479,MAS,DIS,150,frío,la,l,0.4361,,407.2013,407.2021,0.112037023,0.113888882,0,0,0,,0,173,173,28,1,,,,
,,,,,,9a8af3135c09cf7c9cfcb05c,66a626ef09d4e21e1a8894ec,673606c62238f947512d2937,2024-11-14_15h19.05.462,Tarea de género gramatical,2024.2.2,Win32,60.97560976,,,,,,,,,,,,,,,,,,,,,,,407.2028,408.1799,l,1,[],[],[],[],[],[],[],0.3022,1,408.1799,408.6789,,,,,,531,FEM,AGR,150,cima,la,a,0.3022,,408.6789,408.679,0.112037023,0.113888882,0,0,0,,0,174,174,80,1,,,,
,,,,,,9a8af3135c09cf7c9cfcb05c,66a626ef09d4e21e1a8894ec,673606c62238f947512d2937,2024-11-14_15h19.05.462,Tarea de género gramatical,2024.2.2,Win32,60.97560976,,,,,,,,,,,,,,,,,,,,,,,408.6801,409.676,a,1,[],[],[],[],[],[],[],0.3195,1,409.6761,410.1745,,,,,,665,MAS,DIS,150,hueso,la,l,0.3195,,410.1746,410.1747,0.112037023,0.113888882,0,0,0,,0,175,175,214,1,,,,
,,,,,,9a8af3135c09cf7c9cfcb05c,66a626ef09d4e21e1a8894ec,673606c62238f947512d2937,2024-11-14_15h19.05.462,Tarea de género gramatical,2024.2.2,Win32,60.97560976,,,,,,,,,,,,,,,,,,,,,,,410.1756,411.1388,a,0,[],[],[],[],[],[],[],0.283,0,411.1396,411.6369,,,,,,848,FEM,DIS,150,hierba,el,a,0.283,,411.637,411.6371,0.112037023,0.113888882,0,0,0,,0,176,176,397,1,,,,
,,,,,,9a8af3135c09cf7c9cfcb05c,66a626ef09d4e21e1a8894ec,673606c62238f947512d2937,2024-11-14_15h19.05.462,Tarea de género gramatical,2024.2.2,Win32,60.97560976,,,,,,,,,,,,,,,,,,,,,,,411.6381,412.6012,a,1,[],[],[],[],[],[],[],0.2922,1,412.602,413.1,,,,,,558,MAS,AGR,150,hilo,el,l,0.2922,,413.1012,413.1018,0.112037023,0.113888882,0,0,0,,0,177,177,107,1,,,,
,,,,,,9a8af3135c09cf7c9cfcb05c,66a626ef09d4e21e1a8894ec,673606c62238f947512d2937,2024-11-14_15h19.05.462,Tarea de género gramatical,2024.2.2,Win32,60.97560976,,,,,,,,,,,,,,,,,,,,,,,413.1027,413.9808,l,1,[],[],[],[],[],[],[],0.2023,1,413.9808,414.4795,,,,,,710,FEM,DIS,150,barra,el,a,0.2023,,414.4795,414.4796,0.112037023,0.113888882,0,0,0,,0,178,178,259,1,,,,
,,,,,,9a8af3135c09cf7c9cfcb05c,66a626ef09d4e21e1a8894ec,673606c62238f947512d2937,2024-11-14_15h19.05.462,Tarea de género gramatical,2024.2.2,Win32,60.97560976,,,,,,,,,,,,,,,,,,,,,,,414.4805,415.3937,a,1,[],[],[],[],[],[],[],0.2406,1,415.3938,415.8924,,,,,,743,MAS,DIS,150,patio,la,l,0.2406,,415.8924,415.8925,0.112037023,0.113888882,0,0,0,,0,179,179,292,1,,,,
,,,,,,9a8af3135c09cf7c9cfcb05c,66a626ef09d4e21e1a8894ec,673606c62238f947512d2937,2024-11-14_15h19.05.462,Tarea de género gramatical,2024.2.2,Win32,60.97560976,,,,,,,,,,,,,,,,,,,,,,,415.8935,416.9063,a,1,[],[],[],[],[],[],[],0.331,1,416.9064,417.4048,,,,,,546,MAS,AGR,150,pato,el,l,0.331,,417.4048,417.4049,0.112037023,0.113888882,0,0,0,,0,180,180,95,1,,,,
,,,,,,9a8af3135c09cf7c9cfcb05c,66a626ef09d4e21e1a8894ec,673606c62238f947512d2937,2024-11-14_15h19.05.462,Tarea de género gramatical,2024.2.2,Win32,60.97560976,,,,,,,,,,,,,,,,,,,,,,,417.4058,418.3854,a,1,[],[],[],[],[],[],[],0.3088,1,418.3855,418.8842,,,,,,544,MAS,CON,150,cabo,,l,0.3088,,418.8842,418.8843,0.112037023,0.113888882,0,0,0,,0,181,181,93,1,,,,
,,,,,,9a8af3135c09cf7c9cfcb05c,66a626ef09d4e21e1a8894ec,673606c62238f947512d2937,2024-11-14_15h19.05.462,Tarea de género gramatical,2024.2.2,Win32,60.97560976,,,,,,,,,,,,,,,,,,,,,,,418.8852,419.8815,l,1,[],[],[],[],[],[],[],0.3165,1,419.8815,420.3798,,,,,,463,FEM,CON,150,hija,,a,0.3165,,420.3809,420.3815,0.112037023,0.113888882,0,0,0,,0,182,182,12,1,,,,
,,,,,,9a8af3135c09cf7c9cfcb05c,66a626ef09d4e21e1a8894ec,673606c62238f947512d2937,2024-11-14_15h19.05.462,Tarea de género gramatical,2024.2.2,Win32,60.97560976,,,,,,,,,,,,,,,,,,,,,,,420.3824,421.4439,a,0,[],[],[],[],[],[],[],0.3828,0,421.4445,421.9421,,,,,,555,FEM,AGR,150,jefa,la,a,0.3828,,421.9422,421.9423,0.112037023,0.113888882,0,0,0,,0,183,183,104,1,,,,
,,,,,,9a8af3135c09cf7c9cfcb05c,66a626ef09d4e21e1a8894ec,673606c62238f947512d2937,2024-11-14_15h19.05.462,Tarea de género gramatical,2024.2.2,Win32,60.97560976,,,,,,,,,,,,,,,,,,,,,,,421.9431,422.9897,a,0,[],[],[],[],[],[],[],0.3662,0,422.9897,423.4883,,,,,,506,FEM,DIS,150,bola,el,a,0.3662,,423.4883,423.4884,0.112037023,0.113888882,0,0,0,,0,184,184,55,1,,,,
,,,,,,9a8af3135c09cf7c9cfcb05c,66a626ef09d4e21e1a8894ec,673606c62238f947512d2937,2024-11-14_15h19.05.462,Tarea de género gramatical,2024.2.2,Win32,60.97560976,,,,,,,,,,,,,,,,,,,,,,,423.4892,424.5019,a,1,[],[],[],[],[],[],[],0.3339,1,424.5025,425.001,,,,,,898,MAS,CON,150,aceite,,l,0.3339,,425.001,425.0011,0.112037023,0.113888882,0,0,0,,0,185,185,447,1,,,,
,,,,,,9a8af3135c09cf7c9cfcb05c,66a626ef09d4e21e1a8894ec,673606c62238f947512d2937,2024-11-14_15h19.05.462,Tarea de género gramatical,2024.2.2,Win32,60.97560976,,,,,,,,,,,,,,,,,,,,,,,425.002,425.9815,a,1,[],[],[],[],[],[],[],0.3015,1,425.9816,426.4801,,,,,,726,MAS,AGR,150,ritmo,el,l,0.3015,,426.4813,426.4819,0.112037023,0.113888882,0,0,0,,0,186,186,275,1,,,,
,,,,,,9a8af3135c09cf7c9cfcb05c,66a626ef09d4e21e1a8894ec,673606c62238f947512d2937,2024-11-14_15h19.05.462,Tarea de género gramatical,2024.2.2,Win32,60.97560976,,,,,,,,,,,,,,,,,,,,,,,426.4825,427.5935,l,1,[],[],[],[],[],[],[],0.4329,1,427.5936,428.0923,,,,,,590,FEM,DIS,150,mula,el,a,0.4329,,428.0924,428.0925,0.112037023,0.113888882,0,0,0,,0,187,187,139,1,,,,
,,,,,,9a8af3135c09cf7c9cfcb05c,66a626ef09d4e21e1a8894ec,673606c62238f947512d2937,2024-11-14_15h19.05.462,Tarea de género gramatical,2024.2.2,Win32,60.97560976,,,,,,,,,,,,,,,,,,,,,,,428.0934,429.0394,a,1,[],[],[],[],[],[],[],0.2664,1,429.0395,429.5381,,,,,,557,MAS,DIS,150,cubo,la,l,0.2664,,429.5382,429.5382,0.112037023,0.113888882,0,0,0,,0,188,188,106,1,,,,
,,,,,,9a8af3135c09cf7c9cfcb05c,66a626ef09d4e21e1a8894ec,673606c62238f947512d2937,2024-11-14_15h19.05.462,Tarea de género gramatical,2024.2.2,Win32,60.97560976,,,,,,,,,,,,,,,,,,,,,,,429.5391,430.7518,a,0,[],[],[],[],[],[],[],0.537,0,430.7526,431.2504,,,,,,830,FEM,DIS,150,madera,el,a,0.537,,431.2504,431.2506,0.112037023,0.113888882,0,0,0,,0,189,189,379,1,,,,
,,,,,,9a8af3135c09cf7c9cfcb05c,66a626ef09d4e21e1a8894ec,673606c62238f947512d2937,2024-11-14_15h19.05.462,Tarea de género gramatical,2024.2.2,Win32,60.97560976,,,,,,,,,,,,,,,,,,,,,,,431.2517,432.2974,a,1,[],[],[],[],[],[],[],0.3708,1,432.2982,432.7962,,,,,,797,MAS,DIS,150,cuello,la,l,0.3708,,432.7962,432.7965,0.112037023,0.113888882,0,0,0,,0,190,190,346,1,,,,
,,,,,,9a8af3135c09cf7c9cfcb05c,66a626ef09d4e21e1a8894ec,673606c62238f947512d2937,2024-11-14_15h19.05.462,Tarea de género gramatical,2024.2.2,Win32,60.97560976,,,,,,,,,,,,,,,,,,,,,,,432.7975,433.8599,a,1,[],[],[],[],[],[],[],0.3861,1,433.8599,434.3586,,,,,,839,MAS,DIS,150,tamaño,la,l,0.3861,,434.3597,434.3603,0.112037023,0.113888882,0,0,0,,0,191,191,388,1,,,,
,,,,,,9a8af3135c09cf7c9cfcb05c,66a626ef09d4e21e1a8894ec,673606c62238f947512d2937,2024-11-14_15h19.05.462,Tarea de género gramatical,2024.2.2,Win32,60.97560976,,,,,,,,,,,,,,,,,,,,,,,434.3613,435.3391,a,1,[],[],[],[],[],[],[],0.3103,1,435.3392,435.838,,,,,,816,MAS,AGR,150,riesgo,el,l,0.3103,,435.838,435.8381,0.112037023,0.113888882,0,0,0,,0,192,192,365,1,,,,
,,,,,,9a8af3135c09cf7c9cfcb05c,66a626ef09d4e21e1a8894ec,673606c62238f947512d2937,2024-11-14_15h19.05.462,Tarea de género gramatical,2024.2.2,Win32,60.97560976,,,,,,,,,,,,,,,,,,,,,,,435.839,436.7852,a,1,[],[],[],[],[],[],[],0.2725,1,436.7853,437.2839,,,,,,748,MAS,CON,150,botón,,l,0.2725,,437.284,437.2841,0.112037023,0.113888882,0,0,0,,0,193,193,297,1,,,,
,,,,,,9a8af3135c09cf7c9cfcb05c,66a626ef09d4e21e1a8894ec,673606c62238f947512d2937,2024-11-14_15h19.05.462,Tarea de género gramatical,2024.2.2,Win32,60.97560976,,,,,,,,,,,,,,,,,,,,,,,437.2849,438.2143,l,1,[],[],[],[],[],[],[],0.2526,1,438.2145,438.7133,,,,,,619,FEM,CON,150,vista,,a,0.2526,,438.7133,438.7134,0.112037023,0.113888882,0,0,0,,0,194,194,168,1,,,,
,,,,,,9a8af3135c09cf7c9cfcb05c,66a626ef09d4e21e1a8894ec,673606c62238f947512d2937,2024-11-14_15h19.05.462,Tarea de género gramatical,2024.2.2,Win32,60.97560976,,,,,,,,,,,,,,,,,,,,,,,438.7144,439.6106,a,1,[],[],[],[],[],[],[],0.2219,1,439.6106,440.1095,,,,,,480,MAS,AGR,150,cine,el,l,0.2219,,440.1105,440.1113,0.112037023,0.113888882,0,0,0,,0,195,195,29,1,,,,
,,,,,,9a8af3135c09cf7c9cfcb05c,66a626ef09d4e21e1a8894ec,673606c62238f947512d2937,2024-11-14_15h19.05.462,Tarea de género gramatical,2024.2.2,Win32,60.97560976,,,,,,,,,,,,,,,,,,,,,,,440.1121,441.0236,a,1,[],[],[],[],[],[],[],0.2424,1,441.0238,441.522,,,,,,563,MAS,DIS,150,toro,la,l,0.2424,,441.5221,441.5222,0.112037023,0.113888882,0,0,0,,0,196,196,112,1,,,,
,,,,,,9a8af3135c09cf7c9cfcb05c,66a626ef09d4e21e1a8894ec,673606c62238f947512d2937,2024-11-14_15h19.05.462,Tarea de género gramatical,2024.2.2,Win32,60.97560976,,,,,,,,,,,,,,,,,,,,,,,441.523,442.5028,l,1,[],[],[],[],[],[],[],0.3096,1,442.5028,443.0017,,,,,,879,FEM,AGR,150,fianza,la,a,0.3096,,443.0017,443.0018,0.112037023,0.113888882,0,0,0,,0,197,197,428,1,,,,
,,,,,,9a8af3135c09cf7c9cfcb05c,66a626ef09d4e21e1a8894ec,673606c62238f947512d2937,2024-11-14_15h19.05.462,Tarea de género gramatical,2024.2.2,Win32,60.97560976,,,,,,,,,,,,,,,,,,,,,,,443.0026,443.8658,a,1,[],[],[],[],[],[],[],0.1898,1,443.8659,444.3646,,,,,,472,MAS,CON,150,pelo,,l,0.1898,,444.3646,444.3647,0.112037023,0.113888882,0,0,0,,0,198,198,21,1,,,,
,,,,,,9a8af3135c09cf7c9cfcb05c,66a626ef09d4e21e1a8894ec,673606c62238f947512d2937,2024-11-14_15h19.05.462,Tarea de género gramatical,2024.2.2,Win32,60.97560976,,,,,,,,,,,,,,,,,,,,,,,444.3656,445.528,l,1,[],[],[],[],[],[],[],0.4827,1,445.5282,446.0266,,,,,,542,FEM,DIS,150,masa,el,a,0.4827,,446.0267,446.0268,0.112037023,0.113888882,0,0,0,,0,199,199,91,1,,,,
,,,,,,9a8af3135c09cf7c9cfcb05c,66a626ef09d4e21e1a8894ec,673606c62238f947512d2937,2024-11-14_15h19.05.462,Tarea de género gramatical,2024.2.2,Win32,60.97560976,,,,,,,,,,,,,,,,,,,,,,,446.0277,446.9073,a,1,[],[],[],[],[],[],[],0.2083,1,446.9073,447.4061,,,,,,694,MAS,CON,150,hielo,,l,0.2083,,447.4071,447.4077,0.112037023,0.113888882,0,0,0,,0,200,200,243,1,,,,
,,,,,,9a8af3135c09cf7c9cfcb05c,66a626ef09d4e21e1a8894ec,673606c62238f947512d2937,2024-11-14_15h19.05.462,Tarea de género gramatical,2024.2.2,Win32,60.97560976,,,,,,,,,,,,,,,,,,,,,,,447.4083,448.4699,l,1,[],[],[],[],[],[],[],0.384,1,448.4699,448.9684,,,,,,811,FEM,CON,150,oferta,,a,0.384,,448.9685,448.9685,0.112037023,0.113888882,0,0,0,,0,201,201,360,1,,,,
,,,,,,9a8af3135c09cf7c9cfcb05c,66a626ef09d4e21e1a8894ec,673606c62238f947512d2937,2024-11-14_15h19.05.462,Tarea de género gramatical,2024.2.2,Win32,60.97560976,,,,,,,,,,,,,,,,,,,,,,,448.9695,450.1987,a,1,[],[],[],[],[],[],[],0.5525,1,450.1988,450.6977,,,,,,887,MAS,DIS,150,hombro,la,l,0.5525,,450.6978,450.6979,0.112037023,0.113888882,0,0,0,,0,202,202,436,1,,,,
,,,,,,9a8af3135c09cf7c9cfcb05c,66a626ef09d4e21e1a8894ec,673606c62238f947512d2937,2024-11-14_15h19.05.462,Tarea de género gramatical,2024.2.2,Win32,60.97560976,,,,,,,,,,,,,,,,,,,,,,,450.6996,451.8937,l,1,[],[],[],[],[],[],[],0.5181,1,451.8937,452.3926,,,,,,549,FEM,AGR,150,fase,la,a,0.5181,,452.3926,452.3928,0.112037023,0.113888882,0,0,0,,0,203,203,98,1,,,,
,,,,,,9a8af3135c09cf7c9cfcb05c,66a626ef09d4e21e1a8894ec,673606c62238f947512d2937,2024-11-14_15h19.05.462,Tarea de género gramatical,2024.2.2,Win32,60.97560976,,,,,,,,,,,,,,,,,,,,,,,452.3938,453.5727,a,1,[],[],[],[],[],[],[],0.4992,1,453.5728,454.0714,,,,,,575,MAS,DIS,150,bate,la,l,0.4992,,454.0726,454.0731,0.112037023,0.113888882,0,0,0,,0,204,204,124,1,,,,
,,,,,,9a8af3135c09cf7c9cfcb05c,66a626ef09d4e21e1a8894ec,673606c62238f947512d2937,2024-11-14_15h19.05.462,Tarea de género gramatical,2024.2.2,Win32,60.97560976,,,,,,,,,,,,,,,,,,,,,,,454.074,454.9853,a,1,[],[],[],[],[],[],[],0.2417,1,454.9853,455.4843,,,,,,624,MAS,AGR,150,perro,el,l,0.2417,,455.4845,455.4845,0.112037023,0.113888882,0,0,0,,0,205,205,173,1,,,,
,,,,,,9a8af3135c09cf7c9cfcb05c,66a626ef09d4e21e1a8894ec,673606c62238f947512d2937,2024-11-14_15h19.05.462,Tarea de género gramatical,2024.2.2,Win32,60.97560976,,,,,,,,,,,,,,,,,,,,,,,455.4853,456.6477,l,1,[],[],[],[],[],[],[],0.4886,1,456.6478,457.1463,,,,,,890,FEM,DIS,150,patada,el,a,0.4886,,457.1464,457.1464,0.112037023,0.113888882,0,0,0,,0,206,206,439,1,,,,
,,,,,,9a8af3135c09cf7c9cfcb05c,66a626ef09d4e21e1a8894ec,673606c62238f947512d2937,2024-11-14_15h19.05.462,Tarea de género gramatical,2024.2.2,Win32,60.97560976,,,,,,,,,,,,,,,,,,,,,,,457.1473,458.0946,a,1,[],[],[],[],[],[],[],0.2678,1,458.0948,458.5926,,,,,,610,MAS,CON,150,señor,,l,0.2678,,458.5926,458.5926,0.112037023,0.113888882,0,0,0,,0,207,207,159,1,,,,
,,,,,,9a8af3135c09cf7c9cfcb05c,66a626ef09d4e21e1a8894ec,673606c62238f947512d2937,2024-11-14_15h19.05.462,Tarea de género gramatical,2024.2.2,Win32,60.97560976,,,,,,,,,,,,,,,,,,,,,,,458.5936,459.5564,a,1,[],[],[],[],[],[],[],0.2938,1,459.5565,460.0549,,,,,,617,MAS,DIS,150,juego,la,l,0.2938,,460.0549,460.055,0.112037023,0.113888882,0,0,0,,0,208,208,166,1,,,,
,,,,,,9a8af3135c09cf7c9cfcb05c,66a626ef09d4e21e1a8894ec,673606c62238f947512d2937,2024-11-14_15h19.05.462,Tarea de género gramatical,2024.2.2,Win32,60.97560976,,,,,,,,,,,,,,,,,,,,,,,460.0558,461.0856,l,1,[],[],[],[],[],[],[],0.35,1,461.0857,461.5842,,,,,,681,FEM,AGR,150,bruja,la,a,0.35,,461.5853,461.5858,0.112037023,0.113888882,0,0,0,,0,209,209,230,1,,,,
,,,,,,9a8af3135c09cf7c9cfcb05c,66a626ef09d4e21e1a8894ec,673606c62238f947512d2937,2024-11-14_15h19.05.462,Tarea de género gramatical,2024.2.2,Win32,60.97560976,,,,,,,,,,,,,,,,,,,,,,,461.5866,462.5981,l,1,[],[],[],[],[],[],[],0.3331,1,462.5982,463.0967,,,,,,819,FEM,AGR,150,camisa,la,a,0.3331,,463.0967,463.0969,0.112037023,0.113888882,0,0,0,,0,210,210,368,1,,,,
,,,,,,9a8af3135c09cf7c9cfcb05c,66a626ef09d4e21e1a8894ec,673606c62238f947512d2937,2024-11-14_15h19.05.462,Tarea de género gramatical,2024.2.2,Win32,60.97560976,,,,,,,,,,,,,,,,,,,,,,,463.0978,464.0774,l,1,[],[],[],[],[],[],[],0.3019,1,464.0775,464.576,,,,,,609,FEM,AGR,150,clase,la,a,0.3019,,464.5761,464.5762,0.112037023,0.113888882,0,0,0,,0,211,211,158,1,,,,
,,,,,,9a8af3135c09cf7c9cfcb05c,66a626ef09d4e21e1a8894ec,673606c62238f947512d2937,2024-11-14_15h19.05.462,Tarea de género gramatical,2024.2.2,Win32,60.97560976,,,,,,,,,,,,,,,,,,,,,,,464.5771,465.4399,a,1,[],[],[],[],[],[],[],0.194,1,465.4401,465.939,,,,,,767,MAS,DIS,150,número,la,l,0.194,,465.939,465.9391,0.112037023,0.113888882,0,0,0,,0,212,212,316,1,,,,
,,,,,,9a8af3135c09cf7c9cfcb05c,66a626ef09d4e21e1a8894ec,673606c62238f947512d2937,2024-11-14_15h19.05.462,Tarea de género gramatical,2024.2.2,Win32,60.97560976,,,,,,,,,,,,,,,,,,,,,,,465.94,466.9861,a,1,[],[],[],[],[],[],[],0.3667,1,466.9863,467.4848,,,,,,851,MAS,DIS,150,abrigo,la,l,0.3667,,467.4859,467.4866,0.112037023,0.113888882,0,0,0,,0,213,213,400,1,,,,
,,,,,,9a8af3135c09cf7c9cfcb05c,66a626ef09d4e21e1a8894ec,673606c62238f947512d2937,2024-11-14_15h19.05.462,Tarea de género gramatical,2024.2.2,Win32,60.97560976,,,,,,,,,,,,,,,,,,,,,,,467.4871,468.432,l,0,[],[],[],[],[],[],[],0.269,0,468.4327,468.9308,,,,,,528,MAS,AGR,150,oído,el,l,0.269,,468.931,468.9311,0.112037023,0.113888882,0,0,0,,0,214,214,77,1,,,,
,,,,,,9a8af3135c09cf7c9cfcb05c,66a626ef09d4e21e1a8894ec,673606c62238f947512d2937,2024-11-14_15h19.05.462,Tarea de género gramatical,2024.2.2,Win32,60.97560976,,,,,,,,,,,,,,,,,,,,,,,468.9319,469.9614,a,1,[],[],[],[],[],[],[],0.349,1,469.9621,470.46,,,,,,520,MAS,CON,150,palo,,l,0.349,,470.46,470.4602,0.112037023,0.113888882,0,0,0,,0,215,215,69,1,,,,
,,,,,,9a8af3135c09cf7c9cfcb05c,66a626ef09d4e21e1a8894ec,673606c62238f947512d2937,2024-11-14_15h19.05.462,Tarea de género gramatical,2024.2.2,Win32,60.97560976,,,,,,,,,,,,,,,,,,,,,,,470.4611,471.4074,l,1,[],[],[],[],[],[],[],0.2726,1,471.4074,471.906,,,,,,877,FEM,CON,150,agenda,,a,0.2726,,471.906,471.9061,0.112037023,0.113888882,0,0,0,,0,216,216,426,1,,,,
,,,,,,9a8af3135c09cf7c9cfcb05c,66a626ef09d4e21e1a8894ec,673606c62238f947512d2937,2024-11-14_15h19.05.462,Tarea de género gramatical,2024.2.2,Win32,60.97560976,,,,,,,,,,,,,,,,,,,,,,,471.9071,472.8534,a,1,[],[],[],[],[],[],[],0.2726,1,472.8535,473.3518,,,,,,875,MAS,DIS,150,chiste,la,l,0.2726,,473.3519,473.3519,0.112037023,0.113888882,0,0,0,,0,217,217,424,1,,,,
,,,,,,9a8af3135c09cf7c9cfcb05c,66a626ef09d4e21e1a8894ec,673606c62238f947512d2937,2024-11-14_15h19.05.462,Tarea de género gramatical,2024.2.2,Win32,60.97560976,,,,,,,,,,,,,,,,,,,,,,,473.3528,474.2828,a,1,[],[],[],[],[],[],[],0.2494,1,474.2829,474.7815,,,,,,821,MAS,DIS,150,sonido,la,l,0.2494,,474.7826,474.7832,0.112037023,0.113888882,0,0,0,,0,218,218,370,1,,,,
,,,,,,9a8af3135c09cf7c9cfcb05c,66a626ef09d4e21e1a8894ec,673606c62238f947512d2937,2024-11-14_15h19.05.462,Tarea de género gramatical,2024.2.2,Win32,60.97560976,,,,,,,,,,,,,,,,,,,,,,,474.7839,475.7951,l,1,[],[],[],[],[],[],[],0.3418,1,475.7952,476.2941,,,,,,578,FEM,DIS,150,leña,el,a,0.3418,,476.2942,476.2943,0.112037023,0.113888882,0,0,0,,0,219,219,127,1,,,,
,,,,,,9a8af3135c09cf7c9cfcb05c,66a626ef09d4e21e1a8894ec,673606c62238f947512d2937,2024-11-14_15h19.05.462,Tarea de género gramatical,2024.2.2,Win32,60.97560976,,,,,,,,,,,,,,,,,,,,,,,476.2951,477.0749,a,0,[],[],[],[],[],[],[],0.1105,0,477.0755,477.5739,,,,,,734,FEM,DIS,150,fruta,el,a,0.1105,,477.574,477.5741,0.112037023,0.113888882,0,0,0,,0,220,220,283,1,,,,
,,,,,,9a8af3135c09cf7c9cfcb05c,66a626ef09d4e21e1a8894ec,673606c62238f947512d2937,2024-11-14_15h19.05.462,Tarea de género gramatical,2024.2.2,Win32,60.97560976,,,,,,,,,,,,,,,,,,,,,,,477.5751,478.4545,a,0,[],[],[],[],[],[],[],0.2097,0,478.4546,478.9535,,,,,,547,FEM,CON,150,capa,,a,0.2097,,478.9535,478.9536,0.112037023,0.113888882,0,0,0,,0,221,221,96,1,,,,
,,,,,,9a8af3135c09cf7c9cfcb05c,66a626ef09d4e21e1a8894ec,673606c62238f947512d2937,2024-11-14_15h19.05.462,Tarea de género gramatical,2024.2.2,Win32,60.97560976,,,,,,,,,,,,,,,,,,,,,,,478.9545,480.0837,l,1,[],[],[],[],[],[],[],0.4506,1,480.0845,480.5824,,,,,,657,FEM,AGR,150,playa,la,a,0.4506,,480.5834,480.5841,0.112037023,0.113888882,0,0,0,,0,222,222,206,1,,,,
,,,,,,9a8af3135c09cf7c9cfcb05c,66a626ef09d4e21e1a8894ec,673606c62238f947512d2937,2024-11-14_15h19.05.462,Tarea de género gramatical,2024.2.2,Win32,60.97560976,,,,,,,,,,,,,,,,,,,,,,,480.5888,481.6127,l,1,[],[],[],[],[],[],[],0.3494,1,481.6128,482.1114,,,,,,739,FEM,CON,150,tabla,,a,0.3494,,482.1115,482.1115,0.112037023,0.113888882,0,0,0,,0,223,223,288,1,,,,
,,,,,,9a8af3135c09cf7c9cfcb05c,66a626ef09d4e21e1a8894ec,673606c62238f947512d2937,2024-11-14_15h19.05.462,Tarea de género gramatical,2024.2.2,Win32,60.97560976,,,,,,,,,,,,,,,,,,,,,,,482.1124,482.9754,a,1,[],[],[],[],[],[],[],0.1937,1,482.9755,483.4744,,,,,,820,MAS,CON,150,seguro,,l,0.1937,,483.4745,483.4746,0.112037023,0.113888882,0,0,0,,0,224,224,369,1,,,,
,,,,,,9a8af3135c09cf7c9cfcb05c,66a626ef09d4e21e1a8894ec,673606c62238f947512d2937,2024-11-14_15h19.05.462,Tarea de género gramatical,2024.2.2,Win32,60.97560976,,,,,,,,,,,,,,,,,,,,,,,483.4755,484.5214,a,1,[],[],[],[],[],[],[],0.3741,1,484.5215,485.0202,,,,,,785,MAS,DIS,150,montón,la,l,0.3741,,485.0202,485.0203,0.112037023,0.113888882,0,0,0,,0,225,225,334,1,,,,
,,,,,,9a8af3135c09cf7c9cfcb05c,66a626ef09d4e21e1a8894ec,673606c62238f947512d2937,2024-11-14_15h19.05.462,Tarea de género gramatical,2024.2.2,Win32,60.97560976,,,,,,,,,,,,,,,,,,,,,,,485.0213,486.0176,l,1,[],[],[],[],[],[],[],0.3149,1,486.0177,486.5163,,,,,,451,FEM,CON,150,casa,,a,0.3149,,486.5163,486.5164,0.112037023,0.113888882,0,0,0,,0,226,226,0,1,,,,
,,,,,,9a8af3135c09cf7c9cfcb05c,66a626ef09d4e21e1a8894ec,673606c62238f947512d2937,2024-11-14_15h19.05.462,Tarea de género gramatical,2024.2.2,Win32,60.97560976,,,,,,,,,,,,,,,,,,,,,,,486.5174,487.3638,a,0,[],[],[],[],[],[],[],0.1673,0,487.3645,487.8622,,,,,,488,FEM,DIS,150,obra,el,a,0.1673,,487.8634,487.864,0.112037023,0.113888882,0,0,0,,0,227,227,37,1,,,,
,,,,,,9a8af3135c09cf7c9cfcb05c,66a626ef09d4e21e1a8894ec,673606c62238f947512d2937,2024-11-14_15h19.05.462,Tarea de género gramatical,2024.2.2,Win32,60.97560976,,,,,,,,,,,,,,,,,,,,,,,487.8646,488.7267,a,1,[],[],[],[],[],[],[],0.1839,1,488.7275,489.2253,,,,,,886,MAS,CON,150,objeto,,l,0.1839,,489.2254,489.2255,0.112037023,0.113888882,0,0,0,,0,228,228,435,1,,,,
,,,,,,9a8af3135c09cf7c9cfcb05c,66a626ef09d4e21e1a8894ec,673606c62238f947512d2937,2024-11-14_15h19.05.462,Tarea de género gramatical,2024.2.2,Win32,60.97560976,,,,,,,,,,,,,,,,,,,,,,,489.2264,490.3557,l,1,[],[],[],[],[],[],[],0.4489,1,490.3557,490.8543,,,,,,614,FEM,DIS,150,novia,el,a,0.4489,,490.8543,490.8544,0.112037023,0.113888882,0,0,0,,0,229,229,163,1,,,,
,,,,,,9a8af3135c09cf7c9cfcb05c,66a626ef09d4e21e1a8894ec,673606c62238f947512d2937,2024-11-14_15h19.05.462,Tarea de género gramatical,2024.2.2,Win32,60.97560976,,,,,,,,,,,,,,,,,,,,,,,490.8553,491.9013,l,0,[],[],[],[],[],[],[],0.3733,0,491.902,492.4001,,,,,,762,MAS,AGR,150,equipo,el,l,0.3733,,492.4001,492.4002,0.112037023,0.113888882,0,0,0,,0,230,230,311,1,,,,
,,,,,,9a8af3135c09cf7c9cfcb05c,66a626ef09d4e21e1a8894ec,673606c62238f947512d2937,2024-11-14_15h19.05.462,Tarea de género gramatical,2024.2.2,Win32,60.97560976,,,,,,,,,,,,,,,,,,,,,,,492.4011,493.7629,a,1,[],[],[],[],[],[],[],0.6822,1,493.7636,494.2617,,,,,,852,MAS,AGR,150,ladrón,el,l,0.6822,,494.2628,494.2634,0.112037023,0.113888882,0,0,0,,0,231,231,401,1,,,,
,,,,,,9a8af3135c09cf7c9cfcb05c,66a626ef09d4e21e1a8894ec,673606c62238f947512d2937,2024-11-14_15h19.05.462,Tarea de género gramatical,2024.2.2,Win32,60.97560976,,,,,,,,,,,,,,,,,,,,,,,494.2643,495.2256,a,1,[],[],[],[],[],[],[],0.2835,1,495.2257,495.7241,,,,,,605,MAS,DIS,150,mundo,la,l,0.2835,,495.7242,495.7242,0.112037023,0.113888882,0,0,0,,0,232,232,154,1,,,,
,,,,,,9a8af3135c09cf7c9cfcb05c,66a626ef09d4e21e1a8894ec,673606c62238f947512d2937,2024-11-14_15h19.05.462,Tarea de género gramatical,2024.2.2,Win32,60.97560976,,,,,,,,,,,,,,,,,,,,,,,495.7251,496.8379,l,1,[],[],[],[],[],[],[],0.4419,1,496.838,497.3365,,,,,,837,FEM,AGR,150,página,la,a,0.4419,,497.3366,497.3367,0.112037023,0.113888882,0,0,0,,0,233,233,386,1,,,,
,,,,,,9a8af3135c09cf7c9cfcb05c,66a626ef09d4e21e1a8894ec,673606c62238f947512d2937,2024-11-14_15h19.05.462,Tarea de género gramatical,2024.2.2,Win32,60.97560976,,,,,,,,,,,,,,,,,,,,,,,497.3375,498.351,a,1,[],[],[],[],[],[],[],0.3349,1,498.3512,498.8493,,,,,,556,MAS,CON,150,test,,l,0.3349,,498.8494,498.8495,0.112037023,0.113888882,0,0,0,,0,234,234,105,1,,,,
,,,,,,9a8af3135c09cf7c9cfcb05c,66a626ef09d4e21e1a8894ec,673606c62238f947512d2937,2024-11-14_15h19.05.462,Tarea de género gramatical,2024.2.2,Win32,60.97560976,,,,,,,,,,,,,,,,,,,,,,,498.8505,500.0791,l,1,[],[],[],[],[],[],[],0.5553,1,500.0792,500.5777,,,,,,740,FEM,DIS,150,cabra,el,a,0.5553,,500.5777,500.5778,0.112037023,0.113888882,0,0,0,,0,235,235,289,1,,,,
,,,,,,9a8af3135c09cf7c9cfcb05c,66a626ef09d4e21e1a8894ec,673606c62238f947512d2937,2024-11-14_15h19.05.462,Tarea de género gramatical,2024.2.2,Win32,60.97560976,,,,,,,,,,,,,,,,,,,,,,,500.5788,501.6246,l,1,[],[],[],[],[],[],[],0.3667,1,501.6248,502.1235,,,,,,561,FEM,AGR,150,goma,la,a,0.3667,,502.1247,502.1253,0.112037023,0.113888882,0,0,0,,0,236,236,110,1,,,,
,,,,,,9a8af3135c09cf7c9cfcb05c,66a626ef09d4e21e1a8894ec,673606c62238f947512d2937,2024-11-14_15h19.05.462,Tarea de género gramatical,2024.2.2,Win32,60.97560976,,,,,,,,,,,,,,,,,,,,,,,502.1265,503.2372,l,1,[],[],[],[],[],[],[],0.4326,1,503.2373,503.7356,,,,,,897,FEM,AGR,150,lógica,la,a,0.4326,,503.7356,503.7357,0.112037023,0.113888882,0,0,0,,0,237,237,446,1,,,,
,,,,,,9a8af3135c09cf7c9cfcb05c,66a626ef09d4e21e1a8894ec,673606c62238f947512d2937,2024-11-14_15h19.05.462,Tarea de género gramatical,2024.2.2,Win32,60.97560976,,,,,,,,,,,,,,,,,,,,,,,503.7366,504.7993,a,1,[],[],[],[],[],[],[],0.3835,1,504.7993,505.2978,,,,,,737,MAS,DIS,150,plato,la,l,0.3835,,505.2978,505.2979,0.112037023,0.113888882,0,0,0,,0,238,238,286,1,,,,
,,,,,,9a8af3135c09cf7c9cfcb05c,66a626ef09d4e21e1a8894ec,673606c62238f947512d2937,2024-11-14_15h19.05.462,Tarea de género gramatical,2024.2.2,Win32,60.97560976,,,,,,,,,,,,,,,,,,,,,,,505.2988,506.4447,a,1,[],[],[],[],[],[],[],0.4758,1,506.4448,506.9437,,,,,,701,MAS,DIS,150,dueño,la,l,0.4758,,506.9437,506.9438,0.112037023,0.113888882,0,0,0,,0,239,239,250,1,,,,
,,,,,,9a8af3135c09cf7c9cfcb05c,66a626ef09d4e21e1a8894ec,673606c62238f947512d2937,2024-11-14_15h19.05.462,Tarea de género gramatical,2024.2.2,Win32,60.97560976,,,,,,,,,,,,,,,,,,,,,,,506.9447,508.1067,l,1,[],[],[],[],[],[],[],0.4805,1,508.1068,508.6056,,,,,,579,FEM,AGR,150,rana,la,a,0.4805,,508.6066,508.6072,0.112037023,0.113888882,0,0,0,,0,240,240,128,1,,,,
,,,,,,9a8af3135c09cf7c9cfcb05c,66a626ef09d4e21e1a8894ec,673606c62238f947512d2937,2024-11-14_15h19.05.462,Tarea de género gramatical,2024.2.2,Win32,60.97560976,,,,,,,,,,,,,,,,,,,,,,,508.6079,509.6197,a,1,[],[],[],[],[],[],[],0.3367,1,509.6198,510.1184,,,,,,731,MAS,DIS,150,actor,la,l,0.3367,,510.1184,510.1185,0.112037023,0.113888882,0,0,0,,0,241,241,280,1,,,,
,,,,,,9a8af3135c09cf7c9cfcb05c,66a626ef09d4e21e1a8894ec,673606c62238f947512d2937,2024-11-14_15h19.05.462,Tarea de género gramatical,2024.2.2,Win32,60.97560976,,,,,,,,,,,,,,,,,,,,,,,510.1194,511.2153,l,1,[],[],[],[],[],[],[],0.4159,1,511.2154,511.7138,,,,,,818,FEM,DIS,150,gracia,el,a,0.4159,,511.7139,511.7141,0.112037023,0.113888882,0,0,0,,0,242,242,367,1,,,,
,,,,,,9a8af3135c09cf7c9cfcb05c,66a626ef09d4e21e1a8894ec,673606c62238f947512d2937,2024-11-14_15h19.05.462,Tarea de género gramatical,2024.2.2,Win32,60.97560976,,,,,,,,,,,,,,,,,,,,,,,511.7149,512.9106,l,1,[],[],[],[],[],[],[],0.5227,1,512.9107,513.4093,,,,,,735,FEM,AGR,150,mafia,la,a,0.5227,,513.4094,513.4095,0.112037023,0.113888882,0,0,0,,0,243,243,284,1,,,,
,,,,,,9a8af3135c09cf7c9cfcb05c,66a626ef09d4e21e1a8894ec,673606c62238f947512d2937,2024-11-14_15h19.05.462,Tarea de género gramatical,2024.2.2,Win32,60.97560976,,,,,,,,,,,,,,,,,,,,,,,513.4106,514.7721,a,0,[],[],[],[],[],[],[],0.6817,0,514.7728,515.2712,,,,,,644,FEM,DIS,150,banda,el,a,0.6817,,515.2712,515.2713,0.112037023,0.113888882,0,0,0,,0,244,244,193,1,,,,
,,,,,,9a8af3135c09cf7c9cfcb05c,66a626ef09d4e21e1a8894ec,673606c62238f947512d2937,2024-11-14_15h19.05.462,Tarea de género gramatical,2024.2.2,Win32,60.97560976,,,,,,,,,,,,,,,,,,,,,,,515.2722,516.4178,l,1,[],[],[],[],[],[],[],0.4627,1,516.4184,516.9164,,,,,,765,FEM,AGR,150,manera,la,a,0.4627,,516.9174,516.9179,0.112037023,0.113888882,0,0,0,,0,245,245,314,1,,,,
,,,,,,9a8af3135c09cf7c9cfcb05c,66a626ef09d4e21e1a8894ec,673606c62238f947512d2937,2024-11-14_15h19.05.462,Tarea de género gramatical,2024.2.2,Win32,60.97560976,,,,,,,,,,,,,,,,,,,,,,,516.9186,518.0298,l,1,[],[],[],[],[],[],[],0.4377,1,518.0299,518.5283,,,,,,668,FEM,DIS,150,nieve,el,a,0.4377,,518.5283,518.5285,0.112037023,0.113888882,0,0,0,,0,246,246,217,1,,,,
,,,,,,9a8af3135c09cf7c9cfcb05c,66a626ef09d4e21e1a8894ec,673606c62238f947512d2937,2024-11-14_15h19.05.462,Tarea de género gramatical,2024.2.2,Win32,60.97560976,,,,,,,,,,,,,,,,,,,,,,,518.5292,519.5094,a,1,[],[],[],[],[],[],[],0.3085,1,519.5095,520.008,,,,,,526,MAS,CON,150,lujo,,l,0.3085,,520.008,520.0081,0.112037023,0.113888882,0,0,0,,0,247,247,75,1,,,,
,,,,,,9a8af3135c09cf7c9cfcb05c,66a626ef09d4e21e1a8894ec,673606c62238f947512d2937,2024-11-14_15h19.05.462,Tarea de género gramatical,2024.2.2,Win32,60.97560976,,,,,,,,,,,,,,,,,,,,,,,520.009,521.0053,a,0,[],[],[],[],[],[],[],0.3259,0,521.0061,521.5039,,,,,,763,FEM,CON,150,ciudad,,a,0.3259,,521.504,521.5041,0.112037023,0.113888882,0,0,0,,0,248,248,312,1,,,,
,,,,,,9a8af3135c09cf7c9cfcb05c,66a626ef09d4e21e1a8894ec,673606c62238f947512d2937,2024-11-14_15h19.05.462,Tarea de género gramatical,2024.2.2,Win32,60.97560976,,,,,,,,,,,,,,,,,,,,,,,521.5049,522.5842,l,1,[],[],[],[],[],[],[],0.4032,1,522.5849,523.0829,,,,,,603,FEM,AGR,150,mujer,la,a,0.4032,,523.0841,523.0851,0.112037023,0.113888882,0,0,0,,0,249,249,152,1,,,,
,,,,,,9a8af3135c09cf7c9cfcb05c,66a626ef09d4e21e1a8894ec,673606c62238f947512d2937,2024-11-14_15h19.05.462,Tarea de género gramatical,2024.2.2,Win32,60.97560976,,,,,,,,,,,,,,,,,,,,,,,523.086,524.0637,l,1,[],[],[],[],[],[],[],0.3043,1,524.0638,524.562,,,,,,805,FEM,CON,150,mirada,,a,0.3043,,524.562,524.5622,0.112037023,0.113888882,0,0,0,,0,250,250,354,1,,,,
,,,,,,9a8af3135c09cf7c9cfcb05c,66a626ef09d4e21e1a8894ec,673606c62238f947512d2937,2024-11-14_15h19.05.462,Tarea de género gramatical,2024.2.2,Win32,60.97560976,,,,,,,,,,,,,,,,,,,,,,,524.563,525.7256,l,1,[],[],[],[],[],[],[],0.481,1,525.7257,526.2243,,,,,,572,FEM,DIS,150,loca,el,a,0.481,,526.2243,526.2244,0.112037023,0.113888882,0,0,0,,0,251,251,121,1,,,,
,,,,,,9a8af3135c09cf7c9cfcb05c,66a626ef09d4e21e1a8894ec,673606c62238f947512d2937,2024-11-14_15h19.05.462,Tarea de género gramatical,2024.2.2,Win32,60.97560976,,,,,,,,,,,,,,,,,,,,,,,526.2252,527.2715,l,1,[],[],[],[],[],[],[],0.3656,1,527.2716,527.7702,,,,,,843,FEM,AGR,150,alarma,la,a,0.3656,,527.7704,527.7705,0.112037023,0.113888882,0,0,0,,0,252,252,392,1,,,,
