counterbalancing_condition,consent_prescreening.block_1/declare_consent,consent_prescreening.block_1/age_years,consent_prescreening.block_1/gender,consent_prescreening.block_1/language_disorder,consent_prescreening.block_1/first_language,PROLIFIC_PID,STUDY_ID,SESSION_ID,date,expName,psychopyVersion,OS,frameRate,check_prescreening_answers.started,check_prescreening_answers.stopped,Instructions.started,Instructions.stopped,instr_done_keyboard.keys,instr_done_touch.x,instr_done_touch.y,instr_done_touch.leftButton,instr_done_touch.midButton,instr_done_touch.rightButton,instr_done_touch.clicked_name,instruction_pages.thisRepN,instruction_pages.thisTrialN,instruction_pages.thisN,instruction_pages.thisIndex,instruction_pages.ran,pageN,phase,instruct_text,has_image,instruct_image,instr_done_keyboard.rt,instr_done_keyboard.duration,presentTrial.started,presentTrial.stopped,response.keys,response.corr,touch_resp.x,touch_resp.y,touch_resp.leftButton,touch_resp.midButton,touch_resp.rightButton,touch_resp.time,touch_resp.clicked_name,rt,corr,feedback.started,feedback.stopped,practice_trials.thisRepN,practice_trials.thisTrialN,practice_trials.thisN,practice_trials.thisIndex,practice_trials.ran,TrialID,StimulusType,Condition,PrimeDuration,Prime,Flanker,corrAns,response.rt,response.duration,Break.started,Break.stopped,break_done_touch.x,break_done_touch.y,break_done_touch.leftButton,break_done_touch.midButton,break_done_touch.rightButton,break_done_keyboard.keys,experiment_trials.thisRepN,experiment_trials.thisTrialN,experiment_trials.thisN,experiment_trials.thisIndex,experiment_trials.ran,break_done_touch.clicked_name,End.started,End.stopped
2,"[""over_18"",""comfortable"",""read_info"",""consent_given""]",34,M,"[""none""]","[""spanish""]",9bd3b6297774f540a58f8031,66a626ef09d4e21e1a8894ec,673729bf81a9922c5bb089cd,2024-11-15_12h03.30.850,Tarea de género gramatical,2024.2.2,Win32,60.24096386,,,,,,,,,,,,,,,,,,,,,,,,,,,,,,,,,,,,,,,,,,,,,,,,,,,,,,,,,,,,,,,,,,,,
,,,,,,9bd3b6297774f540a58f8031,66a626ef09d4e21e1a8894ec,673729bf81a9922c5bb089cd,2024-11-15_12h03.30.850,Tarea de género gramatical,2024.2.2,Win32,60.24096386,122.3419,122.3423,,,,,,,,,,,,,,,,,,,,,,,,,,,,,,,,,,,,,,,,,,,,,,,,,,,,,,,,,,,,,,,,,,
,,,,,,9bd3b6297774f540a58f8031,66a626ef09d4e21e1a8894ec,673729bf81a9922c5bb089cd,2024-11-15_12h03.30.850,Tarea de género gramatical,2024.2.2,Win32,60.24096386,,,122.3933,148.0814,,-0.09375,-0.404947917,1,0,0,instr_done_button,0,0,0,0,1,1,instructions,"INSTRUCCIONES
Va a realizar una prueba de selección gramatical. Desde el comienzo de la prueba mire siempre al centro de la pantalla. Al cabo de un momento, aparecerán palabras. La tarea consiste en determinar si la palabra del centro (siempre será un sustantivo), pertenece al género masculino o femenino.

Pulse la tecla ESPACIO o toque el botón de abajo para continuar.",0,keyboardresponseFM.png,,,,,,,,,,,,,,,,,,,,,,,,,,,,,,,,,,,,,,,,,,,,,,,
,,,,,,9bd3b6297774f540a58f8031,66a626ef09d4e21e1a8894ec,673729bf81a9922c5bb089cd,2024-11-15_12h03.30.850,Tarea de género gramatical,2024.2.2,Win32,60.24096386,,,148.1177,165.0985,space,0.595052083,-0.026041667,0,0,0,,0,1,1,1,1,2,instructions,"Si su dispositivo tiene teclado, pulse la tecla ""A"" para las palabras en femenino (por ejemplo: ""mano"") y la tecla ""L"" para las palabras en masculino(por ejemplo: ""arroz"").
Pulse la tecla ESPACIO o toque el botón de abajo para continuar.",1,keyboardresponseFM.png,16.9028,,,,,,,,,,,,,,,,,,,,,,,,,,,,,,,,,,,,,,,,,,,,,,
,,,,,,9bd3b6297774f540a58f8031,66a626ef09d4e21e1a8894ec,673729bf81a9922c5bb089cd,2024-11-15_12h03.30.850,Tarea de género gramatical,2024.2.2,Win32,60.24096386,,,165.1033,173.991,space,0.595052083,-0.026041667,0,0,0,,0,2,2,2,1,3,instructions,"Si utiliza un dispositivo sólo táctil, colóquelo en horizontal y utilice los botones de la pantalla. No utilice el ratón.
Pulse la tecla ESPACIO o toque el botón de abajo para continuar.",2,touchresponseFM.png,8.8255,,,,,,,,,,,,,,,,,,,,,,,,,,,,,,,,,,,,,,,,,,,,,,
,,,,,,9bd3b6297774f540a58f8031,66a626ef09d4e21e1a8894ec,673729bf81a9922c5bb089cd,2024-11-15_12h03.30.850,Tarea de género gramatical,2024.2.2,Win32,60.24096386,,,173.9967,185.294,space,0.595052083,-0.026041667,0,0,0,,0,3,3,3,1,4,instructions,"Es muy importante que responda con la mayor rapidez y precisión posibles, ya que cada cadena de letras sólo estará en pantalla durante un instante. Si no responde en ese tiempo, aparecerá el mensaje ""Muy lento"" y el experimento pasará a la siguiente palabra. Los primeros 15 intentos serán de práctica y habrá dos descansos durante la prueba.
Pulse la tecla ESPACIO o toque el botón de abajo para iniciar la parte de práctica.",0,keyboardresponseFM.png,11.2738,,,,,,,,,,,,,,,,,,,,,,,,,,,,,,,,,,,,,,,,,,,,,,
,,,,,,9bd3b6297774f540a58f8031,66a626ef09d4e21e1a8894ec,673729bf81a9922c5bb089cd,2024-11-15_12h03.30.850,Tarea de género gramatical,2024.2.2,Win32,60.24096386,,,,,,,,,,,,,,,,,,,,,,,,185.3297,187.9708,,0,[],[],[],[],[],[],[],,-1,187.9716,188.4691,0,0,0,5,1,2006,FEM,DIS,150,serie,el,a,,,,,,,,,,,,,,,,,,
,,,,,,9bd3b6297774f540a58f8031,66a626ef09d4e21e1a8894ec,673729bf81a9922c5bb089cd,2024-11-15_12h03.30.850,Tarea de género gramatical,2024.2.2,Win32,60.24096386,,,,,,,,,,,,,,,,,,,,,,,,188.4717,190.4302,l,1,[],[],[],[],[],[],[],1.2798,1,190.4857,190.929,0,1,1,13,1,2014,MAS,CON,150,siglo,,l,1.2798,,,,,,,,,,,,,,,,,
,,,,,,9bd3b6297774f540a58f8031,66a626ef09d4e21e1a8894ec,673729bf81a9922c5bb089cd,2024-11-15_12h03.30.850,Tarea de género gramatical,2024.2.2,Win32,60.24096386,,,,,,,,,,,,,,,,,,,,,,,,190.9317,192.5252,a,0,[],[],[],[],[],[],[],0.9168,0,192.5281,193.0234,0,2,2,11,1,2012,MAS,DIS,150,clima,la,l,0.9168,,,,,,,,,,,,,,,,,
,,,,,,9bd3b6297774f540a58f8031,66a626ef09d4e21e1a8894ec,673729bf81a9922c5bb089cd,2024-11-15_12h03.30.850,Tarea de género gramatical,2024.2.2,Win32,60.24096386,,,,,,,,,,,,,,,,,,,,,,,,193.0261,195.3506,a,1,[],[],[],[],[],[],[],1.6485,1,195.3518,195.8498,0,3,3,7,1,2008,FEM,CON,150,siesta,,a,1.6485,,,,,,,,,,,,,,,,,
,,,,,,9bd3b6297774f540a58f8031,66a626ef09d4e21e1a8894ec,673729bf81a9922c5bb089cd,2024-11-15_12h03.30.850,Tarea de género gramatical,2024.2.2,Win32,60.24096386,,,,,,,,,,,,,,,,,,,,,,,,195.8556,197.3955,a,1,[],[],[],[],[],[],[],0.8725,1,197.3956,197.8941,0,4,4,6,1,2007,FEM,AGR,150,navaja,la,a,0.8725,,,,,,,,,,,,,,,,,
,,,,,,9bd3b6297774f540a58f8031,66a626ef09d4e21e1a8894ec,673729bf81a9922c5bb089cd,2024-11-15_12h03.30.850,Tarea de género gramatical,2024.2.2,Win32,60.24096386,,,,,,,,,,,,,,,,,,,,,,,,197.8976,199.7885,a,1,[],[],[],[],[],[],[],1.2222,1,199.7887,200.2878,0,5,5,0,1,2001,FEM,AGR,150,nuca,la,a,1.2222,,,,,,,,,,,,,,,,,
,,,,,,9bd3b6297774f540a58f8031,66a626ef09d4e21e1a8894ec,673729bf81a9922c5bb089cd,2024-11-15_12h03.30.850,Tarea de género gramatical,2024.2.2,Win32,60.24096386,,,,,,,,,,,,,,,,,,,,,,,,200.2911,201.9832,a,1,[],[],[],[],[],[],[],1.0156,1,201.9836,202.4819,0,6,6,4,1,2005,FEM,CON,150,placa,,a,1.0156,,,,,,,,,,,,,,,,,
,,,,,,9bd3b6297774f540a58f8031,66a626ef09d4e21e1a8894ec,673729bf81a9922c5bb089cd,2024-11-15_12h03.30.850,Tarea de género gramatical,2024.2.2,Win32,60.24096386,,,,,,,,,,,,,,,,,,,,,,,,202.4849,203.8616,l,0,[],[],[],[],[],[],[],0.7084,0,203.8627,204.3596,0,7,7,2,1,2003,FEM,DIS,150,daga,el,a,0.7084,,,,,,,,,,,,,,,,,
,,,,,,9bd3b6297774f540a58f8031,66a626ef09d4e21e1a8894ec,673729bf81a9922c5bb089cd,2024-11-15_12h03.30.850,Tarea de género gramatical,2024.2.2,Win32,60.24096386,,,,,,,,,,,,,,,,,,,,,,,,204.3611,206.4374,l,1,[],[],[],[],[],[],[],1.3991,1,206.4384,206.9361,0,8,8,8,1,2009,MAS,DIS,150,puerto,la,l,1.3991,,,,,,,,,,,,,,,,,
,,,,,,9bd3b6297774f540a58f8031,66a626ef09d4e21e1a8894ec,673729bf81a9922c5bb089cd,2024-11-15_12h03.30.850,Tarea de género gramatical,2024.2.2,Win32,60.24096386,,,,,,,,,,,,,,,,,,,,,,,,206.9372,208.5325,a,1,[],[],[],[],[],[],[],0.9166,1,208.5327,209.031,0,9,9,1,1,2002,FEM,CON,150,pala,,a,0.9166,,,,,,,,,,,,,,,,,
,,,,,,9bd3b6297774f540a58f8031,66a626ef09d4e21e1a8894ec,673729bf81a9922c5bb089cd,2024-11-15_12h03.30.850,Tarea de género gramatical,2024.2.2,Win32,60.24096386,,,,,,,,,,,,,,,,,,,,,,,,209.0333,210.7929,a,1,[],[],[],[],[],[],[],1.0857,1,210.7931,211.2916,0,10,10,3,1,2004,FEM,AGR,150,venta,la,a,1.0857,,,,,,,,,,,,,,,,,
,,,,,,9bd3b6297774f540a58f8031,66a626ef09d4e21e1a8894ec,673729bf81a9922c5bb089cd,2024-11-15_12h03.30.850,Tarea de género gramatical,2024.2.2,Win32,60.24096386,,,,,,,,,,,,,,,,,,,,,,,,211.2947,212.7212,l,1,[],[],[],[],[],[],[],0.7498,1,212.7214,213.2199,0,11,11,14,1,2015,MAS,DIS,150,robot,la,l,0.7498,,,,,,,,,,,,,,,,,
,,,,,,9bd3b6297774f540a58f8031,66a626ef09d4e21e1a8894ec,673729bf81a9922c5bb089cd,2024-11-15_12h03.30.850,Tarea de género gramatical,2024.2.2,Win32,60.24096386,,,,,,,,,,,,,,,,,,,,,,,,213.2225,214.5158,l,1,[],[],[],[],[],[],[],0.6237,1,214.5159,215.0145,0,12,12,12,1,2013,MAS,AGR,150,acero,el,l,0.6237,,,,,,,,,,,,,,,,,
,,,,,,9bd3b6297774f540a58f8031,66a626ef09d4e21e1a8894ec,673729bf81a9922c5bb089cd,2024-11-15_12h03.30.850,Tarea de género gramatical,2024.2.2,Win32,60.24096386,,,,,,,,,,,,,,,,,,,,,,,,215.0158,216.2449,l,1,[],[],[],[],[],[],[],0.5581,1,216.2452,216.7441,0,13,13,10,1,2011,MAS,CON,150,canal,,l,0.5581,,,,,,,,,,,,,,,,,
,,,,,,9bd3b6297774f540a58f8031,66a626ef09d4e21e1a8894ec,673729bf81a9922c5bb089cd,2024-11-15_12h03.30.850,Tarea de género gramatical,2024.2.2,Win32,60.24096386,,,,,,,,,,,,,,,,,,,,,,,,216.7476,217.9898,l,1,[],[],[],[],[],[],[],0.5723,1,217.99,218.4891,0,14,14,9,1,2010,MAS,AGR,150,vecino,el,l,0.5723,,,,,,,,,,,,,,,,,
,,,,,,9bd3b6297774f540a58f8031,66a626ef09d4e21e1a8894ec,673729bf81a9922c5bb089cd,2024-11-15_12h03.30.850,Tarea de género gramatical,2024.2.2,Win32,60.24096386,,,225.9936,240.3683,space,0.595052083,-0.026041667,0,0,0,,,,,,,,,,,,14.3545,,240.4653,241.7931,l,1,[],[],[],[],[],[],[],0.6491,1,241.7935,242.292,,,,,,990,MAS,CON,150,león,,l,0.6491,,242.2929,242.3032,0.595052083,-0.026041667,0,0,0,,0,0,0,89,1,,,
,,,,,,9bd3b6297774f540a58f8031,66a626ef09d4e21e1a8894ec,673729bf81a9922c5bb089cd,2024-11-15_12h03.30.850,Tarea de género gramatical,2024.2.2,Win32,60.24096386,,,,,,,,,,,,,,,,,,,,,,,,242.3055,243.5605,a,1,[],[],[],[],[],[],[],0.5845,1,243.5606,244.0599,,,,,,962,FEM,AGR,150,sopa,la,a,0.5845,,244.06,244.0605,0.595052083,-0.026041667,0,0,0,,0,1,1,61,1,,,
,,,,,,9bd3b6297774f540a58f8031,66a626ef09d4e21e1a8894ec,673729bf81a9922c5bb089cd,2024-11-15_12h03.30.850,Tarea de género gramatical,2024.2.2,Win32,60.24096386,,,,,,,,,,,,,,,,,,,,,,,,244.0627,245.241,l,1,[],[],[],[],[],[],[],0.5105,1,245.2412,245.7387,,,,,,1247,MAS,AGR,150,cuello,el,l,0.5105,,245.742,245.7437,0.595052083,-0.026041667,0,0,0,,0,2,2,346,1,,,
,,,,,,9bd3b6297774f540a58f8031,66a626ef09d4e21e1a8894ec,673729bf81a9922c5bb089cd,2024-11-15_12h03.30.850,Tarea de género gramatical,2024.2.2,Win32,60.24096386,,,,,,,,,,,,,,,,,,,,,,,,245.7461,247.0622,l,1,[],[],[],[],[],[],[],0.655,1,247.0623,247.5606,,,,,,1061,MAS,AGR,150,chico,el,l,0.655,,247.5608,247.5611,0.595052083,-0.026041667,0,0,0,,0,3,3,160,1,,,
,,,,,,9bd3b6297774f540a58f8031,66a626ef09d4e21e1a8894ec,673729bf81a9922c5bb089cd,2024-11-15_12h03.30.850,Tarea de género gramatical,2024.2.2,Win32,60.24096386,,,,,,,,,,,,,,,,,,,,,,,,247.5627,249.0068,l,1,[],[],[],[],[],[],[],0.7707,1,249.0069,249.5054,,,,,,923,MAS,AGR,150,rato,el,l,0.7707,,249.5055,249.5058,0.595052083,-0.026041667,0,0,0,,0,4,4,22,1,,,
,,,,,,9bd3b6297774f540a58f8031,66a626ef09d4e21e1a8894ec,673729bf81a9922c5bb089cd,2024-11-15_12h03.30.850,Tarea de género gramatical,2024.2.2,Win32,60.24096386,,,,,,,,,,,,,,,,,,,,,,,,249.5072,250.6358,l,1,[],[],[],[],[],[],[],0.4594,1,250.636,251.1345,,,,,,1056,MAS,CON,150,amigo,,l,0.4594,,251.1346,251.135,0.595052083,-0.026041667,0,0,0,,0,5,5,155,1,,,
,,,,,,9bd3b6297774f540a58f8031,66a626ef09d4e21e1a8894ec,673729bf81a9922c5bb089cd,2024-11-15_12h03.30.850,Tarea de género gramatical,2024.2.2,Win32,60.24096386,,,,,,,,,,,,,,,,,,,,,,,,251.1364,252.2482,a,1,[],[],[],[],[],[],[],0.4413,1,252.2483,252.7468,,,,,,1269,FEM,CON,150,camisa,,a,0.4413,,252.7492,252.7507,0.595052083,-0.026041667,0,0,0,,0,6,6,368,1,,,
,,,,,,9bd3b6297774f540a58f8031,66a626ef09d4e21e1a8894ec,673729bf81a9922c5bb089cd,2024-11-15_12h03.30.850,Tarea de género gramatical,2024.2.2,Win32,60.24096386,,,,,,,,,,,,,,,,,,,,,,,,252.7527,253.9823,l,1,[],[],[],[],[],[],[],0.5658,1,253.9825,254.4755,,,,,,1289,MAS,AGR,150,tamaño,el,l,0.5658,,254.4757,254.476,0.595052083,-0.026041667,0,0,0,,0,7,7,388,1,,,
,,,,,,9bd3b6297774f540a58f8031,66a626ef09d4e21e1a8894ec,673729bf81a9922c5bb089cd,2024-11-15_12h03.30.850,Tarea de género gramatical,2024.2.2,Win32,60.24096386,,,,,,,,,,,,,,,,,,,,,,,,254.4783,256.0123,a,1,[],[],[],[],[],[],[],0.8663,1,256.0128,256.5071,,,,,,1017,FEM,CON,150,raya,,a,0.8663,,256.5073,256.5077,0.595052083,-0.026041667,0,0,0,,0,8,8,116,1,,,
,,,,,,9bd3b6297774f540a58f8031,66a626ef09d4e21e1a8894ec,673729bf81a9922c5bb089cd,2024-11-15_12h03.30.850,Tarea de género gramatical,2024.2.2,Win32,60.24096386,,,,,,,,,,,,,,,,,,,,,,,,256.5098,257.7402,l,1,[],[],[],[],[],[],[],0.5492,1,257.7406,258.2327,,,,,,977,MAS,AGR,150,pico,el,l,0.5492,,258.2329,258.2337,0.595052083,-0.026041667,0,0,0,,0,9,9,76,1,,,
,,,,,,9bd3b6297774f540a58f8031,66a626ef09d4e21e1a8894ec,673729bf81a9922c5bb089cd,2024-11-15_12h03.30.850,Tarea de género gramatical,2024.2.2,Win32,60.24096386,,,,,,,,,,,,,,,,,,,,,,,,258.2367,259.5859,a,1,[],[],[],[],[],[],[],0.6662,1,259.5861,260.0777,,,,,,999,FEM,CON,150,fase,,a,0.6662,,260.0778,260.0785,0.595052083,-0.026041667,0,0,0,,0,10,10,98,1,,,
,,,,,,9bd3b6297774f540a58f8031,66a626ef09d4e21e1a8894ec,673729bf81a9922c5bb089cd,2024-11-15_12h03.30.850,Tarea de género gramatical,2024.2.2,Win32,60.24096386,,,,,,,,,,,,,,,,,,,,,,,,260.0807,261.313,a,1,[],[],[],[],[],[],[],0.5491,1,261.3132,261.8065,,,,,,1304,FEM,AGR,150,gloria,la,a,0.5491,,261.8101,261.8116,0.595052083,-0.026041667,0,0,0,,0,11,11,403,1,,,
,,,,,,9bd3b6297774f540a58f8031,66a626ef09d4e21e1a8894ec,673729bf81a9922c5bb089cd,2024-11-15_12h03.30.850,Tarea de género gramatical,2024.2.2,Win32,60.24096386,,,,,,,,,,,,,,,,,,,,,,,,261.8135,263.1195,a,1,[],[],[],[],[],[],[],0.6407,1,263.1197,263.6182,,,,,,991,FEM,DIS,150,hoja,el,a,0.6407,,263.6183,263.6186,0.595052083,-0.026041667,0,0,0,,0,12,12,90,1,,,
,,,,,,9bd3b6297774f540a58f8031,66a626ef09d4e21e1a8894ec,673729bf81a9922c5bb089cd,2024-11-15_12h03.30.850,Tarea de género gramatical,2024.2.2,Win32,60.24096386,,,,,,,,,,,,,,,,,,,,,,,,263.6216,264.7653,l,1,[],[],[],[],[],[],[],0.465,1,264.7655,265.2637,,,,,,1054,MAS,DIS,150,padre,la,l,0.465,,265.2638,265.2642,0.595052083,-0.026041667,0,0,0,,0,13,13,153,1,,,
,,,,,,9bd3b6297774f540a58f8031,66a626ef09d4e21e1a8894ec,673729bf81a9922c5bb089cd,2024-11-15_12h03.30.850,Tarea de género gramatical,2024.2.2,Win32,60.24096386,,,,,,,,,,,,,,,,,,,,,,,,265.2667,266.3608,a,1,[],[],[],[],[],[],[],0.4229,1,266.361,266.8592,,,,,,903,FEM,CON,150,cosa,,a,0.4229,,266.8593,266.8595,0.595052083,-0.026041667,0,0,0,,0,14,14,2,1,,,
,,,,,,9bd3b6297774f540a58f8031,66a626ef09d4e21e1a8894ec,673729bf81a9922c5bb089cd,2024-11-15_12h03.30.850,Tarea de género gramatical,2024.2.2,Win32,60.24096386,,,,,,,,,,,,,,,,,,,,,,,,266.8608,268.1063,a,1,[],[],[],[],[],[],[],0.5672,1,268.1065,268.6048,,,,,,1285,FEM,DIS,150,muñeca,el,a,0.5672,,268.6092,268.6108,0.595052083,-0.026041667,0,0,0,,0,15,15,384,1,,,
,,,,,,9bd3b6297774f540a58f8031,66a626ef09d4e21e1a8894ec,673729bf81a9922c5bb089cd,2024-11-15_12h03.30.850,Tarea de género gramatical,2024.2.2,Win32,60.24096386,,,,,,,,,,,,,,,,,,,,,,,,268.6123,269.9056,a,1,[],[],[],[],[],[],[],0.6259,1,269.9059,270.3998,,,,,,1041,FEM,CON,150,cera,,a,0.6259,,270.3999,270.4,0.595052083,-0.026041667,0,0,0,,0,16,16,140,1,,,
,,,,,,9bd3b6297774f540a58f8031,66a626ef09d4e21e1a8894ec,673729bf81a9922c5bb089cd,2024-11-15_12h03.30.850,Tarea de género gramatical,2024.2.2,Win32,60.24096386,,,,,,,,,,,,,,,,,,,,,,,,270.4019,271.5531,l,1,[],[],[],[],[],[],[],0.4828,1,271.5533,272.0517,,,,,,1060,MAS,DIS,150,señor,la,l,0.4828,,272.0518,272.0521,0.595052083,-0.026041667,0,0,0,,0,17,17,159,1,,,
,,,,,,9bd3b6297774f540a58f8031,66a626ef09d4e21e1a8894ec,673729bf81a9922c5bb089cd,2024-11-15_12h03.30.850,Tarea de género gramatical,2024.2.2,Win32,60.24096386,,,,,,,,,,,,,,,,,,,,,,,,272.054,273.3145,a,1,[],[],[],[],[],[],[],0.5927,1,273.3145,273.8131,,,,,,933,FEM,CON,150,boda,,a,0.5927,,273.8133,273.8138,0.595052083,-0.026041667,0,0,0,,0,18,18,32,1,,,
,,,,,,9bd3b6297774f540a58f8031,66a626ef09d4e21e1a8894ec,673729bf81a9922c5bb089cd,2024-11-15_12h03.30.850,Tarea de género gramatical,2024.2.2,Win32,60.24096386,,,,,,,,,,,,,,,,,,,,,,,,273.8157,275.2437,l,1,[],[],[],[],[],[],[],0.7618,1,275.2439,275.7388,,,,,,1012,MAS,DIS,150,reto,la,l,0.7618,,275.739,275.7392,0.595052083,-0.026041667,0,0,0,,0,19,19,111,1,,,
,,,,,,9bd3b6297774f540a58f8031,66a626ef09d4e21e1a8894ec,673729bf81a9922c5bb089cd,2024-11-15_12h03.30.850,Tarea de género gramatical,2024.2.2,Win32,60.24096386,,,,,,,,,,,,,,,,,,,,,,,,275.7414,277.165,a,1,[],[],[],[],[],[],[],0.7507,1,277.1651,277.6639,,,,,,1023,FEM,CON,150,tela,,a,0.7507,,277.668,277.6697,0.595052083,-0.026041667,0,0,0,,0,20,20,122,1,,,
,,,,,,9bd3b6297774f540a58f8031,66a626ef09d4e21e1a8894ec,673729bf81a9922c5bb089cd,2024-11-15_12h03.30.850,Tarea de género gramatical,2024.2.2,Win32,60.24096386,,,,,,,,,,,,,,,,,,,,,,,,277.6716,278.8441,a,1,[],[],[],[],[],[],[],0.5043,1,278.8443,279.3429,,,,,,1333,FEM,DIS,150,huella,el,a,0.5043,,279.343,279.3433,0.595052083,-0.026041667,0,0,0,,0,21,21,432,1,,,
,,,,,,9bd3b6297774f540a58f8031,66a626ef09d4e21e1a8894ec,673729bf81a9922c5bb089cd,2024-11-15_12h03.30.850,Tarea de género gramatical,2024.2.2,Win32,60.24096386,,,,,,,,,,,,,,,,,,,,,,,,279.3456,280.7392,l,1,[],[],[],[],[],[],[],0.7239,1,280.7395,281.238,,,,,,1246,MAS,DIS,150,juicio,la,l,0.7239,,281.2381,281.2385,0.595052083,-0.026041667,0,0,0,,0,22,22,345,1,,,
,,,,,,9bd3b6297774f540a58f8031,66a626ef09d4e21e1a8894ec,673729bf81a9922c5bb089cd,2024-11-15_12h03.30.850,Tarea de género gramatical,2024.2.2,Win32,60.24096386,,,,,,,,,,,,,,,,,,,,,,,,281.2409,282.3841,a,1,[],[],[],[],[],[],[],0.4643,1,282.3843,282.8835,,,,,,1293,FEM,CON,150,alarma,,a,0.4643,,282.8836,282.884,0.595052083,-0.026041667,0,0,0,,0,23,23,392,1,,,
,,,,,,9bd3b6297774f540a58f8031,66a626ef09d4e21e1a8894ec,673729bf81a9922c5bb089cd,2024-11-15_12h03.30.850,Tarea de género gramatical,2024.2.2,Win32,60.24096386,,,,,,,,,,,,,,,,,,,,,,,,282.8865,284.2796,l,1,[],[],[],[],[],[],[],0.7168,1,284.2799,284.7782,,,,,,1108,MAS,DIS,150,suelo,la,l,0.7168,,284.7821,284.7836,0.595052083,-0.026041667,0,0,0,,0,24,24,207,1,,,
,,,,,,9bd3b6297774f540a58f8031,66a626ef09d4e21e1a8894ec,673729bf81a9922c5bb089cd,2024-11-15_12h03.30.850,Tarea de género gramatical,2024.2.2,Win32,60.24096386,,,,,,,,,,,,,,,,,,,,,,,,284.7852,285.9819,a,1,[],[],[],[],[],[],[],0.5167,1,285.9821,286.4733,,,,,,927,FEM,CON,150,mesa,,a,0.5167,,286.4735,286.4737,0.595052083,-0.026041667,0,0,0,,0,25,25,26,1,,,
,,,,,,9bd3b6297774f540a58f8031,66a626ef09d4e21e1a8894ec,673729bf81a9922c5bb089cd,2024-11-15_12h03.30.850,Tarea de género gramatical,2024.2.2,Win32,60.24096386,,,,,,,,,,,,,,,,,,,,,,,,286.4755,287.8271,a,1,[],[],[],[],[],[],[],0.6764,1,287.8272,288.3189,,,,,,921,FEM,CON,150,boca,,a,0.6764,,288.319,288.3195,0.595052083,-0.026041667,0,0,0,,0,26,26,20,1,,,
,,,,,,9bd3b6297774f540a58f8031,66a626ef09d4e21e1a8894ec,673729bf81a9922c5bb089cd,2024-11-15_12h03.30.850,Tarea de género gramatical,2024.2.2,Win32,60.24096386,,,,,,,,,,,,,,,,,,,,,,,,288.3222,289.455,l,1,[],[],[],[],[],[],[],0.4772,1,289.4551,289.951,,,,,,1272,MAS,CON,150,delito,,l,0.4772,,289.9512,289.9515,0.595052083,-0.026041667,0,0,0,,0,27,27,371,1,,,
,,,,,,9bd3b6297774f540a58f8031,66a626ef09d4e21e1a8894ec,673729bf81a9922c5bb089cd,2024-11-15_12h03.30.850,Tarea de género gramatical,2024.2.2,Win32,60.24096386,,,,,,,,,,,,,,,,,,,,,,,,289.9547,291.162,l,1,[],[],[],[],[],[],[],0.5374,1,291.1623,291.6601,,,,,,966,MAS,CON,150,muro,,l,0.5374,,291.6603,291.6608,0.595052083,-0.026041667,0,0,0,,0,28,28,65,1,,,
,,,,,,9bd3b6297774f540a58f8031,66a626ef09d4e21e1a8894ec,673729bf81a9922c5bb089cd,2024-11-15_12h03.30.850,Tarea de género gramatical,2024.2.2,Win32,60.24096386,,,,,,,,,,,,,,,,,,,,,,,,291.6632,292.8134,a,1,[],[],[],[],[],[],[],0.4835,1,292.8136,293.3116,,,,,,945,FEM,CON,150,isla,,a,0.4835,,293.3147,293.3164,0.595052083,-0.026041667,0,0,0,,0,29,29,44,1,,,
,,,,,,9bd3b6297774f540a58f8031,66a626ef09d4e21e1a8894ec,673729bf81a9922c5bb089cd,2024-11-15_12h03.30.850,Tarea de género gramatical,2024.2.2,Win32,60.24096386,,,,,,,,,,,,,,,,,,,,,,,,293.3182,294.4192,a,1,[],[],[],[],[],[],[],0.4335,1,294.4194,294.9178,,,,,,1334,FEM,AGR,150,corona,la,a,0.4335,,294.918,294.9184,0.595052083,-0.026041667,0,0,0,,0,30,30,433,1,,,
,,,,,,9bd3b6297774f540a58f8031,66a626ef09d4e21e1a8894ec,673729bf81a9922c5bb089cd,2024-11-15_12h03.30.850,Tarea de género gramatical,2024.2.2,Win32,60.24096386,,,,,,,,,,,,,,,,,,,,,,,,294.9202,296.0648,a,1,[],[],[],[],[],[],[],0.4684,1,296.0651,296.563,,,,,,1065,FEM,CON,150,amiga,,a,0.4684,,296.5631,296.5633,0.595052083,-0.026041667,0,0,0,,0,31,31,164,1,,,
,,,,,,9bd3b6297774f540a58f8031,66a626ef09d4e21e1a8894ec,673729bf81a9922c5bb089cd,2024-11-15_12h03.30.850,Tarea de género gramatical,2024.2.2,Win32,60.24096386,,,,,,,,,,,,,,,,,,,,,,,,296.5647,297.6939,a,1,[],[],[],[],[],[],[],0.45,1,297.6941,298.1924,,,,,,1105,FEM,DIS,150,reina,el,a,0.45,,298.1926,298.1929,0.595052083,-0.026041667,0,0,0,,0,32,32,204,1,,,
,,,,,,9bd3b6297774f540a58f8031,66a626ef09d4e21e1a8894ec,673729bf81a9922c5bb089cd,2024-11-15_12h03.30.850,Tarea de género gramatical,2024.2.2,Win32,60.24096386,,,,,,,,,,,,,,,,,,,,,,,,298.1954,299.2561,l,1,[],[],[],[],[],[],[],0.3833,1,299.2564,299.7549,,,,,,930,MAS,CON,150,cine,,l,0.3833,,299.7587,299.7603,0.595052083,-0.026041667,0,0,0,,0,33,33,29,1,,,
,,,,,,9bd3b6297774f540a58f8031,66a626ef09d4e21e1a8894ec,673729bf81a9922c5bb089cd,2024-11-15_12h03.30.850,Tarea de género gramatical,2024.2.2,Win32,60.24096386,,,,,,,,,,,,,,,,,,,,,,,,299.7629,300.8519,l,1,[],[],[],[],[],[],[],0.4189,1,300.8522,301.3508,,,,,,1332,MAS,CON,150,océano,,l,0.4189,,301.3508,301.3512,0.595052083,-0.026041667,0,0,0,,0,34,34,431,1,,,
,,,,,,9bd3b6297774f540a58f8031,66a626ef09d4e21e1a8894ec,673729bf81a9922c5bb089cd,2024-11-15_12h03.30.850,Tarea de género gramatical,2024.2.2,Win32,60.24096386,,,,,,,,,,,,,,,,,,,,,,,,301.3543,302.4478,l,1,[],[],[],[],[],[],[],0.4242,1,302.4481,302.9465,,,,,,1014,MAS,CON,150,menú,,l,0.4242,,302.9465,302.9467,0.595052083,-0.026041667,0,0,0,,0,35,35,113,1,,,
,,,,,,9bd3b6297774f540a58f8031,66a626ef09d4e21e1a8894ec,673729bf81a9922c5bb089cd,2024-11-15_12h03.30.850,Tarea de género gramatical,2024.2.2,Win32,60.24096386,,,,,,,,,,,,,,,,,,,,,,,,302.9501,304.093,a,1,[],[],[],[],[],[],[],0.4649,1,304.0931,304.5916,,,,,,1094,FEM,AGR,150,banda,la,a,0.4649,,304.5917,304.592,0.595052083,-0.026041667,0,0,0,,0,36,36,193,1,,,
,,,,,,9bd3b6297774f540a58f8031,66a626ef09d4e21e1a8894ec,673729bf81a9922c5bb089cd,2024-11-15_12h03.30.850,Tarea de género gramatical,2024.2.2,Win32,60.24096386,,,,,,,,,,,,,,,,,,,,,,,,304.5933,305.9052,l,1,[],[],[],[],[],[],[],0.6328,1,305.9054,306.4038,,,,,,910,MAS,DIS,150,niño,la,l,0.6328,,306.4039,306.4043,0.595052083,-0.026041667,0,0,0,,0,37,37,9,1,,,
,,,,,,9bd3b6297774f540a58f8031,66a626ef09d4e21e1a8894ec,673729bf81a9922c5bb089cd,2024-11-15_12h03.30.850,Tarea de género gramatical,2024.2.2,Win32,60.24096386,,,,,,,,,,,,,,,,,,,,,,,,306.4075,307.4676,a,1,[],[],[],[],[],[],[],0.3834,1,307.4678,307.9662,,,,,,986,FEM,AGR,150,cruz,la,a,0.3834,,307.9703,307.9722,0.595052083,-0.026041667,0,0,0,,0,38,38,85,1,,,
,,,,,,9bd3b6297774f540a58f8031,66a626ef09d4e21e1a8894ec,673729bf81a9922c5bb089cd,2024-11-15_12h03.30.850,Tarea de género gramatical,2024.2.2,Win32,60.24096386,,,,,,,,,,,,,,,,,,,,,,,,307.9738,308.9636,l,1,[],[],[],[],[],[],[],0.307,1,308.9639,309.4624,,,,,,1146,MAS,CON,150,humor,,l,0.307,,309.4625,309.463,0.595052083,-0.026041667,0,0,0,,0,39,39,245,1,,,
,,,,,,9bd3b6297774f540a58f8031,66a626ef09d4e21e1a8894ec,673729bf81a9922c5bb089cd,2024-11-15_12h03.30.850,Tarea de género gramatical,2024.2.2,Win32,60.24096386,,,,,,,,,,,,,,,,,,,,,,,,309.4653,310.7091,a,1,[],[],[],[],[],[],[],0.5594,1,310.7094,311.2071,,,,,,1064,FEM,AGR,150,novia,la,a,0.5594,,311.2072,311.2074,0.595052083,-0.026041667,0,0,0,,0,40,40,163,1,,,
,,,,,,9bd3b6297774f540a58f8031,66a626ef09d4e21e1a8894ec,673729bf81a9922c5bb089cd,2024-11-15_12h03.30.850,Tarea de género gramatical,2024.2.2,Win32,60.24096386,,,,,,,,,,,,,,,,,,,,,,,,311.2092,312.5097,a,1,[],[],[],[],[],[],[],0.6445,1,312.5098,313.0085,,,,,,1052,FEM,AGR,150,gente,la,a,0.6445,,313.009,313.0095,0.595052083,-0.026041667,0,0,0,,0,41,41,151,1,,,
,,,,,,9bd3b6297774f540a58f8031,66a626ef09d4e21e1a8894ec,673729bf81a9922c5bb089cd,2024-11-15_12h03.30.850,Tarea de género gramatical,2024.2.2,Win32,60.24096386,,,,,,,,,,,,,,,,,,,,,,,,313.0116,314.173,a,1,[],[],[],[],[],[],[],0.4836,1,314.1732,314.6646,,,,,,1221,FEM,CON,150,comida,,a,0.4836,,314.667,314.6682,0.595052083,-0.026041667,0,0,0,,0,42,42,320,1,,,
,,,,,,9bd3b6297774f540a58f8031,66a626ef09d4e21e1a8894ec,673729bf81a9922c5bb089cd,2024-11-15_12h03.30.850,Tarea de género gramatical,2024.2.2,Win32,60.24096386,,,,,,,,,,,,,,,,,,,,,,,,314.6693,315.736,a,1,[],[],[],[],[],[],[],0.3962,1,315.7363,316.2299,,,,,,1153,FEM,DIS,150,aldea,el,a,0.3962,,316.2299,316.2302,0.595052083,-0.026041667,0,0,0,,0,43,43,252,1,,,
,,,,,,9bd3b6297774f540a58f8031,66a626ef09d4e21e1a8894ec,673729bf81a9922c5bb089cd,2024-11-15_12h03.30.850,Tarea de género gramatical,2024.2.2,Win32,60.24096386,,,,,,,,,,,,,,,,,,,,,,,,316.2315,317.3463,l,1,[],[],[],[],[],[],[],0.4329,1,317.3465,317.84,,,,,,1188,MAS,CON,150,grado,,l,0.4329,,317.84,317.8405,0.595052083,-0.026041667,0,0,0,,0,44,44,287,1,,,
,,,,,,9bd3b6297774f540a58f8031,66a626ef09d4e21e1a8894ec,673729bf81a9922c5bb089cd,2024-11-15_12h03.30.850,Tarea de género gramatical,2024.2.2,Win32,60.24096386,,,,,,,,,,,,,,,,,,,,,,,,317.8433,318.9865,l,1,[],[],[],[],[],[],[],0.4734,1,318.9866,319.4878,,,,,,1162,MAS,DIS,150,video,la,l,0.4734,,319.4879,319.488,0.595052083,-0.026041667,0,0,0,,0,45,45,261,1,,,
,,,,,,9bd3b6297774f540a58f8031,66a626ef09d4e21e1a8894ec,673729bf81a9922c5bb089cd,2024-11-15_12h03.30.850,Tarea de género gramatical,2024.2.2,Win32,60.24096386,,,,,,,,,,,,,,,,,,,,,,,,319.4893,320.6541,a,1,[],[],[],[],[],[],[],0.4986,1,320.6542,321.1528,,,,,,975,FEM,CON,150,caza,,a,0.4986,,321.1528,321.153,0.595052083,-0.026041667,0,0,0,,0,46,46,74,1,,,
,,,,,,9bd3b6297774f540a58f8031,66a626ef09d4e21e1a8894ec,673729bf81a9922c5bb089cd,2024-11-15_12h03.30.850,Tarea de género gramatical,2024.2.2,Win32,60.24096386,,,,,,,,,,,,,,,,,,,,,,,,321.1543,322.3611,l,1,[],[],[],[],[],[],[],0.5354,1,322.3615,322.8655,,,,,,917,MAS,AGR,150,modo,el,l,0.5354,,322.8684,322.8698,0.595052083,-0.026041667,0,0,0,,0,47,47,16,1,,,
,,,,,,9bd3b6297774f540a58f8031,66a626ef09d4e21e1a8894ec,673729bf81a9922c5bb089cd,2024-11-15_12h03.30.850,Tarea de género gramatical,2024.2.2,Win32,60.24096386,,,,,,,,,,,,,,,,,,,,,,,,322.8714,323.9902,a,1,[],[],[],[],[],[],[],0.4505,1,323.9904,324.4883,,,,,,1075,FEM,DIS,150,señal,el,a,0.4505,,324.4884,324.4886,0.595052083,-0.026041667,0,0,0,,0,48,48,174,1,,,
,,,,,,9bd3b6297774f540a58f8031,66a626ef09d4e21e1a8894ec,673729bf81a9922c5bb089cd,2024-11-15_12h03.30.850,Tarea de género gramatical,2024.2.2,Win32,60.24096386,,,,,,,,,,,,,,,,,,,,,,,,324.4902,325.5357,l,1,[],[],[],[],[],[],[],0.3744,1,325.5358,326.0347,,,,,,1240,MAS,DIS,150,pasado,la,l,0.3744,,326.035,326.0353,0.595052083,-0.026041667,0,0,0,,0,49,49,339,1,,,
,,,,,,9bd3b6297774f540a58f8031,66a626ef09d4e21e1a8894ec,673729bf81a9922c5bb089cd,2024-11-15_12h03.30.850,Tarea de género gramatical,2024.2.2,Win32,60.24096386,,,,,,,,,,,,,,,,,,,,,,,,326.0373,327.1983,l,1,[],[],[],[],[],[],[],0.4845,1,327.1985,327.6968,,,,,,1314,MAS,CON,150,sótano,,l,0.4845,,327.697,327.6973,0.595052083,-0.026041667,0,0,0,,0,50,50,413,1,,,
,,,,,,9bd3b6297774f540a58f8031,66a626ef09d4e21e1a8894ec,673729bf81a9922c5bb089cd,2024-11-15_12h03.30.850,Tarea de género gramatical,2024.2.2,Win32,60.24096386,,,,,,,,,,,,,,,,,,,,,,,,327.7005,328.8768,l,1,[],[],[],[],[],[],[],0.5029,1,328.8769,329.3753,,,,,,1204,MAS,DIS,150,tiempo,la,l,0.5029,,329.3789,329.3805,0.595052083,-0.026041667,0,0,0,,0,51,51,303,1,,,
,,,,,,9bd3b6297774f540a58f8031,66a626ef09d4e21e1a8894ec,673729bf81a9922c5bb089cd,2024-11-15_12h03.30.850,Tarea de género gramatical,2024.2.2,Win32,60.24096386,,,,,,,,,,,,,,,,,,,,,,,,329.382,330.6053,a,1,[],[],[],[],[],[],[],0.5527,1,330.6055,331.104,,,,,,1009,FEM,DIS,150,gota,el,a,0.5527,,331.1041,331.1043,0.595052083,-0.026041667,0,0,0,,0,52,52,108,1,,,
,,,,,,9bd3b6297774f540a58f8031,66a626ef09d4e21e1a8894ec,673729bf81a9922c5bb089cd,2024-11-15_12h03.30.850,Tarea de género gramatical,2024.2.2,Win32,60.24096386,,,,,,,,,,,,,,,,,,,,,,,,331.1054,332.1683,a,1,[],[],[],[],[],[],[],0.3864,1,332.1685,332.6664,,,,,,980,FEM,AGR,150,vaca,la,a,0.3864,,332.6665,332.6667,0.595052083,-0.026041667,0,0,0,,0,53,53,79,1,,,
,,,,,,9bd3b6297774f540a58f8031,66a626ef09d4e21e1a8894ec,673729bf81a9922c5bb089cd,2024-11-15_12h03.30.850,Tarea de género gramatical,2024.2.2,Win32,60.24096386,,,,,,,,,,,,,,,,,,,,,,,,332.6681,333.7634,l,1,[],[],[],[],[],[],[],0.4219,1,333.7636,334.2623,,,,,,994,MAS,DIS,150,cabo,la,l,0.4219,,334.2624,334.2625,0.595052083,-0.026041667,0,0,0,,0,54,54,93,1,,,
,,,,,,9bd3b6297774f540a58f8031,66a626ef09d4e21e1a8894ec,673729bf81a9922c5bb089cd,2024-11-15_12h03.30.850,Tarea de género gramatical,2024.2.2,Win32,60.24096386,,,,,,,,,,,,,,,,,,,,,,,,334.2643,335.3758,l,1,[],[],[],[],[],[],[],0.4339,1,335.376,335.8746,,,,,,1169,MAS,AGR,150,primo,el,l,0.4339,,335.8746,335.8748,0.595052083,-0.026041667,0,0,0,,0,55,55,268,1,,,
,,,,,,9bd3b6297774f540a58f8031,66a626ef09d4e21e1a8894ec,673729bf81a9922c5bb089cd,2024-11-15_12h03.30.850,Tarea de género gramatical,2024.2.2,Win32,60.24096386,,,,,,,,,,,,,,,,,,,,,,,,335.8762,336.9051,l,1,[],[],[],[],[],[],[],0.3495,1,336.9052,337.4041,,,,,,984,MAS,CON,150,mago,,l,0.3495,,337.4076,337.4094,0.595052083,-0.026041667,0,0,0,,0,56,56,83,1,,,
,,,,,,9bd3b6297774f540a58f8031,66a626ef09d4e21e1a8894ec,673729bf81a9922c5bb089cd,2024-11-15_12h03.30.850,Tarea de género gramatical,2024.2.2,Win32,60.24096386,,,,,,,,,,,,,,,,,,,,,,,,337.4109,338.4677,l,1,[],[],[],[],[],[],[],0.3887,1,338.4678,338.9662,,,,,,1019,MAS,AGR,150,mito,el,l,0.3887,,338.9663,338.9665,0.595052083,-0.026041667,0,0,0,,0,57,57,118,1,,,
,,,,,,9bd3b6297774f540a58f8031,66a626ef09d4e21e1a8894ec,673729bf81a9922c5bb089cd,2024-11-15_12h03.30.850,Tarea de género gramatical,2024.2.2,Win32,60.24096386,,,,,,,,,,,,,,,,,,,,,,,,338.9679,340.047,a,1,[],[],[],[],[],[],[],0.41,1,340.0471,340.5458,,,,,,1027,FEM,DIS,150,cuna,el,a,0.41,,340.546,340.5464,0.595052083,-0.026041667,0,0,0,,0,58,58,126,1,,,
,,,,,,9bd3b6297774f540a58f8031,66a626ef09d4e21e1a8894ec,673729bf81a9922c5bb089cd,2024-11-15_12h03.30.850,Tarea de género gramatical,2024.2.2,Win32,60.24096386,,,,,,,,,,,,,,,,,,,,,,,,340.5484,341.7426,l,1,[],[],[],[],[],[],[],0.5165,1,341.7428,342.2413,,,,,,940,MAS,DIS,150,dios,la,l,0.5165,,342.2414,342.2417,0.595052083,-0.026041667,0,0,0,,0,59,59,39,1,,,
,,,,,,9bd3b6297774f540a58f8031,66a626ef09d4e21e1a8894ec,673729bf81a9922c5bb089cd,2024-11-15_12h03.30.850,Tarea de género gramatical,2024.2.2,Win32,60.24096386,,,,,,,,,,,,,,,,,,,,,,,,342.2444,343.3716,l,1,[],[],[],[],[],[],[],0.4509,1,343.3718,343.8698,,,,,,946,MAS,DIS,150,odio,la,l,0.4509,,343.8713,343.8724,0.595052083,-0.026041667,0,0,0,,0,60,60,45,1,,,
,,,,,,9bd3b6297774f540a58f8031,66a626ef09d4e21e1a8894ec,673729bf81a9922c5bb089cd,2024-11-15_12h03.30.850,Tarea de género gramatical,2024.2.2,Win32,60.24096386,,,,,,,,,,,,,,,,,,,,,,,,343.8733,344.9503,l,1,[],[],[],[],[],[],[],0.4076,1,344.9505,345.4489,,,,,,1122,MAS,CON,150,valor,,l,0.4076,,345.449,345.4491,0.595052083,-0.026041667,0,0,0,,0,61,61,221,1,,,
,,,,,,9bd3b6297774f540a58f8031,66a626ef09d4e21e1a8894ec,673729bf81a9922c5bb089cd,2024-11-15_12h03.30.850,Tarea de género gramatical,2024.2.2,Win32,60.24096386,,,,,,,,,,,,,,,,,,,,,,,,345.4506,346.4795,a,1,[],[],[],[],[],[],[],0.3561,1,346.4796,346.9782,,,,,,1321,FEM,DIS,150,novela,el,a,0.3561,,346.9782,346.9784,0.595052083,-0.026041667,0,0,0,,0,62,62,420,1,,,
,,,,,,9bd3b6297774f540a58f8031,66a626ef09d4e21e1a8894ec,673729bf81a9922c5bb089cd,2024-11-15_12h03.30.850,Tarea de género gramatical,2024.2.2,Win32,60.24096386,,,,,,,,,,,,,,,,,,,,,,,,346.9797,348.0591,l,1,[],[],[],[],[],[],[],0.4014,1,348.0592,348.5573,,,,,,1342,MAS,DIS,150,cuadro,la,l,0.4014,,348.5573,348.5576,0.595052083,-0.026041667,0,0,0,,0,63,63,441,1,,,
,,,,,,9bd3b6297774f540a58f8031,66a626ef09d4e21e1a8894ec,673729bf81a9922c5bb089cd,2024-11-15_12h03.30.850,Tarea de género gramatical,2024.2.2,Win32,60.24096386,,,,,,,,,,,,,,,,,,,,,,,,348.5598,349.5878,a,1,[],[],[],[],[],[],[],0.3529,1,349.5879,350.0872,,,,,,1076,FEM,AGR,150,línea,la,a,0.3529,,350.0874,350.0878,0.595052083,-0.026041667,0,0,0,,0,64,64,175,1,,,
,,,,,,9bd3b6297774f540a58f8031,66a626ef09d4e21e1a8894ec,673729bf81a9922c5bb089cd,2024-11-15_12h03.30.850,Tarea de género gramatical,2024.2.2,Win32,60.24096386,,,,,,,,,,,,,,,,,,,,,,,,350.0907,351.3663,a,1,[],[],[],[],[],[],[],0.599,1,351.3665,351.8651,,,,,,1317,FEM,CON,150,cabaña,,a,0.599,,351.8671,351.8684,0.595052083,-0.026041667,0,0,0,,0,65,65,416,1,,,
,,,,,,9bd3b6297774f540a58f8031,66a626ef09d4e21e1a8894ec,673729bf81a9922c5bb089cd,2024-11-15_12h03.30.850,Tarea de género gramatical,2024.2.2,Win32,60.24096386,,,,,,,,,,,,,,,,,,,,,,,,351.8695,353.1954,l,1,[],[],[],[],[],[],[],0.6505,1,353.1956,353.6939,,,,,,1313,MAS,AGR,150,diario,el,l,0.6505,,353.6941,353.6944,0.595052083,-0.026041667,0,0,0,,0,66,66,412,1,,,
,,,,,,9bd3b6297774f540a58f8031,66a626ef09d4e21e1a8894ec,673729bf81a9922c5bb089cd,2024-11-15_12h03.30.850,Tarea de género gramatical,2024.2.2,Win32,60.24096386,,,,,,,,,,,,,,,,,,,,,,,,353.6966,354.8742,l,1,[],[],[],[],[],[],[],0.4998,1,354.8744,355.3728,,,,,,996,MAS,CON,150,pato,,l,0.4998,,355.3729,355.3734,0.595052083,-0.026041667,0,0,0,,0,67,67,95,1,,,
,,,,,,9bd3b6297774f540a58f8031,66a626ef09d4e21e1a8894ec,673729bf81a9922c5bb089cd,2024-11-15_12h03.30.850,Tarea de género gramatical,2024.2.2,Win32,60.24096386,,,,,,,,,,,,,,,,,,,,,,,,355.3756,356.4033,l,1,[],[],[],[],[],[],[],0.3577,1,356.4036,356.9021,,,,,,1133,MAS,AGR,150,golpe,el,l,0.3577,,356.9022,356.9025,0.595052083,-0.026041667,0,0,0,,0,68,68,232,1,,,
,,,,,,9bd3b6297774f540a58f8031,66a626ef09d4e21e1a8894ec,673729bf81a9922c5bb089cd,2024-11-15_12h03.30.850,Tarea de género gramatical,2024.2.2,Win32,60.24096386,,,,,,,,,,,,,,,,,,,,,,,,356.905,357.8994,l,1,[],[],[],[],[],[],[],0.3206,1,357.8996,358.3982,,,,,,1000,MAS,DIS,150,nido,la,l,0.3206,,358.4018,358.4035,0.595052083,-0.026041667,0,0,0,,0,69,69,99,1,,,
,,,,,,9bd3b6297774f540a58f8031,66a626ef09d4e21e1a8894ec,673729bf81a9922c5bb089cd,2024-11-15_12h03.30.850,Tarea de género gramatical,2024.2.2,Win32,60.24096386,,,,,,,,,,,,,,,,,,,,,,,,358.4051,359.5186,a,1,[],[],[],[],[],[],[],0.4439,1,359.5188,360.0159,,,,,,1177,FEM,DIS,150,plaza,el,a,0.4439,,360.0161,360.0164,0.595052083,-0.026041667,0,0,0,,0,70,70,276,1,,,
,,,,,,9bd3b6297774f540a58f8031,66a626ef09d4e21e1a8894ec,673729bf81a9922c5bb089cd,2024-11-15_12h03.30.850,Tarea de género gramatical,2024.2.2,Win32,60.24096386,,,,,,,,,,,,,,,,,,,,,,,,360.0185,361.174,l,1,[],[],[],[],[],[],[],0.4788,1,361.1743,361.6727,,,,,,1024,MAS,DIS,150,clan,la,l,0.4788,,361.6729,361.6733,0.595052083,-0.026041667,0,0,0,,0,71,71,123,1,,,
,,,,,,9bd3b6297774f540a58f8031,66a626ef09d4e21e1a8894ec,673729bf81a9922c5bb089cd,2024-11-15_12h03.30.850,Tarea de género gramatical,2024.2.2,Win32,60.24096386,,,,,,,,,,,,,,,,,,,,,,,,361.6759,362.7866,a,1,[],[],[],[],[],[],[],0.4342,1,362.7868,363.2909,,,,,,1202,FEM,AGR,150,cabeza,la,a,0.4342,,363.291,363.2913,0.595052083,-0.026041667,0,0,0,,0,72,72,301,1,,,
,,,,,,9bd3b6297774f540a58f8031,66a626ef09d4e21e1a8894ec,673729bf81a9922c5bb089cd,2024-11-15_12h03.30.850,Tarea de género gramatical,2024.2.2,Win32,60.24096386,,,,,,,,,,,,,,,,,,,,,,,,363.2937,364.57,a,1,[],[],[],[],[],[],[],0.598,1,364.5702,365.0694,,,,,,1011,FEM,CON,150,goma,,a,0.598,,365.0696,365.0699,0.595052083,-0.026041667,0,0,0,,0,73,73,110,1,,,
,,,,,,9bd3b6297774f540a58f8031,66a626ef09d4e21e1a8894ec,673729bf81a9922c5bb089cd,2024-11-15_12h03.30.850,Tarea de género gramatical,2024.2.2,Win32,60.24096386,,,,,,,,,,,,,,,,,,,,,,,,365.072,366.2439,a,1,[],[],[],[],[],[],[],0.4979,1,366.2442,366.7485,,,,,,1327,FEM,DIS,150,agenda,el,a,0.4979,,366.7525,366.755,0.595052083,-0.026041667,0,0,0,,0,74,74,426,1,,,
,,,,,,9bd3b6297774f540a58f8031,66a626ef09d4e21e1a8894ec,673729bf81a9922c5bb089cd,2024-11-15_12h03.30.850,Tarea de género gramatical,2024.2.2,Win32,60.24096386,,,,,,,,,,,,,,,,,,,,,,,,366.7566,367.8558,l,1,[],[],[],[],[],[],[],0.4315,1,367.856,368.3548,,,,,,1265,MAS,AGR,150,código,el,l,0.4315,,368.3549,368.3554,0.595052083,-0.026041667,0,0,0,,0,75,75,364,1,,,
,,,,,,9bd3b6297774f540a58f8031,66a626ef09d4e21e1a8894ec,673729bf81a9922c5bb089cd,2024-11-15_12h03.30.850,Tarea de género gramatical,2024.2.2,Win32,60.24096386,,,,,,,,,,,,,,,,,,,,,,,,368.3577,369.6014,a,1,[],[],[],[],[],[],[],0.5687,1,369.6016,370.1002,,,,,,1083,FEM,CON,150,llave,,a,0.5687,,370.1005,370.1008,0.595052083,-0.026041667,0,0,0,,0,76,76,182,1,,,
,,,,,,9bd3b6297774f540a58f8031,66a626ef09d4e21e1a8894ec,673729bf81a9922c5bb089cd,2024-11-15_12h03.30.850,Tarea de género gramatical,2024.2.2,Win32,60.24096386,,,,,,,,,,,,,,,,,,,,,,,,370.103,371.1973,l,1,[],[],[],[],[],[],[],0.4169,1,371.1974,371.6958,,,,,,971,MAS,AGR,150,pozo,el,l,0.4169,,371.6959,371.6964,0.595052083,-0.026041667,0,0,0,,0,77,77,70,1,,,
,,,,,,9bd3b6297774f540a58f8031,66a626ef09d4e21e1a8894ec,673729bf81a9922c5bb089cd,2024-11-15_12h03.30.850,Tarea de género gramatical,2024.2.2,Win32,60.24096386,,,,,,,,,,,,,,,,,,,,,,,,371.6987,372.7763,l,1,[],[],[],[],[],[],[],0.4064,1,372.7765,373.2749,,,,,,1037,MAS,AGR,150,coco,el,l,0.4064,,373.2782,373.28,0.595052083,-0.026041667,0,0,0,,0,78,78,136,1,,,
,,,,,,9bd3b6297774f540a58f8031,66a626ef09d4e21e1a8894ec,673729bf81a9922c5bb089cd,2024-11-15_12h03.30.850,Tarea de género gramatical,2024.2.2,Win32,60.24096386,,,,,,,,,,,,,,,,,,,,,,,,373.2815,374.3887,a,1,[],[],[],[],[],[],[],0.423,1,374.389,374.8877,,,,,,956,FEM,AGR,150,bola,la,a,0.423,,374.8879,374.8886,0.595052083,-0.026041667,0,0,0,,0,79,79,55,1,,,
,,,,,,9bd3b6297774f540a58f8031,66a626ef09d4e21e1a8894ec,673729bf81a9922c5bb089cd,2024-11-15_12h03.30.850,Tarea de género gramatical,2024.2.2,Win32,60.24096386,,,,,,,,,,,,,,,,,,,,,,,,374.891,376.0079,l,1,[],[],[],[],[],[],[],0.4606,1,376.0081,376.4999,,,,,,1092,MAS,CON,150,grupo,,l,0.4606,,376.5,376.5006,0.595052083,-0.026041667,0,0,0,,0,80,80,191,1,,,
,,,,,,9bd3b6297774f540a58f8031,66a626ef09d4e21e1a8894ec,673729bf81a9922c5bb089cd,2024-11-15_12h03.30.850,Tarea de género gramatical,2024.2.2,Win32,60.24096386,,,,,,,,,,,,,,,,,,,,,,,,376.5029,377.6201,a,1,[],[],[],[],[],[],[],0.4609,1,377.6204,378.118,,,,,,925,FEM,DIS,150,nave,el,a,0.4609,,378.1181,378.1184,0.595052083,-0.026041667,0,0,0,,0,81,81,24,1,,,
,,,,,,9bd3b6297774f540a58f8031,66a626ef09d4e21e1a8894ec,673729bf81a9922c5bb089cd,2024-11-15_12h03.30.850,Tarea de género gramatical,2024.2.2,Win32,60.24096386,,,,,,,,,,,,,,,,,,,,,,,,378.1204,379.1825,a,1,[],[],[],[],[],[],[],0.3861,1,379.1827,379.6746,,,,,,914,FEM,AGR,150,cara,la,a,0.3861,,379.6748,379.6752,0.595052083,-0.026041667,0,0,0,,0,82,82,13,1,,,
,,,,,,9bd3b6297774f540a58f8031,66a626ef09d4e21e1a8894ec,673729bf81a9922c5bb089cd,2024-11-15_12h03.30.850,Tarea de género gramatical,2024.2.2,Win32,60.24096386,,,,,,,,,,,,,,,,,,,,,,,,379.6775,380.7283,a,1,[],[],[],[],[],[],[],0.3668,1,380.7285,381.2262,,,,,,1173,FEM,CON,150,tarta,,a,0.3668,,381.229,381.2307,0.595052083,-0.026041667,0,0,0,,0,83,83,272,1,,,
,,,,,,9bd3b6297774f540a58f8031,66a626ef09d4e21e1a8894ec,673729bf81a9922c5bb089cd,2024-11-15_12h03.30.850,Tarea de género gramatical,2024.2.2,Win32,60.24096386,,,,,,,,,,,,,,,,,,,,,,,,381.2323,382.3009,l,1,[],[],[],[],[],[],[],0.4052,1,382.3011,382.7995,,,,,,1198,MAS,DIS,150,botón,la,l,0.4052,,382.7996,382.8,0.595052083,-0.026041667,0,0,0,,0,84,84,297,1,,,
,,,,,,9bd3b6297774f540a58f8031,66a626ef09d4e21e1a8894ec,673729bf81a9922c5bb089cd,2024-11-15_12h03.30.850,Tarea de género gramatical,2024.2.2,Win32,60.24096386,,,,,,,,,,,,,,,,,,,,,,,,382.8022,384.096,l,1,[],[],[],[],[],[],[],0.6227,1,384.0963,384.5947,,,,,,1120,MAS,DIS,150,huevo,la,l,0.6227,,384.5948,384.5952,0.595052083,-0.026041667,0,0,0,,0,85,85,219,1,,,
,,,,,,9bd3b6297774f540a58f8031,66a626ef09d4e21e1a8894ec,673729bf81a9922c5bb089cd,2024-11-15_12h03.30.850,Tarea de género gramatical,2024.2.2,Win32,60.24096386,,,,,,,,,,,,,,,,,,,,,,,,384.5974,385.7086,a,1,[],[],[],[],[],[],[],0.4336,1,385.7087,386.207,,,,,,1119,FEM,CON,150,costa,,a,0.4336,,386.2072,386.2074,0.595052083,-0.026041667,0,0,0,,0,86,86,218,1,,,
,,,,,,9bd3b6297774f540a58f8031,66a626ef09d4e21e1a8894ec,673729bf81a9922c5bb089cd,2024-11-15_12h03.30.850,Tarea de género gramatical,2024.2.2,Win32,60.24096386,,,,,,,,,,,,,,,,,,,,,,,,386.2099,387.5701,l,1,[],[],[],[],[],[],[],0.6829,1,387.5704,388.0688,,,,,,947,MAS,AGR,150,olor,el,l,0.6829,,388.0724,388.074,0.595052083,-0.026041667,0,0,0,,0,87,87,46,1,,,
,,,,,,9bd3b6297774f540a58f8031,66a626ef09d4e21e1a8894ec,673729bf81a9922c5bb089cd,2024-11-15_12h03.30.850,Tarea de género gramatical,2024.2.2,Win32,60.24096386,,,,,,,,,,,,,,,,,,,,,,,,388.0755,389.1828,l,1,[],[],[],[],[],[],[],0.4417,1,389.1831,389.6811,,,,,,1103,MAS,AGR,150,novio,el,l,0.4417,,389.6813,389.6817,0.595052083,-0.026041667,0,0,0,,0,88,88,202,1,,,
,,,,,,9bd3b6297774f540a58f8031,66a626ef09d4e21e1a8894ec,673729bf81a9922c5bb089cd,2024-11-15_12h03.30.850,Tarea de género gramatical,2024.2.2,Win32,60.24096386,,,,,,,,,,,,,,,,,,,,,,,,389.6839,390.8946,a,1,[],[],[],[],[],[],[],0.5329,1,390.8948,391.3932,,,,,,1183,FEM,DIS,150,pluma,el,a,0.5329,,391.3933,391.3937,0.595052083,-0.026041667,0,0,0,,0,89,89,282,1,,,
,,,,,,9bd3b6297774f540a58f8031,66a626ef09d4e21e1a8894ec,673729bf81a9922c5bb089cd,2024-11-15_12h03.30.850,Tarea de género gramatical,2024.2.2,Win32,60.24096386,,,,,,,,,,,,,,,,,,,,,,,,391.3959,392.457,l,1,[],[],[],[],[],[],[],0.3839,1,392.4572,392.9557,,,,,,1312,MAS,DIS,150,espejo,la,l,0.3839,,392.9557,392.9561,0.595052083,-0.026041667,0,0,0,,0,90,90,411,1,,,
,,,,,,9bd3b6297774f540a58f8031,66a626ef09d4e21e1a8894ec,673729bf81a9922c5bb089cd,2024-11-15_12h03.30.850,Tarea de género gramatical,2024.2.2,Win32,60.24096386,,,,,,,,,,,,,,,,,,,,,,,,392.9585,394.1856,a,1,[],[],[],[],[],[],[],0.552,1,394.1859,394.6844,,,,,,1225,FEM,DIS,150,tierra,el,a,0.552,,394.6845,394.6847,0.595052083,-0.026041667,0,0,0,,0,91,91,324,1,,,
,,,,,,9bd3b6297774f540a58f8031,66a626ef09d4e21e1a8894ec,673729bf81a9922c5bb089cd,2024-11-15_12h03.30.850,Tarea de género gramatical,2024.2.2,Win32,60.24096386,,,,,,,,,,,,,,,,,,,,,,,,394.6874,395.7316,l,1,[],[],[],[],[],[],[],0.3676,1,395.7318,396.2302,,,,,,1114,MAS,DIS,150,fondo,la,l,0.3676,,396.2332,396.2352,0.595052083,-0.026041667,0,0,0,,0,92,92,213,1,,,
,,,,,,9bd3b6297774f540a58f8031,66a626ef09d4e21e1a8894ec,673729bf81a9922c5bb089cd,2024-11-15_12h03.30.850,Tarea de género gramatical,2024.2.2,Win32,60.24096386,,,,,,,,,,,,,,,,,,,,,,,,396.2374,397.3606,l,1,[],[],[],[],[],[],[],0.4498,1,397.3607,397.8593,,,,,,1331,MAS,AGR,150,veneno,el,l,0.4498,,397.8594,397.8597,0.595052083,-0.026041667,0,0,0,,0,93,93,430,1,,,
,,,,,,9bd3b6297774f540a58f8031,66a626ef09d4e21e1a8894ec,673729bf81a9922c5bb089cd,2024-11-15_12h03.30.850,Tarea de género gramatical,2024.2.2,Win32,60.24096386,,,,,,,,,,,,,,,,,,,,,,,,397.8621,398.9233,a,1,[],[],[],[],[],[],[],0.3878,1,398.9235,399.4217,,,,,,1053,FEM,CON,150,mujer,,a,0.3878,,399.4218,399.4221,0.595052083,-0.026041667,0,0,0,,0,94,94,152,1,,,
,,,,,,9bd3b6297774f540a58f8031,66a626ef09d4e21e1a8894ec,673729bf81a9922c5bb089cd,2024-11-15_12h03.30.850,Tarea de género gramatical,2024.2.2,Win32,60.24096386,,,,,,,,,,,,,,,,,,,,,,,,399.4244,400.5021,a,1,[],[],[],[],[],[],[],0.4055,1,400.5024,401.001,,,,,,1185,FEM,CON,150,mafia,,a,0.4055,,401.0011,401.0014,0.595052083,-0.026041667,0,0,0,,0,95,95,284,1,,,
,,,,,,9bd3b6297774f540a58f8031,66a626ef09d4e21e1a8894ec,673729bf81a9922c5bb089cd,2024-11-15_12h03.30.850,Tarea de género gramatical,2024.2.2,Win32,60.24096386,,,,,,,,,,,,,,,,,,,,,,,,401.004,402.048,l,1,[],[],[],[],[],[],[],0.3705,1,402.0483,402.5467,,,,,,1242,MAS,CON,150,abuelo,,l,0.3705,,402.5502,402.5518,0.595052083,-0.026041667,0,0,0,,0,96,96,341,1,,,
,,,,,,9bd3b6297774f540a58f8031,66a626ef09d4e21e1a8894ec,673729bf81a9922c5bb089cd,2024-11-15_12h03.30.850,Tarea de género gramatical,2024.2.2,Win32,60.24096386,,,,,,,,,,,,,,,,,,,,,,,,402.5533,403.9098,a,1,[],[],[],[],[],[],[],0.6862,1,403.91,404.4083,,,,,,1106,FEM,AGR,150,época,la,a,0.6862,,404.4085,404.4088,0.595052083,-0.026041667,0,0,0,,0,97,97,205,1,,,
,,,,,,9bd3b6297774f540a58f8031,66a626ef09d4e21e1a8894ec,673729bf81a9922c5bb089cd,2024-11-15_12h03.30.850,Tarea de género gramatical,2024.2.2,Win32,60.24096386,,,,,,,,,,,,,,,,,,,,,,,,404.4111,405.5886,l,1,[],[],[],[],[],[],[],0.5035,1,405.5888,406.0872,,,,,,1001,MAS,AGR,150,giro,el,l,0.5035,,406.0874,406.0877,0.595052083,-0.026041667,0,0,0,,0,98,98,100,1,,,
,,,,,,9bd3b6297774f540a58f8031,66a626ef09d4e21e1a8894ec,673729bf81a9922c5bb089cd,2024-11-15_12h03.30.850,Tarea de género gramatical,2024.2.2,Win32,60.24096386,,,,,,,,,,,,,,,,,,,,,,,,406.0899,407.2676,l,1,[],[],[],[],[],[],[],0.5003,1,407.2678,407.7663,,,,,,912,MAS,CON,150,plan,,l,0.5003,,407.7664,407.7667,0.595052083,-0.026041667,0,0,0,,0,99,99,11,1,,,
,,,,,,9bd3b6297774f540a58f8031,66a626ef09d4e21e1a8894ec,673729bf81a9922c5bb089cd,2024-11-15_12h03.30.850,Tarea de género gramatical,2024.2.2,Win32,60.24096386,,,,,,,,,,,,,,,,,,,,,,,,407.7693,408.7634,l,1,[],[],[],[],[],[],[],0.3225,1,408.7636,409.262,,,,,,1218,MAS,CON,150,pueblo,,l,0.3225,,409.2621,409.2625,0.595052083,-0.026041667,0,0,0,,0,100,100,317,1,,,
,,,,,,9bd3b6297774f540a58f8031,66a626ef09d4e21e1a8894ec,673729bf81a9922c5bb089cd,2024-11-15_12h03.30.850,Tarea de género gramatical,2024.2.2,Win32,60.24096386,,,,,,,,,,,,,,,,,,,,,,,,409.2647,410.3261,l,1,[],[],[],[],[],[],[],0.3833,1,410.3262,410.8247,,,,,,1025,MAS,AGR,150,bate,el,l,0.3833,,410.8277,410.8296,0.595052083,-0.026041667,0,0,0,,0,101,101,124,1,,,
,,,,,,9bd3b6297774f540a58f8031,66a626ef09d4e21e1a8894ec,673729bf81a9922c5bb089cd,2024-11-15_12h03.30.850,Tarea de género gramatical,2024.2.2,Win32,60.24096386,,,,,,,,,,,,,,,,,,,,,,,,410.8313,411.9782,a,1,[],[],[],[],[],[],[],0.4665,1,411.9784,412.4761,,,,,,1238,FEM,AGR,150,abuela,la,a,0.4665,,412.4763,412.4766,0.595052083,-0.026041667,0,0,0,,0,102,102,337,1,,,
,,,,,,9bd3b6297774f540a58f8031,66a626ef09d4e21e1a8894ec,673729bf81a9922c5bb089cd,2024-11-15_12h03.30.850,Tarea de género gramatical,2024.2.2,Win32,60.24096386,,,,,,,,,,,,,,,,,,,,,,,,412.4786,413.8664,a,1,[],[],[],[],[],[],[],0.7062,1,413.8667,414.3652,,,,,,1081,FEM,DIS,150,tarde,el,a,0.7062,,414.3652,414.3656,0.595052083,-0.026041667,0,0,0,,0,103,103,180,1,,,
,,,,,,9bd3b6297774f540a58f8031,66a626ef09d4e21e1a8894ec,673729bf81a9922c5bb089cd,2024-11-15_12h03.30.850,Tarea de género gramatical,2024.2.2,Win32,60.24096386,,,,,,,,,,,,,,,,,,,,,,,,414.3682,415.7447,l,1,[],[],[],[],[],[],[],0.6994,1,415.7449,416.2434,,,,,,1277,MAS,AGR,150,jardín,el,l,0.6994,,416.2436,416.2443,0.595052083,-0.026041667,0,0,0,,0,104,104,376,1,,,
,,,,,,9bd3b6297774f540a58f8031,66a626ef09d4e21e1a8894ec,673729bf81a9922c5bb089cd,2024-11-15_12h03.30.850,Tarea de género gramatical,2024.2.2,Win32,60.24096386,,,,,,,,,,,,,,,,,,,,,,,,416.2471,417.4803,a,1,[],[],[],[],[],[],[],0.577,1,417.4804,417.9721,,,,,,1112,FEM,AGR,150,cinta,la,a,0.577,,417.9773,417.9798,0.595052083,-0.026041667,0,0,0,,0,105,105,211,1,,,
,,,,,,9bd3b6297774f540a58f8031,66a626ef09d4e21e1a8894ec,673729bf81a9922c5bb089cd,2024-11-15_12h03.30.850,Tarea de género gramatical,2024.2.2,Win32,60.24096386,,,,,,,,,,,,,,,,,,,,,,,,417.9825,419.0526,l,1,[],[],[],[],[],[],[],0.4078,1,419.0528,419.5512,,,,,,953,MAS,AGR,150,vaso,el,l,0.4078,,419.5513,419.5518,0.595052083,-0.026041667,0,0,0,,0,106,106,52,1,,,
,,,,,,9bd3b6297774f540a58f8031,66a626ef09d4e21e1a8894ec,673729bf81a9922c5bb089cd,2024-11-15_12h03.30.850,Tarea de género gramatical,2024.2.2,Win32,60.24096386,,,,,,,,,,,,,,,,,,,,,,,,419.554,420.6815,l,1,[],[],[],[],[],[],[],0.4551,1,420.6817,421.1801,,,,,,1079,MAS,AGR,150,viaje,el,l,0.4551,,421.1802,421.1805,0.595052083,-0.026041667,0,0,0,,0,107,107,178,1,,,
,,,,,,9bd3b6297774f540a58f8031,66a626ef09d4e21e1a8894ec,673729bf81a9922c5bb089cd,2024-11-15_12h03.30.850,Tarea de género gramatical,2024.2.2,Win32,60.24096386,,,,,,,,,,,,,,,,,,,,,,,,421.1825,422.3436,a,1,[],[],[],[],[],[],[],0.4831,1,422.3439,422.8422,,,,,,1299,FEM,CON,150,charla,,a,0.4831,,422.8422,422.8424,0.595052083,-0.026041667,0,0,0,,0,108,108,398,1,,,
,,,,,,9bd3b6297774f540a58f8031,66a626ef09d4e21e1a8894ec,673729bf81a9922c5bb089cd,2024-11-15_12h03.30.850,Tarea de género gramatical,2024.2.2,Win32,60.24096386,,,,,,,,,,,,,,,,,,,,,,,,422.8439,424.0393,l,1,[],[],[],[],[],[],[],0.5165,1,424.0396,424.5378,,,,,,983,MAS,AGR,150,nene,el,l,0.5165,,424.5381,424.5385,0.595052083,-0.026041667,0,0,0,,0,109,109,82,1,,,
,,,,,,9bd3b6297774f540a58f8031,66a626ef09d4e21e1a8894ec,673729bf81a9922c5bb089cd,2024-11-15_12h03.30.850,Tarea de género gramatical,2024.2.2,Win32,60.24096386,,,,,,,,,,,,,,,,,,,,,,,,424.541,425.8343,a,1,[],[],[],[],[],[],[],0.6202,1,425.8346,426.333,,,,,,1268,FEM,AGR,150,gracia,la,a,0.6202,,426.3375,426.339,0.595052083,-0.026041667,0,0,0,,0,110,110,367,1,,,
,,,,,,9bd3b6297774f540a58f8031,66a626ef09d4e21e1a8894ec,673729bf81a9922c5bb089cd,2024-11-15_12h03.30.850,Tarea de género gramatical,2024.2.2,Win32,60.24096386,,,,,,,,,,,,,,,,,,,,,,,,426.3406,427.3969,l,1,[],[],[],[],[],[],[],0.3824,1,427.3971,427.8955,,,,,,958,MAS,DIS,150,mono,la,l,0.3824,,427.8956,427.896,0.595052083,-0.026041667,0,0,0,,0,111,111,57,1,,,
,,,,,,9bd3b6297774f540a58f8031,66a626ef09d4e21e1a8894ec,673729bf81a9922c5bb089cd,2024-11-15_12h03.30.850,Tarea de género gramatical,2024.2.2,Win32,60.24096386,,,,,,,,,,,,,,,,,,,,,,,,427.8989,429.225,l,1,[],[],[],[],[],[],[],0.65,1,429.2251,429.7235,,,,,,1044,MAS,CON,150,amor,,l,0.65,,429.7236,429.7237,0.595052083,-0.026041667,0,0,0,,0,112,112,143,1,,,
,,,,,,9bd3b6297774f540a58f8031,66a626ef09d4e21e1a8894ec,673729bf81a9922c5bb089cd,2024-11-15_12h03.30.850,Tarea de género gramatical,2024.2.2,Win32,60.24096386,,,,,,,,,,,,,,,,,,,,,,,,429.7249,430.9541,l,1,[],[],[],[],[],[],[],0.5567,1,430.9543,431.4523,,,,,,1138,MAS,DIS,150,norte,la,l,0.5567,,431.4524,431.4527,0.595052083,-0.026041667,0,0,0,,0,113,113,237,1,,,
,,,,,,9bd3b6297774f540a58f8031,66a626ef09d4e21e1a8894ec,673729bf81a9922c5bb089cd,2024-11-15_12h03.30.850,Tarea de género gramatical,2024.2.2,Win32,60.24096386,,,,,,,,,,,,,,,,,,,,,,,,431.4539,432.5165,l,1,[],[],[],[],[],[],[],0.3899,1,432.5168,433.0153,,,,,,1002,MAS,CON,150,coro,,l,0.3899,,433.018,433.0197,0.595052083,-0.026041667,0,0,0,,0,114,114,101,1,,,
,,,,,,9bd3b6297774f540a58f8031,66a626ef09d4e21e1a8894ec,673729bf81a9922c5bb089cd,2024-11-15_12h03.30.850,Tarea de género gramatical,2024.2.2,Win32,60.24096386,,,,,,,,,,,,,,,,,,,,,,,,433.0212,434.202,a,1,[],[],[],[],[],[],[],0.5103,1,434.2022,434.6941,,,,,,1089,FEM,CON,150,pista,,a,0.5103,,434.6943,434.6946,0.595052083,-0.026041667,0,0,0,,0,115,115,188,1,,,
,,,,,,9bd3b6297774f540a58f8031,66a626ef09d4e21e1a8894ec,673729bf81a9922c5bb089cd,2024-11-15_12h03.30.850,Tarea de género gramatical,2024.2.2,Win32,60.24096386,,,,,,,,,,,,,,,,,,,,,,,,434.6969,435.7979,a,1,[],[],[],[],[],[],[],0.4272,1,435.7981,436.2901,,,,,,1239,FEM,CON,150,salida,,a,0.4272,,436.2901,436.2906,0.595052083,-0.026041667,0,0,0,,0,116,116,338,1,,,
,,,,,,9bd3b6297774f540a58f8031,66a626ef09d4e21e1a8894ec,673729bf81a9922c5bb089cd,2024-11-15_12h03.30.850,Tarea de género gramatical,2024.2.2,Win32,60.24096386,,,,,,,,,,,,,,,,,,,,,,,,436.2931,437.3107,l,1,[],[],[],[],[],[],[],0.3606,1,437.3108,437.8024,,,,,,1348,MAS,DIS,150,aceite,la,l,0.3606,,437.8026,437.803,0.595052083,-0.026041667,0,0,0,,0,117,117,447,1,,,
,,,,,,9bd3b6297774f540a58f8031,66a626ef09d4e21e1a8894ec,673729bf81a9922c5bb089cd,2024-11-15_12h03.30.850,Tarea de género gramatical,2024.2.2,Win32,60.24096386,,,,,,,,,,,,,,,,,,,,,,,,437.8056,438.873,l,0,[],[],[],[],[],[],[],0.3942,0,438.8746,439.3711,,,,,,967,FEM,DIS,150,miel,el,a,0.3942,,439.3713,439.3716,0.595052083,-0.026041667,0,0,0,,0,118,118,66,1,,,
,,,,,,9bd3b6297774f540a58f8031,66a626ef09d4e21e1a8894ec,673729bf81a9922c5bb089cd,2024-11-15_12h03.30.850,Tarea de género gramatical,2024.2.2,Win32,60.24096386,,,,,,,,,,,,,,,,,,,,,,,,439.3739,440.4955,l,1,[],[],[],[],[],[],[],0.4427,1,440.4978,440.9997,,,,,,1020,MAS,CON,150,puño,,l,0.4427,,441.0031,441.0044,0.595052083,-0.026041667,0,0,0,,0,119,119,119,1,,,
,,,,,,9bd3b6297774f540a58f8031,66a626ef09d4e21e1a8894ec,673729bf81a9922c5bb089cd,2024-11-15_12h03.30.850,Tarea de género gramatical,2024.2.2,Win32,60.24096386,,,,,,,,,,,,,,,,,,,,,,,,441.0061,442.1741,a,1,[],[],[],[],[],[],[],0.4904,1,442.1743,442.6786,,,,,,1154,FEM,AGR,150,caída,la,a,0.4904,,442.6789,442.679,0.595052083,-0.026041667,0,0,0,,0,120,120,253,1,,,
,,,,,,9bd3b6297774f540a58f8031,66a626ef09d4e21e1a8894ec,673729bf81a9922c5bb089cd,2024-11-15_12h03.30.850,Tarea de género gramatical,2024.2.2,Win32,60.24096386,,,,,,,,,,,,,,,,,,,,,,,,442.6813,443.8862,l,1,[],[],[],[],[],[],[],0.5374,1,443.8865,444.3879,,,,,,929,MAS,AGR,150,frío,el,l,0.5374,,444.3879,444.3883,0.595052083,-0.026041667,0,0,0,,0,121,121,28,1,,,
,,,,,,9bd3b6297774f540a58f8031,66a626ef09d4e21e1a8894ec,673729bf81a9922c5bb089cd,2024-11-15_12h03.30.850,Tarea de género gramatical,2024.2.2,Win32,60.24096386,,,,,,,,,,,,,,,,,,,,,,,,444.3904,445.5883,a,1,[],[],[],[],[],[],[],0.5163,1,445.5885,446.0835,,,,,,949,FEM,DIS,150,piel,el,a,0.5163,,446.0836,446.084,0.595052083,-0.026041667,0,0,0,,0,122,122,48,1,,,
,,,,,,9bd3b6297774f540a58f8031,66a626ef09d4e21e1a8894ec,673729bf81a9922c5bb089cd,2024-11-15_12h03.30.850,Tarea de género gramatical,2024.2.2,Win32,60.24096386,,,,,,,,,,,,,,,,,,,,,,,,446.0861,447.4656,l,1,[],[],[],[],[],[],[],0.709,1,447.4657,447.9643,,,,,,1048,MAS,DIS,150,surf,la,l,0.709,,447.9671,447.9685,0.595052083,-0.026041667,0,0,0,,0,123,123,147,1,,,
,,,,,,9bd3b6297774f540a58f8031,66a626ef09d4e21e1a8894ec,673729bf81a9922c5bb089cd,2024-11-15_12h03.30.850,Tarea de género gramatical,2024.2.2,Win32,60.24096386,,,,,,,,,,,,,,,,,,,,,,,,447.9708,449.1721,l,1,[],[],[],[],[],[],[],0.5326,1,449.1723,449.6709,,,,,,1318,MAS,DIS,150,pájaro,la,l,0.5326,,449.6711,449.6716,0.595052083,-0.026041667,0,0,0,,0,124,124,417,1,,,
,,,,,,9bd3b6297774f540a58f8031,66a626ef09d4e21e1a8894ec,673729bf81a9922c5bb089cd,2024-11-15_12h03.30.850,Tarea de género gramatical,2024.2.2,Win32,60.24096386,,,,,,,,,,,,,,,,,,,,,,,,449.6738,451.067,a,1,[],[],[],[],[],[],[],0.7237,1,451.0672,451.5657,,,,,,1233,FEM,CON,150,locura,,a,0.7237,,451.5659,451.5664,0.595052083,-0.026041667,0,0,0,,0,125,125,332,1,,,
,,,,,,9bd3b6297774f540a58f8031,66a626ef09d4e21e1a8894ec,673729bf81a9922c5bb089cd,2024-11-15_12h03.30.850,Tarea de género gramatical,2024.2.2,Win32,60.24096386,,,,,,,,,,,,,,,,,,,,,,,,451.5685,453.0617,l,0,[],[],[],[],[],[],[],0.8355,0,453.064,453.5662,,,,,,1323,FEM,CON,150,poesía,,a,0.8355,,453.5664,453.5666,0.595052083,-0.026041667,0,0,0,,0,126,126,422,1,,,
,,,,,,9bd3b6297774f540a58f8031,66a626ef09d4e21e1a8894ec,673729bf81a9922c5bb089cd,2024-11-15_12h03.30.850,Tarea de género gramatical,2024.2.2,Win32,60.24096386,,,,,,,,,,,,,,,,,,,,,,,,453.5686,454.9953,l,0,[],[],[],[],[],[],[],0.759,0,454.9955,455.4933,,,,,,1291,FEM,DIS,150,altura,el,a,0.759,,455.4935,455.4937,0.595052083,-0.026041667,0,0,0,,0,127,127,390,1,,,
,,,,,,9bd3b6297774f540a58f8031,66a626ef09d4e21e1a8894ec,673729bf81a9922c5bb089cd,2024-11-15_12h03.30.850,Tarea de género gramatical,2024.2.2,Win32,60.24096386,,,,,,,,,,,,,,,,,,,,,,,,455.4951,456.7584,a,1,[],[],[],[],[],[],[],0.583,1,456.7598,457.2505,,,,,,1347,FEM,CON,150,lógica,,a,0.583,,457.2534,457.2549,0.595052083,-0.026041667,0,0,0,,0,128,128,446,1,,,
,,,,,,9bd3b6297774f540a58f8031,66a626ef09d4e21e1a8894ec,673729bf81a9922c5bb089cd,2024-11-15_12h03.30.850,Tarea de género gramatical,2024.2.2,Win32,60.24096386,,,,,,,,,,,,,,,,,,,,,,,,457.2565,458.4472,a,1,[],[],[],[],[],[],[],0.5148,1,458.4475,458.9459,,,,,,1232,FEM,AGR,150,basura,la,a,0.5148,,458.946,458.9463,0.595052083,-0.026041667,0,0,0,,0,129,129,331,1,,,
,,,,,,9bd3b6297774f540a58f8031,66a626ef09d4e21e1a8894ec,673729bf81a9922c5bb089cd,2024-11-15_12h03.30.850,Tarea de género gramatical,2024.2.2,Win32,60.24096386,,,,,,,,,,,,,,,,,,,,,,,,458.9486,460.0429,l,1,[],[],[],[],[],[],[],0.4174,1,460.0433,460.5415,,,,,,935,MAS,AGR,150,taxi,el,l,0.4174,,460.5416,460.5421,0.595052083,-0.026041667,0,0,0,,0,130,130,34,1,,,
,,,,,,9bd3b6297774f540a58f8031,66a626ef09d4e21e1a8894ec,673729bf81a9922c5bb089cd,2024-11-15_12h03.30.850,Tarea de género gramatical,2024.2.2,Win32,60.24096386,,,,,,,,,,,,,,,,,,,,,,,,460.5444,461.5557,l,1,[],[],[],[],[],[],[],0.3336,1,461.556,462.0543,,,,,,1086,MAS,CON,150,error,,l,0.3336,,462.0544,462.0548,0.595052083,-0.026041667,0,0,0,,0,131,131,185,1,,,
,,,,,,9bd3b6297774f540a58f8031,66a626ef09d4e21e1a8894ec,673729bf81a9922c5bb089cd,2024-11-15_12h03.30.850,Tarea de género gramatical,2024.2.2,Win32,60.24096386,,,,,,,,,,,,,,,,,,,,,,,,462.0572,463.2011,a,1,[],[],[],[],[],[],[],0.4713,1,463.2013,463.6998,,,,,,931,FEM,DIS,150,edad,el,a,0.4713,,463.7026,463.7043,0.595052083,-0.026041667,0,0,0,,0,132,132,30,1,,,
,,,,,,9bd3b6297774f540a58f8031,66a626ef09d4e21e1a8894ec,673729bf81a9922c5bb089cd,2024-11-15_12h03.30.850,Tarea de género gramatical,2024.2.2,Win32,60.24096386,,,,,,,,,,,,,,,,,,,,,,,,463.7057,464.9367,l,1,[],[],[],[],[],[],[],0.5603,1,464.9369,465.4286,,,,,,1308,MAS,CON,150,cheque,,l,0.5603,,465.4287,465.4292,0.595052083,-0.026041667,0,0,0,,0,133,133,407,1,,,
,,,,,,9bd3b6297774f540a58f8031,66a626ef09d4e21e1a8894ec,673729bf81a9922c5bb089cd,2024-11-15_12h03.30.850,Tarea de género gramatical,2024.2.2,Win32,60.24096386,,,,,,,,,,,,,,,,,,,,,,,,465.4316,466.6142,a,1,[],[],[],[],[],[],[],0.526,1,466.6143,467.1076,,,,,,1346,FEM,AGR,150,bañera,la,a,0.526,,467.1077,467.1081,0.595052083,-0.026041667,0,0,0,,0,134,134,445,1,,,
,,,,,,9bd3b6297774f540a58f8031,66a626ef09d4e21e1a8894ec,673729bf81a9922c5bb089cd,2024-11-15_12h03.30.850,Tarea de género gramatical,2024.2.2,Win32,60.24096386,,,,,,,,,,,,,,,,,,,,,,,,467.1111,468.4438,a,1,[],[],[],[],[],[],[],0.6769,1,468.444,468.9358,,,,,,1184,FEM,AGR,150,fruta,la,a,0.6769,,468.936,468.9363,0.595052083,-0.026041667,0,0,0,,0,135,135,283,1,,,
,,,,,,9bd3b6297774f540a58f8031,66a626ef09d4e21e1a8894ec,673729bf81a9922c5bb089cd,2024-11-15_12h03.30.850,Tarea de género gramatical,2024.2.2,Win32,60.24096386,,,,,,,,,,,,,,,,,,,,,,,,468.9387,470.2823,l,1,[],[],[],[],[],[],[],0.6801,1,470.2826,470.781,,,,,,1282,MAS,DIS,150,teatro,la,l,0.6801,,470.7811,470.7815,0.595052083,-0.026041667,0,0,0,,0,136,136,381,1,,,
,,,,,,9bd3b6297774f540a58f8031,66a626ef09d4e21e1a8894ec,673729bf81a9922c5bb089cd,2024-11-15_12h03.30.850,Tarea de género gramatical,2024.2.2,Win32,60.24096386,,,,,,,,,,,,,,,,,,,,,,,,470.784,472.1341,l,1,[],[],[],[],[],[],[],0.6828,1,472.1343,472.6314,,,,,,1241,MAS,AGR,150,precio,el,l,0.6828,,472.6342,472.6357,0.595052083,-0.026041667,0,0,0,,0,137,137,340,1,,,
,,,,,,9bd3b6297774f540a58f8031,66a626ef09d4e21e1a8894ec,673729bf81a9922c5bb089cd,2024-11-15_12h03.30.850,Tarea de género gramatical,2024.2.2,Win32,60.24096386,,,,,,,,,,,,,,,,,,,,,,,,472.6372,473.7624,l,1,[],[],[],[],[],[],[],0.4494,1,473.7626,474.261,,,,,,1260,MAS,CON,150,puente,,l,0.4494,,474.2611,474.2613,0.595052083,-0.026041667,0,0,0,,0,138,138,359,1,,,
,,,,,,9bd3b6297774f540a58f8031,66a626ef09d4e21e1a8894ec,673729bf81a9922c5bb089cd,2024-11-15_12h03.30.850,Tarea de género gramatical,2024.2.2,Win32,60.24096386,,,,,,,,,,,,,,,,,,,,,,,,474.2633,475.3891,a,1,[],[],[],[],[],[],[],0.4575,1,475.3893,475.8899,,,,,,1045,FEM,DIS,150,bota,el,a,0.4575,,475.89,475.8903,0.595052083,-0.026041667,0,0,0,,0,139,139,144,1,,,
,,,,,,9bd3b6297774f540a58f8031,66a626ef09d4e21e1a8894ec,673729bf81a9922c5bb089cd,2024-11-15_12h03.30.850,Tarea de género gramatical,2024.2.2,Win32,60.24096386,,,,,,,,,,,,,,,,,,,,,,,,475.8923,477.0209,a,1,[],[],[],[],[],[],[],0.4501,1,477.0211,477.5188,,,,,,1195,FEM,DIS,150,grasa,el,a,0.4501,,477.5189,477.5192,0.595052083,-0.026041667,0,0,0,,0,140,140,294,1,,,
,,,,,,9bd3b6297774f540a58f8031,66a626ef09d4e21e1a8894ec,673729bf81a9922c5bb089cd,2024-11-15_12h03.30.850,Tarea de género gramatical,2024.2.2,Win32,60.24096386,,,,,,,,,,,,,,,,,,,,,,,,477.5212,478.6099,l,1,[],[],[],[],[],[],[],0.4167,1,478.6102,479.0978,,,,,,1074,MAS,CON,150,perro,,l,0.4167,,479.1005,479.102,0.595052083,-0.026041667,0,0,0,,0,141,141,173,1,,,
,,,,,,9bd3b6297774f540a58f8031,66a626ef09d4e21e1a8894ec,673729bf81a9922c5bb089cd,2024-11-15_12h03.30.850,Tarea de género gramatical,2024.2.2,Win32,60.24096386,,,,,,,,,,,,,,,,,,,,,,,,479.1035,480.3886,a,1,[],[],[],[],[],[],[],0.6227,1,480.3888,480.8868,,,,,,1159,FEM,DIS,150,prima,el,a,0.6227,,480.887,480.8872,0.595052083,-0.026041667,0,0,0,,0,142,142,258,1,,,
,,,,,,9bd3b6297774f540a58f8031,66a626ef09d4e21e1a8894ec,673729bf81a9922c5bb089cd,2024-11-15_12h03.30.850,Tarea de género gramatical,2024.2.2,Win32,60.24096386,,,,,,,,,,,,,,,,,,,,,,,,480.8885,482.2502,l,1,[],[],[],[],[],[],[],0.6825,1,482.2504,482.749,,,,,,965,MAS,AGR,150,rayo,el,l,0.6825,,482.7492,482.7496,0.595052083,-0.026041667,0,0,0,,0,143,143,64,1,,,
,,,,,,9bd3b6297774f540a58f8031,66a626ef09d4e21e1a8894ec,673729bf81a9922c5bb089cd,2024-11-15_12h03.30.850,Tarea de género gramatical,2024.2.2,Win32,60.24096386,,,,,,,,,,,,,,,,,,,,,,,,482.7518,484.0286,a,0,[],[],[],[],[],[],[],0.6028,0,484.03,484.5275,,,,,,1228,MAS,DIS,150,asunto,la,l,0.6028,,484.5277,484.5281,0.595052083,-0.026041667,0,0,0,,0,144,144,327,1,,,
,,,,,,9bd3b6297774f540a58f8031,66a626ef09d4e21e1a8894ec,673729bf81a9922c5bb089cd,2024-11-15_12h03.30.850,Tarea de género gramatical,2024.2.2,Win32,60.24096386,,,,,,,,,,,,,,,,,,,,,,,,484.5308,485.8073,l,1,[],[],[],[],[],[],[],0.5998,1,485.809,486.306,,,,,,1216,MAS,DIS,150,cuerpo,la,l,0.5998,,486.3061,486.3064,0.595052083,-0.026041667,0,0,0,,0,145,145,315,1,,,
,,,,,,9bd3b6297774f540a58f8031,66a626ef09d4e21e1a8894ec,673729bf81a9922c5bb089cd,2024-11-15_12h03.30.850,Tarea de género gramatical,2024.2.2,Win32,60.24096386,,,,,,,,,,,,,,,,,,,,,,,,486.3087,487.5361,a,1,[],[],[],[],[],[],[],0.5524,1,487.5363,488.0348,,,,,,1033,FEM,DIS,150,joya,el,a,0.5524,,488.0374,488.0393,0.595052083,-0.026041667,0,0,0,,0,146,146,132,1,,,
,,,,,,9bd3b6297774f540a58f8031,66a626ef09d4e21e1a8894ec,673729bf81a9922c5bb089cd,2024-11-15_12h03.30.850,Tarea de género gramatical,2024.2.2,Win32,60.24096386,,,,,,,,,,,,,,,,,,,,,,,,488.0406,489.5143,l,1,[],[],[],[],[],[],[],0.8057,1,489.5145,490.0128,,,,,,1080,MAS,CON,150,fuego,,l,0.8057,,490.013,490.0133,0.595052083,-0.026041667,0,0,0,,0,147,147,179,1,,,
,,,,,,9bd3b6297774f540a58f8031,66a626ef09d4e21e1a8894ec,673729bf81a9922c5bb089cd,2024-11-15_12h03.30.850,Tarea de género gramatical,2024.2.2,Win32,60.24096386,,,,,,,,,,,,,,,,,,,,,,,,490.0154,491.2595,a,1,[],[],[],[],[],[],[],0.5663,1,491.2597,491.7581,,,,,,926,FEM,AGR,150,pena,la,a,0.5663,,491.7583,491.7586,0.595052083,-0.026041667,0,0,0,,0,148,148,25,1,,,
,,,,,,9bd3b6297774f540a58f8031,66a626ef09d4e21e1a8894ec,673729bf81a9922c5bb089cd,2024-11-15_12h03.30.850,Tarea de género gramatical,2024.2.2,Win32,60.24096386,,,,,,,,,,,,,,,,,,,,,,,,491.7607,492.8386,l,1,[],[],[],[],[],[],[],0.4008,1,492.8389,493.3372,,,,,,1330,MAS,DIS,150,título,la,l,0.4008,,493.3373,493.3377,0.595052083,-0.026041667,0,0,0,,0,149,149,429,1,,,
,,,,,,9bd3b6297774f540a58f8031,66a626ef09d4e21e1a8894ec,673729bf81a9922c5bb089cd,2024-11-15_12h03.30.850,Tarea de género gramatical,2024.2.2,Win32,60.24096386,,,,,,,,,,,,,,,,,,,,,,,,493.3397,494.5008,l,1,[],[],[],[],[],[],[],0.4831,1,494.501,494.9996,,,,,,936,MAS,CON,150,dedo,,l,0.4831,,495.0024,567.8724,0.083333333,-0.401041667,1,0,0,,0,150,150,35,1,break_done_button,,
,,,,,,9bd3b6297774f540a58f8031,66a626ef09d4e21e1a8894ec,673729bf81a9922c5bb089cd,2024-11-15_12h03.30.850,Tarea de género gramatical,2024.2.2,Win32,60.24096386,,,,,,,,,,,,,,,,,,,,,,,,567.8749,569.2842,l,1,[],[],[],[],[],[],[],0.7325,1,569.2845,569.783,,,,,,1164,MAS,CON,150,pollo,,l,0.7325,,569.7832,569.7834,0.048177083,0.108072917,0,0,0,,0,151,151,263,1,,,
,,,,,,9bd3b6297774f540a58f8031,66a626ef09d4e21e1a8894ec,673729bf81a9922c5bb089cd,2024-11-15_12h03.30.850,Tarea de género gramatical,2024.2.2,Win32,60.24096386,,,,,,,,,,,,,,,,,,,,,,,,569.7856,571.495,l,1,[],[],[],[],[],[],[],1.0369,1,571.4952,571.9936,,,,,,1326,MAS,CON,150,pánico,,l,1.0369,,571.9937,571.994,0.049479167,0.109375,0,0,0,,0,152,152,425,1,,,
,,,,,,9bd3b6297774f540a58f8031,66a626ef09d4e21e1a8894ec,673729bf81a9922c5bb089cd,2024-11-15_12h03.30.850,Tarea de género gramatical,2024.2.2,Win32,60.24096386,,,,,,,,,,,,,,,,,,,,,,,,571.9962,573.5064,a,1,[],[],[],[],[],[],[],0.8324,1,573.5065,574.0046,,,,,,1341,FEM,CON,150,medida,,a,0.8324,,574.0047,574.0049,0.049479167,0.109375,0,0,0,,0,153,153,440,1,,,
,,,,,,9bd3b6297774f540a58f8031,66a626ef09d4e21e1a8894ec,673729bf81a9922c5bb089cd,2024-11-15_12h03.30.850,Tarea de género gramatical,2024.2.2,Win32,60.24096386,,,,,,,,,,,,,,,,,,,,,,,,574.0063,575.4676,l,1,[],[],[],[],[],[],[],0.7823,1,575.4679,575.9664,,,,,,1290,MAS,CON,150,rostro,,l,0.7823,,575.9666,575.9669,0.049479167,0.109375,0,0,0,,0,154,154,389,1,,,
,,,,,,9bd3b6297774f540a58f8031,66a626ef09d4e21e1a8894ec,673729bf81a9922c5bb089cd,2024-11-15_12h03.30.850,Tarea de género gramatical,2024.2.2,Win32,60.24096386,,,,,,,,,,,,,,,,,,,,,,,,575.9693,577.4788,l,1,[],[],[],[],[],[],[],0.8367,1,577.4791,577.9776,,,,,,948,MAS,CON,150,loco,,l,0.8367,,577.9816,577.9832,0.049479167,0.109375,0,0,0,,0,155,155,47,1,,,
,,,,,,9bd3b6297774f540a58f8031,66a626ef09d4e21e1a8894ec,673729bf81a9922c5bb089cd,2024-11-15_12h03.30.850,Tarea de género gramatical,2024.2.2,Win32,60.24096386,,,,,,,,,,,,,,,,,,,,,,,,577.9847,579.3736,a,1,[],[],[],[],[],[],[],0.7144,1,579.3738,579.8725,,,,,,1197,FEM,CON,150,manta,,a,0.7144,,579.8727,579.873,0.049479167,0.109375,0,0,0,,0,156,156,296,1,,,
,,,,,,9bd3b6297774f540a58f8031,66a626ef09d4e21e1a8894ec,673729bf81a9922c5bb089cd,2024-11-15_12h03.30.850,Tarea de género gramatical,2024.2.2,Win32,60.24096386,,,,,,,,,,,,,,,,,,,,,,,,579.8753,581.4517,l,0,[],[],[],[],[],[],[],0.8988,0,581.4533,581.9504,,,,,,1273,FEM,DIS,150,lluvia,el,a,0.8988,,581.9505,581.9507,0.049479167,0.109375,0,0,0,,0,157,157,372,1,,,
,,,,,,9bd3b6297774f540a58f8031,66a626ef09d4e21e1a8894ec,673729bf81a9922c5bb089cd,2024-11-15_12h03.30.850,Tarea de género gramatical,2024.2.2,Win32,60.24096386,,,,,,,,,,,,,,,,,,,,,,,,581.9533,583.5294,a,1,[],[],[],[],[],[],[],0.8986,1,583.531,584.028,,,,,,1148,FEM,AGR,150,letra,la,a,0.8986,,584.0281,584.0285,0.049479167,0.109375,0,0,0,,0,158,158,247,1,,,
,,,,,,9bd3b6297774f540a58f8031,66a626ef09d4e21e1a8894ec,673729bf81a9922c5bb089cd,2024-11-15_12h03.30.850,Tarea de género gramatical,2024.2.2,Win32,60.24096386,,,,,,,,,,,,,,,,,,,,,,,,584.0305,585.2083,l,1,[],[],[],[],[],[],[],0.4995,1,585.2086,585.7069,,,,,,1301,MAS,AGR,150,abrigo,el,l,0.4995,,585.7104,585.7119,0.049479167,0.109375,0,0,0,,0,159,159,400,1,,,
,,,,,,9bd3b6297774f540a58f8031,66a626ef09d4e21e1a8894ec,673729bf81a9922c5bb089cd,2024-11-15_12h03.30.850,Tarea de género gramatical,2024.2.2,Win32,60.24096386,,,,,,,,,,,,,,,,,,,,,,,,585.7134,586.937,a,1,[],[],[],[],[],[],[],0.5507,1,586.9372,587.4356,,,,,,1316,FEM,AGR,150,colina,la,a,0.5507,,587.4357,587.4359,0.049479167,0.109375,0,0,0,,0,160,160,415,1,,,
,,,,,,9bd3b6297774f540a58f8031,66a626ef09d4e21e1a8894ec,673729bf81a9922c5bb089cd,2024-11-15_12h03.30.850,Tarea de género gramatical,2024.2.2,Win32,60.24096386,,,,,,,,,,,,,,,,,,,,,,,,587.4383,588.765,a,1,[],[],[],[],[],[],[],0.6503,1,588.7651,589.2641,,,,,,920,FEM,AGR,150,ropa,la,a,0.6503,,589.2642,589.2645,0.049479167,0.109375,0,0,0,,0,161,161,19,1,,,
,,,,,,9bd3b6297774f540a58f8031,66a626ef09d4e21e1a8894ec,673729bf81a9922c5bb089cd,2024-11-15_12h03.30.850,Tarea de género gramatical,2024.2.2,Win32,60.24096386,,,,,,,,,,,,,,,,,,,,,,,,589.267,590.4445,l,1,[],[],[],[],[],[],[],0.5024,1,590.4449,590.9425,,,,,,1127,MAS,AGR,150,vuelo,el,l,0.5024,,590.9426,590.9428,0.049479167,0.109375,0,0,0,,0,162,162,226,1,,,
,,,,,,9bd3b6297774f540a58f8031,66a626ef09d4e21e1a8894ec,673729bf81a9922c5bb089cd,2024-11-15_12h03.30.850,Tarea de género gramatical,2024.2.2,Win32,60.24096386,,,,,,,,,,,,,,,,,,,,,,,,590.944,592.1064,l,1,[],[],[],[],[],[],[],0.4831,1,592.1066,592.6052,,,,,,1294,MAS,DIS,150,examen,la,l,0.4831,,592.6053,592.6056,0.049479167,0.109375,0,0,0,,0,163,163,393,1,,,
,,,,,,9bd3b6297774f540a58f8031,66a626ef09d4e21e1a8894ec,673729bf81a9922c5bb089cd,2024-11-15_12h03.30.850,Tarea de género gramatical,2024.2.2,Win32,60.24096386,,,,,,,,,,,,,,,,,,,,,,,,592.6079,593.9018,a,1,[],[],[],[],[],[],[],0.6229,1,593.9019,594.4004,,,,,,1267,FEM,DIS,150,teoría,el,a,0.6229,,594.4032,594.4051,0.049479167,0.109375,0,0,0,,0,164,164,366,1,,,
,,,,,,9bd3b6297774f540a58f8031,66a626ef09d4e21e1a8894ec,673729bf81a9922c5bb089cd,2024-11-15_12h03.30.850,Tarea de género gramatical,2024.2.2,Win32,60.24096386,,,,,,,,,,,,,,,,,,,,,,,,594.4067,595.5472,l,1,[],[],[],[],[],[],[],0.4666,1,595.5475,596.0456,,,,,,1337,MAS,AGR,150,hombro,el,l,0.4666,,596.0458,596.046,0.049479167,0.109375,0,0,0,,0,165,165,436,1,,,
,,,,,,9bd3b6297774f540a58f8031,66a626ef09d4e21e1a8894ec,673729bf81a9922c5bb089cd,2024-11-15_12h03.30.850,Tarea de género gramatical,2024.2.2,Win32,60.24096386,,,,,,,,,,,,,,,,,,,,,,,,596.0477,597.1929,a,1,[],[],[],[],[],[],[],0.4715,1,597.1931,597.6915,,,,,,1111,FEM,DIS,150,salud,el,a,0.4715,,597.6916,597.6919,0.049479167,0.109375,0,0,0,,0,166,166,210,1,,,
,,,,,,9bd3b6297774f540a58f8031,66a626ef09d4e21e1a8894ec,673729bf81a9922c5bb089cd,2024-11-15_12h03.30.850,Tarea de género gramatical,2024.2.2,Win32,60.24096386,,,,,,,,,,,,,,,,,,,,,,,,597.6943,599.1041,a,1,[],[],[],[],[],[],[],0.7363,1,599.1043,599.6032,,,,,,1160,FEM,AGR,150,barra,la,a,0.7363,,599.6034,599.6037,0.049479167,0.109375,0,0,0,,0,167,167,259,1,,,
,,,,,,9bd3b6297774f540a58f8031,66a626ef09d4e21e1a8894ec,673729bf81a9922c5bb089cd,2024-11-15_12h03.30.850,Tarea de género gramatical,2024.2.2,Win32,60.24096386,,,,,,,,,,,,,,,,,,,,,,,,599.6065,600.7498,l,1,[],[],[],[],[],[],[],0.466,1,600.7498,601.2487,,,,,,1223,MAS,AGR,150,marido,el,l,0.466,,601.2515,601.2537,0.049479167,0.109375,0,0,0,,0,168,168,322,1,,,
,,,,,,9bd3b6297774f540a58f8031,66a626ef09d4e21e1a8894ec,673729bf81a9922c5bb089cd,2024-11-15_12h03.30.850,Tarea de género gramatical,2024.2.2,Win32,60.24096386,,,,,,,,,,,,,,,,,,,,,,,,601.2556,602.3693,l,1,[],[],[],[],[],[],[],0.4438,1,602.3694,602.8668,,,,,,1252,MAS,DIS,150,estilo,la,l,0.4438,,602.8669,602.8672,0.049479167,0.109375,0,0,0,,0,169,169,351,1,,,
,,,,,,9bd3b6297774f540a58f8031,66a626ef09d4e21e1a8894ec,673729bf81a9922c5bb089cd,2024-11-15_12h03.30.850,Tarea de género gramatical,2024.2.2,Win32,60.24096386,,,,,,,,,,,,,,,,,,,,,,,,602.8692,604.0147,a,1,[],[],[],[],[],[],[],0.4668,1,604.0148,604.5126,,,,,,1172,FEM,AGR,150,oreja,la,a,0.4668,,604.5126,604.5129,0.049479167,0.109375,0,0,0,,0,170,170,271,1,,,
,,,,,,9bd3b6297774f540a58f8031,66a626ef09d4e21e1a8894ec,673729bf81a9922c5bb089cd,2024-11-15_12h03.30.850,Tarea de género gramatical,2024.2.2,Win32,60.24096386,,,,,,,,,,,,,,,,,,,,,,,,604.515,605.9918,a,1,[],[],[],[],[],[],[],0.8088,1,605.9918,606.4849,,,,,,1028,FEM,AGR,150,leña,la,a,0.8088,,606.485,606.4855,0.049479167,0.109375,0,0,0,,0,171,171,127,1,,,
,,,,,,9bd3b6297774f540a58f8031,66a626ef09d4e21e1a8894ec,673729bf81a9922c5bb089cd,2024-11-15_12h03.30.850,Tarea de género gramatical,2024.2.2,Win32,60.24096386,,,,,,,,,,,,,,,,,,,,,,,,606.4879,607.5819,a,1,[],[],[],[],[],[],[],0.423,1,607.5822,608.0806,,,,,,1209,FEM,CON,150,esposa,,a,0.423,,608.0807,608.0811,0.049479167,0.109375,0,0,0,,0,172,172,308,1,,,
,,,,,,9bd3b6297774f540a58f8031,66a626ef09d4e21e1a8894ec,673729bf81a9922c5bb089cd,2024-11-15_12h03.30.850,Tarea de género gramatical,2024.2.2,Win32,60.24096386,,,,,,,,,,,,,,,,,,,,,,,,608.0836,609.1278,a,1,[],[],[],[],[],[],[],0.3713,1,609.1279,609.6323,,,,,,1215,FEM,CON,150,manera,,a,0.3713,,609.635,609.6363,0.049479167,0.109375,0,0,0,,0,173,173,314,1,,,
,,,,,,9bd3b6297774f540a58f8031,66a626ef09d4e21e1a8894ec,673729bf81a9922c5bb089cd,2024-11-15_12h03.30.850,Tarea de género gramatical,2024.2.2,Win32,60.24096386,,,,,,,,,,,,,,,,,,,,,,,,609.6373,610.7069,l,0,[],[],[],[],[],[],[],0.3896,0,610.7093,611.2055,,,,,,1063,FEM,DIS,150,calle,el,a,0.3896,,611.2057,611.2063,0.049479167,0.109375,0,0,0,,0,174,174,162,1,,,
,,,,,,9bd3b6297774f540a58f8031,66a626ef09d4e21e1a8894ec,673729bf81a9922c5bb089cd,2024-11-15_12h03.30.850,Tarea de género gramatical,2024.2.2,Win32,60.24096386,,,,,,,,,,,,,,,,,,,,,,,,611.209,612.722,l,1,[],[],[],[],[],[],[],0.8565,1,612.7234,613.2167,,,,,,1288,MAS,DIS,150,empleo,la,l,0.8565,,613.217,613.2174,0.049479167,0.109375,0,0,0,,0,175,175,387,1,,,
,,,,,,9bd3b6297774f540a58f8031,66a626ef09d4e21e1a8894ec,673729bf81a9922c5bb089cd,2024-11-15_12h03.30.850,Tarea de género gramatical,2024.2.2,Win32,60.24096386,,,,,,,,,,,,,,,,,,,,,,,,613.2197,614.3533,l,1,[],[],[],[],[],[],[],0.4664,1,614.3534,614.8517,,,,,,1067,MAS,AGR,150,juego,el,l,0.4664,,614.8518,614.8522,0.049479167,0.109375,0,0,0,,0,176,176,166,1,,,
,,,,,,9bd3b6297774f540a58f8031,66a626ef09d4e21e1a8894ec,673729bf81a9922c5bb089cd,2024-11-15_12h03.30.850,Tarea de género gramatical,2024.2.2,Win32,60.24096386,,,,,,,,,,,,,,,,,,,,,,,,614.8541,616.1159,l,1,[],[],[],[],[],[],[],0.5832,1,616.116,616.6077,,,,,,1222,MAS,DIS,150,minuto,la,l,0.5832,,616.6106,616.6121,0.049479167,0.109375,0,0,0,,0,177,177,321,1,,,
,,,,,,9bd3b6297774f540a58f8031,66a626ef09d4e21e1a8894ec,673729bf81a9922c5bb089cd,2024-11-15_12h03.30.850,Tarea de género gramatical,2024.2.2,Win32,60.24096386,,,,,,,,,,,,,,,,,,,,,,,,616.6135,617.8378,l,1,[],[],[],[],[],[],[],0.5492,1,617.8381,618.3361,,,,,,1152,MAS,CON,150,viejo,,l,0.5492,,618.3362,618.3365,-0.055989583,0.4609375,0,0,0,,0,178,178,251,1,,,
,,,,,,9bd3b6297774f540a58f8031,66a626ef09d4e21e1a8894ec,673729bf81a9922c5bb089cd,2024-11-15_12h03.30.850,Tarea de género gramatical,2024.2.2,Win32,60.24096386,,,,,,,,,,,,,,,,,,,,,,,,618.3379,619.5832,l,1,[],[],[],[],[],[],[],0.5661,1,619.5834,620.0818,,,,,,904,MAS,DIS,150,hijo,la,l,0.5661,,620.0819,620.0823,-0.055989583,0.4609375,0,0,0,,0,179,179,3,1,,,
,,,,,,9bd3b6297774f540a58f8031,66a626ef09d4e21e1a8894ec,673729bf81a9922c5bb089cd,2024-11-15_12h03.30.850,Tarea de género gramatical,2024.2.2,Win32,60.24096386,,,,,,,,,,,,,,,,,,,,,,,,620.0848,621.2288,a,1,[],[],[],[],[],[],[],0.4753,1,621.229,621.7306,,,,,,1219,FEM,DIS,150,sangre,el,a,0.4753,,621.7307,621.7311,-0.055989583,0.4609375,0,0,0,,0,180,180,318,1,,,
,,,,,,9bd3b6297774f540a58f8031,66a626ef09d4e21e1a8894ec,673729bf81a9922c5bb089cd,2024-11-15_12h03.30.850,Tarea de género gramatical,2024.2.2,Win32,60.24096386,,,,,,,,,,,,,,,,,,,,,,,,621.7333,623.2771,a,1,[],[],[],[],[],[],[],0.8627,1,623.2773,623.7775,,,,,,1130,FEM,AGR,150,regla,la,a,0.8627,,623.7777,623.778,-0.055989583,0.4609375,0,0,0,,0,181,181,229,1,,,
,,,,,,9bd3b6297774f540a58f8031,66a626ef09d4e21e1a8894ec,673729bf81a9922c5bb089cd,2024-11-15_12h03.30.850,Tarea de género gramatical,2024.2.2,Win32,60.24096386,,,,,,,,,,,,,,,,,,,,,,,,623.7801,624.8523,a,1,[],[],[],[],[],[],[],0.4001,1,624.8526,625.3567,,,,,,1250,FEM,AGR,150,imagen,la,a,0.4001,,625.36,625.3614,-0.055989583,0.4609375,0,0,0,,0,182,182,349,1,,,
,,,,,,9bd3b6297774f540a58f8031,66a626ef09d4e21e1a8894ec,673729bf81a9922c5bb089cd,2024-11-15_12h03.30.850,Tarea de género gramatical,2024.2.2,Win32,60.24096386,,,,,,,,,,,,,,,,,,,,,,,,625.3629,626.3816,a,1,[],[],[],[],[],[],[],0.3537,1,626.3817,626.8802,,,,,,1303,FEM,DIS,150,paliza,el,a,0.3537,,626.8803,626.8805,-0.055989583,0.4609375,0,0,0,,0,183,183,402,1,,,
,,,,,,9bd3b6297774f540a58f8031,66a626ef09d4e21e1a8894ec,673729bf81a9922c5bb089cd,2024-11-15_12h03.30.850,Tarea de género gramatical,2024.2.2,Win32,60.24096386,,,,,,,,,,,,,,,,,,,,,,,,626.8829,627.9773,a,1,[],[],[],[],[],[],[],0.4234,1,627.9775,628.4762,,,,,,1196,FEM,AGR,150,feria,la,a,0.4234,,628.4763,628.4766,-0.055989583,0.4609375,0,0,0,,0,184,184,295,1,,,
,,,,,,9bd3b6297774f540a58f8031,66a626ef09d4e21e1a8894ec,673729bf81a9922c5bb089cd,2024-11-15_12h03.30.850,Tarea de género gramatical,2024.2.2,Win32,60.24096386,,,,,,,,,,,,,,,,,,,,,,,,628.4787,629.4732,a,1,[],[],[],[],[],[],[],0.3199,1,629.4735,629.9719,,,,,,1201,FEM,DIS,150,verdad,el,a,0.3199,,629.972,629.9724,-0.055989583,0.4609375,0,0,0,,0,185,185,300,1,,,
,,,,,,9bd3b6297774f540a58f8031,66a626ef09d4e21e1a8894ec,673729bf81a9922c5bb089cd,2024-11-15_12h03.30.850,Tarea de género gramatical,2024.2.2,Win32,60.24096386,,,,,,,,,,,,,,,,,,,,,,,,629.9749,630.9527,a,1,[],[],[],[],[],[],[],0.3043,1,630.9529,631.4513,,,,,,1117,FEM,DIS,150,tarea,el,a,0.3043,,631.4542,631.4563,-0.055989583,0.4609375,0,0,0,,0,186,186,216,1,,,
,,,,,,9bd3b6297774f540a58f8031,66a626ef09d4e21e1a8894ec,673729bf81a9922c5bb089cd,2024-11-15_12h03.30.850,Tarea de género gramatical,2024.2.2,Win32,60.24096386,,,,,,,,,,,,,,,,,,,,,,,,631.4579,632.5721,l,1,[],[],[],[],[],[],[],0.4443,1,632.5724,633.0696,,,,,,1181,MAS,AGR,150,actor,el,l,0.4443,,633.0698,633.0701,-0.055989583,0.4609375,0,0,0,,0,187,187,280,1,,,
,,,,,,9bd3b6297774f540a58f8031,66a626ef09d4e21e1a8894ec,673729bf81a9922c5bb089cd,2024-11-15_12h03.30.850,Tarea de género gramatical,2024.2.2,Win32,60.24096386,,,,,,,,,,,,,,,,,,,,,,,,633.0725,634.1508,l,1,[],[],[],[],[],[],[],0.3999,1,634.151,634.6429,,,,,,1175,MAS,AGR,150,disco,el,l,0.3999,,634.643,634.6435,-0.055989583,0.4609375,0,0,0,,0,188,188,274,1,,,
,,,,,,9bd3b6297774f540a58f8031,66a626ef09d4e21e1a8894ec,673729bf81a9922c5bb089cd,2024-11-15_12h03.30.850,Tarea de género gramatical,2024.2.2,Win32,60.24096386,,,,,,,,,,,,,,,,,,,,,,,,634.646,635.8298,a,1,[],[],[],[],[],[],[],0.5165,1,635.8299,636.3218,,,,,,1292,FEM,AGR,150,maleta,la,a,0.5165,,636.3219,636.3225,-0.055989583,0.4609375,0,0,0,,0,189,189,391,1,,,
,,,,,,9bd3b6297774f540a58f8031,66a626ef09d4e21e1a8894ec,673729bf81a9922c5bb089cd,2024-11-15_12h03.30.850,Tarea de género gramatical,2024.2.2,Win32,60.24096386,,,,,,,,,,,,,,,,,,,,,,,,636.3249,637.4188,l,1,[],[],[],[],[],[],[],0.4085,1,637.4191,637.9232,,,,,,970,MAS,DIS,150,palo,la,l,0.4085,,637.9233,637.9236,-0.055989583,0.4609375,0,0,0,,0,190,190,69,1,,,
,,,,,,9bd3b6297774f540a58f8031,66a626ef09d4e21e1a8894ec,673729bf81a9922c5bb089cd,2024-11-15_12h03.30.850,Tarea de género gramatical,2024.2.2,Win32,60.24096386,,,,,,,,,,,,,,,,,,,,,,,,637.9257,639.0976,l,1,[],[],[],[],[],[],[],0.4892,1,639.0978,639.5965,,,,,,1104,MAS,CON,150,papel,,l,0.4892,,639.5995,639.601,-0.055989583,0.4609375,0,0,0,,0,191,191,203,1,,,
,,,,,,9bd3b6297774f540a58f8031,66a626ef09d4e21e1a8894ec,673729bf81a9922c5bb089cd,2024-11-15_12h03.30.850,Tarea de género gramatical,2024.2.2,Win32,60.24096386,,,,,,,,,,,,,,,,,,,,,,,,639.6026,640.7266,a,1,[],[],[],[],[],[],[],0.4569,1,640.7268,641.2253,,,,,,968,FEM,AGR,150,pata,la,a,0.4569,,641.2254,641.2258,-0.055989583,0.4609375,0,0,0,,0,192,192,67,1,,,
,,,,,,9bd3b6297774f540a58f8031,66a626ef09d4e21e1a8894ec,673729bf81a9922c5bb089cd,2024-11-15_12h03.30.850,Tarea de género gramatical,2024.2.2,Win32,60.24096386,,,,,,,,,,,,,,,,,,,,,,,,641.2283,642.4386,a,1,[],[],[],[],[],[],[],0.5326,1,642.4388,642.9369,,,,,,1339,FEM,DIS,150,toalla,el,a,0.5326,,642.9371,642.9372,-0.055989583,0.4609375,0,0,0,,0,193,193,438,1,,,
,,,,,,9bd3b6297774f540a58f8031,66a626ef09d4e21e1a8894ec,673729bf81a9922c5bb089cd,2024-11-15_12h03.30.850,Tarea de género gramatical,2024.2.2,Win32,60.24096386,,,,,,,,,,,,,,,,,,,,,,,,642.9387,644.9485,a,0,[],[],[],[],[],[],[],1.3387,0,644.9502,645.4472,,,,,,1144,MAS,DIS,150,hielo,la,l,1.3387,,645.4474,645.4478,-0.055989583,0.4609375,0,0,0,,0,194,194,243,1,,,
,,,,,,9bd3b6297774f540a58f8031,66a626ef09d4e21e1a8894ec,673729bf81a9922c5bb089cd,2024-11-15_12h03.30.850,Tarea de género gramatical,2024.2.2,Win32,60.24096386,,,,,,,,,,,,,,,,,,,,,,,,645.4502,646.6939,l,1,[],[],[],[],[],[],[],0.5686,1,646.6955,647.1925,,,,,,1084,MAS,DIS,150,cielo,la,l,0.5686,,647.1953,647.1974,-0.055989583,0.4609375,0,0,0,,0,195,195,183,1,,,
,,,,,,9bd3b6297774f540a58f8031,66a626ef09d4e21e1a8894ec,673729bf81a9922c5bb089cd,2024-11-15_12h03.30.850,Tarea de género gramatical,2024.2.2,Win32,60.24096386,,,,,,,,,,,,,,,,,,,,,,,,647.1991,648.3062,a,1,[],[],[],[],[],[],[],0.4333,1,648.3064,648.8046,,,,,,987,FEM,CON,150,risa,,a,0.4333,,648.8046,648.8049,-0.055989583,0.4609375,0,0,0,,0,196,196,86,1,,,
,,,,,,9bd3b6297774f540a58f8031,66a626ef09d4e21e1a8894ec,673729bf81a9922c5bb089cd,2024-11-15_12h03.30.850,Tarea de género gramatical,2024.2.2,Win32,60.24096386,,,,,,,,,,,,,,,,,,,,,,,,648.8063,650.3009,a,1,[],[],[],[],[],[],[],0.8218,1,650.3011,650.7996,,,,,,1101,FEM,CON,150,leche,,a,0.8218,,650.7997,650.8001,-0.055989583,0.4609375,0,0,0,,0,197,197,200,1,,,
,,,,,,9bd3b6297774f540a58f8031,66a626ef09d4e21e1a8894ec,673729bf81a9922c5bb089cd,2024-11-15_12h03.30.850,Tarea de género gramatical,2024.2.2,Win32,60.24096386,,,,,,,,,,,,,,,,,,,,,,,,650.8024,652.0795,l,1,[],[],[],[],[],[],[],0.6022,1,652.0797,652.5782,,,,,,1187,MAS,AGR,150,plato,el,l,0.6022,,652.5783,652.5787,-0.055989583,0.4609375,0,0,0,,0,198,198,286,1,,,
,,,,,,9bd3b6297774f540a58f8031,66a626ef09d4e21e1a8894ec,673729bf81a9922c5bb089cd,2024-11-15_12h03.30.850,Tarea de género gramatical,2024.2.2,Win32,60.24096386,,,,,,,,,,,,,,,,,,,,,,,,652.5809,653.7915,a,1,[],[],[],[],[],[],[],0.5327,1,653.7918,654.2902,,,,,,1178,FEM,AGR,150,presa,la,a,0.5327,,654.2903,654.2907,-0.055989583,0.4609375,0,0,0,,0,199,199,277,1,,,
,,,,,,9bd3b6297774f540a58f8031,66a626ef09d4e21e1a8894ec,673729bf81a9922c5bb089cd,2024-11-15_12h03.30.850,Tarea de género gramatical,2024.2.2,Win32,60.24096386,,,,,,,,,,,,,,,,,,,,,,,,654.2929,655.3879,l,1,[],[],[],[],[],[],[],0.4268,1,655.388,655.8859,,,,,,1302,MAS,CON,150,ladrón,,l,0.4268,,655.8894,655.8909,-0.055989583,0.4609375,0,0,0,,0,200,200,401,1,,,
,,,,,,9bd3b6297774f540a58f8031,66a626ef09d4e21e1a8894ec,673729bf81a9922c5bb089cd,2024-11-15_12h03.30.850,Tarea de género gramatical,2024.2.2,Win32,60.24096386,,,,,,,,,,,,,,,,,,,,,,,,655.8924,656.9666,l,1,[],[],[],[],[],[],[],0.4051,1,656.9669,657.4653,,,,,,1055,MAS,AGR,150,mundo,el,l,0.4051,,657.4655,657.4659,-0.055989583,0.4609375,0,0,0,,0,201,201,154,1,,,
,,,,,,9bd3b6297774f540a58f8031,66a626ef09d4e21e1a8894ec,673729bf81a9922c5bb089cd,2024-11-15_12h03.30.850,Tarea de género gramatical,2024.2.2,Win32,60.24096386,,,,,,,,,,,,,,,,,,,,,,,,657.4691,658.6126,a,1,[],[],[],[],[],[],[],0.4755,1,658.6128,659.1108,,,,,,998,FEM,AGR,150,fuga,la,a,0.4755,,659.1109,659.1111,-0.055989583,0.4609375,0,0,0,,0,202,202,97,1,,,
,,,,,,9bd3b6297774f540a58f8031,66a626ef09d4e21e1a8894ec,673729bf81a9922c5bb089cd,2024-11-15_12h03.30.850,Tarea de género gramatical,2024.2.2,Win32,60.24096386,,,,,,,,,,,,,,,,,,,,,,,,659.1134,660.2577,l,1,[],[],[],[],[],[],[],0.4664,1,660.2579,660.7564,,,,,,911,MAS,AGR,150,país,el,l,0.4664,,660.7566,660.7568,-0.055989583,0.4609375,0,0,0,,0,203,203,10,1,,,
,,,,,,9bd3b6297774f540a58f8031,66a626ef09d4e21e1a8894ec,673729bf81a9922c5bb089cd,2024-11-15_12h03.30.850,Tarea de género gramatical,2024.2.2,Win32,60.24096386,,,,,,,,,,,,,,,,,,,,,,,,660.759,662.1197,l,1,[],[],[],[],[],[],[],0.6912,1,662.1199,662.6181,,,,,,1224,MAS,CON,150,cuarto,,l,0.6912,,662.6212,662.6228,-0.055989583,0.4609375,0,0,0,,0,204,204,323,1,,,
,,,,,,9bd3b6297774f540a58f8031,66a626ef09d4e21e1a8894ec,673729bf81a9922c5bb089cd,2024-11-15_12h03.30.850,Tarea de género gramatical,2024.2.2,Win32,60.24096386,,,,,,,,,,,,,,,,,,,,,,,,662.6244,663.7813,a,1,[],[],[],[],[],[],[],0.472,1,663.7816,664.2853,,,,,,1237,FEM,DIS,150,escena,el,a,0.472,,664.2854,664.2856,-0.055989583,0.4609375,0,0,0,,0,205,205,336,1,,,
,,,,,,9bd3b6297774f540a58f8031,66a626ef09d4e21e1a8894ec,673729bf81a9922c5bb089cd,2024-11-15_12h03.30.850,Tarea de género gramatical,2024.2.2,Win32,60.24096386,,,,,,,,,,,,,,,,,,,,,,,,664.2871,665.434,l,1,[],[],[],[],[],[],[],0.4665,1,665.4341,665.9258,,,,,,1234,MAS,DIS,150,ataque,la,l,0.4665,,665.9259,665.9265,-0.055989583,0.4609375,0,0,0,,0,206,206,333,1,,,
,,,,,,9bd3b6297774f540a58f8031,66a626ef09d4e21e1a8894ec,673729bf81a9922c5bb089cd,2024-11-15_12h03.30.850,Tarea de género gramatical,2024.2.2,Win32,60.24096386,,,,,,,,,,,,,,,,,,,,,,,,665.9287,666.9467,a,1,[],[],[],[],[],[],[],0.3502,1,666.9469,667.4442,,,,,,1213,FEM,DIS,150,ciudad,el,a,0.3502,,667.4444,667.4447,-0.055989583,0.4609375,0,0,0,,0,207,207,312,1,,,
,,,,,,9bd3b6297774f540a58f8031,66a626ef09d4e21e1a8894ec,673729bf81a9922c5bb089cd,2024-11-15_12h03.30.850,Tarea de género gramatical,2024.2.2,Win32,60.24096386,,,,,,,,,,,,,,,,,,,,,,,,667.4467,668.5205,l,1,[],[],[],[],[],[],[],0.3948,1,668.5208,669.0176,,,,,,1205,MAS,AGR,150,hombre,el,l,0.3948,,669.0177,669.0182,-0.055989583,0.4609375,0,0,0,,0,208,208,304,1,,,
,,,,,,9bd3b6297774f540a58f8031,66a626ef09d4e21e1a8894ec,673729bf81a9922c5bb089cd,2024-11-15_12h03.30.850,Tarea de género gramatical,2024.2.2,Win32,60.24096386,,,,,,,,,,,,,,,,,,,,,,,,669.0206,670.1214,l,1,[],[],[],[],[],[],[],0.4439,1,670.1215,670.6186,,,,,,1211,MAS,AGR,150,camino,el,l,0.4439,,670.6213,670.6227,-0.055989583,0.4609375,0,0,0,,0,209,209,310,1,,,
,,,,,,9bd3b6297774f540a58f8031,66a626ef09d4e21e1a8894ec,673729bf81a9922c5bb089cd,2024-11-15_12h03.30.850,Tarea de género gramatical,2024.2.2,Win32,60.24096386,,,,,,,,,,,,,,,,,,,,,,,,670.6244,671.6937,l,1,[],[],[],[],[],[],[],0.4017,1,671.6939,672.1923,,,,,,1066,MAS,DIS,150,coche,la,l,0.4017,,672.1925,672.1928,-0.055989583,0.4609375,0,0,0,,0,210,210,165,1,,,
,,,,,,9bd3b6297774f540a58f8031,66a626ef09d4e21e1a8894ec,673729bf81a9922c5bb089cd,2024-11-15_12h03.30.850,Tarea de género gramatical,2024.2.2,Win32,60.24096386,,,,,,,,,,,,,,,,,,,,,,,,672.1948,673.3227,a,1,[],[],[],[],[],[],[],0.4519,1,673.3229,673.8215,,,,,,1047,FEM,CON,150,grúa,,a,0.4519,,673.8216,673.822,-0.055989583,0.4609375,0,0,0,,0,211,211,146,1,,,
,,,,,,9bd3b6297774f540a58f8031,66a626ef09d4e21e1a8894ec,673729bf81a9922c5bb089cd,2024-11-15_12h03.30.850,Tarea de género gramatical,2024.2.2,Win32,60.24096386,,,,,,,,,,,,,,,,,,,,,,,,673.8241,674.9017,l,1,[],[],[],[],[],[],[],0.3998,1,674.9019,675.4005,,,,,,1349,MAS,AGR,150,payaso,el,l,0.3998,,675.4006,675.4011,-0.055989583,0.4609375,0,0,0,,0,212,212,448,1,,,
,,,,,,9bd3b6297774f540a58f8031,66a626ef09d4e21e1a8894ec,673729bf81a9922c5bb089cd,2024-11-15_12h03.30.850,Tarea de género gramatical,2024.2.2,Win32,60.24096386,,,,,,,,,,,,,,,,,,,,,,,,675.4034,676.4151,a,1,[],[],[],[],[],[],[],0.3419,1,676.4152,676.9131,,,,,,1046,FEM,AGR,150,lana,la,a,0.3419,,676.916,676.9179,-0.055989583,0.4609375,0,0,0,,0,213,213,145,1,,,
,,,,,,9bd3b6297774f540a58f8031,66a626ef09d4e21e1a8894ec,673729bf81a9922c5bb089cd,2024-11-15_12h03.30.850,Tarea de género gramatical,2024.2.2,Win32,60.24096386,,,,,,,,,,,,,,,,,,,,,,,,676.9194,677.9612,l,1,[],[],[],[],[],[],[],0.3757,1,677.9613,678.4591,,,,,,1199,MAS,AGR,150,rumbo,el,l,0.3757,,678.4593,678.4598,-0.055989583,0.4609375,0,0,0,,0,214,214,298,1,,,
,,,,,,9bd3b6297774f540a58f8031,66a626ef09d4e21e1a8894ec,673729bf81a9922c5bb089cd,2024-11-15_12h03.30.850,Tarea de género gramatical,2024.2.2,Win32,60.24096386,,,,,,,,,,,,,,,,,,,,,,,,678.4629,679.5893,l,1,[],[],[],[],[],[],[],0.4507,1,679.5895,680.0879,,,,,,1264,MAS,DIS,150,viento,la,l,0.4507,,680.088,680.0884,-0.055989583,0.4609375,0,0,0,,0,215,215,363,1,,,
,,,,,,9bd3b6297774f540a58f8031,66a626ef09d4e21e1a8894ec,673729bf81a9922c5bb089cd,2024-11-15_12h03.30.850,Tarea de género gramatical,2024.2.2,Win32,60.24096386,,,,,,,,,,,,,,,,,,,,,,,,680.0906,681.3846,a,1,[],[],[],[],[],[],[],0.6148,1,681.3848,681.8831,,,,,,1322,FEM,AGR,150,rutina,la,a,0.6148,,681.8832,681.8835,-0.055989583,0.4609375,0,0,0,,0,216,216,421,1,,,
,,,,,,9bd3b6297774f540a58f8031,66a626ef09d4e21e1a8894ec,673729bf81a9922c5bb089cd,2024-11-15_12h03.30.850,Tarea de género gramatical,2024.2.2,Win32,60.24096386,,,,,,,,,,,,,,,,,,,,,,,,681.8858,682.9638,l,1,[],[],[],[],[],[],[],0.3996,1,682.9639,683.4622,,,,,,1036,MAS,DIS,150,vago,la,l,0.3996,,683.4623,683.4626,-0.055989583,0.4609375,0,0,0,,0,217,217,135,1,,,
,,,,,,9bd3b6297774f540a58f8031,66a626ef09d4e21e1a8894ec,673729bf81a9922c5bb089cd,2024-11-15_12h03.30.850,Tarea de género gramatical,2024.2.2,Win32,60.24096386,,,,,,,,,,,,,,,,,,,,,,,,683.4648,684.6256,a,1,[],[],[],[],[],[],[],0.4855,1,684.6257,685.1244,,,,,,985,FEM,DIS,150,gira,el,a,0.4855,,685.1279,685.1295,-0.055989583,0.4609375,0,0,0,,0,218,218,84,1,,,
,,,,,,9bd3b6297774f540a58f8031,66a626ef09d4e21e1a8894ec,673729bf81a9922c5bb089cd,2024-11-15_12h03.30.850,Tarea de género gramatical,2024.2.2,Win32,60.24096386,,,,,,,,,,,,,,,,,,,,,,,,685.131,686.3945,l,1,[],[],[],[],[],[],[],0.5939,1,686.3947,686.8924,,,,,,1140,MAS,CON,150,ruido,,l,0.5939,,686.8925,686.8928,-0.055989583,0.4609375,0,0,0,,0,219,219,239,1,,,
,,,,,,9bd3b6297774f540a58f8031,66a626ef09d4e21e1a8894ec,673729bf81a9922c5bb089cd,2024-11-15_12h03.30.850,Tarea de género gramatical,2024.2.2,Win32,60.24096386,,,,,,,,,,,,,,,,,,,,,,,,686.895,688.1228,a,1,[],[],[],[],[],[],[],0.5491,1,688.123,688.6155,,,,,,961,FEM,DIS,150,ruta,el,a,0.5491,,688.6158,688.6163,-0.055989583,0.4609375,0,0,0,,0,220,220,60,1,,,
,,,,,,9bd3b6297774f540a58f8031,66a626ef09d4e21e1a8894ec,673729bf81a9922c5bb089cd,2024-11-15_12h03.30.850,Tarea de género gramatical,2024.2.2,Win32,60.24096386,,,,,,,,,,,,,,,,,,,,,,,,688.6188,689.719,l,1,[],[],[],[],[],[],[],0.4168,1,689.7191,690.2167,,,,,,1248,MAS,CON,150,anillo,,l,0.4168,,690.2168,690.2171,-0.055989583,0.4609375,0,0,0,,0,221,221,347,1,,,
,,,,,,9bd3b6297774f540a58f8031,66a626ef09d4e21e1a8894ec,673729bf81a9922c5bb089cd,2024-11-15_12h03.30.850,Tarea de género gramatical,2024.2.2,Win32,60.24096386,,,,,,,,,,,,,,,,,,,,,,,,690.2191,691.4478,a,1,[],[],[],[],[],[],[],0.5498,1,691.4479,691.9447,,,,,,1311,FEM,CON,150,actriz,,a,0.5498,,691.9474,691.9489,-0.055989583,0.4609375,0,0,0,,0,222,222,410,1,,,
,,,,,,9bd3b6297774f540a58f8031,66a626ef09d4e21e1a8894ec,673729bf81a9922c5bb089cd,2024-11-15_12h03.30.850,Tarea de género gramatical,2024.2.2,Win32,60.24096386,,,,,,,,,,,,,,,,,,,,,,,,691.9504,693.3357,a,1,[],[],[],[],[],[],[],0.7157,1,693.336,693.8346,,,,,,1231,FEM,DIS,150,cárcel,el,a,0.7157,,693.8346,693.8351,-0.055989583,0.4609375,0,0,0,,0,223,223,330,1,,,
,,,,,,9bd3b6297774f540a58f8031,66a626ef09d4e21e1a8894ec,673729bf81a9922c5bb089cd,2024-11-15_12h03.30.850,Tarea de género gramatical,2024.2.2,Win32,60.24096386,,,,,,,,,,,,,,,,,,,,,,,,693.8373,694.9814,l,1,[],[],[],[],[],[],[],0.4696,1,694.9817,695.4801,,,,,,1266,MAS,CON,150,riesgo,,l,0.4696,,695.4802,695.4806,-0.055989583,0.4609375,0,0,0,,0,224,224,365,1,,,
,,,,,,9bd3b6297774f540a58f8031,66a626ef09d4e21e1a8894ec,673729bf81a9922c5bb089cd,2024-11-15_12h03.30.850,Tarea de género gramatical,2024.2.2,Win32,60.24096386,,,,,,,,,,,,,,,,,,,,,,,,695.4828,696.6937,a,1,[],[],[],[],[],[],[],0.5372,1,696.6939,697.1922,,,,,,1082,FEM,AGR,150,prisa,la,a,0.5372,,697.1923,697.1927,-0.055989583,0.4609375,0,0,0,,0,225,225,181,1,,,
,,,,,,9bd3b6297774f540a58f8031,66a626ef09d4e21e1a8894ec,673729bf81a9922c5bb089cd,2024-11-15_12h03.30.850,Tarea de género gramatical,2024.2.2,Win32,60.24096386,,,,,,,,,,,,,,,,,,,,,,,,697.1948,698.4056,a,1,[],[],[],[],[],[],[],0.5351,1,698.4058,698.9042,,,,,,919,FEM,DIS,150,niña,el,a,0.5351,,698.9044,698.9047,-0.055989583,0.4609375,0,0,0,,0,226,226,18,1,,,
,,,,,,9bd3b6297774f540a58f8031,66a626ef09d4e21e1a8894ec,673729bf81a9922c5bb089cd,2024-11-15_12h03.30.850,Tarea de género gramatical,2024.2.2,Win32,60.24096386,,,,,,,,,,,,,,,,,,,,,,,,698.9068,700.018,l,1,[],[],[],[],[],[],[],0.4379,1,700.0182,700.5166,,,,,,906,MAS,CON,150,lado,,l,0.4379,,700.5193,700.5211,-0.055989583,0.4609375,0,0,0,,0,227,227,5,1,,,
,,,,,,9bd3b6297774f540a58f8031,66a626ef09d4e21e1a8894ec,673729bf81a9922c5bb089cd,2024-11-15_12h03.30.850,Tarea de género gramatical,2024.2.2,Win32,60.24096386,,,,,,,,,,,,,,,,,,,,,,,,700.5226,701.6968,a,1,[],[],[],[],[],[],[],0.4998,1,701.697,702.1954,,,,,,1125,FEM,CON,150,pieza,,a,0.4998,,702.1956,702.1958,-0.055989583,0.4609375,0,0,0,,0,228,228,224,1,,,
,,,,,,9bd3b6297774f540a58f8031,66a626ef09d4e21e1a8894ec,673729bf81a9922c5bb089cd,2024-11-15_12h03.30.850,Tarea de género gramatical,2024.2.2,Win32,60.24096386,,,,,,,,,,,,,,,,,,,,,,,,702.1983,703.226,a,1,[],[],[],[],[],[],[],0.3515,1,703.2262,703.7247,,,,,,1003,FEM,DIS,150,fama,el,a,0.3515,,703.7248,703.7253,-0.055989583,0.4609375,0,0,0,,0,229,229,102,1,,,
,,,,,,9bd3b6297774f540a58f8031,66a626ef09d4e21e1a8894ec,673729bf81a9922c5bb089cd,2024-11-15_12h03.30.850,Tarea de género gramatical,2024.2.2,Win32,60.24096386,,,,,,,,,,,,,,,,,,,,,,,,703.7277,704.7054,a,1,[],[],[],[],[],[],[],0.3009,1,704.7057,705.2042,,,,,,997,FEM,DIS,150,capa,el,a,0.3009,,705.2043,705.2047,-0.055989583,0.4609375,0,0,0,,0,230,230,96,1,,,
,,,,,,9bd3b6297774f540a58f8031,66a626ef09d4e21e1a8894ec,673729bf81a9922c5bb089cd,2024-11-15_12h03.30.850,Tarea de género gramatical,2024.2.2,Win32,60.24096386,,,,,,,,,,,,,,,,,,,,,,,,705.207,706.2845,l,1,[],[],[],[],[],[],[],0.4,1,706.2847,706.7832,,,,,,1278,MAS,CON,150,pastel,,l,0.4,,706.7862,706.788,-0.055989583,0.4609375,0,0,0,,0,231,231,377,1,,,
,,,,,,9bd3b6297774f540a58f8031,66a626ef09d4e21e1a8894ec,673729bf81a9922c5bb089cd,2024-11-15_12h03.30.850,Tarea de género gramatical,2024.2.2,Win32,60.24096386,,,,,,,,,,,,,,,,,,,,,,,,706.7895,708.2128,a,1,[],[],[],[],[],[],[],0.7491,1,708.213,708.7114,,,,,,1129,FEM,DIS,150,celda,el,a,0.7491,,708.7116,708.7118,-0.055989583,0.4609375,0,0,0,,0,232,232,228,1,,,
,,,,,,9bd3b6297774f540a58f8031,66a626ef09d4e21e1a8894ec,673729bf81a9922c5bb089cd,2024-11-15_12h03.30.850,Tarea de género gramatical,2024.2.2,Win32,60.24096386,,,,,,,,,,,,,,,,,,,,,,,,708.7144,709.8916,l,1,[],[],[],[],[],[],[],0.4997,1,709.8918,710.3903,,,,,,1163,MAS,AGR,150,carro,el,l,0.4997,,710.3904,710.3908,-0.055989583,0.4609375,0,0,0,,0,233,233,262,1,,,
,,,,,,9bd3b6297774f540a58f8031,66a626ef09d4e21e1a8894ec,673729bf81a9922c5bb089cd,2024-11-15_12h03.30.850,Tarea de género gramatical,2024.2.2,Win32,60.24096386,,,,,,,,,,,,,,,,,,,,,,,,710.393,711.4873,l,1,[],[],[],[],[],[],[],0.4162,1,711.4874,711.9861,,,,,,1182,MAS,CON,150,bolso,,l,0.4162,,711.9862,711.9866,-0.055989583,0.4609375,0,0,0,,0,234,234,281,1,,,
,,,,,,9bd3b6297774f540a58f8031,66a626ef09d4e21e1a8894ec,673729bf81a9922c5bb089cd,2024-11-15_12h03.30.850,Tarea de género gramatical,2024.2.2,Win32,60.24096386,,,,,,,,,,,,,,,,,,,,,,,,711.9895,713.083,a,1,[],[],[],[],[],[],[],0.4154,1,713.0832,713.5817,,,,,,1286,FEM,AGR,150,sombra,la,a,0.4154,,713.5818,713.5822,-0.055989583,0.4609375,0,0,0,,0,235,235,385,1,,,
,,,,,,9bd3b6297774f540a58f8031,66a626ef09d4e21e1a8894ec,673729bf81a9922c5bb089cd,2024-11-15_12h03.30.850,Tarea de género gramatical,2024.2.2,Win32,60.24096386,,,,,,,,,,,,,,,,,,,,,,,,713.5847,714.8617,l,1,[],[],[],[],[],[],[],0.5993,1,714.8619,715.3603,,,,,,989,MAS,AGR,150,maíz,el,l,0.5993,,715.3631,715.365,-0.055989583,0.4609375,0,0,0,,0,236,236,88,1,,,
,,,,,,9bd3b6297774f540a58f8031,66a626ef09d4e21e1a8894ec,673729bf81a9922c5bb089cd,2024-11-15_12h03.30.850,Tarea de género gramatical,2024.2.2,Win32,60.24096386,,,,,,,,,,,,,,,,,,,,,,,,715.3668,716.6305,l,1,[],[],[],[],[],[],[],0.5933,1,716.6307,717.1281,,,,,,1192,MAS,DIS,150,piano,la,l,0.5933,,717.1282,717.1286,-0.055989583,0.4609375,0,0,0,,0,237,237,291,1,,,
,,,,,,9bd3b6297774f540a58f8031,66a626ef09d4e21e1a8894ec,673729bf81a9922c5bb089cd,2024-11-15_12h03.30.850,Tarea de género gramatical,2024.2.2,Win32,60.24096386,,,,,,,,,,,,,,,,,,,,,,,,717.1308,718.3192,a,1,[],[],[],[],[],[],[],0.5078,1,718.3195,718.8178,,,,,,1155,FEM,CON,150,tribu,,a,0.5078,,718.818,718.8184,-0.055989583,0.4609375,0,0,0,,0,238,238,254,1,,,
,,,,,,9bd3b6297774f540a58f8031,66a626ef09d4e21e1a8894ec,673729bf81a9922c5bb089cd,2024-11-15_12h03.30.850,Tarea de género gramatical,2024.2.2,Win32,60.24096386,,,,,,,,,,,,,,,,,,,,,,,,718.8207,719.9881,l,1,[],[],[],[],[],[],[],0.4938,1,719.9884,720.486,,,,,,1306,MAS,DIS,150,premio,la,l,0.4938,,720.4861,720.4865,-0.055989583,0.4609375,0,0,0,,0,239,239,405,1,,,
,,,,,,9bd3b6297774f540a58f8031,66a626ef09d4e21e1a8894ec,673729bf81a9922c5bb089cd,2024-11-15_12h03.30.850,Tarea de género gramatical,2024.2.2,Win32,60.24096386,,,,,,,,,,,,,,,,,,,,,,,,720.4885,721.617,a,1,[],[],[],[],[],[],[],0.4497,1,721.6172,722.1142,,,,,,913,FEM,DIS,150,hija,el,a,0.4497,,722.117,722.1185,-0.055989583,0.4609375,0,0,0,,0,240,240,12,1,,,
,,,,,,9bd3b6297774f540a58f8031,66a626ef09d4e21e1a8894ec,673729bf81a9922c5bb089cd,2024-11-15_12h03.30.850,Tarea de género gramatical,2024.2.2,Win32,60.24096386,,,,,,,,,,,,,,,,,,,,,,,,722.1199,723.2392,l,1,[],[],[],[],[],[],[],0.4538,1,723.2395,723.7379,,,,,,1038,MAS,CON,150,luto,,l,0.4538,,723.7381,723.7384,-0.055989583,0.4609375,0,0,0,,0,241,241,137,1,,,
,,,,,,9bd3b6297774f540a58f8031,66a626ef09d4e21e1a8894ec,673729bf81a9922c5bb089cd,2024-11-15_12h03.30.850,Tarea de género gramatical,2024.2.2,Win32,60.24096386,,,,,,,,,,,,,,,,,,,,,,,,723.7405,724.8184,l,1,[],[],[],[],[],[],[],0.4019,1,724.8186,725.317,,,,,,905,MAS,AGR,150,tipo,el,l,0.4019,,725.317,725.3174,-0.055989583,0.4609375,0,0,0,,0,242,242,4,1,,,
,,,,,,9bd3b6297774f540a58f8031,66a626ef09d4e21e1a8894ec,673729bf81a9922c5bb089cd,2024-11-15_12h03.30.850,Tarea de género gramatical,2024.2.2,Win32,60.24096386,,,,,,,,,,,,,,,,,,,,,,,,725.3195,726.4473,a,1,[],[],[],[],[],[],[],0.4501,1,726.4475,726.946,,,,,,907,FEM,DIS,150,hora,el,a,0.4501,,726.9461,726.9464,-0.055989583,0.4609375,0,0,0,,0,243,243,6,1,,,
,,,,,,9bd3b6297774f540a58f8031,66a626ef09d4e21e1a8894ec,673729bf81a9922c5bb089cd,2024-11-15_12h03.30.850,Tarea de género gramatical,2024.2.2,Win32,60.24096386,,,,,,,,,,,,,,,,,,,,,,,,726.949,727.9762,a,1,[],[],[],[],[],[],[],0.3491,1,727.9764,728.4752,,,,,,1142,FEM,AGR,150,pizza,la,a,0.3491,,728.4753,728.4755,-0.055989583,0.4609375,0,0,0,,0,244,244,241,1,,,
,,,,,,9bd3b6297774f540a58f8031,66a626ef09d4e21e1a8894ec,673729bf81a9922c5bb089cd,2024-11-15_12h03.30.850,Tarea de género gramatical,2024.2.2,Win32,60.24096386,,,,,,,,,,,,,,,,,,,,,,,,728.4778,729.5885,a,1,[],[],[],[],[],[],[],0.433,1,729.5886,730.0876,,,,,,1088,FEM,AGR,150,bomba,la,a,0.433,,730.0916,730.0937,-0.055989583,0.4609375,0,0,0,,0,245,245,187,1,,,
,,,,,,9bd3b6297774f540a58f8031,66a626ef09d4e21e1a8894ec,673729bf81a9922c5bb089cd,2024-11-15_12h03.30.850,Tarea de género gramatical,2024.2.2,Win32,60.24096386,,,,,,,,,,,,,,,,,,,,,,,,730.0959,731.1848,l,1,[],[],[],[],[],[],[],0.4166,1,731.1849,731.6833,,,,,,1126,MAS,DIS,150,color,la,l,0.4166,,731.6834,731.6837,-0.055989583,0.4609375,0,0,0,,0,246,246,225,1,,,
,,,,,,9bd3b6297774f540a58f8031,66a626ef09d4e21e1a8894ec,673729bf81a9922c5bb089cd,2024-11-15_12h03.30.850,Tarea de género gramatical,2024.2.2,Win32,60.24096386,,,,,,,,,,,,,,,,,,,,,,,,731.687,732.8468,l,1,[],[],[],[],[],[],[],0.4831,1,732.8471,733.3452,,,,,,1210,MAS,DIS,150,nombre,la,l,0.4831,,733.3453,733.3455,-0.055989583,0.4609375,0,0,0,,0,247,247,309,1,,,
,,,,,,9bd3b6297774f540a58f8031,66a626ef09d4e21e1a8894ec,673729bf81a9922c5bb089cd,2024-11-15_12h03.30.850,Tarea de género gramatical,2024.2.2,Win32,60.24096386,,,,,,,,,,,,,,,,,,,,,,,,733.3471,734.5258,l,1,[],[],[],[],[],[],[],0.5043,1,734.526,735.0243,,,,,,1096,MAS,DIS,150,barco,la,l,0.5043,,735.0245,735.0249,-0.055989583,0.4609375,0,0,0,,0,248,248,195,1,,,
,,,,,,9bd3b6297774f540a58f8031,66a626ef09d4e21e1a8894ec,673729bf81a9922c5bb089cd,2024-11-15_12h03.30.850,Tarea de género gramatical,2024.2.2,Win32,60.24096386,,,,,,,,,,,,,,,,,,,,,,,,735.0268,736.0217,l,1,[],[],[],[],[],[],[],0.3249,1,736.0219,736.5204,,,,,,1338,MAS,CON,150,tanque,,l,0.3249,,736.5232,736.525,-0.055989583,0.4609375,0,0,0,,0,249,249,437,1,,,
,,,,,,9bd3b6297774f540a58f8031,66a626ef09d4e21e1a8894ec,673729bf81a9922c5bb089cd,2024-11-15_12h03.30.850,Tarea de género gramatical,2024.2.2,Win32,60.24096386,,,,,,,,,,,,,,,,,,,,,,,,736.527,737.6188,a,1,[],[],[],[],[],[],[],0.4227,1,737.6193,738.1162,,,,,,1315,FEM,DIS,150,cabina,el,a,0.4227,,738.1163,738.1167,-0.055989583,0.4609375,0,0,0,,0,250,250,414,1,,,
,,,,,,9bd3b6297774f540a58f8031,66a626ef09d4e21e1a8894ec,673729bf81a9922c5bb089cd,2024-11-15_12h03.30.850,Tarea de género gramatical,2024.2.2,Win32,60.24096386,,,,,,,,,,,,,,,,,,,,,,,,738.119,739.0968,a,1,[],[],[],[],[],[],[],0.3068,1,739.097,739.5955,,,,,,1226,FEM,AGR,150,música,la,a,0.3068,,739.5956,739.596,-0.055989583,0.4609375,0,0,0,,0,251,251,325,1,,,
