counterbalancing_condition,consent_prescreening.block_1/declare_consent,consent_prescreening.block_1/age_years,consent_prescreening.block_1/gender,consent_prescreening.block_1/language_disorder,consent_prescreening.block_1/first_language,PROLIFIC_PID,STUDY_ID,SESSION_ID,date,expName,psychopyVersion,OS,frameRate,check_prescreening_answers.started,check_prescreening_answers.stopped,Instructions.started,Instructions.stopped,instr_done_keyboard.keys,instr_done_touch.x,instr_done_touch.y,instr_done_touch.leftButton,instr_done_touch.midButton,instr_done_touch.rightButton,instr_done_touch.clicked_name,instruction_pages.thisRepN,instruction_pages.thisTrialN,instruction_pages.thisN,instruction_pages.thisIndex,instruction_pages.ran,pageN,phase,instruct_text,has_image,instruct_image,instr_done_keyboard.rt,instr_done_keyboard.duration,presentTrial.started,presentTrial.stopped,response.keys,response.corr,touch_resp.x,touch_resp.y,touch_resp.leftButton,touch_resp.midButton,touch_resp.rightButton,touch_resp.time,touch_resp.clicked_name,rt,corr,feedback.started,feedback.stopped,practice_trials.thisRepN,practice_trials.thisTrialN,practice_trials.thisN,practice_trials.thisIndex,practice_trials.ran,TrialID,StimulusType,Condition,PrimeDuration,Prime,Flanker,corrAns,response.rt,response.duration,Break.started,Break.stopped,break_done_touch.x,break_done_touch.y,break_done_touch.leftButton,break_done_touch.midButton,break_done_touch.rightButton,break_done_keyboard.keys,experiment_trials.thisRepN,experiment_trials.thisTrialN,experiment_trials.thisN,experiment_trials.thisIndex,experiment_trials.ran,break_done_keyboard.rt,break_done_keyboard.duration,End.started,End.stopped
1,"[""over_18"",""read_info"",""comfortable"",""consent_given""]",23,M,"[""none""]","[""spanish""]",9d37ce5577bc6491cad3f2aa,66a626ef09d4e21e1a8894ec,6734a00b4d25a03fa9cb8c41,2024-11-13_14h21.31.773,Tarea de género gramatical,2024.2.2,Win32,60.0240096,,,,,,,,,,,,,,,,,,,,,,,,,,,,,,,,,,,,,,,,,,,,,,,,,,,,,,,,,,,,,,,,,,,,,
,,,,,,9d37ce5577bc6491cad3f2aa,66a626ef09d4e21e1a8894ec,6734a00b4d25a03fa9cb8c41,2024-11-13_14h21.31.773,Tarea de género gramatical,2024.2.2,Win32,60.0240096,15.222,15.222,,,,,,,,,,,,,,,,,,,,,,,,,,,,,,,,,,,,,,,,,,,,,,,,,,,,,,,,,,,,,,,,,,,
,,,,,,9d37ce5577bc6491cad3f2aa,66a626ef09d4e21e1a8894ec,6734a00b4d25a03fa9cb8c41,2024-11-13_14h21.31.773,Tarea de género gramatical,2024.2.2,Win32,60.0240096,,,15.229,23.107,,0.081018519,-0.396990741,1,0,0,instr_done_button,0,0,0,0,1,1,instructions,"INSTRUCCIONES
Va a realizar una prueba de selección gramatical. Desde el comienzo de la prueba mire siempre al centro de la pantalla. Al cabo de un momento, aparecerán palabras. La tarea consiste en determinar si la palabra del centro (siempre será un sustantivo), pertenece al género masculino o femenino.

Pulse la tecla ESPACIO o toque el botón de abajo para continuar.",0,keyboardresponseMF.png,,,,,,,,,,,,,,,,,,,,,,,,,,,,,,,,,,,,,,,,,,,,,,,,
,,,,,,9d37ce5577bc6491cad3f2aa,66a626ef09d4e21e1a8894ec,6734a00b4d25a03fa9cb8c41,2024-11-13_14h21.31.773,Tarea de género gramatical,2024.2.2,Win32,60.0240096,,,23.108,27.955,space,0.655092593,0.06712963,0,0,0,,0,1,1,1,1,2,instructions,"Si su dispositivo tiene teclado, pulse la tecla ""A"" para las palabras en masculino (por ejemplo: ""arroz"") y la tecla ""L"" para las palabras en femenino (por ejemplo: ""mano"").
Pulse la tecla ESPACIO o toque el botón de abajo para continuar.",1,keyboardresponseMF.png,4.795,,,,,,,,,,,,,,,,,,,,,,,,,,,,,,,,,,,,,,,,,,,,,,,
,,,,,,9d37ce5577bc6491cad3f2aa,66a626ef09d4e21e1a8894ec,6734a00b4d25a03fa9cb8c41,2024-11-13_14h21.31.773,Tarea de género gramatical,2024.2.2,Win32,60.0240096,,,27.956,31.404,space,0.655092593,0.06712963,0,0,0,,0,2,2,2,1,3,instructions,"Si utiliza un dispositivo sólo táctil, colóquelo en horizontal y utilice los botones de la pantalla. No utilice el ratón.
Pulse la tecla ESPACIO o toque el botón de abajo para continuar.",2,touchresponseMF.png,3.414,,,,,,,,,,,,,,,,,,,,,,,,,,,,,,,,,,,,,,,,,,,,,,,
,,,,,,9d37ce5577bc6491cad3f2aa,66a626ef09d4e21e1a8894ec,6734a00b4d25a03fa9cb8c41,2024-11-13_14h21.31.773,Tarea de género gramatical,2024.2.2,Win32,60.0240096,,,31.405,36.668,space,0.655092593,0.06712963,0,0,0,,0,3,3,3,1,4,instructions,"Es muy importante que responda con la mayor rapidez y precisión posibles, ya que cada cadena de letras sólo estará en pantalla durante un instante. Si no responde en ese tiempo, aparecerá el mensaje ""Muy lento"" y el experimento pasará a la siguiente palabra. Los primeros 15 intentos serán de práctica y habrá dos descansos durante la prueba.
Pulse la tecla ESPACIO o toque el botón de abajo para iniciar la parte de práctica.",0,keyboardresponseMF.png,5.243,,,,,,,,,,,,,,,,,,,,,,,,,,,,,,,,,,,,,,,,,,,,,,,
,,,,,,9d37ce5577bc6491cad3f2aa,66a626ef09d4e21e1a8894ec,6734a00b4d25a03fa9cb8c41,2024-11-13_14h21.31.773,Tarea de género gramatical,2024.2.2,Win32,60.0240096,,,,,,,,,,,,,,,,,,,,,,,,36.677,39.317,,0,[],[],[],[],[],[],[],,-1,39.318,39.817,0,0,0,1,1,2002,FEM,CON,150,pala,,a,,,,,,,,,,,,,,,,,,,
,,,,,,9d37ce5577bc6491cad3f2aa,66a626ef09d4e21e1a8894ec,6734a00b4d25a03fa9cb8c41,2024-11-13_14h21.31.773,Tarea de género gramatical,2024.2.2,Win32,60.0240096,,,,,,,,,,,,,,,,,,,,,,,,39.818,41.483,a,1,[],[],[],[],[],[],[],0.988,1,41.486,41.983,0,1,1,9,1,2010,MAS,AGR,150,vecino,el,l,0.988,,,,,,,,,,,,,,,,,,
,,,,,,9d37ce5577bc6491cad3f2aa,66a626ef09d4e21e1a8894ec,6734a00b4d25a03fa9cb8c41,2024-11-13_14h21.31.773,Tarea de género gramatical,2024.2.2,Win32,60.0240096,,,,,,,,,,,,,,,,,,,,,,,,41.985,43.233,l,1,[],[],[],[],[],[],[],0.571,1,43.233,43.733,0,2,2,6,1,2007,FEM,AGR,150,navaja,la,a,0.571,,,,,,,,,,,,,,,,,,
,,,,,,9d37ce5577bc6491cad3f2aa,66a626ef09d4e21e1a8894ec,6734a00b4d25a03fa9cb8c41,2024-11-13_14h21.31.773,Tarea de género gramatical,2024.2.2,Win32,60.0240096,,,,,,,,,,,,,,,,,,,,,,,,43.734,44.916,l,1,[],[],[],[],[],[],[],0.508,1,44.916,45.416,0,3,3,4,1,2005,FEM,CON,150,placa,,a,0.508,,,,,,,,,,,,,,,,,,
,,,,,,9d37ce5577bc6491cad3f2aa,66a626ef09d4e21e1a8894ec,6734a00b4d25a03fa9cb8c41,2024-11-13_14h21.31.773,Tarea de género gramatical,2024.2.2,Win32,60.0240096,,,,,,,,,,,,,,,,,,,,,,,,45.417,46.516,l,1,[],[],[],[],[],[],[],0.425,1,46.516,47.015,0,4,4,7,1,2008,FEM,CON,150,siesta,,a,0.425,,,,,,,,,,,,,,,,,,
,,,,,,9d37ce5577bc6491cad3f2aa,66a626ef09d4e21e1a8894ec,6734a00b4d25a03fa9cb8c41,2024-11-13_14h21.31.773,Tarea de género gramatical,2024.2.2,Win32,60.0240096,,,,,,,,,,,,,,,,,,,,,,,,47.015,48.165,l,1,[],[],[],[],[],[],[],0.47,1,48.165,48.665,0,5,5,3,1,2004,FEM,AGR,150,venta,la,a,0.47,,,,,,,,,,,,,,,,,,
,,,,,,9d37ce5577bc6491cad3f2aa,66a626ef09d4e21e1a8894ec,6734a00b4d25a03fa9cb8c41,2024-11-13_14h21.31.773,Tarea de género gramatical,2024.2.2,Win32,60.0240096,,,,,,,,,,,,,,,,,,,,,,,,48.667,49.664,l,1,[],[],[],[],[],[],[],0.317,1,49.665,50.165,0,6,6,0,1,2001,FEM,AGR,150,nuca,la,a,0.317,,,,,,,,,,,,,,,,,,
,,,,,,9d37ce5577bc6491cad3f2aa,66a626ef09d4e21e1a8894ec,6734a00b4d25a03fa9cb8c41,2024-11-13_14h21.31.773,Tarea de género gramatical,2024.2.2,Win32,60.0240096,,,,,,,,,,,,,,,,,,,,,,,,50.165,51.281,a,0,[],[],[],[],[],[],[],0.437,0,51.281,51.78,0,7,7,5,1,2006,FEM,DIS,150,serie,el,a,0.437,,,,,,,,,,,,,,,,,,
,,,,,,9d37ce5577bc6491cad3f2aa,66a626ef09d4e21e1a8894ec,6734a00b4d25a03fa9cb8c41,2024-11-13_14h21.31.773,Tarea de género gramatical,2024.2.2,Win32,60.0240096,,,,,,,,,,,,,,,,,,,,,,,,51.781,52.963,l,1,[],[],[],[],[],[],[],0.501,1,52.964,53.463,0,8,8,2,1,2003,FEM,DIS,150,daga,el,a,0.501,,,,,,,,,,,,,,,,,,
,,,,,,9d37ce5577bc6491cad3f2aa,66a626ef09d4e21e1a8894ec,6734a00b4d25a03fa9cb8c41,2024-11-13_14h21.31.773,Tarea de género gramatical,2024.2.2,Win32,60.0240096,,,,,,,,,,,,,,,,,,,,,,,,53.464,54.812,l,0,[],[],[],[],[],[],[],0.671,0,54.813,55.312,0,9,9,11,1,2012,MAS,DIS,150,clima,la,l,0.671,,,,,,,,,,,,,,,,,,
,,,,,,9d37ce5577bc6491cad3f2aa,66a626ef09d4e21e1a8894ec,6734a00b4d25a03fa9cb8c41,2024-11-13_14h21.31.773,Tarea de género gramatical,2024.2.2,Win32,60.0240096,,,,,,,,,,,,,,,,,,,,,,,,55.313,56.812,a,1,[],[],[],[],[],[],[],0.833,1,56.813,57.312,0,10,10,12,1,2013,MAS,AGR,150,acero,el,l,0.833,,,,,,,,,,,,,,,,,,
,,,,,,9d37ce5577bc6491cad3f2aa,66a626ef09d4e21e1a8894ec,6734a00b4d25a03fa9cb8c41,2024-11-13_14h21.31.773,Tarea de género gramatical,2024.2.2,Win32,60.0240096,,,,,,,,,,,,,,,,,,,,,,,,57.313,58.695,l,0,[],[],[],[],[],[],[],0.725,0,58.695,59.195,0,11,11,10,1,2011,MAS,CON,150,canal,,l,0.725,,,,,,,,,,,,,,,,,,
,,,,,,9d37ce5577bc6491cad3f2aa,66a626ef09d4e21e1a8894ec,6734a00b4d25a03fa9cb8c41,2024-11-13_14h21.31.773,Tarea de género gramatical,2024.2.2,Win32,60.0240096,,,,,,,,,,,,,,,,,,,,,,,,59.195,60.478,a,1,[],[],[],[],[],[],[],0.6,1,60.478,60.977,0,12,12,8,1,2009,MAS,DIS,150,puerto,la,l,0.6,,,,,,,,,,,,,,,,,,
,,,,,,9d37ce5577bc6491cad3f2aa,66a626ef09d4e21e1a8894ec,6734a00b4d25a03fa9cb8c41,2024-11-13_14h21.31.773,Tarea de género gramatical,2024.2.2,Win32,60.0240096,,,,,,,,,,,,,,,,,,,,,,,,60.978,61.977,a,1,[],[],[],[],[],[],[],0.325,1,61.977,62.477,0,13,13,14,1,2015,MAS,DIS,150,robot,la,l,0.325,,,,,,,,,,,,,,,,,,
,,,,,,9d37ce5577bc6491cad3f2aa,66a626ef09d4e21e1a8894ec,6734a00b4d25a03fa9cb8c41,2024-11-13_14h21.31.773,Tarea de género gramatical,2024.2.2,Win32,60.0240096,,,,,,,,,,,,,,,,,,,,,,,,62.477,63.843,l,0,[],[],[],[],[],[],[],0.689,0,63.844,64.343,0,14,14,13,1,2014,MAS,CON,150,siglo,,l,0.689,,,,,,,,,,,,,,,,,,
,,,,,,9d37ce5577bc6491cad3f2aa,66a626ef09d4e21e1a8894ec,6734a00b4d25a03fa9cb8c41,2024-11-13_14h21.31.773,Tarea de género gramatical,2024.2.2,Win32,60.0240096,,,67.443,70.708,space,0.655092593,0.06712963,0,0,0,,,,,,,,,,,,3.25,,70.729,71.89,a,0,[],[],[],[],[],[],[],0.491,0,71.891,72.39,,,,,,757,FEM,CON,150,suerte,,a,0.491,,72.391,72.392,0.655092593,0.06712963,0,0,0,,0,0,0,306,1,,,,
,,,,,,9d37ce5577bc6491cad3f2aa,66a626ef09d4e21e1a8894ec,6734a00b4d25a03fa9cb8c41,2024-11-13_14h21.31.773,Tarea de género gramatical,2024.2.2,Win32,60.0240096,,,,,,,,,,,,,,,,,,,,,,,,72.393,73.706,l,1,[],[],[],[],[],[],[],0.635,1,73.707,74.207,,,,,,813,FEM,AGR,150,unidad,la,a,0.635,,74.207,74.207,0.655092593,0.06712963,0,0,0,,0,1,1,362,1,,,,
,,,,,,9d37ce5577bc6491cad3f2aa,66a626ef09d4e21e1a8894ec,6734a00b4d25a03fa9cb8c41,2024-11-13_14h21.31.773,Tarea de género gramatical,2024.2.2,Win32,60.0240096,,,,,,,,,,,,,,,,,,,,,,,,74.208,75.373,a,0,[],[],[],[],[],[],[],0.486,0,75.373,75.873,,,,,,800,FEM,DIS,150,imagen,el,a,0.486,,75.874,75.875,0.655092593,0.06712963,0,0,0,,0,2,2,349,1,,,,
,,,,,,9d37ce5577bc6491cad3f2aa,66a626ef09d4e21e1a8894ec,6734a00b4d25a03fa9cb8c41,2024-11-13_14h21.31.773,Tarea de género gramatical,2024.2.2,Win32,60.0240096,,,,,,,,,,,,,,,,,,,,,,,,75.875,77.189,a,1,[],[],[],[],[],[],[],0.633,1,77.189,77.689,,,,,,725,MAS,DIS,150,disco,la,l,0.633,,77.689,77.689,0.655092593,0.06712963,0,0,0,,0,3,3,274,1,,,,
,,,,,,9d37ce5577bc6491cad3f2aa,66a626ef09d4e21e1a8894ec,6734a00b4d25a03fa9cb8c41,2024-11-13_14h21.31.773,Tarea de género gramatical,2024.2.2,Win32,60.0240096,,,,,,,,,,,,,,,,,,,,,,,,77.689,78.838,a,1,[],[],[],[],[],[],[],0.466,1,78.839,79.342,,,,,,718,MAS,CON,150,truco,,l,0.466,,79.342,79.342,0.655092593,0.06712963,0,0,0,,0,4,4,267,1,,,,
,,,,,,9d37ce5577bc6491cad3f2aa,66a626ef09d4e21e1a8894ec,6734a00b4d25a03fa9cb8c41,2024-11-13_14h21.31.773,Tarea de género gramatical,2024.2.2,Win32,60.0240096,,,,,,,,,,,,,,,,,,,,,,,,79.342,80.404,l,1,[],[],[],[],[],[],[],0.385,1,80.404,80.904,,,,,,651,FEM,AGR,150,leche,la,a,0.385,,80.904,80.904,0.655092593,0.06712963,0,0,0,,0,5,5,200,1,,,,
,,,,,,9d37ce5577bc6491cad3f2aa,66a626ef09d4e21e1a8894ec,6734a00b4d25a03fa9cb8c41,2024-11-13_14h21.31.773,Tarea de género gramatical,2024.2.2,Win32,60.0240096,,,,,,,,,,,,,,,,,,,,,,,,80.905,82.072,a,1,[],[],[],[],[],[],[],0.483,1,82.072,82.57,,,,,,522,MAS,AGR,150,hoyo,el,l,0.483,,82.572,82.574,0.655092593,0.06712963,0,0,0,,0,6,6,71,1,,,,
,,,,,,9d37ce5577bc6491cad3f2aa,66a626ef09d4e21e1a8894ec,6734a00b4d25a03fa9cb8c41,2024-11-13_14h21.31.773,Tarea de género gramatical,2024.2.2,Win32,60.0240096,,,,,,,,,,,,,,,,,,,,,,,,82.575,83.97,l,1,[],[],[],[],[],[],[],0.715,1,83.97,84.47,,,,,,531,FEM,AGR,150,cima,la,a,0.715,,84.47,84.47,0.655092593,0.06712963,0,0,0,,0,7,7,80,1,,,,
,,,,,,9d37ce5577bc6491cad3f2aa,66a626ef09d4e21e1a8894ec,6734a00b4d25a03fa9cb8c41,2024-11-13_14h21.31.773,Tarea de género gramatical,2024.2.2,Win32,60.0240096,,,,,,,,,,,,,,,,,,,,,,,,84.471,85.553,l,1,[],[],[],[],[],[],[],0.401,1,85.554,86.053,,,,,,453,FEM,AGR,150,cosa,la,a,0.401,,86.053,86.053,0.655092593,0.06712963,0,0,0,,0,8,8,2,1,,,,
,,,,,,9d37ce5577bc6491cad3f2aa,66a626ef09d4e21e1a8894ec,6734a00b4d25a03fa9cb8c41,2024-11-13_14h21.31.773,Tarea de género gramatical,2024.2.2,Win32,60.0240096,,,,,,,,,,,,,,,,,,,,,,,,86.054,87.152,l,1,[],[],[],[],[],[],[],0.442,1,87.153,87.652,,,,,,693,FEM,AGR,150,salsa,la,a,0.442,,87.652,87.652,0.655092593,0.06712963,0,0,0,,0,9,9,242,1,,,,
,,,,,,9d37ce5577bc6491cad3f2aa,66a626ef09d4e21e1a8894ec,6734a00b4d25a03fa9cb8c41,2024-11-13_14h21.31.773,Tarea de género gramatical,2024.2.2,Win32,60.0240096,,,,,,,,,,,,,,,,,,,,,,,,87.653,88.852,a,1,[],[],[],[],[],[],[],0.517,1,88.852,89.352,,,,,,646,MAS,CON,150,barco,,l,0.517,,89.352,89.352,0.655092593,0.06712963,0,0,0,,0,10,10,195,1,,,,
,,,,,,9d37ce5577bc6491cad3f2aa,66a626ef09d4e21e1a8894ec,6734a00b4d25a03fa9cb8c41,2024-11-13_14h21.31.773,Tarea de género gramatical,2024.2.2,Win32,60.0240096,,,,,,,,,,,,,,,,,,,,,,,,89.353,90.568,l,1,[],[],[],[],[],[],[],0.534,1,90.568,91.068,,,,,,703,FEM,CON,150,aldea,,a,0.534,,91.069,91.07,0.655092593,0.06712963,0,0,0,,0,11,11,252,1,,,,
,,,,,,9d37ce5577bc6491cad3f2aa,66a626ef09d4e21e1a8894ec,6734a00b4d25a03fa9cb8c41,2024-11-13_14h21.31.773,Tarea de género gramatical,2024.2.2,Win32,60.0240096,,,,,,,,,,,,,,,,,,,,,,,,91.07,92.301,a,1,[],[],[],[],[],[],[],0.553,1,92.301,92.801,,,,,,544,MAS,CON,150,cabo,,l,0.553,,92.801,92.801,0.655092593,0.06712963,0,0,0,,0,12,12,93,1,,,,
,,,,,,9d37ce5577bc6491cad3f2aa,66a626ef09d4e21e1a8894ec,6734a00b4d25a03fa9cb8c41,2024-11-13_14h21.31.773,Tarea de género gramatical,2024.2.2,Win32,60.0240096,,,,,,,,,,,,,,,,,,,,,,,,92.802,93.867,l,1,[],[],[],[],[],[],[],0.383,1,93.867,94.367,,,,,,715,FEM,CON,150,rueda,,a,0.383,,94.367,94.367,0.655092593,0.06712963,0,0,0,,0,13,13,264,1,,,,
,,,,,,9d37ce5577bc6491cad3f2aa,66a626ef09d4e21e1a8894ec,6734a00b4d25a03fa9cb8c41,2024-11-13_14h21.31.773,Tarea de género gramatical,2024.2.2,Win32,60.0240096,,,,,,,,,,,,,,,,,,,,,,,,94.368,95.517,a,1,[],[],[],[],[],[],[],0.466,1,95.517,96.016,,,,,,736,MAS,CON,150,reino,,l,0.466,,96.017,96.017,0.655092593,0.06712963,0,0,0,,0,14,14,285,1,,,,
,,,,,,9d37ce5577bc6491cad3f2aa,66a626ef09d4e21e1a8894ec,6734a00b4d25a03fa9cb8c41,2024-11-13_14h21.31.773,Tarea de género gramatical,2024.2.2,Win32,60.0240096,,,,,,,,,,,,,,,,,,,,,,,,96.017,97.116,l,1,[],[],[],[],[],[],[],0.42,1,97.116,97.615,,,,,,866,FEM,DIS,150,colina,el,a,0.42,,97.616,97.616,0.655092593,0.06712963,0,0,0,,0,15,15,415,1,,,,
,,,,,,9d37ce5577bc6491cad3f2aa,66a626ef09d4e21e1a8894ec,6734a00b4d25a03fa9cb8c41,2024-11-13_14h21.31.773,Tarea de género gramatical,2024.2.2,Win32,60.0240096,,,,,,,,,,,,,,,,,,,,,,,,97.617,98.666,l,1,[],[],[],[],[],[],[],0.367,1,98.666,99.165,,,,,,819,FEM,AGR,150,camisa,la,a,0.367,,99.165,99.165,0.655092593,0.06712963,0,0,0,,0,16,16,368,1,,,,
,,,,,,9d37ce5577bc6491cad3f2aa,66a626ef09d4e21e1a8894ec,6734a00b4d25a03fa9cb8c41,2024-11-13_14h21.31.773,Tarea de género gramatical,2024.2.2,Win32,60.0240096,,,,,,,,,,,,,,,,,,,,,,,,99.166,100.331,a,1,[],[],[],[],[],[],[],0.491,1,100.331,100.831,,,,,,690,MAS,AGR,150,ruido,el,l,0.491,,100.831,100.831,0.655092593,0.06712963,0,0,0,,0,17,17,239,1,,,,
,,,,,,9d37ce5577bc6491cad3f2aa,66a626ef09d4e21e1a8894ec,6734a00b4d25a03fa9cb8c41,2024-11-13_14h21.31.773,Tarea de género gramatical,2024.2.2,Win32,60.0240096,,,,,,,,,,,,,,,,,,,,,,,,100.832,101.88,l,1,[],[],[],[],[],[],[],0.388,1,101.88,102.381,,,,,,493,FEM,CON,150,nena,,a,0.388,,102.381,102.381,0.655092593,0.06712963,0,0,0,,0,18,18,42,1,,,,
,,,,,,9d37ce5577bc6491cad3f2aa,66a626ef09d4e21e1a8894ec,6734a00b4d25a03fa9cb8c41,2024-11-13_14h21.31.773,Tarea de género gramatical,2024.2.2,Win32,60.0240096,,,,,,,,,,,,,,,,,,,,,,,,102.382,103.363,a,1,[],[],[],[],[],[],[],0.325,1,103.364,103.864,,,,,,672,MAS,AGR,150,valor,el,l,0.325,,103.864,103.864,0.655092593,0.06712963,0,0,0,,0,19,19,221,1,,,,
,,,,,,9d37ce5577bc6491cad3f2aa,66a626ef09d4e21e1a8894ec,6734a00b4d25a03fa9cb8c41,2024-11-13_14h21.31.773,Tarea de género gramatical,2024.2.2,Win32,60.0240096,,,,,,,,,,,,,,,,,,,,,,,,103.865,104.88,a,0,[],[],[],[],[],[],[],0.339,0,104.881,105.38,,,,,,529,FEM,CON,150,mina,,a,0.339,,105.38,105.381,0.655092593,0.06712963,0,0,0,,0,20,20,78,1,,,,
,,,,,,9d37ce5577bc6491cad3f2aa,66a626ef09d4e21e1a8894ec,6734a00b4d25a03fa9cb8c41,2024-11-13_14h21.31.773,Tarea de género gramatical,2024.2.2,Win32,60.0240096,,,,,,,,,,,,,,,,,,,,,,,,105.382,106.496,a,0,[],[],[],[],[],[],[],0.432,0,106.496,106.997,,,,,,897,FEM,AGR,150,lógica,la,a,0.432,,106.997,106.997,0.655092593,0.06712963,0,0,0,,0,21,21,446,1,,,,
,,,,,,9d37ce5577bc6491cad3f2aa,66a626ef09d4e21e1a8894ec,6734a00b4d25a03fa9cb8c41,2024-11-13_14h21.31.773,Tarea de género gramatical,2024.2.2,Win32,60.0240096,,,,,,,,,,,,,,,,,,,,,,,,106.997,108.229,l,1,[],[],[],[],[],[],[],0.558,1,108.229,108.729,,,,,,626,FEM,DIS,150,línea,el,a,0.558,,108.729,108.729,0.655092593,0.06712963,0,0,0,,0,22,22,175,1,,,,
,,,,,,9d37ce5577bc6491cad3f2aa,66a626ef09d4e21e1a8894ec,6734a00b4d25a03fa9cb8c41,2024-11-13_14h21.31.773,Tarea de género gramatical,2024.2.2,Win32,60.0240096,,,,,,,,,,,,,,,,,,,,,,,,108.73,109.846,l,1,[],[],[],[],[],[],[],0.451,1,109.846,110.345,,,,,,638,FEM,DIS,150,bomba,el,a,0.451,,110.345,110.345,0.655092593,0.06712963,0,0,0,,0,23,23,187,1,,,,
,,,,,,9d37ce5577bc6491cad3f2aa,66a626ef09d4e21e1a8894ec,6734a00b4d25a03fa9cb8c41,2024-11-13_14h21.31.773,Tarea de género gramatical,2024.2.2,Win32,60.0240096,,,,,,,,,,,,,,,,,,,,,,,,110.346,111.345,l,0,[],[],[],[],[],[],[],0.341,0,111.346,111.844,,,,,,594,MAS,AGR,150,amor,el,l,0.341,,111.845,111.846,0.655092593,0.06712963,0,0,0,,0,24,24,143,1,,,,
,,,,,,9d37ce5577bc6491cad3f2aa,66a626ef09d4e21e1a8894ec,6734a00b4d25a03fa9cb8c41,2024-11-13_14h21.31.773,Tarea de género gramatical,2024.2.2,Win32,60.0240096,,,,,,,,,,,,,,,,,,,,,,,,111.847,112.877,l,1,[],[],[],[],[],[],[],0.355,1,112.878,113.377,,,,,,674,FEM,DIS,150,arena,el,a,0.355,,113.377,113.377,0.655092593,0.06712963,0,0,0,,0,25,25,223,1,,,,
,,,,,,9d37ce5577bc6491cad3f2aa,66a626ef09d4e21e1a8894ec,6734a00b4d25a03fa9cb8c41,2024-11-13_14h21.31.773,Tarea de género gramatical,2024.2.2,Win32,60.0240096,,,,,,,,,,,,,,,,,,,,,,,,113.378,114.344,l,1,[],[],[],[],[],[],[],0.305,1,114.344,114.844,,,,,,518,FEM,DIS,150,pata,el,a,0.305,,114.844,114.844,0.655092593,0.06712963,0,0,0,,0,26,26,67,1,,,,
,,,,,,9d37ce5577bc6491cad3f2aa,66a626ef09d4e21e1a8894ec,6734a00b4d25a03fa9cb8c41,2024-11-13_14h21.31.773,Tarea de género gramatical,2024.2.2,Win32,60.0240096,,,,,,,,,,,,,,,,,,,,,,,,114.844,116.143,a,1,[],[],[],[],[],[],[],0.619,1,116.144,116.643,,,,,,539,MAS,DIS,150,maíz,la,l,0.619,,116.644,116.644,0.655092593,0.06712963,0,0,0,,0,27,27,88,1,,,,
,,,,,,9d37ce5577bc6491cad3f2aa,66a626ef09d4e21e1a8894ec,6734a00b4d25a03fa9cb8c41,2024-11-13_14h21.31.773,Tarea de género gramatical,2024.2.2,Win32,60.0240096,,,,,,,,,,,,,,,,,,,,,,,,116.646,117.776,l,1,[],[],[],[],[],[],[],0.45,1,117.776,118.276,,,,,,861,FEM,AGR,150,actriz,la,a,0.45,,118.276,118.276,0.655092593,0.06712963,0,0,0,,0,28,28,410,1,,,,
,,,,,,9d37ce5577bc6491cad3f2aa,66a626ef09d4e21e1a8894ec,6734a00b4d25a03fa9cb8c41,2024-11-13_14h21.31.773,Tarea de género gramatical,2024.2.2,Win32,60.0240096,,,,,,,,,,,,,,,,,,,,,,,,118.276,119.258,l,1,[],[],[],[],[],[],[],0.304,1,119.258,119.759,,,,,,697,FEM,CON,150,frase,,a,0.304,,119.76,119.761,0.655092593,0.06712963,0,0,0,,0,29,29,246,1,,,,
,,,,,,9d37ce5577bc6491cad3f2aa,66a626ef09d4e21e1a8894ec,6734a00b4d25a03fa9cb8c41,2024-11-13_14h21.31.773,Tarea de género gramatical,2024.2.2,Win32,60.0240096,,,,,,,,,,,,,,,,,,,,,,,,119.762,120.809,a,1,[],[],[],[],[],[],[],0.371,1,120.809,121.308,,,,,,700,MAS,CON,150,cerdo,,l,0.371,,121.308,121.308,0.655092593,0.06712963,0,0,0,,0,30,30,249,1,,,,
,,,,,,9d37ce5577bc6491cad3f2aa,66a626ef09d4e21e1a8894ec,6734a00b4d25a03fa9cb8c41,2024-11-13_14h21.31.773,Tarea de género gramatical,2024.2.2,Win32,60.0240096,,,,,,,,,,,,,,,,,,,,,,,,121.309,122.441,l,0,[],[],[],[],[],[],[],0.466,0,122.442,122.941,,,,,,616,MAS,CON,150,coche,,l,0.466,,122.941,122.941,0.655092593,0.06712963,0,0,0,,0,31,31,165,1,,,,
,,,,,,9d37ce5577bc6491cad3f2aa,66a626ef09d4e21e1a8894ec,6734a00b4d25a03fa9cb8c41,2024-11-13_14h21.31.773,Tarea de género gramatical,2024.2.2,Win32,60.0240096,,,,,,,,,,,,,,,,,,,,,,,,122.942,123.941,l,0,[],[],[],[],[],[],[],0.317,0,123.941,124.441,,,,,,706,MAS,CON,150,techo,,l,0.317,,124.441,124.441,0.655092593,0.06712963,0,0,0,,0,32,32,255,1,,,,
,,,,,,9d37ce5577bc6491cad3f2aa,66a626ef09d4e21e1a8894ec,6734a00b4d25a03fa9cb8c41,2024-11-13_14h21.31.773,Tarea de género gramatical,2024.2.2,Win32,60.0240096,,,,,,,,,,,,,,,,,,,,,,,,124.442,125.541,l,1,[],[],[],[],[],[],[],0.435,1,125.541,126.04,,,,,,891,FEM,AGR,150,medida,la,a,0.435,,126.041,126.042,0.655092593,0.06712963,0,0,0,,0,33,33,440,1,,,,
,,,,,,9d37ce5577bc6491cad3f2aa,66a626ef09d4e21e1a8894ec,6734a00b4d25a03fa9cb8c41,2024-11-13_14h21.31.773,Tarea de género gramatical,2024.2.2,Win32,60.0240096,,,,,,,,,,,,,,,,,,,,,,,,126.043,127.023,l,1,[],[],[],[],[],[],[],0.299,1,127.023,127.522,,,,,,854,FEM,DIS,150,gloria,el,a,0.299,,127.522,127.522,0.655092593,0.06712963,0,0,0,,0,34,34,403,1,,,,
,,,,,,9d37ce5577bc6491cad3f2aa,66a626ef09d4e21e1a8894ec,6734a00b4d25a03fa9cb8c41,2024-11-13_14h21.31.773,Tarea de género gramatical,2024.2.2,Win32,60.0240096,,,,,,,,,,,,,,,,,,,,,,,,127.523,128.556,a,1,[],[],[],[],[],[],[],0.351,1,128.556,129.055,,,,,,731,MAS,DIS,150,actor,la,l,0.351,,129.055,129.055,0.655092593,0.06712963,0,0,0,,0,35,35,280,1,,,,
,,,,,,9d37ce5577bc6491cad3f2aa,66a626ef09d4e21e1a8894ec,6734a00b4d25a03fa9cb8c41,2024-11-13_14h21.31.773,Tarea de género gramatical,2024.2.2,Win32,60.0240096,,,,,,,,,,,,,,,,,,,,,,,,129.056,130.122,l,1,[],[],[],[],[],[],[],0.401,1,130.122,130.622,,,,,,787,FEM,CON,150,escena,,a,0.401,,130.622,130.622,0.655092593,0.06712963,0,0,0,,0,36,36,336,1,,,,
,,,,,,9d37ce5577bc6491cad3f2aa,66a626ef09d4e21e1a8894ec,6734a00b4d25a03fa9cb8c41,2024-11-13_14h21.31.773,Tarea de género gramatical,2024.2.2,Win32,60.0240096,,,,,,,,,,,,,,,,,,,,,,,,130.623,132.004,l,1,[],[],[],[],[],[],[],0.7,1,132.004,132.505,,,,,,457,FEM,CON,150,hora,,a,0.7,,132.505,132.505,0.655092593,0.06712963,0,0,0,,0,37,37,6,1,,,,
,,,,,,9d37ce5577bc6491cad3f2aa,66a626ef09d4e21e1a8894ec,6734a00b4d25a03fa9cb8c41,2024-11-13_14h21.31.773,Tarea de género gramatical,2024.2.2,Win32,60.0240096,,,,,,,,,,,,,,,,,,,,,,,,132.506,133.47,a,1,[],[],[],[],[],[],[],0.286,1,133.471,133.971,,,,,,665,MAS,DIS,150,hueso,la,l,0.286,,133.971,133.972,0.655092593,0.06712963,0,0,0,,0,38,38,214,1,,,,
,,,,,,9d37ce5577bc6491cad3f2aa,66a626ef09d4e21e1a8894ec,6734a00b4d25a03fa9cb8c41,2024-11-13_14h21.31.773,Tarea de género gramatical,2024.2.2,Win32,60.0240096,,,,,,,,,,,,,,,,,,,,,,,,133.973,135.003,l,1,[],[],[],[],[],[],[],0.35,1,135.003,135.504,,,,,,633,FEM,AGR,150,llave,la,a,0.35,,135.504,135.505,0.655092593,0.06712963,0,0,0,,0,39,39,182,1,,,,
,,,,,,9d37ce5577bc6491cad3f2aa,66a626ef09d4e21e1a8894ec,6734a00b4d25a03fa9cb8c41,2024-11-13_14h21.31.773,Tarea de género gramatical,2024.2.2,Win32,60.0240096,,,,,,,,,,,,,,,,,,,,,,,,135.506,136.77,a,0,[],[],[],[],[],[],[],0.587,0,136.77,137.27,,,,,,632,FEM,DIS,150,prisa,el,a,0.587,,137.27,137.27,0.655092593,0.06712963,0,0,0,,0,40,40,181,1,,,,
,,,,,,9d37ce5577bc6491cad3f2aa,66a626ef09d4e21e1a8894ec,6734a00b4d25a03fa9cb8c41,2024-11-13_14h21.31.773,Tarea de género gramatical,2024.2.2,Win32,60.0240096,,,,,,,,,,,,,,,,,,,,,,,,137.271,138.303,a,1,[],[],[],[],[],[],[],0.358,1,138.304,138.803,,,,,,760,MAS,CON,150,nombre,,l,0.358,,138.803,138.803,0.655092593,0.06712963,0,0,0,,0,41,41,309,1,,,,
,,,,,,9d37ce5577bc6491cad3f2aa,66a626ef09d4e21e1a8894ec,6734a00b4d25a03fa9cb8c41,2024-11-13_14h21.31.773,Tarea de género gramatical,2024.2.2,Win32,60.0240096,,,,,,,,,,,,,,,,,,,,,,,,138.803,139.919,l,1,[],[],[],[],[],[],[],0.44,1,139.919,140.418,,,,,,589,FEM,CON,150,pipa,,a,0.44,,140.419,140.42,0.655092593,0.06712963,0,0,0,,0,42,42,138,1,,,,
,,,,,,9d37ce5577bc6491cad3f2aa,66a626ef09d4e21e1a8894ec,6734a00b4d25a03fa9cb8c41,2024-11-13_14h21.31.773,Tarea de género gramatical,2024.2.2,Win32,60.0240096,,,,,,,,,,,,,,,,,,,,,,,,140.42,141.519,a,1,[],[],[],[],[],[],[],0.423,1,141.519,142.018,,,,,,575,MAS,DIS,150,bate,la,l,0.423,,142.018,142.018,0.655092593,0.06712963,0,0,0,,0,43,43,124,1,,,,
,,,,,,9d37ce5577bc6491cad3f2aa,66a626ef09d4e21e1a8894ec,6734a00b4d25a03fa9cb8c41,2024-11-13_14h21.31.773,Tarea de género gramatical,2024.2.2,Win32,60.0240096,,,,,,,,,,,,,,,,,,,,,,,,142.019,143.218,l,1,[],[],[],[],[],[],[],0.518,1,143.218,143.718,,,,,,705,FEM,AGR,150,tribu,la,a,0.518,,143.718,143.718,0.655092593,0.06712963,0,0,0,,0,44,44,254,1,,,,
,,,,,,9d37ce5577bc6491cad3f2aa,66a626ef09d4e21e1a8894ec,6734a00b4d25a03fa9cb8c41,2024-11-13_14h21.31.773,Tarea de género gramatical,2024.2.2,Win32,60.0240096,,,,,,,,,,,,,,,,,,,,,,,,143.719,144.817,a,0,[],[],[],[],[],[],[],0.418,0,144.818,145.318,,,,,,524,FEM,DIS,150,flor,el,a,0.418,,145.318,145.318,0.655092593,0.06712963,0,0,0,,0,45,45,73,1,,,,
,,,,,,9d37ce5577bc6491cad3f2aa,66a626ef09d4e21e1a8894ec,6734a00b4d25a03fa9cb8c41,2024-11-13_14h21.31.773,Tarea de género gramatical,2024.2.2,Win32,60.0240096,,,,,,,,,,,,,,,,,,,,,,,,145.319,146.434,a,1,[],[],[],[],[],[],[],0.441,1,146.435,146.933,,,,,,832,MAS,CON,150,teatro,,l,0.441,,146.933,146.933,0.655092593,0.06712963,0,0,0,,0,46,46,381,1,,,,
,,,,,,9d37ce5577bc6491cad3f2aa,66a626ef09d4e21e1a8894ec,6734a00b4d25a03fa9cb8c41,2024-11-13_14h21.31.773,Tarea de género gramatical,2024.2.2,Win32,60.0240096,,,,,,,,,,,,,,,,,,,,,,,,146.934,148.033,a,1,[],[],[],[],[],[],[],0.418,1,148.033,148.533,,,,,,460,MAS,CON,150,niño,,l,0.418,,148.533,148.534,0.655092593,0.06712963,0,0,0,,0,47,47,9,1,,,,
,,,,,,9d37ce5577bc6491cad3f2aa,66a626ef09d4e21e1a8894ec,6734a00b4d25a03fa9cb8c41,2024-11-13_14h21.31.773,Tarea de género gramatical,2024.2.2,Win32,60.0240096,,,,,,,,,,,,,,,,,,,,,,,,148.535,149.648,l,1,[],[],[],[],[],[],[],0.438,1,149.648,150.149,,,,,,805,FEM,CON,150,mirada,,a,0.438,,150.15,150.15,0.655092593,0.06712963,0,0,0,,0,48,48,354,1,,,,
,,,,,,9d37ce5577bc6491cad3f2aa,66a626ef09d4e21e1a8894ec,6734a00b4d25a03fa9cb8c41,2024-11-13_14h21.31.773,Tarea de género gramatical,2024.2.2,Win32,60.0240096,,,,,,,,,,,,,,,,,,,,,,,,150.153,151.333,l,1,[],[],[],[],[],[],[],0.504,1,151.334,151.832,,,,,,788,FEM,DIS,150,abuela,el,a,0.504,,151.832,151.832,0.655092593,0.06712963,0,0,0,,0,49,49,337,1,,,,
,,,,,,9d37ce5577bc6491cad3f2aa,66a626ef09d4e21e1a8894ec,6734a00b4d25a03fa9cb8c41,2024-11-13_14h21.31.773,Tarea de género gramatical,2024.2.2,Win32,60.0240096,,,,,,,,,,,,,,,,,,,,,,,,151.835,152.849,l,1,[],[],[],[],[],[],[],0.333,1,152.849,153.348,,,,,,841,FEM,CON,150,altura,,a,0.333,,153.348,153.348,0.655092593,0.06712963,0,0,0,,0,50,50,390,1,,,,
,,,,,,9d37ce5577bc6491cad3f2aa,66a626ef09d4e21e1a8894ec,6734a00b4d25a03fa9cb8c41,2024-11-13_14h21.31.773,Tarea de género gramatical,2024.2.2,Win32,60.0240096,,,,,,,,,,,,,,,,,,,,,,,,153.349,154.497,a,1,[],[],[],[],[],[],[],0.467,1,154.498,154.997,,,,,,582,MAS,AGR,150,velo,el,l,0.467,,154.998,155,0.655092593,0.06712963,0,0,0,,0,51,51,131,1,,,,
,,,,,,9d37ce5577bc6491cad3f2aa,66a626ef09d4e21e1a8894ec,6734a00b4d25a03fa9cb8c41,2024-11-13_14h21.31.773,Tarea de género gramatical,2024.2.2,Win32,60.0240096,,,,,,,,,,,,,,,,,,,,,,,,155,156.13,l,0,[],[],[],[],[],[],[],0.452,0,156.131,156.63,,,,,,900,MAS,AGR,150,conejo,el,l,0.452,,156.63,156.631,0.655092593,0.06712963,0,0,0,,0,52,52,449,1,,,,
,,,,,,9d37ce5577bc6491cad3f2aa,66a626ef09d4e21e1a8894ec,6734a00b4d25a03fa9cb8c41,2024-11-13_14h21.31.773,Tarea de género gramatical,2024.2.2,Win32,60.0240096,,,,,,,,,,,,,,,,,,,,,,,,156.631,157.93,a,1,[],[],[],[],[],[],[],0.618,1,157.93,158.429,,,,,,466,MAS,CON,150,baño,,l,0.618,,158.429,158.429,0.655092593,0.06712963,0,0,0,,0,53,53,15,1,,,,
,,,,,,9d37ce5577bc6491cad3f2aa,66a626ef09d4e21e1a8894ec,6734a00b4d25a03fa9cb8c41,2024-11-13_14h21.31.773,Tarea de género gramatical,2024.2.2,Win32,60.0240096,,,,,,,,,,,,,,,,,,,,,,,,158.43,159.713,a,1,[],[],[],[],[],[],[],0.6,1,159.713,160.213,,,,,,611,MAS,DIS,150,chico,la,l,0.6,,160.213,160.213,0.655092593,0.06712963,0,0,0,,0,54,54,160,1,,,,
,,,,,,9d37ce5577bc6491cad3f2aa,66a626ef09d4e21e1a8894ec,6734a00b4d25a03fa9cb8c41,2024-11-13_14h21.31.773,Tarea de género gramatical,2024.2.2,Win32,60.0240096,,,,,,,,,,,,,,,,,,,,,,,,160.214,161.246,l,1,[],[],[],[],[],[],[],0.358,1,161.246,161.746,,,,,,482,FEM,DIS,150,caja,el,a,0.358,,161.746,161.746,0.655092593,0.06712963,0,0,0,,0,55,55,31,1,,,,
,,,,,,9d37ce5577bc6491cad3f2aa,66a626ef09d4e21e1a8894ec,6734a00b4d25a03fa9cb8c41,2024-11-13_14h21.31.773,Tarea de género gramatical,2024.2.2,Win32,60.0240096,,,,,,,,,,,,,,,,,,,,,,,,161.747,162.812,a,1,[],[],[],[],[],[],[],0.383,1,162.812,163.311,,,,,,671,MAS,DIS,150,brazo,la,l,0.383,,163.312,163.313,0.655092593,0.06712963,0,0,0,,0,56,56,220,1,,,,
,,,,,,9d37ce5577bc6491cad3f2aa,66a626ef09d4e21e1a8894ec,6734a00b4d25a03fa9cb8c41,2024-11-13_14h21.31.773,Tarea de género gramatical,2024.2.2,Win32,60.0240096,,,,,,,,,,,,,,,,,,,,,,,,163.313,164.544,a,1,[],[],[],[],[],[],[],0.551,1,164.544,165.044,,,,,,815,MAS,DIS,150,código,la,l,0.551,,165.044,165.044,0.655092593,0.06712963,0,0,0,,0,57,57,364,1,,,,
,,,,,,9d37ce5577bc6491cad3f2aa,66a626ef09d4e21e1a8894ec,6734a00b4d25a03fa9cb8c41,2024-11-13_14h21.31.773,Tarea de género gramatical,2024.2.2,Win32,60.0240096,,,,,,,,,,,,,,,,,,,,,,,,165.045,166.278,l,1,[],[],[],[],[],[],[],0.549,1,166.278,166.777,,,,,,685,FEM,CON,150,torre,,a,0.549,,166.777,166.777,0.655092593,0.06712963,0,0,0,,0,58,58,234,1,,,,
,,,,,,9d37ce5577bc6491cad3f2aa,66a626ef09d4e21e1a8894ec,6734a00b4d25a03fa9cb8c41,2024-11-13_14h21.31.773,Tarea de género gramatical,2024.2.2,Win32,60.0240096,,,,,,,,,,,,,,,,,,,,,,,,166.78,167.877,l,1,[],[],[],[],[],[],[],0.423,1,167.877,168.377,,,,,,673,FEM,CON,150,plata,,a,0.423,,168.377,168.377,0.655092593,0.06712963,0,0,0,,0,59,59,222,1,,,,
,,,,,,9d37ce5577bc6491cad3f2aa,66a626ef09d4e21e1a8894ec,6734a00b4d25a03fa9cb8c41,2024-11-13_14h21.31.773,Tarea de género gramatical,2024.2.2,Win32,60.0240096,,,,,,,,,,,,,,,,,,,,,,,,168.378,169.392,a,1,[],[],[],[],[],[],[],0.33,1,169.392,169.893,,,,,,820,MAS,CON,150,seguro,,l,0.33,,169.894,169.896,0.655092593,0.06712963,0,0,0,,0,60,60,369,1,,,,
,,,,,,9d37ce5577bc6491cad3f2aa,66a626ef09d4e21e1a8894ec,6734a00b4d25a03fa9cb8c41,2024-11-13_14h21.31.773,Tarea de género gramatical,2024.2.2,Win32,60.0240096,,,,,,,,,,,,,,,,,,,,,,,,169.897,171.026,a,1,[],[],[],[],[],[],[],0.454,1,171.026,171.526,,,,,,617,MAS,DIS,150,juego,la,l,0.454,,171.526,171.526,0.655092593,0.06712963,0,0,0,,0,61,61,166,1,,,,
,,,,,,9d37ce5577bc6491cad3f2aa,66a626ef09d4e21e1a8894ec,6734a00b4d25a03fa9cb8c41,2024-11-13_14h21.31.773,Tarea de género gramatical,2024.2.2,Win32,60.0240096,,,,,,,,,,,,,,,,,,,,,,,,171.527,172.492,a,1,[],[],[],[],[],[],[],0.287,1,172.492,172.992,,,,,,702,MAS,AGR,150,viejo,el,l,0.287,,172.992,172.992,0.655092593,0.06712963,0,0,0,,0,62,62,251,1,,,,
,,,,,,9d37ce5577bc6491cad3f2aa,66a626ef09d4e21e1a8894ec,6734a00b4d25a03fa9cb8c41,2024-11-13_14h21.31.773,Tarea de género gramatical,2024.2.2,Win32,60.0240096,,,,,,,,,,,,,,,,,,,,,,,,172.994,173.975,a,1,[],[],[],[],[],[],[],0.301,1,173.975,174.476,,,,,,839,MAS,DIS,150,tamaño,la,l,0.301,,174.476,174.476,0.655092593,0.06712963,0,0,0,,0,63,63,388,1,,,,
,,,,,,9d37ce5577bc6491cad3f2aa,66a626ef09d4e21e1a8894ec,6734a00b4d25a03fa9cb8c41,2024-11-13_14h21.31.773,Tarea de género gramatical,2024.2.2,Win32,60.0240096,,,,,,,,,,,,,,,,,,,,,,,,174.477,175.425,a,1,[],[],[],[],[],[],[],0.267,1,175.425,175.924,,,,,,564,MAS,AGR,150,menú,el,l,0.267,,175.924,175.924,0.655092593,0.06712963,0,0,0,,0,64,64,113,1,,,,
,,,,,,9d37ce5577bc6491cad3f2aa,66a626ef09d4e21e1a8894ec,6734a00b4d25a03fa9cb8c41,2024-11-13_14h21.31.773,Tarea de género gramatical,2024.2.2,Win32,60.0240096,,,,,,,,,,,,,,,,,,,,,,,,175.925,177.073,a,1,[],[],[],[],[],[],[],0.469,1,177.074,177.574,,,,,,497,MAS,DIS,150,olor,la,l,0.469,,177.576,177.577,0.655092593,0.06712963,0,0,0,,0,65,65,46,1,,,,
,,,,,,9d37ce5577bc6491cad3f2aa,66a626ef09d4e21e1a8894ec,6734a00b4d25a03fa9cb8c41,2024-11-13_14h21.31.773,Tarea de género gramatical,2024.2.2,Win32,60.0240096,,,,,,,,,,,,,,,,,,,,,,,,177.578,178.923,a,1,[],[],[],[],[],[],[],0.666,1,178.923,179.425,,,,,,472,MAS,CON,150,pelo,,l,0.666,,179.425,179.425,0.655092593,0.06712963,0,0,0,,0,66,66,21,1,,,,
,,,,,,9d37ce5577bc6491cad3f2aa,66a626ef09d4e21e1a8894ec,6734a00b4d25a03fa9cb8c41,2024-11-13_14h21.31.773,Tarea de género gramatical,2024.2.2,Win32,60.0240096,,,,,,,,,,,,,,,,,,,,,,,,179.426,180.557,l,1,[],[],[],[],[],[],[],0.453,1,180.559,181.056,,,,,,541,FEM,CON,150,hoja,,a,0.453,,181.056,181.057,0.655092593,0.06712963,0,0,0,,0,67,67,90,1,,,,
,,,,,,9d37ce5577bc6491cad3f2aa,66a626ef09d4e21e1a8894ec,6734a00b4d25a03fa9cb8c41,2024-11-13_14h21.31.773,Tarea de género gramatical,2024.2.2,Win32,60.0240096,,,,,,,,,,,,,,,,,,,,,,,,181.063,182.173,a,1,[],[],[],[],[],[],[],0.442,1,182.174,182.673,,,,,,593,MAS,DIS,150,faro,la,l,0.442,,182.673,182.674,0.655092593,0.06712963,0,0,0,,0,68,68,142,1,,,,
,,,,,,9d37ce5577bc6491cad3f2aa,66a626ef09d4e21e1a8894ec,6734a00b4d25a03fa9cb8c41,2024-11-13_14h21.31.773,Tarea de género gramatical,2024.2.2,Win32,60.0240096,,,,,,,,,,,,,,,,,,,,,,,,182.675,183.788,l,1,[],[],[],[],[],[],[],0.435,1,183.788,184.289,,,,,,645,FEM,AGR,150,pared,la,a,0.435,,184.29,184.291,0.655092593,0.06712963,0,0,0,,0,69,69,194,1,,,,
,,,,,,9d37ce5577bc6491cad3f2aa,66a626ef09d4e21e1a8894ec,6734a00b4d25a03fa9cb8c41,2024-11-13_14h21.31.773,Tarea de género gramatical,2024.2.2,Win32,60.0240096,,,,,,,,,,,,,,,,,,,,,,,,184.292,185.272,a,1,[],[],[],[],[],[],[],0.301,1,185.273,185.771,,,,,,550,MAS,CON,150,nido,,l,0.301,,185.771,185.772,0.655092593,0.06712963,0,0,0,,0,70,70,99,1,,,,
,,,,,,9d37ce5577bc6491cad3f2aa,66a626ef09d4e21e1a8894ec,6734a00b4d25a03fa9cb8c41,2024-11-13_14h21.31.773,Tarea de género gramatical,2024.2.2,Win32,60.0240096,,,,,,,,,,,,,,,,,,,,,,,,185.773,186.737,a,1,[],[],[],[],[],[],[],0.287,1,186.737,187.237,,,,,,462,MAS,AGR,150,plan,el,l,0.287,,187.237,187.237,0.655092593,0.06712963,0,0,0,,0,71,71,11,1,,,,
,,,,,,9d37ce5577bc6491cad3f2aa,66a626ef09d4e21e1a8894ec,6734a00b4d25a03fa9cb8c41,2024-11-13_14h21.31.773,Tarea de género gramatical,2024.2.2,Win32,60.0240096,,,,,,,,,,,,,,,,,,,,,,,,187.238,188.286,l,1,[],[],[],[],[],[],[],0.385,1,188.286,188.786,,,,,,831,FEM,AGR,150,bebida,la,a,0.385,,188.786,188.786,0.655092593,0.06712963,0,0,0,,0,72,72,380,1,,,,
,,,,,,9d37ce5577bc6491cad3f2aa,66a626ef09d4e21e1a8894ec,6734a00b4d25a03fa9cb8c41,2024-11-13_14h21.31.773,Tarea de género gramatical,2024.2.2,Win32,60.0240096,,,,,,,,,,,,,,,,,,,,,,,,188.787,189.787,l,1,[],[],[],[],[],[],[],0.336,1,189.787,190.286,,,,,,583,FEM,CON,150,joya,,a,0.336,,190.286,190.286,0.655092593,0.06712963,0,0,0,,0,73,73,132,1,,,,
,,,,,,9d37ce5577bc6491cad3f2aa,66a626ef09d4e21e1a8894ec,6734a00b4d25a03fa9cb8c41,2024-11-13_14h21.31.773,Tarea de género gramatical,2024.2.2,Win32,60.0240096,,,,,,,,,,,,,,,,,,,,,,,,190.287,191.286,l,1,[],[],[],[],[],[],[],0.316,1,191.286,191.786,,,,,,507,FEM,AGR,150,moda,la,a,0.316,,191.786,191.787,0.655092593,0.06712963,0,0,0,,0,74,74,56,1,,,,
,,,,,,9d37ce5577bc6491cad3f2aa,66a626ef09d4e21e1a8894ec,6734a00b4d25a03fa9cb8c41,2024-11-13_14h21.31.773,Tarea de género gramatical,2024.2.2,Win32,60.0240096,,,,,,,,,,,,,,,,,,,,,,,,191.788,192.702,l,1,[],[],[],[],[],[],[],0.24,1,192.702,193.202,,,,,,716,FEM,DIS,150,jaula,el,a,0.24,,193.202,193.202,0.655092593,0.06712963,0,0,0,,0,75,75,265,1,,,,
,,,,,,9d37ce5577bc6491cad3f2aa,66a626ef09d4e21e1a8894ec,6734a00b4d25a03fa9cb8c41,2024-11-13_14h21.31.773,Tarea de género gramatical,2024.2.2,Win32,60.0240096,,,,,,,,,,,,,,,,,,,,,,,,193.203,194.369,a,1,[],[],[],[],[],[],[],0.486,1,194.37,194.868,,,,,,629,MAS,DIS,150,viaje,la,l,0.486,,194.868,194.868,0.655092593,0.06712963,0,0,0,,0,76,76,178,1,,,,
,,,,,,9d37ce5577bc6491cad3f2aa,66a626ef09d4e21e1a8894ec,6734a00b4d25a03fa9cb8c41,2024-11-13_14h21.31.773,Tarea de género gramatical,2024.2.2,Win32,60.0240096,,,,,,,,,,,,,,,,,,,,,,,,194.869,195.985,l,1,[],[],[],[],[],[],[],0.433,1,195.985,196.485,,,,,,487,FEM,CON,150,sala,,a,0.433,,196.486,196.486,0.655092593,0.06712963,0,0,0,,0,77,77,36,1,,,,
,,,,,,9d37ce5577bc6491cad3f2aa,66a626ef09d4e21e1a8894ec,6734a00b4d25a03fa9cb8c41,2024-11-13_14h21.31.773,Tarea de género gramatical,2024.2.2,Win32,60.0240096,,,,,,,,,,,,,,,,,,,,,,,,196.487,197.584,a,1,[],[],[],[],[],[],[],0.414,1,197.585,198.084,,,,,,738,MAS,AGR,150,grado,el,l,0.414,,198.085,198.087,0.655092593,0.06712963,0,0,0,,0,78,78,287,1,,,,
,,,,,,9d37ce5577bc6491cad3f2aa,66a626ef09d4e21e1a8894ec,6734a00b4d25a03fa9cb8c41,2024-11-13_14h21.31.773,Tarea de género gramatical,2024.2.2,Win32,60.0240096,,,,,,,,,,,,,,,,,,,,,,,,198.088,199.134,a,1,[],[],[],[],[],[],[],0.372,1,199.134,199.634,,,,,,678,MAS,AGR,150,nivel,el,l,0.372,,199.634,199.634,0.655092593,0.06712963,0,0,0,,0,79,79,227,1,,,,
,,,,,,9d37ce5577bc6491cad3f2aa,66a626ef09d4e21e1a8894ec,6734a00b4d25a03fa9cb8c41,2024-11-13_14h21.31.773,Tarea de género gramatical,2024.2.2,Win32,60.0240096,,,,,,,,,,,,,,,,,,,,,,,,199.636,200.666,l,1,[],[],[],[],[],[],[],0.352,1,200.667,201.166,,,,,,764,FEM,DIS,150,señora,el,a,0.352,,201.166,201.166,0.655092593,0.06712963,0,0,0,,0,80,80,313,1,,,,
,,,,,,9d37ce5577bc6491cad3f2aa,66a626ef09d4e21e1a8894ec,6734a00b4d25a03fa9cb8c41,2024-11-13_14h21.31.773,Tarea de género gramatical,2024.2.2,Win32,60.0240096,,,,,,,,,,,,,,,,,,,,,,,,201.166,202.133,l,0,[],[],[],[],[],[],[],0.287,0,202.135,202.633,,,,,,844,MAS,CON,150,examen,,l,0.287,,202.634,202.634,0.655092593,0.06712963,0,0,0,,0,81,81,393,1,,,,
,,,,,,9d37ce5577bc6491cad3f2aa,66a626ef09d4e21e1a8894ec,6734a00b4d25a03fa9cb8c41,2024-11-13_14h21.31.773,Tarea de género gramatical,2024.2.2,Win32,60.0240096,,,,,,,,,,,,,,,,,,,,,,,,202.635,203.615,a,1,[],[],[],[],[],[],[],0.306,1,203.616,204.115,,,,,,635,MAS,DIS,150,sueño,la,l,0.306,,204.115,204.115,0.655092593,0.06712963,0,0,0,,0,82,82,184,1,,,,
,,,,,,9d37ce5577bc6491cad3f2aa,66a626ef09d4e21e1a8894ec,6734a00b4d25a03fa9cb8c41,2024-11-13_14h21.31.773,Tarea de género gramatical,2024.2.2,Win32,60.0240096,,,,,,,,,,,,,,,,,,,,,,,,204.117,205.399,l,1,[],[],[],[],[],[],[],0.601,1,205.399,205.898,,,,,,458,FEM,DIS,150,idea,el,a,0.601,,205.899,205.901,0.655092593,0.06712963,0,0,0,,0,83,83,7,1,,,,
,,,,,,9d37ce5577bc6491cad3f2aa,66a626ef09d4e21e1a8894ec,6734a00b4d25a03fa9cb8c41,2024-11-13_14h21.31.773,Tarea de género gramatical,2024.2.2,Win32,60.0240096,,,,,,,,,,,,,,,,,,,,,,,,205.902,206.947,l,1,[],[],[],[],[],[],[],0.37,1,206.948,207.447,,,,,,835,FEM,CON,150,muñeca,,a,0.37,,207.447,207.447,0.655092593,0.06712963,0,0,0,,0,84,84,384,1,,,,
,,,,,,9d37ce5577bc6491cad3f2aa,66a626ef09d4e21e1a8894ec,6734a00b4d25a03fa9cb8c41,2024-11-13_14h21.31.773,Tarea de género gramatical,2024.2.2,Win32,60.0240096,,,,,,,,,,,,,,,,,,,,,,,,207.45,208.563,a,1,[],[],[],[],[],[],[],0.455,1,208.563,209.064,,,,,,478,MAS,CON,150,club,,l,0.455,,209.064,209.064,0.655092593,0.06712963,0,0,0,,0,85,85,27,1,,,,
,,,,,,9d37ce5577bc6491cad3f2aa,66a626ef09d4e21e1a8894ec,6734a00b4d25a03fa9cb8c41,2024-11-13_14h21.31.773,Tarea de género gramatical,2024.2.2,Win32,60.0240096,,,,,,,,,,,,,,,,,,,,,,,,209.064,210.13,a,1,[],[],[],[],[],[],[],0.4,1,210.13,210.63,,,,,,606,MAS,AGR,150,amigo,el,l,0.4,,210.63,210.63,0.655092593,0.06712963,0,0,0,,0,86,86,155,1,,,,
,,,,,,9d37ce5577bc6491cad3f2aa,66a626ef09d4e21e1a8894ec,6734a00b4d25a03fa9cb8c41,2024-11-13_14h21.31.773,Tarea de género gramatical,2024.2.2,Win32,60.0240096,,,,,,,,,,,,,,,,,,,,,,,,210.631,211.597,a,1,[],[],[],[],[],[],[],0.292,1,211.597,212.096,,,,,,797,MAS,DIS,150,cuello,la,l,0.292,,212.097,212.099,0.655092593,0.06712963,0,0,0,,0,87,87,346,1,,,,
,,,,,,9d37ce5577bc6491cad3f2aa,66a626ef09d4e21e1a8894ec,6734a00b4d25a03fa9cb8c41,2024-11-13_14h21.31.773,Tarea de género gramatical,2024.2.2,Win32,60.0240096,,,,,,,,,,,,,,,,,,,,,,,,212.1,213.179,a,1,[],[],[],[],[],[],[],0.4,1,213.179,213.678,,,,,,683,MAS,DIS,150,golpe,la,l,0.4,,213.678,213.678,0.655092593,0.06712963,0,0,0,,0,88,88,232,1,,,,
,,,,,,9d37ce5577bc6491cad3f2aa,66a626ef09d4e21e1a8894ec,6734a00b4d25a03fa9cb8c41,2024-11-13_14h21.31.773,Tarea de género gramatical,2024.2.2,Win32,60.0240096,,,,,,,,,,,,,,,,,,,,,,,,213.679,214.595,a,1,[],[],[],[],[],[],[],0.249,1,214.595,215.095,,,,,,599,MAS,DIS,150,nudo,la,l,0.249,,215.095,215.095,0.655092593,0.06712963,0,0,0,,0,89,89,148,1,,,,
,,,,,,9d37ce5577bc6491cad3f2aa,66a626ef09d4e21e1a8894ec,6734a00b4d25a03fa9cb8c41,2024-11-13_14h21.31.773,Tarea de género gramatical,2024.2.2,Win32,60.0240096,,,,,,,,,,,,,,,,,,,,,,,,215.096,216.144,l,1,[],[],[],[],[],[],[],0.367,1,216.145,216.644,,,,,,895,FEM,CON,150,bondad,,a,0.367,,216.644,216.644,0.655092593,0.06712963,0,0,0,,0,90,90,444,1,,,,
,,,,,,9d37ce5577bc6491cad3f2aa,66a626ef09d4e21e1a8894ec,6734a00b4d25a03fa9cb8c41,2024-11-13_14h21.31.773,Tarea de género gramatical,2024.2.2,Win32,60.0240096,,,,,,,,,,,,,,,,,,,,,,,,216.645,217.694,a,1,[],[],[],[],[],[],[],0.391,1,217.694,218.194,,,,,,496,MAS,CON,150,odio,,l,0.391,,218.194,218.194,0.655092593,0.06712963,0,0,0,,0,91,91,45,1,,,,
,,,,,,9d37ce5577bc6491cad3f2aa,66a626ef09d4e21e1a8894ec,6734a00b4d25a03fa9cb8c41,2024-11-13_14h21.31.773,Tarea de género gramatical,2024.2.2,Win32,60.0240096,,,,,,,,,,,,,,,,,,,,,,,,218.195,219.193,a,1,[],[],[],[],[],[],[],0.336,1,219.194,219.693,,,,,,784,MAS,CON,150,ataque,,l,0.336,,219.694,219.696,0.655092593,0.06712963,0,0,0,,0,92,92,333,1,,,,
,,,,,,9d37ce5577bc6491cad3f2aa,66a626ef09d4e21e1a8894ec,6734a00b4d25a03fa9cb8c41,2024-11-13_14h21.31.773,Tarea de género gramatical,2024.2.2,Win32,60.0240096,,,,,,,,,,,,,,,,,,,,,,,,219.696,220.793,a,1,[],[],[],[],[],[],[],0.423,1,220.793,221.293,,,,,,845,MAS,DIS,150,correo,la,l,0.423,,221.293,221.293,0.655092593,0.06712963,0,0,0,,0,93,93,394,1,,,,
,,,,,,9d37ce5577bc6491cad3f2aa,66a626ef09d4e21e1a8894ec,6734a00b4d25a03fa9cb8c41,2024-11-13_14h21.31.773,Tarea de género gramatical,2024.2.2,Win32,60.0240096,,,,,,,,,,,,,,,,,,,,,,,,221.294,222.276,a,1,[],[],[],[],[],[],[],0.301,1,222.276,222.778,,,,,,514,MAS,CON,150,saco,,l,0.301,,222.778,222.778,0.655092593,0.06712963,0,0,0,,0,94,94,63,1,,,,
,,,,,,9d37ce5577bc6491cad3f2aa,66a626ef09d4e21e1a8894ec,6734a00b4d25a03fa9cb8c41,2024-11-13_14h21.31.773,Tarea de género gramatical,2024.2.2,Win32,60.0240096,,,,,,,,,,,,,,,,,,,,,,,,222.779,223.759,a,1,[],[],[],[],[],[],[],0.299,1,223.76,224.259,,,,,,804,MAS,AGR,150,camión,el,l,0.299,,224.259,224.259,0.655092593,0.06712963,0,0,0,,0,95,95,353,1,,,,
,,,,,,9d37ce5577bc6491cad3f2aa,66a626ef09d4e21e1a8894ec,6734a00b4d25a03fa9cb8c41,2024-11-13_14h21.31.773,Tarea de género gramatical,2024.2.2,Win32,60.0240096,,,,,,,,,,,,,,,,,,,,,,,,224.261,225.208,a,1,[],[],[],[],[],[],[],0.269,1,225.208,225.709,,,,,,827,MAS,DIS,150,jardín,la,l,0.269,,225.711,225.712,0.655092593,0.06712963,0,0,0,,0,96,96,376,1,,,,
,,,,,,9d37ce5577bc6491cad3f2aa,66a626ef09d4e21e1a8894ec,6734a00b4d25a03fa9cb8c41,2024-11-13_14h21.31.773,Tarea de género gramatical,2024.2.2,Win32,60.0240096,,,,,,,,,,,,,,,,,,,,,,,,225.714,226.708,a,1,[],[],[],[],[],[],[],0.325,1,226.708,227.208,,,,,,652,MAS,CON,150,honor,,l,0.325,,227.208,227.208,0.655092593,0.06712963,0,0,0,,0,97,97,201,1,,,,
,,,,,,9d37ce5577bc6491cad3f2aa,66a626ef09d4e21e1a8894ec,6734a00b4d25a03fa9cb8c41,2024-11-13_14h21.31.773,Tarea de género gramatical,2024.2.2,Win32,60.0240096,,,,,,,,,,,,,,,,,,,,,,,,227.21,228.075,a,0,[],[],[],[],[],[],[],0.189,0,228.076,228.575,,,,,,769,FEM,CON,150,sangre,,a,0.189,,228.575,228.575,0.655092593,0.06712963,0,0,0,,0,98,98,318,1,,,,
,,,,,,9d37ce5577bc6491cad3f2aa,66a626ef09d4e21e1a8894ec,6734a00b4d25a03fa9cb8c41,2024-11-13_14h21.31.773,Tarea de género gramatical,2024.2.2,Win32,60.0240096,,,,,,,,,,,,,,,,,,,,,,,,228.576,229.691,l,0,[],[],[],[],[],[],[],0.434,0,229.691,230.19,,,,,,592,MAS,CON,150,lodo,,l,0.434,,230.19,230.19,0.655092593,0.06712963,0,0,0,,0,99,99,141,1,,,,
,,,,,,9d37ce5577bc6491cad3f2aa,66a626ef09d4e21e1a8894ec,6734a00b4d25a03fa9cb8c41,2024-11-13_14h21.31.773,Tarea de género gramatical,2024.2.2,Win32,60.0240096,,,,,,,,,,,,,,,,,,,,,,,,230.192,231.19,l,1,[],[],[],[],[],[],[],0.324,1,231.191,231.69,,,,,,661,FEM,CON,150,salud,,a,0.324,,231.69,231.69,0.655092593,0.06712963,0,0,0,,0,100,100,210,1,,,,
,,,,,,9d37ce5577bc6491cad3f2aa,66a626ef09d4e21e1a8894ec,6734a00b4d25a03fa9cb8c41,2024-11-13_14h21.31.773,Tarea de género gramatical,2024.2.2,Win32,60.0240096,,,,,,,,,,,,,,,,,,,,,,,,231.691,232.79,a,1,[],[],[],[],[],[],[],0.419,1,232.79,233.289,,,,,,869,MAS,DIS,150,cuento,la,l,0.419,,233.289,233.29,0.655092593,0.06712963,0,0,0,,0,101,101,418,1,,,,
,,,,,,9d37ce5577bc6491cad3f2aa,66a626ef09d4e21e1a8894ec,6734a00b4d25a03fa9cb8c41,2024-11-13_14h21.31.773,Tarea de género gramatical,2024.2.2,Win32,60.0240096,,,,,,,,,,,,,,,,,,,,,,,,233.291,234.772,l,1,[],[],[],[],[],[],[],0.799,1,234.772,235.272,,,,,,631,FEM,CON,150,tarde,,a,0.799,,235.272,235.272,0.655092593,0.06712963,0,0,0,,0,102,102,180,1,,,,
,,,,,,9d37ce5577bc6491cad3f2aa,66a626ef09d4e21e1a8894ec,6734a00b4d25a03fa9cb8c41,2024-11-13_14h21.31.773,Tarea de género gramatical,2024.2.2,Win32,60.0240096,,,,,,,,,,,,,,,,,,,,,,,,235.273,236.421,l,1,[],[],[],[],[],[],[],0.466,1,236.422,236.921,,,,,,565,FEM,CON,150,seda,,a,0.466,,236.922,236.922,0.655092593,0.06712963,0,0,0,,0,103,103,114,1,,,,
,,,,,,9d37ce5577bc6491cad3f2aa,66a626ef09d4e21e1a8894ec,6734a00b4d25a03fa9cb8c41,2024-11-13_14h21.31.773,Tarea de género gramatical,2024.2.2,Win32,60.0240096,,,,,,,,,,,,,,,,,,,,,,,,236.923,238.054,l,1,[],[],[],[],[],[],[],0.457,1,238.054,238.554,,,,,,877,FEM,CON,150,agenda,,a,0.457,,238.554,238.554,0.655092593,0.06712963,0,0,0,,0,104,104,426,1,,,,
,,,,,,9d37ce5577bc6491cad3f2aa,66a626ef09d4e21e1a8894ec,6734a00b4d25a03fa9cb8c41,2024-11-13_14h21.31.773,Tarea de género gramatical,2024.2.2,Win32,60.0240096,,,,,,,,,,,,,,,,,,,,,,,,238.556,239.504,l,1,[],[],[],[],[],[],[],0.272,1,239.504,240.003,,,,,,807,FEM,AGR,150,lengua,la,a,0.272,,240.004,240.005,0.655092593,0.06712963,0,0,0,,0,105,105,356,1,,,,
,,,,,,9d37ce5577bc6491cad3f2aa,66a626ef09d4e21e1a8894ec,6734a00b4d25a03fa9cb8c41,2024-11-13_14h21.31.773,Tarea de género gramatical,2024.2.2,Win32,60.0240096,,,,,,,,,,,,,,,,,,,,,,,,240.006,241.169,a,1,[],[],[],[],[],[],[],0.486,1,241.17,241.67,,,,,,570,MAS,AGR,150,puño,el,l,0.486,,241.67,241.67,0.655092593,0.06712963,0,0,0,,0,106,106,119,1,,,,
,,,,,,9d37ce5577bc6491cad3f2aa,66a626ef09d4e21e1a8894ec,6734a00b4d25a03fa9cb8c41,2024-11-13_14h21.31.773,Tarea de género gramatical,2024.2.2,Win32,60.0240096,,,,,,,,,,,,,,,,,,,,,,,,241.67,242.835,l,1,[],[],[],[],[],[],[],0.484,1,242.836,243.336,,,,,,584,FEM,DIS,150,rama,el,a,0.484,,243.336,243.336,0.655092593,0.06712963,0,0,0,,0,107,107,133,1,,,,
,,,,,,9d37ce5577bc6491cad3f2aa,66a626ef09d4e21e1a8894ec,6734a00b4d25a03fa9cb8c41,2024-11-13_14h21.31.773,Tarea de género gramatical,2024.2.2,Win32,60.0240096,,,,,,,,,,,,,,,,,,,,,,,,243.337,244.386,a,1,[],[],[],[],[],[],[],0.386,1,244.386,244.887,,,,,,712,MAS,CON,150,video,,l,0.386,,244.887,244.887,0.655092593,0.06712963,0,0,0,,0,108,108,261,1,,,,
,,,,,,9d37ce5577bc6491cad3f2aa,66a626ef09d4e21e1a8894ec,6734a00b4d25a03fa9cb8c41,2024-11-13_14h21.31.773,Tarea de género gramatical,2024.2.2,Win32,60.0240096,,,,,,,,,,,,,,,,,,,,,,,,244.891,245.952,l,1,[],[],[],[],[],[],[],0.383,1,245.953,246.452,,,,,,483,FEM,AGR,150,boda,la,a,0.383,,246.453,246.454,0.655092593,0.06712963,0,0,0,,0,109,109,32,1,,,,
,,,,,,9d37ce5577bc6491cad3f2aa,66a626ef09d4e21e1a8894ec,6734a00b4d25a03fa9cb8c41,2024-11-13_14h21.31.773,Tarea de género gramatical,2024.2.2,Win32,60.0240096,,,,,,,,,,,,,,,,,,,,,,,,246.456,247.485,l,1,[],[],[],[],[],[],[],0.359,1,247.486,247.985,,,,,,847,FEM,CON,150,cuerda,,a,0.359,,247.987,247.99,0.655092593,0.06712963,0,0,0,,0,110,110,396,1,,,,
,,,,,,9d37ce5577bc6491cad3f2aa,66a626ef09d4e21e1a8894ec,6734a00b4d25a03fa9cb8c41,2024-11-13_14h21.31.773,Tarea de género gramatical,2024.2.2,Win32,60.0240096,,,,,,,,,,,,,,,,,,,,,,,,247.992,249.234,l,1,[],[],[],[],[],[],[],0.568,1,249.234,249.734,,,,,,872,FEM,DIS,150,rutina,el,a,0.568,,249.734,249.735,0.655092593,0.06712963,0,0,0,,0,111,111,421,1,,,,
,,,,,,9d37ce5577bc6491cad3f2aa,66a626ef09d4e21e1a8894ec,6734a00b4d25a03fa9cb8c41,2024-11-13_14h21.31.773,Tarea de género gramatical,2024.2.2,Win32,60.0240096,,,,,,,,,,,,,,,,,,,,,,,,249.738,250.717,l,1,[],[],[],[],[],[],[],0.302,1,250.718,251.217,,,,,,495,FEM,AGR,150,isla,la,a,0.302,,251.217,251.217,0.655092593,0.06712963,0,0,0,,0,112,112,44,1,,,,
,,,,,,9d37ce5577bc6491cad3f2aa,66a626ef09d4e21e1a8894ec,6734a00b4d25a03fa9cb8c41,2024-11-13_14h21.31.773,Tarea de género gramatical,2024.2.2,Win32,60.0240096,,,,,,,,,,,,,,,,,,,,,,,,251.22,252.017,l,0,[],[],[],[],[],[],[],0.117,0,252.019,252.517,,,,,,648,MAS,AGR,150,hotel,el,l,0.117,,252.517,252.517,0.655092593,0.06712963,0,0,0,,0,113,113,197,1,,,,
,,,,,,9d37ce5577bc6491cad3f2aa,66a626ef09d4e21e1a8894ec,6734a00b4d25a03fa9cb8c41,2024-11-13_14h21.31.773,Tarea de género gramatical,2024.2.2,Win32,60.0240096,,,,,,,,,,,,,,,,,,,,,,,,252.519,253.499,l,1,[],[],[],[],[],[],[],0.301,1,253.501,253.999,,,,,,759,FEM,AGR,150,esposa,la,a,0.301,,254.001,254.003,0.655092593,0.06712963,0,0,0,,0,114,114,308,1,,,,
,,,,,,9d37ce5577bc6491cad3f2aa,66a626ef09d4e21e1a8894ec,6734a00b4d25a03fa9cb8c41,2024-11-13_14h21.31.773,Tarea de género gramatical,2024.2.2,Win32,60.0240096,,,,,,,,,,,,,,,,,,,,,,,,254.005,255.216,l,1,[],[],[],[],[],[],[],0.535,1,255.216,255.716,,,,,,621,FEM,AGR,150,mitad,la,a,0.535,,255.716,255.716,0.655092593,0.06712963,0,0,0,,0,115,115,170,1,,,,
,,,,,,9d37ce5577bc6491cad3f2aa,66a626ef09d4e21e1a8894ec,6734a00b4d25a03fa9cb8c41,2024-11-13_14h21.31.773,Tarea de género gramatical,2024.2.2,Win32,60.0240096,,,,,,,,,,,,,,,,,,,,,,,,255.718,256.865,a,1,[],[],[],[],[],[],[],0.465,1,256.865,257.365,,,,,,756,MAS,AGR,150,dinero,el,l,0.465,,257.365,257.365,0.655092593,0.06712963,0,0,0,,0,116,116,305,1,,,,
,,,,,,9d37ce5577bc6491cad3f2aa,66a626ef09d4e21e1a8894ec,6734a00b4d25a03fa9cb8c41,2024-11-13_14h21.31.773,Tarea de género gramatical,2024.2.2,Win32,60.0240096,,,,,,,,,,,,,,,,,,,,,,,,257.367,258.549,l,1,[],[],[],[],[],[],[],0.501,1,258.549,259.048,,,,,,481,FEM,CON,150,edad,,a,0.501,,259.048,259.048,0.655092593,0.06712963,0,0,0,,0,117,117,30,1,,,,
,,,,,,9d37ce5577bc6491cad3f2aa,66a626ef09d4e21e1a8894ec,6734a00b4d25a03fa9cb8c41,2024-11-13_14h21.31.773,Tarea de género gramatical,2024.2.2,Win32,60.0240096,,,,,,,,,,,,,,,,,,,,,,,,259.051,260.214,a,0,[],[],[],[],[],[],[],0.49,0,260.215,260.714,,,,,,771,FEM,AGR,150,comida,la,a,0.49,,260.714,260.715,0.655092593,0.06712963,0,0,0,,0,118,118,320,1,,,,
,,,,,,9d37ce5577bc6491cad3f2aa,66a626ef09d4e21e1a8894ec,6734a00b4d25a03fa9cb8c41,2024-11-13_14h21.31.773,Tarea de género gramatical,2024.2.2,Win32,60.0240096,,,,,,,,,,,,,,,,,,,,,,,,260.717,261.847,l,1,[],[],[],[],[],[],[],0.452,1,261.849,262.347,,,,,,789,FEM,AGR,150,salida,la,a,0.452,,262.349,262.351,0.655092593,0.06712963,0,0,0,,0,119,119,338,1,,,,
,,,,,,9d37ce5577bc6491cad3f2aa,66a626ef09d4e21e1a8894ec,6734a00b4d25a03fa9cb8c41,2024-11-13_14h21.31.773,Tarea de género gramatical,2024.2.2,Win32,60.0240096,,,,,,,,,,,,,,,,,,,,,,,,262.352,263.364,l,1,[],[],[],[],[],[],[],0.334,1,263.364,263.863,,,,,,855,FEM,AGR,150,parada,la,a,0.334,,263.864,263.864,0.655092593,0.06712963,0,0,0,,0,120,120,404,1,,,,
,,,,,,9d37ce5577bc6491cad3f2aa,66a626ef09d4e21e1a8894ec,6734a00b4d25a03fa9cb8c41,2024-11-13_14h21.31.773,Tarea de género gramatical,2024.2.2,Win32,60.0240096,,,,,,,,,,,,,,,,,,,,,,,,263.865,264.945,a,0,[],[],[],[],[],[],[],0.4,0,264.946,265.445,,,,,,752,FEM,DIS,150,cabeza,el,a,0.4,,265.445,265.446,0.655092593,0.06712963,0,0,0,,0,121,121,301,1,,,,
,,,,,,9d37ce5577bc6491cad3f2aa,66a626ef09d4e21e1a8894ec,6734a00b4d25a03fa9cb8c41,2024-11-13_14h21.31.773,Tarea de género gramatical,2024.2.2,Win32,60.0240096,,,,,,,,,,,,,,,,,,,,,,,,265.446,266.628,l,1,[],[],[],[],[],[],[],0.499,1,266.629,267.129,,,,,,691,FEM,CON,150,pasta,,a,0.499,,267.129,267.13,0.655092593,0.06712963,0,0,0,,0,122,122,240,1,,,,
,,,,,,9d37ce5577bc6491cad3f2aa,66a626ef09d4e21e1a8894ec,6734a00b4d25a03fa9cb8c41,2024-11-13_14h21.31.773,Tarea de género gramatical,2024.2.2,Win32,60.0240096,,,,,,,,,,,,,,,,,,,,,,,,267.132,268.444,a,1,[],[],[],[],[],[],[],0.64,1,268.445,268.945,,,,,,708,MAS,AGR,150,polvo,el,l,0.64,,268.945,268.946,0.655092593,0.06712963,0,0,0,,0,123,123,257,1,,,,
,,,,,,9d37ce5577bc6491cad3f2aa,66a626ef09d4e21e1a8894ec,6734a00b4d25a03fa9cb8c41,2024-11-13_14h21.31.773,Tarea de género gramatical,2024.2.2,Win32,60.0240096,,,,,,,,,,,,,,,,,,,,,,,,268.947,270.177,a,1,[],[],[],[],[],[],[],0.551,1,270.178,270.678,,,,,,658,MAS,CON,150,suelo,,l,0.551,,270.678,270.678,0.655092593,0.06712963,0,0,0,,0,124,124,207,1,,,,
,,,,,,9d37ce5577bc6491cad3f2aa,66a626ef09d4e21e1a8894ec,6734a00b4d25a03fa9cb8c41,2024-11-13_14h21.31.773,Tarea de género gramatical,2024.2.2,Win32,60.0240096,,,,,,,,,,,,,,,,,,,,,,,,270.68,271.66,a,1,[],[],[],[],[],[],[],0.3,1,271.661,272.161,,,,,,802,MAS,CON,150,estilo,,l,0.3,,272.161,272.161,0.655092593,0.06712963,0,0,0,,0,125,125,351,1,,,,
,,,,,,9d37ce5577bc6491cad3f2aa,66a626ef09d4e21e1a8894ec,6734a00b4d25a03fa9cb8c41,2024-11-13_14h21.31.773,Tarea de género gramatical,2024.2.2,Win32,60.0240096,,,,,,,,,,,,,,,,,,,,,,,,272.163,273.126,l,1,[],[],[],[],[],[],[],0.285,1,273.127,273.627,,,,,,806,FEM,DIS,150,piedra,el,a,0.285,,273.627,273.628,0.655092593,0.06712963,0,0,0,,0,126,126,355,1,,,,
,,,,,,9d37ce5577bc6491cad3f2aa,66a626ef09d4e21e1a8894ec,6734a00b4d25a03fa9cb8c41,2024-11-13_14h21.31.773,Tarea de género gramatical,2024.2.2,Win32,60.0240096,,,,,,,,,,,,,,,,,,,,,,,,273.629,274.676,l,1,[],[],[],[],[],[],[],0.368,1,274.676,275.177,,,,,,873,FEM,AGR,150,poesía,la,a,0.368,,275.177,275.177,0.655092593,0.06712963,0,0,0,,0,127,127,422,1,,,,
,,,,,,9d37ce5577bc6491cad3f2aa,66a626ef09d4e21e1a8894ec,6734a00b4d25a03fa9cb8c41,2024-11-13_14h21.31.773,Tarea de género gramatical,2024.2.2,Win32,60.0240096,,,,,,,,,,,,,,,,,,,,,,,,275.178,276.175,l,1,[],[],[],[],[],[],[],0.323,1,276.176,276.676,,,,,,585,FEM,AGR,150,raíz,la,a,0.323,,276.678,276.68,0.655092593,0.06712963,0,0,0,,0,128,128,134,1,,,,
,,,,,,9d37ce5577bc6491cad3f2aa,66a626ef09d4e21e1a8894ec,6734a00b4d25a03fa9cb8c41,2024-11-13_14h21.31.773,Tarea de género gramatical,2024.2.2,Win32,60.0240096,,,,,,,,,,,,,,,,,,,,,,,,276.681,277.875,a,0,[],[],[],[],[],[],[],0.524,0,277.877,278.376,,,,,,782,FEM,DIS,150,basura,el,a,0.524,,278.376,278.376,0.655092593,0.06712963,0,0,0,,0,129,129,331,1,,,,
,,,,,,9d37ce5577bc6491cad3f2aa,66a626ef09d4e21e1a8894ec,6734a00b4d25a03fa9cb8c41,2024-11-13_14h21.31.773,Tarea de género gramatical,2024.2.2,Win32,60.0240096,,,,,,,,,,,,,,,,,,,,,,,,278.378,279.508,a,1,[],[],[],[],[],[],[],0.456,1,279.509,280.008,,,,,,574,MAS,CON,150,clan,,l,0.456,,280.008,280.008,0.655092593,0.06712963,0,0,0,,0,130,130,123,1,,,,
,,,,,,9d37ce5577bc6491cad3f2aa,66a626ef09d4e21e1a8894ec,6734a00b4d25a03fa9cb8c41,2024-11-13_14h21.31.773,Tarea de género gramatical,2024.2.2,Win32,60.0240096,,,,,,,,,,,,,,,,,,,,,,,,280.011,281.157,a,1,[],[],[],[],[],[],[],0.464,1,281.157,281.657,,,,,,456,MAS,AGR,150,lado,el,l,0.464,,281.657,281.657,0.655092593,0.06712963,0,0,0,,0,131,131,5,1,,,,
,,,,,,9d37ce5577bc6491cad3f2aa,66a626ef09d4e21e1a8894ec,6734a00b4d25a03fa9cb8c41,2024-11-13_14h21.31.773,Tarea de género gramatical,2024.2.2,Win32,60.0240096,,,,,,,,,,,,,,,,,,,,,,,,281.659,282.773,l,1,[],[],[],[],[],[],[],0.434,1,282.773,283.273,,,,,,723,FEM,AGR,150,tarta,la,a,0.434,,283.274,283.275,0.655092593,0.06712963,0,0,0,,0,132,132,272,1,,,,
,,,,,,9d37ce5577bc6491cad3f2aa,66a626ef09d4e21e1a8894ec,6734a00b4d25a03fa9cb8c41,2024-11-13_14h21.31.773,Tarea de género gramatical,2024.2.2,Win32,60.0240096,,,,,,,,,,,,,,,,,,,,,,,,283.275,284.339,l,1,[],[],[],[],[],[],[],0.39,1,284.34,284.84,,,,,,627,FEM,AGR,150,broma,la,a,0.39,,284.84,284.841,0.655092593,0.06712963,0,0,0,,0,133,133,176,1,,,,
,,,,,,9d37ce5577bc6491cad3f2aa,66a626ef09d4e21e1a8894ec,6734a00b4d25a03fa9cb8c41,2024-11-13_14h21.31.773,Tarea de género gramatical,2024.2.2,Win32,60.0240096,,,,,,,,,,,,,,,,,,,,,,,,284.843,285.839,l,1,[],[],[],[],[],[],[],0.318,1,285.84,286.339,,,,,,681,FEM,AGR,150,bruja,la,a,0.318,,286.339,286.339,0.655092593,0.06712963,0,0,0,,0,134,134,230,1,,,,
,,,,,,9d37ce5577bc6491cad3f2aa,66a626ef09d4e21e1a8894ec,6734a00b4d25a03fa9cb8c41,2024-11-13_14h21.31.773,Tarea de género gramatical,2024.2.2,Win32,60.0240096,,,,,,,,,,,,,,,,,,,,,,,,286.34,287.322,l,1,[],[],[],[],[],[],[],0.301,1,287.322,287.822,,,,,,728,FEM,DIS,150,presa,el,a,0.301,,287.822,287.822,0.655092593,0.06712963,0,0,0,,0,135,135,277,1,,,,
,,,,,,9d37ce5577bc6491cad3f2aa,66a626ef09d4e21e1a8894ec,6734a00b4d25a03fa9cb8c41,2024-11-13_14h21.31.773,Tarea de género gramatical,2024.2.2,Win32,60.0240096,,,,,,,,,,,,,,,,,,,,,,,,287.825,288.905,l,0,[],[],[],[],[],[],[],0.403,0,288.906,289.406,,,,,,816,MAS,AGR,150,riesgo,el,l,0.403,,289.406,289.406,0.655092593,0.06712963,0,0,0,,0,136,136,365,1,,,,
,,,,,,9d37ce5577bc6491cad3f2aa,66a626ef09d4e21e1a8894ec,6734a00b4d25a03fa9cb8c41,2024-11-13_14h21.31.773,Tarea de género gramatical,2024.2.2,Win32,60.0240096,,,,,,,,,,,,,,,,,,,,,,,,289.407,290.487,a,1,[],[],[],[],[],[],[],0.408,1,290.489,290.988,,,,,,640,MAS,CON,150,campo,,l,0.408,,290.989,290.991,0.655092593,0.06712963,0,0,0,,0,137,137,189,1,,,,
,,,,,,9d37ce5577bc6491cad3f2aa,66a626ef09d4e21e1a8894ec,6734a00b4d25a03fa9cb8c41,2024-11-13_14h21.31.773,Tarea de género gramatical,2024.2.2,Win32,60.0240096,,,,,,,,,,,,,,,,,,,,,,,,290.992,292.02,l,1,[],[],[],[],[],[],[],0.346,1,292.021,292.52,,,,,,649,FEM,CON,150,nariz,,a,0.346,,292.52,292.52,0.655092593,0.06712963,0,0,0,,0,138,138,198,1,,,,
,,,,,,9d37ce5577bc6491cad3f2aa,66a626ef09d4e21e1a8894ec,6734a00b4d25a03fa9cb8c41,2024-11-13_14h21.31.773,Tarea de género gramatical,2024.2.2,Win32,60.0240096,,,,,,,,,,,,,,,,,,,,,,,,292.522,293.587,a,0,[],[],[],[],[],[],[],0.381,0,293.588,294.087,,,,,,721,FEM,CON,150,viuda,,a,0.381,,294.087,294.087,0.655092593,0.06712963,0,0,0,,0,139,139,270,1,,,,
,,,,,,9d37ce5577bc6491cad3f2aa,66a626ef09d4e21e1a8894ec,6734a00b4d25a03fa9cb8c41,2024-11-13_14h21.31.773,Tarea de género gramatical,2024.2.2,Win32,60.0240096,,,,,,,,,,,,,,,,,,,,,,,,294.087,295.203,a,0,[],[],[],[],[],[],[],0.433,0,295.203,295.703,,,,,,553,FEM,CON,150,fama,,a,0.433,,295.703,295.703,0.655092593,0.06712963,0,0,0,,0,140,140,102,1,,,,
,,,,,,9d37ce5577bc6491cad3f2aa,66a626ef09d4e21e1a8894ec,6734a00b4d25a03fa9cb8c41,2024-11-13_14h21.31.773,Tarea de género gramatical,2024.2.2,Win32,60.0240096,,,,,,,,,,,,,,,,,,,,,,,,295.705,296.602,a,1,[],[],[],[],[],[],[],0.219,1,296.603,297.103,,,,,,653,MAS,DIS,150,novio,la,l,0.219,,297.104,297.107,0.655092593,0.06712963,0,0,0,,0,141,141,202,1,,,,
,,,,,,9d37ce5577bc6491cad3f2aa,66a626ef09d4e21e1a8894ec,6734a00b4d25a03fa9cb8c41,2024-11-13_14h21.31.773,Tarea de género gramatical,2024.2.2,Win32,60.0240096,,,,,,,,,,,,,,,,,,,,,,,,297.107,298.202,l,0,[],[],[],[],[],[],[],0.415,0,298.204,298.702,,,,,,809,MAS,DIS,150,bosque,la,l,0.415,,298.702,298.702,0.655092593,0.06712963,0,0,0,,0,142,142,358,1,,,,
,,,,,,9d37ce5577bc6491cad3f2aa,66a626ef09d4e21e1a8894ec,6734a00b4d25a03fa9cb8c41,2024-11-13_14h21.31.773,Tarea de género gramatical,2024.2.2,Win32,60.0240096,,,,,,,,,,,,,,,,,,,,,,,,298.703,299.802,l,1,[],[],[],[],[],[],[],0.416,1,299.803,300.301,,,,,,543,FEM,AGR,150,lata,la,a,0.416,,300.301,300.301,0.655092593,0.06712963,0,0,0,,0,143,143,92,1,,,,
,,,,,,9d37ce5577bc6491cad3f2aa,66a626ef09d4e21e1a8894ec,6734a00b4d25a03fa9cb8c41,2024-11-13_14h21.31.773,Tarea de género gramatical,2024.2.2,Win32,60.0240096,,,,,,,,,,,,,,,,,,,,,,,,300.302,301.267,l,1,[],[],[],[],[],[],[],0.285,1,301.267,301.768,,,,,,717,FEM,AGR,150,barba,la,a,0.285,,301.768,301.768,0.655092593,0.06712963,0,0,0,,0,144,144,266,1,,,,
,,,,,,9d37ce5577bc6491cad3f2aa,66a626ef09d4e21e1a8894ec,6734a00b4d25a03fa9cb8c41,2024-11-13_14h21.31.773,Tarea de género gramatical,2024.2.2,Win32,60.0240096,,,,,,,,,,,,,,,,,,,,,,,,301.77,302.9,a,1,[],[],[],[],[],[],[],0.453,1,302.901,303.4,,,,,,491,MAS,DIS,150,bote,la,l,0.453,,303.401,303.401,0.655092593,0.06712963,0,0,0,,0,145,145,40,1,,,,
,,,,,,9d37ce5577bc6491cad3f2aa,66a626ef09d4e21e1a8894ec,6734a00b4d25a03fa9cb8c41,2024-11-13_14h21.31.773,Tarea de género gramatical,2024.2.2,Win32,60.0240096,,,,,,,,,,,,,,,,,,,,,,,,303.403,304.45,l,1,[],[],[],[],[],[],[],0.366,1,304.45,304.949,,,,,,747,FEM,AGR,150,manta,la,a,0.366,,304.951,304.953,0.655092593,0.06712963,0,0,0,,0,146,146,296,1,,,,
,,,,,,9d37ce5577bc6491cad3f2aa,66a626ef09d4e21e1a8894ec,6734a00b4d25a03fa9cb8c41,2024-11-13_14h21.31.773,Tarea de género gramatical,2024.2.2,Win32,60.0240096,,,,,,,,,,,,,,,,,,,,,,,,304.954,307.601,,0,[],[],[],[],[],[],[],0.366,-1,307.607,308.099,,,,,,476,FEM,DIS,150,pena,el,a,,,308.099,308.099,0.655092593,0.06712963,0,0,0,,0,147,147,25,1,,,,
,,,,,,9d37ce5577bc6491cad3f2aa,66a626ef09d4e21e1a8894ec,6734a00b4d25a03fa9cb8c41,2024-11-13_14h21.31.773,Tarea de género gramatical,2024.2.2,Win32,60.0240096,,,,,,,,,,,,,,,,,,,,,,,,308.101,309.399,l,1,[],[],[],[],[],[],[],0.618,1,309.4,309.898,,,,,,662,FEM,DIS,150,cinta,el,a,0.618,,309.898,309.899,0.655092593,0.06712963,0,0,0,,0,148,148,211,1,,,,
,,,,,,9d37ce5577bc6491cad3f2aa,66a626ef09d4e21e1a8894ec,6734a00b4d25a03fa9cb8c41,2024-11-13_14h21.31.773,Tarea de género gramatical,2024.2.2,Win32,60.0240096,,,,,,,,,,,,,,,,,,,,,,,,309.901,311.014,a,1,[],[],[],[],[],[],[],0.437,1,311.014,311.514,,,,,,870,MAS,AGR,150,helado,el,l,0.437,,311.514,311.514,0.655092593,0.06712963,0,0,0,,0,149,149,419,1,,,,
,,,,,,9d37ce5577bc6491cad3f2aa,66a626ef09d4e21e1a8894ec,6734a00b4d25a03fa9cb8c41,2024-11-13_14h21.31.773,Tarea de género gramatical,2024.2.2,Win32,60.0240096,,,,,,,,,,,,,,,,,,,,,,,,311.517,312.597,a,0,[],[],[],[],[],[],[],0.398,0,312.598,313.097,,,,,,781,FEM,CON,150,cárcel,,a,0.398,,313.098,317.096,0.655092593,0.06712963,0,0,0,space,0,150,150,330,1,3.975,,,
,,,,,,9d37ce5577bc6491cad3f2aa,66a626ef09d4e21e1a8894ec,6734a00b4d25a03fa9cb8c41,2024-11-13_14h21.31.773,Tarea de género gramatical,2024.2.2,Win32,60.0240096,,,,,,,,,,,,,,,,,,,,,,,,317.099,318.162,l,1,[],[],[],[],[],[],[],0.382,1,318.163,318.663,,,,,,871,FEM,CON,150,novela,,a,0.382,,318.663,318.663,0.655092593,0.06712963,0,0,0,,0,151,151,420,1,,,,
,,,,,,9d37ce5577bc6491cad3f2aa,66a626ef09d4e21e1a8894ec,6734a00b4d25a03fa9cb8c41,2024-11-13_14h21.31.773,Tarea de género gramatical,2024.2.2,Win32,60.0240096,,,,,,,,,,,,,,,,,,,,,,,,318.666,319.778,l,1,[],[],[],[],[],[],[],0.44,1,319.778,320.278,,,,,,824,FEM,DIS,150,herida,el,a,0.44,,320.278,320.278,0.655092593,0.06712963,0,0,0,,0,152,152,373,1,,,,
,,,,,,9d37ce5577bc6491cad3f2aa,66a626ef09d4e21e1a8894ec,6734a00b4d25a03fa9cb8c41,2024-11-13_14h21.31.773,Tarea de género gramatical,2024.2.2,Win32,60.0240096,,,,,,,,,,,,,,,,,,,,,,,,320.28,321.361,a,1,[],[],[],[],[],[],[],0.406,1,321.362,321.861,,,,,,485,MAS,DIS,150,taxi,la,l,0.406,,321.861,321.861,0.655092593,0.06712963,0,0,0,,0,153,153,34,1,,,,
,,,,,,9d37ce5577bc6491cad3f2aa,66a626ef09d4e21e1a8894ec,6734a00b4d25a03fa9cb8c41,2024-11-13_14h21.31.773,Tarea de género gramatical,2024.2.2,Win32,60.0240096,,,,,,,,,,,,,,,,,,,,,,,,321.863,322.827,l,1,[],[],[],[],[],[],[],0.282,1,322.828,323.328,,,,,,817,FEM,CON,150,teoría,,a,0.282,,323.328,323.328,0.655092593,0.06712963,0,0,0,,0,154,154,366,1,,,,
,,,,,,9d37ce5577bc6491cad3f2aa,66a626ef09d4e21e1a8894ec,6734a00b4d25a03fa9cb8c41,2024-11-13_14h21.31.773,Tarea de género gramatical,2024.2.2,Win32,60.0240096,,,,,,,,,,,,,,,,,,,,,,,,323.328,324.31,l,1,[],[],[],[],[],[],[],0.304,1,324.31,324.81,,,,,,735,FEM,AGR,150,mafia,la,a,0.304,,324.811,324.813,0.655092593,0.06712963,0,0,0,,0,155,155,284,1,,,,
,,,,,,9d37ce5577bc6491cad3f2aa,66a626ef09d4e21e1a8894ec,6734a00b4d25a03fa9cb8c41,2024-11-13_14h21.31.773,Tarea de género gramatical,2024.2.2,Win32,60.0240096,,,,,,,,,,,,,,,,,,,,,,,,324.813,325.843,l,0,[],[],[],[],[],[],[],0.357,0,325.844,326.343,,,,,,484,MAS,CON,150,gato,,l,0.357,,326.343,326.343,0.655092593,0.06712963,0,0,0,,0,156,156,33,1,,,,
,,,,,,9d37ce5577bc6491cad3f2aa,66a626ef09d4e21e1a8894ec,6734a00b4d25a03fa9cb8c41,2024-11-13_14h21.31.773,Tarea de género gramatical,2024.2.2,Win32,60.0240096,,,,,,,,,,,,,,,,,,,,,,,,326.347,327.526,l,1,[],[],[],[],[],[],[],0.5,1,327.527,328.025,,,,,,506,FEM,DIS,150,bola,el,a,0.5,,328.026,328.026,0.655092593,0.06712963,0,0,0,,0,157,157,55,1,,,,
,,,,,,9d37ce5577bc6491cad3f2aa,66a626ef09d4e21e1a8894ec,6734a00b4d25a03fa9cb8c41,2024-11-13_14h21.31.773,Tarea de género gramatical,2024.2.2,Win32,60.0240096,,,,,,,,,,,,,,,,,,,,,,,,328.028,329.058,l,0,[],[],[],[],[],[],[],0.351,0,329.059,329.558,,,,,,515,MAS,DIS,150,rayo,la,l,0.351,,329.559,329.559,0.655092593,0.06712963,0,0,0,,0,158,158,64,1,,,,
,,,,,,9d37ce5577bc6491cad3f2aa,66a626ef09d4e21e1a8894ec,6734a00b4d25a03fa9cb8c41,2024-11-13_14h21.31.773,Tarea de género gramatical,2024.2.2,Win32,60.0240096,,,,,,,,,,,,,,,,,,,,,,,,329.559,330.592,l,0,[],[],[],[],[],[],[],0.371,0,330.592,331.092,,,,,,502,MAS,CON,150,lago,,l,0.371,,331.094,331.095,0.655092593,0.06712963,0,0,0,,0,159,159,51,1,,,,
,,,,,,9d37ce5577bc6491cad3f2aa,66a626ef09d4e21e1a8894ec,6734a00b4d25a03fa9cb8c41,2024-11-13_14h21.31.773,Tarea de género gramatical,2024.2.2,Win32,60.0240096,,,,,,,,,,,,,,,,,,,,,,,,331.096,332.008,a,1,[],[],[],[],[],[],[],0.235,1,332.009,332.508,,,,,,724,MAS,CON,150,motor,,l,0.235,,332.508,332.509,0.655092593,0.06712963,0,0,0,,0,160,160,273,1,,,,
,,,,,,9d37ce5577bc6491cad3f2aa,66a626ef09d4e21e1a8894ec,6734a00b4d25a03fa9cb8c41,2024-11-13_14h21.31.773,Tarea de género gramatical,2024.2.2,Win32,60.0240096,,,,,,,,,,,,,,,,,,,,,,,,332.51,333.457,l,1,[],[],[],[],[],[],[],0.269,1,333.457,333.957,,,,,,753,FEM,AGR,150,maldad,la,a,0.269,,333.957,333.957,0.655092593,0.06712963,0,0,0,,0,161,161,302,1,,,,
,,,,,,9d37ce5577bc6491cad3f2aa,66a626ef09d4e21e1a8894ec,6734a00b4d25a03fa9cb8c41,2024-11-13_14h21.31.773,Tarea de género gramatical,2024.2.2,Win32,60.0240096,,,,,,,,,,,,,,,,,,,,,,,,333.958,335.007,a,1,[],[],[],[],[],[],[],0.37,1,335.007,335.506,,,,,,659,MAS,DIS,150,banco,la,l,0.37,,335.507,335.507,0.655092593,0.06712963,0,0,0,,0,162,162,208,1,,,,
,,,,,,9d37ce5577bc6491cad3f2aa,66a626ef09d4e21e1a8894ec,6734a00b4d25a03fa9cb8c41,2024-11-13_14h21.31.773,Tarea de género gramatical,2024.2.2,Win32,60.0240096,,,,,,,,,,,,,,,,,,,,,,,,335.508,336.722,l,1,[],[],[],[],[],[],[],0.533,1,336.723,337.223,,,,,,795,FEM,AGR,150,pierna,la,a,0.533,,337.223,337.223,0.655092593,0.06712963,0,0,0,,0,163,163,344,1,,,,
,,,,,,9d37ce5577bc6491cad3f2aa,66a626ef09d4e21e1a8894ec,6734a00b4d25a03fa9cb8c41,2024-11-13_14h21.31.773,Tarea de género gramatical,2024.2.2,Win32,60.0240096,,,,,,,,,,,,,,,,,,,,,,,,337.224,338.507,a,1,[],[],[],[],[],[],[],0.6,1,338.509,339.006,,,,,,580,MAS,CON,150,yate,,l,0.6,,339.009,339.011,0.655092593,0.06712963,0,0,0,,0,164,164,129,1,,,,
,,,,,,9d37ce5577bc6491cad3f2aa,66a626ef09d4e21e1a8894ec,6734a00b4d25a03fa9cb8c41,2024-11-13_14h21.31.773,Tarea de género gramatical,2024.2.2,Win32,60.0240096,,,,,,,,,,,,,,,,,,,,,,,,339.013,340.373,a,1,[],[],[],[],[],[],[],0.683,1,340.373,340.872,,,,,,888,MAS,AGR,150,tanque,el,l,0.683,,340.872,340.872,0.655092593,0.06712963,0,0,0,,0,165,165,437,1,,,,
,,,,,,9d37ce5577bc6491cad3f2aa,66a626ef09d4e21e1a8894ec,6734a00b4d25a03fa9cb8c41,2024-11-13_14h21.31.773,Tarea de género gramatical,2024.2.2,Win32,60.0240096,,,,,,,,,,,,,,,,,,,,,,,,340.872,342.021,l,1,[],[],[],[],[],[],[],0.466,1,342.021,342.522,,,,,,500,FEM,DIS,150,dama,el,a,0.466,,342.522,342.522,0.655092593,0.06712963,0,0,0,,0,166,166,49,1,,,,
,,,,,,9d37ce5577bc6491cad3f2aa,66a626ef09d4e21e1a8894ec,6734a00b4d25a03fa9cb8c41,2024-11-13_14h21.31.773,Tarea de género gramatical,2024.2.2,Win32,60.0240096,,,,,,,,,,,,,,,,,,,,,,,,342.524,343.938,a,1,[],[],[],[],[],[],[],0.733,1,343.939,344.437,,,,,,527,MAS,DIS,150,pico,la,l,0.733,,344.437,344.438,0.655092593,0.06712963,0,0,0,,0,167,167,76,1,,,,
,,,,,,9d37ce5577bc6491cad3f2aa,66a626ef09d4e21e1a8894ec,6734a00b4d25a03fa9cb8c41,2024-11-13_14h21.31.773,Tarea de género gramatical,2024.2.2,Win32,60.0240096,,,,,,,,,,,,,,,,,,,,,,,,344.439,345.519,a,1,[],[],[],[],[],[],[],0.404,1,345.52,346.019,,,,,,454,MAS,CON,150,hijo,,l,0.404,,346.022,346.023,0.655092593,0.06712963,0,0,0,,0,168,168,3,1,,,,
,,,,,,9d37ce5577bc6491cad3f2aa,66a626ef09d4e21e1a8894ec,6734a00b4d25a03fa9cb8c41,2024-11-13_14h21.31.773,Tarea de género gramatical,2024.2.2,Win32,60.0240096,,,,,,,,,,,,,,,,,,,,,,,,346.025,347.119,l,1,[],[],[],[],[],[],[],0.416,1,347.12,347.62,,,,,,763,FEM,CON,150,ciudad,,a,0.416,,347.62,347.62,0.655092593,0.06712963,0,0,0,,0,169,169,312,1,,,,
,,,,,,9d37ce5577bc6491cad3f2aa,66a626ef09d4e21e1a8894ec,6734a00b4d25a03fa9cb8c41,2024-11-13_14h21.31.773,Tarea de género gramatical,2024.2.2,Win32,60.0240096,,,,,,,,,,,,,,,,,,,,,,,,347.622,348.803,a,0,[],[],[],[],[],[],[],0.498,0,348.804,349.303,,,,,,830,FEM,DIS,150,madera,el,a,0.498,,349.303,349.303,0.655092593,0.06712963,0,0,0,,0,170,170,379,1,,,,
,,,,,,9d37ce5577bc6491cad3f2aa,66a626ef09d4e21e1a8894ec,6734a00b4d25a03fa9cb8c41,2024-11-13_14h21.31.773,Tarea de género gramatical,2024.2.2,Win32,60.0240096,,,,,,,,,,,,,,,,,,,,,,,,349.305,350.602,a,1,[],[],[],[],[],[],[],0.618,1,350.604,351.102,,,,,,899,MAS,DIS,150,payaso,la,l,0.618,,351.102,351.102,0.655092593,0.06712963,0,0,0,,0,171,171,448,1,,,,
,,,,,,9d37ce5577bc6491cad3f2aa,66a626ef09d4e21e1a8894ec,6734a00b4d25a03fa9cb8c41,2024-11-13_14h21.31.773,Tarea de género gramatical,2024.2.2,Win32,60.0240096,,,,,,,,,,,,,,,,,,,,,,,,351.103,353.084,l,1,[],[],[],[],[],[],[],1.306,1,353.085,353.584,,,,,,848,FEM,DIS,150,hierba,el,a,1.306,,353.584,353.584,0.655092593,0.06712963,0,0,0,,0,172,172,397,1,,,,
,,,,,,9d37ce5577bc6491cad3f2aa,66a626ef09d4e21e1a8894ec,6734a00b4d25a03fa9cb8c41,2024-11-13_14h21.31.773,Tarea de género gramatical,2024.2.2,Win32,60.0240096,,,,,,,,,,,,,,,,,,,,,,,,353.585,354.733,a,1,[],[],[],[],[],[],[],0.468,1,354.734,355.234,,,,,,833,MAS,DIS,150,parque,la,l,0.468,,355.235,355.237,0.655092593,0.06712963,0,0,0,,0,173,173,382,1,,,,
,,,,,,9d37ce5577bc6491cad3f2aa,66a626ef09d4e21e1a8894ec,6734a00b4d25a03fa9cb8c41,2024-11-13_14h21.31.773,Tarea de género gramatical,2024.2.2,Win32,60.0240096,,,,,,,,,,,,,,,,,,,,,,,,355.238,356.267,a,1,[],[],[],[],[],[],[],0.353,1,356.267,356.766,,,,,,714,MAS,AGR,150,pollo,el,l,0.353,,356.767,356.767,0.655092593,0.06712963,0,0,0,,0,174,174,263,1,,,,
,,,,,,9d37ce5577bc6491cad3f2aa,66a626ef09d4e21e1a8894ec,6734a00b4d25a03fa9cb8c41,2024-11-13_14h21.31.773,Tarea de género gramatical,2024.2.2,Win32,60.0240096,,,,,,,,,,,,,,,,,,,,,,,,356.769,357.833,l,0,[],[],[],[],[],[],[],0.384,0,357.834,358.333,,,,,,719,MAS,DIS,150,primo,la,l,0.384,,358.333,358.333,0.655092593,0.06712963,0,0,0,,0,175,175,268,1,,,,
,,,,,,9d37ce5577bc6491cad3f2aa,66a626ef09d4e21e1a8894ec,6734a00b4d25a03fa9cb8c41,2024-11-13_14h21.31.773,Tarea de género gramatical,2024.2.2,Win32,60.0240096,,,,,,,,,,,,,,,,,,,,,,,,358.335,359.415,l,1,[],[],[],[],[],[],[],0.403,1,359.417,359.915,,,,,,675,FEM,AGR,150,pieza,la,a,0.403,,359.915,359.915,0.655092593,0.06712963,0,0,0,,0,176,176,224,1,,,,
,,,,,,9d37ce5577bc6491cad3f2aa,66a626ef09d4e21e1a8894ec,6734a00b4d25a03fa9cb8c41,2024-11-13_14h21.31.773,Tarea de género gramatical,2024.2.2,Win32,60.0240096,,,,,,,,,,,,,,,,,,,,,,,,359.916,360.915,a,1,[],[],[],[],[],[],[],0.337,1,360.916,361.415,,,,,,876,MAS,AGR,150,pánico,el,l,0.337,,361.416,361.417,0.655092593,0.06712963,0,0,0,,0,177,177,425,1,,,,
,,,,,,9d37ce5577bc6491cad3f2aa,66a626ef09d4e21e1a8894ec,6734a00b4d25a03fa9cb8c41,2024-11-13_14h21.31.773,Tarea de género gramatical,2024.2.2,Win32,60.0240096,,,,,,,,,,,,,,,,,,,,,,,,361.417,362.549,a,1,[],[],[],[],[],[],[],0.459,1,362.549,363.048,,,,,,882,MAS,AGR,150,océano,el,l,0.459,,363.048,363.048,0.655092593,0.06712963,0,0,0,,0,178,178,431,1,,,,
,,,,,,9d37ce5577bc6491cad3f2aa,66a626ef09d4e21e1a8894ec,6734a00b4d25a03fa9cb8c41,2024-11-13_14h21.31.773,Tarea de género gramatical,2024.2.2,Win32,60.0240096,,,,,,,,,,,,,,,,,,,,,,,,363.049,364.114,l,0,[],[],[],[],[],[],[],0.387,0,364.115,364.614,,,,,,473,MAS,DIS,150,rato,la,l,0.387,,364.614,364.614,0.655092593,0.06712963,0,0,0,,0,179,179,22,1,,,,
,,,,,,9d37ce5577bc6491cad3f2aa,66a626ef09d4e21e1a8894ec,6734a00b4d25a03fa9cb8c41,2024-11-13_14h21.31.773,Tarea de género gramatical,2024.2.2,Win32,60.0240096,,,,,,,,,,,,,,,,,,,,,,,,364.616,365.697,l,0,[],[],[],[],[],[],[],0.403,0,365.697,366.197,,,,,,660,MAS,AGR,150,baile,el,l,0.403,,366.197,366.198,0.655092593,0.06712963,0,0,0,,0,180,180,209,1,,,,
,,,,,,9d37ce5577bc6491cad3f2aa,66a626ef09d4e21e1a8894ec,6734a00b4d25a03fa9cb8c41,2024-11-13_14h21.31.773,Tarea de género gramatical,2024.2.2,Win32,60.0240096,,,,,,,,,,,,,,,,,,,,,,,,366.198,367.446,a,1,[],[],[],[],[],[],[],0.571,1,367.448,367.946,,,,,,850,MAS,CON,150,barrio,,l,0.571,,367.946,367.946,0.655092593,0.06712963,0,0,0,,0,181,181,399,1,,,,
,,,,,,9d37ce5577bc6491cad3f2aa,66a626ef09d4e21e1a8894ec,6734a00b4d25a03fa9cb8c41,2024-11-13_14h21.31.773,Tarea de género gramatical,2024.2.2,Win32,60.0240096,,,,,,,,,,,,,,,,,,,,,,,,367.948,369.013,l,1,[],[],[],[],[],[],[],0.386,1,369.013,369.513,,,,,,625,FEM,CON,150,señal,,a,0.386,,369.515,369.517,0.655092593,0.06712963,0,0,0,,0,182,182,174,1,,,,
,,,,,,9d37ce5577bc6491cad3f2aa,66a626ef09d4e21e1a8894ec,6734a00b4d25a03fa9cb8c41,2024-11-13_14h21.31.773,Tarea de género gramatical,2024.2.2,Win32,60.0240096,,,,,,,,,,,,,,,,,,,,,,,,369.518,370.613,a,1,[],[],[],[],[],[],[],0.418,1,370.615,371.113,,,,,,864,MAS,AGR,150,sótano,el,l,0.418,,371.113,371.114,0.655092593,0.06712963,0,0,0,,0,183,183,413,1,,,,
,,,,,,9d37ce5577bc6491cad3f2aa,66a626ef09d4e21e1a8894ec,6734a00b4d25a03fa9cb8c41,2024-11-13_14h21.31.773,Tarea de género gramatical,2024.2.2,Win32,60.0240096,,,,,,,,,,,,,,,,,,,,,,,,371.12,372.179,a,1,[],[],[],[],[],[],[],0.383,1,372.179,372.678,,,,,,636,MAS,AGR,150,error,el,l,0.383,,372.679,372.679,0.655092593,0.06712963,0,0,0,,0,184,184,185,1,,,,
,,,,,,9d37ce5577bc6491cad3f2aa,66a626ef09d4e21e1a8894ec,6734a00b4d25a03fa9cb8c41,2024-11-13_14h21.31.773,Tarea de género gramatical,2024.2.2,Win32,60.0240096,,,,,,,,,,,,,,,,,,,,,,,,372.681,373.712,l,1,[],[],[],[],[],[],[],0.352,1,373.712,374.211,,,,,,567,FEM,AGR,150,raya,la,a,0.352,,374.212,374.212,0.655092593,0.06712963,0,0,0,,0,185,185,116,1,,,,
,,,,,,9d37ce5577bc6491cad3f2aa,66a626ef09d4e21e1a8894ec,6734a00b4d25a03fa9cb8c41,2024-11-13_14h21.31.773,Tarea de género gramatical,2024.2.2,Win32,60.0240096,,,,,,,,,,,,,,,,,,,,,,,,374.214,375.244,a,1,[],[],[],[],[],[],[],0.358,1,375.245,375.744,,,,,,810,MAS,AGR,150,puente,el,l,0.358,,375.746,375.748,0.655092593,0.06712963,0,0,0,,0,186,186,359,1,,,,
,,,,,,9d37ce5577bc6491cad3f2aa,66a626ef09d4e21e1a8894ec,6734a00b4d25a03fa9cb8c41,2024-11-13_14h21.31.773,Tarea de género gramatical,2024.2.2,Win32,60.0240096,,,,,,,,,,,,,,,,,,,,,,,,375.749,376.743,a,1,[],[],[],[],[],[],[],0.318,1,376.744,377.244,,,,,,766,MAS,CON,150,cuerpo,,l,0.318,,377.244,377.244,0.655092593,0.06712963,0,0,0,,0,187,187,315,1,,,,
,,,,,,9d37ce5577bc6491cad3f2aa,66a626ef09d4e21e1a8894ec,6734a00b4d25a03fa9cb8c41,2024-11-13_14h21.31.773,Tarea de género gramatical,2024.2.2,Win32,60.0240096,,,,,,,,,,,,,,,,,,,,,,,,377.246,378.16,a,0,[],[],[],[],[],[],[],0.234,0,378.161,378.659,,,,,,867,FEM,AGR,150,cabaña,la,a,0.234,,378.659,378.659,0.655092593,0.06712963,0,0,0,,0,188,188,416,1,,,,
,,,,,,9d37ce5577bc6491cad3f2aa,66a626ef09d4e21e1a8894ec,6734a00b4d25a03fa9cb8c41,2024-11-13_14h21.31.773,Tarea de género gramatical,2024.2.2,Win32,60.0240096,,,,,,,,,,,,,,,,,,,,,,,,378.66,379.875,l,1,[],[],[],[],[],[],[],0.537,1,379.877,380.375,,,,,,535,FEM,CON,150,gira,,a,0.537,,380.376,380.376,0.655092593,0.06712963,0,0,0,,0,189,189,84,1,,,,
,,,,,,9d37ce5577bc6491cad3f2aa,66a626ef09d4e21e1a8894ec,6734a00b4d25a03fa9cb8c41,2024-11-13_14h21.31.773,Tarea de género gramatical,2024.2.2,Win32,60.0240096,,,,,,,,,,,,,,,,,,,,,,,,380.377,381.408,a,1,[],[],[],[],[],[],[],0.348,1,381.409,381.909,,,,,,750,MAS,AGR,150,túnel,el,l,0.348,,381.909,381.909,0.655092593,0.06712963,0,0,0,,0,190,190,299,1,,,,
,,,,,,9d37ce5577bc6491cad3f2aa,66a626ef09d4e21e1a8894ec,6734a00b4d25a03fa9cb8c41,2024-11-13_14h21.31.773,Tarea de género gramatical,2024.2.2,Win32,60.0240096,,,,,,,,,,,,,,,,,,,,,,,,381.912,382.842,a,1,[],[],[],[],[],[],[],0.255,1,382.842,383.342,,,,,,528,MAS,AGR,150,oído,el,l,0.255,,383.343,383.346,0.655092593,0.06712963,0,0,0,,0,191,191,77,1,,,,
,,,,,,9d37ce5577bc6491cad3f2aa,66a626ef09d4e21e1a8894ec,6734a00b4d25a03fa9cb8c41,2024-11-13_14h21.31.773,Tarea de género gramatical,2024.2.2,Win32,60.0240096,,,,,,,,,,,,,,,,,,,,,,,,383.347,384.291,a,0,[],[],[],[],[],[],[],0.266,0,384.292,384.791,,,,,,577,FEM,CON,150,cuna,,a,0.266,,384.791,384.791,0.655092593,0.06712963,0,0,0,,0,192,192,126,1,,,,
,,,,,,9d37ce5577bc6491cad3f2aa,66a626ef09d4e21e1a8894ec,6734a00b4d25a03fa9cb8c41,2024-11-13_14h21.31.773,Tarea de género gramatical,2024.2.2,Win32,60.0240096,,,,,,,,,,,,,,,,,,,,,,,,384.792,385.823,l,1,[],[],[],[],[],[],[],0.358,1,385.824,386.324,,,,,,489,FEM,AGR,150,luna,la,a,0.358,,386.324,386.325,0.655092593,0.06712963,0,0,0,,0,193,193,38,1,,,,
,,,,,,9d37ce5577bc6491cad3f2aa,66a626ef09d4e21e1a8894ec,6734a00b4d25a03fa9cb8c41,2024-11-13_14h21.31.773,Tarea de género gramatical,2024.2.2,Win32,60.0240096,,,,,,,,,,,,,,,,,,,,,,,,386.325,387.507,l,1,[],[],[],[],[],[],[],0.508,1,387.507,388.007,,,,,,555,FEM,AGR,150,jefa,la,a,0.508,,388.007,388.007,0.655092593,0.06712963,0,0,0,,0,194,194,104,1,,,,
,,,,,,9d37ce5577bc6491cad3f2aa,66a626ef09d4e21e1a8894ec,6734a00b4d25a03fa9cb8c41,2024-11-13_14h21.31.773,Tarea de género gramatical,2024.2.2,Win32,60.0240096,,,,,,,,,,,,,,,,,,,,,,,,388.008,389.122,l,1,[],[],[],[],[],[],[],0.433,1,389.123,389.623,,,,,,710,FEM,DIS,150,barra,el,a,0.433,,389.624,389.624,0.655092593,0.06712963,0,0,0,,0,195,195,259,1,,,,
,,,,,,9d37ce5577bc6491cad3f2aa,66a626ef09d4e21e1a8894ec,6734a00b4d25a03fa9cb8c41,2024-11-13_14h21.31.773,Tarea de género gramatical,2024.2.2,Win32,60.0240096,,,,,,,,,,,,,,,,,,,,,,,,389.625,390.673,l,1,[],[],[],[],[],[],[],0.368,1,390.673,391.172,,,,,,739,FEM,CON,150,tabla,,a,0.368,,391.172,391.172,0.655092593,0.06712963,0,0,0,,0,196,196,288,1,,,,
,,,,,,9d37ce5577bc6491cad3f2aa,66a626ef09d4e21e1a8894ec,6734a00b4d25a03fa9cb8c41,2024-11-13_14h21.31.773,Tarea de género gramatical,2024.2.2,Win32,60.0240096,,,,,,,,,,,,,,,,,,,,,,,,391.173,392.089,a,1,[],[],[],[],[],[],[],0.255,1,392.089,392.587,,,,,,604,MAS,CON,150,padre,,l,0.255,,392.588,392.588,0.655092593,0.06712963,0,0,0,,0,197,197,153,1,,,,
,,,,,,9d37ce5577bc6491cad3f2aa,66a626ef09d4e21e1a8894ec,6734a00b4d25a03fa9cb8c41,2024-11-13_14h21.31.773,Tarea de género gramatical,2024.2.2,Win32,60.0240096,,,,,,,,,,,,,,,,,,,,,,,,392.589,393.588,a,1,[],[],[],[],[],[],[],0.332,1,393.588,394.087,,,,,,641,MAS,DIS,150,dolor,la,l,0.332,,394.087,394.087,0.655092593,0.06712963,0,0,0,,0,198,198,190,1,,,,
,,,,,,9d37ce5577bc6491cad3f2aa,66a626ef09d4e21e1a8894ec,6734a00b4d25a03fa9cb8c41,2024-11-13_14h21.31.773,Tarea de género gramatical,2024.2.2,Win32,60.0240096,,,,,,,,,,,,,,,,,,,,,,,,394.088,395.088,a,0,[],[],[],[],[],[],[],0.335,0,395.089,395.588,,,,,,722,FEM,DIS,150,oreja,el,a,0.335,,395.588,395.588,0.655092593,0.06712963,0,0,0,,0,199,199,271,1,,,,
,,,,,,9d37ce5577bc6491cad3f2aa,66a626ef09d4e21e1a8894ec,6734a00b4d25a03fa9cb8c41,2024-11-13_14h21.31.773,Tarea de género gramatical,2024.2.2,Win32,60.0240096,,,,,,,,,,,,,,,,,,,,,,,,395.589,396.654,l,1,[],[],[],[],[],[],[],0.388,1,396.656,397.153,,,,,,573,FEM,AGR,150,tela,la,a,0.388,,397.155,397.157,0.655092593,0.06712963,0,0,0,,0,200,200,122,1,,,,
,,,,,,9d37ce5577bc6491cad3f2aa,66a626ef09d4e21e1a8894ec,6734a00b4d25a03fa9cb8c41,2024-11-13_14h21.31.773,Tarea de género gramatical,2024.2.2,Win32,60.0240096,,,,,,,,,,,,,,,,,,,,,,,,397.158,398.155,a,1,[],[],[],[],[],[],[],0.324,1,398.155,398.653,,,,,,887,MAS,DIS,150,hombro,la,l,0.324,,398.653,398.653,0.655092593,0.06712963,0,0,0,,0,201,201,436,1,,,,
,,,,,,9d37ce5577bc6491cad3f2aa,66a626ef09d4e21e1a8894ec,6734a00b4d25a03fa9cb8c41,2024-11-13_14h21.31.773,Tarea de género gramatical,2024.2.2,Win32,60.0240096,,,,,,,,,,,,,,,,,,,,,,,,398.655,399.637,a,1,[],[],[],[],[],[],[],0.303,1,399.637,400.136,,,,,,486,MAS,AGR,150,dedo,el,l,0.303,,400.136,400.136,0.655092593,0.06712963,0,0,0,,0,202,202,35,1,,,,
,,,,,,9d37ce5577bc6491cad3f2aa,66a626ef09d4e21e1a8894ec,6734a00b4d25a03fa9cb8c41,2024-11-13_14h21.31.773,Tarea de género gramatical,2024.2.2,Win32,60.0240096,,,,,,,,,,,,,,,,,,,,,,,,400.138,401.203,l,1,[],[],[],[],[],[],[],0.385,1,401.204,401.702,,,,,,501,FEM,AGR,150,bala,la,a,0.385,,401.703,401.704,0.655092593,0.06712963,0,0,0,,0,203,203,50,1,,,,
,,,,,,9d37ce5577bc6491cad3f2aa,66a626ef09d4e21e1a8894ec,6734a00b4d25a03fa9cb8c41,2024-11-13_14h21.31.773,Tarea de género gramatical,2024.2.2,Win32,60.0240096,,,,,,,,,,,,,,,,,,,,,,,,401.708,403.535,l,1,[],[],[],[],[],[],[],1.151,1,403.536,404.035,,,,,,590,FEM,DIS,150,mula,el,a,1.151,,404.035,404.037,0.655092593,0.06712963,0,0,0,,0,204,204,139,1,,,,
,,,,,,9d37ce5577bc6491cad3f2aa,66a626ef09d4e21e1a8894ec,6734a00b4d25a03fa9cb8c41,2024-11-13_14h21.31.773,Tarea de género gramatical,2024.2.2,Win32,60.0240096,,,,,,,,,,,,,,,,,,,,,,,,404.037,405.284,a,0,[],[],[],[],[],[],[],0.566,0,405.287,405.785,,,,,,560,FEM,DIS,150,rosa,el,a,0.566,,405.785,405.785,0.655092593,0.06712963,0,0,0,,0,205,205,109,1,,,,
,,,,,,9d37ce5577bc6491cad3f2aa,66a626ef09d4e21e1a8894ec,6734a00b4d25a03fa9cb8c41,2024-11-13_14h21.31.773,Tarea de género gramatical,2024.2.2,Win32,60.0240096,,,,,,,,,,,,,,,,,,,,,,,,405.788,407.85,l,0,[],[],[],[],[],[],[],1.382,0,407.851,408.35,,,,,,588,MAS,AGR,150,luto,el,l,1.382,,408.35,408.35,0.655092593,0.06712963,0,0,0,,0,206,206,137,1,,,,
,,,,,,9d37ce5577bc6491cad3f2aa,66a626ef09d4e21e1a8894ec,6734a00b4d25a03fa9cb8c41,2024-11-13_14h21.31.773,Tarea de género gramatical,2024.2.2,Win32,60.0240096,,,,,,,,,,,,,,,,,,,,,,,,408.351,409.466,l,1,[],[],[],[],[],[],[],0.434,1,409.467,409.967,,,,,,853,FEM,CON,150,paliza,,a,0.434,,409.967,409.967,0.655092593,0.06712963,0,0,0,,0,207,207,402,1,,,,
,,,,,,9d37ce5577bc6491cad3f2aa,66a626ef09d4e21e1a8894ec,6734a00b4d25a03fa9cb8c41,2024-11-13_14h21.31.773,Tarea de género gramatical,2024.2.2,Win32,60.0240096,,,,,,,,,,,,,,,,,,,,,,,,409.968,411.182,a,1,[],[],[],[],[],[],[],0.535,1,411.184,411.683,,,,,,814,MAS,CON,150,viento,,l,0.535,,411.684,411.684,0.655092593,0.06712963,0,0,0,,0,208,208,363,1,,,,
,,,,,,9d37ce5577bc6491cad3f2aa,66a626ef09d4e21e1a8894ec,6734a00b4d25a03fa9cb8c41,2024-11-13_14h21.31.773,Tarea de género gramatical,2024.2.2,Win32,60.0240096,,,,,,,,,,,,,,,,,,,,,,,,411.686,413.033,l,1,[],[],[],[],[],[],[],0.669,1,413.033,413.532,,,,,,614,FEM,DIS,150,novia,el,a,0.669,,413.533,413.536,0.655092593,0.06712963,0,0,0,,0,209,209,163,1,,,,
,,,,,,9d37ce5577bc6491cad3f2aa,66a626ef09d4e21e1a8894ec,6734a00b4d25a03fa9cb8c41,2024-11-13_14h21.31.773,Tarea de género gramatical,2024.2.2,Win32,60.0240096,,,,,,,,,,,,,,,,,,,,,,,,413.537,414.531,l,1,[],[],[],[],[],[],[],0.317,1,414.532,415.031,,,,,,775,FEM,CON,150,tierra,,a,0.317,,415.031,415.031,0.655092593,0.06712963,0,0,0,,0,210,210,324,1,,,,
,,,,,,9d37ce5577bc6491cad3f2aa,66a626ef09d4e21e1a8894ec,6734a00b4d25a03fa9cb8c41,2024-11-13_14h21.31.773,Tarea de género gramatical,2024.2.2,Win32,60.0240096,,,,,,,,,,,,,,,,,,,,,,,,415.033,416.032,a,0,[],[],[],[],[],[],[],0.318,0,416.033,416.53,,,,,,656,FEM,DIS,150,época,el,a,0.318,,416.53,416.53,0.655092593,0.06712963,0,0,0,,0,211,211,205,1,,,,
,,,,,,9d37ce5577bc6491cad3f2aa,66a626ef09d4e21e1a8894ec,6734a00b4d25a03fa9cb8c41,2024-11-13_14h21.31.773,Tarea de género gramatical,2024.2.2,Win32,60.0240096,,,,,,,,,,,,,,,,,,,,,,,,416.533,417.647,l,1,[],[],[],[],[],[],[],0.433,1,417.648,418.147,,,,,,639,FEM,AGR,150,pista,la,a,0.433,,418.147,418.147,0.655092593,0.06712963,0,0,0,,0,212,212,188,1,,,,
,,,,,,9d37ce5577bc6491cad3f2aa,66a626ef09d4e21e1a8894ec,6734a00b4d25a03fa9cb8c41,2024-11-13_14h21.31.773,Tarea de género gramatical,2024.2.2,Win32,60.0240096,,,,,,,,,,,,,,,,,,,,,,,,418.148,419.213,a,1,[],[],[],[],[],[],[],0.385,1,419.214,419.713,,,,,,785,MAS,DIS,150,montón,la,l,0.385,,419.715,419.717,0.655092593,0.06712963,0,0,0,,0,213,213,334,1,,,,
,,,,,,9d37ce5577bc6491cad3f2aa,66a626ef09d4e21e1a8894ec,6734a00b4d25a03fa9cb8c41,2024-11-13_14h21.31.773,Tarea de género gramatical,2024.2.2,Win32,60.0240096,,,,,,,,,,,,,,,,,,,,,,,,419.718,420.862,a,1,[],[],[],[],[],[],[],0.474,1,420.863,421.362,,,,,,743,MAS,DIS,150,patio,la,l,0.474,,421.362,421.363,0.655092593,0.06712963,0,0,0,,0,214,214,292,1,,,,
,,,,,,9d37ce5577bc6491cad3f2aa,66a626ef09d4e21e1a8894ec,6734a00b4d25a03fa9cb8c41,2024-11-13_14h21.31.773,Tarea de género gramatical,2024.2.2,Win32,60.0240096,,,,,,,,,,,,,,,,,,,,,,,,421.365,422.579,a,1,[],[],[],[],[],[],[],0.536,1,422.579,423.079,,,,,,772,MAS,CON,150,minuto,,l,0.536,,423.079,423.079,0.655092593,0.06712963,0,0,0,,0,215,215,321,1,,,,
,,,,,,9d37ce5577bc6491cad3f2aa,66a626ef09d4e21e1a8894ec,6734a00b4d25a03fa9cb8c41,2024-11-13_14h21.31.773,Tarea de género gramatical,2024.2.2,Win32,60.0240096,,,,,,,,,,,,,,,,,,,,,,,,423.081,424.145,l,1,[],[],[],[],[],[],[],0.389,1,424.146,424.645,,,,,,849,FEM,AGR,150,charla,la,a,0.389,,424.645,424.645,0.655092593,0.06712963,0,0,0,,0,216,216,398,1,,,,
,,,,,,9d37ce5577bc6491cad3f2aa,66a626ef09d4e21e1a8894ec,6734a00b4d25a03fa9cb8c41,2024-11-13_14h21.31.773,Tarea de género gramatical,2024.2.2,Win32,60.0240096,,,,,,,,,,,,,,,,,,,,,,,,424.646,425.811,a,1,[],[],[],[],[],[],[],0.491,1,425.811,426.311,,,,,,881,MAS,DIS,150,veneno,la,l,0.491,,426.311,426.311,0.655092593,0.06712963,0,0,0,,0,217,217,430,1,,,,
,,,,,,9d37ce5577bc6491cad3f2aa,66a626ef09d4e21e1a8894ec,6734a00b4d25a03fa9cb8c41,2024-11-13_14h21.31.773,Tarea de género gramatical,2024.2.2,Win32,60.0240096,,,,,,,,,,,,,,,,,,,,,,,,426.313,427.594,l,0,[],[],[],[],[],[],[],0.6,0,427.595,428.094,,,,,,623,MAS,DIS,150,libro,la,l,0.6,,428.096,428.097,0.655092593,0.06712963,0,0,0,,0,218,218,172,1,,,,
,,,,,,9d37ce5577bc6491cad3f2aa,66a626ef09d4e21e1a8894ec,6734a00b4d25a03fa9cb8c41,2024-11-13_14h21.31.773,Tarea de género gramatical,2024.2.2,Win32,60.0240096,,,,,,,,,,,,,,,,,,,,,,,,428.098,429.16,l,1,[],[],[],[],[],[],[],0.382,1,429.163,429.66,,,,,,783,FEM,AGR,150,locura,la,a,0.382,,429.66,429.66,0.655092593,0.06712963,0,0,0,,0,219,219,332,1,,,,
,,,,,,9d37ce5577bc6491cad3f2aa,66a626ef09d4e21e1a8894ec,6734a00b4d25a03fa9cb8c41,2024-11-13_14h21.31.773,Tarea de género gramatical,2024.2.2,Win32,60.0240096,,,,,,,,,,,,,,,,,,,,,,,,429.661,430.694,l,1,[],[],[],[],[],[],[],0.352,1,430.694,431.193,,,,,,477,FEM,AGR,150,mesa,la,a,0.352,,431.193,431.193,0.655092593,0.06712963,0,0,0,,0,220,220,26,1,,,,
,,,,,,9d37ce5577bc6491cad3f2aa,66a626ef09d4e21e1a8894ec,6734a00b4d25a03fa9cb8c41,2024-11-13_14h21.31.773,Tarea de género gramatical,2024.2.2,Win32,60.0240096,,,,,,,,,,,,,,,,,,,,,,,,431.195,432.177,l,1,[],[],[],[],[],[],[],0.299,1,432.178,432.677,,,,,,884,FEM,DIS,150,corona,el,a,0.299,,432.677,432.678,0.655092593,0.06712963,0,0,0,,0,221,221,433,1,,,,
,,,,,,9d37ce5577bc6491cad3f2aa,66a626ef09d4e21e1a8894ec,6734a00b4d25a03fa9cb8c41,2024-11-13_14h21.31.773,Tarea de género gramatical,2024.2.2,Win32,60.0240096,,,,,,,,,,,,,,,,,,,,,,,,432.683,433.827,l,1,[],[],[],[],[],[],[],0.467,1,433.827,434.325,,,,,,572,FEM,DIS,150,loca,el,a,0.467,,434.328,434.33,0.655092593,0.06712963,0,0,0,,0,222,222,121,1,,,,
,,,,,,9d37ce5577bc6491cad3f2aa,66a626ef09d4e21e1a8894ec,6734a00b4d25a03fa9cb8c41,2024-11-13_14h21.31.773,Tarea de género gramatical,2024.2.2,Win32,60.0240096,,,,,,,,,,,,,,,,,,,,,,,,434.331,435.592,a,1,[],[],[],[],[],[],[],0.588,1,435.592,436.092,,,,,,857,MAS,DIS,150,jurado,la,l,0.588,,436.093,436.093,0.655092593,0.06712963,0,0,0,,0,223,223,406,1,,,,
,,,,,,9d37ce5577bc6491cad3f2aa,66a626ef09d4e21e1a8894ec,6734a00b4d25a03fa9cb8c41,2024-11-13_14h21.31.773,Tarea de género gramatical,2024.2.2,Win32,60.0240096,,,,,,,,,,,,,,,,,,,,,,,,436.094,437.591,a,0,[],[],[],[],[],[],[],0.82,0,437.593,438.091,,,,,,680,FEM,DIS,150,regla,el,a,0.82,,438.092,438.092,0.655092593,0.06712963,0,0,0,,0,224,224,229,1,,,,
,,,,,,9d37ce5577bc6491cad3f2aa,66a626ef09d4e21e1a8894ec,6734a00b4d25a03fa9cb8c41,2024-11-13_14h21.31.773,Tarea de género gramatical,2024.2.2,Win32,60.0240096,,,,,,,,,,,,,,,,,,,,,,,,438.094,439.307,l,1,[],[],[],[],[],[],[],0.533,1,439.308,439.807,,,,,,596,FEM,DIS,150,lana,el,a,0.533,,439.807,439.808,0.655092593,0.06712963,0,0,0,,0,225,225,145,1,,,,
,,,,,,9d37ce5577bc6491cad3f2aa,66a626ef09d4e21e1a8894ec,6734a00b4d25a03fa9cb8c41,2024-11-13_14h21.31.773,Tarea de género gramatical,2024.2.2,Win32,60.0240096,,,,,,,,,,,,,,,,,,,,,,,,439.81,441.007,a,1,[],[],[],[],[],[],[],0.517,1,441.007,441.506,,,,,,684,MAS,AGR,150,héroe,el,l,0.517,,441.506,441.506,0.655092593,0.06712963,0,0,0,,0,226,226,233,1,,,,
,,,,,,9d37ce5577bc6491cad3f2aa,66a626ef09d4e21e1a8894ec,6734a00b4d25a03fa9cb8c41,2024-11-13_14h21.31.773,Tarea de género gramatical,2024.2.2,Win32,60.0240096,,,,,,,,,,,,,,,,,,,,,,,,441.507,442.506,l,0,[],[],[],[],[],[],[],0.336,0,442.508,443.005,,,,,,509,MAS,DIS,150,lobo,la,l,0.336,,443.007,443.009,0.655092593,0.06712963,0,0,0,,0,227,227,58,1,,,,
,,,,,,9d37ce5577bc6491cad3f2aa,66a626ef09d4e21e1a8894ec,6734a00b4d25a03fa9cb8c41,2024-11-13_14h21.31.773,Tarea de género gramatical,2024.2.2,Win32,60.0240096,,,,,,,,,,,,,,,,,,,,,,,,443.009,444.222,l,1,[],[],[],[],[],[],[],0.538,1,444.223,444.722,,,,,,512,FEM,DIS,150,sopa,el,a,0.538,,444.722,444.722,0.655092593,0.06712963,0,0,0,,0,228,228,61,1,,,,
,,,,,,9d37ce5577bc6491cad3f2aa,66a626ef09d4e21e1a8894ec,6734a00b4d25a03fa9cb8c41,2024-11-13_14h21.31.773,Tarea de género gramatical,2024.2.2,Win32,60.0240096,,,,,,,,,,,,,,,,,,,,,,,,444.724,445.855,a,1,[],[],[],[],[],[],[],0.451,1,445.856,446.355,,,,,,610,MAS,CON,150,señor,,l,0.451,,446.355,446.355,0.655092593,0.06712963,0,0,0,,0,229,229,159,1,,,,
,,,,,,9d37ce5577bc6491cad3f2aa,66a626ef09d4e21e1a8894ec,6734a00b4d25a03fa9cb8c41,2024-11-13_14h21.31.773,Tarea de género gramatical,2024.2.2,Win32,60.0240096,,,,,,,,,,,,,,,,,,,,,,,,446.357,447.388,a,1,[],[],[],[],[],[],[],0.35,1,447.388,447.887,,,,,,576,MAS,AGR,150,lazo,el,l,0.35,,447.887,447.887,0.655092593,0.06712963,0,0,0,,0,230,230,125,1,,,,
,,,,,,9d37ce5577bc6491cad3f2aa,66a626ef09d4e21e1a8894ec,6734a00b4d25a03fa9cb8c41,2024-11-13_14h21.31.773,Tarea de género gramatical,2024.2.2,Win32,60.0240096,,,,,,,,,,,,,,,,,,,,,,,,447.889,448.987,l,1,[],[],[],[],[],[],[],0.419,1,448.988,449.487,,,,,,554,FEM,DIS,150,vela,el,a,0.419,,449.489,449.492,0.655092593,0.06712963,0,0,0,,0,231,231,103,1,,,,
,,,,,,9d37ce5577bc6491cad3f2aa,66a626ef09d4e21e1a8894ec,6734a00b4d25a03fa9cb8c41,2024-11-13_14h21.31.773,Tarea de género gramatical,2024.2.2,Win32,60.0240096,,,,,,,,,,,,,,,,,,,,,,,,449.493,450.537,a,1,[],[],[],[],[],[],[],0.375,1,450.537,451.037,,,,,,689,MAS,DIS,150,reloj,la,l,0.375,,451.037,451.037,0.655092593,0.06712963,0,0,0,,0,232,232,238,1,,,,
,,,,,,9d37ce5577bc6491cad3f2aa,66a626ef09d4e21e1a8894ec,6734a00b4d25a03fa9cb8c41,2024-11-13_14h21.31.773,Tarea de género gramatical,2024.2.2,Win32,60.0240096,,,,,,,,,,,,,,,,,,,,,,,,451.039,452.103,l,1,[],[],[],[],[],[],[],0.383,1,452.103,452.603,,,,,,793,FEM,CON,150,trampa,,a,0.383,,452.603,452.603,0.655092593,0.06712963,0,0,0,,0,233,233,342,1,,,,
,,,,,,9d37ce5577bc6491cad3f2aa,66a626ef09d4e21e1a8894ec,6734a00b4d25a03fa9cb8c41,2024-11-13_14h21.31.773,Tarea de género gramatical,2024.2.2,Win32,60.0240096,,,,,,,,,,,,,,,,,,,,,,,,452.605,453.786,a,0,[],[],[],[],[],[],[],0.499,0,453.787,454.285,,,,,,667,FEM,CON,150,tarea,,a,0.499,,454.285,454.287,0.655092593,0.06712963,0,0,0,,0,234,234,216,1,,,,
,,,,,,9d37ce5577bc6491cad3f2aa,66a626ef09d4e21e1a8894ec,6734a00b4d25a03fa9cb8c41,2024-11-13_14h21.31.773,Tarea de género gramatical,2024.2.2,Win32,60.0240096,,,,,,,,,,,,,,,,,,,,,,,,454.287,455.438,l,1,[],[],[],[],[],[],[],0.474,1,455.439,455.935,,,,,,603,FEM,AGR,150,mujer,la,a,0.474,,455.935,455.936,0.655092593,0.06712963,0,0,0,,0,235,235,152,1,,,,
,,,,,,9d37ce5577bc6491cad3f2aa,66a626ef09d4e21e1a8894ec,6734a00b4d25a03fa9cb8c41,2024-11-13_14h21.31.773,Tarea de género gramatical,2024.2.2,Win32,60.0240096,,,,,,,,,,,,,,,,,,,,,,,,455.938,456.967,l,1,[],[],[],[],[],[],[],0.351,1,456.967,457.467,,,,,,579,FEM,AGR,150,rana,la,a,0.351,,457.468,457.469,0.655092593,0.06712963,0,0,0,,0,236,236,128,1,,,,
,,,,,,9d37ce5577bc6491cad3f2aa,66a626ef09d4e21e1a8894ec,6734a00b4d25a03fa9cb8c41,2024-11-13_14h21.31.773,Tarea de género gramatical,2024.2.2,Win32,60.0240096,,,,,,,,,,,,,,,,,,,,,,,,457.47,458.501,a,1,[],[],[],[],[],[],[],0.348,1,458.501,459.001,,,,,,516,MAS,AGR,150,muro,el,l,0.348,,459.001,459.001,0.655092593,0.06712963,0,0,0,,0,237,237,65,1,,,,
,,,,,,9d37ce5577bc6491cad3f2aa,66a626ef09d4e21e1a8894ec,6734a00b4d25a03fa9cb8c41,2024-11-13_14h21.31.773,Tarea de género gramatical,2024.2.2,Win32,60.0240096,,,,,,,,,,,,,,,,,,,,,,,,459.003,460.017,a,1,[],[],[],[],[],[],[],0.331,1,460.017,460.517,,,,,,791,MAS,DIS,150,precio,la,l,0.331,,460.517,460.518,0.655092593,0.06712963,0,0,0,,0,238,238,340,1,,,,
,,,,,,9d37ce5577bc6491cad3f2aa,66a626ef09d4e21e1a8894ec,6734a00b4d25a03fa9cb8c41,2024-11-13_14h21.31.773,Tarea de género gramatical,2024.2.2,Win32,60.0240096,,,,,,,,,,,,,,,,,,,,,,,,460.52,461.683,l,1,[],[],[],[],[],[],[],0.483,1,461.684,462.183,,,,,,549,FEM,AGR,150,fase,la,a,0.483,,462.183,462.183,0.655092593,0.06712963,0,0,0,,0,239,239,98,1,,,,
,,,,,,9d37ce5577bc6491cad3f2aa,66a626ef09d4e21e1a8894ec,6734a00b4d25a03fa9cb8c41,2024-11-13_14h21.31.773,Tarea de género gramatical,2024.2.2,Win32,60.0240096,,,,,,,,,,,,,,,,,,,,,,,,462.184,463.282,a,0,[],[],[],[],[],[],[],0.417,0,463.283,463.782,,,,,,704,FEM,DIS,150,caída,el,a,0.417,,463.785,463.788,0.655092593,0.06712963,0,0,0,,0,240,240,253,1,,,,
,,,,,,9d37ce5577bc6491cad3f2aa,66a626ef09d4e21e1a8894ec,6734a00b4d25a03fa9cb8c41,2024-11-13_14h21.31.773,Tarea de género gramatical,2024.2.2,Win32,60.0240096,,,,,,,,,,,,,,,,,,,,,,,,463.789,464.883,l,0,[],[],[],[],[],[],[],0.416,0,464.885,465.382,,,,,,726,MAS,AGR,150,ritmo,el,l,0.416,,465.383,465.383,0.655092593,0.06712963,0,0,0,,0,241,241,275,1,,,,
,,,,,,9d37ce5577bc6491cad3f2aa,66a626ef09d4e21e1a8894ec,6734a00b4d25a03fa9cb8c41,2024-11-13_14h21.31.773,Tarea de género gramatical,2024.2.2,Win32,60.0240096,,,,,,,,,,,,,,,,,,,,,,,,465.385,466.532,l,0,[],[],[],[],[],[],[],0.468,0,466.532,467.032,,,,,,732,MAS,AGR,150,bolso,el,l,0.468,,467.032,467.033,0.655092593,0.06712963,0,0,0,,0,242,242,281,1,,,,
,,,,,,9d37ce5577bc6491cad3f2aa,66a626ef09d4e21e1a8894ec,6734a00b4d25a03fa9cb8c41,2024-11-13_14h21.31.773,Tarea de género gramatical,2024.2.2,Win32,60.0240096,,,,,,,,,,,,,,,,,,,,,,,,467.034,468.131,a,1,[],[],[],[],[],[],[],0.416,1,468.132,468.631,,,,,,498,MAS,AGR,150,loco,el,l,0.416,,468.631,468.631,0.655092593,0.06712963,0,0,0,,0,243,243,47,1,,,,
,,,,,,9d37ce5577bc6491cad3f2aa,66a626ef09d4e21e1a8894ec,6734a00b4d25a03fa9cb8c41,2024-11-13_14h21.31.773,Tarea de género gramatical,2024.2.2,Win32,60.0240096,,,,,,,,,,,,,,,,,,,,,,,,468.634,469.714,l,1,[],[],[],[],[],[],[],0.402,1,469.714,470.214,,,,,,859,FEM,CON,150,moneda,,a,0.402,,470.214,470.214,0.655092593,0.06712963,0,0,0,,0,244,244,408,1,,,,
,,,,,,9d37ce5577bc6491cad3f2aa,66a626ef09d4e21e1a8894ec,6734a00b4d25a03fa9cb8c41,2024-11-13_14h21.31.773,Tarea de género gramatical,2024.2.2,Win32,60.0240096,,,,,,,,,,,,,,,,,,,,,,,,470.216,471.264,l,0,[],[],[],[],[],[],[],0.367,0,471.265,471.763,,,,,,840,MAS,AGR,150,rostro,el,l,0.367,,471.765,471.767,0.655092593,0.06712963,0,0,0,,0,245,245,389,1,,,,
,,,,,,9d37ce5577bc6491cad3f2aa,66a626ef09d4e21e1a8894ec,6734a00b4d25a03fa9cb8c41,2024-11-13_14h21.31.773,Tarea de género gramatical,2024.2.2,Win32,60.0240096,,,,,,,,,,,,,,,,,,,,,,,,471.768,472.912,a,1,[],[],[],[],[],[],[],0.466,1,472.913,473.413,,,,,,622,MAS,CON,150,poder,,l,0.466,,473.413,473.413,0.655092593,0.06712963,0,0,0,,0,246,246,171,1,,,,
,,,,,,9d37ce5577bc6491cad3f2aa,66a626ef09d4e21e1a8894ec,6734a00b4d25a03fa9cb8c41,2024-11-13_14h21.31.773,Tarea de género gramatical,2024.2.2,Win32,60.0240096,,,,,,,,,,,,,,,,,,,,,,,,473.414,474.629,l,1,[],[],[],[],[],[],[],0.537,1,474.629,475.129,,,,,,452,FEM,DIS,150,vida,el,a,0.537,,475.129,475.129,0.655092593,0.06712963,0,0,0,,0,247,247,1,1,,,,
,,,,,,9d37ce5577bc6491cad3f2aa,66a626ef09d4e21e1a8894ec,6734a00b4d25a03fa9cb8c41,2024-11-13_14h21.31.773,Tarea de género gramatical,2024.2.2,Win32,60.0240096,,,,,,,,,,,,,,,,,,,,,,,,475.129,476.228,a,1,[],[],[],[],[],[],[],0.423,1,476.228,476.728,,,,,,520,MAS,CON,150,palo,,l,0.423,,476.728,476.728,0.655092593,0.06712963,0,0,0,,0,248,248,69,1,,,,
,,,,,,9d37ce5577bc6491cad3f2aa,66a626ef09d4e21e1a8894ec,6734a00b4d25a03fa9cb8c41,2024-11-13_14h21.31.773,Tarea de género gramatical,2024.2.2,Win32,60.0240096,,,,,,,,,,,,,,,,,,,,,,,,476.73,477.812,a,1,[],[],[],[],[],[],[],0.402,1,477.813,478.311,,,,,,808,MAS,CON,150,motivo,,l,0.402,,478.313,478.314,0.655092593,0.06712963,0,0,0,,0,249,249,357,1,,,,
,,,,,,9d37ce5577bc6491cad3f2aa,66a626ef09d4e21e1a8894ec,6734a00b4d25a03fa9cb8c41,2024-11-13_14h21.31.773,Tarea de género gramatical,2024.2.2,Win32,60.0240096,,,,,,,,,,,,,,,,,,,,,,,,478.316,479.627,a,1,[],[],[],[],[],[],[],0.632,1,479.627,480.127,,,,,,552,MAS,AGR,150,coro,el,l,0.632,,480.127,480.128,0.655092593,0.06712963,0,0,0,,0,250,250,101,1,,,,
,,,,,,9d37ce5577bc6491cad3f2aa,66a626ef09d4e21e1a8894ec,6734a00b4d25a03fa9cb8c41,2024-11-13_14h21.31.773,Tarea de género gramatical,2024.2.2,Win32,60.0240096,,,,,,,,,,,,,,,,,,,,,,,,480.131,481.193,l,1,[],[],[],[],[],[],[],0.383,1,481.193,481.693,,,,,,571,FEM,CON,150,pila,,a,0.383,,481.693,481.694,0.655092593,0.06712963,0,0,0,,0,251,251,120,1,,,,
,,,,,,9d37ce5577bc6491cad3f2aa,66a626ef09d4e21e1a8894ec,6734a00b4d25a03fa9cb8c41,2024-11-13_14h21.31.773,Tarea de género gramatical,2024.2.2,Win32,60.0240096,,,,,,,,,,,,,,,,,,,,,,,,481.696,482.859,a,1,[],[],[],[],[],[],[],0.485,1,482.86,483.359,,,,,,822,MAS,AGR,150,delito,el,l,0.485,,483.359,483.359,0.655092593,0.06712963,0,0,0,,0,252,252,371,1,,,,
,,,,,,9d37ce5577bc6491cad3f2aa,66a626ef09d4e21e1a8894ec,6734a00b4d25a03fa9cb8c41,2024-11-13_14h21.31.773,Tarea de género gramatical,2024.2.2,Win32,60.0240096,,,,,,,,,,,,,,,,,,,,,,,,483.36,484.526,l,1,[],[],[],[],[],[],[],0.483,1,484.526,485.025,,,,,,889,FEM,CON,150,toalla,,a,0.483,,485.025,485.025,0.655092593,0.06712963,0,0,0,,0,253,253,438,1,,,,
,,,,,,9d37ce5577bc6491cad3f2aa,66a626ef09d4e21e1a8894ec,6734a00b4d25a03fa9cb8c41,2024-11-13_14h21.31.773,Tarea de género gramatical,2024.2.2,Win32,60.0240096,,,,,,,,,,,,,,,,,,,,,,,,485.027,487.109,a,1,[],[],[],[],[],[],[],1.399,1,487.11,487.608,,,,,,851,MAS,DIS,150,abrigo,la,l,1.399,,487.609,487.611,0.655092593,0.06712963,0,0,0,,0,254,254,400,1,,,,
,,,,,,9d37ce5577bc6491cad3f2aa,66a626ef09d4e21e1a8894ec,6734a00b4d25a03fa9cb8c41,2024-11-13_14h21.31.773,Tarea de género gramatical,2024.2.2,Win32,60.0240096,,,,,,,,,,,,,,,,,,,,,,,,487.612,489.174,l,1,[],[],[],[],[],[],[],0.884,1,489.174,489.674,,,,,,692,FEM,DIS,150,pizza,el,a,0.884,,489.674,489.674,0.655092593,0.06712963,0,0,0,,0,255,255,241,1,,,,
,,,,,,9d37ce5577bc6491cad3f2aa,66a626ef09d4e21e1a8894ec,6734a00b4d25a03fa9cb8c41,2024-11-13_14h21.31.773,Tarea de género gramatical,2024.2.2,Win32,60.0240096,,,,,,,,,,,,,,,,,,,,,,,,489.674,491.108,l,1,[],[],[],[],[],[],[],0.752,1,491.109,491.607,,,,,,609,FEM,AGR,150,clase,la,a,0.752,,491.607,491.607,0.655092593,0.06712963,0,0,0,,0,256,256,158,1,,,,
,,,,,,9d37ce5577bc6491cad3f2aa,66a626ef09d4e21e1a8894ec,6734a00b4d25a03fa9cb8c41,2024-11-13_14h21.31.773,Tarea de género gramatical,2024.2.2,Win32,60.0240096,,,,,,,,,,,,,,,,,,,,,,,,491.609,492.89,a,1,[],[],[],[],[],[],[],0.606,1,492.89,493.39,,,,,,713,MAS,DIS,150,carro,la,l,0.606,,493.39,493.39,0.655092593,0.06712963,0,0,0,,0,257,257,262,1,,,,
,,,,,,9d37ce5577bc6491cad3f2aa,66a626ef09d4e21e1a8894ec,6734a00b4d25a03fa9cb8c41,2024-11-13_14h21.31.773,Tarea de género gramatical,2024.2.2,Win32,60.0240096,,,,,,,,,,,,,,,,,,,,,,,,493.392,494.824,a,1,[],[],[],[],[],[],[],0.758,1,494.826,495.322,,,,,,773,MAS,DIS,150,marido,la,l,0.758,,495.324,495.327,0.655092593,0.06712963,0,0,0,,0,258,258,322,1,,,,
,,,,,,9d37ce5577bc6491cad3f2aa,66a626ef09d4e21e1a8894ec,6734a00b4d25a03fa9cb8c41,2024-11-13_14h21.31.773,Tarea de género gramatical,2024.2.2,Win32,60.0240096,,,,,,,,,,,,,,,,,,,,,,,,495.329,496.605,a,1,[],[],[],[],[],[],[],0.602,1,496.605,497.105,,,,,,798,MAS,AGR,150,anillo,el,l,0.602,,497.105,497.106,0.655092593,0.06712963,0,0,0,,0,259,259,347,1,,,,
