counterbalancing_condition,consent_prescreening.block_1/declare_consent,consent_prescreening.block_1/age_years,consent_prescreening.block_1/gender,consent_prescreening.block_1/language_disorder,consent_prescreening.block_1/first_language,PROLIFIC_PID,STUDY_ID,SESSION_ID,date,expName,psychopyVersion,OS,frameRate,check_prescreening_answers.started,check_prescreening_answers.stopped,Instructions.started,Instructions.stopped,instr_done_keyboard.keys,instr_done_touch.x,instr_done_touch.y,instr_done_touch.leftButton,instr_done_touch.midButton,instr_done_touch.rightButton,instr_done_touch.clicked_name,instruction_pages.thisRepN,instruction_pages.thisTrialN,instruction_pages.thisN,instruction_pages.thisIndex,instruction_pages.ran,pageN,phase,instruct_text,has_image,instruct_image,instr_done_keyboard.rt,instr_done_keyboard.duration,presentTrial.started,presentTrial.stopped,response.keys,response.corr,touch_resp.x,touch_resp.y,touch_resp.leftButton,touch_resp.midButton,touch_resp.rightButton,touch_resp.time,touch_resp.clicked_name,rt,corr,feedback.started,feedback.stopped,practice_trials.thisRepN,practice_trials.thisTrialN,practice_trials.thisN,practice_trials.thisIndex,practice_trials.ran,TrialID,StimulusType,Condition,PrimeDuration,Prime,Flanker,corrAns,response.rt,response.duration,Break.started,Break.stopped,break_done_touch.x,break_done_touch.y,break_done_touch.leftButton,break_done_touch.midButton,break_done_touch.rightButton,break_done_keyboard.keys,experiment_trials.thisRepN,experiment_trials.thisTrialN,experiment_trials.thisN,experiment_trials.thisIndex,experiment_trials.ran,break_done_keyboard.rt,break_done_keyboard.duration,End.started,End.stopped
1,"[""over_18"",""comfortable"",""read_info"",""consent_given""]",39,M,"[""none""]","[""spanish""]",9fe26927e92f47a550413d30,66a626ef09d4e21e1a8894ec,6734e020009085085a669e23,2024-11-13_18h23.24.124,Tarea de género gramatical,2024.2.2,Win32,60.24096386,,,,,,,,,,,,,,,,,,,,,,,,,,,,,,,,,,,,,,,,,,,,,,,,,,,,,,,,,,,,,,,,,,,,,
,,,,,,9fe26927e92f47a550413d30,66a626ef09d4e21e1a8894ec,6734e020009085085a669e23,2024-11-13_18h23.24.124,Tarea de género gramatical,2024.2.2,Win32,60.24096386,54.8218,54.8223,,,,,,,,,,,,,,,,,,,,,,,,,,,,,,,,,,,,,,,,,,,,,,,,,,,,,,,,,,,,,,,,,,,
,,,,,,9fe26927e92f47a550413d30,66a626ef09d4e21e1a8894ec,6734e020009085085a669e23,2024-11-13_18h23.24.124,Tarea de género gramatical,2024.2.2,Win32,60.24096386,,,54.8824,69.6462,,-0.018518541,-0.401851874,1,0,0,instr_done_button,0,0,0,0,1,1,instructions,"INSTRUCCIONES
Va a realizar una prueba de selección gramatical. Desde el comienzo de la prueba mire siempre al centro de la pantalla. Al cabo de un momento, aparecerán palabras. La tarea consiste en determinar si la palabra del centro (siempre será un sustantivo), pertenece al género masculino o femenino.

Pulse la tecla ESPACIO o toque el botón de abajo para continuar.",0,keyboardresponseFM.png,,,,,,,,,,,,,,,,,,,,,,,,,,,,,,,,,,,,,,,,,,,,,,,,
,,,,,,9fe26927e92f47a550413d30,66a626ef09d4e21e1a8894ec,6734e020009085085a669e23,2024-11-13_18h23.24.124,Tarea de género gramatical,2024.2.2,Win32,60.24096386,,,69.6772,90.3008,,-0.018518541,-0.400000068,1,0,0,instr_done_button,0,1,1,1,1,2,instructions,"Si su dispositivo tiene teclado, pulse la tecla ""A"" para las palabras en femenino (por ejemplo: ""mano"") y la tecla ""L"" para las palabras en masculino(por ejemplo: ""arroz"").
Pulse la tecla ESPACIO o toque el botón de abajo para continuar.",1,keyboardresponseFM.png,,,,,,,,,,,,,,,,,,,,,,,,,,,,,,,,,,,,,,,,,,,,,,,,
,,,,,,9fe26927e92f47a550413d30,66a626ef09d4e21e1a8894ec,6734e020009085085a669e23,2024-11-13_18h23.24.124,Tarea de género gramatical,2024.2.2,Win32,60.24096386,,,90.3072,94.8961,space,-0.018518541,-0.400000068,0,0,0,,0,2,2,2,1,3,instructions,"Si utiliza un dispositivo sólo táctil, colóquelo en horizontal y utilice los botones de la pantalla. No utilice el ratón.
Pulse la tecla ESPACIO o toque el botón de abajo para continuar.",2,touchresponseFM.png,4.4993,,,,,,,,,,,,,,,,,,,,,,,,,,,,,,,,,,,,,,,,,,,,,,,
,,,,,,9fe26927e92f47a550413d30,66a626ef09d4e21e1a8894ec,6734e020009085085a669e23,2024-11-13_18h23.24.124,Tarea de género gramatical,2024.2.2,Win32,60.24096386,,,94.9024,108.3831,space,-0.020370348,-0.390740763,0,0,0,,0,3,3,3,1,4,instructions,"Es muy importante que responda con la mayor rapidez y precisión posibles, ya que cada cadena de letras sólo estará en pantalla durante un instante. Si no responde en ese tiempo, aparecerá el mensaje ""Muy lento"" y el experimento pasará a la siguiente palabra. Los primeros 15 intentos serán de práctica y habrá dos descansos durante la prueba.
Pulse la tecla ESPACIO o toque el botón de abajo para iniciar la parte de práctica.",0,keyboardresponseFM.png,13.4413,,,,,,,,,,,,,,,,,,,,,,,,,,,,,,,,,,,,,,,,,,,,,,,
,,,,,,9fe26927e92f47a550413d30,66a626ef09d4e21e1a8894ec,6734e020009085085a669e23,2024-11-13_18h23.24.124,Tarea de género gramatical,2024.2.2,Win32,60.24096386,,,,,,,,,,,,,,,,,,,,,,,,108.4402,111.0888,,0,[],[],[],[],[],[],[],,-1,111.0901,111.5995,0,0,0,9,1,2010,MAS,AGR,150,vecino,el,l,,,,,,,,,,,,,,,,,,,
,,,,,,9fe26927e92f47a550413d30,66a626ef09d4e21e1a8894ec,6734e020009085085a669e23,2024-11-13_18h23.24.124,Tarea de género gramatical,2024.2.2,Win32,60.24096386,,,,,,,,,,,,,,,,,,,,,,,,111.6025,113.2715,l,1,[],[],[],[],[],[],[],0.983,1,113.574,113.6372,0,1,1,10,1,2011,MAS,CON,150,canal,,l,0.983,,,,,,,,,,,,,,,,,,
,,,,,,9fe26927e92f47a550413d30,66a626ef09d4e21e1a8894ec,6734e020009085085a669e23,2024-11-13_18h23.24.124,Tarea de género gramatical,2024.2.2,Win32,60.24096386,,,,,,,,,,,,,,,,,,,,,,,,113.6424,115.0359,a,0,[],[],[],[],[],[],[],0.7109,0,115.0385,115.5379,0,2,2,14,1,2015,MAS,DIS,150,robot,la,l,0.7109,,,,,,,,,,,,,,,,,,
,,,,,,9fe26927e92f47a550413d30,66a626ef09d4e21e1a8894ec,6734e020009085085a669e23,2024-11-13_18h23.24.124,Tarea de género gramatical,2024.2.2,Win32,60.24096386,,,,,,,,,,,,,,,,,,,,,,,,115.541,116.8274,l,1,[],[],[],[],[],[],[],0.5848,1,116.8293,117.3072,0,3,3,13,1,2014,MAS,CON,150,siglo,,l,0.5848,,,,,,,,,,,,,,,,,,
,,,,,,9fe26927e92f47a550413d30,66a626ef09d4e21e1a8894ec,6734e020009085085a669e23,2024-11-13_18h23.24.124,Tarea de género gramatical,2024.2.2,Win32,60.24096386,,,,,,,,,,,,,,,,,,,,,,,,117.3098,118.5752,a,1,[],[],[],[],[],[],[],0.5908,1,118.5754,119.0684,0,4,4,1,1,2002,FEM,CON,150,pala,,a,0.5908,,,,,,,,,,,,,,,,,,
,,,,,,9fe26927e92f47a550413d30,66a626ef09d4e21e1a8894ec,6734e020009085085a669e23,2024-11-13_18h23.24.124,Tarea de género gramatical,2024.2.2,Win32,60.24096386,,,,,,,,,,,,,,,,,,,,,,,,119.0708,120.2716,a,1,[],[],[],[],[],[],[],0.5308,1,120.2719,120.7638,0,5,5,4,1,2005,FEM,CON,150,placa,,a,0.5308,,,,,,,,,,,,,,,,,,
,,,,,,9fe26927e92f47a550413d30,66a626ef09d4e21e1a8894ec,6734e020009085085a669e23,2024-11-13_18h23.24.124,Tarea de género gramatical,2024.2.2,Win32,60.24096386,,,,,,,,,,,,,,,,,,,,,,,,120.7661,121.991,a,1,[],[],[],[],[],[],[],0.5501,1,121.9911,122.4921,0,6,6,7,1,2008,FEM,CON,150,siesta,,a,0.5501,,,,,,,,,,,,,,,,,,
,,,,,,9fe26927e92f47a550413d30,66a626ef09d4e21e1a8894ec,6734e020009085085a669e23,2024-11-13_18h23.24.124,Tarea de género gramatical,2024.2.2,Win32,60.24096386,,,,,,,,,,,,,,,,,,,,,,,,122.4948,123.6194,l,0,[],[],[],[],[],[],[],0.4457,0,123.6214,124.1127,0,7,7,5,1,2006,FEM,DIS,150,serie,el,a,0.4457,,,,,,,,,,,,,,,,,,
,,,,,,9fe26927e92f47a550413d30,66a626ef09d4e21e1a8894ec,6734e020009085085a669e23,2024-11-13_18h23.24.124,Tarea de género gramatical,2024.2.2,Win32,60.24096386,,,,,,,,,,,,,,,,,,,,,,,,124.1154,125.3695,a,0,[],[],[],[],[],[],[],0.5679,0,125.3695,125.8581,0,8,8,12,1,2013,MAS,AGR,150,acero,el,l,0.5679,,,,,,,,,,,,,,,,,,
,,,,,,9fe26927e92f47a550413d30,66a626ef09d4e21e1a8894ec,6734e020009085085a669e23,2024-11-13_18h23.24.124,Tarea de género gramatical,2024.2.2,Win32,60.24096386,,,,,,,,,,,,,,,,,,,,,,,,125.8613,127.3544,a,1,[],[],[],[],[],[],[],0.8122,1,127.3567,127.8461,0,9,9,6,1,2007,FEM,AGR,150,navaja,la,a,0.8122,,,,,,,,,,,,,,,,,,
,,,,,,9fe26927e92f47a550413d30,66a626ef09d4e21e1a8894ec,6734e020009085085a669e23,2024-11-13_18h23.24.124,Tarea de género gramatical,2024.2.2,Win32,60.24096386,,,,,,,,,,,,,,,,,,,,,,,,127.85,129.1961,a,1,[],[],[],[],[],[],[],0.6728,1,129.1963,129.7019,0,10,10,2,1,2003,FEM,DIS,150,daga,el,a,0.6728,,,,,,,,,,,,,,,,,,
,,,,,,9fe26927e92f47a550413d30,66a626ef09d4e21e1a8894ec,6734e020009085085a669e23,2024-11-13_18h23.24.124,Tarea de género gramatical,2024.2.2,Win32,60.24096386,,,,,,,,,,,,,,,,,,,,,,,,129.7037,130.7922,a,1,[],[],[],[],[],[],[],0.3976,1,130.7924,131.3013,0,11,11,3,1,2004,FEM,AGR,150,venta,la,a,0.3976,,,,,,,,,,,,,,,,,,
,,,,,,9fe26927e92f47a550413d30,66a626ef09d4e21e1a8894ec,6734e020009085085a669e23,2024-11-13_18h23.24.124,Tarea de género gramatical,2024.2.2,Win32,60.24096386,,,,,,,,,,,,,,,,,,,,,,,,131.3044,132.6198,l,1,[],[],[],[],[],[],[],0.6203,1,132.6199,133.1054,0,12,12,8,1,2009,MAS,DIS,150,puerto,la,l,0.6203,,,,,,,,,,,,,,,,,,
,,,,,,9fe26927e92f47a550413d30,66a626ef09d4e21e1a8894ec,6734e020009085085a669e23,2024-11-13_18h23.24.124,Tarea de género gramatical,2024.2.2,Win32,60.24096386,,,,,,,,,,,,,,,,,,,,,,,,133.1086,134.5849,a,1,[],[],[],[],[],[],[],0.792,1,134.585,135.0685,0,13,13,0,1,2001,FEM,AGR,150,nuca,la,a,0.792,,,,,,,,,,,,,,,,,,
,,,,,,9fe26927e92f47a550413d30,66a626ef09d4e21e1a8894ec,6734e020009085085a669e23,2024-11-13_18h23.24.124,Tarea de género gramatical,2024.2.2,Win32,60.24096386,,,,,,,,,,,,,,,,,,,,,,,,135.0722,136.4521,a,0,[],[],[],[],[],[],[],0.7107,0,136.4544,136.9475,0,14,14,11,1,2012,MAS,DIS,150,clima,la,l,0.7107,,,,,,,,,,,,,,,,,,
,,,,,,9fe26927e92f47a550413d30,66a626ef09d4e21e1a8894ec,6734e020009085085a669e23,2024-11-13_18h23.24.124,Tarea de género gramatical,2024.2.2,Win32,60.24096386,,,142.2328,145.4568,space,-0.020370348,-0.390740763,0,0,0,,,,,,,,,,,,3.1817,,145.7141,147.287,l,1,[],[],[],[],[],[],[],0.8896,1,147.2897,147.7884,,,,,,468,MAS,AGR,150,tren,el,l,0.8896,,147.789,147.8002,-0.020370348,-0.390740763,0,0,0,,0,0,0,17,1,,,,
,,,,,,9fe26927e92f47a550413d30,66a626ef09d4e21e1a8894ec,6734e020009085085a669e23,2024-11-13_18h23.24.124,Tarea de género gramatical,2024.2.2,Win32,60.24096386,,,,,,,,,,,,,,,,,,,,,,,,147.8038,149.0105,a,1,[],[],[],[],[],[],[],0.5345,1,149.011,149.5147,,,,,,625,FEM,CON,150,señal,,a,0.5345,,149.5148,149.515,-0.020370348,-0.390740763,0,0,0,,0,1,1,174,1,,,,
,,,,,,9fe26927e92f47a550413d30,66a626ef09d4e21e1a8894ec,6734e020009085085a669e23,2024-11-13_18h23.24.124,Tarea de género gramatical,2024.2.2,Win32,60.24096386,,,,,,,,,,,,,,,,,,,,,,,,149.5177,150.6694,l,1,[],[],[],[],[],[],[],0.461,1,150.6696,151.1521,,,,,,766,MAS,CON,150,cuerpo,,l,0.461,,151.1563,151.1583,-0.020370348,-0.390740763,0,0,0,,0,2,2,315,1,,,,
,,,,,,9fe26927e92f47a550413d30,66a626ef09d4e21e1a8894ec,6734e020009085085a669e23,2024-11-13_18h23.24.124,Tarea de género gramatical,2024.2.2,Win32,60.24096386,,,,,,,,,,,,,,,,,,,,,,,,151.1606,152.5468,l,1,[],[],[],[],[],[],[],0.7031,1,152.547,153.0267,,,,,,671,MAS,DIS,150,brazo,la,l,0.7031,,153.0269,153.0271,-0.020370348,-0.390740763,0,0,0,,0,3,3,220,1,,,,
,,,,,,9fe26927e92f47a550413d30,66a626ef09d4e21e1a8894ec,6734e020009085085a669e23,2024-11-13_18h23.24.124,Tarea de género gramatical,2024.2.2,Win32,60.24096386,,,,,,,,,,,,,,,,,,,,,,,,153.0307,154.6474,l,0,[],[],[],[],[],[],[],0.928,0,154.6494,155.124,,,,,,662,FEM,DIS,150,cinta,el,a,0.928,,155.1242,155.1245,-0.020370348,-0.390740763,0,0,0,,0,4,4,211,1,,,,
,,,,,,9fe26927e92f47a550413d30,66a626ef09d4e21e1a8894ec,6734e020009085085a669e23,2024-11-13_18h23.24.124,Tarea de género gramatical,2024.2.2,Win32,60.24096386,,,,,,,,,,,,,,,,,,,,,,,,155.1288,156.6819,l,1,[],[],[],[],[],[],[],0.8683,1,156.684,157.1855,,,,,,599,MAS,DIS,150,nudo,la,l,0.8683,,157.1856,157.1858,-0.020370348,-0.390740763,0,0,0,,0,5,5,148,1,,,,
,,,,,,9fe26927e92f47a550413d30,66a626ef09d4e21e1a8894ec,6734e020009085085a669e23,2024-11-13_18h23.24.124,Tarea de género gramatical,2024.2.2,Win32,60.24096386,,,,,,,,,,,,,,,,,,,,,,,,157.1887,158.5099,a,1,[],[],[],[],[],[],[],0.6481,1,158.51,159.0226,,,,,,794,FEM,DIS,150,pareja,el,a,0.6481,,159.026,159.0274,-0.020370348,-0.390740763,0,0,0,,0,6,6,343,1,,,,
,,,,,,9fe26927e92f47a550413d30,66a626ef09d4e21e1a8894ec,6734e020009085085a669e23,2024-11-13_18h23.24.124,Tarea de género gramatical,2024.2.2,Win32,60.24096386,,,,,,,,,,,,,,,,,,,,,,,,159.0285,160.2313,a,1,[],[],[],[],[],[],[],0.5114,1,160.2314,160.7243,,,,,,507,FEM,AGR,150,moda,la,a,0.5114,,160.7245,160.7246,-0.020370348,-0.390740763,0,0,0,,0,7,7,56,1,,,,
,,,,,,9fe26927e92f47a550413d30,66a626ef09d4e21e1a8894ec,6734e020009085085a669e23,2024-11-13_18h23.24.124,Tarea de género gramatical,2024.2.2,Win32,60.24096386,,,,,,,,,,,,,,,,,,,,,,,,160.7273,162.0363,a,1,[],[],[],[],[],[],[],0.6141,1,162.0363,162.5355,,,,,,705,FEM,AGR,150,tribu,la,a,0.6141,,162.5356,162.5358,-0.020370348,-0.390740763,0,0,0,,0,8,8,254,1,,,,
,,,,,,9fe26927e92f47a550413d30,66a626ef09d4e21e1a8894ec,6734e020009085085a669e23,2024-11-13_18h23.24.124,Tarea de género gramatical,2024.2.2,Win32,60.24096386,,,,,,,,,,,,,,,,,,,,,,,,162.5385,163.7392,a,1,[],[],[],[],[],[],[],0.5155,1,163.7395,164.2303,,,,,,517,FEM,CON,150,miel,,a,0.5155,,164.2304,164.2307,-0.020370348,-0.390740763,0,0,0,,0,9,9,66,1,,,,
,,,,,,9fe26927e92f47a550413d30,66a626ef09d4e21e1a8894ec,6734e020009085085a669e23,2024-11-13_18h23.24.124,Tarea de género gramatical,2024.2.2,Win32,60.24096386,,,,,,,,,,,,,,,,,,,,,,,,164.2348,165.4233,l,1,[],[],[],[],[],[],[],0.4989,1,165.4235,165.9149,,,,,,522,MAS,AGR,150,hoyo,el,l,0.4989,,165.915,165.9153,-0.020370348,-0.390740763,0,0,0,,0,10,10,71,1,,,,
,,,,,,9fe26927e92f47a550413d30,66a626ef09d4e21e1a8894ec,6734e020009085085a669e23,2024-11-13_18h23.24.124,Tarea de género gramatical,2024.2.2,Win32,60.24096386,,,,,,,,,,,,,,,,,,,,,,,,165.9181,167.1447,a,1,[],[],[],[],[],[],[],0.5467,1,167.145,167.6539,,,,,,685,FEM,CON,150,torre,,a,0.5467,,167.657,167.6593,-0.020370348,-0.390740763,0,0,0,,0,11,11,234,1,,,,
,,,,,,9fe26927e92f47a550413d30,66a626ef09d4e21e1a8894ec,6734e020009085085a669e23,2024-11-13_18h23.24.124,Tarea de género gramatical,2024.2.2,Win32,60.24096386,,,,,,,,,,,,,,,,,,,,,,,,167.6608,168.9063,l,1,[],[],[],[],[],[],[],0.565,1,168.9064,169.4103,,,,,,820,MAS,CON,150,seguro,,l,0.565,,169.4104,169.4105,-0.020370348,-0.390740763,0,0,0,,0,12,12,369,1,,,,
,,,,,,9fe26927e92f47a550413d30,66a626ef09d4e21e1a8894ec,6734e020009085085a669e23,2024-11-13_18h23.24.124,Tarea de género gramatical,2024.2.2,Win32,60.24096386,,,,,,,,,,,,,,,,,,,,,,,,169.4139,170.5908,a,1,[],[],[],[],[],[],[],0.4871,1,170.5908,171.0862,,,,,,793,FEM,CON,150,trampa,,a,0.4871,,171.0864,171.0868,-0.020370348,-0.390740763,0,0,0,,0,13,13,342,1,,,,
,,,,,,9fe26927e92f47a550413d30,66a626ef09d4e21e1a8894ec,6734e020009085085a669e23,2024-11-13_18h23.24.124,Tarea de género gramatical,2024.2.2,Win32,60.24096386,,,,,,,,,,,,,,,,,,,,,,,,171.0892,172.1569,a,1,[],[],[],[],[],[],[],0.3716,1,172.157,172.6684,,,,,,883,FEM,CON,150,huella,,a,0.3716,,172.6686,172.6688,-0.020370348,-0.390740763,0,0,0,,0,14,14,432,1,,,,
,,,,,,9fe26927e92f47a550413d30,66a626ef09d4e21e1a8894ec,6734e020009085085a669e23,2024-11-13_18h23.24.124,Tarea de género gramatical,2024.2.2,Win32,60.24096386,,,,,,,,,,,,,,,,,,,,,,,,172.6713,173.7691,l,1,[],[],[],[],[],[],[],0.4106,1,173.7693,174.2634,,,,,,702,MAS,AGR,150,viejo,el,l,0.4106,,174.2673,174.2692,-0.020370348,-0.390740763,0,0,0,,0,15,15,251,1,,,,
,,,,,,9fe26927e92f47a550413d30,66a626ef09d4e21e1a8894ec,6734e020009085085a669e23,2024-11-13_18h23.24.124,Tarea de género gramatical,2024.2.2,Win32,60.24096386,,,,,,,,,,,,,,,,,,,,,,,,174.2704,175.3815,a,1,[],[],[],[],[],[],[],0.4237,1,175.3816,175.884,,,,,,596,FEM,DIS,150,lana,el,a,0.4237,,175.8841,175.8842,-0.020370348,-0.390740763,0,0,0,,0,16,16,145,1,,,,
,,,,,,9fe26927e92f47a550413d30,66a626ef09d4e21e1a8894ec,6734e020009085085a669e23,2024-11-13_18h23.24.124,Tarea de género gramatical,2024.2.2,Win32,60.24096386,,,,,,,,,,,,,,,,,,,,,,,,175.8866,177.0601,a,1,[],[],[],[],[],[],[],0.4972,1,177.0602,177.5592,,,,,,717,FEM,AGR,150,barba,la,a,0.4972,,177.5593,177.5594,-0.020370348,-0.390740763,0,0,0,,0,17,17,266,1,,,,
,,,,,,9fe26927e92f47a550413d30,66a626ef09d4e21e1a8894ec,6734e020009085085a669e23,2024-11-13_18h23.24.124,Tarea de género gramatical,2024.2.2,Win32,60.24096386,,,,,,,,,,,,,,,,,,,,,,,,177.5619,178.8521,l,1,[],[],[],[],[],[],[],0.5975,1,178.8523,179.3524,,,,,,670,MAS,CON,150,huevo,,l,0.5975,,179.3525,179.3527,-0.020370348,-0.390740763,0,0,0,,0,18,18,219,1,,,,
,,,,,,9fe26927e92f47a550413d30,66a626ef09d4e21e1a8894ec,6734e020009085085a669e23,2024-11-13_18h23.24.124,Tarea de género gramatical,2024.2.2,Win32,60.24096386,,,,,,,,,,,,,,,,,,,,,,,,179.3562,180.3815,l,1,[],[],[],[],[],[],[],0.3406,1,180.3818,180.8681,,,,,,748,MAS,CON,150,botón,,l,0.3406,,180.8682,180.8684,-0.020370348,-0.390740763,0,0,0,,0,19,19,297,1,,,,
,,,,,,9fe26927e92f47a550413d30,66a626ef09d4e21e1a8894ec,6734e020009085085a669e23,2024-11-13_18h23.24.124,Tarea de género gramatical,2024.2.2,Win32,60.24096386,,,,,,,,,,,,,,,,,,,,,,,,180.871,182.0026,a,1,[],[],[],[],[],[],[],0.4473,1,182.0028,182.4915,,,,,,493,FEM,CON,150,nena,,a,0.4473,,182.4949,182.4967,-0.020370348,-0.390740763,0,0,0,,0,20,20,42,1,,,,
,,,,,,9fe26927e92f47a550413d30,66a626ef09d4e21e1a8894ec,6734e020009085085a669e23,2024-11-13_18h23.24.124,Tarea de género gramatical,2024.2.2,Win32,60.24096386,,,,,,,,,,,,,,,,,,,,,,,,182.4981,183.7691,a,1,[],[],[],[],[],[],[],0.5835,1,183.7691,184.2527,,,,,,835,FEM,CON,150,muñeca,,a,0.5835,,184.2528,184.253,-0.020370348,-0.390740763,0,0,0,,0,21,21,384,1,,,,
,,,,,,9fe26927e92f47a550413d30,66a626ef09d4e21e1a8894ec,6734e020009085085a669e23,2024-11-13_18h23.24.124,Tarea de género gramatical,2024.2.2,Win32,60.24096386,,,,,,,,,,,,,,,,,,,,,,,,184.2568,185.4215,l,1,[],[],[],[],[],[],[],0.4914,1,185.4217,185.9179,,,,,,581,MAS,DIS,150,kilo,la,l,0.4914,,185.918,185.9182,-0.020370348,-0.390740763,0,0,0,,0,22,22,130,1,,,,
,,,,,,9fe26927e92f47a550413d30,66a626ef09d4e21e1a8894ec,6734e020009085085a669e23,2024-11-13_18h23.24.124,Tarea de género gramatical,2024.2.2,Win32,60.24096386,,,,,,,,,,,,,,,,,,,,,,,,185.9207,186.9773,l,1,[],[],[],[],[],[],[],0.3718,1,186.9775,187.454,,,,,,852,MAS,AGR,150,ladrón,el,l,0.3718,,187.454,187.4542,-0.020370348,-0.390740763,0,0,0,,0,23,23,401,1,,,,
,,,,,,9fe26927e92f47a550413d30,66a626ef09d4e21e1a8894ec,6734e020009085085a669e23,2024-11-13_18h23.24.124,Tarea de género gramatical,2024.2.2,Win32,60.24096386,,,,,,,,,,,,,,,,,,,,,,,,187.4567,188.4478,a,1,[],[],[],[],[],[],[],0.297,1,188.448,188.9404,,,,,,825,FEM,AGR,150,cadena,la,a,0.297,,188.9446,188.9464,-0.020370348,-0.390740763,0,0,0,,0,24,24,374,1,,,,
,,,,,,9fe26927e92f47a550413d30,66a626ef09d4e21e1a8894ec,6734e020009085085a669e23,2024-11-13_18h23.24.124,Tarea de género gramatical,2024.2.2,Win32,60.24096386,,,,,,,,,,,,,,,,,,,,,,,,188.9481,190.1431,l,1,[],[],[],[],[],[],[],0.5009,1,190.1432,190.6516,,,,,,778,MAS,CON,150,asunto,,l,0.5009,,190.6517,190.652,-0.020370348,-0.390740763,0,0,0,,0,25,25,327,1,,,,
,,,,,,9fe26927e92f47a550413d30,66a626ef09d4e21e1a8894ec,6734e020009085085a669e23,2024-11-13_18h23.24.124,Tarea de género gramatical,2024.2.2,Win32,60.24096386,,,,,,,,,,,,,,,,,,,,,,,,190.6556,191.892,a,1,[],[],[],[],[],[],[],0.5651,1,191.8922,192.392,,,,,,710,FEM,DIS,150,barra,el,a,0.5651,,192.3922,192.3926,-0.020370348,-0.390740763,0,0,0,,0,26,26,259,1,,,,
,,,,,,9fe26927e92f47a550413d30,66a626ef09d4e21e1a8894ec,6734e020009085085a669e23,2024-11-13_18h23.24.124,Tarea de género gramatical,2024.2.2,Win32,60.24096386,,,,,,,,,,,,,,,,,,,,,,,,192.3955,193.6154,l,1,[],[],[],[],[],[],[],0.5314,1,193.6155,194.0923,,,,,,582,MAS,AGR,150,velo,el,l,0.5314,,194.0924,194.0926,-0.020370348,-0.390740763,0,0,0,,0,27,27,131,1,,,,
,,,,,,9fe26927e92f47a550413d30,66a626ef09d4e21e1a8894ec,6734e020009085085a669e23,2024-11-13_18h23.24.124,Tarea de género gramatical,2024.2.2,Win32,60.24096386,,,,,,,,,,,,,,,,,,,,,,,,194.0955,195.3757,a,0,[],[],[],[],[],[],[],0.5946,0,195.378,195.8586,,,,,,641,MAS,DIS,150,dolor,la,l,0.5946,,195.8588,195.859,-0.020370348,-0.390740763,0,0,0,,0,28,28,190,1,,,,
,,,,,,9fe26927e92f47a550413d30,66a626ef09d4e21e1a8894ec,6734e020009085085a669e23,2024-11-13_18h23.24.124,Tarea de género gramatical,2024.2.2,Win32,60.24096386,,,,,,,,,,,,,,,,,,,,,,,,195.8624,197.1281,l,1,[],[],[],[],[],[],[],0.5917,1,197.1299,197.625,,,,,,875,MAS,DIS,150,chiste,la,l,0.5917,,197.6306,197.6324,-0.020370348,-0.390740763,0,0,0,,0,29,29,424,1,,,,
,,,,,,9fe26927e92f47a550413d30,66a626ef09d4e21e1a8894ec,6734e020009085085a669e23,2024-11-13_18h23.24.124,Tarea de género gramatical,2024.2.2,Win32,60.24096386,,,,,,,,,,,,,,,,,,,,,,,,197.6334,198.7601,l,1,[],[],[],[],[],[],[],0.4307,1,198.7604,199.2375,,,,,,550,MAS,CON,150,nido,,l,0.4307,,199.2376,199.2378,-0.020370348,-0.390740763,0,0,0,,0,30,30,99,1,,,,
,,,,,,9fe26927e92f47a550413d30,66a626ef09d4e21e1a8894ec,6734e020009085085a669e23,2024-11-13_18h23.24.124,Tarea de género gramatical,2024.2.2,Win32,60.24096386,,,,,,,,,,,,,,,,,,,,,,,,199.2397,200.4578,a,1,[],[],[],[],[],[],[],0.5398,1,200.4579,200.9357,,,,,,679,FEM,CON,150,celda,,a,0.5398,,200.9359,200.9362,-0.020370348,-0.390740763,0,0,0,,0,31,31,228,1,,,,
,,,,,,9fe26927e92f47a550413d30,66a626ef09d4e21e1a8894ec,6734e020009085085a669e23,2024-11-13_18h23.24.124,Tarea de género gramatical,2024.2.2,Win32,60.24096386,,,,,,,,,,,,,,,,,,,,,,,,200.9391,202.1736,a,1,[],[],[],[],[],[],[],0.5557,1,202.1738,202.6736,,,,,,583,FEM,CON,150,joya,,a,0.5557,,202.6738,202.674,-0.020370348,-0.390740763,0,0,0,,0,32,32,132,1,,,,
,,,,,,9fe26927e92f47a550413d30,66a626ef09d4e21e1a8894ec,6734e020009085085a669e23,2024-11-13_18h23.24.124,Tarea de género gramatical,2024.2.2,Win32,60.24096386,,,,,,,,,,,,,,,,,,,,,,,,202.6772,203.8477,a,1,[],[],[],[],[],[],[],0.4804,1,203.8478,204.3466,,,,,,572,FEM,DIS,150,loca,el,a,0.4804,,204.3504,204.3523,-0.020370348,-0.390740763,0,0,0,,0,33,33,121,1,,,,
,,,,,,9fe26927e92f47a550413d30,66a626ef09d4e21e1a8894ec,6734e020009085085a669e23,2024-11-13_18h23.24.124,Tarea de género gramatical,2024.2.2,Win32,60.24096386,,,,,,,,,,,,,,,,,,,,,,,,204.3534,205.484,l,1,[],[],[],[],[],[],[],0.4385,1,205.4841,205.9803,,,,,,672,MAS,AGR,150,valor,el,l,0.4385,,205.9804,205.9807,-0.020370348,-0.390740763,0,0,0,,0,34,34,221,1,,,,
,,,,,,9fe26927e92f47a550413d30,66a626ef09d4e21e1a8894ec,6734e020009085085a669e23,2024-11-13_18h23.24.124,Tarea de género gramatical,2024.2.2,Win32,60.24096386,,,,,,,,,,,,,,,,,,,,,,,,205.983,207.2734,a,1,[],[],[],[],[],[],[],0.6112,1,207.2736,207.7731,,,,,,565,FEM,CON,150,seda,,a,0.6112,,207.7733,207.7736,-0.020370348,-0.390740763,0,0,0,,0,35,35,114,1,,,,
,,,,,,9fe26927e92f47a550413d30,66a626ef09d4e21e1a8894ec,6734e020009085085a669e23,2024-11-13_18h23.24.124,Tarea de género gramatical,2024.2.2,Win32,60.24096386,,,,,,,,,,,,,,,,,,,,,,,,207.7774,208.8924,l,1,[],[],[],[],[],[],[],0.4364,1,208.8926,209.368,,,,,,606,MAS,AGR,150,amigo,el,l,0.4364,,209.3681,209.3682,-0.020370348,-0.390740763,0,0,0,,0,36,36,155,1,,,,
,,,,,,9fe26927e92f47a550413d30,66a626ef09d4e21e1a8894ec,6734e020009085085a669e23,2024-11-13_18h23.24.124,Tarea de género gramatical,2024.2.2,Win32,60.24096386,,,,,,,,,,,,,,,,,,,,,,,,209.3713,210.5521,a,1,[],[],[],[],[],[],[],0.5074,1,210.5524,211.0516,,,,,,758,FEM,DIS,150,semana,el,a,0.5074,,211.0518,211.0519,-0.020370348,-0.390740763,0,0,0,,0,37,37,307,1,,,,
,,,,,,9fe26927e92f47a550413d30,66a626ef09d4e21e1a8894ec,6734e020009085085a669e23,2024-11-13_18h23.24.124,Tarea de género gramatical,2024.2.2,Win32,60.24096386,,,,,,,,,,,,,,,,,,,,,,,,211.0544,212.3209,a,1,[],[],[],[],[],[],[],0.5796,1,212.321,212.8215,,,,,,506,FEM,DIS,150,bola,el,a,0.5796,,212.8257,212.8279,-0.020370348,-0.390740763,0,0,0,,0,38,38,55,1,,,,
,,,,,,9fe26927e92f47a550413d30,66a626ef09d4e21e1a8894ec,6734e020009085085a669e23,2024-11-13_18h23.24.124,Tarea de género gramatical,2024.2.2,Win32,60.24096386,,,,,,,,,,,,,,,,,,,,,,,,212.8294,213.9971,l,1,[],[],[],[],[],[],[],0.4761,1,213.9972,214.5031,,,,,,564,MAS,AGR,150,menú,el,l,0.4761,,214.5032,214.5033,-0.020370348,-0.390740763,0,0,0,,0,39,39,113,1,,,,
,,,,,,9fe26927e92f47a550413d30,66a626ef09d4e21e1a8894ec,6734e020009085085a669e23,2024-11-13_18h23.24.124,Tarea de género gramatical,2024.2.2,Win32,60.24096386,,,,,,,,,,,,,,,,,,,,,,,,214.5059,215.6064,a,1,[],[],[],[],[],[],[],0.4256,1,215.6065,216.1012,,,,,,722,FEM,DIS,150,oreja,el,a,0.4256,,216.1013,216.1014,-0.020370348,-0.390740763,0,0,0,,0,40,40,271,1,,,,
,,,,,,9fe26927e92f47a550413d30,66a626ef09d4e21e1a8894ec,6734e020009085085a669e23,2024-11-13_18h23.24.124,Tarea de género gramatical,2024.2.2,Win32,60.24096386,,,,,,,,,,,,,,,,,,,,,,,,216.104,217.3019,a,1,[],[],[],[],[],[],[],0.5269,1,217.302,217.7951,,,,,,716,FEM,DIS,150,jaula,el,a,0.5269,,217.7952,217.7955,-0.020370348,-0.390740763,0,0,0,,0,41,41,265,1,,,,
,,,,,,9fe26927e92f47a550413d30,66a626ef09d4e21e1a8894ec,6734e020009085085a669e23,2024-11-13_18h23.24.124,Tarea de género gramatical,2024.2.2,Win32,60.24096386,,,,,,,,,,,,,,,,,,,,,,,,217.7982,219.1198,l,1,[],[],[],[],[],[],[],0.6288,1,219.1199,219.6038,,,,,,648,MAS,AGR,150,hotel,el,l,0.6288,,219.6066,219.6089,-0.020370348,-0.390740763,0,0,0,,0,42,42,197,1,,,,
,,,,,,9fe26927e92f47a550413d30,66a626ef09d4e21e1a8894ec,6734e020009085085a669e23,2024-11-13_18h23.24.124,Tarea de género gramatical,2024.2.2,Win32,60.24096386,,,,,,,,,,,,,,,,,,,,,,,,219.6104,220.6976,a,1,[],[],[],[],[],[],[],0.3976,1,220.6978,221.208,,,,,,769,FEM,CON,150,sangre,,a,0.3976,,221.2082,221.2085,-0.020370348,-0.390740763,0,0,0,,0,43,43,318,1,,,,
,,,,,,9fe26927e92f47a550413d30,66a626ef09d4e21e1a8894ec,6734e020009085085a669e23,2024-11-13_18h23.24.124,Tarea de género gramatical,2024.2.2,Win32,60.24096386,,,,,,,,,,,,,,,,,,,,,,,,221.2119,222.5447,l,1,[],[],[],[],[],[],[],0.6436,1,222.5448,223.039,,,,,,725,MAS,DIS,150,disco,la,l,0.6436,,223.0391,223.0394,-0.020370348,-0.390740763,0,0,0,,0,44,44,274,1,,,,
,,,,,,9fe26927e92f47a550413d30,66a626ef09d4e21e1a8894ec,6734e020009085085a669e23,2024-11-13_18h23.24.124,Tarea de género gramatical,2024.2.2,Win32,60.24096386,,,,,,,,,,,,,,,,,,,,,,,,223.0424,224.4712,l,1,[],[],[],[],[],[],[],0.7461,1,224.4713,224.9628,,,,,,568,MAS,CON,150,baúl,,l,0.7461,,224.9628,224.9631,-0.020370348,-0.390740763,0,0,0,,0,45,45,117,1,,,,
,,,,,,9fe26927e92f47a550413d30,66a626ef09d4e21e1a8894ec,6734e020009085085a669e23,2024-11-13_18h23.24.124,Tarea de género gramatical,2024.2.2,Win32,60.24096386,,,,,,,,,,,,,,,,,,,,,,,,224.9656,226.0951,l,1,[],[],[],[],[],[],[],0.444,1,226.0952,226.5933,,,,,,724,MAS,CON,150,motor,,l,0.444,,226.5935,226.5937,-0.020370348,-0.390740763,0,0,0,,0,46,46,273,1,,,,
,,,,,,9fe26927e92f47a550413d30,66a626ef09d4e21e1a8894ec,6734e020009085085a669e23,2024-11-13_18h23.24.124,Tarea de género gramatical,2024.2.2,Win32,60.24096386,,,,,,,,,,,,,,,,,,,,,,,,226.5961,227.8482,l,1,[],[],[],[],[],[],[],0.5585,1,227.8484,228.3404,,,,,,515,MAS,DIS,150,rayo,la,l,0.5585,,228.3441,228.346,-0.020370348,-0.390740763,0,0,0,,0,47,47,64,1,,,,
,,,,,,9fe26927e92f47a550413d30,66a626ef09d4e21e1a8894ec,6734e020009085085a669e23,2024-11-13_18h23.24.124,Tarea de género gramatical,2024.2.2,Win32,60.24096386,,,,,,,,,,,,,,,,,,,,,,,,228.3474,229.4253,l,1,[],[],[],[],[],[],[],0.3847,1,229.4253,229.9191,,,,,,840,MAS,AGR,150,rostro,el,l,0.3847,,229.9192,229.9194,-0.020370348,-0.390740763,0,0,0,,0,48,48,389,1,,,,
,,,,,,9fe26927e92f47a550413d30,66a626ef09d4e21e1a8894ec,6734e020009085085a669e23,2024-11-13_18h23.24.124,Tarea de género gramatical,2024.2.2,Win32,60.24096386,,,,,,,,,,,,,,,,,,,,,,,,229.922,230.9722,l,1,[],[],[],[],[],[],[],0.3545,1,230.9723,231.4356,,,,,,600,MAS,AGR,150,mozo,el,l,0.3545,,231.4357,231.4359,-0.020370348,-0.390740763,0,0,0,,0,49,49,149,1,,,,
,,,,,,9fe26927e92f47a550413d30,66a626ef09d4e21e1a8894ec,6734e020009085085a669e23,2024-11-13_18h23.24.124,Tarea de género gramatical,2024.2.2,Win32,60.24096386,,,,,,,,,,,,,,,,,,,,,,,,231.4385,232.5653,l,1,[],[],[],[],[],[],[],0.429,1,232.5654,233.0565,,,,,,803,MAS,DIS,150,verano,la,l,0.429,,233.0566,233.0569,-0.020370348,-0.390740763,0,0,0,,0,50,50,352,1,,,,
,,,,,,9fe26927e92f47a550413d30,66a626ef09d4e21e1a8894ec,6734e020009085085a669e23,2024-11-13_18h23.24.124,Tarea de género gramatical,2024.2.2,Win32,60.24096386,,,,,,,,,,,,,,,,,,,,,,,,233.0597,234.0652,l,1,[],[],[],[],[],[],[],0.2747,1,234.0653,234.5652,,,,,,562,MAS,CON,150,reto,,l,0.2747,,234.5694,234.5727,-0.020370348,-0.390740763,0,0,0,,0,51,51,111,1,,,,
,,,,,,9fe26927e92f47a550413d30,66a626ef09d4e21e1a8894ec,6734e020009085085a669e23,2024-11-13_18h23.24.124,Tarea de género gramatical,2024.2.2,Win32,60.24096386,,,,,,,,,,,,,,,,,,,,,,,,234.5742,235.701,a,1,[],[],[],[],[],[],[],0.4394,1,235.7012,236.2087,,,,,,693,FEM,AGR,150,salsa,la,a,0.4394,,236.2089,236.2093,-0.020370348,-0.390740763,0,0,0,,0,52,52,242,1,,,,
,,,,,,9fe26927e92f47a550413d30,66a626ef09d4e21e1a8894ec,6734e020009085085a669e23,2024-11-13_18h23.24.124,Tarea de género gramatical,2024.2.2,Win32,60.24096386,,,,,,,,,,,,,,,,,,,,,,,,236.2123,237.4234,a,1,[],[],[],[],[],[],[],0.5367,1,237.4236,237.9317,,,,,,878,FEM,DIS,150,jugada,el,a,0.5367,,237.9319,237.9324,-0.020370348,-0.390740763,0,0,0,,0,53,53,427,1,,,,
,,,,,,9fe26927e92f47a550413d30,66a626ef09d4e21e1a8894ec,6734e020009085085a669e23,2024-11-13_18h23.24.124,Tarea de género gramatical,2024.2.2,Win32,60.24096386,,,,,,,,,,,,,,,,,,,,,,,,237.9359,239.0002,a,1,[],[],[],[],[],[],[],0.3834,1,239.0004,239.5036,,,,,,621,FEM,AGR,150,mitad,la,a,0.3834,,239.5037,239.5039,-0.020370348,-0.390740763,0,0,0,,0,54,54,170,1,,,,
,,,,,,9fe26927e92f47a550413d30,66a626ef09d4e21e1a8894ec,6734e020009085085a669e23,2024-11-13_18h23.24.124,Tarea de género gramatical,2024.2.2,Win32,60.24096386,,,,,,,,,,,,,,,,,,,,,,,,239.5068,240.5038,a,1,[],[],[],[],[],[],[],0.3246,1,240.5039,240.9978,,,,,,801,FEM,AGR,150,espada,la,a,0.3246,,240.9978,240.9981,-0.020370348,-0.390740763,0,0,0,,0,55,55,350,1,,,,
,,,,,,9fe26927e92f47a550413d30,66a626ef09d4e21e1a8894ec,6734e020009085085a669e23,2024-11-13_18h23.24.124,Tarea de género gramatical,2024.2.2,Win32,60.24096386,,,,,,,,,,,,,,,,,,,,,,,,241.0015,242.0176,a,1,[],[],[],[],[],[],[],0.3293,1,242.0179,242.5022,,,,,,704,FEM,DIS,150,caída,el,a,0.3293,,242.5061,242.5089,-0.020370348,-0.390740763,0,0,0,,0,56,56,253,1,,,,
,,,,,,9fe26927e92f47a550413d30,66a626ef09d4e21e1a8894ec,6734e020009085085a669e23,2024-11-13_18h23.24.124,Tarea de género gramatical,2024.2.2,Win32,60.24096386,,,,,,,,,,,,,,,,,,,,,,,,242.5104,243.7138,l,1,[],[],[],[],[],[],[],0.5171,1,243.7139,244.2121,,,,,,534,MAS,AGR,150,mago,el,l,0.5171,,244.2123,244.2126,-0.020370348,-0.390740763,0,0,0,,0,57,57,83,1,,,,
,,,,,,9fe26927e92f47a550413d30,66a626ef09d4e21e1a8894ec,6734e020009085085a669e23,2024-11-13_18h23.24.124,Tarea de género gramatical,2024.2.2,Win32,60.24096386,,,,,,,,,,,,,,,,,,,,,,,,244.2149,245.3774,a,1,[],[],[],[],[],[],[],0.4767,1,245.3775,245.8549,,,,,,865,FEM,CON,150,cabina,,a,0.4767,,245.8551,245.8553,-0.020370348,-0.390740763,0,0,0,,0,58,58,414,1,,,,
,,,,,,9fe26927e92f47a550413d30,66a626ef09d4e21e1a8894ec,6734e020009085085a669e23,2024-11-13_18h23.24.124,Tarea de género gramatical,2024.2.2,Win32,60.24096386,,,,,,,,,,,,,,,,,,,,,,,,245.8587,246.9684,l,1,[],[],[],[],[],[],[],0.4318,1,246.9686,247.4537,,,,,,876,MAS,AGR,150,pánico,el,l,0.4318,,247.4538,247.4539,-0.020370348,-0.390740763,0,0,0,,0,59,59,425,1,,,,
,,,,,,9fe26927e92f47a550413d30,66a626ef09d4e21e1a8894ec,6734e020009085085a669e23,2024-11-13_18h23.24.124,Tarea de género gramatical,2024.2.2,Win32,60.24096386,,,,,,,,,,,,,,,,,,,,,,,,247.4565,248.5791,a,1,[],[],[],[],[],[],[],0.4382,1,248.5793,249.0844,,,,,,872,FEM,DIS,150,rutina,el,a,0.4382,,249.0878,249.0906,-0.020370348,-0.390740763,0,0,0,,0,60,60,421,1,,,,
,,,,,,9fe26927e92f47a550413d30,66a626ef09d4e21e1a8894ec,6734e020009085085a669e23,2024-11-13_18h23.24.124,Tarea de género gramatical,2024.2.2,Win32,60.24096386,,,,,,,,,,,,,,,,,,,,,,,,249.0927,250.1221,l,1,[],[],[],[],[],[],[],0.3529,1,250.1222,250.602,,,,,,708,MAS,AGR,150,polvo,el,l,0.3529,,250.6021,250.6023,-0.020370348,-0.390740763,0,0,0,,0,61,61,257,1,,,,
,,,,,,9fe26927e92f47a550413d30,66a626ef09d4e21e1a8894ec,6734e020009085085a669e23,2024-11-13_18h23.24.124,Tarea de género gramatical,2024.2.2,Win32,60.24096386,,,,,,,,,,,,,,,,,,,,,,,,250.6047,251.7409,a,1,[],[],[],[],[],[],[],0.4506,1,251.7411,252.2174,,,,,,866,FEM,DIS,150,colina,el,a,0.4506,,252.2175,252.2177,-0.020370348,-0.390740763,0,0,0,,0,62,62,415,1,,,,
,,,,,,9fe26927e92f47a550413d30,66a626ef09d4e21e1a8894ec,6734e020009085085a669e23,2024-11-13_18h23.24.124,Tarea de género gramatical,2024.2.2,Win32,60.24096386,,,,,,,,,,,,,,,,,,,,,,,,252.2201,253.3242,l,0,[],[],[],[],[],[],[],0.3993,0,253.3266,253.8249,,,,,,657,FEM,AGR,150,playa,la,a,0.3993,,253.825,253.8251,-0.020370348,-0.390740763,0,0,0,,0,63,63,206,1,,,,
,,,,,,9fe26927e92f47a550413d30,66a626ef09d4e21e1a8894ec,6734e020009085085a669e23,2024-11-13_18h23.24.124,Tarea de género gramatical,2024.2.2,Win32,60.24096386,,,,,,,,,,,,,,,,,,,,,,,,253.8278,255.1633,a,1,[],[],[],[],[],[],[],0.6614,1,255.1657,255.6571,,,,,,495,FEM,AGR,150,isla,la,a,0.6614,,255.6572,255.6574,-0.020370348,-0.390740763,0,0,0,,0,64,64,44,1,,,,
,,,,,,9fe26927e92f47a550413d30,66a626ef09d4e21e1a8894ec,6734e020009085085a669e23,2024-11-13_18h23.24.124,Tarea de género gramatical,2024.2.2,Win32,60.24096386,,,,,,,,,,,,,,,,,,,,,,,,255.6604,256.796,a,1,[],[],[],[],[],[],[],0.4613,1,256.7961,257.2969,,,,,,650,FEM,DIS,150,silla,el,a,0.4613,,257.2995,257.3015,-0.020370348,-0.390740763,0,0,0,,0,65,65,199,1,,,,
,,,,,,9fe26927e92f47a550413d30,66a626ef09d4e21e1a8894ec,6734e020009085085a669e23,2024-11-13_18h23.24.124,Tarea de género gramatical,2024.2.2,Win32,60.24096386,,,,,,,,,,,,,,,,,,,,,,,,257.3031,258.4515,a,1,[],[],[],[],[],[],[],0.4628,1,258.4516,258.9392,,,,,,849,FEM,AGR,150,charla,la,a,0.4628,,258.9393,258.9395,-0.020370348,-0.390740763,0,0,0,,0,66,66,398,1,,,,
,,,,,,9fe26927e92f47a550413d30,66a626ef09d4e21e1a8894ec,6734e020009085085a669e23,2024-11-13_18h23.24.124,Tarea de género gramatical,2024.2.2,Win32,60.24096386,,,,,,,,,,,,,,,,,,,,,,,,258.9424,260.2699,a,1,[],[],[],[],[],[],[],0.6534,1,260.2701,260.7523,,,,,,811,FEM,CON,150,oferta,,a,0.6534,,260.7524,260.7526,-0.020370348,-0.390740763,0,0,0,,0,67,67,360,1,,,,
,,,,,,9fe26927e92f47a550413d30,66a626ef09d4e21e1a8894ec,6734e020009085085a669e23,2024-11-13_18h23.24.124,Tarea de género gramatical,2024.2.2,Win32,60.24096386,,,,,,,,,,,,,,,,,,,,,,,,260.7549,261.8831,a,1,[],[],[],[],[],[],[],0.4492,1,261.8833,262.3696,,,,,,889,FEM,CON,150,toalla,,a,0.4492,,262.3697,262.3699,-0.020370348,-0.390740763,0,0,0,,0,68,68,438,1,,,,
,,,,,,9fe26927e92f47a550413d30,66a626ef09d4e21e1a8894ec,6734e020009085085a669e23,2024-11-13_18h23.24.124,Tarea de género gramatical,2024.2.2,Win32,60.24096386,,,,,,,,,,,,,,,,,,,,,,,,262.3726,263.6242,l,1,[],[],[],[],[],[],[],0.5672,1,263.6244,264.1328,,,,,,844,MAS,CON,150,examen,,l,0.5672,,264.1376,264.1403,-0.020370348,-0.390740763,0,0,0,,0,69,69,393,1,,,,
,,,,,,9fe26927e92f47a550413d30,66a626ef09d4e21e1a8894ec,6734e020009085085a669e23,2024-11-13_18h23.24.124,Tarea de género gramatical,2024.2.2,Win32,60.24096386,,,,,,,,,,,,,,,,,,,,,,,,264.1418,265.2898,a,1,[],[],[],[],[],[],[],0.4574,1,265.2899,265.7736,,,,,,817,FEM,CON,150,teoría,,a,0.4574,,265.7738,265.774,-0.020370348,-0.390740763,0,0,0,,0,70,70,366,1,,,,
,,,,,,9fe26927e92f47a550413d30,66a626ef09d4e21e1a8894ec,6734e020009085085a669e23,2024-11-13_18h23.24.124,Tarea de género gramatical,2024.2.2,Win32,60.24096386,,,,,,,,,,,,,,,,,,,,,,,,265.7772,267.148,l,1,[],[],[],[],[],[],[],0.6974,1,267.1482,267.6586,,,,,,635,MAS,DIS,150,sueño,la,l,0.6974,,267.6587,267.6589,-0.020370348,-0.390740763,0,0,0,,0,71,71,184,1,,,,
,,,,,,9fe26927e92f47a550413d30,66a626ef09d4e21e1a8894ec,6734e020009085085a669e23,2024-11-13_18h23.24.124,Tarea de género gramatical,2024.2.2,Win32,60.24096386,,,,,,,,,,,,,,,,,,,,,,,,267.6621,268.7937,l,1,[],[],[],[],[],[],[],0.4254,1,268.7937,269.2742,,,,,,454,MAS,CON,150,hijo,,l,0.4254,,269.2745,269.2747,-0.020370348,-0.390740763,0,0,0,,0,72,72,3,1,,,,
,,,,,,9fe26927e92f47a550413d30,66a626ef09d4e21e1a8894ec,6734e020009085085a669e23,2024-11-13_18h23.24.124,Tarea de género gramatical,2024.2.2,Win32,60.24096386,,,,,,,,,,,,,,,,,,,,,,,,269.2783,270.8641,l,1,[],[],[],[],[],[],[],0.9045,1,270.8648,271.3769,,,,,,718,MAS,CON,150,truco,,l,0.9045,0.0002,271.377,271.3773,-0.020370348,-0.390740763,0,0,0,,0,73,73,267,1,,,,
,,,,,,9fe26927e92f47a550413d30,66a626ef09d4e21e1a8894ec,6734e020009085085a669e23,2024-11-13_18h23.24.124,Tarea de género gramatical,2024.2.2,Win32,60.24096386,,,,,,,,,,,,,,,,,,,,,,,,271.381,272.6974,a,1,[],[],[],[],[],[],[],0.6429,1,272.6977,273.1955,,,,,,518,FEM,DIS,150,pata,el,a,0.6429,,273.2,273.2023,-0.020370348,-0.390740763,0,0,0,,0,74,74,67,1,,,,
,,,,,,9fe26927e92f47a550413d30,66a626ef09d4e21e1a8894ec,6734e020009085085a669e23,2024-11-13_18h23.24.124,Tarea de género gramatical,2024.2.2,Win32,60.24096386,,,,,,,,,,,,,,,,,,,,,,,,273.2038,274.6021,l,1,[],[],[],[],[],[],[],0.7239,1,274.6022,275.1166,,,,,,690,MAS,AGR,150,ruido,el,l,0.7239,,275.1167,275.117,-0.020370348,-0.390740763,0,0,0,,0,75,75,239,1,,,,
,,,,,,9fe26927e92f47a550413d30,66a626ef09d4e21e1a8894ec,6734e020009085085a669e23,2024-11-13_18h23.24.124,Tarea de género gramatical,2024.2.2,Win32,60.24096386,,,,,,,,,,,,,,,,,,,,,,,,275.1205,276.3845,l,1,[],[],[],[],[],[],[],0.5914,1,276.3846,276.8807,,,,,,640,MAS,CON,150,campo,,l,0.5914,,276.8808,276.8811,-0.020370348,-0.390740763,0,0,0,,0,76,76,189,1,,,,
,,,,,,9fe26927e92f47a550413d30,66a626ef09d4e21e1a8894ec,6734e020009085085a669e23,2024-11-13_18h23.24.124,Tarea de género gramatical,2024.2.2,Win32,60.24096386,,,,,,,,,,,,,,,,,,,,,,,,276.8832,278.0087,a,1,[],[],[],[],[],[],[],0.4521,1,278.0089,278.519,,,,,,787,FEM,CON,150,escena,,a,0.4521,,278.5191,278.5193,-0.020370348,-0.390740763,0,0,0,,0,77,77,336,1,,,,
,,,,,,9fe26927e92f47a550413d30,66a626ef09d4e21e1a8894ec,6734e020009085085a669e23,2024-11-13_18h23.24.124,Tarea de género gramatical,2024.2.2,Win32,60.24096386,,,,,,,,,,,,,,,,,,,,,,,,278.5217,279.6421,l,1,[],[],[],[],[],[],[],0.4379,1,279.6423,280.1527,,,,,,888,MAS,AGR,150,tanque,el,l,0.4379,,280.1555,280.1577,-0.020370348,-0.390740763,0,0,0,,0,78,78,437,1,,,,
,,,,,,9fe26927e92f47a550413d30,66a626ef09d4e21e1a8894ec,6734e020009085085a669e23,2024-11-13_18h23.24.124,Tarea de género gramatical,2024.2.2,Win32,60.24096386,,,,,,,,,,,,,,,,,,,,,,,,280.1593,281.2418,l,1,[],[],[],[],[],[],[],0.4062,1,281.242,281.735,,,,,,528,MAS,AGR,150,oído,el,l,0.4062,,281.7351,281.7356,-0.020370348,-0.390740763,0,0,0,,0,79,79,77,1,,,,
,,,,,,9fe26927e92f47a550413d30,66a626ef09d4e21e1a8894ec,6734e020009085085a669e23,2024-11-13_18h23.24.124,Tarea de género gramatical,2024.2.2,Win32,60.24096386,,,,,,,,,,,,,,,,,,,,,,,,281.7389,282.9963,a,1,[],[],[],[],[],[],[],0.5736,1,282.9965,283.4836,,,,,,661,FEM,CON,150,salud,,a,0.5736,,283.4837,283.484,-0.020370348,-0.390740763,0,0,0,,0,80,80,210,1,,,,
,,,,,,9fe26927e92f47a550413d30,66a626ef09d4e21e1a8894ec,6734e020009085085a669e23,2024-11-13_18h23.24.124,Tarea de género gramatical,2024.2.2,Win32,60.24096386,,,,,,,,,,,,,,,,,,,,,,,,283.4863,284.5687,l,1,[],[],[],[],[],[],[],0.394,1,284.5688,285.0507,,,,,,756,MAS,AGR,150,dinero,el,l,0.394,,285.0508,285.051,-0.020370348,-0.390740763,0,0,0,,0,81,81,305,1,,,,
,,,,,,9fe26927e92f47a550413d30,66a626ef09d4e21e1a8894ec,6734e020009085085a669e23,2024-11-13_18h23.24.124,Tarea de género gramatical,2024.2.2,Win32,60.24096386,,,,,,,,,,,,,,,,,,,,,,,,285.0544,286.1843,l,1,[],[],[],[],[],[],[],0.4482,1,286.1843,286.6749,,,,,,491,MAS,DIS,150,bote,la,l,0.4482,,286.6752,286.6755,-0.020370348,-0.390740763,0,0,0,,0,82,82,40,1,,,,
,,,,,,9fe26927e92f47a550413d30,66a626ef09d4e21e1a8894ec,6734e020009085085a669e23,2024-11-13_18h23.24.124,Tarea de género gramatical,2024.2.2,Win32,60.24096386,,,,,,,,,,,,,,,,,,,,,,,,286.6784,287.746,l,1,[],[],[],[],[],[],[],0.3908,1,287.7461,288.2509,,,,,,504,MAS,AGR,150,humo,el,l,0.3908,,288.2543,288.2563,-0.020370348,-0.390740763,0,0,0,,0,83,83,53,1,,,,
,,,,,,9fe26927e92f47a550413d30,66a626ef09d4e21e1a8894ec,6734e020009085085a669e23,2024-11-13_18h23.24.124,Tarea de género gramatical,2024.2.2,Win32,60.24096386,,,,,,,,,,,,,,,,,,,,,,,,288.2576,289.4617,a,1,[],[],[],[],[],[],[],0.5224,1,289.4618,289.9514,,,,,,855,FEM,AGR,150,parada,la,a,0.5224,,289.9515,289.9516,-0.020370348,-0.390740763,0,0,0,,0,84,84,404,1,,,,
,,,,,,9fe26927e92f47a550413d30,66a626ef09d4e21e1a8894ec,6734e020009085085a669e23,2024-11-13_18h23.24.124,Tarea de género gramatical,2024.2.2,Win32,60.24096386,,,,,,,,,,,,,,,,,,,,,,,,289.954,291.0748,l,1,[],[],[],[],[],[],[],0.4256,1,291.0748,291.5701,,,,,,731,MAS,DIS,150,actor,la,l,0.4256,,291.5702,291.5704,-0.020370348,-0.390740763,0,0,0,,0,85,85,280,1,,,,
,,,,,,9fe26927e92f47a550413d30,66a626ef09d4e21e1a8894ec,6734e020009085085a669e23,2024-11-13_18h23.24.124,Tarea de género gramatical,2024.2.2,Win32,60.24096386,,,,,,,,,,,,,,,,,,,,,,,,291.5729,292.6686,l,1,[],[],[],[],[],[],[],0.4177,1,292.6688,293.151,,,,,,701,MAS,DIS,150,dueño,la,l,0.4177,,293.1511,293.1512,-0.020370348,-0.390740763,0,0,0,,0,86,86,250,1,,,,
,,,,,,9fe26927e92f47a550413d30,66a626ef09d4e21e1a8894ec,6734e020009085085a669e23,2024-11-13_18h23.24.124,Tarea de género gramatical,2024.2.2,Win32,60.24096386,,,,,,,,,,,,,,,,,,,,,,,,293.1536,294.2567,a,1,[],[],[],[],[],[],[],0.4351,1,294.2569,294.7409,,,,,,667,FEM,CON,150,tarea,,a,0.4351,,294.7441,294.7464,-0.020370348,-0.390740763,0,0,0,,0,87,87,216,1,,,,
,,,,,,9fe26927e92f47a550413d30,66a626ef09d4e21e1a8894ec,6734e020009085085a669e23,2024-11-13_18h23.24.124,Tarea de género gramatical,2024.2.2,Win32,60.24096386,,,,,,,,,,,,,,,,,,,,,,,,294.7477,296.2281,a,1,[],[],[],[],[],[],[],0.7889,1,296.2282,296.7357,,,,,,649,FEM,CON,150,nariz,,a,0.7889,,296.7358,296.736,-0.020370348,-0.390740763,0,0,0,,0,88,88,198,1,,,,
,,,,,,9fe26927e92f47a550413d30,66a626ef09d4e21e1a8894ec,6734e020009085085a669e23,2024-11-13_18h23.24.124,Tarea de género gramatical,2024.2.2,Win32,60.24096386,,,,,,,,,,,,,,,,,,,,,,,,296.7389,298.0899,l,0,[],[],[],[],[],[],[],0.6668,0,298.0926,298.5968,,,,,,854,FEM,DIS,150,gloria,el,a,0.6668,,298.5968,298.5971,-0.020370348,-0.390740763,0,0,0,,0,89,89,403,1,,,,
,,,,,,9fe26927e92f47a550413d30,66a626ef09d4e21e1a8894ec,6734e020009085085a669e23,2024-11-13_18h23.24.124,Tarea de género gramatical,2024.2.2,Win32,60.24096386,,,,,,,,,,,,,,,,,,,,,,,,298.5995,300.0967,l,1,[],[],[],[],[],[],[],0.8173,1,300.0995,300.601,,,,,,461,MAS,DIS,150,país,la,l,0.8173,,300.6011,300.6013,-0.020370348,-0.390740763,0,0,0,,0,90,90,10,1,,,,
,,,,,,9fe26927e92f47a550413d30,66a626ef09d4e21e1a8894ec,6734e020009085085a669e23,2024-11-13_18h23.24.124,Tarea de género gramatical,2024.2.2,Win32,60.24096386,,,,,,,,,,,,,,,,,,,,,,,,300.6037,301.6839,l,1,[],[],[],[],[],[],[],0.4076,1,301.684,302.1694,,,,,,886,MAS,CON,150,objeto,,l,0.4076,,302.1695,302.1697,-0.020370348,-0.390740763,0,0,0,,0,91,91,435,1,,,,
,,,,,,9fe26927e92f47a550413d30,66a626ef09d4e21e1a8894ec,6734e020009085085a669e23,2024-11-13_18h23.24.124,Tarea de género gramatical,2024.2.2,Win32,60.24096386,,,,,,,,,,,,,,,,,,,,,,,,302.1721,303.261,l,1,[],[],[],[],[],[],[],0.4157,1,303.2611,303.7635,,,,,,664,MAS,CON,150,fondo,,l,0.4157,,303.7673,303.7697,-0.020370348,-0.390740763,0,0,0,,0,92,92,213,1,,,,
,,,,,,9fe26927e92f47a550413d30,66a626ef09d4e21e1a8894ec,6734e020009085085a669e23,2024-11-13_18h23.24.124,Tarea de género gramatical,2024.2.2,Win32,60.24096386,,,,,,,,,,,,,,,,,,,,,,,,303.7708,304.8843,l,1,[],[],[],[],[],[],[],0.4394,1,304.8845,305.3784,,,,,,652,MAS,CON,150,honor,,l,0.4394,,305.3785,305.3788,-0.020370348,-0.390740763,0,0,0,,0,93,93,201,1,,,,
,,,,,,9fe26927e92f47a550413d30,66a626ef09d4e21e1a8894ec,6734e020009085085a669e23,2024-11-13_18h23.24.124,Tarea de género gramatical,2024.2.2,Win32,60.24096386,,,,,,,,,,,,,,,,,,,,,,,,305.3816,306.6022,a,1,[],[],[],[],[],[],[],0.548,1,306.6023,307.0933,,,,,,692,FEM,DIS,150,pizza,el,a,0.548,,307.0934,307.0937,-0.020370348,-0.390740763,0,0,0,,0,94,94,241,1,,,,
,,,,,,9fe26927e92f47a550413d30,66a626ef09d4e21e1a8894ec,6734e020009085085a669e23,2024-11-13_18h23.24.124,Tarea de género gramatical,2024.2.2,Win32,60.24096386,,,,,,,,,,,,,,,,,,,,,,,,307.0989,308.2507,a,1,[],[],[],[],[],[],[],0.4661,1,308.2509,308.7542,,,,,,860,FEM,DIS,150,piedad,el,a,0.4661,,308.7543,308.7545,-0.020370348,-0.390740763,0,0,0,,0,95,95,409,1,,,,
,,,,,,9fe26927e92f47a550413d30,66a626ef09d4e21e1a8894ec,6734e020009085085a669e23,2024-11-13_18h23.24.124,Tarea de género gramatical,2024.2.2,Win32,60.24096386,,,,,,,,,,,,,,,,,,,,,,,,308.7563,309.9368,a,1,[],[],[],[],[],[],[],0.493,1,309.9369,310.4374,,,,,,475,FEM,CON,150,nave,,a,0.493,,310.4403,310.442,-0.020370348,-0.390740763,0,0,0,,0,96,96,24,1,,,,
,,,,,,9fe26927e92f47a550413d30,66a626ef09d4e21e1a8894ec,6734e020009085085a669e23,2024-11-13_18h23.24.124,Tarea de género gramatical,2024.2.2,Win32,60.24096386,,,,,,,,,,,,,,,,,,,,,,,,310.4436,311.569,l,1,[],[],[],[],[],[],[],0.4505,1,311.569,312.0733,,,,,,557,MAS,DIS,150,cubo,la,l,0.4505,,312.0735,312.0738,-0.020370348,-0.390740763,0,0,0,,0,97,97,106,1,,,,
,,,,,,9fe26927e92f47a550413d30,66a626ef09d4e21e1a8894ec,6734e020009085085a669e23,2024-11-13_18h23.24.124,Tarea de género gramatical,2024.2.2,Win32,60.24096386,,,,,,,,,,,,,,,,,,,,,,,,312.0766,313.1977,a,1,[],[],[],[],[],[],[],0.4469,1,313.1978,313.6894,,,,,,897,FEM,AGR,150,lógica,la,a,0.4469,,313.6895,313.6897,-0.020370348,-0.390740763,0,0,0,,0,98,98,446,1,,,,
,,,,,,9fe26927e92f47a550413d30,66a626ef09d4e21e1a8894ec,6734e020009085085a669e23,2024-11-13_18h23.24.124,Tarea de género gramatical,2024.2.2,Win32,60.24096386,,,,,,,,,,,,,,,,,,,,,,,,313.6924,314.8197,l,1,[],[],[],[],[],[],[],0.4402,1,314.8199,315.3135,,,,,,660,MAS,AGR,150,baile,el,l,0.4402,,315.3135,315.3137,-0.020370348,-0.390740763,0,0,0,,0,99,99,209,1,,,,
,,,,,,9fe26927e92f47a550413d30,66a626ef09d4e21e1a8894ec,6734e020009085085a669e23,2024-11-13_18h23.24.124,Tarea de género gramatical,2024.2.2,Win32,60.24096386,,,,,,,,,,,,,,,,,,,,,,,,315.3167,316.5035,l,1,[],[],[],[],[],[],[],0.5148,1,316.5036,316.9951,,,,,,592,MAS,CON,150,lodo,,l,0.5148,,316.9953,316.9955,-0.020370348,-0.390740763,0,0,0,,0,100,100,141,1,,,,
,,,,,,9fe26927e92f47a550413d30,66a626ef09d4e21e1a8894ec,6734e020009085085a669e23,2024-11-13_18h23.24.124,Tarea de género gramatical,2024.2.2,Win32,60.24096386,,,,,,,,,,,,,,,,,,,,,,,,316.9984,318.2398,l,1,[],[],[],[],[],[],[],0.567,1,318.2398,318.7189,,,,,,743,MAS,DIS,150,patio,la,l,0.567,,318.7216,318.7237,-0.020370348,-0.390740763,0,0,0,,0,101,101,292,1,,,,
,,,,,,9fe26927e92f47a550413d30,66a626ef09d4e21e1a8894ec,6734e020009085085a669e23,2024-11-13_18h23.24.124,Tarea de género gramatical,2024.2.2,Win32,60.24096386,,,,,,,,,,,,,,,,,,,,,,,,318.7254,319.8572,a,1,[],[],[],[],[],[],[],0.4159,1,319.8574,320.3686,,,,,,687,FEM,AGR,150,ducha,la,a,0.4159,,320.3686,320.3688,-0.020370348,-0.390740763,0,0,0,,0,102,102,236,1,,,,
,,,,,,9fe26927e92f47a550413d30,66a626ef09d4e21e1a8894ec,6734e020009085085a669e23,2024-11-13_18h23.24.124,Tarea de género gramatical,2024.2.2,Win32,60.24096386,,,,,,,,,,,,,,,,,,,,,,,,320.3712,321.4892,a,1,[],[],[],[],[],[],[],0.4477,1,321.4893,321.9836,,,,,,523,FEM,CON,150,roca,,a,0.4477,,321.9837,321.9838,-0.020370348,-0.390740763,0,0,0,,0,103,103,72,1,,,,
,,,,,,9fe26927e92f47a550413d30,66a626ef09d4e21e1a8894ec,6734e020009085085a669e23,2024-11-13_18h23.24.124,Tarea de género gramatical,2024.2.2,Win32,60.24096386,,,,,,,,,,,,,,,,,,,,,,,,321.9871,323.1127,a,1,[],[],[],[],[],[],[],0.4518,1,323.1127,323.6191,,,,,,807,FEM,AGR,150,lengua,la,a,0.4518,,323.6192,323.6194,-0.020370348,-0.390740763,0,0,0,,0,104,104,356,1,,,,
,,,,,,9fe26927e92f47a550413d30,66a626ef09d4e21e1a8894ec,6734e020009085085a669e23,2024-11-13_18h23.24.124,Tarea de género gramatical,2024.2.2,Win32,60.24096386,,,,,,,,,,,,,,,,,,,,,,,,323.6226,325.0756,l,1,[],[],[],[],[],[],[],0.7704,1,325.0757,325.5776,,,,,,785,MAS,DIS,150,montón,la,l,0.7704,,325.5803,325.5824,-0.020370348,-0.390740763,0,0,0,,0,105,105,334,1,,,,
,,,,,,9fe26927e92f47a550413d30,66a626ef09d4e21e1a8894ec,6734e020009085085a669e23,2024-11-13_18h23.24.124,Tarea de género gramatical,2024.2.2,Win32,60.24096386,,,,,,,,,,,,,,,,,,,,,,,,325.5841,326.785,l,1,[],[],[],[],[],[],[],0.5154,1,326.7852,327.2851,,,,,,696,MAS,AGR,150,humor,el,l,0.5154,,327.2852,327.2854,-0.020370348,-0.390740763,0,0,0,,0,106,106,245,1,,,,
,,,,,,9fe26927e92f47a550413d30,66a626ef09d4e21e1a8894ec,6734e020009085085a669e23,2024-11-13_18h23.24.124,Tarea de género gramatical,2024.2.2,Win32,60.24096386,,,,,,,,,,,,,,,,,,,,,,,,327.2882,328.5338,l,1,[],[],[],[],[],[],[],0.561,1,328.5339,329.0323,,,,,,490,MAS,CON,150,dios,,l,0.561,,329.0324,329.0326,-0.020370348,-0.390740763,0,0,0,,0,107,107,39,1,,,,
,,,,,,9fe26927e92f47a550413d30,66a626ef09d4e21e1a8894ec,6734e020009085085a669e23,2024-11-13_18h23.24.124,Tarea de género gramatical,2024.2.2,Win32,60.24096386,,,,,,,,,,,,,,,,,,,,,,,,329.0349,330.2176,a,1,[],[],[],[],[],[],[],0.4796,1,330.2177,330.7167,,,,,,590,FEM,DIS,150,mula,el,a,0.4796,,330.7167,330.7169,-0.020370348,-0.390740763,0,0,0,,0,108,108,139,1,,,,
,,,,,,9fe26927e92f47a550413d30,66a626ef09d4e21e1a8894ec,6734e020009085085a669e23,2024-11-13_18h23.24.124,Tarea de género gramatical,2024.2.2,Win32,60.24096386,,,,,,,,,,,,,,,,,,,,,,,,330.7195,332.1394,a,1,[],[],[],[],[],[],[],0.7451,1,332.1395,332.6502,,,,,,841,FEM,CON,150,altura,,a,0.7451,,332.6503,332.6504,-0.020370348,-0.390740763,0,0,0,,0,109,109,390,1,,,,
,,,,,,9fe26927e92f47a550413d30,66a626ef09d4e21e1a8894ec,6734e020009085085a669e23,2024-11-13_18h23.24.124,Tarea de género gramatical,2024.2.2,Win32,60.24096386,,,,,,,,,,,,,,,,,,,,,,,,332.6531,333.9436,l,1,[],[],[],[],[],[],[],0.6097,1,333.9437,334.4422,,,,,,834,MAS,AGR,150,pedazo,el,l,0.6097,,334.4448,334.4474,-0.020370348,-0.390740763,0,0,0,,0,110,110,383,1,,,,
,,,,,,9fe26927e92f47a550413d30,66a626ef09d4e21e1a8894ec,6734e020009085085a669e23,2024-11-13_18h23.24.124,Tarea de género gramatical,2024.2.2,Win32,60.24096386,,,,,,,,,,,,,,,,,,,,,,,,334.4488,335.6501,l,1,[],[],[],[],[],[],[],0.4995,1,335.6503,336.1593,,,,,,630,MAS,AGR,150,fuego,el,l,0.4995,,336.1594,336.1597,-0.020370348,-0.390740763,0,0,0,,0,111,111,179,1,,,,
,,,,,,9fe26927e92f47a550413d30,66a626ef09d4e21e1a8894ec,6734e020009085085a669e23,2024-11-13_18h23.24.124,Tarea de género gramatical,2024.2.2,Win32,60.24096386,,,,,,,,,,,,,,,,,,,,,,,,336.1638,337.4025,a,1,[],[],[],[],[],[],[],0.5573,1,337.4026,337.9093,,,,,,879,FEM,AGR,150,fianza,la,a,0.5573,,337.9094,337.9096,-0.020370348,-0.390740763,0,0,0,,0,112,112,428,1,,,,
,,,,,,9fe26927e92f47a550413d30,66a626ef09d4e21e1a8894ec,6734e020009085085a669e23,2024-11-13_18h23.24.124,Tarea de género gramatical,2024.2.2,Win32,60.24096386,,,,,,,,,,,,,,,,,,,,,,,,337.9116,339.087,a,1,[],[],[],[],[],[],[],0.4989,1,339.0871,339.5897,,,,,,607,FEM,CON,150,madre,,a,0.4989,,339.5899,339.5902,-0.020370348,-0.390740763,0,0,0,,0,113,113,156,1,,,,
,,,,,,9fe26927e92f47a550413d30,66a626ef09d4e21e1a8894ec,6734e020009085085a669e23,2024-11-13_18h23.24.124,Tarea de género gramatical,2024.2.2,Win32,60.24096386,,,,,,,,,,,,,,,,,,,,,,,,339.5927,340.8963,a,1,[],[],[],[],[],[],[],0.626,1,340.8964,341.3871,,,,,,519,FEM,AGR,150,rata,la,a,0.626,,341.3898,341.3923,-0.020370348,-0.390740763,0,0,0,,0,114,114,68,1,,,,
,,,,,,9fe26927e92f47a550413d30,66a626ef09d4e21e1a8894ec,6734e020009085085a669e23,2024-11-13_18h23.24.124,Tarea de género gramatical,2024.2.2,Win32,60.24096386,,,,,,,,,,,,,,,,,,,,,,,,341.3938,342.5756,a,1,[],[],[],[],[],[],[],0.5051,1,342.5758,343.0814,,,,,,843,FEM,AGR,150,alarma,la,a,0.5051,,343.0815,343.0816,-0.020370348,-0.390740763,0,0,0,,0,115,115,392,1,,,,
,,,,,,9fe26927e92f47a550413d30,66a626ef09d4e21e1a8894ec,6734e020009085085a669e23,2024-11-13_18h23.24.124,Tarea de género gramatical,2024.2.2,Win32,60.24096386,,,,,,,,,,,,,,,,,,,,,,,,343.0839,344.2253,l,1,[],[],[],[],[],[],[],0.4408,1,344.2255,344.7157,,,,,,742,MAS,CON,150,piano,,l,0.4408,,344.7158,344.7163,-0.020370348,-0.390740763,0,0,0,,0,116,116,291,1,,,,
,,,,,,9fe26927e92f47a550413d30,66a626ef09d4e21e1a8894ec,6734e020009085085a669e23,2024-11-13_18h23.24.124,Tarea de género gramatical,2024.2.2,Win32,60.24096386,,,,,,,,,,,,,,,,,,,,,,,,344.7192,345.8558,l,1,[],[],[],[],[],[],[],0.4668,1,345.8559,346.3464,,,,,,772,MAS,CON,150,minuto,,l,0.4668,,346.3465,346.3467,-0.020370348,-0.390740763,0,0,0,,0,117,117,321,1,,,,
,,,,,,9fe26927e92f47a550413d30,66a626ef09d4e21e1a8894ec,6734e020009085085a669e23,2024-11-13_18h23.24.124,Tarea de género gramatical,2024.2.2,Win32,60.24096386,,,,,,,,,,,,,,,,,,,,,,,,346.3498,347.4813,a,1,[],[],[],[],[],[],[],0.444,1,347.4815,347.993,,,,,,585,FEM,AGR,150,raíz,la,a,0.444,,347.9931,347.9934,-0.020370348,-0.390740763,0,0,0,,0,118,118,134,1,,,,
,,,,,,9fe26927e92f47a550413d30,66a626ef09d4e21e1a8894ec,6734e020009085085a669e23,2024-11-13_18h23.24.124,Tarea de género gramatical,2024.2.2,Win32,60.24096386,,,,,,,,,,,,,,,,,,,,,,,,347.9966,349.1496,a,1,[],[],[],[],[],[],[],0.4615,1,349.1497,349.6376,,,,,,877,FEM,CON,150,agenda,,a,0.4615,,349.6414,349.6434,-0.020370348,-0.390740763,0,0,0,,0,119,119,426,1,,,,
,,,,,,9fe26927e92f47a550413d30,66a626ef09d4e21e1a8894ec,6734e020009085085a669e23,2024-11-13_18h23.24.124,Tarea de género gramatical,2024.2.2,Win32,60.24096386,,,,,,,,,,,,,,,,,,,,,,,,349.6446,350.7916,l,0,[],[],[],[],[],[],[],0.4546,0,350.7931,351.2729,,,,,,524,FEM,DIS,150,flor,el,a,0.4546,,351.2731,351.2732,-0.020370348,-0.390740763,0,0,0,,0,120,120,73,1,,,,
,,,,,,9fe26927e92f47a550413d30,66a626ef09d4e21e1a8894ec,6734e020009085085a669e23,2024-11-13_18h23.24.124,Tarea de género gramatical,2024.2.2,Win32,60.24096386,,,,,,,,,,,,,,,,,,,,,,,,351.276,352.3825,l,1,[],[],[],[],[],[],[],0.4235,1,352.3845,352.8709,,,,,,636,MAS,AGR,150,error,el,l,0.4235,,352.8709,352.8711,-0.020370348,-0.390740763,0,0,0,,0,121,121,185,1,,,,
,,,,,,9fe26927e92f47a550413d30,66a626ef09d4e21e1a8894ec,6734e020009085085a669e23,2024-11-13_18h23.24.124,Tarea de género gramatical,2024.2.2,Win32,60.24096386,,,,,,,,,,,,,,,,,,,,,,,,352.874,353.9658,l,1,[],[],[],[],[],[],[],0.4004,1,353.9659,354.4515,,,,,,744,MAS,AGR,150,cable,el,l,0.4004,,354.4516,354.4518,-0.020370348,-0.390740763,0,0,0,,0,122,122,293,1,,,,
,,,,,,9fe26927e92f47a550413d30,66a626ef09d4e21e1a8894ec,6734e020009085085a669e23,2024-11-13_18h23.24.124,Tarea de género gramatical,2024.2.2,Win32,60.24096386,,,,,,,,,,,,,,,,,,,,,,,,354.4549,355.5612,a,0,[],[],[],[],[],[],[],0.4353,0,355.5632,356.0588,,,,,,502,MAS,CON,150,lago,,l,0.4353,,356.0617,356.0642,-0.020370348,-0.390740763,0,0,0,,0,123,123,51,1,,,,
,,,,,,9fe26927e92f47a550413d30,66a626ef09d4e21e1a8894ec,6734e020009085085a669e23,2024-11-13_18h23.24.124,Tarea de género gramatical,2024.2.2,Win32,60.24096386,,,,,,,,,,,,,,,,,,,,,,,,356.0653,357.5928,l,1,[],[],[],[],[],[],[],0.8317,1,357.5943,358.1003,,,,,,821,MAS,DIS,150,sonido,la,l,0.8317,,358.1003,358.1006,-0.020370348,-0.390740763,0,0,0,,0,124,124,370,1,,,,
,,,,,,9fe26927e92f47a550413d30,66a626ef09d4e21e1a8894ec,6734e020009085085a669e23,2024-11-13_18h23.24.124,Tarea de género gramatical,2024.2.2,Win32,60.24096386,,,,,,,,,,,,,,,,,,,,,,,,358.1034,359.4186,l,1,[],[],[],[],[],[],[],0.6418,1,359.4188,359.9292,,,,,,485,MAS,DIS,150,taxi,la,l,0.6418,,359.9293,359.9295,-0.020370348,-0.390740763,0,0,0,,0,125,125,34,1,,,,
,,,,,,9fe26927e92f47a550413d30,66a626ef09d4e21e1a8894ec,6734e020009085085a669e23,2024-11-13_18h23.24.124,Tarea de género gramatical,2024.2.2,Win32,60.24096386,,,,,,,,,,,,,,,,,,,,,,,,359.9324,360.9746,l,1,[],[],[],[],[],[],[],0.3536,1,360.9747,361.4656,,,,,,556,MAS,CON,150,test,,l,0.3536,,361.4657,361.466,-0.020370348,-0.390740763,0,0,0,,0,126,126,105,1,,,,
,,,,,,9fe26927e92f47a550413d30,66a626ef09d4e21e1a8894ec,6734e020009085085a669e23,2024-11-13_18h23.24.124,Tarea de género gramatical,2024.2.2,Win32,60.24096386,,,,,,,,,,,,,,,,,,,,,,,,361.4693,362.6998,l,1,[],[],[],[],[],[],[],0.5496,1,362.6999,363.1981,,,,,,767,MAS,DIS,150,número,la,l,0.5496,,363.1982,363.1983,-0.020370348,-0.390740763,0,0,0,,0,127,127,316,1,,,,
,,,,,,9fe26927e92f47a550413d30,66a626ef09d4e21e1a8894ec,6734e020009085085a669e23,2024-11-13_18h23.24.124,Tarea de género gramatical,2024.2.2,Win32,60.24096386,,,,,,,,,,,,,,,,,,,,,,,,363.2002,364.3311,a,1,[],[],[],[],[],[],[],0.4499,1,364.3312,364.8214,,,,,,681,FEM,AGR,150,bruja,la,a,0.4499,,364.8257,364.8289,-0.020370348,-0.390740763,0,0,0,,0,128,128,230,1,,,,
,,,,,,9fe26927e92f47a550413d30,66a626ef09d4e21e1a8894ec,6734e020009085085a669e23,2024-11-13_18h23.24.124,Tarea de género gramatical,2024.2.2,Win32,60.24096386,,,,,,,,,,,,,,,,,,,,,,,,364.8305,366.1438,a,1,[],[],[],[],[],[],[],0.6209,1,366.144,366.6367,,,,,,584,FEM,DIS,150,rama,el,a,0.6209,,366.6367,366.6369,-0.020370348,-0.390740763,0,0,0,,0,129,129,133,1,,,,
,,,,,,9fe26927e92f47a550413d30,66a626ef09d4e21e1a8894ec,6734e020009085085a669e23,2024-11-13_18h23.24.124,Tarea de género gramatical,2024.2.2,Win32,60.24096386,,,,,,,,,,,,,,,,,,,,,,,,366.6404,367.7761,l,1,[],[],[],[],[],[],[],0.4481,1,367.7763,368.2792,,,,,,486,MAS,AGR,150,dedo,el,l,0.4481,,368.2793,368.2794,-0.020370348,-0.390740763,0,0,0,,0,130,130,35,1,,,,
,,,,,,9fe26927e92f47a550413d30,66a626ef09d4e21e1a8894ec,6734e020009085085a669e23,2024-11-13_18h23.24.124,Tarea de género gramatical,2024.2.2,Win32,60.24096386,,,,,,,,,,,,,,,,,,,,,,,,368.2821,369.6493,a,0,[],[],[],[],[],[],[],0.692,0,369.6513,370.1429,,,,,,473,MAS,DIS,150,rato,la,l,0.692,,370.143,370.1433,-0.020370348,-0.390740763,0,0,0,,0,131,131,22,1,,,,
,,,,,,9fe26927e92f47a550413d30,66a626ef09d4e21e1a8894ec,6734e020009085085a669e23,2024-11-13_18h23.24.124,Tarea de género gramatical,2024.2.2,Win32,60.24096386,,,,,,,,,,,,,,,,,,,,,,,,370.1464,371.5651,l,0,[],[],[],[],[],[],[],0.7343,0,371.5652,372.0655,,,,,,763,FEM,CON,150,ciudad,,a,0.7343,,372.0681,372.0702,-0.020370348,-0.390740763,0,0,0,,0,132,132,312,1,,,,
,,,,,,9fe26927e92f47a550413d30,66a626ef09d4e21e1a8894ec,6734e020009085085a669e23,2024-11-13_18h23.24.124,Tarea de género gramatical,2024.2.2,Win32,60.24096386,,,,,,,,,,,,,,,,,,,,,,,,372.072,373.3052,a,1,[],[],[],[],[],[],[],0.5408,1,373.3076,373.8144,,,,,,733,FEM,CON,150,pluma,,a,0.5408,,373.8145,373.8147,-0.020370348,-0.390740763,0,0,0,,0,133,133,282,1,,,,
,,,,,,9fe26927e92f47a550413d30,66a626ef09d4e21e1a8894ec,6734e020009085085a669e23,2024-11-13_18h23.24.124,Tarea de género gramatical,2024.2.2,Win32,60.24096386,,,,,,,,,,,,,,,,,,,,,,,,373.8171,375.1922,a,1,[],[],[],[],[],[],[],0.6992,1,375.1924,375.6931,,,,,,465,FEM,AGR,150,cama,la,a,0.6992,,375.6931,375.6935,-0.020370348,-0.390740763,0,0,0,,0,134,134,14,1,,,,
,,,,,,9fe26927e92f47a550413d30,66a626ef09d4e21e1a8894ec,6734e020009085085a669e23,2024-11-13_18h23.24.124,Tarea de género gramatical,2024.2.2,Win32,60.24096386,,,,,,,,,,,,,,,,,,,,,,,,375.6967,376.8065,l,1,[],[],[],[],[],[],[],0.4257,1,376.8066,377.3026,,,,,,754,MAS,CON,150,tiempo,,l,0.4257,,377.3027,377.3028,-0.020370348,-0.390740763,0,0,0,,0,135,135,303,1,,,,
,,,,,,9fe26927e92f47a550413d30,66a626ef09d4e21e1a8894ec,6734e020009085085a669e23,2024-11-13_18h23.24.124,Tarea de género gramatical,2024.2.2,Win32,60.24096386,,,,,,,,,,,,,,,,,,,,,,,,377.3054,378.3739,a,1,[],[],[],[],[],[],[],0.4014,1,378.3741,378.8707,,,,,,560,FEM,DIS,150,rosa,el,a,0.4014,,378.8708,378.871,-0.020370348,-0.390740763,0,0,0,,0,136,136,109,1,,,,
,,,,,,9fe26927e92f47a550413d30,66a626ef09d4e21e1a8894ec,6734e020009085085a669e23,2024-11-13_18h23.24.124,Tarea de género gramatical,2024.2.2,Win32,60.24096386,,,,,,,,,,,,,,,,,,,,,,,,378.8736,380.0584,a,1,[],[],[],[],[],[],[],0.5038,1,380.0589,380.5646,,,,,,459,FEM,AGR,150,mamá,la,a,0.5038,,380.5674,380.5694,-0.020370348,-0.390740763,0,0,0,,0,137,137,8,1,,,,
,,,,,,9fe26927e92f47a550413d30,66a626ef09d4e21e1a8894ec,6734e020009085085a669e23,2024-11-13_18h23.24.124,Tarea de género gramatical,2024.2.2,Win32,60.24096386,,,,,,,,,,,,,,,,,,,,,,,,380.571,381.6811,a,1,[],[],[],[],[],[],[],0.4155,1,381.6813,382.1782,,,,,,627,FEM,AGR,150,broma,la,a,0.4155,,382.1782,382.1784,-0.020370348,-0.390740763,0,0,0,,0,138,138,176,1,,,,
,,,,,,9fe26927e92f47a550413d30,66a626ef09d4e21e1a8894ec,6734e020009085085a669e23,2024-11-13_18h23.24.124,Tarea de género gramatical,2024.2.2,Win32,60.24096386,,,,,,,,,,,,,,,,,,,,,,,,382.1812,383.3212,a,1,[],[],[],[],[],[],[],0.4647,1,383.3213,383.8214,,,,,,789,FEM,AGR,150,salida,la,a,0.4647,,383.8215,383.8216,-0.020370348,-0.390740763,0,0,0,,0,139,139,338,1,,,,
,,,,,,9fe26927e92f47a550413d30,66a626ef09d4e21e1a8894ec,6734e020009085085a669e23,2024-11-13_18h23.24.124,Tarea de género gramatical,2024.2.2,Win32,60.24096386,,,,,,,,,,,,,,,,,,,,,,,,383.8248,385.1379,a,1,[],[],[],[],[],[],[],0.6276,1,385.1381,385.6341,,,,,,884,FEM,DIS,150,corona,el,a,0.6276,,385.6341,385.6343,-0.020370348,-0.390740763,0,0,0,,0,140,140,433,1,,,,
,,,,,,9fe26927e92f47a550413d30,66a626ef09d4e21e1a8894ec,6734e020009085085a669e23,2024-11-13_18h23.24.124,Tarea de género gramatical,2024.2.2,Win32,60.24096386,,,,,,,,,,,,,,,,,,,,,,,,385.6372,386.7069,a,1,[],[],[],[],[],[],[],0.3954,1,386.707,387.2154,,,,,,747,FEM,AGR,150,manta,la,a,0.3954,,387.2198,387.2222,-0.020370348,-0.390740763,0,0,0,,0,141,141,296,1,,,,
,,,,,,9fe26927e92f47a550413d30,66a626ef09d4e21e1a8894ec,6734e020009085085a669e23,2024-11-13_18h23.24.124,Tarea de género gramatical,2024.2.2,Win32,60.24096386,,,,,,,,,,,,,,,,,,,,,,,,387.2241,388.2837,a,1,[],[],[],[],[],[],[],0.3902,1,388.2839,388.7828,,,,,,609,FEM,AGR,150,clase,la,a,0.3902,,388.7829,388.7832,-0.020370348,-0.390740763,0,0,0,,0,142,142,158,1,,,,
,,,,,,9fe26927e92f47a550413d30,66a626ef09d4e21e1a8894ec,6734e020009085085a669e23,2024-11-13_18h23.24.124,Tarea de género gramatical,2024.2.2,Win32,60.24096386,,,,,,,,,,,,,,,,,,,,,,,,388.7864,389.8818,a,1,[],[],[],[],[],[],[],0.4249,1,389.8818,390.3716,,,,,,674,FEM,DIS,150,arena,el,a,0.4249,,390.3718,390.3723,-0.020370348,-0.390740763,0,0,0,,0,143,143,223,1,,,,
,,,,,,9fe26927e92f47a550413d30,66a626ef09d4e21e1a8894ec,6734e020009085085a669e23,2024-11-13_18h23.24.124,Tarea de género gramatical,2024.2.2,Win32,60.24096386,,,,,,,,,,,,,,,,,,,,,,,,390.3754,391.522,a,1,[],[],[],[],[],[],[],0.4713,1,391.5222,392.0222,,,,,,561,FEM,AGR,150,goma,la,a,0.4713,,392.0224,392.0225,-0.020370348,-0.390740763,0,0,0,,0,144,144,110,1,,,,
,,,,,,9fe26927e92f47a550413d30,66a626ef09d4e21e1a8894ec,6734e020009085085a669e23,2024-11-13_18h23.24.124,Tarea de género gramatical,2024.2.2,Win32,60.24096386,,,,,,,,,,,,,,,,,,,,,,,,392.0247,393.2433,l,1,[],[],[],[],[],[],[],0.5391,1,393.2434,393.76,,,,,,827,MAS,DIS,150,jardín,la,l,0.5391,,393.76,393.7603,-0.020370348,-0.390740763,0,0,0,,0,145,145,376,1,,,,
,,,,,,9fe26927e92f47a550413d30,66a626ef09d4e21e1a8894ec,6734e020009085085a669e23,2024-11-13_18h23.24.124,Tarea de género gramatical,2024.2.2,Win32,60.24096386,,,,,,,,,,,,,,,,,,,,,,,,393.7632,394.9775,a,1,[],[],[],[],[],[],[],0.5385,1,394.9778,395.4842,,,,,,500,FEM,DIS,150,dama,el,a,0.5385,,395.4874,395.4904,-0.020370348,-0.390740763,0,0,0,,0,146,146,49,1,,,,
,,,,,,9fe26927e92f47a550413d30,66a626ef09d4e21e1a8894ec,6734e020009085085a669e23,2024-11-13_18h23.24.124,Tarea de género gramatical,2024.2.2,Win32,60.24096386,,,,,,,,,,,,,,,,,,,,,,,,395.492,396.5431,l,1,[],[],[],[],[],[],[],0.362,1,396.5432,397.041,,,,,,460,MAS,CON,150,niño,,l,0.362,,397.0412,397.0415,-0.020370348,-0.390740763,0,0,0,,0,147,147,9,1,,,,
,,,,,,9fe26927e92f47a550413d30,66a626ef09d4e21e1a8894ec,6734e020009085085a669e23,2024-11-13_18h23.24.124,Tarea de género gramatical,2024.2.2,Win32,60.24096386,,,,,,,,,,,,,,,,,,,,,,,,397.0434,398.2863,a,1,[],[],[],[],[],[],[],0.557,1,398.2866,398.7899,,,,,,631,FEM,CON,150,tarde,,a,0.557,,398.7899,398.7902,-0.020370348,-0.390740763,0,0,0,,0,148,148,180,1,,,,
,,,,,,9fe26927e92f47a550413d30,66a626ef09d4e21e1a8894ec,6734e020009085085a669e23,2024-11-13_18h23.24.124,Tarea de género gramatical,2024.2.2,Win32,60.24096386,,,,,,,,,,,,,,,,,,,,,,,,398.7937,399.9112,l,1,[],[],[],[],[],[],[],0.3877,1,399.9113,400.4123,,,,,,653,MAS,DIS,150,novio,la,l,0.3877,,400.4124,400.4127,-0.020370348,-0.390740763,0,0,0,,0,149,149,202,1,,,,
,,,,,,9fe26927e92f47a550413d30,66a626ef09d4e21e1a8894ec,6734e020009085085a669e23,2024-11-13_18h23.24.124,Tarea de género gramatical,2024.2.2,Win32,60.24096386,,,,,,,,,,,,,,,,,,,,,,,,400.4171,401.6484,l,1,[],[],[],[],[],[],[],0.5526,1,401.6485,402.1586,,,,,,773,MAS,DIS,150,marido,la,l,0.5526,,402.1631,418.0597,-0.020370348,-0.390740763,0,0,0,space,0,150,150,322,1,15.8538,,,
,,,,,,9fe26927e92f47a550413d30,66a626ef09d4e21e1a8894ec,6734e020009085085a669e23,2024-11-13_18h23.24.124,Tarea de género gramatical,2024.2.2,Win32,60.24096386,,,,,,,,,,,,,,,,,,,,,,,,418.0622,419.3482,l,1,[],[],[],[],[],[],[],0.5998,1,419.3484,419.8481,,,,,,456,MAS,AGR,150,lado,el,l,0.5998,,419.8482,419.8483,-0.020370348,-0.390740763,0,0,0,,0,151,151,5,1,,,,
,,,,,,9fe26927e92f47a550413d30,66a626ef09d4e21e1a8894ec,6734e020009085085a669e23,2024-11-13_18h23.24.124,Tarea de género gramatical,2024.2.2,Win32,60.24096386,,,,,,,,,,,,,,,,,,,,,,,,419.8511,421.2382,l,1,[],[],[],[],[],[],[],0.6988,1,421.2383,421.748,,,,,,857,MAS,DIS,150,jurado,la,l,0.6988,,421.748,421.7482,-0.020370348,-0.390740763,0,0,0,,0,152,152,406,1,,,,
,,,,,,9fe26927e92f47a550413d30,66a626ef09d4e21e1a8894ec,6734e020009085085a669e23,2024-11-13_18h23.24.124,Tarea de género gramatical,2024.2.2,Win32,60.24096386,,,,,,,,,,,,,,,,,,,,,,,,421.7512,422.8884,a,1,[],[],[],[],[],[],[],0.4472,1,422.8885,423.3878,,,,,,776,FEM,DIS,150,música,el,a,0.4472,,423.388,423.3882,-0.020370348,-0.390740763,0,0,0,,0,153,153,325,1,,,,
,,,,,,9fe26927e92f47a550413d30,66a626ef09d4e21e1a8894ec,6734e020009085085a669e23,2024-11-13_18h23.24.124,Tarea de género gramatical,2024.2.2,Win32,60.24096386,,,,,,,,,,,,,,,,,,,,,,,,423.3913,424.4511,a,1,[],[],[],[],[],[],[],0.3803,1,424.4514,424.9315,,,,,,775,FEM,CON,150,tierra,,a,0.3803,,424.9315,424.9317,-0.020370348,-0.390740763,0,0,0,,0,154,154,324,1,,,,
,,,,,,9fe26927e92f47a550413d30,66a626ef09d4e21e1a8894ec,6734e020009085085a669e23,2024-11-13_18h23.24.124,Tarea de género gramatical,2024.2.2,Win32,60.24096386,,,,,,,,,,,,,,,,,,,,,,,,424.9333,426.3321,l,1,[],[],[],[],[],[],[],0.7233,1,426.3323,426.8264,,,,,,869,MAS,DIS,150,cuento,la,l,0.7233,,426.8293,426.8315,-0.020370348,-0.390740763,0,0,0,,0,155,155,418,1,,,,
,,,,,,9fe26927e92f47a550413d30,66a626ef09d4e21e1a8894ec,6734e020009085085a669e23,2024-11-13_18h23.24.124,Tarea de género gramatical,2024.2.2,Win32,60.24096386,,,,,,,,,,,,,,,,,,,,,,,,426.8334,427.9405,l,1,[],[],[],[],[],[],[],0.4255,1,427.9406,428.431,,,,,,666,MAS,AGR,150,éxito,el,l,0.4255,,428.4311,428.4313,-0.020370348,-0.390740763,0,0,0,,0,156,156,215,1,,,,
,,,,,,9fe26927e92f47a550413d30,66a626ef09d4e21e1a8894ec,6734e020009085085a669e23,2024-11-13_18h23.24.124,Tarea de género gramatical,2024.2.2,Win32,60.24096386,,,,,,,,,,,,,,,,,,,,,,,,428.4336,429.5101,l,1,[],[],[],[],[],[],[],0.408,1,429.5102,430.0056,,,,,,510,MAS,AGR,150,tono,el,l,0.408,,430.0058,430.0059,-0.020370348,-0.390740763,0,0,0,,0,157,157,59,1,,,,
,,,,,,9fe26927e92f47a550413d30,66a626ef09d4e21e1a8894ec,6734e020009085085a669e23,2024-11-13_18h23.24.124,Tarea de género gramatical,2024.2.2,Win32,60.24096386,,,,,,,,,,,,,,,,,,,,,,,,430.0089,431.0751,l,1,[],[],[],[],[],[],[],0.3885,1,431.0752,431.5659,,,,,,720,MAS,AGR,150,queso,el,l,0.3885,,431.5659,431.5661,-0.020370348,-0.390740763,0,0,0,,0,158,158,269,1,,,,
,,,,,,9fe26927e92f47a550413d30,66a626ef09d4e21e1a8894ec,6734e020009085085a669e23,2024-11-13_18h23.24.124,Tarea de género gramatical,2024.2.2,Win32,60.24096386,,,,,,,,,,,,,,,,,,,,,,,,431.5687,432.5894,l,1,[],[],[],[],[],[],[],0.3422,1,432.5896,433.0812,,,,,,605,MAS,DIS,150,mundo,la,l,0.3422,,433.0839,433.0865,-0.020370348,-0.390740763,0,0,0,,0,159,159,154,1,,,,
,,,,,,9fe26927e92f47a550413d30,66a626ef09d4e21e1a8894ec,6734e020009085085a669e23,2024-11-13_18h23.24.124,Tarea de género gramatical,2024.2.2,Win32,60.24096386,,,,,,,,,,,,,,,,,,,,,,,,433.088,434.239,a,1,[],[],[],[],[],[],[],0.4745,1,434.2392,434.7339,,,,,,675,FEM,AGR,150,pieza,la,a,0.4745,,434.7341,434.7342,-0.020370348,-0.390740763,0,0,0,,0,160,160,224,1,,,,
,,,,,,9fe26927e92f47a550413d30,66a626ef09d4e21e1a8894ec,6734e020009085085a669e23,2024-11-13_18h23.24.124,Tarea de género gramatical,2024.2.2,Win32,60.24096386,,,,,,,,,,,,,,,,,,,,,,,,434.7368,435.8,a,1,[],[],[],[],[],[],[],0.3793,1,435.8002,436.3026,,,,,,813,FEM,AGR,150,unidad,la,a,0.3793,,436.3027,436.3028,-0.020370348,-0.390740763,0,0,0,,0,161,161,362,1,,,,
,,,,,,9fe26927e92f47a550413d30,66a626ef09d4e21e1a8894ec,6734e020009085085a669e23,2024-11-13_18h23.24.124,Tarea de género gramatical,2024.2.2,Win32,60.24096386,,,,,,,,,,,,,,,,,,,,,,,,436.3051,437.4991,l,1,[],[],[],[],[],[],[],0.507,1,437.4992,437.9885,,,,,,846,MAS,AGR,150,tesoro,el,l,0.507,,437.9885,437.9888,-0.020370348,-0.390740763,0,0,0,,0,162,162,395,1,,,,
,,,,,,9fe26927e92f47a550413d30,66a626ef09d4e21e1a8894ec,6734e020009085085a669e23,2024-11-13_18h23.24.124,Tarea de género gramatical,2024.2.2,Win32,60.24096386,,,,,,,,,,,,,,,,,,,,,,,,437.9915,439.0404,l,1,[],[],[],[],[],[],[],0.3593,1,439.0406,439.5348,,,,,,532,MAS,CON,150,tubo,,l,0.3593,,439.5349,439.5352,-0.020370348,-0.390740763,0,0,0,,0,163,163,81,1,,,,
,,,,,,9fe26927e92f47a550413d30,66a626ef09d4e21e1a8894ec,6734e020009085085a669e23,2024-11-13_18h23.24.124,Tarea de género gramatical,2024.2.2,Win32,60.24096386,,,,,,,,,,,,,,,,,,,,,,,,439.5384,440.504,a,1,[],[],[],[],[],[],[],0.2975,1,440.5041,440.9959,,,,,,765,FEM,AGR,150,manera,la,a,0.2975,,440.9997,441.0023,-0.020370348,-0.390740763,0,0,0,,0,164,164,314,1,,,,
,,,,,,9fe26927e92f47a550413d30,66a626ef09d4e21e1a8894ec,6734e020009085085a669e23,2024-11-13_18h23.24.124,Tarea de género gramatical,2024.2.2,Win32,60.24096386,,,,,,,,,,,,,,,,,,,,,,,,441.0039,442.3152,a,1,[],[],[],[],[],[],[],0.6286,1,442.3153,442.8034,,,,,,812,FEM,DIS,150,fuente,el,a,0.6286,,442.8035,442.8038,-0.020370348,-0.390740763,0,0,0,,0,165,165,361,1,,,,
,,,,,,9fe26927e92f47a550413d30,66a626ef09d4e21e1a8894ec,6734e020009085085a669e23,2024-11-13_18h23.24.124,Tarea de género gramatical,2024.2.2,Win32,60.24096386,,,,,,,,,,,,,,,,,,,,,,,,442.8064,443.7776,l,1,[],[],[],[],[],[],[],0.289,1,443.7777,444.271,,,,,,732,MAS,AGR,150,bolso,el,l,0.289,,444.271,444.2715,-0.020370348,-0.390740763,0,0,0,,0,166,166,281,1,,,,
,,,,,,9fe26927e92f47a550413d30,66a626ef09d4e21e1a8894ec,6734e020009085085a669e23,2024-11-13_18h23.24.124,Tarea de género gramatical,2024.2.2,Win32,60.24096386,,,,,,,,,,,,,,,,,,,,,,,,444.275,445.3597,a,1,[],[],[],[],[],[],[],0.3889,1,445.36,445.8638,,,,,,602,FEM,DIS,150,gente,el,a,0.3889,,445.8638,445.8641,-0.020370348,-0.390740763,0,0,0,,0,167,167,151,1,,,,
,,,,,,9fe26927e92f47a550413d30,66a626ef09d4e21e1a8894ec,6734e020009085085a669e23,2024-11-13_18h23.24.124,Tarea de género gramatical,2024.2.2,Win32,60.24096386,,,,,,,,,,,,,,,,,,,,,,,,445.8668,446.9208,a,1,[],[],[],[],[],[],[],0.3767,1,446.9209,447.4157,,,,,,541,FEM,CON,150,hoja,,a,0.3767,,447.4196,447.4223,-0.020370348,-0.390740763,0,0,0,,0,168,168,90,1,,,,
,,,,,,9fe26927e92f47a550413d30,66a626ef09d4e21e1a8894ec,6734e020009085085a669e23,2024-11-13_18h23.24.124,Tarea de género gramatical,2024.2.2,Win32,60.24096386,,,,,,,,,,,,,,,,,,,,,,,,447.4245,448.448,a,1,[],[],[],[],[],[],[],0.3342,1,448.4482,448.954,,,,,,805,FEM,CON,150,mirada,,a,0.3342,,448.954,448.9542,-0.020370348,-0.390740763,0,0,0,,0,169,169,354,1,,,,
,,,,,,9fe26927e92f47a550413d30,66a626ef09d4e21e1a8894ec,6734e020009085085a669e23,2024-11-13_18h23.24.124,Tarea de género gramatical,2024.2.2,Win32,60.24096386,,,,,,,,,,,,,,,,,,,,,,,,448.9575,450.0748,l,1,[],[],[],[],[],[],[],0.4434,1,450.075,450.5657,,,,,,894,MAS,AGR,150,límite,el,l,0.4434,,450.5657,450.566,-0.020370348,-0.390740763,0,0,0,,0,170,170,443,1,,,,
,,,,,,9fe26927e92f47a550413d30,66a626ef09d4e21e1a8894ec,6734e020009085085a669e23,2024-11-13_18h23.24.124,Tarea de género gramatical,2024.2.2,Win32,60.24096386,,,,,,,,,,,,,,,,,,,,,,,,450.569,451.7386,a,1,[],[],[],[],[],[],[],0.4976,1,451.7387,452.2442,,,,,,799,FEM,CON,150,prensa,,a,0.4976,,452.2443,452.2445,-0.020370348,-0.390740763,0,0,0,,0,171,171,348,1,,,,
,,,,,,9fe26927e92f47a550413d30,66a626ef09d4e21e1a8894ec,6734e020009085085a669e23,2024-11-13_18h23.24.124,Tarea de género gramatical,2024.2.2,Win32,60.24096386,,,,,,,,,,,,,,,,,,,,,,,,452.2475,453.6382,l,1,[],[],[],[],[],[],[],0.7172,1,453.6383,454.1484,,,,,,809,MAS,DIS,150,bosque,la,l,0.7172,,454.1484,454.1487,-0.020370348,-0.390740763,0,0,0,,0,172,172,358,1,,,,
,,,,,,9fe26927e92f47a550413d30,66a626ef09d4e21e1a8894ec,6734e020009085085a669e23,2024-11-13_18h23.24.124,Tarea de género gramatical,2024.2.2,Win32,60.24096386,,,,,,,,,,,,,,,,,,,,,,,,454.1516,455.4322,l,1,[],[],[],[],[],[],[],0.596,1,455.4323,455.9266,,,,,,563,MAS,DIS,150,toro,la,l,0.596,,455.9308,455.9337,-0.020370348,-0.390740763,0,0,0,,0,173,173,112,1,,,,
,,,,,,9fe26927e92f47a550413d30,66a626ef09d4e21e1a8894ec,6734e020009085085a669e23,2024-11-13_18h23.24.124,Tarea de género gramatical,2024.2.2,Win32,60.24096386,,,,,,,,,,,,,,,,,,,,,,,,455.935,457.0811,l,1,[],[],[],[],[],[],[],0.4521,1,457.0813,457.5709,,,,,,598,MAS,CON,150,surf,,l,0.4521,,457.5709,457.5713,-0.020370348,-0.390740763,0,0,0,,0,174,174,147,1,,,,
,,,,,,9fe26927e92f47a550413d30,66a626ef09d4e21e1a8894ec,6734e020009085085a669e23,2024-11-13_18h23.24.124,Tarea de género gramatical,2024.2.2,Win32,60.24096386,,,,,,,,,,,,,,,,,,,,,,,,457.5744,458.7717,l,1,[],[],[],[],[],[],[],0.5155,1,458.7718,459.2651,,,,,,466,MAS,CON,150,baño,,l,0.5155,,459.2652,459.2655,-0.020370348,-0.390740763,0,0,0,,0,175,175,15,1,,,,
,,,,,,9fe26927e92f47a550413d30,66a626ef09d4e21e1a8894ec,6734e020009085085a669e23,2024-11-13_18h23.24.124,Tarea de género gramatical,2024.2.2,Win32,60.24096386,,,,,,,,,,,,,,,,,,,,,,,,459.2688,460.3533,l,1,[],[],[],[],[],[],[],0.3886,1,460.3535,460.8391,,,,,,684,MAS,AGR,150,héroe,el,l,0.3886,,460.8392,460.8395,-0.020370348,-0.390740763,0,0,0,,0,176,176,233,1,,,,
,,,,,,9fe26927e92f47a550413d30,66a626ef09d4e21e1a8894ec,6734e020009085085a669e23,2024-11-13_18h23.24.124,Tarea de género gramatical,2024.2.2,Win32,60.24096386,,,,,,,,,,,,,,,,,,,,,,,,460.8426,461.8525,l,1,[],[],[],[],[],[],[],0.3276,1,461.8528,462.3451,,,,,,688,MAS,CON,150,norte,,l,0.3276,,462.3489,462.3516,-0.020370348,-0.390740763,0,0,0,,0,177,177,237,1,,,,
,,,,,,9fe26927e92f47a550413d30,66a626ef09d4e21e1a8894ec,6734e020009085085a669e23,2024-11-13_18h23.24.124,Tarea de género gramatical,2024.2.2,Win32,60.24096386,,,,,,,,,,,,,,,,,,,,,,,,462.3529,463.3955,l,1,[],[],[],[],[],[],[],0.3573,1,463.3956,463.9051,,,,,,792,MAS,AGR,150,abuelo,el,l,0.3573,,463.9052,463.9055,-0.020370348,-0.390740763,0,0,0,,0,178,178,341,1,,,,
,,,,,,9fe26927e92f47a550413d30,66a626ef09d4e21e1a8894ec,6734e020009085085a669e23,2024-11-13_18h23.24.124,Tarea de género gramatical,2024.2.2,Win32,60.24096386,,,,,,,,,,,,,,,,,,,,,,,,463.9088,465.1571,a,1,[],[],[],[],[],[],[],0.5719,1,465.1572,465.645,,,,,,842,FEM,DIS,150,maleta,el,a,0.5719,,465.645,465.6453,-0.020370348,-0.390740763,0,0,0,,0,179,179,391,1,,,,
,,,,,,9fe26927e92f47a550413d30,66a626ef09d4e21e1a8894ec,6734e020009085085a669e23,2024-11-13_18h23.24.124,Tarea de género gramatical,2024.2.2,Win32,60.24096386,,,,,,,,,,,,,,,,,,,,,,,,465.6481,466.8639,a,1,[],[],[],[],[],[],[],0.544,1,466.864,467.3493,,,,,,577,FEM,CON,150,cuna,,a,0.544,,467.3494,467.3497,-0.020370348,-0.390740763,0,0,0,,0,180,180,126,1,,,,
,,,,,,9fe26927e92f47a550413d30,66a626ef09d4e21e1a8894ec,6734e020009085085a669e23,2024-11-13_18h23.24.124,Tarea de género gramatical,2024.2.2,Win32,60.24096386,,,,,,,,,,,,,,,,,,,,,,,,467.3522,468.4376,a,1,[],[],[],[],[],[],[],0.409,1,468.4377,468.9311,,,,,,764,FEM,DIS,150,señora,el,a,0.409,,468.9312,468.9314,-0.020370348,-0.390740763,0,0,0,,0,181,181,313,1,,,,
,,,,,,9fe26927e92f47a550413d30,66a626ef09d4e21e1a8894ec,6734e020009085085a669e23,2024-11-13_18h23.24.124,Tarea de género gramatical,2024.2.2,Win32,60.24096386,,,,,,,,,,,,,,,,,,,,,,,,468.9342,470.0372,a,1,[],[],[],[],[],[],[],0.422,1,470.0374,470.5259,,,,,,777,FEM,AGR,150,tienda,la,a,0.422,,470.529,470.5312,-0.020370348,-0.390740763,0,0,0,,0,182,182,326,1,,,,
,,,,,,9fe26927e92f47a550413d30,66a626ef09d4e21e1a8894ec,6734e020009085085a669e23,2024-11-13_18h23.24.124,Tarea de género gramatical,2024.2.2,Win32,60.24096386,,,,,,,,,,,,,,,,,,,,,,,,470.5329,471.5481,a,1,[],[],[],[],[],[],[],0.3311,1,471.5482,472.0374,,,,,,741,FEM,AGR,150,aguja,la,a,0.3311,,472.0375,472.0377,-0.020370348,-0.390740763,0,0,0,,0,183,183,290,1,,,,
,,,,,,9fe26927e92f47a550413d30,66a626ef09d4e21e1a8894ec,6734e020009085085a669e23,2024-11-13_18h23.24.124,Tarea de género gramatical,2024.2.2,Win32,60.24096386,,,,,,,,,,,,,,,,,,,,,,,,472.0415,473.153,a,1,[],[],[],[],[],[],[],0.4396,1,473.1531,473.6414,,,,,,620,FEM,DIS,150,carta,el,a,0.4396,,473.6415,473.6418,-0.020370348,-0.390740763,0,0,0,,0,184,184,169,1,,,,
,,,,,,9fe26927e92f47a550413d30,66a626ef09d4e21e1a8894ec,6734e020009085085a669e23,2024-11-13_18h23.24.124,Tarea de género gramatical,2024.2.2,Win32,60.24096386,,,,,,,,,,,,,,,,,,,,,,,,473.6443,474.6514,a,1,[],[],[],[],[],[],[],0.3141,1,474.6515,475.1341,,,,,,896,FEM,DIS,150,bañera,el,a,0.3141,,475.1342,475.1344,-0.020370348,-0.390740763,0,0,0,,0,185,185,445,1,,,,
,,,,,,9fe26927e92f47a550413d30,66a626ef09d4e21e1a8894ec,6734e020009085085a669e23,2024-11-13_18h23.24.124,Tarea de género gramatical,2024.2.2,Win32,60.24096386,,,,,,,,,,,,,,,,,,,,,,,,475.1373,476.1979,a,1,[],[],[],[],[],[],[],0.3767,1,476.1979,476.6812,,,,,,873,FEM,AGR,150,poesía,la,a,0.3767,,476.6842,476.6864,-0.020370348,-0.390740763,0,0,0,,0,186,186,422,1,,,,
,,,,,,9fe26927e92f47a550413d30,66a626ef09d4e21e1a8894ec,6734e020009085085a669e23,2024-11-13_18h23.24.124,Tarea de género gramatical,2024.2.2,Win32,60.24096386,,,,,,,,,,,,,,,,,,,,,,,,476.688,477.7716,l,1,[],[],[],[],[],[],[],0.402,1,477.7718,478.2502,,,,,,540,MAS,AGR,150,león,el,l,0.402,,478.2502,478.2504,-0.020370348,-0.390740763,0,0,0,,0,187,187,89,1,,,,
,,,,,,9fe26927e92f47a550413d30,66a626ef09d4e21e1a8894ec,6734e020009085085a669e23,2024-11-13_18h23.24.124,Tarea de género gramatical,2024.2.2,Win32,60.24096386,,,,,,,,,,,,,,,,,,,,,,,,478.2529,479.3529,a,1,[],[],[],[],[],[],[],0.415,1,479.353,479.8632,,,,,,567,FEM,AGR,150,raya,la,a,0.415,,479.8633,479.8635,-0.020370348,-0.390740763,0,0,0,,0,188,188,116,1,,,,
,,,,,,9fe26927e92f47a550413d30,66a626ef09d4e21e1a8894ec,6734e020009085085a669e23,2024-11-13_18h23.24.124,Tarea de género gramatical,2024.2.2,Win32,60.24096386,,,,,,,,,,,,,,,,,,,,,,,,479.8666,481.152,l,1,[],[],[],[],[],[],[],0.5971,1,481.1521,481.6634,,,,,,737,MAS,DIS,150,plato,la,l,0.5971,,481.6634,481.6636,-0.020370348,-0.390740763,0,0,0,,0,189,189,286,1,,,,
,,,,,,9fe26927e92f47a550413d30,66a626ef09d4e21e1a8894ec,6734e020009085085a669e23,2024-11-13_18h23.24.124,Tarea de género gramatical,2024.2.2,Win32,60.24096386,,,,,,,,,,,,,,,,,,,,,,,,481.6661,482.8097,a,1,[],[],[],[],[],[],[],0.4632,1,482.8099,483.3141,,,,,,559,FEM,CON,150,gota,,a,0.4632,,483.3141,483.3145,-0.020370348,-0.390740763,0,0,0,,0,190,190,108,1,,,,
,,,,,,9fe26927e92f47a550413d30,66a626ef09d4e21e1a8894ec,6734e020009085085a669e23,2024-11-13_18h23.24.124,Tarea de género gramatical,2024.2.2,Win32,60.24096386,,,,,,,,,,,,,,,,,,,,,,,,483.3171,484.6451,a,1,[],[],[],[],[],[],[],0.6531,1,484.6451,485.1375,,,,,,589,FEM,CON,150,pipa,,a,0.6531,,485.1408,485.1435,-0.020370348,-0.390740763,0,0,0,,0,191,191,138,1,,,,
,,,,,,9fe26927e92f47a550413d30,66a626ef09d4e21e1a8894ec,6734e020009085085a669e23,2024-11-13_18h23.24.124,Tarea de género gramatical,2024.2.2,Win32,60.24096386,,,,,,,,,,,,,,,,,,,,,,,,485.1448,486.2352,a,1,[],[],[],[],[],[],[],0.3991,1,486.2353,486.724,,,,,,823,FEM,CON,150,lluvia,,a,0.3991,,486.7241,486.7243,-0.020370348,-0.390740763,0,0,0,,0,192,192,372,1,,,,
,,,,,,9fe26927e92f47a550413d30,66a626ef09d4e21e1a8894ec,6734e020009085085a669e23,2024-11-13_18h23.24.124,Tarea de género gramatical,2024.2.2,Win32,60.24096386,,,,,,,,,,,,,,,,,,,,,,,,486.7261,487.761,l,1,[],[],[],[],[],[],[],0.3481,1,487.7611,488.241,,,,,,551,MAS,DIS,150,giro,la,l,0.3481,,488.2411,488.2413,-0.020370348,-0.390740763,0,0,0,,0,193,193,100,1,,,,
,,,,,,9fe26927e92f47a550413d30,66a626ef09d4e21e1a8894ec,6734e020009085085a669e23,2024-11-13_18h23.24.124,Tarea de género gramatical,2024.2.2,Win32,60.24096386,,,,,,,,,,,,,,,,,,,,,,,,488.2445,489.9398,l,1,[],[],[],[],[],[],[],1.0162,1,489.9399,490.4529,,,,,,527,MAS,DIS,150,pico,la,l,1.0162,,490.4531,490.4539,-0.020370348,-0.390740763,0,0,0,,0,194,194,76,1,,,,
,,,,,,9fe26927e92f47a550413d30,66a626ef09d4e21e1a8894ec,6734e020009085085a669e23,2024-11-13_18h23.24.124,Tarea de género gramatical,2024.2.2,Win32,60.24096386,,,,,,,,,,,,,,,,,,,,,,,,490.4586,491.8214,l,1,[],[],[],[],[],[],[],0.6808,1,491.8215,492.322,,,,,,623,MAS,DIS,150,libro,la,l,0.6808,,492.3248,492.327,-0.020370348,-0.390740763,0,0,0,,0,195,195,172,1,,,,
,,,,,,9fe26927e92f47a550413d30,66a626ef09d4e21e1a8894ec,6734e020009085085a669e23,2024-11-13_18h23.24.124,Tarea de género gramatical,2024.2.2,Win32,60.24096386,,,,,,,,,,,,,,,,,,,,,,,,492.33,493.5484,l,1,[],[],[],[],[],[],[],0.5292,1,493.5485,494.0462,,,,,,881,MAS,DIS,150,veneno,la,l,0.5292,,494.0463,494.0464,-0.020370348,-0.390740763,0,0,0,,0,196,196,430,1,,,,
,,,,,,9fe26927e92f47a550413d30,66a626ef09d4e21e1a8894ec,6734e020009085085a669e23,2024-11-13_18h23.24.124,Tarea de género gramatical,2024.2.2,Win32,60.24096386,,,,,,,,,,,,,,,,,,,,,,,,494.0507,495.2333,a,1,[],[],[],[],[],[],[],0.5004,1,495.2334,495.7139,,,,,,759,FEM,AGR,150,esposa,la,a,0.5004,,495.714,495.7142,-0.020370348,-0.390740763,0,0,0,,0,197,197,308,1,,,,
,,,,,,9fe26927e92f47a550413d30,66a626ef09d4e21e1a8894ec,6734e020009085085a669e23,2024-11-13_18h23.24.124,Tarea de género gramatical,2024.2.2,Win32,60.24096386,,,,,,,,,,,,,,,,,,,,,,,,495.7169,496.9843,l,1,[],[],[],[],[],[],[],0.5874,1,496.9844,497.4629,,,,,,738,MAS,AGR,150,grado,el,l,0.5874,,497.463,497.4632,-0.020370348,-0.390740763,0,0,0,,0,198,198,287,1,,,,
,,,,,,9fe26927e92f47a550413d30,66a626ef09d4e21e1a8894ec,6734e020009085085a669e23,2024-11-13_18h23.24.124,Tarea de género gramatical,2024.2.2,Win32,60.24096386,,,,,,,,,,,,,,,,,,,,,,,,497.4666,498.6586,a,1,[],[],[],[],[],[],[],0.5022,1,498.6588,499.1544,,,,,,613,FEM,CON,150,calle,,a,0.5022,,499.1545,499.1547,-0.020370348,-0.390740763,0,0,0,,0,199,199,162,1,,,,
,,,,,,9fe26927e92f47a550413d30,66a626ef09d4e21e1a8894ec,6734e020009085085a669e23,2024-11-13_18h23.24.124,Tarea de género gramatical,2024.2.2,Win32,60.24096386,,,,,,,,,,,,,,,,,,,,,,,,499.1577,500.3959,l,1,[],[],[],[],[],[],[],0.5662,1,500.396,500.89,,,,,,874,MAS,CON,150,rastro,,l,0.5662,,500.8932,500.8956,-0.020370348,-0.390740763,0,0,0,,0,200,200,423,1,,,,
,,,,,,9fe26927e92f47a550413d30,66a626ef09d4e21e1a8894ec,6734e020009085085a669e23,2024-11-13_18h23.24.124,Tarea de género gramatical,2024.2.2,Win32,60.24096386,,,,,,,,,,,,,,,,,,,,,,,,500.8978,502.033,l,1,[],[],[],[],[],[],[],0.4445,1,502.0332,502.5227,,,,,,887,MAS,DIS,150,hombro,la,l,0.4445,,502.5228,502.5232,-0.020370348,-0.390740763,0,0,0,,0,201,201,436,1,,,,
,,,,,,9fe26927e92f47a550413d30,66a626ef09d4e21e1a8894ec,6734e020009085085a669e23,2024-11-13_18h23.24.124,Tarea de género gramatical,2024.2.2,Win32,60.24096386,,,,,,,,,,,,,,,,,,,,,,,,502.5255,503.6478,a,1,[],[],[],[],[],[],[],0.4279,1,503.6479,504.1414,,,,,,505,FEM,CON,150,taza,,a,0.4279,,504.1415,504.1417,-0.020370348,-0.390740763,0,0,0,,0,202,202,54,1,,,,
,,,,,,9fe26927e92f47a550413d30,66a626ef09d4e21e1a8894ec,6734e020009085085a669e23,2024-11-13_18h23.24.124,Tarea de género gramatical,2024.2.2,Win32,60.24096386,,,,,,,,,,,,,,,,,,,,,,,,504.1442,505.2517,a,1,[],[],[],[],[],[],[],0.4313,1,505.2518,505.7444,,,,,,501,FEM,AGR,150,bala,la,a,0.4313,,505.7444,505.7446,-0.020370348,-0.390740763,0,0,0,,0,203,203,50,1,,,,
,,,,,,9fe26927e92f47a550413d30,66a626ef09d4e21e1a8894ec,6734e020009085085a669e23,2024-11-13_18h23.24.124,Tarea de género gramatical,2024.2.2,Win32,60.24096386,,,,,,,,,,,,,,,,,,,,,,,,505.7474,507.1551,l,1,[],[],[],[],[],[],[],0.7286,1,507.1553,507.6305,,,,,,815,MAS,DIS,150,código,la,l,0.7286,,507.6334,507.6358,-0.020370348,-0.390740763,0,0,0,,0,204,204,364,1,,,,
,,,,,,9fe26927e92f47a550413d30,66a626ef09d4e21e1a8894ec,6734e020009085085a669e23,2024-11-13_18h23.24.124,Tarea de género gramatical,2024.2.2,Win32,60.24096386,,,,,,,,,,,,,,,,,,,,,,,,507.6374,508.8094,a,1,[],[],[],[],[],[],[],0.4951,1,508.8095,509.3139,,,,,,547,FEM,CON,150,capa,,a,0.4951,,509.3139,509.3142,-0.020370348,-0.390740763,0,0,0,,0,205,205,96,1,,,,
,,,,,,9fe26927e92f47a550413d30,66a626ef09d4e21e1a8894ec,6734e020009085085a669e23,2024-11-13_18h23.24.124,Tarea de género gramatical,2024.2.2,Win32,60.24096386,,,,,,,,,,,,,,,,,,,,,,,,509.3168,510.5875,a,1,[],[],[],[],[],[],[],0.6,1,510.5876,511.078,,,,,,668,FEM,DIS,150,nieve,el,a,0.6,,511.0781,511.0787,-0.020370348,-0.390740763,0,0,0,,0,206,206,217,1,,,,
,,,,,,9fe26927e92f47a550413d30,66a626ef09d4e21e1a8894ec,6734e020009085085a669e23,2024-11-13_18h23.24.124,Tarea de género gramatical,2024.2.2,Win32,60.24096386,,,,,,,,,,,,,,,,,,,,,,,,511.0817,512.3192,l,1,[],[],[],[],[],[],[],0.5547,1,512.3193,512.8105,,,,,,634,MAS,CON,150,cielo,,l,0.5547,,512.8106,512.8107,-0.020370348,-0.390740763,0,0,0,,0,207,207,183,1,,,,
,,,,,,9fe26927e92f47a550413d30,66a626ef09d4e21e1a8894ec,6734e020009085085a669e23,2024-11-13_18h23.24.124,Tarea de género gramatical,2024.2.2,Win32,60.24096386,,,,,,,,,,,,,,,,,,,,,,,,512.8125,514.1584,a,1,[],[],[],[],[],[],[],0.6652,1,514.1585,514.6552,,,,,,867,FEM,AGR,150,cabaña,la,a,0.6652,,514.6553,514.6555,-0.020370348,-0.390740763,0,0,0,,0,208,208,416,1,,,,
,,,,,,9fe26927e92f47a550413d30,66a626ef09d4e21e1a8894ec,6734e020009085085a669e23,2024-11-13_18h23.24.124,Tarea de género gramatical,2024.2.2,Win32,60.24096386,,,,,,,,,,,,,,,,,,,,,,,,514.6594,516.0763,l,1,[],[],[],[],[],[],[],0.7288,1,516.0765,516.5805,,,,,,545,MAS,DIS,150,tomo,la,l,0.7288,,516.5832,516.5857,-0.020370348,-0.390740763,0,0,0,,0,209,209,94,1,,,,
,,,,,,9fe26927e92f47a550413d30,66a626ef09d4e21e1a8894ec,6734e020009085085a669e23,2024-11-13_18h23.24.124,Tarea de género gramatical,2024.2.2,Win32,60.24096386,,,,,,,,,,,,,,,,,,,,,,,,516.5873,517.7042,a,1,[],[],[],[],[],[],[],0.4293,1,517.7043,518.1847,,,,,,452,FEM,DIS,150,vida,el,a,0.4293,,518.1848,518.1851,-0.020370348,-0.390740763,0,0,0,,0,210,210,1,1,,,,
,,,,,,9fe26927e92f47a550413d30,66a626ef09d4e21e1a8894ec,6734e020009085085a669e23,2024-11-13_18h23.24.124,Tarea de género gramatical,2024.2.2,Win32,60.24096386,,,,,,,,,,,,,,,,,,,,,,,,518.1881,519.286,l,0,[],[],[],[],[],[],[],0.4182,0,519.2888,519.7966,,,,,,645,FEM,AGR,150,pared,la,a,0.4182,,519.7966,519.7968,-0.020370348,-0.390740763,0,0,0,,0,211,211,194,1,,,,
,,,,,,9fe26927e92f47a550413d30,66a626ef09d4e21e1a8894ec,6734e020009085085a669e23,2024-11-13_18h23.24.124,Tarea de género gramatical,2024.2.2,Win32,60.24096386,,,,,,,,,,,,,,,,,,,,,,,,519.7994,521.0253,a,1,[],[],[],[],[],[],[],0.5375,1,521.0279,521.5267,,,,,,644,FEM,DIS,150,banda,el,a,0.5375,,521.5268,521.527,-0.020370348,-0.390740763,0,0,0,,0,212,212,193,1,,,,
,,,,,,9fe26927e92f47a550413d30,66a626ef09d4e21e1a8894ec,6734e020009085085a669e23,2024-11-13_18h23.24.124,Tarea de género gramatical,2024.2.2,Win32,60.24096386,,,,,,,,,,,,,,,,,,,,,,,,521.5299,522.6815,a,1,[],[],[],[],[],[],[],0.4607,1,522.6816,523.1867,,,,,,643,FEM,CON,150,bolsa,,a,0.4607,,523.1902,523.1927,-0.020370348,-0.390740763,0,0,0,,0,213,213,192,1,,,,
,,,,,,9fe26927e92f47a550413d30,66a626ef09d4e21e1a8894ec,6734e020009085085a669e23,2024-11-13_18h23.24.124,Tarea de género gramatical,2024.2.2,Win32,60.24096386,,,,,,,,,,,,,,,,,,,,,,,,523.1942,524.2212,a,1,[],[],[],[],[],[],[],0.3469,1,524.2214,524.7166,,,,,,771,FEM,AGR,150,comida,la,a,0.3469,,524.7168,524.7171,-0.020370348,-0.390740763,0,0,0,,0,214,214,320,1,,,,
,,,,,,9fe26927e92f47a550413d30,66a626ef09d4e21e1a8894ec,6734e020009085085a669e23,2024-11-13_18h23.24.124,Tarea de género gramatical,2024.2.2,Win32,60.24096386,,,,,,,,,,,,,,,,,,,,,,,,524.7205,525.7102,a,1,[],[],[],[],[],[],[],0.3068,1,525.7105,526.218,,,,,,891,FEM,AGR,150,medida,la,a,0.3068,,526.218,526.2183,-0.020370348,-0.390740763,0,0,0,,0,215,215,440,1,,,,
,,,,,,9fe26927e92f47a550413d30,66a626ef09d4e21e1a8894ec,6734e020009085085a669e23,2024-11-13_18h23.24.124,Tarea de género gramatical,2024.2.2,Win32,60.24096386,,,,,,,,,,,,,,,,,,,,,,,,526.2215,527.4196,l,1,[],[],[],[],[],[],[],0.5016,1,527.4197,527.9202,,,,,,768,MAS,AGR,150,pueblo,el,l,0.5016,,527.9202,527.9205,-0.020370348,-0.390740763,0,0,0,,0,216,216,317,1,,,,
,,,,,,9fe26927e92f47a550413d30,66a626ef09d4e21e1a8894ec,6734e020009085085a669e23,2024-11-13_18h23.24.124,Tarea de género gramatical,2024.2.2,Win32,60.24096386,,,,,,,,,,,,,,,,,,,,,,,,527.9239,529.5136,a,1,[],[],[],[],[],[],[],0.9092,1,529.5137,530.0213,,,,,,895,FEM,CON,150,bondad,,a,0.9092,,530.0214,530.0215,-0.020370348,-0.390740763,0,0,0,,0,217,217,444,1,,,,
,,,,,,9fe26927e92f47a550413d30,66a626ef09d4e21e1a8894ec,6734e020009085085a669e23,2024-11-13_18h23.24.124,Tarea de género gramatical,2024.2.2,Win32,60.24096386,,,,,,,,,,,,,,,,,,,,,,,,530.0246,531.1315,l,1,[],[],[],[],[],[],[],0.4152,1,531.1316,531.6363,,,,,,882,MAS,AGR,150,océano,el,l,0.4152,,531.6403,531.6424,-0.020370348,-0.390740763,0,0,0,,0,218,218,431,1,,,,
,,,,,,9fe26927e92f47a550413d30,66a626ef09d4e21e1a8894ec,6734e020009085085a669e23,2024-11-13_18h23.24.124,Tarea de género gramatical,2024.2.2,Win32,60.24096386,,,,,,,,,,,,,,,,,,,,,,,,531.6436,533.0473,l,1,[],[],[],[],[],[],[],0.723,1,533.0473,533.53,,,,,,810,MAS,AGR,150,puente,el,l,0.723,,533.53,533.5303,-0.020370348,-0.390740763,0,0,0,,0,219,219,359,1,,,,
,,,,,,9fe26927e92f47a550413d30,66a626ef09d4e21e1a8894ec,6734e020009085085a669e23,2024-11-13_18h23.24.124,Tarea de género gramatical,2024.2.2,Win32,60.24096386,,,,,,,,,,,,,,,,,,,,,,,,533.5331,534.6153,l,1,[],[],[],[],[],[],[],0.3918,1,534.6154,535.1159,,,,,,858,MAS,AGR,150,cheque,el,l,0.3918,,535.1161,535.1162,-0.020370348,-0.390740763,0,0,0,,0,220,220,407,1,,,,
,,,,,,9fe26927e92f47a550413d30,66a626ef09d4e21e1a8894ec,6734e020009085085a669e23,2024-11-13_18h23.24.124,Tarea de género gramatical,2024.2.2,Win32,60.24096386,,,,,,,,,,,,,,,,,,,,,,,,535.1194,536.1355,l,1,[],[],[],[],[],[],[],0.3305,1,536.1357,536.6174,,,,,,604,MAS,CON,150,padre,,l,0.3305,,536.6175,536.6177,-0.020370348,-0.390740763,0,0,0,,0,221,221,153,1,,,,
,,,,,,9fe26927e92f47a550413d30,66a626ef09d4e21e1a8894ec,6734e020009085085a669e23,2024-11-13_18h23.24.124,Tarea de género gramatical,2024.2.2,Win32,60.24096386,,,,,,,,,,,,,,,,,,,,,,,,536.6208,537.7547,a,1,[],[],[],[],[],[],[],0.4625,1,537.7549,538.2376,,,,,,734,FEM,DIS,150,fruta,el,a,0.4625,,538.2427,538.2452,-0.020370348,-0.390740763,0,0,0,,0,222,222,283,1,,,,
,,,,,,9fe26927e92f47a550413d30,66a626ef09d4e21e1a8894ec,6734e020009085085a669e23,2024-11-13_18h23.24.124,Tarea de género gramatical,2024.2.2,Win32,60.24096386,,,,,,,,,,,,,,,,,,,,,,,,538.2466,539.7423,l,1,[],[],[],[],[],[],[],0.805,1,539.7424,540.2304,,,,,,539,MAS,DIS,150,maíz,la,l,0.805,,540.2305,540.2308,-0.020370348,-0.390740763,0,0,0,,0,223,223,88,1,,,,
,,,,,,9fe26927e92f47a550413d30,66a626ef09d4e21e1a8894ec,6734e020009085085a669e23,2024-11-13_18h23.24.124,Tarea de género gramatical,2024.2.2,Win32,60.24096386,,,,,,,,,,,,,,,,,,,,,,,,540.2337,541.4301,a,1,[],[],[],[],[],[],[],0.5025,1,541.4302,541.932,,,,,,735,FEM,AGR,150,mafia,la,a,0.5025,,541.932,541.9322,-0.020370348,-0.390740763,0,0,0,,0,224,224,284,1,,,,
,,,,,,9fe26927e92f47a550413d30,66a626ef09d4e21e1a8894ec,6734e020009085085a669e23,2024-11-13_18h23.24.124,Tarea de género gramatical,2024.2.2,Win32,60.24096386,,,,,,,,,,,,,,,,,,,,,,,,541.9349,543.151,l,1,[],[],[],[],[],[],[],0.5381,1,543.151,543.63,,,,,,730,MAS,CON,150,salón,,l,0.5381,,543.63,543.6303,-0.020370348,-0.390740763,0,0,0,,0,225,225,279,1,,,,
,,,,,,9fe26927e92f47a550413d30,66a626ef09d4e21e1a8894ec,6734e020009085085a669e23,2024-11-13_18h23.24.124,Tarea de género gramatical,2024.2.2,Win32,60.24096386,,,,,,,,,,,,,,,,,,,,,,,,543.6327,544.8377,a,1,[],[],[],[],[],[],[],0.5079,1,544.8378,545.3351,,,,,,711,FEM,AGR,150,cueva,la,a,0.5079,,545.3352,545.3355,-0.020370348,-0.390740763,0,0,0,,0,226,226,260,1,,,,
,,,,,,9fe26927e92f47a550413d30,66a626ef09d4e21e1a8894ec,6734e020009085085a669e23,2024-11-13_18h23.24.124,Tarea de género gramatical,2024.2.2,Win32,60.24096386,,,,,,,,,,,,,,,,,,,,,,,,545.3384,547.0598,a,1,[],[],[],[],[],[],[],1.0306,1,547.06,547.5693,,,,,,595,FEM,CON,150,bota,,a,1.0306,,547.5727,547.5746,-0.020370348,-0.390740763,0,0,0,,0,227,227,144,1,,,,
,,,,,,9fe26927e92f47a550413d30,66a626ef09d4e21e1a8894ec,6734e020009085085a669e23,2024-11-13_18h23.24.124,Tarea de género gramatical,2024.2.2,Win32,60.24096386,,,,,,,,,,,,,,,,,,,,,,,,547.5763,549.0685,l,1,[],[],[],[],[],[],[],0.8003,1,549.0686,549.5698,,,,,,587,MAS,DIS,150,coco,la,l,0.8003,,549.5698,549.5701,-0.020370348,-0.390740763,0,0,0,,0,228,228,136,1,,,,
,,,,,,9fe26927e92f47a550413d30,66a626ef09d4e21e1a8894ec,6734e020009085085a669e23,2024-11-13_18h23.24.124,Tarea de género gramatical,2024.2.2,Win32,60.24096386,,,,,,,,,,,,,,,,,,,,,,,,549.5734,550.7269,a,1,[],[],[],[],[],[],[],0.4637,1,550.727,551.2225,,,,,,783,FEM,AGR,150,locura,la,a,0.4637,,551.2227,551.2228,-0.020370348,-0.390740763,0,0,0,,0,229,229,332,1,,,,
,,,,,,9fe26927e92f47a550413d30,66a626ef09d4e21e1a8894ec,6734e020009085085a669e23,2024-11-13_18h23.24.124,Tarea de género gramatical,2024.2.2,Win32,60.24096386,,,,,,,,,,,,,,,,,,,,,,,,551.2255,552.5416,a,1,[],[],[],[],[],[],[],0.6443,1,552.5418,553.0325,,,,,,753,FEM,AGR,150,maldad,la,a,0.6443,,553.0327,553.0329,-0.020370348,-0.390740763,0,0,0,,0,230,230,302,1,,,,
,,,,,,9fe26927e92f47a550413d30,66a626ef09d4e21e1a8894ec,6734e020009085085a669e23,2024-11-13_18h23.24.124,Tarea de género gramatical,2024.2.2,Win32,60.24096386,,,,,,,,,,,,,,,,,,,,,,,,553.0359,554.2154,a,1,[],[],[],[],[],[],[],0.4895,1,554.2155,554.7249,,,,,,639,FEM,AGR,150,pista,la,a,0.4895,,554.7296,554.7328,-0.020370348,-0.390740763,0,0,0,,0,231,231,188,1,,,,
,,,,,,9fe26927e92f47a550413d30,66a626ef09d4e21e1a8894ec,6734e020009085085a669e23,2024-11-13_18h23.24.124,Tarea de género gramatical,2024.2.2,Win32,60.24096386,,,,,,,,,,,,,,,,,,,,,,,,554.7352,555.8948,a,1,[],[],[],[],[],[],[],0.4749,1,555.8949,556.3796,,,,,,483,FEM,AGR,150,boda,la,a,0.4749,,556.3797,556.3798,-0.020370348,-0.390740763,0,0,0,,0,232,232,32,1,,,,
,,,,,,9fe26927e92f47a550413d30,66a626ef09d4e21e1a8894ec,6734e020009085085a669e23,2024-11-13_18h23.24.124,Tarea de género gramatical,2024.2.2,Win32,60.24096386,,,,,,,,,,,,,,,,,,,,,,,,556.3825,557.5978,l,1,[],[],[],[],[],[],[],0.5357,1,557.5979,558.0798,,,,,,629,MAS,DIS,150,viaje,la,l,0.5357,,558.0798,558.08,-0.020370348,-0.390740763,0,0,0,,0,233,233,178,1,,,,
,,,,,,9fe26927e92f47a550413d30,66a626ef09d4e21e1a8894ec,6734e020009085085a669e23,2024-11-13_18h23.24.124,Tarea de género gramatical,2024.2.2,Win32,60.24096386,,,,,,,,,,,,,,,,,,,,,,,,558.0826,559.4313,a,1,[],[],[],[],[],[],[],0.6628,1,559.4313,559.9131,,,,,,831,FEM,AGR,150,bebida,la,a,0.6628,,559.9132,559.9135,-0.020370348,-0.390740763,0,0,0,,0,234,234,380,1,,,,
,,,,,,9fe26927e92f47a550413d30,66a626ef09d4e21e1a8894ec,6734e020009085085a669e23,2024-11-13_18h23.24.124,Tarea de género gramatical,2024.2.2,Win32,60.24096386,,,,,,,,,,,,,,,,,,,,,,,,559.9163,561.2734,l,1,[],[],[],[],[],[],[],0.6706,1,561.2737,561.7741,,,,,,838,MAS,CON,150,empleo,,l,0.6706,,561.7741,561.7744,-0.020370348,-0.390740763,0,0,0,,0,235,235,387,1,,,,
,,,,,,9fe26927e92f47a550413d30,66a626ef09d4e21e1a8894ec,6734e020009085085a669e23,2024-11-13_18h23.24.124,Tarea de género gramatical,2024.2.2,Win32,60.24096386,,,,,,,,,,,,,,,,,,,,,,,,561.7765,562.8803,a,1,[],[],[],[],[],[],[],0.4076,1,562.8803,563.3775,,,,,,673,FEM,CON,150,plata,,a,0.4076,,563.3806,563.3828,-0.020370348,-0.390740763,0,0,0,,0,236,236,222,1,,,,
,,,,,,9fe26927e92f47a550413d30,66a626ef09d4e21e1a8894ec,6734e020009085085a669e23,2024-11-13_18h23.24.124,Tarea de género gramatical,2024.2.2,Win32,60.24096386,,,,,,,,,,,,,,,,,,,,,,,,563.3848,564.4687,a,1,[],[],[],[],[],[],[],0.3979,1,564.4688,564.9702,,,,,,861,FEM,AGR,150,actriz,la,a,0.3979,,564.9703,564.9706,-0.020370348,-0.390740763,0,0,0,,0,237,237,410,1,,,,
,,,,,,9fe26927e92f47a550413d30,66a626ef09d4e21e1a8894ec,6734e020009085085a669e23,2024-11-13_18h23.24.124,Tarea de género gramatical,2024.2.2,Win32,60.24096386,,,,,,,,,,,,,,,,,,,,,,,,564.9736,566.2767,l,1,[],[],[],[],[],[],[],0.6305,1,566.2768,566.7762,,,,,,533,MAS,DIS,150,nene,la,l,0.6305,,566.7763,566.7765,-0.020370348,-0.390740763,0,0,0,,0,238,238,82,1,,,,
,,,,,,9fe26927e92f47a550413d30,66a626ef09d4e21e1a8894ec,6734e020009085085a669e23,2024-11-13_18h23.24.124,Tarea de género gramatical,2024.2.2,Win32,60.24096386,,,,,,,,,,,,,,,,,,,,,,,,566.7792,568.3545,l,1,[],[],[],[],[],[],[],0.8875,1,568.3546,568.8625,,,,,,676,MAS,CON,150,color,,l,0.8875,,568.8625,568.8628,-0.020370348,-0.390740763,0,0,0,,0,239,239,225,1,,,,
,,,,,,9fe26927e92f47a550413d30,66a626ef09d4e21e1a8894ec,6734e020009085085a669e23,2024-11-13_18h23.24.124,Tarea de género gramatical,2024.2.2,Win32,60.24096386,,,,,,,,,,,,,,,,,,,,,,,,568.8653,569.8968,l,1,[],[],[],[],[],[],[],0.3459,1,569.897,570.39,,,,,,472,MAS,CON,150,pelo,,l,0.3459,,570.3934,570.3958,-0.020370348,-0.390740763,0,0,0,,0,240,240,21,1,,,,
,,,,,,9fe26927e92f47a550413d30,66a626ef09d4e21e1a8894ec,6734e020009085085a669e23,2024-11-13_18h23.24.124,Tarea de género gramatical,2024.2.2,Win32,60.24096386,,,,,,,,,,,,,,,,,,,,,,,,570.3974,571.6898,a,1,[],[],[],[],[],[],[],0.611,1,571.69,572.1789,,,,,,656,FEM,DIS,150,época,el,a,0.611,,572.1791,572.1793,-0.020370348,-0.390740763,0,0,0,,0,241,241,205,1,,,,
,,,,,,9fe26927e92f47a550413d30,66a626ef09d4e21e1a8894ec,6734e020009085085a669e23,2024-11-13_18h23.24.124,Tarea de género gramatical,2024.2.2,Win32,60.24096386,,,,,,,,,,,,,,,,,,,,,,,,572.1812,573.3548,l,1,[],[],[],[],[],[],[],0.4915,1,573.3548,573.8621,,,,,,706,MAS,CON,150,techo,,l,0.4915,,573.8621,573.8624,-0.020370348,-0.390740763,0,0,0,,0,242,242,255,1,,,,
,,,,,,9fe26927e92f47a550413d30,66a626ef09d4e21e1a8894ec,6734e020009085085a669e23,2024-11-13_18h23.24.124,Tarea de género gramatical,2024.2.2,Win32,60.24096386,,,,,,,,,,,,,,,,,,,,,,,,573.865,575.11,l,1,[],[],[],[],[],[],[],0.5701,1,575.1102,575.6069,,,,,,808,MAS,CON,150,motivo,,l,0.5701,,575.607,575.6073,-0.020370348,-0.390740763,0,0,0,,0,243,243,357,1,,,,
,,,,,,9fe26927e92f47a550413d30,66a626ef09d4e21e1a8894ec,6734e020009085085a669e23,2024-11-13_18h23.24.124,Tarea de género gramatical,2024.2.2,Win32,60.24096386,,,,,,,,,,,,,,,,,,,,,,,,575.6098,576.8898,l,1,[],[],[],[],[],[],[],0.5943,1,576.8899,577.3653,,,,,,713,MAS,DIS,150,carro,la,l,0.5943,,577.3654,577.3656,-0.020370348,-0.390740763,0,0,0,,0,244,244,262,1,,,,
,,,,,,9fe26927e92f47a550413d30,66a626ef09d4e21e1a8894ec,6734e020009085085a669e23,2024-11-13_18h23.24.124,Tarea de género gramatical,2024.2.2,Win32,60.24096386,,,,,,,,,,,,,,,,,,,,,,,,577.3686,578.5369,a,1,[],[],[],[],[],[],[],0.4857,1,578.5371,579.0377,,,,,,723,FEM,AGR,150,tarta,la,a,0.4857,,579.0408,579.043,-0.020370348,-0.390740763,0,0,0,,0,245,245,272,1,,,,
,,,,,,9fe26927e92f47a550413d30,66a626ef09d4e21e1a8894ec,6734e020009085085a669e23,2024-11-13_18h23.24.124,Tarea de género gramatical,2024.2.2,Win32,60.24096386,,,,,,,,,,,,,,,,,,,,,,,,579.0457,580.3859,a,1,[],[],[],[],[],[],[],0.6497,1,580.386,580.8971,,,,,,752,FEM,DIS,150,cabeza,el,a,0.6497,,580.8973,580.8974,-0.020370348,-0.390740763,0,0,0,,0,246,246,301,1,,,,
,,,,,,9fe26927e92f47a550413d30,66a626ef09d4e21e1a8894ec,6734e020009085085a669e23,2024-11-13_18h23.24.124,Tarea de género gramatical,2024.2.2,Win32,60.24096386,,,,,,,,,,,,,,,,,,,,,,,,580.9004,582.1331,l,1,[],[],[],[],[],[],[],0.5626,1,582.1332,582.6088,,,,,,516,MAS,AGR,150,muro,el,l,0.5626,,582.6089,582.6091,-0.020370348,-0.390740763,0,0,0,,0,247,247,65,1,,,,
,,,,,,9fe26927e92f47a550413d30,66a626ef09d4e21e1a8894ec,6734e020009085085a669e23,2024-11-13_18h23.24.124,Tarea de género gramatical,2024.2.2,Win32,60.24096386,,,,,,,,,,,,,,,,,,,,,,,,582.6116,583.9883,a,1,[],[],[],[],[],[],[],0.7003,1,583.9885,584.4694,,,,,,571,FEM,CON,150,pila,,a,0.7003,,584.4695,584.4697,-0.020370348,-0.390740763,0,0,0,,0,248,248,120,1,,,,
,,,,,,9fe26927e92f47a550413d30,66a626ef09d4e21e1a8894ec,6734e020009085085a669e23,2024-11-13_18h23.24.124,Tarea de género gramatical,2024.2.2,Win32,60.24096386,,,,,,,,,,,,,,,,,,,,,,,,584.4731,585.593,l,1,[],[],[],[],[],[],[],0.4379,1,585.5932,586.0788,,,,,,526,MAS,CON,150,lujo,,l,0.4379,,586.0825,586.0857,-0.020370348,-0.390740763,0,0,0,,0,249,249,75,1,,,,
