counterbalancing_condition,consent_prescreening.block_1/declare_consent,consent_prescreening.block_1/age_years,consent_prescreening.block_1/gender,consent_prescreening.block_1/language_disorder,consent_prescreening.block_1/first_language,PROLIFIC_PID,STUDY_ID,SESSION_ID,date,expName,psychopyVersion,OS,frameRate,check_prescreening_answers.started,check_prescreening_answers.stopped,Instructions.started,Instructions.stopped,instr_done_keyboard.keys,instr_done_keyboard.rt,instr_done_keyboard.duration,instr_done_touch.x,instr_done_touch.y,instr_done_touch.leftButton,instr_done_touch.midButton,instr_done_touch.rightButton,instruction_pages.thisRepN,instruction_pages.thisTrialN,instruction_pages.thisN,instruction_pages.thisIndex,instruction_pages.ran,pageN,phase,instruct_text,has_image,instruct_image,presentTrial.started,presentTrial.stopped,response.keys,response.corr,touch_resp.x,touch_resp.y,touch_resp.leftButton,touch_resp.midButton,touch_resp.rightButton,touch_resp.time,touch_resp.clicked_name,rt,corr,feedback.started,feedback.stopped,practice_trials.thisRepN,practice_trials.thisTrialN,practice_trials.thisN,practice_trials.thisIndex,practice_trials.ran,TrialID,StimulusType,Condition,PrimeDuration,Prime,Flanker,corrAns,response.rt,response.duration,Break.started,Break.stopped,break_done_touch.x,break_done_touch.y,break_done_touch.leftButton,break_done_touch.midButton,break_done_touch.rightButton,break_done_keyboard.keys,experiment_trials.thisRepN,experiment_trials.thisTrialN,experiment_trials.thisN,experiment_trials.thisIndex,experiment_trials.ran,break_done_touch.clicked_name,End.started,End.stopped
2,"[""over_18"",""comfortable"",""read_info"",""consent_given""]",27,M,"[""none""]","[""spanish""]",a1fd1ece6aad82d8c313b5ad,66a626ef09d4e21e1a8894ec,6734e0450abcbf6acae86c0d,2024-11-13_11h22.55.530,Tarea de género gramatical,2024.2.2,Win32,18.01801802,,,,,,,,,,,,,,,,,,,,,,,,,,,,,,,,,,,,,,,,,,,,,,,,,,,,,,,,,,,,,,,,,,,
,,,,,,a1fd1ece6aad82d8c313b5ad,66a626ef09d4e21e1a8894ec,6734e0450abcbf6acae86c0d,2024-11-13_11h22.55.530,Tarea de género gramatical,2024.2.2,Win32,18.01801802,27.002,27.0021,,,,,,,,,,,,,,,,,,,,,,,,,,,,,,,,,,,,,,,,,,,,,,,,,,,,,,,,,,,,,,,,,
,,,,,,a1fd1ece6aad82d8c313b5ad,66a626ef09d4e21e1a8894ec,6734e0450abcbf6acae86c0d,2024-11-13_11h22.55.530,Tarea de género gramatical,2024.2.2,Win32,18.01801802,,,27.0147,45.6749,space,18.5779,,-0.058333333,-0.181481481,0,0,0,0,0,0,0,1,1,instructions,"INSTRUCCIONES
Va a realizar una prueba de selección gramatical. Desde el comienzo de la prueba mire siempre al centro de la pantalla. Al cabo de un momento, aparecerán palabras. La tarea consiste en determinar si la palabra del centro (siempre será un sustantivo), pertenece al género masculino o femenino.

Pulse la tecla ESPACIO o toque el botón de abajo para continuar.",0,keyboardresponseFM.png,,,,,,,,,,,,,,,,,,,,,,,,,,,,,,,,,,,,,,,,,,,,,
,,,,,,a1fd1ece6aad82d8c313b5ad,66a626ef09d4e21e1a8894ec,6734e0450abcbf6acae86c0d,2024-11-13_11h22.55.530,Tarea de género gramatical,2024.2.2,Win32,18.01801802,,,45.7143,73.4761,space,27.675,,-0.252777778,0.074074074,0,0,0,0,1,1,1,1,2,instructions,"Si su dispositivo tiene teclado, pulse la tecla ""A"" para las palabras en femenino (por ejemplo: ""mano"") y la tecla ""L"" para las palabras en masculino(por ejemplo: ""arroz"").
Pulse la tecla ESPACIO o toque el botón de abajo para continuar.",1,keyboardresponseFM.png,,,,,,,,,,,,,,,,,,,,,,,,,,,,,,,,,,,,,,,,,,,,,
,,,,,,a1fd1ece6aad82d8c313b5ad,66a626ef09d4e21e1a8894ec,6734e0450abcbf6acae86c0d,2024-11-13_11h22.55.530,Tarea de género gramatical,2024.2.2,Win32,18.01801802,,,73.4773,86.9367,space,13.3769,,-0.252777778,0.074074074,0,0,0,0,2,2,2,1,3,instructions,"Si utiliza un dispositivo sólo táctil, colóquelo en horizontal y utilice los botones de la pantalla. No utilice el ratón.
Pulse la tecla ESPACIO o toque el botón de abajo para continuar.",2,touchresponseFM.png,,,,,,,,,,,,,,,,,,,,,,,,,,,,,,,,,,,,,,,,,,,,,
,,,,,,a1fd1ece6aad82d8c313b5ad,66a626ef09d4e21e1a8894ec,6734e0450abcbf6acae86c0d,2024-11-13_11h22.55.530,Tarea de género gramatical,2024.2.2,Win32,18.01801802,,,86.9383,100.7375,space,13.7314,,-0.252777778,0.074074074,0,0,0,0,3,3,3,1,4,instructions,"Es muy importante que responda con la mayor rapidez y precisión posibles, ya que cada cadena de letras sólo estará en pantalla durante un instante. Si no responde en ese tiempo, aparecerá el mensaje ""Muy lento"" y el experimento pasará a la siguiente palabra. Los primeros 15 intentos serán de práctica y habrá dos descansos durante la prueba.
Pulse la tecla ESPACIO o toque el botón de abajo para iniciar la parte de práctica.",0,keyboardresponseFM.png,,,,,,,,,,,,,,,,,,,,,,,,,,,,,,,,,,,,,,,,,,,,,
,,,,,,a1fd1ece6aad82d8c313b5ad,66a626ef09d4e21e1a8894ec,6734e0450abcbf6acae86c0d,2024-11-13_11h22.55.530,Tarea de género gramatical,2024.2.2,Win32,18.01801802,,,,,,,,,,,,,,,,,,,,,,,100.7537,103.3913,,0,[],[],[],[],[],[],[],,-1,103.3915,103.8499,0,0,0,7,1,2008,FEM,CON,150,siesta,,a,,,,,,,,,,,,,,,,,,
,,,,,,a1fd1ece6aad82d8c313b5ad,66a626ef09d4e21e1a8894ec,6734e0450abcbf6acae86c0d,2024-11-13_11h22.55.530,Tarea de género gramatical,2024.2.2,Win32,18.01801802,,,,,,,,,,,,,,,,,,,,,,,103.8509,106.4864,,0,[],[],[],[],[],[],[],,-1,106.4864,106.9624,0,1,1,14,1,2015,MAS,DIS,150,robot,la,l,,,,,,,,,,,,,,,,,,
,,,,,,a1fd1ece6aad82d8c313b5ad,66a626ef09d4e21e1a8894ec,6734e0450abcbf6acae86c0d,2024-11-13_11h22.55.530,Tarea de género gramatical,2024.2.2,Win32,18.01801802,,,,,,,,,,,,,,,,,,,,,,,106.9633,108.0795,a,0,[],[],[],[],[],[],[],0.3949,0,108.0823,108.5493,0,2,2,8,1,2009,MAS,DIS,150,puerto,la,l,0.3949,,,,,,,,,,,,,,,,,
,,,,,,a1fd1ece6aad82d8c313b5ad,66a626ef09d4e21e1a8894ec,6734e0450abcbf6acae86c0d,2024-11-13_11h22.55.530,Tarea de género gramatical,2024.2.2,Win32,18.01801802,,,,,,,,,,,,,,,,,,,,,,,108.5501,109.8398,l,1,[],[],[],[],[],[],[],0.5225,1,109.8404,110.3098,0,3,3,12,1,2013,MAS,AGR,150,acero,el,l,0.5225,,,,,,,,,,,,,,,,,
,,,,,,a1fd1ece6aad82d8c313b5ad,66a626ef09d4e21e1a8894ec,6734e0450abcbf6acae86c0d,2024-11-13_11h22.55.530,Tarea de género gramatical,2024.2.2,Win32,18.01801802,,,,,,,,,,,,,,,,,,,,,,,110.3107,111.5101,a,1,[],[],[],[],[],[],[],0.4808,1,111.5102,111.9711,0,4,4,6,1,2007,FEM,AGR,150,navaja,la,a,0.4808,,,,,,,,,,,,,,,,,
,,,,,,a1fd1ece6aad82d8c313b5ad,66a626ef09d4e21e1a8894ec,6734e0450abcbf6acae86c0d,2024-11-13_11h22.55.530,Tarea de género gramatical,2024.2.2,Win32,18.01801802,,,,,,,,,,,,,,,,,,,,,,,111.9718,113.2789,l,0,[],[],[],[],[],[],[],0.5946,0,113.2793,113.7341,0,5,5,1,1,2002,FEM,CON,150,pala,,a,0.5946,,,,,,,,,,,,,,,,,
,,,,,,a1fd1ece6aad82d8c313b5ad,66a626ef09d4e21e1a8894ec,6734e0450abcbf6acae86c0d,2024-11-13_11h22.55.530,Tarea de género gramatical,2024.2.2,Win32,18.01801802,,,,,,,,,,,,,,,,,,,,,,,113.7347,114.9488,l,1,[],[],[],[],[],[],[],0.4804,1,114.9493,115.4211,0,6,6,9,1,2010,MAS,AGR,150,vecino,el,l,0.4804,,,,,,,,,,,,,,,,,
,,,,,,a1fd1ece6aad82d8c313b5ad,66a626ef09d4e21e1a8894ec,6734e0450abcbf6acae86c0d,2024-11-13_11h22.55.530,Tarea de género gramatical,2024.2.2,Win32,18.01801802,,,,,,,,,,,,,,,,,,,,,,,115.4217,116.6363,a,1,[],[],[],[],[],[],[],0.4602,1,116.6364,117.108,0,7,7,0,1,2001,FEM,AGR,150,nuca,la,a,0.4602,,,,,,,,,,,,,,,,,
,,,,,,a1fd1ece6aad82d8c313b5ad,66a626ef09d4e21e1a8894ec,6734e0450abcbf6acae86c0d,2024-11-13_11h22.55.530,Tarea de género gramatical,2024.2.2,Win32,18.01801802,,,,,,,,,,,,,,,,,,,,,,,117.109,118.2317,l,0,[],[],[],[],[],[],[],0.3925,0,118.2322,118.6958,0,8,8,2,1,2003,FEM,DIS,150,daga,el,a,0.3925,,,,,,,,,,,,,,,,,
,,,,,,a1fd1ece6aad82d8c313b5ad,66a626ef09d4e21e1a8894ec,6734e0450abcbf6acae86c0d,2024-11-13_11h22.55.530,Tarea de género gramatical,2024.2.2,Win32,18.01801802,,,,,,,,,,,,,,,,,,,,,,,118.6963,120.2056,a,1,[],[],[],[],[],[],[],0.753,1,120.2061,120.6719,0,9,9,4,1,2005,FEM,CON,150,placa,,a,0.753,,,,,,,,,,,,,,,,,
,,,,,,a1fd1ece6aad82d8c313b5ad,66a626ef09d4e21e1a8894ec,6734e0450abcbf6acae86c0d,2024-11-13_11h22.55.530,Tarea de género gramatical,2024.2.2,Win32,18.01801802,,,,,,,,,,,,,,,,,,,,,,,120.6726,121.9151,a,0,[],[],[],[],[],[],[],0.5175,0,121.9155,122.3695,0,10,10,10,1,2011,MAS,CON,150,canal,,l,0.5175,,,,,,,,,,,,,,,,,
,,,,,,a1fd1ece6aad82d8c313b5ad,66a626ef09d4e21e1a8894ec,6734e0450abcbf6acae86c0d,2024-11-13_11h22.55.530,Tarea de género gramatical,2024.2.2,Win32,18.01801802,,,,,,,,,,,,,,,,,,,,,,,122.3701,124.0142,a,1,[],[],[],[],[],[],[],0.9182,1,124.0147,124.4818,0,11,11,5,1,2006,FEM,DIS,150,serie,el,a,0.9182,,,,,,,,,,,,,,,,,
,,,,,,a1fd1ece6aad82d8c313b5ad,66a626ef09d4e21e1a8894ec,6734e0450abcbf6acae86c0d,2024-11-13_11h22.55.530,Tarea de género gramatical,2024.2.2,Win32,18.01801802,,,,,,,,,,,,,,,,,,,,,,,124.4825,126.2582,l,1,[],[],[],[],[],[],[],1.0591,1,126.2584,126.7309,0,12,12,13,1,2014,MAS,CON,150,siglo,,l,1.0591,,,,,,,,,,,,,,,,,
,,,,,,a1fd1ece6aad82d8c313b5ad,66a626ef09d4e21e1a8894ec,6734e0450abcbf6acae86c0d,2024-11-13_11h22.55.530,Tarea de género gramatical,2024.2.2,Win32,18.01801802,,,,,,,,,,,,,,,,,,,,,,,126.7315,127.9956,a,1,[],[],[],[],[],[],[],0.5325,1,127.9956,128.4645,0,13,13,3,1,2004,FEM,AGR,150,venta,la,a,0.5325,,,,,,,,,,,,,,,,,
,,,,,,a1fd1ece6aad82d8c313b5ad,66a626ef09d4e21e1a8894ec,6734e0450abcbf6acae86c0d,2024-11-13_11h22.55.530,Tarea de género gramatical,2024.2.2,Win32,18.01801802,,,,,,,,,,,,,,,,,,,,,,,128.4653,129.917,l,1,[],[],[],[],[],[],[],0.738,1,129.917,130.4272,0,14,14,11,1,2012,MAS,DIS,150,clima,la,l,0.738,,,,,,,,,,,,,,,,,
,,,,,,a1fd1ece6aad82d8c313b5ad,66a626ef09d4e21e1a8894ec,6734e0450abcbf6acae86c0d,2024-11-13_11h22.55.530,Tarea de género gramatical,2024.2.2,Win32,18.01801802,,,138.3154,151.3851,space,13.0027,,-0.252777778,0.074074074,0,0,0,,,,,,,,,,,151.4578,152.8052,l,1,[],[],[],[],[],[],[],0.6038,1,152.8053,153.3164,,,,,,923,MAS,AGR,150,rato,el,l,0.6038,,153.3166,153.3192,-0.252777778,0.074074074,0,0,0,,0,0,0,22,1,,,
,,,,,,a1fd1ece6aad82d8c313b5ad,66a626ef09d4e21e1a8894ec,6734e0450abcbf6acae86c0d,2024-11-13_11h22.55.530,Tarea de género gramatical,2024.2.2,Win32,18.01801802,,,,,,,,,,,,,,,,,,,,,,,153.3197,154.5735,a,1,[],[],[],[],[],[],[],0.5174,1,154.5736,155.0444,,,,,,1185,FEM,CON,150,mafia,,a,0.5174,,155.0444,155.0445,-0.252777778,0.074074074,0,0,0,,0,1,1,284,1,,,
,,,,,,a1fd1ece6aad82d8c313b5ad,66a626ef09d4e21e1a8894ec,6734e0450abcbf6acae86c0d,2024-11-13_11h22.55.530,Tarea de género gramatical,2024.2.2,Win32,18.01801802,,,,,,,,,,,,,,,,,,,,,,,155.045,156.366,a,1,[],[],[],[],[],[],[],0.604,1,156.3661,156.8641,,,,,,1040,FEM,AGR,150,mula,la,a,0.604,,156.8649,156.866,-0.252777778,0.074074074,0,0,0,,0,2,2,139,1,,,
,,,,,,a1fd1ece6aad82d8c313b5ad,66a626ef09d4e21e1a8894ec,6734e0450abcbf6acae86c0d,2024-11-13_11h22.55.530,Tarea de género gramatical,2024.2.2,Win32,18.01801802,,,,,,,,,,,,,,,,,,,,,,,156.8663,158.0288,l,1,[],[],[],[],[],[],[],0.4574,1,158.0288,158.501,,,,,,1230,MAS,CON,150,estado,,l,0.4574,,158.501,158.5011,-0.252777778,0.074074074,0,0,0,,0,3,3,329,1,,,
,,,,,,a1fd1ece6aad82d8c313b5ad,66a626ef09d4e21e1a8894ec,6734e0450abcbf6acae86c0d,2024-11-13_11h22.55.530,Tarea de género gramatical,2024.2.2,Win32,18.01801802,,,,,,,,,,,,,,,,,,,,,,,158.5017,159.6231,l,1,[],[],[],[],[],[],[],0.4146,1,159.6232,160.0895,,,,,,918,MAS,CON,150,tren,,l,0.4146,,160.0895,160.0896,-0.252777778,0.074074074,0,0,0,,0,4,4,17,1,,,
,,,,,,a1fd1ece6aad82d8c313b5ad,66a626ef09d4e21e1a8894ec,6734e0450abcbf6acae86c0d,2024-11-13_11h22.55.530,Tarea de género gramatical,2024.2.2,Win32,18.01801802,,,,,,,,,,,,,,,,,,,,,,,160.0903,161.3524,a,1,[],[],[],[],[],[],[],0.5331,1,161.3525,161.8093,,,,,,1257,FEM,CON,150,lengua,,a,0.5331,,161.8095,161.8096,-0.252777778,0.074074074,0,0,0,,0,5,5,356,1,,,
,,,,,,a1fd1ece6aad82d8c313b5ad,66a626ef09d4e21e1a8894ec,6734e0450abcbf6acae86c0d,2024-11-13_11h22.55.530,Tarea de género gramatical,2024.2.2,Win32,18.01801802,,,,,,,,,,,,,,,,,,,,,,,161.8103,163.0575,a,1,[],[],[],[],[],[],[],0.5176,1,163.0575,163.5767,,,,,,1256,FEM,AGR,150,piedra,la,a,0.5176,,163.5775,163.5786,-0.252777778,0.074074074,0,0,0,,0,6,6,355,1,,,
,,,,,,a1fd1ece6aad82d8c313b5ad,66a626ef09d4e21e1a8894ec,6734e0450abcbf6acae86c0d,2024-11-13_11h22.55.530,Tarea de género gramatical,2024.2.2,Win32,18.01801802,,,,,,,,,,,,,,,,,,,,,,,163.5789,164.7584,a,1,[],[],[],[],[],[],[],0.4019,1,164.7584,165.2249,,,,,,973,FEM,DIS,150,roca,el,a,0.4019,,165.225,165.225,-0.252777778,0.074074074,0,0,0,,0,7,7,72,1,,,
,,,,,,a1fd1ece6aad82d8c313b5ad,66a626ef09d4e21e1a8894ec,6734e0450abcbf6acae86c0d,2024-11-13_11h22.55.530,Tarea de género gramatical,2024.2.2,Win32,18.01801802,,,,,,,,,,,,,,,,,,,,,,,165.2257,166.4859,a,1,[],[],[],[],[],[],[],0.5516,1,166.4859,166.9476,,,,,,1329,FEM,CON,150,fianza,,a,0.5516,,166.9477,166.9477,-0.252777778,0.074074074,0,0,0,,0,8,8,428,1,,,
,,,,,,a1fd1ece6aad82d8c313b5ad,66a626ef09d4e21e1a8894ec,6734e0450abcbf6acae86c0d,2024-11-13_11h22.55.530,Tarea de género gramatical,2024.2.2,Win32,18.01801802,,,,,,,,,,,,,,,,,,,,,,,166.9482,168.1493,a,1,[],[],[],[],[],[],[],0.4658,1,168.1494,168.6018,,,,,,1094,FEM,AGR,150,banda,la,a,0.4658,,168.6018,168.6019,-0.252777778,0.074074074,0,0,0,,0,9,9,193,1,,,
,,,,,,a1fd1ece6aad82d8c313b5ad,66a626ef09d4e21e1a8894ec,6734e0450abcbf6acae86c0d,2024-11-13_11h22.55.530,Tarea de género gramatical,2024.2.2,Win32,18.01801802,,,,,,,,,,,,,,,,,,,,,,,168.6027,169.8895,l,1,[],[],[],[],[],[],[],0.5424,1,169.8896,170.3672,,,,,,1289,MAS,AGR,150,tamaño,el,l,0.5424,,170.3672,170.3672,-0.252777778,0.074074074,0,0,0,,0,10,10,388,1,,,
,,,,,,a1fd1ece6aad82d8c313b5ad,66a626ef09d4e21e1a8894ec,6734e0450abcbf6acae86c0d,2024-11-13_11h22.55.530,Tarea de género gramatical,2024.2.2,Win32,18.01801802,,,,,,,,,,,,,,,,,,,,,,,170.3678,171.6,l,1,[],[],[],[],[],[],[],0.4802,1,171.6002,172.0691,,,,,,1342,MAS,DIS,150,cuadro,la,l,0.4802,,172.0699,172.0709,-0.252777778,0.074074074,0,0,0,,0,11,11,441,1,,,
,,,,,,a1fd1ece6aad82d8c313b5ad,66a626ef09d4e21e1a8894ec,6734e0450abcbf6acae86c0d,2024-11-13_11h22.55.530,Tarea de género gramatical,2024.2.2,Win32,18.01801802,,,,,,,,,,,,,,,,,,,,,,,172.0712,173.3044,l,1,[],[],[],[],[],[],[],0.5264,1,173.3044,173.7631,,,,,,1114,MAS,DIS,150,fondo,la,l,0.5264,,173.7632,173.7632,-0.252777778,0.074074074,0,0,0,,0,12,12,213,1,,,
,,,,,,a1fd1ece6aad82d8c313b5ad,66a626ef09d4e21e1a8894ec,6734e0450abcbf6acae86c0d,2024-11-13_11h22.55.530,Tarea de género gramatical,2024.2.2,Win32,18.01801802,,,,,,,,,,,,,,,,,,,,,,,173.7638,174.9724,l,1,[],[],[],[],[],[],[],0.4668,1,174.9724,175.4277,,,,,,1348,MAS,DIS,150,aceite,la,l,0.4668,,175.4277,175.4277,-0.252777778,0.074074074,0,0,0,,0,13,13,447,1,,,
,,,,,,a1fd1ece6aad82d8c313b5ad,66a626ef09d4e21e1a8894ec,6734e0450abcbf6acae86c0d,2024-11-13_11h22.55.530,Tarea de género gramatical,2024.2.2,Win32,18.01801802,,,,,,,,,,,,,,,,,,,,,,,175.4285,176.5911,a,1,[],[],[],[],[],[],[],0.3839,1,176.5912,177.0469,,,,,,991,FEM,DIS,150,hoja,el,a,0.3839,,177.0469,177.0469,-0.252777778,0.074074074,0,0,0,,0,14,14,90,1,,,
,,,,,,a1fd1ece6aad82d8c313b5ad,66a626ef09d4e21e1a8894ec,6734e0450abcbf6acae86c0d,2024-11-13_11h22.55.530,Tarea de género gramatical,2024.2.2,Win32,18.01801802,,,,,,,,,,,,,,,,,,,,,,,177.0475,178.1893,l,1,[],[],[],[],[],[],[],0.4068,1,178.1893,178.6863,,,,,,948,MAS,CON,150,loco,,l,0.4068,,178.6872,178.6881,-0.252777778,0.074074074,0,0,0,,0,15,15,47,1,,,
,,,,,,a1fd1ece6aad82d8c313b5ad,66a626ef09d4e21e1a8894ec,6734e0450abcbf6acae86c0d,2024-11-13_11h22.55.530,Tarea de género gramatical,2024.2.2,Win32,18.01801802,,,,,,,,,,,,,,,,,,,,,,,178.6885,179.906,a,1,[],[],[],[],[],[],[],0.4993,1,179.9061,180.3635,,,,,,1238,FEM,AGR,150,abuela,la,a,0.4993,,180.3635,180.3635,-0.252777778,0.074074074,0,0,0,,0,16,16,337,1,,,
,,,,,,a1fd1ece6aad82d8c313b5ad,66a626ef09d4e21e1a8894ec,6734e0450abcbf6acae86c0d,2024-11-13_11h22.55.530,Tarea de género gramatical,2024.2.2,Win32,18.01801802,,,,,,,,,,,,,,,,,,,,,,,180.3641,181.6179,a,1,[],[],[],[],[],[],[],0.5356,1,181.6181,182.0896,,,,,,1009,FEM,DIS,150,gota,el,a,0.5356,,182.0896,182.0896,-0.252777778,0.074074074,0,0,0,,0,17,17,108,1,,,
,,,,,,a1fd1ece6aad82d8c313b5ad,66a626ef09d4e21e1a8894ec,6734e0450abcbf6acae86c0d,2024-11-13_11h22.55.530,Tarea de género gramatical,2024.2.2,Win32,18.01801802,,,,,,,,,,,,,,,,,,,,,,,182.0904,183.2195,l,1,[],[],[],[],[],[],[],0.4094,1,183.2196,183.697,,,,,,978,MAS,CON,150,oído,,l,0.4094,,183.6971,183.6971,-0.252777778,0.074074074,0,0,0,,0,18,18,77,1,,,
,,,,,,a1fd1ece6aad82d8c313b5ad,66a626ef09d4e21e1a8894ec,6734e0450abcbf6acae86c0d,2024-11-13_11h22.55.530,Tarea de género gramatical,2024.2.2,Win32,18.01801802,,,,,,,,,,,,,,,,,,,,,,,183.6976,184.9373,l,1,[],[],[],[],[],[],[],0.5238,1,184.9374,185.4391,,,,,,1038,MAS,CON,150,luto,,l,0.5238,,185.4392,185.4392,-0.252777778,0.074074074,0,0,0,,0,19,19,137,1,,,
,,,,,,a1fd1ece6aad82d8c313b5ad,66a626ef09d4e21e1a8894ec,6734e0450abcbf6acae86c0d,2024-11-13_11h22.55.530,Tarea de género gramatical,2024.2.2,Win32,18.01801802,,,,,,,,,,,,,,,,,,,,,,,185.4397,186.6029,a,1,[],[],[],[],[],[],[],0.3929,1,186.603,187.0723,,,,,,1321,FEM,DIS,150,novela,el,a,0.3929,,187.073,187.0741,-0.252777778,0.074074074,0,0,0,,0,20,20,420,1,,,
,,,,,,a1fd1ece6aad82d8c313b5ad,66a626ef09d4e21e1a8894ec,6734e0450abcbf6acae86c0d,2024-11-13_11h22.55.530,Tarea de género gramatical,2024.2.2,Win32,18.01801802,,,,,,,,,,,,,,,,,,,,,,,187.0745,188.228,a,1,[],[],[],[],[],[],[],0.4036,1,188.228,188.6977,,,,,,915,FEM,CON,150,cama,,a,0.4036,,188.6978,188.6979,-0.252777778,0.074074074,0,0,0,,0,21,21,14,1,,,
,,,,,,a1fd1ece6aad82d8c313b5ad,66a626ef09d4e21e1a8894ec,6734e0450abcbf6acae86c0d,2024-11-13_11h22.55.530,Tarea de género gramatical,2024.2.2,Win32,18.01801802,,,,,,,,,,,,,,,,,,,,,,,188.6984,189.8972,l,1,[],[],[],[],[],[],[],0.45,1,189.8973,190.3679,,,,,,1090,MAS,DIS,150,campo,la,l,0.45,,190.368,190.368,-0.252777778,0.074074074,0,0,0,,0,22,22,189,1,,,
,,,,,,a1fd1ece6aad82d8c313b5ad,66a626ef09d4e21e1a8894ec,6734e0450abcbf6acae86c0d,2024-11-13_11h22.55.530,Tarea de género gramatical,2024.2.2,Win32,18.01801802,,,,,,,,,,,,,,,,,,,,,,,190.3687,191.6127,a,1,[],[],[],[],[],[],[],0.5274,1,191.6127,192.0773,,,,,,1285,FEM,DIS,150,muñeca,el,a,0.5274,,192.0773,192.0774,-0.252777778,0.074074074,0,0,0,,0,23,23,384,1,,,
,,,,,,a1fd1ece6aad82d8c313b5ad,66a626ef09d4e21e1a8894ec,6734e0450abcbf6acae86c0d,2024-11-13_11h22.55.530,Tarea de género gramatical,2024.2.2,Win32,18.01801802,,,,,,,,,,,,,,,,,,,,,,,192.0779,193.2033,a,1,[],[],[],[],[],[],[],0.403,1,193.2034,193.6571,,,,,,1195,FEM,DIS,150,grasa,el,a,0.403,,193.6579,193.6588,-0.252777778,0.074074074,0,0,0,,0,24,24,294,1,,,
,,,,,,a1fd1ece6aad82d8c313b5ad,66a626ef09d4e21e1a8894ec,6734e0450abcbf6acae86c0d,2024-11-13_11h22.55.530,Tarea de género gramatical,2024.2.2,Win32,18.01801802,,,,,,,,,,,,,,,,,,,,,,,193.6593,194.9754,l,0,[],[],[],[],[],[],[],0.5784,0,194.9759,195.4963,,,,,,1345,FEM,DIS,150,bondad,el,a,0.5784,,195.4964,195.4965,-0.252777778,0.074074074,0,0,0,,0,25,25,444,1,,,
,,,,,,a1fd1ece6aad82d8c313b5ad,66a626ef09d4e21e1a8894ec,6734e0450abcbf6acae86c0d,2024-11-13_11h22.55.530,Tarea de género gramatical,2024.2.2,Win32,18.01801802,,,,,,,,,,,,,,,,,,,,,,,195.497,196.7021,a,1,[],[],[],[],[],[],[],0.4698,1,196.7025,197.1632,,,,,,1141,FEM,DIS,150,pasta,el,a,0.4698,,197.1632,197.1632,-0.252777778,0.074074074,0,0,0,,0,26,26,240,1,,,
,,,,,,a1fd1ece6aad82d8c313b5ad,66a626ef09d4e21e1a8894ec,6734e0450abcbf6acae86c0d,2024-11-13_11h22.55.530,Tarea de género gramatical,2024.2.2,Win32,18.01801802,,,,,,,,,,,,,,,,,,,,,,,197.1638,198.3882,l,1,[],[],[],[],[],[],[],0.4711,1,198.3883,198.8518,,,,,,1132,MAS,DIS,150,calor,la,l,0.4711,,198.8518,198.8519,-0.252777778,0.074074074,0,0,0,,0,27,27,231,1,,,
,,,,,,a1fd1ece6aad82d8c313b5ad,66a626ef09d4e21e1a8894ec,6734e0450abcbf6acae86c0d,2024-11-13_11h22.55.530,Tarea de género gramatical,2024.2.2,Win32,18.01801802,,,,,,,,,,,,,,,,,,,,,,,198.8526,200.074,a,1,[],[],[],[],[],[],[],0.5107,1,200.0741,200.529,,,,,,1341,FEM,CON,150,medida,,a,0.5107,,200.529,200.5291,-0.252777778,0.074074074,0,0,0,,0,28,28,440,1,,,
,,,,,,a1fd1ece6aad82d8c313b5ad,66a626ef09d4e21e1a8894ec,6734e0450abcbf6acae86c0d,2024-11-13_11h22.55.530,Tarea de género gramatical,2024.2.2,Win32,18.01801802,,,,,,,,,,,,,,,,,,,,,,,200.5298,201.6846,l,1,[],[],[],[],[],[],[],0.448,1,201.6847,202.1417,,,,,,990,MAS,CON,150,león,,l,0.448,,202.1425,202.1434,-0.252777778,0.074074074,0,0,0,,0,29,29,89,1,,,
,,,,,,a1fd1ece6aad82d8c313b5ad,66a626ef09d4e21e1a8894ec,6734e0450abcbf6acae86c0d,2024-11-13_11h22.55.530,Tarea de género gramatical,2024.2.2,Win32,18.01801802,,,,,,,,,,,,,,,,,,,,,,,202.1437,203.3252,l,1,[],[],[],[],[],[],[],0.459,1,203.3254,203.7959,,,,,,1205,MAS,AGR,150,hombre,el,l,0.459,,203.7959,203.7959,-0.252777778,0.074074074,0,0,0,,0,30,30,304,1,,,
,,,,,,a1fd1ece6aad82d8c313b5ad,66a626ef09d4e21e1a8894ec,6734e0450abcbf6acae86c0d,2024-11-13_11h22.55.530,Tarea de género gramatical,2024.2.2,Win32,18.01801802,,,,,,,,,,,,,,,,,,,,,,,203.7964,204.9782,a,1,[],[],[],[],[],[],[],0.4521,1,204.9783,205.4566,,,,,,932,FEM,AGR,150,caja,la,a,0.4521,,205.4567,205.4568,-0.252777778,0.074074074,0,0,0,,0,31,31,31,1,,,
,,,,,,a1fd1ece6aad82d8c313b5ad,66a626ef09d4e21e1a8894ec,6734e0450abcbf6acae86c0d,2024-11-13_11h22.55.530,Tarea de género gramatical,2024.2.2,Win32,18.01801802,,,,,,,,,,,,,,,,,,,,,,,205.4574,206.7264,l,1,[],[],[],[],[],[],[],0.5349,1,206.7265,207.1894,,,,,,1014,MAS,CON,150,menú,,l,0.5349,,207.1894,207.1895,-0.252777778,0.074074074,0,0,0,,0,32,32,113,1,,,
,,,,,,a1fd1ece6aad82d8c313b5ad,66a626ef09d4e21e1a8894ec,6734e0450abcbf6acae86c0d,2024-11-13_11h22.55.530,Tarea de género gramatical,2024.2.2,Win32,18.01801802,,,,,,,,,,,,,,,,,,,,,,,207.1901,208.4449,a,1,[],[],[],[],[],[],[],0.5447,1,208.445,208.9104,,,,,,1239,FEM,CON,150,salida,,a,0.5447,,208.9111,208.9121,-0.252777778,0.074074074,0,0,0,,0,33,33,338,1,,,
,,,,,,a1fd1ece6aad82d8c313b5ad,66a626ef09d4e21e1a8894ec,6734e0450abcbf6acae86c0d,2024-11-13_11h22.55.530,Tarea de género gramatical,2024.2.2,Win32,18.01801802,,,,,,,,,,,,,,,,,,,,,,,208.9124,210.0685,a,1,[],[],[],[],[],[],[],0.3978,1,210.0686,210.5864,,,,,,1221,FEM,CON,150,comida,,a,0.3978,,210.5865,210.5865,-0.252777778,0.074074074,0,0,0,,0,34,34,320,1,,,
,,,,,,a1fd1ece6aad82d8c313b5ad,66a626ef09d4e21e1a8894ec,6734e0450abcbf6acae86c0d,2024-11-13_11h22.55.530,Tarea de género gramatical,2024.2.2,Win32,18.01801802,,,,,,,,,,,,,,,,,,,,,,,210.5871,211.7034,l,1,[],[],[],[],[],[],[],0.3887,1,211.7035,212.2275,,,,,,1218,MAS,CON,150,pueblo,,l,0.3887,,212.2275,212.2275,-0.252777778,0.074074074,0,0,0,,0,35,35,317,1,,,
,,,,,,a1fd1ece6aad82d8c313b5ad,66a626ef09d4e21e1a8894ec,6734e0450abcbf6acae86c0d,2024-11-13_11h22.55.530,Tarea de género gramatical,2024.2.2,Win32,18.01801802,,,,,,,,,,,,,,,,,,,,,,,212.2281,213.4852,l,1,[],[],[],[],[],[],[],0.4763,1,213.4853,213.9931,,,,,,995,MAS,AGR,150,tomo,el,l,0.4763,,213.9931,213.9932,-0.252777778,0.074074074,0,0,0,,0,36,36,94,1,,,
,,,,,,a1fd1ece6aad82d8c313b5ad,66a626ef09d4e21e1a8894ec,6734e0450abcbf6acae86c0d,2024-11-13_11h22.55.530,Tarea de género gramatical,2024.2.2,Win32,18.01801802,,,,,,,,,,,,,,,,,,,,,,,213.9937,215.4231,a,1,[],[],[],[],[],[],[],0.6605,1,215.4231,215.9147,,,,,,1262,FEM,AGR,150,fuente,la,a,0.6605,,215.9147,215.9147,-0.252777778,0.074074074,0,0,0,,0,37,37,361,1,,,
,,,,,,a1fd1ece6aad82d8c313b5ad,66a626ef09d4e21e1a8894ec,6734e0450abcbf6acae86c0d,2024-11-13_11h22.55.530,Tarea de género gramatical,2024.2.2,Win32,18.01801802,,,,,,,,,,,,,,,,,,,,,,,215.9154,217.4318,l,0,[],[],[],[],[],[],[],0.7371,0,217.4322,217.8951,,,,,,1081,FEM,DIS,150,tarde,el,a,0.7371,,217.8959,217.8969,-0.252777778,0.074074074,0,0,0,,0,38,38,180,1,,,
,,,,,,a1fd1ece6aad82d8c313b5ad,66a626ef09d4e21e1a8894ec,6734e0450abcbf6acae86c0d,2024-11-13_11h22.55.530,Tarea de género gramatical,2024.2.2,Win32,18.01801802,,,,,,,,,,,,,,,,,,,,,,,217.8972,219.0789,a,1,[],[],[],[],[],[],[],0.4058,1,219.0793,219.5493,,,,,,1323,FEM,CON,150,poesía,,a,0.4058,,219.5493,219.5494,-0.252777778,0.074074074,0,0,0,,0,39,39,422,1,,,
,,,,,,a1fd1ece6aad82d8c313b5ad,66a626ef09d4e21e1a8894ec,6734e0450abcbf6acae86c0d,2024-11-13_11h22.55.530,Tarea de género gramatical,2024.2.2,Win32,18.01801802,,,,,,,,,,,,,,,,,,,,,,,219.5499,220.9409,l,1,[],[],[],[],[],[],[],0.6592,1,220.9409,221.4045,,,,,,984,MAS,CON,150,mago,,l,0.6592,,221.4046,221.4046,-0.252777778,0.074074074,0,0,0,,0,40,40,83,1,,,
,,,,,,a1fd1ece6aad82d8c313b5ad,66a626ef09d4e21e1a8894ec,6734e0450abcbf6acae86c0d,2024-11-13_11h22.55.530,Tarea de género gramatical,2024.2.2,Win32,18.01801802,,,,,,,,,,,,,,,,,,,,,,,221.4053,222.7203,l,1,[],[],[],[],[],[],[],0.5939,1,222.7203,223.2145,,,,,,1253,MAS,AGR,150,verano,el,l,0.5939,,223.2145,223.2145,-0.252777778,0.074074074,0,0,0,,0,41,41,352,1,,,
,,,,,,a1fd1ece6aad82d8c313b5ad,66a626ef09d4e21e1a8894ec,6734e0450abcbf6acae86c0d,2024-11-13_11h22.55.530,Tarea de género gramatical,2024.2.2,Win32,18.01801802,,,,,,,,,,,,,,,,,,,,,,,223.2151,224.4211,l,1,[],[],[],[],[],[],[],0.4854,1,224.4213,224.8939,,,,,,1050,MAS,CON,150,mozo,,l,0.4854,,224.8945,224.8955,-0.252777778,0.074074074,0,0,0,,0,42,42,149,1,,,
,,,,,,a1fd1ece6aad82d8c313b5ad,66a626ef09d4e21e1a8894ec,6734e0450abcbf6acae86c0d,2024-11-13_11h22.55.530,Tarea de género gramatical,2024.2.2,Win32,18.01801802,,,,,,,,,,,,,,,,,,,,,,,224.8958,226.0024,a,1,[],[],[],[],[],[],[],0.3798,1,226.0024,226.5133,,,,,,914,FEM,AGR,150,cara,la,a,0.3798,,226.5133,226.5134,-0.252777778,0.074074074,0,0,0,,0,43,43,13,1,,,
,,,,,,a1fd1ece6aad82d8c313b5ad,66a626ef09d4e21e1a8894ec,6734e0450abcbf6acae86c0d,2024-11-13_11h22.55.530,Tarea de género gramatical,2024.2.2,Win32,18.01801802,,,,,,,,,,,,,,,,,,,,,,,226.5139,227.7126,l,1,[],[],[],[],[],[],[],0.4831,1,227.7126,228.1665,,,,,,1187,MAS,AGR,150,plato,el,l,0.4831,,228.1665,228.1666,-0.252777778,0.074074074,0,0,0,,0,44,44,286,1,,,
,,,,,,a1fd1ece6aad82d8c313b5ad,66a626ef09d4e21e1a8894ec,6734e0450abcbf6acae86c0d,2024-11-13_11h22.55.530,Tarea de género gramatical,2024.2.2,Win32,18.01801802,,,,,,,,,,,,,,,,,,,,,,,228.1674,229.3963,a,1,[],[],[],[],[],[],[],0.4694,1,229.3964,229.902,,,,,,1033,FEM,DIS,150,joya,el,a,0.4694,,229.902,229.9021,-0.252777778,0.074074074,0,0,0,,0,45,45,132,1,,,
,,,,,,a1fd1ece6aad82d8c313b5ad,66a626ef09d4e21e1a8894ec,6734e0450abcbf6acae86c0d,2024-11-13_11h22.55.530,Tarea de género gramatical,2024.2.2,Win32,18.01801802,,,,,,,,,,,,,,,,,,,,,,,229.9027,231.1491,a,1,[],[],[],[],[],[],[],0.5196,1,231.1491,231.6035,,,,,,1159,FEM,DIS,150,prima,el,a,0.5196,,231.6035,231.6035,-0.252777778,0.074074074,0,0,0,,0,46,46,258,1,,,
,,,,,,a1fd1ece6aad82d8c313b5ad,66a626ef09d4e21e1a8894ec,6734e0450abcbf6acae86c0d,2024-11-13_11h22.55.530,Tarea de género gramatical,2024.2.2,Win32,18.01801802,,,,,,,,,,,,,,,,,,,,,,,231.6043,233.0965,a,1,[],[],[],[],[],[],[],0.7676,1,233.0965,233.6099,,,,,,1231,FEM,DIS,150,cárcel,el,a,0.7676,,233.6106,233.6116,-0.252777778,0.074074074,0,0,0,,0,47,47,330,1,,,
,,,,,,a1fd1ece6aad82d8c313b5ad,66a626ef09d4e21e1a8894ec,6734e0450abcbf6acae86c0d,2024-11-13_11h22.55.530,Tarea de género gramatical,2024.2.2,Win32,18.01801802,,,,,,,,,,,,,,,,,,,,,,,233.612,234.7028,l,1,[],[],[],[],[],[],[],0.3278,1,234.7028,235.1674,,,,,,1007,MAS,AGR,150,cubo,el,l,0.3278,,235.1674,235.1675,-0.252777778,0.074074074,0,0,0,,0,48,48,106,1,,,
,,,,,,a1fd1ece6aad82d8c313b5ad,66a626ef09d4e21e1a8894ec,6734e0450abcbf6acae86c0d,2024-11-13_11h22.55.530,Tarea de género gramatical,2024.2.2,Win32,18.01801802,,,,,,,,,,,,,,,,,,,,,,,235.1681,236.3426,l,1,[],[],[],[],[],[],[],0.3928,1,236.3426,236.8183,,,,,,1169,MAS,AGR,150,primo,el,l,0.3928,,236.8183,236.8184,-0.252777778,0.074074074,0,0,0,,0,49,49,268,1,,,
,,,,,,a1fd1ece6aad82d8c313b5ad,66a626ef09d4e21e1a8894ec,6734e0450abcbf6acae86c0d,2024-11-13_11h22.55.530,Tarea de género gramatical,2024.2.2,Win32,18.01801802,,,,,,,,,,,,,,,,,,,,,,,236.8189,237.8936,l,1,[],[],[],[],[],[],[],0.3425,1,237.8937,238.4107,,,,,,1067,MAS,AGR,150,juego,el,l,0.3425,,238.4108,238.4108,-0.252777778,0.074074074,0,0,0,,0,50,50,166,1,,,
,,,,,,a1fd1ece6aad82d8c313b5ad,66a626ef09d4e21e1a8894ec,6734e0450abcbf6acae86c0d,2024-11-13_11h22.55.530,Tarea de género gramatical,2024.2.2,Win32,18.01801802,,,,,,,,,,,,,,,,,,,,,,,238.4113,239.4898,l,1,[],[],[],[],[],[],[],0.3407,1,239.4899,239.9619,,,,,,1150,MAS,DIS,150,cerdo,la,l,0.3407,,239.9625,239.9635,-0.252777778,0.074074074,0,0,0,,0,51,51,249,1,,,
,,,,,,a1fd1ece6aad82d8c313b5ad,66a626ef09d4e21e1a8894ec,6734e0450abcbf6acae86c0d,2024-11-13_11h22.55.530,Tarea de género gramatical,2024.2.2,Win32,18.01801802,,,,,,,,,,,,,,,,,,,,,,,239.9638,241.0403,l,1,[],[],[],[],[],[],[],0.32,1,241.0404,241.5096,,,,,,1180,MAS,DIS,150,salón,la,l,0.32,,241.5097,241.5097,-0.252777778,0.074074074,0,0,0,,0,52,52,279,1,,,
,,,,,,a1fd1ece6aad82d8c313b5ad,66a626ef09d4e21e1a8894ec,6734e0450abcbf6acae86c0d,2024-11-13_11h22.55.530,Tarea de género gramatical,2024.2.2,Win32,18.01801802,,,,,,,,,,,,,,,,,,,,,,,241.5103,242.5494,l,1,[],[],[],[],[],[],[],0.2768,1,242.5495,243.0198,,,,,,1331,MAS,AGR,150,veneno,el,l,0.2768,,243.0198,243.0198,-0.252777778,0.074074074,0,0,0,,0,53,53,430,1,,,
,,,,,,a1fd1ece6aad82d8c313b5ad,66a626ef09d4e21e1a8894ec,6734e0450abcbf6acae86c0d,2024-11-13_11h22.55.530,Tarea de género gramatical,2024.2.2,Win32,18.01801802,,,,,,,,,,,,,,,,,,,,,,,243.0204,244.3213,l,0,[],[],[],[],[],[],[],0.539,0,244.3218,244.7863,,,,,,1075,FEM,DIS,150,señal,el,a,0.539,,244.7864,244.7864,-0.252777778,0.074074074,0,0,0,,0,54,54,174,1,,,
,,,,,,a1fd1ece6aad82d8c313b5ad,66a626ef09d4e21e1a8894ec,6734e0450abcbf6acae86c0d,2024-11-13_11h22.55.530,Tarea de género gramatical,2024.2.2,Win32,18.01801802,,,,,,,,,,,,,,,,,,,,,,,244.787,245.9926,l,1,[],[],[],[],[],[],[],0.47,1,245.993,246.4569,,,,,,1012,MAS,DIS,150,reto,la,l,0.47,,246.4569,246.4569,-0.252777778,0.074074074,0,0,0,,0,55,55,111,1,,,
,,,,,,a1fd1ece6aad82d8c313b5ad,66a626ef09d4e21e1a8894ec,6734e0450abcbf6acae86c0d,2024-11-13_11h22.55.530,Tarea de género gramatical,2024.2.2,Win32,18.01801802,,,,,,,,,,,,,,,,,,,,,,,246.4576,247.6417,l,1,[],[],[],[],[],[],[],0.462,1,247.6418,248.0982,,,,,,1030,MAS,DIS,150,yate,la,l,0.462,,248.0988,248.0998,-0.252777778,0.074074074,0,0,0,,0,56,56,129,1,,,
,,,,,,a1fd1ece6aad82d8c313b5ad,66a626ef09d4e21e1a8894ec,6734e0450abcbf6acae86c0d,2024-11-13_11h22.55.530,Tarea de género gramatical,2024.2.2,Win32,18.01801802,,,,,,,,,,,,,,,,,,,,,,,248.1001,249.3502,l,1,[],[],[],[],[],[],[],0.4749,1,249.3502,249.8079,,,,,,910,MAS,DIS,150,niño,la,l,0.4749,,249.808,249.808,-0.252777778,0.074074074,0,0,0,,0,57,57,9,1,,,
,,,,,,a1fd1ece6aad82d8c313b5ad,66a626ef09d4e21e1a8894ec,6734e0450abcbf6acae86c0d,2024-11-13_11h22.55.530,Tarea de género gramatical,2024.2.2,Win32,18.01801802,,,,,,,,,,,,,,,,,,,,,,,249.8085,251.0092,a,1,[],[],[],[],[],[],[],0.475,1,251.0092,251.4706,,,,,,933,FEM,CON,150,boda,,a,0.475,,251.4706,251.4707,-0.252777778,0.074074074,0,0,0,,0,58,58,32,1,,,
,,,,,,a1fd1ece6aad82d8c313b5ad,66a626ef09d4e21e1a8894ec,6734e0450abcbf6acae86c0d,2024-11-13_11h22.55.530,Tarea de género gramatical,2024.2.2,Win32,18.01801802,,,,,,,,,,,,,,,,,,,,,,,251.4712,252.5671,l,1,[],[],[],[],[],[],[],0.3349,1,252.5671,253.0796,,,,,,1032,MAS,CON,150,velo,,l,0.3349,,253.0796,253.0797,-0.252777778,0.074074074,0,0,0,,0,59,59,131,1,,,
,,,,,,a1fd1ece6aad82d8c313b5ad,66a626ef09d4e21e1a8894ec,6734e0450abcbf6acae86c0d,2024-11-13_11h22.55.530,Tarea de género gramatical,2024.2.2,Win32,18.01801802,,,,,,,,,,,,,,,,,,,,,,,253.0802,254.2845,l,1,[],[],[],[],[],[],[],0.4762,1,254.2846,254.7504,,,,,,1002,MAS,CON,150,coro,,l,0.4762,,254.751,254.7519,-0.252777778,0.074074074,0,0,0,,0,60,60,101,1,,,
,,,,,,a1fd1ece6aad82d8c313b5ad,66a626ef09d4e21e1a8894ec,6734e0450abcbf6acae86c0d,2024-11-13_11h22.55.530,Tarea de género gramatical,2024.2.2,Win32,18.01801802,,,,,,,,,,,,,,,,,,,,,,,254.7524,255.8559,l,1,[],[],[],[],[],[],[],0.3317,1,255.8559,256.3233,,,,,,1134,MAS,CON,150,héroe,,l,0.3317,,256.3233,256.3233,-0.252777778,0.074074074,0,0,0,,0,61,61,233,1,,,
,,,,,,a1fd1ece6aad82d8c313b5ad,66a626ef09d4e21e1a8894ec,6734e0450abcbf6acae86c0d,2024-11-13_11h22.55.530,Tarea de género gramatical,2024.2.2,Win32,18.01801802,,,,,,,,,,,,,,,,,,,,,,,256.3239,257.4464,a,1,[],[],[],[],[],[],[],0.402,1,257.4465,257.9185,,,,,,1280,FEM,AGR,150,madera,la,a,0.402,,257.9185,257.9186,-0.252777778,0.074074074,0,0,0,,0,62,62,379,1,,,
,,,,,,a1fd1ece6aad82d8c313b5ad,66a626ef09d4e21e1a8894ec,6734e0450abcbf6acae86c0d,2024-11-13_11h22.55.530,Tarea de género gramatical,2024.2.2,Win32,18.01801802,,,,,,,,,,,,,,,,,,,,,,,257.9191,259.1152,l,1,[],[],[],[],[],[],[],0.4702,1,259.1153,259.5787,,,,,,1295,MAS,AGR,150,correo,el,l,0.4702,,259.5788,259.5788,-0.252777778,0.074074074,0,0,0,,0,63,63,394,1,,,
,,,,,,a1fd1ece6aad82d8c313b5ad,66a626ef09d4e21e1a8894ec,6734e0450abcbf6acae86c0d,2024-11-13_11h22.55.530,Tarea de género gramatical,2024.2.2,Win32,18.01801802,,,,,,,,,,,,,,,,,,,,,,,259.5793,260.7446,l,1,[],[],[],[],[],[],[],0.3865,1,260.7448,261.2169,,,,,,1049,MAS,AGR,150,nudo,el,l,0.3865,,261.217,261.217,-0.252777778,0.074074074,0,0,0,,0,64,64,148,1,,,
,,,,,,a1fd1ece6aad82d8c313b5ad,66a626ef09d4e21e1a8894ec,6734e0450abcbf6acae86c0d,2024-11-13_11h22.55.530,Tarea de género gramatical,2024.2.2,Win32,18.01801802,,,,,,,,,,,,,,,,,,,,,,,261.2176,262.2766,l,1,[],[],[],[],[],[],[],0.3393,1,262.2767,262.7512,,,,,,1062,MAS,CON,150,miedo,,l,0.3393,,262.7519,262.7528,-0.252777778,0.074074074,0,0,0,,0,65,65,161,1,,,
,,,,,,a1fd1ece6aad82d8c313b5ad,66a626ef09d4e21e1a8894ec,6734e0450abcbf6acae86c0d,2024-11-13_11h22.55.530,Tarea de género gramatical,2024.2.2,Win32,18.01801802,,,,,,,,,,,,,,,,,,,,,,,262.7531,263.8687,a,1,[],[],[],[],[],[],[],0.3502,1,263.8687,264.335,,,,,,1197,FEM,CON,150,manta,,a,0.3502,,264.335,264.3351,-0.252777778,0.074074074,0,0,0,,0,66,66,296,1,,,
,,,,,,a1fd1ece6aad82d8c313b5ad,66a626ef09d4e21e1a8894ec,6734e0450abcbf6acae86c0d,2024-11-13_11h22.55.530,Tarea de género gramatical,2024.2.2,Win32,18.01801802,,,,,,,,,,,,,,,,,,,,,,,264.3355,265.6508,l,0,[],[],[],[],[],[],[],0.5991,0,265.6512,266.1396,,,,,,1155,FEM,CON,150,tribu,,a,0.5991,,266.1396,266.1398,-0.252777778,0.074074074,0,0,0,,0,67,67,254,1,,,
,,,,,,a1fd1ece6aad82d8c313b5ad,66a626ef09d4e21e1a8894ec,6734e0450abcbf6acae86c0d,2024-11-13_11h22.55.530,Tarea de género gramatical,2024.2.2,Win32,18.01801802,,,,,,,,,,,,,,,,,,,,,,,266.1403,267.5161,a,0,[],[],[],[],[],[],[],0.6596,0,267.5162,268.0198,,,,,,1110,MAS,CON,150,baile,,l,0.6596,,268.0198,268.0199,-0.252777778,0.074074074,0,0,0,,0,68,68,209,1,,,
,,,,,,a1fd1ece6aad82d8c313b5ad,66a626ef09d4e21e1a8894ec,6734e0450abcbf6acae86c0d,2024-11-13_11h22.55.530,Tarea de género gramatical,2024.2.2,Win32,18.01801802,,,,,,,,,,,,,,,,,,,,,,,268.0205,269.2339,l,1,[],[],[],[],[],[],[],0.4721,1,269.2344,269.7237,,,,,,1270,MAS,DIS,150,seguro,la,l,0.4721,,269.7243,269.7253,-0.252777778,0.074074074,0,0,0,,0,69,69,369,1,,,
,,,,,,a1fd1ece6aad82d8c313b5ad,66a626ef09d4e21e1a8894ec,6734e0450abcbf6acae86c0d,2024-11-13_11h22.55.530,Tarea de género gramatical,2024.2.2,Win32,18.01801802,,,,,,,,,,,,,,,,,,,,,,,269.7256,270.9828,l,1,[],[],[],[],[],[],[],0.5445,1,270.9828,271.4499,,,,,,1133,MAS,AGR,150,golpe,el,l,0.5445,,271.4499,271.45,-0.252777778,0.074074074,0,0,0,,0,70,70,232,1,,,
,,,,,,a1fd1ece6aad82d8c313b5ad,66a626ef09d4e21e1a8894ec,6734e0450abcbf6acae86c0d,2024-11-13_11h22.55.530,Tarea de género gramatical,2024.2.2,Win32,18.01801802,,,,,,,,,,,,,,,,,,,,,,,271.4506,272.6188,l,1,[],[],[],[],[],[],[],0.3938,1,272.6188,273.1169,,,,,,1284,MAS,CON,150,pedazo,,l,0.3938,,273.1169,273.117,-0.252777778,0.074074074,0,0,0,,0,71,71,383,1,,,
,,,,,,a1fd1ece6aad82d8c313b5ad,66a626ef09d4e21e1a8894ec,6734e0450abcbf6acae86c0d,2024-11-13_11h22.55.530,Tarea de género gramatical,2024.2.2,Win32,18.01801802,,,,,,,,,,,,,,,,,,,,,,,273.1175,274.2876,a,1,[],[],[],[],[],[],[],0.4583,1,274.2877,274.7981,,,,,,1243,FEM,DIS,150,trampa,el,a,0.4583,,274.7981,274.7982,-0.252777778,0.074074074,0,0,0,,0,72,72,342,1,,,
,,,,,,a1fd1ece6aad82d8c313b5ad,66a626ef09d4e21e1a8894ec,6734e0450abcbf6acae86c0d,2024-11-13_11h22.55.530,Tarea de género gramatical,2024.2.2,Win32,18.01801802,,,,,,,,,,,,,,,,,,,,,,,274.7987,276.0305,l,1,[],[],[],[],[],[],[],0.516,1,276.0306,276.5383,,,,,,1056,MAS,CON,150,amigo,,l,0.516,,276.5383,276.5385,-0.252777778,0.074074074,0,0,0,,0,73,73,155,1,,,
,,,,,,a1fd1ece6aad82d8c313b5ad,66a626ef09d4e21e1a8894ec,6734e0450abcbf6acae86c0d,2024-11-13_11h22.55.530,Tarea de género gramatical,2024.2.2,Win32,18.01801802,,,,,,,,,,,,,,,,,,,,,,,276.539,277.7412,a,1,[],[],[],[],[],[],[],0.4766,1,277.7413,278.2107,,,,,,961,FEM,DIS,150,ruta,el,a,0.4766,,278.2113,278.2122,-0.252777778,0.074074074,0,0,0,,0,74,74,60,1,,,
,,,,,,a1fd1ece6aad82d8c313b5ad,66a626ef09d4e21e1a8894ec,6734e0450abcbf6acae86c0d,2024-11-13_11h22.55.530,Tarea de género gramatical,2024.2.2,Win32,18.01801802,,,,,,,,,,,,,,,,,,,,,,,278.2125,279.5348,a,1,[],[],[],[],[],[],[],0.6093,1,279.5349,280.0404,,,,,,1125,FEM,CON,150,pieza,,a,0.6093,,280.0404,280.0405,-0.252777778,0.074074074,0,0,0,,0,75,75,224,1,,,
,,,,,,a1fd1ece6aad82d8c313b5ad,66a626ef09d4e21e1a8894ec,6734e0450abcbf6acae86c0d,2024-11-13_11h22.55.530,Tarea de género gramatical,2024.2.2,Win32,18.01801802,,,,,,,,,,,,,,,,,,,,,,,280.041,281.2992,l,1,[],[],[],[],[],[],[],0.5487,1,281.2993,281.7744,,,,,,1300,MAS,DIS,150,barrio,la,l,0.5487,,281.7744,281.7744,-0.252777778,0.074074074,0,0,0,,0,76,76,399,1,,,
,,,,,,a1fd1ece6aad82d8c313b5ad,66a626ef09d4e21e1a8894ec,6734e0450abcbf6acae86c0d,2024-11-13_11h22.55.530,Tarea de género gramatical,2024.2.2,Win32,18.01801802,,,,,,,,,,,,,,,,,,,,,,,281.775,282.8865,a,1,[],[],[],[],[],[],[],0.3815,1,282.8866,283.342,,,,,,1004,FEM,AGR,150,vela,la,a,0.3815,,283.342,283.3422,-0.252777778,0.074074074,0,0,0,,0,77,77,103,1,,,
,,,,,,a1fd1ece6aad82d8c313b5ad,66a626ef09d4e21e1a8894ec,6734e0450abcbf6acae86c0d,2024-11-13_11h22.55.530,Tarea de género gramatical,2024.2.2,Win32,18.01801802,,,,,,,,,,,,,,,,,,,,,,,283.3427,284.4809,a,1,[],[],[],[],[],[],[],0.4123,1,284.4809,284.9909,,,,,,1227,FEM,CON,150,tienda,,a,0.4123,,284.9914,284.9924,-0.252777778,0.074074074,0,0,0,,0,78,78,326,1,,,
,,,,,,a1fd1ece6aad82d8c313b5ad,66a626ef09d4e21e1a8894ec,6734e0450abcbf6acae86c0d,2024-11-13_11h22.55.530,Tarea de género gramatical,2024.2.2,Win32,18.01801802,,,,,,,,,,,,,,,,,,,,,,,284.9928,286.1013,a,1,[],[],[],[],[],[],[],0.344,1,286.1013,286.575,,,,,,1255,FEM,DIS,150,mirada,el,a,0.344,,286.575,286.5751,-0.252777778,0.074074074,0,0,0,,0,79,79,354,1,,,
,,,,,,a1fd1ece6aad82d8c313b5ad,66a626ef09d4e21e1a8894ec,6734e0450abcbf6acae86c0d,2024-11-13_11h22.55.530,Tarea de género gramatical,2024.2.2,Win32,18.01801802,,,,,,,,,,,,,,,,,,,,,,,286.5756,287.6923,l,1,[],[],[],[],[],[],[],0.3476,1,287.6923,288.144,,,,,,905,MAS,AGR,150,tipo,el,l,0.3476,,288.144,288.1441,-0.252777778,0.074074074,0,0,0,,0,80,80,4,1,,,
,,,,,,a1fd1ece6aad82d8c313b5ad,66a626ef09d4e21e1a8894ec,6734e0450abcbf6acae86c0d,2024-11-13_11h22.55.530,Tarea de género gramatical,2024.2.2,Win32,18.01801802,,,,,,,,,,,,,,,,,,,,,,,288.1445,289.4541,l,1,[],[],[],[],[],[],[],0.5367,1,289.4541,289.9172,,,,,,1020,MAS,CON,150,puño,,l,0.5367,,289.9172,289.9172,-0.252777778,0.074074074,0,0,0,,0,81,81,119,1,,,
,,,,,,a1fd1ece6aad82d8c313b5ad,66a626ef09d4e21e1a8894ec,6734e0450abcbf6acae86c0d,2024-11-13_11h22.55.530,Tarea de género gramatical,2024.2.2,Win32,18.01801802,,,,,,,,,,,,,,,,,,,,,,,289.9178,291.052,a,1,[],[],[],[],[],[],[],0.4119,1,291.0521,291.5698,,,,,,956,FEM,AGR,150,bola,la,a,0.4119,,291.57,291.57,-0.252777778,0.074074074,0,0,0,,0,82,82,55,1,,,
,,,,,,a1fd1ece6aad82d8c313b5ad,66a626ef09d4e21e1a8894ec,6734e0450abcbf6acae86c0d,2024-11-13_11h22.55.530,Tarea de género gramatical,2024.2.2,Win32,18.01801802,,,,,,,,,,,,,,,,,,,,,,,291.5705,292.7645,l,0,[],[],[],[],[],[],[],0.4707,0,292.765,293.2765,,,,,,1232,FEM,AGR,150,basura,la,a,0.4707,,293.2771,293.2781,-0.252777778,0.074074074,0,0,0,,0,83,83,331,1,,,
,,,,,,a1fd1ece6aad82d8c313b5ad,66a626ef09d4e21e1a8894ec,6734e0450abcbf6acae86c0d,2024-11-13_11h22.55.530,Tarea de género gramatical,2024.2.2,Win32,18.01801802,,,,,,,,,,,,,,,,,,,,,,,293.2783,294.6486,l,1,[],[],[],[],[],[],[],0.6435,1,294.649,295.1138,,,,,,1294,MAS,DIS,150,examen,la,l,0.6435,,295.1138,295.1138,-0.252777778,0.074074074,0,0,0,,0,84,84,393,1,,,
,,,,,,a1fd1ece6aad82d8c313b5ad,66a626ef09d4e21e1a8894ec,6734e0450abcbf6acae86c0d,2024-11-13_11h22.55.530,Tarea de género gramatical,2024.2.2,Win32,18.01801802,,,,,,,,,,,,,,,,,,,,,,,295.1144,296.2409,l,1,[],[],[],[],[],[],[],0.358,1,296.2409,296.7025,,,,,,930,MAS,CON,150,cine,,l,0.358,,296.7025,296.7025,-0.252777778,0.074074074,0,0,0,,0,85,85,29,1,,,
,,,,,,a1fd1ece6aad82d8c313b5ad,66a626ef09d4e21e1a8894ec,6734e0450abcbf6acae86c0d,2024-11-13_11h22.55.530,Tarea de género gramatical,2024.2.2,Win32,18.01801802,,,,,,,,,,,,,,,,,,,,,,,296.7031,297.6841,l,1,[],[],[],[],[],[],[],0.2125,1,297.6841,298.1485,,,,,,924,MAS,CON,150,voto,,l,0.2125,,298.1485,298.1485,-0.252777778,0.074074074,0,0,0,,0,86,86,23,1,,,
,,,,,,a1fd1ece6aad82d8c313b5ad,66a626ef09d4e21e1a8894ec,6734e0450abcbf6acae86c0d,2024-11-13_11h22.55.530,Tarea de género gramatical,2024.2.2,Win32,18.01801802,,,,,,,,,,,,,,,,,,,,,,,298.1491,299.2227,l,0,[],[],[],[],[],[],[],0.3384,0,299.2231,299.6906,,,,,,1225,FEM,DIS,150,tierra,el,a,0.3384,,299.6912,299.6921,-0.252777778,0.074074074,0,0,0,,0,87,87,324,1,,,
,,,,,,a1fd1ece6aad82d8c313b5ad,66a626ef09d4e21e1a8894ec,6734e0450abcbf6acae86c0d,2024-11-13_11h22.55.530,Tarea de género gramatical,2024.2.2,Win32,18.01801802,,,,,,,,,,,,,,,,,,,,,,,299.6925,300.9387,l,1,[],[],[],[],[],[],[],0.5241,1,300.9392,301.4018,,,,,,1025,MAS,AGR,150,bate,el,l,0.5241,,301.4018,301.4019,-0.252777778,0.074074074,0,0,0,,0,88,88,124,1,,,
,,,,,,a1fd1ece6aad82d8c313b5ad,66a626ef09d4e21e1a8894ec,6734e0450abcbf6acae86c0d,2024-11-13_11h22.55.530,Tarea de género gramatical,2024.2.2,Win32,18.01801802,,,,,,,,,,,,,,,,,,,,,,,301.4029,302.7141,l,1,[],[],[],[],[],[],[],0.5914,1,302.7142,303.1707,,,,,,1186,MAS,DIS,150,reino,la,l,0.5914,,303.1707,303.1707,-0.252777778,0.074074074,0,0,0,,0,89,89,285,1,,,
,,,,,,a1fd1ece6aad82d8c313b5ad,66a626ef09d4e21e1a8894ec,6734e0450abcbf6acae86c0d,2024-11-13_11h22.55.530,Tarea de género gramatical,2024.2.2,Win32,18.01801802,,,,,,,,,,,,,,,,,,,,,,,303.1712,304.4249,l,1,[],[],[],[],[],[],[],0.5262,1,304.425,304.9448,,,,,,1146,MAS,CON,150,humor,,l,0.5262,,304.9448,304.9448,-0.252777778,0.074074074,0,0,0,,0,90,90,245,1,,,
,,,,,,a1fd1ece6aad82d8c313b5ad,66a626ef09d4e21e1a8894ec,6734e0450abcbf6acae86c0d,2024-11-13_11h22.55.530,Tarea de género gramatical,2024.2.2,Win32,18.01801802,,,,,,,,,,,,,,,,,,,,,,,304.9455,306.0694,a,1,[],[],[],[],[],[],[],0.3929,1,306.0695,306.5387,,,,,,1070,FEM,AGR,150,carta,la,a,0.3929,,306.5387,306.5388,-0.252777778,0.074074074,0,0,0,,0,91,91,169,1,,,
,,,,,,a1fd1ece6aad82d8c313b5ad,66a626ef09d4e21e1a8894ec,6734e0450abcbf6acae86c0d,2024-11-13_11h22.55.530,Tarea de género gramatical,2024.2.2,Win32,18.01801802,,,,,,,,,,,,,,,,,,,,,,,306.5393,307.7248,a,1,[],[],[],[],[],[],[],0.4568,1,307.7249,308.1993,,,,,,1083,FEM,CON,150,llave,,a,0.4568,,308.2,308.201,-0.252777778,0.074074074,0,0,0,,0,92,92,182,1,,,
,,,,,,a1fd1ece6aad82d8c313b5ad,66a626ef09d4e21e1a8894ec,6734e0450abcbf6acae86c0d,2024-11-13_11h22.55.530,Tarea de género gramatical,2024.2.2,Win32,18.01801802,,,,,,,,,,,,,,,,,,,,,,,308.2014,309.3299,l,1,[],[],[],[],[],[],[],0.4018,1,309.33,309.8031,,,,,,1152,MAS,CON,150,viejo,,l,0.4018,,309.8031,309.8032,-0.252777778,0.074074074,0,0,0,,0,93,93,251,1,,,
,,,,,,a1fd1ece6aad82d8c313b5ad,66a626ef09d4e21e1a8894ec,6734e0450abcbf6acae86c0d,2024-11-13_11h22.55.530,Tarea de género gramatical,2024.2.2,Win32,18.01801802,,,,,,,,,,,,,,,,,,,,,,,309.8038,310.9598,a,1,[],[],[],[],[],[],[],0.4059,1,310.9598,311.468,,,,,,1112,FEM,AGR,150,cinta,la,a,0.4059,,311.468,311.4681,-0.252777778,0.074074074,0,0,0,,0,94,94,211,1,,,
,,,,,,a1fd1ece6aad82d8c313b5ad,66a626ef09d4e21e1a8894ec,6734e0450abcbf6acae86c0d,2024-11-13_11h22.55.530,Tarea de género gramatical,2024.2.2,Win32,18.01801802,,,,,,,,,,,,,,,,,,,,,,,311.4686,312.5765,a,1,[],[],[],[],[],[],[],0.3777,1,312.5765,313.0383,,,,,,919,FEM,DIS,150,niña,el,a,0.3777,,313.0384,313.0384,-0.252777778,0.074074074,0,0,0,,0,95,95,18,1,,,
,,,,,,a1fd1ece6aad82d8c313b5ad,66a626ef09d4e21e1a8894ec,6734e0450abcbf6acae86c0d,2024-11-13_11h22.55.530,Tarea de género gramatical,2024.2.2,Win32,18.01801802,,,,,,,,,,,,,,,,,,,,,,,313.0393,314.1946,a,1,[],[],[],[],[],[],[],0.4276,1,314.1948,314.6626,,,,,,974,FEM,AGR,150,flor,la,a,0.4276,,314.6632,314.6642,-0.252777778,0.074074074,0,0,0,,0,96,96,73,1,,,
,,,,,,a1fd1ece6aad82d8c313b5ad,66a626ef09d4e21e1a8894ec,6734e0450abcbf6acae86c0d,2024-11-13_11h22.55.530,Tarea de género gramatical,2024.2.2,Win32,18.01801802,,,,,,,,,,,,,,,,,,,,,,,314.6645,315.8022,a,1,[],[],[],[],[],[],[],0.409,1,315.8023,316.2811,,,,,,1117,FEM,DIS,150,tarea,el,a,0.409,,316.2811,316.2811,-0.252777778,0.074074074,0,0,0,,0,97,97,216,1,,,
,,,,,,a1fd1ece6aad82d8c313b5ad,66a626ef09d4e21e1a8894ec,6734e0450abcbf6acae86c0d,2024-11-13_11h22.55.530,Tarea de género gramatical,2024.2.2,Win32,18.01801802,,,,,,,,,,,,,,,,,,,,,,,316.2817,317.5638,l,1,[],[],[],[],[],[],[],0.5538,1,317.564,318.0466,,,,,,1222,MAS,DIS,150,minuto,la,l,0.5538,,318.0467,318.0468,-0.252777778,0.074074074,0,0,0,,0,98,98,321,1,,,
,,,,,,a1fd1ece6aad82d8c313b5ad,66a626ef09d4e21e1a8894ec,6734e0450abcbf6acae86c0d,2024-11-13_11h22.55.530,Tarea de género gramatical,2024.2.2,Win32,18.01801802,,,,,,,,,,,,,,,,,,,,,,,318.0472,319.2131,a,1,[],[],[],[],[],[],[],0.4555,1,319.2133,319.678,,,,,,985,FEM,DIS,150,gira,el,a,0.4555,,319.678,319.6781,-0.252777778,0.074074074,0,0,0,,0,99,99,84,1,,,
,,,,,,a1fd1ece6aad82d8c313b5ad,66a626ef09d4e21e1a8894ec,6734e0450abcbf6acae86c0d,2024-11-13_11h22.55.530,Tarea de género gramatical,2024.2.2,Win32,18.01801802,,,,,,,,,,,,,,,,,,,,,,,319.6787,320.9362,l,1,[],[],[],[],[],[],[],0.5337,1,320.9362,321.4467,,,,,,1200,MAS,CON,150,túnel,,l,0.5337,,321.4467,321.4468,-0.252777778,0.074074074,0,0,0,,0,100,100,299,1,,,
,,,,,,a1fd1ece6aad82d8c313b5ad,66a626ef09d4e21e1a8894ec,6734e0450abcbf6acae86c0d,2024-11-13_11h22.55.530,Tarea de género gramatical,2024.2.2,Win32,18.01801802,,,,,,,,,,,,,,,,,,,,,,,321.4473,322.7719,l,1,[],[],[],[],[],[],[],0.5908,1,322.772,323.2363,,,,,,1168,MAS,DIS,150,truco,la,l,0.5908,,323.2369,323.2379,-0.252777778,0.074074074,0,0,0,,0,101,101,267,1,,,
,,,,,,a1fd1ece6aad82d8c313b5ad,66a626ef09d4e21e1a8894ec,6734e0450abcbf6acae86c0d,2024-11-13_11h22.55.530,Tarea de género gramatical,2024.2.2,Win32,18.01801802,,,,,,,,,,,,,,,,,,,,,,,323.2382,324.3599,l,1,[],[],[],[],[],[],[],0.4009,1,324.36,324.8698,,,,,,1128,MAS,CON,150,nivel,,l,0.4009,,324.8699,324.8699,-0.252777778,0.074074074,0,0,0,,0,102,102,227,1,,,
,,,,,,a1fd1ece6aad82d8c313b5ad,66a626ef09d4e21e1a8894ec,6734e0450abcbf6acae86c0d,2024-11-13_11h22.55.530,Tarea de género gramatical,2024.2.2,Win32,18.01801802,,,,,,,,,,,,,,,,,,,,,,,324.8705,325.992,a,1,[],[],[],[],[],[],[],0.408,1,325.9921,326.48,,,,,,1123,FEM,DIS,150,plata,el,a,0.408,,326.4801,326.4801,-0.252777778,0.074074074,0,0,0,,0,103,103,222,1,,,
,,,,,,a1fd1ece6aad82d8c313b5ad,66a626ef09d4e21e1a8894ec,6734e0450abcbf6acae86c0d,2024-11-13_11h22.55.530,Tarea de género gramatical,2024.2.2,Win32,18.01801802,,,,,,,,,,,,,,,,,,,,,,,326.4808,327.61,l,1,[],[],[],[],[],[],[],0.3998,1,327.61,328.0815,,,,,,1337,MAS,AGR,150,hombro,el,l,0.3998,,328.0815,328.0815,-0.252777778,0.074074074,0,0,0,,0,104,104,436,1,,,
,,,,,,a1fd1ece6aad82d8c313b5ad,66a626ef09d4e21e1a8894ec,6734e0450abcbf6acae86c0d,2024-11-13_11h22.55.530,Tarea de género gramatical,2024.2.2,Win32,18.01801802,,,,,,,,,,,,,,,,,,,,,,,328.0822,329.4006,a,1,[],[],[],[],[],[],[],0.5834,1,329.4007,329.8666,,,,,,1233,FEM,CON,150,locura,,a,0.5834,,329.8672,329.8681,-0.252777778,0.074074074,0,0,0,,0,105,105,332,1,,,
,,,,,,a1fd1ece6aad82d8c313b5ad,66a626ef09d4e21e1a8894ec,6734e0450abcbf6acae86c0d,2024-11-13_11h22.55.530,Tarea de género gramatical,2024.2.2,Win32,18.01801802,,,,,,,,,,,,,,,,,,,,,,,329.8686,331.3177,l,1,[],[],[],[],[],[],[],0.6752,1,331.3177,331.7727,,,,,,1271,MAS,AGR,150,sonido,el,l,0.6752,,331.7728,331.7728,-0.252777778,0.074074074,0,0,0,,0,106,106,370,1,,,
,,,,,,a1fd1ece6aad82d8c313b5ad,66a626ef09d4e21e1a8894ec,6734e0450abcbf6acae86c0d,2024-11-13_11h22.55.530,Tarea de género gramatical,2024.2.2,Win32,18.01801802,,,,,,,,,,,,,,,,,,,,,,,331.7733,332.9525,l,1,[],[],[],[],[],[],[],0.3993,1,332.9526,333.4117,,,,,,982,MAS,DIS,150,tubo,la,l,0.3993,,333.4117,333.4118,-0.252777778,0.074074074,0,0,0,,0,107,107,81,1,,,
,,,,,,a1fd1ece6aad82d8c313b5ad,66a626ef09d4e21e1a8894ec,6734e0450abcbf6acae86c0d,2024-11-13_11h22.55.530,Tarea de género gramatical,2024.2.2,Win32,18.01801802,,,,,,,,,,,,,,,,,,,,,,,333.4123,334.7313,l,1,[],[],[],[],[],[],[],0.5903,1,334.7314,335.1897,,,,,,1104,MAS,CON,150,papel,,l,0.5903,,335.1898,335.1898,-0.252777778,0.074074074,0,0,0,,0,108,108,203,1,,,
,,,,,,a1fd1ece6aad82d8c313b5ad,66a626ef09d4e21e1a8894ec,6734e0450abcbf6acae86c0d,2024-11-13_11h22.55.530,Tarea de género gramatical,2024.2.2,Win32,18.01801802,,,,,,,,,,,,,,,,,,,,,,,335.1903,336.467,a,0,[],[],[],[],[],[],[],0.5366,0,336.4675,336.9187,,,,,,912,MAS,CON,150,plan,,l,0.5366,,336.9188,336.9188,-0.252777778,0.074074074,0,0,0,,0,109,109,11,1,,,
,,,,,,a1fd1ece6aad82d8c313b5ad,66a626ef09d4e21e1a8894ec,6734e0450abcbf6acae86c0d,2024-11-13_11h22.55.530,Tarea de género gramatical,2024.2.2,Win32,18.01801802,,,,,,,,,,,,,,,,,,,,,,,336.9195,338.3811,l,1,[],[],[],[],[],[],[],0.7489,1,338.3815,338.8734,,,,,,1212,MAS,CON,150,equipo,,l,0.7489,,338.874,338.875,-0.252777778,0.074074074,0,0,0,,0,110,110,311,1,,,
,,,,,,a1fd1ece6aad82d8c313b5ad,66a626ef09d4e21e1a8894ec,6734e0450abcbf6acae86c0d,2024-11-13_11h22.55.530,Tarea de género gramatical,2024.2.2,Win32,18.01801802,,,,,,,,,,,,,,,,,,,,,,,338.8753,340.1495,a,1,[],[],[],[],[],[],[],0.5103,1,340.1496,340.6185,,,,,,1047,FEM,CON,150,grúa,,a,0.5103,,340.6185,340.6185,-0.252777778,0.074074074,0,0,0,,0,111,111,146,1,,,
,,,,,,a1fd1ece6aad82d8c313b5ad,66a626ef09d4e21e1a8894ec,6734e0450abcbf6acae86c0d,2024-11-13_11h22.55.530,Tarea de género gramatical,2024.2.2,Win32,18.01801802,,,,,,,,,,,,,,,,,,,,,,,340.6193,341.8563,a,1,[],[],[],[],[],[],[],0.5152,1,341.8564,342.3285,,,,,,950,FEM,AGR,150,dama,la,a,0.5152,,342.3286,342.3286,-0.252777778,0.074074074,0,0,0,,0,112,112,49,1,,,
,,,,,,a1fd1ece6aad82d8c313b5ad,66a626ef09d4e21e1a8894ec,6734e0450abcbf6acae86c0d,2024-11-13_11h22.55.530,Tarea de género gramatical,2024.2.2,Win32,18.01801802,,,,,,,,,,,,,,,,,,,,,,,342.3291,343.4524,l,1,[],[],[],[],[],[],[],0.4043,1,343.4525,343.9691,,,,,,1151,MAS,AGR,150,dueño,el,l,0.4043,,343.9691,343.9691,-0.252777778,0.074074074,0,0,0,,0,113,113,250,1,,,
,,,,,,a1fd1ece6aad82d8c313b5ad,66a626ef09d4e21e1a8894ec,6734e0450abcbf6acae86c0d,2024-11-13_11h22.55.530,Tarea de género gramatical,2024.2.2,Win32,18.01801802,,,,,,,,,,,,,,,,,,,,,,,343.9696,345.2461,a,1,[],[],[],[],[],[],[],0.525,1,345.2461,345.7118,,,,,,1059,FEM,CON,150,clase,,a,0.525,,345.7125,345.7134,-0.252777778,0.074074074,0,0,0,,0,114,114,158,1,,,
,,,,,,a1fd1ece6aad82d8c313b5ad,66a626ef09d4e21e1a8894ec,6734e0450abcbf6acae86c0d,2024-11-13_11h22.55.530,Tarea de género gramatical,2024.2.2,Win32,18.01801802,,,,,,,,,,,,,,,,,,,,,,,345.7137,347.0318,a,1,[],[],[],[],[],[],[],0.5888,1,347.0318,347.4981,,,,,,999,FEM,CON,150,fase,,a,0.5888,,347.4981,347.4981,-0.252777778,0.074074074,0,0,0,,0,115,115,98,1,,,
,,,,,,a1fd1ece6aad82d8c313b5ad,66a626ef09d4e21e1a8894ec,6734e0450abcbf6acae86c0d,2024-11-13_11h22.55.530,Tarea de género gramatical,2024.2.2,Win32,18.01801802,,,,,,,,,,,,,,,,,,,,,,,347.4986,348.8239,l,1,[],[],[],[],[],[],[],0.5984,1,348.824,349.2977,,,,,,1174,MAS,DIS,150,motor,la,l,0.5984,,349.2977,349.2978,-0.252777778,0.074074074,0,0,0,,0,116,116,273,1,,,
,,,,,,a1fd1ece6aad82d8c313b5ad,66a626ef09d4e21e1a8894ec,6734e0450abcbf6acae86c0d,2024-11-13_11h22.55.530,Tarea de género gramatical,2024.2.2,Win32,18.01801802,,,,,,,,,,,,,,,,,,,,,,,349.2983,350.5688,a,1,[],[],[],[],[],[],[],0.5445,1,350.5689,351.0373,,,,,,1003,FEM,DIS,150,fama,el,a,0.5445,,351.0374,351.0374,-0.252777778,0.074074074,0,0,0,,0,117,117,102,1,,,
,,,,,,a1fd1ece6aad82d8c313b5ad,66a626ef09d4e21e1a8894ec,6734e0450abcbf6acae86c0d,2024-11-13_11h22.55.530,Tarea de género gramatical,2024.2.2,Win32,18.01801802,,,,,,,,,,,,,,,,,,,,,,,351.038,352.209,a,1,[],[],[],[],[],[],[],0.3981,1,352.2091,352.6686,,,,,,1130,FEM,AGR,150,regla,la,a,0.3981,,352.6686,352.6686,-0.252777778,0.074074074,0,0,0,,0,118,118,229,1,,,
,,,,,,a1fd1ece6aad82d8c313b5ad,66a626ef09d4e21e1a8894ec,6734e0450abcbf6acae86c0d,2024-11-13_11h22.55.530,Tarea de género gramatical,2024.2.2,Win32,18.01801802,,,,,,,,,,,,,,,,,,,,,,,352.6693,353.9458,l,1,[],[],[],[],[],[],[],0.5263,1,353.9458,354.4596,,,,,,1013,MAS,AGR,150,toro,el,l,0.5263,,354.4601,354.4611,-0.252777778,0.074074074,0,0,0,,0,119,119,112,1,,,
,,,,,,a1fd1ece6aad82d8c313b5ad,66a626ef09d4e21e1a8894ec,6734e0450abcbf6acae86c0d,2024-11-13_11h22.55.530,Tarea de género gramatical,2024.2.2,Win32,18.01801802,,,,,,,,,,,,,,,,,,,,,,,354.4614,355.9217,l,1,[],[],[],[],[],[],[],0.7275,1,355.9217,356.3756,,,,,,1102,MAS,DIS,150,honor,la,l,0.7275,,356.3756,356.3757,-0.252777778,0.074074074,0,0,0,,0,120,120,201,1,,,
,,,,,,a1fd1ece6aad82d8c313b5ad,66a626ef09d4e21e1a8894ec,6734e0450abcbf6acae86c0d,2024-11-13_11h22.55.530,Tarea de género gramatical,2024.2.2,Win32,18.01801802,,,,,,,,,,,,,,,,,,,,,,,356.3762,357.5971,a,0,[],[],[],[],[],[],[],0.4634,0,357.5975,358.0694,,,,,,1326,MAS,CON,150,pánico,,l,0.4634,,358.0694,358.0694,-0.252777778,0.074074074,0,0,0,,0,121,121,425,1,,,
,,,,,,a1fd1ece6aad82d8c313b5ad,66a626ef09d4e21e1a8894ec,6734e0450abcbf6acae86c0d,2024-11-13_11h22.55.530,Tarea de género gramatical,2024.2.2,Win32,18.01801802,,,,,,,,,,,,,,,,,,,,,,,358.07,359.4126,l,1,[],[],[],[],[],[],[],0.5969,1,359.4131,359.8726,,,,,,1282,MAS,DIS,150,teatro,la,l,0.5969,,359.8726,359.8728,-0.252777778,0.074074074,0,0,0,,0,122,122,381,1,,,
,,,,,,a1fd1ece6aad82d8c313b5ad,66a626ef09d4e21e1a8894ec,6734e0450abcbf6acae86c0d,2024-11-13_11h22.55.530,Tarea de género gramatical,2024.2.2,Win32,18.01801802,,,,,,,,,,,,,,,,,,,,,,,359.8732,361.2068,a,1,[],[],[],[],[],[],[],0.5967,1,361.2068,361.7115,,,,,,1292,FEM,AGR,150,maleta,la,a,0.5967,,361.712,361.713,-0.252777778,0.074074074,0,0,0,,0,123,123,391,1,,,
,,,,,,a1fd1ece6aad82d8c313b5ad,66a626ef09d4e21e1a8894ec,6734e0450abcbf6acae86c0d,2024-11-13_11h22.55.530,Tarea de género gramatical,2024.2.2,Win32,18.01801802,,,,,,,,,,,,,,,,,,,,,,,361.7133,363.1458,l,0,[],[],[],[],[],[],[],0.7238,0,363.1463,363.6603,,,,,,1263,FEM,CON,150,unidad,,a,0.7238,,363.6604,363.6604,-0.252777778,0.074074074,0,0,0,,0,124,124,362,1,,,
,,,,,,a1fd1ece6aad82d8c313b5ad,66a626ef09d4e21e1a8894ec,6734e0450abcbf6acae86c0d,2024-11-13_11h22.55.530,Tarea de género gramatical,2024.2.2,Win32,18.01801802,,,,,,,,,,,,,,,,,,,,,,,363.661,365.0623,l,1,[],[],[],[],[],[],[],0.6798,1,365.0627,365.586,,,,,,1121,MAS,AGR,150,brazo,el,l,0.6798,,365.586,365.586,-0.252777778,0.074074074,0,0,0,,0,125,125,220,1,,,
,,,,,,a1fd1ece6aad82d8c313b5ad,66a626ef09d4e21e1a8894ec,6734e0450abcbf6acae86c0d,2024-11-13_11h22.55.530,Tarea de género gramatical,2024.2.2,Win32,18.01801802,,,,,,,,,,,,,,,,,,,,,,,365.5866,366.772,a,1,[],[],[],[],[],[],[],0.4667,1,366.7721,367.2357,,,,,,1005,FEM,CON,150,jefa,,a,0.4667,,367.2357,367.2357,-0.252777778,0.074074074,0,0,0,,0,126,126,104,1,,,
,,,,,,a1fd1ece6aad82d8c313b5ad,66a626ef09d4e21e1a8894ec,6734e0450abcbf6acae86c0d,2024-11-13_11h22.55.530,Tarea de género gramatical,2024.2.2,Win32,18.01801802,,,,,,,,,,,,,,,,,,,,,,,367.2363,368.5789,l,1,[],[],[],[],[],[],[],0.6128,1,368.579,369.0347,,,,,,1115,MAS,AGR,150,hueso,el,l,0.6128,,369.0348,369.0348,-0.252777778,0.074074074,0,0,0,,0,127,127,214,1,,,
,,,,,,a1fd1ece6aad82d8c313b5ad,66a626ef09d4e21e1a8894ec,6734e0450abcbf6acae86c0d,2024-11-13_11h22.55.530,Tarea de género gramatical,2024.2.2,Win32,18.01801802,,,,,,,,,,,,,,,,,,,,,,,369.0354,370.2337,l,1,[],[],[],[],[],[],[],0.4852,1,370.2337,370.6932,,,,,,1217,MAS,AGR,150,número,el,l,0.4852,,370.6937,370.6947,-0.252777778,0.074074074,0,0,0,,0,128,128,316,1,,,
,,,,,,a1fd1ece6aad82d8c313b5ad,66a626ef09d4e21e1a8894ec,6734e0450abcbf6acae86c0d,2024-11-13_11h22.55.530,Tarea de género gramatical,2024.2.2,Win32,18.01801802,,,,,,,,,,,,,,,,,,,,,,,370.695,371.8894,a,1,[],[],[],[],[],[],[],0.455,1,371.8895,372.352,,,,,,1340,FEM,AGR,150,patada,la,a,0.455,,372.352,372.3521,-0.252777778,0.074074074,0,0,0,,0,129,129,439,1,,,
,,,,,,a1fd1ece6aad82d8c313b5ad,66a626ef09d4e21e1a8894ec,6734e0450abcbf6acae86c0d,2024-11-13_11h22.55.530,Tarea de género gramatical,2024.2.2,Win32,18.01801802,,,,,,,,,,,,,,,,,,,,,,,372.3526,373.6477,l,1,[],[],[],[],[],[],[],0.5362,1,373.6478,374.1554,,,,,,996,MAS,CON,150,pato,,l,0.5362,,374.1555,374.1555,-0.252777778,0.074074074,0,0,0,,0,130,130,95,1,,,
,,,,,,a1fd1ece6aad82d8c313b5ad,66a626ef09d4e21e1a8894ec,6734e0450abcbf6acae86c0d,2024-11-13_11h22.55.530,Tarea de género gramatical,2024.2.2,Win32,18.01801802,,,,,,,,,,,,,,,,,,,,,,,374.156,375.3975,l,1,[],[],[],[],[],[],[],0.4644,1,375.3976,375.8468,,,,,,1084,MAS,DIS,150,cielo,la,l,0.4644,,375.8468,375.8469,-0.252777778,0.074074074,0,0,0,,0,131,131,183,1,,,
,,,,,,a1fd1ece6aad82d8c313b5ad,66a626ef09d4e21e1a8894ec,6734e0450abcbf6acae86c0d,2024-11-13_11h22.55.530,Tarea de género gramatical,2024.2.2,Win32,18.01801802,,,,,,,,,,,,,,,,,,,,,,,375.8474,376.9725,l,1,[],[],[],[],[],[],[],0.4088,1,376.9726,377.4223,,,,,,1156,MAS,DIS,150,techo,la,l,0.4088,,377.4229,377.4238,-0.252777778,0.074074074,0,0,0,,0,132,132,255,1,,,
,,,,,,a1fd1ece6aad82d8c313b5ad,66a626ef09d4e21e1a8894ec,6734e0450abcbf6acae86c0d,2024-11-13_11h22.55.530,Tarea de género gramatical,2024.2.2,Win32,18.01801802,,,,,,,,,,,,,,,,,,,,,,,377.4241,378.5591,a,1,[],[],[],[],[],[],[],0.4135,1,378.5591,379.0265,,,,,,1299,FEM,CON,150,charla,,a,0.4135,,379.0265,379.0266,-0.252777778,0.074074074,0,0,0,,0,133,133,398,1,,,
,,,,,,a1fd1ece6aad82d8c313b5ad,66a626ef09d4e21e1a8894ec,6734e0450abcbf6acae86c0d,2024-11-13_11h22.55.530,Tarea de género gramatical,2024.2.2,Win32,18.01801802,,,,,,,,,,,,,,,,,,,,,,,379.0271,380.2049,a,1,[],[],[],[],[],[],[],0.4472,1,380.205,380.6993,,,,,,1028,FEM,AGR,150,leña,la,a,0.4472,,380.6993,380.6994,-0.252777778,0.074074074,0,0,0,,0,134,134,127,1,,,
,,,,,,a1fd1ece6aad82d8c313b5ad,66a626ef09d4e21e1a8894ec,6734e0450abcbf6acae86c0d,2024-11-13_11h22.55.530,Tarea de género gramatical,2024.2.2,Win32,18.01801802,,,,,,,,,,,,,,,,,,,,,,,380.6999,381.9001,l,1,[],[],[],[],[],[],[],0.4649,1,381.9001,382.3617,,,,,,929,MAS,AGR,150,frío,el,l,0.4649,,382.3618,382.3619,-0.252777778,0.074074074,0,0,0,,0,135,135,28,1,,,
,,,,,,a1fd1ece6aad82d8c313b5ad,66a626ef09d4e21e1a8894ec,6734e0450abcbf6acae86c0d,2024-11-13_11h22.55.530,Tarea de género gramatical,2024.2.2,Win32,18.01801802,,,,,,,,,,,,,,,,,,,,,,,382.3624,383.5142,a,1,[],[],[],[],[],[],[],0.4122,1,383.5143,384.0013,,,,,,927,FEM,CON,150,mesa,,a,0.4122,,384.0013,384.0013,-0.252777778,0.074074074,0,0,0,,0,136,136,26,1,,,
,,,,,,a1fd1ece6aad82d8c313b5ad,66a626ef09d4e21e1a8894ec,6734e0450abcbf6acae86c0d,2024-11-13_11h22.55.530,Tarea de género gramatical,2024.2.2,Win32,18.01801802,,,,,,,,,,,,,,,,,,,,,,,384.0019,385.1989,l,1,[],[],[],[],[],[],[],0.46,1,385.199,385.6617,,,,,,935,MAS,AGR,150,taxi,el,l,0.46,,385.6623,385.6632,-0.252777778,0.074074074,0,0,0,,0,137,137,34,1,,,
,,,,,,a1fd1ece6aad82d8c313b5ad,66a626ef09d4e21e1a8894ec,6734e0450abcbf6acae86c0d,2024-11-13_11h22.55.530,Tarea de género gramatical,2024.2.2,Win32,18.01801802,,,,,,,,,,,,,,,,,,,,,,,385.6636,386.8034,a,1,[],[],[],[],[],[],[],0.4175,1,386.8035,387.2751,,,,,,1129,FEM,DIS,150,celda,el,a,0.4175,,387.2752,387.2753,-0.252777778,0.074074074,0,0,0,,0,138,138,228,1,,,
,,,,,,a1fd1ece6aad82d8c313b5ad,66a626ef09d4e21e1a8894ec,6734e0450abcbf6acae86c0d,2024-11-13_11h22.55.530,Tarea de género gramatical,2024.2.2,Win32,18.01801802,,,,,,,,,,,,,,,,,,,,,,,387.2758,388.4913,a,1,[],[],[],[],[],[],[],0.48,1,388.4913,388.9531,,,,,,957,FEM,CON,150,moda,,a,0.48,,388.9531,388.9531,-0.252777778,0.074074074,0,0,0,,0,139,139,56,1,,,
,,,,,,a1fd1ece6aad82d8c313b5ad,66a626ef09d4e21e1a8894ec,6734e0450abcbf6acae86c0d,2024-11-13_11h22.55.530,Tarea de género gramatical,2024.2.2,Win32,18.01801802,,,,,,,,,,,,,,,,,,,,,,,388.9537,390.1932,a,1,[],[],[],[],[],[],[],0.4638,1,390.1932,390.6568,,,,,,1147,FEM,DIS,150,frase,el,a,0.4638,,390.6568,390.6569,-0.252777778,0.074074074,0,0,0,,0,140,140,246,1,,,
,,,,,,a1fd1ece6aad82d8c313b5ad,66a626ef09d4e21e1a8894ec,6734e0450abcbf6acae86c0d,2024-11-13_11h22.55.530,Tarea de género gramatical,2024.2.2,Win32,18.01801802,,,,,,,,,,,,,,,,,,,,,,,390.6575,391.8302,a,1,[],[],[],[],[],[],[],0.454,1,391.8303,392.2903,,,,,,1095,FEM,CON,150,pared,,a,0.454,,392.2909,392.2918,-0.252777778,0.074074074,0,0,0,,0,141,141,194,1,,,
,,,,,,a1fd1ece6aad82d8c313b5ad,66a626ef09d4e21e1a8894ec,6734e0450abcbf6acae86c0d,2024-11-13_11h22.55.530,Tarea de género gramatical,2024.2.2,Win32,18.01801802,,,,,,,,,,,,,,,,,,,,,,,392.2922,393.5096,a,1,[],[],[],[],[],[],[],0.4834,1,393.5096,393.9975,,,,,,944,FEM,AGR,150,zona,la,a,0.4834,,393.9975,393.9976,-0.252777778,0.074074074,0,0,0,,0,142,142,43,1,,,
,,,,,,a1fd1ece6aad82d8c313b5ad,66a626ef09d4e21e1a8894ec,6734e0450abcbf6acae86c0d,2024-11-13_11h22.55.530,Tarea de género gramatical,2024.2.2,Win32,18.01801802,,,,,,,,,,,,,,,,,,,,,,,393.9981,395.195,l,1,[],[],[],[],[],[],[],0.4587,1,395.1951,395.6562,,,,,,960,MAS,CON,150,tono,,l,0.4587,,395.6562,395.6562,-0.252777778,0.074074074,0,0,0,,0,143,143,59,1,,,
,,,,,,a1fd1ece6aad82d8c313b5ad,66a626ef09d4e21e1a8894ec,6734e0450abcbf6acae86c0d,2024-11-13_11h22.55.530,Tarea de género gramatical,2024.2.2,Win32,18.01801802,,,,,,,,,,,,,,,,,,,,,,,395.6568,396.7925,l,1,[],[],[],[],[],[],[],0.4064,1,396.7925,397.2506,,,,,,1210,MAS,DIS,150,nombre,la,l,0.4064,,397.2506,397.2507,-0.252777778,0.074074074,0,0,0,,0,144,144,309,1,,,
,,,,,,a1fd1ece6aad82d8c313b5ad,66a626ef09d4e21e1a8894ec,6734e0450abcbf6acae86c0d,2024-11-13_11h22.55.530,Tarea de género gramatical,2024.2.2,Win32,18.01801802,,,,,,,,,,,,,,,,,,,,,,,397.2512,398.2931,a,1,[],[],[],[],[],[],[],0.2726,1,398.2931,398.7607,,,,,,1053,FEM,CON,150,mujer,,a,0.2726,,398.7607,398.7607,-0.252777778,0.074074074,0,0,0,,0,145,145,152,1,,,
,,,,,,a1fd1ece6aad82d8c313b5ad,66a626ef09d4e21e1a8894ec,6734e0450abcbf6acae86c0d,2024-11-13_11h22.55.530,Tarea de género gramatical,2024.2.2,Win32,18.01801802,,,,,,,,,,,,,,,,,,,,,,,398.7613,399.9164,a,1,[],[],[],[],[],[],[],0.4323,1,399.9164,400.3832,,,,,,1100,FEM,AGR,150,silla,la,a,0.4323,,400.3839,400.3848,-0.252777778,0.074074074,0,0,0,,0,146,146,199,1,,,
,,,,,,a1fd1ece6aad82d8c313b5ad,66a626ef09d4e21e1a8894ec,6734e0450abcbf6acae86c0d,2024-11-13_11h22.55.530,Tarea de género gramatical,2024.2.2,Win32,18.01801802,,,,,,,,,,,,,,,,,,,,,,,400.3852,401.6183,l,1,[],[],[],[],[],[],[],0.4735,1,401.6184,402.0807,,,,,,1223,MAS,AGR,150,marido,el,l,0.4735,,402.0807,402.0808,-0.252777778,0.074074074,0,0,0,,0,147,147,322,1,,,
,,,,,,a1fd1ece6aad82d8c313b5ad,66a626ef09d4e21e1a8894ec,6734e0450abcbf6acae86c0d,2024-11-13_11h22.55.530,Tarea de género gramatical,2024.2.2,Win32,18.01801802,,,,,,,,,,,,,,,,,,,,,,,402.0813,403.2266,a,1,[],[],[],[],[],[],[],0.4093,1,403.2266,403.7421,,,,,,945,FEM,CON,150,isla,,a,0.4093,,403.7421,403.7422,-0.252777778,0.074074074,0,0,0,,0,148,148,44,1,,,
,,,,,,a1fd1ece6aad82d8c313b5ad,66a626ef09d4e21e1a8894ec,6734e0450abcbf6acae86c0d,2024-11-13_11h22.55.530,Tarea de género gramatical,2024.2.2,Win32,18.01801802,,,,,,,,,,,,,,,,,,,,,,,403.7427,404.8537,l,1,[],[],[],[],[],[],[],0.3285,1,404.8538,405.3249,,,,,,1079,MAS,AGR,150,viaje,el,l,0.3285,,405.3249,405.3249,-0.252777778,0.074074074,0,0,0,,0,149,149,178,1,,,
,,,,,,a1fd1ece6aad82d8c313b5ad,66a626ef09d4e21e1a8894ec,6734e0450abcbf6acae86c0d,2024-11-13_11h22.55.530,Tarea de género gramatical,2024.2.2,Win32,18.01801802,,,,,,,,,,,,,,,,,,,,,,,405.3254,406.4194,a,1,[],[],[],[],[],[],[],0.378,1,406.4195,406.94,,,,,,1065,FEM,CON,150,amiga,,a,0.378,,406.9406,463.9892,-0.027777778,-0.402777778,1,0,0,,0,150,150,164,1,break_done_button,,
,,,,,,a1fd1ece6aad82d8c313b5ad,66a626ef09d4e21e1a8894ec,6734e0450abcbf6acae86c0d,2024-11-13_11h22.55.530,Tarea de género gramatical,2024.2.2,Win32,18.01801802,,,,,,,,,,,,,,,,,,,,,,,463.99,466.6484,,0,[],[],[],[],[],[],[],0.378,-1,466.6489,467.1272,,,,,,1099,FEM,DIS,150,nariz,el,a,,,467.1272,467.1273,0.134259259,0.055555556,0,0,0,,0,151,151,198,1,,,
,,,,,,a1fd1ece6aad82d8c313b5ad,66a626ef09d4e21e1a8894ec,6734e0450abcbf6acae86c0d,2024-11-13_11h22.55.530,Tarea de género gramatical,2024.2.2,Win32,18.01801802,,,,,,,,,,,,,,,,,,,,,,,467.1279,468.5656,a,1,[],[],[],[],[],[],[],0.6576,1,468.566,469.0388,,,,,,951,FEM,CON,150,bala,,a,0.6576,,469.0388,469.0388,0.134259259,0.055555556,0,0,0,,0,152,152,50,1,,,
,,,,,,a1fd1ece6aad82d8c313b5ad,66a626ef09d4e21e1a8894ec,6734e0450abcbf6acae86c0d,2024-11-13_11h22.55.530,Tarea de género gramatical,2024.2.2,Win32,18.01801802,,,,,,,,,,,,,,,,,,,,,,,469.0394,470.1667,l,1,[],[],[],[],[],[],[],0.4069,1,470.1668,470.6406,,,,,,1001,MAS,AGR,150,giro,el,l,0.4069,,470.6406,470.6407,0.134259259,0.055555556,0,0,0,,0,153,153,100,1,,,
,,,,,,a1fd1ece6aad82d8c313b5ad,66a626ef09d4e21e1a8894ec,6734e0450abcbf6acae86c0d,2024-11-13_11h22.55.530,Tarea de género gramatical,2024.2.2,Win32,18.01801802,,,,,,,,,,,,,,,,,,,,,,,470.6412,471.7239,l,1,[],[],[],[],[],[],[],0.3046,1,471.724,472.1952,,,,,,947,MAS,AGR,150,olor,el,l,0.3046,,472.1954,472.1954,0.134259259,0.055555556,0,0,0,,0,154,154,46,1,,,
,,,,,,a1fd1ece6aad82d8c313b5ad,66a626ef09d4e21e1a8894ec,6734e0450abcbf6acae86c0d,2024-11-13_11h22.55.530,Tarea de género gramatical,2024.2.2,Win32,18.01801802,,,,,,,,,,,,,,,,,,,,,,,472.196,473.3819,l,1,[],[],[],[],[],[],[],0.4376,1,473.382,473.8841,,,,,,1078,MAS,DIS,150,punto,la,l,0.4376,,473.8847,473.8856,0.134259259,0.055555556,0,0,0,,0,155,155,177,1,,,
,,,,,,a1fd1ece6aad82d8c313b5ad,66a626ef09d4e21e1a8894ec,6734e0450abcbf6acae86c0d,2024-11-13_11h22.55.530,Tarea de género gramatical,2024.2.2,Win32,18.01801802,,,,,,,,,,,,,,,,,,,,,,,473.8859,475.0516,l,1,[],[],[],[],[],[],[],0.3998,1,475.0516,475.5216,,,,,,1074,MAS,CON,150,perro,,l,0.3998,,475.5216,475.5216,0.134259259,0.055555556,0,0,0,,0,156,156,173,1,,,
,,,,,,a1fd1ece6aad82d8c313b5ad,66a626ef09d4e21e1a8894ec,6734e0450abcbf6acae86c0d,2024-11-13_11h22.55.530,Tarea de género gramatical,2024.2.2,Win32,18.01801802,,,,,,,,,,,,,,,,,,,,,,,475.5221,476.6266,a,1,[],[],[],[],[],[],[],0.4014,1,476.6266,477.0812,,,,,,1286,FEM,AGR,150,sombra,la,a,0.4014,,477.0812,477.0812,0.134259259,0.055555556,0,0,0,,0,157,157,385,1,,,
,,,,,,a1fd1ece6aad82d8c313b5ad,66a626ef09d4e21e1a8894ec,6734e0450abcbf6acae86c0d,2024-11-13_11h22.55.530,Tarea de género gramatical,2024.2.2,Win32,18.01801802,,,,,,,,,,,,,,,,,,,,,,,477.0818,478.3399,a,1,[],[],[],[],[],[],[],0.5231,1,478.3399,478.7942,,,,,,1250,FEM,AGR,150,imagen,la,a,0.5231,,478.7942,478.7943,0.134259259,0.055555556,0,0,0,,0,158,158,349,1,,,
,,,,,,a1fd1ece6aad82d8c313b5ad,66a626ef09d4e21e1a8894ec,6734e0450abcbf6acae86c0d,2024-11-13_11h22.55.530,Tarea de género gramatical,2024.2.2,Win32,18.01801802,,,,,,,,,,,,,,,,,,,,,,,478.7948,479.9225,a,1,[],[],[],[],[],[],[],0.4059,1,479.9225,480.4178,,,,,,1298,FEM,AGR,150,hierba,la,a,0.4059,,480.4184,480.4194,0.134259259,0.055555556,0,0,0,,0,159,159,397,1,,,
,,,,,,a1fd1ece6aad82d8c313b5ad,66a626ef09d4e21e1a8894ec,6734e0450abcbf6acae86c0d,2024-11-13_11h22.55.530,Tarea de género gramatical,2024.2.2,Win32,18.01801802,,,,,,,,,,,,,,,,,,,,,,,480.4197,481.6045,l,0,[],[],[],[],[],[],[],0.4682,0,481.6048,482.111,,,,,,1207,FEM,DIS,150,suerte,el,a,0.4682,,482.111,482.111,0.134259259,0.055555556,0,0,0,,0,160,160,306,1,,,
,,,,,,a1fd1ece6aad82d8c313b5ad,66a626ef09d4e21e1a8894ec,6734e0450abcbf6acae86c0d,2024-11-13_11h22.55.530,Tarea de género gramatical,2024.2.2,Win32,18.01801802,,,,,,,,,,,,,,,,,,,,,,,482.1116,483.5689,l,1,[],[],[],[],[],[],[],0.7305,1,483.5693,484.02,,,,,,940,MAS,DIS,150,dios,la,l,0.7305,,484.02,484.0201,0.134259259,0.055555556,0,0,0,,0,161,161,39,1,,,
,,,,,,a1fd1ece6aad82d8c313b5ad,66a626ef09d4e21e1a8894ec,6734e0450abcbf6acae86c0d,2024-11-13_11h22.55.530,Tarea de género gramatical,2024.2.2,Win32,18.01801802,,,,,,,,,,,,,,,,,,,,,,,484.0205,485.5151,a,0,[],[],[],[],[],[],[],0.7798,0,485.5156,485.9785,,,,,,1332,MAS,CON,150,océano,,l,0.7798,,485.9786,485.9786,0.134259259,0.055555556,0,0,0,,0,162,162,431,1,,,
,,,,,,a1fd1ece6aad82d8c313b5ad,66a626ef09d4e21e1a8894ec,6734e0450abcbf6acae86c0d,2024-11-13_11h22.55.530,Tarea de género gramatical,2024.2.2,Win32,18.01801802,,,,,,,,,,,,,,,,,,,,,,,485.9793,487.2731,l,1,[],[],[],[],[],[],[],0.5672,1,487.2736,487.7808,,,,,,1127,MAS,AGR,150,vuelo,el,l,0.5672,,487.7808,487.7809,0.134259259,0.055555556,0,0,0,,0,163,163,226,1,,,
,,,,,,a1fd1ece6aad82d8c313b5ad,66a626ef09d4e21e1a8894ec,6734e0450abcbf6acae86c0d,2024-11-13_11h22.55.530,Tarea de género gramatical,2024.2.2,Win32,18.01801802,,,,,,,,,,,,,,,,,,,,,,,487.7815,488.9431,l,1,[],[],[],[],[],[],[],0.4454,1,488.9432,489.4055,,,,,,1259,MAS,AGR,150,bosque,el,l,0.4454,,489.4062,489.4071,0.134259259,0.055555556,0,0,0,,0,164,164,358,1,,,
,,,,,,a1fd1ece6aad82d8c313b5ad,66a626ef09d4e21e1a8894ec,6734e0450abcbf6acae86c0d,2024-11-13_11h22.55.530,Tarea de género gramatical,2024.2.2,Win32,18.01801802,,,,,,,,,,,,,,,,,,,,,,,489.4074,490.4527,l,1,[],[],[],[],[],[],[],0.3208,1,490.4527,490.9292,,,,,,1085,MAS,AGR,150,sueño,el,l,0.3208,,490.9292,490.9293,0.134259259,0.055555556,0,0,0,,0,165,165,184,1,,,
,,,,,,a1fd1ece6aad82d8c313b5ad,66a626ef09d4e21e1a8894ec,6734e0450abcbf6acae86c0d,2024-11-13_11h22.55.530,Tarea de género gramatical,2024.2.2,Win32,18.01801802,,,,,,,,,,,,,,,,,,,,,,,490.9298,492.0192,l,1,[],[],[],[],[],[],[],0.3487,1,492.0192,492.5125,,,,,,965,MAS,AGR,150,rayo,el,l,0.3487,,492.5126,492.5126,0.134259259,0.055555556,0,0,0,,0,166,166,64,1,,,
,,,,,,a1fd1ece6aad82d8c313b5ad,66a626ef09d4e21e1a8894ec,6734e0450abcbf6acae86c0d,2024-11-13_11h22.55.530,Tarea de género gramatical,2024.2.2,Win32,18.01801802,,,,,,,,,,,,,,,,,,,,,,,492.5132,493.6558,a,1,[],[],[],[],[],[],[],0.4114,1,493.6558,494.1142,,,,,,1160,FEM,AGR,150,barra,la,a,0.4114,,494.1142,494.1143,0.134259259,0.055555556,0,0,0,,0,167,167,259,1,,,
,,,,,,a1fd1ece6aad82d8c313b5ad,66a626ef09d4e21e1a8894ec,6734e0450abcbf6acae86c0d,2024-11-13_11h22.55.530,Tarea de género gramatical,2024.2.2,Win32,18.01801802,,,,,,,,,,,,,,,,,,,,,,,494.1148,495.281,l,1,[],[],[],[],[],[],[],0.4457,1,495.2811,495.75,,,,,,983,MAS,AGR,150,nene,el,l,0.4457,,495.7507,495.7516,0.134259259,0.055555556,0,0,0,,0,168,168,82,1,,,
,,,,,,a1fd1ece6aad82d8c313b5ad,66a626ef09d4e21e1a8894ec,6734e0450abcbf6acae86c0d,2024-11-13_11h22.55.530,Tarea de género gramatical,2024.2.2,Win32,18.01801802,,,,,,,,,,,,,,,,,,,,,,,495.7519,496.9336,l,1,[],[],[],[],[],[],[],0.4062,1,496.9337,497.393,,,,,,1037,MAS,AGR,150,coco,el,l,0.4062,,497.393,497.393,0.134259259,0.055555556,0,0,0,,0,169,169,136,1,,,
,,,,,,a1fd1ece6aad82d8c313b5ad,66a626ef09d4e21e1a8894ec,6734e0450abcbf6acae86c0d,2024-11-13_11h22.55.530,Tarea de género gramatical,2024.2.2,Win32,18.01801802,,,,,,,,,,,,,,,,,,,,,,,497.3936,498.4547,l,1,[],[],[],[],[],[],[],0.3338,1,498.4548,498.9116,,,,,,1344,MAS,CON,150,límite,,l,0.3338,,498.9116,498.9117,0.134259259,0.055555556,0,0,0,,0,170,170,443,1,,,
,,,,,,a1fd1ece6aad82d8c313b5ad,66a626ef09d4e21e1a8894ec,6734e0450abcbf6acae86c0d,2024-11-13_11h22.55.530,Tarea de género gramatical,2024.2.2,Win32,18.01801802,,,,,,,,,,,,,,,,,,,,,,,498.9122,499.9785,l,1,[],[],[],[],[],[],[],0.3485,1,499.9785,500.498,,,,,,1312,MAS,DIS,150,espejo,la,l,0.3485,,500.4981,500.4982,0.134259259,0.055555556,0,0,0,,0,171,171,411,1,,,
,,,,,,a1fd1ece6aad82d8c313b5ad,66a626ef09d4e21e1a8894ec,6734e0450abcbf6acae86c0d,2024-11-13_11h22.55.530,Tarea de género gramatical,2024.2.2,Win32,18.01801802,,,,,,,,,,,,,,,,,,,,,,,500.4987,501.6904,l,1,[],[],[],[],[],[],[],0.415,1,501.6905,502.2093,,,,,,959,MAS,AGR,150,lobo,el,l,0.415,,502.2093,502.2093,0.134259259,0.055555556,0,0,0,,0,172,172,58,1,,,
,,,,,,a1fd1ece6aad82d8c313b5ad,66a626ef09d4e21e1a8894ec,6734e0450abcbf6acae86c0d,2024-11-13_11h22.55.530,Tarea de género gramatical,2024.2.2,Win32,18.01801802,,,,,,,,,,,,,,,,,,,,,,,502.2098,503.4493,l,1,[],[],[],[],[],[],[],0.5084,1,503.4493,503.9095,,,,,,1266,MAS,CON,150,riesgo,,l,0.5084,,503.9101,503.9111,0.134259259,0.055555556,0,0,0,,0,173,173,365,1,,,
,,,,,,a1fd1ece6aad82d8c313b5ad,66a626ef09d4e21e1a8894ec,6734e0450abcbf6acae86c0d,2024-11-13_11h22.55.530,Tarea de género gramatical,2024.2.2,Win32,18.01801802,,,,,,,,,,,,,,,,,,,,,,,503.9113,505.0255,a,1,[],[],[],[],[],[],[],0.3372,1,505.0256,505.4835,,,,,,921,FEM,CON,150,boca,,a,0.3372,,505.4835,505.4835,0.134259259,0.055555556,0,0,0,,0,174,174,20,1,,,
,,,,,,a1fd1ece6aad82d8c313b5ad,66a626ef09d4e21e1a8894ec,6734e0450abcbf6acae86c0d,2024-11-13_11h22.55.530,Tarea de género gramatical,2024.2.2,Win32,18.01801802,,,,,,,,,,,,,,,,,,,,,,,505.4841,506.6853,a,1,[],[],[],[],[],[],[],0.4676,1,506.6854,507.1548,,,,,,1274,FEM,AGR,150,herida,la,a,0.4676,,507.1549,507.1549,0.134259259,0.055555556,0,0,0,,0,175,175,373,1,,,
,,,,,,a1fd1ece6aad82d8c313b5ad,66a626ef09d4e21e1a8894ec,6734e0450abcbf6acae86c0d,2024-11-13_11h22.55.530,Tarea de género gramatical,2024.2.2,Win32,18.01801802,,,,,,,,,,,,,,,,,,,,,,,507.1554,508.2382,a,1,[],[],[],[],[],[],[],0.3269,1,508.2382,508.7542,,,,,,969,FEM,CON,150,rata,,a,0.3269,,508.7542,508.7543,0.134259259,0.055555556,0,0,0,,0,176,176,68,1,,,
,,,,,,a1fd1ece6aad82d8c313b5ad,66a626ef09d4e21e1a8894ec,6734e0450abcbf6acae86c0d,2024-11-13_11h22.55.530,Tarea de género gramatical,2024.2.2,Win32,18.01801802,,,,,,,,,,,,,,,,,,,,,,,508.7548,509.963,a,0,[],[],[],[],[],[],[],0.4765,0,509.9634,510.431,,,,,,1241,MAS,AGR,150,precio,el,l,0.4765,,510.4315,510.4325,0.134259259,0.055555556,0,0,0,,0,177,177,340,1,,,
,,,,,,a1fd1ece6aad82d8c313b5ad,66a626ef09d4e21e1a8894ec,6734e0450abcbf6acae86c0d,2024-11-13_11h22.55.530,Tarea de género gramatical,2024.2.2,Win32,18.01801802,,,,,,,,,,,,,,,,,,,,,,,510.4328,511.7033,a,1,[],[],[],[],[],[],[],0.539,1,511.7037,512.1753,,,,,,1275,FEM,CON,150,cadena,,a,0.539,,512.1753,512.1753,0.134259259,0.055555556,0,0,0,,0,178,178,374,1,,,
,,,,,,a1fd1ece6aad82d8c313b5ad,66a626ef09d4e21e1a8894ec,6734e0450abcbf6acae86c0d,2024-11-13_11h22.55.530,Tarea de género gramatical,2024.2.2,Win32,18.01801802,,,,,,,,,,,,,,,,,,,,,,,512.1758,513.3002,a,1,[],[],[],[],[],[],[],0.3982,1,513.3003,513.7848,,,,,,938,FEM,AGR,150,obra,la,a,0.3982,,513.7848,513.7849,0.134259259,0.055555556,0,0,0,,0,179,179,37,1,,,
,,,,,,a1fd1ece6aad82d8c313b5ad,66a626ef09d4e21e1a8894ec,6734e0450abcbf6acae86c0d,2024-11-13_11h22.55.530,Tarea de género gramatical,2024.2.2,Win32,18.01801802,,,,,,,,,,,,,,,,,,,,,,,513.7854,514.9949,a,0,[],[],[],[],[],[],[],0.4746,0,514.9953,515.4633,,,,,,1242,MAS,CON,150,abuelo,,l,0.4746,,515.4634,515.4634,0.134259259,0.055555556,0,0,0,,0,180,180,341,1,,,
,,,,,,a1fd1ece6aad82d8c313b5ad,66a626ef09d4e21e1a8894ec,6734e0450abcbf6acae86c0d,2024-11-13_11h22.55.530,Tarea de género gramatical,2024.2.2,Win32,18.01801802,,,,,,,,,,,,,,,,,,,,,,,515.4639,516.7936,a,1,[],[],[],[],[],[],[],0.5947,1,516.794,517.3054,,,,,,1201,FEM,DIS,150,verdad,el,a,0.5947,,517.3055,517.3055,0.134259259,0.055555556,0,0,0,,0,181,181,300,1,,,
,,,,,,a1fd1ece6aad82d8c313b5ad,66a626ef09d4e21e1a8894ec,6734e0450abcbf6acae86c0d,2024-11-13_11h22.55.530,Tarea de género gramatical,2024.2.2,Win32,18.01801802,,,,,,,,,,,,,,,,,,,,,,,517.306,518.5146,a,1,[],[],[],[],[],[],[],0.4765,1,518.5147,518.9659,,,,,,908,FEM,AGR,150,idea,la,a,0.4765,,518.9666,518.9675,0.134259259,0.055555556,0,0,0,,0,182,182,7,1,,,
,,,,,,a1fd1ece6aad82d8c313b5ad,66a626ef09d4e21e1a8894ec,6734e0450abcbf6acae86c0d,2024-11-13_11h22.55.530,Tarea de género gramatical,2024.2.2,Win32,18.01801802,,,,,,,,,,,,,,,,,,,,,,,518.9678,520.1557,a,1,[],[],[],[],[],[],[],0.4597,1,520.1557,520.6199,,,,,,1304,FEM,AGR,150,gloria,la,a,0.4597,,520.6199,520.62,0.134259259,0.055555556,0,0,0,,0,183,183,403,1,,,
,,,,,,a1fd1ece6aad82d8c313b5ad,66a626ef09d4e21e1a8894ec,6734e0450abcbf6acae86c0d,2024-11-13_11h22.55.530,Tarea de género gramatical,2024.2.2,Win32,18.01801802,,,,,,,,,,,,,,,,,,,,,,,520.6206,521.8243,l,1,[],[],[],[],[],[],[],0.4781,1,521.8244,522.2914,,,,,,952,MAS,DIS,150,lago,la,l,0.4781,,522.2914,522.2915,0.134259259,0.055555556,0,0,0,,0,184,184,51,1,,,
,,,,,,a1fd1ece6aad82d8c313b5ad,66a626ef09d4e21e1a8894ec,6734e0450abcbf6acae86c0d,2024-11-13_11h22.55.530,Tarea de género gramatical,2024.2.2,Win32,18.01801802,,,,,,,,,,,,,,,,,,,,,,,522.292,523.4259,l,1,[],[],[],[],[],[],[],0.4061,1,523.4259,523.9002,,,,,,1092,MAS,CON,150,grupo,,l,0.4061,,523.9003,523.9003,0.134259259,0.055555556,0,0,0,,0,185,185,191,1,,,
,,,,,,a1fd1ece6aad82d8c313b5ad,66a626ef09d4e21e1a8894ec,6734e0450abcbf6acae86c0d,2024-11-13_11h22.55.530,Tarea de género gramatical,2024.2.2,Win32,18.01801802,,,,,,,,,,,,,,,,,,,,,,,523.901,525.0252,l,1,[],[],[],[],[],[],[],0.4125,1,525.0253,525.4811,,,,,,904,MAS,DIS,150,hijo,la,l,0.4125,,525.4817,525.4826,0.134259259,0.055555556,0,0,0,,0,186,186,3,1,,,
,,,,,,a1fd1ece6aad82d8c313b5ad,66a626ef09d4e21e1a8894ec,6734e0450abcbf6acae86c0d,2024-11-13_11h22.55.530,Tarea de género gramatical,2024.2.2,Win32,18.01801802,,,,,,,,,,,,,,,,,,,,,,,525.483,526.6099,l,1,[],[],[],[],[],[],[],0.4093,1,526.6099,527.0713,,,,,,1330,MAS,DIS,150,título,la,l,0.4093,,527.0713,527.0714,0.134259259,0.055555556,0,0,0,,0,187,187,429,1,,,
,,,,,,a1fd1ece6aad82d8c313b5ad,66a626ef09d4e21e1a8894ec,6734e0450abcbf6acae86c0d,2024-11-13_11h22.55.530,Tarea de género gramatical,2024.2.2,Win32,18.01801802,,,,,,,,,,,,,,,,,,,,,,,527.0718,528.2309,a,1,[],[],[],[],[],[],[],0.4101,1,528.231,528.6962,,,,,,1011,FEM,CON,150,goma,,a,0.4101,,528.6962,528.6962,0.134259259,0.055555556,0,0,0,,0,188,188,110,1,,,
,,,,,,a1fd1ece6aad82d8c313b5ad,66a626ef09d4e21e1a8894ec,6734e0450abcbf6acae86c0d,2024-11-13_11h22.55.530,Tarea de género gramatical,2024.2.2,Win32,18.01801802,,,,,,,,,,,,,,,,,,,,,,,528.6968,529.95,a,1,[],[],[],[],[],[],[],0.5166,1,529.95,530.4201,,,,,,1244,FEM,AGR,150,pareja,la,a,0.5166,,530.4201,530.4203,0.134259259,0.055555556,0,0,0,,0,189,189,343,1,,,
,,,,,,a1fd1ece6aad82d8c313b5ad,66a626ef09d4e21e1a8894ec,6734e0450abcbf6acae86c0d,2024-11-13_11h22.55.530,Tarea de género gramatical,2024.2.2,Win32,18.01801802,,,,,,,,,,,,,,,,,,,,,,,530.4208,531.8733,l,1,[],[],[],[],[],[],[],0.7327,1,531.8734,532.344,,,,,,1122,MAS,CON,150,valor,,l,0.7327,,532.344,532.3441,0.134259259,0.055555556,0,0,0,,0,190,190,221,1,,,
,,,,,,a1fd1ece6aad82d8c313b5ad,66a626ef09d4e21e1a8894ec,6734e0450abcbf6acae86c0d,2024-11-13_11h22.55.530,Tarea de género gramatical,2024.2.2,Win32,18.01801802,,,,,,,,,,,,,,,,,,,,,,,532.3446,533.6852,a,1,[],[],[],[],[],[],[],0.611,1,533.6852,534.1854,,,,,,1279,FEM,DIS,150,granja,el,a,0.611,,534.186,534.187,0.134259259,0.055555556,0,0,0,,0,191,191,378,1,,,
,,,,,,a1fd1ece6aad82d8c313b5ad,66a626ef09d4e21e1a8894ec,6734e0450abcbf6acae86c0d,2024-11-13_11h22.55.530,Tarea de género gramatical,2024.2.2,Win32,18.01801802,,,,,,,,,,,,,,,,,,,,,,,534.1873,535.3539,l,1,[],[],[],[],[],[],[],0.4472,1,535.3539,535.8153,,,,,,1036,MAS,DIS,150,vago,la,l,0.4472,,535.8153,535.8154,0.134259259,0.055555556,0,0,0,,0,192,192,135,1,,,
,,,,,,a1fd1ece6aad82d8c313b5ad,66a626ef09d4e21e1a8894ec,6734e0450abcbf6acae86c0d,2024-11-13_11h22.55.530,Tarea de género gramatical,2024.2.2,Win32,18.01801802,,,,,,,,,,,,,,,,,,,,,,,535.8159,537.0715,l,1,[],[],[],[],[],[],[],0.5335,1,537.0716,537.534,,,,,,1229,MAS,AGR,150,futuro,el,l,0.5335,,537.534,537.5341,0.134259259,0.055555556,0,0,0,,0,193,193,328,1,,,
,,,,,,a1fd1ece6aad82d8c313b5ad,66a626ef09d4e21e1a8894ec,6734e0450abcbf6acae86c0d,2024-11-13_11h22.55.530,Tarea de género gramatical,2024.2.2,Win32,18.01801802,,,,,,,,,,,,,,,,,,,,,,,537.5347,538.6781,a,1,[],[],[],[],[],[],[],0.3809,1,538.6782,539.1392,,,,,,1328,FEM,AGR,150,jugada,la,a,0.3809,,539.1392,539.1393,0.134259259,0.055555556,0,0,0,,0,194,194,427,1,,,
,,,,,,a1fd1ece6aad82d8c313b5ad,66a626ef09d4e21e1a8894ec,6734e0450abcbf6acae86c0d,2024-11-13_11h22.55.530,Tarea de género gramatical,2024.2.2,Win32,18.01801802,,,,,,,,,,,,,,,,,,,,,,,539.1398,540.3831,a,1,[],[],[],[],[],[],[],0.5293,1,540.3832,540.8549,,,,,,1346,FEM,AGR,150,bañera,la,a,0.5293,,540.8555,540.8564,0.134259259,0.055555556,0,0,0,,0,195,195,445,1,,,
,,,,,,a1fd1ece6aad82d8c313b5ad,66a626ef09d4e21e1a8894ec,6734e0450abcbf6acae86c0d,2024-11-13_11h22.55.530,Tarea de género gramatical,2024.2.2,Win32,18.01801802,,,,,,,,,,,,,,,,,,,,,,,540.8567,542.0629,l,1,[],[],[],[],[],[],[],0.4781,1,542.0629,542.5228,,,,,,970,MAS,DIS,150,palo,la,l,0.4781,,542.5229,542.5229,0.134259259,0.055555556,0,0,0,,0,196,196,69,1,,,
,,,,,,a1fd1ece6aad82d8c313b5ad,66a626ef09d4e21e1a8894ec,6734e0450abcbf6acae86c0d,2024-11-13_11h22.55.530,Tarea de género gramatical,2024.2.2,Win32,18.01801802,,,,,,,,,,,,,,,,,,,,,,,542.5235,543.875,a,1,[],[],[],[],[],[],[],0.5723,1,543.8751,544.3445,,,,,,1203,FEM,CON,150,maldad,,a,0.5723,,544.3445,544.3446,0.134259259,0.055555556,0,0,0,,0,197,197,302,1,,,
,,,,,,a1fd1ece6aad82d8c313b5ad,66a626ef09d4e21e1a8894ec,6734e0450abcbf6acae86c0d,2024-11-13_11h22.55.530,Tarea de género gramatical,2024.2.2,Win32,18.01801802,,,,,,,,,,,,,,,,,,,,,,,544.3452,545.4028,l,1,[],[],[],[],[],[],[],0.3277,1,545.4029,545.9232,,,,,,1139,MAS,AGR,150,reloj,el,l,0.3277,,545.9232,545.9233,0.134259259,0.055555556,0,0,0,,0,198,198,238,1,,,
,,,,,,a1fd1ece6aad82d8c313b5ad,66a626ef09d4e21e1a8894ec,6734e0450abcbf6acae86c0d,2024-11-13_11h22.55.530,Tarea de género gramatical,2024.2.2,Win32,18.01801802,,,,,,,,,,,,,,,,,,,,,,,545.9238,547.0706,a,1,[],[],[],[],[],[],[],0.408,1,547.0707,547.5293,,,,,,1310,FEM,AGR,150,piedad,la,a,0.408,,547.5293,547.5294,0.134259259,0.055555556,0,0,0,,0,199,199,409,1,,,
,,,,,,a1fd1ece6aad82d8c313b5ad,66a626ef09d4e21e1a8894ec,6734e0450abcbf6acae86c0d,2024-11-13_11h22.55.530,Tarea de género gramatical,2024.2.2,Win32,18.01801802,,,,,,,,,,,,,,,,,,,,,,,547.5299,548.7796,l,1,[],[],[],[],[],[],[],0.54,1,548.7797,549.2438,,,,,,1240,MAS,DIS,150,pasado,la,l,0.54,,549.2445,549.2454,0.134259259,0.055555556,0,0,0,,0,200,200,339,1,,,
,,,,,,a1fd1ece6aad82d8c313b5ad,66a626ef09d4e21e1a8894ec,6734e0450abcbf6acae86c0d,2024-11-13_11h22.55.530,Tarea de género gramatical,2024.2.2,Win32,18.01801802,,,,,,,,,,,,,,,,,,,,,,,549.2457,550.3428,a,0,[],[],[],[],[],[],[],0.3239,0,550.3433,550.8122,,,,,,1216,MAS,DIS,150,cuerpo,la,l,0.3239,,550.8122,550.8122,0.134259259,0.055555556,0,0,0,,0,201,201,315,1,,,
,,,,,,a1fd1ece6aad82d8c313b5ad,66a626ef09d4e21e1a8894ec,6734e0450abcbf6acae86c0d,2024-11-13_11h22.55.530,Tarea de género gramatical,2024.2.2,Win32,18.01801802,,,,,,,,,,,,,,,,,,,,,,,550.8129,552.0746,l,1,[],[],[],[],[],[],[],0.5413,1,552.0751,552.578,,,,,,1278,MAS,CON,150,pastel,,l,0.5413,,552.5781,552.5781,0.134259259,0.055555556,0,0,0,,0,202,202,377,1,,,
,,,,,,a1fd1ece6aad82d8c313b5ad,66a626ef09d4e21e1a8894ec,6734e0450abcbf6acae86c0d,2024-11-13_11h22.55.530,Tarea de género gramatical,2024.2.2,Win32,18.01801802,,,,,,,,,,,,,,,,,,,,,,,552.5786,553.8902,a,1,[],[],[],[],[],[],[],0.5892,1,553.8902,554.3604,,,,,,1213,FEM,DIS,150,ciudad,el,a,0.5892,,554.3604,554.3605,0.134259259,0.055555556,0,0,0,,0,203,203,312,1,,,
,,,,,,a1fd1ece6aad82d8c313b5ad,66a626ef09d4e21e1a8894ec,6734e0450abcbf6acae86c0d,2024-11-13_11h22.55.530,Tarea de género gramatical,2024.2.2,Win32,18.01801802,,,,,,,,,,,,,,,,,,,,,,,554.361,555.4788,l,1,[],[],[],[],[],[],[],0.3966,1,555.4789,555.9324,,,,,,958,MAS,DIS,150,mono,la,l,0.3966,,555.9331,555.934,0.134259259,0.055555556,0,0,0,,0,204,204,57,1,,,
,,,,,,a1fd1ece6aad82d8c313b5ad,66a626ef09d4e21e1a8894ec,6734e0450abcbf6acae86c0d,2024-11-13_11h22.55.530,Tarea de género gramatical,2024.2.2,Win32,18.01801802,,,,,,,,,,,,,,,,,,,,,,,555.9344,557.1902,l,1,[],[],[],[],[],[],[],0.5344,1,557.1902,557.6575,,,,,,1302,MAS,CON,150,ladrón,,l,0.5344,,557.6575,557.6575,0.134259259,0.055555556,0,0,0,,0,205,205,401,1,,,
,,,,,,a1fd1ece6aad82d8c313b5ad,66a626ef09d4e21e1a8894ec,6734e0450abcbf6acae86c0d,2024-11-13_11h22.55.530,Tarea de género gramatical,2024.2.2,Win32,18.01801802,,,,,,,,,,,,,,,,,,,,,,,557.6582,559.0926,a,1,[],[],[],[],[],[],[],0.7224,1,559.0927,559.6059,,,,,,980,FEM,AGR,150,vaca,la,a,0.7224,,559.6059,559.606,0.134259259,0.055555556,0,0,0,,0,206,206,79,1,,,
,,,,,,a1fd1ece6aad82d8c313b5ad,66a626ef09d4e21e1a8894ec,6734e0450abcbf6acae86c0d,2024-11-13_11h22.55.530,Tarea de género gramatical,2024.2.2,Win32,18.01801802,,,,,,,,,,,,,,,,,,,,,,,559.6065,560.797,l,1,[],[],[],[],[],[],[],0.4616,1,560.7971,561.2961,,,,,,1296,MAS,CON,150,tesoro,,l,0.4616,,561.2962,561.2962,0.134259259,0.055555556,0,0,0,,0,207,207,395,1,,,
,,,,,,a1fd1ece6aad82d8c313b5ad,66a626ef09d4e21e1a8894ec,6734e0450abcbf6acae86c0d,2024-11-13_11h22.55.530,Tarea de género gramatical,2024.2.2,Win32,18.01801802,,,,,,,,,,,,,,,,,,,,,,,561.2967,562.5308,l,1,[],[],[],[],[],[],[],0.5103,1,562.5308,563.0292,,,,,,1000,MAS,DIS,150,nido,la,l,0.5103,,563.0292,563.0293,0.134259259,0.055555556,0,0,0,,0,208,208,99,1,,,
,,,,,,a1fd1ece6aad82d8c313b5ad,66a626ef09d4e21e1a8894ec,6734e0450abcbf6acae86c0d,2024-11-13_11h22.55.530,Tarea de género gramatical,2024.2.2,Win32,18.01801802,,,,,,,,,,,,,,,,,,,,,,,563.0299,564.1654,a,1,[],[],[],[],[],[],[],0.4173,1,564.1655,564.6231,,,,,,968,FEM,AGR,150,pata,la,a,0.4173,,564.6237,564.6246,0.134259259,0.055555556,0,0,0,,0,209,209,67,1,,,
,,,,,,a1fd1ece6aad82d8c313b5ad,66a626ef09d4e21e1a8894ec,6734e0450abcbf6acae86c0d,2024-11-13_11h22.55.530,Tarea de género gramatical,2024.2.2,Win32,18.01801802,,,,,,,,,,,,,,,,,,,,,,,564.625,565.8018,a,1,[],[],[],[],[],[],[],0.472,1,565.8018,566.2651,,,,,,1119,FEM,CON,150,costa,,a,0.472,,566.2651,566.2651,0.134259259,0.055555556,0,0,0,,0,210,210,218,1,,,
,,,,,,a1fd1ece6aad82d8c313b5ad,66a626ef09d4e21e1a8894ec,6734e0450abcbf6acae86c0d,2024-11-13_11h22.55.530,Tarea de género gramatical,2024.2.2,Win32,18.01801802,,,,,,,,,,,,,,,,,,,,,,,566.2657,567.518,l,1,[],[],[],[],[],[],[],0.5182,1,567.5181,567.9815,,,,,,1211,MAS,AGR,150,camino,el,l,0.5182,,567.9816,567.9816,0.134259259,0.055555556,0,0,0,,0,211,211,310,1,,,
,,,,,,a1fd1ece6aad82d8c313b5ad,66a626ef09d4e21e1a8894ec,6734e0450abcbf6acae86c0d,2024-11-13_11h22.55.530,Tarea de género gramatical,2024.2.2,Win32,18.01801802,,,,,,,,,,,,,,,,,,,,,,,567.9821,569.193,l,1,[],[],[],[],[],[],[],0.4539,1,569.1931,569.6706,,,,,,1313,MAS,AGR,150,diario,el,l,0.4539,,569.6706,569.6706,0.134259259,0.055555556,0,0,0,,0,212,212,412,1,,,
,,,,,,a1fd1ece6aad82d8c313b5ad,66a626ef09d4e21e1a8894ec,6734e0450abcbf6acae86c0d,2024-11-13_11h22.55.530,Tarea de género gramatical,2024.2.2,Win32,18.01801802,,,,,,,,,,,,,,,,,,,,,,,569.6712,570.9392,l,1,[],[],[],[],[],[],[],0.5465,1,570.9393,571.3981,,,,,,941,MAS,AGR,150,bote,el,l,0.5465,,571.3988,571.3997,0.134259259,0.055555556,0,0,0,,0,213,213,40,1,,,
,,,,,,a1fd1ece6aad82d8c313b5ad,66a626ef09d4e21e1a8894ec,6734e0450abcbf6acae86c0d,2024-11-13_11h22.55.530,Tarea de género gramatical,2024.2.2,Win32,18.01801802,,,,,,,,,,,,,,,,,,,,,,,571.4001,572.6736,l,1,[],[],[],[],[],[],[],0.5432,1,572.6738,573.1948,,,,,,1319,MAS,AGR,150,cuento,el,l,0.5432,,573.1948,573.1948,0.134259259,0.055555556,0,0,0,,0,214,214,418,1,,,
,,,,,,a1fd1ece6aad82d8c313b5ad,66a626ef09d4e21e1a8894ec,6734e0450abcbf6acae86c0d,2024-11-13_11h22.55.530,Tarea de género gramatical,2024.2.2,Win32,18.01801802,,,,,,,,,,,,,,,,,,,,,,,573.1954,574.3521,a,1,[],[],[],[],[],[],[],0.3985,1,574.3522,574.8269,,,,,,903,FEM,CON,150,cosa,,a,0.3985,,574.8269,574.827,0.134259259,0.055555556,0,0,0,,0,215,215,2,1,,,
,,,,,,a1fd1ece6aad82d8c313b5ad,66a626ef09d4e21e1a8894ec,6734e0450abcbf6acae86c0d,2024-11-13_11h22.55.530,Tarea de género gramatical,2024.2.2,Win32,18.01801802,,,,,,,,,,,,,,,,,,,,,,,574.8274,576.4241,l,1,[],[],[],[],[],[],[],0.8739,1,576.4242,576.8856,,,,,,906,MAS,CON,150,lado,,l,0.8739,,576.8856,576.8857,0.134259259,0.055555556,0,0,0,,0,216,216,5,1,,,
,,,,,,a1fd1ece6aad82d8c313b5ad,66a626ef09d4e21e1a8894ec,6734e0450abcbf6acae86c0d,2024-11-13_11h22.55.530,Tarea de género gramatical,2024.2.2,Win32,18.01801802,,,,,,,,,,,,,,,,,,,,,,,576.8865,578.2748,l,1,[],[],[],[],[],[],[],0.668,1,578.2748,578.7273,,,,,,1031,MAS,AGR,150,kilo,el,l,0.668,,578.7273,578.7274,0.134259259,0.055555556,0,0,0,,0,217,217,130,1,,,
,,,,,,a1fd1ece6aad82d8c313b5ad,66a626ef09d4e21e1a8894ec,6734e0450abcbf6acae86c0d,2024-11-13_11h22.55.530,Tarea de género gramatical,2024.2.2,Win32,18.01801802,,,,,,,,,,,,,,,,,,,,,,,578.7279,579.9155,l,1,[],[],[],[],[],[],[],0.4719,1,579.9156,580.3819,,,,,,976,MAS,DIS,150,lujo,la,l,0.4719,,580.3826,580.3835,0.134259259,0.055555556,0,0,0,,0,218,218,75,1,,,
,,,,,,a1fd1ece6aad82d8c313b5ad,66a626ef09d4e21e1a8894ec,6734e0450abcbf6acae86c0d,2024-11-13_11h22.55.530,Tarea de género gramatical,2024.2.2,Win32,18.01801802,,,,,,,,,,,,,,,,,,,,,,,580.3838,581.5561,a,1,[],[],[],[],[],[],[],0.4592,1,581.5561,582.0286,,,,,,1191,FEM,CON,150,aguja,,a,0.4592,,582.0287,582.0287,0.134259259,0.055555556,0,0,0,,0,219,219,290,1,,,
,,,,,,a1fd1ece6aad82d8c313b5ad,66a626ef09d4e21e1a8894ec,6734e0450abcbf6acae86c0d,2024-11-13_11h22.55.530,Tarea de género gramatical,2024.2.2,Win32,18.01801802,,,,,,,,,,,,,,,,,,,,,,,582.0293,583.2505,a,1,[],[],[],[],[],[],[],0.4815,1,583.2507,583.7118,,,,,,962,FEM,AGR,150,sopa,la,a,0.4815,,583.7119,583.7119,0.134259259,0.055555556,0,0,0,,0,220,220,61,1,,,
,,,,,,a1fd1ece6aad82d8c313b5ad,66a626ef09d4e21e1a8894ec,6734e0450abcbf6acae86c0d,2024-11-13_11h22.55.530,Tarea de género gramatical,2024.2.2,Win32,18.01801802,,,,,,,,,,,,,,,,,,,,,,,583.7125,585.0276,l,1,[],[],[],[],[],[],[],0.5944,1,585.0277,585.5511,,,,,,1026,MAS,CON,150,lazo,,l,0.5944,,585.5511,585.5511,0.134259259,0.055555556,0,0,0,,0,221,221,125,1,,,
,,,,,,a1fd1ece6aad82d8c313b5ad,66a626ef09d4e21e1a8894ec,6734e0450abcbf6acae86c0d,2024-11-13_11h22.55.530,Tarea de género gramatical,2024.2.2,Win32,18.01801802,,,,,,,,,,,,,,,,,,,,,,,585.5517,586.9556,l,1,[],[],[],[],[],[],[],0.6874,1,586.9557,587.4222,,,,,,1126,MAS,DIS,150,color,la,l,0.6874,,587.4229,587.4238,0.134259259,0.055555556,0,0,0,,0,222,222,225,1,,,
,,,,,,a1fd1ece6aad82d8c313b5ad,66a626ef09d4e21e1a8894ec,6734e0450abcbf6acae86c0d,2024-11-13_11h22.55.530,Tarea de género gramatical,2024.2.2,Win32,18.01801802,,,,,,,,,,,,,,,,,,,,,,,587.4242,588.5842,a,1,[],[],[],[],[],[],[],0.3944,1,588.5842,589.0431,,,,,,993,FEM,CON,150,lata,,a,0.3944,,589.0431,589.0432,0.134259259,0.055555556,0,0,0,,0,223,223,92,1,,,
,,,,,,a1fd1ece6aad82d8c313b5ad,66a626ef09d4e21e1a8894ec,6734e0450abcbf6acae86c0d,2024-11-13_11h22.55.530,Tarea de género gramatical,2024.2.2,Win32,18.01801802,,,,,,,,,,,,,,,,,,,,,,,589.0437,590.3237,a,1,[],[],[],[],[],[],[],0.5505,1,590.3237,590.7725,,,,,,1029,FEM,CON,150,rana,,a,0.5505,,590.7725,590.7727,0.134259259,0.055555556,0,0,0,,0,224,224,128,1,,,
,,,,,,a1fd1ece6aad82d8c313b5ad,66a626ef09d4e21e1a8894ec,6734e0450abcbf6acae86c0d,2024-11-13_11h22.55.530,Tarea de género gramatical,2024.2.2,Win32,18.01801802,,,,,,,,,,,,,,,,,,,,,,,590.7731,592.0259,l,1,[],[],[],[],[],[],[],0.5238,1,592.026,592.5619,,,,,,966,MAS,CON,150,muro,,l,0.5238,,592.5619,592.562,0.134259259,0.055555556,0,0,0,,0,225,225,65,1,,,
,,,,,,a1fd1ece6aad82d8c313b5ad,66a626ef09d4e21e1a8894ec,6734e0450abcbf6acae86c0d,2024-11-13_11h22.55.530,Tarea de género gramatical,2024.2.2,Win32,18.01801802,,,,,,,,,,,,,,,,,,,,,,,592.5625,593.7743,a,1,[],[],[],[],[],[],[],0.4754,1,593.7744,594.2435,,,,,,1173,FEM,CON,150,tarta,,a,0.4754,,594.2435,594.2436,0.134259259,0.055555556,0,0,0,,0,226,226,272,1,,,
,,,,,,a1fd1ece6aad82d8c313b5ad,66a626ef09d4e21e1a8894ec,6734e0450abcbf6acae86c0d,2024-11-13_11h22.55.530,Tarea de género gramatical,2024.2.2,Win32,18.01801802,,,,,,,,,,,,,,,,,,,,,,,594.2441,595.4639,l,1,[],[],[],[],[],[],[],0.4596,1,595.4639,595.9763,,,,,,1308,MAS,CON,150,cheque,,l,0.4596,,595.9769,595.9778,0.134259259,0.055555556,0,0,0,,0,227,227,407,1,,,
,,,,,,a1fd1ece6aad82d8c313b5ad,66a626ef09d4e21e1a8894ec,6734e0450abcbf6acae86c0d,2024-11-13_11h22.55.530,Tarea de género gramatical,2024.2.2,Win32,18.01801802,,,,,,,,,,,,,,,,,,,,,,,595.9782,597.1421,l,1,[],[],[],[],[],[],[],0.4301,1,597.1422,597.5975,,,,,,1182,MAS,CON,150,bolso,,l,0.4301,,597.5975,597.5976,0.134259259,0.055555556,0,0,0,,0,228,228,281,1,,,
,,,,,,a1fd1ece6aad82d8c313b5ad,66a626ef09d4e21e1a8894ec,6734e0450abcbf6acae86c0d,2024-11-13_11h22.55.530,Tarea de género gramatical,2024.2.2,Win32,18.01801802,,,,,,,,,,,,,,,,,,,,,,,597.5982,598.743,a,1,[],[],[],[],[],[],[],0.4208,1,598.7431,599.2186,,,,,,1124,FEM,AGR,150,arena,la,a,0.4208,,599.2186,599.2186,0.134259259,0.055555556,0,0,0,,0,229,229,223,1,,,
,,,,,,a1fd1ece6aad82d8c313b5ad,66a626ef09d4e21e1a8894ec,6734e0450abcbf6acae86c0d,2024-11-13_11h22.55.530,Tarea de género gramatical,2024.2.2,Win32,18.01801802,,,,,,,,,,,,,,,,,,,,,,,599.2193,600.4077,a,1,[],[],[],[],[],[],[],0.4669,1,600.4077,600.9244,,,,,,1183,FEM,DIS,150,pluma,el,a,0.4669,,600.9244,600.9245,0.134259259,0.055555556,0,0,0,,0,230,230,282,1,,,
,,,,,,a1fd1ece6aad82d8c313b5ad,66a626ef09d4e21e1a8894ec,6734e0450abcbf6acae86c0d,2024-11-13_11h22.55.530,Tarea de género gramatical,2024.2.2,Win32,18.01801802,,,,,,,,,,,,,,,,,,,,,,,600.925,602.1182,l,1,[],[],[],[],[],[],[],0.4816,1,602.1183,602.582,,,,,,1248,MAS,CON,150,anillo,,l,0.4816,,602.5826,602.5835,0.134259259,0.055555556,0,0,0,,0,231,231,347,1,,,
,,,,,,a1fd1ece6aad82d8c313b5ad,66a626ef09d4e21e1a8894ec,6734e0450abcbf6acae86c0d,2024-11-13_11h22.55.530,Tarea de género gramatical,2024.2.2,Win32,18.01801802,,,,,,,,,,,,,,,,,,,,,,,602.5838,604.0488,a,1,[],[],[],[],[],[],[],0.7417,1,604.0488,604.506,,,,,,1077,FEM,CON,150,broma,,a,0.7417,,604.506,604.506,0.134259259,0.055555556,0,0,0,,0,232,232,176,1,,,
,,,,,,a1fd1ece6aad82d8c313b5ad,66a626ef09d4e21e1a8894ec,6734e0450abcbf6acae86c0d,2024-11-13_11h22.55.530,Tarea de género gramatical,2024.2.2,Win32,18.01801802,,,,,,,,,,,,,,,,,,,,,,,604.5066,605.6157,a,1,[],[],[],[],[],[],[],0.394,1,605.6158,606.0751,,,,,,1022,FEM,AGR,150,loca,la,a,0.394,,606.0751,606.0751,0.134259259,0.055555556,0,0,0,,0,233,233,121,1,,,
,,,,,,a1fd1ece6aad82d8c313b5ad,66a626ef09d4e21e1a8894ec,6734e0450abcbf6acae86c0d,2024-11-13_11h22.55.530,Tarea de género gramatical,2024.2.2,Win32,18.01801802,,,,,,,,,,,,,,,,,,,,,,,606.0757,607.2647,l,1,[],[],[],[],[],[],[],0.4706,1,607.2648,607.7613,,,,,,1314,MAS,CON,150,sótano,,l,0.4706,,607.7613,607.7614,0.134259259,0.055555556,0,0,0,,0,234,234,413,1,,,
,,,,,,a1fd1ece6aad82d8c313b5ad,66a626ef09d4e21e1a8894ec,6734e0450abcbf6acae86c0d,2024-11-13_11h22.55.530,Tarea de género gramatical,2024.2.2,Win32,18.01801802,,,,,,,,,,,,,,,,,,,,,,,607.762,608.8885,a,1,[],[],[],[],[],[],[],0.4028,1,608.8886,609.3413,,,,,,1249,FEM,DIS,150,prensa,el,a,0.4028,,609.3413,609.3413,0.134259259,0.055555556,0,0,0,,0,235,235,348,1,,,
,,,,,,a1fd1ece6aad82d8c313b5ad,66a626ef09d4e21e1a8894ec,6734e0450abcbf6acae86c0d,2024-11-13_11h22.55.530,Tarea de género gramatical,2024.2.2,Win32,18.01801802,,,,,,,,,,,,,,,,,,,,,,,609.3419,610.487,l,1,[],[],[],[],[],[],[],0.4085,1,610.487,610.9412,,,,,,1301,MAS,AGR,150,abrigo,el,l,0.4085,,610.9417,610.9427,0.134259259,0.055555556,0,0,0,,0,236,236,400,1,,,
,,,,,,a1fd1ece6aad82d8c313b5ad,66a626ef09d4e21e1a8894ec,6734e0450abcbf6acae86c0d,2024-11-13_11h22.55.530,Tarea de género gramatical,2024.2.2,Win32,18.01801802,,,,,,,,,,,,,,,,,,,,,,,610.943,612.0868,a,1,[],[],[],[],[],[],[],0.3905,1,612.0869,612.5412,,,,,,1023,FEM,CON,150,tela,,a,0.3905,,612.5412,612.5412,0.134259259,0.055555556,0,0,0,,0,237,237,122,1,,,
,,,,,,a1fd1ece6aad82d8c313b5ad,66a626ef09d4e21e1a8894ec,6734e0450abcbf6acae86c0d,2024-11-13_11h22.55.530,Tarea de género gramatical,2024.2.2,Win32,18.01801802,,,,,,,,,,,,,,,,,,,,,,,612.5418,613.6614,l,1,[],[],[],[],[],[],[],0.3401,1,613.6615,614.1759,,,,,,911,MAS,AGR,150,país,el,l,0.3401,,614.1759,614.1761,0.134259259,0.055555556,0,0,0,,0,238,238,10,1,,,
,,,,,,a1fd1ece6aad82d8c313b5ad,66a626ef09d4e21e1a8894ec,6734e0450abcbf6acae86c0d,2024-11-13_11h22.55.530,Tarea de género gramatical,2024.2.2,Win32,18.01801802,,,,,,,,,,,,,,,,,,,,,,,614.1766,615.3015,a,1,[],[],[],[],[],[],[],0.4129,1,615.3015,615.7566,,,,,,1215,FEM,CON,150,manera,,a,0.4129,,615.7566,615.7567,0.134259259,0.055555556,0,0,0,,0,239,239,314,1,,,
,,,,,,a1fd1ece6aad82d8c313b5ad,66a626ef09d4e21e1a8894ec,6734e0450abcbf6acae86c0d,2024-11-13_11h22.55.530,Tarea de género gramatical,2024.2.2,Win32,18.01801802,,,,,,,,,,,,,,,,,,,,,,,615.7572,616.8782,l,1,[],[],[],[],[],[],[],0.3979,1,616.8782,617.3365,,,,,,1072,MAS,DIS,150,poder,la,l,0.3979,,617.3372,617.3381,0.134259259,0.055555556,0,0,0,,0,240,240,171,1,,,
,,,,,,a1fd1ece6aad82d8c313b5ad,66a626ef09d4e21e1a8894ec,6734e0450abcbf6acae86c0d,2024-11-13_11h22.55.530,Tarea de género gramatical,2024.2.2,Win32,18.01801802,,,,,,,,,,,,,,,,,,,,,,,617.3385,618.7763,a,1,[],[],[],[],[],[],[],0.6733,1,618.7765,619.2361,,,,,,925,FEM,DIS,150,nave,el,a,0.6733,,619.2362,619.2362,0.134259259,0.055555556,0,0,0,,0,241,241,24,1,,,
,,,,,,a1fd1ece6aad82d8c313b5ad,66a626ef09d4e21e1a8894ec,6734e0450abcbf6acae86c0d,2024-11-13_11h22.55.530,Tarea de género gramatical,2024.2.2,Win32,18.01801802,,,,,,,,,,,,,,,,,,,,,,,619.2368,620.4444,a,1,[],[],[],[],[],[],[],0.4746,1,620.4445,620.9145,,,,,,1334,FEM,AGR,150,corona,la,a,0.4746,,620.9145,620.9146,0.134259259,0.055555556,0,0,0,,0,242,242,433,1,,,
,,,,,,a1fd1ece6aad82d8c313b5ad,66a626ef09d4e21e1a8894ec,6734e0450abcbf6acae86c0d,2024-11-13_11h22.55.530,Tarea de género gramatical,2024.2.2,Win32,18.01801802,,,,,,,,,,,,,,,,,,,,,,,620.9151,622.0859,l,1,[],[],[],[],[],[],[],0.4575,1,622.086,622.5856,,,,,,1096,MAS,DIS,150,barco,la,l,0.4575,,622.5857,622.5857,0.134259259,0.055555556,0,0,0,,0,243,243,195,1,,,
,,,,,,a1fd1ece6aad82d8c313b5ad,66a626ef09d4e21e1a8894ec,6734e0450abcbf6acae86c0d,2024-11-13_11h22.55.530,Tarea de género gramatical,2024.2.2,Win32,18.01801802,,,,,,,,,,,,,,,,,,,,,,,622.5862,623.6899,a,1,[],[],[],[],[],[],[],0.3216,1,623.6899,624.1591,,,,,,1046,FEM,AGR,150,lana,la,a,0.3216,,624.1591,624.1591,0.134259259,0.055555556,0,0,0,,0,244,244,145,1,,,
,,,,,,a1fd1ece6aad82d8c313b5ad,66a626ef09d4e21e1a8894ec,6734e0450abcbf6acae86c0d,2024-11-13_11h22.55.530,Tarea de género gramatical,2024.2.2,Win32,18.01801802,,,,,,,,,,,,,,,,,,,,,,,624.1597,625.2742,a,1,[],[],[],[],[],[],[],0.3479,1,625.2743,625.728,,,,,,997,FEM,DIS,150,capa,el,a,0.3479,,625.7286,625.7296,0.134259259,0.055555556,0,0,0,,0,245,245,96,1,,,
,,,,,,a1fd1ece6aad82d8c313b5ad,66a626ef09d4e21e1a8894ec,6734e0450abcbf6acae86c0d,2024-11-13_11h22.55.530,Tarea de género gramatical,2024.2.2,Win32,18.01801802,,,,,,,,,,,,,,,,,,,,,,,625.73,626.8508,l,1,[],[],[],[],[],[],[],0.3976,1,626.8509,627.3093,,,,,,964,MAS,DIS,150,saco,la,l,0.3976,,627.3094,627.3094,0.134259259,0.055555556,0,0,0,,0,246,246,63,1,,,
,,,,,,a1fd1ece6aad82d8c313b5ad,66a626ef09d4e21e1a8894ec,6734e0450abcbf6acae86c0d,2024-11-13_11h22.55.530,Tarea de género gramatical,2024.2.2,Win32,18.01801802,,,,,,,,,,,,,,,,,,,,,,,627.31,628.511,l,1,[],[],[],[],[],[],[],0.4744,1,628.511,628.9955,,,,,,1306,MAS,DIS,150,premio,la,l,0.4744,,628.9955,628.9955,0.134259259,0.055555556,0,0,0,,0,247,247,405,1,,,
,,,,,,a1fd1ece6aad82d8c313b5ad,66a626ef09d4e21e1a8894ec,6734e0450abcbf6acae86c0d,2024-11-13_11h22.55.530,Tarea de género gramatical,2024.2.2,Win32,18.01801802,,,,,,,,,,,,,,,,,,,,,,,628.9961,630.1312,l,1,[],[],[],[],[],[],[],0.4064,1,630.1313,630.6384,,,,,,1254,MAS,CON,150,camión,,l,0.4064,,630.6384,630.6385,0.134259259,0.055555556,0,0,0,,0,248,248,353,1,,,
,,,,,,a1fd1ece6aad82d8c313b5ad,66a626ef09d4e21e1a8894ec,6734e0450abcbf6acae86c0d,2024-11-13_11h22.55.530,Tarea de género gramatical,2024.2.2,Win32,18.01801802,,,,,,,,,,,,,,,,,,,,,,,630.6392,631.7379,l,0,[],[],[],[],[],[],[],0.3282,0,631.7384,632.2064,,,,,,907,FEM,DIS,150,hora,el,a,0.3282,,632.207,632.2079,0.134259259,0.055555556,0,0,0,,0,249,249,6,1,,,
,,,,,,a1fd1ece6aad82d8c313b5ad,66a626ef09d4e21e1a8894ec,6734e0450abcbf6acae86c0d,2024-11-13_11h22.55.530,Tarea de género gramatical,2024.2.2,Win32,18.01801802,,,,,,,,,,,,,,,,,,,,,,,632.2084,633.2566,a,1,[],[],[],[],[],[],[],0.3268,1,633.257,633.7169,,,,,,902,FEM,AGR,150,vida,la,a,0.3268,,633.717,633.717,0.134259259,0.055555556,0,0,0,,0,250,250,1,1,,,
,,,,,,a1fd1ece6aad82d8c313b5ad,66a626ef09d4e21e1a8894ec,6734e0450abcbf6acae86c0d,2024-11-13_11h22.55.530,Tarea de género gramatical,2024.2.2,Win32,18.01801802,,,,,,,,,,,,,,,,,,,,,,,633.7175,634.8903,a,1,[],[],[],[],[],[],[],0.4557,1,634.8904,635.3713,,,,,,1209,FEM,CON,150,esposa,,a,0.4557,,635.3713,635.3714,0.134259259,0.055555556,0,0,0,,0,251,251,308,1,,,
,,,,,,a1fd1ece6aad82d8c313b5ad,66a626ef09d4e21e1a8894ec,6734e0450abcbf6acae86c0d,2024-11-13_11h22.55.530,Tarea de género gramatical,2024.2.2,Win32,18.01801802,,,,,,,,,,,,,,,,,,,,,,,635.3719,636.5394,a,1,[],[],[],[],[],[],[],0.4575,1,636.5395,637.0325,,,,,,1148,FEM,AGR,150,letra,la,a,0.4575,,637.0325,637.0326,0.134259259,0.055555556,0,0,0,,0,252,252,247,1,,,
