counterbalancing_condition,consent_prescreening.block_1/declare_consent,consent_prescreening.block_1/age_years,consent_prescreening.block_1/gender,consent_prescreening.block_1/language_disorder,consent_prescreening.block_1/first_language,PROLIFIC_PID,STUDY_ID,SESSION_ID,date,expName,psychopyVersion,OS,frameRate,check_prescreening_answers.started,check_prescreening_answers.stopped,Instructions.started,Instructions.stopped,instr_done_keyboard.keys,instr_done_touch.x,instr_done_touch.y,instr_done_touch.leftButton,instr_done_touch.midButton,instr_done_touch.rightButton,instr_done_touch.clicked_name,instruction_pages.thisRepN,instruction_pages.thisTrialN,instruction_pages.thisN,instruction_pages.thisIndex,instruction_pages.ran,pageN,phase,instruct_text,has_image,instruct_image,instr_done_keyboard.rt,instr_done_keyboard.duration,presentTrial.started,presentTrial.stopped,response.keys,response.corr,touch_resp.x,touch_resp.y,touch_resp.leftButton,touch_resp.midButton,touch_resp.rightButton,touch_resp.time,touch_resp.clicked_name,rt,corr,feedback.started,feedback.stopped,practice_trials.thisRepN,practice_trials.thisTrialN,practice_trials.thisN,practice_trials.thisIndex,practice_trials.ran,TrialID,StimulusType,Condition,PrimeDuration,Prime,Flanker,corrAns,response.rt,response.duration,Break.started,Break.stopped,break_done_touch.x,break_done_touch.y,break_done_touch.leftButton,break_done_touch.midButton,break_done_touch.rightButton,break_done_keyboard.keys,experiment_trials.thisRepN,experiment_trials.thisTrialN,experiment_trials.thisN,experiment_trials.thisIndex,experiment_trials.ran,break_done_keyboard.rt,break_done_keyboard.duration,End.started,End.stopped
1,"[""over_18"",""comfortable"",""consent_given"",""read_info""]",49,M,"[""none""]","[""spanish""]",a6511dc3bfbef885a2bad779,66a626ef09d4e21e1a8894ec,67360fd9b98303c9d2112b2b,2024-11-14_08h58.08.540,Tarea de género gramatical,2024.2.2,Win32,60.24096386,,,,,,,,,,,,,,,,,,,,,,,,,,,,,,,,,,,,,,,,,,,,,,,,,,,,,,,,,,,,,,,,,,,,,
,,,,,,a6511dc3bfbef885a2bad779,66a626ef09d4e21e1a8894ec,67360fd9b98303c9d2112b2b,2024-11-14_08h58.08.540,Tarea de género gramatical,2024.2.2,Win32,60.24096386,77.5675,77.5677,,,,,,,,,,,,,,,,,,,,,,,,,,,,,,,,,,,,,,,,,,,,,,,,,,,,,,,,,,,,,,,,,,,
,,,,,,a6511dc3bfbef885a2bad779,66a626ef09d4e21e1a8894ec,67360fd9b98303c9d2112b2b,2024-11-14_08h58.08.540,Tarea de género gramatical,2024.2.2,Win32,60.24096386,,,77.5826,110.6596,,-0.036111111,-0.386111111,1,0,0,instr_done_button,0,0,0,0,1,1,instructions,"INSTRUCCIONES
Va a realizar una prueba de selección gramatical. Desde el comienzo de la prueba mire siempre al centro de la pantalla. Al cabo de un momento, aparecerán palabras. La tarea consiste en determinar si la palabra del centro (siempre será un sustantivo), pertenece al género masculino o femenino.

Pulse la tecla ESPACIO o toque el botón de abajo para continuar.",0,keyboardresponseMF.png,,,,,,,,,,,,,,,,,,,,,,,,,,,,,,,,,,,,,,,,,,,,,,,,
,,,,,,a6511dc3bfbef885a2bad779,66a626ef09d4e21e1a8894ec,67360fd9b98303c9d2112b2b,2024-11-14_08h58.08.540,Tarea de género gramatical,2024.2.2,Win32,60.24096386,,,110.6649,147.3086,,-0.065277778,-0.377777778,1,0,0,instr_done_button,0,1,1,1,1,2,instructions,"Si su dispositivo tiene teclado, pulse la tecla ""A"" para las palabras en masculino (por ejemplo: ""arroz"") y la tecla ""L"" para las palabras en femenino (por ejemplo: ""mano"").
Pulse la tecla ESPACIO o toque el botón de abajo para continuar.",1,keyboardresponseMF.png,,,,,,,,,,,,,,,,,,,,,,,,,,,,,,,,,,,,,,,,,,,,,,,,
,,,,,,a6511dc3bfbef885a2bad779,66a626ef09d4e21e1a8894ec,67360fd9b98303c9d2112b2b,2024-11-14_08h58.08.540,Tarea de género gramatical,2024.2.2,Win32,60.24096386,,,147.3114,160.5246,,-0.048611111,-0.3875,1,0,0,instr_done_button,0,2,2,2,1,3,instructions,"Si utiliza un dispositivo sólo táctil, colóquelo en horizontal y utilice los botones de la pantalla. No utilice el ratón.
Pulse la tecla ESPACIO o toque el botón de abajo para continuar.",2,touchresponseMF.png,,,,,,,,,,,,,,,,,,,,,,,,,,,,,,,,,,,,,,,,,,,,,,,,
,,,,,,a6511dc3bfbef885a2bad779,66a626ef09d4e21e1a8894ec,67360fd9b98303c9d2112b2b,2024-11-14_08h58.08.540,Tarea de género gramatical,2024.2.2,Win32,60.24096386,,,160.5268,179.8917,space,-0.008333333,-0.051388889,0,0,0,,0,3,3,3,1,4,instructions,"Es muy importante que responda con la mayor rapidez y precisión posibles, ya que cada cadena de letras sólo estará en pantalla durante un instante. Si no responde en ese tiempo, aparecerá el mensaje ""Muy lento"" y el experimento pasará a la siguiente palabra. Los primeros 15 intentos serán de práctica y habrá dos descansos durante la prueba.
Pulse la tecla ESPACIO o toque el botón de abajo para iniciar la parte de práctica.",0,keyboardresponseMF.png,19.3473,,,,,,,,,,,,,,,,,,,,,,,,,,,,,,,,,,,,,,,,,,,,,,,
,,,,,,a6511dc3bfbef885a2bad779,66a626ef09d4e21e1a8894ec,67360fd9b98303c9d2112b2b,2024-11-14_08h58.08.540,Tarea de género gramatical,2024.2.2,Win32,60.24096386,,,,,,,,,,,,,,,,,,,,,,,,179.9067,182.5584,,0,[],[],[],[],[],[],[],,-1,182.5589,183.058,0,0,0,4,1,2005,FEM,CON,150,placa,,a,,,,,,,,,,,,,,,,,,,
,,,,,,a6511dc3bfbef885a2bad779,66a626ef09d4e21e1a8894ec,67360fd9b98303c9d2112b2b,2024-11-14_08h58.08.540,Tarea de género gramatical,2024.2.2,Win32,60.24096386,,,,,,,,,,,,,,,,,,,,,,,,183.0609,184.108,a,1,[],[],[],[],[],[],[],0.3789,1,184.1174,184.6076,0,1,1,8,1,2009,MAS,DIS,150,puerto,la,l,0.3789,,,,,,,,,,,,,,,,,,
,,,,,,a6511dc3bfbef885a2bad779,66a626ef09d4e21e1a8894ec,67360fd9b98303c9d2112b2b,2024-11-14_08h58.08.540,Tarea de género gramatical,2024.2.2,Win32,60.24096386,,,,,,,,,,,,,,,,,,,,,,,,184.6101,185.7577,l,0,[],[],[],[],[],[],[],0.4776,0,185.7592,186.2578,0,2,2,13,1,2014,MAS,CON,150,siglo,,l,0.4776,,,,,,,,,,,,,,,,,,
,,,,,,a6511dc3bfbef885a2bad779,66a626ef09d4e21e1a8894ec,67360fd9b98303c9d2112b2b,2024-11-14_08h58.08.540,Tarea de género gramatical,2024.2.2,Win32,60.24096386,,,,,,,,,,,,,,,,,,,,,,,,186.2597,187.6746,a,1,[],[],[],[],[],[],[],0.734,1,187.6755,188.1745,0,3,3,14,1,2015,MAS,DIS,150,robot,la,l,0.734,,,,,,,,,,,,,,,,,,
,,,,,,a6511dc3bfbef885a2bad779,66a626ef09d4e21e1a8894ec,67360fd9b98303c9d2112b2b,2024-11-14_08h58.08.540,Tarea de género gramatical,2024.2.2,Win32,60.24096386,,,,,,,,,,,,,,,,,,,,,,,,188.1765,189.6576,l,1,[],[],[],[],[],[],[],0.8102,1,189.6578,190.1577,0,4,4,0,1,2001,FEM,AGR,150,nuca,la,a,0.8102,,,,,,,,,,,,,,,,,,
,,,,,,a6511dc3bfbef885a2bad779,66a626ef09d4e21e1a8894ec,67360fd9b98303c9d2112b2b,2024-11-14_08h58.08.540,Tarea de género gramatical,2024.2.2,Win32,60.24096386,,,,,,,,,,,,,,,,,,,,,,,,190.1596,191.4074,l,1,[],[],[],[],[],[],[],0.5793,1,191.4075,191.9076,0,5,5,3,1,2004,FEM,AGR,150,venta,la,a,0.5793,,,,,,,,,,,,,,,,,,
,,,,,,a6511dc3bfbef885a2bad779,66a626ef09d4e21e1a8894ec,67360fd9b98303c9d2112b2b,2024-11-14_08h58.08.540,Tarea de género gramatical,2024.2.2,Win32,60.24096386,,,,,,,,,,,,,,,,,,,,,,,,191.9088,193.2912,a,0,[],[],[],[],[],[],[],0.7061,0,193.2922,193.7909,0,6,6,1,1,2002,FEM,CON,150,pala,,a,0.7061,,,,,,,,,,,,,,,,,,
,,,,,,a6511dc3bfbef885a2bad779,66a626ef09d4e21e1a8894ec,67360fd9b98303c9d2112b2b,2024-11-14_08h58.08.540,Tarea de género gramatical,2024.2.2,Win32,60.24096386,,,,,,,,,,,,,,,,,,,,,,,,193.792,195.1077,a,1,[],[],[],[],[],[],[],0.6345,1,195.1087,195.6075,0,7,7,12,1,2013,MAS,AGR,150,acero,el,l,0.6345,,,,,,,,,,,,,,,,,,
,,,,,,a6511dc3bfbef885a2bad779,66a626ef09d4e21e1a8894ec,67360fd9b98303c9d2112b2b,2024-11-14_08h58.08.540,Tarea de género gramatical,2024.2.2,Win32,60.24096386,,,,,,,,,,,,,,,,,,,,,,,,195.6084,196.9243,a,1,[],[],[],[],[],[],[],0.6351,1,196.9244,197.424,0,8,8,10,1,2011,MAS,CON,150,canal,,l,0.6351,,,,,,,,,,,,,,,,,,
,,,,,,a6511dc3bfbef885a2bad779,66a626ef09d4e21e1a8894ec,67360fd9b98303c9d2112b2b,2024-11-14_08h58.08.540,Tarea de género gramatical,2024.2.2,Win32,60.24096386,,,,,,,,,,,,,,,,,,,,,,,,197.4247,198.791,l,1,[],[],[],[],[],[],[],0.693,1,198.7911,199.2909,0,9,9,7,1,2008,FEM,CON,150,siesta,,a,0.693,,,,,,,,,,,,,,,,,,
,,,,,,a6511dc3bfbef885a2bad779,66a626ef09d4e21e1a8894ec,67360fd9b98303c9d2112b2b,2024-11-14_08h58.08.540,Tarea de género gramatical,2024.2.2,Win32,60.24096386,,,,,,,,,,,,,,,,,,,,,,,,199.2919,200.4406,a,1,[],[],[],[],[],[],[],0.4717,1,200.4407,200.9409,0,10,10,9,1,2010,MAS,AGR,150,vecino,el,l,0.4717,,,,,,,,,,,,,,,,,,
,,,,,,a6511dc3bfbef885a2bad779,66a626ef09d4e21e1a8894ec,67360fd9b98303c9d2112b2b,2024-11-14_08h58.08.540,Tarea de género gramatical,2024.2.2,Win32,60.24096386,,,,,,,,,,,,,,,,,,,,,,,,200.9429,202.374,a,0,[],[],[],[],[],[],[],0.7561,0,202.3748,202.8741,0,11,11,6,1,2007,FEM,AGR,150,navaja,la,a,0.7561,,,,,,,,,,,,,,,,,,
,,,,,,a6511dc3bfbef885a2bad779,66a626ef09d4e21e1a8894ec,67360fd9b98303c9d2112b2b,2024-11-14_08h58.08.540,Tarea de género gramatical,2024.2.2,Win32,60.24096386,,,,,,,,,,,,,,,,,,,,,,,,202.8752,204.1071,a,0,[],[],[],[],[],[],[],0.5525,0,204.1071,204.6074,0,12,12,5,1,2006,FEM,DIS,150,serie,el,a,0.5525,,,,,,,,,,,,,,,,,,
,,,,,,a6511dc3bfbef885a2bad779,66a626ef09d4e21e1a8894ec,67360fd9b98303c9d2112b2b,2024-11-14_08h58.08.540,Tarea de género gramatical,2024.2.2,Win32,60.24096386,,,,,,,,,,,,,,,,,,,,,,,,204.6093,205.9409,a,0,[],[],[],[],[],[],[],0.6561,0,205.941,206.4409,0,13,13,2,1,2003,FEM,DIS,150,daga,el,a,0.6561,,,,,,,,,,,,,,,,,,
,,,,,,a6511dc3bfbef885a2bad779,66a626ef09d4e21e1a8894ec,67360fd9b98303c9d2112b2b,2024-11-14_08h58.08.540,Tarea de género gramatical,2024.2.2,Win32,60.24096386,,,,,,,,,,,,,,,,,,,,,,,,206.4427,207.6574,a,1,[],[],[],[],[],[],[],0.5398,1,207.6583,208.1573,0,14,14,11,1,2012,MAS,DIS,150,clima,la,l,0.5398,,,,,,,,,,,,,,,,,,
,,,,,,a6511dc3bfbef885a2bad779,66a626ef09d4e21e1a8894ec,67360fd9b98303c9d2112b2b,2024-11-14_08h58.08.540,Tarea de género gramatical,2024.2.2,Win32,60.24096386,,,218.4279,229.1408,space,-0.008333333,-0.051388889,0,0,0,,,,,,,,,,,,10.6934,,229.1716,230.2238,a,1,[],[],[],[],[],[],[],0.395,1,230.2239,230.7237,,,,,,682,MAS,CON,150,calor,,l,0.395,,230.7241,230.7306,-0.008333333,-0.051388889,0,0,0,,0,0,0,231,1,,,,
,,,,,,a6511dc3bfbef885a2bad779,66a626ef09d4e21e1a8894ec,67360fd9b98303c9d2112b2b,2024-11-14_08h58.08.540,Tarea de género gramatical,2024.2.2,Win32,60.24096386,,,,,,,,,,,,,,,,,,,,,,,,230.7316,231.907,l,1,[],[],[],[],[],[],[],0.5091,1,231.9071,232.407,,,,,,579,FEM,AGR,150,rana,la,a,0.5091,,232.4071,232.4072,-0.008333333,-0.051388889,0,0,0,,0,1,1,128,1,,,,
,,,,,,a6511dc3bfbef885a2bad779,66a626ef09d4e21e1a8894ec,67360fd9b98303c9d2112b2b,2024-11-14_08h58.08.540,Tarea de género gramatical,2024.2.2,Win32,60.24096386,,,,,,,,,,,,,,,,,,,,,,,,232.4085,233.4405,a,1,[],[],[],[],[],[],[],0.3569,1,233.4406,233.9401,,,,,,642,MAS,AGR,150,grupo,el,l,0.3569,,233.9416,233.9428,-0.008333333,-0.051388889,0,0,0,,0,2,2,191,1,,,,
,,,,,,a6511dc3bfbef885a2bad779,66a626ef09d4e21e1a8894ec,67360fd9b98303c9d2112b2b,2024-11-14_08h58.08.540,Tarea de género gramatical,2024.2.2,Win32,60.24096386,,,,,,,,,,,,,,,,,,,,,,,,233.9437,235.0736,a,1,[],[],[],[],[],[],[],0.4495,1,235.0736,235.5737,,,,,,575,MAS,DIS,150,bate,la,l,0.4495,,235.5739,235.5741,-0.008333333,-0.051388889,0,0,0,,0,3,3,124,1,,,,
,,,,,,a6511dc3bfbef885a2bad779,66a626ef09d4e21e1a8894ec,67360fd9b98303c9d2112b2b,2024-11-14_08h58.08.540,Tarea de género gramatical,2024.2.2,Win32,60.24096386,,,,,,,,,,,,,,,,,,,,,,,,235.5752,236.6737,l,1,[],[],[],[],[],[],[],0.4256,1,236.6739,237.1738,,,,,,471,FEM,AGR,150,boca,la,a,0.4256,,237.1739,237.174,-0.008333333,-0.051388889,0,0,0,,0,4,4,20,1,,,,
,,,,,,a6511dc3bfbef885a2bad779,66a626ef09d4e21e1a8894ec,67360fd9b98303c9d2112b2b,2024-11-14_08h58.08.540,Tarea de género gramatical,2024.2.2,Win32,60.24096386,,,,,,,,,,,,,,,,,,,,,,,,237.1751,238.0904,a,1,[],[],[],[],[],[],[],0.2327,1,238.0905,238.5904,,,,,,886,MAS,CON,150,objeto,,l,0.2327,,238.5905,238.5907,-0.008333333,-0.051388889,0,0,0,,0,5,5,435,1,,,,
,,,,,,a6511dc3bfbef885a2bad779,66a626ef09d4e21e1a8894ec,67360fd9b98303c9d2112b2b,2024-11-14_08h58.08.540,Tarea de género gramatical,2024.2.2,Win32,60.24096386,,,,,,,,,,,,,,,,,,,,,,,,238.5918,239.5904,a,1,[],[],[],[],[],[],[],0.3174,1,239.5905,240.0904,,,,,,832,MAS,CON,150,teatro,,l,0.3174,,240.0927,240.0938,-0.008333333,-0.051388889,0,0,0,,0,6,6,381,1,,,,
,,,,,,a6511dc3bfbef885a2bad779,66a626ef09d4e21e1a8894ec,67360fd9b98303c9d2112b2b,2024-11-14_08h58.08.540,Tarea de género gramatical,2024.2.2,Win32,60.24096386,,,,,,,,,,,,,,,,,,,,,,,,240.0952,241.0736,a,1,[],[],[],[],[],[],[],0.2999,1,241.0737,241.5737,,,,,,611,MAS,DIS,150,chico,la,l,0.2999,,241.5737,241.5739,-0.008333333,-0.051388889,0,0,0,,0,7,7,160,1,,,,
,,,,,,a6511dc3bfbef885a2bad779,66a626ef09d4e21e1a8894ec,67360fd9b98303c9d2112b2b,2024-11-14_08h58.08.540,Tarea de género gramatical,2024.2.2,Win32,60.24096386,,,,,,,,,,,,,,,,,,,,,,,,241.575,242.5404,a,0,[],[],[],[],[],[],[],0.2846,0,242.5414,243.0403,,,,,,632,FEM,DIS,150,prisa,el,a,0.2846,,243.0404,243.0405,-0.008333333,-0.051388889,0,0,0,,0,8,8,181,1,,,,
,,,,,,a6511dc3bfbef885a2bad779,66a626ef09d4e21e1a8894ec,67360fd9b98303c9d2112b2b,2024-11-14_08h58.08.540,Tarea de género gramatical,2024.2.2,Win32,60.24096386,,,,,,,,,,,,,,,,,,,,,,,,243.0417,244.0069,l,1,[],[],[],[],[],[],[],0.2833,1,244.0079,244.5068,,,,,,638,FEM,DIS,150,bomba,el,a,0.2833,,244.5069,244.5071,-0.008333333,-0.051388889,0,0,0,,0,9,9,187,1,,,,
,,,,,,a6511dc3bfbef885a2bad779,66a626ef09d4e21e1a8894ec,67360fd9b98303c9d2112b2b,2024-11-14_08h58.08.540,Tarea de género gramatical,2024.2.2,Win32,60.24096386,,,,,,,,,,,,,,,,,,,,,,,,244.5083,245.3737,a,0,[],[],[],[],[],[],[],0.1829,0,245.3746,245.8735,,,,,,662,FEM,DIS,150,cinta,el,a,0.1829,,245.8736,245.8737,-0.008333333,-0.051388889,0,0,0,,0,10,10,211,1,,,,
,,,,,,a6511dc3bfbef885a2bad779,66a626ef09d4e21e1a8894ec,67360fd9b98303c9d2112b2b,2024-11-14_08h58.08.540,Tarea de género gramatical,2024.2.2,Win32,60.24096386,,,,,,,,,,,,,,,,,,,,,,,,245.8759,246.9069,a,0,[],[],[],[],[],[],[],0.3592,0,246.907,247.4066,,,,,,567,FEM,AGR,150,raya,la,a,0.3592,,247.4087,247.4098,-0.008333333,-0.051388889,0,0,0,,0,11,11,116,1,,,,
,,,,,,a6511dc3bfbef885a2bad779,66a626ef09d4e21e1a8894ec,67360fd9b98303c9d2112b2b,2024-11-14_08h58.08.540,Tarea de género gramatical,2024.2.2,Win32,60.24096386,,,,,,,,,,,,,,,,,,,,,,,,247.4108,248.5403,a,1,[],[],[],[],[],[],[],0.4573,1,248.5412,249.0402,,,,,,719,MAS,DIS,150,primo,la,l,0.4573,,249.0403,249.0404,-0.008333333,-0.051388889,0,0,0,,0,12,12,268,1,,,,
,,,,,,a6511dc3bfbef885a2bad779,66a626ef09d4e21e1a8894ec,67360fd9b98303c9d2112b2b,2024-11-14_08h58.08.540,Tarea de género gramatical,2024.2.2,Win32,60.24096386,,,,,,,,,,,,,,,,,,,,,,,,249.0415,249.9569,a,0,[],[],[],[],[],[],[],0.2407,0,249.9579,250.4567,,,,,,710,FEM,DIS,150,barra,el,a,0.2407,,250.4568,250.4569,-0.008333333,-0.051388889,0,0,0,,0,13,13,259,1,,,,
,,,,,,a6511dc3bfbef885a2bad779,66a626ef09d4e21e1a8894ec,67360fd9b98303c9d2112b2b,2024-11-14_08h58.08.540,Tarea de género gramatical,2024.2.2,Win32,60.24096386,,,,,,,,,,,,,,,,,,,,,,,,250.4581,251.4402,a,0,[],[],[],[],[],[],[],0.3077,0,251.4402,251.9402,,,,,,823,FEM,CON,150,lluvia,,a,0.3077,,251.9403,251.9404,-0.008333333,-0.051388889,0,0,0,,0,14,14,372,1,,,,
,,,,,,a6511dc3bfbef885a2bad779,66a626ef09d4e21e1a8894ec,67360fd9b98303c9d2112b2b,2024-11-14_08h58.08.540,Tarea de género gramatical,2024.2.2,Win32,60.24096386,,,,,,,,,,,,,,,,,,,,,,,,251.9417,253.0235,l,1,[],[],[],[],[],[],[],0.4044,1,253.0244,253.5235,,,,,,477,FEM,AGR,150,mesa,la,a,0.4044,,253.5256,253.5266,-0.008333333,-0.051388889,0,0,0,,0,15,15,26,1,,,,
,,,,,,a6511dc3bfbef885a2bad779,66a626ef09d4e21e1a8894ec,67360fd9b98303c9d2112b2b,2024-11-14_08h58.08.540,Tarea de género gramatical,2024.2.2,Win32,60.24096386,,,,,,,,,,,,,,,,,,,,,,,,253.5276,254.6401,a,1,[],[],[],[],[],[],[],0.4352,1,254.6402,255.1402,,,,,,472,MAS,CON,150,pelo,,l,0.4352,,255.1403,255.1404,-0.008333333,-0.051388889,0,0,0,,0,16,16,21,1,,,,
,,,,,,a6511dc3bfbef885a2bad779,66a626ef09d4e21e1a8894ec,67360fd9b98303c9d2112b2b,2024-11-14_08h58.08.540,Tarea de género gramatical,2024.2.2,Win32,60.24096386,,,,,,,,,,,,,,,,,,,,,,,,255.1415,256.1564,l,1,[],[],[],[],[],[],[],0.3446,1,256.1565,256.6565,,,,,,573,FEM,AGR,150,tela,la,a,0.3446,,256.6566,256.6566,-0.008333333,-0.051388889,0,0,0,,0,17,17,122,1,,,,
,,,,,,a6511dc3bfbef885a2bad779,66a626ef09d4e21e1a8894ec,67360fd9b98303c9d2112b2b,2024-11-14_08h58.08.540,Tarea de género gramatical,2024.2.2,Win32,60.24096386,,,,,,,,,,,,,,,,,,,,,,,,256.6583,257.6732,a,1,[],[],[],[],[],[],[],0.3403,1,257.6734,258.1735,,,,,,857,MAS,DIS,150,jurado,la,l,0.3403,,258.1735,258.1737,-0.008333333,-0.051388889,0,0,0,,0,18,18,406,1,,,,
,,,,,,a6511dc3bfbef885a2bad779,66a626ef09d4e21e1a8894ec,67360fd9b98303c9d2112b2b,2024-11-14_08h58.08.540,Tarea de género gramatical,2024.2.2,Win32,60.24096386,,,,,,,,,,,,,,,,,,,,,,,,258.1748,259.1063,a,0,[],[],[],[],[],[],[],0.2507,0,259.1071,259.6066,,,,,,643,FEM,CON,150,bolsa,,a,0.2507,,259.6066,259.6067,-0.008333333,-0.051388889,0,0,0,,0,19,19,192,1,,,,
,,,,,,a6511dc3bfbef885a2bad779,66a626ef09d4e21e1a8894ec,67360fd9b98303c9d2112b2b,2024-11-14_08h58.08.540,Tarea de género gramatical,2024.2.2,Win32,60.24096386,,,,,,,,,,,,,,,,,,,,,,,,259.6079,260.84,a,0,[],[],[],[],[],[],[],0.5557,0,260.8401,261.34,,,,,,883,FEM,CON,150,huella,,a,0.5557,,261.3425,261.3436,-0.008333333,-0.051388889,0,0,0,,0,20,20,432,1,,,,
,,,,,,a6511dc3bfbef885a2bad779,66a626ef09d4e21e1a8894ec,67360fd9b98303c9d2112b2b,2024-11-14_08h58.08.540,Tarea de género gramatical,2024.2.2,Win32,60.24096386,,,,,,,,,,,,,,,,,,,,,,,,261.3447,262.3732,a,0,[],[],[],[],[],[],[],0.3577,0,262.3733,262.8733,,,,,,499,FEM,CON,150,piel,,a,0.3577,,262.8734,262.8735,-0.008333333,-0.051388889,0,0,0,,0,21,21,48,1,,,,
,,,,,,a6511dc3bfbef885a2bad779,66a626ef09d4e21e1a8894ec,67360fd9b98303c9d2112b2b,2024-11-14_08h58.08.540,Tarea de género gramatical,2024.2.2,Win32,60.24096386,,,,,,,,,,,,,,,,,,,,,,,,262.8747,263.7733,a,1,[],[],[],[],[],[],[],0.2161,1,263.7742,264.273,,,,,,544,MAS,CON,150,cabo,,l,0.2161,,264.273,264.2731,-0.008333333,-0.051388889,0,0,0,,0,22,22,93,1,,,,
,,,,,,a6511dc3bfbef885a2bad779,66a626ef09d4e21e1a8894ec,67360fd9b98303c9d2112b2b,2024-11-14_08h58.08.540,Tarea de género gramatical,2024.2.2,Win32,60.24096386,,,,,,,,,,,,,,,,,,,,,,,,264.2746,265.2729,a,1,[],[],[],[],[],[],[],0.3285,1,265.2731,265.7732,,,,,,726,MAS,AGR,150,ritmo,el,l,0.3285,,265.7732,265.7734,-0.008333333,-0.051388889,0,0,0,,0,23,23,275,1,,,,
,,,,,,a6511dc3bfbef885a2bad779,66a626ef09d4e21e1a8894ec,67360fd9b98303c9d2112b2b,2024-11-14_08h58.08.540,Tarea de género gramatical,2024.2.2,Win32,60.24096386,,,,,,,,,,,,,,,,,,,,,,,,265.7748,266.7396,a,1,[],[],[],[],[],[],[],0.2826,1,266.7397,267.2399,,,,,,778,MAS,CON,150,asunto,,l,0.2826,,267.2422,267.2432,-0.008333333,-0.051388889,0,0,0,,0,24,24,327,1,,,,
,,,,,,a6511dc3bfbef885a2bad779,66a626ef09d4e21e1a8894ec,67360fd9b98303c9d2112b2b,2024-11-14_08h58.08.540,Tarea de género gramatical,2024.2.2,Win32,60.24096386,,,,,,,,,,,,,,,,,,,,,,,,267.2446,268.4231,a,1,[],[],[],[],[],[],[],0.5071,1,268.4232,268.9233,,,,,,485,MAS,DIS,150,taxi,la,l,0.5071,,268.9233,268.9234,-0.008333333,-0.051388889,0,0,0,,0,25,25,34,1,,,,
,,,,,,a6511dc3bfbef885a2bad779,66a626ef09d4e21e1a8894ec,67360fd9b98303c9d2112b2b,2024-11-14_08h58.08.540,Tarea de género gramatical,2024.2.2,Win32,60.24096386,,,,,,,,,,,,,,,,,,,,,,,,268.9253,269.9566,l,0,[],[],[],[],[],[],[],0.351,0,269.9577,270.4565,,,,,,894,MAS,AGR,150,límite,el,l,0.351,,270.4565,270.4567,-0.008333333,-0.051388889,0,0,0,,0,26,26,443,1,,,,
,,,,,,a6511dc3bfbef885a2bad779,66a626ef09d4e21e1a8894ec,67360fd9b98303c9d2112b2b,2024-11-14_08h58.08.540,Tarea de género gramatical,2024.2.2,Win32,60.24096386,,,,,,,,,,,,,,,,,,,,,,,,270.4578,271.5731,a,1,[],[],[],[],[],[],[],0.4376,1,271.5738,272.0731,,,,,,792,MAS,AGR,150,abuelo,el,l,0.4376,,272.0731,272.0732,-0.008333333,-0.051388889,0,0,0,,0,27,27,341,1,,,,
,,,,,,a6511dc3bfbef885a2bad779,66a626ef09d4e21e1a8894ec,67360fd9b98303c9d2112b2b,2024-11-14_08h58.08.540,Tarea de género gramatical,2024.2.2,Win32,60.24096386,,,,,,,,,,,,,,,,,,,,,,,,272.075,272.9896,a,0,[],[],[],[],[],[],[],0.2459,0,272.9904,273.4897,,,,,,549,FEM,AGR,150,fase,la,a,0.2459,,273.4898,273.4899,-0.008333333,-0.051388889,0,0,0,,0,28,28,98,1,,,,
,,,,,,a6511dc3bfbef885a2bad779,66a626ef09d4e21e1a8894ec,67360fd9b98303c9d2112b2b,2024-11-14_08h58.08.540,Tarea de género gramatical,2024.2.2,Win32,60.24096386,,,,,,,,,,,,,,,,,,,,,,,,273.491,274.3732,a,1,[],[],[],[],[],[],[],0.2073,1,274.374,274.8732,,,,,,760,MAS,CON,150,nombre,,l,0.2073,,274.8752,274.8763,-0.008333333,-0.051388889,0,0,0,,0,29,29,309,1,,,,
,,,,,,a6511dc3bfbef885a2bad779,66a626ef09d4e21e1a8894ec,67360fd9b98303c9d2112b2b,2024-11-14_08h58.08.540,Tarea de género gramatical,2024.2.2,Win32,60.24096386,,,,,,,,,,,,,,,,,,,,,,,,274.8773,275.9063,a,1,[],[],[],[],[],[],[],0.3622,1,275.9065,276.4062,,,,,,724,MAS,CON,150,motor,,l,0.3622,,276.4064,276.4066,-0.008333333,-0.051388889,0,0,0,,0,30,30,273,1,,,,
,,,,,,a6511dc3bfbef885a2bad779,66a626ef09d4e21e1a8894ec,67360fd9b98303c9d2112b2b,2024-11-14_08h58.08.540,Tarea de género gramatical,2024.2.2,Win32,60.24096386,,,,,,,,,,,,,,,,,,,,,,,,276.4083,277.2898,a,0,[],[],[],[],[],[],[],0.2015,0,277.2907,277.7898,,,,,,649,FEM,CON,150,nariz,,a,0.2015,,277.7899,277.79,-0.008333333,-0.051388889,0,0,0,,0,31,31,198,1,,,,
,,,,,,a6511dc3bfbef885a2bad779,66a626ef09d4e21e1a8894ec,67360fd9b98303c9d2112b2b,2024-11-14_08h58.08.540,Tarea de género gramatical,2024.2.2,Win32,60.24096386,,,,,,,,,,,,,,,,,,,,,,,,277.7912,278.7564,l,1,[],[],[],[],[],[],[],0.2946,1,278.7573,279.2565,,,,,,849,FEM,AGR,150,charla,la,a,0.2946,,279.2566,279.2567,-0.008333333,-0.051388889,0,0,0,,0,32,32,398,1,,,,
,,,,,,a6511dc3bfbef885a2bad779,66a626ef09d4e21e1a8894ec,67360fd9b98303c9d2112b2b,2024-11-14_08h58.08.540,Tarea de género gramatical,2024.2.2,Win32,60.24096386,,,,,,,,,,,,,,,,,,,,,,,,279.2579,280.423,l,0,[],[],[],[],[],[],[],0.488,0,280.424,280.923,,,,,,569,MAS,DIS,150,mito,la,l,0.488,,280.9251,280.9262,-0.008333333,-0.051388889,0,0,0,,0,33,33,118,1,,,,
,,,,,,a6511dc3bfbef885a2bad779,66a626ef09d4e21e1a8894ec,67360fd9b98303c9d2112b2b,2024-11-14_08h58.08.540,Tarea de género gramatical,2024.2.2,Win32,60.24096386,,,,,,,,,,,,,,,,,,,,,,,,280.927,282.1398,a,0,[],[],[],[],[],[],[],0.5341,0,282.1398,282.6397,,,,,,601,FEM,CON,150,noche,,a,0.5341,,282.6398,282.6399,-0.008333333,-0.051388889,0,0,0,,0,34,34,150,1,,,,
,,,,,,a6511dc3bfbef885a2bad779,66a626ef09d4e21e1a8894ec,67360fd9b98303c9d2112b2b,2024-11-14_08h58.08.540,Tarea de género gramatical,2024.2.2,Win32,60.24096386,,,,,,,,,,,,,,,,,,,,,,,,282.6417,284.0231,a,1,[],[],[],[],[],[],[],0.7007,1,284.024,284.523,,,,,,804,MAS,AGR,150,camión,el,l,0.7007,,284.5231,284.5232,-0.008333333,-0.051388889,0,0,0,,0,35,35,353,1,,,,
,,,,,,a6511dc3bfbef885a2bad779,66a626ef09d4e21e1a8894ec,67360fd9b98303c9d2112b2b,2024-11-14_08h58.08.540,Tarea de género gramatical,2024.2.2,Win32,60.24096386,,,,,,,,,,,,,,,,,,,,,,,,284.5244,286.1231,l,1,[],[],[],[],[],[],[],0.9156,1,286.1232,286.623,,,,,,525,FEM,AGR,150,caza,la,a,0.9156,,286.6231,286.6232,-0.008333333,-0.051388889,0,0,0,,0,36,36,74,1,,,,
,,,,,,a6511dc3bfbef885a2bad779,66a626ef09d4e21e1a8894ec,67360fd9b98303c9d2112b2b,2024-11-14_08h58.08.540,Tarea de género gramatical,2024.2.2,Win32,60.24096386,,,,,,,,,,,,,,,,,,,,,,,,286.6243,287.9897,a,1,[],[],[],[],[],[],[],0.6831,1,287.9898,288.4896,,,,,,623,MAS,DIS,150,libro,la,l,0.6831,,288.4897,288.4898,-0.008333333,-0.051388889,0,0,0,,0,37,37,172,1,,,,
,,,,,,a6511dc3bfbef885a2bad779,66a626ef09d4e21e1a8894ec,67360fd9b98303c9d2112b2b,2024-11-14_08h58.08.540,Tarea de género gramatical,2024.2.2,Win32,60.24096386,,,,,,,,,,,,,,,,,,,,,,,,288.4918,289.7397,l,1,[],[],[],[],[],[],[],0.5667,1,289.7398,290.2397,,,,,,459,FEM,AGR,150,mamá,la,a,0.5667,,290.2417,290.2428,-0.008333333,-0.051388889,0,0,0,,0,38,38,8,1,,,,
,,,,,,a6511dc3bfbef885a2bad779,66a626ef09d4e21e1a8894ec,67360fd9b98303c9d2112b2b,2024-11-14_08h58.08.540,Tarea de género gramatical,2024.2.2,Win32,60.24096386,,,,,,,,,,,,,,,,,,,,,,,,290.2438,291.7729,a,1,[],[],[],[],[],[],[],0.852,1,291.773,292.2727,,,,,,852,MAS,AGR,150,ladrón,el,l,0.852,,292.2728,292.2728,-0.008333333,-0.051388889,0,0,0,,0,39,39,401,1,,,,
,,,,,,a6511dc3bfbef885a2bad779,66a626ef09d4e21e1a8894ec,67360fd9b98303c9d2112b2b,2024-11-14_08h58.08.540,Tarea de género gramatical,2024.2.2,Win32,60.24096386,,,,,,,,,,,,,,,,,,,,,,,,292.2736,293.4724,l,1,[],[],[],[],[],[],[],0.5162,1,293.4726,293.9729,,,,,,547,FEM,CON,150,capa,,a,0.5162,,293.973,293.973,-0.008333333,-0.051388889,0,0,0,,0,40,40,96,1,,,,
,,,,,,a6511dc3bfbef885a2bad779,66a626ef09d4e21e1a8894ec,67360fd9b98303c9d2112b2b,2024-11-14_08h58.08.540,Tarea de género gramatical,2024.2.2,Win32,60.24096386,,,,,,,,,,,,,,,,,,,,,,,,293.975,295.2896,a,1,[],[],[],[],[],[],[],0.6338,1,295.2897,295.7894,,,,,,882,MAS,AGR,150,océano,el,l,0.6338,,295.7895,295.7895,-0.008333333,-0.051388889,0,0,0,,0,41,41,431,1,,,,
,,,,,,a6511dc3bfbef885a2bad779,66a626ef09d4e21e1a8894ec,67360fd9b98303c9d2112b2b,2024-11-14_08h58.08.540,Tarea de género gramatical,2024.2.2,Win32,60.24096386,,,,,,,,,,,,,,,,,,,,,,,,295.7906,296.8728,a,1,[],[],[],[],[],[],[],0.4058,1,296.8729,297.3728,,,,,,688,MAS,CON,150,norte,,l,0.4058,,297.3743,297.3754,-0.008333333,-0.051388889,0,0,0,,0,42,42,237,1,,,,
,,,,,,a6511dc3bfbef885a2bad779,66a626ef09d4e21e1a8894ec,67360fd9b98303c9d2112b2b,2024-11-14_08h58.08.540,Tarea de género gramatical,2024.2.2,Win32,60.24096386,,,,,,,,,,,,,,,,,,,,,,,,297.3765,298.656,a,1,[],[],[],[],[],[],[],0.6024,1,298.6561,299.1561,,,,,,528,MAS,AGR,150,oído,el,l,0.6024,,299.1562,299.1564,-0.008333333,-0.051388889,0,0,0,,0,43,43,77,1,,,,
,,,,,,a6511dc3bfbef885a2bad779,66a626ef09d4e21e1a8894ec,67360fd9b98303c9d2112b2b,2024-11-14_08h58.08.540,Tarea de género gramatical,2024.2.2,Win32,60.24096386,,,,,,,,,,,,,,,,,,,,,,,,299.1575,300.2894,a,1,[],[],[],[],[],[],[],0.4501,1,300.2895,300.7892,,,,,,712,MAS,CON,150,video,,l,0.4501,,300.7893,300.7894,-0.008333333,-0.051388889,0,0,0,,0,44,44,261,1,,,,
,,,,,,a6511dc3bfbef885a2bad779,66a626ef09d4e21e1a8894ec,67360fd9b98303c9d2112b2b,2024-11-14_08h58.08.540,Tarea de género gramatical,2024.2.2,Win32,60.24096386,,,,,,,,,,,,,,,,,,,,,,,,300.7915,301.9894,l,1,[],[],[],[],[],[],[],0.5297,1,301.9895,302.4893,,,,,,597,FEM,AGR,150,grúa,la,a,0.5297,,302.4894,302.4895,-0.008333333,-0.051388889,0,0,0,,0,45,45,146,1,,,,
,,,,,,a6511dc3bfbef885a2bad779,66a626ef09d4e21e1a8894ec,67360fd9b98303c9d2112b2b,2024-11-14_08h58.08.540,Tarea de género gramatical,2024.2.2,Win32,60.24096386,,,,,,,,,,,,,,,,,,,,,,,,302.4907,303.7895,l,1,[],[],[],[],[],[],[],0.6163,1,303.7896,304.2894,,,,,,769,FEM,CON,150,sangre,,a,0.6163,,304.2895,304.2895,-0.008333333,-0.051388889,0,0,0,,0,46,46,318,1,,,,
,,,,,,a6511dc3bfbef885a2bad779,66a626ef09d4e21e1a8894ec,67360fd9b98303c9d2112b2b,2024-11-14_08h58.08.540,Tarea de género gramatical,2024.2.2,Win32,60.24096386,,,,,,,,,,,,,,,,,,,,,,,,304.2907,305.4562,a,1,[],[],[],[],[],[],[],0.4915,1,305.4563,305.9559,,,,,,736,MAS,CON,150,reino,,l,0.4915,,305.9576,305.9588,-0.008333333,-0.051388889,0,0,0,,0,47,47,285,1,,,,
,,,,,,a6511dc3bfbef885a2bad779,66a626ef09d4e21e1a8894ec,67360fd9b98303c9d2112b2b,2024-11-14_08h58.08.540,Tarea de género gramatical,2024.2.2,Win32,60.24096386,,,,,,,,,,,,,,,,,,,,,,,,305.9598,307.2393,l,1,[],[],[],[],[],[],[],0.6012,1,307.2394,307.7394,,,,,,897,FEM,AGR,150,lógica,la,a,0.6012,,307.7394,307.7395,-0.008333333,-0.051388889,0,0,0,,0,48,48,446,1,,,,
,,,,,,a6511dc3bfbef885a2bad779,66a626ef09d4e21e1a8894ec,67360fd9b98303c9d2112b2b,2024-11-14_08h58.08.540,Tarea de género gramatical,2024.2.2,Win32,60.24096386,,,,,,,,,,,,,,,,,,,,,,,,307.7407,308.8392,a,1,[],[],[],[],[],[],[],0.4178,1,308.8393,309.339,,,,,,887,MAS,DIS,150,hombro,la,l,0.4178,,309.339,309.339,-0.008333333,-0.051388889,0,0,0,,0,49,49,436,1,,,,
,,,,,,a6511dc3bfbef885a2bad779,66a626ef09d4e21e1a8894ec,67360fd9b98303c9d2112b2b,2024-11-14_08h58.08.540,Tarea de género gramatical,2024.2.2,Win32,60.24096386,,,,,,,,,,,,,,,,,,,,,,,,309.3398,310.4227,l,1,[],[],[],[],[],[],[],0.4062,1,310.4227,310.9225,,,,,,777,FEM,AGR,150,tienda,la,a,0.4062,,310.9227,310.9228,-0.008333333,-0.051388889,0,0,0,,0,50,50,326,1,,,,
,,,,,,a6511dc3bfbef885a2bad779,66a626ef09d4e21e1a8894ec,67360fd9b98303c9d2112b2b,2024-11-14_08h58.08.540,Tarea de género gramatical,2024.2.2,Win32,60.24096386,,,,,,,,,,,,,,,,,,,,,,,,310.924,312.0227,a,1,[],[],[],[],[],[],[],0.4279,1,312.0227,312.5225,,,,,,504,MAS,AGR,150,humo,el,l,0.4279,,312.5239,312.5251,-0.008333333,-0.051388889,0,0,0,,0,51,51,53,1,,,,
,,,,,,a6511dc3bfbef885a2bad779,66a626ef09d4e21e1a8894ec,67360fd9b98303c9d2112b2b,2024-11-14_08h58.08.540,Tarea de género gramatical,2024.2.2,Win32,60.24096386,,,,,,,,,,,,,,,,,,,,,,,,312.526,313.7726,l,1,[],[],[],[],[],[],[],0.5746,1,313.7727,314.2726,,,,,,782,FEM,DIS,150,basura,el,a,0.5746,,314.2726,314.2728,-0.008333333,-0.051388889,0,0,0,,0,52,52,331,1,,,,
,,,,,,a6511dc3bfbef885a2bad779,66a626ef09d4e21e1a8894ec,67360fd9b98303c9d2112b2b,2024-11-14_08h58.08.540,Tarea de género gramatical,2024.2.2,Win32,60.24096386,,,,,,,,,,,,,,,,,,,,,,,,314.2739,315.3724,l,1,[],[],[],[],[],[],[],0.4264,1,315.3725,315.8724,,,,,,799,FEM,CON,150,prensa,,a,0.4264,,315.8725,315.8726,-0.008333333,-0.051388889,0,0,0,,0,53,53,348,1,,,,
,,,,,,a6511dc3bfbef885a2bad779,66a626ef09d4e21e1a8894ec,67360fd9b98303c9d2112b2b,2024-11-14_08h58.08.540,Tarea de género gramatical,2024.2.2,Win32,60.24096386,,,,,,,,,,,,,,,,,,,,,,,,315.8737,317.0225,a,1,[],[],[],[],[],[],[],0.4748,1,317.0227,317.5225,,,,,,484,MAS,CON,150,gato,,l,0.4748,,317.5226,317.5227,-0.008333333,-0.051388889,0,0,0,,0,54,54,33,1,,,,
,,,,,,a6511dc3bfbef885a2bad779,66a626ef09d4e21e1a8894ec,67360fd9b98303c9d2112b2b,2024-11-14_08h58.08.540,Tarea de género gramatical,2024.2.2,Win32,60.24096386,,,,,,,,,,,,,,,,,,,,,,,,317.5239,318.6726,a,1,[],[],[],[],[],[],[],0.4776,1,318.6726,319.1726,,,,,,826,MAS,CON,150,efecto,,l,0.4776,,319.1727,319.1728,-0.008333333,-0.051388889,0,0,0,,0,55,55,375,1,,,,
,,,,,,a6511dc3bfbef885a2bad779,66a626ef09d4e21e1a8894ec,67360fd9b98303c9d2112b2b,2024-11-14_08h58.08.540,Tarea de género gramatical,2024.2.2,Win32,60.24096386,,,,,,,,,,,,,,,,,,,,,,,,319.1739,320.3391,l,1,[],[],[],[],[],[],[],0.4948,1,320.3393,320.839,,,,,,855,FEM,AGR,150,parada,la,a,0.4948,,320.8404,320.8417,-0.008333333,-0.051388889,0,0,0,,0,56,56,404,1,,,,
,,,,,,a6511dc3bfbef885a2bad779,66a626ef09d4e21e1a8894ec,67360fd9b98303c9d2112b2b,2024-11-14_08h58.08.540,Tarea de género gramatical,2024.2.2,Win32,60.24096386,,,,,,,,,,,,,,,,,,,,,,,,320.8426,321.8559,l,1,[],[],[],[],[],[],[],0.3422,1,321.856,322.3556,,,,,,457,FEM,CON,150,hora,,a,0.3422,,322.3556,322.3558,-0.008333333,-0.051388889,0,0,0,,0,57,57,6,1,,,,
,,,,,,a6511dc3bfbef885a2bad779,66a626ef09d4e21e1a8894ec,67360fd9b98303c9d2112b2b,2024-11-14_08h58.08.540,Tarea de género gramatical,2024.2.2,Win32,60.24096386,,,,,,,,,,,,,,,,,,,,,,,,322.3575,323.7724,a,1,[],[],[],[],[],[],[],0.7414,1,323.7725,324.2724,,,,,,618,MAS,AGR,150,sitio,el,l,0.7414,,324.2725,324.2725,-0.008333333,-0.051388889,0,0,0,,0,58,58,167,1,,,,
,,,,,,a6511dc3bfbef885a2bad779,66a626ef09d4e21e1a8894ec,67360fd9b98303c9d2112b2b,2024-11-14_08h58.08.540,Tarea de género gramatical,2024.2.2,Win32,60.24096386,,,,,,,,,,,,,,,,,,,,,,,,324.2739,325.3888,l,1,[],[],[],[],[],[],[],0.4443,1,325.3889,325.8887,,,,,,537,FEM,AGR,150,risa,la,a,0.4443,,325.8888,325.8889,-0.008333333,-0.051388889,0,0,0,,0,59,59,86,1,,,,
,,,,,,a6511dc3bfbef885a2bad779,66a626ef09d4e21e1a8894ec,67360fd9b98303c9d2112b2b,2024-11-14_08h58.08.540,Tarea de género gramatical,2024.2.2,Win32,60.24096386,,,,,,,,,,,,,,,,,,,,,,,,325.89,327.1724,a,1,[],[],[],[],[],[],[],0.6001,1,327.1726,327.6723,,,,,,520,MAS,CON,150,palo,,l,0.6001,,327.6738,327.675,-0.008333333,-0.051388889,0,0,0,,0,60,60,69,1,,,,
,,,,,,a6511dc3bfbef885a2bad779,66a626ef09d4e21e1a8894ec,67360fd9b98303c9d2112b2b,2024-11-14_08h58.08.540,Tarea de género gramatical,2024.2.2,Win32,60.24096386,,,,,,,,,,,,,,,,,,,,,,,,327.6759,328.8219,a,1,[],[],[],[],[],[],[],0.4764,1,328.8221,329.3224,,,,,,816,MAS,AGR,150,riesgo,el,l,0.4764,,329.3225,329.3227,-0.008333333,-0.051388889,0,0,0,,0,61,61,365,1,,,,
,,,,,,a6511dc3bfbef885a2bad779,66a626ef09d4e21e1a8894ec,67360fd9b98303c9d2112b2b,2024-11-14_08h58.08.540,Tarea de género gramatical,2024.2.2,Win32,60.24096386,,,,,,,,,,,,,,,,,,,,,,,,329.3238,330.5722,a,1,[],[],[],[],[],[],[],0.5689,1,330.5723,331.0723,,,,,,714,MAS,AGR,150,pollo,el,l,0.5689,,331.0724,331.0726,-0.008333333,-0.051388889,0,0,0,,0,62,62,263,1,,,,
,,,,,,a6511dc3bfbef885a2bad779,66a626ef09d4e21e1a8894ec,67360fd9b98303c9d2112b2b,2024-11-14_08h58.08.540,Tarea de género gramatical,2024.2.2,Win32,60.24096386,,,,,,,,,,,,,,,,,,,,,,,,331.0737,332.2723,l,1,[],[],[],[],[],[],[],0.5199,1,332.2724,332.7722,,,,,,873,FEM,AGR,150,poesía,la,a,0.5199,,332.7723,332.7724,-0.008333333,-0.051388889,0,0,0,,0,63,63,422,1,,,,
,,,,,,a6511dc3bfbef885a2bad779,66a626ef09d4e21e1a8894ec,67360fd9b98303c9d2112b2b,2024-11-14_08h58.08.540,Tarea de género gramatical,2024.2.2,Win32,60.24096386,,,,,,,,,,,,,,,,,,,,,,,,332.7736,333.889,l,1,[],[],[],[],[],[],[],0.4399,1,333.8891,334.3889,,,,,,656,FEM,DIS,150,época,el,a,0.4399,,334.389,334.3891,-0.008333333,-0.051388889,0,0,0,,0,64,64,205,1,,,,
,,,,,,a6511dc3bfbef885a2bad779,66a626ef09d4e21e1a8894ec,67360fd9b98303c9d2112b2b,2024-11-14_08h58.08.540,Tarea de género gramatical,2024.2.2,Win32,60.24096386,,,,,,,,,,,,,,,,,,,,,,,,334.3904,335.7057,l,1,[],[],[],[],[],[],[],0.6335,1,335.7059,336.2056,,,,,,650,FEM,DIS,150,silla,el,a,0.6335,,336.2071,336.2085,-0.008333333,-0.051388889,0,0,0,,0,65,65,199,1,,,,
,,,,,,a6511dc3bfbef885a2bad779,66a626ef09d4e21e1a8894ec,67360fd9b98303c9d2112b2b,2024-11-14_08h58.08.540,Tarea de género gramatical,2024.2.2,Win32,60.24096386,,,,,,,,,,,,,,,,,,,,,,,,336.2094,337.3388,a,0,[],[],[],[],[],[],[],0.4505,0,337.3396,337.8385,,,,,,751,FEM,CON,150,verdad,,a,0.4505,,337.8386,337.8387,-0.008333333,-0.051388889,0,0,0,,0,66,66,300,1,,,,
,,,,,,a6511dc3bfbef885a2bad779,66a626ef09d4e21e1a8894ec,67360fd9b98303c9d2112b2b,2024-11-14_08h58.08.540,Tarea de género gramatical,2024.2.2,Win32,60.24096386,,,,,,,,,,,,,,,,,,,,,,,,337.84,339.0718,a,1,[],[],[],[],[],[],[],0.5621,1,339.0726,339.572,,,,,,498,MAS,AGR,150,loco,el,l,0.5621,,339.5721,339.5722,-0.008333333,-0.051388889,0,0,0,,0,67,67,47,1,,,,
,,,,,,a6511dc3bfbef885a2bad779,66a626ef09d4e21e1a8894ec,67360fd9b98303c9d2112b2b,2024-11-14_08h58.08.540,Tarea de género gramatical,2024.2.2,Win32,60.24096386,,,,,,,,,,,,,,,,,,,,,,,,339.5734,340.6723,a,1,[],[],[],[],[],[],[],0.4174,1,340.6723,341.1722,,,,,,846,MAS,AGR,150,tesoro,el,l,0.4174,,341.1723,341.1724,-0.008333333,-0.051388889,0,0,0,,0,68,68,395,1,,,,
,,,,,,a6511dc3bfbef885a2bad779,66a626ef09d4e21e1a8894ec,67360fd9b98303c9d2112b2b,2024-11-14_08h58.08.540,Tarea de género gramatical,2024.2.2,Win32,60.24096386,,,,,,,,,,,,,,,,,,,,,,,,341.1734,342.4055,a,1,[],[],[],[],[],[],[],0.5593,1,342.4057,342.9055,,,,,,742,MAS,CON,150,piano,,l,0.5593,,342.9073,342.9084,-0.008333333,-0.051388889,0,0,0,,0,69,69,291,1,,,,
,,,,,,a6511dc3bfbef885a2bad779,66a626ef09d4e21e1a8894ec,67360fd9b98303c9d2112b2b,2024-11-14_08h58.08.540,Tarea de género gramatical,2024.2.2,Win32,60.24096386,,,,,,,,,,,,,,,,,,,,,,,,342.9094,344.0722,a,1,[],[],[],[],[],[],[],0.4844,1,344.0723,344.5722,,,,,,750,MAS,AGR,150,túnel,el,l,0.4844,,344.5722,344.5723,-0.008333333,-0.051388889,0,0,0,,0,70,70,299,1,,,,
,,,,,,a6511dc3bfbef885a2bad779,66a626ef09d4e21e1a8894ec,67360fd9b98303c9d2112b2b,2024-11-14_08h58.08.540,Tarea de género gramatical,2024.2.2,Win32,60.24096386,,,,,,,,,,,,,,,,,,,,,,,,344.5736,345.6887,l,1,[],[],[],[],[],[],[],0.4384,1,345.6889,346.1888,,,,,,715,FEM,CON,150,rueda,,a,0.4384,,346.1889,346.1889,-0.008333333,-0.051388889,0,0,0,,0,71,71,264,1,,,,
,,,,,,a6511dc3bfbef885a2bad779,66a626ef09d4e21e1a8894ec,67360fd9b98303c9d2112b2b,2024-11-14_08h58.08.540,Tarea de género gramatical,2024.2.2,Win32,60.24096386,,,,,,,,,,,,,,,,,,,,,,,,346.1901,347.4386,a,1,[],[],[],[],[],[],[],0.5758,1,347.4387,347.9387,,,,,,845,MAS,DIS,150,correo,la,l,0.5758,,347.9389,347.939,-0.008333333,-0.051388889,0,0,0,,0,72,72,394,1,,,,
,,,,,,a6511dc3bfbef885a2bad779,66a626ef09d4e21e1a8894ec,67360fd9b98303c9d2112b2b,2024-11-14_08h58.08.540,Tarea de género gramatical,2024.2.2,Win32,60.24096386,,,,,,,,,,,,,,,,,,,,,,,,347.941,349.0887,a,1,[],[],[],[],[],[],[],0.4749,1,349.0889,349.5887,,,,,,492,MAS,AGR,150,show,el,l,0.4749,,349.5888,349.5888,-0.008333333,-0.051388889,0,0,0,,0,73,73,41,1,,,,
,,,,,,a6511dc3bfbef885a2bad779,66a626ef09d4e21e1a8894ec,67360fd9b98303c9d2112b2b,2024-11-14_08h58.08.540,Tarea de género gramatical,2024.2.2,Win32,60.24096386,,,,,,,,,,,,,,,,,,,,,,,,349.59,350.772,a,0,[],[],[],[],[],[],[],0.5009,0,350.7728,351.2717,,,,,,685,FEM,CON,150,torre,,a,0.5009,,351.2734,351.2744,-0.008333333,-0.051388889,0,0,0,,0,74,74,234,1,,,,
,,,,,,a6511dc3bfbef885a2bad779,66a626ef09d4e21e1a8894ec,67360fd9b98303c9d2112b2b,2024-11-14_08h58.08.540,Tarea de género gramatical,2024.2.2,Win32,60.24096386,,,,,,,,,,,,,,,,,,,,,,,,351.275,352.7384,l,0,[],[],[],[],[],[],[],0.7838,0,352.7385,353.2388,,,,,,533,MAS,DIS,150,nene,la,l,0.7838,,353.2389,353.239,-0.008333333,-0.051388889,0,0,0,,0,75,75,82,1,,,,
,,,,,,a6511dc3bfbef885a2bad779,66a626ef09d4e21e1a8894ec,67360fd9b98303c9d2112b2b,2024-11-14_08h58.08.540,Tarea de género gramatical,2024.2.2,Win32,60.24096386,,,,,,,,,,,,,,,,,,,,,,,,353.2401,354.355,a,0,[],[],[],[],[],[],[],0.4339,0,354.355,354.8554,,,,,,734,FEM,DIS,150,fruta,el,a,0.4339,,354.8554,354.8555,-0.008333333,-0.051388889,0,0,0,,0,76,76,283,1,,,,
,,,,,,a6511dc3bfbef885a2bad779,66a626ef09d4e21e1a8894ec,67360fd9b98303c9d2112b2b,2024-11-14_08h58.08.540,Tarea de género gramatical,2024.2.2,Win32,60.24096386,,,,,,,,,,,,,,,,,,,,,,,,354.8566,356.6719,a,1,[],[],[],[],[],[],[],1.1411,1,356.6728,357.172,,,,,,784,MAS,CON,150,ataque,,l,1.1411,,357.172,357.1721,-0.008333333,-0.051388889,0,0,0,,0,77,77,333,1,,,,
,,,,,,a6511dc3bfbef885a2bad779,66a626ef09d4e21e1a8894ec,67360fd9b98303c9d2112b2b,2024-11-14_08h58.08.540,Tarea de género gramatical,2024.2.2,Win32,60.24096386,,,,,,,,,,,,,,,,,,,,,,,,357.1733,358.4049,l,1,[],[],[],[],[],[],[],0.5523,1,358.4051,358.9053,,,,,,489,FEM,AGR,150,luna,la,a,0.5523,,358.9067,358.9079,-0.008333333,-0.051388889,0,0,0,,0,78,78,38,1,,,,
,,,,,,a6511dc3bfbef885a2bad779,66a626ef09d4e21e1a8894ec,67360fd9b98303c9d2112b2b,2024-11-14_08h58.08.540,Tarea de género gramatical,2024.2.2,Win32,60.24096386,,,,,,,,,,,,,,,,,,,,,,,,358.9088,360.272,a,0,[],[],[],[],[],[],[],0.6842,0,360.2728,360.7719,,,,,,753,FEM,AGR,150,maldad,la,a,0.6842,,360.772,360.7721,-0.008333333,-0.051388889,0,0,0,,0,79,79,302,1,,,,
,,,,,,a6511dc3bfbef885a2bad779,66a626ef09d4e21e1a8894ec,67360fd9b98303c9d2112b2b,2024-11-14_08h58.08.540,Tarea de género gramatical,2024.2.2,Win32,60.24096386,,,,,,,,,,,,,,,,,,,,,,,,360.7732,362.0052,a,0,[],[],[],[],[],[],[],0.558,0,362.0053,362.5049,,,,,,609,FEM,AGR,150,clase,la,a,0.558,,362.505,362.5051,-0.008333333,-0.051388889,0,0,0,,0,80,80,158,1,,,,
,,,,,,a6511dc3bfbef885a2bad779,66a626ef09d4e21e1a8894ec,67360fd9b98303c9d2112b2b,2024-11-14_08h58.08.540,Tarea de género gramatical,2024.2.2,Win32,60.24096386,,,,,,,,,,,,,,,,,,,,,,,,362.5062,363.7052,l,1,[],[],[],[],[],[],[],0.5188,1,363.7061,364.2052,,,,,,830,FEM,DIS,150,madera,el,a,0.5188,,364.2052,364.2053,-0.008333333,-0.051388889,0,0,0,,0,81,81,379,1,,,,
,,,,,,a6511dc3bfbef885a2bad779,66a626ef09d4e21e1a8894ec,67360fd9b98303c9d2112b2b,2024-11-14_08h58.08.540,Tarea de género gramatical,2024.2.2,Win32,60.24096386,,,,,,,,,,,,,,,,,,,,,,,,364.2064,365.5218,a,1,[],[],[],[],[],[],[],0.6411,1,365.522,366.0217,,,,,,707,MAS,DIS,150,pecho,la,l,0.6411,,366.0218,366.022,-0.008333333,-0.051388889,0,0,0,,0,82,82,256,1,,,,
,,,,,,a6511dc3bfbef885a2bad779,66a626ef09d4e21e1a8894ec,67360fd9b98303c9d2112b2b,2024-11-14_08h58.08.540,Tarea de género gramatical,2024.2.2,Win32,60.24096386,,,,,,,,,,,,,,,,,,,,,,,,366.023,367.1552,a,1,[],[],[],[],[],[],[],0.4566,1,367.1552,367.6552,,,,,,706,MAS,CON,150,techo,,l,0.4566,,367.6565,367.6578,-0.008333333,-0.051388889,0,0,0,,0,83,83,255,1,,,,
,,,,,,a6511dc3bfbef885a2bad779,66a626ef09d4e21e1a8894ec,67360fd9b98303c9d2112b2b,2024-11-14_08h58.08.540,Tarea de género gramatical,2024.2.2,Win32,60.24096386,,,,,,,,,,,,,,,,,,,,,,,,367.6588,368.9046,a,1,[],[],[],[],[],[],[],0.5788,1,368.9046,369.405,,,,,,616,MAS,CON,150,coche,,l,0.5788,,369.4051,369.4052,-0.008333333,-0.051388889,0,0,0,,0,84,84,165,1,,,,
,,,,,,a6511dc3bfbef885a2bad779,66a626ef09d4e21e1a8894ec,67360fd9b98303c9d2112b2b,2024-11-14_08h58.08.540,Tarea de género gramatical,2024.2.2,Win32,60.24096386,,,,,,,,,,,,,,,,,,,,,,,,369.4063,370.4884,l,1,[],[],[],[],[],[],[],0.4045,1,370.4884,370.9884,,,,,,859,FEM,CON,150,moneda,,a,0.4045,,370.9885,370.9885,-0.008333333,-0.051388889,0,0,0,,0,85,85,408,1,,,,
,,,,,,a6511dc3bfbef885a2bad779,66a626ef09d4e21e1a8894ec,67360fd9b98303c9d2112b2b,2024-11-14_08h58.08.540,Tarea de género gramatical,2024.2.2,Win32,60.24096386,,,,,,,,,,,,,,,,,,,,,,,,370.9898,372.205,a,1,[],[],[],[],[],[],[],0.5342,1,372.2052,372.7051,,,,,,473,MAS,DIS,150,rato,la,l,0.5342,,372.7052,372.7053,-0.008333333,-0.051388889,0,0,0,,0,86,86,22,1,,,,
,,,,,,a6511dc3bfbef885a2bad779,66a626ef09d4e21e1a8894ec,67360fd9b98303c9d2112b2b,2024-11-14_08h58.08.540,Tarea de género gramatical,2024.2.2,Win32,60.24096386,,,,,,,,,,,,,,,,,,,,,,,,372.7064,373.855,a,1,[],[],[],[],[],[],[],0.4691,1,373.8552,374.355,,,,,,521,MAS,DIS,150,pozo,la,l,0.4691,,374.3566,374.3577,-0.008333333,-0.051388889,0,0,0,,0,87,87,70,1,,,,
,,,,,,a6511dc3bfbef885a2bad779,66a626ef09d4e21e1a8894ec,67360fd9b98303c9d2112b2b,2024-11-14_08h58.08.540,Tarea de género gramatical,2024.2.2,Win32,60.24096386,,,,,,,,,,,,,,,,,,,,,,,,374.3587,375.7383,l,1,[],[],[],[],[],[],[],0.7012,1,375.7384,376.2383,,,,,,739,FEM,CON,150,tabla,,a,0.7012,,376.2384,376.2385,-0.008333333,-0.051388889,0,0,0,,0,88,88,288,1,,,,
,,,,,,a6511dc3bfbef885a2bad779,66a626ef09d4e21e1a8894ec,67360fd9b98303c9d2112b2b,2024-11-14_08h58.08.540,Tarea de género gramatical,2024.2.2,Win32,60.24096386,,,,,,,,,,,,,,,,,,,,,,,,376.2397,377.4215,l,1,[],[],[],[],[],[],[],0.5018,1,377.4215,377.9214,,,,,,680,FEM,DIS,150,regla,el,a,0.5018,,377.9215,377.9216,-0.008333333,-0.051388889,0,0,0,,0,89,89,229,1,,,,
,,,,,,a6511dc3bfbef885a2bad779,66a626ef09d4e21e1a8894ec,67360fd9b98303c9d2112b2b,2024-11-14_08h58.08.540,Tarea de género gramatical,2024.2.2,Win32,60.24096386,,,,,,,,,,,,,,,,,,,,,,,,377.9227,379.0217,a,1,[],[],[],[],[],[],[],0.4267,1,379.0218,379.5217,,,,,,708,MAS,AGR,150,polvo,el,l,0.4267,,379.5217,379.5218,-0.008333333,-0.051388889,0,0,0,,0,90,90,257,1,,,,
,,,,,,a6511dc3bfbef885a2bad779,66a626ef09d4e21e1a8894ec,67360fd9b98303c9d2112b2b,2024-11-14_08h58.08.540,Tarea de género gramatical,2024.2.2,Win32,60.24096386,,,,,,,,,,,,,,,,,,,,,,,,379.5229,380.6048,l,1,[],[],[],[],[],[],[],0.4063,1,380.6049,381.105,,,,,,841,FEM,CON,150,altura,,a,0.4063,,381.105,381.1051,-0.008333333,-0.051388889,0,0,0,,0,91,91,390,1,,,,
,,,,,,a6511dc3bfbef885a2bad779,66a626ef09d4e21e1a8894ec,67360fd9b98303c9d2112b2b,2024-11-14_08h58.08.540,Tarea de género gramatical,2024.2.2,Win32,60.24096386,,,,,,,,,,,,,,,,,,,,,,,,381.1063,382.1049,a,1,[],[],[],[],[],[],[],0.322,1,382.1051,382.6049,,,,,,677,MAS,DIS,150,vuelo,la,l,0.322,,382.6064,382.6076,-0.008333333,-0.051388889,0,0,0,,0,92,92,226,1,,,,
,,,,,,a6511dc3bfbef885a2bad779,66a626ef09d4e21e1a8894ec,67360fd9b98303c9d2112b2b,2024-11-14_08h58.08.540,Tarea de género gramatical,2024.2.2,Win32,60.24096386,,,,,,,,,,,,,,,,,,,,,,,,382.6085,383.7548,l,1,[],[],[],[],[],[],[],0.4689,1,383.755,384.255,,,,,,674,FEM,DIS,150,arena,el,a,0.4689,,384.255,384.2551,-0.008333333,-0.051388889,0,0,0,,0,93,93,223,1,,,,
,,,,,,a6511dc3bfbef885a2bad779,66a626ef09d4e21e1a8894ec,67360fd9b98303c9d2112b2b,2024-11-14_08h58.08.540,Tarea de género gramatical,2024.2.2,Win32,60.24096386,,,,,,,,,,,,,,,,,,,,,,,,384.2562,385.3211,a,1,[],[],[],[],[],[],[],0.3903,1,385.3212,385.8214,,,,,,827,MAS,DIS,150,jardín,la,l,0.3903,,385.8215,385.8217,-0.008333333,-0.051388889,0,0,0,,0,94,94,376,1,,,,
,,,,,,a6511dc3bfbef885a2bad779,66a626ef09d4e21e1a8894ec,67360fd9b98303c9d2112b2b,2024-11-14_08h58.08.540,Tarea de género gramatical,2024.2.2,Win32,60.24096386,,,,,,,,,,,,,,,,,,,,,,,,385.8227,386.9381,a,1,[],[],[],[],[],[],[],0.4397,1,386.9382,387.438,,,,,,743,MAS,DIS,150,patio,la,l,0.4397,,387.4381,387.4381,-0.008333333,-0.051388889,0,0,0,,0,95,95,292,1,,,,
,,,,,,a6511dc3bfbef885a2bad779,66a626ef09d4e21e1a8894ec,67360fd9b98303c9d2112b2b,2024-11-14_08h58.08.540,Tarea de género gramatical,2024.2.2,Win32,60.24096386,,,,,,,,,,,,,,,,,,,,,,,,387.4393,388.6048,a,1,[],[],[],[],[],[],[],0.4881,1,388.6049,389.1047,,,,,,900,MAS,AGR,150,conejo,el,l,0.4881,,389.1062,389.1072,-0.008333333,-0.051388889,0,0,0,,0,96,96,449,1,,,,
,,,,,,a6511dc3bfbef885a2bad779,66a626ef09d4e21e1a8894ec,67360fd9b98303c9d2112b2b,2024-11-14_08h58.08.540,Tarea de género gramatical,2024.2.2,Win32,60.24096386,,,,,,,,,,,,,,,,,,,,,,,,389.1081,390.1545,a,1,[],[],[],[],[],[],[],0.3766,1,390.1546,390.6547,,,,,,586,MAS,CON,150,vago,,l,0.3766,,390.6548,390.6549,-0.008333333,-0.051388889,0,0,0,,0,97,97,135,1,,,,
,,,,,,a6511dc3bfbef885a2bad779,66a626ef09d4e21e1a8894ec,67360fd9b98303c9d2112b2b,2024-11-14_08h58.08.540,Tarea de género gramatical,2024.2.2,Win32,60.24096386,,,,,,,,,,,,,,,,,,,,,,,,390.6559,391.9548,a,1,[],[],[],[],[],[],[],0.6233,1,391.955,392.4547,,,,,,634,MAS,CON,150,cielo,,l,0.6233,,392.4548,392.4549,-0.008333333,-0.051388889,0,0,0,,0,98,98,183,1,,,,
,,,,,,a6511dc3bfbef885a2bad779,66a626ef09d4e21e1a8894ec,67360fd9b98303c9d2112b2b,2024-11-14_08h58.08.540,Tarea de género gramatical,2024.2.2,Win32,60.24096386,,,,,,,,,,,,,,,,,,,,,,,,392.456,393.5049,l,1,[],[],[],[],[],[],[],0.3686,1,393.505,394.0047,,,,,,703,FEM,CON,150,aldea,,a,0.3686,,394.0048,394.005,-0.008333333,-0.051388889,0,0,0,,0,99,99,252,1,,,,
,,,,,,a6511dc3bfbef885a2bad779,66a626ef09d4e21e1a8894ec,67360fd9b98303c9d2112b2b,2024-11-14_08h58.08.540,Tarea de género gramatical,2024.2.2,Win32,60.24096386,,,,,,,,,,,,,,,,,,,,,,,,394.0061,395.188,a,1,[],[],[],[],[],[],[],0.5051,1,395.1881,395.6879,,,,,,497,MAS,DIS,150,olor,la,l,0.5051,,395.6879,395.688,-0.008333333,-0.051388889,0,0,0,,0,100,100,46,1,,,,
,,,,,,a6511dc3bfbef885a2bad779,66a626ef09d4e21e1a8894ec,67360fd9b98303c9d2112b2b,2024-11-14_08h58.08.540,Tarea de género gramatical,2024.2.2,Win32,60.24096386,,,,,,,,,,,,,,,,,,,,,,,,395.6894,396.938,l,1,[],[],[],[],[],[],[],0.5667,1,396.9381,397.4379,,,,,,835,FEM,CON,150,muñeca,,a,0.5667,,397.4393,397.4405,-0.008333333,-0.051388889,0,0,0,,0,101,101,384,1,,,,
,,,,,,a6511dc3bfbef885a2bad779,66a626ef09d4e21e1a8894ec,67360fd9b98303c9d2112b2b,2024-11-14_08h58.08.540,Tarea de género gramatical,2024.2.2,Win32,60.24096386,,,,,,,,,,,,,,,,,,,,,,,,397.4415,398.8214,l,1,[],[],[],[],[],[],[],0.7014,1,398.8215,399.321,,,,,,717,FEM,AGR,150,barba,la,a,0.7014,,399.321,399.3212,-0.008333333,-0.051388889,0,0,0,,0,102,102,266,1,,,,
,,,,,,a6511dc3bfbef885a2bad779,66a626ef09d4e21e1a8894ec,67360fd9b98303c9d2112b2b,2024-11-14_08h58.08.540,Tarea de género gramatical,2024.2.2,Win32,60.24096386,,,,,,,,,,,,,,,,,,,,,,,,399.3218,400.4547,a,1,[],[],[],[],[],[],[],0.4581,1,400.4548,400.9547,,,,,,486,MAS,AGR,150,dedo,el,l,0.4581,,400.9547,400.9548,-0.008333333,-0.051388889,0,0,0,,0,103,103,35,1,,,,
,,,,,,a6511dc3bfbef885a2bad779,66a626ef09d4e21e1a8894ec,67360fd9b98303c9d2112b2b,2024-11-14_08h58.08.540,Tarea de género gramatical,2024.2.2,Win32,60.24096386,,,,,,,,,,,,,,,,,,,,,,,,400.956,402.1546,a,1,[],[],[],[],[],[],[],0.5178,1,402.1547,402.6547,,,,,,797,MAS,DIS,150,cuello,la,l,0.5178,,402.6547,402.6549,-0.008333333,-0.051388889,0,0,0,,0,104,104,346,1,,,,
,,,,,,a6511dc3bfbef885a2bad779,66a626ef09d4e21e1a8894ec,67360fd9b98303c9d2112b2b,2024-11-14_08h58.08.540,Tarea de género gramatical,2024.2.2,Win32,60.24096386,,,,,,,,,,,,,,,,,,,,,,,,402.6561,404.0378,a,1,[],[],[],[],[],[],[],0.7023,1,404.0379,404.5379,,,,,,622,MAS,CON,150,poder,,l,0.7023,,404.5394,404.5405,-0.008333333,-0.051388889,0,0,0,,0,105,105,171,1,,,,
,,,,,,a6511dc3bfbef885a2bad779,66a626ef09d4e21e1a8894ec,67360fd9b98303c9d2112b2b,2024-11-14_08h58.08.540,Tarea de género gramatical,2024.2.2,Win32,60.24096386,,,,,,,,,,,,,,,,,,,,,,,,404.5416,405.8377,a,1,[],[],[],[],[],[],[],0.6171,1,405.8378,406.3379,,,,,,899,MAS,DIS,150,payaso,la,l,0.6171,,406.3379,406.3381,-0.008333333,-0.051388889,0,0,0,,0,106,106,448,1,,,,
,,,,,,a6511dc3bfbef885a2bad779,66a626ef09d4e21e1a8894ec,67360fd9b98303c9d2112b2b,2024-11-14_08h58.08.540,Tarea de género gramatical,2024.2.2,Win32,60.24096386,,,,,,,,,,,,,,,,,,,,,,,,406.3391,407.9211,a,1,[],[],[],[],[],[],[],0.9104,1,407.9213,408.4212,,,,,,676,MAS,CON,150,color,,l,0.9104,,408.4213,408.4214,-0.008333333,-0.051388889,0,0,0,,0,107,107,225,1,,,,
,,,,,,a6511dc3bfbef885a2bad779,66a626ef09d4e21e1a8894ec,67360fd9b98303c9d2112b2b,2024-11-14_08h58.08.540,Tarea de género gramatical,2024.2.2,Win32,60.24096386,,,,,,,,,,,,,,,,,,,,,,,,408.4224,409.487,a,1,[],[],[],[],[],[],[],0.3924,1,409.4871,409.9877,,,,,,892,MAS,CON,150,cuadro,,l,0.3924,,409.9877,409.9878,-0.008333333,-0.051388889,0,0,0,,0,108,108,441,1,,,,
,,,,,,a6511dc3bfbef885a2bad779,66a626ef09d4e21e1a8894ec,67360fd9b98303c9d2112b2b,2024-11-14_08h58.08.540,Tarea de género gramatical,2024.2.2,Win32,60.24096386,,,,,,,,,,,,,,,,,,,,,,,,409.989,411.2378,l,1,[],[],[],[],[],[],[],0.5672,1,411.2378,411.7376,,,,,,476,FEM,DIS,150,pena,el,a,0.5672,,411.7377,411.7379,-0.008333333,-0.051388889,0,0,0,,0,109,109,25,1,,,,
,,,,,,a6511dc3bfbef885a2bad779,66a626ef09d4e21e1a8894ec,67360fd9b98303c9d2112b2b,2024-11-14_08h58.08.540,Tarea de género gramatical,2024.2.2,Win32,60.24096386,,,,,,,,,,,,,,,,,,,,,,,,411.739,412.9876,a,1,[],[],[],[],[],[],[],0.5686,1,412.9877,413.4876,,,,,,731,MAS,DIS,150,actor,la,l,0.5686,,413.489,413.4901,-0.008333333,-0.051388889,0,0,0,,0,110,110,280,1,,,,
,,,,,,a6511dc3bfbef885a2bad779,66a626ef09d4e21e1a8894ec,67360fd9b98303c9d2112b2b,2024-11-14_08h58.08.540,Tarea de género gramatical,2024.2.2,Win32,60.24096386,,,,,,,,,,,,,,,,,,,,,,,,413.491,414.6878,l,1,[],[],[],[],[],[],[],0.5164,1,414.688,415.1877,,,,,,644,FEM,DIS,150,banda,el,a,0.5164,,415.1877,415.1878,-0.008333333,-0.051388889,0,0,0,,0,111,111,193,1,,,,
,,,,,,a6511dc3bfbef885a2bad779,66a626ef09d4e21e1a8894ec,67360fd9b98303c9d2112b2b,2024-11-14_08h58.08.540,Tarea de género gramatical,2024.2.2,Win32,60.24096386,,,,,,,,,,,,,,,,,,,,,,,,415.189,416.521,l,1,[],[],[],[],[],[],[],0.6537,1,416.5212,417.0212,,,,,,735,FEM,AGR,150,mafia,la,a,0.6537,,417.0213,417.0213,-0.008333333,-0.051388889,0,0,0,,0,112,112,284,1,,,,
,,,,,,a6511dc3bfbef885a2bad779,66a626ef09d4e21e1a8894ec,67360fd9b98303c9d2112b2b,2024-11-14_08h58.08.540,Tarea de género gramatical,2024.2.2,Win32,60.24096386,,,,,,,,,,,,,,,,,,,,,,,,417.0225,418.1877,a,1,[],[],[],[],[],[],[],0.4916,1,418.1878,418.6874,,,,,,833,MAS,DIS,150,parque,la,l,0.4916,,418.6876,418.6877,-0.008333333,-0.051388889,0,0,0,,0,113,113,382,1,,,,
,,,,,,a6511dc3bfbef885a2bad779,66a626ef09d4e21e1a8894ec,67360fd9b98303c9d2112b2b,2024-11-14_08h58.08.540,Tarea de género gramatical,2024.2.2,Win32,60.24096386,,,,,,,,,,,,,,,,,,,,,,,,418.6888,419.8375,a,1,[],[],[],[],[],[],[],0.4675,1,419.8377,420.3375,,,,,,761,MAS,DIS,150,camino,la,l,0.4675,,420.339,420.3402,-0.008333333,-0.051388889,0,0,0,,0,114,114,310,1,,,,
,,,,,,a6511dc3bfbef885a2bad779,66a626ef09d4e21e1a8894ec,67360fd9b98303c9d2112b2b,2024-11-14_08h58.08.540,Tarea de género gramatical,2024.2.2,Win32,60.24096386,,,,,,,,,,,,,,,,,,,,,,,,420.3412,421.6044,a,0,[],[],[],[],[],[],[],0.592,0,421.6054,422.1042,,,,,,800,FEM,DIS,150,imagen,el,a,0.592,,422.1043,422.1044,-0.008333333,-0.051388889,0,0,0,,0,115,115,349,1,,,,
,,,,,,a6511dc3bfbef885a2bad779,66a626ef09d4e21e1a8894ec,67360fd9b98303c9d2112b2b,2024-11-14_08h58.08.540,Tarea de género gramatical,2024.2.2,Win32,60.24096386,,,,,,,,,,,,,,,,,,,,,,,,422.1057,423.721,a,1,[],[],[],[],[],[],[],0.9406,1,423.7218,424.2209,,,,,,557,MAS,DIS,150,cubo,la,l,0.9406,,424.221,424.2211,-0.008333333,-0.051388889,0,0,0,,0,116,116,106,1,,,,
,,,,,,a6511dc3bfbef885a2bad779,66a626ef09d4e21e1a8894ec,67360fd9b98303c9d2112b2b,2024-11-14_08h58.08.540,Tarea de género gramatical,2024.2.2,Win32,60.24096386,,,,,,,,,,,,,,,,,,,,,,,,424.2223,425.5543,a,1,[],[],[],[],[],[],[],0.6514,1,425.5544,426.0541,,,,,,562,MAS,CON,150,reto,,l,0.6514,,426.0541,426.0542,-0.008333333,-0.051388889,0,0,0,,0,117,117,111,1,,,,
,,,,,,a6511dc3bfbef885a2bad779,66a626ef09d4e21e1a8894ec,67360fd9b98303c9d2112b2b,2024-11-14_08h58.08.540,Tarea de género gramatical,2024.2.2,Win32,60.24096386,,,,,,,,,,,,,,,,,,,,,,,,426.055,427.2043,a,1,[],[],[],[],[],[],[],0.4672,1,427.2045,427.7042,,,,,,551,MAS,DIS,150,giro,la,l,0.4672,,427.7043,427.7045,-0.008333333,-0.051388889,0,0,0,,0,118,118,100,1,,,,
,,,,,,a6511dc3bfbef885a2bad779,66a626ef09d4e21e1a8894ec,67360fd9b98303c9d2112b2b,2024-11-14_08h58.08.540,Tarea de género gramatical,2024.2.2,Win32,60.24096386,,,,,,,,,,,,,,,,,,,,,,,,427.7058,428.8874,a,0,[],[],[],[],[],[],[],0.5049,0,428.8882,429.3873,,,,,,813,FEM,AGR,150,unidad,la,a,0.5049,,429.3888,429.3899,-0.008333333,-0.051388889,0,0,0,,0,119,119,362,1,,,,
,,,,,,a6511dc3bfbef885a2bad779,66a626ef09d4e21e1a8894ec,67360fd9b98303c9d2112b2b,2024-11-14_08h58.08.540,Tarea de género gramatical,2024.2.2,Win32,60.24096386,,,,,,,,,,,,,,,,,,,,,,,,429.3908,430.5373,a,1,[],[],[],[],[],[],[],0.4717,1,430.5382,431.0372,,,,,,838,MAS,CON,150,empleo,,l,0.4717,,431.0373,431.0374,-0.008333333,-0.051388889,0,0,0,,0,120,120,387,1,,,,
,,,,,,a6511dc3bfbef885a2bad779,66a626ef09d4e21e1a8894ec,67360fd9b98303c9d2112b2b,2024-11-14_08h58.08.540,Tarea de género gramatical,2024.2.2,Win32,60.24096386,,,,,,,,,,,,,,,,,,,,,,,,431.0385,432.454,l,0,[],[],[],[],[],[],[],0.7405,0,432.4548,432.9538,,,,,,527,MAS,DIS,150,pico,la,l,0.7405,,432.9539,432.954,-0.008333333,-0.051388889,0,0,0,,0,121,121,76,1,,,,
,,,,,,a6511dc3bfbef885a2bad779,66a626ef09d4e21e1a8894ec,67360fd9b98303c9d2112b2b,2024-11-14_08h58.08.540,Tarea de género gramatical,2024.2.2,Win32,60.24096386,,,,,,,,,,,,,,,,,,,,,,,,432.9553,434.1038,l,1,[],[],[],[],[],[],[],0.4787,1,434.1046,434.604,,,,,,639,FEM,AGR,150,pista,la,a,0.4787,,434.604,434.6041,-0.008333333,-0.051388889,0,0,0,,0,122,122,188,1,,,,
,,,,,,a6511dc3bfbef885a2bad779,66a626ef09d4e21e1a8894ec,67360fd9b98303c9d2112b2b,2024-11-14_08h58.08.540,Tarea de género gramatical,2024.2.2,Win32,60.24096386,,,,,,,,,,,,,,,,,,,,,,,,434.6051,435.7042,l,1,[],[],[],[],[],[],[],0.4259,1,435.7042,436.2041,,,,,,519,FEM,AGR,150,rata,la,a,0.4259,,436.2055,436.207,-0.008333333,-0.051388889,0,0,0,,0,123,123,68,1,,,,
,,,,,,a6511dc3bfbef885a2bad779,66a626ef09d4e21e1a8894ec,67360fd9b98303c9d2112b2b,2024-11-14_08h58.08.540,Tarea de género gramatical,2024.2.2,Win32,60.24096386,,,,,,,,,,,,,,,,,,,,,,,,436.2079,437.4207,a,1,[],[],[],[],[],[],[],0.538,1,437.4209,437.9207,,,,,,467,MAS,DIS,150,modo,la,l,0.538,,437.9207,437.9209,-0.008333333,-0.051388889,0,0,0,,0,124,124,16,1,,,,
,,,,,,a6511dc3bfbef885a2bad779,66a626ef09d4e21e1a8894ec,67360fd9b98303c9d2112b2b,2024-11-14_08h58.08.540,Tarea de género gramatical,2024.2.2,Win32,60.24096386,,,,,,,,,,,,,,,,,,,,,,,,437.922,439.1707,a,1,[],[],[],[],[],[],[],0.5736,1,439.1708,439.6708,,,,,,648,MAS,AGR,150,hotel,el,l,0.5736,,439.6708,439.6709,-0.008333333,-0.051388889,0,0,0,,0,125,125,197,1,,,,
,,,,,,a6511dc3bfbef885a2bad779,66a626ef09d4e21e1a8894ec,67360fd9b98303c9d2112b2b,2024-11-14_08h58.08.540,Tarea de género gramatical,2024.2.2,Win32,60.24096386,,,,,,,,,,,,,,,,,,,,,,,,439.672,440.7039,l,1,[],[],[],[],[],[],[],0.3565,1,440.704,441.2041,,,,,,872,FEM,DIS,150,rutina,el,a,0.3565,,441.2041,441.2042,-0.008333333,-0.051388889,0,0,0,,0,126,126,421,1,,,,
,,,,,,a6511dc3bfbef885a2bad779,66a626ef09d4e21e1a8894ec,67360fd9b98303c9d2112b2b,2024-11-14_08h58.08.540,Tarea de género gramatical,2024.2.2,Win32,60.24096386,,,,,,,,,,,,,,,,,,,,,,,,441.2054,442.3039,a,1,[],[],[],[],[],[],[],0.4248,1,442.304,442.8041,,,,,,647,MAS,DIS,150,avión,la,l,0.4248,,442.8042,442.8043,-0.008333333,-0.051388889,0,0,0,,0,127,127,196,1,,,,
,,,,,,a6511dc3bfbef885a2bad779,66a626ef09d4e21e1a8894ec,67360fd9b98303c9d2112b2b,2024-11-14_08h58.08.540,Tarea de género gramatical,2024.2.2,Win32,60.24096386,,,,,,,,,,,,,,,,,,,,,,,,442.8054,444.0707,a,1,[],[],[],[],[],[],[],0.5841,1,444.0708,444.5706,,,,,,844,MAS,CON,150,examen,,l,0.5841,,444.572,444.5731,-0.008333333,-0.051388889,0,0,0,,0,128,128,393,1,,,,
,,,,,,a6511dc3bfbef885a2bad779,66a626ef09d4e21e1a8894ec,67360fd9b98303c9d2112b2b,2024-11-14_08h58.08.540,Tarea de género gramatical,2024.2.2,Win32,60.24096386,,,,,,,,,,,,,,,,,,,,,,,,444.5741,445.7872,l,1,[],[],[],[],[],[],[],0.536,1,445.7873,446.2871,,,,,,589,FEM,CON,150,pipa,,a,0.536,,446.2871,446.2872,-0.008333333,-0.051388889,0,0,0,,0,129,129,138,1,,,,
,,,,,,a6511dc3bfbef885a2bad779,66a626ef09d4e21e1a8894ec,67360fd9b98303c9d2112b2b,2024-11-14_08h58.08.540,Tarea de género gramatical,2024.2.2,Win32,60.24096386,,,,,,,,,,,,,,,,,,,,,,,,446.2885,447.487,l,1,[],[],[],[],[],[],[],0.5248,1,447.4872,447.987,,,,,,723,FEM,AGR,150,tarta,la,a,0.5248,,447.987,447.9872,-0.008333333,-0.051388889,0,0,0,,0,130,130,272,1,,,,
,,,,,,a6511dc3bfbef885a2bad779,66a626ef09d4e21e1a8894ec,67360fd9b98303c9d2112b2b,2024-11-14_08h58.08.540,Tarea de género gramatical,2024.2.2,Win32,60.24096386,,,,,,,,,,,,,,,,,,,,,,,,447.9883,449.2039,a,1,[],[],[],[],[],[],[],0.5439,1,449.204,449.7037,,,,,,732,MAS,AGR,150,bolso,el,l,0.5439,,449.7038,449.704,-0.008333333,-0.051388889,0,0,0,,0,131,131,281,1,,,,
,,,,,,a6511dc3bfbef885a2bad779,66a626ef09d4e21e1a8894ec,67360fd9b98303c9d2112b2b,2024-11-14_08h58.08.540,Tarea de género gramatical,2024.2.2,Win32,60.24096386,,,,,,,,,,,,,,,,,,,,,,,,449.705,450.8204,a,1,[],[],[],[],[],[],[],0.4416,1,450.8206,451.3205,,,,,,510,MAS,AGR,150,tono,el,l,0.4416,,451.3219,451.3231,-0.008333333,-0.051388889,0,0,0,,0,132,132,59,1,,,,
,,,,,,a6511dc3bfbef885a2bad779,66a626ef09d4e21e1a8894ec,67360fd9b98303c9d2112b2b,2024-11-14_08h58.08.540,Tarea de género gramatical,2024.2.2,Win32,60.24096386,,,,,,,,,,,,,,,,,,,,,,,,451.3241,452.487,a,1,[],[],[],[],[],[],[],0.4917,1,452.487,452.987,,,,,,588,MAS,AGR,150,luto,el,l,0.4917,,452.987,452.9872,-0.008333333,-0.051388889,0,0,0,,0,133,133,137,1,,,,
,,,,,,a6511dc3bfbef885a2bad779,66a626ef09d4e21e1a8894ec,67360fd9b98303c9d2112b2b,2024-11-14_08h58.08.540,Tarea de género gramatical,2024.2.2,Win32,60.24096386,,,,,,,,,,,,,,,,,,,,,,,,452.9883,454.1539,l,1,[],[],[],[],[],[],[],0.4851,1,454.154,454.6537,,,,,,686,FEM,DIS,150,deuda,el,a,0.4851,,454.6537,454.6538,-0.008333333,-0.051388889,0,0,0,,0,134,134,235,1,,,,
,,,,,,a6511dc3bfbef885a2bad779,66a626ef09d4e21e1a8894ec,67360fd9b98303c9d2112b2b,2024-11-14_08h58.08.540,Tarea de género gramatical,2024.2.2,Win32,60.24096386,,,,,,,,,,,,,,,,,,,,,,,,454.6548,455.8205,l,1,[],[],[],[],[],[],[],0.4838,1,455.8205,456.3205,,,,,,793,FEM,CON,150,trampa,,a,0.4838,,456.3206,456.3206,-0.008333333,-0.051388889,0,0,0,,0,135,135,342,1,,,,
,,,,,,a6511dc3bfbef885a2bad779,66a626ef09d4e21e1a8894ec,67360fd9b98303c9d2112b2b,2024-11-14_08h58.08.540,Tarea de género gramatical,2024.2.2,Win32,60.24096386,,,,,,,,,,,,,,,,,,,,,,,,456.3219,457.3869,l,1,[],[],[],[],[],[],[],0.385,1,457.387,457.887,,,,,,699,FEM,AGR,150,crema,la,a,0.385,,457.8871,457.8872,-0.008333333,-0.051388889,0,0,0,,0,136,136,248,1,,,,
,,,,,,a6511dc3bfbef885a2bad779,66a626ef09d4e21e1a8894ec,67360fd9b98303c9d2112b2b,2024-11-14_08h58.08.540,Tarea de género gramatical,2024.2.2,Win32,60.24096386,,,,,,,,,,,,,,,,,,,,,,,,457.8883,458.8865,l,1,[],[],[],[],[],[],[],0.3264,1,458.8866,459.3869,,,,,,531,FEM,AGR,150,cima,la,a,0.3264,,459.3883,459.3895,-0.008333333,-0.051388889,0,0,0,,0,137,137,80,1,,,,
,,,,,,a6511dc3bfbef885a2bad779,66a626ef09d4e21e1a8894ec,67360fd9b98303c9d2112b2b,2024-11-14_08h58.08.540,Tarea de género gramatical,2024.2.2,Win32,60.24096386,,,,,,,,,,,,,,,,,,,,,,,,459.3904,460.6869,a,1,[],[],[],[],[],[],[],0.619,1,460.6871,461.1871,,,,,,828,MAS,AGR,150,pastel,el,l,0.619,,461.1872,461.1872,-0.008333333,-0.051388889,0,0,0,,0,138,138,377,1,,,,
,,,,,,a6511dc3bfbef885a2bad779,66a626ef09d4e21e1a8894ec,67360fd9b98303c9d2112b2b,2024-11-14_08h58.08.540,Tarea de género gramatical,2024.2.2,Win32,60.24096386,,,,,,,,,,,,,,,,,,,,,,,,461.1883,462.3035,a,0,[],[],[],[],[],[],[],0.4443,0,462.3042,462.8034,,,,,,602,FEM,DIS,150,gente,el,a,0.4443,,462.8035,462.8036,-0.008333333,-0.051388889,0,0,0,,0,139,139,151,1,,,,
,,,,,,a6511dc3bfbef885a2bad779,66a626ef09d4e21e1a8894ec,67360fd9b98303c9d2112b2b,2024-11-14_08h58.08.540,Tarea de género gramatical,2024.2.2,Win32,60.24096386,,,,,,,,,,,,,,,,,,,,,,,,462.8047,464.0869,a,1,[],[],[],[],[],[],[],0.602,1,464.0877,464.5868,,,,,,570,MAS,AGR,150,puño,el,l,0.602,,464.5869,464.5869,-0.008333333,-0.051388889,0,0,0,,0,140,140,119,1,,,,
,,,,,,a6511dc3bfbef885a2bad779,66a626ef09d4e21e1a8894ec,67360fd9b98303c9d2112b2b,2024-11-14_08h58.08.540,Tarea de género gramatical,2024.2.2,Win32,60.24096386,,,,,,,,,,,,,,,,,,,,,,,,464.588,465.7702,a,1,[],[],[],[],[],[],[],0.5023,1,465.7703,466.2703,,,,,,526,MAS,CON,150,lujo,,l,0.5023,,466.2718,466.2731,-0.008333333,-0.051388889,0,0,0,,0,141,141,75,1,,,,
,,,,,,a6511dc3bfbef885a2bad779,66a626ef09d4e21e1a8894ec,67360fd9b98303c9d2112b2b,2024-11-14_08h58.08.540,Tarea de género gramatical,2024.2.2,Win32,60.24096386,,,,,,,,,,,,,,,,,,,,,,,,466.274,467.3867,a,1,[],[],[],[],[],[],[],0.4356,1,467.3868,467.8868,,,,,,702,MAS,AGR,150,viejo,el,l,0.4356,,467.8868,467.8869,-0.008333333,-0.051388889,0,0,0,,0,142,142,251,1,,,,
,,,,,,a6511dc3bfbef885a2bad779,66a626ef09d4e21e1a8894ec,67360fd9b98303c9d2112b2b,2024-11-14_08h58.08.540,Tarea de género gramatical,2024.2.2,Win32,60.24096386,,,,,,,,,,,,,,,,,,,,,,,,467.8881,469.0702,l,1,[],[],[],[],[],[],[],0.4996,1,469.0703,469.5701,,,,,,506,FEM,DIS,150,bola,el,a,0.4996,,469.5702,469.5704,-0.008333333,-0.051388889,0,0,0,,0,143,143,55,1,,,,
,,,,,,a6511dc3bfbef885a2bad779,66a626ef09d4e21e1a8894ec,67360fd9b98303c9d2112b2b,2024-11-14_08h58.08.540,Tarea de género gramatical,2024.2.2,Win32,60.24096386,,,,,,,,,,,,,,,,,,,,,,,,469.5714,470.9867,l,1,[],[],[],[],[],[],[],0.7452,1,470.9869,471.4868,,,,,,607,FEM,CON,150,madre,,a,0.7452,,471.4868,471.487,-0.008333333,-0.051388889,0,0,0,,0,144,144,156,1,,,,
,,,,,,a6511dc3bfbef885a2bad779,66a626ef09d4e21e1a8894ec,67360fd9b98303c9d2112b2b,2024-11-14_08h58.08.540,Tarea de género gramatical,2024.2.2,Win32,60.24096386,,,,,,,,,,,,,,,,,,,,,,,,471.488,472.6035,l,1,[],[],[],[],[],[],[],0.4329,1,472.6036,473.1036,,,,,,463,FEM,CON,150,hija,,a,0.4329,,473.1036,473.1038,-0.008333333,-0.051388889,0,0,0,,0,145,145,12,1,,,,
,,,,,,a6511dc3bfbef885a2bad779,66a626ef09d4e21e1a8894ec,67360fd9b98303c9d2112b2b,2024-11-14_08h58.08.540,Tarea de género gramatical,2024.2.2,Win32,60.24096386,,,,,,,,,,,,,,,,,,,,,,,,473.1048,474.1366,l,1,[],[],[],[],[],[],[],0.3591,1,474.1368,474.6365,,,,,,787,FEM,CON,150,escena,,a,0.3591,,474.6379,474.6392,-0.008333333,-0.051388889,0,0,0,,0,146,146,336,1,,,,
,,,,,,a6511dc3bfbef885a2bad779,66a626ef09d4e21e1a8894ec,67360fd9b98303c9d2112b2b,2024-11-14_08h58.08.540,Tarea de género gramatical,2024.2.2,Win32,60.24096386,,,,,,,,,,,,,,,,,,,,,,,,474.6402,475.9035,a,1,[],[],[],[],[],[],[],0.5827,1,475.9035,476.4034,,,,,,546,MAS,AGR,150,pato,el,l,0.5827,,476.4035,476.4035,-0.008333333,-0.051388889,0,0,0,,0,147,147,95,1,,,,
,,,,,,a6511dc3bfbef885a2bad779,66a626ef09d4e21e1a8894ec,67360fd9b98303c9d2112b2b,2024-11-14_08h58.08.540,Tarea de género gramatical,2024.2.2,Win32,60.24096386,,,,,,,,,,,,,,,,,,,,,,,,476.4047,477.5035,l,1,[],[],[],[],[],[],[],0.4165,1,477.5037,478.0035,,,,,,465,FEM,AGR,150,cama,la,a,0.4165,,478.0036,478.0037,-0.008333333,-0.051388889,0,0,0,,0,148,148,14,1,,,,
,,,,,,a6511dc3bfbef885a2bad779,66a626ef09d4e21e1a8894ec,67360fd9b98303c9d2112b2b,2024-11-14_08h58.08.540,Tarea de género gramatical,2024.2.2,Win32,60.24096386,,,,,,,,,,,,,,,,,,,,,,,,478.0049,479.3701,l,0,[],[],[],[],[],[],[],0.6879,0,479.371,479.8701,,,,,,809,MAS,DIS,150,bosque,la,l,0.6879,,479.8702,479.8703,-0.008333333,-0.051388889,0,0,0,,0,149,149,358,1,,,,
,,,,,,a6511dc3bfbef885a2bad779,66a626ef09d4e21e1a8894ec,67360fd9b98303c9d2112b2b,2024-11-14_08h58.08.540,Tarea de género gramatical,2024.2.2,Win32,60.24096386,,,,,,,,,,,,,,,,,,,,,,,,479.8714,481.1202,l,1,[],[],[],[],[],[],[],0.5684,1,481.1209,481.6202,,,,,,481,FEM,CON,150,edad,,a,0.5684,,481.6215,504.2533,-0.008333333,-0.051388889,0,0,0,space,0,150,150,30,1,22.612,,,
,,,,,,a6511dc3bfbef885a2bad779,66a626ef09d4e21e1a8894ec,67360fd9b98303c9d2112b2b,2024-11-14_08h58.08.540,Tarea de género gramatical,2024.2.2,Win32,60.24096386,,,,,,,,,,,,,,,,,,,,,,,,504.2546,505.5364,a,1,[],[],[],[],[],[],[],0.6021,1,505.5365,506.0364,,,,,,779,MAS,DIS,150,futuro,la,l,0.6021,,506.0364,506.0366,-0.008333333,-0.051388889,0,0,0,,0,151,151,328,1,,,,
,,,,,,a6511dc3bfbef885a2bad779,66a626ef09d4e21e1a8894ec,67360fd9b98303c9d2112b2b,2024-11-14_08h58.08.540,Tarea de género gramatical,2024.2.2,Win32,60.24096386,,,,,,,,,,,,,,,,,,,,,,,,506.0378,507.3364,a,0,[],[],[],[],[],[],[],0.625,0,507.3373,507.8363,,,,,,757,FEM,CON,150,suerte,,a,0.625,,507.8363,507.8364,-0.008333333,-0.051388889,0,0,0,,0,152,152,306,1,,,,
,,,,,,a6511dc3bfbef885a2bad779,66a626ef09d4e21e1a8894ec,67360fd9b98303c9d2112b2b,2024-11-14_08h58.08.540,Tarea de género gramatical,2024.2.2,Win32,60.24096386,,,,,,,,,,,,,,,,,,,,,,,,507.8376,508.8196,l,1,[],[],[],[],[],[],[],0.3011,1,508.8204,509.3197,,,,,,482,FEM,DIS,150,caja,el,a,0.3011,,509.3197,509.3199,-0.008333333,-0.051388889,0,0,0,,0,153,153,31,1,,,,
,,,,,,a6511dc3bfbef885a2bad779,66a626ef09d4e21e1a8894ec,67360fd9b98303c9d2112b2b,2024-11-14_08h58.08.540,Tarea de género gramatical,2024.2.2,Win32,60.24096386,,,,,,,,,,,,,,,,,,,,,,,,509.321,510.6194,a,1,[],[],[],[],[],[],[],0.6175,1,510.6195,511.1196,,,,,,720,MAS,AGR,150,queso,el,l,0.6175,,511.1197,511.1199,-0.008333333,-0.051388889,0,0,0,,0,154,154,269,1,,,,
,,,,,,a6511dc3bfbef885a2bad779,66a626ef09d4e21e1a8894ec,67360fd9b98303c9d2112b2b,2024-11-14_08h58.08.540,Tarea de género gramatical,2024.2.2,Win32,60.24096386,,,,,,,,,,,,,,,,,,,,,,,,511.1209,512.2693,a,1,[],[],[],[],[],[],[],0.4766,1,512.2695,512.7695,,,,,,713,MAS,DIS,150,carro,la,l,0.4766,,512.771,512.772,-0.008333333,-0.051388889,0,0,0,,0,155,155,262,1,,,,
,,,,,,a6511dc3bfbef885a2bad779,66a626ef09d4e21e1a8894ec,67360fd9b98303c9d2112b2b,2024-11-14_08h58.08.540,Tarea de género gramatical,2024.2.2,Win32,60.24096386,,,,,,,,,,,,,,,,,,,,,,,,512.773,513.903,a,1,[],[],[],[],[],[],[],0.4592,1,513.9031,514.4028,,,,,,876,MAS,AGR,150,pánico,el,l,0.4592,,514.4029,514.403,-0.008333333,-0.051388889,0,0,0,,0,156,156,425,1,,,,
,,,,,,a6511dc3bfbef885a2bad779,66a626ef09d4e21e1a8894ec,67360fd9b98303c9d2112b2b,2024-11-14_08h58.08.540,Tarea de género gramatical,2024.2.2,Win32,60.24096386,,,,,,,,,,,,,,,,,,,,,,,,514.4041,515.4197,a,1,[],[],[],[],[],[],[],0.3415,1,515.4197,515.9195,,,,,,516,MAS,AGR,150,muro,el,l,0.3415,,515.9196,515.9197,-0.008333333,-0.051388889,0,0,0,,0,157,157,65,1,,,,
,,,,,,a6511dc3bfbef885a2bad779,66a626ef09d4e21e1a8894ec,67360fd9b98303c9d2112b2b,2024-11-14_08h58.08.540,Tarea de género gramatical,2024.2.2,Win32,60.24096386,,,,,,,,,,,,,,,,,,,,,,,,515.9208,516.9696,l,1,[],[],[],[],[],[],[],0.3674,1,516.9697,517.4696,,,,,,501,FEM,AGR,150,bala,la,a,0.3674,,517.4696,517.4697,-0.008333333,-0.051388889,0,0,0,,0,158,158,50,1,,,,
,,,,,,a6511dc3bfbef885a2bad779,66a626ef09d4e21e1a8894ec,67360fd9b98303c9d2112b2b,2024-11-14_08h58.08.540,Tarea de género gramatical,2024.2.2,Win32,60.24096386,,,,,,,,,,,,,,,,,,,,,,,,517.4708,518.4862,l,1,[],[],[],[],[],[],[],0.3354,1,518.4863,518.9863,,,,,,464,FEM,DIS,150,cara,el,a,0.3354,,518.9877,518.9889,-0.008333333,-0.051388889,0,0,0,,0,159,159,13,1,,,,
,,,,,,a6511dc3bfbef885a2bad779,66a626ef09d4e21e1a8894ec,67360fd9b98303c9d2112b2b,2024-11-14_08h58.08.540,Tarea de género gramatical,2024.2.2,Win32,60.24096386,,,,,,,,,,,,,,,,,,,,,,,,518.9898,520.036,a,1,[],[],[],[],[],[],[],0.3786,1,520.0361,520.5361,,,,,,604,MAS,CON,150,padre,,l,0.3786,,520.5362,520.5363,-0.008333333,-0.051388889,0,0,0,,0,160,160,153,1,,,,
,,,,,,a6511dc3bfbef885a2bad779,66a626ef09d4e21e1a8894ec,67360fd9b98303c9d2112b2b,2024-11-14_08h58.08.540,Tarea de género gramatical,2024.2.2,Win32,60.24096386,,,,,,,,,,,,,,,,,,,,,,,,520.5374,521.6027,l,1,[],[],[],[],[],[],[],0.3856,1,521.6028,522.1029,,,,,,655,FEM,CON,150,reina,,a,0.3856,,522.1029,522.103,-0.008333333,-0.051388889,0,0,0,,0,161,161,204,1,,,,
,,,,,,a6511dc3bfbef885a2bad779,66a626ef09d4e21e1a8894ec,67360fd9b98303c9d2112b2b,2024-11-14_08h58.08.540,Tarea de género gramatical,2024.2.2,Win32,60.24096386,,,,,,,,,,,,,,,,,,,,,,,,522.104,523.3195,a,1,[],[],[],[],[],[],[],0.5374,1,523.3196,523.8195,,,,,,574,MAS,CON,150,clan,,l,0.5374,,523.8195,523.8196,-0.008333333,-0.051388889,0,0,0,,0,162,162,123,1,,,,
,,,,,,a6511dc3bfbef885a2bad779,66a626ef09d4e21e1a8894ec,67360fd9b98303c9d2112b2b,2024-11-14_08h58.08.540,Tarea de género gramatical,2024.2.2,Win32,60.24096386,,,,,,,,,,,,,,,,,,,,,,,,523.8207,524.9195,a,1,[],[],[],[],[],[],[],0.4159,1,524.9196,525.4194,,,,,,580,MAS,CON,150,yate,,l,0.4159,,525.4194,525.4195,-0.008333333,-0.051388889,0,0,0,,0,163,163,129,1,,,,
,,,,,,a6511dc3bfbef885a2bad779,66a626ef09d4e21e1a8894ec,67360fd9b98303c9d2112b2b,2024-11-14_08h58.08.540,Tarea de género gramatical,2024.2.2,Win32,60.24096386,,,,,,,,,,,,,,,,,,,,,,,,525.4206,526.4527,a,1,[],[],[],[],[],[],[],0.351,1,526.4527,526.9527,,,,,,678,MAS,AGR,150,nivel,el,l,0.351,,526.9541,526.9552,-0.008333333,-0.051388889,0,0,0,,0,164,164,227,1,,,,
,,,,,,a6511dc3bfbef885a2bad779,66a626ef09d4e21e1a8894ec,67360fd9b98303c9d2112b2b,2024-11-14_08h58.08.540,Tarea de género gramatical,2024.2.2,Win32,60.24096386,,,,,,,,,,,,,,,,,,,,,,,,526.9561,528.0193,l,1,[],[],[],[],[],[],[],0.3932,1,528.0194,528.5193,,,,,,453,FEM,AGR,150,cosa,la,a,0.3932,,528.5194,528.5195,-0.008333333,-0.051388889,0,0,0,,0,165,165,2,1,,,,
,,,,,,a6511dc3bfbef885a2bad779,66a626ef09d4e21e1a8894ec,67360fd9b98303c9d2112b2b,2024-11-14_08h58.08.540,Tarea de género gramatical,2024.2.2,Win32,60.24096386,,,,,,,,,,,,,,,,,,,,,,,,528.5206,529.9694,a,1,[],[],[],[],[],[],[],0.7765,1,529.9695,530.4692,,,,,,556,MAS,CON,150,test,,l,0.7765,,530.4694,530.4694,-0.008333333,-0.051388889,0,0,0,,0,166,166,105,1,,,,
,,,,,,a6511dc3bfbef885a2bad779,66a626ef09d4e21e1a8894ec,67360fd9b98303c9d2112b2b,2024-11-14_08h58.08.540,Tarea de género gramatical,2024.2.2,Win32,60.24096386,,,,,,,,,,,,,,,,,,,,,,,,530.4706,531.869,l,1,[],[],[],[],[],[],[],0.7171,1,531.8691,532.3693,,,,,,543,FEM,AGR,150,lata,la,a,0.7171,,532.3694,532.3696,-0.008333333,-0.051388889,0,0,0,,0,167,167,92,1,,,,
,,,,,,a6511dc3bfbef885a2bad779,66a626ef09d4e21e1a8894ec,67360fd9b98303c9d2112b2b,2024-11-14_08h58.08.540,Tarea de género gramatical,2024.2.2,Win32,60.24096386,,,,,,,,,,,,,,,,,,,,,,,,532.3708,533.6526,a,0,[],[],[],[],[],[],[],0.5994,0,533.6534,534.1527,,,,,,860,FEM,DIS,150,piedad,el,a,0.5994,,534.154,534.1551,-0.008333333,-0.051388889,0,0,0,,0,168,168,409,1,,,,
,,,,,,a6511dc3bfbef885a2bad779,66a626ef09d4e21e1a8894ec,67360fd9b98303c9d2112b2b,2024-11-14_08h58.08.540,Tarea de género gramatical,2024.2.2,Win32,60.24096386,,,,,,,,,,,,,,,,,,,,,,,,534.156,535.6859,a,1,[],[],[],[],[],[],[],0.8507,1,535.6866,536.1859,,,,,,683,MAS,DIS,150,golpe,la,l,0.8507,,536.1859,536.186,-0.008333333,-0.051388889,0,0,0,,0,169,169,232,1,,,,
,,,,,,a6511dc3bfbef885a2bad779,66a626ef09d4e21e1a8894ec,67360fd9b98303c9d2112b2b,2024-11-14_08h58.08.540,Tarea de género gramatical,2024.2.2,Win32,60.24096386,,,,,,,,,,,,,,,,,,,,,,,,536.1873,537.3691,a,1,[],[],[],[],[],[],[],0.5057,1,537.3692,537.8692,,,,,,508,MAS,CON,150,mono,,l,0.5057,,537.8692,537.8694,-0.008333333,-0.051388889,0,0,0,,0,170,170,57,1,,,,
,,,,,,a6511dc3bfbef885a2bad779,66a626ef09d4e21e1a8894ec,67360fd9b98303c9d2112b2b,2024-11-14_08h58.08.540,Tarea de género gramatical,2024.2.2,Win32,60.24096386,,,,,,,,,,,,,,,,,,,,,,,,537.8703,539.1525,a,1,[],[],[],[],[],[],[],0.6018,1,539.1526,539.6522,,,,,,772,MAS,CON,150,minuto,,l,0.6018,,539.6523,539.6524,-0.008333333,-0.051388889,0,0,0,,0,171,171,321,1,,,,
,,,,,,a6511dc3bfbef885a2bad779,66a626ef09d4e21e1a8894ec,67360fd9b98303c9d2112b2b,2024-11-14_08h58.08.540,Tarea de género gramatical,2024.2.2,Win32,60.24096386,,,,,,,,,,,,,,,,,,,,,,,,539.6535,540.8859,a,1,[],[],[],[],[],[],[],0.5612,1,540.886,541.3858,,,,,,875,MAS,DIS,150,chiste,la,l,0.5612,,541.3858,541.386,-0.008333333,-0.051388889,0,0,0,,0,172,172,424,1,,,,
,,,,,,a6511dc3bfbef885a2bad779,66a626ef09d4e21e1a8894ec,67360fd9b98303c9d2112b2b,2024-11-14_08h58.08.540,Tarea de género gramatical,2024.2.2,Win32,60.24096386,,,,,,,,,,,,,,,,,,,,,,,,541.3871,542.4525,l,1,[],[],[],[],[],[],[],0.3877,1,542.4527,542.9525,,,,,,829,FEM,CON,150,granja,,a,0.3877,,542.954,542.9552,-0.008333333,-0.051388889,0,0,0,,0,173,173,378,1,,,,
,,,,,,a6511dc3bfbef885a2bad779,66a626ef09d4e21e1a8894ec,67360fd9b98303c9d2112b2b,2024-11-14_08h58.08.540,Tarea de género gramatical,2024.2.2,Win32,60.24096386,,,,,,,,,,,,,,,,,,,,,,,,542.9561,544.2525,a,1,[],[],[],[],[],[],[],0.6186,1,544.2526,544.7525,,,,,,534,MAS,AGR,150,mago,el,l,0.6186,,544.7525,544.7527,-0.008333333,-0.051388889,0,0,0,,0,174,174,83,1,,,,
,,,,,,a6511dc3bfbef885a2bad779,66a626ef09d4e21e1a8894ec,67360fd9b98303c9d2112b2b,2024-11-14_08h58.08.540,Tarea de género gramatical,2024.2.2,Win32,60.24096386,,,,,,,,,,,,,,,,,,,,,,,,544.7537,545.8854,a,1,[],[],[],[],[],[],[],0.45,1,545.8855,546.3857,,,,,,568,MAS,CON,150,baúl,,l,0.45,,546.3858,546.3859,-0.008333333,-0.051388889,0,0,0,,0,175,175,117,1,,,,
,,,,,,a6511dc3bfbef885a2bad779,66a626ef09d4e21e1a8894ec,67360fd9b98303c9d2112b2b,2024-11-14_08h58.08.540,Tarea de género gramatical,2024.2.2,Win32,60.24096386,,,,,,,,,,,,,,,,,,,,,,,,546.3871,547.4855,l,1,[],[],[],[],[],[],[],0.4269,1,547.4855,547.9858,,,,,,571,FEM,CON,150,pila,,a,0.4269,,547.9858,547.9859,-0.008333333,-0.051388889,0,0,0,,0,176,176,120,1,,,,
,,,,,,a6511dc3bfbef885a2bad779,66a626ef09d4e21e1a8894ec,67360fd9b98303c9d2112b2b,2024-11-14_08h58.08.540,Tarea de género gramatical,2024.2.2,Win32,60.24096386,,,,,,,,,,,,,,,,,,,,,,,,547.9872,549.2522,a,1,[],[],[],[],[],[],[],0.5939,1,549.2524,549.7524,,,,,,503,MAS,DIS,150,vaso,la,l,0.5939,,549.7538,549.7549,-0.008333333,-0.051388889,0,0,0,,0,177,177,52,1,,,,
,,,,,,a6511dc3bfbef885a2bad779,66a626ef09d4e21e1a8894ec,67360fd9b98303c9d2112b2b,2024-11-14_08h58.08.540,Tarea de género gramatical,2024.2.2,Win32,60.24096386,,,,,,,,,,,,,,,,,,,,,,,,549.7558,551.0019,a,1,[],[],[],[],[],[],[],0.5784,1,551.0019,551.5021,,,,,,690,MAS,AGR,150,ruido,el,l,0.5784,,551.5022,551.5023,-0.008333333,-0.051388889,0,0,0,,0,178,178,239,1,,,,
,,,,,,a6511dc3bfbef885a2bad779,66a626ef09d4e21e1a8894ec,67360fd9b98303c9d2112b2b,2024-11-14_08h58.08.540,Tarea de género gramatical,2024.2.2,Win32,60.24096386,,,,,,,,,,,,,,,,,,,,,,,,551.5035,552.6857,l,1,[],[],[],[],[],[],[],0.5116,1,552.6858,553.1856,,,,,,494,FEM,DIS,150,zona,el,a,0.5116,,553.1856,553.1858,-0.008333333,-0.051388889,0,0,0,,0,179,179,43,1,,,,
,,,,,,a6511dc3bfbef885a2bad779,66a626ef09d4e21e1a8894ec,67360fd9b98303c9d2112b2b,2024-11-14_08h58.08.540,Tarea de género gramatical,2024.2.2,Win32,60.24096386,,,,,,,,,,,,,,,,,,,,,,,,553.187,554.4188,l,1,[],[],[],[],[],[],[],0.55,1,554.4189,554.919,,,,,,577,FEM,CON,150,cuna,,a,0.55,,554.919,554.9191,-0.008333333,-0.051388889,0,0,0,,0,180,180,126,1,,,,
,,,,,,a6511dc3bfbef885a2bad779,66a626ef09d4e21e1a8894ec,67360fd9b98303c9d2112b2b,2024-11-14_08h58.08.540,Tarea de género gramatical,2024.2.2,Win32,60.24096386,,,,,,,,,,,,,,,,,,,,,,,,554.9204,556.0523,l,1,[],[],[],[],[],[],[],0.4511,1,556.0525,556.552,,,,,,795,FEM,AGR,150,pierna,la,a,0.4511,,556.5521,556.5522,-0.008333333,-0.051388889,0,0,0,,0,181,181,344,1,,,,
,,,,,,a6511dc3bfbef885a2bad779,66a626ef09d4e21e1a8894ec,67360fd9b98303c9d2112b2b,2024-11-14_08h58.08.540,Tarea de género gramatical,2024.2.2,Win32,60.24096386,,,,,,,,,,,,,,,,,,,,,,,,556.5533,557.7523,a,1,[],[],[],[],[],[],[],0.5183,1,557.7524,558.2522,,,,,,796,MAS,CON,150,juicio,,l,0.5183,,558.2537,558.2548,-0.008333333,-0.051388889,0,0,0,,0,182,182,345,1,,,,
,,,,,,a6511dc3bfbef885a2bad779,66a626ef09d4e21e1a8894ec,67360fd9b98303c9d2112b2b,2024-11-14_08h58.08.540,Tarea de género gramatical,2024.2.2,Win32,60.24096386,,,,,,,,,,,,,,,,,,,,,,,,558.2559,559.3854,l,1,[],[],[],[],[],[],[],0.4552,1,559.3856,559.8854,,,,,,608,FEM,DIS,150,chica,el,a,0.4552,,559.8855,559.8856,-0.008333333,-0.051388889,0,0,0,,0,183,183,157,1,,,,
,,,,,,a6511dc3bfbef885a2bad779,66a626ef09d4e21e1a8894ec,67360fd9b98303c9d2112b2b,2024-11-14_08h58.08.540,Tarea de género gramatical,2024.2.2,Win32,60.24096386,,,,,,,,,,,,,,,,,,,,,,,,559.8866,561.6022,a,1,[],[],[],[],[],[],[],1.0372,1,561.6024,562.1022,,,,,,858,MAS,AGR,150,cheque,el,l,1.0372,,562.1023,562.1024,-0.008333333,-0.051388889,0,0,0,,0,184,184,407,1,,,,
,,,,,,a6511dc3bfbef885a2bad779,66a626ef09d4e21e1a8894ec,67360fd9b98303c9d2112b2b,2024-11-14_08h58.08.540,Tarea de género gramatical,2024.2.2,Win32,60.24096386,,,,,,,,,,,,,,,,,,,,,,,,562.1035,563.2687,a,1,[],[],[],[],[],[],[],0.4967,1,563.2688,563.7689,,,,,,851,MAS,DIS,150,abrigo,la,l,0.4967,,563.769,563.7692,-0.008333333,-0.051388889,0,0,0,,0,185,185,400,1,,,,
,,,,,,a6511dc3bfbef885a2bad779,66a626ef09d4e21e1a8894ec,67360fd9b98303c9d2112b2b,2024-11-14_08h58.08.540,Tarea de género gramatical,2024.2.2,Win32,60.24096386,,,,,,,,,,,,,,,,,,,,,,,,563.7702,564.8356,l,1,[],[],[],[],[],[],[],0.389,1,564.8357,565.3356,,,,,,776,FEM,DIS,150,música,el,a,0.389,,565.3372,565.3384,-0.008333333,-0.051388889,0,0,0,,0,186,186,325,1,,,,
,,,,,,a6511dc3bfbef885a2bad779,66a626ef09d4e21e1a8894ec,67360fd9b98303c9d2112b2b,2024-11-14_08h58.08.540,Tarea de género gramatical,2024.2.2,Win32,60.24096386,,,,,,,,,,,,,,,,,,,,,,,,565.3392,566.3855,l,1,[],[],[],[],[],[],[],0.3731,1,566.3856,566.8855,,,,,,745,FEM,CON,150,grasa,,a,0.3731,,566.8855,566.8856,-0.008333333,-0.051388889,0,0,0,,0,187,187,294,1,,,,
,,,,,,a6511dc3bfbef885a2bad779,66a626ef09d4e21e1a8894ec,67360fd9b98303c9d2112b2b,2024-11-14_08h58.08.540,Tarea de género gramatical,2024.2.2,Win32,60.24096386,,,,,,,,,,,,,,,,,,,,,,,,566.8868,567.9354,l,1,[],[],[],[],[],[],[],0.367,1,567.9355,568.4354,,,,,,572,FEM,DIS,150,loca,el,a,0.367,,568.4354,568.4355,-0.008333333,-0.051388889,0,0,0,,0,188,188,121,1,,,,
,,,,,,a6511dc3bfbef885a2bad779,66a626ef09d4e21e1a8894ec,67360fd9b98303c9d2112b2b,2024-11-14_08h58.08.540,Tarea de género gramatical,2024.2.2,Win32,60.24096386,,,,,,,,,,,,,,,,,,,,,,,,568.4365,569.4353,l,1,[],[],[],[],[],[],[],0.317,1,569.4354,569.9356,,,,,,681,FEM,AGR,150,bruja,la,a,0.317,,569.9356,569.9357,-0.008333333,-0.051388889,0,0,0,,0,189,189,230,1,,,,
,,,,,,a6511dc3bfbef885a2bad779,66a626ef09d4e21e1a8894ec,67360fd9b98303c9d2112b2b,2024-11-14_08h58.08.540,Tarea de género gramatical,2024.2.2,Win32,60.24096386,,,,,,,,,,,,,,,,,,,,,,,,569.9371,570.9355,l,1,[],[],[],[],[],[],[],0.3173,1,570.9355,571.4352,,,,,,458,FEM,DIS,150,idea,el,a,0.3173,,571.4352,571.4353,-0.008333333,-0.051388889,0,0,0,,0,190,190,7,1,,,,
,,,,,,a6511dc3bfbef885a2bad779,66a626ef09d4e21e1a8894ec,67360fd9b98303c9d2112b2b,2024-11-14_08h58.08.540,Tarea de género gramatical,2024.2.2,Win32,60.24096386,,,,,,,,,,,,,,,,,,,,,,,,571.4362,572.4353,a,1,[],[],[],[],[],[],[],0.3167,1,572.4353,572.9355,,,,,,664,MAS,CON,150,fondo,,l,0.3167,,572.9368,572.9379,-0.008333333,-0.051388889,0,0,0,,0,191,191,213,1,,,,
,,,,,,a6511dc3bfbef885a2bad779,66a626ef09d4e21e1a8894ec,67360fd9b98303c9d2112b2b,2024-11-14_08h58.08.540,Tarea de género gramatical,2024.2.2,Win32,60.24096386,,,,,,,,,,,,,,,,,,,,,,,,572.939,573.9519,a,1,[],[],[],[],[],[],[],0.344,1,573.9521,574.4519,,,,,,869,MAS,DIS,150,cuento,la,l,0.344,,574.4519,574.452,-0.008333333,-0.051388889,0,0,0,,0,192,192,418,1,,,,
,,,,,,a6511dc3bfbef885a2bad779,66a626ef09d4e21e1a8894ec,67360fd9b98303c9d2112b2b,2024-11-14_08h58.08.540,Tarea de género gramatical,2024.2.2,Win32,60.24096386,,,,,,,,,,,,,,,,,,,,,,,,574.4534,575.5019,l,1,[],[],[],[],[],[],[],0.3801,1,575.5019,576.002,,,,,,879,FEM,AGR,150,fianza,la,a,0.3801,,576.0021,576.0022,-0.008333333,-0.051388889,0,0,0,,0,193,193,428,1,,,,
,,,,,,a6511dc3bfbef885a2bad779,66a626ef09d4e21e1a8894ec,67360fd9b98303c9d2112b2b,2024-11-14_08h58.08.540,Tarea de género gramatical,2024.2.2,Win32,60.24096386,,,,,,,,,,,,,,,,,,,,,,,,576.0033,577.0521,l,1,[],[],[],[],[],[],[],0.3734,1,577.0521,577.552,,,,,,727,FEM,CON,150,plaza,,a,0.3734,,577.5521,577.5522,-0.008333333,-0.051388889,0,0,0,,0,194,194,276,1,,,,
,,,,,,a6511dc3bfbef885a2bad779,66a626ef09d4e21e1a8894ec,67360fd9b98303c9d2112b2b,2024-11-14_08h58.08.540,Tarea de género gramatical,2024.2.2,Win32,60.24096386,,,,,,,,,,,,,,,,,,,,,,,,577.5534,578.535,l,1,[],[],[],[],[],[],[],0.312,1,578.5351,579.0353,,,,,,783,FEM,AGR,150,locura,la,a,0.312,,579.0367,579.0378,-0.008333333,-0.051388889,0,0,0,,0,195,195,332,1,,,,
,,,,,,a6511dc3bfbef885a2bad779,66a626ef09d4e21e1a8894ec,67360fd9b98303c9d2112b2b,2024-11-14_08h58.08.540,Tarea de género gramatical,2024.2.2,Win32,60.24096386,,,,,,,,,,,,,,,,,,,,,,,,579.0388,580.0353,l,1,[],[],[],[],[],[],[],0.3251,1,580.0355,580.5353,,,,,,711,FEM,AGR,150,cueva,la,a,0.3251,,580.5353,580.5354,-0.008333333,-0.051388889,0,0,0,,0,196,196,260,1,,,,
,,,,,,a6511dc3bfbef885a2bad779,66a626ef09d4e21e1a8894ec,67360fd9b98303c9d2112b2b,2024-11-14_08h58.08.540,Tarea de género gramatical,2024.2.2,Win32,60.24096386,,,,,,,,,,,,,,,,,,,,,,,,580.5367,581.5017,l,1,[],[],[],[],[],[],[],0.2955,1,581.5018,582.0019,,,,,,716,FEM,DIS,150,jaula,el,a,0.2955,,582.002,582.0022,-0.008333333,-0.051388889,0,0,0,,0,197,197,265,1,,,,
,,,,,,a6511dc3bfbef885a2bad779,66a626ef09d4e21e1a8894ec,67360fd9b98303c9d2112b2b,2024-11-14_08h58.08.540,Tarea de género gramatical,2024.2.2,Win32,60.24096386,,,,,,,,,,,,,,,,,,,,,,,,582.0036,583.0353,a,1,[],[],[],[],[],[],[],0.3491,1,583.0354,583.5352,,,,,,456,MAS,AGR,150,lado,el,l,0.3491,,583.5353,583.5354,-0.008333333,-0.051388889,0,0,0,,0,198,198,5,1,,,,
,,,,,,a6511dc3bfbef885a2bad779,66a626ef09d4e21e1a8894ec,67360fd9b98303c9d2112b2b,2024-11-14_08h58.08.540,Tarea de género gramatical,2024.2.2,Win32,60.24096386,,,,,,,,,,,,,,,,,,,,,,,,583.5365,584.5019,a,1,[],[],[],[],[],[],[],0.2896,1,584.502,585.0019,,,,,,701,MAS,DIS,150,dueño,la,l,0.2896,,585.0019,585.002,-0.008333333,-0.051388889,0,0,0,,0,199,199,250,1,,,,
,,,,,,a6511dc3bfbef885a2bad779,66a626ef09d4e21e1a8894ec,67360fd9b98303c9d2112b2b,2024-11-14_08h58.08.540,Tarea de género gramatical,2024.2.2,Win32,60.24096386,,,,,,,,,,,,,,,,,,,,,,,,585.0033,586.0517,a,1,[],[],[],[],[],[],[],0.3763,1,586.0517,586.5516,,,,,,593,MAS,DIS,150,faro,la,l,0.3763,,586.553,586.5541,-0.008333333,-0.051388889,0,0,0,,0,200,200,142,1,,,,
,,,,,,a6511dc3bfbef885a2bad779,66a626ef09d4e21e1a8894ec,67360fd9b98303c9d2112b2b,2024-11-14_08h58.08.540,Tarea de género gramatical,2024.2.2,Win32,60.24096386,,,,,,,,,,,,,,,,,,,,,,,,586.5551,587.6684,l,1,[],[],[],[],[],[],[],0.4384,1,587.6685,588.1684,,,,,,555,FEM,AGR,150,jefa,la,a,0.4384,,588.1685,588.1686,-0.008333333,-0.051388889,0,0,0,,0,201,201,104,1,,,,
,,,,,,a6511dc3bfbef885a2bad779,66a626ef09d4e21e1a8894ec,67360fd9b98303c9d2112b2b,2024-11-14_08h58.08.540,Tarea de género gramatical,2024.2.2,Win32,60.24096386,,,,,,,,,,,,,,,,,,,,,,,,588.1698,589.1185,l,1,[],[],[],[],[],[],[],0.2733,1,589.1185,589.6185,,,,,,584,FEM,DIS,150,rama,el,a,0.2733,,589.6186,589.6187,-0.008333333,-0.051388889,0,0,0,,0,202,202,133,1,,,,
,,,,,,a6511dc3bfbef885a2bad779,66a626ef09d4e21e1a8894ec,67360fd9b98303c9d2112b2b,2024-11-14_08h58.08.540,Tarea de género gramatical,2024.2.2,Win32,60.24096386,,,,,,,,,,,,,,,,,,,,,,,,589.6198,590.6018,a,1,[],[],[],[],[],[],[],0.3071,1,590.6019,591.1018,,,,,,802,MAS,CON,150,estilo,,l,0.3071,,591.1019,591.102,-0.008333333,-0.051388889,0,0,0,,0,203,203,351,1,,,,
,,,,,,a6511dc3bfbef885a2bad779,66a626ef09d4e21e1a8894ec,67360fd9b98303c9d2112b2b,2024-11-14_08h58.08.540,Tarea de género gramatical,2024.2.2,Win32,60.24096386,,,,,,,,,,,,,,,,,,,,,,,,591.1031,592.0683,l,1,[],[],[],[],[],[],[],0.2922,1,592.0684,592.5685,,,,,,451,FEM,CON,150,casa,,a,0.2922,,592.57,592.5711,-0.008333333,-0.051388889,0,0,0,,0,204,204,0,1,,,,
,,,,,,a6511dc3bfbef885a2bad779,66a626ef09d4e21e1a8894ec,67360fd9b98303c9d2112b2b,2024-11-14_08h58.08.540,Tarea de género gramatical,2024.2.2,Win32,60.24096386,,,,,,,,,,,,,,,,,,,,,,,,592.572,593.5517,a,0,[],[],[],[],[],[],[],0.3015,0,593.5525,594.0517,,,,,,661,FEM,CON,150,salud,,a,0.3015,,594.0518,594.052,-0.008333333,-0.051388889,0,0,0,,0,205,205,210,1,,,,
,,,,,,a6511dc3bfbef885a2bad779,66a626ef09d4e21e1a8894ec,67360fd9b98303c9d2112b2b,2024-11-14_08h58.08.540,Tarea de género gramatical,2024.2.2,Win32,60.24096386,,,,,,,,,,,,,,,,,,,,,,,,594.0531,595.0183,a,1,[],[],[],[],[],[],[],0.2857,1,595.019,595.5184,,,,,,654,MAS,AGR,150,papel,el,l,0.2857,,595.5185,595.5186,-0.008333333,-0.051388889,0,0,0,,0,206,206,203,1,,,,
,,,,,,a6511dc3bfbef885a2bad779,66a626ef09d4e21e1a8894ec,67360fd9b98303c9d2112b2b,2024-11-14_08h58.08.540,Tarea de género gramatical,2024.2.2,Win32,60.24096386,,,,,,,,,,,,,,,,,,,,,,,,595.5197,596.6184,l,1,[],[],[],[],[],[],[],0.422,1,596.6185,597.1184,,,,,,560,FEM,DIS,150,rosa,el,a,0.422,,597.1184,597.1185,-0.008333333,-0.051388889,0,0,0,,0,207,207,109,1,,,,
,,,,,,a6511dc3bfbef885a2bad779,66a626ef09d4e21e1a8894ec,67360fd9b98303c9d2112b2b,2024-11-14_08h58.08.540,Tarea de género gramatical,2024.2.2,Win32,60.24096386,,,,,,,,,,,,,,,,,,,,,,,,597.1197,598.1846,a,1,[],[],[],[],[],[],[],0.391,1,598.1847,598.685,,,,,,791,MAS,DIS,150,precio,la,l,0.391,,598.6851,598.6852,-0.008333333,-0.051388889,0,0,0,,0,208,208,340,1,,,,
,,,,,,a6511dc3bfbef885a2bad779,66a626ef09d4e21e1a8894ec,67360fd9b98303c9d2112b2b,2024-11-14_08h58.08.540,Tarea de género gramatical,2024.2.2,Win32,60.24096386,,,,,,,,,,,,,,,,,,,,,,,,598.6862,599.7516,l,1,[],[],[],[],[],[],[],0.3955,1,599.7517,600.2518,,,,,,614,FEM,DIS,150,novia,el,a,0.3955,,600.253,600.2541,-0.008333333,-0.051388889,0,0,0,,0,209,209,163,1,,,,
,,,,,,a6511dc3bfbef885a2bad779,66a626ef09d4e21e1a8894ec,67360fd9b98303c9d2112b2b,2024-11-14_08h58.08.540,Tarea de género gramatical,2024.2.2,Win32,60.24096386,,,,,,,,,,,,,,,,,,,,,,,,600.2551,601.251,l,1,[],[],[],[],[],[],[],0.3282,1,601.2512,601.7513,,,,,,687,FEM,AGR,150,ducha,la,a,0.3282,,601.7514,601.7515,-0.008333333,-0.051388889,0,0,0,,0,210,210,236,1,,,,
,,,,,,a6511dc3bfbef885a2bad779,66a626ef09d4e21e1a8894ec,67360fd9b98303c9d2112b2b,2024-11-14_08h58.08.540,Tarea de género gramatical,2024.2.2,Win32,60.24096386,,,,,,,,,,,,,,,,,,,,,,,,601.7526,602.7511,a,1,[],[],[],[],[],[],[],0.3295,1,602.7512,603.2513,,,,,,798,MAS,AGR,150,anillo,el,l,0.3295,,603.2513,603.2514,-0.008333333,-0.051388889,0,0,0,,0,211,211,347,1,,,,
,,,,,,a6511dc3bfbef885a2bad779,66a626ef09d4e21e1a8894ec,67360fd9b98303c9d2112b2b,2024-11-14_08h58.08.540,Tarea de género gramatical,2024.2.2,Win32,60.24096386,,,,,,,,,,,,,,,,,,,,,,,,603.2526,604.2513,l,1,[],[],[],[],[],[],[],0.3176,1,604.2514,604.7514,,,,,,698,FEM,DIS,150,letra,el,a,0.3176,,604.7515,604.7515,-0.008333333,-0.051388889,0,0,0,,0,212,212,247,1,,,,
,,,,,,a6511dc3bfbef885a2bad779,66a626ef09d4e21e1a8894ec,67360fd9b98303c9d2112b2b,2024-11-14_08h58.08.540,Tarea de género gramatical,2024.2.2,Win32,60.24096386,,,,,,,,,,,,,,,,,,,,,,,,604.7528,606.3017,a,0,[],[],[],[],[],[],[],0.8749,0,606.3026,606.8015,,,,,,536,FEM,DIS,150,cruz,el,a,0.8749,,606.8029,606.8041,-0.008333333,-0.051388889,0,0,0,,0,213,213,85,1,,,,
,,,,,,a6511dc3bfbef885a2bad779,66a626ef09d4e21e1a8894ec,67360fd9b98303c9d2112b2b,2024-11-14_08h58.08.540,Tarea de género gramatical,2024.2.2,Win32,60.24096386,,,,,,,,,,,,,,,,,,,,,,,,606.8049,607.901,a,1,[],[],[],[],[],[],[],0.4231,1,607.9017,608.4016,,,,,,864,MAS,AGR,150,sótano,el,l,0.4231,,608.4016,608.4018,-0.008333333,-0.051388889,0,0,0,,0,214,214,413,1,,,,
,,,,,,a6511dc3bfbef885a2bad779,66a626ef09d4e21e1a8894ec,67360fd9b98303c9d2112b2b,2024-11-14_08h58.08.540,Tarea de género gramatical,2024.2.2,Win32,60.24096386,,,,,,,,,,,,,,,,,,,,,,,,608.4028,609.6016,l,1,[],[],[],[],[],[],[],0.5243,1,609.6017,610.1012,,,,,,853,FEM,CON,150,paliza,,a,0.5243,,610.1013,610.1014,-0.008333333,-0.051388889,0,0,0,,0,215,215,402,1,,,,
,,,,,,a6511dc3bfbef885a2bad779,66a626ef09d4e21e1a8894ec,67360fd9b98303c9d2112b2b,2024-11-14_08h58.08.540,Tarea de género gramatical,2024.2.2,Win32,60.24096386,,,,,,,,,,,,,,,,,,,,,,,,610.1026,611.3013,a,1,[],[],[],[],[],[],[],0.5284,1,611.3014,611.8015,,,,,,768,MAS,AGR,150,pueblo,el,l,0.5284,,611.8015,611.8017,-0.008333333,-0.051388889,0,0,0,,0,216,216,317,1,,,,
,,,,,,a6511dc3bfbef885a2bad779,66a626ef09d4e21e1a8894ec,67360fd9b98303c9d2112b2b,2024-11-14_08h58.08.540,Tarea de género gramatical,2024.2.2,Win32,60.24096386,,,,,,,,,,,,,,,,,,,,,,,,611.8028,612.7345,l,1,[],[],[],[],[],[],[],0.2631,1,612.7346,613.2345,,,,,,559,FEM,CON,150,gota,,a,0.2631,,613.2347,613.2347,-0.008333333,-0.051388889,0,0,0,,0,217,217,108,1,,,,
,,,,,,a6511dc3bfbef885a2bad779,66a626ef09d4e21e1a8894ec,67360fd9b98303c9d2112b2b,2024-11-14_08h58.08.540,Tarea de género gramatical,2024.2.2,Win32,60.24096386,,,,,,,,,,,,,,,,,,,,,,,,613.2359,614.2181,a,1,[],[],[],[],[],[],[],0.3006,1,614.2182,614.7181,,,,,,880,MAS,CON,150,título,,l,0.3006,,614.7195,614.7206,-0.008333333,-0.051388889,0,0,0,,0,218,218,429,1,,,,
,,,,,,a6511dc3bfbef885a2bad779,66a626ef09d4e21e1a8894ec,67360fd9b98303c9d2112b2b,2024-11-14_08h58.08.540,Tarea de género gramatical,2024.2.2,Win32,60.24096386,,,,,,,,,,,,,,,,,,,,,,,,614.7215,616.068,a,0,[],[],[],[],[],[],[],0.6704,0,616.0688,616.568,,,,,,554,FEM,DIS,150,vela,el,a,0.6704,,616.5681,616.5682,-0.008333333,-0.051388889,0,0,0,,0,219,219,103,1,,,,
,,,,,,a6511dc3bfbef885a2bad779,66a626ef09d4e21e1a8894ec,67360fd9b98303c9d2112b2b,2024-11-14_08h58.08.540,Tarea de género gramatical,2024.2.2,Win32,60.24096386,,,,,,,,,,,,,,,,,,,,,,,,616.5693,617.7347,a,0,[],[],[],[],[],[],[],0.4861,0,617.7348,618.2348,,,,,,721,FEM,CON,150,viuda,,a,0.4861,,618.2348,618.2349,-0.008333333,-0.051388889,0,0,0,,0,220,220,270,1,,,,
,,,,,,a6511dc3bfbef885a2bad779,66a626ef09d4e21e1a8894ec,67360fd9b98303c9d2112b2b,2024-11-14_08h58.08.540,Tarea de género gramatical,2024.2.2,Win32,60.24096386,,,,,,,,,,,,,,,,,,,,,,,,618.2362,619.3014,l,1,[],[],[],[],[],[],[],0.3904,1,619.3023,619.8011,,,,,,729,FEM,AGR,150,selva,la,a,0.3904,,619.8011,619.8013,-0.008333333,-0.051388889,0,0,0,,0,221,221,278,1,,,,
,,,,,,a6511dc3bfbef885a2bad779,66a626ef09d4e21e1a8894ec,67360fd9b98303c9d2112b2b,2024-11-14_08h58.08.540,Tarea de género gramatical,2024.2.2,Win32,60.24096386,,,,,,,,,,,,,,,,,,,,,,,,619.8024,620.8514,l,1,[],[],[],[],[],[],[],0.3749,1,620.8514,621.3513,,,,,,488,FEM,DIS,150,obra,el,a,0.3749,,621.3527,621.3537,-0.008333333,-0.051388889,0,0,0,,0,222,222,37,1,,,,
,,,,,,a6511dc3bfbef885a2bad779,66a626ef09d4e21e1a8894ec,67360fd9b98303c9d2112b2b,2024-11-14_08h58.08.540,Tarea de género gramatical,2024.2.2,Win32,60.24096386,,,,,,,,,,,,,,,,,,,,,,,,621.3546,622.3514,l,1,[],[],[],[],[],[],[],0.3241,1,622.3515,622.8514,,,,,,561,FEM,AGR,150,goma,la,a,0.3241,,622.8514,622.8515,-0.008333333,-0.051388889,0,0,0,,0,223,223,110,1,,,,
,,,,,,a6511dc3bfbef885a2bad779,66a626ef09d4e21e1a8894ec,67360fd9b98303c9d2112b2b,2024-11-14_08h58.08.540,Tarea de género gramatical,2024.2.2,Win32,60.24096386,,,,,,,,,,,,,,,,,,,,,,,,622.8527,623.8013,l,1,[],[],[],[],[],[],[],0.271,1,623.8015,624.3013,,,,,,529,FEM,CON,150,mina,,a,0.271,,624.3014,624.3014,-0.008333333,-0.051388889,0,0,0,,0,224,224,78,1,,,,
,,,,,,a6511dc3bfbef885a2bad779,66a626ef09d4e21e1a8894ec,67360fd9b98303c9d2112b2b,2024-11-14_08h58.08.540,Tarea de género gramatical,2024.2.2,Win32,60.24096386,,,,,,,,,,,,,,,,,,,,,,,,624.3025,625.2514,a,0,[],[],[],[],[],[],[],0.2681,0,625.2522,625.7512,,,,,,631,FEM,CON,150,tarde,,a,0.2681,,625.7513,625.7514,-0.008333333,-0.051388889,0,0,0,,0,225,225,180,1,,,,
,,,,,,a6511dc3bfbef885a2bad779,66a626ef09d4e21e1a8894ec,67360fd9b98303c9d2112b2b,2024-11-14_08h58.08.540,Tarea de género gramatical,2024.2.2,Win32,60.24096386,,,,,,,,,,,,,,,,,,,,,,,,625.7524,627.1679,a,1,[],[],[],[],[],[],[],0.7341,1,627.1688,627.6678,,,,,,821,MAS,DIS,150,sonido,la,l,0.7341,,627.6678,627.668,-0.008333333,-0.051388889,0,0,0,,0,226,226,370,1,,,,
,,,,,,a6511dc3bfbef885a2bad779,66a626ef09d4e21e1a8894ec,67360fd9b98303c9d2112b2b,2024-11-14_08h58.08.540,Tarea de género gramatical,2024.2.2,Win32,60.24096386,,,,,,,,,,,,,,,,,,,,,,,,627.6691,628.6847,l,1,[],[],[],[],[],[],[],0.3345,1,628.6847,629.1844,,,,,,583,FEM,CON,150,joya,,a,0.3345,,629.1861,629.1873,-0.008333333,-0.051388889,0,0,0,,0,227,227,132,1,,,,
,,,,,,a6511dc3bfbef885a2bad779,66a626ef09d4e21e1a8894ec,67360fd9b98303c9d2112b2b,2024-11-14_08h58.08.540,Tarea de género gramatical,2024.2.2,Win32,60.24096386,,,,,,,,,,,,,,,,,,,,,,,,629.1885,630.2007,l,1,[],[],[],[],[],[],[],0.3448,1,630.2008,630.7008,,,,,,746,FEM,DIS,150,feria,el,a,0.3448,,630.7008,630.7009,-0.008333333,-0.051388889,0,0,0,,0,228,228,295,1,,,,
,,,,,,a6511dc3bfbef885a2bad779,66a626ef09d4e21e1a8894ec,67360fd9b98303c9d2112b2b,2024-11-14_08h58.08.540,Tarea de género gramatical,2024.2.2,Win32,60.24096386,,,,,,,,,,,,,,,,,,,,,,,,630.7019,631.7342,l,1,[],[],[],[],[],[],[],0.3518,1,631.7343,632.2343,,,,,,890,FEM,DIS,150,patada,el,a,0.3518,,632.2344,632.2346,-0.008333333,-0.051388889,0,0,0,,0,229,229,439,1,,,,
,,,,,,a6511dc3bfbef885a2bad779,66a626ef09d4e21e1a8894ec,67360fd9b98303c9d2112b2b,2024-11-14_08h58.08.540,Tarea de género gramatical,2024.2.2,Win32,60.24096386,,,,,,,,,,,,,,,,,,,,,,,,632.2359,633.2008,l,1,[],[],[],[],[],[],[],0.2948,1,633.2009,633.7009,,,,,,541,FEM,CON,150,hoja,,a,0.2948,,633.701,633.7011,-0.008333333,-0.051388889,0,0,0,,0,230,230,90,1,,,,
,,,,,,a6511dc3bfbef885a2bad779,66a626ef09d4e21e1a8894ec,67360fd9b98303c9d2112b2b,2024-11-14_08h58.08.540,Tarea de género gramatical,2024.2.2,Win32,60.24096386,,,,,,,,,,,,,,,,,,,,,,,,633.7022,634.901,a,0,[],[],[],[],[],[],[],0.5252,0,634.9018,635.4011,,,,,,625,FEM,CON,150,señal,,a,0.5252,,635.4027,635.4038,-0.008333333,-0.051388889,0,0,0,,0,231,231,174,1,,,,
,,,,,,a6511dc3bfbef885a2bad779,66a626ef09d4e21e1a8894ec,67360fd9b98303c9d2112b2b,2024-11-14_08h58.08.540,Tarea de género gramatical,2024.2.2,Win32,60.24096386,,,,,,,,,,,,,,,,,,,,,,,,635.4047,636.4511,l,1,[],[],[],[],[],[],[],0.379,1,636.4519,636.9512,,,,,,741,FEM,AGR,150,aguja,la,a,0.379,,636.9512,636.9513,-0.008333333,-0.051388889,0,0,0,,0,232,232,290,1,,,,
,,,,,,a6511dc3bfbef885a2bad779,66a626ef09d4e21e1a8894ec,67360fd9b98303c9d2112b2b,2024-11-14_08h58.08.540,Tarea de género gramatical,2024.2.2,Win32,60.24096386,,,,,,,,,,,,,,,,,,,,,,,,636.9525,637.9177,l,1,[],[],[],[],[],[],[],0.2851,1,637.9179,638.4176,,,,,,740,FEM,DIS,150,cabra,el,a,0.2851,,638.4177,638.4178,-0.008333333,-0.051388889,0,0,0,,0,233,233,289,1,,,,
,,,,,,a6511dc3bfbef885a2bad779,66a626ef09d4e21e1a8894ec,67360fd9b98303c9d2112b2b,2024-11-14_08h58.08.540,Tarea de género gramatical,2024.2.2,Win32,60.24096386,,,,,,,,,,,,,,,,,,,,,,,,638.4189,639.4511,a,1,[],[],[],[],[],[],[],0.3517,1,639.4512,639.951,,,,,,540,MAS,AGR,150,león,el,l,0.3517,,639.951,639.9511,-0.008333333,-0.051388889,0,0,0,,0,234,234,89,1,,,,
,,,,,,a6511dc3bfbef885a2bad779,66a626ef09d4e21e1a8894ec,67360fd9b98303c9d2112b2b,2024-11-14_08h58.08.540,Tarea de género gramatical,2024.2.2,Win32,60.24096386,,,,,,,,,,,,,,,,,,,,,,,,639.9524,641.0511,l,1,[],[],[],[],[],[],[],0.4254,1,641.0512,641.5511,,,,,,596,FEM,DIS,150,lana,el,a,0.4254,,641.5512,641.5512,-0.008333333,-0.051388889,0,0,0,,0,235,235,145,1,,,,
,,,,,,a6511dc3bfbef885a2bad779,66a626ef09d4e21e1a8894ec,67360fd9b98303c9d2112b2b,2024-11-14_08h58.08.540,Tarea de género gramatical,2024.2.2,Win32,60.24096386,,,,,,,,,,,,,,,,,,,,,,,,641.5524,642.751,a,1,[],[],[],[],[],[],[],0.5163,1,642.7511,643.251,,,,,,863,MAS,DIS,150,diario,la,l,0.5163,,643.2524,643.2536,-0.008333333,-0.051388889,0,0,0,,0,236,236,412,1,,,,
,,,,,,a6511dc3bfbef885a2bad779,66a626ef09d4e21e1a8894ec,67360fd9b98303c9d2112b2b,2024-11-14_08h58.08.540,Tarea de género gramatical,2024.2.2,Win32,60.24096386,,,,,,,,,,,,,,,,,,,,,,,,643.2546,644.2509,l,1,[],[],[],[],[],[],[],0.319,1,644.2511,644.7511,,,,,,470,FEM,DIS,150,ropa,el,a,0.319,,644.7511,644.7512,-0.008333333,-0.051388889,0,0,0,,0,237,237,19,1,,,,
,,,,,,a6511dc3bfbef885a2bad779,66a626ef09d4e21e1a8894ec,67360fd9b98303c9d2112b2b,2024-11-14_08h58.08.540,Tarea de género gramatical,2024.2.2,Win32,60.24096386,,,,,,,,,,,,,,,,,,,,,,,,644.7522,645.851,a,1,[],[],[],[],[],[],[],0.4262,1,645.8511,646.3509,,,,,,670,MAS,CON,150,huevo,,l,0.4262,,646.351,646.3511,-0.008333333,-0.051388889,0,0,0,,0,238,238,219,1,,,,
,,,,,,a6511dc3bfbef885a2bad779,66a626ef09d4e21e1a8894ec,67360fd9b98303c9d2112b2b,2024-11-14_08h58.08.540,Tarea de género gramatical,2024.2.2,Win32,60.24096386,,,,,,,,,,,,,,,,,,,,,,,,646.3523,647.3511,l,1,[],[],[],[],[],[],[],0.3229,1,647.3511,647.8509,,,,,,752,FEM,DIS,150,cabeza,el,a,0.3229,,647.851,647.8511,-0.008333333,-0.051388889,0,0,0,,0,239,239,301,1,,,,
,,,,,,a6511dc3bfbef885a2bad779,66a626ef09d4e21e1a8894ec,67360fd9b98303c9d2112b2b,2024-11-14_08h58.08.540,Tarea de género gramatical,2024.2.2,Win32,60.24096386,,,,,,,,,,,,,,,,,,,,,,,,647.8523,649.0343,a,1,[],[],[],[],[],[],[],0.5021,1,649.0344,649.5335,,,,,,514,MAS,CON,150,saco,,l,0.5021,,649.5343,649.5354,-0.008333333,-0.051388889,0,0,0,,0,240,240,63,1,,,,
,,,,,,a6511dc3bfbef885a2bad779,66a626ef09d4e21e1a8894ec,67360fd9b98303c9d2112b2b,2024-11-14_08h58.08.540,Tarea de género gramatical,2024.2.2,Win32,60.24096386,,,,,,,,,,,,,,,,,,,,,,,,649.536,650.6508,a,1,[],[],[],[],[],[],[],0.4414,1,650.6509,651.1509,,,,,,840,MAS,AGR,150,rostro,el,l,0.4414,,651.151,651.1511,-0.008333333,-0.051388889,0,0,0,,0,241,241,389,1,,,,
,,,,,,a6511dc3bfbef885a2bad779,66a626ef09d4e21e1a8894ec,67360fd9b98303c9d2112b2b,2024-11-14_08h58.08.540,Tarea de género gramatical,2024.2.2,Win32,60.24096386,,,,,,,,,,,,,,,,,,,,,,,,651.1522,652.2009,a,1,[],[],[],[],[],[],[],0.3681,1,652.2009,652.7008,,,,,,738,MAS,AGR,150,grado,el,l,0.3681,,652.7009,652.701,-0.008333333,-0.051388889,0,0,0,,0,242,242,287,1,,,,
,,,,,,a6511dc3bfbef885a2bad779,66a626ef09d4e21e1a8894ec,67360fd9b98303c9d2112b2b,2024-11-14_08h58.08.540,Tarea de género gramatical,2024.2.2,Win32,60.24096386,,,,,,,,,,,,,,,,,,,,,,,,652.7021,653.7671,a,1,[],[],[],[],[],[],[],0.3948,1,653.7673,654.2675,,,,,,808,MAS,CON,150,motivo,,l,0.3948,,654.2675,654.2677,-0.008333333,-0.051388889,0,0,0,,0,243,243,357,1,,,,
,,,,,,a6511dc3bfbef885a2bad779,66a626ef09d4e21e1a8894ec,67360fd9b98303c9d2112b2b,2024-11-14_08h58.08.540,Tarea de género gramatical,2024.2.2,Win32,60.24096386,,,,,,,,,,,,,,,,,,,,,,,,654.2688,655.3339,a,1,[],[],[],[],[],[],[],0.3843,1,655.334,655.8342,,,,,,564,MAS,AGR,150,menú,el,l,0.3843,,655.8342,655.8343,-0.008333333,-0.051388889,0,0,0,,0,244,244,113,1,,,,
,,,,,,a6511dc3bfbef885a2bad779,66a626ef09d4e21e1a8894ec,67360fd9b98303c9d2112b2b,2024-11-14_08h58.08.540,Tarea de género gramatical,2024.2.2,Win32,60.24096386,,,,,,,,,,,,,,,,,,,,,,,,655.8355,657.3172,l,1,[],[],[],[],[],[],[],0.8,1,657.3173,657.8173,,,,,,693,FEM,AGR,150,salsa,la,a,0.8,,657.8184,657.8194,-0.008333333,-0.051388889,0,0,0,,0,245,245,242,1,,,,
,,,,,,a6511dc3bfbef885a2bad779,66a626ef09d4e21e1a8894ec,67360fd9b98303c9d2112b2b,2024-11-14_08h58.08.540,Tarea de género gramatical,2024.2.2,Win32,60.24096386,,,,,,,,,,,,,,,,,,,,,,,,657.8204,658.7671,l,1,[],[],[],[],[],[],[],0.2787,1,658.7672,659.2672,,,,,,452,FEM,DIS,150,vida,el,a,0.2787,,659.2672,659.2673,-0.008333333,-0.051388889,0,0,0,,0,246,246,1,1,,,,
,,,,,,a6511dc3bfbef885a2bad779,66a626ef09d4e21e1a8894ec,67360fd9b98303c9d2112b2b,2024-11-14_08h58.08.540,Tarea de género gramatical,2024.2.2,Win32,60.24096386,,,,,,,,,,,,,,,,,,,,,,,,659.2686,660.4172,a,1,[],[],[],[],[],[],[],0.4676,1,660.4173,660.9171,,,,,,689,MAS,DIS,150,reloj,la,l,0.4676,,660.9172,660.9173,-0.008333333,-0.051388889,0,0,0,,0,247,247,238,1,,,,
,,,,,,a6511dc3bfbef885a2bad779,66a626ef09d4e21e1a8894ec,67360fd9b98303c9d2112b2b,2024-11-14_08h58.08.540,Tarea de género gramatical,2024.2.2,Win32,60.24096386,,,,,,,,,,,,,,,,,,,,,,,,660.9184,661.967,a,1,[],[],[],[],[],[],[],0.3788,1,661.9672,662.4671,,,,,,641,MAS,DIS,150,dolor,la,l,0.3788,,662.4672,662.4674,-0.008333333,-0.051388889,0,0,0,,0,248,248,190,1,,,,
,,,,,,a6511dc3bfbef885a2bad779,66a626ef09d4e21e1a8894ec,67360fd9b98303c9d2112b2b,2024-11-14_08h58.08.540,Tarea de género gramatical,2024.2.2,Win32,60.24096386,,,,,,,,,,,,,,,,,,,,,,,,662.4685,663.5341,a,1,[],[],[],[],[],[],[],0.3934,1,663.5341,664.0341,,,,,,576,MAS,AGR,150,lazo,el,l,0.3934,,664.0355,664.0367,-0.008333333,-0.051388889,0,0,0,,0,249,249,125,1,,,,
,,,,,,a6511dc3bfbef885a2bad779,66a626ef09d4e21e1a8894ec,67360fd9b98303c9d2112b2b,2024-11-14_08h58.08.540,Tarea de género gramatical,2024.2.2,Win32,60.24096386,,,,,,,,,,,,,,,,,,,,,,,,664.0378,665.1672,l,1,[],[],[],[],[],[],[],0.4493,1,665.1673,665.6672,,,,,,824,FEM,DIS,150,herida,el,a,0.4493,,665.6672,665.6673,-0.008333333,-0.051388889,0,0,0,,0,250,250,373,1,,,,
