counterbalancing_condition,consent_prescreening.block_1/declare_consent,consent_prescreening.block_1/age_years,consent_prescreening.block_1/gender,consent_prescreening.block_1/language_disorder,consent_prescreening.block_1/first_language,consent_prescreening.block_1/first_language-Comment,PROLIFIC_PID,STUDY_ID,SESSION_ID,date,expName,psychopyVersion,OS,frameRate,check_prescreening_answers.started,check_prescreening_answers.stopped,Instructions.started,Instructions.stopped,instr_done_keyboard.keys,instr_done_touch.x,instr_done_touch.y,instr_done_touch.leftButton,instr_done_touch.midButton,instr_done_touch.rightButton,instr_done_touch.clicked_name,instruction_pages.thisRepN,instruction_pages.thisTrialN,instruction_pages.thisN,instruction_pages.thisIndex,instruction_pages.ran,pageN,phase,instruct_text,has_image,instruct_image,presentTrial.started,presentTrial.stopped,response.keys,response.corr,touch_resp.x,touch_resp.y,touch_resp.leftButton,touch_resp.midButton,touch_resp.rightButton,touch_resp.time,touch_resp.clicked_name,rt,corr,feedback.started,feedback.stopped,practice_trials.thisRepN,practice_trials.thisTrialN,practice_trials.thisN,practice_trials.thisIndex,practice_trials.ran,TrialID,StimulusType,Condition,PrimeDuration,Prime,Flanker,corrAns,response.rt,response.duration,instr_done_keyboard.rt,instr_done_keyboard.duration,Break.started,Break.stopped,break_done_touch.x,break_done_touch.y,break_done_touch.leftButton,break_done_touch.midButton,break_done_touch.rightButton,break_done_keyboard.keys,experiment_trials.thisRepN,experiment_trials.thisTrialN,experiment_trials.thisN,experiment_trials.thisIndex,experiment_trials.ran,break_done_keyboard.rt,break_done_keyboard.duration,break_done_touch.clicked_name,End.started,End.stopped
1,"[""over_18"",""comfortable"",""read_info"",""consent_given""]",28,M,"[""none""]","[""spanish"",""other""]",Frances,a6ee218d9bfc9be18838f25b,66a626ef09d4e21e1a8894ec,6734d67ffcbd7fadba31d93c,2024-11-13_17h42.31.551,Tarea de género gramatical,2024.2.2,Win32,60.24096386,,,,,,,,,,,,,,,,,,,,,,,,,,,,,,,,,,,,,,,,,,,,,,,,,,,,,,,,,,,,,,,,,,,,,,
,,,,,,,a6ee218d9bfc9be18838f25b,66a626ef09d4e21e1a8894ec,6734d67ffcbd7fadba31d93c,2024-11-13_17h42.31.551,Tarea de género gramatical,2024.2.2,Win32,60.24096386,88.9093,88.9095,,,,,,,,,,,,,,,,,,,,,,,,,,,,,,,,,,,,,,,,,,,,,,,,,,,,,,,,,,,,,,,,,,,,
,,,,,,,a6ee218d9bfc9be18838f25b,66a626ef09d4e21e1a8894ec,6734d67ffcbd7fadba31d93c,2024-11-13_17h42.31.551,Tarea de género gramatical,2024.2.2,Win32,60.24096386,,,88.9224,104.7308,,0.04537037,-0.375925926,1,0,0,instr_done_button,0,0,0,0,1,1,instructions,"INSTRUCCIONES
Va a realizar una prueba de selección gramatical. Desde el comienzo de la prueba mire siempre al centro de la pantalla. Al cabo de un momento, aparecerán palabras. La tarea consiste en determinar si la palabra del centro (siempre será un sustantivo), pertenece al género masculino o femenino.

Pulse la tecla ESPACIO o toque el botón de abajo para continuar.",0,keyboardresponseMF.png,,,,,,,,,,,,,,,,,,,,,,,,,,,,,,,,,,,,,,,,,,,,,,,,,
,,,,,,,a6ee218d9bfc9be18838f25b,66a626ef09d4e21e1a8894ec,6734d67ffcbd7fadba31d93c,2024-11-13_17h42.31.551,Tarea de género gramatical,2024.2.2,Win32,60.24096386,,,104.7325,121.5648,,0.07962963,-0.387037037,1,0,0,instr_done_button,0,1,1,1,1,2,instructions,"Si su dispositivo tiene teclado, pulse la tecla ""A"" para las palabras en masculino (por ejemplo: ""arroz"") y la tecla ""L"" para las palabras en femenino (por ejemplo: ""mano"").
Pulse la tecla ESPACIO o toque el botón de abajo para continuar.",1,keyboardresponseMF.png,,,,,,,,,,,,,,,,,,,,,,,,,,,,,,,,,,,,,,,,,,,,,,,,,
,,,,,,,a6ee218d9bfc9be18838f25b,66a626ef09d4e21e1a8894ec,6734d67ffcbd7fadba31d93c,2024-11-13_17h42.31.551,Tarea de género gramatical,2024.2.2,Win32,60.24096386,,,121.5659,126.715,,0.05462963,-0.385185185,1,0,0,instr_done_button,0,2,2,2,1,3,instructions,"Si utiliza un dispositivo sólo táctil, colóquelo en horizontal y utilice los botones de la pantalla. No utilice el ratón.
Pulse la tecla ESPACIO o toque el botón de abajo para continuar.",2,touchresponseMF.png,,,,,,,,,,,,,,,,,,,,,,,,,,,,,,,,,,,,,,,,,,,,,,,,,
,,,,,,,a6ee218d9bfc9be18838f25b,66a626ef09d4e21e1a8894ec,6734d67ffcbd7fadba31d93c,2024-11-13_17h42.31.551,Tarea de género gramatical,2024.2.2,Win32,60.24096386,,,126.7167,137.3155,,0.1,-0.390740741,1,0,0,instr_done_button,0,3,3,3,1,4,instructions,"Es muy importante que responda con la mayor rapidez y precisión posibles, ya que cada cadena de letras sólo estará en pantalla durante un instante. Si no responde en ese tiempo, aparecerá el mensaje ""Muy lento"" y el experimento pasará a la siguiente palabra. Los primeros 15 intentos serán de práctica y habrá dos descansos durante la prueba.
Pulse la tecla ESPACIO o toque el botón de abajo para iniciar la parte de práctica.",0,keyboardresponseMF.png,,,,,,,,,,,,,,,,,,,,,,,,,,,,,,,,,,,,,,,,,,,,,,,,,
,,,,,,,a6ee218d9bfc9be18838f25b,66a626ef09d4e21e1a8894ec,6734d67ffcbd7fadba31d93c,2024-11-13_17h42.31.551,Tarea de género gramatical,2024.2.2,Win32,60.24096386,,,,,,,,,,,,,,,,,,,,,,137.3336,139.9825,,0,[],[],[],[],[],[],[],,-1,139.9827,140.4824,0,0,0,11,1,2012,MAS,DIS,150,clima,la,l,,,,,,,,,,,,,,,,,,,,,,
,,,,,,,a6ee218d9bfc9be18838f25b,66a626ef09d4e21e1a8894ec,6734d67ffcbd7fadba31d93c,2024-11-13_17h42.31.551,Tarea de género gramatical,2024.2.2,Win32,60.24096386,,,,,,,,,,,,,,,,,,,,,,140.4834,142.3658,l,0,[],[],[],[],[],[],[],1.2018,0,142.3703,142.8657,0,1,1,12,1,2013,MAS,AGR,150,acero,el,l,1.2018,,,,,,,,,,,,,,,,,,,,,
,,,,,,,a6ee218d9bfc9be18838f25b,66a626ef09d4e21e1a8894ec,6734d67ffcbd7fadba31d93c,2024-11-13_17h42.31.551,Tarea de género gramatical,2024.2.2,Win32,60.24096386,,,,,,,,,,,,,,,,,,,,,,142.8667,144.1825,l,1,[],[],[],[],[],[],[],0.6445,1,144.1832,144.6828,0,2,2,6,1,2007,FEM,AGR,150,navaja,la,a,0.6445,,,,,,,,,,,,,,,,,,,,,
,,,,,,,a6ee218d9bfc9be18838f25b,66a626ef09d4e21e1a8894ec,6734d67ffcbd7fadba31d93c,2024-11-13_17h42.31.551,Tarea de género gramatical,2024.2.2,Win32,60.24096386,,,,,,,,,,,,,,,,,,,,,,144.6835,146.1992,a,1,[],[],[],[],[],[],[],0.8583,1,146.1994,146.7029,0,3,3,10,1,2011,MAS,CON,150,canal,,l,0.8583,,,,,,,,,,,,,,,,,,,,,
,,,,,,,a6ee218d9bfc9be18838f25b,66a626ef09d4e21e1a8894ec,6734d67ffcbd7fadba31d93c,2024-11-13_17h42.31.551,Tarea de género gramatical,2024.2.2,Win32,60.24096386,,,,,,,,,,,,,,,,,,,,,,146.704,148.1328,l,0,[],[],[],[],[],[],[],0.7531,0,148.1333,148.6363,0,4,4,14,1,2015,MAS,DIS,150,robot,la,l,0.7531,,,,,,,,,,,,,,,,,,,,,
,,,,,,,a6ee218d9bfc9be18838f25b,66a626ef09d4e21e1a8894ec,6734d67ffcbd7fadba31d93c,2024-11-13_17h42.31.551,Tarea de género gramatical,2024.2.2,Win32,60.24096386,,,,,,,,,,,,,,,,,,,,,,148.6369,150.5828,l,1,[],[],[],[],[],[],[],1.2751,1,150.5834,151.0865,0,5,5,3,1,2004,FEM,AGR,150,venta,la,a,1.2751,,,,,,,,,,,,,,,,,,,,,
,,,,,,,a6ee218d9bfc9be18838f25b,66a626ef09d4e21e1a8894ec,6734d67ffcbd7fadba31d93c,2024-11-13_17h42.31.551,Tarea de género gramatical,2024.2.2,Win32,60.24096386,,,,,,,,,,,,,,,,,,,,,,151.0872,152.5199,a,1,[],[],[],[],[],[],[],0.7503,1,152.5199,153.0162,0,6,6,9,1,2010,MAS,AGR,150,vecino,el,l,0.7503,,,,,,,,,,,,,,,,,,,,,
,,,,,,,a6ee218d9bfc9be18838f25b,66a626ef09d4e21e1a8894ec,6734d67ffcbd7fadba31d93c,2024-11-13_17h42.31.551,Tarea de género gramatical,2024.2.2,Win32,60.24096386,,,,,,,,,,,,,,,,,,,,,,153.017,154.2367,l,1,[],[],[],[],[],[],[],0.5487,1,154.2368,154.7345,0,7,7,1,1,2002,FEM,CON,150,pala,,a,0.5487,,,,,,,,,,,,,,,,,,,,,
,,,,,,,a6ee218d9bfc9be18838f25b,66a626ef09d4e21e1a8894ec,6734d67ffcbd7fadba31d93c,2024-11-13_17h42.31.551,Tarea de género gramatical,2024.2.2,Win32,60.24096386,,,,,,,,,,,,,,,,,,,,,,154.7351,155.8701,l,1,[],[],[],[],[],[],[],0.467,1,155.8702,156.3699,0,8,8,4,1,2005,FEM,CON,150,placa,,a,0.467,,,,,,,,,,,,,,,,,,,,,
,,,,,,,a6ee218d9bfc9be18838f25b,66a626ef09d4e21e1a8894ec,6734d67ffcbd7fadba31d93c,2024-11-13_17h42.31.551,Tarea de género gramatical,2024.2.2,Win32,60.24096386,,,,,,,,,,,,,,,,,,,,,,156.3707,157.9702,l,1,[],[],[],[],[],[],[],0.9319,1,157.9703,158.4666,0,9,9,5,1,2006,FEM,DIS,150,serie,el,a,0.9319,,,,,,,,,,,,,,,,,,,,,
,,,,,,,a6ee218d9bfc9be18838f25b,66a626ef09d4e21e1a8894ec,6734d67ffcbd7fadba31d93c,2024-11-13_17h42.31.551,Tarea de género gramatical,2024.2.2,Win32,60.24096386,,,,,,,,,,,,,,,,,,,,,,158.4674,160.0535,a,1,[],[],[],[],[],[],[],0.9149,1,160.0536,160.55,0,10,10,13,1,2014,MAS,CON,150,siglo,,l,0.9149,,,,,,,,,,,,,,,,,,,,,
,,,,,,,a6ee218d9bfc9be18838f25b,66a626ef09d4e21e1a8894ec,6734d67ffcbd7fadba31d93c,2024-11-13_17h42.31.551,Tarea de género gramatical,2024.2.2,Win32,60.24096386,,,,,,,,,,,,,,,,,,,,,,160.5508,161.8203,l,1,[],[],[],[],[],[],[],0.6008,1,161.8203,162.3167,0,11,11,0,1,2001,FEM,AGR,150,nuca,la,a,0.6008,,,,,,,,,,,,,,,,,,,,,
,,,,,,,a6ee218d9bfc9be18838f25b,66a626ef09d4e21e1a8894ec,6734d67ffcbd7fadba31d93c,2024-11-13_17h42.31.551,Tarea de género gramatical,2024.2.2,Win32,60.24096386,,,,,,,,,,,,,,,,,,,,,,162.3173,163.6167,a,1,[],[],[],[],[],[],[],0.6251,1,163.6168,164.1168,0,12,12,8,1,2009,MAS,DIS,150,puerto,la,l,0.6251,,,,,,,,,,,,,,,,,,,,,
,,,,,,,a6ee218d9bfc9be18838f25b,66a626ef09d4e21e1a8894ec,6734d67ffcbd7fadba31d93c,2024-11-13_17h42.31.551,Tarea de género gramatical,2024.2.2,Win32,60.24096386,,,,,,,,,,,,,,,,,,,,,,164.1176,165.3502,l,1,[],[],[],[],[],[],[],0.5613,1,165.3503,165.8532,0,13,13,2,1,2003,FEM,DIS,150,daga,el,a,0.5613,,,,,,,,,,,,,,,,,,,,,
,,,,,,,a6ee218d9bfc9be18838f25b,66a626ef09d4e21e1a8894ec,6734d67ffcbd7fadba31d93c,2024-11-13_17h42.31.551,Tarea de género gramatical,2024.2.2,Win32,60.24096386,,,,,,,,,,,,,,,,,,,,,,165.8539,167.2669,l,1,[],[],[],[],[],[],[],0.7398,1,167.267,167.7683,0,14,14,7,1,2008,FEM,CON,150,siesta,,a,0.7398,,,,,,,,,,,,,,,,,,,,,
,,,,,,,a6ee218d9bfc9be18838f25b,66a626ef09d4e21e1a8894ec,6734d67ffcbd7fadba31d93c,2024-11-13_17h42.31.551,Tarea de género gramatical,2024.2.2,Win32,60.24096386,,,173.0392,176.0379,space,0.192592593,-0.086111111,0,0,0,,,,,,,,,,,,176.1144,177.6844,a,1,[],[],[],[],[],[],[],0.9128,1,177.6844,178.1842,,,,,,665,MAS,DIS,150,hueso,la,l,0.9128,,2.9834,,178.1844,178.1864,0.192592593,-0.086111111,0,0,0,,0,0,0,214,1,,,,,
,,,,,,,a6ee218d9bfc9be18838f25b,66a626ef09d4e21e1a8894ec,6734d67ffcbd7fadba31d93c,2024-11-13_17h42.31.551,Tarea de género gramatical,2024.2.2,Win32,60.24096386,,,,,,,,,,,,,,,,,,,,,,178.187,179.3509,a,1,[],[],[],[],[],[],[],0.4938,1,179.3509,179.8509,,,,,,845,MAS,DIS,150,correo,la,l,0.4938,,,,179.851,179.851,0.192592593,-0.086111111,0,0,0,,0,1,1,394,1,,,,,
,,,,,,,a6ee218d9bfc9be18838f25b,66a626ef09d4e21e1a8894ec,6734d67ffcbd7fadba31d93c,2024-11-13_17h42.31.551,Tarea de género gramatical,2024.2.2,Win32,60.24096386,,,,,,,,,,,,,,,,,,,,,,179.8519,181.1343,a,1,[],[],[],[],[],[],[],0.611,1,181.1343,181.6343,,,,,,868,MAS,CON,150,pájaro,,l,0.611,,,,181.6352,181.6355,0.192592593,-0.086111111,0,0,0,,0,2,2,417,1,,,,,
,,,,,,,a6ee218d9bfc9be18838f25b,66a626ef09d4e21e1a8894ec,6734d67ffcbd7fadba31d93c,2024-11-13_17h42.31.551,Tarea de género gramatical,2024.2.2,Win32,60.24096386,,,,,,,,,,,,,,,,,,,,,,181.636,182.8177,a,1,[],[],[],[],[],[],[],0.4998,1,182.8178,183.3177,,,,,,546,MAS,AGR,150,pato,el,l,0.4998,,,,183.3178,183.3179,0.192592593,-0.086111111,0,0,0,,0,3,3,95,1,,,,,
,,,,,,,a6ee218d9bfc9be18838f25b,66a626ef09d4e21e1a8894ec,6734d67ffcbd7fadba31d93c,2024-11-13_17h42.31.551,Tarea de género gramatical,2024.2.2,Win32,60.24096386,,,,,,,,,,,,,,,,,,,,,,183.3187,184.4178,a,1,[],[],[],[],[],[],[],0.4241,1,184.4178,184.9178,,,,,,540,MAS,AGR,150,león,el,l,0.4241,,,,184.9178,184.9179,0.192592593,-0.086111111,0,0,0,,0,4,4,89,1,,,,,
,,,,,,,a6ee218d9bfc9be18838f25b,66a626ef09d4e21e1a8894ec,6734d67ffcbd7fadba31d93c,2024-11-13_17h42.31.551,Tarea de género gramatical,2024.2.2,Win32,60.24096386,,,,,,,,,,,,,,,,,,,,,,184.9186,186.2679,a,1,[],[],[],[],[],[],[],0.6646,1,186.2679,186.7679,,,,,,719,MAS,DIS,150,primo,la,l,0.6646,,,,186.7679,186.768,0.192592593,-0.086111111,0,0,0,,0,5,5,268,1,,,,,
,,,,,,,a6ee218d9bfc9be18838f25b,66a626ef09d4e21e1a8894ec,6734d67ffcbd7fadba31d93c,2024-11-13_17h42.31.551,Tarea de género gramatical,2024.2.2,Win32,60.24096386,,,,,,,,,,,,,,,,,,,,,,186.7686,187.9513,l,1,[],[],[],[],[],[],[],0.5039,1,187.9514,188.4513,,,,,,596,FEM,DIS,150,lana,el,a,0.5039,,,,188.4522,188.4526,0.192592593,-0.086111111,0,0,0,,0,6,6,145,1,,,,,
,,,,,,,a6ee218d9bfc9be18838f25b,66a626ef09d4e21e1a8894ec,6734d67ffcbd7fadba31d93c,2024-11-13_17h42.31.551,Tarea de género gramatical,2024.2.2,Win32,60.24096386,,,,,,,,,,,,,,,,,,,,,,188.4529,189.6348,a,1,[],[],[],[],[],[],[],0.5066,1,189.6349,190.1348,,,,,,856,MAS,CON,150,premio,,l,0.5066,,,,190.1348,190.1348,0.192592593,-0.086111111,0,0,0,,0,7,7,405,1,,,,,
,,,,,,,a6ee218d9bfc9be18838f25b,66a626ef09d4e21e1a8894ec,6734d67ffcbd7fadba31d93c,2024-11-13_17h42.31.551,Tarea de género gramatical,2024.2.2,Win32,60.24096386,,,,,,,,,,,,,,,,,,,,,,190.1354,191.3347,l,1,[],[],[],[],[],[],[],0.5271,1,191.3349,191.8348,,,,,,619,FEM,CON,150,vista,,a,0.5271,,,,191.8349,191.8349,0.192592593,-0.086111111,0,0,0,,0,8,8,168,1,,,,,
,,,,,,,a6ee218d9bfc9be18838f25b,66a626ef09d4e21e1a8894ec,6734d67ffcbd7fadba31d93c,2024-11-13_17h42.31.551,Tarea de género gramatical,2024.2.2,Win32,60.24096386,,,,,,,,,,,,,,,,,,,,,,191.8355,193.7349,a,0,[],[],[],[],[],[],[],1.2274,0,193.7356,194.235,,,,,,854,FEM,DIS,150,gloria,el,a,1.2274,,,,194.2351,194.2352,0.192592593,-0.086111111,0,0,0,,0,9,9,403,1,,,,,
,,,,,,,a6ee218d9bfc9be18838f25b,66a626ef09d4e21e1a8894ec,6734d67ffcbd7fadba31d93c,2024-11-13_17h42.31.551,Tarea de género gramatical,2024.2.2,Win32,60.24096386,,,,,,,,,,,,,,,,,,,,,,194.236,195.9851,l,1,[],[],[],[],[],[],[],1.0749,1,195.9856,196.485,,,,,,585,FEM,AGR,150,raíz,la,a,1.0749,,,,196.4851,196.4852,0.192592593,-0.086111111,0,0,0,,0,10,10,134,1,,,,,
,,,,,,,a6ee218d9bfc9be18838f25b,66a626ef09d4e21e1a8894ec,6734d67ffcbd7fadba31d93c,2024-11-13_17h42.31.551,Tarea de género gramatical,2024.2.2,Win32,60.24096386,,,,,,,,,,,,,,,,,,,,,,196.486,198.0685,a,1,[],[],[],[],[],[],[],0.8986,1,198.0686,198.5685,,,,,,767,MAS,DIS,150,número,la,l,0.8986,,,,198.5694,198.5697,0.192592593,-0.086111111,0,0,0,,0,11,11,316,1,,,,,
,,,,,,,a6ee218d9bfc9be18838f25b,66a626ef09d4e21e1a8894ec,6734d67ffcbd7fadba31d93c,2024-11-13_17h42.31.551,Tarea de género gramatical,2024.2.2,Win32,60.24096386,,,,,,,,,,,,,,,,,,,,,,198.5701,199.9185,a,1,[],[],[],[],[],[],[],0.6694,1,199.9187,200.4185,,,,,,582,MAS,AGR,150,velo,el,l,0.6694,,,,200.4186,200.4187,0.192592593,-0.086111111,0,0,0,,0,12,12,131,1,,,,,
,,,,,,,a6ee218d9bfc9be18838f25b,66a626ef09d4e21e1a8894ec,6734d67ffcbd7fadba31d93c,2024-11-13_17h42.31.551,Tarea de género gramatical,2024.2.2,Win32,60.24096386,,,,,,,,,,,,,,,,,,,,,,200.4193,201.5354,a,1,[],[],[],[],[],[],[],0.4374,1,201.5354,202.0354,,,,,,628,MAS,CON,150,punto,,l,0.4374,,,,202.0354,202.0354,0.192592593,-0.086111111,0,0,0,,0,13,13,177,1,,,,,
,,,,,,,a6ee218d9bfc9be18838f25b,66a626ef09d4e21e1a8894ec,6734d67ffcbd7fadba31d93c,2024-11-13_17h42.31.551,Tarea de género gramatical,2024.2.2,Win32,60.24096386,,,,,,,,,,,,,,,,,,,,,,202.0361,203.1188,a,1,[],[],[],[],[],[],[],0.4123,1,203.1189,203.6187,,,,,,827,MAS,DIS,150,jardín,la,l,0.4123,,,,203.6187,203.6189,0.192592593,-0.086111111,0,0,0,,0,14,14,376,1,,,,,
,,,,,,,a6ee218d9bfc9be18838f25b,66a626ef09d4e21e1a8894ec,6734d67ffcbd7fadba31d93c,2024-11-13_17h42.31.551,Tarea de género gramatical,2024.2.2,Win32,60.24096386,,,,,,,,,,,,,,,,,,,,,,203.6194,204.7355,a,1,[],[],[],[],[],[],[],0.4354,1,204.7356,205.2355,,,,,,574,MAS,CON,150,clan,,l,0.4354,,,,205.2364,205.2368,0.192592593,-0.086111111,0,0,0,,0,15,15,123,1,,,,,
,,,,,,,a6ee218d9bfc9be18838f25b,66a626ef09d4e21e1a8894ec,6734d67ffcbd7fadba31d93c,2024-11-13_17h42.31.551,Tarea de género gramatical,2024.2.2,Win32,60.24096386,,,,,,,,,,,,,,,,,,,,,,205.2371,206.3355,a,1,[],[],[],[],[],[],[],0.4264,1,206.3356,206.8356,,,,,,851,MAS,DIS,150,abrigo,la,l,0.4264,,,,206.8356,206.8357,0.192592593,-0.086111111,0,0,0,,0,16,16,400,1,,,,,
,,,,,,,a6ee218d9bfc9be18838f25b,66a626ef09d4e21e1a8894ec,6734d67ffcbd7fadba31d93c,2024-11-13_17h42.31.551,Tarea de género gramatical,2024.2.2,Win32,60.24096386,,,,,,,,,,,,,,,,,,,,,,206.8362,207.8857,a,1,[],[],[],[],[],[],[],0.3704,1,207.8857,208.3856,,,,,,718,MAS,CON,150,truco,,l,0.3704,,,,208.3857,208.3857,0.192592593,-0.086111111,0,0,0,,0,17,17,267,1,,,,,
,,,,,,,a6ee218d9bfc9be18838f25b,66a626ef09d4e21e1a8894ec,6734d67ffcbd7fadba31d93c,2024-11-13_17h42.31.551,Tarea de género gramatical,2024.2.2,Win32,60.24096386,,,,,,,,,,,,,,,,,,,,,,208.3864,209.6024,l,1,[],[],[],[],[],[],[],0.5321,1,209.6024,210.1025,,,,,,753,FEM,AGR,150,maldad,la,a,0.5321,,,,210.1025,210.1025,0.192592593,-0.086111111,0,0,0,,0,18,18,302,1,,,,,
,,,,,,,a6ee218d9bfc9be18838f25b,66a626ef09d4e21e1a8894ec,6734d67ffcbd7fadba31d93c,2024-11-13_17h42.31.551,Tarea de género gramatical,2024.2.2,Win32,60.24096386,,,,,,,,,,,,,,,,,,,,,,210.1032,211.2525,a,1,[],[],[],[],[],[],[],0.4812,1,211.2525,211.7525,,,,,,826,MAS,CON,150,efecto,,l,0.4812,,,,211.7525,211.7525,0.192592593,-0.086111111,0,0,0,,0,19,19,375,1,,,,,
,,,,,,,a6ee218d9bfc9be18838f25b,66a626ef09d4e21e1a8894ec,6734d67ffcbd7fadba31d93c,2024-11-13_17h42.31.551,Tarea de género gramatical,2024.2.2,Win32,60.24096386,,,,,,,,,,,,,,,,,,,,,,211.7532,212.8859,l,1,[],[],[],[],[],[],[],0.4532,1,212.886,213.3859,,,,,,769,FEM,CON,150,sangre,,a,0.4532,,,,213.3867,213.3873,0.192592593,-0.086111111,0,0,0,,0,20,20,318,1,,,,,
,,,,,,,a6ee218d9bfc9be18838f25b,66a626ef09d4e21e1a8894ec,6734d67ffcbd7fadba31d93c,2024-11-13_17h42.31.551,Tarea de género gramatical,2024.2.2,Win32,60.24096386,,,,,,,,,,,,,,,,,,,,,,213.3876,214.5193,a,1,[],[],[],[],[],[],[],0.452,1,214.5193,215.0193,,,,,,516,MAS,AGR,150,muro,el,l,0.452,,,,215.0194,215.0194,0.192592593,-0.086111111,0,0,0,,0,21,21,65,1,,,,,
,,,,,,,a6ee218d9bfc9be18838f25b,66a626ef09d4e21e1a8894ec,6734d67ffcbd7fadba31d93c,2024-11-13_17h42.31.551,Tarea de género gramatical,2024.2.2,Win32,60.24096386,,,,,,,,,,,,,,,,,,,,,,215.02,216.2527,l,0,[],[],[],[],[],[],[],0.5567,0,216.2532,216.7527,,,,,,670,MAS,CON,150,huevo,,l,0.5567,,,,216.7527,216.7528,0.192592593,-0.086111111,0,0,0,,0,22,22,219,1,,,,,
,,,,,,,a6ee218d9bfc9be18838f25b,66a626ef09d4e21e1a8894ec,6734d67ffcbd7fadba31d93c,2024-11-13_17h42.31.551,Tarea de género gramatical,2024.2.2,Win32,60.24096386,,,,,,,,,,,,,,,,,,,,,,216.7534,218.0861,a,1,[],[],[],[],[],[],[],0.6533,1,218.0867,218.5861,,,,,,658,MAS,CON,150,suelo,,l,0.6533,,,,218.5861,218.5862,0.192592593,-0.086111111,0,0,0,,0,23,23,207,1,,,,,
,,,,,,,a6ee218d9bfc9be18838f25b,66a626ef09d4e21e1a8894ec,6734d67ffcbd7fadba31d93c,2024-11-13_17h42.31.551,Tarea de género gramatical,2024.2.2,Win32,60.24096386,,,,,,,,,,,,,,,,,,,,,,218.5869,219.8195,l,1,[],[],[],[],[],[],[],0.5557,1,219.8196,220.3196,,,,,,771,FEM,AGR,150,comida,la,a,0.5557,,,,220.3204,220.3208,0.192592593,-0.086111111,0,0,0,,0,24,24,320,1,,,,,
,,,,,,,a6ee218d9bfc9be18838f25b,66a626ef09d4e21e1a8894ec,6734d67ffcbd7fadba31d93c,2024-11-13_17h42.31.551,Tarea de género gramatical,2024.2.2,Win32,60.24096386,,,,,,,,,,,,,,,,,,,,,,220.3212,221.5196,l,1,[],[],[],[],[],[],[],0.5261,1,221.5197,222.0196,,,,,,662,FEM,DIS,150,cinta,el,a,0.5261,,,,222.0196,222.0197,0.192592593,-0.086111111,0,0,0,,0,25,25,211,1,,,,,
,,,,,,,a6ee218d9bfc9be18838f25b,66a626ef09d4e21e1a8894ec,6734d67ffcbd7fadba31d93c,2024-11-13_17h42.31.551,Tarea de género gramatical,2024.2.2,Win32,60.24096386,,,,,,,,,,,,,,,,,,,,,,222.0204,223.2197,a,1,[],[],[],[],[],[],[],0.515,1,223.2198,223.7198,,,,,,528,MAS,AGR,150,oído,el,l,0.515,,,,223.7198,223.7198,0.192592593,-0.086111111,0,0,0,,0,26,26,77,1,,,,,
,,,,,,,a6ee218d9bfc9be18838f25b,66a626ef09d4e21e1a8894ec,6734d67ffcbd7fadba31d93c,2024-11-13_17h42.31.551,Tarea de género gramatical,2024.2.2,Win32,60.24096386,,,,,,,,,,,,,,,,,,,,,,223.7204,224.9365,l,1,[],[],[],[],[],[],[],0.5423,1,224.9365,225.4365,,,,,,519,FEM,AGR,150,rata,la,a,0.5423,,,,225.4365,225.4366,0.192592593,-0.086111111,0,0,0,,0,27,27,68,1,,,,,
,,,,,,,a6ee218d9bfc9be18838f25b,66a626ef09d4e21e1a8894ec,6734d67ffcbd7fadba31d93c,2024-11-13_17h42.31.551,Tarea de género gramatical,2024.2.2,Win32,60.24096386,,,,,,,,,,,,,,,,,,,,,,225.4373,226.6533,a,1,[],[],[],[],[],[],[],0.5377,1,226.6533,227.1533,,,,,,774,MAS,AGR,150,cuarto,el,l,0.5377,,,,227.1533,227.1533,0.192592593,-0.086111111,0,0,0,,0,28,28,323,1,,,,,
,,,,,,,a6ee218d9bfc9be18838f25b,66a626ef09d4e21e1a8894ec,6734d67ffcbd7fadba31d93c,2024-11-13_17h42.31.551,Tarea de género gramatical,2024.2.2,Win32,60.24096386,,,,,,,,,,,,,,,,,,,,,,227.154,228.3033,l,1,[],[],[],[],[],[],[],0.4706,1,228.3034,228.8033,,,,,,859,FEM,CON,150,moneda,,a,0.4706,,,,228.8042,228.8046,0.192592593,-0.086111111,0,0,0,,0,29,29,408,1,,,,,
,,,,,,,a6ee218d9bfc9be18838f25b,66a626ef09d4e21e1a8894ec,6734d67ffcbd7fadba31d93c,2024-11-13_17h42.31.551,Tarea de género gramatical,2024.2.2,Win32,60.24096386,,,,,,,,,,,,,,,,,,,,,,228.8049,230.22,l,1,[],[],[],[],[],[],[],0.7333,1,230.2201,230.7201,,,,,,548,FEM,DIS,150,fuga,el,a,0.7333,,,,230.7201,230.7201,0.192592593,-0.086111111,0,0,0,,0,30,30,97,1,,,,,
,,,,,,,a6ee218d9bfc9be18838f25b,66a626ef09d4e21e1a8894ec,6734d67ffcbd7fadba31d93c,2024-11-13_17h42.31.551,Tarea de género gramatical,2024.2.2,Win32,60.24096386,,,,,,,,,,,,,,,,,,,,,,230.7209,232.0702,a,1,[],[],[],[],[],[],[],0.678,1,232.0702,232.5702,,,,,,713,MAS,DIS,150,carro,la,l,0.678,,,,232.5702,232.5702,0.192592593,-0.086111111,0,0,0,,0,31,31,262,1,,,,,
,,,,,,,a6ee218d9bfc9be18838f25b,66a626ef09d4e21e1a8894ec,6734d67ffcbd7fadba31d93c,2024-11-13_17h42.31.551,Tarea de género gramatical,2024.2.2,Win32,60.24096386,,,,,,,,,,,,,,,,,,,,,,232.5711,233.7036,a,1,[],[],[],[],[],[],[],0.4598,1,233.7037,234.2036,,,,,,580,MAS,CON,150,yate,,l,0.4598,,,,234.2036,234.2037,0.192592593,-0.086111111,0,0,0,,0,32,32,129,1,,,,,
,,,,,,,a6ee218d9bfc9be18838f25b,66a626ef09d4e21e1a8894ec,6734d67ffcbd7fadba31d93c,2024-11-13_17h42.31.551,Tarea de género gramatical,2024.2.2,Win32,60.24096386,,,,,,,,,,,,,,,,,,,,,,234.2045,235.337,l,1,[],[],[],[],[],[],[],0.4503,1,235.3371,235.837,,,,,,817,FEM,CON,150,teoría,,a,0.4503,,,,235.8378,235.8383,0.192592593,-0.086111111,0,0,0,,0,33,33,366,1,,,,,
,,,,,,,a6ee218d9bfc9be18838f25b,66a626ef09d4e21e1a8894ec,6734d67ffcbd7fadba31d93c,2024-11-13_17h42.31.551,Tarea de género gramatical,2024.2.2,Win32,60.24096386,,,,,,,,,,,,,,,,,,,,,,235.8386,237.2871,a,1,[],[],[],[],[],[],[],0.7701,1,237.2872,237.7872,,,,,,486,MAS,AGR,150,dedo,el,l,0.7701,,,,237.7872,237.7873,0.192592593,-0.086111111,0,0,0,,0,34,34,35,1,,,,,
,,,,,,,a6ee218d9bfc9be18838f25b,66a626ef09d4e21e1a8894ec,6734d67ffcbd7fadba31d93c,2024-11-13_17h42.31.551,Tarea de género gramatical,2024.2.2,Win32,60.24096386,,,,,,,,,,,,,,,,,,,,,,237.788,239.1205,a,1,[],[],[],[],[],[],[],0.6583,1,239.1206,239.6206,,,,,,822,MAS,AGR,150,delito,el,l,0.6583,,,,239.6206,239.6206,0.192592593,-0.086111111,0,0,0,,0,35,35,371,1,,,,,
,,,,,,,a6ee218d9bfc9be18838f25b,66a626ef09d4e21e1a8894ec,6734d67ffcbd7fadba31d93c,2024-11-13_17h42.31.551,Tarea de género gramatical,2024.2.2,Win32,60.24096386,,,,,,,,,,,,,,,,,,,,,,239.6213,240.9541,l,1,[],[],[],[],[],[],[],0.6504,1,240.9542,241.454,,,,,,782,FEM,DIS,150,basura,el,a,0.6504,,,,241.454,241.4541,0.192592593,-0.086111111,0,0,0,,0,36,36,331,1,,,,,
,,,,,,,a6ee218d9bfc9be18838f25b,66a626ef09d4e21e1a8894ec,6734d67ffcbd7fadba31d93c,2024-11-13_17h42.31.551,Tarea de género gramatical,2024.2.2,Win32,60.24096386,,,,,,,,,,,,,,,,,,,,,,241.4547,242.854,l,1,[],[],[],[],[],[],[],0.7291,1,242.8541,243.354,,,,,,620,FEM,DIS,150,carta,el,a,0.7291,,,,243.3541,243.3541,0.192592593,-0.086111111,0,0,0,,0,37,37,169,1,,,,,
,,,,,,,a6ee218d9bfc9be18838f25b,66a626ef09d4e21e1a8894ec,6734d67ffcbd7fadba31d93c,2024-11-13_17h42.31.551,Tarea de género gramatical,2024.2.2,Win32,60.24096386,,,,,,,,,,,,,,,,,,,,,,243.3547,244.5374,a,1,[],[],[],[],[],[],[],0.508,1,244.5375,245.0375,,,,,,724,MAS,CON,150,motor,,l,0.508,,,,245.0383,245.0388,0.192592593,-0.086111111,0,0,0,,0,38,38,273,1,,,,,
,,,,,,,a6ee218d9bfc9be18838f25b,66a626ef09d4e21e1a8894ec,6734d67ffcbd7fadba31d93c,2024-11-13_17h42.31.551,Tarea de género gramatical,2024.2.2,Win32,60.24096386,,,,,,,,,,,,,,,,,,,,,,245.0391,246.4375,l,1,[],[],[],[],[],[],[],0.7295,1,246.4376,246.9376,,,,,,529,FEM,CON,150,mina,,a,0.7295,,,,246.9376,246.9376,0.192592593,-0.086111111,0,0,0,,0,39,39,78,1,,,,,
,,,,,,,a6ee218d9bfc9be18838f25b,66a626ef09d4e21e1a8894ec,6734d67ffcbd7fadba31d93c,2024-11-13_17h42.31.551,Tarea de género gramatical,2024.2.2,Win32,60.24096386,,,,,,,,,,,,,,,,,,,,,,246.9383,248.1876,l,1,[],[],[],[],[],[],[],0.5743,1,248.1877,248.6876,,,,,,477,FEM,AGR,150,mesa,la,a,0.5743,,,,248.6876,248.6877,0.192592593,-0.086111111,0,0,0,,0,40,40,26,1,,,,,
,,,,,,,a6ee218d9bfc9be18838f25b,66a626ef09d4e21e1a8894ec,6734d67ffcbd7fadba31d93c,2024-11-13_17h42.31.551,Tarea de género gramatical,2024.2.2,Win32,60.24096386,,,,,,,,,,,,,,,,,,,,,,248.6884,249.8212,l,1,[],[],[],[],[],[],[],0.4542,1,249.8213,250.3211,,,,,,819,FEM,AGR,150,camisa,la,a,0.4542,,,,250.3211,250.3212,0.192592593,-0.086111111,0,0,0,,0,41,41,368,1,,,,,
,,,,,,,a6ee218d9bfc9be18838f25b,66a626ef09d4e21e1a8894ec,6734d67ffcbd7fadba31d93c,2024-11-13_17h42.31.551,Tarea de género gramatical,2024.2.2,Win32,60.24096386,,,,,,,,,,,,,,,,,,,,,,250.3218,251.6044,a,1,[],[],[],[],[],[],[],0.6068,1,251.6045,252.1045,,,,,,749,MAS,DIS,150,rumbo,la,l,0.6068,,,,252.1052,252.1056,0.192592593,-0.086111111,0,0,0,,0,42,42,298,1,,,,,
,,,,,,,a6ee218d9bfc9be18838f25b,66a626ef09d4e21e1a8894ec,6734d67ffcbd7fadba31d93c,2024-11-13_17h42.31.551,Tarea de género gramatical,2024.2.2,Win32,60.24096386,,,,,,,,,,,,,,,,,,,,,,252.1059,253.2045,a,1,[],[],[],[],[],[],[],0.4235,1,253.2046,253.7046,,,,,,640,MAS,CON,150,campo,,l,0.4235,,,,253.7046,253.7046,0.192592593,-0.086111111,0,0,0,,0,43,43,189,1,,,,,
,,,,,,,a6ee218d9bfc9be18838f25b,66a626ef09d4e21e1a8894ec,6734d67ffcbd7fadba31d93c,2024-11-13_17h42.31.551,Tarea de género gramatical,2024.2.2,Win32,60.24096386,,,,,,,,,,,,,,,,,,,,,,253.7053,254.9046,l,0,[],[],[],[],[],[],[],0.5252,0,254.9051,255.4047,,,,,,527,MAS,DIS,150,pico,la,l,0.5252,,,,255.4047,255.4047,0.192592593,-0.086111111,0,0,0,,0,44,44,76,1,,,,,
,,,,,,,a6ee218d9bfc9be18838f25b,66a626ef09d4e21e1a8894ec,6734d67ffcbd7fadba31d93c,2024-11-13_17h42.31.551,Tarea de género gramatical,2024.2.2,Win32,60.24096386,,,,,,,,,,,,,,,,,,,,,,255.4054,256.8047,l,1,[],[],[],[],[],[],[],0.7184,1,256.8052,257.3048,,,,,,512,FEM,DIS,150,sopa,el,a,0.7184,,,,257.3048,257.3048,0.192592593,-0.086111111,0,0,0,,0,45,45,61,1,,,,,
,,,,,,,a6ee218d9bfc9be18838f25b,66a626ef09d4e21e1a8894ec,6734d67ffcbd7fadba31d93c,2024-11-13_17h42.31.551,Tarea de género gramatical,2024.2.2,Win32,60.24096386,,,,,,,,,,,,,,,,,,,,,,257.3055,258.4548,a,1,[],[],[],[],[],[],[],0.4713,1,258.4549,258.9548,,,,,,623,MAS,DIS,150,libro,la,l,0.4713,,,,258.9549,258.9549,0.192592593,-0.086111111,0,0,0,,0,46,46,172,1,,,,,
,,,,,,,a6ee218d9bfc9be18838f25b,66a626ef09d4e21e1a8894ec,6734d67ffcbd7fadba31d93c,2024-11-13_17h42.31.551,Tarea de género gramatical,2024.2.2,Win32,60.24096386,,,,,,,,,,,,,,,,,,,,,,258.9556,260.3216,l,1,[],[],[],[],[],[],[],0.6911,1,260.3216,260.8216,,,,,,507,FEM,AGR,150,moda,la,a,0.6911,,,,260.8223,260.8227,0.192592593,-0.086111111,0,0,0,,0,47,47,56,1,,,,,
,,,,,,,a6ee218d9bfc9be18838f25b,66a626ef09d4e21e1a8894ec,6734d67ffcbd7fadba31d93c,2024-11-13_17h42.31.551,Tarea de género gramatical,2024.2.2,Win32,60.24096386,,,,,,,,,,,,,,,,,,,,,,260.8231,262.5717,a,1,[],[],[],[],[],[],[],1.0724,1,262.5718,263.0717,,,,,,874,MAS,CON,150,rastro,,l,1.0724,,,,263.0717,263.0718,0.192592593,-0.086111111,0,0,0,,0,48,48,423,1,,,,,
,,,,,,,a6ee218d9bfc9be18838f25b,66a626ef09d4e21e1a8894ec,6734d67ffcbd7fadba31d93c,2024-11-13_17h42.31.551,Tarea de género gramatical,2024.2.2,Win32,60.24096386,,,,,,,,,,,,,,,,,,,,,,263.0723,264.3384,l,1,[],[],[],[],[],[],[],0.5901,1,264.3385,264.8385,,,,,,549,FEM,AGR,150,fase,la,a,0.5901,,,,264.8385,264.8385,0.192592593,-0.086111111,0,0,0,,0,49,49,98,1,,,,,
,,,,,,,a6ee218d9bfc9be18838f25b,66a626ef09d4e21e1a8894ec,6734d67ffcbd7fadba31d93c,2024-11-13_17h42.31.551,Tarea de género gramatical,2024.2.2,Win32,60.24096386,,,,,,,,,,,,,,,,,,,,,,264.8391,266.0552,a,1,[],[],[],[],[],[],[],0.5433,1,266.0553,266.5552,,,,,,876,MAS,AGR,150,pánico,el,l,0.5433,,,,266.5553,266.5553,0.192592593,-0.086111111,0,0,0,,0,50,50,425,1,,,,,
,,,,,,,a6ee218d9bfc9be18838f25b,66a626ef09d4e21e1a8894ec,6734d67ffcbd7fadba31d93c,2024-11-13_17h42.31.551,Tarea de género gramatical,2024.2.2,Win32,60.24096386,,,,,,,,,,,,,,,,,,,,,,266.5559,267.672,l,1,[],[],[],[],[],[],[],0.4348,1,267.672,268.1719,,,,,,609,FEM,AGR,150,clase,la,a,0.4348,,,,268.1727,268.173,0.192592593,-0.086111111,0,0,0,,0,51,51,158,1,,,,,
,,,,,,,a6ee218d9bfc9be18838f25b,66a626ef09d4e21e1a8894ec,6734d67ffcbd7fadba31d93c,2024-11-13_17h42.31.551,Tarea de género gramatical,2024.2.2,Win32,60.24096386,,,,,,,,,,,,,,,,,,,,,,268.1737,269.6053,l,1,[],[],[],[],[],[],[],0.7622,1,269.6054,270.1054,,,,,,656,FEM,DIS,150,época,el,a,0.7622,,,,270.1054,270.1055,0.192592593,-0.086111111,0,0,0,,0,52,52,205,1,,,,,
,,,,,,,a6ee218d9bfc9be18838f25b,66a626ef09d4e21e1a8894ec,6734d67ffcbd7fadba31d93c,2024-11-13_17h42.31.551,Tarea de género gramatical,2024.2.2,Win32,60.24096386,,,,,,,,,,,,,,,,,,,,,,270.1061,271.2555,l,1,[],[],[],[],[],[],[],0.4686,1,271.2556,271.7555,,,,,,813,FEM,AGR,150,unidad,la,a,0.4686,,,,271.7555,271.7556,0.192592593,-0.086111111,0,0,0,,0,53,53,362,1,,,,,
,,,,,,,a6ee218d9bfc9be18838f25b,66a626ef09d4e21e1a8894ec,6734d67ffcbd7fadba31d93c,2024-11-13_17h42.31.551,Tarea de género gramatical,2024.2.2,Win32,60.24096386,,,,,,,,,,,,,,,,,,,,,,271.7562,272.8555,a,1,[],[],[],[],[],[],[],0.4285,1,272.8556,273.3556,,,,,,700,MAS,CON,150,cerdo,,l,0.4285,,,,273.3557,273.3557,0.192592593,-0.086111111,0,0,0,,0,54,54,249,1,,,,,
,,,,,,,a6ee218d9bfc9be18838f25b,66a626ef09d4e21e1a8894ec,6734d67ffcbd7fadba31d93c,2024-11-13_17h42.31.551,Tarea de género gramatical,2024.2.2,Win32,60.24096386,,,,,,,,,,,,,,,,,,,,,,273.3563,274.8723,a,1,[],[],[],[],[],[],[],0.844,1,274.8724,275.3723,,,,,,683,MAS,DIS,150,golpe,la,l,0.844,,,,275.3723,275.3724,0.192592593,-0.086111111,0,0,0,,0,55,55,232,1,,,,,
,,,,,,,a6ee218d9bfc9be18838f25b,66a626ef09d4e21e1a8894ec,6734d67ffcbd7fadba31d93c,2024-11-13_17h42.31.551,Tarea de género gramatical,2024.2.2,Win32,60.24096386,,,,,,,,,,,,,,,,,,,,,,275.373,276.8224,a,1,[],[],[],[],[],[],[],0.7695,1,276.8224,277.3224,,,,,,768,MAS,AGR,150,pueblo,el,l,0.7695,,,,277.3231,277.3235,0.192592593,-0.086111111,0,0,0,,0,56,56,317,1,,,,,
,,,,,,,a6ee218d9bfc9be18838f25b,66a626ef09d4e21e1a8894ec,6734d67ffcbd7fadba31d93c,2024-11-13_17h42.31.551,Tarea de género gramatical,2024.2.2,Win32,60.24096386,,,,,,,,,,,,,,,,,,,,,,277.3238,278.4724,l,1,[],[],[],[],[],[],[],0.4766,1,278.4725,278.9725,,,,,,482,FEM,DIS,150,caja,el,a,0.4766,,,,278.9726,278.9726,0.192592593,-0.086111111,0,0,0,,0,57,57,31,1,,,,,
,,,,,,,a6ee218d9bfc9be18838f25b,66a626ef09d4e21e1a8894ec,6734d67ffcbd7fadba31d93c,2024-11-13_17h42.31.551,Tarea de género gramatical,2024.2.2,Win32,60.24096386,,,,,,,,,,,,,,,,,,,,,,278.9732,280.0226,a,1,[],[],[],[],[],[],[],0.3776,1,280.0227,280.5225,,,,,,810,MAS,AGR,150,puente,el,l,0.3776,,,,280.5226,280.5227,0.192592593,-0.086111111,0,0,0,,0,58,58,359,1,,,,,
,,,,,,,a6ee218d9bfc9be18838f25b,66a626ef09d4e21e1a8894ec,6734d67ffcbd7fadba31d93c,2024-11-13_17h42.31.551,Tarea de género gramatical,2024.2.2,Win32,60.24096386,,,,,,,,,,,,,,,,,,,,,,280.5233,281.7226,a,1,[],[],[],[],[],[],[],0.5169,1,281.7227,282.2227,,,,,,564,MAS,AGR,150,menú,el,l,0.5169,,,,282.2227,282.2227,0.192592593,-0.086111111,0,0,0,,0,59,59,113,1,,,,,
,,,,,,,a6ee218d9bfc9be18838f25b,66a626ef09d4e21e1a8894ec,6734d67ffcbd7fadba31d93c,2024-11-13_17h42.31.551,Tarea de género gramatical,2024.2.2,Win32,60.24096386,,,,,,,,,,,,,,,,,,,,,,282.2233,283.3728,a,1,[],[],[],[],[],[],[],0.4731,1,283.3729,283.8727,,,,,,893,MAS,DIS,150,templo,la,l,0.4731,,,,283.8734,283.8738,0.192592593,-0.086111111,0,0,0,,0,60,60,442,1,,,,,
,,,,,,,a6ee218d9bfc9be18838f25b,66a626ef09d4e21e1a8894ec,6734d67ffcbd7fadba31d93c,2024-11-13_17h42.31.551,Tarea de género gramatical,2024.2.2,Win32,60.24096386,,,,,,,,,,,,,,,,,,,,,,283.8742,284.9895,l,1,[],[],[],[],[],[],[],0.4472,1,284.9895,285.4895,,,,,,603,FEM,AGR,150,mujer,la,a,0.4472,,,,285.4895,285.4896,0.192592593,-0.086111111,0,0,0,,0,61,61,152,1,,,,,
,,,,,,,a6ee218d9bfc9be18838f25b,66a626ef09d4e21e1a8894ec,6734d67ffcbd7fadba31d93c,2024-11-13_17h42.31.551,Tarea de género gramatical,2024.2.2,Win32,60.24096386,,,,,,,,,,,,,,,,,,,,,,285.4901,286.5563,l,1,[],[],[],[],[],[],[],0.3835,1,286.5563,287.0562,,,,,,807,FEM,AGR,150,lengua,la,a,0.3835,,,,287.0562,287.0562,0.192592593,-0.086111111,0,0,0,,0,62,62,356,1,,,,,
,,,,,,,a6ee218d9bfc9be18838f25b,66a626ef09d4e21e1a8894ec,6734d67ffcbd7fadba31d93c,2024-11-13_17h42.31.551,Tarea de género gramatical,2024.2.2,Win32,60.24096386,,,,,,,,,,,,,,,,,,,,,,287.0569,288.173,a,1,[],[],[],[],[],[],[],0.4477,1,288.173,288.673,,,,,,785,MAS,DIS,150,montón,la,l,0.4477,,,,288.673,288.6731,0.192592593,-0.086111111,0,0,0,,0,63,63,334,1,,,,,
,,,,,,,a6ee218d9bfc9be18838f25b,66a626ef09d4e21e1a8894ec,6734d67ffcbd7fadba31d93c,2024-11-13_17h42.31.551,Tarea de género gramatical,2024.2.2,Win32,60.24096386,,,,,,,,,,,,,,,,,,,,,,288.6737,289.7897,l,1,[],[],[],[],[],[],[],0.4469,1,289.7898,290.2898,,,,,,607,FEM,CON,150,madre,,a,0.4469,,,,290.2898,290.2898,0.192592593,-0.086111111,0,0,0,,0,64,64,156,1,,,,,
,,,,,,,a6ee218d9bfc9be18838f25b,66a626ef09d4e21e1a8894ec,6734d67ffcbd7fadba31d93c,2024-11-13_17h42.31.551,Tarea de género gramatical,2024.2.2,Win32,60.24096386,,,,,,,,,,,,,,,,,,,,,,290.2905,291.3065,l,1,[],[],[],[],[],[],[],0.3404,1,291.3065,291.8065,,,,,,523,FEM,CON,150,roca,,a,0.3404,,,,291.8072,291.8075,0.192592593,-0.086111111,0,0,0,,0,65,65,72,1,,,,,
,,,,,,,a6ee218d9bfc9be18838f25b,66a626ef09d4e21e1a8894ec,6734d67ffcbd7fadba31d93c,2024-11-13_17h42.31.551,Tarea de género gramatical,2024.2.2,Win32,60.24096386,,,,,,,,,,,,,,,,,,,,,,291.8079,292.9066,l,1,[],[],[],[],[],[],[],0.4152,1,292.9066,293.4066,,,,,,567,FEM,AGR,150,raya,la,a,0.4152,,,,293.4066,293.4066,0.192592593,-0.086111111,0,0,0,,0,66,66,116,1,,,,,
,,,,,,,a6ee218d9bfc9be18838f25b,66a626ef09d4e21e1a8894ec,6734d67ffcbd7fadba31d93c,2024-11-13_17h42.31.551,Tarea de género gramatical,2024.2.2,Win32,60.24096386,,,,,,,,,,,,,,,,,,,,,,293.4072,294.5233,l,1,[],[],[],[],[],[],[],0.4316,1,294.5234,295.0233,,,,,,493,FEM,CON,150,nena,,a,0.4316,,,,295.0233,295.0233,0.192592593,-0.086111111,0,0,0,,0,67,67,42,1,,,,,
,,,,,,,a6ee218d9bfc9be18838f25b,66a626ef09d4e21e1a8894ec,6734d67ffcbd7fadba31d93c,2024-11-13_17h42.31.551,Tarea de género gramatical,2024.2.2,Win32,60.24096386,,,,,,,,,,,,,,,,,,,,,,295.0239,296.09,a,1,[],[],[],[],[],[],[],0.385,1,296.0901,296.5901,,,,,,796,MAS,CON,150,juicio,,l,0.385,,,,296.5901,296.5902,0.192592593,-0.086111111,0,0,0,,0,68,68,345,1,,,,,
,,,,,,,a6ee218d9bfc9be18838f25b,66a626ef09d4e21e1a8894ec,6734d67ffcbd7fadba31d93c,2024-11-13_17h42.31.551,Tarea de género gramatical,2024.2.2,Win32,60.24096386,,,,,,,,,,,,,,,,,,,,,,296.5909,297.8401,l,1,[],[],[],[],[],[],[],0.5699,1,297.8401,298.3402,,,,,,722,FEM,DIS,150,oreja,el,a,0.5699,,,,298.3409,298.3413,0.192592593,-0.086111111,0,0,0,,0,69,69,271,1,,,,,
,,,,,,,a6ee218d9bfc9be18838f25b,66a626ef09d4e21e1a8894ec,6734d67ffcbd7fadba31d93c,2024-11-13_17h42.31.551,Tarea de género gramatical,2024.2.2,Win32,60.24096386,,,,,,,,,,,,,,,,,,,,,,298.3416,299.4735,a,1,[],[],[],[],[],[],[],0.4578,1,299.4736,299.9735,,,,,,706,MAS,CON,150,techo,,l,0.4578,,,,299.9736,299.9736,0.192592593,-0.086111111,0,0,0,,0,70,70,255,1,,,,,
,,,,,,,a6ee218d9bfc9be18838f25b,66a626ef09d4e21e1a8894ec,6734d67ffcbd7fadba31d93c,2024-11-13_17h42.31.551,Tarea de género gramatical,2024.2.2,Win32,60.24096386,,,,,,,,,,,,,,,,,,,,,,299.9742,301.2737,l,0,[],[],[],[],[],[],[],0.6243,0,301.2742,301.7736,,,,,,479,MAS,DIS,150,frío,la,l,0.6243,,,,301.7738,301.7738,0.192592593,-0.086111111,0,0,0,,0,71,71,28,1,,,,,
,,,,,,,a6ee218d9bfc9be18838f25b,66a626ef09d4e21e1a8894ec,6734d67ffcbd7fadba31d93c,2024-11-13_17h42.31.551,Tarea de género gramatical,2024.2.2,Win32,60.24096386,,,,,,,,,,,,,,,,,,,,,,301.7744,303.1904,l,1,[],[],[],[],[],[],[],0.7382,1,303.1909,303.6903,,,,,,573,FEM,AGR,150,tela,la,a,0.7382,,,,303.6905,303.6905,0.192592593,-0.086111111,0,0,0,,0,72,72,122,1,,,,,
,,,,,,,a6ee218d9bfc9be18838f25b,66a626ef09d4e21e1a8894ec,6734d67ffcbd7fadba31d93c,2024-11-13_17h42.31.551,Tarea de género gramatical,2024.2.2,Win32,60.24096386,,,,,,,,,,,,,,,,,,,,,,303.6911,304.8071,a,1,[],[],[],[],[],[],[],0.4438,1,304.8072,305.3072,,,,,,834,MAS,AGR,150,pedazo,el,l,0.4438,,,,305.3072,305.3072,0.192592593,-0.086111111,0,0,0,,0,73,73,383,1,,,,,
,,,,,,,a6ee218d9bfc9be18838f25b,66a626ef09d4e21e1a8894ec,6734d67ffcbd7fadba31d93c,2024-11-13_17h42.31.551,Tarea de género gramatical,2024.2.2,Win32,60.24096386,,,,,,,,,,,,,,,,,,,,,,305.3078,306.4406,a,1,[],[],[],[],[],[],[],0.4607,1,306.4406,306.9406,,,,,,558,MAS,AGR,150,hilo,el,l,0.4607,,,,306.9412,306.9416,0.192592593,-0.086111111,0,0,0,,0,74,74,107,1,,,,,
,,,,,,,a6ee218d9bfc9be18838f25b,66a626ef09d4e21e1a8894ec,6734d67ffcbd7fadba31d93c,2024-11-13_17h42.31.551,Tarea de género gramatical,2024.2.2,Win32,60.24096386,,,,,,,,,,,,,,,,,,,,,,306.942,308.0239,l,1,[],[],[],[],[],[],[],0.4094,1,308.0241,308.5239,,,,,,513,FEM,AGR,150,fila,la,a,0.4094,,,,308.524,308.5241,0.192592593,-0.086111111,0,0,0,,0,75,75,62,1,,,,,
,,,,,,,a6ee218d9bfc9be18838f25b,66a626ef09d4e21e1a8894ec,6734d67ffcbd7fadba31d93c,2024-11-13_17h42.31.551,Tarea de género gramatical,2024.2.2,Win32,60.24096386,,,,,,,,,,,,,,,,,,,,,,308.5247,309.7241,a,1,[],[],[],[],[],[],[],0.5149,1,309.7241,310.224,,,,,,480,MAS,AGR,150,cine,el,l,0.5149,,,,310.224,310.2241,0.192592593,-0.086111111,0,0,0,,0,76,76,29,1,,,,,
,,,,,,,a6ee218d9bfc9be18838f25b,66a626ef09d4e21e1a8894ec,6734d67ffcbd7fadba31d93c,2024-11-13_17h42.31.551,Tarea de género gramatical,2024.2.2,Win32,60.24096386,,,,,,,,,,,,,,,,,,,,,,310.2248,311.3741,a,1,[],[],[],[],[],[],[],0.47,1,311.3741,311.8741,,,,,,696,MAS,AGR,150,humor,el,l,0.47,,,,311.8742,311.8743,0.192592593,-0.086111111,0,0,0,,0,77,77,245,1,,,,,
,,,,,,,a6ee218d9bfc9be18838f25b,66a626ef09d4e21e1a8894ec,6734d67ffcbd7fadba31d93c,2024-11-13_17h42.31.551,Tarea de género gramatical,2024.2.2,Win32,60.24096386,,,,,,,,,,,,,,,,,,,,,,311.8748,312.9242,a,1,[],[],[],[],[],[],[],0.3739,1,312.9242,313.4242,,,,,,689,MAS,DIS,150,reloj,la,l,0.3739,,,,313.425,313.4254,0.192592593,-0.086111111,0,0,0,,0,78,78,238,1,,,,,
,,,,,,,a6ee218d9bfc9be18838f25b,66a626ef09d4e21e1a8894ec,6734d67ffcbd7fadba31d93c,2024-11-13_17h42.31.551,Tarea de género gramatical,2024.2.2,Win32,60.24096386,,,,,,,,,,,,,,,,,,,,,,313.4257,314.6409,a,1,[],[],[],[],[],[],[],0.5338,1,314.641,315.141,,,,,,857,MAS,DIS,150,jurado,la,l,0.5338,,,,315.1411,315.1411,0.192592593,-0.086111111,0,0,0,,0,79,79,406,1,,,,,
,,,,,,,a6ee218d9bfc9be18838f25b,66a626ef09d4e21e1a8894ec,6734d67ffcbd7fadba31d93c,2024-11-13_17h42.31.551,Tarea de género gramatical,2024.2.2,Win32,60.24096386,,,,,,,,,,,,,,,,,,,,,,315.1416,316.2244,l,1,[],[],[],[],[],[],[],0.4089,1,316.2244,316.7244,,,,,,470,FEM,DIS,150,ropa,el,a,0.4089,,,,316.7244,316.7245,0.192592593,-0.086111111,0,0,0,,0,80,80,19,1,,,,,
,,,,,,,a6ee218d9bfc9be18838f25b,66a626ef09d4e21e1a8894ec,6734d67ffcbd7fadba31d93c,2024-11-13_17h42.31.551,Tarea de género gramatical,2024.2.2,Win32,60.24096386,,,,,,,,,,,,,,,,,,,,,,316.725,317.9577,l,1,[],[],[],[],[],[],[],0.5615,1,317.9578,318.4578,,,,,,655,FEM,CON,150,reina,,a,0.5615,,,,318.4578,318.4579,0.192592593,-0.086111111,0,0,0,,0,81,81,204,1,,,,,
,,,,,,,a6ee218d9bfc9be18838f25b,66a626ef09d4e21e1a8894ec,6734d67ffcbd7fadba31d93c,2024-11-13_17h42.31.551,Tarea de género gramatical,2024.2.2,Win32,60.24096386,,,,,,,,,,,,,,,,,,,,,,318.4585,319.6412,a,1,[],[],[],[],[],[],[],0.5101,1,319.6412,320.1412,,,,,,875,MAS,DIS,150,chiste,la,l,0.5101,,,,320.1412,320.1413,0.192592593,-0.086111111,0,0,0,,0,82,82,424,1,,,,,
,,,,,,,a6ee218d9bfc9be18838f25b,66a626ef09d4e21e1a8894ec,6734d67ffcbd7fadba31d93c,2024-11-13_17h42.31.551,Tarea de género gramatical,2024.2.2,Win32,60.24096386,,,,,,,,,,,,,,,,,,,,,,320.1419,321.1746,a,1,[],[],[],[],[],[],[],0.3627,1,321.1746,321.6747,,,,,,532,MAS,CON,150,tubo,,l,0.3627,,,,321.6755,321.6759,0.192592593,-0.086111111,0,0,0,,0,83,83,81,1,,,,,
,,,,,,,a6ee218d9bfc9be18838f25b,66a626ef09d4e21e1a8894ec,6734d67ffcbd7fadba31d93c,2024-11-13_17h42.31.551,Tarea de género gramatical,2024.2.2,Win32,60.24096386,,,,,,,,,,,,,,,,,,,,,,321.6763,322.8747,l,1,[],[],[],[],[],[],[],0.5153,1,322.8748,323.3748,,,,,,638,FEM,DIS,150,bomba,el,a,0.5153,,,,323.3748,323.3748,0.192592593,-0.086111111,0,0,0,,0,84,84,187,1,,,,,
,,,,,,,a6ee218d9bfc9be18838f25b,66a626ef09d4e21e1a8894ec,6734d67ffcbd7fadba31d93c,2024-11-13_17h42.31.551,Tarea de género gramatical,2024.2.2,Win32,60.24096386,,,,,,,,,,,,,,,,,,,,,,323.3754,324.6415,a,1,[],[],[],[],[],[],[],0.5913,1,324.6415,325.1415,,,,,,521,MAS,DIS,150,pozo,la,l,0.5913,,,,325.1415,325.1416,0.192592593,-0.086111111,0,0,0,,0,85,85,70,1,,,,,
,,,,,,,a6ee218d9bfc9be18838f25b,66a626ef09d4e21e1a8894ec,6734d67ffcbd7fadba31d93c,2024-11-13_17h42.31.551,Tarea de género gramatical,2024.2.2,Win32,60.24096386,,,,,,,,,,,,,,,,,,,,,,325.1421,326.1582,a,1,[],[],[],[],[],[],[],0.3444,1,326.1582,326.6582,,,,,,862,MAS,CON,150,espejo,,l,0.3444,,,,326.6582,326.6582,0.192592593,-0.086111111,0,0,0,,0,86,86,411,1,,,,,
,,,,,,,a6ee218d9bfc9be18838f25b,66a626ef09d4e21e1a8894ec,6734d67ffcbd7fadba31d93c,2024-11-13_17h42.31.551,Tarea de género gramatical,2024.2.2,Win32,60.24096386,,,,,,,,,,,,,,,,,,,,,,326.6589,327.725,l,1,[],[],[],[],[],[],[],0.3956,1,327.725,328.2249,,,,,,542,FEM,DIS,150,masa,el,a,0.3956,,,,328.2257,328.2261,0.192592593,-0.086111111,0,0,0,,0,87,87,91,1,,,,,
,,,,,,,a6ee218d9bfc9be18838f25b,66a626ef09d4e21e1a8894ec,6734d67ffcbd7fadba31d93c,2024-11-13_17h42.31.551,Tarea de género gramatical,2024.2.2,Win32,60.24096386,,,,,,,,,,,,,,,,,,,,,,328.2264,329.5585,l,1,[],[],[],[],[],[],[],0.6529,1,329.5586,330.0584,,,,,,836,FEM,DIS,150,sombra,el,a,0.6529,,,,330.0585,330.0585,0.192592593,-0.086111111,0,0,0,,0,88,88,385,1,,,,,
,,,,,,,a6ee218d9bfc9be18838f25b,66a626ef09d4e21e1a8894ec,6734d67ffcbd7fadba31d93c,2024-11-13_17h42.31.551,Tarea de género gramatical,2024.2.2,Win32,60.24096386,,,,,,,,,,,,,,,,,,,,,,330.0591,331.1418,l,1,[],[],[],[],[],[],[],0.4118,1,331.1418,331.6418,,,,,,897,FEM,AGR,150,lógica,la,a,0.4118,,,,331.6418,331.6419,0.192592593,-0.086111111,0,0,0,,0,89,89,446,1,,,,,
,,,,,,,a6ee218d9bfc9be18838f25b,66a626ef09d4e21e1a8894ec,6734d67ffcbd7fadba31d93c,2024-11-13_17h42.31.551,Tarea de género gramatical,2024.2.2,Win32,60.24096386,,,,,,,,,,,,,,,,,,,,,,331.6425,332.7085,a,1,[],[],[],[],[],[],[],0.3882,1,332.7086,333.2085,,,,,,617,MAS,DIS,150,juego,la,l,0.3882,,,,333.2086,333.2086,0.192592593,-0.086111111,0,0,0,,0,90,90,166,1,,,,,
,,,,,,,a6ee218d9bfc9be18838f25b,66a626ef09d4e21e1a8894ec,6734d67ffcbd7fadba31d93c,2024-11-13_17h42.31.551,Tarea de género gramatical,2024.2.2,Win32,60.24096386,,,,,,,,,,,,,,,,,,,,,,333.2092,334.3086,a,1,[],[],[],[],[],[],[],0.4305,1,334.3087,334.8086,,,,,,766,MAS,CON,150,cuerpo,,l,0.4305,,,,334.8087,334.8087,0.192592593,-0.086111111,0,0,0,,0,91,91,315,1,,,,,
,,,,,,,a6ee218d9bfc9be18838f25b,66a626ef09d4e21e1a8894ec,6734d67ffcbd7fadba31d93c,2024-11-13_17h42.31.551,Tarea de género gramatical,2024.2.2,Win32,60.24096386,,,,,,,,,,,,,,,,,,,,,,334.8094,335.992,l,1,[],[],[],[],[],[],[],0.5115,1,335.992,336.492,,,,,,853,FEM,CON,150,paliza,,a,0.5115,,,,336.4927,336.4931,0.192592593,-0.086111111,0,0,0,,0,92,92,402,1,,,,,
,,,,,,,a6ee218d9bfc9be18838f25b,66a626ef09d4e21e1a8894ec,6734d67ffcbd7fadba31d93c,2024-11-13_17h42.31.551,Tarea de género gramatical,2024.2.2,Win32,60.24096386,,,,,,,,,,,,,,,,,,,,,,336.4934,337.6588,l,0,[],[],[],[],[],[],[],0.4842,0,337.6593,338.1588,,,,,,792,MAS,AGR,150,abuelo,el,l,0.4842,,,,338.1589,338.1589,0.192592593,-0.086111111,0,0,0,,0,93,93,341,1,,,,,
,,,,,,,a6ee218d9bfc9be18838f25b,66a626ef09d4e21e1a8894ec,6734d67ffcbd7fadba31d93c,2024-11-13_17h42.31.551,Tarea de género gramatical,2024.2.2,Win32,60.24096386,,,,,,,,,,,,,,,,,,,,,,338.1597,339.3922,a,1,[],[],[],[],[],[],[],0.5513,1,339.3927,339.8922,,,,,,839,MAS,DIS,150,tamaño,la,l,0.5513,,,,339.8923,339.8923,0.192592593,-0.086111111,0,0,0,,0,94,94,388,1,,,,,
,,,,,,,a6ee218d9bfc9be18838f25b,66a626ef09d4e21e1a8894ec,6734d67ffcbd7fadba31d93c,2024-11-13_17h42.31.551,Tarea de género gramatical,2024.2.2,Win32,60.24096386,,,,,,,,,,,,,,,,,,,,,,339.8929,340.9089,a,1,[],[],[],[],[],[],[],0.3469,1,340.9089,341.409,,,,,,624,MAS,AGR,150,perro,el,l,0.3469,,,,341.409,341.409,0.192592593,-0.086111111,0,0,0,,0,95,95,173,1,,,,,
,,,,,,,a6ee218d9bfc9be18838f25b,66a626ef09d4e21e1a8894ec,6734d67ffcbd7fadba31d93c,2024-11-13_17h42.31.551,Tarea de género gramatical,2024.2.2,Win32,60.24096386,,,,,,,,,,,,,,,,,,,,,,341.4101,342.4924,a,1,[],[],[],[],[],[],[],0.4051,1,342.4924,342.9923,,,,,,690,MAS,AGR,150,ruido,el,l,0.4051,,,,342.9931,342.9934,0.192592593,-0.086111111,0,0,0,,0,96,96,239,1,,,,,
,,,,,,,a6ee218d9bfc9be18838f25b,66a626ef09d4e21e1a8894ec,6734d67ffcbd7fadba31d93c,2024-11-13_17h42.31.551,Tarea de género gramatical,2024.2.2,Win32,60.24096386,,,,,,,,,,,,,,,,,,,,,,342.9938,344.0424,l,1,[],[],[],[],[],[],[],0.3736,1,344.0425,344.5424,,,,,,668,FEM,DIS,150,nieve,el,a,0.3736,,,,344.5424,344.5425,0.192592593,-0.086111111,0,0,0,,0,97,97,217,1,,,,,
,,,,,,,a6ee218d9bfc9be18838f25b,66a626ef09d4e21e1a8894ec,6734d67ffcbd7fadba31d93c,2024-11-13_17h42.31.551,Tarea de género gramatical,2024.2.2,Win32,60.24096386,,,,,,,,,,,,,,,,,,,,,,344.543,345.5759,l,1,[],[],[],[],[],[],[],0.3614,1,345.5759,346.0759,,,,,,661,FEM,CON,150,salud,,a,0.3614,,,,346.0759,346.0759,0.192592593,-0.086111111,0,0,0,,0,98,98,210,1,,,,,
,,,,,,,a6ee218d9bfc9be18838f25b,66a626ef09d4e21e1a8894ec,6734d67ffcbd7fadba31d93c,2024-11-13_17h42.31.551,Tarea de género gramatical,2024.2.2,Win32,60.24096386,,,,,,,,,,,,,,,,,,,,,,346.0766,347.526,a,1,[],[],[],[],[],[],[],0.7722,1,347.526,348.026,,,,,,660,MAS,AGR,150,baile,el,l,0.7722,,,,348.026,348.026,0.192592593,-0.086111111,0,0,0,,0,99,99,209,1,,,,,
,,,,,,,a6ee218d9bfc9be18838f25b,66a626ef09d4e21e1a8894ec,6734d67ffcbd7fadba31d93c,2024-11-13_17h42.31.551,Tarea de género gramatical,2024.2.2,Win32,60.24096386,,,,,,,,,,,,,,,,,,,,,,348.0267,349.2927,a,1,[],[],[],[],[],[],[],0.5817,1,349.2927,349.7927,,,,,,478,MAS,CON,150,club,,l,0.5817,,,,349.7927,349.7928,0.192592593,-0.086111111,0,0,0,,0,100,100,27,1,,,,,
,,,,,,,a6ee218d9bfc9be18838f25b,66a626ef09d4e21e1a8894ec,6734d67ffcbd7fadba31d93c,2024-11-13_17h42.31.551,Tarea de género gramatical,2024.2.2,Win32,60.24096386,,,,,,,,,,,,,,,,,,,,,,349.7935,351.1928,a,1,[],[],[],[],[],[],[],0.7175,1,351.1928,351.6929,,,,,,731,MAS,DIS,150,actor,la,l,0.7175,,,,351.6935,351.6939,0.192592593,-0.086111111,0,0,0,,0,101,101,280,1,,,,,
,,,,,,,a6ee218d9bfc9be18838f25b,66a626ef09d4e21e1a8894ec,6734d67ffcbd7fadba31d93c,2024-11-13_17h42.31.551,Tarea de género gramatical,2024.2.2,Win32,60.24096386,,,,,,,,,,,,,,,,,,,,,,351.6943,352.8095,a,1,[],[],[],[],[],[],[],0.4412,1,352.8096,353.3095,,,,,,809,MAS,DIS,150,bosque,la,l,0.4412,,,,353.3096,353.3096,0.192592593,-0.086111111,0,0,0,,0,102,102,358,1,,,,,
,,,,,,,a6ee218d9bfc9be18838f25b,66a626ef09d4e21e1a8894ec,6734d67ffcbd7fadba31d93c,2024-11-13_17h42.31.551,Tarea de género gramatical,2024.2.2,Win32,60.24096386,,,,,,,,,,,,,,,,,,,,,,353.3102,354.3596,a,1,[],[],[],[],[],[],[],0.3692,1,354.3597,354.8596,,,,,,606,MAS,AGR,150,amigo,el,l,0.3692,,,,354.8596,354.8597,0.192592593,-0.086111111,0,0,0,,0,103,103,155,1,,,,,
,,,,,,,a6ee218d9bfc9be18838f25b,66a626ef09d4e21e1a8894ec,6734d67ffcbd7fadba31d93c,2024-11-13_17h42.31.551,Tarea de género gramatical,2024.2.2,Win32,60.24096386,,,,,,,,,,,,,,,,,,,,,,354.8604,355.943,l,1,[],[],[],[],[],[],[],0.4115,1,355.9431,356.4431,,,,,,475,FEM,CON,150,nave,,a,0.4115,,,,356.4431,356.4431,0.192592593,-0.086111111,0,0,0,,0,104,104,24,1,,,,,
,,,,,,,a6ee218d9bfc9be18838f25b,66a626ef09d4e21e1a8894ec,6734d67ffcbd7fadba31d93c,2024-11-13_17h42.31.551,Tarea de género gramatical,2024.2.2,Win32,60.24096386,,,,,,,,,,,,,,,,,,,,,,356.4437,357.8765,a,1,[],[],[],[],[],[],[],0.7517,1,357.8766,358.3765,,,,,,688,MAS,CON,150,norte,,l,0.7517,,,,358.3771,358.3776,0.192592593,-0.086111111,0,0,0,,0,105,105,237,1,,,,,
,,,,,,,a6ee218d9bfc9be18838f25b,66a626ef09d4e21e1a8894ec,6734d67ffcbd7fadba31d93c,2024-11-13_17h42.31.551,Tarea de género gramatical,2024.2.2,Win32,60.24096386,,,,,,,,,,,,,,,,,,,,,,358.378,359.5765,l,0,[],[],[],[],[],[],[],0.5195,0,359.577,360.0765,,,,,,570,MAS,AGR,150,puño,el,l,0.5195,,,,360.0765,360.0766,0.192592593,-0.086111111,0,0,0,,0,106,106,119,1,,,,,
,,,,,,,a6ee218d9bfc9be18838f25b,66a626ef09d4e21e1a8894ec,6734d67ffcbd7fadba31d93c,2024-11-13_17h42.31.551,Tarea de género gramatical,2024.2.2,Win32,60.24096386,,,,,,,,,,,,,,,,,,,,,,360.0772,361.1933,a,1,[],[],[],[],[],[],[],0.4334,1,361.1937,361.6933,,,,,,461,MAS,DIS,150,país,la,l,0.4334,,,,361.6933,361.6933,0.192592593,-0.086111111,0,0,0,,0,107,107,10,1,,,,,
,,,,,,,a6ee218d9bfc9be18838f25b,66a626ef09d4e21e1a8894ec,6734d67ffcbd7fadba31d93c,2024-11-13_17h42.31.551,Tarea de género gramatical,2024.2.2,Win32,60.24096386,,,,,,,,,,,,,,,,,,,,,,361.694,362.7934,l,1,[],[],[],[],[],[],[],0.4187,1,362.7934,363.2933,,,,,,589,FEM,CON,150,pipa,,a,0.4187,,,,363.2934,363.2934,0.192592593,-0.086111111,0,0,0,,0,108,108,138,1,,,,,
,,,,,,,a6ee218d9bfc9be18838f25b,66a626ef09d4e21e1a8894ec,6734d67ffcbd7fadba31d93c,2024-11-13_17h42.31.551,Tarea de género gramatical,2024.2.2,Win32,60.24096386,,,,,,,,,,,,,,,,,,,,,,363.294,364.3267,a,1,[],[],[],[],[],[],[],0.3607,1,364.3268,364.8268,,,,,,864,MAS,AGR,150,sótano,el,l,0.3607,,,,364.8268,364.827,0.192592593,-0.086111111,0,0,0,,0,109,109,413,1,,,,,
,,,,,,,a6ee218d9bfc9be18838f25b,66a626ef09d4e21e1a8894ec,6734d67ffcbd7fadba31d93c,2024-11-13_17h42.31.551,Tarea de género gramatical,2024.2.2,Win32,60.24096386,,,,,,,,,,,,,,,,,,,,,,364.8275,365.8602,a,1,[],[],[],[],[],[],[],0.3552,1,365.8603,366.3602,,,,,,742,MAS,CON,150,piano,,l,0.3552,,,,366.3609,366.3613,0.192592593,-0.086111111,0,0,0,,0,110,110,291,1,,,,,
,,,,,,,a6ee218d9bfc9be18838f25b,66a626ef09d4e21e1a8894ec,6734d67ffcbd7fadba31d93c,2024-11-13_17h42.31.551,Tarea de género gramatical,2024.2.2,Win32,60.24096386,,,,,,,,,,,,,,,,,,,,,,366.3617,367.6603,a,1,[],[],[],[],[],[],[],0.6152,1,367.6603,368.1602,,,,,,840,MAS,AGR,150,rostro,el,l,0.6152,,,,368.1604,368.1604,0.192592593,-0.086111111,0,0,0,,0,111,111,389,1,,,,,
,,,,,,,a6ee218d9bfc9be18838f25b,66a626ef09d4e21e1a8894ec,6734d67ffcbd7fadba31d93c,2024-11-13_17h42.31.551,Tarea de género gramatical,2024.2.2,Win32,60.24096386,,,,,,,,,,,,,,,,,,,,,,368.161,369.3436,a,1,[],[],[],[],[],[],[],0.5098,1,369.3438,369.8438,,,,,,497,MAS,DIS,150,olor,la,l,0.5098,,,,369.8438,369.8439,0.192592593,-0.086111111,0,0,0,,0,112,112,46,1,,,,,
,,,,,,,a6ee218d9bfc9be18838f25b,66a626ef09d4e21e1a8894ec,6734d67ffcbd7fadba31d93c,2024-11-13_17h42.31.551,Tarea de género gramatical,2024.2.2,Win32,60.24096386,,,,,,,,,,,,,,,,,,,,,,369.8445,370.9271,a,1,[],[],[],[],[],[],[],0.4113,1,370.9272,371.4271,,,,,,900,MAS,AGR,150,conejo,el,l,0.4113,,,,371.4272,371.4272,0.192592593,-0.086111111,0,0,0,,0,113,113,449,1,,,,,
,,,,,,,a6ee218d9bfc9be18838f25b,66a626ef09d4e21e1a8894ec,6734d67ffcbd7fadba31d93c,2024-11-13_17h42.31.551,Tarea de género gramatical,2024.2.2,Win32,60.24096386,,,,,,,,,,,,,,,,,,,,,,371.4278,372.5772,l,1,[],[],[],[],[],[],[],0.4687,1,372.5773,373.0772,,,,,,795,FEM,AGR,150,pierna,la,a,0.4687,,,,373.0779,373.0783,0.192592593,-0.086111111,0,0,0,,0,114,114,344,1,,,,,
,,,,,,,a6ee218d9bfc9be18838f25b,66a626ef09d4e21e1a8894ec,6734d67ffcbd7fadba31d93c,2024-11-13_17h42.31.551,Tarea de género gramatical,2024.2.2,Win32,60.24096386,,,,,,,,,,,,,,,,,,,,,,373.0787,374.1606,l,1,[],[],[],[],[],[],[],0.4008,1,374.1606,374.6607,,,,,,746,FEM,DIS,150,feria,el,a,0.4008,,,,374.6607,374.6607,0.192592593,-0.086111111,0,0,0,,0,115,115,295,1,,,,,
,,,,,,,a6ee218d9bfc9be18838f25b,66a626ef09d4e21e1a8894ec,6734d67ffcbd7fadba31d93c,2024-11-13_17h42.31.551,Tarea de género gramatical,2024.2.2,Win32,60.24096386,,,,,,,,,,,,,,,,,,,,,,374.6613,375.7774,a,1,[],[],[],[],[],[],[],0.4335,1,375.7774,376.2773,,,,,,484,MAS,CON,150,gato,,l,0.4335,,,,376.2773,376.2774,0.192592593,-0.086111111,0,0,0,,0,116,116,33,1,,,,,
,,,,,,,a6ee218d9bfc9be18838f25b,66a626ef09d4e21e1a8894ec,6734d67ffcbd7fadba31d93c,2024-11-13_17h42.31.551,Tarea de género gramatical,2024.2.2,Win32,60.24096386,,,,,,,,,,,,,,,,,,,,,,376.278,377.6608,l,1,[],[],[],[],[],[],[],0.7146,1,377.6609,378.1608,,,,,,697,FEM,CON,150,frase,,a,0.7146,,,,378.1609,378.1609,0.192592593,-0.086111111,0,0,0,,0,117,117,246,1,,,,,
,,,,,,,a6ee218d9bfc9be18838f25b,66a626ef09d4e21e1a8894ec,6734d67ffcbd7fadba31d93c,2024-11-13_17h42.31.551,Tarea de género gramatical,2024.2.2,Win32,60.24096386,,,,,,,,,,,,,,,,,,,,,,378.1615,379.2275,l,1,[],[],[],[],[],[],[],0.3891,1,379.2276,379.7275,,,,,,559,FEM,CON,150,gota,,a,0.3891,,,,379.7275,379.7276,0.192592593,-0.086111111,0,0,0,,0,118,118,108,1,,,,,
,,,,,,,a6ee218d9bfc9be18838f25b,66a626ef09d4e21e1a8894ec,6734d67ffcbd7fadba31d93c,2024-11-13_17h42.31.551,Tarea de género gramatical,2024.2.2,Win32,60.24096386,,,,,,,,,,,,,,,,,,,,,,379.7283,380.8776,l,0,[],[],[],[],[],[],[],0.4802,0,380.8781,381.3776,,,,,,466,MAS,CON,150,baño,,l,0.4802,,,,381.3782,381.3786,0.192592593,-0.086111111,0,0,0,,0,119,119,15,1,,,,,
,,,,,,,a6ee218d9bfc9be18838f25b,66a626ef09d4e21e1a8894ec,6734d67ffcbd7fadba31d93c,2024-11-13_17h42.31.551,Tarea de género gramatical,2024.2.2,Win32,60.24096386,,,,,,,,,,,,,,,,,,,,,,381.3789,382.511,l,1,[],[],[],[],[],[],[],0.4524,1,382.5114,383.011,,,,,,805,FEM,CON,150,mirada,,a,0.4524,,,,383.011,383.0111,0.192592593,-0.086111111,0,0,0,,0,120,120,354,1,,,,,
,,,,,,,a6ee218d9bfc9be18838f25b,66a626ef09d4e21e1a8894ec,6734d67ffcbd7fadba31d93c,2024-11-13_17h42.31.551,Tarea de género gramatical,2024.2.2,Win32,60.24096386,,,,,,,,,,,,,,,,,,,,,,383.0117,384.1277,a,0,[],[],[],[],[],[],[],0.435,0,384.1283,384.6277,,,,,,709,FEM,CON,150,prima,,a,0.435,,,,384.6278,384.6279,0.192592593,-0.086111111,0,0,0,,0,121,121,258,1,,,,,
,,,,,,,a6ee218d9bfc9be18838f25b,66a626ef09d4e21e1a8894ec,6734d67ffcbd7fadba31d93c,2024-11-13_17h42.31.551,Tarea de género gramatical,2024.2.2,Win32,60.24096386,,,,,,,,,,,,,,,,,,,,,,384.6285,386.0279,a,1,[],[],[],[],[],[],[],0.7243,1,386.0284,386.5279,,,,,,635,MAS,DIS,150,sueño,la,l,0.7243,,,,386.5279,386.5279,0.192592593,-0.086111111,0,0,0,,0,122,122,184,1,,,,,
,,,,,,,a6ee218d9bfc9be18838f25b,66a626ef09d4e21e1a8894ec,6734d67ffcbd7fadba31d93c,2024-11-13_17h42.31.551,Tarea de género gramatical,2024.2.2,Win32,60.24096386,,,,,,,,,,,,,,,,,,,,,,386.5285,387.6446,a,0,[],[],[],[],[],[],[],0.4401,0,387.645,388.1446,,,,,,751,FEM,CON,150,verdad,,a,0.4401,,,,388.1453,388.1457,0.192592593,-0.086111111,0,0,0,,0,123,123,300,1,,,,,
,,,,,,,a6ee218d9bfc9be18838f25b,66a626ef09d4e21e1a8894ec,6734d67ffcbd7fadba31d93c,2024-11-13_17h42.31.551,Tarea de género gramatical,2024.2.2,Win32,60.24096386,,,,,,,,,,,,,,,,,,,,,,388.146,390.0614,a,0,[],[],[],[],[],[],[],1.2375,0,390.0614,390.5615,,,,,,830,FEM,DIS,150,madera,el,a,1.2375,,,,390.5615,390.5615,0.192592593,-0.086111111,0,0,0,,0,124,124,379,1,,,,,
,,,,,,,a6ee218d9bfc9be18838f25b,66a626ef09d4e21e1a8894ec,6734d67ffcbd7fadba31d93c,2024-11-13_17h42.31.551,Tarea de género gramatical,2024.2.2,Win32,60.24096386,,,,,,,,,,,,,,,,,,,,,,390.5621,391.9949,l,1,[],[],[],[],[],[],[],0.749,1,391.9952,392.4948,,,,,,643,FEM,CON,150,bolsa,,a,0.749,,,,392.4948,392.495,0.192592593,-0.086111111,0,0,0,,0,125,125,192,1,,,,,
,,,,,,,a6ee218d9bfc9be18838f25b,66a626ef09d4e21e1a8894ec,6734d67ffcbd7fadba31d93c,2024-11-13_17h42.31.551,Tarea de género gramatical,2024.2.2,Win32,60.24096386,,,,,,,,,,,,,,,,,,,,,,392.4955,393.7949,l,1,[],[],[],[],[],[],[],0.6232,1,393.7949,394.2949,,,,,,717,FEM,AGR,150,barba,la,a,0.6232,,,,394.295,394.295,0.192592593,-0.086111111,0,0,0,,0,126,126,266,1,,,,,
,,,,,,,a6ee218d9bfc9be18838f25b,66a626ef09d4e21e1a8894ec,6734d67ffcbd7fadba31d93c,2024-11-13_17h42.31.551,Tarea de género gramatical,2024.2.2,Win32,60.24096386,,,,,,,,,,,,,,,,,,,,,,394.2956,395.6283,a,0,[],[],[],[],[],[],[],0.6501,0,395.6289,396.1284,,,,,,518,FEM,DIS,150,pata,el,a,0.6501,,,,396.1284,396.1284,0.192592593,-0.086111111,0,0,0,,0,127,127,67,1,,,,,
,,,,,,,a6ee218d9bfc9be18838f25b,66a626ef09d4e21e1a8894ec,6734d67ffcbd7fadba31d93c,2024-11-13_17h42.31.551,Tarea de género gramatical,2024.2.2,Win32,60.24096386,,,,,,,,,,,,,,,,,,,,,,396.1291,397.4287,a,1,[],[],[],[],[],[],[],0.6162,1,397.4294,397.9284,,,,,,568,MAS,CON,150,baúl,,l,0.6162,,,,397.9291,397.9295,0.192592593,-0.086111111,0,0,0,,0,128,128,117,1,,,,,
,,,,,,,a6ee218d9bfc9be18838f25b,66a626ef09d4e21e1a8894ec,6734d67ffcbd7fadba31d93c,2024-11-13_17h42.31.551,Tarea de género gramatical,2024.2.2,Win32,60.24096386,,,,,,,,,,,,,,,,,,,,,,397.9298,399.2118,a,1,[],[],[],[],[],[],[],0.6053,1,399.2119,399.7118,,,,,,863,MAS,DIS,150,diario,la,l,0.6053,,,,399.7119,399.7119,0.192592593,-0.086111111,0,0,0,,0,129,129,412,1,,,,,
,,,,,,,a6ee218d9bfc9be18838f25b,66a626ef09d4e21e1a8894ec,6734d67ffcbd7fadba31d93c,2024-11-13_17h42.31.551,Tarea de género gramatical,2024.2.2,Win32,60.24096386,,,,,,,,,,,,,,,,,,,,,,399.7126,400.8285,l,1,[],[],[],[],[],[],[],0.4346,1,400.8287,401.3286,,,,,,865,FEM,CON,150,cabina,,a,0.4346,,,,401.3287,401.3287,0.192592593,-0.086111111,0,0,0,,0,130,130,414,1,,,,,
,,,,,,,a6ee218d9bfc9be18838f25b,66a626ef09d4e21e1a8894ec,6734d67ffcbd7fadba31d93c,2024-11-13_17h42.31.551,Tarea de género gramatical,2024.2.2,Win32,60.24096386,,,,,,,,,,,,,,,,,,,,,,401.3293,402.5453,l,1,[],[],[],[],[],[],[],0.5354,1,402.5454,403.0454,,,,,,759,FEM,AGR,150,esposa,la,a,0.5354,,,,403.0454,403.0454,0.192592593,-0.086111111,0,0,0,,0,131,131,308,1,,,,,
,,,,,,,a6ee218d9bfc9be18838f25b,66a626ef09d4e21e1a8894ec,6734d67ffcbd7fadba31d93c,2024-11-13_17h42.31.551,Tarea de género gramatical,2024.2.2,Win32,60.24096386,,,,,,,,,,,,,,,,,,,,,,403.0461,404.2621,l,1,[],[],[],[],[],[],[],0.5374,1,404.2622,404.7621,,,,,,824,FEM,DIS,150,herida,el,a,0.5374,,,,404.7628,404.7633,0.192592593,-0.086111111,0,0,0,,0,132,132,373,1,,,,,
,,,,,,,a6ee218d9bfc9be18838f25b,66a626ef09d4e21e1a8894ec,6734d67ffcbd7fadba31d93c,2024-11-13_17h42.31.551,Tarea de género gramatical,2024.2.2,Win32,60.24096386,,,,,,,,,,,,,,,,,,,,,,404.7636,405.8789,l,1,[],[],[],[],[],[],[],0.4457,1,405.8789,406.379,,,,,,590,FEM,DIS,150,mula,el,a,0.4457,,,,406.379,406.379,0.192592593,-0.086111111,0,0,0,,0,133,133,139,1,,,,,
,,,,,,,a6ee218d9bfc9be18838f25b,66a626ef09d4e21e1a8894ec,6734d67ffcbd7fadba31d93c,2024-11-13_17h42.31.551,Tarea de género gramatical,2024.2.2,Win32,60.24096386,,,,,,,,,,,,,,,,,,,,,,406.3797,407.6456,a,1,[],[],[],[],[],[],[],0.595,1,407.6456,408.1456,,,,,,485,MAS,DIS,150,taxi,la,l,0.595,,,,408.1456,408.1457,0.192592593,-0.086111111,0,0,0,,0,134,134,34,1,,,,,
,,,,,,,a6ee218d9bfc9be18838f25b,66a626ef09d4e21e1a8894ec,6734d67ffcbd7fadba31d93c,2024-11-13_17h42.31.551,Tarea de género gramatical,2024.2.2,Win32,60.24096386,,,,,,,,,,,,,,,,,,,,,,408.1462,409.2789,a,1,[],[],[],[],[],[],[],0.4605,1,409.2791,409.779,,,,,,887,MAS,DIS,150,hombro,la,l,0.4605,,,,409.7791,409.7791,0.192592593,-0.086111111,0,0,0,,0,135,135,436,1,,,,,
,,,,,,,a6ee218d9bfc9be18838f25b,66a626ef09d4e21e1a8894ec,6734d67ffcbd7fadba31d93c,2024-11-13_17h42.31.551,Tarea de género gramatical,2024.2.2,Win32,60.24096386,,,,,,,,,,,,,,,,,,,,,,409.7797,410.9458,a,1,[],[],[],[],[],[],[],0.4929,1,410.9458,411.4458,,,,,,802,MAS,CON,150,estilo,,l,0.4929,,,,411.4458,411.4459,0.192592593,-0.086111111,0,0,0,,0,136,136,351,1,,,,,
,,,,,,,a6ee218d9bfc9be18838f25b,66a626ef09d4e21e1a8894ec,6734d67ffcbd7fadba31d93c,2024-11-13_17h42.31.551,Tarea de género gramatical,2024.2.2,Win32,60.24096386,,,,,,,,,,,,,,,,,,,,,,411.4464,412.5126,a,1,[],[],[],[],[],[],[],0.3942,1,412.5126,413.0125,,,,,,612,MAS,AGR,150,miedo,el,l,0.3942,,,,413.0131,413.0135,0.192592593,-0.086111111,0,0,0,,0,137,137,161,1,,,,,
,,,,,,,a6ee218d9bfc9be18838f25b,66a626ef09d4e21e1a8894ec,6734d67ffcbd7fadba31d93c,2024-11-13_17h42.31.551,Tarea de género gramatical,2024.2.2,Win32,60.24096386,,,,,,,,,,,,,,,,,,,,,,413.0139,414.1292,a,1,[],[],[],[],[],[],[],0.4436,1,414.1293,414.6293,,,,,,756,MAS,AGR,150,dinero,el,l,0.4436,,,,414.6293,414.6293,0.192592593,-0.086111111,0,0,0,,0,138,138,305,1,,,,,
,,,,,,,a6ee218d9bfc9be18838f25b,66a626ef09d4e21e1a8894ec,6734d67ffcbd7fadba31d93c,2024-11-13_17h42.31.551,Tarea de género gramatical,2024.2.2,Win32,60.24096386,,,,,,,,,,,,,,,,,,,,,,414.6299,415.696,l,1,[],[],[],[],[],[],[],0.3868,1,415.696,416.196,,,,,,465,FEM,AGR,150,cama,la,a,0.3868,,,,416.196,416.196,0.192592593,-0.086111111,0,0,0,,0,139,139,14,1,,,,,
,,,,,,,a6ee218d9bfc9be18838f25b,66a626ef09d4e21e1a8894ec,6734d67ffcbd7fadba31d93c,2024-11-13_17h42.31.551,Tarea de género gramatical,2024.2.2,Win32,60.24096386,,,,,,,,,,,,,,,,,,,,,,416.1967,417.3128,l,1,[],[],[],[],[],[],[],0.444,1,417.3128,417.8128,,,,,,631,FEM,CON,150,tarde,,a,0.444,,,,417.8128,417.8128,0.192592593,-0.086111111,0,0,0,,0,140,140,180,1,,,,,
,,,,,,,a6ee218d9bfc9be18838f25b,66a626ef09d4e21e1a8894ec,6734d67ffcbd7fadba31d93c,2024-11-13_17h42.31.551,Tarea de género gramatical,2024.2.2,Win32,60.24096386,,,,,,,,,,,,,,,,,,,,,,417.8135,418.9961,l,1,[],[],[],[],[],[],[],0.5073,1,418.9962,419.4962,,,,,,686,FEM,DIS,150,deuda,el,a,0.5073,,,,419.4969,419.4973,0.192592593,-0.086111111,0,0,0,,0,141,141,235,1,,,,,
,,,,,,,a6ee218d9bfc9be18838f25b,66a626ef09d4e21e1a8894ec,6734d67ffcbd7fadba31d93c,2024-11-13_17h42.31.551,Tarea de género gramatical,2024.2.2,Win32,60.24096386,,,,,,,,,,,,,,,,,,,,,,419.4975,420.6462,a,1,[],[],[],[],[],[],[],0.4705,1,420.6463,421.1463,,,,,,886,MAS,CON,150,objeto,,l,0.4705,,,,421.1464,421.1464,0.192592593,-0.086111111,0,0,0,,0,142,142,435,1,,,,,
,,,,,,,a6ee218d9bfc9be18838f25b,66a626ef09d4e21e1a8894ec,6734d67ffcbd7fadba31d93c,2024-11-13_17h42.31.551,Tarea de género gramatical,2024.2.2,Win32,60.24096386,,,,,,,,,,,,,,,,,,,,,,421.147,422.2463,a,1,[],[],[],[],[],[],[],0.4199,1,422.2464,422.7463,,,,,,808,MAS,CON,150,motivo,,l,0.4199,,,,422.7463,422.7464,0.192592593,-0.086111111,0,0,0,,0,143,143,357,1,,,,,
,,,,,,,a6ee218d9bfc9be18838f25b,66a626ef09d4e21e1a8894ec,6734d67ffcbd7fadba31d93c,2024-11-13_17h42.31.551,Tarea de género gramatical,2024.2.2,Win32,60.24096386,,,,,,,,,,,,,,,,,,,,,,422.747,423.9964,a,1,[],[],[],[],[],[],[],0.5716,1,423.9965,424.4964,,,,,,647,MAS,DIS,150,avión,la,l,0.5716,,,,424.4965,424.4965,0.192592593,-0.086111111,0,0,0,,0,144,144,196,1,,,,,
,,,,,,,a6ee218d9bfc9be18838f25b,66a626ef09d4e21e1a8894ec,6734d67ffcbd7fadba31d93c,2024-11-13_17h42.31.551,Tarea de género gramatical,2024.2.2,Win32,60.24096386,,,,,,,,,,,,,,,,,,,,,,424.4971,425.5298,a,1,[],[],[],[],[],[],[],0.3576,1,425.5299,426.0298,,,,,,616,MAS,CON,150,coche,,l,0.3576,,,,426.0299,426.0299,0.192592593,-0.086111111,0,0,0,,0,145,145,165,1,,,,,
,,,,,,,a6ee218d9bfc9be18838f25b,66a626ef09d4e21e1a8894ec,6734d67ffcbd7fadba31d93c,2024-11-13_17h42.31.551,Tarea de género gramatical,2024.2.2,Win32,60.24096386,,,,,,,,,,,,,,,,,,,,,,426.0306,427.1299,l,1,[],[],[],[],[],[],[],0.4244,1,427.13,427.6299,,,,,,578,FEM,DIS,150,leña,el,a,0.4244,,,,427.6306,427.631,0.192592593,-0.086111111,0,0,0,,0,146,146,127,1,,,,,
,,,,,,,a6ee218d9bfc9be18838f25b,66a626ef09d4e21e1a8894ec,6734d67ffcbd7fadba31d93c,2024-11-13_17h42.31.551,Tarea de género gramatical,2024.2.2,Win32,60.24096386,,,,,,,,,,,,,,,,,,,,,,427.6313,428.7466,l,1,[],[],[],[],[],[],[],0.4322,1,428.7467,429.2466,,,,,,649,FEM,CON,150,nariz,,a,0.4322,,,,429.2467,429.2467,0.192592593,-0.086111111,0,0,0,,0,147,147,198,1,,,,,
,,,,,,,a6ee218d9bfc9be18838f25b,66a626ef09d4e21e1a8894ec,6734d67ffcbd7fadba31d93c,2024-11-13_17h42.31.551,Tarea de género gramatical,2024.2.2,Win32,60.24096386,,,,,,,,,,,,,,,,,,,,,,429.2474,430.2468,l,1,[],[],[],[],[],[],[],0.3275,1,430.2468,430.7467,,,,,,499,FEM,CON,150,piel,,a,0.3275,,,,430.7467,430.7468,0.192592593,-0.086111111,0,0,0,,0,148,148,48,1,,,,,
,,,,,,,a6ee218d9bfc9be18838f25b,66a626ef09d4e21e1a8894ec,6734d67ffcbd7fadba31d93c,2024-11-13_17h42.31.551,Tarea de género gramatical,2024.2.2,Win32,60.24096386,,,,,,,,,,,,,,,,,,,,,,430.7474,431.8301,a,1,[],[],[],[],[],[],[],0.4044,1,431.8302,432.3301,,,,,,833,MAS,DIS,150,parque,la,l,0.4044,,,,432.3301,432.3302,0.192592593,-0.086111111,0,0,0,,0,149,149,382,1,,,,,
,,,,,,,a6ee218d9bfc9be18838f25b,66a626ef09d4e21e1a8894ec,6734d67ffcbd7fadba31d93c,2024-11-13_17h42.31.551,Tarea de género gramatical,2024.2.2,Win32,60.24096386,,,,,,,,,,,,,,,,,,,,,,432.3309,433.3469,l,1,[],[],[],[],[],[],[],0.34,1,433.347,433.8471,,,,,,483,FEM,AGR,150,boda,la,a,0.34,,,,433.8478,437.9472,0.192592593,-0.086111111,0,0,0,space,0,150,150,32,1,4.0862,,,,
,,,,,,,a6ee218d9bfc9be18838f25b,66a626ef09d4e21e1a8894ec,6734d67ffcbd7fadba31d93c,2024-11-13_17h42.31.551,Tarea de género gramatical,2024.2.2,Win32,60.24096386,,,,,,,,,,,,,,,,,,,,,,437.9478,439.1638,l,1,[],[],[],[],[],[],[],0.5335,1,439.1638,439.6638,,,,,,632,FEM,DIS,150,prisa,el,a,0.5335,,,,439.6639,439.664,0.192592593,-0.086111111,0,0,0,,0,151,151,181,1,,,,,
,,,,,,,a6ee218d9bfc9be18838f25b,66a626ef09d4e21e1a8894ec,6734d67ffcbd7fadba31d93c,2024-11-13_17h42.31.551,Tarea de género gramatical,2024.2.2,Win32,60.24096386,,,,,,,,,,,,,,,,,,,,,,439.6645,440.6973,l,1,[],[],[],[],[],[],[],0.3502,1,440.6973,441.1973,,,,,,823,FEM,CON,150,lluvia,,a,0.3502,,,,441.1973,441.1974,0.192592593,-0.086111111,0,0,0,,0,152,152,372,1,,,,,
,,,,,,,a6ee218d9bfc9be18838f25b,66a626ef09d4e21e1a8894ec,6734d67ffcbd7fadba31d93c,2024-11-13_17h42.31.551,Tarea de género gramatical,2024.2.2,Win32,60.24096386,,,,,,,,,,,,,,,,,,,,,,441.1979,442.1473,l,1,[],[],[],[],[],[],[],0.2739,1,442.1475,442.6474,,,,,,704,FEM,DIS,150,caída,el,a,0.2739,,,,442.6474,442.6474,0.192592593,-0.086111111,0,0,0,,0,153,153,253,1,,,,,
,,,,,,,a6ee218d9bfc9be18838f25b,66a626ef09d4e21e1a8894ec,6734d67ffcbd7fadba31d93c,2024-11-13_17h42.31.551,Tarea de género gramatical,2024.2.2,Win32,60.24096386,,,,,,,,,,,,,,,,,,,,,,442.648,443.614,l,1,[],[],[],[],[],[],[],0.2946,1,443.6141,444.1141,,,,,,783,FEM,AGR,150,locura,la,a,0.2946,,,,444.1141,444.1141,0.192592593,-0.086111111,0,0,0,,0,154,154,332,1,,,,,
,,,,,,,a6ee218d9bfc9be18838f25b,66a626ef09d4e21e1a8894ec,6734d67ffcbd7fadba31d93c,2024-11-13_17h42.31.551,Tarea de género gramatical,2024.2.2,Win32,60.24096386,,,,,,,,,,,,,,,,,,,,,,444.1148,445.2141,a,1,[],[],[],[],[],[],[],0.42,1,445.2142,445.7142,,,,,,600,MAS,AGR,150,mozo,el,l,0.42,,,,445.7149,445.7154,0.192592593,-0.086111111,0,0,0,,0,155,155,149,1,,,,,
,,,,,,,a6ee218d9bfc9be18838f25b,66a626ef09d4e21e1a8894ec,6734d67ffcbd7fadba31d93c,2024-11-13_17h42.31.551,Tarea de género gramatical,2024.2.2,Win32,60.24096386,,,,,,,,,,,,,,,,,,,,,,445.7156,447.0808,l,1,[],[],[],[],[],[],[],0.6921,1,447.081,447.581,,,,,,747,FEM,AGR,150,manta,la,a,0.6921,,,,447.581,447.581,0.192592593,-0.086111111,0,0,0,,0,156,156,296,1,,,,,
,,,,,,,a6ee218d9bfc9be18838f25b,66a626ef09d4e21e1a8894ec,6734d67ffcbd7fadba31d93c,2024-11-13_17h42.31.551,Tarea de género gramatical,2024.2.2,Win32,60.24096386,,,,,,,,,,,,,,,,,,,,,,447.5816,448.6976,a,1,[],[],[],[],[],[],[],0.4425,1,448.6977,449.1976,,,,,,509,MAS,DIS,150,lobo,la,l,0.4425,,,,449.1976,449.1977,0.192592593,-0.086111111,0,0,0,,0,157,157,58,1,,,,,
,,,,,,,a6ee218d9bfc9be18838f25b,66a626ef09d4e21e1a8894ec,6734d67ffcbd7fadba31d93c,2024-11-13_17h42.31.551,Tarea de género gramatical,2024.2.2,Win32,60.24096386,,,,,,,,,,,,,,,,,,,,,,449.1984,450.2477,a,1,[],[],[],[],[],[],[],0.3784,1,450.2478,450.7478,,,,,,611,MAS,DIS,150,chico,la,l,0.3784,,,,450.7478,450.7478,0.192592593,-0.086111111,0,0,0,,0,158,158,160,1,,,,,
,,,,,,,a6ee218d9bfc9be18838f25b,66a626ef09d4e21e1a8894ec,6734d67ffcbd7fadba31d93c,2024-11-13_17h42.31.551,Tarea de género gramatical,2024.2.2,Win32,60.24096386,,,,,,,,,,,,,,,,,,,,,,450.7484,451.9312,l,1,[],[],[],[],[],[],[],0.4995,1,451.9312,452.4313,,,,,,873,FEM,AGR,150,poesía,la,a,0.4995,,,,452.432,452.4325,0.192592593,-0.086111111,0,0,0,,0,159,159,422,1,,,,,
,,,,,,,a6ee218d9bfc9be18838f25b,66a626ef09d4e21e1a8894ec,6734d67ffcbd7fadba31d93c,2024-11-13_17h42.31.551,Tarea de género gramatical,2024.2.2,Win32,60.24096386,,,,,,,,,,,,,,,,,,,,,,452.4329,453.5478,a,1,[],[],[],[],[],[],[],0.439,1,453.548,454.0479,,,,,,664,MAS,CON,150,fondo,,l,0.439,,,,454.0479,454.0479,0.192592593,-0.086111111,0,0,0,,0,160,160,213,1,,,,,
,,,,,,,a6ee218d9bfc9be18838f25b,66a626ef09d4e21e1a8894ec,6734d67ffcbd7fadba31d93c,2024-11-13_17h42.31.551,Tarea de género gramatical,2024.2.2,Win32,60.24096386,,,,,,,,,,,,,,,,,,,,,,454.0485,455.2147,a,1,[],[],[],[],[],[],[],0.4863,1,455.2148,455.7147,,,,,,526,MAS,CON,150,lujo,,l,0.4863,,,,455.7147,455.7147,0.192592593,-0.086111111,0,0,0,,0,161,161,75,1,,,,,
,,,,,,,a6ee218d9bfc9be18838f25b,66a626ef09d4e21e1a8894ec,6734d67ffcbd7fadba31d93c,2024-11-13_17h42.31.551,Tarea de género gramatical,2024.2.2,Win32,60.24096386,,,,,,,,,,,,,,,,,,,,,,455.7153,456.798,a,1,[],[],[],[],[],[],[],0.4035,1,456.7981,457.298,,,,,,714,MAS,AGR,150,pollo,el,l,0.4035,,,,457.2981,457.2982,0.192592593,-0.086111111,0,0,0,,0,162,162,263,1,,,,,
,,,,,,,a6ee218d9bfc9be18838f25b,66a626ef09d4e21e1a8894ec,6734d67ffcbd7fadba31d93c,2024-11-13_17h42.31.551,Tarea de género gramatical,2024.2.2,Win32,60.24096386,,,,,,,,,,,,,,,,,,,,,,457.2987,458.5482,l,1,[],[],[],[],[],[],[],0.565,1,458.5482,459.0482,,,,,,457,FEM,CON,150,hora,,a,0.565,,,,459.0482,459.0483,0.192592593,-0.086111111,0,0,0,,0,163,163,6,1,,,,,
,,,,,,,a6ee218d9bfc9be18838f25b,66a626ef09d4e21e1a8894ec,6734d67ffcbd7fadba31d93c,2024-11-13_17h42.31.551,Tarea de género gramatical,2024.2.2,Win32,60.24096386,,,,,,,,,,,,,,,,,,,,,,459.0489,460.3149,a,1,[],[],[],[],[],[],[],0.5821,1,460.315,460.8149,,,,,,454,MAS,CON,150,hijo,,l,0.5821,,,,460.8156,460.816,0.192592593,-0.086111111,0,0,0,,0,164,164,3,1,,,,,
,,,,,,,a6ee218d9bfc9be18838f25b,66a626ef09d4e21e1a8894ec,6734d67ffcbd7fadba31d93c,2024-11-13_17h42.31.551,Tarea de género gramatical,2024.2.2,Win32,60.24096386,,,,,,,,,,,,,,,,,,,,,,460.8163,461.965,l,1,[],[],[],[],[],[],[],0.4652,1,461.965,462.4649,,,,,,871,FEM,CON,150,novela,,a,0.4652,,,,462.465,462.465,0.192592593,-0.086111111,0,0,0,,0,165,165,420,1,,,,,
,,,,,,,a6ee218d9bfc9be18838f25b,66a626ef09d4e21e1a8894ec,6734d67ffcbd7fadba31d93c,2024-11-13_17h42.31.551,Tarea de género gramatical,2024.2.2,Win32,60.24096386,,,,,,,,,,,,,,,,,,,,,,462.4657,463.5818,a,1,[],[],[],[],[],[],[],0.4372,1,463.5818,464.0817,,,,,,510,MAS,AGR,150,tono,el,l,0.4372,,,,464.0817,464.0818,0.192592593,-0.086111111,0,0,0,,0,166,166,59,1,,,,,
,,,,,,,a6ee218d9bfc9be18838f25b,66a626ef09d4e21e1a8894ec,6734d67ffcbd7fadba31d93c,2024-11-13_17h42.31.551,Tarea de género gramatical,2024.2.2,Win32,60.24096386,,,,,,,,,,,,,,,,,,,,,,464.0824,465.1151,l,1,[],[],[],[],[],[],[],0.3495,1,465.1152,465.6151,,,,,,463,FEM,CON,150,hija,,a,0.3495,,,,465.6151,465.6152,0.192592593,-0.086111111,0,0,0,,0,167,167,12,1,,,,,
,,,,,,,a6ee218d9bfc9be18838f25b,66a626ef09d4e21e1a8894ec,6734d67ffcbd7fadba31d93c,2024-11-13_17h42.31.551,Tarea de género gramatical,2024.2.2,Win32,60.24096386,,,,,,,,,,,,,,,,,,,,,,465.6158,466.7485,a,0,[],[],[],[],[],[],[],0.4503,0,466.7491,467.2486,,,,,,758,FEM,DIS,150,semana,el,a,0.4503,,,,467.2493,467.2497,0.192592593,-0.086111111,0,0,0,,0,168,168,307,1,,,,,
,,,,,,,a6ee218d9bfc9be18838f25b,66a626ef09d4e21e1a8894ec,6734d67ffcbd7fadba31d93c,2024-11-13_17h42.31.551,Tarea de género gramatical,2024.2.2,Win32,60.24096386,,,,,,,,,,,,,,,,,,,,,,467.2501,468.2986,l,1,[],[],[],[],[],[],[],0.3659,1,468.2991,468.7986,,,,,,867,FEM,AGR,150,cabaña,la,a,0.3659,,,,468.7986,468.7987,0.192592593,-0.086111111,0,0,0,,0,169,169,416,1,,,,,
,,,,,,,a6ee218d9bfc9be18838f25b,66a626ef09d4e21e1a8894ec,6734d67ffcbd7fadba31d93c,2024-11-13_17h42.31.551,Tarea de género gramatical,2024.2.2,Win32,60.24096386,,,,,,,,,,,,,,,,,,,,,,468.7993,469.9487,l,1,[],[],[],[],[],[],[],0.4713,1,469.9487,470.4487,,,,,,831,FEM,AGR,150,bebida,la,a,0.4713,,,,470.4488,470.4488,0.192592593,-0.086111111,0,0,0,,0,170,170,380,1,,,,,
,,,,,,,a6ee218d9bfc9be18838f25b,66a626ef09d4e21e1a8894ec,6734d67ffcbd7fadba31d93c,2024-11-13_17h42.31.551,Tarea de género gramatical,2024.2.2,Win32,60.24096386,,,,,,,,,,,,,,,,,,,,,,470.4495,471.6321,l,1,[],[],[],[],[],[],[],0.5015,1,471.6321,472.1321,,,,,,452,FEM,DIS,150,vida,el,a,0.5015,,,,472.1322,472.1322,0.192592593,-0.086111111,0,0,0,,0,171,171,1,1,,,,,
,,,,,,,a6ee218d9bfc9be18838f25b,66a626ef09d4e21e1a8894ec,6734d67ffcbd7fadba31d93c,2024-11-13_17h42.31.551,Tarea de género gramatical,2024.2.2,Win32,60.24096386,,,,,,,,,,,,,,,,,,,,,,472.1328,473.0989,l,1,[],[],[],[],[],[],[],0.2901,1,473.099,473.5988,,,,,,494,FEM,DIS,150,zona,el,a,0.2901,,,,473.5989,473.5989,0.192592593,-0.086111111,0,0,0,,0,172,172,43,1,,,,,
,,,,,,,a6ee218d9bfc9be18838f25b,66a626ef09d4e21e1a8894ec,6734d67ffcbd7fadba31d93c,2024-11-13_17h42.31.551,Tarea de género gramatical,2024.2.2,Win32,60.24096386,,,,,,,,,,,,,,,,,,,,,,473.5996,474.6322,l,1,[],[],[],[],[],[],[],0.3512,1,474.6323,475.1323,,,,,,679,FEM,CON,150,celda,,a,0.3512,,,,475.133,475.1334,0.192592593,-0.086111111,0,0,0,,0,173,173,228,1,,,,,
,,,,,,,a6ee218d9bfc9be18838f25b,66a626ef09d4e21e1a8894ec,6734d67ffcbd7fadba31d93c,2024-11-13_17h42.31.551,Tarea de género gramatical,2024.2.2,Win32,60.24096386,,,,,,,,,,,,,,,,,,,,,,475.1337,476.3823,a,1,[],[],[],[],[],[],[],0.5779,1,476.3824,476.8824,,,,,,496,MAS,CON,150,odio,,l,0.5779,,,,476.8824,476.8825,0.192592593,-0.086111111,0,0,0,,0,174,174,45,1,,,,,
,,,,,,,a6ee218d9bfc9be18838f25b,66a626ef09d4e21e1a8894ec,6734d67ffcbd7fadba31d93c,2024-11-13_17h42.31.551,Tarea de género gramatical,2024.2.2,Win32,60.24096386,,,,,,,,,,,,,,,,,,,,,,476.883,477.9324,l,1,[],[],[],[],[],[],[],0.3717,1,477.9325,478.4325,,,,,,565,FEM,CON,150,seda,,a,0.3717,,,,478.4325,478.4326,0.192592593,-0.086111111,0,0,0,,0,175,175,114,1,,,,,
,,,,,,,a6ee218d9bfc9be18838f25b,66a626ef09d4e21e1a8894ec,6734d67ffcbd7fadba31d93c,2024-11-13_17h42.31.551,Tarea de género gramatical,2024.2.2,Win32,60.24096386,,,,,,,,,,,,,,,,,,,,,,478.4332,479.6825,l,1,[],[],[],[],[],[],[],0.5682,1,479.6826,480.1826,,,,,,681,FEM,AGR,150,bruja,la,a,0.5682,,,,480.1827,480.1827,0.192592593,-0.086111111,0,0,0,,0,176,176,230,1,,,,,
,,,,,,,a6ee218d9bfc9be18838f25b,66a626ef09d4e21e1a8894ec,6734d67ffcbd7fadba31d93c,2024-11-13_17h42.31.551,Tarea de género gramatical,2024.2.2,Win32,60.24096386,,,,,,,,,,,,,,,,,,,,,,480.1832,481.2492,a,1,[],[],[],[],[],[],[],0.3936,1,481.2494,481.7493,,,,,,508,MAS,CON,150,mono,,l,0.3936,,,,481.7499,481.7503,0.192592593,-0.086111111,0,0,0,,0,177,177,57,1,,,,,
,,,,,,,a6ee218d9bfc9be18838f25b,66a626ef09d4e21e1a8894ec,6734d67ffcbd7fadba31d93c,2024-11-13_17h42.31.551,Tarea de género gramatical,2024.2.2,Win32,60.24096386,,,,,,,,,,,,,,,,,,,,,,481.7507,482.7994,l,1,[],[],[],[],[],[],[],0.3772,1,482.7994,483.2993,,,,,,651,FEM,AGR,150,leche,la,a,0.3772,,,,483.2994,483.2995,0.192592593,-0.086111111,0,0,0,,0,178,178,200,1,,,,,
,,,,,,,a6ee218d9bfc9be18838f25b,66a626ef09d4e21e1a8894ec,6734d67ffcbd7fadba31d93c,2024-11-13_17h42.31.551,Tarea de género gramatical,2024.2.2,Win32,60.24096386,,,,,,,,,,,,,,,,,,,,,,483.3001,484.6495,l,1,[],[],[],[],[],[],[],0.6667,1,484.6495,485.1494,,,,,,601,FEM,CON,150,noche,,a,0.6667,,,,485.1494,485.1495,0.192592593,-0.086111111,0,0,0,,0,179,179,150,1,,,,,
,,,,,,,a6ee218d9bfc9be18838f25b,66a626ef09d4e21e1a8894ec,6734d67ffcbd7fadba31d93c,2024-11-13_17h42.31.551,Tarea de género gramatical,2024.2.2,Win32,60.24096386,,,,,,,,,,,,,,,,,,,,,,485.1501,486.3495,a,1,[],[],[],[],[],[],[],0.5218,1,486.3496,486.8496,,,,,,892,MAS,CON,150,cuadro,,l,0.5218,,,,486.8496,486.8496,0.192592593,-0.086111111,0,0,0,,0,180,180,441,1,,,,,
,,,,,,,a6ee218d9bfc9be18838f25b,66a626ef09d4e21e1a8894ec,6734d67ffcbd7fadba31d93c,2024-11-13_17h42.31.551,Tarea de género gramatical,2024.2.2,Win32,60.24096386,,,,,,,,,,,,,,,,,,,,,,486.8502,488.0496,l,1,[],[],[],[],[],[],[],0.5165,1,488.0496,488.5496,,,,,,505,FEM,CON,150,taza,,a,0.5165,,,,488.5497,488.5497,0.192592593,-0.086111111,0,0,0,,0,181,181,54,1,,,,,
,,,,,,,a6ee218d9bfc9be18838f25b,66a626ef09d4e21e1a8894ec,6734d67ffcbd7fadba31d93c,2024-11-13_17h42.31.551,Tarea de género gramatical,2024.2.2,Win32,60.24096386,,,,,,,,,,,,,,,,,,,,,,488.5502,489.5664,l,1,[],[],[],[],[],[],[],0.3447,1,489.5664,490.0663,,,,,,721,FEM,CON,150,viuda,,a,0.3447,,,,490.0671,490.0675,0.192592593,-0.086111111,0,0,0,,0,182,182,270,1,,,,,
,,,,,,,a6ee218d9bfc9be18838f25b,66a626ef09d4e21e1a8894ec,6734d67ffcbd7fadba31d93c,2024-11-13_17h42.31.551,Tarea de género gramatical,2024.2.2,Win32,60.24096386,,,,,,,,,,,,,,,,,,,,,,490.0678,491.0331,a,1,[],[],[],[],[],[],[],0.2918,1,491.0332,491.5331,,,,,,725,MAS,DIS,150,disco,la,l,0.2918,,,,491.5331,491.5331,0.192592593,-0.086111111,0,0,0,,0,183,183,274,1,,,,,
,,,,,,,a6ee218d9bfc9be18838f25b,66a626ef09d4e21e1a8894ec,6734d67ffcbd7fadba31d93c,2024-11-13_17h42.31.551,Tarea de género gramatical,2024.2.2,Win32,60.24096386,,,,,,,,,,,,,,,,,,,,,,491.5338,492.6499,a,0,[],[],[],[],[],[],[],0.4412,0,492.6503,493.1499,,,,,,687,FEM,AGR,150,ducha,la,a,0.4412,,,,493.1499,493.15,0.192592593,-0.086111111,0,0,0,,0,184,184,236,1,,,,,
,,,,,,,a6ee218d9bfc9be18838f25b,66a626ef09d4e21e1a8894ec,6734d67ffcbd7fadba31d93c,2024-11-13_17h42.31.551,Tarea de género gramatical,2024.2.2,Win32,60.24096386,,,,,,,,,,,,,,,,,,,,,,493.1505,494.2832,a,1,[],[],[],[],[],[],[],0.4565,1,494.2838,494.7832,,,,,,586,MAS,CON,150,vago,,l,0.4565,,,,494.7833,494.7833,0.192592593,-0.086111111,0,0,0,,0,185,185,135,1,,,,,
,,,,,,,a6ee218d9bfc9be18838f25b,66a626ef09d4e21e1a8894ec,6734d67ffcbd7fadba31d93c,2024-11-13_17h42.31.551,Tarea de género gramatical,2024.2.2,Win32,60.24096386,,,,,,,,,,,,,,,,,,,,,,494.7839,495.9833,a,1,[],[],[],[],[],[],[],0.5187,1,495.9833,496.4834,,,,,,832,MAS,CON,150,teatro,,l,0.5187,,,,496.4841,496.4844,0.192592593,-0.086111111,0,0,0,,0,186,186,381,1,,,,,
,,,,,,,a6ee218d9bfc9be18838f25b,66a626ef09d4e21e1a8894ec,6734d67ffcbd7fadba31d93c,2024-11-13_17h42.31.551,Tarea de género gramatical,2024.2.2,Win32,60.24096386,,,,,,,,,,,,,,,,,,,,,,496.4847,497.7501,l,1,[],[],[],[],[],[],[],0.5947,1,497.7501,498.2501,,,,,,727,FEM,CON,150,plaza,,a,0.5947,,,,498.2502,498.2502,0.192592593,-0.086111111,0,0,0,,0,187,187,276,1,,,,,
,,,,,,,a6ee218d9bfc9be18838f25b,66a626ef09d4e21e1a8894ec,6734d67ffcbd7fadba31d93c,2024-11-13_17h42.31.551,Tarea de género gramatical,2024.2.2,Win32,60.24096386,,,,,,,,,,,,,,,,,,,,,,498.2508,499.3335,l,0,[],[],[],[],[],[],[],0.4042,0,499.3339,499.8335,,,,,,744,MAS,AGR,150,cable,el,l,0.4042,,,,499.8336,499.8336,0.192592593,-0.086111111,0,0,0,,0,188,188,293,1,,,,,
,,,,,,,a6ee218d9bfc9be18838f25b,66a626ef09d4e21e1a8894ec,6734d67ffcbd7fadba31d93c,2024-11-13_17h42.31.551,Tarea de género gramatical,2024.2.2,Win32,60.24096386,,,,,,,,,,,,,,,,,,,,,,499.8342,501.5336,l,0,[],[],[],[],[],[],[],1.0207,0,501.5337,502.0336,,,,,,545,MAS,DIS,150,tomo,la,l,1.0207,,,,502.0336,502.0337,0.192592593,-0.086111111,0,0,0,,0,189,189,94,1,,,,,
,,,,,,,a6ee218d9bfc9be18838f25b,66a626ef09d4e21e1a8894ec,6734d67ffcbd7fadba31d93c,2024-11-13_17h42.31.551,Tarea de género gramatical,2024.2.2,Win32,60.24096386,,,,,,,,,,,,,,,,,,,,,,502.0343,503.217,l,1,[],[],[],[],[],[],[],0.5104,1,503.2175,503.7172,,,,,,843,FEM,AGR,150,alarma,la,a,0.5104,,,,503.7172,503.7173,0.192592593,-0.086111111,0,0,0,,0,190,190,392,1,,,,,
,,,,,,,a6ee218d9bfc9be18838f25b,66a626ef09d4e21e1a8894ec,6734d67ffcbd7fadba31d93c,2024-11-13_17h42.31.551,Tarea de género gramatical,2024.2.2,Win32,60.24096386,,,,,,,,,,,,,,,,,,,,,,503.7179,504.8338,l,1,[],[],[],[],[],[],[],0.4412,1,504.8338,505.3338,,,,,,459,FEM,AGR,150,mamá,la,a,0.4412,,,,505.3345,505.3348,0.192592593,-0.086111111,0,0,0,,0,191,191,8,1,,,,,
,,,,,,,a6ee218d9bfc9be18838f25b,66a626ef09d4e21e1a8894ec,6734d67ffcbd7fadba31d93c,2024-11-13_17h42.31.551,Tarea de género gramatical,2024.2.2,Win32,60.24096386,,,,,,,,,,,,,,,,,,,,,,505.3352,506.4339,a,1,[],[],[],[],[],[],[],0.4168,1,506.4339,506.9339,,,,,,726,MAS,AGR,150,ritmo,el,l,0.4168,,,,506.9339,506.9339,0.192592593,-0.086111111,0,0,0,,0,192,192,275,1,,,,,
,,,,,,,a6ee218d9bfc9be18838f25b,66a626ef09d4e21e1a8894ec,6734d67ffcbd7fadba31d93c,2024-11-13_17h42.31.551,Tarea de género gramatical,2024.2.2,Win32,60.24096386,,,,,,,,,,,,,,,,,,,,,,506.9346,508.084,l,1,[],[],[],[],[],[],[],0.4743,1,508.0841,508.584,,,,,,489,FEM,AGR,150,luna,la,a,0.4743,,,,508.584,508.584,0.192592593,-0.086111111,0,0,0,,0,193,193,38,1,,,,,
,,,,,,,a6ee218d9bfc9be18838f25b,66a626ef09d4e21e1a8894ec,6734d67ffcbd7fadba31d93c,2024-11-13_17h42.31.551,Tarea de género gramatical,2024.2.2,Win32,60.24096386,,,,,,,,,,,,,,,,,,,,,,508.5847,510.2007,a,1,[],[],[],[],[],[],[],0.9422,1,510.2007,510.7008,,,,,,762,MAS,AGR,150,equipo,el,l,0.9422,,,,510.7008,510.7008,0.192592593,-0.086111111,0,0,0,,0,194,194,311,1,,,,,
,,,,,,,a6ee218d9bfc9be18838f25b,66a626ef09d4e21e1a8894ec,6734d67ffcbd7fadba31d93c,2024-11-13_17h42.31.551,Tarea de género gramatical,2024.2.2,Win32,60.24096386,,,,,,,,,,,,,,,,,,,,,,510.7014,511.7841,l,1,[],[],[],[],[],[],[],0.4014,1,511.7842,512.2842,,,,,,735,FEM,AGR,150,mafia,la,a,0.4014,,,,512.2848,512.2851,0.192592593,-0.086111111,0,0,0,,0,195,195,284,1,,,,,
,,,,,,,a6ee218d9bfc9be18838f25b,66a626ef09d4e21e1a8894ec,6734d67ffcbd7fadba31d93c,2024-11-13_17h42.31.551,Tarea de género gramatical,2024.2.2,Win32,60.24096386,,,,,,,,,,,,,,,,,,,,,,512.2856,513.5342,l,1,[],[],[],[],[],[],[],0.5699,1,513.5342,514.0342,,,,,,848,FEM,DIS,150,hierba,el,a,0.5699,,,,514.0342,514.0343,0.192592593,-0.086111111,0,0,0,,0,196,196,397,1,,,,,
,,,,,,,a6ee218d9bfc9be18838f25b,66a626ef09d4e21e1a8894ec,6734d67ffcbd7fadba31d93c,2024-11-13_17h42.31.551,Tarea de género gramatical,2024.2.2,Win32,60.24096386,,,,,,,,,,,,,,,,,,,,,,514.0349,515.3009,a,1,[],[],[],[],[],[],[],0.5827,1,515.3011,515.801,,,,,,618,MAS,AGR,150,sitio,el,l,0.5827,,,,515.801,515.801,0.192592593,-0.086111111,0,0,0,,0,197,197,167,1,,,,,
,,,,,,,a6ee218d9bfc9be18838f25b,66a626ef09d4e21e1a8894ec,6734d67ffcbd7fadba31d93c,2024-11-13_17h42.31.551,Tarea de género gramatical,2024.2.2,Win32,60.24096386,,,,,,,,,,,,,,,,,,,,,,515.8017,517.0177,l,1,[],[],[],[],[],[],[],0.5352,1,517.0177,517.5177,,,,,,453,FEM,AGR,150,cosa,la,a,0.5352,,,,517.5177,517.5178,0.192592593,-0.086111111,0,0,0,,0,198,198,2,1,,,,,
,,,,,,,a6ee218d9bfc9be18838f25b,66a626ef09d4e21e1a8894ec,6734d67ffcbd7fadba31d93c,2024-11-13_17h42.31.551,Tarea de género gramatical,2024.2.2,Win32,60.24096386,,,,,,,,,,,,,,,,,,,,,,517.5184,518.6512,l,1,[],[],[],[],[],[],[],0.4492,1,518.6512,519.1512,,,,,,847,FEM,CON,150,cuerda,,a,0.4492,,,,519.1512,519.1512,0.192592593,-0.086111111,0,0,0,,0,199,199,396,1,,,,,
,,,,,,,a6ee218d9bfc9be18838f25b,66a626ef09d4e21e1a8894ec,6734d67ffcbd7fadba31d93c,2024-11-13_17h42.31.551,Tarea de género gramatical,2024.2.2,Win32,60.24096386,,,,,,,,,,,,,,,,,,,,,,519.1519,520.2678,l,1,[],[],[],[],[],[],[],0.433,1,520.2679,520.7679,,,,,,584,FEM,DIS,150,rama,el,a,0.433,,,,520.7686,520.769,0.192592593,-0.086111111,0,0,0,,0,200,200,133,1,,,,,
,,,,,,,a6ee218d9bfc9be18838f25b,66a626ef09d4e21e1a8894ec,6734d67ffcbd7fadba31d93c,2024-11-13_17h42.31.551,Tarea de género gramatical,2024.2.2,Win32,60.24096386,,,,,,,,,,,,,,,,,,,,,,520.7693,521.868,a,1,[],[],[],[],[],[],[],0.4223,1,521.8681,522.3679,,,,,,520,MAS,CON,150,palo,,l,0.4223,,,,522.368,522.368,0.192592593,-0.086111111,0,0,0,,0,201,201,69,1,,,,,
,,,,,,,a6ee218d9bfc9be18838f25b,66a626ef09d4e21e1a8894ec,6734d67ffcbd7fadba31d93c,2024-11-13_17h42.31.551,Tarea de género gramatical,2024.2.2,Win32,60.24096386,,,,,,,,,,,,,,,,,,,,,,522.3687,524.0181,a,1,[],[],[],[],[],[],[],0.9669,1,524.0182,524.5181,,,,,,575,MAS,DIS,150,bate,la,l,0.9669,,,,524.5182,524.5182,0.192592593,-0.086111111,0,0,0,,0,202,202,124,1,,,,,
,,,,,,,a6ee218d9bfc9be18838f25b,66a626ef09d4e21e1a8894ec,6734d67ffcbd7fadba31d93c,2024-11-13_17h42.31.551,Tarea de género gramatical,2024.2.2,Win32,60.24096386,,,,,,,,,,,,,,,,,,,,,,524.5187,525.8681,a,1,[],[],[],[],[],[],[],0.6658,1,525.8682,526.3682,,,,,,504,MAS,AGR,150,humo,el,l,0.6658,,,,526.3682,526.3682,0.192592593,-0.086111111,0,0,0,,0,203,203,53,1,,,,,
,,,,,,,a6ee218d9bfc9be18838f25b,66a626ef09d4e21e1a8894ec,6734d67ffcbd7fadba31d93c,2024-11-13_17h42.31.551,Tarea de género gramatical,2024.2.2,Win32,60.24096386,,,,,,,,,,,,,,,,,,,,,,526.3688,527.7016,l,1,[],[],[],[],[],[],[],0.6542,1,527.7016,528.2017,,,,,,703,FEM,CON,150,aldea,,a,0.6542,,,,528.2023,528.2028,0.192592593,-0.086111111,0,0,0,,0,204,204,252,1,,,,,
,,,,,,,a6ee218d9bfc9be18838f25b,66a626ef09d4e21e1a8894ec,6734d67ffcbd7fadba31d93c,2024-11-13_17h42.31.551,Tarea de género gramatical,2024.2.2,Win32,60.24096386,,,,,,,,,,,,,,,,,,,,,,528.2031,529.6517,a,1,[],[],[],[],[],[],[],0.7671,1,529.6517,530.1517,,,,,,552,MAS,AGR,150,coro,el,l,0.7671,,,,530.1517,530.1517,0.192592593,-0.086111111,0,0,0,,0,205,205,101,1,,,,,
,,,,,,,a6ee218d9bfc9be18838f25b,66a626ef09d4e21e1a8894ec,6734d67ffcbd7fadba31d93c,2024-11-13_17h42.31.551,Tarea de género gramatical,2024.2.2,Win32,60.24096386,,,,,,,,,,,,,,,,,,,,,,530.1524,531.3184,l,1,[],[],[],[],[],[],[],0.4945,1,531.3185,531.8185,,,,,,849,FEM,AGR,150,charla,la,a,0.4945,,,,531.8185,531.8185,0.192592593,-0.086111111,0,0,0,,0,206,206,398,1,,,,,
,,,,,,,a6ee218d9bfc9be18838f25b,66a626ef09d4e21e1a8894ec,6734d67ffcbd7fadba31d93c,2024-11-13_17h42.31.551,Tarea de género gramatical,2024.2.2,Win32,60.24096386,,,,,,,,,,,,,,,,,,,,,,531.8191,533.2852,a,0,[],[],[],[],[],[],[],0.8046,0,533.2857,533.7852,,,,,,645,FEM,AGR,150,pared,la,a,0.8046,,,,533.7853,533.7853,0.192592593,-0.086111111,0,0,0,,0,207,207,194,1,,,,,
,,,,,,,a6ee218d9bfc9be18838f25b,66a626ef09d4e21e1a8894ec,6734d67ffcbd7fadba31d93c,2024-11-13_17h42.31.551,Tarea de género gramatical,2024.2.2,Win32,60.24096386,,,,,,,,,,,,,,,,,,,,,,533.7859,534.852,l,1,[],[],[],[],[],[],[],0.3817,1,534.8526,535.352,,,,,,451,FEM,CON,150,casa,,a,0.3817,,,,535.352,535.3521,0.192592593,-0.086111111,0,0,0,,0,208,208,0,1,,,,,
,,,,,,,a6ee218d9bfc9be18838f25b,66a626ef09d4e21e1a8894ec,6734d67ffcbd7fadba31d93c,2024-11-13_17h42.31.551,Tarea de género gramatical,2024.2.2,Win32,60.24096386,,,,,,,,,,,,,,,,,,,,,,535.3527,536.502,a,1,[],[],[],[],[],[],[],0.4787,1,536.5021,537.002,,,,,,514,MAS,CON,150,saco,,l,0.4787,,,,537.0027,537.003,0.192592593,-0.086111111,0,0,0,,0,209,209,63,1,,,,,
,,,,,,,a6ee218d9bfc9be18838f25b,66a626ef09d4e21e1a8894ec,6734d67ffcbd7fadba31d93c,2024-11-13_17h42.31.551,Tarea de género gramatical,2024.2.2,Win32,60.24096386,,,,,,,,,,,,,,,,,,,,,,537.0035,538.1521,a,1,[],[],[],[],[],[],[],0.4682,1,538.1521,538.6521,,,,,,460,MAS,CON,150,niño,,l,0.4682,,,,538.6521,538.6522,0.192592593,-0.086111111,0,0,0,,0,210,210,9,1,,,,,
,,,,,,,a6ee218d9bfc9be18838f25b,66a626ef09d4e21e1a8894ec,6734d67ffcbd7fadba31d93c,2024-11-13_17h42.31.551,Tarea de género gramatical,2024.2.2,Win32,60.24096386,,,,,,,,,,,,,,,,,,,,,,538.6528,539.8023,l,1,[],[],[],[],[],[],[],0.4738,1,539.8023,540.3023,,,,,,471,FEM,AGR,150,boca,la,a,0.4738,,,,540.3023,540.3023,0.192592593,-0.086111111,0,0,0,,0,211,211,20,1,,,,,
,,,,,,,a6ee218d9bfc9be18838f25b,66a626ef09d4e21e1a8894ec,6734d67ffcbd7fadba31d93c,2024-11-13_17h42.31.551,Tarea de género gramatical,2024.2.2,Win32,60.24096386,,,,,,,,,,,,,,,,,,,,,,540.303,541.3856,a,1,[],[],[],[],[],[],[],0.4077,1,541.3856,541.8857,,,,,,797,MAS,DIS,150,cuello,la,l,0.4077,,,,541.8857,541.8857,0.192592593,-0.086111111,0,0,0,,0,212,212,346,1,,,,,
,,,,,,,a6ee218d9bfc9be18838f25b,66a626ef09d4e21e1a8894ec,6734d67ffcbd7fadba31d93c,2024-11-13_17h42.31.551,Tarea de género gramatical,2024.2.2,Win32,60.24096386,,,,,,,,,,,,,,,,,,,,,,541.8863,543.4024,a,1,[],[],[],[],[],[],[],0.8407,1,543.4024,543.9024,,,,,,562,MAS,CON,150,reto,,l,0.8407,,,,543.9031,543.9035,0.192592593,-0.086111111,0,0,0,,0,213,213,111,1,,,,,
,,,,,,,a6ee218d9bfc9be18838f25b,66a626ef09d4e21e1a8894ec,6734d67ffcbd7fadba31d93c,2024-11-13_17h42.31.551,Tarea de género gramatical,2024.2.2,Win32,60.24096386,,,,,,,,,,,,,,,,,,,,,,543.9039,545.0358,l,1,[],[],[],[],[],[],[],0.4559,1,545.0358,545.5359,,,,,,579,FEM,AGR,150,rana,la,a,0.4559,,,,545.536,545.536,0.192592593,-0.086111111,0,0,0,,0,214,214,128,1,,,,,
,,,,,,,a6ee218d9bfc9be18838f25b,66a626ef09d4e21e1a8894ec,6734d67ffcbd7fadba31d93c,2024-11-13_17h42.31.551,Tarea de género gramatical,2024.2.2,Win32,60.24096386,,,,,,,,,,,,,,,,,,,,,,545.5365,546.8359,a,0,[],[],[],[],[],[],[],0.6226,0,546.8363,547.3359,,,,,,541,FEM,CON,150,hoja,,a,0.6226,,,,547.3359,547.336,0.192592593,-0.086111111,0,0,0,,0,215,215,90,1,,,,,
,,,,,,,a6ee218d9bfc9be18838f25b,66a626ef09d4e21e1a8894ec,6734d67ffcbd7fadba31d93c,2024-11-13_17h42.31.551,Tarea de género gramatical,2024.2.2,Win32,60.24096386,,,,,,,,,,,,,,,,,,,,,,547.3366,548.8527,l,1,[],[],[],[],[],[],[],0.8335,1,548.8532,549.3526,,,,,,895,FEM,CON,150,bondad,,a,0.8335,,,,549.3527,549.3528,0.192592593,-0.086111111,0,0,0,,0,216,216,444,1,,,,,
,,,,,,,a6ee218d9bfc9be18838f25b,66a626ef09d4e21e1a8894ec,6734d67ffcbd7fadba31d93c,2024-11-13_17h42.31.551,Tarea de género gramatical,2024.2.2,Win32,60.24096386,,,,,,,,,,,,,,,,,,,,,,549.3534,550.4527,l,1,[],[],[],[],[],[],[],0.4292,1,550.4527,550.9528,,,,,,855,FEM,AGR,150,parada,la,a,0.4292,,,,550.9528,550.9528,0.192592593,-0.086111111,0,0,0,,0,217,217,404,1,,,,,
,,,,,,,a6ee218d9bfc9be18838f25b,66a626ef09d4e21e1a8894ec,6734d67ffcbd7fadba31d93c,2024-11-13_17h42.31.551,Tarea de género gramatical,2024.2.2,Win32,60.24096386,,,,,,,,,,,,,,,,,,,,,,550.9534,552.1028,a,1,[],[],[],[],[],[],[],0.4777,1,552.1028,552.6028,,,,,,642,MAS,AGR,150,grupo,el,l,0.4777,,,,552.6035,552.6039,0.192592593,-0.086111111,0,0,0,,0,218,218,191,1,,,,,
,,,,,,,a6ee218d9bfc9be18838f25b,66a626ef09d4e21e1a8894ec,6734d67ffcbd7fadba31d93c,2024-11-13_17h42.31.551,Tarea de género gramatical,2024.2.2,Win32,60.24096386,,,,,,,,,,,,,,,,,,,,,,552.6043,553.8862,l,0,[],[],[],[],[],[],[],0.6035,0,553.8867,554.3862,,,,,,576,MAS,AGR,150,lazo,el,l,0.6035,,,,554.3862,554.3863,0.192592593,-0.086111111,0,0,0,,0,219,219,125,1,,,,,
,,,,,,,a6ee218d9bfc9be18838f25b,66a626ef09d4e21e1a8894ec,6734d67ffcbd7fadba31d93c,2024-11-13_17h42.31.551,Tarea de género gramatical,2024.2.2,Win32,60.24096386,,,,,,,,,,,,,,,,,,,,,,554.3869,555.5196,a,1,[],[],[],[],[],[],[],0.4599,1,555.5202,556.0197,,,,,,593,MAS,DIS,150,faro,la,l,0.4599,,,,556.0198,556.0198,0.192592593,-0.086111111,0,0,0,,0,220,220,142,1,,,,,
,,,,,,,a6ee218d9bfc9be18838f25b,66a626ef09d4e21e1a8894ec,6734d67ffcbd7fadba31d93c,2024-11-13_17h42.31.551,Tarea de género gramatical,2024.2.2,Win32,60.24096386,,,,,,,,,,,,,,,,,,,,,,556.0206,557.1364,a,1,[],[],[],[],[],[],[],0.4346,1,557.1364,557.6364,,,,,,581,MAS,DIS,150,kilo,la,l,0.4346,,,,557.6365,557.6365,0.192592593,-0.086111111,0,0,0,,0,221,221,130,1,,,,,
,,,,,,,a6ee218d9bfc9be18838f25b,66a626ef09d4e21e1a8894ec,6734d67ffcbd7fadba31d93c,2024-11-13_17h42.31.551,Tarea de género gramatical,2024.2.2,Win32,60.24096386,,,,,,,,,,,,,,,,,,,,,,557.637,558.7198,l,1,[],[],[],[],[],[],[],0.4098,1,558.7199,559.2198,,,,,,613,FEM,CON,150,calle,,a,0.4098,,,,559.2205,559.2209,0.192592593,-0.086111111,0,0,0,,0,222,222,162,1,,,,,
,,,,,,,a6ee218d9bfc9be18838f25b,66a626ef09d4e21e1a8894ec,6734d67ffcbd7fadba31d93c,2024-11-13_17h42.31.551,Tarea de género gramatical,2024.2.2,Win32,60.24096386,,,,,,,,,,,,,,,,,,,,,,559.2212,560.3366,a,1,[],[],[],[],[],[],[],0.4345,1,560.3366,560.8366,,,,,,468,MAS,AGR,150,tren,el,l,0.4345,,,,560.8366,560.8366,0.192592593,-0.086111111,0,0,0,,0,223,223,17,1,,,,,
,,,,,,,a6ee218d9bfc9be18838f25b,66a626ef09d4e21e1a8894ec,6734d67ffcbd7fadba31d93c,2024-11-13_17h42.31.551,Tarea de género gramatical,2024.2.2,Win32,60.24096386,,,,,,,,,,,,,,,,,,,,,,560.8372,561.9533,l,1,[],[],[],[],[],[],[],0.4339,1,561.9534,562.4533,,,,,,781,FEM,CON,150,cárcel,,a,0.4339,,,,562.4533,562.4533,0.192592593,-0.086111111,0,0,0,,0,224,224,330,1,,,,,
,,,,,,,a6ee218d9bfc9be18838f25b,66a626ef09d4e21e1a8894ec,6734d67ffcbd7fadba31d93c,2024-11-13_17h42.31.551,Tarea de género gramatical,2024.2.2,Win32,60.24096386,,,,,,,,,,,,,,,,,,,,,,562.454,563.6534,l,1,[],[],[],[],[],[],[],0.521,1,563.6535,564.1534,,,,,,885,FEM,AGR,150,niebla,la,a,0.521,,,,564.1534,564.1535,0.192592593,-0.086111111,0,0,0,,0,225,225,434,1,,,,,
,,,,,,,a6ee218d9bfc9be18838f25b,66a626ef09d4e21e1a8894ec,6734d67ffcbd7fadba31d93c,2024-11-13_17h42.31.551,Tarea de género gramatical,2024.2.2,Win32,60.24096386,,,,,,,,,,,,,,,,,,,,,,564.1542,565.3536,l,1,[],[],[],[],[],[],[],0.5248,1,565.3536,565.8535,,,,,,812,FEM,DIS,150,fuente,el,a,0.5248,,,,565.8535,565.8536,0.192592593,-0.086111111,0,0,0,,0,226,226,361,1,,,,,
,,,,,,,a6ee218d9bfc9be18838f25b,66a626ef09d4e21e1a8894ec,6734d67ffcbd7fadba31d93c,2024-11-13_17h42.31.551,Tarea de género gramatical,2024.2.2,Win32,60.24096386,,,,,,,,,,,,,,,,,,,,,,565.8542,567.0702,a,1,[],[],[],[],[],[],[],0.5448,1,567.0702,567.5702,,,,,,869,MAS,DIS,150,cuento,la,l,0.5448,,,,567.5709,567.5713,0.192592593,-0.086111111,0,0,0,,0,227,227,418,1,,,,,
,,,,,,,a6ee218d9bfc9be18838f25b,66a626ef09d4e21e1a8894ec,6734d67ffcbd7fadba31d93c,2024-11-13_17h42.31.551,Tarea de género gramatical,2024.2.2,Win32,60.24096386,,,,,,,,,,,,,,,,,,,,,,567.5717,568.9203,a,1,[],[],[],[],[],[],[],0.6762,1,568.9204,569.4203,,,,,,898,MAS,CON,150,aceite,,l,0.6762,,,,569.4204,569.4204,0.192592593,-0.086111111,0,0,0,,0,228,228,447,1,,,,,
,,,,,,,a6ee218d9bfc9be18838f25b,66a626ef09d4e21e1a8894ec,6734d67ffcbd7fadba31d93c,2024-11-13_17h42.31.551,Tarea de género gramatical,2024.2.2,Win32,60.24096386,,,,,,,,,,,,,,,,,,,,,,569.421,570.4704,l,1,[],[],[],[],[],[],[],0.37,1,570.4705,570.9704,,,,,,525,FEM,AGR,150,caza,la,a,0.37,,,,570.9704,570.9705,0.192592593,-0.086111111,0,0,0,,0,229,229,74,1,,,,,
,,,,,,,a6ee218d9bfc9be18838f25b,66a626ef09d4e21e1a8894ec,6734d67ffcbd7fadba31d93c,2024-11-13_17h42.31.551,Tarea de género gramatical,2024.2.2,Win32,60.24096386,,,,,,,,,,,,,,,,,,,,,,570.9711,572.0204,l,1,[],[],[],[],[],[],[],0.372,1,572.0205,572.5205,,,,,,741,FEM,AGR,150,aguja,la,a,0.372,,,,572.5205,572.5205,0.192592593,-0.086111111,0,0,0,,0,230,230,290,1,,,,,
,,,,,,,a6ee218d9bfc9be18838f25b,66a626ef09d4e21e1a8894ec,6734d67ffcbd7fadba31d93c,2024-11-13_17h42.31.551,Tarea de género gramatical,2024.2.2,Win32,60.24096386,,,,,,,,,,,,,,,,,,,,,,572.5211,573.6872,l,1,[],[],[],[],[],[],[],0.4936,1,573.6872,574.1873,,,,,,680,FEM,DIS,150,regla,el,a,0.4936,,,,574.1879,574.1883,0.192592593,-0.086111111,0,0,0,,0,231,231,229,1,,,,,
,,,,,,,a6ee218d9bfc9be18838f25b,66a626ef09d4e21e1a8894ec,6734d67ffcbd7fadba31d93c,2024-11-13_17h42.31.551,Tarea de género gramatical,2024.2.2,Win32,60.24096386,,,,,,,,,,,,,,,,,,,,,,574.1886,575.4207,a,1,[],[],[],[],[],[],[],0.5483,1,575.4207,575.9206,,,,,,538,MAS,CON,150,pavo,,l,0.5483,,,,575.9206,575.9207,0.192592593,-0.086111111,0,0,0,,0,232,232,87,1,,,,,
,,,,,,,a6ee218d9bfc9be18838f25b,66a626ef09d4e21e1a8894ec,6734d67ffcbd7fadba31d93c,2024-11-13_17h42.31.551,Tarea de género gramatical,2024.2.2,Win32,60.24096386,,,,,,,,,,,,,,,,,,,,,,575.9213,576.9873,l,1,[],[],[],[],[],[],[],0.3845,1,576.9874,577.4874,,,,,,663,FEM,AGR,150,magia,la,a,0.3845,,,,577.4874,577.4874,0.192592593,-0.086111111,0,0,0,,0,233,233,212,1,,,,,
,,,,,,,a6ee218d9bfc9be18838f25b,66a626ef09d4e21e1a8894ec,6734d67ffcbd7fadba31d93c,2024-11-13_17h42.31.551,Tarea de género gramatical,2024.2.2,Win32,60.24096386,,,,,,,,,,,,,,,,,,,,,,577.4881,578.6542,l,1,[],[],[],[],[],[],[],0.4868,1,578.6542,579.1541,,,,,,776,FEM,DIS,150,música,el,a,0.4868,,,,579.1541,579.1542,0.192592593,-0.086111111,0,0,0,,0,234,234,325,1,,,,,
,,,,,,,a6ee218d9bfc9be18838f25b,66a626ef09d4e21e1a8894ec,6734d67ffcbd7fadba31d93c,2024-11-13_17h42.31.551,Tarea de género gramatical,2024.2.2,Win32,60.24096386,,,,,,,,,,,,,,,,,,,,,,579.1548,580.3209,a,1,[],[],[],[],[],[],[],0.4843,1,580.321,580.8209,,,,,,653,MAS,DIS,150,novio,la,l,0.4843,,,,580.8209,580.8209,0.192592593,-0.086111111,0,0,0,,0,235,235,202,1,,,,,
,,,,,,,a6ee218d9bfc9be18838f25b,66a626ef09d4e21e1a8894ec,6734d67ffcbd7fadba31d93c,2024-11-13_17h42.31.551,Tarea de género gramatical,2024.2.2,Win32,60.24096386,,,,,,,,,,,,,,,,,,,,,,580.8215,581.9709,a,1,[],[],[],[],[],[],[],0.4664,1,581.971,582.471,,,,,,695,MAS,DIS,150,turno,la,l,0.4664,,,,582.4716,582.472,0.192592593,-0.086111111,0,0,0,,0,236,236,244,1,,,,,
,,,,,,,a6ee218d9bfc9be18838f25b,66a626ef09d4e21e1a8894ec,6734d67ffcbd7fadba31d93c,2024-11-13_17h42.31.551,Tarea de género gramatical,2024.2.2,Win32,60.24096386,,,,,,,,,,,,,,,,,,,,,,582.4723,583.571,a,1,[],[],[],[],[],[],[],0.4159,1,583.5711,584.0711,,,,,,610,MAS,CON,150,señor,,l,0.4159,,,,584.0711,584.0712,0.192592593,-0.086111111,0,0,0,,0,237,237,159,1,,,,,
,,,,,,,a6ee218d9bfc9be18838f25b,66a626ef09d4e21e1a8894ec,6734d67ffcbd7fadba31d93c,2024-11-13_17h42.31.551,Tarea de género gramatical,2024.2.2,Win32,60.24096386,,,,,,,,,,,,,,,,,,,,,,584.0717,585.0711,l,1,[],[],[],[],[],[],[],0.3191,1,585.0712,585.5712,,,,,,673,FEM,CON,150,plata,,a,0.3191,,,,585.5712,585.5712,0.192592593,-0.086111111,0,0,0,,0,238,238,222,1,,,,,
,,,,,,,a6ee218d9bfc9be18838f25b,66a626ef09d4e21e1a8894ec,6734d67ffcbd7fadba31d93c,2024-11-13_17h42.31.551,Tarea de género gramatical,2024.2.2,Win32,60.24096386,,,,,,,,,,,,,,,,,,,,,,585.5718,586.5879,l,1,[],[],[],[],[],[],[],0.339,1,586.588,587.0879,,,,,,691,FEM,CON,150,pasta,,a,0.339,,,,587.0879,587.088,0.192592593,-0.086111111,0,0,0,,0,239,239,240,1,,,,,
,,,,,,,a6ee218d9bfc9be18838f25b,66a626ef09d4e21e1a8894ec,6734d67ffcbd7fadba31d93c,2024-11-13_17h42.31.551,Tarea de género gramatical,2024.2.2,Win32,60.24096386,,,,,,,,,,,,,,,,,,,,,,587.0885,588.1379,a,1,[],[],[],[],[],[],[],0.3744,1,588.1381,588.638,,,,,,455,MAS,DIS,150,tipo,la,l,0.3744,,,,588.6387,588.6391,0.192592593,-0.086111111,0,0,0,,0,240,240,4,1,,,,,
,,,,,,,a6ee218d9bfc9be18838f25b,66a626ef09d4e21e1a8894ec,6734d67ffcbd7fadba31d93c,2024-11-13_17h42.31.551,Tarea de género gramatical,2024.2.2,Win32,60.24096386,,,,,,,,,,,,,,,,,,,,,,588.6394,590.3214,a,1,[],[],[],[],[],[],[],1.0083,1,590.3214,590.8214,,,,,,503,MAS,DIS,150,vaso,la,l,1.0083,,,,590.8214,590.8215,0.192592593,-0.086111111,0,0,0,,0,241,241,52,1,,,,,
,,,,,,,a6ee218d9bfc9be18838f25b,66a626ef09d4e21e1a8894ec,6734d67ffcbd7fadba31d93c,2024-11-13_17h42.31.551,Tarea de género gramatical,2024.2.2,Win32,60.24096386,,,,,,,,,,,,,,,,,,,,,,590.8221,591.8715,a,1,[],[],[],[],[],[],[],0.369,1,591.8715,592.3715,,,,,,786,MAS,AGR,150,crimen,el,l,0.369,,,,592.3715,592.3716,0.192592593,-0.086111111,0,0,0,,0,242,242,335,1,,,,,
,,,,,,,a6ee218d9bfc9be18838f25b,66a626ef09d4e21e1a8894ec,6734d67ffcbd7fadba31d93c,2024-11-13_17h42.31.551,Tarea de género gramatical,2024.2.2,Win32,60.24096386,,,,,,,,,,,,,,,,,,,,,,592.3721,593.6215,l,1,[],[],[],[],[],[],[],0.5718,1,593.6216,594.1216,,,,,,829,FEM,CON,150,granja,,a,0.5718,,,,594.1216,594.1216,0.192592593,-0.086111111,0,0,0,,0,243,243,378,1,,,,,
,,,,,,,a6ee218d9bfc9be18838f25b,66a626ef09d4e21e1a8894ec,6734d67ffcbd7fadba31d93c,2024-11-13_17h42.31.551,Tarea de género gramatical,2024.2.2,Win32,60.24096386,,,,,,,,,,,,,,,,,,,,,,594.1223,595.4216,a,1,[],[],[],[],[],[],[],0.6296,1,595.4217,595.9217,,,,,,846,MAS,AGR,150,tesoro,el,l,0.6296,,,,595.9217,595.9217,0.192592593,-0.086111111,0,0,0,,0,244,244,395,1,,,,,
,,,,,,,a6ee218d9bfc9be18838f25b,66a626ef09d4e21e1a8894ec,6734d67ffcbd7fadba31d93c,2024-11-13_17h42.31.551,Tarea de género gramatical,2024.2.2,Win32,60.24096386,,,,,,,,,,,,,,,,,,,,,,595.9223,597.1217,a,1,[],[],[],[],[],[],[],0.5247,1,597.1217,597.6217,,,,,,684,MAS,AGR,150,héroe,el,l,0.5247,,,,597.6223,597.6227,0.192592593,-0.086111111,0,0,0,,0,245,245,233,1,,,,,
,,,,,,,a6ee218d9bfc9be18838f25b,66a626ef09d4e21e1a8894ec,6734d67ffcbd7fadba31d93c,2024-11-13_17h42.31.551,Tarea de género gramatical,2024.2.2,Win32,60.24096386,,,,,,,,,,,,,,,,,,,,,,597.6231,598.6718,l,1,[],[],[],[],[],[],[],0.3765,1,598.6719,599.1718,,,,,,740,FEM,DIS,150,cabra,el,a,0.3765,,,,599.1719,599.1719,0.192592593,-0.086111111,0,0,0,,0,246,246,289,1,,,,,
,,,,,,,a6ee218d9bfc9be18838f25b,66a626ef09d4e21e1a8894ec,6734d67ffcbd7fadba31d93c,2024-11-13_17h42.31.551,Tarea de género gramatical,2024.2.2,Win32,60.24096386,,,,,,,,,,,,,,,,,,,,,,599.1725,600.2719,a,1,[],[],[],[],[],[],[],0.4183,1,600.272,600.7719,,,,,,604,MAS,CON,150,padre,,l,0.4183,,,,600.7719,600.7719,0.192592593,-0.086111111,0,0,0,,0,247,247,153,1,,,,,
,,,,,,,a6ee218d9bfc9be18838f25b,66a626ef09d4e21e1a8894ec,6734d67ffcbd7fadba31d93c,2024-11-13_17h42.31.551,Tarea de género gramatical,2024.2.2,Win32,60.24096386,,,,,,,,,,,,,,,,,,,,,,600.7726,601.8053,l,1,[],[],[],[],[],[],[],0.3622,1,601.8054,602.3053,,,,,,531,FEM,AGR,150,cima,la,a,0.3622,,,,602.3053,602.3054,0.192592593,-0.086111111,0,0,0,,0,248,248,80,1,,,,,
