counterbalancing_condition,consent_prescreening.block_1/declare_consent,consent_prescreening.block_1/age_years,consent_prescreening.block_1/gender,consent_prescreening.block_1/language_disorder,consent_prescreening.block_1/first_language,consent_prescreening.block_1/first_language-Comment,PROLIFIC_PID,STUDY_ID,SESSION_ID,date,expName,psychopyVersion,OS,frameRate,check_prescreening_answers.started,check_prescreening_answers.stopped,Instructions.started,Instructions.stopped,instr_done_keyboard.keys,instr_done_keyboard.rt,instr_done_keyboard.duration,instr_done_touch.x,instr_done_touch.y,instr_done_touch.leftButton,instr_done_touch.midButton,instr_done_touch.rightButton,instruction_pages.thisRepN,instruction_pages.thisTrialN,instruction_pages.thisN,instruction_pages.thisIndex,instruction_pages.ran,pageN,phase,instruct_text,has_image,instruct_image,presentTrial.started,presentTrial.stopped,response.keys,response.corr,response.rt,response.duration,touch_resp.x,touch_resp.y,touch_resp.leftButton,touch_resp.midButton,touch_resp.rightButton,touch_resp.time,touch_resp.clicked_name,rt,corr,feedback.started,feedback.stopped,practice_trials.thisRepN,practice_trials.thisTrialN,practice_trials.thisN,practice_trials.thisIndex,practice_trials.ran,TrialID,StimulusType,Condition,PrimeDuration,Prime,Flanker,corrAns,Break.started,Break.stopped,break_done_touch.x,break_done_touch.y,break_done_touch.leftButton,break_done_touch.midButton,break_done_touch.rightButton,break_done_keyboard.keys,experiment_trials.thisRepN,experiment_trials.thisTrialN,experiment_trials.thisN,experiment_trials.thisIndex,experiment_trials.ran,break_done_keyboard.rt,break_done_keyboard.duration,End.started,End.stopped
0,"[""over_18"",""comfortable"",""read_info"",""consent_given""]",34,F,"[""none""]","[""spanish"",""other""]",catalán,a752ad6491057f7ec94b015d,66a626ef09d4e21e1a8894ec,6734d69484a5ae49314db9ee,2024-11-13_17h41.03.664,Tarea de género gramatical,2024.2.2,MacIntel,60.24096386,,,,,,,,,,,,,,,,,,,,,,,,,,,,,,,,,,,,,,,,,,,,,,,,,,,,,,,,,,,,,,,,,,,,
,,,,,,,a752ad6491057f7ec94b015d,66a626ef09d4e21e1a8894ec,6734d69484a5ae49314db9ee,2024-11-13_17h41.03.664,Tarea de género gramatical,2024.2.2,MacIntel,60.24096386,19.8865,19.8867,,,,,,,,,,,,,,,,,,,,,,,,,,,,,,,,,,,,,,,,,,,,,,,,,,,,,,,,,,,,,,,,,,
,,,,,,,a752ad6491057f7ec94b015d,66a626ef09d4e21e1a8894ec,6734d69484a5ae49314db9ee,2024-11-13_17h41.03.664,Tarea de género gramatical,2024.2.2,MacIntel,60.24096386,,,19.9078,29.9575,space,10.0091,,-0.011131973,-0.392351294,0,0,0,0,0,0,0,1,1,instructions,"INSTRUCCIONES
Va a realizar una prueba de selección gramatical. Desde el comienzo de la prueba mire siempre al centro de la pantalla. Al cabo de un momento, aparecerán palabras. La tarea consiste en determinar si la palabra del centro (siempre será un sustantivo), pertenece al género masculino o femenino.

Pulse la tecla ESPACIO o toque el botón de abajo para continuar.",0,keyboardresponseFM.png,,,,,,,,,,,,,,,,,,,,,,,,,,,,,,,,,,,,,,,,,,,,,,
,,,,,,,a752ad6491057f7ec94b015d,66a626ef09d4e21e1a8894ec,6734d69484a5ae49314db9ee,2024-11-13_17h41.03.664,Tarea de género gramatical,2024.2.2,MacIntel,60.24096386,,,29.9595,38.4769,space,8.4573,,-0.011131973,-0.392351294,0,0,0,0,1,1,1,1,2,instructions,"Si su dispositivo tiene teclado, pulse la tecla ""A"" para las palabras en femenino (por ejemplo: ""mano"") y la tecla ""L"" para las palabras en masculino(por ejemplo: ""arroz"").
Pulse la tecla ESPACIO o toque el botón de abajo para continuar.",1,keyboardresponseFM.png,,,,,,,,,,,,,,,,,,,,,,,,,,,,,,,,,,,,,,,,,,,,,,
,,,,,,,a752ad6491057f7ec94b015d,66a626ef09d4e21e1a8894ec,6734d69484a5ae49314db9ee,2024-11-13_17h41.03.664,Tarea de género gramatical,2024.2.2,MacIntel,60.24096386,,,38.4786,42.1775,space,3.6565,,-0.011131973,-0.392351294,0,0,0,0,2,2,2,1,3,instructions,"Si utiliza un dispositivo sólo táctil, colóquelo en horizontal y utilice los botones de la pantalla. No utilice el ratón.
Pulse la tecla ESPACIO o toque el botón de abajo para continuar.",2,touchresponseFM.png,,,,,,,,,,,,,,,,,,,,,,,,,,,,,,,,,,,,,,,,,,,,,,
,,,,,,,a752ad6491057f7ec94b015d,66a626ef09d4e21e1a8894ec,6734d69484a5ae49314db9ee,2024-11-13_17h41.03.664,Tarea de género gramatical,2024.2.2,MacIntel,60.24096386,,,42.1796,44.5116,space,2.3151,,-0.011131973,-0.392351294,0,0,0,0,3,3,3,1,4,instructions,"Es muy importante que responda con la mayor rapidez y precisión posibles, ya que cada cadena de letras sólo estará en pantalla durante un instante. Si no responde en ese tiempo, aparecerá el mensaje ""Muy lento"" y el experimento pasará a la siguiente palabra. Los primeros 15 intentos serán de práctica y habrá dos descansos durante la prueba.
Pulse la tecla ESPACIO o toque el botón de abajo para iniciar la parte de práctica.",0,keyboardresponseFM.png,,,,,,,,,,,,,,,,,,,,,,,,,,,,,,,,,,,,,,,,,,,,,,
,,,,,,,a752ad6491057f7ec94b015d,66a626ef09d4e21e1a8894ec,6734d69484a5ae49314db9ee,2024-11-13_17h41.03.664,Tarea de género gramatical,2024.2.2,MacIntel,60.24096386,,,,,,,,,,,,,,,,,,,,,,,44.5296,45.9957,l,1,0.7841,,[],[],[],[],[],[],[],0.7841,1,45.9959,46.4951,0,0,0,12,1,2013,MAS,AGR,150,acero,el,l,,,,,,,,,,,,,,,,,
,,,,,,,a752ad6491057f7ec94b015d,66a626ef09d4e21e1a8894ec,6734d69484a5ae49314db9ee,2024-11-13_17h41.03.664,Tarea de género gramatical,2024.2.2,MacIntel,60.24096386,,,,,,,,,,,,,,,,,,,,,,,46.496,47.513,l,1,0.3507,,[],[],[],[],[],[],[],0.3507,1,47.5132,48.0123,0,1,1,13,1,2014,MAS,CON,150,siglo,,l,,,,,,,,,,,,,,,,,
,,,,,,,a752ad6491057f7ec94b015d,66a626ef09d4e21e1a8894ec,6734d69484a5ae49314db9ee,2024-11-13_17h41.03.664,Tarea de género gramatical,2024.2.2,MacIntel,60.24096386,,,,,,,,,,,,,,,,,,,,,,,48.0135,49.1137,a,1,0.4339,,[],[],[],[],[],[],[],0.4339,1,49.1139,49.6131,0,2,2,6,1,2007,FEM,AGR,150,navaja,la,a,,,,,,,,,,,,,,,,,
,,,,,,,a752ad6491057f7ec94b015d,66a626ef09d4e21e1a8894ec,6734d69484a5ae49314db9ee,2024-11-13_17h41.03.664,Tarea de género gramatical,2024.2.2,MacIntel,60.24096386,,,,,,,,,,,,,,,,,,,,,,,49.6146,50.731,l,0,0.4375,,[],[],[],[],[],[],[],0.4375,0,50.732,51.23,0,3,3,1,1,2002,FEM,CON,150,pala,,a,,,,,,,,,,,,,,,,,
,,,,,,,a752ad6491057f7ec94b015d,66a626ef09d4e21e1a8894ec,6734d69484a5ae49314db9ee,2024-11-13_17h41.03.664,Tarea de género gramatical,2024.2.2,MacIntel,60.24096386,,,,,,,,,,,,,,,,,,,,,,,51.2309,52.3816,l,0,0.4686,,[],[],[],[],[],[],[],0.4686,0,52.3816,52.8817,0,4,4,4,1,2005,FEM,CON,150,placa,,a,,,,,,,,,,,,,,,,,
,,,,,,,a752ad6491057f7ec94b015d,66a626ef09d4e21e1a8894ec,6734d69484a5ae49314db9ee,2024-11-13_17h41.03.664,Tarea de género gramatical,2024.2.2,MacIntel,60.24096386,,,,,,,,,,,,,,,,,,,,,,,52.8825,54.1988,l,0,0.6325,,[],[],[],[],[],[],[],0.6325,0,54.1989,54.6988,0,5,5,2,1,2003,FEM,DIS,150,daga,el,a,,,,,,,,,,,,,,,,,
,,,,,,,a752ad6491057f7ec94b015d,66a626ef09d4e21e1a8894ec,6734d69484a5ae49314db9ee,2024-11-13_17h41.03.664,Tarea de género gramatical,2024.2.2,MacIntel,60.24096386,,,,,,,,,,,,,,,,,,,,,,,54.6997,56.016,l,1,0.6493,,[],[],[],[],[],[],[],0.6493,1,56.017,56.5152,0,6,6,9,1,2010,MAS,AGR,150,vecino,el,l,,,,,,,,,,,,,,,,,
,,,,,,,a752ad6491057f7ec94b015d,66a626ef09d4e21e1a8894ec,6734d69484a5ae49314db9ee,2024-11-13_17h41.03.664,Tarea de género gramatical,2024.2.2,MacIntel,60.24096386,,,,,,,,,,,,,,,,,,,,,,,56.5161,57.6833,a,0,0.5043,,[],[],[],[],[],[],[],0.5043,0,57.6841,58.1827,0,7,7,8,1,2009,MAS,DIS,150,puerto,la,l,,,,,,,,,,,,,,,,,
,,,,,,,a752ad6491057f7ec94b015d,66a626ef09d4e21e1a8894ec,6734d69484a5ae49314db9ee,2024-11-13_17h41.03.664,Tarea de género gramatical,2024.2.2,MacIntel,60.24096386,,,,,,,,,,,,,,,,,,,,,,,58.1836,59.6339,l,1,0.7668,,[],[],[],[],[],[],[],0.7668,1,59.6349,60.1331,0,8,8,10,1,2011,MAS,CON,150,canal,,l,,,,,,,,,,,,,,,,,
,,,,,,,a752ad6491057f7ec94b015d,66a626ef09d4e21e1a8894ec,6734d69484a5ae49314db9ee,2024-11-13_17h41.03.664,Tarea de género gramatical,2024.2.2,MacIntel,60.24096386,,,,,,,,,,,,,,,,,,,,,,,60.1339,61.3345,l,0,0.5165,,[],[],[],[],[],[],[],0.5165,0,61.3355,61.834,0,9,9,5,1,2006,FEM,DIS,150,serie,el,a,,,,,,,,,,,,,,,,,
,,,,,,,a752ad6491057f7ec94b015d,66a626ef09d4e21e1a8894ec,6734d69484a5ae49314db9ee,2024-11-13_17h41.03.664,Tarea de género gramatical,2024.2.2,MacIntel,60.24096386,,,,,,,,,,,,,,,,,,,,,,,61.8349,63.502,l,1,0.9833,,[],[],[],[],[],[],[],0.9833,1,63.503,64.0019,0,10,10,14,1,2015,MAS,DIS,150,robot,la,l,,,,,,,,,,,,,,,,,
,,,,,,,a752ad6491057f7ec94b015d,66a626ef09d4e21e1a8894ec,6734d69484a5ae49314db9ee,2024-11-13_17h41.03.664,Tarea de género gramatical,2024.2.2,MacIntel,60.24096386,,,,,,,,,,,,,,,,,,,,,,,64.003,65.3851,a,1,0.7061,,[],[],[],[],[],[],[],0.7061,1,65.3853,65.8858,0,11,11,0,1,2001,FEM,AGR,150,nuca,la,a,,,,,,,,,,,,,,,,,
,,,,,,,a752ad6491057f7ec94b015d,66a626ef09d4e21e1a8894ec,6734d69484a5ae49314db9ee,2024-11-13_17h41.03.664,Tarea de género gramatical,2024.2.2,MacIntel,60.24096386,,,,,,,,,,,,,,,,,,,,,,,65.8867,67.1686,a,1,0.607,,[],[],[],[],[],[],[],0.607,1,67.1686,67.6695,0,12,12,7,1,2008,FEM,CON,150,siesta,,a,,,,,,,,,,,,,,,,,
,,,,,,,a752ad6491057f7ec94b015d,66a626ef09d4e21e1a8894ec,6734d69484a5ae49314db9ee,2024-11-13_17h41.03.664,Tarea de género gramatical,2024.2.2,MacIntel,60.24096386,,,,,,,,,,,,,,,,,,,,,,,67.6705,69.2862,l,1,0.9354,,[],[],[],[],[],[],[],0.9354,1,69.2863,69.7869,0,13,13,11,1,2012,MAS,DIS,150,clima,la,l,,,,,,,,,,,,,,,,,
,,,,,,,a752ad6491057f7ec94b015d,66a626ef09d4e21e1a8894ec,6734d69484a5ae49314db9ee,2024-11-13_17h41.03.664,Tarea de género gramatical,2024.2.2,MacIntel,60.24096386,,,,,,,,,,,,,,,,,,,,,,,69.7878,71.0366,l,0,0.5681,,[],[],[],[],[],[],[],0.5681,0,71.0373,71.537,0,14,14,3,1,2004,FEM,AGR,150,venta,la,a,,,,,,,,,,,,,,,,,
,,,,,,,a752ad6491057f7ec94b015d,66a626ef09d4e21e1a8894ec,6734d69484a5ae49314db9ee,2024-11-13_17h41.03.664,Tarea de género gramatical,2024.2.2,MacIntel,60.24096386,,,74.7992,80.2067,space,5.3849,,-0.011131973,-0.392351294,0,0,0,,,,,,,,,,,80.2518,81.7238,l,1,0.8032,,[],[],[],[],[],[],[],0.8032,1,81.7248,82.224,,,,,,76,MAS,AGR,150,lujo,el,l,82.2242,82.2259,-0.011131973,-0.392351294,0,0,0,,0,0,0,75,1,,,,
,,,,,,,a752ad6491057f7ec94b015d,66a626ef09d4e21e1a8894ec,6734d69484a5ae49314db9ee,2024-11-13_17h41.03.664,Tarea de género gramatical,2024.2.2,MacIntel,60.24096386,,,,,,,,,,,,,,,,,,,,,,,82.2265,83.4246,a,1,0.5174,,[],[],[],[],[],[],[],0.5174,1,83.4247,83.9248,,,,,,140,FEM,CON,150,mula,,a,83.9248,83.925,-0.011131973,-0.392351294,0,0,0,,0,1,1,139,1,,,,
,,,,,,,a752ad6491057f7ec94b015d,66a626ef09d4e21e1a8894ec,6734d69484a5ae49314db9ee,2024-11-13_17h41.03.664,Tarea de género gramatical,2024.2.2,MacIntel,60.24096386,,,,,,,,,,,,,,,,,,,,,,,83.9259,85.1582,l,1,0.5505,,[],[],[],[],[],[],[],0.5505,1,85.1583,85.6586,,,,,,137,MAS,CON,150,coco,,l,85.6597,85.6603,-0.011131973,-0.392351294,0,0,0,,0,2,2,136,1,,,,
,,,,,,,a752ad6491057f7ec94b015d,66a626ef09d4e21e1a8894ec,6734d69484a5ae49314db9ee,2024-11-13_17h41.03.664,Tarea de género gramatical,2024.2.2,MacIntel,60.24096386,,,,,,,,,,,,,,,,,,,,,,,85.6609,87.2425,l,1,0.9057,,[],[],[],[],[],[],[],0.9057,1,87.2426,87.743,,,,,,162,MAS,DIS,150,miedo,la,l,87.7431,87.7431,-0.011131973,-0.392351294,0,0,0,,0,3,3,161,1,,,,
,,,,,,,a752ad6491057f7ec94b015d,66a626ef09d4e21e1a8894ec,6734d69484a5ae49314db9ee,2024-11-13_17h41.03.664,Tarea de género gramatical,2024.2.2,MacIntel,60.24096386,,,,,,,,,,,,,,,,,,,,,,,87.7442,89.1768,a,1,0.7624,,[],[],[],[],[],[],[],0.7624,1,89.1768,89.6765,,,,,,423,FEM,DIS,150,poesía,el,a,89.6765,89.6766,-0.011131973,-0.392351294,0,0,0,,0,4,4,422,1,,,,
,,,,,,,a752ad6491057f7ec94b015d,66a626ef09d4e21e1a8894ec,6734d69484a5ae49314db9ee,2024-11-13_17h41.03.664,Tarea de género gramatical,2024.2.2,MacIntel,60.24096386,,,,,,,,,,,,,,,,,,,,,,,89.6775,90.8777,l,1,0.5339,,[],[],[],[],[],[],[],0.5339,1,90.8778,91.3778,,,,,,65,MAS,CON,150,rayo,,l,91.3779,91.3779,-0.011131973,-0.392351294,0,0,0,,0,5,5,64,1,,,,
,,,,,,,a752ad6491057f7ec94b015d,66a626ef09d4e21e1a8894ec,6734d69484a5ae49314db9ee,2024-11-13_17h41.03.664,Tarea de género gramatical,2024.2.2,MacIntel,60.24096386,,,,,,,,,,,,,,,,,,,,,,,91.3788,92.4946,a,1,0.4335,,[],[],[],[],[],[],[],0.4335,1,92.4946,92.9951,,,,,,20,FEM,CON,150,ropa,,a,92.9961,92.9967,-0.011131973,-0.392351294,0,0,0,,0,6,6,19,1,,,,
,,,,,,,a752ad6491057f7ec94b015d,66a626ef09d4e21e1a8894ec,6734d69484a5ae49314db9ee,2024-11-13_17h41.03.664,Tarea de género gramatical,2024.2.2,MacIntel,60.24096386,,,,,,,,,,,,,,,,,,,,,,,92.9973,94.179,a,1,0.5051,,[],[],[],[],[],[],[],0.5051,1,94.179,94.6787,,,,,,15,FEM,DIS,150,cama,el,a,94.6788,94.6789,-0.011131973,-0.392351294,0,0,0,,0,7,7,14,1,,,,
,,,,,,,a752ad6491057f7ec94b015d,66a626ef09d4e21e1a8894ec,6734d69484a5ae49314db9ee,2024-11-13_17h41.03.664,Tarea de género gramatical,2024.2.2,MacIntel,60.24096386,,,,,,,,,,,,,,,,,,,,,,,94.6797,95.8789,a,1,0.5178,,[],[],[],[],[],[],[],0.5178,1,95.879,96.3795,,,,,,134,FEM,CON,150,rama,,a,96.3796,96.3797,-0.011131973,-0.392351294,0,0,0,,0,8,8,133,1,,,,
,,,,,,,a752ad6491057f7ec94b015d,66a626ef09d4e21e1a8894ec,6734d69484a5ae49314db9ee,2024-11-13_17h41.03.664,Tarea de género gramatical,2024.2.2,MacIntel,60.24096386,,,,,,,,,,,,,,,,,,,,,,,96.3805,97.5292,l,1,0.4689,,[],[],[],[],[],[],[],0.4689,1,97.5293,98.0301,,,,,,106,MAS,AGR,150,test,el,l,98.0303,98.0303,-0.011131973,-0.392351294,0,0,0,,0,9,9,105,1,,,,
,,,,,,,a752ad6491057f7ec94b015d,66a626ef09d4e21e1a8894ec,6734d69484a5ae49314db9ee,2024-11-13_17h41.03.664,Tarea de género gramatical,2024.2.2,MacIntel,60.24096386,,,,,,,,,,,,,,,,,,,,,,,98.0313,99.2139,l,1,0.4993,,[],[],[],[],[],[],[],0.4993,1,99.214,99.7136,,,,,,30,MAS,DIS,150,cine,la,l,99.7137,99.7138,-0.011131973,-0.392351294,0,0,0,,0,10,10,29,1,,,,
,,,,,,,a752ad6491057f7ec94b015d,66a626ef09d4e21e1a8894ec,6734d69484a5ae49314db9ee,2024-11-13_17h41.03.664,Tarea de género gramatical,2024.2.2,MacIntel,60.24096386,,,,,,,,,,,,,,,,,,,,,,,99.7147,100.781,a,1,0.3832,,[],[],[],[],[],[],[],0.3832,1,100.7812,101.2809,,,,,,241,FEM,AGR,150,pasta,la,a,101.2819,101.2827,-0.011131973,-0.392351294,0,0,0,,0,11,11,240,1,,,,
,,,,,,,a752ad6491057f7ec94b015d,66a626ef09d4e21e1a8894ec,6734d69484a5ae49314db9ee,2024-11-13_17h41.03.664,Tarea de género gramatical,2024.2.2,MacIntel,60.24096386,,,,,,,,,,,,,,,,,,,,,,,101.2834,102.4651,a,1,0.4997,,[],[],[],[],[],[],[],0.4997,1,102.4652,102.9651,,,,,,158,FEM,CON,150,chica,,a,102.9651,102.9652,-0.011131973,-0.392351294,0,0,0,,0,12,12,157,1,,,,
,,,,,,,a752ad6491057f7ec94b015d,66a626ef09d4e21e1a8894ec,6734d69484a5ae49314db9ee,2024-11-13_17h41.03.664,Tarea de género gramatical,2024.2.2,MacIntel,60.24096386,,,,,,,,,,,,,,,,,,,,,,,102.9661,104.1814,a,0,0.5348,,[],[],[],[],[],[],[],0.5348,0,104.1824,104.6823,,,,,,210,MAS,DIS,150,baile,la,l,104.6824,104.6825,-0.011131973,-0.392351294,0,0,0,,0,13,13,209,1,,,,
,,,,,,,a752ad6491057f7ec94b015d,66a626ef09d4e21e1a8894ec,6734d69484a5ae49314db9ee,2024-11-13_17h41.03.664,Tarea de género gramatical,2024.2.2,MacIntel,60.24096386,,,,,,,,,,,,,,,,,,,,,,,104.6833,105.9985,a,0,0.635,,[],[],[],[],[],[],[],0.635,0,105.9986,106.4997,,,,,,72,MAS,DIS,150,hoyo,la,l,106.4997,106.4998,-0.011131973,-0.392351294,0,0,0,,0,14,14,71,1,,,,
,,,,,,,a752ad6491057f7ec94b015d,66a626ef09d4e21e1a8894ec,6734d69484a5ae49314db9ee,2024-11-13_17h41.03.664,Tarea de género gramatical,2024.2.2,MacIntel,60.24096386,,,,,,,,,,,,,,,,,,,,,,,106.5008,108.0335,a,1,0.8505,,[],[],[],[],[],[],[],0.8505,1,108.0343,108.5329,,,,,,99,FEM,DIS,150,fase,el,a,108.5339,108.5346,-0.011131973,-0.392351294,0,0,0,,0,15,15,98,1,,,,
,,,,,,,a752ad6491057f7ec94b015d,66a626ef09d4e21e1a8894ec,6734d69484a5ae49314db9ee,2024-11-13_17h41.03.664,Tarea de género gramatical,2024.2.2,MacIntel,60.24096386,,,,,,,,,,,,,,,,,,,,,,,108.5354,109.7832,l,1,0.5676,,[],[],[],[],[],[],[],0.5676,1,109.7833,110.2841,,,,,,227,MAS,CON,150,vuelo,,l,110.2843,110.2843,-0.011131973,-0.392351294,0,0,0,,0,16,16,226,1,,,,
,,,,,,,a752ad6491057f7ec94b015d,66a626ef09d4e21e1a8894ec,6734d69484a5ae49314db9ee,2024-11-13_17h41.03.664,Tarea de género gramatical,2024.2.2,MacIntel,60.24096386,,,,,,,,,,,,,,,,,,,,,,,110.2852,111.3505,a,1,0.3847,,[],[],[],[],[],[],[],0.3847,1,111.3507,111.8504,,,,,,446,FEM,CON,150,bañera,,a,111.8504,111.8505,-0.011131973,-0.392351294,0,0,0,,0,17,17,445,1,,,,
,,,,,,,a752ad6491057f7ec94b015d,66a626ef09d4e21e1a8894ec,6734d69484a5ae49314db9ee,2024-11-13_17h41.03.664,Tarea de género gramatical,2024.2.2,MacIntel,60.24096386,,,,,,,,,,,,,,,,,,,,,,,111.8514,113.1844,a,1,0.6738,,[],[],[],[],[],[],[],0.6738,1,113.1844,113.6843,,,,,,67,FEM,AGR,150,miel,la,a,113.6843,113.6844,-0.011131973,-0.392351294,0,0,0,,0,18,18,66,1,,,,
,,,,,,,a752ad6491057f7ec94b015d,66a626ef09d4e21e1a8894ec,6734d69484a5ae49314db9ee,2024-11-13_17h41.03.664,Tarea de género gramatical,2024.2.2,MacIntel,60.24096386,,,,,,,,,,,,,,,,,,,,,,,113.6852,114.8024,l,1,0.4341,,[],[],[],[],[],[],[],0.4341,1,114.8025,115.3016,,,,,,395,MAS,CON,150,correo,,l,115.3017,115.3018,-0.011131973,-0.392351294,0,0,0,,0,19,19,394,1,,,,
,,,,,,,a752ad6491057f7ec94b015d,66a626ef09d4e21e1a8894ec,6734d69484a5ae49314db9ee,2024-11-13_17h41.03.664,Tarea de género gramatical,2024.2.2,MacIntel,60.24096386,,,,,,,,,,,,,,,,,,,,,,,115.3027,116.5689,a,1,0.5839,,[],[],[],[],[],[],[],0.5839,1,116.569,117.069,,,,,,206,FEM,CON,150,época,,a,117.0701,117.0708,-0.011131973,-0.392351294,0,0,0,,0,20,20,205,1,,,,
,,,,,,,a752ad6491057f7ec94b015d,66a626ef09d4e21e1a8894ec,6734d69484a5ae49314db9ee,2024-11-13_17h41.03.664,Tarea de género gramatical,2024.2.2,MacIntel,60.24096386,,,,,,,,,,,,,,,,,,,,,,,117.0714,118.2702,l,0,0.5171,,[],[],[],[],[],[],[],0.5171,0,118.2711,118.7694,,,,,,260,FEM,CON,150,barra,,a,118.7695,118.7696,-0.011131973,-0.392351294,0,0,0,,0,21,21,259,1,,,,
,,,,,,,a752ad6491057f7ec94b015d,66a626ef09d4e21e1a8894ec,6734d69484a5ae49314db9ee,2024-11-13_17h41.03.664,Tarea de género gramatical,2024.2.2,MacIntel,60.24096386,,,,,,,,,,,,,,,,,,,,,,,118.7706,120.2366,l,0,0.7835,,[],[],[],[],[],[],[],0.7835,0,120.2367,120.7374,,,,,,375,FEM,DIS,150,cadena,el,a,120.7375,120.7375,-0.011131973,-0.392351294,0,0,0,,0,22,22,374,1,,,,
,,,,,,,a752ad6491057f7ec94b015d,66a626ef09d4e21e1a8894ec,6734d69484a5ae49314db9ee,2024-11-13_17h41.03.664,Tarea de género gramatical,2024.2.2,MacIntel,60.24096386,,,,,,,,,,,,,,,,,,,,,,,120.7383,122.4551,a,1,1.0344,,[],[],[],[],[],[],[],1.0344,1,122.4557,122.9549,,,,,,284,FEM,CON,150,fruta,,a,122.9549,122.955,-0.011131973,-0.392351294,0,0,0,,0,23,23,283,1,,,,
,,,,,,,a752ad6491057f7ec94b015d,66a626ef09d4e21e1a8894ec,6734d69484a5ae49314db9ee,2024-11-13_17h41.03.664,Tarea de género gramatical,2024.2.2,MacIntel,60.24096386,,,,,,,,,,,,,,,,,,,,,,,122.9559,124.1213,l,1,0.4838,,[],[],[],[],[],[],[],0.4838,1,124.1213,124.6215,,,,,,359,MAS,CON,150,bosque,,l,124.6225,124.6231,-0.011131973,-0.392351294,0,0,0,,0,24,24,358,1,,,,
,,,,,,,a752ad6491057f7ec94b015d,66a626ef09d4e21e1a8894ec,6734d69484a5ae49314db9ee,2024-11-13_17h41.03.664,Tarea de género gramatical,2024.2.2,MacIntel,60.24096386,,,,,,,,,,,,,,,,,,,,,,,124.6236,126.0219,a,1,0.7178,,[],[],[],[],[],[],[],0.7178,1,126.022,126.5219,,,,,,31,FEM,AGR,150,edad,la,a,126.522,126.522,-0.011131973,-0.392351294,0,0,0,,0,25,25,30,1,,,,
,,,,,,,a752ad6491057f7ec94b015d,66a626ef09d4e21e1a8894ec,6734d69484a5ae49314db9ee,2024-11-13_17h41.03.664,Tarea de género gramatical,2024.2.2,MacIntel,60.24096386,,,,,,,,,,,,,,,,,,,,,,,126.5228,127.723,a,1,0.5342,,[],[],[],[],[],[],[],0.5342,1,127.723,128.2231,,,,,,129,FEM,DIS,150,rana,el,a,128.2231,128.2231,-0.011131973,-0.392351294,0,0,0,,0,26,26,128,1,,,,
,,,,,,,a752ad6491057f7ec94b015d,66a626ef09d4e21e1a8894ec,6734d69484a5ae49314db9ee,2024-11-13_17h41.03.664,Tarea de género gramatical,2024.2.2,MacIntel,60.24096386,,,,,,,,,,,,,,,,,,,,,,,128.224,129.3735,l,1,0.4675,,[],[],[],[],[],[],[],0.4675,1,129.3736,129.8736,,,,,,107,MAS,CON,150,cubo,,l,129.8736,129.8736,-0.011131973,-0.392351294,0,0,0,,0,27,27,106,1,,,,
,,,,,,,a752ad6491057f7ec94b015d,66a626ef09d4e21e1a8894ec,6734d69484a5ae49314db9ee,2024-11-13_17h41.03.664,Tarea de género gramatical,2024.2.2,MacIntel,60.24096386,,,,,,,,,,,,,,,,,,,,,,,129.8745,131.0575,l,1,0.5002,,[],[],[],[],[],[],[],0.5002,1,131.0575,131.5577,,,,,,437,MAS,CON,150,hombro,,l,131.5578,131.5579,-0.011131973,-0.392351294,0,0,0,,0,28,28,436,1,,,,
,,,,,,,a752ad6491057f7ec94b015d,66a626ef09d4e21e1a8894ec,6734d69484a5ae49314db9ee,2024-11-13_17h41.03.664,Tarea de género gramatical,2024.2.2,MacIntel,60.24096386,,,,,,,,,,,,,,,,,,,,,,,131.5588,132.6418,l,1,0.4005,,[],[],[],[],[],[],[],0.4005,1,132.6418,133.1408,,,,,,82,MAS,AGR,150,tubo,el,l,133.142,133.1426,-0.011131973,-0.392351294,0,0,0,,0,29,29,81,1,,,,
,,,,,,,a752ad6491057f7ec94b015d,66a626ef09d4e21e1a8894ec,6734d69484a5ae49314db9ee,2024-11-13_17h41.03.664,Tarea de género gramatical,2024.2.2,MacIntel,60.24096386,,,,,,,,,,,,,,,,,,,,,,,133.1433,134.359,a,1,0.5338,,[],[],[],[],[],[],[],0.5338,1,134.3591,134.8591,,,,,,115,FEM,AGR,150,seda,la,a,134.8592,134.8593,-0.011131973,-0.392351294,0,0,0,,0,30,30,114,1,,,,
,,,,,,,a752ad6491057f7ec94b015d,66a626ef09d4e21e1a8894ec,6734d69484a5ae49314db9ee,2024-11-13_17h41.03.664,Tarea de género gramatical,2024.2.2,MacIntel,60.24096386,,,,,,,,,,,,,,,,,,,,,,,134.8601,136.1089,l,1,0.5684,,[],[],[],[],[],[],[],0.5684,1,136.109,136.6091,,,,,,191,MAS,CON,150,dolor,,l,136.6091,136.6091,-0.011131973,-0.392351294,0,0,0,,0,31,31,190,1,,,,
,,,,,,,a752ad6491057f7ec94b015d,66a626ef09d4e21e1a8894ec,6734d69484a5ae49314db9ee,2024-11-13_17h41.03.664,Tarea de género gramatical,2024.2.2,MacIntel,60.24096386,,,,,,,,,,,,,,,,,,,,,,,136.6099,137.6934,l,1,0.4184,,[],[],[],[],[],[],[],0.4184,1,137.6936,138.1928,,,,,,232,MAS,AGR,150,calor,el,l,138.1929,138.193,-0.011131973,-0.392351294,0,0,0,,0,32,32,231,1,,,,
,,,,,,,a752ad6491057f7ec94b015d,66a626ef09d4e21e1a8894ec,6734d69484a5ae49314db9ee,2024-11-13_17h41.03.664,Tarea de género gramatical,2024.2.2,MacIntel,60.24096386,,,,,,,,,,,,,,,,,,,,,,,138.1938,139.4604,a,1,0.5856,,[],[],[],[],[],[],[],0.5856,1,139.4605,139.9606,,,,,,139,FEM,AGR,150,pipa,la,a,139.9617,139.9623,-0.011131973,-0.392351294,0,0,0,,0,33,33,138,1,,,,
,,,,,,,a752ad6491057f7ec94b015d,66a626ef09d4e21e1a8894ec,6734d69484a5ae49314db9ee,2024-11-13_17h41.03.664,Tarea de género gramatical,2024.2.2,MacIntel,60.24096386,,,,,,,,,,,,,,,,,,,,,,,139.9627,141.0278,l,1,0.3872,,[],[],[],[],[],[],[],0.3872,1,141.0279,141.5281,,,,,,119,MAS,CON,150,mito,,l,141.5281,141.5281,-0.011131973,-0.392351294,0,0,0,,0,34,34,118,1,,,,
,,,,,,,a752ad6491057f7ec94b015d,66a626ef09d4e21e1a8894ec,6734d69484a5ae49314db9ee,2024-11-13_17h41.03.664,Tarea de género gramatical,2024.2.2,MacIntel,60.24096386,,,,,,,,,,,,,,,,,,,,,,,141.529,142.8618,l,1,0.6523,,[],[],[],[],[],[],[],0.6523,1,142.8619,143.3612,,,,,,449,MAS,CON,150,payaso,,l,143.3613,143.3614,-0.011131973,-0.392351294,0,0,0,,0,35,35,448,1,,,,
,,,,,,,a752ad6491057f7ec94b015d,66a626ef09d4e21e1a8894ec,6734d69484a5ae49314db9ee,2024-11-13_17h41.03.664,Tarea de género gramatical,2024.2.2,MacIntel,60.24096386,,,,,,,,,,,,,,,,,,,,,,,143.3622,144.3953,l,1,0.3704,,[],[],[],[],[],[],[],0.3704,1,144.3954,144.8959,,,,,,24,MAS,DIS,150,voto,la,l,144.8959,144.896,-0.011131973,-0.392351294,0,0,0,,0,36,36,23,1,,,,
,,,,,,,a752ad6491057f7ec94b015d,66a626ef09d4e21e1a8894ec,6734d69484a5ae49314db9ee,2024-11-13_17h41.03.664,Tarea de género gramatical,2024.2.2,MacIntel,60.24096386,,,,,,,,,,,,,,,,,,,,,,,144.8969,146.0296,a,1,0.4493,,[],[],[],[],[],[],[],0.4493,1,146.0298,146.5288,,,,,,355,FEM,AGR,150,mirada,la,a,146.5289,146.529,-0.011131973,-0.392351294,0,0,0,,0,37,37,354,1,,,,
,,,,,,,a752ad6491057f7ec94b015d,66a626ef09d4e21e1a8894ec,6734d69484a5ae49314db9ee,2024-11-13_17h41.03.664,Tarea de género gramatical,2024.2.2,MacIntel,60.24096386,,,,,,,,,,,,,,,,,,,,,,,146.5298,147.5795,l,0,0.3694,,[],[],[],[],[],[],[],0.3694,0,147.5802,148.0803,,,,,,253,FEM,AGR,150,aldea,la,a,148.0811,148.0818,-0.011131973,-0.392351294,0,0,0,,0,38,38,252,1,,,,
,,,,,,,a752ad6491057f7ec94b015d,66a626ef09d4e21e1a8894ec,6734d69484a5ae49314db9ee,2024-11-13_17h41.03.664,Tarea de género gramatical,2024.2.2,MacIntel,60.24096386,,,,,,,,,,,,,,,,,,,,,,,148.0824,149.3807,l,0,0.6206,,[],[],[],[],[],[],[],0.6206,0,149.3807,149.8802,,,,,,170,FEM,CON,150,carta,,a,149.8802,149.8802,-0.011131973,-0.392351294,0,0,0,,0,39,39,169,1,,,,
,,,,,,,a752ad6491057f7ec94b015d,66a626ef09d4e21e1a8894ec,6734d69484a5ae49314db9ee,2024-11-13_17h41.03.664,Tarea de género gramatical,2024.2.2,MacIntel,60.24096386,,,,,,,,,,,,,,,,,,,,,,,149.881,151.2804,l,1,0.7396,,[],[],[],[],[],[],[],0.7396,1,151.281,151.7808,,,,,,42,MAS,DIS,150,show,la,l,151.7808,151.7809,-0.011131973,-0.392351294,0,0,0,,0,40,40,41,1,,,,
,,,,,,,a752ad6491057f7ec94b015d,66a626ef09d4e21e1a8894ec,6734d69484a5ae49314db9ee,2024-11-13_17h41.03.664,Tarea de género gramatical,2024.2.2,MacIntel,60.24096386,,,,,,,,,,,,,,,,,,,,,,,151.7817,153.3987,a,1,0.9348,,[],[],[],[],[],[],[],0.9348,1,153.3988,153.899,,,,,,7,FEM,AGR,150,hora,la,a,153.899,153.899,-0.011131973,-0.392351294,0,0,0,,0,41,41,6,1,,,,
,,,,,,,a752ad6491057f7ec94b015d,66a626ef09d4e21e1a8894ec,6734d69484a5ae49314db9ee,2024-11-13_17h41.03.664,Tarea de género gramatical,2024.2.2,MacIntel,60.24096386,,,,,,,,,,,,,,,,,,,,,,,153.8999,155.3161,a,1,0.7351,,[],[],[],[],[],[],[],0.7351,1,155.3162,155.8151,,,,,,68,FEM,CON,150,pata,,a,155.8162,155.817,-0.011131973,-0.392351294,0,0,0,,0,42,42,67,1,,,,
,,,,,,,a752ad6491057f7ec94b015d,66a626ef09d4e21e1a8894ec,6734d69484a5ae49314db9ee,2024-11-13_17h41.03.664,Tarea de género gramatical,2024.2.2,MacIntel,60.24096386,,,,,,,,,,,,,,,,,,,,,,,155.8179,156.9658,l,0,0.4672,,[],[],[],[],[],[],[],0.4672,0,156.9666,157.4658,,,,,,243,FEM,DIS,150,salsa,el,a,157.4659,157.4659,-0.011131973,-0.392351294,0,0,0,,0,43,43,242,1,,,,
,,,,,,,a752ad6491057f7ec94b015d,66a626ef09d4e21e1a8894ec,6734d69484a5ae49314db9ee,2024-11-13_17h41.03.664,Tarea de género gramatical,2024.2.2,MacIntel,60.24096386,,,,,,,,,,,,,,,,,,,,,,,157.4667,158.8998,a,1,0.7714,,[],[],[],[],[],[],[],0.7714,1,158.9007,159.3996,,,,,,301,FEM,AGR,150,verdad,la,a,159.3997,159.3998,-0.011131973,-0.392351294,0,0,0,,0,44,44,300,1,,,,
,,,,,,,a752ad6491057f7ec94b015d,66a626ef09d4e21e1a8894ec,6734d69484a5ae49314db9ee,2024-11-13_17h41.03.664,Tarea de género gramatical,2024.2.2,MacIntel,60.24096386,,,,,,,,,,,,,,,,,,,,,,,159.4007,160.4838,l,1,0.4007,,[],[],[],[],[],[],[],0.4007,1,160.4839,160.9838,,,,,,324,MAS,DIS,150,cuarto,la,l,160.9838,160.9839,-0.011131973,-0.392351294,0,0,0,,0,45,45,323,1,,,,
,,,,,,,a752ad6491057f7ec94b015d,66a626ef09d4e21e1a8894ec,6734d69484a5ae49314db9ee,2024-11-13_17h41.03.664,Tarea de género gramatical,2024.2.2,MacIntel,60.24096386,,,,,,,,,,,,,,,,,,,,,,,160.9847,162.284,l,1,0.6359,,[],[],[],[],[],[],[],0.6359,1,162.2841,162.7848,,,,,,168,MAS,DIS,150,sitio,la,l,162.7849,162.785,-0.011131973,-0.392351294,0,0,0,,0,46,46,167,1,,,,
,,,,,,,a752ad6491057f7ec94b015d,66a626ef09d4e21e1a8894ec,6734d69484a5ae49314db9ee,2024-11-13_17h41.03.664,Tarea de género gramatical,2024.2.2,MacIntel,60.24096386,,,,,,,,,,,,,,,,,,,,,,,162.7858,163.9356,l,1,0.4677,,[],[],[],[],[],[],[],0.4677,1,163.9358,164.4348,,,,,,396,MAS,DIS,150,tesoro,la,l,164.4357,164.4364,-0.011131973,-0.392351294,0,0,0,,0,47,47,395,1,,,,
,,,,,,,a752ad6491057f7ec94b015d,66a626ef09d4e21e1a8894ec,6734d69484a5ae49314db9ee,2024-11-13_17h41.03.664,Tarea de género gramatical,2024.2.2,MacIntel,60.24096386,,,,,,,,,,,,,,,,,,,,,,,164.4371,165.5519,a,0,0.4338,,[],[],[],[],[],[],[],0.4338,0,165.5527,166.0523,,,,,,281,MAS,CON,150,actor,,l,166.0523,166.0525,-0.011131973,-0.392351294,0,0,0,,0,48,48,280,1,,,,
,,,,,,,a752ad6491057f7ec94b015d,66a626ef09d4e21e1a8894ec,6734d69484a5ae49314db9ee,2024-11-13_17h41.03.664,Tarea de género gramatical,2024.2.2,MacIntel,60.24096386,,,,,,,,,,,,,,,,,,,,,,,166.0534,167.1859,l,1,0.4525,,[],[],[],[],[],[],[],0.4525,1,167.1866,167.6861,,,,,,353,MAS,CON,150,verano,,l,167.6862,167.6862,-0.011131973,-0.392351294,0,0,0,,0,49,49,352,1,,,,
,,,,,,,a752ad6491057f7ec94b015d,66a626ef09d4e21e1a8894ec,6734d69484a5ae49314db9ee,2024-11-13_17h41.03.664,Tarea de género gramatical,2024.2.2,MacIntel,60.24096386,,,,,,,,,,,,,,,,,,,,,,,167.6871,168.8029,l,1,0.4509,,[],[],[],[],[],[],[],0.4509,1,168.8031,169.3036,,,,,,256,MAS,AGR,150,techo,el,l,169.3036,169.3036,-0.011131973,-0.392351294,0,0,0,,0,50,50,255,1,,,,
,,,,,,,a752ad6491057f7ec94b015d,66a626ef09d4e21e1a8894ec,6734d69484a5ae49314db9ee,2024-11-13_17h41.03.664,Tarea de género gramatical,2024.2.2,MacIntel,60.24096386,,,,,,,,,,,,,,,,,,,,,,,169.3046,170.4205,l,1,0.4336,,[],[],[],[],[],[],[],0.4336,1,170.4206,170.9206,,,,,,402,MAS,DIS,150,ladrón,la,l,170.9215,170.9223,-0.011131973,-0.392351294,0,0,0,,0,51,51,401,1,,,,
,,,,,,,a752ad6491057f7ec94b015d,66a626ef09d4e21e1a8894ec,6734d69484a5ae49314db9ee,2024-11-13_17h41.03.664,Tarea de género gramatical,2024.2.2,MacIntel,60.24096386,,,,,,,,,,,,,,,,,,,,,,,170.9228,172.0551,l,1,0.4517,,[],[],[],[],[],[],[],0.4517,1,172.0551,172.5551,,,,,,100,MAS,AGR,150,nido,el,l,172.5551,172.5552,-0.011131973,-0.392351294,0,0,0,,0,52,52,99,1,,,,
,,,,,,,a752ad6491057f7ec94b015d,66a626ef09d4e21e1a8894ec,6734d69484a5ae49314db9ee,2024-11-13_17h41.03.664,Tarea de género gramatical,2024.2.2,MacIntel,60.24096386,,,,,,,,,,,,,,,,,,,,,,,172.5559,173.6712,a,1,0.4342,,[],[],[],[],[],[],[],0.4342,1,173.6713,174.1722,,,,,,200,FEM,CON,150,silla,,a,174.1723,174.1723,-0.011131973,-0.392351294,0,0,0,,0,53,53,199,1,,,,
,,,,,,,a752ad6491057f7ec94b015d,66a626ef09d4e21e1a8894ec,6734d69484a5ae49314db9ee,2024-11-13_17h41.03.664,Tarea de género gramatical,2024.2.2,MacIntel,60.24096386,,,,,,,,,,,,,,,,,,,,,,,174.1732,175.4061,l,1,0.555,,[],[],[],[],[],[],[],0.555,1,175.4061,175.9052,,,,,,334,MAS,AGR,150,ataque,el,l,175.9052,175.9054,-0.011131973,-0.392351294,0,0,0,,0,54,54,333,1,,,,
,,,,,,,a752ad6491057f7ec94b015d,66a626ef09d4e21e1a8894ec,6734d69484a5ae49314db9ee,2024-11-13_17h41.03.664,Tarea de género gramatical,2024.2.2,MacIntel,60.24096386,,,,,,,,,,,,,,,,,,,,,,,175.9062,177.1734,a,1,0.5999,,[],[],[],[],[],[],[],0.5999,1,177.1735,177.6726,,,,,,27,FEM,DIS,150,mesa,el,a,177.6726,177.6728,-0.011131973,-0.392351294,0,0,0,,0,55,55,26,1,,,,
,,,,,,,a752ad6491057f7ec94b015d,66a626ef09d4e21e1a8894ec,6734d69484a5ae49314db9ee,2024-11-13_17h41.03.664,Tarea de género gramatical,2024.2.2,MacIntel,60.24096386,,,,,,,,,,,,,,,,,,,,,,,177.6737,179.0404,l,0,0.6901,,[],[],[],[],[],[],[],0.6901,0,179.0409,179.5403,,,,,,261,FEM,DIS,150,cueva,el,a,179.5412,179.5419,-0.011131973,-0.392351294,0,0,0,,0,56,56,260,1,,,,
,,,,,,,a752ad6491057f7ec94b015d,66a626ef09d4e21e1a8894ec,6734d69484a5ae49314db9ee,2024-11-13_17h41.03.664,Tarea de género gramatical,2024.2.2,MacIntel,60.24096386,,,,,,,,,,,,,,,,,,,,,,,179.5425,181.0571,l,0,0.8352,,[],[],[],[],[],[],[],0.8352,0,181.0572,181.5581,,,,,,75,FEM,DIS,150,caza,el,a,181.5581,181.5582,-0.011131973,-0.392351294,0,0,0,,0,57,57,74,1,,,,
,,,,,,,a752ad6491057f7ec94b015d,66a626ef09d4e21e1a8894ec,6734d69484a5ae49314db9ee,2024-11-13_17h41.03.664,Tarea de género gramatical,2024.2.2,MacIntel,60.24096386,,,,,,,,,,,,,,,,,,,,,,,181.5592,182.7752,a,1,0.5332,,[],[],[],[],[],[],[],0.5332,1,182.776,183.2744,,,,,,447,FEM,DIS,150,lógica,el,a,183.2745,183.2745,-0.011131973,-0.392351294,0,0,0,,0,58,58,446,1,,,,
,,,,,,,a752ad6491057f7ec94b015d,66a626ef09d4e21e1a8894ec,6734d69484a5ae49314db9ee,2024-11-13_17h41.03.664,Tarea de género gramatical,2024.2.2,MacIntel,60.24096386,,,,,,,,,,,,,,,,,,,,,,,183.2754,184.4415,a,1,0.488,,[],[],[],[],[],[],[],0.488,1,184.4416,184.9423,,,,,,207,FEM,DIS,150,playa,el,a,184.9423,184.9424,-0.011131973,-0.392351294,0,0,0,,0,59,59,206,1,,,,
,,,,,,,a752ad6491057f7ec94b015d,66a626ef09d4e21e1a8894ec,6734d69484a5ae49314db9ee,2024-11-13_17h41.03.664,Tarea de género gramatical,2024.2.2,MacIntel,60.24096386,,,,,,,,,,,,,,,,,,,,,,,184.9433,186.0089,l,1,0.4001,,[],[],[],[],[],[],[],0.4001,1,186.0089,186.5092,,,,,,400,MAS,AGR,150,barrio,el,l,186.5102,186.511,-0.011131973,-0.392351294,0,0,0,,0,60,60,399,1,,,,
,,,,,,,a752ad6491057f7ec94b015d,66a626ef09d4e21e1a8894ec,6734d69484a5ae49314db9ee,2024-11-13_17h41.03.664,Tarea de género gramatical,2024.2.2,MacIntel,60.24096386,,,,,,,,,,,,,,,,,,,,,,,186.5116,187.6091,l,0,0.4216,,[],[],[],[],[],[],[],0.4216,0,187.6101,188.11,,,,,,79,FEM,AGR,150,mina,la,a,188.11,188.1101,-0.011131973,-0.392351294,0,0,0,,0,61,61,78,1,,,,
,,,,,,,a752ad6491057f7ec94b015d,66a626ef09d4e21e1a8894ec,6734d69484a5ae49314db9ee,2024-11-13_17h41.03.664,Tarea de género gramatical,2024.2.2,MacIntel,60.24096386,,,,,,,,,,,,,,,,,,,,,,,188.111,189.243,l,1,0.4534,,[],[],[],[],[],[],[],0.4534,1,189.2438,189.7432,,,,,,6,MAS,DIS,150,lado,la,l,189.7433,189.7434,-0.011131973,-0.392351294,0,0,0,,0,62,62,5,1,,,,
,,,,,,,a752ad6491057f7ec94b015d,66a626ef09d4e21e1a8894ec,6734d69484a5ae49314db9ee,2024-11-13_17h41.03.664,Tarea de género gramatical,2024.2.2,MacIntel,60.24096386,,,,,,,,,,,,,,,,,,,,,,,189.7443,191.0609,a,1,0.6518,,[],[],[],[],[],[],[],0.6518,1,191.061,191.5616,,,,,,393,FEM,DIS,150,alarma,el,a,191.5617,191.5618,-0.011131973,-0.392351294,0,0,0,,0,63,63,392,1,,,,
,,,,,,,a752ad6491057f7ec94b015d,66a626ef09d4e21e1a8894ec,6734d69484a5ae49314db9ee,2024-11-13_17h41.03.664,Tarea de género gramatical,2024.2.2,MacIntel,60.24096386,,,,,,,,,,,,,,,,,,,,,,,191.5626,192.6454,l,1,0.4001,,[],[],[],[],[],[],[],0.4001,1,192.6455,193.1448,,,,,,131,MAS,CON,150,kilo,,l,193.1449,193.145,-0.011131973,-0.392351294,0,0,0,,0,64,64,130,1,,,,
,,,,,,,a752ad6491057f7ec94b015d,66a626ef09d4e21e1a8894ec,6734d69484a5ae49314db9ee,2024-11-13_17h41.03.664,Tarea de género gramatical,2024.2.2,MacIntel,60.24096386,,,,,,,,,,,,,,,,,,,,,,,193.1458,194.2781,l,1,0.468,,[],[],[],[],[],[],[],0.468,1,194.2783,194.7793,,,,,,442,MAS,AGR,150,cuadro,el,l,194.7803,194.7811,-0.011131973,-0.392351294,0,0,0,,0,65,65,441,1,,,,
,,,,,,,a752ad6491057f7ec94b015d,66a626ef09d4e21e1a8894ec,6734d69484a5ae49314db9ee,2024-11-13_17h41.03.664,Tarea de género gramatical,2024.2.2,MacIntel,60.24096386,,,,,,,,,,,,,,,,,,,,,,,194.7815,195.9453,l,1,0.484,,[],[],[],[],[],[],[],0.484,1,195.9454,196.446,,,,,,186,MAS,DIS,150,error,la,l,196.4461,196.4461,-0.011131973,-0.392351294,0,0,0,,0,66,66,185,1,,,,
,,,,,,,a752ad6491057f7ec94b015d,66a626ef09d4e21e1a8894ec,6734d69484a5ae49314db9ee,2024-11-13_17h41.03.664,Tarea de género gramatical,2024.2.2,MacIntel,60.24096386,,,,,,,,,,,,,,,,,,,,,,,196.447,197.5625,a,1,0.4344,,[],[],[],[],[],[],[],0.4344,1,197.5626,198.0638,,,,,,153,FEM,DIS,150,mujer,el,a,198.0639,198.064,-0.011131973,-0.392351294,0,0,0,,0,67,67,152,1,,,,
,,,,,,,a752ad6491057f7ec94b015d,66a626ef09d4e21e1a8894ec,6734d69484a5ae49314db9ee,2024-11-13_17h41.03.664,Tarea de género gramatical,2024.2.2,MacIntel,60.24096386,,,,,,,,,,,,,,,,,,,,,,,198.0648,199.5632,l,1,0.8169,,[],[],[],[],[],[],[],0.8169,1,199.5633,200.0644,,,,,,384,MAS,DIS,150,pedazo,la,l,200.0644,200.0645,-0.011131973,-0.392351294,0,0,0,,0,68,68,383,1,,,,
,,,,,,,a752ad6491057f7ec94b015d,66a626ef09d4e21e1a8894ec,6734d69484a5ae49314db9ee,2024-11-13_17h41.03.664,Tarea de género gramatical,2024.2.2,MacIntel,60.24096386,,,,,,,,,,,,,,,,,,,,,,,200.0655,201.4649,l,0,0.7169,,[],[],[],[],[],[],[],0.7169,0,201.4658,201.9651,,,,,,219,FEM,DIS,150,costa,el,a,201.966,201.9668,-0.011131973,-0.392351294,0,0,0,,0,69,69,218,1,,,,
,,,,,,,a752ad6491057f7ec94b015d,66a626ef09d4e21e1a8894ec,6734d69484a5ae49314db9ee,2024-11-13_17h41.03.664,Tarea de género gramatical,2024.2.2,MacIntel,60.24096386,,,,,,,,,,,,,,,,,,,,,,,201.9675,203.0321,l,1,0.3841,,[],[],[],[],[],[],[],0.3841,1,203.033,203.5323,,,,,,197,MAS,CON,150,avión,,l,203.5324,203.5324,-0.011131973,-0.392351294,0,0,0,,0,70,70,196,1,,,,
,,,,,,,a752ad6491057f7ec94b015d,66a626ef09d4e21e1a8894ec,6734d69484a5ae49314db9ee,2024-11-13_17h41.03.664,Tarea de género gramatical,2024.2.2,MacIntel,60.24096386,,,,,,,,,,,,,,,,,,,,,,,203.5334,204.6324,l,1,0.4163,,[],[],[],[],[],[],[],0.4163,1,204.6326,205.1329,,,,,,208,MAS,AGR,150,suelo,el,l,205.133,205.133,-0.011131973,-0.392351294,0,0,0,,0,71,71,207,1,,,,
,,,,,,,a752ad6491057f7ec94b015d,66a626ef09d4e21e1a8894ec,6734d69484a5ae49314db9ee,2024-11-13_17h41.03.664,Tarea de género gramatical,2024.2.2,MacIntel,60.24096386,,,,,,,,,,,,,,,,,,,,,,,205.1338,206.1831,l,1,0.3681,,[],[],[],[],[],[],[],0.3681,1,206.1832,206.6833,,,,,,11,MAS,CON,150,país,,l,206.6834,206.6834,-0.011131973,-0.392351294,0,0,0,,0,72,72,10,1,,,,
,,,,,,,a752ad6491057f7ec94b015d,66a626ef09d4e21e1a8894ec,6734d69484a5ae49314db9ee,2024-11-13_17h41.03.664,Tarea de género gramatical,2024.2.2,MacIntel,60.24096386,,,,,,,,,,,,,,,,,,,,,,,206.6843,207.7671,l,1,0.4006,,[],[],[],[],[],[],[],0.4006,1,207.7671,208.2673,,,,,,346,MAS,AGR,150,juicio,el,l,208.2673,208.2674,-0.011131973,-0.392351294,0,0,0,,0,73,73,345,1,,,,
,,,,,,,a752ad6491057f7ec94b015d,66a626ef09d4e21e1a8894ec,6734d69484a5ae49314db9ee,2024-11-13_17h41.03.664,Tarea de género gramatical,2024.2.2,MacIntel,60.24096386,,,,,,,,,,,,,,,,,,,,,,,208.2682,209.3665,a,1,0.4172,,[],[],[],[],[],[],[],0.4172,1,209.3666,209.8676,,,,,,435,FEM,DIS,150,niebla,el,a,209.8686,209.8692,-0.011131973,-0.392351294,0,0,0,,0,74,74,434,1,,,,
,,,,,,,a752ad6491057f7ec94b015d,66a626ef09d4e21e1a8894ec,6734d69484a5ae49314db9ee,2024-11-13_17h41.03.664,Tarea de género gramatical,2024.2.2,MacIntel,60.24096386,,,,,,,,,,,,,,,,,,,,,,,209.8699,211.0004,a,1,0.4509,,[],[],[],[],[],[],[],0.4509,1,211.0006,211.5013,,,,,,333,FEM,DIS,150,locura,el,a,211.5014,211.5015,-0.011131973,-0.392351294,0,0,0,,0,75,75,332,1,,,,
,,,,,,,a752ad6491057f7ec94b015d,66a626ef09d4e21e1a8894ec,6734d69484a5ae49314db9ee,2024-11-13_17h41.03.664,Tarea de género gramatical,2024.2.2,MacIntel,60.24096386,,,,,,,,,,,,,,,,,,,,,,,211.5024,212.6513,l,0,0.4665,,[],[],[],[],[],[],[],0.4665,0,212.6522,213.1519,,,,,,338,FEM,CON,150,abuela,,a,213.1519,213.1519,-0.011131973,-0.392351294,0,0,0,,0,76,76,337,1,,,,
,,,,,,,a752ad6491057f7ec94b015d,66a626ef09d4e21e1a8894ec,6734d69484a5ae49314db9ee,2024-11-13_17h41.03.664,Tarea de género gramatical,2024.2.2,MacIntel,60.24096386,,,,,,,,,,,,,,,,,,,,,,,213.1528,214.3356,l,0,0.5009,,[],[],[],[],[],[],[],0.5009,0,214.3357,214.8357,,,,,,380,FEM,CON,150,madera,,a,214.8357,214.8357,-0.011131973,-0.392351294,0,0,0,,0,77,77,379,1,,,,
,,,,,,,a752ad6491057f7ec94b015d,66a626ef09d4e21e1a8894ec,6734d69484a5ae49314db9ee,2024-11-13_17h41.03.664,Tarea de género gramatical,2024.2.2,MacIntel,60.24096386,,,,,,,,,,,,,,,,,,,,,,,214.8366,215.9528,l,1,0.4357,,[],[],[],[],[],[],[],0.4357,1,215.9537,216.4532,,,,,,316,MAS,AGR,150,cuerpo,el,l,216.4542,216.4548,-0.011131973,-0.392351294,0,0,0,,0,78,78,315,1,,,,
,,,,,,,a752ad6491057f7ec94b015d,66a626ef09d4e21e1a8894ec,6734d69484a5ae49314db9ee,2024-11-13_17h41.03.664,Tarea de género gramatical,2024.2.2,MacIntel,60.24096386,,,,,,,,,,,,,,,,,,,,,,,216.4556,217.737,l,1,0.6044,,[],[],[],[],[],[],[],0.6044,1,217.7371,218.2371,,,,,,198,MAS,DIS,150,hotel,la,l,218.2372,218.2373,-0.011131973,-0.392351294,0,0,0,,0,79,79,197,1,,,,
,,,,,,,a752ad6491057f7ec94b015d,66a626ef09d4e21e1a8894ec,6734d69484a5ae49314db9ee,2024-11-13_17h41.03.664,Tarea de género gramatical,2024.2.2,MacIntel,60.24096386,,,,,,,,,,,,,,,,,,,,,,,218.2382,219.3872,l,1,0.47,,[],[],[],[],[],[],[],0.47,1,219.3872,219.8866,,,,,,149,MAS,CON,150,nudo,,l,219.8867,219.8867,-0.011131973,-0.392351294,0,0,0,,0,80,80,148,1,,,,
,,,,,,,a752ad6491057f7ec94b015d,66a626ef09d4e21e1a8894ec,6734d69484a5ae49314db9ee,2024-11-13_17h41.03.664,Tarea de género gramatical,2024.2.2,MacIntel,60.24096386,,,,,,,,,,,,,,,,,,,,,,,219.8877,220.9704,l,1,0.4174,,[],[],[],[],[],[],[],0.4174,1,220.9705,221.4712,,,,,,118,MAS,AGR,150,baúl,el,l,221.4713,221.4713,-0.011131973,-0.392351294,0,0,0,,0,81,81,117,1,,,,
,,,,,,,a752ad6491057f7ec94b015d,66a626ef09d4e21e1a8894ec,6734d69484a5ae49314db9ee,2024-11-13_17h41.03.664,Tarea de género gramatical,2024.2.2,MacIntel,60.24096386,,,,,,,,,,,,,,,,,,,,,,,221.4721,222.572,l,1,0.4178,,[],[],[],[],[],[],[],0.4178,1,222.572,223.072,,,,,,360,MAS,DIS,150,puente,la,l,223.072,223.0721,-0.011131973,-0.392351294,0,0,0,,0,82,82,359,1,,,,
,,,,,,,a752ad6491057f7ec94b015d,66a626ef09d4e21e1a8894ec,6734d69484a5ae49314db9ee,2024-11-13_17h41.03.664,Tarea de género gramatical,2024.2.2,MacIntel,60.24096386,,,,,,,,,,,,,,,,,,,,,,,223.0733,224.2716,a,1,0.5173,,[],[],[],[],[],[],[],0.5173,1,224.2717,224.7717,,,,,,151,FEM,AGR,150,noche,la,a,224.7727,224.7733,-0.011131973,-0.392351294,0,0,0,,0,83,83,150,1,,,,
,,,,,,,a752ad6491057f7ec94b015d,66a626ef09d4e21e1a8894ec,6734d69484a5ae49314db9ee,2024-11-13_17h41.03.664,Tarea de género gramatical,2024.2.2,MacIntel,60.24096386,,,,,,,,,,,,,,,,,,,,,,,224.7739,225.8721,a,1,0.4226,,[],[],[],[],[],[],[],0.4226,1,225.8722,226.3726,,,,,,307,FEM,AGR,150,suerte,la,a,226.3727,226.3728,-0.011131973,-0.392351294,0,0,0,,0,84,84,306,1,,,,
,,,,,,,a752ad6491057f7ec94b015d,66a626ef09d4e21e1a8894ec,6734d69484a5ae49314db9ee,2024-11-13_17h41.03.664,Tarea de género gramatical,2024.2.2,MacIntel,60.24096386,,,,,,,,,,,,,,,,,,,,,,,226.3736,227.6235,l,1,0.5664,,[],[],[],[],[],[],[],0.5664,1,227.6236,228.1235,,,,,,108,MAS,DIS,150,hilo,la,l,228.1236,228.1236,-0.011131973,-0.392351294,0,0,0,,0,85,85,107,1,,,,
,,,,,,,a752ad6491057f7ec94b015d,66a626ef09d4e21e1a8894ec,6734d69484a5ae49314db9ee,2024-11-13_17h41.03.664,Tarea de género gramatical,2024.2.2,MacIntel,60.24096386,,,,,,,,,,,,,,,,,,,,,,,228.1244,229.3739,a,1,0.569,,[],[],[],[],[],[],[],0.569,1,229.374,229.8743,,,,,,285,FEM,DIS,150,mafia,el,a,229.8744,229.8744,-0.011131973,-0.392351294,0,0,0,,0,86,86,284,1,,,,
,,,,,,,a752ad6491057f7ec94b015d,66a626ef09d4e21e1a8894ec,6734d69484a5ae49314db9ee,2024-11-13_17h41.03.664,Tarea de género gramatical,2024.2.2,MacIntel,60.24096386,,,,,,,,,,,,,,,,,,,,,,,229.8752,231.1248,l,0,0.5672,,[],[],[],[],[],[],[],0.5672,0,231.1255,231.6242,,,,,,345,FEM,DIS,150,pierna,el,a,231.6253,231.6261,-0.011131973,-0.392351294,0,0,0,,0,87,87,344,1,,,,
,,,,,,,a752ad6491057f7ec94b015d,66a626ef09d4e21e1a8894ec,6734d69484a5ae49314db9ee,2024-11-13_17h41.03.664,Tarea de género gramatical,2024.2.2,MacIntel,60.24096386,,,,,,,,,,,,,,,,,,,,,,,231.6267,233.2588,a,1,0.9514,,[],[],[],[],[],[],[],0.9514,1,233.2597,233.7589,,,,,,103,FEM,AGR,150,fama,la,a,233.7589,233.7591,-0.011131973,-0.392351294,0,0,0,,0,88,88,102,1,,,,
,,,,,,,a752ad6491057f7ec94b015d,66a626ef09d4e21e1a8894ec,6734d69484a5ae49314db9ee,2024-11-13_17h41.03.664,Tarea de género gramatical,2024.2.2,MacIntel,60.24096386,,,,,,,,,,,,,,,,,,,,,,,233.7598,235.0083,l,1,0.5678,,[],[],[],[],[],[],[],0.5678,1,235.0084,235.5094,,,,,,443,MAS,CON,150,templo,,l,235.5094,235.5095,-0.011131973,-0.392351294,0,0,0,,0,89,89,442,1,,,,
,,,,,,,a752ad6491057f7ec94b015d,66a626ef09d4e21e1a8894ec,6734d69484a5ae49314db9ee,2024-11-13_17h41.03.664,Tarea de género gramatical,2024.2.2,MacIntel,60.24096386,,,,,,,,,,,,,,,,,,,,,,,235.5105,236.6765,a,1,0.4864,,[],[],[],[],[],[],[],0.4864,1,236.6766,237.1768,,,,,,411,FEM,DIS,150,actriz,el,a,237.1768,237.177,-0.011131973,-0.392351294,0,0,0,,0,90,90,410,1,,,,
,,,,,,,a752ad6491057f7ec94b015d,66a626ef09d4e21e1a8894ec,6734d69484a5ae49314db9ee,2024-11-13_17h41.03.664,Tarea de género gramatical,2024.2.2,MacIntel,60.24096386,,,,,,,,,,,,,,,,,,,,,,,237.1777,238.2269,l,1,0.371,,[],[],[],[],[],[],[],0.371,1,238.227,238.7273,,,,,,112,MAS,AGR,150,reto,el,l,238.7274,238.7275,-0.011131973,-0.392351294,0,0,0,,0,91,91,111,1,,,,
,,,,,,,a752ad6491057f7ec94b015d,66a626ef09d4e21e1a8894ec,6734d69484a5ae49314db9ee,2024-11-13_17h41.03.664,Tarea de género gramatical,2024.2.2,MacIntel,60.24096386,,,,,,,,,,,,,,,,,,,,,,,238.7283,240.1278,l,0,0.7181,,[],[],[],[],[],[],[],0.7181,0,240.1286,240.6277,,,,,,189,FEM,DIS,150,pista,el,a,240.6287,240.6294,-0.011131973,-0.392351294,0,0,0,,0,92,92,188,1,,,,
,,,,,,,a752ad6491057f7ec94b015d,66a626ef09d4e21e1a8894ec,6734d69484a5ae49314db9ee,2024-11-13_17h41.03.664,Tarea de género gramatical,2024.2.2,MacIntel,60.24096386,,,,,,,,,,,,,,,,,,,,,,,240.6299,241.8444,a,1,0.5368,,[],[],[],[],[],[],[],0.5368,1,241.8452,242.3444,,,,,,313,FEM,AGR,150,ciudad,la,a,242.3444,242.3446,-0.011131973,-0.392351294,0,0,0,,0,93,93,312,1,,,,
,,,,,,,a752ad6491057f7ec94b015d,66a626ef09d4e21e1a8894ec,6734d69484a5ae49314db9ee,2024-11-13_17h41.03.664,Tarea de género gramatical,2024.2.2,MacIntel,60.24096386,,,,,,,,,,,,,,,,,,,,,,,242.3453,243.445,l,0,0.4173,,[],[],[],[],[],[],[],0.4173,0,243.446,243.9451,,,,,,337,FEM,AGR,150,escena,la,a,243.9452,243.9453,-0.011131973,-0.392351294,0,0,0,,0,94,94,336,1,,,,
,,,,,,,a752ad6491057f7ec94b015d,66a626ef09d4e21e1a8894ec,6734d69484a5ae49314db9ee,2024-11-13_17h41.03.664,Tarea de género gramatical,2024.2.2,MacIntel,60.24096386,,,,,,,,,,,,,,,,,,,,,,,243.9461,245.1123,l,1,0.4842,,[],[],[],[],[],[],[],0.4842,1,245.113,245.6121,,,,,,204,MAS,DIS,150,papel,la,l,245.6121,245.6123,-0.011131973,-0.392351294,0,0,0,,0,95,95,203,1,,,,
,,,,,,,a752ad6491057f7ec94b015d,66a626ef09d4e21e1a8894ec,6734d69484a5ae49314db9ee,2024-11-13_17h41.03.664,Tarea de género gramatical,2024.2.2,MacIntel,60.24096386,,,,,,,,,,,,,,,,,,,,,,,245.6131,246.7459,l,1,0.4683,,[],[],[],[],[],[],[],0.4683,1,246.746,247.2459,,,,,,226,MAS,AGR,150,color,el,l,247.2468,247.2475,-0.011131973,-0.392351294,0,0,0,,0,96,96,225,1,,,,
,,,,,,,a752ad6491057f7ec94b015d,66a626ef09d4e21e1a8894ec,6734d69484a5ae49314db9ee,2024-11-13_17h41.03.664,Tarea de género gramatical,2024.2.2,MacIntel,60.24096386,,,,,,,,,,,,,,,,,,,,,,,247.2481,248.4297,a,1,0.5004,,[],[],[],[],[],[],[],0.5004,1,248.4297,248.9309,,,,,,331,FEM,AGR,150,cárcel,la,a,248.9309,248.931,-0.011131973,-0.392351294,0,0,0,,0,97,97,330,1,,,,
,,,,,,,a752ad6491057f7ec94b015d,66a626ef09d4e21e1a8894ec,6734d69484a5ae49314db9ee,2024-11-13_17h41.03.664,Tarea de género gramatical,2024.2.2,MacIntel,60.24096386,,,,,,,,,,,,,,,,,,,,,,,248.9318,250.2974,a,1,0.6895,,[],[],[],[],[],[],[],0.6895,1,250.2974,250.7976,,,,,,212,FEM,CON,150,cinta,,a,250.7976,250.7976,-0.011131973,-0.392351294,0,0,0,,0,98,98,211,1,,,,
,,,,,,,a752ad6491057f7ec94b015d,66a626ef09d4e21e1a8894ec,6734d69484a5ae49314db9ee,2024-11-13_17h41.03.664,Tarea de género gramatical,2024.2.2,MacIntel,60.24096386,,,,,,,,,,,,,,,,,,,,,,,250.7984,251.8311,l,1,0.3508,,[],[],[],[],[],[],[],0.3508,1,251.8312,252.3315,,,,,,383,MAS,CON,150,parque,,l,252.3316,252.3316,-0.011131973,-0.392351294,0,0,0,,0,99,99,382,1,,,,
,,,,,,,a752ad6491057f7ec94b015d,66a626ef09d4e21e1a8894ec,6734d69484a5ae49314db9ee,2024-11-13_17h41.03.664,Tarea de género gramatical,2024.2.2,MacIntel,60.24096386,,,,,,,,,,,,,,,,,,,,,,,252.3324,253.8648,l,1,0.8529,,[],[],[],[],[],[],[],0.8529,1,253.8649,254.3655,,,,,,150,MAS,DIS,150,mozo,la,l,254.3655,254.3656,-0.011131973,-0.392351294,0,0,0,,0,100,100,149,1,,,,
,,,,,,,a752ad6491057f7ec94b015d,66a626ef09d4e21e1a8894ec,6734d69484a5ae49314db9ee,2024-11-13_17h41.03.664,Tarea de género gramatical,2024.2.2,MacIntel,60.24096386,,,,,,,,,,,,,,,,,,,,,,,254.3663,255.5994,a,1,0.5502,,[],[],[],[],[],[],[],0.5502,1,255.5995,256.0997,,,,,,25,FEM,AGR,150,nave,la,a,256.1007,256.1015,-0.011131973,-0.392351294,0,0,0,,0,101,101,24,1,,,,
,,,,,,,a752ad6491057f7ec94b015d,66a626ef09d4e21e1a8894ec,6734d69484a5ae49314db9ee,2024-11-13_17h41.03.664,Tarea de género gramatical,2024.2.2,MacIntel,60.24096386,,,,,,,,,,,,,,,,,,,,,,,256.1019,257.1995,l,1,0.4186,,[],[],[],[],[],[],[],0.4186,1,257.1996,257.7001,,,,,,299,MAS,CON,150,rumbo,,l,257.7001,257.7002,-0.011131973,-0.392351294,0,0,0,,0,102,102,298,1,,,,
,,,,,,,a752ad6491057f7ec94b015d,66a626ef09d4e21e1a8894ec,6734d69484a5ae49314db9ee,2024-11-13_17h41.03.664,Tarea de género gramatical,2024.2.2,MacIntel,60.24096386,,,,,,,,,,,,,,,,,,,,,,,257.7011,258.8341,l,1,0.4495,,[],[],[],[],[],[],[],0.4495,1,258.8342,259.3335,,,,,,60,MAS,DIS,150,tono,la,l,259.3336,259.3336,-0.011131973,-0.392351294,0,0,0,,0,103,103,59,1,,,,
,,,,,,,a752ad6491057f7ec94b015d,66a626ef09d4e21e1a8894ec,6734d69484a5ae49314db9ee,2024-11-13_17h41.03.664,Tarea de género gramatical,2024.2.2,MacIntel,60.24096386,,,,,,,,,,,,,,,,,,,,,,,259.3343,260.4344,a,1,0.4208,,[],[],[],[],[],[],[],0.4208,1,260.4344,260.9349,,,,,,194,FEM,CON,150,banda,,a,260.9349,260.935,-0.011131973,-0.392351294,0,0,0,,0,104,104,193,1,,,,
,,,,,,,a752ad6491057f7ec94b015d,66a626ef09d4e21e1a8894ec,6734d69484a5ae49314db9ee,2024-11-13_17h41.03.664,Tarea de género gramatical,2024.2.2,MacIntel,60.24096386,,,,,,,,,,,,,,,,,,,,,,,260.9358,262.3519,l,1,0.734,,[],[],[],[],[],[],[],0.734,1,262.352,262.8511,,,,,,270,MAS,DIS,150,queso,la,l,262.8521,262.8527,-0.011131973,-0.392351294,0,0,0,,0,105,105,269,1,,,,
,,,,,,,a752ad6491057f7ec94b015d,66a626ef09d4e21e1a8894ec,6734d69484a5ae49314db9ee,2024-11-13_17h41.03.664,Tarea de género gramatical,2024.2.2,MacIntel,60.24096386,,,,,,,,,,,,,,,,,,,,,,,262.8532,264.5022,a,1,0.9685,,[],[],[],[],[],[],[],0.9685,1,264.5022,265.0028,,,,,,169,FEM,AGR,150,vista,la,a,265.0029,265.0029,-0.011131973,-0.392351294,0,0,0,,0,106,106,168,1,,,,
,,,,,,,a752ad6491057f7ec94b015d,66a626ef09d4e21e1a8894ec,6734d69484a5ae49314db9ee,2024-11-13_17h41.03.664,Tarea de género gramatical,2024.2.2,MacIntel,60.24096386,,,,,,,,,,,,,,,,,,,,,,,265.0039,266.1522,a,1,0.4675,,[],[],[],[],[],[],[],0.4675,1,266.1523,266.6534,,,,,,367,FEM,AGR,150,teoría,la,a,266.6535,266.6535,-0.011131973,-0.392351294,0,0,0,,0,107,107,366,1,,,,
,,,,,,,a752ad6491057f7ec94b015d,66a626ef09d4e21e1a8894ec,6734d69484a5ae49314db9ee,2024-11-13_17h41.03.664,Tarea de género gramatical,2024.2.2,MacIntel,60.24096386,,,,,,,,,,,,,,,,,,,,,,,266.6545,267.8197,l,1,0.4837,,[],[],[],[],[],[],[],0.4837,1,267.8198,268.3196,,,,,,294,MAS,DIS,150,cable,la,l,268.3196,268.3197,-0.011131973,-0.392351294,0,0,0,,0,108,108,293,1,,,,
,,,,,,,a752ad6491057f7ec94b015d,66a626ef09d4e21e1a8894ec,6734d69484a5ae49314db9ee,2024-11-13_17h41.03.664,Tarea de género gramatical,2024.2.2,MacIntel,60.24096386,,,,,,,,,,,,,,,,,,,,,,,268.3205,269.4877,a,0,0.4992,,[],[],[],[],[],[],[],0.4992,0,269.4884,269.987,,,,,,209,MAS,CON,150,banco,,l,269.987,269.9871,-0.011131973,-0.392351294,0,0,0,,0,109,109,208,1,,,,
,,,,,,,a752ad6491057f7ec94b015d,66a626ef09d4e21e1a8894ec,6734d69484a5ae49314db9ee,2024-11-13_17h41.03.664,Tarea de género gramatical,2024.2.2,MacIntel,60.24096386,,,,,,,,,,,,,,,,,,,,,,,269.9879,271.2046,a,1,0.5507,,[],[],[],[],[],[],[],0.5507,1,271.2055,271.7051,,,,,,116,FEM,CON,150,nube,,a,271.706,271.7066,-0.011131973,-0.392351294,0,0,0,,0,110,110,115,1,,,,
,,,,,,,a752ad6491057f7ec94b015d,66a626ef09d4e21e1a8894ec,6734d69484a5ae49314db9ee,2024-11-13_17h41.03.664,Tarea de género gramatical,2024.2.2,MacIntel,60.24096386,,,,,,,,,,,,,,,,,,,,,,,271.7073,272.8878,a,1,0.5002,,[],[],[],[],[],[],[],0.5002,1,272.8879,273.3891,,,,,,43,FEM,AGR,150,nena,la,a,273.3891,273.3892,-0.011131973,-0.392351294,0,0,0,,0,111,111,42,1,,,,
,,,,,,,a752ad6491057f7ec94b015d,66a626ef09d4e21e1a8894ec,6734d69484a5ae49314db9ee,2024-11-13_17h41.03.664,Tarea de género gramatical,2024.2.2,MacIntel,60.24096386,,,,,,,,,,,,,,,,,,,,,,,273.3899,274.5889,a,1,0.5199,,[],[],[],[],[],[],[],0.5199,1,274.5889,275.0896,,,,,,410,FEM,CON,150,piedad,,a,275.0896,275.0896,-0.011131973,-0.392351294,0,0,0,,0,112,112,409,1,,,,
,,,,,,,a752ad6491057f7ec94b015d,66a626ef09d4e21e1a8894ec,6734d69484a5ae49314db9ee,2024-11-13_17h41.03.664,Tarea de género gramatical,2024.2.2,MacIntel,60.24096386,,,,,,,,,,,,,,,,,,,,,,,275.0905,276.3067,a,1,0.5384,,[],[],[],[],[],[],[],0.5384,1,276.3068,276.8063,,,,,,86,FEM,CON,150,cruz,,a,276.8064,276.8064,-0.011131973,-0.392351294,0,0,0,,0,113,113,85,1,,,,
,,,,,,,a752ad6491057f7ec94b015d,66a626ef09d4e21e1a8894ec,6734d69484a5ae49314db9ee,2024-11-13_17h41.03.664,Tarea de género gramatical,2024.2.2,MacIntel,60.24096386,,,,,,,,,,,,,,,,,,,,,,,276.8072,277.9072,l,1,0.4216,,[],[],[],[],[],[],[],0.4216,1,277.9073,278.4066,,,,,,275,MAS,CON,150,disco,,l,278.4075,278.4081,-0.011131973,-0.392351294,0,0,0,,0,114,114,274,1,,,,
,,,,,,,a752ad6491057f7ec94b015d,66a626ef09d4e21e1a8894ec,6734d69484a5ae49314db9ee,2024-11-13_17h41.03.664,Tarea de género gramatical,2024.2.2,MacIntel,60.24096386,,,,,,,,,,,,,,,,,,,,,,,278.4088,279.54,l,1,0.4508,,[],[],[],[],[],[],[],0.4508,1,279.5401,280.0412,,,,,,155,MAS,CON,150,mundo,,l,280.0412,280.0412,-0.011131973,-0.392351294,0,0,0,,0,115,115,154,1,,,,
,,,,,,,a752ad6491057f7ec94b015d,66a626ef09d4e21e1a8894ec,6734d69484a5ae49314db9ee,2024-11-13_17h41.03.664,Tarea de género gramatical,2024.2.2,MacIntel,60.24096386,,,,,,,,,,,,,,,,,,,,,,,280.0422,281.1739,a,1,0.4511,,[],[],[],[],[],[],[],0.4511,1,281.174,281.6748,,,,,,87,FEM,DIS,150,risa,el,a,281.6748,281.6749,-0.011131973,-0.392351294,0,0,0,,0,116,116,86,1,,,,
,,,,,,,a752ad6491057f7ec94b015d,66a626ef09d4e21e1a8894ec,6734d69484a5ae49314db9ee,2024-11-13_17h41.03.664,Tarea de género gramatical,2024.2.2,MacIntel,60.24096386,,,,,,,,,,,,,,,,,,,,,,,281.6757,283.0256,l,1,0.6666,,[],[],[],[],[],[],[],0.6666,1,283.0257,283.5257,,,,,,288,MAS,DIS,150,grado,la,l,283.5257,283.5258,-0.011131973,-0.392351294,0,0,0,,0,117,117,287,1,,,,
,,,,,,,a752ad6491057f7ec94b015d,66a626ef09d4e21e1a8894ec,6734d69484a5ae49314db9ee,2024-11-13_17h41.03.664,Tarea de género gramatical,2024.2.2,MacIntel,60.24096386,,,,,,,,,,,,,,,,,,,,,,,283.5266,284.5929,l,1,0.3838,,[],[],[],[],[],[],[],0.3838,1,284.5929,285.0925,,,,,,269,MAS,CON,150,primo,,l,285.0925,285.0926,-0.011131973,-0.392351294,0,0,0,,0,118,118,268,1,,,,
,,,,,,,a752ad6491057f7ec94b015d,66a626ef09d4e21e1a8894ec,6734d69484a5ae49314db9ee,2024-11-13_17h41.03.664,Tarea de género gramatical,2024.2.2,MacIntel,60.24096386,,,,,,,,,,,,,,,,,,,,,,,285.0935,286.1922,a,1,0.423,,[],[],[],[],[],[],[],0.423,1,286.1923,286.6934,,,,,,1,FEM,AGR,150,casa,la,a,286.6944,286.695,-0.011131973,-0.392351294,0,0,0,,0,119,119,0,1,,,,
,,,,,,,a752ad6491057f7ec94b015d,66a626ef09d4e21e1a8894ec,6734d69484a5ae49314db9ee,2024-11-13_17h41.03.664,Tarea de género gramatical,2024.2.2,MacIntel,60.24096386,,,,,,,,,,,,,,,,,,,,,,,286.6956,287.9107,l,1,0.5344,,[],[],[],[],[],[],[],0.5344,1,287.9107,288.4108,,,,,,88,MAS,AGR,150,pavo,el,l,288.4108,288.4109,-0.011131973,-0.392351294,0,0,0,,0,120,120,87,1,,,,
,,,,,,,a752ad6491057f7ec94b015d,66a626ef09d4e21e1a8894ec,6734d69484a5ae49314db9ee,2024-11-13_17h41.03.664,Tarea de género gramatical,2024.2.2,MacIntel,60.24096386,,,,,,,,,,,,,,,,,,,,,,,288.4118,289.5445,a,1,0.4503,,[],[],[],[],[],[],[],0.4503,1,289.5447,290.0441,,,,,,98,FEM,CON,150,fuga,,a,290.0441,290.0442,-0.011131973,-0.392351294,0,0,0,,0,121,121,97,1,,,,
,,,,,,,a752ad6491057f7ec94b015d,66a626ef09d4e21e1a8894ec,6734d69484a5ae49314db9ee,2024-11-13_17h41.03.664,Tarea de género gramatical,2024.2.2,MacIntel,60.24096386,,,,,,,,,,,,,,,,,,,,,,,290.0452,291.5109,l,1,0.8021,,[],[],[],[],[],[],[],0.8021,1,291.511,292.0109,,,,,,318,MAS,DIS,150,pueblo,la,l,292.011,292.011,-0.011131973,-0.392351294,0,0,0,,0,122,122,317,1,,,,
,,,,,,,a752ad6491057f7ec94b015d,66a626ef09d4e21e1a8894ec,6734d69484a5ae49314db9ee,2024-11-13_17h41.03.664,Tarea de género gramatical,2024.2.2,MacIntel,60.24096386,,,,,,,,,,,,,,,,,,,,,,,292.0121,293.1454,l,1,0.4499,,[],[],[],[],[],[],[],0.4499,1,293.1455,293.6449,,,,,,114,MAS,DIS,150,menú,la,l,293.6459,293.6465,-0.011131973,-0.392351294,0,0,0,,0,123,123,113,1,,,,
,,,,,,,a752ad6491057f7ec94b015d,66a626ef09d4e21e1a8894ec,6734d69484a5ae49314db9ee,2024-11-13_17h41.03.664,Tarea de género gramatical,2024.2.2,MacIntel,60.24096386,,,,,,,,,,,,,,,,,,,,,,,293.6471,294.7961,a,1,0.4687,,[],[],[],[],[],[],[],0.4687,1,294.7962,295.2962,,,,,,297,FEM,DIS,150,manta,el,a,295.2962,295.2963,-0.011131973,-0.392351294,0,0,0,,0,124,124,296,1,,,,
,,,,,,,a752ad6491057f7ec94b015d,66a626ef09d4e21e1a8894ec,6734d69484a5ae49314db9ee,2024-11-13_17h41.03.664,Tarea de género gramatical,2024.2.2,MacIntel,60.24096386,,,,,,,,,,,,,,,,,,,,,,,295.2971,296.5131,a,1,0.538,,[],[],[],[],[],[],[],0.538,1,296.5132,297.0135,,,,,,308,FEM,CON,150,semana,,a,297.0135,297.0137,-0.011131973,-0.392351294,0,0,0,,0,125,125,307,1,,,,
,,,,,,,a752ad6491057f7ec94b015d,66a626ef09d4e21e1a8894ec,6734d69484a5ae49314db9ee,2024-11-13_17h41.03.664,Tarea de género gramatical,2024.2.2,MacIntel,60.24096386,,,,,,,,,,,,,,,,,,,,,,,297.0145,298.1972,a,1,0.5016,,[],[],[],[],[],[],[],0.5016,1,298.1972,298.6974,,,,,,217,FEM,AGR,150,tarea,la,a,298.6975,298.6975,-0.011131973,-0.392351294,0,0,0,,0,126,126,216,1,,,,
,,,,,,,a752ad6491057f7ec94b015d,66a626ef09d4e21e1a8894ec,6734d69484a5ae49314db9ee,2024-11-13_17h41.03.664,Tarea de género gramatical,2024.2.2,MacIntel,60.24096386,,,,,,,,,,,,,,,,,,,,,,,298.6984,299.7477,l,1,0.3628,,[],[],[],[],[],[],[],0.3628,1,299.7478,300.248,,,,,,306,MAS,DIS,150,dinero,la,l,300.248,300.2481,-0.011131973,-0.392351294,0,0,0,,0,127,127,305,1,,,,
,,,,,,,a752ad6491057f7ec94b015d,66a626ef09d4e21e1a8894ec,6734d69484a5ae49314db9ee,2024-11-13_17h41.03.664,Tarea de género gramatical,2024.2.2,MacIntel,60.24096386,,,,,,,,,,,,,,,,,,,,,,,300.249,301.315,a,1,0.384,,[],[],[],[],[],[],[],0.384,1,301.3151,301.8141,,,,,,332,FEM,CON,150,basura,,a,301.815,301.8157,-0.011131973,-0.392351294,0,0,0,,0,128,128,331,1,,,,
,,,,,,,a752ad6491057f7ec94b015d,66a626ef09d4e21e1a8894ec,6734d69484a5ae49314db9ee,2024-11-13_17h41.03.664,Tarea de género gramatical,2024.2.2,MacIntel,60.24096386,,,,,,,,,,,,,,,,,,,,,,,301.8163,303.0482,l,1,0.5561,,[],[],[],[],[],[],[],0.5561,1,303.0484,303.5481,,,,,,336,MAS,DIS,150,crimen,la,l,303.5481,303.5483,-0.011131973,-0.392351294,0,0,0,,0,129,129,335,1,,,,
,,,,,,,a752ad6491057f7ec94b015d,66a626ef09d4e21e1a8894ec,6734d69484a5ae49314db9ee,2024-11-13_17h41.03.664,Tarea de género gramatical,2024.2.2,MacIntel,60.24096386,,,,,,,,,,,,,,,,,,,,,,,303.5491,304.9496,a,1,0.7175,,[],[],[],[],[],[],[],0.7175,1,304.9497,305.4498,,,,,,9,FEM,DIS,150,mamá,el,a,305.4498,305.4499,-0.011131973,-0.392351294,0,0,0,,0,130,130,8,1,,,,
,,,,,,,a752ad6491057f7ec94b015d,66a626ef09d4e21e1a8894ec,6734d69484a5ae49314db9ee,2024-11-13_17h41.03.664,Tarea de género gramatical,2024.2.2,MacIntel,60.24096386,,,,,,,,,,,,,,,,,,,,,,,305.4507,306.8995,a,1,0.7707,,[],[],[],[],[],[],[],0.7707,1,306.8995,307.4004,,,,,,223,FEM,AGR,150,plata,la,a,307.4005,307.4005,-0.011131973,-0.392351294,0,0,0,,0,131,131,222,1,,,,
,,,,,,,a752ad6491057f7ec94b015d,66a626ef09d4e21e1a8894ec,6734d69484a5ae49314db9ee,2024-11-13_17h41.03.664,Tarea de género gramatical,2024.2.2,MacIntel,60.24096386,,,,,,,,,,,,,,,,,,,,,,,307.4014,308.5171,a,1,0.4324,,[],[],[],[],[],[],[],0.4324,1,308.5172,309.0168,,,,,,123,FEM,DIS,150,tela,el,a,309.0177,309.0182,-0.011131973,-0.392351294,0,0,0,,0,132,132,122,1,,,,
,,,,,,,a752ad6491057f7ec94b015d,66a626ef09d4e21e1a8894ec,6734d69484a5ae49314db9ee,2024-11-13_17h41.03.664,Tarea de género gramatical,2024.2.2,MacIntel,60.24096386,,,,,,,,,,,,,,,,,,,,,,,309.0187,310.1513,l,1,0.4512,,[],[],[],[],[],[],[],0.4512,1,310.1514,310.6517,,,,,,311,MAS,CON,150,camino,,l,310.6517,310.6518,-0.011131973,-0.392351294,0,0,0,,0,133,133,310,1,,,,
,,,,,,,a752ad6491057f7ec94b015d,66a626ef09d4e21e1a8894ec,6734d69484a5ae49314db9ee,2024-11-13_17h41.03.664,Tarea de género gramatical,2024.2.2,MacIntel,60.24096386,,,,,,,,,,,,,,,,,,,,,,,310.6525,311.952,l,1,0.6164,,[],[],[],[],[],[],[],0.6164,1,311.9522,312.4512,,,,,,371,MAS,CON,150,sonido,,l,312.4513,312.4513,-0.011131973,-0.392351294,0,0,0,,0,134,134,370,1,,,,
,,,,,,,a752ad6491057f7ec94b015d,66a626ef09d4e21e1a8894ec,6734d69484a5ae49314db9ee,2024-11-13_17h41.03.664,Tarea de género gramatical,2024.2.2,MacIntel,60.24096386,,,,,,,,,,,,,,,,,,,,,,,312.4523,313.819,a,1,0.6876,,[],[],[],[],[],[],[],0.6876,1,313.8192,314.3194,,,,,,45,FEM,DIS,150,isla,el,a,314.3194,314.3196,-0.011131973,-0.392351294,0,0,0,,0,135,135,44,1,,,,
,,,,,,,a752ad6491057f7ec94b015d,66a626ef09d4e21e1a8894ec,6734d69484a5ae49314db9ee,2024-11-13_17h41.03.664,Tarea de género gramatical,2024.2.2,MacIntel,60.24096386,,,,,,,,,,,,,,,,,,,,,,,314.3203,315.4865,a,1,0.4853,,[],[],[],[],[],[],[],0.4853,1,315.4866,315.9865,,,,,,392,FEM,CON,150,maleta,,a,315.9865,315.9867,-0.011131973,-0.392351294,0,0,0,,0,136,136,391,1,,,,
,,,,,,,a752ad6491057f7ec94b015d,66a626ef09d4e21e1a8894ec,6734d69484a5ae49314db9ee,2024-11-13_17h41.03.664,Tarea de género gramatical,2024.2.2,MacIntel,60.24096386,,,,,,,,,,,,,,,,,,,,,,,315.9874,317.1201,l,1,0.449,,[],[],[],[],[],[],[],0.449,1,317.1202,317.6195,,,,,,17,MAS,CON,150,modo,,l,317.6204,317.6211,-0.011131973,-0.392351294,0,0,0,,0,137,137,16,1,,,,
,,,,,,,a752ad6491057f7ec94b015d,66a626ef09d4e21e1a8894ec,6734d69484a5ae49314db9ee,2024-11-13_17h41.03.664,Tarea de género gramatical,2024.2.2,MacIntel,60.24096386,,,,,,,,,,,,,,,,,,,,,,,317.6216,318.8868,a,1,0.584,,[],[],[],[],[],[],[],0.584,1,318.8869,319.3877,,,,,,290,FEM,CON,150,cabra,,a,319.3877,319.3877,-0.011131973,-0.392351294,0,0,0,,0,138,138,289,1,,,,
,,,,,,,a752ad6491057f7ec94b015d,66a626ef09d4e21e1a8894ec,6734d69484a5ae49314db9ee,2024-11-13_17h41.03.664,Tarea de género gramatical,2024.2.2,MacIntel,60.24096386,,,,,,,,,,,,,,,,,,,,,,,319.3886,320.7371,l,0,0.6724,,[],[],[],[],[],[],[],0.6724,0,320.7379,321.2384,,,,,,315,FEM,DIS,150,manera,el,a,321.2385,321.2385,-0.011131973,-0.392351294,0,0,0,,0,139,139,314,1,,,,
,,,,,,,a752ad6491057f7ec94b015d,66a626ef09d4e21e1a8894ec,6734d69484a5ae49314db9ee,2024-11-13_17h41.03.664,Tarea de género gramatical,2024.2.2,MacIntel,60.24096386,,,,,,,,,,,,,,,,,,,,,,,321.2393,322.4722,l,1,0.5513,,[],[],[],[],[],[],[],0.5513,1,322.473,322.9713,,,,,,432,MAS,DIS,150,océano,la,l,322.9714,322.9715,-0.011131973,-0.392351294,0,0,0,,0,140,140,431,1,,,,
,,,,,,,a752ad6491057f7ec94b015d,66a626ef09d4e21e1a8894ec,6734d69484a5ae49314db9ee,2024-11-13_17h41.03.664,Tarea de género gramatical,2024.2.2,MacIntel,60.24096386,,,,,,,,,,,,,,,,,,,,,,,322.9723,324.4721,l,1,0.8235,,[],[],[],[],[],[],[],0.8235,1,324.4721,324.9725,,,,,,102,MAS,DIS,150,coro,la,l,324.9735,324.9741,-0.011131973,-0.392351294,0,0,0,,0,141,141,101,1,,,,
,,,,,,,a752ad6491057f7ec94b015d,66a626ef09d4e21e1a8894ec,6734d69484a5ae49314db9ee,2024-11-13_17h41.03.664,Tarea de género gramatical,2024.2.2,MacIntel,60.24096386,,,,,,,,,,,,,,,,,,,,,,,324.9747,326.0401,l,1,0.3844,,[],[],[],[],[],[],[],0.3844,1,326.0402,326.5401,,,,,,352,MAS,AGR,150,estilo,el,l,326.5401,326.5402,-0.011131973,-0.392351294,0,0,0,,0,142,142,351,1,,,,
,,,,,,,a752ad6491057f7ec94b015d,66a626ef09d4e21e1a8894ec,6734d69484a5ae49314db9ee,2024-11-13_17h41.03.664,Tarea de género gramatical,2024.2.2,MacIntel,60.24096386,,,,,,,,,,,,,,,,,,,,,,,326.5411,327.6401,l,1,0.4169,,[],[],[],[],[],[],[],0.4169,1,327.6403,328.1404,,,,,,419,MAS,CON,150,cuento,,l,328.1404,328.1404,-0.011131973,-0.392351294,0,0,0,,0,143,143,418,1,,,,
,,,,,,,a752ad6491057f7ec94b015d,66a626ef09d4e21e1a8894ec,6734d69484a5ae49314db9ee,2024-11-13_17h41.03.664,Tarea de género gramatical,2024.2.2,MacIntel,60.24096386,,,,,,,,,,,,,,,,,,,,,,,328.1413,329.3073,a,1,0.4845,,[],[],[],[],[],[],[],0.4845,1,329.3074,329.8073,,,,,,135,FEM,DIS,150,raíz,el,a,329.8074,329.8074,-0.011131973,-0.392351294,0,0,0,,0,144,144,134,1,,,,
,,,,,,,a752ad6491057f7ec94b015d,66a626ef09d4e21e1a8894ec,6734d69484a5ae49314db9ee,2024-11-13_17h41.03.664,Tarea de género gramatical,2024.2.2,MacIntel,60.24096386,,,,,,,,,,,,,,,,,,,,,,,329.8083,330.8405,l,1,0.3562,,[],[],[],[],[],[],[],0.3562,1,330.8406,331.3413,,,,,,244,MAS,AGR,150,hielo,el,l,331.3413,331.3414,-0.011131973,-0.392351294,0,0,0,,0,145,145,243,1,,,,
,,,,,,,a752ad6491057f7ec94b015d,66a626ef09d4e21e1a8894ec,6734d69484a5ae49314db9ee,2024-11-13_17h41.03.664,Tarea de género gramatical,2024.2.2,MacIntel,60.24096386,,,,,,,,,,,,,,,,,,,,,,,331.3422,332.4412,l,1,0.4209,,[],[],[],[],[],[],[],0.4209,1,332.4412,332.9416,,,,,,136,MAS,AGR,150,vago,el,l,332.9426,332.9432,-0.011131973,-0.392351294,0,0,0,,0,146,146,135,1,,,,
,,,,,,,a752ad6491057f7ec94b015d,66a626ef09d4e21e1a8894ec,6734d69484a5ae49314db9ee,2024-11-13_17h41.03.664,Tarea de género gramatical,2024.2.2,MacIntel,60.24096386,,,,,,,,,,,,,,,,,,,,,,,332.9439,334.2089,a,1,0.5843,,[],[],[],[],[],[],[],0.5843,1,334.209,334.7089,,,,,,267,FEM,DIS,150,barba,el,a,334.709,334.7091,-0.011131973,-0.392351294,0,0,0,,0,147,147,266,1,,,,
,,,,,,,a752ad6491057f7ec94b015d,66a626ef09d4e21e1a8894ec,6734d69484a5ae49314db9ee,2024-11-13_17h41.03.664,Tarea de género gramatical,2024.2.2,MacIntel,60.24096386,,,,,,,,,,,,,,,,,,,,,,,334.7099,335.7599,l,1,0.3671,,[],[],[],[],[],[],[],0.3671,1,335.7601,336.2601,,,,,,418,MAS,AGR,150,pájaro,el,l,336.2601,336.2601,-0.011131973,-0.392351294,0,0,0,,0,148,148,417,1,,,,
,,,,,,,a752ad6491057f7ec94b015d,66a626ef09d4e21e1a8894ec,6734d69484a5ae49314db9ee,2024-11-13_17h41.03.664,Tarea de género gramatical,2024.2.2,MacIntel,60.24096386,,,,,,,,,,,,,,,,,,,,,,,336.261,337.3093,l,1,0.3671,,[],[],[],[],[],[],[],0.3671,1,337.3094,337.8096,,,,,,4,MAS,AGR,150,hijo,el,l,337.8097,337.8097,-0.011131973,-0.392351294,0,0,0,,0,149,149,3,1,,,,
,,,,,,,a752ad6491057f7ec94b015d,66a626ef09d4e21e1a8894ec,6734d69484a5ae49314db9ee,2024-11-13_17h41.03.664,Tarea de género gramatical,2024.2.2,MacIntel,60.24096386,,,,,,,,,,,,,,,,,,,,,,,337.8105,338.8452,l,1,0.3559,,[],[],[],[],[],[],[],0.3559,1,338.8453,339.3443,,,,,,166,MAS,AGR,150,coche,el,l,339.3452,606.3343,-0.011131973,-0.392351294,0,0,0,space,0,150,150,165,1,266.9664,,,
,,,,,,,a752ad6491057f7ec94b015d,66a626ef09d4e21e1a8894ec,6734d69484a5ae49314db9ee,2024-11-13_17h41.03.664,Tarea de género gramatical,2024.2.2,MacIntel,60.24096386,,,,,,,,,,,,,,,,,,,,,,,606.3446,607.5512,l,0,0.5349,,[],[],[],[],[],[],[],0.5349,0,607.5521,608.0504,,,,,,104,FEM,CON,150,vela,,a,608.0505,608.0506,-0.011131973,-0.392351294,0,0,0,,0,151,151,103,1,,,,
,,,,,,,a752ad6491057f7ec94b015d,66a626ef09d4e21e1a8894ec,6734d69484a5ae49314db9ee,2024-11-13_17h41.03.664,Tarea de género gramatical,2024.2.2,MacIntel,60.24096386,,,,,,,,,,,,,,,,,,,,,,,608.0513,609.235,a,1,0.5048,,[],[],[],[],[],[],[],0.5048,1,609.2358,609.7352,,,,,,416,FEM,CON,150,colina,,a,609.7353,609.7354,-0.011131973,-0.392351294,0,0,0,,0,152,152,415,1,,,,
,,,,,,,a752ad6491057f7ec94b015d,66a626ef09d4e21e1a8894ec,6734d69484a5ae49314db9ee,2024-11-13_17h41.03.664,Tarea de género gramatical,2024.2.2,MacIntel,60.24096386,,,,,,,,,,,,,,,,,,,,,,,609.7362,610.9513,a,1,0.534,,[],[],[],[],[],[],[],0.534,1,610.9513,611.4518,,,,,,374,FEM,CON,150,herida,,a,611.4519,611.4519,-0.011131973,-0.392351294,0,0,0,,0,153,153,373,1,,,,
,,,,,,,a752ad6491057f7ec94b015d,66a626ef09d4e21e1a8894ec,6734d69484a5ae49314db9ee,2024-11-13_17h41.03.664,Tarea de género gramatical,2024.2.2,MacIntel,60.24096386,,,,,,,,,,,,,,,,,,,,,,,611.4527,612.5863,l,1,0.451,,[],[],[],[],[],[],[],0.451,1,612.5863,613.0864,,,,,,268,MAS,AGR,150,truco,el,l,613.0865,613.0866,-0.011131973,-0.392351294,0,0,0,,0,154,154,267,1,,,,
,,,,,,,a752ad6491057f7ec94b015d,66a626ef09d4e21e1a8894ec,6734d69484a5ae49314db9ee,2024-11-13_17h41.03.664,Tarea de género gramatical,2024.2.2,MacIntel,60.24096386,,,,,,,,,,,,,,,,,,,,,,,613.0873,614.4035,a,0,0.6325,,[],[],[],[],[],[],[],0.6325,0,614.4045,614.9036,,,,,,138,MAS,DIS,150,luto,la,l,614.9047,614.9054,-0.011131973,-0.392351294,0,0,0,,0,155,155,137,1,,,,
,,,,,,,a752ad6491057f7ec94b015d,66a626ef09d4e21e1a8894ec,6734d69484a5ae49314db9ee,2024-11-13_17h41.03.664,Tarea de género gramatical,2024.2.2,MacIntel,60.24096386,,,,,,,,,,,,,,,,,,,,,,,614.906,616.1872,a,1,0.6042,,[],[],[],[],[],[],[],0.6042,1,616.188,616.6866,,,,,,356,FEM,CON,150,piedra,,a,616.6866,616.6867,-0.011131973,-0.392351294,0,0,0,,0,156,156,355,1,,,,
,,,,,,,a752ad6491057f7ec94b015d,66a626ef09d4e21e1a8894ec,6734d69484a5ae49314db9ee,2024-11-13_17h41.03.664,Tarea de género gramatical,2024.2.2,MacIntel,60.24096386,,,,,,,,,,,,,,,,,,,,,,,616.6877,617.954,l,1,0.5834,,[],[],[],[],[],[],[],0.5834,1,617.9541,618.4549,,,,,,142,MAS,AGR,150,lodo,el,l,618.4549,618.4549,-0.011131973,-0.392351294,0,0,0,,0,157,157,141,1,,,,
,,,,,,,a752ad6491057f7ec94b015d,66a626ef09d4e21e1a8894ec,6734d69484a5ae49314db9ee,2024-11-13_17h41.03.664,Tarea de género gramatical,2024.2.2,MacIntel,60.24096386,,,,,,,,,,,,,,,,,,,,,,,618.4557,619.672,l,1,0.5335,,[],[],[],[],[],[],[],0.5335,1,619.6721,620.1715,,,,,,366,MAS,DIS,150,riesgo,la,l,620.1715,620.1716,-0.011131973,-0.392351294,0,0,0,,0,158,158,365,1,,,,
,,,,,,,a752ad6491057f7ec94b015d,66a626ef09d4e21e1a8894ec,6734d69484a5ae49314db9ee,2024-11-13_17h41.03.664,Tarea de género gramatical,2024.2.2,MacIntel,60.24096386,,,,,,,,,,,,,,,,,,,,,,,620.1725,621.8385,a,1,0.9831,,[],[],[],[],[],[],[],0.9831,1,621.8386,622.3386,,,,,,404,FEM,CON,150,gloria,,a,622.3395,622.3401,-0.011131973,-0.392351294,0,0,0,,0,159,159,403,1,,,,
,,,,,,,a752ad6491057f7ec94b015d,66a626ef09d4e21e1a8894ec,6734d69484a5ae49314db9ee,2024-11-13_17h41.03.664,Tarea de género gramatical,2024.2.2,MacIntel,60.24096386,,,,,,,,,,,,,,,,,,,,,,,622.3407,623.5225,a,1,0.5052,,[],[],[],[],[],[],[],0.5052,1,623.5226,624.0226,,,,,,44,FEM,CON,150,zona,,a,624.0227,624.0227,-0.011131973,-0.392351294,0,0,0,,0,160,160,43,1,,,,
,,,,,,,a752ad6491057f7ec94b015d,66a626ef09d4e21e1a8894ec,6734d69484a5ae49314db9ee,2024-11-13_17h41.03.664,Tarea de género gramatical,2024.2.2,MacIntel,60.24096386,,,,,,,,,,,,,,,,,,,,,,,624.0234,625.223,a,1,0.5176,,[],[],[],[],[],[],[],0.5176,1,625.2232,625.7231,,,,,,320,FEM,CON,150,fiesta,,a,625.7232,625.7232,-0.011131973,-0.392351294,0,0,0,,0,161,161,319,1,,,,
,,,,,,,a752ad6491057f7ec94b015d,66a626ef09d4e21e1a8894ec,6734d69484a5ae49314db9ee,2024-11-13_17h41.03.664,Tarea de género gramatical,2024.2.2,MacIntel,60.24096386,,,,,,,,,,,,,,,,,,,,,,,625.724,626.9567,l,1,0.5518,,[],[],[],[],[],[],[],0.5518,1,626.9568,627.458,,,,,,330,MAS,DIS,150,estado,la,l,627.458,627.458,-0.011131973,-0.392351294,0,0,0,,0,162,162,329,1,,,,
,,,,,,,a752ad6491057f7ec94b015d,66a626ef09d4e21e1a8894ec,6734d69484a5ae49314db9ee,2024-11-13_17h41.03.664,Tarea de género gramatical,2024.2.2,MacIntel,60.24096386,,,,,,,,,,,,,,,,,,,,,,,627.459,628.9743,l,0,0.834,,[],[],[],[],[],[],[],0.834,0,628.9751,629.4748,,,,,,26,FEM,CON,150,pena,,a,629.4749,629.4751,-0.011131973,-0.392351294,0,0,0,,0,163,163,25,1,,,,
,,,,,,,a752ad6491057f7ec94b015d,66a626ef09d4e21e1a8894ec,6734d69484a5ae49314db9ee,2024-11-13_17h41.03.664,Tarea de género gramatical,2024.2.2,MacIntel,60.24096386,,,,,,,,,,,,,,,,,,,,,,,629.4758,631.1918,l,1,1.0341,,[],[],[],[],[],[],[],1.0341,1,631.1925,631.6921,,,,,,246,MAS,DIS,150,humor,la,l,631.693,631.6936,-0.011131973,-0.392351294,0,0,0,,0,164,164,245,1,,,,
,,,,,,,a752ad6491057f7ec94b015d,66a626ef09d4e21e1a8894ec,6734d69484a5ae49314db9ee,2024-11-13_17h41.03.664,Tarea de género gramatical,2024.2.2,MacIntel,60.24096386,,,,,,,,,,,,,,,,,,,,,,,631.6942,632.7925,l,1,0.4172,,[],[],[],[],[],[],[],0.4172,1,632.7925,633.2926,,,,,,160,MAS,AGR,150,señor,el,l,633.2927,633.2928,-0.011131973,-0.392351294,0,0,0,,0,165,165,159,1,,,,
,,,,,,,a752ad6491057f7ec94b015d,66a626ef09d4e21e1a8894ec,6734d69484a5ae49314db9ee,2024-11-13_17h41.03.664,Tarea de género gramatical,2024.2.2,MacIntel,60.24096386,,,,,,,,,,,,,,,,,,,,,,,633.2937,634.4261,a,1,0.4523,,[],[],[],[],[],[],[],0.4523,1,634.4262,634.9263,,,,,,201,FEM,DIS,150,leche,el,a,634.9263,634.9263,-0.011131973,-0.392351294,0,0,0,,0,166,166,200,1,,,,
,,,,,,,a752ad6491057f7ec94b015d,66a626ef09d4e21e1a8894ec,6734d69484a5ae49314db9ee,2024-11-13_17h41.03.664,Tarea de género gramatical,2024.2.2,MacIntel,60.24096386,,,,,,,,,,,,,,,,,,,,,,,634.9272,636.5104,l,1,0.9012,,[],[],[],[],[],[],[],0.9012,1,636.5104,637.0101,,,,,,407,MAS,CON,150,jurado,,l,637.0101,637.0102,-0.011131973,-0.392351294,0,0,0,,0,167,167,406,1,,,,
,,,,,,,a752ad6491057f7ec94b015d,66a626ef09d4e21e1a8894ec,6734d69484a5ae49314db9ee,2024-11-13_17h41.03.664,Tarea de género gramatical,2024.2.2,MacIntel,60.24096386,,,,,,,,,,,,,,,,,,,,,,,637.0113,638.2273,l,1,0.5507,,[],[],[],[],[],[],[],0.5507,1,638.2274,638.7273,,,,,,70,MAS,AGR,150,palo,el,l,638.7282,638.729,-0.011131973,-0.392351294,0,0,0,,0,168,168,69,1,,,,
,,,,,,,a752ad6491057f7ec94b015d,66a626ef09d4e21e1a8894ec,6734d69484a5ae49314db9ee,2024-11-13_17h41.03.664,Tarea de género gramatical,2024.2.2,MacIntel,60.24096386,,,,,,,,,,,,,,,,,,,,,,,638.7298,639.8948,l,1,0.4824,,[],[],[],[],[],[],[],0.4824,1,639.8948,640.3948,,,,,,190,MAS,AGR,150,campo,el,l,640.3948,640.3949,-0.011131973,-0.392351294,0,0,0,,0,169,169,189,1,,,,
,,,,,,,a752ad6491057f7ec94b015d,66a626ef09d4e21e1a8894ec,6734d69484a5ae49314db9ee,2024-11-13_17h41.03.664,Tarea de género gramatical,2024.2.2,MacIntel,60.24096386,,,,,,,,,,,,,,,,,,,,,,,640.3956,641.5121,a,1,0.4502,,[],[],[],[],[],[],[],0.4502,1,641.5121,642.0118,,,,,,229,FEM,AGR,150,celda,la,a,642.0118,642.0119,-0.011131973,-0.392351294,0,0,0,,0,170,170,228,1,,,,
,,,,,,,a752ad6491057f7ec94b015d,66a626ef09d4e21e1a8894ec,6734d69484a5ae49314db9ee,2024-11-13_17h41.03.664,Tarea de género gramatical,2024.2.2,MacIntel,60.24096386,,,,,,,,,,,,,,,,,,,,,,,642.0126,643.2962,l,0,0.6242,,[],[],[],[],[],[],[],0.6242,0,643.2969,643.7958,,,,,,55,FEM,AGR,150,taza,la,a,643.7958,643.7958,-0.011131973,-0.392351294,0,0,0,,0,171,171,54,1,,,,
,,,,,,,a752ad6491057f7ec94b015d,66a626ef09d4e21e1a8894ec,6734d69484a5ae49314db9ee,2024-11-13_17h41.03.664,Tarea de género gramatical,2024.2.2,MacIntel,60.24096386,,,,,,,,,,,,,,,,,,,,,,,643.7966,644.8797,l,1,0.4003,,[],[],[],[],[],[],[],0.4003,1,644.8806,645.3805,,,,,,95,MAS,CON,150,tomo,,l,645.3805,645.3806,-0.011131973,-0.392351294,0,0,0,,0,172,172,94,1,,,,
,,,,,,,a752ad6491057f7ec94b015d,66a626ef09d4e21e1a8894ec,6734d69484a5ae49314db9ee,2024-11-13_17h41.03.664,Tarea de género gramatical,2024.2.2,MacIntel,60.24096386,,,,,,,,,,,,,,,,,,,,,,,645.3814,646.4131,a,1,0.3519,,[],[],[],[],[],[],[],0.3519,1,646.4132,646.9144,,,,,,128,FEM,CON,150,leña,,a,646.9154,646.9159,-0.011131973,-0.392351294,0,0,0,,0,173,173,127,1,,,,
,,,,,,,a752ad6491057f7ec94b015d,66a626ef09d4e21e1a8894ec,6734d69484a5ae49314db9ee,2024-11-13_17h41.03.664,Tarea de género gramatical,2024.2.2,MacIntel,60.24096386,,,,,,,,,,,,,,,,,,,,,,,646.9164,648.0806,a,1,0.4897,,[],[],[],[],[],[],[],0.4897,1,648.0806,648.5812,,,,,,56,FEM,CON,150,bola,,a,648.5812,648.5813,-0.011131973,-0.392351294,0,0,0,,0,174,174,55,1,,,,
,,,,,,,a752ad6491057f7ec94b015d,66a626ef09d4e21e1a8894ec,6734d69484a5ae49314db9ee,2024-11-13_17h41.03.664,Tarea de género gramatical,2024.2.2,MacIntel,60.24096386,,,,,,,,,,,,,,,,,,,,,,,648.582,649.8311,l,1,0.5664,,[],[],[],[],[],[],[],0.5664,1,649.8312,650.3321,,,,,,376,MAS,AGR,150,efecto,el,l,650.3322,650.3324,-0.011131973,-0.392351294,0,0,0,,0,175,175,375,1,,,,
,,,,,,,a752ad6491057f7ec94b015d,66a626ef09d4e21e1a8894ec,6734d69484a5ae49314db9ee,2024-11-13_17h41.03.664,Tarea de género gramatical,2024.2.2,MacIntel,60.24096386,,,,,,,,,,,,,,,,,,,,,,,650.333,651.566,l,1,0.5514,,[],[],[],[],[],[],[],0.5514,1,651.566,652.0661,,,,,,228,MAS,DIS,150,nivel,la,l,652.0662,652.0662,-0.011131973,-0.392351294,0,0,0,,0,176,176,227,1,,,,
,,,,,,,a752ad6491057f7ec94b015d,66a626ef09d4e21e1a8894ec,6734d69484a5ae49314db9ee,2024-11-13_17h41.03.664,Tarea de género gramatical,2024.2.2,MacIntel,60.24096386,,,,,,,,,,,,,,,,,,,,,,,652.067,653.2656,l,1,0.5175,,[],[],[],[],[],[],[],0.5175,1,653.2657,653.7667,,,,,,401,MAS,CON,150,abrigo,,l,653.7678,653.7685,-0.011131973,-0.392351294,0,0,0,,0,177,177,400,1,,,,
,,,,,,,a752ad6491057f7ec94b015d,66a626ef09d4e21e1a8894ec,6734d69484a5ae49314db9ee,2024-11-13_17h41.03.664,Tarea de género gramatical,2024.2.2,MacIntel,60.24096386,,,,,,,,,,,,,,,,,,,,,,,653.7691,654.9165,a,1,0.4672,,[],[],[],[],[],[],[],0.4672,1,654.9165,655.4173,,,,,,325,FEM,AGR,150,tierra,la,a,655.4174,655.4174,-0.011131973,-0.392351294,0,0,0,,0,178,178,324,1,,,,
,,,,,,,a752ad6491057f7ec94b015d,66a626ef09d4e21e1a8894ec,6734d69484a5ae49314db9ee,2024-11-13_17h41.03.664,Tarea de género gramatical,2024.2.2,MacIntel,60.24096386,,,,,,,,,,,,,,,,,,,,,,,655.4183,656.7174,a,1,0.6166,,[],[],[],[],[],[],[],0.6166,1,656.7176,657.2169,,,,,,164,FEM,CON,150,novia,,a,657.2169,657.217,-0.011131973,-0.392351294,0,0,0,,0,179,179,163,1,,,,
,,,,,,,a752ad6491057f7ec94b015d,66a626ef09d4e21e1a8894ec,6734d69484a5ae49314db9ee,2024-11-13_17h41.03.664,Tarea de género gramatical,2024.2.2,MacIntel,60.24096386,,,,,,,,,,,,,,,,,,,,,,,657.2178,658.4339,a,1,0.5384,,[],[],[],[],[],[],[],0.5384,1,658.434,658.9346,,,,,,69,FEM,DIS,150,rata,el,a,658.9346,658.9347,-0.011131973,-0.392351294,0,0,0,,0,180,180,68,1,,,,
,,,,,,,a752ad6491057f7ec94b015d,66a626ef09d4e21e1a8894ec,6734d69484a5ae49314db9ee,2024-11-13_17h41.03.664,Tarea de género gramatical,2024.2.2,MacIntel,60.24096386,,,,,,,,,,,,,,,,,,,,,,,658.9357,660.0846,l,1,0.4691,,[],[],[],[],[],[],[],0.4691,1,660.0847,660.5851,,,,,,78,MAS,DIS,150,oído,la,l,660.5851,660.5852,-0.011131973,-0.392351294,0,0,0,,0,181,181,77,1,,,,
,,,,,,,a752ad6491057f7ec94b015d,66a626ef09d4e21e1a8894ec,6734d69484a5ae49314db9ee,2024-11-13_17h41.03.664,Tarea de género gramatical,2024.2.2,MacIntel,60.24096386,,,,,,,,,,,,,,,,,,,,,,,660.5859,661.8694,l,1,0.6175,,[],[],[],[],[],[],[],0.6175,1,661.8695,662.3685,,,,,,113,MAS,CON,150,toro,,l,662.3697,662.3702,-0.011131973,-0.392351294,0,0,0,,0,182,182,112,1,,,,
,,,,,,,a752ad6491057f7ec94b015d,66a626ef09d4e21e1a8894ec,6734d69484a5ae49314db9ee,2024-11-13_17h41.03.664,Tarea de género gramatical,2024.2.2,MacIntel,60.24096386,,,,,,,,,,,,,,,,,,,,,,,662.3708,663.5031,a,1,0.4511,,[],[],[],[],[],[],[],0.4511,1,663.5031,664.0029,,,,,,33,FEM,DIS,150,boda,el,a,664.003,664.0031,-0.011131973,-0.392351294,0,0,0,,0,183,183,32,1,,,,
,,,,,,,a752ad6491057f7ec94b015d,66a626ef09d4e21e1a8894ec,6734d69484a5ae49314db9ee,2024-11-13_17h41.03.664,Tarea de género gramatical,2024.2.2,MacIntel,60.24096386,,,,,,,,,,,,,,,,,,,,,,,664.0038,665.1366,l,1,0.4509,,[],[],[],[],[],[],[],0.4509,1,665.1366,665.6374,,,,,,426,MAS,DIS,150,pánico,la,l,665.6374,665.6375,-0.011131973,-0.392351294,0,0,0,,0,184,184,425,1,,,,
,,,,,,,a752ad6491057f7ec94b015d,66a626ef09d4e21e1a8894ec,6734d69484a5ae49314db9ee,2024-11-13_17h41.03.664,Tarea de género gramatical,2024.2.2,MacIntel,60.24096386,,,,,,,,,,,,,,,,,,,,,,,665.6384,666.8378,a,1,0.5175,,[],[],[],[],[],[],[],0.5175,1,666.8379,667.3372,,,,,,105,FEM,DIS,150,jefa,el,a,667.3372,667.3373,-0.011131973,-0.392351294,0,0,0,,0,185,185,104,1,,,,
,,,,,,,a752ad6491057f7ec94b015d,66a626ef09d4e21e1a8894ec,6734d69484a5ae49314db9ee,2024-11-13_17h41.03.664,Tarea de género gramatical,2024.2.2,MacIntel,60.24096386,,,,,,,,,,,,,,,,,,,,,,,667.3383,668.4884,l,1,0.4679,,[],[],[],[],[],[],[],0.4679,1,668.4886,668.9884,,,,,,292,MAS,AGR,150,piano,el,l,668.9895,668.9901,-0.011131973,-0.392351294,0,0,0,,0,186,186,291,1,,,,
,,,,,,,a752ad6491057f7ec94b015d,66a626ef09d4e21e1a8894ec,6734d69484a5ae49314db9ee,2024-11-13_17h41.03.664,Tarea de género gramatical,2024.2.2,MacIntel,60.24096386,,,,,,,,,,,,,,,,,,,,,,,668.9906,670.0885,l,1,0.4175,,[],[],[],[],[],[],[],0.4175,1,670.0886,670.5879,,,,,,262,MAS,AGR,150,video,el,l,670.588,670.588,-0.011131973,-0.392351294,0,0,0,,0,187,187,261,1,,,,
,,,,,,,a752ad6491057f7ec94b015d,66a626ef09d4e21e1a8894ec,6734d69484a5ae49314db9ee,2024-11-13_17h41.03.664,Tarea de género gramatical,2024.2.2,MacIntel,60.24096386,,,,,,,,,,,,,,,,,,,,,,,670.5888,671.805,l,0,0.5359,,[],[],[],[],[],[],[],0.5359,0,671.8058,672.3063,,,,,,409,FEM,AGR,150,moneda,la,a,672.3064,672.3064,-0.011131973,-0.392351294,0,0,0,,0,188,188,408,1,,,,
,,,,,,,a752ad6491057f7ec94b015d,66a626ef09d4e21e1a8894ec,6734d69484a5ae49314db9ee,2024-11-13_17h41.03.664,Tarea de género gramatical,2024.2.2,MacIntel,60.24096386,,,,,,,,,,,,,,,,,,,,,,,672.3073,673.4233,l,1,0.4341,,[],[],[],[],[],[],[],0.4341,1,673.4242,673.9236,,,,,,179,MAS,CON,150,viaje,,l,673.9236,673.9237,-0.011131973,-0.392351294,0,0,0,,0,189,189,178,1,,,,
,,,,,,,a752ad6491057f7ec94b015d,66a626ef09d4e21e1a8894ec,6734d69484a5ae49314db9ee,2024-11-13_17h41.03.664,Tarea de género gramatical,2024.2.2,MacIntel,60.24096386,,,,,,,,,,,,,,,,,,,,,,,673.9245,675.0229,l,1,0.4176,,[],[],[],[],[],[],[],0.4176,1,675.023,675.523,,,,,,221,MAS,CON,150,brazo,,l,675.5231,675.5232,-0.011131973,-0.392351294,0,0,0,,0,190,190,220,1,,,,
,,,,,,,a752ad6491057f7ec94b015d,66a626ef09d4e21e1a8894ec,6734d69484a5ae49314db9ee,2024-11-13_17h41.03.664,Tarea de género gramatical,2024.2.2,MacIntel,60.24096386,,,,,,,,,,,,,,,,,,,,,,,675.5241,676.6904,a,1,0.4869,,[],[],[],[],[],[],[],0.4869,1,676.6905,677.1911,,,,,,361,FEM,AGR,150,oferta,la,a,677.192,677.1926,-0.011131973,-0.392351294,0,0,0,,0,191,191,360,1,,,,
,,,,,,,a752ad6491057f7ec94b015d,66a626ef09d4e21e1a8894ec,6734d69484a5ae49314db9ee,2024-11-13_17h41.03.664,Tarea de género gramatical,2024.2.2,MacIntel,60.24096386,,,,,,,,,,,,,,,,,,,,,,,677.1932,678.4747,l,0,0.6011,,[],[],[],[],[],[],[],0.6011,0,678.4755,678.9749,,,,,,85,FEM,AGR,150,gira,la,a,678.9749,678.975,-0.011131973,-0.392351294,0,0,0,,0,192,192,84,1,,,,
,,,,,,,a752ad6491057f7ec94b015d,66a626ef09d4e21e1a8894ec,6734d69484a5ae49314db9ee,2024-11-13_17h41.03.664,Tarea de género gramatical,2024.2.2,MacIntel,60.24096386,,,,,,,,,,,,,,,,,,,,,,,678.9759,680.0087,l,1,0.3539,,[],[],[],[],[],[],[],0.3539,1,680.0095,680.5089,,,,,,185,MAS,CON,150,sueño,,l,680.509,680.509,-0.011131973,-0.392351294,0,0,0,,0,193,193,184,1,,,,
,,,,,,,a752ad6491057f7ec94b015d,66a626ef09d4e21e1a8894ec,6734d69484a5ae49314db9ee,2024-11-13_17h41.03.664,Tarea de género gramatical,2024.2.2,MacIntel,60.24096386,,,,,,,,,,,,,,,,,,,,,,,680.5102,681.6752,a,1,0.484,,[],[],[],[],[],[],[],0.484,1,681.6752,682.1763,,,,,,391,FEM,AGR,150,altura,la,a,682.1763,682.1763,-0.011131973,-0.392351294,0,0,0,,0,194,194,390,1,,,,
,,,,,,,a752ad6491057f7ec94b015d,66a626ef09d4e21e1a8894ec,6734d69484a5ae49314db9ee,2024-11-13_17h41.03.664,Tarea de género gramatical,2024.2.2,MacIntel,60.24096386,,,,,,,,,,,,,,,,,,,,,,,682.1771,683.3099,l,1,0.451,,[],[],[],[],[],[],[],0.451,1,683.3099,683.8096,,,,,,264,MAS,DIS,150,pollo,la,l,683.8106,683.8112,-0.011131973,-0.392351294,0,0,0,,0,195,195,263,1,,,,
,,,,,,,a752ad6491057f7ec94b015d,66a626ef09d4e21e1a8894ec,6734d69484a5ae49314db9ee,2024-11-13_17h41.03.664,Tarea de género gramatical,2024.2.2,MacIntel,60.24096386,,,,,,,,,,,,,,,,,,,,,,,683.8119,685.1432,a,0,0.6502,,[],[],[],[],[],[],[],0.6502,0,685.1439,685.6439,,,,,,310,MAS,AGR,150,nombre,el,l,685.6439,685.6441,-0.011131973,-0.392351294,0,0,0,,0,196,196,309,1,,,,
,,,,,,,a752ad6491057f7ec94b015d,66a626ef09d4e21e1a8894ec,6734d69484a5ae49314db9ee,2024-11-13_17h41.03.664,Tarea de género gramatical,2024.2.2,MacIntel,60.24096386,,,,,,,,,,,,,,,,,,,,,,,685.645,686.8775,l,1,0.5523,,[],[],[],[],[],[],[],0.5523,1,686.8782,687.378,,,,,,280,MAS,AGR,150,salón,el,l,687.3781,687.3782,-0.011131973,-0.392351294,0,0,0,,0,197,197,279,1,,,,
,,,,,,,a752ad6491057f7ec94b015d,66a626ef09d4e21e1a8894ec,6734d69484a5ae49314db9ee,2024-11-13_17h41.03.664,Tarea de género gramatical,2024.2.2,MacIntel,60.24096386,,,,,,,,,,,,,,,,,,,,,,,687.379,688.4784,l,1,0.4167,,[],[],[],[],[],[],[],0.4167,1,688.4784,688.9781,,,,,,124,MAS,AGR,150,clan,el,l,688.9782,688.9782,-0.011131973,-0.392351294,0,0,0,,0,198,198,123,1,,,,
,,,,,,,a752ad6491057f7ec94b015d,66a626ef09d4e21e1a8894ec,6734d69484a5ae49314db9ee,2024-11-13_17h41.03.664,Tarea de género gramatical,2024.2.2,MacIntel,60.24096386,,,,,,,,,,,,,,,,,,,,,,,688.9791,690.1789,a,1,0.5217,,[],[],[],[],[],[],[],0.5217,1,690.179,690.679,,,,,,259,FEM,AGR,150,prima,la,a,690.679,690.6791,-0.011131973,-0.392351294,0,0,0,,0,199,199,258,1,,,,
,,,,,,,a752ad6491057f7ec94b015d,66a626ef09d4e21e1a8894ec,6734d69484a5ae49314db9ee,2024-11-13_17h41.03.664,Tarea de género gramatical,2024.2.2,MacIntel,60.24096386,,,,,,,,,,,,,,,,,,,,,,,690.6799,691.7294,l,1,0.366,,[],[],[],[],[],[],[],0.366,1,691.7296,692.2297,,,,,,234,MAS,DIS,150,héroe,la,l,692.2306,692.2313,-0.011131973,-0.392351294,0,0,0,,0,200,200,233,1,,,,
,,,,,,,a752ad6491057f7ec94b015d,66a626ef09d4e21e1a8894ec,6734d69484a5ae49314db9ee,2024-11-13_17h41.03.664,Tarea de género gramatical,2024.2.2,MacIntel,60.24096386,,,,,,,,,,,,,,,,,,,,,,,692.2319,693.4458,l,1,0.5345,,[],[],[],[],[],[],[],0.5345,1,693.4459,693.9462,,,,,,450,MAS,DIS,150,conejo,la,l,693.9463,693.9464,-0.011131973,-0.392351294,0,0,0,,0,201,201,449,1,,,,
,,,,,,,a752ad6491057f7ec94b015d,66a626ef09d4e21e1a8894ec,6734d69484a5ae49314db9ee,2024-11-13_17h41.03.664,Tarea de género gramatical,2024.2.2,MacIntel,60.24096386,,,,,,,,,,,,,,,,,,,,,,,693.9471,694.9468,l,1,0.3215,,[],[],[],[],[],[],[],0.3215,1,694.9468,695.4464,,,,,,305,MAS,CON,150,hombre,,l,695.4464,695.4465,-0.011131973,-0.392351294,0,0,0,,0,202,202,304,1,,,,
,,,,,,,a752ad6491057f7ec94b015d,66a626ef09d4e21e1a8894ec,6734d69484a5ae49314db9ee,2024-11-13_17h41.03.664,Tarea de género gramatical,2024.2.2,MacIntel,60.24096386,,,,,,,,,,,,,,,,,,,,,,,695.4472,696.4803,l,1,0.3501,,[],[],[],[],[],[],[],0.3501,1,696.4804,696.9808,,,,,,414,MAS,DIS,150,sótano,la,l,696.9809,696.981,-0.011131973,-0.392351294,0,0,0,,0,203,203,413,1,,,,
,,,,,,,a752ad6491057f7ec94b015d,66a626ef09d4e21e1a8894ec,6734d69484a5ae49314db9ee,2024-11-13_17h41.03.664,Tarea de género gramatical,2024.2.2,MacIntel,60.24096386,,,,,,,,,,,,,,,,,,,,,,,696.9816,698.1475,a,1,0.4861,,[],[],[],[],[],[],[],0.4861,1,698.1476,698.6483,,,,,,187,FEM,AGR,150,lista,la,a,698.6491,698.6498,-0.011131973,-0.392351294,0,0,0,,0,204,204,186,1,,,,
,,,,,,,a752ad6491057f7ec94b015d,66a626ef09d4e21e1a8894ec,6734d69484a5ae49314db9ee,2024-11-13_17h41.03.664,Tarea de género gramatical,2024.2.2,MacIntel,60.24096386,,,,,,,,,,,,,,,,,,,,,,,698.6504,699.6817,l,1,0.351,,[],[],[],[],[],[],[],0.351,1,699.6818,700.1815,,,,,,335,MAS,CON,150,montón,,l,700.1816,700.1817,-0.011131973,-0.392351294,0,0,0,,0,205,205,334,1,,,,
,,,,,,,a752ad6491057f7ec94b015d,66a626ef09d4e21e1a8894ec,6734d69484a5ae49314db9ee,2024-11-13_17h41.03.664,Tarea de género gramatical,2024.2.2,MacIntel,60.24096386,,,,,,,,,,,,,,,,,,,,,,,700.1825,701.3658,l,1,0.5168,,[],[],[],[],[],[],[],0.5168,1,701.3659,701.8663,,,,,,370,MAS,AGR,150,seguro,el,l,701.8664,701.8664,-0.011131973,-0.392351294,0,0,0,,0,206,206,369,1,,,,
,,,,,,,a752ad6491057f7ec94b015d,66a626ef09d4e21e1a8894ec,6734d69484a5ae49314db9ee,2024-11-13_17h41.03.664,Tarea de género gramatical,2024.2.2,MacIntel,60.24096386,,,,,,,,,,,,,,,,,,,,,,,701.8673,703.4167,l,1,0.8668,,[],[],[],[],[],[],[],0.8668,1,703.4168,703.9158,,,,,,94,MAS,AGR,150,cabo,el,l,703.9159,703.916,-0.011131973,-0.392351294,0,0,0,,0,207,207,93,1,,,,
,,,,,,,a752ad6491057f7ec94b015d,66a626ef09d4e21e1a8894ec,6734d69484a5ae49314db9ee,2024-11-13_17h41.03.664,Tarea de género gramatical,2024.2.2,MacIntel,60.24096386,,,,,,,,,,,,,,,,,,,,,,,703.9167,705.2165,a,1,0.6329,,[],[],[],[],[],[],[],0.6329,1,705.2166,705.7175,,,,,,236,FEM,CON,150,deuda,,a,705.7176,705.7177,-0.011131973,-0.392351294,0,0,0,,0,208,208,235,1,,,,
,,,,,,,a752ad6491057f7ec94b015d,66a626ef09d4e21e1a8894ec,6734d69484a5ae49314db9ee,2024-11-13_17h41.03.664,Tarea de género gramatical,2024.2.2,MacIntel,60.24096386,,,,,,,,,,,,,,,,,,,,,,,705.7186,706.784,l,1,0.383,,[],[],[],[],[],[],[],0.383,1,706.7842,707.2837,,,,,,192,MAS,DIS,150,grupo,la,l,707.2847,707.2853,-0.011131973,-0.392351294,0,0,0,,0,209,209,191,1,,,,
,,,,,,,a752ad6491057f7ec94b015d,66a626ef09d4e21e1a8894ec,6734d69484a5ae49314db9ee,2024-11-13_17h41.03.664,Tarea de género gramatical,2024.2.2,MacIntel,60.24096386,,,,,,,,,,,,,,,,,,,,,,,707.286,708.4006,l,1,0.4402,,[],[],[],[],[],[],[],0.4402,1,708.4007,708.9009,,,,,,286,MAS,AGR,150,reino,el,l,708.9009,708.9011,-0.011131973,-0.392351294,0,0,0,,0,210,210,285,1,,,,
,,,,,,,a752ad6491057f7ec94b015d,66a626ef09d4e21e1a8894ec,6734d69484a5ae49314db9ee,2024-11-13_17h41.03.664,Tarea de género gramatical,2024.2.2,MacIntel,60.24096386,,,,,,,,,,,,,,,,,,,,,,,708.9019,709.9846,l,1,0.4006,,[],[],[],[],[],[],[],0.4006,1,709.9847,710.4853,,,,,,274,MAS,AGR,150,motor,el,l,710.4855,710.4856,-0.011131973,-0.392351294,0,0,0,,0,211,211,273,1,,,,
,,,,,,,a752ad6491057f7ec94b015d,66a626ef09d4e21e1a8894ec,6734d69484a5ae49314db9ee,2024-11-13_17h41.03.664,Tarea de género gramatical,2024.2.2,MacIntel,60.24096386,,,,,,,,,,,,,,,,,,,,,,,710.4863,711.5523,l,1,0.3838,,[],[],[],[],[],[],[],0.3838,1,711.5523,712.0527,,,,,,216,MAS,DIS,150,éxito,la,l,712.0529,712.053,-0.011131973,-0.392351294,0,0,0,,0,212,212,215,1,,,,
,,,,,,,a752ad6491057f7ec94b015d,66a626ef09d4e21e1a8894ec,6734d69484a5ae49314db9ee,2024-11-13_17h41.03.664,Tarea de género gramatical,2024.2.2,MacIntel,60.24096386,,,,,,,,,,,,,,,,,,,,,,,712.054,713.0357,l,1,0.3024,,[],[],[],[],[],[],[],0.3024,1,713.0358,713.5362,,,,,,174,MAS,DIS,150,perro,la,l,713.5372,713.5378,-0.011131973,-0.392351294,0,0,0,,0,213,213,173,1,,,,
,,,,,,,a752ad6491057f7ec94b015d,66a626ef09d4e21e1a8894ec,6734d69484a5ae49314db9ee,2024-11-13_17h41.03.664,Tarea de género gramatical,2024.2.2,MacIntel,60.24096386,,,,,,,,,,,,,,,,,,,,,,,713.5385,714.737,a,1,0.5165,,[],[],[],[],[],[],[],0.5165,1,714.7371,715.2366,,,,,,296,FEM,CON,150,feria,,a,715.2366,715.2367,-0.011131973,-0.392351294,0,0,0,,0,214,214,295,1,,,,
,,,,,,,a752ad6491057f7ec94b015d,66a626ef09d4e21e1a8894ec,6734d69484a5ae49314db9ee,2024-11-13_17h41.03.664,Tarea de género gramatical,2024.2.2,MacIntel,60.24096386,,,,,,,,,,,,,,,,,,,,,,,715.2375,716.4875,l,0,0.5674,,[],[],[],[],[],[],[],0.5674,0,716.4882,716.9876,,,,,,3,FEM,DIS,150,cosa,el,a,716.9876,716.9877,-0.011131973,-0.392351294,0,0,0,,0,215,215,2,1,,,,
,,,,,,,a752ad6491057f7ec94b015d,66a626ef09d4e21e1a8894ec,6734d69484a5ae49314db9ee,2024-11-13_17h41.03.664,Tarea de género gramatical,2024.2.2,MacIntel,60.24096386,,,,,,,,,,,,,,,,,,,,,,,716.9886,718.1208,l,1,0.4506,,[],[],[],[],[],[],[],0.4506,1,718.1215,718.6211,,,,,,298,MAS,AGR,150,botón,el,l,718.6211,718.6213,-0.011131973,-0.392351294,0,0,0,,0,216,216,297,1,,,,
,,,,,,,a752ad6491057f7ec94b015d,66a626ef09d4e21e1a8894ec,6734d69484a5ae49314db9ee,2024-11-13_17h41.03.664,Tarea de género gramatical,2024.2.2,MacIntel,60.24096386,,,,,,,,,,,,,,,,,,,,,,,718.622,719.7716,l,1,0.4674,,[],[],[],[],[],[],[],0.4674,1,719.7717,720.2718,,,,,,382,MAS,AGR,150,teatro,el,l,720.2718,720.272,-0.011131973,-0.392351294,0,0,0,,0,217,217,381,1,,,,
,,,,,,,a752ad6491057f7ec94b015d,66a626ef09d4e21e1a8894ec,6734d69484a5ae49314db9ee,2024-11-13_17h41.03.664,Tarea de género gramatical,2024.2.2,MacIntel,60.24096386,,,,,,,,,,,,,,,,,,,,,,,720.2726,721.3892,l,1,0.4338,,[],[],[],[],[],[],[],0.4338,1,721.3892,721.8888,,,,,,323,MAS,CON,150,marido,,l,721.89,721.8905,-0.011131973,-0.392351294,0,0,0,,0,218,218,322,1,,,,
,,,,,,,a752ad6491057f7ec94b015d,66a626ef09d4e21e1a8894ec,6734d69484a5ae49314db9ee,2024-11-13_17h41.03.664,Tarea de género gramatical,2024.2.2,MacIntel,60.24096386,,,,,,,,,,,,,,,,,,,,,,,721.8914,723.0397,a,1,0.4658,,[],[],[],[],[],[],[],0.4658,1,723.0398,723.5402,,,,,,289,FEM,AGR,150,tabla,la,a,723.5402,723.5402,-0.011131973,-0.392351294,0,0,0,,0,219,219,288,1,,,,
,,,,,,,a752ad6491057f7ec94b015d,66a626ef09d4e21e1a8894ec,6734d69484a5ae49314db9ee,2024-11-13_17h41.03.664,Tarea de género gramatical,2024.2.2,MacIntel,60.24096386,,,,,,,,,,,,,,,,,,,,,,,723.5411,724.7401,a,1,0.5206,,[],[],[],[],[],[],[],0.5206,1,724.7402,725.2397,,,,,,343,FEM,AGR,150,trampa,la,a,725.2397,725.2399,-0.011131973,-0.392351294,0,0,0,,0,220,220,342,1,,,,
,,,,,,,a752ad6491057f7ec94b015d,66a626ef09d4e21e1a8894ec,6734d69484a5ae49314db9ee,2024-11-13_17h41.03.664,Tarea de género gramatical,2024.2.2,MacIntel,60.24096386,,,,,,,,,,,,,,,,,,,,,,,725.2407,726.3078,l,1,0.3868,,[],[],[],[],[],[],[],0.3868,1,726.3079,726.8071,,,,,,317,MAS,CON,150,número,,l,726.8072,726.8073,-0.011131973,-0.392351294,0,0,0,,0,221,221,316,1,,,,
,,,,,,,a752ad6491057f7ec94b015d,66a626ef09d4e21e1a8894ec,6734d69484a5ae49314db9ee,2024-11-13_17h41.03.664,Tarea de género gramatical,2024.2.2,MacIntel,60.24096386,,,,,,,,,,,,,,,,,,,,,,,726.8081,728.0245,l,1,0.5306,,[],[],[],[],[],[],[],0.5306,1,728.0245,728.5243,,,,,,329,MAS,CON,150,futuro,,l,728.5253,728.5258,-0.011131973,-0.392351294,0,0,0,,0,222,222,328,1,,,,
,,,,,,,a752ad6491057f7ec94b015d,66a626ef09d4e21e1a8894ec,6734d69484a5ae49314db9ee,2024-11-13_17h41.03.664,Tarea de género gramatical,2024.2.2,MacIntel,60.24096386,,,,,,,,,,,,,,,,,,,,,,,728.5264,729.7246,l,1,0.5169,,[],[],[],[],[],[],[],0.5169,1,729.7246,730.2257,,,,,,12,MAS,DIS,150,plan,la,l,730.2258,730.2259,-0.011131973,-0.392351294,0,0,0,,0,223,223,11,1,,,,
,,,,,,,a752ad6491057f7ec94b015d,66a626ef09d4e21e1a8894ec,6734d69484a5ae49314db9ee,2024-11-13_17h41.03.664,Tarea de género gramatical,2024.2.2,MacIntel,60.24096386,,,,,,,,,,,,,,,,,,,,,,,730.2267,731.3254,l,1,0.4186,,[],[],[],[],[],[],[],0.4186,1,731.3255,731.8262,,,,,,10,MAS,AGR,150,niño,el,l,731.8263,731.8264,-0.011131973,-0.392351294,0,0,0,,0,224,224,9,1,,,,
,,,,,,,a752ad6491057f7ec94b015d,66a626ef09d4e21e1a8894ec,6734d69484a5ae49314db9ee,2024-11-13_17h41.03.664,Tarea de género gramatical,2024.2.2,MacIntel,60.24096386,,,,,,,,,,,,,,,,,,,,,,,731.8273,733.0591,l,1,0.5546,,[],[],[],[],[],[],[],0.5546,1,733.0592,733.5594,,,,,,84,MAS,DIS,150,mago,la,l,733.5594,733.5595,-0.011131973,-0.392351294,0,0,0,,0,225,225,83,1,,,,
,,,,,,,a752ad6491057f7ec94b015d,66a626ef09d4e21e1a8894ec,6734d69484a5ae49314db9ee,2024-11-13_17h41.03.664,Tarea de género gramatical,2024.2.2,MacIntel,60.24096386,,,,,,,,,,,,,,,,,,,,,,,733.5603,734.7105,l,1,0.4835,,[],[],[],[],[],[],[],0.4835,1,734.7106,735.2107,,,,,,377,MAS,CON,150,jardín,,l,735.2108,735.2108,-0.011131973,-0.392351294,0,0,0,,0,226,226,376,1,,,,
,,,,,,,a752ad6491057f7ec94b015d,66a626ef09d4e21e1a8894ec,6734d69484a5ae49314db9ee,2024-11-13_17h41.03.664,Tarea de género gramatical,2024.2.2,MacIntel,60.24096386,,,,,,,,,,,,,,,,,,,,,,,735.2117,736.3273,l,1,0.4329,,[],[],[],[],[],[],[],0.4329,1,736.3274,736.8279,,,,,,203,MAS,CON,150,novio,,l,736.8289,736.8295,-0.011131973,-0.392351294,0,0,0,,0,227,227,202,1,,,,
,,,,,,,a752ad6491057f7ec94b015d,66a626ef09d4e21e1a8894ec,6734d69484a5ae49314db9ee,2024-11-13_17h41.03.664,Tarea de género gramatical,2024.2.2,MacIntel,60.24096386,,,,,,,,,,,,,,,,,,,,,,,736.8302,738.0617,l,0,0.5515,,[],[],[],[],[],[],[],0.5515,0,738.0625,738.5618,,,,,,218,FEM,CON,150,nieve,,a,738.5619,738.562,-0.011131973,-0.392351294,0,0,0,,0,228,228,217,1,,,,
,,,,,,,a752ad6491057f7ec94b015d,66a626ef09d4e21e1a8894ec,6734d69484a5ae49314db9ee,2024-11-13_17h41.03.664,Tarea de género gramatical,2024.2.2,MacIntel,60.24096386,,,,,,,,,,,,,,,,,,,,,,,738.5628,739.6456,a,1,0.4015,,[],[],[],[],[],[],[],0.4015,1,739.6463,740.1448,,,,,,247,FEM,AGR,150,frase,la,a,740.1448,740.145,-0.011131973,-0.392351294,0,0,0,,0,229,229,246,1,,,,
,,,,,,,a752ad6491057f7ec94b015d,66a626ef09d4e21e1a8894ec,6734d69484a5ae49314db9ee,2024-11-13_17h41.03.664,Tarea de género gramatical,2024.2.2,MacIntel,60.24096386,,,,,,,,,,,,,,,,,,,,,,,740.1459,741.4628,a,1,0.6337,,[],[],[],[],[],[],[],0.6337,1,741.4629,741.9629,,,,,,92,FEM,CON,150,masa,,a,741.963,741.963,-0.011131973,-0.392351294,0,0,0,,0,230,230,91,1,,,,
,,,,,,,a752ad6491057f7ec94b015d,66a626ef09d4e21e1a8894ec,6734d69484a5ae49314db9ee,2024-11-13_17h41.03.664,Tarea de género gramatical,2024.2.2,MacIntel,60.24096386,,,,,,,,,,,,,,,,,,,,,,,741.9638,743.2135,a,1,0.5683,,[],[],[],[],[],[],[],0.5683,1,743.2136,743.7134,,,,,,427,FEM,AGR,150,agenda,la,a,743.7143,743.7149,-0.011131973,-0.392351294,0,0,0,,0,231,231,426,1,,,,
,,,,,,,a752ad6491057f7ec94b015d,66a626ef09d4e21e1a8894ec,6734d69484a5ae49314db9ee,2024-11-13_17h41.03.664,Tarea de género gramatical,2024.2.2,MacIntel,60.24096386,,,,,,,,,,,,,,,,,,,,,,,743.7154,744.8973,l,1,0.4995,,[],[],[],[],[],[],[],0.4995,1,744.8974,745.3963,,,,,,41,MAS,CON,150,bote,,l,745.3963,745.3963,-0.011131973,-0.392351294,0,0,0,,0,232,232,40,1,,,,
,,,,,,,a752ad6491057f7ec94b015d,66a626ef09d4e21e1a8894ec,6734d69484a5ae49314db9ee,2024-11-13_17h41.03.664,Tarea de género gramatical,2024.2.2,MacIntel,60.24096386,,,,,,,,,,,,,,,,,,,,,,,745.3971,746.5307,a,1,0.4668,,[],[],[],[],[],[],[],0.4668,1,746.5307,747.0316,,,,,,230,FEM,CON,150,regla,,a,747.0316,747.0317,-0.011131973,-0.392351294,0,0,0,,0,233,233,229,1,,,,
,,,,,,,a752ad6491057f7ec94b015d,66a626ef09d4e21e1a8894ec,6734d69484a5ae49314db9ee,2024-11-13_17h41.03.664,Tarea de género gramatical,2024.2.2,MacIntel,60.24096386,,,,,,,,,,,,,,,,,,,,,,,747.0324,748.1308,l,1,0.4204,,[],[],[],[],[],[],[],0.4204,1,748.1308,748.632,,,,,,71,MAS,CON,150,pozo,,l,748.632,748.632,-0.011131973,-0.392351294,0,0,0,,0,234,234,70,1,,,,
,,,,,,,a752ad6491057f7ec94b015d,66a626ef09d4e21e1a8894ec,6734d69484a5ae49314db9ee,2024-11-13_17h41.03.664,Tarea de género gramatical,2024.2.2,MacIntel,60.24096386,,,,,,,,,,,,,,,,,,,,,,,748.633,749.8982,l,1,0.5834,,[],[],[],[],[],[],[],0.5834,1,749.8983,750.3986,,,,,,59,MAS,CON,150,lobo,,l,750.3986,750.3987,-0.011131973,-0.392351294,0,0,0,,0,235,235,58,1,,,,
,,,,,,,a752ad6491057f7ec94b015d,66a626ef09d4e21e1a8894ec,6734d69484a5ae49314db9ee,2024-11-13_17h41.03.664,Tarea de género gramatical,2024.2.2,MacIntel,60.24096386,,,,,,,,,,,,,,,,,,,,,,,750.3993,751.5828,l,1,0.5006,,[],[],[],[],[],[],[],0.5006,1,751.5828,752.082,,,,,,406,MAS,AGR,150,premio,el,l,752.083,752.0836,-0.011131973,-0.392351294,0,0,0,,0,236,236,405,1,,,,
,,,,,,,a752ad6491057f7ec94b015d,66a626ef09d4e21e1a8894ec,6734d69484a5ae49314db9ee,2024-11-13_17h41.03.664,Tarea de género gramatical,2024.2.2,MacIntel,60.24096386,,,,,,,,,,,,,,,,,,,,,,,752.0842,753.1499,l,0,0.385,,[],[],[],[],[],[],[],0.385,0,753.1507,753.6494,,,,,,49,FEM,AGR,150,piel,la,a,753.6495,753.6496,-0.011131973,-0.392351294,0,0,0,,0,237,237,48,1,,,,
,,,,,,,a752ad6491057f7ec94b015d,66a626ef09d4e21e1a8894ec,6734d69484a5ae49314db9ee,2024-11-13_17h41.03.664,Tarea de género gramatical,2024.2.2,MacIntel,60.24096386,,,,,,,,,,,,,,,,,,,,,,,753.6504,754.6828,l,1,0.3701,,[],[],[],[],[],[],[],0.3701,1,754.6835,755.1832,,,,,,215,MAS,CON,150,hueso,,l,755.1832,755.1833,-0.011131973,-0.392351294,0,0,0,,0,238,238,214,1,,,,
,,,,,,,a752ad6491057f7ec94b015d,66a626ef09d4e21e1a8894ec,6734d69484a5ae49314db9ee,2024-11-13_17h41.03.664,Tarea de género gramatical,2024.2.2,MacIntel,60.24096386,,,,,,,,,,,,,,,,,,,,,,,755.1841,756.3345,l,1,0.4679,,[],[],[],[],[],[],[],0.4679,1,756.3346,756.8335,,,,,,196,MAS,AGR,150,barco,el,l,756.8336,756.8336,-0.011131973,-0.392351294,0,0,0,,0,239,239,195,1,,,,
,,,,,,,a752ad6491057f7ec94b015d,66a626ef09d4e21e1a8894ec,6734d69484a5ae49314db9ee,2024-11-13_17h41.03.664,Tarea de género gramatical,2024.2.2,MacIntel,60.24096386,,,,,,,,,,,,,,,,,,,,,,,756.8345,757.9506,a,1,0.4508,,[],[],[],[],[],[],[],0.4508,1,757.9506,758.451,,,,,,165,FEM,DIS,150,amiga,el,a,758.4519,758.4526,-0.011131973,-0.392351294,0,0,0,,0,240,240,164,1,,,,
,,,,,,,a752ad6491057f7ec94b015d,66a626ef09d4e21e1a8894ec,6734d69484a5ae49314db9ee,2024-11-13_17h41.03.664,Tarea de género gramatical,2024.2.2,MacIntel,60.24096386,,,,,,,,,,,,,,,,,,,,,,,758.453,759.8189,a,1,0.6858,,[],[],[],[],[],[],[],0.6858,1,759.819,760.3183,,,,,,147,FEM,DIS,150,grúa,el,a,760.3183,760.3184,-0.011131973,-0.392351294,0,0,0,,0,241,241,146,1,,,,
,,,,,,,a752ad6491057f7ec94b015d,66a626ef09d4e21e1a8894ec,6734d69484a5ae49314db9ee,2024-11-13_17h41.03.664,Tarea de género gramatical,2024.2.2,MacIntel,60.24096386,,,,,,,,,,,,,,,,,,,,,,,760.3192,761.586,l,1,0.6039,,[],[],[],[],[],[],[],0.6039,1,761.5861,762.0864,,,,,,258,MAS,DIS,150,polvo,la,l,762.0864,762.0865,-0.011131973,-0.392351294,0,0,0,,0,242,242,257,1,,,,
,,,,,,,a752ad6491057f7ec94b015d,66a626ef09d4e21e1a8894ec,6734d69484a5ae49314db9ee,2024-11-13_17h41.03.664,Tarea de género gramatical,2024.2.2,MacIntel,60.24096386,,,,,,,,,,,,,,,,,,,,,,,762.0874,763.2535,a,1,0.4844,,[],[],[],[],[],[],[],0.4844,1,763.2536,763.7535,,,,,,231,FEM,DIS,150,bruja,el,a,763.7536,763.7537,-0.011131973,-0.392351294,0,0,0,,0,243,243,230,1,,,,
,,,,,,,a752ad6491057f7ec94b015d,66a626ef09d4e21e1a8894ec,6734d69484a5ae49314db9ee,2024-11-13_17h41.03.664,Tarea de género gramatical,2024.2.2,MacIntel,60.24096386,,,,,,,,,,,,,,,,,,,,,,,763.7547,764.8706,l,1,0.4338,,[],[],[],[],[],[],[],0.4338,1,764.8707,765.3707,,,,,,40,MAS,AGR,150,dios,el,l,765.3707,765.3708,-0.011131973,-0.392351294,0,0,0,,0,244,244,39,1,,,,
,,,,,,,a752ad6491057f7ec94b015d,66a626ef09d4e21e1a8894ec,6734d69484a5ae49314db9ee,2024-11-13_17h41.03.664,Tarea de género gramatical,2024.2.2,MacIntel,60.24096386,,,,,,,,,,,,,,,,,,,,,,,765.3718,766.7547,a,1,0.7018,,[],[],[],[],[],[],[],0.7018,1,766.7548,767.2549,,,,,,373,FEM,AGR,150,lluvia,la,a,767.2558,767.2566,-0.011131973,-0.392351294,0,0,0,,0,245,245,372,1,,,,
,,,,,,,a752ad6491057f7ec94b015d,66a626ef09d4e21e1a8894ec,6734d69484a5ae49314db9ee,2024-11-13_17h41.03.664,Tarea de género gramatical,2024.2.2,MacIntel,60.24096386,,,,,,,,,,,,,,,,,,,,,,,767.2575,768.4553,l,1,0.5168,,[],[],[],[],[],[],[],0.5168,1,768.4553,768.9554,,,,,,178,MAS,AGR,150,punto,el,l,768.9554,768.9555,-0.011131973,-0.392351294,0,0,0,,0,246,246,177,1,,,,
,,,,,,,a752ad6491057f7ec94b015d,66a626ef09d4e21e1a8894ec,6734d69484a5ae49314db9ee,2024-11-13_17h41.03.664,Tarea de género gramatical,2024.2.2,MacIntel,60.24096386,,,,,,,,,,,,,,,,,,,,,,,768.9564,770.1391,l,1,0.501,,[],[],[],[],[],[],[],0.501,1,770.1392,770.6391,,,,,,5,MAS,CON,150,tipo,,l,770.6391,770.6391,-0.011131973,-0.392351294,0,0,0,,0,247,247,4,1,,,,
,,,,,,,a752ad6491057f7ec94b015d,66a626ef09d4e21e1a8894ec,6734d69484a5ae49314db9ee,2024-11-13_17h41.03.664,Tarea de género gramatical,2024.2.2,MacIntel,60.24096386,,,,,,,,,,,,,,,,,,,,,,,770.6399,771.8059,a,1,0.4841,,[],[],[],[],[],[],[],0.4841,1,771.806,772.3065,,,,,,319,FEM,AGR,150,sangre,la,a,772.3066,772.3067,-0.011131973,-0.392351294,0,0,0,,0,248,248,318,1,,,,
