counterbalancing_condition,consent_prescreening.block_1/declare_consent,consent_prescreening.block_1/age_years,consent_prescreening.block_1/gender,consent_prescreening.block_1/language_disorder,consent_prescreening.block_1/first_language,PROLIFIC_PID,STUDY_ID,SESSION_ID,date,expName,psychopyVersion,OS,frameRate,check_prescreening_answers.started,check_prescreening_answers.stopped,Instructions.started,Instructions.stopped,instr_done_keyboard.keys,instr_done_keyboard.rt,instr_done_keyboard.duration,instr_done_touch.x,instr_done_touch.y,instr_done_touch.leftButton,instr_done_touch.midButton,instr_done_touch.rightButton,instruction_pages.thisRepN,instruction_pages.thisTrialN,instruction_pages.thisN,instruction_pages.thisIndex,instruction_pages.ran,pageN,phase,instruct_text,has_image,instruct_image,presentTrial.started,presentTrial.stopped,response.keys,response.corr,response.rt,response.duration,touch_resp.x,touch_resp.y,touch_resp.leftButton,touch_resp.midButton,touch_resp.rightButton,touch_resp.time,touch_resp.clicked_name,rt,corr,feedback.started,feedback.stopped,practice_trials.thisRepN,practice_trials.thisTrialN,practice_trials.thisN,practice_trials.thisIndex,practice_trials.ran,TrialID,StimulusType,Condition,PrimeDuration,Prime,Flanker,corrAns,Break.started,Break.stopped,break_done_touch.x,break_done_touch.y,break_done_touch.leftButton,break_done_touch.midButton,break_done_touch.rightButton,break_done_keyboard.keys,experiment_trials.thisRepN,experiment_trials.thisTrialN,experiment_trials.thisN,experiment_trials.thisIndex,experiment_trials.ran,break_done_keyboard.rt,break_done_keyboard.duration,End.started,End.stopped
2,"[""over_18"",""comfortable"",""read_info"",""consent_given""]",21,F,"[""none""]","[""spanish""]",ac572d8c3e2590e8137bcb46,66a626ef09d4e21e1a8894ec,6734d671f59568f435765ece,2024-11-13_17h40.37.793,Tarea de género gramatical,2024.2.2,Win32,20,,,,,,,,,,,,,,,,,,,,,,,,,,,,,,,,,,,,,,,,,,,,,,,,,,,,,,,,,,,,,,,,,,,,
,,,,,,ac572d8c3e2590e8137bcb46,66a626ef09d4e21e1a8894ec,6734d671f59568f435765ece,2024-11-13_17h40.37.793,Tarea de género gramatical,2024.2.2,Win32,20,94.9766,94.9767,,,,,,,,,,,,,,,,,,,,,,,,,,,,,,,,,,,,,,,,,,,,,,,,,,,,,,,,,,,,,,,,,,
,,,,,,ac572d8c3e2590e8137bcb46,66a626ef09d4e21e1a8894ec,6734d671f59568f435765ece,2024-11-13_17h40.37.793,Tarea de género gramatical,2024.2.2,Win32,20,,,94.9937,126.6317,space,31.5147,0.0005,0.036111125,-0.429629644,0,0,0,0,0,0,0,1,1,instructions,"INSTRUCCIONES
Va a realizar una prueba de selección gramatical. Desde el comienzo de la prueba mire siempre al centro de la pantalla. Al cabo de un momento, aparecerán palabras. La tarea consiste en determinar si la palabra del centro (siempre será un sustantivo), pertenece al género masculino o femenino.

Pulse la tecla ESPACIO o toque el botón de abajo para continuar.",0,keyboardresponseFM.png,,,,,,,,,,,,,,,,,,,,,,,,,,,,,,,,,,,,,,,,,,,,,,
,,,,,,ac572d8c3e2590e8137bcb46,66a626ef09d4e21e1a8894ec,6734d671f59568f435765ece,2024-11-13_17h40.37.793,Tarea de género gramatical,2024.2.2,Win32,20,,,126.6359,139.9927,space,13.1843,,0.036111125,-0.429629644,0,0,0,0,1,1,1,1,2,instructions,"Si su dispositivo tiene teclado, pulse la tecla ""A"" para las palabras en femenino (por ejemplo: ""mano"") y la tecla ""L"" para las palabras en masculino(por ejemplo: ""arroz"").
Pulse la tecla ESPACIO o toque el botón de abajo para continuar.",1,keyboardresponseFM.png,,,,,,,,,,,,,,,,,,,,,,,,,,,,,,,,,,,,,,,,,,,,,,
,,,,,,ac572d8c3e2590e8137bcb46,66a626ef09d4e21e1a8894ec,6734d671f59568f435765ece,2024-11-13_17h40.37.793,Tarea de género gramatical,2024.2.2,Win32,20,,,139.9948,142.5978,space,2.449,,0.036111125,-0.429629644,0,0,0,0,2,2,2,1,3,instructions,"Si utiliza un dispositivo sólo táctil, colóquelo en horizontal y utilice los botones de la pantalla. No utilice el ratón.
Pulse la tecla ESPACIO o toque el botón de abajo para continuar.",2,touchresponseFM.png,,,,,,,,,,,,,,,,,,,,,,,,,,,,,,,,,,,,,,,,,,,,,,
,,,,,,ac572d8c3e2590e8137bcb46,66a626ef09d4e21e1a8894ec,6734d671f59568f435765ece,2024-11-13_17h40.37.793,Tarea de género gramatical,2024.2.2,Win32,20,,,142.6007,151.6195,space,8.8766,,0.036111125,-0.429629644,0,0,0,0,3,3,3,1,4,instructions,"Es muy importante que responda con la mayor rapidez y precisión posibles, ya que cada cadena de letras sólo estará en pantalla durante un instante. Si no responde en ese tiempo, aparecerá el mensaje ""Muy lento"" y el experimento pasará a la siguiente palabra. Los primeros 15 intentos serán de práctica y habrá dos descansos durante la prueba.
Pulse la tecla ESPACIO o toque el botón de abajo para iniciar la parte de práctica.",0,keyboardresponseFM.png,,,,,,,,,,,,,,,,,,,,,,,,,,,,,,,,,,,,,,,,,,,,,,
,,,,,,ac572d8c3e2590e8137bcb46,66a626ef09d4e21e1a8894ec,6734d671f59568f435765ece,2024-11-13_17h40.37.793,Tarea de género gramatical,2024.2.2,Win32,20,,,,,,,,,,,,,,,,,,,,,,,151.637,153.7837,a,1,1.3515,,[],[],[],[],[],[],[],1.3515,1,153.7842,154.1958,0,0,0,6,1,2007,FEM,AGR,150,navaja,la,a,,,,,,,,,,,,,,,,,
,,,,,,ac572d8c3e2590e8137bcb46,66a626ef09d4e21e1a8894ec,6734d671f59568f435765ece,2024-11-13_17h40.37.793,Tarea de género gramatical,2024.2.2,Win32,20,,,,,,,,,,,,,,,,,,,,,,,154.1975,155.5317,l,0,0.5426,,[],[],[],[],[],[],[],0.5426,0,155.5327,155.9331,0,1,1,2,1,2003,FEM,DIS,150,daga,el,a,,,,,,,,,,,,,,,,,
,,,,,,ac572d8c3e2590e8137bcb46,66a626ef09d4e21e1a8894ec,6734d671f59568f435765ece,2024-11-13_17h40.37.793,Tarea de género gramatical,2024.2.2,Win32,20,,,,,,,,,,,,,,,,,,,,,,,155.9346,157.7916,a,1,1.0545,,[],[],[],[],[],[],[],1.0545,1,157.7923,158.328,0,2,2,0,1,2001,FEM,AGR,150,nuca,la,a,,,,,,,,,,,,,,,,,
,,,,,,ac572d8c3e2590e8137bcb46,66a626ef09d4e21e1a8894ec,6734d671f59568f435765ece,2024-11-13_17h40.37.793,Tarea de género gramatical,2024.2.2,Win32,20,,,,,,,,,,,,,,,,,,,,,,,158.3293,160.8739,,0,,,[],[],[],[],[],[],[],1.0545,-1,160.8755,161.2747,0,3,3,1,1,2002,FEM,CON,150,pala,,a,,,,,,,,,,,,,,,,,
,,,,,,ac572d8c3e2590e8137bcb46,66a626ef09d4e21e1a8894ec,6734d671f59568f435765ece,2024-11-13_17h40.37.793,Tarea de género gramatical,2024.2.2,Win32,20,,,,,,,,,,,,,,,,,,,,,,,161.2762,162.8452,l,1,0.7946,,[],[],[],[],[],[],[],0.7946,1,162.8458,163.368,0,4,4,12,1,2013,MAS,AGR,150,acero,el,l,,,,,,,,,,,,,,,,,
,,,,,,ac572d8c3e2590e8137bcb46,66a626ef09d4e21e1a8894ec,6734d671f59568f435765ece,2024-11-13_17h40.37.793,Tarea de género gramatical,2024.2.2,Win32,20,,,,,,,,,,,,,,,,,,,,,,,163.369,164.6869,a,1,0.413,,[],[],[],[],[],[],[],0.413,1,164.687,165.235,0,5,5,4,1,2005,FEM,CON,150,placa,,a,,,,,,,,,,,,,,,,,
,,,,,,ac572d8c3e2590e8137bcb46,66a626ef09d4e21e1a8894ec,6734d671f59568f435765ece,2024-11-13_17h40.37.793,Tarea de género gramatical,2024.2.2,Win32,20,,,,,,,,,,,,,,,,,,,,,,,165.2366,166.4477,a,0,0.4156,,[],[],[],[],[],[],[],0.4156,0,166.4485,166.8483,0,6,6,13,1,2014,MAS,CON,150,siglo,,l,,,,,,,,,,,,,,,,,
,,,,,,ac572d8c3e2590e8137bcb46,66a626ef09d4e21e1a8894ec,6734d671f59568f435765ece,2024-11-13_17h40.37.793,Tarea de género gramatical,2024.2.2,Win32,20,,,,,,,,,,,,,,,,,,,,,,,166.8497,168.0925,a,0,0.4513,,[],[],[],[],[],[],[],0.4513,0,168.0926,168.5177,0,7,7,14,1,2015,MAS,DIS,150,robot,la,l,,,,,,,,,,,,,,,,,
,,,,,,ac572d8c3e2590e8137bcb46,66a626ef09d4e21e1a8894ec,6734d671f59568f435765ece,2024-11-13_17h40.37.793,Tarea de género gramatical,2024.2.2,Win32,20,,,,,,,,,,,,,,,,,,,,,,,168.5186,171.1939,,0,,,[],[],[],[],[],[],[],0.4513,-1,171.1946,171.7255,0,8,8,3,1,2004,FEM,AGR,150,venta,la,a,,,,,,,,,,,,,,,,,
,,,,,,ac572d8c3e2590e8137bcb46,66a626ef09d4e21e1a8894ec,6734d671f59568f435765ece,2024-11-13_17h40.37.793,Tarea de género gramatical,2024.2.2,Win32,20,,,,,,,,,,,,,,,,,,,,,,,171.7267,173.0226,a,0,0.5165,,[],[],[],[],[],[],[],0.5165,0,173.0233,173.5559,0,9,9,11,1,2012,MAS,DIS,150,clima,la,l,,,,,,,,,,,,,,,,,
,,,,,,ac572d8c3e2590e8137bcb46,66a626ef09d4e21e1a8894ec,6734d671f59568f435765ece,2024-11-13_17h40.37.793,Tarea de género gramatical,2024.2.2,Win32,20,,,,,,,,,,,,,,,,,,,,,,,173.5568,176.23,,0,,,[],[],[],[],[],[],[],0.5165,-1,176.2307,176.7581,0,10,10,7,1,2008,FEM,CON,150,siesta,,a,,,,,,,,,,,,,,,,,
,,,,,,ac572d8c3e2590e8137bcb46,66a626ef09d4e21e1a8894ec,6734d671f59568f435765ece,2024-11-13_17h40.37.793,Tarea de género gramatical,2024.2.2,Win32,20,,,,,,,,,,,,,,,,,,,,,,,176.7591,178.0853,l,1,0.5355,,[],[],[],[],[],[],[],0.5355,1,178.0859,178.6155,0,11,11,9,1,2010,MAS,AGR,150,vecino,el,l,,,,,,,,,,,,,,,,,
,,,,,,ac572d8c3e2590e8137bcb46,66a626ef09d4e21e1a8894ec,6734d671f59568f435765ece,2024-11-13_17h40.37.793,Tarea de género gramatical,2024.2.2,Win32,20,,,,,,,,,,,,,,,,,,,,,,,178.6164,180.1088,l,1,0.6926,,[],[],[],[],[],[],[],0.6926,1,180.1088,180.5459,0,12,12,8,1,2009,MAS,DIS,150,puerto,la,l,,,,,,,,,,,,,,,,,
,,,,,,ac572d8c3e2590e8137bcb46,66a626ef09d4e21e1a8894ec,6734d671f59568f435765ece,2024-11-13_17h40.37.793,Tarea de género gramatical,2024.2.2,Win32,20,,,,,,,,,,,,,,,,,,,,,,,180.5469,181.8908,l,0,0.4736,1E-04,[],[],[],[],[],[],[],0.4736,0,181.8917,182.3325,0,13,13,5,1,2006,FEM,DIS,150,serie,el,a,,,,,,,,,,,,,,,,,
,,,,,,ac572d8c3e2590e8137bcb46,66a626ef09d4e21e1a8894ec,6734d671f59568f435765ece,2024-11-13_17h40.37.793,Tarea de género gramatical,2024.2.2,Win32,20,,,,,,,,,,,,,,,,,,,,,,,182.3339,183.4426,a,0,0.1743,,[],[],[],[],[],[],[],0.1743,0,183.4427,183.9167,0,14,14,10,1,2011,MAS,CON,150,canal,,l,,,,,,,,,,,,,,,,,
,,,,,,ac572d8c3e2590e8137bcb46,66a626ef09d4e21e1a8894ec,6734d671f59568f435765ece,2024-11-13_17h40.37.793,Tarea de género gramatical,2024.2.2,Win32,20,,,190.7221,193.8069,space,2.9516,,0.036111125,-0.429629644,0,0,0,,,,,,,,,,,193.8535,195.1924,l,1,0.5496,,[],[],[],[],[],[],[],0.5496,1,195.193,195.7077,,,,,,1146,MAS,CON,150,humor,,l,195.708,195.713,0.036111125,-0.429629644,0,0,0,,0,0,0,245,1,,,,
,,,,,,ac572d8c3e2590e8137bcb46,66a626ef09d4e21e1a8894ec,6734d671f59568f435765ece,2024-11-13_17h40.37.793,Tarea de género gramatical,2024.2.2,Win32,20,,,,,,,,,,,,,,,,,,,,,,,195.7142,196.8901,a,1,0.2669,,[],[],[],[],[],[],[],0.2669,1,196.8901,197.4304,,,,,,1003,FEM,DIS,150,fama,el,a,197.4305,197.4305,0.036111125,-0.429629644,0,0,0,,0,1,1,102,1,,,,
,,,,,,ac572d8c3e2590e8137bcb46,66a626ef09d4e21e1a8894ec,6734d671f59568f435765ece,2024-11-13_17h40.37.793,Tarea de género gramatical,2024.2.2,Win32,20,,,,,,,,,,,,,,,,,,,,,,,197.4315,198.8853,l,1,0.6799,,[],[],[],[],[],[],[],0.6799,1,198.8854,199.2885,,,,,,1283,MAS,AGR,150,parque,el,l,199.2898,199.2914,0.036111125,-0.429629644,0,0,0,,0,2,2,382,1,,,,
,,,,,,ac572d8c3e2590e8137bcb46,66a626ef09d4e21e1a8894ec,6734d671f59568f435765ece,2024-11-13_17h40.37.793,Tarea de género gramatical,2024.2.2,Win32,20,,,,,,,,,,,,,,,,,,,,,,,199.2921,200.6267,a,0,0.5297,,[],[],[],[],[],[],[],0.5297,0,200.6273,201.1528,,,,,,1278,MAS,CON,150,pastel,,l,201.153,201.1531,0.036111125,-0.429629644,0,0,0,,0,3,3,377,1,,,,
,,,,,,ac572d8c3e2590e8137bcb46,66a626ef09d4e21e1a8894ec,6734d671f59568f435765ece,2024-11-13_17h40.37.793,Tarea de género gramatical,2024.2.2,Win32,20,,,,,,,,,,,,,,,,,,,,,,,201.1542,202.4868,l,1,0.5491,,[],[],[],[],[],[],[],0.5491,1,202.4874,202.8981,,,,,,1277,MAS,AGR,150,jardín,el,l,202.8982,202.8982,0.036111125,-0.429629644,0,0,0,,0,4,4,376,1,,,,
,,,,,,ac572d8c3e2590e8137bcb46,66a626ef09d4e21e1a8894ec,6734d671f59568f435765ece,2024-11-13_17h40.37.793,Tarea de género gramatical,2024.2.2,Win32,20,,,,,,,,,,,,,,,,,,,,,,,202.8991,204.2171,a,0,0.5376,,[],[],[],[],[],[],[],0.5376,0,204.2178,204.6313,,,,,,1248,MAS,CON,150,anillo,,l,204.6315,204.6315,0.036111125,-0.429629644,0,0,0,,0,5,5,347,1,,,,
,,,,,,ac572d8c3e2590e8137bcb46,66a626ef09d4e21e1a8894ec,6734d671f59568f435765ece,2024-11-13_17h40.37.793,Tarea de género gramatical,2024.2.2,Win32,20,,,,,,,,,,,,,,,,,,,,,,,204.6325,206.3361,a,0,0.9235,,[],[],[],[],[],[],[],0.9235,0,206.3362,206.864,,,,,,1006,MAS,DIS,150,test,la,l,206.8654,206.8671,0.036111125,-0.429629644,0,0,0,,0,6,6,105,1,,,,
,,,,,,ac572d8c3e2590e8137bcb46,66a626ef09d4e21e1a8894ec,6734d671f59568f435765ece,2024-11-13_17h40.37.793,Tarea de género gramatical,2024.2.2,Win32,20,,,,,,,,,,,,,,,,,,,,,,,206.8678,208.5084,a,1,0.8451,,[],[],[],[],[],[],[],0.8451,1,208.509,208.9185,,,,,,1245,FEM,CON,150,pierna,,a,208.9185,208.9187,0.036111125,-0.429629644,0,0,0,,0,7,7,344,1,,,,
,,,,,,ac572d8c3e2590e8137bcb46,66a626ef09d4e21e1a8894ec,6734d671f59568f435765ece,2024-11-13_17h40.37.793,Tarea de género gramatical,2024.2.2,Win32,20,,,,,,,,,,,,,,,,,,,,,,,208.9194,210.2826,a,1,0.5551,,[],[],[],[],[],[],[],0.5551,1,210.2826,210.686,,,,,,1341,FEM,CON,150,medida,,a,210.686,210.686,0.036111125,-0.429629644,0,0,0,,0,8,8,440,1,,,,
,,,,,,ac572d8c3e2590e8137bcb46,66a626ef09d4e21e1a8894ec,6734d671f59568f435765ece,2024-11-13_17h40.37.793,Tarea de género gramatical,2024.2.2,Win32,20,,,,,,,,,,,,,,,,,,,,,,,210.6869,211.9093,a,1,0.4036,,[],[],[],[],[],[],[],0.4036,1,211.9094,212.4512,,,,,,939,FEM,CON,150,luna,,a,212.4512,212.4514,0.036111125,-0.429629644,0,0,0,,0,9,9,38,1,,,,
,,,,,,ac572d8c3e2590e8137bcb46,66a626ef09d4e21e1a8894ec,6734d671f59568f435765ece,2024-11-13_17h40.37.793,Tarea de género gramatical,2024.2.2,Win32,20,,,,,,,,,,,,,,,,,,,,,,,212.4524,213.7577,l,1,0.5305,,[],[],[],[],[],[],[],0.5305,1,213.7578,214.283,,,,,,1170,MAS,CON,150,queso,,l,214.283,214.2831,0.036111125,-0.429629644,0,0,0,,0,10,10,269,1,,,,
,,,,,,ac572d8c3e2590e8137bcb46,66a626ef09d4e21e1a8894ec,6734d671f59568f435765ece,2024-11-13_17h40.37.793,Tarea de género gramatical,2024.2.2,Win32,20,,,,,,,,,,,,,,,,,,,,,,,214.284,216.6563,l,1,1.5873,,[],[],[],[],[],[],[],1.5873,1,216.6564,217.1827,,,,,,1270,MAS,DIS,150,seguro,la,l,217.1841,217.1859,0.036111125,-0.429629644,0,0,0,,0,11,11,369,1,,,,
,,,,,,ac572d8c3e2590e8137bcb46,66a626ef09d4e21e1a8894ec,6734d671f59568f435765ece,2024-11-13_17h40.37.793,Tarea de género gramatical,2024.2.2,Win32,20,,,,,,,,,,,,,,,,,,,,,,,217.187,218.5114,l,1,0.5264,,[],[],[],[],[],[],[],0.5264,1,218.5115,219.0335,,,,,,1217,MAS,AGR,150,número,el,l,219.0337,219.0337,0.036111125,-0.429629644,0,0,0,,0,12,12,316,1,,,,
,,,,,,ac572d8c3e2590e8137bcb46,66a626ef09d4e21e1a8894ec,6734d671f59568f435765ece,2024-11-13_17h40.37.793,Tarea de género gramatical,2024.2.2,Win32,20,,,,,,,,,,,,,,,,,,,,,,,219.0349,220.2456,l,0,0.4171,,[],[],[],[],[],[],[],0.4171,0,220.2463,220.7682,,,,,,1285,FEM,DIS,150,muñeca,el,a,220.7683,220.7683,0.036111125,-0.429629644,0,0,0,,0,13,13,384,1,,,,
,,,,,,ac572d8c3e2590e8137bcb46,66a626ef09d4e21e1a8894ec,6734d671f59568f435765ece,2024-11-13_17h40.37.793,Tarea de género gramatical,2024.2.2,Win32,20,,,,,,,,,,,,,,,,,,,,,,,220.7692,222.1008,l,1,0.5462,,[],[],[],[],[],[],[],0.5462,1,222.1014,222.5015,,,,,,1199,MAS,AGR,150,rumbo,el,l,222.5016,222.5016,0.036111125,-0.429629644,0,0,0,,0,14,14,298,1,,,,
,,,,,,ac572d8c3e2590e8137bcb46,66a626ef09d4e21e1a8894ec,6734d671f59568f435765ece,2024-11-13_17h40.37.793,Tarea de género gramatical,2024.2.2,Win32,20,,,,,,,,,,,,,,,,,,,,,,,222.5026,223.7068,a,1,0.4167,,[],[],[],[],[],[],[],0.4167,1,223.7069,224.1071,,,,,,968,FEM,AGR,150,pata,la,a,224.1085,224.1102,0.036111125,-0.429629644,0,0,0,,0,15,15,67,1,,,,
,,,,,,ac572d8c3e2590e8137bcb46,66a626ef09d4e21e1a8894ec,6734d671f59568f435765ece,2024-11-13_17h40.37.793,Tarea de género gramatical,2024.2.2,Win32,20,,,,,,,,,,,,,,,,,,,,,,,224.1108,225.2948,a,1,0.4045,,[],[],[],[],[],[],[],0.4045,1,225.2948,225.7024,,,,,,1034,FEM,AGR,150,rama,la,a,225.7025,225.7025,0.036111125,-0.429629644,0,0,0,,0,16,16,133,1,,,,
,,,,,,ac572d8c3e2590e8137bcb46,66a626ef09d4e21e1a8894ec,6734d671f59568f435765ece,2024-11-13_17h40.37.793,Tarea de género gramatical,2024.2.2,Win32,20,,,,,,,,,,,,,,,,,,,,,,,225.7034,227.014,a,1,0.5272,,[],[],[],[],[],[],[],0.5272,1,227.0142,227.4148,,,,,,1299,FEM,CON,150,charla,,a,227.4148,227.4149,0.036111125,-0.429629644,0,0,0,,0,17,17,398,1,,,,
,,,,,,ac572d8c3e2590e8137bcb46,66a626ef09d4e21e1a8894ec,6734d671f59568f435765ece,2024-11-13_17h40.37.793,Tarea de género gramatical,2024.2.2,Win32,20,,,,,,,,,,,,,,,,,,,,,,,227.4157,228.633,a,1,0.4416,,[],[],[],[],[],[],[],0.4416,1,228.6331,229.0956,,,,,,1059,FEM,CON,150,clase,,a,229.0957,229.0957,0.036111125,-0.429629644,0,0,0,,0,18,18,158,1,,,,
,,,,,,ac572d8c3e2590e8137bcb46,66a626ef09d4e21e1a8894ec,6734d671f59568f435765ece,2024-11-13_17h40.37.793,Tarea de género gramatical,2024.2.2,Win32,20,,,,,,,,,,,,,,,,,,,,,,,229.0966,230.4178,a,1,0.5311,,[],[],[],[],[],[],[],0.5311,1,230.4179,230.9382,,,,,,997,FEM,DIS,150,capa,el,a,230.9382,230.9383,0.036111125,-0.429629644,0,0,0,,0,19,19,96,1,,,,
,,,,,,ac572d8c3e2590e8137bcb46,66a626ef09d4e21e1a8894ec,6734d671f59568f435765ece,2024-11-13_17h40.37.793,Tarea de género gramatical,2024.2.2,Win32,20,,,,,,,,,,,,,,,,,,,,,,,230.9392,232.3868,l,1,0.6612,0.0001,[],[],[],[],[],[],[],0.6612,1,232.3868,232.9084,,,,,,1163,MAS,AGR,150,carro,el,l,232.9097,232.9113,0.036111125,-0.429629644,0,0,0,,0,20,20,262,1,,,,
,,,,,,ac572d8c3e2590e8137bcb46,66a626ef09d4e21e1a8894ec,6734d671f59568f435765ece,2024-11-13_17h40.37.793,Tarea de género gramatical,2024.2.2,Win32,20,,,,,,,,,,,,,,,,,,,,,,,232.912,234.1458,l,0,0.4316,,[],[],[],[],[],[],[],0.4316,0,234.1464,234.5819,,,,,,1131,FEM,CON,150,bruja,,a,234.5821,234.5821,0.036111125,-0.429629644,0,0,0,,0,21,21,230,1,,,,
,,,,,,ac572d8c3e2590e8137bcb46,66a626ef09d4e21e1a8894ec,6734d671f59568f435765ece,2024-11-13_17h40.37.793,Tarea de género gramatical,2024.2.2,Win32,20,,,,,,,,,,,,,,,,,,,,,,,234.5839,236.0308,a,1,0.661,,[],[],[],[],[],[],[],0.661,1,236.0315,236.5587,,,,,,1202,FEM,AGR,150,cabeza,la,a,236.5587,236.5588,0.036111125,-0.429629644,0,0,0,,0,22,22,301,1,,,,
,,,,,,ac572d8c3e2590e8137bcb46,66a626ef09d4e21e1a8894ec,6734d671f59568f435765ece,2024-11-13_17h40.37.793,Tarea de género gramatical,2024.2.2,Win32,20,,,,,,,,,,,,,,,,,,,,,,,236.5596,238.0107,a,1,0.6711,,[],[],[],[],[],[],[],0.6711,1,238.0107,238.5371,,,,,,1123,FEM,DIS,150,plata,el,a,238.5371,238.5372,0.036111125,-0.429629644,0,0,0,,0,23,23,222,1,,,,
,,,,,,ac572d8c3e2590e8137bcb46,66a626ef09d4e21e1a8894ec,6734d671f59568f435765ece,2024-11-13_17h40.37.793,Tarea de género gramatical,2024.2.2,Win32,20,,,,,,,,,,,,,,,,,,,,,,,238.538,239.873,a,1,0.5422,,[],[],[],[],[],[],[],0.5422,1,239.8731,240.397,,,,,,914,FEM,AGR,150,cara,la,a,240.3983,240.4001,0.036111125,-0.429629644,0,0,0,,0,24,24,13,1,,,,
,,,,,,ac572d8c3e2590e8137bcb46,66a626ef09d4e21e1a8894ec,6734d671f59568f435765ece,2024-11-13_17h40.37.793,Tarea de género gramatical,2024.2.2,Win32,20,,,,,,,,,,,,,,,,,,,,,,,240.4008,241.8709,a,1,0.6829,,[],[],[],[],[],[],[],0.6829,1,241.871,242.2843,,,,,,1196,FEM,AGR,150,feria,la,a,242.2843,242.2844,0.036111125,-0.429629644,0,0,0,,0,25,25,295,1,,,,
,,,,,,ac572d8c3e2590e8137bcb46,66a626ef09d4e21e1a8894ec,6734d671f59568f435765ece,2024-11-13_17h40.37.793,Tarea de género gramatical,2024.2.2,Win32,20,,,,,,,,,,,,,,,,,,,,,,,242.2853,243.7621,l,1,0.6716,1E-04,[],[],[],[],[],[],[],0.6716,1,243.7622,244.1737,,,,,,1216,MAS,DIS,150,cuerpo,la,l,244.1737,244.1739,0.036111125,-0.429629644,0,0,0,,0,26,26,315,1,,,,
,,,,,,ac572d8c3e2590e8137bcb46,66a626ef09d4e21e1a8894ec,6734d671f59568f435765ece,2024-11-13_17h40.37.793,Tarea de género gramatical,2024.2.2,Win32,20,,,,,,,,,,,,,,,,,,,,,,,244.1747,245.8785,a,1,0.9322,,[],[],[],[],[],[],[],0.9322,1,245.8786,246.296,,,,,,1052,FEM,AGR,150,gente,la,a,246.296,246.2961,0.036111125,-0.429629644,0,0,0,,0,27,27,151,1,,,,
,,,,,,ac572d8c3e2590e8137bcb46,66a626ef09d4e21e1a8894ec,6734d671f59568f435765ece,2024-11-13_17h40.37.793,Tarea de género gramatical,2024.2.2,Win32,20,,,,,,,,,,,,,,,,,,,,,,,246.2971,247.6071,l,1,0.5203,,[],[],[],[],[],[],[],0.5203,1,247.6072,248.0139,,,,,,1042,MAS,DIS,150,lodo,la,l,248.014,248.0141,0.036111125,-0.429629644,0,0,0,,0,28,28,141,1,,,,
,,,,,,ac572d8c3e2590e8137bcb46,66a626ef09d4e21e1a8894ec,6734d671f59568f435765ece,2024-11-13_17h40.37.793,Tarea de género gramatical,2024.2.2,Win32,20,,,,,,,,,,,,,,,,,,,,,,,248.015,249.183,a,1,0.3917,,[],[],[],[],[],[],[],0.3917,1,249.1831,249.5852,,,,,,1261,FEM,DIS,150,oferta,el,a,249.5864,249.588,0.036111125,-0.429629644,0,0,0,,0,29,29,360,1,,,,
,,,,,,ac572d8c3e2590e8137bcb46,66a626ef09d4e21e1a8894ec,6734d671f59568f435765ece,2024-11-13_17h40.37.793,Tarea de género gramatical,2024.2.2,Win32,20,,,,,,,,,,,,,,,,,,,,,,,249.5886,250.7575,a,0,0.3825,,[],[],[],[],[],[],[],0.3825,0,250.7582,251.1655,,,,,,1164,MAS,CON,150,pollo,,l,251.1655,251.1656,0.036111125,-0.429629644,0,0,0,,0,30,30,263,1,,,,
,,,,,,ac572d8c3e2590e8137bcb46,66a626ef09d4e21e1a8894ec,6734d671f59568f435765ece,2024-11-13_17h40.37.793,Tarea de género gramatical,2024.2.2,Win32,20,,,,,,,,,,,,,,,,,,,,,,,251.1663,252.4836,l,1,0.5225,,[],[],[],[],[],[],[],0.5225,1,252.4845,253.0185,,,,,,948,MAS,CON,150,loco,,l,253.0186,253.0187,0.036111125,-0.429629644,0,0,0,,0,31,31,47,1,,,,
,,,,,,ac572d8c3e2590e8137bcb46,66a626ef09d4e21e1a8894ec,6734d671f59568f435765ece,2024-11-13_17h40.37.793,Tarea de género gramatical,2024.2.2,Win32,20,,,,,,,,,,,,,,,,,,,,,,,253.0195,254.2093,a,0,0.2788,,[],[],[],[],[],[],[],0.2788,0,254.21,254.6157,,,,,,1018,MAS,DIS,150,baúl,la,l,254.6158,254.6159,0.036111125,-0.429629644,0,0,0,,0,32,32,117,1,,,,
,,,,,,ac572d8c3e2590e8137bcb46,66a626ef09d4e21e1a8894ec,6734d671f59568f435765ece,2024-11-13_17h40.37.793,Tarea de género gramatical,2024.2.2,Win32,20,,,,,,,,,,,,,,,,,,,,,,,254.6167,256.1908,a,1,0.6815,,[],[],[],[],[],[],[],0.6815,1,256.1915,256.7159,,,,,,1117,FEM,DIS,150,tarea,el,a,256.7172,256.7189,0.036111125,-0.429629644,0,0,0,,0,33,33,216,1,,,,
,,,,,,ac572d8c3e2590e8137bcb46,66a626ef09d4e21e1a8894ec,6734d671f59568f435765ece,2024-11-13_17h40.37.793,Tarea de género gramatical,2024.2.2,Win32,20,,,,,,,,,,,,,,,,,,,,,,,256.7196,258.1953,l,1,0.6822,,[],[],[],[],[],[],[],0.6822,1,258.1954,258.6065,,,,,,1080,MAS,CON,150,fuego,,l,258.6065,258.6066,0.036111125,-0.429629644,0,0,0,,0,34,34,179,1,,,,
,,,,,,ac572d8c3e2590e8137bcb46,66a626ef09d4e21e1a8894ec,6734d671f59568f435765ece,2024-11-13_17h40.37.793,Tarea de género gramatical,2024.2.2,Win32,20,,,,,,,,,,,,,,,,,,,,,,,258.6075,259.9168,l,1,0.5311,,[],[],[],[],[],[],[],0.5311,1,259.9169,260.3219,,,,,,1019,MAS,AGR,150,mito,el,l,260.322,260.322,0.036111125,-0.429629644,0,0,0,,0,35,35,118,1,,,,
,,,,,,ac572d8c3e2590e8137bcb46,66a626ef09d4e21e1a8894ec,6734d671f59568f435765ece,2024-11-13_17h40.37.793,Tarea de género gramatical,2024.2.2,Win32,20,,,,,,,,,,,,,,,,,,,,,,,260.3228,261.5124,a,1,0.2809,,[],[],[],[],[],[],[],0.2809,1,261.5125,262.0351,,,,,,1197,FEM,CON,150,manta,,a,262.0351,262.0353,0.037037037,-0.429629644,0,0,0,,0,36,36,296,1,,,,
,,,,,,ac572d8c3e2590e8137bcb46,66a626ef09d4e21e1a8894ec,6734d671f59568f435765ece,2024-11-13_17h40.37.793,Tarea de género gramatical,2024.2.2,Win32,20,,,,,,,,,,,,,,,,,,,,,,,262.0361,263.7729,l,0,0.926,,[],[],[],[],[],[],[],0.926,0,263.7737,264.2966,,,,,,1274,FEM,AGR,150,herida,la,a,264.2966,264.2967,0.037037037,-0.429629644,0,0,0,,0,37,37,373,1,,,,
,,,,,,ac572d8c3e2590e8137bcb46,66a626ef09d4e21e1a8894ec,6734d671f59568f435765ece,2024-11-13_17h40.37.793,Tarea de género gramatical,2024.2.2,Win32,20,,,,,,,,,,,,,,,,,,,,,,,264.2977,265.5108,l,0,0.4319,,[],[],[],[],[],[],[],0.4319,0,265.5108,265.9174,,,,,,1137,FEM,CON,150,ducha,,a,265.9188,265.9204,0.037037037,-0.429629644,0,0,0,,0,38,38,236,1,,,,
,,,,,,ac572d8c3e2590e8137bcb46,66a626ef09d4e21e1a8894ec,6734d671f59568f435765ece,2024-11-13_17h40.37.793,Tarea de género gramatical,2024.2.2,Win32,20,,,,,,,,,,,,,,,,,,,,,,,265.921,267.2479,l,1,0.5325,,[],[],[],[],[],[],[],0.5325,1,267.2485,267.6564,,,,,,1312,MAS,DIS,150,espejo,la,l,267.6565,267.6566,0.037037037,-0.429629644,0,0,0,,0,39,39,411,1,,,,
,,,,,,ac572d8c3e2590e8137bcb46,66a626ef09d4e21e1a8894ec,6734d671f59568f435765ece,2024-11-13_17h40.37.793,Tarea de género gramatical,2024.2.2,Win32,20,,,,,,,,,,,,,,,,,,,,,,,267.6578,268.8645,l,0,0.4236,,[],[],[],[],[],[],[],0.4236,0,268.8652,269.2717,,,,,,1033,FEM,DIS,150,joya,el,a,269.2718,269.2719,0.037037037,-0.429629644,0,0,0,,0,40,40,132,1,,,,
,,,,,,ac572d8c3e2590e8137bcb46,66a626ef09d4e21e1a8894ec,6734d671f59568f435765ece,2024-11-13_17h40.37.793,Tarea de género gramatical,2024.2.2,Win32,20,,,,,,,,,,,,,,,,,,,,,,,269.2726,270.5943,l,1,0.5279,,[],[],[],[],[],[],[],0.5279,1,270.595,271.0174,,,,,,1079,MAS,AGR,150,viaje,el,l,271.0174,271.0175,0.037037037,-0.429629644,0,0,0,,0,41,41,178,1,,,,
,,,,,,ac572d8c3e2590e8137bcb46,66a626ef09d4e21e1a8894ec,6734d671f59568f435765ece,2024-11-13_17h40.37.793,Tarea de género gramatical,2024.2.2,Win32,20,,,,,,,,,,,,,,,,,,,,,,,271.0184,272.4611,l,1,0.66,,[],[],[],[],[],[],[],0.66,1,272.4612,272.9868,,,,,,1306,MAS,DIS,150,premio,la,l,272.9878,272.9895,0.037037037,-0.429629644,0,0,0,,0,42,42,405,1,,,,
,,,,,,ac572d8c3e2590e8137bcb46,66a626ef09d4e21e1a8894ec,6734d671f59568f435765ece,2024-11-13_17h40.37.793,Tarea de género gramatical,2024.2.2,Win32,20,,,,,,,,,,,,,,,,,,,,,,,272.9901,274.3283,l,1,0.5597,,[],[],[],[],[],[],[],0.5597,1,274.3284,274.8405,,,,,,1090,MAS,DIS,150,campo,la,l,274.8405,274.8406,0.037037037,-0.429629644,0,0,0,,0,43,43,189,1,,,,
,,,,,,ac572d8c3e2590e8137bcb46,66a626ef09d4e21e1a8894ec,6734d671f59568f435765ece,2024-11-13_17h40.37.793,Tarea de género gramatical,2024.2.2,Win32,20,,,,,,,,,,,,,,,,,,,,,,,274.8414,276.1739,l,1,0.5449,1E-04,[],[],[],[],[],[],[],0.5449,1,276.174,276.5797,,,,,,1158,MAS,CON,150,polvo,,l,276.5797,276.5799,0.037037037,-0.429629644,0,0,0,,0,44,44,257,1,,,,
,,,,,,ac572d8c3e2590e8137bcb46,66a626ef09d4e21e1a8894ec,6734d671f59568f435765ece,2024-11-13_17h40.37.793,Tarea de género gramatical,2024.2.2,Win32,20,,,,,,,,,,,,,,,,,,,,,,,276.581,277.7989,l,1,0.4112,,[],[],[],[],[],[],[],0.4112,1,277.799,278.2049,,,,,,1314,MAS,CON,150,sótano,,l,278.205,278.2051,0.037037037,-0.429629644,0,0,0,,0,45,45,413,1,,,,
,,,,,,ac572d8c3e2590e8137bcb46,66a626ef09d4e21e1a8894ec,6734d671f59568f435765ece,2024-11-13_17h40.37.793,Tarea de género gramatical,2024.2.2,Win32,20,,,,,,,,,,,,,,,,,,,,,,,278.2059,279.6833,a,1,0.681,,[],[],[],[],[],[],[],0.681,1,279.6835,280.2149,,,,,,1256,FEM,AGR,150,piedra,la,a,280.215,280.2151,0.037037037,-0.429629644,0,0,0,,0,46,46,355,1,,,,
,,,,,,ac572d8c3e2590e8137bcb46,66a626ef09d4e21e1a8894ec,6734d671f59568f435765ece,2024-11-13_17h40.37.793,Tarea de género gramatical,2024.2.2,Win32,20,,,,,,,,,,,,,,,,,,,,,,,280.2158,281.4083,l,1,0.2823,,[],[],[],[],[],[],[],0.2823,1,281.4083,281.9226,,,,,,960,MAS,CON,150,tono,,l,281.9237,281.9253,0.037037037,-0.429629644,0,0,0,,0,47,47,59,1,,,,
,,,,,,ac572d8c3e2590e8137bcb46,66a626ef09d4e21e1a8894ec,6734d671f59568f435765ece,2024-11-13_17h40.37.793,Tarea de género gramatical,2024.2.2,Win32,20,,,,,,,,,,,,,,,,,,,,,,,281.9259,283.2675,a,1,0.5507,,[],[],[],[],[],[],[],0.5507,1,283.2676,283.7142,,,,,,1237,FEM,DIS,150,escena,el,a,283.7143,283.7143,0.037037037,-0.429629644,0,0,0,,0,48,48,336,1,,,,
,,,,,,ac572d8c3e2590e8137bcb46,66a626ef09d4e21e1a8894ec,6734d671f59568f435765ece,2024-11-13_17h40.37.793,Tarea de género gramatical,2024.2.2,Win32,20,,,,,,,,,,,,,,,,,,,,,,,283.7151,285.4537,a,0,0.9368,,[],[],[],[],[],[],[],0.9368,0,285.4544,285.9783,,,,,,978,MAS,CON,150,oído,,l,285.9784,285.9785,0.037037037,-0.430555556,0,0,0,,0,49,49,77,1,,,,
,,,,,,ac572d8c3e2590e8137bcb46,66a626ef09d4e21e1a8894ec,6734d671f59568f435765ece,2024-11-13_17h40.37.793,Tarea de género gramatical,2024.2.2,Win32,20,,,,,,,,,,,,,,,,,,,,,,,285.9793,287.3117,a,1,0.5372,,[],[],[],[],[],[],[],0.5372,1,287.3123,287.8358,,,,,,1064,FEM,AGR,150,novia,la,a,287.8358,287.8358,0.037037037,-0.430555556,0,0,0,,0,50,50,163,1,,,,
,,,,,,ac572d8c3e2590e8137bcb46,66a626ef09d4e21e1a8894ec,6734d671f59568f435765ece,2024-11-13_17h40.37.793,Tarea de género gramatical,2024.2.2,Win32,20,,,,,,,,,,,,,,,,,,,,,,,287.8367,289.4804,l,1,0.8232,,[],[],[],[],[],[],[],0.8232,1,289.4805,289.9028,,,,,,1212,MAS,CON,150,equipo,,l,289.9039,289.9058,0.037037037,-0.430555556,0,0,0,,0,51,51,311,1,,,,
,,,,,,ac572d8c3e2590e8137bcb46,66a626ef09d4e21e1a8894ec,6734d671f59568f435765ece,2024-11-13_17h40.37.793,Tarea de género gramatical,2024.2.2,Win32,20,,,,,,,,,,,,,,,,,,,,,,,289.9068,291.3663,l,1,0.6642,,[],[],[],[],[],[],[],0.6642,1,291.3664,291.8842,,,,,,1116,MAS,CON,150,éxito,,l,291.8842,291.8843,0.037037037,-0.430555556,0,0,0,,0,52,52,215,1,,,,
,,,,,,ac572d8c3e2590e8137bcb46,66a626ef09d4e21e1a8894ec,6734d671f59568f435765ece,2024-11-13_17h40.37.793,Tarea de género gramatical,2024.2.2,Win32,20,,,,,,,,,,,,,,,,,,,,,,,291.8851,293.1936,l,1,0.5351,,[],[],[],[],[],[],[],0.5351,1,293.1936,293.5951,,,,,,1126,MAS,DIS,150,color,la,l,293.5951,293.5952,0.037037037,-0.430555556,0,0,0,,0,53,53,225,1,,,,
,,,,,,ac572d8c3e2590e8137bcb46,66a626ef09d4e21e1a8894ec,6734d671f59568f435765ece,2024-11-13_17h40.37.793,Tarea de género gramatical,2024.2.2,Win32,20,,,,,,,,,,,,,,,,,,,,,,,293.596,294.8031,l,0,0.4014,,[],[],[],[],[],[],[],0.4014,0,294.8038,295.2036,,,,,,1251,FEM,CON,150,espada,,a,295.2036,295.2037,0.037037037,-0.430555556,0,0,0,,0,54,54,350,1,,,,
,,,,,,ac572d8c3e2590e8137bcb46,66a626ef09d4e21e1a8894ec,6734d671f59568f435765ece,2024-11-13_17h40.37.793,Tarea de género gramatical,2024.2.2,Win32,20,,,,,,,,,,,,,,,,,,,,,,,295.2045,296.521,a,0,0.5296,,[],[],[],[],[],[],[],0.5296,0,296.5211,296.9473,,,,,,922,MAS,DIS,150,pelo,la,l,296.9474,296.9475,0.037037037,-0.430555556,0,0,0,,0,55,55,21,1,,,,
,,,,,,ac572d8c3e2590e8137bcb46,66a626ef09d4e21e1a8894ec,6734d671f59568f435765ece,2024-11-13_17h40.37.793,Tarea de género gramatical,2024.2.2,Win32,20,,,,,,,,,,,,,,,,,,,,,,,296.9483,298.6309,l,1,0.8031,,[],[],[],[],[],[],[],0.8031,1,298.6317,299.0444,,,,,,904,MAS,DIS,150,hijo,la,l,299.0455,299.0473,0.037037037,-0.430555556,0,0,0,,0,56,56,3,1,,,,
,,,,,,ac572d8c3e2590e8137bcb46,66a626ef09d4e21e1a8894ec,6734d671f59568f435765ece,2024-11-13_17h40.37.793,Tarea de género gramatical,2024.2.2,Win32,20,,,,,,,,,,,,,,,,,,,,,,,299.0479,300.3873,a,1,0.5478,,[],[],[],[],[],[],[],0.5478,1,300.3875,300.7896,,,,,,1069,FEM,DIS,150,vista,el,a,300.7897,300.7897,0.037037037,-0.430555556,0,0,0,,0,57,57,168,1,,,,
,,,,,,ac572d8c3e2590e8137bcb46,66a626ef09d4e21e1a8894ec,6734d671f59568f435765ece,2024-11-13_17h40.37.793,Tarea de género gramatical,2024.2.2,Win32,20,,,,,,,,,,,,,,,,,,,,,,,300.7906,302.1245,l,1,0.5445,,[],[],[],[],[],[],[],0.5445,1,302.1246,302.6538,,,,,,1204,MAS,DIS,150,tiempo,la,l,302.6538,302.6539,0.037037037,-0.430555556,0,0,0,,0,58,58,303,1,,,,
,,,,,,ac572d8c3e2590e8137bcb46,66a626ef09d4e21e1a8894ec,6734d671f59568f435765ece,2024-11-13_17h40.37.793,Tarea de género gramatical,2024.2.2,Win32,20,,,,,,,,,,,,,,,,,,,,,,,302.6547,303.8758,a,1,0.4322,,[],[],[],[],[],[],[],0.4322,1,303.8758,304.4165,,,,,,1035,FEM,CON,150,raíz,,a,304.4165,304.4166,0.037037037,-0.430555556,0,0,0,,0,59,59,134,1,,,,
,,,,,,ac572d8c3e2590e8137bcb46,66a626ef09d4e21e1a8894ec,6734d671f59568f435765ece,2024-11-13_17h40.37.793,Tarea de género gramatical,2024.2.2,Win32,20,,,,,,,,,,,,,,,,,,,,,,,304.4174,306.007,l,1,0.8038,0.0002,[],[],[],[],[],[],[],0.8038,1,306.0071,306.5367,,,,,,1313,MAS,AGR,150,diario,el,l,306.5377,306.5392,0.037037037,-0.430555556,0,0,0,,0,60,60,412,1,,,,
,,,,,,ac572d8c3e2590e8137bcb46,66a626ef09d4e21e1a8894ec,6734d671f59568f435765ece,2024-11-13_17h40.37.793,Tarea de género gramatical,2024.2.2,Win32,20,,,,,,,,,,,,,,,,,,,,,,,306.54,307.7204,a,0,0.4114,,[],[],[],[],[],[],[],0.4114,0,307.7211,308.256,,,,,,1300,MAS,DIS,150,barrio,la,l,308.256,308.2561,0.037037037,-0.430555556,0,0,0,,0,61,61,399,1,,,,
,,,,,,ac572d8c3e2590e8137bcb46,66a626ef09d4e21e1a8894ec,6734d671f59568f435765ece,2024-11-13_17h40.37.793,Tarea de género gramatical,2024.2.2,Win32,20,,,,,,,,,,,,,,,,,,,,,,,308.257,309.707,l,1,0.6716,,[],[],[],[],[],[],[],0.6716,1,309.7076,310.1084,,,,,,1168,MAS,DIS,150,truco,la,l,310.1084,310.1085,0.037037037,-0.430555556,0,0,0,,0,62,62,267,1,,,,
,,,,,,ac572d8c3e2590e8137bcb46,66a626ef09d4e21e1a8894ec,6734d671f59568f435765ece,2024-11-13_17h40.37.793,Tarea de género gramatical,2024.2.2,Win32,20,,,,,,,,,,,,,,,,,,,,,,,310.1094,311.4461,a,1,0.5424,,[],[],[],[],[],[],[],0.5424,1,311.4462,311.8574,,,,,,1321,FEM,DIS,150,novela,el,a,311.8575,311.8575,0.037037037,-0.430555556,0,0,0,,0,63,63,420,1,,,,
,,,,,,ac572d8c3e2590e8137bcb46,66a626ef09d4e21e1a8894ec,6734d671f59568f435765ece,2024-11-13_17h40.37.793,Tarea de género gramatical,2024.2.2,Win32,20,,,,,,,,,,,,,,,,,,,,,,,311.8584,313.3133,a,1,0.6767,,[],[],[],[],[],[],[],0.6767,1,313.3134,313.7055,,,,,,1148,FEM,AGR,150,letra,la,a,313.7055,313.7056,0.037037037,-0.430555556,0,0,0,,0,64,64,247,1,,,,
,,,,,,ac572d8c3e2590e8137bcb46,66a626ef09d4e21e1a8894ec,6734d671f59568f435765ece,2024-11-13_17h40.37.793,Tarea de género gramatical,2024.2.2,Win32,20,,,,,,,,,,,,,,,,,,,,,,,313.7065,315.24,l,0,0.709,,[],[],[],[],[],[],[],0.709,0,315.2405,315.7682,,,,,,1136,FEM,AGR,150,deuda,la,a,315.7692,315.771,0.037037037,-0.430555556,0,0,0,,0,65,65,235,1,,,,
,,,,,,ac572d8c3e2590e8137bcb46,66a626ef09d4e21e1a8894ec,6734d671f59568f435765ece,2024-11-13_17h40.37.793,Tarea de género gramatical,2024.2.2,Win32,20,,,,,,,,,,,,,,,,,,,,,,,315.7716,317.2161,l,0,0.6048,,[],[],[],[],[],[],[],0.6048,0,317.2161,317.647,,,,,,901,FEM,DIS,150,casa,el,a,317.6471,317.6471,0.037037037,-0.430555556,0,0,0,,0,66,66,0,1,,,,
,,,,,,ac572d8c3e2590e8137bcb46,66a626ef09d4e21e1a8894ec,6734d671f59568f435765ece,2024-11-13_17h40.37.793,Tarea de género gramatical,2024.2.2,Win32,20,,,,,,,,,,,,,,,,,,,,,,,317.648,319.2655,a,1,0.8029,,[],[],[],[],[],[],[],0.8029,1,319.2662,319.797,,,,,,1227,FEM,CON,150,tienda,,a,319.7971,319.7972,0.037037037,-0.430555556,0,0,0,,0,67,67,326,1,,,,
,,,,,,ac572d8c3e2590e8137bcb46,66a626ef09d4e21e1a8894ec,6734d671f59568f435765ece,2024-11-13_17h40.37.793,Tarea de género gramatical,2024.2.2,Win32,20,,,,,,,,,,,,,,,,,,,,,,,319.798,321.101,l,0,0.5169,,[],[],[],[],[],[],[],0.5169,0,321.1017,321.6334,,,,,,1095,FEM,CON,150,pared,,a,321.6334,321.6335,0.037037037,-0.430555556,0,0,0,,0,68,68,194,1,,,,
,,,,,,ac572d8c3e2590e8137bcb46,66a626ef09d4e21e1a8894ec,6734d671f59568f435765ece,2024-11-13_17h40.37.793,Tarea de género gramatical,2024.2.2,Win32,20,,,,,,,,,,,,,,,,,,,,,,,321.6344,322.9856,a,1,0.5704,,[],[],[],[],[],[],[],0.5704,1,322.9864,323.5147,,,,,,921,FEM,CON,150,boca,,a,323.5156,323.5173,0.037037037,-0.430555556,0,0,0,,0,69,69,20,1,,,,
,,,,,,ac572d8c3e2590e8137bcb46,66a626ef09d4e21e1a8894ec,6734d671f59568f435765ece,2024-11-13_17h40.37.793,Tarea de género gramatical,2024.2.2,Win32,20,,,,,,,,,,,,,,,,,,,,,,,323.5179,324.9712,a,1,0.6722,,[],[],[],[],[],[],[],0.6722,1,324.9714,325.3723,,,,,,1154,FEM,AGR,150,caída,la,a,325.3723,325.3725,0.037037037,-0.430555556,0,0,0,,0,70,70,253,1,,,,
,,,,,,ac572d8c3e2590e8137bcb46,66a626ef09d4e21e1a8894ec,6734d671f59568f435765ece,2024-11-13_17h40.37.793,Tarea de género gramatical,2024.2.2,Win32,20,,,,,,,,,,,,,,,,,,,,,,,325.3734,327.4113,l,1,1.2436,0.0001,[],[],[],[],[],[],[],1.2436,1,327.4114,327.8155,,,,,,916,MAS,DIS,150,baño,la,l,327.8156,327.8157,0.037037037,-0.430555556,0,0,0,,0,71,71,15,1,,,,
,,,,,,ac572d8c3e2590e8137bcb46,66a626ef09d4e21e1a8894ec,6734d671f59568f435765ece,2024-11-13_17h40.37.793,Tarea de género gramatical,2024.2.2,Win32,20,,,,,,,,,,,,,,,,,,,,,,,327.8164,329.1314,a,1,0.5334,,[],[],[],[],[],[],[],0.5334,1,329.1315,329.5419,,,,,,932,FEM,AGR,150,caja,la,a,329.5419,329.542,0.037037037,-0.430555556,0,0,0,,0,72,72,31,1,,,,
,,,,,,ac572d8c3e2590e8137bcb46,66a626ef09d4e21e1a8894ec,6734d671f59568f435765ece,2024-11-13_17h40.37.793,Tarea de género gramatical,2024.2.2,Win32,20,,,,,,,,,,,,,,,,,,,,,,,329.5428,331.233,a,1,0.8754,,[],[],[],[],[],[],[],0.8754,1,331.2331,331.672,,,,,,913,FEM,DIS,150,hija,el,a,331.6721,331.6721,0.037037037,-0.430555556,0,0,0,,0,73,73,12,1,,,,
,,,,,,ac572d8c3e2590e8137bcb46,66a626ef09d4e21e1a8894ec,6734d671f59568f435765ece,2024-11-13_17h40.37.793,Tarea de género gramatical,2024.2.2,Win32,20,,,,,,,,,,,,,,,,,,,,,,,331.6733,333.178,a,1,0.6927,,[],[],[],[],[],[],[],0.6927,1,333.1781,333.611,,,,,,1287,FEM,CON,150,página,,a,333.612,333.6138,0.037037037,-0.430555556,0,0,0,,0,74,74,386,1,,,,
,,,,,,ac572d8c3e2590e8137bcb46,66a626ef09d4e21e1a8894ec,6734d671f59568f435765ece,2024-11-13_17h40.37.793,Tarea de género gramatical,2024.2.2,Win32,20,,,,,,,,,,,,,,,,,,,,,,,333.6145,335.0873,a,1,0.6664,,[],[],[],[],[],[],[],0.6664,1,335.0874,335.4936,,,,,,908,FEM,AGR,150,idea,la,a,335.4937,335.4937,0.037037037,-0.430555556,0,0,0,,0,75,75,7,1,,,,
,,,,,,ac572d8c3e2590e8137bcb46,66a626ef09d4e21e1a8894ec,6734d671f59568f435765ece,2024-11-13_17h40.37.793,Tarea de género gramatical,2024.2.2,Win32,20,,,,,,,,,,,,,,,,,,,,,,,335.4946,336.8099,l,1,0.5374,,[],[],[],[],[],[],[],0.5374,1,336.8099,337.3369,,,,,,1043,MAS,AGR,150,faro,el,l,337.337,337.3371,0.037037037,-0.430555556,0,0,0,,0,76,76,142,1,,,,
,,,,,,ac572d8c3e2590e8137bcb46,66a626ef09d4e21e1a8894ec,6734d671f59568f435765ece,2024-11-13_17h40.37.793,Tarea de género gramatical,2024.2.2,Win32,20,,,,,,,,,,,,,,,,,,,,,,,337.3381,338.6522,l,1,0.5392,,[],[],[],[],[],[],[],0.5392,1,338.6523,339.1903,,,,,,1014,MAS,CON,150,menú,,l,339.1904,339.1904,0.037037037,-0.430555556,0,0,0,,0,77,77,113,1,,,,
,,,,,,ac572d8c3e2590e8137bcb46,66a626ef09d4e21e1a8894ec,6734d671f59568f435765ece,2024-11-13_17h40.37.793,Tarea de género gramatical,2024.2.2,Win32,20,,,,,,,,,,,,,,,,,,,,,,,339.1912,340.6354,l,1,0.6611,,[],[],[],[],[],[],[],0.6611,1,340.6354,341.1588,,,,,,1110,MAS,CON,150,baile,,l,341.1598,341.1615,0.037037037,-0.430555556,0,0,0,,0,78,78,209,1,,,,
,,,,,,ac572d8c3e2590e8137bcb46,66a626ef09d4e21e1a8894ec,6734d671f59568f435765ece,2024-11-13_17h40.37.793,Tarea de género gramatical,2024.2.2,Win32,20,,,,,,,,,,,,,,,,,,,,,,,341.1621,342.5064,l,1,0.5516,,[],[],[],[],[],[],[],0.5516,1,342.5065,343.0256,,,,,,1337,MAS,AGR,150,hombro,el,l,343.0256,343.0256,0.037037037,-0.430555556,0,0,0,,0,79,79,436,1,,,,
,,,,,,ac572d8c3e2590e8137bcb46,66a626ef09d4e21e1a8894ec,6734d671f59568f435765ece,2024-11-13_17h40.37.793,Tarea de género gramatical,2024.2.2,Win32,20,,,,,,,,,,,,,,,,,,,,,,,343.0266,344.2091,l,1,0.4069,,[],[],[],[],[],[],[],0.4069,1,344.2092,344.7357,,,,,,1007,MAS,AGR,150,cubo,el,l,344.7357,344.7358,0.037037037,-0.430555556,0,0,0,,0,80,80,106,1,,,,
,,,,,,ac572d8c3e2590e8137bcb46,66a626ef09d4e21e1a8894ec,6734d671f59568f435765ece,2024-11-13_17h40.37.793,Tarea de género gramatical,2024.2.2,Win32,20,,,,,,,,,,,,,,,,,,,,,,,344.7366,346.3246,a,1,0.7813,,[],[],[],[],[],[],[],0.7813,1,346.3247,346.7263,,,,,,1155,FEM,CON,150,tribu,,a,346.7263,346.7264,0.037037037,-0.430555556,0,0,0,,0,81,81,254,1,,,,
,,,,,,ac572d8c3e2590e8137bcb46,66a626ef09d4e21e1a8894ec,6734d671f59568f435765ece,2024-11-13_17h40.37.793,Tarea de género gramatical,2024.2.2,Win32,20,,,,,,,,,,,,,,,,,,,,,,,346.7274,347.9432,l,0,0.3966,,[],[],[],[],[],[],[],0.3966,0,347.9439,348.4886,,,,,,1255,FEM,DIS,150,mirada,el,a,348.4886,348.4887,0.037037037,-0.430555556,0,0,0,,0,82,82,354,1,,,,
,,,,,,ac572d8c3e2590e8137bcb46,66a626ef09d4e21e1a8894ec,6734d671f59568f435765ece,2024-11-13_17h40.37.793,Tarea de género gramatical,2024.2.2,Win32,20,,,,,,,,,,,,,,,,,,,,,,,348.4894,349.8335,a,1,0.5515,,[],[],[],[],[],[],[],0.5515,1,349.8341,350.2487,,,,,,1082,FEM,AGR,150,prisa,la,a,350.2498,350.2515,0.037037037,-0.430555556,0,0,0,,0,83,83,181,1,,,,
,,,,,,ac572d8c3e2590e8137bcb46,66a626ef09d4e21e1a8894ec,6734d671f59568f435765ece,2024-11-13_17h40.37.793,Tarea de género gramatical,2024.2.2,Win32,20,,,,,,,,,,,,,,,,,,,,,,,350.2522,351.9154,a,1,0.8204,,[],[],[],[],[],[],[],0.8204,1,351.9155,352.4283,,,,,,920,FEM,AGR,150,ropa,la,a,352.4283,352.4284,0.037037037,-0.430555556,0,0,0,,0,84,84,19,1,,,,
,,,,,,ac572d8c3e2590e8137bcb46,66a626ef09d4e21e1a8894ec,6734d671f59568f435765ece,2024-11-13_17h40.37.793,Tarea de género gramatical,2024.2.2,Win32,20,,,,,,,,,,,,,,,,,,,,,,,352.4292,353.7355,l,1,0.4163,,[],[],[],[],[],[],[],0.4163,1,353.7356,354.2753,,,,,,1002,MAS,CON,150,coro,,l,354.2754,354.2755,0.037037037,-0.430555556,0,0,0,,0,85,85,101,1,,,,
,,,,,,ac572d8c3e2590e8137bcb46,66a626ef09d4e21e1a8894ec,6734d671f59568f435765ece,2024-11-13_17h40.37.793,Tarea de género gramatical,2024.2.2,Win32,20,,,,,,,,,,,,,,,,,,,,,,,354.2763,355.585,a,1,0.4093,,[],[],[],[],[],[],[],0.4093,1,355.5851,356.0155,,,,,,1281,FEM,CON,150,bebida,,a,356.0156,356.0156,0.037037037,-0.430555556,0,0,0,,0,86,86,380,1,,,,
,,,,,,ac572d8c3e2590e8137bcb46,66a626ef09d4e21e1a8894ec,6734d671f59568f435765ece,2024-11-13_17h40.37.793,Tarea de género gramatical,2024.2.2,Win32,20,,,,,,,,,,,,,,,,,,,,,,,356.0165,357.7368,l,1,0.9408,1E-04,[],[],[],[],[],[],[],0.9408,1,357.7368,358.2683,,,,,,989,MAS,AGR,150,maíz,el,l,358.2693,358.2709,0.037037037,-0.430555556,0,0,0,,0,87,87,88,1,,,,
,,,,,,ac572d8c3e2590e8137bcb46,66a626ef09d4e21e1a8894ec,6734d671f59568f435765ece,2024-11-13_17h40.37.793,Tarea de género gramatical,2024.2.2,Win32,20,,,,,,,,,,,,,,,,,,,,,,,358.2715,359.6099,a,1,0.5378,,[],[],[],[],[],[],[],0.5378,1,359.61,360.0141,,,,,,991,FEM,DIS,150,hoja,el,a,360.0141,360.0142,0.037037037,-0.430555556,0,0,0,,0,88,88,90,1,,,,
,,,,,,ac572d8c3e2590e8137bcb46,66a626ef09d4e21e1a8894ec,6734d671f59568f435765ece,2024-11-13_17h40.37.793,Tarea de género gramatical,2024.2.2,Win32,20,,,,,,,,,,,,,,,,,,,,,,,360.0153,361.3629,a,1,0.547,,[],[],[],[],[],[],[],0.547,1,361.363,361.8917,,,,,,1130,FEM,AGR,150,regla,la,a,361.8917,361.8918,0.037037037,-0.430555556,0,0,0,,0,89,89,229,1,,,,
,,,,,,ac572d8c3e2590e8137bcb46,66a626ef09d4e21e1a8894ec,6734d671f59568f435765ece,2024-11-13_17h40.37.793,Tarea de género gramatical,2024.2.2,Win32,20,,,,,,,,,,,,,,,,,,,,,,,361.8926,363.0927,a,0,0.4093,,[],[],[],[],[],[],[],0.4093,0,363.0933,363.4961,,,,,,1104,MAS,CON,150,papel,,l,363.4962,363.4962,0.037037037,-0.430555556,0,0,0,,0,90,90,203,1,,,,
,,,,,,ac572d8c3e2590e8137bcb46,66a626ef09d4e21e1a8894ec,6734d671f59568f435765ece,2024-11-13_17h40.37.793,Tarea de género gramatical,2024.2.2,Win32,20,,,,,,,,,,,,,,,,,,,,,,,363.497,364.8348,l,0,0.5378,0,[],[],[],[],[],[],[],0.5378,0,364.8349,365.3564,,,,,,1083,FEM,CON,150,llave,,a,365.3565,365.3566,0.037037037,-0.430555556,0,0,0,,0,91,91,182,1,,,,
,,,,,,ac572d8c3e2590e8137bcb46,66a626ef09d4e21e1a8894ec,6734d671f59568f435765ece,2024-11-13_17h40.37.793,Tarea de género gramatical,2024.2.2,Win32,20,,,,,,,,,,,,,,,,,,,,,,,365.3574,366.7132,a,1,0.5401,,[],[],[],[],[],[],[],0.5401,1,366.7138,367.121,,,,,,1292,FEM,AGR,150,maleta,la,a,367.1219,367.1235,0.037037037,-0.430555556,0,0,0,,0,92,92,391,1,,,,
,,,,,,ac572d8c3e2590e8137bcb46,66a626ef09d4e21e1a8894ec,6734d671f59568f435765ece,2024-11-13_17h40.37.793,Tarea de género gramatical,2024.2.2,Win32,20,,,,,,,,,,,,,,,,,,,,,,,367.124,368.0756,a,0,0.1404,,[],[],[],[],[],[],[],0.1404,0,368.0763,368.6062,,,,,,910,MAS,DIS,150,niño,la,l,368.6062,368.6063,0.037037037,-0.430555556,0,0,0,,0,93,93,9,1,,,,
,,,,,,ac572d8c3e2590e8137bcb46,66a626ef09d4e21e1a8894ec,6734d671f59568f435765ece,2024-11-13_17h40.37.793,Tarea de género gramatical,2024.2.2,Win32,20,,,,,,,,,,,,,,,,,,,,,,,368.6071,370.0844,l,1,0.6654,1E-04,[],[],[],[],[],[],[],0.6654,1,370.085,370.5114,,,,,,1247,MAS,AGR,150,cuello,el,l,370.5115,370.5115,0.037037037,-0.430555556,0,0,0,,0,94,94,346,1,,,,
,,,,,,ac572d8c3e2590e8137bcb46,66a626ef09d4e21e1a8894ec,6734d671f59568f435765ece,2024-11-13_17h40.37.793,Tarea de género gramatical,2024.2.2,Win32,20,,,,,,,,,,,,,,,,,,,,,,,370.5124,371.9967,l,0,0.6778,,[],[],[],[],[],[],[],0.6778,0,371.9974,372.4005,,,,,,1045,FEM,DIS,150,bota,el,a,372.4006,372.4007,0.037037037,-0.430555556,0,0,0,,0,95,95,144,1,,,,
,,,,,,ac572d8c3e2590e8137bcb46,66a626ef09d4e21e1a8894ec,6734d671f59568f435765ece,2024-11-13_17h40.37.793,Tarea de género gramatical,2024.2.2,Win32,20,,,,,,,,,,,,,,,,,,,,,,,372.4014,373.8599,a,1,0.6695,,[],[],[],[],[],[],[],0.6695,1,373.8606,374.3916,,,,,,957,FEM,CON,150,moda,,a,374.3926,374.3943,0.037037037,-0.430555556,0,0,0,,0,96,96,56,1,,,,
,,,,,,ac572d8c3e2590e8137bcb46,66a626ef09d4e21e1a8894ec,6734d671f59568f435765ece,2024-11-13_17h40.37.793,Tarea de género gramatical,2024.2.2,Win32,20,,,,,,,,,,,,,,,,,,,,,,,374.3949,376.3051,a,0,1.0851,,[],[],[],[],[],[],[],1.0851,0,376.3057,376.84,,,,,,977,MAS,AGR,150,pico,el,l,376.84,376.8401,0.037037037,-0.430555556,0,0,0,,0,97,97,76,1,,,,
,,,,,,ac572d8c3e2590e8137bcb46,66a626ef09d4e21e1a8894ec,6734d671f59568f435765ece,2024-11-13_17h40.37.793,Tarea de género gramatical,2024.2.2,Win32,20,,,,,,,,,,,,,,,,,,,,,,,376.8409,378.3024,a,1,0.6792,,[],[],[],[],[],[],[],0.6792,1,378.3031,378.6961,,,,,,1129,FEM,DIS,150,celda,el,a,378.6962,378.6963,0.037037037,-0.430555556,0,0,0,,0,98,98,228,1,,,,
,,,,,,ac572d8c3e2590e8137bcb46,66a626ef09d4e21e1a8894ec,6734d671f59568f435765ece,2024-11-13_17h40.37.793,Tarea de género gramatical,2024.2.2,Win32,20,,,,,,,,,,,,,,,,,,,,,,,378.6972,380.3719,l,1,0.8694,,[],[],[],[],[],[],[],0.8694,1,380.3719,380.8211,,,,,,1139,MAS,AGR,150,reloj,el,l,380.8211,380.8212,0.037037037,-0.430555556,0,0,0,,0,99,99,238,1,,,,
,,,,,,ac572d8c3e2590e8137bcb46,66a626ef09d4e21e1a8894ec,6734d671f59568f435765ece,2024-11-13_17h40.37.793,Tarea de género gramatical,2024.2.2,Win32,20,,,,,,,,,,,,,,,,,,,,,,,380.8221,382.6717,l,1,0.9731,,[],[],[],[],[],[],[],0.9731,1,382.6718,383.1859,,,,,,1085,MAS,AGR,150,sueño,el,l,383.1859,383.186,0.037037037,-0.430555556,0,0,0,,0,100,100,184,1,,,,
,,,,,,ac572d8c3e2590e8137bcb46,66a626ef09d4e21e1a8894ec,6734d671f59568f435765ece,2024-11-13_17h40.37.793,Tarea de género gramatical,2024.2.2,Win32,20,,,,,,,,,,,,,,,,,,,,,,,383.1868,384.6387,l,1,0.6593,,[],[],[],[],[],[],[],0.6593,1,384.6388,385.0468,,,,,,984,MAS,CON,150,mago,,l,385.0479,385.0495,0.037037037,-0.430555556,0,0,0,,0,101,101,83,1,,,,
,,,,,,ac572d8c3e2590e8137bcb46,66a626ef09d4e21e1a8894ec,6734d671f59568f435765ece,2024-11-13_17h40.37.793,Tarea de género gramatical,2024.2.2,Win32,20,,,,,,,,,,,,,,,,,,,,,,,385.0502,386.9071,l,1,0.9906,,[],[],[],[],[],[],[],0.9906,1,386.9073,387.3259,,,,,,972,MAS,CON,150,hoyo,,l,387.3259,387.326,0.037037037,-0.430555556,0,0,0,,0,102,102,71,1,,,,
,,,,,,ac572d8c3e2590e8137bcb46,66a626ef09d4e21e1a8894ec,6734d671f59568f435765ece,2024-11-13_17h40.37.793,Tarea de género gramatical,2024.2.2,Win32,20,,,,,,,,,,,,,,,,,,,,,,,387.3269,388.7581,a,0,0.5702,,[],[],[],[],[],[],[],0.5702,0,388.7589,389.1905,,,,,,1084,MAS,DIS,150,cielo,la,l,389.1906,389.1907,0.037037037,-0.430555556,0,0,0,,0,103,103,183,1,,,,
,,,,,,ac572d8c3e2590e8137bcb46,66a626ef09d4e21e1a8894ec,6734d671f59568f435765ece,2024-11-13_17h40.37.793,Tarea de género gramatical,2024.2.2,Win32,20,,,,,,,,,,,,,,,,,,,,,,,389.1915,390.7778,l,1,0.7171,,[],[],[],[],[],[],[],0.7171,1,390.7784,391.2049,,,,,,1276,MAS,DIS,150,efecto,la,l,391.2049,391.205,0.037037037,-0.430555556,0,0,0,,0,104,104,375,1,,,,
,,,,,,ac572d8c3e2590e8137bcb46,66a626ef09d4e21e1a8894ec,6734d671f59568f435765ece,2024-11-13_17h40.37.793,Tarea de género gramatical,2024.2.2,Win32,20,,,,,,,,,,,,,,,,,,,,,,,391.2059,393.4283,l,1,1.3558,,[],[],[],[],[],[],[],1.3558,1,393.4284,393.8524,,,,,,928,MAS,DIS,150,club,la,l,393.8533,393.8548,0.037037037,-0.430555556,0,0,0,,0,105,105,27,1,,,,
,,,,,,ac572d8c3e2590e8137bcb46,66a626ef09d4e21e1a8894ec,6734d671f59568f435765ece,2024-11-13_17h40.37.793,Tarea de género gramatical,2024.2.2,Win32,20,,,,,,,,,,,,,,,,,,,,,,,393.8553,396.0765,l,1,1.3344,,[],[],[],[],[],[],[],1.3344,1,396.0765,396.5979,,,,,,1318,MAS,DIS,150,pájaro,la,l,396.598,396.5981,0.037037037,-0.430555556,0,0,0,,0,106,106,417,1,,,,
,,,,,,ac572d8c3e2590e8137bcb46,66a626ef09d4e21e1a8894ec,6734d671f59568f435765ece,2024-11-13_17h40.37.793,Tarea de género gramatical,2024.2.2,Win32,20,,,,,,,,,,,,,,,,,,,,,,,396.599,398.728,l,1,1.335,1E-04,[],[],[],[],[],[],[],1.335,1,398.7281,399.1307,,,,,,1174,MAS,DIS,150,motor,la,l,399.1307,399.1308,0.037037037,-0.430555556,0,0,0,,0,107,107,273,1,,,,
,,,,,,ac572d8c3e2590e8137bcb46,66a626ef09d4e21e1a8894ec,6734d671f59568f435765ece,2024-11-13_17h40.37.793,Tarea de género gramatical,2024.2.2,Win32,20,,,,,,,,,,,,,,,,,,,,,,,399.1315,400.4523,a,1,0.5311,,[],[],[],[],[],[],[],0.5311,1,400.4524,400.9734,,,,,,933,FEM,CON,150,boda,,a,400.9734,400.9735,0.037037037,-0.430555556,0,0,0,,0,108,108,32,1,,,,
,,,,,,ac572d8c3e2590e8137bcb46,66a626ef09d4e21e1a8894ec,6734d671f59568f435765ece,2024-11-13_17h40.37.793,Tarea de género gramatical,2024.2.2,Win32,20,,,,,,,,,,,,,,,,,,,,,,,400.9743,402.2129,a,1,0.4641,,[],[],[],[],[],[],[],0.4641,1,402.2129,402.7415,,,,,,1335,FEM,CON,150,niebla,,a,402.7415,402.7417,0.037037037,-0.430555556,0,0,0,,0,109,109,434,1,,,,
,,,,,,ac572d8c3e2590e8137bcb46,66a626ef09d4e21e1a8894ec,6734d671f59568f435765ece,2024-11-13_17h40.37.793,Tarea de género gramatical,2024.2.2,Win32,20,,,,,,,,,,,,,,,,,,,,,,,402.7424,405.1222,l,0,1.5682,,[],[],[],[],[],[],[],1.5682,0,405.1229,405.659,,,,,,974,FEM,AGR,150,flor,la,a,405.66,405.6617,0.037037037,-0.430555556,0,0,0,,0,110,110,73,1,,,,
,,,,,,ac572d8c3e2590e8137bcb46,66a626ef09d4e21e1a8894ec,6734d671f59568f435765ece,2024-11-13_17h40.37.793,Tarea de género gramatical,2024.2.2,Win32,20,,,,,,,,,,,,,,,,,,,,,,,405.6623,407.1307,a,1,0.5583,,[],[],[],[],[],[],[],0.5583,1,407.1313,407.6398,,,,,,1124,FEM,AGR,150,arena,la,a,407.6399,407.64,0.037037037,-0.430555556,0,0,0,,0,111,111,223,1,,,,
,,,,,,ac572d8c3e2590e8137bcb46,66a626ef09d4e21e1a8894ec,6734d671f59568f435765ece,2024-11-13_17h40.37.793,Tarea de género gramatical,2024.2.2,Win32,20,,,,,,,,,,,,,,,,,,,,,,,407.641,410.3137,,0,,,[],[],[],[],[],[],[],0.5583,-1,410.3144,410.7191,,,,,,1184,FEM,AGR,150,fruta,la,a,410.7192,410.7192,0.037037037,-0.43240745,0,0,0,,0,112,112,283,1,,,,
,,,,,,ac572d8c3e2590e8137bcb46,66a626ef09d4e21e1a8894ec,6734d671f59568f435765ece,2024-11-13_17h40.37.793,Tarea de género gramatical,2024.2.2,Win32,20,,,,,,,,,,,,,,,,,,,,,,,410.7201,412.2265,a,0,0.6629,,[],[],[],[],[],[],[],0.6629,0,412.2271,412.7537,,,,,,1132,MAS,DIS,150,calor,la,l,412.7538,412.7539,0.037037037,-0.43240745,0,0,0,,0,113,113,231,1,,,,
,,,,,,ac572d8c3e2590e8137bcb46,66a626ef09d4e21e1a8894ec,6734d671f59568f435765ece,2024-11-13_17h40.37.793,Tarea de género gramatical,2024.2.2,Win32,20,,,,,,,,,,,,,,,,,,,,,,,412.7549,414.1184,a,1,0.5426,,[],[],[],[],[],[],[],0.5426,1,414.1191,414.6664,,,,,,1346,FEM,AGR,150,bañera,la,a,414.6679,414.6697,0.037037037,-0.43240745,0,0,0,,0,114,114,445,1,,,,
,,,,,,ac572d8c3e2590e8137bcb46,66a626ef09d4e21e1a8894ec,6734d671f59568f435765ece,2024-11-13_17h40.37.793,Tarea de género gramatical,2024.2.2,Win32,20,,,,,,,,,,,,,,,,,,,,,,,414.6704,416.4202,l,0,0.9255,,[],[],[],[],[],[],[],0.9255,0,416.421,416.9446,,,,,,1191,FEM,CON,150,aguja,,a,416.9447,416.9448,0.037037037,-0.43240745,0,0,0,,0,115,115,290,1,,,,
,,,,,,ac572d8c3e2590e8137bcb46,66a626ef09d4e21e1a8894ec,6734d671f59568f435765ece,2024-11-13_17h40.37.793,Tarea de género gramatical,2024.2.2,Win32,20,,,,,,,,,,,,,,,,,,,,,,,416.9456,418.4123,l,1,0.6768,,[],[],[],[],[],[],[],0.6768,1,418.4129,418.9321,,,,,,1254,MAS,CON,150,camión,,l,418.9321,418.9322,0.037037037,-0.43240745,0,0,0,,0,116,116,353,1,,,,
,,,,,,ac572d8c3e2590e8137bcb46,66a626ef09d4e21e1a8894ec,6734d671f59568f435765ece,2024-11-13_17h40.37.793,Tarea de género gramatical,2024.2.2,Win32,20,,,,,,,,,,,,,,,,,,,,,,,418.9331,420.301,a,1,0.5531,0.0002,[],[],[],[],[],[],[],0.5531,1,420.301,420.8255,,,,,,1280,FEM,AGR,150,madera,la,a,420.8256,420.8256,0.037037037,-0.43240745,0,0,0,,0,117,117,379,1,,,,
,,,,,,ac572d8c3e2590e8137bcb46,66a626ef09d4e21e1a8894ec,6734d671f59568f435765ece,2024-11-13_17h40.37.793,Tarea de género gramatical,2024.2.2,Win32,20,,,,,,,,,,,,,,,,,,,,,,,420.8265,422.2956,l,1,0.6767,,[],[],[],[],[],[],[],0.6767,1,422.2956,422.7007,,,,,,1258,MAS,DIS,150,motivo,la,l,422.7008,422.7009,0.037037037,-0.43240745,0,0,0,,0,118,118,357,1,,,,
,,,,,,ac572d8c3e2590e8137bcb46,66a626ef09d4e21e1a8894ec,6734d671f59568f435765ece,2024-11-13_17h40.37.793,Tarea de género gramatical,2024.2.2,Win32,20,,,,,,,,,,,,,,,,,,,,,,,422.7018,424.0547,a,1,0.556,,[],[],[],[],[],[],[],0.556,1,424.0549,424.5656,,,,,,1279,FEM,DIS,150,granja,el,a,424.5667,424.5683,0.037037037,-0.43240745,0,0,0,,0,119,119,378,1,,,,
,,,,,,ac572d8c3e2590e8137bcb46,66a626ef09d4e21e1a8894ec,6734d671f59568f435765ece,2024-11-13_17h40.37.793,Tarea de género gramatical,2024.2.2,Win32,20,,,,,,,,,,,,,,,,,,,,,,,424.5688,426.1688,l,0,0.8034,,[],[],[],[],[],[],[],0.8034,0,426.1697,426.5898,,,,,,1311,FEM,CON,150,actriz,,a,426.5898,426.59,0.037037037,-0.43240745,0,0,0,,0,120,120,410,1,,,,
,,,,,,ac572d8c3e2590e8137bcb46,66a626ef09d4e21e1a8894ec,6734d671f59568f435765ece,2024-11-13_17h40.37.793,Tarea de género gramatical,2024.2.2,Win32,20,,,,,,,,,,,,,,,,,,,,,,,426.5907,427.7808,a,0,0.4113,,[],[],[],[],[],[],[],0.4113,0,427.7809,428.3191,,,,,,1223,MAS,AGR,150,marido,el,l,428.3191,428.3191,0.037037037,-0.43240745,0,0,0,,0,121,121,322,1,,,,
,,,,,,ac572d8c3e2590e8137bcb46,66a626ef09d4e21e1a8894ec,6734d671f59568f435765ece,2024-11-13_17h40.37.793,Tarea de género gramatical,2024.2.2,Win32,20,,,,,,,,,,,,,,,,,,,,,,,428.3199,429.6492,a,0,0.5334,,[],[],[],[],[],[],[],0.5334,0,429.6493,430.1713,,,,,,1308,MAS,CON,150,cheque,,l,430.1713,430.1714,0.037037037,-0.43240745,0,0,0,,0,122,122,407,1,,,,
,,,,,,ac572d8c3e2590e8137bcb46,66a626ef09d4e21e1a8894ec,6734d671f59568f435765ece,2024-11-13_17h40.37.793,Tarea de género gramatical,2024.2.2,Win32,20,,,,,,,,,,,,,,,,,,,,,,,430.1722,431.8111,l,1,0.8289,,[],[],[],[],[],[],[],0.8289,1,431.8116,432.3505,,,,,,1072,MAS,DIS,150,poder,la,l,432.3514,432.353,0.037037037,-0.433333362,0,0,0,,0,123,123,171,1,,,,
,,,,,,ac572d8c3e2590e8137bcb46,66a626ef09d4e21e1a8894ec,6734d671f59568f435765ece,2024-11-13_17h40.37.793,Tarea de género gramatical,2024.2.2,Win32,20,,,,,,,,,,,,,,,,,,,,,,,432.3535,433.6638,l,1,0.5221,,[],[],[],[],[],[],[],0.5221,1,433.664,434.1869,,,,,,934,MAS,DIS,150,gato,la,l,434.1869,434.187,0.037037037,-0.433333362,0,0,0,,0,124,124,33,1,,,,
,,,,,,ac572d8c3e2590e8137bcb46,66a626ef09d4e21e1a8894ec,6734d671f59568f435765ece,2024-11-13_17h40.37.793,Tarea de género gramatical,2024.2.2,Win32,20,,,,,,,,,,,,,,,,,,,,,,,434.1877,435.5388,l,0,0.5553,,[],[],[],[],[],[],[],0.5553,0,435.5394,436.073,,,,,,1135,FEM,DIS,150,torre,el,a,436.073,436.0731,0.037037037,-0.433333362,0,0,0,,0,125,125,234,1,,,,
,,,,,,ac572d8c3e2590e8137bcb46,66a626ef09d4e21e1a8894ec,6734d671f59568f435765ece,2024-11-13_17h40.37.793,Tarea de género gramatical,2024.2.2,Win32,20,,,,,,,,,,,,,,,,,,,,,,,436.0739,437.5747,l,1,0.7122,0.0001,[],[],[],[],[],[],[],0.7122,1,437.5754,437.9932,,,,,,1169,MAS,AGR,150,primo,el,l,437.9932,437.9932,0.037037037,-0.433333362,0,0,0,,0,126,126,268,1,,,,
,,,,,,ac572d8c3e2590e8137bcb46,66a626ef09d4e21e1a8894ec,6734d671f59568f435765ece,2024-11-13_17h40.37.793,Tarea de género gramatical,2024.2.2,Win32,20,,,,,,,,,,,,,,,,,,,,,,,437.994,439.3465,l,1,0.5517,,[],[],[],[],[],[],[],0.5517,1,439.3466,439.8586,,,,,,1290,MAS,CON,150,rostro,,l,439.8587,439.8588,0.037037037,-0.433333362,0,0,0,,0,127,127,389,1,,,,
,,,,,,ac572d8c3e2590e8137bcb46,66a626ef09d4e21e1a8894ec,6734d671f59568f435765ece,2024-11-13_17h40.37.793,Tarea de género gramatical,2024.2.2,Win32,20,,,,,,,,,,,,,,,,,,,,,,,439.8597,441.1944,l,1,0.5475,,[],[],[],[],[],[],[],0.5475,1,441.1945,441.7218,,,,,,1205,MAS,AGR,150,hombre,el,l,441.7227,441.7243,0.037037037,-0.433333362,0,0,0,,0,128,128,304,1,,,,
,,,,,,ac572d8c3e2590e8137bcb46,66a626ef09d4e21e1a8894ec,6734d671f59568f435765ece,2024-11-13_17h40.37.793,Tarea de género gramatical,2024.2.2,Win32,20,,,,,,,,,,,,,,,,,,,,,,,441.7249,443.2982,l,1,0.7334,,[],[],[],[],[],[],[],0.7334,1,443.2984,443.7107,,,,,,906,MAS,CON,150,lado,,l,443.7107,443.7108,0.037037037,-0.433333362,0,0,0,,0,129,129,5,1,,,,
,,,,,,ac572d8c3e2590e8137bcb46,66a626ef09d4e21e1a8894ec,6734d671f59568f435765ece,2024-11-13_17h40.37.793,Tarea de género gramatical,2024.2.2,Win32,20,,,,,,,,,,,,,,,,,,,,,,,443.7117,445.7162,a,0,1.1001,,[],[],[],[],[],[],[],1.1001,0,445.7171,446.1824,,,,,,1032,MAS,CON,150,velo,,l,446.1824,446.1826,0.037037037,-0.433333362,0,0,0,,0,130,130,131,1,,,,
,,,,,,ac572d8c3e2590e8137bcb46,66a626ef09d4e21e1a8894ec,6734d671f59568f435765ece,2024-11-13_17h40.37.793,Tarea de género gramatical,2024.2.2,Win32,20,,,,,,,,,,,,,,,,,,,,,,,446.1836,447.8018,l,1,0.7986,,[],[],[],[],[],[],[],0.7986,1,447.8024,448.2073,,,,,,1115,MAS,AGR,150,hueso,el,l,448.2074,448.2075,0.037037037,-0.433333362,0,0,0,,0,131,131,214,1,,,,
,,,,,,ac572d8c3e2590e8137bcb46,66a626ef09d4e21e1a8894ec,6734d671f59568f435765ece,2024-11-13_17h40.37.793,Tarea de género gramatical,2024.2.2,Win32,20,,,,,,,,,,,,,,,,,,,,,,,448.209,450.2709,l,1,1.1555,,[],[],[],[],[],[],[],1.1555,1,450.2709,450.6714,,,,,,942,MAS,CON,150,show,,l,450.6724,450.6744,0.037037037,-0.433333362,0,0,0,,0,132,132,41,1,,,,
,,,,,,ac572d8c3e2590e8137bcb46,66a626ef09d4e21e1a8894ec,6734d671f59568f435765ece,2024-11-13_17h40.37.793,Tarea de género gramatical,2024.2.2,Win32,20,,,,,,,,,,,,,,,,,,,,,,,450.6751,452.5248,l,0,1.0505,,[],[],[],[],[],[],[],1.0505,0,452.5255,452.9746,,,,,,1105,FEM,DIS,150,reina,el,a,452.9746,452.9747,0.037037037,-0.434259273,0,0,0,,0,133,133,204,1,,,,
,,,,,,ac572d8c3e2590e8137bcb46,66a626ef09d4e21e1a8894ec,6734d671f59568f435765ece,2024-11-13_17h40.37.793,Tarea de género gramatical,2024.2.2,Win32,20,,,,,,,,,,,,,,,,,,,,,,,452.9756,454.4605,a,1,0.5951,,[],[],[],[],[],[],[],0.5951,1,454.4612,454.9212,,,,,,961,FEM,DIS,150,ruta,el,a,454.9213,454.9213,0.037037037,-0.434259273,0,0,0,,0,134,134,60,1,,,,
,,,,,,ac572d8c3e2590e8137bcb46,66a626ef09d4e21e1a8894ec,6734d671f59568f435765ece,2024-11-13_17h40.37.793,Tarea de género gramatical,2024.2.2,Win32,20,,,,,,,,,,,,,,,,,,,,,,,454.9226,456.7314,a,1,0.8966,,[],[],[],[],[],[],[],0.8966,1,456.7314,457.1357,,,,,,1219,FEM,DIS,150,sangre,el,a,457.1358,457.1358,0.037037037,-0.434259273,0,0,0,,0,135,135,318,1,,,,
,,,,,,ac572d8c3e2590e8137bcb46,66a626ef09d4e21e1a8894ec,6734d671f59568f435765ece,2024-11-13_17h40.37.793,Tarea de género gramatical,2024.2.2,Win32,20,,,,,,,,,,,,,,,,,,,,,,,457.1366,459.1365,a,0,1.1918,,[],[],[],[],[],[],[],1.1918,0,459.1374,459.6256,,,,,,954,MAS,CON,150,humo,,l,459.6257,459.6258,0.037037037,-0.434259273,0,0,0,,0,136,136,53,1,,,,
,,,,,,ac572d8c3e2590e8137bcb46,66a626ef09d4e21e1a8894ec,6734d671f59568f435765ece,2024-11-13_17h40.37.793,Tarea de género gramatical,2024.2.2,Win32,20,,,,,,,,,,,,,,,,,,,,,,,459.627,460.6608,l,1,0.193,,[],[],[],[],[],[],[],0.193,1,460.6616,461.1738,,,,,,1236,MAS,CON,150,crimen,,l,461.175,461.1769,0.037037037,-0.434259273,0,0,0,,0,137,137,335,1,,,,
,,,,,,ac572d8c3e2590e8137bcb46,66a626ef09d4e21e1a8894ec,6734d671f59568f435765ece,2024-11-13_17h40.37.793,Tarea de género gramatical,2024.2.2,Win32,20,,,,,,,,,,,,,,,,,,,,,,,461.1775,463.2978,l,0,1.319,,[],[],[],[],[],[],[],1.319,0,463.2985,463.7918,,,,,,1021,FEM,DIS,150,pila,el,a,463.7918,463.792,0.037037037,-0.434259273,0,0,0,,0,138,138,120,1,,,,
,,,,,,ac572d8c3e2590e8137bcb46,66a626ef09d4e21e1a8894ec,6734d671f59568f435765ece,2024-11-13_17h40.37.793,Tarea de género gramatical,2024.2.2,Win32,20,,,,,,,,,,,,,,,,,,,,,,,463.7928,465.0725,l,0,0.4852,1E-04,[],[],[],[],[],[],[],0.4852,0,465.0725,465.5542,,,,,,1213,FEM,DIS,150,ciudad,el,a,465.5542,465.5543,0.037037037,-0.434259273,0,0,0,,0,139,139,312,1,,,,
,,,,,,ac572d8c3e2590e8137bcb46,66a626ef09d4e21e1a8894ec,6734d671f59568f435765ece,2024-11-13_17h40.37.793,Tarea de género gramatical,2024.2.2,Win32,20,,,,,,,,,,,,,,,,,,,,,,,465.5552,466.6816,a,0,0.3299,,[],[],[],[],[],[],[],0.3299,0,466.6816,467.1699,,,,,,1210,MAS,DIS,150,nombre,la,l,467.1699,467.17,0.037037037,-0.434259273,0,0,0,,0,140,140,309,1,,,,
,,,,,,ac572d8c3e2590e8137bcb46,66a626ef09d4e21e1a8894ec,6734d671f59568f435765ece,2024-11-13_17h40.37.793,Tarea de género gramatical,2024.2.2,Win32,20,,,,,,,,,,,,,,,,,,,,,,,467.171,469.0183,l,0,0.9193,0,[],[],[],[],[],[],[],0.9193,0,469.0183,469.4872,,,,,,1315,FEM,DIS,150,cabina,el,a,469.4882,469.4898,0.037037037,-0.434259273,0,0,0,,0,141,141,414,1,,,,
,,,,,,ac572d8c3e2590e8137bcb46,66a626ef09d4e21e1a8894ec,6734d671f59568f435765ece,2024-11-13_17h40.37.793,Tarea de género gramatical,2024.2.2,Win32,20,,,,,,,,,,,,,,,,,,,,,,,469.4904,470.8217,l,0,0.4582,,[],[],[],[],[],[],[],0.4582,0,470.8218,471.2625,,,,,,1107,FEM,CON,150,playa,,a,471.2625,471.2626,0.037037037,-0.434259273,0,0,0,,0,142,142,206,1,,,,
,,,,,,ac572d8c3e2590e8137bcb46,66a626ef09d4e21e1a8894ec,6734d671f59568f435765ece,2024-11-13_17h40.37.793,Tarea de género gramatical,2024.2.2,Win32,20,,,,,,,,,,,,,,,,,,,,,,,471.2636,472.6506,l,1,0.4641,,[],[],[],[],[],[],[],0.4641,1,472.6513,473.0704,,,,,,1282,MAS,DIS,150,teatro,la,l,473.0704,473.0705,0.037037037,-0.434259273,0,0,0,,0,143,143,381,1,,,,
,,,,,,ac572d8c3e2590e8137bcb46,66a626ef09d4e21e1a8894ec,6734d671f59568f435765ece,2024-11-13_17h40.37.793,Tarea de género gramatical,2024.2.2,Win32,20,,,,,,,,,,,,,,,,,,,,,,,473.0713,475.7216,,0,,,[],[],[],[],[],[],[],0.4641,-1,475.7224,476.1579,,,,,,963,FEM,CON,150,fila,,a,476.1579,476.158,0.037037037,-0.434259273,0,0,0,,0,144,144,62,1,,,,
,,,,,,ac572d8c3e2590e8137bcb46,66a626ef09d4e21e1a8894ec,6734d671f59568f435765ece,2024-11-13_17h40.37.793,Tarea de género gramatical,2024.2.2,Win32,20,,,,,,,,,,,,,,,,,,,,,,,476.1589,477.8251,l,0,0.7854,,[],[],[],[],[],[],[],0.7854,0,477.8258,478.2854,,,,,,1249,FEM,DIS,150,prensa,el,a,478.2855,478.2857,0.560185185,0.490740741,0,0,0,,0,145,145,348,1,,,,
,,,,,,ac572d8c3e2590e8137bcb46,66a626ef09d4e21e1a8894ec,6734d671f59568f435765ece,2024-11-13_17h40.37.793,Tarea de género gramatical,2024.2.2,Win32,20,,,,,,,,,,,,,,,,,,,,,,,478.2865,480.5102,a,1,1.3577,1E-04,[],[],[],[],[],[],[],1.3577,1,480.511,480.9685,,,,,,1057,FEM,DIS,150,madre,el,a,480.9695,480.9711,0.560185185,0.490740741,0,0,0,,0,146,146,156,1,,,,
,,,,,,ac572d8c3e2590e8137bcb46,66a626ef09d4e21e1a8894ec,6734d671f59568f435765ece,2024-11-13_17h40.37.793,Tarea de género gramatical,2024.2.2,Win32,20,,,,,,,,,,,,,,,,,,,,,,,480.9718,482.7412,a,1,0.8781,1E-04,[],[],[],[],[],[],[],0.8781,1,482.7413,483.1806,,,,,,1166,FEM,AGR,150,jaula,la,a,483.1806,483.1807,0.560185185,0.490740741,0,0,0,,0,147,147,265,1,,,,
,,,,,,ac572d8c3e2590e8137bcb46,66a626ef09d4e21e1a8894ec,6734d671f59568f435765ece,2024-11-13_17h40.37.793,Tarea de género gramatical,2024.2.2,Win32,20,,,,,,,,,,,,,,,,,,,,,,,483.1817,484.998,a,1,0.9335,,[],[],[],[],[],[],[],0.9335,1,484.9981,485.4826,,,,,,1161,FEM,CON,150,cueva,,a,485.4826,485.4827,0.560185185,0.490740741,0,0,0,,0,148,148,260,1,,,,
,,,,,,ac572d8c3e2590e8137bcb46,66a626ef09d4e21e1a8894ec,6734d671f59568f435765ece,2024-11-13_17h40.37.793,Tarea de género gramatical,2024.2.2,Win32,20,,,,,,,,,,,,,,,,,,,,,,,485.4837,487.4623,a,1,1.034,0.0001,[],[],[],[],[],[],[],1.034,1,487.4624,487.8875,,,,,,1257,FEM,CON,150,lengua,,a,487.8876,487.8876,0.560185185,0.490740741,0,0,0,,0,149,149,356,1,,,,
,,,,,,ac572d8c3e2590e8137bcb46,66a626ef09d4e21e1a8894ec,6734d671f59568f435765ece,2024-11-13_17h40.37.793,Tarea de género gramatical,2024.2.2,Win32,20,,,,,,,,,,,,,,,,,,,,,,,487.8884,489.5282,a,0,0.7907,,[],[],[],[],[],[],[],0.7907,0,489.5289,489.9607,,,,,,1074,MAS,CON,150,perro,,l,489.9618,525.9339,0.560185185,0.490740741,0,0,0,space,0,150,150,173,1,35.8007,,,
,,,,,,ac572d8c3e2590e8137bcb46,66a626ef09d4e21e1a8894ec,6734d671f59568f435765ece,2024-11-13_17h40.37.793,Tarea de género gramatical,2024.2.2,Win32,20,,,,,,,,,,,,,,,,,,,,,,,525.9348,527.2651,l,0,0.5538,,[],[],[],[],[],[],[],0.5538,0,527.2652,527.6819,,,,,,1009,FEM,DIS,150,gota,el,a,527.682,527.6821,0.560185185,0.490740741,0,0,0,,0,151,151,108,1,,,,
,,,,,,ac572d8c3e2590e8137bcb46,66a626ef09d4e21e1a8894ec,6734d671f59568f435765ece,2024-11-13_17h40.37.793,Tarea de género gramatical,2024.2.2,Win32,20,,,,,,,,,,,,,,,,,,,,,,,527.6829,530.3397,,0,,,[],[],[],[],[],[],[],0.5538,-1,530.3404,530.7498,,,,,,1025,MAS,AGR,150,bate,el,l,530.7498,530.7499,0.560185185,0.490740741,0,0,0,,0,152,152,124,1,,,,
,,,,,,ac572d8c3e2590e8137bcb46,66a626ef09d4e21e1a8894ec,6734d671f59568f435765ece,2024-11-13_17h40.37.793,Tarea de género gramatical,2024.2.2,Win32,20,,,,,,,,,,,,,,,,,,,,,,,530.7507,532.3444,l,0,0.7823,,[],[],[],[],[],[],[],0.7823,0,532.3452,532.7909,,,,,,1291,FEM,DIS,150,altura,el,a,532.791,532.791,0.560185185,0.490740741,0,0,0,,0,153,153,390,1,,,,
,,,,,,ac572d8c3e2590e8137bcb46,66a626ef09d4e21e1a8894ec,6734d671f59568f435765ece,2024-11-13_17h40.37.793,Tarea de género gramatical,2024.2.2,Win32,20,,,,,,,,,,,,,,,,,,,,,,,532.7921,534.1748,l,1,0.5762,,[],[],[],[],[],[],[],0.5762,1,534.1756,534.6111,,,,,,947,MAS,AGR,150,olor,el,l,534.6112,534.6112,0.560185185,0.490740741,0,0,0,,0,154,154,46,1,,,,
,,,,,,ac572d8c3e2590e8137bcb46,66a626ef09d4e21e1a8894ec,6734d671f59568f435765ece,2024-11-13_17h40.37.793,Tarea de género gramatical,2024.2.2,Win32,20,,,,,,,,,,,,,,,,,,,,,,,534.6121,536.0653,a,1,0.6717,,[],[],[],[],[],[],[],0.6717,1,536.0653,536.471,,,,,,1263,FEM,CON,150,unidad,,a,536.472,536.4736,0.560185185,0.490740741,0,0,0,,0,155,155,362,1,,,,
,,,,,,ac572d8c3e2590e8137bcb46,66a626ef09d4e21e1a8894ec,6734d671f59568f435765ece,2024-11-13_17h40.37.793,Tarea de género gramatical,2024.2.2,Win32,20,,,,,,,,,,,,,,,,,,,,,,,536.4742,537.666,a,1,0.4207,,[],[],[],[],[],[],[],0.4207,1,537.666,538.0689,,,,,,1244,FEM,AGR,150,pareja,la,a,538.0689,538.069,0.560185185,0.490740741,0,0,0,,0,156,156,343,1,,,,
,,,,,,ac572d8c3e2590e8137bcb46,66a626ef09d4e21e1a8894ec,6734d671f59568f435765ece,2024-11-13_17h40.37.793,Tarea de género gramatical,2024.2.2,Win32,20,,,,,,,,,,,,,,,,,,,,,,,538.0698,539.2488,a,1,0.3905,,[],[],[],[],[],[],[],0.3905,1,539.249,539.7845,,,,,,1273,FEM,DIS,150,lluvia,el,a,539.7845,539.7846,0.560185185,0.490740741,0,0,0,,0,157,157,372,1,,,,
,,,,,,ac572d8c3e2590e8137bcb46,66a626ef09d4e21e1a8894ec,6734d671f59568f435765ece,2024-11-13_17h40.37.793,Tarea de género gramatical,2024.2.2,Win32,20,,,,,,,,,,,,,,,,,,,,,,,539.7854,541.4041,l,1,0.7685,,[],[],[],[],[],[],[],0.7685,1,541.4042,541.8598,,,,,,1253,MAS,AGR,150,verano,el,l,541.8598,541.8599,0.560185185,0.490740741,0,0,0,,0,158,158,352,1,,,,
,,,,,,ac572d8c3e2590e8137bcb46,66a626ef09d4e21e1a8894ec,6734d671f59568f435765ece,2024-11-13_17h40.37.793,Tarea de género gramatical,2024.2.2,Win32,20,,,,,,,,,,,,,,,,,,,,,,,541.8608,543.2427,l,0,0.4873,,[],[],[],[],[],[],[],0.4873,0,543.2434,543.7098,,,,,,1047,FEM,CON,150,grúa,,a,543.7108,543.7124,0.560185185,0.490740741,0,0,0,,0,159,159,146,1,,,,
,,,,,,ac572d8c3e2590e8137bcb46,66a626ef09d4e21e1a8894ec,6734d671f59568f435765ece,2024-11-13_17h40.37.793,Tarea de género gramatical,2024.2.2,Win32,20,,,,,,,,,,,,,,,,,,,,,,,543.7131,545.0082,a,0,0.4073,,[],[],[],[],[],[],[],0.4073,0,545.0082,545.4192,,,,,,952,MAS,DIS,150,lago,la,l,545.4193,545.4193,0.560185185,0.490740741,0,0,0,,0,160,160,51,1,,,,
,,,,,,ac572d8c3e2590e8137bcb46,66a626ef09d4e21e1a8894ec,6734d671f59568f435765ece,2024-11-13_17h40.37.793,Tarea de género gramatical,2024.2.2,Win32,20,,,,,,,,,,,,,,,,,,,,,,,545.4205,546.7749,l,1,0.4598,,[],[],[],[],[],[],[],0.4598,1,546.7756,547.2103,,,,,,1048,MAS,DIS,150,surf,la,l,547.2103,547.2103,0.560185185,0.490740741,0,0,0,,0,161,161,147,1,,,,
,,,,,,ac572d8c3e2590e8137bcb46,66a626ef09d4e21e1a8894ec,6734d671f59568f435765ece,2024-11-13_17h40.37.793,Tarea de género gramatical,2024.2.2,Win32,20,,,,,,,,,,,,,,,,,,,,,,,547.2111,548.5591,l,1,0.554,,[],[],[],[],[],[],[],0.554,1,548.5591,549.0908,,,,,,1134,MAS,CON,150,héroe,,l,549.0908,549.0909,0.560185185,0.490740741,0,0,0,,0,162,162,233,1,,,,
,,,,,,ac572d8c3e2590e8137bcb46,66a626ef09d4e21e1a8894ec,6734d671f59568f435765ece,2024-11-13_17h40.37.793,Tarea de género gramatical,2024.2.2,Win32,20,,,,,,,,,,,,,,,,,,,,,,,549.0919,550.9751,l,0,1.0702,,[],[],[],[],[],[],[],1.0702,0,550.9758,551.3881,,,,,,1039,FEM,DIS,150,pipa,el,a,551.3882,551.3882,0.560185185,0.490740741,0,0,0,,0,163,163,138,1,,,,
,,,,,,ac572d8c3e2590e8137bcb46,66a626ef09d4e21e1a8894ec,6734d671f59568f435765ece,2024-11-13_17h40.37.793,Tarea de género gramatical,2024.2.2,Win32,20,,,,,,,,,,,,,,,,,,,,,,,551.3891,553.1125,l,0,0.9341,,[],[],[],[],[],[],[],0.9341,0,553.1125,553.5368,,,,,,1201,FEM,DIS,150,verdad,el,a,553.5378,553.5394,0.560185185,0.490740741,0,0,0,,0,164,164,300,1,,,,
,,,,,,ac572d8c3e2590e8137bcb46,66a626ef09d4e21e1a8894ec,6734d671f59568f435765ece,2024-11-13_17h40.37.793,Tarea de género gramatical,2024.2.2,Win32,20,,,,,,,,,,,,,,,,,,,,,,,553.5401,554.9985,l,1,0.6735,1E-04,[],[],[],[],[],[],[],0.6735,1,554.9992,555.4079,,,,,,1319,MAS,AGR,150,cuento,el,l,555.408,555.4081,0.560185185,0.490740741,0,0,0,,0,165,165,418,1,,,,
,,,,,,ac572d8c3e2590e8137bcb46,66a626ef09d4e21e1a8894ec,6734d671f59568f435765ece,2024-11-13_17h40.37.793,Tarea de género gramatical,2024.2.2,Win32,20,,,,,,,,,,,,,,,,,,,,,,,555.409,556.7179,a,0,0.406,,[],[],[],[],[],[],[],0.406,0,556.7185,557.1222,,,,,,1026,MAS,CON,150,lazo,,l,557.1222,557.1223,0.560185185,0.490740741,0,0,0,,0,166,166,125,1,,,,
,,,,,,ac572d8c3e2590e8137bcb46,66a626ef09d4e21e1a8894ec,6734d671f59568f435765ece,2024-11-13_17h40.37.793,Tarea de género gramatical,2024.2.2,Win32,20,,,,,,,,,,,,,,,,,,,,,,,557.1232,558.4426,l,1,0.5318,,[],[],[],[],[],[],[],0.5318,1,558.4432,558.8416,,,,,,1068,MAS,CON,150,sitio,,l,558.8417,558.8417,0.560185185,0.490740741,0,0,0,,0,167,167,167,1,,,,
,,,,,,ac572d8c3e2590e8137bcb46,66a626ef09d4e21e1a8894ec,6734d671f59568f435765ece,2024-11-13_17h40.37.793,Tarea de género gramatical,2024.2.2,Win32,20,,,,,,,,,,,,,,,,,,,,,,,558.8426,560.5627,l,1,0.9364,,[],[],[],[],[],[],[],0.9364,1,560.5627,561.0747,,,,,,1037,MAS,AGR,150,coco,el,l,561.0758,561.0773,0.560185185,0.490740741,0,0,0,,0,168,168,136,1,,,,
,,,,,,ac572d8c3e2590e8137bcb46,66a626ef09d4e21e1a8894ec,6734d671f59568f435765ece,2024-11-13_17h40.37.793,Tarea de género gramatical,2024.2.2,Win32,20,,,,,,,,,,,,,,,,,,,,,,,561.0779,562.4134,a,1,0.5436,,[],[],[],[],[],[],[],0.5436,1,562.4135,562.9319,,,,,,987,FEM,CON,150,risa,,a,562.9319,562.9321,0.560185185,0.490740741,0,0,0,,0,169,169,86,1,,,,
,,,,,,ac572d8c3e2590e8137bcb46,66a626ef09d4e21e1a8894ec,6734d671f59568f435765ece,2024-11-13_17h40.37.793,Tarea de género gramatical,2024.2.2,Win32,20,,,,,,,,,,,,,,,,,,,,,,,562.9328,564.4384,a,0,0.6929,0,[],[],[],[],[],[],[],0.6929,0,564.4391,564.8346,,,,,,1050,MAS,CON,150,mozo,,l,564.8346,564.8347,0.560185185,0.490740741,0,0,0,,0,170,170,149,1,,,,
,,,,,,ac572d8c3e2590e8137bcb46,66a626ef09d4e21e1a8894ec,6734d671f59568f435765ece,2024-11-13_17h40.37.793,Tarea de género gramatical,2024.2.2,Win32,20,,,,,,,,,,,,,,,,,,,,,,,564.8355,566.4564,a,0,0.8245,,[],[],[],[],[],[],[],0.8245,0,566.4565,566.9815,,,,,,1252,MAS,DIS,150,estilo,la,l,566.9817,566.9817,0.560185185,0.490740741,0,0,0,,0,171,171,351,1,,,,
,,,,,,ac572d8c3e2590e8137bcb46,66a626ef09d4e21e1a8894ec,6734d671f59568f435765ece,2024-11-13_17h40.37.793,Tarea de género gramatical,2024.2.2,Win32,20,,,,,,,,,,,,,,,,,,,,,,,566.9826,568.1879,l,1,0.4145,,[],[],[],[],[],[],[],0.4145,1,568.1885,568.5997,,,,,,905,MAS,AGR,150,tipo,el,l,568.5997,568.5998,0.560185185,0.490740741,0,0,0,,0,172,172,4,1,,,,
,,,,,,ac572d8c3e2590e8137bcb46,66a626ef09d4e21e1a8894ec,6734d671f59568f435765ece,2024-11-13_17h40.37.793,Tarea de género gramatical,2024.2.2,Win32,20,,,,,,,,,,,,,,,,,,,,,,,568.6006,569.9403,a,1,0.5706,,[],[],[],[],[],[],[],0.5706,1,569.9404,570.4625,,,,,,1305,FEM,CON,150,parada,,a,570.4635,570.4651,0.560185185,0.490740741,0,0,0,,0,173,173,404,1,,,,
,,,,,,ac572d8c3e2590e8137bcb46,66a626ef09d4e21e1a8894ec,6734d671f59568f435765ece,2024-11-13_17h40.37.793,Tarea de género gramatical,2024.2.2,Win32,20,,,,,,,,,,,,,,,,,,,,,,,570.4657,572.1081,l,0,0.8358,1E-04,[],[],[],[],[],[],[],0.8358,0,572.1087,572.5237,,,,,,1088,FEM,AGR,150,bomba,la,a,572.5238,572.5239,0.560185185,0.490740741,0,0,0,,0,174,174,187,1,,,,
,,,,,,ac572d8c3e2590e8137bcb46,66a626ef09d4e21e1a8894ec,6734d671f59568f435765ece,2024-11-13_17h40.37.793,Tarea de género gramatical,2024.2.2,Win32,20,,,,,,,,,,,,,,,,,,,,,,,572.5247,573.8776,l,1,0.5539,,[],[],[],[],[],[],[],0.5539,1,573.8783,574.3916,,,,,,1144,MAS,DIS,150,hielo,la,l,574.3917,574.3918,0.560185185,0.490740741,0,0,0,,0,175,175,243,1,,,,
,,,,,,ac572d8c3e2590e8137bcb46,66a626ef09d4e21e1a8894ec,6734d671f59568f435765ece,2024-11-13_17h40.37.793,Tarea de género gramatical,2024.2.2,Win32,20,,,,,,,,,,,,,,,,,,,,,,,574.3926,575.8537,a,1,0.6644,,[],[],[],[],[],[],[],0.6644,1,575.8538,576.3766,,,,,,1093,FEM,DIS,150,bolsa,el,a,576.3767,576.3768,0.560185185,0.490740741,0,0,0,,0,176,176,192,1,,,,
,,,,,,ac572d8c3e2590e8137bcb46,66a626ef09d4e21e1a8894ec,6734d671f59568f435765ece,2024-11-13_17h40.37.793,Tarea de género gramatical,2024.2.2,Win32,20,,,,,,,,,,,,,,,,,,,,,,,576.3776,577.7104,l,0,0.5328,1E-04,[],[],[],[],[],[],[],0.5328,0,577.7111,578.2295,,,,,,1125,FEM,CON,150,pieza,,a,578.2304,578.232,0.560185185,0.490740741,0,0,0,,0,177,177,224,1,,,,
,,,,,,ac572d8c3e2590e8137bcb46,66a626ef09d4e21e1a8894ec,6734d671f59568f435765ece,2024-11-13_17h40.37.793,Tarea de género gramatical,2024.2.2,Win32,20,,,,,,,,,,,,,,,,,,,,,,,578.2326,579.5551,l,0,0.5401,,[],[],[],[],[],[],[],0.5401,0,579.5552,579.9632,,,,,,1297,FEM,DIS,150,cuerda,el,a,579.9632,579.9633,0.560185185,0.490740741,0,0,0,,0,178,178,396,1,,,,
,,,,,,ac572d8c3e2590e8137bcb46,66a626ef09d4e21e1a8894ec,6734d671f59568f435765ece,2024-11-13_17h40.37.793,Tarea de género gramatical,2024.2.2,Win32,20,,,,,,,,,,,,,,,,,,,,,,,579.9642,581.3009,l,1,0.523,,[],[],[],[],[],[],[],0.523,1,581.3015,581.8239,,,,,,1235,MAS,AGR,150,montón,el,l,581.8239,581.8239,0.560185185,0.490740741,0,0,0,,0,179,179,334,1,,,,
,,,,,,ac572d8c3e2590e8137bcb46,66a626ef09d4e21e1a8894ec,6734d671f59568f435765ece,2024-11-13_17h40.37.793,Tarea de género gramatical,2024.2.2,Win32,20,,,,,,,,,,,,,,,,,,,,,,,581.8247,583.7229,l,0,1.1077,,[],[],[],[],[],[],[],1.1077,0,583.7235,584.1309,,,,,,1203,FEM,CON,150,maldad,,a,584.1309,584.131,0.560185185,0.490740741,0,0,0,,0,180,180,302,1,,,,
,,,,,,ac572d8c3e2590e8137bcb46,66a626ef09d4e21e1a8894ec,6734d671f59568f435765ece,2024-11-13_17h40.37.793,Tarea de género gramatical,2024.2.2,Win32,20,,,,,,,,,,,,,,,,,,,,,,,584.1317,585.4539,a,1,0.5496,,[],[],[],[],[],[],[],0.5496,1,585.4547,585.9671,,,,,,1185,FEM,CON,150,mafia,,a,585.9671,585.9671,0.560185185,0.490740741,0,0,0,,0,181,181,284,1,,,,
,,,,,,ac572d8c3e2590e8137bcb46,66a626ef09d4e21e1a8894ec,6734d671f59568f435765ece,2024-11-13_17h40.37.793,Tarea de género gramatical,2024.2.2,Win32,20,,,,,,,,,,,,,,,,,,,,,,,585.968,587.2949,l,1,0.5431,0,[],[],[],[],[],[],[],0.5431,1,587.295,587.6934,,,,,,1013,MAS,AGR,150,toro,el,l,587.6946,587.6962,0.560185185,0.490740741,0,0,0,,0,182,182,112,1,,,,
,,,,,,ac572d8c3e2590e8137bcb46,66a626ef09d4e21e1a8894ec,6734d671f59568f435765ece,2024-11-13_17h40.37.793,Tarea de género gramatical,2024.2.2,Win32,20,,,,,,,,,,,,,,,,,,,,,,,587.6968,589.0309,l,1,0.5429,1E-04,[],[],[],[],[],[],[],0.5429,1,589.0311,589.4323,,,,,,1108,MAS,DIS,150,suelo,la,l,589.4323,589.4324,0.560185185,0.490740741,0,0,0,,0,183,183,207,1,,,,
,,,,,,ac572d8c3e2590e8137bcb46,66a626ef09d4e21e1a8894ec,6734d671f59568f435765ece,2024-11-13_17h40.37.793,Tarea de género gramatical,2024.2.2,Win32,20,,,,,,,,,,,,,,,,,,,,,,,589.4333,590.7665,l,1,0.5425,,[],[],[],[],[],[],[],0.5425,1,590.7666,591.2882,,,,,,1330,MAS,DIS,150,título,la,l,591.2882,591.2883,0.560185185,0.490740741,0,0,0,,0,184,184,429,1,,,,
,,,,,,ac572d8c3e2590e8137bcb46,66a626ef09d4e21e1a8894ec,6734d671f59568f435765ece,2024-11-13_17h40.37.793,Tarea de género gramatical,2024.2.2,Win32,20,,,,,,,,,,,,,,,,,,,,,,,591.2891,592.6086,a,1,0.5301,,[],[],[],[],[],[],[],0.5301,1,592.6087,593.161,,,,,,1339,FEM,DIS,150,toalla,el,a,593.161,593.1611,0.560185185,0.490740741,0,0,0,,0,185,185,438,1,,,,
,,,,,,ac572d8c3e2590e8137bcb46,66a626ef09d4e21e1a8894ec,6734d671f59568f435765ece,2024-11-13_17h40.37.793,Tarea de género gramatical,2024.2.2,Win32,20,,,,,,,,,,,,,,,,,,,,,,,593.1621,595.067,a,1,1.0715,,[],[],[],[],[],[],[],1.0715,1,595.0671,595.4805,,,,,,1214,FEM,AGR,150,señora,la,a,595.4816,595.4832,0.560185185,0.490740741,0,0,0,,0,186,186,313,1,,,,
,,,,,,ac572d8c3e2590e8137bcb46,66a626ef09d4e21e1a8894ec,6734d671f59568f435765ece,2024-11-13_17h40.37.793,Tarea de género gramatical,2024.2.2,Win32,20,,,,,,,,,,,,,,,,,,,,,,,595.4839,596.8221,a,1,0.5384,,[],[],[],[],[],[],[],0.5384,1,596.8222,597.2292,,,,,,909,FEM,CON,150,mamá,,a,597.2293,597.2294,0.560185185,0.490740741,0,0,0,,0,187,187,8,1,,,,
,,,,,,ac572d8c3e2590e8137bcb46,66a626ef09d4e21e1a8894ec,6734d671f59568f435765ece,2024-11-13_17h40.37.793,Tarea de género gramatical,2024.2.2,Win32,20,,,,,,,,,,,,,,,,,,,,,,,597.2304,598.6826,a,1,0.6563,,[],[],[],[],[],[],[],0.6563,1,598.6826,599.1959,,,,,,1016,FEM,AGR,150,nube,la,a,599.1959,599.196,0.560185185,0.490740741,0,0,0,,0,188,188,115,1,,,,
,,,,,,ac572d8c3e2590e8137bcb46,66a626ef09d4e21e1a8894ec,6734d671f59568f435765ece,2024-11-13_17h40.37.793,Tarea de género gramatical,2024.2.2,Win32,20,,,,,,,,,,,,,,,,,,,,,,,599.1968,600.5508,l,1,0.5358,,[],[],[],[],[],[],[],0.5358,1,600.5509,600.9544,,,,,,1091,MAS,AGR,150,dolor,el,l,600.9545,600.9545,0.560185185,0.490740741,0,0,0,,0,189,189,190,1,,,,
,,,,,,ac572d8c3e2590e8137bcb46,66a626ef09d4e21e1a8894ec,6734d671f59568f435765ece,2024-11-13_17h40.37.793,Tarea de género gramatical,2024.2.2,Win32,20,,,,,,,,,,,,,,,,,,,,,,,600.9554,602.1784,a,1,0.426,,[],[],[],[],[],[],[],0.426,1,602.1784,602.7074,,,,,,1177,FEM,DIS,150,plaza,el,a,602.7075,602.7075,0.560185185,0.490740741,0,0,0,,0,190,190,276,1,,,,
,,,,,,ac572d8c3e2590e8137bcb46,66a626ef09d4e21e1a8894ec,6734d671f59568f435765ece,2024-11-13_17h40.37.793,Tarea de género gramatical,2024.2.2,Win32,20,,,,,,,,,,,,,,,,,,,,,,,602.7083,604.1641,l,1,0.6702,,[],[],[],[],[],[],[],0.6702,1,604.1642,604.6897,,,,,,1224,MAS,CON,150,cuarto,,l,604.6908,604.6924,0.560185185,0.490740741,0,0,0,,0,191,191,323,1,,,,
,,,,,,ac572d8c3e2590e8137bcb46,66a626ef09d4e21e1a8894ec,6734d671f59568f435765ece,2024-11-13_17h40.37.793,Tarea de género gramatical,2024.2.2,Win32,20,,,,,,,,,,,,,,,,,,,,,,,604.6931,606.0136,a,1,0.5301,,[],[],[],[],[],[],[],0.5301,1,606.0138,606.5586,,,,,,955,FEM,DIS,150,taza,el,a,606.5586,606.5586,0.560185185,0.490740741,0,0,0,,0,192,192,54,1,,,,
,,,,,,ac572d8c3e2590e8137bcb46,66a626ef09d4e21e1a8894ec,6734d671f59568f435765ece,2024-11-13_17h40.37.793,Tarea de género gramatical,2024.2.2,Win32,20,,,,,,,,,,,,,,,,,,,,,,,606.5594,608.1851,l,0,0.825,,[],[],[],[],[],[],[],0.825,0,608.1858,608.71,,,,,,1149,FEM,CON,150,crema,,a,608.7102,608.7102,0.560185185,0.490740741,0,0,0,,0,193,193,248,1,,,,
,,,,,,ac572d8c3e2590e8137bcb46,66a626ef09d4e21e1a8894ec,6734d671f59568f435765ece,2024-11-13_17h40.37.793,Tarea de género gramatical,2024.2.2,Win32,20,,,,,,,,,,,,,,,,,,,,,,,608.711,609.6366,a,1,0.1423,,[],[],[],[],[],[],[],0.1423,1,609.6372,610.1817,,,,,,950,FEM,AGR,150,dama,la,a,610.1818,610.1818,0.560185185,0.490740741,0,0,0,,0,194,194,49,1,,,,
,,,,,,ac572d8c3e2590e8137bcb46,66a626ef09d4e21e1a8894ec,6734d671f59568f435765ece,2024-11-13_17h40.37.793,Tarea de género gramatical,2024.2.2,Win32,20,,,,,,,,,,,,,,,,,,,,,,,610.1827,611.934,a,1,0.9392,,[],[],[],[],[],[],[],0.9392,1,611.9341,612.353,,,,,,944,FEM,AGR,150,zona,la,a,612.3539,612.3555,0.560185185,0.490740741,0,0,0,,0,195,195,43,1,,,,
,,,,,,ac572d8c3e2590e8137bcb46,66a626ef09d4e21e1a8894ec,6734d671f59568f435765ece,2024-11-13_17h40.37.793,Tarea de género gramatical,2024.2.2,Win32,20,,,,,,,,,,,,,,,,,,,,,,,612.3561,613.6938,l,1,0.5387,,[],[],[],[],[],[],[],0.5387,1,613.6939,614.1125,,,,,,970,MAS,DIS,150,palo,la,l,614.1126,614.1127,0.560185185,0.490740741,0,0,0,,0,196,196,69,1,,,,
,,,,,,ac572d8c3e2590e8137bcb46,66a626ef09d4e21e1a8894ec,6734d671f59568f435765ece,2024-11-13_17h40.37.793,Tarea de género gramatical,2024.2.2,Win32,20,,,,,,,,,,,,,,,,,,,,,,,614.1136,616.158,l,1,1.2322,,[],[],[],[],[],[],[],1.2322,1,616.1581,616.5952,,,,,,1331,MAS,AGR,150,veneno,el,l,616.5952,616.5953,0.560185185,0.490740741,0,0,0,,0,197,197,430,1,,,,
,,,,,,ac572d8c3e2590e8137bcb46,66a626ef09d4e21e1a8894ec,6734d671f59568f435765ece,2024-11-13_17h40.37.793,Tarea de género gramatical,2024.2.2,Win32,20,,,,,,,,,,,,,,,,,,,,,,,616.5961,618.0547,a,1,0.6611,,[],[],[],[],[],[],[],0.6611,1,618.0548,618.4564,,,,,,1011,FEM,CON,150,goma,,a,618.4564,618.4565,0.560185185,0.490740741,0,0,0,,0,198,198,110,1,,,,
,,,,,,ac572d8c3e2590e8137bcb46,66a626ef09d4e21e1a8894ec,6734d671f59568f435765ece,2024-11-13_17h40.37.793,Tarea de género gramatical,2024.2.2,Win32,20,,,,,,,,,,,,,,,,,,,,,,,618.4573,619.8282,l,0,0.5476,,[],[],[],[],[],[],[],0.5476,0,619.8288,620.3442,,,,,,1075,FEM,DIS,150,señal,el,a,620.3442,620.3443,0.560185185,0.490740741,0,0,0,,0,199,199,174,1,,,,
,,,,,,ac572d8c3e2590e8137bcb46,66a626ef09d4e21e1a8894ec,6734d671f59568f435765ece,2024-11-13_17h40.37.793,Tarea de género gramatical,2024.2.2,Win32,20,,,,,,,,,,,,,,,,,,,,,,,620.3451,622.9063,,0,,,[],[],[],[],[],[],[],0.5476,-1,622.907,623.4324,,,,,,1053,FEM,CON,150,mujer,,a,623.4333,623.435,0.560185185,0.490740741,0,0,0,,0,200,200,152,1,,,,
,,,,,,ac572d8c3e2590e8137bcb46,66a626ef09d4e21e1a8894ec,6734d671f59568f435765ece,2024-11-13_17h40.37.793,Tarea de género gramatical,2024.2.2,Win32,20,,,,,,,,,,,,,,,,,,,,,,,623.4355,624.3575,a,0,0.143,,[],[],[],[],[],[],[],0.143,0,624.3582,624.8839,,,,,,1320,MAS,CON,150,helado,,l,624.884,624.884,0.560185185,0.490740741,0,0,0,,0,201,201,419,1,,,,
,,,,,,ac572d8c3e2590e8137bcb46,66a626ef09d4e21e1a8894ec,6734d671f59568f435765ece,2024-11-13_17h40.37.793,Tarea de género gramatical,2024.2.2,Win32,20,,,,,,,,,,,,,,,,,,,,,,,624.8849,626.348,l,1,0.6667,,[],[],[],[],[],[],[],0.6667,1,626.3486,626.7723,,,,,,1265,MAS,AGR,150,código,el,l,626.7723,626.7724,0.560185185,0.490740741,0,0,0,,0,202,202,364,1,,,,
,,,,,,ac572d8c3e2590e8137bcb46,66a626ef09d4e21e1a8894ec,6734d671f59568f435765ece,2024-11-13_17h40.37.793,Tarea de género gramatical,2024.2.2,Win32,20,,,,,,,,,,,,,,,,,,,,,,,626.7733,628.2626,a,1,0.6771,,[],[],[],[],[],[],[],0.6771,1,628.2626,628.6701,,,,,,986,FEM,AGR,150,cruz,la,a,628.6701,628.6701,0.560185185,0.490740741,0,0,0,,0,203,203,85,1,,,,
,,,,,,ac572d8c3e2590e8137bcb46,66a626ef09d4e21e1a8894ec,6734d671f59568f435765ece,2024-11-13_17h40.37.793,Tarea de género gramatical,2024.2.2,Win32,20,,,,,,,,,,,,,,,,,,,,,,,628.671,629.897,a,1,0.4379,,[],[],[],[],[],[],[],0.4379,1,629.897,630.2947,,,,,,1190,FEM,AGR,150,cabra,la,a,630.2957,630.2974,0.560185185,0.490740741,0,0,0,,0,204,204,289,1,,,,
,,,,,,ac572d8c3e2590e8137bcb46,66a626ef09d4e21e1a8894ec,6734d671f59568f435765ece,2024-11-13_17h40.37.793,Tarea de género gramatical,2024.2.2,Win32,20,,,,,,,,,,,,,,,,,,,,,,,630.298,631.6572,l,1,0.5752,,[],[],[],[],[],[],[],0.5752,1,631.6573,632.0613,,,,,,917,MAS,AGR,150,modo,el,l,632.0614,632.0615,0.560185185,0.490740741,0,0,0,,0,205,205,16,1,,,,
,,,,,,ac572d8c3e2590e8137bcb46,66a626ef09d4e21e1a8894ec,6734d671f59568f435765ece,2024-11-13_17h40.37.793,Tarea de género gramatical,2024.2.2,Win32,20,,,,,,,,,,,,,,,,,,,,,,,632.0625,634.7162,,0,,,[],[],[],[],[],[],[],0.5752,-1,634.7169,635.2374,,,,,,1167,FEM,CON,150,barba,,a,635.2375,635.2376,0.560185185,0.490740741,0,0,0,,0,206,206,266,1,,,,
,,,,,,ac572d8c3e2590e8137bcb46,66a626ef09d4e21e1a8894ec,6734d671f59568f435765ece,2024-11-13_17h40.37.793,Tarea de género gramatical,2024.2.2,Win32,20,,,,,,,,,,,,,,,,,,,,,,,635.2384,636.4258,a,1,0.3913,,[],[],[],[],[],[],[],0.3913,1,636.4263,636.9572,,,,,,907,FEM,DIS,150,hora,el,a,636.9572,636.9572,0.560185185,0.490740741,0,0,0,,0,207,207,6,1,,,,
,,,,,,ac572d8c3e2590e8137bcb46,66a626ef09d4e21e1a8894ec,6734d671f59568f435765ece,2024-11-13_17h40.37.793,Tarea de género gramatical,2024.2.2,Win32,20,,,,,,,,,,,,,,,,,,,,,,,636.9581,638.2665,a,1,0.5307,,[],[],[],[],[],[],[],0.5307,1,638.2666,638.8112,,,,,,1141,FEM,DIS,150,pasta,el,a,638.8112,638.8113,0.560185185,0.490740741,0,0,0,,0,208,208,240,1,,,,
,,,,,,ac572d8c3e2590e8137bcb46,66a626ef09d4e21e1a8894ec,6734d671f59568f435765ece,2024-11-13_17h40.37.793,Tarea de género gramatical,2024.2.2,Win32,20,,,,,,,,,,,,,,,,,,,,,,,638.8122,640.1622,l,1,0.5619,,[],[],[],[],[],[],[],0.5619,1,640.1623,640.6911,,,,,,946,MAS,DIS,150,odio,la,l,640.6921,640.6939,0.560185185,0.490740741,0,0,0,,0,209,209,45,1,,,,
,,,,,,ac572d8c3e2590e8137bcb46,66a626ef09d4e21e1a8894ec,6734d671f59568f435765ece,2024-11-13_17h40.37.793,Tarea de género gramatical,2024.2.2,Win32,20,,,,,,,,,,,,,,,,,,,,,,,640.6944,642.0141,l,0,0.5348,0.0002,[],[],[],[],[],[],[],0.5348,0,642.0148,642.4181,,,,,,1310,FEM,AGR,150,piedad,la,a,642.4182,642.4182,0.560185185,0.490740741,0,0,0,,0,210,210,409,1,,,,
,,,,,,ac572d8c3e2590e8137bcb46,66a626ef09d4e21e1a8894ec,6734d671f59568f435765ece,2024-11-13_17h40.37.793,Tarea de género gramatical,2024.2.2,Win32,20,,,,,,,,,,,,,,,,,,,,,,,642.4191,645.0672,,0,,,[],[],[],[],[],[],[],0.5348,-1,645.0682,645.6033,,,,,,903,FEM,CON,150,cosa,,a,645.6034,645.6034,0.560185185,0.490740741,0,0,0,,0,211,211,2,1,,,,
,,,,,,ac572d8c3e2590e8137bcb46,66a626ef09d4e21e1a8894ec,6734d671f59568f435765ece,2024-11-13_17h40.37.793,Tarea de género gramatical,2024.2.2,Win32,20,,,,,,,,,,,,,,,,,,,,,,,645.6043,647.0732,l,0,0.6747,,[],[],[],[],[],[],[],0.6747,0,647.0738,647.6064,,,,,,1051,FEM,DIS,150,noche,el,a,647.6065,647.6066,0.560185185,0.490740741,0,0,0,,0,212,212,150,1,,,,
,,,,,,ac572d8c3e2590e8137bcb46,66a626ef09d4e21e1a8894ec,6734d671f59568f435765ece,2024-11-13_17h40.37.793,Tarea de género gramatical,2024.2.2,Win32,20,,,,,,,,,,,,,,,,,,,,,,,647.6074,649.7431,l,1,1.3385,,[],[],[],[],[],[],[],1.3385,1,649.7438,650.2594,,,,,,1097,MAS,AGR,150,avión,el,l,650.2603,650.262,0.560185185,0.490740741,0,0,0,,0,213,213,196,1,,,,
,,,,,,ac572d8c3e2590e8137bcb46,66a626ef09d4e21e1a8894ec,6734d671f59568f435765ece,2024-11-13_17h40.37.793,Tarea de género gramatical,2024.2.2,Win32,20,,,,,,,,,,,,,,,,,,,,,,,650.2625,651.8457,a,0,0.7948,,[],[],[],[],[],[],[],0.7948,0,651.8463,652.3644,,,,,,1198,MAS,DIS,150,botón,la,l,652.3645,652.3645,0.560185185,0.490740741,0,0,0,,0,214,214,297,1,,,,
,,,,,,ac572d8c3e2590e8137bcb46,66a626ef09d4e21e1a8894ec,6734d671f59568f435765ece,2024-11-13_17h40.37.793,Tarea de género gramatical,2024.2.2,Win32,20,,,,,,,,,,,,,,,,,,,,,,,652.3654,653.8103,a,1,0.6593,,[],[],[],[],[],[],[],0.6593,1,653.8109,654.2597,,,,,,998,FEM,AGR,150,fuga,la,a,654.2597,654.2598,0.560185185,0.490740741,0,0,0,,0,215,215,97,1,,,,
,,,,,,ac572d8c3e2590e8137bcb46,66a626ef09d4e21e1a8894ec,6734d671f59568f435765ece,2024-11-13_17h40.37.793,Tarea de género gramatical,2024.2.2,Win32,20,,,,,,,,,,,,,,,,,,,,,,,654.2607,655.6149,a,1,0.5494,,[],[],[],[],[],[],[],0.5494,1,655.6151,656.0181,,,,,,1142,FEM,AGR,150,pizza,la,a,656.0181,656.0181,0.560185185,0.490740741,0,0,0,,0,216,216,241,1,,,,
,,,,,,ac572d8c3e2590e8137bcb46,66a626ef09d4e21e1a8894ec,6734d671f59568f435765ece,2024-11-13_17h40.37.793,Tarea de género gramatical,2024.2.2,Win32,20,,,,,,,,,,,,,,,,,,,,,,,656.019,657.6511,l,1,0.8577,1E-04,[],[],[],[],[],[],[],0.8577,1,657.6512,658.174,,,,,,1152,MAS,CON,150,viejo,,l,658.174,658.1741,0.560185185,0.490740741,0,0,0,,0,217,217,251,1,,,,
,,,,,,ac572d8c3e2590e8137bcb46,66a626ef09d4e21e1a8894ec,6734d671f59568f435765ece,2024-11-13_17h40.37.793,Tarea de género gramatical,2024.2.2,Win32,20,,,,,,,,,,,,,,,,,,,,,,,658.1749,659.616,a,1,0.6677,,[],[],[],[],[],[],[],0.6677,1,659.6161,660.0379,,,,,,931,FEM,DIS,150,edad,el,a,660.0388,660.0403,0.560185185,0.490740741,0,0,0,,0,218,218,30,1,,,,
,,,,,,ac572d8c3e2590e8137bcb46,66a626ef09d4e21e1a8894ec,6734d671f59568f435765ece,2024-11-13_17h40.37.793,Tarea de género gramatical,2024.2.2,Win32,20,,,,,,,,,,,,,,,,,,,,,,,660.0412,661.2525,a,0,0.4108,,[],[],[],[],[],[],[],0.4108,0,661.2532,661.6844,,,,,,1031,MAS,AGR,150,kilo,el,l,661.6844,661.6844,0.560185185,0.490740741,0,0,0,,0,219,219,130,1,,,,
,,,,,,ac572d8c3e2590e8137bcb46,66a626ef09d4e21e1a8894ec,6734d671f59568f435765ece,2024-11-13_17h40.37.793,Tarea de género gramatical,2024.2.2,Win32,20,,,,,,,,,,,,,,,,,,,,,,,661.6852,663.3877,a,1,0.9137,,[],[],[],[],[],[],[],0.9137,1,663.3884,663.7958,,,,,,1089,FEM,CON,150,pista,,a,663.7958,663.7958,0.560185185,0.490740741,0,0,0,,0,220,220,188,1,,,,
,,,,,,ac572d8c3e2590e8137bcb46,66a626ef09d4e21e1a8894ec,6734d671f59568f435765ece,2024-11-13_17h40.37.793,Tarea de género gramatical,2024.2.2,Win32,20,,,,,,,,,,,,,,,,,,,,,,,663.7968,664.9861,a,0,0.3972,,[],[],[],[],[],[],[],0.3972,0,664.9867,665.3989,,,,,,1098,MAS,CON,150,hotel,,l,665.3989,665.3989,0.560185185,0.490740741,0,0,0,,0,221,221,197,1,,,,
,,,,,,ac572d8c3e2590e8137bcb46,66a626ef09d4e21e1a8894ec,6734d671f59568f435765ece,2024-11-13_17h40.37.793,Tarea de género gramatical,2024.2.2,Win32,20,,,,,,,,,,,,,,,,,,,,,,,665.3998,666.857,a,1,0.6759,,[],[],[],[],[],[],[],0.6759,1,666.8577,667.3804,,,,,,1220,FEM,AGR,150,fiesta,la,a,667.3814,667.3831,0.560185185,0.490740741,0,0,0,,0,222,222,319,1,,,,
,,,,,,ac572d8c3e2590e8137bcb46,66a626ef09d4e21e1a8894ec,6734d671f59568f435765ece,2024-11-13_17h40.37.793,Tarea de género gramatical,2024.2.2,Win32,20,,,,,,,,,,,,,,,,,,,,,,,667.3836,668.7044,l,1,0.5365,,[],[],[],[],[],[],[],0.5365,1,668.7045,669.1101,,,,,,1240,MAS,DIS,150,pasado,la,l,669.1102,669.1102,0.560185185,0.490740741,0,0,0,,0,223,223,339,1,,,,
,,,,,,ac572d8c3e2590e8137bcb46,66a626ef09d4e21e1a8894ec,6734d671f59568f435765ece,2024-11-13_17h40.37.793,Tarea de género gramatical,2024.2.2,Win32,20,,,,,,,,,,,,,,,,,,,,,,,669.111,671.5075,l,0,1.5795,,[],[],[],[],[],[],[],1.5795,0,671.5082,671.9186,,,,,,949,FEM,DIS,150,piel,el,a,671.9186,671.9186,0.560185185,0.490740741,0,0,0,,0,224,224,48,1,,,,
,,,,,,ac572d8c3e2590e8137bcb46,66a626ef09d4e21e1a8894ec,6734d671f59568f435765ece,2024-11-13_17h40.37.793,Tarea de género gramatical,2024.2.2,Win32,20,,,,,,,,,,,,,,,,,,,,,,,671.9195,673.4169,l,1,0.6762,,[],[],[],[],[],[],[],0.6762,1,673.4175,673.9393,,,,,,1344,MAS,CON,150,límite,,l,673.9393,673.9394,0.560185185,0.490740741,0,0,0,,0,225,225,443,1,,,,
,,,,,,ac572d8c3e2590e8137bcb46,66a626ef09d4e21e1a8894ec,6734d671f59568f435765ece,2024-11-13_17h40.37.793,Tarea de género gramatical,2024.2.2,Win32,20,,,,,,,,,,,,,,,,,,,,,,,673.9402,675.2667,a,1,0.5276,,[],[],[],[],[],[],[],0.5276,1,675.2669,675.6863,,,,,,1250,FEM,AGR,150,imagen,la,a,675.6863,675.6865,0.560185185,0.490740741,0,0,0,,0,226,226,349,1,,,,
,,,,,,ac572d8c3e2590e8137bcb46,66a626ef09d4e21e1a8894ec,6734d671f59568f435765ece,2024-11-13_17h40.37.793,Tarea de género gramatical,2024.2.2,Win32,20,,,,,,,,,,,,,,,,,,,,,,,675.6873,676.8855,a,1,0.4115,,[],[],[],[],[],[],[],0.4115,1,676.8855,677.4017,,,,,,992,FEM,AGR,150,masa,la,a,677.4027,677.4043,0.560185185,0.490740741,0,0,0,,0,227,227,91,1,,,,
,,,,,,ac572d8c3e2590e8137bcb46,66a626ef09d4e21e1a8894ec,6734d671f59568f435765ece,2024-11-13_17h40.37.793,Tarea de género gramatical,2024.2.2,Win32,20,,,,,,,,,,,,,,,,,,,,,,,677.4049,678.7448,a,1,0.5513,,[],[],[],[],[],[],[],0.5513,1,678.7449,679.2824,,,,,,1225,FEM,DIS,150,tierra,el,a,679.2824,679.2825,0.560185185,0.490740741,0,0,0,,0,228,228,324,1,,,,
,,,,,,ac572d8c3e2590e8137bcb46,66a626ef09d4e21e1a8894ec,6734d671f59568f435765ece,2024-11-13_17h40.37.793,Tarea de género gramatical,2024.2.2,Win32,20,,,,,,,,,,,,,,,,,,,,,,,679.2833,680.7299,a,0,0.6732,,[],[],[],[],[],[],[],0.6732,0,680.7305,681.1462,,,,,,936,MAS,CON,150,dedo,,l,681.1462,681.1463,0.560185185,0.490740741,0,0,0,,0,229,229,35,1,,,,
,,,,,,ac572d8c3e2590e8137bcb46,66a626ef09d4e21e1a8894ec,6734d671f59568f435765ece,2024-11-13_17h40.37.793,Tarea de género gramatical,2024.2.2,Win32,20,,,,,,,,,,,,,,,,,,,,,,,681.1471,683.7982,,0,,,[],[],[],[],[],[],[],0.6732,-1,683.7989,684.2068,,,,,,1347,FEM,CON,150,lógica,,a,684.2068,684.2069,0.560185185,0.490740741,0,0,0,,0,230,230,446,1,,,,
,,,,,,ac572d8c3e2590e8137bcb46,66a626ef09d4e21e1a8894ec,6734d671f59568f435765ece,2024-11-13_17h40.37.793,Tarea de género gramatical,2024.2.2,Win32,20,,,,,,,,,,,,,,,,,,,,,,,684.2078,685.2982,l,0,0.2698,,[],[],[],[],[],[],[],0.2698,0,685.2987,685.7016,,,,,,1015,FEM,DIS,150,seda,el,a,685.7026,685.7043,0.560185185,0.490740741,0,0,0,,0,231,231,114,1,,,,
,,,,,,ac572d8c3e2590e8137bcb46,66a626ef09d4e21e1a8894ec,6734d671f59568f435765ece,2024-11-13_17h40.37.793,Tarea de género gramatical,2024.2.2,Win32,20,,,,,,,,,,,,,,,,,,,,,,,685.7049,687.1465,a,1,0.5336,,[],[],[],[],[],[],[],0.5336,1,687.1471,687.5563,,,,,,956,FEM,AGR,150,bola,la,a,687.5564,687.5565,0.560185185,0.490740741,0,0,0,,0,232,232,55,1,,,,
,,,,,,ac572d8c3e2590e8137bcb46,66a626ef09d4e21e1a8894ec,6734d671f59568f435765ece,2024-11-13_17h40.37.793,Tarea de género gramatical,2024.2.2,Win32,20,,,,,,,,,,,,,,,,,,,,,,,687.5572,688.868,l,1,0.5332,,[],[],[],[],[],[],[],0.5332,1,688.868,689.2599,,,,,,1266,MAS,CON,150,riesgo,,l,689.26,689.26,0.560185185,0.490740741,0,0,0,,0,233,233,365,1,,,,
,,,,,,ac572d8c3e2590e8137bcb46,66a626ef09d4e21e1a8894ec,6734d671f59568f435765ece,2024-11-13_17h40.37.793,Tarea de género gramatical,2024.2.2,Win32,20,,,,,,,,,,,,,,,,,,,,,,,689.2609,691.9655,,0,,,[],[],[],[],[],[],[],0.5332,-1,691.9663,692.3906,,,,,,1284,MAS,CON,150,pedazo,,l,692.3907,692.3907,0.560185185,0.490740741,0,0,0,,0,234,234,383,1,,,,
,,,,,,ac572d8c3e2590e8137bcb46,66a626ef09d4e21e1a8894ec,6734d671f59568f435765ece,2024-11-13_17h40.37.793,Tarea de género gramatical,2024.2.2,Win32,20,,,,,,,,,,,,,,,,,,,,,,,692.3917,693.7686,a,0,0.551,,[],[],[],[],[],[],[],0.551,0,693.7692,694.2944,,,,,,1054,MAS,DIS,150,padre,la,l,694.2944,694.2946,0.560185185,0.490740741,0,0,0,,0,235,235,153,1,,,,
,,,,,,ac572d8c3e2590e8137bcb46,66a626ef09d4e21e1a8894ec,6734d671f59568f435765ece,2024-11-13_17h40.37.793,Tarea de género gramatical,2024.2.2,Win32,20,,,,,,,,,,,,,,,,,,,,,,,694.2954,695.6199,a,0,0.5296,,[],[],[],[],[],[],[],0.5296,0,695.62,696.0348,,,,,,1151,MAS,AGR,150,dueño,el,l,696.0357,696.0373,0.560185185,0.490740741,0,0,0,,0,236,236,250,1,,,,
,,,,,,ac572d8c3e2590e8137bcb46,66a626ef09d4e21e1a8894ec,6734d671f59568f435765ece,2024-11-13_17h40.37.793,Tarea de género gramatical,2024.2.2,Win32,20,,,,,,,,,,,,,,,,,,,,,,,696.0379,697.3349,l,1,0.3998,,[],[],[],[],[],[],[],0.3998,1,697.3356,697.8629,,,,,,958,MAS,DIS,150,mono,la,l,697.8629,697.8629,0.560185185,0.490740741,0,0,0,,0,237,237,57,1,,,,
,,,,,,ac572d8c3e2590e8137bcb46,66a626ef09d4e21e1a8894ec,6734d671f59568f435765ece,2024-11-13_17h40.37.793,Tarea de género gramatical,2024.2.2,Win32,20,,,,,,,,,,,,,,,,,,,,,,,697.8638,699.0737,a,1,0.4205,,[],[],[],[],[],[],[],0.4205,1,699.0737,699.6126,,,,,,1094,FEM,AGR,150,banda,la,a,699.6126,699.6127,0.560185185,0.490740741,0,0,0,,0,238,238,193,1,,,,
,,,,,,ac572d8c3e2590e8137bcb46,66a626ef09d4e21e1a8894ec,6734d671f59568f435765ece,2024-11-13_17h40.37.793,Tarea de género gramatical,2024.2.2,Win32,20,,,,,,,,,,,,,,,,,,,,,,,699.6135,701.2179,l,0,0.8126,,[],[],[],[],[],[],[],0.8126,0,701.2185,701.6319,,,,,,1207,FEM,DIS,150,suerte,el,a,701.632,701.6321,0.560185185,0.490740741,0,0,0,,0,239,239,306,1,,,,
,,,,,,ac572d8c3e2590e8137bcb46,66a626ef09d4e21e1a8894ec,6734d671f59568f435765ece,2024-11-13_17h40.37.793,Tarea de género gramatical,2024.2.2,Win32,20,,,,,,,,,,,,,,,,,,,,,,,701.6331,703.6562,l,0,1.2201,,[],[],[],[],[],[],[],1.2201,0,703.6562,704.1868,,,,,,1063,FEM,DIS,150,calle,el,a,704.1878,704.1895,0.560185185,0.490740741,0,0,0,,0,240,240,162,1,,,,
,,,,,,ac572d8c3e2590e8137bcb46,66a626ef09d4e21e1a8894ec,6734d671f59568f435765ece,2024-11-13_17h40.37.793,Tarea de género gramatical,2024.2.2,Win32,20,,,,,,,,,,,,,,,,,,,,,,,704.1901,705.8259,l,1,0.8257,,[],[],[],[],[],[],[],0.8257,1,705.8265,706.3501,,,,,,1036,MAS,DIS,150,vago,la,l,706.3502,706.3502,0.560185185,0.490740741,0,0,0,,0,241,241,135,1,,,,
,,,,,,ac572d8c3e2590e8137bcb46,66a626ef09d4e21e1a8894ec,6734d671f59568f435765ece,2024-11-13_17h40.37.793,Tarea de género gramatical,2024.2.2,Win32,20,,,,,,,,,,,,,,,,,,,,,,,706.351,707.6616,l,1,0.5371,,[],[],[],[],[],[],[],0.5371,1,707.6617,708.0644,,,,,,1181,MAS,AGR,150,actor,el,l,708.0644,708.0644,0.560185185,0.490740741,0,0,0,,0,242,242,280,1,,,,
,,,,,,ac572d8c3e2590e8137bcb46,66a626ef09d4e21e1a8894ec,6734d671f59568f435765ece,2024-11-13_17h40.37.793,Tarea de género gramatical,2024.2.2,Win32,20,,,,,,,,,,,,,,,,,,,,,,,708.0654,709.2731,l,0,0.4094,,[],[],[],[],[],[],[],0.4094,0,709.2737,709.7987,,,,,,1023,FEM,CON,150,tela,,a,709.7988,709.7988,0.560185185,0.490740741,0,0,0,,0,243,243,122,1,,,,
,,,,,,ac572d8c3e2590e8137bcb46,66a626ef09d4e21e1a8894ec,6734d671f59568f435765ece,2024-11-13_17h40.37.793,Tarea de género gramatical,2024.2.2,Win32,20,,,,,,,,,,,,,,,,,,,,,,,709.7997,711.3849,a,1,0.7938,0.0002,[],[],[],[],[],[],[],0.7938,1,711.3855,711.9152,,,,,,1262,FEM,AGR,150,fuente,la,a,711.9153,711.9154,0.560185185,0.490740741,0,0,0,,0,244,244,361,1,,,,
,,,,,,ac572d8c3e2590e8137bcb46,66a626ef09d4e21e1a8894ec,6734d671f59568f435765ece,2024-11-13_17h40.37.793,Tarea de género gramatical,2024.2.2,Win32,20,,,,,,,,,,,,,,,,,,,,,,,711.9162,713.3702,l,1,0.6778,,[],[],[],[],[],[],[],0.6778,1,713.3703,713.8931,,,,,,996,MAS,CON,150,pato,,l,713.8942,713.8957,0.560185185,0.490740741,0,0,0,,0,245,245,95,1,,,,
,,,,,,ac572d8c3e2590e8137bcb46,66a626ef09d4e21e1a8894ec,6734d671f59568f435765ece,2024-11-13_17h40.37.793,Tarea de género gramatical,2024.2.2,Win32,20,,,,,,,,,,,,,,,,,,,,,,,713.8964,715.268,l,1,0.4323,0,[],[],[],[],[],[],[],0.4323,1,715.2681,715.6788,,,,,,971,MAS,AGR,150,pozo,el,l,715.6788,715.6789,0.560185185,0.490740741,0,0,0,,0,246,246,70,1,,,,
,,,,,,ac572d8c3e2590e8137bcb46,66a626ef09d4e21e1a8894ec,6734d671f59568f435765ece,2024-11-13_17h40.37.793,Tarea de género gramatical,2024.2.2,Win32,20,,,,,,,,,,,,,,,,,,,,,,,715.6797,717.0268,a,0,0.5747,,[],[],[],[],[],[],[],0.5747,0,717.0273,717.5667,,,,,,1294,MAS,DIS,150,examen,la,l,717.5667,717.5668,0.560185185,0.490740741,0,0,0,,0,247,247,393,1,,,,
,,,,,,ac572d8c3e2590e8137bcb46,66a626ef09d4e21e1a8894ec,6734d671f59568f435765ece,2024-11-13_17h40.37.793,Tarea de género gramatical,2024.2.2,Win32,20,,,,,,,,,,,,,,,,,,,,,,,717.5677,719.4007,l,1,0.9266,,[],[],[],[],[],[],[],0.9266,1,719.4012,719.8014,,,,,,1324,MAS,DIS,150,rastro,la,l,719.8014,719.8015,0.560185185,0.490740741,0,0,0,,0,248,248,423,1,,,,
,,,,,,ac572d8c3e2590e8137bcb46,66a626ef09d4e21e1a8894ec,6734d671f59568f435765ece,2024-11-13_17h40.37.793,Tarea de género gramatical,2024.2.2,Win32,20,,,,,,,,,,,,,,,,,,,,,,,719.8023,721.9816,a,0,1.3318,,[],[],[],[],[],[],[],1.3318,0,721.9825,722.4384,,,,,,964,MAS,DIS,150,saco,la,l,722.4402,722.4423,0.560185185,0.490740741,0,0,0,,0,249,249,63,1,,,,
,,,,,,ac572d8c3e2590e8137bcb46,66a626ef09d4e21e1a8894ec,6734d671f59568f435765ece,2024-11-13_17h40.37.793,Tarea de género gramatical,2024.2.2,Win32,20,,,,,,,,,,,,,,,,,,,,,,,722.4432,724.4569,l,0,1.0939,,[],[],[],[],[],[],[],1.0939,0,724.457,724.8905,,,,,,985,FEM,DIS,150,gira,el,a,724.8905,724.8907,0.560185185,0.490740741,0,0,0,,0,250,250,84,1,,,,
,,,,,,ac572d8c3e2590e8137bcb46,66a626ef09d4e21e1a8894ec,6734d671f59568f435765ece,2024-11-13_17h40.37.793,Tarea de género gramatical,2024.2.2,Win32,20,,,,,,,,,,,,,,,,,,,,,,,724.8915,726.202,a,1,0.4547,,[],[],[],[],[],[],[],0.4547,1,726.2028,726.6306,,,,,,1269,FEM,CON,150,camisa,,a,726.6307,726.6307,0.560185185,0.490740741,0,0,0,,0,251,251,368,1,,,,
,,,,,,ac572d8c3e2590e8137bcb46,66a626ef09d4e21e1a8894ec,6734d671f59568f435765ece,2024-11-13_17h40.37.793,Tarea de género gramatical,2024.2.2,Win32,20,,,,,,,,,,,,,,,,,,,,,,,726.6317,728.4274,a,1,0.9349,,[],[],[],[],[],[],[],0.9349,1,728.4275,728.8352,,,,,,1100,FEM,AGR,150,silla,la,a,728.8353,728.8353,0.560185185,0.490740741,0,0,0,,0,252,252,199,1,,,,
,,,,,,ac572d8c3e2590e8137bcb46,66a626ef09d4e21e1a8894ec,6734d671f59568f435765ece,2024-11-13_17h40.37.793,Tarea de género gramatical,2024.2.2,Win32,20,,,,,,,,,,,,,,,,,,,,,,,728.8362,730.189,l,0,0.5352,,[],[],[],[],[],[],[],0.5352,0,730.1897,730.5965,,,,,,1081,FEM,DIS,150,tarde,el,a,730.5966,730.5966,0.560185185,0.490740741,0,0,0,,0,253,253,180,1,,,,
,,,,,,ac572d8c3e2590e8137bcb46,66a626ef09d4e21e1a8894ec,6734d671f59568f435765ece,2024-11-13_17h40.37.793,Tarea de género gramatical,2024.2.2,Win32,20,,,,,,,,,,,,,,,,,,,,,,,730.5975,732.0702,l,1,0.6904,1E-04,[],[],[],[],[],[],[],0.6904,1,732.0712,732.4794,,,,,,1295,MAS,AGR,150,correo,el,l,732.4804,732.482,0.560185185,0.490740741,0,0,0,,0,254,254,394,1,,,,
,,,,,,ac572d8c3e2590e8137bcb46,66a626ef09d4e21e1a8894ec,6734d671f59568f435765ece,2024-11-13_17h40.37.793,Tarea de género gramatical,2024.2.2,Win32,20,,,,,,,,,,,,,,,,,,,,,,,732.4826,733.8138,a,1,0.5396,,[],[],[],[],[],[],[],0.5396,1,733.8138,734.3496,,,,,,1153,FEM,DIS,150,aldea,el,a,734.3496,734.3497,0.560185185,0.490740741,0,0,0,,0,255,255,252,1,,,,
,,,,,,ac572d8c3e2590e8137bcb46,66a626ef09d4e21e1a8894ec,6734d671f59568f435765ece,2024-11-13_17h40.37.793,Tarea de género gramatical,2024.2.2,Win32,20,,,,,,,,,,,,,,,,,,,,,,,734.3505,735.7056,a,1,0.5486,,[],[],[],[],[],[],[],0.5486,1,735.7056,736.2355,,,,,,1232,FEM,AGR,150,basura,la,a,736.2356,736.2357,0.560185185,0.490740741,0,0,0,,0,256,256,331,1,,,,
,,,,,,ac572d8c3e2590e8137bcb46,66a626ef09d4e21e1a8894ec,6734d671f59568f435765ece,2024-11-13_17h40.37.793,Tarea de género gramatical,2024.2.2,Win32,20,,,,,,,,,,,,,,,,,,,,,,,736.2366,737.4157,a,1,0.4069,,[],[],[],[],[],[],[],0.4069,1,737.4157,737.9591,,,,,,1304,FEM,AGR,150,gloria,la,a,737.9591,737.9592,0.560185185,0.490740741,0,0,0,,0,257,257,403,1,,,,
,,,,,,ac572d8c3e2590e8137bcb46,66a626ef09d4e21e1a8894ec,6734d671f59568f435765ece,2024-11-13_17h40.37.793,Tarea de género gramatical,2024.2.2,Win32,20,,,,,,,,,,,,,,,,,,,,,,,737.96,739.863,l,0,1.1065,,[],[],[],[],[],[],[],1.1065,0,739.8637,740.3874,,,,,,925,FEM,DIS,150,nave,el,a,740.3884,740.3899,0.560185185,0.490740741,0,0,0,,0,258,258,24,1,,,,
