counterbalancing_condition,consent_prescreening.block_1/declare_consent,consent_prescreening.block_1/age_years,consent_prescreening.block_1/gender,consent_prescreening.block_1/language_disorder,consent_prescreening.block_1/first_language,PROLIFIC_PID,STUDY_ID,SESSION_ID,date,expName,psychopyVersion,OS,frameRate,check_prescreening_answers.started,check_prescreening_answers.stopped,Instructions.started,Instructions.stopped,instr_done_keyboard.keys,instr_done_touch.x,instr_done_touch.y,instr_done_touch.leftButton,instr_done_touch.midButton,instr_done_touch.rightButton,instr_done_touch.clicked_name,instruction_pages.thisRepN,instruction_pages.thisTrialN,instruction_pages.thisN,instruction_pages.thisIndex,instruction_pages.ran,pageN,phase,instruct_text,has_image,instruct_image,instr_done_keyboard.rt,instr_done_keyboard.duration,presentTrial.started,presentTrial.stopped,response.keys,response.corr,touch_resp.x,touch_resp.y,touch_resp.leftButton,touch_resp.midButton,touch_resp.rightButton,touch_resp.time,touch_resp.clicked_name,rt,corr,feedback.started,feedback.stopped,practice_trials.thisRepN,practice_trials.thisTrialN,practice_trials.thisN,practice_trials.thisIndex,practice_trials.ran,TrialID,StimulusType,Condition,PrimeDuration,Prime,Flanker,corrAns,response.rt,response.duration,Break.started,Break.stopped,break_done_touch.x,break_done_touch.y,break_done_touch.leftButton,break_done_touch.midButton,break_done_touch.rightButton,break_done_keyboard.keys,experiment_trials.thisRepN,experiment_trials.thisTrialN,experiment_trials.thisN,experiment_trials.thisIndex,experiment_trials.ran,break_done_keyboard.rt,break_done_keyboard.duration,End.started,End.stopped
0,"[""over_18"",""comfortable"",""read_info"",""consent_given""]",43,M,"[""none""]","[""spanish""]",ac875b99b9db2aa56b437be5,66a626ef09d4e21e1a8894ec,673498ffef7777dce1fb7883,2024-11-13_13h18.39.674,Tarea de género gramatical,2024.2.2,Win32,59.88023952,,,,,,,,,,,,,,,,,,,,,,,,,,,,,,,,,,,,,,,,,,,,,,,,,,,,,,,,,,,,,,,,,,,,,
,,,,,,ac875b99b9db2aa56b437be5,66a626ef09d4e21e1a8894ec,673498ffef7777dce1fb7883,2024-11-13_13h18.39.674,Tarea de género gramatical,2024.2.2,Win32,59.88023952,28.1961,28.1961,,,,,,,,,,,,,,,,,,,,,,,,,,,,,,,,,,,,,,,,,,,,,,,,,,,,,,,,,,,,,,,,,,,
,,,,,,ac875b99b9db2aa56b437be5,66a626ef09d4e21e1a8894ec,673498ffef7777dce1fb7883,2024-11-13_13h18.39.674,Tarea de género gramatical,2024.2.2,Win32,59.88023952,,,28.2177,42.3447,,0.062037037,-0.401851852,1,0,0,instr_done_button,0,0,0,0,1,1,instructions,"INSTRUCCIONES
Va a realizar una prueba de selección gramatical. Desde el comienzo de la prueba mire siempre al centro de la pantalla. Al cabo de un momento, aparecerán palabras. La tarea consiste en determinar si la palabra del centro (siempre será un sustantivo), pertenece al género masculino o femenino.

Pulse la tecla ESPACIO o toque el botón de abajo para continuar.",0,keyboardresponseFM.png,,,,,,,,,,,,,,,,,,,,,,,,,,,,,,,,,,,,,,,,,,,,,,,,
,,,,,,ac875b99b9db2aa56b437be5,66a626ef09d4e21e1a8894ec,673498ffef7777dce1fb7883,2024-11-13_13h18.39.674,Tarea de género gramatical,2024.2.2,Win32,59.88023952,,,42.347,55.7244,space,0.397222222,-0.065740741,0,0,0,,0,1,1,1,1,2,instructions,"Si su dispositivo tiene teclado, pulse la tecla ""A"" para las palabras en femenino (por ejemplo: ""mano"") y la tecla ""L"" para las palabras en masculino(por ejemplo: ""arroz"").
Pulse la tecla ESPACIO o toque el botón de abajo para continuar.",1,keyboardresponseFM.png,13.3248,,,,,,,,,,,,,,,,,,,,,,,,,,,,,,,,,,,,,,,,,,,,,,,
,,,,,,ac875b99b9db2aa56b437be5,66a626ef09d4e21e1a8894ec,673498ffef7777dce1fb7883,2024-11-13_13h18.39.674,Tarea de género gramatical,2024.2.2,Win32,59.88023952,,,55.7266,59.1445,space,0.397222222,-0.065740741,0,0,0,,0,2,2,2,1,3,instructions,"Si utiliza un dispositivo sólo táctil, colóquelo en horizontal y utilice los botones de la pantalla. No utilice el ratón.
Pulse la tecla ESPACIO o toque el botón de abajo para continuar.",2,touchresponseFM.png,3.3689,,,,,,,,,,,,,,,,,,,,,,,,,,,,,,,,,,,,,,,,,,,,,,,
,,,,,,ac875b99b9db2aa56b437be5,66a626ef09d4e21e1a8894ec,673498ffef7777dce1fb7883,2024-11-13_13h18.39.674,Tarea de género gramatical,2024.2.2,Win32,59.88023952,,,59.1476,70.082,space,0.397222222,-0.065740741,0,0,0,,0,3,3,3,1,4,instructions,"Es muy importante que responda con la mayor rapidez y precisión posibles, ya que cada cadena de letras sólo estará en pantalla durante un instante. Si no responde en ese tiempo, aparecerá el mensaje ""Muy lento"" y el experimento pasará a la siguiente palabra. Los primeros 15 intentos serán de práctica y habrá dos descansos durante la prueba.
Pulse la tecla ESPACIO o toque el botón de abajo para iniciar la parte de práctica.",0,keyboardresponseFM.png,10.9106,,,,,,,,,,,,,,,,,,,,,,,,,,,,,,,,,,,,,,,,,,,,,,,
,,,,,,ac875b99b9db2aa56b437be5,66a626ef09d4e21e1a8894ec,673498ffef7777dce1fb7883,2024-11-13_13h18.39.674,Tarea de género gramatical,2024.2.2,Win32,59.88023952,,,,,,,,,,,,,,,,,,,,,,,,70.0952,72.7339,,0,[],[],[],[],[],[],[],,-1,72.7344,73.2347,0,0,0,9,1,2010,MAS,AGR,150,vecino,el,l,,,,,,,,,,,,,,,,,,,
,,,,,,ac875b99b9db2aa56b437be5,66a626ef09d4e21e1a8894ec,673498ffef7777dce1fb7883,2024-11-13_13h18.39.674,Tarea de género gramatical,2024.2.2,Win32,59.88023952,,,,,,,,,,,,,,,,,,,,,,,,73.236,74.9196,a,1,[],[],[],[],[],[],[],1.0181,1,74.9245,75.4198,0,1,1,5,1,2006,FEM,DIS,150,serie,el,a,1.0181,,,,,,,,,,,,,,,,,,
,,,,,,ac875b99b9db2aa56b437be5,66a626ef09d4e21e1a8894ec,673498ffef7777dce1fb7883,2024-11-13_13h18.39.674,Tarea de género gramatical,2024.2.2,Win32,59.88023952,,,,,,,,,,,,,,,,,,,,,,,,75.4211,78.0629,,0,[],[],[],[],[],[],[],1.0181,-1,78.0636,78.5635,0,2,2,3,1,2004,FEM,AGR,150,venta,la,a,,,,,,,,,,,,,,,,,,,
,,,,,,ac875b99b9db2aa56b437be5,66a626ef09d4e21e1a8894ec,673498ffef7777dce1fb7883,2024-11-13_13h18.39.674,Tarea de género gramatical,2024.2.2,Win32,59.88023952,,,,,,,,,,,,,,,,,,,,,,,,78.5644,79.8146,l,1,[],[],[],[],[],[],[],0.588,1,79.8153,80.3152,0,3,3,10,1,2011,MAS,CON,150,canal,,l,0.588,,,,,,,,,,,,,,,,,,
,,,,,,ac875b99b9db2aa56b437be5,66a626ef09d4e21e1a8894ec,673498ffef7777dce1fb7883,2024-11-13_13h18.39.674,Tarea de género gramatical,2024.2.2,Win32,59.88023952,,,,,,,,,,,,,,,,,,,,,,,,80.3162,81.6666,a,1,[],[],[],[],[],[],[],0.6839,1,81.6666,82.1597,0,4,4,6,1,2007,FEM,AGR,150,navaja,la,a,0.6839,,,,,,,,,,,,,,,,,,
,,,,,,ac875b99b9db2aa56b437be5,66a626ef09d4e21e1a8894ec,673498ffef7777dce1fb7883,2024-11-13_13h18.39.674,Tarea de género gramatical,2024.2.2,Win32,59.88023952,,,,,,,,,,,,,,,,,,,,,,,,82.1609,83.5446,a,1,[],[],[],[],[],[],[],0.7008,1,83.5448,84.0357,0,5,5,4,1,2005,FEM,CON,150,placa,,a,0.7008,,,,,,,,,,,,,,,,,,
,,,,,,ac875b99b9db2aa56b437be5,66a626ef09d4e21e1a8894ec,673498ffef7777dce1fb7883,2024-11-13_13h18.39.674,Tarea de género gramatical,2024.2.2,Win32,59.88023952,,,,,,,,,,,,,,,,,,,,,,,,84.037,85.4703,l,1,[],[],[],[],[],[],[],0.7682,1,85.4705,85.9709,0,6,6,13,1,2014,MAS,CON,150,siglo,,l,0.7682,,,,,,,,,,,,,,,,,,
,,,,,,ac875b99b9db2aa56b437be5,66a626ef09d4e21e1a8894ec,673498ffef7777dce1fb7883,2024-11-13_13h18.39.674,Tarea de género gramatical,2024.2.2,Win32,59.88023952,,,,,,,,,,,,,,,,,,,,,,,,85.9721,87.2054,a,1,[],[],[],[],[],[],[],0.5682,1,87.2055,87.7059,0,7,7,0,1,2001,FEM,AGR,150,nuca,la,a,0.5682,,,,,,,,,,,,,,,,,,
,,,,,,ac875b99b9db2aa56b437be5,66a626ef09d4e21e1a8894ec,673498ffef7777dce1fb7883,2024-11-13_13h18.39.674,Tarea de género gramatical,2024.2.2,Win32,59.88023952,,,,,,,,,,,,,,,,,,,,,,,,87.7073,88.7234,a,0,[],[],[],[],[],[],[],0.3532,0,88.7245,89.224,0,8,8,14,1,2015,MAS,DIS,150,robot,la,l,0.3532,,,,,,,,,,,,,,,,,,
,,,,,,ac875b99b9db2aa56b437be5,66a626ef09d4e21e1a8894ec,673498ffef7777dce1fb7883,2024-11-13_13h18.39.674,Tarea de género gramatical,2024.2.2,Win32,59.88023952,,,,,,,,,,,,,,,,,,,,,,,,89.2253,90.5757,l,0,[],[],[],[],[],[],[],0.6849,0,90.5758,91.0759,0,9,9,2,1,2003,FEM,DIS,150,daga,el,a,0.6849,,,,,,,,,,,,,,,,,,
,,,,,,ac875b99b9db2aa56b437be5,66a626ef09d4e21e1a8894ec,673498ffef7777dce1fb7883,2024-11-13_13h18.39.674,Tarea de género gramatical,2024.2.2,Win32,59.88023952,,,,,,,,,,,,,,,,,,,,,,,,91.0767,92.5274,a,1,[],[],[],[],[],[],[],0.7853,1,92.5282,93.0281,0,10,10,7,1,2008,FEM,CON,150,siesta,,a,0.7853,,,,,,,,,,,,,,,,,,
,,,,,,ac875b99b9db2aa56b437be5,66a626ef09d4e21e1a8894ec,673498ffef7777dce1fb7883,2024-11-13_13h18.39.674,Tarea de género gramatical,2024.2.2,Win32,59.88023952,,,,,,,,,,,,,,,,,,,,,,,,93.0292,94.3458,l,1,[],[],[],[],[],[],[],0.6427,1,94.3459,94.8465,0,11,11,12,1,2013,MAS,AGR,150,acero,el,l,0.6427,,,,,,,,,,,,,,,,,,
,,,,,,ac875b99b9db2aa56b437be5,66a626ef09d4e21e1a8894ec,673498ffef7777dce1fb7883,2024-11-13_13h18.39.674,Tarea de género gramatical,2024.2.2,Win32,59.88023952,,,,,,,,,,,,,,,,,,,,,,,,94.8475,96.6649,l,1,[],[],[],[],[],[],[],1.1566,1,96.6651,97.1652,0,12,12,8,1,2009,MAS,DIS,150,puerto,la,l,1.1566,,,,,,,,,,,,,,,,,,
,,,,,,ac875b99b9db2aa56b437be5,66a626ef09d4e21e1a8894ec,673498ffef7777dce1fb7883,2024-11-13_13h18.39.674,Tarea de género gramatical,2024.2.2,Win32,59.88023952,,,,,,,,,,,,,,,,,,,,,,,,97.1661,98.8336,a,1,[],[],[],[],[],[],[],1.0015,1,98.8337,99.3341,0,13,13,1,1,2002,FEM,CON,150,pala,,a,1.0015,,,,,,,,,,,,,,,,,,
,,,,,,ac875b99b9db2aa56b437be5,66a626ef09d4e21e1a8894ec,673498ffef7777dce1fb7883,2024-11-13_13h18.39.674,Tarea de género gramatical,2024.2.2,Win32,59.88023952,,,,,,,,,,,,,,,,,,,,,,,,99.3353,100.9523,a,0,[],[],[],[],[],[],[],0.9519,0,100.9529,101.4533,0,14,14,11,1,2012,MAS,DIS,150,clima,la,l,0.9519,,,,,,,,,,,,,,,,,,
,,,,,,ac875b99b9db2aa56b437be5,66a626ef09d4e21e1a8894ec,673498ffef7777dce1fb7883,2024-11-13_13h18.39.674,Tarea de género gramatical,2024.2.2,Win32,59.88023952,,,107.237,110.055,space,0.397222222,-0.065740741,0,0,0,,,,,,,,,,,,2.8029,,110.1211,112.1301,l,1,[],[],[],[],[],[],[],1.3348,1,112.131,112.6309,,,,,,42,MAS,DIS,150,show,la,l,1.3348,,112.6312,112.6356,0.397222222,-0.065740741,0,0,0,,0,0,0,41,1,,,,
,,,,,,ac875b99b9db2aa56b437be5,66a626ef09d4e21e1a8894ec,673498ffef7777dce1fb7883,2024-11-13_13h18.39.674,Tarea de género gramatical,2024.2.2,Win32,59.88023952,,,,,,,,,,,,,,,,,,,,,,,,112.6376,113.9654,l,1,[],[],[],[],[],[],[],0.6523,1,113.9655,114.4658,,,,,,372,MAS,DIS,150,delito,la,l,0.6523,,114.4659,114.466,0.397222222,-0.065740741,0,0,0,,0,1,1,371,1,,,,
,,,,,,ac875b99b9db2aa56b437be5,66a626ef09d4e21e1a8894ec,673498ffef7777dce1fb7883,2024-11-13_13h18.39.674,Tarea de género gramatical,2024.2.2,Win32,59.88023952,,,,,,,,,,,,,,,,,,,,,,,,114.4669,115.8171,l,1,[],[],[],[],[],[],[],0.6892,1,115.8172,116.3176,,,,,,138,MAS,DIS,150,luto,la,l,0.6892,,116.3188,116.3194,0.397222222,-0.065740741,0,0,0,,0,2,2,137,1,,,,
,,,,,,ac875b99b9db2aa56b437be5,66a626ef09d4e21e1a8894ec,673498ffef7777dce1fb7883,2024-11-13_13h18.39.674,Tarea de género gramatical,2024.2.2,Win32,59.88023952,,,,,,,,,,,,,,,,,,,,,,,,116.32,118.1027,l,0,[],[],[],[],[],[],[],1.1025,0,118.1034,118.6032,,,,,,181,FEM,AGR,150,tarde,la,a,1.1025,,118.6033,118.6033,0.397222222,-0.065740741,0,0,0,,0,3,3,180,1,,,,
,,,,,,ac875b99b9db2aa56b437be5,66a626ef09d4e21e1a8894ec,673498ffef7777dce1fb7883,2024-11-13_13h18.39.674,Tarea de género gramatical,2024.2.2,Win32,59.88023952,,,,,,,,,,,,,,,,,,,,,,,,118.6042,119.9714,l,1,[],[],[],[],[],[],[],0.7009,1,119.9724,120.4718,,,,,,48,MAS,DIS,150,loco,la,l,0.7009,,120.4718,120.4718,0.397222222,-0.065740741,0,0,0,,0,4,4,47,1,,,,
,,,,,,ac875b99b9db2aa56b437be5,66a626ef09d4e21e1a8894ec,673498ffef7777dce1fb7883,2024-11-13_13h18.39.674,Tarea de género gramatical,2024.2.2,Win32,59.88023952,,,,,,,,,,,,,,,,,,,,,,,,120.4727,121.6563,l,1,[],[],[],[],[],[],[],0.5175,1,121.6564,122.1567,,,,,,60,MAS,DIS,150,tono,la,l,0.5175,,122.1568,122.1569,0.397222222,-0.065740741,0,0,0,,0,5,5,59,1,,,,
,,,,,,ac875b99b9db2aa56b437be5,66a626ef09d4e21e1a8894ec,673498ffef7777dce1fb7883,2024-11-13_13h18.39.674,Tarea de género gramatical,2024.2.2,Win32,59.88023952,,,,,,,,,,,,,,,,,,,,,,,,122.1577,123.2414,l,1,[],[],[],[],[],[],[],0.4176,1,123.2414,123.7418,,,,,,66,MAS,DIS,150,muro,la,l,0.4176,,123.743,123.7436,0.397222222,-0.065740741,0,0,0,,0,6,6,65,1,,,,
,,,,,,ac875b99b9db2aa56b437be5,66a626ef09d4e21e1a8894ec,673498ffef7777dce1fb7883,2024-11-13_13h18.39.674,Tarea de género gramatical,2024.2.2,Win32,59.88023952,,,,,,,,,,,,,,,,,,,,,,,,123.7441,124.7594,a,1,[],[],[],[],[],[],[],0.3339,1,124.7595,125.2598,,,,,,369,FEM,DIS,150,camisa,el,a,0.3339,,125.2598,125.26,0.397222222,-0.065740741,0,0,0,,0,7,7,368,1,,,,
,,,,,,ac875b99b9db2aa56b437be5,66a626ef09d4e21e1a8894ec,673498ffef7777dce1fb7883,2024-11-13_13h18.39.674,Tarea de género gramatical,2024.2.2,Win32,59.88023952,,,,,,,,,,,,,,,,,,,,,,,,125.261,126.3943,l,0,[],[],[],[],[],[],[],0.4713,0,126.3951,126.8955,,,,,,313,FEM,AGR,150,ciudad,la,a,0.4713,,126.8955,126.8957,0.397222222,-0.065740741,0,0,0,,0,8,8,312,1,,,,
,,,,,,ac875b99b9db2aa56b437be5,66a626ef09d4e21e1a8894ec,673498ffef7777dce1fb7883,2024-11-13_13h18.39.674,Tarea de género gramatical,2024.2.2,Win32,59.88023952,,,,,,,,,,,,,,,,,,,,,,,,126.8973,128.6466,l,1,[],[],[],[],[],[],[],1.0676,1,128.6472,129.1474,,,,,,426,MAS,DIS,150,pánico,la,l,1.0676,,129.1474,129.1475,0.397222222,-0.065740741,0,0,0,,0,9,9,425,1,,,,
,,,,,,ac875b99b9db2aa56b437be5,66a626ef09d4e21e1a8894ec,673498ffef7777dce1fb7883,2024-11-13_13h18.39.674,Tarea de género gramatical,2024.2.2,Win32,59.88023952,,,,,,,,,,,,,,,,,,,,,,,,129.1484,130.9655,l,1,[],[],[],[],[],[],[],1.1355,1,130.9656,131.4661,,,,,,83,MAS,CON,150,nene,,l,1.1355,,131.4661,131.4663,0.397222222,-0.065740741,0,0,0,,0,10,10,82,1,,,,
,,,,,,ac875b99b9db2aa56b437be5,66a626ef09d4e21e1a8894ec,673498ffef7777dce1fb7883,2024-11-13_13h18.39.674,Tarea de género gramatical,2024.2.2,Win32,59.88023952,,,,,,,,,,,,,,,,,,,,,,,,131.4674,132.7176,l,0,[],[],[],[],[],[],[],0.5688,0,132.7185,133.218,,,,,,99,FEM,DIS,150,fase,el,a,0.5688,,133.2197,133.2208,0.397222222,-0.065740741,0,0,0,,0,11,11,98,1,,,,
,,,,,,ac875b99b9db2aa56b437be5,66a626ef09d4e21e1a8894ec,673498ffef7777dce1fb7883,2024-11-13_13h18.39.674,Tarea de género gramatical,2024.2.2,Win32,59.88023952,,,,,,,,,,,,,,,,,,,,,,,,133.2219,134.4857,l,1,[],[],[],[],[],[],[],0.5849,1,134.4862,134.9864,,,,,,226,MAS,AGR,150,color,el,l,0.5849,,134.9865,134.9866,0.397222222,-0.065740741,0,0,0,,0,12,12,225,1,,,,
,,,,,,ac875b99b9db2aa56b437be5,66a626ef09d4e21e1a8894ec,673498ffef7777dce1fb7883,2024-11-13_13h18.39.674,Tarea de género gramatical,2024.2.2,Win32,59.88023952,,,,,,,,,,,,,,,,,,,,,,,,134.9875,136.2542,a,1,[],[],[],[],[],[],[],0.5849,1,136.2543,136.7546,,,,,,243,FEM,DIS,150,salsa,el,a,0.5849,,136.7547,136.7548,0.397222222,-0.065740741,0,0,0,,0,13,13,242,1,,,,
,,,,,,ac875b99b9db2aa56b437be5,66a626ef09d4e21e1a8894ec,673498ffef7777dce1fb7883,2024-11-13_13h18.39.674,Tarea de género gramatical,2024.2.2,Win32,59.88023952,,,,,,,,,,,,,,,,,,,,,,,,136.756,137.8558,l,1,[],[],[],[],[],[],[],0.4398,1,137.8559,138.3562,,,,,,437,MAS,CON,150,hombro,,l,0.4398,,138.3562,138.3563,0.397222222,-0.065740741,0,0,0,,0,14,14,436,1,,,,
,,,,,,ac875b99b9db2aa56b437be5,66a626ef09d4e21e1a8894ec,673498ffef7777dce1fb7883,2024-11-13_13h18.39.674,Tarea de género gramatical,2024.2.2,Win32,59.88023952,,,,,,,,,,,,,,,,,,,,,,,,138.3573,139.6074,a,1,[],[],[],[],[],[],[],0.5862,1,139.6076,140.1081,,,,,,63,FEM,DIS,150,fila,el,a,0.5862,,140.1092,140.1097,0.397222222,-0.065740741,0,0,0,,0,15,15,62,1,,,,
,,,,,,ac875b99b9db2aa56b437be5,66a626ef09d4e21e1a8894ec,673498ffef7777dce1fb7883,2024-11-13_13h18.39.674,Tarea de género gramatical,2024.2.2,Win32,59.88023952,,,,,,,,,,,,,,,,,,,,,,,,140.1104,141.2429,l,1,[],[],[],[],[],[],[],0.4554,1,141.2431,141.7428,,,,,,257,MAS,CON,150,pecho,,l,0.4554,,141.7429,141.743,0.397222222,-0.065740741,0,0,0,,0,16,16,256,1,,,,
,,,,,,ac875b99b9db2aa56b437be5,66a626ef09d4e21e1a8894ec,673498ffef7777dce1fb7883,2024-11-13_13h18.39.674,Tarea de género gramatical,2024.2.2,Win32,59.88023952,,,,,,,,,,,,,,,,,,,,,,,,141.7439,142.7774,l,1,[],[],[],[],[],[],[],0.3721,1,142.7775,143.2778,,,,,,214,MAS,AGR,150,fondo,el,l,0.3721,,143.2779,143.2781,0.397222222,-0.065740741,0,0,0,,0,17,17,213,1,,,,
,,,,,,ac875b99b9db2aa56b437be5,66a626ef09d4e21e1a8894ec,673498ffef7777dce1fb7883,2024-11-13_13h18.39.674,Tarea de género gramatical,2024.2.2,Win32,59.88023952,,,,,,,,,,,,,,,,,,,,,,,,143.279,144.5791,a,1,[],[],[],[],[],[],[],0.6341,1,144.5792,145.0796,,,,,,236,FEM,CON,150,deuda,,a,0.6341,,145.0796,145.0797,0.397222222,-0.065740741,0,0,0,,0,18,18,235,1,,,,
,,,,,,ac875b99b9db2aa56b437be5,66a626ef09d4e21e1a8894ec,673498ffef7777dce1fb7883,2024-11-13_13h18.39.674,Tarea de género gramatical,2024.2.2,Win32,59.88023952,,,,,,,,,,,,,,,,,,,,,,,,145.0806,146.1141,a,1,[],[],[],[],[],[],[],0.3713,1,146.1141,146.6143,,,,,,1,FEM,AGR,150,casa,la,a,0.3713,,146.6143,146.6144,0.397222222,-0.065740741,0,0,0,,0,19,19,0,1,,,,
,,,,,,ac875b99b9db2aa56b437be5,66a626ef09d4e21e1a8894ec,673498ffef7777dce1fb7883,2024-11-13_13h18.39.674,Tarea de género gramatical,2024.2.2,Win32,59.88023952,,,,,,,,,,,,,,,,,,,,,,,,146.6153,147.7323,a,1,[],[],[],[],[],[],[],0.4504,1,147.7325,148.2328,,,,,,248,FEM,CON,150,letra,,a,0.4504,,148.234,148.2345,0.397222222,-0.065740741,0,0,0,,0,20,20,247,1,,,,
,,,,,,ac875b99b9db2aa56b437be5,66a626ef09d4e21e1a8894ec,673498ffef7777dce1fb7883,2024-11-13_13h18.39.674,Tarea de género gramatical,2024.2.2,Win32,59.88023952,,,,,,,,,,,,,,,,,,,,,,,,148.2351,149.3003,l,0,[],[],[],[],[],[],[],0.3846,0,149.301,149.801,,,,,,249,FEM,DIS,150,crema,el,a,0.3846,,149.801,149.801,0.397222222,-0.065740741,0,0,0,,0,21,21,248,1,,,,
,,,,,,ac875b99b9db2aa56b437be5,66a626ef09d4e21e1a8894ec,673498ffef7777dce1fb7883,2024-11-13_13h18.39.674,Tarea de género gramatical,2024.2.2,Win32,59.88023952,,,,,,,,,,,,,,,,,,,,,,,,149.8019,150.8856,l,1,[],[],[],[],[],[],[],0.4216,1,150.8862,151.3857,,,,,,299,MAS,CON,150,rumbo,,l,0.4216,,151.3858,151.3859,0.397222222,-0.065740741,0,0,0,,0,22,22,298,1,,,,
,,,,,,ac875b99b9db2aa56b437be5,66a626ef09d4e21e1a8894ec,673498ffef7777dce1fb7883,2024-11-13_13h18.39.674,Tarea de género gramatical,2024.2.2,Win32,59.88023952,,,,,,,,,,,,,,,,,,,,,,,,151.3867,152.4203,l,1,[],[],[],[],[],[],[],0.369,1,152.4204,152.9206,,,,,,256,MAS,AGR,150,techo,el,l,0.369,,152.9206,152.9207,0.397222222,-0.065740741,0,0,0,,0,23,23,255,1,,,,
,,,,,,ac875b99b9db2aa56b437be5,66a626ef09d4e21e1a8894ec,673498ffef7777dce1fb7883,2024-11-13_13h18.39.674,Tarea de género gramatical,2024.2.2,Win32,59.88023952,,,,,,,,,,,,,,,,,,,,,,,,152.9219,154.1219,l,1,[],[],[],[],[],[],[],0.5381,1,154.1219,154.6227,,,,,,114,MAS,DIS,150,menú,la,l,0.5381,,154.6249,154.6262,0.397222222,-0.065740741,0,0,0,,0,24,24,113,1,,,,
,,,,,,ac875b99b9db2aa56b437be5,66a626ef09d4e21e1a8894ec,673498ffef7777dce1fb7883,2024-11-13_13h18.39.674,Tarea de género gramatical,2024.2.2,Win32,59.88023952,,,,,,,,,,,,,,,,,,,,,,,,154.6282,155.8245,a,1,[],[],[],[],[],[],[],0.52,1,155.8247,156.3241,,,,,,333,FEM,DIS,150,locura,el,a,0.52,,156.3241,156.3242,0.397222222,-0.065740741,0,0,0,,0,25,25,332,1,,,,
,,,,,,ac875b99b9db2aa56b437be5,66a626ef09d4e21e1a8894ec,673498ffef7777dce1fb7883,2024-11-13_13h18.39.674,Tarea de género gramatical,2024.2.2,Win32,59.88023952,,,,,,,,,,,,,,,,,,,,,,,,156.325,157.3751,a,1,[],[],[],[],[],[],[],0.3844,1,157.3752,157.8758,,,,,,50,FEM,CON,150,dama,,a,0.3844,,157.8759,157.876,0.397222222,-0.065740741,0,0,0,,0,26,26,49,1,,,,
,,,,,,ac875b99b9db2aa56b437be5,66a626ef09d4e21e1a8894ec,673498ffef7777dce1fb7883,2024-11-13_13h18.39.674,Tarea de género gramatical,2024.2.2,Win32,59.88023952,,,,,,,,,,,,,,,,,,,,,,,,157.8768,159.0436,l,1,[],[],[],[],[],[],[],0.487,1,159.0437,159.5534,,,,,,311,MAS,CON,150,camino,,l,0.487,,159.5535,159.5535,0.397222222,-0.065740741,0,0,0,,0,27,27,310,1,,,,
,,,,,,ac875b99b9db2aa56b437be5,66a626ef09d4e21e1a8894ec,673498ffef7777dce1fb7883,2024-11-13_13h18.39.674,Tarea de género gramatical,2024.2.2,Win32,59.88023952,,,,,,,,,,,,,,,,,,,,,,,,159.5544,160.6726,l,1,[],[],[],[],[],[],[],0.4613,1,160.6728,161.1718,,,,,,84,MAS,DIS,150,mago,la,l,0.4613,,161.1718,161.1719,0.397222222,-0.065740741,0,0,0,,0,28,28,83,1,,,,
,,,,,,ac875b99b9db2aa56b437be5,66a626ef09d4e21e1a8894ec,673498ffef7777dce1fb7883,2024-11-13_13h18.39.674,Tarea de género gramatical,2024.2.2,Win32,59.88023952,,,,,,,,,,,,,,,,,,,,,,,,161.1727,162.8809,l,0,[],[],[],[],[],[],[],1.0418,0,162.8819,163.381,,,,,,183,FEM,DIS,150,llave,el,a,1.0418,,163.3822,163.383,0.397222222,-0.065740741,0,0,0,,0,29,29,182,1,,,,
,,,,,,ac875b99b9db2aa56b437be5,66a626ef09d4e21e1a8894ec,673498ffef7777dce1fb7883,2024-11-13_13h18.39.674,Tarea de género gramatical,2024.2.2,Win32,59.88023952,,,,,,,,,,,,,,,,,,,,,,,,163.3836,164.7658,a,1,[],[],[],[],[],[],[],0.7042,1,164.7664,165.2662,,,,,,200,FEM,CON,150,silla,,a,0.7042,,165.2663,165.2663,0.397222222,-0.065740741,0,0,0,,0,30,30,199,1,,,,
,,,,,,ac875b99b9db2aa56b437be5,66a626ef09d4e21e1a8894ec,673498ffef7777dce1fb7883,2024-11-13_13h18.39.674,Tarea de género gramatical,2024.2.2,Win32,59.88023952,,,,,,,,,,,,,,,,,,,,,,,,165.2671,166.7343,l,1,[],[],[],[],[],[],[],0.8016,1,166.7344,167.2349,,,,,,358,MAS,AGR,150,motivo,el,l,0.8016,,167.2349,167.2351,0.397222222,-0.065740741,0,0,0,,0,31,31,357,1,,,,
,,,,,,ac875b99b9db2aa56b437be5,66a626ef09d4e21e1a8894ec,673498ffef7777dce1fb7883,2024-11-13_13h18.39.674,Tarea de género gramatical,2024.2.2,Win32,59.88023952,,,,,,,,,,,,,,,,,,,,,,,,167.2361,168.386,l,1,[],[],[],[],[],[],[],0.4872,1,168.3861,168.8864,,,,,,192,MAS,DIS,150,grupo,la,l,0.4872,,168.8864,168.8865,0.397222222,-0.065740741,0,0,0,,0,32,32,191,1,,,,
,,,,,,ac875b99b9db2aa56b437be5,66a626ef09d4e21e1a8894ec,673498ffef7777dce1fb7883,2024-11-13_13h18.39.674,Tarea de género gramatical,2024.2.2,Win32,59.88023952,,,,,,,,,,,,,,,,,,,,,,,,168.8874,170.0711,l,1,[],[],[],[],[],[],[],0.5175,1,170.0712,170.5714,,,,,,204,MAS,DIS,150,papel,la,l,0.5175,,170.5726,170.5732,0.397222222,-0.065740741,0,0,0,,0,33,33,203,1,,,,
,,,,,,ac875b99b9db2aa56b437be5,66a626ef09d4e21e1a8894ec,673498ffef7777dce1fb7883,2024-11-13_13h18.39.674,Tarea de género gramatical,2024.2.2,Win32,59.88023952,,,,,,,,,,,,,,,,,,,,,,,,170.5737,171.8561,a,1,[],[],[],[],[],[],[],0.601,1,171.8561,172.3568,,,,,,392,FEM,CON,150,maleta,,a,0.601,,172.3568,172.3569,0.397222222,-0.065740741,0,0,0,,0,34,34,391,1,,,,
,,,,,,ac875b99b9db2aa56b437be5,66a626ef09d4e21e1a8894ec,673498ffef7777dce1fb7883,2024-11-13_13h18.39.674,Tarea de género gramatical,2024.2.2,Win32,59.88023952,,,,,,,,,,,,,,,,,,,,,,,,172.3577,173.5248,a,1,[],[],[],[],[],[],[],0.4981,1,173.5248,174.0249,,,,,,296,FEM,CON,150,feria,,a,0.4981,,174.025,174.025,0.397222222,-0.065740741,0,0,0,,0,35,35,295,1,,,,
,,,,,,ac875b99b9db2aa56b437be5,66a626ef09d4e21e1a8894ec,673498ffef7777dce1fb7883,2024-11-13_13h18.39.674,Tarea de género gramatical,2024.2.2,Win32,59.88023952,,,,,,,,,,,,,,,,,,,,,,,,174.026,175.1095,l,1,[],[],[],[],[],[],[],0.4179,1,175.1096,175.6098,,,,,,149,MAS,CON,150,nudo,,l,0.4179,,175.6099,175.6099,0.397222222,-0.065740741,0,0,0,,0,36,36,148,1,,,,
,,,,,,ac875b99b9db2aa56b437be5,66a626ef09d4e21e1a8894ec,673498ffef7777dce1fb7883,2024-11-13_13h18.39.674,Tarea de género gramatical,2024.2.2,Win32,59.88023952,,,,,,,,,,,,,,,,,,,,,,,,175.6109,176.6942,a,1,[],[],[],[],[],[],[],0.4175,1,176.6943,177.1954,,,,,,285,FEM,DIS,150,mafia,el,a,0.4175,,177.1954,177.1955,0.397222222,-0.065740741,0,0,0,,0,37,37,284,1,,,,
,,,,,,ac875b99b9db2aa56b437be5,66a626ef09d4e21e1a8894ec,673498ffef7777dce1fb7883,2024-11-13_13h18.39.674,Tarea de género gramatical,2024.2.2,Win32,59.88023952,,,,,,,,,,,,,,,,,,,,,,,,177.1972,178.4626,l,1,[],[],[],[],[],[],[],0.5877,1,178.4627,178.9631,,,,,,130,MAS,AGR,150,yate,el,l,0.5877,,178.9644,178.9649,0.397222222,-0.065740741,0,0,0,,0,38,38,129,1,,,,
,,,,,,ac875b99b9db2aa56b437be5,66a626ef09d4e21e1a8894ec,673498ffef7777dce1fb7883,2024-11-13_13h18.39.674,Tarea de género gramatical,2024.2.2,Win32,59.88023952,,,,,,,,,,,,,,,,,,,,,,,,178.9656,180.1811,a,1,[],[],[],[],[],[],[],0.5344,1,180.1811,180.6816,,,,,,193,FEM,AGR,150,bolsa,la,a,0.5344,,180.6817,180.6818,0.397222222,-0.065740741,0,0,0,,0,39,39,192,1,,,,
,,,,,,ac875b99b9db2aa56b437be5,66a626ef09d4e21e1a8894ec,673498ffef7777dce1fb7883,2024-11-13_13h18.39.674,Tarea de género gramatical,2024.2.2,Win32,59.88023952,,,,,,,,,,,,,,,,,,,,,,,,180.6827,181.7492,a,1,[],[],[],[],[],[],[],0.401,1,181.7493,182.2499,,,,,,403,FEM,AGR,150,paliza,la,a,0.401,,182.2499,182.2501,0.397222222,-0.065740741,0,0,0,,0,40,40,402,1,,,,
,,,,,,ac875b99b9db2aa56b437be5,66a626ef09d4e21e1a8894ec,673498ffef7777dce1fb7883,2024-11-13_13h18.39.674,Tarea de género gramatical,2024.2.2,Win32,59.88023952,,,,,,,,,,,,,,,,,,,,,,,,182.2511,183.3174,a,1,[],[],[],[],[],[],[],0.401,1,183.3175,183.818,,,,,,14,FEM,CON,150,cara,,a,0.401,,183.818,183.8181,0.397222222,-0.065740741,0,0,0,,0,41,41,13,1,,,,
,,,,,,ac875b99b9db2aa56b437be5,66a626ef09d4e21e1a8894ec,673498ffef7777dce1fb7883,2024-11-13_13h18.39.674,Tarea de género gramatical,2024.2.2,Win32,59.88023952,,,,,,,,,,,,,,,,,,,,,,,,183.8193,185.1027,l,1,[],[],[],[],[],[],[],0.6235,1,185.1028,185.6033,,,,,,414,MAS,DIS,150,sótano,la,l,0.6235,,185.6043,185.605,0.397222222,-0.065740741,0,0,0,,0,42,42,413,1,,,,
,,,,,,ac875b99b9db2aa56b437be5,66a626ef09d4e21e1a8894ec,673498ffef7777dce1fb7883,2024-11-13_13h18.39.674,Tarea de género gramatical,2024.2.2,Win32,59.88023952,,,,,,,,,,,,,,,,,,,,,,,,185.6056,186.6974,l,1,[],[],[],[],[],[],[],0.4178,1,186.6975,187.1884,,,,,,208,MAS,AGR,150,suelo,el,l,0.4178,,187.1884,187.1885,0.397222222,-0.065740741,0,0,0,,0,43,43,207,1,,,,
,,,,,,ac875b99b9db2aa56b437be5,66a626ef09d4e21e1a8894ec,673498ffef7777dce1fb7883,2024-11-13_13h18.39.674,Tarea de género gramatical,2024.2.2,Win32,59.88023952,,,,,,,,,,,,,,,,,,,,,,,,187.1896,188.5398,l,1,[],[],[],[],[],[],[],0.6706,1,188.54,189.04,,,,,,407,MAS,CON,150,jurado,,l,0.6706,,189.0401,189.0402,0.397222222,-0.065740741,0,0,0,,0,44,44,406,1,,,,
,,,,,,ac875b99b9db2aa56b437be5,66a626ef09d4e21e1a8894ec,673498ffef7777dce1fb7883,2024-11-13_13h18.39.674,Tarea de género gramatical,2024.2.2,Win32,59.88023952,,,,,,,,,,,,,,,,,,,,,,,,189.0417,190.4579,a,0,[],[],[],[],[],[],[],0.7576,0,190.4586,190.9584,,,,,,11,MAS,CON,150,país,,l,0.7576,,190.9584,190.9585,0.397222222,-0.065740741,0,0,0,,0,45,45,10,1,,,,
,,,,,,ac875b99b9db2aa56b437be5,66a626ef09d4e21e1a8894ec,673498ffef7777dce1fb7883,2024-11-13_13h18.39.674,Tarea de género gramatical,2024.2.2,Win32,59.88023952,,,,,,,,,,,,,,,,,,,,,,,,190.9595,192.0094,l,1,[],[],[],[],[],[],[],0.3877,1,192.01,192.5101,,,,,,36,MAS,DIS,150,dedo,la,l,0.3877,,192.5102,192.5103,0.397222222,-0.065740741,0,0,0,,0,46,46,35,1,,,,
,,,,,,ac875b99b9db2aa56b437be5,66a626ef09d4e21e1a8894ec,673498ffef7777dce1fb7883,2024-11-13_13h18.39.674,Tarea de género gramatical,2024.2.2,Win32,59.88023952,,,,,,,,,,,,,,,,,,,,,,,,192.5112,193.5276,a,1,[],[],[],[],[],[],[],0.3403,1,193.5278,194.0284,,,,,,61,FEM,AGR,150,ruta,la,a,0.3403,,194.0299,194.0309,0.397222222,-0.065740741,0,0,0,,0,47,47,60,1,,,,
,,,,,,ac875b99b9db2aa56b437be5,66a626ef09d4e21e1a8894ec,673498ffef7777dce1fb7883,2024-11-13_13h18.39.674,Tarea de género gramatical,2024.2.2,Win32,59.88023952,,,,,,,,,,,,,,,,,,,,,,,,194.032,195.0792,a,1,[],[],[],[],[],[],[],0.3644,1,195.0793,195.5796,,,,,,283,FEM,AGR,150,pluma,la,a,0.3644,,195.5797,195.5798,0.397222222,-0.065740741,0,0,0,,0,48,48,282,1,,,,
,,,,,,ac875b99b9db2aa56b437be5,66a626ef09d4e21e1a8894ec,673498ffef7777dce1fb7883,2024-11-13_13h18.39.674,Tarea de género gramatical,2024.2.2,Win32,59.88023952,,,,,,,,,,,,,,,,,,,,,,,,195.5806,196.6308,a,1,[],[],[],[],[],[],[],0.3808,1,196.6308,197.132,,,,,,133,FEM,AGR,150,joya,la,a,0.3808,,197.132,197.1322,0.397222222,-0.065740741,0,0,0,,0,49,49,132,1,,,,
,,,,,,ac875b99b9db2aa56b437be5,66a626ef09d4e21e1a8894ec,673498ffef7777dce1fb7883,2024-11-13_13h18.39.674,Tarea de género gramatical,2024.2.2,Win32,59.88023952,,,,,,,,,,,,,,,,,,,,,,,,197.1329,198.2158,l,1,[],[],[],[],[],[],[],0.3985,1,198.2159,198.7162,,,,,,359,MAS,CON,150,bosque,,l,0.3985,,198.7162,198.7162,0.397222222,-0.065740741,0,0,0,,0,50,50,358,1,,,,
,,,,,,ac875b99b9db2aa56b437be5,66a626ef09d4e21e1a8894ec,673498ffef7777dce1fb7883,2024-11-13_13h18.39.674,Tarea de género gramatical,2024.2.2,Win32,59.88023952,,,,,,,,,,,,,,,,,,,,,,,,198.7171,199.8839,a,1,[],[],[],[],[],[],[],0.5012,1,199.884,200.3845,,,,,,237,FEM,DIS,150,ducha,el,a,0.5012,,200.3855,200.3861,0.397222222,-0.065740741,0,0,0,,0,51,51,236,1,,,,
,,,,,,ac875b99b9db2aa56b437be5,66a626ef09d4e21e1a8894ec,673498ffef7777dce1fb7883,2024-11-13_13h18.39.674,Tarea de género gramatical,2024.2.2,Win32,59.88023952,,,,,,,,,,,,,,,,,,,,,,,,200.3866,201.4619,a,1,[],[],[],[],[],[],[],0.394,1,201.462,201.9529,,,,,,115,FEM,AGR,150,seda,la,a,0.394,,201.9531,201.9532,0.397222222,-0.065740741,0,0,0,,0,52,52,114,1,,,,
,,,,,,ac875b99b9db2aa56b437be5,66a626ef09d4e21e1a8894ec,673498ffef7777dce1fb7883,2024-11-13_13h18.39.674,Tarea de género gramatical,2024.2.2,Win32,59.88023952,,,,,,,,,,,,,,,,,,,,,,,,201.9542,203.0638,l,1,[],[],[],[],[],[],[],0.4346,1,203.064,203.5638,,,,,,228,MAS,DIS,150,nivel,la,l,0.4346,,203.5639,203.5639,0.397222222,-0.065740741,0,0,0,,0,53,53,227,1,,,,
,,,,,,ac875b99b9db2aa56b437be5,66a626ef09d4e21e1a8894ec,673498ffef7777dce1fb7883,2024-11-13_13h18.39.674,Tarea de género gramatical,2024.2.2,Win32,59.88023952,,,,,,,,,,,,,,,,,,,,,,,,203.5646,204.7223,a,1,[],[],[],[],[],[],[],0.4871,1,204.7225,205.2225,,,,,,170,FEM,CON,150,carta,,a,0.4871,,205.2226,205.2226,0.397222222,-0.065740741,0,0,0,,0,54,54,169,1,,,,
,,,,,,ac875b99b9db2aa56b437be5,66a626ef09d4e21e1a8894ec,673498ffef7777dce1fb7883,2024-11-13_13h18.39.674,Tarea de género gramatical,2024.2.2,Win32,59.88023952,,,,,,,,,,,,,,,,,,,,,,,,205.2237,206.2903,l,1,[],[],[],[],[],[],[],0.4007,1,206.2904,206.7909,,,,,,251,MAS,CON,150,dueño,,l,0.4007,,206.791,206.791,0.397222222,-0.065740741,0,0,0,,0,55,55,250,1,,,,
,,,,,,ac875b99b9db2aa56b437be5,66a626ef09d4e21e1a8894ec,673498ffef7777dce1fb7883,2024-11-13_13h18.39.674,Tarea de género gramatical,2024.2.2,Win32,59.88023952,,,,,,,,,,,,,,,,,,,,,,,,206.7921,207.9753,a,1,[],[],[],[],[],[],[],0.5199,1,207.9753,208.4763,,,,,,79,FEM,AGR,150,mina,la,a,0.5199,,208.4778,208.4788,0.397222222,-0.065740741,0,0,0,,0,56,56,78,1,,,,
,,,,,,ac875b99b9db2aa56b437be5,66a626ef09d4e21e1a8894ec,673498ffef7777dce1fb7883,2024-11-13_13h18.39.674,Tarea de género gramatical,2024.2.2,Win32,59.88023952,,,,,,,,,,,,,,,,,,,,,,,,208.4803,209.4769,a,1,[],[],[],[],[],[],[],0.3128,1,209.477,209.9774,,,,,,91,FEM,AGR,150,hoja,la,a,0.3128,,209.9774,209.9775,0.397222222,-0.065740741,0,0,0,,0,57,57,90,1,,,,
,,,,,,ac875b99b9db2aa56b437be5,66a626ef09d4e21e1a8894ec,673498ffef7777dce1fb7883,2024-11-13_13h18.39.674,Tarea de género gramatical,2024.2.2,Win32,59.88023952,,,,,,,,,,,,,,,,,,,,,,,,209.9782,210.9282,a,1,[],[],[],[],[],[],[],0.2891,1,210.9283,211.4288,,,,,,212,FEM,CON,150,cinta,,a,0.2891,,211.4289,211.4289,0.397222222,-0.065740741,0,0,0,,0,58,58,211,1,,,,
,,,,,,ac875b99b9db2aa56b437be5,66a626ef09d4e21e1a8894ec,673498ffef7777dce1fb7883,2024-11-13_13h18.39.674,Tarea de género gramatical,2024.2.2,Win32,59.88023952,,,,,,,,,,,,,,,,,,,,,,,,211.4299,212.4298,a,1,[],[],[],[],[],[],[],0.3342,1,212.4299,212.9302,,,,,,397,FEM,AGR,150,cuerda,la,a,0.3342,,212.9302,212.9303,0.397222222,-0.065740741,0,0,0,,0,59,59,396,1,,,,
,,,,,,ac875b99b9db2aa56b437be5,66a626ef09d4e21e1a8894ec,673498ffef7777dce1fb7883,2024-11-13_13h18.39.674,Tarea de género gramatical,2024.2.2,Win32,59.88023952,,,,,,,,,,,,,,,,,,,,,,,,212.9312,213.9648,l,1,[],[],[],[],[],[],[],0.3685,1,213.9649,214.4653,,,,,,160,MAS,AGR,150,señor,el,l,0.3685,,214.4666,214.4675,0.397222222,-0.065740741,0,0,0,,0,60,60,159,1,,,,
,,,,,,ac875b99b9db2aa56b437be5,66a626ef09d4e21e1a8894ec,673498ffef7777dce1fb7883,2024-11-13_13h18.39.674,Tarea de género gramatical,2024.2.2,Win32,59.88023952,,,,,,,,,,,,,,,,,,,,,,,,214.4688,215.4995,a,1,[],[],[],[],[],[],[],0.353,1,215.4997,216,,,,,,134,FEM,CON,150,rama,,a,0.353,,216,216.0001,0.397222222,-0.065740741,0,0,0,,0,61,61,133,1,,,,
,,,,,,ac875b99b9db2aa56b437be5,66a626ef09d4e21e1a8894ec,673498ffef7777dce1fb7883,2024-11-13_13h18.39.674,Tarea de género gramatical,2024.2.2,Win32,59.88023952,,,,,,,,,,,,,,,,,,,,,,,,216.0012,217.0345,l,1,[],[],[],[],[],[],[],0.368,1,217.0346,217.5348,,,,,,432,MAS,DIS,150,océano,la,l,0.368,,217.5348,217.5349,0.397222222,-0.065740741,0,0,0,,0,62,62,431,1,,,,
,,,,,,ac875b99b9db2aa56b437be5,66a626ef09d4e21e1a8894ec,673498ffef7777dce1fb7883,2024-11-13_13h18.39.674,Tarea de género gramatical,2024.2.2,Win32,59.88023952,,,,,,,,,,,,,,,,,,,,,,,,217.5358,218.5191,a,0,[],[],[],[],[],[],[],0.3194,0,218.52,219.0197,,,,,,252,MAS,DIS,150,viejo,la,l,0.3194,,219.0197,219.0199,0.397222222,-0.065740741,0,0,0,,0,63,63,251,1,,,,
,,,,,,ac875b99b9db2aa56b437be5,66a626ef09d4e21e1a8894ec,673498ffef7777dce1fb7883,2024-11-13_13h18.39.674,Tarea de género gramatical,2024.2.2,Win32,59.88023952,,,,,,,,,,,,,,,,,,,,,,,,219.0206,220.0873,a,1,[],[],[],[],[],[],[],0.401,1,220.0878,220.5885,,,,,,111,FEM,DIS,150,goma,el,a,0.401,,220.5886,220.5888,0.397222222,-0.065740741,0,0,0,,0,64,64,110,1,,,,
,,,,,,ac875b99b9db2aa56b437be5,66a626ef09d4e21e1a8894ec,673498ffef7777dce1fb7883,2024-11-13_13h18.39.674,Tarea de género gramatical,2024.2.2,Win32,59.88023952,,,,,,,,,,,,,,,,,,,,,,,,220.5909,221.5224,a,1,[],[],[],[],[],[],[],0.2507,1,221.5225,222.0226,,,,,,93,FEM,DIS,150,lata,el,a,0.2507,,222.0238,222.0243,0.397222222,-0.065740741,0,0,0,,0,65,65,92,1,,,,
,,,,,,ac875b99b9db2aa56b437be5,66a626ef09d4e21e1a8894ec,673498ffef7777dce1fb7883,2024-11-13_13h18.39.674,Tarea de género gramatical,2024.2.2,Win32,59.88023952,,,,,,,,,,,,,,,,,,,,,,,,222.0248,223.2241,a,1,[],[],[],[],[],[],[],0.5215,1,223.2242,223.7242,,,,,,301,FEM,AGR,150,verdad,la,a,0.5215,,223.7243,223.7244,0.397222222,-0.065740741,0,0,0,,0,66,66,300,1,,,,
,,,,,,ac875b99b9db2aa56b437be5,66a626ef09d4e21e1a8894ec,673498ffef7777dce1fb7883,2024-11-13_13h18.39.674,Tarea de género gramatical,2024.2.2,Win32,59.88023952,,,,,,,,,,,,,,,,,,,,,,,,223.7251,224.8588,l,1,[],[],[],[],[],[],[],0.4676,1,224.8589,225.36,,,,,,287,MAS,CON,150,plato,,l,0.4676,,225.3601,225.3604,0.397222222,-0.065740741,0,0,0,,0,67,67,286,1,,,,
,,,,,,ac875b99b9db2aa56b437be5,66a626ef09d4e21e1a8894ec,673498ffef7777dce1fb7883,2024-11-13_13h18.39.674,Tarea de género gramatical,2024.2.2,Win32,59.88023952,,,,,,,,,,,,,,,,,,,,,,,,225.3627,226.4606,l,1,[],[],[],[],[],[],[],0.4215,1,226.4607,226.9609,,,,,,306,MAS,DIS,150,dinero,la,l,0.4215,,226.9609,226.9609,0.397222222,-0.065740741,0,0,0,,0,68,68,305,1,,,,
,,,,,,ac875b99b9db2aa56b437be5,66a626ef09d4e21e1a8894ec,673498ffef7777dce1fb7883,2024-11-13_13h18.39.674,Tarea de género gramatical,2024.2.2,Win32,59.88023952,,,,,,,,,,,,,,,,,,,,,,,,226.9619,228.012,l,0,[],[],[],[],[],[],[],0.3851,0,228.0127,228.5124,,,,,,27,FEM,DIS,150,mesa,el,a,0.3851,,228.5134,228.5139,0.397222222,-0.065740741,0,0,0,,0,69,69,26,1,,,,
,,,,,,ac875b99b9db2aa56b437be5,66a626ef09d4e21e1a8894ec,673498ffef7777dce1fb7883,2024-11-13_13h18.39.674,Tarea de género gramatical,2024.2.2,Win32,59.88023952,,,,,,,,,,,,,,,,,,,,,,,,228.5145,229.9238,a,1,[],[],[],[],[],[],[],0.7287,1,229.9243,230.4144,,,,,,175,FEM,AGR,150,señal,la,a,0.7287,,230.4145,230.4146,0.397222222,-0.065740741,0,0,0,,0,70,70,174,1,,,,
,,,,,,ac875b99b9db2aa56b437be5,66a626ef09d4e21e1a8894ec,673498ffef7777dce1fb7883,2024-11-13_13h18.39.674,Tarea de género gramatical,2024.2.2,Win32,59.88023952,,,,,,,,,,,,,,,,,,,,,,,,230.4155,231.9493,l,0,[],[],[],[],[],[],[],0.8681,0,231.9504,232.459,,,,,,195,FEM,DIS,150,pared,el,a,0.8681,,232.4591,232.4591,0.397222222,-0.065740741,0,0,0,,0,71,71,194,1,,,,
,,,,,,ac875b99b9db2aa56b437be5,66a626ef09d4e21e1a8894ec,673498ffef7777dce1fb7883,2024-11-13_13h18.39.674,Tarea de género gramatical,2024.2.2,Win32,59.88023952,,,,,,,,,,,,,,,,,,,,,,,,232.4602,233.5607,a,1,[],[],[],[],[],[],[],0.4183,1,233.5616,234.0609,,,,,,321,FEM,DIS,150,comida,el,a,0.4183,,234.0609,234.0611,0.397222222,-0.065740741,0,0,0,,0,72,72,320,1,,,,
,,,,,,ac875b99b9db2aa56b437be5,66a626ef09d4e21e1a8894ec,673498ffef7777dce1fb7883,2024-11-13_13h18.39.674,Tarea de género gramatical,2024.2.2,Win32,59.88023952,,,,,,,,,,,,,,,,,,,,,,,,234.0619,235.1786,l,1,[],[],[],[],[],[],[],0.4444,1,235.1787,235.6793,,,,,,166,MAS,AGR,150,coche,el,l,0.4444,,235.6793,235.6794,0.397222222,-0.065740741,0,0,0,,0,73,73,165,1,,,,
,,,,,,ac875b99b9db2aa56b437be5,66a626ef09d4e21e1a8894ec,673498ffef7777dce1fb7883,2024-11-13_13h18.39.674,Tarea de género gramatical,2024.2.2,Win32,59.88023952,,,,,,,,,,,,,,,,,,,,,,,,235.6802,236.7638,a,1,[],[],[],[],[],[],[],0.401,1,236.7639,237.2555,,,,,,223,FEM,AGR,150,plata,la,a,0.401,,237.2581,237.2597,0.397222222,-0.065740741,0,0,0,,0,74,74,222,1,,,,
,,,,,,ac875b99b9db2aa56b437be5,66a626ef09d4e21e1a8894ec,673498ffef7777dce1fb7883,2024-11-13_13h18.39.674,Tarea de género gramatical,2024.2.2,Win32,59.88023952,,,,,,,,,,,,,,,,,,,,,,,,237.2612,238.4155,l,1,[],[],[],[],[],[],[],0.484,1,238.4156,238.9157,,,,,,125,MAS,CON,150,bate,,l,0.484,,238.9157,238.9158,0.397222222,-0.065740741,0,0,0,,0,75,75,124,1,,,,
,,,,,,ac875b99b9db2aa56b437be5,66a626ef09d4e21e1a8894ec,673498ffef7777dce1fb7883,2024-11-13_13h18.39.674,Tarea de género gramatical,2024.2.2,Win32,59.88023952,,,,,,,,,,,,,,,,,,,,,,,,238.9166,239.9175,a,1,[],[],[],[],[],[],[],0.3283,1,239.9175,240.4167,,,,,,278,FEM,CON,150,presa,,a,0.3283,,240.4167,240.4168,0.397222222,-0.065740741,0,0,0,,0,76,76,277,1,,,,
,,,,,,ac875b99b9db2aa56b437be5,66a626ef09d4e21e1a8894ec,673498ffef7777dce1fb7883,2024-11-13_13h18.39.674,Tarea de género gramatical,2024.2.2,Win32,59.88023952,,,,,,,,,,,,,,,,,,,,,,,,240.4175,241.4347,l,0,[],[],[],[],[],[],[],0.3427,0,241.4353,241.9257,,,,,,218,FEM,CON,150,nieve,,a,0.3427,,241.9257,241.9257,0.397222222,-0.065740741,0,0,0,,0,77,77,217,1,,,,
,,,,,,ac875b99b9db2aa56b437be5,66a626ef09d4e21e1a8894ec,673498ffef7777dce1fb7883,2024-11-13_13h18.39.674,Tarea de género gramatical,2024.2.2,Win32,59.88023952,,,,,,,,,,,,,,,,,,,,,,,,241.9264,243.2608,a,1,[],[],[],[],[],[],[],0.6692,1,243.2621,243.7607,,,,,,374,FEM,CON,150,herida,,a,0.6692,,243.7616,243.7621,0.397222222,-0.065740741,0,0,0,,0,78,78,373,1,,,,
,,,,,,ac875b99b9db2aa56b437be5,66a626ef09d4e21e1a8894ec,673498ffef7777dce1fb7883,2024-11-13_13h18.39.674,Tarea de género gramatical,2024.2.2,Win32,59.88023952,,,,,,,,,,,,,,,,,,,,,,,,243.7626,244.8456,l,0,[],[],[],[],[],[],[],0.4014,0,244.8466,245.3462,,,,,,159,FEM,DIS,150,clase,el,a,0.4014,,245.3462,245.3464,0.397222222,-0.065740741,0,0,0,,0,79,79,158,1,,,,
,,,,,,ac875b99b9db2aa56b437be5,66a626ef09d4e21e1a8894ec,673498ffef7777dce1fb7883,2024-11-13_13h18.39.674,Tarea de género gramatical,2024.2.2,Win32,59.88023952,,,,,,,,,,,,,,,,,,,,,,,,245.3476,246.6474,l,1,[],[],[],[],[],[],[],0.6178,1,246.6484,247.148,,,,,,262,MAS,AGR,150,video,el,l,0.6178,,247.148,247.1481,0.397222222,-0.065740741,0,0,0,,0,80,80,261,1,,,,
,,,,,,ac875b99b9db2aa56b437be5,66a626ef09d4e21e1a8894ec,673498ffef7777dce1fb7883,2024-11-13_13h18.39.674,Tarea de género gramatical,2024.2.2,Win32,59.88023952,,,,,,,,,,,,,,,,,,,,,,,,247.1496,248.2157,a,1,[],[],[],[],[],[],[],0.3882,1,248.2158,248.7157,,,,,,38,FEM,CON,150,obra,,a,0.3882,,248.7159,248.7159,0.397222222,-0.065740741,0,0,0,,0,81,81,37,1,,,,
,,,,,,ac875b99b9db2aa56b437be5,66a626ef09d4e21e1a8894ec,673498ffef7777dce1fb7883,2024-11-13_13h18.39.674,Tarea de género gramatical,2024.2.2,Win32,59.88023952,,,,,,,,,,,,,,,,,,,,,,,,248.7168,249.8503,l,1,[],[],[],[],[],[],[],0.4704,1,249.8504,250.3508,,,,,,96,MAS,DIS,150,pato,la,l,0.4704,,250.3508,250.3509,0.397222222,-0.065740741,0,0,0,,0,82,82,95,1,,,,
,,,,,,ac875b99b9db2aa56b437be5,66a626ef09d4e21e1a8894ec,673498ffef7777dce1fb7883,2024-11-13_13h18.39.674,Tarea de género gramatical,2024.2.2,Win32,59.88023952,,,,,,,,,,,,,,,,,,,,,,,,250.3516,251.4853,a,1,[],[],[],[],[],[],[],0.4708,1,251.4853,251.9858,,,,,,357,FEM,DIS,150,lengua,el,a,0.4708,,251.9867,251.9872,0.397222222,-0.065740741,0,0,0,,0,83,83,356,1,,,,
,,,,,,ac875b99b9db2aa56b437be5,66a626ef09d4e21e1a8894ec,673498ffef7777dce1fb7883,2024-11-13_13h18.39.674,Tarea de género gramatical,2024.2.2,Win32,59.88023952,,,,,,,,,,,,,,,,,,,,,,,,251.9878,253.0371,l,1,[],[],[],[],[],[],[],0.3673,1,253.0371,253.5372,,,,,,412,MAS,AGR,150,espejo,el,l,0.3673,,253.5372,253.5373,0.397222222,-0.065740741,0,0,0,,0,84,84,411,1,,,,
,,,,,,ac875b99b9db2aa56b437be5,66a626ef09d4e21e1a8894ec,673498ffef7777dce1fb7883,2024-11-13_13h18.39.674,Tarea de género gramatical,2024.2.2,Win32,59.88023952,,,,,,,,,,,,,,,,,,,,,,,,253.5379,254.6982,a,1,[],[],[],[],[],[],[],0.5,1,254.6983,255.1986,,,,,,373,FEM,AGR,150,lluvia,la,a,0.5,,255.1988,255.1988,0.397222222,-0.065740741,0,0,0,,0,85,85,372,1,,,,
,,,,,,ac875b99b9db2aa56b437be5,66a626ef09d4e21e1a8894ec,673498ffef7777dce1fb7883,2024-11-13_13h18.39.674,Tarea de género gramatical,2024.2.2,Win32,59.88023952,,,,,,,,,,,,,,,,,,,,,,,,255.1996,256.2492,l,1,[],[],[],[],[],[],[],0.378,1,256.2493,256.7498,,,,,,47,MAS,CON,150,olor,,l,0.378,,256.7498,256.7499,0.397222222,-0.065740741,0,0,0,,0,86,86,46,1,,,,
,,,,,,ac875b99b9db2aa56b437be5,66a626ef09d4e21e1a8894ec,673498ffef7777dce1fb7883,2024-11-13_13h18.39.674,Tarea de género gramatical,2024.2.2,Win32,59.88023952,,,,,,,,,,,,,,,,,,,,,,,,256.7505,257.8915,l,1,[],[],[],[],[],[],[],0.4637,1,257.8916,258.3921,,,,,,77,MAS,CON,150,pico,,l,0.4637,,258.3932,258.3939,0.397222222,-0.065740741,0,0,0,,0,87,87,76,1,,,,
,,,,,,ac875b99b9db2aa56b437be5,66a626ef09d4e21e1a8894ec,673498ffef7777dce1fb7883,2024-11-13_13h18.39.674,Tarea de género gramatical,2024.2.2,Win32,59.88023952,,,,,,,,,,,,,,,,,,,,,,,,258.3947,259.4263,l,0,[],[],[],[],[],[],[],0.3547,0,259.4269,259.927,,,,,,201,FEM,DIS,150,leche,el,a,0.3547,,259.9271,259.9272,0.397222222,-0.065740741,0,0,0,,0,88,88,200,1,,,,
,,,,,,ac875b99b9db2aa56b437be5,66a626ef09d4e21e1a8894ec,673498ffef7777dce1fb7883,2024-11-13_13h18.39.674,Tarea de género gramatical,2024.2.2,Win32,59.88023952,,,,,,,,,,,,,,,,,,,,,,,,259.9282,261.2284,l,1,[],[],[],[],[],[],[],0.6178,1,261.2291,261.7288,,,,,,106,MAS,AGR,150,test,el,l,0.6178,,261.7288,261.7289,0.397222222,-0.065740741,0,0,0,,0,89,89,105,1,,,,
,,,,,,ac875b99b9db2aa56b437be5,66a626ef09d4e21e1a8894ec,673498ffef7777dce1fb7883,2024-11-13_13h18.39.674,Tarea de género gramatical,2024.2.2,Win32,59.88023952,,,,,,,,,,,,,,,,,,,,,,,,261.7298,262.8298,l,1,[],[],[],[],[],[],[],0.4346,1,262.8298,263.3304,,,,,,329,MAS,CON,150,futuro,,l,0.4346,,263.3304,263.3305,0.397222222,-0.065740741,0,0,0,,0,90,90,328,1,,,,
,,,,,,ac875b99b9db2aa56b437be5,66a626ef09d4e21e1a8894ec,673498ffef7777dce1fb7883,2024-11-13_13h18.39.674,Tarea de género gramatical,2024.2.2,Win32,59.88023952,,,,,,,,,,,,,,,,,,,,,,,,263.3312,264.5483,l,1,[],[],[],[],[],[],[],0.5352,1,264.5483,265.0487,,,,,,143,MAS,CON,150,faro,,l,0.5352,,265.0487,265.0488,0.397222222,-0.065740741,0,0,0,,0,91,91,142,1,,,,
,,,,,,ac875b99b9db2aa56b437be5,66a626ef09d4e21e1a8894ec,673498ffef7777dce1fb7883,2024-11-13_13h18.39.674,Tarea de género gramatical,2024.2.2,Win32,59.88023952,,,,,,,,,,,,,,,,,,,,,,,,265.0498,266.033,l,1,[],[],[],[],[],[],[],0.3214,1,266.0331,266.5335,,,,,,318,MAS,DIS,150,pueblo,la,l,0.3214,,266.5345,266.5351,0.397222222,-0.065740741,0,0,0,,0,92,92,317,1,,,,
,,,,,,ac875b99b9db2aa56b437be5,66a626ef09d4e21e1a8894ec,673498ffef7777dce1fb7883,2024-11-13_13h18.39.674,Tarea de género gramatical,2024.2.2,Win32,59.88023952,,,,,,,,,,,,,,,,,,,,,,,,266.5355,267.5511,l,1,[],[],[],[],[],[],[],0.34,1,267.5513,268.0523,,,,,,16,MAS,AGR,150,baño,el,l,0.34,,268.0523,268.0524,0.397222222,-0.065740741,0,0,0,,0,93,93,15,1,,,,
,,,,,,ac875b99b9db2aa56b437be5,66a626ef09d4e21e1a8894ec,673498ffef7777dce1fb7883,2024-11-13_13h18.39.674,Tarea de género gramatical,2024.2.2,Win32,59.88023952,,,,,,,,,,,,,,,,,,,,,,,,268.0537,269.1197,l,1,[],[],[],[],[],[],[],0.3898,1,269.1197,269.62,,,,,,239,MAS,CON,150,reloj,,l,0.3898,,269.62,269.6201,0.397222222,-0.065740741,0,0,0,,0,94,94,238,1,,,,
,,,,,,ac875b99b9db2aa56b437be5,66a626ef09d4e21e1a8894ec,673498ffef7777dce1fb7883,2024-11-13_13h18.39.674,Tarea de género gramatical,2024.2.2,Win32,59.88023952,,,,,,,,,,,,,,,,,,,,,,,,269.6208,270.8211,a,1,[],[],[],[],[],[],[],0.5345,1,270.8212,271.3216,,,,,,327,FEM,DIS,150,tienda,el,a,0.5345,,271.3216,271.3218,0.397222222,-0.065740741,0,0,0,,0,95,95,326,1,,,,
,,,,,,ac875b99b9db2aa56b437be5,66a626ef09d4e21e1a8894ec,673498ffef7777dce1fb7883,2024-11-13_13h18.39.674,Tarea de género gramatical,2024.2.2,Win32,59.88023952,,,,,,,,,,,,,,,,,,,,,,,,271.3225,272.4895,a,1,[],[],[],[],[],[],[],0.5009,1,272.4895,272.9903,,,,,,279,FEM,DIS,150,selva,el,a,0.5009,,272.9919,272.9928,0.397222222,-0.065740741,0,0,0,,0,96,96,278,1,,,,
,,,,,,ac875b99b9db2aa56b437be5,66a626ef09d4e21e1a8894ec,673498ffef7777dce1fb7883,2024-11-13_13h18.39.674,Tarea de género gramatical,2024.2.2,Win32,59.88023952,,,,,,,,,,,,,,,,,,,,,,,,272.9936,274.0076,l,1,[],[],[],[],[],[],[],0.3391,1,274.0077,274.5083,,,,,,395,MAS,CON,150,correo,,l,0.3391,,274.5084,274.5085,0.397222222,-0.065740741,0,0,0,,0,97,97,394,1,,,,
,,,,,,ac875b99b9db2aa56b437be5,66a626ef09d4e21e1a8894ec,673498ffef7777dce1fb7883,2024-11-13_13h18.39.674,Tarea de género gramatical,2024.2.2,Win32,59.88023952,,,,,,,,,,,,,,,,,,,,,,,,274.5095,275.526,l,1,[],[],[],[],[],[],[],0.3545,1,275.5261,276.0268,,,,,,244,MAS,AGR,150,hielo,el,l,0.3545,,276.0268,276.0271,0.397222222,-0.065740741,0,0,0,,0,98,98,243,1,,,,
,,,,,,ac875b99b9db2aa56b437be5,66a626ef09d4e21e1a8894ec,673498ffef7777dce1fb7883,2024-11-13_13h18.39.674,Tarea de género gramatical,2024.2.2,Win32,59.88023952,,,,,,,,,,,,,,,,,,,,,,,,276.0284,277.0772,a,1,[],[],[],[],[],[],[],0.3669,1,277.0773,277.5784,,,,,,225,FEM,DIS,150,pieza,el,a,0.3669,,277.5784,277.5785,0.397222222,-0.065740741,0,0,0,,0,99,99,224,1,,,,
,,,,,,ac875b99b9db2aa56b437be5,66a626ef09d4e21e1a8894ec,673498ffef7777dce1fb7883,2024-11-13_13h18.39.674,Tarea de género gramatical,2024.2.2,Win32,59.88023952,,,,,,,,,,,,,,,,,,,,,,,,277.5796,278.6291,a,1,[],[],[],[],[],[],[],0.3681,1,278.6292,279.1296,,,,,,213,FEM,DIS,150,magia,el,a,0.3681,,279.1296,279.1298,0.397222222,-0.065740741,0,0,0,,0,100,100,212,1,,,,
,,,,,,ac875b99b9db2aa56b437be5,66a626ef09d4e21e1a8894ec,673498ffef7777dce1fb7883,2024-11-13_13h18.39.674,Tarea de género gramatical,2024.2.2,Win32,59.88023952,,,,,,,,,,,,,,,,,,,,,,,,279.131,280.3642,a,1,[],[],[],[],[],[],[],0.5523,1,280.3642,280.8646,,,,,,140,FEM,CON,150,mula,,a,0.5523,,280.8659,280.8667,0.397222222,-0.065740741,0,0,0,,0,101,101,139,1,,,,
,,,,,,ac875b99b9db2aa56b437be5,66a626ef09d4e21e1a8894ec,673498ffef7777dce1fb7883,2024-11-13_13h18.39.674,Tarea de género gramatical,2024.2.2,Win32,59.88023952,,,,,,,,,,,,,,,,,,,,,,,,280.8676,281.9588,l,1,[],[],[],[],[],[],[],0.418,1,281.9589,282.4588,,,,,,394,MAS,AGR,150,examen,el,l,0.418,,282.4588,282.4589,0.397222222,-0.065740741,0,0,0,,0,102,102,393,1,,,,
,,,,,,ac875b99b9db2aa56b437be5,66a626ef09d4e21e1a8894ec,673498ffef7777dce1fb7883,2024-11-13_13h18.39.674,Tarea de género gramatical,2024.2.2,Win32,59.88023952,,,,,,,,,,,,,,,,,,,,,,,,282.4599,283.5175,l,1,[],[],[],[],[],[],[],0.3845,1,283.5175,284.0177,,,,,,102,MAS,DIS,150,coro,la,l,0.3845,,284.0177,284.0177,0.397222222,-0.065740741,0,0,0,,0,103,103,101,1,,,,
,,,,,,ac875b99b9db2aa56b437be5,66a626ef09d4e21e1a8894ec,673498ffef7777dce1fb7883,2024-11-13_13h18.39.674,Tarea de género gramatical,2024.2.2,Win32,59.88023952,,,,,,,,,,,,,,,,,,,,,,,,284.0185,285.1026,a,1,[],[],[],[],[],[],[],0.4217,1,285.1028,285.6026,,,,,,259,FEM,AGR,150,prima,la,a,0.4217,,285.6027,285.6028,0.397222222,-0.065740741,0,0,0,,0,104,104,258,1,,,,
,,,,,,ac875b99b9db2aa56b437be5,66a626ef09d4e21e1a8894ec,673498ffef7777dce1fb7883,2024-11-13_13h18.39.674,Tarea de género gramatical,2024.2.2,Win32,59.88023952,,,,,,,,,,,,,,,,,,,,,,,,285.6036,286.721,a,1,[],[],[],[],[],[],[],0.4402,1,286.7211,287.2214,,,,,,368,FEM,CON,150,gracia,,a,0.4402,,287.2235,287.225,0.397222222,-0.065740741,0,0,0,,0,105,105,367,1,,,,
,,,,,,ac875b99b9db2aa56b437be5,66a626ef09d4e21e1a8894ec,673498ffef7777dce1fb7883,2024-11-13_13h18.39.674,Tarea de género gramatical,2024.2.2,Win32,59.88023952,,,,,,,,,,,,,,,,,,,,,,,,287.2263,288.239,l,1,[],[],[],[],[],[],[],0.3436,1,288.2391,288.7399,,,,,,178,MAS,AGR,150,punto,el,l,0.3436,,288.7399,288.74,0.397222222,-0.065740741,0,0,0,,0,106,106,177,1,,,,
,,,,,,ac875b99b9db2aa56b437be5,66a626ef09d4e21e1a8894ec,673498ffef7777dce1fb7883,2024-11-13_13h18.39.674,Tarea de género gramatical,2024.2.2,Win32,59.88023952,,,,,,,,,,,,,,,,,,,,,,,,288.7418,289.8001,l,1,[],[],[],[],[],[],[],0.3778,1,289.8001,290.3001,,,,,,425,MAS,CON,150,chiste,,l,0.3778,,290.3001,290.3003,0.397222222,-0.065740741,0,0,0,,0,107,107,424,1,,,,
,,,,,,ac875b99b9db2aa56b437be5,66a626ef09d4e21e1a8894ec,673498ffef7777dce1fb7883,2024-11-13_13h18.39.674,Tarea de género gramatical,2024.2.2,Win32,59.88023952,,,,,,,,,,,,,,,,,,,,,,,,290.3014,291.3416,a,1,[],[],[],[],[],[],[],0.3674,1,291.3418,291.8423,,,,,,13,FEM,AGR,150,hija,la,a,0.3674,,291.8423,291.8425,0.397222222,-0.065740741,0,0,0,,0,108,108,12,1,,,,
,,,,,,ac875b99b9db2aa56b437be5,66a626ef09d4e21e1a8894ec,673498ffef7777dce1fb7883,2024-11-13_13h18.39.674,Tarea de género gramatical,2024.2.2,Win32,59.88023952,,,,,,,,,,,,,,,,,,,,,,,,291.8438,292.8598,l,1,[],[],[],[],[],[],[],0.3381,1,292.8599,293.3605,,,,,,108,MAS,DIS,150,hilo,la,l,0.3381,,293.3606,293.3607,0.397222222,-0.065740741,0,0,0,,0,109,109,107,1,,,,
,,,,,,ac875b99b9db2aa56b437be5,66a626ef09d4e21e1a8894ec,673498ffef7777dce1fb7883,2024-11-13_13h18.39.674,Tarea de género gramatical,2024.2.2,Win32,59.88023952,,,,,,,,,,,,,,,,,,,,,,,,293.362,294.3612,a,1,[],[],[],[],[],[],[],0.3213,1,294.3613,294.862,,,,,,92,FEM,CON,150,masa,,a,0.3213,,294.8629,294.8635,0.397222222,-0.065740741,0,0,0,,0,110,110,91,1,,,,
,,,,,,ac875b99b9db2aa56b437be5,66a626ef09d4e21e1a8894ec,673498ffef7777dce1fb7883,2024-11-13_13h18.39.674,Tarea de género gramatical,2024.2.2,Win32,59.88023952,,,,,,,,,,,,,,,,,,,,,,,,294.864,295.8627,l,1,[],[],[],[],[],[],[],0.3196,1,295.8628,296.364,,,,,,300,MAS,DIS,150,túnel,la,l,0.3196,,296.3641,296.3642,0.397222222,-0.065740741,0,0,0,,0,111,111,299,1,,,,
,,,,,,ac875b99b9db2aa56b437be5,66a626ef09d4e21e1a8894ec,673498ffef7777dce1fb7883,2024-11-13_13h18.39.674,Tarea de género gramatical,2024.2.2,Win32,59.88023952,,,,,,,,,,,,,,,,,,,,,,,,296.3667,297.4311,a,1,[],[],[],[],[],[],[],0.385,1,297.4312,297.9316,,,,,,325,FEM,AGR,150,tierra,la,a,0.385,,297.9317,297.9317,0.397222222,-0.065740741,0,0,0,,0,112,112,324,1,,,,
,,,,,,ac875b99b9db2aa56b437be5,66a626ef09d4e21e1a8894ec,673498ffef7777dce1fb7883,2024-11-13_13h18.39.674,Tarea de género gramatical,2024.2.2,Win32,59.88023952,,,,,,,,,,,,,,,,,,,,,,,,297.9332,299.1831,a,1,[],[],[],[],[],[],[],0.5814,1,299.1832,299.6834,,,,,,447,FEM,DIS,150,lógica,el,a,0.5814,,299.6835,299.6836,0.397222222,-0.065740741,0,0,0,,0,113,113,446,1,,,,
,,,,,,ac875b99b9db2aa56b437be5,66a626ef09d4e21e1a8894ec,673498ffef7777dce1fb7883,2024-11-13_13h18.39.674,Tarea de género gramatical,2024.2.2,Win32,59.88023952,,,,,,,,,,,,,,,,,,,,,,,,299.6848,300.9175,l,0,[],[],[],[],[],[],[],0.5541,0,300.9181,301.4183,,,,,,247,FEM,AGR,150,frase,la,a,0.5541,,301.4194,301.4199,0.397222222,-0.065740741,0,0,0,,0,114,114,246,1,,,,
,,,,,,ac875b99b9db2aa56b437be5,66a626ef09d4e21e1a8894ec,673498ffef7777dce1fb7883,2024-11-13_13h18.39.674,Tarea de género gramatical,2024.2.2,Win32,59.88023952,,,,,,,,,,,,,,,,,,,,,,,,301.4205,302.4526,a,1,[],[],[],[],[],[],[],0.3472,1,302.4532,302.9533,,,,,,241,FEM,AGR,150,pasta,la,a,0.3472,,302.9533,302.9534,0.397222222,-0.065740741,0,0,0,,0,115,115,240,1,,,,
,,,,,,ac875b99b9db2aa56b437be5,66a626ef09d4e21e1a8894ec,673498ffef7777dce1fb7883,2024-11-13_13h18.39.674,Tarea de género gramatical,2024.2.2,Win32,59.88023952,,,,,,,,,,,,,,,,,,,,,,,,302.9541,303.9708,a,1,[],[],[],[],[],[],[],0.3529,1,303.9709,304.4713,,,,,,26,FEM,CON,150,pena,,a,0.3529,,304.4713,304.4713,0.397222222,-0.065740741,0,0,0,,0,116,116,25,1,,,,
,,,,,,ac875b99b9db2aa56b437be5,66a626ef09d4e21e1a8894ec,673498ffef7777dce1fb7883,2024-11-13_13h18.39.674,Tarea de género gramatical,2024.2.2,Win32,59.88023952,,,,,,,,,,,,,,,,,,,,,,,,304.4721,305.4564,l,0,[],[],[],[],[],[],[],0.3257,0,305.4575,305.9566,,,,,,255,FEM,DIS,150,tribu,el,a,0.3257,,305.9567,305.957,0.397222222,-0.065740741,0,0,0,,0,117,117,254,1,,,,
,,,,,,ac875b99b9db2aa56b437be5,66a626ef09d4e21e1a8894ec,673498ffef7777dce1fb7883,2024-11-13_13h18.39.674,Tarea de género gramatical,2024.2.2,Win32,59.88023952,,,,,,,,,,,,,,,,,,,,,,,,305.959,306.9242,l,0,[],[],[],[],[],[],[],0.2851,0,306.9243,307.4247,,,,,,123,FEM,DIS,150,tela,el,a,0.2851,,307.4247,307.4249,0.397222222,-0.065740741,0,0,0,,0,118,118,122,1,,,,
,,,,,,ac875b99b9db2aa56b437be5,66a626ef09d4e21e1a8894ec,673498ffef7777dce1fb7883,2024-11-13_13h18.39.674,Tarea de género gramatical,2024.2.2,Win32,59.88023952,,,,,,,,,,,,,,,,,,,,,,,,307.4265,308.4925,a,1,[],[],[],[],[],[],[],0.4011,1,308.4937,308.9924,,,,,,141,FEM,DIS,150,cera,el,a,0.4011,,308.9933,308.9939,0.397222222,-0.065740741,0,0,0,,0,119,119,140,1,,,,
,,,,,,ac875b99b9db2aa56b437be5,66a626ef09d4e21e1a8894ec,673498ffef7777dce1fb7883,2024-11-13_13h18.39.674,Tarea de género gramatical,2024.2.2,Win32,59.88023952,,,,,,,,,,,,,,,,,,,,,,,,308.9944,310.0939,l,0,[],[],[],[],[],[],[],0.4149,0,310.0949,310.5943,,,,,,151,FEM,AGR,150,noche,la,a,0.4149,,310.5944,310.5945,0.397222222,-0.065740741,0,0,0,,0,120,120,150,1,,,,
,,,,,,ac875b99b9db2aa56b437be5,66a626ef09d4e21e1a8894ec,673498ffef7777dce1fb7883,2024-11-13_13h18.39.674,Tarea de género gramatical,2024.2.2,Win32,59.88023952,,,,,,,,,,,,,,,,,,,,,,,,310.5957,311.8625,l,1,[],[],[],[],[],[],[],0.6015,1,311.8634,312.3627,,,,,,401,MAS,CON,150,abrigo,,l,0.6015,,312.3628,312.3628,0.397222222,-0.065740741,0,0,0,,0,121,121,400,1,,,,
,,,,,,ac875b99b9db2aa56b437be5,66a626ef09d4e21e1a8894ec,673498ffef7777dce1fb7883,2024-11-13_13h18.39.674,Tarea de género gramatical,2024.2.2,Win32,59.88023952,,,,,,,,,,,,,,,,,,,,,,,,312.3641,313.4304,a,1,[],[],[],[],[],[],[],0.4015,1,313.4305,313.931,,,,,,109,FEM,AGR,150,gota,la,a,0.4015,,313.931,313.9311,0.397222222,-0.065740741,0,0,0,,0,122,122,108,1,,,,
,,,,,,ac875b99b9db2aa56b437be5,66a626ef09d4e21e1a8894ec,673498ffef7777dce1fb7883,2024-11-13_13h18.39.674,Tarea de género gramatical,2024.2.2,Win32,59.88023952,,,,,,,,,,,,,,,,,,,,,,,,313.9325,314.9153,a,1,[],[],[],[],[],[],[],0.3191,1,314.9154,315.4157,,,,,,320,FEM,CON,150,fiesta,,a,0.3191,,315.4174,315.4185,0.397222222,-0.065740741,0,0,0,,0,123,123,319,1,,,,
,,,,,,ac875b99b9db2aa56b437be5,66a626ef09d4e21e1a8894ec,673498ffef7777dce1fb7883,2024-11-13_13h18.39.674,Tarea de género gramatical,2024.2.2,Win32,59.88023952,,,,,,,,,,,,,,,,,,,,,,,,315.4197,316.5002,a,1,[],[],[],[],[],[],[],0.4065,1,316.5003,317.0012,,,,,,367,FEM,AGR,150,teoría,la,a,0.4065,,317.0014,317.0015,0.397222222,-0.065740741,0,0,0,,0,124,124,366,1,,,,
,,,,,,ac875b99b9db2aa56b437be5,66a626ef09d4e21e1a8894ec,673498ffef7777dce1fb7883,2024-11-13_13h18.39.674,Tarea de género gramatical,2024.2.2,Win32,59.88023952,,,,,,,,,,,,,,,,,,,,,,,,317.0029,318.035,l,1,[],[],[],[],[],[],[],0.3515,1,318.0351,318.5353,,,,,,390,MAS,DIS,150,rostro,la,l,0.3515,,318.5355,318.5356,0.397222222,-0.065740741,0,0,0,,0,125,125,389,1,,,,
,,,,,,ac875b99b9db2aa56b437be5,66a626ef09d4e21e1a8894ec,673498ffef7777dce1fb7883,2024-11-13_13h18.39.674,Tarea de género gramatical,2024.2.2,Win32,59.88023952,,,,,,,,,,,,,,,,,,,,,,,,318.5364,319.6699,a,1,[],[],[],[],[],[],[],0.4516,1,319.67,320.1703,,,,,,188,FEM,CON,150,bomba,,a,0.4516,,320.1703,320.1705,0.397222222,-0.065740741,0,0,0,,0,126,126,187,1,,,,
,,,,,,ac875b99b9db2aa56b437be5,66a626ef09d4e21e1a8894ec,673498ffef7777dce1fb7883,2024-11-13_13h18.39.674,Tarea de género gramatical,2024.2.2,Win32,59.88023952,,,,,,,,,,,,,,,,,,,,,,,,320.1711,321.1712,l,1,[],[],[],[],[],[],[],0.3198,1,321.1713,321.6717,,,,,,400,MAS,AGR,150,barrio,el,l,0.3198,,321.6718,321.6719,0.397222222,-0.065740741,0,0,0,,0,127,127,399,1,,,,
,,,,,,ac875b99b9db2aa56b437be5,66a626ef09d4e21e1a8894ec,673498ffef7777dce1fb7883,2024-11-13_13h18.39.674,Tarea de género gramatical,2024.2.2,Win32,59.88023952,,,,,,,,,,,,,,,,,,,,,,,,321.6725,322.7394,a,1,[],[],[],[],[],[],[],0.3972,1,322.7395,323.2402,,,,,,230,FEM,CON,150,regla,,a,0.3972,,323.2419,323.243,0.397222222,-0.065740741,0,0,0,,0,128,128,229,1,,,,
,,,,,,ac875b99b9db2aa56b437be5,66a626ef09d4e21e1a8894ec,673498ffef7777dce1fb7883,2024-11-13_13h18.39.674,Tarea de género gramatical,2024.2.2,Win32,59.88023952,,,,,,,,,,,,,,,,,,,,,,,,323.2444,324.2409,l,1,[],[],[],[],[],[],[],0.3199,1,324.2409,324.7419,,,,,,298,MAS,AGR,150,botón,el,l,0.3199,,324.7419,324.7421,0.397222222,-0.065740741,0,0,0,,0,129,129,297,1,,,,
,,,,,,ac875b99b9db2aa56b437be5,66a626ef09d4e21e1a8894ec,673498ffef7777dce1fb7883,2024-11-13_13h18.39.674,Tarea de género gramatical,2024.2.2,Win32,59.88023952,,,,,,,,,,,,,,,,,,,,,,,,324.7434,326.2095,a,1,[],[],[],[],[],[],[],0.7879,1,326.2097,326.7103,,,,,,25,FEM,AGR,150,nave,la,a,0.7879,,326.7103,326.7104,0.397222222,-0.065740741,0,0,0,,0,130,130,24,1,,,,
,,,,,,ac875b99b9db2aa56b437be5,66a626ef09d4e21e1a8894ec,673498ffef7777dce1fb7883,2024-11-13_13h18.39.674,Tarea de género gramatical,2024.2.2,Win32,59.88023952,,,,,,,,,,,,,,,,,,,,,,,,326.7111,327.8449,a,1,[],[],[],[],[],[],[],0.4675,1,327.8451,328.3452,,,,,,242,FEM,CON,150,pizza,,a,0.4675,,328.3453,328.3454,0.397222222,-0.065740741,0,0,0,,0,131,131,241,1,,,,
,,,,,,ac875b99b9db2aa56b437be5,66a626ef09d4e21e1a8894ec,673498ffef7777dce1fb7883,2024-11-13_13h18.39.674,Tarea de género gramatical,2024.2.2,Win32,59.88023952,,,,,,,,,,,,,,,,,,,,,,,,328.3467,329.5965,a,1,[],[],[],[],[],[],[],0.5684,1,329.5966,330.0971,,,,,,147,FEM,DIS,150,grúa,el,a,0.5684,,330.0986,330.0995,0.397222222,-0.065740741,0,0,0,,0,132,132,146,1,,,,
,,,,,,ac875b99b9db2aa56b437be5,66a626ef09d4e21e1a8894ec,673498ffef7777dce1fb7883,2024-11-13_13h18.39.674,Tarea de género gramatical,2024.2.2,Win32,59.88023952,,,,,,,,,,,,,,,,,,,,,,,,330.1006,331.2814,l,1,[],[],[],[],[],[],[],0.5081,1,331.2815,331.7822,,,,,,281,MAS,CON,150,actor,,l,0.5081,,331.7822,331.7824,0.397222222,-0.065740741,0,0,0,,0,133,133,280,1,,,,
,,,,,,ac875b99b9db2aa56b437be5,66a626ef09d4e21e1a8894ec,673498ffef7777dce1fb7883,2024-11-13_13h18.39.674,Tarea de género gramatical,2024.2.2,Win32,59.88023952,,,,,,,,,,,,,,,,,,,,,,,,331.7836,332.8664,l,1,[],[],[],[],[],[],[],0.4035,1,332.8665,333.3668,,,,,,17,MAS,CON,150,modo,,l,0.4035,,333.3669,333.367,0.397222222,-0.065740741,0,0,0,,0,134,134,16,1,,,,
,,,,,,ac875b99b9db2aa56b437be5,66a626ef09d4e21e1a8894ec,673498ffef7777dce1fb7883,2024-11-13_13h18.39.674,Tarea de género gramatical,2024.2.2,Win32,59.88023952,,,,,,,,,,,,,,,,,,,,,,,,333.3682,334.6183,l,1,[],[],[],[],[],[],[],0.587,1,334.6183,335.1186,,,,,,354,MAS,DIS,150,camión,la,l,0.587,,335.1187,335.1189,0.397222222,-0.065740741,0,0,0,,0,135,135,353,1,,,,
,,,,,,ac875b99b9db2aa56b437be5,66a626ef09d4e21e1a8894ec,673498ffef7777dce1fb7883,2024-11-13_13h18.39.674,Tarea de género gramatical,2024.2.2,Win32,59.88023952,,,,,,,,,,,,,,,,,,,,,,,,335.1203,336.2864,l,1,[],[],[],[],[],[],[],0.4852,1,336.2865,336.7869,,,,,,34,MAS,AGR,150,gato,el,l,0.4852,,336.787,336.7871,0.397222222,-0.065740741,0,0,0,,0,136,136,33,1,,,,
,,,,,,ac875b99b9db2aa56b437be5,66a626ef09d4e21e1a8894ec,673498ffef7777dce1fb7883,2024-11-13_13h18.39.674,Tarea de género gramatical,2024.2.2,Win32,59.88023952,,,,,,,,,,,,,,,,,,,,,,,,336.7882,337.8209,l,1,[],[],[],[],[],[],[],0.3665,1,337.8209,338.3217,,,,,,155,MAS,CON,150,mundo,,l,0.3665,,338.3231,338.324,0.397222222,-0.065740741,0,0,0,,0,137,137,154,1,,,,
,,,,,,ac875b99b9db2aa56b437be5,66a626ef09d4e21e1a8894ec,673498ffef7777dce1fb7883,2024-11-13_13h18.39.674,Tarea de género gramatical,2024.2.2,Win32,59.88023952,,,,,,,,,,,,,,,,,,,,,,,,338.3251,339.5396,l,1,[],[],[],[],[],[],[],0.5343,1,339.5397,340.0401,,,,,,448,MAS,AGR,150,aceite,el,l,0.5343,,340.0402,340.0403,0.397222222,-0.065740741,0,0,0,,0,138,138,447,1,,,,
,,,,,,ac875b99b9db2aa56b437be5,66a626ef09d4e21e1a8894ec,673498ffef7777dce1fb7883,2024-11-13_13h18.39.674,Tarea de género gramatical,2024.2.2,Win32,59.88023952,,,,,,,,,,,,,,,,,,,,,,,,340.0414,341.0909,l,1,[],[],[],[],[],[],[],0.3675,1,341.091,341.5914,,,,,,221,MAS,CON,150,brazo,,l,0.3675,,341.5915,341.5915,0.397222222,-0.065740741,0,0,0,,0,139,139,220,1,,,,
,,,,,,ac875b99b9db2aa56b437be5,66a626ef09d4e21e1a8894ec,673498ffef7777dce1fb7883,2024-11-13_13h18.39.674,Tarea de género gramatical,2024.2.2,Win32,59.88023952,,,,,,,,,,,,,,,,,,,,,,,,341.5924,342.5758,l,1,[],[],[],[],[],[],[],0.3226,1,342.5759,343.0763,,,,,,304,MAS,AGR,150,tiempo,el,l,0.3226,,343.0763,343.0764,0.397222222,-0.065740741,0,0,0,,0,140,140,303,1,,,,
,,,,,,ac875b99b9db2aa56b437be5,66a626ef09d4e21e1a8894ec,673498ffef7777dce1fb7883,2024-11-13_13h18.39.674,Tarea de género gramatical,2024.2.2,Win32,59.88023952,,,,,,,,,,,,,,,,,,,,,,,,343.0771,344.4215,l,1,[],[],[],[],[],[],[],0.677,1,344.4216,344.9215,,,,,,294,MAS,DIS,150,cable,la,l,0.677,,344.9234,344.9247,0.397222222,-0.065740741,0,0,0,,0,141,141,293,1,,,,
,,,,,,ac875b99b9db2aa56b437be5,66a626ef09d4e21e1a8894ec,673498ffef7777dce1fb7883,2024-11-13_13h18.39.674,Tarea de género gramatical,2024.2.2,Win32,59.88023952,,,,,,,,,,,,,,,,,,,,,,,,344.926,345.9398,l,1,[],[],[],[],[],[],[],0.3437,1,345.9399,346.4397,,,,,,142,MAS,AGR,150,lodo,el,l,0.3437,,346.4398,346.44,0.397222222,-0.065740741,0,0,0,,0,142,142,141,1,,,,
,,,,,,ac875b99b9db2aa56b437be5,66a626ef09d4e21e1a8894ec,673498ffef7777dce1fb7883,2024-11-13_13h18.39.674,Tarea de género gramatical,2024.2.2,Win32,59.88023952,,,,,,,,,,,,,,,,,,,,,,,,346.4422,347.4582,l,1,[],[],[],[],[],[],[],0.351,1,347.4584,347.9578,,,,,,450,MAS,DIS,150,conejo,la,l,0.351,,347.9578,347.958,0.397222222,-0.065740741,0,0,0,,0,143,143,449,1,,,,
,,,,,,ac875b99b9db2aa56b437be5,66a626ef09d4e21e1a8894ec,673498ffef7777dce1fb7883,2024-11-13_13h18.39.674,Tarea de género gramatical,2024.2.2,Win32,59.88023952,,,,,,,,,,,,,,,,,,,,,,,,347.9596,349.2087,l,1,[],[],[],[],[],[],[],0.5771,1,349.2088,349.7093,,,,,,118,MAS,AGR,150,baúl,el,l,0.5771,,349.7094,349.7095,0.397222222,-0.065740741,0,0,0,,0,144,144,117,1,,,,
,,,,,,ac875b99b9db2aa56b437be5,66a626ef09d4e21e1a8894ec,673498ffef7777dce1fb7883,2024-11-13_13h18.39.674,Tarea de género gramatical,2024.2.2,Win32,59.88023952,,,,,,,,,,,,,,,,,,,,,,,,349.7108,350.9843,l,1,[],[],[],[],[],[],[],0.6059,1,350.9844,351.4851,,,,,,12,MAS,DIS,150,plan,la,l,0.6059,,351.4851,351.4851,0.397222222,-0.065740741,0,0,0,,0,145,145,11,1,,,,
,,,,,,ac875b99b9db2aa56b437be5,66a626ef09d4e21e1a8894ec,673498ffef7777dce1fb7883,2024-11-13_13h18.39.674,Tarea de género gramatical,2024.2.2,Win32,59.88023952,,,,,,,,,,,,,,,,,,,,,,,,351.4863,352.536,l,0,[],[],[],[],[],[],[],0.3682,0,352.5368,353.0372,,,,,,152,FEM,CON,150,gente,,a,0.3682,,353.0405,353.0421,0.397222222,-0.065740741,0,0,0,,0,146,146,151,1,,,,
,,,,,,ac875b99b9db2aa56b437be5,66a626ef09d4e21e1a8894ec,673498ffef7777dce1fb7883,2024-11-13_13h18.39.674,Tarea de género gramatical,2024.2.2,Win32,59.88023952,,,,,,,,,,,,,,,,,,,,,,,,353.0438,354.1879,a,1,[],[],[],[],[],[],[],0.4692,1,354.189,354.6884,,,,,,308,FEM,CON,150,semana,,a,0.4692,,354.6884,354.6885,0.397222222,-0.065740741,0,0,0,,0,147,147,307,1,,,,
,,,,,,ac875b99b9db2aa56b437be5,66a626ef09d4e21e1a8894ec,673498ffef7777dce1fb7883,2024-11-13_13h18.39.674,Tarea de género gramatical,2024.2.2,Win32,59.88023952,,,,,,,,,,,,,,,,,,,,,,,,354.6901,355.6894,a,1,[],[],[],[],[],[],[],0.3165,1,355.6896,356.1898,,,,,,405,FEM,DIS,150,parada,el,a,0.3165,,356.19,356.1902,0.397222222,-0.065740741,0,0,0,,0,148,148,404,1,,,,
,,,,,,ac875b99b9db2aa56b437be5,66a626ef09d4e21e1a8894ec,673498ffef7777dce1fb7883,2024-11-13_13h18.39.674,Tarea de género gramatical,2024.2.2,Win32,59.88023952,,,,,,,,,,,,,,,,,,,,,,,,356.1917,357.2571,l,1,[],[],[],[],[],[],[],0.3823,1,357.2571,357.7574,,,,,,65,MAS,CON,150,rayo,,l,0.3823,,357.7574,357.7575,0.397222222,-0.065740741,0,0,0,,0,149,149,64,1,,,,
,,,,,,ac875b99b9db2aa56b437be5,66a626ef09d4e21e1a8894ec,673498ffef7777dce1fb7883,2024-11-13_13h18.39.674,Tarea de género gramatical,2024.2.2,Win32,59.88023952,,,,,,,,,,,,,,,,,,,,,,,,357.7583,358.8589,l,1,[],[],[],[],[],[],[],0.4348,1,358.859,359.3594,,,,,,449,MAS,CON,150,payaso,,l,0.4348,,359.3608,367.3672,0.397222222,-0.065740741,0,0,0,space,0,150,150,448,1,7.9854,,,
,,,,,,ac875b99b9db2aa56b437be5,66a626ef09d4e21e1a8894ec,673498ffef7777dce1fb7883,2024-11-13_13h18.39.674,Tarea de género gramatical,2024.2.2,Win32,59.88023952,,,,,,,,,,,,,,,,,,,,,,,,367.3683,370.0291,,0,[],[],[],[],[],[],[],0.4348,-1,370.0301,370.5204,,,,,,253,FEM,AGR,150,aldea,la,a,,,370.5205,370.5207,0.397222222,-0.065740741,0,0,0,,0,151,151,252,1,,,,
,,,,,,ac875b99b9db2aa56b437be5,66a626ef09d4e21e1a8894ec,673498ffef7777dce1fb7883,2024-11-13_13h18.39.674,Tarea de género gramatical,2024.2.2,Win32,59.88023952,,,,,,,,,,,,,,,,,,,,,,,,370.5222,371.6549,l,1,[],[],[],[],[],[],[],0.4513,1,371.6557,372.1551,,,,,,136,MAS,AGR,150,vago,el,l,0.4513,,372.1551,372.1553,0.397222222,-0.065740741,0,0,0,,0,152,152,135,1,,,,
,,,,,,ac875b99b9db2aa56b437be5,66a626ef09d4e21e1a8894ec,673498ffef7777dce1fb7883,2024-11-13_13h18.39.674,Tarea de género gramatical,2024.2.2,Win32,59.88023952,,,,,,,,,,,,,,,,,,,,,,,,372.1561,373.1897,l,1,[],[],[],[],[],[],[],0.3677,1,373.1899,373.6906,,,,,,112,MAS,AGR,150,reto,el,l,0.3677,,373.6906,373.6908,0.397222222,-0.065740741,0,0,0,,0,153,153,111,1,,,,
,,,,,,ac875b99b9db2aa56b437be5,66a626ef09d4e21e1a8894ec,673498ffef7777dce1fb7883,2024-11-13_13h18.39.674,Tarea de género gramatical,2024.2.2,Win32,59.88023952,,,,,,,,,,,,,,,,,,,,,,,,373.6927,374.7753,l,1,[],[],[],[],[],[],[],0.3987,1,374.7754,375.2749,,,,,,185,MAS,CON,150,sueño,,l,0.3987,,375.2749,375.275,0.397222222,-0.065740741,0,0,0,,0,154,154,184,1,,,,
,,,,,,ac875b99b9db2aa56b437be5,66a626ef09d4e21e1a8894ec,673498ffef7777dce1fb7883,2024-11-13_13h18.39.674,Tarea de género gramatical,2024.2.2,Win32,59.88023952,,,,,,,,,,,,,,,,,,,,,,,,375.2756,376.543,l,0,[],[],[],[],[],[],[],0.6,0,376.544,377.0436,,,,,,211,FEM,AGR,150,salud,la,a,0.6,,377.0449,377.0458,0.397222222,-0.065740741,0,0,0,,0,155,155,210,1,,,,
,,,,,,ac875b99b9db2aa56b437be5,66a626ef09d4e21e1a8894ec,673498ffef7777dce1fb7883,2024-11-13_13h18.39.674,Tarea de género gramatical,2024.2.2,Win32,59.88023952,,,,,,,,,,,,,,,,,,,,,,,,377.0466,378.0111,l,1,[],[],[],[],[],[],[],0.2854,1,378.0118,378.5117,,,,,,258,MAS,DIS,150,polvo,la,l,0.2854,,378.5118,378.5118,0.397222222,-0.065740741,0,0,0,,0,156,156,257,1,,,,
,,,,,,ac875b99b9db2aa56b437be5,66a626ef09d4e21e1a8894ec,673498ffef7777dce1fb7883,2024-11-13_13h18.39.674,Tarea de género gramatical,2024.2.2,Win32,59.88023952,,,,,,,,,,,,,,,,,,,,,,,,378.5131,379.7297,a,1,[],[],[],[],[],[],[],0.5377,1,379.7299,380.2299,,,,,,391,FEM,AGR,150,altura,la,a,0.5377,,380.2299,380.23,0.397222222,-0.065740741,0,0,0,,0,157,157,390,1,,,,
,,,,,,ac875b99b9db2aa56b437be5,66a626ef09d4e21e1a8894ec,673498ffef7777dce1fb7883,2024-11-13_13h18.39.674,Tarea de género gramatical,2024.2.2,Win32,59.88023952,,,,,,,,,,,,,,,,,,,,,,,,380.2307,381.2644,l,1,[],[],[],[],[],[],[],0.3722,1,381.2645,381.7649,,,,,,119,MAS,CON,150,mito,,l,0.3722,,381.7649,381.7651,0.397222222,-0.065740741,0,0,0,,0,158,158,118,1,,,,
,,,,,,ac875b99b9db2aa56b437be5,66a626ef09d4e21e1a8894ec,673498ffef7777dce1fb7883,2024-11-13_13h18.39.674,Tarea de género gramatical,2024.2.2,Win32,59.88023952,,,,,,,,,,,,,,,,,,,,,,,,381.7661,382.8334,l,1,[],[],[],[],[],[],[],0.405,1,382.8335,383.333,,,,,,18,MAS,DIS,150,tren,la,l,0.405,,383.3338,383.3344,0.397222222,-0.065740741,0,0,0,,0,159,159,17,1,,,,
,,,,,,ac875b99b9db2aa56b437be5,66a626ef09d4e21e1a8894ec,673498ffef7777dce1fb7883,2024-11-13_13h18.39.674,Tarea de género gramatical,2024.2.2,Win32,59.88023952,,,,,,,,,,,,,,,,,,,,,,,,383.3349,384.5345,a,1,[],[],[],[],[],[],[],0.5187,1,384.5347,385.0345,,,,,,98,FEM,CON,150,fuga,,a,0.5187,,385.0345,385.0345,0.397222222,-0.065740741,0,0,0,,0,160,160,97,1,,,,
,,,,,,ac875b99b9db2aa56b437be5,66a626ef09d4e21e1a8894ec,673498ffef7777dce1fb7883,2024-11-13_13h18.39.674,Tarea de género gramatical,2024.2.2,Win32,59.88023952,,,,,,,,,,,,,,,,,,,,,,,,385.0352,386.0525,a,1,[],[],[],[],[],[],[],0.3516,1,386.0526,386.5531,,,,,,68,FEM,CON,150,pata,,a,0.3516,,386.5531,386.5532,0.397222222,-0.065740741,0,0,0,,0,161,161,67,1,,,,
,,,,,,ac875b99b9db2aa56b437be5,66a626ef09d4e21e1a8894ec,673498ffef7777dce1fb7883,2024-11-13_13h18.39.674,Tarea de género gramatical,2024.2.2,Win32,59.88023952,,,,,,,,,,,,,,,,,,,,,,,,386.5546,387.6875,a,1,[],[],[],[],[],[],[],0.452,1,387.6876,388.1883,,,,,,439,FEM,AGR,150,toalla,la,a,0.452,,388.1883,388.1885,0.397222222,-0.065740741,0,0,0,,0,162,162,438,1,,,,
,,,,,,ac875b99b9db2aa56b437be5,66a626ef09d4e21e1a8894ec,673498ffef7777dce1fb7883,2024-11-13_13h18.39.674,Tarea de género gramatical,2024.2.2,Win32,59.88023952,,,,,,,,,,,,,,,,,,,,,,,,388.19,389.2388,a,1,[],[],[],[],[],[],[],0.3683,1,389.2389,389.7392,,,,,,380,FEM,CON,150,madera,,a,0.3683,,389.7393,389.7394,0.397222222,-0.065740741,0,0,0,,0,163,163,379,1,,,,
,,,,,,ac875b99b9db2aa56b437be5,66a626ef09d4e21e1a8894ec,673498ffef7777dce1fb7883,2024-11-13_13h18.39.674,Tarea de género gramatical,2024.2.2,Win32,59.88023952,,,,,,,,,,,,,,,,,,,,,,,,389.7402,390.807,a,1,[],[],[],[],[],[],[],0.4064,1,390.8073,391.3075,,,,,,105,FEM,DIS,150,jefa,el,a,0.4064,,391.3085,391.309,0.397222222,-0.065740741,0,0,0,,0,164,164,104,1,,,,
,,,,,,ac875b99b9db2aa56b437be5,66a626ef09d4e21e1a8894ec,673498ffef7777dce1fb7883,2024-11-13_13h18.39.674,Tarea de género gramatical,2024.2.2,Win32,59.88023952,,,,,,,,,,,,,,,,,,,,,,,,391.3094,392.385,l,1,[],[],[],[],[],[],[],0.3843,1,392.3851,392.8761,,,,,,89,MAS,CON,150,maíz,,l,0.3843,,392.8762,392.8763,0.397222222,-0.065740741,0,0,0,,0,165,165,88,1,,,,
,,,,,,ac875b99b9db2aa56b437be5,66a626ef09d4e21e1a8894ec,673498ffef7777dce1fb7883,2024-11-13_13h18.39.674,Tarea de género gramatical,2024.2.2,Win32,59.88023952,,,,,,,,,,,,,,,,,,,,,,,,392.8774,393.9273,a,1,[],[],[],[],[],[],[],0.3845,1,393.9275,394.4367,,,,,,440,FEM,CON,150,patada,,a,0.3845,,394.4367,394.4368,0.397222222,-0.065740741,0,0,0,,0,166,166,439,1,,,,
,,,,,,ac875b99b9db2aa56b437be5,66a626ef09d4e21e1a8894ec,673498ffef7777dce1fb7883,2024-11-13_13h18.39.674,Tarea de género gramatical,2024.2.2,Win32,59.88023952,,,,,,,,,,,,,,,,,,,,,,,,394.4376,395.4451,a,1,[],[],[],[],[],[],[],0.3348,1,395.4452,395.9455,,,,,,355,FEM,AGR,150,mirada,la,a,0.3348,,395.9456,395.9457,0.397222222,-0.065740741,0,0,0,,0,167,167,354,1,,,,
,,,,,,ac875b99b9db2aa56b437be5,66a626ef09d4e21e1a8894ec,673498ffef7777dce1fb7883,2024-11-13_13h18.39.674,Tarea de género gramatical,2024.2.2,Win32,59.88023952,,,,,,,,,,,,,,,,,,,,,,,,395.9465,396.9132,a,1,[],[],[],[],[],[],[],0.2976,1,396.9132,397.4135,,,,,,103,FEM,AGR,150,fama,la,a,0.2976,,397.4143,397.4149,0.397222222,-0.065740741,0,0,0,,0,168,168,102,1,,,,
,,,,,,ac875b99b9db2aa56b437be5,66a626ef09d4e21e1a8894ec,673498ffef7777dce1fb7883,2024-11-13_13h18.39.674,Tarea de género gramatical,2024.2.2,Win32,59.88023952,,,,,,,,,,,,,,,,,,,,,,,,397.4154,398.5076,a,1,[],[],[],[],[],[],[],0.4009,1,398.5076,399.0029,,,,,,422,FEM,CON,150,rutina,,a,0.4009,,399.003,399.003,0.397222222,-0.065740741,0,0,0,,0,169,169,421,1,,,,
,,,,,,ac875b99b9db2aa56b437be5,66a626ef09d4e21e1a8894ec,673498ffef7777dce1fb7883,2024-11-13_13h18.39.674,Tarea de género gramatical,2024.2.2,Win32,59.88023952,,,,,,,,,,,,,,,,,,,,,,,,399.0037,399.9429,l,1,[],[],[],[],[],[],[],0.251,1,399.9431,400.4424,,,,,,107,MAS,CON,150,cubo,,l,0.251,,400.4424,400.4424,0.397222222,-0.065740741,0,0,0,,0,170,170,106,1,,,,
,,,,,,ac875b99b9db2aa56b437be5,66a626ef09d4e21e1a8894ec,673498ffef7777dce1fb7883,2024-11-13_13h18.39.674,Tarea de género gramatical,2024.2.2,Win32,59.88023952,,,,,,,,,,,,,,,,,,,,,,,,400.4432,401.4846,a,1,[],[],[],[],[],[],[],0.3666,1,401.4846,401.9848,,,,,,128,FEM,CON,150,leña,,a,0.3666,,401.9848,401.985,0.397222222,-0.065740741,0,0,0,,0,171,171,127,1,,,,
,,,,,,ac875b99b9db2aa56b437be5,66a626ef09d4e21e1a8894ec,673498ffef7777dce1fb7883,2024-11-13_13h18.39.674,Tarea de género gramatical,2024.2.2,Win32,59.88023952,,,,,,,,,,,,,,,,,,,,,,,,401.9856,402.9861,l,1,[],[],[],[],[],[],[],0.3349,1,402.9862,403.4861,,,,,,419,MAS,CON,150,cuento,,l,0.3349,,403.4862,403.4862,0.397222222,-0.065740741,0,0,0,,0,172,172,418,1,,,,
,,,,,,ac875b99b9db2aa56b437be5,66a626ef09d4e21e1a8894ec,673498ffef7777dce1fb7883,2024-11-13_13h18.39.674,Tarea de género gramatical,2024.2.2,Win32,59.88023952,,,,,,,,,,,,,,,,,,,,,,,,403.4868,404.4874,l,1,[],[],[],[],[],[],[],0.3391,1,404.4876,404.9883,,,,,,286,MAS,AGR,150,reino,el,l,0.3391,,404.9903,404.9913,0.397222222,-0.065740741,0,0,0,,0,173,173,285,1,,,,
,,,,,,ac875b99b9db2aa56b437be5,66a626ef09d4e21e1a8894ec,673498ffef7777dce1fb7883,2024-11-13_13h18.39.674,Tarea de género gramatical,2024.2.2,Win32,59.88023952,,,,,,,,,,,,,,,,,,,,,,,,404.9924,405.9988,l,1,[],[],[],[],[],[],[],0.3447,1,405.9988,406.4988,,,,,,240,MAS,DIS,150,ruido,la,l,0.3447,,406.4988,406.4989,0.397222222,-0.065740741,0,0,0,,0,174,174,239,1,,,,
,,,,,,ac875b99b9db2aa56b437be5,66a626ef09d4e21e1a8894ec,673498ffef7777dce1fb7883,2024-11-13_13h18.39.674,Tarea de género gramatical,2024.2.2,Win32,59.88023952,,,,,,,,,,,,,,,,,,,,,,,,406.5,407.4836,l,1,[],[],[],[],[],[],[],0.3109,1,407.4836,407.9743,,,,,,203,MAS,CON,150,novio,,l,0.3109,,407.9744,407.9746,0.397222222,-0.065740741,0,0,0,,0,175,175,202,1,,,,
,,,,,,ac875b99b9db2aa56b437be5,66a626ef09d4e21e1a8894ec,673498ffef7777dce1fb7883,2024-11-13_13h18.39.674,Tarea de género gramatical,2024.2.2,Win32,59.88023952,,,,,,,,,,,,,,,,,,,,,,,,407.9758,409.0421,l,1,[],[],[],[],[],[],[],0.3818,1,409.0423,409.5423,,,,,,232,MAS,AGR,150,calor,el,l,0.3818,,409.5424,409.5425,0.397222222,-0.065740741,0,0,0,,0,176,176,231,1,,,,
,,,,,,ac875b99b9db2aa56b437be5,66a626ef09d4e21e1a8894ec,673498ffef7777dce1fb7883,2024-11-13_13h18.39.674,Tarea de género gramatical,2024.2.2,Win32,59.88023952,,,,,,,,,,,,,,,,,,,,,,,,409.5434,410.56,l,1,[],[],[],[],[],[],[],0.3346,1,410.5602,411.0604,,,,,,173,MAS,CON,150,libro,,l,0.3346,,411.0613,411.0618,0.397222222,-0.065740741,0,0,0,,0,177,177,172,1,,,,
,,,,,,ac875b99b9db2aa56b437be5,66a626ef09d4e21e1a8894ec,673498ffef7777dce1fb7883,2024-11-13_13h18.39.674,Tarea de género gramatical,2024.2.2,Win32,59.88023952,,,,,,,,,,,,,,,,,,,,,,,,411.0625,412.2547,a,1,[],[],[],[],[],[],[],0.5176,1,412.2548,412.746,,,,,,427,FEM,AGR,150,agenda,la,a,0.5176,,412.7461,412.7463,0.397222222,-0.065740741,0,0,0,,0,178,178,426,1,,,,
,,,,,,ac875b99b9db2aa56b437be5,66a626ef09d4e21e1a8894ec,673498ffef7777dce1fb7883,2024-11-13_13h18.39.674,Tarea de género gramatical,2024.2.2,Win32,59.88023952,,,,,,,,,,,,,,,,,,,,,,,,412.748,413.7916,a,1,[],[],[],[],[],[],[],0.3526,1,413.7917,414.2819,,,,,,44,FEM,CON,150,zona,,a,0.3526,,414.282,414.2821,0.397222222,-0.065740741,0,0,0,,0,179,179,43,1,,,,
,,,,,,ac875b99b9db2aa56b437be5,66a626ef09d4e21e1a8894ec,673498ffef7777dce1fb7883,2024-11-13_13h18.39.674,Tarea de género gramatical,2024.2.2,Win32,59.88023952,,,,,,,,,,,,,,,,,,,,,,,,414.2838,415.3987,l,1,[],[],[],[],[],[],[],0.4336,1,415.3988,415.8995,,,,,,30,MAS,DIS,150,cine,la,l,0.4336,,415.8997,415.8999,0.397222222,-0.065740741,0,0,0,,0,180,180,29,1,,,,
,,,,,,ac875b99b9db2aa56b437be5,66a626ef09d4e21e1a8894ec,673498ffef7777dce1fb7883,2024-11-13_13h18.39.674,Tarea de género gramatical,2024.2.2,Win32,59.88023952,,,,,,,,,,,,,,,,,,,,,,,,415.9014,416.9504,l,1,[],[],[],[],[],[],[],0.3726,1,416.9506,417.4511,,,,,,76,MAS,AGR,150,lujo,el,l,0.3726,,417.4513,417.4516,0.397222222,-0.065740741,0,0,0,,0,181,181,75,1,,,,
,,,,,,ac875b99b9db2aa56b437be5,66a626ef09d4e21e1a8894ec,673498ffef7777dce1fb7883,2024-11-13_13h18.39.674,Tarea de género gramatical,2024.2.2,Win32,59.88023952,,,,,,,,,,,,,,,,,,,,,,,,417.4534,418.4783,l,0,[],[],[],[],[],[],[],0.3602,0,418.4798,418.9689,,,,,,344,FEM,CON,150,pareja,,a,0.3602,,418.971,418.9722,0.397222222,-0.065740741,0,0,0,,0,182,182,343,1,,,,
,,,,,,ac875b99b9db2aa56b437be5,66a626ef09d4e21e1a8894ec,673498ffef7777dce1fb7883,2024-11-13_13h18.39.674,Tarea de género gramatical,2024.2.2,Win32,59.88023952,,,,,,,,,,,,,,,,,,,,,,,,418.9736,420.3036,a,1,[],[],[],[],[],[],[],0.6529,1,420.3046,420.8042,,,,,,157,FEM,AGR,150,madre,la,a,0.6529,,420.8042,420.8043,0.397222222,-0.065740741,0,0,0,,0,183,183,156,1,,,,
,,,,,,ac875b99b9db2aa56b437be5,66a626ef09d4e21e1a8894ec,673498ffef7777dce1fb7883,2024-11-13_13h18.39.674,Tarea de género gramatical,2024.2.2,Win32,59.88023952,,,,,,,,,,,,,,,,,,,,,,,,420.806,421.838,a,1,[],[],[],[],[],[],[],0.3479,1,421.8382,422.339,,,,,,433,FEM,AGR,150,huella,la,a,0.3479,,422.339,422.3392,0.397222222,-0.065740741,0,0,0,,0,184,184,432,1,,,,
,,,,,,ac875b99b9db2aa56b437be5,66a626ef09d4e21e1a8894ec,673498ffef7777dce1fb7883,2024-11-13_13h18.39.674,Tarea de género gramatical,2024.2.2,Win32,59.88023952,,,,,,,,,,,,,,,,,,,,,,,,422.3404,423.4227,a,1,[],[],[],[],[],[],[],0.406,1,423.4228,423.9235,,,,,,182,FEM,CON,150,prisa,,a,0.406,,423.9236,423.9236,0.397222222,-0.065740741,0,0,0,,0,185,185,181,1,,,,
,,,,,,ac875b99b9db2aa56b437be5,66a626ef09d4e21e1a8894ec,673498ffef7777dce1fb7883,2024-11-13_13h18.39.674,Tarea de género gramatical,2024.2.2,Win32,59.88023952,,,,,,,,,,,,,,,,,,,,,,,,423.9248,424.9246,a,1,[],[],[],[],[],[],[],0.3176,1,424.9247,425.4249,,,,,,127,FEM,AGR,150,cuna,la,a,0.3176,,425.4262,425.427,0.397222222,-0.065740741,0,0,0,,0,186,186,126,1,,,,
,,,,,,ac875b99b9db2aa56b437be5,66a626ef09d4e21e1a8894ec,673498ffef7777dce1fb7883,2024-11-13_13h18.39.674,Tarea de género gramatical,2024.2.2,Win32,59.88023952,,,,,,,,,,,,,,,,,,,,,,,,425.4279,426.3925,a,1,[],[],[],[],[],[],[],0.292,1,426.3927,426.8929,,,,,,85,FEM,AGR,150,gira,la,a,0.292,,426.8929,426.893,0.397222222,-0.065740741,0,0,0,,0,187,187,84,1,,,,
,,,,,,ac875b99b9db2aa56b437be5,66a626ef09d4e21e1a8894ec,673498ffef7777dce1fb7883,2024-11-13_13h18.39.674,Tarea de género gramatical,2024.2.2,Win32,59.88023952,,,,,,,,,,,,,,,,,,,,,,,,426.8937,427.8603,a,1,[],[],[],[],[],[],[],0.3008,1,427.8604,428.3614,,,,,,2,FEM,CON,150,vida,,a,0.3008,,428.3614,428.3615,0.397222222,-0.065740741,0,0,0,,0,188,188,1,1,,,,
,,,,,,ac875b99b9db2aa56b437be5,66a626ef09d4e21e1a8894ec,673498ffef7777dce1fb7883,2024-11-13_13h18.39.674,Tarea de género gramatical,2024.2.2,Win32,59.88023952,,,,,,,,,,,,,,,,,,,,,,,,428.3627,429.4287,l,1,[],[],[],[],[],[],[],0.3995,1,429.4287,429.9292,,,,,,328,MAS,AGR,150,asunto,el,l,0.3995,,429.9292,429.9295,0.397222222,-0.065740741,0,0,0,,0,189,189,327,1,,,,
,,,,,,ac875b99b9db2aa56b437be5,66a626ef09d4e21e1a8894ec,673498ffef7777dce1fb7883,2024-11-13_13h18.39.674,Tarea de género gramatical,2024.2.2,Win32,59.88023952,,,,,,,,,,,,,,,,,,,,,,,,429.9305,430.9469,a,0,[],[],[],[],[],[],[],0.3343,0,430.9475,431.4473,,,,,,418,MAS,AGR,150,pájaro,el,l,0.3343,,431.4474,431.4474,0.397222222,-0.065740741,0,0,0,,0,190,190,417,1,,,,
,,,,,,ac875b99b9db2aa56b437be5,66a626ef09d4e21e1a8894ec,673498ffef7777dce1fb7883,2024-11-13_13h18.39.674,Tarea de género gramatical,2024.2.2,Win32,59.88023952,,,,,,,,,,,,,,,,,,,,,,,,431.4482,432.5324,a,1,[],[],[],[],[],[],[],0.4171,1,432.5339,433.0331,,,,,,20,FEM,CON,150,ropa,,a,0.4171,,433.0354,433.0368,0.397222222,-0.065740741,0,0,0,,0,191,191,19,1,,,,
,,,,,,ac875b99b9db2aa56b437be5,66a626ef09d4e21e1a8894ec,673498ffef7777dce1fb7883,2024-11-13_13h18.39.674,Tarea de género gramatical,2024.2.2,Win32,59.88023952,,,,,,,,,,,,,,,,,,,,,,,,433.0384,434.0832,l,1,[],[],[],[],[],[],[],0.3676,1,434.0834,434.5839,,,,,,233,MAS,CON,150,golpe,,l,0.3676,,434.584,434.5841,0.397222222,-0.065740741,0,0,0,,0,192,192,232,1,,,,
,,,,,,ac875b99b9db2aa56b437be5,66a626ef09d4e21e1a8894ec,673498ffef7777dce1fb7883,2024-11-13_13h18.39.674,Tarea de género gramatical,2024.2.2,Win32,59.88023952,,,,,,,,,,,,,,,,,,,,,,,,434.5848,435.7517,l,1,[],[],[],[],[],[],[],0.5012,1,435.7518,436.2522,,,,,,330,MAS,DIS,150,estado,la,l,0.5012,,436.2523,436.2523,0.397222222,-0.065740741,0,0,0,,0,193,193,329,1,,,,
,,,,,,ac875b99b9db2aa56b437be5,66a626ef09d4e21e1a8894ec,673498ffef7777dce1fb7883,2024-11-13_13h18.39.674,Tarea de género gramatical,2024.2.2,Win32,59.88023952,,,,,,,,,,,,,,,,,,,,,,,,436.2531,437.27,l,1,[],[],[],[],[],[],[],0.3508,1,437.2701,437.7704,,,,,,209,MAS,CON,150,banco,,l,0.3508,,437.7704,437.7704,0.397222222,-0.065740741,0,0,0,,0,194,194,208,1,,,,
,,,,,,ac875b99b9db2aa56b437be5,66a626ef09d4e21e1a8894ec,673498ffef7777dce1fb7883,2024-11-13_13h18.39.674,Tarea de género gramatical,2024.2.2,Win32,59.88023952,,,,,,,,,,,,,,,,,,,,,,,,437.7711,438.788,a,1,[],[],[],[],[],[],[],0.3512,1,438.788,439.2885,,,,,,410,FEM,CON,150,piedad,,a,0.3512,,439.2897,439.2906,0.397222222,-0.065740741,0,0,0,,0,195,195,409,1,,,,
,,,,,,ac875b99b9db2aa56b437be5,66a626ef09d4e21e1a8894ec,673498ffef7777dce1fb7883,2024-11-13_13h18.39.674,Tarea de género gramatical,2024.2.2,Win32,59.88023952,,,,,,,,,,,,,,,,,,,,,,,,439.2915,440.283,a,1,[],[],[],[],[],[],[],0.3276,1,440.2831,440.7831,,,,,,326,FEM,CON,150,música,,a,0.3276,,440.7831,440.7832,0.397222222,-0.065740741,0,0,0,,0,196,196,325,1,,,,
,,,,,,ac875b99b9db2aa56b437be5,66a626ef09d4e21e1a8894ec,673498ffef7777dce1fb7883,2024-11-13_13h18.39.674,Tarea de género gramatical,2024.2.2,Win32,59.88023952,,,,,,,,,,,,,,,,,,,,,,,,440.7843,441.8591,l,1,[],[],[],[],[],[],[],0.3972,1,441.8592,442.3586,,,,,,424,MAS,AGR,150,rastro,el,l,0.3972,,442.3586,442.3587,0.397222222,-0.065740741,0,0,0,,0,197,197,423,1,,,,
,,,,,,ac875b99b9db2aa56b437be5,66a626ef09d4e21e1a8894ec,673498ffef7777dce1fb7883,2024-11-13_13h18.39.674,Tarea de género gramatical,2024.2.2,Win32,59.88023952,,,,,,,,,,,,,,,,,,,,,,,,442.3601,443.4263,a,1,[],[],[],[],[],[],[],0.388,1,443.4263,443.9268,,,,,,104,FEM,CON,150,vela,,a,0.388,,443.9268,443.9269,0.397222222,-0.065740741,0,0,0,,0,198,198,103,1,,,,
,,,,,,ac875b99b9db2aa56b437be5,66a626ef09d4e21e1a8894ec,673498ffef7777dce1fb7883,2024-11-13_13h18.39.674,Tarea de género gramatical,2024.2.2,Win32,59.88023952,,,,,,,,,,,,,,,,,,,,,,,,443.9281,444.9944,a,1,[],[],[],[],[],[],[],0.3856,1,444.9946,445.4947,,,,,,219,FEM,DIS,150,costa,el,a,0.3856,,445.4948,445.4949,0.397222222,-0.065740741,0,0,0,,0,199,199,218,1,,,,
,,,,,,ac875b99b9db2aa56b437be5,66a626ef09d4e21e1a8894ec,673498ffef7777dce1fb7883,2024-11-13_13h18.39.674,Tarea de género gramatical,2024.2.2,Win32,59.88023952,,,,,,,,,,,,,,,,,,,,,,,,445.4957,446.4622,a,1,[],[],[],[],[],[],[],0.3062,1,446.4623,446.9629,,,,,,146,FEM,CON,150,lana,,a,0.3062,,446.9637,446.9643,0.397222222,-0.065740741,0,0,0,,0,200,200,145,1,,,,
,,,,,,ac875b99b9db2aa56b437be5,66a626ef09d4e21e1a8894ec,673498ffef7777dce1fb7883,2024-11-13_13h18.39.674,Tarea de género gramatical,2024.2.2,Win32,59.88023952,,,,,,,,,,,,,,,,,,,,,,,,446.9648,448.0141,l,1,[],[],[],[],[],[],[],0.3645,1,448.0142,448.5145,,,,,,276,MAS,DIS,150,ritmo,la,l,0.3645,,448.5147,448.5148,0.397222222,-0.065740741,0,0,0,,0,201,201,275,1,,,,
,,,,,,ac875b99b9db2aa56b437be5,66a626ef09d4e21e1a8894ec,673498ffef7777dce1fb7883,2024-11-13_13h18.39.674,Tarea de género gramatical,2024.2.2,Win32,59.88023952,,,,,,,,,,,,,,,,,,,,,,,,448.516,449.5489,l,1,[],[],[],[],[],[],[],0.3512,1,449.549,450.0492,,,,,,263,MAS,CON,150,carro,,l,0.3512,,450.0492,450.0492,0.397222222,-0.065740741,0,0,0,,0,202,202,262,1,,,,
,,,,,,ac875b99b9db2aa56b437be5,66a626ef09d4e21e1a8894ec,673498ffef7777dce1fb7883,2024-11-13_13h18.39.674,Tarea de género gramatical,2024.2.2,Win32,59.88023952,,,,,,,,,,,,,,,,,,,,,,,,450.0499,451.0839,l,1,[],[],[],[],[],[],[],0.3682,1,451.084,451.584,,,,,,191,MAS,CON,150,dolor,,l,0.3682,,451.584,451.5841,0.397222222,-0.065740741,0,0,0,,0,203,203,190,1,,,,
,,,,,,ac875b99b9db2aa56b437be5,66a626ef09d4e21e1a8894ec,673498ffef7777dce1fb7883,2024-11-13_13h18.39.674,Tarea de género gramatical,2024.2.2,Win32,59.88023952,,,,,,,,,,,,,,,,,,,,,,,,451.5848,452.7356,l,1,[],[],[],[],[],[],[],0.4855,1,452.7357,453.2363,,,,,,293,MAS,CON,150,patio,,l,0.4855,,453.2382,453.2392,0.397222222,-0.065740741,0,0,0,,0,204,204,292,1,,,,
,,,,,,ac875b99b9db2aa56b437be5,66a626ef09d4e21e1a8894ec,673498ffef7777dce1fb7883,2024-11-13_13h18.39.674,Tarea de género gramatical,2024.2.2,Win32,59.88023952,,,,,,,,,,,,,,,,,,,,,,,,453.2404,454.3367,a,1,[],[],[],[],[],[],[],0.417,1,454.3367,454.8373,,,,,,229,FEM,AGR,150,celda,la,a,0.417,,454.8373,454.8374,0.397222222,-0.065740741,0,0,0,,0,205,205,228,1,,,,
,,,,,,ac875b99b9db2aa56b437be5,66a626ef09d4e21e1a8894ec,673498ffef7777dce1fb7883,2024-11-13_13h18.39.674,Tarea de género gramatical,2024.2.2,Win32,59.88023952,,,,,,,,,,,,,,,,,,,,,,,,454.8382,455.9386,l,1,[],[],[],[],[],[],[],0.436,1,455.9387,456.4389,,,,,,382,MAS,AGR,150,teatro,el,l,0.436,,456.4389,456.4389,0.397222222,-0.065740741,0,0,0,,0,206,206,381,1,,,,
,,,,,,ac875b99b9db2aa56b437be5,66a626ef09d4e21e1a8894ec,673498ffef7777dce1fb7883,2024-11-13_13h18.39.674,Tarea de género gramatical,2024.2.2,Win32,59.88023952,,,,,,,,,,,,,,,,,,,,,,,,456.4396,457.4902,a,1,[],[],[],[],[],[],[],0.3865,1,457.4904,457.9907,,,,,,187,FEM,AGR,150,lista,la,a,0.3865,,457.9907,457.9909,0.397222222,-0.065740741,0,0,0,,0,207,207,186,1,,,,
,,,,,,ac875b99b9db2aa56b437be5,66a626ef09d4e21e1a8894ec,673498ffef7777dce1fb7883,2024-11-13_13h18.39.674,Tarea de género gramatical,2024.2.2,Win32,59.88023952,,,,,,,,,,,,,,,,,,,,,,,,457.992,459.0081,l,1,[],[],[],[],[],[],[],0.3382,1,459.0082,459.5086,,,,,,353,MAS,CON,150,verano,,l,0.3382,,459.5086,459.5087,0.397222222,-0.065740741,0,0,0,,0,208,208,352,1,,,,
,,,,,,ac875b99b9db2aa56b437be5,66a626ef09d4e21e1a8894ec,673498ffef7777dce1fb7883,2024-11-13_13h18.39.674,Tarea de género gramatical,2024.2.2,Win32,59.88023952,,,,,,,,,,,,,,,,,,,,,,,,459.5094,460.493,l,1,[],[],[],[],[],[],[],0.3175,1,460.4931,460.9935,,,,,,54,MAS,DIS,150,humo,la,l,0.3175,,460.9944,460.995,0.397222222,-0.065740741,0,0,0,,0,209,209,53,1,,,,
,,,,,,ac875b99b9db2aa56b437be5,66a626ef09d4e21e1a8894ec,673498ffef7777dce1fb7883,2024-11-13_13h18.39.674,Tarea de género gramatical,2024.2.2,Win32,59.88023952,,,,,,,,,,,,,,,,,,,,,,,,460.9955,462.0114,a,1,[],[],[],[],[],[],[],0.3201,1,462.0114,462.5213,,,,,,194,FEM,CON,150,banda,,a,0.3201,,462.5213,462.5215,0.397222222,-0.065740741,0,0,0,,0,210,210,193,1,,,,
,,,,,,ac875b99b9db2aa56b437be5,66a626ef09d4e21e1a8894ec,673498ffef7777dce1fb7883,2024-11-13_13h18.39.674,Tarea de género gramatical,2024.2.2,Win32,59.88023952,,,,,,,,,,,,,,,,,,,,,,,,462.5225,463.5224,a,1,[],[],[],[],[],[],[],0.3344,1,463.5224,464.0226,,,,,,421,FEM,AGR,150,novela,la,a,0.3344,,464.0226,464.0227,0.397222222,-0.065740741,0,0,0,,0,211,211,420,1,,,,
,,,,,,ac875b99b9db2aa56b437be5,66a626ef09d4e21e1a8894ec,673498ffef7777dce1fb7883,2024-11-13_13h18.39.674,Tarea de género gramatical,2024.2.2,Win32,59.88023952,,,,,,,,,,,,,,,,,,,,,,,,464.0238,465.0148,a,1,[],[],[],[],[],[],[],0.3238,1,465.0149,465.5152,,,,,,3,FEM,DIS,150,cosa,el,a,0.3238,,465.5152,465.5154,0.397222222,-0.065740741,0,0,0,,0,212,212,2,1,,,,
,,,,,,ac875b99b9db2aa56b437be5,66a626ef09d4e21e1a8894ec,673498ffef7777dce1fb7883,2024-11-13_13h18.39.674,Tarea de género gramatical,2024.2.2,Win32,59.88023952,,,,,,,,,,,,,,,,,,,,,,,,465.5172,466.4824,a,1,[],[],[],[],[],[],[],0.2843,1,466.4825,466.983,,,,,,158,FEM,CON,150,chica,,a,0.2843,,466.9846,466.9855,0.397222222,-0.065740741,0,0,0,,0,213,213,157,1,,,,
,,,,,,ac875b99b9db2aa56b437be5,66a626ef09d4e21e1a8894ec,673498ffef7777dce1fb7883,2024-11-13_13h18.39.674,Tarea de género gramatical,2024.2.2,Win32,59.88023952,,,,,,,,,,,,,,,,,,,,,,,,466.9866,468.0174,l,0,[],[],[],[],[],[],[],0.3537,0,468.0184,468.5179,,,,,,49,FEM,AGR,150,piel,la,a,0.3537,,468.518,468.5181,0.397222222,-0.065740741,0,0,0,,0,214,214,48,1,,,,
,,,,,,ac875b99b9db2aa56b437be5,66a626ef09d4e21e1a8894ec,673498ffef7777dce1fb7883,2024-11-13_13h18.39.674,Tarea de género gramatical,2024.2.2,Win32,59.88023952,,,,,,,,,,,,,,,,,,,,,,,,468.5194,469.5859,l,1,[],[],[],[],[],[],[],0.3852,1,469.5875,470.0857,,,,,,137,MAS,CON,150,coco,,l,0.3852,,470.0858,470.0859,0.397222222,-0.065740741,0,0,0,,0,215,215,136,1,,,,
,,,,,,ac875b99b9db2aa56b437be5,66a626ef09d4e21e1a8894ec,673498ffef7777dce1fb7883,2024-11-13_13h18.39.674,Tarea de género gramatical,2024.2.2,Win32,59.88023952,,,,,,,,,,,,,,,,,,,,,,,,470.0865,471.104,l,1,[],[],[],[],[],[],[],0.3553,1,471.1041,471.6043,,,,,,6,MAS,DIS,150,lado,la,l,0.3553,,471.6044,471.6045,0.397222222,-0.065740741,0,0,0,,0,216,216,5,1,,,,
,,,,,,ac875b99b9db2aa56b437be5,66a626ef09d4e21e1a8894ec,673498ffef7777dce1fb7883,2024-11-13_13h18.39.674,Tarea de género gramatical,2024.2.2,Win32,59.88023952,,,,,,,,,,,,,,,,,,,,,,,,471.6056,472.5399,l,1,[],[],[],[],[],[],[],0.253,1,472.5401,473.0394,,,,,,23,MAS,CON,150,rato,,l,0.253,,473.0395,473.0397,0.397222222,-0.065740741,0,0,0,,0,217,217,22,1,,,,
,,,,,,ac875b99b9db2aa56b437be5,66a626ef09d4e21e1a8894ec,673498ffef7777dce1fb7883,2024-11-13_13h18.39.674,Tarea de género gramatical,2024.2.2,Win32,59.88023952,,,,,,,,,,,,,,,,,,,,,,,,473.0417,474.1232,a,1,[],[],[],[],[],[],[],0.4009,1,474.1232,474.6238,,,,,,56,FEM,CON,150,bola,,a,0.4009,,474.6247,474.6252,0.397222222,-0.065740741,0,0,0,,0,218,218,55,1,,,,
,,,,,,ac875b99b9db2aa56b437be5,66a626ef09d4e21e1a8894ec,673498ffef7777dce1fb7883,2024-11-13_13h18.39.674,Tarea de género gramatical,2024.2.2,Win32,59.88023952,,,,,,,,,,,,,,,,,,,,,,,,474.6258,475.8082,l,1,[],[],[],[],[],[],[],0.5046,1,475.8083,476.3086,,,,,,124,MAS,AGR,150,clan,el,l,0.5046,,476.3086,476.3087,0.397222222,-0.065740741,0,0,0,,0,219,219,123,1,,,,
,,,,,,ac875b99b9db2aa56b437be5,66a626ef09d4e21e1a8894ec,673498ffef7777dce1fb7883,2024-11-13_13h18.39.674,Tarea de género gramatical,2024.2.2,Win32,59.88023952,,,,,,,,,,,,,,,,,,,,,,,,476.3094,478.0939,l,1,[],[],[],[],[],[],[],1.1247,1,478.094,478.5944,,,,,,312,MAS,DIS,150,equipo,la,l,1.1247,,478.5944,478.5945,0.397222222,-0.065740741,0,0,0,,0,220,220,311,1,,,,
,,,,,,ac875b99b9db2aa56b437be5,66a626ef09d4e21e1a8894ec,673498ffef7777dce1fb7883,2024-11-13_13h18.39.674,Tarea de género gramatical,2024.2.2,Win32,59.88023952,,,,,,,,,,,,,,,,,,,,,,,,478.5952,479.7462,l,1,[],[],[],[],[],[],[],0.488,1,479.7463,480.2466,,,,,,35,MAS,CON,150,taxi,,l,0.488,,480.2467,480.2469,0.397222222,-0.065740741,0,0,0,,0,221,221,34,1,,,,
,,,,,,ac875b99b9db2aa56b437be5,66a626ef09d4e21e1a8894ec,673498ffef7777dce1fb7883,2024-11-13_13h18.39.674,Tarea de género gramatical,2024.2.2,Win32,59.88023952,,,,,,,,,,,,,,,,,,,,,,,,480.2488,481.2566,l,0,[],[],[],[],[],[],[],0.3343,0,481.2573,481.7476,,,,,,434,FEM,CON,150,corona,,a,0.3343,,481.7491,481.75,0.397222222,-0.065740741,0,0,0,,0,222,222,433,1,,,,
,,,,,,ac875b99b9db2aa56b437be5,66a626ef09d4e21e1a8894ec,673498ffef7777dce1fb7883,2024-11-13_13h18.39.674,Tarea de género gramatical,2024.2.2,Win32,59.88023952,,,,,,,,,,,,,,,,,,,,,,,,481.7508,482.9823,l,1,[],[],[],[],[],[],[],0.5573,1,482.9832,483.4825,,,,,,41,MAS,CON,150,bote,,l,0.5573,,483.4825,483.4827,0.397222222,-0.065740741,0,0,0,,0,223,223,40,1,,,,
,,,,,,ac875b99b9db2aa56b437be5,66a626ef09d4e21e1a8894ec,673498ffef7777dce1fb7883,2024-11-13_13h18.39.674,Tarea de género gramatical,2024.2.2,Win32,59.88023952,,,,,,,,,,,,,,,,,,,,,,,,483.4839,484.6173,l,1,[],[],[],[],[],[],[],0.4513,1,484.6174,485.1174,,,,,,406,MAS,AGR,150,premio,el,l,0.4513,,485.1174,485.1176,0.397222222,-0.065740741,0,0,0,,0,224,224,405,1,,,,
,,,,,,ac875b99b9db2aa56b437be5,66a626ef09d4e21e1a8894ec,673498ffef7777dce1fb7883,2024-11-13_13h18.39.674,Tarea de género gramatical,2024.2.2,Win32,59.88023952,,,,,,,,,,,,,,,,,,,,,,,,485.1187,486.1017,l,1,[],[],[],[],[],[],[],0.3007,1,486.1017,486.6022,,,,,,366,MAS,DIS,150,riesgo,la,l,0.3007,,486.6022,486.6023,0.397222222,-0.065740741,0,0,0,,0,225,225,365,1,,,,
,,,,,,ac875b99b9db2aa56b437be5,66a626ef09d4e21e1a8894ec,673498ffef7777dce1fb7883,2024-11-13_13h18.39.674,Tarea de género gramatical,2024.2.2,Win32,59.88023952,,,,,,,,,,,,,,,,,,,,,,,,486.6031,487.6199,a,1,[],[],[],[],[],[],[],0.351,1,487.62,488.1203,,,,,,272,FEM,CON,150,oreja,,a,0.351,,488.1204,488.1205,0.397222222,-0.065740741,0,0,0,,0,226,226,271,1,,,,
,,,,,,ac875b99b9db2aa56b437be5,66a626ef09d4e21e1a8894ec,673498ffef7777dce1fb7883,2024-11-13_13h18.39.674,Tarea de género gramatical,2024.2.2,Win32,59.88023952,,,,,,,,,,,,,,,,,,,,,,,,488.1212,489.1547,l,1,[],[],[],[],[],[],[],0.3675,1,489.1548,489.6553,,,,,,53,MAS,CON,150,vaso,,l,0.3675,,489.6564,489.6569,0.397222222,-0.065740741,0,0,0,,0,227,227,52,1,,,,
,,,,,,ac875b99b9db2aa56b437be5,66a626ef09d4e21e1a8894ec,673498ffef7777dce1fb7883,2024-11-13_13h18.39.674,Tarea de género gramatical,2024.2.2,Win32,59.88023952,,,,,,,,,,,,,,,,,,,,,,,,489.6575,490.6399,l,1,[],[],[],[],[],[],[],0.3098,1,490.64,491.1401,,,,,,24,MAS,DIS,150,voto,la,l,0.3098,,491.1402,491.1403,0.397222222,-0.065740741,0,0,0,,0,228,228,23,1,,,,
,,,,,,ac875b99b9db2aa56b437be5,66a626ef09d4e21e1a8894ec,673498ffef7777dce1fb7883,2024-11-13_13h18.39.674,Tarea de género gramatical,2024.2.2,Win32,59.88023952,,,,,,,,,,,,,,,,,,,,,,,,491.1412,492.0911,l,1,[],[],[],[],[],[],[],0.2844,1,492.0912,492.5915,,,,,,52,MAS,AGR,150,lago,el,l,0.2844,,492.5916,492.5918,0.397222222,-0.065740741,0,0,0,,0,229,229,51,1,,,,
,,,,,,ac875b99b9db2aa56b437be5,66a626ef09d4e21e1a8894ec,673498ffef7777dce1fb7883,2024-11-13_13h18.39.674,Tarea de género gramatical,2024.2.2,Win32,59.88023952,,,,,,,,,,,,,,,,,,,,,,,,492.5927,493.5428,l,1,[],[],[],[],[],[],[],0.2896,1,493.5429,494.043,,,,,,444,MAS,DIS,150,límite,la,l,0.2896,,494.0431,494.0432,0.397222222,-0.065740741,0,0,0,,0,230,230,443,1,,,,
,,,,,,ac875b99b9db2aa56b437be5,66a626ef09d4e21e1a8894ec,673498ffef7777dce1fb7883,2024-11-13_13h18.39.674,Tarea de género gramatical,2024.2.2,Win32,59.88023952,,,,,,,,,,,,,,,,,,,,,,,,494.0441,494.9941,l,1,[],[],[],[],[],[],[],0.2841,1,494.9942,495.4945,,,,,,396,MAS,DIS,150,tesoro,la,l,0.2841,,495.4956,495.4963,0.397222222,-0.065740741,0,0,0,,0,231,231,395,1,,,,
,,,,,,ac875b99b9db2aa56b437be5,66a626ef09d4e21e1a8894ec,673498ffef7777dce1fb7883,2024-11-13_13h18.39.674,Tarea de género gramatical,2024.2.2,Win32,59.88023952,,,,,,,,,,,,,,,,,,,,,,,,495.497,496.4954,l,1,[],[],[],[],[],[],[],0.3219,1,496.4955,496.9958,,,,,,352,MAS,AGR,150,estilo,el,l,0.3219,,496.9959,496.996,0.397222222,-0.065740741,0,0,0,,0,232,232,351,1,,,,
,,,,,,ac875b99b9db2aa56b437be5,66a626ef09d4e21e1a8894ec,673498ffef7777dce1fb7883,2024-11-13_13h18.39.674,Tarea de género gramatical,2024.2.2,Win32,59.88023952,,,,,,,,,,,,,,,,,,,,,,,,496.9967,497.9134,l,1,[],[],[],[],[],[],[],0.2507,1,497.9135,498.414,,,,,,274,MAS,AGR,150,motor,el,l,0.2507,,498.414,498.4141,0.397222222,-0.065740741,0,0,0,,0,233,233,273,1,,,,
,,,,,,ac875b99b9db2aa56b437be5,66a626ef09d4e21e1a8894ec,673498ffef7777dce1fb7883,2024-11-13_13h18.39.674,Tarea de género gramatical,2024.2.2,Win32,59.88023952,,,,,,,,,,,,,,,,,,,,,,,,498.4149,499.8151,a,1,[],[],[],[],[],[],[],0.7388,1,499.8153,500.3158,,,,,,266,FEM,CON,150,jaula,,a,0.7388,,500.3158,500.3159,0.397222222,-0.065740741,0,0,0,,0,234,234,265,1,,,,
,,,,,,ac875b99b9db2aa56b437be5,66a626ef09d4e21e1a8894ec,673498ffef7777dce1fb7883,2024-11-13_13h18.39.674,Tarea de género gramatical,2024.2.2,Win32,59.88023952,,,,,,,,,,,,,,,,,,,,,,,,500.3167,501.4003,a,1,[],[],[],[],[],[],[],0.4213,1,501.4003,501.9007,,,,,,343,FEM,AGR,150,trampa,la,a,0.4213,,501.9007,501.9008,0.397222222,-0.065740741,0,0,0,,0,235,235,342,1,,,,
,,,,,,ac875b99b9db2aa56b437be5,66a626ef09d4e21e1a8894ec,673498ffef7777dce1fb7883,2024-11-13_13h18.39.674,Tarea de género gramatical,2024.2.2,Win32,59.88023952,,,,,,,,,,,,,,,,,,,,,,,,501.9015,502.8851,l,1,[],[],[],[],[],[],[],0.3174,1,502.8852,503.3855,,,,,,436,MAS,AGR,150,objeto,el,l,0.3174,,503.3864,503.387,0.397222222,-0.065740741,0,0,0,,0,236,236,435,1,,,,
,,,,,,ac875b99b9db2aa56b437be5,66a626ef09d4e21e1a8894ec,673498ffef7777dce1fb7883,2024-11-13_13h18.39.674,Tarea de género gramatical,2024.2.2,Win32,59.88023952,,,,,,,,,,,,,,,,,,,,,,,,503.3875,504.3198,l,0,[],[],[],[],[],[],[],0.2508,0,504.3203,504.8203,,,,,,177,FEM,DIS,150,broma,el,a,0.2508,,504.8203,504.8206,0.397222222,-0.065740741,0,0,0,,0,237,237,176,1,,,,
,,,,,,ac875b99b9db2aa56b437be5,66a626ef09d4e21e1a8894ec,673498ffef7777dce1fb7883,2024-11-13_13h18.39.674,Tarea de género gramatical,2024.2.2,Win32,59.88023952,,,,,,,,,,,,,,,,,,,,,,,,504.8213,505.8713,a,1,[],[],[],[],[],[],[],0.3842,1,505.8719,506.3719,,,,,,375,FEM,DIS,150,cadena,el,a,0.3842,,506.3719,506.372,0.397222222,-0.065740741,0,0,0,,0,238,238,374,1,,,,
,,,,,,ac875b99b9db2aa56b437be5,66a626ef09d4e21e1a8894ec,673498ffef7777dce1fb7883,2024-11-13_13h18.39.674,Tarea de género gramatical,2024.2.2,Win32,59.88023952,,,,,,,,,,,,,,,,,,,,,,,,506.3727,507.3228,a,1,[],[],[],[],[],[],[],0.2843,1,507.3229,507.8232,,,,,,446,FEM,CON,150,bañera,,a,0.2843,,507.8233,507.8234,0.397222222,-0.065740741,0,0,0,,0,239,239,445,1,,,,
,,,,,,ac875b99b9db2aa56b437be5,66a626ef09d4e21e1a8894ec,673498ffef7777dce1fb7883,2024-11-13_13h18.39.674,Tarea de género gramatical,2024.2.2,Win32,59.88023952,,,,,,,,,,,,,,,,,,,,,,,,507.8241,508.8743,l,1,[],[],[],[],[],[],[],0.3843,1,508.8744,509.3748,,,,,,179,MAS,CON,150,viaje,,l,0.3843,,509.3758,509.3764,0.397222222,-0.065740741,0,0,0,,0,240,240,178,1,,,,
,,,,,,ac875b99b9db2aa56b437be5,66a626ef09d4e21e1a8894ec,673498ffef7777dce1fb7883,2024-11-13_13h18.39.674,Tarea de género gramatical,2024.2.2,Win32,59.88023952,,,,,,,,,,,,,,,,,,,,,,,,509.3769,510.376,l,1,[],[],[],[],[],[],[],0.3175,1,510.3761,510.8766,,,,,,264,MAS,DIS,150,pollo,la,l,0.3175,,510.8767,510.8767,0.397222222,-0.065740741,0,0,0,,0,241,241,263,1,,,,
,,,,,,ac875b99b9db2aa56b437be5,66a626ef09d4e21e1a8894ec,673498ffef7777dce1fb7883,2024-11-13_13h18.39.674,Tarea de género gramatical,2024.2.2,Win32,59.88023952,,,,,,,,,,,,,,,,,,,,,,,,510.8775,511.9444,a,1,[],[],[],[],[],[],[],0.3989,1,511.9445,512.4446,,,,,,33,FEM,DIS,150,boda,el,a,0.3989,,512.4446,512.4447,0.397222222,-0.065740741,0,0,0,,0,242,242,32,1,,,,
,,,,,,ac875b99b9db2aa56b437be5,66a626ef09d4e21e1a8894ec,673498ffef7777dce1fb7883,2024-11-13_13h18.39.674,Tarea de género gramatical,2024.2.2,Win32,59.88023952,,,,,,,,,,,,,,,,,,,,,,,,512.4455,513.6963,a,1,[],[],[],[],[],[],[],0.5858,1,513.6964,514.1969,,,,,,87,FEM,DIS,150,risa,el,a,0.5858,,514.197,514.1971,0.397222222,-0.065740741,0,0,0,,0,243,243,86,1,,,,
,,,,,,ac875b99b9db2aa56b437be5,66a626ef09d4e21e1a8894ec,673498ffef7777dce1fb7883,2024-11-13_13h18.39.674,Tarea de género gramatical,2024.2.2,Win32,59.88023952,,,,,,,,,,,,,,,,,,,,,,,,514.1986,515.2975,a,1,[],[],[],[],[],[],[],0.4171,1,515.2976,515.7983,,,,,,332,FEM,CON,150,basura,,a,0.4171,,515.7984,515.7986,0.397222222,-0.065740741,0,0,0,,0,244,244,331,1,,,,
,,,,,,ac875b99b9db2aa56b437be5,66a626ef09d4e21e1a8894ec,673498ffef7777dce1fb7883,2024-11-13_13h18.39.674,Tarea de género gramatical,2024.2.2,Win32,59.88023952,,,,,,,,,,,,,,,,,,,,,,,,515.7996,516.7994,l,1,[],[],[],[],[],[],[],0.3139,1,516.7995,517.2995,,,,,,78,MAS,DIS,150,oído,la,l,0.3139,,517.3007,517.3015,0.397222222,-0.065740741,0,0,0,,0,245,245,77,1,,,,
,,,,,,ac875b99b9db2aa56b437be5,66a626ef09d4e21e1a8894ec,673498ffef7777dce1fb7883,2024-11-13_13h18.39.674,Tarea de género gramatical,2024.2.2,Win32,59.88023952,,,,,,,,,,,,,,,,,,,,,,,,517.3024,518.2933,l,1,[],[],[],[],[],[],[],0.3276,1,518.2934,518.7935,,,,,,347,MAS,CON,150,cuello,,l,0.3276,,518.7935,518.7936,0.397222222,-0.065740741,0,0,0,,0,246,246,346,1,,,,
,,,,,,ac875b99b9db2aa56b437be5,66a626ef09d4e21e1a8894ec,673498ffef7777dce1fb7883,2024-11-13_13h18.39.674,Tarea de género gramatical,2024.2.2,Win32,59.88023952,,,,,,,,,,,,,,,,,,,,,,,,518.7947,519.9115,l,1,[],[],[],[],[],[],[],0.4343,1,519.9116,520.4026,,,,,,90,MAS,DIS,150,león,la,l,0.4343,,520.4027,520.4028,0.397222222,-0.065740741,0,0,0,,0,247,247,89,1,,,,
,,,,,,ac875b99b9db2aa56b437be5,66a626ef09d4e21e1a8894ec,673498ffef7777dce1fb7883,2024-11-13_13h18.39.674,Tarea de género gramatical,2024.2.2,Win32,59.88023952,,,,,,,,,,,,,,,,,,,,,,,,520.4039,521.4299,l,1,[],[],[],[],[],[],[],0.3607,1,521.43,521.9302,,,,,,168,MAS,DIS,150,sitio,la,l,0.3607,,521.9302,521.9303,0.397222222,-0.065740741,0,0,0,,0,248,248,167,1,,,,
,,,,,,ac875b99b9db2aa56b437be5,66a626ef09d4e21e1a8894ec,673498ffef7777dce1fb7883,2024-11-13_13h18.39.674,Tarea de género gramatical,2024.2.2,Win32,59.88023952,,,,,,,,,,,,,,,,,,,,,,,,521.931,523.0551,l,1,[],[],[],[],[],[],[],0.451,1,523.0552,523.5556,,,,,,220,MAS,AGR,150,huevo,el,l,0.451,,523.5566,523.5571,0.397222222,-0.065740741,0,0,0,,0,249,249,219,1,,,,
,,,,,,ac875b99b9db2aa56b437be5,66a626ef09d4e21e1a8894ec,673498ffef7777dce1fb7883,2024-11-13_13h18.39.674,Tarea de género gramatical,2024.2.2,Win32,59.88023952,,,,,,,,,,,,,,,,,,,,,,,,523.5577,524.5567,l,1,[],[],[],[],[],[],[],0.3173,1,524.5568,525.0571,,,,,,59,MAS,CON,150,lobo,,l,0.3173,,525.0571,525.0572,0.397222222,-0.065740741,0,0,0,,0,250,250,58,1,,,,
,,,,,,ac875b99b9db2aa56b437be5,66a626ef09d4e21e1a8894ec,673498ffef7777dce1fb7883,2024-11-13_13h18.39.674,Tarea de género gramatical,2024.2.2,Win32,59.88023952,,,,,,,,,,,,,,,,,,,,,,,,525.058,526.3082,l,1,[],[],[],[],[],[],[],0.584,1,526.3084,526.8089,,,,,,126,MAS,DIS,150,lazo,la,l,0.584,,526.8089,526.8091,0.397222222,-0.065740741,0,0,0,,0,251,251,125,1,,,,
