counterbalancing_condition,consent_prescreening.block_1/declare_consent,consent_prescreening.block_1/age_years,consent_prescreening.block_1/gender,consent_prescreening.block_1/language_disorder,consent_prescreening.block_1/first_language,PROLIFIC_PID,STUDY_ID,SESSION_ID,date,expName,psychopyVersion,OS,frameRate,check_prescreening_answers.started,check_prescreening_answers.stopped,Instructions.started,Instructions.stopped,instr_done_keyboard.keys,instr_done_keyboard.rt,instr_done_keyboard.duration,instr_done_touch.x,instr_done_touch.y,instr_done_touch.leftButton,instr_done_touch.midButton,instr_done_touch.rightButton,instruction_pages.thisRepN,instruction_pages.thisTrialN,instruction_pages.thisN,instruction_pages.thisIndex,instruction_pages.ran,pageN,phase,instruct_text,has_image,instruct_image,presentTrial.started,presentTrial.stopped,response.keys,response.corr,touch_resp.x,touch_resp.y,touch_resp.leftButton,touch_resp.midButton,touch_resp.rightButton,touch_resp.time,touch_resp.clicked_name,rt,corr,feedback.started,feedback.stopped,practice_trials.thisRepN,practice_trials.thisTrialN,practice_trials.thisN,practice_trials.thisIndex,practice_trials.ran,TrialID,StimulusType,Condition,PrimeDuration,Prime,Flanker,corrAns,response.rt,response.duration,Break.started,Break.stopped,break_done_touch.x,break_done_touch.y,break_done_touch.leftButton,break_done_touch.midButton,break_done_touch.rightButton,break_done_keyboard.keys,experiment_trials.thisRepN,experiment_trials.thisTrialN,experiment_trials.thisN,experiment_trials.thisIndex,experiment_trials.ran,break_done_keyboard.rt,break_done_keyboard.duration,End.started,End.stopped
2,"[""over_18"",""comfortable"",""read_info"",""consent_given""]",25,M,"[""none""]","[""spanish""]",ad8dfb2065e431eb6e1f68ad,66a626ef09d4e21e1a8894ec,6734e003e492068df123a5ed,2024-11-13_11h22.04.398,Tarea de género gramatical,2024.2.2,Win32,64.76683938,,,,,,,,,,,,,,,,,,,,,,,,,,,,,,,,,,,,,,,,,,,,,,,,,,,,,,,,,,,,,,,,,,,,
,,,,,,ad8dfb2065e431eb6e1f68ad,66a626ef09d4e21e1a8894ec,6734e003e492068df123a5ed,2024-11-13_11h22.04.398,Tarea de género gramatical,2024.2.2,Win32,64.76683938,53.746,53.746,,,,,,,,,,,,,,,,,,,,,,,,,,,,,,,,,,,,,,,,,,,,,,,,,,,,,,,,,,,,,,,,,,
,,,,,,ad8dfb2065e431eb6e1f68ad,66a626ef09d4e21e1a8894ec,6734e003e492068df123a5ed,2024-11-13_11h22.04.398,Tarea de género gramatical,2024.2.2,Win32,64.76683938,,,53.756,69.047,space,15.266,,0.062962963,-0.327777778,0,0,0,0,0,0,0,1,1,instructions,"INSTRUCCIONES
Va a realizar una prueba de selección gramatical. Desde el comienzo de la prueba mire siempre al centro de la pantalla. Al cabo de un momento, aparecerán palabras. La tarea consiste en determinar si la palabra del centro (siempre será un sustantivo), pertenece al género masculino o femenino.

Pulse la tecla ESPACIO o toque el botón de abajo para continuar.",0,keyboardresponseFM.png,,,,,,,,,,,,,,,,,,,,,,,,,,,,,,,,,,,,,,,,,,,,,,
,,,,,,ad8dfb2065e431eb6e1f68ad,66a626ef09d4e21e1a8894ec,6734e003e492068df123a5ed,2024-11-13_11h22.04.398,Tarea de género gramatical,2024.2.2,Win32,64.76683938,,,69.052,84.297,space,15.19,,0.037037037,-0.205555556,0,0,0,0,1,1,1,1,2,instructions,"Si su dispositivo tiene teclado, pulse la tecla ""A"" para las palabras en femenino (por ejemplo: ""mano"") y la tecla ""L"" para las palabras en masculino(por ejemplo: ""arroz"").
Pulse la tecla ESPACIO o toque el botón de abajo para continuar.",1,keyboardresponseFM.png,,,,,,,,,,,,,,,,,,,,,,,,,,,,,,,,,,,,,,,,,,,,,,
,,,,,,ad8dfb2065e431eb6e1f68ad,66a626ef09d4e21e1a8894ec,6734e003e492068df123a5ed,2024-11-13_11h22.04.398,Tarea de género gramatical,2024.2.2,Win32,64.76683938,,,84.299,91.664,space,7.312,,0.037037037,-0.205555556,0,0,0,0,2,2,2,1,3,instructions,"Si utiliza un dispositivo sólo táctil, colóquelo en horizontal y utilice los botones de la pantalla. No utilice el ratón.
Pulse la tecla ESPACIO o toque el botón de abajo para continuar.",2,touchresponseFM.png,,,,,,,,,,,,,,,,,,,,,,,,,,,,,,,,,,,,,,,,,,,,,,
,,,,,,ad8dfb2065e431eb6e1f68ad,66a626ef09d4e21e1a8894ec,6734e003e492068df123a5ed,2024-11-13_11h22.04.398,Tarea de género gramatical,2024.2.2,Win32,64.76683938,,,91.667,99.897,space,8.208,,0.037037037,-0.205555556,0,0,0,0,3,3,3,1,4,instructions,"Es muy importante que responda con la mayor rapidez y precisión posibles, ya que cada cadena de letras sólo estará en pantalla durante un instante. Si no responde en ese tiempo, aparecerá el mensaje ""Muy lento"" y el experimento pasará a la siguiente palabra. Los primeros 15 intentos serán de práctica y habrá dos descansos durante la prueba.
Pulse la tecla ESPACIO o toque el botón de abajo para iniciar la parte de práctica.",0,keyboardresponseFM.png,,,,,,,,,,,,,,,,,,,,,,,,,,,,,,,,,,,,,,,,,,,,,,
,,,,,,ad8dfb2065e431eb6e1f68ad,66a626ef09d4e21e1a8894ec,6734e003e492068df123a5ed,2024-11-13_11h22.04.398,Tarea de género gramatical,2024.2.2,Win32,64.76683938,,,,,,,,,,,,,,,,,,,,,,,99.912,102.564,,0,[],[],[],[],[],[],[],,-1,102.565,103.064,0,0,0,1,1,2002,FEM,CON,150,pala,,a,,,,,,,,,,,,,,,,,,,
,,,,,,ad8dfb2065e431eb6e1f68ad,66a626ef09d4e21e1a8894ec,6734e003e492068df123a5ed,2024-11-13_11h22.04.398,Tarea de género gramatical,2024.2.2,Win32,64.76683938,,,,,,,,,,,,,,,,,,,,,,,103.065,104.73,l,1,[],[],[],[],[],[],[],0.984,1,104.732,105.23,0,1,1,12,1,2013,MAS,AGR,150,acero,el,l,0.984,,,,,,,,,,,,,,,,,,
,,,,,,ad8dfb2065e431eb6e1f68ad,66a626ef09d4e21e1a8894ec,6734e003e492068df123a5ed,2024-11-13_11h22.04.398,Tarea de género gramatical,2024.2.2,Win32,64.76683938,,,,,,,,,,,,,,,,,,,,,,,105.231,106.497,l,1,[],[],[],[],[],[],[],0.582,1,106.498,106.997,0,2,2,8,1,2009,MAS,DIS,150,puerto,la,l,0.582,,,,,,,,,,,,,,,,,,
,,,,,,ad8dfb2065e431eb6e1f68ad,66a626ef09d4e21e1a8894ec,6734e003e492068df123a5ed,2024-11-13_11h22.04.398,Tarea de género gramatical,2024.2.2,Win32,64.76683938,,,,,,,,,,,,,,,,,,,,,,,106.998,108.03,a,1,[],[],[],[],[],[],[],0.365,1,108.031,108.53,0,3,3,3,1,2004,FEM,AGR,150,venta,la,a,0.365,,,,,,,,,,,,,,,,,,
,,,,,,ad8dfb2065e431eb6e1f68ad,66a626ef09d4e21e1a8894ec,6734e003e492068df123a5ed,2024-11-13_11h22.04.398,Tarea de género gramatical,2024.2.2,Win32,64.76683938,,,,,,,,,,,,,,,,,,,,,,,108.531,109.964,l,1,[],[],[],[],[],[],[],0.774,1,109.964,110.463,0,4,4,10,1,2011,MAS,CON,150,canal,,l,0.774,,,,,,,,,,,,,,,,,,
,,,,,,ad8dfb2065e431eb6e1f68ad,66a626ef09d4e21e1a8894ec,6734e003e492068df123a5ed,2024-11-13_11h22.04.398,Tarea de género gramatical,2024.2.2,Win32,64.76683938,,,,,,,,,,,,,,,,,,,,,,,110.465,111.881,l,1,[],[],[],[],[],[],[],0.733,1,111.881,112.381,0,5,5,11,1,2012,MAS,DIS,150,clima,la,l,0.733,,,,,,,,,,,,,,,,,,
,,,,,,ad8dfb2065e431eb6e1f68ad,66a626ef09d4e21e1a8894ec,6734e003e492068df123a5ed,2024-11-13_11h22.04.398,Tarea de género gramatical,2024.2.2,Win32,64.76683938,,,,,,,,,,,,,,,,,,,,,,,112.381,113.764,l,1,[],[],[],[],[],[],[],0.7,1,113.764,114.266,0,6,6,14,1,2015,MAS,DIS,150,robot,la,l,0.7,,,,,,,,,,,,,,,,,,
,,,,,,ad8dfb2065e431eb6e1f68ad,66a626ef09d4e21e1a8894ec,6734e003e492068df123a5ed,2024-11-13_11h22.04.398,Tarea de género gramatical,2024.2.2,Win32,64.76683938,,,,,,,,,,,,,,,,,,,,,,,114.266,115.563,a,1,[],[],[],[],[],[],[],0.62,1,115.564,116.063,0,7,7,5,1,2006,FEM,DIS,150,serie,el,a,0.62,,,,,,,,,,,,,,,,,,
,,,,,,ad8dfb2065e431eb6e1f68ad,66a626ef09d4e21e1a8894ec,6734e003e492068df123a5ed,2024-11-13_11h22.04.398,Tarea de género gramatical,2024.2.2,Win32,64.76683938,,,,,,,,,,,,,,,,,,,,,,,116.064,117.681,l,0,[],[],[],[],[],[],[],0.951,0,117.681,118.18,0,8,8,4,1,2005,FEM,CON,150,placa,,a,0.951,,,,,,,,,,,,,,,,,,
,,,,,,ad8dfb2065e431eb6e1f68ad,66a626ef09d4e21e1a8894ec,6734e003e492068df123a5ed,2024-11-13_11h22.04.398,Tarea de género gramatical,2024.2.2,Win32,64.76683938,,,,,,,,,,,,,,,,,,,,,,,118.182,119.714,a,1,[],[],[],[],[],[],[],0.855,1,119.714,120.214,0,9,9,6,1,2007,FEM,AGR,150,navaja,la,a,0.855,,,,,,,,,,,,,,,,,,
,,,,,,ad8dfb2065e431eb6e1f68ad,66a626ef09d4e21e1a8894ec,6734e003e492068df123a5ed,2024-11-13_11h22.04.398,Tarea de género gramatical,2024.2.2,Win32,64.76683938,,,,,,,,,,,,,,,,,,,,,,,120.215,121.447,l,1,[],[],[],[],[],[],[],0.559,1,121.447,121.948,0,10,10,9,1,2010,MAS,AGR,150,vecino,el,l,0.559,,,,,,,,,,,,,,,,,,
,,,,,,ad8dfb2065e431eb6e1f68ad,66a626ef09d4e21e1a8894ec,6734e003e492068df123a5ed,2024-11-13_11h22.04.398,Tarea de género gramatical,2024.2.2,Win32,64.76683938,,,,,,,,,,,,,,,,,,,,,,,121.95,123.247,l,1,[],[],[],[],[],[],[],0.625,1,123.247,123.747,0,11,11,13,1,2014,MAS,CON,150,siglo,,l,0.625,,,,,,,,,,,,,,,,,,
,,,,,,ad8dfb2065e431eb6e1f68ad,66a626ef09d4e21e1a8894ec,6734e003e492068df123a5ed,2024-11-13_11h22.04.398,Tarea de género gramatical,2024.2.2,Win32,64.76683938,,,,,,,,,,,,,,,,,,,,,,,123.748,124.947,a,1,[],[],[],[],[],[],[],0.517,1,124.947,125.447,0,12,12,7,1,2008,FEM,CON,150,siesta,,a,0.517,,,,,,,,,,,,,,,,,,
,,,,,,ad8dfb2065e431eb6e1f68ad,66a626ef09d4e21e1a8894ec,6734e003e492068df123a5ed,2024-11-13_11h22.04.398,Tarea de género gramatical,2024.2.2,Win32,64.76683938,,,,,,,,,,,,,,,,,,,,,,,125.448,126.78,a,1,[],[],[],[],[],[],[],0.675,1,126.781,127.281,0,13,13,0,1,2001,FEM,AGR,150,nuca,la,a,0.675,,,,,,,,,,,,,,,,,,
,,,,,,ad8dfb2065e431eb6e1f68ad,66a626ef09d4e21e1a8894ec,6734e003e492068df123a5ed,2024-11-13_11h22.04.398,Tarea de género gramatical,2024.2.2,Win32,64.76683938,,,,,,,,,,,,,,,,,,,,,,,127.282,128.43,a,1,[],[],[],[],[],[],[],0.472,1,128.43,128.93,0,14,14,2,1,2003,FEM,DIS,150,daga,el,a,0.472,,,,,,,,,,,,,,,,,,
,,,,,,ad8dfb2065e431eb6e1f68ad,66a626ef09d4e21e1a8894ec,6734e003e492068df123a5ed,2024-11-13_11h22.04.398,Tarea de género gramatical,2024.2.2,Win32,64.76683938,,,133.782,139.147,space,5.343,,0.037037037,-0.205555556,0,0,0,,,,,,,,,,,139.177,140.331,a,1,[],[],[],[],[],[],[],0.484,1,140.331,140.83,,,,,,1209,FEM,CON,150,esposa,,a,0.484,,140.83,140.832,0.037037037,-0.205555556,0,0,0,,0,0,0,308,1,,,,
,,,,,,ad8dfb2065e431eb6e1f68ad,66a626ef09d4e21e1a8894ec,6734e003e492068df123a5ed,2024-11-13_11h22.04.398,Tarea de género gramatical,2024.2.2,Win32,64.76683938,,,,,,,,,,,,,,,,,,,,,,,140.833,142.047,a,1,[],[],[],[],[],[],[],0.539,1,142.047,142.547,,,,,,1250,FEM,AGR,150,imagen,la,a,0.539,,142.548,142.548,0.037037037,-0.205555556,0,0,0,,0,1,1,349,1,,,,
,,,,,,ad8dfb2065e431eb6e1f68ad,66a626ef09d4e21e1a8894ec,6734e003e492068df123a5ed,2024-11-13_11h22.04.398,Tarea de género gramatical,2024.2.2,Win32,64.76683938,,,,,,,,,,,,,,,,,,,,,,,142.548,143.747,a,1,[],[],[],[],[],[],[],0.518,1,143.747,144.248,,,,,,1267,FEM,DIS,150,teoría,el,a,0.518,,144.248,144.249,0.037037037,-0.205555556,0,0,0,,0,2,2,366,1,,,,
,,,,,,ad8dfb2065e431eb6e1f68ad,66a626ef09d4e21e1a8894ec,6734e003e492068df123a5ed,2024-11-13_11h22.04.398,Tarea de género gramatical,2024.2.2,Win32,64.76683938,,,,,,,,,,,,,,,,,,,,,,,144.249,145.497,l,1,[],[],[],[],[],[],[],0.567,1,145.497,145.997,,,,,,1014,MAS,CON,150,menú,,l,0.567,,145.997,145.997,0.037037037,-0.205555556,0,0,0,,0,3,3,113,1,,,,
,,,,,,ad8dfb2065e431eb6e1f68ad,66a626ef09d4e21e1a8894ec,6734e003e492068df123a5ed,2024-11-13_11h22.04.398,Tarea de género gramatical,2024.2.2,Win32,64.76683938,,,,,,,,,,,,,,,,,,,,,,,145.998,147.164,l,1,[],[],[],[],[],[],[],0.482,1,147.164,147.664,,,,,,1115,MAS,AGR,150,hueso,el,l,0.482,,147.664,147.664,0.037037037,-0.205555556,0,0,0,,0,4,4,214,1,,,,
,,,,,,ad8dfb2065e431eb6e1f68ad,66a626ef09d4e21e1a8894ec,6734e003e492068df123a5ed,2024-11-13_11h22.04.398,Tarea de género gramatical,2024.2.2,Win32,64.76683938,,,,,,,,,,,,,,,,,,,,,,,147.664,148.797,l,1,[],[],[],[],[],[],[],0.467,1,148.797,149.297,,,,,,1086,MAS,CON,150,error,,l,0.467,,149.297,149.297,0.037037037,-0.205555556,0,0,0,,0,5,5,185,1,,,,
,,,,,,ad8dfb2065e431eb6e1f68ad,66a626ef09d4e21e1a8894ec,6734e003e492068df123a5ed,2024-11-13_11h22.04.398,Tarea de género gramatical,2024.2.2,Win32,64.76683938,,,,,,,,,,,,,,,,,,,,,,,149.298,150.514,a,1,[],[],[],[],[],[],[],0.539,1,150.514,151.014,,,,,,949,FEM,DIS,150,piel,el,a,0.539,,151.014,151.016,0.037037037,-0.205555556,0,0,0,,0,6,6,48,1,,,,
,,,,,,ad8dfb2065e431eb6e1f68ad,66a626ef09d4e21e1a8894ec,6734e003e492068df123a5ed,2024-11-13_11h22.04.398,Tarea de género gramatical,2024.2.2,Win32,64.76683938,,,,,,,,,,,,,,,,,,,,,,,151.016,152.214,a,1,[],[],[],[],[],[],[],0.517,1,152.215,152.713,,,,,,979,FEM,DIS,150,mina,el,a,0.517,,152.714,152.714,0.037037037,-0.205555556,0,0,0,,0,7,7,78,1,,,,
,,,,,,ad8dfb2065e431eb6e1f68ad,66a626ef09d4e21e1a8894ec,6734e003e492068df123a5ed,2024-11-13_11h22.04.398,Tarea de género gramatical,2024.2.2,Win32,64.76683938,,,,,,,,,,,,,,,,,,,,,,,152.714,154.014,l,1,[],[],[],[],[],[],[],0.618,1,154.014,154.514,,,,,,1180,MAS,DIS,150,salón,la,l,0.618,,154.514,154.514,0.037037037,-0.205555556,0,0,0,,0,8,8,279,1,,,,
,,,,,,ad8dfb2065e431eb6e1f68ad,66a626ef09d4e21e1a8894ec,6734e003e492068df123a5ed,2024-11-13_11h22.04.398,Tarea de género gramatical,2024.2.2,Win32,64.76683938,,,,,,,,,,,,,,,,,,,,,,,154.515,155.631,a,1,[],[],[],[],[],[],[],0.45,1,155.632,156.131,,,,,,1166,FEM,AGR,150,jaula,la,a,0.45,,156.131,156.131,0.037037037,-0.205555556,0,0,0,,0,9,9,265,1,,,,
,,,,,,ad8dfb2065e431eb6e1f68ad,66a626ef09d4e21e1a8894ec,6734e003e492068df123a5ed,2024-11-13_11h22.04.398,Tarea de género gramatical,2024.2.2,Win32,64.76683938,,,,,,,,,,,,,,,,,,,,,,,156.133,157.28,l,1,[],[],[],[],[],[],[],0.477,1,157.28,157.781,,,,,,1163,MAS,AGR,150,carro,el,l,0.477,,157.781,157.781,0.037037037,-0.205555556,0,0,0,,0,10,10,262,1,,,,
,,,,,,ad8dfb2065e431eb6e1f68ad,66a626ef09d4e21e1a8894ec,6734e003e492068df123a5ed,2024-11-13_11h22.04.398,Tarea de género gramatical,2024.2.2,Win32,64.76683938,,,,,,,,,,,,,,,,,,,,,,,157.782,158.964,l,1,[],[],[],[],[],[],[],0.5,1,158.964,159.464,,,,,,1320,MAS,CON,150,helado,,l,0.5,,159.465,159.466,0.037037037,-0.205555556,0,0,0,,0,11,11,419,1,,,,
,,,,,,ad8dfb2065e431eb6e1f68ad,66a626ef09d4e21e1a8894ec,6734e003e492068df123a5ed,2024-11-13_11h22.04.398,Tarea de género gramatical,2024.2.2,Win32,64.76683938,,,,,,,,,,,,,,,,,,,,,,,159.467,160.664,a,1,[],[],[],[],[],[],[],0.518,1,160.664,161.164,,,,,,1159,FEM,DIS,150,prima,el,a,0.518,,161.164,161.164,0.037037037,-0.205555556,0,0,0,,0,12,12,258,1,,,,
,,,,,,ad8dfb2065e431eb6e1f68ad,66a626ef09d4e21e1a8894ec,6734e003e492068df123a5ed,2024-11-13_11h22.04.398,Tarea de género gramatical,2024.2.2,Win32,64.76683938,,,,,,,,,,,,,,,,,,,,,,,161.165,162.347,a,1,[],[],[],[],[],[],[],0.518,1,162.347,162.847,,,,,,1045,FEM,DIS,150,bota,el,a,0.518,,162.847,162.847,0.037037037,-0.205555556,0,0,0,,0,13,13,144,1,,,,
,,,,,,ad8dfb2065e431eb6e1f68ad,66a626ef09d4e21e1a8894ec,6734e003e492068df123a5ed,2024-11-13_11h22.04.398,Tarea de género gramatical,2024.2.2,Win32,64.76683938,,,,,,,,,,,,,,,,,,,,,,,162.848,164.114,a,1,[],[],[],[],[],[],[],0.581,1,164.115,164.614,,,,,,1257,FEM,CON,150,lengua,,a,0.581,,164.614,164.614,0.037037037,-0.205555556,0,0,0,,0,14,14,356,1,,,,
,,,,,,ad8dfb2065e431eb6e1f68ad,66a626ef09d4e21e1a8894ec,6734e003e492068df123a5ed,2024-11-13_11h22.04.398,Tarea de género gramatical,2024.2.2,Win32,64.76683938,,,,,,,,,,,,,,,,,,,,,,,164.615,165.964,l,1,[],[],[],[],[],[],[],0.683,1,165.964,166.464,,,,,,923,MAS,AGR,150,rato,el,l,0.683,,166.465,166.465,0.037037037,-0.205555556,0,0,0,,0,15,15,22,1,,,,
,,,,,,ad8dfb2065e431eb6e1f68ad,66a626ef09d4e21e1a8894ec,6734e003e492068df123a5ed,2024-11-13_11h22.04.398,Tarea de género gramatical,2024.2.2,Win32,64.76683938,,,,,,,,,,,,,,,,,,,,,,,166.466,167.764,l,1,[],[],[],[],[],[],[],0.621,1,167.764,168.263,,,,,,1134,MAS,CON,150,héroe,,l,0.621,,168.264,168.264,0.037037037,-0.205555556,0,0,0,,0,16,16,233,1,,,,
,,,,,,ad8dfb2065e431eb6e1f68ad,66a626ef09d4e21e1a8894ec,6734e003e492068df123a5ed,2024-11-13_11h22.04.398,Tarea de género gramatical,2024.2.2,Win32,64.76683938,,,,,,,,,,,,,,,,,,,,,,,168.265,169.331,a,1,[],[],[],[],[],[],[],0.408,1,169.331,169.83,,,,,,1327,FEM,DIS,150,agenda,el,a,0.408,,169.83,169.83,0.037037037,-0.205555556,0,0,0,,0,17,17,426,1,,,,
,,,,,,ad8dfb2065e431eb6e1f68ad,66a626ef09d4e21e1a8894ec,6734e003e492068df123a5ed,2024-11-13_11h22.04.398,Tarea de género gramatical,2024.2.2,Win32,64.76683938,,,,,,,,,,,,,,,,,,,,,,,169.831,170.93,l,1,[],[],[],[],[],[],[],0.433,1,170.93,171.431,,,,,,1260,MAS,CON,150,puente,,l,0.433,,171.431,171.431,0.037037037,-0.205555556,0,0,0,,0,18,18,359,1,,,,
,,,,,,ad8dfb2065e431eb6e1f68ad,66a626ef09d4e21e1a8894ec,6734e003e492068df123a5ed,2024-11-13_11h22.04.398,Tarea de género gramatical,2024.2.2,Win32,64.76683938,,,,,,,,,,,,,,,,,,,,,,,171.432,172.598,a,1,[],[],[],[],[],[],[],0.483,1,172.598,173.097,,,,,,1227,FEM,CON,150,tienda,,a,0.483,,173.098,173.098,0.037037037,-0.205555556,0,0,0,,0,19,19,326,1,,,,
,,,,,,ad8dfb2065e431eb6e1f68ad,66a626ef09d4e21e1a8894ec,6734e003e492068df123a5ed,2024-11-13_11h22.04.398,Tarea de género gramatical,2024.2.2,Win32,64.76683938,,,,,,,,,,,,,,,,,,,,,,,173.098,174.248,a,1,[],[],[],[],[],[],[],0.468,1,174.248,174.747,,,,,,1245,FEM,CON,150,pierna,,a,0.468,,174.747,174.748,0.037037037,-0.205555556,0,0,0,,0,20,20,344,1,,,,
,,,,,,ad8dfb2065e431eb6e1f68ad,66a626ef09d4e21e1a8894ec,6734e003e492068df123a5ed,2024-11-13_11h22.04.398,Tarea de género gramatical,2024.2.2,Win32,64.76683938,,,,,,,,,,,,,,,,,,,,,,,174.749,175.864,l,1,[],[],[],[],[],[],[],0.438,1,175.864,176.364,,,,,,1264,MAS,DIS,150,viento,la,l,0.438,,176.364,176.364,0.037037037,-0.205555556,0,0,0,,0,21,21,363,1,,,,
,,,,,,ad8dfb2065e431eb6e1f68ad,66a626ef09d4e21e1a8894ec,6734e003e492068df123a5ed,2024-11-13_11h22.04.398,Tarea de género gramatical,2024.2.2,Win32,64.76683938,,,,,,,,,,,,,,,,,,,,,,,176.365,177.848,l,1,[],[],[],[],[],[],[],0.801,1,177.848,178.347,,,,,,1247,MAS,AGR,150,cuello,el,l,0.801,,178.347,178.347,0.037037037,-0.205555556,0,0,0,,0,22,22,346,1,,,,
,,,,,,ad8dfb2065e431eb6e1f68ad,66a626ef09d4e21e1a8894ec,6734e003e492068df123a5ed,2024-11-13_11h22.04.398,Tarea de género gramatical,2024.2.2,Win32,64.76683938,,,,,,,,,,,,,,,,,,,,,,,178.347,179.481,a,1,[],[],[],[],[],[],[],0.476,1,179.481,179.98,,,,,,1004,FEM,AGR,150,vela,la,a,0.476,,179.98,179.981,0.037037037,-0.205555556,0,0,0,,0,23,23,103,1,,,,
,,,,,,ad8dfb2065e431eb6e1f68ad,66a626ef09d4e21e1a8894ec,6734e003e492068df123a5ed,2024-11-13_11h22.04.398,Tarea de género gramatical,2024.2.2,Win32,64.76683938,,,,,,,,,,,,,,,,,,,,,,,179.981,181.214,a,1,[],[],[],[],[],[],[],0.564,1,181.215,181.714,,,,,,1131,FEM,CON,150,bruja,,a,0.564,,181.714,181.715,0.037037037,-0.205555556,0,0,0,,0,24,24,230,1,,,,
,,,,,,ad8dfb2065e431eb6e1f68ad,66a626ef09d4e21e1a8894ec,6734e003e492068df123a5ed,2024-11-13_11h22.04.398,Tarea de género gramatical,2024.2.2,Win32,64.76683938,,,,,,,,,,,,,,,,,,,,,,,181.716,182.864,a,1,[],[],[],[],[],[],[],0.467,1,182.864,183.363,,,,,,1340,FEM,AGR,150,patada,la,a,0.467,,183.364,183.364,0.037037037,-0.205555556,0,0,0,,0,25,25,439,1,,,,
,,,,,,ad8dfb2065e431eb6e1f68ad,66a626ef09d4e21e1a8894ec,6734e003e492068df123a5ed,2024-11-13_11h22.04.398,Tarea de género gramatical,2024.2.2,Win32,64.76683938,,,,,,,,,,,,,,,,,,,,,,,183.364,184.63,l,1,[],[],[],[],[],[],[],0.606,1,184.631,185.131,,,,,,1222,MAS,DIS,150,minuto,la,l,0.606,,185.131,185.131,0.037037037,-0.205555556,0,0,0,,0,26,26,321,1,,,,
,,,,,,ad8dfb2065e431eb6e1f68ad,66a626ef09d4e21e1a8894ec,6734e003e492068df123a5ed,2024-11-13_11h22.04.398,Tarea de género gramatical,2024.2.2,Win32,64.76683938,,,,,,,,,,,,,,,,,,,,,,,185.132,186.347,l,1,[],[],[],[],[],[],[],0.542,1,186.347,186.847,,,,,,1282,MAS,DIS,150,teatro,la,l,0.542,,186.847,186.847,0.037037037,-0.205555556,0,0,0,,0,27,27,381,1,,,,
,,,,,,ad8dfb2065e431eb6e1f68ad,66a626ef09d4e21e1a8894ec,6734e003e492068df123a5ed,2024-11-13_11h22.04.398,Tarea de género gramatical,2024.2.2,Win32,64.76683938,,,,,,,,,,,,,,,,,,,,,,,186.848,188.098,l,1,[],[],[],[],[],[],[],0.566,1,188.098,188.598,,,,,,1139,MAS,AGR,150,reloj,el,l,0.566,,188.598,188.598,0.037037037,-0.205555556,0,0,0,,0,28,28,238,1,,,,
,,,,,,ad8dfb2065e431eb6e1f68ad,66a626ef09d4e21e1a8894ec,6734e003e492068df123a5ed,2024-11-13_11h22.04.398,Tarea de género gramatical,2024.2.2,Win32,64.76683938,,,,,,,,,,,,,,,,,,,,,,,188.602,189.747,a,1,[],[],[],[],[],[],[],0.471,1,189.748,190.247,,,,,,1297,FEM,DIS,150,cuerda,el,a,0.471,,190.248,190.249,0.037037037,-0.205555556,0,0,0,,0,29,29,396,1,,,,
,,,,,,ad8dfb2065e431eb6e1f68ad,66a626ef09d4e21e1a8894ec,6734e003e492068df123a5ed,2024-11-13_11h22.04.398,Tarea de género gramatical,2024.2.2,Win32,64.76683938,,,,,,,,,,,,,,,,,,,,,,,190.249,191.314,a,1,[],[],[],[],[],[],[],0.391,1,191.314,191.814,,,,,,1029,FEM,CON,150,rana,,a,0.391,,191.814,191.814,0.037037037,-0.205555556,0,0,0,,0,30,30,128,1,,,,
,,,,,,ad8dfb2065e431eb6e1f68ad,66a626ef09d4e21e1a8894ec,6734e003e492068df123a5ed,2024-11-13_11h22.04.398,Tarea de género gramatical,2024.2.2,Win32,64.76683938,,,,,,,,,,,,,,,,,,,,,,,191.815,192.831,a,1,[],[],[],[],[],[],[],0.333,1,192.831,193.331,,,,,,991,FEM,DIS,150,hoja,el,a,0.333,,193.331,193.331,0.037037037,-0.205555556,0,0,0,,0,31,31,90,1,,,,
,,,,,,ad8dfb2065e431eb6e1f68ad,66a626ef09d4e21e1a8894ec,6734e003e492068df123a5ed,2024-11-13_11h22.04.398,Tarea de género gramatical,2024.2.2,Win32,64.76683938,,,,,,,,,,,,,,,,,,,,,,,193.332,194.464,l,1,[],[],[],[],[],[],[],0.46,1,194.464,194.964,,,,,,906,MAS,CON,150,lado,,l,0.46,,194.964,194.964,0.037037037,-0.205555556,0,0,0,,0,32,32,5,1,,,,
,,,,,,ad8dfb2065e431eb6e1f68ad,66a626ef09d4e21e1a8894ec,6734e003e492068df123a5ed,2024-11-13_11h22.04.398,Tarea de género gramatical,2024.2.2,Win32,64.76683938,,,,,,,,,,,,,,,,,,,,,,,194.966,196.081,a,1,[],[],[],[],[],[],[],0.435,1,196.081,196.581,,,,,,1309,FEM,DIS,150,moneda,el,a,0.435,,196.581,196.582,0.037037037,-0.205555556,0,0,0,,0,33,33,408,1,,,,
,,,,,,ad8dfb2065e431eb6e1f68ad,66a626ef09d4e21e1a8894ec,6734e003e492068df123a5ed,2024-11-13_11h22.04.398,Tarea de género gramatical,2024.2.2,Win32,64.76683938,,,,,,,,,,,,,,,,,,,,,,,196.583,197.714,l,0,[],[],[],[],[],[],[],0.462,0,197.715,198.214,,,,,,1118,FEM,AGR,150,nieve,la,a,0.462,,198.214,198.215,0.037037037,-0.205555556,0,0,0,,0,34,34,217,1,,,,
,,,,,,ad8dfb2065e431eb6e1f68ad,66a626ef09d4e21e1a8894ec,6734e003e492068df123a5ed,2024-11-13_11h22.04.398,Tarea de género gramatical,2024.2.2,Win32,64.76683938,,,,,,,,,,,,,,,,,,,,,,,198.215,199.481,l,0,[],[],[],[],[],[],[],0.583,0,199.481,199.981,,,,,,1071,FEM,CON,150,mitad,,a,0.583,,199.981,199.981,0.037037037,-0.205555556,0,0,0,,0,35,35,170,1,,,,
,,,,,,ad8dfb2065e431eb6e1f68ad,66a626ef09d4e21e1a8894ec,6734e003e492068df123a5ed,2024-11-13_11h22.04.398,Tarea de género gramatical,2024.2.2,Win32,64.76683938,,,,,,,,,,,,,,,,,,,,,,,199.982,201.481,l,1,[],[],[],[],[],[],[],0.818,1,201.482,201.981,,,,,,1126,MAS,DIS,150,color,la,l,0.818,,201.981,201.981,0.037037037,-0.205555556,0,0,0,,0,36,36,225,1,,,,
,,,,,,ad8dfb2065e431eb6e1f68ad,66a626ef09d4e21e1a8894ec,6734e003e492068df123a5ed,2024-11-13_11h22.04.398,Tarea de género gramatical,2024.2.2,Win32,64.76683938,,,,,,,,,,,,,,,,,,,,,,,201.981,203.164,a,1,[],[],[],[],[],[],[],0.524,1,203.164,203.664,,,,,,1178,FEM,AGR,150,presa,la,a,0.524,,203.664,203.664,0.037037037,-0.205555556,0,0,0,,0,37,37,277,1,,,,
,,,,,,ad8dfb2065e431eb6e1f68ad,66a626ef09d4e21e1a8894ec,6734e003e492068df123a5ed,2024-11-13_11h22.04.398,Tarea de género gramatical,2024.2.2,Win32,64.76683938,,,,,,,,,,,,,,,,,,,,,,,203.665,204.797,a,1,[],[],[],[],[],[],[],0.47,1,204.797,205.297,,,,,,1065,FEM,CON,150,amiga,,a,0.47,,205.298,205.299,0.037037037,-0.205555556,0,0,0,,0,38,38,164,1,,,,
,,,,,,ad8dfb2065e431eb6e1f68ad,66a626ef09d4e21e1a8894ec,6734e003e492068df123a5ed,2024-11-13_11h22.04.398,Tarea de género gramatical,2024.2.2,Win32,64.76683938,,,,,,,,,,,,,,,,,,,,,,,205.3,206.431,a,1,[],[],[],[],[],[],[],0.45,1,206.431,206.931,,,,,,914,FEM,AGR,150,cara,la,a,0.45,,206.931,206.931,0.037037037,-0.205555556,0,0,0,,0,39,39,13,1,,,,
,,,,,,ad8dfb2065e431eb6e1f68ad,66a626ef09d4e21e1a8894ec,6734e003e492068df123a5ed,2024-11-13_11h22.04.398,Tarea de género gramatical,2024.2.2,Win32,64.76683938,,,,,,,,,,,,,,,,,,,,,,,206.932,208.164,a,1,[],[],[],[],[],[],[],0.575,1,208.164,208.664,,,,,,1005,FEM,CON,150,jefa,,a,0.575,,208.664,208.664,0.037037037,-0.205555556,0,0,0,,0,40,40,104,1,,,,
,,,,,,ad8dfb2065e431eb6e1f68ad,66a626ef09d4e21e1a8894ec,6734e003e492068df123a5ed,2024-11-13_11h22.04.398,Tarea de género gramatical,2024.2.2,Win32,64.76683938,,,,,,,,,,,,,,,,,,,,,,,208.664,209.714,a,1,[],[],[],[],[],[],[],0.39,1,209.714,210.214,,,,,,944,FEM,AGR,150,zona,la,a,0.39,,210.214,210.214,0.037037037,-0.205555556,0,0,0,,0,41,41,43,1,,,,
,,,,,,ad8dfb2065e431eb6e1f68ad,66a626ef09d4e21e1a8894ec,6734e003e492068df123a5ed,2024-11-13_11h22.04.398,Tarea de género gramatical,2024.2.2,Win32,64.76683938,,,,,,,,,,,,,,,,,,,,,,,210.215,211.314,a,1,[],[],[],[],[],[],[],0.416,1,211.314,211.814,,,,,,969,FEM,CON,150,rata,,a,0.416,,211.815,211.815,0.037037037,-0.205555556,0,0,0,,0,42,42,68,1,,,,
,,,,,,ad8dfb2065e431eb6e1f68ad,66a626ef09d4e21e1a8894ec,6734e003e492068df123a5ed,2024-11-13_11h22.04.398,Tarea de género gramatical,2024.2.2,Win32,64.76683938,,,,,,,,,,,,,,,,,,,,,,,211.816,212.93,a,1,[],[],[],[],[],[],[],0.433,1,212.931,213.431,,,,,,1165,FEM,DIS,150,rueda,el,a,0.433,,213.431,213.431,0.037037037,-0.205555556,0,0,0,,0,43,43,264,1,,,,
,,,,,,ad8dfb2065e431eb6e1f68ad,66a626ef09d4e21e1a8894ec,6734e003e492068df123a5ed,2024-11-13_11h22.04.398,Tarea de género gramatical,2024.2.2,Win32,64.76683938,,,,,,,,,,,,,,,,,,,,,,,213.431,214.664,a,1,[],[],[],[],[],[],[],0.572,1,214.665,215.164,,,,,,986,FEM,AGR,150,cruz,la,a,0.572,,215.164,215.164,0.037037037,-0.205555556,0,0,0,,0,44,44,85,1,,,,
,,,,,,ad8dfb2065e431eb6e1f68ad,66a626ef09d4e21e1a8894ec,6734e003e492068df123a5ed,2024-11-13_11h22.04.398,Tarea de género gramatical,2024.2.2,Win32,64.76683938,,,,,,,,,,,,,,,,,,,,,,,215.165,216.231,a,1,[],[],[],[],[],[],[],0.392,1,216.231,216.731,,,,,,1286,FEM,AGR,150,sombra,la,a,0.392,,216.731,216.731,0.037037037,-0.205555556,0,0,0,,0,45,45,385,1,,,,
,,,,,,ad8dfb2065e431eb6e1f68ad,66a626ef09d4e21e1a8894ec,6734e003e492068df123a5ed,2024-11-13_11h22.04.398,Tarea de género gramatical,2024.2.2,Win32,64.76683938,,,,,,,,,,,,,,,,,,,,,,,216.731,217.731,l,1,[],[],[],[],[],[],[],0.317,1,217.731,218.231,,,,,,948,MAS,CON,150,loco,,l,0.317,,218.231,218.231,0.037037037,-0.205555556,0,0,0,,0,46,46,47,1,,,,
,,,,,,ad8dfb2065e431eb6e1f68ad,66a626ef09d4e21e1a8894ec,6734e003e492068df123a5ed,2024-11-13_11h22.04.398,Tarea de género gramatical,2024.2.2,Win32,64.76683938,,,,,,,,,,,,,,,,,,,,,,,218.232,219.248,l,1,[],[],[],[],[],[],[],0.334,1,219.248,219.747,,,,,,1343,MAS,AGR,150,templo,el,l,0.334,,219.747,219.748,0.037037037,-0.205555556,0,0,0,,0,47,47,442,1,,,,
,,,,,,ad8dfb2065e431eb6e1f68ad,66a626ef09d4e21e1a8894ec,6734e003e492068df123a5ed,2024-11-13_11h22.04.398,Tarea de género gramatical,2024.2.2,Win32,64.76683938,,,,,,,,,,,,,,,,,,,,,,,219.749,220.831,l,1,[],[],[],[],[],[],[],0.403,1,220.831,221.331,,,,,,1242,MAS,CON,150,abuelo,,l,0.403,,221.331,221.331,0.037037037,-0.205555556,0,0,0,,0,48,48,341,1,,,,
,,,,,,ad8dfb2065e431eb6e1f68ad,66a626ef09d4e21e1a8894ec,6734e003e492068df123a5ed,2024-11-13_11h22.04.398,Tarea de género gramatical,2024.2.2,Win32,64.76683938,,,,,,,,,,,,,,,,,,,,,,,221.332,222.398,l,1,[],[],[],[],[],[],[],0.401,1,222.398,222.898,,,,,,1301,MAS,AGR,150,abrigo,el,l,0.401,,222.898,222.898,0.037037037,-0.205555556,0,0,0,,0,49,49,400,1,,,,
,,,,,,ad8dfb2065e431eb6e1f68ad,66a626ef09d4e21e1a8894ec,6734e003e492068df123a5ed,2024-11-13_11h22.04.398,Tarea de género gramatical,2024.2.2,Win32,64.76683938,,,,,,,,,,,,,,,,,,,,,,,222.9,223.964,a,1,[],[],[],[],[],[],[],0.39,1,223.964,224.464,,,,,,902,FEM,AGR,150,vida,la,a,0.39,,224.464,224.464,0.037037037,-0.205555556,0,0,0,,0,50,50,1,1,,,,
,,,,,,ad8dfb2065e431eb6e1f68ad,66a626ef09d4e21e1a8894ec,6734e003e492068df123a5ed,2024-11-13_11h22.04.398,Tarea de género gramatical,2024.2.2,Win32,64.76683938,,,,,,,,,,,,,,,,,,,,,,,224.466,225.714,l,0,[],[],[],[],[],[],[],0.573,0,225.715,226.214,,,,,,1111,FEM,DIS,150,salud,el,a,0.573,,226.215,226.216,0.037037037,-0.205555556,0,0,0,,0,51,51,210,1,,,,
,,,,,,ad8dfb2065e431eb6e1f68ad,66a626ef09d4e21e1a8894ec,6734e003e492068df123a5ed,2024-11-13_11h22.04.398,Tarea de género gramatical,2024.2.2,Win32,64.76683938,,,,,,,,,,,,,,,,,,,,,,,226.216,227.697,a,1,[],[],[],[],[],[],[],0.8,1,227.698,228.197,,,,,,1341,FEM,CON,150,medida,,a,0.8,,228.197,228.197,0.037037037,-0.205555556,0,0,0,,0,52,52,440,1,,,,
,,,,,,ad8dfb2065e431eb6e1f68ad,66a626ef09d4e21e1a8894ec,6734e003e492068df123a5ed,2024-11-13_11h22.04.398,Tarea de género gramatical,2024.2.2,Win32,64.76683938,,,,,,,,,,,,,,,,,,,,,,,228.198,229.381,a,1,[],[],[],[],[],[],[],0.52,1,229.381,229.881,,,,,,1185,FEM,CON,150,mafia,,a,0.52,,229.881,229.881,0.037037037,-0.205555556,0,0,0,,0,53,53,284,1,,,,
,,,,,,ad8dfb2065e431eb6e1f68ad,66a626ef09d4e21e1a8894ec,6734e003e492068df123a5ed,2024-11-13_11h22.04.398,Tarea de género gramatical,2024.2.2,Win32,64.76683938,,,,,,,,,,,,,,,,,,,,,,,229.882,230.997,a,1,[],[],[],[],[],[],[],0.433,1,230.997,231.497,,,,,,1113,FEM,CON,150,magia,,a,0.433,,231.497,231.498,0.037037037,-0.205555556,0,0,0,,0,54,54,212,1,,,,
,,,,,,ad8dfb2065e431eb6e1f68ad,66a626ef09d4e21e1a8894ec,6734e003e492068df123a5ed,2024-11-13_11h22.04.398,Tarea de género gramatical,2024.2.2,Win32,64.76683938,,,,,,,,,,,,,,,,,,,,,,,231.498,232.598,a,1,[],[],[],[],[],[],[],0.435,1,232.598,233.097,,,,,,1280,FEM,AGR,150,madera,la,a,0.435,,233.097,233.097,0.037037037,-0.205555556,0,0,0,,0,55,55,379,1,,,,
,,,,,,ad8dfb2065e431eb6e1f68ad,66a626ef09d4e21e1a8894ec,6734e003e492068df123a5ed,2024-11-13_11h22.04.398,Tarea de género gramatical,2024.2.2,Win32,64.76683938,,,,,,,,,,,,,,,,,,,,,,,233.098,234.198,a,1,[],[],[],[],[],[],[],0.435,1,234.198,234.697,,,,,,1334,FEM,AGR,150,corona,la,a,0.435,,234.698,234.698,0.037037037,-0.205555556,0,0,0,,0,56,56,433,1,,,,
,,,,,,ad8dfb2065e431eb6e1f68ad,66a626ef09d4e21e1a8894ec,6734e003e492068df123a5ed,2024-11-13_11h22.04.398,Tarea de género gramatical,2024.2.2,Win32,64.76683938,,,,,,,,,,,,,,,,,,,,,,,234.699,235.881,a,1,[],[],[],[],[],[],[],0.5,1,235.881,236.381,,,,,,1016,FEM,AGR,150,nube,la,a,0.5,,236.381,236.381,0.037037037,-0.205555556,0,0,0,,0,57,57,115,1,,,,
,,,,,,ad8dfb2065e431eb6e1f68ad,66a626ef09d4e21e1a8894ec,6734e003e492068df123a5ed,2024-11-13_11h22.04.398,Tarea de género gramatical,2024.2.2,Win32,64.76683938,,,,,,,,,,,,,,,,,,,,,,,236.382,237.53,l,1,[],[],[],[],[],[],[],0.466,1,237.53,238.031,,,,,,1074,MAS,CON,150,perro,,l,0.466,,238.031,238.031,0.037037037,-0.205555556,0,0,0,,0,58,58,173,1,,,,
,,,,,,ad8dfb2065e431eb6e1f68ad,66a626ef09d4e21e1a8894ec,6734e003e492068df123a5ed,2024-11-13_11h22.04.398,Tarea de género gramatical,2024.2.2,Win32,64.76683938,,,,,,,,,,,,,,,,,,,,,,,238.032,239.431,l,1,[],[],[],[],[],[],[],0.734,1,239.431,239.931,,,,,,1109,MAS,AGR,150,banco,el,l,0.734,,239.931,239.931,0.037037037,-0.205555556,0,0,0,,0,59,59,208,1,,,,
,,,,,,ad8dfb2065e431eb6e1f68ad,66a626ef09d4e21e1a8894ec,6734e003e492068df123a5ed,2024-11-13_11h22.04.398,Tarea de género gramatical,2024.2.2,Win32,64.76683938,,,,,,,,,,,,,,,,,,,,,,,239.932,241.098,l,1,[],[],[],[],[],[],[],0.489,1,241.098,241.598,,,,,,1235,MAS,AGR,150,montón,el,l,0.489,,241.598,241.599,0.037037037,-0.205555556,0,0,0,,0,60,60,334,1,,,,
,,,,,,ad8dfb2065e431eb6e1f68ad,66a626ef09d4e21e1a8894ec,6734e003e492068df123a5ed,2024-11-13_11h22.04.398,Tarea de género gramatical,2024.2.2,Win32,64.76683938,,,,,,,,,,,,,,,,,,,,,,,241.599,242.78,l,1,[],[],[],[],[],[],[],0.501,1,242.781,243.281,,,,,,935,MAS,AGR,150,taxi,el,l,0.501,,243.281,243.281,0.037037037,-0.205555556,0,0,0,,0,61,61,34,1,,,,
,,,,,,ad8dfb2065e431eb6e1f68ad,66a626ef09d4e21e1a8894ec,6734e003e492068df123a5ed,2024-11-13_11h22.04.398,Tarea de género gramatical,2024.2.2,Win32,64.76683938,,,,,,,,,,,,,,,,,,,,,,,243.281,244.397,a,1,[],[],[],[],[],[],[],0.455,1,244.397,244.897,,,,,,1160,FEM,AGR,150,barra,la,a,0.455,,244.897,244.898,0.037037037,-0.205555556,0,0,0,,0,62,62,259,1,,,,
,,,,,,ad8dfb2065e431eb6e1f68ad,66a626ef09d4e21e1a8894ec,6734e003e492068df123a5ed,2024-11-13_11h22.04.398,Tarea de género gramatical,2024.2.2,Win32,64.76683938,,,,,,,,,,,,,,,,,,,,,,,244.898,245.998,l,1,[],[],[],[],[],[],[],0.417,1,245.998,246.498,,,,,,1085,MAS,AGR,150,sueño,el,l,0.417,,246.498,246.498,0.037037037,-0.205555556,0,0,0,,0,63,63,184,1,,,,
,,,,,,ad8dfb2065e431eb6e1f68ad,66a626ef09d4e21e1a8894ec,6734e003e492068df123a5ed,2024-11-13_11h22.04.398,Tarea de género gramatical,2024.2.2,Win32,64.76683938,,,,,,,,,,,,,,,,,,,,,,,246.499,247.73,l,1,[],[],[],[],[],[],[],0.551,1,247.731,248.231,,,,,,1205,MAS,AGR,150,hombre,el,l,0.551,,248.231,248.231,0.037037037,-0.205555556,0,0,0,,0,64,64,304,1,,,,
,,,,,,ad8dfb2065e431eb6e1f68ad,66a626ef09d4e21e1a8894ec,6734e003e492068df123a5ed,2024-11-13_11h22.04.398,Tarea de género gramatical,2024.2.2,Win32,64.76683938,,,,,,,,,,,,,,,,,,,,,,,248.231,249.247,a,1,[],[],[],[],[],[],[],0.333,1,249.247,249.748,,,,,,957,FEM,CON,150,moda,,a,0.333,,249.748,249.749,0.037037037,-0.205555556,0,0,0,,0,65,65,56,1,,,,
,,,,,,ad8dfb2065e431eb6e1f68ad,66a626ef09d4e21e1a8894ec,6734e003e492068df123a5ed,2024-11-13_11h22.04.398,Tarea de género gramatical,2024.2.2,Win32,64.76683938,,,,,,,,,,,,,,,,,,,,,,,249.749,250.831,l,1,[],[],[],[],[],[],[],0.4,1,250.832,251.331,,,,,,1188,MAS,CON,150,grado,,l,0.4,,251.331,251.331,0.037037037,-0.205555556,0,0,0,,0,66,66,287,1,,,,
,,,,,,ad8dfb2065e431eb6e1f68ad,66a626ef09d4e21e1a8894ec,6734e003e492068df123a5ed,2024-11-13_11h22.04.398,Tarea de género gramatical,2024.2.2,Win32,64.76683938,,,,,,,,,,,,,,,,,,,,,,,251.332,252.381,a,1,[],[],[],[],[],[],[],0.367,1,252.381,252.881,,,,,,998,FEM,AGR,150,fuga,la,a,0.367,,252.881,252.881,0.037037037,-0.205555556,0,0,0,,0,67,67,97,1,,,,
,,,,,,ad8dfb2065e431eb6e1f68ad,66a626ef09d4e21e1a8894ec,6734e003e492068df123a5ed,2024-11-13_11h22.04.398,Tarea de género gramatical,2024.2.2,Win32,64.76683938,,,,,,,,,,,,,,,,,,,,,,,252.882,253.997,l,1,[],[],[],[],[],[],[],0.439,1,253.997,254.498,,,,,,1216,MAS,DIS,150,cuerpo,la,l,0.439,,254.498,254.498,0.037037037,-0.205555556,0,0,0,,0,68,68,315,1,,,,
,,,,,,ad8dfb2065e431eb6e1f68ad,66a626ef09d4e21e1a8894ec,6734e003e492068df123a5ed,2024-11-13_11h22.04.398,Tarea de género gramatical,2024.2.2,Win32,64.76683938,,,,,,,,,,,,,,,,,,,,,,,254.498,255.615,a,1,[],[],[],[],[],[],[],0.441,1,255.616,256.115,,,,,,1028,FEM,AGR,150,leña,la,a,0.441,,256.116,256.117,0.037037037,-0.205555556,0,0,0,,0,69,69,127,1,,,,
,,,,,,ad8dfb2065e431eb6e1f68ad,66a626ef09d4e21e1a8894ec,6734e003e492068df123a5ed,2024-11-13_11h22.04.398,Tarea de género gramatical,2024.2.2,Win32,64.76683938,,,,,,,,,,,,,,,,,,,,,,,256.117,257.631,l,1,[],[],[],[],[],[],[],0.833,1,257.631,258.131,,,,,,1246,MAS,DIS,150,juicio,la,l,0.833,,258.131,258.131,0.037037037,-0.205555556,0,0,0,,0,70,70,345,1,,,,
,,,,,,ad8dfb2065e431eb6e1f68ad,66a626ef09d4e21e1a8894ec,6734e003e492068df123a5ed,2024-11-13_11h22.04.398,Tarea de género gramatical,2024.2.2,Win32,64.76683938,,,,,,,,,,,,,,,,,,,,,,,258.131,259.481,l,1,[],[],[],[],[],[],[],0.669,1,259.481,259.981,,,,,,1026,MAS,CON,150,lazo,,l,0.669,,259.981,259.981,0.037037037,-0.205555556,0,0,0,,0,71,71,125,1,,,,
,,,,,,ad8dfb2065e431eb6e1f68ad,66a626ef09d4e21e1a8894ec,6734e003e492068df123a5ed,2024-11-13_11h22.04.398,Tarea de género gramatical,2024.2.2,Win32,64.76683938,,,,,,,,,,,,,,,,,,,,,,,259.983,261.464,a,0,[],[],[],[],[],[],[],0.799,0,261.465,261.964,,,,,,1090,MAS,DIS,150,campo,la,l,0.799,,261.964,261.965,0.037037037,-0.205555556,0,0,0,,0,72,72,189,1,,,,
,,,,,,ad8dfb2065e431eb6e1f68ad,66a626ef09d4e21e1a8894ec,6734e003e492068df123a5ed,2024-11-13_11h22.04.398,Tarea de género gramatical,2024.2.2,Win32,64.76683938,,,,,,,,,,,,,,,,,,,,,,,261.966,263.232,a,1,[],[],[],[],[],[],[],0.586,1,263.232,263.73,,,,,,1226,FEM,AGR,150,música,la,a,0.586,,263.73,263.73,0.037037037,-0.205555556,0,0,0,,0,73,73,325,1,,,,
,,,,,,ad8dfb2065e431eb6e1f68ad,66a626ef09d4e21e1a8894ec,6734e003e492068df123a5ed,2024-11-13_11h22.04.398,Tarea de género gramatical,2024.2.2,Win32,64.76683938,,,,,,,,,,,,,,,,,,,,,,,263.732,265.064,a,1,[],[],[],[],[],[],[],0.672,1,265.064,265.564,,,,,,1333,FEM,DIS,150,huella,el,a,0.672,,265.565,265.566,0.037037037,-0.205555556,0,0,0,,0,74,74,432,1,,,,
,,,,,,ad8dfb2065e431eb6e1f68ad,66a626ef09d4e21e1a8894ec,6734e003e492068df123a5ed,2024-11-13_11h22.04.398,Tarea de género gramatical,2024.2.2,Win32,64.76683938,,,,,,,,,,,,,,,,,,,,,,,265.566,266.697,a,1,[],[],[],[],[],[],[],0.449,1,266.697,267.197,,,,,,1321,FEM,DIS,150,novela,el,a,0.449,,267.197,267.197,0.037037037,-0.205555556,0,0,0,,0,75,75,420,1,,,,
,,,,,,ad8dfb2065e431eb6e1f68ad,66a626ef09d4e21e1a8894ec,6734e003e492068df123a5ed,2024-11-13_11h22.04.398,Tarea de género gramatical,2024.2.2,Win32,64.76683938,,,,,,,,,,,,,,,,,,,,,,,267.198,268.531,l,1,[],[],[],[],[],[],[],0.675,1,268.531,269.031,,,,,,1038,MAS,CON,150,luto,,l,0.675,,269.031,269.031,0.037037037,-0.205555556,0,0,0,,0,76,76,137,1,,,,
,,,,,,ad8dfb2065e431eb6e1f68ad,66a626ef09d4e21e1a8894ec,6734e003e492068df123a5ed,2024-11-13_11h22.04.398,Tarea de género gramatical,2024.2.2,Win32,64.76683938,,,,,,,,,,,,,,,,,,,,,,,269.032,270.18,a,1,[],[],[],[],[],[],[],0.489,1,270.18,270.681,,,,,,901,FEM,DIS,150,casa,el,a,0.489,,270.681,270.681,0.037037037,-0.205555556,0,0,0,,0,77,77,0,1,,,,
,,,,,,ad8dfb2065e431eb6e1f68ad,66a626ef09d4e21e1a8894ec,6734e003e492068df123a5ed,2024-11-13_11h22.04.398,Tarea de género gramatical,2024.2.2,Win32,64.76683938,,,,,,,,,,,,,,,,,,,,,,,270.682,272.314,a,1,[],[],[],[],[],[],[],0.95,1,272.315,272.814,,,,,,1249,FEM,DIS,150,prensa,el,a,0.95,,272.815,272.815,0.037037037,-0.205555556,0,0,0,,0,78,78,348,1,,,,
,,,,,,ad8dfb2065e431eb6e1f68ad,66a626ef09d4e21e1a8894ec,6734e003e492068df123a5ed,2024-11-13_11h22.04.398,Tarea de género gramatical,2024.2.2,Win32,64.76683938,,,,,,,,,,,,,,,,,,,,,,,272.816,273.964,l,1,[],[],[],[],[],[],[],0.474,1,273.964,274.465,,,,,,1254,MAS,CON,150,camión,,l,0.474,,274.465,274.465,0.037037037,-0.205555556,0,0,0,,0,79,79,353,1,,,,
,,,,,,ad8dfb2065e431eb6e1f68ad,66a626ef09d4e21e1a8894ec,6734e003e492068df123a5ed,2024-11-13_11h22.04.398,Tarea de género gramatical,2024.2.2,Win32,64.76683938,,,,,,,,,,,,,,,,,,,,,,,274.466,275.781,l,1,[],[],[],[],[],[],[],0.641,1,275.782,276.28,,,,,,1043,MAS,AGR,150,faro,el,l,0.641,,276.28,276.281,0.037037037,-0.205555556,0,0,0,,0,80,80,142,1,,,,
,,,,,,ad8dfb2065e431eb6e1f68ad,66a626ef09d4e21e1a8894ec,6734e003e492068df123a5ed,2024-11-13_11h22.04.398,Tarea de género gramatical,2024.2.2,Win32,64.76683938,,,,,,,,,,,,,,,,,,,,,,,276.282,277.664,a,1,[],[],[],[],[],[],[],0.701,1,277.664,278.164,,,,,,1035,FEM,CON,150,raíz,,a,0.701,,278.164,278.164,0.037037037,-0.205555556,0,0,0,,0,81,81,134,1,,,,
,,,,,,ad8dfb2065e431eb6e1f68ad,66a626ef09d4e21e1a8894ec,6734e003e492068df123a5ed,2024-11-13_11h22.04.398,Tarea de género gramatical,2024.2.2,Win32,64.76683938,,,,,,,,,,,,,,,,,,,,,,,278.165,279.581,l,1,[],[],[],[],[],[],[],0.737,1,279.581,280.08,,,,,,1102,MAS,DIS,150,honor,la,l,0.737,,280.08,280.081,0.037037037,-0.205555556,0,0,0,,0,82,82,201,1,,,,
,,,,,,ad8dfb2065e431eb6e1f68ad,66a626ef09d4e21e1a8894ec,6734e003e492068df123a5ed,2024-11-13_11h22.04.398,Tarea de género gramatical,2024.2.2,Win32,64.76683938,,,,,,,,,,,,,,,,,,,,,,,280.081,281.281,a,1,[],[],[],[],[],[],[],0.516,1,281.282,281.781,,,,,,1316,FEM,AGR,150,colina,la,a,0.516,,281.782,281.782,0.037037037,-0.205555556,0,0,0,,0,83,83,415,1,,,,
,,,,,,ad8dfb2065e431eb6e1f68ad,66a626ef09d4e21e1a8894ec,6734e003e492068df123a5ed,2024-11-13_11h22.04.398,Tarea de género gramatical,2024.2.2,Win32,64.76683938,,,,,,,,,,,,,,,,,,,,,,,281.783,283.197,l,0,[],[],[],[],[],[],[],0.738,0,283.198,283.698,,,,,,1219,FEM,DIS,150,sangre,el,a,0.738,,283.698,283.698,0.037037037,-0.205555556,0,0,0,,0,84,84,318,1,,,,
,,,,,,ad8dfb2065e431eb6e1f68ad,66a626ef09d4e21e1a8894ec,6734e003e492068df123a5ed,2024-11-13_11h22.04.398,Tarea de género gramatical,2024.2.2,Win32,64.76683938,,,,,,,,,,,,,,,,,,,,,,,283.698,285.481,a,1,[],[],[],[],[],[],[],1.102,1,285.482,285.981,,,,,,1203,FEM,CON,150,maldad,,a,1.102,,285.981,285.981,0.037037037,-0.205555556,0,0,0,,0,85,85,302,1,,,,
,,,,,,ad8dfb2065e431eb6e1f68ad,66a626ef09d4e21e1a8894ec,6734e003e492068df123a5ed,2024-11-13_11h22.04.398,Tarea de género gramatical,2024.2.2,Win32,64.76683938,,,,,,,,,,,,,,,,,,,,,,,285.981,287.448,a,1,[],[],[],[],[],[],[],0.801,1,287.448,287.947,,,,,,1141,FEM,DIS,150,pasta,el,a,0.801,,287.947,287.947,0.037037037,-0.205555556,0,0,0,,0,86,86,240,1,,,,
,,,,,,ad8dfb2065e431eb6e1f68ad,66a626ef09d4e21e1a8894ec,6734e003e492068df123a5ed,2024-11-13_11h22.04.398,Tarea de género gramatical,2024.2.2,Win32,64.76683938,,,,,,,,,,,,,,,,,,,,,,,287.948,289.414,l,1,[],[],[],[],[],[],[],0.783,1,289.415,289.915,,,,,,1000,MAS,DIS,150,nido,la,l,0.783,,289.915,289.916,0.037037037,-0.205555556,0,0,0,,0,87,87,99,1,,,,
,,,,,,ad8dfb2065e431eb6e1f68ad,66a626ef09d4e21e1a8894ec,6734e003e492068df123a5ed,2024-11-13_11h22.04.398,Tarea de género gramatical,2024.2.2,Win32,64.76683938,,,,,,,,,,,,,,,,,,,,,,,289.917,291.281,a,1,[],[],[],[],[],[],[],0.683,1,291.281,291.781,,,,,,1177,FEM,DIS,150,plaza,el,a,0.683,,291.781,291.781,0.037037037,-0.205555556,0,0,0,,0,88,88,276,1,,,,
,,,,,,ad8dfb2065e431eb6e1f68ad,66a626ef09d4e21e1a8894ec,6734e003e492068df123a5ed,2024-11-13_11h22.04.398,Tarea de género gramatical,2024.2.2,Win32,64.76683938,,,,,,,,,,,,,,,,,,,,,,,291.782,292.981,l,1,[],[],[],[],[],[],[],0.518,1,292.981,293.481,,,,,,1067,MAS,AGR,150,juego,el,l,0.518,,293.481,293.481,0.037037037,-0.205555556,0,0,0,,0,89,89,166,1,,,,
,,,,,,ad8dfb2065e431eb6e1f68ad,66a626ef09d4e21e1a8894ec,6734e003e492068df123a5ed,2024-11-13_11h22.04.398,Tarea de género gramatical,2024.2.2,Win32,64.76683938,,,,,,,,,,,,,,,,,,,,,,,293.482,294.581,a,1,[],[],[],[],[],[],[],0.435,1,294.581,295.081,,,,,,1214,FEM,AGR,150,señora,la,a,0.435,,295.081,295.081,0.037037037,-0.205555556,0,0,0,,0,90,90,313,1,,,,
,,,,,,ad8dfb2065e431eb6e1f68ad,66a626ef09d4e21e1a8894ec,6734e003e492068df123a5ed,2024-11-13_11h22.04.398,Tarea de género gramatical,2024.2.2,Win32,64.76683938,,,,,,,,,,,,,,,,,,,,,,,295.082,296.298,l,1,[],[],[],[],[],[],[],0.533,1,296.298,296.797,,,,,,1127,MAS,AGR,150,vuelo,el,l,0.533,,296.798,296.798,0.037037037,-0.205555556,0,0,0,,0,91,91,226,1,,,,
,,,,,,ad8dfb2065e431eb6e1f68ad,66a626ef09d4e21e1a8894ec,6734e003e492068df123a5ed,2024-11-13_11h22.04.398,Tarea de género gramatical,2024.2.2,Win32,64.76683938,,,,,,,,,,,,,,,,,,,,,,,296.798,297.947,a,1,[],[],[],[],[],[],[],0.484,1,297.948,298.447,,,,,,1238,FEM,AGR,150,abuela,la,a,0.484,,298.448,298.449,0.037037037,-0.205555556,0,0,0,,0,92,92,337,1,,,,
,,,,,,ad8dfb2065e431eb6e1f68ad,66a626ef09d4e21e1a8894ec,6734e003e492068df123a5ed,2024-11-13_11h22.04.398,Tarea de género gramatical,2024.2.2,Win32,64.76683938,,,,,,,,,,,,,,,,,,,,,,,298.449,299.681,l,1,[],[],[],[],[],[],[],0.554,1,299.681,300.181,,,,,,1259,MAS,AGR,150,bosque,el,l,0.554,,300.181,300.181,0.037037037,-0.205555556,0,0,0,,0,93,93,358,1,,,,
,,,,,,ad8dfb2065e431eb6e1f68ad,66a626ef09d4e21e1a8894ec,6734e003e492068df123a5ed,2024-11-13_11h22.04.398,Tarea de género gramatical,2024.2.2,Win32,64.76683938,,,,,,,,,,,,,,,,,,,,,,,300.182,301.647,l,1,[],[],[],[],[],[],[],0.784,1,301.648,302.148,,,,,,1277,MAS,AGR,150,jardín,el,l,0.784,,302.148,302.148,0.037037037,-0.205555556,0,0,0,,0,94,94,376,1,,,,
,,,,,,ad8dfb2065e431eb6e1f68ad,66a626ef09d4e21e1a8894ec,6734e003e492068df123a5ed,2024-11-13_11h22.04.398,Tarea de género gramatical,2024.2.2,Win32,64.76683938,,,,,,,,,,,,,,,,,,,,,,,302.149,303.298,l,1,[],[],[],[],[],[],[],0.467,1,303.298,303.797,,,,,,1212,MAS,CON,150,equipo,,l,0.467,,303.797,303.798,0.037037037,-0.205555556,0,0,0,,0,95,95,311,1,,,,
,,,,,,ad8dfb2065e431eb6e1f68ad,66a626ef09d4e21e1a8894ec,6734e003e492068df123a5ed,2024-11-13_11h22.04.398,Tarea de género gramatical,2024.2.2,Win32,64.76683938,,,,,,,,,,,,,,,,,,,,,,,303.798,304.881,a,1,[],[],[],[],[],[],[],0.407,1,304.881,305.381,,,,,,1046,FEM,AGR,150,lana,la,a,0.407,,305.382,305.383,0.037037037,-0.205555556,0,0,0,,0,96,96,145,1,,,,
,,,,,,ad8dfb2065e431eb6e1f68ad,66a626ef09d4e21e1a8894ec,6734e003e492068df123a5ed,2024-11-13_11h22.04.398,Tarea de género gramatical,2024.2.2,Win32,64.76683938,,,,,,,,,,,,,,,,,,,,,,,305.383,306.514,a,1,[],[],[],[],[],[],[],0.45,1,306.514,307.014,,,,,,1220,FEM,AGR,150,fiesta,la,a,0.45,,307.014,307.014,0.037037037,-0.205555556,0,0,0,,0,97,97,319,1,,,,
,,,,,,ad8dfb2065e431eb6e1f68ad,66a626ef09d4e21e1a8894ec,6734e003e492068df123a5ed,2024-11-13_11h22.04.398,Tarea de género gramatical,2024.2.2,Win32,64.76683938,,,,,,,,,,,,,,,,,,,,,,,307.015,308.081,l,1,[],[],[],[],[],[],[],0.4,1,308.081,308.581,,,,,,1049,MAS,AGR,150,nudo,el,l,0.4,,308.581,308.581,0.037037037,-0.205555556,0,0,0,,0,98,98,148,1,,,,
,,,,,,ad8dfb2065e431eb6e1f68ad,66a626ef09d4e21e1a8894ec,6734e003e492068df123a5ed,2024-11-13_11h22.04.398,Tarea de género gramatical,2024.2.2,Win32,64.76683938,,,,,,,,,,,,,,,,,,,,,,,308.582,309.864,l,1,[],[],[],[],[],[],[],0.601,1,309.865,310.364,,,,,,1198,MAS,DIS,150,botón,la,l,0.601,,310.364,310.364,0.037037037,-0.205555556,0,0,0,,0,99,99,297,1,,,,
,,,,,,ad8dfb2065e431eb6e1f68ad,66a626ef09d4e21e1a8894ec,6734e003e492068df123a5ed,2024-11-13_11h22.04.398,Tarea de género gramatical,2024.2.2,Win32,64.76683938,,,,,,,,,,,,,,,,,,,,,,,310.365,311.481,a,1,[],[],[],[],[],[],[],0.45,1,311.481,311.981,,,,,,1269,FEM,CON,150,camisa,,a,0.45,,311.981,311.981,0.037037037,-0.205555556,0,0,0,,0,100,100,368,1,,,,
,,,,,,ad8dfb2065e431eb6e1f68ad,66a626ef09d4e21e1a8894ec,6734e003e492068df123a5ed,2024-11-13_11h22.04.398,Tarea de género gramatical,2024.2.2,Win32,64.76683938,,,,,,,,,,,,,,,,,,,,,,,311.982,313.314,a,1,[],[],[],[],[],[],[],0.671,1,313.314,313.814,,,,,,981,FEM,CON,150,cima,,a,0.671,,313.815,313.815,0.037037037,-0.205555556,0,0,0,,0,101,101,80,1,,,,
,,,,,,ad8dfb2065e431eb6e1f68ad,66a626ef09d4e21e1a8894ec,6734e003e492068df123a5ed,2024-11-13_11h22.04.398,Tarea de género gramatical,2024.2.2,Win32,64.76683938,,,,,,,,,,,,,,,,,,,,,,,313.816,314.914,a,1,[],[],[],[],[],[],[],0.422,1,314.914,315.414,,,,,,1021,FEM,DIS,150,pila,el,a,0.422,,315.414,315.414,0.037037037,-0.205555556,0,0,0,,0,102,102,120,1,,,,
,,,,,,ad8dfb2065e431eb6e1f68ad,66a626ef09d4e21e1a8894ec,6734e003e492068df123a5ed,2024-11-13_11h22.04.398,Tarea de género gramatical,2024.2.2,Win32,64.76683938,,,,,,,,,,,,,,,,,,,,,,,315.415,316.614,l,1,[],[],[],[],[],[],[],0.523,1,316.614,317.114,,,,,,1271,MAS,AGR,150,sonido,el,l,0.523,,317.114,317.114,0.037037037,-0.205555556,0,0,0,,0,103,103,370,1,,,,
,,,,,,ad8dfb2065e431eb6e1f68ad,66a626ef09d4e21e1a8894ec,6734e003e492068df123a5ed,2024-11-13_11h22.04.398,Tarea de género gramatical,2024.2.2,Win32,64.76683938,,,,,,,,,,,,,,,,,,,,,,,317.115,318.548,a,0,[],[],[],[],[],[],[],0.751,0,318.549,319.048,,,,,,1054,MAS,DIS,150,padre,la,l,0.751,,319.048,319.048,0.037037037,-0.205555556,0,0,0,,0,104,104,153,1,,,,
,,,,,,ad8dfb2065e431eb6e1f68ad,66a626ef09d4e21e1a8894ec,6734e003e492068df123a5ed,2024-11-13_11h22.04.398,Tarea de género gramatical,2024.2.2,Win32,64.76683938,,,,,,,,,,,,,,,,,,,,,,,319.049,320.231,a,1,[],[],[],[],[],[],[],0.52,1,320.231,320.73,,,,,,921,FEM,CON,150,boca,,a,0.52,,320.731,320.732,0.037037037,-0.205555556,0,0,0,,0,105,105,20,1,,,,
,,,,,,ad8dfb2065e431eb6e1f68ad,66a626ef09d4e21e1a8894ec,6734e003e492068df123a5ed,2024-11-13_11h22.04.398,Tarea de género gramatical,2024.2.2,Win32,64.76683938,,,,,,,,,,,,,,,,,,,,,,,320.732,322.365,l,1,[],[],[],[],[],[],[],0.959,1,322.366,322.865,,,,,,1324,MAS,DIS,150,rastro,la,l,0.959,,322.865,322.865,0.037037037,-0.205555556,0,0,0,,0,106,106,423,1,,,,
,,,,,,ad8dfb2065e431eb6e1f68ad,66a626ef09d4e21e1a8894ec,6734e003e492068df123a5ed,2024-11-13_11h22.04.398,Tarea de género gramatical,2024.2.2,Win32,64.76683938,,,,,,,,,,,,,,,,,,,,,,,322.868,324.031,a,1,[],[],[],[],[],[],[],0.483,1,324.031,324.531,,,,,,950,FEM,AGR,150,dama,la,a,0.483,,324.531,324.531,0.037037037,-0.205555556,0,0,0,,0,107,107,49,1,,,,
,,,,,,ad8dfb2065e431eb6e1f68ad,66a626ef09d4e21e1a8894ec,6734e003e492068df123a5ed,2024-11-13_11h22.04.398,Tarea de género gramatical,2024.2.2,Win32,64.76683938,,,,,,,,,,,,,,,,,,,,,,,324.532,325.781,a,1,[],[],[],[],[],[],[],0.569,1,325.781,326.281,,,,,,1015,FEM,DIS,150,seda,el,a,0.569,,326.281,326.281,0.037037037,-0.205555556,0,0,0,,0,108,108,114,1,,,,
,,,,,,ad8dfb2065e431eb6e1f68ad,66a626ef09d4e21e1a8894ec,6734e003e492068df123a5ed,2024-11-13_11h22.04.398,Tarea de género gramatical,2024.2.2,Win32,64.76683938,,,,,,,,,,,,,,,,,,,,,,,326.283,327.564,l,1,[],[],[],[],[],[],[],0.601,1,327.564,328.065,,,,,,1162,MAS,DIS,150,video,la,l,0.601,,328.065,328.065,0.037037037,-0.205555556,0,0,0,,0,109,109,261,1,,,,
,,,,,,ad8dfb2065e431eb6e1f68ad,66a626ef09d4e21e1a8894ec,6734e003e492068df123a5ed,2024-11-13_11h22.04.398,Tarea de género gramatical,2024.2.2,Win32,64.76683938,,,,,,,,,,,,,,,,,,,,,,,328.066,329.414,a,1,[],[],[],[],[],[],[],0.67,1,329.414,329.914,,,,,,1011,FEM,CON,150,goma,,a,0.67,,329.915,329.916,0.037037037,-0.205555556,0,0,0,,0,110,110,110,1,,,,
,,,,,,ad8dfb2065e431eb6e1f68ad,66a626ef09d4e21e1a8894ec,6734e003e492068df123a5ed,2024-11-13_11h22.04.398,Tarea de género gramatical,2024.2.2,Win32,64.76683938,,,,,,,,,,,,,,,,,,,,,,,329.917,331.064,a,1,[],[],[],[],[],[],[],0.471,1,331.065,331.564,,,,,,1112,FEM,AGR,150,cinta,la,a,0.471,,331.564,331.564,0.037037037,-0.205555556,0,0,0,,0,111,111,211,1,,,,
,,,,,,ad8dfb2065e431eb6e1f68ad,66a626ef09d4e21e1a8894ec,6734e003e492068df123a5ed,2024-11-13_11h22.04.398,Tarea de género gramatical,2024.2.2,Win32,64.76683938,,,,,,,,,,,,,,,,,,,,,,,331.565,332.648,l,1,[],[],[],[],[],[],[],0.4,1,332.648,333.147,,,,,,960,MAS,CON,150,tono,,l,0.4,,333.147,333.147,0.037037037,-0.205555556,0,0,0,,0,112,112,59,1,,,,
,,,,,,ad8dfb2065e431eb6e1f68ad,66a626ef09d4e21e1a8894ec,6734e003e492068df123a5ed,2024-11-13_11h22.04.398,Tarea de género gramatical,2024.2.2,Win32,64.76683938,,,,,,,,,,,,,,,,,,,,,,,333.148,334.464,l,1,[],[],[],[],[],[],[],0.636,1,334.465,334.964,,,,,,1217,MAS,AGR,150,número,el,l,0.636,,334.965,334.965,0.037037037,-0.205555556,0,0,0,,0,113,113,316,1,,,,
,,,,,,ad8dfb2065e431eb6e1f68ad,66a626ef09d4e21e1a8894ec,6734e003e492068df123a5ed,2024-11-13_11h22.04.398,Tarea de género gramatical,2024.2.2,Win32,64.76683938,,,,,,,,,,,,,,,,,,,,,,,334.966,336.247,l,1,[],[],[],[],[],[],[],0.599,1,336.247,336.747,,,,,,1252,MAS,DIS,150,estilo,la,l,0.599,,336.748,336.749,0.037037037,-0.205555556,0,0,0,,0,114,114,351,1,,,,
,,,,,,ad8dfb2065e431eb6e1f68ad,66a626ef09d4e21e1a8894ec,6734e003e492068df123a5ed,2024-11-13_11h22.04.398,Tarea de género gramatical,2024.2.2,Win32,64.76683938,,,,,,,,,,,,,,,,,,,,,,,336.749,338.031,l,1,[],[],[],[],[],[],[],0.601,1,338.031,338.531,,,,,,958,MAS,DIS,150,mono,la,l,0.601,,338.531,338.531,0.037037037,-0.205555556,0,0,0,,0,115,115,57,1,,,,
,,,,,,ad8dfb2065e431eb6e1f68ad,66a626ef09d4e21e1a8894ec,6734e003e492068df123a5ed,2024-11-13_11h22.04.398,Tarea de género gramatical,2024.2.2,Win32,64.76683938,,,,,,,,,,,,,,,,,,,,,,,338.532,339.597,a,1,[],[],[],[],[],[],[],0.384,1,339.598,340.097,,,,,,931,FEM,DIS,150,edad,el,a,0.384,,340.097,340.097,0.037037037,-0.205555556,0,0,0,,0,116,116,30,1,,,,
,,,,,,ad8dfb2065e431eb6e1f68ad,66a626ef09d4e21e1a8894ec,6734e003e492068df123a5ed,2024-11-13_11h22.04.398,Tarea de género gramatical,2024.2.2,Win32,64.76683938,,,,,,,,,,,,,,,,,,,,,,,340.098,341.231,a,0,[],[],[],[],[],[],[],0.45,0,341.231,341.731,,,,,,1007,MAS,AGR,150,cubo,el,l,0.45,,341.731,341.731,0.037037037,-0.205555556,0,0,0,,0,117,117,106,1,,,,
,,,,,,ad8dfb2065e431eb6e1f68ad,66a626ef09d4e21e1a8894ec,6734e003e492068df123a5ed,2024-11-13_11h22.04.398,Tarea de género gramatical,2024.2.2,Win32,64.76683938,,,,,,,,,,,,,,,,,,,,,,,341.732,343.031,a,1,[],[],[],[],[],[],[],0.619,1,343.031,343.531,,,,,,1081,FEM,DIS,150,tarde,el,a,0.619,,343.531,343.531,0.037037037,-0.205555556,0,0,0,,0,118,118,180,1,,,,
,,,,,,ad8dfb2065e431eb6e1f68ad,66a626ef09d4e21e1a8894ec,6734e003e492068df123a5ed,2024-11-13_11h22.04.398,Tarea de género gramatical,2024.2.2,Win32,64.76683938,,,,,,,,,,,,,,,,,,,,,,,343.532,344.865,l,1,[],[],[],[],[],[],[],0.675,1,344.865,345.364,,,,,,1030,MAS,DIS,150,yate,la,l,0.675,,345.365,345.365,0.037037037,-0.205555556,0,0,0,,0,119,119,129,1,,,,
,,,,,,ad8dfb2065e431eb6e1f68ad,66a626ef09d4e21e1a8894ec,6734e003e492068df123a5ed,2024-11-13_11h22.04.398,Tarea de género gramatical,2024.2.2,Win32,64.76683938,,,,,,,,,,,,,,,,,,,,,,,345.366,346.465,l,1,[],[],[],[],[],[],[],0.421,1,346.465,346.964,,,,,,984,MAS,CON,150,mago,,l,0.421,,346.964,346.964,0.037037037,-0.205555556,0,0,0,,0,120,120,83,1,,,,
,,,,,,ad8dfb2065e431eb6e1f68ad,66a626ef09d4e21e1a8894ec,6734e003e492068df123a5ed,2024-11-13_11h22.04.398,Tarea de género gramatical,2024.2.2,Win32,64.76683938,,,,,,,,,,,,,,,,,,,,,,,346.965,348.031,a,1,[],[],[],[],[],[],[],0.385,1,348.031,348.531,,,,,,1335,FEM,CON,150,niebla,,a,0.385,,348.531,348.532,0.037037037,-0.205555556,0,0,0,,0,121,121,434,1,,,,
,,,,,,ad8dfb2065e431eb6e1f68ad,66a626ef09d4e21e1a8894ec,6734e003e492068df123a5ed,2024-11-13_11h22.04.398,Tarea de género gramatical,2024.2.2,Win32,64.76683938,,,,,,,,,,,,,,,,,,,,,,,348.532,350.064,a,1,[],[],[],[],[],[],[],0.856,1,350.064,350.564,,,,,,1125,FEM,CON,150,pieza,,a,0.856,,350.565,350.565,0.037037037,-0.205555556,0,0,0,,0,122,122,224,1,,,,
,,,,,,ad8dfb2065e431eb6e1f68ad,66a626ef09d4e21e1a8894ec,6734e003e492068df123a5ed,2024-11-13_11h22.04.398,Tarea de género gramatical,2024.2.2,Win32,64.76683938,,,,,,,,,,,,,,,,,,,,,,,350.565,351.731,l,1,[],[],[],[],[],[],[],0.484,1,351.732,352.231,,,,,,966,MAS,CON,150,muro,,l,0.484,,352.231,352.232,0.037037037,-0.205555556,0,0,0,,0,123,123,65,1,,,,
,,,,,,ad8dfb2065e431eb6e1f68ad,66a626ef09d4e21e1a8894ec,6734e003e492068df123a5ed,2024-11-13_11h22.04.398,Tarea de género gramatical,2024.2.2,Win32,64.76683938,,,,,,,,,,,,,,,,,,,,,,,352.233,353.398,l,1,[],[],[],[],[],[],[],0.484,1,353.398,353.897,,,,,,1349,MAS,AGR,150,payaso,el,l,0.484,,353.897,353.898,0.037037037,-0.205555556,0,0,0,,0,124,124,448,1,,,,
,,,,,,ad8dfb2065e431eb6e1f68ad,66a626ef09d4e21e1a8894ec,6734e003e492068df123a5ed,2024-11-13_11h22.04.398,Tarea de género gramatical,2024.2.2,Win32,64.76683938,,,,,,,,,,,,,,,,,,,,,,,353.898,355.165,a,1,[],[],[],[],[],[],[],0.583,1,355.166,355.664,,,,,,1064,FEM,AGR,150,novia,la,a,0.583,,355.665,355.665,0.037037037,-0.205555556,0,0,0,,0,125,125,163,1,,,,
,,,,,,ad8dfb2065e431eb6e1f68ad,66a626ef09d4e21e1a8894ec,6734e003e492068df123a5ed,2024-11-13_11h22.04.398,Tarea de género gramatical,2024.2.2,Win32,64.76683938,,,,,,,,,,,,,,,,,,,,,,,355.668,356.881,l,1,[],[],[],[],[],[],[],0.538,1,356.881,357.381,,,,,,1128,MAS,CON,150,nivel,,l,0.538,,357.381,357.381,0.037037037,-0.205555556,0,0,0,,0,126,126,227,1,,,,
,,,,,,ad8dfb2065e431eb6e1f68ad,66a626ef09d4e21e1a8894ec,6734e003e492068df123a5ed,2024-11-13_11h22.04.398,Tarea de género gramatical,2024.2.2,Win32,64.76683938,,,,,,,,,,,,,,,,,,,,,,,357.382,358.565,l,1,[],[],[],[],[],[],[],0.504,1,358.565,359.065,,,,,,934,MAS,DIS,150,gato,la,l,0.504,,359.065,359.065,0.037037037,-0.205555556,0,0,0,,0,127,127,33,1,,,,
,,,,,,ad8dfb2065e431eb6e1f68ad,66a626ef09d4e21e1a8894ec,6734e003e492068df123a5ed,2024-11-13_11h22.04.398,Tarea de género gramatical,2024.2.2,Win32,64.76683938,,,,,,,,,,,,,,,,,,,,,,,359.066,360.181,l,0,[],[],[],[],[],[],[],0.439,0,360.182,360.681,,,,,,1263,FEM,CON,150,unidad,,a,0.439,,360.681,360.683,0.037037037,-0.205555556,0,0,0,,0,128,128,362,1,,,,
,,,,,,ad8dfb2065e431eb6e1f68ad,66a626ef09d4e21e1a8894ec,6734e003e492068df123a5ed,2024-11-13_11h22.04.398,Tarea de género gramatical,2024.2.2,Win32,64.76683938,,,,,,,,,,,,,,,,,,,,,,,360.683,361.898,a,1,[],[],[],[],[],[],[],0.535,1,361.898,362.397,,,,,,1010,FEM,AGR,150,rosa,la,a,0.535,,362.397,362.398,0.037037037,-0.205555556,0,0,0,,0,129,129,109,1,,,,
,,,,,,ad8dfb2065e431eb6e1f68ad,66a626ef09d4e21e1a8894ec,6734e003e492068df123a5ed,2024-11-13_11h22.04.398,Tarea de género gramatical,2024.2.2,Win32,64.76683938,,,,,,,,,,,,,,,,,,,,,,,362.398,363.664,l,1,[],[],[],[],[],[],[],0.587,1,363.665,364.165,,,,,,1044,MAS,CON,150,amor,,l,0.587,,364.165,364.165,0.037037037,-0.205555556,0,0,0,,0,130,130,143,1,,,,
,,,,,,ad8dfb2065e431eb6e1f68ad,66a626ef09d4e21e1a8894ec,6734e003e492068df123a5ed,2024-11-13_11h22.04.398,Tarea de género gramatical,2024.2.2,Win32,64.76683938,,,,,,,,,,,,,,,,,,,,,,,364.166,365.281,a,1,[],[],[],[],[],[],[],0.441,1,365.282,365.782,,,,,,1143,FEM,CON,150,salsa,,a,0.441,,365.782,365.782,0.037037037,-0.205555556,0,0,0,,0,131,131,242,1,,,,
,,,,,,ad8dfb2065e431eb6e1f68ad,66a626ef09d4e21e1a8894ec,6734e003e492068df123a5ed,2024-11-13_11h22.04.398,Tarea de género gramatical,2024.2.2,Win32,64.76683938,,,,,,,,,,,,,,,,,,,,,,,365.782,367.064,l,1,[],[],[],[],[],[],[],0.6,1,367.065,367.565,,,,,,1084,MAS,DIS,150,cielo,la,l,0.6,,367.565,367.567,0.037037037,-0.205555556,0,0,0,,0,132,132,183,1,,,,
,,,,,,ad8dfb2065e431eb6e1f68ad,66a626ef09d4e21e1a8894ec,6734e003e492068df123a5ed,2024-11-13_11h22.04.398,Tarea de género gramatical,2024.2.2,Win32,64.76683938,,,,,,,,,,,,,,,,,,,,,,,367.567,368.731,a,1,[],[],[],[],[],[],[],0.485,1,368.731,369.231,,,,,,1059,FEM,CON,150,clase,,a,0.485,,369.231,369.231,0.037037037,-0.205555556,0,0,0,,0,133,133,158,1,,,,
,,,,,,ad8dfb2065e431eb6e1f68ad,66a626ef09d4e21e1a8894ec,6734e003e492068df123a5ed,2024-11-13_11h22.04.398,Tarea de género gramatical,2024.2.2,Win32,64.76683938,,,,,,,,,,,,,,,,,,,,,,,369.231,370.364,l,1,[],[],[],[],[],[],[],0.466,1,370.364,370.866,,,,,,1103,MAS,AGR,150,novio,el,l,0.466,,370.866,370.866,0.037037037,-0.205555556,0,0,0,,0,134,134,202,1,,,,
,,,,,,ad8dfb2065e431eb6e1f68ad,66a626ef09d4e21e1a8894ec,6734e003e492068df123a5ed,2024-11-13_11h22.04.398,Tarea de género gramatical,2024.2.2,Win32,64.76683938,,,,,,,,,,,,,,,,,,,,,,,370.867,372.031,a,1,[],[],[],[],[],[],[],0.483,1,372.032,372.532,,,,,,927,FEM,CON,150,mesa,,a,0.483,,372.532,372.532,0.037037037,-0.205555556,0,0,0,,0,135,135,26,1,,,,
,,,,,,ad8dfb2065e431eb6e1f68ad,66a626ef09d4e21e1a8894ec,6734e003e492068df123a5ed,2024-11-13_11h22.04.398,Tarea de género gramatical,2024.2.2,Win32,64.76683938,,,,,,,,,,,,,,,,,,,,,,,372.533,373.831,a,1,[],[],[],[],[],[],[],0.625,1,373.831,374.331,,,,,,1208,FEM,AGR,150,semana,la,a,0.625,,374.331,374.331,0.037037037,-0.205555556,0,0,0,,0,136,136,307,1,,,,
,,,,,,ad8dfb2065e431eb6e1f68ad,66a626ef09d4e21e1a8894ec,6734e003e492068df123a5ed,2024-11-13_11h22.04.398,Tarea de género gramatical,2024.2.2,Win32,64.76683938,,,,,,,,,,,,,,,,,,,,,,,374.332,375.615,l,1,[],[],[],[],[],[],[],0.599,1,375.615,376.115,,,,,,1218,MAS,CON,150,pueblo,,l,0.599,,376.115,376.116,0.037037037,-0.205555556,0,0,0,,0,137,137,317,1,,,,
,,,,,,ad8dfb2065e431eb6e1f68ad,66a626ef09d4e21e1a8894ec,6734e003e492068df123a5ed,2024-11-13_11h22.04.398,Tarea de género gramatical,2024.2.2,Win32,64.76683938,,,,,,,,,,,,,,,,,,,,,,,376.117,377.431,l,1,[],[],[],[],[],[],[],0.639,1,377.431,377.931,,,,,,1092,MAS,CON,150,grupo,,l,0.639,,377.931,377.931,0.037037037,-0.205555556,0,0,0,,0,138,138,191,1,,,,
,,,,,,ad8dfb2065e431eb6e1f68ad,66a626ef09d4e21e1a8894ec,6734e003e492068df123a5ed,2024-11-13_11h22.04.398,Tarea de género gramatical,2024.2.2,Win32,64.76683938,,,,,,,,,,,,,,,,,,,,,,,377.932,379.248,l,1,[],[],[],[],[],[],[],0.639,1,379.248,379.747,,,,,,1001,MAS,AGR,150,giro,el,l,0.639,,379.747,379.747,0.037037037,-0.205555556,0,0,0,,0,139,139,100,1,,,,
,,,,,,ad8dfb2065e431eb6e1f68ad,66a626ef09d4e21e1a8894ec,6734e003e492068df123a5ed,2024-11-13_11h22.04.398,Tarea de género gramatical,2024.2.2,Win32,64.76683938,,,,,,,,,,,,,,,,,,,,,,,379.748,380.832,a,1,[],[],[],[],[],[],[],0.419,1,380.832,381.331,,,,,,939,FEM,CON,150,luna,,a,0.419,,381.331,381.331,0.037037037,-0.205555556,0,0,0,,0,140,140,38,1,,,,
,,,,,,ad8dfb2065e431eb6e1f68ad,66a626ef09d4e21e1a8894ec,6734e003e492068df123a5ed,2024-11-13_11h22.04.398,Tarea de género gramatical,2024.2.2,Win32,64.76683938,,,,,,,,,,,,,,,,,,,,,,,381.332,382.614,l,1,[],[],[],[],[],[],[],0.599,1,382.614,383.115,,,,,,1187,MAS,AGR,150,plato,el,l,0.599,,383.116,383.116,0.037037037,-0.205555556,0,0,0,,0,141,141,286,1,,,,
,,,,,,ad8dfb2065e431eb6e1f68ad,66a626ef09d4e21e1a8894ec,6734e003e492068df123a5ed,2024-11-13_11h22.04.398,Tarea de género gramatical,2024.2.2,Win32,64.76683938,,,,,,,,,,,,,,,,,,,,,,,383.117,384.497,a,1,[],[],[],[],[],[],[],0.709,1,384.497,384.998,,,,,,1183,FEM,DIS,150,pluma,el,a,0.709,,384.998,384.998,0.037037037,-0.205555556,0,0,0,,0,142,142,282,1,,,,
,,,,,,ad8dfb2065e431eb6e1f68ad,66a626ef09d4e21e1a8894ec,6734e003e492068df123a5ed,2024-11-13_11h22.04.398,Tarea de género gramatical,2024.2.2,Win32,64.76683938,,,,,,,,,,,,,,,,,,,,,,,384.999,386.381,l,1,[],[],[],[],[],[],[],0.705,1,386.381,386.881,,,,,,1108,MAS,DIS,150,suelo,la,l,0.705,,386.881,386.882,0.037037037,-0.205555556,0,0,0,,0,143,143,207,1,,,,
,,,,,,ad8dfb2065e431eb6e1f68ad,66a626ef09d4e21e1a8894ec,6734e003e492068df123a5ed,2024-11-13_11h22.04.398,Tarea de género gramatical,2024.2.2,Win32,64.76683938,,,,,,,,,,,,,,,,,,,,,,,386.882,388.047,a,1,[],[],[],[],[],[],[],0.491,1,388.047,388.549,,,,,,1124,FEM,AGR,150,arena,la,a,0.491,,388.549,388.549,0.037037037,-0.205555556,0,0,0,,0,144,144,223,1,,,,
,,,,,,ad8dfb2065e431eb6e1f68ad,66a626ef09d4e21e1a8894ec,6734e003e492068df123a5ed,2024-11-13_11h22.04.398,Tarea de género gramatical,2024.2.2,Win32,64.76683938,,,,,,,,,,,,,,,,,,,,,,,388.552,389.998,l,0,[],[],[],[],[],[],[],0.776,0,389.998,390.497,,,,,,997,FEM,DIS,150,capa,el,a,0.776,,390.497,390.498,0.037037037,-0.205555556,0,0,0,,0,145,145,96,1,,,,
,,,,,,ad8dfb2065e431eb6e1f68ad,66a626ef09d4e21e1a8894ec,6734e003e492068df123a5ed,2024-11-13_11h22.04.398,Tarea de género gramatical,2024.2.2,Win32,64.76683938,,,,,,,,,,,,,,,,,,,,,,,390.499,392.098,l,1,[],[],[],[],[],[],[],0.915,1,392.098,392.597,,,,,,1266,MAS,CON,150,riesgo,,l,0.915,,392.599,392.6,0.037037037,-0.205555556,0,0,0,,0,146,146,365,1,,,,
,,,,,,ad8dfb2065e431eb6e1f68ad,66a626ef09d4e21e1a8894ec,6734e003e492068df123a5ed,2024-11-13_11h22.04.398,Tarea de género gramatical,2024.2.2,Win32,64.76683938,,,,,,,,,,,,,,,,,,,,,,,392.6,393.832,l,1,[],[],[],[],[],[],[],0.551,1,393.832,394.332,,,,,,1240,MAS,DIS,150,pasado,la,l,0.551,,394.332,394.332,0.037037037,-0.205555556,0,0,0,,0,147,147,339,1,,,,
,,,,,,ad8dfb2065e431eb6e1f68ad,66a626ef09d4e21e1a8894ec,6734e003e492068df123a5ed,2024-11-13_11h22.04.398,Tarea de género gramatical,2024.2.2,Win32,64.76683938,,,,,,,,,,,,,,,,,,,,,,,394.332,395.364,a,0,[],[],[],[],[],[],[],0.357,0,395.365,395.864,,,,,,1025,MAS,AGR,150,bate,el,l,0.357,,395.864,395.865,0.037037037,-0.205555556,0,0,0,,0,148,148,124,1,,,,
,,,,,,ad8dfb2065e431eb6e1f68ad,66a626ef09d4e21e1a8894ec,6734e003e492068df123a5ed,2024-11-13_11h22.04.398,Tarea de género gramatical,2024.2.2,Win32,64.76683938,,,,,,,,,,,,,,,,,,,,,,,395.865,397.247,l,1,[],[],[],[],[],[],[],0.719,1,397.248,397.748,,,,,,1145,MAS,AGR,150,turno,el,l,0.719,,397.748,397.748,0.037037037,-0.205555556,0,0,0,,0,149,149,244,1,,,,
,,,,,,ad8dfb2065e431eb6e1f68ad,66a626ef09d4e21e1a8894ec,6734e003e492068df123a5ed,2024-11-13_11h22.04.398,Tarea de género gramatical,2024.2.2,Win32,64.76683938,,,,,,,,,,,,,,,,,,,,,,,397.749,399.197,l,1,[],[],[],[],[],[],[],0.767,1,399.197,399.697,,,,,,1104,MAS,CON,150,papel,,l,0.767,,399.698,407.031,0.037037037,-0.205555556,0,0,0,space,0,150,150,203,1,7.307,,,
,,,,,,ad8dfb2065e431eb6e1f68ad,66a626ef09d4e21e1a8894ec,6734e003e492068df123a5ed,2024-11-13_11h22.04.398,Tarea de género gramatical,2024.2.2,Win32,64.76683938,,,,,,,,,,,,,,,,,,,,,,,407.032,408.232,l,1,[],[],[],[],[],[],[],0.522,1,408.232,408.731,,,,,,922,MAS,DIS,150,pelo,la,l,0.522,,408.731,408.731,0.037037037,-0.205555556,0,0,0,,0,151,151,21,1,,,,
,,,,,,ad8dfb2065e431eb6e1f68ad,66a626ef09d4e21e1a8894ec,6734e003e492068df123a5ed,2024-11-13_11h22.04.398,Tarea de género gramatical,2024.2.2,Win32,64.76683938,,,,,,,,,,,,,,,,,,,,,,,408.732,409.798,l,1,[],[],[],[],[],[],[],0.384,1,409.798,410.298,,,,,,929,MAS,AGR,150,frío,el,l,0.384,,410.298,410.298,0.037037037,-0.205555556,0,0,0,,0,152,152,28,1,,,,
,,,,,,ad8dfb2065e431eb6e1f68ad,66a626ef09d4e21e1a8894ec,6734e003e492068df123a5ed,2024-11-13_11h22.04.398,Tarea de género gramatical,2024.2.2,Win32,64.76683938,,,,,,,,,,,,,,,,,,,,,,,410.299,411.548,a,1,[],[],[],[],[],[],[],0.585,1,411.548,412.048,,,,,,1261,FEM,DIS,150,oferta,el,a,0.585,,412.048,412.048,0.037037037,-0.205555556,0,0,0,,0,153,153,360,1,,,,
,,,,,,ad8dfb2065e431eb6e1f68ad,66a626ef09d4e21e1a8894ec,6734e003e492068df123a5ed,2024-11-13_11h22.04.398,Tarea de género gramatical,2024.2.2,Win32,64.76683938,,,,,,,,,,,,,,,,,,,,,,,412.049,413.248,l,1,[],[],[],[],[],[],[],0.517,1,413.249,413.748,,,,,,1192,MAS,DIS,150,piano,la,l,0.517,,413.748,413.748,0.037037037,-0.205555556,0,0,0,,0,154,154,291,1,,,,
,,,,,,ad8dfb2065e431eb6e1f68ad,66a626ef09d4e21e1a8894ec,6734e003e492068df123a5ed,2024-11-13_11h22.04.398,Tarea de género gramatical,2024.2.2,Win32,64.76683938,,,,,,,,,,,,,,,,,,,,,,,413.748,414.898,l,1,[],[],[],[],[],[],[],0.465,1,414.898,415.398,,,,,,1295,MAS,AGR,150,correo,el,l,0.465,,415.398,415.399,0.037037037,-0.205555556,0,0,0,,0,155,155,394,1,,,,
,,,,,,ad8dfb2065e431eb6e1f68ad,66a626ef09d4e21e1a8894ec,6734e003e492068df123a5ed,2024-11-13_11h22.04.398,Tarea de género gramatical,2024.2.2,Win32,64.76683938,,,,,,,,,,,,,,,,,,,,,,,415.4,416.448,a,1,[],[],[],[],[],[],[],0.372,1,416.448,416.948,,,,,,1167,FEM,CON,150,barba,,a,0.372,,416.948,416.948,0.037037037,-0.205555556,0,0,0,,0,156,156,266,1,,,,
,,,,,,ad8dfb2065e431eb6e1f68ad,66a626ef09d4e21e1a8894ec,6734e003e492068df123a5ed,2024-11-13_11h22.04.398,Tarea de género gramatical,2024.2.2,Win32,64.76683938,,,,,,,,,,,,,,,,,,,,,,,416.949,418.781,l,1,[],[],[],[],[],[],[],1.152,1,418.782,419.282,,,,,,904,MAS,DIS,150,hijo,la,l,1.152,,419.282,419.282,0.037037037,-0.205555556,0,0,0,,0,157,157,3,1,,,,
,,,,,,ad8dfb2065e431eb6e1f68ad,66a626ef09d4e21e1a8894ec,6734e003e492068df123a5ed,2024-11-13_11h22.04.398,Tarea de género gramatical,2024.2.2,Win32,64.76683938,,,,,,,,,,,,,,,,,,,,,,,419.283,420.398,l,1,[],[],[],[],[],[],[],0.44,1,420.398,420.898,,,,,,1055,MAS,AGR,150,mundo,el,l,0.44,,420.898,420.898,0.037037037,-0.205555556,0,0,0,,0,158,158,154,1,,,,
,,,,,,ad8dfb2065e431eb6e1f68ad,66a626ef09d4e21e1a8894ec,6734e003e492068df123a5ed,2024-11-13_11h22.04.398,Tarea de género gramatical,2024.2.2,Win32,64.76683938,,,,,,,,,,,,,,,,,,,,,,,420.899,422.581,a,0,[],[],[],[],[],[],[],1.002,0,422.583,423.082,,,,,,1120,MAS,DIS,150,huevo,la,l,1.002,,423.083,423.084,0.037037037,-0.205555556,0,0,0,,0,159,159,219,1,,,,
,,,,,,ad8dfb2065e431eb6e1f68ad,66a626ef09d4e21e1a8894ec,6734e003e492068df123a5ed,2024-11-13_11h22.04.398,Tarea de género gramatical,2024.2.2,Win32,64.76683938,,,,,,,,,,,,,,,,,,,,,,,423.085,424.564,l,1,[],[],[],[],[],[],[],0.803,1,424.565,425.064,,,,,,918,MAS,CON,150,tren,,l,0.803,,425.065,425.065,0.037037037,-0.205555556,0,0,0,,0,160,160,17,1,,,,
,,,,,,ad8dfb2065e431eb6e1f68ad,66a626ef09d4e21e1a8894ec,6734e003e492068df123a5ed,2024-11-13_11h22.04.398,Tarea de género gramatical,2024.2.2,Win32,64.76683938,,,,,,,,,,,,,,,,,,,,,,,425.065,426.365,a,1,[],[],[],[],[],[],[],0.634,1,426.365,426.864,,,,,,1251,FEM,CON,150,espada,,a,0.634,,426.864,426.864,0.037037037,-0.205555556,0,0,0,,0,161,161,350,1,,,,
,,,,,,ad8dfb2065e431eb6e1f68ad,66a626ef09d4e21e1a8894ec,6734e003e492068df123a5ed,2024-11-13_11h22.04.398,Tarea de género gramatical,2024.2.2,Win32,64.76683938,,,,,,,,,,,,,,,,,,,,,,,426.865,428.165,l,1,[],[],[],[],[],[],[],0.621,1,428.165,428.664,,,,,,977,MAS,AGR,150,pico,el,l,0.621,,428.664,428.664,0.037037037,-0.205555556,0,0,0,,0,162,162,76,1,,,,
,,,,,,ad8dfb2065e431eb6e1f68ad,66a626ef09d4e21e1a8894ec,6734e003e492068df123a5ed,2024-11-13_11h22.04.398,Tarea de género gramatical,2024.2.2,Win32,64.76683938,,,,,,,,,,,,,,,,,,,,,,,428.665,429.848,l,1,[],[],[],[],[],[],[],0.507,1,429.848,430.348,,,,,,1288,MAS,DIS,150,empleo,la,l,0.507,,430.348,430.348,0.037037037,-0.205555556,0,0,0,,0,163,163,387,1,,,,
,,,,,,ad8dfb2065e431eb6e1f68ad,66a626ef09d4e21e1a8894ec,6734e003e492068df123a5ed,2024-11-13_11h22.04.398,Tarea de género gramatical,2024.2.2,Win32,64.76683938,,,,,,,,,,,,,,,,,,,,,,,430.349,431.498,a,1,[],[],[],[],[],[],[],0.468,1,431.499,431.998,,,,,,1345,FEM,DIS,150,bondad,el,a,0.468,,431.998,431.999,0.037037037,-0.205555556,0,0,0,,0,164,164,444,1,,,,
,,,,,,ad8dfb2065e431eb6e1f68ad,66a626ef09d4e21e1a8894ec,6734e003e492068df123a5ed,2024-11-13_11h22.04.398,Tarea de género gramatical,2024.2.2,Win32,64.76683938,,,,,,,,,,,,,,,,,,,,,,,431.999,433.147,a,1,[],[],[],[],[],[],[],0.466,1,433.147,433.648,,,,,,933,FEM,CON,150,boda,,a,0.466,,433.648,433.648,0.037037037,-0.205555556,0,0,0,,0,165,165,32,1,,,,
,,,,,,ad8dfb2065e431eb6e1f68ad,66a626ef09d4e21e1a8894ec,6734e003e492068df123a5ed,2024-11-13_11h22.04.398,Tarea de género gramatical,2024.2.2,Win32,64.76683938,,,,,,,,,,,,,,,,,,,,,,,433.649,434.948,l,1,[],[],[],[],[],[],[],0.624,1,434.948,435.448,,,,,,1080,MAS,CON,150,fuego,,l,0.624,,435.448,435.448,0.037037037,-0.205555556,0,0,0,,0,166,166,179,1,,,,
,,,,,,ad8dfb2065e431eb6e1f68ad,66a626ef09d4e21e1a8894ec,6734e003e492068df123a5ed,2024-11-13_11h22.04.398,Tarea de género gramatical,2024.2.2,Win32,64.76683938,,,,,,,,,,,,,,,,,,,,,,,435.449,436.697,a,1,[],[],[],[],[],[],[],0.573,1,436.697,437.198,,,,,,973,FEM,DIS,150,roca,el,a,0.573,,437.198,437.198,0.037037037,-0.205555556,0,0,0,,0,167,167,72,1,,,,
,,,,,,ad8dfb2065e431eb6e1f68ad,66a626ef09d4e21e1a8894ec,6734e003e492068df123a5ed,2024-11-13_11h22.04.398,Tarea de género gramatical,2024.2.2,Win32,64.76683938,,,,,,,,,,,,,,,,,,,,,,,437.199,438.298,a,1,[],[],[],[],[],[],[],0.42,1,438.298,438.798,,,,,,1275,FEM,CON,150,cadena,,a,0.42,,438.799,438.799,0.037037037,-0.205555556,0,0,0,,0,168,168,374,1,,,,
,,,,,,ad8dfb2065e431eb6e1f68ad,66a626ef09d4e21e1a8894ec,6734e003e492068df123a5ed,2024-11-13_11h22.04.398,Tarea de género gramatical,2024.2.2,Win32,64.76683938,,,,,,,,,,,,,,,,,,,,,,,438.8,439.848,l,1,[],[],[],[],[],[],[],0.369,1,439.848,440.348,,,,,,1164,MAS,CON,150,pollo,,l,0.369,,440.348,440.348,0.037037037,-0.205555556,0,0,0,,0,169,169,263,1,,,,
,,,,,,ad8dfb2065e431eb6e1f68ad,66a626ef09d4e21e1a8894ec,6734e003e492068df123a5ed,2024-11-13_11h22.04.398,Tarea de género gramatical,2024.2.2,Win32,64.76683938,,,,,,,,,,,,,,,,,,,,,,,440.349,441.498,l,1,[],[],[],[],[],[],[],0.476,1,441.498,441.998,,,,,,1181,MAS,AGR,150,actor,el,l,0.476,,441.998,441.998,0.037037037,-0.205555556,0,0,0,,0,170,170,280,1,,,,
,,,,,,ad8dfb2065e431eb6e1f68ad,66a626ef09d4e21e1a8894ec,6734e003e492068df123a5ed,2024-11-13_11h22.04.398,Tarea de género gramatical,2024.2.2,Win32,64.76683938,,,,,,,,,,,,,,,,,,,,,,,441.998,443.164,a,1,[],[],[],[],[],[],[],0.501,1,443.165,443.665,,,,,,1232,FEM,AGR,150,basura,la,a,0.501,,443.665,443.665,0.037037037,-0.205555556,0,0,0,,0,171,171,331,1,,,,
,,,,,,ad8dfb2065e431eb6e1f68ad,66a626ef09d4e21e1a8894ec,6734e003e492068df123a5ed,2024-11-13_11h22.04.398,Tarea de género gramatical,2024.2.2,Win32,64.76683938,,,,,,,,,,,,,,,,,,,,,,,443.665,444.831,l,1,[],[],[],[],[],[],[],0.487,1,444.831,445.332,,,,,,1138,MAS,DIS,150,norte,la,l,0.487,,445.332,445.332,0.037037037,-0.205555556,0,0,0,,0,172,172,237,1,,,,
,,,,,,ad8dfb2065e431eb6e1f68ad,66a626ef09d4e21e1a8894ec,6734e003e492068df123a5ed,2024-11-13_11h22.04.398,Tarea de género gramatical,2024.2.2,Win32,64.76683938,,,,,,,,,,,,,,,,,,,,,,,445.333,446.531,l,1,[],[],[],[],[],[],[],0.518,1,446.531,447.032,,,,,,1331,MAS,AGR,150,veneno,el,l,0.518,,447.032,447.032,0.037037037,-0.205555556,0,0,0,,0,173,173,430,1,,,,
,,,,,,ad8dfb2065e431eb6e1f68ad,66a626ef09d4e21e1a8894ec,6734e003e492068df123a5ed,2024-11-13_11h22.04.398,Tarea de género gramatical,2024.2.2,Win32,64.76683938,,,,,,,,,,,,,,,,,,,,,,,447.033,448.131,a,1,[],[],[],[],[],[],[],0.424,1,448.132,448.632,,,,,,1022,FEM,AGR,150,loca,la,a,0.424,,448.632,448.632,0.037037037,-0.205555556,0,0,0,,0,174,174,121,1,,,,
,,,,,,ad8dfb2065e431eb6e1f68ad,66a626ef09d4e21e1a8894ec,6734e003e492068df123a5ed,2024-11-13_11h22.04.398,Tarea de género gramatical,2024.2.2,Win32,64.76683938,,,,,,,,,,,,,,,,,,,,,,,448.632,449.831,l,1,[],[],[],[],[],[],[],0.515,1,449.831,450.332,,,,,,1193,MAS,AGR,150,patio,el,l,0.515,,450.332,450.332,0.037037037,-0.205555556,0,0,0,,0,175,175,292,1,,,,
,,,,,,ad8dfb2065e431eb6e1f68ad,66a626ef09d4e21e1a8894ec,6734e003e492068df123a5ed,2024-11-13_11h22.04.398,Tarea de género gramatical,2024.2.2,Win32,64.76683938,,,,,,,,,,,,,,,,,,,,,,,450.332,451.864,a,1,[],[],[],[],[],[],[],0.849,1,451.865,452.365,,,,,,1051,FEM,DIS,150,noche,el,a,0.849,,452.365,452.365,0.037037037,-0.205555556,0,0,0,,0,176,176,150,1,,,,
,,,,,,ad8dfb2065e431eb6e1f68ad,66a626ef09d4e21e1a8894ec,6734e003e492068df123a5ed,2024-11-13_11h22.04.398,Tarea de género gramatical,2024.2.2,Win32,64.76683938,,,,,,,,,,,,,,,,,,,,,,,452.366,453.598,a,1,[],[],[],[],[],[],[],0.55,1,453.598,454.098,,,,,,1041,FEM,CON,150,cera,,a,0.55,,454.099,454.099,0.037037037,-0.205555556,0,0,0,,0,177,177,140,1,,,,
,,,,,,ad8dfb2065e431eb6e1f68ad,66a626ef09d4e21e1a8894ec,6734e003e492068df123a5ed,2024-11-13_11h22.04.398,Tarea de género gramatical,2024.2.2,Win32,64.76683938,,,,,,,,,,,,,,,,,,,,,,,454.1,455.248,a,1,[],[],[],[],[],[],[],0.469,1,455.249,455.748,,,,,,1009,FEM,DIS,150,gota,el,a,0.469,,455.748,455.749,0.037037037,-0.205555556,0,0,0,,0,178,178,108,1,,,,
,,,,,,ad8dfb2065e431eb6e1f68ad,66a626ef09d4e21e1a8894ec,6734e003e492068df123a5ed,2024-11-13_11h22.04.398,Tarea de género gramatical,2024.2.2,Win32,64.76683938,,,,,,,,,,,,,,,,,,,,,,,455.75,456.831,a,1,[],[],[],[],[],[],[],0.399,1,456.831,457.331,,,,,,1142,FEM,AGR,150,pizza,la,a,0.399,,457.331,457.331,0.037037037,-0.205555556,0,0,0,,0,179,179,241,1,,,,
,,,,,,ad8dfb2065e431eb6e1f68ad,66a626ef09d4e21e1a8894ec,6734e003e492068df123a5ed,2024-11-13_11h22.04.398,Tarea de género gramatical,2024.2.2,Win32,64.76683938,,,,,,,,,,,,,,,,,,,,,,,457.333,458.397,a,1,[],[],[],[],[],[],[],0.391,1,458.398,458.898,,,,,,975,FEM,CON,150,caza,,a,0.391,,458.898,458.898,0.037037037,-0.205555556,0,0,0,,0,180,180,74,1,,,,
,,,,,,ad8dfb2065e431eb6e1f68ad,66a626ef09d4e21e1a8894ec,6734e003e492068df123a5ed,2024-11-13_11h22.04.398,Tarea de género gramatical,2024.2.2,Win32,64.76683938,,,,,,,,,,,,,,,,,,,,,,,458.899,459.998,l,1,[],[],[],[],[],[],[],0.422,1,459.998,460.498,,,,,,1229,MAS,AGR,150,futuro,el,l,0.422,,460.498,460.498,0.037037037,-0.205555556,0,0,0,,0,181,181,328,1,,,,
,,,,,,ad8dfb2065e431eb6e1f68ad,66a626ef09d4e21e1a8894ec,6734e003e492068df123a5ed,2024-11-13_11h22.04.398,Tarea de género gramatical,2024.2.2,Win32,64.76683938,,,,,,,,,,,,,,,,,,,,,,,460.499,461.714,l,1,[],[],[],[],[],[],[],0.533,1,461.714,462.215,,,,,,1236,MAS,CON,150,crimen,,l,0.533,,462.216,462.217,0.037037037,-0.205555556,0,0,0,,0,182,182,335,1,,,,
,,,,,,ad8dfb2065e431eb6e1f68ad,66a626ef09d4e21e1a8894ec,6734e003e492068df123a5ed,2024-11-13_11h22.04.398,Tarea de género gramatical,2024.2.2,Win32,64.76683938,,,,,,,,,,,,,,,,,,,,,,,462.217,463.265,a,1,[],[],[],[],[],[],[],0.366,1,463.265,463.765,,,,,,1221,FEM,CON,150,comida,,a,0.366,,463.765,463.765,0.037037037,-0.205555556,0,0,0,,0,183,183,320,1,,,,
,,,,,,ad8dfb2065e431eb6e1f68ad,66a626ef09d4e21e1a8894ec,6734e003e492068df123a5ed,2024-11-13_11h22.04.398,Tarea de género gramatical,2024.2.2,Win32,64.76683938,,,,,,,,,,,,,,,,,,,,,,,463.766,465.015,a,1,[],[],[],[],[],[],[],0.566,1,465.015,465.515,,,,,,1023,FEM,CON,150,tela,,a,0.566,,465.515,465.515,0.037037037,-0.205555556,0,0,0,,0,184,184,122,1,,,,
,,,,,,ad8dfb2065e431eb6e1f68ad,66a626ef09d4e21e1a8894ec,6734e003e492068df123a5ed,2024-11-13_11h22.04.398,Tarea de género gramatical,2024.2.2,Win32,64.76683938,,,,,,,,,,,,,,,,,,,,,,,465.516,466.715,l,1,[],[],[],[],[],[],[],0.517,1,466.715,467.215,,,,,,910,MAS,DIS,150,niño,la,l,0.517,,467.215,467.215,0.037037037,-0.205555556,0,0,0,,0,185,185,9,1,,,,
,,,,,,ad8dfb2065e431eb6e1f68ad,66a626ef09d4e21e1a8894ec,6734e003e492068df123a5ed,2024-11-13_11h22.04.398,Tarea de género gramatical,2024.2.2,Win32,64.76683938,,,,,,,,,,,,,,,,,,,,,,,467.216,468.515,a,1,[],[],[],[],[],[],[],0.621,1,468.515,469.015,,,,,,1076,FEM,AGR,150,línea,la,a,0.621,,469.016,469.017,0.037037037,-0.205555556,0,0,0,,0,186,186,175,1,,,,
,,,,,,ad8dfb2065e431eb6e1f68ad,66a626ef09d4e21e1a8894ec,6734e003e492068df123a5ed,2024-11-13_11h22.04.398,Tarea de género gramatical,2024.2.2,Win32,64.76683938,,,,,,,,,,,,,,,,,,,,,,,469.017,470.198,a,1,[],[],[],[],[],[],[],0.509,1,470.199,470.698,,,,,,1197,FEM,CON,150,manta,,a,0.509,,470.698,470.698,0.037037037,-0.205555556,0,0,0,,0,187,187,296,1,,,,
,,,,,,ad8dfb2065e431eb6e1f68ad,66a626ef09d4e21e1a8894ec,6734e003e492068df123a5ed,2024-11-13_11h22.04.398,Tarea de género gramatical,2024.2.2,Win32,64.76683938,,,,,,,,,,,,,,,,,,,,,,,470.699,471.815,l,1,[],[],[],[],[],[],[],0.441,1,471.815,472.315,,,,,,994,MAS,DIS,150,cabo,la,l,0.441,,472.315,472.315,0.037037037,-0.205555556,0,0,0,,0,188,188,93,1,,,,
,,,,,,ad8dfb2065e431eb6e1f68ad,66a626ef09d4e21e1a8894ec,6734e003e492068df123a5ed,2024-11-13_11h22.04.398,Tarea de género gramatical,2024.2.2,Win32,64.76683938,,,,,,,,,,,,,,,,,,,,,,,472.316,473.581,l,1,[],[],[],[],[],[],[],0.583,1,473.581,474.081,,,,,,1150,MAS,DIS,150,cerdo,la,l,0.583,,474.081,474.081,0.037037037,-0.205555556,0,0,0,,0,189,189,249,1,,,,
,,,,,,ad8dfb2065e431eb6e1f68ad,66a626ef09d4e21e1a8894ec,6734e003e492068df123a5ed,2024-11-13_11h22.04.398,Tarea de género gramatical,2024.2.2,Win32,64.76683938,,,,,,,,,,,,,,,,,,,,,,,474.083,475.182,l,1,[],[],[],[],[],[],[],0.424,1,475.182,475.681,,,,,,1342,MAS,DIS,150,cuadro,la,l,0.424,,475.681,475.681,0.037037037,-0.205555556,0,0,0,,0,190,190,441,1,,,,
,,,,,,ad8dfb2065e431eb6e1f68ad,66a626ef09d4e21e1a8894ec,6734e003e492068df123a5ed,2024-11-13_11h22.04.398,Tarea de género gramatical,2024.2.2,Win32,64.76683938,,,,,,,,,,,,,,,,,,,,,,,475.682,476.732,l,1,[],[],[],[],[],[],[],0.368,1,476.732,477.231,,,,,,995,MAS,AGR,150,tomo,el,l,0.368,,477.232,477.233,0.037037037,-0.205555556,0,0,0,,0,191,191,94,1,,,,
,,,,,,ad8dfb2065e431eb6e1f68ad,66a626ef09d4e21e1a8894ec,6734e003e492068df123a5ed,2024-11-13_11h22.04.398,Tarea de género gramatical,2024.2.2,Win32,64.76683938,,,,,,,,,,,,,,,,,,,,,,,477.233,478.381,l,1,[],[],[],[],[],[],[],0.467,1,478.381,478.881,,,,,,1265,MAS,AGR,150,código,el,l,0.467,,478.881,478.881,0.037037037,-0.205555556,0,0,0,,0,192,192,364,1,,,,
,,,,,,ad8dfb2065e431eb6e1f68ad,66a626ef09d4e21e1a8894ec,6734e003e492068df123a5ed,2024-11-13_11h22.04.398,Tarea de género gramatical,2024.2.2,Win32,64.76683938,,,,,,,,,,,,,,,,,,,,,,,478.882,480.032,l,1,[],[],[],[],[],[],[],0.467,1,480.032,480.531,,,,,,1325,MAS,AGR,150,chiste,el,l,0.467,,480.531,480.531,0.037037037,-0.205555556,0,0,0,,0,193,193,424,1,,,,
,,,,,,ad8dfb2065e431eb6e1f68ad,66a626ef09d4e21e1a8894ec,6734e003e492068df123a5ed,2024-11-13_11h22.04.398,Tarea de género gramatical,2024.2.2,Win32,64.76683938,,,,,,,,,,,,,,,,,,,,,,,480.532,481.581,l,1,[],[],[],[],[],[],[],0.367,1,481.581,482.081,,,,,,1168,MAS,DIS,150,truco,la,l,0.367,,482.081,482.081,0.037037037,-0.205555556,0,0,0,,0,194,194,267,1,,,,
,,,,,,ad8dfb2065e431eb6e1f68ad,66a626ef09d4e21e1a8894ec,6734e003e492068df123a5ed,2024-11-13_11h22.04.398,Tarea de género gramatical,2024.2.2,Win32,64.76683938,,,,,,,,,,,,,,,,,,,,,,,482.082,483.115,a,1,[],[],[],[],[],[],[],0.353,1,483.115,483.615,,,,,,1273,FEM,DIS,150,lluvia,el,a,0.353,,483.615,483.616,0.037037037,-0.205555556,0,0,0,,0,195,195,372,1,,,,
,,,,,,ad8dfb2065e431eb6e1f68ad,66a626ef09d4e21e1a8894ec,6734e003e492068df123a5ed,2024-11-13_11h22.04.398,Tarea de género gramatical,2024.2.2,Win32,64.76683938,,,,,,,,,,,,,,,,,,,,,,,483.616,484.648,l,1,[],[],[],[],[],[],[],0.35,1,484.648,485.148,,,,,,1020,MAS,CON,150,puño,,l,0.35,,485.148,485.148,0.037037037,-0.205555556,0,0,0,,0,196,196,119,1,,,,
,,,,,,ad8dfb2065e431eb6e1f68ad,66a626ef09d4e21e1a8894ec,6734e003e492068df123a5ed,2024-11-13_11h22.04.398,Tarea de género gramatical,2024.2.2,Win32,64.76683938,,,,,,,,,,,,,,,,,,,,,,,485.149,486.331,l,1,[],[],[],[],[],[],[],0.508,1,486.331,486.831,,,,,,959,MAS,AGR,150,lobo,el,l,0.508,,486.831,486.831,0.037037037,-0.205555556,0,0,0,,0,197,197,58,1,,,,
,,,,,,ad8dfb2065e431eb6e1f68ad,66a626ef09d4e21e1a8894ec,6734e003e492068df123a5ed,2024-11-13_11h22.04.398,Tarea de género gramatical,2024.2.2,Win32,64.76683938,,,,,,,,,,,,,,,,,,,,,,,486.832,487.932,a,1,[],[],[],[],[],[],[],0.417,1,487.932,488.432,,,,,,955,FEM,DIS,150,taza,el,a,0.417,,488.432,488.432,0.037037037,-0.205555556,0,0,0,,0,198,198,54,1,,,,
,,,,,,ad8dfb2065e431eb6e1f68ad,66a626ef09d4e21e1a8894ec,6734e003e492068df123a5ed,2024-11-13_11h22.04.398,Tarea de género gramatical,2024.2.2,Win32,64.76683938,,,,,,,,,,,,,,,,,,,,,,,488.434,489.499,a,1,[],[],[],[],[],[],[],0.391,1,489.499,489.998,,,,,,1130,FEM,AGR,150,regla,la,a,0.391,,489.998,489.998,0.037037037,-0.205555556,0,0,0,,0,199,199,229,1,,,,
,,,,,,ad8dfb2065e431eb6e1f68ad,66a626ef09d4e21e1a8894ec,6734e003e492068df123a5ed,2024-11-13_11h22.04.398,Tarea de género gramatical,2024.2.2,Win32,64.76683938,,,,,,,,,,,,,,,,,,,,,,,489.999,490.981,a,1,[],[],[],[],[],[],[],0.323,1,490.981,491.482,,,,,,937,FEM,DIS,150,sala,el,a,0.323,,491.483,491.484,0.037037037,-0.205555556,0,0,0,,0,200,200,36,1,,,,
,,,,,,ad8dfb2065e431eb6e1f68ad,66a626ef09d4e21e1a8894ec,6734e003e492068df123a5ed,2024-11-13_11h22.04.398,Tarea de género gramatical,2024.2.2,Win32,64.76683938,,,,,,,,,,,,,,,,,,,,,,,491.484,492.598,l,1,[],[],[],[],[],[],[],0.433,1,492.598,493.098,,,,,,1350,MAS,CON,150,conejo,,l,0.433,,493.098,493.098,0.037037037,-0.205555556,0,0,0,,0,201,201,449,1,,,,
,,,,,,ad8dfb2065e431eb6e1f68ad,66a626ef09d4e21e1a8894ec,6734e003e492068df123a5ed,2024-11-13_11h22.04.398,Tarea de género gramatical,2024.2.2,Win32,64.76683938,,,,,,,,,,,,,,,,,,,,,,,493.1,494.115,l,1,[],[],[],[],[],[],[],0.34,1,494.115,494.615,,,,,,1144,MAS,DIS,150,hielo,la,l,0.34,,494.615,494.615,0.037037037,-0.205555556,0,0,0,,0,202,202,243,1,,,,
,,,,,,ad8dfb2065e431eb6e1f68ad,66a626ef09d4e21e1a8894ec,6734e003e492068df123a5ed,2024-11-13_11h22.04.398,Tarea de género gramatical,2024.2.2,Win32,64.76683938,,,,,,,,,,,,,,,,,,,,,,,494.616,495.664,l,1,[],[],[],[],[],[],[],0.368,1,495.665,496.165,,,,,,1122,MAS,CON,150,valor,,l,0.368,,496.165,496.165,0.037037037,-0.205555556,0,0,0,,0,203,203,221,1,,,,
,,,,,,ad8dfb2065e431eb6e1f68ad,66a626ef09d4e21e1a8894ec,6734e003e492068df123a5ed,2024-11-13_11h22.04.398,Tarea de género gramatical,2024.2.2,Win32,64.76683938,,,,,,,,,,,,,,,,,,,,,,,496.166,497.199,a,1,[],[],[],[],[],[],[],0.352,1,497.199,497.698,,,,,,1191,FEM,CON,150,aguja,,a,0.352,,497.699,497.7,0.037037037,-0.205555556,0,0,0,,0,204,204,290,1,,,,
,,,,,,ad8dfb2065e431eb6e1f68ad,66a626ef09d4e21e1a8894ec,6734e003e492068df123a5ed,2024-11-13_11h22.04.398,Tarea de género gramatical,2024.2.2,Win32,64.76683938,,,,,,,,,,,,,,,,,,,,,,,497.701,498.865,a,1,[],[],[],[],[],[],[],0.484,1,498.865,499.365,,,,,,903,FEM,CON,150,cosa,,a,0.484,,499.365,499.365,0.037037037,-0.205555556,0,0,0,,0,205,205,2,1,,,,
,,,,,,ad8dfb2065e431eb6e1f68ad,66a626ef09d4e21e1a8894ec,6734e003e492068df123a5ed,2024-11-13_11h22.04.398,Tarea de género gramatical,2024.2.2,Win32,64.76683938,,,,,,,,,,,,,,,,,,,,,,,499.366,500.348,l,1,[],[],[],[],[],[],[],0.307,1,500.348,500.848,,,,,,916,MAS,DIS,150,baño,la,l,0.307,,500.848,500.848,0.037037037,-0.205555556,0,0,0,,0,206,206,15,1,,,,
,,,,,,ad8dfb2065e431eb6e1f68ad,66a626ef09d4e21e1a8894ec,6734e003e492068df123a5ed,2024-11-13_11h22.04.398,Tarea de género gramatical,2024.2.2,Win32,64.76683938,,,,,,,,,,,,,,,,,,,,,,,500.85,502.048,a,1,[],[],[],[],[],[],[],0.518,1,502.049,502.548,,,,,,1323,FEM,CON,150,poesía,,a,0.518,,502.549,502.549,0.037037037,-0.205555556,0,0,0,,0,207,207,422,1,,,,
,,,,,,ad8dfb2065e431eb6e1f68ad,66a626ef09d4e21e1a8894ec,6734e003e492068df123a5ed,2024-11-13_11h22.04.398,Tarea de género gramatical,2024.2.2,Win32,64.76683938,,,,,,,,,,,,,,,,,,,,,,,502.549,503.715,a,1,[],[],[],[],[],[],[],0.484,1,503.715,504.215,,,,,,1088,FEM,AGR,150,bomba,la,a,0.484,,504.215,504.215,0.037037037,-0.205555556,0,0,0,,0,208,208,187,1,,,,
,,,,,,ad8dfb2065e431eb6e1f68ad,66a626ef09d4e21e1a8894ec,6734e003e492068df123a5ed,2024-11-13_11h22.04.398,Tarea de género gramatical,2024.2.2,Win32,64.76683938,,,,,,,,,,,,,,,,,,,,,,,504.215,505.331,l,1,[],[],[],[],[],[],[],0.44,1,505.332,505.832,,,,,,1307,MAS,AGR,150,jurado,el,l,0.44,,505.832,505.832,0.037037037,-0.205555556,0,0,0,,0,209,209,406,1,,,,
,,,,,,ad8dfb2065e431eb6e1f68ad,66a626ef09d4e21e1a8894ec,6734e003e492068df123a5ed,2024-11-13_11h22.04.398,Tarea de género gramatical,2024.2.2,Win32,64.76683938,,,,,,,,,,,,,,,,,,,,,,,505.834,507.048,a,0,[],[],[],[],[],[],[],0.543,0,507.048,507.548,,,,,,1072,MAS,DIS,150,poder,la,l,0.543,,507.548,507.549,0.037037037,-0.205555556,0,0,0,,0,210,210,171,1,,,,
,,,,,,ad8dfb2065e431eb6e1f68ad,66a626ef09d4e21e1a8894ec,6734e003e492068df123a5ed,2024-11-13_11h22.04.398,Tarea de género gramatical,2024.2.2,Win32,64.76683938,,,,,,,,,,,,,,,,,,,,,,,507.549,508.681,a,1,[],[],[],[],[],[],[],0.455,1,508.682,509.181,,,,,,932,FEM,AGR,150,caja,la,a,0.455,,509.181,509.181,0.037037037,-0.205555556,0,0,0,,0,211,211,31,1,,,,
,,,,,,ad8dfb2065e431eb6e1f68ad,66a626ef09d4e21e1a8894ec,6734e003e492068df123a5ed,2024-11-13_11h22.04.398,Tarea de género gramatical,2024.2.2,Win32,64.76683938,,,,,,,,,,,,,,,,,,,,,,,509.182,510.265,l,1,[],[],[],[],[],[],[],0.402,1,510.265,510.765,,,,,,1151,MAS,AGR,150,dueño,el,l,0.402,,510.765,510.765,0.037037037,-0.205555556,0,0,0,,0,212,212,250,1,,,,
,,,,,,ad8dfb2065e431eb6e1f68ad,66a626ef09d4e21e1a8894ec,6734e003e492068df123a5ed,2024-11-13_11h22.04.398,Tarea de género gramatical,2024.2.2,Win32,64.76683938,,,,,,,,,,,,,,,,,,,,,,,510.766,512.148,a,0,[],[],[],[],[],[],[],0.701,0,512.149,512.648,,,,,,1234,MAS,DIS,150,ataque,la,l,0.701,,512.649,512.65,0.037037037,-0.205555556,0,0,0,,0,213,213,333,1,,,,
,,,,,,ad8dfb2065e431eb6e1f68ad,66a626ef09d4e21e1a8894ec,6734e003e492068df123a5ed,2024-11-13_11h22.04.398,Tarea de género gramatical,2024.2.2,Win32,64.76683938,,,,,,,,,,,,,,,,,,,,,,,512.65,514.015,l,1,[],[],[],[],[],[],[],0.687,1,514.016,514.515,,,,,,1174,MAS,DIS,150,motor,la,l,0.687,,514.515,514.515,0.037037037,-0.205555556,0,0,0,,0,214,214,273,1,,,,
,,,,,,ad8dfb2065e431eb6e1f68ad,66a626ef09d4e21e1a8894ec,6734e003e492068df123a5ed,2024-11-13_11h22.04.398,Tarea de género gramatical,2024.2.2,Win32,64.76683938,,,,,,,,,,,,,,,,,,,,,,,514.516,515.631,a,1,[],[],[],[],[],[],[],0.437,1,515.631,516.132,,,,,,1137,FEM,CON,150,ducha,,a,0.437,,516.132,516.132,0.037037037,-0.205555556,0,0,0,,0,215,215,236,1,,,,
,,,,,,ad8dfb2065e431eb6e1f68ad,66a626ef09d4e21e1a8894ec,6734e003e492068df123a5ed,2024-11-13_11h22.04.398,Tarea de género gramatical,2024.2.2,Win32,64.76683938,,,,,,,,,,,,,,,,,,,,,,,516.133,517.264,a,1,[],[],[],[],[],[],[],0.456,1,517.264,517.765,,,,,,992,FEM,AGR,150,masa,la,a,0.456,,517.765,517.765,0.037037037,-0.205555556,0,0,0,,0,216,216,91,1,,,,
,,,,,,ad8dfb2065e431eb6e1f68ad,66a626ef09d4e21e1a8894ec,6734e003e492068df123a5ed,2024-11-13_11h22.04.398,Tarea de género gramatical,2024.2.2,Win32,64.76683938,,,,,,,,,,,,,,,,,,,,,,,517.765,518.832,l,1,[],[],[],[],[],[],[],0.383,1,518.832,519.331,,,,,,1326,MAS,CON,150,pánico,,l,0.383,,519.331,519.331,0.037037037,-0.205555556,0,0,0,,0,217,217,425,1,,,,
,,,,,,ad8dfb2065e431eb6e1f68ad,66a626ef09d4e21e1a8894ec,6734e003e492068df123a5ed,2024-11-13_11h22.04.398,Tarea de género gramatical,2024.2.2,Win32,64.76683938,,,,,,,,,,,,,,,,,,,,,,,519.332,520.415,l,1,[],[],[],[],[],[],[],0.406,1,520.415,520.915,,,,,,1302,MAS,CON,150,ladrón,,l,0.406,,520.915,520.916,0.037037037,-0.205555556,0,0,0,,0,218,218,401,1,,,,
,,,,,,ad8dfb2065e431eb6e1f68ad,66a626ef09d4e21e1a8894ec,6734e003e492068df123a5ed,2024-11-13_11h22.04.398,Tarea de género gramatical,2024.2.2,Win32,64.76683938,,,,,,,,,,,,,,,,,,,,,,,520.917,521.949,l,1,[],[],[],[],[],[],[],0.357,1,521.95,522.448,,,,,,1278,MAS,CON,150,pastel,,l,0.357,,522.449,522.449,0.037037037,-0.205555556,0,0,0,,0,219,219,377,1,,,,
,,,,,,ad8dfb2065e431eb6e1f68ad,66a626ef09d4e21e1a8894ec,6734e003e492068df123a5ed,2024-11-13_11h22.04.398,Tarea de género gramatical,2024.2.2,Win32,64.76683938,,,,,,,,,,,,,,,,,,,,,,,522.452,523.565,a,1,[],[],[],[],[],[],[],0.437,1,523.565,524.065,,,,,,1339,FEM,DIS,150,toalla,el,a,0.437,,524.065,524.065,0.037037037,-0.205555556,0,0,0,,0,220,220,438,1,,,,
,,,,,,ad8dfb2065e431eb6e1f68ad,66a626ef09d4e21e1a8894ec,6734e003e492068df123a5ed,2024-11-13_11h22.04.398,Tarea de género gramatical,2024.2.2,Win32,64.76683938,,,,,,,,,,,,,,,,,,,,,,,524.066,525.748,a,1,[],[],[],[],[],[],[],1,1,525.749,526.248,,,,,,1291,FEM,DIS,150,altura,el,a,1,,526.248,526.248,0.037037037,-0.205555556,0,0,0,,0,221,221,390,1,,,,
,,,,,,ad8dfb2065e431eb6e1f68ad,66a626ef09d4e21e1a8894ec,6734e003e492068df123a5ed,2024-11-13_11h22.04.398,Tarea de género gramatical,2024.2.2,Win32,64.76683938,,,,,,,,,,,,,,,,,,,,,,,526.249,527.415,a,1,[],[],[],[],[],[],[],0.49,1,527.416,527.915,,,,,,1268,FEM,AGR,150,gracia,la,a,0.49,,527.916,527.917,0.037037037,-0.205555556,0,0,0,,0,222,222,367,1,,,,
,,,,,,ad8dfb2065e431eb6e1f68ad,66a626ef09d4e21e1a8894ec,6734e003e492068df123a5ed,2024-11-13_11h22.04.398,Tarea de género gramatical,2024.2.2,Win32,64.76683938,,,,,,,,,,,,,,,,,,,,,,,527.918,529.031,l,1,[],[],[],[],[],[],[],0.44,1,529.031,529.531,,,,,,1169,MAS,AGR,150,primo,el,l,0.44,,529.531,529.531,0.037037037,-0.205555556,0,0,0,,0,223,223,268,1,,,,
,,,,,,ad8dfb2065e431eb6e1f68ad,66a626ef09d4e21e1a8894ec,6734e003e492068df123a5ed,2024-11-13_11h22.04.398,Tarea de género gramatical,2024.2.2,Win32,64.76683938,,,,,,,,,,,,,,,,,,,,,,,529.532,530.681,a,1,[],[],[],[],[],[],[],0.466,1,530.682,531.181,,,,,,1119,FEM,CON,150,costa,,a,0.466,,531.181,531.181,0.037037037,-0.205555556,0,0,0,,0,224,224,218,1,,,,
,,,,,,ad8dfb2065e431eb6e1f68ad,66a626ef09d4e21e1a8894ec,6734e003e492068df123a5ed,2024-11-13_11h22.04.398,Tarea de género gramatical,2024.2.2,Win32,64.76683938,,,,,,,,,,,,,,,,,,,,,,,531.182,532.298,l,0,[],[],[],[],[],[],[],0.431,0,532.299,532.798,,,,,,968,FEM,AGR,150,pata,la,a,0.431,,532.798,532.798,0.037037037,-0.205555556,0,0,0,,0,225,225,67,1,,,,
,,,,,,ad8dfb2065e431eb6e1f68ad,66a626ef09d4e21e1a8894ec,6734e003e492068df123a5ed,2024-11-13_11h22.04.398,Tarea de género gramatical,2024.2.2,Win32,64.76683938,,,,,,,,,,,,,,,,,,,,,,,532.799,534.565,a,1,[],[],[],[],[],[],[],1.083,1,534.566,535.065,,,,,,980,FEM,AGR,150,vaca,la,a,1.083,,535.065,535.065,0.037037037,-0.205555556,0,0,0,,0,226,226,79,1,,,,
,,,,,,ad8dfb2065e431eb6e1f68ad,66a626ef09d4e21e1a8894ec,6734e003e492068df123a5ed,2024-11-13_11h22.04.398,Tarea de género gramatical,2024.2.2,Win32,64.76683938,,,,,,,,,,,,,,,,,,,,,,,535.066,536.632,a,1,[],[],[],[],[],[],[],0.882,1,536.632,537.132,,,,,,1172,FEM,AGR,150,oreja,la,a,0.882,,537.132,537.133,0.037037037,-0.205555556,0,0,0,,0,227,227,271,1,,,,
,,,,,,ad8dfb2065e431eb6e1f68ad,66a626ef09d4e21e1a8894ec,6734e003e492068df123a5ed,2024-11-13_11h22.04.398,Tarea de género gramatical,2024.2.2,Win32,64.76683938,,,,,,,,,,,,,,,,,,,,,,,537.134,538.665,l,1,[],[],[],[],[],[],[],0.854,1,538.666,539.165,,,,,,1176,MAS,CON,150,ritmo,,l,0.854,,539.165,539.166,0.037037037,-0.205555556,0,0,0,,0,228,228,275,1,,,,
,,,,,,ad8dfb2065e431eb6e1f68ad,66a626ef09d4e21e1a8894ec,6734e003e492068df123a5ed,2024-11-13_11h22.04.398,Tarea de género gramatical,2024.2.2,Win32,64.76683938,,,,,,,,,,,,,,,,,,,,,,,539.167,540.415,a,1,[],[],[],[],[],[],[],0.568,1,540.415,540.915,,,,,,999,FEM,CON,150,fase,,a,0.568,,540.915,540.915,0.037037037,-0.205555556,0,0,0,,0,229,229,98,1,,,,
,,,,,,ad8dfb2065e431eb6e1f68ad,66a626ef09d4e21e1a8894ec,6734e003e492068df123a5ed,2024-11-13_11h22.04.398,Tarea de género gramatical,2024.2.2,Win32,64.76683938,,,,,,,,,,,,,,,,,,,,,,,540.915,542.115,l,1,[],[],[],[],[],[],[],0.518,1,542.115,542.615,,,,,,1272,MAS,CON,150,delito,,l,0.518,,542.615,542.615,0.037037037,-0.205555556,0,0,0,,0,230,230,371,1,,,,
,,,,,,ad8dfb2065e431eb6e1f68ad,66a626ef09d4e21e1a8894ec,6734e003e492068df123a5ed,2024-11-13_11h22.04.398,Tarea de género gramatical,2024.2.2,Win32,64.76683938,,,,,,,,,,,,,,,,,,,,,,,542.616,543.882,a,0,[],[],[],[],[],[],[],0.584,0,543.883,544.381,,,,,,982,MAS,DIS,150,tubo,la,l,0.584,,544.382,544.382,0.037037037,-0.205555556,0,0,0,,0,231,231,81,1,,,,
,,,,,,ad8dfb2065e431eb6e1f68ad,66a626ef09d4e21e1a8894ec,6734e003e492068df123a5ed,2024-11-13_11h22.04.398,Tarea de género gramatical,2024.2.2,Win32,64.76683938,,,,,,,,,,,,,,,,,,,,,,,544.383,545.598,l,1,[],[],[],[],[],[],[],0.535,1,545.599,546.098,,,,,,965,MAS,AGR,150,rayo,el,l,0.535,,546.098,546.098,0.037037037,-0.205555556,0,0,0,,0,232,232,64,1,,,,
,,,,,,ad8dfb2065e431eb6e1f68ad,66a626ef09d4e21e1a8894ec,6734e003e492068df123a5ed,2024-11-13_11h22.04.398,Tarea de género gramatical,2024.2.2,Win32,64.76683938,,,,,,,,,,,,,,,,,,,,,,,546.099,547.615,l,1,[],[],[],[],[],[],[],0.833,1,547.615,548.115,,,,,,946,MAS,DIS,150,odio,la,l,0.833,,548.115,548.115,0.037037037,-0.205555556,0,0,0,,0,233,233,45,1,,,,
,,,,,,ad8dfb2065e431eb6e1f68ad,66a626ef09d4e21e1a8894ec,6734e003e492068df123a5ed,2024-11-13_11h22.04.398,Tarea de género gramatical,2024.2.2,Win32,64.76683938,,,,,,,,,,,,,,,,,,,,,,,548.116,549.598,a,1,[],[],[],[],[],[],[],0.8,1,549.598,550.098,,,,,,1244,FEM,AGR,150,pareja,la,a,0.8,,550.099,550.099,0.037037037,-0.205555556,0,0,0,,0,234,234,343,1,,,,
,,,,,,ad8dfb2065e431eb6e1f68ad,66a626ef09d4e21e1a8894ec,6734e003e492068df123a5ed,2024-11-13_11h22.04.398,Tarea de género gramatical,2024.2.2,Win32,64.76683938,,,,,,,,,,,,,,,,,,,,,,,550.099,551.165,l,1,[],[],[],[],[],[],[],0.388,1,551.165,551.665,,,,,,1199,MAS,AGR,150,rumbo,el,l,0.388,,551.665,551.665,0.037037037,-0.205555556,0,0,0,,0,235,235,298,1,,,,
,,,,,,ad8dfb2065e431eb6e1f68ad,66a626ef09d4e21e1a8894ec,6734e003e492068df123a5ed,2024-11-13_11h22.04.398,Tarea de género gramatical,2024.2.2,Win32,64.76683938,,,,,,,,,,,,,,,,,,,,,,,551.666,552.715,a,1,[],[],[],[],[],[],[],0.365,1,552.715,553.215,,,,,,1161,FEM,CON,150,cueva,,a,0.365,,553.216,553.217,0.037037037,-0.205555556,0,0,0,,0,236,236,260,1,,,,
,,,,,,ad8dfb2065e431eb6e1f68ad,66a626ef09d4e21e1a8894ec,6734e003e492068df123a5ed,2024-11-13_11h22.04.398,Tarea de género gramatical,2024.2.2,Win32,64.76683938,,,,,,,,,,,,,,,,,,,,,,,553.217,554.315,l,0,[],[],[],[],[],[],[],0.418,0,554.316,554.815,,,,,,1305,FEM,CON,150,parada,,a,0.418,,554.815,554.815,0.037037037,-0.205555556,0,0,0,,0,237,237,404,1,,,,
,,,,,,ad8dfb2065e431eb6e1f68ad,66a626ef09d4e21e1a8894ec,6734e003e492068df123a5ed,2024-11-13_11h22.04.398,Tarea de género gramatical,2024.2.2,Win32,64.76683938,,,,,,,,,,,,,,,,,,,,,,,554.816,556.099,l,1,[],[],[],[],[],[],[],0.606,1,556.1,556.599,,,,,,1194,MAS,CON,150,cable,,l,0.606,,556.599,556.599,0.037037037,-0.205555556,0,0,0,,0,238,238,293,1,,,,
,,,,,,ad8dfb2065e431eb6e1f68ad,66a626ef09d4e21e1a8894ec,6734e003e492068df123a5ed,2024-11-13_11h22.04.398,Tarea de género gramatical,2024.2.2,Win32,64.76683938,,,,,,,,,,,,,,,,,,,,,,,556.601,558.081,a,1,[],[],[],[],[],[],[],0.801,1,558.082,558.582,,,,,,1052,FEM,AGR,150,gente,la,a,0.801,,558.582,558.582,0.037037037,-0.205555556,0,0,0,,0,239,239,151,1,,,,
,,,,,,ad8dfb2065e431eb6e1f68ad,66a626ef09d4e21e1a8894ec,6734e003e492068df123a5ed,2024-11-13_11h22.04.398,Tarea de género gramatical,2024.2.2,Win32,64.76683938,,,,,,,,,,,,,,,,,,,,,,,558.583,559.831,l,1,[],[],[],[],[],[],[],0.571,1,559.832,560.332,,,,,,970,MAS,DIS,150,palo,la,l,0.571,,560.332,560.334,0.037037037,-0.205555556,0,0,0,,0,240,240,69,1,,,,
,,,,,,ad8dfb2065e431eb6e1f68ad,66a626ef09d4e21e1a8894ec,6734e003e492068df123a5ed,2024-11-13_11h22.04.398,Tarea de género gramatical,2024.2.2,Win32,64.76683938,,,,,,,,,,,,,,,,,,,,,,,560.334,561.765,l,1,[],[],[],[],[],[],[],0.75,1,561.765,562.265,,,,,,936,MAS,CON,150,dedo,,l,0.75,,562.265,562.265,0.037037037,-0.205555556,0,0,0,,0,241,241,35,1,,,,
,,,,,,ad8dfb2065e431eb6e1f68ad,66a626ef09d4e21e1a8894ec,6734e003e492068df123a5ed,2024-11-13_11h22.04.398,Tarea de género gramatical,2024.2.2,Win32,64.76683938,,,,,,,,,,,,,,,,,,,,,,,562.266,563.398,a,1,[],[],[],[],[],[],[],0.449,1,563.399,563.898,,,,,,1256,FEM,AGR,150,piedra,la,a,0.449,,563.898,563.898,0.037037037,-0.205555556,0,0,0,,0,242,242,355,1,,,,
,,,,,,ad8dfb2065e431eb6e1f68ad,66a626ef09d4e21e1a8894ec,6734e003e492068df123a5ed,2024-11-13_11h22.04.398,Tarea de género gramatical,2024.2.2,Win32,64.76683938,,,,,,,,,,,,,,,,,,,,,,,563.899,565.249,l,1,[],[],[],[],[],[],[],0.668,1,565.249,565.749,,,,,,1182,MAS,CON,150,bolso,,l,0.668,,565.749,565.749,0.037037037,-0.205555556,0,0,0,,0,243,243,281,1,,,,
,,,,,,ad8dfb2065e431eb6e1f68ad,66a626ef09d4e21e1a8894ec,6734e003e492068df123a5ed,2024-11-13_11h22.04.398,Tarea de género gramatical,2024.2.2,Win32,64.76683938,,,,,,,,,,,,,,,,,,,,,,,565.75,566.965,a,1,[],[],[],[],[],[],[],0.536,1,566.965,567.465,,,,,,1123,FEM,DIS,150,plata,el,a,0.536,,567.465,567.465,0.037037037,-0.205555556,0,0,0,,0,244,244,222,1,,,,
,,,,,,ad8dfb2065e431eb6e1f68ad,66a626ef09d4e21e1a8894ec,6734e003e492068df123a5ed,2024-11-13_11h22.04.398,Tarea de género gramatical,2024.2.2,Win32,64.76683938,,,,,,,,,,,,,,,,,,,,,,,567.466,568.532,l,1,[],[],[],[],[],[],[],0.383,1,568.532,569.031,,,,,,1158,MAS,CON,150,polvo,,l,0.383,,569.032,569.033,0.037037037,-0.205555556,0,0,0,,0,245,245,257,1,,,,
,,,,,,ad8dfb2065e431eb6e1f68ad,66a626ef09d4e21e1a8894ec,6734e003e492068df123a5ed,2024-11-13_11h22.04.398,Tarea de género gramatical,2024.2.2,Win32,64.76683938,,,,,,,,,,,,,,,,,,,,,,,569.034,570.232,l,1,[],[],[],[],[],[],[],0.524,1,570.232,570.731,,,,,,1200,MAS,CON,150,túnel,,l,0.524,,570.731,570.732,0.037037037,-0.205555556,0,0,0,,0,246,246,299,1,,,,
,,,,,,ad8dfb2065e431eb6e1f68ad,66a626ef09d4e21e1a8894ec,6734e003e492068df123a5ed,2024-11-13_11h22.04.398,Tarea de género gramatical,2024.2.2,Win32,64.76683938,,,,,,,,,,,,,,,,,,,,,,,570.733,571.915,l,1,[],[],[],[],[],[],[],0.505,1,571.916,572.414,,,,,,1132,MAS,DIS,150,calor,la,l,0.505,,572.414,572.415,0.037037037,-0.205555556,0,0,0,,0,247,247,231,1,,,,
,,,,,,ad8dfb2065e431eb6e1f68ad,66a626ef09d4e21e1a8894ec,6734e003e492068df123a5ed,2024-11-13_11h22.04.398,Tarea de género gramatical,2024.2.2,Win32,64.76683938,,,,,,,,,,,,,,,,,,,,,,,572.415,573.648,l,1,[],[],[],[],[],[],[],0.55,1,573.648,574.148,,,,,,971,MAS,AGR,150,pozo,el,l,0.55,,574.148,574.149,0.037037037,-0.205555556,0,0,0,,0,248,248,70,1,,,,
,,,,,,ad8dfb2065e431eb6e1f68ad,66a626ef09d4e21e1a8894ec,6734e003e492068df123a5ed,2024-11-13_11h22.04.398,Tarea de género gramatical,2024.2.2,Win32,64.76683938,,,,,,,,,,,,,,,,,,,,,,,574.149,575.265,a,1,[],[],[],[],[],[],[],0.435,1,575.265,575.765,,,,,,1089,FEM,CON,150,pista,,a,0.435,,575.766,575.766,0.037037037,-0.205555556,0,0,0,,0,249,249,188,1,,,,
,,,,,,ad8dfb2065e431eb6e1f68ad,66a626ef09d4e21e1a8894ec,6734e003e492068df123a5ed,2024-11-13_11h22.04.398,Tarea de género gramatical,2024.2.2,Win32,64.76683938,,,,,,,,,,,,,,,,,,,,,,,575.767,577.315,a,1,[],[],[],[],[],[],[],0.867,1,577.316,577.815,,,,,,1075,FEM,DIS,150,señal,el,a,0.867,,577.815,577.815,0.037037037,-0.205555556,0,0,0,,0,250,250,174,1,,,,
,,,,,,ad8dfb2065e431eb6e1f68ad,66a626ef09d4e21e1a8894ec,6734e003e492068df123a5ed,2024-11-13_11h22.04.398,Tarea de género gramatical,2024.2.2,Win32,64.76683938,,,,,,,,,,,,,,,,,,,,,,,577.816,579.015,a,1,[],[],[],[],[],[],[],0.519,1,579.015,579.515,,,,,,1173,FEM,CON,150,tarta,,a,0.519,,579.515,579.516,0.037037037,-0.205555556,0,0,0,,0,251,251,272,1,,,,
,,,,,,ad8dfb2065e431eb6e1f68ad,66a626ef09d4e21e1a8894ec,6734e003e492068df123a5ed,2024-11-13_11h22.04.398,Tarea de género gramatical,2024.2.2,Win32,64.76683938,,,,,,,,,,,,,,,,,,,,,,,579.516,580.831,l,1,[],[],[],[],[],[],[],0.634,1,580.832,581.332,,,,,,1348,MAS,DIS,150,aceite,la,l,0.634,,581.332,581.332,0.037037037,-0.205555556,0,0,0,,0,252,252,447,1,,,,
,,,,,,ad8dfb2065e431eb6e1f68ad,66a626ef09d4e21e1a8894ec,6734e003e492068df123a5ed,2024-11-13_11h22.04.398,Tarea de género gramatical,2024.2.2,Win32,64.76683938,,,,,,,,,,,,,,,,,,,,,,,581.333,582.832,a,1,[],[],[],[],[],[],[],0.817,1,582.832,583.332,,,,,,925,FEM,DIS,150,nave,el,a,0.817,,583.332,583.332,0.037037037,-0.205555556,0,0,0,,0,253,253,24,1,,,,
,,,,,,ad8dfb2065e431eb6e1f68ad,66a626ef09d4e21e1a8894ec,6734e003e492068df123a5ed,2024-11-13_11h22.04.398,Tarea de género gramatical,2024.2.2,Win32,64.76683938,,,,,,,,,,,,,,,,,,,,,,,583.333,584.548,a,1,[],[],[],[],[],[],[],0.533,1,584.549,585.048,,,,,,1287,FEM,CON,150,página,,a,0.533,,585.049,585.049,0.037037037,-0.205555556,0,0,0,,0,254,254,386,1,,,,
,,,,,,ad8dfb2065e431eb6e1f68ad,66a626ef09d4e21e1a8894ec,6734e003e492068df123a5ed,2024-11-13_11h22.04.398,Tarea de género gramatical,2024.2.2,Win32,64.76683938,,,,,,,,,,,,,,,,,,,,,,,585.051,586.248,l,1,[],[],[],[],[],[],[],0.518,1,586.248,586.748,,,,,,1318,MAS,DIS,150,pájaro,la,l,0.518,,586.748,586.749,0.037037037,-0.205555556,0,0,0,,0,255,255,417,1,,,,
,,,,,,ad8dfb2065e431eb6e1f68ad,66a626ef09d4e21e1a8894ec,6734e003e492068df123a5ed,2024-11-13_11h22.04.398,Tarea de género gramatical,2024.2.2,Win32,64.76683938,,,,,,,,,,,,,,,,,,,,,,,586.749,587.848,l,1,[],[],[],[],[],[],[],0.417,1,587.848,588.349,,,,,,954,MAS,CON,150,humo,,l,0.417,,588.349,588.349,0.037037037,-0.205555556,0,0,0,,0,256,256,53,1,,,,
