counterbalancing_condition,consent_prescreening.block_1/declare_consent,consent_prescreening.block_1/age_years,consent_prescreening.block_1/gender,consent_prescreening.block_1/language_disorder,consent_prescreening.block_1/first_language,PROLIFIC_PID,STUDY_ID,SESSION_ID,date,expName,psychopyVersion,OS,frameRate,check_prescreening_answers.started,check_prescreening_answers.stopped,Instructions.started,Instructions.stopped,instr_done_keyboard.keys,instr_done_keyboard.rt,instr_done_keyboard.duration,instr_done_touch.x,instr_done_touch.y,instr_done_touch.leftButton,instr_done_touch.midButton,instr_done_touch.rightButton,instruction_pages.thisRepN,instruction_pages.thisTrialN,instruction_pages.thisN,instruction_pages.thisIndex,instruction_pages.ran,pageN,phase,instruct_text,has_image,instruct_image,presentTrial.started,presentTrial.stopped,response.keys,response.corr,touch_resp.x,touch_resp.y,touch_resp.leftButton,touch_resp.midButton,touch_resp.rightButton,touch_resp.time,touch_resp.clicked_name,rt,corr,feedback.started,feedback.stopped,practice_trials.thisRepN,practice_trials.thisTrialN,practice_trials.thisN,practice_trials.thisIndex,practice_trials.ran,TrialID,StimulusType,Condition,PrimeDuration,Prime,Flanker,corrAns,response.rt,response.duration,Break.started,Break.stopped,break_done_touch.x,break_done_touch.y,break_done_touch.leftButton,break_done_touch.midButton,break_done_touch.rightButton,break_done_keyboard.keys,experiment_trials.thisRepN,experiment_trials.thisTrialN,experiment_trials.thisN,experiment_trials.thisIndex,experiment_trials.ran,break_done_touch.clicked_name,break_done_keyboard.rt,break_done_keyboard.duration,End.started,End.stopped
2,"[""over_18"",""comfortable"",""read_info"",""consent_given""]",29,F,"[""none""]","[""spanish""]",b0e6ab85ad689503665b6a67,66a626ef09d4e21e1a8894ec,6734d68ef573a3e9d4aa6e7f,2024-11-13_10h41.42.099,Tarea de género gramatical,2024.2.2,Win32,60.24096386,,,,,,,,,,,,,,,,,,,,,,,,,,,,,,,,,,,,,,,,,,,,,,,,,,,,,,,,,,,,,,,,,,,,,
,,,,,,b0e6ab85ad689503665b6a67,66a626ef09d4e21e1a8894ec,6734d68ef573a3e9d4aa6e7f,2024-11-13_10h41.42.099,Tarea de género gramatical,2024.2.2,Win32,60.24096386,49.2665,49.2669,,,,,,,,,,,,,,,,,,,,,,,,,,,,,,,,,,,,,,,,,,,,,,,,,,,,,,,,,,,,,,,,,,,
,,,,,,b0e6ab85ad689503665b6a67,66a626ef09d4e21e1a8894ec,6734d68ef573a3e9d4aa6e7f,2024-11-13_10h41.42.099,Tarea de género gramatical,2024.2.2,Win32,60.24096386,,,49.3384,64.8724,space,15.4434,,0.792731476,-0.360185242,0,0,0,0,0,0,0,1,1,instructions,"INSTRUCCIONES
Va a realizar una prueba de selección gramatical. Desde el comienzo de la prueba mire siempre al centro de la pantalla. Al cabo de un momento, aparecerán palabras. La tarea consiste en determinar si la palabra del centro (siempre será un sustantivo), pertenece al género masculino o femenino.

Pulse la tecla ESPACIO o toque el botón de abajo para continuar.",0,keyboardresponseMF.png,,,,,,,,,,,,,,,,,,,,,,,,,,,,,,,,,,,,,,,,,,,,,,,
,,,,,,b0e6ab85ad689503665b6a67,66a626ef09d4e21e1a8894ec,6734d68ef573a3e9d4aa6e7f,2024-11-13_10h41.42.099,Tarea de género gramatical,2024.2.2,Win32,60.24096386,,,64.8818,76.9995,space,11.9969,,0.792731476,-0.360185242,0,0,0,0,1,1,1,1,2,instructions,"Si su dispositivo tiene teclado, pulse la tecla ""A"" para las palabras en masculino (por ejemplo: ""arroz"") y la tecla ""L"" para las palabras en femenino (por ejemplo: ""mano"").
Pulse la tecla ESPACIO o toque el botón de abajo para continuar.",1,keyboardresponseMF.png,,,,,,,,,,,,,,,,,,,,,,,,,,,,,,,,,,,,,,,,,,,,,,,
,,,,,,b0e6ab85ad689503665b6a67,66a626ef09d4e21e1a8894ec,6734d68ef573a3e9d4aa6e7f,2024-11-13_10h41.42.099,Tarea de género gramatical,2024.2.2,Win32,60.24096386,,,77.006,87.4983,space,10.392,,0.792731476,-0.360185242,0,0,0,0,2,2,2,1,3,instructions,"Si utiliza un dispositivo sólo táctil, colóquelo en horizontal y utilice los botones de la pantalla. No utilice el ratón.
Pulse la tecla ESPACIO o toque el botón de abajo para continuar.",2,touchresponseMF.png,,,,,,,,,,,,,,,,,,,,,,,,,,,,,,,,,,,,,,,,,,,,,,,
,,,,,,b0e6ab85ad689503665b6a67,66a626ef09d4e21e1a8894ec,6734d68ef573a3e9d4aa6e7f,2024-11-13_10h41.42.099,Tarea de género gramatical,2024.2.2,Win32,60.24096386,,,87.5064,101.5032,space,13.9752,,0.792731476,-0.360185242,0,0,0,0,3,3,3,1,4,instructions,"Es muy importante que responda con la mayor rapidez y precisión posibles, ya que cada cadena de letras sólo estará en pantalla durante un instante. Si no responde en ese tiempo, aparecerá el mensaje ""Muy lento"" y el experimento pasará a la siguiente palabra. Los primeros 15 intentos serán de práctica y habrá dos descansos durante la prueba.
Pulse la tecla ESPACIO o toque el botón de abajo para iniciar la parte de práctica.",0,keyboardresponseMF.png,,,,,,,,,,,,,,,,,,,,,,,,,,,,,,,,,,,,,,,,,,,,,,,
,,,,,,b0e6ab85ad689503665b6a67,66a626ef09d4e21e1a8894ec,6734d68ef573a3e9d4aa6e7f,2024-11-13_10h41.42.099,Tarea de género gramatical,2024.2.2,Win32,60.24096386,,,,,,,,,,,,,,,,,,,,,,,101.5536,104.1965,,0,[],[],[],[],[],[],[],,-1,104.1973,104.6961,0,0,0,10,1,2011,MAS,CON,150,canal,,l,,,,,,,,,,,,,,,,,,,,
,,,,,,b0e6ab85ad689503665b6a67,66a626ef09d4e21e1a8894ec,6734d68ef573a3e9d4aa6e7f,2024-11-13_10h41.42.099,Tarea de género gramatical,2024.2.2,Win32,60.24096386,,,,,,,,,,,,,,,,,,,,,,,104.7012,106.2124,a,0,[],[],[],[],[],[],[],0.8328,0,106.2396,106.7121,0,1,1,2,1,2003,FEM,DIS,150,daga,el,a,0.8328,,,,,,,,,,,,,,,,,,,
,,,,,,b0e6ab85ad689503665b6a67,66a626ef09d4e21e1a8894ec,6734d68ef573a3e9d4aa6e7f,2024-11-13_10h41.42.099,Tarea de género gramatical,2024.2.2,Win32,60.24096386,,,,,,,,,,,,,,,,,,,,,,,106.7161,107.6787,l,1,[],[],[],[],[],[],[],0.2847,1,107.6815,108.1788,0,2,2,6,1,2007,FEM,AGR,150,navaja,la,a,0.2847,,,,,,,,,,,,,,,,,,,
,,,,,,b0e6ab85ad689503665b6a67,66a626ef09d4e21e1a8894ec,6734d68ef573a3e9d4aa6e7f,2024-11-13_10h41.42.099,Tarea de género gramatical,2024.2.2,Win32,60.24096386,,,,,,,,,,,,,,,,,,,,,,,108.183,109.3619,a,1,[],[],[],[],[],[],[],0.5033,1,109.3623,109.8617,0,3,3,9,1,2010,MAS,AGR,150,vecino,el,l,0.5033,,,,,,,,,,,,,,,,,,,
,,,,,,b0e6ab85ad689503665b6a67,66a626ef09d4e21e1a8894ec,6734d68ef573a3e9d4aa6e7f,2024-11-13_10h41.42.099,Tarea de género gramatical,2024.2.2,Win32,60.24096386,,,,,,,,,,,,,,,,,,,,,,,109.8648,111.0449,l,1,[],[],[],[],[],[],[],0.5029,1,111.0452,111.5448,0,4,4,0,1,2001,FEM,AGR,150,nuca,la,a,0.5029,,,,,,,,,,,,,,,,,,,
,,,,,,b0e6ab85ad689503665b6a67,66a626ef09d4e21e1a8894ec,6734d68ef573a3e9d4aa6e7f,2024-11-13_10h41.42.099,Tarea de género gramatical,2024.2.2,Win32,60.24096386,,,,,,,,,,,,,,,,,,,,,,,111.5491,112.7777,a,1,[],[],[],[],[],[],[],0.558,1,112.778,113.2778,0,5,5,8,1,2009,MAS,DIS,150,puerto,la,l,0.558,,,,,,,,,,,,,,,,,,,
,,,,,,b0e6ab85ad689503665b6a67,66a626ef09d4e21e1a8894ec,6734d68ef573a3e9d4aa6e7f,2024-11-13_10h41.42.099,Tarea de género gramatical,2024.2.2,Win32,60.24096386,,,,,,,,,,,,,,,,,,,,,,,113.2798,114.178,l,1,[],[],[],[],[],[],[],0.2196,1,114.1782,114.6778,0,6,6,1,1,2002,FEM,CON,150,pala,,a,0.2196,,,,,,,,,,,,,,,,,,,
,,,,,,b0e6ab85ad689503665b6a67,66a626ef09d4e21e1a8894ec,6734d68ef573a3e9d4aa6e7f,2024-11-13_10h41.42.099,Tarea de género gramatical,2024.2.2,Win32,60.24096386,,,,,,,,,,,,,,,,,,,,,,,114.6808,115.5444,a,0,[],[],[],[],[],[],[],0.1866,0,115.5463,116.0442,0,7,7,7,1,2008,FEM,CON,150,siesta,,a,0.1866,,,,,,,,,,,,,,,,,,,
,,,,,,b0e6ab85ad689503665b6a67,66a626ef09d4e21e1a8894ec,6734d68ef573a3e9d4aa6e7f,2024-11-13_10h41.42.099,Tarea de género gramatical,2024.2.2,Win32,60.24096386,,,,,,,,,,,,,,,,,,,,,,,116.0475,117.3106,l,0,[],[],[],[],[],[],[],0.5912,0,117.3109,117.8106,0,8,8,14,1,2015,MAS,DIS,150,robot,la,l,0.5912,,,,,,,,,,,,,,,,,,,
,,,,,,b0e6ab85ad689503665b6a67,66a626ef09d4e21e1a8894ec,6734d68ef573a3e9d4aa6e7f,2024-11-13_10h41.42.099,Tarea de género gramatical,2024.2.2,Win32,60.24096386,,,,,,,,,,,,,,,,,,,,,,,117.813,119.1113,l,1,[],[],[],[],[],[],[],0.6188,1,119.1129,119.6104,0,9,9,3,1,2004,FEM,AGR,150,venta,la,a,0.6188,,,,,,,,,,,,,,,,,,,
,,,,,,b0e6ab85ad689503665b6a67,66a626ef09d4e21e1a8894ec,6734d68ef573a3e9d4aa6e7f,2024-11-13_10h41.42.099,Tarea de género gramatical,2024.2.2,Win32,60.24096386,,,,,,,,,,,,,,,,,,,,,,,119.6126,120.8103,a,1,[],[],[],[],[],[],[],0.5226,1,120.8105,121.3101,0,10,10,12,1,2013,MAS,AGR,150,acero,el,l,0.5226,,,,,,,,,,,,,,,,,,,
,,,,,,b0e6ab85ad689503665b6a67,66a626ef09d4e21e1a8894ec,6734d68ef573a3e9d4aa6e7f,2024-11-13_10h41.42.099,Tarea de género gramatical,2024.2.2,Win32,60.24096386,,,,,,,,,,,,,,,,,,,,,,,121.3122,122.46,l,1,[],[],[],[],[],[],[],0.4699,1,122.4602,122.96,0,11,11,4,1,2005,FEM,CON,150,placa,,a,0.4699,,,,,,,,,,,,,,,,,,,
,,,,,,b0e6ab85ad689503665b6a67,66a626ef09d4e21e1a8894ec,6734d68ef573a3e9d4aa6e7f,2024-11-13_10h41.42.099,Tarea de género gramatical,2024.2.2,Win32,60.24096386,,,,,,,,,,,,,,,,,,,,,,,122.9621,124.1265,a,0,[],[],[],[],[],[],[],0.4866,0,124.1283,124.6262,0,12,12,5,1,2006,FEM,DIS,150,serie,el,a,0.4866,,,,,,,,,,,,,,,,,,,
,,,,,,b0e6ab85ad689503665b6a67,66a626ef09d4e21e1a8894ec,6734d68ef573a3e9d4aa6e7f,2024-11-13_10h41.42.099,Tarea de género gramatical,2024.2.2,Win32,60.24096386,,,,,,,,,,,,,,,,,,,,,,,124.6297,125.8429,l,0,[],[],[],[],[],[],[],0.533,0,125.8432,126.343,0,13,13,11,1,2012,MAS,DIS,150,clima,la,l,0.533,,,,,,,,,,,,,,,,,,,
,,,,,,b0e6ab85ad689503665b6a67,66a626ef09d4e21e1a8894ec,6734d68ef573a3e9d4aa6e7f,2024-11-13_10h41.42.099,Tarea de género gramatical,2024.2.2,Win32,60.24096386,,,,,,,,,,,,,,,,,,,,,,,126.3451,127.7756,a,1,[],[],[],[],[],[],[],0.7596,1,127.7773,128.2764,0,14,14,13,1,2014,MAS,CON,150,siglo,,l,0.7596,,,,,,,,,,,,,,,,,,,
,,,,,,b0e6ab85ad689503665b6a67,66a626ef09d4e21e1a8894ec,6734d68ef573a3e9d4aa6e7f,2024-11-13_10h41.42.099,Tarea de género gramatical,2024.2.2,Win32,60.24096386,,,136.0326,146.0908,space,10.0359,,0.792731476,-0.360185242,0,0,0,,,,,,,,,,,146.2191,147.4568,l,1,[],[],[],[],[],[],[],0.5695,1,147.4571,147.957,,,,,,1058,FEM,AGR,150,chica,la,a,0.5695,,147.9578,147.9698,0.792731476,-0.360185242,0,0,0,,0,0,0,157,1,,,,,
,,,,,,b0e6ab85ad689503665b6a67,66a626ef09d4e21e1a8894ec,6734d68ef573a3e9d4aa6e7f,2024-11-13_10h41.42.099,Tarea de género gramatical,2024.2.2,Win32,60.24096386,,,,,,,,,,,,,,,,,,,,,,,147.9728,149.2632,l,1,[],[],[],[],[],[],[],0.6277,1,149.2635,149.7571,,,,,,1130,FEM,AGR,150,regla,la,a,0.6277,,149.7574,149.758,0.792731476,-0.360185242,0,0,0,,0,1,1,229,1,,,,,
,,,,,,b0e6ab85ad689503665b6a67,66a626ef09d4e21e1a8894ec,6734d68ef573a3e9d4aa6e7f,2024-11-13_10h41.42.099,Tarea de género gramatical,2024.2.2,Win32,60.24096386,,,,,,,,,,,,,,,,,,,,,,,149.7607,151.0064,l,1,[],[],[],[],[],[],[],0.5675,1,151.0067,151.5067,,,,,,927,FEM,CON,150,mesa,,a,0.5675,,151.5104,151.513,0.792731476,-0.360185242,0,0,0,,0,2,2,26,1,,,,,
,,,,,,b0e6ab85ad689503665b6a67,66a626ef09d4e21e1a8894ec,6734d68ef573a3e9d4aa6e7f,2024-11-13_10h41.42.099,Tarea de género gramatical,2024.2.2,Win32,60.24096386,,,,,,,,,,,,,,,,,,,,,,,151.5149,153.096,l,0,[],[],[],[],[],[],[],0.901,0,153.098,153.5899,,,,,,1288,MAS,DIS,150,empleo,la,l,0.901,,153.5901,153.5905,0.792731476,-0.360185242,0,0,0,,0,3,3,387,1,,,,,
,,,,,,b0e6ab85ad689503665b6a67,66a626ef09d4e21e1a8894ec,6734d68ef573a3e9d4aa6e7f,2024-11-13_10h41.42.099,Tarea de género gramatical,2024.2.2,Win32,60.24096386,,,,,,,,,,,,,,,,,,,,,,,153.5935,154.8957,a,0,[],[],[],[],[],[],[],0.6279,0,154.8959,155.3925,,,,,,1003,FEM,DIS,150,fama,el,a,0.6279,,155.3926,155.3928,0.792731476,-0.360185242,0,0,0,,0,4,4,102,1,,,,,
,,,,,,b0e6ab85ad689503665b6a67,66a626ef09d4e21e1a8894ec,6734d68ef573a3e9d4aa6e7f,2024-11-13_10h41.42.099,Tarea de género gramatical,2024.2.2,Win32,60.24096386,,,,,,,,,,,,,,,,,,,,,,,155.3949,156.5428,l,1,[],[],[],[],[],[],[],0.4751,1,156.5446,157.0447,,,,,,1191,FEM,CON,150,aguja,,a,0.4751,,157.0449,157.0453,0.792731476,-0.360185242,0,0,0,,0,5,5,290,1,,,,,
,,,,,,b0e6ab85ad689503665b6a67,66a626ef09d4e21e1a8894ec,6734d68ef573a3e9d4aa6e7f,2024-11-13_10h41.42.099,Tarea de género gramatical,2024.2.2,Win32,60.24096386,,,,,,,,,,,,,,,,,,,,,,,157.0475,158.4452,a,1,[],[],[],[],[],[],[],0.727,1,158.4454,158.9387,,,,,,1313,MAS,AGR,150,diario,el,l,0.727,,158.9426,158.9455,0.792731476,-0.360185242,0,0,0,,0,6,6,412,1,,,,,
,,,,,,b0e6ab85ad689503665b6a67,66a626ef09d4e21e1a8894ec,6734d68ef573a3e9d4aa6e7f,2024-11-13_10h41.42.099,Tarea de género gramatical,2024.2.2,Win32,60.24096386,,,,,,,,,,,,,,,,,,,,,,,158.9473,160.295,l,0,[],[],[],[],[],[],[],0.678,0,160.2967,160.7886,,,,,,1126,MAS,DIS,150,color,la,l,0.678,,160.7888,160.7891,0.792731476,-0.360185242,0,0,0,,0,7,7,225,1,,,,,
,,,,,,b0e6ab85ad689503665b6a67,66a626ef09d4e21e1a8894ec,6734d68ef573a3e9d4aa6e7f,2024-11-13_10h41.42.099,Tarea de género gramatical,2024.2.2,Win32,60.24096386,,,,,,,,,,,,,,,,,,,,,,,160.7914,162.1615,l,1,[],[],[],[],[],[],[],0.6944,1,162.1633,162.6608,,,,,,1059,FEM,CON,150,clase,,a,0.6944,,162.661,162.6612,0.792731476,-0.360185242,0,0,0,,0,8,8,158,1,,,,,
,,,,,,b0e6ab85ad689503665b6a67,66a626ef09d4e21e1a8894ec,6734d68ef573a3e9d4aa6e7f,2024-11-13_10h41.42.099,Tarea de género gramatical,2024.2.2,Win32,60.24096386,,,,,,,,,,,,,,,,,,,,,,,162.6634,164.1111,l,0,[],[],[],[],[],[],[],0.7776,0,164.113,164.6107,,,,,,952,MAS,DIS,150,lago,la,l,0.7776,,164.6108,164.6111,0.792731476,-0.360185242,0,0,0,,0,9,9,51,1,,,,,
,,,,,,b0e6ab85ad689503665b6a67,66a626ef09d4e21e1a8894ec,6734d68ef573a3e9d4aa6e7f,2024-11-13_10h41.42.099,Tarea de género gramatical,2024.2.2,Win32,60.24096386,,,,,,,,,,,,,,,,,,,,,,,164.6134,165.8714,l,1,[],[],[],[],[],[],[],0.5847,1,165.8739,166.3601,,,,,,1281,FEM,CON,150,bebida,,a,0.5847,,166.3602,166.3606,0.792731476,-0.360185242,0,0,0,,0,10,10,380,1,,,,,
,,,,,,b0e6ab85ad689503665b6a67,66a626ef09d4e21e1a8894ec,6734d68ef573a3e9d4aa6e7f,2024-11-13_10h41.42.099,Tarea de género gramatical,2024.2.2,Win32,60.24096386,,,,,,,,,,,,,,,,,,,,,,,166.3626,167.6439,a,1,[],[],[],[],[],[],[],0.6009,1,167.644,168.1377,,,,,,1036,MAS,DIS,150,vago,la,l,0.6009,,168.1414,168.1441,0.792731476,-0.360185242,0,0,0,,0,11,11,135,1,,,,,
,,,,,,b0e6ab85ad689503665b6a67,66a626ef09d4e21e1a8894ec,6734d68ef573a3e9d4aa6e7f,2024-11-13_10h41.42.099,Tarea de género gramatical,2024.2.2,Win32,60.24096386,,,,,,,,,,,,,,,,,,,,,,,168.1465,169.4208,a,1,[],[],[],[],[],[],[],0.6027,1,169.4211,169.9266,,,,,,990,MAS,CON,150,león,,l,0.6027,,169.9267,169.9269,0.792731476,-0.360185242,0,0,0,,0,12,12,89,1,,,,,
,,,,,,b0e6ab85ad689503665b6a67,66a626ef09d4e21e1a8894ec,6734d68ef573a3e9d4aa6e7f,2024-11-13_10h41.42.099,Tarea de género gramatical,2024.2.2,Win32,60.24096386,,,,,,,,,,,,,,,,,,,,,,,169.9291,171.1939,l,0,[],[],[],[],[],[],[],0.5945,0,171.1956,171.6872,,,,,,1174,MAS,DIS,150,motor,la,l,0.5945,,171.6874,171.6876,0.792731476,-0.360185242,0,0,0,,0,13,13,273,1,,,,,
,,,,,,b0e6ab85ad689503665b6a67,66a626ef09d4e21e1a8894ec,6734d68ef573a3e9d4aa6e7f,2024-11-13_10h41.42.099,Tarea de género gramatical,2024.2.2,Win32,60.24096386,,,,,,,,,,,,,,,,,,,,,,,171.6908,172.8765,a,1,[],[],[],[],[],[],[],0.5111,1,172.8782,173.3735,,,,,,911,MAS,AGR,150,país,el,l,0.5111,,173.3736,173.3738,0.792731476,-0.360185242,0,0,0,,0,14,14,10,1,,,,,
,,,,,,b0e6ab85ad689503665b6a67,66a626ef09d4e21e1a8894ec,6734d68ef573a3e9d4aa6e7f,2024-11-13_10h41.42.099,Tarea de género gramatical,2024.2.2,Win32,60.24096386,,,,,,,,,,,,,,,,,,,,,,,173.376,174.8598,a,0,[],[],[],[],[],[],[],0.8175,0,174.8614,175.3532,,,,,,1321,FEM,DIS,150,novela,el,a,0.8175,,175.3571,175.3597,0.792731476,-0.360185242,0,0,0,,0,15,15,420,1,,,,,
,,,,,,b0e6ab85ad689503665b6a67,66a626ef09d4e21e1a8894ec,6734d68ef573a3e9d4aa6e7f,2024-11-13_10h41.42.099,Tarea de género gramatical,2024.2.2,Win32,60.24096386,,,,,,,,,,,,,,,,,,,,,,,175.3614,176.8869,a,0,[],[],[],[],[],[],[],0.8456,0,176.8872,177.3754,,,,,,913,FEM,DIS,150,hija,el,a,0.8456,,177.3755,177.3757,0.792731476,-0.360185242,0,0,0,,0,16,16,12,1,,,,,
,,,,,,b0e6ab85ad689503665b6a67,66a626ef09d4e21e1a8894ec,6734d68ef573a3e9d4aa6e7f,2024-11-13_10h41.42.099,Tarea de género gramatical,2024.2.2,Win32,60.24096386,,,,,,,,,,,,,,,,,,,,,,,177.3779,178.9758,l,0,[],[],[],[],[],[],[],0.933,0,178.976,179.4696,,,,,,988,MAS,DIS,150,pavo,la,l,0.933,,179.4698,179.4701,0.792731476,-0.360185242,0,0,0,,0,17,17,87,1,,,,,
,,,,,,b0e6ab85ad689503665b6a67,66a626ef09d4e21e1a8894ec,6734d68ef573a3e9d4aa6e7f,2024-11-13_10h41.42.099,Tarea de género gramatical,2024.2.2,Win32,60.24096386,,,,,,,,,,,,,,,,,,,,,,,179.4726,181.0527,a,0,[],[],[],[],[],[],[],0.8985,0,181.0529,181.5416,,,,,,985,FEM,DIS,150,gira,el,a,0.8985,,181.5418,181.542,0.792731476,-0.360185242,0,0,0,,0,18,18,84,1,,,,,
,,,,,,b0e6ab85ad689503665b6a67,66a626ef09d4e21e1a8894ec,6734d68ef573a3e9d4aa6e7f,2024-11-13_10h41.42.099,Tarea de género gramatical,2024.2.2,Win32,60.24096386,,,,,,,,,,,,,,,,,,,,,,,181.5441,182.9901,l,1,[],[],[],[],[],[],[],0.7755,1,182.992,183.4916,,,,,,1160,FEM,AGR,150,barra,la,a,0.7755,,183.4917,183.4919,0.792731476,-0.360185242,0,0,0,,0,19,19,259,1,,,,,
,,,,,,b0e6ab85ad689503665b6a67,66a626ef09d4e21e1a8894ec,6734d68ef573a3e9d4aa6e7f,2024-11-13_10h41.42.099,Tarea de género gramatical,2024.2.2,Win32,60.24096386,,,,,,,,,,,,,,,,,,,,,,,183.495,184.9858,a,1,[],[],[],[],[],[],[],0.804,1,184.9861,185.4923,,,,,,1121,MAS,AGR,150,brazo,el,l,0.804,,185.4957,185.4984,0.792731476,-0.360185242,0,0,0,,0,20,20,220,1,,,,,
,,,,,,b0e6ab85ad689503665b6a67,66a626ef09d4e21e1a8894ec,6734d68ef573a3e9d4aa6e7f,2024-11-13_10h41.42.099,Tarea de género gramatical,2024.2.2,Win32,60.24096386,,,,,,,,,,,,,,,,,,,,,,,185.501,186.8749,a,1,[],[],[],[],[],[],[],0.7009,1,186.875,187.3688,,,,,,1217,MAS,AGR,150,número,el,l,0.7009,,187.369,187.3692,0.792731476,-0.360185242,0,0,0,,0,21,21,316,1,,,,,
,,,,,,b0e6ab85ad689503665b6a67,66a626ef09d4e21e1a8894ec,6734d68ef573a3e9d4aa6e7f,2024-11-13_10h41.42.099,Tarea de género gramatical,2024.2.2,Win32,60.24096386,,,,,,,,,,,,,,,,,,,,,,,187.3718,188.691,a,1,[],[],[],[],[],[],[],0.6442,1,188.6912,189.1906,,,,,,953,MAS,AGR,150,vaso,el,l,0.6442,,189.1908,189.191,0.792731476,-0.360185242,0,0,0,,0,22,22,52,1,,,,,
,,,,,,b0e6ab85ad689503665b6a67,66a626ef09d4e21e1a8894ec,6734d68ef573a3e9d4aa6e7f,2024-11-13_10h41.42.099,Tarea de género gramatical,2024.2.2,Win32,60.24096386,,,,,,,,,,,,,,,,,,,,,,,189.1931,190.5741,l,1,[],[],[],[],[],[],[],0.7109,1,190.5743,191.068,,,,,,1117,FEM,DIS,150,tarea,el,a,0.7109,,191.0681,191.0684,0.792731476,-0.360185242,0,0,0,,0,23,23,216,1,,,,,
,,,,,,b0e6ab85ad689503665b6a67,66a626ef09d4e21e1a8894ec,6734d68ef573a3e9d4aa6e7f,2024-11-13_10h41.42.099,Tarea de género gramatical,2024.2.2,Win32,60.24096386,,,,,,,,,,,,,,,,,,,,,,,191.0708,192.6074,l,1,[],[],[],[],[],[],[],0.8512,1,192.6076,193.1012,,,,,,1124,FEM,AGR,150,arena,la,a,0.8512,,193.1054,193.108,0.792731476,-0.360185242,0,0,0,,0,24,24,223,1,,,,,
,,,,,,b0e6ab85ad689503665b6a67,66a626ef09d4e21e1a8894ec,6734d68ef573a3e9d4aa6e7f,2024-11-13_10h41.42.099,Tarea de género gramatical,2024.2.2,Win32,60.24096386,,,,,,,,,,,,,,,,,,,,,,,193.1099,194.4072,l,1,[],[],[],[],[],[],[],0.6275,1,194.4074,194.9011,,,,,,1077,FEM,CON,150,broma,,a,0.6275,,194.9013,194.9015,0.792731476,-0.360185242,0,0,0,,0,25,25,176,1,,,,,
,,,,,,b0e6ab85ad689503665b6a67,66a626ef09d4e21e1a8894ec,6734d68ef573a3e9d4aa6e7f,2024-11-13_10h41.42.099,Tarea de género gramatical,2024.2.2,Win32,60.24096386,,,,,,,,,,,,,,,,,,,,,,,194.9049,196.207,l,1,[],[],[],[],[],[],[],0.64,1,196.2071,196.7064,,,,,,1285,FEM,DIS,150,muñeca,el,a,0.64,,196.7065,196.7067,0.792731476,-0.360185242,0,0,0,,0,26,26,384,1,,,,,
,,,,,,b0e6ab85ad689503665b6a67,66a626ef09d4e21e1a8894ec,6734d68ef573a3e9d4aa6e7f,2024-11-13_10h41.42.099,Tarea de género gramatical,2024.2.2,Win32,60.24096386,,,,,,,,,,,,,,,,,,,,,,,196.7087,198.0338,a,1,[],[],[],[],[],[],[],0.6425,1,198.034,198.534,,,,,,1212,MAS,CON,150,equipo,,l,0.6425,,198.5342,198.5345,0.792731476,-0.360185242,0,0,0,,0,27,27,311,1,,,,,
,,,,,,b0e6ab85ad689503665b6a67,66a626ef09d4e21e1a8894ec,6734d68ef573a3e9d4aa6e7f,2024-11-13_10h41.42.099,Tarea de género gramatical,2024.2.2,Win32,60.24096386,,,,,,,,,,,,,,,,,,,,,,,198.5385,200.1837,a,1,[],[],[],[],[],[],[],0.9789,1,200.184,200.6727,,,,,,1234,MAS,DIS,150,ataque,la,l,0.9789,,200.6728,200.673,0.792731476,-0.360185242,0,0,0,,0,28,28,333,1,,,,,
,,,,,,b0e6ab85ad689503665b6a67,66a626ef09d4e21e1a8894ec,6734d68ef573a3e9d4aa6e7f,2024-11-13_10h41.42.099,Tarea de género gramatical,2024.2.2,Win32,60.24096386,,,,,,,,,,,,,,,,,,,,,,,200.6752,201.9229,l,1,[],[],[],[],[],[],[],0.5678,1,201.9232,202.4224,,,,,,1099,FEM,DIS,150,nariz,el,a,0.5678,,202.4258,202.4283,0.792731476,-0.360185242,0,0,0,,0,29,29,198,1,,,,,
,,,,,,b0e6ab85ad689503665b6a67,66a626ef09d4e21e1a8894ec,6734d68ef573a3e9d4aa6e7f,2024-11-13_10h41.42.099,Tarea de género gramatical,2024.2.2,Win32,60.24096386,,,,,,,,,,,,,,,,,,,,,,,202.4301,203.787,a,1,[],[],[],[],[],[],[],0.6845,1,203.7871,204.2832,,,,,,1236,MAS,CON,150,crimen,,l,0.6845,,204.2832,204.2835,0.792731476,-0.360185242,0,0,0,,0,30,30,335,1,,,,,
,,,,,,b0e6ab85ad689503665b6a67,66a626ef09d4e21e1a8894ec,6734d68ef573a3e9d4aa6e7f,2024-11-13_10h41.42.099,Tarea de género gramatical,2024.2.2,Win32,60.24096386,,,,,,,,,,,,,,,,,,,,,,,204.286,205.3991,l,1,[],[],[],[],[],[],[],0.4524,1,205.3993,205.8885,,,,,,1184,FEM,AGR,150,fruta,la,a,0.4524,,205.8886,205.8887,0.792731476,-0.360185242,0,0,0,,0,31,31,283,1,,,,,
,,,,,,b0e6ab85ad689503665b6a67,66a626ef09d4e21e1a8894ec,6734d68ef573a3e9d4aa6e7f,2024-11-13_10h41.42.099,Tarea de género gramatical,2024.2.2,Win32,60.24096386,,,,,,,,,,,,,,,,,,,,,,,205.8914,207.0662,a,1,[],[],[],[],[],[],[],0.4961,1,207.0664,207.5552,,,,,,1301,MAS,AGR,150,abrigo,el,l,0.4961,,207.5553,207.5555,0.792731476,-0.360185242,0,0,0,,0,32,32,400,1,,,,,
,,,,,,b0e6ab85ad689503665b6a67,66a626ef09d4e21e1a8894ec,6734d68ef573a3e9d4aa6e7f,2024-11-13_10h41.42.099,Tarea de género gramatical,2024.2.2,Win32,60.24096386,,,,,,,,,,,,,,,,,,,,,,,207.5579,208.9527,a,1,[],[],[],[],[],[],[],0.7179,1,208.9529,209.4487,,,,,,1120,MAS,DIS,150,huevo,la,l,0.7179,,209.453,209.4559,0.792731476,-0.360185242,0,0,0,,0,33,33,219,1,,,,,
,,,,,,b0e6ab85ad689503665b6a67,66a626ef09d4e21e1a8894ec,6734d68ef573a3e9d4aa6e7f,2024-11-13_10h41.42.099,Tarea de género gramatical,2024.2.2,Win32,60.24096386,,,,,,,,,,,,,,,,,,,,,,,209.4578,210.7156,a,1,[],[],[],[],[],[],[],0.5846,1,210.7159,211.2222,,,,,,1258,MAS,DIS,150,motivo,la,l,0.5846,,211.2224,211.2227,0.792731476,-0.360185242,0,0,0,,0,34,34,357,1,,,,,
,,,,,,b0e6ab85ad689503665b6a67,66a626ef09d4e21e1a8894ec,6734d68ef573a3e9d4aa6e7f,2024-11-13_10h41.42.099,Tarea de género gramatical,2024.2.2,Win32,60.24096386,,,,,,,,,,,,,,,,,,,,,,,211.2254,212.3485,l,1,[],[],[],[],[],[],[],0.4445,1,212.3489,212.8377,,,,,,1293,FEM,CON,150,alarma,,a,0.4445,,212.8378,212.838,0.792731476,-0.360185242,0,0,0,,0,35,35,392,1,,,,,
,,,,,,b0e6ab85ad689503665b6a67,66a626ef09d4e21e1a8894ec,6734d68ef573a3e9d4aa6e7f,2024-11-13_10h41.42.099,Tarea de género gramatical,2024.2.2,Win32,60.24096386,,,,,,,,,,,,,,,,,,,,,,,212.8403,214.1727,a,1,[],[],[],[],[],[],[],0.6522,1,214.1728,214.6649,,,,,,910,MAS,DIS,150,niño,la,l,0.6522,,214.6652,214.6654,0.792731476,-0.360185242,0,0,0,,0,36,36,9,1,,,,,
,,,,,,b0e6ab85ad689503665b6a67,66a626ef09d4e21e1a8894ec,6734d68ef573a3e9d4aa6e7f,2024-11-13_10h41.42.099,Tarea de género gramatical,2024.2.2,Win32,60.24096386,,,,,,,,,,,,,,,,,,,,,,,214.6679,215.9545,l,1,[],[],[],[],[],[],[],0.6011,1,215.9547,216.448,,,,,,1141,FEM,DIS,150,pasta,el,a,0.6011,,216.4482,216.4484,0.792731476,-0.360185242,0,0,0,,0,37,37,240,1,,,,,
,,,,,,b0e6ab85ad689503665b6a67,66a626ef09d4e21e1a8894ec,6734d68ef573a3e9d4aa6e7f,2024-11-13_10h41.42.099,Tarea de género gramatical,2024.2.2,Win32,60.24096386,,,,,,,,,,,,,,,,,,,,,,,216.4508,217.8542,a,0,[],[],[],[],[],[],[],0.7275,0,217.856,218.3479,,,,,,1111,FEM,DIS,150,salud,el,a,0.7275,,218.3518,218.3545,0.792731476,-0.360185242,0,0,0,,0,38,38,210,1,,,,,
,,,,,,b0e6ab85ad689503665b6a67,66a626ef09d4e21e1a8894ec,6734d68ef573a3e9d4aa6e7f,2024-11-13_10h41.42.099,Tarea de género gramatical,2024.2.2,Win32,60.24096386,,,,,,,,,,,,,,,,,,,,,,,218.3563,219.9718,l,1,[],[],[],[],[],[],[],0.9457,1,219.9733,220.4645,,,,,,1328,FEM,AGR,150,jugada,la,a,0.9457,,220.4647,220.465,0.792731476,-0.360185242,0,0,0,,0,39,39,427,1,,,,,
,,,,,,b0e6ab85ad689503665b6a67,66a626ef09d4e21e1a8894ec,6734d68ef573a3e9d4aa6e7f,2024-11-13_10h41.42.099,Tarea de género gramatical,2024.2.2,Win32,60.24096386,,,,,,,,,,,,,,,,,,,,,,,220.4674,221.6216,l,1,[],[],[],[],[],[],[],0.4958,1,221.6218,222.1144,,,,,,1016,FEM,AGR,150,nube,la,a,0.4958,,222.1145,222.1147,0.792731476,-0.360185242,0,0,0,,0,40,40,115,1,,,,,
,,,,,,b0e6ab85ad689503665b6a67,66a626ef09d4e21e1a8894ec,6734d68ef573a3e9d4aa6e7f,2024-11-13_10h41.42.099,Tarea de género gramatical,2024.2.2,Win32,60.24096386,,,,,,,,,,,,,,,,,,,,,,,222.117,223.464,a,1,[],[],[],[],[],[],[],0.6795,1,223.4644,223.9641,,,,,,1252,MAS,DIS,150,estilo,la,l,0.6795,,223.9642,223.9645,0.792731476,-0.360185242,0,0,0,,0,41,41,351,1,,,,,
,,,,,,b0e6ab85ad689503665b6a67,66a626ef09d4e21e1a8894ec,6734d68ef573a3e9d4aa6e7f,2024-11-13_10h41.42.099,Tarea de género gramatical,2024.2.2,Win32,60.24096386,,,,,,,,,,,,,,,,,,,,,,,223.9668,225.1367,a,1,[],[],[],[],[],[],[],0.4946,1,225.1369,225.6359,,,,,,1259,MAS,AGR,150,bosque,el,l,0.4946,,225.6383,225.6409,0.792731476,-0.360185242,0,0,0,,0,42,42,358,1,,,,,
,,,,,,b0e6ab85ad689503665b6a67,66a626ef09d4e21e1a8894ec,6734d68ef573a3e9d4aa6e7f,2024-11-13_10h41.42.099,Tarea de género gramatical,2024.2.2,Win32,60.24096386,,,,,,,,,,,,,,,,,,,,,,,225.6429,226.5673,a,0,[],[],[],[],[],[],[],0.2487,0,226.5689,227.0632,,,,,,1268,FEM,AGR,150,gracia,la,a,0.2487,,227.0634,227.0637,0.792731476,-0.360185242,0,0,0,,0,43,43,367,1,,,,,
,,,,,,b0e6ab85ad689503665b6a67,66a626ef09d4e21e1a8894ec,6734d68ef573a3e9d4aa6e7f,2024-11-13_10h41.42.099,Tarea de género gramatical,2024.2.2,Win32,60.24096386,,,,,,,,,,,,,,,,,,,,,,,227.0664,228.3634,l,1,[],[],[],[],[],[],[],0.6345,1,228.3654,228.8523,,,,,,1280,FEM,AGR,150,madera,la,a,0.6345,,228.8525,228.8526,0.792731476,-0.360185242,0,0,0,,0,44,44,379,1,,,,,
,,,,,,b0e6ab85ad689503665b6a67,66a626ef09d4e21e1a8894ec,6734d68ef573a3e9d4aa6e7f,2024-11-13_10h41.42.099,Tarea de género gramatical,2024.2.2,Win32,60.24096386,,,,,,,,,,,,,,,,,,,,,,,228.8555,230.2194,a,1,[],[],[],[],[],[],[],0.6944,1,230.2196,230.7127,,,,,,1031,MAS,AGR,150,kilo,el,l,0.6944,,230.7129,230.7132,0.792731476,-0.360185242,0,0,0,,0,45,45,130,1,,,,,
,,,,,,b0e6ab85ad689503665b6a67,66a626ef09d4e21e1a8894ec,6734d68ef573a3e9d4aa6e7f,2024-11-13_10h41.42.099,Tarea de género gramatical,2024.2.2,Win32,60.24096386,,,,,,,,,,,,,,,,,,,,,,,230.7157,231.9188,l,1,[],[],[],[],[],[],[],0.5148,1,231.9189,232.4125,,,,,,1292,FEM,AGR,150,maleta,la,a,0.5148,,232.4127,232.4131,0.792731476,-0.360185242,0,0,0,,0,46,46,391,1,,,,,
,,,,,,b0e6ab85ad689503665b6a67,66a626ef09d4e21e1a8894ec,6734d68ef573a3e9d4aa6e7f,2024-11-13_10h41.42.099,Tarea de género gramatical,2024.2.2,Win32,60.24096386,,,,,,,,,,,,,,,,,,,,,,,232.4155,233.7959,a,1,[],[],[],[],[],[],[],0.7191,1,233.7961,234.2958,,,,,,1198,MAS,DIS,150,botón,la,l,0.7191,,234.2992,234.3019,0.792731476,-0.360185242,0,0,0,,0,47,47,297,1,,,,,
,,,,,,b0e6ab85ad689503665b6a67,66a626ef09d4e21e1a8894ec,6734d68ef573a3e9d4aa6e7f,2024-11-13_10h41.42.099,Tarea de género gramatical,2024.2.2,Win32,60.24096386,,,,,,,,,,,,,,,,,,,,,,,234.3038,235.7186,l,1,[],[],[],[],[],[],[],0.7443,1,235.7188,236.218,,,,,,1310,FEM,AGR,150,piedad,la,a,0.7443,,236.2181,236.2183,0.792731476,-0.360185242,0,0,0,,0,48,48,409,1,,,,,
,,,,,,b0e6ab85ad689503665b6a67,66a626ef09d4e21e1a8894ec,6734d68ef573a3e9d4aa6e7f,2024-11-13_10h41.42.099,Tarea de género gramatical,2024.2.2,Win32,60.24096386,,,,,,,,,,,,,,,,,,,,,,,236.2203,237.5184,a,1,[],[],[],[],[],[],[],0.6178,1,237.5186,238.012,,,,,,1290,MAS,CON,150,rostro,,l,0.6178,,238.0122,238.0124,0.792731476,-0.360185242,0,0,0,,0,49,49,389,1,,,,,
,,,,,,b0e6ab85ad689503665b6a67,66a626ef09d4e21e1a8894ec,6734d68ef573a3e9d4aa6e7f,2024-11-13_10h41.42.099,Tarea de género gramatical,2024.2.2,Win32,60.24096386,,,,,,,,,,,,,,,,,,,,,,,238.015,239.2191,l,1,[],[],[],[],[],[],[],0.5352,1,239.2194,239.7121,,,,,,1053,FEM,CON,150,mujer,,a,0.5352,,239.7123,239.7125,0.792731476,-0.360185242,0,0,0,,0,50,50,152,1,,,,,
,,,,,,b0e6ab85ad689503665b6a67,66a626ef09d4e21e1a8894ec,6734d68ef573a3e9d4aa6e7f,2024-11-13_10h41.42.099,Tarea de género gramatical,2024.2.2,Win32,60.24096386,,,,,,,,,,,,,,,,,,,,,,,239.7148,240.9847,a,1,[],[],[],[],[],[],[],0.5948,1,240.9848,241.4849,,,,,,1264,MAS,DIS,150,viento,la,l,0.5948,,241.4875,241.4903,0.792731476,-0.360185242,0,0,0,,0,51,51,363,1,,,,,
,,,,,,b0e6ab85ad689503665b6a67,66a626ef09d4e21e1a8894ec,6734d68ef573a3e9d4aa6e7f,2024-11-13_10h41.42.099,Tarea de género gramatical,2024.2.2,Win32,60.24096386,,,,,,,,,,,,,,,,,,,,,,,241.4921,242.9177,a,1,[],[],[],[],[],[],[],0.7511,1,242.9179,243.4169,,,,,,1241,MAS,AGR,150,precio,el,l,0.7511,,243.4171,243.4174,0.792731476,-0.360185242,0,0,0,,0,52,52,340,1,,,,,
,,,,,,b0e6ab85ad689503665b6a67,66a626ef09d4e21e1a8894ec,6734d68ef573a3e9d4aa6e7f,2024-11-13_10h41.42.099,Tarea de género gramatical,2024.2.2,Win32,60.24096386,,,,,,,,,,,,,,,,,,,,,,,243.4196,244.7115,l,1,[],[],[],[],[],[],[],0.618,1,244.7118,245.2176,,,,,,1167,FEM,CON,150,barba,,a,0.618,,245.2177,245.2181,0.792731476,-0.360185242,0,0,0,,0,53,53,266,1,,,,,
,,,,,,b0e6ab85ad689503665b6a67,66a626ef09d4e21e1a8894ec,6734d68ef573a3e9d4aa6e7f,2024-11-13_10h41.42.099,Tarea de género gramatical,2024.2.2,Win32,60.24096386,,,,,,,,,,,,,,,,,,,,,,,245.2205,246.5838,a,1,[],[],[],[],[],[],[],0.6946,1,246.584,247.0776,,,,,,1342,MAS,DIS,150,cuadro,la,l,0.6946,,247.0777,247.0779,0.792731476,-0.360185242,0,0,0,,0,54,54,441,1,,,,,
,,,,,,b0e6ab85ad689503665b6a67,66a626ef09d4e21e1a8894ec,6734d68ef573a3e9d4aa6e7f,2024-11-13_10h41.42.099,Tarea de género gramatical,2024.2.2,Win32,60.24096386,,,,,,,,,,,,,,,,,,,,,,,247.0806,248.3003,l,0,[],[],[],[],[],[],[],0.5511,0,248.3056,248.7943,,,,,,1032,MAS,CON,150,velo,,l,0.5511,,248.7944,248.7946,0.792731476,-0.360185242,0,0,0,,0,55,55,131,1,,,,,
,,,,,,b0e6ab85ad689503665b6a67,66a626ef09d4e21e1a8894ec,6734d68ef573a3e9d4aa6e7f,2024-11-13_10h41.42.099,Tarea de género gramatical,2024.2.2,Win32,60.24096386,,,,,,,,,,,,,,,,,,,,,,,248.7972,250.0499,l,1,[],[],[],[],[],[],[],0.5776,1,250.0514,250.5508,,,,,,1149,FEM,CON,150,crema,,a,0.5776,,250.5536,250.5562,0.792731476,-0.360185242,0,0,0,,0,56,56,248,1,,,,,
,,,,,,b0e6ab85ad689503665b6a67,66a626ef09d4e21e1a8894ec,6734d68ef573a3e9d4aa6e7f,2024-11-13_10h41.42.099,Tarea de género gramatical,2024.2.2,Win32,60.24096386,,,,,,,,,,,,,,,,,,,,,,,250.5578,251.7165,a,1,[],[],[],[],[],[],[],0.4842,1,251.7166,252.2104,,,,,,1062,MAS,CON,150,miedo,,l,0.4842,,252.2105,252.2108,0.792731476,-0.360185242,0,0,0,,0,57,57,161,1,,,,,
,,,,,,b0e6ab85ad689503665b6a67,66a626ef09d4e21e1a8894ec,6734d68ef573a3e9d4aa6e7f,2024-11-13_10h41.42.099,Tarea de género gramatical,2024.2.2,Win32,60.24096386,,,,,,,,,,,,,,,,,,,,,,,252.2131,253.3831,l,1,[],[],[],[],[],[],[],0.5113,1,253.3834,253.877,,,,,,987,FEM,CON,150,risa,,a,0.5113,,253.8772,253.8774,0.792731476,-0.360185242,0,0,0,,0,58,58,86,1,,,,,
,,,,,,b0e6ab85ad689503665b6a67,66a626ef09d4e21e1a8894ec,6734d68ef573a3e9d4aa6e7f,2024-11-13_10h41.42.099,Tarea de género gramatical,2024.2.2,Win32,60.24096386,,,,,,,,,,,,,,,,,,,,,,,253.8797,255.2428,l,1,[],[],[],[],[],[],[],0.7037,1,255.243,255.733,,,,,,1035,FEM,CON,150,raíz,,a,0.7037,,255.7332,255.7333,0.792731476,-0.360185242,0,0,0,,0,59,59,134,1,,,,,
,,,,,,b0e6ab85ad689503665b6a67,66a626ef09d4e21e1a8894ec,6734d68ef573a3e9d4aa6e7f,2024-11-13_10h41.42.099,Tarea de género gramatical,2024.2.2,Win32,60.24096386,,,,,,,,,,,,,,,,,,,,,,,255.7357,257.043,a,1,[],[],[],[],[],[],[],0.6207,1,257.0433,257.5323,,,,,,971,MAS,AGR,150,pozo,el,l,0.6207,,257.5352,257.5377,0.792731476,-0.360185242,0,0,0,,0,60,60,70,1,,,,,
,,,,,,b0e6ab85ad689503665b6a67,66a626ef09d4e21e1a8894ec,6734d68ef573a3e9d4aa6e7f,2024-11-13_10h41.42.099,Tarea de género gramatical,2024.2.2,Win32,60.24096386,,,,,,,,,,,,,,,,,,,,,,,257.5396,258.8322,l,1,[],[],[],[],[],[],[],0.6279,1,258.8324,259.3319,,,,,,961,FEM,DIS,150,ruta,el,a,0.6279,,259.332,259.3323,0.792731476,-0.360185242,0,0,0,,0,61,61,60,1,,,,,
,,,,,,b0e6ab85ad689503665b6a67,66a626ef09d4e21e1a8894ec,6734d68ef573a3e9d4aa6e7f,2024-11-13_10h41.42.099,Tarea de género gramatical,2024.2.2,Win32,60.24096386,,,,,,,,,,,,,,,,,,,,,,,259.3345,260.6497,l,1,[],[],[],[],[],[],[],0.6354,1,260.6499,261.148,,,,,,998,FEM,AGR,150,fuga,la,a,0.6354,,261.1482,261.1484,0.792731476,-0.360185242,0,0,0,,0,62,62,97,1,,,,,
,,,,,,b0e6ab85ad689503665b6a67,66a626ef09d4e21e1a8894ec,6734d68ef573a3e9d4aa6e7f,2024-11-13_10h41.42.099,Tarea de género gramatical,2024.2.2,Win32,60.24096386,,,,,,,,,,,,,,,,,,,,,,,261.1504,262.4923,a,1,[],[],[],[],[],[],[],0.6742,1,262.4926,262.9814,,,,,,923,MAS,AGR,150,rato,el,l,0.6742,,262.9816,262.9818,0.792731476,-0.360185242,0,0,0,,0,63,63,22,1,,,,,
,,,,,,b0e6ab85ad689503665b6a67,66a626ef09d4e21e1a8894ec,6734d68ef573a3e9d4aa6e7f,2024-11-13_10h41.42.099,Tarea de género gramatical,2024.2.2,Win32,60.24096386,,,,,,,,,,,,,,,,,,,,,,,262.9838,264.5816,a,1,[],[],[],[],[],[],[],0.9179,1,264.5818,265.075,,,,,,1156,MAS,DIS,150,techo,la,l,0.9179,,265.0752,265.0754,0.792731476,-0.360185242,0,0,0,,0,64,64,255,1,,,,,
,,,,,,b0e6ab85ad689503665b6a67,66a626ef09d4e21e1a8894ec,6734d68ef573a3e9d4aa6e7f,2024-11-13_10h41.42.099,Tarea de género gramatical,2024.2.2,Win32,60.24096386,,,,,,,,,,,,,,,,,,,,,,,265.0778,266.3313,l,1,[],[],[],[],[],[],[],0.5842,1,266.3314,266.8308,,,,,,1303,FEM,DIS,150,paliza,el,a,0.5842,,266.8334,266.8363,0.792731476,-0.360185242,0,0,0,,0,65,65,402,1,,,,,
,,,,,,b0e6ab85ad689503665b6a67,66a626ef09d4e21e1a8894ec,6734d68ef573a3e9d4aa6e7f,2024-11-13_10h41.42.099,Tarea de género gramatical,2024.2.2,Win32,60.24096386,,,,,,,,,,,,,,,,,,,,,,,266.838,268.0119,a,1,[],[],[],[],[],[],[],0.5084,1,268.012,268.5139,,,,,,1181,MAS,AGR,150,actor,el,l,0.5084,,268.514,268.5142,0.792731476,-0.360185242,0,0,0,,0,66,66,280,1,,,,,
,,,,,,b0e6ab85ad689503665b6a67,66a626ef09d4e21e1a8894ec,6734d68ef573a3e9d4aa6e7f,2024-11-13_10h41.42.099,Tarea de género gramatical,2024.2.2,Win32,60.24096386,,,,,,,,,,,,,,,,,,,,,,,268.5164,269.7914,a,1,[],[],[],[],[],[],[],0.6028,1,269.7917,270.2914,,,,,,1284,MAS,CON,150,pedazo,,l,0.6028,,270.2915,270.2917,0.792731476,-0.360185242,0,0,0,,0,67,67,383,1,,,,,
,,,,,,b0e6ab85ad689503665b6a67,66a626ef09d4e21e1a8894ec,6734d68ef573a3e9d4aa6e7f,2024-11-13_10h41.42.099,Tarea de género gramatical,2024.2.2,Win32,60.24096386,,,,,,,,,,,,,,,,,,,,,,,270.2943,271.5907,a,1,[],[],[],[],[],[],[],0.6348,1,271.591,272.0911,,,,,,1242,MAS,CON,150,abuelo,,l,0.6348,,272.0913,272.0916,0.792731476,-0.360185242,0,0,0,,0,68,68,341,1,,,,,
,,,,,,b0e6ab85ad689503665b6a67,66a626ef09d4e21e1a8894ec,6734d68ef573a3e9d4aa6e7f,2024-11-13_10h41.42.099,Tarea de género gramatical,2024.2.2,Win32,60.24096386,,,,,,,,,,,,,,,,,,,,,,,272.094,273.3073,a,1,[],[],[],[],[],[],[],0.5438,1,273.3076,273.8075,,,,,,1013,MAS,AGR,150,toro,el,l,0.5438,,273.8107,273.8133,0.792731476,-0.360185242,0,0,0,,0,69,69,112,1,,,,,
,,,,,,b0e6ab85ad689503665b6a67,66a626ef09d4e21e1a8894ec,6734d68ef573a3e9d4aa6e7f,2024-11-13_10h41.42.099,Tarea de género gramatical,2024.2.2,Win32,60.24096386,,,,,,,,,,,,,,,,,,,,,,,273.815,275.0303,l,1,[],[],[],[],[],[],[],0.5344,1,275.0304,275.5241,,,,,,1101,FEM,CON,150,leche,,a,0.5344,,275.5243,275.5247,0.792731476,-0.360185242,0,0,0,,0,70,70,200,1,,,,,
,,,,,,b0e6ab85ad689503665b6a67,66a626ef09d4e21e1a8894ec,6734d68ef573a3e9d4aa6e7f,2024-11-13_10h41.42.099,Tarea de género gramatical,2024.2.2,Win32,60.24096386,,,,,,,,,,,,,,,,,,,,,,,275.5271,276.7634,a,1,[],[],[],[],[],[],[],0.5613,1,276.7635,277.2572,,,,,,1128,MAS,CON,150,nivel,,l,0.5613,,277.2574,277.2576,0.792731476,-0.360185242,0,0,0,,0,71,71,227,1,,,,,
,,,,,,b0e6ab85ad689503665b6a67,66a626ef09d4e21e1a8894ec,6734d68ef573a3e9d4aa6e7f,2024-11-13_10h41.42.099,Tarea de género gramatical,2024.2.2,Win32,60.24096386,,,,,,,,,,,,,,,,,,,,,,,277.26,278.5297,l,1,[],[],[],[],[],[],[],0.611,1,278.5299,279.0237,,,,,,1129,FEM,DIS,150,celda,el,a,0.611,,279.0238,279.0241,0.792731476,-0.360185242,0,0,0,,0,72,72,228,1,,,,,
,,,,,,b0e6ab85ad689503665b6a67,66a626ef09d4e21e1a8894ec,6734d68ef573a3e9d4aa6e7f,2024-11-13_10h41.42.099,Tarea de género gramatical,2024.2.2,Win32,60.24096386,,,,,,,,,,,,,,,,,,,,,,,279.0265,280.3902,l,1,[],[],[],[],[],[],[],0.6909,1,280.3905,280.8786,,,,,,1071,FEM,CON,150,mitad,,a,0.6909,,280.8788,280.879,0.792731476,-0.360185242,0,0,0,,0,73,73,170,1,,,,,
,,,,,,b0e6ab85ad689503665b6a67,66a626ef09d4e21e1a8894ec,6734d68ef573a3e9d4aa6e7f,2024-11-13_10h41.42.099,Tarea de género gramatical,2024.2.2,Win32,60.24096386,,,,,,,,,,,,,,,,,,,,,,,280.8809,282.2794,a,1,[],[],[],[],[],[],[],0.7178,1,282.2796,282.7728,,,,,,1098,MAS,CON,150,hotel,,l,0.7178,,282.7759,282.7785,0.792731476,-0.360185242,0,0,0,,0,74,74,197,1,,,,,
,,,,,,b0e6ab85ad689503665b6a67,66a626ef09d4e21e1a8894ec,6734d68ef573a3e9d4aa6e7f,2024-11-13_10h41.42.099,Tarea de género gramatical,2024.2.2,Win32,60.24096386,,,,,,,,,,,,,,,,,,,,,,,282.7803,283.9896,l,1,[],[],[],[],[],[],[],0.5245,1,283.9899,284.4786,,,,,,1028,FEM,AGR,150,leña,la,a,0.5245,,284.4787,284.479,0.792731476,-0.360185242,0,0,0,,0,75,75,127,1,,,,,
,,,,,,b0e6ab85ad689503665b6a67,66a626ef09d4e21e1a8894ec,6734d68ef573a3e9d4aa6e7f,2024-11-13_10h41.42.099,Tarea de género gramatical,2024.2.2,Win32,60.24096386,,,,,,,,,,,,,,,,,,,,,,,284.481,285.6892,a,1,[],[],[],[],[],[],[],0.5346,1,285.6895,286.1783,,,,,,1248,MAS,CON,150,anillo,,l,0.5346,,286.1785,286.1787,0.792731476,-0.360185242,0,0,0,,0,76,76,347,1,,,,,
,,,,,,b0e6ab85ad689503665b6a67,66a626ef09d4e21e1a8894ec,6734d68ef573a3e9d4aa6e7f,2024-11-13_10h41.42.099,Tarea de género gramatical,2024.2.2,Win32,60.24096386,,,,,,,,,,,,,,,,,,,,,,,286.1805,287.3892,a,1,[],[],[],[],[],[],[],0.535,1,287.3895,287.8947,,,,,,1122,MAS,CON,150,valor,,l,0.535,,287.8947,287.895,0.792731476,-0.360185242,0,0,0,,0,77,77,221,1,,,,,
,,,,,,b0e6ab85ad689503665b6a67,66a626ef09d4e21e1a8894ec,6734d68ef573a3e9d4aa6e7f,2024-11-13_10h41.42.099,Tarea de género gramatical,2024.2.2,Win32,60.24096386,,,,,,,,,,,,,,,,,,,,,,,287.8972,289.1619,a,1,[],[],[],[],[],[],[],0.5945,1,289.162,289.661,,,,,,954,MAS,CON,150,humo,,l,0.5945,,289.6637,289.6662,0.792731476,-0.360185242,0,0,0,,0,78,78,53,1,,,,,
,,,,,,b0e6ab85ad689503665b6a67,66a626ef09d4e21e1a8894ec,6734d68ef573a3e9d4aa6e7f,2024-11-13_10h41.42.099,Tarea de género gramatical,2024.2.2,Win32,60.24096386,,,,,,,,,,,,,,,,,,,,,,,289.6689,290.8951,a,1,[],[],[],[],[],[],[],0.5638,1,290.8954,291.3888,,,,,,1349,MAS,AGR,150,payaso,el,l,0.5638,,291.389,291.3893,0.792731476,-0.360185242,0,0,0,,0,79,79,448,1,,,,,
,,,,,,b0e6ab85ad689503665b6a67,66a626ef09d4e21e1a8894ec,6734d68ef573a3e9d4aa6e7f,2024-11-13_10h41.42.099,Tarea de género gramatical,2024.2.2,Win32,60.24096386,,,,,,,,,,,,,,,,,,,,,,,291.3921,292.6447,l,1,[],[],[],[],[],[],[],0.578,1,292.645,293.1385,,,,,,1257,FEM,CON,150,lengua,,a,0.578,,293.1387,293.1393,0.792731476,-0.360185242,0,0,0,,0,80,80,356,1,,,,,
,,,,,,b0e6ab85ad689503665b6a67,66a626ef09d4e21e1a8894ec,6734d68ef573a3e9d4aa6e7f,2024-11-13_10h41.42.099,Tarea de género gramatical,2024.2.2,Win32,60.24096386,,,,,,,,,,,,,,,,,,,,,,,293.1415,294.3289,l,1,[],[],[],[],[],[],[],0.529,1,294.3291,294.822,,,,,,969,FEM,CON,150,rata,,a,0.529,,294.8222,294.8225,0.792731476,-0.360185242,0,0,0,,0,81,81,68,1,,,,,
,,,,,,b0e6ab85ad689503665b6a67,66a626ef09d4e21e1a8894ec,6734d68ef573a3e9d4aa6e7f,2024-11-13_10h41.42.099,Tarea de género gramatical,2024.2.2,Win32,60.24096386,,,,,,,,,,,,,,,,,,,,,,,294.8249,296.0046,l,1,[],[],[],[],[],[],[],0.4936,1,296.0048,296.5104,,,,,,1220,FEM,AGR,150,fiesta,la,a,0.4936,,296.5105,296.5107,0.792731476,-0.360185242,0,0,0,,0,82,82,319,1,,,,,
,,,,,,b0e6ab85ad689503665b6a67,66a626ef09d4e21e1a8894ec,6734d68ef573a3e9d4aa6e7f,2024-11-13_10h41.42.099,Tarea de género gramatical,2024.2.2,Win32,60.24096386,,,,,,,,,,,,,,,,,,,,,,,296.5127,297.7106,a,1,[],[],[],[],[],[],[],0.528,1,297.7109,298.2099,,,,,,1030,MAS,DIS,150,yate,la,l,0.528,,298.2127,298.2153,0.792731476,-0.360185242,0,0,0,,0,83,83,129,1,,,,,
,,,,,,b0e6ab85ad689503665b6a67,66a626ef09d4e21e1a8894ec,6734d68ef573a3e9d4aa6e7f,2024-11-13_10h41.42.099,Tarea de género gramatical,2024.2.2,Win32,60.24096386,,,,,,,,,,,,,,,,,,,,,,,298.2169,299.7207,a,1,[],[],[],[],[],[],[],0.8246,1,299.721,300.2265,,,,,,1025,MAS,AGR,150,bate,el,l,0.8246,,300.2267,300.227,0.792731476,-0.360185242,0,0,0,,0,84,84,124,1,,,,,
,,,,,,b0e6ab85ad689503665b6a67,66a626ef09d4e21e1a8894ec,6734d68ef573a3e9d4aa6e7f,2024-11-13_10h41.42.099,Tarea de género gramatical,2024.2.2,Win32,60.24096386,,,,,,,,,,,,,,,,,,,,,,,300.2293,301.3438,a,1,[],[],[],[],[],[],[],0.4345,1,301.344,301.8432,,,,,,1079,MAS,AGR,150,viaje,el,l,0.4345,,301.8433,301.8435,0.792731476,-0.360185242,0,0,0,,0,85,85,178,1,,,,,
,,,,,,b0e6ab85ad689503665b6a67,66a626ef09d4e21e1a8894ec,6734d68ef573a3e9d4aa6e7f,2024-11-13_10h41.42.099,Tarea de género gramatical,2024.2.2,Win32,60.24096386,,,,,,,,,,,,,,,,,,,,,,,301.8455,302.9433,l,1,[],[],[],[],[],[],[],0.4177,1,302.9435,303.437,,,,,,1215,FEM,CON,150,manera,,a,0.4177,,303.4371,303.4374,0.792731476,-0.360185242,0,0,0,,0,86,86,314,1,,,,,
,,,,,,b0e6ab85ad689503665b6a67,66a626ef09d4e21e1a8894ec,6734d68ef573a3e9d4aa6e7f,2024-11-13_10h41.42.099,Tarea de género gramatical,2024.2.2,Win32,60.24096386,,,,,,,,,,,,,,,,,,,,,,,303.4398,304.5203,l,1,[],[],[],[],[],[],[],0.4112,1,304.5205,305.009,,,,,,945,FEM,CON,150,isla,,a,0.4112,,305.0117,305.0142,0.792731476,-0.360185242,0,0,0,,0,87,87,44,1,,,,,
,,,,,,b0e6ab85ad689503665b6a67,66a626ef09d4e21e1a8894ec,6734d68ef573a3e9d4aa6e7f,2024-11-13_10h41.42.099,Tarea de género gramatical,2024.2.2,Win32,60.24096386,,,,,,,,,,,,,,,,,,,,,,,305.0158,306.1701,l,1,[],[],[],[],[],[],[],0.4863,1,306.1703,306.6589,,,,,,1196,FEM,AGR,150,feria,la,a,0.4863,,306.6591,306.6592,0.792731476,-0.360185242,0,0,0,,0,88,88,295,1,,,,,
,,,,,,b0e6ab85ad689503665b6a67,66a626ef09d4e21e1a8894ec,6734d68ef573a3e9d4aa6e7f,2024-11-13_10h41.42.099,Tarea de género gramatical,2024.2.2,Win32,60.24096386,,,,,,,,,,,,,,,,,,,,,,,306.6614,307.8603,a,1,[],[],[],[],[],[],[],0.5288,1,307.8606,308.3589,,,,,,1103,MAS,AGR,150,novio,el,l,0.5288,,308.359,308.3592,0.792731476,-0.360185242,0,0,0,,0,89,89,202,1,,,,,
,,,,,,b0e6ab85ad689503665b6a67,66a626ef09d4e21e1a8894ec,6734d68ef573a3e9d4aa6e7f,2024-11-13_10h41.42.099,Tarea de género gramatical,2024.2.2,Win32,60.24096386,,,,,,,,,,,,,,,,,,,,,,,308.3611,309.6735,l,1,[],[],[],[],[],[],[],0.642,1,309.6736,310.1695,,,,,,1333,FEM,DIS,150,huella,el,a,0.642,,310.1696,310.1698,0.792731476,-0.360185242,0,0,0,,0,90,90,432,1,,,,,
,,,,,,b0e6ab85ad689503665b6a67,66a626ef09d4e21e1a8894ec,6734d68ef573a3e9d4aa6e7f,2024-11-13_10h41.42.099,Tarea de género gramatical,2024.2.2,Win32,60.24096386,,,,,,,,,,,,,,,,,,,,,,,310.1722,311.7591,l,1,[],[],[],[],[],[],[],0.9178,1,311.7593,312.2584,,,,,,1273,FEM,DIS,150,lluvia,el,a,0.9178,,312.2585,312.2587,0.792731476,-0.360185242,0,0,0,,0,91,91,372,1,,,,,
,,,,,,b0e6ab85ad689503665b6a67,66a626ef09d4e21e1a8894ec,6734d68ef573a3e9d4aa6e7f,2024-11-13_10h41.42.099,Tarea de género gramatical,2024.2.2,Win32,60.24096386,,,,,,,,,,,,,,,,,,,,,,,312.2608,313.702,l,1,[],[],[],[],[],[],[],0.76,1,313.7022,314.2082,,,,,,1147,FEM,DIS,150,frase,el,a,0.76,,314.2107,314.2134,0.792731476,-0.360185242,0,0,0,,0,92,92,246,1,,,,,
,,,,,,b0e6ab85ad689503665b6a67,66a626ef09d4e21e1a8894ec,6734d68ef573a3e9d4aa6e7f,2024-11-13_10h41.42.099,Tarea de género gramatical,2024.2.2,Win32,60.24096386,,,,,,,,,,,,,,,,,,,,,,,314.2153,315.5096,a,1,[],[],[],[],[],[],[],0.6289,1,315.5098,316.0022,,,,,,1320,MAS,CON,150,helado,,l,0.6289,,316.0022,316.0025,0.792731476,-0.360185242,0,0,0,,0,93,93,419,1,,,,,
,,,,,,b0e6ab85ad689503665b6a67,66a626ef09d4e21e1a8894ec,6734d68ef573a3e9d4aa6e7f,2024-11-13_10h41.42.099,Tarea de género gramatical,2024.2.2,Win32,60.24096386,,,,,,,,,,,,,,,,,,,,,,,316.0047,317.1414,l,1,[],[],[],[],[],[],[],0.4507,1,317.1416,317.6352,,,,,,963,FEM,CON,150,fila,,a,0.4507,,317.6354,317.6356,0.792731476,-0.360185242,0,0,0,,0,94,94,62,1,,,,,
,,,,,,b0e6ab85ad689503665b6a67,66a626ef09d4e21e1a8894ec,6734d68ef573a3e9d4aa6e7f,2024-11-13_10h41.42.099,Tarea de género gramatical,2024.2.2,Win32,60.24096386,,,,,,,,,,,,,,,,,,,,,,,317.638,319.0186,l,1,[],[],[],[],[],[],[],0.718,1,319.0188,319.5239,,,,,,949,FEM,DIS,150,piel,el,a,0.718,,319.524,319.5242,0.792731476,-0.360185242,0,0,0,,0,95,95,48,1,,,,,
,,,,,,b0e6ab85ad689503665b6a67,66a626ef09d4e21e1a8894ec,6734d68ef573a3e9d4aa6e7f,2024-11-13_10h41.42.099,Tarea de género gramatical,2024.2.2,Win32,60.24096386,,,,,,,,,,,,,,,,,,,,,,,319.5263,320.9179,a,1,[],[],[],[],[],[],[],0.7188,1,320.9182,321.4236,,,,,,1276,MAS,DIS,150,efecto,la,l,0.7188,,321.4261,321.4285,0.792731476,-0.360185242,0,0,0,,0,96,96,375,1,,,,,
,,,,,,b0e6ab85ad689503665b6a67,66a626ef09d4e21e1a8894ec,6734d68ef573a3e9d4aa6e7f,2024-11-13_10h41.42.099,Tarea de género gramatical,2024.2.2,Win32,60.24096386,,,,,,,,,,,,,,,,,,,,,,,321.4302,322.6551,l,1,[],[],[],[],[],[],[],0.5574,1,322.6554,323.151,,,,,,951,FEM,CON,150,bala,,a,0.5574,,323.1512,323.1514,0.792731476,-0.360185242,0,0,0,,0,97,97,50,1,,,,,
,,,,,,b0e6ab85ad689503665b6a67,66a626ef09d4e21e1a8894ec,6734d68ef573a3e9d4aa6e7f,2024-11-13_10h41.42.099,Tarea de género gramatical,2024.2.2,Win32,60.24096386,,,,,,,,,,,,,,,,,,,,,,,323.1542,324.3181,l,1,[],[],[],[],[],[],[],0.4781,1,324.3184,324.8236,,,,,,1022,FEM,AGR,150,loca,la,a,0.4781,,324.8237,324.8238,0.792731476,-0.360185242,0,0,0,,0,98,98,121,1,,,,,
,,,,,,b0e6ab85ad689503665b6a67,66a626ef09d4e21e1a8894ec,6734d68ef573a3e9d4aa6e7f,2024-11-13_10h41.42.099,Tarea de género gramatical,2024.2.2,Win32,60.24096386,,,,,,,,,,,,,,,,,,,,,,,324.8258,326.1178,l,1,[],[],[],[],[],[],[],0.6111,1,326.1182,326.6062,,,,,,1033,FEM,DIS,150,joya,el,a,0.6111,,326.6064,326.6065,0.792731476,-0.360185242,0,0,0,,0,99,99,132,1,,,,,
,,,,,,b0e6ab85ad689503665b6a67,66a626ef09d4e21e1a8894ec,6734d68ef573a3e9d4aa6e7f,2024-11-13_10h41.42.099,Tarea de género gramatical,2024.2.2,Win32,60.24096386,,,,,,,,,,,,,,,,,,,,,,,326.6086,327.8567,a,1,[],[],[],[],[],[],[],0.5778,1,327.8569,328.3562,,,,,,1204,MAS,DIS,150,tiempo,la,l,0.5778,,328.3563,328.3565,0.792731476,-0.360185242,0,0,0,,0,100,100,303,1,,,,,
,,,,,,b0e6ab85ad689503665b6a67,66a626ef09d4e21e1a8894ec,6734d68ef573a3e9d4aa6e7f,2024-11-13_10h41.42.099,Tarea de género gramatical,2024.2.2,Win32,60.24096386,,,,,,,,,,,,,,,,,,,,,,,328.3589,329.4566,l,1,[],[],[],[],[],[],[],0.4281,1,329.4569,329.9559,,,,,,1334,FEM,AGR,150,corona,la,a,0.4281,,329.9587,329.9613,0.792731476,-0.360185242,0,0,0,,0,101,101,433,1,,,,,
,,,,,,b0e6ab85ad689503665b6a67,66a626ef09d4e21e1a8894ec,6734d68ef573a3e9d4aa6e7f,2024-11-13_10h41.42.099,Tarea de género gramatical,2024.2.2,Win32,60.24096386,,,,,,,,,,,,,,,,,,,,,,,329.9629,331.2732,l,1,[],[],[],[],[],[],[],0.6344,1,331.2733,331.767,,,,,,1315,FEM,DIS,150,cabina,el,a,0.6344,,331.7672,331.7674,0.792731476,-0.360185242,0,0,0,,0,102,102,414,1,,,,,
,,,,,,b0e6ab85ad689503665b6a67,66a626ef09d4e21e1a8894ec,6734d68ef573a3e9d4aa6e7f,2024-11-13_10h41.42.099,Tarea de género gramatical,2024.2.2,Win32,60.24096386,,,,,,,,,,,,,,,,,,,,,,,331.7697,333.056,a,1,[],[],[],[],[],[],[],0.6113,1,333.0562,333.5584,,,,,,1080,MAS,CON,150,fuego,,l,0.6113,,333.5585,333.5587,0.792731476,-0.360185242,0,0,0,,0,103,103,179,1,,,,,
,,,,,,b0e6ab85ad689503665b6a67,66a626ef09d4e21e1a8894ec,6734d68ef573a3e9d4aa6e7f,2024-11-13_10h41.42.099,Tarea de género gramatical,2024.2.2,Win32,60.24096386,,,,,,,,,,,,,,,,,,,,,,,333.5608,335.1659,a,1,[],[],[],[],[],[],[],0.9374,1,335.1661,335.6692,,,,,,989,MAS,AGR,150,maíz,el,l,0.9374,,335.6693,335.6695,0.792731476,-0.360185242,0,0,0,,0,104,104,88,1,,,,,
,,,,,,b0e6ab85ad689503665b6a67,66a626ef09d4e21e1a8894ec,6734d68ef573a3e9d4aa6e7f,2024-11-13_10h41.42.099,Tarea de género gramatical,2024.2.2,Win32,60.24096386,,,,,,,,,,,,,,,,,,,,,,,335.6717,336.989,a,1,[],[],[],[],[],[],[],0.6446,1,336.9892,337.4883,,,,,,1020,MAS,CON,150,puño,,l,0.6446,,337.4912,337.4939,0.792731476,-0.360185242,0,0,0,,0,105,105,119,1,,,,,
,,,,,,b0e6ab85ad689503665b6a67,66a626ef09d4e21e1a8894ec,6734d68ef573a3e9d4aa6e7f,2024-11-13_10h41.42.099,Tarea de género gramatical,2024.2.2,Win32,60.24096386,,,,,,,,,,,,,,,,,,,,,,,337.4954,338.6491,a,1,[],[],[],[],[],[],[],0.4723,1,338.6494,339.1489,,,,,,912,MAS,CON,150,plan,,l,0.4723,,339.1491,339.1494,0.792731476,-0.360185242,0,0,0,,0,106,106,11,1,,,,,
,,,,,,b0e6ab85ad689503665b6a67,66a626ef09d4e21e1a8894ec,6734d68ef573a3e9d4aa6e7f,2024-11-13_10h41.42.099,Tarea de género gramatical,2024.2.2,Win32,60.24096386,,,,,,,,,,,,,,,,,,,,,,,339.1521,340.3561,a,1,[],[],[],[],[],[],[],0.546,1,340.3563,340.8547,,,,,,1055,MAS,AGR,150,mundo,el,l,0.546,,340.8548,340.8552,0.792731476,-0.360185242,0,0,0,,0,107,107,154,1,,,,,
,,,,,,b0e6ab85ad689503665b6a67,66a626ef09d4e21e1a8894ec,6734d68ef573a3e9d4aa6e7f,2024-11-13_10h41.42.099,Tarea de género gramatical,2024.2.2,Win32,60.24096386,,,,,,,,,,,,,,,,,,,,,,,340.8574,341.9157,a,1,[],[],[],[],[],[],[],0.369,1,341.9159,342.4046,,,,,,1073,MAS,AGR,150,libro,el,l,0.369,,342.4047,342.4049,0.792731476,-0.360185242,0,0,0,,0,108,108,172,1,,,,,
,,,,,,b0e6ab85ad689503665b6a67,66a626ef09d4e21e1a8894ec,6734d68ef573a3e9d4aa6e7f,2024-11-13_10h41.42.099,Tarea de género gramatical,2024.2.2,Win32,60.24096386,,,,,,,,,,,,,,,,,,,,,,,342.4071,343.5547,l,1,[],[],[],[],[],[],[],0.4777,1,343.5549,344.0484,,,,,,1201,FEM,DIS,150,verdad,el,a,0.4777,,344.0486,344.0489,0.792731476,-0.360185242,0,0,0,,0,109,109,300,1,,,,,
,,,,,,b0e6ab85ad689503665b6a67,66a626ef09d4e21e1a8894ec,6734d68ef573a3e9d4aa6e7f,2024-11-13_10h41.42.099,Tarea de género gramatical,2024.2.2,Win32,60.24096386,,,,,,,,,,,,,,,,,,,,,,,344.0511,345.1815,l,1,[],[],[],[],[],[],[],0.4514,1,345.1818,345.6706,,,,,,1340,FEM,AGR,150,patada,la,a,0.4514,,345.6732,345.6757,0.792731476,-0.360185242,0,0,0,,0,110,110,439,1,,,,,
,,,,,,b0e6ab85ad689503665b6a67,66a626ef09d4e21e1a8894ec,6734d68ef573a3e9d4aa6e7f,2024-11-13_10h41.42.099,Tarea de género gramatical,2024.2.2,Win32,60.24096386,,,,,,,,,,,,,,,,,,,,,,,345.6772,346.8044,a,1,[],[],[],[],[],[],[],0.4613,1,346.8045,347.298,,,,,,1152,MAS,CON,150,viejo,,l,0.4613,,347.2982,347.2984,0.792731476,-0.360185242,0,0,0,,0,111,111,251,1,,,,,
,,,,,,b0e6ab85ad689503665b6a67,66a626ef09d4e21e1a8894ec,6734d68ef573a3e9d4aa6e7f,2024-11-13_10h41.42.099,Tarea de género gramatical,2024.2.2,Win32,60.24096386,,,,,,,,,,,,,,,,,,,,,,,347.3012,348.4479,l,1,[],[],[],[],[],[],[],0.4844,1,348.4481,348.9367,,,,,,1208,FEM,AGR,150,semana,la,a,0.4844,,348.9368,348.937,0.792731476,-0.360185242,0,0,0,,0,112,112,307,1,,,,,
,,,,,,b0e6ab85ad689503665b6a67,66a626ef09d4e21e1a8894ec,6734d68ef573a3e9d4aa6e7f,2024-11-13_10h41.42.099,Tarea de género gramatical,2024.2.2,Win32,60.24096386,,,,,,,,,,,,,,,,,,,,,,,348.9391,350.0812,a,1,[],[],[],[],[],[],[],0.4677,1,350.0815,350.5701,,,,,,1019,MAS,AGR,150,mito,el,l,0.4677,,350.5703,350.5705,0.792731476,-0.360185242,0,0,0,,0,113,113,118,1,,,,,
,,,,,,b0e6ab85ad689503665b6a67,66a626ef09d4e21e1a8894ec,6734d68ef573a3e9d4aa6e7f,2024-11-13_10h41.42.099,Tarea de género gramatical,2024.2.2,Win32,60.24096386,,,,,,,,,,,,,,,,,,,,,,,350.5723,351.8203,a,1,[],[],[],[],[],[],[],0.5769,1,351.8205,352.3142,,,,,,1104,MAS,CON,150,papel,,l,0.5769,,352.3172,352.3197,0.792731476,-0.360185242,0,0,0,,0,114,114,203,1,,,,,
,,,,,,b0e6ab85ad689503665b6a67,66a626ef09d4e21e1a8894ec,6734d68ef573a3e9d4aa6e7f,2024-11-13_10h41.42.099,Tarea de género gramatical,2024.2.2,Win32,60.24096386,,,,,,,,,,,,,,,,,,,,,,,352.3213,353.4639,l,1,[],[],[],[],[],[],[],0.4738,1,353.4642,353.9695,,,,,,915,FEM,CON,150,cama,,a,0.4738,,353.9697,353.9698,0.792731476,-0.360185242,0,0,0,,0,115,115,14,1,,,,,
,,,,,,b0e6ab85ad689503665b6a67,66a626ef09d4e21e1a8894ec,6734d68ef573a3e9d4aa6e7f,2024-11-13_10h41.42.099,Tarea de género gramatical,2024.2.2,Win32,60.24096386,,,,,,,,,,,,,,,,,,,,,,,353.9719,355.0869,a,0,[],[],[],[],[],[],[],0.4445,0,355.0884,355.5861,,,,,,1255,FEM,DIS,150,mirada,el,a,0.4445,,355.5862,355.5863,0.792731476,-0.360185242,0,0,0,,0,116,116,354,1,,,,,
,,,,,,b0e6ab85ad689503665b6a67,66a626ef09d4e21e1a8894ec,6734d68ef573a3e9d4aa6e7f,2024-11-13_10h41.42.099,Tarea de género gramatical,2024.2.2,Win32,60.24096386,,,,,,,,,,,,,,,,,,,,,,,355.5885,356.7802,a,1,[],[],[],[],[],[],[],0.5079,1,356.7822,357.2694,,,,,,1115,MAS,AGR,150,hueso,el,l,0.5079,,357.2694,357.2696,0.792731476,-0.360185242,0,0,0,,0,117,117,214,1,,,,,
,,,,,,b0e6ab85ad689503665b6a67,66a626ef09d4e21e1a8894ec,6734d68ef573a3e9d4aa6e7f,2024-11-13_10h41.42.099,Tarea de género gramatical,2024.2.2,Win32,60.24096386,,,,,,,,,,,,,,,,,,,,,,,357.2717,358.3966,l,1,[],[],[],[],[],[],[],0.4511,1,358.3969,358.8855,,,,,,908,FEM,AGR,150,idea,la,a,0.4511,,358.8856,358.8858,0.792731476,-0.360185242,0,0,0,,0,118,118,7,1,,,,,
,,,,,,b0e6ab85ad689503665b6a67,66a626ef09d4e21e1a8894ec,6734d68ef573a3e9d4aa6e7f,2024-11-13_10h41.42.099,Tarea de género gramatical,2024.2.2,Win32,60.24096386,,,,,,,,,,,,,,,,,,,,,,,358.8888,360.1168,l,1,[],[],[],[],[],[],[],0.5486,1,360.117,360.6132,,,,,,1287,FEM,CON,150,página,,a,0.5486,,360.6164,360.6189,0.792731476,-0.360185242,0,0,0,,0,119,119,386,1,,,,,
,,,,,,b0e6ab85ad689503665b6a67,66a626ef09d4e21e1a8894ec,6734d68ef573a3e9d4aa6e7f,2024-11-13_10h41.42.099,Tarea de género gramatical,2024.2.2,Win32,60.24096386,,,,,,,,,,,,,,,,,,,,,,,360.6206,362.0293,l,1,[],[],[],[],[],[],[],0.7248,1,362.0297,362.5188,,,,,,1021,FEM,DIS,150,pila,el,a,0.7248,,362.5188,362.5191,0.792731476,-0.360185242,0,0,0,,0,120,120,120,1,,,,,
,,,,,,b0e6ab85ad689503665b6a67,66a626ef09d4e21e1a8894ec,6734d68ef573a3e9d4aa6e7f,2024-11-13_10h41.42.099,Tarea de género gramatical,2024.2.2,Win32,60.24096386,,,,,,,,,,,,,,,,,,,,,,,362.5211,363.7191,a,1,[],[],[],[],[],[],[],0.528,1,363.7193,364.2185,,,,,,1018,MAS,DIS,150,baúl,la,l,0.528,,364.2186,364.219,0.792731476,-0.360185242,0,0,0,,0,121,121,117,1,,,,,
,,,,,,b0e6ab85ad689503665b6a67,66a626ef09d4e21e1a8894ec,6734d68ef573a3e9d4aa6e7f,2024-11-13_10h41.42.099,Tarea de género gramatical,2024.2.2,Win32,60.24096386,,,,,,,,,,,,,,,,,,,,,,,364.2213,365.3686,l,0,[],[],[],[],[],[],[],0.4777,0,365.3702,365.868,,,,,,1026,MAS,CON,150,lazo,,l,0.4777,,365.8681,365.8683,0.792731476,-0.360185242,0,0,0,,0,122,122,125,1,,,,,
,,,,,,b0e6ab85ad689503665b6a67,66a626ef09d4e21e1a8894ec,6734d68ef573a3e9d4aa6e7f,2024-11-13_10h41.42.099,Tarea de género gramatical,2024.2.2,Win32,60.24096386,,,,,,,,,,,,,,,,,,,,,,,365.8702,367.1622,a,1,[],[],[],[],[],[],[],0.6059,1,367.1642,367.668,,,,,,996,MAS,CON,150,pato,,l,0.6059,,367.6707,367.6731,0.792731476,-0.360185242,0,0,0,,0,123,123,95,1,,,,,
,,,,,,b0e6ab85ad689503665b6a67,66a626ef09d4e21e1a8894ec,6734d68ef573a3e9d4aa6e7f,2024-11-13_10h41.42.099,Tarea de género gramatical,2024.2.2,Win32,60.24096386,,,,,,,,,,,,,,,,,,,,,,,367.6748,368.8323,a,1,[],[],[],[],[],[],[],0.4816,1,368.8324,369.3284,,,,,,1133,MAS,AGR,150,golpe,el,l,0.4816,,369.3285,369.3288,0.792731476,-0.360185242,0,0,0,,0,124,124,232,1,,,,,
,,,,,,b0e6ab85ad689503665b6a67,66a626ef09d4e21e1a8894ec,6734d68ef573a3e9d4aa6e7f,2024-11-13_10h41.42.099,Tarea de género gramatical,2024.2.2,Win32,60.24096386,,,,,,,,,,,,,,,,,,,,,,,369.3311,370.4639,l,1,[],[],[],[],[],[],[],0.4681,1,370.4643,370.9619,,,,,,1119,FEM,CON,150,costa,,a,0.4681,,370.9619,370.9624,0.792731476,-0.360185242,0,0,0,,0,125,125,218,1,,,,,
,,,,,,b0e6ab85ad689503665b6a67,66a626ef09d4e21e1a8894ec,6734d68ef573a3e9d4aa6e7f,2024-11-13_10h41.42.099,Tarea de género gramatical,2024.2.2,Win32,60.24096386,,,,,,,,,,,,,,,,,,,,,,,370.9648,372.168,a,1,[],[],[],[],[],[],[],0.5445,1,372.1682,372.6672,,,,,,1246,MAS,DIS,150,juicio,la,l,0.5445,,372.6674,372.6675,0.792731476,-0.360185242,0,0,0,,0,126,126,345,1,,,,,
,,,,,,b0e6ab85ad689503665b6a67,66a626ef09d4e21e1a8894ec,6734d68ef573a3e9d4aa6e7f,2024-11-13_10h41.42.099,Tarea de género gramatical,2024.2.2,Win32,60.24096386,,,,,,,,,,,,,,,,,,,,,,,372.6696,373.8279,a,1,[],[],[],[],[],[],[],0.4794,1,373.8282,374.3177,,,,,,1222,MAS,DIS,150,minuto,la,l,0.4794,,374.3178,374.318,0.792731476,-0.360185242,0,0,0,,0,127,127,321,1,,,,,
,,,,,,b0e6ab85ad689503665b6a67,66a626ef09d4e21e1a8894ec,6734d68ef573a3e9d4aa6e7f,2024-11-13_10h41.42.099,Tarea de género gramatical,2024.2.2,Win32,60.24096386,,,,,,,,,,,,,,,,,,,,,,,374.3202,375.584,l,1,[],[],[],[],[],[],[],0.5844,1,375.5841,376.0781,,,,,,1087,FEM,DIS,150,lista,el,a,0.5844,,376.0815,376.084,0.792731476,-0.360185242,0,0,0,,0,128,128,186,1,,,,,
,,,,,,b0e6ab85ad689503665b6a67,66a626ef09d4e21e1a8894ec,6734d68ef573a3e9d4aa6e7f,2024-11-13_10h41.42.099,Tarea de género gramatical,2024.2.2,Win32,60.24096386,,,,,,,,,,,,,,,,,,,,,,,376.0856,377.5515,l,1,[],[],[],[],[],[],[],0.7856,1,377.5517,378.0499,,,,,,1345,FEM,DIS,150,bondad,el,a,0.7856,,378.0499,378.0502,0.792731476,-0.360185242,0,0,0,,0,129,129,444,1,,,,,
,,,,,,b0e6ab85ad689503665b6a67,66a626ef09d4e21e1a8894ec,6734d68ef573a3e9d4aa6e7f,2024-11-13_10h41.42.099,Tarea de género gramatical,2024.2.2,Win32,60.24096386,,,,,,,,,,,,,,,,,,,,,,,378.0522,379.2003,l,1,[],[],[],[],[],[],[],0.4677,1,379.2007,379.694,,,,,,1112,FEM,AGR,150,cinta,la,a,0.4677,,379.6941,379.6944,0.792731476,-0.360185242,0,0,0,,0,130,130,211,1,,,,,
,,,,,,b0e6ab85ad689503665b6a67,66a626ef09d4e21e1a8894ec,6734d68ef573a3e9d4aa6e7f,2024-11-13_10h41.42.099,Tarea de género gramatical,2024.2.2,Win32,60.24096386,,,,,,,,,,,,,,,,,,,,,,,379.6967,381.3002,l,1,[],[],[],[],[],[],[],0.9304,1,381.3004,381.8,,,,,,1123,FEM,DIS,150,plata,el,a,0.9304,,381.8001,381.8003,0.792731476,-0.360185242,0,0,0,,0,131,131,222,1,,,,,
,,,,,,b0e6ab85ad689503665b6a67,66a626ef09d4e21e1a8894ec,6734d68ef573a3e9d4aa6e7f,2024-11-13_10h41.42.099,Tarea de género gramatical,2024.2.2,Win32,60.24096386,,,,,,,,,,,,,,,,,,,,,,,381.8024,383.1162,a,1,[],[],[],[],[],[],[],0.6443,1,383.1164,383.6157,,,,,,1068,MAS,CON,150,sitio,,l,0.6443,,383.6184,383.6209,0.792731476,-0.360185242,0,0,0,,0,132,132,167,1,,,,,
,,,,,,b0e6ab85ad689503665b6a67,66a626ef09d4e21e1a8894ec,6734d68ef573a3e9d4aa6e7f,2024-11-13_10h41.42.099,Tarea de género gramatical,2024.2.2,Win32,60.24096386,,,,,,,,,,,,,,,,,,,,,,,383.6228,385.0007,a,1,[],[],[],[],[],[],[],0.7124,1,385.0009,385.4989,,,,,,1114,MAS,DIS,150,fondo,la,l,0.7124,,385.499,385.4992,0.792731476,-0.360185242,0,0,0,,0,133,133,213,1,,,,,
,,,,,,b0e6ab85ad689503665b6a67,66a626ef09d4e21e1a8894ec,6734d68ef573a3e9d4aa6e7f,2024-11-13_10h41.42.099,Tarea de género gramatical,2024.2.2,Win32,60.24096386,,,,,,,,,,,,,,,,,,,,,,,385.5015,386.8825,a,1,[],[],[],[],[],[],[],0.7009,1,386.8826,387.376,,,,,,977,MAS,AGR,150,pico,el,l,0.7009,,387.3762,387.3764,0.792731476,-0.360185242,0,0,0,,0,134,134,76,1,,,,,
,,,,,,b0e6ab85ad689503665b6a67,66a626ef09d4e21e1a8894ec,6734d68ef573a3e9d4aa6e7f,2024-11-13_10h41.42.099,Tarea de género gramatical,2024.2.2,Win32,60.24096386,,,,,,,,,,,,,,,,,,,,,,,387.3787,389.1262,a,1,[],[],[],[],[],[],[],1.0788,1,389.1263,389.6319,,,,,,1044,MAS,CON,150,amor,,l,1.0788,,389.6319,389.6321,0.792731476,-0.360185242,0,0,0,,0,135,135,143,1,,,,,
,,,,,,b0e6ab85ad689503665b6a67,66a626ef09d4e21e1a8894ec,6734d68ef573a3e9d4aa6e7f,2024-11-13_10h41.42.099,Tarea de género gramatical,2024.2.2,Win32,60.24096386,,,,,,,,,,,,,,,,,,,,,,,389.6341,391.0653,a,1,[],[],[],[],[],[],[],0.761,1,391.0654,391.5591,,,,,,1144,MAS,DIS,150,hielo,la,l,0.761,,391.5592,391.5595,0.792731476,-0.360185242,0,0,0,,0,136,136,243,1,,,,,
,,,,,,b0e6ab85ad689503665b6a67,66a626ef09d4e21e1a8894ec,6734d68ef573a3e9d4aa6e7f,2024-11-13_10h41.42.099,Tarea de género gramatical,2024.2.2,Win32,60.24096386,,,,,,,,,,,,,,,,,,,,,,,391.5617,392.7151,l,1,[],[],[],[],[],[],[],0.4947,1,392.7152,393.2144,,,,,,903,FEM,CON,150,cosa,,a,0.4947,,393.2169,393.2194,0.792731476,-0.360185242,0,0,0,,0,137,137,2,1,,,,,
,,,,,,b0e6ab85ad689503665b6a67,66a626ef09d4e21e1a8894ec,6734d68ef573a3e9d4aa6e7f,2024-11-13_10h41.42.099,Tarea de género gramatical,2024.2.2,Win32,60.24096386,,,,,,,,,,,,,,,,,,,,,,,393.2211,394.4588,l,1,[],[],[],[],[],[],[],0.5686,1,394.459,394.9477,,,,,,1316,FEM,AGR,150,colina,la,a,0.5686,,394.9479,394.948,0.792731476,-0.360185242,0,0,0,,0,138,138,415,1,,,,,
,,,,,,b0e6ab85ad689503665b6a67,66a626ef09d4e21e1a8894ec,6734d68ef573a3e9d4aa6e7f,2024-11-13_10h41.42.099,Tarea de género gramatical,2024.2.2,Win32,60.24096386,,,,,,,,,,,,,,,,,,,,,,,394.9501,396.0745,a,1,[],[],[],[],[],[],[],0.4542,1,396.0748,396.5641,,,,,,1127,MAS,AGR,150,vuelo,el,l,0.4542,,396.5641,396.5642,0.792731476,-0.360185242,0,0,0,,0,139,139,226,1,,,,,
,,,,,,b0e6ab85ad689503665b6a67,66a626ef09d4e21e1a8894ec,6734d68ef573a3e9d4aa6e7f,2024-11-13_10h41.42.099,Tarea de género gramatical,2024.2.2,Win32,60.24096386,,,,,,,,,,,,,,,,,,,,,,,396.5649,397.7582,l,1,[],[],[],[],[],[],[],0.5104,1,397.7585,398.2637,,,,,,914,FEM,AGR,150,cara,la,a,0.5104,,398.2638,398.264,0.792731476,-0.360185242,0,0,0,,0,140,140,13,1,,,,,
,,,,,,b0e6ab85ad689503665b6a67,66a626ef09d4e21e1a8894ec,6734d68ef573a3e9d4aa6e7f,2024-11-13_10h41.42.099,Tarea de género gramatical,2024.2.2,Win32,60.24096386,,,,,,,,,,,,,,,,,,,,,,,398.266,399.4977,a,1,[],[],[],[],[],[],[],0.5512,1,399.4979,399.9913,,,,,,1078,MAS,DIS,150,punto,la,l,0.5512,,399.9942,399.9968,0.792731476,-0.360185242,0,0,0,,0,141,141,177,1,,,,,
,,,,,,b0e6ab85ad689503665b6a67,66a626ef09d4e21e1a8894ec,6734d68ef573a3e9d4aa6e7f,2024-11-13_10h41.42.099,Tarea de género gramatical,2024.2.2,Win32,60.24096386,,,,,,,,,,,,,,,,,,,,,,,399.9985,401.208,l,0,[],[],[],[],[],[],[],0.528,0,401.2099,401.7136,,,,,,1186,MAS,DIS,150,reino,la,l,0.528,,401.7137,401.7139,0.792731476,-0.360185242,0,0,0,,0,142,142,285,1,,,,,
,,,,,,b0e6ab85ad689503665b6a67,66a626ef09d4e21e1a8894ec,6734d68ef573a3e9d4aa6e7f,2024-11-13_10h41.42.099,Tarea de género gramatical,2024.2.2,Win32,60.24096386,,,,,,,,,,,,,,,,,,,,,,,401.716,402.9138,a,1,[],[],[],[],[],[],[],0.5279,1,402.9155,403.4131,,,,,,1324,MAS,DIS,150,rastro,la,l,0.5279,,403.4131,403.4133,0.792731476,-0.360185242,0,0,0,,0,143,143,423,1,,,,,
,,,,,,b0e6ab85ad689503665b6a67,66a626ef09d4e21e1a8894ec,6734d68ef573a3e9d4aa6e7f,2024-11-13_10h41.42.099,Tarea de género gramatical,2024.2.2,Win32,60.24096386,,,,,,,,,,,,,,,,,,,,,,,403.4154,404.5635,a,1,[],[],[],[],[],[],[],0.4663,1,404.5636,405.0631,,,,,,1223,MAS,AGR,150,marido,el,l,0.4663,,405.0632,405.0634,0.792731476,-0.360185242,0,0,0,,0,144,144,322,1,,,,,
,,,,,,b0e6ab85ad689503665b6a67,66a626ef09d4e21e1a8894ec,6734d68ef573a3e9d4aa6e7f,2024-11-13_10h41.42.099,Tarea de género gramatical,2024.2.2,Win32,60.24096386,,,,,,,,,,,,,,,,,,,,,,,405.0654,406.4137,a,1,[],[],[],[],[],[],[],0.6782,1,406.4138,406.9128,,,,,,1344,MAS,CON,150,límite,,l,0.6782,,406.9129,406.9131,0.792731476,-0.360185242,0,0,0,,0,145,145,443,1,,,,,
,,,,,,b0e6ab85ad689503665b6a67,66a626ef09d4e21e1a8894ec,6734d68ef573a3e9d4aa6e7f,2024-11-13_10h41.42.099,Tarea de género gramatical,2024.2.2,Win32,60.24096386,,,,,,,,,,,,,,,,,,,,,,,406.9152,408.1072,l,1,[],[],[],[],[],[],[],0.5029,1,408.1074,408.6101,,,,,,1045,FEM,DIS,150,bota,el,a,0.5029,,408.6127,408.6152,0.792731476,-0.360185242,0,0,0,,0,146,146,144,1,,,,,
,,,,,,b0e6ab85ad689503665b6a67,66a626ef09d4e21e1a8894ec,6734d68ef573a3e9d4aa6e7f,2024-11-13_10h41.42.099,Tarea de género gramatical,2024.2.2,Win32,60.24096386,,,,,,,,,,,,,,,,,,,,,,,408.6167,409.7462,l,1,[],[],[],[],[],[],[],0.4611,1,409.7464,410.2455,,,,,,1263,FEM,CON,150,unidad,,a,0.4611,,410.2456,410.2458,0.792731476,-0.360185242,0,0,0,,0,147,147,362,1,,,,,
,,,,,,b0e6ab85ad689503665b6a67,66a626ef09d4e21e1a8894ec,6734d68ef573a3e9d4aa6e7f,2024-11-13_10h41.42.099,Tarea de género gramatical,2024.2.2,Win32,60.24096386,,,,,,,,,,,,,,,,,,,,,,,410.248,411.7294,a,1,[],[],[],[],[],[],[],0.8109,1,411.7296,412.2293,,,,,,917,MAS,AGR,150,modo,el,l,0.8109,,412.2294,412.2296,0.792731476,-0.360185242,0,0,0,,0,148,148,16,1,,,,,
,,,,,,b0e6ab85ad689503665b6a67,66a626ef09d4e21e1a8894ec,6734d68ef573a3e9d4aa6e7f,2024-11-13_10h41.42.099,Tarea de género gramatical,2024.2.2,Win32,60.24096386,,,,,,,,,,,,,,,,,,,,,,,412.2316,413.5064,a,1,[],[],[],[],[],[],[],0.5859,1,413.5066,413.9953,,,,,,1228,MAS,DIS,150,asunto,la,l,0.5859,,413.9955,413.9956,0.792731476,-0.360185242,0,0,0,,0,149,149,327,1,,,,,
,,,,,,b0e6ab85ad689503665b6a67,66a626ef09d4e21e1a8894ec,6734d68ef573a3e9d4aa6e7f,2024-11-13_10h41.42.099,Tarea de género gramatical,2024.2.2,Win32,60.24096386,,,,,,,,,,,,,,,,,,,,,,,413.9978,415.3121,a,1,[],[],[],[],[],[],[],0.6442,1,415.3123,415.8115,,,,,,970,MAS,DIS,150,palo,la,l,0.6442,,415.8143,450.2858,-0.054490738,-0.415740738,1,0,0,,0,150,150,69,1,break_done_button,,,,
,,,,,,b0e6ab85ad689503665b6a67,66a626ef09d4e21e1a8894ec,6734d68ef573a3e9d4aa6e7f,2024-11-13_10h41.42.099,Tarea de género gramatical,2024.2.2,Win32,60.24096386,,,,,,,,,,,,,,,,,,,,,,,450.2898,452.0678,a,1,[],[],[],[],[],[],[],1.1009,1,452.0681,452.5679,,,,,,1001,MAS,AGR,150,giro,el,l,1.1009,,452.5681,452.5683,-0.054490738,-0.415740738,0,0,0,,0,151,151,100,1,,,,,
,,,,,,b0e6ab85ad689503665b6a67,66a626ef09d4e21e1a8894ec,6734d68ef573a3e9d4aa6e7f,2024-11-13_10h41.42.099,Tarea de género gramatical,2024.2.2,Win32,60.24096386,,,,,,,,,,,,,,,,,,,,,,,452.5705,453.9843,a,1,[],[],[],[],[],[],[],0.7366,1,453.9845,454.4844,,,,,,1254,MAS,CON,150,camión,,l,0.7366,,454.4845,454.4847,-0.054490738,-0.415740738,0,0,0,,0,152,152,353,1,,,,,
,,,,,,b0e6ab85ad689503665b6a67,66a626ef09d4e21e1a8894ec,6734d68ef573a3e9d4aa6e7f,2024-11-13_10h41.42.099,Tarea de género gramatical,2024.2.2,Win32,60.24096386,,,,,,,,,,,,,,,,,,,,,,,454.4867,455.8174,l,1,[],[],[],[],[],[],[],0.6521,1,455.8176,456.3175,,,,,,973,FEM,DIS,150,roca,el,a,0.6521,,456.3177,456.318,-0.054490738,-0.415740738,0,0,0,,0,153,153,72,1,,,,,
,,,,,,b0e6ab85ad689503665b6a67,66a626ef09d4e21e1a8894ec,6734d68ef573a3e9d4aa6e7f,2024-11-13_10h41.42.099,Tarea de género gramatical,2024.2.2,Win32,60.24096386,,,,,,,,,,,,,,,,,,,,,,,456.3208,457.7171,a,1,[],[],[],[],[],[],[],0.7178,1,457.7174,458.217,,,,,,1048,MAS,DIS,150,surf,la,l,0.7178,,458.2171,458.2173,-0.054490738,-0.415740738,0,0,0,,0,154,154,147,1,,,,,
,,,,,,b0e6ab85ad689503665b6a67,66a626ef09d4e21e1a8894ec,6734d68ef573a3e9d4aa6e7f,2024-11-13_10h41.42.099,Tarea de género gramatical,2024.2.2,Win32,60.24096386,,,,,,,,,,,,,,,,,,,,,,,458.2192,459.3336,a,1,[],[],[],[],[],[],[],0.4344,1,459.3339,459.8335,,,,,,1343,MAS,AGR,150,templo,el,l,0.4344,,459.8362,459.8392,-0.054490738,-0.415740738,0,0,0,,0,155,155,442,1,,,,,
,,,,,,b0e6ab85ad689503665b6a67,66a626ef09d4e21e1a8894ec,6734d68ef573a3e9d4aa6e7f,2024-11-13_10h41.42.099,Tarea de género gramatical,2024.2.2,Win32,60.24096386,,,,,,,,,,,,,,,,,,,,,,,459.841,461.0834,a,1,[],[],[],[],[],[],[],0.565,1,461.0836,461.5833,,,,,,1188,MAS,CON,150,grado,,l,0.565,,461.5834,461.5837,-0.054490738,-0.415740738,0,0,0,,0,156,156,287,1,,,,,
,,,,,,b0e6ab85ad689503665b6a67,66a626ef09d4e21e1a8894ec,6734d68ef573a3e9d4aa6e7f,2024-11-13_10h41.42.099,Tarea de género gramatical,2024.2.2,Win32,60.24096386,,,,,,,,,,,,,,,,,,,,,,,461.5855,462.6998,a,1,[],[],[],[],[],[],[],0.439,1,462.6999,463.1997,,,,,,1182,MAS,CON,150,bolso,,l,0.439,,463.1998,463.2001,-0.054490738,-0.415740738,0,0,0,,0,157,157,281,1,,,,,
,,,,,,b0e6ab85ad689503665b6a67,66a626ef09d4e21e1a8894ec,6734d68ef573a3e9d4aa6e7f,2024-11-13_10h41.42.099,Tarea de género gramatical,2024.2.2,Win32,60.24096386,,,,,,,,,,,,,,,,,,,,,,,463.2021,464.6664,a,1,[],[],[],[],[],[],[],0.7827,1,464.6666,465.1662,,,,,,1180,MAS,DIS,150,salón,la,l,0.7827,,465.1664,465.1666,-0.054490738,-0.415740738,0,0,0,,0,158,158,279,1,,,,,
,,,,,,b0e6ab85ad689503665b6a67,66a626ef09d4e21e1a8894ec,6734d68ef573a3e9d4aa6e7f,2024-11-13_10h41.42.099,Tarea de género gramatical,2024.2.2,Win32,60.24096386,,,,,,,,,,,,,,,,,,,,,,,465.1683,466.1994,l,1,[],[],[],[],[],[],[],0.3509,1,466.1996,466.6992,,,,,,1185,FEM,CON,150,mafia,,a,0.3509,,466.7019,466.705,-0.054490738,-0.415740738,0,0,0,,0,159,159,284,1,,,,,
,,,,,,b0e6ab85ad689503665b6a67,66a626ef09d4e21e1a8894ec,6734d68ef573a3e9d4aa6e7f,2024-11-13_10h41.42.099,Tarea de género gramatical,2024.2.2,Win32,60.24096386,,,,,,,,,,,,,,,,,,,,,,,466.7069,468.2489,a,0,[],[],[],[],[],[],[],0.8737,0,468.2505,468.7491,,,,,,1105,FEM,DIS,150,reina,el,a,0.8737,,468.7492,468.7494,-0.054490738,-0.415740738,0,0,0,,0,160,160,204,1,,,,,
,,,,,,b0e6ab85ad689503665b6a67,66a626ef09d4e21e1a8894ec,6734d68ef573a3e9d4aa6e7f,2024-11-13_10h41.42.099,Tarea de género gramatical,2024.2.2,Win32,60.24096386,,,,,,,,,,,,,,,,,,,,,,,468.7514,469.9153,l,1,[],[],[],[],[],[],[],0.4906,1,469.9169,470.4158,,,,,,1125,FEM,CON,150,pieza,,a,0.4906,,470.4159,470.4161,-0.054490738,-0.415740738,0,0,0,,0,161,161,224,1,,,,,
,,,,,,b0e6ab85ad689503665b6a67,66a626ef09d4e21e1a8894ec,6734d68ef573a3e9d4aa6e7f,2024-11-13_10h41.42.099,Tarea de género gramatical,2024.2.2,Win32,60.24096386,,,,,,,,,,,,,,,,,,,,,,,470.4185,471.9653,a,1,[],[],[],[],[],[],[],0.8676,1,471.9655,472.4651,,,,,,1294,MAS,DIS,150,examen,la,l,0.8676,,472.4653,472.4655,-0.054490738,-0.415740738,0,0,0,,0,162,162,393,1,,,,,
,,,,,,b0e6ab85ad689503665b6a67,66a626ef09d4e21e1a8894ec,6734d68ef573a3e9d4aa6e7f,2024-11-13_10h41.42.099,Tarea de género gramatical,2024.2.2,Win32,60.24096386,,,,,,,,,,,,,,,,,,,,,,,472.4677,473.5147,a,1,[],[],[],[],[],[],[],0.3729,1,473.5149,474.0149,,,,,,1331,MAS,AGR,150,veneno,el,l,0.3729,,474.015,474.0152,-0.054490738,-0.415740738,0,0,0,,0,163,163,430,1,,,,,
,,,,,,b0e6ab85ad689503665b6a67,66a626ef09d4e21e1a8894ec,6734d68ef573a3e9d4aa6e7f,2024-11-13_10h41.42.099,Tarea de género gramatical,2024.2.2,Win32,60.24096386,,,,,,,,,,,,,,,,,,,,,,,474.0172,475.065,l,1,[],[],[],[],[],[],[],0.368,1,475.0652,475.5648,,,,,,1311,FEM,CON,150,actriz,,a,0.368,,475.5676,475.5703,-0.054490738,-0.415740738,0,0,0,,0,164,164,410,1,,,,,
,,,,,,b0e6ab85ad689503665b6a67,66a626ef09d4e21e1a8894ec,6734d68ef573a3e9d4aa6e7f,2024-11-13_10h41.42.099,Tarea de género gramatical,2024.2.2,Win32,60.24096386,,,,,,,,,,,,,,,,,,,,,,,475.5722,476.6646,l,1,[],[],[],[],[],[],[],0.4236,1,476.6648,477.1646,,,,,,1118,FEM,AGR,150,nieve,la,a,0.4236,,477.1647,477.165,-0.054490738,-0.415740738,0,0,0,,0,165,165,217,1,,,,,
,,,,,,b0e6ab85ad689503665b6a67,66a626ef09d4e21e1a8894ec,6734d68ef573a3e9d4aa6e7f,2024-11-13_10h41.42.099,Tarea de género gramatical,2024.2.2,Win32,60.24096386,,,,,,,,,,,,,,,,,,,,,,,477.1669,478.5144,a,1,[],[],[],[],[],[],[],0.6732,1,478.5145,479.0145,,,,,,940,MAS,DIS,150,dios,la,l,0.6732,,479.0146,479.0148,-0.054490738,-0.415740738,0,0,0,,0,166,166,39,1,,,,,
,,,,,,b0e6ab85ad689503665b6a67,66a626ef09d4e21e1a8894ec,6734d68ef573a3e9d4aa6e7f,2024-11-13_10h41.42.099,Tarea de género gramatical,2024.2.2,Win32,60.24096386,,,,,,,,,,,,,,,,,,,,,,,479.0172,480.0975,a,1,[],[],[],[],[],[],[],0.3988,1,480.0977,480.5975,,,,,,1265,MAS,AGR,150,código,el,l,0.3988,,480.5977,480.5979,-0.054490738,-0.415740738,0,0,0,,0,167,167,364,1,,,,,
,,,,,,b0e6ab85ad689503665b6a67,66a626ef09d4e21e1a8894ec,6734d68ef573a3e9d4aa6e7f,2024-11-13_10h41.42.099,Tarea de género gramatical,2024.2.2,Win32,60.24096386,,,,,,,,,,,,,,,,,,,,,,,480.6,481.7471,l,1,[],[],[],[],[],[],[],0.4749,1,481.7472,482.2473,,,,,,1213,FEM,DIS,150,ciudad,el,a,0.4749,,482.2498,482.2527,-0.054490738,-0.415740738,0,0,0,,0,168,168,312,1,,,,,
,,,,,,b0e6ab85ad689503665b6a67,66a626ef09d4e21e1a8894ec,6734d68ef573a3e9d4aa6e7f,2024-11-13_10h41.42.099,Tarea de género gramatical,2024.2.2,Win32,60.24096386,,,,,,,,,,,,,,,,,,,,,,,482.2544,483.3971,a,1,[],[],[],[],[],[],[],0.4674,1,483.3973,483.8971,,,,,,918,MAS,CON,150,tren,,l,0.4674,,483.8973,483.8975,-0.054490738,-0.415740738,0,0,0,,0,169,169,17,1,,,,,
,,,,,,b0e6ab85ad689503665b6a67,66a626ef09d4e21e1a8894ec,6734d68ef573a3e9d4aa6e7f,2024-11-13_10h41.42.099,Tarea de género gramatical,2024.2.2,Win32,60.24096386,,,,,,,,,,,,,,,,,,,,,,,483.8996,485.0969,a,1,[],[],[],[],[],[],[],0.5178,1,485.0971,485.597,,,,,,1271,MAS,AGR,150,sonido,el,l,0.5178,,485.597,485.5972,-0.054490738,-0.415740738,0,0,0,,0,170,170,370,1,,,,,
,,,,,,b0e6ab85ad689503665b6a67,66a626ef09d4e21e1a8894ec,6734d68ef573a3e9d4aa6e7f,2024-11-13_10h41.42.099,Tarea de género gramatical,2024.2.2,Win32,60.24096386,,,,,,,,,,,,,,,,,,,,,,,485.5997,486.5968,a,1,[],[],[],[],[],[],[],0.3161,1,486.597,487.0967,,,,,,1247,MAS,AGR,150,cuello,el,l,0.3161,,487.0969,487.097,-0.054490738,-0.415740738,0,0,0,,0,171,171,346,1,,,,,
,,,,,,b0e6ab85ad689503665b6a67,66a626ef09d4e21e1a8894ec,6734d68ef573a3e9d4aa6e7f,2024-11-13_10h41.42.099,Tarea de género gramatical,2024.2.2,Win32,60.24096386,,,,,,,,,,,,,,,,,,,,,,,487.0991,488.1466,a,1,[],[],[],[],[],[],[],0.371,1,488.1468,488.6465,,,,,,983,MAS,AGR,150,nene,el,l,0.371,,488.6466,488.6468,-0.054490738,-0.415740738,0,0,0,,0,172,172,82,1,,,,,
,,,,,,b0e6ab85ad689503665b6a67,66a626ef09d4e21e1a8894ec,6734d68ef573a3e9d4aa6e7f,2024-11-13_10h41.42.099,Tarea de género gramatical,2024.2.2,Win32,60.24096386,,,,,,,,,,,,,,,,,,,,,,,488.6488,489.7631,a,0,[],[],[],[],[],[],[],0.4343,0,489.7646,490.2628,,,,,,937,FEM,DIS,150,sala,el,a,0.4343,,490.2655,490.2683,-0.054490738,-0.415740738,0,0,0,,0,173,173,36,1,,,,,
,,,,,,b0e6ab85ad689503665b6a67,66a626ef09d4e21e1a8894ec,6734d68ef573a3e9d4aa6e7f,2024-11-13_10h41.42.099,Tarea de género gramatical,2024.2.2,Win32,60.24096386,,,,,,,,,,,,,,,,,,,,,,,490.27,491.4298,l,1,[],[],[],[],[],[],[],0.483,1,491.434,491.9298,,,,,,1261,FEM,DIS,150,oferta,el,a,0.483,,491.9299,491.9301,-0.054490738,-0.415740738,0,0,0,,0,174,174,360,1,,,,,
,,,,,,b0e6ab85ad689503665b6a67,66a626ef09d4e21e1a8894ec,6734d68ef573a3e9d4aa6e7f,2024-11-13_10h41.42.099,Tarea de género gramatical,2024.2.2,Win32,60.24096386,,,,,,,,,,,,,,,,,,,,,,,491.9323,493.0792,a,1,[],[],[],[],[],[],[],0.4697,1,493.0794,493.5793,,,,,,995,MAS,AGR,150,tomo,el,l,0.4697,,493.5793,493.5795,-0.054490738,-0.415740738,0,0,0,,0,175,175,94,1,,,,,
,,,,,,b0e6ab85ad689503665b6a67,66a626ef09d4e21e1a8894ec,6734d68ef573a3e9d4aa6e7f,2024-11-13_10h41.42.099,Tarea de género gramatical,2024.2.2,Win32,60.24096386,,,,,,,,,,,,,,,,,,,,,,,493.5816,494.7957,a,0,[],[],[],[],[],[],[],0.5359,0,494.7972,495.2957,,,,,,1093,FEM,DIS,150,bolsa,el,a,0.5359,,495.2959,495.2961,-0.054490738,-0.415740738,0,0,0,,0,176,176,192,1,,,,,
,,,,,,b0e6ab85ad689503665b6a67,66a626ef09d4e21e1a8894ec,6734d68ef573a3e9d4aa6e7f,2024-11-13_10h41.42.099,Tarea de género gramatical,2024.2.2,Win32,60.24096386,,,,,,,,,,,,,,,,,,,,,,,495.2981,496.4288,a,1,[],[],[],[],[],[],[],0.451,1,496.4304,496.9287,,,,,,1157,MAS,AGR,150,pecho,el,l,0.451,,496.9314,496.9344,-0.054490738,-0.415740738,0,0,0,,0,177,177,256,1,,,,,
,,,,,,b0e6ab85ad689503665b6a67,66a626ef09d4e21e1a8894ec,6734d68ef573a3e9d4aa6e7f,2024-11-13_10h41.42.099,Tarea de género gramatical,2024.2.2,Win32,60.24096386,,,,,,,,,,,,,,,,,,,,,,,496.9363,498.1619,l,1,[],[],[],[],[],[],[],0.5539,1,498.162,498.6618,,,,,,1154,FEM,AGR,150,caída,la,a,0.5539,,498.6619,498.6621,-0.054490738,-0.415740738,0,0,0,,0,178,178,253,1,,,,,
,,,,,,b0e6ab85ad689503665b6a67,66a626ef09d4e21e1a8894ec,6734d68ef573a3e9d4aa6e7f,2024-11-13_10h41.42.099,Tarea de género gramatical,2024.2.2,Win32,60.24096386,,,,,,,,,,,,,,,,,,,,,,,498.6641,499.8781,a,1,[],[],[],[],[],[],[],0.5435,1,499.8783,500.3783,,,,,,928,MAS,DIS,150,club,la,l,0.5435,,500.3784,500.3786,-0.054490738,-0.415740738,0,0,0,,0,179,179,27,1,,,,,
,,,,,,b0e6ab85ad689503665b6a67,66a626ef09d4e21e1a8894ec,6734d68ef573a3e9d4aa6e7f,2024-11-13_10h41.42.099,Tarea de género gramatical,2024.2.2,Win32,60.24096386,,,,,,,,,,,,,,,,,,,,,,,500.3808,501.6281,l,1,[],[],[],[],[],[],[],0.57,1,501.6283,502.1283,,,,,,1063,FEM,DIS,150,calle,el,a,0.57,,502.1284,502.1287,-0.054490738,-0.415740738,0,0,0,,0,180,180,162,1,,,,,
,,,,,,b0e6ab85ad689503665b6a67,66a626ef09d4e21e1a8894ec,6734d68ef573a3e9d4aa6e7f,2024-11-13_10h41.42.099,Tarea de género gramatical,2024.2.2,Win32,60.24096386,,,,,,,,,,,,,,,,,,,,,,,502.1311,503.4448,l,1,[],[],[],[],[],[],[],0.6325,1,503.445,503.9444,,,,,,1231,FEM,DIS,150,cárcel,el,a,0.6325,,503.9445,503.9448,-0.054490738,-0.415740738,0,0,0,,0,181,181,330,1,,,,,
,,,,,,b0e6ab85ad689503665b6a67,66a626ef09d4e21e1a8894ec,6734d68ef573a3e9d4aa6e7f,2024-11-13_10h41.42.099,Tarea de género gramatical,2024.2.2,Win32,60.24096386,,,,,,,,,,,,,,,,,,,,,,,503.9477,505.0944,a,1,[],[],[],[],[],[],[],0.4685,1,505.0946,505.5945,,,,,,1277,MAS,AGR,150,jardín,el,l,0.4685,,505.5974,505.6003,-0.054490738,-0.415740738,0,0,0,,0,182,182,376,1,,,,,
,,,,,,b0e6ab85ad689503665b6a67,66a626ef09d4e21e1a8894ec,6734d68ef573a3e9d4aa6e7f,2024-11-13_10h41.42.099,Tarea de género gramatical,2024.2.2,Win32,60.24096386,,,,,,,,,,,,,,,,,,,,,,,505.6021,506.9108,a,1,[],[],[],[],[],[],[],0.6328,1,506.911,507.4109,,,,,,1150,MAS,DIS,150,cerdo,la,l,0.6328,,507.411,507.4113,-0.054490738,-0.415740738,0,0,0,,0,183,183,249,1,,,,,
,,,,,,b0e6ab85ad689503665b6a67,66a626ef09d4e21e1a8894ec,6734d68ef573a3e9d4aa6e7f,2024-11-13_10h41.42.099,Tarea de género gramatical,2024.2.2,Win32,60.24096386,,,,,,,,,,,,,,,,,,,,,,,507.4137,508.4771,a,1,[],[],[],[],[],[],[],0.3846,1,508.4773,508.9773,,,,,,1145,MAS,AGR,150,turno,el,l,0.3846,,508.9774,508.9776,-0.054490738,-0.415740738,0,0,0,,0,184,184,244,1,,,,,
,,,,,,b0e6ab85ad689503665b6a67,66a626ef09d4e21e1a8894ec,6734d68ef573a3e9d4aa6e7f,2024-11-13_10h41.42.099,Tarea de género gramatical,2024.2.2,Win32,60.24096386,,,,,,,,,,,,,,,,,,,,,,,508.9796,510.0936,l,1,[],[],[],[],[],[],[],0.4366,1,510.0937,510.5938,,,,,,1305,FEM,CON,150,parada,,a,0.4366,,510.5939,510.5941,-0.054490738,-0.415740738,0,0,0,,0,185,185,404,1,,,,,
,,,,,,b0e6ab85ad689503665b6a67,66a626ef09d4e21e1a8894ec,6734d68ef573a3e9d4aa6e7f,2024-11-13_10h41.42.099,Tarea de género gramatical,2024.2.2,Win32,60.24096386,,,,,,,,,,,,,,,,,,,,,,,510.5964,511.8601,l,1,[],[],[],[],[],[],[],0.584,1,511.8603,512.3601,,,,,,1237,FEM,DIS,150,escena,el,a,0.584,,512.3628,512.3656,-0.054490738,-0.415740738,0,0,0,,0,186,186,336,1,,,,,
,,,,,,b0e6ab85ad689503665b6a67,66a626ef09d4e21e1a8894ec,6734d68ef573a3e9d4aa6e7f,2024-11-13_10h41.42.099,Tarea de género gramatical,2024.2.2,Win32,60.24096386,,,,,,,,,,,,,,,,,,,,,,,512.3675,513.4433,l,1,[],[],[],[],[],[],[],0.4015,1,513.4435,513.9433,,,,,,1267,FEM,DIS,150,teoría,el,a,0.4015,,513.9435,513.9437,-0.054490738,-0.415740738,0,0,0,,0,187,187,366,1,,,,,
,,,,,,b0e6ab85ad689503665b6a67,66a626ef09d4e21e1a8894ec,6734d68ef573a3e9d4aa6e7f,2024-11-13_10h41.42.099,Tarea de género gramatical,2024.2.2,Win32,60.24096386,,,,,,,,,,,,,,,,,,,,,,,513.9457,515.1931,l,1,[],[],[],[],[],[],[],0.57,1,515.1933,515.6931,,,,,,1207,FEM,DIS,150,suerte,el,a,0.57,,515.6932,515.6935,-0.054490738,-0.415740738,0,0,0,,0,188,188,306,1,,,,,
,,,,,,b0e6ab85ad689503665b6a67,66a626ef09d4e21e1a8894ec,6734d68ef573a3e9d4aa6e7f,2024-11-13_10h41.42.099,Tarea de género gramatical,2024.2.2,Win32,60.24096386,,,,,,,,,,,,,,,,,,,,,,,515.6957,516.5926,l,1,[],[],[],[],[],[],[],0.2239,1,516.5927,517.0932,,,,,,944,FEM,AGR,150,zona,la,a,0.2239,,517.0933,517.0936,-0.054490738,-0.415740738,0,0,0,,0,189,189,43,1,,,,,
,,,,,,b0e6ab85ad689503665b6a67,66a626ef09d4e21e1a8894ec,6734d68ef573a3e9d4aa6e7f,2024-11-13_10h41.42.099,Tarea de género gramatical,2024.2.2,Win32,60.24096386,,,,,,,,,,,,,,,,,,,,,,,517.0958,518.1761,l,1,[],[],[],[],[],[],[],0.4047,1,518.1763,518.6759,,,,,,1309,FEM,DIS,150,moneda,el,a,0.4047,,518.676,518.6762,-0.054490738,-0.415740738,0,0,0,,0,190,190,408,1,,,,,
,,,,,,b0e6ab85ad689503665b6a67,66a626ef09d4e21e1a8894ec,6734d68ef573a3e9d4aa6e7f,2024-11-13_10h41.42.099,Tarea de género gramatical,2024.2.2,Win32,60.24096386,,,,,,,,,,,,,,,,,,,,,,,518.6782,519.926,a,1,[],[],[],[],[],[],[],0.5683,1,519.9262,520.4258,,,,,,1314,MAS,CON,150,sótano,,l,0.5683,,520.4288,520.4319,-0.054490738,-0.415740738,0,0,0,,0,191,191,413,1,,,,,
,,,,,,b0e6ab85ad689503665b6a67,66a626ef09d4e21e1a8894ec,6734d68ef573a3e9d4aa6e7f,2024-11-13_10h41.42.099,Tarea de género gramatical,2024.2.2,Win32,60.24096386,,,,,,,,,,,,,,,,,,,,,,,520.4339,521.3256,l,1,[],[],[],[],[],[],[],0.2178,1,521.3258,521.8256,,,,,,1190,FEM,AGR,150,cabra,la,a,0.2178,,521.8256,521.8258,-0.054490738,-0.415740738,0,0,0,,0,192,192,289,1,,,,,
,,,,,,b0e6ab85ad689503665b6a67,66a626ef09d4e21e1a8894ec,6734d68ef573a3e9d4aa6e7f,2024-11-13_10h41.42.099,Tarea de género gramatical,2024.2.2,Win32,60.24096386,,,,,,,,,,,,,,,,,,,,,,,521.8277,522.892,a,1,[],[],[],[],[],[],[],0.3847,1,522.8923,523.392,,,,,,972,MAS,CON,150,hoyo,,l,0.3847,,523.3922,523.3923,-0.054490738,-0.415740738,0,0,0,,0,193,193,71,1,,,,,
,,,,,,b0e6ab85ad689503665b6a67,66a626ef09d4e21e1a8894ec,6734d68ef573a3e9d4aa6e7f,2024-11-13_10h41.42.099,Tarea de género gramatical,2024.2.2,Win32,60.24096386,,,,,,,,,,,,,,,,,,,,,,,523.3943,524.6587,a,1,[],[],[],[],[],[],[],0.5862,1,524.6589,525.1585,,,,,,1061,MAS,AGR,150,chico,el,l,0.5862,,525.1586,525.1588,-0.054490738,-0.415740738,0,0,0,,0,194,194,160,1,,,,,
,,,,,,b0e6ab85ad689503665b6a67,66a626ef09d4e21e1a8894ec,6734d68ef573a3e9d4aa6e7f,2024-11-13_10h41.42.099,Tarea de género gramatical,2024.2.2,Win32,60.24096386,,,,,,,,,,,,,,,,,,,,,,,525.1609,526.1581,l,1,[],[],[],[],[],[],[],0.3227,1,526.1583,526.6579,,,,,,1298,FEM,AGR,150,hierba,la,a,0.3227,,526.6604,526.6634,-0.054490738,-0.415740738,0,0,0,,0,195,195,397,1,,,,,
,,,,,,b0e6ab85ad689503665b6a67,66a626ef09d4e21e1a8894ec,6734d68ef573a3e9d4aa6e7f,2024-11-13_10h41.42.099,Tarea de género gramatical,2024.2.2,Win32,60.24096386,,,,,,,,,,,,,,,,,,,,,,,526.6651,527.7411,a,1,[],[],[],[],[],[],[],0.4082,1,527.7412,528.2414,,,,,,966,MAS,CON,150,muro,,l,0.4082,,528.2415,528.2417,-0.054490738,-0.415740738,0,0,0,,0,196,196,65,1,,,,,
,,,,,,b0e6ab85ad689503665b6a67,66a626ef09d4e21e1a8894ec,6734d68ef573a3e9d4aa6e7f,2024-11-13_10h41.42.099,Tarea de género gramatical,2024.2.2,Win32,60.24096386,,,,,,,,,,,,,,,,,,,,,,,528.2438,529.208,l,1,[],[],[],[],[],[],[],0.2842,1,529.2082,529.7078,,,,,,1010,FEM,AGR,150,rosa,la,a,0.2842,,529.7079,529.7081,-0.054490738,-0.415740738,0,0,0,,0,197,197,109,1,,,,,
,,,,,,b0e6ab85ad689503665b6a67,66a626ef09d4e21e1a8894ec,6734d68ef573a3e9d4aa6e7f,2024-11-13_10h41.42.099,Tarea de género gramatical,2024.2.2,Win32,60.24096386,,,,,,,,,,,,,,,,,,,,,,,529.7101,530.7244,l,1,[],[],[],[],[],[],[],0.3394,1,530.7245,531.2245,,,,,,925,FEM,DIS,150,nave,el,a,0.3394,,531.2246,531.2249,-0.054490738,-0.415740738,0,0,0,,0,198,198,24,1,,,,,
,,,,,,b0e6ab85ad689503665b6a67,66a626ef09d4e21e1a8894ec,6734d68ef573a3e9d4aa6e7f,2024-11-13_10h41.42.099,Tarea de género gramatical,2024.2.2,Win32,60.24096386,,,,,,,,,,,,,,,,,,,,,,,531.2268,532.2909,a,1,[],[],[],[],[],[],[],0.3848,1,532.291,532.7909,,,,,,1199,MAS,AGR,150,rumbo,el,l,0.3848,,532.791,532.7913,-0.054490738,-0.415740738,0,0,0,,0,199,199,298,1,,,,,
,,,,,,b0e6ab85ad689503665b6a67,66a626ef09d4e21e1a8894ec,6734d68ef573a3e9d4aa6e7f,2024-11-13_10h41.42.099,Tarea de género gramatical,2024.2.2,Win32,60.24096386,,,,,,,,,,,,,,,,,,,,,,,532.7952,533.8574,l,1,[],[],[],[],[],[],[],0.3846,1,533.8577,534.3572,,,,,,1106,FEM,AGR,150,época,la,a,0.3846,,534.3597,534.3626,-0.054490738,-0.415740738,0,0,0,,0,200,200,205,1,,,,,
,,,,,,b0e6ab85ad689503665b6a67,66a626ef09d4e21e1a8894ec,6734d68ef573a3e9d4aa6e7f,2024-11-13_10h41.42.099,Tarea de género gramatical,2024.2.2,Win32,60.24096386,,,,,,,,,,,,,,,,,,,,,,,534.3644,535.6571,a,1,[],[],[],[],[],[],[],0.6179,1,535.6573,536.1571,,,,,,1132,MAS,DIS,150,calor,la,l,0.6179,,536.1573,536.1574,-0.054490738,-0.415740738,0,0,0,,0,201,201,231,1,,,,,
,,,,,,b0e6ab85ad689503665b6a67,66a626ef09d4e21e1a8894ec,6734d68ef573a3e9d4aa6e7f,2024-11-13_10h41.42.099,Tarea de género gramatical,2024.2.2,Win32,60.24096386,,,,,,,,,,,,,,,,,,,,,,,536.1595,537.5564,l,0,[],[],[],[],[],[],[],0.7243,0,537.5579,538.0565,,,,,,946,MAS,DIS,150,odio,la,l,0.7243,,538.0566,538.0568,-0.054490738,-0.415740738,0,0,0,,0,202,202,45,1,,,,,
,,,,,,b0e6ab85ad689503665b6a67,66a626ef09d4e21e1a8894ec,6734d68ef573a3e9d4aa6e7f,2024-11-13_10h41.42.099,Tarea de género gramatical,2024.2.2,Win32,60.24096386,,,,,,,,,,,,,,,,,,,,,,,538.0591,539.1068,l,1,[],[],[],[],[],[],[],0.3657,1,539.1086,539.6066,,,,,,1107,FEM,CON,150,playa,,a,0.3657,,539.6067,539.6069,-0.054490738,-0.415740738,0,0,0,,0,203,203,206,1,,,,,
,,,,,,b0e6ab85ad689503665b6a67,66a626ef09d4e21e1a8894ec,6734d68ef573a3e9d4aa6e7f,2024-11-13_10h41.42.099,Tarea de género gramatical,2024.2.2,Win32,60.24096386,,,,,,,,,,,,,,,,,,,,,,,539.609,541.0234,a,1,[],[],[],[],[],[],[],0.7324,1,541.0237,541.5232,,,,,,1348,MAS,DIS,150,aceite,la,l,0.7324,,541.5258,541.5285,-0.054490738,-0.415740738,0,0,0,,0,204,204,447,1,,,,,
,,,,,,b0e6ab85ad689503665b6a67,66a626ef09d4e21e1a8894ec,6734d68ef573a3e9d4aa6e7f,2024-11-13_10h41.42.099,Tarea de género gramatical,2024.2.2,Win32,60.24096386,,,,,,,,,,,,,,,,,,,,,,,541.5302,542.6064,l,0,[],[],[],[],[],[],[],0.4015,0,542.6082,543.1062,,,,,,1092,MAS,CON,150,grupo,,l,0.4015,,543.1062,543.1065,-0.054490738,-0.415740738,0,0,0,,0,205,205,191,1,,,,,
,,,,,,b0e6ab85ad689503665b6a67,66a626ef09d4e21e1a8894ec,6734d68ef573a3e9d4aa6e7f,2024-11-13_10h41.42.099,Tarea de género gramatical,2024.2.2,Win32,60.24096386,,,,,,,,,,,,,,,,,,,,,,,543.1085,544.2893,a,0,[],[],[],[],[],[],[],0.5038,0,544.2895,544.7893,,,,,,1135,FEM,DIS,150,torre,el,a,0.5038,,544.7893,544.7895,-0.054490738,-0.415740738,0,0,0,,0,206,206,234,1,,,,,
,,,,,,b0e6ab85ad689503665b6a67,66a626ef09d4e21e1a8894ec,6734d68ef573a3e9d4aa6e7f,2024-11-13_10h41.42.099,Tarea de género gramatical,2024.2.2,Win32,60.24096386,,,,,,,,,,,,,,,,,,,,,,,544.7915,545.8721,l,1,[],[],[],[],[],[],[],0.407,1,545.8737,546.3726,,,,,,1161,FEM,CON,150,cueva,,a,0.407,,546.3727,546.3729,-0.054490738,-0.415740738,0,0,0,,0,207,207,260,1,,,,,
,,,,,,b0e6ab85ad689503665b6a67,66a626ef09d4e21e1a8894ec,6734d68ef573a3e9d4aa6e7f,2024-11-13_10h41.42.099,Tarea de género gramatical,2024.2.2,Win32,60.24096386,,,,,,,,,,,,,,,,,,,,,,,546.3748,547.7219,a,1,[],[],[],[],[],[],[],0.674,1,547.7221,548.2222,,,,,,948,MAS,CON,150,loco,,l,0.674,,548.2223,548.2226,-0.054490738,-0.415740738,0,0,0,,0,208,208,47,1,,,,,
,,,,,,b0e6ab85ad689503665b6a67,66a626ef09d4e21e1a8894ec,6734d68ef573a3e9d4aa6e7f,2024-11-13_10h41.42.099,Tarea de género gramatical,2024.2.2,Win32,60.24096386,,,,,,,,,,,,,,,,,,,,,,,548.2246,549.2721,l,1,[],[],[],[],[],[],[],0.3708,1,549.2722,549.7717,,,,,,921,FEM,CON,150,boca,,a,0.3708,,549.7748,549.7785,-0.054490738,-0.415740738,0,0,0,,0,209,209,20,1,,,,,
,,,,,,b0e6ab85ad689503665b6a67,66a626ef09d4e21e1a8894ec,6734d68ef573a3e9d4aa6e7f,2024-11-13_10h41.42.099,Tarea de género gramatical,2024.2.2,Win32,60.24096386,,,,,,,,,,,,,,,,,,,,,,,549.7803,550.8553,l,1,[],[],[],[],[],[],[],0.4006,1,550.8556,551.3554,,,,,,1179,FEM,CON,150,selva,,a,0.4006,,551.3556,551.3558,-0.054490738,-0.415740738,0,0,0,,0,210,210,278,1,,,,,
,,,,,,b0e6ab85ad689503665b6a67,66a626ef09d4e21e1a8894ec,6734d68ef573a3e9d4aa6e7f,2024-11-13_10h41.42.099,Tarea de género gramatical,2024.2.2,Win32,60.24096386,,,,,,,,,,,,,,,,,,,,,,,551.3581,552.355,l,1,[],[],[],[],[],[],[],0.3182,1,552.3552,552.855,,,,,,931,FEM,DIS,150,edad,el,a,0.3182,,552.8551,552.8553,-0.054490738,-0.415740738,0,0,0,,0,211,211,30,1,,,,,
,,,,,,b0e6ab85ad689503665b6a67,66a626ef09d4e21e1a8894ec,6734d68ef573a3e9d4aa6e7f,2024-11-13_10h41.42.099,Tarea de género gramatical,2024.2.2,Win32,60.24096386,,,,,,,,,,,,,,,,,,,,,,,552.8574,554.2714,l,1,[],[],[],[],[],[],[],0.7341,1,554.2716,554.7714,,,,,,1165,FEM,DIS,150,rueda,el,a,0.7341,,554.7715,554.7718,-0.054490738,-0.415740738,0,0,0,,0,212,212,264,1,,,,,
,,,,,,b0e6ab85ad689503665b6a67,66a626ef09d4e21e1a8894ec,6734d68ef573a3e9d4aa6e7f,2024-11-13_10h41.42.099,Tarea de género gramatical,2024.2.2,Win32,60.24096386,,,,,,,,,,,,,,,,,,,,,,,554.7738,555.7879,l,1,[],[],[],[],[],[],[],0.335,1,555.7881,556.2879,,,,,,907,FEM,DIS,150,hora,el,a,0.335,,556.2906,556.2935,-0.054490738,-0.415740738,0,0,0,,0,213,213,6,1,,,,,
,,,,,,b0e6ab85ad689503665b6a67,66a626ef09d4e21e1a8894ec,6734d68ef573a3e9d4aa6e7f,2024-11-13_10h41.42.099,Tarea de género gramatical,2024.2.2,Win32,60.24096386,,,,,,,,,,,,,,,,,,,,,,,556.2952,557.3206,l,1,[],[],[],[],[],[],[],0.3607,1,557.3207,557.8211,,,,,,1148,FEM,AGR,150,letra,la,a,0.3607,,557.8212,557.8215,-0.054490738,-0.415740738,0,0,0,,0,214,214,247,1,,,,,
,,,,,,b0e6ab85ad689503665b6a67,66a626ef09d4e21e1a8894ec,6734d68ef573a3e9d4aa6e7f,2024-11-13_10h41.42.099,Tarea de género gramatical,2024.2.2,Win32,60.24096386,,,,,,,,,,,,,,,,,,,,,,,557.8236,558.7542,l,1,[],[],[],[],[],[],[],0.2538,1,558.7544,559.2541,,,,,,1249,FEM,DIS,150,prensa,el,a,0.2538,,559.2543,559.2544,-0.054490738,-0.415740738,0,0,0,,0,215,215,348,1,,,,,
,,,,,,b0e6ab85ad689503665b6a67,66a626ef09d4e21e1a8894ec,6734d68ef573a3e9d4aa6e7f,2024-11-13_10h41.42.099,Tarea de género gramatical,2024.2.2,Win32,60.24096386,,,,,,,,,,,,,,,,,,,,,,,559.2563,560.2706,l,1,[],[],[],[],[],[],[],0.3371,1,560.2707,560.7705,,,,,,993,FEM,CON,150,lata,,a,0.3371,,560.7706,560.7711,-0.054490738,-0.415740738,0,0,0,,0,216,216,92,1,,,,,
,,,,,,b0e6ab85ad689503665b6a67,66a626ef09d4e21e1a8894ec,6734d68ef573a3e9d4aa6e7f,2024-11-13_10h41.42.099,Tarea de género gramatical,2024.2.2,Win32,60.24096386,,,,,,,,,,,,,,,,,,,,,,,560.7731,561.8206,a,1,[],[],[],[],[],[],[],0.3681,1,561.8207,562.3204,,,,,,1140,MAS,CON,150,ruido,,l,0.3681,,562.3204,562.3208,-0.054490738,-0.415740738,0,0,0,,0,217,217,239,1,,,,,
,,,,,,b0e6ab85ad689503665b6a67,66a626ef09d4e21e1a8894ec,6734d68ef573a3e9d4aa6e7f,2024-11-13_10h41.42.099,Tarea de género gramatical,2024.2.2,Win32,60.24096386,,,,,,,,,,,,,,,,,,,,,,,562.3227,563.5704,l,0,[],[],[],[],[],[],[],0.568,0,563.5719,564.0703,,,,,,994,MAS,DIS,150,cabo,la,l,0.568,,564.0728,564.076,-0.054490738,-0.415740738,0,0,0,,0,218,218,93,1,,,,,
,,,,,,b0e6ab85ad689503665b6a67,66a626ef09d4e21e1a8894ec,6734d68ef573a3e9d4aa6e7f,2024-11-13_10h41.42.099,Tarea de género gramatical,2024.2.2,Win32,60.24096386,,,,,,,,,,,,,,,,,,,,,,,564.0779,565.3034,l,1,[],[],[],[],[],[],[],0.5514,1,565.305,565.8032,,,,,,919,FEM,DIS,150,niña,el,a,0.5514,,565.8034,565.8036,-0.054490738,-0.415740738,0,0,0,,0,219,219,18,1,,,,,
,,,,,,b0e6ab85ad689503665b6a67,66a626ef09d4e21e1a8894ec,6734d68ef573a3e9d4aa6e7f,2024-11-13_10h41.42.099,Tarea de género gramatical,2024.2.2,Win32,60.24096386,,,,,,,,,,,,,,,,,,,,,,,565.8058,566.7699,l,1,[],[],[],[],[],[],[],0.2843,1,566.7701,567.2698,,,,,,1009,FEM,DIS,150,gota,el,a,0.2843,,567.27,567.2702,-0.054490738,-0.415740738,0,0,0,,0,220,220,108,1,,,,,
,,,,,,b0e6ab85ad689503665b6a67,66a626ef09d4e21e1a8894ec,6734d68ef573a3e9d4aa6e7f,2024-11-13_10h41.42.099,Tarea de género gramatical,2024.2.2,Win32,60.24096386,,,,,,,,,,,,,,,,,,,,,,,567.2726,568.5861,a,1,[],[],[],[],[],[],[],0.6416,1,568.5862,569.0862,,,,,,1024,MAS,DIS,150,clan,la,l,0.6416,,569.0863,569.0866,-0.054490738,-0.415740738,0,0,0,,0,221,221,123,1,,,,,
,,,,,,b0e6ab85ad689503665b6a67,66a626ef09d4e21e1a8894ec,6734d68ef573a3e9d4aa6e7f,2024-11-13_10h41.42.099,Tarea de género gramatical,2024.2.2,Win32,60.24096386,,,,,,,,,,,,,,,,,,,,,,,569.0887,570.1527,l,1,[],[],[],[],[],[],[],0.3906,1,570.1529,570.6525,,,,,,1070,FEM,AGR,150,carta,la,a,0.3906,,570.6551,570.658,-0.054490738,-0.415740738,0,0,0,,0,222,222,169,1,,,,,
,,,,,,b0e6ab85ad689503665b6a67,66a626ef09d4e21e1a8894ec,6734d68ef573a3e9d4aa6e7f,2024-11-13_10h41.42.099,Tarea de género gramatical,2024.2.2,Win32,60.24096386,,,,,,,,,,,,,,,,,,,,,,,570.6597,571.7026,l,1,[],[],[],[],[],[],[],0.3677,1,571.7028,572.2023,,,,,,1233,FEM,CON,150,locura,,a,0.3677,,572.2024,572.2026,-0.054490738,-0.415740738,0,0,0,,0,223,223,332,1,,,,,
,,,,,,b0e6ab85ad689503665b6a67,66a626ef09d4e21e1a8894ec,6734d68ef573a3e9d4aa6e7f,2024-11-13_10h41.42.099,Tarea de género gramatical,2024.2.2,Win32,60.24096386,,,,,,,,,,,,,,,,,,,,,,,572.2047,573.3356,a,1,[],[],[],[],[],[],[],0.4494,1,573.3358,573.8356,,,,,,1325,MAS,AGR,150,chiste,el,l,0.4494,,573.8356,573.8358,-0.054490738,-0.415740738,0,0,0,,0,224,224,424,1,,,,,
,,,,,,b0e6ab85ad689503665b6a67,66a626ef09d4e21e1a8894ec,6734d68ef573a3e9d4aa6e7f,2024-11-13_10h41.42.099,Tarea de género gramatical,2024.2.2,Win32,60.24096386,,,,,,,,,,,,,,,,,,,,,,,573.8379,574.7855,l,1,[],[],[],[],[],[],[],0.2687,1,574.7857,575.2857,,,,,,975,FEM,CON,150,caza,,a,0.2687,,575.2858,575.2862,-0.054490738,-0.415740738,0,0,0,,0,225,225,74,1,,,,,
,,,,,,b0e6ab85ad689503665b6a67,66a626ef09d4e21e1a8894ec,6734d68ef573a3e9d4aa6e7f,2024-11-13_10h41.42.099,Tarea de género gramatical,2024.2.2,Win32,60.24096386,,,,,,,,,,,,,,,,,,,,,,,575.2884,576.5356,a,1,[],[],[],[],[],[],[],0.568,1,576.5357,577.0351,,,,,,1102,MAS,DIS,150,honor,la,l,0.568,,577.0352,577.0355,-0.054490738,-0.415740738,0,0,0,,0,226,226,201,1,,,,,
,,,,,,b0e6ab85ad689503665b6a67,66a626ef09d4e21e1a8894ec,6734d68ef573a3e9d4aa6e7f,2024-11-13_10h41.42.099,Tarea de género gramatical,2024.2.2,Win32,60.24096386,,,,,,,,,,,,,,,,,,,,,,,577.0375,578.068,l,1,[],[],[],[],[],[],[],0.3547,1,578.0682,578.5683,,,,,,938,FEM,AGR,150,obra,la,a,0.3547,,578.5712,578.5743,-0.054490738,-0.415740738,0,0,0,,0,227,227,37,1,,,,,
,,,,,,b0e6ab85ad689503665b6a67,66a626ef09d4e21e1a8894ec,6734d68ef573a3e9d4aa6e7f,2024-11-13_10h41.42.099,Tarea de género gramatical,2024.2.2,Win32,60.24096386,,,,,,,,,,,,,,,,,,,,,,,578.576,579.6349,l,1,[],[],[],[],[],[],[],0.3875,1,579.6352,580.1348,,,,,,1023,FEM,CON,150,tela,,a,0.3875,,580.1348,580.1351,-0.054490738,-0.415740738,0,0,0,,0,228,228,122,1,,,,,
,,,,,,b0e6ab85ad689503665b6a67,66a626ef09d4e21e1a8894ec,6734d68ef573a3e9d4aa6e7f,2024-11-13_10h41.42.099,Tarea de género gramatical,2024.2.2,Win32,60.24096386,,,,,,,,,,,,,,,,,,,,,,,580.1373,581.3013,a,1,[],[],[],[],[],[],[],0.4843,1,581.3014,581.8011,,,,,,922,MAS,DIS,150,pelo,la,l,0.4843,,581.8011,581.8014,-0.054490738,-0.415740738,0,0,0,,0,229,229,21,1,,,,,
,,,,,,b0e6ab85ad689503665b6a67,66a626ef09d4e21e1a8894ec,6734d68ef573a3e9d4aa6e7f,2024-11-13_10h41.42.099,Tarea de género gramatical,2024.2.2,Win32,60.24096386,,,,,,,,,,,,,,,,,,,,,,,581.8034,582.801,l,1,[],[],[],[],[],[],[],0.3208,1,582.8012,583.3011,,,,,,1046,FEM,AGR,150,lana,la,a,0.3208,,583.3012,583.3015,-0.054490738,-0.415740738,0,0,0,,0,230,230,145,1,,,,,
,,,,,,b0e6ab85ad689503665b6a67,66a626ef09d4e21e1a8894ec,6734d68ef573a3e9d4aa6e7f,2024-11-13_10h41.42.099,Tarea de género gramatical,2024.2.2,Win32,60.24096386,,,,,,,,,,,,,,,,,,,,,,,583.3036,584.6342,l,1,[],[],[],[],[],[],[],0.6551,1,584.6344,585.1342,,,,,,1051,FEM,DIS,150,noche,el,a,0.6551,,585.1368,585.1397,-0.054490738,-0.415740738,0,0,0,,0,231,231,150,1,,,,,
,,,,,,b0e6ab85ad689503665b6a67,66a626ef09d4e21e1a8894ec,6734d68ef573a3e9d4aa6e7f,2024-11-13_10h41.42.099,Tarea de género gramatical,2024.2.2,Win32,60.24096386,,,,,,,,,,,,,,,,,,,,,,,585.1414,586.3507,a,1,[],[],[],[],[],[],[],0.5366,1,586.3509,586.8507,,,,,,1278,MAS,CON,150,pastel,,l,0.5366,,586.8508,586.8511,-0.054490738,-0.415740738,0,0,0,,0,232,232,377,1,,,,,
,,,,,,b0e6ab85ad689503665b6a67,66a626ef09d4e21e1a8894ec,6734d68ef573a3e9d4aa6e7f,2024-11-13_10h41.42.099,Tarea de género gramatical,2024.2.2,Win32,60.24096386,,,,,,,,,,,,,,,,,,,,,,,586.8534,588.0337,l,1,[],[],[],[],[],[],[],0.5012,1,588.0339,588.5337,,,,,,1159,FEM,DIS,150,prima,el,a,0.5012,,588.5338,588.534,-0.054490738,-0.415740738,0,0,0,,0,233,233,258,1,,,,,
,,,,,,b0e6ab85ad689503665b6a67,66a626ef09d4e21e1a8894ec,6734d68ef573a3e9d4aa6e7f,2024-11-13_10h41.42.099,Tarea de género gramatical,2024.2.2,Win32,60.24096386,,,,,,,,,,,,,,,,,,,,,,,588.536,589.8498,a,1,[],[],[],[],[],[],[],0.6403,1,589.85,590.35,,,,,,1066,MAS,DIS,150,coche,la,l,0.6403,,590.3501,590.3504,-0.054490738,-0.415740738,0,0,0,,0,234,234,165,1,,,,,
,,,,,,b0e6ab85ad689503665b6a67,66a626ef09d4e21e1a8894ec,6734d68ef573a3e9d4aa6e7f,2024-11-13_10h41.42.099,Tarea de género gramatical,2024.2.2,Win32,60.24096386,,,,,,,,,,,,,,,,,,,,,,,590.3526,591.4331,l,1,[],[],[],[],[],[],[],0.4102,1,591.4333,591.9333,,,,,,1232,FEM,AGR,150,basura,la,a,0.4102,,591.9335,591.9336,-0.054490738,-0.415740738,0,0,0,,0,235,235,331,1,,,,,
,,,,,,b0e6ab85ad689503665b6a67,66a626ef09d4e21e1a8894ec,6734d68ef573a3e9d4aa6e7f,2024-11-13_10h41.42.099,Tarea de género gramatical,2024.2.2,Win32,60.24096386,,,,,,,,,,,,,,,,,,,,,,,591.9357,592.9993,l,1,[],[],[],[],[],[],[],0.3869,1,592.9996,593.4998,,,,,,956,FEM,AGR,150,bola,la,a,0.3869,,593.5025,593.5056,-0.054490738,-0.415740738,0,0,0,,0,236,236,55,1,,,,,
,,,,,,b0e6ab85ad689503665b6a67,66a626ef09d4e21e1a8894ec,6734d68ef573a3e9d4aa6e7f,2024-11-13_10h41.42.099,Tarea de género gramatical,2024.2.2,Win32,60.24096386,,,,,,,,,,,,,,,,,,,,,,,593.5073,594.783,a,1,[],[],[],[],[],[],[],0.6014,1,594.7832,595.2828,,,,,,1218,MAS,CON,150,pueblo,,l,0.6014,,595.2829,595.2832,-0.054490738,-0.415740738,0,0,0,,0,237,237,317,1,,,,,
,,,,,,b0e6ab85ad689503665b6a67,66a626ef09d4e21e1a8894ec,6734d68ef573a3e9d4aa6e7f,2024-11-13_10h41.42.099,Tarea de género gramatical,2024.2.2,Win32,60.24096386,,,,,,,,,,,,,,,,,,,,,,,595.2853,596.3657,a,1,[],[],[],[],[],[],[],0.4092,1,596.3659,596.866,,,,,,1050,MAS,CON,150,mozo,,l,0.4092,,596.8662,596.8664,-0.054490738,-0.415740738,0,0,0,,0,238,238,149,1,,,,,
,,,,,,b0e6ab85ad689503665b6a67,66a626ef09d4e21e1a8894ec,6734d68ef573a3e9d4aa6e7f,2024-11-13_10h41.42.099,Tarea de género gramatical,2024.2.2,Win32,60.24096386,,,,,,,,,,,,,,,,,,,,,,,596.8685,597.9155,a,1,[],[],[],[],[],[],[],0.3746,1,597.9157,598.4158,,,,,,1134,MAS,CON,150,héroe,,l,0.3746,,598.4159,598.416,-0.054490738,-0.415740738,0,0,0,,0,239,239,233,1,,,,,
,,,,,,b0e6ab85ad689503665b6a67,66a626ef09d4e21e1a8894ec,6734d68ef573a3e9d4aa6e7f,2024-11-13_10h41.42.099,Tarea de género gramatical,2024.2.2,Win32,60.24096386,,,,,,,,,,,,,,,,,,,,,,,598.4181,599.7322,a,1,[],[],[],[],[],[],[],0.6395,1,599.7323,600.232,,,,,,1336,MAS,DIS,150,objeto,la,l,0.6395,,600.2345,600.2374,-0.054490738,-0.415740738,0,0,0,,0,240,240,435,1,,,,,
,,,,,,b0e6ab85ad689503665b6a67,66a626ef09d4e21e1a8894ec,6734d68ef573a3e9d4aa6e7f,2024-11-13_10h41.42.099,Tarea de género gramatical,2024.2.2,Win32,60.24096386,,,,,,,,,,,,,,,,,,,,,,,600.2392,601.6152,a,1,[],[],[],[],[],[],[],0.7084,1,601.6154,602.1154,,,,,,1330,MAS,DIS,150,título,la,l,0.7084,,602.1155,602.1158,-0.054490738,-0.415740738,0,0,0,,0,241,241,429,1,,,,,
,,,,,,b0e6ab85ad689503665b6a67,66a626ef09d4e21e1a8894ec,6734d68ef573a3e9d4aa6e7f,2024-11-13_10h41.42.099,Tarea de género gramatical,2024.2.2,Win32,60.24096386,,,,,,,,,,,,,,,,,,,,,,,602.118,603.2315,a,1,[],[],[],[],[],[],[],0.4394,1,603.2316,603.7317,,,,,,1151,MAS,AGR,150,dueño,el,l,0.4394,,603.7318,603.732,-0.054490738,-0.415740738,0,0,0,,0,242,242,250,1,,,,,
,,,,,,b0e6ab85ad689503665b6a67,66a626ef09d4e21e1a8894ec,6734d68ef573a3e9d4aa6e7f,2024-11-13_10h41.42.099,Tarea de género gramatical,2024.2.2,Win32,60.24096386,,,,,,,,,,,,,,,,,,,,,,,603.7339,604.915,a,1,[],[],[],[],[],[],[],0.5013,1,604.9152,605.4148,,,,,,1350,MAS,CON,150,conejo,,l,0.5013,,605.415,605.4152,-0.054490738,-0.415740738,0,0,0,,0,243,243,449,1,,,,,
,,,,,,b0e6ab85ad689503665b6a67,66a626ef09d4e21e1a8894ec,6734d68ef573a3e9d4aa6e7f,2024-11-13_10h41.42.099,Tarea de género gramatical,2024.2.2,Win32,60.24096386,,,,,,,,,,,,,,,,,,,,,,,605.4172,606.4482,l,1,[],[],[],[],[],[],[],0.3515,1,606.4483,606.948,,,,,,1238,FEM,AGR,150,abuela,la,a,0.3515,,606.948,606.9483,-0.054490738,-0.415740738,0,0,0,,0,244,244,337,1,,,,,
,,,,,,b0e6ab85ad689503665b6a67,66a626ef09d4e21e1a8894ec,6734d68ef573a3e9d4aa6e7f,2024-11-13_10h41.42.099,Tarea de género gramatical,2024.2.2,Win32,60.24096386,,,,,,,,,,,,,,,,,,,,,,,606.9504,607.9812,a,1,[],[],[],[],[],[],[],0.3514,1,607.9814,608.4811,,,,,,1295,MAS,AGR,150,correo,el,l,0.3514,,608.4837,608.4868,-0.054490738,-0.415740738,0,0,0,,0,245,245,394,1,,,,,
,,,,,,b0e6ab85ad689503665b6a67,66a626ef09d4e21e1a8894ec,6734d68ef573a3e9d4aa6e7f,2024-11-13_10h41.42.099,Tarea de género gramatical,2024.2.2,Win32,60.24096386,,,,,,,,,,,,,,,,,,,,,,,608.4884,609.4809,a,1,[],[],[],[],[],[],[],0.3202,1,609.4811,609.981,,,,,,1164,MAS,CON,150,pollo,,l,0.3202,,609.981,609.9813,-0.054490738,-0.415740738,0,0,0,,0,246,246,263,1,,,,,
,,,,,,b0e6ab85ad689503665b6a67,66a626ef09d4e21e1a8894ec,6734d68ef573a3e9d4aa6e7f,2024-11-13_10h41.42.099,Tarea de género gramatical,2024.2.2,Win32,60.24096386,,,,,,,,,,,,,,,,,,,,,,,609.9833,611.0976,l,1,[],[],[],[],[],[],[],0.4356,1,611.0978,611.5978,,,,,,1171,FEM,DIS,150,viuda,el,a,0.4356,,611.5979,611.5983,-0.054490738,-0.415740738,0,0,0,,0,247,247,270,1,,,,,
,,,,,,b0e6ab85ad689503665b6a67,66a626ef09d4e21e1a8894ec,6734d68ef573a3e9d4aa6e7f,2024-11-13_10h41.42.099,Tarea de género gramatical,2024.2.2,Win32,60.24096386,,,,,,,,,,,,,,,,,,,,,,,611.6005,612.6806,a,1,[],[],[],[],[],[],[],0.4041,1,612.6807,613.1805,,,,,,1038,MAS,CON,150,luto,,l,0.4041,,613.1806,613.1809,-0.054490738,-0.415740738,0,0,0,,0,248,248,137,1,,,,,
,,,,,,b0e6ab85ad689503665b6a67,66a626ef09d4e21e1a8894ec,6734d68ef573a3e9d4aa6e7f,2024-11-13_10h41.42.099,Tarea de género gramatical,2024.2.2,Win32,60.24096386,,,,,,,,,,,,,,,,,,,,,,,613.183,614.2305,a,1,[],[],[],[],[],[],[],0.3657,1,614.2307,614.7304,,,,,,1337,MAS,AGR,150,hombro,el,l,0.3657,,614.733,614.7362,-0.054490738,-0.415740738,0,0,0,,0,249,249,436,1,,,,,
