counterbalancing_condition,consent_prescreening.block_1/declare_consent,consent_prescreening.block_1/age_years,consent_prescreening.block_1/gender,consent_prescreening.block_1/language_disorder,consent_prescreening.block_1/first_language,PROLIFIC_PID,STUDY_ID,SESSION_ID,date,expName,psychopyVersion,OS,frameRate,check_prescreening_answers.started,check_prescreening_answers.stopped,Instructions.started,Instructions.stopped,instr_done_keyboard.keys,instr_done_touch.x,instr_done_touch.y,instr_done_touch.leftButton,instr_done_touch.midButton,instr_done_touch.rightButton,instr_done_touch.clicked_name,instruction_pages.thisRepN,instruction_pages.thisTrialN,instruction_pages.thisN,instruction_pages.thisIndex,instruction_pages.ran,pageN,phase,instruct_text,has_image,instruct_image,instr_done_keyboard.rt,instr_done_keyboard.duration,presentTrial.started,presentTrial.stopped,response.keys,response.corr,response.rt,response.duration,touch_resp.x,touch_resp.y,touch_resp.leftButton,touch_resp.midButton,touch_resp.rightButton,touch_resp.time,touch_resp.clicked_name,rt,corr,feedback.started,feedback.stopped,practice_trials.thisRepN,practice_trials.thisTrialN,practice_trials.thisN,practice_trials.thisIndex,practice_trials.ran,TrialID,StimulusType,Condition,PrimeDuration,Prime,Flanker,corrAns,Break.started,Break.stopped,break_done_touch.x,break_done_touch.y,break_done_touch.leftButton,break_done_touch.midButton,break_done_touch.rightButton,break_done_keyboard.keys,experiment_trials.thisRepN,experiment_trials.thisTrialN,experiment_trials.thisN,experiment_trials.thisIndex,experiment_trials.ran,break_done_keyboard.rt,break_done_keyboard.duration,End.started,End.stopped
0,"[""over_18"",""comfortable"",""read_info"",""consent_given""]",36,M,"[""none""]","[""spanish""]",b0ef7ebae430f8a0ea52eb46,66a626ef09d4e21e1a8894ec,673740214580759f663eef51,2024-11-15_06h36.40.986,Tarea de género gramatical,2024.2.2,Win32,60.24096386,,,,,,,,,,,,,,,,,,,,,,,,,,,,,,,,,,,,,,,,,,,,,,,,,,,,,,,,,,,,,,,,,,,,,
,,,,,,b0ef7ebae430f8a0ea52eb46,66a626ef09d4e21e1a8894ec,673740214580759f663eef51,2024-11-15_06h36.40.986,Tarea de género gramatical,2024.2.2,Win32,60.24096386,83.8791,83.8793,,,,,,,,,,,,,,,,,,,,,,,,,,,,,,,,,,,,,,,,,,,,,,,,,,,,,,,,,,,,,,,,,,,
,,,,,,b0ef7ebae430f8a0ea52eb46,66a626ef09d4e21e1a8894ec,673740214580759f663eef51,2024-11-15_06h36.40.986,Tarea de género gramatical,2024.2.2,Win32,60.24096386,,,83.9123,108.0319,,0.023936204,-0.402112859,1,0,0,instr_done_button,0,0,0,0,1,1,instructions,"INSTRUCCIONES
Va a realizar una prueba de selección gramatical. Desde el comienzo de la prueba mire siempre al centro de la pantalla. Al cabo de un momento, aparecerán palabras. La tarea consiste en determinar si la palabra del centro (siempre será un sustantivo), pertenece al género masculino o femenino.

Pulse la tecla ESPACIO o toque el botón de abajo para continuar.",0,keyboardresponseFM.png,,,,,,,,,,,,,,,,,,,,,,,,,,,,,,,,,,,,,,,,,,,,,,,,
,,,,,,b0ef7ebae430f8a0ea52eb46,66a626ef09d4e21e1a8894ec,673740214580759f663eef51,2024-11-15_06h36.40.986,Tarea de género gramatical,2024.2.2,Win32,60.24096386,,,108.0331,197.8616,space,0.786193936,-0.088133132,0,0,0,,0,1,1,1,1,2,instructions,"Si su dispositivo tiene teclado, pulse la tecla ""A"" para las palabras en femenino (por ejemplo: ""mano"") y la tecla ""L"" para las palabras en masculino(por ejemplo: ""arroz"").
Pulse la tecla ESPACIO o toque el botón de abajo para continuar.",1,keyboardresponseFM.png,89.7157,,,,,,,,,,,,,,,,,,,,,,,,,,,,,,,,,,,,,,,,,,,,,,,
,,,,,,b0ef7ebae430f8a0ea52eb46,66a626ef09d4e21e1a8894ec,673740214580759f663eef51,2024-11-15_06h36.40.986,Tarea de género gramatical,2024.2.2,Win32,60.24096386,,,197.8648,207.2202,space,0.786193936,-0.088133132,0,0,0,,0,2,2,2,1,3,instructions,"Si utiliza un dispositivo sólo táctil, colóquelo en horizontal y utilice los botones de la pantalla. No utilice el ratón.
Pulse la tecla ESPACIO o toque el botón de abajo para continuar.",2,touchresponseFM.png,9.3051,,,,,,,,,,,,,,,,,,,,,,,,,,,,,,,,,,,,,,,,,,,,,,,
,,,,,,b0ef7ebae430f8a0ea52eb46,66a626ef09d4e21e1a8894ec,673740214580759f663eef51,2024-11-15_06h36.40.986,Tarea de género gramatical,2024.2.2,Win32,60.24096386,,,207.224,222.5921,space,0.786193936,-0.088133132,0,0,0,,0,3,3,3,1,4,instructions,"Es muy importante que responda con la mayor rapidez y precisión posibles, ya que cada cadena de letras sólo estará en pantalla durante un instante. Si no responde en ese tiempo, aparecerá el mensaje ""Muy lento"" y el experimento pasará a la siguiente palabra. Los primeros 15 intentos serán de práctica y habrá dos descansos durante la prueba.
Pulse la tecla ESPACIO o toque el botón de abajo para iniciar la parte de práctica.",0,keyboardresponseFM.png,15.3482,,,,,,,,,,,,,,,,,,,,,,,,,,,,,,,,,,,,,,,,,,,,,,,
,,,,,,b0ef7ebae430f8a0ea52eb46,66a626ef09d4e21e1a8894ec,673740214580759f663eef51,2024-11-15_06h36.40.986,Tarea de género gramatical,2024.2.2,Win32,60.24096386,,,,,,,,,,,,,,,,,,,,,,,,222.6162,224.4433,a,0,1.1508,,[],[],[],[],[],[],[],1.1508,0,224.4437,224.9434,0,0,0,14,1,2015,MAS,DIS,150,robot,la,l,,,,,,,,,,,,,,,,,
,,,,,,b0ef7ebae430f8a0ea52eb46,66a626ef09d4e21e1a8894ec,673740214580759f663eef51,2024-11-15_06h36.40.986,Tarea de género gramatical,2024.2.2,Win32,60.24096386,,,,,,,,,,,,,,,,,,,,,,,,224.9455,227.2279,l,0,1.604,,[],[],[],[],[],[],[],1.604,0,227.228,227.7283,0,1,1,5,1,2006,FEM,DIS,150,serie,el,a,,,,,,,,,,,,,,,,,
,,,,,,b0ef7ebae430f8a0ea52eb46,66a626ef09d4e21e1a8894ec,673740214580759f663eef51,2024-11-15_06h36.40.986,Tarea de género gramatical,2024.2.2,Win32,60.24096386,,,,,,,,,,,,,,,,,,,,,,,,227.7306,229.3291,l,1,0.9178,,[],[],[],[],[],[],[],0.9178,1,229.3306,229.8295,0,2,2,9,1,2010,MAS,AGR,150,vecino,el,l,,,,,,,,,,,,,,,,,
,,,,,,b0ef7ebae430f8a0ea52eb46,66a626ef09d4e21e1a8894ec,673740214580759f663eef51,2024-11-15_06h36.40.986,Tarea de género gramatical,2024.2.2,Win32,60.24096386,,,,,,,,,,,,,,,,,,,,,,,,229.8314,231.2635,l,0,0.7512,,[],[],[],[],[],[],[],0.7512,0,231.2646,231.7639,0,3,3,2,1,2003,FEM,DIS,150,daga,el,a,,,,,,,,,,,,,,,,,
,,,,,,b0ef7ebae430f8a0ea52eb46,66a626ef09d4e21e1a8894ec,673740214580759f663eef51,2024-11-15_06h36.40.986,Tarea de género gramatical,2024.2.2,Win32,60.24096386,,,,,,,,,,,,,,,,,,,,,,,,231.7653,233.1147,l,1,0.6701,,[],[],[],[],[],[],[],0.6701,1,233.1156,233.6149,0,4,4,13,1,2014,MAS,CON,150,siglo,,l,,,,,,,,,,,,,,,,,
,,,,,,b0ef7ebae430f8a0ea52eb46,66a626ef09d4e21e1a8894ec,673740214580759f663eef51,2024-11-15_06h36.40.986,Tarea de género gramatical,2024.2.2,Win32,60.24096386,,,,,,,,,,,,,,,,,,,,,,,,233.6164,234.849,a,1,0.5549,,[],[],[],[],[],[],[],0.5549,1,234.8492,235.3492,0,5,5,0,1,2001,FEM,AGR,150,nuca,la,a,,,,,,,,,,,,,,,,,
,,,,,,b0ef7ebae430f8a0ea52eb46,66a626ef09d4e21e1a8894ec,673740214580759f663eef51,2024-11-15_06h36.40.986,Tarea de género gramatical,2024.2.2,Win32,60.24096386,,,,,,,,,,,,,,,,,,,,,,,,235.3504,236.2666,l,1,0.2509,,[],[],[],[],[],[],[],0.2509,1,236.2667,236.7667,0,6,6,10,1,2011,MAS,CON,150,canal,,l,,,,,,,,,,,,,,,,,
,,,,,,b0ef7ebae430f8a0ea52eb46,66a626ef09d4e21e1a8894ec,673740214580759f663eef51,2024-11-15_06h36.40.986,Tarea de género gramatical,2024.2.2,Win32,60.24096386,,,,,,,,,,,,,,,,,,,,,,,,236.7679,238.0009,a,1,0.5552,,[],[],[],[],[],[],[],0.5552,1,238.001,238.5013,0,7,7,3,1,2004,FEM,AGR,150,venta,la,a,,,,,,,,,,,,,,,,,
,,,,,,b0ef7ebae430f8a0ea52eb46,66a626ef09d4e21e1a8894ec,673740214580759f663eef51,2024-11-15_06h36.40.986,Tarea de género gramatical,2024.2.2,Win32,60.24096386,,,,,,,,,,,,,,,,,,,,,,,,238.503,239.9353,l,1,0.7511,,[],[],[],[],[],[],[],0.7511,1,239.9355,240.4357,0,8,8,12,1,2013,MAS,AGR,150,acero,el,l,,,,,,,,,,,,,,,,,
,,,,,,b0ef7ebae430f8a0ea52eb46,66a626ef09d4e21e1a8894ec,673740214580759f663eef51,2024-11-15_06h36.40.986,Tarea de género gramatical,2024.2.2,Win32,60.24096386,,,,,,,,,,,,,,,,,,,,,,,,240.4372,241.753,a,1,0.6368,,[],[],[],[],[],[],[],0.6368,1,241.7531,242.2534,0,9,9,1,1,2002,FEM,CON,150,pala,,a,,,,,,,,,,,,,,,,,
,,,,,,b0ef7ebae430f8a0ea52eb46,66a626ef09d4e21e1a8894ec,673740214580759f663eef51,2024-11-15_06h36.40.986,Tarea de género gramatical,2024.2.2,Win32,60.24096386,,,,,,,,,,,,,,,,,,,,,,,,242.2544,243.4709,a,1,0.5447,,[],[],[],[],[],[],[],0.5447,1,243.471,243.971,0,10,10,4,1,2005,FEM,CON,150,placa,,a,,,,,,,,,,,,,,,,,
,,,,,,b0ef7ebae430f8a0ea52eb46,66a626ef09d4e21e1a8894ec,673740214580759f663eef51,2024-11-15_06h36.40.986,Tarea de género gramatical,2024.2.2,Win32,60.24096386,,,,,,,,,,,,,,,,,,,,,,,,243.9723,245.1049,a,1,0.457,,[],[],[],[],[],[],[],0.457,1,245.1051,245.6051,0,11,11,7,1,2008,FEM,CON,150,siesta,,a,,,,,,,,,,,,,,,,,
,,,,,,b0ef7ebae430f8a0ea52eb46,66a626ef09d4e21e1a8894ec,673740214580759f663eef51,2024-11-15_06h36.40.986,Tarea de género gramatical,2024.2.2,Win32,60.24096386,,,,,,,,,,,,,,,,,,,,,,,,245.6064,246.9059,a,0,0.6199,,[],[],[],[],[],[],[],0.6199,0,246.9069,247.4062,0,12,12,8,1,2009,MAS,DIS,150,puerto,la,l,,,,,,,,,,,,,,,,,
,,,,,,b0ef7ebae430f8a0ea52eb46,66a626ef09d4e21e1a8894ec,673740214580759f663eef51,2024-11-15_06h36.40.986,Tarea de género gramatical,2024.2.2,Win32,60.24096386,,,,,,,,,,,,,,,,,,,,,,,,247.4077,248.6736,l,0,0.6082,,[],[],[],[],[],[],[],0.6082,0,248.6737,249.1738,0,13,13,6,1,2007,FEM,AGR,150,navaja,la,a,,,,,,,,,,,,,,,,,
,,,,,,b0ef7ebae430f8a0ea52eb46,66a626ef09d4e21e1a8894ec,673740214580759f663eef51,2024-11-15_06h36.40.986,Tarea de género gramatical,2024.2.2,Win32,60.24096386,,,,,,,,,,,,,,,,,,,,,,,,249.1754,250.6582,l,1,0.8036,,[],[],[],[],[],[],[],0.8036,1,250.6591,251.1584,0,14,14,11,1,2012,MAS,DIS,150,clima,la,l,,,,,,,,,,,,,,,,,
,,,,,,b0ef7ebae430f8a0ea52eb46,66a626ef09d4e21e1a8894ec,673740214580759f663eef51,2024-11-15_06h36.40.986,Tarea de género gramatical,2024.2.2,Win32,60.24096386,,,263.753,281.6097,space,0.786193936,-0.088133132,0,0,0,,,,,,,,,,,,17.8331,,281.6792,284.3277,,0,,,[],[],[],[],[],[],[],0.8036,-1,284.5632,284.8312,,,,,,351,FEM,DIS,150,espada,el,a,284.8316,284.8365,0.786193936,-0.088133132,0,0,0,,0,0,0,350,1,,,,
,,,,,,b0ef7ebae430f8a0ea52eb46,66a626ef09d4e21e1a8894ec,673740214580759f663eef51,2024-11-15_06h36.40.986,Tarea de género gramatical,2024.2.2,Win32,60.24096386,,,,,,,,,,,,,,,,,,,,,,,,284.8379,286.1786,l,1,0.6676,,[],[],[],[],[],[],[],0.6676,1,286.1797,286.679,,,,,,408,MAS,DIS,150,cheque,la,l,286.6791,286.6792,0.786193936,-0.088133132,0,0,0,,0,1,1,407,1,,,,
,,,,,,b0ef7ebae430f8a0ea52eb46,66a626ef09d4e21e1a8894ec,673740214580759f663eef51,2024-11-15_06h36.40.986,Tarea de género gramatical,2024.2.2,Win32,60.24096386,,,,,,,,,,,,,,,,,,,,,,,,286.6807,288.0131,a,1,0.6545,,[],[],[],[],[],[],[],0.6545,1,288.0132,288.5134,,,,,,361,FEM,AGR,150,oferta,la,a,288.5151,288.5163,0.786193936,-0.088133132,0,0,0,,0,2,2,360,1,,,,
,,,,,,b0ef7ebae430f8a0ea52eb46,66a626ef09d4e21e1a8894ec,673740214580759f663eef51,2024-11-15_06h36.40.986,Tarea de género gramatical,2024.2.2,Win32,60.24096386,,,,,,,,,,,,,,,,,,,,,,,,288.5175,289.9143,a,1,0.7177,,[],[],[],[],[],[],[],0.7177,1,289.9144,290.4145,,,,,,201,FEM,DIS,150,leche,el,a,290.4146,290.4148,0.786193936,-0.088133132,0,0,0,,0,3,3,200,1,,,,
,,,,,,b0ef7ebae430f8a0ea52eb46,66a626ef09d4e21e1a8894ec,673740214580759f663eef51,2024-11-15_06h36.40.986,Tarea de género gramatical,2024.2.2,Win32,60.24096386,,,,,,,,,,,,,,,,,,,,,,,,290.4159,291.5318,l,1,0.4343,,[],[],[],[],[],[],[],0.4343,1,291.5318,292.032,,,,,,281,MAS,CON,150,actor,,l,292.032,292.0322,0.786193936,-0.088133132,0,0,0,,0,4,4,280,1,,,,
,,,,,,b0ef7ebae430f8a0ea52eb46,66a626ef09d4e21e1a8894ec,673740214580759f663eef51,2024-11-15_06h36.40.986,Tarea de género gramatical,2024.2.2,Win32,60.24096386,,,,,,,,,,,,,,,,,,,,,,,,292.0334,293.1661,a,1,0.451,,[],[],[],[],[],[],[],0.451,1,293.1662,293.6664,,,,,,157,FEM,AGR,150,madre,la,a,293.6664,293.6667,0.786193936,-0.088133132,0,0,0,,0,5,5,156,1,,,,
,,,,,,b0ef7ebae430f8a0ea52eb46,66a626ef09d4e21e1a8894ec,673740214580759f663eef51,2024-11-15_06h36.40.986,Tarea de género gramatical,2024.2.2,Win32,60.24096386,,,,,,,,,,,,,,,,,,,,,,,,293.6678,294.9004,l,1,0.5594,,[],[],[],[],[],[],[],0.5594,1,294.9005,295.4007,,,,,,23,MAS,CON,150,rato,,l,295.4027,295.4039,0.786193936,-0.088133132,0,0,0,,0,6,6,22,1,,,,
,,,,,,b0ef7ebae430f8a0ea52eb46,66a626ef09d4e21e1a8894ec,673740214580759f663eef51,2024-11-15_06h36.40.986,Tarea de género gramatical,2024.2.2,Win32,60.24096386,,,,,,,,,,,,,,,,,,,,,,,,295.4048,296.6014,a,1,0.5218,,[],[],[],[],[],[],[],0.5218,1,296.6015,297.1016,,,,,,187,FEM,AGR,150,lista,la,a,297.1017,297.1018,0.786193936,-0.088133132,0,0,0,,0,7,7,186,1,,,,
,,,,,,b0ef7ebae430f8a0ea52eb46,66a626ef09d4e21e1a8894ec,673740214580759f663eef51,2024-11-15_06h36.40.986,Tarea de género gramatical,2024.2.2,Win32,60.24096386,,,,,,,,,,,,,,,,,,,,,,,,297.1031,298.3025,l,1,0.5229,,[],[],[],[],[],[],[],0.5229,1,298.3026,298.8027,,,,,,352,MAS,AGR,150,estilo,el,l,298.8028,298.8029,0.786193936,-0.088133132,0,0,0,,0,8,8,351,1,,,,
,,,,,,b0ef7ebae430f8a0ea52eb46,66a626ef09d4e21e1a8894ec,673740214580759f663eef51,2024-11-15_06h36.40.986,Tarea de género gramatical,2024.2.2,Win32,60.24096386,,,,,,,,,,,,,,,,,,,,,,,,298.8041,299.9866,l,1,0.5085,,[],[],[],[],[],[],[],0.5085,1,299.9869,300.487,,,,,,318,MAS,DIS,150,pueblo,la,l,300.4871,300.4873,0.786193936,-0.088133132,0,0,0,,0,9,9,317,1,,,,
,,,,,,b0ef7ebae430f8a0ea52eb46,66a626ef09d4e21e1a8894ec,673740214580759f663eef51,2024-11-15_06h36.40.986,Tarea de género gramatical,2024.2.2,Win32,60.24096386,,,,,,,,,,,,,,,,,,,,,,,,300.4885,301.8713,l,0,0.699,,[],[],[],[],[],[],[],0.699,0,301.8723,302.3713,,,,,,333,FEM,DIS,150,locura,el,a,302.3714,302.3716,0.786193936,-0.088133132,0,0,0,,0,10,10,332,1,,,,
,,,,,,b0ef7ebae430f8a0ea52eb46,66a626ef09d4e21e1a8894ec,673740214580759f663eef51,2024-11-15_06h36.40.986,Tarea de género gramatical,2024.2.2,Win32,60.24096386,,,,,,,,,,,,,,,,,,,,,,,,302.3727,303.5221,a,1,0.4712,,[],[],[],[],[],[],[],0.4712,1,303.5229,304.0224,,,,,,422,FEM,CON,150,rutina,,a,304.0241,304.0252,0.786193936,-0.088133132,0,0,0,,0,11,11,421,1,,,,
,,,,,,b0ef7ebae430f8a0ea52eb46,66a626ef09d4e21e1a8894ec,673740214580759f663eef51,2024-11-15_06h36.40.986,Tarea de género gramatical,2024.2.2,Win32,60.24096386,,,,,,,,,,,,,,,,,,,,,,,,304.0262,305.2231,l,1,0.52,,[],[],[],[],[],[],[],0.52,1,305.2232,305.7234,,,,,,395,MAS,CON,150,correo,,l,305.7234,305.7236,0.786193936,-0.088133132,0,0,0,,0,12,12,394,1,,,,
,,,,,,b0ef7ebae430f8a0ea52eb46,66a626ef09d4e21e1a8894ec,673740214580759f663eef51,2024-11-15_06h36.40.986,Tarea de género gramatical,2024.2.2,Win32,60.24096386,,,,,,,,,,,,,,,,,,,,,,,,305.7251,307.0908,l,1,0.692,,[],[],[],[],[],[],[],0.692,1,307.0909,307.591,,,,,,118,MAS,AGR,150,baúl,el,l,307.5911,307.5912,0.786193936,-0.088133132,0,0,0,,0,13,13,117,1,,,,
,,,,,,b0ef7ebae430f8a0ea52eb46,66a626ef09d4e21e1a8894ec,673740214580759f663eef51,2024-11-15_06h36.40.986,Tarea de género gramatical,2024.2.2,Win32,60.24096386,,,,,,,,,,,,,,,,,,,,,,,,307.5924,308.9252,l,0,0.6561,,[],[],[],[],[],[],[],0.6561,0,308.9261,309.4254,,,,,,362,FEM,CON,150,fuente,,a,309.4255,309.4257,0.786193936,-0.088133132,0,0,0,,0,14,14,361,1,,,,
,,,,,,b0ef7ebae430f8a0ea52eb46,66a626ef09d4e21e1a8894ec,673740214580759f663eef51,2024-11-15_06h36.40.986,Tarea de género gramatical,2024.2.2,Win32,60.24096386,,,,,,,,,,,,,,,,,,,,,,,,309.4271,310.8431,l,1,0.7357,,[],[],[],[],[],[],[],0.7357,1,310.844,311.3433,,,,,,293,MAS,CON,150,patio,,l,311.3451,311.3462,0.786193936,-0.088133132,0,0,0,,0,15,15,292,1,,,,
,,,,,,b0ef7ebae430f8a0ea52eb46,66a626ef09d4e21e1a8894ec,673740214580759f663eef51,2024-11-15_06h36.40.986,Tarea de género gramatical,2024.2.2,Win32,60.24096386,,,,,,,,,,,,,,,,,,,,,,,,311.3473,312.5939,a,1,0.5778,,[],[],[],[],[],[],[],0.5778,1,312.5941,313.0943,,,,,,393,FEM,DIS,150,alarma,el,a,313.0943,313.0944,0.786193936,-0.088133132,0,0,0,,0,16,16,392,1,,,,
,,,,,,b0ef7ebae430f8a0ea52eb46,66a626ef09d4e21e1a8894ec,673740214580759f663eef51,2024-11-15_06h36.40.986,Tarea de género gramatical,2024.2.2,Win32,60.24096386,,,,,,,,,,,,,,,,,,,,,,,,313.0957,314.3783,l,1,0.6092,,[],[],[],[],[],[],[],0.6092,1,314.3784,314.8787,,,,,,438,MAS,DIS,150,tanque,la,l,314.8787,314.8789,0.786193936,-0.088133132,0,0,0,,0,17,17,437,1,,,,
,,,,,,b0ef7ebae430f8a0ea52eb46,66a626ef09d4e21e1a8894ec,673740214580759f663eef51,2024-11-15_06h36.40.986,Tarea de género gramatical,2024.2.2,Win32,60.24096386,,,,,,,,,,,,,,,,,,,,,,,,314.8802,316.1461,a,1,0.5868,,[],[],[],[],[],[],[],0.5868,1,316.1461,316.6465,,,,,,15,FEM,DIS,150,cama,el,a,316.6466,316.6468,0.786193936,-0.088133132,0,0,0,,0,18,18,14,1,,,,
,,,,,,b0ef7ebae430f8a0ea52eb46,66a626ef09d4e21e1a8894ec,673740214580759f663eef51,2024-11-15_06h36.40.986,Tarea de género gramatical,2024.2.2,Win32,60.24096386,,,,,,,,,,,,,,,,,,,,,,,,316.6479,317.8637,l,1,0.5372,,[],[],[],[],[],[],[],0.5372,1,317.8638,318.3639,,,,,,436,MAS,AGR,150,objeto,el,l,318.364,318.3641,0.786193936,-0.088133132,0,0,0,,0,19,19,435,1,,,,
,,,,,,b0ef7ebae430f8a0ea52eb46,66a626ef09d4e21e1a8894ec,673740214580759f663eef51,2024-11-15_06h36.40.986,Tarea de género gramatical,2024.2.2,Win32,60.24096386,,,,,,,,,,,,,,,,,,,,,,,,318.3653,321.0205,,0,,,[],[],[],[],[],[],[],0.5372,-1,321.0215,321.5191,,,,,,152,FEM,CON,150,gente,,a,321.5209,321.5218,0.786193936,-0.088133132,0,0,0,,0,20,20,151,1,,,,
,,,,,,b0ef7ebae430f8a0ea52eb46,66a626ef09d4e21e1a8894ec,673740214580759f663eef51,2024-11-15_06h36.40.986,Tarea de género gramatical,2024.2.2,Win32,60.24096386,,,,,,,,,,,,,,,,,,,,,,,,321.5227,323.1,a,1,0.9068,,[],[],[],[],[],[],[],0.9068,1,323.1013,323.6004,,,,,,356,FEM,CON,150,piedra,,a,323.6004,323.6007,0.786193936,-0.088133132,0,0,0,,0,21,21,355,1,,,,
,,,,,,b0ef7ebae430f8a0ea52eb46,66a626ef09d4e21e1a8894ec,673740214580759f663eef51,2024-11-15_06h36.40.986,Tarea de género gramatical,2024.2.2,Win32,60.24096386,,,,,,,,,,,,,,,,,,,,,,,,323.6021,324.8511,l,1,0.5639,,[],[],[],[],[],[],[],0.5639,1,324.8512,325.3515,,,,,,412,MAS,AGR,150,espejo,el,l,325.3515,325.3517,0.786193936,-0.088133132,0,0,0,,0,22,22,411,1,,,,
,,,,,,b0ef7ebae430f8a0ea52eb46,66a626ef09d4e21e1a8894ec,673740214580759f663eef51,2024-11-15_06h36.40.986,Tarea de género gramatical,2024.2.2,Win32,60.24096386,,,,,,,,,,,,,,,,,,,,,,,,325.3531,326.474,a,1,0.4472,,[],[],[],[],[],[],[],0.4472,1,326.4741,326.974,,,,,,37,FEM,AGR,150,sala,la,a,326.974,326.9742,0.786193936,-0.088133132,0,0,0,,0,23,23,36,1,,,,
,,,,,,b0ef7ebae430f8a0ea52eb46,66a626ef09d4e21e1a8894ec,673740214580759f663eef51,2024-11-15_06h36.40.986,Tarea de género gramatical,2024.2.2,Win32,60.24096386,,,,,,,,,,,,,,,,,,,,,,,,326.9753,328.2031,l,1,0.5388,,[],[],[],[],[],[],[],0.5388,1,328.2032,328.708,,,,,,366,MAS,DIS,150,riesgo,la,l,328.7097,328.7106,0.786193936,-0.088133132,0,0,0,,0,24,24,365,1,,,,
,,,,,,b0ef7ebae430f8a0ea52eb46,66a626ef09d4e21e1a8894ec,673740214580759f663eef51,2024-11-15_06h36.40.986,Tarea de género gramatical,2024.2.2,Win32,60.24096386,,,,,,,,,,,,,,,,,,,,,,,,328.7119,329.8425,a,1,0.4511,,[],[],[],[],[],[],[],0.4511,1,329.8425,330.3425,,,,,,429,FEM,DIS,150,fianza,el,a,330.3426,330.3427,0.786193936,-0.088133132,0,0,0,,0,25,25,428,1,,,,
,,,,,,b0ef7ebae430f8a0ea52eb46,66a626ef09d4e21e1a8894ec,673740214580759f663eef51,2024-11-15_06h36.40.986,Tarea de género gramatical,2024.2.2,Win32,60.24096386,,,,,,,,,,,,,,,,,,,,,,,,330.3438,331.4215,a,1,0.3934,,[],[],[],[],[],[],[],0.3934,1,331.4217,331.9101,,,,,,50,FEM,CON,150,dama,,a,331.9101,331.9102,0.786193936,-0.088133132,0,0,0,,0,26,26,49,1,,,,
,,,,,,b0ef7ebae430f8a0ea52eb46,66a626ef09d4e21e1a8894ec,673740214580759f663eef51,2024-11-15_06h36.40.986,Tarea de género gramatical,2024.2.2,Win32,60.24096386,,,,,,,,,,,,,,,,,,,,,,,,331.9118,333.0445,l,0,0.451,,[],[],[],[],[],[],[],0.451,0,333.0458,333.5395,,,,,,99,FEM,DIS,150,fase,el,a,333.5396,333.5397,0.786193936,-0.088133132,0,0,0,,0,27,27,98,1,,,,
,,,,,,b0ef7ebae430f8a0ea52eb46,66a626ef09d4e21e1a8894ec,673740214580759f663eef51,2024-11-15_06h36.40.986,Tarea de género gramatical,2024.2.2,Win32,60.24096386,,,,,,,,,,,,,,,,,,,,,,,,333.5417,334.7282,a,0,0.5173,,[],[],[],[],[],[],[],0.5173,0,334.7284,335.2278,,,,,,448,MAS,AGR,150,aceite,el,l,335.2278,335.228,0.786193936,-0.088133132,0,0,0,,0,28,28,447,1,,,,
,,,,,,b0ef7ebae430f8a0ea52eb46,66a626ef09d4e21e1a8894ec,673740214580759f663eef51,2024-11-15_06h36.40.986,Tarea de género gramatical,2024.2.2,Win32,60.24096386,,,,,,,,,,,,,,,,,,,,,,,,335.2291,336.3948,l,1,0.4957,,[],[],[],[],[],[],[],0.4957,1,336.3957,336.8914,,,,,,329,MAS,CON,150,futuro,,l,336.8936,336.8944,0.786193936,-0.088133132,0,0,0,,0,29,29,328,1,,,,
,,,,,,b0ef7ebae430f8a0ea52eb46,66a626ef09d4e21e1a8894ec,673740214580759f663eef51,2024-11-15_06h36.40.986,Tarea de género gramatical,2024.2.2,Win32,60.24096386,,,,,,,,,,,,,,,,,,,,,,,,336.8954,338.1473,l,1,0.5806,,[],[],[],[],[],[],[],0.5806,1,338.1474,338.6424,,,,,,54,MAS,DIS,150,humo,la,l,338.6425,338.6426,0.786193936,-0.088133132,0,0,0,,0,30,30,53,1,,,,
,,,,,,b0ef7ebae430f8a0ea52eb46,66a626ef09d4e21e1a8894ec,673740214580759f663eef51,2024-11-15_06h36.40.986,Tarea de género gramatical,2024.2.2,Win32,60.24096386,,,,,,,,,,,,,,,,,,,,,,,,338.6441,339.8149,a,1,0.4842,,[],[],[],[],[],[],[],0.4842,1,339.815,340.3148,,,,,,441,FEM,DIS,150,medida,el,a,340.3148,340.315,0.786193936,-0.088133132,0,0,0,,0,31,31,440,1,,,,
,,,,,,b0ef7ebae430f8a0ea52eb46,66a626ef09d4e21e1a8894ec,673740214580759f663eef51,2024-11-15_06h36.40.986,Tarea de género gramatical,2024.2.2,Win32,60.24096386,,,,,,,,,,,,,,,,,,,,,,,,340.3164,341.5496,a,1,0.5513,,[],[],[],[],[],[],[],0.5513,1,341.5497,342.0444,,,,,,75,FEM,DIS,150,caza,el,a,342.0445,342.0446,0.786193936,-0.088133132,0,0,0,,0,32,32,74,1,,,,
,,,,,,b0ef7ebae430f8a0ea52eb46,66a626ef09d4e21e1a8894ec,673740214580759f663eef51,2024-11-15_06h36.40.986,Tarea de género gramatical,2024.2.2,Win32,60.24096386,,,,,,,,,,,,,,,,,,,,,,,,342.0462,343.2336,a,1,0.5177,,[],[],[],[],[],[],[],0.5177,1,343.2337,343.7287,,,,,,284,FEM,CON,150,fruta,,a,343.731,343.7321,0.786193936,-0.088133132,0,0,0,,0,33,33,283,1,,,,
,,,,,,b0ef7ebae430f8a0ea52eb46,66a626ef09d4e21e1a8894ec,673740214580759f663eef51,2024-11-15_06h36.40.986,Tarea de género gramatical,2024.2.2,Win32,60.24096386,,,,,,,,,,,,,,,,,,,,,,,,343.7332,344.8293,l,1,0.4154,,[],[],[],[],[],[],[],0.4154,1,344.8294,345.3295,,,,,,396,MAS,DIS,150,tesoro,la,l,345.3296,345.3297,0.786193936,-0.088133132,0,0,0,,0,34,34,395,1,,,,
,,,,,,b0ef7ebae430f8a0ea52eb46,66a626ef09d4e21e1a8894ec,673740214580759f663eef51,2024-11-15_06h36.40.986,Tarea de género gramatical,2024.2.2,Win32,60.24096386,,,,,,,,,,,,,,,,,,,,,,,,345.3308,346.3968,a,1,0.3907,,[],[],[],[],[],[],[],0.3907,1,346.3969,346.8972,,,,,,165,FEM,DIS,150,amiga,el,a,346.8972,346.8973,0.786193936,-0.088133132,0,0,0,,0,35,35,164,1,,,,
,,,,,,b0ef7ebae430f8a0ea52eb46,66a626ef09d4e21e1a8894ec,673740214580759f663eef51,2024-11-15_06h36.40.986,Tarea de género gramatical,2024.2.2,Win32,60.24096386,,,,,,,,,,,,,,,,,,,,,,,,346.8984,348.0477,a,1,0.4689,,[],[],[],[],[],[],[],0.4689,1,348.0479,348.5481,,,,,,182,FEM,CON,150,prisa,,a,348.5482,348.5484,0.786193936,-0.088133132,0,0,0,,0,36,36,181,1,,,,
,,,,,,b0ef7ebae430f8a0ea52eb46,66a626ef09d4e21e1a8894ec,673740214580759f663eef51,2024-11-15_06h36.40.986,Tarea de género gramatical,2024.2.2,Win32,60.24096386,,,,,,,,,,,,,,,,,,,,,,,,348.5495,349.5987,l,1,0.3727,,[],[],[],[],[],[],[],0.3727,1,349.5989,350.0989,,,,,,178,MAS,AGR,150,punto,el,l,350.099,350.0991,0.786193936,-0.088133132,0,0,0,,0,37,37,177,1,,,,
,,,,,,b0ef7ebae430f8a0ea52eb46,66a626ef09d4e21e1a8894ec,673740214580759f663eef51,2024-11-15_06h36.40.986,Tarea de género gramatical,2024.2.2,Win32,60.24096386,,,,,,,,,,,,,,,,,,,,,,,,350.1002,351.233,l,1,0.4509,,[],[],[],[],[],[],[],0.4509,1,351.2331,351.7334,,,,,,258,MAS,DIS,150,polvo,la,l,351.7353,351.7364,0.786193936,-0.088133132,0,0,0,,0,38,38,257,1,,,,
,,,,,,b0ef7ebae430f8a0ea52eb46,66a626ef09d4e21e1a8894ec,673740214580759f663eef51,2024-11-15_06h36.40.986,Tarea de género gramatical,2024.2.2,Win32,60.24096386,,,,,,,,,,,,,,,,,,,,,,,,351.7374,352.834,l,1,0.4215,,[],[],[],[],[],[],[],0.4215,1,352.8342,353.3342,,,,,,28,MAS,AGR,150,club,el,l,353.3342,353.3344,0.786193936,-0.088133132,0,0,0,,0,39,39,27,1,,,,
,,,,,,b0ef7ebae430f8a0ea52eb46,66a626ef09d4e21e1a8894ec,673740214580759f663eef51,2024-11-15_06h36.40.986,Tarea de género gramatical,2024.2.2,Win32,60.24096386,,,,,,,,,,,,,,,,,,,,,,,,353.3355,354.4184,a,1,0.401,,[],[],[],[],[],[],[],0.401,1,354.4185,354.9185,,,,,,212,FEM,CON,150,cinta,,a,354.9185,354.9187,0.786193936,-0.088133132,0,0,0,,0,40,40,211,1,,,,
,,,,,,b0ef7ebae430f8a0ea52eb46,66a626ef09d4e21e1a8894ec,673740214580759f663eef51,2024-11-15_06h36.40.986,Tarea de género gramatical,2024.2.2,Win32,60.24096386,,,,,,,,,,,,,,,,,,,,,,,,354.9199,356.0358,l,1,0.4344,,[],[],[],[],[],[],[],0.4344,1,356.0359,356.536,,,,,,317,MAS,CON,150,número,,l,356.5361,356.5362,0.786193936,-0.088133132,0,0,0,,0,41,41,316,1,,,,
,,,,,,b0ef7ebae430f8a0ea52eb46,66a626ef09d4e21e1a8894ec,673740214580759f663eef51,2024-11-15_06h36.40.986,Tarea de género gramatical,2024.2.2,Win32,60.24096386,,,,,,,,,,,,,,,,,,,,,,,,356.5375,357.6367,l,1,0.4196,,[],[],[],[],[],[],[],0.4196,1,357.6368,358.1371,,,,,,154,MAS,AGR,150,padre,el,l,358.1386,358.1397,0.786193936,-0.088133132,0,0,0,,0,42,42,153,1,,,,
,,,,,,b0ef7ebae430f8a0ea52eb46,66a626ef09d4e21e1a8894ec,673740214580759f663eef51,2024-11-15_06h36.40.986,Tarea de género gramatical,2024.2.2,Win32,60.24096386,,,,,,,,,,,,,,,,,,,,,,,,358.1408,359.2877,l,1,0.4664,,[],[],[],[],[],[],[],0.4664,1,359.2878,359.788,,,,,,76,MAS,AGR,150,lujo,el,l,359.7881,359.7882,0.786193936,-0.088133132,0,0,0,,0,43,43,75,1,,,,
,,,,,,b0ef7ebae430f8a0ea52eb46,66a626ef09d4e21e1a8894ec,673740214580759f663eef51,2024-11-15_06h36.40.986,Tarea de género gramatical,2024.2.2,Win32,60.24096386,,,,,,,,,,,,,,,,,,,,,,,,359.7894,360.9553,a,1,0.4929,,[],[],[],[],[],[],[],0.4929,1,360.9554,361.4557,,,,,,55,FEM,AGR,150,taza,la,a,361.4558,361.4558,0.786193936,-0.088133132,0,0,0,,0,44,44,54,1,,,,
,,,,,,b0ef7ebae430f8a0ea52eb46,66a626ef09d4e21e1a8894ec,673740214580759f663eef51,2024-11-15_06h36.40.986,Tarea de género gramatical,2024.2.2,Win32,60.24096386,,,,,,,,,,,,,,,,,,,,,,,,361.457,362.5729,l,1,0.4433,,[],[],[],[],[],[],[],0.4433,1,362.573,363.0732,,,,,,108,MAS,DIS,150,hilo,la,l,363.0733,363.0734,0.786193936,-0.088133132,0,0,0,,0,45,45,107,1,,,,
,,,,,,b0ef7ebae430f8a0ea52eb46,66a626ef09d4e21e1a8894ec,673740214580759f663eef51,2024-11-15_06h36.40.986,Tarea de género gramatical,2024.2.2,Win32,60.24096386,,,,,,,,,,,,,,,,,,,,,,,,363.0749,364.1738,l,1,0.4198,,[],[],[],[],[],[],[],0.4198,1,364.174,364.6741,,,,,,335,MAS,CON,150,montón,,l,364.6742,364.6743,0.786193936,-0.088133132,0,0,0,,0,46,46,334,1,,,,
,,,,,,b0ef7ebae430f8a0ea52eb46,66a626ef09d4e21e1a8894ec,673740214580759f663eef51,2024-11-15_06h36.40.986,Tarea de género gramatical,2024.2.2,Win32,60.24096386,,,,,,,,,,,,,,,,,,,,,,,,364.6755,365.6747,a,1,0.3248,,[],[],[],[],[],[],[],0.3248,1,365.6748,366.175,,,,,,399,FEM,DIS,150,charla,el,a,366.1766,366.1776,0.786193936,-0.088133132,0,0,0,,0,47,47,398,1,,,,
,,,,,,b0ef7ebae430f8a0ea52eb46,66a626ef09d4e21e1a8894ec,673740214580759f663eef51,2024-11-15_06h36.40.986,Tarea de género gramatical,2024.2.2,Win32,60.24096386,,,,,,,,,,,,,,,,,,,,,,,,366.1788,367.2924,a,1,0.4344,,[],[],[],[],[],[],[],0.4344,1,367.2924,367.7926,,,,,,153,FEM,DIS,150,mujer,el,a,367.7926,367.7928,0.786193936,-0.088133132,0,0,0,,0,48,48,152,1,,,,
,,,,,,b0ef7ebae430f8a0ea52eb46,66a626ef09d4e21e1a8894ec,673740214580759f663eef51,2024-11-15_06h36.40.986,Tarea de género gramatical,2024.2.2,Win32,60.24096386,,,,,,,,,,,,,,,,,,,,,,,,367.7939,369.1434,a,1,0.6679,,[],[],[],[],[],[],[],0.6679,1,369.1436,369.6436,,,,,,8,FEM,CON,150,idea,,a,369.6436,369.6437,0.786193936,-0.088133132,0,0,0,,0,49,49,7,1,,,,
,,,,,,b0ef7ebae430f8a0ea52eb46,66a626ef09d4e21e1a8894ec,673740214580759f663eef51,2024-11-15_06h36.40.986,Tarea de género gramatical,2024.2.2,Win32,60.24096386,,,,,,,,,,,,,,,,,,,,,,,,369.6449,370.9778,a,1,0.6535,,[],[],[],[],[],[],[],0.6535,1,370.9779,371.478,,,,,,49,FEM,AGR,150,piel,la,a,371.478,371.4781,0.786193936,-0.088133132,0,0,0,,0,50,50,48,1,,,,
,,,,,,b0ef7ebae430f8a0ea52eb46,66a626ef09d4e21e1a8894ec,673740214580759f663eef51,2024-11-15_06h36.40.986,Tarea de género gramatical,2024.2.2,Win32,60.24096386,,,,,,,,,,,,,,,,,,,,,,,,371.4794,372.5953,a,1,0.44,,[],[],[],[],[],[],[],0.44,1,372.5954,373.0957,,,,,,339,FEM,DIS,150,salida,el,a,373.0971,373.0982,0.786193936,-0.088133132,0,0,0,,0,51,51,338,1,,,,
,,,,,,b0ef7ebae430f8a0ea52eb46,66a626ef09d4e21e1a8894ec,673740214580759f663eef51,2024-11-15_06h36.40.986,Tarea de género gramatical,2024.2.2,Win32,60.24096386,,,,,,,,,,,,,,,,,,,,,,,,373.0995,374.2798,l,1,0.4994,,[],[],[],[],[],[],[],0.4994,1,374.2799,374.78,,,,,,262,MAS,AGR,150,video,el,l,374.78,374.7802,0.786193936,-0.088133132,0,0,0,,0,52,52,261,1,,,,
,,,,,,b0ef7ebae430f8a0ea52eb46,66a626ef09d4e21e1a8894ec,673740214580759f663eef51,2024-11-15_06h36.40.986,Tarea de género gramatical,2024.2.2,Win32,60.24096386,,,,,,,,,,,,,,,,,,,,,,,,374.7813,375.8972,l,1,0.4418,,[],[],[],[],[],[],[],0.4418,1,375.8974,376.3977,,,,,,394,MAS,AGR,150,examen,el,l,376.3977,376.3978,0.786193936,-0.088133132,0,0,0,,0,53,53,393,1,,,,
,,,,,,b0ef7ebae430f8a0ea52eb46,66a626ef09d4e21e1a8894ec,673740214580759f663eef51,2024-11-15_06h36.40.986,Tarea de género gramatical,2024.2.2,Win32,60.24096386,,,,,,,,,,,,,,,,,,,,,,,,376.3989,377.4485,a,1,0.3781,,[],[],[],[],[],[],[],0.3781,1,377.4486,377.9485,,,,,,92,FEM,CON,150,masa,,a,377.9486,377.9487,0.786193936,-0.088133132,0,0,0,,0,54,54,91,1,,,,
,,,,,,b0ef7ebae430f8a0ea52eb46,66a626ef09d4e21e1a8894ec,673740214580759f663eef51,2024-11-15_06h36.40.986,Tarea de género gramatical,2024.2.2,Win32,60.24096386,,,,,,,,,,,,,,,,,,,,,,,,377.9498,379.3362,a,1,0.7147,0.0001,[],[],[],[],[],[],[],0.7147,1,379.3363,379.8331,,,,,,193,FEM,AGR,150,bolsa,la,a,379.8332,379.8333,0.786193936,-0.088133132,0,0,0,,0,55,55,192,1,,,,
,,,,,,b0ef7ebae430f8a0ea52eb46,66a626ef09d4e21e1a8894ec,673740214580759f663eef51,2024-11-15_06h36.40.986,Tarea de género gramatical,2024.2.2,Win32,60.24096386,,,,,,,,,,,,,,,,,,,,,,,,379.8349,380.867,l,0,0.3531,,[],[],[],[],[],[],[],0.3531,0,380.8682,381.3719,,,,,,433,FEM,AGR,150,huella,la,a,381.3735,381.3744,0.786193936,-0.088133132,0,0,0,,0,56,56,432,1,,,,
,,,,,,b0ef7ebae430f8a0ea52eb46,66a626ef09d4e21e1a8894ec,673740214580759f663eef51,2024-11-15_06h36.40.986,Tarea de género gramatical,2024.2.2,Win32,60.24096386,,,,,,,,,,,,,,,,,,,,,,,,381.3753,382.5733,a,1,0.5177,,[],[],[],[],[],[],[],0.5177,1,382.5745,383.0681,,,,,,321,FEM,DIS,150,comida,el,a,383.0682,383.0684,0.786193936,-0.088133132,0,0,0,,0,57,57,320,1,,,,
,,,,,,b0ef7ebae430f8a0ea52eb46,66a626ef09d4e21e1a8894ec,673740214580759f663eef51,2024-11-15_06h36.40.986,Tarea de género gramatical,2024.2.2,Win32,60.24096386,,,,,,,,,,,,,,,,,,,,,,,,383.0699,384.0688,a,1,0.334,,[],[],[],[],[],[],[],0.334,1,384.069,384.5571,,,,,,110,FEM,CON,150,rosa,,a,384.5573,384.5573,0.786193936,-0.088133132,0,0,0,,0,58,58,109,1,,,,
,,,,,,b0ef7ebae430f8a0ea52eb46,66a626ef09d4e21e1a8894ec,673740214580759f663eef51,2024-11-15_06h36.40.986,Tarea de género gramatical,2024.2.2,Win32,60.24096386,,,,,,,,,,,,,,,,,,,,,,,,384.5585,385.6749,a,1,0.4341,,[],[],[],[],[],[],[],0.4341,1,385.6749,386.1701,,,,,,325,FEM,AGR,150,tierra,la,a,386.1702,386.1702,0.786193936,-0.088133132,0,0,0,,0,59,59,324,1,,,,
,,,,,,b0ef7ebae430f8a0ea52eb46,66a626ef09d4e21e1a8894ec,673740214580759f663eef51,2024-11-15_06h36.40.986,Tarea de género gramatical,2024.2.2,Win32,60.24096386,,,,,,,,,,,,,,,,,,,,,,,,386.1719,387.3706,l,1,0.5261,,[],[],[],[],[],[],[],0.5261,1,387.3708,387.8591,,,,,,270,MAS,DIS,150,queso,la,l,387.8606,387.8616,0.786193936,-0.088133132,0,0,0,,0,60,60,269,1,,,,
,,,,,,b0ef7ebae430f8a0ea52eb46,66a626ef09d4e21e1a8894ec,673740214580759f663eef51,2024-11-15_06h36.40.986,Tarea de género gramatical,2024.2.2,Win32,60.24096386,,,,,,,,,,,,,,,,,,,,,,,,387.8624,389.1716,l,1,0.6369,,[],[],[],[],[],[],[],0.6369,1,389.1718,389.6721,,,,,,126,MAS,DIS,150,lazo,la,l,389.6721,389.6722,0.786193936,-0.088133132,0,0,0,,0,61,61,125,1,,,,
,,,,,,b0ef7ebae430f8a0ea52eb46,66a626ef09d4e21e1a8894ec,673740214580759f663eef51,2024-11-15_06h36.40.986,Tarea de género gramatical,2024.2.2,Win32,60.24096386,,,,,,,,,,,,,,,,,,,,,,,,389.6734,390.7559,l,1,0.4008,,[],[],[],[],[],[],[],0.4008,1,390.7559,391.2562,,,,,,155,MAS,CON,150,mundo,,l,391.2562,391.2563,0.786193936,-0.088133132,0,0,0,,0,62,62,154,1,,,,
,,,,,,b0ef7ebae430f8a0ea52eb46,66a626ef09d4e21e1a8894ec,673740214580759f663eef51,2024-11-15_06h36.40.986,Tarea de género gramatical,2024.2.2,Win32,60.24096386,,,,,,,,,,,,,,,,,,,,,,,,391.2575,392.3902,a,1,0.4534,,[],[],[],[],[],[],[],0.4534,1,392.3903,392.8905,,,,,,21,FEM,DIS,150,boca,el,a,392.8906,392.8907,0.786193936,-0.088133132,0,0,0,,0,63,63,20,1,,,,
,,,,,,b0ef7ebae430f8a0ea52eb46,66a626ef09d4e21e1a8894ec,673740214580759f663eef51,2024-11-15_06h36.40.986,Tarea de género gramatical,2024.2.2,Win32,60.24096386,,,,,,,,,,,,,,,,,,,,,,,,392.8918,394.0078,l,1,0.4375,,[],[],[],[],[],[],[],0.4375,1,394.0079,394.5081,,,,,,161,MAS,CON,150,chico,,l,394.5082,394.5084,0.786193936,-0.088133132,0,0,0,,0,64,64,160,1,,,,
,,,,,,b0ef7ebae430f8a0ea52eb46,66a626ef09d4e21e1a8894ec,673740214580759f663eef51,2024-11-15_06h36.40.986,Tarea de género gramatical,2024.2.2,Win32,60.24096386,,,,,,,,,,,,,,,,,,,,,,,,394.5096,395.6088,l,1,0.4267,,[],[],[],[],[],[],[],0.4267,1,395.6088,396.109,,,,,,198,MAS,DIS,150,hotel,la,l,396.1107,396.1121,0.786193936,-0.088133132,0,0,0,,0,65,65,197,1,,,,
,,,,,,b0ef7ebae430f8a0ea52eb46,66a626ef09d4e21e1a8894ec,673740214580759f663eef51,2024-11-15_06h36.40.986,Tarea de género gramatical,2024.2.2,Win32,60.24096386,,,,,,,,,,,,,,,,,,,,,,,,396.1132,397.2264,l,1,0.4343,,[],[],[],[],[],[],[],0.4343,1,397.2264,397.7267,,,,,,425,MAS,CON,150,chiste,,l,397.7267,397.7268,0.786193936,-0.088133132,0,0,0,,0,66,66,424,1,,,,
,,,,,,b0ef7ebae430f8a0ea52eb46,66a626ef09d4e21e1a8894ec,673740214580759f663eef51,2024-11-15_06h36.40.986,Tarea de género gramatical,2024.2.2,Win32,60.24096386,,,,,,,,,,,,,,,,,,,,,,,,397.7281,398.8107,l,1,0.4019,,[],[],[],[],[],[],[],0.4019,1,398.8108,399.3108,,,,,,346,MAS,AGR,150,juicio,el,l,399.3108,399.311,0.786193936,-0.088133132,0,0,0,,0,67,67,345,1,,,,
,,,,,,b0ef7ebae430f8a0ea52eb46,66a626ef09d4e21e1a8894ec,673740214580759f663eef51,2024-11-15_06h36.40.986,Tarea de género gramatical,2024.2.2,Win32,60.24096386,,,,,,,,,,,,,,,,,,,,,,,,399.3121,400.4282,a,1,0.434,,[],[],[],[],[],[],[],0.434,1,400.4284,400.9284,,,,,,147,FEM,DIS,150,grúa,el,a,400.9285,400.9287,0.786193936,-0.088133132,0,0,0,,0,68,68,146,1,,,,
,,,,,,b0ef7ebae430f8a0ea52eb46,66a626ef09d4e21e1a8894ec,673740214580759f663eef51,2024-11-15_06h36.40.986,Tarea de género gramatical,2024.2.2,Win32,60.24096386,,,,,,,,,,,,,,,,,,,,,,,,400.9297,402.0457,l,1,0.4341,,[],[],[],[],[],[],[],0.4341,1,402.0458,402.5462,,,,,,311,MAS,CON,150,camino,,l,402.5477,402.5488,0.786193936,-0.088133132,0,0,0,,0,69,69,310,1,,,,
,,,,,,b0ef7ebae430f8a0ea52eb46,66a626ef09d4e21e1a8894ec,673740214580759f663eef51,2024-11-15_06h36.40.986,Tarea de género gramatical,2024.2.2,Win32,60.24096386,,,,,,,,,,,,,,,,,,,,,,,,402.55,403.6633,l,1,0.4438,,[],[],[],[],[],[],[],0.4438,1,403.6634,404.1637,,,,,,106,MAS,AGR,150,test,el,l,404.1638,404.1639,0.786193936,-0.088133132,0,0,0,,0,70,70,105,1,,,,
,,,,,,b0ef7ebae430f8a0ea52eb46,66a626ef09d4e21e1a8894ec,673740214580759f663eef51,2024-11-15_06h36.40.986,Tarea de género gramatical,2024.2.2,Win32,60.24096386,,,,,,,,,,,,,,,,,,,,,,,,404.1652,405.231,l,1,0.3924,,[],[],[],[],[],[],[],0.3924,1,405.231,405.7312,,,,,,90,MAS,DIS,150,león,la,l,405.7313,405.7315,0.786193936,-0.088133132,0,0,0,,0,71,71,89,1,,,,
,,,,,,b0ef7ebae430f8a0ea52eb46,66a626ef09d4e21e1a8894ec,673740214580759f663eef51,2024-11-15_06h36.40.986,Tarea de género gramatical,2024.2.2,Win32,60.24096386,,,,,,,,,,,,,,,,,,,,,,,,405.7327,406.7652,l,1,0.3516,,[],[],[],[],[],[],[],0.3516,1,406.7653,407.2655,,,,,,275,MAS,CON,150,disco,,l,407.2655,407.2656,0.786193936,-0.088133132,0,0,0,,0,72,72,274,1,,,,
,,,,,,b0ef7ebae430f8a0ea52eb46,66a626ef09d4e21e1a8894ec,673740214580759f663eef51,2024-11-15_06h36.40.986,Tarea de género gramatical,2024.2.2,Win32,60.24096386,,,,,,,,,,,,,,,,,,,,,,,,407.2669,408.3661,l,1,0.422,,[],[],[],[],[],[],[],0.422,1,408.3662,408.8663,,,,,,204,MAS,DIS,150,papel,la,l,408.8664,408.8665,0.786193936,-0.088133132,0,0,0,,0,73,73,203,1,,,,
,,,,,,b0ef7ebae430f8a0ea52eb46,66a626ef09d4e21e1a8894ec,673740214580759f663eef51,2024-11-15_06h36.40.986,Tarea de género gramatical,2024.2.2,Win32,60.24096386,,,,,,,,,,,,,,,,,,,,,,,,408.8676,409.8336,l,1,0.2852,,[],[],[],[],[],[],[],0.2852,1,409.8338,410.3339,,,,,,257,MAS,CON,150,pecho,,l,410.3356,410.3367,0.786193936,-0.088133132,0,0,0,,0,74,74,256,1,,,,
,,,,,,b0ef7ebae430f8a0ea52eb46,66a626ef09d4e21e1a8894ec,673740214580759f663eef51,2024-11-15_06h36.40.986,Tarea de género gramatical,2024.2.2,Win32,60.24096386,,,,,,,,,,,,,,,,,,,,,,,,410.3379,411.3177,l,1,0.3015,,[],[],[],[],[],[],[],0.3015,1,411.3178,411.8179,,,,,,214,MAS,AGR,150,fondo,el,l,411.8181,411.8182,0.786193936,-0.088133132,0,0,0,,0,75,75,213,1,,,,
,,,,,,b0ef7ebae430f8a0ea52eb46,66a626ef09d4e21e1a8894ec,673740214580759f663eef51,2024-11-15_06h36.40.986,Tarea de género gramatical,2024.2.2,Win32,60.24096386,,,,,,,,,,,,,,,,,,,,,,,,411.8196,412.7853,l,1,0.282,,[],[],[],[],[],[],[],0.282,1,412.7855,413.2856,,,,,,323,MAS,CON,150,marido,,l,413.2856,413.2859,0.786193936,-0.088133132,0,0,0,,0,76,76,322,1,,,,
,,,,,,b0ef7ebae430f8a0ea52eb46,66a626ef09d4e21e1a8894ec,673740214580759f663eef51,2024-11-15_06h36.40.986,Tarea de género gramatical,2024.2.2,Win32,60.24096386,,,,,,,,,,,,,,,,,,,,,,,,413.2872,414.2695,a,1,0.3091,,[],[],[],[],[],[],[],0.3091,1,414.2696,414.7697,,,,,,32,FEM,CON,150,caja,,a,414.7698,414.7699,0.786193936,-0.088133132,0,0,0,,0,77,77,31,1,,,,
,,,,,,b0ef7ebae430f8a0ea52eb46,66a626ef09d4e21e1a8894ec,673740214580759f663eef51,2024-11-15_06h36.40.986,Tarea de género gramatical,2024.2.2,Win32,60.24096386,,,,,,,,,,,,,,,,,,,,,,,,414.7711,415.7704,a,1,0.3269,,[],[],[],[],[],[],[],0.3269,1,415.7704,416.2707,,,,,,45,FEM,DIS,150,isla,el,a,416.2723,416.2733,0.786193936,-0.088133132,0,0,0,,0,78,78,44,1,,,,
,,,,,,b0ef7ebae430f8a0ea52eb46,66a626ef09d4e21e1a8894ec,673740214580759f663eef51,2024-11-15_06h36.40.986,Tarea de género gramatical,2024.2.2,Win32,60.24096386,,,,,,,,,,,,,,,,,,,,,,,,416.2743,417.2878,l,1,0.3409,,[],[],[],[],[],[],[],0.3409,1,417.2879,417.7882,,,,,,328,MAS,AGR,150,asunto,el,l,417.7882,417.7884,0.786193936,-0.088133132,0,0,0,,0,79,79,327,1,,,,
,,,,,,b0ef7ebae430f8a0ea52eb46,66a626ef09d4e21e1a8894ec,673740214580759f663eef51,2024-11-15_06h36.40.986,Tarea de género gramatical,2024.2.2,Win32,60.24096386,,,,,,,,,,,,,,,,,,,,,,,,417.7897,418.8054,a,1,0.3372,,[],[],[],[],[],[],[],0.3372,1,418.8055,419.3058,,,,,,164,FEM,CON,150,novia,,a,419.3059,419.306,0.786193936,-0.088133132,0,0,0,,0,80,80,163,1,,,,
,,,,,,b0ef7ebae430f8a0ea52eb46,66a626ef09d4e21e1a8894ec,673740214580759f663eef51,2024-11-15_06h36.40.986,Tarea de género gramatical,2024.2.2,Win32,60.24096386,,,,,,,,,,,,,,,,,,,,,,,,419.3072,420.5564,a,1,0.5728,,[],[],[],[],[],[],[],0.5728,1,420.5565,421.0569,,,,,,375,FEM,DIS,150,cadena,el,a,421.0569,421.057,0.786193936,-0.088133132,0,0,0,,0,81,81,374,1,,,,
,,,,,,b0ef7ebae430f8a0ea52eb46,66a626ef09d4e21e1a8894ec,673740214580759f663eef51,2024-11-15_06h36.40.986,Tarea de género gramatical,2024.2.2,Win32,60.24096386,,,,,,,,,,,,,,,,,,,,,,,,421.0582,422.1241,a,1,0.3881,,[],[],[],[],[],[],[],0.3881,1,422.1242,422.6242,,,,,,123,FEM,DIS,150,tela,el,a,422.6243,422.6244,0.786193936,-0.088133132,0,0,0,,0,82,82,122,1,,,,
,,,,,,b0ef7ebae430f8a0ea52eb46,66a626ef09d4e21e1a8894ec,673740214580759f663eef51,2024-11-15_06h36.40.986,Tarea de género gramatical,2024.2.2,Win32,60.24096386,,,,,,,,,,,,,,,,,,,,,,,,422.6255,423.7416,l,1,0.4363,,[],[],[],[],[],[],[],0.4363,1,423.7417,424.2422,,,,,,197,MAS,CON,150,avión,,l,424.2436,424.2447,0.786193936,-0.088133132,0,0,0,,0,83,83,196,1,,,,
,,,,,,b0ef7ebae430f8a0ea52eb46,66a626ef09d4e21e1a8894ec,673740214580759f663eef51,2024-11-15_06h36.40.986,Tarea de género gramatical,2024.2.2,Win32,60.24096386,,,,,,,,,,,,,,,,,,,,,,,,424.2458,425.2759,a,1,0.3527,,[],[],[],[],[],[],[],0.3527,1,425.276,425.7763,,,,,,259,FEM,AGR,150,prima,la,a,425.7763,425.7764,0.786193936,-0.088133132,0,0,0,,0,84,84,258,1,,,,
,,,,,,b0ef7ebae430f8a0ea52eb46,66a626ef09d4e21e1a8894ec,673740214580759f663eef51,2024-11-15_06h36.40.986,Tarea de género gramatical,2024.2.2,Win32,60.24096386,,,,,,,,,,,,,,,,,,,,,,,,425.778,426.8267,a,1,0.3655,,[],[],[],[],[],[],[],0.3655,1,426.8269,427.3271,,,,,,387,FEM,DIS,150,página,el,a,427.3271,427.3272,0.786193936,-0.088133132,0,0,0,,0,85,85,386,1,,,,
,,,,,,b0ef7ebae430f8a0ea52eb46,66a626ef09d4e21e1a8894ec,673740214580759f663eef51,2024-11-15_06h36.40.986,Tarea de género gramatical,2024.2.2,Win32,60.24096386,,,,,,,,,,,,,,,,,,,,,,,,427.3286,428.4443,l,1,0.432,,[],[],[],[],[],[],[],0.432,1,428.4444,428.9447,,,,,,208,MAS,AGR,150,suelo,el,l,428.9448,428.9448,0.786193936,-0.088133132,0,0,0,,0,86,86,207,1,,,,
,,,,,,b0ef7ebae430f8a0ea52eb46,66a626ef09d4e21e1a8894ec,673740214580759f663eef51,2024-11-15_06h36.40.986,Tarea de género gramatical,2024.2.2,Win32,60.24096386,,,,,,,,,,,,,,,,,,,,,,,,428.9459,429.9786,a,1,0.3508,,[],[],[],[],[],[],[],0.3508,1,429.9787,430.479,,,,,,73,FEM,AGR,150,roca,la,a,430.4805,430.4815,0.786193936,-0.088133132,0,0,0,,0,87,87,72,1,,,,
,,,,,,b0ef7ebae430f8a0ea52eb46,66a626ef09d4e21e1a8894ec,673740214580759f663eef51,2024-11-15_06h36.40.986,Tarea de género gramatical,2024.2.2,Win32,60.24096386,,,,,,,,,,,,,,,,,,,,,,,,430.4826,431.5961,l,1,0.4343,,[],[],[],[],[],[],[],0.4343,1,431.5963,432.0966,,,,,,136,MAS,AGR,150,vago,el,l,432.0967,432.0968,0.786193936,-0.088133132,0,0,0,,0,88,88,135,1,,,,
,,,,,,b0ef7ebae430f8a0ea52eb46,66a626ef09d4e21e1a8894ec,673740214580759f663eef51,2024-11-15_06h36.40.986,Tarea de género gramatical,2024.2.2,Win32,60.24096386,,,,,,,,,,,,,,,,,,,,,,,,432.0983,433.1804,l,1,0.401,,[],[],[],[],[],[],[],0.401,1,433.1806,433.6808,,,,,,377,MAS,CON,150,jardín,,l,433.6808,433.6809,0.786193936,-0.088133132,0,0,0,,0,89,89,376,1,,,,
,,,,,,b0ef7ebae430f8a0ea52eb46,66a626ef09d4e21e1a8894ec,673740214580759f663eef51,2024-11-15_06h36.40.986,Tarea de género gramatical,2024.2.2,Win32,60.24096386,,,,,,,,,,,,,,,,,,,,,,,,433.6821,434.7646,a,1,0.4106,,[],[],[],[],[],[],[],0.4106,1,434.7648,435.2651,,,,,,357,FEM,DIS,150,lengua,el,a,435.2651,435.2652,0.786193936,-0.088133132,0,0,0,,0,90,90,356,1,,,,
,,,,,,b0ef7ebae430f8a0ea52eb46,66a626ef09d4e21e1a8894ec,673740214580759f663eef51,2024-11-15_06h36.40.986,Tarea de género gramatical,2024.2.2,Win32,60.24096386,,,,,,,,,,,,,,,,,,,,,,,,435.2663,436.2656,l,1,0.3215,,[],[],[],[],[],[],[],0.3215,1,436.2657,436.7658,,,,,,35,MAS,CON,150,taxi,,l,436.7659,436.766,0.786193936,-0.088133132,0,0,0,,0,91,91,34,1,,,,
,,,,,,b0ef7ebae430f8a0ea52eb46,66a626ef09d4e21e1a8894ec,673740214580759f663eef51,2024-11-15_06h36.40.986,Tarea de género gramatical,2024.2.2,Win32,60.24096386,,,,,,,,,,,,,,,,,,,,,,,,436.7671,437.7664,a,1,0.3154,,[],[],[],[],[],[],[],0.3154,1,437.7666,438.2668,,,,,,404,FEM,CON,150,gloria,,a,438.2683,438.2694,0.786193936,-0.088133132,0,0,0,,0,92,92,403,1,,,,
,,,,,,b0ef7ebae430f8a0ea52eb46,66a626ef09d4e21e1a8894ec,673740214580759f663eef51,2024-11-15_06h36.40.986,Tarea de género gramatical,2024.2.2,Win32,60.24096386,,,,,,,,,,,,,,,,,,,,,,,,438.2708,440.9232,,0,,,[],[],[],[],[],[],[],0.3154,-1,440.9244,441.4186,,,,,,188,FEM,CON,150,bomba,,a,441.4187,441.419,0.786193936,-0.088133132,0,0,0,,0,93,93,187,1,,,,
,,,,,,b0ef7ebae430f8a0ea52eb46,66a626ef09d4e21e1a8894ec,673740214580759f663eef51,2024-11-15_06h36.40.986,Tarea de género gramatical,2024.2.2,Win32,60.24096386,,,,,,,,,,,,,,,,,,,,,,,,441.4201,442.6194,a,1,0.5303,,[],[],[],[],[],[],[],0.5303,1,442.6203,443.1196,,,,,,391,FEM,AGR,150,altura,la,a,443.1197,443.1198,0.786193936,-0.088133132,0,0,0,,0,94,94,390,1,,,,
,,,,,,b0ef7ebae430f8a0ea52eb46,66a626ef09d4e21e1a8894ec,673740214580759f663eef51,2024-11-15_06h36.40.986,Tarea de género gramatical,2024.2.2,Win32,60.24096386,,,,,,,,,,,,,,,,,,,,,,,,443.121,444.07,a,1,0.27,,[],[],[],[],[],[],[],0.27,1,444.0701,444.5704,,,,,,247,FEM,AGR,150,frase,la,a,444.5704,444.5706,0.786193936,-0.088133132,0,0,0,,0,95,95,246,1,,,,
,,,,,,b0ef7ebae430f8a0ea52eb46,66a626ef09d4e21e1a8894ec,673740214580759f663eef51,2024-11-15_06h36.40.986,Tarea de género gramatical,2024.2.2,Win32,60.24096386,,,,,,,,,,,,,,,,,,,,,,,,444.572,445.4877,a,0,0.242,,[],[],[],[],[],[],[],0.242,0,445.4889,445.9878,,,,,,10,MAS,AGR,150,niño,el,l,445.9893,445.9904,0.786193936,-0.088133132,0,0,0,,0,96,96,9,1,,,,
,,,,,,b0ef7ebae430f8a0ea52eb46,66a626ef09d4e21e1a8894ec,673740214580759f663eef51,2024-11-15_06h36.40.986,Tarea de género gramatical,2024.2.2,Win32,60.24096386,,,,,,,,,,,,,,,,,,,,,,,,445.9914,447.1052,l,1,0.4423,,[],[],[],[],[],[],[],0.4423,1,447.106,447.6055,,,,,,190,MAS,AGR,150,campo,el,l,447.6056,447.6056,0.786193936,-0.088133132,0,0,0,,0,97,97,189,1,,,,
,,,,,,b0ef7ebae430f8a0ea52eb46,66a626ef09d4e21e1a8894ec,673740214580759f663eef51,2024-11-15_06h36.40.986,Tarea de género gramatical,2024.2.2,Win32,60.24096386,,,,,,,,,,,,,,,,,,,,,,,,447.6068,448.7729,a,1,0.4844,,[],[],[],[],[],[],[],0.4844,1,448.7729,449.2731,,,,,,290,FEM,CON,150,cabra,,a,449.2732,449.2733,0.786193936,-0.088133132,0,0,0,,0,98,98,289,1,,,,
,,,,,,b0ef7ebae430f8a0ea52eb46,66a626ef09d4e21e1a8894ec,673740214580759f663eef51,2024-11-15_06h36.40.986,Tarea de género gramatical,2024.2.2,Win32,60.24096386,,,,,,,,,,,,,,,,,,,,,,,,449.2747,450.457,l,0,0.499,,[],[],[],[],[],[],[],0.499,0,450.4579,450.9575,,,,,,127,FEM,AGR,150,cuna,la,a,450.9575,450.9575,0.786193936,-0.088133132,0,0,0,,0,99,99,126,1,,,,
,,,,,,b0ef7ebae430f8a0ea52eb46,66a626ef09d4e21e1a8894ec,673740214580759f663eef51,2024-11-15_06h36.40.986,Tarea de género gramatical,2024.2.2,Win32,60.24096386,,,,,,,,,,,,,,,,,,,,,,,,450.9587,453.6091,,0,,,[],[],[],[],[],[],[],0.499,-1,453.6103,454.1092,,,,,,113,MAS,CON,150,toro,,l,454.1092,454.1094,0.786193936,-0.088133132,0,0,0,,0,100,100,112,1,,,,
,,,,,,b0ef7ebae430f8a0ea52eb46,66a626ef09d4e21e1a8894ec,673740214580759f663eef51,2024-11-15_06h36.40.986,Tarea de género gramatical,2024.2.2,Win32,60.24096386,,,,,,,,,,,,,,,,,,,,,,,,454.1106,455.31,l,1,0.527,,[],[],[],[],[],[],[],0.527,1,455.3107,455.8103,,,,,,70,MAS,AGR,150,palo,el,l,455.8117,455.8129,0.786193936,-0.088133132,0,0,0,,0,101,101,69,1,,,,
,,,,,,b0ef7ebae430f8a0ea52eb46,66a626ef09d4e21e1a8894ec,673740214580759f663eef51,2024-11-15_06h36.40.986,Tarea de género gramatical,2024.2.2,Win32,60.24096386,,,,,,,,,,,,,,,,,,,,,,,,455.8139,456.8775,a,1,0.3844,,[],[],[],[],[],[],[],0.3844,1,456.8777,457.3778,,,,,,194,FEM,CON,150,banda,,a,457.3778,457.3779,0.786193936,-0.088133132,0,0,0,,0,102,102,193,1,,,,
,,,,,,b0ef7ebae430f8a0ea52eb46,66a626ef09d4e21e1a8894ec,673740214580759f663eef51,2024-11-15_06h36.40.986,Tarea de género gramatical,2024.2.2,Win32,60.24096386,,,,,,,,,,,,,,,,,,,,,,,,457.3792,458.5119,l,1,0.4545,,[],[],[],[],[],[],[],0.4545,1,458.512,459.0121,,,,,,30,MAS,DIS,150,cine,la,l,459.0122,459.0123,0.786193936,-0.088133132,0,0,0,,0,103,103,29,1,,,,
,,,,,,b0ef7ebae430f8a0ea52eb46,66a626ef09d4e21e1a8894ec,673740214580759f663eef51,2024-11-15_06h36.40.986,Tarea de género gramatical,2024.2.2,Win32,60.24096386,,,,,,,,,,,,,,,,,,,,,,,,459.0134,460.2795,l,1,0.5893,,[],[],[],[],[],[],[],0.5893,1,460.2796,460.7799,,,,,,46,MAS,AGR,150,odio,el,l,460.78,460.7801,0.786193936,-0.088133132,0,0,0,,0,104,104,45,1,,,,
,,,,,,b0ef7ebae430f8a0ea52eb46,66a626ef09d4e21e1a8894ec,673740214580759f663eef51,2024-11-15_06h36.40.986,Tarea de género gramatical,2024.2.2,Win32,60.24096386,,,,,,,,,,,,,,,,,,,,,,,,460.7813,461.8971,a,1,0.4382,,[],[],[],[],[],[],[],0.4382,1,461.8972,462.3974,,,,,,410,FEM,CON,150,piedad,,a,462.3989,462.3999,0.786193936,-0.088133132,0,0,0,,0,105,105,409,1,,,,
,,,,,,b0ef7ebae430f8a0ea52eb46,66a626ef09d4e21e1a8894ec,673740214580759f663eef51,2024-11-15_06h36.40.986,Tarea de género gramatical,2024.2.2,Win32,60.24096386,,,,,,,,,,,,,,,,,,,,,,,,462.4011,463.3981,l,0,0.3159,,[],[],[],[],[],[],[],0.3159,0,463.3989,463.8983,,,,,,9,FEM,DIS,150,mamá,el,a,463.8983,463.8984,0.786193936,-0.088133132,0,0,0,,0,106,106,8,1,,,,
,,,,,,b0ef7ebae430f8a0ea52eb46,66a626ef09d4e21e1a8894ec,673740214580759f663eef51,2024-11-15_06h36.40.986,Tarea de género gramatical,2024.2.2,Win32,60.24096386,,,,,,,,,,,,,,,,,,,,,,,,463.8996,464.8988,l,1,0.3198,,[],[],[],[],[],[],[],0.3198,1,464.8997,465.3991,,,,,,316,MAS,AGR,150,cuerpo,el,l,465.3992,465.3993,0.786193936,-0.088133132,0,0,0,,0,107,107,315,1,,,,
,,,,,,b0ef7ebae430f8a0ea52eb46,66a626ef09d4e21e1a8894ec,673740214580759f663eef51,2024-11-15_06h36.40.986,Tarea de género gramatical,2024.2.2,Win32,60.24096386,,,,,,,,,,,,,,,,,,,,,,,,465.4005,466.383,l,1,0.3028,,[],[],[],[],[],[],[],0.3028,1,466.3831,466.8832,,,,,,280,MAS,AGR,150,salón,el,l,466.8832,466.8834,0.786193936,-0.088133132,0,0,0,,0,108,108,279,1,,,,
,,,,,,b0ef7ebae430f8a0ea52eb46,66a626ef09d4e21e1a8894ec,673740214580759f663eef51,2024-11-15_06h36.40.986,Tarea de género gramatical,2024.2.2,Win32,60.24096386,,,,,,,,,,,,,,,,,,,,,,,,466.8845,467.9006,a,1,0.3341,,[],[],[],[],[],[],[],0.3341,1,467.9007,468.4008,,,,,,87,FEM,DIS,150,risa,el,a,468.4009,468.401,0.786193936,-0.088133132,0,0,0,,0,109,109,86,1,,,,
,,,,,,b0ef7ebae430f8a0ea52eb46,66a626ef09d4e21e1a8894ec,673740214580759f663eef51,2024-11-15_06h36.40.986,Tarea de género gramatical,2024.2.2,Win32,60.24096386,,,,,,,,,,,,,,,,,,,,,,,,468.4021,469.4014,a,1,0.3215,,[],[],[],[],[],[],[],0.3215,1,469.4014,469.9018,,,,,,331,FEM,AGR,150,cárcel,la,a,469.9032,469.9043,0.786193936,-0.088133132,0,0,0,,0,110,110,330,1,,,,
,,,,,,b0ef7ebae430f8a0ea52eb46,66a626ef09d4e21e1a8894ec,673740214580759f663eef51,2024-11-15_06h36.40.986,Tarea de género gramatical,2024.2.2,Win32,60.24096386,,,,,,,,,,,,,,,,,,,,,,,,469.9054,470.969,a,1,0.3863,,[],[],[],[],[],[],[],0.3863,1,470.9691,471.4693,,,,,,308,FEM,CON,150,semana,,a,471.4693,471.4694,0.786193936,-0.088133132,0,0,0,,0,111,111,307,1,,,,
,,,,,,b0ef7ebae430f8a0ea52eb46,66a626ef09d4e21e1a8894ec,673740214580759f663eef51,2024-11-15_06h36.40.986,Tarea de género gramatical,2024.2.2,Win32,60.24096386,,,,,,,,,,,,,,,,,,,,,,,,471.4707,472.5198,a,1,0.3677,,[],[],[],[],[],[],[],0.3677,1,472.5199,473.0202,,,,,,397,FEM,AGR,150,cuerda,la,a,473.0202,473.0204,0.786193936,-0.088133132,0,0,0,,0,112,112,396,1,,,,
,,,,,,b0ef7ebae430f8a0ea52eb46,66a626ef09d4e21e1a8894ec,673740214580759f663eef51,2024-11-15_06h36.40.986,Tarea de género gramatical,2024.2.2,Win32,60.24096386,,,,,,,,,,,,,,,,,,,,,,,,473.0216,474.2381,l,1,0.535,,[],[],[],[],[],[],[],0.535,1,474.2385,474.7379,,,,,,138,MAS,DIS,150,luto,la,l,474.7379,474.738,0.786193936,-0.088133132,0,0,0,,0,113,113,137,1,,,,
,,,,,,b0ef7ebae430f8a0ea52eb46,66a626ef09d4e21e1a8894ec,673740214580759f663eef51,2024-11-15_06h36.40.986,Tarea de género gramatical,2024.2.2,Win32,60.24096386,,,,,,,,,,,,,,,,,,,,,,,,474.7393,475.8718,l,1,0.4513,,[],[],[],[],[],[],[],0.4513,1,475.872,476.372,,,,,,330,MAS,DIS,150,estado,la,l,476.3735,476.3745,0.786193936,-0.088133132,0,0,0,,0,114,114,329,1,,,,
,,,,,,b0ef7ebae430f8a0ea52eb46,66a626ef09d4e21e1a8894ec,673740214580759f663eef51,2024-11-15_06h36.40.986,Tarea de género gramatical,2024.2.2,Win32,60.24096386,,,,,,,,,,,,,,,,,,,,,,,,476.376,477.4561,l,1,0.401,,[],[],[],[],[],[],[],0.401,1,477.4562,477.9562,,,,,,130,MAS,AGR,150,yate,el,l,477.9564,477.9564,0.786193936,-0.088133132,0,0,0,,0,115,115,129,1,,,,
,,,,,,b0ef7ebae430f8a0ea52eb46,66a626ef09d4e21e1a8894ec,673740214580759f663eef51,2024-11-15_06h36.40.986,Tarea de género gramatical,2024.2.2,Win32,60.24096386,,,,,,,,,,,,,,,,,,,,,,,,477.9577,479.0903,a,1,0.4511,,[],[],[],[],[],[],[],0.4511,1,479.0905,479.5906,,,,,,91,FEM,AGR,150,hoja,la,a,479.5907,479.5908,0.786193936,-0.088133132,0,0,0,,0,116,116,90,1,,,,
,,,,,,b0ef7ebae430f8a0ea52eb46,66a626ef09d4e21e1a8894ec,673740214580759f663eef51,2024-11-15_06h36.40.986,Tarea de género gramatical,2024.2.2,Win32,60.24096386,,,,,,,,,,,,,,,,,,,,,,,,479.592,480.5748,l,1,0.3113,,[],[],[],[],[],[],[],0.3113,1,480.5749,481.0748,,,,,,16,MAS,AGR,150,baño,el,l,481.0749,481.0749,0.786193936,-0.088133132,0,0,0,,0,117,117,15,1,,,,
,,,,,,b0ef7ebae430f8a0ea52eb46,66a626ef09d4e21e1a8894ec,673740214580759f663eef51,2024-11-15_06h36.40.986,Tarea de género gramatical,2024.2.2,Win32,60.24096386,,,,,,,,,,,,,,,,,,,,,,,,481.0761,482.0921,a,1,0.3412,,[],[],[],[],[],[],[],0.3412,1,482.0923,482.5924,,,,,,211,FEM,AGR,150,salud,la,a,482.5924,482.5926,0.786193936,-0.088133132,0,0,0,,0,118,118,210,1,,,,
,,,,,,b0ef7ebae430f8a0ea52eb46,66a626ef09d4e21e1a8894ec,673740214580759f663eef51,2024-11-15_06h36.40.986,Tarea de género gramatical,2024.2.2,Win32,60.24096386,,,,,,,,,,,,,,,,,,,,,,,,482.5939,483.693,l,1,0.4207,,[],[],[],[],[],[],[],0.4207,1,483.6931,484.1933,,,,,,148,MAS,AGR,150,surf,el,l,484.1948,484.1958,0.786193936,-0.088133132,0,0,0,,0,119,119,147,1,,,,
,,,,,,b0ef7ebae430f8a0ea52eb46,66a626ef09d4e21e1a8894ec,673740214580759f663eef51,2024-11-15_06h36.40.986,Tarea de género gramatical,2024.2.2,Win32,60.24096386,,,,,,,,,,,,,,,,,,,,,,,,484.1969,485.1607,a,1,0.2926,,[],[],[],[],[],[],[],0.2926,1,485.1608,485.6609,,,,,,249,FEM,DIS,150,crema,el,a,485.6609,485.6611,0.786193936,-0.088133132,0,0,0,,0,120,120,248,1,,,,
,,,,,,b0ef7ebae430f8a0ea52eb46,66a626ef09d4e21e1a8894ec,673740214580759f663eef51,2024-11-15_06h36.40.986,Tarea de género gramatical,2024.2.2,Win32,60.24096386,,,,,,,,,,,,,,,,,,,,,,,,485.6625,486.6947,a,1,0.351,,[],[],[],[],[],[],[],0.351,1,486.6948,487.195,,,,,,31,FEM,AGR,150,edad,la,a,487.195,487.1952,0.786193936,-0.088133132,0,0,0,,0,121,121,30,1,,,,
,,,,,,b0ef7ebae430f8a0ea52eb46,66a626ef09d4e21e1a8894ec,673740214580759f663eef51,2024-11-15_06h36.40.986,Tarea de género gramatical,2024.2.2,Win32,60.24096386,,,,,,,,,,,,,,,,,,,,,,,,487.1963,488.3456,a,1,0.4654,,[],[],[],[],[],[],[],0.4654,1,488.3457,488.846,,,,,,327,FEM,DIS,150,tienda,el,a,488.8461,488.8462,0.786193936,-0.088133132,0,0,0,,0,122,122,326,1,,,,
,,,,,,b0ef7ebae430f8a0ea52eb46,66a626ef09d4e21e1a8894ec,673740214580759f663eef51,2024-11-15_06h36.40.986,Tarea de género gramatical,2024.2.2,Win32,60.24096386,,,,,,,,,,,,,,,,,,,,,,,,488.8474,489.8633,a,0,0.341,,[],[],[],[],[],[],[],0.341,0,489.8642,490.3635,,,,,,364,MAS,AGR,150,viento,el,l,490.365,490.3661,0.786193936,-0.088133132,0,0,0,,0,123,123,363,1,,,,
,,,,,,b0ef7ebae430f8a0ea52eb46,66a626ef09d4e21e1a8894ec,673740214580759f663eef51,2024-11-15_06h36.40.986,Tarea de género gramatical,2024.2.2,Win32,60.24096386,,,,,,,,,,,,,,,,,,,,,,,,490.3674,491.5476,l,1,0.5012,,[],[],[],[],[],[],[],0.5012,1,491.5487,492.0478,,,,,,304,MAS,AGR,150,tiempo,el,l,492.0479,492.048,0.786193936,-0.088133132,0,0,0,,0,124,124,303,1,,,,
,,,,,,b0ef7ebae430f8a0ea52eb46,66a626ef09d4e21e1a8894ec,673740214580759f663eef51,2024-11-15_06h36.40.986,Tarea de género gramatical,2024.2.2,Win32,60.24096386,,,,,,,,,,,,,,,,,,,,,,,,492.0491,493.1486,a,1,0.4178,,[],[],[],[],[],[],[],0.4178,1,493.1486,493.6489,,,,,,369,FEM,DIS,150,camisa,el,a,493.649,493.649,0.786193936,-0.088133132,0,0,0,,0,125,125,368,1,,,,
,,,,,,b0ef7ebae430f8a0ea52eb46,66a626ef09d4e21e1a8894ec,673740214580759f663eef51,2024-11-15_06h36.40.986,Tarea de género gramatical,2024.2.2,Win32,60.24096386,,,,,,,,,,,,,,,,,,,,,,,,493.6502,494.6995,l,1,0.3677,,[],[],[],[],[],[],[],0.3677,1,494.6995,495.1996,,,,,,306,MAS,DIS,150,dinero,la,l,495.1997,495.1998,0.786193936,-0.088133132,0,0,0,,0,126,126,305,1,,,,
,,,,,,b0ef7ebae430f8a0ea52eb46,66a626ef09d4e21e1a8894ec,673740214580759f663eef51,2024-11-15_06h36.40.986,Tarea de género gramatical,2024.2.2,Win32,60.24096386,,,,,,,,,,,,,,,,,,,,,,,,495.2013,496.1837,l,1,0.301,,[],[],[],[],[],[],[],0.301,1,496.1838,496.6839,,,,,,131,MAS,CON,150,kilo,,l,496.6839,496.6841,0.786193936,-0.088133132,0,0,0,,0,127,127,130,1,,,,
,,,,,,b0ef7ebae430f8a0ea52eb46,66a626ef09d4e21e1a8894ec,673740214580759f663eef51,2024-11-15_06h36.40.986,Tarea de género gramatical,2024.2.2,Win32,60.24096386,,,,,,,,,,,,,,,,,,,,,,,,496.6852,497.7179,a,1,0.3513,,[],[],[],[],[],[],[],0.3513,1,497.7181,498.2181,,,,,,85,FEM,AGR,150,gira,la,a,498.2196,498.2205,0.786193936,-0.088133132,0,0,0,,0,128,128,84,1,,,,
,,,,,,b0ef7ebae430f8a0ea52eb46,66a626ef09d4e21e1a8894ec,673740214580759f663eef51,2024-11-15_06h36.40.986,Tarea de género gramatical,2024.2.2,Win32,60.24096386,,,,,,,,,,,,,,,,,,,,,,,,498.2217,500.8696,,0,,,[],[],[],[],[],[],[],0.3513,-1,500.8705,501.37,,,,,,302,FEM,CON,150,cabeza,,a,501.3701,501.3702,0.786193936,-0.088133132,0,0,0,,0,129,129,301,1,,,,
,,,,,,b0ef7ebae430f8a0ea52eb46,66a626ef09d4e21e1a8894ec,673740214580759f663eef51,2024-11-15_06h36.40.986,Tarea de género gramatical,2024.2.2,Win32,60.24096386,,,,,,,,,,,,,,,,,,,,,,,,501.3714,504.0214,,0,,,[],[],[],[],[],[],[],0.3513,-1,504.0215,504.5217,,,,,,336,MAS,DIS,150,crimen,la,l,504.5217,504.5218,0.786193936,-0.088133132,0,0,0,,0,130,130,335,1,,,,
,,,,,,b0ef7ebae430f8a0ea52eb46,66a626ef09d4e21e1a8894ec,673740214580759f663eef51,2024-11-15_06h36.40.986,Tarea de género gramatical,2024.2.2,Win32,60.24096386,,,,,,,,,,,,,,,,,,,,,,,,504.5232,505.8557,l,1,0.651,,[],[],[],[],[],[],[],0.651,1,505.8567,506.3561,,,,,,168,MAS,DIS,150,sitio,la,l,506.3561,506.3563,0.786193936,-0.088133132,0,0,0,,0,131,131,167,1,,,,
,,,,,,b0ef7ebae430f8a0ea52eb46,66a626ef09d4e21e1a8894ec,673740214580759f663eef51,2024-11-15_06h36.40.986,Tarea de género gramatical,2024.2.2,Win32,60.24096386,,,,,,,,,,,,,,,,,,,,,,,,506.3574,507.4234,l,1,0.3843,,[],[],[],[],[],[],[],0.3843,1,507.4234,507.9237,,,,,,340,MAS,AGR,150,pasado,el,l,507.9252,507.9263,0.786193936,-0.088133132,0,0,0,,0,132,132,339,1,,,,
,,,,,,b0ef7ebae430f8a0ea52eb46,66a626ef09d4e21e1a8894ec,673740214580759f663eef51,2024-11-15_06h36.40.986,Tarea de género gramatical,2024.2.2,Win32,60.24096386,,,,,,,,,,,,,,,,,,,,,,,,507.9272,509.1243,a,1,0.5203,,[],[],[],[],[],[],[],0.5203,1,509.1244,509.6247,,,,,,374,FEM,CON,150,herida,,a,509.6247,509.6248,0.786193936,-0.088133132,0,0,0,,0,133,133,373,1,,,,
,,,,,,b0ef7ebae430f8a0ea52eb46,66a626ef09d4e21e1a8894ec,673740214580759f663eef51,2024-11-15_06h36.40.986,Tarea de género gramatical,2024.2.2,Win32,60.24096386,,,,,,,,,,,,,,,,,,,,,,,,509.626,510.7421,l,1,0.432,,[],[],[],[],[],[],[],0.432,1,510.7421,511.2423,,,,,,348,MAS,DIS,150,anillo,la,l,511.2424,511.2425,0.786193936,-0.088133132,0,0,0,,0,134,134,347,1,,,,
,,,,,,b0ef7ebae430f8a0ea52eb46,66a626ef09d4e21e1a8894ec,673740214580759f663eef51,2024-11-15_06h36.40.986,Tarea de género gramatical,2024.2.2,Win32,60.24096386,,,,,,,,,,,,,,,,,,,,,,,,511.2436,512.2262,l,0,0.3008,,[],[],[],[],[],[],[],0.3008,0,512.2271,512.7265,,,,,,225,FEM,DIS,150,pieza,el,a,512.7265,512.7267,0.786193936,-0.088133132,0,0,0,,0,135,135,224,1,,,,
,,,,,,b0ef7ebae430f8a0ea52eb46,66a626ef09d4e21e1a8894ec,673740214580759f663eef51,2024-11-15_06h36.40.986,Tarea de género gramatical,2024.2.2,Win32,60.24096386,,,,,,,,,,,,,,,,,,,,,,,,512.7278,513.7938,l,1,0.3843,,[],[],[],[],[],[],[],0.3843,1,513.7947,514.294,,,,,,449,MAS,CON,150,payaso,,l,514.2941,514.2943,0.786193936,-0.088133132,0,0,0,,0,136,136,448,1,,,,
,,,,,,b0ef7ebae430f8a0ea52eb46,66a626ef09d4e21e1a8894ec,673740214580759f663eef51,2024-11-15_06h36.40.986,Tarea de género gramatical,2024.2.2,Win32,60.24096386,,,,,,,,,,,,,,,,,,,,,,,,514.2955,515.2446,a,1,0.27,,[],[],[],[],[],[],[],0.27,1,515.2447,515.7448,,,,,,81,FEM,DIS,150,cima,el,a,515.7464,515.7476,0.786193936,-0.088133132,0,0,0,,0,137,137,80,1,,,,
,,,,,,b0ef7ebae430f8a0ea52eb46,66a626ef09d4e21e1a8894ec,673740214580759f663eef51,2024-11-15_06h36.40.986,Tarea de género gramatical,2024.2.2,Win32,60.24096386,,,,,,,,,,,,,,,,,,,,,,,,515.7488,517.0291,l,0,0.5989,,[],[],[],[],[],[],[],0.5989,0,517.0299,517.5292,,,,,,195,FEM,DIS,150,pared,el,a,517.5292,517.5293,0.786193936,-0.088133132,0,0,0,,0,138,138,194,1,,,,
,,,,,,b0ef7ebae430f8a0ea52eb46,66a626ef09d4e21e1a8894ec,673740214580759f663eef51,2024-11-15_06h36.40.986,Tarea de género gramatical,2024.2.2,Win32,60.24096386,,,,,,,,,,,,,,,,,,,,,,,,517.5305,518.5465,l,1,0.3374,,[],[],[],[],[],[],[],0.3374,1,518.5473,519.0468,,,,,,209,MAS,CON,150,banco,,l,519.0469,519.047,0.786193936,-0.088133132,0,0,0,,0,139,139,208,1,,,,
,,,,,,b0ef7ebae430f8a0ea52eb46,66a626ef09d4e21e1a8894ec,673740214580759f663eef51,2024-11-15_06h36.40.986,Tarea de género gramatical,2024.2.2,Win32,60.24096386,,,,,,,,,,,,,,,,,,,,,,,,519.0481,520.1476,a,1,0.4158,,[],[],[],[],[],[],[],0.4158,1,520.1476,520.6478,,,,,,230,FEM,CON,150,regla,,a,520.6479,520.648,0.786193936,-0.088133132,0,0,0,,0,140,140,229,1,,,,
,,,,,,b0ef7ebae430f8a0ea52eb46,66a626ef09d4e21e1a8894ec,673740214580759f663eef51,2024-11-15_06h36.40.986,Tarea de género gramatical,2024.2.2,Win32,60.24096386,,,,,,,,,,,,,,,,,,,,,,,,520.6492,521.765,l,1,0.4341,,[],[],[],[],[],[],[],0.4341,1,521.7651,522.2653,,,,,,215,MAS,CON,150,hueso,,l,522.2668,522.2678,0.786193936,-0.088133132,0,0,0,,0,141,141,214,1,,,,
,,,,,,b0ef7ebae430f8a0ea52eb46,66a626ef09d4e21e1a8894ec,673740214580759f663eef51,2024-11-15_06h36.40.986,Tarea de género gramatical,2024.2.2,Win32,60.24096386,,,,,,,,,,,,,,,,,,,,,,,,522.2689,523.2995,l,1,0.3614,,[],[],[],[],[],[],[],0.3614,1,523.2995,523.7994,,,,,,41,MAS,CON,150,bote,,l,523.7995,523.7997,0.786193936,-0.088133132,0,0,0,,0,142,142,40,1,,,,
,,,,,,b0ef7ebae430f8a0ea52eb46,66a626ef09d4e21e1a8894ec,673740214580759f663eef51,2024-11-15_06h36.40.986,Tarea de género gramatical,2024.2.2,Win32,60.24096386,,,,,,,,,,,,,,,,,,,,,,,,523.8007,524.7834,l,1,0.3111,,[],[],[],[],[],[],[],0.3111,1,524.7835,525.2837,,,,,,431,MAS,CON,150,veneno,,l,525.2837,525.2839,0.786193936,-0.088133132,0,0,0,,0,143,143,430,1,,,,
,,,,,,b0ef7ebae430f8a0ea52eb46,66a626ef09d4e21e1a8894ec,673740214580759f663eef51,2024-11-15_06h36.40.986,Tarea de género gramatical,2024.2.2,Win32,60.24096386,,,,,,,,,,,,,,,,,,,,,,,,525.285,526.1843,a,1,0.2179,,[],[],[],[],[],[],[],0.2179,1,526.1843,526.6846,,,,,,176,FEM,CON,150,línea,,a,526.6847,526.6847,0.786193936,-0.088133132,0,0,0,,0,144,144,175,1,,,,
,,,,,,b0ef7ebae430f8a0ea52eb46,66a626ef09d4e21e1a8894ec,673740214580759f663eef51,2024-11-15_06h36.40.986,Tarea de género gramatical,2024.2.2,Win32,60.24096386,,,,,,,,,,,,,,,,,,,,,,,,526.6859,527.6016,l,1,0.2342,,[],[],[],[],[],[],[],0.2342,1,527.6018,528.1021,,,,,,173,MAS,CON,150,libro,,l,528.1022,528.1022,0.786193936,-0.088133132,0,0,0,,0,145,145,172,1,,,,
,,,,,,b0ef7ebae430f8a0ea52eb46,66a626ef09d4e21e1a8894ec,673740214580759f663eef51,2024-11-15_06h36.40.986,Tarea de género gramatical,2024.2.2,Win32,60.24096386,,,,,,,,,,,,,,,,,,,,,,,,528.1034,529.4528,l,1,0.6678,,[],[],[],[],[],[],[],0.6678,1,529.4529,529.9532,,,,,,232,MAS,AGR,150,calor,el,l,529.9548,529.9559,0.786193936,-0.088133132,0,0,0,,0,146,146,231,1,,,,
,,,,,,b0ef7ebae430f8a0ea52eb46,66a626ef09d4e21e1a8894ec,673740214580759f663eef51,2024-11-15_06h36.40.986,Tarea de género gramatical,2024.2.2,Win32,60.24096386,,,,,,,,,,,,,,,,,,,,,,,,529.957,530.9871,a,0,0.3511,,[],[],[],[],[],[],[],0.3511,0,530.988,531.4873,,,,,,124,MAS,AGR,150,clan,el,l,531.4874,531.4874,0.786193936,-0.088133132,0,0,0,,0,147,147,123,1,,,,
,,,,,,b0ef7ebae430f8a0ea52eb46,66a626ef09d4e21e1a8894ec,673740214580759f663eef51,2024-11-15_06h36.40.986,Tarea de género gramatical,2024.2.2,Win32,60.24096386,,,,,,,,,,,,,,,,,,,,,,,,531.4887,532.5379,l,0,0.3713,,[],[],[],[],[],[],[],0.3713,0,532.5381,533.0383,,,,,,446,FEM,CON,150,bañera,,a,533.0383,533.0384,0.786193936,-0.088133132,0,0,0,,0,148,148,445,1,,,,
,,,,,,b0ef7ebae430f8a0ea52eb46,66a626ef09d4e21e1a8894ec,673740214580759f663eef51,2024-11-15_06h36.40.986,Tarea de género gramatical,2024.2.2,Win32,60.24096386,,,,,,,,,,,,,,,,,,,,,,,,533.0396,534.1222,l,1,0.4095,,[],[],[],[],[],[],[],0.4095,1,534.1229,534.6224,,,,,,300,MAS,DIS,150,túnel,la,l,534.6225,534.6226,0.786193936,-0.088133132,0,0,0,,0,149,149,299,1,,,,
,,,,,,b0ef7ebae430f8a0ea52eb46,66a626ef09d4e21e1a8894ec,673740214580759f663eef51,2024-11-15_06h36.40.986,Tarea de género gramatical,2024.2.2,Win32,60.24096386,,,,,,,,,,,,,,,,,,,,,,,,534.6239,535.7065,l,1,0.41,,[],[],[],[],[],[],[],0.41,1,535.7066,536.2068,,,,,,191,MAS,CON,150,dolor,,l,536.2083,556.2519,0.786193936,-0.088133132,0,0,0,space,0,150,150,190,1,20.0268,,,
,,,,,,b0ef7ebae430f8a0ea52eb46,66a626ef09d4e21e1a8894ec,673740214580759f663eef51,2024-11-15_06h36.40.986,Tarea de género gramatical,2024.2.2,Win32,60.24096386,,,,,,,,,,,,,,,,,,,,,,,,556.2532,557.3356,l,1,0.4047,,[],[],[],[],[],[],[],0.4047,1,557.3357,557.8359,,,,,,150,MAS,DIS,150,mozo,la,l,557.8359,557.836,0.786193936,-0.088133132,0,0,0,,0,151,151,149,1,,,,
,,,,,,b0ef7ebae430f8a0ea52eb46,66a626ef09d4e21e1a8894ec,673740214580759f663eef51,2024-11-15_06h36.40.986,Tarea de género gramatical,2024.2.2,Win32,60.24096386,,,,,,,,,,,,,,,,,,,,,,,,557.8372,559.3595,l,1,0.8506,,[],[],[],[],[],[],[],0.8506,1,559.3596,559.8589,,,,,,294,MAS,DIS,150,cable,la,l,559.859,559.8591,0.786193936,-0.088133132,0,0,0,,0,152,152,293,1,,,,
,,,,,,b0ef7ebae430f8a0ea52eb46,66a626ef09d4e21e1a8894ec,673740214580759f663eef51,2024-11-15_06h36.40.986,Tarea de género gramatical,2024.2.2,Win32,60.24096386,,,,,,,,,,,,,,,,,,,,,,,,559.8603,560.8878,l,1,0.3511,,[],[],[],[],[],[],[],0.3511,1,560.888,561.3929,,,,,,53,MAS,CON,150,vaso,,l,561.393,561.3932,0.786193936,-0.088133132,0,0,0,,0,153,153,52,1,,,,
,,,,,,b0ef7ebae430f8a0ea52eb46,66a626ef09d4e21e1a8894ec,673740214580759f663eef51,2024-11-15_06h36.40.986,Tarea de género gramatical,2024.2.2,Win32,60.24096386,,,,,,,,,,,,,,,,,,,,,,,,561.3942,562.3939,l,1,0.3176,,[],[],[],[],[],[],[],0.3176,1,562.394,562.8889,,,,,,274,MAS,AGR,150,motor,el,l,562.8889,562.8891,0.786193936,-0.088133132,0,0,0,,0,154,154,273,1,,,,
,,,,,,b0ef7ebae430f8a0ea52eb46,66a626ef09d4e21e1a8894ec,673740214580759f663eef51,2024-11-15_06h36.40.986,Tarea de género gramatical,2024.2.2,Win32,60.24096386,,,,,,,,,,,,,,,,,,,,,,,,562.8905,563.8113,l,1,0.2634,,[],[],[],[],[],[],[],0.2634,1,563.8114,564.3065,,,,,,419,MAS,CON,150,cuento,,l,564.3084,564.3094,0.786193936,-0.088133132,0,0,0,,0,155,155,418,1,,,,
,,,,,,b0ef7ebae430f8a0ea52eb46,66a626ef09d4e21e1a8894ec,673740214580759f663eef51,2024-11-15_06h36.40.986,Tarea de género gramatical,2024.2.2,Win32,60.24096386,,,,,,,,,,,,,,,,,,,,,,,,564.3103,565.3236,a,1,0.3428,,[],[],[],[],[],[],[],0.3428,1,565.3237,565.8239,,,,,,265,FEM,AGR,150,rueda,la,a,565.8239,565.824,0.786193936,-0.088133132,0,0,0,,0,156,156,264,1,,,,
,,,,,,b0ef7ebae430f8a0ea52eb46,66a626ef09d4e21e1a8894ec,673740214580759f663eef51,2024-11-15_06h36.40.986,Tarea de género gramatical,2024.2.2,Win32,60.24096386,,,,,,,,,,,,,,,,,,,,,,,,565.8252,566.8412,a,1,0.3343,,[],[],[],[],[],[],[],0.3343,1,566.8413,567.3414,,,,,,7,FEM,AGR,150,hora,la,a,567.3416,567.3417,0.786193936,-0.088133132,0,0,0,,0,157,157,6,1,,,,
,,,,,,b0ef7ebae430f8a0ea52eb46,66a626ef09d4e21e1a8894ec,673740214580759f663eef51,2024-11-15_06h36.40.986,Tarea de género gramatical,2024.2.2,Win32,60.24096386,,,,,,,,,,,,,,,,,,,,,,,,567.3427,568.3255,a,1,0.3011,,[],[],[],[],[],[],[],0.3011,1,568.3256,568.8256,,,,,,248,FEM,CON,150,letra,,a,568.8257,568.8259,0.786193936,-0.088133132,0,0,0,,0,158,158,247,1,,,,
,,,,,,b0ef7ebae430f8a0ea52eb46,66a626ef09d4e21e1a8894ec,673740214580759f663eef51,2024-11-15_06h36.40.986,Tarea de género gramatical,2024.2.2,Win32,60.24096386,,,,,,,,,,,,,,,,,,,,,,,,568.8271,569.7261,l,1,0.2245,,[],[],[],[],[],[],[],0.2245,1,569.7261,570.2264,,,,,,400,MAS,AGR,150,barrio,el,l,570.2279,570.229,0.786193936,-0.088133132,0,0,0,,0,159,159,399,1,,,,
,,,,,,b0ef7ebae430f8a0ea52eb46,66a626ef09d4e21e1a8894ec,673740214580759f663eef51,2024-11-15_06h36.40.986,Tarea de género gramatical,2024.2.2,Win32,60.24096386,,,,,,,,,,,,,,,,,,,,,,,,570.23,571.277,l,1,0.3721,,[],[],[],[],[],[],[],0.3721,1,571.2772,571.7773,,,,,,376,MAS,AGR,150,efecto,el,l,571.7774,571.7775,0.786193936,-0.088133132,0,0,0,,0,160,160,375,1,,,,
,,,,,,b0ef7ebae430f8a0ea52eb46,66a626ef09d4e21e1a8894ec,673740214580759f663eef51,2024-11-15_06h36.40.986,Tarea de género gramatical,2024.2.2,Win32,60.24096386,,,,,,,,,,,,,,,,,,,,,,,,571.7785,572.6946,l,1,0.2417,,[],[],[],[],[],[],[],0.2417,1,572.6947,573.1948,,,,,,47,MAS,CON,150,olor,,l,573.1948,573.195,0.786193936,-0.088133132,0,0,0,,0,161,161,46,1,,,,
,,,,,,b0ef7ebae430f8a0ea52eb46,66a626ef09d4e21e1a8894ec,673740214580759f663eef51,2024-11-15_06h36.40.986,Tarea de género gramatical,2024.2.2,Win32,60.24096386,,,,,,,,,,,,,,,,,,,,,,,,573.1961,574.062,l,0,0.1852,,[],[],[],[],[],[],[],0.1852,0,574.0629,574.5623,,,,,,44,FEM,CON,150,zona,,a,574.5623,574.5624,0.786193936,-0.088133132,0,0,0,,0,162,162,43,1,,,,
,,,,,,b0ef7ebae430f8a0ea52eb46,66a626ef09d4e21e1a8894ec,673740214580759f663eef51,2024-11-15_06h36.40.986,Tarea de género gramatical,2024.2.2,Win32,60.24096386,,,,,,,,,,,,,,,,,,,,,,,,574.5636,575.6962,a,0,0.4549,,[],[],[],[],[],[],[],0.4549,0,575.6964,576.1966,,,,,,210,MAS,DIS,150,baile,la,l,576.1966,576.1967,0.786193936,-0.088133132,0,0,0,,0,163,163,209,1,,,,
,,,,,,b0ef7ebae430f8a0ea52eb46,66a626ef09d4e21e1a8894ec,673740214580759f663eef51,2024-11-15_06h36.40.986,Tarea de género gramatical,2024.2.2,Win32,60.24096386,,,,,,,,,,,,,,,,,,,,,,,,576.1978,577.4138,a,1,0.5367,,[],[],[],[],[],[],[],0.5367,1,577.4147,577.9142,,,,,,363,FEM,DIS,150,unidad,el,a,577.9158,577.9168,0.786193936,-0.088133132,0,0,0,,0,164,164,362,1,,,,
,,,,,,b0ef7ebae430f8a0ea52eb46,66a626ef09d4e21e1a8894ec,673740214580759f663eef51,2024-11-15_06h36.40.986,Tarea de género gramatical,2024.2.2,Win32,60.24096386,,,,,,,,,,,,,,,,,,,,,,,,577.9178,578.8982,a,1,0.3008,,[],[],[],[],[],[],[],0.3008,1,578.8983,579.3984,,,,,,14,FEM,CON,150,cara,,a,579.3986,579.3986,0.786193936,-0.088133132,0,0,0,,0,165,165,13,1,,,,
,,,,,,b0ef7ebae430f8a0ea52eb46,66a626ef09d4e21e1a8894ec,673740214580759f663eef51,2024-11-15_06h36.40.986,Tarea de género gramatical,2024.2.2,Win32,60.24096386,,,,,,,,,,,,,,,,,,,,,,,,579.3999,580.4824,l,1,0.4097,,[],[],[],[],[],[],[],0.4097,1,580.4825,580.9826,,,,,,418,MAS,AGR,150,pájaro,el,l,580.9826,580.9828,0.786193936,-0.088133132,0,0,0,,0,166,166,417,1,,,,
,,,,,,b0ef7ebae430f8a0ea52eb46,66a626ef09d4e21e1a8894ec,673740214580759f663eef51,2024-11-15_06h36.40.986,Tarea de género gramatical,2024.2.2,Win32,60.24096386,,,,,,,,,,,,,,,,,,,,,,,,580.9839,582.0334,l,1,0.3715,,[],[],[],[],[],[],[],0.3715,1,582.0335,582.5335,,,,,,288,MAS,DIS,150,grado,la,l,582.5336,582.5337,0.786193936,-0.088133132,0,0,0,,0,167,167,287,1,,,,
,,,,,,b0ef7ebae430f8a0ea52eb46,66a626ef09d4e21e1a8894ec,673740214580759f663eef51,2024-11-15_06h36.40.986,Tarea de género gramatical,2024.2.2,Win32,60.24096386,,,,,,,,,,,,,,,,,,,,,,,,582.5348,583.5008,l,1,0.2845,,[],[],[],[],[],[],[],0.2845,1,583.5009,584.0012,,,,,,342,MAS,DIS,150,abuelo,la,l,584.0027,584.0037,0.786193936,-0.088133132,0,0,0,,0,168,168,341,1,,,,
,,,,,,b0ef7ebae430f8a0ea52eb46,66a626ef09d4e21e1a8894ec,673740214580759f663eef51,2024-11-15_06h36.40.986,Tarea de género gramatical,2024.2.2,Win32,60.24096386,,,,,,,,,,,,,,,,,,,,,,,,584.0052,585.0683,a,0,0.3928,,[],[],[],[],[],[],[],0.3928,0,585.0692,585.5685,,,,,,234,MAS,DIS,150,héroe,la,l,585.5686,585.5689,0.786193936,-0.088133132,0,0,0,,0,169,169,233,1,,,,
,,,,,,b0ef7ebae430f8a0ea52eb46,66a626ef09d4e21e1a8894ec,673740214580759f663eef51,2024-11-15_06h36.40.986,Tarea de género gramatical,2024.2.2,Win32,60.24096386,,,,,,,,,,,,,,,,,,,,,,,,585.57,586.7694,l,1,0.5253,,[],[],[],[],[],[],[],0.5253,1,586.7702,587.2697,,,,,,84,MAS,DIS,150,mago,la,l,587.2697,587.2698,0.786193936,-0.088133132,0,0,0,,0,170,170,83,1,,,,
,,,,,,b0ef7ebae430f8a0ea52eb46,66a626ef09d4e21e1a8894ec,673740214580759f663eef51,2024-11-15_06h36.40.986,Tarea de género gramatical,2024.2.2,Win32,60.24096386,,,,,,,,,,,,,,,,,,,,,,,,587.2709,588.437,a,1,0.4844,,[],[],[],[],[],[],[],0.4844,1,588.4372,588.9372,,,,,,386,FEM,CON,150,sombra,,a,588.9372,588.9374,0.786193936,-0.088133132,0,0,0,,0,171,171,385,1,,,,
,,,,,,b0ef7ebae430f8a0ea52eb46,66a626ef09d4e21e1a8894ec,673740214580759f663eef51,2024-11-15_06h36.40.986,Tarea de género gramatical,2024.2.2,Win32,60.24096386,,,,,,,,,,,,,,,,,,,,,,,,588.9386,590.0546,a,1,0.4416,,[],[],[],[],[],[],[],0.4416,1,590.0547,590.5548,,,,,,229,FEM,AGR,150,celda,la,a,590.5549,590.555,0.786193936,-0.088133132,0,0,0,,0,172,172,228,1,,,,
,,,,,,b0ef7ebae430f8a0ea52eb46,66a626ef09d4e21e1a8894ec,673740214580759f663eef51,2024-11-15_06h36.40.986,Tarea de género gramatical,2024.2.2,Win32,60.24096386,,,,,,,,,,,,,,,,,,,,,,,,590.5561,591.6389,l,1,0.4015,,[],[],[],[],[],[],[],0.4015,1,591.639,592.1391,,,,,,389,MAS,CON,150,tamaño,,l,592.1405,592.1419,0.786193936,-0.088133132,0,0,0,,0,173,173,388,1,,,,
,,,,,,b0ef7ebae430f8a0ea52eb46,66a626ef09d4e21e1a8894ec,673740214580759f663eef51,2024-11-15_06h36.40.986,Tarea de género gramatical,2024.2.2,Win32,60.24096386,,,,,,,,,,,,,,,,,,,,,,,,592.143,593.0896,a,1,0.2698,,[],[],[],[],[],[],[],0.2698,1,593.0897,593.5899,,,,,,279,FEM,DIS,150,selva,el,a,593.5901,593.5901,0.786193936,-0.088133132,0,0,0,,0,174,174,278,1,,,,
,,,,,,b0ef7ebae430f8a0ea52eb46,66a626ef09d4e21e1a8894ec,673740214580759f663eef51,2024-11-15_06h36.40.986,Tarea de género gramatical,2024.2.2,Win32,60.24096386,,,,,,,,,,,,,,,,,,,,,,,,593.5913,594.6406,l,1,0.3761,,[],[],[],[],[],[],[],0.3761,1,594.6407,595.1408,,,,,,406,MAS,AGR,150,premio,el,l,595.1408,595.1409,0.786193936,-0.088133132,0,0,0,,0,175,175,405,1,,,,
,,,,,,b0ef7ebae430f8a0ea52eb46,66a626ef09d4e21e1a8894ec,673740214580759f663eef51,2024-11-15_06h36.40.986,Tarea de género gramatical,2024.2.2,Win32,60.24096386,,,,,,,,,,,,,,,,,,,,,,,,595.1422,596.1916,l,1,0.3712,,[],[],[],[],[],[],[],0.3712,1,596.1916,596.6917,,,,,,450,MAS,DIS,150,conejo,la,l,596.6917,596.6919,0.786193936,-0.088133132,0,0,0,,0,176,176,449,1,,,,
,,,,,,b0ef7ebae430f8a0ea52eb46,66a626ef09d4e21e1a8894ec,673740214580759f663eef51,2024-11-15_06h36.40.986,Tarea de género gramatical,2024.2.2,Win32,60.24096386,,,,,,,,,,,,,,,,,,,,,,,,596.693,597.7926,a,1,0.4176,,[],[],[],[],[],[],[],0.4176,1,597.7927,598.2927,,,,,,421,FEM,AGR,150,novela,la,a,598.2941,598.2952,0.786193936,-0.088133132,0,0,0,,0,177,177,420,1,,,,
,,,,,,b0ef7ebae430f8a0ea52eb46,66a626ef09d4e21e1a8894ec,673740214580759f663eef51,2024-11-15_06h36.40.986,Tarea de género gramatical,2024.2.2,Win32,60.24096386,,,,,,,,,,,,,,,,,,,,,,,,598.2963,599.2432,l,0,0.2693,,[],[],[],[],[],[],[],0.2693,0,599.2441,599.7436,,,,,,434,FEM,CON,150,corona,,a,599.7437,599.7438,0.786193936,-0.088133132,0,0,0,,0,178,178,433,1,,,,
,,,,,,b0ef7ebae430f8a0ea52eb46,66a626ef09d4e21e1a8894ec,673740214580759f663eef51,2024-11-15_06h36.40.986,Tarea de género gramatical,2024.2.2,Win32,60.24096386,,,,,,,,,,,,,,,,,,,,,,,,599.7449,600.7607,l,0,0.3444,,[],[],[],[],[],[],[],0.3444,0,600.7608,601.2611,,,,,,296,FEM,CON,150,feria,,a,601.2611,601.2612,0.786193936,-0.088133132,0,0,0,,0,179,179,295,1,,,,
,,,,,,b0ef7ebae430f8a0ea52eb46,66a626ef09d4e21e1a8894ec,673740214580759f663eef51,2024-11-15_06h36.40.986,Tarea de género gramatical,2024.2.2,Win32,60.24096386,,,,,,,,,,,,,,,,,,,,,,,,601.2624,602.3618,l,1,0.4175,,[],[],[],[],[],[],[],0.4175,1,602.3626,602.862,,,,,,442,MAS,AGR,150,cuadro,el,l,602.8621,602.8622,0.786193936,-0.088133132,0,0,0,,0,180,180,441,1,,,,
,,,,,,b0ef7ebae430f8a0ea52eb46,66a626ef09d4e21e1a8894ec,673740214580759f663eef51,2024-11-15_06h36.40.986,Tarea de género gramatical,2024.2.2,Win32,60.24096386,,,,,,,,,,,,,,,,,,,,,,,,602.8634,603.946,l,0,0.4009,,[],[],[],[],[],[],[],0.4009,0,603.9468,604.4461,,,,,,151,FEM,AGR,150,noche,la,a,604.4463,604.4463,0.786193936,-0.088133132,0,0,0,,0,181,181,150,1,,,,
,,,,,,b0ef7ebae430f8a0ea52eb46,66a626ef09d4e21e1a8894ec,673740214580759f663eef51,2024-11-15_06h36.40.986,Tarea de género gramatical,2024.2.2,Win32,60.24096386,,,,,,,,,,,,,,,,,,,,,,,,604.4474,605.9805,a,1,0.8598,,[],[],[],[],[],[],[],0.8598,1,605.9813,606.4808,,,,,,313,FEM,AGR,150,ciudad,la,a,606.4824,606.4833,0.786193936,-0.088133132,0,0,0,,0,182,182,312,1,,,,
,,,,,,b0ef7ebae430f8a0ea52eb46,66a626ef09d4e21e1a8894ec,673740214580759f663eef51,2024-11-15_06h36.40.986,Tarea de género gramatical,2024.2.2,Win32,60.24096386,,,,,,,,,,,,,,,,,,,,,,,,606.4845,607.4646,a,1,0.3092,,[],[],[],[],[],[],[],0.3092,1,607.4648,607.9649,,,,,,213,FEM,DIS,150,magia,el,a,607.9649,607.9651,0.786193936,-0.088133132,0,0,0,,0,183,183,212,1,,,,
,,,,,,b0ef7ebae430f8a0ea52eb46,66a626ef09d4e21e1a8894ec,673740214580759f663eef51,2024-11-15_06h36.40.986,Tarea de género gramatical,2024.2.2,Win32,60.24096386,,,,,,,,,,,,,,,,,,,,,,,,607.9662,609.1489,l,1,0.5041,,[],[],[],[],[],[],[],0.5041,1,609.149,609.6493,,,,,,72,MAS,DIS,150,hoyo,la,l,609.6493,609.6495,0.786193936,-0.088133132,0,0,0,,0,184,184,71,1,,,,
,,,,,,b0ef7ebae430f8a0ea52eb46,66a626ef09d4e21e1a8894ec,673740214580759f663eef51,2024-11-15_06h36.40.986,Tarea de género gramatical,2024.2.2,Win32,60.24096386,,,,,,,,,,,,,,,,,,,,,,,,609.6506,610.7999,l,1,0.4678,,[],[],[],[],[],[],[],0.4678,1,610.8,611.3001,,,,,,276,MAS,DIS,150,ritmo,la,l,611.3001,611.3002,0.786193936,-0.088133132,0,0,0,,0,185,185,275,1,,,,
,,,,,,b0ef7ebae430f8a0ea52eb46,66a626ef09d4e21e1a8894ec,673740214580759f663eef51,2024-11-15_06h36.40.986,Tarea de género gramatical,2024.2.2,Win32,60.24096386,,,,,,,,,,,,,,,,,,,,,,,,611.3014,612.5843,l,0,0.6086,,[],[],[],[],[],[],[],0.6086,0,612.5853,613.0845,,,,,,175,FEM,AGR,150,señal,la,a,613.0861,613.0872,0.786193936,-0.088133132,0,0,0,,0,186,186,174,1,,,,
,,,,,,b0ef7ebae430f8a0ea52eb46,66a626ef09d4e21e1a8894ec,673740214580759f663eef51,2024-11-15_06h36.40.986,Tarea de género gramatical,2024.2.2,Win32,60.24096386,,,,,,,,,,,,,,,,,,,,,,,,613.0884,614.2351,l,1,0.4723,,[],[],[],[],[],[],[],0.4723,1,614.2362,614.7356,,,,,,100,MAS,AGR,150,nido,el,l,614.7356,614.7357,0.786193936,-0.088133132,0,0,0,,0,187,187,99,1,,,,
,,,,,,b0ef7ebae430f8a0ea52eb46,66a626ef09d4e21e1a8894ec,673740214580759f663eef51,2024-11-15_06h36.40.986,Tarea de género gramatical,2024.2.2,Win32,60.24096386,,,,,,,,,,,,,,,,,,,,,,,,614.7368,615.953,a,1,0.5394,,[],[],[],[],[],[],[],0.5394,1,615.953,616.4531,,,,,,411,FEM,DIS,150,actriz,el,a,616.4531,616.4533,0.786193936,-0.088133132,0,0,0,,0,188,188,410,1,,,,
,,,,,,b0ef7ebae430f8a0ea52eb46,66a626ef09d4e21e1a8894ec,673740214580759f663eef51,2024-11-15_06h36.40.986,Tarea de género gramatical,2024.2.2,Win32,60.24096386,,,,,,,,,,,,,,,,,,,,,,,,616.4544,617.4538,a,1,0.3257,,[],[],[],[],[],[],[],0.3257,1,617.4539,617.9541,,,,,,19,FEM,AGR,150,niña,la,a,617.9541,617.9542,0.786193936,-0.088133132,0,0,0,,0,189,189,18,1,,,,
,,,,,,b0ef7ebae430f8a0ea52eb46,66a626ef09d4e21e1a8894ec,673740214580759f663eef51,2024-11-15_06h36.40.986,Tarea de género gramatical,2024.2.2,Win32,60.24096386,,,,,,,,,,,,,,,,,,,,,,,,617.9554,619.3554,a,1,0.7287,0.0002,[],[],[],[],[],[],[],0.7287,1,619.3555,619.855,,,,,,1,FEM,AGR,150,casa,la,a,619.8551,619.8553,0.786193936,-0.088133132,0,0,0,,0,190,190,0,1,,,,
,,,,,,b0ef7ebae430f8a0ea52eb46,66a626ef09d4e21e1a8894ec,673740214580759f663eef51,2024-11-15_06h36.40.986,Tarea de género gramatical,2024.2.2,Win32,60.24096386,,,,,,,,,,,,,,,,,,,,,,,,619.8564,620.839,a,1,0.3031,,[],[],[],[],[],[],[],0.3031,1,620.8392,621.3393,,,,,,291,FEM,DIS,150,aguja,el,a,621.3408,621.342,0.786193936,-0.088133132,0,0,0,,0,191,191,290,1,,,,
,,,,,,b0ef7ebae430f8a0ea52eb46,66a626ef09d4e21e1a8894ec,673740214580759f663eef51,2024-11-15_06h36.40.986,Tarea de género gramatical,2024.2.2,Win32,60.24096386,,,,,,,,,,,,,,,,,,,,,,,,621.3429,622.4235,l,1,0.4114,,[],[],[],[],[],[],[],0.4114,1,622.4236,622.9236,,,,,,107,MAS,CON,150,cubo,,l,622.9236,622.9237,0.786193936,-0.088133132,0,0,0,,0,192,192,106,1,,,,
,,,,,,b0ef7ebae430f8a0ea52eb46,66a626ef09d4e21e1a8894ec,673740214580759f663eef51,2024-11-15_06h36.40.986,Tarea de género gramatical,2024.2.2,Win32,60.24096386,,,,,,,,,,,,,,,,,,,,,,,,622.9251,623.8742,l,1,0.2692,,[],[],[],[],[],[],[],0.2692,1,623.8742,624.3745,,,,,,95,MAS,CON,150,tomo,,l,624.3745,624.3747,0.786193936,-0.088133132,0,0,0,,0,193,193,94,1,,,,
,,,,,,b0ef7ebae430f8a0ea52eb46,66a626ef09d4e21e1a8894ec,673740214580759f663eef51,2024-11-15_06h36.40.986,Tarea de género gramatical,2024.2.2,Win32,60.24096386,,,,,,,,,,,,,,,,,,,,,,,,624.3758,625.3918,l,1,0.3424,,[],[],[],[],[],[],[],0.3424,1,625.3919,625.892,,,,,,174,MAS,DIS,150,perro,la,l,625.8921,625.8923,0.786193936,-0.088133132,0,0,0,,0,194,194,173,1,,,,
,,,,,,b0ef7ebae430f8a0ea52eb46,66a626ef09d4e21e1a8894ec,673740214580759f663eef51,2024-11-15_06h36.40.986,Tarea de género gramatical,2024.2.2,Win32,60.24096386,,,,,,,,,,,,,,,,,,,,,,,,625.8934,626.9593,a,1,0.3844,,[],[],[],[],[],[],[],0.3844,1,626.9595,627.4596,,,,,,63,FEM,DIS,150,fila,el,a,627.4611,627.4621,0.786193936,-0.088133132,0,0,0,,0,195,195,62,1,,,,
,,,,,,b0ef7ebae430f8a0ea52eb46,66a626ef09d4e21e1a8894ec,673740214580759f663eef51,2024-11-15_06h36.40.986,Tarea de género gramatical,2024.2.2,Win32,60.24096386,,,,,,,,,,,,,,,,,,,,,,,,627.4633,628.4935,a,1,0.3562,,[],[],[],[],[],[],[],0.3562,1,628.4936,628.9937,,,,,,51,FEM,DIS,150,bala,el,a,628.9938,628.9939,0.786193936,-0.088133132,0,0,0,,0,196,196,50,1,,,,
,,,,,,b0ef7ebae430f8a0ea52eb46,66a626ef09d4e21e1a8894ec,673740214580759f663eef51,2024-11-15_06h36.40.986,Tarea de género gramatical,2024.2.2,Win32,60.24096386,,,,,,,,,,,,,,,,,,,,,,,,628.9951,630.0277,a,1,0.3489,,[],[],[],[],[],[],[],0.3489,1,630.0278,630.528,,,,,,445,FEM,AGR,150,bondad,la,a,630.528,630.5282,0.786193936,-0.088133132,0,0,0,,0,197,197,444,1,,,,
,,,,,,b0ef7ebae430f8a0ea52eb46,66a626ef09d4e21e1a8894ec,673740214580759f663eef51,2024-11-15_06h36.40.986,Tarea de género gramatical,2024.2.2,Win32,60.24096386,,,,,,,,,,,,,,,,,,,,,,,,630.5294,631.7288,a,1,0.52,,[],[],[],[],[],[],[],0.52,1,631.7288,632.229,,,,,,169,FEM,AGR,150,vista,la,a,632.2291,632.2292,0.786193936,-0.088133132,0,0,0,,0,198,198,168,1,,,,
,,,,,,b0ef7ebae430f8a0ea52eb46,66a626ef09d4e21e1a8894ec,673740214580759f663eef51,2024-11-15_06h36.40.986,Tarea de género gramatical,2024.2.2,Win32,60.24096386,,,,,,,,,,,,,,,,,,,,,,,,632.2304,633.3295,l,1,0.4178,,[],[],[],[],[],[],[],0.4178,1,633.3297,633.8301,,,,,,298,MAS,AGR,150,botón,el,l,633.8302,633.8303,0.786193936,-0.088133132,0,0,0,,0,199,199,297,1,,,,
,,,,,,b0ef7ebae430f8a0ea52eb46,66a626ef09d4e21e1a8894ec,673740214580759f663eef51,2024-11-15_06h36.40.986,Tarea de género gramatical,2024.2.2,Win32,60.24096386,,,,,,,,,,,,,,,,,,,,,,,,633.8315,635.114,l,0,0.6037,,[],[],[],[],[],[],[],0.6037,0,635.1148,635.6142,,,,,,218,FEM,CON,150,nieve,,a,635.6157,635.6167,0.786193936,-0.088133132,0,0,0,,0,200,200,217,1,,,,
,,,,,,b0ef7ebae430f8a0ea52eb46,66a626ef09d4e21e1a8894ec,673740214580759f663eef51,2024-11-15_06h36.40.986,Tarea de género gramatical,2024.2.2,Win32,60.24096386,,,,,,,,,,,,,,,,,,,,,,,,635.6178,637.1818,a,1,0.8875,,[],[],[],[],[],[],[],0.8875,1,637.1828,637.6822,,,,,,181,FEM,AGR,150,tarde,la,a,637.6823,637.6824,0.786193936,-0.088133132,0,0,0,,0,201,201,180,1,,,,
,,,,,,b0ef7ebae430f8a0ea52eb46,66a626ef09d4e21e1a8894ec,673740214580759f663eef51,2024-11-15_06h36.40.986,Tarea de género gramatical,2024.2.2,Win32,60.24096386,,,,,,,,,,,,,,,,,,,,,,,,637.6835,638.7994,a,1,0.4446,,[],[],[],[],[],[],[],0.4446,1,638.7994,639.2997,,,,,,79,FEM,AGR,150,mina,la,a,639.2997,639.2999,0.786193936,-0.088133132,0,0,0,,0,202,202,78,1,,,,
,,,,,,b0ef7ebae430f8a0ea52eb46,66a626ef09d4e21e1a8894ec,673740214580759f663eef51,2024-11-15_06h36.40.986,Tarea de género gramatical,2024.2.2,Win32,60.24096386,,,,,,,,,,,,,,,,,,,,,,,,639.301,640.4505,l,1,0.4675,,[],[],[],[],[],[],[],0.4675,1,640.4505,640.9507,,,,,,359,MAS,CON,150,bosque,,l,640.9507,640.9509,0.786193936,-0.088133132,0,0,0,,0,203,203,358,1,,,,
,,,,,,b0ef7ebae430f8a0ea52eb46,66a626ef09d4e21e1a8894ec,673740214580759f663eef51,2024-11-15_06h36.40.986,Tarea de género gramatical,2024.2.2,Win32,60.24096386,,,,,,,,,,,,,,,,,,,,,,,,640.952,642.1014,a,1,0.4692,,[],[],[],[],[],[],[],0.4692,1,642.1015,642.6016,,,,,,33,FEM,DIS,150,boda,el,a,642.6031,642.604,0.786193936,-0.088133132,0,0,0,,0,204,204,32,1,,,,
,,,,,,b0ef7ebae430f8a0ea52eb46,66a626ef09d4e21e1a8894ec,673740214580759f663eef51,2024-11-15_06h36.40.986,Tarea de género gramatical,2024.2.2,Win32,60.24096386,,,,,,,,,,,,,,,,,,,,,,,,642.6051,643.8357,l,1,0.5602,,[],[],[],[],[],[],[],0.5602,1,643.8358,644.336,,,,,,365,MAS,CON,150,código,,l,644.3361,644.3362,0.786193936,-0.088133132,0,0,0,,0,205,205,364,1,,,,
,,,,,,b0ef7ebae430f8a0ea52eb46,66a626ef09d4e21e1a8894ec,673740214580759f663eef51,2024-11-15_06h36.40.986,Tarea de género gramatical,2024.2.2,Win32,60.24096386,,,,,,,,,,,,,,,,,,,,,,,,644.3373,645.5034,a,0,0.4843,,[],[],[],[],[],[],[],0.4843,0,645.5043,646.0035,,,,,,383,MAS,CON,150,parque,,l,646.0035,646.0036,0.786193936,-0.088133132,0,0,0,,0,206,206,382,1,,,,
,,,,,,b0ef7ebae430f8a0ea52eb46,66a626ef09d4e21e1a8894ec,673740214580759f663eef51,2024-11-15_06h36.40.986,Tarea de género gramatical,2024.2.2,Win32,60.24096386,,,,,,,,,,,,,,,,,,,,,,,,646.0048,647.1876,a,1,0.5019,,[],[],[],[],[],[],[],0.5019,1,647.1886,647.6879,,,,,,405,FEM,DIS,150,parada,el,a,647.688,647.6881,0.786193936,-0.088133132,0,0,0,,0,207,207,404,1,,,,
,,,,,,b0ef7ebae430f8a0ea52eb46,66a626ef09d4e21e1a8894ec,673740214580759f663eef51,2024-11-15_06h36.40.986,Tarea de género gramatical,2024.2.2,Win32,60.24096386,,,,,,,,,,,,,,,,,,,,,,,,647.6893,648.7219,l,1,0.3535,,[],[],[],[],[],[],[],0.3535,1,648.7221,649.2221,,,,,,17,MAS,CON,150,modo,,l,649.2221,649.2223,0.786193936,-0.088133132,0,0,0,,0,208,208,16,1,,,,
,,,,,,b0ef7ebae430f8a0ea52eb46,66a626ef09d4e21e1a8894ec,673740214580759f663eef51,2024-11-15_06h36.40.986,Tarea de género gramatical,2024.2.2,Win32,60.24096386,,,,,,,,,,,,,,,,,,,,,,,,649.2235,650.3395,a,1,0.4364,,[],[],[],[],[],[],[],0.4364,1,650.3395,650.8399,,,,,,368,FEM,CON,150,gracia,,a,650.8412,650.8422,0.786193936,-0.088133132,0,0,0,,0,209,209,367,1,,,,
,,,,,,b0ef7ebae430f8a0ea52eb46,66a626ef09d4e21e1a8894ec,673740214580759f663eef51,2024-11-15_06h36.40.986,Tarea de género gramatical,2024.2.2,Win32,60.24096386,,,,,,,,,,,,,,,,,,,,,,,,650.8433,652.5242,l,1,1.0131,,[],[],[],[],[],[],[],1.0131,1,652.5242,653.0244,,,,,,282,MAS,DIS,150,bolso,la,l,653.0244,653.0246,0.786193936,-0.088133132,0,0,0,,0,210,210,281,1,,,,
,,,,,,b0ef7ebae430f8a0ea52eb46,66a626ef09d4e21e1a8894ec,673740214580759f663eef51,2024-11-15_06h36.40.986,Tarea de género gramatical,2024.2.2,Win32,60.24096386,,,,,,,,,,,,,,,,,,,,,,,,653.0257,654.2585,a,1,0.5509,,[],[],[],[],[],[],[],0.5509,1,654.2586,654.7589,,,,,,117,FEM,DIS,150,raya,el,a,654.7589,654.7591,0.786193936,-0.088133132,0,0,0,,0,211,211,116,1,,,,
,,,,,,b0ef7ebae430f8a0ea52eb46,66a626ef09d4e21e1a8894ec,673740214580759f663eef51,2024-11-15_06h36.40.986,Tarea de género gramatical,2024.2.2,Win32,60.24096386,,,,,,,,,,,,,,,,,,,,,,,,654.7602,655.9094,l,0,0.47,,[],[],[],[],[],[],[],0.47,0,655.9102,656.4096,,,,,,121,FEM,AGR,150,pila,la,a,656.4096,656.4098,0.786193936,-0.088133132,0,0,0,,0,212,212,120,1,,,,
,,,,,,b0ef7ebae430f8a0ea52eb46,66a626ef09d4e21e1a8894ec,673740214580759f663eef51,2024-11-15_06h36.40.986,Tarea de género gramatical,2024.2.2,Win32,60.24096386,,,,,,,,,,,,,,,,,,,,,,,,656.411,657.4603,l,0,0.3678,,[],[],[],[],[],[],[],0.3678,0,657.4605,657.9604,,,,,,104,FEM,CON,150,vela,,a,657.9619,657.9629,0.786193936,-0.088133132,0,0,0,,0,213,213,103,1,,,,
,,,,,,b0ef7ebae430f8a0ea52eb46,66a626ef09d4e21e1a8894ec,673740214580759f663eef51,2024-11-15_06h36.40.986,Tarea de género gramatical,2024.2.2,Win32,60.24096386,,,,,,,,,,,,,,,,,,,,,,,,657.964,659.1445,l,1,0.5029,,[],[],[],[],[],[],[],0.5029,1,659.1454,659.6451,,,,,,88,MAS,AGR,150,pavo,el,l,659.6452,659.6454,0.786193936,-0.088133132,0,0,0,,0,214,214,87,1,,,,
,,,,,,b0ef7ebae430f8a0ea52eb46,66a626ef09d4e21e1a8894ec,673740214580759f663eef51,2024-11-15_06h36.40.986,Tarea de género gramatical,2024.2.2,Win32,60.24096386,,,,,,,,,,,,,,,,,,,,,,,,659.6466,660.929,l,0,0.6106,,[],[],[],[],[],[],[],0.6106,0,660.9298,661.4292,,,,,,171,FEM,DIS,150,mitad,el,a,661.4293,661.4294,0.786193936,-0.088133132,0,0,0,,0,215,215,170,1,,,,
,,,,,,b0ef7ebae430f8a0ea52eb46,66a626ef09d4e21e1a8894ec,673740214580759f663eef51,2024-11-15_06h36.40.986,Tarea de género gramatical,2024.2.2,Win32,60.24096386,,,,,,,,,,,,,,,,,,,,,,,,661.4306,662.7633,a,1,0.6532,,[],[],[],[],[],[],[],0.6532,1,662.7641,663.2637,,,,,,297,FEM,DIS,150,manta,el,a,663.2638,663.2639,0.786193936,-0.088133132,0,0,0,,0,216,216,296,1,,,,
,,,,,,b0ef7ebae430f8a0ea52eb46,66a626ef09d4e21e1a8894ec,673740214580759f663eef51,2024-11-15_06h36.40.986,Tarea de género gramatical,2024.2.2,Win32,60.24096386,,,,,,,,,,,,,,,,,,,,,,,,663.265,664.4811,l,1,0.5346,,[],[],[],[],[],[],[],0.5346,1,664.4812,664.9813,,,,,,220,MAS,AGR,150,huevo,el,l,664.9814,664.9815,0.786193936,-0.088133132,0,0,0,,0,217,217,219,1,,,,
,,,,,,b0ef7ebae430f8a0ea52eb46,66a626ef09d4e21e1a8894ec,673740214580759f663eef51,2024-11-15_06h36.40.986,Tarea de género gramatical,2024.2.2,Win32,60.24096386,,,,,,,,,,,,,,,,,,,,,,,,664.9825,666.182,l,1,0.5262,,[],[],[],[],[],[],[],0.5262,1,666.1822,666.6823,,,,,,233,MAS,CON,150,golpe,,l,666.6838,666.6849,0.786193936,-0.088133132,0,0,0,,0,218,218,232,1,,,,
,,,,,,b0ef7ebae430f8a0ea52eb46,66a626ef09d4e21e1a8894ec,673740214580759f663eef51,2024-11-15_06h36.40.986,Tarea de género gramatical,2024.2.2,Win32,60.24096386,,,,,,,,,,,,,,,,,,,,,,,,666.686,668.1498,l,1,0.7846,,[],[],[],[],[],[],[],0.7846,1,668.1499,668.65,,,,,,202,MAS,AGR,150,honor,el,l,668.6502,668.6503,0.786193936,-0.088133132,0,0,0,,0,219,219,201,1,,,,
,,,,,,b0ef7ebae430f8a0ea52eb46,66a626ef09d4e21e1a8894ec,673740214580759f663eef51,2024-11-15_06h36.40.986,Tarea de género gramatical,2024.2.2,Win32,60.24096386,,,,,,,,,,,,,,,,,,,,,,,,668.6514,669.8342,l,1,0.5033,,[],[],[],[],[],[],[],0.5033,1,669.8343,670.3346,,,,,,292,MAS,AGR,150,piano,el,l,670.3347,670.3348,0.786193936,-0.088133132,0,0,0,,0,220,220,291,1,,,,
,,,,,,b0ef7ebae430f8a0ea52eb46,66a626ef09d4e21e1a8894ec,673740214580759f663eef51,2024-11-15_06h36.40.986,Tarea de género gramatical,2024.2.2,Win32,60.24096386,,,,,,,,,,,,,,,,,,,,,,,,670.3366,671.3851,l,1,0.3653,,[],[],[],[],[],[],[],0.3653,1,671.3852,671.8853,,,,,,112,MAS,AGR,150,reto,el,l,671.8853,671.8855,0.786193936,-0.088133132,0,0,0,,0,221,221,111,1,,,,
,,,,,,b0ef7ebae430f8a0ea52eb46,66a626ef09d4e21e1a8894ec,673740214580759f663eef51,2024-11-15_06h36.40.986,Tarea de género gramatical,2024.2.2,Win32,60.24096386,,,,,,,,,,,,,,,,,,,,,,,,671.8867,673.0359,a,1,0.4714,,[],[],[],[],[],[],[],0.4714,1,673.036,673.5362,,,,,,111,FEM,DIS,150,goma,el,a,673.5377,673.5387,0.786193936,-0.088133132,0,0,0,,0,222,222,110,1,,,,
,,,,,,b0ef7ebae430f8a0ea52eb46,66a626ef09d4e21e1a8894ec,673740214580759f663eef51,2024-11-15_06h36.40.986,Tarea de género gramatical,2024.2.2,Win32,60.24096386,,,,,,,,,,,,,,,,,,,,,,,,673.5399,674.7035,l,1,0.4845,,[],[],[],[],[],[],[],0.4845,1,674.7037,675.2039,,,,,,360,MAS,DIS,150,puente,la,l,675.204,675.2041,0.786193936,-0.088133132,0,0,0,,0,223,223,359,1,,,,
,,,,,,b0ef7ebae430f8a0ea52eb46,66a626ef09d4e21e1a8894ec,673740214580759f663eef51,2024-11-15_06h36.40.986,Tarea de género gramatical,2024.2.2,Win32,60.24096386,,,,,,,,,,,,,,,,,,,,,,,,675.2054,676.4713,a,1,0.5923,,[],[],[],[],[],[],[],0.5923,1,676.4714,676.9716,,,,,,67,FEM,AGR,150,miel,la,a,676.9716,676.9717,0.786193936,-0.088133132,0,0,0,,0,224,224,66,1,,,,
,,,,,,b0ef7ebae430f8a0ea52eb46,66a626ef09d4e21e1a8894ec,673740214580759f663eef51,2024-11-15_06h36.40.986,Tarea de género gramatical,2024.2.2,Win32,60.24096386,,,,,,,,,,,,,,,,,,,,,,,,676.9729,678.0722,a,1,0.4174,,[],[],[],[],[],[],[],0.4174,1,678.0722,678.5724,,,,,,266,FEM,CON,150,jaula,,a,678.5724,678.5725,0.786193936,-0.088133132,0,0,0,,0,225,225,265,1,,,,
,,,,,,b0ef7ebae430f8a0ea52eb46,66a626ef09d4e21e1a8894ec,673740214580759f663eef51,2024-11-15_06h36.40.986,Tarea de género gramatical,2024.2.2,Win32,60.24096386,,,,,,,,,,,,,,,,,,,,,,,,678.5737,681.2289,,0,,,[],[],[],[],[],[],[],0.4174,-1,681.2298,681.7293,,,,,,427,FEM,AGR,150,agenda,la,a,681.7294,681.7295,0.786193936,-0.088133132,0,0,0,,0,226,226,426,1,,,,
,,,,,,b0ef7ebae430f8a0ea52eb46,66a626ef09d4e21e1a8894ec,673740214580759f663eef51,2024-11-15_06h36.40.986,Tarea de género gramatical,2024.2.2,Win32,60.24096386,,,,,,,,,,,,,,,,,,,,,,,,681.7307,683.1418,l,0,0.7278,,[],[],[],[],[],[],[],0.7278,0,683.143,683.6303,,,,,,423,FEM,DIS,150,poesía,el,a,683.6317,683.6326,0.786193936,-0.088133132,0,0,0,,0,227,227,422,1,,,,
,,,,,,b0ef7ebae430f8a0ea52eb46,66a626ef09d4e21e1a8894ec,673740214580759f663eef51,2024-11-15_06h36.40.986,Tarea de género gramatical,2024.2.2,Win32,60.24096386,,,,,,,,,,,,,,,,,,,,,,,,683.6335,684.8645,a,1,0.5511,,[],[],[],[],[],[],[],0.5511,1,684.8653,685.3646,,,,,,295,FEM,AGR,150,grasa,la,a,685.3648,685.3649,0.786193936,-0.088133132,0,0,0,,0,228,228,294,1,,,,
,,,,,,b0ef7ebae430f8a0ea52eb46,66a626ef09d4e21e1a8894ec,673740214580759f663eef51,2024-11-15_06h36.40.986,Tarea de género gramatical,2024.2.2,Win32,60.24096386,,,,,,,,,,,,,,,,,,,,,,,,685.366,686.6272,l,1,0.5857,,[],[],[],[],[],[],[],0.5857,1,686.6273,687.1158,,,,,,94,MAS,AGR,150,cabo,el,l,687.1158,687.1159,0.786193936,-0.088133132,0,0,0,,0,229,229,93,1,,,,
,,,,,,b0ef7ebae430f8a0ea52eb46,66a626ef09d4e21e1a8894ec,673740214580759f663eef51,2024-11-15_06h36.40.986,Tarea de género gramatical,2024.2.2,Win32,60.24096386,,,,,,,,,,,,,,,,,,,,,,,,687.117,688.2166,l,1,0.4306,,[],[],[],[],[],[],[],0.4306,1,688.2167,688.7149,,,,,,101,MAS,CON,150,giro,,l,688.7149,688.7151,0.786193936,-0.088133132,0,0,0,,0,230,230,100,1,,,,
,,,,,,b0ef7ebae430f8a0ea52eb46,66a626ef09d4e21e1a8894ec,673740214580759f663eef51,2024-11-15_06h36.40.986,Tarea de género gramatical,2024.2.2,Win32,60.24096386,,,,,,,,,,,,,,,,,,,,,,,,688.7163,689.8008,a,1,0.4012,,[],[],[],[],[],[],[],0.4012,1,689.801,690.2994,,,,,,141,FEM,DIS,150,cera,el,a,690.3009,690.3017,0.786193936,-0.088133132,0,0,0,,0,231,231,140,1,,,,
,,,,,,b0ef7ebae430f8a0ea52eb46,66a626ef09d4e21e1a8894ec,673740214580759f663eef51,2024-11-15_06h36.40.986,Tarea de género gramatical,2024.2.2,Win32,60.24096386,,,,,,,,,,,,,,,,,,,,,,,,690.3026,691.4684,l,1,0.4842,,[],[],[],[],[],[],[],0.4842,1,691.4685,691.9637,,,,,,334,MAS,AGR,150,ataque,el,l,691.9638,691.9638,0.786193936,-0.088133132,0,0,0,,0,232,232,333,1,,,,
,,,,,,b0ef7ebae430f8a0ea52eb46,66a626ef09d4e21e1a8894ec,673740214580759f663eef51,2024-11-15_06h36.40.986,Tarea de género gramatical,2024.2.2,Win32,60.24096386,,,,,,,,,,,,,,,,,,,,,,,,691.9653,693.0811,l,1,0.4508,,[],[],[],[],[],[],[],0.4508,1,693.0813,693.5695,,,,,,305,MAS,CON,150,hombre,,l,693.5696,693.5698,0.786193936,-0.088133132,0,0,0,,0,233,233,304,1,,,,
,,,,,,b0ef7ebae430f8a0ea52eb46,66a626ef09d4e21e1a8894ec,673740214580759f663eef51,2024-11-15_06h36.40.986,Tarea de género gramatical,2024.2.2,Win32,60.24096386,,,,,,,,,,,,,,,,,,,,,,,,693.571,694.6537,a,0,0.4135,,[],[],[],[],[],[],[],0.4135,0,694.6546,695.1538,,,,,,402,MAS,DIS,150,ladrón,la,l,695.1539,695.154,0.786193936,-0.088133132,0,0,0,,0,234,234,401,1,,,,
,,,,,,b0ef7ebae430f8a0ea52eb46,66a626ef09d4e21e1a8894ec,673740214580759f663eef51,2024-11-15_06h36.40.986,Tarea de género gramatical,2024.2.2,Win32,60.24096386,,,,,,,,,,,,,,,,,,,,,,,,695.1552,696.3495,l,1,0.5238,,[],[],[],[],[],[],[],0.5238,1,696.3508,696.8499,,,,,,347,MAS,CON,150,cuello,,l,696.85,696.8502,0.786193936,-0.088133132,0,0,0,,0,235,235,346,1,,,,
,,,,,,b0ef7ebae430f8a0ea52eb46,66a626ef09d4e21e1a8894ec,673740214580759f663eef51,2024-11-15_06h36.40.986,Tarea de género gramatical,2024.2.2,Win32,60.24096386,,,,,,,,,,,,,,,,,,,,,,,,696.8517,698.089,a,1,0.5803,,[],[],[],[],[],[],[],0.5803,1,698.0891,698.5841,,,,,,219,FEM,DIS,150,costa,el,a,698.5858,698.5868,0.786193936,-0.088133132,0,0,0,,0,236,236,218,1,,,,
,,,,,,b0ef7ebae430f8a0ea52eb46,66a626ef09d4e21e1a8894ec,673740214580759f663eef51,2024-11-15_06h36.40.986,Tarea de género gramatical,2024.2.2,Win32,60.24096386,,,,,,,,,,,,,,,,,,,,,,,,698.5876,699.6565,l,0,0.397,,[],[],[],[],[],[],[],0.397,0,699.6573,700.1517,,,,,,86,FEM,CON,150,cruz,,a,700.1519,700.1519,0.786193936,-0.088133132,0,0,0,,0,237,237,85,1,,,,
,,,,,,b0ef7ebae430f8a0ea52eb46,66a626ef09d4e21e1a8894ec,673740214580759f663eef51,2024-11-15_06h36.40.986,Tarea de género gramatical,2024.2.2,Win32,60.24096386,,,,,,,,,,,,,,,,,,,,,,,,700.1535,701.3524,a,1,0.5218,,[],[],[],[],[],[],[],0.5218,1,701.3536,701.8575,,,,,,56,FEM,CON,150,bola,,a,701.8576,701.8577,0.786193936,-0.088133132,0,0,0,,0,238,238,55,1,,,,
,,,,,,b0ef7ebae430f8a0ea52eb46,66a626ef09d4e21e1a8894ec,673740214580759f663eef51,2024-11-15_06h36.40.986,Tarea de género gramatical,2024.2.2,Win32,60.24096386,,,,,,,,,,,,,,,,,,,,,,,,701.8588,702.8866,l,1,0.3382,,[],[],[],[],[],[],[],0.3382,1,702.8867,703.3917,,,,,,310,MAS,AGR,150,nombre,el,l,703.3918,703.3918,0.786193936,-0.088133132,0,0,0,,0,239,239,309,1,,,,
,,,,,,b0ef7ebae430f8a0ea52eb46,66a626ef09d4e21e1a8894ec,673740214580759f663eef51,2024-11-15_06h36.40.986,Tarea de género gramatical,2024.2.2,Win32,60.24096386,,,,,,,,,,,,,,,,,,,,,,,,703.3929,704.5094,a,1,0.4341,,[],[],[],[],[],[],[],0.4341,1,704.5095,705.0093,,,,,,74,FEM,CON,150,flor,,a,705.0109,705.0117,0.786193936,-0.088133132,0,0,0,,0,240,240,73,1,,,,
,,,,,,b0ef7ebae430f8a0ea52eb46,66a626ef09d4e21e1a8894ec,673740214580759f663eef51,2024-11-15_06h36.40.986,Tarea de género gramatical,2024.2.2,Win32,60.24096386,,,,,,,,,,,,,,,,,,,,,,,,705.0126,706.3052,l,1,0.6072,,[],[],[],[],[],[],[],0.6072,1,706.3054,706.8104,,,,,,179,MAS,CON,150,viaje,,l,706.8104,706.8106,0.786193936,-0.088133132,0,0,0,,0,241,241,178,1,,,,
,,,,,,b0ef7ebae430f8a0ea52eb46,66a626ef09d4e21e1a8894ec,673740214580759f663eef51,2024-11-15_06h36.40.986,Tarea de género gramatical,2024.2.2,Win32,60.24096386,,,,,,,,,,,,,,,,,,,,,,,,706.8116,708.0115,l,1,0.5307,,[],[],[],[],[],[],[],0.5307,1,708.0117,708.5064,,,,,,24,MAS,DIS,150,voto,la,l,708.5065,708.5066,0.786193936,-0.088133132,0,0,0,,0,242,242,23,1,,,,
,,,,,,b0ef7ebae430f8a0ea52eb46,66a626ef09d4e21e1a8894ec,673740214580759f663eef51,2024-11-15_06h36.40.986,Tarea de género gramatical,2024.2.2,Win32,60.24096386,,,,,,,,,,,,,,,,,,,,,,,,708.5082,709.6739,a,1,0.5014,,[],[],[],[],[],[],[],0.5014,1,709.674,710.1623,,,,,,207,FEM,DIS,150,playa,el,a,710.1624,710.1625,0.786193936,-0.088133132,0,0,0,,0,243,243,206,1,,,,
,,,,,,b0ef7ebae430f8a0ea52eb46,66a626ef09d4e21e1a8894ec,673740214580759f663eef51,2024-11-15_06h36.40.986,Tarea de género gramatical,2024.2.2,Win32,60.24096386,,,,,,,,,,,,,,,,,,,,,,,,710.1637,711.3914,l,1,0.5549,,[],[],[],[],[],[],[],0.5549,1,711.3915,711.8918,,,,,,420,MAS,DIS,150,helado,la,l,711.8919,711.892,0.786193936,-0.088133132,0,0,0,,0,244,244,419,1,,,,
,,,,,,b0ef7ebae430f8a0ea52eb46,66a626ef09d4e21e1a8894ec,673740214580759f663eef51,2024-11-15_06h36.40.986,Tarea de género gramatical,2024.2.2,Win32,60.24096386,,,,,,,,,,,,,,,,,,,,,,,,711.8935,713.5647,l,1,0.9846,,[],[],[],[],[],[],[],0.9846,1,713.5648,714.0598,,,,,,444,MAS,DIS,150,límite,la,l,714.0615,714.0624,0.786193936,-0.088133132,0,0,0,,0,245,245,443,1,,,,
,,,,,,b0ef7ebae430f8a0ea52eb46,66a626ef09d4e21e1a8894ec,673740214580759f663eef51,2024-11-15_06h36.40.986,Tarea de género gramatical,2024.2.2,Win32,60.24096386,,,,,,,,,,,,,,,,,,,,,,,,714.0633,715.1639,l,1,0.4161,,[],[],[],[],[],[],[],0.4161,1,715.164,715.664,,,,,,166,MAS,AGR,150,coche,el,l,715.6641,715.6641,0.786193936,-0.088133132,0,0,0,,0,246,246,165,1,,,,
,,,,,,b0ef7ebae430f8a0ea52eb46,66a626ef09d4e21e1a8894ec,673740214580759f663eef51,2024-11-15_06h36.40.986,Tarea de género gramatical,2024.2.2,Win32,60.24096386,,,,,,,,,,,,,,,,,,,,,,,,715.6652,716.7832,l,1,0.4468,,[],[],[],[],[],[],[],0.4468,1,716.7833,717.2831,,,,,,250,MAS,AGR,150,cerdo,el,l,717.2831,717.2833,0.786193936,-0.088133132,0,0,0,,0,247,247,249,1,,,,
,,,,,,b0ef7ebae430f8a0ea52eb46,66a626ef09d4e21e1a8894ec,673740214580759f663eef51,2024-11-15_06h36.40.986,Tarea de género gramatical,2024.2.2,Win32,60.24096386,,,,,,,,,,,,,,,,,,,,,,,,717.2844,718.3173,l,1,0.351,,[],[],[],[],[],[],[],0.351,1,718.3175,718.8173,,,,,,119,MAS,CON,150,mito,,l,718.8174,718.8175,0.786193936,-0.088133132,0,0,0,,0,248,248,118,1,,,,
,,,,,,b0ef7ebae430f8a0ea52eb46,66a626ef09d4e21e1a8894ec,673740214580759f663eef51,2024-11-15_06h36.40.986,Tarea de género gramatical,2024.2.2,Win32,60.24096386,,,,,,,,,,,,,,,,,,,,,,,,718.8187,719.9518,a,1,0.4511,,[],[],[],[],[],[],[],0.4511,1,719.9518,720.4516,,,,,,261,FEM,DIS,150,cueva,el,a,720.4531,720.4539,0.786193936,-0.088133132,0,0,0,,0,249,249,260,1,,,,
,,,,,,b0ef7ebae430f8a0ea52eb46,66a626ef09d4e21e1a8894ec,673740214580759f663eef51,2024-11-15_06h36.40.986,Tarea de género gramatical,2024.2.2,Win32,60.24096386,,,,,,,,,,,,,,,,,,,,,,,,720.4549,721.514,a,1,0.3912,,[],[],[],[],[],[],[],0.3912,1,721.5141,722.0142,,,,,,242,FEM,CON,150,pizza,,a,722.0143,722.0144,0.786193936,-0.088133132,0,0,0,,0,250,250,241,1,,,,
