counterbalancing_condition,consent_prescreening.block_1/declare_consent,consent_prescreening.block_1/age_years,consent_prescreening.block_1/gender,consent_prescreening.block_1/language_disorder,consent_prescreening.block_1/first_language,PROLIFIC_PID,STUDY_ID,SESSION_ID,date,expName,psychopyVersion,OS,frameRate,check_prescreening_answers.started,check_prescreening_answers.stopped,Instructions.started,Instructions.stopped,instr_done_keyboard.keys,instr_done_keyboard.rt,instr_done_keyboard.duration,instr_done_touch.x,instr_done_touch.y,instr_done_touch.leftButton,instr_done_touch.midButton,instr_done_touch.rightButton,instruction_pages.thisRepN,instruction_pages.thisTrialN,instruction_pages.thisN,instruction_pages.thisIndex,instruction_pages.ran,pageN,phase,instruct_text,has_image,instruct_image,presentTrial.started,presentTrial.stopped,response.keys,response.corr,touch_resp.x,touch_resp.y,touch_resp.leftButton,touch_resp.midButton,touch_resp.rightButton,touch_resp.time,touch_resp.clicked_name,rt,corr,feedback.started,feedback.stopped,practice_trials.thisRepN,practice_trials.thisTrialN,practice_trials.thisN,practice_trials.thisIndex,practice_trials.ran,TrialID,StimulusType,Condition,PrimeDuration,Prime,Flanker,corrAns,response.rt,response.duration,Break.started,Break.stopped,break_done_touch.x,break_done_touch.y,break_done_touch.leftButton,break_done_touch.midButton,break_done_touch.rightButton,break_done_keyboard.keys,experiment_trials.thisRepN,experiment_trials.thisTrialN,experiment_trials.thisN,experiment_trials.thisIndex,experiment_trials.ran,break_done_keyboard.rt,break_done_keyboard.duration,break_done_touch.clicked_name,End.started,End.stopped
2,"[""over_18"",""comfortable"",""read_info"",""consent_given""]",35,M,"[""none""]","[""spanish""]",b11f81498bad26ff678cda9c,66a626ef09d4e21e1a8894ec,673497b719751d47e62445da,2024-11-13_13h13.11.462,Tarea de género gramatical,2024.2.2,Win32,60.24096386,,,,,,,,,,,,,,,,,,,,,,,,,,,,,,,,,,,,,,,,,,,,,,,,,,,,,,,,,,,,,,,,,,,,,
,,,,,,b11f81498bad26ff678cda9c,66a626ef09d4e21e1a8894ec,673497b719751d47e62445da,2024-11-13_13h13.11.462,Tarea de género gramatical,2024.2.2,Win32,60.24096386,19.2908,19.2908,,,,,,,,,,,,,,,,,,,,,,,,,,,,,,,,,,,,,,,,,,,,,,,,,,,,,,,,,,,,,,,,,,,
,,,,,,b11f81498bad26ff678cda9c,66a626ef09d4e21e1a8894ec,673497b719751d47e62445da,2024-11-13_13h13.11.462,Tarea de género gramatical,2024.2.2,Win32,60.24096386,,,19.3053,32.3771,space,13.0377,,-0.023148148,0.255555556,0,0,0,0,0,0,0,1,1,instructions,"INSTRUCCIONES
Va a realizar una prueba de selección gramatical. Desde el comienzo de la prueba mire siempre al centro de la pantalla. Al cabo de un momento, aparecerán palabras. La tarea consiste en determinar si la palabra del centro (siempre será un sustantivo), pertenece al género masculino o femenino.

Pulse la tecla ESPACIO o toque el botón de abajo para continuar.",0,keyboardresponseFM.png,,,,,,,,,,,,,,,,,,,,,,,,,,,,,,,,,,,,,,,,,,,,,,,
,,,,,,b11f81498bad26ff678cda9c,66a626ef09d4e21e1a8894ec,673497b719751d47e62445da,2024-11-13_13h13.11.462,Tarea de género gramatical,2024.2.2,Win32,60.24096386,,,32.3906,48.3265,space,15.8836,,-0.023148148,0.255555556,0,0,0,0,1,1,1,1,2,instructions,"Si su dispositivo tiene teclado, pulse la tecla ""A"" para las palabras en femenino (por ejemplo: ""mano"") y la tecla ""L"" para las palabras en masculino(por ejemplo: ""arroz"").
Pulse la tecla ESPACIO o toque el botón de abajo para continuar.",1,keyboardresponseFM.png,,,,,,,,,,,,,,,,,,,,,,,,,,,,,,,,,,,,,,,,,,,,,,,
,,,,,,b11f81498bad26ff678cda9c,66a626ef09d4e21e1a8894ec,673497b719751d47e62445da,2024-11-13_13h13.11.462,Tarea de género gramatical,2024.2.2,Win32,60.24096386,,,48.3284,53.1926,space,4.8343,,-0.023148148,0.255555556,0,0,0,0,2,2,2,1,3,instructions,"Si utiliza un dispositivo sólo táctil, colóquelo en horizontal y utilice los botones de la pantalla. No utilice el ratón.
Pulse la tecla ESPACIO o toque el botón de abajo para continuar.",2,touchresponseFM.png,,,,,,,,,,,,,,,,,,,,,,,,,,,,,,,,,,,,,,,,,,,,,,,
,,,,,,b11f81498bad26ff678cda9c,66a626ef09d4e21e1a8894ec,673497b719751d47e62445da,2024-11-13_13h13.11.462,Tarea de género gramatical,2024.2.2,Win32,60.24096386,,,53.1944,72.6421,space,19.4263,,-0.023148148,0.255555556,0,0,0,0,3,3,3,1,4,instructions,"Es muy importante que responda con la mayor rapidez y precisión posibles, ya que cada cadena de letras sólo estará en pantalla durante un instante. Si no responde en ese tiempo, aparecerá el mensaje ""Muy lento"" y el experimento pasará a la siguiente palabra. Los primeros 15 intentos serán de práctica y habrá dos descansos durante la prueba.
Pulse la tecla ESPACIO o toque el botón de abajo para iniciar la parte de práctica.",0,keyboardresponseFM.png,,,,,,,,,,,,,,,,,,,,,,,,,,,,,,,,,,,,,,,,,,,,,,,
,,,,,,b11f81498bad26ff678cda9c,66a626ef09d4e21e1a8894ec,673497b719751d47e62445da,2024-11-13_13h13.11.462,Tarea de género gramatical,2024.2.2,Win32,60.24096386,,,,,,,,,,,,,,,,,,,,,,,72.6539,75.2924,,0,[],[],[],[],[],[],[],,-1,75.2927,75.7922,0,0,0,1,1,2002,FEM,CON,150,pala,,a,,,,,,,,,,,,,,,,,,,,
,,,,,,b11f81498bad26ff678cda9c,66a626ef09d4e21e1a8894ec,673497b719751d47e62445da,2024-11-13_13h13.11.462,Tarea de género gramatical,2024.2.2,Win32,60.24096386,,,,,,,,,,,,,,,,,,,,,,,75.7945,77.659,l,1,[],[],[],[],[],[],[],1.177,1,77.6758,78.159,0,1,1,13,1,2014,MAS,CON,150,siglo,,l,1.177,,,,,,,,,,,,,,,,,,,
,,,,,,b11f81498bad26ff678cda9c,66a626ef09d4e21e1a8894ec,673497b719751d47e62445da,2024-11-13_13h13.11.462,Tarea de género gramatical,2024.2.2,Win32,60.24096386,,,,,,,,,,,,,,,,,,,,,,,78.1607,79.8423,a,1,[],[],[],[],[],[],[],1.0006,1,79.8424,80.3422,0,2,2,4,1,2005,FEM,CON,150,placa,,a,1.0006,,,,,,,,,,,,,,,,,,,
,,,,,,b11f81498bad26ff678cda9c,66a626ef09d4e21e1a8894ec,673497b719751d47e62445da,2024-11-13_13h13.11.462,Tarea de género gramatical,2024.2.2,Win32,60.24096386,,,,,,,,,,,,,,,,,,,,,,,80.344,82.1751,l,0,[],[],[],[],[],[],[],1.1622,0,82.1764,82.675,0,3,3,2,1,2003,FEM,DIS,150,daga,el,a,1.1622,,,,,,,,,,,,,,,,,,,
,,,,,,b11f81498bad26ff678cda9c,66a626ef09d4e21e1a8894ec,673497b719751d47e62445da,2024-11-13_13h13.11.462,Tarea de género gramatical,2024.2.2,Win32,60.24096386,,,,,,,,,,,,,,,,,,,,,,,82.6764,84.8083,l,1,[],[],[],[],[],[],[],1.4618,1,84.8092,85.3084,0,4,4,10,1,2011,MAS,CON,150,canal,,l,1.4618,,,,,,,,,,,,,,,,,,,
,,,,,,b11f81498bad26ff678cda9c,66a626ef09d4e21e1a8894ec,673497b719751d47e62445da,2024-11-13_13h13.11.462,Tarea de género gramatical,2024.2.2,Win32,60.24096386,,,,,,,,,,,,,,,,,,,,,,,85.3096,86.809,a,1,[],[],[],[],[],[],[],0.8121,1,86.8093,87.309,0,5,5,7,1,2008,FEM,CON,150,siesta,,a,0.8121,,,,,,,,,,,,,,,,,,,
,,,,,,b11f81498bad26ff678cda9c,66a626ef09d4e21e1a8894ec,673497b719751d47e62445da,2024-11-13_13h13.11.462,Tarea de género gramatical,2024.2.2,Win32,60.24096386,,,,,,,,,,,,,,,,,,,,,,,87.3104,88.5256,l,1,[],[],[],[],[],[],[],0.531,1,88.5257,89.0252,0,6,6,9,1,2010,MAS,AGR,150,vecino,el,l,0.531,,,,,,,,,,,,,,,,,,,
,,,,,,b11f81498bad26ff678cda9c,66a626ef09d4e21e1a8894ec,673497b719751d47e62445da,2024-11-13_13h13.11.462,Tarea de género gramatical,2024.2.2,Win32,60.24096386,,,,,,,,,,,,,,,,,,,,,,,89.0266,90.7749,l,1,[],[],[],[],[],[],[],1.0796,1,90.775,91.2751,0,7,7,11,1,2012,MAS,DIS,150,clima,la,l,1.0796,,,,,,,,,,,,,,,,,,,
,,,,,,b11f81498bad26ff678cda9c,66a626ef09d4e21e1a8894ec,673497b719751d47e62445da,2024-11-13_13h13.11.462,Tarea de género gramatical,2024.2.2,Win32,60.24096386,,,,,,,,,,,,,,,,,,,,,,,91.2764,92.8916,a,1,[],[],[],[],[],[],[],0.9421,1,92.8917,93.3921,0,8,8,5,1,2006,FEM,DIS,150,serie,el,a,0.9421,,,,,,,,,,,,,,,,,,,
,,,,,,b11f81498bad26ff678cda9c,66a626ef09d4e21e1a8894ec,673497b719751d47e62445da,2024-11-13_13h13.11.462,Tarea de género gramatical,2024.2.2,Win32,60.24096386,,,,,,,,,,,,,,,,,,,,,,,93.3934,95.908,l,1,[],[],[],[],[],[],[],1.842,1,95.9081,96.4085,0,9,9,14,1,2015,MAS,DIS,150,robot,la,l,1.842,,,,,,,,,,,,,,,,,,,
,,,,,,b11f81498bad26ff678cda9c,66a626ef09d4e21e1a8894ec,673497b719751d47e62445da,2024-11-13_13h13.11.462,Tarea de género gramatical,2024.2.2,Win32,60.24096386,,,,,,,,,,,,,,,,,,,,,,,96.4098,97.9581,l,1,[],[],[],[],[],[],[],0.867,1,97.9583,98.458,0,10,10,8,1,2009,MAS,DIS,150,puerto,la,l,0.867,,,,,,,,,,,,,,,,,,,
,,,,,,b11f81498bad26ff678cda9c,66a626ef09d4e21e1a8894ec,673497b719751d47e62445da,2024-11-13_13h13.11.462,Tarea de género gramatical,2024.2.2,Win32,60.24096386,,,,,,,,,,,,,,,,,,,,,,,98.46,99.9422,a,1,[],[],[],[],[],[],[],0.8122,1,99.9425,100.4417,0,11,11,6,1,2007,FEM,AGR,150,navaja,la,a,0.8122,,,,,,,,,,,,,,,,,,,
,,,,,,b11f81498bad26ff678cda9c,66a626ef09d4e21e1a8894ec,673497b719751d47e62445da,2024-11-13_13h13.11.462,Tarea de género gramatical,2024.2.2,Win32,60.24096386,,,,,,,,,,,,,,,,,,,,,,,100.4428,101.8748,a,1,[],[],[],[],[],[],[],0.7513,1,101.875,102.3749,0,12,12,0,1,2001,FEM,AGR,150,nuca,la,a,0.7513,,,,,,,,,,,,,,,,,,,
,,,,,,b11f81498bad26ff678cda9c,66a626ef09d4e21e1a8894ec,673497b719751d47e62445da,2024-11-13_13h13.11.462,Tarea de género gramatical,2024.2.2,Win32,60.24096386,,,,,,,,,,,,,,,,,,,,,,,102.3758,103.9913,a,1,[],[],[],[],[],[],[],0.9377,1,103.9915,104.4914,0,13,13,3,1,2004,FEM,AGR,150,venta,la,a,0.9377,,,,,,,,,,,,,,,,,,,
,,,,,,b11f81498bad26ff678cda9c,66a626ef09d4e21e1a8894ec,673497b719751d47e62445da,2024-11-13_13h13.11.462,Tarea de género gramatical,2024.2.2,Win32,60.24096386,,,,,,,,,,,,,,,,,,,,,,,104.4927,105.9913,l,1,[],[],[],[],[],[],[],0.8204,1,105.9914,106.4913,0,14,14,12,1,2013,MAS,AGR,150,acero,el,l,0.8204,,,,,,,,,,,,,,,,,,,
,,,,,,b11f81498bad26ff678cda9c,66a626ef09d4e21e1a8894ec,673497b719751d47e62445da,2024-11-13_13h13.11.462,Tarea de género gramatical,2024.2.2,Win32,60.24096386,,,107.8601,111.2252,space,3.3506,,-0.023148148,0.255555556,0,0,0,,,,,,,,,,,111.2546,113.1745,a,1,[],[],[],[],[],[],[],1.2634,1,113.1746,113.6746,,,,,,949,FEM,DIS,150,piel,el,a,1.2634,,113.675,113.6783,-0.023148148,0.255555556,0,0,0,,0,0,0,48,1,,,,,
,,,,,,b11f81498bad26ff678cda9c,66a626ef09d4e21e1a8894ec,673497b719751d47e62445da,2024-11-13_13h13.11.462,Tarea de género gramatical,2024.2.2,Win32,60.24096386,,,,,,,,,,,,,,,,,,,,,,,113.6813,115.0247,l,1,[],[],[],[],[],[],[],0.677,1,115.0248,115.5252,,,,,,1332,MAS,CON,150,océano,,l,0.677,,115.5253,115.5255,-0.023148148,0.255555556,0,0,0,,0,1,1,431,1,,,,,
,,,,,,b11f81498bad26ff678cda9c,66a626ef09d4e21e1a8894ec,673497b719751d47e62445da,2024-11-13_13h13.11.462,Tarea de género gramatical,2024.2.2,Win32,60.24096386,,,,,,,,,,,,,,,,,,,,,,,115.5269,117.3078,l,0,[],[],[],[],[],[],[],1.1081,0,117.3087,117.808,,,,,,1069,FEM,DIS,150,vista,el,a,1.1081,,117.81,117.8105,-0.023148148,0.255555556,0,0,0,,0,2,2,168,1,,,,,
,,,,,,b11f81498bad26ff678cda9c,66a626ef09d4e21e1a8894ec,673497b719751d47e62445da,2024-11-13_13h13.11.462,Tarea de género gramatical,2024.2.2,Win32,60.24096386,,,,,,,,,,,,,,,,,,,,,,,117.8111,119.5078,a,1,[],[],[],[],[],[],[],1.0168,1,119.5087,120.0078,,,,,,1209,FEM,CON,150,esposa,,a,1.0168,,120.0079,120.0079,-0.023148148,0.255555556,0,0,0,,0,3,3,308,1,,,,,
,,,,,,b11f81498bad26ff678cda9c,66a626ef09d4e21e1a8894ec,673497b719751d47e62445da,2024-11-13_13h13.11.462,Tarea de género gramatical,2024.2.2,Win32,60.24096386,,,,,,,,,,,,,,,,,,,,,,,120.0092,121.6911,l,1,[],[],[],[],[],[],[],1.0001,1,121.6913,122.1914,,,,,,1030,MAS,DIS,150,yate,la,l,1.0001,,122.1915,122.1917,-0.023148148,0.255555556,0,0,0,,0,4,4,129,1,,,,,
,,,,,,b11f81498bad26ff678cda9c,66a626ef09d4e21e1a8894ec,673497b719751d47e62445da,2024-11-13_13h13.11.462,Tarea de género gramatical,2024.2.2,Win32,60.24096386,,,,,,,,,,,,,,,,,,,,,,,122.1927,123.8753,a,1,[],[],[],[],[],[],[],1.0007,1,123.8757,124.3745,,,,,,1021,FEM,DIS,150,pila,el,a,1.0007,,124.3745,124.3757,-0.023148148,0.255555556,0,0,0,,0,5,5,120,1,,,,,
,,,,,,b11f81498bad26ff678cda9c,66a626ef09d4e21e1a8894ec,673497b719751d47e62445da,2024-11-13_13h13.11.462,Tarea de género gramatical,2024.2.2,Win32,60.24096386,,,,,,,,,,,,,,,,,,,,,,,124.3763,125.7079,a,1,[],[],[],[],[],[],[],0.6507,1,125.7081,126.208,,,,,,1275,FEM,CON,150,cadena,,a,0.6507,,126.2092,126.2097,-0.023148148,0.255555556,0,0,0,,0,6,6,374,1,,,,,
,,,,,,b11f81498bad26ff678cda9c,66a626ef09d4e21e1a8894ec,673497b719751d47e62445da,2024-11-13_13h13.11.462,Tarea de género gramatical,2024.2.2,Win32,60.24096386,,,,,,,,,,,,,,,,,,,,,,,126.2103,127.7909,a,1,[],[],[],[],[],[],[],0.9132,1,127.791,128.2915,,,,,,961,FEM,DIS,150,ruta,el,a,0.9132,,128.2916,128.2917,-0.023148148,0.255555556,0,0,0,,0,7,7,60,1,,,,,
,,,,,,b11f81498bad26ff678cda9c,66a626ef09d4e21e1a8894ec,673497b719751d47e62445da,2024-11-13_13h13.11.462,Tarea de género gramatical,2024.2.2,Win32,60.24096386,,,,,,,,,,,,,,,,,,,,,,,128.2927,129.6911,l,1,[],[],[],[],[],[],[],0.7259,1,129.6913,130.1913,,,,,,1253,MAS,AGR,150,verano,el,l,0.7259,,130.1915,130.1916,-0.023148148,0.255555556,0,0,0,,0,8,8,352,1,,,,,
,,,,,,b11f81498bad26ff678cda9c,66a626ef09d4e21e1a8894ec,673497b719751d47e62445da,2024-11-13_13h13.11.462,Tarea de género gramatical,2024.2.2,Win32,60.24096386,,,,,,,,,,,,,,,,,,,,,,,130.193,131.9741,l,1,[],[],[],[],[],[],[],1.1133,1,131.9744,132.4744,,,,,,1138,MAS,DIS,150,norte,la,l,1.1133,,132.4745,132.4746,-0.023148148,0.255555556,0,0,0,,0,9,9,237,1,,,,,
,,,,,,b11f81498bad26ff678cda9c,66a626ef09d4e21e1a8894ec,673497b719751d47e62445da,2024-11-13_13h13.11.462,Tarea de género gramatical,2024.2.2,Win32,60.24096386,,,,,,,,,,,,,,,,,,,,,,,132.4758,133.6748,l,0,[],[],[],[],[],[],[],0.5247,0,133.6756,134.1744,,,,,,1226,FEM,AGR,150,música,la,a,0.5247,,134.1745,134.1746,-0.023148148,0.255555556,0,0,0,,0,10,10,325,1,,,,,
,,,,,,b11f81498bad26ff678cda9c,66a626ef09d4e21e1a8894ec,673497b719751d47e62445da,2024-11-13_13h13.11.462,Tarea de género gramatical,2024.2.2,Win32,60.24096386,,,,,,,,,,,,,,,,,,,,,,,134.1757,135.9412,a,1,[],[],[],[],[],[],[],1.09,1,135.9425,136.4413,,,,,,1047,FEM,CON,150,grúa,,a,1.09,,136.4428,136.4436,-0.023148148,0.255555556,0,0,0,,0,11,11,146,1,,,,,
,,,,,,b11f81498bad26ff678cda9c,66a626ef09d4e21e1a8894ec,673497b719751d47e62445da,2024-11-13_13h13.11.462,Tarea de género gramatical,2024.2.2,Win32,60.24096386,,,,,,,,,,,,,,,,,,,,,,,136.4442,138.0741,l,1,[],[],[],[],[],[],[],0.9515,1,138.0742,138.5742,,,,,,1216,MAS,DIS,150,cuerpo,la,l,0.9515,,138.5743,138.5744,-0.023148148,0.255555556,0,0,0,,0,12,12,315,1,,,,,
,,,,,,b11f81498bad26ff678cda9c,66a626ef09d4e21e1a8894ec,673497b719751d47e62445da,2024-11-13_13h13.11.462,Tarea de género gramatical,2024.2.2,Win32,60.24096386,,,,,,,,,,,,,,,,,,,,,,,138.5755,139.9906,a,1,[],[],[],[],[],[],[],0.746,1,139.9907,140.4909,,,,,,1064,FEM,AGR,150,novia,la,a,0.746,,140.491,140.4911,-0.023148148,0.255555556,0,0,0,,0,13,13,163,1,,,,,
,,,,,,b11f81498bad26ff678cda9c,66a626ef09d4e21e1a8894ec,673497b719751d47e62445da,2024-11-13_13h13.11.462,Tarea de género gramatical,2024.2.2,Win32,60.24096386,,,,,,,,,,,,,,,,,,,,,,,140.4923,141.891,l,0,[],[],[],[],[],[],[],0.7168,0,141.8921,142.3908,,,,,,1117,FEM,DIS,150,tarea,el,a,0.7168,,142.3909,142.391,-0.023148148,0.255555556,0,0,0,,0,14,14,216,1,,,,,
,,,,,,b11f81498bad26ff678cda9c,66a626ef09d4e21e1a8894ec,673497b719751d47e62445da,2024-11-13_13h13.11.462,Tarea de género gramatical,2024.2.2,Win32,60.24096386,,,,,,,,,,,,,,,,,,,,,,,142.3919,143.8246,l,0,[],[],[],[],[],[],[],0.7596,0,143.8247,144.3244,,,,,,1250,FEM,AGR,150,imagen,la,a,0.7596,,144.3258,144.3266,-0.023148148,0.255555556,0,0,0,,0,15,15,349,1,,,,,
,,,,,,b11f81498bad26ff678cda9c,66a626ef09d4e21e1a8894ec,673497b719751d47e62445da,2024-11-13_13h13.11.462,Tarea de género gramatical,2024.2.2,Win32,60.24096386,,,,,,,,,,,,,,,,,,,,,,,144.3274,146.3407,l,1,[],[],[],[],[],[],[],1.34,1,146.3417,146.8407,,,,,,1062,MAS,CON,150,miedo,,l,1.34,,146.8408,146.841,-0.023148148,0.255555556,0,0,0,,0,16,16,161,1,,,,,
,,,,,,b11f81498bad26ff678cda9c,66a626ef09d4e21e1a8894ec,673497b719751d47e62445da,2024-11-13_13h13.11.462,Tarea de género gramatical,2024.2.2,Win32,60.24096386,,,,,,,,,,,,,,,,,,,,,,,146.8421,149.4573,l,1,[],[],[],[],[],[],[],1.9591,1,149.4573,149.9573,,,,,,928,MAS,DIS,150,club,la,l,1.9591,,149.9574,149.9575,-0.023148148,0.255555556,0,0,0,,0,17,17,27,1,,,,,
,,,,,,b11f81498bad26ff678cda9c,66a626ef09d4e21e1a8894ec,673497b719751d47e62445da,2024-11-13_13h13.11.462,Tarea de género gramatical,2024.2.2,Win32,60.24096386,,,,,,,,,,,,,,,,,,,,,,,149.9586,151.491,l,1,[],[],[],[],[],[],[],0.8507,1,151.4911,151.9911,,,,,,1230,MAS,CON,150,estado,,l,0.8507,,151.9912,151.9913,-0.023148148,0.255555556,0,0,0,,0,18,18,329,1,,,,,
,,,,,,b11f81498bad26ff678cda9c,66a626ef09d4e21e1a8894ec,673497b719751d47e62445da,2024-11-13_13h13.11.462,Tarea de género gramatical,2024.2.2,Win32,60.24096386,,,,,,,,,,,,,,,,,,,,,,,151.9928,153.4237,a,1,[],[],[],[],[],[],[],0.7621,1,153.4237,153.9241,,,,,,1311,FEM,CON,150,actriz,,a,0.7621,,153.9242,153.9242,-0.023148148,0.255555556,0,0,0,,0,19,19,410,1,,,,,
,,,,,,b11f81498bad26ff678cda9c,66a626ef09d4e21e1a8894ec,673497b719751d47e62445da,2024-11-13_13h13.11.462,Tarea de género gramatical,2024.2.2,Win32,60.24096386,,,,,,,,,,,,,,,,,,,,,,,153.9254,155.5408,l,1,[],[],[],[],[],[],[],0.9332,1,155.541,156.0405,,,,,,1259,MAS,AGR,150,bosque,el,l,0.9332,,156.0419,156.0425,-0.023148148,0.255555556,0,0,0,,0,20,20,358,1,,,,,
,,,,,,b11f81498bad26ff678cda9c,66a626ef09d4e21e1a8894ec,673497b719751d47e62445da,2024-11-13_13h13.11.462,Tarea de género gramatical,2024.2.2,Win32,60.24096386,,,,,,,,,,,,,,,,,,,,,,,156.043,157.2909,l,1,[],[],[],[],[],[],[],0.5756,1,157.291,157.7911,,,,,,1175,MAS,AGR,150,disco,el,l,0.5756,,157.7911,157.7912,-0.023148148,0.255555556,0,0,0,,0,21,21,274,1,,,,,
,,,,,,b11f81498bad26ff678cda9c,66a626ef09d4e21e1a8894ec,673497b719751d47e62445da,2024-11-13_13h13.11.462,Tarea de género gramatical,2024.2.2,Win32,60.24096386,,,,,,,,,,,,,,,,,,,,,,,157.7923,159.0572,l,1,[],[],[],[],[],[],[],0.5848,1,159.0573,159.5573,,,,,,1019,MAS,AGR,150,mito,el,l,0.5848,,159.5573,159.5575,-0.023148148,0.255555556,0,0,0,,0,22,22,118,1,,,,,
,,,,,,b11f81498bad26ff678cda9c,66a626ef09d4e21e1a8894ec,673497b719751d47e62445da,2024-11-13_13h13.11.462,Tarea de género gramatical,2024.2.2,Win32,60.24096386,,,,,,,,,,,,,,,,,,,,,,,159.5586,160.9571,l,1,[],[],[],[],[],[],[],0.7189,1,160.9572,161.4569,,,,,,1266,MAS,CON,150,riesgo,,l,0.7189,,161.457,161.457,-0.023148148,0.255555556,0,0,0,,0,23,23,365,1,,,,,
,,,,,,b11f81498bad26ff678cda9c,66a626ef09d4e21e1a8894ec,673497b719751d47e62445da,2024-11-13_13h13.11.462,Tarea de género gramatical,2024.2.2,Win32,60.24096386,,,,,,,,,,,,,,,,,,,,,,,161.4578,162.8235,a,1,[],[],[],[],[],[],[],0.6869,1,162.8236,163.3236,,,,,,1143,FEM,CON,150,salsa,,a,0.6869,,163.3247,163.3252,-0.023148148,0.255555556,0,0,0,,0,24,24,242,1,,,,,
,,,,,,b11f81498bad26ff678cda9c,66a626ef09d4e21e1a8894ec,673497b719751d47e62445da,2024-11-13_13h13.11.462,Tarea de género gramatical,2024.2.2,Win32,60.24096386,,,,,,,,,,,,,,,,,,,,,,,163.3258,164.6071,a,1,[],[],[],[],[],[],[],0.6042,1,164.6072,165.1069,,,,,,1052,FEM,AGR,150,gente,la,a,0.6042,,165.107,165.107,-0.023148148,0.255555556,0,0,0,,0,25,25,151,1,,,,,
,,,,,,b11f81498bad26ff678cda9c,66a626ef09d4e21e1a8894ec,673497b719751d47e62445da,2024-11-13_13h13.11.462,Tarea de género gramatical,2024.2.2,Win32,60.24096386,,,,,,,,,,,,,,,,,,,,,,,165.1081,166.8235,a,1,[],[],[],[],[],[],[],1.0447,1,166.8236,167.3235,,,,,,1153,FEM,DIS,150,aldea,el,a,1.0447,,167.3236,167.3237,-0.023148148,0.255555556,0,0,0,,0,26,26,252,1,,,,,
,,,,,,b11f81498bad26ff678cda9c,66a626ef09d4e21e1a8894ec,673497b719751d47e62445da,2024-11-13_13h13.11.462,Tarea de género gramatical,2024.2.2,Win32,60.24096386,,,,,,,,,,,,,,,,,,,,,,,167.3246,168.9901,l,1,[],[],[],[],[],[],[],0.9964,1,168.9903,169.4901,,,,,,1133,MAS,AGR,150,golpe,el,l,0.9964,,169.4902,169.4902,-0.023148148,0.255555556,0,0,0,,0,27,27,232,1,,,,,
,,,,,,b11f81498bad26ff678cda9c,66a626ef09d4e21e1a8894ec,673497b719751d47e62445da,2024-11-13_13h13.11.462,Tarea de género gramatical,2024.2.2,Win32,60.24096386,,,,,,,,,,,,,,,,,,,,,,,169.4912,171.5404,a,1,[],[],[],[],[],[],[],1.3673,1,171.5406,172.04,,,,,,1208,FEM,AGR,150,semana,la,a,1.3673,,172.04,172.0401,-0.023148148,0.255555556,0,0,0,,0,28,28,307,1,,,,,
,,,,,,b11f81498bad26ff678cda9c,66a626ef09d4e21e1a8894ec,673497b719751d47e62445da,2024-11-13_13h13.11.462,Tarea de género gramatical,2024.2.2,Win32,60.24096386,,,,,,,,,,,,,,,,,,,,,,,172.0408,173.3737,a,1,[],[],[],[],[],[],[],0.6725,1,173.3738,173.8733,,,,,,1239,FEM,CON,150,salida,,a,0.6725,,173.8745,173.8751,-0.023148148,0.255555556,0,0,0,,0,29,29,338,1,,,,,
,,,,,,b11f81498bad26ff678cda9c,66a626ef09d4e21e1a8894ec,673497b719751d47e62445da,2024-11-13_13h13.11.462,Tarea de género gramatical,2024.2.2,Win32,60.24096386,,,,,,,,,,,,,,,,,,,,,,,173.8756,175.2578,l,1,[],[],[],[],[],[],[],0.7108,1,175.258,175.7567,,,,,,996,MAS,CON,150,pato,,l,0.7108,,175.7567,175.7569,-0.023148148,0.255555556,0,0,0,,0,30,30,95,1,,,,,
,,,,,,b11f81498bad26ff678cda9c,66a626ef09d4e21e1a8894ec,673497b719751d47e62445da,2024-11-13_13h13.11.462,Tarea de género gramatical,2024.2.2,Win32,60.24096386,,,,,,,,,,,,,,,,,,,,,,,175.7577,177.3734,a,1,[],[],[],[],[],[],[],0.9472,1,177.3735,177.8732,,,,,,944,FEM,AGR,150,zona,la,a,0.9472,,177.8733,177.8734,-0.023148148,0.255555556,0,0,0,,0,31,31,43,1,,,,,
,,,,,,b11f81498bad26ff678cda9c,66a626ef09d4e21e1a8894ec,673497b719751d47e62445da,2024-11-13_13h13.11.462,Tarea de género gramatical,2024.2.2,Win32,60.24096386,,,,,,,,,,,,,,,,,,,,,,,177.8746,179.19,l,1,[],[],[],[],[],[],[],0.6472,1,179.19,179.6903,,,,,,1067,MAS,AGR,150,juego,el,l,0.6472,,179.6903,179.6904,-0.023148148,0.255555556,0,0,0,,0,32,32,166,1,,,,,
,,,,,,b11f81498bad26ff678cda9c,66a626ef09d4e21e1a8894ec,673497b719751d47e62445da,2024-11-13_13h13.11.462,Tarea de género gramatical,2024.2.2,Win32,60.24096386,,,,,,,,,,,,,,,,,,,,,,,179.6915,180.9899,a,1,[],[],[],[],[],[],[],0.6286,1,180.9899,181.4899,,,,,,914,FEM,AGR,150,cara,la,a,0.6286,,181.491,181.4916,-0.023148148,0.255555556,0,0,0,,0,33,33,13,1,,,,,
,,,,,,b11f81498bad26ff678cda9c,66a626ef09d4e21e1a8894ec,673497b719751d47e62445da,2024-11-13_13h13.11.462,Tarea de género gramatical,2024.2.2,Win32,60.24096386,,,,,,,,,,,,,,,,,,,,,,,181.4921,183.107,a,1,[],[],[],[],[],[],[],0.9419,1,183.1072,183.607,,,,,,979,FEM,DIS,150,mina,el,a,0.9419,,183.6071,183.6072,-0.023148148,0.255555556,0,0,0,,0,34,34,78,1,,,,,
,,,,,,b11f81498bad26ff678cda9c,66a626ef09d4e21e1a8894ec,673497b719751d47e62445da,2024-11-13_13h13.11.462,Tarea de género gramatical,2024.2.2,Win32,60.24096386,,,,,,,,,,,,,,,,,,,,,,,183.6084,185.3732,l,1,[],[],[],[],[],[],[],1.0843,1,185.3734,185.8732,,,,,,1235,MAS,AGR,150,montón,el,l,1.0843,,185.8732,185.8732,-0.023148148,0.255555556,0,0,0,,0,35,35,334,1,,,,,
,,,,,,b11f81498bad26ff678cda9c,66a626ef09d4e21e1a8894ec,673497b719751d47e62445da,2024-11-13_13h13.11.462,Tarea de género gramatical,2024.2.2,Win32,60.24096386,,,,,,,,,,,,,,,,,,,,,,,185.8741,188.1566,a,1,[],[],[],[],[],[],[],1.607,1,188.1566,188.6565,,,,,,1034,FEM,AGR,150,rama,la,a,1.607,,188.6565,188.6567,-0.023148148,0.255555556,0,0,0,,0,36,36,133,1,,,,,
,,,,,,b11f81498bad26ff678cda9c,66a626ef09d4e21e1a8894ec,673497b719751d47e62445da,2024-11-13_13h13.11.462,Tarea de género gramatical,2024.2.2,Win32,60.24096386,,,,,,,,,,,,,,,,,,,,,,,188.6575,190.007,a,1,[],[],[],[],[],[],[],0.6715,1,190.0071,190.5066,,,,,,1297,FEM,DIS,150,cuerda,el,a,0.6715,,190.5067,190.5067,-0.023148148,0.255555556,0,0,0,,0,37,37,396,1,,,,,
,,,,,,b11f81498bad26ff678cda9c,66a626ef09d4e21e1a8894ec,673497b719751d47e62445da,2024-11-13_13h13.11.462,Tarea de género gramatical,2024.2.2,Win32,60.24096386,,,,,,,,,,,,,,,,,,,,,,,190.5078,191.9735,l,1,[],[],[],[],[],[],[],0.7887,1,191.9738,192.4731,,,,,,1265,MAS,AGR,150,código,el,l,0.7887,,192.4747,192.4756,-0.023148148,0.255555556,0,0,0,,0,38,38,364,1,,,,,
,,,,,,b11f81498bad26ff678cda9c,66a626ef09d4e21e1a8894ec,673497b719751d47e62445da,2024-11-13_13h13.11.462,Tarea de género gramatical,2024.2.2,Win32,60.24096386,,,,,,,,,,,,,,,,,,,,,,,192.4761,194.0397,l,1,[],[],[],[],[],[],[],0.8961,1,194.0398,194.5401,,,,,,1228,MAS,DIS,150,asunto,la,l,0.8961,,194.5402,194.5403,-0.023148148,0.255555556,0,0,0,,0,39,39,327,1,,,,,
,,,,,,b11f81498bad26ff678cda9c,66a626ef09d4e21e1a8894ec,673497b719751d47e62445da,2024-11-13_13h13.11.462,Tarea de género gramatical,2024.2.2,Win32,60.24096386,,,,,,,,,,,,,,,,,,,,,,,194.5411,195.7729,l,1,[],[],[],[],[],[],[],0.5559,1,195.7731,196.2731,,,,,,930,MAS,CON,150,cine,,l,0.5559,,196.2731,196.2732,-0.023148148,0.255555556,0,0,0,,0,40,40,29,1,,,,,
,,,,,,b11f81498bad26ff678cda9c,66a626ef09d4e21e1a8894ec,673497b719751d47e62445da,2024-11-13_13h13.11.462,Tarea de género gramatical,2024.2.2,Win32,60.24096386,,,,,,,,,,,,,,,,,,,,,,,196.2743,197.5903,l,1,[],[],[],[],[],[],[],0.6391,1,197.5904,198.0903,,,,,,1000,MAS,DIS,150,nido,la,l,0.6391,,198.0903,198.0904,-0.023148148,0.255555556,0,0,0,,0,41,41,99,1,,,,,
,,,,,,b11f81498bad26ff678cda9c,66a626ef09d4e21e1a8894ec,673497b719751d47e62445da,2024-11-13_13h13.11.462,Tarea de género gramatical,2024.2.2,Win32,60.24096386,,,,,,,,,,,,,,,,,,,,,,,198.0914,199.5063,a,1,[],[],[],[],[],[],[],0.7349,1,199.5064,200.0062,,,,,,1315,FEM,DIS,150,cabina,el,a,0.7349,,200.0072,200.008,-0.023148148,0.255555556,0,0,0,,0,42,42,414,1,,,,,
,,,,,,b11f81498bad26ff678cda9c,66a626ef09d4e21e1a8894ec,673497b719751d47e62445da,2024-11-13_13h13.11.462,Tarea de género gramatical,2024.2.2,Win32,60.24096386,,,,,,,,,,,,,,,,,,,,,,,200.0088,201.1562,l,1,[],[],[],[],[],[],[],0.4734,1,201.1563,201.6564,,,,,,1349,MAS,AGR,150,payaso,el,l,0.4734,,201.6565,201.6566,-0.023148148,0.255555556,0,0,0,,0,43,43,448,1,,,,,
,,,,,,b11f81498bad26ff678cda9c,66a626ef09d4e21e1a8894ec,673497b719751d47e62445da,2024-11-13_13h13.11.462,Tarea de género gramatical,2024.2.2,Win32,60.24096386,,,,,,,,,,,,,,,,,,,,,,,201.6576,203.1399,a,1,[],[],[],[],[],[],[],0.8001,1,203.1401,203.6399,,,,,,1219,FEM,DIS,150,sangre,el,a,0.8001,,203.64,203.6401,-0.023148148,0.255555556,0,0,0,,0,44,44,318,1,,,,,
,,,,,,b11f81498bad26ff678cda9c,66a626ef09d4e21e1a8894ec,673497b719751d47e62445da,2024-11-13_13h13.11.462,Tarea de género gramatical,2024.2.2,Win32,60.24096386,,,,,,,,,,,,,,,,,,,,,,,203.6413,204.8567,l,0,[],[],[],[],[],[],[],0.5451,0,204.8577,205.3562,,,,,,1131,FEM,CON,150,bruja,,a,0.5451,,205.3562,205.3563,-0.023148148,0.255555556,0,0,0,,0,45,45,230,1,,,,,
,,,,,,b11f81498bad26ff678cda9c,66a626ef09d4e21e1a8894ec,673497b719751d47e62445da,2024-11-13_13h13.11.462,Tarea de género gramatical,2024.2.2,Win32,60.24096386,,,,,,,,,,,,,,,,,,,,,,,205.3576,207.0735,l,1,[],[],[],[],[],[],[],1.0441,1,207.0745,207.5732,,,,,,947,MAS,AGR,150,olor,el,l,1.0441,,207.5733,207.5734,-0.023148148,0.255555556,0,0,0,,0,46,46,46,1,,,,,
,,,,,,b11f81498bad26ff678cda9c,66a626ef09d4e21e1a8894ec,673497b719751d47e62445da,2024-11-13_13h13.11.462,Tarea de género gramatical,2024.2.2,Win32,60.24096386,,,,,,,,,,,,,,,,,,,,,,,207.5744,208.9563,l,1,[],[],[],[],[],[],[],0.7082,1,208.9564,209.456,,,,,,1042,MAS,DIS,150,lodo,la,l,0.7082,,209.4572,209.458,-0.023148148,0.255555556,0,0,0,,0,47,47,141,1,,,,,
,,,,,,b11f81498bad26ff678cda9c,66a626ef09d4e21e1a8894ec,673497b719751d47e62445da,2024-11-13_13h13.11.462,Tarea de género gramatical,2024.2.2,Win32,60.24096386,,,,,,,,,,,,,,,,,,,,,,,209.4588,210.7563,a,1,[],[],[],[],[],[],[],0.6234,1,210.7564,211.2564,,,,,,1053,FEM,CON,150,mujer,,a,0.6234,,211.2564,211.2565,-0.023148148,0.255555556,0,0,0,,0,48,48,152,1,,,,,
,,,,,,b11f81498bad26ff678cda9c,66a626ef09d4e21e1a8894ec,673497b719751d47e62445da,2024-11-13_13h13.11.462,Tarea de género gramatical,2024.2.2,Win32,60.24096386,,,,,,,,,,,,,,,,,,,,,,,211.2575,213.4565,a,1,[],[],[],[],[],[],[],1.5287,1,213.4566,213.9566,,,,,,1310,FEM,AGR,150,piedad,la,a,1.5287,,213.9566,213.9567,-0.023148148,0.255555556,0,0,0,,0,49,49,409,1,,,,,
,,,,,,b11f81498bad26ff678cda9c,66a626ef09d4e21e1a8894ec,673497b719751d47e62445da,2024-11-13_13h13.11.462,Tarea de género gramatical,2024.2.2,Win32,60.24096386,,,,,,,,,,,,,,,,,,,,,,,213.9578,215.3734,l,1,[],[],[],[],[],[],[],0.7405,1,215.3735,215.8729,,,,,,1223,MAS,AGR,150,marido,el,l,0.7405,,215.8729,215.873,-0.023148148,0.255555556,0,0,0,,0,50,50,322,1,,,,,
,,,,,,b11f81498bad26ff678cda9c,66a626ef09d4e21e1a8894ec,673497b719751d47e62445da,2024-11-13_13h13.11.462,Tarea de género gramatical,2024.2.2,Win32,60.24096386,,,,,,,,,,,,,,,,,,,,,,,215.874,217.3065,a,1,[],[],[],[],[],[],[],0.7661,1,217.3067,217.8063,,,,,,1089,FEM,CON,150,pista,,a,0.7661,,217.8079,217.8084,-0.023148148,0.255555556,0,0,0,,0,51,51,188,1,,,,,
,,,,,,b11f81498bad26ff678cda9c,66a626ef09d4e21e1a8894ec,673497b719751d47e62445da,2024-11-13_13h13.11.462,Tarea de género gramatical,2024.2.2,Win32,60.24096386,,,,,,,,,,,,,,,,,,,,,,,217.8089,219.1227,l,1,[],[],[],[],[],[],[],0.6423,1,219.1227,219.6226,,,,,,1026,MAS,CON,150,lazo,,l,0.6423,,219.6226,219.6227,-0.023148148,0.255555556,0,0,0,,0,52,52,125,1,,,,,
,,,,,,b11f81498bad26ff678cda9c,66a626ef09d4e21e1a8894ec,673497b719751d47e62445da,2024-11-13_13h13.11.462,Tarea de género gramatical,2024.2.2,Win32,60.24096386,,,,,,,,,,,,,,,,,,,,,,,219.6238,221.1231,a,0,[],[],[],[],[],[],[],0.8257,0,221.124,221.6232,,,,,,910,MAS,DIS,150,niño,la,l,0.8257,,221.6232,221.6233,-0.023148148,0.255555556,0,0,0,,0,53,53,9,1,,,,,
,,,,,,b11f81498bad26ff678cda9c,66a626ef09d4e21e1a8894ec,673497b719751d47e62445da,2024-11-13_13h13.11.462,Tarea de género gramatical,2024.2.2,Win32,60.24096386,,,,,,,,,,,,,,,,,,,,,,,221.6246,223.4391,l,1,[],[],[],[],[],[],[],1.1458,1,223.4398,223.9396,,,,,,1168,MAS,DIS,150,truco,la,l,1.1458,,223.9396,223.9397,-0.023148148,0.255555556,0,0,0,,0,54,54,267,1,,,,,
,,,,,,b11f81498bad26ff678cda9c,66a626ef09d4e21e1a8894ec,673497b719751d47e62445da,2024-11-13_13h13.11.462,Tarea de género gramatical,2024.2.2,Win32,60.24096386,,,,,,,,,,,,,,,,,,,,,,,223.9408,225.8568,a,1,[],[],[],[],[],[],[],1.2376,1,225.857,226.3561,,,,,,950,FEM,AGR,150,dama,la,a,1.2376,,226.3562,226.3563,-0.023148148,0.255555556,0,0,0,,0,55,55,49,1,,,,,
,,,,,,b11f81498bad26ff678cda9c,66a626ef09d4e21e1a8894ec,673497b719751d47e62445da,2024-11-13_13h13.11.462,Tarea de género gramatical,2024.2.2,Win32,60.24096386,,,,,,,,,,,,,,,,,,,,,,,226.3575,227.7062,a,1,[],[],[],[],[],[],[],0.6769,1,227.7062,228.2058,,,,,,987,FEM,CON,150,risa,,a,0.6769,,228.2069,228.2074,-0.023148148,0.255555556,0,0,0,,0,56,56,86,1,,,,,
,,,,,,b11f81498bad26ff678cda9c,66a626ef09d4e21e1a8894ec,673497b719751d47e62445da,2024-11-13_13h13.11.462,Tarea de género gramatical,2024.2.2,Win32,60.24096386,,,,,,,,,,,,,,,,,,,,,,,228.2081,229.4229,a,1,[],[],[],[],[],[],[],0.5385,1,229.4229,229.9228,,,,,,1004,FEM,AGR,150,vela,la,a,0.5385,,229.923,229.9231,-0.023148148,0.255555556,0,0,0,,0,57,57,103,1,,,,,
,,,,,,b11f81498bad26ff678cda9c,66a626ef09d4e21e1a8894ec,673497b719751d47e62445da,2024-11-13_13h13.11.462,Tarea de género gramatical,2024.2.2,Win32,60.24096386,,,,,,,,,,,,,,,,,,,,,,,229.9243,231.1893,l,1,[],[],[],[],[],[],[],0.5981,1,231.1893,231.689,,,,,,1308,MAS,CON,150,cheque,,l,0.5981,,231.6892,231.6893,-0.023148148,0.255555556,0,0,0,,0,58,58,407,1,,,,,
,,,,,,b11f81498bad26ff678cda9c,66a626ef09d4e21e1a8894ec,673497b719751d47e62445da,2024-11-13_13h13.11.462,Tarea de género gramatical,2024.2.2,Win32,60.24096386,,,,,,,,,,,,,,,,,,,,,,,231.69,233.0558,a,0,[],[],[],[],[],[],[],0.6953,0,233.0567,233.556,,,,,,1090,MAS,DIS,150,campo,la,l,0.6953,,233.5562,233.5563,-0.023148148,0.255555556,0,0,0,,0,59,59,189,1,,,,,
,,,,,,b11f81498bad26ff678cda9c,66a626ef09d4e21e1a8894ec,673497b719751d47e62445da,2024-11-13_13h13.11.462,Tarea de género gramatical,2024.2.2,Win32,60.24096386,,,,,,,,,,,,,,,,,,,,,,,233.5573,236.206,,0,[],[],[],[],[],[],[],0.6953,-1,236.207,236.7061,,,,,,1343,MAS,AGR,150,templo,el,l,,,236.7074,236.708,-0.023148148,0.255555556,0,0,0,,0,60,60,442,1,,,,,
,,,,,,b11f81498bad26ff678cda9c,66a626ef09d4e21e1a8894ec,673497b719751d47e62445da,2024-11-13_13h13.11.462,Tarea de género gramatical,2024.2.2,Win32,60.24096386,,,,,,,,,,,,,,,,,,,,,,,236.7085,238.4056,a,1,[],[],[],[],[],[],[],1.0174,1,238.4065,238.9062,,,,,,1213,FEM,DIS,150,ciudad,el,a,1.0174,,238.9063,238.9064,-0.023148148,0.255555556,0,0,0,,0,61,61,312,1,,,,,
,,,,,,b11f81498bad26ff678cda9c,66a626ef09d4e21e1a8894ec,673497b719751d47e62445da,2024-11-13_13h13.11.462,Tarea de género gramatical,2024.2.2,Win32,60.24096386,,,,,,,,,,,,,,,,,,,,,,,238.9076,240.4058,l,1,[],[],[],[],[],[],[],0.8312,1,240.4058,240.9062,,,,,,1176,MAS,CON,150,ritmo,,l,0.8312,,240.9063,240.9065,-0.023148148,0.255555556,0,0,0,,0,62,62,275,1,,,,,
,,,,,,b11f81498bad26ff678cda9c,66a626ef09d4e21e1a8894ec,673497b719751d47e62445da,2024-11-13_13h13.11.462,Tarea de género gramatical,2024.2.2,Win32,60.24096386,,,,,,,,,,,,,,,,,,,,,,,240.9076,242.8392,a,1,[],[],[],[],[],[],[],1.2552,1,242.8395,243.3394,,,,,,1033,FEM,DIS,150,joya,el,a,1.2552,,243.3395,243.3396,-0.023148148,0.255555556,0,0,0,,0,63,63,132,1,,,,,
,,,,,,b11f81498bad26ff678cda9c,66a626ef09d4e21e1a8894ec,673497b719751d47e62445da,2024-11-13_13h13.11.462,Tarea de género gramatical,2024.2.2,Win32,60.24096386,,,,,,,,,,,,,,,,,,,,,,,243.3408,244.5557,a,0,[],[],[],[],[],[],[],0.5341,0,244.5566,245.056,,,,,,1164,MAS,CON,150,pollo,,l,0.5341,,245.0561,245.0561,-0.023148148,0.255555556,0,0,0,,0,64,64,263,1,,,,,
,,,,,,b11f81498bad26ff678cda9c,66a626ef09d4e21e1a8894ec,673497b719751d47e62445da,2024-11-13_13h13.11.462,Tarea de género gramatical,2024.2.2,Win32,60.24096386,,,,,,,,,,,,,,,,,,,,,,,245.0571,246.9222,l,0,[],[],[],[],[],[],[],1.1842,0,246.9223,247.4221,,,,,,1172,FEM,AGR,150,oreja,la,a,1.1842,,247.4232,247.4237,-0.023148148,0.255555556,0,0,0,,0,65,65,271,1,,,,,
,,,,,,b11f81498bad26ff678cda9c,66a626ef09d4e21e1a8894ec,673497b719751d47e62445da,2024-11-13_13h13.11.462,Tarea de género gramatical,2024.2.2,Win32,60.24096386,,,,,,,,,,,,,,,,,,,,,,,247.4245,249.0891,a,1,[],[],[],[],[],[],[],0.9934,1,249.0903,249.5887,,,,,,1190,FEM,AGR,150,cabra,la,a,0.9934,,249.5889,249.5889,-0.023148148,0.255555556,0,0,0,,0,66,66,289,1,,,,,
,,,,,,b11f81498bad26ff678cda9c,66a626ef09d4e21e1a8894ec,673497b719751d47e62445da,2024-11-13_13h13.11.462,Tarea de género gramatical,2024.2.2,Win32,60.24096386,,,,,,,,,,,,,,,,,,,,,,,249.5902,251.272,a,1,[],[],[],[],[],[],[],1.0111,1,251.2722,251.772,,,,,,957,FEM,CON,150,moda,,a,1.0111,,251.7721,251.7722,-0.023148148,0.255555556,0,0,0,,0,67,67,56,1,,,,,
,,,,,,b11f81498bad26ff678cda9c,66a626ef09d4e21e1a8894ec,673497b719751d47e62445da,2024-11-13_13h13.11.462,Tarea de género gramatical,2024.2.2,Win32,60.24096386,,,,,,,,,,,,,,,,,,,,,,,251.7729,253.1052,a,1,[],[],[],[],[],[],[],0.6515,1,253.1053,253.6054,,,,,,973,FEM,DIS,150,roca,el,a,0.6515,,253.6055,253.6056,-0.023148148,0.255555556,0,0,0,,0,68,68,72,1,,,,,
,,,,,,b11f81498bad26ff678cda9c,66a626ef09d4e21e1a8894ec,673497b719751d47e62445da,2024-11-13_13h13.11.462,Tarea de género gramatical,2024.2.2,Win32,60.24096386,,,,,,,,,,,,,,,,,,,,,,,253.6068,255.0053,a,1,[],[],[],[],[],[],[],0.7228,1,255.0054,255.5055,,,,,,1298,FEM,AGR,150,hierba,la,a,0.7228,,255.5064,255.5069,-0.023148148,0.255555556,0,0,0,,0,69,69,397,1,,,,,
,,,,,,b11f81498bad26ff678cda9c,66a626ef09d4e21e1a8894ec,673497b719751d47e62445da,2024-11-13_13h13.11.462,Tarea de género gramatical,2024.2.2,Win32,60.24096386,,,,,,,,,,,,,,,,,,,,,,,255.5075,256.7391,a,1,[],[],[],[],[],[],[],0.5502,1,256.7392,257.2396,,,,,,1082,FEM,AGR,150,prisa,la,a,0.5502,,257.2397,257.2397,-0.023148148,0.255555556,0,0,0,,0,70,70,181,1,,,,,
,,,,,,b11f81498bad26ff678cda9c,66a626ef09d4e21e1a8894ec,673497b719751d47e62445da,2024-11-13_13h13.11.462,Tarea de género gramatical,2024.2.2,Win32,60.24096386,,,,,,,,,,,,,,,,,,,,,,,257.2408,258.8386,l,1,[],[],[],[],[],[],[],0.9296,1,258.8388,259.3386,,,,,,1150,MAS,DIS,150,cerdo,la,l,0.9296,,259.3386,259.3387,-0.023148148,0.255555556,0,0,0,,0,71,71,249,1,,,,,
,,,,,,b11f81498bad26ff678cda9c,66a626ef09d4e21e1a8894ec,673497b719751d47e62445da,2024-11-13_13h13.11.462,Tarea de género gramatical,2024.2.2,Win32,60.24096386,,,,,,,,,,,,,,,,,,,,,,,259.3397,261.4887,a,1,[],[],[],[],[],[],[],1.4695,1,261.4888,261.9891,,,,,,1291,FEM,DIS,150,altura,el,a,1.4695,,261.9892,261.9893,-0.023148148,0.255555556,0,0,0,,0,72,72,390,1,,,,,
,,,,,,b11f81498bad26ff678cda9c,66a626ef09d4e21e1a8894ec,673497b719751d47e62445da,2024-11-13_13h13.11.462,Tarea de género gramatical,2024.2.2,Win32,60.24096386,,,,,,,,,,,,,,,,,,,,,,,261.9906,263.1886,a,1,[],[],[],[],[],[],[],0.5228,1,263.1887,263.6886,,,,,,945,FEM,CON,150,isla,,a,0.5228,,263.6887,263.6888,-0.023148148,0.255555556,0,0,0,,0,73,73,44,1,,,,,
,,,,,,b11f81498bad26ff678cda9c,66a626ef09d4e21e1a8894ec,673497b719751d47e62445da,2024-11-13_13h13.11.462,Tarea de género gramatical,2024.2.2,Win32,60.24096386,,,,,,,,,,,,,,,,,,,,,,,263.6898,264.8553,a,1,[],[],[],[],[],[],[],0.4953,1,264.8554,265.3553,,,,,,927,FEM,CON,150,mesa,,a,0.4953,,265.3563,265.3571,-0.023148148,0.255555556,0,0,0,,0,74,74,26,1,,,,,
,,,,,,b11f81498bad26ff678cda9c,66a626ef09d4e21e1a8894ec,673497b719751d47e62445da,2024-11-13_13h13.11.462,Tarea de género gramatical,2024.2.2,Win32,60.24096386,,,,,,,,,,,,,,,,,,,,,,,265.3576,266.4718,l,1,[],[],[],[],[],[],[],0.4456,1,266.4719,266.9717,,,,,,1032,MAS,CON,150,velo,,l,0.4456,,266.9718,266.972,-0.023148148,0.255555556,0,0,0,,0,75,75,131,1,,,,,
,,,,,,b11f81498bad26ff678cda9c,66a626ef09d4e21e1a8894ec,673497b719751d47e62445da,2024-11-13_13h13.11.462,Tarea de género gramatical,2024.2.2,Win32,60.24096386,,,,,,,,,,,,,,,,,,,,,,,266.973,268.2383,a,0,[],[],[],[],[],[],[],0.5955,0,268.2389,268.7385,,,,,,1116,MAS,CON,150,éxito,,l,0.5955,,268.7386,268.7386,-0.023148148,0.255555556,0,0,0,,0,76,76,215,1,,,,,
,,,,,,b11f81498bad26ff678cda9c,66a626ef09d4e21e1a8894ec,673497b719751d47e62445da,2024-11-13_13h13.11.462,Tarea de género gramatical,2024.2.2,Win32,60.24096386,,,,,,,,,,,,,,,,,,,,,,,268.7396,270.405,a,1,[],[],[],[],[],[],[],0.9895,1,270.4061,270.9055,,,,,,1161,FEM,CON,150,cueva,,a,0.9895,,270.9056,270.9057,-0.023148148,0.255555556,0,0,0,,0,77,77,260,1,,,,,
,,,,,,b11f81498bad26ff678cda9c,66a626ef09d4e21e1a8894ec,673497b719751d47e62445da,2024-11-13_13h13.11.462,Tarea de género gramatical,2024.2.2,Win32,60.24096386,,,,,,,,,,,,,,,,,,,,,,,270.9065,272.6389,l,1,[],[],[],[],[],[],[],1.0558,1,272.639,273.1383,,,,,,952,MAS,DIS,150,lago,la,l,1.0558,,273.1393,273.1397,-0.023148148,0.255555556,0,0,0,,0,78,78,51,1,,,,,
,,,,,,b11f81498bad26ff678cda9c,66a626ef09d4e21e1a8894ec,673497b719751d47e62445da,2024-11-13_13h13.11.462,Tarea de género gramatical,2024.2.2,Win32,60.24096386,,,,,,,,,,,,,,,,,,,,,,,273.1403,274.4053,l,1,[],[],[],[],[],[],[],0.5902,1,274.4054,274.9054,,,,,,1096,MAS,DIS,150,barco,la,l,0.5902,,274.9055,274.9055,-0.023148148,0.255555556,0,0,0,,0,79,79,195,1,,,,,
,,,,,,b11f81498bad26ff678cda9c,66a626ef09d4e21e1a8894ec,673497b719751d47e62445da,2024-11-13_13h13.11.462,Tarea de género gramatical,2024.2.2,Win32,60.24096386,,,,,,,,,,,,,,,,,,,,,,,274.9067,276.2386,l,1,[],[],[],[],[],[],[],0.6551,1,276.2388,276.7387,,,,,,1024,MAS,DIS,150,clan,la,l,0.6551,,276.7388,276.7389,-0.023148148,0.255555556,0,0,0,,0,80,80,123,1,,,,,
,,,,,,b11f81498bad26ff678cda9c,66a626ef09d4e21e1a8894ec,673497b719751d47e62445da,2024-11-13_13h13.11.462,Tarea de género gramatical,2024.2.2,Win32,60.24096386,,,,,,,,,,,,,,,,,,,,,,,276.7401,278.2548,a,1,[],[],[],[],[],[],[],0.8462,1,278.2549,278.7549,,,,,,943,FEM,DIS,150,nena,el,a,0.8462,,278.755,278.7551,-0.023148148,0.255555556,0,0,0,,0,81,81,42,1,,,,,
,,,,,,b11f81498bad26ff678cda9c,66a626ef09d4e21e1a8894ec,673497b719751d47e62445da,2024-11-13_13h13.11.462,Tarea de género gramatical,2024.2.2,Win32,60.24096386,,,,,,,,,,,,,,,,,,,,,,,278.756,280.2719,l,1,[],[],[],[],[],[],[],0.8372,1,280.272,280.7716,,,,,,1174,MAS,DIS,150,motor,la,l,0.8372,,280.7717,280.7719,-0.023148148,0.255555556,0,0,0,,0,82,82,273,1,,,,,
,,,,,,b11f81498bad26ff678cda9c,66a626ef09d4e21e1a8894ec,673497b719751d47e62445da,2024-11-13_13h13.11.462,Tarea de género gramatical,2024.2.2,Win32,60.24096386,,,,,,,,,,,,,,,,,,,,,,,280.7729,282.5049,l,1,[],[],[],[],[],[],[],1.0527,1,282.505,283.0047,,,,,,1013,MAS,AGR,150,toro,el,l,1.0527,,283.0063,283.0069,-0.023148148,0.255555556,0,0,0,,0,83,83,112,1,,,,,
,,,,,,b11f81498bad26ff678cda9c,66a626ef09d4e21e1a8894ec,673497b719751d47e62445da,2024-11-13_13h13.11.462,Tarea de género gramatical,2024.2.2,Win32,60.24096386,,,,,,,,,,,,,,,,,,,,,,,283.0075,284.2218,a,1,[],[],[],[],[],[],[],0.5338,1,284.2219,284.7215,,,,,,1317,FEM,CON,150,cabaña,,a,0.5338,,284.7216,284.7216,-0.023148148,0.255555556,0,0,0,,0,84,84,416,1,,,,,
,,,,,,b11f81498bad26ff678cda9c,66a626ef09d4e21e1a8894ec,673497b719751d47e62445da,2024-11-13_13h13.11.462,Tarea de género gramatical,2024.2.2,Win32,60.24096386,,,,,,,,,,,,,,,,,,,,,,,284.7233,286.2214,a,0,[],[],[],[],[],[],[],0.8312,0,286.2221,286.722,,,,,,942,MAS,CON,150,show,,l,0.8312,,286.722,286.7222,-0.023148148,0.255555556,0,0,0,,0,85,85,41,1,,,,,
,,,,,,b11f81498bad26ff678cda9c,66a626ef09d4e21e1a8894ec,673497b719751d47e62445da,2024-11-13_13h13.11.462,Tarea de género gramatical,2024.2.2,Win32,60.24096386,,,,,,,,,,,,,,,,,,,,,,,286.7233,288.6047,l,1,[],[],[],[],[],[],[],1.2072,1,288.6056,289.1047,,,,,,940,MAS,DIS,150,dios,la,l,1.2072,,289.1048,289.1048,-0.023148148,0.255555556,0,0,0,,0,86,86,39,1,,,,,
,,,,,,b11f81498bad26ff678cda9c,66a626ef09d4e21e1a8894ec,673497b719751d47e62445da,2024-11-13_13h13.11.462,Tarea de género gramatical,2024.2.2,Win32,60.24096386,,,,,,,,,,,,,,,,,,,,,,,289.1058,290.7882,l,1,[],[],[],[],[],[],[],1.0067,1,290.7883,291.2884,,,,,,1001,MAS,AGR,150,giro,el,l,1.0067,,291.2897,291.2902,-0.023148148,0.255555556,0,0,0,,0,87,87,100,1,,,,,
,,,,,,b11f81498bad26ff678cda9c,66a626ef09d4e21e1a8894ec,673497b719751d47e62445da,2024-11-13_13h13.11.462,Tarea de género gramatical,2024.2.2,Win32,60.24096386,,,,,,,,,,,,,,,,,,,,,,,291.2908,292.6552,l,1,[],[],[],[],[],[],[],0.6888,1,292.6553,293.1545,,,,,,1055,MAS,AGR,150,mundo,el,l,0.6888,,293.1546,293.1548,-0.023148148,0.255555556,0,0,0,,0,88,88,154,1,,,,,
,,,,,,b11f81498bad26ff678cda9c,66a626ef09d4e21e1a8894ec,673497b719751d47e62445da,2024-11-13_13h13.11.462,Tarea de género gramatical,2024.2.2,Win32,60.24096386,,,,,,,,,,,,,,,,,,,,,,,293.1556,294.4715,l,1,[],[],[],[],[],[],[],0.6379,1,294.4716,294.9715,,,,,,1240,MAS,DIS,150,pasado,la,l,0.6379,,294.9716,294.9716,-0.023148148,0.255555556,0,0,0,,0,89,89,339,1,,,,,
,,,,,,b11f81498bad26ff678cda9c,66a626ef09d4e21e1a8894ec,673497b719751d47e62445da,2024-11-13_13h13.11.462,Tarea de género gramatical,2024.2.2,Win32,60.24096386,,,,,,,,,,,,,,,,,,,,,,,294.9725,296.3883,a,1,[],[],[],[],[],[],[],0.7341,1,296.3884,296.8883,,,,,,1328,FEM,AGR,150,jugada,la,a,0.7341,,296.8884,296.8884,-0.023148148,0.255555556,0,0,0,,0,90,90,427,1,,,,,
,,,,,,b11f81498bad26ff678cda9c,66a626ef09d4e21e1a8894ec,673497b719751d47e62445da,2024-11-13_13h13.11.462,Tarea de género gramatical,2024.2.2,Win32,60.24096386,,,,,,,,,,,,,,,,,,,,,,,296.8895,298.6211,l,0,[],[],[],[],[],[],[],1.0646,0,298.622,299.121,,,,,,951,FEM,CON,150,bala,,a,1.0646,,299.1211,299.1211,-0.023148148,0.255555556,0,0,0,,0,91,91,50,1,,,,,
,,,,,,b11f81498bad26ff678cda9c,66a626ef09d4e21e1a8894ec,673497b719751d47e62445da,2024-11-13_13h13.11.462,Tarea de género gramatical,2024.2.2,Win32,60.24096386,,,,,,,,,,,,,,,,,,,,,,,299.122,300.5886,l,1,[],[],[],[],[],[],[],0.7914,1,300.5897,301.0881,,,,,,995,MAS,AGR,150,tomo,el,l,0.7914,,301.0893,301.0901,-0.023148148,0.255555556,0,0,0,,0,92,92,94,1,,,,,
,,,,,,b11f81498bad26ff678cda9c,66a626ef09d4e21e1a8894ec,673497b719751d47e62445da,2024-11-13_13h13.11.462,Tarea de género gramatical,2024.2.2,Win32,60.24096386,,,,,,,,,,,,,,,,,,,,,,,301.0908,302.4046,l,1,[],[],[],[],[],[],[],0.6398,1,302.4048,302.9045,,,,,,1048,MAS,DIS,150,surf,la,l,0.6398,,302.9046,302.9047,-0.023148148,0.255555556,0,0,0,,0,93,93,147,1,,,,,
,,,,,,b11f81498bad26ff678cda9c,66a626ef09d4e21e1a8894ec,673497b719751d47e62445da,2024-11-13_13h13.11.462,Tarea de género gramatical,2024.2.2,Win32,60.24096386,,,,,,,,,,,,,,,,,,,,,,,302.9056,304.4544,l,1,[],[],[],[],[],[],[],0.8803,1,304.4546,304.9546,,,,,,923,MAS,AGR,150,rato,el,l,0.8803,,304.9546,304.9547,-0.023148148,0.255555556,0,0,0,,0,94,94,22,1,,,,,
,,,,,,b11f81498bad26ff678cda9c,66a626ef09d4e21e1a8894ec,673497b719751d47e62445da,2024-11-13_13h13.11.462,Tarea de género gramatical,2024.2.2,Win32,60.24096386,,,,,,,,,,,,,,,,,,,,,,,304.9557,306.1882,a,1,[],[],[],[],[],[],[],0.5579,1,306.1883,306.6881,,,,,,932,FEM,AGR,150,caja,la,a,0.5579,,306.6882,306.6884,-0.023148148,0.255555556,0,0,0,,0,95,95,31,1,,,,,
,,,,,,b11f81498bad26ff678cda9c,66a626ef09d4e21e1a8894ec,673497b719751d47e62445da,2024-11-13_13h13.11.462,Tarea de género gramatical,2024.2.2,Win32,60.24096386,,,,,,,,,,,,,,,,,,,,,,,306.6895,308.2382,l,0,[],[],[],[],[],[],[],0.8806,0,308.2388,308.7379,,,,,,1058,FEM,AGR,150,chica,la,a,0.8806,,308.7389,308.7397,-0.023148148,0.255555556,0,0,0,,0,96,96,157,1,,,,,
,,,,,,b11f81498bad26ff678cda9c,66a626ef09d4e21e1a8894ec,673497b719751d47e62445da,2024-11-13_13h13.11.462,Tarea de género gramatical,2024.2.2,Win32,60.24096386,,,,,,,,,,,,,,,,,,,,,,,308.7403,310.138,a,1,[],[],[],[],[],[],[],0.7191,1,310.139,310.6376,,,,,,980,FEM,AGR,150,vaca,la,a,0.7191,,310.6377,310.6377,-0.023148148,0.255555556,0,0,0,,0,97,97,79,1,,,,,
,,,,,,b11f81498bad26ff678cda9c,66a626ef09d4e21e1a8894ec,673497b719751d47e62445da,2024-11-13_13h13.11.462,Tarea de género gramatical,2024.2.2,Win32,60.24096386,,,,,,,,,,,,,,,,,,,,,,,310.6387,313.0044,l,1,[],[],[],[],[],[],[],1.691,1,313.0045,313.5046,,,,,,1224,MAS,CON,150,cuarto,,l,1.691,,313.5047,313.5048,-0.023148148,0.255555556,0,0,0,,0,98,98,323,1,,,,,
,,,,,,b11f81498bad26ff678cda9c,66a626ef09d4e21e1a8894ec,673497b719751d47e62445da,2024-11-13_13h13.11.462,Tarea de género gramatical,2024.2.2,Win32,60.24096386,,,,,,,,,,,,,,,,,,,,,,,313.5058,315.0043,a,1,[],[],[],[],[],[],[],0.8168,1,315.0044,315.5046,,,,,,1207,FEM,DIS,150,suerte,el,a,0.8168,,315.5047,315.5048,-0.023148148,0.255555556,0,0,0,,0,99,99,306,1,,,,,
,,,,,,b11f81498bad26ff678cda9c,66a626ef09d4e21e1a8894ec,673497b719751d47e62445da,2024-11-13_13h13.11.462,Tarea de género gramatical,2024.2.2,Win32,60.24096386,,,,,,,,,,,,,,,,,,,,,,,315.5062,317.2379,a,1,[],[],[],[],[],[],[],1.0497,1,317.2381,317.7378,,,,,,938,FEM,AGR,150,obra,la,a,1.0497,,317.7378,317.7379,-0.023148148,0.255555556,0,0,0,,0,100,100,37,1,,,,,
,,,,,,b11f81498bad26ff678cda9c,66a626ef09d4e21e1a8894ec,673497b719751d47e62445da,2024-11-13_13h13.11.462,Tarea de género gramatical,2024.2.2,Win32,60.24096386,,,,,,,,,,,,,,,,,,,,,,,317.7389,319.0374,l,1,[],[],[],[],[],[],[],0.6177,1,319.0375,319.5373,,,,,,1254,MAS,CON,150,camión,,l,0.6177,,319.5386,319.5391,-0.023148148,0.255555556,0,0,0,,0,101,101,353,1,,,,,
,,,,,,b11f81498bad26ff678cda9c,66a626ef09d4e21e1a8894ec,673497b719751d47e62445da,2024-11-13_13h13.11.462,Tarea de género gramatical,2024.2.2,Win32,60.24096386,,,,,,,,,,,,,,,,,,,,,,,319.5399,321.404,l,0,[],[],[],[],[],[],[],1.1914,0,321.405,321.9043,,,,,,1154,FEM,AGR,150,caída,la,a,1.1914,,321.9044,321.9045,-0.023148148,0.255555556,0,0,0,,0,102,102,253,1,,,,,
,,,,,,b11f81498bad26ff678cda9c,66a626ef09d4e21e1a8894ec,673497b719751d47e62445da,2024-11-13_13h13.11.462,Tarea de género gramatical,2024.2.2,Win32,60.24096386,,,,,,,,,,,,,,,,,,,,,,,321.9056,323.7207,a,1,[],[],[],[],[],[],[],1.144,1,323.7218,324.2207,,,,,,1147,FEM,DIS,150,frase,el,a,1.144,,324.2208,324.2209,-0.023148148,0.255555556,0,0,0,,0,103,103,246,1,,,,,
,,,,,,b11f81498bad26ff678cda9c,66a626ef09d4e21e1a8894ec,673497b719751d47e62445da,2024-11-13_13h13.11.462,Tarea de género gramatical,2024.2.2,Win32,60.24096386,,,,,,,,,,,,,,,,,,,,,,,324.2218,326.1038,a,1,[],[],[],[],[],[],[],1.212,1,326.104,326.6042,,,,,,1051,FEM,DIS,150,noche,el,a,1.212,,326.6044,326.6045,-0.023148148,0.255555556,0,0,0,,0,104,104,150,1,,,,,
,,,,,,b11f81498bad26ff678cda9c,66a626ef09d4e21e1a8894ec,673497b719751d47e62445da,2024-11-13_13h13.11.462,Tarea de género gramatical,2024.2.2,Win32,60.24096386,,,,,,,,,,,,,,,,,,,,,,,326.6054,327.9879,l,1,[],[],[],[],[],[],[],0.7087,1,327.9879,328.4876,,,,,,1205,MAS,AGR,150,hombre,el,l,0.7087,,328.4883,328.4889,-0.023148148,0.255555556,0,0,0,,0,105,105,304,1,,,,,
,,,,,,b11f81498bad26ff678cda9c,66a626ef09d4e21e1a8894ec,673497b719751d47e62445da,2024-11-13_13h13.11.462,Tarea de género gramatical,2024.2.2,Win32,60.24096386,,,,,,,,,,,,,,,,,,,,,,,328.4894,330.4373,a,1,[],[],[],[],[],[],[],1.2667,1,330.4374,330.9374,,,,,,993,FEM,CON,150,lata,,a,1.2667,,330.9375,330.9376,-0.023148148,0.255555556,0,0,0,,0,106,106,92,1,,,,,
,,,,,,b11f81498bad26ff678cda9c,66a626ef09d4e21e1a8894ec,673497b719751d47e62445da,2024-11-13_13h13.11.462,Tarea de género gramatical,2024.2.2,Win32,60.24096386,,,,,,,,,,,,,,,,,,,,,,,330.9388,332.5045,a,1,[],[],[],[],[],[],[],0.8945,1,332.5046,333.0039,,,,,,913,FEM,DIS,150,hija,el,a,0.8945,,333.004,333.004,-0.023148148,0.255555556,0,0,0,,0,107,107,12,1,,,,,
,,,,,,b11f81498bad26ff678cda9c,66a626ef09d4e21e1a8894ec,673497b719751d47e62445da,2024-11-13_13h13.11.462,Tarea de género gramatical,2024.2.2,Win32,60.24096386,,,,,,,,,,,,,,,,,,,,,,,333.0051,334.3538,a,1,[],[],[],[],[],[],[],0.6768,1,334.354,334.8539,,,,,,1076,FEM,AGR,150,línea,la,a,0.6768,,334.854,334.854,-0.023148148,0.255555556,0,0,0,,0,108,108,175,1,,,,,
,,,,,,b11f81498bad26ff678cda9c,66a626ef09d4e21e1a8894ec,673497b719751d47e62445da,2024-11-13_13h13.11.462,Tarea de género gramatical,2024.2.2,Win32,60.24096386,,,,,,,,,,,,,,,,,,,,,,,334.855,336.1871,l,1,[],[],[],[],[],[],[],0.6513,1,336.1872,336.6871,,,,,,1252,MAS,DIS,150,estilo,la,l,0.6513,,336.6871,336.6872,-0.023148148,0.255555556,0,0,0,,0,109,109,351,1,,,,,
,,,,,,b11f81498bad26ff678cda9c,66a626ef09d4e21e1a8894ec,673497b719751d47e62445da,2024-11-13_13h13.11.462,Tarea de género gramatical,2024.2.2,Win32,60.24096386,,,,,,,,,,,,,,,,,,,,,,,336.6882,338.0543,a,0,[],[],[],[],[],[],[],0.7042,0,338.0551,338.5542,,,,,,1084,MAS,DIS,150,cielo,la,l,0.7042,,338.5555,338.5562,-0.023148148,0.255555556,0,0,0,,0,110,110,183,1,,,,,
,,,,,,b11f81498bad26ff678cda9c,66a626ef09d4e21e1a8894ec,673497b719751d47e62445da,2024-11-13_13h13.11.462,Tarea de género gramatical,2024.2.2,Win32,60.24096386,,,,,,,,,,,,,,,,,,,,,,,338.5566,340.0206,a,1,[],[],[],[],[],[],[],0.7904,1,340.0214,340.5203,,,,,,1003,FEM,DIS,150,fama,el,a,0.7904,,340.5204,340.5204,-0.023148148,0.255555556,0,0,0,,0,111,111,102,1,,,,,
,,,,,,b11f81498bad26ff678cda9c,66a626ef09d4e21e1a8894ec,673497b719751d47e62445da,2024-11-13_13h13.11.462,Tarea de género gramatical,2024.2.2,Win32,60.24096386,,,,,,,,,,,,,,,,,,,,,,,340.5212,342.4539,a,1,[],[],[],[],[],[],[],1.2493,1,342.454,342.9543,,,,,,1095,FEM,CON,150,pared,,a,1.2493,,342.9544,342.9545,-0.023148148,0.255555556,0,0,0,,0,112,112,194,1,,,,,
,,,,,,b11f81498bad26ff678cda9c,66a626ef09d4e21e1a8894ec,673497b719751d47e62445da,2024-11-13_13h13.11.462,Tarea de género gramatical,2024.2.2,Win32,60.24096386,,,,,,,,,,,,,,,,,,,,,,,342.9557,344.4706,l,1,[],[],[],[],[],[],[],0.8376,1,344.4709,344.9706,,,,,,1247,MAS,AGR,150,cuello,el,l,0.8376,,344.9706,344.9708,-0.023148148,0.255555556,0,0,0,,0,113,113,346,1,,,,,
,,,,,,b11f81498bad26ff678cda9c,66a626ef09d4e21e1a8894ec,673497b719751d47e62445da,2024-11-13_13h13.11.462,Tarea de género gramatical,2024.2.2,Win32,60.24096386,,,,,,,,,,,,,,,,,,,,,,,344.9716,346.737,a,1,[],[],[],[],[],[],[],1.0849,1,346.7371,347.2374,,,,,,1029,FEM,CON,150,rana,,a,1.0849,,347.2389,347.2395,-0.023148148,0.255555556,0,0,0,,0,114,114,128,1,,,,,
,,,,,,b11f81498bad26ff678cda9c,66a626ef09d4e21e1a8894ec,673497b719751d47e62445da,2024-11-13_13h13.11.462,Tarea de género gramatical,2024.2.2,Win32,60.24096386,,,,,,,,,,,,,,,,,,,,,,,347.2401,348.4702,a,1,[],[],[],[],[],[],[],0.5626,1,348.4703,348.9703,,,,,,1196,FEM,AGR,150,feria,la,a,0.5626,,348.9703,348.9705,-0.023148148,0.255555556,0,0,0,,0,115,115,295,1,,,,,
,,,,,,b11f81498bad26ff678cda9c,66a626ef09d4e21e1a8894ec,673497b719751d47e62445da,2024-11-13_13h13.11.462,Tarea de género gramatical,2024.2.2,Win32,60.24096386,,,,,,,,,,,,,,,,,,,,,,,348.9715,350.3035,l,1,[],[],[],[],[],[],[],0.6615,1,350.3037,350.8034,,,,,,918,MAS,CON,150,tren,,l,0.6615,,350.8034,350.8036,-0.023148148,0.255555556,0,0,0,,0,116,116,17,1,,,,,
,,,,,,b11f81498bad26ff678cda9c,66a626ef09d4e21e1a8894ec,673497b719751d47e62445da,2024-11-13_13h13.11.462,Tarea de género gramatical,2024.2.2,Win32,60.24096386,,,,,,,,,,,,,,,,,,,,,,,350.8045,352.5202,l,1,[],[],[],[],[],[],[],1.0353,1,352.5202,353.0202,,,,,,1301,MAS,AGR,150,abrigo,el,l,1.0353,,353.0202,353.0204,-0.023148148,0.255555556,0,0,0,,0,117,117,400,1,,,,,
,,,,,,b11f81498bad26ff678cda9c,66a626ef09d4e21e1a8894ec,673497b719751d47e62445da,2024-11-13_13h13.11.462,Tarea de género gramatical,2024.2.2,Win32,60.24096386,,,,,,,,,,,,,,,,,,,,,,,353.0211,354.7368,a,1,[],[],[],[],[],[],[],1.0349,1,354.7369,355.2368,,,,,,1111,FEM,DIS,150,salud,el,a,1.0349,,355.2368,355.2369,-0.023148148,0.255555556,0,0,0,,0,118,118,210,1,,,,,
,,,,,,b11f81498bad26ff678cda9c,66a626ef09d4e21e1a8894ec,673497b719751d47e62445da,2024-11-13_13h13.11.462,Tarea de género gramatical,2024.2.2,Win32,60.24096386,,,,,,,,,,,,,,,,,,,,,,,355.2381,357.1701,a,0,[],[],[],[],[],[],[],1.2506,0,357.1708,357.6701,,,,,,1319,MAS,AGR,150,cuento,el,l,1.2506,,357.671,357.6716,-0.023148148,0.255555556,0,0,0,,0,119,119,418,1,,,,,
,,,,,,b11f81498bad26ff678cda9c,66a626ef09d4e21e1a8894ec,673497b719751d47e62445da,2024-11-13_13h13.11.462,Tarea de género gramatical,2024.2.2,Win32,60.24096386,,,,,,,,,,,,,,,,,,,,,,,357.6721,358.5373,l,1,[],[],[],[],[],[],[],0.1848,1,358.5382,359.0367,,,,,,1104,MAS,CON,150,papel,,l,0.1848,,359.0367,359.0368,-0.023148148,0.255555556,0,0,0,,0,120,120,203,1,,,,,
,,,,,,b11f81498bad26ff678cda9c,66a626ef09d4e21e1a8894ec,673497b719751d47e62445da,2024-11-13_13h13.11.462,Tarea de género gramatical,2024.2.2,Win32,60.24096386,,,,,,,,,,,,,,,,,,,,,,,359.0377,360.4534,a,1,[],[],[],[],[],[],[],0.7335,1,360.4536,360.9534,,,,,,933,FEM,CON,150,boda,,a,0.7335,,360.9535,360.9535,-0.023148148,0.255555556,0,0,0,,0,121,121,32,1,,,,,
,,,,,,b11f81498bad26ff678cda9c,66a626ef09d4e21e1a8894ec,673497b719751d47e62445da,2024-11-13_13h13.11.462,Tarea de género gramatical,2024.2.2,Win32,60.24096386,,,,,,,,,,,,,,,,,,,,,,,360.9544,362.9201,l,1,[],[],[],[],[],[],[],1.2866,1,362.9201,363.4201,,,,,,1307,MAS,AGR,150,jurado,el,l,1.2866,,363.4201,363.4202,-0.023148148,0.255555556,0,0,0,,0,122,122,406,1,,,,,
,,,,,,b11f81498bad26ff678cda9c,66a626ef09d4e21e1a8894ec,673497b719751d47e62445da,2024-11-13_13h13.11.462,Tarea de género gramatical,2024.2.2,Win32,60.24096386,,,,,,,,,,,,,,,,,,,,,,,363.421,365.5201,a,1,[],[],[],[],[],[],[],1.428,1,365.5202,366.0199,,,,,,926,FEM,AGR,150,pena,la,a,1.428,,366.021,366.0217,-0.023148148,0.255555556,0,0,0,,0,123,123,25,1,,,,,
,,,,,,b11f81498bad26ff678cda9c,66a626ef09d4e21e1a8894ec,673497b719751d47e62445da,2024-11-13_13h13.11.462,Tarea de género gramatical,2024.2.2,Win32,60.24096386,,,,,,,,,,,,,,,,,,,,,,,366.0222,367.6205,l,1,[],[],[],[],[],[],[],0.917,1,367.6207,368.1199,,,,,,1241,MAS,AGR,150,precio,el,l,0.917,,368.1199,368.1199,-0.023148148,0.255555556,0,0,0,,0,124,124,340,1,,,,,
,,,,,,b11f81498bad26ff678cda9c,66a626ef09d4e21e1a8894ec,673497b719751d47e62445da,2024-11-13_13h13.11.462,Tarea de género gramatical,2024.2.2,Win32,60.24096386,,,,,,,,,,,,,,,,,,,,,,,368.1207,369.6037,a,1,[],[],[],[],[],[],[],0.7943,1,369.6038,370.1034,,,,,,939,FEM,CON,150,luna,,a,0.7943,,370.1034,370.1035,-0.023148148,0.255555556,0,0,0,,0,125,125,38,1,,,,,
,,,,,,b11f81498bad26ff678cda9c,66a626ef09d4e21e1a8894ec,673497b719751d47e62445da,2024-11-13_13h13.11.462,Tarea de género gramatical,2024.2.2,Win32,60.24096386,,,,,,,,,,,,,,,,,,,,,,,370.1044,371.6865,l,0,[],[],[],[],[],[],[],0.9128,0,371.6872,372.1867,,,,,,1177,FEM,DIS,150,plaza,el,a,0.9128,,372.1868,372.187,-0.023148148,0.255555556,0,0,0,,0,126,126,276,1,,,,,
,,,,,,b11f81498bad26ff678cda9c,66a626ef09d4e21e1a8894ec,673497b719751d47e62445da,2024-11-13_13h13.11.462,Tarea de género gramatical,2024.2.2,Win32,60.24096386,,,,,,,,,,,,,,,,,,,,,,,372.188,374.5541,l,1,[],[],[],[],[],[],[],1.6843,1,374.5553,375.0542,,,,,,1229,MAS,AGR,150,futuro,el,l,1.6843,,375.0542,375.0543,-0.023148148,0.255555556,0,0,0,,0,127,127,328,1,,,,,
,,,,,,b11f81498bad26ff678cda9c,66a626ef09d4e21e1a8894ec,673497b719751d47e62445da,2024-11-13_13h13.11.462,Tarea de género gramatical,2024.2.2,Win32,60.24096386,,,,,,,,,,,,,,,,,,,,,,,375.0554,376.587,a,1,[],[],[],[],[],[],[],0.8504,1,376.5872,377.0866,,,,,,915,FEM,CON,150,cama,,a,0.8504,,377.0879,377.0885,-0.023148148,0.255555556,0,0,0,,0,128,128,14,1,,,,,
,,,,,,b11f81498bad26ff678cda9c,66a626ef09d4e21e1a8894ec,673497b719751d47e62445da,2024-11-13_13h13.11.462,Tarea de género gramatical,2024.2.2,Win32,60.24096386,,,,,,,,,,,,,,,,,,,,,,,377.089,378.9196,l,0,[],[],[],[],[],[],[],1.1538,0,378.9204,379.4197,,,,,,1081,FEM,DIS,150,tarde,el,a,1.1538,,379.4197,379.4199,-0.023148148,0.255555556,0,0,0,,0,129,129,180,1,,,,,
,,,,,,b11f81498bad26ff678cda9c,66a626ef09d4e21e1a8894ec,673497b719751d47e62445da,2024-11-13_13h13.11.462,Tarea de género gramatical,2024.2.2,Win32,60.24096386,,,,,,,,,,,,,,,,,,,,,,,379.4209,381.2029,a,1,[],[],[],[],[],[],[],1.101,1,381.2037,381.7029,,,,,,1195,FEM,DIS,150,grasa,el,a,1.101,,381.703,381.703,-0.023148148,0.255555556,0,0,0,,0,130,130,294,1,,,,,
,,,,,,b11f81498bad26ff678cda9c,66a626ef09d4e21e1a8894ec,673497b719751d47e62445da,2024-11-13_13h13.11.462,Tarea de género gramatical,2024.2.2,Win32,60.24096386,,,,,,,,,,,,,,,,,,,,,,,381.7039,383.5365,a,1,[],[],[],[],[],[],[],1.1611,1,383.5367,384.0366,,,,,,985,FEM,DIS,150,gira,el,a,1.1611,,384.0367,384.0368,-0.023148148,0.255555556,0,0,0,,0,131,131,84,1,,,,,
,,,,,,b11f81498bad26ff678cda9c,66a626ef09d4e21e1a8894ec,673497b719751d47e62445da,2024-11-13_13h13.11.462,Tarea de género gramatical,2024.2.2,Win32,60.24096386,,,,,,,,,,,,,,,,,,,,,,,384.0382,385.4361,a,1,[],[],[],[],[],[],[],0.7176,1,385.4362,385.9364,,,,,,1184,FEM,AGR,150,fruta,la,a,0.7176,,385.9377,385.9383,-0.023148148,0.255555556,0,0,0,,0,132,132,283,1,,,,,
,,,,,,b11f81498bad26ff678cda9c,66a626ef09d4e21e1a8894ec,673497b719751d47e62445da,2024-11-13_13h13.11.462,Tarea de género gramatical,2024.2.2,Win32,60.24096386,,,,,,,,,,,,,,,,,,,,,,,385.9387,387.5695,l,1,[],[],[],[],[],[],[],0.9514,1,387.5696,388.0697,,,,,,953,MAS,AGR,150,vaso,el,l,0.9514,,388.0697,388.0698,-0.023148148,0.255555556,0,0,0,,0,133,133,52,1,,,,,
,,,,,,b11f81498bad26ff678cda9c,66a626ef09d4e21e1a8894ec,673497b719751d47e62445da,2024-11-13_13h13.11.462,Tarea de género gramatical,2024.2.2,Win32,60.24096386,,,,,,,,,,,,,,,,,,,,,,,388.0707,390.3195,a,0,[],[],[],[],[],[],[],1.5706,0,390.3204,390.8195,,,,,,1218,MAS,CON,150,pueblo,,l,1.5706,,390.8195,390.8197,-0.023148148,0.255555556,0,0,0,,0,134,134,317,1,,,,,
,,,,,,b11f81498bad26ff678cda9c,66a626ef09d4e21e1a8894ec,673497b719751d47e62445da,2024-11-13_13h13.11.462,Tarea de género gramatical,2024.2.2,Win32,60.24096386,,,,,,,,,,,,,,,,,,,,,,,390.8211,392.5528,l,1,[],[],[],[],[],[],[],1.0606,1,392.5536,393.0528,,,,,,958,MAS,DIS,150,mono,la,l,1.0606,,393.0529,393.053,-0.023148148,0.255555556,0,0,0,,0,135,135,57,1,,,,,
,,,,,,b11f81498bad26ff678cda9c,66a626ef09d4e21e1a8894ec,673497b719751d47e62445da,2024-11-13_13h13.11.462,Tarea de género gramatical,2024.2.2,Win32,60.24096386,,,,,,,,,,,,,,,,,,,,,,,393.054,394.4031,l,1,[],[],[],[],[],[],[],0.6666,1,394.4033,394.9031,,,,,,1342,MAS,DIS,150,cuadro,la,l,0.6666,,394.9033,394.9034,-0.023148148,0.255555556,0,0,0,,0,136,136,441,1,,,,,
,,,,,,b11f81498bad26ff678cda9c,66a626ef09d4e21e1a8894ec,673497b719751d47e62445da,2024-11-13_13h13.11.462,Tarea de género gramatical,2024.2.2,Win32,60.24096386,,,,,,,,,,,,,,,,,,,,,,,394.9044,396.786,l,1,[],[],[],[],[],[],[],1.21,1,396.7861,397.286,,,,,,1126,MAS,DIS,150,color,la,l,1.21,,397.2868,397.2874,-0.023148148,0.255555556,0,0,0,,0,137,137,225,1,,,,,
,,,,,,b11f81498bad26ff678cda9c,66a626ef09d4e21e1a8894ec,673497b719751d47e62445da,2024-11-13_13h13.11.462,Tarea de género gramatical,2024.2.2,Win32,60.24096386,,,,,,,,,,,,,,,,,,,,,,,397.2879,398.8192,a,1,[],[],[],[],[],[],[],0.857,1,398.8193,399.3192,,,,,,1309,FEM,DIS,150,moneda,el,a,0.857,,399.3193,399.3194,-0.023148148,0.255555556,0,0,0,,0,138,138,408,1,,,,,
,,,,,,b11f81498bad26ff678cda9c,66a626ef09d4e21e1a8894ec,673497b719751d47e62445da,2024-11-13_13h13.11.462,Tarea de género gramatical,2024.2.2,Win32,60.24096386,,,,,,,,,,,,,,,,,,,,,,,399.3206,401.0868,l,0,[],[],[],[],[],[],[],1.0835,0,401.0876,401.586,,,,,,1183,FEM,DIS,150,pluma,el,a,1.0835,,401.586,401.5861,-0.023148148,0.255555556,0,0,0,,0,139,139,282,1,,,,,
,,,,,,b11f81498bad26ff678cda9c,66a626ef09d4e21e1a8894ec,673497b719751d47e62445da,2024-11-13_13h13.11.462,Tarea de género gramatical,2024.2.2,Win32,60.24096386,,,,,,,,,,,,,,,,,,,,,,,401.587,403.2193,a,1,[],[],[],[],[],[],[],0.9583,1,403.22,403.7193,,,,,,1293,FEM,CON,150,alarma,,a,0.9583,,403.7193,403.7195,-0.023148148,0.255555556,0,0,0,,0,140,140,392,1,,,,,
,,,,,,b11f81498bad26ff678cda9c,66a626ef09d4e21e1a8894ec,673497b719751d47e62445da,2024-11-13_13h13.11.462,Tarea de género gramatical,2024.2.2,Win32,60.24096386,,,,,,,,,,,,,,,,,,,,,,,403.7203,405.6192,a,1,[],[],[],[],[],[],[],1.2247,1,405.6193,406.1192,,,,,,1039,FEM,DIS,150,pipa,el,a,1.2247,,406.1204,406.1209,-0.023148148,0.255555556,0,0,0,,0,141,141,138,1,,,,,
,,,,,,b11f81498bad26ff678cda9c,66a626ef09d4e21e1a8894ec,673497b719751d47e62445da,2024-11-13_13h13.11.462,Tarea de género gramatical,2024.2.2,Win32,60.24096386,,,,,,,,,,,,,,,,,,,,,,,406.1215,407.503,a,1,[],[],[],[],[],[],[],0.7046,1,407.503,408.0028,,,,,,1225,FEM,DIS,150,tierra,el,a,0.7046,,408.0029,408.003,-0.023148148,0.255555556,0,0,0,,0,142,142,324,1,,,,,
,,,,,,b11f81498bad26ff678cda9c,66a626ef09d4e21e1a8894ec,673497b719751d47e62445da,2024-11-13_13h13.11.462,Tarea de género gramatical,2024.2.2,Win32,60.24096386,,,,,,,,,,,,,,,,,,,,,,,408.0039,409.3695,a,1,[],[],[],[],[],[],[],0.6936,1,409.3697,409.8693,,,,,,999,FEM,CON,150,fase,,a,0.6936,,409.8694,409.8694,-0.023148148,0.255555556,0,0,0,,0,143,143,98,1,,,,,
,,,,,,b11f81498bad26ff678cda9c,66a626ef09d4e21e1a8894ec,673497b719751d47e62445da,2024-11-13_13h13.11.462,Tarea de género gramatical,2024.2.2,Win32,60.24096386,,,,,,,,,,,,,,,,,,,,,,,409.8703,411.4697,l,1,[],[],[],[],[],[],[],0.924,1,411.4698,411.9695,,,,,,904,MAS,DIS,150,hijo,la,l,0.924,,411.9696,411.9698,-0.023148148,0.255555556,0,0,0,,0,144,144,3,1,,,,,
,,,,,,b11f81498bad26ff678cda9c,66a626ef09d4e21e1a8894ec,673497b719751d47e62445da,2024-11-13_13h13.11.462,Tarea de género gramatical,2024.2.2,Win32,60.24096386,,,,,,,,,,,,,,,,,,,,,,,411.9711,413.469,a,1,[],[],[],[],[],[],[],0.8308,1,413.4691,413.9691,,,,,,921,FEM,CON,150,boca,,a,0.8308,,413.9692,413.9693,-0.023148148,0.255555556,0,0,0,,0,145,145,20,1,,,,,
,,,,,,b11f81498bad26ff678cda9c,66a626ef09d4e21e1a8894ec,673497b719751d47e62445da,2024-11-13_13h13.11.462,Tarea de género gramatical,2024.2.2,Win32,60.24096386,,,,,,,,,,,,,,,,,,,,,,,413.97,415.4358,l,1,[],[],[],[],[],[],[],0.786,1,415.4359,415.9363,,,,,,989,MAS,AGR,150,maíz,el,l,0.786,,415.9375,415.938,-0.023148148,0.255555556,0,0,0,,0,146,146,88,1,,,,,
,,,,,,b11f81498bad26ff678cda9c,66a626ef09d4e21e1a8894ec,673497b719751d47e62445da,2024-11-13_13h13.11.462,Tarea de género gramatical,2024.2.2,Win32,60.24096386,,,,,,,,,,,,,,,,,,,,,,,415.9388,417.6857,a,1,[],[],[],[],[],[],[],1.0723,1,417.6857,418.1856,,,,,,1237,FEM,DIS,150,escena,el,a,1.0723,,418.1857,418.1857,-0.023148148,0.255555556,0,0,0,,0,147,147,336,1,,,,,
,,,,,,b11f81498bad26ff678cda9c,66a626ef09d4e21e1a8894ec,673497b719751d47e62445da,2024-11-13_13h13.11.462,Tarea de género gramatical,2024.2.2,Win32,60.24096386,,,,,,,,,,,,,,,,,,,,,,,418.1867,419.6857,l,1,[],[],[],[],[],[],[],0.8292,1,419.6858,420.1856,,,,,,954,MAS,CON,150,humo,,l,0.8292,,420.1857,420.1858,-0.023148148,0.255555556,0,0,0,,0,148,148,53,1,,,,,
,,,,,,b11f81498bad26ff678cda9c,66a626ef09d4e21e1a8894ec,673497b719751d47e62445da,2024-11-13_13h13.11.462,Tarea de género gramatical,2024.2.2,Win32,60.24096386,,,,,,,,,,,,,,,,,,,,,,,420.187,421.7355,l,0,[],[],[],[],[],[],[],0.8703,0,421.7362,422.2355,,,,,,909,FEM,CON,150,mamá,,a,0.8703,,422.2356,422.2358,-0.023148148,0.255555556,0,0,0,,0,149,149,8,1,,,,,
,,,,,,b11f81498bad26ff678cda9c,66a626ef09d4e21e1a8894ec,673497b719751d47e62445da,2024-11-13_13h13.11.462,Tarea de género gramatical,2024.2.2,Win32,60.24096386,,,,,,,,,,,,,,,,,,,,,,,422.2366,424.0859,a,1,[],[],[],[],[],[],[],1.1807,1,424.0866,424.586,,,,,,975,FEM,CON,150,caza,,a,1.1807,,424.5871,673.3646,-0.023148148,0.255555556,0,0,0,space,0,150,150,74,1,248.7589,,,,
,,,,,,b11f81498bad26ff678cda9c,66a626ef09d4e21e1a8894ec,673497b719751d47e62445da,2024-11-13_13h13.11.462,Tarea de género gramatical,2024.2.2,Win32,60.24096386,,,,,,,,,,,,,,,,,,,,,,,673.3659,675.4642,a,1,[],[],[],[],[],[],[],1.426,1,675.4644,675.9644,,,,,,1123,FEM,DIS,150,plata,el,a,1.426,,675.9645,675.9645,-0.023148148,0.255555556,0,0,0,,0,151,151,222,1,,,,,
,,,,,,b11f81498bad26ff678cda9c,66a626ef09d4e21e1a8894ec,673497b719751d47e62445da,2024-11-13_13h13.11.462,Tarea de género gramatical,2024.2.2,Win32,60.24096386,,,,,,,,,,,,,,,,,,,,,,,675.9652,677.2143,a,1,[],[],[],[],[],[],[],0.5706,1,677.2144,677.7143,,,,,,1191,FEM,CON,150,aguja,,a,0.5706,,677.7143,677.7144,-0.023148148,0.255555556,0,0,0,,0,152,152,290,1,,,,,
,,,,,,b11f81498bad26ff678cda9c,66a626ef09d4e21e1a8894ec,673497b719751d47e62445da,2024-11-13_13h13.11.462,Tarea de género gramatical,2024.2.2,Win32,60.24096386,,,,,,,,,,,,,,,,,,,,,,,677.7151,679.0476,l,1,[],[],[],[],[],[],[],0.662,1,679.0477,679.5475,,,,,,1128,MAS,CON,150,nivel,,l,0.662,,679.5476,679.5477,-0.023148148,0.255555556,0,0,0,,0,153,153,227,1,,,,,
,,,,,,b11f81498bad26ff678cda9c,66a626ef09d4e21e1a8894ec,673497b719751d47e62445da,2024-11-13_13h13.11.462,Tarea de género gramatical,2024.2.2,Win32,60.24096386,,,,,,,,,,,,,,,,,,,,,,,679.5484,681.6812,l,1,[],[],[],[],[],[],[],1.4514,1,681.6813,682.181,,,,,,1157,MAS,AGR,150,pecho,el,l,1.4514,,682.181,682.1812,-0.023148148,0.255555556,0,0,0,,0,154,154,256,1,,,,,
,,,,,,b11f81498bad26ff678cda9c,66a626ef09d4e21e1a8894ec,673497b719751d47e62445da,2024-11-13_13h13.11.462,Tarea de género gramatical,2024.2.2,Win32,60.24096386,,,,,,,,,,,,,,,,,,,,,,,682.1824,683.5141,l,1,[],[],[],[],[],[],[],0.6497,1,683.5142,684.0146,,,,,,994,MAS,DIS,150,cabo,la,l,0.6497,,684.0159,684.0166,-0.023148148,0.255555556,0,0,0,,0,155,155,93,1,,,,,
,,,,,,b11f81498bad26ff678cda9c,66a626ef09d4e21e1a8894ec,673497b719751d47e62445da,2024-11-13_13h13.11.462,Tarea de género gramatical,2024.2.2,Win32,60.24096386,,,,,,,,,,,,,,,,,,,,,,,684.0171,685.531,l,1,[],[],[],[],[],[],[],0.8414,1,685.5312,686.0311,,,,,,946,MAS,DIS,150,odio,la,l,0.8414,,686.0311,686.0312,-0.023148148,0.255555556,0,0,0,,0,156,156,45,1,,,,,
,,,,,,b11f81498bad26ff678cda9c,66a626ef09d4e21e1a8894ec,673497b719751d47e62445da,2024-11-13_13h13.11.462,Tarea de género gramatical,2024.2.2,Win32,60.24096386,,,,,,,,,,,,,,,,,,,,,,,686.0325,687.314,a,1,[],[],[],[],[],[],[],0.6004,1,687.3141,687.8141,,,,,,1178,FEM,AGR,150,presa,la,a,0.6004,,687.8141,687.8142,-0.023148148,0.255555556,0,0,0,,0,157,157,277,1,,,,,
,,,,,,b11f81498bad26ff678cda9c,66a626ef09d4e21e1a8894ec,673497b719751d47e62445da,2024-11-13_13h13.11.462,Tarea de género gramatical,2024.2.2,Win32,60.24096386,,,,,,,,,,,,,,,,,,,,,,,687.8151,689.081,a,1,[],[],[],[],[],[],[],0.5845,1,689.0812,689.5809,,,,,,955,FEM,DIS,150,taza,el,a,0.5845,,689.5809,689.581,-0.023148148,0.255555556,0,0,0,,0,158,158,54,1,,,,,
,,,,,,b11f81498bad26ff678cda9c,66a626ef09d4e21e1a8894ec,673497b719751d47e62445da,2024-11-13_13h13.11.462,Tarea de género gramatical,2024.2.2,Win32,60.24096386,,,,,,,,,,,,,,,,,,,,,,,689.582,690.9308,a,0,[],[],[],[],[],[],[],0.6761,0,690.9315,691.4307,,,,,,1295,MAS,AGR,150,correo,el,l,0.6761,,691.4317,691.4323,-0.023148148,0.255555556,0,0,0,,0,159,159,394,1,,,,,
,,,,,,b11f81498bad26ff678cda9c,66a626ef09d4e21e1a8894ec,673497b719751d47e62445da,2024-11-13_13h13.11.462,Tarea de género gramatical,2024.2.2,Win32,60.24096386,,,,,,,,,,,,,,,,,,,,,,,691.4328,693.3975,a,1,[],[],[],[],[],[],[],1.2894,1,693.3984,693.8976,,,,,,1269,FEM,CON,150,camisa,,a,1.2894,,693.8977,693.8979,-0.023148148,0.255555556,0,0,0,,0,160,160,368,1,,,,,
,,,,,,b11f81498bad26ff678cda9c,66a626ef09d4e21e1a8894ec,673497b719751d47e62445da,2024-11-13_13h13.11.462,Tarea de género gramatical,2024.2.2,Win32,60.24096386,,,,,,,,,,,,,,,,,,,,,,,693.8992,695.4479,a,1,[],[],[],[],[],[],[],0.8703,1,695.448,695.9476,,,,,,1249,FEM,DIS,150,prensa,el,a,0.8703,,695.9477,695.9478,-0.023148148,0.255555556,0,0,0,,0,161,161,348,1,,,,,
,,,,,,b11f81498bad26ff678cda9c,66a626ef09d4e21e1a8894ec,673497b719751d47e62445da,2024-11-13_13h13.11.462,Tarea de género gramatical,2024.2.2,Win32,60.24096386,,,,,,,,,,,,,,,,,,,,,,,695.9491,697.1643,l,1,[],[],[],[],[],[],[],0.532,1,697.1646,697.6644,,,,,,1236,MAS,CON,150,crimen,,l,0.532,,697.6645,697.6646,-0.023148148,0.255555556,0,0,0,,0,162,162,335,1,,,,,
,,,,,,b11f81498bad26ff678cda9c,66a626ef09d4e21e1a8894ec,673497b719751d47e62445da,2024-11-13_13h13.11.462,Tarea de género gramatical,2024.2.2,Win32,60.24096386,,,,,,,,,,,,,,,,,,,,,,,697.6657,698.9639,l,1,[],[],[],[],[],[],[],0.6172,1,698.964,699.4637,,,,,,960,MAS,CON,150,tono,,l,0.6172,,699.4638,699.4639,-0.023148148,0.255555556,0,0,0,,0,163,163,59,1,,,,,
,,,,,,b11f81498bad26ff678cda9c,66a626ef09d4e21e1a8894ec,673497b719751d47e62445da,2024-11-13_13h13.11.462,Tarea de género gramatical,2024.2.2,Win32,60.24096386,,,,,,,,,,,,,,,,,,,,,,,699.4649,700.9139,l,1,[],[],[],[],[],[],[],0.7683,1,700.914,701.4138,,,,,,1060,MAS,DIS,150,señor,la,l,0.7683,,701.4147,701.4153,-0.023148148,0.255555556,0,0,0,,0,164,164,159,1,,,,,
,,,,,,b11f81498bad26ff678cda9c,66a626ef09d4e21e1a8894ec,673497b719751d47e62445da,2024-11-13_13h13.11.462,Tarea de género gramatical,2024.2.2,Win32,60.24096386,,,,,,,,,,,,,,,,,,,,,,,701.4158,702.8641,a,1,[],[],[],[],[],[],[],0.7769,1,702.8643,703.3637,,,,,,1220,FEM,AGR,150,fiesta,la,a,0.7769,,703.3639,703.3639,-0.023148148,0.255555556,0,0,0,,0,165,165,319,1,,,,,
,,,,,,b11f81498bad26ff678cda9c,66a626ef09d4e21e1a8894ec,673497b719751d47e62445da,2024-11-13_13h13.11.462,Tarea de género gramatical,2024.2.2,Win32,60.24096386,,,,,,,,,,,,,,,,,,,,,,,703.3653,704.6807,l,1,[],[],[],[],[],[],[],0.6429,1,704.6808,705.1803,,,,,,1092,MAS,CON,150,grupo,,l,0.6429,,705.1804,705.1805,-0.023148148,0.255555556,0,0,0,,0,166,166,191,1,,,,,
,,,,,,b11f81498bad26ff678cda9c,66a626ef09d4e21e1a8894ec,673497b719751d47e62445da,2024-11-13_13h13.11.462,Tarea de género gramatical,2024.2.2,Win32,60.24096386,,,,,,,,,,,,,,,,,,,,,,,705.1815,707.014,l,1,[],[],[],[],[],[],[],1.1537,1,707.0141,707.5145,,,,,,1079,MAS,AGR,150,viaje,el,l,1.1537,,707.5145,707.5147,-0.023148148,0.255555556,0,0,0,,0,167,167,178,1,,,,,
,,,,,,b11f81498bad26ff678cda9c,66a626ef09d4e21e1a8894ec,673497b719751d47e62445da,2024-11-13_13h13.11.462,Tarea de género gramatical,2024.2.2,Win32,60.24096386,,,,,,,,,,,,,,,,,,,,,,,707.5158,708.9305,l,1,[],[],[],[],[],[],[],0.7337,1,708.9307,709.431,,,,,,1290,MAS,CON,150,rostro,,l,0.7337,,709.4322,709.4328,-0.023148148,0.255555556,0,0,0,,0,168,168,389,1,,,,,
,,,,,,b11f81498bad26ff678cda9c,66a626ef09d4e21e1a8894ec,673497b719751d47e62445da,2024-11-13_13h13.11.462,Tarea de género gramatical,2024.2.2,Win32,60.24096386,,,,,,,,,,,,,,,,,,,,,,,709.4335,710.7803,a,1,[],[],[],[],[],[],[],0.6736,1,710.7803,711.2803,,,,,,1334,FEM,AGR,150,corona,la,a,0.6736,,711.2804,711.2805,-0.023148148,0.255555556,0,0,0,,0,169,169,433,1,,,,,
,,,,,,b11f81498bad26ff678cda9c,66a626ef09d4e21e1a8894ec,673497b719751d47e62445da,2024-11-13_13h13.11.462,Tarea de género gramatical,2024.2.2,Win32,60.24096386,,,,,,,,,,,,,,,,,,,,,,,711.2814,713.5303,l,1,[],[],[],[],[],[],[],1.5751,1,713.5304,714.0303,,,,,,934,MAS,DIS,150,gato,la,l,1.5751,,714.0304,714.0305,-0.023148148,0.255555556,0,0,0,,0,170,170,33,1,,,,,
,,,,,,b11f81498bad26ff678cda9c,66a626ef09d4e21e1a8894ec,673497b719751d47e62445da,2024-11-13_13h13.11.462,Tarea de género gramatical,2024.2.2,Win32,60.24096386,,,,,,,,,,,,,,,,,,,,,,,714.0314,715.664,a,1,[],[],[],[],[],[],[],0.9601,1,715.6641,716.1637,,,,,,1022,FEM,AGR,150,loca,la,a,0.9601,,716.1639,716.1639,-0.023148148,0.255555556,0,0,0,,0,171,171,121,1,,,,,
,,,,,,b11f81498bad26ff678cda9c,66a626ef09d4e21e1a8894ec,673497b719751d47e62445da,2024-11-13_13h13.11.462,Tarea de género gramatical,2024.2.2,Win32,60.24096386,,,,,,,,,,,,,,,,,,,,,,,716.1648,717.7641,l,1,[],[],[],[],[],[],[],0.9222,1,717.7641,718.2641,,,,,,917,MAS,AGR,150,modo,el,l,0.9222,,718.2642,718.2642,-0.023148148,0.255555556,0,0,0,,0,172,172,16,1,,,,,
,,,,,,b11f81498bad26ff678cda9c,66a626ef09d4e21e1a8894ec,673497b719751d47e62445da,2024-11-13_13h13.11.462,Tarea de género gramatical,2024.2.2,Win32,60.24096386,,,,,,,,,,,,,,,,,,,,,,,718.265,719.9473,a,1,[],[],[],[],[],[],[],1.0055,1,719.9474,720.4469,,,,,,1017,FEM,CON,150,raya,,a,1.0055,,720.4479,720.4486,-0.023148148,0.255555556,0,0,0,,0,173,173,116,1,,,,,
,,,,,,b11f81498bad26ff678cda9c,66a626ef09d4e21e1a8894ec,673497b719751d47e62445da,2024-11-13_13h13.11.462,Tarea de género gramatical,2024.2.2,Win32,60.24096386,,,,,,,,,,,,,,,,,,,,,,,720.4493,722.0137,a,1,[],[],[],[],[],[],[],0.8874,1,722.0138,722.5135,,,,,,1129,FEM,DIS,150,celda,el,a,0.8874,,722.5136,722.5136,-0.023148148,0.255555556,0,0,0,,0,174,174,228,1,,,,,
,,,,,,b11f81498bad26ff678cda9c,66a626ef09d4e21e1a8894ec,673497b719751d47e62445da,2024-11-13_13h13.11.462,Tarea de género gramatical,2024.2.2,Win32,60.24096386,,,,,,,,,,,,,,,,,,,,,,,722.5144,723.9135,l,1,[],[],[],[],[],[],[],0.7171,1,723.9135,724.4135,,,,,,1156,MAS,DIS,150,techo,la,l,0.7171,,724.4136,724.4137,-0.023148148,0.255555556,0,0,0,,0,175,175,255,1,,,,,
,,,,,,b11f81498bad26ff678cda9c,66a626ef09d4e21e1a8894ec,673497b719751d47e62445da,2024-11-13_13h13.11.462,Tarea de género gramatical,2024.2.2,Win32,60.24096386,,,,,,,,,,,,,,,,,,,,,,,724.4146,726.5633,a,1,[],[],[],[],[],[],[],1.4679,1,726.5635,727.064,,,,,,1071,FEM,CON,150,mitad,,a,1.4679,,727.064,727.0642,-0.023148148,0.255555556,0,0,0,,0,176,176,170,1,,,,,
,,,,,,b11f81498bad26ff678cda9c,66a626ef09d4e21e1a8894ec,673497b719751d47e62445da,2024-11-13_13h13.11.462,Tarea de género gramatical,2024.2.2,Win32,60.24096386,,,,,,,,,,,,,,,,,,,,,,,727.065,728.7636,l,1,[],[],[],[],[],[],[],1.0216,1,728.7637,729.2634,,,,,,1338,MAS,CON,150,tanque,,l,1.0216,,729.2643,729.2648,-0.023148148,0.255555556,0,0,0,,0,177,177,437,1,,,,,
,,,,,,b11f81498bad26ff678cda9c,66a626ef09d4e21e1a8894ec,673497b719751d47e62445da,2024-11-13_13h13.11.462,Tarea de género gramatical,2024.2.2,Win32,60.24096386,,,,,,,,,,,,,,,,,,,,,,,729.2654,731.2298,a,1,[],[],[],[],[],[],[],1.2943,1,731.2299,731.73,,,,,,1280,FEM,AGR,150,madera,la,a,1.2943,,731.73,731.7301,-0.023148148,0.255555556,0,0,0,,0,178,178,379,1,,,,,
,,,,,,b11f81498bad26ff678cda9c,66a626ef09d4e21e1a8894ec,673497b719751d47e62445da,2024-11-13_13h13.11.462,Tarea de género gramatical,2024.2.2,Win32,60.24096386,,,,,,,,,,,,,,,,,,,,,,,731.7309,733.7966,l,0,[],[],[],[],[],[],[],1.3877,0,733.7975,734.297,,,,,,1304,FEM,AGR,150,gloria,la,a,1.3877,,734.2971,734.2972,-0.023148148,0.255555556,0,0,0,,0,179,179,403,1,,,,,
,,,,,,b11f81498bad26ff678cda9c,66a626ef09d4e21e1a8894ec,673497b719751d47e62445da,2024-11-13_13h13.11.462,Tarea de género gramatical,2024.2.2,Win32,60.24096386,,,,,,,,,,,,,,,,,,,,,,,734.2986,736.547,l,1,[],[],[],[],[],[],[],1.5678,1,736.5478,737.0469,,,,,,1288,MAS,DIS,150,empleo,la,l,1.5678,,737.047,737.0471,-0.023148148,0.255555556,0,0,0,,0,180,180,387,1,,,,,
,,,,,,b11f81498bad26ff678cda9c,66a626ef09d4e21e1a8894ec,673497b719751d47e62445da,2024-11-13_13h13.11.462,Tarea de género gramatical,2024.2.2,Win32,60.24096386,,,,,,,,,,,,,,,,,,,,,,,737.0481,738.5303,l,1,[],[],[],[],[],[],[],0.8098,1,738.5303,739.0305,,,,,,988,MAS,DIS,150,pavo,la,l,0.8098,,739.0305,739.0306,-0.023148148,0.255555556,0,0,0,,0,181,181,87,1,,,,,
,,,,,,b11f81498bad26ff678cda9c,66a626ef09d4e21e1a8894ec,673497b719751d47e62445da,2024-11-13_13h13.11.462,Tarea de género gramatical,2024.2.2,Win32,60.24096386,,,,,,,,,,,,,,,,,,,,,,,739.0316,740.4473,a,1,[],[],[],[],[],[],[],0.738,1,740.4474,740.947,,,,,,1027,FEM,DIS,150,cuna,el,a,0.738,,740.9481,740.9486,-0.023148148,0.255555556,0,0,0,,0,182,182,126,1,,,,,
,,,,,,b11f81498bad26ff678cda9c,66a626ef09d4e21e1a8894ec,673497b719751d47e62445da,2024-11-13_13h13.11.462,Tarea de género gramatical,2024.2.2,Win32,60.24096386,,,,,,,,,,,,,,,,,,,,,,,740.9491,742.3964,l,1,[],[],[],[],[],[],[],0.7699,1,742.3965,742.8964,,,,,,929,MAS,AGR,150,frío,el,l,0.7699,,742.8964,742.8965,-0.023148148,0.255555556,0,0,0,,0,183,183,28,1,,,,,
,,,,,,b11f81498bad26ff678cda9c,66a626ef09d4e21e1a8894ec,673497b719751d47e62445da,2024-11-13_13h13.11.462,Tarea de género gramatical,2024.2.2,Win32,60.24096386,,,,,,,,,,,,,,,,,,,,,,,742.8974,744.2802,l,1,[],[],[],[],[],[],[],0.7119,1,744.2803,744.7799,,,,,,1103,MAS,AGR,150,novio,el,l,0.7119,,744.78,744.7801,-0.023148148,0.255555556,0,0,0,,0,184,184,202,1,,,,,
,,,,,,b11f81498bad26ff678cda9c,66a626ef09d4e21e1a8894ec,673497b719751d47e62445da,2024-11-13_13h13.11.462,Tarea de género gramatical,2024.2.2,Win32,60.24096386,,,,,,,,,,,,,,,,,,,,,,,744.7811,746.2131,l,1,[],[],[],[],[],[],[],0.7476,1,746.2132,746.7134,,,,,,976,MAS,DIS,150,lujo,la,l,0.7476,,746.7135,746.7136,-0.023148148,0.255555556,0,0,0,,0,185,185,75,1,,,,,
,,,,,,b11f81498bad26ff678cda9c,66a626ef09d4e21e1a8894ec,673497b719751d47e62445da,2024-11-13_13h13.11.462,Tarea de género gramatical,2024.2.2,Win32,60.24096386,,,,,,,,,,,,,,,,,,,,,,,746.715,748.3133,l,1,[],[],[],[],[],[],[],0.919,1,748.3135,748.8135,,,,,,1008,MAS,CON,150,hilo,,l,0.919,,748.8148,748.8152,-0.023148148,0.255555556,0,0,0,,0,186,186,107,1,,,,,
,,,,,,b11f81498bad26ff678cda9c,66a626ef09d4e21e1a8894ec,673497b719751d47e62445da,2024-11-13_13h13.11.462,Tarea de género gramatical,2024.2.2,Win32,60.24096386,,,,,,,,,,,,,,,,,,,,,,,748.8158,750.1629,l,1,[],[],[],[],[],[],[],0.6758,1,750.163,750.663,,,,,,1108,MAS,DIS,150,suelo,la,l,0.6758,,750.6631,750.6631,-0.023148148,0.255555556,0,0,0,,0,187,187,207,1,,,,,
,,,,,,b11f81498bad26ff678cda9c,66a626ef09d4e21e1a8894ec,673497b719751d47e62445da,2024-11-13_13h13.11.462,Tarea de género gramatical,2024.2.2,Win32,60.24096386,,,,,,,,,,,,,,,,,,,,,,,750.664,752.0129,l,1,[],[],[],[],[],[],[],0.6733,1,752.0131,752.5134,,,,,,1050,MAS,CON,150,mozo,,l,0.6733,,752.5134,752.5136,-0.023148148,0.255555556,0,0,0,,0,188,188,149,1,,,,,
,,,,,,b11f81498bad26ff678cda9c,66a626ef09d4e21e1a8894ec,673497b719751d47e62445da,2024-11-13_13h13.11.462,Tarea de género gramatical,2024.2.2,Win32,60.24096386,,,,,,,,,,,,,,,,,,,,,,,752.5144,753.8134,l,1,[],[],[],[],[],[],[],0.623,1,753.8135,754.3128,,,,,,1127,MAS,AGR,150,vuelo,el,l,0.623,,754.3129,754.3129,-0.023148148,0.255555556,0,0,0,,0,189,189,226,1,,,,,
,,,,,,b11f81498bad26ff678cda9c,66a626ef09d4e21e1a8894ec,673497b719751d47e62445da,2024-11-13_13h13.11.462,Tarea de género gramatical,2024.2.2,Win32,60.24096386,,,,,,,,,,,,,,,,,,,,,,,754.3139,755.6294,l,1,[],[],[],[],[],[],[],0.647,1,755.6295,756.1298,,,,,,1325,MAS,AGR,150,chiste,el,l,0.647,,756.1299,756.1299,-0.023148148,0.255555556,0,0,0,,0,190,190,424,1,,,,,
,,,,,,b11f81498bad26ff678cda9c,66a626ef09d4e21e1a8894ec,673497b719751d47e62445da,2024-11-13_13h13.11.462,Tarea de género gramatical,2024.2.2,Win32,60.24096386,,,,,,,,,,,,,,,,,,,,,,,756.1309,757.663,a,1,[],[],[],[],[],[],[],0.8587,1,757.663,758.1627,,,,,,1231,FEM,DIS,150,cárcel,el,a,0.8587,,758.1639,758.1644,-0.023148148,0.255555556,0,0,0,,0,191,191,330,1,,,,,
,,,,,,b11f81498bad26ff678cda9c,66a626ef09d4e21e1a8894ec,673497b719751d47e62445da,2024-11-13_13h13.11.462,Tarea de género gramatical,2024.2.2,Win32,60.24096386,,,,,,,,,,,,,,,,,,,,,,,758.1649,759.4296,l,1,[],[],[],[],[],[],[],0.5855,1,759.4297,759.93,,,,,,1320,MAS,CON,150,helado,,l,0.5855,,759.93,759.9301,-0.023148148,0.255555556,0,0,0,,0,192,192,419,1,,,,,
,,,,,,b11f81498bad26ff678cda9c,66a626ef09d4e21e1a8894ec,673497b719751d47e62445da,2024-11-13_13h13.11.462,Tarea de género gramatical,2024.2.2,Win32,60.24096386,,,,,,,,,,,,,,,,,,,,,,,759.9309,761.5297,a,1,[],[],[],[],[],[],[],0.9243,1,761.5298,762.0298,,,,,,1167,FEM,CON,150,barba,,a,0.9243,,762.0298,762.0299,-0.023148148,0.255555556,0,0,0,,0,193,193,266,1,,,,,
,,,,,,b11f81498bad26ff678cda9c,66a626ef09d4e21e1a8894ec,673497b719751d47e62445da,2024-11-13_13h13.11.462,Tarea de género gramatical,2024.2.2,Win32,60.24096386,,,,,,,,,,,,,,,,,,,,,,,762.0308,763.1961,a,1,[],[],[],[],[],[],[],0.4842,1,763.1961,763.6961,,,,,,903,FEM,CON,150,cosa,,a,0.4842,,763.6962,763.6962,-0.023148148,0.255555556,0,0,0,,0,194,194,2,1,,,,,
,,,,,,b11f81498bad26ff678cda9c,66a626ef09d4e21e1a8894ec,673497b719751d47e62445da,2024-11-13_13h13.11.462,Tarea de género gramatical,2024.2.2,Win32,60.24096386,,,,,,,,,,,,,,,,,,,,,,,763.6973,764.9793,a,1,[],[],[],[],[],[],[],0.5975,1,764.9794,765.4795,,,,,,1136,FEM,AGR,150,deuda,la,a,0.5975,,765.4809,765.4814,-0.023148148,0.255555556,0,0,0,,0,195,195,235,1,,,,,
,,,,,,b11f81498bad26ff678cda9c,66a626ef09d4e21e1a8894ec,673497b719751d47e62445da,2024-11-13_13h13.11.462,Tarea de género gramatical,2024.2.2,Win32,60.24096386,,,,,,,,,,,,,,,,,,,,,,,765.4819,766.7461,l,1,[],[],[],[],[],[],[],0.5892,1,766.7463,767.2466,,,,,,1043,MAS,AGR,150,faro,el,l,0.5892,,767.2467,767.2469,-0.023148148,0.255555556,0,0,0,,0,196,196,142,1,,,,,
,,,,,,b11f81498bad26ff678cda9c,66a626ef09d4e21e1a8894ec,673497b719751d47e62445da,2024-11-13_13h13.11.462,Tarea de género gramatical,2024.2.2,Win32,60.24096386,,,,,,,,,,,,,,,,,,,,,,,767.248,768.48,a,1,[],[],[],[],[],[],[],0.5585,1,768.4802,768.9799,,,,,,1059,FEM,CON,150,clase,,a,0.5585,,768.9799,768.98,-0.023148148,0.255555556,0,0,0,,0,197,197,158,1,,,,,
,,,,,,b11f81498bad26ff678cda9c,66a626ef09d4e21e1a8894ec,673497b719751d47e62445da,2024-11-13_13h13.11.462,Tarea de género gramatical,2024.2.2,Win32,60.24096386,,,,,,,,,,,,,,,,,,,,,,,768.9813,770.1293,l,1,[],[],[],[],[],[],[],0.474,1,770.1294,770.6297,,,,,,1264,MAS,DIS,150,viento,la,l,0.474,,770.6297,770.6298,-0.023148148,0.255555556,0,0,0,,0,198,198,363,1,,,,,
,,,,,,b11f81498bad26ff678cda9c,66a626ef09d4e21e1a8894ec,673497b719751d47e62445da,2024-11-13_13h13.11.462,Tarea de género gramatical,2024.2.2,Win32,60.24096386,,,,,,,,,,,,,,,,,,,,,,,770.6308,771.7291,l,1,[],[],[],[],[],[],[],0.4174,1,771.7292,772.2295,,,,,,1018,MAS,DIS,150,baúl,la,l,0.4174,,772.2296,772.2296,-0.023148148,0.255555556,0,0,0,,0,199,199,117,1,,,,,
,,,,,,b11f81498bad26ff678cda9c,66a626ef09d4e21e1a8894ec,673497b719751d47e62445da,2024-11-13_13h13.11.462,Tarea de género gramatical,2024.2.2,Win32,60.24096386,,,,,,,,,,,,,,,,,,,,,,,772.2304,773.3293,l,1,[],[],[],[],[],[],[],0.423,1,773.3294,773.8294,,,,,,1206,MAS,CON,150,dinero,,l,0.423,,773.8305,773.831,-0.023148148,0.255555556,0,0,0,,0,200,200,305,1,,,,,
,,,,,,b11f81498bad26ff678cda9c,66a626ef09d4e21e1a8894ec,673497b719751d47e62445da,2024-11-13_13h13.11.462,Tarea de género gramatical,2024.2.2,Win32,60.24096386,,,,,,,,,,,,,,,,,,,,,,,773.8317,774.9797,a,1,[],[],[],[],[],[],[],0.4678,1,774.9798,775.4795,,,,,,1285,FEM,DIS,150,muñeca,el,a,0.4678,,775.4795,775.4796,-0.023148148,0.255555556,0,0,0,,0,201,201,384,1,,,,,
,,,,,,b11f81498bad26ff678cda9c,66a626ef09d4e21e1a8894ec,673497b719751d47e62445da,2024-11-13_13h13.11.462,Tarea de género gramatical,2024.2.2,Win32,60.24096386,,,,,,,,,,,,,,,,,,,,,,,775.4805,776.9295,a,1,[],[],[],[],[],[],[],0.7674,1,776.9297,777.4294,,,,,,1255,FEM,DIS,150,mirada,el,a,0.7674,,777.4294,777.4295,-0.023148148,0.255555556,0,0,0,,0,202,202,354,1,,,,,
,,,,,,b11f81498bad26ff678cda9c,66a626ef09d4e21e1a8894ec,673497b719751d47e62445da,2024-11-13_13h13.11.462,Tarea de género gramatical,2024.2.2,Win32,60.24096386,,,,,,,,,,,,,,,,,,,,,,,777.4306,778.6291,a,1,[],[],[],[],[],[],[],0.5133,1,778.6292,779.1293,,,,,,1274,FEM,AGR,150,herida,la,a,0.5133,,779.1293,779.1295,-0.023148148,0.255555556,0,0,0,,0,203,203,373,1,,,,,
,,,,,,b11f81498bad26ff678cda9c,66a626ef09d4e21e1a8894ec,673497b719751d47e62445da,2024-11-13_13h13.11.462,Tarea de género gramatical,2024.2.2,Win32,60.24096386,,,,,,,,,,,,,,,,,,,,,,,779.1305,780.3127,l,1,[],[],[],[],[],[],[],0.5084,1,780.3129,780.8128,,,,,,1283,MAS,AGR,150,parque,el,l,0.5084,,780.8139,780.8145,-0.023148148,0.255555556,0,0,0,,0,204,204,382,1,,,,,
,,,,,,b11f81498bad26ff678cda9c,66a626ef09d4e21e1a8894ec,673497b719751d47e62445da,2024-11-13_13h13.11.462,Tarea de género gramatical,2024.2.2,Win32,60.24096386,,,,,,,,,,,,,,,,,,,,,,,780.8149,781.9627,l,0,[],[],[],[],[],[],[],0.4714,0,781.9636,782.4623,,,,,,1227,FEM,CON,150,tienda,,a,0.4714,,782.4623,782.4624,-0.023148148,0.255555556,0,0,0,,0,205,205,326,1,,,,,
,,,,,,b11f81498bad26ff678cda9c,66a626ef09d4e21e1a8894ec,673497b719751d47e62445da,2024-11-13_13h13.11.462,Tarea de género gramatical,2024.2.2,Win32,60.24096386,,,,,,,,,,,,,,,,,,,,,,,782.4635,783.7795,a,1,[],[],[],[],[],[],[],0.6378,1,783.7801,784.2792,,,,,,1113,FEM,CON,150,magia,,a,0.6378,,784.2794,784.2794,-0.023148148,0.255555556,0,0,0,,0,206,206,212,1,,,,,
,,,,,,b11f81498bad26ff678cda9c,66a626ef09d4e21e1a8894ec,673497b719751d47e62445da,2024-11-13_13h13.11.462,Tarea de género gramatical,2024.2.2,Win32,60.24096386,,,,,,,,,,,,,,,,,,,,,,,784.2802,785.7456,a,1,[],[],[],[],[],[],[],0.7938,1,785.7457,786.2455,,,,,,1160,FEM,AGR,150,barra,la,a,0.7938,,786.2455,786.2456,-0.023148148,0.255555556,0,0,0,,0,207,207,259,1,,,,,
,,,,,,b11f81498bad26ff678cda9c,66a626ef09d4e21e1a8894ec,673497b719751d47e62445da,2024-11-13_13h13.11.462,Tarea de género gramatical,2024.2.2,Win32,60.24096386,,,,,,,,,,,,,,,,,,,,,,,786.2464,787.4294,a,1,[],[],[],[],[],[],[],0.5279,1,787.4295,787.929,,,,,,1070,FEM,AGR,150,carta,la,a,0.5279,,787.929,787.929,-0.023148148,0.255555556,0,0,0,,0,208,208,169,1,,,,,
,,,,,,b11f81498bad26ff678cda9c,66a626ef09d4e21e1a8894ec,673497b719751d47e62445da,2024-11-13_13h13.11.462,Tarea de género gramatical,2024.2.2,Win32,60.24096386,,,,,,,,,,,,,,,,,,,,,,,787.9299,789.7296,a,1,[],[],[],[],[],[],[],1.1271,1,789.7298,790.2298,,,,,,1165,FEM,DIS,150,rueda,el,a,1.1271,,790.2311,790.2317,-0.023148148,0.255555556,0,0,0,,0,209,209,264,1,,,,,
,,,,,,b11f81498bad26ff678cda9c,66a626ef09d4e21e1a8894ec,673497b719751d47e62445da,2024-11-13_13h13.11.462,Tarea de género gramatical,2024.2.2,Win32,60.24096386,,,,,,,,,,,,,,,,,,,,,,,790.2324,791.3624,a,1,[],[],[],[],[],[],[],0.4546,1,791.3625,791.8627,,,,,,1077,FEM,CON,150,broma,,a,0.4546,,791.8628,791.8629,-0.023148148,0.255555556,0,0,0,,0,210,210,176,1,,,,,
,,,,,,b11f81498bad26ff678cda9c,66a626ef09d4e21e1a8894ec,673497b719751d47e62445da,2024-11-13_13h13.11.462,Tarea de género gramatical,2024.2.2,Win32,60.24096386,,,,,,,,,,,,,,,,,,,,,,,791.8639,793.0293,a,1,[],[],[],[],[],[],[],0.4828,1,793.0295,793.5293,,,,,,997,FEM,DIS,150,capa,el,a,0.4828,,793.5294,793.5294,-0.023148148,0.255555556,0,0,0,,0,211,211,96,1,,,,,
,,,,,,b11f81498bad26ff678cda9c,66a626ef09d4e21e1a8894ec,673497b719751d47e62445da,2024-11-13_13h13.11.462,Tarea de género gramatical,2024.2.2,Win32,60.24096386,,,,,,,,,,,,,,,,,,,,,,,793.531,794.9796,l,1,[],[],[],[],[],[],[],0.7656,1,794.9797,795.4795,,,,,,1222,MAS,DIS,150,minuto,la,l,0.7656,,795.4795,795.4797,-0.023148148,0.255555556,0,0,0,,0,212,212,321,1,,,,,
,,,,,,b11f81498bad26ff678cda9c,66a626ef09d4e21e1a8894ec,673497b719751d47e62445da,2024-11-13_13h13.11.462,Tarea de género gramatical,2024.2.2,Win32,60.24096386,,,,,,,,,,,,,,,,,,,,,,,795.4806,796.6126,l,1,[],[],[],[],[],[],[],0.4519,1,796.6127,797.113,,,,,,1020,MAS,CON,150,puño,,l,0.4519,,797.1144,797.1153,-0.023148148,0.255555556,0,0,0,,0,213,213,119,1,,,,,
,,,,,,b11f81498bad26ff678cda9c,66a626ef09d4e21e1a8894ec,673497b719751d47e62445da,2024-11-13_13h13.11.462,Tarea de género gramatical,2024.2.2,Win32,60.24096386,,,,,,,,,,,,,,,,,,,,,,,797.1159,798.3461,l,1,[],[],[],[],[],[],[],0.5559,1,798.3461,798.8458,,,,,,1193,MAS,AGR,150,patio,el,l,0.5559,,798.8458,798.8459,-0.023148148,0.255555556,0,0,0,,0,214,214,292,1,,,,,
,,,,,,b11f81498bad26ff678cda9c,66a626ef09d4e21e1a8894ec,673497b719751d47e62445da,2024-11-13_13h13.11.462,Tarea de género gramatical,2024.2.2,Win32,60.24096386,,,,,,,,,,,,,,,,,,,,,,,798.8469,800.0124,a,1,[],[],[],[],[],[],[],0.49,1,800.0126,800.5122,,,,,,1065,FEM,CON,150,amiga,,a,0.49,,800.5123,800.5124,-0.023148148,0.255555556,0,0,0,,0,215,215,164,1,,,,,
,,,,,,b11f81498bad26ff678cda9c,66a626ef09d4e21e1a8894ec,673497b719751d47e62445da,2024-11-13_13h13.11.462,Tarea de género gramatical,2024.2.2,Win32,60.24096386,,,,,,,,,,,,,,,,,,,,,,,800.5136,802.0121,l,1,[],[],[],[],[],[],[],0.82,1,802.0122,802.5122,,,,,,964,MAS,DIS,150,saco,la,l,0.82,,802.5122,802.5122,-0.023148148,0.255555556,0,0,0,,0,216,216,63,1,,,,,
,,,,,,b11f81498bad26ff678cda9c,66a626ef09d4e21e1a8894ec,673497b719751d47e62445da,2024-11-13_13h13.11.462,Tarea de género gramatical,2024.2.2,Win32,60.24096386,,,,,,,,,,,,,,,,,,,,,,,802.5133,804.2292,a,1,[],[],[],[],[],[],[],1.0386,1,804.2295,804.7291,,,,,,963,FEM,CON,150,fila,,a,1.0386,,804.7293,804.7294,-0.023148148,0.255555556,0,0,0,,0,217,217,62,1,,,,,
,,,,,,b11f81498bad26ff678cda9c,66a626ef09d4e21e1a8894ec,673497b719751d47e62445da,2024-11-13_13h13.11.462,Tarea de género gramatical,2024.2.2,Win32,60.24096386,,,,,,,,,,,,,,,,,,,,,,,804.7305,806.6289,a,1,[],[],[],[],[],[],[],1.2236,1,806.6291,807.1289,,,,,,1173,FEM,CON,150,tarta,,a,1.2236,,807.1302,807.1309,-0.023148148,0.255555556,0,0,0,,0,218,218,272,1,,,,,
,,,,,,b11f81498bad26ff678cda9c,66a626ef09d4e21e1a8894ec,673497b719751d47e62445da,2024-11-13_13h13.11.462,Tarea de género gramatical,2024.2.2,Win32,60.24096386,,,,,,,,,,,,,,,,,,,,,,,807.1314,808.5125,l,1,[],[],[],[],[],[],[],0.7069,1,808.5125,809.0119,,,,,,1212,MAS,CON,150,equipo,,l,0.7069,,809.0119,809.012,-0.023148148,0.255555556,0,0,0,,0,219,219,311,1,,,,,
,,,,,,b11f81498bad26ff678cda9c,66a626ef09d4e21e1a8894ec,673497b719751d47e62445da,2024-11-13_13h13.11.462,Tarea de género gramatical,2024.2.2,Win32,60.24096386,,,,,,,,,,,,,,,,,,,,,,,809.013,810.7121,a,1,[],[],[],[],[],[],[],1.0173,1,810.7122,811.2119,,,,,,908,FEM,AGR,150,idea,la,a,1.0173,,811.212,811.2121,-0.023148148,0.255555556,0,0,0,,0,220,220,7,1,,,,,
,,,,,,b11f81498bad26ff678cda9c,66a626ef09d4e21e1a8894ec,673497b719751d47e62445da,2024-11-13_13h13.11.462,Tarea de género gramatical,2024.2.2,Win32,60.24096386,,,,,,,,,,,,,,,,,,,,,,,811.2132,812.429,a,1,[],[],[],[],[],[],[],0.5351,1,812.4292,812.929,,,,,,1016,FEM,AGR,150,nube,la,a,0.5351,,812.9291,812.9292,-0.023148148,0.255555556,0,0,0,,0,221,221,115,1,,,,,
,,,,,,b11f81498bad26ff678cda9c,66a626ef09d4e21e1a8894ec,673497b719751d47e62445da,2024-11-13_13h13.11.462,Tarea de género gramatical,2024.2.2,Win32,60.24096386,,,,,,,,,,,,,,,,,,,,,,,812.9302,814.2625,l,1,[],[],[],[],[],[],[],0.6551,1,814.2626,814.7619,,,,,,1313,MAS,AGR,150,diario,el,l,0.6551,,814.7628,814.7635,-0.023148148,0.255555556,0,0,0,,0,222,222,412,1,,,,,
,,,,,,b11f81498bad26ff678cda9c,66a626ef09d4e21e1a8894ec,673497b719751d47e62445da,2024-11-13_13h13.11.462,Tarea de género gramatical,2024.2.2,Win32,60.24096386,,,,,,,,,,,,,,,,,,,,,,,814.764,816.4289,a,0,[],[],[],[],[],[],[],0.9898,0,816.4297,816.9288,,,,,,1186,MAS,DIS,150,reino,la,l,0.9898,,816.929,816.929,-0.023148148,0.255555556,0,0,0,,0,223,223,285,1,,,,,
,,,,,,b11f81498bad26ff678cda9c,66a626ef09d4e21e1a8894ec,673497b719751d47e62445da,2024-11-13_13h13.11.462,Tarea de género gramatical,2024.2.2,Win32,60.24096386,,,,,,,,,,,,,,,,,,,,,,,816.9297,818.3117,l,1,[],[],[],[],[],[],[],0.6997,1,818.3127,818.8118,,,,,,1194,MAS,CON,150,cable,,l,0.6997,,818.8118,818.8119,-0.023148148,0.255555556,0,0,0,,0,224,224,293,1,,,,,
,,,,,,b11f81498bad26ff678cda9c,66a626ef09d4e21e1a8894ec,673497b719751d47e62445da,2024-11-13_13h13.11.462,Tarea de género gramatical,2024.2.2,Win32,60.24096386,,,,,,,,,,,,,,,,,,,,,,,818.813,820.3954,l,1,[],[],[],[],[],[],[],0.9046,1,820.3956,820.8952,,,,,,1061,MAS,AGR,150,chico,el,l,0.9046,,820.8953,820.8954,-0.023148148,0.255555556,0,0,0,,0,225,225,160,1,,,,,
,,,,,,b11f81498bad26ff678cda9c,66a626ef09d4e21e1a8894ec,673497b719751d47e62445da,2024-11-13_13h13.11.462,Tarea de género gramatical,2024.2.2,Win32,60.24096386,,,,,,,,,,,,,,,,,,,,,,,820.8964,822.262,a,1,[],[],[],[],[],[],[],0.6842,1,822.2621,822.762,,,,,,1257,FEM,CON,150,lengua,,a,0.6842,,822.7621,822.7623,-0.023148148,0.255555556,0,0,0,,0,226,226,356,1,,,,,
,,,,,,b11f81498bad26ff678cda9c,66a626ef09d4e21e1a8894ec,673497b719751d47e62445da,2024-11-13_13h13.11.462,Tarea de género gramatical,2024.2.2,Win32,60.24096386,,,,,,,,,,,,,,,,,,,,,,,822.7632,824.4448,l,1,[],[],[],[],[],[],[],1.0017,1,824.445,824.9449,,,,,,1326,MAS,CON,150,pánico,,l,1.0017,,824.9459,824.9465,-0.023148148,0.255555556,0,0,0,,0,227,227,425,1,,,,,
,,,,,,b11f81498bad26ff678cda9c,66a626ef09d4e21e1a8894ec,673497b719751d47e62445da,2024-11-13_13h13.11.462,Tarea de género gramatical,2024.2.2,Win32,60.24096386,,,,,,,,,,,,,,,,,,,,,,,824.9469,826.1787,l,1,[],[],[],[],[],[],[],0.5465,1,826.1789,826.6781,,,,,,1002,MAS,CON,150,coro,,l,0.5465,,826.6781,826.6782,-0.023148148,0.255555556,0,0,0,,0,228,228,101,1,,,,,
,,,,,,b11f81498bad26ff678cda9c,66a626ef09d4e21e1a8894ec,673497b719751d47e62445da,2024-11-13_13h13.11.462,Tarea de género gramatical,2024.2.2,Win32,60.24096386,,,,,,,,,,,,,,,,,,,,,,,826.6792,827.8616,a,1,[],[],[],[],[],[],[],0.5002,1,827.8617,828.3619,,,,,,1142,FEM,AGR,150,pizza,la,a,0.5002,,828.3619,828.3621,-0.023148148,0.255555556,0,0,0,,0,229,229,241,1,,,,,
,,,,,,b11f81498bad26ff678cda9c,66a626ef09d4e21e1a8894ec,673497b719751d47e62445da,2024-11-13_13h13.11.462,Tarea de género gramatical,2024.2.2,Win32,60.24096386,,,,,,,,,,,,,,,,,,,,,,,828.3628,829.9616,a,1,[],[],[],[],[],[],[],0.9269,1,829.9617,830.4617,,,,,,1233,FEM,CON,150,locura,,a,0.9269,,830.4618,830.4619,-0.023148148,0.255555556,0,0,0,,0,230,230,332,1,,,,,
,,,,,,b11f81498bad26ff678cda9c,66a626ef09d4e21e1a8894ec,673497b719751d47e62445da,2024-11-13_13h13.11.462,Tarea de género gramatical,2024.2.2,Win32,60.24096386,,,,,,,,,,,,,,,,,,,,,,,830.4629,831.7951,a,1,[],[],[],[],[],[],[],0.6579,1,831.7951,832.2948,,,,,,1256,FEM,AGR,150,piedra,la,a,0.6579,,832.2957,832.2962,-0.023148148,0.255555556,0,0,0,,0,231,231,355,1,,,,,
,,,,,,b11f81498bad26ff678cda9c,66a626ef09d4e21e1a8894ec,673497b719751d47e62445da,2024-11-13_13h13.11.462,Tarea de género gramatical,2024.2.2,Win32,60.24096386,,,,,,,,,,,,,,,,,,,,,,,832.2967,834.4781,a,1,[],[],[],[],[],[],[],1.5089,1,834.4782,834.9784,,,,,,981,FEM,CON,150,cima,,a,1.5089,,834.9784,834.9786,-0.023148148,0.255555556,0,0,0,,0,232,232,80,1,,,,,
,,,,,,b11f81498bad26ff678cda9c,66a626ef09d4e21e1a8894ec,673497b719751d47e62445da,2024-11-13_13h13.11.462,Tarea de género gramatical,2024.2.2,Win32,60.24096386,,,,,,,,,,,,,,,,,,,,,,,834.9794,837.2447,l,0,[],[],[],[],[],[],[],1.5839,0,837.2455,837.7447,,,,,,1125,FEM,CON,150,pieza,,a,1.5839,,837.7447,837.7448,-0.023148148,0.255555556,0,0,0,,0,233,233,224,1,,,,,
,,,,,,b11f81498bad26ff678cda9c,66a626ef09d4e21e1a8894ec,673497b719751d47e62445da,2024-11-13_13h13.11.462,Tarea de género gramatical,2024.2.2,Win32,60.24096386,,,,,,,,,,,,,,,,,,,,,,,837.7457,839.6614,l,1,[],[],[],[],[],[],[],1.2433,1,839.6621,840.1616,,,,,,1114,MAS,DIS,150,fondo,la,l,1.2433,,840.1617,840.1618,-0.023148148,0.255555556,0,0,0,,0,234,234,213,1,,,,,
,,,,,,b11f81498bad26ff678cda9c,66a626ef09d4e21e1a8894ec,673497b719751d47e62445da,2024-11-13_13h13.11.462,Tarea de género gramatical,2024.2.2,Win32,60.24096386,,,,,,,,,,,,,,,,,,,,,,,840.163,841.4951,a,1,[],[],[],[],[],[],[],0.6555,1,841.4953,841.995,,,,,,925,FEM,DIS,150,nave,el,a,0.6555,,841.9951,841.9951,-0.023148148,0.255555556,0,0,0,,0,235,235,24,1,,,,,
,,,,,,b11f81498bad26ff678cda9c,66a626ef09d4e21e1a8894ec,673497b719751d47e62445da,2024-11-13_13h13.11.462,Tarea de género gramatical,2024.2.2,Win32,60.24096386,,,,,,,,,,,,,,,,,,,,,,,841.9966,843.4785,l,1,[],[],[],[],[],[],[],0.8002,1,843.4785,843.9782,,,,,,1330,MAS,DIS,150,título,la,l,0.8002,,843.9791,843.9798,-0.023148148,0.255555556,0,0,0,,0,236,236,429,1,,,,,
,,,,,,b11f81498bad26ff678cda9c,66a626ef09d4e21e1a8894ec,673497b719751d47e62445da,2024-11-13_13h13.11.462,Tarea de género gramatical,2024.2.2,Win32,60.24096386,,,,,,,,,,,,,,,,,,,,,,,843.9803,845.3613,l,1,[],[],[],[],[],[],[],0.7052,1,845.3614,845.8615,,,,,,1054,MAS,DIS,150,padre,la,l,0.7052,,845.8615,845.8616,-0.023148148,0.255555556,0,0,0,,0,237,237,153,1,,,,,
,,,,,,b11f81498bad26ff678cda9c,66a626ef09d4e21e1a8894ec,673497b719751d47e62445da,2024-11-13_13h13.11.462,Tarea de género gramatical,2024.2.2,Win32,60.24096386,,,,,,,,,,,,,,,,,,,,,,,845.8627,847.095,l,1,[],[],[],[],[],[],[],0.5544,1,847.095,847.5948,,,,,,1134,MAS,CON,150,héroe,,l,0.5544,,847.5948,847.5949,-0.023148148,0.255555556,0,0,0,,0,238,238,233,1,,,,,
,,,,,,b11f81498bad26ff678cda9c,66a626ef09d4e21e1a8894ec,673497b719751d47e62445da,2024-11-13_13h13.11.462,Tarea de género gramatical,2024.2.2,Win32,60.24096386,,,,,,,,,,,,,,,,,,,,,,,847.5961,848.8448,l,1,[],[],[],[],[],[],[],0.5722,1,848.845,849.3445,,,,,,1306,MAS,DIS,150,premio,la,l,0.5722,,849.3446,849.3447,-0.023148148,0.255555556,0,0,0,,0,239,239,405,1,,,,,
,,,,,,b11f81498bad26ff678cda9c,66a626ef09d4e21e1a8894ec,673497b719751d47e62445da,2024-11-13_13h13.11.462,Tarea de género gramatical,2024.2.2,Win32,60.24096386,,,,,,,,,,,,,,,,,,,,,,,849.3455,850.6113,l,1,[],[],[],[],[],[],[],0.5837,1,850.6114,851.111,,,,,,1188,MAS,CON,150,grado,,l,0.5837,,851.1119,851.1124,-0.023148148,0.255555556,0,0,0,,0,240,240,287,1,,,,,
,,,,,,b11f81498bad26ff678cda9c,66a626ef09d4e21e1a8894ec,673497b719751d47e62445da,2024-11-13_13h13.11.462,Tarea de género gramatical,2024.2.2,Win32,60.24096386,,,,,,,,,,,,,,,,,,,,,,,851.1128,853.5111,l,1,[],[],[],[],[],[],[],1.7217,1,853.5112,854.0111,,,,,,1282,MAS,DIS,150,teatro,la,l,1.7217,,854.0111,854.0112,-0.023148148,0.255555556,0,0,0,,0,241,241,381,1,,,,,
,,,,,,b11f81498bad26ff678cda9c,66a626ef09d4e21e1a8894ec,673497b719751d47e62445da,2024-11-13_13h13.11.462,Tarea de género gramatical,2024.2.2,Win32,60.24096386,,,,,,,,,,,,,,,,,,,,,,,854.0121,855.2277,l,1,[],[],[],[],[],[],[],0.5356,1,855.2278,855.7277,,,,,,941,MAS,AGR,150,bote,el,l,0.5356,,855.7278,855.7278,-0.023148148,0.255555556,0,0,0,,0,242,242,40,1,,,,,
,,,,,,b11f81498bad26ff678cda9c,66a626ef09d4e21e1a8894ec,673497b719751d47e62445da,2024-11-13_13h13.11.462,Tarea de género gramatical,2024.2.2,Win32,60.24096386,,,,,,,,,,,,,,,,,,,,,,,855.7289,857.211,a,1,[],[],[],[],[],[],[],0.7999,1,857.2112,857.7109,,,,,,968,FEM,AGR,150,pata,la,a,0.7999,,857.7111,857.7112,-0.023148148,0.255555556,0,0,0,,0,243,243,67,1,,,,,
,,,,,,b11f81498bad26ff678cda9c,66a626ef09d4e21e1a8894ec,673497b719751d47e62445da,2024-11-13_13h13.11.462,Tarea de género gramatical,2024.2.2,Win32,60.24096386,,,,,,,,,,,,,,,,,,,,,,,857.7123,859.3443,a,1,[],[],[],[],[],[],[],0.9504,1,859.3444,859.8447,,,,,,1341,FEM,CON,150,medida,,a,0.9504,,859.8447,859.8449,-0.023148148,0.255555556,0,0,0,,0,244,244,440,1,,,,,
,,,,,,b11f81498bad26ff678cda9c,66a626ef09d4e21e1a8894ec,673497b719751d47e62445da,2024-11-13_13h13.11.462,Tarea de género gramatical,2024.2.2,Win32,60.24096386,,,,,,,,,,,,,,,,,,,,,,,859.8462,861.0444,a,1,[],[],[],[],[],[],[],0.5181,1,861.0445,861.5443,,,,,,1262,FEM,AGR,150,fuente,la,a,0.5181,,861.5453,861.5459,-0.023148148,0.255555556,0,0,0,,0,245,245,361,1,,,,,
,,,,,,b11f81498bad26ff678cda9c,66a626ef09d4e21e1a8894ec,673497b719751d47e62445da,2024-11-13_13h13.11.462,Tarea de género gramatical,2024.2.2,Win32,60.24096386,,,,,,,,,,,,,,,,,,,,,,,861.5463,862.761,a,1,[],[],[],[],[],[],[],0.5386,1,862.7611,863.2609,,,,,,974,FEM,AGR,150,flor,la,a,0.5386,,863.2609,863.261,-0.023148148,0.255555556,0,0,0,,0,246,246,73,1,,,,,
,,,,,,b11f81498bad26ff678cda9c,66a626ef09d4e21e1a8894ec,673497b719751d47e62445da,2024-11-13_13h13.11.462,Tarea de género gramatical,2024.2.2,Win32,60.24096386,,,,,,,,,,,,,,,,,,,,,,,863.2619,864.4276,l,1,[],[],[],[],[],[],[],0.4886,1,864.4277,864.9278,,,,,,1336,MAS,DIS,150,objeto,la,l,0.4886,,864.9278,864.9279,-0.023148148,0.255555556,0,0,0,,0,247,247,435,1,,,,,
,,,,,,b11f81498bad26ff678cda9c,66a626ef09d4e21e1a8894ec,673497b719751d47e62445da,2024-11-13_13h13.11.462,Tarea de género gramatical,2024.2.2,Win32,60.24096386,,,,,,,,,,,,,,,,,,,,,,,864.9288,866.4112,a,1,[],[],[],[],[],[],[],0.8028,1,866.4114,866.9108,,,,,,1063,FEM,DIS,150,calle,el,a,0.8028,,866.9109,866.9109,-0.023148148,0.255555556,0,0,0,,0,248,248,162,1,,,,,
,,,,,,b11f81498bad26ff678cda9c,66a626ef09d4e21e1a8894ec,673497b719751d47e62445da,2024-11-13_13h13.11.462,Tarea de género gramatical,2024.2.2,Win32,60.24096386,,,,,,,,,,,,,,,,,,,,,,,866.9119,868.5447,a,1,[],[],[],[],[],[],[],0.9718,1,868.5449,869.0444,,,,,,1197,FEM,CON,150,manta,,a,0.9718,,869.0453,869.0461,-0.023148148,0.255555556,0,0,0,,0,249,249,296,1,,,,,
,,,,,,b11f81498bad26ff678cda9c,66a626ef09d4e21e1a8894ec,673497b719751d47e62445da,2024-11-13_13h13.11.462,Tarea de género gramatical,2024.2.2,Win32,60.24096386,,,,,,,,,,,,,,,,,,,,,,,869.0468,870.2773,a,1,[],[],[],[],[],[],[],0.5589,1,870.2774,870.7776,,,,,,1251,FEM,CON,150,espada,,a,0.5589,,870.7777,870.7778,-0.023148148,0.255555556,0,0,0,,0,250,250,350,1,,,,,
