counterbalancing_condition,consent_prescreening.block_1/declare_consent,consent_prescreening.block_1/age_years,consent_prescreening.block_1/gender,consent_prescreening.block_1/language_disorder,consent_prescreening.block_1/first_language,PROLIFIC_PID,STUDY_ID,SESSION_ID,date,expName,psychopyVersion,OS,frameRate,check_prescreening_answers.started,check_prescreening_answers.stopped,Instructions.started,Instructions.stopped,instr_done_keyboard.keys,instr_done_keyboard.rt,instr_done_keyboard.duration,instr_done_touch.x,instr_done_touch.y,instr_done_touch.leftButton,instr_done_touch.midButton,instr_done_touch.rightButton,instruction_pages.thisRepN,instruction_pages.thisTrialN,instruction_pages.thisN,instruction_pages.thisIndex,instruction_pages.ran,pageN,phase,instruct_text,has_image,instruct_image,presentTrial.started,presentTrial.stopped,response.keys,response.corr,touch_resp.x,touch_resp.y,touch_resp.leftButton,touch_resp.midButton,touch_resp.rightButton,touch_resp.time,touch_resp.clicked_name,rt,corr,feedback.started,feedback.stopped,practice_trials.thisRepN,practice_trials.thisTrialN,practice_trials.thisN,practice_trials.thisIndex,practice_trials.ran,TrialID,StimulusType,Condition,PrimeDuration,Prime,Flanker,corrAns,response.rt,response.duration,Break.started,Break.stopped,break_done_touch.x,break_done_touch.y,break_done_touch.leftButton,break_done_touch.midButton,break_done_touch.rightButton,break_done_keyboard.keys,experiment_trials.thisRepN,experiment_trials.thisTrialN,experiment_trials.thisN,experiment_trials.thisIndex,experiment_trials.ran,break_done_keyboard.rt,break_done_keyboard.duration,End.started,End.stopped
1,"[""over_18"",""comfortable"",""read_info"",""consent_given""]",33,NB,"[""none""]","[""spanish""]",b13cee4a14dd3bbc1c234a5b,66a626ef09d4e21e1a8894ec,6734d686a555a8bd1e97c7a7,2024-11-13_10h42.44.608,Tarea de género gramatical,2024.2.2,Win32,60.60606061,,,,,,,,,,,,,,,,,,,,,,,,,,,,,,,,,,,,,,,,,,,,,,,,,,,,,,,,,,,,,,,,,,,,
,,,,,,b13cee4a14dd3bbc1c234a5b,66a626ef09d4e21e1a8894ec,6734d686a555a8bd1e97c7a7,2024-11-13_10h42.44.608,Tarea de género gramatical,2024.2.2,Win32,60.60606061,35.8046,35.8054,,,,,,,,,,,,,,,,,,,,,,,,,,,,,,,,,,,,,,,,,,,,,,,,,,,,,,,,,,,,,,,,,,
,,,,,,b13cee4a14dd3bbc1c234a5b,66a626ef09d4e21e1a8894ec,6734d686a555a8bd1e97c7a7,2024-11-13_10h42.44.608,Tarea de género gramatical,2024.2.2,Win32,60.60606061,,,35.8876,49.6969,space,13.6884,,-0.167592578,-0.133333347,0,0,0,0,0,0,0,1,1,instructions,"INSTRUCCIONES
Va a realizar una prueba de selección gramatical. Desde el comienzo de la prueba mire siempre al centro de la pantalla. Al cabo de un momento, aparecerán palabras. La tarea consiste en determinar si la palabra del centro (siempre será un sustantivo), pertenece al género masculino o femenino.

Pulse la tecla ESPACIO o toque el botón de abajo para continuar.",0,keyboardresponseMF.png,,,,,,,,,,,,,,,,,,,,,,,,,,,,,,,,,,,,,,,,,,,,,,
,,,,,,b13cee4a14dd3bbc1c234a5b,66a626ef09d4e21e1a8894ec,6734d686a555a8bd1e97c7a7,2024-11-13_10h42.44.608,Tarea de género gramatical,2024.2.2,Win32,60.60606061,,,49.711,60.2402,space,10.3945,,-0.167592578,-0.133333347,0,0,0,0,1,1,1,1,2,instructions,"Si su dispositivo tiene teclado, pulse la tecla ""A"" para las palabras en masculino (por ejemplo: ""arroz"") y la tecla ""L"" para las palabras en femenino (por ejemplo: ""mano"").
Pulse la tecla ESPACIO o toque el botón de abajo para continuar.",1,keyboardresponseMF.png,,,,,,,,,,,,,,,,,,,,,,,,,,,,,,,,,,,,,,,,,,,,,,
,,,,,,b13cee4a14dd3bbc1c234a5b,66a626ef09d4e21e1a8894ec,6734d686a555a8bd1e97c7a7,2024-11-13_10h42.44.608,Tarea de género gramatical,2024.2.2,Win32,60.60606061,,,60.2495,65.137,space,4.7955,,-0.167592578,-0.133333347,0,0,0,0,2,2,2,1,3,instructions,"Si utiliza un dispositivo sólo táctil, colóquelo en horizontal y utilice los botones de la pantalla. No utilice el ratón.
Pulse la tecla ESPACIO o toque el botón de abajo para continuar.",2,touchresponseMF.png,,,,,,,,,,,,,,,,,,,,,,,,,,,,,,,,,,,,,,,,,,,,,,
,,,,,,b13cee4a14dd3bbc1c234a5b,66a626ef09d4e21e1a8894ec,6734d686a555a8bd1e97c7a7,2024-11-13_10h42.44.608,Tarea de género gramatical,2024.2.2,Win32,60.60606061,,,65.1524,80.4123,space,15.228,,-0.167592578,-0.133333347,0,0,0,0,3,3,3,1,4,instructions,"Es muy importante que responda con la mayor rapidez y precisión posibles, ya que cada cadena de letras sólo estará en pantalla durante un instante. Si no responde en ese tiempo, aparecerá el mensaje ""Muy lento"" y el experimento pasará a la siguiente palabra. Los primeros 15 intentos serán de práctica y habrá dos descansos durante la prueba.
Pulse la tecla ESPACIO o toque el botón de abajo para iniciar la parte de práctica.",0,keyboardresponseMF.png,,,,,,,,,,,,,,,,,,,,,,,,,,,,,,,,,,,,,,,,,,,,,,
,,,,,,b13cee4a14dd3bbc1c234a5b,66a626ef09d4e21e1a8894ec,6734d686a555a8bd1e97c7a7,2024-11-13_10h42.44.608,Tarea de género gramatical,2024.2.2,Win32,60.60606061,,,,,,,,,,,,,,,,,,,,,,,80.4804,83.1273,,0,[],[],[],[],[],[],[],,-1,83.1281,83.6273,0,0,0,6,1,2007,FEM,AGR,150,navaja,la,a,,,,,,,,,,,,,,,,,,,
,,,,,,b13cee4a14dd3bbc1c234a5b,66a626ef09d4e21e1a8894ec,6734d686a555a8bd1e97c7a7,2024-11-13_10h42.44.608,Tarea de género gramatical,2024.2.2,Win32,60.60606061,,,,,,,,,,,,,,,,,,,,,,,83.6361,85.3428,a,1,[],[],[],[],[],[],[],1.0409,1,85.378,85.8442,0,1,1,13,1,2014,MAS,CON,150,siglo,,l,1.0409,,,,,,,,,,,,,,,,,,
,,,,,,b13cee4a14dd3bbc1c234a5b,66a626ef09d4e21e1a8894ec,6734d686a555a8bd1e97c7a7,2024-11-13_10h42.44.608,Tarea de género gramatical,2024.2.2,Win32,60.60606061,,,,,,,,,,,,,,,,,,,,,,,85.8533,88.4919,,0,[],[],[],[],[],[],[],1.0409,-1,88.4952,88.9919,0,2,2,8,1,2009,MAS,DIS,150,puerto,la,l,,,,,,,,,,,,,,,,,,,
,,,,,,b13cee4a14dd3bbc1c234a5b,66a626ef09d4e21e1a8894ec,6734d686a555a8bd1e97c7a7,2024-11-13_10h42.44.608,Tarea de género gramatical,2024.2.2,Win32,60.60606061,,,,,,,,,,,,,,,,,,,,,,,88.9972,91.6402,,0,[],[],[],[],[],[],[],1.0409,-1,91.6406,92.14,0,3,3,2,1,2003,FEM,DIS,150,daga,el,a,,,,,,,,,,,,,,,,,,,
,,,,,,b13cee4a14dd3bbc1c234a5b,66a626ef09d4e21e1a8894ec,6734d686a555a8bd1e97c7a7,2024-11-13_10h42.44.608,Tarea de género gramatical,2024.2.2,Win32,60.60606061,,,,,,,,,,,,,,,,,,,,,,,92.1452,94.7891,,0,[],[],[],[],[],[],[],1.0409,-1,94.7894,95.2872,0,4,4,0,1,2001,FEM,AGR,150,nuca,la,a,,,,,,,,,,,,,,,,,,,
,,,,,,b13cee4a14dd3bbc1c234a5b,66a626ef09d4e21e1a8894ec,6734d686a555a8bd1e97c7a7,2024-11-13_10h42.44.608,Tarea de género gramatical,2024.2.2,Win32,60.60606061,,,,,,,,,,,,,,,,,,,,,,,95.2902,97.9391,,0,[],[],[],[],[],[],[],1.0409,-1,97.94,98.4373,0,5,5,11,1,2012,MAS,DIS,150,clima,la,l,,,,,,,,,,,,,,,,,,,
,,,,,,b13cee4a14dd3bbc1c234a5b,66a626ef09d4e21e1a8894ec,6734d686a555a8bd1e97c7a7,2024-11-13_10h42.44.608,Tarea de género gramatical,2024.2.2,Win32,60.60606061,,,,,,,,,,,,,,,,,,,,,,,98.4413,101.0864,,0,[],[],[],[],[],[],[],1.0409,-1,101.0868,101.586,0,6,6,7,1,2008,FEM,CON,150,siesta,,a,,,,,,,,,,,,,,,,,,,
,,,,,,b13cee4a14dd3bbc1c234a5b,66a626ef09d4e21e1a8894ec,6734d686a555a8bd1e97c7a7,2024-11-13_10h42.44.608,Tarea de género gramatical,2024.2.2,Win32,60.60606061,,,,,,,,,,,,,,,,,,,,,,,101.5907,102.803,l,0,[],[],[],[],[],[],[],0.5361,0,102.8081,103.3016,0,7,7,14,1,2015,MAS,DIS,150,robot,la,l,0.5361,,,,,,,,,,,,,,,,,,
,,,,,,b13cee4a14dd3bbc1c234a5b,66a626ef09d4e21e1a8894ec,6734d686a555a8bd1e97c7a7,2024-11-13_10h42.44.608,Tarea de género gramatical,2024.2.2,Win32,60.60606061,,,,,,,,,,,,,,,,,,,,,,,103.3062,104.7845,l,1,[],[],[],[],[],[],[],0.8095,1,104.7879,105.2843,0,8,8,3,1,2004,FEM,AGR,150,venta,la,a,0.8095,,,,,,,,,,,,,,,,,,
,,,,,,b13cee4a14dd3bbc1c234a5b,66a626ef09d4e21e1a8894ec,6734d686a555a8bd1e97c7a7,2024-11-13_10h42.44.608,Tarea de género gramatical,2024.2.2,Win32,60.60606061,,,,,,,,,,,,,,,,,,,,,,,105.2888,106.6668,a,1,[],[],[],[],[],[],[],0.7021,1,106.6671,107.167,0,9,9,12,1,2013,MAS,AGR,150,acero,el,l,0.7021,,,,,,,,,,,,,,,,,,
,,,,,,b13cee4a14dd3bbc1c234a5b,66a626ef09d4e21e1a8894ec,6734d686a555a8bd1e97c7a7,2024-11-13_10h42.44.608,Tarea de género gramatical,2024.2.2,Win32,60.60606061,,,,,,,,,,,,,,,,,,,,,,,107.1708,108.2497,l,1,[],[],[],[],[],[],[],0.4029,1,108.25,108.7499,0,10,10,4,1,2005,FEM,CON,150,placa,,a,0.4029,,,,,,,,,,,,,,,,,,
,,,,,,b13cee4a14dd3bbc1c234a5b,66a626ef09d4e21e1a8894ec,6734d686a555a8bd1e97c7a7,2024-11-13_10h42.44.608,Tarea de género gramatical,2024.2.2,Win32,60.60606061,,,,,,,,,,,,,,,,,,,,,,,108.754,110.2324,l,1,[],[],[],[],[],[],[],0.8037,1,110.2327,110.7322,0,11,11,5,1,2006,FEM,DIS,150,serie,el,a,0.8037,,,,,,,,,,,,,,,,,,
,,,,,,b13cee4a14dd3bbc1c234a5b,66a626ef09d4e21e1a8894ec,6734d686a555a8bd1e97c7a7,2024-11-13_10h42.44.608,Tarea de género gramatical,2024.2.2,Win32,60.60606061,,,,,,,,,,,,,,,,,,,,,,,110.7366,112.0145,a,1,[],[],[],[],[],[],[],0.6096,1,112.0148,112.5131,0,12,12,10,1,2011,MAS,CON,150,canal,,l,0.6096,,,,,,,,,,,,,,,,,,
,,,,,,b13cee4a14dd3bbc1c234a5b,66a626ef09d4e21e1a8894ec,6734d686a555a8bd1e97c7a7,2024-11-13_10h42.44.608,Tarea de género gramatical,2024.2.2,Win32,60.60606061,,,,,,,,,,,,,,,,,,,,,,,112.5157,113.5647,l,1,[],[],[],[],[],[],[],0.379,1,113.5651,114.0651,0,13,13,1,1,2002,FEM,CON,150,pala,,a,0.379,,,,,,,,,,,,,,,,,,
,,,,,,b13cee4a14dd3bbc1c234a5b,66a626ef09d4e21e1a8894ec,6734d686a555a8bd1e97c7a7,2024-11-13_10h42.44.608,Tarea de género gramatical,2024.2.2,Win32,60.60606061,,,,,,,,,,,,,,,,,,,,,,,114.0686,115.1464,a,1,[],[],[],[],[],[],[],0.4023,1,115.1467,115.6463,0,14,14,9,1,2010,MAS,AGR,150,vecino,el,l,0.4023,,,,,,,,,,,,,,,,,,
,,,,,,b13cee4a14dd3bbc1c234a5b,66a626ef09d4e21e1a8894ec,6734d686a555a8bd1e97c7a7,2024-11-13_10h42.44.608,Tarea de género gramatical,2024.2.2,Win32,60.60606061,,,124.3399,143.4011,space,19.0294,,-0.12962963,-0.312037079,0,0,0,,,,,,,,,,,143.5225,144.8828,l,0,[],[],[],[],[],[],[],0.6856,0,144.8873,145.3827,,,,,,744,MAS,AGR,150,cable,el,l,0.6856,,145.3835,145.3963,-0.12962963,-0.312037079,0,0,0,,0,0,0,293,1,,,,
,,,,,,b13cee4a14dd3bbc1c234a5b,66a626ef09d4e21e1a8894ec,6734d686a555a8bd1e97c7a7,2024-11-13_10h42.44.608,Tarea de género gramatical,2024.2.2,Win32,60.60606061,,,,,,,,,,,,,,,,,,,,,,,145.399,146.548,l,1,[],[],[],[],[],[],[],0.4872,1,146.5508,147.0485,,,,,,673,FEM,CON,150,plata,,a,0.4872,,147.0489,147.0494,-0.12962963,-0.312037079,0,0,0,,0,1,1,222,1,,,,
,,,,,,b13cee4a14dd3bbc1c234a5b,66a626ef09d4e21e1a8894ec,6734d686a555a8bd1e97c7a7,2024-11-13_10h42.44.608,Tarea de género gramatical,2024.2.2,Win32,60.60606061,,,,,,,,,,,,,,,,,,,,,,,147.0544,148.0981,a,1,[],[],[],[],[],[],[],0.3684,1,148.0985,148.5976,,,,,,558,MAS,AGR,150,hilo,el,l,0.3684,,148.6036,148.6066,-0.12962963,-0.312037079,0,0,0,,0,2,2,107,1,,,,
,,,,,,b13cee4a14dd3bbc1c234a5b,66a626ef09d4e21e1a8894ec,6734d686a555a8bd1e97c7a7,2024-11-13_10h42.44.608,Tarea de género gramatical,2024.2.2,Win32,60.60606061,,,,,,,,,,,,,,,,,,,,,,,148.6094,149.5974,l,1,[],[],[],[],[],[],[],0.3209,1,149.5978,150.097,,,,,,830,FEM,DIS,150,madera,el,a,0.3209,,150.0973,150.0977,-0.12962963,-0.312037079,0,0,0,,0,3,3,379,1,,,,
,,,,,,b13cee4a14dd3bbc1c234a5b,66a626ef09d4e21e1a8894ec,6734d686a555a8bd1e97c7a7,2024-11-13_10h42.44.608,Tarea de género gramatical,2024.2.2,Win32,60.60606061,,,,,,,,,,,,,,,,,,,,,,,150.1021,151.0969,a,1,[],[],[],[],[],[],[],0.3192,1,151.0974,151.5968,,,,,,522,MAS,AGR,150,hoyo,el,l,0.3192,,151.597,151.5975,-0.12962963,-0.312037079,0,0,0,,0,4,4,71,1,,,,
,,,,,,b13cee4a14dd3bbc1c234a5b,66a626ef09d4e21e1a8894ec,6734d686a555a8bd1e97c7a7,2024-11-13_10h42.44.608,Tarea de género gramatical,2024.2.2,Win32,60.60606061,,,,,,,,,,,,,,,,,,,,,,,151.602,152.5463,l,1,[],[],[],[],[],[],[],0.2702,1,152.5468,153.046,,,,,,506,FEM,DIS,150,bola,el,a,0.2702,,153.0462,153.047,-0.12962963,-0.312037079,0,0,0,,0,5,5,55,1,,,,
,,,,,,b13cee4a14dd3bbc1c234a5b,66a626ef09d4e21e1a8894ec,6734d686a555a8bd1e97c7a7,2024-11-13_10h42.44.608,Tarea de género gramatical,2024.2.2,Win32,60.60606061,,,,,,,,,,,,,,,,,,,,,,,153.0531,153.9954,a,1,[],[],[],[],[],[],[],0.2692,1,153.9956,154.4951,,,,,,750,MAS,AGR,150,túnel,el,l,0.2692,,154.5014,154.5045,-0.12962963,-0.312037079,0,0,0,,0,6,6,299,1,,,,
,,,,,,b13cee4a14dd3bbc1c234a5b,66a626ef09d4e21e1a8894ec,6734d686a555a8bd1e97c7a7,2024-11-13_10h42.44.608,Tarea de género gramatical,2024.2.2,Win32,60.60606061,,,,,,,,,,,,,,,,,,,,,,,154.5068,155.4115,a,1,[],[],[],[],[],[],[],0.2385,1,155.4119,155.9113,,,,,,731,MAS,DIS,150,actor,la,l,0.2385,,155.9115,155.9119,-0.12962963,-0.312037079,0,0,0,,0,7,7,280,1,,,,
,,,,,,b13cee4a14dd3bbc1c234a5b,66a626ef09d4e21e1a8894ec,6734d686a555a8bd1e97c7a7,2024-11-13_10h42.44.608,Tarea de género gramatical,2024.2.2,Win32,60.60606061,,,,,,,,,,,,,,,,,,,,,,,155.9156,156.8939,a,1,[],[],[],[],[],[],[],0.3011,1,156.8942,157.3939,,,,,,881,MAS,DIS,150,veneno,la,l,0.3011,,157.3942,157.3949,-0.12962963,-0.312037079,0,0,0,,0,8,8,430,1,,,,
,,,,,,b13cee4a14dd3bbc1c234a5b,66a626ef09d4e21e1a8894ec,6734d686a555a8bd1e97c7a7,2024-11-13_10h42.44.608,Tarea de género gramatical,2024.2.2,Win32,60.60606061,,,,,,,,,,,,,,,,,,,,,,,157.3996,158.4263,a,1,[],[],[],[],[],[],[],0.3484,1,158.4265,158.927,,,,,,886,MAS,CON,150,objeto,,l,0.3484,,158.9273,158.9281,-0.12962963,-0.312037079,0,0,0,,0,9,9,435,1,,,,
,,,,,,b13cee4a14dd3bbc1c234a5b,66a626ef09d4e21e1a8894ec,6734d686a555a8bd1e97c7a7,2024-11-13_10h42.44.608,Tarea de género gramatical,2024.2.2,Win32,60.60606061,,,,,,,,,,,,,,,,,,,,,,,158.9327,159.8761,a,0,[],[],[],[],[],[],[],0.2697,0,159.8802,160.3762,,,,,,470,FEM,DIS,150,ropa,el,a,0.2697,,160.3764,160.377,-0.12962963,-0.312037079,0,0,0,,0,10,10,19,1,,,,
,,,,,,b13cee4a14dd3bbc1c234a5b,66a626ef09d4e21e1a8894ec,6734d686a555a8bd1e97c7a7,2024-11-13_10h42.44.608,Tarea de género gramatical,2024.2.2,Win32,60.60606061,,,,,,,,,,,,,,,,,,,,,,,160.3807,161.4093,a,0,[],[],[],[],[],[],[],0.3525,0,161.4096,161.9089,,,,,,751,FEM,CON,150,verdad,,a,0.3525,,161.9151,161.918,-0.12962963,-0.312037079,0,0,0,,0,11,11,300,1,,,,
,,,,,,b13cee4a14dd3bbc1c234a5b,66a626ef09d4e21e1a8894ec,6734d686a555a8bd1e97c7a7,2024-11-13_10h42.44.608,Tarea de género gramatical,2024.2.2,Win32,60.60606061,,,,,,,,,,,,,,,,,,,,,,,161.9203,162.9912,l,1,[],[],[],[],[],[],[],0.4014,1,162.9938,163.4914,,,,,,895,FEM,CON,150,bondad,,a,0.4014,,163.4918,163.492,-0.12962963,-0.312037079,0,0,0,,0,12,12,444,1,,,,
,,,,,,b13cee4a14dd3bbc1c234a5b,66a626ef09d4e21e1a8894ec,6734d686a555a8bd1e97c7a7,2024-11-13_10h42.44.608,Tarea de género gramatical,2024.2.2,Win32,60.60606061,,,,,,,,,,,,,,,,,,,,,,,163.4967,165.0128,l,1,[],[],[],[],[],[],[],0.8477,1,165.0133,165.5073,,,,,,542,FEM,DIS,150,masa,el,a,0.8477,,165.5075,165.508,-0.12962963,-0.312037079,0,0,0,,0,13,13,91,1,,,,
,,,,,,b13cee4a14dd3bbc1c234a5b,66a626ef09d4e21e1a8894ec,6734d686a555a8bd1e97c7a7,2024-11-13_10h42.44.608,Tarea de género gramatical,2024.2.2,Win32,60.60606061,,,,,,,,,,,,,,,,,,,,,,,165.5121,166.6237,l,1,[],[],[],[],[],[],[],0.4357,1,166.624,167.1231,,,,,,495,FEM,AGR,150,isla,la,a,0.4357,,167.1234,167.1239,-0.12962963,-0.312037079,0,0,0,,0,14,14,44,1,,,,
,,,,,,b13cee4a14dd3bbc1c234a5b,66a626ef09d4e21e1a8894ec,6734d686a555a8bd1e97c7a7,2024-11-13_10h42.44.608,Tarea de género gramatical,2024.2.2,Win32,60.60606061,,,,,,,,,,,,,,,,,,,,,,,167.1283,168.1726,a,1,[],[],[],[],[],[],[],0.3737,1,168.1729,168.672,,,,,,797,MAS,DIS,150,cuello,la,l,0.3737,,168.677,168.6795,-0.12962963,-0.312037079,0,0,0,,0,15,15,346,1,,,,
,,,,,,b13cee4a14dd3bbc1c234a5b,66a626ef09d4e21e1a8894ec,6734d686a555a8bd1e97c7a7,2024-11-13_10h42.44.608,Tarea de género gramatical,2024.2.2,Win32,60.60606061,,,,,,,,,,,,,,,,,,,,,,,168.6819,169.6554,l,1,[],[],[],[],[],[],[],0.3015,1,169.6557,170.1548,,,,,,507,FEM,AGR,150,moda,la,a,0.3015,,170.1552,170.1557,-0.12962963,-0.312037079,0,0,0,,0,16,16,56,1,,,,
,,,,,,b13cee4a14dd3bbc1c234a5b,66a626ef09d4e21e1a8894ec,6734d686a555a8bd1e97c7a7,2024-11-13_10h42.44.608,Tarea de género gramatical,2024.2.2,Win32,60.60606061,,,,,,,,,,,,,,,,,,,,,,,170.1612,171.3047,l,1,[],[],[],[],[],[],[],0.4684,1,171.305,171.8044,,,,,,483,FEM,AGR,150,boda,la,a,0.4684,,171.8045,171.8049,-0.12962963,-0.312037079,0,0,0,,0,17,17,32,1,,,,
,,,,,,b13cee4a14dd3bbc1c234a5b,66a626ef09d4e21e1a8894ec,6734d686a555a8bd1e97c7a7,2024-11-13_10h42.44.608,Tarea de género gramatical,2024.2.2,Win32,60.60606061,,,,,,,,,,,,,,,,,,,,,,,171.8091,172.8207,a,1,[],[],[],[],[],[],[],0.3357,1,172.8211,173.3207,,,,,,690,MAS,AGR,150,ruido,el,l,0.3357,,173.3208,173.3213,-0.12962963,-0.312037079,0,0,0,,0,18,18,239,1,,,,
,,,,,,b13cee4a14dd3bbc1c234a5b,66a626ef09d4e21e1a8894ec,6734d686a555a8bd1e97c7a7,2024-11-13_10h42.44.608,Tarea de género gramatical,2024.2.2,Win32,60.60606061,,,,,,,,,,,,,,,,,,,,,,,173.3253,174.4868,a,1,[],[],[],[],[],[],[],0.4861,1,174.4872,174.9863,,,,,,534,MAS,AGR,150,mago,el,l,0.4861,,174.9866,174.9872,-0.12962963,-0.312037079,0,0,0,,0,19,19,83,1,,,,
,,,,,,b13cee4a14dd3bbc1c234a5b,66a626ef09d4e21e1a8894ec,6734d686a555a8bd1e97c7a7,2024-11-13_10h42.44.608,Tarea de género gramatical,2024.2.2,Win32,60.60606061,,,,,,,,,,,,,,,,,,,,,,,174.9916,176.2523,a,1,[],[],[],[],[],[],[],0.585,1,176.2526,176.7527,,,,,,844,MAS,CON,150,examen,,l,0.585,,176.7585,176.761,-0.12962963,-0.312037079,0,0,0,,0,20,20,393,1,,,,
,,,,,,b13cee4a14dd3bbc1c234a5b,66a626ef09d4e21e1a8894ec,6734d686a555a8bd1e97c7a7,2024-11-13_10h42.44.608,Tarea de género gramatical,2024.2.2,Win32,60.60606061,,,,,,,,,,,,,,,,,,,,,,,176.7634,177.8015,a,1,[],[],[],[],[],[],[],0.3695,1,177.8019,178.3013,,,,,,856,MAS,CON,150,premio,,l,0.3695,,178.3015,178.3019,-0.12962963,-0.312037079,0,0,0,,0,21,21,405,1,,,,
,,,,,,b13cee4a14dd3bbc1c234a5b,66a626ef09d4e21e1a8894ec,6734d686a555a8bd1e97c7a7,2024-11-13_10h42.44.608,Tarea de género gramatical,2024.2.2,Win32,60.60606061,,,,,,,,,,,,,,,,,,,,,,,178.3056,179.451,l,1,[],[],[],[],[],[],[],0.4697,1,179.4515,179.9507,,,,,,475,FEM,CON,150,nave,,a,0.4697,,179.951,179.9516,-0.12962963,-0.312037079,0,0,0,,0,22,22,24,1,,,,
,,,,,,b13cee4a14dd3bbc1c234a5b,66a626ef09d4e21e1a8894ec,6734d686a555a8bd1e97c7a7,2024-11-13_10h42.44.608,Tarea de género gramatical,2024.2.2,Win32,60.60606061,,,,,,,,,,,,,,,,,,,,,,,179.957,181.1185,l,1,[],[],[],[],[],[],[],0.494,1,181.1187,181.6172,,,,,,591,FEM,AGR,150,cera,la,a,0.494,,181.6173,181.6182,-0.12962963,-0.312037079,0,0,0,,0,23,23,140,1,,,,
,,,,,,b13cee4a14dd3bbc1c234a5b,66a626ef09d4e21e1a8894ec,6734d686a555a8bd1e97c7a7,2024-11-13_10h42.44.608,Tarea de género gramatical,2024.2.2,Win32,60.60606061,,,,,,,,,,,,,,,,,,,,,,,181.6247,182.6997,l,1,[],[],[],[],[],[],[],0.4032,1,182.7,183.1994,,,,,,897,FEM,AGR,150,lógica,la,a,0.4032,,183.2059,183.2089,-0.12962963,-0.312037079,0,0,0,,0,24,24,446,1,,,,
,,,,,,b13cee4a14dd3bbc1c234a5b,66a626ef09d4e21e1a8894ec,6734d686a555a8bd1e97c7a7,2024-11-13_10h42.44.608,Tarea de género gramatical,2024.2.2,Win32,60.60606061,,,,,,,,,,,,,,,,,,,,,,,183.2117,184.2488,a,1,[],[],[],[],[],[],[],0.3717,1,184.2492,184.7484,,,,,,544,MAS,CON,150,cabo,,l,0.3717,,184.7486,184.749,-0.12962963,-0.312037079,0,0,0,,0,25,25,93,1,,,,
,,,,,,b13cee4a14dd3bbc1c234a5b,66a626ef09d4e21e1a8894ec,6734d686a555a8bd1e97c7a7,2024-11-13_10h42.44.608,Tarea de género gramatical,2024.2.2,Win32,60.60606061,,,,,,,,,,,,,,,,,,,,,,,184.7533,185.8145,l,1,[],[],[],[],[],[],[],0.3847,1,185.8149,186.3143,,,,,,878,FEM,DIS,150,jugada,el,a,0.3847,,186.3144,186.3148,-0.12962963,-0.312037079,0,0,0,,0,26,26,427,1,,,,
,,,,,,b13cee4a14dd3bbc1c234a5b,66a626ef09d4e21e1a8894ec,6734d686a555a8bd1e97c7a7,2024-11-13_10h42.44.608,Tarea de género gramatical,2024.2.2,Win32,60.60606061,,,,,,,,,,,,,,,,,,,,,,,186.3194,187.3142,l,1,[],[],[],[],[],[],[],0.3197,1,187.3146,187.8137,,,,,,584,FEM,DIS,150,rama,el,a,0.3197,,187.814,187.8143,-0.12962963,-0.312037079,0,0,0,,0,27,27,133,1,,,,
,,,,,,b13cee4a14dd3bbc1c234a5b,66a626ef09d4e21e1a8894ec,6734d686a555a8bd1e97c7a7,2024-11-13_10h42.44.608,Tarea de género gramatical,2024.2.2,Win32,60.60606061,,,,,,,,,,,,,,,,,,,,,,,187.819,188.8468,a,0,[],[],[],[],[],[],[],0.3519,0,188.8509,189.3464,,,,,,872,FEM,DIS,150,rutina,el,a,0.3519,,189.3466,189.3469,-0.12962963,-0.312037079,0,0,0,,0,28,28,421,1,,,,
,,,,,,b13cee4a14dd3bbc1c234a5b,66a626ef09d4e21e1a8894ec,6734d686a555a8bd1e97c7a7,2024-11-13_10h42.44.608,Tarea de género gramatical,2024.2.2,Win32,60.60606061,,,,,,,,,,,,,,,,,,,,,,,189.3508,190.7456,a,1,[],[],[],[],[],[],[],0.7205,1,190.7508,191.2458,,,,,,845,MAS,DIS,150,correo,la,l,0.7205,,191.2519,191.2546,-0.12962963,-0.312037079,0,0,0,,0,29,29,394,1,,,,
,,,,,,b13cee4a14dd3bbc1c234a5b,66a626ef09d4e21e1a8894ec,6734d686a555a8bd1e97c7a7,2024-11-13_10h42.44.608,Tarea de género gramatical,2024.2.2,Win32,60.60606061,,,,,,,,,,,,,,,,,,,,,,,191.2572,192.5448,l,1,[],[],[],[],[],[],[],0.6202,1,192.5452,193.0449,,,,,,782,FEM,DIS,150,basura,el,a,0.6202,,193.0452,193.0456,-0.12962963,-0.312037079,0,0,0,,0,30,30,331,1,,,,
,,,,,,b13cee4a14dd3bbc1c234a5b,66a626ef09d4e21e1a8894ec,6734d686a555a8bd1e97c7a7,2024-11-13_10h42.44.608,Tarea de género gramatical,2024.2.2,Win32,60.60606061,,,,,,,,,,,,,,,,,,,,,,,193.0497,194.0611,l,1,[],[],[],[],[],[],[],0.3415,1,194.0614,194.561,,,,,,451,FEM,CON,150,casa,,a,0.3415,,194.5613,194.5616,-0.12962963,-0.312037079,0,0,0,,0,31,31,0,1,,,,
,,,,,,b13cee4a14dd3bbc1c234a5b,66a626ef09d4e21e1a8894ec,6734d686a555a8bd1e97c7a7,2024-11-13_10h42.44.608,Tarea de género gramatical,2024.2.2,Win32,60.60606061,,,,,,,,,,,,,,,,,,,,,,,194.5664,195.6605,a,1,[],[],[],[],[],[],[],0.4201,1,195.6608,196.1603,,,,,,593,MAS,DIS,150,faro,la,l,0.4201,,196.1605,196.1609,-0.12962963,-0.312037079,0,0,0,,0,32,32,142,1,,,,
,,,,,,b13cee4a14dd3bbc1c234a5b,66a626ef09d4e21e1a8894ec,6734d686a555a8bd1e97c7a7,2024-11-13_10h42.44.608,Tarea de género gramatical,2024.2.2,Win32,60.60606061,,,,,,,,,,,,,,,,,,,,,,,196.1654,197.4264,a,1,[],[],[],[],[],[],[],0.5854,1,197.4268,197.9259,,,,,,851,MAS,DIS,150,abrigo,la,l,0.5854,,197.9323,197.9357,-0.12962963,-0.312037079,0,0,0,,0,33,33,400,1,,,,
,,,,,,b13cee4a14dd3bbc1c234a5b,66a626ef09d4e21e1a8894ec,6734d686a555a8bd1e97c7a7,2024-11-13_10h42.44.608,Tarea de género gramatical,2024.2.2,Win32,60.60606061,,,,,,,,,,,,,,,,,,,,,,,197.9383,199.0591,a,1,[],[],[],[],[],[],[],0.4506,1,199.0592,199.5585,,,,,,852,MAS,AGR,150,ladrón,el,l,0.4506,,199.5589,199.5593,-0.12962963,-0.312037079,0,0,0,,0,34,34,401,1,,,,
,,,,,,b13cee4a14dd3bbc1c234a5b,66a626ef09d4e21e1a8894ec,6734d686a555a8bd1e97c7a7,2024-11-13_10h42.44.608,Tarea de género gramatical,2024.2.2,Win32,60.60606061,,,,,,,,,,,,,,,,,,,,,,,199.5636,200.7243,l,1,[],[],[],[],[],[],[],0.4848,1,200.7246,201.2247,,,,,,524,FEM,DIS,150,flor,el,a,0.4848,,201.225,201.2253,-0.12962963,-0.312037079,0,0,0,,0,35,35,73,1,,,,
,,,,,,b13cee4a14dd3bbc1c234a5b,66a626ef09d4e21e1a8894ec,6734d686a555a8bd1e97c7a7,2024-11-13_10h42.44.608,Tarea de género gramatical,2024.2.2,Win32,60.60606061,,,,,,,,,,,,,,,,,,,,,,,201.2298,202.4573,a,1,[],[],[],[],[],[],[],0.5571,1,202.4576,202.9572,,,,,,617,MAS,DIS,150,juego,la,l,0.5571,,202.9574,202.958,-0.12962963,-0.312037079,0,0,0,,0,36,36,166,1,,,,
,,,,,,b13cee4a14dd3bbc1c234a5b,66a626ef09d4e21e1a8894ec,6734d686a555a8bd1e97c7a7,2024-11-13_10h42.44.608,Tarea de género gramatical,2024.2.2,Win32,60.60606061,,,,,,,,,,,,,,,,,,,,,,,202.9632,204.04,l,1,[],[],[],[],[],[],[],0.4019,1,204.0406,204.5399,,,,,,590,FEM,DIS,150,mula,el,a,0.4019,,204.5401,204.5405,-0.12962963,-0.312037079,0,0,0,,0,37,37,139,1,,,,
,,,,,,b13cee4a14dd3bbc1c234a5b,66a626ef09d4e21e1a8894ec,6734d686a555a8bd1e97c7a7,2024-11-13_10h42.44.608,Tarea de género gramatical,2024.2.2,Win32,60.60606061,,,,,,,,,,,,,,,,,,,,,,,204.5449,205.6559,l,1,[],[],[],[],[],[],[],0.4399,1,205.6562,206.1559,,,,,,471,FEM,AGR,150,boca,la,a,0.4399,,206.1617,206.164,-0.12962963,-0.312037079,0,0,0,,0,38,38,20,1,,,,
,,,,,,b13cee4a14dd3bbc1c234a5b,66a626ef09d4e21e1a8894ec,6734d686a555a8bd1e97c7a7,2024-11-13_10h42.44.608,Tarea de género gramatical,2024.2.2,Win32,60.60606061,,,,,,,,,,,,,,,,,,,,,,,206.1662,207.2717,a,1,[],[],[],[],[],[],[],0.4357,1,207.2722,207.7714,,,,,,580,MAS,CON,150,yate,,l,0.4357,,207.7716,207.7721,-0.12962963,-0.312037079,0,0,0,,0,39,39,129,1,,,,
,,,,,,b13cee4a14dd3bbc1c234a5b,66a626ef09d4e21e1a8894ec,6734d686a555a8bd1e97c7a7,2024-11-13_10h42.44.608,Tarea de género gramatical,2024.2.2,Win32,60.60606061,,,,,,,,,,,,,,,,,,,,,,,207.7763,209.1223,a,1,[],[],[],[],[],[],[],0.6758,1,209.1228,209.6205,,,,,,646,MAS,CON,150,barco,,l,0.6758,,209.6207,209.6213,-0.12962963,-0.312037079,0,0,0,,0,40,40,195,1,,,,
,,,,,,b13cee4a14dd3bbc1c234a5b,66a626ef09d4e21e1a8894ec,6734d686a555a8bd1e97c7a7,2024-11-13_10h42.44.608,Tarea de género gramatical,2024.2.2,Win32,60.60606061,,,,,,,,,,,,,,,,,,,,,,,209.6259,210.8701,l,1,[],[],[],[],[],[],[],0.5744,1,210.8716,211.3702,,,,,,685,FEM,CON,150,torre,,a,0.5744,,211.3705,211.3713,-0.12962963,-0.312037079,0,0,0,,0,41,41,234,1,,,,
,,,,,,b13cee4a14dd3bbc1c234a5b,66a626ef09d4e21e1a8894ec,6734d686a555a8bd1e97c7a7,2024-11-13_10h42.44.608,Tarea de género gramatical,2024.2.2,Win32,60.60606061,,,,,,,,,,,,,,,,,,,,,,,211.3766,212.5364,a,1,[],[],[],[],[],[],[],0.4857,1,212.5368,213.0362,,,,,,616,MAS,CON,150,coche,,l,0.4857,,213.0426,213.0455,-0.12962963,-0.312037079,0,0,0,,0,42,42,165,1,,,,
,,,,,,b13cee4a14dd3bbc1c234a5b,66a626ef09d4e21e1a8894ec,6734d686a555a8bd1e97c7a7,2024-11-13_10h42.44.608,Tarea de género gramatical,2024.2.2,Win32,60.60606061,,,,,,,,,,,,,,,,,,,,,,,213.0486,214.052,a,1,[],[],[],[],[],[],[],0.339,1,214.0524,214.5523,,,,,,689,MAS,DIS,150,reloj,la,l,0.339,,214.5526,214.553,-0.12962963,-0.312037079,0,0,0,,0,43,43,238,1,,,,
,,,,,,b13cee4a14dd3bbc1c234a5b,66a626ef09d4e21e1a8894ec,6734d686a555a8bd1e97c7a7,2024-11-13_10h42.44.608,Tarea de género gramatical,2024.2.2,Win32,60.60606061,,,,,,,,,,,,,,,,,,,,,,,214.5575,215.5019,l,1,[],[],[],[],[],[],[],0.2692,1,215.5024,216.0013,,,,,,836,FEM,DIS,150,sombra,el,a,0.2692,,216.0015,216.0019,-0.12962963,-0.312037079,0,0,0,,0,44,44,385,1,,,,
,,,,,,b13cee4a14dd3bbc1c234a5b,66a626ef09d4e21e1a8894ec,6734d686a555a8bd1e97c7a7,2024-11-13_10h42.44.608,Tarea de género gramatical,2024.2.2,Win32,60.60606061,,,,,,,,,,,,,,,,,,,,,,,216.0068,216.9845,l,1,[],[],[],[],[],[],[],0.3023,1,216.9848,217.4839,,,,,,645,FEM,AGR,150,pared,la,a,0.3023,,217.4841,217.4846,-0.12962963,-0.312037079,0,0,0,,0,45,45,194,1,,,,
,,,,,,b13cee4a14dd3bbc1c234a5b,66a626ef09d4e21e1a8894ec,6734d686a555a8bd1e97c7a7,2024-11-13_10h42.44.608,Tarea de género gramatical,2024.2.2,Win32,60.60606061,,,,,,,,,,,,,,,,,,,,,,,217.4889,218.5166,a,1,[],[],[],[],[],[],[],0.3539,1,218.5169,219.0164,,,,,,653,MAS,DIS,150,novio,la,l,0.3539,,219.0166,219.0171,-0.12962963,-0.312037079,0,0,0,,0,46,46,202,1,,,,
,,,,,,b13cee4a14dd3bbc1c234a5b,66a626ef09d4e21e1a8894ec,6734d686a555a8bd1e97c7a7,2024-11-13_10h42.44.608,Tarea de género gramatical,2024.2.2,Win32,60.60606061,,,,,,,,,,,,,,,,,,,,,,,219.0212,220.0992,l,1,[],[],[],[],[],[],[],0.4038,1,220.0996,220.599,,,,,,566,FEM,DIS,150,nube,el,a,0.4038,,220.6044,220.6067,-0.12962963,-0.312037079,0,0,0,,0,47,47,115,1,,,,
,,,,,,b13cee4a14dd3bbc1c234a5b,66a626ef09d4e21e1a8894ec,6734d686a555a8bd1e97c7a7,2024-11-13_10h42.44.608,Tarea de género gramatical,2024.2.2,Win32,60.60606061,,,,,,,,,,,,,,,,,,,,,,,220.6091,221.8823,a,1,[],[],[],[],[],[],[],0.6027,1,221.8826,222.382,,,,,,784,MAS,CON,150,ataque,,l,0.6027,,222.3822,222.3827,-0.12962963,-0.312037079,0,0,0,,0,48,48,333,1,,,,
,,,,,,b13cee4a14dd3bbc1c234a5b,66a626ef09d4e21e1a8894ec,6734d686a555a8bd1e97c7a7,2024-11-13_10h42.44.608,Tarea de género gramatical,2024.2.2,Win32,60.60606061,,,,,,,,,,,,,,,,,,,,,,,222.3871,223.6148,l,1,[],[],[],[],[],[],[],0.555,1,223.6152,224.1145,,,,,,596,FEM,DIS,150,lana,el,a,0.555,,224.1147,224.1151,-0.12962963,-0.312037079,0,0,0,,0,49,49,145,1,,,,
,,,,,,b13cee4a14dd3bbc1c234a5b,66a626ef09d4e21e1a8894ec,6734d686a555a8bd1e97c7a7,2024-11-13_10h42.44.608,Tarea de género gramatical,2024.2.2,Win32,60.60606061,,,,,,,,,,,,,,,,,,,,,,,224.119,225.1472,l,1,[],[],[],[],[],[],[],0.3549,1,225.1475,225.6472,,,,,,805,FEM,CON,150,mirada,,a,0.3549,,225.6474,225.648,-0.12962963,-0.312037079,0,0,0,,0,50,50,354,1,,,,
,,,,,,b13cee4a14dd3bbc1c234a5b,66a626ef09d4e21e1a8894ec,6734d686a555a8bd1e97c7a7,2024-11-13_10h42.44.608,Tarea de género gramatical,2024.2.2,Win32,60.60606061,,,,,,,,,,,,,,,,,,,,,,,225.6542,226.763,a,1,[],[],[],[],[],[],[],0.4405,1,226.7633,227.2629,,,,,,738,MAS,AGR,150,grado,el,l,0.4405,,227.269,227.2718,-0.12962963,-0.312037079,0,0,0,,0,51,51,287,1,,,,
,,,,,,b13cee4a14dd3bbc1c234a5b,66a626ef09d4e21e1a8894ec,6734d686a555a8bd1e97c7a7,2024-11-13_10h42.44.608,Tarea de género gramatical,2024.2.2,Win32,60.60606061,,,,,,,,,,,,,,,,,,,,,,,227.2745,228.3457,l,1,[],[],[],[],[],[],[],0.4024,1,228.346,228.8454,,,,,,621,FEM,AGR,150,mitad,la,a,0.4024,,228.8454,228.8457,-0.12962963,-0.312037079,0,0,0,,0,52,52,170,1,,,,
,,,,,,b13cee4a14dd3bbc1c234a5b,66a626ef09d4e21e1a8894ec,6734d686a555a8bd1e97c7a7,2024-11-13_10h42.44.608,Tarea de género gramatical,2024.2.2,Win32,60.60606061,,,,,,,,,,,,,,,,,,,,,,,228.8488,229.8951,a,1,[],[],[],[],[],[],[],0.3681,1,229.8954,230.3947,,,,,,497,MAS,DIS,150,olor,la,l,0.3681,,230.3948,230.3951,-0.12962963,-0.312037079,0,0,0,,0,53,53,46,1,,,,
,,,,,,b13cee4a14dd3bbc1c234a5b,66a626ef09d4e21e1a8894ec,6734d686a555a8bd1e97c7a7,2024-11-13_10h42.44.608,Tarea de género gramatical,2024.2.2,Win32,60.60606061,,,,,,,,,,,,,,,,,,,,,,,230.3987,231.5447,a,1,[],[],[],[],[],[],[],0.4745,1,231.5452,232.0441,,,,,,508,MAS,CON,150,mono,,l,0.4745,,232.0443,232.0447,-0.12962963,-0.312037079,0,0,0,,0,54,54,57,1,,,,
,,,,,,b13cee4a14dd3bbc1c234a5b,66a626ef09d4e21e1a8894ec,6734d686a555a8bd1e97c7a7,2024-11-13_10h42.44.608,Tarea de género gramatical,2024.2.2,Win32,60.60606061,,,,,,,,,,,,,,,,,,,,,,,232.0487,233.427,l,1,[],[],[],[],[],[],[],0.7032,1,233.4273,233.9271,,,,,,711,FEM,AGR,150,cueva,la,a,0.7032,,233.9272,233.9277,-0.12962963,-0.312037079,0,0,0,,0,55,55,260,1,,,,
,,,,,,b13cee4a14dd3bbc1c234a5b,66a626ef09d4e21e1a8894ec,6734d686a555a8bd1e97c7a7,2024-11-13_10h42.44.608,Tarea de género gramatical,2024.2.2,Win32,60.60606061,,,,,,,,,,,,,,,,,,,,,,,233.932,234.9598,a,1,[],[],[],[],[],[],[],0.3556,1,234.9601,235.4594,,,,,,612,MAS,AGR,150,miedo,el,l,0.3556,,235.464,235.4661,-0.12962963,-0.312037079,0,0,0,,0,56,56,161,1,,,,
,,,,,,b13cee4a14dd3bbc1c234a5b,66a626ef09d4e21e1a8894ec,6734d686a555a8bd1e97c7a7,2024-11-13_10h42.44.608,Tarea de género gramatical,2024.2.2,Win32,60.60606061,,,,,,,,,,,,,,,,,,,,,,,235.4701,236.5089,a,1,[],[],[],[],[],[],[],0.3695,1,236.5092,237.0085,,,,,,701,MAS,DIS,150,dueño,la,l,0.3695,,237.0087,237.0093,-0.12962963,-0.312037079,0,0,0,,0,57,57,250,1,,,,
,,,,,,b13cee4a14dd3bbc1c234a5b,66a626ef09d4e21e1a8894ec,6734d686a555a8bd1e97c7a7,2024-11-13_10h42.44.608,Tarea de género gramatical,2024.2.2,Win32,60.60606061,,,,,,,,,,,,,,,,,,,,,,,237.014,238.0453,a,1,[],[],[],[],[],[],[],0.363,1,238.046,238.5413,,,,,,724,MAS,CON,150,motor,,l,0.363,,238.5416,238.5421,-0.12962963,-0.312037079,0,0,0,,0,58,58,273,1,,,,
,,,,,,b13cee4a14dd3bbc1c234a5b,66a626ef09d4e21e1a8894ec,6734d686a555a8bd1e97c7a7,2024-11-13_10h42.44.608,Tarea de género gramatical,2024.2.2,Win32,60.60606061,,,,,,,,,,,,,,,,,,,,,,,238.547,239.7073,a,1,[],[],[],[],[],[],[],0.4895,1,239.7076,240.2072,,,,,,485,MAS,DIS,150,taxi,la,l,0.4895,,240.2074,240.2079,-0.12962963,-0.312037079,0,0,0,,0,59,59,34,1,,,,
,,,,,,b13cee4a14dd3bbc1c234a5b,66a626ef09d4e21e1a8894ec,6734d686a555a8bd1e97c7a7,2024-11-13_10h42.44.608,Tarea de género gramatical,2024.2.2,Win32,60.60606061,,,,,,,,,,,,,,,,,,,,,,,240.2119,241.19,l,1,[],[],[],[],[],[],[],0.3023,1,241.1904,241.6901,,,,,,885,FEM,AGR,150,niebla,la,a,0.3023,,241.6953,241.6979,-0.12962963,-0.312037079,0,0,0,,0,60,60,434,1,,,,
,,,,,,b13cee4a14dd3bbc1c234a5b,66a626ef09d4e21e1a8894ec,6734d686a555a8bd1e97c7a7,2024-11-13_10h42.44.608,Tarea de género gramatical,2024.2.2,Win32,60.60606061,,,,,,,,,,,,,,,,,,,,,,,241.7003,242.623,a,0,[],[],[],[],[],[],[],0.2531,0,242.6264,243.1226,,,,,,631,FEM,CON,150,tarde,,a,0.2531,,243.1227,243.1232,-0.12962963,-0.312037079,0,0,0,,0,61,61,180,1,,,,
,,,,,,b13cee4a14dd3bbc1c234a5b,66a626ef09d4e21e1a8894ec,6734d686a555a8bd1e97c7a7,2024-11-13_10h42.44.608,Tarea de género gramatical,2024.2.2,Win32,60.60606061,,,,,,,,,,,,,,,,,,,,,,,243.1274,244.2896,l,1,[],[],[],[],[],[],[],0.4917,1,244.293,244.7885,,,,,,686,FEM,DIS,150,deuda,el,a,0.4917,,244.7887,244.7892,-0.12962963,-0.312037079,0,0,0,,0,62,62,235,1,,,,
,,,,,,b13cee4a14dd3bbc1c234a5b,66a626ef09d4e21e1a8894ec,6734d686a555a8bd1e97c7a7,2024-11-13_10h42.44.608,Tarea de género gramatical,2024.2.2,Win32,60.60606061,,,,,,,,,,,,,,,,,,,,,,,244.7934,245.9049,a,1,[],[],[],[],[],[],[],0.4395,1,245.9052,246.4042,,,,,,719,MAS,DIS,150,primo,la,l,0.4395,,246.4046,246.405,-0.12962963,-0.312037079,0,0,0,,0,63,63,268,1,,,,
,,,,,,b13cee4a14dd3bbc1c234a5b,66a626ef09d4e21e1a8894ec,6734d686a555a8bd1e97c7a7,2024-11-13_10h42.44.608,Tarea de género gramatical,2024.2.2,Win32,60.60606061,,,,,,,,,,,,,,,,,,,,,,,246.4092,247.4208,a,1,[],[],[],[],[],[],[],0.3353,1,247.4213,247.9208,,,,,,622,MAS,CON,150,poder,,l,0.3353,,247.921,247.9219,-0.12962963,-0.312037079,0,0,0,,0,64,64,171,1,,,,
,,,,,,b13cee4a14dd3bbc1c234a5b,66a626ef09d4e21e1a8894ec,6734d686a555a8bd1e97c7a7,2024-11-13_10h42.44.608,Tarea de género gramatical,2024.2.2,Win32,60.60606061,,,,,,,,,,,,,,,,,,,,,,,247.9268,249.0368,l,1,[],[],[],[],[],[],[],0.4355,1,249.0371,249.5363,,,,,,769,FEM,CON,150,sangre,,a,0.4355,,249.5417,249.5448,-0.12962963,-0.312037079,0,0,0,,0,65,65,318,1,,,,
,,,,,,b13cee4a14dd3bbc1c234a5b,66a626ef09d4e21e1a8894ec,6734d686a555a8bd1e97c7a7,2024-11-13_10h42.44.608,Tarea de género gramatical,2024.2.2,Win32,60.60606061,,,,,,,,,,,,,,,,,,,,,,,249.5481,250.5856,l,1,[],[],[],[],[],[],[],0.3692,1,250.5859,251.0851,,,,,,824,FEM,DIS,150,herida,el,a,0.3692,,251.0852,251.0855,-0.12962963,-0.312037079,0,0,0,,0,66,66,373,1,,,,
,,,,,,b13cee4a14dd3bbc1c234a5b,66a626ef09d4e21e1a8894ec,6734d686a555a8bd1e97c7a7,2024-11-13_10h42.44.608,Tarea de género gramatical,2024.2.2,Win32,60.60606061,,,,,,,,,,,,,,,,,,,,,,,251.0881,252.2183,l,1,[],[],[],[],[],[],[],0.4528,1,252.2186,252.718,,,,,,638,FEM,DIS,150,bomba,el,a,0.4528,,252.7183,252.7187,-0.12962963,-0.312037079,0,0,0,,0,67,67,187,1,,,,
,,,,,,b13cee4a14dd3bbc1c234a5b,66a626ef09d4e21e1a8894ec,6734d686a555a8bd1e97c7a7,2024-11-13_10h42.44.608,Tarea de género gramatical,2024.2.2,Win32,60.60606061,,,,,,,,,,,,,,,,,,,,,,,252.7234,253.8675,l,1,[],[],[],[],[],[],[],0.4702,1,253.8679,254.3676,,,,,,734,FEM,DIS,150,fruta,el,a,0.4702,,254.3679,254.368,-0.12962963,-0.312037079,0,0,0,,0,68,68,283,1,,,,
,,,,,,b13cee4a14dd3bbc1c234a5b,66a626ef09d4e21e1a8894ec,6734d686a555a8bd1e97c7a7,2024-11-13_10h42.44.608,Tarea de género gramatical,2024.2.2,Win32,60.60606061,,,,,,,,,,,,,,,,,,,,,,,254.3727,255.517,a,1,[],[],[],[],[],[],[],0.4712,1,255.5173,256.0167,,,,,,850,MAS,CON,150,barrio,,l,0.4712,,256.0214,256.0238,-0.12962963,-0.312037079,0,0,0,,0,69,69,399,1,,,,
,,,,,,b13cee4a14dd3bbc1c234a5b,66a626ef09d4e21e1a8894ec,6734d686a555a8bd1e97c7a7,2024-11-13_10h42.44.608,Tarea de género gramatical,2024.2.2,Win32,60.60606061,,,,,,,,,,,,,,,,,,,,,,,256.0265,257.1001,l,1,[],[],[],[],[],[],[],0.4032,1,257.1004,257.5997,,,,,,860,FEM,DIS,150,piedad,el,a,0.4032,,257.6001,257.6009,-0.12962963,-0.312037079,0,0,0,,0,70,70,409,1,,,,
,,,,,,b13cee4a14dd3bbc1c234a5b,66a626ef09d4e21e1a8894ec,6734d686a555a8bd1e97c7a7,2024-11-13_10h42.44.608,Tarea de género gramatical,2024.2.2,Win32,60.60606061,,,,,,,,,,,,,,,,,,,,,,,257.6055,258.6998,a,1,[],[],[],[],[],[],[],0.4265,1,258.7005,259.1989,,,,,,640,MAS,CON,150,campo,,l,0.4265,,259.1991,259.1994,-0.12962963,-0.312037079,0,0,0,,0,71,71,189,1,,,,
,,,,,,b13cee4a14dd3bbc1c234a5b,66a626ef09d4e21e1a8894ec,6734d686a555a8bd1e97c7a7,2024-11-13_10h42.44.608,Tarea de género gramatical,2024.2.2,Win32,60.60606061,,,,,,,,,,,,,,,,,,,,,,,259.2036,260.1318,a,1,[],[],[],[],[],[],[],0.2569,1,260.1322,260.6317,,,,,,712,MAS,CON,150,video,,l,0.2569,,260.6319,260.6323,-0.12962963,-0.312037079,0,0,0,,0,72,72,261,1,,,,
,,,,,,b13cee4a14dd3bbc1c234a5b,66a626ef09d4e21e1a8894ec,6734d686a555a8bd1e97c7a7,2024-11-13_10h42.44.608,Tarea de género gramatical,2024.2.2,Win32,60.60606061,,,,,,,,,,,,,,,,,,,,,,,260.6363,261.664,a,1,[],[],[],[],[],[],[],0.3532,1,261.6644,262.1643,,,,,,538,MAS,CON,150,pavo,,l,0.3532,,262.1645,262.165,-0.12962963,-0.312037079,0,0,0,,0,73,73,87,1,,,,
,,,,,,b13cee4a14dd3bbc1c234a5b,66a626ef09d4e21e1a8894ec,6734d686a555a8bd1e97c7a7,2024-11-13_10h42.44.608,Tarea de género gramatical,2024.2.2,Win32,60.60606061,,,,,,,,,,,,,,,,,,,,,,,262.1689,263.1183,l,1,[],[],[],[],[],[],[],0.2793,1,263.1187,263.6135,,,,,,699,FEM,AGR,150,crema,la,a,0.2793,,263.6184,263.6209,-0.12962963,-0.312037079,0,0,0,,0,74,74,248,1,,,,
,,,,,,b13cee4a14dd3bbc1c234a5b,66a626ef09d4e21e1a8894ec,6734d686a555a8bd1e97c7a7,2024-11-13_10h42.44.608,Tarea de género gramatical,2024.2.2,Win32,60.60606061,,,,,,,,,,,,,,,,,,,,,,,263.6235,264.6801,l,1,[],[],[],[],[],[],[],0.3893,1,264.6804,265.1793,,,,,,753,FEM,AGR,150,maldad,la,a,0.3893,,265.1795,265.18,-0.12962963,-0.312037079,0,0,0,,0,75,75,302,1,,,,
,,,,,,b13cee4a14dd3bbc1c234a5b,66a626ef09d4e21e1a8894ec,6734d686a555a8bd1e97c7a7,2024-11-13_10h42.44.608,Tarea de género gramatical,2024.2.2,Win32,60.60606061,,,,,,,,,,,,,,,,,,,,,,,265.1842,266.1292,l,1,[],[],[],[],[],[],[],0.2684,1,266.1295,266.6292,,,,,,619,FEM,CON,150,vista,,a,0.2684,,266.6294,266.6301,-0.12962963,-0.312037079,0,0,0,,0,76,76,168,1,,,,
,,,,,,b13cee4a14dd3bbc1c234a5b,66a626ef09d4e21e1a8894ec,6734d686a555a8bd1e97c7a7,2024-11-13_10h42.44.608,Tarea de género gramatical,2024.2.2,Win32,60.60606061,,,,,,,,,,,,,,,,,,,,,,,266.6347,267.5785,a,1,[],[],[],[],[],[],[],0.2705,1,267.5789,268.0782,,,,,,833,MAS,DIS,150,parque,la,l,0.2705,,268.0783,268.0789,-0.12962963,-0.312037079,0,0,0,,0,77,77,382,1,,,,
,,,,,,b13cee4a14dd3bbc1c234a5b,66a626ef09d4e21e1a8894ec,6734d686a555a8bd1e97c7a7,2024-11-13_10h42.44.608,Tarea de género gramatical,2024.2.2,Win32,60.60606061,,,,,,,,,,,,,,,,,,,,,,,268.0842,269.0278,l,1,[],[],[],[],[],[],[],0.2703,1,269.0282,269.5275,,,,,,525,FEM,AGR,150,caza,la,a,0.2703,,269.532,269.5341,-0.12962963,-0.312037079,0,0,0,,0,78,78,74,1,,,,
,,,,,,b13cee4a14dd3bbc1c234a5b,66a626ef09d4e21e1a8894ec,6734d686a555a8bd1e97c7a7,2024-11-13_10h42.44.608,Tarea de género gramatical,2024.2.2,Win32,60.60606061,,,,,,,,,,,,,,,,,,,,,,,269.5362,270.527,l,1,[],[],[],[],[],[],[],0.316,1,270.5273,271.0269,,,,,,488,FEM,DIS,150,obra,el,a,0.316,,271.027,271.0275,-0.12962963,-0.312037079,0,0,0,,0,79,79,37,1,,,,
,,,,,,b13cee4a14dd3bbc1c234a5b,66a626ef09d4e21e1a8894ec,6734d686a555a8bd1e97c7a7,2024-11-13_10h42.44.608,Tarea de género gramatical,2024.2.2,Win32,60.60606061,,,,,,,,,,,,,,,,,,,,,,,271.0326,272.193,a,0,[],[],[],[],[],[],[],0.4859,0,272.1966,272.6927,,,,,,692,FEM,DIS,150,pizza,el,a,0.4859,,272.6929,272.6933,-0.12962963,-0.312037079,0,0,0,,0,80,80,241,1,,,,
,,,,,,b13cee4a14dd3bbc1c234a5b,66a626ef09d4e21e1a8894ec,6734d686a555a8bd1e97c7a7,2024-11-13_10h42.44.608,Tarea de género gramatical,2024.2.2,Win32,60.60606061,,,,,,,,,,,,,,,,,,,,,,,272.6981,273.726,a,1,[],[],[],[],[],[],[],0.3607,1,273.7295,274.2256,,,,,,472,MAS,CON,150,pelo,,l,0.3607,,274.2258,274.2263,-0.12962963,-0.312037079,0,0,0,,0,81,81,21,1,,,,
,,,,,,b13cee4a14dd3bbc1c234a5b,66a626ef09d4e21e1a8894ec,6734d686a555a8bd1e97c7a7,2024-11-13_10h42.44.608,Tarea de género gramatical,2024.2.2,Win32,60.60606061,,,,,,,,,,,,,,,,,,,,,,,274.2306,275.2753,a,1,[],[],[],[],[],[],[],0.369,1,275.2755,275.7743,,,,,,586,MAS,CON,150,vago,,l,0.369,,275.7744,275.7748,-0.12962963,-0.312037079,0,0,0,,0,82,82,135,1,,,,
,,,,,,b13cee4a14dd3bbc1c234a5b,66a626ef09d4e21e1a8894ec,6734d686a555a8bd1e97c7a7,2024-11-13_10h42.44.608,Tarea de género gramatical,2024.2.2,Win32,60.60606061,,,,,,,,,,,,,,,,,,,,,,,275.7798,276.7461,l,1,[],[],[],[],[],[],[],0.2985,1,276.7464,277.2411,,,,,,459,FEM,AGR,150,mamá,la,a,0.2985,,277.2459,277.2481,-0.12962963,-0.312037079,0,0,0,,0,83,83,8,1,,,,
,,,,,,b13cee4a14dd3bbc1c234a5b,66a626ef09d4e21e1a8894ec,6734d686a555a8bd1e97c7a7,2024-11-13_10h42.44.608,Tarea de género gramatical,2024.2.2,Win32,60.60606061,,,,,,,,,,,,,,,,,,,,,,,277.2512,278.2404,l,1,[],[],[],[],[],[],[],0.32,1,278.2407,278.7403,,,,,,693,FEM,AGR,150,salsa,la,a,0.32,,278.7405,278.7409,-0.12962963,-0.312037079,0,0,0,,0,84,84,242,1,,,,
,,,,,,b13cee4a14dd3bbc1c234a5b,66a626ef09d4e21e1a8894ec,6734d686a555a8bd1e97c7a7,2024-11-13_10h42.44.608,Tarea de género gramatical,2024.2.2,Win32,60.60606061,,,,,,,,,,,,,,,,,,,,,,,278.7448,279.6894,l,1,[],[],[],[],[],[],[],0.2693,1,279.6897,280.1896,,,,,,464,FEM,DIS,150,cara,el,a,0.2693,,280.1897,280.19,-0.12962963,-0.312037079,0,0,0,,0,85,85,13,1,,,,
,,,,,,b13cee4a14dd3bbc1c234a5b,66a626ef09d4e21e1a8894ec,6734d686a555a8bd1e97c7a7,2024-11-13_10h42.44.608,Tarea de género gramatical,2024.2.2,Win32,60.60606061,,,,,,,,,,,,,,,,,,,,,,,280.1938,281.1893,a,1,[],[],[],[],[],[],[],0.3174,1,281.1897,281.6878,,,,,,768,MAS,AGR,150,pueblo,el,l,0.3174,,281.6879,281.6881,-0.12962963,-0.312037079,0,0,0,,0,86,86,317,1,,,,
,,,,,,b13cee4a14dd3bbc1c234a5b,66a626ef09d4e21e1a8894ec,6734d686a555a8bd1e97c7a7,2024-11-13_10h42.44.608,Tarea de género gramatical,2024.2.2,Win32,60.60606061,,,,,,,,,,,,,,,,,,,,,,,281.6914,282.6041,a,1,[],[],[],[],[],[],[],0.2354,1,282.6043,283.1045,,,,,,670,MAS,CON,150,huevo,,l,0.2354,,283.1085,283.1095,-0.12962963,-0.312037079,0,0,0,,0,87,87,219,1,,,,
,,,,,,b13cee4a14dd3bbc1c234a5b,66a626ef09d4e21e1a8894ec,6734d686a555a8bd1e97c7a7,2024-11-13_10h42.44.608,Tarea de género gramatical,2024.2.2,Win32,60.60606061,,,,,,,,,,,,,,,,,,,,,,,283.1113,284.171,l,1,[],[],[],[],[],[],[],0.3848,1,284.1713,284.6702,,,,,,837,FEM,AGR,150,página,la,a,0.3848,,284.6703,284.6706,-0.12962963,-0.312037079,0,0,0,,0,88,88,386,1,,,,
,,,,,,b13cee4a14dd3bbc1c234a5b,66a626ef09d4e21e1a8894ec,6734d686a555a8bd1e97c7a7,2024-11-13_10h42.44.608,Tarea de género gramatical,2024.2.2,Win32,60.60606061,,,,,,,,,,,,,,,,,,,,,,,284.6732,285.6694,a,1,[],[],[],[],[],[],[],0.3155,1,285.6696,286.1699,,,,,,630,MAS,AGR,150,fuego,el,l,0.3155,,286.1701,286.1705,-0.12962963,-0.312037079,0,0,0,,0,89,89,179,1,,,,
,,,,,,b13cee4a14dd3bbc1c234a5b,66a626ef09d4e21e1a8894ec,6734d686a555a8bd1e97c7a7,2024-11-13_10h42.44.608,Tarea de género gramatical,2024.2.2,Win32,60.60606061,,,,,,,,,,,,,,,,,,,,,,,286.1756,287.1529,a,1,[],[],[],[],[],[],[],0.3022,1,287.1532,287.6529,,,,,,498,MAS,AGR,150,loco,el,l,0.3022,,287.653,287.6533,-0.12962963,-0.312037079,0,0,0,,0,90,90,47,1,,,,
,,,,,,b13cee4a14dd3bbc1c234a5b,66a626ef09d4e21e1a8894ec,6734d686a555a8bd1e97c7a7,2024-11-13_10h42.44.608,Tarea de género gramatical,2024.2.2,Win32,60.60606061,,,,,,,,,,,,,,,,,,,,,,,287.6576,288.5525,l,1,[],[],[],[],[],[],[],0.2216,1,288.5529,289.0526,,,,,,783,FEM,AGR,150,locura,la,a,0.2216,,289.0528,289.0533,-0.12962963,-0.312037079,0,0,0,,0,91,91,332,1,,,,
,,,,,,b13cee4a14dd3bbc1c234a5b,66a626ef09d4e21e1a8894ec,6734d686a555a8bd1e97c7a7,2024-11-13_10h42.44.608,Tarea de género gramatical,2024.2.2,Win32,60.60606061,,,,,,,,,,,,,,,,,,,,,,,289.0576,290.1184,l,1,[],[],[],[],[],[],[],0.3855,1,290.1188,290.6182,,,,,,835,FEM,CON,150,muñeca,,a,0.3855,,290.6225,290.6246,-0.12962963,-0.312037079,0,0,0,,0,92,92,384,1,,,,
,,,,,,b13cee4a14dd3bbc1c234a5b,66a626ef09d4e21e1a8894ec,6734d686a555a8bd1e97c7a7,2024-11-13_10h42.44.608,Tarea de género gramatical,2024.2.2,Win32,60.60606061,,,,,,,,,,,,,,,,,,,,,,,290.6271,291.5681,l,1,[],[],[],[],[],[],[],0.2683,1,291.5683,292.0673,,,,,,453,FEM,AGR,150,cosa,la,a,0.2683,,292.0674,292.0678,-0.12962963,-0.312037079,0,0,0,,0,93,93,2,1,,,,
,,,,,,b13cee4a14dd3bbc1c234a5b,66a626ef09d4e21e1a8894ec,6734d686a555a8bd1e97c7a7,2024-11-13_10h42.44.608,Tarea de género gramatical,2024.2.2,Win32,60.60606061,,,,,,,,,,,,,,,,,,,,,,,292.0721,293.0005,a,1,[],[],[],[],[],[],[],0.2523,1,293.0008,293.5004,,,,,,563,MAS,DIS,150,toro,la,l,0.2523,,293.5007,293.5011,-0.12962963,-0.312037079,0,0,0,,0,94,94,112,1,,,,
,,,,,,b13cee4a14dd3bbc1c234a5b,66a626ef09d4e21e1a8894ec,6734d686a555a8bd1e97c7a7,2024-11-13_10h42.44.608,Tarea de género gramatical,2024.2.2,Win32,60.60606061,,,,,,,,,,,,,,,,,,,,,,,293.5057,294.533,a,1,[],[],[],[],[],[],[],0.3561,1,294.5333,295.0326,,,,,,660,MAS,AGR,150,baile,el,l,0.3561,,295.0328,295.0333,-0.12962963,-0.312037079,0,0,0,,0,95,95,209,1,,,,
,,,,,,b13cee4a14dd3bbc1c234a5b,66a626ef09d4e21e1a8894ec,6734d686a555a8bd1e97c7a7,2024-11-13_10h42.44.608,Tarea de género gramatical,2024.2.2,Win32,60.60606061,,,,,,,,,,,,,,,,,,,,,,,295.0404,296.0822,a,1,[],[],[],[],[],[],[],0.3745,1,296.0825,296.582,,,,,,569,MAS,DIS,150,mito,la,l,0.3745,,296.589,296.5916,-0.12962963,-0.312037079,0,0,0,,0,96,96,118,1,,,,
,,,,,,b13cee4a14dd3bbc1c234a5b,66a626ef09d4e21e1a8894ec,6734d686a555a8bd1e97c7a7,2024-11-13_10h42.44.608,Tarea de género gramatical,2024.2.2,Win32,60.60606061,,,,,,,,,,,,,,,,,,,,,,,296.5939,297.4486,l,0,[],[],[],[],[],[],[],0.1884,0,297.4517,297.9482,,,,,,456,MAS,AGR,150,lado,el,l,0.1884,,297.9484,297.9489,-0.12962963,-0.312037079,0,0,0,,0,97,97,5,1,,,,
,,,,,,b13cee4a14dd3bbc1c234a5b,66a626ef09d4e21e1a8894ec,6734d686a555a8bd1e97c7a7,2024-11-13_10h42.44.608,Tarea de género gramatical,2024.2.2,Win32,60.60606061,,,,,,,,,,,,,,,,,,,,,,,297.9529,299.1477,a,1,[],[],[],[],[],[],[],0.5207,1,299.1505,299.6474,,,,,,876,MAS,AGR,150,pánico,el,l,0.5207,,299.6475,299.6481,-0.12962963,-0.312037079,0,0,0,,0,98,98,425,1,,,,
,,,,,,b13cee4a14dd3bbc1c234a5b,66a626ef09d4e21e1a8894ec,6734d686a555a8bd1e97c7a7,2024-11-13_10h42.44.608,Tarea de género gramatical,2024.2.2,Win32,60.60606061,,,,,,,,,,,,,,,,,,,,,,,299.6527,301.0304,a,1,[],[],[],[],[],[],[],0.7012,1,301.0307,301.5301,,,,,,803,MAS,DIS,150,verano,la,l,0.7012,,301.5302,301.5307,-0.12962963,-0.312037079,0,0,0,,0,99,99,352,1,,,,
,,,,,,b13cee4a14dd3bbc1c234a5b,66a626ef09d4e21e1a8894ec,6734d686a555a8bd1e97c7a7,2024-11-13_10h42.44.608,Tarea de género gramatical,2024.2.2,Win32,60.60606061,,,,,,,,,,,,,,,,,,,,,,,301.5355,302.5796,a,1,[],[],[],[],[],[],[],0.3686,1,302.5799,303.0791,,,,,,486,MAS,AGR,150,dedo,el,l,0.3686,,303.0794,303.0799,-0.12962963,-0.312037079,0,0,0,,0,100,100,35,1,,,,
,,,,,,b13cee4a14dd3bbc1c234a5b,66a626ef09d4e21e1a8894ec,6734d686a555a8bd1e97c7a7,2024-11-13_10h42.44.608,Tarea de género gramatical,2024.2.2,Win32,60.60606061,,,,,,,,,,,,,,,,,,,,,,,303.0844,303.9299,a,1,[],[],[],[],[],[],[],0.1761,1,303.9301,304.4289,,,,,,802,MAS,CON,150,estilo,,l,0.1761,,304.4341,304.4364,-0.12962963,-0.312037079,0,0,0,,0,101,101,351,1,,,,
,,,,,,b13cee4a14dd3bbc1c234a5b,66a626ef09d4e21e1a8894ec,6734d686a555a8bd1e97c7a7,2024-11-13_10h42.44.608,Tarea de género gramatical,2024.2.2,Win32,60.60606061,,,,,,,,,,,,,,,,,,,,,,,304.4387,305.3292,a,1,[],[],[],[],[],[],[],0.227,1,305.33,305.8279,,,,,,491,MAS,DIS,150,bote,la,l,0.227,,305.828,305.8283,-0.12962963,-0.312037079,0,0,0,,0,102,102,40,1,,,,
,,,,,,b13cee4a14dd3bbc1c234a5b,66a626ef09d4e21e1a8894ec,6734d686a555a8bd1e97c7a7,2024-11-13_10h42.44.608,Tarea de género gramatical,2024.2.2,Win32,60.60606061,,,,,,,,,,,,,,,,,,,,,,,305.8316,306.9115,l,1,[],[],[],[],[],[],[],0.408,1,306.9118,307.4108,,,,,,565,FEM,CON,150,seda,,a,0.408,,307.411,307.4114,-0.12962963,-0.312037079,0,0,0,,0,103,103,114,1,,,,
,,,,,,b13cee4a14dd3bbc1c234a5b,66a626ef09d4e21e1a8894ec,6734d686a555a8bd1e97c7a7,2024-11-13_10h42.44.608,Tarea de género gramatical,2024.2.2,Win32,60.60606061,,,,,,,,,,,,,,,,,,,,,,,307.4162,308.4603,a,1,[],[],[],[],[],[],[],0.3731,1,308.4606,308.9597,,,,,,504,MAS,AGR,150,humo,el,l,0.3731,,308.9599,308.9602,-0.12962963,-0.312037079,0,0,0,,0,104,104,53,1,,,,
,,,,,,b13cee4a14dd3bbc1c234a5b,66a626ef09d4e21e1a8894ec,6734d686a555a8bd1e97c7a7,2024-11-13_10h42.44.608,Tarea de género gramatical,2024.2.2,Win32,60.60606061,,,,,,,,,,,,,,,,,,,,,,,308.9641,309.9427,l,1,[],[],[],[],[],[],[],0.3024,1,309.943,310.4428,,,,,,747,FEM,AGR,150,manta,la,a,0.3024,,310.4473,310.4503,-0.12962963,-0.312037079,0,0,0,,0,105,105,296,1,,,,
,,,,,,b13cee4a14dd3bbc1c234a5b,66a626ef09d4e21e1a8894ec,6734d686a555a8bd1e97c7a7,2024-11-13_10h42.44.608,Tarea de género gramatical,2024.2.2,Win32,60.60606061,,,,,,,,,,,,,,,,,,,,,,,310.4533,311.3589,a,1,[],[],[],[],[],[],[],0.2364,1,311.359,311.8582,,,,,,545,MAS,DIS,150,tomo,la,l,0.2364,,311.8584,311.8588,-0.12962963,-0.312037079,0,0,0,,0,106,106,94,1,,,,
,,,,,,b13cee4a14dd3bbc1c234a5b,66a626ef09d4e21e1a8894ec,6734d686a555a8bd1e97c7a7,2024-11-13_10h42.44.608,Tarea de género gramatical,2024.2.2,Win32,60.60606061,,,,,,,,,,,,,,,,,,,,,,,311.8628,312.9582,a,1,[],[],[],[],[],[],[],0.4214,1,312.9585,313.4581,,,,,,515,MAS,DIS,150,rayo,la,l,0.4214,,313.4582,313.4585,-0.12962963,-0.312037079,0,0,0,,0,107,107,64,1,,,,
,,,,,,b13cee4a14dd3bbc1c234a5b,66a626ef09d4e21e1a8894ec,6734d686a555a8bd1e97c7a7,2024-11-13_10h42.44.608,Tarea de género gramatical,2024.2.2,Win32,60.60606061,,,,,,,,,,,,,,,,,,,,,,,313.4629,314.5075,l,1,[],[],[],[],[],[],[],0.3669,1,314.5078,315.0072,,,,,,896,FEM,DIS,150,bañera,el,a,0.3669,,315.0074,315.0076,-0.12962963,-0.312037079,0,0,0,,0,108,108,445,1,,,,
,,,,,,b13cee4a14dd3bbc1c234a5b,66a626ef09d4e21e1a8894ec,6734d686a555a8bd1e97c7a7,2024-11-13_10h42.44.608,Tarea de género gramatical,2024.2.2,Win32,60.60606061,,,,,,,,,,,,,,,,,,,,,,,315.0121,315.9913,a,1,[],[],[],[],[],[],[],0.3044,1,315.9917,316.4898,,,,,,821,MAS,DIS,150,sonido,la,l,0.3044,,316.4898,316.4901,-0.12962963,-0.312037079,0,0,0,,0,109,109,370,1,,,,
,,,,,,b13cee4a14dd3bbc1c234a5b,66a626ef09d4e21e1a8894ec,6734d686a555a8bd1e97c7a7,2024-11-13_10h42.44.608,Tarea de género gramatical,2024.2.2,Win32,60.60606061,,,,,,,,,,,,,,,,,,,,,,,316.4933,317.3728,a,0,[],[],[],[],[],[],[],0.2072,0,317.3759,317.8724,,,,,,501,FEM,AGR,150,bala,la,a,0.2072,,317.8755,317.877,-0.12962963,-0.312037079,0,0,0,,0,110,110,50,1,,,,
,,,,,,b13cee4a14dd3bbc1c234a5b,66a626ef09d4e21e1a8894ec,6734d686a555a8bd1e97c7a7,2024-11-13_10h42.44.608,Tarea de género gramatical,2024.2.2,Win32,60.60606061,,,,,,,,,,,,,,,,,,,,,,,317.879,318.9387,a,1,[],[],[],[],[],[],[],0.3855,1,318.9418,319.4387,,,,,,760,MAS,CON,150,nombre,,l,0.3855,,319.4389,319.44,-0.12962963,-0.312037079,0,0,0,,0,111,111,309,1,,,,
,,,,,,b13cee4a14dd3bbc1c234a5b,66a626ef09d4e21e1a8894ec,6734d686a555a8bd1e97c7a7,2024-11-13_10h42.44.608,Tarea de género gramatical,2024.2.2,Win32,60.60606061,,,,,,,,,,,,,,,,,,,,,,,319.4451,320.3882,a,0,[],[],[],[],[],[],[],0.2707,0,320.3916,320.888,,,,,,705,FEM,AGR,150,tribu,la,a,0.2707,,320.8882,320.8886,-0.12962963,-0.312037079,0,0,0,,0,112,112,254,1,,,,
,,,,,,b13cee4a14dd3bbc1c234a5b,66a626ef09d4e21e1a8894ec,6734d686a555a8bd1e97c7a7,2024-11-13_10h42.44.608,Tarea de género gramatical,2024.2.2,Win32,60.60606061,,,,,,,,,,,,,,,,,,,,,,,320.8928,322.1042,l,0,[],[],[],[],[],[],[],0.5359,0,322.1045,322.6039,,,,,,682,MAS,CON,150,calor,,l,0.5359,,322.6041,322.6044,-0.12962963,-0.312037079,0,0,0,,0,113,113,231,1,,,,
,,,,,,b13cee4a14dd3bbc1c234a5b,66a626ef09d4e21e1a8894ec,6734d686a555a8bd1e97c7a7,2024-11-13_10h42.44.608,Tarea de género gramatical,2024.2.2,Win32,60.60606061,,,,,,,,,,,,,,,,,,,,,,,322.6094,323.8375,l,1,[],[],[],[],[],[],[],0.5523,1,323.8413,324.3371,,,,,,891,FEM,AGR,150,medida,la,a,0.5523,,324.3428,324.3456,-0.12962963,-0.312037079,0,0,0,,0,114,114,440,1,,,,
,,,,,,b13cee4a14dd3bbc1c234a5b,66a626ef09d4e21e1a8894ec,6734d686a555a8bd1e97c7a7,2024-11-13_10h42.44.608,Tarea de género gramatical,2024.2.2,Win32,60.60606061,,,,,,,,,,,,,,,,,,,,,,,324.3484,325.486,l,1,[],[],[],[],[],[],[],0.4731,1,325.4863,325.9859,,,,,,829,FEM,CON,150,granja,,a,0.4731,,325.9862,325.9869,-0.12962963,-0.312037079,0,0,0,,0,115,115,378,1,,,,
,,,,,,b13cee4a14dd3bbc1c234a5b,66a626ef09d4e21e1a8894ec,6734d686a555a8bd1e97c7a7,2024-11-13_10h42.44.608,Tarea de género gramatical,2024.2.2,Win32,60.60606061,,,,,,,,,,,,,,,,,,,,,,,325.9916,326.9685,l,1,[],[],[],[],[],[],[],0.3021,1,326.969,327.4687,,,,,,841,FEM,CON,150,altura,,a,0.3021,,327.4688,327.4692,-0.12962963,-0.312037079,0,0,0,,0,116,116,390,1,,,,
,,,,,,b13cee4a14dd3bbc1c234a5b,66a626ef09d4e21e1a8894ec,6734d686a555a8bd1e97c7a7,2024-11-13_10h42.44.608,Tarea de género gramatical,2024.2.2,Win32,60.60606061,,,,,,,,,,,,,,,,,,,,,,,327.4734,328.5347,l,1,[],[],[],[],[],[],[],0.3841,1,328.5349,329.0341,,,,,,861,FEM,AGR,150,actriz,la,a,0.3841,,329.0343,329.0348,-0.12962963,-0.312037079,0,0,0,,0,117,117,410,1,,,,
,,,,,,b13cee4a14dd3bbc1c234a5b,66a626ef09d4e21e1a8894ec,6734d686a555a8bd1e97c7a7,2024-11-13_10h42.44.608,Tarea de género gramatical,2024.2.2,Win32,60.60606061,,,,,,,,,,,,,,,,,,,,,,,329.0397,330.017,a,1,[],[],[],[],[],[],[],0.3093,1,330.0172,330.5164,,,,,,454,MAS,CON,150,hijo,,l,0.3093,,330.5164,330.5166,-0.12962963,-0.312037079,0,0,0,,0,118,118,3,1,,,,
,,,,,,b13cee4a14dd3bbc1c234a5b,66a626ef09d4e21e1a8894ec,6734d686a555a8bd1e97c7a7,2024-11-13_10h42.44.608,Tarea de género gramatical,2024.2.2,Win32,60.60606061,,,,,,,,,,,,,,,,,,,,,,,330.5198,331.4501,a,1,[],[],[],[],[],[],[],0.2559,1,331.4504,331.95,,,,,,598,MAS,CON,150,surf,,l,0.2559,,331.9549,331.9577,-0.12962963,-0.312037079,0,0,0,,0,119,119,147,1,,,,
,,,,,,b13cee4a14dd3bbc1c234a5b,66a626ef09d4e21e1a8894ec,6734d686a555a8bd1e97c7a7,2024-11-13_10h42.44.608,Tarea de género gramatical,2024.2.2,Win32,60.60606061,,,,,,,,,,,,,,,,,,,,,,,331.9605,332.999,l,1,[],[],[],[],[],[],[],0.3685,1,332.9993,333.4988,,,,,,807,FEM,AGR,150,lengua,la,a,0.3685,,333.499,333.4992,-0.12962963,-0.312037079,0,0,0,,0,120,120,356,1,,,,
,,,,,,b13cee4a14dd3bbc1c234a5b,66a626ef09d4e21e1a8894ec,6734d686a555a8bd1e97c7a7,2024-11-13_10h42.44.608,Tarea de género gramatical,2024.2.2,Win32,60.60606061,,,,,,,,,,,,,,,,,,,,,,,333.5029,334.4655,a,1,[],[],[],[],[],[],[],0.2853,1,334.4658,334.9653,,,,,,808,MAS,CON,150,motivo,,l,0.2853,,334.9655,334.966,-0.12962963,-0.312037079,0,0,0,,0,121,121,357,1,,,,
,,,,,,b13cee4a14dd3bbc1c234a5b,66a626ef09d4e21e1a8894ec,6734d686a555a8bd1e97c7a7,2024-11-13_10h42.44.608,Tarea de género gramatical,2024.2.2,Win32,60.60606061,,,,,,,,,,,,,,,,,,,,,,,334.9703,335.9312,l,1,[],[],[],[],[],[],[],0.2909,1,335.9315,336.4309,,,,,,681,FEM,AGR,150,bruja,la,a,0.2909,,336.431,336.4314,-0.12962963,-0.312037079,0,0,0,,0,122,122,230,1,,,,
,,,,,,b13cee4a14dd3bbc1c234a5b,66a626ef09d4e21e1a8894ec,6734d686a555a8bd1e97c7a7,2024-11-13_10h42.44.608,Tarea de género gramatical,2024.2.2,Win32,60.60606061,,,,,,,,,,,,,,,,,,,,,,,336.4363,337.6803,a,1,[],[],[],[],[],[],[],0.5724,1,337.6806,338.1805,,,,,,863,MAS,DIS,150,diario,la,l,0.5724,,338.1855,338.1884,-0.12962963,-0.312037079,0,0,0,,0,123,123,412,1,,,,
,,,,,,b13cee4a14dd3bbc1c234a5b,66a626ef09d4e21e1a8894ec,6734d686a555a8bd1e97c7a7,2024-11-13_10h42.44.608,Tarea de género gramatical,2024.2.2,Win32,60.60606061,,,,,,,,,,,,,,,,,,,,,,,338.1909,339.1635,a,1,[],[],[],[],[],[],[],0.3026,1,339.1639,339.6633,,,,,,556,MAS,CON,150,test,,l,0.3026,,339.6634,339.6639,-0.12962963,-0.312037079,0,0,0,,0,124,124,105,1,,,,
,,,,,,b13cee4a14dd3bbc1c234a5b,66a626ef09d4e21e1a8894ec,6734d686a555a8bd1e97c7a7,2024-11-13_10h42.44.608,Tarea de género gramatical,2024.2.2,Win32,60.60606061,,,,,,,,,,,,,,,,,,,,,,,339.668,340.546,l,1,[],[],[],[],[],[],[],0.2024,1,340.5463,341.0456,,,,,,583,FEM,CON,150,joya,,a,0.2024,,341.0457,341.0461,-0.12962963,-0.312037079,0,0,0,,0,125,125,132,1,,,,
,,,,,,b13cee4a14dd3bbc1c234a5b,66a626ef09d4e21e1a8894ec,6734d686a555a8bd1e97c7a7,2024-11-13_10h42.44.608,Tarea de género gramatical,2024.2.2,Win32,60.60606061,,,,,,,,,,,,,,,,,,,,,,,341.0495,342.1121,a,1,[],[],[],[],[],[],[],0.3847,1,342.1125,342.6124,,,,,,520,MAS,CON,150,palo,,l,0.3847,,342.6127,342.6134,-0.12962963,-0.312037079,0,0,0,,0,126,126,69,1,,,,
,,,,,,b13cee4a14dd3bbc1c234a5b,66a626ef09d4e21e1a8894ec,6734d686a555a8bd1e97c7a7,2024-11-13_10h42.44.608,Tarea de género gramatical,2024.2.2,Win32,60.60606061,,,,,,,,,,,,,,,,,,,,,,,342.6189,343.5447,a,1,[],[],[],[],[],[],[],0.2551,1,343.5448,344.0441,,,,,,880,MAS,CON,150,título,,l,0.2551,,344.0443,344.0447,-0.12962963,-0.312037079,0,0,0,,0,127,127,429,1,,,,
,,,,,,b13cee4a14dd3bbc1c234a5b,66a626ef09d4e21e1a8894ec,6734d686a555a8bd1e97c7a7,2024-11-13_10h42.44.608,Tarea de género gramatical,2024.2.2,Win32,60.60606061,,,,,,,,,,,,,,,,,,,,,,,344.0489,345.0097,a,1,[],[],[],[],[],[],[],0.2797,1,345.0098,345.5094,,,,,,809,MAS,DIS,150,bosque,la,l,0.2797,,345.512,345.5129,-0.12962963,-0.312037079,0,0,0,,0,128,128,358,1,,,,
,,,,,,b13cee4a14dd3bbc1c234a5b,66a626ef09d4e21e1a8894ec,6734d686a555a8bd1e97c7a7,2024-11-13_10h42.44.608,Tarea de género gramatical,2024.2.2,Win32,60.60606061,,,,,,,,,,,,,,,,,,,,,,,345.5139,346.4088,l,1,[],[],[],[],[],[],[],0.2171,1,346.4089,346.9089,,,,,,710,FEM,DIS,150,barra,el,a,0.2171,,346.909,346.9092,-0.12962963,-0.312037079,0,0,0,,0,129,129,259,1,,,,
,,,,,,b13cee4a14dd3bbc1c234a5b,66a626ef09d4e21e1a8894ec,6734d686a555a8bd1e97c7a7,2024-11-13_10h42.44.608,Tarea de género gramatical,2024.2.2,Win32,60.60606061,,,,,,,,,,,,,,,,,,,,,,,346.9121,347.9923,a,1,[],[],[],[],[],[],[],0.402,1,347.9927,348.4928,,,,,,702,MAS,AGR,150,viejo,el,l,0.402,,348.4929,348.4933,-0.12962963,-0.312037079,0,0,0,,0,130,130,251,1,,,,
,,,,,,b13cee4a14dd3bbc1c234a5b,66a626ef09d4e21e1a8894ec,6734d686a555a8bd1e97c7a7,2024-11-13_10h42.44.608,Tarea de género gramatical,2024.2.2,Win32,60.60606061,,,,,,,,,,,,,,,,,,,,,,,348.4979,349.5081,a,1,[],[],[],[],[],[],[],0.342,1,349.5084,350.0074,,,,,,840,MAS,AGR,150,rostro,el,l,0.342,,350.0075,350.0077,-0.12962963,-0.312037079,0,0,0,,0,131,131,389,1,,,,
,,,,,,b13cee4a14dd3bbc1c234a5b,66a626ef09d4e21e1a8894ec,6734d686a555a8bd1e97c7a7,2024-11-13_10h42.44.608,Tarea de género gramatical,2024.2.2,Win32,60.60606061,,,,,,,,,,,,,,,,,,,,,,,350.0104,350.9238,a,1,[],[],[],[],[],[],[],0.2372,1,350.9239,351.4246,,,,,,791,MAS,DIS,150,precio,la,l,0.2372,,351.4289,351.431,-0.12962963,-0.312037079,0,0,0,,0,132,132,340,1,,,,
,,,,,,b13cee4a14dd3bbc1c234a5b,66a626ef09d4e21e1a8894ec,6734d686a555a8bd1e97c7a7,2024-11-13_10h42.44.608,Tarea de género gramatical,2024.2.2,Win32,60.60606061,,,,,,,,,,,,,,,,,,,,,,,351.434,352.2737,a,1,[],[],[],[],[],[],[],0.1688,1,352.2741,352.7732,,,,,,778,MAS,CON,150,asunto,,l,0.1688,,352.7732,352.7735,-0.12962963,-0.312037079,0,0,0,,0,133,133,327,1,,,,
,,,,,,b13cee4a14dd3bbc1c234a5b,66a626ef09d4e21e1a8894ec,6734d686a555a8bd1e97c7a7,2024-11-13_10h42.44.608,Tarea de género gramatical,2024.2.2,Win32,60.60606061,,,,,,,,,,,,,,,,,,,,,,,352.7774,353.8894,l,1,[],[],[],[],[],[],[],0.4433,1,353.8895,354.3889,,,,,,633,FEM,AGR,150,llave,la,a,0.4433,,354.3889,354.3891,-0.12962963,-0.312037079,0,0,0,,0,134,134,182,1,,,,
,,,,,,b13cee4a14dd3bbc1c234a5b,66a626ef09d4e21e1a8894ec,6734d686a555a8bd1e97c7a7,2024-11-13_10h42.44.608,Tarea de género gramatical,2024.2.2,Win32,60.60606061,,,,,,,,,,,,,,,,,,,,,,,354.3919,355.405,a,1,[],[],[],[],[],[],[],0.3432,1,355.405,355.9049,,,,,,846,MAS,AGR,150,tesoro,el,l,0.3432,,355.9049,355.9051,-0.12962963,-0.312037079,0,0,0,,0,135,135,395,1,,,,
,,,,,,b13cee4a14dd3bbc1c234a5b,66a626ef09d4e21e1a8894ec,6734d686a555a8bd1e97c7a7,2024-11-13_10h42.44.608,Tarea de género gramatical,2024.2.2,Win32,60.60606061,,,,,,,,,,,,,,,,,,,,,,,355.9076,356.8045,l,1,[],[],[],[],[],[],[],0.2247,1,356.8045,357.3041,,,,,,739,FEM,CON,150,tabla,,a,0.2247,,357.3043,357.3043,-0.12962963,-0.312037079,0,0,0,,0,136,136,288,1,,,,
,,,,,,b13cee4a14dd3bbc1c234a5b,66a626ef09d4e21e1a8894ec,6734d686a555a8bd1e97c7a7,2024-11-13_10h42.44.608,Tarea de género gramatical,2024.2.2,Win32,60.60606061,,,,,,,,,,,,,,,,,,,,,,,357.3071,358.1872,a,0,[],[],[],[],[],[],[],0.2045,0,358.1884,358.687,,,,,,595,FEM,CON,150,bota,,a,0.2045,,358.6907,358.6916,-0.12962963,-0.312037079,0,0,0,,0,137,137,144,1,,,,
,,,,,,b13cee4a14dd3bbc1c234a5b,66a626ef09d4e21e1a8894ec,6734d686a555a8bd1e97c7a7,2024-11-13_10h42.44.608,Tarea de género gramatical,2024.2.2,Win32,60.60606061,,,,,,,,,,,,,,,,,,,,,,,358.6927,359.753,l,1,[],[],[],[],[],[],[],0.3922,1,359.754,360.2528,,,,,,627,FEM,AGR,150,broma,la,a,0.3922,,360.253,360.2531,-0.12962963,-0.312037079,0,0,0,,0,138,138,176,1,,,,
,,,,,,b13cee4a14dd3bbc1c234a5b,66a626ef09d4e21e1a8894ec,6734d686a555a8bd1e97c7a7,2024-11-13_10h42.44.608,Tarea de género gramatical,2024.2.2,Win32,60.60606061,,,,,,,,,,,,,,,,,,,,,,,360.2557,361.3024,l,1,[],[],[],[],[],[],[],0.3678,1,361.3025,361.8023,,,,,,679,FEM,CON,150,celda,,a,0.3678,,361.8023,361.8024,-0.12962963,-0.312037079,0,0,0,,0,139,139,228,1,,,,
,,,,,,b13cee4a14dd3bbc1c234a5b,66a626ef09d4e21e1a8894ec,6734d686a555a8bd1e97c7a7,2024-11-13_10h42.44.608,Tarea de género gramatical,2024.2.2,Win32,60.60606061,,,,,,,,,,,,,,,,,,,,,,,361.8053,362.8017,l,1,[],[],[],[],[],[],[],0.3169,1,362.8018,363.3016,,,,,,657,FEM,AGR,150,playa,la,a,0.3169,,363.3017,363.3017,-0.12962963,-0.312037079,0,0,0,,0,140,140,206,1,,,,
,,,,,,b13cee4a14dd3bbc1c234a5b,66a626ef09d4e21e1a8894ec,6734d686a555a8bd1e97c7a7,2024-11-13_10h42.44.608,Tarea de género gramatical,2024.2.2,Win32,60.60606061,,,,,,,,,,,,,,,,,,,,,,,363.3042,364.5843,l,1,[],[],[],[],[],[],[],0.609,1,364.5844,365.0841,,,,,,758,FEM,DIS,150,semana,el,a,0.609,,365.0869,365.0879,-0.12962963,-0.312037079,0,0,0,,0,141,141,307,1,,,,
,,,,,,b13cee4a14dd3bbc1c234a5b,66a626ef09d4e21e1a8894ec,6734d686a555a8bd1e97c7a7,2024-11-13_10h42.44.608,Tarea de género gramatical,2024.2.2,Win32,60.60606061,,,,,,,,,,,,,,,,,,,,,,,365.0893,366.1836,l,1,[],[],[],[],[],[],[],0.4223,1,366.1837,366.6833,,,,,,687,FEM,AGR,150,ducha,la,a,0.4223,,366.6834,366.6836,-0.12962963,-0.312037079,0,0,0,,0,142,142,236,1,,,,
,,,,,,b13cee4a14dd3bbc1c234a5b,66a626ef09d4e21e1a8894ec,6734d686a555a8bd1e97c7a7,2024-11-13_10h42.44.608,Tarea de género gramatical,2024.2.2,Win32,60.60606061,,,,,,,,,,,,,,,,,,,,,,,366.6862,367.6995,l,1,[],[],[],[],[],[],[],0.3404,1,367.6995,368.1993,,,,,,765,FEM,AGR,150,manera,la,a,0.3404,,368.1994,368.1996,-0.12962963,-0.312037079,0,0,0,,0,143,143,314,1,,,,
,,,,,,b13cee4a14dd3bbc1c234a5b,66a626ef09d4e21e1a8894ec,6734d686a555a8bd1e97c7a7,2024-11-13_10h42.44.608,Tarea de género gramatical,2024.2.2,Win32,60.60606061,,,,,,,,,,,,,,,,,,,,,,,368.2023,369.1824,a,0,[],[],[],[],[],[],[],0.3096,0,369.1835,369.682,,,,,,697,FEM,CON,150,frase,,a,0.3096,,369.6821,369.6823,-0.12962963,-0.312037079,0,0,0,,0,144,144,246,1,,,,
,,,,,,b13cee4a14dd3bbc1c234a5b,66a626ef09d4e21e1a8894ec,6734d686a555a8bd1e97c7a7,2024-11-13_10h42.44.608,Tarea de género gramatical,2024.2.2,Win32,60.60606061,,,,,,,,,,,,,,,,,,,,,,,369.6848,370.7482,a,1,[],[],[],[],[],[],[],0.3943,1,370.7514,371.248,,,,,,839,MAS,DIS,150,tamaño,la,l,0.3943,,371.2481,371.2482,-0.12962963,-0.312037079,0,0,0,,0,145,145,388,1,,,,
,,,,,,b13cee4a14dd3bbc1c234a5b,66a626ef09d4e21e1a8894ec,6734d686a555a8bd1e97c7a7,2024-11-13_10h42.44.608,Tarea de género gramatical,2024.2.2,Win32,60.60606061,,,,,,,,,,,,,,,,,,,,,,,371.2509,372.2975,l,1,[],[],[],[],[],[],[],0.3751,1,372.2976,372.7974,,,,,,811,FEM,CON,150,oferta,,a,0.3751,,372.8,372.8008,-0.12962963,-0.312037079,0,0,0,,0,146,146,360,1,,,,
,,,,,,b13cee4a14dd3bbc1c234a5b,66a626ef09d4e21e1a8894ec,6734d686a555a8bd1e97c7a7,2024-11-13_10h42.44.608,Tarea de género gramatical,2024.2.2,Win32,60.60606061,,,,,,,,,,,,,,,,,,,,,,,372.8018,373.7468,l,1,[],[],[],[],[],[],[],0.2704,1,373.7469,374.2467,,,,,,849,FEM,AGR,150,charla,la,a,0.2704,,374.2467,374.2469,-0.12962963,-0.312037079,0,0,0,,0,147,147,398,1,,,,
,,,,,,b13cee4a14dd3bbc1c234a5b,66a626ef09d4e21e1a8894ec,6734d686a555a8bd1e97c7a7,2024-11-13_10h42.44.608,Tarea de género gramatical,2024.2.2,Win32,60.60606061,,,,,,,,,,,,,,,,,,,,,,,374.2495,375.3129,a,1,[],[],[],[],[],[],[],0.3892,1,375.313,375.8127,,,,,,838,MAS,CON,150,empleo,,l,0.3892,,375.8127,375.8129,-0.12962963,-0.312037079,0,0,0,,0,148,148,387,1,,,,
,,,,,,b13cee4a14dd3bbc1c234a5b,66a626ef09d4e21e1a8894ec,6734d686a555a8bd1e97c7a7,2024-11-13_10h42.44.608,Tarea de género gramatical,2024.2.2,Win32,60.60606061,,,,,,,,,,,,,,,,,,,,,,,375.8157,376.7954,l,1,[],[],[],[],[],[],[],0.3114,1,376.7954,377.2953,,,,,,867,FEM,AGR,150,cabaña,la,a,0.3114,,377.2954,377.2956,-0.12962963,-0.312037079,0,0,0,,0,149,149,416,1,,,,
,,,,,,b13cee4a14dd3bbc1c234a5b,66a626ef09d4e21e1a8894ec,6734d686a555a8bd1e97c7a7,2024-11-13_10h42.44.608,Tarea de género gramatical,2024.2.2,Win32,60.60606061,,,,,,,,,,,,,,,,,,,,,,,377.298,378.3615,a,1,[],[],[],[],[],[],[],0.3855,1,378.3617,378.8613,,,,,,564,MAS,AGR,150,menú,el,l,0.3855,,378.8643,413.5478,-0.12962963,-0.312037079,0,0,0,space,0,150,150,113,1,34.655,,,
,,,,,,b13cee4a14dd3bbc1c234a5b,66a626ef09d4e21e1a8894ec,6734d686a555a8bd1e97c7a7,2024-11-13_10h42.44.608,Tarea de género gramatical,2024.2.2,Win32,60.60606061,,,,,,,,,,,,,,,,,,,,,,,413.5523,414.863,a,1,[],[],[],[],[],[],[],0.6394,1,414.8633,415.3627,,,,,,713,MAS,DIS,150,carro,la,l,0.6394,,415.3628,415.3632,-0.12962963,-0.312037079,0,0,0,,0,151,151,262,1,,,,
,,,,,,b13cee4a14dd3bbc1c234a5b,66a626ef09d4e21e1a8894ec,6734d686a555a8bd1e97c7a7,2024-11-13_10h42.44.608,Tarea de género gramatical,2024.2.2,Win32,60.60606061,,,,,,,,,,,,,,,,,,,,,,,415.3677,416.562,a,1,[],[],[],[],[],[],[],0.5212,1,416.5623,417.0611,,,,,,810,MAS,AGR,150,puente,el,l,0.5212,,417.0611,417.0613,-0.12962963,-0.312037079,0,0,0,,0,152,152,359,1,,,,
,,,,,,b13cee4a14dd3bbc1c234a5b,66a626ef09d4e21e1a8894ec,6734d686a555a8bd1e97c7a7,2024-11-13_10h42.44.608,Tarea de género gramatical,2024.2.2,Win32,60.60606061,,,,,,,,,,,,,,,,,,,,,,,417.0643,419.1775,l,1,[],[],[],[],[],[],[],1.4417,1,419.1778,419.6778,,,,,,722,FEM,DIS,150,oreja,el,a,1.4417,,419.6779,419.6782,-0.12962963,-0.312037079,0,0,0,,0,153,153,271,1,,,,
,,,,,,b13cee4a14dd3bbc1c234a5b,66a626ef09d4e21e1a8894ec,6734d686a555a8bd1e97c7a7,2024-11-13_10h42.44.608,Tarea de género gramatical,2024.2.2,Win32,60.60606061,,,,,,,,,,,,,,,,,,,,,,,419.6824,420.7439,l,1,[],[],[],[],[],[],[],0.3879,1,420.7441,421.2431,,,,,,523,FEM,CON,150,roca,,a,0.3879,,421.2434,421.244,-0.12962963,-0.312037079,0,0,0,,0,154,154,72,1,,,,
,,,,,,b13cee4a14dd3bbc1c234a5b,66a626ef09d4e21e1a8894ec,6734d686a555a8bd1e97c7a7,2024-11-13_10h42.44.608,Tarea de género gramatical,2024.2.2,Win32,60.60606061,,,,,,,,,,,,,,,,,,,,,,,421.2487,422.4596,l,1,[],[],[],[],[],[],[],0.5346,1,422.4599,422.9595,,,,,,531,FEM,AGR,150,cima,la,a,0.5346,,422.9653,422.9679,-0.12962963,-0.312037079,0,0,0,,0,155,155,80,1,,,,
,,,,,,b13cee4a14dd3bbc1c234a5b,66a626ef09d4e21e1a8894ec,6734d686a555a8bd1e97c7a7,2024-11-13_10h42.44.608,Tarea de género gramatical,2024.2.2,Win32,60.60606061,,,,,,,,,,,,,,,,,,,,,,,422.9713,423.9587,l,1,[],[],[],[],[],[],[],0.3187,1,423.959,424.4588,,,,,,608,FEM,DIS,150,chica,el,a,0.3187,,424.4589,424.4594,-0.12962963,-0.312037079,0,0,0,,0,156,156,157,1,,,,
,,,,,,b13cee4a14dd3bbc1c234a5b,66a626ef09d4e21e1a8894ec,6734d686a555a8bd1e97c7a7,2024-11-13_10h42.44.608,Tarea de género gramatical,2024.2.2,Win32,60.60606061,,,,,,,,,,,,,,,,,,,,,,,424.4635,425.4416,l,0,[],[],[],[],[],[],[],0.3039,0,425.4441,425.9416,,,,,,521,MAS,DIS,150,pozo,la,l,0.3039,,425.9418,425.9422,-0.12962963,-0.312037079,0,0,0,,0,157,157,70,1,,,,
,,,,,,b13cee4a14dd3bbc1c234a5b,66a626ef09d4e21e1a8894ec,6734d686a555a8bd1e97c7a7,2024-11-13_10h42.44.608,Tarea de género gramatical,2024.2.2,Win32,60.60606061,,,,,,,,,,,,,,,,,,,,,,,425.9465,427.1411,l,1,[],[],[],[],[],[],[],0.525,1,427.1445,427.6408,,,,,,649,FEM,CON,150,nariz,,a,0.525,,427.6411,427.6414,-0.12962963,-0.312037079,0,0,0,,0,158,158,198,1,,,,
,,,,,,b13cee4a14dd3bbc1c234a5b,66a626ef09d4e21e1a8894ec,6734d686a555a8bd1e97c7a7,2024-11-13_10h42.44.608,Tarea de género gramatical,2024.2.2,Win32,60.60606061,,,,,,,,,,,,,,,,,,,,,,,427.645,428.7569,l,1,[],[],[],[],[],[],[],0.4363,1,428.757,429.2568,,,,,,553,FEM,CON,150,fama,,a,0.4363,,429.2618,429.2642,-0.12962963,-0.312037079,0,0,0,,0,159,159,102,1,,,,
,,,,,,b13cee4a14dd3bbc1c234a5b,66a626ef09d4e21e1a8894ec,6734d686a555a8bd1e97c7a7,2024-11-13_10h42.44.608,Tarea de género gramatical,2024.2.2,Win32,60.60606061,,,,,,,,,,,,,,,,,,,,,,,429.2669,430.2063,a,0,[],[],[],[],[],[],[],0.2736,0,430.209,430.7063,,,,,,812,FEM,DIS,150,fuente,el,a,0.2736,,430.7065,430.7069,-0.12962963,-0.312037079,0,0,0,,0,160,160,361,1,,,,
,,,,,,b13cee4a14dd3bbc1c234a5b,66a626ef09d4e21e1a8894ec,6734d686a555a8bd1e97c7a7,2024-11-13_10h42.44.608,Tarea de género gramatical,2024.2.2,Win32,60.60606061,,,,,,,,,,,,,,,,,,,,,,,430.7115,431.9887,l,1,[],[],[],[],[],[],[],0.6058,1,431.9911,432.4889,,,,,,655,FEM,CON,150,reina,,a,0.6058,,432.489,432.4894,-0.12962963,-0.312037079,0,0,0,,0,161,161,204,1,,,,
,,,,,,b13cee4a14dd3bbc1c234a5b,66a626ef09d4e21e1a8894ec,6734d686a555a8bd1e97c7a7,2024-11-13_10h42.44.608,Tarea de género gramatical,2024.2.2,Win32,60.60606061,,,,,,,,,,,,,,,,,,,,,,,432.4936,433.4549,l,1,[],[],[],[],[],[],[],0.2856,1,433.4551,433.9548,,,,,,477,FEM,AGR,150,mesa,la,a,0.2856,,433.9549,433.9553,-0.12962963,-0.312037079,0,0,0,,0,162,162,26,1,,,,
,,,,,,b13cee4a14dd3bbc1c234a5b,66a626ef09d4e21e1a8894ec,6734d686a555a8bd1e97c7a7,2024-11-13_10h42.44.608,Tarea de género gramatical,2024.2.2,Win32,60.60606061,,,,,,,,,,,,,,,,,,,,,,,433.9599,434.971,a,1,[],[],[],[],[],[],[],0.3341,1,434.9713,435.4706,,,,,,772,MAS,CON,150,minuto,,l,0.3341,,435.4708,435.4712,-0.12962963,-0.312037079,0,0,0,,0,163,163,321,1,,,,
,,,,,,b13cee4a14dd3bbc1c234a5b,66a626ef09d4e21e1a8894ec,6734d686a555a8bd1e97c7a7,2024-11-13_10h42.44.608,Tarea de género gramatical,2024.2.2,Win32,60.60606061,,,,,,,,,,,,,,,,,,,,,,,435.4752,436.4368,l,1,[],[],[],[],[],[],[],0.2882,1,436.4372,436.9364,,,,,,854,FEM,DIS,150,gloria,el,a,0.2882,,436.9421,436.9451,-0.12962963,-0.312037079,0,0,0,,0,164,164,403,1,,,,
,,,,,,b13cee4a14dd3bbc1c234a5b,66a626ef09d4e21e1a8894ec,6734d686a555a8bd1e97c7a7,2024-11-13_10h42.44.608,Tarea de género gramatical,2024.2.2,Win32,60.60606061,,,,,,,,,,,,,,,,,,,,,,,436.9487,437.8858,l,1,[],[],[],[],[],[],[],0.2706,1,437.8863,438.3861,,,,,,823,FEM,CON,150,lluvia,,a,0.2706,,438.3863,438.3867,-0.12962963,-0.312037079,0,0,0,,0,165,165,372,1,,,,
,,,,,,b13cee4a14dd3bbc1c234a5b,66a626ef09d4e21e1a8894ec,6734d686a555a8bd1e97c7a7,2024-11-13_10h42.44.608,Tarea de género gramatical,2024.2.2,Win32,60.60606061,,,,,,,,,,,,,,,,,,,,,,,438.3906,439.3023,l,1,[],[],[],[],[],[],[],0.2382,1,439.3026,439.8021,,,,,,529,FEM,CON,150,mina,,a,0.2382,,439.8024,439.8027,-0.12962963,-0.312037079,0,0,0,,0,166,166,78,1,,,,
,,,,,,b13cee4a14dd3bbc1c234a5b,66a626ef09d4e21e1a8894ec,6734d686a555a8bd1e97c7a7,2024-11-13_10h42.44.608,Tarea de género gramatical,2024.2.2,Win32,60.60606061,,,,,,,,,,,,,,,,,,,,,,,439.8071,440.6678,l,1,[],[],[],[],[],[],[],0.1859,1,440.6681,441.1675,,,,,,543,FEM,AGR,150,lata,la,a,0.1859,,441.1676,441.1678,-0.12962963,-0.312037079,0,0,0,,0,167,167,92,1,,,,
,,,,,,b13cee4a14dd3bbc1c234a5b,66a626ef09d4e21e1a8894ec,6734d686a555a8bd1e97c7a7,2024-11-13_10h42.44.608,Tarea de género gramatical,2024.2.2,Win32,60.60606061,,,,,,,,,,,,,,,,,,,,,,,441.1711,442.0345,l,0,[],[],[],[],[],[],[],0.1854,0,442.0378,442.5336,,,,,,892,MAS,CON,150,cuadro,,l,0.1854,,442.5369,442.5382,-0.12962963,-0.312037079,0,0,0,,0,168,168,441,1,,,,
,,,,,,b13cee4a14dd3bbc1c234a5b,66a626ef09d4e21e1a8894ec,6734d686a555a8bd1e97c7a7,2024-11-13_10h42.44.608,Tarea de género gramatical,2024.2.2,Win32,60.60606061,,,,,,,,,,,,,,,,,,,,,,,442.5399,443.5169,l,1,[],[],[],[],[],[],[],0.3042,1,443.5207,444.0169,,,,,,717,FEM,AGR,150,barba,la,a,0.3042,,444.017,444.0174,-0.12962963,-0.312037079,0,0,0,,0,169,169,266,1,,,,
,,,,,,b13cee4a14dd3bbc1c234a5b,66a626ef09d4e21e1a8894ec,6734d686a555a8bd1e97c7a7,2024-11-13_10h42.44.608,Tarea de género gramatical,2024.2.2,Win32,60.60606061,,,,,,,,,,,,,,,,,,,,,,,444.0212,445.0499,l,1,[],[],[],[],[],[],[],0.352,1,445.0501,445.5493,,,,,,842,FEM,DIS,150,maleta,el,a,0.352,,445.5495,445.5498,-0.12962963,-0.312037079,0,0,0,,0,170,170,391,1,,,,
,,,,,,b13cee4a14dd3bbc1c234a5b,66a626ef09d4e21e1a8894ec,6734d686a555a8bd1e97c7a7,2024-11-13_10h42.44.608,Tarea de género gramatical,2024.2.2,Win32,60.60606061,,,,,,,,,,,,,,,,,,,,,,,445.5537,446.5822,l,1,[],[],[],[],[],[],[],0.3522,1,446.5824,447.0825,,,,,,489,FEM,AGR,150,luna,la,a,0.3522,,447.0827,447.083,-0.12962963,-0.312037079,0,0,0,,0,171,171,38,1,,,,
,,,,,,b13cee4a14dd3bbc1c234a5b,66a626ef09d4e21e1a8894ec,6734d686a555a8bd1e97c7a7,2024-11-13_10h42.44.608,Tarea de género gramatical,2024.2.2,Win32,60.60606061,,,,,,,,,,,,,,,,,,,,,,,447.0868,448.3311,l,1,[],[],[],[],[],[],[],0.5736,1,448.3314,448.8313,,,,,,613,FEM,CON,150,calle,,a,0.5736,,448.8315,448.8319,-0.12962963,-0.312037079,0,0,0,,0,172,172,162,1,,,,
,,,,,,b13cee4a14dd3bbc1c234a5b,66a626ef09d4e21e1a8894ec,6734d686a555a8bd1e97c7a7,2024-11-13_10h42.44.608,Tarea de género gramatical,2024.2.2,Win32,60.60606061,,,,,,,,,,,,,,,,,,,,,,,448.8361,449.964,a,1,[],[],[],[],[],[],[],0.459,1,449.9642,450.4637,,,,,,462,MAS,AGR,150,plan,el,l,0.459,,450.4694,450.4727,-0.12962963,-0.312037079,0,0,0,,0,173,173,11,1,,,,
,,,,,,b13cee4a14dd3bbc1c234a5b,66a626ef09d4e21e1a8894ec,6734d686a555a8bd1e97c7a7,2024-11-13_10h42.44.608,Tarea de género gramatical,2024.2.2,Win32,60.60606061,,,,,,,,,,,,,,,,,,,,,,,450.476,451.7966,a,1,[],[],[],[],[],[],[],0.6562,1,451.797,452.2964,,,,,,815,MAS,DIS,150,código,la,l,0.6562,,452.2966,452.297,-0.12962963,-0.312037079,0,0,0,,0,174,174,364,1,,,,
,,,,,,b13cee4a14dd3bbc1c234a5b,66a626ef09d4e21e1a8894ec,6734d686a555a8bd1e97c7a7,2024-11-13_10h42.44.608,Tarea de género gramatical,2024.2.2,Win32,60.60606061,,,,,,,,,,,,,,,,,,,,,,,452.3007,453.3127,a,1,[],[],[],[],[],[],[],0.3363,1,453.3129,453.8122,,,,,,526,MAS,CON,150,lujo,,l,0.3363,,453.8124,453.8128,-0.12962963,-0.312037079,0,0,0,,0,175,175,75,1,,,,
,,,,,,b13cee4a14dd3bbc1c234a5b,66a626ef09d4e21e1a8894ec,6734d686a555a8bd1e97c7a7,2024-11-13_10h42.44.608,Tarea de género gramatical,2024.2.2,Win32,60.60606061,,,,,,,,,,,,,,,,,,,,,,,453.8166,454.8119,a,1,[],[],[],[],[],[],[],0.3173,1,454.8122,455.3117,,,,,,696,MAS,AGR,150,humor,el,l,0.3173,,455.312,455.3129,-0.12962963,-0.312037079,0,0,0,,0,176,176,245,1,,,,
,,,,,,b13cee4a14dd3bbc1c234a5b,66a626ef09d4e21e1a8894ec,6734d686a555a8bd1e97c7a7,2024-11-13_10h42.44.608,Tarea de género gramatical,2024.2.2,Win32,60.60606061,,,,,,,,,,,,,,,,,,,,,,,455.3175,456.511,a,1,[],[],[],[],[],[],[],0.5188,1,456.5113,457.0111,,,,,,827,MAS,DIS,150,jardín,la,l,0.5188,,457.0163,457.0187,-0.12962963,-0.312037079,0,0,0,,0,177,177,376,1,,,,
,,,,,,b13cee4a14dd3bbc1c234a5b,66a626ef09d4e21e1a8894ec,6734d686a555a8bd1e97c7a7,2024-11-13_10h42.44.608,Tarea de género gramatical,2024.2.2,Win32,60.60606061,,,,,,,,,,,,,,,,,,,,,,,457.0209,458.1635,a,1,[],[],[],[],[],[],[],0.4789,1,458.1638,458.6606,,,,,,484,MAS,CON,150,gato,,l,0.4789,,458.6608,458.6612,-0.12962963,-0.312037079,0,0,0,,0,178,178,33,1,,,,
,,,,,,b13cee4a14dd3bbc1c234a5b,66a626ef09d4e21e1a8894ec,6734d686a555a8bd1e97c7a7,2024-11-13_10h42.44.608,Tarea de género gramatical,2024.2.2,Win32,60.60606061,,,,,,,,,,,,,,,,,,,,,,,458.6653,459.8932,a,1,[],[],[],[],[],[],[],0.5578,1,459.8937,460.3927,,,,,,683,MAS,DIS,150,golpe,la,l,0.5578,,460.3928,460.3932,-0.12962963,-0.312037079,0,0,0,,0,179,179,232,1,,,,
,,,,,,b13cee4a14dd3bbc1c234a5b,66a626ef09d4e21e1a8894ec,6734d686a555a8bd1e97c7a7,2024-11-13_10h42.44.608,Tarea de género gramatical,2024.2.2,Win32,60.60606061,,,,,,,,,,,,,,,,,,,,,,,460.3982,461.6761,a,1,[],[],[],[],[],[],[],0.6016,1,461.6764,462.1757,,,,,,755,MAS,DIS,150,hombre,la,l,0.6016,,462.1758,462.1762,-0.12962963,-0.312037079,0,0,0,,0,180,180,304,1,,,,
,,,,,,b13cee4a14dd3bbc1c234a5b,66a626ef09d4e21e1a8894ec,6734d686a555a8bd1e97c7a7,2024-11-13_10h42.44.608,Tarea de género gramatical,2024.2.2,Win32,60.60606061,,,,,,,,,,,,,,,,,,,,,,,462.1799,463.3579,a,1,[],[],[],[],[],[],[],0.5055,1,463.3582,463.8581,,,,,,671,MAS,DIS,150,brazo,la,l,0.5055,,463.8585,463.8592,-0.12962963,-0.312037079,0,0,0,,0,181,181,220,1,,,,
,,,,,,b13cee4a14dd3bbc1c234a5b,66a626ef09d4e21e1a8894ec,6734d686a555a8bd1e97c7a7,2024-11-13_10h42.44.608,Tarea de género gramatical,2024.2.2,Win32,60.60606061,,,,,,,,,,,,,,,,,,,,,,,463.8644,464.9072,l,1,[],[],[],[],[],[],[],0.369,1,464.9076,465.4071,,,,,,759,FEM,AGR,150,esposa,la,a,0.369,,465.4118,465.4144,-0.12962963,-0.312037079,0,0,0,,0,182,182,308,1,,,,
,,,,,,b13cee4a14dd3bbc1c234a5b,66a626ef09d4e21e1a8894ec,6734d686a555a8bd1e97c7a7,2024-11-13_10h42.44.608,Tarea de género gramatical,2024.2.2,Win32,60.60606061,,,,,,,,,,,,,,,,,,,,,,,465.4173,466.4232,a,1,[],[],[],[],[],[],[],0.3332,1,466.4234,466.9232,,,,,,474,MAS,AGR,150,voto,el,l,0.3332,,466.9235,466.9238,-0.12962963,-0.312037079,0,0,0,,0,183,183,23,1,,,,
,,,,,,b13cee4a14dd3bbc1c234a5b,66a626ef09d4e21e1a8894ec,6734d686a555a8bd1e97c7a7,2024-11-13_10h42.44.608,Tarea de género gramatical,2024.2.2,Win32,60.60606061,,,,,,,,,,,,,,,,,,,,,,,466.9276,468.1077,l,1,[],[],[],[],[],[],[],0.5107,1,468.1082,468.606,,,,,,518,FEM,DIS,150,pata,el,a,0.5107,,468.6063,468.6066,-0.12962963,-0.312037079,0,0,0,,0,184,184,67,1,,,,
,,,,,,b13cee4a14dd3bbc1c234a5b,66a626ef09d4e21e1a8894ec,6734d686a555a8bd1e97c7a7,2024-11-13_10h42.44.608,Tarea de género gramatical,2024.2.2,Win32,60.60606061,,,,,,,,,,,,,,,,,,,,,,,468.6105,469.7216,a,1,[],[],[],[],[],[],[],0.4406,1,469.7219,470.2224,,,,,,858,MAS,AGR,150,cheque,el,l,0.4406,,470.2226,470.223,-0.12962963,-0.312037079,0,0,0,,0,185,185,407,1,,,,
,,,,,,b13cee4a14dd3bbc1c234a5b,66a626ef09d4e21e1a8894ec,6734d686a555a8bd1e97c7a7,2024-11-13_10h42.44.608,Tarea de género gramatical,2024.2.2,Win32,60.60606061,,,,,,,,,,,,,,,,,,,,,,,470.2275,471.2375,l,1,[],[],[],[],[],[],[],0.3405,1,471.2376,471.7377,,,,,,715,FEM,CON,150,rueda,,a,0.3405,,471.7422,471.7442,-0.12962963,-0.312037079,0,0,0,,0,186,186,264,1,,,,
,,,,,,b13cee4a14dd3bbc1c234a5b,66a626ef09d4e21e1a8894ec,6734d686a555a8bd1e97c7a7,2024-11-13_10h42.44.608,Tarea de género gramatical,2024.2.2,Win32,60.60606061,,,,,,,,,,,,,,,,,,,,,,,471.7472,472.7542,l,1,[],[],[],[],[],[],[],0.3391,1,472.7545,473.257,,,,,,452,FEM,DIS,150,vida,el,a,0.3391,,473.2572,473.2585,-0.12962963,-0.312037079,0,0,0,,0,187,187,1,1,,,,
,,,,,,b13cee4a14dd3bbc1c234a5b,66a626ef09d4e21e1a8894ec,6734d686a555a8bd1e97c7a7,2024-11-13_10h42.44.608,Tarea de género gramatical,2024.2.2,Win32,60.60606061,,,,,,,,,,,,,,,,,,,,,,,473.2625,474.2867,a,1,[],[],[],[],[],[],[],0.3538,1,474.2871,474.7867,,,,,,725,MAS,DIS,150,disco,la,l,0.3538,,474.7868,474.787,-0.12962963,-0.312037079,0,0,0,,0,188,188,274,1,,,,
,,,,,,b13cee4a14dd3bbc1c234a5b,66a626ef09d4e21e1a8894ec,6734d686a555a8bd1e97c7a7,2024-11-13_10h42.44.608,Tarea de género gramatical,2024.2.2,Win32,60.60606061,,,,,,,,,,,,,,,,,,,,,,,474.791,475.7697,a,1,[],[],[],[],[],[],[],0.3011,1,475.77,476.2692,,,,,,754,MAS,CON,150,tiempo,,l,0.3011,,476.2694,476.2698,-0.12962963,-0.312037079,0,0,0,,0,189,189,303,1,,,,
,,,,,,b13cee4a14dd3bbc1c234a5b,66a626ef09d4e21e1a8894ec,6734d686a555a8bd1e97c7a7,2024-11-13_10h42.44.608,Tarea de género gramatical,2024.2.2,Win32,60.60606061,,,,,,,,,,,,,,,,,,,,,,,476.274,477.3677,l,1,[],[],[],[],[],[],[],0.4147,1,477.3678,477.8684,,,,,,651,FEM,AGR,150,leche,la,a,0.4147,,477.8685,477.8692,-0.12962963,-0.312037079,0,0,0,,0,190,190,200,1,,,,
,,,,,,b13cee4a14dd3bbc1c234a5b,66a626ef09d4e21e1a8894ec,6734d686a555a8bd1e97c7a7,2024-11-13_10h42.44.608,Tarea de género gramatical,2024.2.2,Win32,60.60606061,,,,,,,,,,,,,,,,,,,,,,,477.8734,478.9508,l,1,[],[],[],[],[],[],[],0.4018,1,478.9512,479.451,,,,,,763,FEM,CON,150,ciudad,,a,0.4018,,479.456,479.4581,-0.12962963,-0.312037079,0,0,0,,0,191,191,312,1,,,,
,,,,,,b13cee4a14dd3bbc1c234a5b,66a626ef09d4e21e1a8894ec,6734d686a555a8bd1e97c7a7,2024-11-13_10h42.44.608,Tarea de género gramatical,2024.2.2,Win32,60.60606061,,,,,,,,,,,,,,,,,,,,,,,479.4607,480.486,a,1,[],[],[],[],[],[],[],0.3602,1,480.4863,480.9834,,,,,,676,MAS,CON,150,color,,l,0.3602,,480.9837,480.9841,-0.12962963,-0.312037079,0,0,0,,0,192,192,225,1,,,,
,,,,,,b13cee4a14dd3bbc1c234a5b,66a626ef09d4e21e1a8894ec,6734d686a555a8bd1e97c7a7,2024-11-13_10h42.44.608,Tarea de género gramatical,2024.2.2,Win32,60.60606061,,,,,,,,,,,,,,,,,,,,,,,480.9885,481.9664,a,1,[],[],[],[],[],[],[],0.3054,1,481.9666,482.4665,,,,,,624,MAS,AGR,150,perro,el,l,0.3054,,482.4667,482.4672,-0.12962963,-0.312037079,0,0,0,,0,193,193,173,1,,,,
,,,,,,b13cee4a14dd3bbc1c234a5b,66a626ef09d4e21e1a8894ec,6734d686a555a8bd1e97c7a7,2024-11-13_10h42.44.608,Tarea de género gramatical,2024.2.2,Win32,60.60606061,,,,,,,,,,,,,,,,,,,,,,,482.4717,483.4656,a,1,[],[],[],[],[],[],[],0.3199,1,483.4659,483.966,,,,,,756,MAS,AGR,150,dinero,el,l,0.3199,,483.9662,483.9668,-0.12962963,-0.312037079,0,0,0,,0,194,194,305,1,,,,
,,,,,,b13cee4a14dd3bbc1c234a5b,66a626ef09d4e21e1a8894ec,6734d686a555a8bd1e97c7a7,2024-11-13_10h42.44.608,Tarea de género gramatical,2024.2.2,Win32,60.60606061,,,,,,,,,,,,,,,,,,,,,,,483.9709,484.9323,l,1,[],[],[],[],[],[],[],0.2911,1,484.9328,485.4318,,,,,,555,FEM,AGR,150,jefa,la,a,0.2911,,485.437,485.4394,-0.12962963,-0.312037079,0,0,0,,0,195,195,104,1,,,,
,,,,,,b13cee4a14dd3bbc1c234a5b,66a626ef09d4e21e1a8894ec,6734d686a555a8bd1e97c7a7,2024-11-13_10h42.44.608,Tarea de género gramatical,2024.2.2,Win32,60.60606061,,,,,,,,,,,,,,,,,,,,,,,485.444,486.4816,l,1,[],[],[],[],[],[],[],0.3693,1,486.482,486.9812,,,,,,729,FEM,AGR,150,selva,la,a,0.3693,,486.9816,486.9823,-0.12962963,-0.312037079,0,0,0,,0,196,196,278,1,,,,
,,,,,,b13cee4a14dd3bbc1c234a5b,66a626ef09d4e21e1a8894ec,6734d686a555a8bd1e97c7a7,2024-11-13_10h42.44.608,Tarea de género gramatical,2024.2.2,Win32,60.60606061,,,,,,,,,,,,,,,,,,,,,,,486.9868,488.0965,l,1,[],[],[],[],[],[],[],0.4417,1,488.0966,488.5971,,,,,,889,FEM,CON,150,toalla,,a,0.4417,,488.5973,488.5979,-0.12962963,-0.312037079,0,0,0,,0,197,197,438,1,,,,
,,,,,,b13cee4a14dd3bbc1c234a5b,66a626ef09d4e21e1a8894ec,6734d686a555a8bd1e97c7a7,2024-11-13_10h42.44.608,Tarea de género gramatical,2024.2.2,Win32,60.60606061,,,,,,,,,,,,,,,,,,,,,,,488.6018,489.5632,l,1,[],[],[],[],[],[],[],0.2849,1,489.5635,490.0631,,,,,,871,FEM,CON,150,novela,,a,0.2849,,490.0632,490.0637,-0.12962963,-0.312037079,0,0,0,,0,198,198,420,1,,,,
,,,,,,b13cee4a14dd3bbc1c234a5b,66a626ef09d4e21e1a8894ec,6734d686a555a8bd1e97c7a7,2024-11-13_10h42.44.608,Tarea de género gramatical,2024.2.2,Win32,60.60606061,,,,,,,,,,,,,,,,,,,,,,,490.0682,491.1127,a,1,[],[],[],[],[],[],[],0.3689,1,491.1131,491.6125,,,,,,455,MAS,DIS,150,tipo,la,l,0.3689,,491.6126,491.6129,-0.12962963,-0.312037079,0,0,0,,0,199,199,4,1,,,,
,,,,,,b13cee4a14dd3bbc1c234a5b,66a626ef09d4e21e1a8894ec,6734d686a555a8bd1e97c7a7,2024-11-13_10h42.44.608,Tarea de género gramatical,2024.2.2,Win32,60.60606061,,,,,,,,,,,,,,,,,,,,,,,491.617,492.645,a,1,[],[],[],[],[],[],[],0.3544,1,492.6453,493.1445,,,,,,672,MAS,AGR,150,valor,el,l,0.3544,,493.1484,493.1493,-0.12962963,-0.312037079,0,0,0,,0,200,200,221,1,,,,
,,,,,,b13cee4a14dd3bbc1c234a5b,66a626ef09d4e21e1a8894ec,6734d686a555a8bd1e97c7a7,2024-11-13_10h42.44.608,Tarea de género gramatical,2024.2.2,Win32,60.60606061,,,,,,,,,,,,,,,,,,,,,,,493.151,494.1786,a,1,[],[],[],[],[],[],[],0.3558,1,494.1792,494.6776,,,,,,804,MAS,AGR,150,camión,el,l,0.3558,,494.6778,494.6782,-0.12962963,-0.312037079,0,0,0,,0,201,201,353,1,,,,
,,,,,,b13cee4a14dd3bbc1c234a5b,66a626ef09d4e21e1a8894ec,6734d686a555a8bd1e97c7a7,2024-11-13_10h42.44.608,Tarea de género gramatical,2024.2.2,Win32,60.60606061,,,,,,,,,,,,,,,,,,,,,,,494.6821,495.7269,l,1,[],[],[],[],[],[],[],0.3727,1,495.7273,496.2271,,,,,,650,FEM,DIS,150,silla,el,a,0.3727,,496.2273,496.2277,-0.12962963,-0.312037079,0,0,0,,0,202,202,199,1,,,,
,,,,,,b13cee4a14dd3bbc1c234a5b,66a626ef09d4e21e1a8894ec,6734d686a555a8bd1e97c7a7,2024-11-13_10h42.44.608,Tarea de género gramatical,2024.2.2,Win32,60.60606061,,,,,,,,,,,,,,,,,,,,,,,496.2323,497.2103,l,1,[],[],[],[],[],[],[],0.3055,1,497.211,497.7094,,,,,,764,FEM,DIS,150,señora,el,a,0.3055,,497.7095,497.71,-0.12962963,-0.312037079,0,0,0,,0,203,203,313,1,,,,
,,,,,,b13cee4a14dd3bbc1c234a5b,66a626ef09d4e21e1a8894ec,6734d686a555a8bd1e97c7a7,2024-11-13_10h42.44.608,Tarea de género gramatical,2024.2.2,Win32,60.60606061,,,,,,,,,,,,,,,,,,,,,,,497.7142,498.6605,a,1,[],[],[],[],[],[],[],0.2763,1,498.6618,499.1589,,,,,,893,MAS,DIS,150,templo,la,l,0.2763,,499.1633,499.1653,-0.12962963,-0.312037079,0,0,0,,0,204,204,442,1,,,,
,,,,,,b13cee4a14dd3bbc1c234a5b,66a626ef09d4e21e1a8894ec,6734d686a555a8bd1e97c7a7,2024-11-13_10h42.44.608,Tarea de género gramatical,2024.2.2,Win32,60.60606061,,,,,,,,,,,,,,,,,,,,,,,499.168,500.2422,l,1,[],[],[],[],[],[],[],0.4012,1,500.2424,500.7414,,,,,,873,FEM,AGR,150,poesía,la,a,0.4012,,500.7416,500.7422,-0.12962963,-0.312037079,0,0,0,,0,205,205,422,1,,,,
,,,,,,b13cee4a14dd3bbc1c234a5b,66a626ef09d4e21e1a8894ec,6734d686a555a8bd1e97c7a7,2024-11-13_10h42.44.608,Tarea de género gramatical,2024.2.2,Win32,60.60606061,,,,,,,,,,,,,,,,,,,,,,,500.7463,501.7243,a,1,[],[],[],[],[],[],[],0.3049,1,501.7249,502.224,,,,,,832,MAS,CON,150,teatro,,l,0.3049,,502.2241,502.2246,-0.12962963,-0.312037079,0,0,0,,0,206,206,381,1,,,,
,,,,,,b13cee4a14dd3bbc1c234a5b,66a626ef09d4e21e1a8894ec,6734d686a555a8bd1e97c7a7,2024-11-13_10h42.44.608,Tarea de género gramatical,2024.2.2,Win32,60.60606061,,,,,,,,,,,,,,,,,,,,,,,502.2289,503.1907,l,1,[],[],[],[],[],[],[],0.2873,1,503.191,503.6905,,,,,,723,FEM,AGR,150,tarta,la,a,0.2873,,503.6906,503.691,-0.12962963,-0.312037079,0,0,0,,0,207,207,272,1,,,,
,,,,,,b13cee4a14dd3bbc1c234a5b,66a626ef09d4e21e1a8894ec,6734d686a555a8bd1e97c7a7,2024-11-13_10h42.44.608,Tarea de género gramatical,2024.2.2,Win32,60.60606061,,,,,,,,,,,,,,,,,,,,,,,503.6952,504.673,a,1,[],[],[],[],[],[],[],0.3072,1,504.6733,505.1731,,,,,,664,MAS,CON,150,fondo,,l,0.3072,,505.1733,505.1738,-0.12962963,-0.312037079,0,0,0,,0,208,208,213,1,,,,
,,,,,,b13cee4a14dd3bbc1c234a5b,66a626ef09d4e21e1a8894ec,6734d686a555a8bd1e97c7a7,2024-11-13_10h42.44.608,Tarea de género gramatical,2024.2.2,Win32,60.60606061,,,,,,,,,,,,,,,,,,,,,,,505.1787,506.244,a,0,[],[],[],[],[],[],[],0.3968,0,506.2469,506.7388,,,,,,800,FEM,DIS,150,imagen,el,a,0.3968,,506.7438,506.7464,-0.12962963,-0.312037079,0,0,0,,0,209,209,349,1,,,,
,,,,,,b13cee4a14dd3bbc1c234a5b,66a626ef09d4e21e1a8894ec,6734d686a555a8bd1e97c7a7,2024-11-13_10h42.44.608,Tarea de género gramatical,2024.2.2,Win32,60.60606061,,,,,,,,,,,,,,,,,,,,,,,506.7491,507.855,a,1,[],[],[],[],[],[],[],0.4385,1,507.8589,508.355,,,,,,576,MAS,AGR,150,lazo,el,l,0.4385,,508.3551,508.3556,-0.12962963,-0.312037079,0,0,0,,0,210,210,125,1,,,,
,,,,,,b13cee4a14dd3bbc1c234a5b,66a626ef09d4e21e1a8894ec,6734d686a555a8bd1e97c7a7,2024-11-13_10h42.44.608,Tarea de género gramatical,2024.2.2,Win32,60.60606061,,,,,,,,,,,,,,,,,,,,,,,508.3602,509.305,l,1,[],[],[],[],[],[],[],0.2761,1,509.3055,509.8039,,,,,,585,FEM,AGR,150,raíz,la,a,0.2761,,509.8041,509.8045,-0.12962963,-0.312037079,0,0,0,,0,211,211,134,1,,,,
,,,,,,b13cee4a14dd3bbc1c234a5b,66a626ef09d4e21e1a8894ec,6734d686a555a8bd1e97c7a7,2024-11-13_10h42.44.608,Tarea de género gramatical,2024.2.2,Win32,60.60606061,,,,,,,,,,,,,,,,,,,,,,,509.8088,510.804,l,1,[],[],[],[],[],[],[],0.3189,1,510.8042,511.3035,,,,,,458,FEM,DIS,150,idea,el,a,0.3189,,511.3037,511.3042,-0.12962963,-0.312037079,0,0,0,,0,212,212,7,1,,,,
,,,,,,b13cee4a14dd3bbc1c234a5b,66a626ef09d4e21e1a8894ec,6734d686a555a8bd1e97c7a7,2024-11-13_10h42.44.608,Tarea de género gramatical,2024.2.2,Win32,60.60606061,,,,,,,,,,,,,,,,,,,,,,,511.3084,512.2363,l,1,[],[],[],[],[],[],[],0.2584,1,512.2366,512.7366,,,,,,614,FEM,DIS,150,novia,el,a,0.2584,,512.7409,512.7434,-0.12962963,-0.312037079,0,0,0,,0,213,213,163,1,,,,
,,,,,,b13cee4a14dd3bbc1c234a5b,66a626ef09d4e21e1a8894ec,6734d686a555a8bd1e97c7a7,2024-11-13_10h42.44.608,Tarea de género gramatical,2024.2.2,Win32,60.60606061,,,,,,,,,,,,,,,,,,,,,,,512.7459,513.7362,a,0,[],[],[],[],[],[],[],0.3179,0,513.7398,514.2354,,,,,,517,FEM,CON,150,miel,,a,0.3179,,514.2357,514.2362,-0.12962963,-0.312037079,0,0,0,,0,214,214,66,1,,,,
,,,,,,b13cee4a14dd3bbc1c234a5b,66a626ef09d4e21e1a8894ec,6734d686a555a8bd1e97c7a7,2024-11-13_10h42.44.608,Tarea de género gramatical,2024.2.2,Win32,60.60606061,,,,,,,,,,,,,,,,,,,,,,,514.2413,515.3019,a,1,[],[],[],[],[],[],[],0.3871,1,515.3045,515.8013,,,,,,587,MAS,DIS,150,coco,la,l,0.3871,,515.8014,515.8018,-0.12962963,-0.312037079,0,0,0,,0,215,215,136,1,,,,
,,,,,,b13cee4a14dd3bbc1c234a5b,66a626ef09d4e21e1a8894ec,6734d686a555a8bd1e97c7a7,2024-11-13_10h42.44.608,Tarea de género gramatical,2024.2.2,Win32,60.60606061,,,,,,,,,,,,,,,,,,,,,,,515.8083,516.8236,a,1,[],[],[],[],[],[],[],0.3483,1,516.824,517.3175,,,,,,570,MAS,AGR,150,puño,el,l,0.3483,,517.3177,517.3185,-0.12962963,-0.312037079,0,0,0,,0,216,216,119,1,,,,
,,,,,,b13cee4a14dd3bbc1c234a5b,66a626ef09d4e21e1a8894ec,6734d686a555a8bd1e97c7a7,2024-11-13_10h42.44.608,Tarea de género gramatical,2024.2.2,Win32,60.60606061,,,,,,,,,,,,,,,,,,,,,,,517.3226,518.417,a,1,[],[],[],[],[],[],[],0.4173,1,518.4172,518.9169,,,,,,527,MAS,DIS,150,pico,la,l,0.4173,,518.9171,518.9173,-0.12962963,-0.312037079,0,0,0,,0,217,217,76,1,,,,
,,,,,,b13cee4a14dd3bbc1c234a5b,66a626ef09d4e21e1a8894ec,6734d686a555a8bd1e97c7a7,2024-11-13_10h42.44.608,Tarea de género gramatical,2024.2.2,Win32,60.60606061,,,,,,,,,,,,,,,,,,,,,,,518.9221,519.9,l,1,[],[],[],[],[],[],[],0.302,1,519.9006,520.4004,,,,,,560,FEM,DIS,150,rosa,el,a,0.302,,520.4052,520.4074,-0.12962963,-0.312037079,0,0,0,,0,218,218,109,1,,,,
,,,,,,b13cee4a14dd3bbc1c234a5b,66a626ef09d4e21e1a8894ec,6734d686a555a8bd1e97c7a7,2024-11-13_10h42.44.608,Tarea de género gramatical,2024.2.2,Win32,60.60606061,,,,,,,,,,,,,,,,,,,,,,,520.41,521.449,a,1,[],[],[],[],[],[],[],0.3718,1,521.4492,521.9488,,,,,,629,MAS,DIS,150,viaje,la,l,0.3718,,521.949,521.9495,-0.12962963,-0.312037079,0,0,0,,0,219,219,178,1,,,,
,,,,,,b13cee4a14dd3bbc1c234a5b,66a626ef09d4e21e1a8894ec,6734d686a555a8bd1e97c7a7,2024-11-13_10h42.44.608,Tarea de género gramatical,2024.2.2,Win32,60.60606061,,,,,,,,,,,,,,,,,,,,,,,521.9539,522.982,a,1,[],[],[],[],[],[],[],0.3502,1,522.9823,523.4817,,,,,,467,MAS,DIS,150,modo,la,l,0.3502,,523.4818,523.4823,-0.12962963,-0.312037079,0,0,0,,0,220,220,16,1,,,,
,,,,,,b13cee4a14dd3bbc1c234a5b,66a626ef09d4e21e1a8894ec,6734d686a555a8bd1e97c7a7,2024-11-13_10h42.44.608,Tarea de género gramatical,2024.2.2,Win32,60.60606061,,,,,,,,,,,,,,,,,,,,,,,523.4865,524.4476,a,1,[],[],[],[],[],[],[],0.2853,1,524.4479,524.9474,,,,,,468,MAS,AGR,150,tren,el,l,0.2853,,524.9475,524.9478,-0.12962963,-0.312037079,0,0,0,,0,221,221,17,1,,,,
,,,,,,b13cee4a14dd3bbc1c234a5b,66a626ef09d4e21e1a8894ec,6734d686a555a8bd1e97c7a7,2024-11-13_10h42.44.608,Tarea de género gramatical,2024.2.2,Win32,60.60606061,,,,,,,,,,,,,,,,,,,,,,,524.9519,525.897,l,1,[],[],[],[],[],[],[],0.2722,1,525.8974,526.397,,,,,,637,FEM,CON,150,lista,,a,0.2722,,526.4023,526.4052,-0.12962963,-0.312037079,0,0,0,,0,222,222,186,1,,,,
,,,,,,b13cee4a14dd3bbc1c234a5b,66a626ef09d4e21e1a8894ec,6734d686a555a8bd1e97c7a7,2024-11-13_10h42.44.608,Tarea de género gramatical,2024.2.2,Win32,60.60606061,,,,,,,,,,,,,,,,,,,,,,,526.4083,527.3339,a,1,[],[],[],[],[],[],[],0.2647,1,527.3342,527.8297,,,,,,828,MAS,AGR,150,pastel,el,l,0.2647,,527.8299,527.8303,-0.12962963,-0.312037079,0,0,0,,0,223,223,377,1,,,,
,,,,,,b13cee4a14dd3bbc1c234a5b,66a626ef09d4e21e1a8894ec,6734d686a555a8bd1e97c7a7,2024-11-13_10h42.44.608,Tarea de género gramatical,2024.2.2,Win32,60.60606061,,,,,,,,,,,,,,,,,,,,,,,527.8349,528.9123,l,1,[],[],[],[],[],[],[],0.4044,1,528.9125,529.4122,,,,,,848,FEM,DIS,150,hierba,el,a,0.4044,,529.4123,529.4128,-0.12962963,-0.312037079,0,0,0,,0,224,224,397,1,,,,
,,,,,,b13cee4a14dd3bbc1c234a5b,66a626ef09d4e21e1a8894ec,6734d686a555a8bd1e97c7a7,2024-11-13_10h42.44.608,Tarea de género gramatical,2024.2.2,Win32,60.60606061,,,,,,,,,,,,,,,,,,,,,,,529.4172,530.6119,l,1,[],[],[],[],[],[],[],0.5202,1,530.6121,531.1115,,,,,,615,FEM,AGR,150,amiga,la,a,0.5202,,531.1117,531.1122,-0.12962963,-0.312037079,0,0,0,,0,225,225,164,1,,,,
,,,,,,b13cee4a14dd3bbc1c234a5b,66a626ef09d4e21e1a8894ec,6734d686a555a8bd1e97c7a7,2024-11-13_10h42.44.608,Tarea de género gramatical,2024.2.2,Win32,60.60606061,,,,,,,,,,,,,,,,,,,,,,,531.1162,532.1111,a,1,[],[],[],[],[],[],[],0.3229,1,532.1113,532.6108,,,,,,742,MAS,CON,150,piano,,l,0.3229,,532.6109,532.6115,-0.12962963,-0.312037079,0,0,0,,0,226,226,291,1,,,,
,,,,,,b13cee4a14dd3bbc1c234a5b,66a626ef09d4e21e1a8894ec,6734d686a555a8bd1e97c7a7,2024-11-13_10h42.44.608,Tarea de género gramatical,2024.2.2,Win32,60.60606061,,,,,,,,,,,,,,,,,,,,,,,532.6156,533.5452,l,1,[],[],[],[],[],[],[],0.2578,1,533.5455,534.0438,,,,,,548,FEM,DIS,150,fuga,el,a,0.2578,,534.0481,534.0509,-0.12962963,-0.312037079,0,0,0,,0,227,227,97,1,,,,
,,,,,,b13cee4a14dd3bbc1c234a5b,66a626ef09d4e21e1a8894ec,6734d686a555a8bd1e97c7a7,2024-11-13_10h42.44.608,Tarea de género gramatical,2024.2.2,Win32,60.60606061,,,,,,,,,,,,,,,,,,,,,,,534.0541,534.9598,a,1,[],[],[],[],[],[],[],0.2394,1,534.9601,535.4594,,,,,,774,MAS,AGR,150,cuarto,el,l,0.2394,,535.4596,535.4601,-0.12962963,-0.312037079,0,0,0,,0,228,228,323,1,,,,
,,,,,,b13cee4a14dd3bbc1c234a5b,66a626ef09d4e21e1a8894ec,6734d686a555a8bd1e97c7a7,2024-11-13_10h42.44.608,Tarea de género gramatical,2024.2.2,Win32,60.60606061,,,,,,,,,,,,,,,,,,,,,,,535.4639,536.426,a,1,[],[],[],[],[],[],[],0.2856,1,536.4263,536.9254,,,,,,460,MAS,CON,150,niño,,l,0.2856,,536.9256,536.9263,-0.12962963,-0.312037079,0,0,0,,0,229,229,9,1,,,,
,,,,,,b13cee4a14dd3bbc1c234a5b,66a626ef09d4e21e1a8894ec,6734d686a555a8bd1e97c7a7,2024-11-13_10h42.44.608,Tarea de género gramatical,2024.2.2,Win32,60.60606061,,,,,,,,,,,,,,,,,,,,,,,536.9314,537.8086,l,1,[],[],[],[],[],[],[],0.2014,1,537.8088,538.3086,,,,,,669,FEM,AGR,150,costa,la,a,0.2014,,538.3088,538.3092,-0.12962963,-0.312037079,0,0,0,,0,230,230,218,1,,,,
,,,,,,b13cee4a14dd3bbc1c234a5b,66a626ef09d4e21e1a8894ec,6734d686a555a8bd1e97c7a7,2024-11-13_10h42.44.608,Tarea de género gramatical,2024.2.2,Win32,60.60606061,,,,,,,,,,,,,,,,,,,,,,,538.3133,539.1911,a,0,[],[],[],[],[],[],[],0.2056,0,539.1944,539.6911,,,,,,620,FEM,DIS,150,carta,el,a,0.2056,,539.6958,539.6984,-0.12962963,-0.312037079,0,0,0,,0,231,231,169,1,,,,
,,,,,,b13cee4a14dd3bbc1c234a5b,66a626ef09d4e21e1a8894ec,6734d686a555a8bd1e97c7a7,2024-11-13_10h42.44.608,Tarea de género gramatical,2024.2.2,Win32,60.60606061,,,,,,,,,,,,,,,,,,,,,,,539.7012,540.8406,a,1,[],[],[],[],[],[],[],0.4707,1,540.8438,541.3403,,,,,,557,MAS,DIS,150,cubo,la,l,0.4707,,541.3405,541.341,-0.12962963,-0.312037079,0,0,0,,0,232,232,106,1,,,,
,,,,,,b13cee4a14dd3bbc1c234a5b,66a626ef09d4e21e1a8894ec,6734d686a555a8bd1e97c7a7,2024-11-13_10h42.44.608,Tarea de género gramatical,2024.2.2,Win32,60.60606061,,,,,,,,,,,,,,,,,,,,,,,541.3452,542.6566,a,1,[],[],[],[],[],[],[],0.6361,1,542.6568,543.156,,,,,,798,MAS,AGR,150,anillo,el,l,0.6361,,543.1561,543.1566,-0.12962963,-0.312037079,0,0,0,,0,233,233,347,1,,,,
,,,,,,b13cee4a14dd3bbc1c234a5b,66a626ef09d4e21e1a8894ec,6734d686a555a8bd1e97c7a7,2024-11-13_10h42.44.608,Tarea de género gramatical,2024.2.2,Win32,60.60606061,,,,,,,,,,,,,,,,,,,,,,,543.1605,544.138,l,1,[],[],[],[],[],[],[],0.2974,1,544.1381,544.6384,,,,,,493,FEM,CON,150,nena,,a,0.2974,,544.6387,544.6392,-0.12962963,-0.312037079,0,0,0,,0,234,234,42,1,,,,
,,,,,,b13cee4a14dd3bbc1c234a5b,66a626ef09d4e21e1a8894ec,6734d686a555a8bd1e97c7a7,2024-11-13_10h42.44.608,Tarea de género gramatical,2024.2.2,Win32,60.60606061,,,,,,,,,,,,,,,,,,,,,,,544.6437,545.9048,a,1,[],[],[],[],[],[],[],0.5867,1,545.9051,546.4048,,,,,,574,MAS,CON,150,clan,,l,0.5867,,546.405,546.4054,-0.12962963,-0.312037079,0,0,0,,0,235,235,123,1,,,,
,,,,,,b13cee4a14dd3bbc1c234a5b,66a626ef09d4e21e1a8894ec,6734d686a555a8bd1e97c7a7,2024-11-13_10h42.44.608,Tarea de género gramatical,2024.2.2,Win32,60.60606061,,,,,,,,,,,,,,,,,,,,,,,546.4093,547.5372,a,1,[],[],[],[],[],[],[],0.4562,1,547.5375,548.0373,,,,,,641,MAS,DIS,150,dolor,la,l,0.4562,,548.042,548.0441,-0.12962963,-0.312037079,0,0,0,,0,236,236,190,1,,,,
,,,,,,b13cee4a14dd3bbc1c234a5b,66a626ef09d4e21e1a8894ec,6734d686a555a8bd1e97c7a7,2024-11-13_10h42.44.608,Tarea de género gramatical,2024.2.2,Win32,60.60606061,,,,,,,,,,,,,,,,,,,,,,,548.0468,549.0369,l,1,[],[],[],[],[],[],[],0.3209,1,549.037,549.5363,,,,,,794,FEM,DIS,150,pareja,el,a,0.3209,,549.5365,549.5367,-0.12962963,-0.312037079,0,0,0,,0,237,237,343,1,,,,
,,,,,,b13cee4a14dd3bbc1c234a5b,66a626ef09d4e21e1a8894ec,6734d686a555a8bd1e97c7a7,2024-11-13_10h42.44.608,Tarea de género gramatical,2024.2.2,Win32,60.60606061,,,,,,,,,,,,,,,,,,,,,,,549.5398,550.5524,l,1,[],[],[],[],[],[],[],0.3331,1,550.5526,551.0526,,,,,,735,FEM,AGR,150,mafia,la,a,0.3331,,551.0528,551.0538,-0.12962963,-0.312037079,0,0,0,,0,238,238,284,1,,,,
,,,,,,b13cee4a14dd3bbc1c234a5b,66a626ef09d4e21e1a8894ec,6734d686a555a8bd1e97c7a7,2024-11-13_10h42.44.608,Tarea de género gramatical,2024.2.2,Win32,60.60606061,,,,,,,,,,,,,,,,,,,,,,,551.0582,552.0024,a,1,[],[],[],[],[],[],[],0.2691,1,552.0028,552.502,,,,,,628,MAS,CON,150,punto,,l,0.2691,,552.5022,552.5028,-0.12962963,-0.312037079,0,0,0,,0,239,239,177,1,,,,
,,,,,,b13cee4a14dd3bbc1c234a5b,66a626ef09d4e21e1a8894ec,6734d686a555a8bd1e97c7a7,2024-11-13_10h42.44.608,Tarea de género gramatical,2024.2.2,Win32,60.60606061,,,,,,,,,,,,,,,,,,,,,,,552.5074,553.4849,l,1,[],[],[],[],[],[],[],0.3092,1,553.4853,553.9836,,,,,,663,FEM,AGR,150,magia,la,a,0.3092,,553.9861,553.987,-0.12962963,-0.312037079,0,0,0,,0,240,240,212,1,,,,
,,,,,,b13cee4a14dd3bbc1c234a5b,66a626ef09d4e21e1a8894ec,6734d686a555a8bd1e97c7a7,2024-11-13_10h42.44.608,Tarea de género gramatical,2024.2.2,Win32,60.60606061,,,,,,,,,,,,,,,,,,,,,,,553.988,555.0664,l,1,[],[],[],[],[],[],[],0.4018,1,555.0665,555.5662,,,,,,777,FEM,AGR,150,tienda,la,a,0.4018,,555.5663,555.5664,-0.12962963,-0.312037079,0,0,0,,0,241,241,326,1,,,,
,,,,,,b13cee4a14dd3bbc1c234a5b,66a626ef09d4e21e1a8894ec,6734d686a555a8bd1e97c7a7,2024-11-13_10h42.44.608,Tarea de género gramatical,2024.2.2,Win32,60.60606061,,,,,,,,,,,,,,,,,,,,,,,555.5691,556.7,l,1,[],[],[],[],[],[],[],0.4526,1,556.7002,557.1998,,,,,,541,FEM,CON,150,hoja,,a,0.4526,,557.2,557.2003,-0.12962963,-0.312037079,0,0,0,,0,242,242,90,1,,,,
,,,,,,b13cee4a14dd3bbc1c234a5b,66a626ef09d4e21e1a8894ec,6734d686a555a8bd1e97c7a7,2024-11-13_10h42.44.608,Tarea de género gramatical,2024.2.2,Win32,60.60606061,,,,,,,,,,,,,,,,,,,,,,,557.204,558.2662,a,1,[],[],[],[],[],[],[],0.3849,1,558.2664,558.766,,,,,,514,MAS,CON,150,saco,,l,0.3849,,558.7665,558.7674,-0.12962963,-0.312037079,0,0,0,,0,243,243,63,1,,,,
,,,,,,b13cee4a14dd3bbc1c234a5b,66a626ef09d4e21e1a8894ec,6734d686a555a8bd1e97c7a7,2024-11-13_10h42.44.608,Tarea de género gramatical,2024.2.2,Win32,60.60606061,,,,,,,,,,,,,,,,,,,,,,,558.7717,559.8487,a,1,[],[],[],[],[],[],[],0.4026,1,559.8489,560.3485,,,,,,694,MAS,CON,150,hielo,,l,0.4026,,560.3486,560.3488,-0.12962963,-0.312037079,0,0,0,,0,244,244,243,1,,,,
,,,,,,b13cee4a14dd3bbc1c234a5b,66a626ef09d4e21e1a8894ec,6734d686a555a8bd1e97c7a7,2024-11-13_10h42.44.608,Tarea de género gramatical,2024.2.2,Win32,60.60606061,,,,,,,,,,,,,,,,,,,,,,,560.3529,561.3316,l,1,[],[],[],[],[],[],[],0.3043,1,561.3318,561.8327,,,,,,547,FEM,CON,150,capa,,a,0.3043,,561.8392,561.8422,-0.12962963,-0.312037079,0,0,0,,0,245,245,96,1,,,,
,,,,,,b13cee4a14dd3bbc1c234a5b,66a626ef09d4e21e1a8894ec,6734d686a555a8bd1e97c7a7,2024-11-13_10h42.44.608,Tarea de género gramatical,2024.2.2,Win32,60.60606061,,,,,,,,,,,,,,,,,,,,,,,561.8445,562.8306,a,1,[],[],[],[],[],[],[],0.3255,1,562.8308,563.3306,,,,,,820,MAS,CON,150,seguro,,l,0.3255,,563.3307,563.3312,-0.12962963,-0.312037079,0,0,0,,0,246,246,369,1,,,,
,,,,,,b13cee4a14dd3bbc1c234a5b,66a626ef09d4e21e1a8894ec,6734d686a555a8bd1e97c7a7,2024-11-13_10h42.44.608,Tarea de género gramatical,2024.2.2,Win32,60.60606061,,,,,,,,,,,,,,,,,,,,,,,563.335,564.3964,a,1,[],[],[],[],[],[],[],0.3894,1,564.3966,564.8954,,,,,,714,MAS,AGR,150,pollo,el,l,0.3894,,564.8954,564.8957,-0.12962963,-0.312037079,0,0,0,,0,247,247,263,1,,,,
,,,,,,b13cee4a14dd3bbc1c234a5b,66a626ef09d4e21e1a8894ec,6734d686a555a8bd1e97c7a7,2024-11-13_10h42.44.608,Tarea de género gramatical,2024.2.2,Win32,60.60606061,,,,,,,,,,,,,,,,,,,,,,,564.8983,565.879,a,1,[],[],[],[],[],[],[],0.3021,1,565.8792,566.3793,,,,,,588,MAS,AGR,150,luto,el,l,0.3021,,566.3794,566.38,-0.12962963,-0.312037079,0,0,0,,0,248,248,137,1,,,,
,,,,,,b13cee4a14dd3bbc1c234a5b,66a626ef09d4e21e1a8894ec,6734d686a555a8bd1e97c7a7,2024-11-13_10h42.44.608,Tarea de género gramatical,2024.2.2,Win32,60.60606061,,,,,,,,,,,,,,,,,,,,,,,566.3841,567.4456,l,1,[],[],[],[],[],[],[],0.3861,1,567.4458,567.9452,,,,,,866,FEM,DIS,150,colina,el,a,0.3861,,567.9508,567.954,-0.12962963,-0.312037079,0,0,0,,0,249,249,415,1,,,,
,,,,,,b13cee4a14dd3bbc1c234a5b,66a626ef09d4e21e1a8894ec,6734d686a555a8bd1e97c7a7,2024-11-13_10h42.44.608,Tarea de género gramatical,2024.2.2,Win32,60.60606061,,,,,,,,,,,,,,,,,,,,,,,567.958,568.9781,a,1,[],[],[],[],[],[],[],0.3544,1,568.9786,569.4777,,,,,,869,MAS,DIS,150,cuento,la,l,0.3544,,569.4779,569.4783,-0.12962963,-0.312037079,0,0,0,,0,250,250,418,1,,,,
,,,,,,b13cee4a14dd3bbc1c234a5b,66a626ef09d4e21e1a8894ec,6734d686a555a8bd1e97c7a7,2024-11-13_10h42.44.608,Tarea de género gramatical,2024.2.2,Win32,60.60606061,,,,,,,,,,,,,,,,,,,,,,,569.4821,570.5276,l,1,[],[],[],[],[],[],[],0.368,1,570.5278,571.0276,,,,,,776,FEM,DIS,150,música,el,a,0.368,,571.0281,571.0289,-0.12962963,-0.312037079,0,0,0,,0,251,251,325,1,,,,
