counterbalancing_condition,consent_prescreening.block_1/declare_consent,consent_prescreening.block_1/age_years,consent_prescreening.block_1/gender,consent_prescreening.block_1/language_disorder,consent_prescreening.block_1/first_language,PROLIFIC_PID,STUDY_ID,SESSION_ID,date,expName,psychopyVersion,OS,frameRate,check_prescreening_answers.started,check_prescreening_answers.stopped,Instructions.started,Instructions.stopped,instr_done_keyboard.keys,instr_done_touch.x,instr_done_touch.y,instr_done_touch.leftButton,instr_done_touch.midButton,instr_done_touch.rightButton,instr_done_touch.clicked_name,instruction_pages.thisRepN,instruction_pages.thisTrialN,instruction_pages.thisN,instruction_pages.thisIndex,instruction_pages.ran,pageN,phase,instruct_text,has_image,instruct_image,instr_done_keyboard.rt,instr_done_keyboard.duration,presentTrial.started,presentTrial.stopped,response.keys,response.corr,touch_resp.x,touch_resp.y,touch_resp.leftButton,touch_resp.midButton,touch_resp.rightButton,touch_resp.time,touch_resp.clicked_name,rt,corr,feedback.started,feedback.stopped,practice_trials.thisRepN,practice_trials.thisTrialN,practice_trials.thisN,practice_trials.thisIndex,practice_trials.ran,TrialID,StimulusType,Condition,PrimeDuration,Prime,Flanker,corrAns,response.rt,response.duration,Break.started,Break.stopped,break_done_touch.x,break_done_touch.y,break_done_touch.leftButton,break_done_touch.midButton,break_done_touch.rightButton,break_done_keyboard.keys,experiment_trials.thisRepN,experiment_trials.thisTrialN,experiment_trials.thisN,experiment_trials.thisIndex,experiment_trials.ran,break_done_keyboard.rt,break_done_keyboard.duration,End.started,End.stopped
2,"[""over_18"",""comfortable"",""read_info"",""consent_given""]",27,F,"[""none""]","[""spanish""]",b1c0e8e6c0b13ca7396f3d31,66a626ef09d4e21e1a8894ec,6734d68403f8352bd2ebe496,2024-11-13_17h41.13.073,Tarea de género gramatical,2024.2.2,MacIntel,62.89308176,,,,,,,,,,,,,,,,,,,,,,,,,,,,,,,,,,,,,,,,,,,,,,,,,,,,,,,,,,,,,,,,,,,,,
,,,,,,b1c0e8e6c0b13ca7396f3d31,66a626ef09d4e21e1a8894ec,6734d68403f8352bd2ebe496,2024-11-13_17h41.13.073,Tarea de género gramatical,2024.2.2,MacIntel,62.89308176,24.6891,24.6894,,,,,,,,,,,,,,,,,,,,,,,,,,,,,,,,,,,,,,,,,,,,,,,,,,,,,,,,,,,,,,,,,,,
,,,,,,b1c0e8e6c0b13ca7396f3d31,66a626ef09d4e21e1a8894ec,6734d68403f8352bd2ebe496,2024-11-13_17h41.13.073,Tarea de género gramatical,2024.2.2,MacIntel,62.89308176,,,24.7179,32.5837,,0.060342204,-0.391210734,1,0,0,instr_done_button,0,0,0,0,1,1,instructions,"INSTRUCCIONES
Va a realizar una prueba de selección gramatical. Desde el comienzo de la prueba mire siempre al centro de la pantalla. Al cabo de un momento, aparecerán palabras. La tarea consiste en determinar si la palabra del centro (siempre será un sustantivo), pertenece al género masculino o femenino.

Pulse la tecla ESPACIO o toque el botón de abajo para continuar.",0,keyboardresponseFM.png,,,,,,,,,,,,,,,,,,,,,,,,,,,,,,,,,,,,,,,,,,,,,,,,
,,,,,,b1c0e8e6c0b13ca7396f3d31,66a626ef09d4e21e1a8894ec,6734d68403f8352bd2ebe496,2024-11-13_17h41.13.073,Tarea de género gramatical,2024.2.2,MacIntel,62.89308176,,,32.5871,41.9,space,0.060116102,-0.391210734,0,0,0,,0,1,1,1,1,2,instructions,"Si su dispositivo tiene teclado, pulse la tecla ""A"" para las palabras en femenino (por ejemplo: ""mano"") y la tecla ""L"" para las palabras en masculino(por ejemplo: ""arroz"").
Pulse la tecla ESPACIO o toque el botón de abajo para continuar.",1,keyboardresponseFM.png,9.248,,,,,,,,,,,,,,,,,,,,,,,,,,,,,,,,,,,,,,,,,,,,,,,
,,,,,,b1c0e8e6c0b13ca7396f3d31,66a626ef09d4e21e1a8894ec,6734d68403f8352bd2ebe496,2024-11-13_17h41.13.073,Tarea de género gramatical,2024.2.2,MacIntel,62.89308176,,,41.9026,45.3826,space,0.060116102,-0.391210734,0,0,0,,0,2,2,2,1,3,instructions,"Si utiliza un dispositivo sólo táctil, colóquelo en horizontal y utilice los botones de la pantalla. No utilice el ratón.
Pulse la tecla ESPACIO o toque el botón de abajo para continuar.",2,touchresponseFM.png,3.4307,,,,,,,,,,,,,,,,,,,,,,,,,,,,,,,,,,,,,,,,,,,,,,,
,,,,,,b1c0e8e6c0b13ca7396f3d31,66a626ef09d4e21e1a8894ec,6734d68403f8352bd2ebe496,2024-11-13_17h41.13.073,Tarea de género gramatical,2024.2.2,MacIntel,62.89308176,,,45.3856,48.0331,space,0.060116102,-0.391210734,0,0,0,,0,3,3,3,1,4,instructions,"Es muy importante que responda con la mayor rapidez y precisión posibles, ya que cada cadena de letras sólo estará en pantalla durante un instante. Si no responde en ese tiempo, aparecerá el mensaje ""Muy lento"" y el experimento pasará a la siguiente palabra. Los primeros 15 intentos serán de práctica y habrá dos descansos durante la prueba.
Pulse la tecla ESPACIO o toque el botón de abajo para iniciar la parte de práctica.",0,keyboardresponseFM.png,2.6273,,,,,,,,,,,,,,,,,,,,,,,,,,,,,,,,,,,,,,,,,,,,,,,
,,,,,,b1c0e8e6c0b13ca7396f3d31,66a626ef09d4e21e1a8894ec,6734d68403f8352bd2ebe496,2024-11-13_17h41.13.073,Tarea de género gramatical,2024.2.2,MacIntel,62.89308176,,,,,,,,,,,,,,,,,,,,,,,,48.0534,50.7003,,0,[],[],[],[],[],[],[],,-1,50.7008,51.2004,0,0,0,1,1,2002,FEM,CON,150,pala,,a,,,,,,,,,,,,,,,,,,,
,,,,,,b1c0e8e6c0b13ca7396f3d31,66a626ef09d4e21e1a8894ec,6734d68403f8352bd2ebe496,2024-11-13_17h41.13.073,Tarea de género gramatical,2024.2.2,MacIntel,62.89308176,,,,,,,,,,,,,,,,,,,,,,,,51.2017,52.7494,a,0,[],[],[],[],[],[],[],0.8747,0,52.7774,53.2505,0,1,1,11,1,2012,MAS,DIS,150,clima,la,l,0.8747,,,,,,,,,,,,,,,,,,
,,,,,,b1c0e8e6c0b13ca7396f3d31,66a626ef09d4e21e1a8894ec,6734d68403f8352bd2ebe496,2024-11-13_17h41.13.073,Tarea de género gramatical,2024.2.2,MacIntel,62.89308176,,,,,,,,,,,,,,,,,,,,,,,,53.2523,54.2837,l,0,[],[],[],[],[],[],[],0.3574,0,54.2838,54.7833,0,2,2,5,1,2006,FEM,DIS,150,serie,el,a,0.3574,,,,,,,,,,,,,,,,,,
,,,,,,b1c0e8e6c0b13ca7396f3d31,66a626ef09d4e21e1a8894ec,6734d68403f8352bd2ebe496,2024-11-13_17h41.13.073,Tarea de género gramatical,2024.2.2,MacIntel,62.89308176,,,,,,,,,,,,,,,,,,,,,,,,54.7845,55.8669,a,1,[],[],[],[],[],[],[],0.4174,1,55.8687,56.367,0,3,3,2,1,2003,FEM,DIS,150,daga,el,a,0.4174,,,,,,,,,,,,,,,,,,
,,,,,,b1c0e8e6c0b13ca7396f3d31,66a626ef09d4e21e1a8894ec,6734d68403f8352bd2ebe496,2024-11-13_17h41.13.073,Tarea de género gramatical,2024.2.2,MacIntel,62.89308176,,,,,,,,,,,,,,,,,,,,,,,,56.3696,57.4502,a,1,[],[],[],[],[],[],[],0.4088,1,57.4502,57.95,0,4,4,6,1,2007,FEM,AGR,150,navaja,la,a,0.4088,,,,,,,,,,,,,,,,,,
,,,,,,b1c0e8e6c0b13ca7396f3d31,66a626ef09d4e21e1a8894ec,6734d68403f8352bd2ebe496,2024-11-13_17h41.13.073,Tarea de género gramatical,2024.2.2,MacIntel,62.89308176,,,,,,,,,,,,,,,,,,,,,,,,57.9513,58.9013,a,1,[],[],[],[],[],[],[],0.2778,1,58.9018,59.4007,0,5,5,7,1,2008,FEM,CON,150,siesta,,a,0.2778,,,,,,,,,,,,,,,,,,
,,,,,,b1c0e8e6c0b13ca7396f3d31,66a626ef09d4e21e1a8894ec,6734d68403f8352bd2ebe496,2024-11-13_17h41.13.073,Tarea de género gramatical,2024.2.2,MacIntel,62.89308176,,,,,,,,,,,,,,,,,,,,,,,,59.4021,60.367,l,1,[],[],[],[],[],[],[],0.283,1,60.3672,60.8678,0,6,6,8,1,2009,MAS,DIS,150,puerto,la,l,0.283,,,,,,,,,,,,,,,,,,
,,,,,,b1c0e8e6c0b13ca7396f3d31,66a626ef09d4e21e1a8894ec,6734d68403f8352bd2ebe496,2024-11-13_17h41.13.073,Tarea de género gramatical,2024.2.2,MacIntel,62.89308176,,,,,,,,,,,,,,,,,,,,,,,,60.8689,61.9177,a,1,[],[],[],[],[],[],[],0.3729,1,61.9179,62.4169,0,7,7,4,1,2005,FEM,CON,150,placa,,a,0.3729,,,,,,,,,,,,,,,,,,
,,,,,,b1c0e8e6c0b13ca7396f3d31,66a626ef09d4e21e1a8894ec,6734d68403f8352bd2ebe496,2024-11-13_17h41.13.073,Tarea de género gramatical,2024.2.2,MacIntel,62.89308176,,,,,,,,,,,,,,,,,,,,,,,,62.418,63.3679,a,0,[],[],[],[],[],[],[],0.2896,0,63.3689,63.8677,0,8,8,10,1,2011,MAS,CON,150,canal,,l,0.2896,,,,,,,,,,,,,,,,,,
,,,,,,b1c0e8e6c0b13ca7396f3d31,66a626ef09d4e21e1a8894ec,6734d68403f8352bd2ebe496,2024-11-13_17h41.13.073,Tarea de género gramatical,2024.2.2,MacIntel,62.89308176,,,,,,,,,,,,,,,,,,,,,,,,63.8689,64.8512,l,1,[],[],[],[],[],[],[],0.3065,1,64.8522,65.3504,0,9,9,13,1,2014,MAS,CON,150,siglo,,l,0.3065,,,,,,,,,,,,,,,,,,
,,,,,,b1c0e8e6c0b13ca7396f3d31,66a626ef09d4e21e1a8894ec,6734d68403f8352bd2ebe496,2024-11-13_17h41.13.073,Tarea de género gramatical,2024.2.2,MacIntel,62.89308176,,,,,,,,,,,,,,,,,,,,,,,,65.3519,66.4512,a,1,[],[],[],[],[],[],[],0.4403,1,66.4513,66.9505,0,10,10,3,1,2004,FEM,AGR,150,venta,la,a,0.4403,,,,,,,,,,,,,,,,,,
,,,,,,b1c0e8e6c0b13ca7396f3d31,66a626ef09d4e21e1a8894ec,6734d68403f8352bd2ebe496,2024-11-13_17h41.13.073,Tarea de género gramatical,2024.2.2,MacIntel,62.89308176,,,,,,,,,,,,,,,,,,,,,,,,66.9519,68.0682,l,1,[],[],[],[],[],[],[],0.4362,1,68.0683,68.5682,0,11,11,12,1,2013,MAS,AGR,150,acero,el,l,0.4362,,,,,,,,,,,,,,,,,,
,,,,,,b1c0e8e6c0b13ca7396f3d31,66a626ef09d4e21e1a8894ec,6734d68403f8352bd2ebe496,2024-11-13_17h41.13.073,Tarea de género gramatical,2024.2.2,MacIntel,62.89308176,,,,,,,,,,,,,,,,,,,,,,,,68.569,69.5517,a,0,[],[],[],[],[],[],[],0.2995,0,69.5535,70.0517,0,12,12,9,1,2010,MAS,AGR,150,vecino,el,l,0.2995,,,,,,,,,,,,,,,,,,
,,,,,,b1c0e8e6c0b13ca7396f3d31,66a626ef09d4e21e1a8894ec,6734d68403f8352bd2ebe496,2024-11-13_17h41.13.073,Tarea de género gramatical,2024.2.2,MacIntel,62.89308176,,,,,,,,,,,,,,,,,,,,,,,,70.0529,71.1175,a,1,[],[],[],[],[],[],[],0.3883,1,71.1185,71.6186,0,13,13,0,1,2001,FEM,AGR,150,nuca,la,a,0.3883,,,,,,,,,,,,,,,,,,
,,,,,,b1c0e8e6c0b13ca7396f3d31,66a626ef09d4e21e1a8894ec,6734d68403f8352bd2ebe496,2024-11-13_17h41.13.073,Tarea de género gramatical,2024.2.2,MacIntel,62.89308176,,,,,,,,,,,,,,,,,,,,,,,,71.6201,72.6514,l,1,[],[],[],[],[],[],[],0.3583,1,72.6515,73.1513,0,14,14,14,1,2015,MAS,DIS,150,robot,la,l,0.3583,,,,,,,,,,,,,,,,,,
,,,,,,b1c0e8e6c0b13ca7396f3d31,66a626ef09d4e21e1a8894ec,6734d68403f8352bd2ebe496,2024-11-13_17h41.13.073,Tarea de género gramatical,2024.2.2,MacIntel,62.89308176,,,75.2381,76.5018,space,0.060116102,-0.391210734,0,0,0,,,,,,,,,,,,1.2508,,76.5504,77.9189,a,1,[],[],[],[],[],[],[],0.702,1,77.919,78.4185,,,,,,1022,FEM,AGR,150,loca,la,a,0.702,,78.4188,78.4226,0.060116102,-0.391210734,0,0,0,,0,0,0,121,1,,,,
,,,,,,b1c0e8e6c0b13ca7396f3d31,66a626ef09d4e21e1a8894ec,6734d68403f8352bd2ebe496,2024-11-13_17h41.13.073,Tarea de género gramatical,2024.2.2,MacIntel,62.89308176,,,,,,,,,,,,,,,,,,,,,,,,78.4247,79.3518,a,1,[],[],[],[],[],[],[],0.2595,1,79.3521,79.8518,,,,,,1327,FEM,DIS,150,agenda,el,a,0.2595,,79.8519,79.852,0.060116102,-0.391210734,0,0,0,,0,1,1,426,1,,,,
,,,,,,b1c0e8e6c0b13ca7396f3d31,66a626ef09d4e21e1a8894ec,6734d68403f8352bd2ebe496,2024-11-13_17h41.13.073,Tarea de género gramatical,2024.2.2,MacIntel,62.89308176,,,,,,,,,,,,,,,,,,,,,,,,79.854,80.8354,a,1,[],[],[],[],[],[],[],0.3071,1,80.8355,81.3358,,,,,,914,FEM,AGR,150,cara,la,a,0.3071,,81.3373,81.3383,0.060116102,-0.391210734,0,0,0,,0,2,2,13,1,,,,
,,,,,,b1c0e8e6c0b13ca7396f3d31,66a626ef09d4e21e1a8894ec,6734d68403f8352bd2ebe496,2024-11-13_17h41.13.073,Tarea de género gramatical,2024.2.2,MacIntel,62.89308176,,,,,,,,,,,,,,,,,,,,,,,,81.3394,82.3354,a,1,[],[],[],[],[],[],[],0.324,1,82.3355,82.8359,,,,,,903,FEM,CON,150,cosa,,a,0.324,,82.836,82.8361,0.060116102,-0.391210734,0,0,0,,0,3,3,2,1,,,,
,,,,,,b1c0e8e6c0b13ca7396f3d31,66a626ef09d4e21e1a8894ec,6734d68403f8352bd2ebe496,2024-11-13_17h41.13.073,Tarea de género gramatical,2024.2.2,MacIntel,62.89308176,,,,,,,,,,,,,,,,,,,,,,,,82.8378,83.8027,a,0,[],[],[],[],[],[],[],0.2871,0,83.8039,84.3026,,,,,,1228,MAS,DIS,150,asunto,la,l,0.2871,,84.3028,84.303,0.060116102,-0.391210734,0,0,0,,0,4,4,327,1,,,,
,,,,,,b1c0e8e6c0b13ca7396f3d31,66a626ef09d4e21e1a8894ec,6734d68403f8352bd2ebe496,2024-11-13_17h41.13.073,Tarea de género gramatical,2024.2.2,MacIntel,62.89308176,,,,,,,,,,,,,,,,,,,,,,,,84.305,85.3518,a,1,[],[],[],[],[],[],[],0.3663,1,85.3527,85.8521,,,,,,1322,FEM,AGR,150,rutina,la,a,0.3663,,85.8522,85.8524,0.060116102,-0.391210734,0,0,0,,0,5,5,421,1,,,,
,,,,,,b1c0e8e6c0b13ca7396f3d31,66a626ef09d4e21e1a8894ec,6734d68403f8352bd2ebe496,2024-11-13_17h41.13.073,Tarea de género gramatical,2024.2.2,MacIntel,62.89308176,,,,,,,,,,,,,,,,,,,,,,,,85.8536,86.7521,l,1,[],[],[],[],[],[],[],0.2271,1,86.7522,87.253,,,,,,1062,MAS,CON,150,miedo,,l,0.2271,,87.255,87.2561,0.060116102,-0.391210734,0,0,0,,0,6,6,161,1,,,,
,,,,,,b1c0e8e6c0b13ca7396f3d31,66a626ef09d4e21e1a8894ec,6734d68403f8352bd2ebe496,2024-11-13_17h41.13.073,Tarea de género gramatical,2024.2.2,MacIntel,62.89308176,,,,,,,,,,,,,,,,,,,,,,,,87.257,88.2851,l,1,[],[],[],[],[],[],[],0.3564,1,88.2853,88.7858,,,,,,1188,MAS,CON,150,grado,,l,0.3564,,88.7858,88.786,0.060116102,-0.391210734,0,0,0,,0,7,7,287,1,,,,
,,,,,,b1c0e8e6c0b13ca7396f3d31,66a626ef09d4e21e1a8894ec,6734d68403f8352bd2ebe496,2024-11-13_17h41.13.073,Tarea de género gramatical,2024.2.2,MacIntel,62.89308176,,,,,,,,,,,,,,,,,,,,,,,,88.7875,89.7685,a,1,[],[],[],[],[],[],[],0.3054,1,89.7686,90.2697,,,,,,1179,FEM,CON,150,selva,,a,0.3054,,90.2698,90.2699,0.060116102,-0.391210734,0,0,0,,0,8,8,278,1,,,,
,,,,,,b1c0e8e6c0b13ca7396f3d31,66a626ef09d4e21e1a8894ec,6734d68403f8352bd2ebe496,2024-11-13_17h41.13.073,Tarea de género gramatical,2024.2.2,MacIntel,62.89308176,,,,,,,,,,,,,,,,,,,,,,,,90.2716,91.1854,l,1,[],[],[],[],[],[],[],0.2421,1,91.1855,91.6856,,,,,,1102,MAS,DIS,150,honor,la,l,0.2421,,91.6857,91.6859,0.060116102,-0.391210734,0,0,0,,0,9,9,201,1,,,,
,,,,,,b1c0e8e6c0b13ca7396f3d31,66a626ef09d4e21e1a8894ec,6734d68403f8352bd2ebe496,2024-11-13_17h41.13.073,Tarea de género gramatical,2024.2.2,MacIntel,62.89308176,,,,,,,,,,,,,,,,,,,,,,,,91.6872,92.7025,a,1,[],[],[],[],[],[],[],0.3585,1,92.7026,93.2029,,,,,,1125,FEM,CON,150,pieza,,a,0.3585,,93.203,93.2031,0.060116102,-0.391210734,0,0,0,,0,10,10,224,1,,,,
,,,,,,b1c0e8e6c0b13ca7396f3d31,66a626ef09d4e21e1a8894ec,6734d68403f8352bd2ebe496,2024-11-13_17h41.13.073,Tarea de género gramatical,2024.2.2,MacIntel,62.89308176,,,,,,,,,,,,,,,,,,,,,,,,93.2046,94.1367,l,1,[],[],[],[],[],[],[],0.2536,1,94.1368,94.6359,,,,,,1096,MAS,DIS,150,barco,la,l,0.2536,,94.6381,94.6394,0.060116102,-0.391210734,0,0,0,,0,11,11,195,1,,,,
,,,,,,b1c0e8e6c0b13ca7396f3d31,66a626ef09d4e21e1a8894ec,6734d68403f8352bd2ebe496,2024-11-13_17h41.13.073,Tarea de género gramatical,2024.2.2,MacIntel,62.89308176,,,,,,,,,,,,,,,,,,,,,,,,94.6408,95.5363,a,1,[],[],[],[],[],[],[],0.2231,1,95.5364,96.0368,,,,,,1190,FEM,AGR,150,cabra,la,a,0.2231,,96.0369,96.037,0.060116102,-0.391210734,0,0,0,,0,12,12,289,1,,,,
,,,,,,b1c0e8e6c0b13ca7396f3d31,66a626ef09d4e21e1a8894ec,6734d68403f8352bd2ebe496,2024-11-13_17h41.13.073,Tarea de género gramatical,2024.2.2,MacIntel,62.89308176,,,,,,,,,,,,,,,,,,,,,,,,96.0391,97.0197,a,1,[],[],[],[],[],[],[],0.3089,1,97.0198,97.5203,,,,,,1197,FEM,CON,150,manta,,a,0.3089,,97.5205,97.5206,0.060116102,-0.391210734,0,0,0,,0,13,13,296,1,,,,
,,,,,,b1c0e8e6c0b13ca7396f3d31,66a626ef09d4e21e1a8894ec,6734d68403f8352bd2ebe496,2024-11-13_17h41.13.073,Tarea de género gramatical,2024.2.2,MacIntel,62.89308176,,,,,,,,,,,,,,,,,,,,,,,,97.522,98.5368,a,1,[],[],[],[],[],[],[],0.344,1,98.5368,99.0364,,,,,,1311,FEM,CON,150,actriz,,a,0.344,,99.0365,99.0366,0.060116102,-0.391210734,0,0,0,,0,14,14,410,1,,,,
,,,,,,b1c0e8e6c0b13ca7396f3d31,66a626ef09d4e21e1a8894ec,6734d68403f8352bd2ebe496,2024-11-13_17h41.13.073,Tarea de género gramatical,2024.2.2,MacIntel,62.89308176,,,,,,,,,,,,,,,,,,,,,,,,99.0381,100.0533,l,1,[],[],[],[],[],[],[],0.338,1,100.0533,100.553,,,,,,990,MAS,CON,150,león,,l,0.338,,100.554,100.5546,0.060116102,-0.391210734,0,0,0,,0,15,15,89,1,,,,
,,,,,,b1c0e8e6c0b13ca7396f3d31,66a626ef09d4e21e1a8894ec,6734d68403f8352bd2ebe496,2024-11-13_17h41.13.073,Tarea de género gramatical,2024.2.2,MacIntel,62.89308176,,,,,,,,,,,,,,,,,,,,,,,,100.5555,101.5695,a,1,[],[],[],[],[],[],[],0.3401,1,101.5695,102.0702,,,,,,1023,FEM,CON,150,tela,,a,0.3401,,102.0703,102.0704,0.060116102,-0.391210734,0,0,0,,0,16,16,122,1,,,,
,,,,,,b1c0e8e6c0b13ca7396f3d31,66a626ef09d4e21e1a8894ec,6734d68403f8352bd2ebe496,2024-11-13_17h41.13.073,Tarea de género gramatical,2024.2.2,MacIntel,62.89308176,,,,,,,,,,,,,,,,,,,,,,,,102.0717,103.0872,a,1,[],[],[],[],[],[],[],0.3328,1,103.0873,103.5872,,,,,,1123,FEM,DIS,150,plata,el,a,0.3328,,103.5874,103.5874,0.060116102,-0.391210734,0,0,0,,0,17,17,222,1,,,,
,,,,,,b1c0e8e6c0b13ca7396f3d31,66a626ef09d4e21e1a8894ec,6734d68403f8352bd2ebe496,2024-11-13_17h41.13.073,Tarea de género gramatical,2024.2.2,MacIntel,62.89308176,,,,,,,,,,,,,,,,,,,,,,,,103.5891,104.5374,a,1,[],[],[],[],[],[],[],0.2726,1,104.5375,105.0374,,,,,,1117,FEM,DIS,150,tarea,el,a,0.2726,,105.0375,105.0376,0.060116102,-0.391210734,0,0,0,,0,18,18,216,1,,,,
,,,,,,b1c0e8e6c0b13ca7396f3d31,66a626ef09d4e21e1a8894ec,6734d68403f8352bd2ebe496,2024-11-13_17h41.13.073,Tarea de género gramatical,2024.2.2,MacIntel,62.89308176,,,,,,,,,,,,,,,,,,,,,,,,105.0392,105.937,a,0,[],[],[],[],[],[],[],0.226,0,105.938,106.4376,,,,,,1192,MAS,DIS,150,piano,la,l,0.226,,106.4378,106.4379,0.060116102,-0.391210734,0,0,0,,0,19,19,291,1,,,,
,,,,,,b1c0e8e6c0b13ca7396f3d31,66a626ef09d4e21e1a8894ec,6734d68403f8352bd2ebe496,2024-11-13_17h41.13.073,Tarea de género gramatical,2024.2.2,MacIntel,62.89308176,,,,,,,,,,,,,,,,,,,,,,,,106.4391,107.487,a,1,[],[],[],[],[],[],[],0.3725,1,107.4879,107.9876,,,,,,1202,FEM,AGR,150,cabeza,la,a,0.3725,,107.9897,107.9909,0.060116102,-0.391210734,0,0,0,,0,20,20,301,1,,,,
,,,,,,b1c0e8e6c0b13ca7396f3d31,66a626ef09d4e21e1a8894ec,6734d68403f8352bd2ebe496,2024-11-13_17h41.13.073,Tarea de género gramatical,2024.2.2,MacIntel,62.89308176,,,,,,,,,,,,,,,,,,,,,,,,107.992,108.9535,a,0,[],[],[],[],[],[],[],0.2893,0,108.9547,109.4544,,,,,,1024,MAS,DIS,150,clan,la,l,0.2893,,109.4545,109.4546,0.060116102,-0.391210734,0,0,0,,0,21,21,123,1,,,,
,,,,,,b1c0e8e6c0b13ca7396f3d31,66a626ef09d4e21e1a8894ec,6734d68403f8352bd2ebe496,2024-11-13_17h41.13.073,Tarea de género gramatical,2024.2.2,MacIntel,62.89308176,,,,,,,,,,,,,,,,,,,,,,,,109.456,110.6036,l,1,[],[],[],[],[],[],[],0.4764,1,110.6044,111.104,,,,,,1037,MAS,AGR,150,coco,el,l,0.4764,,111.1041,111.1046,0.060116102,-0.391210734,0,0,0,,0,22,22,136,1,,,,
,,,,,,b1c0e8e6c0b13ca7396f3d31,66a626ef09d4e21e1a8894ec,6734d68403f8352bd2ebe496,2024-11-13_17h41.13.073,Tarea de género gramatical,2024.2.2,MacIntel,62.89308176,,,,,,,,,,,,,,,,,,,,,,,,111.1059,112.0871,l,0,[],[],[],[],[],[],[],0.3085,0,112.088,112.5879,,,,,,1203,FEM,CON,150,maldad,,a,0.3085,,112.588,112.5881,0.060116102,-0.391210734,0,0,0,,0,23,23,302,1,,,,
,,,,,,b1c0e8e6c0b13ca7396f3d31,66a626ef09d4e21e1a8894ec,6734d68403f8352bd2ebe496,2024-11-13_17h41.13.073,Tarea de género gramatical,2024.2.2,MacIntel,62.89308176,,,,,,,,,,,,,,,,,,,,,,,,112.5897,113.5701,l,1,[],[],[],[],[],[],[],0.3066,1,113.5709,114.0702,,,,,,1150,MAS,DIS,150,cerdo,la,l,0.3066,,114.0719,114.0728,0.060116102,-0.391210734,0,0,0,,0,24,24,249,1,,,,
,,,,,,b1c0e8e6c0b13ca7396f3d31,66a626ef09d4e21e1a8894ec,6734d68403f8352bd2ebe496,2024-11-13_17h41.13.073,Tarea de género gramatical,2024.2.2,MacIntel,62.89308176,,,,,,,,,,,,,,,,,,,,,,,,114.0737,115.0035,l,1,[],[],[],[],[],[],[],0.2538,1,115.0036,115.5041,,,,,,971,MAS,AGR,150,pozo,el,l,0.2538,,115.5047,115.5048,0.060116102,-0.391210734,0,0,0,,0,25,25,70,1,,,,
,,,,,,b1c0e8e6c0b13ca7396f3d31,66a626ef09d4e21e1a8894ec,6734d68403f8352bd2ebe496,2024-11-13_17h41.13.073,Tarea de género gramatical,2024.2.2,MacIntel,62.89308176,,,,,,,,,,,,,,,,,,,,,,,,115.5066,116.4542,a,0,[],[],[],[],[],[],[],0.273,0,116.4552,116.9552,,,,,,1044,MAS,CON,150,amor,,l,0.273,,116.9552,116.9553,0.060116102,-0.391210734,0,0,0,,0,26,26,143,1,,,,
,,,,,,b1c0e8e6c0b13ca7396f3d31,66a626ef09d4e21e1a8894ec,6734d68403f8352bd2ebe496,2024-11-13_17h41.13.073,Tarea de género gramatical,2024.2.2,MacIntel,62.89308176,,,,,,,,,,,,,,,,,,,,,,,,116.9568,117.9549,a,1,[],[],[],[],[],[],[],0.3193,1,117.9558,118.4544,,,,,,1094,FEM,AGR,150,banda,la,a,0.3193,,118.4544,118.4545,0.060116102,-0.391210734,0,0,0,,0,27,27,193,1,,,,
,,,,,,b1c0e8e6c0b13ca7396f3d31,66a626ef09d4e21e1a8894ec,6734d68403f8352bd2ebe496,2024-11-13_17h41.13.073,Tarea de género gramatical,2024.2.2,MacIntel,62.89308176,,,,,,,,,,,,,,,,,,,,,,,,118.4563,119.405,l,1,[],[],[],[],[],[],[],0.2773,1,119.4051,119.9052,,,,,,1277,MAS,AGR,150,jardín,el,l,0.2773,,119.9053,119.9054,0.060116102,-0.391210734,0,0,0,,0,28,28,376,1,,,,
,,,,,,b1c0e8e6c0b13ca7396f3d31,66a626ef09d4e21e1a8894ec,6734d68403f8352bd2ebe496,2024-11-13_17h41.13.073,Tarea de género gramatical,2024.2.2,MacIntel,62.89308176,,,,,,,,,,,,,,,,,,,,,,,,119.9073,120.8389,l,1,[],[],[],[],[],[],[],0.2612,1,120.839,121.3382,,,,,,1060,MAS,DIS,150,señor,la,l,0.2612,,121.3406,121.3417,0.060116102,-0.391210734,0,0,0,,0,29,29,159,1,,,,
,,,,,,b1c0e8e6c0b13ca7396f3d31,66a626ef09d4e21e1a8894ec,6734d68403f8352bd2ebe496,2024-11-13_17h41.13.073,Tarea de género gramatical,2024.2.2,MacIntel,62.89308176,,,,,,,,,,,,,,,,,,,,,,,,121.3426,122.2376,a,1,[],[],[],[],[],[],[],0.2225,1,122.2377,122.738,,,,,,1064,FEM,AGR,150,novia,la,a,0.2225,,122.7381,122.7382,0.060116102,-0.391210734,0,0,0,,0,30,30,163,1,,,,
,,,,,,b1c0e8e6c0b13ca7396f3d31,66a626ef09d4e21e1a8894ec,6734d68403f8352bd2ebe496,2024-11-13_17h41.13.073,Tarea de género gramatical,2024.2.2,MacIntel,62.89308176,,,,,,,,,,,,,,,,,,,,,,,,122.7398,123.8052,l,0,[],[],[],[],[],[],[],0.389,0,123.8063,124.3057,,,,,,973,FEM,DIS,150,roca,el,a,0.389,,124.3058,124.3059,0.060116102,-0.391210734,0,0,0,,0,31,31,72,1,,,,
,,,,,,b1c0e8e6c0b13ca7396f3d31,66a626ef09d4e21e1a8894ec,6734d68403f8352bd2ebe496,2024-11-13_17h41.13.073,Tarea de género gramatical,2024.2.2,MacIntel,62.89308176,,,,,,,,,,,,,,,,,,,,,,,,124.3073,125.2887,a,1,[],[],[],[],[],[],[],0.3006,1,125.2897,125.788,,,,,,1245,FEM,CON,150,pierna,,a,0.3006,,125.788,125.7882,0.060116102,-0.391210734,0,0,0,,0,32,32,344,1,,,,
,,,,,,b1c0e8e6c0b13ca7396f3d31,66a626ef09d4e21e1a8894ec,6734d68403f8352bd2ebe496,2024-11-13_17h41.13.073,Tarea de género gramatical,2024.2.2,MacIntel,62.89308176,,,,,,,,,,,,,,,,,,,,,,,,125.7897,126.9383,l,1,[],[],[],[],[],[],[],0.4685,1,126.9384,127.4382,,,,,,983,MAS,AGR,150,nene,el,l,0.4685,,127.4402,127.4412,0.060116102,-0.391210734,0,0,0,,0,33,33,82,1,,,,
,,,,,,b1c0e8e6c0b13ca7396f3d31,66a626ef09d4e21e1a8894ec,6734d68403f8352bd2ebe496,2024-11-13_17h41.13.073,Tarea de género gramatical,2024.2.2,MacIntel,62.89308176,,,,,,,,,,,,,,,,,,,,,,,,127.4426,128.472,a,1,[],[],[],[],[],[],[],0.3569,1,128.472,128.9713,,,,,,1045,FEM,DIS,150,bota,el,a,0.3569,,128.9714,128.9715,0.060116102,-0.391210734,0,0,0,,0,34,34,144,1,,,,
,,,,,,b1c0e8e6c0b13ca7396f3d31,66a626ef09d4e21e1a8894ec,6734d68403f8352bd2ebe496,2024-11-13_17h41.13.073,Tarea de género gramatical,2024.2.2,MacIntel,62.89308176,,,,,,,,,,,,,,,,,,,,,,,,128.9726,129.9224,l,1,[],[],[],[],[],[],[],0.2893,1,129.9225,130.4223,,,,,,1254,MAS,CON,150,camión,,l,0.2893,,130.4224,130.4225,0.060116102,-0.391210734,0,0,0,,0,35,35,353,1,,,,
,,,,,,b1c0e8e6c0b13ca7396f3d31,66a626ef09d4e21e1a8894ec,6734d68403f8352bd2ebe496,2024-11-13_17h41.13.073,Tarea de género gramatical,2024.2.2,MacIntel,62.89308176,,,,,,,,,,,,,,,,,,,,,,,,130.4237,131.422,a,1,[],[],[],[],[],[],[],0.3164,1,131.4221,131.922,,,,,,1255,FEM,DIS,150,mirada,el,a,0.3164,,131.9221,131.9222,0.060116102,-0.391210734,0,0,0,,0,36,36,354,1,,,,
,,,,,,b1c0e8e6c0b13ca7396f3d31,66a626ef09d4e21e1a8894ec,6734d68403f8352bd2ebe496,2024-11-13_17h41.13.073,Tarea de género gramatical,2024.2.2,MacIntel,62.89308176,,,,,,,,,,,,,,,,,,,,,,,,131.9233,132.8224,l,1,[],[],[],[],[],[],[],0.2197,1,132.8226,133.3226,,,,,,1032,MAS,CON,150,velo,,l,0.2197,,133.3227,133.323,0.060116102,-0.391210734,0,0,0,,0,37,37,131,1,,,,
,,,,,,b1c0e8e6c0b13ca7396f3d31,66a626ef09d4e21e1a8894ec,6734d68403f8352bd2ebe496,2024-11-13_17h41.13.073,Tarea de género gramatical,2024.2.2,MacIntel,62.89308176,,,,,,,,,,,,,,,,,,,,,,,,133.3246,134.2383,l,1,[],[],[],[],[],[],[],0.2424,1,134.2384,134.7391,,,,,,1348,MAS,DIS,150,aceite,la,l,0.2424,,134.7412,134.7425,0.060116102,-0.391210734,0,0,0,,0,38,38,447,1,,,,
,,,,,,b1c0e8e6c0b13ca7396f3d31,66a626ef09d4e21e1a8894ec,6734d68403f8352bd2ebe496,2024-11-13_17h41.13.073,Tarea de género gramatical,2024.2.2,MacIntel,62.89308176,,,,,,,,,,,,,,,,,,,,,,,,134.7436,135.6383,l,1,[],[],[],[],[],[],[],0.2264,1,135.6384,136.1387,,,,,,1212,MAS,CON,150,equipo,,l,0.2264,,136.1387,136.1389,0.060116102,-0.391210734,0,0,0,,0,39,39,311,1,,,,
,,,,,,b1c0e8e6c0b13ca7396f3d31,66a626ef09d4e21e1a8894ec,6734d68403f8352bd2ebe496,2024-11-13_17h41.13.073,Tarea de género gramatical,2024.2.2,MacIntel,62.89308176,,,,,,,,,,,,,,,,,,,,,,,,136.1402,137.1562,l,1,[],[],[],[],[],[],[],0.3561,1,137.1563,137.6562,,,,,,1018,MAS,DIS,150,baúl,la,l,0.3561,,137.6562,137.6564,0.060116102,-0.391210734,0,0,0,,0,40,40,117,1,,,,
,,,,,,b1c0e8e6c0b13ca7396f3d31,66a626ef09d4e21e1a8894ec,6734d68403f8352bd2ebe496,2024-11-13_17h41.13.073,Tarea de género gramatical,2024.2.2,MacIntel,62.89308176,,,,,,,,,,,,,,,,,,,,,,,,137.6577,138.605,l,1,[],[],[],[],[],[],[],0.2754,1,138.6051,139.1063,,,,,,1235,MAS,AGR,150,montón,el,l,0.2754,,139.1064,139.1065,0.060116102,-0.391210734,0,0,0,,0,41,41,334,1,,,,
,,,,,,b1c0e8e6c0b13ca7396f3d31,66a626ef09d4e21e1a8894ec,6734d68403f8352bd2ebe496,2024-11-13_17h41.13.073,Tarea de género gramatical,2024.2.2,MacIntel,62.89308176,,,,,,,,,,,,,,,,,,,,,,,,139.1079,140.073,l,1,[],[],[],[],[],[],[],0.2874,1,140.0731,140.5731,,,,,,953,MAS,AGR,150,vaso,el,l,0.2874,,140.575,140.5761,0.060116102,-0.391210734,0,0,0,,0,42,42,52,1,,,,
,,,,,,b1c0e8e6c0b13ca7396f3d31,66a626ef09d4e21e1a8894ec,6734d68403f8352bd2ebe496,2024-11-13_17h41.13.073,Tarea de género gramatical,2024.2.2,MacIntel,62.89308176,,,,,,,,,,,,,,,,,,,,,,,,140.5774,141.6054,a,1,[],[],[],[],[],[],[],0.3575,1,141.6056,142.1056,,,,,,1309,FEM,DIS,150,moneda,el,a,0.3575,,142.1056,142.1058,0.060116102,-0.391210734,0,0,0,,0,43,43,408,1,,,,
,,,,,,b1c0e8e6c0b13ca7396f3d31,66a626ef09d4e21e1a8894ec,6734d68403f8352bd2ebe496,2024-11-13_17h41.13.073,Tarea de género gramatical,2024.2.2,MacIntel,62.89308176,,,,,,,,,,,,,,,,,,,,,,,,142.1081,143.1066,l,1,[],[],[],[],[],[],[],0.3208,1,143.1067,143.6065,,,,,,1080,MAS,CON,150,fuego,,l,0.3208,,143.6065,143.6067,0.060116102,-0.391210734,0,0,0,,0,44,44,179,1,,,,
,,,,,,b1c0e8e6c0b13ca7396f3d31,66a626ef09d4e21e1a8894ec,6734d68403f8352bd2ebe496,2024-11-13_17h41.13.073,Tarea de género gramatical,2024.2.2,MacIntel,62.89308176,,,,,,,,,,,,,,,,,,,,,,,,143.6079,144.7228,l,1,[],[],[],[],[],[],[],0.4338,1,144.7229,145.2223,,,,,,1200,MAS,CON,150,túnel,,l,0.4338,,145.2224,145.2225,0.060116102,-0.391210734,0,0,0,,0,45,45,299,1,,,,
,,,,,,b1c0e8e6c0b13ca7396f3d31,66a626ef09d4e21e1a8894ec,6734d68403f8352bd2ebe496,2024-11-13_17h41.13.073,Tarea de género gramatical,2024.2.2,MacIntel,62.89308176,,,,,,,,,,,,,,,,,,,,,,,,145.2237,146.2056,l,0,[],[],[],[],[],[],[],0.3058,0,146.2072,146.7068,,,,,,986,FEM,AGR,150,cruz,la,a,0.3058,,146.707,146.7071,0.060116102,-0.391210734,0,0,0,,0,46,46,85,1,,,,
,,,,,,b1c0e8e6c0b13ca7396f3d31,66a626ef09d4e21e1a8894ec,6734d68403f8352bd2ebe496,2024-11-13_17h41.13.073,Tarea de género gramatical,2024.2.2,MacIntel,62.89308176,,,,,,,,,,,,,,,,,,,,,,,,146.7087,147.6895,a,1,[],[],[],[],[],[],[],0.3095,1,147.6911,148.1891,,,,,,909,FEM,CON,150,mamá,,a,0.3095,,148.1908,148.1915,0.060116102,-0.391210734,0,0,0,,0,47,47,8,1,,,,
,,,,,,b1c0e8e6c0b13ca7396f3d31,66a626ef09d4e21e1a8894ec,6734d68403f8352bd2ebe496,2024-11-13_17h41.13.073,Tarea de género gramatical,2024.2.2,MacIntel,62.89308176,,,,,,,,,,,,,,,,,,,,,,,,148.1924,149.1571,l,1,[],[],[],[],[],[],[],0.2895,1,149.1572,149.657,,,,,,1128,MAS,CON,150,nivel,,l,0.2895,,149.6572,149.6573,0.060116102,-0.391210734,0,0,0,,0,48,48,227,1,,,,
,,,,,,b1c0e8e6c0b13ca7396f3d31,66a626ef09d4e21e1a8894ec,6734d68403f8352bd2ebe496,2024-11-13_17h41.13.073,Tarea de género gramatical,2024.2.2,MacIntel,62.89308176,,,,,,,,,,,,,,,,,,,,,,,,149.6585,150.5896,l,1,[],[],[],[],[],[],[],0.2552,1,150.5897,151.0897,,,,,,1176,MAS,CON,150,ritmo,,l,0.2552,,151.0898,151.0899,0.060116102,-0.391210734,0,0,0,,0,49,49,275,1,,,,
,,,,,,b1c0e8e6c0b13ca7396f3d31,66a626ef09d4e21e1a8894ec,6734d68403f8352bd2ebe496,2024-11-13_17h41.13.073,Tarea de género gramatical,2024.2.2,MacIntel,62.89308176,,,,,,,,,,,,,,,,,,,,,,,,151.0914,152.1061,a,1,[],[],[],[],[],[],[],0.3425,1,152.1062,152.6073,,,,,,1244,FEM,AGR,150,pareja,la,a,0.3425,,152.6074,152.6075,0.060116102,-0.391210734,0,0,0,,0,50,50,343,1,,,,
,,,,,,b1c0e8e6c0b13ca7396f3d31,66a626ef09d4e21e1a8894ec,6734d68403f8352bd2ebe496,2024-11-13_17h41.13.073,Tarea de género gramatical,2024.2.2,MacIntel,62.89308176,,,,,,,,,,,,,,,,,,,,,,,,152.6088,153.5562,a,1,[],[],[],[],[],[],[],0.2669,1,153.5563,154.0567,,,,,,1171,FEM,DIS,150,viuda,el,a,0.2669,,154.0587,154.0601,0.060116102,-0.391210734,0,0,0,,0,51,51,270,1,,,,
,,,,,,b1c0e8e6c0b13ca7396f3d31,66a626ef09d4e21e1a8894ec,6734d68403f8352bd2ebe496,2024-11-13_17h41.13.073,Tarea de género gramatical,2024.2.2,MacIntel,62.89308176,,,,,,,,,,,,,,,,,,,,,,,,154.0612,155.0063,a,1,[],[],[],[],[],[],[],0.273,1,155.0065,155.5073,,,,,,1131,FEM,CON,150,bruja,,a,0.273,,155.5074,155.5075,0.060116102,-0.391210734,0,0,0,,0,52,52,230,1,,,,
,,,,,,b1c0e8e6c0b13ca7396f3d31,66a626ef09d4e21e1a8894ec,6734d68403f8352bd2ebe496,2024-11-13_17h41.13.073,Tarea de género gramatical,2024.2.2,MacIntel,62.89308176,,,,,,,,,,,,,,,,,,,,,,,,155.5087,156.3232,l,1,[],[],[],[],[],[],[],0.1404,1,156.3233,156.8233,,,,,,1001,MAS,AGR,150,giro,el,l,0.1404,,156.8233,156.8234,0.060116102,-0.391210734,0,0,0,,0,53,53,100,1,,,,
,,,,,,b1c0e8e6c0b13ca7396f3d31,66a626ef09d4e21e1a8894ec,6734d68403f8352bd2ebe496,2024-11-13_17h41.13.073,Tarea de género gramatical,2024.2.2,MacIntel,62.89308176,,,,,,,,,,,,,,,,,,,,,,,,156.8244,157.7905,a,1,[],[],[],[],[],[],[],0.3095,1,157.7907,158.2909,,,,,,951,FEM,CON,150,bala,,a,0.3095,,158.2909,158.291,0.060116102,-0.391210734,0,0,0,,0,54,54,50,1,,,,
,,,,,,b1c0e8e6c0b13ca7396f3d31,66a626ef09d4e21e1a8894ec,6734d68403f8352bd2ebe496,2024-11-13_17h41.13.073,Tarea de género gramatical,2024.2.2,MacIntel,62.89308176,,,,,,,,,,,,,,,,,,,,,,,,158.2918,159.4408,a,1,[],[],[],[],[],[],[],0.4665,1,159.441,159.9411,,,,,,1147,FEM,DIS,150,frase,el,a,0.4665,,159.9412,159.9413,0.060116102,-0.391210734,0,0,0,,0,55,55,246,1,,,,
,,,,,,b1c0e8e6c0b13ca7396f3d31,66a626ef09d4e21e1a8894ec,6734d68403f8352bd2ebe496,2024-11-13_17h41.13.073,Tarea de género gramatical,2024.2.2,MacIntel,62.89308176,,,,,,,,,,,,,,,,,,,,,,,,159.943,160.8245,l,1,[],[],[],[],[],[],[],0.2004,1,160.8246,161.3237,,,,,,918,MAS,CON,150,tren,,l,0.2004,,161.3255,161.3266,0.060116102,-0.391210734,0,0,0,,0,56,56,17,1,,,,
,,,,,,b1c0e8e6c0b13ca7396f3d31,66a626ef09d4e21e1a8894ec,6734d68403f8352bd2ebe496,2024-11-13_17h41.13.073,Tarea de género gramatical,2024.2.2,MacIntel,62.89308176,,,,,,,,,,,,,,,,,,,,,,,,161.3278,162.2747,a,1,[],[],[],[],[],[],[],0.268,1,162.2748,162.7744,,,,,,998,FEM,AGR,150,fuga,la,a,0.268,,162.7744,162.7746,0.060116102,-0.391210734,0,0,0,,0,57,57,97,1,,,,
,,,,,,b1c0e8e6c0b13ca7396f3d31,66a626ef09d4e21e1a8894ec,6734d68403f8352bd2ebe496,2024-11-13_17h41.13.073,Tarea de género gramatical,2024.2.2,MacIntel,62.89308176,,,,,,,,,,,,,,,,,,,,,,,,162.776,163.7235,a,0,[],[],[],[],[],[],[],0.2742,0,163.7244,164.2237,,,,,,1056,MAS,CON,150,amigo,,l,0.2742,,164.2237,164.2239,0.060116102,-0.391210734,0,0,0,,0,58,58,155,1,,,,
,,,,,,b1c0e8e6c0b13ca7396f3d31,66a626ef09d4e21e1a8894ec,6734d68403f8352bd2ebe496,2024-11-13_17h41.13.073,Tarea de género gramatical,2024.2.2,MacIntel,62.89308176,,,,,,,,,,,,,,,,,,,,,,,,164.2255,165.2751,l,1,[],[],[],[],[],[],[],0.3718,1,165.2764,165.775,,,,,,1091,MAS,AGR,150,dolor,el,l,0.3718,,165.7752,165.7753,0.060116102,-0.391210734,0,0,0,,0,59,59,190,1,,,,
,,,,,,b1c0e8e6c0b13ca7396f3d31,66a626ef09d4e21e1a8894ec,6734d68403f8352bd2ebe496,2024-11-13_17h41.13.073,Tarea de género gramatical,2024.2.2,MacIntel,62.89308176,,,,,,,,,,,,,,,,,,,,,,,,165.7778,166.891,l,1,[],[],[],[],[],[],[],0.4324,1,166.8911,167.3915,,,,,,1199,MAS,AGR,150,rumbo,el,l,0.4324,,167.3934,167.3947,0.060116102,-0.391210734,0,0,0,,0,60,60,298,1,,,,
,,,,,,b1c0e8e6c0b13ca7396f3d31,66a626ef09d4e21e1a8894ec,6734d68403f8352bd2ebe496,2024-11-13_17h41.13.073,Tarea de género gramatical,2024.2.2,MacIntel,62.89308176,,,,,,,,,,,,,,,,,,,,,,,,167.3958,168.3403,a,0,[],[],[],[],[],[],[],0.2731,0,168.3411,168.8417,,,,,,1342,MAS,DIS,150,cuadro,la,l,0.2731,,168.8417,168.8419,0.060116102,-0.391210734,0,0,0,,0,61,61,441,1,,,,
,,,,,,b1c0e8e6c0b13ca7396f3d31,66a626ef09d4e21e1a8894ec,6734d68403f8352bd2ebe496,2024-11-13_17h41.13.073,Tarea de género gramatical,2024.2.2,MacIntel,62.89308176,,,,,,,,,,,,,,,,,,,,,,,,168.8436,169.8583,a,1,[],[],[],[],[],[],[],0.3307,1,169.8595,170.3588,,,,,,1021,FEM,DIS,150,pila,el,a,0.3307,,170.3588,170.359,0.060116102,-0.391210734,0,0,0,,0,62,62,120,1,,,,
,,,,,,b1c0e8e6c0b13ca7396f3d31,66a626ef09d4e21e1a8894ec,6734d68403f8352bd2ebe496,2024-11-13_17h41.13.073,Tarea de género gramatical,2024.2.2,MacIntel,62.89308176,,,,,,,,,,,,,,,,,,,,,,,,170.3608,171.3752,l,1,[],[],[],[],[],[],[],0.3328,1,171.3753,171.8753,,,,,,1030,MAS,DIS,150,yate,la,l,0.3328,,171.8754,171.8754,0.060116102,-0.391210734,0,0,0,,0,63,63,129,1,,,,
,,,,,,b1c0e8e6c0b13ca7396f3d31,66a626ef09d4e21e1a8894ec,6734d68403f8352bd2ebe496,2024-11-13_17h41.13.073,Tarea de género gramatical,2024.2.2,MacIntel,62.89308176,,,,,,,,,,,,,,,,,,,,,,,,171.8764,172.9079,l,1,[],[],[],[],[],[],[],0.3554,1,172.9079,173.4082,,,,,,1186,MAS,DIS,150,reino,la,l,0.3554,,173.4085,173.4086,0.060116102,-0.391210734,0,0,0,,0,64,64,285,1,,,,
,,,,,,b1c0e8e6c0b13ca7396f3d31,66a626ef09d4e21e1a8894ec,6734d68403f8352bd2ebe496,2024-11-13_17h41.13.073,Tarea de género gramatical,2024.2.2,MacIntel,62.89308176,,,,,,,,,,,,,,,,,,,,,,,,173.4098,174.4411,a,1,[],[],[],[],[],[],[],0.3573,1,174.4412,174.9421,,,,,,1341,FEM,CON,150,medida,,a,0.3573,,174.9436,174.9448,0.060116102,-0.391210734,0,0,0,,0,65,65,440,1,,,,
,,,,,,b1c0e8e6c0b13ca7396f3d31,66a626ef09d4e21e1a8894ec,6734d68403f8352bd2ebe496,2024-11-13_17h41.13.073,Tarea de género gramatical,2024.2.2,MacIntel,62.89308176,,,,,,,,,,,,,,,,,,,,,,,,174.9456,175.8751,l,1,[],[],[],[],[],[],[],0.2597,1,175.8751,176.3745,,,,,,994,MAS,DIS,150,cabo,la,l,0.2597,,176.3746,176.3746,0.060116102,-0.391210734,0,0,0,,0,66,66,93,1,,,,
,,,,,,b1c0e8e6c0b13ca7396f3d31,66a626ef09d4e21e1a8894ec,6734d68403f8352bd2ebe496,2024-11-13_17h41.13.073,Tarea de género gramatical,2024.2.2,MacIntel,62.89308176,,,,,,,,,,,,,,,,,,,,,,,,176.376,177.3587,l,0,[],[],[],[],[],[],[],0.3244,0,177.3598,177.858,,,,,,1155,FEM,CON,150,tribu,,a,0.3244,,177.8581,177.8582,0.060116102,-0.391210734,0,0,0,,0,67,67,254,1,,,,
,,,,,,b1c0e8e6c0b13ca7396f3d31,66a626ef09d4e21e1a8894ec,6734d68403f8352bd2ebe496,2024-11-13_17h41.13.073,Tarea de género gramatical,2024.2.2,MacIntel,62.89308176,,,,,,,,,,,,,,,,,,,,,,,,177.8597,178.8423,a,1,[],[],[],[],[],[],[],0.3229,1,178.8436,179.3413,,,,,,1285,FEM,DIS,150,muñeca,el,a,0.3229,,179.3413,179.3414,0.060116102,-0.391210734,0,0,0,,0,68,68,384,1,,,,
,,,,,,b1c0e8e6c0b13ca7396f3d31,66a626ef09d4e21e1a8894ec,6734d68403f8352bd2ebe496,2024-11-13_17h41.13.073,Tarea de género gramatical,2024.2.2,MacIntel,62.89308176,,,,,,,,,,,,,,,,,,,,,,,,179.3426,180.2913,a,1,[],[],[],[],[],[],[],0.27,1,180.2914,180.7925,,,,,,1136,FEM,AGR,150,deuda,la,a,0.27,,180.7944,180.7957,0.060116102,-0.391210734,0,0,0,,0,69,69,235,1,,,,
,,,,,,b1c0e8e6c0b13ca7396f3d31,66a626ef09d4e21e1a8894ec,6734d68403f8352bd2ebe496,2024-11-13_17h41.13.073,Tarea de género gramatical,2024.2.2,MacIntel,62.89308176,,,,,,,,,,,,,,,,,,,,,,,,180.7969,181.7926,l,0,[],[],[],[],[],[],[],0.3158,0,181.7936,182.2927,,,,,,931,FEM,DIS,150,edad,el,a,0.3158,,182.2928,182.2929,0.060116102,-0.391210734,0,0,0,,0,70,70,30,1,,,,
,,,,,,b1c0e8e6c0b13ca7396f3d31,66a626ef09d4e21e1a8894ec,6734d68403f8352bd2ebe496,2024-11-13_17h41.13.073,Tarea de género gramatical,2024.2.2,MacIntel,62.89308176,,,,,,,,,,,,,,,,,,,,,,,,182.2945,183.2426,a,1,[],[],[],[],[],[],[],0.2741,1,183.2437,183.7415,,,,,,1143,FEM,CON,150,salsa,,a,0.2741,,183.7415,183.7416,0.060116102,-0.391210734,0,0,0,,0,71,71,242,1,,,,
,,,,,,b1c0e8e6c0b13ca7396f3d31,66a626ef09d4e21e1a8894ec,6734d68403f8352bd2ebe496,2024-11-13_17h41.13.073,Tarea de género gramatical,2024.2.2,MacIntel,62.89308176,,,,,,,,,,,,,,,,,,,,,,,,183.7427,184.7259,a,1,[],[],[],[],[],[],[],0.3217,1,184.7261,185.2262,,,,,,1279,FEM,DIS,150,granja,el,a,0.3217,,185.2262,185.2263,0.060116102,-0.391210734,0,0,0,,0,72,72,378,1,,,,
,,,,,,b1c0e8e6c0b13ca7396f3d31,66a626ef09d4e21e1a8894ec,6734d68403f8352bd2ebe496,2024-11-13_17h41.13.073,Tarea de género gramatical,2024.2.2,MacIntel,62.89308176,,,,,,,,,,,,,,,,,,,,,,,,185.2276,186.1922,l,1,[],[],[],[],[],[],[],0.2883,1,186.1923,186.692,,,,,,982,MAS,DIS,150,tubo,la,l,0.2883,,186.692,186.6922,0.060116102,-0.391210734,0,0,0,,0,73,73,81,1,,,,
,,,,,,b1c0e8e6c0b13ca7396f3d31,66a626ef09d4e21e1a8894ec,6734d68403f8352bd2ebe496,2024-11-13_17h41.13.073,Tarea de género gramatical,2024.2.2,MacIntel,62.89308176,,,,,,,,,,,,,,,,,,,,,,,,186.6932,187.592,a,1,[],[],[],[],[],[],[],0.2426,1,187.592,188.0918,,,,,,1334,FEM,AGR,150,corona,la,a,0.2426,,188.0928,188.0935,0.060116102,-0.391210734,0,0,0,,0,74,74,433,1,,,,
,,,,,,b1c0e8e6c0b13ca7396f3d31,66a626ef09d4e21e1a8894ec,6734d68403f8352bd2ebe496,2024-11-13_17h41.13.073,Tarea de género gramatical,2024.2.2,MacIntel,62.89308176,,,,,,,,,,,,,,,,,,,,,,,,188.0942,189.1094,a,1,[],[],[],[],[],[],[],0.3402,1,189.1096,189.6098,,,,,,999,FEM,CON,150,fase,,a,0.3402,,189.6098,189.61,0.060116102,-0.391210734,0,0,0,,0,75,75,98,1,,,,
,,,,,,b1c0e8e6c0b13ca7396f3d31,66a626ef09d4e21e1a8894ec,6734d68403f8352bd2ebe496,2024-11-13_17h41.13.073,Tarea de género gramatical,2024.2.2,MacIntel,62.89308176,,,,,,,,,,,,,,,,,,,,,,,,189.6115,190.5097,l,1,[],[],[],[],[],[],[],0.2249,1,190.5098,191.0092,,,,,,1152,MAS,CON,150,viejo,,l,0.2249,,191.0092,191.0094,0.060116102,-0.391210734,0,0,0,,0,76,76,251,1,,,,
,,,,,,b1c0e8e6c0b13ca7396f3d31,66a626ef09d4e21e1a8894ec,6734d68403f8352bd2ebe496,2024-11-13_17h41.13.073,Tarea de género gramatical,2024.2.2,MacIntel,62.89308176,,,,,,,,,,,,,,,,,,,,,,,,191.0106,191.8764,a,1,[],[],[],[],[],[],[],0.1899,1,191.8766,192.3766,,,,,,1161,FEM,CON,150,cueva,,a,0.1899,,192.3767,192.3768,0.060116102,-0.391210734,0,0,0,,0,77,77,260,1,,,,
,,,,,,b1c0e8e6c0b13ca7396f3d31,66a626ef09d4e21e1a8894ec,6734d68403f8352bd2ebe496,2024-11-13_17h41.13.073,Tarea de género gramatical,2024.2.2,MacIntel,62.89308176,,,,,,,,,,,,,,,,,,,,,,,,192.3784,193.3267,l,1,[],[],[],[],[],[],[],0.2719,1,193.3268,193.8266,,,,,,1193,MAS,AGR,150,patio,el,l,0.2719,,193.8284,193.8291,0.060116102,-0.391210734,0,0,0,,0,78,78,292,1,,,,
,,,,,,b1c0e8e6c0b13ca7396f3d31,66a626ef09d4e21e1a8894ec,6734d68403f8352bd2ebe496,2024-11-13_17h41.13.073,Tarea de género gramatical,2024.2.2,MacIntel,62.89308176,,,,,,,,,,,,,,,,,,,,,,,,193.8301,194.7763,a,1,[],[],[],[],[],[],[],0.2723,1,194.7765,195.2765,,,,,,1195,FEM,DIS,150,grasa,el,a,0.2723,,195.2765,195.2766,0.060116102,-0.391210734,0,0,0,,0,79,79,294,1,,,,
,,,,,,b1c0e8e6c0b13ca7396f3d31,66a626ef09d4e21e1a8894ec,6734d68403f8352bd2ebe496,2024-11-13_17h41.13.073,Tarea de género gramatical,2024.2.2,MacIntel,62.89308176,,,,,,,,,,,,,,,,,,,,,,,,195.2778,196.3931,l,1,[],[],[],[],[],[],[],0.4352,1,196.3932,196.8935,,,,,,1307,MAS,AGR,150,jurado,el,l,0.4352,,196.8936,196.8936,0.060116102,-0.391210734,0,0,0,,0,80,80,406,1,,,,
,,,,,,b1c0e8e6c0b13ca7396f3d31,66a626ef09d4e21e1a8894ec,6734d68403f8352bd2ebe496,2024-11-13_17h41.13.073,Tarea de género gramatical,2024.2.2,MacIntel,62.89308176,,,,,,,,,,,,,,,,,,,,,,,,196.8949,197.8757,a,1,[],[],[],[],[],[],[],0.3085,1,197.8758,198.3769,,,,,,1135,FEM,DIS,150,torre,el,a,0.3085,,198.377,198.3771,0.060116102,-0.391210734,0,0,0,,0,81,81,234,1,,,,
,,,,,,b1c0e8e6c0b13ca7396f3d31,66a626ef09d4e21e1a8894ec,6734d68403f8352bd2ebe496,2024-11-13_17h41.13.073,Tarea de género gramatical,2024.2.2,MacIntel,62.89308176,,,,,,,,,,,,,,,,,,,,,,,,198.3786,199.3258,a,1,[],[],[],[],[],[],[],0.2717,1,199.326,199.826,,,,,,1071,FEM,CON,150,mitad,,a,0.2717,,199.826,199.8262,0.060116102,-0.391210734,0,0,0,,0,82,82,170,1,,,,
,,,,,,b1c0e8e6c0b13ca7396f3d31,66a626ef09d4e21e1a8894ec,6734d68403f8352bd2ebe496,2024-11-13_17h41.13.073,Tarea de género gramatical,2024.2.2,MacIntel,62.89308176,,,,,,,,,,,,,,,,,,,,,,,,199.8277,200.7936,l,1,[],[],[],[],[],[],[],0.2938,1,200.7937,201.2934,,,,,,1103,MAS,AGR,150,novio,el,l,0.2938,,201.2953,201.2966,0.060116102,-0.391210734,0,0,0,,0,83,83,202,1,,,,
,,,,,,b1c0e8e6c0b13ca7396f3d31,66a626ef09d4e21e1a8894ec,6734d68403f8352bd2ebe496,2024-11-13_17h41.13.073,Tarea de género gramatical,2024.2.2,MacIntel,62.89308176,,,,,,,,,,,,,,,,,,,,,,,,201.2977,202.2606,l,0,[],[],[],[],[],[],[],0.2907,0,202.2619,202.7605,,,,,,1051,FEM,DIS,150,noche,el,a,0.2907,,202.7606,202.7607,0.060116102,-0.391210734,0,0,0,,0,84,84,150,1,,,,
,,,,,,b1c0e8e6c0b13ca7396f3d31,66a626ef09d4e21e1a8894ec,6734d68403f8352bd2ebe496,2024-11-13_17h41.13.073,Tarea de género gramatical,2024.2.2,MacIntel,62.89308176,,,,,,,,,,,,,,,,,,,,,,,,202.762,203.7109,a,1,[],[],[],[],[],[],[],0.2733,1,203.712,204.2096,,,,,,1087,FEM,DIS,150,lista,el,a,0.2733,,204.2096,204.2097,0.060116102,-0.391210734,0,0,0,,0,85,85,186,1,,,,
,,,,,,b1c0e8e6c0b13ca7396f3d31,66a626ef09d4e21e1a8894ec,6734d68403f8352bd2ebe496,2024-11-13_17h41.13.073,Tarea de género gramatical,2024.2.2,MacIntel,62.89308176,,,,,,,,,,,,,,,,,,,,,,,,204.2109,205.2108,l,1,[],[],[],[],[],[],[],0.3229,1,205.2111,205.7109,,,,,,1067,MAS,AGR,150,juego,el,l,0.3229,,205.7109,205.7111,0.060116102,-0.391210734,0,0,0,,0,86,86,166,1,,,,
,,,,,,b1c0e8e6c0b13ca7396f3d31,66a626ef09d4e21e1a8894ec,6734d68403f8352bd2ebe496,2024-11-13_17h41.13.073,Tarea de género gramatical,2024.2.2,MacIntel,62.89308176,,,,,,,,,,,,,,,,,,,,,,,,205.7124,206.5769,a,0,[],[],[],[],[],[],[],0.1852,0,206.5781,207.0765,,,,,,952,MAS,DIS,150,lago,la,l,0.1852,,207.0781,207.0797,0.060116102,-0.391210734,0,0,0,,0,87,87,51,1,,,,
,,,,,,b1c0e8e6c0b13ca7396f3d31,66a626ef09d4e21e1a8894ec,6734d68403f8352bd2ebe496,2024-11-13_17h41.13.073,Tarea de género gramatical,2024.2.2,MacIntel,62.89308176,,,,,,,,,,,,,,,,,,,,,,,,207.081,208.0776,a,1,[],[],[],[],[],[],[],0.3226,1,208.0786,208.5773,,,,,,1207,FEM,DIS,150,suerte,el,a,0.3226,,208.5773,208.5775,0.060116102,-0.391210734,0,0,0,,0,88,88,306,1,,,,
,,,,,,b1c0e8e6c0b13ca7396f3d31,66a626ef09d4e21e1a8894ec,6734d68403f8352bd2ebe496,2024-11-13_17h41.13.073,Tarea de género gramatical,2024.2.2,MacIntel,62.89308176,,,,,,,,,,,,,,,,,,,,,,,,208.5784,209.4773,l,0,[],[],[],[],[],[],[],0.2379,0,209.4786,209.9778,,,,,,1323,FEM,CON,150,poesía,,a,0.2379,,209.9778,209.978,0.060116102,-0.391210734,0,0,0,,0,89,89,422,1,,,,
,,,,,,b1c0e8e6c0b13ca7396f3d31,66a626ef09d4e21e1a8894ec,6734d68403f8352bd2ebe496,2024-11-13_17h41.13.073,Tarea de género gramatical,2024.2.2,MacIntel,62.89308176,,,,,,,,,,,,,,,,,,,,,,,,209.9799,210.961,a,1,[],[],[],[],[],[],[],0.3018,1,210.9621,211.4613,,,,,,1238,FEM,AGR,150,abuela,la,a,0.3018,,211.4613,211.4614,0.060116102,-0.391210734,0,0,0,,0,90,90,337,1,,,,
,,,,,,b1c0e8e6c0b13ca7396f3d31,66a626ef09d4e21e1a8894ec,6734d68403f8352bd2ebe496,2024-11-13_17h41.13.073,Tarea de género gramatical,2024.2.2,MacIntel,62.89308176,,,,,,,,,,,,,,,,,,,,,,,,211.4627,212.378,a,1,[],[],[],[],[],[],[],0.2351,1,212.3781,212.8779,,,,,,945,FEM,CON,150,isla,,a,0.2351,,212.8779,212.878,0.060116102,-0.391210734,0,0,0,,0,91,91,44,1,,,,
,,,,,,b1c0e8e6c0b13ca7396f3d31,66a626ef09d4e21e1a8894ec,6734d68403f8352bd2ebe496,2024-11-13_17h41.13.073,Tarea de género gramatical,2024.2.2,MacIntel,62.89308176,,,,,,,,,,,,,,,,,,,,,,,,212.8792,213.8112,a,1,[],[],[],[],[],[],[],0.2482,1,213.8114,214.3104,,,,,,1047,FEM,CON,150,grúa,,a,0.2482,,214.3125,214.3133,0.060116102,-0.391210734,0,0,0,,0,92,92,146,1,,,,
,,,,,,b1c0e8e6c0b13ca7396f3d31,66a626ef09d4e21e1a8894ec,6734d68403f8352bd2ebe496,2024-11-13_17h41.13.073,Tarea de género gramatical,2024.2.2,MacIntel,62.89308176,,,,,,,,,,,,,,,,,,,,,,,,214.3144,215.2781,l,1,[],[],[],[],[],[],[],0.2887,1,215.2781,215.7774,,,,,,1108,MAS,DIS,150,suelo,la,l,0.2887,,215.7774,215.7775,0.060116102,-0.391210734,0,0,0,,0,93,93,207,1,,,,
,,,,,,b1c0e8e6c0b13ca7396f3d31,66a626ef09d4e21e1a8894ec,6734d68403f8352bd2ebe496,2024-11-13_17h41.13.073,Tarea de género gramatical,2024.2.2,MacIntel,62.89308176,,,,,,,,,,,,,,,,,,,,,,,,215.7785,216.7444,a,1,[],[],[],[],[],[],[],0.2955,1,216.7446,217.2447,,,,,,1177,FEM,DIS,150,plaza,el,a,0.2955,,217.2448,217.2448,0.060116102,-0.391210734,0,0,0,,0,94,94,276,1,,,,
,,,,,,b1c0e8e6c0b13ca7396f3d31,66a626ef09d4e21e1a8894ec,6734d68403f8352bd2ebe496,2024-11-13_17h41.13.073,Tarea de género gramatical,2024.2.2,MacIntel,62.89308176,,,,,,,,,,,,,,,,,,,,,,,,217.2459,218.3111,a,1,[],[],[],[],[],[],[],0.393,1,218.3112,218.8114,,,,,,1077,FEM,CON,150,broma,,a,0.393,,218.8114,218.8115,0.060116102,-0.391210734,0,0,0,,0,95,95,176,1,,,,
,,,,,,b1c0e8e6c0b13ca7396f3d31,66a626ef09d4e21e1a8894ec,6734d68403f8352bd2ebe496,2024-11-13_17h41.13.073,Tarea de género gramatical,2024.2.2,MacIntel,62.89308176,,,,,,,,,,,,,,,,,,,,,,,,218.8127,219.7451,l,1,[],[],[],[],[],[],[],0.2571,1,219.7451,220.2451,,,,,,1008,MAS,CON,150,hilo,,l,0.2571,,220.247,220.2483,0.060116102,-0.391210734,0,0,0,,0,96,96,107,1,,,,
,,,,,,b1c0e8e6c0b13ca7396f3d31,66a626ef09d4e21e1a8894ec,6734d68403f8352bd2ebe496,2024-11-13_17h41.13.073,Tarea de género gramatical,2024.2.2,MacIntel,62.89308176,,,,,,,,,,,,,,,,,,,,,,,,220.2495,221.3112,l,1,[],[],[],[],[],[],[],0.3902,1,221.3112,221.8112,,,,,,1079,MAS,AGR,150,viaje,el,l,0.3902,,221.8112,221.8114,0.060116102,-0.391210734,0,0,0,,0,97,97,178,1,,,,
,,,,,,b1c0e8e6c0b13ca7396f3d31,66a626ef09d4e21e1a8894ec,6734d68403f8352bd2ebe496,2024-11-13_17h41.13.073,Tarea de género gramatical,2024.2.2,MacIntel,62.89308176,,,,,,,,,,,,,,,,,,,,,,,,221.8127,222.7284,a,1,[],[],[],[],[],[],[],0.2571,1,222.7285,223.2279,,,,,,1213,FEM,DIS,150,ciudad,el,a,0.2571,,223.2279,223.2281,0.060116102,-0.391210734,0,0,0,,0,98,98,312,1,,,,
,,,,,,b1c0e8e6c0b13ca7396f3d31,66a626ef09d4e21e1a8894ec,6734d68403f8352bd2ebe496,2024-11-13_17h41.13.073,Tarea de género gramatical,2024.2.2,MacIntel,62.89308176,,,,,,,,,,,,,,,,,,,,,,,,223.2295,224.1612,a,0,[],[],[],[],[],[],[],0.2522,0,224.1625,224.6621,,,,,,1217,MAS,AGR,150,número,el,l,0.2522,,224.6621,224.6622,0.060116102,-0.391210734,0,0,0,,0,99,99,316,1,,,,
,,,,,,b1c0e8e6c0b13ca7396f3d31,66a626ef09d4e21e1a8894ec,6734d68403f8352bd2ebe496,2024-11-13_17h41.13.073,Tarea de género gramatical,2024.2.2,MacIntel,62.89308176,,,,,,,,,,,,,,,,,,,,,,,,224.6635,225.7277,l,1,[],[],[],[],[],[],[],0.3923,1,225.7287,226.2287,,,,,,1296,MAS,CON,150,tesoro,,l,0.3923,,226.2287,226.2288,0.060116102,-0.391210734,0,0,0,,0,100,100,395,1,,,,
,,,,,,b1c0e8e6c0b13ca7396f3d31,66a626ef09d4e21e1a8894ec,6734d68403f8352bd2ebe496,2024-11-13_17h41.13.073,Tarea de género gramatical,2024.2.2,MacIntel,62.89308176,,,,,,,,,,,,,,,,,,,,,,,,226.23,227.1121,l,1,[],[],[],[],[],[],[],0.2098,1,227.1122,227.6117,,,,,,1038,MAS,CON,150,luto,,l,0.2098,,227.6134,227.6147,0.060116102,-0.391210734,0,0,0,,0,101,101,137,1,,,,
,,,,,,b1c0e8e6c0b13ca7396f3d31,66a626ef09d4e21e1a8894ec,6734d68403f8352bd2ebe496,2024-11-13_17h41.13.073,Tarea de género gramatical,2024.2.2,MacIntel,62.89308176,,,,,,,,,,,,,,,,,,,,,,,,227.6158,228.7112,l,1,[],[],[],[],[],[],[],0.4191,1,228.7113,229.2117,,,,,,1283,MAS,AGR,150,parque,el,l,0.4191,,229.2118,229.212,0.060116102,-0.391210734,0,0,0,,0,102,102,382,1,,,,
,,,,,,b1c0e8e6c0b13ca7396f3d31,66a626ef09d4e21e1a8894ec,6734d68403f8352bd2ebe496,2024-11-13_17h41.13.073,Tarea de género gramatical,2024.2.2,MacIntel,62.89308176,,,,,,,,,,,,,,,,,,,,,,,,229.2134,230.1621,a,0,[],[],[],[],[],[],[],0.2754,0,230.1628,230.6623,,,,,,1073,MAS,AGR,150,libro,el,l,0.2754,,230.6624,230.6625,0.060116102,-0.391210734,0,0,0,,0,103,103,172,1,,,,
,,,,,,b1c0e8e6c0b13ca7396f3d31,66a626ef09d4e21e1a8894ec,6734d68403f8352bd2ebe496,2024-11-13_17h41.13.073,Tarea de género gramatical,2024.2.2,MacIntel,62.89308176,,,,,,,,,,,,,,,,,,,,,,,,230.6639,231.696,a,1,[],[],[],[],[],[],[],0.3507,1,231.6969,232.196,,,,,,1345,FEM,DIS,150,bondad,el,a,0.3507,,232.1961,232.1962,0.060116102,-0.391210734,0,0,0,,0,104,104,444,1,,,,
,,,,,,b1c0e8e6c0b13ca7396f3d31,66a626ef09d4e21e1a8894ec,6734d68403f8352bd2ebe496,2024-11-13_17h41.13.073,Tarea de género gramatical,2024.2.2,MacIntel,62.89308176,,,,,,,,,,,,,,,,,,,,,,,,232.1978,233.3115,a,1,[],[],[],[],[],[],[],0.4408,1,233.3116,233.8129,,,,,,1041,FEM,CON,150,cera,,a,0.4408,,233.8147,233.8158,0.060116102,-0.391210734,0,0,0,,0,105,105,140,1,,,,
,,,,,,b1c0e8e6c0b13ca7396f3d31,66a626ef09d4e21e1a8894ec,6734d68403f8352bd2ebe496,2024-11-13_17h41.13.073,Tarea de género gramatical,2024.2.2,MacIntel,62.89308176,,,,,,,,,,,,,,,,,,,,,,,,233.817,234.8118,a,1,[],[],[],[],[],[],[],0.3254,1,234.812,235.3126,,,,,,1268,FEM,AGR,150,gracia,la,a,0.3254,,235.3126,235.3128,0.060116102,-0.391210734,0,0,0,,0,106,106,367,1,,,,
,,,,,,b1c0e8e6c0b13ca7396f3d31,66a626ef09d4e21e1a8894ec,6734d68403f8352bd2ebe496,2024-11-13_17h41.13.073,Tarea de género gramatical,2024.2.2,MacIntel,62.89308176,,,,,,,,,,,,,,,,,,,,,,,,235.3139,236.2129,l,1,[],[],[],[],[],[],[],0.2234,1,236.213,236.7124,,,,,,1145,MAS,AGR,150,turno,el,l,0.2234,,236.7124,236.7125,0.060116102,-0.391210734,0,0,0,,0,107,107,244,1,,,,
,,,,,,b1c0e8e6c0b13ca7396f3d31,66a626ef09d4e21e1a8894ec,6734d68403f8352bd2ebe496,2024-11-13_17h41.13.073,Tarea de género gramatical,2024.2.2,MacIntel,62.89308176,,,,,,,,,,,,,,,,,,,,,,,,236.7139,237.7291,a,1,[],[],[],[],[],[],[],0.3394,1,237.7292,238.2286,,,,,,1185,FEM,CON,150,mafia,,a,0.3394,,238.2287,238.2287,0.060116102,-0.391210734,0,0,0,,0,108,108,284,1,,,,
,,,,,,b1c0e8e6c0b13ca7396f3d31,66a626ef09d4e21e1a8894ec,6734d68403f8352bd2ebe496,2024-11-13_17h41.13.073,Tarea de género gramatical,2024.2.2,MacIntel,62.89308176,,,,,,,,,,,,,,,,,,,,,,,,238.2304,239.1298,l,0,[],[],[],[],[],[],[],0.2345,0,239.131,239.6297,,,,,,961,FEM,DIS,150,ruta,el,a,0.2345,,239.6298,239.6298,0.060116102,-0.391210734,0,0,0,,0,109,109,60,1,,,,
,,,,,,b1c0e8e6c0b13ca7396f3d31,66a626ef09d4e21e1a8894ec,6734d68403f8352bd2ebe496,2024-11-13_17h41.13.073,Tarea de género gramatical,2024.2.2,MacIntel,62.89308176,,,,,,,,,,,,,,,,,,,,,,,,239.631,240.7454,a,1,[],[],[],[],[],[],[],0.4331,1,240.7465,241.2466,,,,,,968,FEM,AGR,150,pata,la,a,0.4331,,241.2485,241.2497,0.060116102,-0.391210734,0,0,0,,0,110,110,67,1,,,,
,,,,,,b1c0e8e6c0b13ca7396f3d31,66a626ef09d4e21e1a8894ec,6734d68403f8352bd2ebe496,2024-11-13_17h41.13.073,Tarea de género gramatical,2024.2.2,MacIntel,62.89308176,,,,,,,,,,,,,,,,,,,,,,,,241.2509,242.1791,l,0,[],[],[],[],[],[],[],0.255,0,242.1799,242.6799,,,,,,1178,FEM,AGR,150,presa,la,a,0.255,,242.6799,242.68,0.060116102,-0.391210734,0,0,0,,0,111,111,277,1,,,,
,,,,,,b1c0e8e6c0b13ca7396f3d31,66a626ef09d4e21e1a8894ec,6734d68403f8352bd2ebe496,2024-11-13_17h41.13.073,Tarea de género gramatical,2024.2.2,MacIntel,62.89308176,,,,,,,,,,,,,,,,,,,,,,,,242.6813,243.7291,a,1,[],[],[],[],[],[],[],0.375,1,243.7299,244.2297,,,,,,1046,FEM,AGR,150,lana,la,a,0.375,,244.2298,244.2299,0.060116102,-0.391210734,0,0,0,,0,112,112,145,1,,,,
,,,,,,b1c0e8e6c0b13ca7396f3d31,66a626ef09d4e21e1a8894ec,6734d68403f8352bd2ebe496,2024-11-13_17h41.13.073,Tarea de género gramatical,2024.2.2,MacIntel,62.89308176,,,,,,,,,,,,,,,,,,,,,,,,244.2309,245.1627,a,1,[],[],[],[],[],[],[],0.2549,1,245.1629,245.6635,,,,,,1239,FEM,CON,150,salida,,a,0.2549,,245.6636,245.6637,0.060116102,-0.391210734,0,0,0,,0,113,113,338,1,,,,
,,,,,,b1c0e8e6c0b13ca7396f3d31,66a626ef09d4e21e1a8894ec,6734d68403f8352bd2ebe496,2024-11-13_17h41.13.073,Tarea de género gramatical,2024.2.2,MacIntel,62.89308176,,,,,,,,,,,,,,,,,,,,,,,,245.665,246.6461,l,1,[],[],[],[],[],[],[],0.3095,1,246.6461,247.1461,,,,,,988,MAS,DIS,150,pavo,la,l,0.3095,,247.1476,247.1489,0.060116102,-0.391210734,0,0,0,,0,114,114,87,1,,,,
,,,,,,b1c0e8e6c0b13ca7396f3d31,66a626ef09d4e21e1a8894ec,6734d68403f8352bd2ebe496,2024-11-13_17h41.13.073,Tarea de género gramatical,2024.2.2,MacIntel,62.89308176,,,,,,,,,,,,,,,,,,,,,,,,247.1501,248.1465,l,1,[],[],[],[],[],[],[],0.3261,1,248.1466,248.6465,,,,,,1282,MAS,DIS,150,teatro,la,l,0.3261,,248.6465,248.6466,0.060116102,-0.391210734,0,0,0,,0,115,115,381,1,,,,
,,,,,,b1c0e8e6c0b13ca7396f3d31,66a626ef09d4e21e1a8894ec,6734d68403f8352bd2ebe496,2024-11-13_17h41.13.073,Tarea de género gramatical,2024.2.2,MacIntel,62.89308176,,,,,,,,,,,,,,,,,,,,,,,,248.6474,249.7133,a,1,[],[],[],[],[],[],[],0.409,1,249.7134,250.2132,,,,,,1015,FEM,DIS,150,seda,el,a,0.409,,250.2133,250.2134,0.060116102,-0.391210734,0,0,0,,0,116,116,114,1,,,,
,,,,,,b1c0e8e6c0b13ca7396f3d31,66a626ef09d4e21e1a8894ec,6734d68403f8352bd2ebe496,2024-11-13_17h41.13.073,Tarea de género gramatical,2024.2.2,MacIntel,62.89308176,,,,,,,,,,,,,,,,,,,,,,,,250.2151,251.1797,l,1,[],[],[],[],[],[],[],0.2887,1,251.1798,251.6806,,,,,,1210,MAS,DIS,150,nombre,la,l,0.2887,,251.6806,251.6807,0.060116102,-0.391210734,0,0,0,,0,117,117,309,1,,,,
,,,,,,b1c0e8e6c0b13ca7396f3d31,66a626ef09d4e21e1a8894ec,6734d68403f8352bd2ebe496,2024-11-13_17h41.13.073,Tarea de género gramatical,2024.2.2,MacIntel,62.89308176,,,,,,,,,,,,,,,,,,,,,,,,251.6819,252.6463,l,1,[],[],[],[],[],[],[],0.2913,1,252.6464,253.1472,,,,,,1187,MAS,AGR,150,plato,el,l,0.2913,,253.1473,253.1475,0.060116102,-0.391210734,0,0,0,,0,118,118,286,1,,,,
,,,,,,b1c0e8e6c0b13ca7396f3d31,66a626ef09d4e21e1a8894ec,6734d68403f8352bd2ebe496,2024-11-13_17h41.13.073,Tarea de género gramatical,2024.2.2,MacIntel,62.89308176,,,,,,,,,,,,,,,,,,,,,,,,253.149,254.0971,l,0,[],[],[],[],[],[],[],0.2718,0,254.0981,254.5964,,,,,,1286,FEM,AGR,150,sombra,la,a,0.2718,,254.5978,254.5989,0.060116102,-0.391210734,0,0,0,,0,119,119,385,1,,,,
,,,,,,b1c0e8e6c0b13ca7396f3d31,66a626ef09d4e21e1a8894ec,6734d68403f8352bd2ebe496,2024-11-13_17h41.13.073,Tarea de género gramatical,2024.2.2,MacIntel,62.89308176,,,,,,,,,,,,,,,,,,,,,,,,254.5997,255.697,a,1,[],[],[],[],[],[],[],0.4187,1,255.6981,256.1974,,,,,,1137,FEM,CON,150,ducha,,a,0.4187,,256.1975,256.1978,0.060116102,-0.391210734,0,0,0,,0,120,120,236,1,,,,
,,,,,,b1c0e8e6c0b13ca7396f3d31,66a626ef09d4e21e1a8894ec,6734d68403f8352bd2ebe496,2024-11-13_17h41.13.073,Tarea de género gramatical,2024.2.2,MacIntel,62.89308176,,,,,,,,,,,,,,,,,,,,,,,,256.1989,257.1477,l,1,[],[],[],[],[],[],[],0.2734,1,257.1478,257.6477,,,,,,1163,MAS,AGR,150,carro,el,l,0.2734,,257.6478,257.6479,0.060116102,-0.391210734,0,0,0,,0,121,121,262,1,,,,
,,,,,,b1c0e8e6c0b13ca7396f3d31,66a626ef09d4e21e1a8894ec,6734d68403f8352bd2ebe496,2024-11-13_17h41.13.073,Tarea de género gramatical,2024.2.2,MacIntel,62.89308176,,,,,,,,,,,,,,,,,,,,,,,,257.6495,258.7312,l,1,[],[],[],[],[],[],[],0.4095,1,258.7313,259.2303,,,,,,1115,MAS,AGR,150,hueso,el,l,0.4095,,259.2303,259.2305,0.060116102,-0.391210734,0,0,0,,0,122,122,214,1,,,,
,,,,,,b1c0e8e6c0b13ca7396f3d31,66a626ef09d4e21e1a8894ec,6734d68403f8352bd2ebe496,2024-11-13_17h41.13.073,Tarea de género gramatical,2024.2.2,MacIntel,62.89308176,,,,,,,,,,,,,,,,,,,,,,,,259.2318,260.3477,l,1,[],[],[],[],[],[],[],0.435,1,260.3478,260.8479,,,,,,904,MAS,DIS,150,hijo,la,l,0.435,,260.8496,260.851,0.060116102,-0.391210734,0,0,0,,0,123,123,3,1,,,,
,,,,,,b1c0e8e6c0b13ca7396f3d31,66a626ef09d4e21e1a8894ec,6734d68403f8352bd2ebe496,2024-11-13_17h41.13.073,Tarea de género gramatical,2024.2.2,MacIntel,62.89308176,,,,,,,,,,,,,,,,,,,,,,,,260.8521,262.0147,a,1,[],[],[],[],[],[],[],0.486,1,262.0147,262.5145,,,,,,1274,FEM,AGR,150,herida,la,a,0.486,,262.5146,262.5147,0.060116102,-0.391210734,0,0,0,,0,124,124,373,1,,,,
,,,,,,b1c0e8e6c0b13ca7396f3d31,66a626ef09d4e21e1a8894ec,6734d68403f8352bd2ebe496,2024-11-13_17h41.13.073,Tarea de género gramatical,2024.2.2,MacIntel,62.89308176,,,,,,,,,,,,,,,,,,,,,,,,262.5159,263.4978,l,1,[],[],[],[],[],[],[],0.311,1,263.498,263.9978,,,,,,1072,MAS,DIS,150,poder,la,l,0.311,,263.9978,263.9979,0.060116102,-0.391210734,0,0,0,,0,125,125,171,1,,,,
,,,,,,b1c0e8e6c0b13ca7396f3d31,66a626ef09d4e21e1a8894ec,6734d68403f8352bd2ebe496,2024-11-13_17h41.13.073,Tarea de género gramatical,2024.2.2,MacIntel,62.89308176,,,,,,,,,,,,,,,,,,,,,,,,263.9994,265.3149,l,1,[],[],[],[],[],[],[],0.6392,1,265.3149,265.8143,,,,,,947,MAS,AGR,150,olor,el,l,0.6392,,265.8144,265.8144,0.060116102,-0.391210734,0,0,0,,0,126,126,46,1,,,,
,,,,,,b1c0e8e6c0b13ca7396f3d31,66a626ef09d4e21e1a8894ec,6734d68403f8352bd2ebe496,2024-11-13_17h41.13.073,Tarea de género gramatical,2024.2.2,MacIntel,62.89308176,,,,,,,,,,,,,,,,,,,,,,,,265.8159,266.8144,a,1,[],[],[],[],[],[],[],0.3424,1,266.8145,267.3139,,,,,,1183,FEM,DIS,150,pluma,el,a,0.3424,,267.314,267.3141,0.060116102,-0.391210734,0,0,0,,0,127,127,282,1,,,,
,,,,,,b1c0e8e6c0b13ca7396f3d31,66a626ef09d4e21e1a8894ec,6734d68403f8352bd2ebe496,2024-11-13_17h41.13.073,Tarea de género gramatical,2024.2.2,MacIntel,62.89308176,,,,,,,,,,,,,,,,,,,,,,,,267.3155,268.2317,a,1,[],[],[],[],[],[],[],0.2504,1,268.2318,268.7311,,,,,,985,FEM,DIS,150,gira,el,a,0.2504,,268.7331,268.7342,0.060116102,-0.391210734,0,0,0,,0,128,128,84,1,,,,
,,,,,,b1c0e8e6c0b13ca7396f3d31,66a626ef09d4e21e1a8894ec,6734d68403f8352bd2ebe496,2024-11-13_17h41.13.073,Tarea de género gramatical,2024.2.2,MacIntel,62.89308176,,,,,,,,,,,,,,,,,,,,,,,,268.7353,269.6151,l,1,[],[],[],[],[],[],[],0.2003,1,269.6151,270.1148,,,,,,1224,MAS,CON,150,cuarto,,l,0.2003,,270.1149,270.1151,0.060116102,-0.391210734,0,0,0,,0,129,129,323,1,,,,
,,,,,,b1c0e8e6c0b13ca7396f3d31,66a626ef09d4e21e1a8894ec,6734d68403f8352bd2ebe496,2024-11-13_17h41.13.073,Tarea de género gramatical,2024.2.2,MacIntel,62.89308176,,,,,,,,,,,,,,,,,,,,,,,,270.1162,271.0318,l,0,[],[],[],[],[],[],[],0.2401,0,271.0329,271.5314,,,,,,933,FEM,CON,150,boda,,a,0.2401,,271.5315,271.5316,0.060116102,-0.391210734,0,0,0,,0,130,130,32,1,,,,
,,,,,,b1c0e8e6c0b13ca7396f3d31,66a626ef09d4e21e1a8894ec,6734d68403f8352bd2ebe496,2024-11-13_17h41.13.073,Tarea de género gramatical,2024.2.2,MacIntel,62.89308176,,,,,,,,,,,,,,,,,,,,,,,,271.5326,272.4651,a,1,[],[],[],[],[],[],[],0.2529,1,272.4661,272.9654,,,,,,1315,FEM,DIS,150,cabina,el,a,0.2529,,272.9654,272.9656,0.060116102,-0.391210734,0,0,0,,0,131,131,414,1,,,,
,,,,,,b1c0e8e6c0b13ca7396f3d31,66a626ef09d4e21e1a8894ec,6734d68403f8352bd2ebe496,2024-11-13_17h41.13.073,Tarea de género gramatical,2024.2.2,MacIntel,62.89308176,,,,,,,,,,,,,,,,,,,,,,,,272.9669,274.0657,l,1,[],[],[],[],[],[],[],0.4251,1,274.0658,274.5645,,,,,,1259,MAS,AGR,150,bosque,el,l,0.4251,,274.5663,274.5676,0.060116102,-0.391210734,0,0,0,,0,132,132,358,1,,,,
,,,,,,b1c0e8e6c0b13ca7396f3d31,66a626ef09d4e21e1a8894ec,6734d68403f8352bd2ebe496,2024-11-13_17h41.13.073,Tarea de género gramatical,2024.2.2,MacIntel,62.89308176,,,,,,,,,,,,,,,,,,,,,,,,274.5688,275.6491,a,1,[],[],[],[],[],[],[],0.4088,1,275.6492,276.1486,,,,,,991,FEM,DIS,150,hoja,el,a,0.4088,,276.1487,276.1489,0.060116102,-0.391210734,0,0,0,,0,133,133,90,1,,,,
,,,,,,b1c0e8e6c0b13ca7396f3d31,66a626ef09d4e21e1a8894ec,6734d68403f8352bd2ebe496,2024-11-13_17h41.13.073,Tarea de género gramatical,2024.2.2,MacIntel,62.89308176,,,,,,,,,,,,,,,,,,,,,,,,276.1507,277.1489,l,1,[],[],[],[],[],[],[],0.3298,1,277.149,277.6492,,,,,,1151,MAS,AGR,150,dueño,el,l,0.3298,,277.6492,277.6493,0.060116102,-0.391210734,0,0,0,,0,134,134,250,1,,,,
,,,,,,b1c0e8e6c0b13ca7396f3d31,66a626ef09d4e21e1a8894ec,6734d68403f8352bd2ebe496,2024-11-13_17h41.13.073,Tarea de género gramatical,2024.2.2,MacIntel,62.89308176,,,,,,,,,,,,,,,,,,,,,,,,277.6508,278.5823,a,0,[],[],[],[],[],[],[],0.2579,0,278.5832,279.0821,,,,,,1236,MAS,CON,150,crimen,,l,0.2579,,279.0821,279.0822,0.060116102,-0.391210734,0,0,0,,0,135,135,335,1,,,,
,,,,,,b1c0e8e6c0b13ca7396f3d31,66a626ef09d4e21e1a8894ec,6734d68403f8352bd2ebe496,2024-11-13_17h41.13.073,Tarea de género gramatical,2024.2.2,MacIntel,62.89308176,,,,,,,,,,,,,,,,,,,,,,,,279.0832,280.148,l,1,[],[],[],[],[],[],[],0.3912,1,280.1488,280.6492,,,,,,1000,MAS,DIS,150,nido,la,l,0.3912,,280.6492,280.6493,0.060116102,-0.391210734,0,0,0,,0,136,136,99,1,,,,
,,,,,,b1c0e8e6c0b13ca7396f3d31,66a626ef09d4e21e1a8894ec,6734d68403f8352bd2ebe496,2024-11-13_17h41.13.073,Tarea de género gramatical,2024.2.2,MacIntel,62.89308176,,,,,,,,,,,,,,,,,,,,,,,,280.6508,281.7321,a,0,[],[],[],[],[],[],[],0.406,0,281.7334,282.2327,,,,,,1301,MAS,AGR,150,abrigo,el,l,0.406,,282.2348,282.2359,0.060116102,-0.391210734,0,0,0,,0,137,137,400,1,,,,
,,,,,,b1c0e8e6c0b13ca7396f3d31,66a626ef09d4e21e1a8894ec,6734d68403f8352bd2ebe496,2024-11-13_17h41.13.073,Tarea de género gramatical,2024.2.2,MacIntel,62.89308176,,,,,,,,,,,,,,,,,,,,,,,,282.2368,283.3158,l,1,[],[],[],[],[],[],[],0.4093,1,283.3166,283.8159,,,,,,1266,MAS,CON,150,riesgo,,l,0.4093,,283.8159,283.8161,0.060116102,-0.391210734,0,0,0,,0,138,138,365,1,,,,
,,,,,,b1c0e8e6c0b13ca7396f3d31,66a626ef09d4e21e1a8894ec,6734d68403f8352bd2ebe496,2024-11-13_17h41.13.073,Tarea de género gramatical,2024.2.2,MacIntel,62.89308176,,,,,,,,,,,,,,,,,,,,,,,,283.8173,284.7158,l,0,[],[],[],[],[],[],[],0.2188,0,284.7167,285.2162,,,,,,969,FEM,CON,150,rata,,a,0.2188,,285.2163,285.2163,0.060116102,-0.391210734,0,0,0,,0,139,139,68,1,,,,
,,,,,,b1c0e8e6c0b13ca7396f3d31,66a626ef09d4e21e1a8894ec,6734d68403f8352bd2ebe496,2024-11-13_17h41.13.073,Tarea de género gramatical,2024.2.2,MacIntel,62.89308176,,,,,,,,,,,,,,,,,,,,,,,,285.2175,286.2484,l,1,[],[],[],[],[],[],[],0.3531,1,286.2497,286.7497,,,,,,1271,MAS,AGR,150,sonido,el,l,0.3531,,286.7497,286.7499,0.060116102,-0.391210734,0,0,0,,0,140,140,370,1,,,,
,,,,,,b1c0e8e6c0b13ca7396f3d31,66a626ef09d4e21e1a8894ec,6734d68403f8352bd2ebe496,2024-11-13_17h41.13.073,Tarea de género gramatical,2024.2.2,MacIntel,62.89308176,,,,,,,,,,,,,,,,,,,,,,,,286.7515,287.6319,l,1,[],[],[],[],[],[],[],0.2079,1,287.6319,288.1331,,,,,,1066,MAS,DIS,150,coche,la,l,0.2079,,288.1352,288.1362,0.060116102,-0.391210734,0,0,0,,0,141,141,165,1,,,,
,,,,,,b1c0e8e6c0b13ca7396f3d31,66a626ef09d4e21e1a8894ec,6734d68403f8352bd2ebe496,2024-11-13_17h41.13.073,Tarea de género gramatical,2024.2.2,MacIntel,62.89308176,,,,,,,,,,,,,,,,,,,,,,,,288.1374,289.0498,a,1,[],[],[],[],[],[],[],0.2396,1,289.05,289.5497,,,,,,1081,FEM,DIS,150,tarde,el,a,0.2396,,289.5497,289.5498,0.060116102,-0.391210734,0,0,0,,0,142,142,180,1,,,,
,,,,,,b1c0e8e6c0b13ca7396f3d31,66a626ef09d4e21e1a8894ec,6734d68403f8352bd2ebe496,2024-11-13_17h41.13.073,Tarea de género gramatical,2024.2.2,MacIntel,62.89308176,,,,,,,,,,,,,,,,,,,,,,,,289.5512,290.5664,l,1,[],[],[],[],[],[],[],0.3336,1,290.5665,291.0666,,,,,,929,MAS,AGR,150,frío,el,l,0.3336,,291.0666,291.0668,0.060116102,-0.391210734,0,0,0,,0,143,143,28,1,,,,
,,,,,,b1c0e8e6c0b13ca7396f3d31,66a626ef09d4e21e1a8894ec,6734d68403f8352bd2ebe496,2024-11-13_17h41.13.073,Tarea de género gramatical,2024.2.2,MacIntel,62.89308176,,,,,,,,,,,,,,,,,,,,,,,,291.0679,292.1663,a,1,[],[],[],[],[],[],[],0.4262,1,292.1663,292.6663,,,,,,1233,FEM,CON,150,locura,,a,0.4262,,292.6664,292.6665,0.060116102,-0.391210734,0,0,0,,0,144,144,332,1,,,,
,,,,,,b1c0e8e6c0b13ca7396f3d31,66a626ef09d4e21e1a8894ec,6734d68403f8352bd2ebe496,2024-11-13_17h41.13.073,Tarea de género gramatical,2024.2.2,MacIntel,62.89308176,,,,,,,,,,,,,,,,,,,,,,,,292.6684,293.7,l,1,[],[],[],[],[],[],[],0.3482,1,293.7001,294.1991,,,,,,1109,MAS,AGR,150,banco,el,l,0.3482,,294.1992,294.1993,0.060116102,-0.391210734,0,0,0,,0,145,145,208,1,,,,
,,,,,,b1c0e8e6c0b13ca7396f3d31,66a626ef09d4e21e1a8894ec,6734d68403f8352bd2ebe496,2024-11-13_17h41.13.073,Tarea de género gramatical,2024.2.2,MacIntel,62.89308176,,,,,,,,,,,,,,,,,,,,,,,,294.2012,295.2171,l,1,[],[],[],[],[],[],[],0.3331,1,295.2173,295.717,,,,,,1331,MAS,AGR,150,veneno,el,l,0.3331,,295.7187,295.7199,0.060116102,-0.391210734,0,0,0,,0,146,146,430,1,,,,
,,,,,,b1c0e8e6c0b13ca7396f3d31,66a626ef09d4e21e1a8894ec,6734d68403f8352bd2ebe496,2024-11-13_17h41.13.073,Tarea de género gramatical,2024.2.2,MacIntel,62.89308176,,,,,,,,,,,,,,,,,,,,,,,,295.7209,296.6504,l,1,[],[],[],[],[],[],[],0.2572,1,296.6504,297.1502,,,,,,1272,MAS,CON,150,delito,,l,0.2572,,297.1503,297.1503,0.060116102,-0.391210734,0,0,0,,0,147,147,371,1,,,,
,,,,,,b1c0e8e6c0b13ca7396f3d31,66a626ef09d4e21e1a8894ec,6734d68403f8352bd2ebe496,2024-11-13_17h41.13.073,Tarea de género gramatical,2024.2.2,MacIntel,62.89308176,,,,,,,,,,,,,,,,,,,,,,,,297.1515,298.0329,a,1,[],[],[],[],[],[],[],0.2073,1,298.033,298.5329,,,,,,975,FEM,CON,150,caza,,a,0.2073,,298.533,298.5331,0.060116102,-0.391210734,0,0,0,,0,148,148,74,1,,,,
,,,,,,b1c0e8e6c0b13ca7396f3d31,66a626ef09d4e21e1a8894ec,6734d68403f8352bd2ebe496,2024-11-13_17h41.13.073,Tarea de género gramatical,2024.2.2,MacIntel,62.89308176,,,,,,,,,,,,,,,,,,,,,,,,298.5347,299.4837,a,1,[],[],[],[],[],[],[],0.273,1,299.4838,299.9838,,,,,,1035,FEM,CON,150,raíz,,a,0.273,,299.9838,299.9839,0.060116102,-0.391210734,0,0,0,,0,149,149,134,1,,,,
,,,,,,b1c0e8e6c0b13ca7396f3d31,66a626ef09d4e21e1a8894ec,6734d68403f8352bd2ebe496,2024-11-13_17h41.13.073,Tarea de género gramatical,2024.2.2,MacIntel,62.89308176,,,,,,,,,,,,,,,,,,,,,,,,299.9852,300.9505,a,1,[],[],[],[],[],[],[],0.2929,1,300.9505,301.4507,,,,,,1221,FEM,CON,150,comida,,a,0.2929,,301.4522,352.4529,0.060116102,-0.391210734,0,0,0,space,0,150,150,320,1,50.9844,,,
,,,,,,b1c0e8e6c0b13ca7396f3d31,66a626ef09d4e21e1a8894ec,6734d68403f8352bd2ebe496,2024-11-13_17h41.13.073,Tarea de género gramatical,2024.2.2,MacIntel,62.89308176,,,,,,,,,,,,,,,,,,,,,,,,352.4538,353.5199,a,1,[],[],[],[],[],[],[],0.4053,1,353.5201,354.0209,,,,,,1317,FEM,CON,150,cabaña,,a,0.4053,,354.0209,354.021,0.060116102,-0.391210734,0,0,0,,0,151,151,416,1,,,,
,,,,,,b1c0e8e6c0b13ca7396f3d31,66a626ef09d4e21e1a8894ec,6734d68403f8352bd2ebe496,2024-11-13_17h41.13.073,Tarea de género gramatical,2024.2.2,MacIntel,62.89308176,,,,,,,,,,,,,,,,,,,,,,,,354.0226,355.0037,l,1,[],[],[],[],[],[],[],0.3007,1,355.0038,355.5047,,,,,,1194,MAS,CON,150,cable,,l,0.3007,,355.5047,355.5049,0.060116102,-0.391210734,0,0,0,,0,152,152,293,1,,,,
,,,,,,b1c0e8e6c0b13ca7396f3d31,66a626ef09d4e21e1a8894ec,6734d68403f8352bd2ebe496,2024-11-13_17h41.13.073,Tarea de género gramatical,2024.2.2,MacIntel,62.89308176,,,,,,,,,,,,,,,,,,,,,,,,355.5076,356.3865,a,1,[],[],[],[],[],[],[],0.2049,1,356.3865,356.8879,,,,,,1070,FEM,AGR,150,carta,la,a,0.2049,,356.8879,356.888,0.060116102,-0.391210734,0,0,0,,0,153,153,169,1,,,,
,,,,,,b1c0e8e6c0b13ca7396f3d31,66a626ef09d4e21e1a8894ec,6734d68403f8352bd2ebe496,2024-11-13_17h41.13.073,Tarea de género gramatical,2024.2.2,MacIntel,62.89308176,,,,,,,,,,,,,,,,,,,,,,,,356.8891,357.8211,l,0,[],[],[],[],[],[],[],0.257,0,357.8221,358.32,,,,,,1298,FEM,AGR,150,hierba,la,a,0.257,,358.32,358.3202,0.060116102,-0.391210734,0,0,0,,0,154,154,397,1,,,,
,,,,,,b1c0e8e6c0b13ca7396f3d31,66a626ef09d4e21e1a8894ec,6734d68403f8352bd2ebe496,2024-11-13_17h41.13.073,Tarea de género gramatical,2024.2.2,MacIntel,62.89308176,,,,,,,,,,,,,,,,,,,,,,,,358.3219,359.1877,l,1,[],[],[],[],[],[],[],0.1823,1,359.1888,359.6874,,,,,,959,MAS,AGR,150,lobo,el,l,0.1823,,359.6895,359.6907,0.060116102,-0.391210734,0,0,0,,0,155,155,58,1,,,,
,,,,,,b1c0e8e6c0b13ca7396f3d31,66a626ef09d4e21e1a8894ec,6734d68403f8352bd2ebe496,2024-11-13_17h41.13.073,Tarea de género gramatical,2024.2.2,MacIntel,62.89308176,,,,,,,,,,,,,,,,,,,,,,,,359.6918,360.7545,a,1,[],[],[],[],[],[],[],0.3825,1,360.7547,361.2541,,,,,,1052,FEM,AGR,150,gente,la,a,0.3825,,361.2542,361.2543,0.060116102,-0.391210734,0,0,0,,0,156,156,151,1,,,,
,,,,,,b1c0e8e6c0b13ca7396f3d31,66a626ef09d4e21e1a8894ec,6734d68403f8352bd2ebe496,2024-11-13_17h41.13.073,Tarea de género gramatical,2024.2.2,MacIntel,62.89308176,,,,,,,,,,,,,,,,,,,,,,,,361.2555,362.1878,a,1,[],[],[],[],[],[],[],0.2502,1,362.1879,362.6881,,,,,,979,FEM,DIS,150,mina,el,a,0.2502,,362.6881,362.6883,0.060116102,-0.391210734,0,0,0,,0,157,157,78,1,,,,
,,,,,,b1c0e8e6c0b13ca7396f3d31,66a626ef09d4e21e1a8894ec,6734d68403f8352bd2ebe496,2024-11-13_17h41.13.073,Tarea de género gramatical,2024.2.2,MacIntel,62.89308176,,,,,,,,,,,,,,,,,,,,,,,,362.6895,363.5871,l,1,[],[],[],[],[],[],[],0.2182,1,363.5871,364.0882,,,,,,1320,MAS,CON,150,helado,,l,0.2182,,364.0882,364.0883,0.060116102,-0.391210734,0,0,0,,0,158,158,419,1,,,,
,,,,,,b1c0e8e6c0b13ca7396f3d31,66a626ef09d4e21e1a8894ec,6734d68403f8352bd2ebe496,2024-11-13_17h41.13.073,Tarea de género gramatical,2024.2.2,MacIntel,62.89308176,,,,,,,,,,,,,,,,,,,,,,,,364.0901,365.2882,l,1,[],[],[],[],[],[],[],0.5229,1,365.2883,365.788,,,,,,1349,MAS,AGR,150,payaso,el,l,0.5229,,365.7898,365.7908,0.060116102,-0.391210734,0,0,0,,0,159,159,448,1,,,,
,,,,,,b1c0e8e6c0b13ca7396f3d31,66a626ef09d4e21e1a8894ec,6734d68403f8352bd2ebe496,2024-11-13_17h41.13.073,Tarea de género gramatical,2024.2.2,MacIntel,62.89308176,,,,,,,,,,,,,,,,,,,,,,,,365.792,366.838,a,1,[],[],[],[],[],[],[],0.3676,1,366.838,367.3386,,,,,,1165,FEM,DIS,150,rueda,el,a,0.3676,,367.3387,367.3391,0.060116102,-0.391210734,0,0,0,,0,160,160,264,1,,,,
,,,,,,b1c0e8e6c0b13ca7396f3d31,66a626ef09d4e21e1a8894ec,6734d68403f8352bd2ebe496,2024-11-13_17h41.13.073,Tarea de género gramatical,2024.2.2,MacIntel,62.89308176,,,,,,,,,,,,,,,,,,,,,,,,367.3404,368.3047,l,1,[],[],[],[],[],[],[],0.2887,1,368.3047,368.8048,,,,,,1174,MAS,DIS,150,motor,la,l,0.2887,,368.8048,368.8049,0.060116102,-0.391210734,0,0,0,,0,161,161,273,1,,,,
,,,,,,b1c0e8e6c0b13ca7396f3d31,66a626ef09d4e21e1a8894ec,6734d68403f8352bd2ebe496,2024-11-13_17h41.13.073,Tarea de género gramatical,2024.2.2,MacIntel,62.89308176,,,,,,,,,,,,,,,,,,,,,,,,368.8058,369.7717,l,1,[],[],[],[],[],[],[],0.2949,1,369.7718,370.272,,,,,,910,MAS,DIS,150,niño,la,l,0.2949,,370.2721,370.2721,0.060116102,-0.391210734,0,0,0,,0,162,162,9,1,,,,
,,,,,,b1c0e8e6c0b13ca7396f3d31,66a626ef09d4e21e1a8894ec,6734d68403f8352bd2ebe496,2024-11-13_17h41.13.073,Tarea de género gramatical,2024.2.2,MacIntel,62.89308176,,,,,,,,,,,,,,,,,,,,,,,,370.2734,371.2044,a,1,[],[],[],[],[],[],[],0.2513,1,371.2045,371.705,,,,,,913,FEM,DIS,150,hija,el,a,0.2513,,371.7051,371.7052,0.060116102,-0.391210734,0,0,0,,0,163,163,12,1,,,,
,,,,,,b1c0e8e6c0b13ca7396f3d31,66a626ef09d4e21e1a8894ec,6734d68403f8352bd2ebe496,2024-11-13_17h41.13.073,Tarea de género gramatical,2024.2.2,MacIntel,62.89308176,,,,,,,,,,,,,,,,,,,,,,,,371.7067,372.6068,l,1,[],[],[],[],[],[],[],0.2233,1,372.6068,373.1052,,,,,,1276,MAS,DIS,150,efecto,la,l,0.2233,,373.107,373.1081,0.060116102,-0.391210734,0,0,0,,0,164,164,375,1,,,,
,,,,,,b1c0e8e6c0b13ca7396f3d31,66a626ef09d4e21e1a8894ec,6734d68403f8352bd2ebe496,2024-11-13_17h41.13.073,Tarea de género gramatical,2024.2.2,MacIntel,62.89308176,,,,,,,,,,,,,,,,,,,,,,,,373.1093,374.0222,a,1,[],[],[],[],[],[],[],0.24,1,374.0223,374.5217,,,,,,901,FEM,DIS,150,casa,el,a,0.24,,374.5217,374.5218,0.060116102,-0.391210734,0,0,0,,0,165,165,0,1,,,,
,,,,,,b1c0e8e6c0b13ca7396f3d31,66a626ef09d4e21e1a8894ec,6734d68403f8352bd2ebe496,2024-11-13_17h41.13.073,Tarea de género gramatical,2024.2.2,MacIntel,62.89308176,,,,,,,,,,,,,,,,,,,,,,,,374.5233,375.405,l,1,[],[],[],[],[],[],[],0.2116,1,375.405,375.9052,,,,,,1026,MAS,CON,150,lazo,,l,0.2116,,375.9052,375.9053,0.060116102,-0.391210734,0,0,0,,0,166,166,125,1,,,,
,,,,,,b1c0e8e6c0b13ca7396f3d31,66a626ef09d4e21e1a8894ec,6734d68403f8352bd2ebe496,2024-11-13_17h41.13.073,Tarea de género gramatical,2024.2.2,MacIntel,62.89308176,,,,,,,,,,,,,,,,,,,,,,,,375.9065,376.8557,a,1,[],[],[],[],[],[],[],0.268,1,376.8558,377.356,,,,,,1329,FEM,CON,150,fianza,,a,0.268,,377.3561,377.3561,0.060116102,-0.391210734,0,0,0,,0,167,167,428,1,,,,
,,,,,,b1c0e8e6c0b13ca7396f3d31,66a626ef09d4e21e1a8894ec,6734d68403f8352bd2ebe496,2024-11-13_17h41.13.073,Tarea de género gramatical,2024.2.2,MacIntel,62.89308176,,,,,,,,,,,,,,,,,,,,,,,,377.3576,378.2891,l,0,[],[],[],[],[],[],[],0.2504,0,378.29,378.7888,,,,,,1003,FEM,DIS,150,fama,el,a,0.2504,,378.7901,378.7909,0.060116102,-0.391210734,0,0,0,,0,168,168,102,1,,,,
,,,,,,b1c0e8e6c0b13ca7396f3d31,66a626ef09d4e21e1a8894ec,6734d68403f8352bd2ebe496,2024-11-13_17h41.13.073,Tarea de género gramatical,2024.2.2,MacIntel,62.89308176,,,,,,,,,,,,,,,,,,,,,,,,378.7916,379.8384,l,0,[],[],[],[],[],[],[],0.3755,0,379.8385,380.3392,,,,,,1095,FEM,CON,150,pared,,a,0.3755,,380.3392,380.3393,0.060116102,-0.391210734,0,0,0,,0,169,169,194,1,,,,
,,,,,,b1c0e8e6c0b13ca7396f3d31,66a626ef09d4e21e1a8894ec,6734d68403f8352bd2ebe496,2024-11-13_17h41.13.073,Tarea de género gramatical,2024.2.2,MacIntel,62.89308176,,,,,,,,,,,,,,,,,,,,,,,,380.3409,381.1881,a,0,[],[],[],[],[],[],[],0.1731,0,381.1882,381.6895,,,,,,1156,MAS,DIS,150,techo,la,l,0.1731,,381.6895,381.6896,0.060116102,-0.391210734,0,0,0,,0,170,170,255,1,,,,
,,,,,,b1c0e8e6c0b13ca7396f3d31,66a626ef09d4e21e1a8894ec,6734d68403f8352bd2ebe496,2024-11-13_17h41.13.073,Tarea de género gramatical,2024.2.2,MacIntel,62.89308176,,,,,,,,,,,,,,,,,,,,,,,,381.6911,382.8221,l,1,[],[],[],[],[],[],[],0.4557,1,382.8227,383.3232,,,,,,1204,MAS,DIS,150,tiempo,la,l,0.4557,,383.3232,383.3234,0.060116102,-0.391210734,0,0,0,,0,171,171,303,1,,,,
,,,,,,b1c0e8e6c0b13ca7396f3d31,66a626ef09d4e21e1a8894ec,6734d68403f8352bd2ebe496,2024-11-13_17h41.13.073,Tarea de género gramatical,2024.2.2,MacIntel,62.89308176,,,,,,,,,,,,,,,,,,,,,,,,383.3249,384.2225,a,0,[],[],[],[],[],[],[],0.2145,0,384.2237,384.7229,,,,,,1336,MAS,DIS,150,objeto,la,l,0.2145,,384.7229,384.7231,0.060116102,-0.391210734,0,0,0,,0,172,172,435,1,,,,
,,,,,,b1c0e8e6c0b13ca7396f3d31,66a626ef09d4e21e1a8894ec,6734d68403f8352bd2ebe496,2024-11-13_17h41.13.073,Tarea de género gramatical,2024.2.2,MacIntel,62.89308176,,,,,,,,,,,,,,,,,,,,,,,,384.7246,385.7727,l,1,[],[],[],[],[],[],[],0.3744,1,385.7735,386.2728,,,,,,1314,MAS,CON,150,sótano,,l,0.3744,,386.2745,386.2753,0.060116102,-0.391210734,0,0,0,,0,173,173,413,1,,,,
,,,,,,b1c0e8e6c0b13ca7396f3d31,66a626ef09d4e21e1a8894ec,6734d68403f8352bd2ebe496,2024-11-13_17h41.13.073,Tarea de género gramatical,2024.2.2,MacIntel,62.89308176,,,,,,,,,,,,,,,,,,,,,,,,386.2762,387.2564,l,1,[],[],[],[],[],[],[],0.3106,1,387.2564,387.7561,,,,,,1110,MAS,CON,150,baile,,l,0.3106,,387.7561,387.7562,0.060116102,-0.391210734,0,0,0,,0,174,174,209,1,,,,
,,,,,,b1c0e8e6c0b13ca7396f3d31,66a626ef09d4e21e1a8894ec,6734d68403f8352bd2ebe496,2024-11-13_17h41.13.073,Tarea de género gramatical,2024.2.2,MacIntel,62.89308176,,,,,,,,,,,,,,,,,,,,,,,,387.7575,388.7398,a,0,[],[],[],[],[],[],[],0.3049,0,388.7409,389.2392,,,,,,970,MAS,DIS,150,palo,la,l,0.3049,,389.2393,389.2394,0.060116102,-0.391210734,0,0,0,,0,175,175,69,1,,,,
,,,,,,b1c0e8e6c0b13ca7396f3d31,66a626ef09d4e21e1a8894ec,6734d68403f8352bd2ebe496,2024-11-13_17h41.13.073,Tarea de género gramatical,2024.2.2,MacIntel,62.89308176,,,,,,,,,,,,,,,,,,,,,,,,389.2408,390.39,a,1,[],[],[],[],[],[],[],0.4734,1,390.3909,390.89,,,,,,1346,FEM,AGR,150,bañera,la,a,0.4734,,390.8901,390.8902,0.060116102,-0.391210734,0,0,0,,0,176,176,445,1,,,,
,,,,,,b1c0e8e6c0b13ca7396f3d31,66a626ef09d4e21e1a8894ec,6734d68403f8352bd2ebe496,2024-11-13_17h41.13.073,Tarea de género gramatical,2024.2.2,MacIntel,62.89308176,,,,,,,,,,,,,,,,,,,,,,,,390.8917,391.856,l,1,[],[],[],[],[],[],[],0.286,1,391.856,392.3567,,,,,,1218,MAS,CON,150,pueblo,,l,0.286,,392.3584,392.3599,0.060116102,-0.391210734,0,0,0,,0,177,177,317,1,,,,
,,,,,,b1c0e8e6c0b13ca7396f3d31,66a626ef09d4e21e1a8894ec,6734d68403f8352bd2ebe496,2024-11-13_17h41.13.073,Tarea de género gramatical,2024.2.2,MacIntel,62.89308176,,,,,,,,,,,,,,,,,,,,,,,,392.3611,393.3229,a,1,[],[],[],[],[],[],[],0.2923,1,393.323,393.8237,,,,,,1184,FEM,AGR,150,fruta,la,a,0.2923,,393.8237,393.8239,0.060116102,-0.391210734,0,0,0,,0,178,178,283,1,,,,
,,,,,,b1c0e8e6c0b13ca7396f3d31,66a626ef09d4e21e1a8894ec,6734d68403f8352bd2ebe496,2024-11-13_17h41.13.073,Tarea de género gramatical,2024.2.2,MacIntel,62.89308176,,,,,,,,,,,,,,,,,,,,,,,,393.8264,394.9735,a,1,[],[],[],[],[],[],[],0.4741,1,394.9736,395.473,,,,,,955,FEM,DIS,150,taza,el,a,0.4741,,395.4731,395.4732,0.060116102,-0.391210734,0,0,0,,0,179,179,54,1,,,,
,,,,,,b1c0e8e6c0b13ca7396f3d31,66a626ef09d4e21e1a8894ec,6734d68403f8352bd2ebe496,2024-11-13_17h41.13.073,Tarea de género gramatical,2024.2.2,MacIntel,62.89308176,,,,,,,,,,,,,,,,,,,,,,,,395.4746,396.5233,a,1,[],[],[],[],[],[],[],0.3699,1,396.5234,397.0229,,,,,,1039,FEM,DIS,150,pipa,el,a,0.3699,,397.0229,397.0229,0.060116102,-0.391210734,0,0,0,,0,180,180,138,1,,,,
,,,,,,b1c0e8e6c0b13ca7396f3d31,66a626ef09d4e21e1a8894ec,6734d68403f8352bd2ebe496,2024-11-13_17h41.13.073,Tarea de género gramatical,2024.2.2,MacIntel,62.89308176,,,,,,,,,,,,,,,,,,,,,,,,397.024,398.0237,a,0,[],[],[],[],[],[],[],0.3385,0,398.0247,398.5232,,,,,,1313,MAS,AGR,150,diario,el,l,0.3385,,398.5232,398.5232,0.060116102,-0.391210734,0,0,0,,0,181,181,412,1,,,,
,,,,,,b1c0e8e6c0b13ca7396f3d31,66a626ef09d4e21e1a8894ec,6734d68403f8352bd2ebe496,2024-11-13_17h41.13.073,Tarea de género gramatical,2024.2.2,MacIntel,62.89308176,,,,,,,,,,,,,,,,,,,,,,,,398.5242,399.5733,a,0,[],[],[],[],[],[],[],0.3669,0,399.5734,400.0731,,,,,,1121,MAS,AGR,150,brazo,el,l,0.3669,,400.0741,400.0753,0.060116102,-0.391210734,0,0,0,,0,182,182,220,1,,,,
,,,,,,b1c0e8e6c0b13ca7396f3d31,66a626ef09d4e21e1a8894ec,6734d68403f8352bd2ebe496,2024-11-13_17h41.13.073,Tarea de género gramatical,2024.2.2,MacIntel,62.89308176,,,,,,,,,,,,,,,,,,,,,,,,400.076,401.3065,a,1,[],[],[],[],[],[],[],0.5582,1,401.3074,401.8069,,,,,,1237,FEM,DIS,150,escena,el,a,0.5582,,401.8069,401.807,0.060116102,-0.391210734,0,0,0,,0,183,183,336,1,,,,
,,,,,,b1c0e8e6c0b13ca7396f3d31,66a626ef09d4e21e1a8894ec,6734d68403f8352bd2ebe496,2024-11-13_17h41.13.073,Tarea de género gramatical,2024.2.2,MacIntel,62.89308176,,,,,,,,,,,,,,,,,,,,,,,,401.8087,403.0062,a,1,[],[],[],[],[],[],[],0.5262,1,403.0062,403.5068,,,,,,1305,FEM,CON,150,parada,,a,0.5262,,403.5068,403.507,0.060116102,-0.391210734,0,0,0,,0,184,184,404,1,,,,
,,,,,,b1c0e8e6c0b13ca7396f3d31,66a626ef09d4e21e1a8894ec,6734d68403f8352bd2ebe496,2024-11-13_17h41.13.073,Tarea de género gramatical,2024.2.2,MacIntel,62.89308176,,,,,,,,,,,,,,,,,,,,,,,,403.508,404.4905,l,1,[],[],[],[],[],[],[],0.3027,1,404.4906,404.9907,,,,,,1036,MAS,DIS,150,vago,la,l,0.3027,,404.9908,404.9909,0.060116102,-0.391210734,0,0,0,,0,185,185,135,1,,,,
,,,,,,b1c0e8e6c0b13ca7396f3d31,66a626ef09d4e21e1a8894ec,6734d68403f8352bd2ebe496,2024-11-13_17h41.13.073,Tarea de género gramatical,2024.2.2,MacIntel,62.89308176,,,,,,,,,,,,,,,,,,,,,,,,404.9925,406.0065,a,1,[],[],[],[],[],[],[],0.3415,1,406.0065,406.5078,,,,,,1093,FEM,DIS,150,bolsa,el,a,0.3415,,406.5095,406.5106,0.060116102,-0.391210734,0,0,0,,0,186,186,192,1,,,,
,,,,,,b1c0e8e6c0b13ca7396f3d31,66a626ef09d4e21e1a8894ec,6734d68403f8352bd2ebe496,2024-11-13_17h41.13.073,Tarea de género gramatical,2024.2.2,MacIntel,62.89308176,,,,,,,,,,,,,,,,,,,,,,,,406.5118,407.457,l,1,[],[],[],[],[],[],[],0.2757,1,407.4571,407.9573,,,,,,1230,MAS,CON,150,estado,,l,0.2757,,407.9573,407.9574,0.060116102,-0.391210734,0,0,0,,0,187,187,329,1,,,,
,,,,,,b1c0e8e6c0b13ca7396f3d31,66a626ef09d4e21e1a8894ec,6734d68403f8352bd2ebe496,2024-11-13_17h41.13.073,Tarea de género gramatical,2024.2.2,MacIntel,62.89308176,,,,,,,,,,,,,,,,,,,,,,,,407.9591,408.9746,a,1,[],[],[],[],[],[],[],0.3424,1,408.9747,409.4745,,,,,,1130,FEM,AGR,150,regla,la,a,0.3424,,409.4746,409.4747,0.060116102,-0.391210734,0,0,0,,0,188,188,229,1,,,,
,,,,,,b1c0e8e6c0b13ca7396f3d31,66a626ef09d4e21e1a8894ec,6734d68403f8352bd2ebe496,2024-11-13_17h41.13.073,Tarea de género gramatical,2024.2.2,MacIntel,62.89308176,,,,,,,,,,,,,,,,,,,,,,,,409.4763,410.3903,l,1,[],[],[],[],[],[],[],0.2328,1,410.3904,410.8906,,,,,,1290,MAS,CON,150,rostro,,l,0.2328,,410.8907,410.8908,0.060116102,-0.391210734,0,0,0,,0,189,189,389,1,,,,
,,,,,,b1c0e8e6c0b13ca7396f3d31,66a626ef09d4e21e1a8894ec,6734d68403f8352bd2ebe496,2024-11-13_17h41.13.073,Tarea de género gramatical,2024.2.2,MacIntel,62.89308176,,,,,,,,,,,,,,,,,,,,,,,,410.892,411.8071,l,1,[],[],[],[],[],[],[],0.2555,1,411.8072,412.3074,,,,,,1014,MAS,CON,150,menú,,l,0.2555,,412.3074,412.3075,0.060116102,-0.391210734,0,0,0,,0,190,190,113,1,,,,
,,,,,,b1c0e8e6c0b13ca7396f3d31,66a626ef09d4e21e1a8894ec,6734d68403f8352bd2ebe496,2024-11-13_17h41.13.073,Tarea de género gramatical,2024.2.2,MacIntel,62.89308176,,,,,,,,,,,,,,,,,,,,,,,,412.3088,413.2068,l,1,[],[],[],[],[],[],[],0.24,1,413.2069,413.7079,,,,,,1216,MAS,DIS,150,cuerpo,la,l,0.24,,413.7096,413.7108,0.060116102,-0.391210734,0,0,0,,0,191,191,315,1,,,,
,,,,,,b1c0e8e6c0b13ca7396f3d31,66a626ef09d4e21e1a8894ec,6734d68403f8352bd2ebe496,2024-11-13_17h41.13.073,Tarea de género gramatical,2024.2.2,MacIntel,62.89308176,,,,,,,,,,,,,,,,,,,,,,,,413.7119,414.9249,a,1,[],[],[],[],[],[],[],0.5375,1,414.925,415.424,,,,,,921,FEM,CON,150,boca,,a,0.5375,,415.424,415.4242,0.060116102,-0.391210734,0,0,0,,0,192,192,20,1,,,,
,,,,,,b1c0e8e6c0b13ca7396f3d31,66a626ef09d4e21e1a8894ec,6734d68403f8352bd2ebe496,2024-11-13_17h41.13.073,Tarea de género gramatical,2024.2.2,MacIntel,62.89308176,,,,,,,,,,,,,,,,,,,,,,,,415.4256,416.3246,l,1,[],[],[],[],[],[],[],0.2263,1,416.3246,416.8251,,,,,,1288,MAS,DIS,150,empleo,la,l,0.2263,,416.8252,416.8253,0.060116102,-0.391210734,0,0,0,,0,193,193,387,1,,,,
,,,,,,b1c0e8e6c0b13ca7396f3d31,66a626ef09d4e21e1a8894ec,6734d68403f8352bd2ebe496,2024-11-13_17h41.13.073,Tarea de género gramatical,2024.2.2,MacIntel,62.89308176,,,,,,,,,,,,,,,,,,,,,,,,416.8267,417.7584,l,1,[],[],[],[],[],[],[],0.2564,1,417.7585,418.2576,,,,,,1332,MAS,CON,150,océano,,l,0.2564,,418.2577,418.2577,0.060116102,-0.391210734,0,0,0,,0,194,194,431,1,,,,
,,,,,,b1c0e8e6c0b13ca7396f3d31,66a626ef09d4e21e1a8894ec,6734d68403f8352bd2ebe496,2024-11-13_17h41.13.073,Tarea de género gramatical,2024.2.2,MacIntel,62.89308176,,,,,,,,,,,,,,,,,,,,,,,,418.2589,419.2918,a,1,[],[],[],[],[],[],[],0.3496,1,419.2919,419.792,,,,,,939,FEM,CON,150,luna,,a,0.3496,,419.7937,419.7946,0.060116102,-0.391210734,0,0,0,,0,195,195,38,1,,,,
,,,,,,b1c0e8e6c0b13ca7396f3d31,66a626ef09d4e21e1a8894ec,6734d68403f8352bd2ebe496,2024-11-13_17h41.13.073,Tarea de género gramatical,2024.2.2,MacIntel,62.89308176,,,,,,,,,,,,,,,,,,,,,,,,419.7955,420.9077,a,1,[],[],[],[],[],[],[],0.4389,1,420.9078,421.408,,,,,,1173,FEM,CON,150,tarta,,a,0.4389,,421.408,421.4081,0.060116102,-0.391210734,0,0,0,,0,196,196,272,1,,,,
,,,,,,b1c0e8e6c0b13ca7396f3d31,66a626ef09d4e21e1a8894ec,6734d68403f8352bd2ebe496,2024-11-13_17h41.13.073,Tarea de género gramatical,2024.2.2,MacIntel,62.89308176,,,,,,,,,,,,,,,,,,,,,,,,421.4095,422.3257,a,0,[],[],[],[],[],[],[],0.232,0,422.3267,422.8249,,,,,,1206,MAS,CON,150,dinero,,l,0.232,,422.8249,422.8251,0.060116102,-0.391210734,0,0,0,,0,197,197,305,1,,,,
,,,,,,b1c0e8e6c0b13ca7396f3d31,66a626ef09d4e21e1a8894ec,6734d68403f8352bd2ebe496,2024-11-13_17h41.13.073,Tarea de género gramatical,2024.2.2,MacIntel,62.89308176,,,,,,,,,,,,,,,,,,,,,,,,422.8264,423.9744,l,1,[],[],[],[],[],[],[],0.4721,1,423.9751,424.4765,,,,,,1241,MAS,AGR,150,precio,el,l,0.4721,,424.4767,424.4767,0.060116102,-0.391210734,0,0,0,,0,198,198,340,1,,,,
,,,,,,b1c0e8e6c0b13ca7396f3d31,66a626ef09d4e21e1a8894ec,6734d68403f8352bd2ebe496,2024-11-13_17h41.13.073,Tarea de género gramatical,2024.2.2,MacIntel,62.89308176,,,,,,,,,,,,,,,,,,,,,,,,424.4783,425.4091,a,1,[],[],[],[],[],[],[],0.2563,1,425.4092,425.909,,,,,,1057,FEM,DIS,150,madre,el,a,0.2563,,425.9091,425.9092,0.060116102,-0.391210734,0,0,0,,0,199,199,156,1,,,,
,,,,,,b1c0e8e6c0b13ca7396f3d31,66a626ef09d4e21e1a8894ec,6734d68403f8352bd2ebe496,2024-11-13_17h41.13.073,Tarea de género gramatical,2024.2.2,MacIntel,62.89308176,,,,,,,,,,,,,,,,,,,,,,,,425.9109,426.9252,a,1,[],[],[],[],[],[],[],0.3368,1,426.9254,427.4252,,,,,,1201,FEM,DIS,150,verdad,el,a,0.3368,,427.4272,427.4283,0.060116102,-0.391210734,0,0,0,,0,200,200,300,1,,,,
,,,,,,b1c0e8e6c0b13ca7396f3d31,66a626ef09d4e21e1a8894ec,6734d68403f8352bd2ebe496,2024-11-13_17h41.13.073,Tarea de género gramatical,2024.2.2,MacIntel,62.89308176,,,,,,,,,,,,,,,,,,,,,,,,427.4293,428.2754,l,0,[],[],[],[],[],[],[],0.169,0,428.2761,428.7758,,,,,,1105,FEM,DIS,150,reina,el,a,0.169,,428.7758,428.7759,0.060116102,-0.391210734,0,0,0,,0,201,201,204,1,,,,
,,,,,,b1c0e8e6c0b13ca7396f3d31,66a626ef09d4e21e1a8894ec,6734d68403f8352bd2ebe496,2024-11-13_17h41.13.073,Tarea de género gramatical,2024.2.2,MacIntel,62.89308176,,,,,,,,,,,,,,,,,,,,,,,,428.7771,429.9422,a,1,[],[],[],[],[],[],[],0.4847,1,429.9433,430.4426,,,,,,1119,FEM,CON,150,costa,,a,0.4847,,430.4427,430.4428,0.060116102,-0.391210734,0,0,0,,0,202,202,218,1,,,,
,,,,,,b1c0e8e6c0b13ca7396f3d31,66a626ef09d4e21e1a8894ec,6734d68403f8352bd2ebe496,2024-11-13_17h41.13.073,Tarea de género gramatical,2024.2.2,MacIntel,62.89308176,,,,,,,,,,,,,,,,,,,,,,,,430.4442,431.3261,l,0,[],[],[],[],[],[],[],0.2008,0,431.3273,431.8252,,,,,,1256,FEM,AGR,150,piedra,la,a,0.2008,,431.8253,431.8254,0.060116102,-0.391210734,0,0,0,,0,203,203,355,1,,,,
,,,,,,b1c0e8e6c0b13ca7396f3d31,66a626ef09d4e21e1a8894ec,6734d68403f8352bd2ebe496,2024-11-13_17h41.13.073,Tarea de género gramatical,2024.2.2,MacIntel,62.89308176,,,,,,,,,,,,,,,,,,,,,,,,431.8269,432.7918,l,1,[],[],[],[],[],[],[],0.2932,1,432.7924,433.2917,,,,,,1120,MAS,DIS,150,huevo,la,l,0.2932,,433.2931,433.2939,0.060116102,-0.391210734,0,0,0,,0,204,204,219,1,,,,
,,,,,,b1c0e8e6c0b13ca7396f3d31,66a626ef09d4e21e1a8894ec,6734d68403f8352bd2ebe496,2024-11-13_17h41.13.073,Tarea de género gramatical,2024.2.2,MacIntel,62.89308176,,,,,,,,,,,,,,,,,,,,,,,,433.2947,434.193,l,1,[],[],[],[],[],[],[],0.2226,1,434.1931,434.6929,,,,,,1146,MAS,CON,150,humor,,l,0.2226,,434.693,434.6932,0.060116102,-0.391210734,0,0,0,,0,205,205,245,1,,,,
,,,,,,b1c0e8e6c0b13ca7396f3d31,66a626ef09d4e21e1a8894ec,6734d68403f8352bd2ebe496,2024-11-13_17h41.13.073,Tarea de género gramatical,2024.2.2,MacIntel,62.89308176,,,,,,,,,,,,,,,,,,,,,,,,434.6951,435.6429,a,1,[],[],[],[],[],[],[],0.2711,1,435.643,436.143,,,,,,957,FEM,CON,150,moda,,a,0.2711,,436.1431,436.1432,0.060116102,-0.391210734,0,0,0,,0,206,206,56,1,,,,
,,,,,,b1c0e8e6c0b13ca7396f3d31,66a626ef09d4e21e1a8894ec,6734d68403f8352bd2ebe496,2024-11-13_17h41.13.073,Tarea de género gramatical,2024.2.2,MacIntel,62.89308176,,,,,,,,,,,,,,,,,,,,,,,,436.1447,437.1427,l,0,[],[],[],[],[],[],[],0.3259,0,437.1438,437.6426,,,,,,1118,FEM,AGR,150,nieve,la,a,0.3259,,437.6426,437.6428,0.060116102,-0.391210734,0,0,0,,0,207,207,217,1,,,,
,,,,,,b1c0e8e6c0b13ca7396f3d31,66a626ef09d4e21e1a8894ec,6734d68403f8352bd2ebe496,2024-11-13_17h41.13.073,Tarea de género gramatical,2024.2.2,MacIntel,62.89308176,,,,,,,,,,,,,,,,,,,,,,,,437.6444,438.6756,l,1,[],[],[],[],[],[],[],0.352,1,438.677,439.1766,,,,,,1090,MAS,DIS,150,campo,la,l,0.352,,439.1767,439.1768,0.060116102,-0.391210734,0,0,0,,0,208,208,189,1,,,,
,,,,,,b1c0e8e6c0b13ca7396f3d31,66a626ef09d4e21e1a8894ec,6734d68403f8352bd2ebe496,2024-11-13_17h41.13.073,Tarea de género gramatical,2024.2.2,MacIntel,62.89308176,,,,,,,,,,,,,,,,,,,,,,,,439.1785,440.1091,l,0,[],[],[],[],[],[],[],0.2599,0,440.1102,440.609,,,,,,1273,FEM,DIS,150,lluvia,el,a,0.2599,,440.6105,440.6113,0.060116102,-0.391210734,0,0,0,,0,209,209,372,1,,,,
,,,,,,b1c0e8e6c0b13ca7396f3d31,66a626ef09d4e21e1a8894ec,6734d68403f8352bd2ebe496,2024-11-13_17h41.13.073,Tarea de género gramatical,2024.2.2,MacIntel,62.89308176,,,,,,,,,,,,,,,,,,,,,,,,440.612,441.9093,l,0,[],[],[],[],[],[],[],0.6232,0,441.9093,442.4102,,,,,,925,FEM,DIS,150,nave,el,a,0.6232,,442.4102,442.4103,0.060116102,-0.391210734,0,0,0,,0,210,210,24,1,,,,
,,,,,,b1c0e8e6c0b13ca7396f3d31,66a626ef09d4e21e1a8894ec,6734d68403f8352bd2ebe496,2024-11-13_17h41.13.073,Tarea de género gramatical,2024.2.2,MacIntel,62.89308176,,,,,,,,,,,,,,,,,,,,,,,,442.4118,443.3771,l,1,[],[],[],[],[],[],[],0.2829,1,443.3783,443.8763,,,,,,1162,MAS,DIS,150,video,la,l,0.2829,,443.8763,443.8764,0.060116102,-0.391210734,0,0,0,,0,211,211,261,1,,,,
,,,,,,b1c0e8e6c0b13ca7396f3d31,66a626ef09d4e21e1a8894ec,6734d68403f8352bd2ebe496,2024-11-13_17h41.13.073,Tarea de género gramatical,2024.2.2,MacIntel,62.89308176,,,,,,,,,,,,,,,,,,,,,,,,443.8783,444.7764,l,1,[],[],[],[],[],[],[],0.227,1,444.7766,445.2763,,,,,,1126,MAS,DIS,150,color,la,l,0.227,,445.2764,445.2765,0.060116102,-0.391210734,0,0,0,,0,212,212,225,1,,,,
,,,,,,b1c0e8e6c0b13ca7396f3d31,66a626ef09d4e21e1a8894ec,6734d68403f8352bd2ebe496,2024-11-13_17h41.13.073,Tarea de género gramatical,2024.2.2,MacIntel,62.89308176,,,,,,,,,,,,,,,,,,,,,,,,445.2775,446.2091,a,1,[],[],[],[],[],[],[],0.2485,1,446.2093,446.7105,,,,,,1124,FEM,AGR,150,arena,la,a,0.2485,,446.7119,446.7128,0.060116102,-0.391210734,0,0,0,,0,213,213,223,1,,,,
,,,,,,b1c0e8e6c0b13ca7396f3d31,66a626ef09d4e21e1a8894ec,6734d68403f8352bd2ebe496,2024-11-13_17h41.13.073,Tarea de género gramatical,2024.2.2,MacIntel,62.89308176,,,,,,,,,,,,,,,,,,,,,,,,446.7137,447.7265,l,1,[],[],[],[],[],[],[],0.3329,1,447.7266,448.2272,,,,,,1350,MAS,CON,150,conejo,,l,0.3329,,448.2273,448.2275,0.060116102,-0.391210734,0,0,0,,0,214,214,449,1,,,,
,,,,,,b1c0e8e6c0b13ca7396f3d31,66a626ef09d4e21e1a8894ec,6734d68403f8352bd2ebe496,2024-11-13_17h41.13.073,Tarea de género gramatical,2024.2.2,MacIntel,62.89308176,,,,,,,,,,,,,,,,,,,,,,,,448.229,449.194,l,1,[],[],[],[],[],[],[],0.2882,1,449.194,449.6939,,,,,,1007,MAS,AGR,150,cubo,el,l,0.2882,,449.694,449.6941,0.060116102,-0.391210734,0,0,0,,0,215,215,106,1,,,,
,,,,,,b1c0e8e6c0b13ca7396f3d31,66a626ef09d4e21e1a8894ec,6734d68403f8352bd2ebe496,2024-11-13_17h41.13.073,Tarea de género gramatical,2024.2.2,MacIntel,62.89308176,,,,,,,,,,,,,,,,,,,,,,,,449.6961,450.6607,a,0,[],[],[],[],[],[],[],0.2861,0,450.662,451.1601,,,,,,1078,MAS,DIS,150,punto,la,l,0.2861,,451.1602,451.1602,0.060116102,-0.391210734,0,0,0,,0,216,216,177,1,,,,
,,,,,,b1c0e8e6c0b13ca7396f3d31,66a626ef09d4e21e1a8894ec,6734d68403f8352bd2ebe496,2024-11-13_17h41.13.073,Tarea de género gramatical,2024.2.2,MacIntel,62.89308176,,,,,,,,,,,,,,,,,,,,,,,,451.1616,452.3103,a,1,[],[],[],[],[],[],[],0.4827,1,452.3114,452.8108,,,,,,1292,FEM,AGR,150,maleta,la,a,0.4827,,452.8109,452.811,0.060116102,-0.391210734,0,0,0,,0,217,217,391,1,,,,
,,,,,,b1c0e8e6c0b13ca7396f3d31,66a626ef09d4e21e1a8894ec,6734d68403f8352bd2ebe496,2024-11-13_17h41.13.073,Tarea de género gramatical,2024.2.2,MacIntel,62.89308176,,,,,,,,,,,,,,,,,,,,,,,,452.8123,453.8777,a,1,[],[],[],[],[],[],[],0.3834,1,453.8777,454.3777,,,,,,1215,FEM,CON,150,manera,,a,0.3834,,454.3797,454.3806,0.060116102,-0.391210734,0,0,0,,0,218,218,314,1,,,,
,,,,,,b1c0e8e6c0b13ca7396f3d31,66a626ef09d4e21e1a8894ec,6734d68403f8352bd2ebe496,2024-11-13_17h41.13.073,Tarea de género gramatical,2024.2.2,MacIntel,62.89308176,,,,,,,,,,,,,,,,,,,,,,,,454.3814,455.4277,l,1,[],[],[],[],[],[],[],0.3673,1,455.4277,455.9274,,,,,,1318,MAS,DIS,150,pájaro,la,l,0.3673,,455.9274,455.9276,0.060116102,-0.391210734,0,0,0,,0,219,219,417,1,,,,
,,,,,,b1c0e8e6c0b13ca7396f3d31,66a626ef09d4e21e1a8894ec,6734d68403f8352bd2ebe496,2024-11-13_17h41.13.073,Tarea de género gramatical,2024.2.2,MacIntel,62.89308176,,,,,,,,,,,,,,,,,,,,,,,,455.9285,456.9606,a,1,[],[],[],[],[],[],[],0.3528,1,456.9607,457.4613,,,,,,1269,FEM,CON,150,camisa,,a,0.3528,,457.4614,457.4615,0.060116102,-0.391210734,0,0,0,,0,220,220,368,1,,,,
,,,,,,b1c0e8e6c0b13ca7396f3d31,66a626ef09d4e21e1a8894ec,6734d68403f8352bd2ebe496,2024-11-13_17h41.13.073,Tarea de género gramatical,2024.2.2,MacIntel,62.89308176,,,,,,,,,,,,,,,,,,,,,,,,457.4627,458.5944,a,1,[],[],[],[],[],[],[],0.4569,1,458.5945,459.0943,,,,,,1196,FEM,AGR,150,feria,la,a,0.4569,,459.0944,459.0946,0.060116102,-0.391210734,0,0,0,,0,221,221,295,1,,,,
,,,,,,b1c0e8e6c0b13ca7396f3d31,66a626ef09d4e21e1a8894ec,6734d68403f8352bd2ebe496,2024-11-13_17h41.13.073,Tarea de género gramatical,2024.2.2,MacIntel,62.89308176,,,,,,,,,,,,,,,,,,,,,,,,459.096,460.0444,a,1,[],[],[],[],[],[],[],0.2675,1,460.0446,460.544,,,,,,919,FEM,DIS,150,niña,el,a,0.2675,,460.546,460.5475,0.060116102,-0.391210734,0,0,0,,0,222,222,18,1,,,,
,,,,,,b1c0e8e6c0b13ca7396f3d31,66a626ef09d4e21e1a8894ec,6734d68403f8352bd2ebe496,2024-11-13_17h41.13.073,Tarea de género gramatical,2024.2.2,MacIntel,62.89308176,,,,,,,,,,,,,,,,,,,,,,,,460.5486,461.5436,a,1,[],[],[],[],[],[],[],0.3265,1,461.5437,462.0438,,,,,,1107,FEM,CON,150,playa,,a,0.3265,,462.0438,462.044,0.060116102,-0.391210734,0,0,0,,0,223,223,206,1,,,,
,,,,,,b1c0e8e6c0b13ca7396f3d31,66a626ef09d4e21e1a8894ec,6734d68403f8352bd2ebe496,2024-11-13_17h41.13.073,Tarea de género gramatical,2024.2.2,MacIntel,62.89308176,,,,,,,,,,,,,,,,,,,,,,,,462.0453,463.0113,a,1,[],[],[],[],[],[],[],0.2856,1,463.0114,463.5104,,,,,,987,FEM,CON,150,risa,,a,0.2856,,463.5104,463.5106,0.060116102,-0.391210734,0,0,0,,0,224,224,86,1,,,,
,,,,,,b1c0e8e6c0b13ca7396f3d31,66a626ef09d4e21e1a8894ec,6734d68403f8352bd2ebe496,2024-11-13_17h41.13.073,Tarea de género gramatical,2024.2.2,MacIntel,62.89308176,,,,,,,,,,,,,,,,,,,,,,,,463.5121,464.4613,l,1,[],[],[],[],[],[],[],0.2674,1,464.4614,464.9609,,,,,,1294,MAS,DIS,150,examen,la,l,0.2674,,464.961,464.9611,0.060116102,-0.391210734,0,0,0,,0,225,225,393,1,,,,
,,,,,,b1c0e8e6c0b13ca7396f3d31,66a626ef09d4e21e1a8894ec,6734d68403f8352bd2ebe496,2024-11-13_17h41.13.073,Tarea de género gramatical,2024.2.2,MacIntel,62.89308176,,,,,,,,,,,,,,,,,,,,,,,,464.9624,466.4116,a,1,[],[],[],[],[],[],[],0.7703,1,466.4117,466.9117,,,,,,1291,FEM,DIS,150,altura,el,a,0.7703,,466.9117,466.9118,0.060116102,-0.391210734,0,0,0,,0,226,226,390,1,,,,
,,,,,,b1c0e8e6c0b13ca7396f3d31,66a626ef09d4e21e1a8894ec,6734d68403f8352bd2ebe496,2024-11-13_17h41.13.073,Tarea de género gramatical,2024.2.2,MacIntel,62.89308176,,,,,,,,,,,,,,,,,,,,,,,,466.9129,467.9108,a,1,[],[],[],[],[],[],[],0.3161,1,467.9109,468.4112,,,,,,1347,FEM,CON,150,lógica,,a,0.3161,,468.4127,468.4134,0.060116102,-0.391210734,0,0,0,,0,227,227,446,1,,,,
,,,,,,b1c0e8e6c0b13ca7396f3d31,66a626ef09d4e21e1a8894ec,6734d68403f8352bd2ebe496,2024-11-13_17h41.13.073,Tarea de género gramatical,2024.2.2,MacIntel,62.89308176,,,,,,,,,,,,,,,,,,,,,,,,468.4142,469.4119,a,1,[],[],[],[],[],[],[],0.3193,1,469.412,469.912,,,,,,1148,FEM,AGR,150,letra,la,a,0.3193,,469.9121,469.9122,0.060116102,-0.391210734,0,0,0,,0,228,228,247,1,,,,
,,,,,,b1c0e8e6c0b13ca7396f3d31,66a626ef09d4e21e1a8894ec,6734d68403f8352bd2ebe496,2024-11-13_17h41.13.073,Tarea de género gramatical,2024.2.2,MacIntel,62.89308176,,,,,,,,,,,,,,,,,,,,,,,,469.9137,470.8453,a,1,[],[],[],[],[],[],[],0.2585,1,470.8454,471.3451,,,,,,943,FEM,DIS,150,nena,el,a,0.2585,,471.3452,471.3453,0.060116102,-0.391210734,0,0,0,,0,229,229,42,1,,,,
,,,,,,b1c0e8e6c0b13ca7396f3d31,66a626ef09d4e21e1a8894ec,6734d68403f8352bd2ebe496,2024-11-13_17h41.13.073,Tarea de género gramatical,2024.2.2,MacIntel,62.89308176,,,,,,,,,,,,,,,,,,,,,,,,471.3467,472.2613,a,1,[],[],[],[],[],[],[],0.2326,1,472.2613,472.7622,,,,,,1028,FEM,AGR,150,leña,la,a,0.2326,,472.7623,472.7624,0.060116102,-0.391210734,0,0,0,,0,230,230,127,1,,,,
,,,,,,b1c0e8e6c0b13ca7396f3d31,66a626ef09d4e21e1a8894ec,6734d68403f8352bd2ebe496,2024-11-13_17h41.13.073,Tarea de género gramatical,2024.2.2,MacIntel,62.89308176,,,,,,,,,,,,,,,,,,,,,,,,472.764,473.9457,a,1,[],[],[],[],[],[],[],0.4987,1,473.9458,474.4449,,,,,,1263,FEM,CON,150,unidad,,a,0.4987,,474.4467,474.4477,0.060116102,-0.391210734,0,0,0,,0,231,231,362,1,,,,
,,,,,,b1c0e8e6c0b13ca7396f3d31,66a626ef09d4e21e1a8894ec,6734d68403f8352bd2ebe496,2024-11-13_17h41.13.073,Tarea de género gramatical,2024.2.2,MacIntel,62.89308176,,,,,,,,,,,,,,,,,,,,,,,,474.4491,475.3623,l,1,[],[],[],[],[],[],[],0.2395,1,475.3624,475.8622,,,,,,1343,MAS,AGR,150,templo,el,l,0.2395,,475.8623,475.8624,0.060116102,-0.391210734,0,0,0,,0,232,232,442,1,,,,
,,,,,,b1c0e8e6c0b13ca7396f3d31,66a626ef09d4e21e1a8894ec,6734d68403f8352bd2ebe496,2024-11-13_17h41.13.073,Tarea de género gramatical,2024.2.2,MacIntel,62.89308176,,,,,,,,,,,,,,,,,,,,,,,,475.8635,476.8456,l,1,[],[],[],[],[],[],[],0.3094,1,476.8456,477.346,,,,,,1284,MAS,CON,150,pedazo,,l,0.3094,,477.346,477.3462,0.060116102,-0.391210734,0,0,0,,0,233,233,383,1,,,,
,,,,,,b1c0e8e6c0b13ca7396f3d31,66a626ef09d4e21e1a8894ec,6734d68403f8352bd2ebe496,2024-11-13_17h41.13.073,Tarea de género gramatical,2024.2.2,MacIntel,62.89308176,,,,,,,,,,,,,,,,,,,,,,,,477.348,478.3786,a,1,[],[],[],[],[],[],[],0.354,1,478.3787,478.8792,,,,,,1257,FEM,CON,150,lengua,,a,0.354,,478.8792,478.8793,0.060116102,-0.391210734,0,0,0,,0,234,234,356,1,,,,
,,,,,,b1c0e8e6c0b13ca7396f3d31,66a626ef09d4e21e1a8894ec,6734d68403f8352bd2ebe496,2024-11-13_17h41.13.073,Tarea de género gramatical,2024.2.2,MacIntel,62.89308176,,,,,,,,,,,,,,,,,,,,,,,,478.8808,479.9959,l,1,[],[],[],[],[],[],[],0.4329,1,479.9959,480.496,,,,,,928,MAS,DIS,150,club,la,l,0.4329,,480.4961,480.4965,0.060116102,-0.391210734,0,0,0,,0,235,235,27,1,,,,
,,,,,,b1c0e8e6c0b13ca7396f3d31,66a626ef09d4e21e1a8894ec,6734d68403f8352bd2ebe496,2024-11-13_17h41.13.073,Tarea de género gramatical,2024.2.2,MacIntel,62.89308176,,,,,,,,,,,,,,,,,,,,,,,,480.4977,481.395,a,1,[],[],[],[],[],[],[],0.2239,1,481.3951,481.8951,,,,,,1321,FEM,DIS,150,novela,el,a,0.2239,,481.8965,481.8972,0.060116102,-0.391210734,0,0,0,,0,236,236,420,1,,,,
,,,,,,b1c0e8e6c0b13ca7396f3d31,66a626ef09d4e21e1a8894ec,6734d68403f8352bd2ebe496,2024-11-13_17h41.13.073,Tarea de género gramatical,2024.2.2,MacIntel,62.89308176,,,,,,,,,,,,,,,,,,,,,,,,481.898,482.8294,a,1,[],[],[],[],[],[],[],0.2488,1,482.8296,483.3292,,,,,,1159,FEM,DIS,150,prima,el,a,0.2488,,483.3293,483.3294,0.060116102,-0.391210734,0,0,0,,0,237,237,258,1,,,,
,,,,,,b1c0e8e6c0b13ca7396f3d31,66a626ef09d4e21e1a8894ec,6734d68403f8352bd2ebe496,2024-11-13_17h41.13.073,Tarea de género gramatical,2024.2.2,MacIntel,62.89308176,,,,,,,,,,,,,,,,,,,,,,,,483.3308,484.4286,l,1,[],[],[],[],[],[],[],0.4162,1,484.4287,484.9291,,,,,,1289,MAS,AGR,150,tamaño,el,l,0.4162,,484.9293,484.9294,0.060116102,-0.391210734,0,0,0,,0,238,238,388,1,,,,
,,,,,,b1c0e8e6c0b13ca7396f3d31,66a626ef09d4e21e1a8894ec,6734d68403f8352bd2ebe496,2024-11-13_17h41.13.073,Tarea de género gramatical,2024.2.2,MacIntel,62.89308176,,,,,,,,,,,,,,,,,,,,,,,,484.9306,485.8797,l,1,[],[],[],[],[],[],[],0.2726,1,485.8798,486.3798,,,,,,977,MAS,AGR,150,pico,el,l,0.2726,,486.38,486.3801,0.060116102,-0.391210734,0,0,0,,0,239,239,76,1,,,,
,,,,,,b1c0e8e6c0b13ca7396f3d31,66a626ef09d4e21e1a8894ec,6734d68403f8352bd2ebe496,2024-11-13_17h41.13.073,Tarea de género gramatical,2024.2.2,MacIntel,62.89308176,,,,,,,,,,,,,,,,,,,,,,,,486.3813,487.4132,l,1,[],[],[],[],[],[],[],0.3515,1,487.4133,487.9133,,,,,,935,MAS,AGR,150,taxi,el,l,0.3515,,487.9152,487.9163,0.060116102,-0.391210734,0,0,0,,0,240,240,34,1,,,,
,,,,,,b1c0e8e6c0b13ca7396f3d31,66a626ef09d4e21e1a8894ec,6734d68403f8352bd2ebe496,2024-11-13_17h41.13.073,Tarea de género gramatical,2024.2.2,MacIntel,62.89308176,,,,,,,,,,,,,,,,,,,,,,,,487.9173,488.8133,l,1,[],[],[],[],[],[],[],0.2248,1,488.8134,489.3128,,,,,,1205,MAS,AGR,150,hombre,el,l,0.2248,,489.3128,489.3129,0.060116102,-0.391210734,0,0,0,,0,241,241,304,1,,,,
,,,,,,b1c0e8e6c0b13ca7396f3d31,66a626ef09d4e21e1a8894ec,6734d68403f8352bd2ebe496,2024-11-13_17h41.13.073,Tarea de género gramatical,2024.2.2,MacIntel,62.89308176,,,,,,,,,,,,,,,,,,,,,,,,489.3136,490.3469,a,1,[],[],[],[],[],[],[],0.3674,1,490.347,490.8467,,,,,,1075,FEM,DIS,150,señal,el,a,0.3674,,490.8468,490.847,0.060116102,-0.391210734,0,0,0,,0,242,242,174,1,,,,
,,,,,,b1c0e8e6c0b13ca7396f3d31,66a626ef09d4e21e1a8894ec,6734d68403f8352bd2ebe496,2024-11-13_17h41.13.073,Tarea de género gramatical,2024.2.2,MacIntel,62.89308176,,,,,,,,,,,,,,,,,,,,,,,,490.8485,491.8135,l,1,[],[],[],[],[],[],[],0.2823,1,491.8136,492.3131,,,,,,1246,MAS,DIS,150,juicio,la,l,0.2823,,492.3131,492.3132,0.060116102,-0.391210734,0,0,0,,0,243,243,345,1,,,,
,,,,,,b1c0e8e6c0b13ca7396f3d31,66a626ef09d4e21e1a8894ec,6734d68403f8352bd2ebe496,2024-11-13_17h41.13.073,Tarea de género gramatical,2024.2.2,MacIntel,62.89308176,,,,,,,,,,,,,,,,,,,,,,,,492.3141,493.3469,a,1,[],[],[],[],[],[],[],0.3571,1,493.3469,493.8467,,,,,,908,FEM,AGR,150,idea,la,a,0.3571,,493.8467,493.8469,0.060116102,-0.391210734,0,0,0,,0,244,244,7,1,,,,
,,,,,,b1c0e8e6c0b13ca7396f3d31,66a626ef09d4e21e1a8894ec,6734d68403f8352bd2ebe496,2024-11-13_17h41.13.073,Tarea de género gramatical,2024.2.2,MacIntel,62.89308176,,,,,,,,,,,,,,,,,,,,,,,,493.8482,494.8793,a,1,[],[],[],[],[],[],[],0.3591,1,494.8793,495.3793,,,,,,1231,FEM,DIS,150,cárcel,el,a,0.3591,,495.3808,495.3817,0.060116102,-0.391210734,0,0,0,,0,245,245,330,1,,,,
,,,,,,b1c0e8e6c0b13ca7396f3d31,66a626ef09d4e21e1a8894ec,6734d68403f8352bd2ebe496,2024-11-13_17h41.13.073,Tarea de género gramatical,2024.2.2,MacIntel,62.89308176,,,,,,,,,,,,,,,,,,,,,,,,495.3824,496.5305,a,1,[],[],[],[],[],[],[],0.4672,1,496.5306,497.0304,,,,,,1101,FEM,CON,150,leche,,a,0.4672,,497.0305,497.0305,0.060116102,-0.391210734,0,0,0,,0,246,246,200,1,,,,
,,,,,,b1c0e8e6c0b13ca7396f3d31,66a626ef09d4e21e1a8894ec,6734d68403f8352bd2ebe496,2024-11-13_17h41.13.073,Tarea de género gramatical,2024.2.2,MacIntel,62.89308176,,,,,,,,,,,,,,,,,,,,,,,,497.0329,497.9798,a,1,[],[],[],[],[],[],[],0.268,1,497.9799,498.48,,,,,,1189,FEM,DIS,150,tabla,el,a,0.268,,498.48,498.4802,0.060116102,-0.391210734,0,0,0,,0,247,247,288,1,,,,
,,,,,,b1c0e8e6c0b13ca7396f3d31,66a626ef09d4e21e1a8894ec,6734d68403f8352bd2ebe496,2024-11-13_17h41.13.073,Tarea de género gramatical,2024.2.2,MacIntel,62.89308176,,,,,,,,,,,,,,,,,,,,,,,,498.4819,499.5637,a,1,[],[],[],[],[],[],[],0.4092,1,499.5638,500.064,,,,,,962,FEM,AGR,150,sopa,la,a,0.4092,,500.0643,500.0643,0.060116102,-0.391210734,0,0,0,,0,248,248,61,1,,,,
