counterbalancing_condition,consent_prescreening.block_1/declare_consent,consent_prescreening.block_1/age_years,consent_prescreening.block_1/gender,consent_prescreening.block_1/language_disorder,consent_prescreening.block_1/first_language,PROLIFIC_PID,STUDY_ID,SESSION_ID,date,expName,psychopyVersion,OS,frameRate,check_prescreening_answers.started,check_prescreening_answers.stopped,Instructions.started,Instructions.stopped,instr_done_keyboard.keys,instr_done_keyboard.rt,instr_done_keyboard.duration,instr_done_touch.x,instr_done_touch.y,instr_done_touch.leftButton,instr_done_touch.midButton,instr_done_touch.rightButton,instruction_pages.thisRepN,instruction_pages.thisTrialN,instruction_pages.thisN,instruction_pages.thisIndex,instruction_pages.ran,pageN,phase,instruct_text,has_image,instruct_image,presentTrial.started,presentTrial.stopped,response.keys,response.corr,response.rt,response.duration,touch_resp.x,touch_resp.y,touch_resp.leftButton,touch_resp.midButton,touch_resp.rightButton,touch_resp.time,touch_resp.clicked_name,rt,corr,feedback.started,feedback.stopped,practice_trials.thisRepN,practice_trials.thisTrialN,practice_trials.thisN,practice_trials.thisIndex,practice_trials.ran,TrialID,StimulusType,Condition,PrimeDuration,Prime,Flanker,corrAns,Break.started,Break.stopped,break_done_touch.x,break_done_touch.y,break_done_touch.leftButton,break_done_touch.midButton,break_done_touch.rightButton,break_done_keyboard.keys,experiment_trials.thisRepN,experiment_trials.thisTrialN,experiment_trials.thisN,experiment_trials.thisIndex,experiment_trials.ran,break_done_keyboard.rt,break_done_keyboard.duration,End.started,End.stopped
2,"[""over_18"",""comfortable"",""read_info"",""consent_given""]",37,F,"[""none""]","[""spanish""]",b5f84ff84a7124e70db144ef,66a626ef09d4e21e1a8894ec,6734a00ebcb39f4fbecb8c26,2024-11-13_06h49.35.818,Tarea de género gramatical,2024.2.2,Win32,59.88023952,,,,,,,,,,,,,,,,,,,,,,,,,,,,,,,,,,,,,,,,,,,,,,,,,,,,,,,,,,,,,,,,,,,,
,,,,,,b5f84ff84a7124e70db144ef,66a626ef09d4e21e1a8894ec,6734a00ebcb39f4fbecb8c26,2024-11-13_06h49.35.818,Tarea de género gramatical,2024.2.2,Win32,59.88023952,41.8259,41.826,,,,,,,,,,,,,,,,,,,,,,,,,,,,,,,,,,,,,,,,,,,,,,,,,,,,,,,,,,,,,,,,,,
,,,,,,b5f84ff84a7124e70db144ef,66a626ef09d4e21e1a8894ec,6734a00ebcb39f4fbecb8c26,2024-11-13_06h49.35.818,Tarea de género gramatical,2024.2.2,Win32,59.88023952,,,41.8489,62.7973,space,20.9057,,0.068518575,-0.368518575,0,0,0,0,0,0,0,1,1,instructions,"INSTRUCCIONES
Va a realizar una prueba de selección gramatical. Desde el comienzo de la prueba mire siempre al centro de la pantalla. Al cabo de un momento, aparecerán palabras. La tarea consiste en determinar si la palabra del centro (siempre será un sustantivo), pertenece al género masculino o femenino.

Pulse la tecla ESPACIO o toque el botón de abajo para continuar.",0,keyboardresponseMF.png,,,,,,,,,,,,,,,,,,,,,,,,,,,,,,,,,,,,,,,,,,,,,,
,,,,,,b5f84ff84a7124e70db144ef,66a626ef09d4e21e1a8894ec,6734a00ebcb39f4fbecb8c26,2024-11-13_06h49.35.818,Tarea de género gramatical,2024.2.2,Win32,59.88023952,,,62.8007,98.3006,space,35.447,,0.143518575,-0.245370399,0,0,0,0,1,1,1,1,2,instructions,"Si su dispositivo tiene teclado, pulse la tecla ""A"" para las palabras en masculino (por ejemplo: ""arroz"") y la tecla ""L"" para las palabras en femenino (por ejemplo: ""mano"").
Pulse la tecla ESPACIO o toque el botón de abajo para continuar.",1,keyboardresponseMF.png,,,,,,,,,,,,,,,,,,,,,,,,,,,,,,,,,,,,,,,,,,,,,,
,,,,,,b5f84ff84a7124e70db144ef,66a626ef09d4e21e1a8894ec,6734a00ebcb39f4fbecb8c26,2024-11-13_06h49.35.818,Tarea de género gramatical,2024.2.2,Win32,59.88023952,,,98.3037,105.4133,space,7.0718,,0.143518575,-0.245370399,0,0,0,0,2,2,2,1,3,instructions,"Si utiliza un dispositivo sólo táctil, colóquelo en horizontal y utilice los botones de la pantalla. No utilice el ratón.
Pulse la tecla ESPACIO o toque el botón de abajo para continuar.",2,touchresponseMF.png,,,,,,,,,,,,,,,,,,,,,,,,,,,,,,,,,,,,,,,,,,,,,,
,,,,,,b5f84ff84a7124e70db144ef,66a626ef09d4e21e1a8894ec,6734a00ebcb39f4fbecb8c26,2024-11-13_06h49.35.818,Tarea de género gramatical,2024.2.2,Win32,59.88023952,,,105.4163,119.1503,space,13.7169,,0.143518575,-0.245370399,0,0,0,0,3,3,3,1,4,instructions,"Es muy importante que responda con la mayor rapidez y precisión posibles, ya que cada cadena de letras sólo estará en pantalla durante un instante. Si no responde en ese tiempo, aparecerá el mensaje ""Muy lento"" y el experimento pasará a la siguiente palabra. Los primeros 15 intentos serán de práctica y habrá dos descansos durante la prueba.
Pulse la tecla ESPACIO o toque el botón de abajo para iniciar la parte de práctica.",0,keyboardresponseMF.png,,,,,,,,,,,,,,,,,,,,,,,,,,,,,,,,,,,,,,,,,,,,,,
,,,,,,b5f84ff84a7124e70db144ef,66a626ef09d4e21e1a8894ec,6734a00ebcb39f4fbecb8c26,2024-11-13_06h49.35.818,Tarea de género gramatical,2024.2.2,Win32,59.88023952,,,,,,,,,,,,,,,,,,,,,,,119.1673,121.2318,l,0,1.3887,,[],[],[],[],[],[],[],1.3887,0,121.2323,121.7321,0,0,0,9,1,2010,MAS,AGR,150,vecino,el,l,,,,,,,,,,,,,,,,,
,,,,,,b5f84ff84a7124e70db144ef,66a626ef09d4e21e1a8894ec,6734a00ebcb39f4fbecb8c26,2024-11-13_06h49.35.818,Tarea de género gramatical,2024.2.2,Win32,59.88023952,,,,,,,,,,,,,,,,,,,,,,,121.735,123.513,a,1,1.1042,,[],[],[],[],[],[],[],1.1042,1,123.5152,124.0129,0,1,1,12,1,2013,MAS,AGR,150,acero,el,l,,,,,,,,,,,,,,,,,
,,,,,,b5f84ff84a7124e70db144ef,66a626ef09d4e21e1a8894ec,6734a00ebcb39f4fbecb8c26,2024-11-13_06h49.35.818,Tarea de género gramatical,2024.2.2,Win32,59.88023952,,,,,,,,,,,,,,,,,,,,,,,124.0154,125.4945,l,1,0.8068,,[],[],[],[],[],[],[],0.8068,1,125.4946,125.9948,0,2,2,6,1,2007,FEM,AGR,150,navaja,la,a,,,,,,,,,,,,,,,,,
,,,,,,b5f84ff84a7124e70db144ef,66a626ef09d4e21e1a8894ec,6734a00ebcb39f4fbecb8c26,2024-11-13_06h49.35.818,Tarea de género gramatical,2024.2.2,Win32,59.88023952,,,,,,,,,,,,,,,,,,,,,,,125.9972,127.976,a,1,1.3015,,[],[],[],[],[],[],[],1.3015,1,127.9761,128.4756,0,3,3,11,1,2012,MAS,DIS,150,clima,la,l,,,,,,,,,,,,,,,,,
,,,,,,b5f84ff84a7124e70db144ef,66a626ef09d4e21e1a8894ec,6734a00ebcb39f4fbecb8c26,2024-11-13_06h49.35.818,Tarea de género gramatical,2024.2.2,Win32,59.88023952,,,,,,,,,,,,,,,,,,,,,,,128.4785,131.0072,l,1,1.8505,,[],[],[],[],[],[],[],1.8505,1,131.0073,131.5076,0,4,4,2,1,2003,FEM,DIS,150,daga,el,a,,,,,,,,,,,,,,,,,
,,,,,,b5f84ff84a7124e70db144ef,66a626ef09d4e21e1a8894ec,6734a00ebcb39f4fbecb8c26,2024-11-13_06h49.35.818,Tarea de género gramatical,2024.2.2,Win32,59.88023952,,,,,,,,,,,,,,,,,,,,,,,131.5113,133.2712,l,0,1.0859,,[],[],[],[],[],[],[],1.0859,0,133.2721,133.7721,0,5,5,8,1,2009,MAS,DIS,150,puerto,la,l,,,,,,,,,,,,,,,,,
,,,,,,b5f84ff84a7124e70db144ef,66a626ef09d4e21e1a8894ec,6734a00ebcb39f4fbecb8c26,2024-11-13_06h49.35.818,Tarea de género gramatical,2024.2.2,Win32,59.88023952,,,,,,,,,,,,,,,,,,,,,,,133.7742,135.3032,l,1,0.8566,,[],[],[],[],[],[],[],0.8566,1,135.3047,135.8034,0,6,6,4,1,2005,FEM,CON,150,placa,,a,,,,,,,,,,,,,,,,,
,,,,,,b5f84ff84a7124e70db144ef,66a626ef09d4e21e1a8894ec,6734a00ebcb39f4fbecb8c26,2024-11-13_06h49.35.818,Tarea de género gramatical,2024.2.2,Win32,59.88023952,,,,,,,,,,,,,,,,,,,,,,,135.8053,137.8343,l,1,1.3523,,[],[],[],[],[],[],[],1.3523,1,137.8343,138.3352,0,7,7,3,1,2004,FEM,AGR,150,venta,la,a,,,,,,,,,,,,,,,,,
,,,,,,b5f84ff84a7124e70db144ef,66a626ef09d4e21e1a8894ec,6734a00ebcb39f4fbecb8c26,2024-11-13_06h49.35.818,Tarea de género gramatical,2024.2.2,Win32,59.88023952,,,,,,,,,,,,,,,,,,,,,,,138.3373,139.4995,l,1,0.4882,,[],[],[],[],[],[],[],0.4882,1,139.4996,139.9997,0,8,8,1,1,2002,FEM,CON,150,pala,,a,,,,,,,,,,,,,,,,,
,,,,,,b5f84ff84a7124e70db144ef,66a626ef09d4e21e1a8894ec,6734a00ebcb39f4fbecb8c26,2024-11-13_06h49.35.818,Tarea de género gramatical,2024.2.2,Win32,59.88023952,,,,,,,,,,,,,,,,,,,,,,,140.0013,141.2487,l,1,0.5761,,[],[],[],[],[],[],[],0.5761,1,141.2489,141.7481,0,9,9,0,1,2001,FEM,AGR,150,nuca,la,a,,,,,,,,,,,,,,,,,
,,,,,,b5f84ff84a7124e70db144ef,66a626ef09d4e21e1a8894ec,6734a00ebcb39f4fbecb8c26,2024-11-13_06h49.35.818,Tarea de género gramatical,2024.2.2,Win32,59.88023952,,,,,,,,,,,,,,,,,,,,,,,141.7504,142.9806,l,1,0.5511,,[],[],[],[],[],[],[],0.5511,1,142.9807,143.4804,0,10,10,7,1,2008,FEM,CON,150,siesta,,a,,,,,,,,,,,,,,,,,
,,,,,,b5f84ff84a7124e70db144ef,66a626ef09d4e21e1a8894ec,6734a00ebcb39f4fbecb8c26,2024-11-13_06h49.35.818,Tarea de género gramatical,2024.2.2,Win32,59.88023952,,,,,,,,,,,,,,,,,,,,,,,143.4822,144.7622,a,1,0.6018,,[],[],[],[],[],[],[],0.6018,1,144.7622,145.2624,0,11,11,13,1,2014,MAS,CON,150,siglo,,l,,,,,,,,,,,,,,,,,
,,,,,,b5f84ff84a7124e70db144ef,66a626ef09d4e21e1a8894ec,6734a00ebcb39f4fbecb8c26,2024-11-13_06h49.35.818,Tarea de género gramatical,2024.2.2,Win32,59.88023952,,,,,,,,,,,,,,,,,,,,,,,145.2647,146.8937,a,1,0.9513,,[],[],[],[],[],[],[],0.9513,1,146.8938,147.3938,0,12,12,10,1,2011,MAS,CON,150,canal,,l,,,,,,,,,,,,,,,,,
,,,,,,b5f84ff84a7124e70db144ef,66a626ef09d4e21e1a8894ec,6734a00ebcb39f4fbecb8c26,2024-11-13_06h49.35.818,Tarea de género gramatical,2024.2.2,Win32,59.88023952,,,,,,,,,,,,,,,,,,,,,,,147.3956,149.1586,l,1,1.0827,,[],[],[],[],[],[],[],1.0827,1,149.1586,149.6582,0,13,13,5,1,2006,FEM,DIS,150,serie,el,a,,,,,,,,,,,,,,,,,
,,,,,,b5f84ff84a7124e70db144ef,66a626ef09d4e21e1a8894ec,6734a00ebcb39f4fbecb8c26,2024-11-13_06h49.35.818,Tarea de género gramatical,2024.2.2,Win32,59.88023952,,,,,,,,,,,,,,,,,,,,,,,149.6607,151.4734,a,1,1.1334,,[],[],[],[],[],[],[],1.1334,1,151.4735,151.9734,0,14,14,14,1,2015,MAS,DIS,150,robot,la,l,,,,,,,,,,,,,,,,,
,,,,,,b5f84ff84a7124e70db144ef,66a626ef09d4e21e1a8894ec,6734a00ebcb39f4fbecb8c26,2024-11-13_06h49.35.818,Tarea de género gramatical,2024.2.2,Win32,59.88023952,,,167.2303,187.6438,space,20.4014,,0.143518575,-0.245370399,0,0,0,,,,,,,,,,,187.6765,189.2754,l,1,0.9337,,[],[],[],[],[],[],[],0.9337,1,189.2756,189.7754,,,,,,1340,FEM,AGR,150,patada,la,a,189.7759,189.7813,0.143518575,-0.245370399,0,0,0,,0,0,0,439,1,,,,
,,,,,,b5f84ff84a7124e70db144ef,66a626ef09d4e21e1a8894ec,6734a00ebcb39f4fbecb8c26,2024-11-13_06h49.35.818,Tarea de género gramatical,2024.2.2,Win32,59.88023952,,,,,,,,,,,,,,,,,,,,,,,189.7825,191.0077,a,1,0.5556,,[],[],[],[],[],[],[],0.5556,1,191.008,191.5092,,,,,,924,MAS,CON,150,voto,,l,191.5093,191.5095,0.143518575,-0.245370399,0,0,0,,0,1,1,23,1,,,,
,,,,,,b5f84ff84a7124e70db144ef,66a626ef09d4e21e1a8894ec,6734a00ebcb39f4fbecb8c26,2024-11-13_06h49.35.818,Tarea de género gramatical,2024.2.2,Win32,59.88023952,,,,,,,,,,,,,,,,,,,,,,,191.512,192.7228,l,1,0.5364,,[],[],[],[],[],[],[],0.5364,1,192.723,193.2229,,,,,,1321,FEM,DIS,150,novela,el,a,193.2251,193.2273,0.143518575,-0.245370399,0,0,0,,0,2,2,420,1,,,,
,,,,,,b5f84ff84a7124e70db144ef,66a626ef09d4e21e1a8894ec,6734a00ebcb39f4fbecb8c26,2024-11-13_06h49.35.818,Tarea de género gramatical,2024.2.2,Win32,59.88023952,,,,,,,,,,,,,,,,,,,,,,,193.2283,194.2879,l,1,0.3839,,[],[],[],[],[],[],[],0.3839,1,194.288,194.7879,,,,,,1208,FEM,AGR,150,semana,la,a,194.788,194.7881,0.143518575,-0.245370399,0,0,0,,0,3,3,307,1,,,,
,,,,,,b5f84ff84a7124e70db144ef,66a626ef09d4e21e1a8894ec,6734a00ebcb39f4fbecb8c26,2024-11-13_06h49.35.818,Tarea de género gramatical,2024.2.2,Win32,59.88023952,,,,,,,,,,,,,,,,,,,,,,,194.7895,195.8532,l,1,0.3865,,[],[],[],[],[],[],[],0.3865,1,195.8534,196.3533,,,,,,1292,FEM,AGR,150,maleta,la,a,196.3534,196.3538,0.143518575,-0.245370399,0,0,0,,0,4,4,391,1,,,,
,,,,,,b5f84ff84a7124e70db144ef,66a626ef09d4e21e1a8894ec,6734a00ebcb39f4fbecb8c26,2024-11-13_06h49.35.818,Tarea de género gramatical,2024.2.2,Win32,59.88023952,,,,,,,,,,,,,,,,,,,,,,,196.3555,197.4522,a,1,0.4239,,[],[],[],[],[],[],[],0.4239,1,197.4525,197.9515,,,,,,1055,MAS,AGR,150,mundo,el,l,197.9515,197.9517,0.143518575,-0.245370399,0,0,0,,0,5,5,154,1,,,,
,,,,,,b5f84ff84a7124e70db144ef,66a626ef09d4e21e1a8894ec,6734a00ebcb39f4fbecb8c26,2024-11-13_06h49.35.818,Tarea de género gramatical,2024.2.2,Win32,59.88023952,,,,,,,,,,,,,,,,,,,,,,,197.953,199.0173,a,1,0.3898,,[],[],[],[],[],[],[],0.3898,1,199.0174,199.5174,,,,,,1182,MAS,CON,150,bolso,,l,199.52,199.5229,0.143518575,-0.245370399,0,0,0,,0,6,6,281,1,,,,
,,,,,,b5f84ff84a7124e70db144ef,66a626ef09d4e21e1a8894ec,6734a00ebcb39f4fbecb8c26,2024-11-13_06h49.35.818,Tarea de género gramatical,2024.2.2,Win32,59.88023952,,,,,,,,,,,,,,,,,,,,,,,199.5237,200.6495,a,1,0.4526,,[],[],[],[],[],[],[],0.4526,1,200.6496,201.1497,,,,,,958,MAS,DIS,150,mono,la,l,201.1498,201.1502,0.143518575,-0.245370399,0,0,0,,0,7,7,57,1,,,,
,,,,,,b5f84ff84a7124e70db144ef,66a626ef09d4e21e1a8894ec,6734a00ebcb39f4fbecb8c26,2024-11-13_06h49.35.818,Tarea de género gramatical,2024.2.2,Win32,59.88023952,,,,,,,,,,,,,,,,,,,,,,,201.1526,202.3482,a,1,0.5222,,[],[],[],[],[],[],[],0.5222,1,202.3482,202.848,,,,,,966,MAS,CON,150,muro,,l,202.8481,202.8483,0.143518575,-0.245370399,0,0,0,,0,8,8,65,1,,,,
,,,,,,b5f84ff84a7124e70db144ef,66a626ef09d4e21e1a8894ec,6734a00ebcb39f4fbecb8c26,2024-11-13_06h49.35.818,Tarea de género gramatical,2024.2.2,Win32,59.88023952,,,,,,,,,,,,,,,,,,,,,,,202.8505,204.4468,l,1,0.9173,,[],[],[],[],[],[],[],0.9173,1,204.4469,204.9463,,,,,,1101,FEM,CON,150,leche,,a,204.9463,204.9465,0.143518575,-0.245370399,0,0,0,,0,9,9,200,1,,,,
,,,,,,b5f84ff84a7124e70db144ef,66a626ef09d4e21e1a8894ec,6734a00ebcb39f4fbecb8c26,2024-11-13_06h49.35.818,Tarea de género gramatical,2024.2.2,Win32,59.88023952,,,,,,,,,,,,,,,,,,,,,,,204.9482,206.4116,a,1,0.7827,,[],[],[],[],[],[],[],0.7827,1,206.4117,206.9109,,,,,,995,MAS,AGR,150,tomo,el,l,206.911,206.9112,0.143518575,-0.245370399,0,0,0,,0,10,10,94,1,,,,
,,,,,,b5f84ff84a7124e70db144ef,66a626ef09d4e21e1a8894ec,6734a00ebcb39f4fbecb8c26,2024-11-13_06h49.35.818,Tarea de género gramatical,2024.2.2,Win32,59.88023952,,,,,,,,,,,,,,,,,,,,,,,206.9125,208.3268,a,1,0.7505,,[],[],[],[],[],[],[],0.7505,1,208.3269,208.8259,,,,,,917,MAS,AGR,150,modo,el,l,208.8275,208.829,0.143518575,-0.245370399,0,0,0,,0,11,11,16,1,,,,
,,,,,,b5f84ff84a7124e70db144ef,66a626ef09d4e21e1a8894ec,6734a00ebcb39f4fbecb8c26,2024-11-13_06h49.35.818,Tarea de género gramatical,2024.2.2,Win32,59.88023952,,,,,,,,,,,,,,,,,,,,,,,208.8295,209.9252,l,1,0.417,,[],[],[],[],[],[],[],0.417,1,209.9252,210.4259,,,,,,1297,FEM,DIS,150,cuerda,el,a,210.426,210.4262,0.143518575,-0.245370399,0,0,0,,0,12,12,396,1,,,,
,,,,,,b5f84ff84a7124e70db144ef,66a626ef09d4e21e1a8894ec,6734a00ebcb39f4fbecb8c26,2024-11-13_06h49.35.818,Tarea de género gramatical,2024.2.2,Win32,59.88023952,,,,,,,,,,,,,,,,,,,,,,,210.4277,211.5906,a,1,0.4902,,[],[],[],[],[],[],[],0.4902,1,211.5907,212.0909,,,,,,1144,MAS,DIS,150,hielo,la,l,212.0909,212.091,0.143518575,-0.245370399,0,0,0,,0,13,13,243,1,,,,
,,,,,,b5f84ff84a7124e70db144ef,66a626ef09d4e21e1a8894ec,6734a00ebcb39f4fbecb8c26,2024-11-13_06h49.35.818,Tarea de género gramatical,2024.2.2,Win32,59.88023952,,,,,,,,,,,,,,,,,,,,,,,212.093,213.2057,a,0,0.4353,,[],[],[],[],[],[],[],0.4353,0,213.2065,213.7063,,,,,,1028,FEM,AGR,150,leña,la,a,213.7063,213.7064,0.143518575,-0.245370399,0,0,0,,0,14,14,127,1,,,,
,,,,,,b5f84ff84a7124e70db144ef,66a626ef09d4e21e1a8894ec,6734a00ebcb39f4fbecb8c26,2024-11-13_06h49.35.818,Tarea de género gramatical,2024.2.2,Win32,59.88023952,,,,,,,,,,,,,,,,,,,,,,,213.7076,214.9044,l,1,0.5187,,[],[],[],[],[],[],[],0.5187,1,214.9052,215.4043,,,,,,1058,FEM,AGR,150,chica,la,a,215.4062,215.4082,0.143518575,-0.245370399,0,0,0,,0,15,15,157,1,,,,
,,,,,,b5f84ff84a7124e70db144ef,66a626ef09d4e21e1a8894ec,6734a00ebcb39f4fbecb8c26,2024-11-13_06h49.35.818,Tarea de género gramatical,2024.2.2,Win32,59.88023952,,,,,,,,,,,,,,,,,,,,,,,215.4093,216.5212,a,1,0.443,,[],[],[],[],[],[],[],0.443,1,216.5217,217.0199,,,,,,1235,MAS,AGR,150,montón,el,l,217.02,217.0202,0.143518575,-0.245370399,0,0,0,,0,16,16,334,1,,,,
,,,,,,b5f84ff84a7124e70db144ef,66a626ef09d4e21e1a8894ec,6734a00ebcb39f4fbecb8c26,2024-11-13_06h49.35.818,Tarea de género gramatical,2024.2.2,Win32,59.88023952,,,,,,,,,,,,,,,,,,,,,,,217.0223,218.2014,l,1,0.5025,,[],[],[],[],[],[],[],0.5025,1,218.2015,218.7016,,,,,,975,FEM,CON,150,caza,,a,218.7017,218.7021,0.143518575,-0.245370399,0,0,0,,0,17,17,74,1,,,,
,,,,,,b5f84ff84a7124e70db144ef,66a626ef09d4e21e1a8894ec,6734a00ebcb39f4fbecb8c26,2024-11-13_06h49.35.818,Tarea de género gramatical,2024.2.2,Win32,59.88023952,,,,,,,,,,,,,,,,,,,,,,,218.7042,219.8507,l,1,0.4762,,[],[],[],[],[],[],[],0.4762,1,219.8509,220.3505,,,,,,973,FEM,DIS,150,roca,el,a,220.3507,220.3508,0.143518575,-0.245370399,0,0,0,,0,18,18,72,1,,,,
,,,,,,b5f84ff84a7124e70db144ef,66a626ef09d4e21e1a8894ec,6734a00ebcb39f4fbecb8c26,2024-11-13_06h49.35.818,Tarea de género gramatical,2024.2.2,Win32,59.88023952,,,,,,,,,,,,,,,,,,,,,,,220.3529,221.6162,l,1,0.5831,,[],[],[],[],[],[],[],0.5831,1,221.6164,222.1151,,,,,,1159,FEM,DIS,150,prima,el,a,222.1152,222.1154,0.143518575,-0.245370399,0,0,0,,0,19,19,258,1,,,,
,,,,,,b5f84ff84a7124e70db144ef,66a626ef09d4e21e1a8894ec,6734a00ebcb39f4fbecb8c26,2024-11-13_06h49.35.818,Tarea de género gramatical,2024.2.2,Win32,59.88023952,,,,,,,,,,,,,,,,,,,,,,,222.1167,223.2976,l,1,0.5004,,[],[],[],[],[],[],[],0.5004,1,223.2977,223.7982,,,,,,1171,FEM,DIS,150,viuda,el,a,223.8004,223.8022,0.143518575,-0.245370399,0,0,0,,0,20,20,270,1,,,,
,,,,,,b5f84ff84a7124e70db144ef,66a626ef09d4e21e1a8894ec,6734a00ebcb39f4fbecb8c26,2024-11-13_06h49.35.818,Tarea de género gramatical,2024.2.2,Win32,59.88023952,,,,,,,,,,,,,,,,,,,,,,,223.8036,225.063,a,1,0.5876,,[],[],[],[],[],[],[],0.5876,1,225.0631,225.5633,,,,,,1344,MAS,CON,150,límite,,l,225.5636,225.5639,0.143518575,-0.245370399,0,0,0,,0,21,21,443,1,,,,
,,,,,,b5f84ff84a7124e70db144ef,66a626ef09d4e21e1a8894ec,6734a00ebcb39f4fbecb8c26,2024-11-13_06h49.35.818,Tarea de género gramatical,2024.2.2,Win32,59.88023952,,,,,,,,,,,,,,,,,,,,,,,225.5659,227.028,l,1,0.7845,,[],[],[],[],[],[],[],0.7845,1,227.0283,227.528,,,,,,1191,FEM,CON,150,aguja,,a,227.5281,227.5282,0.143518575,-0.245370399,0,0,0,,0,22,22,290,1,,,,
,,,,,,b5f84ff84a7124e70db144ef,66a626ef09d4e21e1a8894ec,6734a00ebcb39f4fbecb8c26,2024-11-13_06h49.35.818,Tarea de género gramatical,2024.2.2,Win32,59.88023952,,,,,,,,,,,,,,,,,,,,,,,227.5304,228.6599,l,1,0.4562,,[],[],[],[],[],[],[],0.4562,1,228.66,229.1598,,,,,,997,FEM,DIS,150,capa,el,a,229.1599,229.16,0.143518575,-0.245370399,0,0,0,,0,23,23,96,1,,,,
,,,,,,b5f84ff84a7124e70db144ef,66a626ef09d4e21e1a8894ec,6734a00ebcb39f4fbecb8c26,2024-11-13_06h49.35.818,Tarea de género gramatical,2024.2.2,Win32,59.88023952,,,,,,,,,,,,,,,,,,,,,,,229.1624,230.3586,a,1,0.5193,,[],[],[],[],[],[],[],0.5193,1,230.3587,230.8585,,,,,,1276,MAS,DIS,150,efecto,la,l,230.862,230.8654,0.143518575,-0.245370399,0,0,0,,0,24,24,375,1,,,,
,,,,,,b5f84ff84a7124e70db144ef,66a626ef09d4e21e1a8894ec,6734a00ebcb39f4fbecb8c26,2024-11-13_06h49.35.818,Tarea de género gramatical,2024.2.2,Win32,59.88023952,,,,,,,,,,,,,,,,,,,,,,,230.8673,231.9905,l,1,0.4555,,[],[],[],[],[],[],[],0.4555,1,231.9907,232.4908,,,,,,1064,FEM,AGR,150,novia,la,a,232.4909,232.4911,0.143518575,-0.245370399,0,0,0,,0,25,25,163,1,,,,
,,,,,,b5f84ff84a7124e70db144ef,66a626ef09d4e21e1a8894ec,6734a00ebcb39f4fbecb8c26,2024-11-13_06h49.35.818,Tarea de género gramatical,2024.2.2,Win32,59.88023952,,,,,,,,,,,,,,,,,,,,,,,232.4927,233.7389,a,1,0.5703,,[],[],[],[],[],[],[],0.5703,1,233.739,234.2392,,,,,,1146,MAS,CON,150,humor,,l,234.2393,234.2393,0.143518575,-0.245370399,0,0,0,,0,26,26,245,1,,,,
,,,,,,b5f84ff84a7124e70db144ef,66a626ef09d4e21e1a8894ec,6734a00ebcb39f4fbecb8c26,2024-11-13_06h49.35.818,Tarea de género gramatical,2024.2.2,Win32,59.88023952,,,,,,,,,,,,,,,,,,,,,,,234.2406,235.3212,l,1,0.4012,,[],[],[],[],[],[],[],0.4012,1,235.3213,235.8209,,,,,,1005,FEM,CON,150,jefa,,a,235.821,235.821,0.143518575,-0.245370399,0,0,0,,0,27,27,104,1,,,,
,,,,,,b5f84ff84a7124e70db144ef,66a626ef09d4e21e1a8894ec,6734a00ebcb39f4fbecb8c26,2024-11-13_06h49.35.818,Tarea de género gramatical,2024.2.2,Win32,59.88023952,,,,,,,,,,,,,,,,,,,,,,,235.8227,236.8532,l,1,0.3597,,[],[],[],[],[],[],[],0.3597,1,236.8533,237.3527,,,,,,1185,FEM,CON,150,mafia,,a,237.3528,237.3528,0.143518575,-0.245370399,0,0,0,,0,28,28,284,1,,,,
,,,,,,b5f84ff84a7124e70db144ef,66a626ef09d4e21e1a8894ec,6734a00ebcb39f4fbecb8c26,2024-11-13_06h49.35.818,Tarea de género gramatical,2024.2.2,Win32,59.88023952,,,,,,,,,,,,,,,,,,,,,,,237.3541,238.5517,a,1,0.5234,,[],[],[],[],[],[],[],0.5234,1,238.5519,239.0517,,,,,,1086,MAS,CON,150,error,,l,239.0539,239.0557,0.143518575,-0.245370399,0,0,0,,0,29,29,185,1,,,,
,,,,,,b5f84ff84a7124e70db144ef,66a626ef09d4e21e1a8894ec,6734a00ebcb39f4fbecb8c26,2024-11-13_06h49.35.818,Tarea de género gramatical,2024.2.2,Win32,59.88023952,,,,,,,,,,,,,,,,,,,,,,,239.057,240.2003,l,1,0.468,,[],[],[],[],[],[],[],0.468,1,240.2004,240.7004,,,,,,1274,FEM,AGR,150,herida,la,a,240.7005,240.7009,0.143518575,-0.245370399,0,0,0,,0,30,30,373,1,,,,
,,,,,,b5f84ff84a7124e70db144ef,66a626ef09d4e21e1a8894ec,6734a00ebcb39f4fbecb8c26,2024-11-13_06h49.35.818,Tarea de género gramatical,2024.2.2,Win32,59.88023952,,,,,,,,,,,,,,,,,,,,,,,240.7026,241.8323,l,1,0.4515,,[],[],[],[],[],[],[],0.4515,1,241.8325,242.3322,,,,,,1087,FEM,DIS,150,lista,el,a,242.3323,242.3326,0.143518575,-0.245370399,0,0,0,,0,31,31,186,1,,,,
,,,,,,b5f84ff84a7124e70db144ef,66a626ef09d4e21e1a8894ec,6734a00ebcb39f4fbecb8c26,2024-11-13_06h49.35.818,Tarea de género gramatical,2024.2.2,Win32,59.88023952,,,,,,,,,,,,,,,,,,,,,,,242.3342,243.4977,a,1,0.4841,,[],[],[],[],[],[],[],0.4841,1,243.4978,243.9975,,,,,,1241,MAS,AGR,150,precio,el,l,243.9976,243.9978,0.143518575,-0.245370399,0,0,0,,0,32,32,340,1,,,,
,,,,,,b5f84ff84a7124e70db144ef,66a626ef09d4e21e1a8894ec,6734a00ebcb39f4fbecb8c26,2024-11-13_06h49.35.818,Tarea de género gramatical,2024.2.2,Win32,59.88023952,,,,,,,,,,,,,,,,,,,,,,,243.9993,245.0973,l,1,0.4178,,[],[],[],[],[],[],[],0.4178,1,245.0973,245.5963,,,,,,926,FEM,AGR,150,pena,la,a,245.5987,245.6002,0.143518575,-0.245370399,0,0,0,,0,33,33,25,1,,,,
,,,,,,b5f84ff84a7124e70db144ef,66a626ef09d4e21e1a8894ec,6734a00ebcb39f4fbecb8c26,2024-11-13_06h49.35.818,Tarea de género gramatical,2024.2.2,Win32,59.88023952,,,,,,,,,,,,,,,,,,,,,,,245.6012,246.9116,a,1,0.6356,,[],[],[],[],[],[],[],0.6356,1,246.9117,247.4119,,,,,,1169,MAS,AGR,150,primo,el,l,247.412,247.4123,0.143518575,-0.245370399,0,0,0,,0,34,34,268,1,,,,
,,,,,,b5f84ff84a7124e70db144ef,66a626ef09d4e21e1a8894ec,6734a00ebcb39f4fbecb8c26,2024-11-13_06h49.35.818,Tarea de género gramatical,2024.2.2,Win32,59.88023952,,,,,,,,,,,,,,,,,,,,,,,247.4142,248.4941,l,0,0.4069,,[],[],[],[],[],[],[],0.4069,0,248.4964,248.9932,,,,,,910,MAS,DIS,150,niño,la,l,248.9934,248.9935,0.143518575,-0.245370399,0,0,0,,0,35,35,9,1,,,,
,,,,,,b5f84ff84a7124e70db144ef,66a626ef09d4e21e1a8894ec,6734a00ebcb39f4fbecb8c26,2024-11-13_06h49.35.818,Tarea de género gramatical,2024.2.2,Win32,59.88023952,,,,,,,,,,,,,,,,,,,,,,,248.9952,250.7085,l,0,1.0316,,[],[],[],[],[],[],[],1.0316,0,250.7087,251.2079,,,,,,1132,MAS,DIS,150,calor,la,l,251.208,251.2081,0.143518575,-0.245370399,0,0,0,,0,36,36,231,1,,,,
,,,,,,b5f84ff84a7124e70db144ef,66a626ef09d4e21e1a8894ec,6734a00ebcb39f4fbecb8c26,2024-11-13_06h49.35.818,Tarea de género gramatical,2024.2.2,Win32,59.88023952,,,,,,,,,,,,,,,,,,,,,,,251.2096,252.6573,l,0,0.7764,,[],[],[],[],[],[],[],0.7764,0,252.6575,253.1571,,,,,,934,MAS,DIS,150,gato,la,l,253.1572,253.1574,0.143518575,-0.245370399,0,0,0,,0,37,37,33,1,,,,
,,,,,,b5f84ff84a7124e70db144ef,66a626ef09d4e21e1a8894ec,6734a00ebcb39f4fbecb8c26,2024-11-13_06h49.35.818,Tarea de género gramatical,2024.2.2,Win32,59.88023952,,,,,,,,,,,,,,,,,,,,,,,253.1593,254.5386,a,1,0.7017,,[],[],[],[],[],[],[],0.7017,1,254.5394,255.0385,,,,,,1198,MAS,DIS,150,botón,la,l,255.0404,255.0421,0.143518575,-0.245370399,0,0,0,,0,38,38,297,1,,,,
,,,,,,b5f84ff84a7124e70db144ef,66a626ef09d4e21e1a8894ec,6734a00ebcb39f4fbecb8c26,2024-11-13_06h49.35.818,Tarea de género gramatical,2024.2.2,Win32,59.88023952,,,,,,,,,,,,,,,,,,,,,,,255.0431,256.3539,l,1,0.6339,,[],[],[],[],[],[],[],0.6339,1,256.354,256.8537,,,,,,1255,FEM,DIS,150,mirada,el,a,256.8538,256.854,0.143518575,-0.245370399,0,0,0,,0,39,39,354,1,,,,
,,,,,,b5f84ff84a7124e70db144ef,66a626ef09d4e21e1a8894ec,6734a00ebcb39f4fbecb8c26,2024-11-13_06h49.35.818,Tarea de género gramatical,2024.2.2,Win32,59.88023952,,,,,,,,,,,,,,,,,,,,,,,256.856,257.8696,l,1,0.3366,,[],[],[],[],[],[],[],0.3366,1,257.8698,258.3689,,,,,,1341,FEM,CON,150,medida,,a,258.369,258.3692,0.143518575,-0.245370399,0,0,0,,0,40,40,440,1,,,,
,,,,,,b5f84ff84a7124e70db144ef,66a626ef09d4e21e1a8894ec,6734a00ebcb39f4fbecb8c26,2024-11-13_06h49.35.818,Tarea de género gramatical,2024.2.2,Win32,59.88023952,,,,,,,,,,,,,,,,,,,,,,,258.3705,259.5178,l,1,0.4728,,[],[],[],[],[],[],[],0.4728,1,259.5179,260.0178,,,,,,1286,FEM,AGR,150,sombra,la,a,260.0178,260.018,0.143518575,-0.245370399,0,0,0,,0,41,41,385,1,,,,
,,,,,,b5f84ff84a7124e70db144ef,66a626ef09d4e21e1a8894ec,6734a00ebcb39f4fbecb8c26,2024-11-13_06h49.35.818,Tarea de género gramatical,2024.2.2,Win32,59.88023952,,,,,,,,,,,,,,,,,,,,,,,260.0202,261.1164,a,1,0.419,,[],[],[],[],[],[],[],0.419,1,261.1167,261.6167,,,,,,1108,MAS,DIS,150,suelo,la,l,261.619,261.6206,0.145370399,-0.245370399,0,0,0,,0,42,42,207,1,,,,
,,,,,,b5f84ff84a7124e70db144ef,66a626ef09d4e21e1a8894ec,6734a00ebcb39f4fbecb8c26,2024-11-13_06h49.35.818,Tarea de género gramatical,2024.2.2,Win32,59.88023952,,,,,,,,,,,,,,,,,,,,,,,261.6214,262.8153,l,1,0.5231,,[],[],[],[],[],[],[],0.5231,1,262.8155,263.3151,,,,,,1039,FEM,DIS,150,pipa,el,a,263.3152,263.3154,0.145370399,-0.245370399,0,0,0,,0,43,43,138,1,,,,
,,,,,,b5f84ff84a7124e70db144ef,66a626ef09d4e21e1a8894ec,6734a00ebcb39f4fbecb8c26,2024-11-13_06h49.35.818,Tarea de género gramatical,2024.2.2,Win32,59.88023952,,,,,,,,,,,,,,,,,,,,,,,263.3174,264.4139,l,1,0.4179,,[],[],[],[],[],[],[],0.4179,1,264.414,264.9139,,,,,,921,FEM,CON,150,boca,,a,264.914,264.9141,0.145370399,-0.245370399,0,0,0,,0,44,44,20,1,,,,
,,,,,,b5f84ff84a7124e70db144ef,66a626ef09d4e21e1a8894ec,6734a00ebcb39f4fbecb8c26,2024-11-13_06h49.35.818,Tarea de género gramatical,2024.2.2,Win32,59.88023952,,,,,,,,,,,,,,,,,,,,,,,264.916,265.9125,l,1,0.3184,,[],[],[],[],[],[],[],0.3184,1,265.9126,266.4126,,,,,,992,FEM,AGR,150,masa,la,a,266.4128,266.4129,0.145370399,-0.245370399,0,0,0,,0,45,45,91,1,,,,
,,,,,,b5f84ff84a7124e70db144ef,66a626ef09d4e21e1a8894ec,6734a00ebcb39f4fbecb8c26,2024-11-13_06h49.35.818,Tarea de género gramatical,2024.2.2,Win32,59.88023952,,,,,,,,,,,,,,,,,,,,,,,266.4145,267.528,l,1,0.434,,[],[],[],[],[],[],[],0.434,1,267.528,268.0281,,,,,,1238,FEM,AGR,150,abuela,la,a,268.0282,268.0283,0.145370399,-0.245370399,0,0,0,,0,46,46,337,1,,,,
,,,,,,b5f84ff84a7124e70db144ef,66a626ef09d4e21e1a8894ec,6734a00ebcb39f4fbecb8c26,2024-11-13_06h49.35.818,Tarea de género gramatical,2024.2.2,Win32,59.88023952,,,,,,,,,,,,,,,,,,,,,,,268.0298,269.0601,l,1,0.35,,[],[],[],[],[],[],[],0.35,1,269.0603,269.5602,,,,,,999,FEM,CON,150,fase,,a,269.5619,269.5637,0.145370399,-0.245370399,0,0,0,,0,47,47,98,1,,,,
,,,,,,b5f84ff84a7124e70db144ef,66a626ef09d4e21e1a8894ec,6734a00ebcb39f4fbecb8c26,2024-11-13_06h49.35.818,Tarea de género gramatical,2024.2.2,Win32,59.88023952,,,,,,,,,,,,,,,,,,,,,,,269.565,270.5754,l,1,0.3366,,[],[],[],[],[],[],[],0.3366,1,270.5756,271.076,,,,,,939,FEM,CON,150,luna,,a,271.0761,271.0763,0.145370399,-0.245370399,0,0,0,,0,48,48,38,1,,,,
,,,,,,b5f84ff84a7124e70db144ef,66a626ef09d4e21e1a8894ec,6734a00ebcb39f4fbecb8c26,2024-11-13_06h49.35.818,Tarea de género gramatical,2024.2.2,Win32,59.88023952,,,,,,,,,,,,,,,,,,,,,,,271.0781,272.141,l,1,0.3851,,[],[],[],[],[],[],[],0.3851,1,272.1412,272.6409,,,,,,993,FEM,CON,150,lata,,a,272.6409,272.641,0.145370399,-0.245370399,0,0,0,,0,49,49,92,1,,,,
,,,,,,b5f84ff84a7124e70db144ef,66a626ef09d4e21e1a8894ec,6734a00ebcb39f4fbecb8c26,2024-11-13_06h49.35.818,Tarea de género gramatical,2024.2.2,Win32,59.88023952,,,,,,,,,,,,,,,,,,,,,,,272.6432,273.8563,a,1,0.5422,,[],[],[],[],[],[],[],0.5422,1,273.8565,274.356,,,,,,1282,MAS,DIS,150,teatro,la,l,274.356,274.3562,0.145370399,-0.245370399,0,0,0,,0,50,50,381,1,,,,
,,,,,,b5f84ff84a7124e70db144ef,66a626ef09d4e21e1a8894ec,6734a00ebcb39f4fbecb8c26,2024-11-13_06h49.35.818,Tarea de género gramatical,2024.2.2,Win32,59.88023952,,,,,,,,,,,,,,,,,,,,,,,274.3584,275.3714,l,1,0.3336,,[],[],[],[],[],[],[],0.3336,1,275.3715,275.8718,,,,,,1107,FEM,CON,150,playa,,a,275.8736,275.8754,0.145370399,-0.245370399,0,0,0,,0,51,51,206,1,,,,
,,,,,,b5f84ff84a7124e70db144ef,66a626ef09d4e21e1a8894ec,6734a00ebcb39f4fbecb8c26,2024-11-13_06h49.35.818,Tarea de género gramatical,2024.2.2,Win32,59.88023952,,,,,,,,,,,,,,,,,,,,,,,275.8765,276.9704,a,1,0.4187,,[],[],[],[],[],[],[],0.4187,1,276.9704,277.4705,,,,,,1247,MAS,AGR,150,cuello,el,l,277.4706,277.4709,0.145370399,-0.245370399,0,0,0,,0,52,52,346,1,,,,
,,,,,,b5f84ff84a7124e70db144ef,66a626ef09d4e21e1a8894ec,6734a00ebcb39f4fbecb8c26,2024-11-13_06h49.35.818,Tarea de género gramatical,2024.2.2,Win32,59.88023952,,,,,,,,,,,,,,,,,,,,,,,277.4726,278.5857,a,1,0.4365,,[],[],[],[],[],[],[],0.4365,1,278.5858,279.085,,,,,,1295,MAS,AGR,150,correo,el,l,279.085,279.0851,0.145370399,-0.245370399,0,0,0,,0,53,53,394,1,,,,
,,,,,,b5f84ff84a7124e70db144ef,66a626ef09d4e21e1a8894ec,6734a00ebcb39f4fbecb8c26,2024-11-13_06h49.35.818,Tarea de género gramatical,2024.2.2,Win32,59.88023952,,,,,,,,,,,,,,,,,,,,,,,279.0867,280.4174,l,1,0.65,,[],[],[],[],[],[],[],0.65,1,280.4177,280.9178,,,,,,967,FEM,DIS,150,miel,el,a,280.9179,280.9181,0.145370399,-0.245370399,0,0,0,,0,54,54,66,1,,,,
,,,,,,b5f84ff84a7124e70db144ef,66a626ef09d4e21e1a8894ec,6734a00ebcb39f4fbecb8c26,2024-11-13_06h49.35.818,Tarea de género gramatical,2024.2.2,Win32,59.88023952,,,,,,,,,,,,,,,,,,,,,,,280.9197,282.116,a,1,0.5147,,[],[],[],[],[],[],[],0.5147,1,282.1161,282.6168,,,,,,1204,MAS,DIS,150,tiempo,la,l,282.6169,282.617,0.145370399,-0.245370399,0,0,0,,0,55,55,303,1,,,,
,,,,,,b5f84ff84a7124e70db144ef,66a626ef09d4e21e1a8894ec,6734a00ebcb39f4fbecb8c26,2024-11-13_06h49.35.818,Tarea de género gramatical,2024.2.2,Win32,59.88023952,,,,,,,,,,,,,,,,,,,,,,,282.6188,283.7311,l,1,0.439,,[],[],[],[],[],[],[],0.439,1,283.7313,284.2313,,,,,,1311,FEM,CON,150,actriz,,a,284.2337,284.2354,0.145370399,-0.245370399,0,0,0,,0,56,56,410,1,,,,
,,,,,,b5f84ff84a7124e70db144ef,66a626ef09d4e21e1a8894ec,6734a00ebcb39f4fbecb8c26,2024-11-13_06h49.35.818,Tarea de género gramatical,2024.2.2,Win32,59.88023952,,,,,,,,,,,,,,,,,,,,,,,284.2362,285.3967,a,1,0.4856,,[],[],[],[],[],[],[],0.4856,1,285.3968,285.8961,,,,,,1343,MAS,AGR,150,templo,el,l,285.8962,285.8962,0.145370399,-0.245370399,0,0,0,,0,57,57,442,1,,,,
,,,,,,b5f84ff84a7124e70db144ef,66a626ef09d4e21e1a8894ec,6734a00ebcb39f4fbecb8c26,2024-11-13_06h49.35.818,Tarea de género gramatical,2024.2.2,Win32,59.88023952,,,,,,,,,,,,,,,,,,,,,,,285.8978,287.0787,l,1,0.4995,,[],[],[],[],[],[],[],0.4995,1,287.0789,287.5785,,,,,,974,FEM,AGR,150,flor,la,a,287.5786,287.5788,0.145370399,-0.245370399,0,0,0,,0,58,58,73,1,,,,
,,,,,,b5f84ff84a7124e70db144ef,66a626ef09d4e21e1a8894ec,6734a00ebcb39f4fbecb8c26,2024-11-13_06h49.35.818,Tarea de género gramatical,2024.2.2,Win32,59.88023952,,,,,,,,,,,,,,,,,,,,,,,287.5806,288.7279,a,1,0.4726,,[],[],[],[],[],[],[],0.4726,1,288.728,289.2275,,,,,,1151,MAS,AGR,150,dueño,el,l,289.2275,289.2277,0.145370399,-0.245370399,0,0,0,,0,59,59,250,1,,,,
,,,,,,b5f84ff84a7124e70db144ef,66a626ef09d4e21e1a8894ec,6734a00ebcb39f4fbecb8c26,2024-11-13_06h49.35.818,Tarea de género gramatical,2024.2.2,Win32,59.88023952,,,,,,,,,,,,,,,,,,,,,,,289.2292,290.3425,a,1,0.4344,,[],[],[],[],[],[],[],0.4344,1,290.3425,290.8425,,,,,,1331,MAS,AGR,150,veneno,el,l,290.8437,290.8453,0.145370399,-0.245370399,0,0,0,,0,60,60,430,1,,,,
,,,,,,b5f84ff84a7124e70db144ef,66a626ef09d4e21e1a8894ec,6734a00ebcb39f4fbecb8c26,2024-11-13_06h49.35.818,Tarea de género gramatical,2024.2.2,Win32,59.88023952,,,,,,,,,,,,,,,,,,,,,,,290.8461,291.8744,l,1,0.3532,,[],[],[],[],[],[],[],0.3532,1,291.8745,292.3746,,,,,,1269,FEM,CON,150,camisa,,a,292.3747,292.3747,0.145370399,-0.245370399,0,0,0,,0,61,61,368,1,,,,
,,,,,,b5f84ff84a7124e70db144ef,66a626ef09d4e21e1a8894ec,6734a00ebcb39f4fbecb8c26,2024-11-13_06h49.35.818,Tarea de género gramatical,2024.2.2,Win32,59.88023952,,,,,,,,,,,,,,,,,,,,,,,292.3763,293.4402,l,1,0.3852,,[],[],[],[],[],[],[],0.3852,1,293.4403,293.9396,,,,,,1244,FEM,AGR,150,pareja,la,a,293.9397,293.9399,0.145370399,-0.245370399,0,0,0,,0,62,62,343,1,,,,
,,,,,,b5f84ff84a7124e70db144ef,66a626ef09d4e21e1a8894ec,6734a00ebcb39f4fbecb8c26,2024-11-13_06h49.35.818,Tarea de género gramatical,2024.2.2,Win32,59.88023952,,,,,,,,,,,,,,,,,,,,,,,293.9415,295.0553,a,1,0.4338,,[],[],[],[],[],[],[],0.4338,1,295.0555,295.5554,,,,,,1044,MAS,CON,150,amor,,l,295.5556,295.5556,0.145370399,-0.245370399,0,0,0,,0,63,63,143,1,,,,
,,,,,,b5f84ff84a7124e70db144ef,66a626ef09d4e21e1a8894ec,6734a00ebcb39f4fbecb8c26,2024-11-13_06h49.35.818,Tarea de género gramatical,2024.2.2,Win32,59.88023952,,,,,,,,,,,,,,,,,,,,,,,295.557,296.9536,a,1,0.7197,,[],[],[],[],[],[],[],0.7197,1,296.9537,297.4534,,,,,,1176,MAS,CON,150,ritmo,,l,297.4535,297.4536,0.145370399,-0.245370399,0,0,0,,0,64,64,275,1,,,,
,,,,,,b5f84ff84a7124e70db144ef,66a626ef09d4e21e1a8894ec,6734a00ebcb39f4fbecb8c26,2024-11-13_06h49.35.818,Tarea de género gramatical,2024.2.2,Win32,59.88023952,,,,,,,,,,,,,,,,,,,,,,,297.4547,298.5358,l,1,0.4038,,[],[],[],[],[],[],[],0.4038,1,298.5358,299.0361,,,,,,1141,FEM,DIS,150,pasta,el,a,299.0388,299.0415,0.145370399,-0.245370399,0,0,0,,0,65,65,240,1,,,,
,,,,,,b5f84ff84a7124e70db144ef,66a626ef09d4e21e1a8894ec,6734a00ebcb39f4fbecb8c26,2024-11-13_06h49.35.818,Tarea de género gramatical,2024.2.2,Win32,59.88023952,,,,,,,,,,,,,,,,,,,,,,,299.043,300.1179,l,1,0.4008,,[],[],[],[],[],[],[],0.4008,1,300.118,300.618,,,,,,1189,FEM,DIS,150,tabla,el,a,300.6182,300.6183,0.145370399,-0.245370399,0,0,0,,0,66,66,288,1,,,,
,,,,,,b5f84ff84a7124e70db144ef,66a626ef09d4e21e1a8894ec,6734a00ebcb39f4fbecb8c26,2024-11-13_06h49.35.818,Tarea de género gramatical,2024.2.2,Win32,59.88023952,,,,,,,,,,,,,,,,,,,,,,,300.6204,301.7833,a,1,0.4851,,[],[],[],[],[],[],[],0.4851,1,301.7834,302.2826,,,,,,1228,MAS,DIS,150,asunto,la,l,302.2827,302.2828,0.145370399,-0.245370399,0,0,0,,0,67,67,327,1,,,,
,,,,,,b5f84ff84a7124e70db144ef,66a626ef09d4e21e1a8894ec,6734a00ebcb39f4fbecb8c26,2024-11-13_06h49.35.818,Tarea de género gramatical,2024.2.2,Win32,59.88023952,,,,,,,,,,,,,,,,,,,,,,,302.2845,303.3986,l,1,0.4345,,[],[],[],[],[],[],[],0.4345,1,303.3986,303.8985,,,,,,1035,FEM,CON,150,raíz,,a,303.8986,303.8988,0.145370399,-0.245370399,0,0,0,,0,68,68,134,1,,,,
,,,,,,b5f84ff84a7124e70db144ef,66a626ef09d4e21e1a8894ec,6734a00ebcb39f4fbecb8c26,2024-11-13_06h49.35.818,Tarea de género gramatical,2024.2.2,Win32,59.88023952,,,,,,,,,,,,,,,,,,,,,,,303.9004,305.2136,a,1,0.6343,,[],[],[],[],[],[],[],0.6343,1,305.2137,305.7136,,,,,,1030,MAS,DIS,150,yate,la,l,305.7159,305.7179,0.145370399,-0.245370399,0,0,0,,0,69,69,129,1,,,,
,,,,,,b5f84ff84a7124e70db144ef,66a626ef09d4e21e1a8894ec,6734a00ebcb39f4fbecb8c26,2024-11-13_06h49.35.818,Tarea de género gramatical,2024.2.2,Win32,59.88023952,,,,,,,,,,,,,,,,,,,,,,,305.7189,306.9955,a,1,0.6055,,[],[],[],[],[],[],[],0.6055,1,306.9956,307.4955,,,,,,1252,MAS,DIS,150,estilo,la,l,307.4956,307.4957,0.145370399,-0.245370399,0,0,0,,0,70,70,351,1,,,,
,,,,,,b5f84ff84a7124e70db144ef,66a626ef09d4e21e1a8894ec,6734a00ebcb39f4fbecb8c26,2024-11-13_06h49.35.818,Tarea de género gramatical,2024.2.2,Win32,59.88023952,,,,,,,,,,,,,,,,,,,,,,,307.4988,308.6611,a,1,0.4847,,[],[],[],[],[],[],[],0.4847,1,308.6612,309.1607,,,,,,1110,MAS,CON,150,baile,,l,309.1607,309.1609,0.145370399,-0.245370399,0,0,0,,0,71,71,209,1,,,,
,,,,,,b5f84ff84a7124e70db144ef,66a626ef09d4e21e1a8894ec,6734a00ebcb39f4fbecb8c26,2024-11-13_06h49.35.818,Tarea de género gramatical,2024.2.2,Win32,59.88023952,,,,,,,,,,,,,,,,,,,,,,,309.1625,310.3595,l,1,0.5188,,[],[],[],[],[],[],[],0.5188,1,310.3597,310.8593,,,,,,908,FEM,AGR,150,idea,la,a,310.8593,310.8594,0.145370399,-0.245370399,0,0,0,,0,72,72,7,1,,,,
,,,,,,b5f84ff84a7124e70db144ef,66a626ef09d4e21e1a8894ec,6734a00ebcb39f4fbecb8c26,2024-11-13_06h49.35.818,Tarea de género gramatical,2024.2.2,Win32,59.88023952,,,,,,,,,,,,,,,,,,,,,,,310.8611,311.992,a,1,0.4575,,[],[],[],[],[],[],[],0.4575,1,311.9921,312.4918,,,,,,1270,MAS,DIS,150,seguro,la,l,312.4919,312.492,0.145370399,-0.245370399,0,0,0,,0,73,73,369,1,,,,
,,,,,,b5f84ff84a7124e70db144ef,66a626ef09d4e21e1a8894ec,6734a00ebcb39f4fbecb8c26,2024-11-13_06h49.35.818,Tarea de género gramatical,2024.2.2,Win32,59.88023952,,,,,,,,,,,,,,,,,,,,,,,312.4929,313.557,a,0,0.3873,,[],[],[],[],[],[],[],0.3873,0,313.5579,314.0566,,,,,,1327,FEM,DIS,150,agenda,el,a,314.0584,314.0602,0.145370399,-0.245370399,0,0,0,,0,74,74,426,1,,,,
,,,,,,b5f84ff84a7124e70db144ef,66a626ef09d4e21e1a8894ec,6734a00ebcb39f4fbecb8c26,2024-11-13_06h49.35.818,Tarea de género gramatical,2024.2.2,Win32,59.88023952,,,,,,,,,,,,,,,,,,,,,,,314.0616,315.1448,l,1,0.4155,,[],[],[],[],[],[],[],0.4155,1,315.1458,315.6443,,,,,,932,FEM,AGR,150,caja,la,a,315.6444,315.6445,0.145370399,-0.245370399,0,0,0,,0,75,75,31,1,,,,
,,,,,,b5f84ff84a7124e70db144ef,66a626ef09d4e21e1a8894ec,6734a00ebcb39f4fbecb8c26,2024-11-13_06h49.35.818,Tarea de género gramatical,2024.2.2,Win32,59.88023952,,,,,,,,,,,,,,,,,,,,,,,315.6461,316.8109,a,1,0.4836,,[],[],[],[],[],[],[],0.4836,1,316.8111,317.3042,,,,,,1120,MAS,DIS,150,huevo,la,l,317.3043,317.3046,0.145370399,-0.245370399,0,0,0,,0,76,76,219,1,,,,
,,,,,,b5f84ff84a7124e70db144ef,66a626ef09d4e21e1a8894ec,6734a00ebcb39f4fbecb8c26,2024-11-13_06h49.35.818,Tarea de género gramatical,2024.2.2,Win32,59.88023952,,,,,,,,,,,,,,,,,,,,,,,317.306,318.3939,l,1,0.4017,,[],[],[],[],[],[],[],0.4017,1,318.3942,318.8862,,,,,,1232,FEM,AGR,150,basura,la,a,318.8863,318.8864,0.145370399,-0.245370399,0,0,0,,0,77,77,331,1,,,,
,,,,,,b5f84ff84a7124e70db144ef,66a626ef09d4e21e1a8894ec,6734a00ebcb39f4fbecb8c26,2024-11-13_06h49.35.818,Tarea de género gramatical,2024.2.2,Win32,59.88023952,,,,,,,,,,,,,,,,,,,,,,,318.8882,320.043,a,1,0.4849,,[],[],[],[],[],[],[],0.4849,1,320.0433,320.5408,,,,,,1205,MAS,AGR,150,hombre,el,l,320.5422,320.5435,0.145370399,-0.245370399,0,0,0,,0,78,78,304,1,,,,
,,,,,,b5f84ff84a7124e70db144ef,66a626ef09d4e21e1a8894ec,6734a00ebcb39f4fbecb8c26,2024-11-13_06h49.35.818,Tarea de género gramatical,2024.2.2,Win32,59.88023952,,,,,,,,,,,,,,,,,,,,,,,320.5442,322.1722,a,1,0.9497,,[],[],[],[],[],[],[],0.9497,1,322.1723,322.6662,,,,,,1156,MAS,DIS,150,techo,la,l,322.6663,322.6663,0.145370399,-0.245370399,0,0,0,,0,79,79,255,1,,,,
,,,,,,b5f84ff84a7124e70db144ef,66a626ef09d4e21e1a8894ec,6734a00ebcb39f4fbecb8c26,2024-11-13_06h49.35.818,Tarea de género gramatical,2024.2.2,Win32,59.88023952,,,,,,,,,,,,,,,,,,,,,,,322.6679,323.8395,a,1,0.4991,,[],[],[],[],[],[],[],0.4991,1,323.8397,324.3312,,,,,,1193,MAS,AGR,150,patio,el,l,324.3312,324.3314,0.145370399,-0.245370399,0,0,0,,0,80,80,292,1,,,,
,,,,,,b5f84ff84a7124e70db144ef,66a626ef09d4e21e1a8894ec,6734a00ebcb39f4fbecb8c26,2024-11-13_06h49.35.818,Tarea de género gramatical,2024.2.2,Win32,59.88023952,,,,,,,,,,,,,,,,,,,,,,,324.3328,325.5729,l,1,0.5676,,[],[],[],[],[],[],[],0.5676,1,325.5731,326.0676,,,,,,1262,FEM,AGR,150,fuente,la,a,326.0677,326.0679,0.145370399,-0.245370399,0,0,0,,0,81,81,361,1,,,,
,,,,,,b5f84ff84a7124e70db144ef,66a626ef09d4e21e1a8894ec,6734a00ebcb39f4fbecb8c26,2024-11-13_06h49.35.818,Tarea de género gramatical,2024.2.2,Win32,59.88023952,,,,,,,,,,,,,,,,,,,,,,,326.0694,327.4624,l,1,0.7098,,[],[],[],[],[],[],[],0.7098,1,327.4626,327.9516,,,,,,986,FEM,AGR,150,cruz,la,a,327.9517,327.9518,0.145370399,-0.245370399,0,0,0,,0,82,82,85,1,,,,
,,,,,,b5f84ff84a7124e70db144ef,66a626ef09d4e21e1a8894ec,6734a00ebcb39f4fbecb8c26,2024-11-13_06h49.35.818,Tarea de género gramatical,2024.2.2,Win32,59.88023952,,,,,,,,,,,,,,,,,,,,,,,327.9535,329.1845,l,1,0.5513,,[],[],[],[],[],[],[],0.5513,1,329.1847,329.6827,,,,,,1148,FEM,AGR,150,letra,la,a,329.6842,329.6856,0.145370399,-0.245370399,0,0,0,,0,83,83,247,1,,,,
,,,,,,b5f84ff84a7124e70db144ef,66a626ef09d4e21e1a8894ec,6734a00ebcb39f4fbecb8c26,2024-11-13_06h49.35.818,Tarea de género gramatical,2024.2.2,Win32,59.88023952,,,,,,,,,,,,,,,,,,,,,,,329.6865,330.7334,l,1,0.3848,,[],[],[],[],[],[],[],0.3848,1,330.7336,331.2261,,,,,,980,FEM,AGR,150,vaca,la,a,331.2262,331.2262,0.145370399,-0.245370399,0,0,0,,0,84,84,79,1,,,,
,,,,,,b5f84ff84a7124e70db144ef,66a626ef09d4e21e1a8894ec,6734a00ebcb39f4fbecb8c26,2024-11-13_06h49.35.818,Tarea de género gramatical,2024.2.2,Win32,59.88023952,,,,,,,,,,,,,,,,,,,,,,,331.228,332.348,l,1,0.4341,,[],[],[],[],[],[],[],0.4341,1,332.3481,332.8415,,,,,,1298,FEM,AGR,150,hierba,la,a,332.8416,332.8417,0.145370399,-0.245370399,0,0,0,,0,85,85,397,1,,,,
,,,,,,b5f84ff84a7124e70db144ef,66a626ef09d4e21e1a8894ec,6734a00ebcb39f4fbecb8c26,2024-11-13_06h49.35.818,Tarea de género gramatical,2024.2.2,Win32,59.88023952,,,,,,,,,,,,,,,,,,,,,,,332.8433,333.9071,l,1,0.3683,,[],[],[],[],[],[],[],0.3683,1,333.9073,334.4128,,,,,,1196,FEM,AGR,150,feria,la,a,334.4128,334.4129,0.145370399,-0.245370399,0,0,0,,0,86,86,295,1,,,,
,,,,,,b5f84ff84a7124e70db144ef,66a626ef09d4e21e1a8894ec,6734a00ebcb39f4fbecb8c26,2024-11-13_06h49.35.818,Tarea de género gramatical,2024.2.2,Win32,59.88023952,,,,,,,,,,,,,,,,,,,,,,,334.4143,335.389,l,1,0.3046,,[],[],[],[],[],[],[],0.3046,1,335.3891,335.8951,,,,,,1243,FEM,DIS,150,trampa,el,a,335.8974,335.8987,0.145370399,-0.245370399,0,0,0,,0,87,87,342,1,,,,
,,,,,,b5f84ff84a7124e70db144ef,66a626ef09d4e21e1a8894ec,6734a00ebcb39f4fbecb8c26,2024-11-13_06h49.35.818,Tarea de género gramatical,2024.2.2,Win32,59.88023952,,,,,,,,,,,,,,,,,,,,,,,335.8995,336.9766,a,1,0.4002,,[],[],[],[],[],[],[],0.4002,1,336.9768,337.4761,,,,,,1348,MAS,DIS,150,aceite,la,l,337.4761,337.4762,0.145370399,-0.245370399,0,0,0,,0,88,88,447,1,,,,
,,,,,,b5f84ff84a7124e70db144ef,66a626ef09d4e21e1a8894ec,6734a00ebcb39f4fbecb8c26,2024-11-13_06h49.35.818,Tarea de género gramatical,2024.2.2,Win32,59.88023952,,,,,,,,,,,,,,,,,,,,,,,337.4774,338.8757,l,1,0.7171,,[],[],[],[],[],[],[],0.7171,1,338.876,339.3761,,,,,,1075,FEM,DIS,150,señal,el,a,339.3761,339.3762,0.145370399,-0.245370399,0,0,0,,0,89,89,174,1,,,,
,,,,,,b5f84ff84a7124e70db144ef,66a626ef09d4e21e1a8894ec,6734a00ebcb39f4fbecb8c26,2024-11-13_06h49.35.818,Tarea de género gramatical,2024.2.2,Win32,59.88023952,,,,,,,,,,,,,,,,,,,,,,,339.3779,340.5584,a,1,0.5094,,[],[],[],[],[],[],[],0.5094,1,340.5585,341.0572,,,,,,1128,MAS,CON,150,nivel,,l,341.0573,341.0575,0.145370399,-0.245370399,0,0,0,,0,90,90,227,1,,,,
,,,,,,b5f84ff84a7124e70db144ef,66a626ef09d4e21e1a8894ec,6734a00ebcb39f4fbecb8c26,2024-11-13_06h49.35.818,Tarea de género gramatical,2024.2.2,Win32,59.88023952,,,,,,,,,,,,,,,,,,,,,,,341.059,342.8393,a,1,1.1156,,[],[],[],[],[],[],[],1.1156,1,342.8394,343.3386,,,,,,1140,MAS,CON,150,ruido,,l,343.3386,343.3388,0.145370399,-0.245370399,0,0,0,,0,91,91,239,1,,,,
,,,,,,b5f84ff84a7124e70db144ef,66a626ef09d4e21e1a8894ec,6734a00ebcb39f4fbecb8c26,2024-11-13_06h49.35.818,Tarea de género gramatical,2024.2.2,Win32,59.88023952,,,,,,,,,,,,,,,,,,,,,,,343.3414,344.5392,a,1,0.528,,[],[],[],[],[],[],[],0.528,1,344.5394,345.0375,,,,,,1206,MAS,CON,150,dinero,,l,345.0387,345.0399,0.145370399,-0.245370399,0,0,0,,0,92,92,305,1,,,,
,,,,,,b5f84ff84a7124e70db144ef,66a626ef09d4e21e1a8894ec,6734a00ebcb39f4fbecb8c26,2024-11-13_06h49.35.818,Tarea de género gramatical,2024.2.2,Win32,59.88023952,,,,,,,,,,,,,,,,,,,,,,,345.0406,346.1637,a,1,0.4566,,[],[],[],[],[],[],[],0.4566,1,346.164,346.6687,,,,,,1188,MAS,CON,150,grado,,l,346.6688,346.669,0.145370399,-0.245370399,0,0,0,,0,93,93,287,1,,,,
,,,,,,b5f84ff84a7124e70db144ef,66a626ef09d4e21e1a8894ec,6734a00ebcb39f4fbecb8c26,2024-11-13_06h49.35.818,Tarea de género gramatical,2024.2.2,Win32,59.88023952,,,,,,,,,,,,,,,,,,,,,,,346.671,347.7857,a,1,0.4444,,[],[],[],[],[],[],[],0.4444,1,347.7859,348.2865,,,,,,1050,MAS,CON,150,mozo,,l,348.2867,348.287,0.145370399,-0.245370399,0,0,0,,0,94,94,149,1,,,,
,,,,,,b5f84ff84a7124e70db144ef,66a626ef09d4e21e1a8894ec,6734a00ebcb39f4fbecb8c26,2024-11-13_06h49.35.818,Tarea de género gramatical,2024.2.2,Win32,59.88023952,,,,,,,,,,,,,,,,,,,,,,,348.2884,349.5684,a,1,0.601,,[],[],[],[],[],[],[],0.601,1,349.5685,350.0609,,,,,,1272,MAS,CON,150,delito,,l,350.061,350.0613,0.145370399,-0.245370399,0,0,0,,0,95,95,371,1,,,,
,,,,,,b5f84ff84a7124e70db144ef,66a626ef09d4e21e1a8894ec,6734a00ebcb39f4fbecb8c26,2024-11-13_06h49.35.818,Tarea de género gramatical,2024.2.2,Win32,59.88023952,,,,,,,,,,,,,,,,,,,,,,,350.0633,351.1005,a,1,0.3612,,[],[],[],[],[],[],[],0.3612,1,351.1007,351.5993,,,,,,904,MAS,DIS,150,hijo,la,l,351.6013,351.6029,0.145370399,-0.245370399,0,0,0,,0,96,96,3,1,,,,
,,,,,,b5f84ff84a7124e70db144ef,66a626ef09d4e21e1a8894ec,6734a00ebcb39f4fbecb8c26,2024-11-13_06h49.35.818,Tarea de género gramatical,2024.2.2,Win32,59.88023952,,,,,,,,,,,,,,,,,,,,,,,351.6038,352.8579,l,1,0.5722,,[],[],[],[],[],[],[],0.5722,1,352.858,353.3471,,,,,,1093,FEM,DIS,150,bolsa,el,a,353.3473,353.3476,0.145370399,-0.245370399,0,0,0,,0,97,97,192,1,,,,
,,,,,,b5f84ff84a7124e70db144ef,66a626ef09d4e21e1a8894ec,6734a00ebcb39f4fbecb8c26,2024-11-13_06h49.35.818,Tarea de género gramatical,2024.2.2,Win32,59.88023952,,,,,,,,,,,,,,,,,,,,,,,353.3497,354.3638,l,1,0.3356,,[],[],[],[],[],[],[],0.3356,1,354.3639,354.8569,,,,,,1053,FEM,CON,150,mujer,,a,354.857,354.8572,0.145370399,-0.245370399,0,0,0,,0,98,98,152,1,,,,
,,,,,,b5f84ff84a7124e70db144ef,66a626ef09d4e21e1a8894ec,6734a00ebcb39f4fbecb8c26,2024-11-13_06h49.35.818,Tarea de género gramatical,2024.2.2,Win32,59.88023952,,,,,,,,,,,,,,,,,,,,,,,354.8589,355.9129,l,1,0.3851,,[],[],[],[],[],[],[],0.3851,1,355.9131,356.4052,,,,,,969,FEM,CON,150,rata,,a,356.4053,356.4055,0.145370399,-0.245370399,0,0,0,,0,99,99,68,1,,,,
,,,,,,b5f84ff84a7124e70db144ef,66a626ef09d4e21e1a8894ec,6734a00ebcb39f4fbecb8c26,2024-11-13_06h49.35.818,Tarea de género gramatical,2024.2.2,Win32,59.88023952,,,,,,,,,,,,,,,,,,,,,,,356.4074,357.9871,l,1,0.92,,[],[],[],[],[],[],[],0.92,1,357.9873,358.4763,,,,,,1250,FEM,AGR,150,imagen,la,a,358.4764,358.4767,0.145370399,-0.245370399,0,0,0,,0,100,100,349,1,,,,
,,,,,,b5f84ff84a7124e70db144ef,66a626ef09d4e21e1a8894ec,6734a00ebcb39f4fbecb8c26,2024-11-13_06h49.35.818,Tarea de género gramatical,2024.2.2,Win32,59.88023952,,,,,,,,,,,,,,,,,,,,,,,358.4787,359.7588,l,1,0.6169,,[],[],[],[],[],[],[],0.6169,1,359.7589,360.2526,,,,,,1077,FEM,CON,150,broma,,a,360.2561,360.259,0.145370399,-0.245370399,0,0,0,,0,101,101,176,1,,,,
,,,,,,b5f84ff84a7124e70db144ef,66a626ef09d4e21e1a8894ec,6734a00ebcb39f4fbecb8c26,2024-11-13_06h49.35.818,Tarea de género gramatical,2024.2.2,Win32,59.88023952,,,,,,,,,,,,,,,,,,,,,,,360.2604,361.5746,a,1,0.6429,,[],[],[],[],[],[],[],0.6429,1,361.5747,362.0674,,,,,,1284,MAS,CON,150,pedazo,,l,362.0674,362.0677,0.145370399,-0.245370399,0,0,0,,0,102,102,383,1,,,,
,,,,,,b5f84ff84a7124e70db144ef,66a626ef09d4e21e1a8894ec,6734a00ebcb39f4fbecb8c26,2024-11-13_06h49.35.818,Tarea de género gramatical,2024.2.2,Win32,59.88023952,,,,,,,,,,,,,,,,,,,,,,,362.069,363.0999,l,1,0.3594,,[],[],[],[],[],[],[],0.3594,1,363.1002,363.6043,,,,,,1131,FEM,CON,150,bruja,,a,363.6044,363.6046,0.145370399,-0.245370399,0,0,0,,0,103,103,230,1,,,,
,,,,,,b5f84ff84a7124e70db144ef,66a626ef09d4e21e1a8894ec,6734a00ebcb39f4fbecb8c26,2024-11-13_06h49.35.818,Tarea de género gramatical,2024.2.2,Win32,59.88023952,,,,,,,,,,,,,,,,,,,,,,,363.6063,364.7385,l,1,0.4511,,[],[],[],[],[],[],[],0.4511,1,364.7386,365.2315,,,,,,1280,FEM,AGR,150,madera,la,a,365.2316,365.2317,0.145370399,-0.245370399,0,0,0,,0,104,104,379,1,,,,
,,,,,,b5f84ff84a7124e70db144ef,66a626ef09d4e21e1a8894ec,6734a00ebcb39f4fbecb8c26,2024-11-13_06h49.35.818,Tarea de género gramatical,2024.2.2,Win32,59.88023952,,,,,,,,,,,,,,,,,,,,,,,365.2334,366.2854,l,1,0.3799,,[],[],[],[],[],[],[],0.3799,1,366.2855,366.7807,,,,,,1011,FEM,CON,150,goma,,a,366.7824,366.784,0.145370399,-0.245370399,0,0,0,,0,105,105,110,1,,,,
,,,,,,b5f84ff84a7124e70db144ef,66a626ef09d4e21e1a8894ec,6734a00ebcb39f4fbecb8c26,2024-11-13_06h49.35.818,Tarea de género gramatical,2024.2.2,Win32,59.88023952,,,,,,,,,,,,,,,,,,,,,,,366.7852,368.0038,a,1,0.5526,,[],[],[],[],[],[],[],0.5526,1,368.0039,368.4951,,,,,,1036,MAS,DIS,150,vago,la,l,368.4953,368.4957,0.145370399,-0.245370399,0,0,0,,0,106,106,135,1,,,,
,,,,,,b5f84ff84a7124e70db144ef,66a626ef09d4e21e1a8894ec,6734a00ebcb39f4fbecb8c26,2024-11-13_06h49.35.818,Tarea de género gramatical,2024.2.2,Win32,59.88023952,,,,,,,,,,,,,,,,,,,,,,,368.4975,369.7279,l,1,0.5538,,[],[],[],[],[],[],[],0.5538,1,369.7281,370.2168,,,,,,1057,FEM,DIS,150,madre,el,a,370.2168,370.217,0.145370399,-0.245370399,0,0,0,,0,107,107,156,1,,,,
,,,,,,b5f84ff84a7124e70db144ef,66a626ef09d4e21e1a8894ec,6734a00ebcb39f4fbecb8c26,2024-11-13_06h49.35.818,Tarea de género gramatical,2024.2.2,Win32,59.88023952,,,,,,,,,,,,,,,,,,,,,,,370.2185,371.4815,a,1,0.5843,,[],[],[],[],[],[],[],0.5843,1,371.4816,371.9823,,,,,,982,MAS,DIS,150,tubo,la,l,371.9823,371.9826,0.145370399,-0.245370399,0,0,0,,0,108,108,81,1,,,,
,,,,,,b5f84ff84a7124e70db144ef,66a626ef09d4e21e1a8894ec,6734a00ebcb39f4fbecb8c26,2024-11-13_06h49.35.818,Tarea de género gramatical,2024.2.2,Win32,59.88023952,,,,,,,,,,,,,,,,,,,,,,,371.9849,373.1785,a,1,0.5285,,[],[],[],[],[],[],[],0.5285,1,373.1787,373.6796,,,,,,1200,MAS,CON,150,túnel,,l,373.6797,373.6798,0.145370399,-0.245370399,0,0,0,,0,109,109,299,1,,,,
,,,,,,b5f84ff84a7124e70db144ef,66a626ef09d4e21e1a8894ec,6734a00ebcb39f4fbecb8c26,2024-11-13_06h49.35.818,Tarea de género gramatical,2024.2.2,Win32,59.88023952,,,,,,,,,,,,,,,,,,,,,,,373.681,374.907,l,1,0.5405,,[],[],[],[],[],[],[],0.5405,1,374.9072,375.4116,,,,,,938,FEM,AGR,150,obra,la,a,375.413,375.4142,0.145370399,-0.245370399,0,0,0,,0,110,110,37,1,,,,
,,,,,,b5f84ff84a7124e70db144ef,66a626ef09d4e21e1a8894ec,6734a00ebcb39f4fbecb8c26,2024-11-13_06h49.35.818,Tarea de género gramatical,2024.2.2,Win32,59.88023952,,,,,,,,,,,,,,,,,,,,,,,375.415,376.5789,a,1,0.4949,,[],[],[],[],[],[],[],0.4949,1,376.5789,377.0778,,,,,,989,MAS,AGR,150,maíz,el,l,377.0778,377.078,0.145370399,-0.245370399,0,0,0,,0,111,111,88,1,,,,
,,,,,,b5f84ff84a7124e70db144ef,66a626ef09d4e21e1a8894ec,6734a00ebcb39f4fbecb8c26,2024-11-13_06h49.35.818,Tarea de género gramatical,2024.2.2,Win32,59.88023952,,,,,,,,,,,,,,,,,,,,,,,377.0801,378.3447,l,1,0.5955,,[],[],[],[],[],[],[],0.5955,1,378.3448,378.8368,,,,,,945,FEM,CON,150,isla,,a,378.8369,378.8371,0.145370399,-0.245370399,0,0,0,,0,112,112,44,1,,,,
,,,,,,b5f84ff84a7124e70db144ef,66a626ef09d4e21e1a8894ec,6734a00ebcb39f4fbecb8c26,2024-11-13_06h49.35.818,Tarea de género gramatical,2024.2.2,Win32,59.88023952,,,,,,,,,,,,,,,,,,,,,,,378.8387,380.0083,a,1,0.4977,,[],[],[],[],[],[],[],0.4977,1,380.0084,380.5084,,,,,,990,MAS,CON,150,león,,l,380.5085,380.5086,0.145370399,-0.245370399,0,0,0,,0,113,113,89,1,,,,
,,,,,,b5f84ff84a7124e70db144ef,66a626ef09d4e21e1a8894ec,6734a00ebcb39f4fbecb8c26,2024-11-13_06h49.35.818,Tarea de género gramatical,2024.2.2,Win32,59.88023952,,,,,,,,,,,,,,,,,,,,,,,380.5102,381.6586,l,1,0.4846,,[],[],[],[],[],[],[],0.4846,1,381.6588,382.1572,,,,,,1333,FEM,DIS,150,huella,el,a,382.1592,382.1606,0.145370399,-0.245370399,0,0,0,,0,114,114,432,1,,,,
,,,,,,b5f84ff84a7124e70db144ef,66a626ef09d4e21e1a8894ec,6734a00ebcb39f4fbecb8c26,2024-11-13_06h49.35.818,Tarea de género gramatical,2024.2.2,Win32,59.88023952,,,,,,,,,,,,,,,,,,,,,,,382.1616,383.2995,l,1,0.4673,,[],[],[],[],[],[],[],0.4673,1,383.2995,383.8061,,,,,,913,FEM,DIS,150,hija,el,a,383.8062,383.8064,0.145370399,-0.245370399,0,0,0,,0,115,115,12,1,,,,
,,,,,,b5f84ff84a7124e70db144ef,66a626ef09d4e21e1a8894ec,6734a00ebcb39f4fbecb8c26,2024-11-13_06h49.35.818,Tarea de género gramatical,2024.2.2,Win32,59.88023952,,,,,,,,,,,,,,,,,,,,,,,383.8085,384.9054,l,1,0.4178,,[],[],[],[],[],[],[],0.4178,1,384.9055,385.4048,,,,,,1161,FEM,CON,150,cueva,,a,385.4048,385.405,0.145370399,-0.245370399,0,0,0,,0,116,116,260,1,,,,
,,,,,,b5f84ff84a7124e70db144ef,66a626ef09d4e21e1a8894ec,6734a00ebcb39f4fbecb8c26,2024-11-13_06h49.35.818,Tarea de género gramatical,2024.2.2,Win32,59.88023952,,,,,,,,,,,,,,,,,,,,,,,385.4072,386.4353,l,1,0.3488,,[],[],[],[],[],[],[],0.3488,1,386.4355,386.9364,,,,,,1034,FEM,AGR,150,rama,la,a,386.9365,386.9368,0.145370399,-0.245370399,0,0,0,,0,117,117,133,1,,,,
,,,,,,b5f84ff84a7124e70db144ef,66a626ef09d4e21e1a8894ec,6734a00ebcb39f4fbecb8c26,2024-11-13_06h49.35.818,Tarea de género gramatical,2024.2.2,Win32,59.88023952,,,,,,,,,,,,,,,,,,,,,,,386.9385,388.0524,a,1,0.4351,,[],[],[],[],[],[],[],0.4351,1,388.0525,388.5521,,,,,,1080,MAS,CON,150,fuego,,l,388.5522,388.5524,0.145370399,-0.245370399,0,0,0,,0,118,118,179,1,,,,
,,,,,,b5f84ff84a7124e70db144ef,66a626ef09d4e21e1a8894ec,6734a00ebcb39f4fbecb8c26,2024-11-13_06h49.35.818,Tarea de género gramatical,2024.2.2,Win32,59.88023952,,,,,,,,,,,,,,,,,,,,,,,388.5538,389.6854,l,1,0.4513,,[],[],[],[],[],[],[],0.4513,1,389.6855,390.1833,,,,,,1070,FEM,AGR,150,carta,la,a,390.1854,390.1875,0.145370399,-0.245370399,0,0,0,,0,119,119,169,1,,,,
,,,,,,b5f84ff84a7124e70db144ef,66a626ef09d4e21e1a8894ec,6734a00ebcb39f4fbecb8c26,2024-11-13_06h49.35.818,Tarea de género gramatical,2024.2.2,Win32,59.88023952,,,,,,,,,,,,,,,,,,,,,,,390.1886,391.2431,a,1,0.3751,,[],[],[],[],[],[],[],0.3751,1,391.2432,391.7324,,,,,,953,MAS,AGR,150,vaso,el,l,391.7325,391.7326,0.145370399,-0.245370399,0,0,0,,0,120,120,52,1,,,,
,,,,,,b5f84ff84a7124e70db144ef,66a626ef09d4e21e1a8894ec,6734a00ebcb39f4fbecb8c26,2024-11-13_06h49.35.818,Tarea de género gramatical,2024.2.2,Win32,59.88023952,,,,,,,,,,,,,,,,,,,,,,,391.7345,392.8008,l,1,0.3865,,[],[],[],[],[],[],[],0.3865,1,392.801,393.2916,,,,,,1317,FEM,CON,150,cabaña,,a,393.2917,393.2919,0.145370399,-0.245370399,0,0,0,,0,121,121,416,1,,,,
,,,,,,b5f84ff84a7124e70db144ef,66a626ef09d4e21e1a8894ec,6734a00ebcb39f4fbecb8c26,2024-11-13_06h49.35.818,Tarea de género gramatical,2024.2.2,Win32,59.88023952,,,,,,,,,,,,,,,,,,,,,,,393.2936,394.3313,l,1,0.3516,,[],[],[],[],[],[],[],0.3516,1,394.3314,394.8293,,,,,,915,FEM,CON,150,cama,,a,394.8293,394.8295,0.145370399,-0.245370399,0,0,0,,0,122,122,14,1,,,,
,,,,,,b5f84ff84a7124e70db144ef,66a626ef09d4e21e1a8894ec,6734a00ebcb39f4fbecb8c26,2024-11-13_06h49.35.818,Tarea de género gramatical,2024.2.2,Win32,59.88023952,,,,,,,,,,,,,,,,,,,,,,,394.8312,396.0223,a,1,0.5176,,[],[],[],[],[],[],[],0.5176,1,396.0225,396.5121,,,,,,1230,MAS,CON,150,estado,,l,396.514,396.5156,0.145370399,-0.245370399,0,0,0,,0,123,123,329,1,,,,
,,,,,,b5f84ff84a7124e70db144ef,66a626ef09d4e21e1a8894ec,6734a00ebcb39f4fbecb8c26,2024-11-13_06h49.35.818,Tarea de género gramatical,2024.2.2,Win32,59.88023952,,,,,,,,,,,,,,,,,,,,,,,396.5167,397.6781,l,1,0.4972,,[],[],[],[],[],[],[],0.4972,1,397.6782,398.1708,,,,,,1045,FEM,DIS,150,bota,el,a,398.1709,398.1711,0.145370399,-0.245370399,0,0,0,,0,124,124,144,1,,,,
,,,,,,b5f84ff84a7124e70db144ef,66a626ef09d4e21e1a8894ec,6734a00ebcb39f4fbecb8c26,2024-11-13_06h49.35.818,Tarea de género gramatical,2024.2.2,Win32,59.88023952,,,,,,,,,,,,,,,,,,,,,,,398.1725,399.3268,a,1,0.4844,,[],[],[],[],[],[],[],0.4844,1,399.3272,399.8242,,,,,,1259,MAS,AGR,150,bosque,el,l,399.8243,399.8246,0.145370399,-0.245370399,0,0,0,,0,125,125,358,1,,,,
,,,,,,b5f84ff84a7124e70db144ef,66a626ef09d4e21e1a8894ec,6734a00ebcb39f4fbecb8c26,2024-11-13_06h49.35.818,Tarea de género gramatical,2024.2.2,Win32,59.88023952,,,,,,,,,,,,,,,,,,,,,,,399.8262,401.1424,a,1,0.6345,,[],[],[],[],[],[],[],0.6345,1,401.1426,401.6406,,,,,,1109,MAS,AGR,150,banco,el,l,401.6407,401.6408,0.145370399,-0.245370399,0,0,0,,0,126,126,208,1,,,,
,,,,,,b5f84ff84a7124e70db144ef,66a626ef09d4e21e1a8894ec,6734a00ebcb39f4fbecb8c26,2024-11-13_06h49.35.818,Tarea de género gramatical,2024.2.2,Win32,59.88023952,,,,,,,,,,,,,,,,,,,,,,,401.6423,402.7078,l,1,0.385,,[],[],[],[],[],[],[],0.385,1,402.7079,403.2002,,,,,,1094,FEM,AGR,150,banda,la,a,403.2003,403.2004,0.145370399,-0.245370399,0,0,0,,0,127,127,193,1,,,,
,,,,,,b5f84ff84a7124e70db144ef,66a626ef09d4e21e1a8894ec,6734a00ebcb39f4fbecb8c26,2024-11-13_06h49.35.818,Tarea de género gramatical,2024.2.2,Win32,59.88023952,,,,,,,,,,,,,,,,,,,,,,,403.2021,404.7222,l,1,0.834,,[],[],[],[],[],[],[],0.834,1,404.7222,405.2193,,,,,,1099,FEM,DIS,150,nariz,el,a,405.2221,405.2239,0.145370399,-0.245370399,0,0,0,,0,128,128,198,1,,,,
,,,,,,b5f84ff84a7124e70db144ef,66a626ef09d4e21e1a8894ec,6734a00ebcb39f4fbecb8c26,2024-11-13_06h49.35.818,Tarea de género gramatical,2024.2.2,Win32,59.88023952,,,,,,,,,,,,,,,,,,,,,,,405.2251,406.2209,l,1,0.3174,,[],[],[],[],[],[],[],0.3174,1,406.2211,406.7207,,,,,,931,FEM,DIS,150,edad,el,a,406.7208,406.7209,0.145370399,-0.245370399,0,0,0,,0,129,129,30,1,,,,
,,,,,,b5f84ff84a7124e70db144ef,66a626ef09d4e21e1a8894ec,6734a00ebcb39f4fbecb8c26,2024-11-13_06h49.35.818,Tarea de género gramatical,2024.2.2,Win32,59.88023952,,,,,,,,,,,,,,,,,,,,,,,406.7228,408.0688,a,1,0.6767,,[],[],[],[],[],[],[],0.6767,1,408.069,408.5626,,,,,,1138,MAS,DIS,150,norte,la,l,408.5626,408.5627,0.145370399,-0.245370399,0,0,0,,0,130,130,237,1,,,,
,,,,,,b5f84ff84a7124e70db144ef,66a626ef09d4e21e1a8894ec,6734a00ebcb39f4fbecb8c26,2024-11-13_06h49.35.818,Tarea de género gramatical,2024.2.2,Win32,59.88023952,,,,,,,,,,,,,,,,,,,,,,,408.5646,409.6017,a,1,0.3668,,[],[],[],[],[],[],[],0.3668,1,409.6018,410.1027,,,,,,1212,MAS,CON,150,equipo,,l,410.1027,410.1029,0.145370399,-0.245370399,0,0,0,,0,131,131,311,1,,,,
,,,,,,b5f84ff84a7124e70db144ef,66a626ef09d4e21e1a8894ec,6734a00ebcb39f4fbecb8c26,2024-11-13_06h49.35.818,Tarea de género gramatical,2024.2.2,Win32,59.88023952,,,,,,,,,,,,,,,,,,,,,,,410.1044,411.2506,l,1,0.4676,,[],[],[],[],[],[],[],0.4676,1,411.2507,411.7502,,,,,,1183,FEM,DIS,150,pluma,el,a,411.7517,411.7529,0.145370399,-0.245370399,0,0,0,,0,132,132,282,1,,,,
,,,,,,b5f84ff84a7124e70db144ef,66a626ef09d4e21e1a8894ec,6734a00ebcb39f4fbecb8c26,2024-11-13_06h49.35.818,Tarea de género gramatical,2024.2.2,Win32,59.88023952,,,,,,,,,,,,,,,,,,,,,,,411.7537,412.9805,l,1,0.5587,,[],[],[],[],[],[],[],0.5587,1,412.9807,413.4799,,,,,,1142,FEM,AGR,150,pizza,la,a,413.4799,413.4801,0.145370399,-0.245370399,0,0,0,,0,133,133,241,1,,,,
,,,,,,b5f84ff84a7124e70db144ef,66a626ef09d4e21e1a8894ec,6734a00ebcb39f4fbecb8c26,2024-11-13_06h49.35.818,Tarea de género gramatical,2024.2.2,Win32,59.88023952,,,,,,,,,,,,,,,,,,,,,,,413.4814,414.4812,l,1,0.3266,,[],[],[],[],[],[],[],0.3266,1,414.4814,414.9787,,,,,,968,FEM,AGR,150,pata,la,a,414.9788,414.979,0.145370399,-0.245370399,0,0,0,,0,134,134,67,1,,,,
,,,,,,b5f84ff84a7124e70db144ef,66a626ef09d4e21e1a8894ec,6734a00ebcb39f4fbecb8c26,2024-11-13_06h49.35.818,Tarea de género gramatical,2024.2.2,Win32,59.88023952,,,,,,,,,,,,,,,,,,,,,,,414.9807,416.0959,l,1,0.4532,,[],[],[],[],[],[],[],0.4532,1,416.0961,416.5957,,,,,,1219,FEM,DIS,150,sangre,el,a,416.5958,416.596,0.145370399,-0.245370399,0,0,0,,0,135,135,318,1,,,,
,,,,,,b5f84ff84a7124e70db144ef,66a626ef09d4e21e1a8894ec,6734a00ebcb39f4fbecb8c26,2024-11-13_06h49.35.818,Tarea de género gramatical,2024.2.2,Win32,59.88023952,,,,,,,,,,,,,,,,,,,,,,,416.5982,417.7106,l,1,0.4443,,[],[],[],[],[],[],[],0.4443,1,417.7107,418.2093,,,,,,1179,FEM,CON,150,selva,,a,418.2095,418.2096,0.145370399,-0.245370399,0,0,0,,0,136,136,278,1,,,,
,,,,,,b5f84ff84a7124e70db144ef,66a626ef09d4e21e1a8894ec,6734a00ebcb39f4fbecb8c26,2024-11-13_06h49.35.818,Tarea de género gramatical,2024.2.2,Win32,59.88023952,,,,,,,,,,,,,,,,,,,,,,,418.2113,419.4032,a,1,0.5088,,[],[],[],[],[],[],[],0.5088,1,419.4033,419.8928,,,,,,1121,MAS,AGR,150,brazo,el,l,419.8945,419.8961,0.145370399,-0.245370399,0,0,0,,0,137,137,220,1,,,,
,,,,,,b5f84ff84a7124e70db144ef,66a626ef09d4e21e1a8894ec,6734a00ebcb39f4fbecb8c26,2024-11-13_06h49.35.818,Tarea de género gramatical,2024.2.2,Win32,59.88023952,,,,,,,,,,,,,,,,,,,,,,,419.8972,421.0751,l,1,0.5101,,[],[],[],[],[],[],[],0.5101,1,421.0753,421.576,,,,,,1088,FEM,AGR,150,bomba,la,a,421.5761,421.5762,0.145370399,-0.245370399,0,0,0,,0,138,138,187,1,,,,
,,,,,,b5f84ff84a7124e70db144ef,66a626ef09d4e21e1a8894ec,6734a00ebcb39f4fbecb8c26,2024-11-13_06h49.35.818,Tarea de género gramatical,2024.2.2,Win32,59.88023952,,,,,,,,,,,,,,,,,,,,,,,421.5779,422.7749,a,1,0.5181,,[],[],[],[],[],[],[],0.5181,1,422.7752,423.2671,,,,,,1060,MAS,DIS,150,señor,la,l,423.2671,423.2672,0.145370399,-0.245370399,0,0,0,,0,139,139,159,1,,,,
,,,,,,b5f84ff84a7124e70db144ef,66a626ef09d4e21e1a8894ec,6734a00ebcb39f4fbecb8c26,2024-11-13_06h49.35.818,Tarea de género gramatical,2024.2.2,Win32,59.88023952,,,,,,,,,,,,,,,,,,,,,,,423.2688,424.3409,l,1,0.4134,,[],[],[],[],[],[],[],0.4134,1,424.341,424.8385,,,,,,1046,FEM,AGR,150,lana,la,a,424.8385,424.8387,0.145370399,-0.245370399,0,0,0,,0,140,140,145,1,,,,
,,,,,,b5f84ff84a7124e70db144ef,66a626ef09d4e21e1a8894ec,6734a00ebcb39f4fbecb8c26,2024-11-13_06h49.35.818,Tarea de género gramatical,2024.2.2,Win32,59.88023952,,,,,,,,,,,,,,,,,,,,,,,424.8406,425.9715,l,1,0.4619,,[],[],[],[],[],[],[],0.4619,1,425.9717,426.4684,,,,,,1339,FEM,DIS,150,toalla,el,a,426.4709,426.4726,0.145370399,-0.245370399,0,0,0,,0,141,141,438,1,,,,
,,,,,,b5f84ff84a7124e70db144ef,66a626ef09d4e21e1a8894ec,6734a00ebcb39f4fbecb8c26,2024-11-13_06h49.35.818,Tarea de género gramatical,2024.2.2,Win32,59.88023952,,,,,,,,,,,,,,,,,,,,,,,426.4735,427.589,a,1,0.4358,,[],[],[],[],[],[],[],0.4358,1,427.5891,428.0797,,,,,,996,MAS,CON,150,pato,,l,428.0798,428.08,0.145370399,-0.245370399,0,0,0,,0,142,142,95,1,,,,
,,,,,,b5f84ff84a7124e70db144ef,66a626ef09d4e21e1a8894ec,6734a00ebcb39f4fbecb8c26,2024-11-13_06h49.35.818,Tarea de género gramatical,2024.2.2,Win32,59.88023952,,,,,,,,,,,,,,,,,,,,,,,428.0817,429.5522,l,1,0.7841,,[],[],[],[],[],[],[],0.7841,1,429.5523,430.0499,,,,,,1207,FEM,DIS,150,suerte,el,a,430.0499,430.05,0.145370399,-0.245370399,0,0,0,,0,143,143,306,1,,,,
,,,,,,b5f84ff84a7124e70db144ef,66a626ef09d4e21e1a8894ec,6734a00ebcb39f4fbecb8c26,2024-11-13_06h49.35.818,Tarea de género gramatical,2024.2.2,Win32,59.88023952,,,,,,,,,,,,,,,,,,,,,,,430.0517,431.4167,a,1,0.7008,,[],[],[],[],[],[],[],0.7008,1,431.4169,431.9103,,,,,,941,MAS,AGR,150,bote,el,l,431.9104,431.9106,0.145370399,-0.245370399,0,0,0,,0,144,144,40,1,,,,
,,,,,,b5f84ff84a7124e70db144ef,66a626ef09d4e21e1a8894ec,6734a00ebcb39f4fbecb8c26,2024-11-13_06h49.35.818,Tarea de género gramatical,2024.2.2,Win32,59.88023952,,,,,,,,,,,,,,,,,,,,,,,431.9122,433.2651,a,1,0.6835,,[],[],[],[],[],[],[],0.6835,1,433.2652,433.7644,,,,,,1164,MAS,CON,150,pollo,,l,433.7644,433.7646,0.145370399,-0.245370399,0,0,0,,0,145,145,263,1,,,,
,,,,,,b5f84ff84a7124e70db144ef,66a626ef09d4e21e1a8894ec,6734a00ebcb39f4fbecb8c26,2024-11-13_06h49.35.818,Tarea de género gramatical,2024.2.2,Win32,59.88023952,,,,,,,,,,,,,,,,,,,,,,,433.7659,434.9148,l,1,0.4684,,[],[],[],[],[],[],[],0.4684,1,434.9149,435.4069,,,,,,1154,FEM,AGR,150,caída,la,a,435.4088,435.4104,0.145370399,-0.245370399,0,0,0,,0,146,146,253,1,,,,
,,,,,,b5f84ff84a7124e70db144ef,66a626ef09d4e21e1a8894ec,6734a00ebcb39f4fbecb8c26,2024-11-13_06h49.35.818,Tarea de género gramatical,2024.2.2,Win32,59.88023952,,,,,,,,,,,,,,,,,,,,,,,435.4114,436.6958,l,1,0.6288,,[],[],[],[],[],[],[],0.6288,1,436.696,437.1884,,,,,,1095,FEM,CON,150,pared,,a,437.1885,437.1887,0.145370399,-0.245370399,0,0,0,,0,147,147,194,1,,,,
,,,,,,b5f84ff84a7124e70db144ef,66a626ef09d4e21e1a8894ec,6734a00ebcb39f4fbecb8c26,2024-11-13_06h49.35.818,Tarea de género gramatical,2024.2.2,Win32,59.88023952,,,,,,,,,,,,,,,,,,,,,,,437.1901,438.2442,l,1,0.367,,[],[],[],[],[],[],[],0.367,1,438.2443,438.7419,,,,,,1112,FEM,AGR,150,cinta,la,a,438.742,438.7421,0.145370399,-0.245370399,0,0,0,,0,148,148,211,1,,,,
,,,,,,b5f84ff84a7124e70db144ef,66a626ef09d4e21e1a8894ec,6734a00ebcb39f4fbecb8c26,2024-11-13_06h49.35.818,Tarea de género gramatical,2024.2.2,Win32,59.88023952,,,,,,,,,,,,,,,,,,,,,,,438.7433,439.8867,a,1,0.4615,,[],[],[],[],[],[],[],0.4615,1,439.8869,440.3761,,,,,,1056,MAS,CON,150,amigo,,l,440.3762,440.3763,0.145370399,-0.245370399,0,0,0,,0,149,149,155,1,,,,
,,,,,,b5f84ff84a7124e70db144ef,66a626ef09d4e21e1a8894ec,6734a00ebcb39f4fbecb8c26,2024-11-13_06h49.35.818,Tarea de género gramatical,2024.2.2,Win32,59.88023952,,,,,,,,,,,,,,,,,,,,,,,440.3785,441.7744,l,0,0.7169,,[],[],[],[],[],[],[],0.7169,0,441.7759,442.2748,,,,,,1289,MAS,AGR,150,tamaño,el,l,442.2771,493.9165,0.887963019,0.5,0,0,0,space,0,150,150,388,1,51.6221,,,
,,,,,,b5f84ff84a7124e70db144ef,66a626ef09d4e21e1a8894ec,6734a00ebcb39f4fbecb8c26,2024-11-13_06h49.35.818,Tarea de género gramatical,2024.2.2,Win32,59.88023952,,,,,,,,,,,,,,,,,,,,,,,493.9201,495.0986,l,1,0.5011,,[],[],[],[],[],[],[],0.5011,1,495.1,495.5975,,,,,,1082,FEM,AGR,150,prisa,la,a,495.5976,495.5979,0.887963019,0.5,0,0,0,,0,151,151,181,1,,,,
,,,,,,b5f84ff84a7124e70db144ef,66a626ef09d4e21e1a8894ec,6734a00ebcb39f4fbecb8c26,2024-11-13_06h49.35.818,Tarea de género gramatical,2024.2.2,Win32,59.88023952,,,,,,,,,,,,,,,,,,,,,,,495.5999,496.8131,a,1,0.5413,,[],[],[],[],[],[],[],0.5413,1,496.8133,497.3062,,,,,,1073,MAS,AGR,150,libro,el,l,497.3063,497.3069,0.887963019,0.5,0,0,0,,0,152,152,172,1,,,,
,,,,,,b5f84ff84a7124e70db144ef,66a626ef09d4e21e1a8894ec,6734a00ebcb39f4fbecb8c26,2024-11-13_06h49.35.818,Tarea de género gramatical,2024.2.2,Win32,59.88023952,,,,,,,,,,,,,,,,,,,,,,,497.3083,498.5382,a,1,0.565,,[],[],[],[],[],[],[],0.565,1,498.5383,499.0382,,,,,,972,MAS,CON,150,hoyo,,l,499.0383,499.0384,0.887963019,0.5,0,0,0,,0,153,153,71,1,,,,
,,,,,,b5f84ff84a7124e70db144ef,66a626ef09d4e21e1a8894ec,6734a00ebcb39f4fbecb8c26,2024-11-13_06h49.35.818,Tarea de género gramatical,2024.2.2,Win32,59.88023952,,,,,,,,,,,,,,,,,,,,,,,499.0402,500.1104,a,1,0.41,,[],[],[],[],[],[],[],0.41,1,500.1105,500.6087,,,,,,1145,MAS,AGR,150,turno,el,l,500.6088,500.6088,0.887963019,0.5,0,0,0,,0,154,154,244,1,,,,
,,,,,,b5f84ff84a7124e70db144ef,66a626ef09d4e21e1a8894ec,6734a00ebcb39f4fbecb8c26,2024-11-13_06h49.35.818,Tarea de género gramatical,2024.2.2,Win32,59.88023952,,,,,,,,,,,,,,,,,,,,,,,500.6106,501.6923,a,1,0.4162,,[],[],[],[],[],[],[],0.4162,1,501.6924,502.1856,,,,,,1306,MAS,DIS,150,premio,la,l,502.1876,502.189,0.887963019,0.5,0,0,0,,0,155,155,405,1,,,,
,,,,,,b5f84ff84a7124e70db144ef,66a626ef09d4e21e1a8894ec,6734a00ebcb39f4fbecb8c26,2024-11-13_06h49.35.818,Tarea de género gramatical,2024.2.2,Win32,59.88023952,,,,,,,,,,,,,,,,,,,,,,,502.1898,503.401,l,1,0.535,,[],[],[],[],[],[],[],0.535,1,503.4012,503.8906,,,,,,1309,FEM,DIS,150,moneda,el,a,503.8906,503.8908,0.887963019,0.5,0,0,0,,0,156,156,408,1,,,,
,,,,,,b5f84ff84a7124e70db144ef,66a626ef09d4e21e1a8894ec,6734a00ebcb39f4fbecb8c26,2024-11-13_06h49.35.818,Tarea de género gramatical,2024.2.2,Win32,59.88023952,,,,,,,,,,,,,,,,,,,,,,,503.8927,505.1163,a,1,0.5431,,[],[],[],[],[],[],[],0.5431,1,505.1166,505.6211,,,,,,942,MAS,CON,150,show,,l,505.6211,505.6212,0.887963019,0.5,0,0,0,,0,157,157,41,1,,,,
,,,,,,b5f84ff84a7124e70db144ef,66a626ef09d4e21e1a8894ec,6734a00ebcb39f4fbecb8c26,2024-11-13_06h49.35.818,Tarea de género gramatical,2024.2.2,Win32,59.88023952,,,,,,,,,,,,,,,,,,,,,,,505.6226,506.7983,a,1,0.4923,,[],[],[],[],[],[],[],0.4923,1,506.7984,507.2989,,,,,,1186,MAS,DIS,150,reino,la,l,507.299,507.2992,0.887963019,0.5,0,0,0,,0,158,158,285,1,,,,
,,,,,,b5f84ff84a7124e70db144ef,66a626ef09d4e21e1a8894ec,6734a00ebcb39f4fbecb8c26,2024-11-13_06h49.35.818,Tarea de género gramatical,2024.2.2,Win32,59.88023952,,,,,,,,,,,,,,,,,,,,,,,507.3015,508.4802,l,1,0.5106,,[],[],[],[],[],[],[],0.5106,1,508.4803,508.9697,,,,,,1009,FEM,DIS,150,gota,el,a,508.9715,508.9731,0.887963019,0.5,0,0,0,,0,159,159,108,1,,,,
,,,,,,b5f84ff84a7124e70db144ef,66a626ef09d4e21e1a8894ec,6734a00ebcb39f4fbecb8c26,2024-11-13_06h49.35.818,Tarea de género gramatical,2024.2.2,Win32,59.88023952,,,,,,,,,,,,,,,,,,,,,,,508.9742,510.185,a,1,0.5416,,[],[],[],[],[],[],[],0.5416,1,510.1852,510.6835,,,,,,1126,MAS,DIS,150,color,la,l,510.6835,510.6837,0.887963019,0.5,0,0,0,,0,160,160,225,1,,,,
,,,,,,b5f84ff84a7124e70db144ef,66a626ef09d4e21e1a8894ec,6734a00ebcb39f4fbecb8c26,2024-11-13_06h49.35.818,Tarea de género gramatical,2024.2.2,Win32,59.88023952,,,,,,,,,,,,,,,,,,,,,,,510.6851,511.8843,l,1,0.5343,,[],[],[],[],[],[],[],0.5343,1,511.8844,512.385,,,,,,944,FEM,AGR,150,zona,la,a,512.3851,512.3852,0.887963019,0.5,0,0,0,,0,161,161,43,1,,,,
,,,,,,b5f84ff84a7124e70db144ef,66a626ef09d4e21e1a8894ec,6734a00ebcb39f4fbecb8c26,2024-11-13_06h49.35.818,Tarea de género gramatical,2024.2.2,Win32,59.88023952,,,,,,,,,,,,,,,,,,,,,,,512.3865,513.726,a,1,0.6534,,[],[],[],[],[],[],[],0.6534,1,513.7262,514.2255,,,,,,1102,MAS,DIS,150,honor,la,l,514.2256,514.2258,0.887963019,0.5,0,0,0,,0,162,162,201,1,,,,
,,,,,,b5f84ff84a7124e70db144ef,66a626ef09d4e21e1a8894ec,6734a00ebcb39f4fbecb8c26,2024-11-13_06h49.35.818,Tarea de género gramatical,2024.2.2,Win32,59.88023952,,,,,,,,,,,,,,,,,,,,,,,514.228,515.3477,l,1,0.4505,,[],[],[],[],[],[],[],0.4505,1,515.3478,515.8475,,,,,,1316,FEM,AGR,150,colina,la,a,515.8476,515.8477,0.887963019,0.5,0,0,0,,0,163,163,415,1,,,,
,,,,,,b5f84ff84a7124e70db144ef,66a626ef09d4e21e1a8894ec,6734a00ebcb39f4fbecb8c26,2024-11-13_06h49.35.818,Tarea de género gramatical,2024.2.2,Win32,59.88023952,,,,,,,,,,,,,,,,,,,,,,,515.849,517.1563,l,1,0.6246,,[],[],[],[],[],[],[],0.6246,1,517.1565,517.6457,,,,,,907,FEM,DIS,150,hora,el,a,517.6477,517.6494,0.887963019,0.5,0,0,0,,0,164,164,6,1,,,,
,,,,,,b5f84ff84a7124e70db144ef,66a626ef09d4e21e1a8894ec,6734a00ebcb39f4fbecb8c26,2024-11-13_06h49.35.818,Tarea de género gramatical,2024.2.2,Win32,59.88023952,,,,,,,,,,,,,,,,,,,,,,,517.6505,518.8114,a,1,0.4832,,[],[],[],[],[],[],[],0.4832,1,518.8115,519.3106,,,,,,984,MAS,CON,150,mago,,l,519.3107,519.3108,0.887963019,0.5,0,0,0,,0,165,165,83,1,,,,
,,,,,,b5f84ff84a7124e70db144ef,66a626ef09d4e21e1a8894ec,6734a00ebcb39f4fbecb8c26,2024-11-13_06h49.35.818,Tarea de género gramatical,2024.2.2,Win32,59.88023952,,,,,,,,,,,,,,,,,,,,,,,519.3122,520.5372,a,1,0.5425,,[],[],[],[],[],[],[],0.5425,1,520.5373,521.0444,,,,,,1012,MAS,DIS,150,reto,la,l,521.0445,521.0446,0.887963019,0.5,0,0,0,,0,166,166,111,1,,,,
,,,,,,b5f84ff84a7124e70db144ef,66a626ef09d4e21e1a8894ec,6734a00ebcb39f4fbecb8c26,2024-11-13_06h49.35.818,Tarea de género gramatical,2024.2.2,Win32,59.88023952,,,,,,,,,,,,,,,,,,,,,,,521.0464,522.1586,a,1,0.4339,,[],[],[],[],[],[],[],0.4339,1,522.1588,522.6594,,,,,,1302,MAS,CON,150,ladrón,,l,522.6594,522.6597,0.887963019,0.5,0,0,0,,0,167,167,401,1,,,,
,,,,,,b5f84ff84a7124e70db144ef,66a626ef09d4e21e1a8894ec,6734a00ebcb39f4fbecb8c26,2024-11-13_06h49.35.818,Tarea de género gramatical,2024.2.2,Win32,59.88023952,,,,,,,,,,,,,,,,,,,,,,,522.661,523.8578,a,1,0.526,,[],[],[],[],[],[],[],0.526,1,523.8578,524.3505,,,,,,1068,MAS,CON,150,sitio,,l,524.3526,524.3542,0.887963019,0.5,0,0,0,,0,168,168,167,1,,,,
,,,,,,b5f84ff84a7124e70db144ef,66a626ef09d4e21e1a8894ec,6734a00ebcb39f4fbecb8c26,2024-11-13_06h49.35.818,Tarea de género gramatical,2024.2.2,Win32,59.88023952,,,,,,,,,,,,,,,,,,,,,,,524.3554,525.6573,l,1,0.6453,,[],[],[],[],[],[],[],0.6453,1,525.6574,526.1492,,,,,,1113,FEM,CON,150,magia,,a,526.1493,526.1494,0.887963019,0.5,0,0,0,,0,169,169,212,1,,,,
,,,,,,b5f84ff84a7124e70db144ef,66a626ef09d4e21e1a8894ec,6734a00ebcb39f4fbecb8c26,2024-11-13_06h49.35.818,Tarea de género gramatical,2024.2.2,Win32,59.88023952,,,,,,,,,,,,,,,,,,,,,,,526.1514,527.3385,a,1,0.518,,[],[],[],[],[],[],[],0.518,1,527.3386,527.838,,,,,,1223,MAS,AGR,150,marido,el,l,527.8381,527.8383,0.887963019,0.5,0,0,0,,0,170,170,322,1,,,,
,,,,,,b5f84ff84a7124e70db144ef,66a626ef09d4e21e1a8894ec,6734a00ebcb39f4fbecb8c26,2024-11-13_06h49.35.818,Tarea de género gramatical,2024.2.2,Win32,59.88023952,,,,,,,,,,,,,,,,,,,,,,,527.8404,529.0041,a,1,0.494,,[],[],[],[],[],[],[],0.494,1,529.0041,529.497,,,,,,1314,MAS,CON,150,sótano,,l,529.4971,529.4975,0.887963019,0.5,0,0,0,,0,171,171,413,1,,,,
,,,,,,b5f84ff84a7124e70db144ef,66a626ef09d4e21e1a8894ec,6734a00ebcb39f4fbecb8c26,2024-11-13_06h49.35.818,Tarea de género gramatical,2024.2.2,Win32,59.88023952,,,,,,,,,,,,,,,,,,,,,,,529.4992,530.7348,l,1,0.551,,[],[],[],[],[],[],[],0.551,1,530.7349,531.2285,,,,,,1304,FEM,AGR,150,gloria,la,a,531.2286,531.2288,0.887963019,0.5,0,0,0,,0,172,172,403,1,,,,
,,,,,,b5f84ff84a7124e70db144ef,66a626ef09d4e21e1a8894ec,6734a00ebcb39f4fbecb8c26,2024-11-13_06h49.35.818,Tarea de género gramatical,2024.2.2,Win32,59.88023952,,,,,,,,,,,,,,,,,,,,,,,531.2302,532.7324,a,1,0.8338,,[],[],[],[],[],[],[],0.8338,1,532.7325,533.2318,,,,,,1072,MAS,DIS,150,poder,la,l,533.2331,533.2342,0.887963019,0.5,0,0,0,,0,173,173,171,1,,,,
,,,,,,b5f84ff84a7124e70db144ef,66a626ef09d4e21e1a8894ec,6734a00ebcb39f4fbecb8c26,2024-11-13_06h49.35.818,Tarea de género gramatical,2024.2.2,Win32,59.88023952,,,,,,,,,,,,,,,,,,,,,,,533.2352,534.382,a,1,0.4671,,[],[],[],[],[],[],[],0.4671,1,534.3822,534.8752,,,,,,1246,MAS,DIS,150,juicio,la,l,534.8754,534.8756,0.887963019,0.5,0,0,0,,0,174,174,345,1,,,,
,,,,,,b5f84ff84a7124e70db144ef,66a626ef09d4e21e1a8894ec,6734a00ebcb39f4fbecb8c26,2024-11-13_06h49.35.818,Tarea de género gramatical,2024.2.2,Win32,59.88023952,,,,,,,,,,,,,,,,,,,,,,,534.8775,535.9322,l,1,0.3989,,[],[],[],[],[],[],[],0.3989,1,535.9325,536.4299,,,,,,1040,FEM,AGR,150,mula,la,a,536.4301,536.4304,0.887963019,0.5,0,0,0,,0,175,175,139,1,,,,
,,,,,,b5f84ff84a7124e70db144ef,66a626ef09d4e21e1a8894ec,6734a00ebcb39f4fbecb8c26,2024-11-13_06h49.35.818,Tarea de género gramatical,2024.2.2,Win32,59.88023952,,,,,,,,,,,,,,,,,,,,,,,536.432,537.5961,l,1,0.4943,,[],[],[],[],[],[],[],0.4943,1,537.5962,538.0896,,,,,,1263,FEM,CON,150,unidad,,a,538.0897,538.0898,0.887963019,0.5,0,0,0,,0,176,176,362,1,,,,
,,,,,,b5f84ff84a7124e70db144ef,66a626ef09d4e21e1a8894ec,6734a00ebcb39f4fbecb8c26,2024-11-13_06h49.35.818,Tarea de género gramatical,2024.2.2,Win32,59.88023952,,,,,,,,,,,,,,,,,,,,,,,538.0914,539.2794,a,1,0.5182,,[],[],[],[],[],[],[],0.5182,1,539.2796,539.7781,,,,,,1283,MAS,AGR,150,parque,el,l,539.7794,539.7806,0.887963019,0.5,0,0,0,,0,177,177,382,1,,,,
,,,,,,b5f84ff84a7124e70db144ef,66a626ef09d4e21e1a8894ec,6734a00ebcb39f4fbecb8c26,2024-11-13_06h49.35.818,Tarea de género gramatical,2024.2.2,Win32,59.88023952,,,,,,,,,,,,,,,,,,,,,,,539.7814,540.9611,l,1,0.5116,,[],[],[],[],[],[],[],0.5116,1,540.9612,541.4535,,,,,,1178,FEM,AGR,150,presa,la,a,541.4535,541.4537,0.887963019,0.5,0,0,0,,0,178,178,277,1,,,,
,,,,,,b5f84ff84a7124e70db144ef,66a626ef09d4e21e1a8894ec,6734a00ebcb39f4fbecb8c26,2024-11-13_06h49.35.818,Tarea de género gramatical,2024.2.2,Win32,59.88023952,,,,,,,,,,,,,,,,,,,,,,,541.4554,543.3109,a,1,1.1955,,[],[],[],[],[],[],[],1.1955,1,543.311,543.8072,,,,,,1032,MAS,CON,150,velo,,l,543.8073,543.8076,0.887963019,0.5,0,0,0,,0,179,179,131,1,,,,
,,,,,,b5f84ff84a7124e70db144ef,66a626ef09d4e21e1a8894ec,6734a00ebcb39f4fbecb8c26,2024-11-13_06h49.35.818,Tarea de género gramatical,2024.2.2,Win32,59.88023952,,,,,,,,,,,,,,,,,,,,,,,543.8094,544.9347,a,1,0.4537,,[],[],[],[],[],[],[],0.4537,1,544.9347,545.4233,,,,,,978,MAS,CON,150,oído,,l,545.4234,545.4235,0.887963019,0.5,0,0,0,,0,180,180,77,1,,,,
,,,,,,b5f84ff84a7124e70db144ef,66a626ef09d4e21e1a8894ec,6734a00ebcb39f4fbecb8c26,2024-11-13_06h49.35.818,Tarea de género gramatical,2024.2.2,Win32,59.88023952,,,,,,,,,,,,,,,,,,,,,,,545.4252,546.6563,a,1,0.5518,,[],[],[],[],[],[],[],0.5518,1,546.6566,547.1549,,,,,,1278,MAS,CON,150,pastel,,l,547.155,547.1552,0.887963019,0.5,0,0,0,,0,181,181,377,1,,,,
,,,,,,b5f84ff84a7124e70db144ef,66a626ef09d4e21e1a8894ec,6734a00ebcb39f4fbecb8c26,2024-11-13_06h49.35.818,Tarea de género gramatical,2024.2.2,Win32,59.88023952,,,,,,,,,,,,,,,,,,,,,,,547.1579,548.3883,l,1,0.5634,,[],[],[],[],[],[],[],0.5634,1,548.3884,548.8807,,,,,,955,FEM,DIS,150,taza,el,a,548.8826,548.8838,0.887963019,0.5,0,0,0,,0,182,182,54,1,,,,
,,,,,,b5f84ff84a7124e70db144ef,66a626ef09d4e21e1a8894ec,6734a00ebcb39f4fbecb8c26,2024-11-13_06h49.35.818,Tarea de género gramatical,2024.2.2,Win32,59.88023952,,,,,,,,,,,,,,,,,,,,,,,548.8847,550.0628,l,1,0.5004,,[],[],[],[],[],[],[],0.5004,1,550.0629,550.5664,,,,,,1190,FEM,AGR,150,cabra,la,a,550.5665,550.5667,0.887963019,0.5,0,0,0,,0,183,183,289,1,,,,
,,,,,,b5f84ff84a7124e70db144ef,66a626ef09d4e21e1a8894ec,6734a00ebcb39f4fbecb8c26,2024-11-13_06h49.35.818,Tarea de género gramatical,2024.2.2,Win32,59.88023952,,,,,,,,,,,,,,,,,,,,,,,550.5687,551.6779,l,1,0.4409,,[],[],[],[],[],[],[],0.4409,1,551.6781,552.1673,,,,,,1076,FEM,AGR,150,línea,la,a,552.1674,552.1675,0.887963019,0.5,0,0,0,,0,184,184,175,1,,,,
,,,,,,b5f84ff84a7124e70db144ef,66a626ef09d4e21e1a8894ec,6734a00ebcb39f4fbecb8c26,2024-11-13_06h49.35.818,Tarea de género gramatical,2024.2.2,Win32,59.88023952,,,,,,,,,,,,,,,,,,,,,,,552.1689,553.2193,l,1,0.3786,,[],[],[],[],[],[],[],0.3786,1,553.2194,553.7151,,,,,,902,FEM,AGR,150,vida,la,a,553.7151,553.7153,0.887963019,0.5,0,0,0,,0,185,185,1,1,,,,
,,,,,,b5f84ff84a7124e70db144ef,66a626ef09d4e21e1a8894ec,6734a00ebcb39f4fbecb8c26,2024-11-13_06h49.35.818,Tarea de género gramatical,2024.2.2,Win32,59.88023952,,,,,,,,,,,,,,,,,,,,,,,553.7168,554.9333,a,1,0.5348,,[],[],[],[],[],[],[],0.5348,1,554.9334,555.4251,,,,,,1014,MAS,CON,150,menú,,l,555.4274,555.4292,0.887963019,0.5,0,0,0,,0,186,186,113,1,,,,
,,,,,,b5f84ff84a7124e70db144ef,66a626ef09d4e21e1a8894ec,6734a00ebcb39f4fbecb8c26,2024-11-13_06h49.35.818,Tarea de género gramatical,2024.2.2,Win32,59.88023952,,,,,,,,,,,,,,,,,,,,,,,555.4301,556.6142,l,1,0.5114,,[],[],[],[],[],[],[],0.5114,1,556.6144,557.1123,,,,,,1245,FEM,CON,150,pierna,,a,557.1124,557.1126,0.887963019,0.5,0,0,0,,0,187,187,344,1,,,,
,,,,,,b5f84ff84a7124e70db144ef,66a626ef09d4e21e1a8894ec,6734a00ebcb39f4fbecb8c26,2024-11-13_06h49.35.818,Tarea de género gramatical,2024.2.2,Win32,59.88023952,,,,,,,,,,,,,,,,,,,,,,,557.1145,558.2295,a,1,0.4345,,[],[],[],[],[],[],[],0.4345,1,558.2296,558.7283,,,,,,1248,MAS,CON,150,anillo,,l,558.7284,558.7287,0.887963019,0.5,0,0,0,,0,188,188,347,1,,,,
,,,,,,b5f84ff84a7124e70db144ef,66a626ef09d4e21e1a8894ec,6734a00ebcb39f4fbecb8c26,2024-11-13_06h49.35.818,Tarea de género gramatical,2024.2.2,Win32,59.88023952,,,,,,,,,,,,,,,,,,,,,,,558.7306,559.9611,a,1,0.5525,,[],[],[],[],[],[],[],0.5525,1,559.9612,560.4601,,,,,,1158,MAS,CON,150,polvo,,l,560.4601,560.4602,0.887963019,0.5,0,0,0,,0,189,189,257,1,,,,
,,,,,,b5f84ff84a7124e70db144ef,66a626ef09d4e21e1a8894ec,6734a00ebcb39f4fbecb8c26,2024-11-13_06h49.35.818,Tarea de género gramatical,2024.2.2,Win32,59.88023952,,,,,,,,,,,,,,,,,,,,,,,560.4616,561.5596,l,1,0.417,,[],[],[],[],[],[],[],0.417,1,561.5597,562.0586,,,,,,1016,FEM,AGR,150,nube,la,a,562.0588,562.0589,0.887963019,0.5,0,0,0,,0,190,190,115,1,,,,
,,,,,,b5f84ff84a7124e70db144ef,66a626ef09d4e21e1a8894ec,6734a00ebcb39f4fbecb8c26,2024-11-13_06h49.35.818,Tarea de género gramatical,2024.2.2,Win32,59.88023952,,,,,,,,,,,,,,,,,,,,,,,562.0605,563.2264,l,1,0.4847,,[],[],[],[],[],[],[],0.4847,1,563.2265,563.7258,,,,,,1100,FEM,AGR,150,silla,la,a,563.7277,563.729,0.887963019,0.5,0,0,0,,0,191,191,199,1,,,,
,,,,,,b5f84ff84a7124e70db144ef,66a626ef09d4e21e1a8894ec,6734a00ebcb39f4fbecb8c26,2024-11-13_06h49.35.818,Tarea de género gramatical,2024.2.2,Win32,59.88023952,,,,,,,,,,,,,,,,,,,,,,,563.7297,565.2902,l,1,0.8843,,[],[],[],[],[],[],[],0.8843,1,565.2903,565.7831,,,,,,1021,FEM,DIS,150,pila,el,a,565.7833,565.7834,0.887963019,0.5,0,0,0,,0,192,192,120,1,,,,
,,,,,,b5f84ff84a7124e70db144ef,66a626ef09d4e21e1a8894ec,6734a00ebcb39f4fbecb8c26,2024-11-13_06h49.35.818,Tarea de género gramatical,2024.2.2,Win32,59.88023952,,,,,,,,,,,,,,,,,,,,,,,565.7851,566.8389,l,1,0.3677,,[],[],[],[],[],[],[],0.3677,1,566.839,567.3379,,,,,,933,FEM,CON,150,boda,,a,567.338,567.338,0.887963019,0.5,0,0,0,,0,193,193,32,1,,,,
,,,,,,b5f84ff84a7124e70db144ef,66a626ef09d4e21e1a8894ec,6734a00ebcb39f4fbecb8c26,2024-11-13_06h49.35.818,Tarea de género gramatical,2024.2.2,Win32,59.88023952,,,,,,,,,,,,,,,,,,,,,,,567.3399,568.471,a,1,0.4511,,[],[],[],[],[],[],[],0.4511,1,568.4711,568.9699,,,,,,1349,MAS,AGR,150,payaso,el,l,568.9699,568.97,0.887963019,0.5,0,0,0,,0,194,194,448,1,,,,
,,,,,,b5f84ff84a7124e70db144ef,66a626ef09d4e21e1a8894ec,6734a00ebcb39f4fbecb8c26,2024-11-13_06h49.35.818,Tarea de género gramatical,2024.2.2,Win32,59.88023952,,,,,,,,,,,,,,,,,,,,,,,568.9715,570.1378,a,1,0.4853,,[],[],[],[],[],[],[],0.4853,1,570.138,570.6351,,,,,,1330,MAS,DIS,150,título,la,l,570.6367,570.6382,0.887963019,0.5,0,0,0,,0,195,195,429,1,,,,
,,,,,,b5f84ff84a7124e70db144ef,66a626ef09d4e21e1a8894ec,6734a00ebcb39f4fbecb8c26,2024-11-13_06h49.35.818,Tarea de género gramatical,2024.2.2,Win32,59.88023952,,,,,,,,,,,,,,,,,,,,,,,570.6391,572.3521,a,1,1.034,,[],[],[],[],[],[],[],1.034,1,572.3521,572.8507,,,,,,1192,MAS,DIS,150,piano,la,l,572.8507,572.8509,0.887963019,0.5,0,0,0,,0,196,196,291,1,,,,
,,,,,,b5f84ff84a7124e70db144ef,66a626ef09d4e21e1a8894ec,6734a00ebcb39f4fbecb8c26,2024-11-13_06h49.35.818,Tarea de género gramatical,2024.2.2,Win32,59.88023952,,,,,,,,,,,,,,,,,,,,,,,572.8528,574.0098,l,1,0.4773,,[],[],[],[],[],[],[],0.4773,1,574.0101,574.5158,,,,,,1118,FEM,AGR,150,nieve,la,a,574.5159,574.5163,0.887963019,0.5,0,0,0,,0,197,197,217,1,,,,
,,,,,,b5f84ff84a7124e70db144ef,66a626ef09d4e21e1a8894ec,6734a00ebcb39f4fbecb8c26,2024-11-13_06h49.35.818,Tarea de género gramatical,2024.2.2,Win32,59.88023952,,,,,,,,,,,,,,,,,,,,,,,574.5183,575.5989,l,1,0.4125,,[],[],[],[],[],[],[],0.4125,1,575.5992,576.0991,,,,,,1123,FEM,DIS,150,plata,el,a,576.0992,576.0993,0.887963019,0.5,0,0,0,,0,198,198,222,1,,,,
,,,,,,b5f84ff84a7124e70db144ef,66a626ef09d4e21e1a8894ec,6734a00ebcb39f4fbecb8c26,2024-11-13_06h49.35.818,Tarea de género gramatical,2024.2.2,Win32,59.88023952,,,,,,,,,,,,,,,,,,,,,,,576.1008,577.1299,l,1,0.3604,,[],[],[],[],[],[],[],0.3604,1,577.13,577.6237,,,,,,1015,FEM,DIS,150,seda,el,a,577.6239,577.624,0.887963019,0.5,0,0,0,,0,199,199,114,1,,,,
,,,,,,b5f84ff84a7124e70db144ef,66a626ef09d4e21e1a8894ec,6734a00ebcb39f4fbecb8c26,2024-11-13_06h49.35.818,Tarea de género gramatical,2024.2.2,Win32,59.88023952,,,,,,,,,,,,,,,,,,,,,,,577.6263,578.6965,l,1,0.4107,,[],[],[],[],[],[],[],0.4107,1,578.6968,579.1947,,,,,,1213,FEM,DIS,150,ciudad,el,a,579.1964,579.1978,0.887963019,0.5,0,0,0,,0,200,200,312,1,,,,
,,,,,,b5f84ff84a7124e70db144ef,66a626ef09d4e21e1a8894ec,6734a00ebcb39f4fbecb8c26,2024-11-13_06h49.35.818,Tarea de género gramatical,2024.2.2,Win32,59.88023952,,,,,,,,,,,,,,,,,,,,,,,579.1987,580.2291,l,1,0.3605,,[],[],[],[],[],[],[],0.3605,1,580.2292,580.7274,,,,,,1119,FEM,CON,150,costa,,a,580.7275,580.7277,0.887963019,0.5,0,0,0,,0,201,201,218,1,,,,
,,,,,,b5f84ff84a7124e70db144ef,66a626ef09d4e21e1a8894ec,6734a00ebcb39f4fbecb8c26,2024-11-13_06h49.35.818,Tarea de género gramatical,2024.2.2,Win32,59.88023952,,,,,,,,,,,,,,,,,,,,,,,580.7295,581.7763,a,1,0.3829,,[],[],[],[],[],[],[],0.3829,1,581.7765,582.2759,,,,,,946,MAS,DIS,150,odio,la,l,582.276,582.2762,0.887963019,0.5,0,0,0,,0,202,202,45,1,,,,
,,,,,,b5f84ff84a7124e70db144ef,66a626ef09d4e21e1a8894ec,6734a00ebcb39f4fbecb8c26,2024-11-13_06h49.35.818,Tarea de género gramatical,2024.2.2,Win32,59.88023952,,,,,,,,,,,,,,,,,,,,,,,582.2779,583.5754,a,1,0.6198,,[],[],[],[],[],[],[],0.6198,1,583.5755,584.0684,,,,,,1078,MAS,DIS,150,punto,la,l,584.0685,584.0688,0.887963019,0.5,0,0,0,,0,203,203,177,1,,,,
,,,,,,b5f84ff84a7124e70db144ef,66a626ef09d4e21e1a8894ec,6734a00ebcb39f4fbecb8c26,2024-11-13_06h49.35.818,Tarea de género gramatical,2024.2.2,Win32,59.88023952,,,,,,,,,,,,,,,,,,,,,,,584.0704,585.1098,a,1,0.37,,[],[],[],[],[],[],[],0.37,1,585.1099,585.6088,,,,,,1092,MAS,CON,150,grupo,,l,585.6105,585.612,0.887963019,0.5,0,0,0,,0,204,204,191,1,,,,
,,,,,,b5f84ff84a7124e70db144ef,66a626ef09d4e21e1a8894ec,6734a00ebcb39f4fbecb8c26,2024-11-13_06h49.35.818,Tarea de género gramatical,2024.2.2,Win32,59.88023952,,,,,,,,,,,,,,,,,,,,,,,585.6128,586.7235,a,1,0.4348,,[],[],[],[],[],[],[],0.4348,1,586.7237,587.2211,,,,,,1133,MAS,AGR,150,golpe,el,l,587.2212,587.2214,0.887963019,0.5,0,0,0,,0,205,205,232,1,,,,
,,,,,,b5f84ff84a7124e70db144ef,66a626ef09d4e21e1a8894ec,6734a00ebcb39f4fbecb8c26,2024-11-13_06h49.35.818,Tarea de género gramatical,2024.2.2,Win32,59.88023952,,,,,,,,,,,,,,,,,,,,,,,587.2232,588.5712,l,0,0.6673,,[],[],[],[],[],[],[],0.6673,0,588.5724,589.0709,,,,,,988,MAS,DIS,150,pavo,la,l,589.0711,589.0713,0.887963019,0.5,0,0,0,,0,206,206,87,1,,,,
,,,,,,b5f84ff84a7124e70db144ef,66a626ef09d4e21e1a8894ec,6734a00ebcb39f4fbecb8c26,2024-11-13_06h49.35.818,Tarea de género gramatical,2024.2.2,Win32,59.88023952,,,,,,,,,,,,,,,,,,,,,,,589.0727,591.0124,a,1,1.2745,,[],[],[],[],[],[],[],1.2745,1,591.0137,591.5184,,,,,,1319,MAS,AGR,150,cuento,el,l,591.5185,591.5188,0.887963019,0.5,0,0,0,,0,207,207,418,1,,,,
,,,,,,b5f84ff84a7124e70db144ef,66a626ef09d4e21e1a8894ec,6734a00ebcb39f4fbecb8c26,2024-11-13_06h49.35.818,Tarea de género gramatical,2024.2.2,Win32,59.88023952,,,,,,,,,,,,,,,,,,,,,,,591.521,592.6832,l,1,0.493,,[],[],[],[],[],[],[],0.493,1,592.6834,593.1776,,,,,,1261,FEM,DIS,150,oferta,el,a,593.1777,593.1779,0.887963019,0.5,0,0,0,,0,208,208,360,1,,,,
,,,,,,b5f84ff84a7124e70db144ef,66a626ef09d4e21e1a8894ec,6734a00ebcb39f4fbecb8c26,2024-11-13_06h49.35.818,Tarea de género gramatical,2024.2.2,Win32,59.88023952,,,,,,,,,,,,,,,,,,,,,,,593.1794,594.3497,l,0,0.5122,,[],[],[],[],[],[],[],0.5122,0,594.3511,594.8486,,,,,,1163,MAS,AGR,150,carro,el,l,594.8501,594.8513,0.887963019,0.5,0,0,0,,0,209,209,262,1,,,,
,,,,,,b5f84ff84a7124e70db144ef,66a626ef09d4e21e1a8894ec,6734a00ebcb39f4fbecb8c26,2024-11-13_06h49.35.818,Tarea de género gramatical,2024.2.2,Win32,59.88023952,,,,,,,,,,,,,,,,,,,,,,,594.8521,595.9641,a,0,0.4356,,[],[],[],[],[],[],[],0.4356,0,595.9642,596.4638,,,,,,1203,FEM,CON,150,maldad,,a,596.4639,596.464,0.887963019,0.5,0,0,0,,0,210,210,302,1,,,,
,,,,,,b5f84ff84a7124e70db144ef,66a626ef09d4e21e1a8894ec,6734a00ebcb39f4fbecb8c26,2024-11-13_06h49.35.818,Tarea de género gramatical,2024.2.2,Win32,59.88023952,,,,,,,,,,,,,,,,,,,,,,,596.4655,597.9077,a,1,0.7686,,[],[],[],[],[],[],[],0.7686,1,597.9098,598.3958,,,,,,1085,MAS,AGR,150,sueño,el,l,598.3959,598.3962,0.887963019,0.5,0,0,0,,0,211,211,184,1,,,,
,,,,,,b5f84ff84a7124e70db144ef,66a626ef09d4e21e1a8894ec,6734a00ebcb39f4fbecb8c26,2024-11-13_06h49.35.818,Tarea de género gramatical,2024.2.2,Win32,59.88023952,,,,,,,,,,,,,,,,,,,,,,,598.3983,599.663,a,1,0.594,,[],[],[],[],[],[],[],0.594,1,599.6632,600.1621,,,,,,1038,MAS,CON,150,luto,,l,600.1622,600.1624,0.887963019,0.5,0,0,0,,0,212,212,137,1,,,,
,,,,,,b5f84ff84a7124e70db144ef,66a626ef09d4e21e1a8894ec,6734a00ebcb39f4fbecb8c26,2024-11-13_06h49.35.818,Tarea de género gramatical,2024.2.2,Win32,59.88023952,,,,,,,,,,,,,,,,,,,,,,,600.1642,601.3949,a,1,0.5518,,[],[],[],[],[],[],[],0.5518,1,601.3952,601.8872,,,,,,1325,MAS,AGR,150,chiste,el,l,601.8896,601.8912,0.887963019,0.5,0,0,0,,0,213,213,424,1,,,,
,,,,,,b5f84ff84a7124e70db144ef,66a626ef09d4e21e1a8894ec,6734a00ebcb39f4fbecb8c26,2024-11-13_06h49.35.818,Tarea de género gramatical,2024.2.2,Win32,59.88023952,,,,,,,,,,,,,,,,,,,,,,,601.892,603.0529,l,1,0.4838,,[],[],[],[],[],[],[],0.4838,1,603.0532,603.5422,,,,,,1303,FEM,DIS,150,paliza,el,a,603.5424,603.5426,0.887963019,0.5,0,0,0,,0,214,214,402,1,,,,
,,,,,,b5f84ff84a7124e70db144ef,66a626ef09d4e21e1a8894ec,6734a00ebcb39f4fbecb8c26,2024-11-13_06h49.35.818,Tarea de género gramatical,2024.2.2,Win32,59.88023952,,,,,,,,,,,,,,,,,,,,,,,603.5446,604.9088,l,1,0.6847,,[],[],[],[],[],[],[],0.6847,1,604.9088,605.4011,,,,,,1017,FEM,CON,150,raya,,a,605.4011,605.4013,0.887963019,0.5,0,0,0,,0,215,215,116,1,,,,
,,,,,,b5f84ff84a7124e70db144ef,66a626ef09d4e21e1a8894ec,6734a00ebcb39f4fbecb8c26,2024-11-13_06h49.35.818,Tarea de género gramatical,2024.2.2,Win32,59.88023952,,,,,,,,,,,,,,,,,,,,,,,605.4029,606.5236,a,1,0.4511,,[],[],[],[],[],[],[],0.4511,1,606.5237,607.0158,,,,,,905,MAS,AGR,150,tipo,el,l,607.0158,607.016,0.887963019,0.5,0,0,0,,0,216,216,4,1,,,,
,,,,,,b5f84ff84a7124e70db144ef,66a626ef09d4e21e1a8894ec,6734a00ebcb39f4fbecb8c26,2024-11-13_06h49.35.818,Tarea de género gramatical,2024.2.2,Win32,59.88023952,,,,,,,,,,,,,,,,,,,,,,,607.0182,608.1147,a,1,0.4251,,[],[],[],[],[],[],[],0.4251,1,608.1149,608.605,,,,,,948,MAS,CON,150,loco,,l,608.6051,608.6053,0.887963019,0.5,0,0,0,,0,217,217,47,1,,,,
,,,,,,b5f84ff84a7124e70db144ef,66a626ef09d4e21e1a8894ec,6734a00ebcb39f4fbecb8c26,2024-11-13_06h49.35.818,Tarea de género gramatical,2024.2.2,Win32,59.88023952,,,,,,,,,,,,,,,,,,,,,,,608.6073,609.8378,l,1,0.5511,,[],[],[],[],[],[],[],0.5511,1,609.838,610.3374,,,,,,1003,FEM,DIS,150,fama,el,a,610.3392,610.3405,0.887963019,0.5,0,0,0,,0,218,218,102,1,,,,
,,,,,,b5f84ff84a7124e70db144ef,66a626ef09d4e21e1a8894ec,6734a00ebcb39f4fbecb8c26,2024-11-13_06h49.35.818,Tarea de género gramatical,2024.2.2,Win32,59.88023952,,,,,,,,,,,,,,,,,,,,,,,610.3413,611.384,l,1,0.3749,,[],[],[],[],[],[],[],0.3749,1,611.3842,611.8847,,,,,,1173,FEM,CON,150,tarta,,a,611.8849,611.8851,0.887963019,0.5,0,0,0,,0,219,219,272,1,,,,
,,,,,,b5f84ff84a7124e70db144ef,66a626ef09d4e21e1a8894ec,6734a00ebcb39f4fbecb8c26,2024-11-13_06h49.35.818,Tarea de género gramatical,2024.2.2,Win32,59.88023952,,,,,,,,,,,,,,,,,,,,,,,611.8871,613.0187,l,1,0.4603,,[],[],[],[],[],[],[],0.4603,1,613.0187,613.5181,,,,,,981,FEM,CON,150,cima,,a,613.5183,613.5184,0.887963019,0.5,0,0,0,,0,220,220,80,1,,,,
,,,,,,b5f84ff84a7124e70db144ef,66a626ef09d4e21e1a8894ec,6734a00ebcb39f4fbecb8c26,2024-11-13_06h49.35.818,Tarea de género gramatical,2024.2.2,Win32,59.88023952,,,,,,,,,,,,,,,,,,,,,,,613.5203,614.666,a,1,0.4761,,[],[],[],[],[],[],[],0.4761,1,614.6661,615.1594,,,,,,965,MAS,AGR,150,rayo,el,l,615.1597,615.1599,0.887963019,0.5,0,0,0,,0,221,221,64,1,,,,
,,,,,,b5f84ff84a7124e70db144ef,66a626ef09d4e21e1a8894ec,6734a00ebcb39f4fbecb8c26,2024-11-13_06h49.35.818,Tarea de género gramatical,2024.2.2,Win32,59.88023952,,,,,,,,,,,,,,,,,,,,,,,615.1618,616.5007,a,1,0.6692,,[],[],[],[],[],[],[],0.6692,1,616.5009,616.9963,,,,,,1240,MAS,DIS,150,pasado,la,l,616.9982,616.9994,0.887963019,0.5,0,0,0,,0,222,222,339,1,,,,
,,,,,,b5f84ff84a7124e70db144ef,66a626ef09d4e21e1a8894ec,6734a00ebcb39f4fbecb8c26,2024-11-13_06h49.35.818,Tarea de género gramatical,2024.2.2,Win32,59.88023952,,,,,,,,,,,,,,,,,,,,,,,617.0001,618.146,a,0,0.4671,,[],[],[],[],[],[],[],0.4671,0,618.1474,618.6457,,,,,,1047,FEM,CON,150,grúa,,a,618.6458,618.646,0.887963019,0.5,0,0,0,,0,223,223,146,1,,,,
,,,,,,b5f84ff84a7124e70db144ef,66a626ef09d4e21e1a8894ec,6734a00ebcb39f4fbecb8c26,2024-11-13_06h49.35.818,Tarea de género gramatical,2024.2.2,Win32,59.88023952,,,,,,,,,,,,,,,,,,,,,,,618.6479,620.0281,a,1,0.6999,,[],[],[],[],[],[],[],0.6999,1,620.0291,620.5276,,,,,,1320,MAS,CON,150,helado,,l,620.5276,620.5277,0.887963019,0.5,0,0,0,,0,224,224,419,1,,,,
,,,,,,b5f84ff84a7124e70db144ef,66a626ef09d4e21e1a8894ec,6734a00ebcb39f4fbecb8c26,2024-11-13_06h49.35.818,Tarea de género gramatical,2024.2.2,Win32,59.88023952,,,,,,,,,,,,,,,,,,,,,,,620.5293,621.6753,l,1,0.466,,[],[],[],[],[],[],[],0.466,1,621.6754,622.177,,,,,,1129,FEM,DIS,150,celda,el,a,622.1772,622.1774,0.887963019,0.5,0,0,0,,0,225,225,228,1,,,,
,,,,,,b5f84ff84a7124e70db144ef,66a626ef09d4e21e1a8894ec,6734a00ebcb39f4fbecb8c26,2024-11-13_06h49.35.818,Tarea de género gramatical,2024.2.2,Win32,59.88023952,,,,,,,,,,,,,,,,,,,,,,,622.1785,623.2934,l,1,0.4442,,[],[],[],[],[],[],[],0.4442,1,623.2936,623.7922,,,,,,937,FEM,DIS,150,sala,el,a,623.7923,623.7924,0.887963019,0.5,0,0,0,,0,226,226,36,1,,,,
,,,,,,b5f84ff84a7124e70db144ef,66a626ef09d4e21e1a8894ec,6734a00ebcb39f4fbecb8c26,2024-11-13_06h49.35.818,Tarea de género gramatical,2024.2.2,Win32,59.88023952,,,,,,,,,,,,,,,,,,,,,,,623.7942,625.1348,l,1,0.6575,,[],[],[],[],[],[],[],0.6575,1,625.135,625.6342,,,,,,1153,FEM,DIS,150,aldea,el,a,625.6361,625.638,0.887963019,0.5,0,0,0,,0,227,227,252,1,,,,
,,,,,,b5f84ff84a7124e70db144ef,66a626ef09d4e21e1a8894ec,6734a00ebcb39f4fbecb8c26,2024-11-13_06h49.35.818,Tarea de género gramatical,2024.2.2,Win32,59.88023952,,,,,,,,,,,,,,,,,,,,,,,625.6389,626.8334,a,1,0.5246,,[],[],[],[],[],[],[],0.5246,1,626.8336,627.333,,,,,,1308,MAS,CON,150,cheque,,l,627.333,627.3332,0.887963019,0.5,0,0,0,,0,228,228,407,1,,,,
,,,,,,b5f84ff84a7124e70db144ef,66a626ef09d4e21e1a8894ec,6734a00ebcb39f4fbecb8c26,2024-11-13_06h49.35.818,Tarea de género gramatical,2024.2.2,Win32,59.88023952,,,,,,,,,,,,,,,,,,,,,,,627.3347,628.5902,l,1,0.5688,,[],[],[],[],[],[],[],0.5688,1,628.5904,629.0876,,,,,,1004,FEM,AGR,150,vela,la,a,629.0876,629.0878,0.887963019,0.5,0,0,0,,0,229,229,103,1,,,,
,,,,,,b5f84ff84a7124e70db144ef,66a626ef09d4e21e1a8894ec,6734a00ebcb39f4fbecb8c26,2024-11-13_06h49.35.818,Tarea de género gramatical,2024.2.2,Win32,59.88023952,,,,,,,,,,,,,,,,,,,,,,,629.0897,630.1543,l,1,0.409,,[],[],[],[],[],[],[],0.409,1,630.1545,630.6537,,,,,,1291,FEM,DIS,150,altura,el,a,630.6537,630.6539,0.887963019,0.5,0,0,0,,0,230,230,390,1,,,,
,,,,,,b5f84ff84a7124e70db144ef,66a626ef09d4e21e1a8894ec,6734a00ebcb39f4fbecb8c26,2024-11-13_06h49.35.818,Tarea de género gramatical,2024.2.2,Win32,59.88023952,,,,,,,,,,,,,,,,,,,,,,,630.656,631.8191,a,1,0.4844,,[],[],[],[],[],[],[],0.4844,1,631.8193,632.3121,,,,,,1350,MAS,CON,150,conejo,,l,632.3149,632.3165,0.887963019,0.5,0,0,0,,0,231,231,449,1,,,,
,,,,,,b5f84ff84a7124e70db144ef,66a626ef09d4e21e1a8894ec,6734a00ebcb39f4fbecb8c26,2024-11-13_06h49.35.818,Tarea de género gramatical,2024.2.2,Win32,59.88023952,,,,,,,,,,,,,,,,,,,,,,,632.3176,633.5509,a,1,0.5672,,[],[],[],[],[],[],[],0.5672,1,633.5511,634.0442,,,,,,1338,MAS,CON,150,tanque,,l,634.0444,634.0446,0.887963019,0.5,0,0,0,,0,232,232,437,1,,,,
,,,,,,b5f84ff84a7124e70db144ef,66a626ef09d4e21e1a8894ec,6734a00ebcb39f4fbecb8c26,2024-11-13_06h49.35.818,Tarea de género gramatical,2024.2.2,Win32,59.88023952,,,,,,,,,,,,,,,,,,,,,,,634.0464,635.2295,l,1,0.5168,,[],[],[],[],[],[],[],0.5168,1,635.2295,635.7261,,,,,,1267,FEM,DIS,150,teoría,el,a,635.7262,635.7262,0.887963019,0.5,0,0,0,,0,233,233,366,1,,,,
,,,,,,b5f84ff84a7124e70db144ef,66a626ef09d4e21e1a8894ec,6734a00ebcb39f4fbecb8c26,2024-11-13_06h49.35.818,Tarea de género gramatical,2024.2.2,Win32,59.88023952,,,,,,,,,,,,,,,,,,,,,,,635.728,636.9914,l,1,0.5924,,[],[],[],[],[],[],[],0.5924,1,636.9915,637.4967,,,,,,1251,FEM,CON,150,espada,,a,637.4973,637.4976,0.887963019,0.5,0,0,0,,0,234,234,350,1,,,,
,,,,,,b5f84ff84a7124e70db144ef,66a626ef09d4e21e1a8894ec,6734a00ebcb39f4fbecb8c26,2024-11-13_06h49.35.818,Tarea de género gramatical,2024.2.2,Win32,59.88023952,,,,,,,,,,,,,,,,,,,,,,,637.4994,638.61,l,1,0.4408,,[],[],[],[],[],[],[],0.4408,1,638.6102,639.1066,,,,,,1237,FEM,DIS,150,escena,el,a,639.1066,639.1068,0.887963019,0.5,0,0,0,,0,235,235,336,1,,,,
,,,,,,b5f84ff84a7124e70db144ef,66a626ef09d4e21e1a8894ec,6734a00ebcb39f4fbecb8c26,2024-11-13_06h49.35.818,Tarea de género gramatical,2024.2.2,Win32,59.88023952,,,,,,,,,,,,,,,,,,,,,,,639.1086,640.2132,l,1,0.4472,,[],[],[],[],[],[],[],0.4472,1,640.2133,640.7048,,,,,,1143,FEM,CON,150,salsa,,a,640.7068,640.7082,0.887963019,0.5,0,0,0,,0,236,236,242,1,,,,
,,,,,,b5f84ff84a7124e70db144ef,66a626ef09d4e21e1a8894ec,6734a00ebcb39f4fbecb8c26,2024-11-13_06h49.35.818,Tarea de género gramatical,2024.2.2,Win32,59.88023952,,,,,,,,,,,,,,,,,,,,,,,640.709,641.9954,a,1,0.6192,,[],[],[],[],[],[],[],0.6192,1,641.9955,642.4936,,,,,,1216,MAS,DIS,150,cuerpo,la,l,642.4936,642.4937,0.887963019,0.5,0,0,0,,0,237,237,315,1,,,,
,,,,,,b5f84ff84a7124e70db144ef,66a626ef09d4e21e1a8894ec,6734a00ebcb39f4fbecb8c26,2024-11-13_06h49.35.818,Tarea de género gramatical,2024.2.2,Win32,59.88023952,,,,,,,,,,,,,,,,,,,,,,,642.4952,643.7927,a,1,0.6277,,[],[],[],[],[],[],[],0.6277,1,643.7929,644.2899,,,,,,959,MAS,AGR,150,lobo,el,l,644.29,644.2901,0.887963019,0.5,0,0,0,,0,238,238,58,1,,,,
,,,,,,b5f84ff84a7124e70db144ef,66a626ef09d4e21e1a8894ec,6734a00ebcb39f4fbecb8c26,2024-11-13_06h49.35.818,Tarea de género gramatical,2024.2.2,Win32,59.88023952,,,,,,,,,,,,,,,,,,,,,,,644.2919,645.6756,a,1,0.702,,[],[],[],[],[],[],[],0.702,1,645.6757,646.1673,,,,,,1294,MAS,DIS,150,examen,la,l,646.1674,646.1676,0.887963019,0.5,0,0,0,,0,239,239,393,1,,,,
,,,,,,b5f84ff84a7124e70db144ef,66a626ef09d4e21e1a8894ec,6734a00ebcb39f4fbecb8c26,2024-11-13_06h49.35.818,Tarea de género gramatical,2024.2.2,Win32,59.88023952,,,,,,,,,,,,,,,,,,,,,,,646.1691,647.2902,a,1,0.4519,,[],[],[],[],[],[],[],0.4519,1,647.2903,647.7888,,,,,,1337,MAS,AGR,150,hombro,el,l,647.7911,647.7929,0.887963019,0.5,0,0,0,,0,240,240,436,1,,,,
,,,,,,b5f84ff84a7124e70db144ef,66a626ef09d4e21e1a8894ec,6734a00ebcb39f4fbecb8c26,2024-11-13_06h49.35.818,Tarea de género gramatical,2024.2.2,Win32,59.88023952,,,,,,,,,,,,,,,,,,,,,,,647.7939,649.0648,a,1,0.5907,,[],[],[],[],[],[],[],0.5907,1,649.0649,649.5533,,,,,,935,MAS,AGR,150,taxi,el,l,649.5534,649.5535,0.887963019,0.5,0,0,0,,0,241,241,34,1,,,,
,,,,,,b5f84ff84a7124e70db144ef,66a626ef09d4e21e1a8894ec,6734a00ebcb39f4fbecb8c26,2024-11-13_06h49.35.818,Tarea de género gramatical,2024.2.2,Win32,59.88023952,,,,,,,,,,,,,,,,,,,,,,,649.5543,651.1707,a,1,0.9342,,[],[],[],[],[],[],[],0.9342,1,651.171,651.6624,,,,,,1222,MAS,DIS,150,minuto,la,l,651.6624,651.6626,0.887963019,0.5,0,0,0,,0,242,242,321,1,,,,
,,,,,,b5f84ff84a7124e70db144ef,66a626ef09d4e21e1a8894ec,6734a00ebcb39f4fbecb8c26,2024-11-13_06h49.35.818,Tarea de género gramatical,2024.2.2,Win32,59.88023952,,,,,,,,,,,,,,,,,,,,,,,651.6642,652.8352,a,1,0.501,,[],[],[],[],[],[],[],0.501,1,652.8353,653.3358,,,,,,1134,MAS,CON,150,héroe,,l,653.3359,653.336,0.887963019,0.5,0,0,0,,0,243,243,233,1,,,,
,,,,,,b5f84ff84a7124e70db144ef,66a626ef09d4e21e1a8894ec,6734a00ebcb39f4fbecb8c26,2024-11-13_06h49.35.818,Tarea de género gramatical,2024.2.2,Win32,59.88023952,,,,,,,,,,,,,,,,,,,,,,,653.3373,654.8153,l,1,0.7992,,[],[],[],[],[],[],[],0.7992,1,654.8155,655.31,,,,,,1147,FEM,DIS,150,frase,el,a,655.3101,655.3102,0.887963019,0.5,0,0,0,,0,244,244,246,1,,,,
,,,,,,b5f84ff84a7124e70db144ef,66a626ef09d4e21e1a8894ec,6734a00ebcb39f4fbecb8c26,2024-11-13_06h49.35.818,Tarea de género gramatical,2024.2.2,Win32,59.88023952,,,,,,,,,,,,,,,,,,,,,,,655.312,656.4835,l,1,0.4943,,[],[],[],[],[],[],[],0.4943,1,656.4837,656.9753,,,,,,1027,FEM,DIS,150,cuna,el,a,656.9771,656.9786,0.887963019,0.5,0,0,0,,0,245,245,126,1,,,,
,,,,,,b5f84ff84a7124e70db144ef,66a626ef09d4e21e1a8894ec,6734a00ebcb39f4fbecb8c26,2024-11-13_06h49.35.818,Tarea de género gramatical,2024.2.2,Win32,59.88023952,,,,,,,,,,,,,,,,,,,,,,,656.9795,658.0306,l,1,0.3923,,[],[],[],[],[],[],[],0.3923,1,658.0308,658.5237,,,,,,1165,FEM,DIS,150,rueda,el,a,658.5238,658.524,0.887963019,0.5,0,0,0,,0,246,246,264,1,,,,
,,,,,,b5f84ff84a7124e70db144ef,66a626ef09d4e21e1a8894ec,6734a00ebcb39f4fbecb8c26,2024-11-13_06h49.35.818,Tarea de género gramatical,2024.2.2,Win32,59.88023952,,,,,,,,,,,,,,,,,,,,,,,658.5261,659.5451,l,1,0.3602,,[],[],[],[],[],[],[],0.3602,1,659.5452,660.0456,,,,,,1023,FEM,CON,150,tela,,a,660.0456,660.0458,0.887963019,0.5,0,0,0,,0,247,247,122,1,,,,
,,,,,,b5f84ff84a7124e70db144ef,66a626ef09d4e21e1a8894ec,6734a00ebcb39f4fbecb8c26,2024-11-13_06h49.35.818,Tarea de género gramatical,2024.2.2,Win32,59.88023952,,,,,,,,,,,,,,,,,,,,,,,660.0474,661.1458,l,1,0.4276,,[],[],[],[],[],[],[],0.4276,1,661.1459,661.6441,,,,,,1281,FEM,CON,150,bebida,,a,661.6441,661.6442,0.887963019,0.5,0,0,0,,0,248,248,380,1,,,,
,,,,,,b5f84ff84a7124e70db144ef,66a626ef09d4e21e1a8894ec,6734a00ebcb39f4fbecb8c26,2024-11-13_06h49.35.818,Tarea de género gramatical,2024.2.2,Win32,59.88023952,,,,,,,,,,,,,,,,,,,,,,,661.6458,662.7925,a,1,0.4666,,[],[],[],[],[],[],[],0.4666,1,662.7926,663.2869,,,,,,976,MAS,DIS,150,lujo,la,l,663.289,663.2906,0.887963019,0.5,0,0,0,,0,249,249,75,1,,,,
,,,,,,b5f84ff84a7124e70db144ef,66a626ef09d4e21e1a8894ec,6734a00ebcb39f4fbecb8c26,2024-11-13_06h49.35.818,Tarea de género gramatical,2024.2.2,Win32,59.88023952,,,,,,,,,,,,,,,,,,,,,,,663.2918,664.4096,a,1,0.4621,,[],[],[],[],[],[],[],0.4621,1,664.4098,664.9084,,,,,,1150,MAS,DIS,150,cerdo,la,l,664.9085,664.9087,0.887963019,0.5,0,0,0,,0,250,250,249,1,,,,
,,,,,,b5f84ff84a7124e70db144ef,66a626ef09d4e21e1a8894ec,6734a00ebcb39f4fbecb8c26,2024-11-13_06h49.35.818,Tarea de género gramatical,2024.2.2,Win32,59.88023952,,,,,,,,,,,,,,,,,,,,,,,664.9102,666.0736,l,1,0.4833,,[],[],[],[],[],[],[],0.4833,1,666.0736,666.5731,,,,,,920,FEM,AGR,150,ropa,la,a,666.5732,666.5733,0.887963019,0.5,0,0,0,,0,251,251,19,1,,,,
,,,,,,b5f84ff84a7124e70db144ef,66a626ef09d4e21e1a8894ec,6734a00ebcb39f4fbecb8c26,2024-11-13_06h49.35.818,Tarea de género gramatical,2024.2.2,Win32,59.88023952,,,,,,,,,,,,,,,,,,,,,,,666.5749,667.5697,l,1,0.3279,,[],[],[],[],[],[],[],0.3279,1,667.5698,668.066,,,,,,1233,FEM,CON,150,locura,,a,668.0662,668.0663,0.887963019,0.5,0,0,0,,0,252,252,332,1,,,,
,,,,,,b5f84ff84a7124e70db144ef,66a626ef09d4e21e1a8894ec,6734a00ebcb39f4fbecb8c26,2024-11-13_06h49.35.818,Tarea de género gramatical,2024.2.2,Win32,59.88023952,,,,,,,,,,,,,,,,,,,,,,,668.0681,669.3646,a,1,0.6334,,[],[],[],[],[],[],[],0.6334,1,669.3648,669.8727,,,,,,1091,MAS,AGR,150,dolor,el,l,669.8727,669.8728,0.887963019,0.5,0,0,0,,0,253,253,190,1,,,,
