counterbalancing_condition,consent_prescreening.block_1/declare_consent,consent_prescreening.block_1/age_years,consent_prescreening.block_1/gender,consent_prescreening.block_1/language_disorder,consent_prescreening.block_1/first_language,PROLIFIC_PID,STUDY_ID,SESSION_ID,date,expName,psychopyVersion,OS,frameRate,check_prescreening_answers.started,check_prescreening_answers.stopped,Instructions.started,Instructions.stopped,instr_done_keyboard.keys,instr_done_touch.x,instr_done_touch.y,instr_done_touch.leftButton,instr_done_touch.midButton,instr_done_touch.rightButton,instr_done_touch.clicked_name,instruction_pages.thisRepN,instruction_pages.thisTrialN,instruction_pages.thisN,instruction_pages.thisIndex,instruction_pages.ran,pageN,phase,instruct_text,has_image,instruct_image,instr_done_keyboard.rt,instr_done_keyboard.duration,presentTrial.started,presentTrial.stopped,response.keys,response.corr,touch_resp.x,touch_resp.y,touch_resp.leftButton,touch_resp.midButton,touch_resp.rightButton,touch_resp.time,touch_resp.clicked_name,rt,corr,feedback.started,feedback.stopped,practice_trials.thisRepN,practice_trials.thisTrialN,practice_trials.thisN,practice_trials.thisIndex,practice_trials.ran,TrialID,StimulusType,Condition,PrimeDuration,Prime,Flanker,corrAns,response.rt,response.duration,Break.started,Break.stopped,break_done_touch.x,break_done_touch.y,break_done_touch.leftButton,break_done_touch.midButton,break_done_touch.rightButton,break_done_keyboard.keys,experiment_trials.thisRepN,experiment_trials.thisTrialN,experiment_trials.thisN,experiment_trials.thisIndex,experiment_trials.ran,break_done_keyboard.rt,break_done_keyboard.duration,End.started,End.stopped
2,"[""over_18"",""comfortable"",""read_info"",""consent_given""]",36,M,"[""none""]","[""spanish""]",b9bf770a8ffc46b92e57340d,66a626ef09d4e21e1a8894ec,67332a49a9734f5df675ea26,2024-11-12_10h13.41.118,Tarea de género gramatical,2024.2.2,Win32,59.52380952,,,,,,,,,,,,,,,,,,,,,,,,,,,,,,,,,,,,,,,,,,,,,,,,,,,,,,,,,,,,,,,,,,,,,
,,,,,,b9bf770a8ffc46b92e57340d,66a626ef09d4e21e1a8894ec,67332a49a9734f5df675ea26,2024-11-12_10h13.41.118,Tarea de género gramatical,2024.2.2,Win32,59.52380952,22.0866,22.0867,,,,,,,,,,,,,,,,,,,,,,,,,,,,,,,,,,,,,,,,,,,,,,,,,,,,,,,,,,,,,,,,,,,
,,,,,,b9bf770a8ffc46b92e57340d,66a626ef09d4e21e1a8894ec,67332a49a9734f5df675ea26,2024-11-12_10h13.41.118,Tarea de género gramatical,2024.2.2,Win32,59.52380952,,,22.1036,35.6013,,-0.035185185,-0.399074074,1,0,0,instr_done_button,0,0,0,0,1,1,instructions,"INSTRUCCIONES
Va a realizar una prueba de selección gramatical. Desde el comienzo de la prueba mire siempre al centro de la pantalla. Al cabo de un momento, aparecerán palabras. La tarea consiste en determinar si la palabra del centro (siempre será un sustantivo), pertenece al género masculino o femenino.

Pulse la tecla ESPACIO o toque el botón de abajo para continuar.",0,keyboardresponseMF.png,,,,,,,,,,,,,,,,,,,,,,,,,,,,,,,,,,,,,,,,,,,,,,,,
,,,,,,b9bf770a8ffc46b92e57340d,66a626ef09d4e21e1a8894ec,67332a49a9734f5df675ea26,2024-11-12_10h13.41.118,Tarea de género gramatical,2024.2.2,Win32,59.52380952,,,35.6031,49.2836,,0.039814815,-0.412962963,1,0,0,instr_done_button,0,1,1,1,1,2,instructions,"Si su dispositivo tiene teclado, pulse la tecla ""A"" para las palabras en masculino (por ejemplo: ""arroz"") y la tecla ""L"" para las palabras en femenino (por ejemplo: ""mano"").
Pulse la tecla ESPACIO o toque el botón de abajo para continuar.",1,keyboardresponseMF.png,,,,,,,,,,,,,,,,,,,,,,,,,,,,,,,,,,,,,,,,,,,,,,,,
,,,,,,b9bf770a8ffc46b92e57340d,66a626ef09d4e21e1a8894ec,67332a49a9734f5df675ea26,2024-11-12_10h13.41.118,Tarea de género gramatical,2024.2.2,Win32,59.52380952,,,49.2847,53.196,space,0.424074074,-0.323148148,0,0,0,,0,2,2,2,1,3,instructions,"Si utiliza un dispositivo sólo táctil, colóquelo en horizontal y utilice los botones de la pantalla. No utilice el ratón.
Pulse la tecla ESPACIO o toque el botón de abajo para continuar.",2,touchresponseMF.png,3.8798,,,,,,,,,,,,,,,,,,,,,,,,,,,,,,,,,,,,,,,,,,,,,,,
,,,,,,b9bf770a8ffc46b92e57340d,66a626ef09d4e21e1a8894ec,67332a49a9734f5df675ea26,2024-11-12_10h13.41.118,Tarea de género gramatical,2024.2.2,Win32,59.52380952,,,53.2005,54.4943,space,0.424074074,-0.323148148,0,0,0,,0,3,3,3,1,4,instructions,"Es muy importante que responda con la mayor rapidez y precisión posibles, ya que cada cadena de letras sólo estará en pantalla durante un instante. Si no responde en ese tiempo, aparecerá el mensaje ""Muy lento"" y el experimento pasará a la siguiente palabra. Los primeros 15 intentos serán de práctica y habrá dos descansos durante la prueba.
Pulse la tecla ESPACIO o toque el botón de abajo para iniciar la parte de práctica.",0,keyboardresponseMF.png,1.2725,,,,,,,,,,,,,,,,,,,,,,,,,,,,,,,,,,,,,,,,,,,,,,,
,,,,,,b9bf770a8ffc46b92e57340d,66a626ef09d4e21e1a8894ec,67332a49a9734f5df675ea26,2024-11-12_10h13.41.118,Tarea de género gramatical,2024.2.2,Win32,59.52380952,,,,,,,,,,,,,,,,,,,,,,,,54.5041,57.1506,,0,[],[],[],[],[],[],[],,-1,57.1509,57.6497,0,0,0,4,1,2005,FEM,CON,150,placa,,a,,,,,,,,,,,,,,,,,,,
,,,,,,b9bf770a8ffc46b92e57340d,66a626ef09d4e21e1a8894ec,67332a49a9734f5df675ea26,2024-11-12_10h13.41.118,Tarea de género gramatical,2024.2.2,Win32,59.52380952,,,,,,,,,,,,,,,,,,,,,,,,57.6507,60.294,,0,[],[],[],[],[],[],[],,-1,60.2942,60.7943,0,1,1,11,1,2012,MAS,DIS,150,clima,la,l,,,,,,,,,,,,,,,,,,,
,,,,,,b9bf770a8ffc46b92e57340d,66a626ef09d4e21e1a8894ec,67332a49a9734f5df675ea26,2024-11-12_10h13.41.118,Tarea de género gramatical,2024.2.2,Win32,59.52380952,,,,,,,,,,,,,,,,,,,,,,,,60.7965,61.8946,l,1,[],[],[],[],[],[],[],0.4168,1,61.9038,62.3939,0,2,2,3,1,2004,FEM,AGR,150,venta,la,a,0.4168,,,,,,,,,,,,,,,,,,
,,,,,,b9bf770a8ffc46b92e57340d,66a626ef09d4e21e1a8894ec,67332a49a9734f5df675ea26,2024-11-12_10h13.41.118,Tarea de género gramatical,2024.2.2,Win32,59.52380952,,,,,,,,,,,,,,,,,,,,,,,,62.395,63.5608,a,0,[],[],[],[],[],[],[],0.5088,0,63.5617,64.0608,0,3,3,5,1,2006,FEM,DIS,150,serie,el,a,0.5088,,,,,,,,,,,,,,,,,,
,,,,,,b9bf770a8ffc46b92e57340d,66a626ef09d4e21e1a8894ec,67332a49a9734f5df675ea26,2024-11-12_10h13.41.118,Tarea de género gramatical,2024.2.2,Win32,59.52380952,,,,,,,,,,,,,,,,,,,,,,,,64.0618,65.3946,a,1,[],[],[],[],[],[],[],0.6532,1,65.3962,65.894,0,4,4,9,1,2010,MAS,AGR,150,vecino,el,l,0.6532,,,,,,,,,,,,,,,,,,
,,,,,,b9bf770a8ffc46b92e57340d,66a626ef09d4e21e1a8894ec,67332a49a9734f5df675ea26,2024-11-12_10h13.41.118,Tarea de género gramatical,2024.2.2,Win32,59.52380952,,,,,,,,,,,,,,,,,,,,,,,,65.8953,66.9774,l,1,[],[],[],[],[],[],[],0.4168,1,66.9775,67.4777,0,5,5,0,1,2001,FEM,AGR,150,nuca,la,a,0.4168,,,,,,,,,,,,,,,,,,
,,,,,,b9bf770a8ffc46b92e57340d,66a626ef09d4e21e1a8894ec,67332a49a9734f5df675ea26,2024-11-12_10h13.41.118,Tarea de género gramatical,2024.2.2,Win32,59.52380952,,,,,,,,,,,,,,,,,,,,,,,,67.4795,69.2438,a,1,[],[],[],[],[],[],[],1.0908,1,69.2439,69.7447,0,6,6,8,1,2009,MAS,DIS,150,puerto,la,l,1.0908,,,,,,,,,,,,,,,,,,
,,,,,,b9bf770a8ffc46b92e57340d,66a626ef09d4e21e1a8894ec,67332a49a9734f5df675ea26,2024-11-12_10h13.41.118,Tarea de género gramatical,2024.2.2,Win32,59.52380952,,,,,,,,,,,,,,,,,,,,,,,,69.7463,71.3782,l,1,[],[],[],[],[],[],[],0.9528,1,71.3783,71.8777,0,7,7,7,1,2008,FEM,CON,150,siesta,,a,0.9528,,,,,,,,,,,,,,,,,,
,,,,,,b9bf770a8ffc46b92e57340d,66a626ef09d4e21e1a8894ec,67332a49a9734f5df675ea26,2024-11-12_10h13.41.118,Tarea de género gramatical,2024.2.2,Win32,59.52380952,,,,,,,,,,,,,,,,,,,,,,,,71.8801,73.0437,l,1,[],[],[],[],[],[],[],0.4842,1,73.0438,73.5445,0,8,8,2,1,2003,FEM,DIS,150,daga,el,a,0.4842,,,,,,,,,,,,,,,,,,
,,,,,,b9bf770a8ffc46b92e57340d,66a626ef09d4e21e1a8894ec,67332a49a9734f5df675ea26,2024-11-12_10h13.41.118,Tarea de género gramatical,2024.2.2,Win32,59.52380952,,,,,,,,,,,,,,,,,,,,,,,,73.5468,74.6608,l,1,[],[],[],[],[],[],[],0.4367,1,74.661,75.1605,0,9,9,1,1,2002,FEM,CON,150,pala,,a,0.4367,,,,,,,,,,,,,,,,,,
,,,,,,b9bf770a8ffc46b92e57340d,66a626ef09d4e21e1a8894ec,67332a49a9734f5df675ea26,2024-11-12_10h13.41.118,Tarea de género gramatical,2024.2.2,Win32,59.52380952,,,,,,,,,,,,,,,,,,,,,,,,75.1616,76.3104,l,1,[],[],[],[],[],[],[],0.4711,1,76.3105,76.8103,0,10,10,6,1,2007,FEM,AGR,150,navaja,la,a,0.4711,,,,,,,,,,,,,,,,,,
,,,,,,b9bf770a8ffc46b92e57340d,66a626ef09d4e21e1a8894ec,67332a49a9734f5df675ea26,2024-11-12_10h13.41.118,Tarea de género gramatical,2024.2.2,Win32,59.52380952,,,,,,,,,,,,,,,,,,,,,,,,76.8111,77.9439,a,1,[],[],[],[],[],[],[],0.4528,1,77.944,78.4331,0,11,11,14,1,2015,MAS,DIS,150,robot,la,l,0.4528,,,,,,,,,,,,,,,,,,
,,,,,,b9bf770a8ffc46b92e57340d,66a626ef09d4e21e1a8894ec,67332a49a9734f5df675ea26,2024-11-12_10h13.41.118,Tarea de género gramatical,2024.2.2,Win32,59.52380952,,,,,,,,,,,,,,,,,,,,,,,,78.4336,79.6769,a,1,[],[],[],[],[],[],[],0.5731,1,79.6771,80.183,0,12,12,13,1,2014,MAS,CON,150,siglo,,l,0.5731,,,,,,,,,,,,,,,,,,
,,,,,,b9bf770a8ffc46b92e57340d,66a626ef09d4e21e1a8894ec,67332a49a9734f5df675ea26,2024-11-12_10h13.41.118,Tarea de género gramatical,2024.2.2,Win32,59.52380952,,,,,,,,,,,,,,,,,,,,,,,,80.1837,81.4165,l,0,[],[],[],[],[],[],[],0.5535,0,81.417,81.9169,0,13,13,12,1,2013,MAS,AGR,150,acero,el,l,0.5535,,,,,,,,,,,,,,,,,,
,,,,,,b9bf770a8ffc46b92e57340d,66a626ef09d4e21e1a8894ec,67332a49a9734f5df675ea26,2024-11-12_10h13.41.118,Tarea de género gramatical,2024.2.2,Win32,59.52380952,,,,,,,,,,,,,,,,,,,,,,,,81.9176,83.1101,a,1,[],[],[],[],[],[],[],0.5057,1,83.1106,83.6,0,14,14,10,1,2011,MAS,CON,150,canal,,l,0.5057,,,,,,,,,,,,,,,,,,
,,,,,,b9bf770a8ffc46b92e57340d,66a626ef09d4e21e1a8894ec,67332a49a9734f5df675ea26,2024-11-12_10h13.41.118,Tarea de género gramatical,2024.2.2,Win32,59.52380952,,,87.1349,89.3167,space,0.424074074,-0.323148148,0,0,0,,,,,,,,,,,,2.1666,,89.3416,90.86,a,0,[],[],[],[],[],[],[],0.8575,0,90.8607,91.3601,,,,,,1003,FEM,DIS,150,fama,el,a,0.8575,,91.3605,91.3654,0.424074074,-0.323148148,0,0,0,,0,0,0,102,1,,,,
,,,,,,b9bf770a8ffc46b92e57340d,66a626ef09d4e21e1a8894ec,67332a49a9734f5df675ea26,2024-11-12_10h13.41.118,Tarea de género gramatical,2024.2.2,Win32,59.52380952,,,,,,,,,,,,,,,,,,,,,,,,91.366,92.4597,a,1,[],[],[],[],[],[],[],0.4239,1,92.4602,92.9599,,,,,,1301,MAS,AGR,150,abrigo,el,l,0.4239,,92.96,92.9601,0.424074074,-0.323148148,0,0,0,,0,1,1,400,1,,,,
,,,,,,b9bf770a8ffc46b92e57340d,66a626ef09d4e21e1a8894ec,67332a49a9734f5df675ea26,2024-11-12_10h13.41.118,Tarea de género gramatical,2024.2.2,Win32,59.52380952,,,,,,,,,,,,,,,,,,,,,,,,92.9609,93.9597,a,1,[],[],[],[],[],[],[],0.3178,1,93.9598,94.4601,,,,,,1254,MAS,CON,150,camión,,l,0.3178,,94.4607,94.4609,0.424074074,-0.323148148,0,0,0,,0,2,2,353,1,,,,
,,,,,,b9bf770a8ffc46b92e57340d,66a626ef09d4e21e1a8894ec,67332a49a9734f5df675ea26,2024-11-12_10h13.41.118,Tarea de género gramatical,2024.2.2,Win32,59.52380952,,,,,,,,,,,,,,,,,,,,,,,,94.4613,95.643,l,1,[],[],[],[],[],[],[],0.5058,1,95.6432,96.1433,,,,,,1191,FEM,CON,150,aguja,,a,0.5058,,96.1434,96.1435,0.424074074,-0.323148148,0,0,0,,0,3,3,290,1,,,,
,,,,,,b9bf770a8ffc46b92e57340d,66a626ef09d4e21e1a8894ec,67332a49a9734f5df675ea26,2024-11-12_10h13.41.118,Tarea de género gramatical,2024.2.2,Win32,59.52380952,,,,,,,,,,,,,,,,,,,,,,,,96.1443,97.1931,a,1,[],[],[],[],[],[],[],0.3672,1,97.1931,97.693,,,,,,1187,MAS,AGR,150,plato,el,l,0.3672,,97.6931,97.6932,0.424074074,-0.323148148,0,0,0,,0,4,4,286,1,,,,
,,,,,,b9bf770a8ffc46b92e57340d,66a626ef09d4e21e1a8894ec,67332a49a9734f5df675ea26,2024-11-12_10h13.41.118,Tarea de género gramatical,2024.2.2,Win32,59.52380952,,,,,,,,,,,,,,,,,,,,,,,,97.6938,98.8929,a,1,[],[],[],[],[],[],[],0.5376,1,98.8929,99.3931,,,,,,1050,MAS,CON,150,mozo,,l,0.5376,,99.3932,99.3932,0.424074074,-0.323148148,0,0,0,,0,5,5,149,1,,,,
,,,,,,b9bf770a8ffc46b92e57340d,66a626ef09d4e21e1a8894ec,67332a49a9734f5df675ea26,2024-11-12_10h13.41.118,Tarea de género gramatical,2024.2.2,Win32,59.52380952,,,,,,,,,,,,,,,,,,,,,,,,99.3938,100.5321,l,1,[],[],[],[],[],[],[],0.4664,1,100.5322,101.0332,,,,,,963,FEM,CON,150,fila,,a,0.4664,,101.0343,101.035,0.424074074,-0.323148148,0,0,0,,0,6,6,62,1,,,,
,,,,,,b9bf770a8ffc46b92e57340d,66a626ef09d4e21e1a8894ec,67332a49a9734f5df675ea26,2024-11-12_10h13.41.118,Tarea de género gramatical,2024.2.2,Win32,59.52380952,,,,,,,,,,,,,,,,,,,,,,,,101.0356,102.2505,l,1,[],[],[],[],[],[],[],0.5454,1,102.2505,102.7507,,,,,,914,FEM,AGR,150,cara,la,a,0.5454,,102.7509,102.7512,0.424074074,-0.323148148,0,0,0,,0,7,7,13,1,,,,
,,,,,,b9bf770a8ffc46b92e57340d,66a626ef09d4e21e1a8894ec,67332a49a9734f5df675ea26,2024-11-12_10h13.41.118,Tarea de género gramatical,2024.2.2,Win32,59.52380952,,,,,,,,,,,,,,,,,,,,,,,,102.7529,103.8348,a,1,[],[],[],[],[],[],[],0.418,1,103.8349,104.3334,,,,,,1223,MAS,AGR,150,marido,el,l,0.418,,104.3336,104.3338,0.424074074,-0.323148148,0,0,0,,0,8,8,322,1,,,,
,,,,,,b9bf770a8ffc46b92e57340d,66a626ef09d4e21e1a8894ec,67332a49a9734f5df675ea26,2024-11-12_10h13.41.118,Tarea de género gramatical,2024.2.2,Win32,59.52380952,,,,,,,,,,,,,,,,,,,,,,,,104.3353,105.443,a,1,[],[],[],[],[],[],[],0.4419,1,105.4432,105.9427,,,,,,917,MAS,AGR,150,modo,el,l,0.4419,,105.9427,105.9428,0.424074074,-0.323148148,0,0,0,,0,9,9,16,1,,,,
,,,,,,b9bf770a8ffc46b92e57340d,66a626ef09d4e21e1a8894ec,67332a49a9734f5df675ea26,2024-11-12_10h13.41.118,Tarea de género gramatical,2024.2.2,Win32,59.52380952,,,,,,,,,,,,,,,,,,,,,,,,105.9435,107.2433,a,0,[],[],[],[],[],[],[],0.6335,0,107.2445,107.7431,,,,,,1189,FEM,DIS,150,tabla,el,a,0.6335,,107.7432,107.7433,0.424074074,-0.323148148,0,0,0,,0,10,10,288,1,,,,
,,,,,,b9bf770a8ffc46b92e57340d,66a626ef09d4e21e1a8894ec,67332a49a9734f5df675ea26,2024-11-12_10h13.41.118,Tarea de género gramatical,2024.2.2,Win32,59.52380952,,,,,,,,,,,,,,,,,,,,,,,,107.7437,108.9266,a,1,[],[],[],[],[],[],[],0.5197,1,108.9276,109.4272,,,,,,1097,MAS,AGR,150,avión,el,l,0.5197,,109.4292,109.4304,0.424074074,-0.323148148,0,0,0,,0,11,11,196,1,,,,
,,,,,,b9bf770a8ffc46b92e57340d,66a626ef09d4e21e1a8894ec,67332a49a9734f5df675ea26,2024-11-12_10h13.41.118,Tarea de género gramatical,2024.2.2,Win32,59.52380952,,,,,,,,,,,,,,,,,,,,,,,,109.4315,110.7427,a,0,[],[],[],[],[],[],[],0.6325,0,110.743,111.243,,,,,,1329,FEM,CON,150,fianza,,a,0.6325,,111.243,111.243,0.424074074,-0.323148148,0,0,0,,0,12,12,428,1,,,,
,,,,,,b9bf770a8ffc46b92e57340d,66a626ef09d4e21e1a8894ec,67332a49a9734f5df675ea26,2024-11-12_10h13.41.118,Tarea de género gramatical,2024.2.2,Win32,59.52380952,,,,,,,,,,,,,,,,,,,,,,,,111.2443,112.7428,l,1,[],[],[],[],[],[],[],0.8332,1,112.7433,113.2425,,,,,,1345,FEM,DIS,150,bondad,el,a,0.8332,,113.2427,113.2427,0.424074074,-0.323148148,0,0,0,,0,13,13,444,1,,,,
,,,,,,b9bf770a8ffc46b92e57340d,66a626ef09d4e21e1a8894ec,67332a49a9734f5df675ea26,2024-11-12_10h13.41.118,Tarea de género gramatical,2024.2.2,Win32,59.52380952,,,,,,,,,,,,,,,,,,,,,,,,113.2434,114.3427,a,1,[],[],[],[],[],[],[],0.4171,1,114.3427,114.8427,,,,,,1272,MAS,CON,150,delito,,l,0.4171,,114.8427,114.8428,0.424074074,-0.323148148,0,0,0,,0,14,14,371,1,,,,
,,,,,,b9bf770a8ffc46b92e57340d,66a626ef09d4e21e1a8894ec,67332a49a9734f5df675ea26,2024-11-12_10h13.41.118,Tarea de género gramatical,2024.2.2,Win32,59.52380952,,,,,,,,,,,,,,,,,,,,,,,,114.8433,115.9599,l,1,[],[],[],[],[],[],[],0.4336,1,115.96,116.4593,,,,,,1297,FEM,DIS,150,cuerda,el,a,0.4336,,116.4601,116.4604,0.424074074,-0.323148148,0,0,0,,0,15,15,396,1,,,,
,,,,,,b9bf770a8ffc46b92e57340d,66a626ef09d4e21e1a8894ec,67332a49a9734f5df675ea26,2024-11-12_10h13.41.118,Tarea de género gramatical,2024.2.2,Win32,59.52380952,,,,,,,,,,,,,,,,,,,,,,,,116.4606,117.5592,a,1,[],[],[],[],[],[],[],0.4202,1,117.5593,118.059,,,,,,1128,MAS,CON,150,nivel,,l,0.4202,,118.0591,118.0591,0.424074074,-0.323148148,0,0,0,,0,16,16,227,1,,,,
,,,,,,b9bf770a8ffc46b92e57340d,66a626ef09d4e21e1a8894ec,67332a49a9734f5df675ea26,2024-11-12_10h13.41.118,Tarea de género gramatical,2024.2.2,Win32,59.52380952,,,,,,,,,,,,,,,,,,,,,,,,118.0596,119.1925,a,1,[],[],[],[],[],[],[],0.4507,1,119.1925,119.6932,,,,,,1163,MAS,AGR,150,carro,el,l,0.4507,,119.6932,119.6934,0.424074074,-0.323148148,0,0,0,,0,17,17,262,1,,,,
,,,,,,b9bf770a8ffc46b92e57340d,66a626ef09d4e21e1a8894ec,67332a49a9734f5df675ea26,2024-11-12_10h13.41.118,Tarea de género gramatical,2024.2.2,Win32,59.52380952,,,,,,,,,,,,,,,,,,,,,,,,119.6954,120.8094,a,1,[],[],[],[],[],[],[],0.4347,1,120.8095,121.3091,,,,,,929,MAS,AGR,150,frío,el,l,0.4347,,121.3091,121.3092,0.424074074,-0.323148148,0,0,0,,0,18,18,28,1,,,,
,,,,,,b9bf770a8ffc46b92e57340d,66a626ef09d4e21e1a8894ec,67332a49a9734f5df675ea26,2024-11-12_10h13.41.118,Tarea de género gramatical,2024.2.2,Win32,59.52380952,,,,,,,,,,,,,,,,,,,,,,,,121.3099,122.6596,a,1,[],[],[],[],[],[],[],0.6747,1,122.6596,123.1591,,,,,,1078,MAS,DIS,150,punto,la,l,0.6747,,123.1591,123.1591,0.424074074,-0.323148148,0,0,0,,0,19,19,177,1,,,,
,,,,,,b9bf770a8ffc46b92e57340d,66a626ef09d4e21e1a8894ec,67332a49a9734f5df675ea26,2024-11-12_10h13.41.118,Tarea de género gramatical,2024.2.2,Win32,59.52380952,,,,,,,,,,,,,,,,,,,,,,,,123.1598,124.2421,a,1,[],[],[],[],[],[],[],0.4081,1,124.2421,124.7423,,,,,,1108,MAS,DIS,150,suelo,la,l,0.4081,,124.7432,124.7436,0.424074074,-0.323148148,0,0,0,,0,20,20,207,1,,,,
,,,,,,b9bf770a8ffc46b92e57340d,66a626ef09d4e21e1a8894ec,67332a49a9734f5df675ea26,2024-11-12_10h13.41.118,Tarea de género gramatical,2024.2.2,Win32,59.52380952,,,,,,,,,,,,,,,,,,,,,,,,124.7443,125.8088,l,1,[],[],[],[],[],[],[],0.3847,1,125.8089,126.3087,,,,,,1244,FEM,AGR,150,pareja,la,a,0.3847,,126.3088,126.3088,0.424074074,-0.323148148,0,0,0,,0,21,21,343,1,,,,
,,,,,,b9bf770a8ffc46b92e57340d,66a626ef09d4e21e1a8894ec,67332a49a9734f5df675ea26,2024-11-12_10h13.41.118,Tarea de género gramatical,2024.2.2,Win32,59.52380952,,,,,,,,,,,,,,,,,,,,,,,,126.3094,127.3589,a,1,[],[],[],[],[],[],[],0.3708,1,127.359,127.8597,,,,,,1300,MAS,DIS,150,barrio,la,l,0.3708,,127.8598,127.8598,0.424074074,-0.323148148,0,0,0,,0,22,22,399,1,,,,
,,,,,,b9bf770a8ffc46b92e57340d,66a626ef09d4e21e1a8894ec,67332a49a9734f5df675ea26,2024-11-12_10h13.41.118,Tarea de género gramatical,2024.2.2,Win32,59.52380952,,,,,,,,,,,,,,,,,,,,,,,,127.862,128.9091,a,1,[],[],[],[],[],[],[],0.3685,1,128.9091,129.4091,,,,,,1198,MAS,DIS,150,botón,la,l,0.3685,,129.4091,129.4092,0.424074074,-0.323148148,0,0,0,,0,23,23,297,1,,,,
,,,,,,b9bf770a8ffc46b92e57340d,66a626ef09d4e21e1a8894ec,67332a49a9734f5df675ea26,2024-11-12_10h13.41.118,Tarea de género gramatical,2024.2.2,Win32,59.52380952,,,,,,,,,,,,,,,,,,,,,,,,129.4098,130.5422,l,1,[],[],[],[],[],[],[],0.4544,1,130.5422,131.0422,,,,,,999,FEM,CON,150,fase,,a,0.4544,,131.043,131.0433,0.424074074,-0.323148148,0,0,0,,0,24,24,98,1,,,,
,,,,,,b9bf770a8ffc46b92e57340d,66a626ef09d4e21e1a8894ec,67332a49a9734f5df675ea26,2024-11-12_10h13.41.118,Tarea de género gramatical,2024.2.2,Win32,59.52380952,,,,,,,,,,,,,,,,,,,,,,,,131.0436,132.1926,a,0,[],[],[],[],[],[],[],0.4771,0,132.1931,132.6921,,,,,,1021,FEM,DIS,150,pila,el,a,0.4771,,132.6921,132.6922,0.424074074,-0.323148148,0,0,0,,0,25,25,120,1,,,,
,,,,,,b9bf770a8ffc46b92e57340d,66a626ef09d4e21e1a8894ec,67332a49a9734f5df675ea26,2024-11-12_10h13.41.118,Tarea de género gramatical,2024.2.2,Win32,59.52380952,,,,,,,,,,,,,,,,,,,,,,,,132.6926,133.8755,a,0,[],[],[],[],[],[],[],0.5067,0,133.8756,134.3755,,,,,,1039,FEM,DIS,150,pipa,el,a,0.5067,,134.3756,134.3757,0.424074074,-0.323148148,0,0,0,,0,26,26,138,1,,,,
,,,,,,b9bf770a8ffc46b92e57340d,66a626ef09d4e21e1a8894ec,67332a49a9734f5df675ea26,2024-11-12_10h13.41.118,Tarea de género gramatical,2024.2.2,Win32,59.52380952,,,,,,,,,,,,,,,,,,,,,,,,134.3763,135.5252,a,1,[],[],[],[],[],[],[],0.4842,1,135.5256,136.0254,,,,,,1037,MAS,AGR,150,coco,el,l,0.4842,,136.0255,136.0255,0.424074074,-0.323148148,0,0,0,,0,27,27,136,1,,,,
,,,,,,b9bf770a8ffc46b92e57340d,66a626ef09d4e21e1a8894ec,67332a49a9734f5df675ea26,2024-11-12_10h13.41.118,Tarea de género gramatical,2024.2.2,Win32,59.52380952,,,,,,,,,,,,,,,,,,,,,,,,136.0262,137.1253,a,1,[],[],[],[],[],[],[],0.4214,1,137.1253,137.6258,,,,,,1019,MAS,AGR,150,mito,el,l,0.4214,,137.6258,137.6259,0.424074074,-0.323148148,0,0,0,,0,28,28,118,1,,,,
,,,,,,b9bf770a8ffc46b92e57340d,66a626ef09d4e21e1a8894ec,67332a49a9734f5df675ea26,2024-11-12_10h13.41.118,Tarea de género gramatical,2024.2.2,Win32,59.52380952,,,,,,,,,,,,,,,,,,,,,,,,137.6263,138.759,a,1,[],[],[],[],[],[],[],0.4582,1,138.759,139.2586,,,,,,936,MAS,CON,150,dedo,,l,0.4582,,139.2595,139.2598,0.424074074,-0.323148148,0,0,0,,0,29,29,35,1,,,,
,,,,,,b9bf770a8ffc46b92e57340d,66a626ef09d4e21e1a8894ec,67332a49a9734f5df675ea26,2024-11-12_10h13.41.118,Tarea de género gramatical,2024.2.2,Win32,59.52380952,,,,,,,,,,,,,,,,,,,,,,,,139.2601,140.3087,l,1,[],[],[],[],[],[],[],0.3674,1,140.3088,140.8092,,,,,,920,FEM,AGR,150,ropa,la,a,0.3674,,140.8092,140.8093,0.424074074,-0.323148148,0,0,0,,0,30,30,19,1,,,,
,,,,,,b9bf770a8ffc46b92e57340d,66a626ef09d4e21e1a8894ec,67332a49a9734f5df675ea26,2024-11-12_10h13.41.118,Tarea de género gramatical,2024.2.2,Win32,59.52380952,,,,,,,,,,,,,,,,,,,,,,,,140.8098,142.1758,a,0,[],[],[],[],[],[],[],0.6967,0,142.1762,142.6757,,,,,,1209,FEM,CON,150,esposa,,a,0.6967,,142.6757,142.6758,0.424074074,-0.323148148,0,0,0,,0,31,31,308,1,,,,
,,,,,,b9bf770a8ffc46b92e57340d,66a626ef09d4e21e1a8894ec,67332a49a9734f5df675ea26,2024-11-12_10h13.41.118,Tarea de género gramatical,2024.2.2,Win32,59.52380952,,,,,,,,,,,,,,,,,,,,,,,,142.6765,143.8919,a,0,[],[],[],[],[],[],[],0.5338,0,143.892,144.3919,,,,,,967,FEM,DIS,150,miel,el,a,0.5338,,144.392,144.3921,0.424074074,-0.323148148,0,0,0,,0,32,32,66,1,,,,
,,,,,,b9bf770a8ffc46b92e57340d,66a626ef09d4e21e1a8894ec,67332a49a9734f5df675ea26,2024-11-12_10h13.41.118,Tarea de género gramatical,2024.2.2,Win32,59.52380952,,,,,,,,,,,,,,,,,,,,,,,,144.3927,145.7916,l,1,[],[],[],[],[],[],[],0.7185,1,145.7921,146.2918,,,,,,1129,FEM,DIS,150,celda,el,a,0.7185,,146.2926,146.293,0.424074074,-0.323148148,0,0,0,,0,33,33,228,1,,,,
,,,,,,b9bf770a8ffc46b92e57340d,66a626ef09d4e21e1a8894ec,67332a49a9734f5df675ea26,2024-11-12_10h13.41.118,Tarea de género gramatical,2024.2.2,Win32,59.52380952,,,,,,,,,,,,,,,,,,,,,,,,146.2934,147.4585,l,1,[],[],[],[],[],[],[],0.4838,1,147.4586,147.9584,,,,,,1328,FEM,AGR,150,jugada,la,a,0.4838,,147.9585,147.9586,0.424074074,-0.323148148,0,0,0,,0,34,34,427,1,,,,
,,,,,,b9bf770a8ffc46b92e57340d,66a626ef09d4e21e1a8894ec,67332a49a9734f5df675ea26,2024-11-12_10h13.41.118,Tarea de género gramatical,2024.2.2,Win32,59.52380952,,,,,,,,,,,,,,,,,,,,,,,,147.959,149.1584,a,1,[],[],[],[],[],[],[],0.5211,1,149.1585,149.6589,,,,,,1176,MAS,CON,150,ritmo,,l,0.5211,,149.6589,149.659,0.424074074,-0.323148148,0,0,0,,0,35,35,275,1,,,,
,,,,,,b9bf770a8ffc46b92e57340d,66a626ef09d4e21e1a8894ec,67332a49a9734f5df675ea26,2024-11-12_10h13.41.118,Tarea de género gramatical,2024.2.2,Win32,59.52380952,,,,,,,,,,,,,,,,,,,,,,,,149.6596,151.0582,a,1,[],[],[],[],[],[],[],0.724,1,151.0582,151.5583,,,,,,1342,MAS,DIS,150,cuadro,la,l,0.724,,151.5583,151.5584,0.424074074,-0.323148148,0,0,0,,0,36,36,441,1,,,,
,,,,,,b9bf770a8ffc46b92e57340d,66a626ef09d4e21e1a8894ec,67332a49a9734f5df675ea26,2024-11-12_10h13.41.118,Tarea de género gramatical,2024.2.2,Win32,59.52380952,,,,,,,,,,,,,,,,,,,,,,,,151.559,152.5917,l,1,[],[],[],[],[],[],[],0.3519,1,152.5918,153.0917,,,,,,1305,FEM,CON,150,parada,,a,0.3519,,153.0917,153.0917,0.424074074,-0.323148148,0,0,0,,0,37,37,404,1,,,,
,,,,,,b9bf770a8ffc46b92e57340d,66a626ef09d4e21e1a8894ec,67332a49a9734f5df675ea26,2024-11-12_10h13.41.118,Tarea de género gramatical,2024.2.2,Win32,59.52380952,,,,,,,,,,,,,,,,,,,,,,,,153.0922,154.1914,a,1,[],[],[],[],[],[],[],0.4337,1,154.1915,154.6851,,,,,,1068,MAS,CON,150,sitio,,l,0.4337,,154.6859,154.6862,0.424074074,-0.323148148,0,0,0,,0,38,38,167,1,,,,
,,,,,,b9bf770a8ffc46b92e57340d,66a626ef09d4e21e1a8894ec,67332a49a9734f5df675ea26,2024-11-12_10h13.41.118,Tarea de género gramatical,2024.2.2,Win32,59.52380952,,,,,,,,,,,,,,,,,,,,,,,,154.6867,155.7915,l,1,[],[],[],[],[],[],[],0.4356,1,155.7916,156.2916,,,,,,1293,FEM,CON,150,alarma,,a,0.4356,,156.2916,156.2917,0.424074074,-0.323148148,0,0,0,,0,39,39,392,1,,,,
,,,,,,b9bf770a8ffc46b92e57340d,66a626ef09d4e21e1a8894ec,67332a49a9734f5df675ea26,2024-11-12_10h13.41.118,Tarea de género gramatical,2024.2.2,Win32,59.52380952,,,,,,,,,,,,,,,,,,,,,,,,156.2924,157.6751,a,1,[],[],[],[],[],[],[],0.7066,1,157.6751,158.1749,,,,,,1222,MAS,DIS,150,minuto,la,l,0.7066,,158.175,158.175,0.424074074,-0.323148148,0,0,0,,0,40,40,321,1,,,,
,,,,,,b9bf770a8ffc46b92e57340d,66a626ef09d4e21e1a8894ec,67332a49a9734f5df675ea26,2024-11-12_10h13.41.118,Tarea de género gramatical,2024.2.2,Win32,59.52380952,,,,,,,,,,,,,,,,,,,,,,,,158.1754,159.1582,l,1,[],[],[],[],[],[],[],0.3033,1,159.1582,159.6584,,,,,,1065,FEM,CON,150,amiga,,a,0.3033,,159.6584,159.6585,0.424074074,-0.323148148,0,0,0,,0,41,41,164,1,,,,
,,,,,,b9bf770a8ffc46b92e57340d,66a626ef09d4e21e1a8894ec,67332a49a9734f5df675ea26,2024-11-12_10h13.41.118,Tarea de género gramatical,2024.2.2,Win32,59.52380952,,,,,,,,,,,,,,,,,,,,,,,,159.6591,160.7583,a,1,[],[],[],[],[],[],[],0.4212,1,160.7584,161.258,,,,,,1296,MAS,CON,150,tesoro,,l,0.4212,,161.2587,161.2591,0.424074074,-0.323148148,0,0,0,,0,42,42,395,1,,,,
,,,,,,b9bf770a8ffc46b92e57340d,66a626ef09d4e21e1a8894ec,67332a49a9734f5df675ea26,2024-11-12_10h13.41.118,Tarea de género gramatical,2024.2.2,Win32,59.52380952,,,,,,,,,,,,,,,,,,,,,,,,161.2594,162.3917,l,1,[],[],[],[],[],[],[],0.4504,1,162.3917,162.8912,,,,,,997,FEM,DIS,150,capa,el,a,0.4504,,162.8912,162.8913,0.424074074,-0.323148148,0,0,0,,0,43,43,96,1,,,,
,,,,,,b9bf770a8ffc46b92e57340d,66a626ef09d4e21e1a8894ec,67332a49a9734f5df675ea26,2024-11-12_10h13.41.118,Tarea de género gramatical,2024.2.2,Win32,59.52380952,,,,,,,,,,,,,,,,,,,,,,,,162.8921,164.0748,a,0,[],[],[],[],[],[],[],0.5234,0,164.0754,164.5746,,,,,,1106,FEM,AGR,150,época,la,a,0.5234,,164.5746,164.5746,0.424074074,-0.323148148,0,0,0,,0,44,44,205,1,,,,
,,,,,,b9bf770a8ffc46b92e57340d,66a626ef09d4e21e1a8894ec,67332a49a9734f5df675ea26,2024-11-12_10h13.41.118,Tarea de género gramatical,2024.2.2,Win32,59.52380952,,,,,,,,,,,,,,,,,,,,,,,,164.5754,165.8583,l,1,[],[],[],[],[],[],[],0.6,1,165.8586,166.3584,,,,,,1219,FEM,DIS,150,sangre,el,a,0.6,,166.3585,166.3586,0.424074074,-0.323148148,0,0,0,,0,45,45,318,1,,,,
,,,,,,b9bf770a8ffc46b92e57340d,66a626ef09d4e21e1a8894ec,67332a49a9734f5df675ea26,2024-11-12_10h13.41.118,Tarea de género gramatical,2024.2.2,Win32,59.52380952,,,,,,,,,,,,,,,,,,,,,,,,166.3592,167.4747,l,1,[],[],[],[],[],[],[],0.4338,1,167.4747,167.9748,,,,,,1161,FEM,CON,150,cueva,,a,0.4338,,167.9748,167.9748,0.424074074,-0.323148148,0,0,0,,0,46,46,260,1,,,,
,,,,,,b9bf770a8ffc46b92e57340d,66a626ef09d4e21e1a8894ec,67332a49a9734f5df675ea26,2024-11-12_10h13.41.118,Tarea de género gramatical,2024.2.2,Win32,59.52380952,,,,,,,,,,,,,,,,,,,,,,,,167.9754,169.0245,l,1,[],[],[],[],[],[],[],0.3756,1,169.0246,169.525,,,,,,1143,FEM,CON,150,salsa,,a,0.3756,,169.5256,169.5261,0.424074074,-0.323148148,0,0,0,,0,47,47,242,1,,,,
,,,,,,b9bf770a8ffc46b92e57340d,66a626ef09d4e21e1a8894ec,67332a49a9734f5df675ea26,2024-11-12_10h13.41.118,Tarea de género gramatical,2024.2.2,Win32,59.52380952,,,,,,,,,,,,,,,,,,,,,,,,169.5265,170.5916,a,1,[],[],[],[],[],[],[],0.3836,1,170.5916,171.0916,,,,,,1206,MAS,CON,150,dinero,,l,0.3836,,171.0917,171.0917,0.424074074,-0.323148148,0,0,0,,0,48,48,305,1,,,,
,,,,,,b9bf770a8ffc46b92e57340d,66a626ef09d4e21e1a8894ec,67332a49a9734f5df675ea26,2024-11-12_10h13.41.118,Tarea de género gramatical,2024.2.2,Win32,59.52380952,,,,,,,,,,,,,,,,,,,,,,,,171.0924,172.275,a,1,[],[],[],[],[],[],[],0.5072,1,172.275,172.7748,,,,,,1151,MAS,AGR,150,dueño,el,l,0.5072,,172.7749,172.7749,0.424074074,-0.323148148,0,0,0,,0,49,49,250,1,,,,
,,,,,,b9bf770a8ffc46b92e57340d,66a626ef09d4e21e1a8894ec,67332a49a9734f5df675ea26,2024-11-12_10h13.41.118,Tarea de género gramatical,2024.2.2,Win32,59.52380952,,,,,,,,,,,,,,,,,,,,,,,,172.7756,173.7916,l,1,[],[],[],[],[],[],[],0.3349,1,173.7917,174.2915,,,,,,1094,FEM,AGR,150,banda,la,a,0.3349,,174.2915,174.2916,0.424074074,-0.323148148,0,0,0,,0,50,50,193,1,,,,
,,,,,,b9bf770a8ffc46b92e57340d,66a626ef09d4e21e1a8894ec,67332a49a9734f5df675ea26,2024-11-12_10h13.41.118,Tarea de género gramatical,2024.2.2,Win32,59.52380952,,,,,,,,,,,,,,,,,,,,,,,,174.2921,175.5914,l,1,[],[],[],[],[],[],[],0.6168,1,175.5915,176.0908,,,,,,955,FEM,DIS,150,taza,el,a,0.6168,,176.0916,176.092,0.424074074,-0.323148148,0,0,0,,0,51,51,54,1,,,,
,,,,,,b9bf770a8ffc46b92e57340d,66a626ef09d4e21e1a8894ec,67332a49a9734f5df675ea26,2024-11-12_10h13.41.118,Tarea de género gramatical,2024.2.2,Win32,59.52380952,,,,,,,,,,,,,,,,,,,,,,,,176.0924,177.1076,l,1,[],[],[],[],[],[],[],0.3339,1,177.1076,177.6076,,,,,,1239,FEM,CON,150,salida,,a,0.3339,,177.6076,177.6076,0.424074074,-0.323148148,0,0,0,,0,52,52,338,1,,,,
,,,,,,b9bf770a8ffc46b92e57340d,66a626ef09d4e21e1a8894ec,67332a49a9734f5df675ea26,2024-11-12_10h13.41.118,Tarea de género gramatical,2024.2.2,Win32,59.52380952,,,,,,,,,,,,,,,,,,,,,,,,177.6081,178.7577,l,1,[],[],[],[],[],[],[],0.4701,1,178.7578,179.2575,,,,,,998,FEM,AGR,150,fuga,la,a,0.4701,,179.2575,179.2576,0.424074074,-0.323148148,0,0,0,,0,53,53,97,1,,,,
,,,,,,b9bf770a8ffc46b92e57340d,66a626ef09d4e21e1a8894ec,67332a49a9734f5df675ea26,2024-11-12_10h13.41.118,Tarea de género gramatical,2024.2.2,Win32,59.52380952,,,,,,,,,,,,,,,,,,,,,,,,179.2581,180.3579,l,1,[],[],[],[],[],[],[],0.4174,1,180.358,180.8576,,,,,,975,FEM,CON,150,caza,,a,0.4174,,180.8576,180.8577,0.424074074,-0.323148148,0,0,0,,0,54,54,74,1,,,,
,,,,,,b9bf770a8ffc46b92e57340d,66a626ef09d4e21e1a8894ec,67332a49a9734f5df675ea26,2024-11-12_10h13.41.118,Tarea de género gramatical,2024.2.2,Win32,59.52380952,,,,,,,,,,,,,,,,,,,,,,,,180.8582,181.9742,l,1,[],[],[],[],[],[],[],0.436,1,181.9743,182.4742,,,,,,957,FEM,CON,150,moda,,a,0.436,,182.4743,182.4743,0.424074074,-0.323148148,0,0,0,,0,55,55,56,1,,,,
,,,,,,b9bf770a8ffc46b92e57340d,66a626ef09d4e21e1a8894ec,67332a49a9734f5df675ea26,2024-11-12_10h13.41.118,Tarea de género gramatical,2024.2.2,Win32,59.52380952,,,,,,,,,,,,,,,,,,,,,,,,182.4748,183.5741,l,1,[],[],[],[],[],[],[],0.4199,1,183.5742,184.0741,,,,,,1124,FEM,AGR,150,arena,la,a,0.4199,,184.0747,184.075,0.424074074,-0.323148148,0,0,0,,0,56,56,223,1,,,,
,,,,,,b9bf770a8ffc46b92e57340d,66a626ef09d4e21e1a8894ec,67332a49a9734f5df675ea26,2024-11-12_10h13.41.118,Tarea de género gramatical,2024.2.2,Win32,59.52380952,,,,,,,,,,,,,,,,,,,,,,,,184.0754,185.2073,a,1,[],[],[],[],[],[],[],0.4512,1,185.2074,185.7074,,,,,,1271,MAS,AGR,150,sonido,el,l,0.4512,,185.7074,185.7074,0.424074074,-0.323148148,0,0,0,,0,57,57,370,1,,,,
,,,,,,b9bf770a8ffc46b92e57340d,66a626ef09d4e21e1a8894ec,67332a49a9734f5df675ea26,2024-11-12_10h13.41.118,Tarea de género gramatical,2024.2.2,Win32,59.52380952,,,,,,,,,,,,,,,,,,,,,,,,185.708,186.8081,l,1,[],[],[],[],[],[],[],0.4261,1,186.8082,187.3073,,,,,,1053,FEM,CON,150,mujer,,a,0.4261,,187.3073,187.3074,0.424074074,-0.323148148,0,0,0,,0,58,58,152,1,,,,
,,,,,,b9bf770a8ffc46b92e57340d,66a626ef09d4e21e1a8894ec,67332a49a9734f5df675ea26,2024-11-12_10h13.41.118,Tarea de género gramatical,2024.2.2,Win32,59.52380952,,,,,,,,,,,,,,,,,,,,,,,,187.308,188.4244,a,1,[],[],[],[],[],[],[],0.4422,1,188.4244,188.924,,,,,,1192,MAS,DIS,150,piano,la,l,0.4422,,188.924,188.9242,0.424074074,-0.323148148,0,0,0,,0,59,59,291,1,,,,
,,,,,,b9bf770a8ffc46b92e57340d,66a626ef09d4e21e1a8894ec,67332a49a9734f5df675ea26,2024-11-12_10h13.41.118,Tarea de género gramatical,2024.2.2,Win32,59.52380952,,,,,,,,,,,,,,,,,,,,,,,,188.9246,190.057,l,1,[],[],[],[],[],[],[],0.4575,1,190.0571,190.5573,,,,,,926,FEM,AGR,150,pena,la,a,0.4575,,190.558,190.5583,0.424074074,-0.323148148,0,0,0,,0,60,60,25,1,,,,
,,,,,,b9bf770a8ffc46b92e57340d,66a626ef09d4e21e1a8894ec,67332a49a9734f5df675ea26,2024-11-12_10h13.41.118,Tarea de género gramatical,2024.2.2,Win32,59.52380952,,,,,,,,,,,,,,,,,,,,,,,,190.5586,191.6241,a,1,[],[],[],[],[],[],[],0.3843,1,191.6242,192.1237,,,,,,1230,MAS,CON,150,estado,,l,0.3843,,192.1237,192.1237,0.424074074,-0.323148148,0,0,0,,0,61,61,329,1,,,,
,,,,,,b9bf770a8ffc46b92e57340d,66a626ef09d4e21e1a8894ec,67332a49a9734f5df675ea26,2024-11-12_10h13.41.118,Tarea de género gramatical,2024.2.2,Win32,59.52380952,,,,,,,,,,,,,,,,,,,,,,,,192.1243,193.391,a,1,[],[],[],[],[],[],[],0.6018,1,193.391,193.8902,,,,,,1338,MAS,CON,150,tanque,,l,0.6018,,193.8903,193.8903,0.424074074,-0.323148148,0,0,0,,0,62,62,437,1,,,,
,,,,,,b9bf770a8ffc46b92e57340d,66a626ef09d4e21e1a8894ec,67332a49a9734f5df675ea26,2024-11-12_10h13.41.118,Tarea de género gramatical,2024.2.2,Win32,59.52380952,,,,,,,,,,,,,,,,,,,,,,,,193.891,195.041,l,1,[],[],[],[],[],[],[],0.4673,1,195.0411,195.5408,,,,,,1322,FEM,AGR,150,rutina,la,a,0.4673,,195.5408,195.5408,0.424074074,-0.323148148,0,0,0,,0,63,63,421,1,,,,
,,,,,,b9bf770a8ffc46b92e57340d,66a626ef09d4e21e1a8894ec,67332a49a9734f5df675ea26,2024-11-12_10h13.41.118,Tarea de género gramatical,2024.2.2,Win32,59.52380952,,,,,,,,,,,,,,,,,,,,,,,,195.5416,196.924,l,1,[],[],[],[],[],[],[],0.7004,1,196.924,197.4241,,,,,,1033,FEM,DIS,150,joya,el,a,0.7004,,197.4241,197.4242,0.424074074,-0.323148148,0,0,0,,0,64,64,132,1,,,,
,,,,,,b9bf770a8ffc46b92e57340d,66a626ef09d4e21e1a8894ec,67332a49a9734f5df675ea26,2024-11-12_10h13.41.118,Tarea de género gramatical,2024.2.2,Win32,59.52380952,,,,,,,,,,,,,,,,,,,,,,,,197.4248,198.5567,a,1,[],[],[],[],[],[],[],0.4533,1,198.5568,199.0575,,,,,,1048,MAS,DIS,150,surf,la,l,0.4533,,199.0582,199.0585,0.424074074,-0.323148148,0,0,0,,0,65,65,147,1,,,,
,,,,,,b9bf770a8ffc46b92e57340d,66a626ef09d4e21e1a8894ec,67332a49a9734f5df675ea26,2024-11-12_10h13.41.118,Tarea de género gramatical,2024.2.2,Win32,59.52380952,,,,,,,,,,,,,,,,,,,,,,,,199.0589,200.4406,a,1,[],[],[],[],[],[],[],0.7003,1,200.4407,200.9403,,,,,,1044,MAS,CON,150,amor,,l,0.7003,,200.9403,200.9404,0.424074074,-0.323148148,0,0,0,,0,66,66,143,1,,,,
,,,,,,b9bf770a8ffc46b92e57340d,66a626ef09d4e21e1a8894ec,67332a49a9734f5df675ea26,2024-11-12_10h13.41.118,Tarea de género gramatical,2024.2.2,Win32,59.52380952,,,,,,,,,,,,,,,,,,,,,,,,200.9408,202.0575,a,1,[],[],[],[],[],[],[],0.4504,1,202.0576,202.5571,,,,,,1295,MAS,AGR,150,correo,el,l,0.4504,,202.5572,202.5572,0.424074074,-0.323148148,0,0,0,,0,67,67,394,1,,,,
,,,,,,b9bf770a8ffc46b92e57340d,66a626ef09d4e21e1a8894ec,67332a49a9734f5df675ea26,2024-11-12_10h13.41.118,Tarea de género gramatical,2024.2.2,Win32,59.52380952,,,,,,,,,,,,,,,,,,,,,,,,202.5579,203.7068,a,1,[],[],[],[],[],[],[],0.4669,1,203.7069,204.207,,,,,,1258,MAS,DIS,150,motivo,la,l,0.4669,,204.2071,204.2071,0.424074074,-0.323148148,0,0,0,,0,68,68,357,1,,,,
,,,,,,b9bf770a8ffc46b92e57340d,66a626ef09d4e21e1a8894ec,67332a49a9734f5df675ea26,2024-11-12_10h13.41.118,Tarea de género gramatical,2024.2.2,Win32,59.52380952,,,,,,,,,,,,,,,,,,,,,,,,204.2078,205.3572,a,1,[],[],[],[],[],[],[],0.4872,1,205.3573,205.8566,,,,,,1302,MAS,CON,150,ladrón,,l,0.4872,,205.8573,205.8577,0.424074074,-0.323148148,0,0,0,,0,69,69,401,1,,,,
,,,,,,b9bf770a8ffc46b92e57340d,66a626ef09d4e21e1a8894ec,67332a49a9734f5df675ea26,2024-11-12_10h13.41.118,Tarea de género gramatical,2024.2.2,Win32,59.52380952,,,,,,,,,,,,,,,,,,,,,,,,205.8581,206.9235,a,1,[],[],[],[],[],[],[],0.3839,1,206.9236,207.4235,,,,,,1008,MAS,CON,150,hilo,,l,0.3839,,207.4235,207.4235,0.424074074,-0.323148148,0,0,0,,0,70,70,107,1,,,,
,,,,,,b9bf770a8ffc46b92e57340d,66a626ef09d4e21e1a8894ec,67332a49a9734f5df675ea26,2024-11-12_10h13.41.118,Tarea de género gramatical,2024.2.2,Win32,59.52380952,,,,,,,,,,,,,,,,,,,,,,,,207.424,208.6403,a,1,[],[],[],[],[],[],[],0.5415,1,208.6405,209.1401,,,,,,1248,MAS,CON,150,anillo,,l,0.5415,,209.1401,209.1402,0.424074074,-0.323148148,0,0,0,,0,71,71,347,1,,,,
,,,,,,b9bf770a8ffc46b92e57340d,66a626ef09d4e21e1a8894ec,67332a49a9734f5df675ea26,2024-11-12_10h13.41.118,Tarea de género gramatical,2024.2.2,Win32,59.52380952,,,,,,,,,,,,,,,,,,,,,,,,209.1406,210.1734,l,1,[],[],[],[],[],[],[],0.3528,1,210.1735,210.6734,,,,,,1075,FEM,DIS,150,señal,el,a,0.3528,,210.6734,210.6735,0.424074074,-0.323148148,0,0,0,,0,72,72,174,1,,,,
,,,,,,b9bf770a8ffc46b92e57340d,66a626ef09d4e21e1a8894ec,67332a49a9734f5df675ea26,2024-11-12_10h13.41.118,Tarea de género gramatical,2024.2.2,Win32,59.52380952,,,,,,,,,,,,,,,,,,,,,,,,210.6739,211.7736,l,1,[],[],[],[],[],[],[],0.4168,1,211.7736,212.2732,,,,,,1183,FEM,DIS,150,pluma,el,a,0.4168,,212.2733,212.2734,0.424074074,-0.323148148,0,0,0,,0,73,73,282,1,,,,
,,,,,,b9bf770a8ffc46b92e57340d,66a626ef09d4e21e1a8894ec,67332a49a9734f5df675ea26,2024-11-12_10h13.41.118,Tarea de género gramatical,2024.2.2,Win32,59.52380952,,,,,,,,,,,,,,,,,,,,,,,,212.2739,213.2901,l,1,[],[],[],[],[],[],[],0.3333,1,213.2901,213.79,,,,,,1147,FEM,DIS,150,frase,el,a,0.3333,,213.7906,213.7909,0.424074074,-0.323148148,0,0,0,,0,74,74,246,1,,,,
,,,,,,b9bf770a8ffc46b92e57340d,66a626ef09d4e21e1a8894ec,67332a49a9734f5df675ea26,2024-11-12_10h13.41.118,Tarea de género gramatical,2024.2.2,Win32,59.52380952,,,,,,,,,,,,,,,,,,,,,,,,213.7913,214.9733,l,1,[],[],[],[],[],[],[],0.5004,1,214.9734,215.4732,,,,,,1064,FEM,AGR,150,novia,la,a,0.5004,,215.4732,215.4733,0.424074074,-0.323148148,0,0,0,,0,75,75,163,1,,,,
,,,,,,b9bf770a8ffc46b92e57340d,66a626ef09d4e21e1a8894ec,67332a49a9734f5df675ea26,2024-11-12_10h13.41.118,Tarea de género gramatical,2024.2.2,Win32,59.52380952,,,,,,,,,,,,,,,,,,,,,,,,215.4738,216.6399,a,1,[],[],[],[],[],[],[],0.4835,1,216.6399,217.1399,,,,,,1332,MAS,CON,150,océano,,l,0.4835,,217.1399,217.14,0.424074074,-0.323148148,0,0,0,,0,76,76,431,1,,,,
,,,,,,b9bf770a8ffc46b92e57340d,66a626ef09d4e21e1a8894ec,67332a49a9734f5df675ea26,2024-11-12_10h13.41.118,Tarea de género gramatical,2024.2.2,Win32,59.52380952,,,,,,,,,,,,,,,,,,,,,,,,217.1405,218.4064,l,1,[],[],[],[],[],[],[],0.5838,1,218.4065,218.9064,,,,,,1009,FEM,DIS,150,gota,el,a,0.5838,,218.9064,218.9064,0.424074074,-0.323148148,0,0,0,,0,77,77,108,1,,,,
,,,,,,b9bf770a8ffc46b92e57340d,66a626ef09d4e21e1a8894ec,67332a49a9734f5df675ea26,2024-11-12_10h13.41.118,Tarea de género gramatical,2024.2.2,Win32,59.52380952,,,,,,,,,,,,,,,,,,,,,,,,218.907,219.9396,l,1,[],[],[],[],[],[],[],0.3506,1,219.9397,220.4398,,,,,,1215,FEM,CON,150,manera,,a,0.3506,,220.4403,220.4407,0.424074074,-0.323148148,0,0,0,,0,78,78,314,1,,,,
,,,,,,b9bf770a8ffc46b92e57340d,66a626ef09d4e21e1a8894ec,67332a49a9734f5df675ea26,2024-11-12_10h13.41.118,Tarea de género gramatical,2024.2.2,Win32,59.52380952,,,,,,,,,,,,,,,,,,,,,,,,220.441,221.5065,a,1,[],[],[],[],[],[],[],0.384,1,221.5065,222.0063,,,,,,947,MAS,AGR,150,olor,el,l,0.384,,222.0063,222.0065,0.424074074,-0.323148148,0,0,0,,0,79,79,46,1,,,,
,,,,,,b9bf770a8ffc46b92e57340d,66a626ef09d4e21e1a8894ec,67332a49a9734f5df675ea26,2024-11-12_10h13.41.118,Tarea de género gramatical,2024.2.2,Win32,59.52380952,,,,,,,,,,,,,,,,,,,,,,,,222.0069,223.1395,l,1,[],[],[],[],[],[],[],0.4542,1,223.1396,223.6395,,,,,,903,FEM,CON,150,cosa,,a,0.4542,,223.6395,223.6397,0.424074074,-0.323148148,0,0,0,,0,80,80,2,1,,,,
,,,,,,b9bf770a8ffc46b92e57340d,66a626ef09d4e21e1a8894ec,67332a49a9734f5df675ea26,2024-11-12_10h13.41.118,Tarea de género gramatical,2024.2.2,Win32,59.52380952,,,,,,,,,,,,,,,,,,,,,,,,223.6401,224.8728,l,1,[],[],[],[],[],[],[],0.557,1,224.8728,225.373,,,,,,1291,FEM,DIS,150,altura,el,a,0.557,,225.373,225.3731,0.424074074,-0.323148148,0,0,0,,0,81,81,390,1,,,,
,,,,,,b9bf770a8ffc46b92e57340d,66a626ef09d4e21e1a8894ec,67332a49a9734f5df675ea26,2024-11-12_10h13.41.118,Tarea de género gramatical,2024.2.2,Win32,59.52380952,,,,,,,,,,,,,,,,,,,,,,,,225.3736,226.6232,a,1,[],[],[],[],[],[],[],0.5842,1,226.6233,227.1228,,,,,,1133,MAS,AGR,150,golpe,el,l,0.5842,,227.1229,227.1229,0.424074074,-0.323148148,0,0,0,,0,82,82,232,1,,,,
,,,,,,b9bf770a8ffc46b92e57340d,66a626ef09d4e21e1a8894ec,67332a49a9734f5df675ea26,2024-11-12_10h13.41.118,Tarea de género gramatical,2024.2.2,Win32,59.52380952,,,,,,,,,,,,,,,,,,,,,,,,227.1234,228.3226,l,1,[],[],[],[],[],[],[],0.5174,1,228.3227,228.8228,,,,,,985,FEM,DIS,150,gira,el,a,0.5174,,228.8233,228.8236,0.424074074,-0.323148148,0,0,0,,0,83,83,84,1,,,,
,,,,,,b9bf770a8ffc46b92e57340d,66a626ef09d4e21e1a8894ec,67332a49a9734f5df675ea26,2024-11-12_10h13.41.118,Tarea de género gramatical,2024.2.2,Win32,59.52380952,,,,,,,,,,,,,,,,,,,,,,,,228.8239,230.0732,l,1,[],[],[],[],[],[],[],0.567,1,230.0732,230.5733,,,,,,1081,FEM,DIS,150,tarde,el,a,0.567,,230.5734,230.5734,0.424074074,-0.323148148,0,0,0,,0,84,84,180,1,,,,
,,,,,,b9bf770a8ffc46b92e57340d,66a626ef09d4e21e1a8894ec,67332a49a9734f5df675ea26,2024-11-12_10h13.41.118,Tarea de género gramatical,2024.2.2,Win32,59.52380952,,,,,,,,,,,,,,,,,,,,,,,,230.5739,231.7563,l,1,[],[],[],[],[],[],[],0.5002,1,231.7564,232.2561,,,,,,939,FEM,CON,150,luna,,a,0.5002,,232.2561,232.2562,0.424074074,-0.323148148,0,0,0,,0,85,85,38,1,,,,
,,,,,,b9bf770a8ffc46b92e57340d,66a626ef09d4e21e1a8894ec,67332a49a9734f5df675ea26,2024-11-12_10h13.41.118,Tarea de género gramatical,2024.2.2,Win32,59.52380952,,,,,,,,,,,,,,,,,,,,,,,,232.2568,233.4068,l,1,[],[],[],[],[],[],[],0.4681,1,233.4069,233.906,,,,,,1041,FEM,CON,150,cera,,a,0.4681,,233.906,233.9061,0.424074074,-0.323148148,0,0,0,,0,86,86,140,1,,,,
,,,,,,b9bf770a8ffc46b92e57340d,66a626ef09d4e21e1a8894ec,67332a49a9734f5df675ea26,2024-11-12_10h13.41.118,Tarea de género gramatical,2024.2.2,Win32,59.52380952,,,,,,,,,,,,,,,,,,,,,,,,233.9068,235.2728,l,1,[],[],[],[],[],[],[],0.6837,1,235.273,235.7725,,,,,,1141,FEM,DIS,150,pasta,el,a,0.6837,,235.7731,235.7734,0.424074074,-0.323148148,0,0,0,,0,87,87,240,1,,,,
,,,,,,b9bf770a8ffc46b92e57340d,66a626ef09d4e21e1a8894ec,67332a49a9734f5df675ea26,2024-11-12_10h13.41.118,Tarea de género gramatical,2024.2.2,Win32,59.52380952,,,,,,,,,,,,,,,,,,,,,,,,235.7739,236.9062,l,1,[],[],[],[],[],[],[],0.4503,1,236.9062,237.4064,,,,,,913,FEM,DIS,150,hija,el,a,0.4503,,237.4064,237.4065,0.424074074,-0.323148148,0,0,0,,0,88,88,12,1,,,,
,,,,,,b9bf770a8ffc46b92e57340d,66a626ef09d4e21e1a8894ec,67332a49a9734f5df675ea26,2024-11-12_10h13.41.118,Tarea de género gramatical,2024.2.2,Win32,59.52380952,,,,,,,,,,,,,,,,,,,,,,,,237.4071,238.489,a,1,[],[],[],[],[],[],[],0.4067,1,238.4891,238.9892,,,,,,1290,MAS,CON,150,rostro,,l,0.4067,,238.9892,238.9892,0.424074074,-0.323148148,0,0,0,,0,89,89,389,1,,,,
,,,,,,b9bf770a8ffc46b92e57340d,66a626ef09d4e21e1a8894ec,67332a49a9734f5df675ea26,2024-11-12_10h13.41.118,Tarea de género gramatical,2024.2.2,Win32,59.52380952,,,,,,,,,,,,,,,,,,,,,,,,238.9897,240.073,a,1,[],[],[],[],[],[],[],0.4172,1,240.073,240.5722,,,,,,916,MAS,DIS,150,baño,la,l,0.4172,,240.5722,240.5722,0.424074074,-0.323148148,0,0,0,,0,90,90,15,1,,,,
,,,,,,b9bf770a8ffc46b92e57340d,66a626ef09d4e21e1a8894ec,67332a49a9734f5df675ea26,2024-11-12_10h13.41.118,Tarea de género gramatical,2024.2.2,Win32,59.52380952,,,,,,,,,,,,,,,,,,,,,,,,240.573,241.6893,l,1,[],[],[],[],[],[],[],0.4339,1,241.6893,242.1894,,,,,,1315,FEM,DIS,150,cabina,el,a,0.4339,,242.1894,242.1895,0.424074074,-0.323148148,0,0,0,,0,91,91,414,1,,,,
,,,,,,b9bf770a8ffc46b92e57340d,66a626ef09d4e21e1a8894ec,67332a49a9734f5df675ea26,2024-11-12_10h13.41.118,Tarea de género gramatical,2024.2.2,Win32,59.52380952,,,,,,,,,,,,,,,,,,,,,,,,242.1901,243.3728,l,1,[],[],[],[],[],[],[],0.5003,1,243.3729,243.8728,,,,,,1159,FEM,DIS,150,prima,el,a,0.5003,,243.8737,243.8741,0.424074074,-0.323148148,0,0,0,,0,92,92,258,1,,,,
,,,,,,b9bf770a8ffc46b92e57340d,66a626ef09d4e21e1a8894ec,67332a49a9734f5df675ea26,2024-11-12_10h13.41.118,Tarea de género gramatical,2024.2.2,Win32,59.52380952,,,,,,,,,,,,,,,,,,,,,,,,243.8746,244.9721,a,1,[],[],[],[],[],[],[],0.417,1,244.9722,245.4726,,,,,,1122,MAS,CON,150,valor,,l,0.417,,245.4726,245.4726,0.424074074,-0.323148148,0,0,0,,0,93,93,221,1,,,,
,,,,,,b9bf770a8ffc46b92e57340d,66a626ef09d4e21e1a8894ec,67332a49a9734f5df675ea26,2024-11-12_10h13.41.118,Tarea de género gramatical,2024.2.2,Win32,59.52380952,,,,,,,,,,,,,,,,,,,,,,,,245.4731,246.5394,a,1,[],[],[],[],[],[],[],0.3879,1,246.5395,247.0389,,,,,,965,MAS,AGR,150,rayo,el,l,0.3879,,247.039,247.0391,0.424074074,-0.323148148,0,0,0,,0,94,94,64,1,,,,
,,,,,,b9bf770a8ffc46b92e57340d,66a626ef09d4e21e1a8894ec,67332a49a9734f5df675ea26,2024-11-12_10h13.41.118,Tarea de género gramatical,2024.2.2,Win32,59.52380952,,,,,,,,,,,,,,,,,,,,,,,,247.0396,248.2062,a,1,[],[],[],[],[],[],[],0.4834,1,248.2062,248.7062,,,,,,1000,MAS,DIS,150,nido,la,l,0.4834,,248.7063,248.7063,0.424074074,-0.323148148,0,0,0,,0,95,95,99,1,,,,
,,,,,,b9bf770a8ffc46b92e57340d,66a626ef09d4e21e1a8894ec,67332a49a9734f5df675ea26,2024-11-12_10h13.41.118,Tarea de género gramatical,2024.2.2,Win32,59.52380952,,,,,,,,,,,,,,,,,,,,,,,,248.707,249.9391,a,1,[],[],[],[],[],[],[],0.5511,1,249.9392,250.4387,,,,,,1014,MAS,CON,150,menú,,l,0.5511,,250.4393,250.4396,0.424074074,-0.323148148,0,0,0,,0,96,96,113,1,,,,
,,,,,,b9bf770a8ffc46b92e57340d,66a626ef09d4e21e1a8894ec,67332a49a9734f5df675ea26,2024-11-12_10h13.41.118,Tarea de género gramatical,2024.2.2,Win32,59.52380952,,,,,,,,,,,,,,,,,,,,,,,,250.44,251.5888,a,1,[],[],[],[],[],[],[],0.4673,1,251.5888,252.0888,,,,,,1186,MAS,DIS,150,reino,la,l,0.4673,,252.0889,252.0889,0.424074074,-0.323148148,0,0,0,,0,97,97,285,1,,,,
,,,,,,b9bf770a8ffc46b92e57340d,66a626ef09d4e21e1a8894ec,67332a49a9734f5df675ea26,2024-11-12_10h13.41.118,Tarea de género gramatical,2024.2.2,Win32,59.52380952,,,,,,,,,,,,,,,,,,,,,,,,252.0894,253.1892,l,1,[],[],[],[],[],[],[],0.4189,1,253.1893,253.6894,,,,,,1303,FEM,DIS,150,paliza,el,a,0.4189,,253.6894,253.6894,0.424074074,-0.323148148,0,0,0,,0,98,98,402,1,,,,
,,,,,,b9bf770a8ffc46b92e57340d,66a626ef09d4e21e1a8894ec,67332a49a9734f5df675ea26,2024-11-12_10h13.41.118,Tarea de género gramatical,2024.2.2,Win32,59.52380952,,,,,,,,,,,,,,,,,,,,,,,,253.69,254.806,a,1,[],[],[],[],[],[],[],0.4344,1,254.806,255.3059,,,,,,1080,MAS,CON,150,fuego,,l,0.4344,,255.3059,255.3059,0.424074074,-0.323148148,0,0,0,,0,99,99,179,1,,,,
,,,,,,b9bf770a8ffc46b92e57340d,66a626ef09d4e21e1a8894ec,67332a49a9734f5df675ea26,2024-11-12_10h13.41.118,Tarea de género gramatical,2024.2.2,Win32,59.52380952,,,,,,,,,,,,,,,,,,,,,,,,255.3065,256.4888,a,1,[],[],[],[],[],[],[],0.5006,1,256.4889,256.9884,,,,,,911,MAS,AGR,150,país,el,l,0.5006,,256.9884,256.9885,0.424074074,-0.323148148,0,0,0,,0,100,100,10,1,,,,
,,,,,,b9bf770a8ffc46b92e57340d,66a626ef09d4e21e1a8894ec,67332a49a9734f5df675ea26,2024-11-12_10h13.41.118,Tarea de género gramatical,2024.2.2,Win32,59.52380952,,,,,,,,,,,,,,,,,,,,,,,,256.9891,258.1554,a,1,[],[],[],[],[],[],[],0.5038,1,258.1555,258.656,,,,,,1018,MAS,DIS,150,baúl,la,l,0.5038,,258.657,258.6577,0.424074074,-0.323148148,0,0,0,,0,101,101,117,1,,,,
,,,,,,b9bf770a8ffc46b92e57340d,66a626ef09d4e21e1a8894ec,67332a49a9734f5df675ea26,2024-11-12_10h13.41.118,Tarea de género gramatical,2024.2.2,Win32,59.52380952,,,,,,,,,,,,,,,,,,,,,,,,258.6583,259.6883,l,1,[],[],[],[],[],[],[],0.356,1,259.6884,260.1885,,,,,,1177,FEM,DIS,150,plaza,el,a,0.356,,260.1885,260.1886,0.424074074,-0.323148148,0,0,0,,0,102,102,276,1,,,,
,,,,,,b9bf770a8ffc46b92e57340d,66a626ef09d4e21e1a8894ec,67332a49a9734f5df675ea26,2024-11-12_10h13.41.118,Tarea de género gramatical,2024.2.2,Win32,59.52380952,,,,,,,,,,,,,,,,,,,,,,,,260.1893,261.4,l,1,[],[],[],[],[],[],[],0.5343,1,261.4,261.899,,,,,,1118,FEM,AGR,150,nieve,la,a,0.5343,,261.8991,261.8992,0.424074074,-0.323148148,0,0,0,,0,103,103,217,1,,,,
,,,,,,b9bf770a8ffc46b92e57340d,66a626ef09d4e21e1a8894ec,67332a49a9734f5df675ea26,2024-11-12_10h13.41.118,Tarea de género gramatical,2024.2.2,Win32,59.52380952,,,,,,,,,,,,,,,,,,,,,,,,261.8997,262.9552,l,1,[],[],[],[],[],[],[],0.3868,1,262.9552,263.4555,,,,,,1316,FEM,AGR,150,colina,la,a,0.3868,,263.4555,263.4556,0.424074074,-0.323148148,0,0,0,,0,104,104,415,1,,,,
,,,,,,b9bf770a8ffc46b92e57340d,66a626ef09d4e21e1a8894ec,67332a49a9734f5df675ea26,2024-11-12_10h13.41.118,Tarea de género gramatical,2024.2.2,Win32,59.52380952,,,,,,,,,,,,,,,,,,,,,,,,263.4561,264.5553,l,1,[],[],[],[],[],[],[],0.4174,1,264.5553,265.0555,,,,,,968,FEM,AGR,150,pata,la,a,0.4174,,265.0563,265.0566,0.424074074,-0.323148148,0,0,0,,0,105,105,67,1,,,,
,,,,,,b9bf770a8ffc46b92e57340d,66a626ef09d4e21e1a8894ec,67332a49a9734f5df675ea26,2024-11-12_10h13.41.118,Tarea de género gramatical,2024.2.2,Win32,59.52380952,,,,,,,,,,,,,,,,,,,,,,,,265.057,266.1717,a,1,[],[],[],[],[],[],[],0.4338,1,266.1718,266.6717,,,,,,1181,MAS,AGR,150,actor,el,l,0.4338,,266.6717,266.6717,0.424074074,-0.323148148,0,0,0,,0,106,106,280,1,,,,
,,,,,,b9bf770a8ffc46b92e57340d,66a626ef09d4e21e1a8894ec,67332a49a9734f5df675ea26,2024-11-12_10h13.41.118,Tarea de género gramatical,2024.2.2,Win32,59.52380952,,,,,,,,,,,,,,,,,,,,,,,,266.6723,267.7555,a,1,[],[],[],[],[],[],[],0.4169,1,267.7555,268.2547,,,,,,1157,MAS,AGR,150,pecho,el,l,0.4169,,268.2547,268.2548,0.424074074,-0.323148148,0,0,0,,0,107,107,256,1,,,,
,,,,,,b9bf770a8ffc46b92e57340d,66a626ef09d4e21e1a8894ec,67332a49a9734f5df675ea26,2024-11-12_10h13.41.118,Tarea de género gramatical,2024.2.2,Win32,59.52380952,,,,,,,,,,,,,,,,,,,,,,,,268.2552,269.3213,l,1,[],[],[],[],[],[],[],0.4006,1,269.3215,269.8221,,,,,,1299,FEM,CON,150,charla,,a,0.4006,,269.8221,269.8221,0.424074074,-0.323148148,0,0,0,,0,108,108,398,1,,,,
,,,,,,b9bf770a8ffc46b92e57340d,66a626ef09d4e21e1a8894ec,67332a49a9734f5df675ea26,2024-11-12_10h13.41.118,Tarea de género gramatical,2024.2.2,Win32,59.52380952,,,,,,,,,,,,,,,,,,,,,,,,269.8228,270.8553,l,1,[],[],[],[],[],[],[],0.3504,1,270.8553,271.3553,,,,,,909,FEM,CON,150,mamá,,a,0.3504,,271.3554,271.3554,0.424074074,-0.323148148,0,0,0,,0,109,109,8,1,,,,
,,,,,,b9bf770a8ffc46b92e57340d,66a626ef09d4e21e1a8894ec,67332a49a9734f5df675ea26,2024-11-12_10h13.41.118,Tarea de género gramatical,2024.2.2,Win32,59.52380952,,,,,,,,,,,,,,,,,,,,,,,,271.3559,272.4713,l,1,[],[],[],[],[],[],[],0.4338,1,272.4713,272.9715,,,,,,1196,FEM,AGR,150,feria,la,a,0.4338,,272.972,272.9724,0.424074074,-0.323148148,0,0,0,,0,110,110,295,1,,,,
,,,,,,b9bf770a8ffc46b92e57340d,66a626ef09d4e21e1a8894ec,67332a49a9734f5df675ea26,2024-11-12_10h13.41.118,Tarea de género gramatical,2024.2.2,Win32,59.52380952,,,,,,,,,,,,,,,,,,,,,,,,272.9727,273.9548,l,1,[],[],[],[],[],[],[],0.3036,1,273.9548,274.4551,,,,,,1165,FEM,DIS,150,rueda,el,a,0.3036,,274.4551,274.4552,0.424074074,-0.323148148,0,0,0,,0,111,111,264,1,,,,
,,,,,,b9bf770a8ffc46b92e57340d,66a626ef09d4e21e1a8894ec,67332a49a9734f5df675ea26,2024-11-12_10h13.41.118,Tarea de género gramatical,2024.2.2,Win32,59.52380952,,,,,,,,,,,,,,,,,,,,,,,,274.4558,275.5382,l,1,[],[],[],[],[],[],[],0.4005,1,275.5382,276.0379,,,,,,1077,FEM,CON,150,broma,,a,0.4005,,276.0379,276.0379,0.424074074,-0.323148148,0,0,0,,0,112,112,176,1,,,,
,,,,,,b9bf770a8ffc46b92e57340d,66a626ef09d4e21e1a8894ec,67332a49a9734f5df675ea26,2024-11-12_10h13.41.118,Tarea de género gramatical,2024.2.2,Win32,59.52380952,,,,,,,,,,,,,,,,,,,,,,,,276.0386,277.0549,a,1,[],[],[],[],[],[],[],0.3338,1,277.0549,277.5547,,,,,,1236,MAS,CON,150,crimen,,l,0.3338,,277.5548,277.5548,0.424074074,-0.323148148,0,0,0,,0,113,113,335,1,,,,
,,,,,,b9bf770a8ffc46b92e57340d,66a626ef09d4e21e1a8894ec,67332a49a9734f5df675ea26,2024-11-12_10h13.41.118,Tarea de género gramatical,2024.2.2,Win32,59.52380952,,,,,,,,,,,,,,,,,,,,,,,,277.5555,278.5381,a,1,[],[],[],[],[],[],[],0.3005,1,278.5381,279.038,,,,,,1073,MAS,AGR,150,libro,el,l,0.3005,,279.0386,279.039,0.424074074,-0.323148148,0,0,0,,0,114,114,172,1,,,,
,,,,,,b9bf770a8ffc46b92e57340d,66a626ef09d4e21e1a8894ec,67332a49a9734f5df675ea26,2024-11-12_10h13.41.118,Tarea de género gramatical,2024.2.2,Win32,59.52380952,,,,,,,,,,,,,,,,,,,,,,,,279.0392,280.0721,a,1,[],[],[],[],[],[],[],0.357,1,280.0722,280.5721,,,,,,1246,MAS,DIS,150,juicio,la,l,0.357,,280.5721,280.5721,0.424074074,-0.323148148,0,0,0,,0,115,115,345,1,,,,
,,,,,,b9bf770a8ffc46b92e57340d,66a626ef09d4e21e1a8894ec,67332a49a9734f5df675ea26,2024-11-12_10h13.41.118,Tarea de género gramatical,2024.2.2,Win32,59.52380952,,,,,,,,,,,,,,,,,,,,,,,,280.5726,281.6048,a,1,[],[],[],[],[],[],[],0.3503,1,281.6048,282.1052,,,,,,1260,MAS,CON,150,puente,,l,0.3503,,282.1052,282.1053,0.424074074,-0.323148148,0,0,0,,0,116,116,359,1,,,,
,,,,,,b9bf770a8ffc46b92e57340d,66a626ef09d4e21e1a8894ec,67332a49a9734f5df675ea26,2024-11-12_10h13.41.118,Tarea de género gramatical,2024.2.2,Win32,59.52380952,,,,,,,,,,,,,,,,,,,,,,,,282.1059,283.121,a,1,[],[],[],[],[],[],[],0.3389,1,283.121,283.6212,,,,,,1013,MAS,AGR,150,toro,el,l,0.3389,,283.6212,283.6212,0.424074074,-0.323148148,0,0,0,,0,117,117,112,1,,,,
,,,,,,b9bf770a8ffc46b92e57340d,66a626ef09d4e21e1a8894ec,67332a49a9734f5df675ea26,2024-11-12_10h13.41.118,Tarea de género gramatical,2024.2.2,Win32,59.52380952,,,,,,,,,,,,,,,,,,,,,,,,283.622,284.6212,a,1,[],[],[],[],[],[],[],0.317,1,284.6213,285.1215,,,,,,1031,MAS,AGR,150,kilo,el,l,0.317,,285.1215,285.1216,0.424074074,-0.323148148,0,0,0,,0,118,118,130,1,,,,
,,,,,,b9bf770a8ffc46b92e57340d,66a626ef09d4e21e1a8894ec,67332a49a9734f5df675ea26,2024-11-12_10h13.41.118,Tarea de género gramatical,2024.2.2,Win32,59.52380952,,,,,,,,,,,,,,,,,,,,,,,,285.1223,286.0714,l,1,[],[],[],[],[],[],[],0.2672,1,286.0714,286.571,,,,,,962,FEM,AGR,150,sopa,la,a,0.2672,,286.5717,286.572,0.424074074,-0.323148148,0,0,0,,0,119,119,61,1,,,,
,,,,,,b9bf770a8ffc46b92e57340d,66a626ef09d4e21e1a8894ec,67332a49a9734f5df675ea26,2024-11-12_10h13.41.118,Tarea de género gramatical,2024.2.2,Win32,59.52380952,,,,,,,,,,,,,,,,,,,,,,,,286.5723,287.5885,a,1,[],[],[],[],[],[],[],0.3353,1,287.5885,288.0885,,,,,,1162,MAS,DIS,150,video,la,l,0.3353,,288.0885,288.0885,0.424074074,-0.323148148,0,0,0,,0,120,120,261,1,,,,
,,,,,,b9bf770a8ffc46b92e57340d,66a626ef09d4e21e1a8894ec,67332a49a9734f5df675ea26,2024-11-12_10h13.41.118,Tarea de género gramatical,2024.2.2,Win32,59.52380952,,,,,,,,,,,,,,,,,,,,,,,,288.0893,289.088,a,1,[],[],[],[],[],[],[],0.317,1,289.088,289.5881,,,,,,942,MAS,CON,150,show,,l,0.317,,289.5881,289.5882,0.424074074,-0.323148148,0,0,0,,0,121,121,41,1,,,,
,,,,,,b9bf770a8ffc46b92e57340d,66a626ef09d4e21e1a8894ec,67332a49a9734f5df675ea26,2024-11-12_10h13.41.118,Tarea de género gramatical,2024.2.2,Win32,59.52380952,,,,,,,,,,,,,,,,,,,,,,,,289.5896,290.655,a,1,[],[],[],[],[],[],[],0.3837,1,290.6551,291.155,,,,,,1150,MAS,DIS,150,cerdo,la,l,0.3837,,291.155,291.155,0.424074074,-0.323148148,0,0,0,,0,122,122,249,1,,,,
,,,,,,b9bf770a8ffc46b92e57340d,66a626ef09d4e21e1a8894ec,67332a49a9734f5df675ea26,2024-11-12_10h13.41.118,Tarea de género gramatical,2024.2.2,Win32,59.52380952,,,,,,,,,,,,,,,,,,,,,,,,291.1556,292.1716,a,1,[],[],[],[],[],[],[],0.3337,1,292.1717,292.6713,,,,,,1331,MAS,AGR,150,veneno,el,l,0.3337,,292.6718,292.6721,0.424074074,-0.323148148,0,0,0,,0,123,123,430,1,,,,
,,,,,,b9bf770a8ffc46b92e57340d,66a626ef09d4e21e1a8894ec,67332a49a9734f5df675ea26,2024-11-12_10h13.41.118,Tarea de género gramatical,2024.2.2,Win32,59.52380952,,,,,,,,,,,,,,,,,,,,,,,,292.6725,293.688,l,1,[],[],[],[],[],[],[],0.3336,1,293.688,294.1882,,,,,,1273,FEM,DIS,150,lluvia,el,a,0.3336,,294.1882,294.1882,0.424074074,-0.323148148,0,0,0,,0,124,124,372,1,,,,
,,,,,,b9bf770a8ffc46b92e57340d,66a626ef09d4e21e1a8894ec,67332a49a9734f5df675ea26,2024-11-12_10h13.41.118,Tarea de género gramatical,2024.2.2,Win32,59.52380952,,,,,,,,,,,,,,,,,,,,,,,,294.1888,295.2545,a,1,[],[],[],[],[],[],[],0.3835,1,295.2546,295.7549,,,,,,1132,MAS,DIS,150,calor,la,l,0.3835,,295.7549,295.7549,0.424074074,-0.323148148,0,0,0,,0,125,125,231,1,,,,
,,,,,,b9bf770a8ffc46b92e57340d,66a626ef09d4e21e1a8894ec,67332a49a9734f5df675ea26,2024-11-12_10h13.41.118,Tarea de género gramatical,2024.2.2,Win32,59.52380952,,,,,,,,,,,,,,,,,,,,,,,,295.7555,296.8543,l,1,[],[],[],[],[],[],[],0.4172,1,296.8543,297.3547,,,,,,937,FEM,DIS,150,sala,el,a,0.4172,,297.3547,297.3547,0.424074074,-0.323148148,0,0,0,,0,126,126,36,1,,,,
,,,,,,b9bf770a8ffc46b92e57340d,66a626ef09d4e21e1a8894ec,67332a49a9734f5df675ea26,2024-11-12_10h13.41.118,Tarea de género gramatical,2024.2.2,Win32,59.52380952,,,,,,,,,,,,,,,,,,,,,,,,297.3553,298.2713,a,1,[],[],[],[],[],[],[],0.2335,1,298.2714,298.7713,,,,,,984,MAS,CON,150,mago,,l,0.2335,,298.7713,298.7714,0.424074074,-0.323148148,0,0,0,,0,127,127,83,1,,,,
,,,,,,b9bf770a8ffc46b92e57340d,66a626ef09d4e21e1a8894ec,67332a49a9734f5df675ea26,2024-11-12_10h13.41.118,Tarea de género gramatical,2024.2.2,Win32,59.52380952,,,,,,,,,,,,,,,,,,,,,,,,298.7719,299.8375,l,0,[],[],[],[],[],[],[],0.384,0,299.8379,300.3379,,,,,,1289,MAS,AGR,150,tamaño,el,l,0.384,,300.3385,300.3388,0.424074074,-0.323148148,0,0,0,,0,128,128,388,1,,,,
,,,,,,b9bf770a8ffc46b92e57340d,66a626ef09d4e21e1a8894ec,67332a49a9734f5df675ea26,2024-11-12_10h13.41.118,Tarea de género gramatical,2024.2.2,Win32,59.52380952,,,,,,,,,,,,,,,,,,,,,,,,300.3391,301.7877,a,1,[],[],[],[],[],[],[],0.7685,1,301.7881,302.2878,,,,,,1138,MAS,DIS,150,norte,la,l,0.7685,,302.2878,302.2879,0.424074074,-0.323148148,0,0,0,,0,129,129,237,1,,,,
,,,,,,b9bf770a8ffc46b92e57340d,66a626ef09d4e21e1a8894ec,67332a49a9734f5df675ea26,2024-11-12_10h13.41.118,Tarea de género gramatical,2024.2.2,Win32,59.52380952,,,,,,,,,,,,,,,,,,,,,,,,302.2884,303.3041,l,1,[],[],[],[],[],[],[],0.3338,1,303.3041,303.8045,,,,,,933,FEM,CON,150,boda,,a,0.3338,,303.8045,303.8045,0.424074074,-0.323148148,0,0,0,,0,130,130,32,1,,,,
,,,,,,b9bf770a8ffc46b92e57340d,66a626ef09d4e21e1a8894ec,67332a49a9734f5df675ea26,2024-11-12_10h13.41.118,Tarea de género gramatical,2024.2.2,Win32,59.52380952,,,,,,,,,,,,,,,,,,,,,,,,303.805,304.8545,a,0,[],[],[],[],[],[],[],0.3671,0,304.8549,305.3541,,,,,,931,FEM,DIS,150,edad,el,a,0.3671,,305.3542,305.3542,0.424074074,-0.323148148,0,0,0,,0,131,131,30,1,,,,
,,,,,,b9bf770a8ffc46b92e57340d,66a626ef09d4e21e1a8894ec,67332a49a9734f5df675ea26,2024-11-12_10h13.41.118,Tarea de género gramatical,2024.2.2,Win32,59.52380952,,,,,,,,,,,,,,,,,,,,,,,,305.3547,306.6543,l,1,[],[],[],[],[],[],[],0.6166,1,306.6547,307.1541,,,,,,1089,FEM,CON,150,pista,,a,0.6166,,307.1546,307.155,0.424074074,-0.323148148,0,0,0,,0,132,132,188,1,,,,
,,,,,,b9bf770a8ffc46b92e57340d,66a626ef09d4e21e1a8894ec,67332a49a9734f5df675ea26,2024-11-12_10h13.41.118,Tarea de género gramatical,2024.2.2,Win32,59.52380952,,,,,,,,,,,,,,,,,,,,,,,,307.1554,308.2204,a,1,[],[],[],[],[],[],[],0.3838,1,308.2206,308.721,,,,,,1096,MAS,DIS,150,barco,la,l,0.3838,,308.721,308.7211,0.424074074,-0.323148148,0,0,0,,0,133,133,195,1,,,,
,,,,,,b9bf770a8ffc46b92e57340d,66a626ef09d4e21e1a8894ec,67332a49a9734f5df675ea26,2024-11-12_10h13.41.118,Tarea de género gramatical,2024.2.2,Win32,59.52380952,,,,,,,,,,,,,,,,,,,,,,,,308.7216,309.8873,l,1,[],[],[],[],[],[],[],0.4836,1,309.8873,310.3875,,,,,,1166,FEM,AGR,150,jaula,la,a,0.4836,,310.3876,310.3876,0.424074074,-0.323148148,0,0,0,,0,134,134,265,1,,,,
,,,,,,b9bf770a8ffc46b92e57340d,66a626ef09d4e21e1a8894ec,67332a49a9734f5df675ea26,2024-11-12_10h13.41.118,Tarea de género gramatical,2024.2.2,Win32,59.52380952,,,,,,,,,,,,,,,,,,,,,,,,310.3881,311.4879,a,1,[],[],[],[],[],[],[],0.4171,1,311.488,311.9874,,,,,,989,MAS,AGR,150,maíz,el,l,0.4171,,311.9874,311.9875,0.424074074,-0.323148148,0,0,0,,0,135,135,88,1,,,,
,,,,,,b9bf770a8ffc46b92e57340d,66a626ef09d4e21e1a8894ec,67332a49a9734f5df675ea26,2024-11-12_10h13.41.118,Tarea de género gramatical,2024.2.2,Win32,59.52380952,,,,,,,,,,,,,,,,,,,,,,,,311.988,313.1045,a,1,[],[],[],[],[],[],[],0.4395,1,313.1046,313.6038,,,,,,1085,MAS,AGR,150,sueño,el,l,0.4395,,313.6038,313.604,0.424074074,-0.323148148,0,0,0,,0,136,136,184,1,,,,
,,,,,,b9bf770a8ffc46b92e57340d,66a626ef09d4e21e1a8894ec,67332a49a9734f5df675ea26,2024-11-12_10h13.41.118,Tarea de género gramatical,2024.2.2,Win32,59.52380952,,,,,,,,,,,,,,,,,,,,,,,,313.6045,314.7372,l,1,[],[],[],[],[],[],[],0.4504,1,314.7372,315.237,,,,,,1125,FEM,CON,150,pieza,,a,0.4504,,315.2377,315.2381,0.424074074,-0.323148148,0,0,0,,0,137,137,224,1,,,,
,,,,,,b9bf770a8ffc46b92e57340d,66a626ef09d4e21e1a8894ec,67332a49a9734f5df675ea26,2024-11-12_10h13.41.118,Tarea de género gramatical,2024.2.2,Win32,59.52380952,,,,,,,,,,,,,,,,,,,,,,,,315.2383,316.3535,a,1,[],[],[],[],[],[],[],0.4374,1,316.3535,316.8536,,,,,,995,MAS,AGR,150,tomo,el,l,0.4374,,316.8537,316.8538,0.424074074,-0.323148148,0,0,0,,0,138,138,94,1,,,,
,,,,,,b9bf770a8ffc46b92e57340d,66a626ef09d4e21e1a8894ec,67332a49a9734f5df675ea26,2024-11-12_10h13.41.118,Tarea de género gramatical,2024.2.2,Win32,59.52380952,,,,,,,,,,,,,,,,,,,,,,,,316.8543,317.9041,a,1,[],[],[],[],[],[],[],0.3726,1,317.9042,318.4037,,,,,,935,MAS,AGR,150,taxi,el,l,0.3726,,318.4038,318.4039,0.424074074,-0.323148148,0,0,0,,0,139,139,34,1,,,,
,,,,,,b9bf770a8ffc46b92e57340d,66a626ef09d4e21e1a8894ec,67332a49a9734f5df675ea26,2024-11-12_10h13.41.118,Tarea de género gramatical,2024.2.2,Win32,59.52380952,,,,,,,,,,,,,,,,,,,,,,,,318.4044,319.6203,a,1,[],[],[],[],[],[],[],0.5337,1,319.6203,320.1201,,,,,,1104,MAS,CON,150,papel,,l,0.5337,,320.1201,320.1202,0.424074074,-0.323148148,0,0,0,,0,140,140,203,1,,,,
,,,,,,b9bf770a8ffc46b92e57340d,66a626ef09d4e21e1a8894ec,67332a49a9734f5df675ea26,2024-11-12_10h13.41.118,Tarea de género gramatical,2024.2.2,Win32,59.52380952,,,,,,,,,,,,,,,,,,,,,,,,320.121,321.2199,a,1,[],[],[],[],[],[],[],0.4168,1,321.2199,321.7204,,,,,,958,MAS,DIS,150,mono,la,l,0.4168,,321.7209,321.7213,0.424074074,-0.323148148,0,0,0,,0,141,141,57,1,,,,
,,,,,,b9bf770a8ffc46b92e57340d,66a626ef09d4e21e1a8894ec,67332a49a9734f5df675ea26,2024-11-12_10h13.41.118,Tarea de género gramatical,2024.2.2,Win32,59.52380952,,,,,,,,,,,,,,,,,,,,,,,,321.7216,322.7868,a,1,[],[],[],[],[],[],[],0.3858,1,322.7868,323.2875,,,,,,1306,MAS,DIS,150,premio,la,l,0.3858,,323.2875,323.2875,0.424074074,-0.323148148,0,0,0,,0,142,142,405,1,,,,
,,,,,,b9bf770a8ffc46b92e57340d,66a626ef09d4e21e1a8894ec,67332a49a9734f5df675ea26,2024-11-12_10h13.41.118,Tarea de género gramatical,2024.2.2,Win32,59.52380952,,,,,,,,,,,,,,,,,,,,,,,,323.288,324.3198,a,1,[],[],[],[],[],[],[],0.3543,1,324.3199,324.8201,,,,,,1038,MAS,CON,150,luto,,l,0.3543,,324.8202,324.8203,0.424074074,-0.323148148,0,0,0,,0,143,143,137,1,,,,
,,,,,,b9bf770a8ffc46b92e57340d,66a626ef09d4e21e1a8894ec,67332a49a9734f5df675ea26,2024-11-12_10h13.41.118,Tarea de género gramatical,2024.2.2,Win32,59.52380952,,,,,,,,,,,,,,,,,,,,,,,,324.8207,325.9366,l,1,[],[],[],[],[],[],[],0.4372,1,325.9366,326.4368,,,,,,1088,FEM,AGR,150,bomba,la,a,0.4372,,326.4368,326.4369,0.424074074,-0.323148148,0,0,0,,0,144,144,187,1,,,,
,,,,,,b9bf770a8ffc46b92e57340d,66a626ef09d4e21e1a8894ec,67332a49a9734f5df675ea26,2024-11-12_10h13.41.118,Tarea de género gramatical,2024.2.2,Win32,59.52380952,,,,,,,,,,,,,,,,,,,,,,,,326.4373,327.5535,a,1,[],[],[],[],[],[],[],0.4508,1,327.5536,328.0535,,,,,,1349,MAS,AGR,150,payaso,el,l,0.4508,,328.0536,328.0536,0.424074074,-0.323148148,0,0,0,,0,145,145,448,1,,,,
,,,,,,b9bf770a8ffc46b92e57340d,66a626ef09d4e21e1a8894ec,67332a49a9734f5df675ea26,2024-11-12_10h13.41.118,Tarea de género gramatical,2024.2.2,Win32,59.52380952,,,,,,,,,,,,,,,,,,,,,,,,328.0541,329.1034,a,1,[],[],[],[],[],[],[],0.3672,1,329.1034,329.6034,,,,,,904,MAS,DIS,150,hijo,la,l,0.3672,,329.604,329.6043,0.424074074,-0.323148148,0,0,0,,0,146,146,3,1,,,,
,,,,,,b9bf770a8ffc46b92e57340d,66a626ef09d4e21e1a8894ec,67332a49a9734f5df675ea26,2024-11-12_10h13.41.118,Tarea de género gramatical,2024.2.2,Win32,59.52380952,,,,,,,,,,,,,,,,,,,,,,,,329.6047,330.8367,l,1,[],[],[],[],[],[],[],0.5505,1,330.8368,331.3367,,,,,,1071,FEM,CON,150,mitad,,a,0.5505,,331.3367,331.3368,0.424074074,-0.323148148,0,0,0,,0,147,147,170,1,,,,
,,,,,,b9bf770a8ffc46b92e57340d,66a626ef09d4e21e1a8894ec,67332a49a9734f5df675ea26,2024-11-12_10h13.41.118,Tarea de género gramatical,2024.2.2,Win32,59.52380952,,,,,,,,,,,,,,,,,,,,,,,,331.3372,332.4699,l,1,[],[],[],[],[],[],[],0.4506,1,332.47,332.9702,,,,,,1028,FEM,AGR,150,leña,la,a,0.4506,,332.9702,332.9703,0.424074074,-0.323148148,0,0,0,,0,148,148,127,1,,,,
,,,,,,b9bf770a8ffc46b92e57340d,66a626ef09d4e21e1a8894ec,67332a49a9734f5df675ea26,2024-11-12_10h13.41.118,Tarea de género gramatical,2024.2.2,Win32,59.52380952,,,,,,,,,,,,,,,,,,,,,,,,332.9708,334.1867,a,1,[],[],[],[],[],[],[],0.5341,1,334.1867,334.6866,,,,,,1235,MAS,AGR,150,montón,el,l,0.5341,,334.6866,334.6867,0.424074074,-0.323148148,0,0,0,,0,149,149,334,1,,,,
,,,,,,b9bf770a8ffc46b92e57340d,66a626ef09d4e21e1a8894ec,67332a49a9734f5df675ea26,2024-11-12_10h13.41.118,Tarea de género gramatical,2024.2.2,Win32,59.52380952,,,,,,,,,,,,,,,,,,,,,,,,334.6872,335.8365,l,1,[],[],[],[],[],[],[],0.4677,1,335.8366,336.3369,,,,,,986,FEM,AGR,150,cruz,la,a,0.4677,,336.3374,347.2196,0.424074074,-0.323148148,0,0,0,space,0,150,150,85,1,10.8661,,,
,,,,,,b9bf770a8ffc46b92e57340d,66a626ef09d4e21e1a8894ec,67332a49a9734f5df675ea26,2024-11-12_10h13.41.118,Tarea de género gramatical,2024.2.2,Win32,59.52380952,,,,,,,,,,,,,,,,,,,,,,,,347.2203,349.8692,,0,[],[],[],[],[],[],[],0.4677,-1,349.8698,350.3702,,,,,,1179,FEM,CON,150,selva,,a,,,350.3703,350.3705,0.424074074,-0.323148148,0,0,0,,0,151,151,278,1,,,,
,,,,,,b9bf770a8ffc46b92e57340d,66a626ef09d4e21e1a8894ec,67332a49a9734f5df675ea26,2024-11-12_10h13.41.118,Tarea de género gramatical,2024.2.2,Win32,59.52380952,,,,,,,,,,,,,,,,,,,,,,,,350.3723,351.6193,l,1,[],[],[],[],[],[],[],0.5669,1,351.6199,352.1192,,,,,,1083,FEM,CON,150,llave,,a,0.5669,,352.1193,352.1195,0.424074074,-0.323148148,0,0,0,,0,152,152,182,1,,,,
,,,,,,b9bf770a8ffc46b92e57340d,66a626ef09d4e21e1a8894ec,67332a49a9734f5df675ea26,2024-11-12_10h13.41.118,Tarea de género gramatical,2024.2.2,Win32,59.52380952,,,,,,,,,,,,,,,,,,,,,,,,352.1207,353.6524,a,1,[],[],[],[],[],[],[],0.8503,1,353.6525,354.1528,,,,,,988,MAS,DIS,150,pavo,la,l,0.8503,,354.1529,354.1531,0.424074074,-0.323148148,0,0,0,,0,153,153,87,1,,,,
,,,,,,b9bf770a8ffc46b92e57340d,66a626ef09d4e21e1a8894ec,67332a49a9734f5df675ea26,2024-11-12_10h13.41.118,Tarea de género gramatical,2024.2.2,Win32,59.52380952,,,,,,,,,,,,,,,,,,,,,,,,354.1543,355.4701,a,1,[],[],[],[],[],[],[],0.6338,1,355.4703,355.9695,,,,,,1098,MAS,CON,150,hotel,,l,0.6338,,355.9695,355.9696,0.424074074,-0.323148148,0,0,0,,0,154,154,197,1,,,,
,,,,,,b9bf770a8ffc46b92e57340d,66a626ef09d4e21e1a8894ec,67332a49a9734f5df675ea26,2024-11-12_10h13.41.118,Tarea de género gramatical,2024.2.2,Win32,59.52380952,,,,,,,,,,,,,,,,,,,,,,,,355.9701,357.286,l,1,[],[],[],[],[],[],[],0.6338,1,357.2861,357.7856,,,,,,992,FEM,AGR,150,masa,la,a,0.6338,,357.7862,357.7866,0.424074074,-0.323148148,0,0,0,,0,155,155,91,1,,,,
,,,,,,b9bf770a8ffc46b92e57340d,66a626ef09d4e21e1a8894ec,67332a49a9734f5df675ea26,2024-11-12_10h13.41.118,Tarea de género gramatical,2024.2.2,Win32,59.52380952,,,,,,,,,,,,,,,,,,,,,,,,357.7869,358.9198,l,1,[],[],[],[],[],[],[],0.4554,1,358.9199,359.419,,,,,,1311,FEM,CON,150,actriz,,a,0.4554,,359.4191,359.4191,0.424074074,-0.323148148,0,0,0,,0,156,156,410,1,,,,
,,,,,,b9bf770a8ffc46b92e57340d,66a626ef09d4e21e1a8894ec,67332a49a9734f5df675ea26,2024-11-12_10h13.41.118,Tarea de género gramatical,2024.2.2,Win32,59.52380952,,,,,,,,,,,,,,,,,,,,,,,,359.4195,360.5523,a,1,[],[],[],[],[],[],[],0.4536,1,360.5523,361.0526,,,,,,1337,MAS,AGR,150,hombro,el,l,0.4536,,361.0526,361.0527,0.424074074,-0.323148148,0,0,0,,0,157,157,436,1,,,,
,,,,,,b9bf770a8ffc46b92e57340d,66a626ef09d4e21e1a8894ec,67332a49a9734f5df675ea26,2024-11-12_10h13.41.118,Tarea de género gramatical,2024.2.2,Win32,59.52380952,,,,,,,,,,,,,,,,,,,,,,,,361.0532,362.1025,l,1,[],[],[],[],[],[],[],0.3743,1,362.1025,362.6025,,,,,,993,FEM,CON,150,lata,,a,0.3743,,362.6026,362.6026,0.424074074,-0.323148148,0,0,0,,0,158,158,92,1,,,,
,,,,,,b9bf770a8ffc46b92e57340d,66a626ef09d4e21e1a8894ec,67332a49a9734f5df675ea26,2024-11-12_10h13.41.118,Tarea de género gramatical,2024.2.2,Win32,59.52380952,,,,,,,,,,,,,,,,,,,,,,,,362.6032,363.6692,a,1,[],[],[],[],[],[],[],0.3839,1,363.6693,364.1689,,,,,,1229,MAS,AGR,150,futuro,el,l,0.3839,,364.1693,364.1697,0.424074074,-0.323148148,0,0,0,,0,159,159,328,1,,,,
,,,,,,b9bf770a8ffc46b92e57340d,66a626ef09d4e21e1a8894ec,67332a49a9734f5df675ea26,2024-11-12_10h13.41.118,Tarea de género gramatical,2024.2.2,Win32,59.52380952,,,,,,,,,,,,,,,,,,,,,,,,364.1699,365.2189,a,1,[],[],[],[],[],[],[],0.3674,1,365.219,365.7191,,,,,,1091,MAS,AGR,150,dolor,el,l,0.3674,,365.7192,365.7192,0.424074074,-0.323148148,0,0,0,,0,160,160,190,1,,,,
,,,,,,b9bf770a8ffc46b92e57340d,66a626ef09d4e21e1a8894ec,67332a49a9734f5df675ea26,2024-11-12_10h13.41.118,Tarea de género gramatical,2024.2.2,Win32,59.52380952,,,,,,,,,,,,,,,,,,,,,,,,365.7197,366.7856,a,1,[],[],[],[],[],[],[],0.383,1,366.7857,367.2853,,,,,,1102,MAS,DIS,150,honor,la,l,0.383,,367.2853,367.2854,0.424074074,-0.323148148,0,0,0,,0,161,161,201,1,,,,
,,,,,,b9bf770a8ffc46b92e57340d,66a626ef09d4e21e1a8894ec,67332a49a9734f5df675ea26,2024-11-12_10h13.41.118,Tarea de género gramatical,2024.2.2,Win32,59.52380952,,,,,,,,,,,,,,,,,,,,,,,,367.2861,368.2863,a,1,[],[],[],[],[],[],[],0.334,1,368.2864,368.7854,,,,,,1026,MAS,CON,150,lazo,,l,0.334,,368.7854,368.7855,0.424074074,-0.323148148,0,0,0,,0,162,162,125,1,,,,
,,,,,,b9bf770a8ffc46b92e57340d,66a626ef09d4e21e1a8894ec,67332a49a9734f5df675ea26,2024-11-12_10h13.41.118,Tarea de género gramatical,2024.2.2,Win32,59.52380952,,,,,,,,,,,,,,,,,,,,,,,,368.7862,369.8853,a,1,[],[],[],[],[],[],[],0.4166,1,369.8853,370.386,,,,,,1001,MAS,AGR,150,giro,el,l,0.4166,,370.386,370.3861,0.424074074,-0.323148148,0,0,0,,0,163,163,100,1,,,,
,,,,,,b9bf770a8ffc46b92e57340d,66a626ef09d4e21e1a8894ec,67332a49a9734f5df675ea26,2024-11-12_10h13.41.118,Tarea de género gramatical,2024.2.2,Win32,59.52380952,,,,,,,,,,,,,,,,,,,,,,,,370.3866,371.5521,a,1,[],[],[],[],[],[],[],0.483,1,371.5522,372.0521,,,,,,1025,MAS,AGR,150,bate,el,l,0.483,,372.0529,372.0534,0.424074074,-0.323148148,0,0,0,,0,164,164,124,1,,,,
,,,,,,b9bf770a8ffc46b92e57340d,66a626ef09d4e21e1a8894ec,67332a49a9734f5df675ea26,2024-11-12_10h13.41.118,Tarea de género gramatical,2024.2.2,Win32,59.52380952,,,,,,,,,,,,,,,,,,,,,,,,372.0539,373.0856,l,1,[],[],[],[],[],[],[],0.3512,1,373.0856,373.5854,,,,,,1173,FEM,CON,150,tarta,,a,0.3512,,373.5855,373.5855,0.424074074,-0.323148148,0,0,0,,0,165,165,272,1,,,,
,,,,,,b9bf770a8ffc46b92e57340d,66a626ef09d4e21e1a8894ec,67332a49a9734f5df675ea26,2024-11-12_10h13.41.118,Tarea de género gramatical,2024.2.2,Win32,59.52380952,,,,,,,,,,,,,,,,,,,,,,,,373.5861,374.7189,l,1,[],[],[],[],[],[],[],0.4506,1,374.7189,375.2188,,,,,,1263,FEM,CON,150,unidad,,a,0.4506,,375.2188,375.2188,0.424074074,-0.323148148,0,0,0,,0,166,166,362,1,,,,
,,,,,,b9bf770a8ffc46b92e57340d,66a626ef09d4e21e1a8894ec,67332a49a9734f5df675ea26,2024-11-12_10h13.41.118,Tarea de género gramatical,2024.2.2,Win32,59.52380952,,,,,,,,,,,,,,,,,,,,,,,,375.2194,376.3652,l,1,[],[],[],[],[],[],[],0.4668,1,376.3653,376.8652,,,,,,1011,FEM,CON,150,goma,,a,0.4668,,376.8652,376.8652,0.424074074,-0.323148148,0,0,0,,0,167,167,110,1,,,,
,,,,,,b9bf770a8ffc46b92e57340d,66a626ef09d4e21e1a8894ec,67332a49a9734f5df675ea26,2024-11-12_10h13.41.118,Tarea de género gramatical,2024.2.2,Win32,59.52380952,,,,,,,,,,,,,,,,,,,,,,,,376.8658,378.0153,l,1,[],[],[],[],[],[],[],0.4672,1,378.0153,378.5155,,,,,,1221,FEM,CON,150,comida,,a,0.4672,,378.5162,378.5166,0.424074074,-0.323148148,0,0,0,,0,168,168,320,1,,,,
,,,,,,b9bf770a8ffc46b92e57340d,66a626ef09d4e21e1a8894ec,67332a49a9734f5df675ea26,2024-11-12_10h13.41.118,Tarea de género gramatical,2024.2.2,Win32,59.52380952,,,,,,,,,,,,,,,,,,,,,,,,378.5169,379.6974,a,1,[],[],[],[],[],[],[],0.4989,1,379.6975,380.1984,,,,,,1276,MAS,DIS,150,efecto,la,l,0.4989,,380.1985,380.1985,0.424074074,-0.323148148,0,0,0,,0,169,169,375,1,,,,
,,,,,,b9bf770a8ffc46b92e57340d,66a626ef09d4e21e1a8894ec,67332a49a9734f5df675ea26,2024-11-12_10h13.41.118,Tarea de género gramatical,2024.2.2,Win32,59.52380952,,,,,,,,,,,,,,,,,,,,,,,,380.1992,381.3476,a,0,[],[],[],[],[],[],[],0.4662,0,381.348,381.8488,,,,,,1251,FEM,CON,150,espada,,a,0.4662,,381.8489,381.849,0.424074074,-0.323148148,0,0,0,,0,170,170,350,1,,,,
,,,,,,b9bf770a8ffc46b92e57340d,66a626ef09d4e21e1a8894ec,67332a49a9734f5df675ea26,2024-11-12_10h13.41.118,Tarea de género gramatical,2024.2.2,Win32,59.52380952,,,,,,,,,,,,,,,,,,,,,,,,381.8498,383.0352,l,1,[],[],[],[],[],[],[],0.5003,1,383.0355,383.5349,,,,,,1197,FEM,CON,150,manta,,a,0.5003,,383.5349,383.5349,0.424074074,-0.323148148,0,0,0,,0,171,171,296,1,,,,
,,,,,,b9bf770a8ffc46b92e57340d,66a626ef09d4e21e1a8894ec,67332a49a9734f5df675ea26,2024-11-12_10h13.41.118,Tarea de género gramatical,2024.2.2,Win32,59.52380952,,,,,,,,,,,,,,,,,,,,,,,,383.5354,384.5851,a,1,[],[],[],[],[],[],[],0.3686,1,384.5851,385.0848,,,,,,966,MAS,CON,150,muro,,l,0.3686,,385.0849,385.0849,0.424074074,-0.323148148,0,0,0,,0,172,172,65,1,,,,
,,,,,,b9bf770a8ffc46b92e57340d,66a626ef09d4e21e1a8894ec,67332a49a9734f5df675ea26,2024-11-12_10h13.41.118,Tarea de género gramatical,2024.2.2,Win32,59.52380952,,,,,,,,,,,,,,,,,,,,,,,,385.0854,386.185,l,1,[],[],[],[],[],[],[],0.4173,1,386.1851,386.6849,,,,,,1184,FEM,AGR,150,fruta,la,a,0.4173,,386.6855,386.6859,0.424074074,-0.323148148,0,0,0,,0,173,173,283,1,,,,
,,,,,,b9bf770a8ffc46b92e57340d,66a626ef09d4e21e1a8894ec,67332a49a9734f5df675ea26,2024-11-12_10h13.41.118,Tarea de género gramatical,2024.2.2,Win32,59.52380952,,,,,,,,,,,,,,,,,,,,,,,,386.6862,387.768,a,1,[],[],[],[],[],[],[],0.402,1,387.7681,388.2684,,,,,,1020,MAS,CON,150,puño,,l,0.402,,388.2684,388.2684,0.424074074,-0.323148148,0,0,0,,0,174,174,119,1,,,,
,,,,,,b9bf770a8ffc46b92e57340d,66a626ef09d4e21e1a8894ec,67332a49a9734f5df675ea26,2024-11-12_10h13.41.118,Tarea de género gramatical,2024.2.2,Win32,59.52380952,,,,,,,,,,,,,,,,,,,,,,,,388.269,389.6515,l,1,[],[],[],[],[],[],[],0.7004,1,389.6516,390.1522,,,,,,1045,FEM,DIS,150,bota,el,a,0.7004,,390.1522,390.1522,0.424074074,-0.323148148,0,0,0,,0,175,175,144,1,,,,
,,,,,,b9bf770a8ffc46b92e57340d,66a626ef09d4e21e1a8894ec,67332a49a9734f5df675ea26,2024-11-12_10h13.41.118,Tarea de género gramatical,2024.2.2,Win32,59.52380952,,,,,,,,,,,,,,,,,,,,,,,,390.1529,391.2186,a,1,[],[],[],[],[],[],[],0.384,1,391.2186,391.7185,,,,,,1194,MAS,CON,150,cable,,l,0.384,,391.7186,391.7187,0.424074074,-0.323148148,0,0,0,,0,176,176,293,1,,,,
,,,,,,b9bf770a8ffc46b92e57340d,66a626ef09d4e21e1a8894ec,67332a49a9734f5df675ea26,2024-11-12_10h13.41.118,Tarea de género gramatical,2024.2.2,Win32,59.52380952,,,,,,,,,,,,,,,,,,,,,,,,391.7195,392.8181,l,1,[],[],[],[],[],[],[],0.4175,1,392.8182,393.3181,,,,,,1023,FEM,CON,150,tela,,a,0.4175,,393.3189,393.3192,0.424074074,-0.323148148,0,0,0,,0,177,177,122,1,,,,
,,,,,,b9bf770a8ffc46b92e57340d,66a626ef09d4e21e1a8894ec,67332a49a9734f5df675ea26,2024-11-12_10h13.41.118,Tarea de género gramatical,2024.2.2,Win32,59.52380952,,,,,,,,,,,,,,,,,,,,,,,,393.3195,394.6019,l,1,[],[],[],[],[],[],[],0.5999,1,394.6019,395.1014,,,,,,1261,FEM,DIS,150,oferta,el,a,0.5999,,395.1014,395.1015,0.424074074,-0.323148148,0,0,0,,0,178,178,360,1,,,,
,,,,,,b9bf770a8ffc46b92e57340d,66a626ef09d4e21e1a8894ec,67332a49a9734f5df675ea26,2024-11-12_10h13.41.118,Tarea de género gramatical,2024.2.2,Win32,59.52380952,,,,,,,,,,,,,,,,,,,,,,,,395.102,396.1347,l,1,[],[],[],[],[],[],[],0.3507,1,396.1348,396.6348,,,,,,1214,FEM,AGR,150,señora,la,a,0.3507,,396.6348,396.6349,0.424074074,-0.323148148,0,0,0,,0,179,179,313,1,,,,
,,,,,,b9bf770a8ffc46b92e57340d,66a626ef09d4e21e1a8894ec,67332a49a9734f5df675ea26,2024-11-12_10h13.41.118,Tarea de género gramatical,2024.2.2,Win32,59.52380952,,,,,,,,,,,,,,,,,,,,,,,,396.6355,397.768,a,1,[],[],[],[],[],[],[],0.4503,1,397.7681,398.2681,,,,,,1109,MAS,AGR,150,banco,el,l,0.4503,,398.2681,398.2681,0.424074074,-0.323148148,0,0,0,,0,180,180,208,1,,,,
,,,,,,b9bf770a8ffc46b92e57340d,66a626ef09d4e21e1a8894ec,67332a49a9734f5df675ea26,2024-11-12_10h13.41.118,Tarea de género gramatical,2024.2.2,Win32,59.52380952,,,,,,,,,,,,,,,,,,,,,,,,398.2686,399.4682,a,1,[],[],[],[],[],[],[],0.5168,1,399.4682,399.9678,,,,,,1164,MAS,CON,150,pollo,,l,0.5168,,399.9679,399.968,0.424074074,-0.323148148,0,0,0,,0,181,181,263,1,,,,
,,,,,,b9bf770a8ffc46b92e57340d,66a626ef09d4e21e1a8894ec,67332a49a9734f5df675ea26,2024-11-12_10h13.41.118,Tarea de género gramatical,2024.2.2,Win32,59.52380952,,,,,,,,,,,,,,,,,,,,,,,,399.9686,401.1012,l,1,[],[],[],[],[],[],[],0.4506,1,401.1013,401.6013,,,,,,1195,FEM,DIS,150,grasa,el,a,0.4506,,401.6019,401.6022,0.424074074,-0.323148148,0,0,0,,0,182,182,294,1,,,,
,,,,,,b9bf770a8ffc46b92e57340d,66a626ef09d4e21e1a8894ec,67332a49a9734f5df675ea26,2024-11-12_10h13.41.118,Tarea de género gramatical,2024.2.2,Win32,59.52380952,,,,,,,,,,,,,,,,,,,,,,,,401.6025,403.1992,a,0,[],[],[],[],[],[],[],0.9178,0,403.1995,403.6988,,,,,,1335,FEM,CON,150,niebla,,a,0.9178,,403.6989,403.699,0.424074074,-0.323148148,0,0,0,,0,183,183,434,1,,,,
,,,,,,b9bf770a8ffc46b92e57340d,66a626ef09d4e21e1a8894ec,67332a49a9734f5df675ea26,2024-11-12_10h13.41.118,Tarea de género gramatical,2024.2.2,Win32,59.52380952,,,,,,,,,,,,,,,,,,,,,,,,403.6994,404.8817,a,1,[],[],[],[],[],[],[],0.5002,1,404.8821,405.3818,,,,,,1055,MAS,AGR,150,mundo,el,l,0.5002,,405.3818,405.3818,0.424074074,-0.323148148,0,0,0,,0,184,184,154,1,,,,
,,,,,,b9bf770a8ffc46b92e57340d,66a626ef09d4e21e1a8894ec,67332a49a9734f5df675ea26,2024-11-12_10h13.41.118,Tarea de género gramatical,2024.2.2,Win32,59.52380952,,,,,,,,,,,,,,,,,,,,,,,,405.3824,406.4488,l,1,[],[],[],[],[],[],[],0.3841,1,406.4488,406.9482,,,,,,1047,FEM,CON,150,grúa,,a,0.3841,,406.9482,406.9483,0.424074074,-0.323148148,0,0,0,,0,185,185,146,1,,,,
,,,,,,b9bf770a8ffc46b92e57340d,66a626ef09d4e21e1a8894ec,67332a49a9734f5df675ea26,2024-11-12_10h13.41.118,Tarea de género gramatical,2024.2.2,Win32,59.52380952,,,,,,,,,,,,,,,,,,,,,,,,406.9489,408.0519,a,1,[],[],[],[],[],[],[],0.4268,1,408.0519,408.5513,,,,,,1319,MAS,AGR,150,cuento,el,l,0.4268,,408.5521,408.5524,0.424074074,-0.323148148,0,0,0,,0,186,186,418,1,,,,
,,,,,,b9bf770a8ffc46b92e57340d,66a626ef09d4e21e1a8894ec,67332a49a9734f5df675ea26,2024-11-12_10h13.41.118,Tarea de género gramatical,2024.2.2,Win32,59.52380952,,,,,,,,,,,,,,,,,,,,,,,,408.5528,409.6181,a,1,[],[],[],[],[],[],[],0.384,1,409.6181,410.1178,,,,,,1188,MAS,CON,150,grado,,l,0.384,,410.1179,410.1179,0.424074074,-0.323148148,0,0,0,,0,187,187,287,1,,,,
,,,,,,b9bf770a8ffc46b92e57340d,66a626ef09d4e21e1a8894ec,67332a49a9734f5df675ea26,2024-11-12_10h13.41.118,Tarea de género gramatical,2024.2.2,Win32,59.52380952,,,,,,,,,,,,,,,,,,,,,,,,410.1184,411.3843,a,1,[],[],[],[],[],[],[],0.6022,1,411.3844,411.884,,,,,,1330,MAS,DIS,150,título,la,l,0.6022,,411.884,411.8841,0.424074074,-0.323148148,0,0,0,,0,188,188,429,1,,,,
,,,,,,b9bf770a8ffc46b92e57340d,66a626ef09d4e21e1a8894ec,67332a49a9734f5df675ea26,2024-11-12_10h13.41.118,Tarea de género gramatical,2024.2.2,Win32,59.52380952,,,,,,,,,,,,,,,,,,,,,,,,411.8847,413.0343,a,1,[],[],[],[],[],[],[],0.4666,1,413.0343,413.5345,,,,,,1218,MAS,CON,150,pueblo,,l,0.4666,,413.5345,413.5345,0.424074074,-0.323148148,0,0,0,,0,189,189,317,1,,,,
,,,,,,b9bf770a8ffc46b92e57340d,66a626ef09d4e21e1a8894ec,67332a49a9734f5df675ea26,2024-11-12_10h13.41.118,Tarea de género gramatical,2024.2.2,Win32,59.52380952,,,,,,,,,,,,,,,,,,,,,,,,413.5351,414.6346,l,1,[],[],[],[],[],[],[],0.4174,1,414.6346,415.1349,,,,,,932,FEM,AGR,150,caja,la,a,0.4174,,415.1349,415.1352,0.424074074,-0.323148148,0,0,0,,0,190,190,31,1,,,,
,,,,,,b9bf770a8ffc46b92e57340d,66a626ef09d4e21e1a8894ec,67332a49a9734f5df675ea26,2024-11-12_10h13.41.118,Tarea de género gramatical,2024.2.2,Win32,59.52380952,,,,,,,,,,,,,,,,,,,,,,,,415.1356,416.2848,l,1,[],[],[],[],[],[],[],0.4671,1,416.2848,416.7841,,,,,,1225,FEM,DIS,150,tierra,el,a,0.4671,,416.7847,416.785,0.424074074,-0.323148148,0,0,0,,0,191,191,324,1,,,,
,,,,,,b9bf770a8ffc46b92e57340d,66a626ef09d4e21e1a8894ec,67332a49a9734f5df675ea26,2024-11-12_10h13.41.118,Tarea de género gramatical,2024.2.2,Win32,59.52380952,,,,,,,,,,,,,,,,,,,,,,,,416.7853,417.934,a,1,[],[],[],[],[],[],[],0.4669,1,417.9341,418.4347,,,,,,1126,MAS,DIS,150,color,la,l,0.4669,,418.4348,418.4349,0.424074074,-0.323148148,0,0,0,,0,192,192,225,1,,,,
,,,,,,b9bf770a8ffc46b92e57340d,66a626ef09d4e21e1a8894ec,67332a49a9734f5df675ea26,2024-11-12_10h13.41.118,Tarea de género gramatical,2024.2.2,Win32,59.52380952,,,,,,,,,,,,,,,,,,,,,,,,418.4361,419.584,l,1,[],[],[],[],[],[],[],0.4686,1,419.584,420.0841,,,,,,1286,FEM,AGR,150,sombra,la,a,0.4686,,420.0842,420.0842,0.424074074,-0.323148148,0,0,0,,0,193,193,385,1,,,,
,,,,,,b9bf770a8ffc46b92e57340d,66a626ef09d4e21e1a8894ec,67332a49a9734f5df675ea26,2024-11-12_10h13.41.118,Tarea de género gramatical,2024.2.2,Win32,59.52380952,,,,,,,,,,,,,,,,,,,,,,,,420.0851,421.151,l,1,[],[],[],[],[],[],[],0.4004,1,421.151,421.651,,,,,,1226,FEM,AGR,150,música,la,a,0.4004,,421.651,421.6511,0.424074074,-0.323148148,0,0,0,,0,194,194,325,1,,,,
,,,,,,b9bf770a8ffc46b92e57340d,66a626ef09d4e21e1a8894ec,67332a49a9734f5df675ea26,2024-11-12_10h13.41.118,Tarea de género gramatical,2024.2.2,Win32,59.52380952,,,,,,,,,,,,,,,,,,,,,,,,421.6517,422.7844,a,1,[],[],[],[],[],[],[],0.4503,1,422.7844,423.2843,,,,,,1242,MAS,CON,150,abuelo,,l,0.4503,,423.2847,423.2851,0.424074074,-0.323148148,0,0,0,,0,195,195,341,1,,,,
,,,,,,b9bf770a8ffc46b92e57340d,66a626ef09d4e21e1a8894ec,67332a49a9734f5df675ea26,2024-11-12_10h13.41.118,Tarea de género gramatical,2024.2.2,Win32,59.52380952,,,,,,,,,,,,,,,,,,,,,,,,423.2855,424.4504,a,1,[],[],[],[],[],[],[],0.4834,1,424.4505,424.9516,,,,,,1277,MAS,AGR,150,jardín,el,l,0.4834,,424.9517,424.9518,0.424074074,-0.323148148,0,0,0,,0,196,196,376,1,,,,
,,,,,,b9bf770a8ffc46b92e57340d,66a626ef09d4e21e1a8894ec,67332a49a9734f5df675ea26,2024-11-12_10h13.41.118,Tarea de género gramatical,2024.2.2,Win32,59.52380952,,,,,,,,,,,,,,,,,,,,,,,,424.9529,426.1838,l,1,[],[],[],[],[],[],[],0.5499,1,426.1839,426.6842,,,,,,1323,FEM,CON,150,poesía,,a,0.5499,,426.6843,426.6843,0.424074074,-0.323148148,0,0,0,,0,197,197,422,1,,,,
,,,,,,b9bf770a8ffc46b92e57340d,66a626ef09d4e21e1a8894ec,67332a49a9734f5df675ea26,2024-11-12_10h13.41.118,Tarea de género gramatical,2024.2.2,Win32,59.52380952,,,,,,,,,,,,,,,,,,,,,,,,426.6848,427.8004,l,1,[],[],[],[],[],[],[],0.4343,1,427.8005,428.3002,,,,,,1034,FEM,AGR,150,rama,la,a,0.4343,,428.3002,428.3002,0.424074074,-0.323148148,0,0,0,,0,198,198,133,1,,,,
,,,,,,b9bf770a8ffc46b92e57340d,66a626ef09d4e21e1a8894ec,67332a49a9734f5df675ea26,2024-11-12_10h13.41.118,Tarea de género gramatical,2024.2.2,Win32,59.52380952,,,,,,,,,,,,,,,,,,,,,,,,428.3008,429.367,a,1,[],[],[],[],[],[],[],0.4003,1,429.3671,429.8676,,,,,,923,MAS,AGR,150,rato,el,l,0.4003,,429.8676,429.8677,0.424074074,-0.323148148,0,0,0,,0,199,199,22,1,,,,
,,,,,,b9bf770a8ffc46b92e57340d,66a626ef09d4e21e1a8894ec,67332a49a9734f5df675ea26,2024-11-12_10h13.41.118,Tarea de género gramatical,2024.2.2,Win32,59.52380952,,,,,,,,,,,,,,,,,,,,,,,,429.8683,431.117,l,0,[],[],[],[],[],[],[],0.567,0,431.1173,431.6169,,,,,,1288,MAS,DIS,150,empleo,la,l,0.567,,431.6173,431.6177,0.424074074,-0.323148148,0,0,0,,0,200,200,387,1,,,,
,,,,,,b9bf770a8ffc46b92e57340d,66a626ef09d4e21e1a8894ec,67332a49a9734f5df675ea26,2024-11-12_10h13.41.118,Tarea de género gramatical,2024.2.2,Win32,59.52380952,,,,,,,,,,,,,,,,,,,,,,,,431.6179,432.8002,a,1,[],[],[],[],[],[],[],0.5012,1,432.8006,433.3005,,,,,,1259,MAS,AGR,150,bosque,el,l,0.5012,,433.3005,433.3005,0.424074074,-0.323148148,0,0,0,,0,201,201,358,1,,,,
,,,,,,b9bf770a8ffc46b92e57340d,66a626ef09d4e21e1a8894ec,67332a49a9734f5df675ea26,2024-11-12_10h13.41.118,Tarea de género gramatical,2024.2.2,Win32,59.52380952,,,,,,,,,,,,,,,,,,,,,,,,433.3011,434.3336,a,1,[],[],[],[],[],[],[],0.3502,1,434.3337,434.8337,,,,,,1253,MAS,AGR,150,verano,el,l,0.3502,,434.8337,434.8339,0.424074074,-0.323148148,0,0,0,,0,202,202,352,1,,,,
,,,,,,b9bf770a8ffc46b92e57340d,66a626ef09d4e21e1a8894ec,67332a49a9734f5df675ea26,2024-11-12_10h13.41.118,Tarea de género gramatical,2024.2.2,Win32,59.52380952,,,,,,,,,,,,,,,,,,,,,,,,434.8344,435.9839,a,1,[],[],[],[],[],[],[],0.4671,1,435.9839,436.4836,,,,,,1325,MAS,AGR,150,chiste,el,l,0.4671,,436.4836,436.4837,0.424074074,-0.323148148,0,0,0,,0,203,203,424,1,,,,
,,,,,,b9bf770a8ffc46b92e57340d,66a626ef09d4e21e1a8894ec,67332a49a9734f5df675ea26,2024-11-12_10h13.41.118,Tarea de género gramatical,2024.2.2,Win32,59.52380952,,,,,,,,,,,,,,,,,,,,,,,,436.4843,437.5004,l,1,[],[],[],[],[],[],[],0.3328,1,437.5005,438.0002,,,,,,1238,FEM,AGR,150,abuela,la,a,0.3328,,438.0008,438.0011,0.424074074,-0.323148148,0,0,0,,0,204,204,337,1,,,,
,,,,,,b9bf770a8ffc46b92e57340d,66a626ef09d4e21e1a8894ec,67332a49a9734f5df675ea26,2024-11-12_10h13.41.118,Tarea de género gramatical,2024.2.2,Win32,59.52380952,,,,,,,,,,,,,,,,,,,,,,,,438.0015,439.3835,l,1,[],[],[],[],[],[],[],0.7005,1,439.3836,439.8835,,,,,,1035,FEM,CON,150,raíz,,a,0.7005,,439.8835,439.8836,0.424074074,-0.323148148,0,0,0,,0,205,205,134,1,,,,
,,,,,,b9bf770a8ffc46b92e57340d,66a626ef09d4e21e1a8894ec,67332a49a9734f5df675ea26,2024-11-12_10h13.41.118,Tarea de género gramatical,2024.2.2,Win32,59.52380952,,,,,,,,,,,,,,,,,,,,,,,,439.8843,441.0666,l,1,[],[],[],[],[],[],[],0.5003,1,441.0667,441.5672,,,,,,1208,FEM,AGR,150,semana,la,a,0.5003,,441.5672,441.5672,0.424074074,-0.323148148,0,0,0,,0,206,206,307,1,,,,
,,,,,,b9bf770a8ffc46b92e57340d,66a626ef09d4e21e1a8894ec,67332a49a9734f5df675ea26,2024-11-12_10h13.41.118,Tarea de género gramatical,2024.2.2,Win32,59.52380952,,,,,,,,,,,,,,,,,,,,,,,,441.5678,442.6836,l,1,[],[],[],[],[],[],[],0.4339,1,442.6836,443.1841,,,,,,1255,FEM,DIS,150,mirada,el,a,0.4339,,443.1842,443.1843,0.424074074,-0.323148148,0,0,0,,0,207,207,354,1,,,,
,,,,,,b9bf770a8ffc46b92e57340d,66a626ef09d4e21e1a8894ec,67332a49a9734f5df675ea26,2024-11-12_10h13.41.118,Tarea de género gramatical,2024.2.2,Win32,59.52380952,,,,,,,,,,,,,,,,,,,,,,,,443.1861,444.4,a,1,[],[],[],[],[],[],[],0.5348,1,444.4,444.8999,,,,,,1265,MAS,AGR,150,código,el,l,0.5348,,444.8999,444.9,0.424074074,-0.323148148,0,0,0,,0,208,208,364,1,,,,
,,,,,,b9bf770a8ffc46b92e57340d,66a626ef09d4e21e1a8894ec,67332a49a9734f5df675ea26,2024-11-12_10h13.41.118,Tarea de género gramatical,2024.2.2,Win32,59.52380952,,,,,,,,,,,,,,,,,,,,,,,,444.9005,446.0331,a,1,[],[],[],[],[],[],[],0.4506,1,446.0331,446.5332,,,,,,1067,MAS,AGR,150,juego,el,l,0.4506,,446.5337,446.534,0.424074074,-0.323148148,0,0,0,,0,209,209,166,1,,,,
,,,,,,b9bf770a8ffc46b92e57340d,66a626ef09d4e21e1a8894ec,67332a49a9734f5df675ea26,2024-11-12_10h13.41.118,Tarea de género gramatical,2024.2.2,Win32,59.52380952,,,,,,,,,,,,,,,,,,,,,,,,446.5345,447.7664,l,1,[],[],[],[],[],[],[],0.5503,1,447.7664,448.2664,,,,,,1087,FEM,DIS,150,lista,el,a,0.5503,,448.2665,448.2665,0.424074074,-0.323148148,0,0,0,,0,210,210,186,1,,,,
,,,,,,b9bf770a8ffc46b92e57340d,66a626ef09d4e21e1a8894ec,67332a49a9734f5df675ea26,2024-11-12_10h13.41.118,Tarea de género gramatical,2024.2.2,Win32,59.52380952,,,,,,,,,,,,,,,,,,,,,,,,448.267,449.4164,l,1,[],[],[],[],[],[],[],0.4674,1,449.4164,449.9163,,,,,,1279,FEM,DIS,150,granja,el,a,0.4674,,449.9164,449.9164,0.424074074,-0.323148148,0,0,0,,0,211,211,378,1,,,,
,,,,,,b9bf770a8ffc46b92e57340d,66a626ef09d4e21e1a8894ec,67332a49a9734f5df675ea26,2024-11-12_10h13.41.118,Tarea de género gramatical,2024.2.2,Win32,59.52380952,,,,,,,,,,,,,,,,,,,,,,,,449.9169,451.1165,l,1,[],[],[],[],[],[],[],0.5172,1,451.1166,451.6166,,,,,,1130,FEM,AGR,150,regla,la,a,0.5172,,451.6166,451.6166,0.424074074,-0.323148148,0,0,0,,0,212,212,229,1,,,,
,,,,,,b9bf770a8ffc46b92e57340d,66a626ef09d4e21e1a8894ec,67332a49a9734f5df675ea26,2024-11-12_10h13.41.118,Tarea de género gramatical,2024.2.2,Win32,59.52380952,,,,,,,,,,,,,,,,,,,,,,,,451.6171,452.6998,l,1,[],[],[],[],[],[],[],0.4002,1,452.6998,453.1997,,,,,,1142,FEM,AGR,150,pizza,la,a,0.4002,,453.2003,453.2006,0.424074074,-0.323148148,0,0,0,,0,213,213,241,1,,,,
,,,,,,b9bf770a8ffc46b92e57340d,66a626ef09d4e21e1a8894ec,67332a49a9734f5df675ea26,2024-11-12_10h13.41.118,Tarea de género gramatical,2024.2.2,Win32,59.52380952,,,,,,,,,,,,,,,,,,,,,,,,453.201,454.2502,l,1,[],[],[],[],[],[],[],0.367,1,454.2502,454.7498,,,,,,1123,FEM,DIS,150,plata,el,a,0.367,,454.7498,454.7499,0.424074074,-0.323148148,0,0,0,,0,214,214,222,1,,,,
,,,,,,b9bf770a8ffc46b92e57340d,66a626ef09d4e21e1a8894ec,67332a49a9734f5df675ea26,2024-11-12_10h13.41.118,Tarea de género gramatical,2024.2.2,Win32,59.52380952,,,,,,,,,,,,,,,,,,,,,,,,454.7506,455.8496,a,1,[],[],[],[],[],[],[],0.4172,1,455.8497,456.3493,,,,,,1175,MAS,AGR,150,disco,el,l,0.4172,,456.3495,456.3495,0.424074074,-0.323148148,0,0,0,,0,215,215,274,1,,,,
,,,,,,b9bf770a8ffc46b92e57340d,66a626ef09d4e21e1a8894ec,67332a49a9734f5df675ea26,2024-11-12_10h13.41.118,Tarea de género gramatical,2024.2.2,Win32,59.52380952,,,,,,,,,,,,,,,,,,,,,,,,456.3502,457.4664,a,1,[],[],[],[],[],[],[],0.4339,1,457.4664,457.9662,,,,,,1043,MAS,AGR,150,faro,el,l,0.4339,,457.9663,457.9664,0.424074074,-0.323148148,0,0,0,,0,216,216,142,1,,,,
,,,,,,b9bf770a8ffc46b92e57340d,66a626ef09d4e21e1a8894ec,67332a49a9734f5df675ea26,2024-11-12_10h13.41.118,Tarea de género gramatical,2024.2.2,Win32,59.52380952,,,,,,,,,,,,,,,,,,,,,,,,457.9669,459.4002,l,1,[],[],[],[],[],[],[],0.7518,1,459.4003,459.8996,,,,,,1231,FEM,DIS,150,cárcel,el,a,0.7518,,459.8996,459.8997,0.424074074,-0.323148148,0,0,0,,0,217,217,330,1,,,,
,,,,,,b9bf770a8ffc46b92e57340d,66a626ef09d4e21e1a8894ec,67332a49a9734f5df675ea26,2024-11-12_10h13.41.118,Tarea de género gramatical,2024.2.2,Win32,59.52380952,,,,,,,,,,,,,,,,,,,,,,,,459.9002,461.0161,a,1,[],[],[],[],[],[],[],0.434,1,461.0161,461.5162,,,,,,1211,MAS,AGR,150,camino,el,l,0.434,,461.517,461.5173,0.424074074,-0.323148148,0,0,0,,0,218,218,310,1,,,,
,,,,,,b9bf770a8ffc46b92e57340d,66a626ef09d4e21e1a8894ec,67332a49a9734f5df675ea26,2024-11-12_10h13.41.118,Tarea de género gramatical,2024.2.2,Win32,59.52380952,,,,,,,,,,,,,,,,,,,,,,,,461.5176,462.7494,a,1,[],[],[],[],[],[],[],0.5503,1,462.7495,463.2493,,,,,,1079,MAS,AGR,150,viaje,el,l,0.5503,,463.2493,463.2494,0.424074074,-0.323148148,0,0,0,,0,219,219,178,1,,,,
,,,,,,b9bf770a8ffc46b92e57340d,66a626ef09d4e21e1a8894ec,67332a49a9734f5df675ea26,2024-11-12_10h13.41.118,Tarea de género gramatical,2024.2.2,Win32,59.52380952,,,,,,,,,,,,,,,,,,,,,,,,463.2499,464.3656,l,1,[],[],[],[],[],[],[],0.4352,1,464.3658,464.8648,,,,,,1027,FEM,DIS,150,cuna,el,a,0.4352,,464.8648,464.8649,0.424074074,-0.323148148,0,0,0,,0,220,220,126,1,,,,
,,,,,,b9bf770a8ffc46b92e57340d,66a626ef09d4e21e1a8894ec,67332a49a9734f5df675ea26,2024-11-12_10h13.41.118,Tarea de género gramatical,2024.2.2,Win32,59.52380952,,,,,,,,,,,,,,,,,,,,,,,,464.8654,465.9666,a,1,[],[],[],[],[],[],[],0.434,1,465.9666,466.4663,,,,,,1056,MAS,CON,150,amigo,,l,0.434,,466.4663,466.4664,0.424074074,-0.323148148,0,0,0,,0,221,221,155,1,,,,
,,,,,,b9bf770a8ffc46b92e57340d,66a626ef09d4e21e1a8894ec,67332a49a9734f5df675ea26,2024-11-12_10h13.41.118,Tarea de género gramatical,2024.2.2,Win32,59.52380952,,,,,,,,,,,,,,,,,,,,,,,,466.4675,467.6831,l,0,[],[],[],[],[],[],[],0.5338,0,467.6835,468.1832,,,,,,964,MAS,DIS,150,saco,la,l,0.5338,,468.1837,468.1841,0.424074074,-0.323148148,0,0,0,,0,222,222,63,1,,,,
,,,,,,b9bf770a8ffc46b92e57340d,66a626ef09d4e21e1a8894ec,67332a49a9734f5df675ea26,2024-11-12_10h13.41.118,Tarea de género gramatical,2024.2.2,Win32,59.52380952,,,,,,,,,,,,,,,,,,,,,,,,468.1845,469.4326,l,1,[],[],[],[],[],[],[],0.5672,1,469.433,469.933,,,,,,1185,FEM,CON,150,mafia,,a,0.5672,,469.933,469.9331,0.424074074,-0.323148148,0,0,0,,0,223,223,284,1,,,,
,,,,,,b9bf770a8ffc46b92e57340d,66a626ef09d4e21e1a8894ec,67332a49a9734f5df675ea26,2024-11-12_10h13.41.118,Tarea de género gramatical,2024.2.2,Win32,59.52380952,,,,,,,,,,,,,,,,,,,,,,,,469.9336,471.0158,a,1,[],[],[],[],[],[],[],0.4097,1,471.0158,471.5156,,,,,,941,MAS,AGR,150,bote,el,l,0.4097,,471.5156,471.5157,0.424074074,-0.323148148,0,0,0,,0,224,224,40,1,,,,
,,,,,,b9bf770a8ffc46b92e57340d,66a626ef09d4e21e1a8894ec,67332a49a9734f5df675ea26,2024-11-12_10h13.41.118,Tarea de género gramatical,2024.2.2,Win32,59.52380952,,,,,,,,,,,,,,,,,,,,,,,,471.5164,472.6491,a,1,[],[],[],[],[],[],[],0.4672,1,472.6491,473.1497,,,,,,983,MAS,AGR,150,nene,el,l,0.4672,,473.1497,473.1498,0.424074074,-0.323148148,0,0,0,,0,225,225,82,1,,,,
,,,,,,b9bf770a8ffc46b92e57340d,66a626ef09d4e21e1a8894ec,67332a49a9734f5df675ea26,2024-11-12_10h13.41.118,Tarea de género gramatical,2024.2.2,Win32,59.52380952,,,,,,,,,,,,,,,,,,,,,,,,473.1506,474.3826,l,1,[],[],[],[],[],[],[],0.5528,1,474.3827,474.8824,,,,,,1171,FEM,DIS,150,viuda,el,a,0.5528,,474.8825,474.8826,0.424074074,-0.323148148,0,0,0,,0,226,226,270,1,,,,
,,,,,,b9bf770a8ffc46b92e57340d,66a626ef09d4e21e1a8894ec,67332a49a9734f5df675ea26,2024-11-12_10h13.41.118,Tarea de género gramatical,2024.2.2,Win32,59.52380952,,,,,,,,,,,,,,,,,,,,,,,,474.8833,475.9661,a,1,[],[],[],[],[],[],[],0.4039,1,475.9662,476.4667,,,,,,1264,MAS,DIS,150,viento,la,l,0.4039,,476.4679,476.4687,0.424074074,-0.323148148,0,0,0,,0,227,227,363,1,,,,
,,,,,,b9bf770a8ffc46b92e57340d,66a626ef09d4e21e1a8894ec,67332a49a9734f5df675ea26,2024-11-12_10h13.41.118,Tarea de género gramatical,2024.2.2,Win32,59.52380952,,,,,,,,,,,,,,,,,,,,,,,,476.4694,477.5492,a,1,[],[],[],[],[],[],[],0.4049,1,477.5492,478.0494,,,,,,990,MAS,CON,150,león,,l,0.4049,,478.0494,478.0495,0.424074074,-0.323148148,0,0,0,,0,228,228,89,1,,,,
,,,,,,b9bf770a8ffc46b92e57340d,66a626ef09d4e21e1a8894ec,67332a49a9734f5df675ea26,2024-11-12_10h13.41.118,Tarea de género gramatical,2024.2.2,Win32,59.52380952,,,,,,,,,,,,,,,,,,,,,,,,478.0504,479.1488,l,1,[],[],[],[],[],[],[],0.4183,1,479.1489,479.6488,,,,,,1016,FEM,AGR,150,nube,la,a,0.4183,,479.6489,479.6489,0.424074074,-0.323148148,0,0,0,,0,229,229,115,1,,,,
,,,,,,b9bf770a8ffc46b92e57340d,66a626ef09d4e21e1a8894ec,67332a49a9734f5df675ea26,2024-11-12_10h13.41.118,Tarea de género gramatical,2024.2.2,Win32,59.52380952,,,,,,,,,,,,,,,,,,,,,,,,479.6498,481.0662,a,1,[],[],[],[],[],[],[],0.7335,1,481.0662,481.5657,,,,,,1270,MAS,DIS,150,seguro,la,l,0.7335,,481.5657,481.5657,0.424074074,-0.323148148,0,0,0,,0,230,230,369,1,,,,
,,,,,,b9bf770a8ffc46b92e57340d,66a626ef09d4e21e1a8894ec,67332a49a9734f5df675ea26,2024-11-12_10h13.41.118,Tarea de género gramatical,2024.2.2,Win32,59.52380952,,,,,,,,,,,,,,,,,,,,,,,,481.5664,482.999,l,1,[],[],[],[],[],[],[],0.7529,1,482.999,483.499,,,,,,1190,FEM,AGR,150,cabra,la,a,0.7529,,483.5002,483.5009,0.424074074,-0.323148148,0,0,0,,0,231,231,289,1,,,,
,,,,,,b9bf770a8ffc46b92e57340d,66a626ef09d4e21e1a8894ec,67332a49a9734f5df675ea26,2024-11-12_10h13.41.118,Tarea de género gramatical,2024.2.2,Win32,59.52380952,,,,,,,,,,,,,,,,,,,,,,,,483.5015,484.5488,a,1,[],[],[],[],[],[],[],0.3672,1,484.5489,485.0488,,,,,,1110,MAS,CON,150,baile,,l,0.3672,,485.0489,485.0489,0.424074074,-0.323148148,0,0,0,,0,232,232,209,1,,,,
,,,,,,b9bf770a8ffc46b92e57340d,66a626ef09d4e21e1a8894ec,67332a49a9734f5df675ea26,2024-11-12_10h13.41.118,Tarea de género gramatical,2024.2.2,Win32,59.52380952,,,,,,,,,,,,,,,,,,,,,,,,485.0497,486.1488,a,1,[],[],[],[],[],[],[],0.4174,1,486.1489,486.6488,,,,,,1205,MAS,AGR,150,hombre,el,l,0.4174,,486.6488,486.6489,0.424074074,-0.323148148,0,0,0,,0,233,233,304,1,,,,
,,,,,,b9bf770a8ffc46b92e57340d,66a626ef09d4e21e1a8894ec,67332a49a9734f5df675ea26,2024-11-12_10h13.41.118,Tarea de género gramatical,2024.2.2,Win32,59.52380952,,,,,,,,,,,,,,,,,,,,,,,,486.6496,487.7154,l,1,[],[],[],[],[],[],[],0.3901,1,487.7154,488.2157,,,,,,1249,FEM,DIS,150,prensa,el,a,0.3901,,488.2157,488.2159,0.424074074,-0.323148148,0,0,0,,0,234,234,348,1,,,,
,,,,,,b9bf770a8ffc46b92e57340d,66a626ef09d4e21e1a8894ec,67332a49a9734f5df675ea26,2024-11-12_10h13.41.118,Tarea de género gramatical,2024.2.2,Win32,59.52380952,,,,,,,,,,,,,,,,,,,,,,,,488.217,489.5319,l,1,[],[],[],[],[],[],[],0.6335,1,489.532,490.0321,,,,,,1112,FEM,AGR,150,cinta,la,a,0.6335,,490.0321,490.0322,0.424074074,-0.323148148,0,0,0,,0,235,235,211,1,,,,
,,,,,,b9bf770a8ffc46b92e57340d,66a626ef09d4e21e1a8894ec,67332a49a9734f5df675ea26,2024-11-12_10h13.41.118,Tarea de género gramatical,2024.2.2,Win32,59.52380952,,,,,,,,,,,,,,,,,,,,,,,,490.0334,491.0656,l,1,[],[],[],[],[],[],[],0.3499,1,491.0656,491.566,,,,,,1040,FEM,AGR,150,mula,la,a,0.3499,,491.5669,491.5674,0.424074074,-0.323148148,0,0,0,,0,236,236,139,1,,,,
,,,,,,b9bf770a8ffc46b92e57340d,66a626ef09d4e21e1a8894ec,67332a49a9734f5df675ea26,2024-11-12_10h13.41.118,Tarea de género gramatical,2024.2.2,Win32,59.52380952,,,,,,,,,,,,,,,,,,,,,,,,491.5679,492.8487,a,1,[],[],[],[],[],[],[],0.6099,1,492.8488,493.3485,,,,,,1066,MAS,DIS,150,coche,la,l,0.6099,,493.3486,493.3487,0.424074074,-0.323148148,0,0,0,,0,237,237,165,1,,,,
,,,,,,b9bf770a8ffc46b92e57340d,66a626ef09d4e21e1a8894ec,67332a49a9734f5df675ea26,2024-11-12_10h13.41.118,Tarea de género gramatical,2024.2.2,Win32,59.52380952,,,,,,,,,,,,,,,,,,,,,,,,493.3495,494.4655,a,1,[],[],[],[],[],[],[],0.4444,1,494.4656,494.965,,,,,,1343,MAS,AGR,150,templo,el,l,0.4444,,494.9651,494.9652,0.424074074,-0.323148148,0,0,0,,0,238,238,442,1,,,,
,,,,,,b9bf770a8ffc46b92e57340d,66a626ef09d4e21e1a8894ec,67332a49a9734f5df675ea26,2024-11-12_10h13.41.118,Tarea de género gramatical,2024.2.2,Win32,59.52380952,,,,,,,,,,,,,,,,,,,,,,,,494.9656,496.0651,a,1,[],[],[],[],[],[],[],0.4172,1,496.0651,496.5653,,,,,,1139,MAS,AGR,150,reloj,el,l,0.4172,,496.5653,496.5654,0.424074074,-0.323148148,0,0,0,,0,239,239,238,1,,,,
,,,,,,b9bf770a8ffc46b92e57340d,66a626ef09d4e21e1a8894ec,67332a49a9734f5df675ea26,2024-11-12_10h13.41.118,Tarea de género gramatical,2024.2.2,Win32,59.52380952,,,,,,,,,,,,,,,,,,,,,,,,496.5659,497.7485,l,1,[],[],[],[],[],[],[],0.5005,1,497.7485,498.2484,,,,,,1153,FEM,DIS,150,aldea,el,a,0.5005,,498.249,498.2493,0.424074074,-0.323148148,0,0,0,,0,240,240,252,1,,,,
,,,,,,b9bf770a8ffc46b92e57340d,66a626ef09d4e21e1a8894ec,67332a49a9734f5df675ea26,2024-11-12_10h13.41.118,Tarea de género gramatical,2024.2.2,Win32,59.52380952,,,,,,,,,,,,,,,,,,,,,,,,498.2496,499.5163,l,1,[],[],[],[],[],[],[],0.5847,1,499.5165,500.0153,,,,,,1135,FEM,DIS,150,torre,el,a,0.5847,,500.0154,500.0155,0.424074074,-0.323148148,0,0,0,,0,241,241,234,1,,,,
,,,,,,b9bf770a8ffc46b92e57340d,66a626ef09d4e21e1a8894ec,67332a49a9734f5df675ea26,2024-11-12_10h13.41.118,Tarea de género gramatical,2024.2.2,Win32,59.52380952,,,,,,,,,,,,,,,,,,,,,,,,500.0159,501.1315,a,1,[],[],[],[],[],[],[],0.4336,1,501.1316,501.6319,,,,,,1241,MAS,AGR,150,precio,el,l,0.4336,,501.6319,501.632,0.424074074,-0.323148148,0,0,0,,0,242,242,340,1,,,,
,,,,,,b9bf770a8ffc46b92e57340d,66a626ef09d4e21e1a8894ec,67332a49a9734f5df675ea26,2024-11-12_10h13.41.118,Tarea de género gramatical,2024.2.2,Win32,59.52380952,,,,,,,,,,,,,,,,,,,,,,,,501.6328,502.6987,l,1,[],[],[],[],[],[],[],0.384,1,502.6987,503.198,,,,,,1340,FEM,AGR,150,patada,la,a,0.384,,503.198,503.1981,0.424074074,-0.323148148,0,0,0,,0,243,243,439,1,,,,
,,,,,,b9bf770a8ffc46b92e57340d,66a626ef09d4e21e1a8894ec,67332a49a9734f5df675ea26,2024-11-12_10h13.41.118,Tarea de género gramatical,2024.2.2,Win32,59.52380952,,,,,,,,,,,,,,,,,,,,,,,,503.1986,504.3487,l,1,[],[],[],[],[],[],[],0.4679,1,504.3488,504.848,,,,,,987,FEM,CON,150,risa,,a,0.4679,,504.8481,504.8481,0.424074074,-0.323148148,0,0,0,,0,244,244,86,1,,,,
,,,,,,b9bf770a8ffc46b92e57340d,66a626ef09d4e21e1a8894ec,67332a49a9734f5df675ea26,2024-11-12_10h13.41.118,Tarea de género gramatical,2024.2.2,Win32,59.52380952,,,,,,,,,,,,,,,,,,,,,,,,504.8486,505.8656,l,1,[],[],[],[],[],[],[],0.3506,1,505.8656,506.3651,,,,,,1113,FEM,CON,150,magia,,a,0.3506,,506.3659,506.3662,0.424074074,-0.323148148,0,0,0,,0,245,245,212,1,,,,
,,,,,,b9bf770a8ffc46b92e57340d,66a626ef09d4e21e1a8894ec,67332a49a9734f5df675ea26,2024-11-12_10h13.41.118,Tarea de género gramatical,2024.2.2,Win32,59.52380952,,,,,,,,,,,,,,,,,,,,,,,,506.3665,507.3991,l,1,[],[],[],[],[],[],[],0.3514,1,507.3992,507.8987,,,,,,1233,FEM,CON,150,locura,,a,0.3514,,507.8987,507.8987,0.424074074,-0.323148148,0,0,0,,0,246,246,332,1,,,,
,,,,,,b9bf770a8ffc46b92e57340d,66a626ef09d4e21e1a8894ec,67332a49a9734f5df675ea26,2024-11-12_10h13.41.118,Tarea de género gramatical,2024.2.2,Win32,59.52380952,,,,,,,,,,,,,,,,,,,,,,,,507.8995,508.9654,l,1,[],[],[],[],[],[],[],0.384,1,508.9654,509.465,,,,,,950,FEM,AGR,150,dama,la,a,0.384,,509.465,509.4652,0.424074074,-0.323148148,0,0,0,,0,247,247,49,1,,,,
,,,,,,b9bf770a8ffc46b92e57340d,66a626ef09d4e21e1a8894ec,67332a49a9734f5df675ea26,2024-11-12_10h13.41.118,Tarea de género gramatical,2024.2.2,Win32,59.52380952,,,,,,,,,,,,,,,,,,,,,,,,509.4656,510.532,a,1,[],[],[],[],[],[],[],0.3839,1,510.5322,511.0316,,,,,,1278,MAS,CON,150,pastel,,l,0.3839,,511.0317,511.0317,0.424074074,-0.323148148,0,0,0,,0,248,248,377,1,,,,
,,,,,,b9bf770a8ffc46b92e57340d,66a626ef09d4e21e1a8894ec,67332a49a9734f5df675ea26,2024-11-12_10h13.41.118,Tarea de género gramatical,2024.2.2,Win32,59.52380952,,,,,,,,,,,,,,,,,,,,,,,,511.0321,512.1485,l,1,[],[],[],[],[],[],[],0.4341,1,512.1486,512.6481,,,,,,1058,FEM,AGR,150,chica,la,a,0.4341,,512.6487,512.6491,0.424074074,-0.323148148,0,0,0,,0,249,249,157,1,,,,
,,,,,,b9bf770a8ffc46b92e57340d,66a626ef09d4e21e1a8894ec,67332a49a9734f5df675ea26,2024-11-12_10h13.41.118,Tarea de género gramatical,2024.2.2,Win32,59.52380952,,,,,,,,,,,,,,,,,,,,,,,,512.6495,513.732,a,1,[],[],[],[],[],[],[],0.4009,1,513.7321,514.2315,,,,,,1313,MAS,AGR,150,diario,el,l,0.4009,,514.2315,514.2315,0.424074074,-0.323148148,0,0,0,,0,250,250,412,1,,,,
