counterbalancing_condition,consent_prescreening.block_1/declare_consent,consent_prescreening.block_1/age_years,consent_prescreening.block_1/gender,consent_prescreening.block_1/language_disorder,consent_prescreening.block_1/first_language,PROLIFIC_PID,STUDY_ID,SESSION_ID,date,expName,psychopyVersion,OS,frameRate,check_prescreening_answers.started,check_prescreening_answers.stopped,Instructions.started,Instructions.stopped,instr_done_keyboard.keys,instr_done_keyboard.rt,instr_done_keyboard.duration,instr_done_touch.x,instr_done_touch.y,instr_done_touch.leftButton,instr_done_touch.midButton,instr_done_touch.rightButton,instruction_pages.thisRepN,instruction_pages.thisTrialN,instruction_pages.thisN,instruction_pages.thisIndex,instruction_pages.ran,pageN,phase,instruct_text,has_image,instruct_image,presentTrial.started,presentTrial.stopped,response.keys,response.corr,response.rt,response.duration,touch_resp.x,touch_resp.y,touch_resp.leftButton,touch_resp.midButton,touch_resp.rightButton,touch_resp.time,touch_resp.clicked_name,rt,corr,feedback.started,feedback.stopped,practice_trials.thisRepN,practice_trials.thisTrialN,practice_trials.thisN,practice_trials.thisIndex,practice_trials.ran,TrialID,StimulusType,Condition,PrimeDuration,Prime,Flanker,corrAns,Break.started,Break.stopped,break_done_touch.x,break_done_touch.y,break_done_touch.leftButton,break_done_touch.midButton,break_done_touch.rightButton,break_done_keyboard.keys,experiment_trials.thisRepN,experiment_trials.thisTrialN,experiment_trials.thisN,experiment_trials.thisIndex,experiment_trials.ran,break_done_keyboard.rt,break_done_keyboard.duration,End.started,End.stopped
1,"[""over_18"",""comfortable"",""read_info"",""consent_given""]",37,M,"[""none""]","[""spanish""]",bd598fe98750ac54538d21a2,66a626ef09d4e21e1a8894ec,67361f0ae3148bb8700eefbe,2024-11-14_17h02.59.710,Tarea de género gramatical,2024.2.2,Win32,59.88023952,,,,,,,,,,,,,,,,,,,,,,,,,,,,,,,,,,,,,,,,,,,,,,,,,,,,,,,,,,,,,,,,,,,,
,,,,,,bd598fe98750ac54538d21a2,66a626ef09d4e21e1a8894ec,67361f0ae3148bb8700eefbe,2024-11-14_17h02.59.710,Tarea de género gramatical,2024.2.2,Win32,59.88023952,31.5906,31.5909,,,,,,,,,,,,,,,,,,,,,,,,,,,,,,,,,,,,,,,,,,,,,,,,,,,,,,,,,,,,,,,,,,
,,,,,,bd598fe98750ac54538d21a2,66a626ef09d4e21e1a8894ec,67361f0ae3148bb8700eefbe,2024-11-14_17h02.59.710,Tarea de género gramatical,2024.2.2,Win32,59.88023952,,,31.6269,51.2457,space,19.5667,,-0.361111111,-0.252777806,0,0,0,0,0,0,0,1,1,instructions,"INSTRUCCIONES
Va a realizar una prueba de selección gramatical. Desde el comienzo de la prueba mire siempre al centro de la pantalla. Al cabo de un momento, aparecerán palabras. La tarea consiste en determinar si la palabra del centro (siempre será un sustantivo), pertenece al género masculino o femenino.

Pulse la tecla ESPACIO o toque el botón de abajo para continuar.",0,keyboardresponseMF.png,,,,,,,,,,,,,,,,,,,,,,,,,,,,,,,,,,,,,,,,,,,,,,
,,,,,,bd598fe98750ac54538d21a2,66a626ef09d4e21e1a8894ec,67361f0ae3148bb8700eefbe,2024-11-14_17h02.59.710,Tarea de género gramatical,2024.2.2,Win32,59.88023952,,,51.2543,71.9276,space,20.5548,,-0.361111111,-0.252777806,0,0,0,0,1,1,1,1,2,instructions,"Si su dispositivo tiene teclado, pulse la tecla ""A"" para las palabras en masculino (por ejemplo: ""arroz"") y la tecla ""L"" para las palabras en femenino (por ejemplo: ""mano"").
Pulse la tecla ESPACIO o toque el botón de abajo para continuar.",1,keyboardresponseMF.png,,,,,,,,,,,,,,,,,,,,,,,,,,,,,,,,,,,,,,,,,,,,,,
,,,,,,bd598fe98750ac54538d21a2,66a626ef09d4e21e1a8894ec,67361f0ae3148bb8700eefbe,2024-11-14_17h02.59.710,Tarea de género gramatical,2024.2.2,Win32,59.88023952,,,71.9317,84.2439,space,12.2461,,-0.361111111,-0.252777806,0,0,0,0,2,2,2,1,3,instructions,"Si utiliza un dispositivo sólo táctil, colóquelo en horizontal y utilice los botones de la pantalla. No utilice el ratón.
Pulse la tecla ESPACIO o toque el botón de abajo para continuar.",2,touchresponseMF.png,,,,,,,,,,,,,,,,,,,,,,,,,,,,,,,,,,,,,,,,,,,,,,
,,,,,,bd598fe98750ac54538d21a2,66a626ef09d4e21e1a8894ec,67361f0ae3148bb8700eefbe,2024-11-14_17h02.59.710,Tarea de género gramatical,2024.2.2,Win32,59.88023952,,,84.2462,102.3951,space,18.1344,,-0.361111111,-0.252777806,0,0,0,0,3,3,3,1,4,instructions,"Es muy importante que responda con la mayor rapidez y precisión posibles, ya que cada cadena de letras sólo estará en pantalla durante un instante. Si no responde en ese tiempo, aparecerá el mensaje ""Muy lento"" y el experimento pasará a la siguiente palabra. Los primeros 15 intentos serán de práctica y habrá dos descansos durante la prueba.
Pulse la tecla ESPACIO o toque el botón de abajo para iniciar la parte de práctica.",0,keyboardresponseMF.png,,,,,,,,,,,,,,,,,,,,,,,,,,,,,,,,,,,,,,,,,,,,,,
,,,,,,bd598fe98750ac54538d21a2,66a626ef09d4e21e1a8894ec,67361f0ae3148bb8700eefbe,2024-11-14_17h02.59.710,Tarea de género gramatical,2024.2.2,Win32,59.88023952,,,,,,,,,,,,,,,,,,,,,,,102.4291,104.2944,l,1,1.1858,,[],[],[],[],[],[],[],1.1858,1,104.2946,104.7953,0,0,0,1,1,2002,FEM,CON,150,pala,,a,,,,,,,,,,,,,,,,,
,,,,,,bd598fe98750ac54538d21a2,66a626ef09d4e21e1a8894ec,67361f0ae3148bb8700eefbe,2024-11-14_17h02.59.710,Tarea de género gramatical,2024.2.2,Win32,59.88023952,,,,,,,,,,,,,,,,,,,,,,,104.7992,106.2782,l,1,0.8117,,[],[],[],[],[],[],[],0.8117,1,106.2783,106.7779,0,1,1,7,1,2008,FEM,CON,150,siesta,,a,,,,,,,,,,,,,,,,,
,,,,,,bd598fe98750ac54538d21a2,66a626ef09d4e21e1a8894ec,67361f0ae3148bb8700eefbe,2024-11-14_17h02.59.710,Tarea de género gramatical,2024.2.2,Win32,59.88023952,,,,,,,,,,,,,,,,,,,,,,,106.78,108.8277,a,0,1.3719,,[],[],[],[],[],[],[],1.3719,0,108.8287,109.3281,0,2,2,5,1,2006,FEM,DIS,150,serie,el,a,,,,,,,,,,,,,,,,,
,,,,,,bd598fe98750ac54538d21a2,66a626ef09d4e21e1a8894ec,67361f0ae3148bb8700eefbe,2024-11-14_17h02.59.710,Tarea de género gramatical,2024.2.2,Win32,59.88023952,,,,,,,,,,,,,,,,,,,,,,,109.3308,111.7284,a,1,1.7261,,[],[],[],[],[],[],[],1.7261,1,111.7303,112.2279,0,3,3,12,1,2013,MAS,AGR,150,acero,el,l,,,,,,,,,,,,,,,,,
,,,,,,bd598fe98750ac54538d21a2,66a626ef09d4e21e1a8894ec,67361f0ae3148bb8700eefbe,2024-11-14_17h02.59.710,Tarea de género gramatical,2024.2.2,Win32,59.88023952,,,,,,,,,,,,,,,,,,,,,,,112.2308,114.7783,l,1,1.8661,,[],[],[],[],[],[],[],1.8661,1,114.7784,115.2782,0,4,4,2,1,2003,FEM,DIS,150,daga,el,a,,,,,,,,,,,,,,,,,
,,,,,,bd598fe98750ac54538d21a2,66a626ef09d4e21e1a8894ec,67361f0ae3148bb8700eefbe,2024-11-14_17h02.59.710,Tarea de género gramatical,2024.2.2,Win32,59.88023952,,,,,,,,,,,,,,,,,,,,,,,115.2812,117.3446,l,1,1.3917,,[],[],[],[],[],[],[],1.3917,1,117.3447,117.8447,0,5,5,3,1,2004,FEM,AGR,150,venta,la,a,,,,,,,,,,,,,,,,,
,,,,,,bd598fe98750ac54538d21a2,66a626ef09d4e21e1a8894ec,67361f0ae3148bb8700eefbe,2024-11-14_17h02.59.710,Tarea de género gramatical,2024.2.2,Win32,59.88023952,,,,,,,,,,,,,,,,,,,,,,,117.8463,119.5287,l,1,1.0112,,[],[],[],[],[],[],[],1.0112,1,119.529,120.0282,0,6,6,4,1,2005,FEM,CON,150,placa,,a,,,,,,,,,,,,,,,,,
,,,,,,bd598fe98750ac54538d21a2,66a626ef09d4e21e1a8894ec,67361f0ae3148bb8700eefbe,2024-11-14_17h02.59.710,Tarea de género gramatical,2024.2.2,Win32,59.88023952,,,,,,,,,,,,,,,,,,,,,,,120.0304,122.1285,l,0,1.4279,,[],[],[],[],[],[],[],1.4279,0,122.1305,122.6284,0,7,7,8,1,2009,MAS,DIS,150,puerto,la,l,,,,,,,,,,,,,,,,,
,,,,,,bd598fe98750ac54538d21a2,66a626ef09d4e21e1a8894ec,67361f0ae3148bb8700eefbe,2024-11-14_17h02.59.710,Tarea de género gramatical,2024.2.2,Win32,59.88023952,,,,,,,,,,,,,,,,,,,,,,,122.6321,124.0953,a,1,0.7971,,[],[],[],[],[],[],[],0.7971,1,124.0974,124.5953,0,8,8,14,1,2015,MAS,DIS,150,robot,la,l,,,,,,,,,,,,,,,,,
,,,,,,bd598fe98750ac54538d21a2,66a626ef09d4e21e1a8894ec,67361f0ae3148bb8700eefbe,2024-11-14_17h02.59.710,Tarea de género gramatical,2024.2.2,Win32,59.88023952,,,,,,,,,,,,,,,,,,,,,,,124.5976,126.0787,a,1,0.8011,,[],[],[],[],[],[],[],0.8011,1,126.0788,126.5782,0,9,9,10,1,2011,MAS,CON,150,canal,,l,,,,,,,,,,,,,,,,,
,,,,,,bd598fe98750ac54538d21a2,66a626ef09d4e21e1a8894ec,67361f0ae3148bb8700eefbe,2024-11-14_17h02.59.710,Tarea de género gramatical,2024.2.2,Win32,59.88023952,,,,,,,,,,,,,,,,,,,,,,,126.5798,127.9619,l,1,0.7013,,[],[],[],[],[],[],[],0.7013,1,127.962,128.4619,0,10,10,6,1,2007,FEM,AGR,150,navaja,la,a,,,,,,,,,,,,,,,,,
,,,,,,bd598fe98750ac54538d21a2,66a626ef09d4e21e1a8894ec,67361f0ae3148bb8700eefbe,2024-11-14_17h02.59.710,Tarea de género gramatical,2024.2.2,Win32,59.88023952,,,,,,,,,,,,,,,,,,,,,,,128.4656,129.8786,a,1,0.7381,,[],[],[],[],[],[],[],0.7381,1,129.8788,130.3784,0,11,11,11,1,2012,MAS,DIS,150,clima,la,l,,,,,,,,,,,,,,,,,
,,,,,,bd598fe98750ac54538d21a2,66a626ef09d4e21e1a8894ec,67361f0ae3148bb8700eefbe,2024-11-14_17h02.59.710,Tarea de género gramatical,2024.2.2,Win32,59.88023952,,,,,,,,,,,,,,,,,,,,,,,130.3801,131.612,a,1,0.5571,,[],[],[],[],[],[],[],0.5571,1,131.6121,132.112,0,12,12,9,1,2010,MAS,AGR,150,vecino,el,l,,,,,,,,,,,,,,,,,
,,,,,,bd598fe98750ac54538d21a2,66a626ef09d4e21e1a8894ec,67361f0ae3148bb8700eefbe,2024-11-14_17h02.59.710,Tarea de género gramatical,2024.2.2,Win32,59.88023952,,,,,,,,,,,,,,,,,,,,,,,132.1143,133.4949,a,1,0.7044,,[],[],[],[],[],[],[],0.7044,1,133.495,133.9955,0,13,13,13,1,2014,MAS,CON,150,siglo,,l,,,,,,,,,,,,,,,,,
,,,,,,bd598fe98750ac54538d21a2,66a626ef09d4e21e1a8894ec,67361f0ae3148bb8700eefbe,2024-11-14_17h02.59.710,Tarea de género gramatical,2024.2.2,Win32,59.88023952,,,,,,,,,,,,,,,,,,,,,,,133.9978,135.5952,l,1,0.9165,,[],[],[],[],[],[],[],0.9165,1,135.5953,136.0955,0,14,14,0,1,2001,FEM,AGR,150,nuca,la,a,,,,,,,,,,,,,,,,,
,,,,,,bd598fe98750ac54538d21a2,66a626ef09d4e21e1a8894ec,67361f0ae3148bb8700eefbe,2024-11-14_17h02.59.710,Tarea de género gramatical,2024.2.2,Win32,59.88023952,,,143.5003,148.4126,space,4.8977,,-0.361111111,-0.252777806,0,0,0,,,,,,,,,,,148.491,149.6655,l,1,0.5159,,[],[],[],[],[],[],[],0.5159,1,149.6655,150.1647,,,,,,561,FEM,AGR,150,goma,la,a,150.165,150.1682,-0.361111111,-0.252777806,0,0,0,,0,0,0,110,1,,,,
,,,,,,bd598fe98750ac54538d21a2,66a626ef09d4e21e1a8894ec,67361f0ae3148bb8700eefbe,2024-11-14_17h02.59.710,Tarea de género gramatical,2024.2.2,Win32,59.88023952,,,,,,,,,,,,,,,,,,,,,,,150.1689,151.3154,a,1,0.4816,,[],[],[],[],[],[],[],0.4816,1,151.3155,151.8148,,,,,,563,MAS,DIS,150,toro,la,l,151.815,151.8152,-0.361111111,-0.252777806,0,0,0,,0,1,1,112,1,,,,
,,,,,,bd598fe98750ac54538d21a2,66a626ef09d4e21e1a8894ec,67361f0ae3148bb8700eefbe,2024-11-14_17h02.59.710,Tarea de género gramatical,2024.2.2,Win32,59.88023952,,,,,,,,,,,,,,,,,,,,,,,151.8163,152.9619,a,1,0.4542,,[],[],[],[],[],[],[],0.4542,1,152.962,153.4649,,,,,,700,MAS,CON,150,cerdo,,l,153.4661,153.4668,-0.361111111,-0.252777806,0,0,0,,0,2,2,249,1,,,,
,,,,,,bd598fe98750ac54538d21a2,66a626ef09d4e21e1a8894ec,67361f0ae3148bb8700eefbe,2024-11-14_17h02.59.710,Tarea de género gramatical,2024.2.2,Win32,59.88023952,,,,,,,,,,,,,,,,,,,,,,,153.4673,154.6654,l,1,0.5172,,[],[],[],[],[],[],[],0.5172,1,154.6655,155.1622,,,,,,878,FEM,DIS,150,jugada,el,a,155.1622,155.1625,-0.361111111,-0.252777806,0,0,0,,0,3,3,427,1,,,,
,,,,,,bd598fe98750ac54538d21a2,66a626ef09d4e21e1a8894ec,67361f0ae3148bb8700eefbe,2024-11-14_17h02.59.710,Tarea de género gramatical,2024.2.2,Win32,59.88023952,,,,,,,,,,,,,,,,,,,,,,,155.1641,156.3656,a,1,0.5341,,[],[],[],[],[],[],[],0.5341,1,156.3657,156.8649,,,,,,887,MAS,DIS,150,hombro,la,l,156.8649,156.8651,-0.361111111,-0.252777806,0,0,0,,0,4,4,436,1,,,,
,,,,,,bd598fe98750ac54538d21a2,66a626ef09d4e21e1a8894ec,67361f0ae3148bb8700eefbe,2024-11-14_17h02.59.710,Tarea de género gramatical,2024.2.2,Win32,59.88023952,,,,,,,,,,,,,,,,,,,,,,,156.866,158.0287,a,1,0.4773,,[],[],[],[],[],[],[],0.4773,1,158.0289,158.5316,,,,,,474,MAS,AGR,150,voto,el,l,158.5318,158.532,-0.361111111,-0.252777806,0,0,0,,0,5,5,23,1,,,,
,,,,,,bd598fe98750ac54538d21a2,66a626ef09d4e21e1a8894ec,67361f0ae3148bb8700eefbe,2024-11-14_17h02.59.710,Tarea de género gramatical,2024.2.2,Win32,59.88023952,,,,,,,,,,,,,,,,,,,,,,,158.5332,159.6822,l,1,0.4675,,[],[],[],[],[],[],[],0.4675,1,159.6823,160.1815,,,,,,506,FEM,DIS,150,bola,el,a,160.1828,160.1836,-0.361111111,-0.252777806,0,0,0,,0,6,6,55,1,,,,
,,,,,,bd598fe98750ac54538d21a2,66a626ef09d4e21e1a8894ec,67361f0ae3148bb8700eefbe,2024-11-14_17h02.59.710,Tarea de género gramatical,2024.2.2,Win32,59.88023952,,,,,,,,,,,,,,,,,,,,,,,160.1844,161.2986,l,1,0.4482,,[],[],[],[],[],[],[],0.4482,1,161.2987,161.7984,,,,,,505,FEM,CON,150,taza,,a,161.7985,161.7986,-0.361111111,-0.252777806,0,0,0,,0,7,7,54,1,,,,
,,,,,,bd598fe98750ac54538d21a2,66a626ef09d4e21e1a8894ec,67361f0ae3148bb8700eefbe,2024-11-14_17h02.59.710,Tarea de género gramatical,2024.2.2,Win32,59.88023952,,,,,,,,,,,,,,,,,,,,,,,161.7995,163.0983,l,1,0.6169,,[],[],[],[],[],[],[],0.6169,1,163.0985,163.5957,,,,,,818,FEM,DIS,150,gracia,el,a,163.5958,163.5959,-0.361111111,-0.252777806,0,0,0,,0,8,8,367,1,,,,
,,,,,,bd598fe98750ac54538d21a2,66a626ef09d4e21e1a8894ec,67361f0ae3148bb8700eefbe,2024-11-14_17h02.59.710,Tarea de género gramatical,2024.2.2,Win32,59.88023952,,,,,,,,,,,,,,,,,,,,,,,163.5972,165.0989,l,1,0.8341,,[],[],[],[],[],[],[],0.8341,1,165.0989,165.5974,,,,,,500,FEM,DIS,150,dama,el,a,165.5975,165.5977,-0.361111111,-0.252777806,0,0,0,,0,9,9,49,1,,,,
,,,,,,bd598fe98750ac54538d21a2,66a626ef09d4e21e1a8894ec,67361f0ae3148bb8700eefbe,2024-11-14_17h02.59.710,Tarea de género gramatical,2024.2.2,Win32,59.88023952,,,,,,,,,,,,,,,,,,,,,,,165.5988,166.7656,a,1,0.5007,,[],[],[],[],[],[],[],0.5007,1,166.7657,167.2652,,,,,,516,MAS,AGR,150,muro,el,l,167.2654,167.2655,-0.361111111,-0.252777806,0,0,0,,0,10,10,65,1,,,,
,,,,,,bd598fe98750ac54538d21a2,66a626ef09d4e21e1a8894ec,67361f0ae3148bb8700eefbe,2024-11-14_17h02.59.710,Tarea de género gramatical,2024.2.2,Win32,59.88023952,,,,,,,,,,,,,,,,,,,,,,,167.2665,168.4154,a,1,0.4672,,[],[],[],[],[],[],[],0.4672,1,168.4155,168.9156,,,,,,635,MAS,DIS,150,sueño,la,l,168.9181,168.9194,-0.361111111,-0.252777806,0,0,0,,0,11,11,184,1,,,,
,,,,,,bd598fe98750ac54538d21a2,66a626ef09d4e21e1a8894ec,67361f0ae3148bb8700eefbe,2024-11-14_17h02.59.710,Tarea de género gramatical,2024.2.2,Win32,59.88023952,,,,,,,,,,,,,,,,,,,,,,,168.9205,170.0157,a,1,0.4174,,[],[],[],[],[],[],[],0.4174,1,170.0158,170.5154,,,,,,634,MAS,CON,150,cielo,,l,170.5155,170.5156,-0.361111111,-0.252777806,0,0,0,,0,12,12,183,1,,,,
,,,,,,bd598fe98750ac54538d21a2,66a626ef09d4e21e1a8894ec,67361f0ae3148bb8700eefbe,2024-11-14_17h02.59.710,Tarea de género gramatical,2024.2.2,Win32,59.88023952,,,,,,,,,,,,,,,,,,,,,,,170.5165,171.5658,l,1,0.3821,,[],[],[],[],[],[],[],0.3821,1,171.5659,172.0655,,,,,,458,FEM,DIS,150,idea,el,a,172.0655,172.0657,-0.361111111,-0.252777806,0,0,0,,0,13,13,7,1,,,,
,,,,,,bd598fe98750ac54538d21a2,66a626ef09d4e21e1a8894ec,67361f0ae3148bb8700eefbe,2024-11-14_17h02.59.710,Tarea de género gramatical,2024.2.2,Win32,59.88023952,,,,,,,,,,,,,,,,,,,,,,,172.067,173.2657,a,1,0.5173,,[],[],[],[],[],[],[],0.5173,1,173.2658,173.7652,,,,,,791,MAS,DIS,150,precio,la,l,173.7654,173.7654,-0.361111111,-0.252777806,0,0,0,,0,14,14,340,1,,,,
,,,,,,bd598fe98750ac54538d21a2,66a626ef09d4e21e1a8894ec,67361f0ae3148bb8700eefbe,2024-11-14_17h02.59.710,Tarea de género gramatical,2024.2.2,Win32,59.88023952,,,,,,,,,,,,,,,,,,,,,,,173.7665,175.0655,l,1,0.617,,[],[],[],[],[],[],[],0.617,1,175.0656,175.5659,,,,,,793,FEM,CON,150,trampa,,a,175.569,175.5708,-0.361111111,-0.252777806,0,0,0,,0,15,15,342,1,,,,
,,,,,,bd598fe98750ac54538d21a2,66a626ef09d4e21e1a8894ec,67361f0ae3148bb8700eefbe,2024-11-14_17h02.59.710,Tarea de género gramatical,2024.2.2,Win32,59.88023952,,,,,,,,,,,,,,,,,,,,,,,175.5725,176.6791,a,1,0.4261,,[],[],[],[],[],[],[],0.4261,1,176.6792,177.1791,,,,,,862,MAS,CON,150,espejo,,l,177.1791,177.1792,-0.361111111,-0.252777806,0,0,0,,0,16,16,411,1,,,,
,,,,,,bd598fe98750ac54538d21a2,66a626ef09d4e21e1a8894ec,67361f0ae3148bb8700eefbe,2024-11-14_17h02.59.710,Tarea de género gramatical,2024.2.2,Win32,59.88023952,,,,,,,,,,,,,,,,,,,,,,,177.18,178.2988,a,1,0.4335,,[],[],[],[],[],[],[],0.4335,1,178.2989,178.7986,,,,,,622,MAS,CON,150,poder,,l,178.7987,178.7987,-0.361111111,-0.252777806,0,0,0,,0,17,17,171,1,,,,
,,,,,,bd598fe98750ac54538d21a2,66a626ef09d4e21e1a8894ec,67361f0ae3148bb8700eefbe,2024-11-14_17h02.59.710,Tarea de género gramatical,2024.2.2,Win32,59.88023952,,,,,,,,,,,,,,,,,,,,,,,178.7997,180.0659,a,1,0.5842,,[],[],[],[],[],[],[],0.5842,1,180.066,180.5654,,,,,,575,MAS,DIS,150,bate,la,l,180.5654,180.5655,-0.361111111,-0.252777806,0,0,0,,0,18,18,124,1,,,,
,,,,,,bd598fe98750ac54538d21a2,66a626ef09d4e21e1a8894ec,67361f0ae3148bb8700eefbe,2024-11-14_17h02.59.710,Tarea de género gramatical,2024.2.2,Win32,59.88023952,,,,,,,,,,,,,,,,,,,,,,,180.5664,181.8485,l,1,0.6001,,[],[],[],[],[],[],[],0.6001,1,181.8486,182.346,,,,,,573,FEM,AGR,150,tela,la,a,182.346,182.3461,-0.361111111,-0.252777806,0,0,0,,0,19,19,122,1,,,,
,,,,,,bd598fe98750ac54538d21a2,66a626ef09d4e21e1a8894ec,67361f0ae3148bb8700eefbe,2024-11-14_17h02.59.710,Tarea de género gramatical,2024.2.2,Win32,59.88023952,,,,,,,,,,,,,,,,,,,,,,,182.3475,183.4991,a,1,0.4837,,[],[],[],[],[],[],[],0.4837,1,183.4992,183.999,,,,,,472,MAS,CON,150,pelo,,l,184.0013,184.0026,-0.361111111,-0.252777806,0,0,0,,0,20,20,21,1,,,,
,,,,,,bd598fe98750ac54538d21a2,66a626ef09d4e21e1a8894ec,67361f0ae3148bb8700eefbe,2024-11-14_17h02.59.710,Tarea de género gramatical,2024.2.2,Win32,59.88023952,,,,,,,,,,,,,,,,,,,,,,,184.0038,185.149,a,1,0.4818,,[],[],[],[],[],[],[],0.4818,1,185.1491,185.649,,,,,,821,MAS,DIS,150,sonido,la,l,185.649,185.6491,-0.361111111,-0.252777806,0,0,0,,0,21,21,370,1,,,,
,,,,,,bd598fe98750ac54538d21a2,66a626ef09d4e21e1a8894ec,67361f0ae3148bb8700eefbe,2024-11-14_17h02.59.710,Tarea de género gramatical,2024.2.2,Win32,59.88023952,,,,,,,,,,,,,,,,,,,,,,,185.6503,186.7793,l,1,0.4398,,[],[],[],[],[],[],[],0.4398,1,186.7795,187.2827,,,,,,657,FEM,AGR,150,playa,la,a,187.2828,187.2829,-0.361111111,-0.252777806,0,0,0,,0,22,22,206,1,,,,
,,,,,,bd598fe98750ac54538d21a2,66a626ef09d4e21e1a8894ec,67361f0ae3148bb8700eefbe,2024-11-14_17h02.59.710,Tarea de género gramatical,2024.2.2,Win32,59.88023952,,,,,,,,,,,,,,,,,,,,,,,187.2848,188.4293,a,1,0.4549,,[],[],[],[],[],[],[],0.4549,1,188.4295,188.9295,,,,,,694,MAS,CON,150,hielo,,l,188.9296,188.9297,-0.361111111,-0.252777806,0,0,0,,0,23,23,243,1,,,,
,,,,,,bd598fe98750ac54538d21a2,66a626ef09d4e21e1a8894ec,67361f0ae3148bb8700eefbe,2024-11-14_17h02.59.710,Tarea de género gramatical,2024.2.2,Win32,59.88023952,,,,,,,,,,,,,,,,,,,,,,,188.9311,190.3489,a,0,0.7503,,[],[],[],[],[],[],[],0.7503,0,190.3495,190.8491,,,,,,757,FEM,CON,150,suerte,,a,190.8509,190.8521,-0.361111111,-0.252777806,0,0,0,,0,24,24,306,1,,,,
,,,,,,bd598fe98750ac54538d21a2,66a626ef09d4e21e1a8894ec,67361f0ae3148bb8700eefbe,2024-11-14_17h02.59.710,Tarea de género gramatical,2024.2.2,Win32,59.88023952,,,,,,,,,,,,,,,,,,,,,,,190.8531,192.0996,l,1,0.582,,[],[],[],[],[],[],[],0.582,1,192.1008,192.5961,,,,,,667,FEM,CON,150,tarea,,a,192.5962,192.5963,-0.361111111,-0.252777806,0,0,0,,0,25,25,216,1,,,,
,,,,,,bd598fe98750ac54538d21a2,66a626ef09d4e21e1a8894ec,67361f0ae3148bb8700eefbe,2024-11-14_17h02.59.710,Tarea de género gramatical,2024.2.2,Win32,59.88023952,,,,,,,,,,,,,,,,,,,,,,,192.5976,193.7994,a,1,0.5339,,[],[],[],[],[],[],[],0.5339,1,193.7995,194.299,,,,,,688,MAS,CON,150,norte,,l,194.2991,194.2991,-0.361111111,-0.252777806,0,0,0,,0,26,26,237,1,,,,
,,,,,,bd598fe98750ac54538d21a2,66a626ef09d4e21e1a8894ec,67361f0ae3148bb8700eefbe,2024-11-14_17h02.59.710,Tarea de género gramatical,2024.2.2,Win32,59.88023952,,,,,,,,,,,,,,,,,,,,,,,194.3002,195.5327,a,1,0.5653,,[],[],[],[],[],[],[],0.5653,1,195.5328,196.0323,,,,,,845,MAS,DIS,150,correo,la,l,196.0325,196.0325,-0.361111111,-0.252777806,0,0,0,,0,27,27,394,1,,,,
,,,,,,bd598fe98750ac54538d21a2,66a626ef09d4e21e1a8894ec,67361f0ae3148bb8700eefbe,2024-11-14_17h02.59.710,Tarea de género gramatical,2024.2.2,Win32,59.88023952,,,,,,,,,,,,,,,,,,,,,,,196.0337,197.2962,l,1,0.5775,,[],[],[],[],[],[],[],0.5775,1,197.2963,197.7993,,,,,,632,FEM,DIS,150,prisa,el,a,197.7994,197.7995,-0.361111111,-0.252777806,0,0,0,,0,28,28,181,1,,,,
,,,,,,bd598fe98750ac54538d21a2,66a626ef09d4e21e1a8894ec,67361f0ae3148bb8700eefbe,2024-11-14_17h02.59.710,Tarea de género gramatical,2024.2.2,Win32,59.88023952,,,,,,,,,,,,,,,,,,,,,,,197.8004,198.963,a,1,0.4748,,[],[],[],[],[],[],[],0.4748,1,198.9631,199.4659,,,,,,582,MAS,AGR,150,velo,el,l,199.4669,199.4674,-0.361111111,-0.252777806,0,0,0,,0,29,29,131,1,,,,
,,,,,,bd598fe98750ac54538d21a2,66a626ef09d4e21e1a8894ec,67361f0ae3148bb8700eefbe,2024-11-14_17h02.59.710,Tarea de género gramatical,2024.2.2,Win32,59.88023952,,,,,,,,,,,,,,,,,,,,,,,199.4683,200.7492,a,1,0.6148,,[],[],[],[],[],[],[],0.6148,1,200.7493,201.2463,,,,,,785,MAS,DIS,150,montón,la,l,201.2463,201.2465,-0.361111111,-0.252777806,0,0,0,,0,30,30,334,1,,,,
,,,,,,bd598fe98750ac54538d21a2,66a626ef09d4e21e1a8894ec,67361f0ae3148bb8700eefbe,2024-11-14_17h02.59.710,Tarea de género gramatical,2024.2.2,Win32,59.88023952,,,,,,,,,,,,,,,,,,,,,,,201.2472,202.4496,l,1,0.5172,,[],[],[],[],[],[],[],0.5172,1,202.4497,202.9491,,,,,,848,FEM,DIS,150,hierba,el,a,202.9493,202.9493,-0.361111111,-0.252777806,0,0,0,,0,31,31,397,1,,,,
,,,,,,bd598fe98750ac54538d21a2,66a626ef09d4e21e1a8894ec,67361f0ae3148bb8700eefbe,2024-11-14_17h02.59.710,Tarea de género gramatical,2024.2.2,Win32,59.88023952,,,,,,,,,,,,,,,,,,,,,,,202.9503,204.3999,a,0,0.7816,,[],[],[],[],[],[],[],0.7816,0,204.4008,204.8963,,,,,,566,FEM,DIS,150,nube,el,a,204.8964,204.8964,-0.361111111,-0.252777806,0,0,0,,0,32,32,115,1,,,,
,,,,,,bd598fe98750ac54538d21a2,66a626ef09d4e21e1a8894ec,67361f0ae3148bb8700eefbe,2024-11-14_17h02.59.710,Tarea de género gramatical,2024.2.2,Win32,59.88023952,,,,,,,,,,,,,,,,,,,,,,,204.8974,206.35,a,1,0.7676,,[],[],[],[],[],[],[],0.7676,1,206.3514,206.8493,,,,,,617,MAS,DIS,150,juego,la,l,206.8505,206.8511,-0.361111111,-0.252777806,0,0,0,,0,33,33,166,1,,,,
,,,,,,bd598fe98750ac54538d21a2,66a626ef09d4e21e1a8894ec,67361f0ae3148bb8700eefbe,2024-11-14_17h02.59.710,Tarea de género gramatical,2024.2.2,Win32,59.88023952,,,,,,,,,,,,,,,,,,,,,,,206.8519,208.0162,l,1,0.4839,,[],[],[],[],[],[],[],0.4839,1,208.0164,208.5162,,,,,,704,FEM,DIS,150,caída,el,a,208.5163,208.5163,-0.361111111,-0.252777806,0,0,0,,0,34,34,253,1,,,,
,,,,,,bd598fe98750ac54538d21a2,66a626ef09d4e21e1a8894ec,67361f0ae3148bb8700eefbe,2024-11-14_17h02.59.710,Tarea de género gramatical,2024.2.2,Win32,59.88023952,,,,,,,,,,,,,,,,,,,,,,,208.5178,209.6501,l,1,0.452,,[],[],[],[],[],[],[],0.452,1,209.6501,210.1464,,,,,,765,FEM,AGR,150,manera,la,a,210.1465,210.1465,-0.361111111,-0.252777806,0,0,0,,0,35,35,314,1,,,,
,,,,,,bd598fe98750ac54538d21a2,66a626ef09d4e21e1a8894ec,67361f0ae3148bb8700eefbe,2024-11-14_17h02.59.710,Tarea de género gramatical,2024.2.2,Win32,59.88023952,,,,,,,,,,,,,,,,,,,,,,,210.1475,211.2666,l,1,0.4649,,[],[],[],[],[],[],[],0.4649,1,211.2667,211.7635,,,,,,525,FEM,AGR,150,caza,la,a,211.7637,211.764,-0.361111111,-0.252777806,0,0,0,,0,36,36,74,1,,,,
,,,,,,bd598fe98750ac54538d21a2,66a626ef09d4e21e1a8894ec,67361f0ae3148bb8700eefbe,2024-11-14_17h02.59.710,Tarea de género gramatical,2024.2.2,Win32,59.88023952,,,,,,,,,,,,,,,,,,,,,,,211.7663,212.9133,l,1,0.4777,,[],[],[],[],[],[],[],0.4777,1,212.9134,213.4162,,,,,,697,FEM,CON,150,frase,,a,213.4163,213.4164,-0.361111111,-0.252777806,0,0,0,,0,37,37,246,1,,,,
,,,,,,bd598fe98750ac54538d21a2,66a626ef09d4e21e1a8894ec,67361f0ae3148bb8700eefbe,2024-11-14_17h02.59.710,Tarea de género gramatical,2024.2.2,Win32,59.88023952,,,,,,,,,,,,,,,,,,,,,,,213.4176,214.5338,a,1,0.4486,,[],[],[],[],[],[],[],0.4486,1,214.534,215.03,,,,,,455,MAS,DIS,150,tipo,la,l,215.0318,215.0329,-0.361111111,-0.252777806,0,0,0,,0,38,38,4,1,,,,
,,,,,,bd598fe98750ac54538d21a2,66a626ef09d4e21e1a8894ec,67361f0ae3148bb8700eefbe,2024-11-14_17h02.59.710,Tarea de género gramatical,2024.2.2,Win32,59.88023952,,,,,,,,,,,,,,,,,,,,,,,215.0341,216.3667,a,1,0.6508,,[],[],[],[],[],[],[],0.6508,1,216.3668,216.866,,,,,,750,MAS,AGR,150,túnel,el,l,216.8661,216.8661,-0.361111111,-0.252777806,0,0,0,,0,39,39,299,1,,,,
,,,,,,bd598fe98750ac54538d21a2,66a626ef09d4e21e1a8894ec,67361f0ae3148bb8700eefbe,2024-11-14_17h02.59.710,Tarea de género gramatical,2024.2.2,Win32,59.88023952,,,,,,,,,,,,,,,,,,,,,,,216.867,217.9996,l,1,0.4644,,[],[],[],[],[],[],[],0.4644,1,217.9996,218.4996,,,,,,843,FEM,AGR,150,alarma,la,a,218.4997,218.4998,-0.361111111,-0.252777806,0,0,0,,0,40,40,392,1,,,,
,,,,,,bd598fe98750ac54538d21a2,66a626ef09d4e21e1a8894ec,67361f0ae3148bb8700eefbe,2024-11-14_17h02.59.710,Tarea de género gramatical,2024.2.2,Win32,59.88023952,,,,,,,,,,,,,,,,,,,,,,,218.501,219.6832,a,1,0.515,,[],[],[],[],[],[],[],0.515,1,219.6832,220.1801,,,,,,658,MAS,CON,150,suelo,,l,220.1801,220.1803,-0.361111111,-0.252777806,0,0,0,,0,41,41,207,1,,,,
,,,,,,bd598fe98750ac54538d21a2,66a626ef09d4e21e1a8894ec,67361f0ae3148bb8700eefbe,2024-11-14_17h02.59.710,Tarea de género gramatical,2024.2.2,Win32,59.88023952,,,,,,,,,,,,,,,,,,,,,,,220.1815,221.3333,a,1,0.4672,,[],[],[],[],[],[],[],0.4672,1,221.3335,221.8331,,,,,,671,MAS,DIS,150,brazo,la,l,221.8345,221.8354,-0.361111111,-0.252777806,0,0,0,,0,42,42,220,1,,,,
,,,,,,bd598fe98750ac54538d21a2,66a626ef09d4e21e1a8894ec,67361f0ae3148bb8700eefbe,2024-11-14_17h02.59.710,Tarea de género gramatical,2024.2.2,Win32,59.88023952,,,,,,,,,,,,,,,,,,,,,,,221.8363,223.0302,a,0,0.5074,,[],[],[],[],[],[],[],0.5074,0,223.0315,223.5326,,,,,,807,FEM,AGR,150,lengua,la,a,223.5327,223.5327,-0.361111111,-0.252777806,0,0,0,,0,43,43,356,1,,,,
,,,,,,bd598fe98750ac54538d21a2,66a626ef09d4e21e1a8894ec,67361f0ae3148bb8700eefbe,2024-11-14_17h02.59.710,Tarea de género gramatical,2024.2.2,Win32,59.88023952,,,,,,,,,,,,,,,,,,,,,,,223.5341,224.8003,a,1,0.5841,,[],[],[],[],[],[],[],0.5841,1,224.8012,225.2999,,,,,,888,MAS,AGR,150,tanque,el,l,225.3,225.3002,-0.361111111,-0.252777806,0,0,0,,0,44,44,437,1,,,,
,,,,,,bd598fe98750ac54538d21a2,66a626ef09d4e21e1a8894ec,67361f0ae3148bb8700eefbe,2024-11-14_17h02.59.710,Tarea de género gramatical,2024.2.2,Win32,59.88023952,,,,,,,,,,,,,,,,,,,,,,,225.3017,226.35,l,1,0.3671,,[],[],[],[],[],[],[],0.3671,1,226.35,226.8498,,,,,,452,FEM,DIS,150,vida,el,a,226.8498,226.8499,-0.361111111,-0.252777806,0,0,0,,0,45,45,1,1,,,,
,,,,,,bd598fe98750ac54538d21a2,66a626ef09d4e21e1a8894ec,67361f0ae3148bb8700eefbe,2024-11-14_17h02.59.710,Tarea de género gramatical,2024.2.2,Win32,59.88023952,,,,,,,,,,,,,,,,,,,,,,,226.8508,228.3138,a,0,0.7714,,[],[],[],[],[],[],[],0.7714,0,228.3149,228.8136,,,,,,523,FEM,CON,150,roca,,a,228.8137,228.8139,-0.361111111,-0.252777806,0,0,0,,0,46,46,72,1,,,,
,,,,,,bd598fe98750ac54538d21a2,66a626ef09d4e21e1a8894ec,67361f0ae3148bb8700eefbe,2024-11-14_17h02.59.710,Tarea de género gramatical,2024.2.2,Win32,59.88023952,,,,,,,,,,,,,,,,,,,,,,,228.815,230.1671,a,1,0.6822,,[],[],[],[],[],[],[],0.6822,1,230.168,230.6666,,,,,,786,MAS,AGR,150,crimen,el,l,230.668,230.6688,-0.361111111,-0.252777806,0,0,0,,0,47,47,335,1,,,,
,,,,,,bd598fe98750ac54538d21a2,66a626ef09d4e21e1a8894ec,67361f0ae3148bb8700eefbe,2024-11-14_17h02.59.710,Tarea de género gramatical,2024.2.2,Win32,59.88023952,,,,,,,,,,,,,,,,,,,,,,,230.6696,232.0001,a,1,0.6509,,[],[],[],[],[],[],[],0.6509,1,232.0002,232.5,,,,,,894,MAS,AGR,150,límite,el,l,232.5,232.5002,-0.361111111,-0.252777806,0,0,0,,0,48,48,443,1,,,,
,,,,,,bd598fe98750ac54538d21a2,66a626ef09d4e21e1a8894ec,67361f0ae3148bb8700eefbe,2024-11-14_17h02.59.710,Tarea de género gramatical,2024.2.2,Win32,59.88023952,,,,,,,,,,,,,,,,,,,,,,,232.5013,233.8004,a,1,0.6173,,[],[],[],[],[],[],[],0.6173,1,233.8005,234.3001,,,,,,737,MAS,DIS,150,plato,la,l,234.3001,234.3002,-0.361111111,-0.252777806,0,0,0,,0,49,49,286,1,,,,
,,,,,,bd598fe98750ac54538d21a2,66a626ef09d4e21e1a8894ec,67361f0ae3148bb8700eefbe,2024-11-14_17h02.59.710,Tarea de género gramatical,2024.2.2,Win32,59.88023952,,,,,,,,,,,,,,,,,,,,,,,234.3016,235.3667,l,1,0.3836,,[],[],[],[],[],[],[],0.3836,1,235.3668,235.8664,,,,,,752,FEM,DIS,150,cabeza,el,a,235.8664,235.8665,-0.361111111,-0.252777806,0,0,0,,0,50,50,301,1,,,,
,,,,,,bd598fe98750ac54538d21a2,66a626ef09d4e21e1a8894ec,67361f0ae3148bb8700eefbe,2024-11-14_17h02.59.710,Tarea de género gramatical,2024.2.2,Win32,59.88023952,,,,,,,,,,,,,,,,,,,,,,,235.8673,236.9998,l,1,0.4502,,[],[],[],[],[],[],[],0.4502,1,236.9999,237.497,,,,,,783,FEM,AGR,150,locura,la,a,237.4979,237.4985,-0.361111111,-0.252777806,0,0,0,,0,51,51,332,1,,,,
,,,,,,bd598fe98750ac54538d21a2,66a626ef09d4e21e1a8894ec,67361f0ae3148bb8700eefbe,2024-11-14_17h02.59.710,Tarea de género gramatical,2024.2.2,Win32,59.88023952,,,,,,,,,,,,,,,,,,,,,,,237.4991,238.5995,l,1,0.4329,,[],[],[],[],[],[],[],0.4329,1,238.5996,239.0997,,,,,,483,FEM,AGR,150,boda,la,a,239.0997,239.0998,-0.361111111,-0.252777806,0,0,0,,0,52,52,32,1,,,,
,,,,,,bd598fe98750ac54538d21a2,66a626ef09d4e21e1a8894ec,67361f0ae3148bb8700eefbe,2024-11-14_17h02.59.710,Tarea de género gramatical,2024.2.2,Win32,59.88023952,,,,,,,,,,,,,,,,,,,,,,,239.1007,240.2335,a,1,0.4504,,[],[],[],[],[],[],[],0.4504,1,240.2336,240.7306,,,,,,826,MAS,CON,150,efecto,,l,240.7306,240.7307,-0.361111111,-0.252777806,0,0,0,,0,53,53,375,1,,,,
,,,,,,bd598fe98750ac54538d21a2,66a626ef09d4e21e1a8894ec,67361f0ae3148bb8700eefbe,2024-11-14_17h02.59.710,Tarea de género gramatical,2024.2.2,Win32,59.88023952,,,,,,,,,,,,,,,,,,,,,,,240.7322,241.8839,l,1,0.4841,,[],[],[],[],[],[],[],0.4841,1,241.8841,242.3804,,,,,,734,FEM,DIS,150,fruta,el,a,242.3804,242.3805,-0.361111111,-0.252777806,0,0,0,,0,54,54,283,1,,,,
,,,,,,bd598fe98750ac54538d21a2,66a626ef09d4e21e1a8894ec,67361f0ae3148bb8700eefbe,2024-11-14_17h02.59.710,Tarea de género gramatical,2024.2.2,Win32,59.88023952,,,,,,,,,,,,,,,,,,,,,,,242.3812,243.667,a,1,0.6007,,[],[],[],[],[],[],[],0.6007,1,243.667,244.1637,,,,,,814,MAS,CON,150,viento,,l,244.1637,244.1638,-0.361111111,-0.252777806,0,0,0,,0,55,55,363,1,,,,
,,,,,,bd598fe98750ac54538d21a2,66a626ef09d4e21e1a8894ec,67361f0ae3148bb8700eefbe,2024-11-14_17h02.59.710,Tarea de género gramatical,2024.2.2,Win32,59.88023952,,,,,,,,,,,,,,,,,,,,,,,244.1646,245.3843,a,1,0.5481,,[],[],[],[],[],[],[],0.5481,1,245.3844,245.8805,,,,,,569,MAS,DIS,150,mito,la,l,245.8816,245.8822,-0.361111111,-0.252777806,0,0,0,,0,56,56,118,1,,,,
,,,,,,bd598fe98750ac54538d21a2,66a626ef09d4e21e1a8894ec,67361f0ae3148bb8700eefbe,2024-11-14_17h02.59.710,Tarea de género gramatical,2024.2.2,Win32,59.88023952,,,,,,,,,,,,,,,,,,,,,,,245.8828,246.9673,l,1,0.417,,[],[],[],[],[],[],[],0.417,1,246.9674,247.4666,,,,,,782,FEM,DIS,150,basura,el,a,247.4667,247.4669,-0.361111111,-0.252777806,0,0,0,,0,57,57,331,1,,,,
,,,,,,bd598fe98750ac54538d21a2,66a626ef09d4e21e1a8894ec,67361f0ae3148bb8700eefbe,2024-11-14_17h02.59.710,Tarea de género gramatical,2024.2.2,Win32,59.88023952,,,,,,,,,,,,,,,,,,,,,,,247.4676,248.614,l,1,0.4526,,[],[],[],[],[],[],[],0.4526,1,248.6141,249.1171,,,,,,733,FEM,CON,150,pluma,,a,249.1172,249.1172,-0.361111111,-0.252777806,0,0,0,,0,58,58,282,1,,,,
,,,,,,bd598fe98750ac54538d21a2,66a626ef09d4e21e1a8894ec,67361f0ae3148bb8700eefbe,2024-11-14_17h02.59.710,Tarea de género gramatical,2024.2.2,Win32,59.88023952,,,,,,,,,,,,,,,,,,,,,,,249.1179,250.3473,a,1,0.5529,,[],[],[],[],[],[],[],0.5529,1,250.3474,250.8473,,,,,,726,MAS,AGR,150,ritmo,el,l,250.8473,250.8474,-0.361111111,-0.252777806,0,0,0,,0,59,59,275,1,,,,
,,,,,,bd598fe98750ac54538d21a2,66a626ef09d4e21e1a8894ec,67361f0ae3148bb8700eefbe,2024-11-14_17h02.59.710,Tarea de género gramatical,2024.2.2,Win32,59.88023952,,,,,,,,,,,,,,,,,,,,,,,250.8483,252.1342,l,1,0.6175,,[],[],[],[],[],[],[],0.6175,1,252.1343,252.6339,,,,,,589,FEM,CON,150,pipa,,a,252.6353,252.6363,-0.361111111,-0.252777806,0,0,0,,0,60,60,138,1,,,,
,,,,,,bd598fe98750ac54538d21a2,66a626ef09d4e21e1a8894ec,67361f0ae3148bb8700eefbe,2024-11-14_17h02.59.710,Tarea de género gramatical,2024.2.2,Win32,59.88023952,,,,,,,,,,,,,,,,,,,,,,,252.6372,254.0838,l,1,0.7673,,[],[],[],[],[],[],[],0.7673,1,254.0838,254.5838,,,,,,536,FEM,DIS,150,cruz,el,a,254.5839,254.584,-0.361111111,-0.252777806,0,0,0,,0,61,61,85,1,,,,
,,,,,,bd598fe98750ac54538d21a2,66a626ef09d4e21e1a8894ec,67361f0ae3148bb8700eefbe,2024-11-14_17h02.59.710,Tarea de género gramatical,2024.2.2,Win32,59.88023952,,,,,,,,,,,,,,,,,,,,,,,254.5851,255.8504,a,1,0.5837,,[],[],[],[],[],[],[],0.5837,1,255.8505,256.3505,,,,,,718,MAS,CON,150,truco,,l,256.3505,256.3507,-0.361111111,-0.252777806,0,0,0,,0,62,62,267,1,,,,
,,,,,,bd598fe98750ac54538d21a2,66a626ef09d4e21e1a8894ec,67361f0ae3148bb8700eefbe,2024-11-14_17h02.59.710,Tarea de género gramatical,2024.2.2,Win32,59.88023952,,,,,,,,,,,,,,,,,,,,,,,256.3519,257.6338,l,1,0.6152,,[],[],[],[],[],[],[],0.6152,1,257.634,258.1336,,,,,,770,FEM,DIS,150,fiesta,el,a,258.1337,258.1338,-0.361111111,-0.252777806,0,0,0,,0,63,63,319,1,,,,
,,,,,,bd598fe98750ac54538d21a2,66a626ef09d4e21e1a8894ec,67361f0ae3148bb8700eefbe,2024-11-14_17h02.59.710,Tarea de género gramatical,2024.2.2,Win32,59.88023952,,,,,,,,,,,,,,,,,,,,,,,258.1347,259.3507,a,1,0.534,,[],[],[],[],[],[],[],0.534,1,259.3508,259.8506,,,,,,766,MAS,CON,150,cuerpo,,l,259.8507,259.8509,-0.361111111,-0.252777806,0,0,0,,0,64,64,315,1,,,,
,,,,,,bd598fe98750ac54538d21a2,66a626ef09d4e21e1a8894ec,67361f0ae3148bb8700eefbe,2024-11-14_17h02.59.710,Tarea de género gramatical,2024.2.2,Win32,59.88023952,,,,,,,,,,,,,,,,,,,,,,,259.8521,261.0475,a,1,0.5095,,[],[],[],[],[],[],[],0.5095,1,261.0476,261.5503,,,,,,623,MAS,DIS,150,libro,la,l,261.5514,261.5521,-0.361111111,-0.252777806,0,0,0,,0,65,65,172,1,,,,
,,,,,,bd598fe98750ac54538d21a2,66a626ef09d4e21e1a8894ec,67361f0ae3148bb8700eefbe,2024-11-14_17h02.59.710,Tarea de género gramatical,2024.2.2,Win32,59.88023952,,,,,,,,,,,,,,,,,,,,,,,261.5528,262.8811,l,1,0.6421,,[],[],[],[],[],[],[],0.6421,1,262.8812,263.381,,,,,,823,FEM,CON,150,lluvia,,a,263.381,263.3812,-0.361111111,-0.252777806,0,0,0,,0,66,66,372,1,,,,
,,,,,,bd598fe98750ac54538d21a2,66a626ef09d4e21e1a8894ec,67361f0ae3148bb8700eefbe,2024-11-14_17h02.59.710,Tarea de género gramatical,2024.2.2,Win32,59.88023952,,,,,,,,,,,,,,,,,,,,,,,263.3821,264.6173,a,1,0.5671,,[],[],[],[],[],[],[],0.5671,1,264.6174,265.117,,,,,,576,MAS,AGR,150,lazo,el,l,265.117,265.1172,-0.361111111,-0.252777806,0,0,0,,0,67,67,125,1,,,,
,,,,,,bd598fe98750ac54538d21a2,66a626ef09d4e21e1a8894ec,67361f0ae3148bb8700eefbe,2024-11-14_17h02.59.710,Tarea de género gramatical,2024.2.2,Win32,59.88023952,,,,,,,,,,,,,,,,,,,,,,,265.1181,266.3007,l,1,0.5004,,[],[],[],[],[],[],[],0.5004,1,266.3007,266.7977,,,,,,609,FEM,AGR,150,clase,la,a,266.7978,266.7979,-0.361111111,-0.252777806,0,0,0,,0,68,68,158,1,,,,
,,,,,,bd598fe98750ac54538d21a2,66a626ef09d4e21e1a8894ec,67361f0ae3148bb8700eefbe,2024-11-14_17h02.59.710,Tarea de género gramatical,2024.2.2,Win32,59.88023952,,,,,,,,,,,,,,,,,,,,,,,266.7989,268.0512,l,1,0.5839,,[],[],[],[],[],[],[],0.5839,1,268.0513,268.5509,,,,,,686,FEM,DIS,150,deuda,el,a,268.5526,268.5537,-0.361111111,-0.252777806,0,0,0,,0,69,69,235,1,,,,
,,,,,,bd598fe98750ac54538d21a2,66a626ef09d4e21e1a8894ec,67361f0ae3148bb8700eefbe,2024-11-14_17h02.59.710,Tarea de género gramatical,2024.2.2,Win32,59.88023952,,,,,,,,,,,,,,,,,,,,,,,268.5549,269.734,l,1,0.5002,,[],[],[],[],[],[],[],0.5002,1,269.734,270.2341,,,,,,758,FEM,DIS,150,semana,el,a,270.2342,270.2342,-0.361111111,-0.252777806,0,0,0,,0,70,70,307,1,,,,
,,,,,,bd598fe98750ac54538d21a2,66a626ef09d4e21e1a8894ec,67361f0ae3148bb8700eefbe,2024-11-14_17h02.59.710,Tarea de género gramatical,2024.2.2,Win32,59.88023952,,,,,,,,,,,,,,,,,,,,,,,270.2355,271.5009,a,1,0.5838,,[],[],[],[],[],[],[],0.5838,1,271.5009,271.9978,,,,,,504,MAS,AGR,150,humo,el,l,271.9978,271.9979,-0.361111111,-0.252777806,0,0,0,,0,71,71,53,1,,,,
,,,,,,bd598fe98750ac54538d21a2,66a626ef09d4e21e1a8894ec,67361f0ae3148bb8700eefbe,2024-11-14_17h02.59.710,Tarea de género gramatical,2024.2.2,Win32,59.88023952,,,,,,,,,,,,,,,,,,,,,,,271.9987,273.2311,l,1,0.5618,,[],[],[],[],[],[],[],0.5618,1,273.2311,273.7341,,,,,,511,FEM,CON,150,ruta,,a,273.7341,273.7343,-0.361111111,-0.252777806,0,0,0,,0,72,72,60,1,,,,
,,,,,,bd598fe98750ac54538d21a2,66a626ef09d4e21e1a8894ec,67361f0ae3148bb8700eefbe,2024-11-14_17h02.59.710,Tarea de género gramatical,2024.2.2,Win32,59.88023952,,,,,,,,,,,,,,,,,,,,,,,273.7351,274.9314,a,1,0.522,,[],[],[],[],[],[],[],0.522,1,274.9315,275.4341,,,,,,468,MAS,AGR,150,tren,el,l,275.4342,275.4342,-0.361111111,-0.252777806,0,0,0,,0,73,73,17,1,,,,
,,,,,,bd598fe98750ac54538d21a2,66a626ef09d4e21e1a8894ec,67361f0ae3148bb8700eefbe,2024-11-14_17h02.59.710,Tarea de género gramatical,2024.2.2,Win32,59.88023952,,,,,,,,,,,,,,,,,,,,,,,275.4352,276.7313,l,1,0.622,,[],[],[],[],[],[],[],0.622,1,276.7314,277.2312,,,,,,499,FEM,CON,150,piel,,a,277.2323,277.2329,-0.361111111,-0.252777806,0,0,0,,0,74,74,48,1,,,,
,,,,,,bd598fe98750ac54538d21a2,66a626ef09d4e21e1a8894ec,67361f0ae3148bb8700eefbe,2024-11-14_17h02.59.710,Tarea de género gramatical,2024.2.2,Win32,59.88023952,,,,,,,,,,,,,,,,,,,,,,,277.2335,278.4178,a,1,0.5003,,[],[],[],[],[],[],[],0.5003,1,278.4179,278.9148,,,,,,900,MAS,AGR,150,conejo,el,l,278.9148,278.915,-0.361111111,-0.252777806,0,0,0,,0,75,75,449,1,,,,
,,,,,,bd598fe98750ac54538d21a2,66a626ef09d4e21e1a8894ec,67361f0ae3148bb8700eefbe,2024-11-14_17h02.59.710,Tarea de género gramatical,2024.2.2,Win32,59.88023952,,,,,,,,,,,,,,,,,,,,,,,278.9163,280.001,l,1,0.4138,,[],[],[],[],[],[],[],0.4138,1,280.001,280.5011,,,,,,687,FEM,AGR,150,ducha,la,a,280.5012,280.5014,-0.361111111,-0.252777806,0,0,0,,0,76,76,236,1,,,,
,,,,,,bd598fe98750ac54538d21a2,66a626ef09d4e21e1a8894ec,67361f0ae3148bb8700eefbe,2024-11-14_17h02.59.710,Tarea de género gramatical,2024.2.2,Win32,59.88023952,,,,,,,,,,,,,,,,,,,,,,,280.5025,281.6647,l,1,0.4844,,[],[],[],[],[],[],[],0.4844,1,281.6648,282.1673,,,,,,501,FEM,AGR,150,bala,la,a,282.1674,282.1675,-0.361111111,-0.252777806,0,0,0,,0,77,77,50,1,,,,
,,,,,,bd598fe98750ac54538d21a2,66a626ef09d4e21e1a8894ec,67361f0ae3148bb8700eefbe,2024-11-14_17h02.59.710,Tarea de género gramatical,2024.2.2,Win32,59.88023952,,,,,,,,,,,,,,,,,,,,,,,282.1686,283.3335,a,1,0.4828,,[],[],[],[],[],[],[],0.4828,1,283.3336,283.8343,,,,,,720,MAS,AGR,150,queso,el,l,283.8354,283.836,-0.361111111,-0.252777806,0,0,0,,0,78,78,269,1,,,,
,,,,,,bd598fe98750ac54538d21a2,66a626ef09d4e21e1a8894ec,67361f0ae3148bb8700eefbe,2024-11-14_17h02.59.710,Tarea de género gramatical,2024.2.2,Win32,59.88023952,,,,,,,,,,,,,,,,,,,,,,,283.8366,285.2349,a,1,0.732,,[],[],[],[],[],[],[],0.732,1,285.235,285.7314,,,,,,827,MAS,DIS,150,jardín,la,l,285.7315,285.7316,-0.361111111,-0.252777806,0,0,0,,0,79,79,376,1,,,,
,,,,,,bd598fe98750ac54538d21a2,66a626ef09d4e21e1a8894ec,67361f0ae3148bb8700eefbe,2024-11-14_17h02.59.710,Tarea de género gramatical,2024.2.2,Win32,59.88023952,,,,,,,,,,,,,,,,,,,,,,,285.7325,287.0348,a,1,0.6353,,[],[],[],[],[],[],[],0.6353,1,287.0349,287.5346,,,,,,598,MAS,CON,150,surf,,l,287.5346,287.5348,-0.361111111,-0.252777806,0,0,0,,0,80,80,147,1,,,,
,,,,,,bd598fe98750ac54538d21a2,66a626ef09d4e21e1a8894ec,67361f0ae3148bb8700eefbe,2024-11-14_17h02.59.710,Tarea de género gramatical,2024.2.2,Win32,59.88023952,,,,,,,,,,,,,,,,,,,,,,,287.5363,288.8148,a,1,0.5963,,[],[],[],[],[],[],[],0.5963,1,288.8148,289.3168,,,,,,899,MAS,DIS,150,payaso,la,l,289.3168,289.3169,-0.361111111,-0.252777806,0,0,0,,0,81,81,448,1,,,,
,,,,,,bd598fe98750ac54538d21a2,66a626ef09d4e21e1a8894ec,67361f0ae3148bb8700eefbe,2024-11-14_17h02.59.710,Tarea de género gramatical,2024.2.2,Win32,59.88023952,,,,,,,,,,,,,,,,,,,,,,,289.3181,290.5013,l,1,0.5312,,[],[],[],[],[],[],[],0.5312,1,290.5014,291.0013,,,,,,565,FEM,CON,150,seda,,a,291.0014,291.0014,-0.361111111,-0.252777806,0,0,0,,0,82,82,114,1,,,,
,,,,,,bd598fe98750ac54538d21a2,66a626ef09d4e21e1a8894ec,67361f0ae3148bb8700eefbe,2024-11-14_17h02.59.710,Tarea de género gramatical,2024.2.2,Win32,59.88023952,,,,,,,,,,,,,,,,,,,,,,,291.0028,292.1678,a,1,0.4837,,[],[],[],[],[],[],[],0.4837,1,292.1679,292.6651,,,,,,600,MAS,AGR,150,mozo,el,l,292.667,292.6682,-0.361111111,-0.252777806,0,0,0,,0,83,83,149,1,,,,
,,,,,,bd598fe98750ac54538d21a2,66a626ef09d4e21e1a8894ec,67361f0ae3148bb8700eefbe,2024-11-14_17h02.59.710,Tarea de género gramatical,2024.2.2,Win32,59.88023952,,,,,,,,,,,,,,,,,,,,,,,292.6693,294.035,l,1,0.6844,,[],[],[],[],[],[],[],0.6844,1,294.035,294.5346,,,,,,884,FEM,DIS,150,corona,el,a,294.5347,294.5348,-0.361111111,-0.252777806,0,0,0,,0,84,84,433,1,,,,
,,,,,,bd598fe98750ac54538d21a2,66a626ef09d4e21e1a8894ec,67361f0ae3148bb8700eefbe,2024-11-14_17h02.59.710,Tarea de género gramatical,2024.2.2,Win32,59.88023952,,,,,,,,,,,,,,,,,,,,,,,294.5361,295.884,l,1,0.6662,,[],[],[],[],[],[],[],0.6662,1,295.8841,296.3815,,,,,,572,FEM,DIS,150,loca,el,a,296.3816,296.3817,-0.361111111,-0.252777806,0,0,0,,0,85,85,121,1,,,,
,,,,,,bd598fe98750ac54538d21a2,66a626ef09d4e21e1a8894ec,67361f0ae3148bb8700eefbe,2024-11-14_17h02.59.710,Tarea de género gramatical,2024.2.2,Win32,59.88023952,,,,,,,,,,,,,,,,,,,,,,,296.3825,297.7018,a,1,0.6508,,[],[],[],[],[],[],[],0.6508,1,297.7018,298.2014,,,,,,792,MAS,AGR,150,abuelo,el,l,298.2014,298.2015,-0.361111111,-0.252777806,0,0,0,,0,86,86,341,1,,,,
,,,,,,bd598fe98750ac54538d21a2,66a626ef09d4e21e1a8894ec,67361f0ae3148bb8700eefbe,2024-11-14_17h02.59.710,Tarea de género gramatical,2024.2.2,Win32,59.88023952,,,,,,,,,,,,,,,,,,,,,,,298.2025,300.1686,a,1,1.2981,,[],[],[],[],[],[],[],1.2981,1,300.1689,300.6678,,,,,,743,MAS,DIS,150,patio,la,l,300.6688,300.6694,-0.361111111,-0.252777806,0,0,0,,0,87,87,292,1,,,,
,,,,,,bd598fe98750ac54538d21a2,66a626ef09d4e21e1a8894ec,67361f0ae3148bb8700eefbe,2024-11-14_17h02.59.710,Tarea de género gramatical,2024.2.2,Win32,59.88023952,,,,,,,,,,,,,,,,,,,,,,,300.67,301.9352,a,1,0.584,,[],[],[],[],[],[],[],0.584,1,301.9354,302.4346,,,,,,844,MAS,CON,150,examen,,l,302.4347,302.4348,-0.361111111,-0.252777806,0,0,0,,0,88,88,393,1,,,,
,,,,,,bd598fe98750ac54538d21a2,66a626ef09d4e21e1a8894ec,67361f0ae3148bb8700eefbe,2024-11-14_17h02.59.710,Tarea de género gramatical,2024.2.2,Win32,59.88023952,,,,,,,,,,,,,,,,,,,,,,,302.4359,303.5651,l,1,0.4566,,[],[],[],[],[],[],[],0.4566,1,303.5652,304.0653,,,,,,530,FEM,DIS,150,vaca,el,a,304.0653,304.0653,-0.361111111,-0.252777806,0,0,0,,0,89,89,79,1,,,,
,,,,,,bd598fe98750ac54538d21a2,66a626ef09d4e21e1a8894ec,67361f0ae3148bb8700eefbe,2024-11-14_17h02.59.710,Tarea de género gramatical,2024.2.2,Win32,59.88023952,,,,,,,,,,,,,,,,,,,,,,,304.0666,305.3518,l,1,0.6005,,[],[],[],[],[],[],[],0.6005,1,305.352,305.849,,,,,,806,FEM,DIS,150,piedra,el,a,305.849,305.8493,-0.361111111,-0.252777806,0,0,0,,0,90,90,355,1,,,,
,,,,,,bd598fe98750ac54538d21a2,66a626ef09d4e21e1a8894ec,67361f0ae3148bb8700eefbe,2024-11-14_17h02.59.710,Tarea de género gramatical,2024.2.2,Win32,59.88023952,,,,,,,,,,,,,,,,,,,,,,,305.8513,307.0186,a,1,0.5008,,[],[],[],[],[],[],[],0.5008,1,307.0188,307.518,,,,,,473,MAS,DIS,150,rato,la,l,307.5181,307.5182,-0.361111111,-0.252777806,0,0,0,,0,91,91,22,1,,,,
,,,,,,bd598fe98750ac54538d21a2,66a626ef09d4e21e1a8894ec,67361f0ae3148bb8700eefbe,2024-11-14_17h02.59.710,Tarea de género gramatical,2024.2.2,Win32,59.88023952,,,,,,,,,,,,,,,,,,,,,,,307.5197,308.7024,a,1,0.501,,[],[],[],[],[],[],[],0.501,1,308.7026,309.2013,,,,,,779,MAS,DIS,150,futuro,la,l,309.2023,309.2029,-0.361111111,-0.252777806,0,0,0,,0,92,92,328,1,,,,
,,,,,,bd598fe98750ac54538d21a2,66a626ef09d4e21e1a8894ec,67361f0ae3148bb8700eefbe,2024-11-14_17h02.59.710,Tarea de género gramatical,2024.2.2,Win32,59.88023952,,,,,,,,,,,,,,,,,,,,,,,309.2035,310.3353,l,1,0.4506,,[],[],[],[],[],[],[],0.4506,1,310.3353,310.832,,,,,,861,FEM,AGR,150,actriz,la,a,310.8321,310.8322,-0.361111111,-0.252777806,0,0,0,,0,93,93,410,1,,,,
,,,,,,bd598fe98750ac54538d21a2,66a626ef09d4e21e1a8894ec,67361f0ae3148bb8700eefbe,2024-11-14_17h02.59.710,Tarea de género gramatical,2024.2.2,Win32,59.88023952,,,,,,,,,,,,,,,,,,,,,,,310.8331,312.152,a,1,0.6506,,[],[],[],[],[],[],[],0.6506,1,312.1521,312.6516,,,,,,881,MAS,DIS,150,veneno,la,l,312.6516,312.6517,-0.361111111,-0.252777806,0,0,0,,0,94,94,430,1,,,,
,,,,,,bd598fe98750ac54538d21a2,66a626ef09d4e21e1a8894ec,67361f0ae3148bb8700eefbe,2024-11-14_17h02.59.710,Tarea de género gramatical,2024.2.2,Win32,59.88023952,,,,,,,,,,,,,,,,,,,,,,,312.6526,314.1853,a,1,0.8506,,[],[],[],[],[],[],[],0.8506,1,314.1854,314.6847,,,,,,760,MAS,CON,150,nombre,,l,314.6848,314.6849,-0.361111111,-0.252777806,0,0,0,,0,95,95,309,1,,,,
,,,,,,bd598fe98750ac54538d21a2,66a626ef09d4e21e1a8894ec,67361f0ae3148bb8700eefbe,2024-11-14_17h02.59.710,Tarea de género gramatical,2024.2.2,Win32,59.88023952,,,,,,,,,,,,,,,,,,,,,,,314.6858,315.9487,l,1,0.5691,,[],[],[],[],[],[],[],0.5691,1,315.9488,316.4517,,,,,,649,FEM,CON,150,nariz,,a,316.4528,316.4533,-0.361111111,-0.252777806,0,0,0,,0,96,96,198,1,,,,
,,,,,,bd598fe98750ac54538d21a2,66a626ef09d4e21e1a8894ec,67361f0ae3148bb8700eefbe,2024-11-14_17h02.59.710,Tarea de género gramatical,2024.2.2,Win32,59.88023952,,,,,,,,,,,,,,,,,,,,,,,316.4541,317.869,l,1,0.748,,[],[],[],[],[],[],[],0.748,1,317.8691,318.3682,,,,,,549,FEM,AGR,150,fase,la,a,318.3682,318.3684,-0.361111111,-0.252777806,0,0,0,,0,97,97,98,1,,,,
,,,,,,bd598fe98750ac54538d21a2,66a626ef09d4e21e1a8894ec,67361f0ae3148bb8700eefbe,2024-11-14_17h02.59.710,Tarea de género gramatical,2024.2.2,Win32,59.88023952,,,,,,,,,,,,,,,,,,,,,,,318.3697,319.452,l,1,0.4006,,[],[],[],[],[],[],[],0.4006,1,319.4521,319.9488,,,,,,553,FEM,CON,150,fama,,a,319.9489,319.949,-0.361111111,-0.252777806,0,0,0,,0,98,98,102,1,,,,
,,,,,,bd598fe98750ac54538d21a2,66a626ef09d4e21e1a8894ec,67361f0ae3148bb8700eefbe,2024-11-14_17h02.59.710,Tarea de género gramatical,2024.2.2,Win32,59.88023952,,,,,,,,,,,,,,,,,,,,,,,319.9503,321.1521,a,1,0.534,,[],[],[],[],[],[],[],0.534,1,321.1522,321.6519,,,,,,647,MAS,DIS,150,avión,la,l,321.652,321.6521,-0.361111111,-0.252777806,0,0,0,,0,99,99,196,1,,,,
,,,,,,bd598fe98750ac54538d21a2,66a626ef09d4e21e1a8894ec,67361f0ae3148bb8700eefbe,2024-11-14_17h02.59.710,Tarea de género gramatical,2024.2.2,Win32,59.88023952,,,,,,,,,,,,,,,,,,,,,,,321.6534,322.8356,l,1,0.5017,,[],[],[],[],[],[],[],0.5017,1,322.8357,323.3349,,,,,,805,FEM,CON,150,mirada,,a,323.335,323.3351,-0.361111111,-0.252777806,0,0,0,,0,100,100,354,1,,,,
,,,,,,bd598fe98750ac54538d21a2,66a626ef09d4e21e1a8894ec,67361f0ae3148bb8700eefbe,2024-11-14_17h02.59.710,Tarea de género gramatical,2024.2.2,Win32,59.88023952,,,,,,,,,,,,,,,,,,,,,,,323.3362,324.6186,a,1,0.6004,,[],[],[],[],[],[],[],0.6004,1,324.6187,325.1182,,,,,,882,MAS,AGR,150,océano,el,l,325.1192,325.1198,-0.361111111,-0.252777806,0,0,0,,0,101,101,431,1,,,,
,,,,,,bd598fe98750ac54538d21a2,66a626ef09d4e21e1a8894ec,67361f0ae3148bb8700eefbe,2024-11-14_17h02.59.710,Tarea de género gramatical,2024.2.2,Win32,59.88023952,,,,,,,,,,,,,,,,,,,,,,,325.1204,326.3359,a,1,0.534,,[],[],[],[],[],[],[],0.534,1,326.336,326.8352,,,,,,521,MAS,DIS,150,pozo,la,l,326.8353,326.8353,-0.361111111,-0.252777806,0,0,0,,0,102,102,70,1,,,,
,,,,,,bd598fe98750ac54538d21a2,66a626ef09d4e21e1a8894ec,67361f0ae3148bb8700eefbe,2024-11-14_17h02.59.710,Tarea de género gramatical,2024.2.2,Win32,59.88023952,,,,,,,,,,,,,,,,,,,,,,,326.8362,328.0189,a,1,0.5006,,[],[],[],[],[],[],[],0.5006,1,328.019,328.5185,,,,,,666,MAS,AGR,150,éxito,el,l,328.5185,328.5186,-0.361111111,-0.252777806,0,0,0,,0,103,103,215,1,,,,
,,,,,,bd598fe98750ac54538d21a2,66a626ef09d4e21e1a8894ec,67361f0ae3148bb8700eefbe,2024-11-14_17h02.59.710,Tarea de género gramatical,2024.2.2,Win32,59.88023952,,,,,,,,,,,,,,,,,,,,,,,328.5195,329.6828,l,1,0.4812,,[],[],[],[],[],[],[],0.4812,1,329.6829,330.1823,,,,,,453,FEM,AGR,150,cosa,la,a,330.1824,330.1825,-0.361111111,-0.252777806,0,0,0,,0,104,104,2,1,,,,
,,,,,,bd598fe98750ac54538d21a2,66a626ef09d4e21e1a8894ec,67361f0ae3148bb8700eefbe,2024-11-14_17h02.59.710,Tarea de género gramatical,2024.2.2,Win32,59.88023952,,,,,,,,,,,,,,,,,,,,,,,330.1835,331.3657,l,1,0.5081,,[],[],[],[],[],[],[],0.5081,1,331.3658,331.8658,,,,,,571,FEM,CON,150,pila,,a,331.8673,331.8682,-0.361111111,-0.252777806,0,0,0,,0,105,105,120,1,,,,
,,,,,,bd598fe98750ac54538d21a2,66a626ef09d4e21e1a8894ec,67361f0ae3148bb8700eefbe,2024-11-14_17h02.59.710,Tarea de género gramatical,2024.2.2,Win32,59.88023952,,,,,,,,,,,,,,,,,,,,,,,331.8691,333.0692,l,1,0.5175,,[],[],[],[],[],[],[],0.5175,1,333.0693,333.5672,,,,,,842,FEM,DIS,150,maleta,el,a,333.5673,333.5674,-0.361111111,-0.252777806,0,0,0,,0,106,106,391,1,,,,
,,,,,,bd598fe98750ac54538d21a2,66a626ef09d4e21e1a8894ec,67361f0ae3148bb8700eefbe,2024-11-14_17h02.59.710,Tarea de género gramatical,2024.2.2,Win32,59.88023952,,,,,,,,,,,,,,,,,,,,,,,333.5682,334.8526,l,1,0.6173,,[],[],[],[],[],[],[],0.6173,1,334.8527,335.3519,,,,,,645,FEM,AGR,150,pared,la,a,335.3519,335.352,-0.361111111,-0.252777806,0,0,0,,0,107,107,194,1,,,,
,,,,,,bd598fe98750ac54538d21a2,66a626ef09d4e21e1a8894ec,67361f0ae3148bb8700eefbe,2024-11-14_17h02.59.710,Tarea de género gramatical,2024.2.2,Win32,59.88023952,,,,,,,,,,,,,,,,,,,,,,,335.3529,336.4526,l,1,0.4172,,[],[],[],[],[],[],[],0.4172,1,336.4526,336.9523,,,,,,722,FEM,DIS,150,oreja,el,a,336.9524,336.9525,-0.361111111,-0.252777806,0,0,0,,0,108,108,271,1,,,,
,,,,,,bd598fe98750ac54538d21a2,66a626ef09d4e21e1a8894ec,67361f0ae3148bb8700eefbe,2024-11-14_17h02.59.710,Tarea de género gramatical,2024.2.2,Win32,59.88023952,,,,,,,,,,,,,,,,,,,,,,,336.9541,338.1188,a,0,0.4837,,[],[],[],[],[],[],[],0.4837,0,338.1194,338.6187,,,,,,705,FEM,AGR,150,tribu,la,a,338.6187,338.6188,-0.361111111,-0.252777806,0,0,0,,0,109,109,254,1,,,,
,,,,,,bd598fe98750ac54538d21a2,66a626ef09d4e21e1a8894ec,67361f0ae3148bb8700eefbe,2024-11-14_17h02.59.710,Tarea de género gramatical,2024.2.2,Win32,59.88023952,,,,,,,,,,,,,,,,,,,,,,,338.6195,340.0362,a,1,0.7341,,[],[],[],[],[],[],[],0.7341,1,340.0374,340.5326,,,,,,508,MAS,CON,150,mono,,l,340.5335,340.5341,-0.361111111,-0.252777806,0,0,0,,0,110,110,57,1,,,,
,,,,,,bd598fe98750ac54538d21a2,66a626ef09d4e21e1a8894ec,67361f0ae3148bb8700eefbe,2024-11-14_17h02.59.710,Tarea de género gramatical,2024.2.2,Win32,59.88023952,,,,,,,,,,,,,,,,,,,,,,,340.5348,341.8824,a,1,0.6729,,[],[],[],[],[],[],[],0.6729,1,341.8826,342.3826,,,,,,480,MAS,AGR,150,cine,el,l,342.3827,342.3827,-0.361111111,-0.252777806,0,0,0,,0,111,111,29,1,,,,
,,,,,,bd598fe98750ac54538d21a2,66a626ef09d4e21e1a8894ec,67361f0ae3148bb8700eefbe,2024-11-14_17h02.59.710,Tarea de género gramatical,2024.2.2,Win32,59.88023952,,,,,,,,,,,,,,,,,,,,,,,342.3836,343.5363,l,1,0.484,,[],[],[],[],[],[],[],0.484,1,343.5364,344.0355,,,,,,794,FEM,DIS,150,pareja,el,a,344.0356,344.0356,-0.361111111,-0.252777806,0,0,0,,0,112,112,343,1,,,,
,,,,,,bd598fe98750ac54538d21a2,66a626ef09d4e21e1a8894ec,67361f0ae3148bb8700eefbe,2024-11-14_17h02.59.710,Tarea de género gramatical,2024.2.2,Win32,59.88023952,,,,,,,,,,,,,,,,,,,,,,,344.0369,345.3493,a,1,0.6433,,[],[],[],[],[],[],[],0.6433,1,345.3494,345.8493,,,,,,527,MAS,DIS,150,pico,la,l,345.8494,345.8495,-0.361111111,-0.252777806,0,0,0,,0,113,113,76,1,,,,
,,,,,,bd598fe98750ac54538d21a2,66a626ef09d4e21e1a8894ec,67361f0ae3148bb8700eefbe,2024-11-14_17h02.59.710,Tarea de género gramatical,2024.2.2,Win32,59.88023952,,,,,,,,,,,,,,,,,,,,,,,345.8503,347.1495,l,1,0.6125,,[],[],[],[],[],[],[],0.6125,1,347.1495,347.6495,,,,,,596,FEM,DIS,150,lana,el,a,347.6511,347.652,-0.361111111,-0.252777806,0,0,0,,0,114,114,145,1,,,,
,,,,,,bd598fe98750ac54538d21a2,66a626ef09d4e21e1a8894ec,67361f0ae3148bb8700eefbe,2024-11-14_17h02.59.710,Tarea de género gramatical,2024.2.2,Win32,59.88023952,,,,,,,,,,,,,,,,,,,,,,,347.653,348.9862,a,1,0.6507,,[],[],[],[],[],[],[],0.6507,1,348.9862,349.4827,,,,,,802,MAS,CON,150,estilo,,l,349.4827,349.4828,-0.361111111,-0.252777806,0,0,0,,0,115,115,351,1,,,,
,,,,,,bd598fe98750ac54538d21a2,66a626ef09d4e21e1a8894ec,67361f0ae3148bb8700eefbe,2024-11-14_17h02.59.710,Tarea de género gramatical,2024.2.2,Win32,59.88023952,,,,,,,,,,,,,,,,,,,,,,,349.4836,350.6696,l,1,0.5176,,[],[],[],[],[],[],[],0.5176,1,350.6698,351.1688,,,,,,728,FEM,DIS,150,presa,el,a,351.1688,351.1689,-0.361111111,-0.252777806,0,0,0,,0,116,116,277,1,,,,
,,,,,,bd598fe98750ac54538d21a2,66a626ef09d4e21e1a8894ec,67361f0ae3148bb8700eefbe,2024-11-14_17h02.59.710,Tarea de género gramatical,2024.2.2,Win32,59.88023952,,,,,,,,,,,,,,,,,,,,,,,351.1698,353.0363,a,1,1.1842,,[],[],[],[],[],[],[],1.1842,1,353.0364,353.5358,,,,,,461,MAS,DIS,150,país,la,l,353.5358,353.5359,-0.361111111,-0.252777806,0,0,0,,0,117,117,10,1,,,,
,,,,,,bd598fe98750ac54538d21a2,66a626ef09d4e21e1a8894ec,67361f0ae3148bb8700eefbe,2024-11-14_17h02.59.710,Tarea de género gramatical,2024.2.2,Win32,59.88023952,,,,,,,,,,,,,,,,,,,,,,,353.537,355.4014,l,1,1.1824,,[],[],[],[],[],[],[],1.1824,1,355.4014,355.8997,,,,,,897,FEM,AGR,150,lógica,la,a,355.8998,355.8999,-0.361111111,-0.252777806,0,0,0,,0,118,118,446,1,,,,
,,,,,,bd598fe98750ac54538d21a2,66a626ef09d4e21e1a8894ec,67361f0ae3148bb8700eefbe,2024-11-14_17h02.59.710,Tarea de género gramatical,2024.2.2,Win32,59.88023952,,,,,,,,,,,,,,,,,,,,,,,355.9014,357.253,a,1,0.6983,,[],[],[],[],[],[],[],0.6983,1,357.2531,357.7525,,,,,,538,MAS,CON,150,pavo,,l,357.7535,357.7542,-0.361111111,-0.252777806,0,0,0,,0,119,119,87,1,,,,
,,,,,,bd598fe98750ac54538d21a2,66a626ef09d4e21e1a8894ec,67361f0ae3148bb8700eefbe,2024-11-14_17h02.59.710,Tarea de género gramatical,2024.2.2,Win32,59.88023952,,,,,,,,,,,,,,,,,,,,,,,357.7547,359.0696,l,1,0.634,,[],[],[],[],[],[],[],0.634,1,359.0697,359.5693,,,,,,613,FEM,CON,150,calle,,a,359.5693,359.5694,-0.361111111,-0.252777806,0,0,0,,0,120,120,162,1,,,,
,,,,,,bd598fe98750ac54538d21a2,66a626ef09d4e21e1a8894ec,67361f0ae3148bb8700eefbe,2024-11-14_17h02.59.710,Tarea de género gramatical,2024.2.2,Win32,59.88023952,,,,,,,,,,,,,,,,,,,,,,,359.5704,360.7863,l,1,0.5337,,[],[],[],[],[],[],[],0.5337,1,360.7863,361.2831,,,,,,608,FEM,DIS,150,chica,el,a,361.2831,361.2832,-0.361111111,-0.252777806,0,0,0,,0,121,121,157,1,,,,
,,,,,,bd598fe98750ac54538d21a2,66a626ef09d4e21e1a8894ec,67361f0ae3148bb8700eefbe,2024-11-14_17h02.59.710,Tarea de género gramatical,2024.2.2,Win32,59.88023952,,,,,,,,,,,,,,,,,,,,,,,361.2842,362.503,l,1,0.5505,,[],[],[],[],[],[],[],0.5505,1,362.5031,362.9999,,,,,,847,FEM,CON,150,cuerda,,a,363.0001,363.0002,-0.361111111,-0.252777806,0,0,0,,0,122,122,396,1,,,,
,,,,,,bd598fe98750ac54538d21a2,66a626ef09d4e21e1a8894ec,67361f0ae3148bb8700eefbe,2024-11-14_17h02.59.710,Tarea de género gramatical,2024.2.2,Win32,59.88023952,,,,,,,,,,,,,,,,,,,,,,,363.0019,364.2357,a,1,0.5667,,[],[],[],[],[],[],[],0.5667,1,364.2358,364.736,,,,,,839,MAS,DIS,150,tamaño,la,l,364.7368,364.7373,-0.361111111,-0.252777806,0,0,0,,0,123,123,388,1,,,,
,,,,,,bd598fe98750ac54538d21a2,66a626ef09d4e21e1a8894ec,67361f0ae3148bb8700eefbe,2024-11-14_17h02.59.710,Tarea de género gramatical,2024.2.2,Win32,59.88023952,,,,,,,,,,,,,,,,,,,,,,,364.738,365.9196,a,1,0.5153,,[],[],[],[],[],[],[],0.5153,1,365.9196,366.4194,,,,,,803,MAS,DIS,150,verano,la,l,366.4194,366.4195,-0.361111111,-0.252777806,0,0,0,,0,124,124,352,1,,,,
,,,,,,bd598fe98750ac54538d21a2,66a626ef09d4e21e1a8894ec,67361f0ae3148bb8700eefbe,2024-11-14_17h02.59.710,Tarea de género gramatical,2024.2.2,Win32,59.88023952,,,,,,,,,,,,,,,,,,,,,,,366.4203,367.5998,l,1,0.487,,[],[],[],[],[],[],[],0.487,1,367.5998,368.1026,,,,,,745,FEM,CON,150,grasa,,a,368.1027,368.1028,-0.361111111,-0.252777806,0,0,0,,0,125,125,294,1,,,,
,,,,,,bd598fe98750ac54538d21a2,66a626ef09d4e21e1a8894ec,67361f0ae3148bb8700eefbe,2024-11-14_17h02.59.710,Tarea de género gramatical,2024.2.2,Win32,59.88023952,,,,,,,,,,,,,,,,,,,,,,,368.1038,369.3366,a,1,0.5507,,[],[],[],[],[],[],[],0.5507,1,369.3367,369.8361,,,,,,624,MAS,AGR,150,perro,el,l,369.8361,369.8362,-0.361111111,-0.252777806,0,0,0,,0,126,126,173,1,,,,
,,,,,,bd598fe98750ac54538d21a2,66a626ef09d4e21e1a8894ec,67361f0ae3148bb8700eefbe,2024-11-14_17h02.59.710,Tarea de género gramatical,2024.2.2,Win32,59.88023952,,,,,,,,,,,,,,,,,,,,,,,369.8371,371.1699,a,1,0.6505,,[],[],[],[],[],[],[],0.6505,1,371.1699,371.6696,,,,,,599,MAS,DIS,150,nudo,la,l,371.6697,371.6698,-0.361111111,-0.252777806,0,0,0,,0,127,127,148,1,,,,
,,,,,,bd598fe98750ac54538d21a2,66a626ef09d4e21e1a8894ec,67361f0ae3148bb8700eefbe,2024-11-14_17h02.59.710,Tarea de género gramatical,2024.2.2,Win32,59.88023952,,,,,,,,,,,,,,,,,,,,,,,371.6709,372.8665,l,1,0.5026,,[],[],[],[],[],[],[],0.5026,1,372.8666,373.3698,,,,,,602,FEM,DIS,150,gente,el,a,373.3722,373.3733,-0.361111111,-0.252777806,0,0,0,,0,128,128,151,1,,,,
,,,,,,bd598fe98750ac54538d21a2,66a626ef09d4e21e1a8894ec,67361f0ae3148bb8700eefbe,2024-11-14_17h02.59.710,Tarea de género gramatical,2024.2.2,Win32,59.88023952,,,,,,,,,,,,,,,,,,,,,,,373.3744,374.6701,a,1,0.6331,,[],[],[],[],[],[],[],0.6331,1,374.6702,375.1696,,,,,,690,MAS,AGR,150,ruido,el,l,375.1696,375.1697,-0.361111111,-0.252777806,0,0,0,,0,129,129,239,1,,,,
,,,,,,bd598fe98750ac54538d21a2,66a626ef09d4e21e1a8894ec,67361f0ae3148bb8700eefbe,2024-11-14_17h02.59.710,Tarea de género gramatical,2024.2.2,Win32,59.88023952,,,,,,,,,,,,,,,,,,,,,,,375.1707,376.4366,l,1,0.5987,,[],[],[],[],[],[],[],0.5987,1,376.4368,376.9363,,,,,,517,FEM,CON,150,miel,,a,376.9363,376.9364,-0.361111111,-0.252777806,0,0,0,,0,130,130,66,1,,,,
,,,,,,bd598fe98750ac54538d21a2,66a626ef09d4e21e1a8894ec,67361f0ae3148bb8700eefbe,2024-11-14_17h02.59.710,Tarea de género gramatical,2024.2.2,Win32,59.88023952,,,,,,,,,,,,,,,,,,,,,,,376.9372,378.2364,a,1,0.6172,,[],[],[],[],[],[],[],0.6172,1,378.2365,378.7366,,,,,,857,MAS,DIS,150,jurado,la,l,378.7366,378.7368,-0.361111111,-0.252777806,0,0,0,,0,131,131,406,1,,,,
,,,,,,bd598fe98750ac54538d21a2,66a626ef09d4e21e1a8894ec,67361f0ae3148bb8700eefbe,2024-11-14_17h02.59.710,Tarea de género gramatical,2024.2.2,Win32,59.88023952,,,,,,,,,,,,,,,,,,,,,,,378.7379,379.9363,a,1,0.5183,,[],[],[],[],[],[],[],0.5183,1,379.9364,380.4362,,,,,,754,MAS,CON,150,tiempo,,l,380.437,380.4376,-0.361111111,-0.252777806,0,0,0,,0,132,132,303,1,,,,
,,,,,,bd598fe98750ac54538d21a2,66a626ef09d4e21e1a8894ec,67361f0ae3148bb8700eefbe,2024-11-14_17h02.59.710,Tarea de género gramatical,2024.2.2,Win32,59.88023952,,,,,,,,,,,,,,,,,,,,,,,380.4382,381.6702,a,1,0.5653,,[],[],[],[],[],[],[],0.5653,1,381.6703,382.1669,,,,,,730,MAS,CON,150,salón,,l,382.1669,382.167,-0.361111111,-0.252777806,0,0,0,,0,133,133,279,1,,,,
,,,,,,bd598fe98750ac54538d21a2,66a626ef09d4e21e1a8894ec,67361f0ae3148bb8700eefbe,2024-11-14_17h02.59.710,Tarea de género gramatical,2024.2.2,Win32,59.88023952,,,,,,,,,,,,,,,,,,,,,,,382.1682,383.3365,l,1,0.5004,,[],[],[],[],[],[],[],0.5004,1,383.3367,383.8366,,,,,,703,FEM,CON,150,aldea,,a,383.8366,383.8367,-0.361111111,-0.252777806,0,0,0,,0,134,134,252,1,,,,
,,,,,,bd598fe98750ac54538d21a2,66a626ef09d4e21e1a8894ec,67361f0ae3148bb8700eefbe,2024-11-14_17h02.59.710,Tarea de género gramatical,2024.2.2,Win32,59.88023952,,,,,,,,,,,,,,,,,,,,,,,383.8374,385.0001,l,1,0.472,,[],[],[],[],[],[],[],0.472,1,385.0002,385.5002,,,,,,889,FEM,CON,150,toalla,,a,385.5003,385.5003,-0.361111111,-0.252777806,0,0,0,,0,135,135,438,1,,,,
,,,,,,bd598fe98750ac54538d21a2,66a626ef09d4e21e1a8894ec,67361f0ae3148bb8700eefbe,2024-11-14_17h02.59.710,Tarea de género gramatical,2024.2.2,Win32,59.88023952,,,,,,,,,,,,,,,,,,,,,,,385.5018,386.6502,a,1,0.4783,,[],[],[],[],[],[],[],0.4783,1,386.6503,387.1502,,,,,,454,MAS,CON,150,hijo,,l,387.1503,387.1505,-0.361111111,-0.252777806,0,0,0,,0,136,136,3,1,,,,
,,,,,,bd598fe98750ac54538d21a2,66a626ef09d4e21e1a8894ec,67361f0ae3148bb8700eefbe,2024-11-14_17h02.59.710,Tarea de género gramatical,2024.2.2,Win32,59.88023952,,,,,,,,,,,,,,,,,,,,,,,387.1512,388.2668,l,1,0.4443,,[],[],[],[],[],[],[],0.4443,1,388.2669,388.7698,,,,,,692,FEM,DIS,150,pizza,el,a,388.7709,388.7717,-0.361111111,-0.252777806,0,0,0,,0,137,137,241,1,,,,
,,,,,,bd598fe98750ac54538d21a2,66a626ef09d4e21e1a8894ec,67361f0ae3148bb8700eefbe,2024-11-14_17h02.59.710,Tarea de género gramatical,2024.2.2,Win32,59.88023952,,,,,,,,,,,,,,,,,,,,,,,388.7724,390.0035,a,1,0.5507,,[],[],[],[],[],[],[],0.5507,1,390.0036,390.5003,,,,,,534,MAS,AGR,150,mago,el,l,390.5004,390.5005,-0.361111111,-0.252777806,0,0,0,,0,138,138,83,1,,,,
,,,,,,bd598fe98750ac54538d21a2,66a626ef09d4e21e1a8894ec,67361f0ae3148bb8700eefbe,2024-11-14_17h02.59.710,Tarea de género gramatical,2024.2.2,Win32,59.88023952,,,,,,,,,,,,,,,,,,,,,,,390.5014,391.7172,l,1,0.5264,,[],[],[],[],[],[],[],0.5264,1,391.7174,392.22,,,,,,859,FEM,CON,150,moneda,,a,392.22,392.2201,-0.361111111,-0.252777806,0,0,0,,0,139,139,408,1,,,,
,,,,,,bd598fe98750ac54538d21a2,66a626ef09d4e21e1a8894ec,67361f0ae3148bb8700eefbe,2024-11-14_17h02.59.710,Tarea de género gramatical,2024.2.2,Win32,59.88023952,,,,,,,,,,,,,,,,,,,,,,,392.2212,393.4372,a,1,0.5486,,[],[],[],[],[],[],[],0.5486,1,393.4373,393.9366,,,,,,724,MAS,CON,150,motor,,l,393.9367,393.9368,-0.361111111,-0.252777806,0,0,0,,0,140,140,273,1,,,,
,,,,,,bd598fe98750ac54538d21a2,66a626ef09d4e21e1a8894ec,67361f0ae3148bb8700eefbe,2024-11-14_17h02.59.710,Tarea de género gramatical,2024.2.2,Win32,59.88023952,,,,,,,,,,,,,,,,,,,,,,,393.938,395.2338,a,1,0.6136,,[],[],[],[],[],[],[],0.6136,1,395.234,395.7367,,,,,,557,MAS,DIS,150,cubo,la,l,395.7374,395.7379,-0.361111111,-0.252777806,0,0,0,,0,141,141,106,1,,,,
,,,,,,bd598fe98750ac54538d21a2,66a626ef09d4e21e1a8894ec,67361f0ae3148bb8700eefbe,2024-11-14_17h02.59.710,Tarea de género gramatical,2024.2.2,Win32,59.88023952,,,,,,,,,,,,,,,,,,,,,,,395.7385,397.0039,a,1,0.5841,,[],[],[],[],[],[],[],0.5841,1,397.004,397.5035,,,,,,460,MAS,CON,150,niño,,l,397.5036,397.5036,-0.361111111,-0.252777806,0,0,0,,0,142,142,9,1,,,,
,,,,,,bd598fe98750ac54538d21a2,66a626ef09d4e21e1a8894ec,67361f0ae3148bb8700eefbe,2024-11-14_17h02.59.710,Tarea de género gramatical,2024.2.2,Win32,59.88023952,,,,,,,,,,,,,,,,,,,,,,,397.505,398.7204,a,1,0.534,,[],[],[],[],[],[],[],0.534,1,398.7205,399.217,,,,,,749,MAS,DIS,150,rumbo,la,l,399.217,399.2171,-0.361111111,-0.252777806,0,0,0,,0,143,143,298,1,,,,
,,,,,,bd598fe98750ac54538d21a2,66a626ef09d4e21e1a8894ec,67361f0ae3148bb8700eefbe,2024-11-14_17h02.59.710,Tarea de género gramatical,2024.2.2,Win32,59.88023952,,,,,,,,,,,,,,,,,,,,,,,399.218,400.4203,a,1,0.534,,[],[],[],[],[],[],[],0.534,1,400.4204,400.9202,,,,,,797,MAS,DIS,150,cuello,la,l,400.9202,400.9203,-0.361111111,-0.252777806,0,0,0,,0,144,144,346,1,,,,
,,,,,,bd598fe98750ac54538d21a2,66a626ef09d4e21e1a8894ec,67361f0ae3148bb8700eefbe,2024-11-14_17h02.59.710,Tarea de género gramatical,2024.2.2,Win32,59.88023952,,,,,,,,,,,,,,,,,,,,,,,400.9213,402.2039,a,1,0.602,,[],[],[],[],[],[],[],0.602,1,402.204,402.7036,,,,,,864,MAS,AGR,150,sótano,el,l,402.7036,402.7038,-0.361111111,-0.252777806,0,0,0,,0,145,145,413,1,,,,
,,,,,,bd598fe98750ac54538d21a2,66a626ef09d4e21e1a8894ec,67361f0ae3148bb8700eefbe,2024-11-14_17h02.59.710,Tarea de género gramatical,2024.2.2,Win32,59.88023952,,,,,,,,,,,,,,,,,,,,,,,402.7045,403.9369,a,1,0.5504,,[],[],[],[],[],[],[],0.5504,1,403.937,404.4339,,,,,,540,MAS,AGR,150,león,el,l,404.4349,404.4355,-0.361111111,-0.252777806,0,0,0,,0,146,146,89,1,,,,
,,,,,,bd598fe98750ac54538d21a2,66a626ef09d4e21e1a8894ec,67361f0ae3148bb8700eefbe,2024-11-14_17h02.59.710,Tarea de género gramatical,2024.2.2,Win32,59.88023952,,,,,,,,,,,,,,,,,,,,,,,404.4361,405.6039,a,1,0.5008,,[],[],[],[],[],[],[],0.5008,1,405.604,406.1036,,,,,,820,MAS,CON,150,seguro,,l,406.1036,406.1038,-0.361111111,-0.252777806,0,0,0,,0,147,147,369,1,,,,
,,,,,,bd598fe98750ac54538d21a2,66a626ef09d4e21e1a8894ec,67361f0ae3148bb8700eefbe,2024-11-14_17h02.59.710,Tarea de género gramatical,2024.2.2,Win32,59.88023952,,,,,,,,,,,,,,,,,,,,,,,406.1048,407.3703,a,1,0.5976,,[],[],[],[],[],[],[],0.5976,1,407.3704,407.8701,,,,,,738,MAS,AGR,150,grado,el,l,407.8702,407.8702,-0.361111111,-0.252777806,0,0,0,,0,148,148,287,1,,,,
,,,,,,bd598fe98750ac54538d21a2,66a626ef09d4e21e1a8894ec,67361f0ae3148bb8700eefbe,2024-11-14_17h02.59.710,Tarea de género gramatical,2024.2.2,Win32,59.88023952,,,,,,,,,,,,,,,,,,,,,,,407.8713,409.087,a,1,0.5349,,[],[],[],[],[],[],[],0.5349,1,409.087,409.5842,,,,,,893,MAS,DIS,150,templo,la,l,409.5842,409.5843,-0.361111111,-0.252777806,0,0,0,,0,149,149,442,1,,,,
,,,,,,bd598fe98750ac54538d21a2,66a626ef09d4e21e1a8894ec,67361f0ae3148bb8700eefbe,2024-11-14_17h02.59.710,Tarea de género gramatical,2024.2.2,Win32,59.88023952,,,,,,,,,,,,,,,,,,,,,,,409.5857,410.8704,l,1,0.6002,,[],[],[],[],[],[],[],0.6002,1,410.8704,411.3705,,,,,,631,FEM,CON,150,tarde,,a,411.3719,423.9707,-0.361111111,-0.252777806,0,0,0,space,0,150,150,180,1,12.5804,,,
,,,,,,bd598fe98750ac54538d21a2,66a626ef09d4e21e1a8894ec,67361f0ae3148bb8700eefbe,2024-11-14_17h02.59.710,Tarea de género gramatical,2024.2.2,Win32,59.88023952,,,,,,,,,,,,,,,,,,,,,,,423.9716,425.1706,a,1,0.5169,,[],[],[],[],[],[],[],0.5169,1,425.1706,425.6707,,,,,,498,MAS,AGR,150,loco,el,l,425.6708,425.6708,-0.361111111,-0.252777806,0,0,0,,0,151,151,47,1,,,,
,,,,,,bd598fe98750ac54538d21a2,66a626ef09d4e21e1a8894ec,67361f0ae3148bb8700eefbe,2024-11-14_17h02.59.710,Tarea de género gramatical,2024.2.2,Win32,59.88023952,,,,,,,,,,,,,,,,,,,,,,,425.672,426.8875,a,1,0.5483,,[],[],[],[],[],[],[],0.5483,1,426.8876,427.3845,,,,,,744,MAS,AGR,150,cable,el,l,427.3845,427.3847,-0.361111111,-0.252777806,0,0,0,,0,152,152,293,1,,,,
,,,,,,bd598fe98750ac54538d21a2,66a626ef09d4e21e1a8894ec,67361f0ae3148bb8700eefbe,2024-11-14_17h02.59.710,Tarea de género gramatical,2024.2.2,Win32,59.88023952,,,,,,,,,,,,,,,,,,,,,,,427.3856,428.6012,l,1,0.5424,,[],[],[],[],[],[],[],0.5424,1,428.6012,429.104,,,,,,554,FEM,DIS,150,vela,el,a,429.1041,429.1042,-0.361111111,-0.252777806,0,0,0,,0,153,153,103,1,,,,
,,,,,,bd598fe98750ac54538d21a2,66a626ef09d4e21e1a8894ec,67361f0ae3148bb8700eefbe,2024-11-14_17h02.59.710,Tarea de género gramatical,2024.2.2,Win32,59.88023952,,,,,,,,,,,,,,,,,,,,,,,429.1052,430.4712,l,1,0.6842,,[],[],[],[],[],[],[],0.6842,1,430.4712,430.9707,,,,,,457,FEM,CON,150,hora,,a,430.9708,430.9708,-0.361111111,-0.252777806,0,0,0,,0,154,154,6,1,,,,
,,,,,,bd598fe98750ac54538d21a2,66a626ef09d4e21e1a8894ec,67361f0ae3148bb8700eefbe,2024-11-14_17h02.59.710,Tarea de género gramatical,2024.2.2,Win32,59.88023952,,,,,,,,,,,,,,,,,,,,,,,430.9719,432.1374,l,1,0.4838,,[],[],[],[],[],[],[],0.4838,1,432.1375,432.6372,,,,,,721,FEM,CON,150,viuda,,a,432.638,432.6387,-0.361111111,-0.252777806,0,0,0,,0,155,155,270,1,,,,
,,,,,,bd598fe98750ac54538d21a2,66a626ef09d4e21e1a8894ec,67361f0ae3148bb8700eefbe,2024-11-14_17h02.59.710,Tarea de género gramatical,2024.2.2,Win32,59.88023952,,,,,,,,,,,,,,,,,,,,,,,432.6392,433.838,a,1,0.5317,,[],[],[],[],[],[],[],0.5317,1,433.838,434.338,,,,,,701,MAS,DIS,150,dueño,la,l,434.338,434.338,-0.361111111,-0.252777806,0,0,0,,0,156,156,250,1,,,,
,,,,,,bd598fe98750ac54538d21a2,66a626ef09d4e21e1a8894ec,67361f0ae3148bb8700eefbe,2024-11-14_17h02.59.710,Tarea de género gramatical,2024.2.2,Win32,59.88023952,,,,,,,,,,,,,,,,,,,,,,,434.3388,435.6547,a,1,0.6345,,[],[],[],[],[],[],[],0.6345,1,435.6548,436.1515,,,,,,580,MAS,CON,150,yate,,l,436.1516,436.1516,-0.361111111,-0.252777806,0,0,0,,0,157,157,129,1,,,,
,,,,,,bd598fe98750ac54538d21a2,66a626ef09d4e21e1a8894ec,67361f0ae3148bb8700eefbe,2024-11-14_17h02.59.710,Tarea de género gramatical,2024.2.2,Win32,59.88023952,,,,,,,,,,,,,,,,,,,,,,,436.153,437.4878,a,1,0.6669,,[],[],[],[],[],[],[],0.6669,1,437.4879,437.9847,,,,,,526,MAS,CON,150,lujo,,l,437.9848,437.985,-0.361111111,-0.252777806,0,0,0,,0,158,158,75,1,,,,
,,,,,,bd598fe98750ac54538d21a2,66a626ef09d4e21e1a8894ec,67361f0ae3148bb8700eefbe,2024-11-14_17h02.59.710,Tarea de género gramatical,2024.2.2,Win32,59.88023952,,,,,,,,,,,,,,,,,,,,,,,437.9866,439.1878,a,1,0.548,,[],[],[],[],[],[],[],0.548,1,439.1879,439.6847,,,,,,581,MAS,DIS,150,kilo,la,l,439.6856,439.6863,-0.361111111,-0.252777806,0,0,0,,0,159,159,130,1,,,,
,,,,,,bd598fe98750ac54538d21a2,66a626ef09d4e21e1a8894ec,67361f0ae3148bb8700eefbe,2024-11-14_17h02.59.710,Tarea de género gramatical,2024.2.2,Win32,59.88023952,,,,,,,,,,,,,,,,,,,,,,,439.6868,440.9516,l,1,0.5876,,[],[],[],[],[],[],[],0.5876,1,440.9518,441.4529,,,,,,872,FEM,DIS,150,rutina,el,a,441.4529,441.453,-0.361111111,-0.252777806,0,0,0,,0,160,160,421,1,,,,
,,,,,,bd598fe98750ac54538d21a2,66a626ef09d4e21e1a8894ec,67361f0ae3148bb8700eefbe,2024-11-14_17h02.59.710,Tarea de género gramatical,2024.2.2,Win32,59.88023952,,,,,,,,,,,,,,,,,,,,,,,441.4539,442.7384,l,1,0.6009,,[],[],[],[],[],[],[],0.6009,1,442.7385,443.235,,,,,,548,FEM,DIS,150,fuga,el,a,443.2351,443.2353,-0.361111111,-0.252777806,0,0,0,,0,161,161,97,1,,,,
,,,,,,bd598fe98750ac54538d21a2,66a626ef09d4e21e1a8894ec,67361f0ae3148bb8700eefbe,2024-11-14_17h02.59.710,Tarea de género gramatical,2024.2.2,Win32,59.88023952,,,,,,,,,,,,,,,,,,,,,,,443.2368,444.5546,a,1,0.6507,,[],[],[],[],[],[],[],0.6507,1,444.5548,445.0542,,,,,,838,MAS,CON,150,empleo,,l,445.0542,445.0544,-0.361111111,-0.252777806,0,0,0,,0,162,162,387,1,,,,
,,,,,,bd598fe98750ac54538d21a2,66a626ef09d4e21e1a8894ec,67361f0ae3148bb8700eefbe,2024-11-14_17h02.59.710,Tarea de género gramatical,2024.2.2,Win32,59.88023952,,,,,,,,,,,,,,,,,,,,,,,445.0552,446.3384,a,1,0.6006,,[],[],[],[],[],[],[],0.6006,1,446.3387,446.8378,,,,,,592,MAS,CON,150,lodo,,l,446.8378,446.838,-0.361111111,-0.252777806,0,0,0,,0,163,163,141,1,,,,
,,,,,,bd598fe98750ac54538d21a2,66a626ef09d4e21e1a8894ec,67361f0ae3148bb8700eefbe,2024-11-14_17h02.59.710,Tarea de género gramatical,2024.2.2,Win32,59.88023952,,,,,,,,,,,,,,,,,,,,,,,446.8396,448.1015,l,1,0.5883,,[],[],[],[],[],[],[],0.5883,1,448.1016,448.6016,,,,,,626,FEM,DIS,150,línea,el,a,448.6025,448.6032,-0.361111111,-0.252777806,0,0,0,,0,164,164,175,1,,,,
,,,,,,bd598fe98750ac54538d21a2,66a626ef09d4e21e1a8894ec,67361f0ae3148bb8700eefbe,2024-11-14_17h02.59.710,Tarea de género gramatical,2024.2.2,Win32,59.88023952,,,,,,,,,,,,,,,,,,,,,,,448.6039,450.0879,a,1,0.8004,,[],[],[],[],[],[],[],0.8004,1,450.0879,450.5878,,,,,,833,MAS,DIS,150,parque,la,l,450.5879,450.588,-0.361111111,-0.252777806,0,0,0,,0,165,165,382,1,,,,
,,,,,,bd598fe98750ac54538d21a2,66a626ef09d4e21e1a8894ec,67361f0ae3148bb8700eefbe,2024-11-14_17h02.59.710,Tarea de género gramatical,2024.2.2,Win32,59.88023952,,,,,,,,,,,,,,,,,,,,,,,450.5889,451.8549,l,1,0.5984,,[],[],[],[],[],[],[],0.5984,1,451.8549,452.3515,,,,,,729,FEM,AGR,150,selva,la,a,452.3515,452.3517,-0.361111111,-0.252777806,0,0,0,,0,166,166,278,1,,,,
,,,,,,bd598fe98750ac54538d21a2,66a626ef09d4e21e1a8894ec,67361f0ae3148bb8700eefbe,2024-11-14_17h02.59.710,Tarea de género gramatical,2024.2.2,Win32,59.88023952,,,,,,,,,,,,,,,,,,,,,,,452.3525,453.5716,l,1,0.5508,,[],[],[],[],[],[],[],0.5508,1,453.5716,454.0683,,,,,,853,FEM,CON,150,paliza,,a,454.0683,454.0685,-0.361111111,-0.252777806,0,0,0,,0,167,167,402,1,,,,
,,,,,,bd598fe98750ac54538d21a2,66a626ef09d4e21e1a8894ec,67361f0ae3148bb8700eefbe,2024-11-14_17h02.59.710,Tarea de género gramatical,2024.2.2,Win32,59.88023952,,,,,,,,,,,,,,,,,,,,,,,454.0693,455.3547,a,1,0.6175,,[],[],[],[],[],[],[],0.6175,1,455.3547,455.8536,,,,,,640,MAS,CON,150,campo,,l,455.8545,455.8551,-0.361111111,-0.252777806,0,0,0,,0,168,168,189,1,,,,
,,,,,,bd598fe98750ac54538d21a2,66a626ef09d4e21e1a8894ec,67361f0ae3148bb8700eefbe,2024-11-14_17h02.59.710,Tarea de género gramatical,2024.2.2,Win32,59.88023952,,,,,,,,,,,,,,,,,,,,,,,455.8557,457.1884,a,1,0.6507,,[],[],[],[],[],[],[],0.6507,1,457.1885,457.6849,,,,,,556,MAS,CON,150,test,,l,457.685,457.6851,-0.361111111,-0.252777806,0,0,0,,0,169,169,105,1,,,,
,,,,,,bd598fe98750ac54538d21a2,66a626ef09d4e21e1a8894ec,67361f0ae3148bb8700eefbe,2024-11-14_17h02.59.710,Tarea de género gramatical,2024.2.2,Win32,59.88023952,,,,,,,,,,,,,,,,,,,,,,,457.686,459.0051,a,1,0.6507,,[],[],[],[],[],[],[],0.6507,1,459.0051,459.5049,,,,,,630,MAS,AGR,150,fuego,el,l,459.5049,459.5049,-0.361111111,-0.252777806,0,0,0,,0,170,170,179,1,,,,
,,,,,,bd598fe98750ac54538d21a2,66a626ef09d4e21e1a8894ec,67361f0ae3148bb8700eefbe,2024-11-14_17h02.59.710,Tarea de género gramatical,2024.2.2,Win32,59.88023952,,,,,,,,,,,,,,,,,,,,,,,459.506,460.7382,l,1,0.5505,,[],[],[],[],[],[],[],0.5505,1,460.7382,461.2381,,,,,,735,FEM,AGR,150,mafia,la,a,461.2382,461.2383,-0.361111111,-0.252777806,0,0,0,,0,171,171,284,1,,,,
,,,,,,bd598fe98750ac54538d21a2,66a626ef09d4e21e1a8894ec,67361f0ae3148bb8700eefbe,2024-11-14_17h02.59.710,Tarea de género gramatical,2024.2.2,Win32,59.88023952,,,,,,,,,,,,,,,,,,,,,,,461.2394,462.5552,a,1,0.634,,[],[],[],[],[],[],[],0.634,1,462.5552,463.0548,,,,,,532,MAS,CON,150,tubo,,l,463.0549,463.055,-0.361111111,-0.252777806,0,0,0,,0,172,172,81,1,,,,
,,,,,,bd598fe98750ac54538d21a2,66a626ef09d4e21e1a8894ec,67361f0ae3148bb8700eefbe,2024-11-14_17h02.59.710,Tarea de género gramatical,2024.2.2,Win32,59.88023952,,,,,,,,,,,,,,,,,,,,,,,463.0562,464.2885,a,1,0.5507,,[],[],[],[],[],[],[],0.5507,1,464.2886,464.788,,,,,,731,MAS,DIS,150,actor,la,l,464.7888,464.7894,-0.361111111,-0.252777806,0,0,0,,0,173,173,280,1,,,,
,,,,,,bd598fe98750ac54538d21a2,66a626ef09d4e21e1a8894ec,67361f0ae3148bb8700eefbe,2024-11-14_17h02.59.710,Tarea de género gramatical,2024.2.2,Win32,59.88023952,,,,,,,,,,,,,,,,,,,,,,,464.7899,466.055,a,1,0.5838,,[],[],[],[],[],[],[],0.5838,1,466.055,466.5546,,,,,,706,MAS,CON,150,techo,,l,466.5546,466.5547,-0.361111111,-0.252777806,0,0,0,,0,174,174,255,1,,,,
,,,,,,bd598fe98750ac54538d21a2,66a626ef09d4e21e1a8894ec,67361f0ae3148bb8700eefbe,2024-11-14_17h02.59.710,Tarea de género gramatical,2024.2.2,Win32,59.88023952,,,,,,,,,,,,,,,,,,,,,,,466.5555,467.8717,a,1,0.6338,,[],[],[],[],[],[],[],0.6338,1,467.8718,468.3686,,,,,,539,MAS,DIS,150,maíz,la,l,468.3687,468.3689,-0.361111111,-0.252777806,0,0,0,,0,175,175,88,1,,,,
,,,,,,bd598fe98750ac54538d21a2,66a626ef09d4e21e1a8894ec,67361f0ae3148bb8700eefbe,2024-11-14_17h02.59.710,Tarea de género gramatical,2024.2.2,Win32,59.88023952,,,,,,,,,,,,,,,,,,,,,,,468.3696,469.622,a,1,0.5845,,[],[],[],[],[],[],[],0.5845,1,469.6222,470.1189,,,,,,742,MAS,CON,150,piano,,l,470.1189,470.1191,-0.361111111,-0.252777806,0,0,0,,0,176,176,291,1,,,,
,,,,,,bd598fe98750ac54538d21a2,66a626ef09d4e21e1a8894ec,67361f0ae3148bb8700eefbe,2024-11-14_17h02.59.710,Tarea de género gramatical,2024.2.2,Win32,59.88023952,,,,,,,,,,,,,,,,,,,,,,,470.1205,471.4019,l,1,0.5889,,[],[],[],[],[],[],[],0.5889,1,471.402,471.9019,,,,,,871,FEM,CON,150,novela,,a,471.9029,471.9035,-0.361111111,-0.252777806,0,0,0,,0,177,177,420,1,,,,
,,,,,,bd598fe98750ac54538d21a2,66a626ef09d4e21e1a8894ec,67361f0ae3148bb8700eefbe,2024-11-14_17h02.59.710,Tarea de género gramatical,2024.2.2,Win32,59.88023952,,,,,,,,,,,,,,,,,,,,,,,471.904,473.1706,l,1,0.5826,,[],[],[],[],[],[],[],0.5826,1,473.1707,473.6718,,,,,,711,FEM,AGR,150,cueva,la,a,473.6718,473.6718,-0.361111111,-0.252777806,0,0,0,,0,178,178,260,1,,,,
,,,,,,bd598fe98750ac54538d21a2,66a626ef09d4e21e1a8894ec,67361f0ae3148bb8700eefbe,2024-11-14_17h02.59.710,Tarea de género gramatical,2024.2.2,Win32,59.88023952,,,,,,,,,,,,,,,,,,,,,,,473.6727,474.9055,l,1,0.5507,,[],[],[],[],[],[],[],0.5507,1,474.9055,475.4021,,,,,,813,FEM,AGR,150,unidad,la,a,475.4021,475.4022,-0.361111111,-0.252777806,0,0,0,,0,179,179,362,1,,,,
,,,,,,bd598fe98750ac54538d21a2,66a626ef09d4e21e1a8894ec,67361f0ae3148bb8700eefbe,2024-11-14_17h02.59.710,Tarea de género gramatical,2024.2.2,Win32,59.88023952,,,,,,,,,,,,,,,,,,,,,,,475.4031,476.6192,a,1,0.5383,,[],[],[],[],[],[],[],0.5383,1,476.6193,477.1187,,,,,,646,MAS,CON,150,barco,,l,477.1187,477.1188,-0.361111111,-0.252777806,0,0,0,,0,180,180,195,1,,,,
,,,,,,bd598fe98750ac54538d21a2,66a626ef09d4e21e1a8894ec,67361f0ae3148bb8700eefbe,2024-11-14_17h02.59.710,Tarea de género gramatical,2024.2.2,Win32,59.88023952,,,,,,,,,,,,,,,,,,,,,,,477.1196,478.4053,l,1,0.6173,,[],[],[],[],[],[],[],0.6173,1,478.4054,478.9023,,,,,,567,FEM,AGR,150,raya,la,a,478.9023,478.9026,-0.361111111,-0.252777806,0,0,0,,0,181,181,116,1,,,,
,,,,,,bd598fe98750ac54538d21a2,66a626ef09d4e21e1a8894ec,67361f0ae3148bb8700eefbe,2024-11-14_17h02.59.710,Tarea de género gramatical,2024.2.2,Win32,59.88023952,,,,,,,,,,,,,,,,,,,,,,,478.9039,480.122,a,1,0.5506,,[],[],[],[],[],[],[],0.5506,1,480.1221,480.6218,,,,,,736,MAS,CON,150,reino,,l,480.6228,480.6232,-0.361111111,-0.252777806,0,0,0,,0,182,182,285,1,,,,
,,,,,,bd598fe98750ac54538d21a2,66a626ef09d4e21e1a8894ec,67361f0ae3148bb8700eefbe,2024-11-14_17h02.59.710,Tarea de género gramatical,2024.2.2,Win32,59.88023952,,,,,,,,,,,,,,,,,,,,,,,480.6237,481.9054,a,1,0.6005,,[],[],[],[],[],[],[],0.6005,1,481.9054,482.4052,,,,,,515,MAS,DIS,150,rayo,la,l,482.4052,482.4054,-0.361111111,-0.252777806,0,0,0,,0,183,183,64,1,,,,
,,,,,,bd598fe98750ac54538d21a2,66a626ef09d4e21e1a8894ec,67361f0ae3148bb8700eefbe,2024-11-14_17h02.59.710,Tarea de género gramatical,2024.2.2,Win32,59.88023952,,,,,,,,,,,,,,,,,,,,,,,482.4062,483.7722,a,1,0.684,,[],[],[],[],[],[],[],0.684,1,483.7722,484.2719,,,,,,834,MAS,AGR,150,pedazo,el,l,484.2719,484.272,-0.361111111,-0.252777806,0,0,0,,0,184,184,383,1,,,,
,,,,,,bd598fe98750ac54538d21a2,66a626ef09d4e21e1a8894ec,67361f0ae3148bb8700eefbe,2024-11-14_17h02.59.710,Tarea de género gramatical,2024.2.2,Win32,59.88023952,,,,,,,,,,,,,,,,,,,,,,,484.273,485.5389,l,1,0.5839,,[],[],[],[],[],[],[],0.5839,1,485.5389,486.0382,,,,,,799,FEM,CON,150,prensa,,a,486.0383,486.0384,-0.361111111,-0.252777806,0,0,0,,0,185,185,348,1,,,,
,,,,,,bd598fe98750ac54538d21a2,66a626ef09d4e21e1a8894ec,67361f0ae3148bb8700eefbe,2024-11-14_17h02.59.710,Tarea de género gramatical,2024.2.2,Win32,59.88023952,,,,,,,,,,,,,,,,,,,,,,,486.0394,487.3691,l,1,0.6406,,[],[],[],[],[],[],[],0.6406,1,487.3692,487.8719,,,,,,866,FEM,DIS,150,colina,el,a,487.8733,487.8742,-0.361111111,-0.252777806,0,0,0,,0,186,186,415,1,,,,
,,,,,,bd598fe98750ac54538d21a2,66a626ef09d4e21e1a8894ec,67361f0ae3148bb8700eefbe,2024-11-14_17h02.59.710,Tarea de género gramatical,2024.2.2,Win32,59.88023952,,,,,,,,,,,,,,,,,,,,,,,487.875,489.2024,l,1,0.639,,[],[],[],[],[],[],[],0.639,1,489.2025,489.7024,,,,,,650,FEM,DIS,150,silla,el,a,489.7025,489.7026,-0.361111111,-0.252777806,0,0,0,,0,187,187,199,1,,,,
,,,,,,bd598fe98750ac54538d21a2,66a626ef09d4e21e1a8894ec,67361f0ae3148bb8700eefbe,2024-11-14_17h02.59.710,Tarea de género gramatical,2024.2.2,Win32,59.88023952,,,,,,,,,,,,,,,,,,,,,,,489.7034,491.0895,l,1,0.7175,,[],[],[],[],[],[],[],0.7175,1,491.0895,491.5887,,,,,,860,FEM,DIS,150,piedad,el,a,491.5887,491.5889,-0.361111111,-0.252777806,0,0,0,,0,188,188,409,1,,,,
,,,,,,bd598fe98750ac54538d21a2,66a626ef09d4e21e1a8894ec,67361f0ae3148bb8700eefbe,2024-11-14_17h02.59.710,Tarea de género gramatical,2024.2.2,Win32,59.88023952,,,,,,,,,,,,,,,,,,,,,,,491.5899,492.8526,l,1,0.5791,,[],[],[],[],[],[],[],0.5791,1,492.8527,493.3523,,,,,,812,FEM,DIS,150,fuente,el,a,493.3524,493.3525,-0.361111111,-0.252777806,0,0,0,,0,189,189,361,1,,,,
,,,,,,bd598fe98750ac54538d21a2,66a626ef09d4e21e1a8894ec,67361f0ae3148bb8700eefbe,2024-11-14_17h02.59.710,Tarea de género gramatical,2024.2.2,Win32,59.88023952,,,,,,,,,,,,,,,,,,,,,,,493.3532,494.5559,l,1,0.5173,,[],[],[],[],[],[],[],0.5173,1,494.556,495.0527,,,,,,625,FEM,CON,150,señal,,a,495.0527,495.053,-0.361111111,-0.252777806,0,0,0,,0,190,190,174,1,,,,
,,,,,,bd598fe98750ac54538d21a2,66a626ef09d4e21e1a8894ec,67361f0ae3148bb8700eefbe,2024-11-14_17h02.59.710,Tarea de género gramatical,2024.2.2,Win32,59.88023952,,,,,,,,,,,,,,,,,,,,,,,495.0544,496.7895,a,1,1.0675,,[],[],[],[],[],[],[],1.0675,1,496.7895,497.2887,,,,,,858,MAS,AGR,150,cheque,el,l,497.2897,497.2901,-0.361111111,-0.252777806,0,0,0,,0,191,191,407,1,,,,
,,,,,,bd598fe98750ac54538d21a2,66a626ef09d4e21e1a8894ec,67361f0ae3148bb8700eefbe,2024-11-14_17h02.59.710,Tarea de género gramatical,2024.2.2,Win32,59.88023952,,,,,,,,,,,,,,,,,,,,,,,497.2907,498.4563,l,1,0.4841,,[],[],[],[],[],[],[],0.4841,1,498.4563,498.9553,,,,,,681,FEM,AGR,150,bruja,la,a,498.9554,498.9554,-0.361111111,-0.252777806,0,0,0,,0,192,192,230,1,,,,
,,,,,,bd598fe98750ac54538d21a2,66a626ef09d4e21e1a8894ec,67361f0ae3148bb8700eefbe,2024-11-14_17h02.59.710,Tarea de género gramatical,2024.2.2,Win32,59.88023952,,,,,,,,,,,,,,,,,,,,,,,498.9563,500.1229,l,1,0.4984,,[],[],[],[],[],[],[],0.4984,1,500.123,500.6194,,,,,,663,FEM,AGR,150,magia,la,a,500.6194,500.6195,-0.361111111,-0.252777806,0,0,0,,0,193,193,212,1,,,,
,,,,,,bd598fe98750ac54538d21a2,66a626ef09d4e21e1a8894ec,67361f0ae3148bb8700eefbe,2024-11-14_17h02.59.710,Tarea de género gramatical,2024.2.2,Win32,59.88023952,,,,,,,,,,,,,,,,,,,,,,,500.6204,501.9394,l,1,0.6506,,[],[],[],[],[],[],[],0.6506,1,501.9394,502.4389,,,,,,620,FEM,DIS,150,carta,el,a,502.439,502.4391,-0.361111111,-0.252777806,0,0,0,,0,194,194,169,1,,,,
,,,,,,bd598fe98750ac54538d21a2,66a626ef09d4e21e1a8894ec,67361f0ae3148bb8700eefbe,2024-11-14_17h02.59.710,Tarea de género gramatical,2024.2.2,Win32,59.88023952,,,,,,,,,,,,,,,,,,,,,,,502.4401,503.6226,l,1,0.5009,,[],[],[],[],[],[],[],0.5009,1,503.6228,504.1225,,,,,,715,FEM,CON,150,rueda,,a,504.1234,504.124,-0.361111111,-0.252777806,0,0,0,,0,195,195,264,1,,,,
,,,,,,bd598fe98750ac54538d21a2,66a626ef09d4e21e1a8894ec,67361f0ae3148bb8700eefbe,2024-11-14_17h02.59.710,Tarea de género gramatical,2024.2.2,Win32,59.88023952,,,,,,,,,,,,,,,,,,,,,,,504.1246,505.3559,a,1,0.5505,,[],[],[],[],[],[],[],0.5505,1,505.356,505.8553,,,,,,588,MAS,AGR,150,luto,el,l,505.8553,505.8554,-0.361111111,-0.252777806,0,0,0,,0,196,196,137,1,,,,
,,,,,,bd598fe98750ac54538d21a2,66a626ef09d4e21e1a8894ec,67361f0ae3148bb8700eefbe,2024-11-14_17h02.59.710,Tarea de género gramatical,2024.2.2,Win32,59.88023952,,,,,,,,,,,,,,,,,,,,,,,505.8563,507.2364,a,1,0.6978,,[],[],[],[],[],[],[],0.6978,1,507.2365,507.7392,,,,,,568,MAS,CON,150,baúl,,l,507.7392,507.7393,-0.361111111,-0.252777806,0,0,0,,0,197,197,117,1,,,,
,,,,,,bd598fe98750ac54538d21a2,66a626ef09d4e21e1a8894ec,67361f0ae3148bb8700eefbe,2024-11-14_17h02.59.710,Tarea de género gramatical,2024.2.2,Win32,59.88023952,,,,,,,,,,,,,,,,,,,,,,,507.7403,508.9716,l,1,0.5495,,[],[],[],[],[],[],[],0.5495,1,508.9717,509.4725,,,,,,482,FEM,DIS,150,caja,el,a,509.4726,509.4727,-0.361111111,-0.252777806,0,0,0,,0,198,198,31,1,,,,
,,,,,,bd598fe98750ac54538d21a2,66a626ef09d4e21e1a8894ec,67361f0ae3148bb8700eefbe,2024-11-14_17h02.59.710,Tarea de género gramatical,2024.2.2,Win32,59.88023952,,,,,,,,,,,,,,,,,,,,,,,509.4735,510.7362,a,1,0.5688,,[],[],[],[],[],[],[],0.5688,1,510.7363,511.239,,,,,,660,MAS,AGR,150,baile,el,l,511.2391,511.2392,-0.361111111,-0.252777806,0,0,0,,0,199,199,209,1,,,,
,,,,,,bd598fe98750ac54538d21a2,66a626ef09d4e21e1a8894ec,67361f0ae3148bb8700eefbe,2024-11-14_17h02.59.710,Tarea de género gramatical,2024.2.2,Win32,59.88023952,,,,,,,,,,,,,,,,,,,,,,,511.2402,512.5059,a,1,0.5837,,[],[],[],[],[],[],[],0.5837,1,512.5059,513.0059,,,,,,562,MAS,CON,150,reto,,l,513.0069,513.0075,-0.361111111,-0.252777806,0,0,0,,0,200,200,111,1,,,,
,,,,,,bd598fe98750ac54538d21a2,66a626ef09d4e21e1a8894ec,67361f0ae3148bb8700eefbe,2024-11-14_17h02.59.710,Tarea de género gramatical,2024.2.2,Win32,59.88023952,,,,,,,,,,,,,,,,,,,,,,,513.008,514.2736,l,1,0.5843,,[],[],[],[],[],[],[],0.5843,1,514.2737,514.7722,,,,,,865,FEM,CON,150,cabina,,a,514.7722,514.7723,-0.361111111,-0.252777806,0,0,0,,0,201,201,414,1,,,,
,,,,,,bd598fe98750ac54538d21a2,66a626ef09d4e21e1a8894ec,67361f0ae3148bb8700eefbe,2024-11-14_17h02.59.710,Tarea de género gramatical,2024.2.2,Win32,59.88023952,,,,,,,,,,,,,,,,,,,,,,,514.7731,515.9728,l,1,0.5173,,[],[],[],[],[],[],[],0.5173,1,515.9729,516.4698,,,,,,465,FEM,AGR,150,cama,la,a,516.4698,516.47,-0.361111111,-0.252777806,0,0,0,,0,202,202,14,1,,,,
,,,,,,bd598fe98750ac54538d21a2,66a626ef09d4e21e1a8894ec,67361f0ae3148bb8700eefbe,2024-11-14_17h02.59.710,Tarea de género gramatical,2024.2.2,Win32,59.88023952,,,,,,,,,,,,,,,,,,,,,,,516.4707,517.7396,l,1,0.6007,,[],[],[],[],[],[],[],0.6007,1,517.7397,518.2364,,,,,,693,FEM,AGR,150,salsa,la,a,518.2365,518.2368,-0.361111111,-0.252777806,0,0,0,,0,203,203,242,1,,,,
,,,,,,bd598fe98750ac54538d21a2,66a626ef09d4e21e1a8894ec,67361f0ae3148bb8700eefbe,2024-11-14_17h02.59.710,Tarea de género gramatical,2024.2.2,Win32,59.88023952,,,,,,,,,,,,,,,,,,,,,,,518.2376,519.4894,a,1,0.5837,,[],[],[],[],[],[],[],0.5837,1,519.4894,519.9897,,,,,,772,MAS,CON,150,minuto,,l,519.9917,519.9929,-0.361111111,-0.252777806,0,0,0,,0,204,204,321,1,,,,
,,,,,,bd598fe98750ac54538d21a2,66a626ef09d4e21e1a8894ec,67361f0ae3148bb8700eefbe,2024-11-14_17h02.59.710,Tarea de género gramatical,2024.2.2,Win32,59.88023952,,,,,,,,,,,,,,,,,,,,,,,519.9941,521.2563,a,1,0.584,,[],[],[],[],[],[],[],0.584,1,521.2563,521.7563,,,,,,695,MAS,DIS,150,turno,la,l,521.7565,521.7566,-0.361111111,-0.252777806,0,0,0,,0,205,205,244,1,,,,
,,,,,,bd598fe98750ac54538d21a2,66a626ef09d4e21e1a8894ec,67361f0ae3148bb8700eefbe,2024-11-14_17h02.59.710,Tarea de género gramatical,2024.2.2,Win32,59.88023952,,,,,,,,,,,,,,,,,,,,,,,521.7573,522.9895,l,1,0.5646,,[],[],[],[],[],[],[],0.5646,1,522.9897,523.4893,,,,,,841,FEM,CON,150,altura,,a,523.4894,523.4895,-0.361111111,-0.252777806,0,0,0,,0,206,206,390,1,,,,
,,,,,,bd598fe98750ac54538d21a2,66a626ef09d4e21e1a8894ec,67361f0ae3148bb8700eefbe,2024-11-14_17h02.59.710,Tarea de género gramatical,2024.2.2,Win32,59.88023952,,,,,,,,,,,,,,,,,,,,,,,523.4903,524.9731,a,1,0.8151,,[],[],[],[],[],[],[],0.8151,1,524.9731,525.4728,,,,,,874,MAS,CON,150,rastro,,l,525.4728,525.473,-0.361111111,-0.252777806,0,0,0,,0,207,207,423,1,,,,
,,,,,,bd598fe98750ac54538d21a2,66a626ef09d4e21e1a8894ec,67361f0ae3148bb8700eefbe,2024-11-14_17h02.59.710,Tarea de género gramatical,2024.2.2,Win32,59.88023952,,,,,,,,,,,,,,,,,,,,,,,525.4739,526.7727,a,1,0.6171,,[],[],[],[],[],[],[],0.6171,1,526.7728,527.27,,,,,,628,MAS,CON,150,punto,,l,527.27,527.2701,-0.361111111,-0.252777806,0,0,0,,0,208,208,177,1,,,,
,,,,,,bd598fe98750ac54538d21a2,66a626ef09d4e21e1a8894ec,67361f0ae3148bb8700eefbe,2024-11-14_17h02.59.710,Tarea de género gramatical,2024.2.2,Win32,59.88023952,,,,,,,,,,,,,,,,,,,,,,,527.2714,528.5565,l,1,0.6174,,[],[],[],[],[],[],[],0.6174,1,528.5567,529.0563,,,,,,529,FEM,CON,150,mina,,a,529.0575,529.0584,-0.361111111,-0.252777806,0,0,0,,0,209,209,78,1,,,,
,,,,,,bd598fe98750ac54538d21a2,66a626ef09d4e21e1a8894ec,67361f0ae3148bb8700eefbe,2024-11-14_17h02.59.710,Tarea de género gramatical,2024.2.2,Win32,59.88023952,,,,,,,,,,,,,,,,,,,,,,,529.0593,530.3896,a,1,0.6503,,[],[],[],[],[],[],[],0.6503,1,530.3896,530.8896,,,,,,564,MAS,AGR,150,menú,el,l,530.8896,530.8897,-0.361111111,-0.252777806,0,0,0,,0,210,210,113,1,,,,
,,,,,,bd598fe98750ac54538d21a2,66a626ef09d4e21e1a8894ec,67361f0ae3148bb8700eefbe,2024-11-14_17h02.59.710,Tarea de género gramatical,2024.2.2,Win32,59.88023952,,,,,,,,,,,,,,,,,,,,,,,530.8904,532.1062,l,1,0.5337,,[],[],[],[],[],[],[],0.5337,1,532.1063,532.6063,,,,,,895,FEM,CON,150,bondad,,a,532.6064,532.6065,-0.361111111,-0.252777806,0,0,0,,0,211,211,444,1,,,,
,,,,,,bd598fe98750ac54538d21a2,66a626ef09d4e21e1a8894ec,67361f0ae3148bb8700eefbe,2024-11-14_17h02.59.710,Tarea de género gramatical,2024.2.2,Win32,59.88023952,,,,,,,,,,,,,,,,,,,,,,,532.6072,533.9534,a,1,0.6532,,[],[],[],[],[],[],[],0.6532,1,533.9535,534.4533,,,,,,725,MAS,DIS,150,disco,la,l,534.4534,534.4536,-0.361111111,-0.252777806,0,0,0,,0,212,212,274,1,,,,
,,,,,,bd598fe98750ac54538d21a2,66a626ef09d4e21e1a8894ec,67361f0ae3148bb8700eefbe,2024-11-14_17h02.59.710,Tarea de género gramatical,2024.2.2,Win32,59.88023952,,,,,,,,,,,,,,,,,,,,,,,534.4544,535.7066,a,1,0.5672,,[],[],[],[],[],[],[],0.5672,1,535.7067,536.2063,,,,,,491,MAS,DIS,150,bote,la,l,536.2073,536.2079,-0.361111111,-0.252777806,0,0,0,,0,213,213,40,1,,,,
,,,,,,bd598fe98750ac54538d21a2,66a626ef09d4e21e1a8894ec,67361f0ae3148bb8700eefbe,2024-11-14_17h02.59.710,Tarea de género gramatical,2024.2.2,Win32,59.88023952,,,,,,,,,,,,,,,,,,,,,,,536.2084,537.4574,l,1,0.5818,,[],[],[],[],[],[],[],0.5818,1,537.4575,537.9535,,,,,,896,FEM,DIS,150,bañera,el,a,537.9536,537.9538,-0.361111111,-0.252777806,0,0,0,,0,214,214,445,1,,,,
,,,,,,bd598fe98750ac54538d21a2,66a626ef09d4e21e1a8894ec,67361f0ae3148bb8700eefbe,2024-11-14_17h02.59.710,Tarea de género gramatical,2024.2.2,Win32,59.88023952,,,,,,,,,,,,,,,,,,,,,,,537.955,539.2561,l,1,0.6168,,[],[],[],[],[],[],[],0.6168,1,539.2563,539.7534,,,,,,651,FEM,AGR,150,leche,la,a,539.7535,539.7537,-0.361111111,-0.252777806,0,0,0,,0,215,215,200,1,,,,
,,,,,,bd598fe98750ac54538d21a2,66a626ef09d4e21e1a8894ec,67361f0ae3148bb8700eefbe,2024-11-14_17h02.59.710,Tarea de género gramatical,2024.2.2,Win32,59.88023952,,,,,,,,,,,,,,,,,,,,,,,539.755,541.0232,a,1,0.6005,,[],[],[],[],[],[],[],0.6005,1,541.0232,541.5228,,,,,,533,MAS,DIS,150,nene,la,l,541.5228,541.5229,-0.361111111,-0.252777806,0,0,0,,0,216,216,82,1,,,,
,,,,,,bd598fe98750ac54538d21a2,66a626ef09d4e21e1a8894ec,67361f0ae3148bb8700eefbe,2024-11-14_17h02.59.710,Tarea de género gramatical,2024.2.2,Win32,59.88023952,,,,,,,,,,,,,,,,,,,,,,,541.5237,542.874,a,1,0.6676,,[],[],[],[],[],[],[],0.6676,1,542.874,543.373,,,,,,659,MAS,DIS,150,banco,la,l,543.373,543.3732,-0.361111111,-0.252777806,0,0,0,,0,217,217,208,1,,,,
,,,,,,bd598fe98750ac54538d21a2,66a626ef09d4e21e1a8894ec,67361f0ae3148bb8700eefbe,2024-11-14_17h02.59.710,Tarea de género gramatical,2024.2.2,Win32,59.88023952,,,,,,,,,,,,,,,,,,,,,,,543.3741,544.6238,l,1,0.5673,,[],[],[],[],[],[],[],0.5673,1,544.6239,545.1231,,,,,,825,FEM,AGR,150,cadena,la,a,545.124,545.1247,-0.361111111,-0.252777806,0,0,0,,0,218,218,374,1,,,,
,,,,,,bd598fe98750ac54538d21a2,66a626ef09d4e21e1a8894ec,67361f0ae3148bb8700eefbe,2024-11-14_17h02.59.710,Tarea de género gramatical,2024.2.2,Win32,59.88023952,,,,,,,,,,,,,,,,,,,,,,,545.1253,546.6405,a,1,0.8341,,[],[],[],[],[],[],[],0.8341,1,546.6407,547.1401,,,,,,484,MAS,CON,150,gato,,l,547.1403,547.1404,-0.361111111,-0.252777806,0,0,0,,0,219,219,33,1,,,,
,,,,,,bd598fe98750ac54538d21a2,66a626ef09d4e21e1a8894ec,67361f0ae3148bb8700eefbe,2024-11-14_17h02.59.710,Tarea de género gramatical,2024.2.2,Win32,59.88023952,,,,,,,,,,,,,,,,,,,,,,,547.1415,548.3401,l,1,0.5171,,[],[],[],[],[],[],[],0.5171,1,548.3402,548.8369,,,,,,788,FEM,DIS,150,abuela,el,a,548.837,548.837,-0.361111111,-0.252777806,0,0,0,,0,220,220,337,1,,,,
,,,,,,bd598fe98750ac54538d21a2,66a626ef09d4e21e1a8894ec,67361f0ae3148bb8700eefbe,2024-11-14_17h02.59.710,Tarea de género gramatical,2024.2.2,Win32,59.88023952,,,,,,,,,,,,,,,,,,,,,,,548.8378,550.2735,a,1,0.7505,,[],[],[],[],[],[],[],0.7505,1,550.2735,550.7733,,,,,,456,MAS,AGR,150,lado,el,l,550.7734,550.7734,-0.361111111,-0.252777806,0,0,0,,0,221,221,5,1,,,,
,,,,,,bd598fe98750ac54538d21a2,66a626ef09d4e21e1a8894ec,67361f0ae3148bb8700eefbe,2024-11-14_17h02.59.710,Tarea de género gramatical,2024.2.2,Win32,59.88023952,,,,,,,,,,,,,,,,,,,,,,,550.7744,552.0901,a,1,0.6338,,[],[],[],[],[],[],[],0.6338,1,552.0902,552.587,,,,,,550,MAS,CON,150,nido,,l,552.5878,552.5884,-0.361111111,-0.252777806,0,0,0,,0,222,222,99,1,,,,
,,,,,,bd598fe98750ac54538d21a2,66a626ef09d4e21e1a8894ec,67361f0ae3148bb8700eefbe,2024-11-14_17h02.59.710,Tarea de género gramatical,2024.2.2,Win32,59.88023952,,,,,,,,,,,,,,,,,,,,,,,552.589,553.9068,l,1,0.6329,,[],[],[],[],[],[],[],0.6329,1,553.9068,554.4038,,,,,,710,FEM,DIS,150,barra,el,a,554.4038,554.404,-0.361111111,-0.252777806,0,0,0,,0,223,223,259,1,,,,
,,,,,,bd598fe98750ac54538d21a2,66a626ef09d4e21e1a8894ec,67361f0ae3148bb8700eefbe,2024-11-14_17h02.59.710,Tarea de género gramatical,2024.2.2,Win32,59.88023952,,,,,,,,,,,,,,,,,,,,,,,554.4053,555.6737,l,1,0.6004,,[],[],[],[],[],[],[],0.6004,1,555.6737,556.1703,,,,,,595,FEM,CON,150,bota,,a,556.1703,556.1705,-0.361111111,-0.252777806,0,0,0,,0,224,224,144,1,,,,
,,,,,,bd598fe98750ac54538d21a2,66a626ef09d4e21e1a8894ec,67361f0ae3148bb8700eefbe,2024-11-14_17h02.59.710,Tarea de género gramatical,2024.2.2,Win32,59.88023952,,,,,,,,,,,,,,,,,,,,,,,556.1715,557.5237,l,1,0.6842,,[],[],[],[],[],[],[],0.6842,1,557.5238,558.0236,,,,,,776,FEM,DIS,150,música,el,a,558.0236,558.0238,-0.361111111,-0.252777806,0,0,0,,0,225,225,325,1,,,,
,,,,,,bd598fe98750ac54538d21a2,66a626ef09d4e21e1a8894ec,67361f0ae3148bb8700eefbe,2024-11-14_17h02.59.710,Tarea de género gramatical,2024.2.2,Win32,59.88023952,,,,,,,,,,,,,,,,,,,,,,,558.0247,559.2902,a,1,0.5837,,[],[],[],[],[],[],[],0.5837,1,559.2903,559.7902,,,,,,846,MAS,AGR,150,tesoro,el,l,559.7902,559.7902,-0.361111111,-0.252777806,0,0,0,,0,226,226,395,1,,,,
,,,,,,bd598fe98750ac54538d21a2,66a626ef09d4e21e1a8894ec,67361f0ae3148bb8700eefbe,2024-11-14_17h02.59.710,Tarea de género gramatical,2024.2.2,Win32,59.88023952,,,,,,,,,,,,,,,,,,,,,,,559.7912,561.124,l,1,0.6653,,[],[],[],[],[],[],[],0.6653,1,561.1241,561.6233,,,,,,662,FEM,DIS,150,cinta,el,a,561.6243,561.6249,-0.361111111,-0.252777806,0,0,0,,0,227,227,211,1,,,,
,,,,,,bd598fe98750ac54538d21a2,66a626ef09d4e21e1a8894ec,67361f0ae3148bb8700eefbe,2024-11-14_17h02.59.710,Tarea de género gramatical,2024.2.2,Win32,59.88023952,,,,,,,,,,,,,,,,,,,,,,,561.6255,562.9074,l,1,0.6007,,[],[],[],[],[],[],[],0.6007,1,562.9075,563.4067,,,,,,579,FEM,AGR,150,rana,la,a,563.4067,563.4068,-0.361111111,-0.252777806,0,0,0,,0,228,228,128,1,,,,
,,,,,,bd598fe98750ac54538d21a2,66a626ef09d4e21e1a8894ec,67361f0ae3148bb8700eefbe,2024-11-14_17h02.59.710,Tarea de género gramatical,2024.2.2,Win32,59.88023952,,,,,,,,,,,,,,,,,,,,,,,563.4078,564.6042,l,1,0.5125,,[],[],[],[],[],[],[],0.5125,1,564.6044,565.1072,,,,,,459,FEM,AGR,150,mamá,la,a,565.1072,565.1073,-0.361111111,-0.252777806,0,0,0,,0,229,229,8,1,,,,
,,,,,,bd598fe98750ac54538d21a2,66a626ef09d4e21e1a8894ec,67361f0ae3148bb8700eefbe,2024-11-14_17h02.59.710,Tarea de género gramatical,2024.2.2,Win32,59.88023952,,,,,,,,,,,,,,,,,,,,,,,565.109,566.3543,a,1,0.5644,,[],[],[],[],[],[],[],0.5644,1,566.3543,566.8542,,,,,,606,MAS,AGR,150,amigo,el,l,566.8542,566.8543,-0.361111111,-0.252777806,0,0,0,,0,230,230,155,1,,,,
,,,,,,bd598fe98750ac54538d21a2,66a626ef09d4e21e1a8894ec,67361f0ae3148bb8700eefbe,2024-11-14_17h02.59.710,Tarea de género gramatical,2024.2.2,Win32,59.88023952,,,,,,,,,,,,,,,,,,,,,,,566.8555,568.3405,l,1,0.817,,[],[],[],[],[],[],[],0.817,1,568.3405,568.8401,,,,,,685,FEM,CON,150,torre,,a,568.8411,568.8417,-0.361111111,-0.252777806,0,0,0,,0,231,231,234,1,,,,
,,,,,,bd598fe98750ac54538d21a2,66a626ef09d4e21e1a8894ec,67361f0ae3148bb8700eefbe,2024-11-14_17h02.59.710,Tarea de género gramatical,2024.2.2,Win32,59.88023952,,,,,,,,,,,,,,,,,,,,,,,568.8424,570.1239,l,1,0.6007,,[],[],[],[],[],[],[],0.6007,1,570.1241,570.6207,,,,,,481,FEM,CON,150,edad,,a,570.6208,570.621,-0.361111111,-0.252777806,0,0,0,,0,232,232,30,1,,,,
,,,,,,bd598fe98750ac54538d21a2,66a626ef09d4e21e1a8894ec,67361f0ae3148bb8700eefbe,2024-11-14_17h02.59.710,Tarea de género gramatical,2024.2.2,Win32,59.88023952,,,,,,,,,,,,,,,,,,,,,,,570.6219,571.8573,a,1,0.5672,,[],[],[],[],[],[],[],0.5672,1,571.8573,572.3568,,,,,,719,MAS,DIS,150,primo,la,l,572.3568,572.3569,-0.361111111,-0.252777806,0,0,0,,0,233,233,268,1,,,,
,,,,,,bd598fe98750ac54538d21a2,66a626ef09d4e21e1a8894ec,67361f0ae3148bb8700eefbe,2024-11-14_17h02.59.710,Tarea de género gramatical,2024.2.2,Win32,59.88023952,,,,,,,,,,,,,,,,,,,,,,,572.3576,573.6576,a,1,0.6173,,[],[],[],[],[],[],[],0.6173,1,573.6576,574.1568,,,,,,552,MAS,AGR,150,coro,el,l,574.1568,574.1569,-0.361111111,-0.252777806,0,0,0,,0,234,234,101,1,,,,
,,,,,,bd598fe98750ac54538d21a2,66a626ef09d4e21e1a8894ec,67361f0ae3148bb8700eefbe,2024-11-14_17h02.59.710,Tarea de género gramatical,2024.2.2,Win32,59.88023952,,,,,,,,,,,,,,,,,,,,,,,574.1577,575.4072,l,1,0.567,,[],[],[],[],[],[],[],0.567,1,575.4072,575.9067,,,,,,644,FEM,DIS,150,banda,el,a,575.9069,575.9069,-0.361111111,-0.252777806,0,0,0,,0,235,235,193,1,,,,
,,,,,,bd598fe98750ac54538d21a2,66a626ef09d4e21e1a8894ec,67361f0ae3148bb8700eefbe,2024-11-14_17h02.59.710,Tarea de género gramatical,2024.2.2,Win32,59.88023952,,,,,,,,,,,,,,,,,,,,,,,575.9079,577.4061,l,1,0.8161,,[],[],[],[],[],[],[],0.8161,1,577.4062,577.9068,,,,,,476,FEM,DIS,150,pena,el,a,577.9079,577.9085,-0.361111111,-0.252777806,0,0,0,,0,236,236,25,1,,,,
,,,,,,bd598fe98750ac54538d21a2,66a626ef09d4e21e1a8894ec,67361f0ae3148bb8700eefbe,2024-11-14_17h02.59.710,Tarea de género gramatical,2024.2.2,Win32,59.88023952,,,,,,,,,,,,,,,,,,,,,,,577.909,579.1909,l,1,0.6006,,[],[],[],[],[],[],[],0.6006,1,579.1909,579.6904,,,,,,830,FEM,DIS,150,madera,el,a,579.6904,579.6905,-0.361111111,-0.252777806,0,0,0,,0,237,237,379,1,,,,
,,,,,,bd598fe98750ac54538d21a2,66a626ef09d4e21e1a8894ec,67361f0ae3148bb8700eefbe,2024-11-14_17h02.59.710,Tarea de género gramatical,2024.2.2,Win32,59.88023952,,,,,,,,,,,,,,,,,,,,,,,579.6913,580.8741,l,1,0.5006,,[],[],[],[],[],[],[],0.5006,1,580.8742,581.3738,,,,,,740,FEM,DIS,150,cabra,el,a,581.3738,581.374,-0.361111111,-0.252777806,0,0,0,,0,238,238,289,1,,,,
,,,,,,bd598fe98750ac54538d21a2,66a626ef09d4e21e1a8894ec,67361f0ae3148bb8700eefbe,2024-11-14_17h02.59.710,Tarea de género gramatical,2024.2.2,Win32,59.88023952,,,,,,,,,,,,,,,,,,,,,,,581.375,582.7572,a,1,0.7005,,[],[],[],[],[],[],[],0.7005,1,582.7574,583.257,,,,,,869,MAS,DIS,150,cuento,la,l,583.2572,583.2572,-0.361111111,-0.252777806,0,0,0,,0,239,239,418,1,,,,
,,,,,,bd598fe98750ac54538d21a2,66a626ef09d4e21e1a8894ec,67361f0ae3148bb8700eefbe,2024-11-14_17h02.59.710,Tarea de género gramatical,2024.2.2,Win32,59.88023952,,,,,,,,,,,,,,,,,,,,,,,583.258,584.7544,a,1,0.808,,[],[],[],[],[],[],[],0.808,1,584.7545,585.2571,,,,,,629,MAS,DIS,150,viaje,la,l,585.2579,585.2584,-0.361111111,-0.252777806,0,0,0,,0,240,240,178,1,,,,
,,,,,,bd598fe98750ac54538d21a2,66a626ef09d4e21e1a8894ec,67361f0ae3148bb8700eefbe,2024-11-14_17h02.59.710,Tarea de género gramatical,2024.2.2,Win32,59.88023952,,,,,,,,,,,,,,,,,,,,,,,585.2589,586.491,l,1,0.5518,,[],[],[],[],[],[],[],0.5518,1,586.491,586.991,,,,,,489,FEM,AGR,150,luna,la,a,586.991,586.9912,-0.361111111,-0.252777806,0,0,0,,0,241,241,38,1,,,,
,,,,,,bd598fe98750ac54538d21a2,66a626ef09d4e21e1a8894ec,67361f0ae3148bb8700eefbe,2024-11-14_17h02.59.710,Tarea de género gramatical,2024.2.2,Win32,59.88023952,,,,,,,,,,,,,,,,,,,,,,,586.9923,588.3242,a,1,0.6505,,[],[],[],[],[],[],[],0.6505,1,588.3243,588.8243,,,,,,496,MAS,CON,150,odio,,l,588.8244,588.8244,-0.361111111,-0.252777806,0,0,0,,0,242,242,45,1,,,,
,,,,,,bd598fe98750ac54538d21a2,66a626ef09d4e21e1a8894ec,67361f0ae3148bb8700eefbe,2024-11-14_17h02.59.710,Tarea de género gramatical,2024.2.2,Win32,59.88023952,,,,,,,,,,,,,,,,,,,,,,,588.8258,590.1911,l,1,0.6839,,[],[],[],[],[],[],[],0.6839,1,590.1912,590.6878,,,,,,835,FEM,CON,150,muñeca,,a,590.6878,590.6879,-0.361111111,-0.252777806,0,0,0,,0,243,243,384,1,,,,
,,,,,,bd598fe98750ac54538d21a2,66a626ef09d4e21e1a8894ec,67361f0ae3148bb8700eefbe,2024-11-14_17h02.59.710,Tarea de género gramatical,2024.2.2,Win32,59.88023952,,,,,,,,,,,,,,,,,,,,,,,590.6887,592.1914,l,1,0.8342,,[],[],[],[],[],[],[],0.8342,1,592.1915,592.6909,,,,,,679,FEM,CON,150,celda,,a,592.691,592.6911,-0.361111111,-0.252777806,0,0,0,,0,244,244,228,1,,,,
,,,,,,bd598fe98750ac54538d21a2,66a626ef09d4e21e1a8894ec,67361f0ae3148bb8700eefbe,2024-11-14_17h02.59.710,Tarea de género gramatical,2024.2.2,Win32,59.88023952,,,,,,,,,,,,,,,,,,,,,,,592.6922,593.9546,l,1,0.5745,,[],[],[],[],[],[],[],0.5745,1,593.9546,594.4573,,,,,,855,FEM,AGR,150,parada,la,a,594.4581,594.4587,-0.361111111,-0.252777806,0,0,0,,0,245,245,404,1,,,,
,,,,,,bd598fe98750ac54538d21a2,66a626ef09d4e21e1a8894ec,67361f0ae3148bb8700eefbe,2024-11-14_17h02.59.710,Tarea de género gramatical,2024.2.2,Win32,59.88023952,,,,,,,,,,,,,,,,,,,,,,,594.4591,595.7576,l,1,0.6311,,[],[],[],[],[],[],[],0.6311,1,595.7577,596.2575,,,,,,451,FEM,CON,150,casa,,a,596.2575,596.2577,-0.361111111,-0.252777806,0,0,0,,0,246,246,0,1,,,,
,,,,,,bd598fe98750ac54538d21a2,66a626ef09d4e21e1a8894ec,67361f0ae3148bb8700eefbe,2024-11-14_17h02.59.710,Tarea de género gramatical,2024.2.2,Win32,59.88023952,,,,,,,,,,,,,,,,,,,,,,,596.2585,597.5914,a,1,0.6508,,[],[],[],[],[],[],[],0.6508,1,597.5915,598.091,,,,,,683,MAS,DIS,150,golpe,la,l,598.091,598.0911,-0.361111111,-0.252777806,0,0,0,,0,247,247,232,1,,,,
,,,,,,bd598fe98750ac54538d21a2,66a626ef09d4e21e1a8894ec,67361f0ae3148bb8700eefbe,2024-11-14_17h02.59.710,Tarea de género gramatical,2024.2.2,Win32,59.88023952,,,,,,,,,,,,,,,,,,,,,,,598.0922,599.4247,a,1,0.6507,,[],[],[],[],[],[],[],0.6507,1,599.4247,599.9243,,,,,,492,MAS,AGR,150,show,el,l,599.9244,599.9246,-0.361111111,-0.252777806,0,0,0,,0,248,248,41,1,,,,
,,,,,,bd598fe98750ac54538d21a2,66a626ef09d4e21e1a8894ec,67361f0ae3148bb8700eefbe,2024-11-14_17h02.59.710,Tarea de género gramatical,2024.2.2,Win32,59.88023952,,,,,,,,,,,,,,,,,,,,,,,599.9255,601.2247,a,1,0.6175,,[],[],[],[],[],[],[],0.6175,1,601.2247,601.7241,,,,,,545,MAS,DIS,150,tomo,la,l,601.725,601.7256,-0.361111111,-0.252777806,0,0,0,,0,249,249,94,1,,,,
,,,,,,bd598fe98750ac54538d21a2,66a626ef09d4e21e1a8894ec,67361f0ae3148bb8700eefbe,2024-11-14_17h02.59.710,Tarea de género gramatical,2024.2.2,Win32,59.88023952,,,,,,,,,,,,,,,,,,,,,,,601.7262,603.6548,a,1,1.2386,,[],[],[],[],[],[],[],1.2386,1,603.6549,604.1576,,,,,,618,MAS,AGR,150,sitio,el,l,604.1576,604.1577,-0.361111111,-0.252777806,0,0,0,,0,250,250,167,1,,,,
