counterbalancing_condition,consent_prescreening.block_1/declare_consent,consent_prescreening.block_1/age_years,consent_prescreening.block_1/gender,consent_prescreening.block_1/language_disorder,consent_prescreening.block_1/first_language,PROLIFIC_PID,STUDY_ID,SESSION_ID,date,expName,psychopyVersion,OS,frameRate,check_prescreening_answers.started,check_prescreening_answers.stopped,Instructions.started,Instructions.stopped,instr_done_keyboard.keys,instr_done_touch.x,instr_done_touch.y,instr_done_touch.leftButton,instr_done_touch.midButton,instr_done_touch.rightButton,instr_done_touch.clicked_name,instruction_pages.thisRepN,instruction_pages.thisTrialN,instruction_pages.thisN,instruction_pages.thisIndex,instruction_pages.ran,pageN,phase,instruct_text,has_image,instruct_image,presentTrial.started,presentTrial.stopped,response.keys,response.corr,touch_resp.x,touch_resp.y,touch_resp.leftButton,touch_resp.midButton,touch_resp.rightButton,touch_resp.time,touch_resp.clicked_name,rt,corr,feedback.started,feedback.stopped,practice_trials.thisRepN,practice_trials.thisTrialN,practice_trials.thisN,practice_trials.thisIndex,practice_trials.ran,TrialID,StimulusType,Condition,PrimeDuration,Prime,Flanker,corrAns,response.rt,response.duration,Break.started,Break.stopped,break_done_touch.x,break_done_touch.y,break_done_touch.leftButton,break_done_touch.midButton,break_done_touch.rightButton,break_done_keyboard.keys,experiment_trials.thisRepN,experiment_trials.thisTrialN,experiment_trials.thisN,experiment_trials.thisIndex,experiment_trials.ran,break_done_touch.clicked_name,End.started,End.stopped
1,"[""over_18"",""comfortable"",""read_info"",""consent_given""]",48,F,"[""none""]","[""spanish""]",c2e6fdc7169c95e15a5ba55e,66a626ef09d4e21e1a8894ec,673649bc9d5b5d200dcd77da,2024-11-14_13h35.44.943,Tarea de género gramatical,2024.2.2,Win32,60.24096386,,,,,,,,,,,,,,,,,,,,,,,,,,,,,,,,,,,,,,,,,,,,,,,,,,,,,,,,,,,,,,,,,,
,,,,,,c2e6fdc7169c95e15a5ba55e,66a626ef09d4e21e1a8894ec,673649bc9d5b5d200dcd77da,2024-11-14_13h35.44.943,Tarea de género gramatical,2024.2.2,Win32,60.24096386,28.1282,28.1284,,,,,,,,,,,,,,,,,,,,,,,,,,,,,,,,,,,,,,,,,,,,,,,,,,,,,,,,,,,,,,,,
,,,,,,c2e6fdc7169c95e15a5ba55e,66a626ef09d4e21e1a8894ec,673649bc9d5b5d200dcd77da,2024-11-14_13h35.44.943,Tarea de género gramatical,2024.2.2,Win32,60.24096386,,,28.1579,30.8507,,0.019444444,-0.418518575,1,0,0,instr_done_button,0,0,0,0,1,1,instructions,"INSTRUCCIONES
Va a realizar una prueba de selección gramatical. Desde el comienzo de la prueba mire siempre al centro de la pantalla. Al cabo de un momento, aparecerán palabras. La tarea consiste en determinar si la palabra del centro (siempre será un sustantivo), pertenece al género masculino o femenino.

Pulse la tecla ESPACIO o toque el botón de abajo para continuar.",0,keyboardresponseFM.png,,,,,,,,,,,,,,,,,,,,,,,,,,,,,,,,,,,,,,,,,,,,,
,,,,,,c2e6fdc7169c95e15a5ba55e,66a626ef09d4e21e1a8894ec,673649bc9d5b5d200dcd77da,2024-11-14_13h35.44.943,Tarea de género gramatical,2024.2.2,Win32,60.24096386,,,30.8537,32.4932,,0.019444444,-0.418518575,1,0,0,instr_done_button,0,1,1,1,1,2,instructions,"Si su dispositivo tiene teclado, pulse la tecla ""A"" para las palabras en femenino (por ejemplo: ""mano"") y la tecla ""L"" para las palabras en masculino(por ejemplo: ""arroz"").
Pulse la tecla ESPACIO o toque el botón de abajo para continuar.",1,keyboardresponseFM.png,,,,,,,,,,,,,,,,,,,,,,,,,,,,,,,,,,,,,,,,,,,,,
,,,,,,c2e6fdc7169c95e15a5ba55e,66a626ef09d4e21e1a8894ec,673649bc9d5b5d200dcd77da,2024-11-14_13h35.44.943,Tarea de género gramatical,2024.2.2,Win32,60.24096386,,,32.4967,34.1586,,0.019444444,-0.418518575,1,0,0,instr_done_button,0,2,2,2,1,3,instructions,"Si utiliza un dispositivo sólo táctil, colóquelo en horizontal y utilice los botones de la pantalla. No utilice el ratón.
Pulse la tecla ESPACIO o toque el botón de abajo para continuar.",2,touchresponseFM.png,,,,,,,,,,,,,,,,,,,,,,,,,,,,,,,,,,,,,,,,,,,,,
,,,,,,c2e6fdc7169c95e15a5ba55e,66a626ef09d4e21e1a8894ec,673649bc9d5b5d200dcd77da,2024-11-14_13h35.44.943,Tarea de género gramatical,2024.2.2,Win32,60.24096386,,,34.1622,35.7459,,0.019444444,-0.418518575,1,0,0,instr_done_button,0,3,3,3,1,4,instructions,"Es muy importante que responda con la mayor rapidez y precisión posibles, ya que cada cadena de letras sólo estará en pantalla durante un instante. Si no responde en ese tiempo, aparecerá el mensaje ""Muy lento"" y el experimento pasará a la siguiente palabra. Los primeros 15 intentos serán de práctica y habrá dos descansos durante la prueba.
Pulse la tecla ESPACIO o toque el botón de abajo para iniciar la parte de práctica.",0,keyboardresponseFM.png,,,,,,,,,,,,,,,,,,,,,,,,,,,,,,,,,,,,,,,,,,,,,
,,,,,,c2e6fdc7169c95e15a5ba55e,66a626ef09d4e21e1a8894ec,673649bc9d5b5d200dcd77da,2024-11-14_13h35.44.943,Tarea de género gramatical,2024.2.2,Win32,60.24096386,,,,,,,,,,,,,,,,,,,,,,35.7694,38.4109,,0,[],[],[],[],[],[],[],,-1,38.4114,38.9052,0,0,0,8,1,2009,MAS,DIS,150,puerto,la,l,,,,,,,,,,,,,,,,,,
,,,,,,c2e6fdc7169c95e15a5ba55e,66a626ef09d4e21e1a8894ec,673649bc9d5b5d200dcd77da,2024-11-14_13h35.44.943,Tarea de género gramatical,2024.2.2,Win32,60.24096386,,,,,,,,,,,,,,,,,,,,,,38.9077,41.5525,,0,[],[],[],[],[],[],[],,-1,41.5528,42.052,0,1,1,3,1,2004,FEM,AGR,150,venta,la,a,,,,,,,,,,,,,,,,,,
,,,,,,c2e6fdc7169c95e15a5ba55e,66a626ef09d4e21e1a8894ec,673649bc9d5b5d200dcd77da,2024-11-14_13h35.44.943,Tarea de género gramatical,2024.2.2,Win32,60.24096386,,,,,,,,,,,,,,,,,,,,,,42.0541,44.0339,a,0,[],[],[],[],[],[],[],1.3071,0,44.0443,44.5428,0,2,2,13,1,2014,MAS,CON,150,siglo,,l,1.3071,,,,,,,,,,,,,,,,,
,,,,,,c2e6fdc7169c95e15a5ba55e,66a626ef09d4e21e1a8894ec,673649bc9d5b5d200dcd77da,2024-11-14_13h35.44.943,Tarea de género gramatical,2024.2.2,Win32,60.24096386,,,,,,,,,,,,,,,,,,,,,,44.5456,46.199,l,1,[],[],[],[],[],[],[],0.9878,1,46.201,46.6987,0,3,3,14,1,2015,MAS,DIS,150,robot,la,l,0.9878,,,,,,,,,,,,,,,,,
,,,,,,c2e6fdc7169c95e15a5ba55e,66a626ef09d4e21e1a8894ec,673649bc9d5b5d200dcd77da,2024-11-14_13h35.44.943,Tarea de género gramatical,2024.2.2,Win32,60.24096386,,,,,,,,,,,,,,,,,,,,,,46.7013,47.6143,a,0,[],[],[],[],[],[],[],0.2344,0,47.6157,48.1143,0,4,4,11,1,2012,MAS,DIS,150,clima,la,l,0.2344,,,,,,,,,,,,,,,,,
,,,,,,c2e6fdc7169c95e15a5ba55e,66a626ef09d4e21e1a8894ec,673649bc9d5b5d200dcd77da,2024-11-14_13h35.44.943,Tarea de género gramatical,2024.2.2,Win32,60.24096386,,,,,,,,,,,,,,,,,,,,,,48.1166,49.9289,l,0,[],[],[],[],[],[],[],1.1417,0,49.9291,50.4287,0,5,5,2,1,2003,FEM,DIS,150,daga,el,a,1.1417,,,,,,,,,,,,,,,,,
,,,,,,c2e6fdc7169c95e15a5ba55e,66a626ef09d4e21e1a8894ec,673649bc9d5b5d200dcd77da,2024-11-14_13h35.44.943,Tarea de género gramatical,2024.2.2,Win32,60.24096386,,,,,,,,,,,,,,,,,,,,,,50.4304,52.0109,l,1,[],[],[],[],[],[],[],0.9013,1,52.0122,52.5102,0,6,6,9,1,2010,MAS,AGR,150,vecino,el,l,0.9013,,,,,,,,,,,,,,,,,
,,,,,,c2e6fdc7169c95e15a5ba55e,66a626ef09d4e21e1a8894ec,673649bc9d5b5d200dcd77da,2024-11-14_13h35.44.943,Tarea de género gramatical,2024.2.2,Win32,60.24096386,,,,,,,,,,,,,,,,,,,,,,52.5118,53.8592,a,1,[],[],[],[],[],[],[],0.6749,1,53.8594,54.3589,0,7,7,7,1,2008,FEM,CON,150,siesta,,a,0.6749,,,,,,,,,,,,,,,,,
,,,,,,c2e6fdc7169c95e15a5ba55e,66a626ef09d4e21e1a8894ec,673649bc9d5b5d200dcd77da,2024-11-14_13h35.44.943,Tarea de género gramatical,2024.2.2,Win32,60.24096386,,,,,,,,,,,,,,,,,,,,,,54.3604,55.5746,l,1,[],[],[],[],[],[],[],0.5383,1,55.5748,56.0742,0,8,8,10,1,2011,MAS,CON,150,canal,,l,0.5383,,,,,,,,,,,,,,,,,
,,,,,,c2e6fdc7169c95e15a5ba55e,66a626ef09d4e21e1a8894ec,673649bc9d5b5d200dcd77da,2024-11-14_13h35.44.943,Tarea de género gramatical,2024.2.2,Win32,60.24096386,,,,,,,,,,,,,,,,,,,,,,56.0762,57.2067,a,1,[],[],[],[],[],[],[],0.4582,1,57.2068,57.7062,0,9,9,6,1,2007,FEM,AGR,150,navaja,la,a,0.4582,,,,,,,,,,,,,,,,,
,,,,,,c2e6fdc7169c95e15a5ba55e,66a626ef09d4e21e1a8894ec,673649bc9d5b5d200dcd77da,2024-11-14_13h35.44.943,Tarea de género gramatical,2024.2.2,Win32,60.24096386,,,,,,,,,,,,,,,,,,,,,,57.7079,58.7722,l,0,[],[],[],[],[],[],[],0.3838,0,58.7735,59.2717,0,10,10,5,1,2006,FEM,DIS,150,serie,el,a,0.3838,,,,,,,,,,,,,,,,,
,,,,,,c2e6fdc7169c95e15a5ba55e,66a626ef09d4e21e1a8894ec,673649bc9d5b5d200dcd77da,2024-11-14_13h35.44.943,Tarea de género gramatical,2024.2.2,Win32,60.24096386,,,,,,,,,,,,,,,,,,,,,,59.2733,60.4872,a,1,[],[],[],[],[],[],[],0.5394,1,60.4887,60.9871,0,11,11,0,1,2001,FEM,AGR,150,nuca,la,a,0.5394,,,,,,,,,,,,,,,,,
,,,,,,c2e6fdc7169c95e15a5ba55e,66a626ef09d4e21e1a8894ec,673649bc9d5b5d200dcd77da,2024-11-14_13h35.44.943,Tarea de género gramatical,2024.2.2,Win32,60.24096386,,,,,,,,,,,,,,,,,,,,,,60.9889,62.3694,a,1,[],[],[],[],[],[],[],0.7016,1,62.3695,62.8688,0,12,12,1,1,2002,FEM,CON,150,pala,,a,0.7016,,,,,,,,,,,,,,,,,
,,,,,,c2e6fdc7169c95e15a5ba55e,66a626ef09d4e21e1a8894ec,673649bc9d5b5d200dcd77da,2024-11-14_13h35.44.943,Tarea de género gramatical,2024.2.2,Win32,60.24096386,,,,,,,,,,,,,,,,,,,,,,62.8707,63.9344,l,1,[],[],[],[],[],[],[],0.3895,1,63.9346,64.4343,0,13,13,12,1,2013,MAS,AGR,150,acero,el,l,0.3895,,,,,,,,,,,,,,,,,
,,,,,,c2e6fdc7169c95e15a5ba55e,66a626ef09d4e21e1a8894ec,673649bc9d5b5d200dcd77da,2024-11-14_13h35.44.943,Tarea de género gramatical,2024.2.2,Win32,60.24096386,,,,,,,,,,,,,,,,,,,,,,64.4358,65.55,a,1,[],[],[],[],[],[],[],0.4339,1,65.5502,66.0495,0,14,14,4,1,2005,FEM,CON,150,placa,,a,0.4339,,,,,,,,,,,,,,,,,
,,,,,,c2e6fdc7169c95e15a5ba55e,66a626ef09d4e21e1a8894ec,673649bc9d5b5d200dcd77da,2024-11-14_13h35.44.943,Tarea de género gramatical,2024.2.2,Win32,60.24096386,,,69.5559,73.5274,,0.019444444,-0.418518575,1,0,0,instr_done_button,,,,,,,,,,,73.587,75.5759,a,0,[],[],[],[],[],[],[],1.3153,0,75.5776,76.0751,,,,,,767,MAS,DIS,150,número,la,l,1.3153,,76.0755,76.0802,0.019444444,-0.418518575,0,0,0,,0,0,0,316,1,,,
,,,,,,c2e6fdc7169c95e15a5ba55e,66a626ef09d4e21e1a8894ec,673649bc9d5b5d200dcd77da,2024-11-14_13h35.44.943,Tarea de género gramatical,2024.2.2,Win32,60.24096386,,,,,,,,,,,,,,,,,,,,,,76.0827,77.6238,a,1,[],[],[],[],[],[],[],0.8687,1,77.6255,78.1235,,,,,,572,FEM,DIS,150,loca,el,a,0.8687,,78.1236,78.1238,0.019444444,-0.418518575,0,0,0,,0,1,1,121,1,,,
,,,,,,c2e6fdc7169c95e15a5ba55e,66a626ef09d4e21e1a8894ec,673649bc9d5b5d200dcd77da,2024-11-14_13h35.44.943,Tarea de género gramatical,2024.2.2,Win32,60.24096386,,,,,,,,,,,,,,,,,,,,,,78.1256,79.2892,a,1,[],[],[],[],[],[],[],0.4882,1,79.2893,79.7888,,,,,,788,FEM,DIS,150,abuela,el,a,0.4882,,79.7909,79.7924,0.019444444,-0.418518575,0,0,0,,0,2,2,337,1,,,
,,,,,,c2e6fdc7169c95e15a5ba55e,66a626ef09d4e21e1a8894ec,673649bc9d5b5d200dcd77da,2024-11-14_13h35.44.943,Tarea de género gramatical,2024.2.2,Win32,60.24096386,,,,,,,,,,,,,,,,,,,,,,79.7933,80.9877,a,1,[],[],[],[],[],[],[],0.5164,1,80.9879,81.4874,,,,,,577,FEM,CON,150,cuna,,a,0.5164,,81.4875,81.4878,0.019444444,-0.418518575,0,0,0,,0,3,3,126,1,,,
,,,,,,c2e6fdc7169c95e15a5ba55e,66a626ef09d4e21e1a8894ec,673649bc9d5b5d200dcd77da,2024-11-14_13h35.44.943,Tarea de género gramatical,2024.2.2,Win32,60.24096386,,,,,,,,,,,,,,,,,,,,,,81.4894,82.5865,l,1,[],[],[],[],[],[],[],0.4219,1,82.5867,83.0863,,,,,,786,MAS,AGR,150,crimen,el,l,0.4219,,83.0864,83.0866,0.019444444,-0.418518575,0,0,0,,0,4,4,335,1,,,
,,,,,,c2e6fdc7169c95e15a5ba55e,66a626ef09d4e21e1a8894ec,673649bc9d5b5d200dcd77da,2024-11-14_13h35.44.943,Tarea de género gramatical,2024.2.2,Win32,60.24096386,,,,,,,,,,,,,,,,,,,,,,83.0883,84.2353,l,1,[],[],[],[],[],[],[],0.4716,1,84.2355,84.7348,,,,,,562,MAS,CON,150,reto,,l,0.4716,,84.7349,84.7352,0.019444444,-0.418518575,0,0,0,,0,5,5,111,1,,,
,,,,,,c2e6fdc7169c95e15a5ba55e,66a626ef09d4e21e1a8894ec,673649bc9d5b5d200dcd77da,2024-11-14_13h35.44.943,Tarea de género gramatical,2024.2.2,Win32,60.24096386,,,,,,,,,,,,,,,,,,,,,,84.7366,85.9344,a,1,[],[],[],[],[],[],[],0.5181,1,85.9345,86.4335,,,,,,847,FEM,CON,150,cuerda,,a,0.5181,,86.4355,86.4375,0.019444444,-0.418518575,0,0,0,,0,6,6,396,1,,,
,,,,,,c2e6fdc7169c95e15a5ba55e,66a626ef09d4e21e1a8894ec,673649bc9d5b5d200dcd77da,2024-11-14_13h35.44.943,Tarea de género gramatical,2024.2.2,Win32,60.24096386,,,,,,,,,,,,,,,,,,,,,,86.4387,87.6993,a,1,[],[],[],[],[],[],[],0.5849,1,87.6994,88.1985,,,,,,705,FEM,AGR,150,tribu,la,a,0.5849,,88.1986,88.1987,0.019444444,-0.418518575,0,0,0,,0,7,7,254,1,,,
,,,,,,c2e6fdc7169c95e15a5ba55e,66a626ef09d4e21e1a8894ec,673649bc9d5b5d200dcd77da,2024-11-14_13h35.44.943,Tarea de género gramatical,2024.2.2,Win32,60.24096386,,,,,,,,,,,,,,,,,,,,,,88.2006,89.4645,l,1,[],[],[],[],[],[],[],0.5854,1,89.4647,89.9641,,,,,,670,MAS,CON,150,huevo,,l,0.5854,,89.9642,89.9644,0.019444444,-0.418518575,0,0,0,,0,8,8,219,1,,,
,,,,,,c2e6fdc7169c95e15a5ba55e,66a626ef09d4e21e1a8894ec,673649bc9d5b5d200dcd77da,2024-11-14_13h35.44.943,Tarea de género gramatical,2024.2.2,Win32,60.24096386,,,,,,,,,,,,,,,,,,,,,,89.9661,90.9471,a,1,[],[],[],[],[],[],[],0.3118,1,90.9473,91.4465,,,,,,669,FEM,AGR,150,costa,la,a,0.3118,,91.4467,91.4469,0.019444444,-0.418518575,0,0,0,,0,9,9,218,1,,,
,,,,,,c2e6fdc7169c95e15a5ba55e,66a626ef09d4e21e1a8894ec,673649bc9d5b5d200dcd77da,2024-11-14_13h35.44.943,Tarea de género gramatical,2024.2.2,Win32,60.24096386,,,,,,,,,,,,,,,,,,,,,,91.4485,92.362,a,1,[],[],[],[],[],[],[],0.235,1,92.3622,92.8622,,,,,,661,FEM,CON,150,salud,,a,0.235,,92.8623,92.8626,0.019444444,-0.418518575,0,0,0,,0,10,10,210,1,,,
,,,,,,c2e6fdc7169c95e15a5ba55e,66a626ef09d4e21e1a8894ec,673649bc9d5b5d200dcd77da,2024-11-14_13h35.44.943,Tarea de género gramatical,2024.2.2,Win32,60.24096386,,,,,,,,,,,,,,,,,,,,,,92.8642,94.0113,l,1,[],[],[],[],[],[],[],0.4674,1,94.0114,94.5103,,,,,,887,MAS,DIS,150,hombro,la,l,0.4674,,94.5122,94.514,0.019444444,-0.418518575,0,0,0,,0,11,11,436,1,,,
,,,,,,c2e6fdc7169c95e15a5ba55e,66a626ef09d4e21e1a8894ec,673649bc9d5b5d200dcd77da,2024-11-14_13h35.44.943,Tarea de género gramatical,2024.2.2,Win32,60.24096386,,,,,,,,,,,,,,,,,,,,,,94.5149,95.443,a,0,[],[],[],[],[],[],[],0.2531,0,95.4447,95.9425,,,,,,851,MAS,DIS,150,abrigo,la,l,0.2531,,95.9426,95.9427,0.019444444,-0.418518575,0,0,0,,0,12,12,400,1,,,
,,,,,,c2e6fdc7169c95e15a5ba55e,66a626ef09d4e21e1a8894ec,673649bc9d5b5d200dcd77da,2024-11-14_13h35.44.943,Tarea de género gramatical,2024.2.2,Win32,60.24096386,,,,,,,,,,,,,,,,,,,,,,95.9442,97.0416,l,1,[],[],[],[],[],[],[],0.4243,1,97.0429,97.5412,,,,,,838,MAS,CON,150,empleo,,l,0.4243,,97.5413,97.5415,0.019444444,-0.418518575,0,0,0,,0,13,13,387,1,,,
,,,,,,c2e6fdc7169c95e15a5ba55e,66a626ef09d4e21e1a8894ec,673649bc9d5b5d200dcd77da,2024-11-14_13h35.44.943,Tarea de género gramatical,2024.2.2,Win32,60.24096386,,,,,,,,,,,,,,,,,,,,,,97.5433,98.6404,a,1,[],[],[],[],[],[],[],0.4173,1,98.6405,99.1402,,,,,,553,FEM,CON,150,fama,,a,0.4173,,99.1402,99.1403,0.019444444,-0.418518575,0,0,0,,0,14,14,102,1,,,
,,,,,,c2e6fdc7169c95e15a5ba55e,66a626ef09d4e21e1a8894ec,673649bc9d5b5d200dcd77da,2024-11-14_13h35.44.943,Tarea de género gramatical,2024.2.2,Win32,60.24096386,,,,,,,,,,,,,,,,,,,,,,99.1418,100.2727,a,1,[],[],[],[],[],[],[],0.4495,1,100.2729,100.7723,,,,,,673,FEM,CON,150,plata,,a,0.4495,,100.7743,100.7763,0.019444444,-0.418518575,0,0,0,,0,15,15,222,1,,,
,,,,,,c2e6fdc7169c95e15a5ba55e,66a626ef09d4e21e1a8894ec,673649bc9d5b5d200dcd77da,2024-11-14_13h35.44.943,Tarea de género gramatical,2024.2.2,Win32,60.24096386,,,,,,,,,,,,,,,,,,,,,,100.7773,101.9216,l,1,[],[],[],[],[],[],[],0.4719,1,101.9218,102.4209,,,,,,809,MAS,DIS,150,bosque,la,l,0.4719,,102.4209,102.4211,0.019444444,-0.418518575,0,0,0,,0,16,16,358,1,,,
,,,,,,c2e6fdc7169c95e15a5ba55e,66a626ef09d4e21e1a8894ec,673649bc9d5b5d200dcd77da,2024-11-14_13h35.44.943,Tarea de género gramatical,2024.2.2,Win32,60.24096386,,,,,,,,,,,,,,,,,,,,,,102.4226,103.4708,a,1,[],[],[],[],[],[],[],0.3682,1,103.471,103.9697,,,,,,487,FEM,CON,150,sala,,a,0.3682,,103.9697,103.9698,0.019444444,-0.418518575,0,0,0,,0,17,17,36,1,,,
,,,,,,c2e6fdc7169c95e15a5ba55e,66a626ef09d4e21e1a8894ec,673649bc9d5b5d200dcd77da,2024-11-14_13h35.44.943,Tarea de género gramatical,2024.2.2,Win32,60.24096386,,,,,,,,,,,,,,,,,,,,,,103.9717,105.2186,l,1,[],[],[],[],[],[],[],0.5692,1,105.2187,105.7183,,,,,,480,MAS,AGR,150,cine,el,l,0.5692,,105.7183,105.7185,0.019444444,-0.418518575,0,0,0,,0,18,18,29,1,,,
,,,,,,c2e6fdc7169c95e15a5ba55e,66a626ef09d4e21e1a8894ec,673649bc9d5b5d200dcd77da,2024-11-14_13h35.44.943,Tarea de género gramatical,2024.2.2,Win32,60.24096386,,,,,,,,,,,,,,,,,,,,,,105.7201,106.7008,a,1,[],[],[],[],[],[],[],0.3004,1,106.701,107.2009,,,,,,745,FEM,CON,150,grasa,,a,0.3004,,107.201,107.2013,0.019444444,-0.418518575,0,0,0,,0,19,19,294,1,,,
,,,,,,c2e6fdc7169c95e15a5ba55e,66a626ef09d4e21e1a8894ec,673649bc9d5b5d200dcd77da,2024-11-14_13h35.44.943,Tarea de género gramatical,2024.2.2,Win32,60.24096386,,,,,,,,,,,,,,,,,,,,,,107.2031,108.3829,l,1,[],[],[],[],[],[],[],0.5012,1,108.383,108.8826,,,,,,666,MAS,AGR,150,éxito,el,l,0.5012,,108.8847,108.8864,0.019444444,-0.418518575,0,0,0,,0,20,20,215,1,,,
,,,,,,c2e6fdc7169c95e15a5ba55e,66a626ef09d4e21e1a8894ec,673649bc9d5b5d200dcd77da,2024-11-14_13h35.44.943,Tarea de género gramatical,2024.2.2,Win32,60.24096386,,,,,,,,,,,,,,,,,,,,,,108.8875,109.7654,a,1,[],[],[],[],[],[],[],0.2103,1,109.7656,110.265,,,,,,799,FEM,CON,150,prensa,,a,0.2103,,110.2651,110.2653,0.019444444,-0.418518575,0,0,0,,0,21,21,348,1,,,
,,,,,,c2e6fdc7169c95e15a5ba55e,66a626ef09d4e21e1a8894ec,673649bc9d5b5d200dcd77da,2024-11-14_13h35.44.943,Tarea de género gramatical,2024.2.2,Win32,60.24096386,,,,,,,,,,,,,,,,,,,,,,110.2672,111.2638,l,1,[],[],[],[],[],[],[],0.3188,1,111.264,111.7633,,,,,,750,MAS,AGR,150,túnel,el,l,0.3188,,111.7633,111.7636,0.019444444,-0.418518575,0,0,0,,0,22,22,299,1,,,
,,,,,,c2e6fdc7169c95e15a5ba55e,66a626ef09d4e21e1a8894ec,673649bc9d5b5d200dcd77da,2024-11-14_13h35.44.943,Tarea de género gramatical,2024.2.2,Win32,60.24096386,,,,,,,,,,,,,,,,,,,,,,111.7655,112.9292,a,0,[],[],[],[],[],[],[],0.4878,0,112.9307,113.4292,,,,,,821,MAS,DIS,150,sonido,la,l,0.4878,,113.4293,113.4295,0.019444444,-0.418518575,0,0,0,,0,23,23,370,1,,,
,,,,,,c2e6fdc7169c95e15a5ba55e,66a626ef09d4e21e1a8894ec,673649bc9d5b5d200dcd77da,2024-11-14_13h35.44.943,Tarea de género gramatical,2024.2.2,Win32,60.24096386,,,,,,,,,,,,,,,,,,,,,,113.4313,114.6944,a,1,[],[],[],[],[],[],[],0.5833,1,114.6954,115.1939,,,,,,733,FEM,CON,150,pluma,,a,0.5833,,115.1958,115.1971,0.019444444,-0.418518575,0,0,0,,0,24,24,282,1,,,
,,,,,,c2e6fdc7169c95e15a5ba55e,66a626ef09d4e21e1a8894ec,673649bc9d5b5d200dcd77da,2024-11-14_13h35.44.943,Tarea de género gramatical,2024.2.2,Win32,60.24096386,,,,,,,,,,,,,,,,,,,,,,115.1983,116.5094,l,1,[],[],[],[],[],[],[],0.6419,1,116.5096,117.0092,,,,,,496,MAS,CON,150,odio,,l,0.6419,,117.0092,117.0094,0.019444444,-0.418518575,0,0,0,,0,25,25,45,1,,,
,,,,,,c2e6fdc7169c95e15a5ba55e,66a626ef09d4e21e1a8894ec,673649bc9d5b5d200dcd77da,2024-11-14_13h35.44.943,Tarea de género gramatical,2024.2.2,Win32,60.24096386,,,,,,,,,,,,,,,,,,,,,,117.0112,118.1914,a,0,[],[],[],[],[],[],[],0.5103,0,118.1928,118.6917,,,,,,515,MAS,DIS,150,rayo,la,l,0.5103,,118.6919,118.692,0.019444444,-0.418518575,0,0,0,,0,26,26,64,1,,,
,,,,,,c2e6fdc7169c95e15a5ba55e,66a626ef09d4e21e1a8894ec,673649bc9d5b5d200dcd77da,2024-11-14_13h35.44.943,Tarea de género gramatical,2024.2.2,Win32,60.24096386,,,,,,,,,,,,,,,,,,,,,,118.6935,119.907,l,1,[],[],[],[],[],[],[],0.5368,1,119.9081,120.4066,,,,,,672,MAS,AGR,150,valor,el,l,0.5368,,120.4067,120.4069,0.019444444,-0.418518575,0,0,0,,0,27,27,221,1,,,
,,,,,,c2e6fdc7169c95e15a5ba55e,66a626ef09d4e21e1a8894ec,673649bc9d5b5d200dcd77da,2024-11-14_13h35.44.943,Tarea de género gramatical,2024.2.2,Win32,60.24096386,,,,,,,,,,,,,,,,,,,,,,120.4087,121.6726,a,1,[],[],[],[],[],[],[],0.5861,1,121.6728,122.172,,,,,,631,FEM,CON,150,tarde,,a,0.5861,,122.1721,122.1722,0.019444444,-0.418518575,0,0,0,,0,28,28,180,1,,,
,,,,,,c2e6fdc7169c95e15a5ba55e,66a626ef09d4e21e1a8894ec,673649bc9d5b5d200dcd77da,2024-11-14_13h35.44.943,Tarea de género gramatical,2024.2.2,Win32,60.24096386,,,,,,,,,,,,,,,,,,,,,,122.1738,123.4041,l,1,[],[],[],[],[],[],[],0.5556,1,123.4043,123.9038,,,,,,744,MAS,AGR,150,cable,el,l,0.5556,,123.9058,123.9072,0.019444444,-0.418518575,0,0,0,,0,29,29,293,1,,,
,,,,,,c2e6fdc7169c95e15a5ba55e,66a626ef09d4e21e1a8894ec,673649bc9d5b5d200dcd77da,2024-11-14_13h35.44.943,Tarea de género gramatical,2024.2.2,Win32,60.24096386,,,,,,,,,,,,,,,,,,,,,,123.9082,125.4026,l,1,[],[],[],[],[],[],[],0.8196,1,125.4027,125.9023,,,,,,473,MAS,DIS,150,rato,la,l,0.8196,,125.9024,125.9025,0.019444444,-0.418518575,0,0,0,,0,30,30,22,1,,,
,,,,,,c2e6fdc7169c95e15a5ba55e,66a626ef09d4e21e1a8894ec,673649bc9d5b5d200dcd77da,2024-11-14_13h35.44.943,Tarea de género gramatical,2024.2.2,Win32,60.24096386,,,,,,,,,,,,,,,,,,,,,,125.9041,127.1347,l,1,[],[],[],[],[],[],[],0.5497,1,127.1348,127.6346,,,,,,658,MAS,CON,150,suelo,,l,0.5497,,127.6347,127.6348,0.019444444,-0.418518575,0,0,0,,0,31,31,207,1,,,
,,,,,,c2e6fdc7169c95e15a5ba55e,66a626ef09d4e21e1a8894ec,673649bc9d5b5d200dcd77da,2024-11-14_13h35.44.943,Tarea de género gramatical,2024.2.2,Win32,60.24096386,,,,,,,,,,,,,,,,,,,,,,127.6364,128.8163,a,1,[],[],[],[],[],[],[],0.5096,1,128.8165,129.3166,,,,,,554,FEM,DIS,150,vela,el,a,0.5096,,129.3167,129.3169,0.019444444,-0.418518575,0,0,0,,0,32,32,103,1,,,
,,,,,,c2e6fdc7169c95e15a5ba55e,66a626ef09d4e21e1a8894ec,673649bc9d5b5d200dcd77da,2024-11-14_13h35.44.943,Tarea de género gramatical,2024.2.2,Win32,60.24096386,,,,,,,,,,,,,,,,,,,,,,129.3185,130.2655,l,0,[],[],[],[],[],[],[],0.2685,0,130.267,130.7648,,,,,,537,FEM,AGR,150,risa,la,a,0.2685,,130.7667,130.7685,0.019444444,-0.418518575,0,0,0,,0,33,33,86,1,,,
,,,,,,c2e6fdc7169c95e15a5ba55e,66a626ef09d4e21e1a8894ec,673649bc9d5b5d200dcd77da,2024-11-14_13h35.44.943,Tarea de género gramatical,2024.2.2,Win32,60.24096386,,,,,,,,,,,,,,,,,,,,,,130.7695,131.9141,l,1,[],[],[],[],[],[],[],0.4665,1,131.9161,132.4138,,,,,,630,MAS,AGR,150,fuego,el,l,0.4665,,132.414,132.4142,0.019444444,-0.418518575,0,0,0,,0,34,34,179,1,,,
,,,,,,c2e6fdc7169c95e15a5ba55e,66a626ef09d4e21e1a8894ec,673649bc9d5b5d200dcd77da,2024-11-14_13h35.44.943,Tarea de género gramatical,2024.2.2,Win32,60.24096386,,,,,,,,,,,,,,,,,,,,,,132.416,134.2292,l,1,[],[],[],[],[],[],[],1.1364,1,134.2293,134.7291,,,,,,779,MAS,DIS,150,futuro,la,l,1.1364,,134.7292,134.7295,0.019444444,-0.418518575,0,0,0,,0,35,35,328,1,,,
,,,,,,c2e6fdc7169c95e15a5ba55e,66a626ef09d4e21e1a8894ec,673649bc9d5b5d200dcd77da,2024-11-14_13h35.44.943,Tarea de género gramatical,2024.2.2,Win32,60.24096386,,,,,,,,,,,,,,,,,,,,,,134.7319,135.9776,l,1,[],[],[],[],[],[],[],0.5688,1,135.9778,136.4771,,,,,,868,MAS,CON,150,pájaro,,l,0.5688,,136.4772,136.4774,0.019444444,-0.418518575,0,0,0,,0,36,36,417,1,,,
,,,,,,c2e6fdc7169c95e15a5ba55e,66a626ef09d4e21e1a8894ec,673649bc9d5b5d200dcd77da,2024-11-14_13h35.44.943,Tarea de género gramatical,2024.2.2,Win32,60.24096386,,,,,,,,,,,,,,,,,,,,,,136.4794,138.0925,l,1,[],[],[],[],[],[],[],0.9411,1,138.0928,138.5922,,,,,,647,MAS,DIS,150,avión,la,l,0.9411,,138.5924,138.5925,0.019444444,-0.418518575,0,0,0,,0,37,37,196,1,,,
,,,,,,c2e6fdc7169c95e15a5ba55e,66a626ef09d4e21e1a8894ec,673649bc9d5b5d200dcd77da,2024-11-14_13h35.44.943,Tarea de género gramatical,2024.2.2,Win32,60.24096386,,,,,,,,,,,,,,,,,,,,,,138.594,139.6413,a,1,[],[],[],[],[],[],[],0.377,1,139.6414,140.141,,,,,,584,FEM,DIS,150,rama,el,a,0.377,,140.143,140.1443,0.019444444,-0.418518575,0,0,0,,0,38,38,133,1,,,
,,,,,,c2e6fdc7169c95e15a5ba55e,66a626ef09d4e21e1a8894ec,673649bc9d5b5d200dcd77da,2024-11-14_13h35.44.943,Tarea de género gramatical,2024.2.2,Win32,60.24096386,,,,,,,,,,,,,,,,,,,,,,140.1453,141.44,l,1,[],[],[],[],[],[],[],0.6167,1,141.4401,141.9397,,,,,,456,MAS,AGR,150,lado,el,l,0.6167,,141.9398,141.94,0.019444444,-0.418518575,0,0,0,,0,39,39,5,1,,,
,,,,,,c2e6fdc7169c95e15a5ba55e,66a626ef09d4e21e1a8894ec,673649bc9d5b5d200dcd77da,2024-11-14_13h35.44.943,Tarea de género gramatical,2024.2.2,Win32,60.24096386,,,,,,,,,,,,,,,,,,,,,,141.9416,143.455,l,1,[],[],[],[],[],[],[],0.8333,1,143.4551,143.955,,,,,,785,MAS,DIS,150,montón,la,l,0.8333,,143.9552,143.9553,0.019444444,-0.418518575,0,0,0,,0,40,40,334,1,,,
,,,,,,c2e6fdc7169c95e15a5ba55e,66a626ef09d4e21e1a8894ec,673649bc9d5b5d200dcd77da,2024-11-14_13h35.44.943,Tarea de género gramatical,2024.2.2,Win32,60.24096386,,,,,,,,,,,,,,,,,,,,,,143.9571,145.1369,l,1,[],[],[],[],[],[],[],0.5045,1,145.1371,145.6367,,,,,,881,MAS,DIS,150,veneno,la,l,0.5045,,145.6368,145.6369,0.019444444,-0.418518575,0,0,0,,0,41,41,430,1,,,
,,,,,,c2e6fdc7169c95e15a5ba55e,66a626ef09d4e21e1a8894ec,673649bc9d5b5d200dcd77da,2024-11-14_13h35.44.943,Tarea de género gramatical,2024.2.2,Win32,60.24096386,,,,,,,,,,,,,,,,,,,,,,145.6387,147.0522,l,1,[],[],[],[],[],[],[],0.735,1,147.0524,147.5528,,,,,,574,MAS,CON,150,clan,,l,0.735,,147.5546,147.5563,0.019444444,-0.418518575,0,0,0,,0,42,42,123,1,,,
,,,,,,c2e6fdc7169c95e15a5ba55e,66a626ef09d4e21e1a8894ec,673649bc9d5b5d200dcd77da,2024-11-14_13h35.44.943,Tarea de género gramatical,2024.2.2,Win32,60.24096386,,,,,,,,,,,,,,,,,,,,,,147.5578,148.5678,l,1,[],[],[],[],[],[],[],0.3337,1,148.5679,149.0676,,,,,,839,MAS,DIS,150,tamaño,la,l,0.3337,,149.0677,149.0679,0.019444444,-0.418518575,0,0,0,,0,43,43,388,1,,,
,,,,,,c2e6fdc7169c95e15a5ba55e,66a626ef09d4e21e1a8894ec,673649bc9d5b5d200dcd77da,2024-11-14_13h35.44.943,Tarea de género gramatical,2024.2.2,Win32,60.24096386,,,,,,,,,,,,,,,,,,,,,,149.0695,150.1663,l,1,[],[],[],[],[],[],[],0.4196,1,150.1666,150.6666,,,,,,808,MAS,CON,150,motivo,,l,0.4196,,150.6666,150.6668,0.019444444,-0.418518575,0,0,0,,0,44,44,357,1,,,
,,,,,,c2e6fdc7169c95e15a5ba55e,66a626ef09d4e21e1a8894ec,673649bc9d5b5d200dcd77da,2024-11-14_13h35.44.943,Tarea de género gramatical,2024.2.2,Win32,60.24096386,,,,,,,,,,,,,,,,,,,,,,150.6685,151.7316,a,1,[],[],[],[],[],[],[],0.3877,1,151.7318,152.2315,,,,,,681,FEM,AGR,150,bruja,la,a,0.3877,,152.2316,152.2317,0.019444444,-0.418518575,0,0,0,,0,45,45,230,1,,,
,,,,,,c2e6fdc7169c95e15a5ba55e,66a626ef09d4e21e1a8894ec,673649bc9d5b5d200dcd77da,2024-11-14_13h35.44.943,Tarea de género gramatical,2024.2.2,Win32,60.24096386,,,,,,,,,,,,,,,,,,,,,,152.2333,153.4805,a,1,[],[],[],[],[],[],[],0.5674,1,153.4807,153.9807,,,,,,656,FEM,DIS,150,época,el,a,0.5674,,153.9808,153.981,0.019444444,-0.418518575,0,0,0,,0,46,46,205,1,,,
,,,,,,c2e6fdc7169c95e15a5ba55e,66a626ef09d4e21e1a8894ec,673649bc9d5b5d200dcd77da,2024-11-14_13h35.44.943,Tarea de género gramatical,2024.2.2,Win32,60.24096386,,,,,,,,,,,,,,,,,,,,,,153.9826,155.3127,a,1,[],[],[],[],[],[],[],0.6511,1,155.3128,155.8119,,,,,,601,FEM,CON,150,noche,,a,0.6511,,155.8135,155.8156,0.019444444,-0.418518575,0,0,0,,0,47,47,150,1,,,
,,,,,,c2e6fdc7169c95e15a5ba55e,66a626ef09d4e21e1a8894ec,673649bc9d5b5d200dcd77da,2024-11-14_13h35.44.943,Tarea de género gramatical,2024.2.2,Win32,60.24096386,,,,,,,,,,,,,,,,,,,,,,155.8167,157.1109,l,1,[],[],[],[],[],[],[],0.6209,1,157.111,157.6104,,,,,,780,MAS,AGR,150,estado,el,l,0.6209,,157.6105,157.6106,0.019444444,-0.418518575,0,0,0,,0,48,48,329,1,,,
,,,,,,c2e6fdc7169c95e15a5ba55e,66a626ef09d4e21e1a8894ec,673649bc9d5b5d200dcd77da,2024-11-14_13h35.44.943,Tarea de género gramatical,2024.2.2,Win32,60.24096386,,,,,,,,,,,,,,,,,,,,,,157.6124,159.0261,a,0,[],[],[],[],[],[],[],0.7364,0,159.0272,159.5256,,,,,,485,MAS,DIS,150,taxi,la,l,0.7364,,159.5257,159.5258,0.019444444,-0.418518575,0,0,0,,0,49,49,34,1,,,
,,,,,,c2e6fdc7169c95e15a5ba55e,66a626ef09d4e21e1a8894ec,673649bc9d5b5d200dcd77da,2024-11-14_13h35.44.943,Tarea de género gramatical,2024.2.2,Win32,60.24096386,,,,,,,,,,,,,,,,,,,,,,159.5276,160.7247,a,0,[],[],[],[],[],[],[],0.5175,0,160.7249,161.2242,,,,,,874,MAS,CON,150,rastro,,l,0.5175,,161.2244,161.2246,0.019444444,-0.418518575,0,0,0,,0,50,50,423,1,,,
,,,,,,c2e6fdc7169c95e15a5ba55e,66a626ef09d4e21e1a8894ec,673649bc9d5b5d200dcd77da,2024-11-14_13h35.44.943,Tarea de género gramatical,2024.2.2,Win32,60.24096386,,,,,,,,,,,,,,,,,,,,,,161.2263,162.4732,a,1,[],[],[],[],[],[],[],0.5724,1,162.4745,162.9736,,,,,,842,FEM,DIS,150,maleta,el,a,0.5724,,162.9753,162.9768,0.019444444,-0.418518575,0,0,0,,0,51,51,391,1,,,
,,,,,,c2e6fdc7169c95e15a5ba55e,66a626ef09d4e21e1a8894ec,673649bc9d5b5d200dcd77da,2024-11-14_13h35.44.943,Tarea de género gramatical,2024.2.2,Win32,60.24096386,,,,,,,,,,,,,,,,,,,,,,162.9779,164.0386,l,1,[],[],[],[],[],[],[],0.3856,1,164.0388,164.5383,,,,,,719,MAS,DIS,150,primo,la,l,0.3856,,164.5384,164.5385,0.019444444,-0.418518575,0,0,0,,0,52,52,268,1,,,
,,,,,,c2e6fdc7169c95e15a5ba55e,66a626ef09d4e21e1a8894ec,673649bc9d5b5d200dcd77da,2024-11-14_13h35.44.943,Tarea de género gramatical,2024.2.2,Win32,60.24096386,,,,,,,,,,,,,,,,,,,,,,164.5403,165.571,a,0,[],[],[],[],[],[],[],0.3526,0,165.5724,166.0704,,,,,,586,MAS,CON,150,vago,,l,0.3526,,166.0704,166.0705,0.019444444,-0.418518575,0,0,0,,0,53,53,135,1,,,
,,,,,,c2e6fdc7169c95e15a5ba55e,66a626ef09d4e21e1a8894ec,673649bc9d5b5d200dcd77da,2024-11-14_13h35.44.943,Tarea de género gramatical,2024.2.2,Win32,60.24096386,,,,,,,,,,,,,,,,,,,,,,166.0722,167.1697,a,1,[],[],[],[],[],[],[],0.4182,1,167.1714,167.6693,,,,,,800,FEM,DIS,150,imagen,el,a,0.4182,,167.6695,167.6696,0.019444444,-0.418518575,0,0,0,,0,54,54,349,1,,,
,,,,,,c2e6fdc7169c95e15a5ba55e,66a626ef09d4e21e1a8894ec,673649bc9d5b5d200dcd77da,2024-11-14_13h35.44.943,Tarea de género gramatical,2024.2.2,Win32,60.24096386,,,,,,,,,,,,,,,,,,,,,,167.6715,168.8516,a,1,[],[],[],[],[],[],[],0.4997,1,168.8518,169.3516,,,,,,481,FEM,CON,150,edad,,a,0.4997,,169.3517,169.3519,0.019444444,-0.418518575,0,0,0,,0,55,55,30,1,,,
,,,,,,c2e6fdc7169c95e15a5ba55e,66a626ef09d4e21e1a8894ec,673649bc9d5b5d200dcd77da,2024-11-14_13h35.44.943,Tarea de género gramatical,2024.2.2,Win32,60.24096386,,,,,,,,,,,,,,,,,,,,,,169.3535,170.3894,l,1,[],[],[],[],[],[],[],0.3772,1,170.3897,170.8834,,,,,,592,MAS,CON,150,lodo,,l,0.3772,,170.8856,170.8872,0.019444444,-0.418518575,0,0,0,,0,56,56,141,1,,,
,,,,,,c2e6fdc7169c95e15a5ba55e,66a626ef09d4e21e1a8894ec,673649bc9d5b5d200dcd77da,2024-11-14_13h35.44.943,Tarea de género gramatical,2024.2.2,Win32,60.24096386,,,,,,,,,,,,,,,,,,,,,,170.8883,172.2323,l,1,[],[],[],[],[],[],[],0.6675,1,172.2325,172.7324,,,,,,743,MAS,DIS,150,patio,la,l,0.6675,,172.7326,172.7327,0.019444444,-0.418518575,0,0,0,,0,57,57,292,1,,,
,,,,,,c2e6fdc7169c95e15a5ba55e,66a626ef09d4e21e1a8894ec,673649bc9d5b5d200dcd77da,2024-11-14_13h35.44.943,Tarea de género gramatical,2024.2.2,Win32,60.24096386,,,,,,,,,,,,,,,,,,,,,,172.7347,173.8539,a,1,[],[],[],[],[],[],[],0.4606,1,173.854,174.3525,,,,,,703,FEM,CON,150,aldea,,a,0.4606,,174.3527,174.3527,0.019444444,-0.418518575,0,0,0,,0,58,58,252,1,,,
,,,,,,c2e6fdc7169c95e15a5ba55e,66a626ef09d4e21e1a8894ec,673649bc9d5b5d200dcd77da,2024-11-14_13h35.44.943,Tarea de género gramatical,2024.2.2,Win32,60.24096386,,,,,,,,,,,,,,,,,,,,,,174.3543,175.5632,a,1,[],[],[],[],[],[],[],0.5356,1,175.5634,176.0629,,,,,,717,FEM,AGR,150,barba,la,a,0.5356,,176.063,176.0631,0.019444444,-0.418518575,0,0,0,,0,59,59,266,1,,,
,,,,,,c2e6fdc7169c95e15a5ba55e,66a626ef09d4e21e1a8894ec,673649bc9d5b5d200dcd77da,2024-11-14_13h35.44.943,Tarea de género gramatical,2024.2.2,Win32,60.24096386,,,,,,,,,,,,,,,,,,,,,,176.0651,177.3117,a,1,[],[],[],[],[],[],[],0.5797,1,177.312,177.8165,,,,,,512,FEM,DIS,150,sopa,el,a,0.5797,,177.8183,177.8197,0.019444444,-0.418518575,0,0,0,,0,60,60,61,1,,,
,,,,,,c2e6fdc7169c95e15a5ba55e,66a626ef09d4e21e1a8894ec,673649bc9d5b5d200dcd77da,2024-11-14_13h35.44.943,Tarea de género gramatical,2024.2.2,Win32,60.24096386,,,,,,,,,,,,,,,,,,,,,,177.8206,179.1485,l,1,[],[],[],[],[],[],[],0.66,1,179.1486,179.6484,,,,,,604,MAS,CON,150,padre,,l,0.66,,179.6484,179.6486,0.019444444,-0.418518575,0,0,0,,0,61,61,153,1,,,
,,,,,,c2e6fdc7169c95e15a5ba55e,66a626ef09d4e21e1a8894ec,673649bc9d5b5d200dcd77da,2024-11-14_13h35.44.943,Tarea de género gramatical,2024.2.2,Win32,60.24096386,,,,,,,,,,,,,,,,,,,,,,179.6507,180.7787,l,0,[],[],[],[],[],[],[],0.4481,0,180.7799,181.2754,,,,,,727,FEM,CON,150,plaza,,a,0.4481,,181.2756,181.2758,0.019444444,-0.418518575,0,0,0,,0,62,62,276,1,,,
,,,,,,c2e6fdc7169c95e15a5ba55e,66a626ef09d4e21e1a8894ec,673649bc9d5b5d200dcd77da,2024-11-14_13h35.44.943,Tarea de género gramatical,2024.2.2,Win32,60.24096386,,,,,,,,,,,,,,,,,,,,,,181.2778,182.5629,l,1,[],[],[],[],[],[],[],0.612,1,182.5639,183.0624,,,,,,726,MAS,AGR,150,ritmo,el,l,0.612,,183.0625,183.0626,0.019444444,-0.418518575,0,0,0,,0,63,63,275,1,,,
,,,,,,c2e6fdc7169c95e15a5ba55e,66a626ef09d4e21e1a8894ec,673649bc9d5b5d200dcd77da,2024-11-14_13h35.44.943,Tarea de género gramatical,2024.2.2,Win32,60.24096386,,,,,,,,,,,,,,,,,,,,,,183.0641,184.2459,a,1,[],[],[],[],[],[],[],0.5136,1,184.246,184.7439,,,,,,680,FEM,DIS,150,regla,el,a,0.5136,,184.7441,184.7441,0.019444444,-0.418518575,0,0,0,,0,64,64,229,1,,,
,,,,,,c2e6fdc7169c95e15a5ba55e,66a626ef09d4e21e1a8894ec,673649bc9d5b5d200dcd77da,2024-11-14_13h35.44.943,Tarea de género gramatical,2024.2.2,Win32,60.24096386,,,,,,,,,,,,,,,,,,,,,,184.7456,185.855,a,1,[],[],[],[],[],[],[],0.4179,1,185.8551,186.3544,,,,,,627,FEM,AGR,150,broma,la,a,0.4179,,186.3565,186.358,0.019444444,-0.418518575,0,0,0,,0,65,65,176,1,,,
,,,,,,c2e6fdc7169c95e15a5ba55e,66a626ef09d4e21e1a8894ec,673649bc9d5b5d200dcd77da,2024-11-14_13h35.44.943,Tarea de género gramatical,2024.2.2,Win32,60.24096386,,,,,,,,,,,,,,,,,,,,,,186.3589,187.4541,a,1,[],[],[],[],[],[],[],0.4165,1,187.4543,187.9532,,,,,,595,FEM,CON,150,bota,,a,0.4165,,187.9533,187.9534,0.019444444,-0.418518575,0,0,0,,0,66,66,144,1,,,
,,,,,,c2e6fdc7169c95e15a5ba55e,66a626ef09d4e21e1a8894ec,673649bc9d5b5d200dcd77da,2024-11-14_13h35.44.943,Tarea de género gramatical,2024.2.2,Win32,60.24096386,,,,,,,,,,,,,,,,,,,,,,187.9555,189.3555,l,0,[],[],[],[],[],[],[],0.7316,0,189.3567,189.8518,,,,,,482,FEM,DIS,150,caja,el,a,0.7316,,189.8519,189.8521,0.019444444,-0.418518575,0,0,0,,0,67,67,31,1,,,
,,,,,,c2e6fdc7169c95e15a5ba55e,66a626ef09d4e21e1a8894ec,673649bc9d5b5d200dcd77da,2024-11-14_13h35.44.943,Tarea de género gramatical,2024.2.2,Win32,60.24096386,,,,,,,,,,,,,,,,,,,,,,189.854,191.0006,a,1,[],[],[],[],[],[],[],0.4637,1,191.0017,191.5003,,,,,,643,FEM,CON,150,bolsa,,a,0.4637,,191.5004,191.5006,0.019444444,-0.418518575,0,0,0,,0,68,68,192,1,,,
,,,,,,c2e6fdc7169c95e15a5ba55e,66a626ef09d4e21e1a8894ec,673649bc9d5b5d200dcd77da,2024-11-14_13h35.44.943,Tarea de género gramatical,2024.2.2,Win32,60.24096386,,,,,,,,,,,,,,,,,,,,,,191.5026,192.766,l,1,[],[],[],[],[],[],[],0.5777,1,192.7661,193.2539,,,,,,576,MAS,AGR,150,lazo,el,l,0.5777,,193.2554,193.257,0.019444444,-0.418518575,0,0,0,,0,69,69,125,1,,,
,,,,,,c2e6fdc7169c95e15a5ba55e,66a626ef09d4e21e1a8894ec,673649bc9d5b5d200dcd77da,2024-11-14_13h35.44.943,Tarea de género gramatical,2024.2.2,Win32,60.24096386,,,,,,,,,,,,,,,,,,,,,,193.2582,194.7363,l,1,[],[],[],[],[],[],[],0.7991,1,194.7364,195.2357,,,,,,599,MAS,DIS,150,nudo,la,l,0.7991,,195.2358,195.2359,0.019444444,-0.418518575,0,0,0,,0,70,70,148,1,,,
,,,,,,c2e6fdc7169c95e15a5ba55e,66a626ef09d4e21e1a8894ec,673649bc9d5b5d200dcd77da,2024-11-14_13h35.44.943,Tarea de género gramatical,2024.2.2,Win32,60.24096386,,,,,,,,,,,,,,,,,,,,,,195.2374,196.5351,a,1,[],[],[],[],[],[],[],0.6332,1,196.5353,197.0331,,,,,,452,FEM,DIS,150,vida,el,a,0.6332,,197.0332,197.0334,0.019444444,-0.418518575,0,0,0,,0,71,71,1,1,,,
,,,,,,c2e6fdc7169c95e15a5ba55e,66a626ef09d4e21e1a8894ec,673649bc9d5b5d200dcd77da,2024-11-14_13h35.44.943,Tarea de género gramatical,2024.2.2,Win32,60.24096386,,,,,,,,,,,,,,,,,,,,,,197.0349,198.2452,l,1,[],[],[],[],[],[],[],0.5346,1,198.2454,198.7336,,,,,,706,MAS,CON,150,techo,,l,0.5346,,198.7338,198.7339,0.019444444,-0.418518575,0,0,0,,0,72,72,255,1,,,
,,,,,,c2e6fdc7169c95e15a5ba55e,66a626ef09d4e21e1a8894ec,673649bc9d5b5d200dcd77da,2024-11-14_13h35.44.943,Tarea de género gramatical,2024.2.2,Win32,60.24096386,,,,,,,,,,,,,,,,,,,,,,198.7354,199.9941,l,1,[],[],[],[],[],[],[],0.5853,1,199.9943,200.4937,,,,,,702,MAS,AGR,150,viejo,el,l,0.5853,,200.4938,200.4939,0.019444444,-0.418518575,0,0,0,,0,73,73,251,1,,,
,,,,,,c2e6fdc7169c95e15a5ba55e,66a626ef09d4e21e1a8894ec,673649bc9d5b5d200dcd77da,2024-11-14_13h35.44.943,Tarea de género gramatical,2024.2.2,Win32,60.24096386,,,,,,,,,,,,,,,,,,,,,,200.4959,201.6646,l,1,[],[],[],[],[],[],[],0.4837,1,201.6647,202.1643,,,,,,810,MAS,AGR,150,puente,el,l,0.4837,,202.166,202.1679,0.019444444,-0.418518575,0,0,0,,0,74,74,359,1,,,
,,,,,,c2e6fdc7169c95e15a5ba55e,66a626ef09d4e21e1a8894ec,673649bc9d5b5d200dcd77da,2024-11-14_13h35.44.943,Tarea de género gramatical,2024.2.2,Win32,60.24096386,,,,,,,,,,,,,,,,,,,,,,202.1689,203.3079,a,1,[],[],[],[],[],[],[],0.4691,1,203.3081,203.8102,,,,,,807,FEM,AGR,150,lengua,la,a,0.4691,,203.8103,203.8104,0.019444444,-0.418518575,0,0,0,,0,75,75,356,1,,,
,,,,,,c2e6fdc7169c95e15a5ba55e,66a626ef09d4e21e1a8894ec,673649bc9d5b5d200dcd77da,2024-11-14_13h35.44.943,Tarea de género gramatical,2024.2.2,Win32,60.24096386,,,,,,,,,,,,,,,,,,,,,,203.8119,204.9732,a,1,[],[],[],[],[],[],[],0.471,1,204.9734,205.4784,,,,,,675,FEM,AGR,150,pieza,la,a,0.471,,205.4785,205.4786,0.019444444,-0.418518575,0,0,0,,0,76,76,224,1,,,
,,,,,,c2e6fdc7169c95e15a5ba55e,66a626ef09d4e21e1a8894ec,673649bc9d5b5d200dcd77da,2024-11-14_13h35.44.943,Tarea de género gramatical,2024.2.2,Win32,60.24096386,,,,,,,,,,,,,,,,,,,,,,205.4803,206.6438,a,1,[],[],[],[],[],[],[],0.4946,1,206.6439,207.1411,,,,,,843,FEM,AGR,150,alarma,la,a,0.4946,,207.1412,207.1413,0.019444444,-0.418518575,0,0,0,,0,77,77,392,1,,,
,,,,,,c2e6fdc7169c95e15a5ba55e,66a626ef09d4e21e1a8894ec,673649bc9d5b5d200dcd77da,2024-11-14_13h35.44.943,Tarea de género gramatical,2024.2.2,Win32,60.24096386,,,,,,,,,,,,,,,,,,,,,,207.1428,208.3042,a,1,[],[],[],[],[],[],[],0.4784,1,208.3043,208.8038,,,,,,543,FEM,AGR,150,lata,la,a,0.4784,,208.806,208.8078,0.019444444,-0.418518575,0,0,0,,0,78,78,92,1,,,
,,,,,,c2e6fdc7169c95e15a5ba55e,66a626ef09d4e21e1a8894ec,673649bc9d5b5d200dcd77da,2024-11-14_13h35.44.943,Tarea de género gramatical,2024.2.2,Win32,60.24096386,,,,,,,,,,,,,,,,,,,,,,208.8088,209.8912,l,1,[],[],[],[],[],[],[],0.4141,1,209.8913,210.3856,,,,,,814,MAS,CON,150,viento,,l,0.4141,,210.3857,210.3858,0.019444444,-0.418518575,0,0,0,,0,79,79,363,1,,,
,,,,,,c2e6fdc7169c95e15a5ba55e,66a626ef09d4e21e1a8894ec,673649bc9d5b5d200dcd77da,2024-11-14_13h35.44.943,Tarea de género gramatical,2024.2.2,Win32,60.24096386,,,,,,,,,,,,,,,,,,,,,,210.3879,212.1701,l,1,[],[],[],[],[],[],[],1.1137,1,212.1703,212.6674,,,,,,569,MAS,DIS,150,mito,la,l,1.1137,,212.6675,212.6677,0.019444444,-0.418518575,0,0,0,,0,80,80,118,1,,,
,,,,,,c2e6fdc7169c95e15a5ba55e,66a626ef09d4e21e1a8894ec,673649bc9d5b5d200dcd77da,2024-11-14_13h35.44.943,Tarea de género gramatical,2024.2.2,Win32,60.24096386,,,,,,,,,,,,,,,,,,,,,,212.6696,213.7496,l,1,[],[],[],[],[],[],[],0.4047,1,213.7497,214.2538,,,,,,454,MAS,CON,150,hijo,,l,0.4047,,214.2539,214.2541,0.019444444,-0.418518575,0,0,0,,0,81,81,3,1,,,
,,,,,,c2e6fdc7169c95e15a5ba55e,66a626ef09d4e21e1a8894ec,673649bc9d5b5d200dcd77da,2024-11-14_13h35.44.943,Tarea de género gramatical,2024.2.2,Win32,60.24096386,,,,,,,,,,,,,,,,,,,,,,214.2557,215.3648,a,1,[],[],[],[],[],[],[],0.4342,1,215.365,215.8703,,,,,,674,FEM,DIS,150,arena,el,a,0.4342,,215.8704,215.8706,0.019444444,-0.418518575,0,0,0,,0,82,82,223,1,,,
,,,,,,c2e6fdc7169c95e15a5ba55e,66a626ef09d4e21e1a8894ec,673649bc9d5b5d200dcd77da,2024-11-14_13h35.44.943,Tarea de género gramatical,2024.2.2,Win32,60.24096386,,,,,,,,,,,,,,,,,,,,,,215.872,216.9364,a,1,[],[],[],[],[],[],[],0.3866,1,216.9365,217.4299,,,,,,877,FEM,CON,150,agenda,,a,0.3866,,217.432,217.4334,0.019444444,-0.418518575,0,0,0,,0,83,83,426,1,,,
,,,,,,c2e6fdc7169c95e15a5ba55e,66a626ef09d4e21e1a8894ec,673649bc9d5b5d200dcd77da,2024-11-14_13h35.44.943,Tarea de género gramatical,2024.2.2,Win32,60.24096386,,,,,,,,,,,,,,,,,,,,,,217.4345,218.5674,a,1,[],[],[],[],[],[],[],0.4601,1,218.5676,219.0618,,,,,,464,FEM,DIS,150,cara,el,a,0.4601,,219.0619,219.0622,0.019444444,-0.418518575,0,0,0,,0,84,84,13,1,,,
,,,,,,c2e6fdc7169c95e15a5ba55e,66a626ef09d4e21e1a8894ec,673649bc9d5b5d200dcd77da,2024-11-14_13h35.44.943,Tarea de género gramatical,2024.2.2,Win32,60.24096386,,,,,,,,,,,,,,,,,,,,,,219.065,220.2827,l,1,[],[],[],[],[],[],[],0.5613,1,220.2828,220.7773,,,,,,545,MAS,DIS,150,tomo,la,l,0.5613,,220.7774,220.7775,0.019444444,-0.418518575,0,0,0,,0,85,85,94,1,,,
,,,,,,c2e6fdc7169c95e15a5ba55e,66a626ef09d4e21e1a8894ec,673649bc9d5b5d200dcd77da,2024-11-14_13h35.44.943,Tarea de género gramatical,2024.2.2,Win32,60.24096386,,,,,,,,,,,,,,,,,,,,,,220.7794,221.9813,l,1,[],[],[],[],[],[],[],0.5265,1,221.9814,222.4764,,,,,,648,MAS,AGR,150,hotel,el,l,0.5265,,222.4764,222.4767,0.019444444,-0.418518575,0,0,0,,0,86,86,197,1,,,
,,,,,,c2e6fdc7169c95e15a5ba55e,66a626ef09d4e21e1a8894ec,673649bc9d5b5d200dcd77da,2024-11-14_13h35.44.943,Tarea de género gramatical,2024.2.2,Win32,60.24096386,,,,,,,,,,,,,,,,,,,,,,222.4786,223.5639,a,1,[],[],[],[],[],[],[],0.4269,1,223.5641,224.0585,,,,,,609,FEM,AGR,150,clase,la,a,0.4269,,224.0605,224.062,0.019444444,-0.418518575,0,0,0,,0,87,87,158,1,,,
,,,,,,c2e6fdc7169c95e15a5ba55e,66a626ef09d4e21e1a8894ec,673649bc9d5b5d200dcd77da,2024-11-14_13h35.44.943,Tarea de género gramatical,2024.2.2,Win32,60.24096386,,,,,,,,,,,,,,,,,,,,,,224.0633,225.3459,l,1,[],[],[],[],[],[],[],0.6121,1,225.346,225.8427,,,,,,720,MAS,AGR,150,queso,el,l,0.6121,,225.8428,225.8429,0.019444444,-0.418518575,0,0,0,,0,88,88,269,1,,,
,,,,,,c2e6fdc7169c95e15a5ba55e,66a626ef09d4e21e1a8894ec,673649bc9d5b5d200dcd77da,2024-11-14_13h35.44.943,Tarea de género gramatical,2024.2.2,Win32,60.24096386,,,,,,,,,,,,,,,,,,,,,,225.8444,226.9618,a,1,[],[],[],[],[],[],[],0.4342,1,226.9619,227.4553,,,,,,613,FEM,CON,150,calle,,a,0.4342,,227.4554,227.4556,0.019444444,-0.418518575,0,0,0,,0,89,89,162,1,,,
,,,,,,c2e6fdc7169c95e15a5ba55e,66a626ef09d4e21e1a8894ec,673649bc9d5b5d200dcd77da,2024-11-14_13h35.44.943,Tarea de género gramatical,2024.2.2,Win32,60.24096386,,,,,,,,,,,,,,,,,,,,,,227.4577,228.9377,l,1,[],[],[],[],[],[],[],0.8036,1,228.9379,229.437,,,,,,551,MAS,DIS,150,giro,la,l,0.8036,,229.4372,229.4373,0.019444444,-0.418518575,0,0,0,,0,90,90,100,1,,,
,,,,,,c2e6fdc7169c95e15a5ba55e,66a626ef09d4e21e1a8894ec,673649bc9d5b5d200dcd77da,2024-11-14_13h35.44.943,Tarea de género gramatical,2024.2.2,Win32,60.24096386,,,,,,,,,,,,,,,,,,,,,,229.4393,230.5527,a,1,[],[],[],[],[],[],[],0.4202,1,230.5528,231.0526,,,,,,615,FEM,AGR,150,amiga,la,a,0.4202,,231.0526,231.0527,0.019444444,-0.418518575,0,0,0,,0,91,91,164,1,,,
,,,,,,c2e6fdc7169c95e15a5ba55e,66a626ef09d4e21e1a8894ec,673649bc9d5b5d200dcd77da,2024-11-14_13h35.44.943,Tarea de género gramatical,2024.2.2,Win32,60.24096386,,,,,,,,,,,,,,,,,,,,,,231.0546,232.3017,l,1,[],[],[],[],[],[],[],0.5721,1,232.3019,232.7901,,,,,,581,MAS,DIS,150,kilo,la,l,0.5721,,232.7919,232.7935,0.019444444,-0.418518575,0,0,0,,0,92,92,130,1,,,
,,,,,,c2e6fdc7169c95e15a5ba55e,66a626ef09d4e21e1a8894ec,673649bc9d5b5d200dcd77da,2024-11-14_13h35.44.943,Tarea de género gramatical,2024.2.2,Win32,60.24096386,,,,,,,,,,,,,,,,,,,,,,232.7945,233.9173,a,1,[],[],[],[],[],[],[],0.4374,1,233.9175,234.4193,,,,,,861,FEM,AGR,150,actriz,la,a,0.4374,,234.4193,234.4194,0.019444444,-0.418518575,0,0,0,,0,93,93,410,1,,,
,,,,,,c2e6fdc7169c95e15a5ba55e,66a626ef09d4e21e1a8894ec,673649bc9d5b5d200dcd77da,2024-11-14_13h35.44.943,Tarea de género gramatical,2024.2.2,Win32,60.24096386,,,,,,,,,,,,,,,,,,,,,,234.421,235.7378,a,1,[],[],[],[],[],[],[],0.6508,1,235.7379,236.2371,,,,,,597,FEM,AGR,150,grúa,la,a,0.6508,,236.2372,236.2374,0.019444444,-0.418518575,0,0,0,,0,94,94,146,1,,,
,,,,,,c2e6fdc7169c95e15a5ba55e,66a626ef09d4e21e1a8894ec,673649bc9d5b5d200dcd77da,2024-11-14_13h35.44.943,Tarea de género gramatical,2024.2.2,Win32,60.24096386,,,,,,,,,,,,,,,,,,,,,,236.2389,237.3857,a,1,[],[],[],[],[],[],[],0.4767,1,237.3858,237.8803,,,,,,644,FEM,DIS,150,banda,el,a,0.4767,,237.8804,237.8806,0.019444444,-0.418518575,0,0,0,,0,95,95,193,1,,,
,,,,,,c2e6fdc7169c95e15a5ba55e,66a626ef09d4e21e1a8894ec,673649bc9d5b5d200dcd77da,2024-11-14_13h35.44.943,Tarea de género gramatical,2024.2.2,Win32,60.24096386,,,,,,,,,,,,,,,,,,,,,,237.8823,239.1295,a,1,[],[],[],[],[],[],[],0.5876,1,239.1296,239.6349,,,,,,571,FEM,CON,150,pila,,a,0.5876,,239.6366,239.6382,0.019444444,-0.418518575,0,0,0,,0,96,96,120,1,,,
,,,,,,c2e6fdc7169c95e15a5ba55e,66a626ef09d4e21e1a8894ec,673649bc9d5b5d200dcd77da,2024-11-14_13h35.44.943,Tarea de género gramatical,2024.2.2,Win32,60.24096386,,,,,,,,,,,,,,,,,,,,,,239.6392,240.9112,a,1,[],[],[],[],[],[],[],0.5851,1,240.9113,241.4109,,,,,,849,FEM,AGR,150,charla,la,a,0.5851,,241.4109,241.4111,0.019444444,-0.418518575,0,0,0,,0,97,97,398,1,,,
,,,,,,c2e6fdc7169c95e15a5ba55e,66a626ef09d4e21e1a8894ec,673649bc9d5b5d200dcd77da,2024-11-14_13h35.44.943,Tarea de género gramatical,2024.2.2,Win32,60.24096386,,,,,,,,,,,,,,,,,,,,,,241.413,242.7319,l,1,[],[],[],[],[],[],[],0.6337,1,242.732,243.2315,,,,,,629,MAS,DIS,150,viaje,la,l,0.6337,,243.2315,243.2317,0.019444444,-0.418518575,0,0,0,,0,98,98,178,1,,,
,,,,,,c2e6fdc7169c95e15a5ba55e,66a626ef09d4e21e1a8894ec,673649bc9d5b5d200dcd77da,2024-11-14_13h35.44.943,Tarea de género gramatical,2024.2.2,Win32,60.24096386,,,,,,,,,,,,,,,,,,,,,,243.2336,244.6305,l,0,[],[],[],[],[],[],[],0.7184,0,244.6319,245.1246,,,,,,787,FEM,CON,150,escena,,a,0.7184,,245.1247,245.1249,0.019444444,-0.418518575,0,0,0,,0,99,99,336,1,,,
,,,,,,c2e6fdc7169c95e15a5ba55e,66a626ef09d4e21e1a8894ec,673649bc9d5b5d200dcd77da,2024-11-14_13h35.44.943,Tarea de género gramatical,2024.2.2,Win32,60.24096386,,,,,,,,,,,,,,,,,,,,,,245.1268,246.5794,l,1,[],[],[],[],[],[],[],0.7834,1,246.5806,247.0732,,,,,,665,MAS,DIS,150,hueso,la,l,0.7834,,247.0733,247.0734,0.019444444,-0.418518575,0,0,0,,0,100,100,214,1,,,
,,,,,,c2e6fdc7169c95e15a5ba55e,66a626ef09d4e21e1a8894ec,673649bc9d5b5d200dcd77da,2024-11-14_13h35.44.943,Tarea de género gramatical,2024.2.2,Win32,60.24096386,,,,,,,,,,,,,,,,,,,,,,247.0755,248.2781,l,0,[],[],[],[],[],[],[],0.5273,0,248.2793,248.7754,,,,,,626,FEM,DIS,150,línea,el,a,0.5273,,248.7769,248.7785,0.019444444,-0.418518575,0,0,0,,0,101,101,175,1,,,
,,,,,,c2e6fdc7169c95e15a5ba55e,66a626ef09d4e21e1a8894ec,673649bc9d5b5d200dcd77da,2024-11-14_13h35.44.943,Tarea de género gramatical,2024.2.2,Win32,60.24096386,,,,,,,,,,,,,,,,,,,,,,248.7794,250.226,l,1,[],[],[],[],[],[],[],0.7772,1,250.2271,250.7254,,,,,,641,MAS,DIS,150,dolor,la,l,0.7772,,250.7255,250.7257,0.019444444,-0.418518575,0,0,0,,0,102,102,190,1,,,
,,,,,,c2e6fdc7169c95e15a5ba55e,66a626ef09d4e21e1a8894ec,673649bc9d5b5d200dcd77da,2024-11-14_13h35.44.943,Tarea de género gramatical,2024.2.2,Win32,60.24096386,,,,,,,,,,,,,,,,,,,,,,250.7272,252.0922,a,1,[],[],[],[],[],[],[],0.6844,1,252.0923,252.5855,,,,,,470,FEM,DIS,150,ropa,el,a,0.6844,,252.5856,252.5857,0.019444444,-0.418518575,0,0,0,,0,103,103,19,1,,,
,,,,,,c2e6fdc7169c95e15a5ba55e,66a626ef09d4e21e1a8894ec,673649bc9d5b5d200dcd77da,2024-11-14_13h35.44.943,Tarea de género gramatical,2024.2.2,Win32,60.24096386,,,,,,,,,,,,,,,,,,,,,,252.5872,253.7403,a,1,[],[],[],[],[],[],[],0.4943,1,253.7404,254.234,,,,,,499,FEM,CON,150,piel,,a,0.4943,,254.2341,254.2344,0.019444444,-0.418518575,0,0,0,,0,104,104,48,1,,,
,,,,,,c2e6fdc7169c95e15a5ba55e,66a626ef09d4e21e1a8894ec,673649bc9d5b5d200dcd77da,2024-11-14_13h35.44.943,Tarea de género gramatical,2024.2.2,Win32,60.24096386,,,,,,,,,,,,,,,,,,,,,,254.2363,255.5717,a,1,[],[],[],[],[],[],[],0.6603,1,255.5719,256.0705,,,,,,493,FEM,CON,150,nena,,a,0.6603,,256.0721,256.074,0.019444444,-0.418518575,0,0,0,,0,105,105,42,1,,,
,,,,,,c2e6fdc7169c95e15a5ba55e,66a626ef09d4e21e1a8894ec,673649bc9d5b5d200dcd77da,2024-11-14_13h35.44.943,Tarea de género gramatical,2024.2.2,Win32,60.24096386,,,,,,,,,,,,,,,,,,,,,,256.0749,257.7036,l,1,[],[],[],[],[],[],[],0.9502,1,257.7037,258.2031,,,,,,682,MAS,CON,150,calor,,l,0.9502,,258.2031,258.2032,0.019444444,-0.418518575,0,0,0,,0,106,106,231,1,,,
,,,,,,c2e6fdc7169c95e15a5ba55e,66a626ef09d4e21e1a8894ec,673649bc9d5b5d200dcd77da,2024-11-14_13h35.44.943,Tarea de género gramatical,2024.2.2,Win32,60.24096386,,,,,,,,,,,,,,,,,,,,,,258.2047,259.5465,l,1,[],[],[],[],[],[],[],0.6554,1,259.5467,260.0349,,,,,,714,MAS,AGR,150,pollo,el,l,0.6554,,260.035,260.035,0.019444444,-0.418518575,0,0,0,,0,107,107,263,1,,,
,,,,,,c2e6fdc7169c95e15a5ba55e,66a626ef09d4e21e1a8894ec,673649bc9d5b5d200dcd77da,2024-11-14_13h35.44.943,Tarea de género gramatical,2024.2.2,Win32,60.24096386,,,,,,,,,,,,,,,,,,,,,,260.0366,261.2676,a,1,[],[],[],[],[],[],[],0.5507,1,261.2678,261.7616,,,,,,853,FEM,CON,150,paliza,,a,0.5507,,261.7616,261.7618,0.019444444,-0.418518575,0,0,0,,0,108,108,402,1,,,
,,,,,,c2e6fdc7169c95e15a5ba55e,66a626ef09d4e21e1a8894ec,673649bc9d5b5d200dcd77da,2024-11-14_13h35.44.943,Tarea de género gramatical,2024.2.2,Win32,60.24096386,,,,,,,,,,,,,,,,,,,,,,261.7638,263.0324,a,1,[],[],[],[],[],[],[],0.6118,1,263.0325,263.5267,,,,,,872,FEM,DIS,150,rutina,el,a,0.6118,,263.5268,263.527,0.019444444,-0.418518575,0,0,0,,0,109,109,421,1,,,
,,,,,,c2e6fdc7169c95e15a5ba55e,66a626ef09d4e21e1a8894ec,673649bc9d5b5d200dcd77da,2024-11-14_13h35.44.943,Tarea de género gramatical,2024.2.2,Win32,60.24096386,,,,,,,,,,,,,,,,,,,,,,263.5291,264.8258,l,1,[],[],[],[],[],[],[],0.6361,1,264.826,265.3295,,,,,,520,MAS,CON,150,palo,,l,0.6361,,265.331,265.3324,0.019444444,-0.418518575,0,0,0,,0,110,110,69,1,,,
,,,,,,c2e6fdc7169c95e15a5ba55e,66a626ef09d4e21e1a8894ec,673649bc9d5b5d200dcd77da,2024-11-14_13h35.44.943,Tarea de género gramatical,2024.2.2,Win32,60.24096386,,,,,,,,,,,,,,,,,,,,,,265.3334,266.6962,l,1,[],[],[],[],[],[],[],0.6826,1,266.6963,267.1962,,,,,,550,MAS,CON,150,nido,,l,0.6826,,267.1963,267.1964,0.019444444,-0.418518575,0,0,0,,0,111,111,99,1,,,
,,,,,,c2e6fdc7169c95e15a5ba55e,66a626ef09d4e21e1a8894ec,673649bc9d5b5d200dcd77da,2024-11-14_13h35.44.943,Tarea de género gramatical,2024.2.2,Win32,60.24096386,,,,,,,,,,,,,,,,,,,,,,267.1981,268.5282,a,0,[],[],[],[],[],[],[],0.6623,0,268.5293,269.0279,,,,,,846,MAS,AGR,150,tesoro,el,l,0.6623,,269.028,269.0282,0.019444444,-0.418518575,0,0,0,,0,112,112,395,1,,,
,,,,,,c2e6fdc7169c95e15a5ba55e,66a626ef09d4e21e1a8894ec,673649bc9d5b5d200dcd77da,2024-11-14_13h35.44.943,Tarea de género gramatical,2024.2.2,Win32,60.24096386,,,,,,,,,,,,,,,,,,,,,,269.0299,270.1433,a,1,[],[],[],[],[],[],[],0.4327,1,270.1444,270.643,,,,,,590,FEM,DIS,150,mula,el,a,0.4327,,270.6431,270.6432,0.019444444,-0.418518575,0,0,0,,0,113,113,139,1,,,
,,,,,,c2e6fdc7169c95e15a5ba55e,66a626ef09d4e21e1a8894ec,673649bc9d5b5d200dcd77da,2024-11-14_13h35.44.943,Tarea de género gramatical,2024.2.2,Win32,60.24096386,,,,,,,,,,,,,,,,,,,,,,270.6447,271.875,l,1,[],[],[],[],[],[],[],0.5522,1,271.8751,272.3752,,,,,,792,MAS,AGR,150,abuelo,el,l,0.5522,,272.3768,272.3789,0.019444444,-0.418518575,0,0,0,,0,114,114,341,1,,,
,,,,,,c2e6fdc7169c95e15a5ba55e,66a626ef09d4e21e1a8894ec,673649bc9d5b5d200dcd77da,2024-11-14_13h35.44.943,Tarea de género gramatical,2024.2.2,Win32,60.24096386,,,,,,,,,,,,,,,,,,,,,,272.38,273.5739,a,1,[],[],[],[],[],[],[],0.5329,1,273.574,274.0728,,,,,,530,FEM,DIS,150,vaca,el,a,0.5329,,274.0729,274.073,0.019444444,-0.418518575,0,0,0,,0,115,115,79,1,,,
,,,,,,c2e6fdc7169c95e15a5ba55e,66a626ef09d4e21e1a8894ec,673649bc9d5b5d200dcd77da,2024-11-14_13h35.44.943,Tarea de género gramatical,2024.2.2,Win32,60.24096386,,,,,,,,,,,,,,,,,,,,,,274.0745,276.7162,,0,[],[],[],[],[],[],[],0.5329,-1,276.7178,277.2041,,,,,,864,MAS,AGR,150,sótano,el,l,,,277.2042,277.2044,0.019444444,-0.418518575,0,0,0,,0,116,116,413,1,,,
,,,,,,c2e6fdc7169c95e15a5ba55e,66a626ef09d4e21e1a8894ec,673649bc9d5b5d200dcd77da,2024-11-14_13h35.44.943,Tarea de género gramatical,2024.2.2,Win32,60.24096386,,,,,,,,,,,,,,,,,,,,,,277.2059,278.6042,a,1,[],[],[],[],[],[],[],0.7169,1,278.6055,279.0976,,,,,,632,FEM,DIS,150,prisa,el,a,0.7169,,279.0977,279.0978,0.019444444,-0.418518575,0,0,0,,0,117,117,181,1,,,
,,,,,,c2e6fdc7169c95e15a5ba55e,66a626ef09d4e21e1a8894ec,673649bc9d5b5d200dcd77da,2024-11-14_13h35.44.943,Tarea de género gramatical,2024.2.2,Win32,60.24096386,,,,,,,,,,,,,,,,,,,,,,279.0999,280.2524,a,1,[],[],[],[],[],[],[],0.4795,1,280.2526,280.7512,,,,,,585,FEM,AGR,150,raíz,la,a,0.4795,,280.7513,280.7514,0.019444444,-0.418518575,0,0,0,,0,118,118,134,1,,,
,,,,,,c2e6fdc7169c95e15a5ba55e,66a626ef09d4e21e1a8894ec,673649bc9d5b5d200dcd77da,2024-11-14_13h35.44.943,Tarea de género gramatical,2024.2.2,Win32,60.24096386,,,,,,,,,,,,,,,,,,,,,,280.753,281.8854,a,1,[],[],[],[],[],[],[],0.4632,1,281.8856,282.379,,,,,,529,FEM,CON,150,mina,,a,0.4632,,282.3811,282.3825,0.019444444,-0.418518575,0,0,0,,0,119,119,78,1,,,
,,,,,,c2e6fdc7169c95e15a5ba55e,66a626ef09d4e21e1a8894ec,673649bc9d5b5d200dcd77da,2024-11-14_13h35.44.943,Tarea de género gramatical,2024.2.2,Win32,60.24096386,,,,,,,,,,,,,,,,,,,,,,282.3836,283.6323,l,1,[],[],[],[],[],[],[],0.5782,1,283.6324,284.1274,,,,,,761,MAS,DIS,150,camino,la,l,0.5782,,284.1275,284.1276,0.019444444,-0.418518575,0,0,0,,0,120,120,310,1,,,
,,,,,,c2e6fdc7169c95e15a5ba55e,66a626ef09d4e21e1a8894ec,673649bc9d5b5d200dcd77da,2024-11-14_13h35.44.943,Tarea de género gramatical,2024.2.2,Win32,60.24096386,,,,,,,,,,,,,,,,,,,,,,284.1295,285.7592,l,1,[],[],[],[],[],[],[],0.9464,1,285.7594,286.2587,,,,,,683,MAS,DIS,150,golpe,la,l,0.9464,,286.2588,286.2589,0.019444444,-0.418518575,0,0,0,,0,121,121,232,1,,,
,,,,,,c2e6fdc7169c95e15a5ba55e,66a626ef09d4e21e1a8894ec,673649bc9d5b5d200dcd77da,2024-11-14_13h35.44.943,Tarea de género gramatical,2024.2.2,Win32,60.24096386,,,,,,,,,,,,,,,,,,,,,,286.261,287.5965,a,1,[],[],[],[],[],[],[],0.6626,1,287.5966,288.0955,,,,,,573,FEM,AGR,150,tela,la,a,0.6626,,288.0956,288.0957,0.019444444,-0.418518575,0,0,0,,0,122,122,122,1,,,
,,,,,,c2e6fdc7169c95e15a5ba55e,66a626ef09d4e21e1a8894ec,673649bc9d5b5d200dcd77da,2024-11-14_13h35.44.943,Tarea de género gramatical,2024.2.2,Win32,60.24096386,,,,,,,,,,,,,,,,,,,,,,288.0972,289.3926,l,1,[],[],[],[],[],[],[],0.6309,1,289.3928,289.8892,,,,,,539,MAS,DIS,150,maíz,la,l,0.6309,,289.8916,289.8933,0.019444444,-0.418518575,0,0,0,,0,123,123,88,1,,,
,,,,,,c2e6fdc7169c95e15a5ba55e,66a626ef09d4e21e1a8894ec,673649bc9d5b5d200dcd77da,2024-11-14_13h35.44.943,Tarea de género gramatical,2024.2.2,Win32,60.24096386,,,,,,,,,,,,,,,,,,,,,,289.8944,291.5211,l,0,[],[],[],[],[],[],[],0.954,0,291.523,292.0099,,,,,,566,FEM,DIS,150,nube,el,a,0.954,,292.0099,292.0101,0.019444444,-0.418518575,0,0,0,,0,124,124,115,1,,,
,,,,,,c2e6fdc7169c95e15a5ba55e,66a626ef09d4e21e1a8894ec,673649bc9d5b5d200dcd77da,2024-11-14_13h35.44.943,Tarea de género gramatical,2024.2.2,Win32,60.24096386,,,,,,,,,,,,,,,,,,,,,,292.0117,294.0696,l,1,[],[],[],[],[],[],[],1.3851,1,294.0707,294.5736,,,,,,875,MAS,DIS,150,chiste,la,l,1.3851,,294.5736,294.5737,0.019444444,-0.418518575,0,0,0,,0,125,125,424,1,,,
,,,,,,c2e6fdc7169c95e15a5ba55e,66a626ef09d4e21e1a8894ec,673649bc9d5b5d200dcd77da,2024-11-14_13h35.44.943,Tarea de género gramatical,2024.2.2,Win32,60.24096386,,,,,,,,,,,,,,,,,,,,,,294.5752,295.7844,l,1,[],[],[],[],[],[],[],0.5209,1,295.7846,296.2841,,,,,,652,MAS,CON,150,honor,,l,0.5209,,296.2843,296.2843,0.019444444,-0.418518575,0,0,0,,0,126,126,201,1,,,
,,,,,,c2e6fdc7169c95e15a5ba55e,66a626ef09d4e21e1a8894ec,673649bc9d5b5d200dcd77da,2024-11-14_13h35.44.943,Tarea de género gramatical,2024.2.2,Win32,60.24096386,,,,,,,,,,,,,,,,,,,,,,296.2865,297.4835,a,1,[],[],[],[],[],[],[],0.5108,1,297.4836,297.9881,,,,,,811,FEM,CON,150,oferta,,a,0.5108,,297.9882,297.9884,0.019444444,-0.418518575,0,0,0,,0,127,127,360,1,,,
,,,,,,c2e6fdc7169c95e15a5ba55e,66a626ef09d4e21e1a8894ec,673649bc9d5b5d200dcd77da,2024-11-14_13h35.44.943,Tarea de género gramatical,2024.2.2,Win32,60.24096386,,,,,,,,,,,,,,,,,,,,,,297.99,299.6199,l,1,[],[],[],[],[],[],[],0.9493,1,299.62,300.1143,,,,,,634,MAS,CON,150,cielo,,l,0.9493,,300.1167,300.1183,0.019444444,-0.418518575,0,0,0,,0,128,128,183,1,,,
,,,,,,c2e6fdc7169c95e15a5ba55e,66a626ef09d4e21e1a8894ec,673649bc9d5b5d200dcd77da,2024-11-14_13h35.44.943,Tarea de género gramatical,2024.2.2,Win32,60.24096386,,,,,,,,,,,,,,,,,,,,,,300.1193,301.3853,a,1,[],[],[],[],[],[],[],0.5954,1,301.3854,301.8821,,,,,,825,FEM,AGR,150,cadena,la,a,0.5954,,301.8821,301.8823,0.019444444,-0.418518575,0,0,0,,0,129,129,374,1,,,
,,,,,,c2e6fdc7169c95e15a5ba55e,66a626ef09d4e21e1a8894ec,673649bc9d5b5d200dcd77da,2024-11-14_13h35.44.943,Tarea de género gramatical,2024.2.2,Win32,60.24096386,,,,,,,,,,,,,,,,,,,,,,301.8837,303.0172,l,1,[],[],[],[],[],[],[],0.4596,1,303.0177,303.5117,,,,,,796,MAS,CON,150,juicio,,l,0.4596,,303.5117,303.5119,0.019444444,-0.418518575,0,0,0,,0,130,130,345,1,,,
,,,,,,c2e6fdc7169c95e15a5ba55e,66a626ef09d4e21e1a8894ec,673649bc9d5b5d200dcd77da,2024-11-14_13h35.44.943,Tarea de género gramatical,2024.2.2,Win32,60.24096386,,,,,,,,,,,,,,,,,,,,,,303.5139,304.8306,a,0,[],[],[],[],[],[],[],0.6409,0,304.8317,305.3303,,,,,,616,MAS,CON,150,coche,,l,0.6409,,305.3304,305.3305,0.019444444,-0.418518575,0,0,0,,0,131,131,165,1,,,
,,,,,,c2e6fdc7169c95e15a5ba55e,66a626ef09d4e21e1a8894ec,673649bc9d5b5d200dcd77da,2024-11-14_13h35.44.943,Tarea de género gramatical,2024.2.2,Win32,60.24096386,,,,,,,,,,,,,,,,,,,,,,305.3322,306.481,a,1,[],[],[],[],[],[],[],0.4767,1,306.4822,306.976,,,,,,728,FEM,DIS,150,presa,el,a,0.4767,,306.978,306.9794,0.019444444,-0.418518575,0,0,0,,0,132,132,277,1,,,
,,,,,,c2e6fdc7169c95e15a5ba55e,66a626ef09d4e21e1a8894ec,673649bc9d5b5d200dcd77da,2024-11-14_13h35.44.943,Tarea de género gramatical,2024.2.2,Win32,60.24096386,,,,,,,,,,,,,,,,,,,,,,306.9803,308.7076,a,1,[],[],[],[],[],[],[],1.0384,1,308.7077,309.2076,,,,,,883,FEM,CON,150,huella,,a,1.0384,,309.2077,309.2078,0.019444444,-0.418518575,0,0,0,,0,133,133,432,1,,,
,,,,,,c2e6fdc7169c95e15a5ba55e,66a626ef09d4e21e1a8894ec,673649bc9d5b5d200dcd77da,2024-11-14_13h35.44.943,Tarea de género gramatical,2024.2.2,Win32,60.24096386,,,,,,,,,,,,,,,,,,,,,,309.2097,310.5448,l,1,[],[],[],[],[],[],[],0.6786,1,310.5449,311.0444,,,,,,737,MAS,DIS,150,plato,la,l,0.6786,,311.0445,311.0447,0.019444444,-0.418518575,0,0,0,,0,134,134,286,1,,,
,,,,,,c2e6fdc7169c95e15a5ba55e,66a626ef09d4e21e1a8894ec,673649bc9d5b5d200dcd77da,2024-11-14_13h35.44.943,Tarea de género gramatical,2024.2.2,Win32,60.24096386,,,,,,,,,,,,,,,,,,,,,,311.0462,312.4244,l,1,[],[],[],[],[],[],[],0.7091,1,312.4245,312.926,,,,,,784,MAS,CON,150,ataque,,l,0.7091,,312.926,312.9261,0.019444444,-0.418518575,0,0,0,,0,135,135,333,1,,,
,,,,,,c2e6fdc7169c95e15a5ba55e,66a626ef09d4e21e1a8894ec,673649bc9d5b5d200dcd77da,2024-11-14_13h35.44.943,Tarea de género gramatical,2024.2.2,Win32,60.24096386,,,,,,,,,,,,,,,,,,,,,,312.9276,314.2699,a,1,[],[],[],[],[],[],[],0.6525,1,314.27,314.7731,,,,,,679,FEM,CON,150,celda,,a,0.6525,,314.7732,314.7733,0.019444444,-0.418518575,0,0,0,,0,136,136,228,1,,,
,,,,,,c2e6fdc7169c95e15a5ba55e,66a626ef09d4e21e1a8894ec,673649bc9d5b5d200dcd77da,2024-11-14_13h35.44.943,Tarea de género gramatical,2024.2.2,Win32,60.24096386,,,,,,,,,,,,,,,,,,,,,,314.7748,315.9686,a,1,[],[],[],[],[],[],[],0.5003,1,315.9687,316.4683,,,,,,655,FEM,CON,150,reina,,a,0.5003,,316.4702,316.4715,0.019444444,-0.418518575,0,0,0,,0,137,137,204,1,,,
,,,,,,c2e6fdc7169c95e15a5ba55e,66a626ef09d4e21e1a8894ec,673649bc9d5b5d200dcd77da,2024-11-14_13h35.44.943,Tarea de género gramatical,2024.2.2,Win32,60.24096386,,,,,,,,,,,,,,,,,,,,,,316.4724,317.6058,a,1,[],[],[],[],[],[],[],0.4766,1,317.6059,318.1049,,,,,,823,FEM,CON,150,lluvia,,a,0.4766,,318.105,318.1051,0.019444444,-0.418518575,0,0,0,,0,138,138,372,1,,,
,,,,,,c2e6fdc7169c95e15a5ba55e,66a626ef09d4e21e1a8894ec,673649bc9d5b5d200dcd77da,2024-11-14_13h35.44.943,Tarea de género gramatical,2024.2.2,Win32,60.24096386,,,,,,,,,,,,,,,,,,,,,,318.1065,319.2385,l,1,[],[],[],[],[],[],[],0.4508,1,319.2387,319.7322,,,,,,484,MAS,CON,150,gato,,l,0.4508,,319.7323,319.7324,0.019444444,-0.418518575,0,0,0,,0,139,139,33,1,,,
,,,,,,c2e6fdc7169c95e15a5ba55e,66a626ef09d4e21e1a8894ec,673649bc9d5b5d200dcd77da,2024-11-14_13h35.44.943,Tarea de género gramatical,2024.2.2,Win32,60.24096386,,,,,,,,,,,,,,,,,,,,,,319.7346,320.7208,l,1,[],[],[],[],[],[],[],0.3112,1,320.721,321.2196,,,,,,802,MAS,CON,150,estilo,,l,0.3112,,321.2197,321.2198,0.019444444,-0.418518575,0,0,0,,0,140,140,351,1,,,
,,,,,,c2e6fdc7169c95e15a5ba55e,66a626ef09d4e21e1a8894ec,673649bc9d5b5d200dcd77da,2024-11-14_13h35.44.943,Tarea de género gramatical,2024.2.2,Win32,60.24096386,,,,,,,,,,,,,,,,,,,,,,321.221,322.7185,l,1,[],[],[],[],[],[],[],0.8269,1,322.7187,323.2131,,,,,,605,MAS,DIS,150,mundo,la,l,0.8269,,323.2147,323.2164,0.019444444,-0.418518575,0,0,0,,0,141,141,154,1,,,
,,,,,,c2e6fdc7169c95e15a5ba55e,66a626ef09d4e21e1a8894ec,673649bc9d5b5d200dcd77da,2024-11-14_13h35.44.943,Tarea de género gramatical,2024.2.2,Win32,60.24096386,,,,,,,,,,,,,,,,,,,,,,323.2172,324.4673,a,1,[],[],[],[],[],[],[],0.5779,1,324.4674,324.9662,,,,,,777,FEM,AGR,150,tienda,la,a,0.5779,,324.9663,324.9665,0.019444444,-0.418518575,0,0,0,,0,142,142,326,1,,,
,,,,,,c2e6fdc7169c95e15a5ba55e,66a626ef09d4e21e1a8894ec,673649bc9d5b5d200dcd77da,2024-11-14_13h35.44.943,Tarea de género gramatical,2024.2.2,Win32,60.24096386,,,,,,,,,,,,,,,,,,,,,,324.9678,326.299,l,0,[],[],[],[],[],[],[],0.6597,0,326.3002,326.7987,,,,,,817,FEM,CON,150,teoría,,a,0.6597,,326.7988,326.7989,0.019444444,-0.418518575,0,0,0,,0,143,143,366,1,,,
,,,,,,c2e6fdc7169c95e15a5ba55e,66a626ef09d4e21e1a8894ec,673649bc9d5b5d200dcd77da,2024-11-14_13h35.44.943,Tarea de género gramatical,2024.2.2,Win32,60.24096386,,,,,,,,,,,,,,,,,,,,,,326.8005,328.2475,a,1,[],[],[],[],[],[],[],0.7759,1,328.2486,328.7467,,,,,,710,FEM,DIS,150,barra,el,a,0.7759,,328.7467,328.7469,0.019444444,-0.418518575,0,0,0,,0,144,144,259,1,,,
,,,,,,c2e6fdc7169c95e15a5ba55e,66a626ef09d4e21e1a8894ec,673649bc9d5b5d200dcd77da,2024-11-14_13h35.44.943,Tarea de género gramatical,2024.2.2,Win32,60.24096386,,,,,,,,,,,,,,,,,,,,,,328.7484,329.9239,l,1,[],[],[],[],[],[],[],0.5062,1,329.924,330.4239,,,,,,869,MAS,DIS,150,cuento,la,l,0.5062,,330.424,330.4242,0.019444444,-0.418518575,0,0,0,,0,145,145,418,1,,,
,,,,,,c2e6fdc7169c95e15a5ba55e,66a626ef09d4e21e1a8894ec,673649bc9d5b5d200dcd77da,2024-11-14_13h35.44.943,Tarea de género gramatical,2024.2.2,Win32,60.24096386,,,,,,,,,,,,,,,,,,,,,,330.426,333.0721,,0,[],[],[],[],[],[],[],0.5062,-1,333.0738,333.5763,,,,,,668,FEM,DIS,150,nieve,el,a,,,333.5778,333.5792,0.019444444,-0.418518575,0,0,0,,0,146,146,217,1,,,
,,,,,,c2e6fdc7169c95e15a5ba55e,66a626ef09d4e21e1a8894ec,673649bc9d5b5d200dcd77da,2024-11-14_13h35.44.943,Tarea de género gramatical,2024.2.2,Win32,60.24096386,,,,,,,,,,,,,,,,,,,,,,333.5802,335.6248,l,1,[],[],[],[],[],[],[],1.3659,1,335.626,336.1243,,,,,,736,MAS,CON,150,reino,,l,1.3659,,336.1244,336.1245,0.019444444,-0.418518575,0,0,0,,0,147,147,285,1,,,
,,,,,,c2e6fdc7169c95e15a5ba55e,66a626ef09d4e21e1a8894ec,673649bc9d5b5d200dcd77da,2024-11-14_13h35.44.943,Tarea de género gramatical,2024.2.2,Win32,60.24096386,,,,,,,,,,,,,,,,,,,,,,336.1258,337.4568,l,1,[],[],[],[],[],[],[],0.6506,1,337.457,337.9516,,,,,,580,MAS,CON,150,yate,,l,0.6506,,337.9517,337.9519,0.019444444,-0.418518575,0,0,0,,0,148,148,129,1,,,
,,,,,,c2e6fdc7169c95e15a5ba55e,66a626ef09d4e21e1a8894ec,673649bc9d5b5d200dcd77da,2024-11-14_13h35.44.943,Tarea de género gramatical,2024.2.2,Win32,60.24096386,,,,,,,,,,,,,,,,,,,,,,337.9537,339.0227,l,1,[],[],[],[],[],[],[],0.3964,1,339.0228,339.517,,,,,,804,MAS,AGR,150,camión,el,l,0.3964,,339.5171,339.5172,0.019444444,-0.418518575,0,0,0,,0,149,149,353,1,,,
,,,,,,c2e6fdc7169c95e15a5ba55e,66a626ef09d4e21e1a8894ec,673649bc9d5b5d200dcd77da,2024-11-14_13h35.44.943,Tarea de género gramatical,2024.2.2,Win32,60.24096386,,,,,,,,,,,,,,,,,,,,,,339.5192,340.6713,l,1,[],[],[],[],[],[],[],0.4833,1,340.6714,341.1658,,,,,,594,MAS,AGR,150,amor,el,l,0.4833,,341.1679,347.0609,0.019444444,-0.418518575,1,0,0,,0,150,150,143,1,break_done_button,,
,,,,,,c2e6fdc7169c95e15a5ba55e,66a626ef09d4e21e1a8894ec,673649bc9d5b5d200dcd77da,2024-11-14_13h35.44.943,Tarea de género gramatical,2024.2.2,Win32,60.24096386,,,,,,,,,,,,,,,,,,,,,,347.0625,348.4596,a,0,[],[],[],[],[],[],[],0.7345,0,348.4608,348.9594,,,,,,462,MAS,AGR,150,plan,el,l,0.7345,,348.9594,348.9595,0.019444444,-0.418518575,0,0,0,,0,151,151,11,1,,,
,,,,,,c2e6fdc7169c95e15a5ba55e,66a626ef09d4e21e1a8894ec,673649bc9d5b5d200dcd77da,2024-11-14_13h35.44.943,Tarea de género gramatical,2024.2.2,Win32,60.24096386,,,,,,,,,,,,,,,,,,,,,,348.9614,350.1748,a,1,[],[],[],[],[],[],[],0.5219,1,350.1767,350.6742,,,,,,813,FEM,AGR,150,unidad,la,a,0.5219,,350.6744,350.6744,0.019444444,-0.418518575,0,0,0,,0,152,152,362,1,,,
,,,,,,c2e6fdc7169c95e15a5ba55e,66a626ef09d4e21e1a8894ec,673649bc9d5b5d200dcd77da,2024-11-14_13h35.44.943,Tarea de género gramatical,2024.2.2,Win32,60.24096386,,,,,,,,,,,,,,,,,,,,,,350.6767,351.7963,a,1,[],[],[],[],[],[],[],0.444,1,351.7965,352.2943,,,,,,607,FEM,CON,150,madre,,a,0.444,,352.2944,352.2945,0.019444444,-0.418518575,0,0,0,,0,153,153,156,1,,,
,,,,,,c2e6fdc7169c95e15a5ba55e,66a626ef09d4e21e1a8894ec,673649bc9d5b5d200dcd77da,2024-11-14_13h35.44.943,Tarea de género gramatical,2024.2.2,Win32,60.24096386,,,,,,,,,,,,,,,,,,,,,,352.2959,353.339,a,1,[],[],[],[],[],[],[],0.367,1,353.3391,353.8273,,,,,,885,FEM,AGR,150,niebla,la,a,0.367,,353.8273,353.8276,0.019444444,-0.418518575,0,0,0,,0,154,154,434,1,,,
,,,,,,c2e6fdc7169c95e15a5ba55e,66a626ef09d4e21e1a8894ec,673649bc9d5b5d200dcd77da,2024-11-14_13h35.44.943,Tarea de género gramatical,2024.2.2,Win32,60.24096386,,,,,,,,,,,,,,,,,,,,,,353.829,354.8878,a,1,[],[],[],[],[],[],[],0.3798,1,354.888,355.3756,,,,,,513,FEM,AGR,150,fila,la,a,0.3798,,355.3772,355.3788,0.019444444,-0.418518575,0,0,0,,0,155,155,62,1,,,
,,,,,,c2e6fdc7169c95e15a5ba55e,66a626ef09d4e21e1a8894ec,673649bc9d5b5d200dcd77da,2024-11-14_13h35.44.943,Tarea de género gramatical,2024.2.2,Win32,60.24096386,,,,,,,,,,,,,,,,,,,,,,355.3797,356.6527,a,1,[],[],[],[],[],[],[],0.6033,1,356.6528,357.141,,,,,,494,FEM,DIS,150,zona,el,a,0.6033,,357.141,357.1412,0.019444444,-0.418518575,0,0,0,,0,156,156,43,1,,,
,,,,,,c2e6fdc7169c95e15a5ba55e,66a626ef09d4e21e1a8894ec,673649bc9d5b5d200dcd77da,2024-11-14_13h35.44.943,Tarea de género gramatical,2024.2.2,Win32,60.24096386,,,,,,,,,,,,,,,,,,,,,,357.1428,358.2348,a,0,[],[],[],[],[],[],[],0.421,0,358.2358,358.7391,,,,,,491,MAS,DIS,150,bote,la,l,0.421,,358.7391,358.7393,0.019444444,-0.418518575,0,0,0,,0,157,157,40,1,,,
,,,,,,c2e6fdc7169c95e15a5ba55e,66a626ef09d4e21e1a8894ec,673649bc9d5b5d200dcd77da,2024-11-14_13h35.44.943,Tarea de género gramatical,2024.2.2,Win32,60.24096386,,,,,,,,,,,,,,,,,,,,,,358.7407,359.917,a,1,[],[],[],[],[],[],[],0.4845,1,359.9181,360.4227,,,,,,836,FEM,DIS,150,sombra,el,a,0.4845,,360.4228,360.423,0.019444444,-0.418518575,0,0,0,,0,158,158,385,1,,,
,,,,,,c2e6fdc7169c95e15a5ba55e,66a626ef09d4e21e1a8894ec,673649bc9d5b5d200dcd77da,2024-11-14_13h35.44.943,Tarea de género gramatical,2024.2.2,Win32,60.24096386,,,,,,,,,,,,,,,,,,,,,,360.4245,361.5711,a,1,[],[],[],[],[],[],[],0.476,1,361.5712,362.0659,,,,,,693,FEM,AGR,150,salsa,la,a,0.476,,362.068,362.0694,0.019444444,-0.418518575,0,0,0,,0,159,159,242,1,,,
,,,,,,c2e6fdc7169c95e15a5ba55e,66a626ef09d4e21e1a8894ec,673649bc9d5b5d200dcd77da,2024-11-14_13h35.44.943,Tarea de género gramatical,2024.2.2,Win32,60.24096386,,,,,,,,,,,,,,,,,,,,,,362.0703,363.286,l,1,[],[],[],[],[],[],[],0.5449,1,363.2862,363.781,,,,,,834,MAS,AGR,150,pedazo,el,l,0.5449,,363.7812,363.7812,0.019444444,-0.418518575,0,0,0,,0,160,160,383,1,,,
,,,,,,c2e6fdc7169c95e15a5ba55e,66a626ef09d4e21e1a8894ec,673649bc9d5b5d200dcd77da,2024-11-14_13h35.44.943,Tarea de género gramatical,2024.2.2,Win32,60.24096386,,,,,,,,,,,,,,,,,,,,,,363.7833,365.0862,l,1,[],[],[],[],[],[],[],0.646,1,365.0863,365.5794,,,,,,623,MAS,DIS,150,libro,la,l,0.646,,365.5794,365.5796,0.019444444,-0.418518575,0,0,0,,0,161,161,172,1,,,
,,,,,,c2e6fdc7169c95e15a5ba55e,66a626ef09d4e21e1a8894ec,673649bc9d5b5d200dcd77da,2024-11-14_13h35.44.943,Tarea de género gramatical,2024.2.2,Win32,60.24096386,,,,,,,,,,,,,,,,,,,,,,365.5813,366.733,a,1,[],[],[],[],[],[],[],0.4824,1,366.7332,367.2334,,,,,,495,FEM,AGR,150,isla,la,a,0.4824,,367.2335,367.2336,0.019444444,-0.418518575,0,0,0,,0,162,162,44,1,,,
,,,,,,c2e6fdc7169c95e15a5ba55e,66a626ef09d4e21e1a8894ec,673649bc9d5b5d200dcd77da,2024-11-14_13h35.44.943,Tarea de género gramatical,2024.2.2,Win32,60.24096386,,,,,,,,,,,,,,,,,,,,,,367.2353,368.6102,a,1,[],[],[],[],[],[],[],0.7045,1,368.6104,369.0987,,,,,,536,FEM,DIS,150,cruz,el,a,0.7045,,369.0988,369.0989,0.019444444,-0.418518575,0,0,0,,0,163,163,85,1,,,
,,,,,,c2e6fdc7169c95e15a5ba55e,66a626ef09d4e21e1a8894ec,673649bc9d5b5d200dcd77da,2024-11-14_13h35.44.943,Tarea de género gramatical,2024.2.2,Win32,60.24096386,,,,,,,,,,,,,,,,,,,,,,369.1004,370.1755,a,1,[],[],[],[],[],[],[],0.4015,1,370.1757,370.6642,,,,,,776,FEM,DIS,150,música,el,a,0.4015,,370.6659,370.6672,0.019444444,-0.418518575,0,0,0,,0,164,164,325,1,,,
,,,,,,c2e6fdc7169c95e15a5ba55e,66a626ef09d4e21e1a8894ec,673649bc9d5b5d200dcd77da,2024-11-14_13h35.44.943,Tarea de género gramatical,2024.2.2,Win32,60.24096386,,,,,,,,,,,,,,,,,,,,,,370.6681,371.7578,l,1,[],[],[],[],[],[],[],0.4017,1,371.758,372.2625,,,,,,478,MAS,CON,150,club,,l,0.4017,,372.2626,372.2627,0.019444444,-0.418518575,0,0,0,,0,165,165,27,1,,,
,,,,,,c2e6fdc7169c95e15a5ba55e,66a626ef09d4e21e1a8894ec,673649bc9d5b5d200dcd77da,2024-11-14_13h35.44.943,Tarea de género gramatical,2024.2.2,Win32,60.24096386,,,,,,,,,,,,,,,,,,,,,,372.2641,373.3902,a,1,[],[],[],[],[],[],[],0.4522,1,373.3903,373.8894,,,,,,891,FEM,AGR,150,medida,la,a,0.4522,,373.8895,373.8896,0.019444444,-0.418518575,0,0,0,,0,166,166,440,1,,,
,,,,,,c2e6fdc7169c95e15a5ba55e,66a626ef09d4e21e1a8894ec,673649bc9d5b5d200dcd77da,2024-11-14_13h35.44.943,Tarea de género gramatical,2024.2.2,Win32,60.24096386,,,,,,,,,,,,,,,,,,,,,,373.8916,375.1553,l,1,[],[],[],[],[],[],[],0.5885,1,375.1555,375.6546,,,,,,455,MAS,DIS,150,tipo,la,l,0.5885,,375.6547,375.6549,0.019444444,-0.418518575,0,0,0,,0,167,167,4,1,,,
,,,,,,c2e6fdc7169c95e15a5ba55e,66a626ef09d4e21e1a8894ec,673649bc9d5b5d200dcd77da,2024-11-14_13h35.44.943,Tarea de género gramatical,2024.2.2,Win32,60.24096386,,,,,,,,,,,,,,,,,,,,,,375.6566,376.8874,a,1,[],[],[],[],[],[],[],0.5445,1,376.8875,377.3753,,,,,,897,FEM,AGR,150,lógica,la,a,0.5445,,377.3772,377.3787,0.019444444,-0.418518575,0,0,0,,0,168,168,446,1,,,
,,,,,,c2e6fdc7169c95e15a5ba55e,66a626ef09d4e21e1a8894ec,673649bc9d5b5d200dcd77da,2024-11-14_13h35.44.943,Tarea de género gramatical,2024.2.2,Win32,60.24096386,,,,,,,,,,,,,,,,,,,,,,377.3796,378.641,a,1,[],[],[],[],[],[],[],0.5837,1,378.6411,379.1407,,,,,,721,FEM,CON,150,viuda,,a,0.5837,,379.1408,379.1409,0.019444444,-0.418518575,0,0,0,,0,169,169,270,1,,,
,,,,,,c2e6fdc7169c95e15a5ba55e,66a626ef09d4e21e1a8894ec,673649bc9d5b5d200dcd77da,2024-11-14_13h35.44.943,Tarea de género gramatical,2024.2.2,Win32,60.24096386,,,,,,,,,,,,,,,,,,,,,,379.1425,380.1844,a,1,[],[],[],[],[],[],[],0.3618,1,380.1844,380.6843,,,,,,747,FEM,AGR,150,manta,la,a,0.3618,,380.6844,380.6846,0.019444444,-0.418518575,0,0,0,,0,170,170,296,1,,,
,,,,,,c2e6fdc7169c95e15a5ba55e,66a626ef09d4e21e1a8894ec,673649bc9d5b5d200dcd77da,2024-11-14_13h35.44.943,Tarea de género gramatical,2024.2.2,Win32,60.24096386,,,,,,,,,,,,,,,,,,,,,,380.6865,381.655,a,0,[],[],[],[],[],[],[],0.311,0,381.6566,382.1494,,,,,,612,MAS,AGR,150,miedo,el,l,0.311,,382.1494,382.1496,0.019444444,-0.418518575,0,0,0,,0,171,171,161,1,,,
,,,,,,c2e6fdc7169c95e15a5ba55e,66a626ef09d4e21e1a8894ec,673649bc9d5b5d200dcd77da,2024-11-14_13h35.44.943,Tarea de género gramatical,2024.2.2,Win32,60.24096386,,,,,,,,,,,,,,,,,,,,,,382.1513,383.2208,a,1,[],[],[],[],[],[],[],0.413,1,383.222,383.7201,,,,,,841,FEM,CON,150,altura,,a,0.413,,383.7202,383.7203,0.019444444,-0.418518575,0,0,0,,0,172,172,390,1,,,
,,,,,,c2e6fdc7169c95e15a5ba55e,66a626ef09d4e21e1a8894ec,673649bc9d5b5d200dcd77da,2024-11-14_13h35.44.943,Tarea de género gramatical,2024.2.2,Win32,60.24096386,,,,,,,,,,,,,,,,,,,,,,383.7218,384.7807,a,1,[],[],[],[],[],[],[],0.3846,1,384.7809,385.2828,,,,,,667,FEM,CON,150,tarea,,a,0.3846,,385.2844,385.2858,0.019444444,-0.418518575,0,0,0,,0,173,173,216,1,,,
,,,,,,c2e6fdc7169c95e15a5ba55e,66a626ef09d4e21e1a8894ec,673649bc9d5b5d200dcd77da,2024-11-14_13h35.44.943,Tarea de género gramatical,2024.2.2,Win32,60.24096386,,,,,,,,,,,,,,,,,,,,,,385.2867,386.3792,a,1,[],[],[],[],[],[],[],0.4096,1,386.3793,386.882,,,,,,549,FEM,AGR,150,fase,la,a,0.4096,,386.8821,386.8823,0.019444444,-0.418518575,0,0,0,,0,174,174,98,1,,,
,,,,,,c2e6fdc7169c95e15a5ba55e,66a626ef09d4e21e1a8894ec,673649bc9d5b5d200dcd77da,2024-11-14_13h35.44.943,Tarea de género gramatical,2024.2.2,Win32,60.24096386,,,,,,,,,,,,,,,,,,,,,,386.8836,388.0502,l,1,[],[],[],[],[],[],[],0.5004,1,388.0504,388.5447,,,,,,689,MAS,DIS,150,reloj,la,l,0.5004,,388.5449,388.5451,0.019444444,-0.418518575,0,0,0,,0,175,175,238,1,,,
,,,,,,c2e6fdc7169c95e15a5ba55e,66a626ef09d4e21e1a8894ec,673649bc9d5b5d200dcd77da,2024-11-14_13h35.44.943,Tarea de género gramatical,2024.2.2,Win32,60.24096386,,,,,,,,,,,,,,,,,,,,,,388.5468,389.8821,a,1,[],[],[],[],[],[],[],0.6786,1,389.8822,390.3809,,,,,,848,FEM,DIS,150,hierba,el,a,0.6786,,390.381,390.3811,0.019444444,-0.418518575,0,0,0,,0,176,176,397,1,,,
,,,,,,c2e6fdc7169c95e15a5ba55e,66a626ef09d4e21e1a8894ec,673649bc9d5b5d200dcd77da,2024-11-14_13h35.44.943,Tarea de género gramatical,2024.2.2,Win32,60.24096386,,,,,,,,,,,,,,,,,,,,,,390.3829,391.6477,a,1,[],[],[],[],[],[],[],0.5839,1,391.6479,392.1417,,,,,,819,FEM,AGR,150,camisa,la,a,0.5839,,392.1439,392.1452,0.019444444,-0.418518575,0,0,0,,0,177,177,368,1,,,
,,,,,,c2e6fdc7169c95e15a5ba55e,66a626ef09d4e21e1a8894ec,673649bc9d5b5d200dcd77da,2024-11-14_13h35.44.943,Tarea de género gramatical,2024.2.2,Win32,60.24096386,,,,,,,,,,,,,,,,,,,,,,392.1461,393.1459,a,1,[],[],[],[],[],[],[],0.3162,1,393.146,393.6454,,,,,,896,FEM,DIS,150,bañera,el,a,0.3162,,393.6455,393.6455,0.019444444,-0.418518575,0,0,0,,0,178,178,445,1,,,
,,,,,,c2e6fdc7169c95e15a5ba55e,66a626ef09d4e21e1a8894ec,673649bc9d5b5d200dcd77da,2024-11-14_13h35.44.943,Tarea de género gramatical,2024.2.2,Win32,60.24096386,,,,,,,,,,,,,,,,,,,,,,393.6471,394.923,l,1,[],[],[],[],[],[],[],0.5902,1,394.9232,395.4226,,,,,,900,MAS,AGR,150,conejo,el,l,0.5902,,395.4226,395.4227,0.019444444,-0.418518575,0,0,0,,0,179,179,449,1,,,
,,,,,,c2e6fdc7169c95e15a5ba55e,66a626ef09d4e21e1a8894ec,673649bc9d5b5d200dcd77da,2024-11-14_13h35.44.943,Tarea de género gramatical,2024.2.2,Win32,60.24096386,,,,,,,,,,,,,,,,,,,,,,395.4245,396.3934,a,1,[],[],[],[],[],[],[],0.2998,1,396.3936,396.8924,,,,,,711,FEM,AGR,150,cueva,la,a,0.2998,,396.8924,396.8926,0.019444444,-0.418518575,0,0,0,,0,180,180,260,1,,,
,,,,,,c2e6fdc7169c95e15a5ba55e,66a626ef09d4e21e1a8894ec,673649bc9d5b5d200dcd77da,2024-11-14_13h35.44.943,Tarea de género gramatical,2024.2.2,Win32,60.24096386,,,,,,,,,,,,,,,,,,,,,,396.8941,398.2416,l,1,[],[],[],[],[],[],[],0.6808,1,398.2417,398.7363,,,,,,526,MAS,CON,150,lujo,,l,0.6808,,398.7365,398.7366,0.019444444,-0.418518575,0,0,0,,0,181,181,75,1,,,
,,,,,,c2e6fdc7169c95e15a5ba55e,66a626ef09d4e21e1a8894ec,673649bc9d5b5d200dcd77da,2024-11-14_13h35.44.943,Tarea de género gramatical,2024.2.2,Win32,60.24096386,,,,,,,,,,,,,,,,,,,,,,398.7385,399.8188,a,1,[],[],[],[],[],[],[],0.4214,1,399.8189,400.3216,,,,,,621,FEM,AGR,150,mitad,la,a,0.4214,,400.3232,400.3248,0.019444444,-0.418518575,0,0,0,,0,182,182,170,1,,,
,,,,,,c2e6fdc7169c95e15a5ba55e,66a626ef09d4e21e1a8894ec,673649bc9d5b5d200dcd77da,2024-11-14_13h35.44.943,Tarea de género gramatical,2024.2.2,Win32,60.24096386,,,,,,,,,,,,,,,,,,,,,,400.3257,401.5393,a,1,[],[],[],[],[],[],[],0.5451,1,401.5394,402.0343,,,,,,835,FEM,CON,150,muñeca,,a,0.5451,,402.0344,402.0347,0.019444444,-0.418518575,0,0,0,,0,183,183,384,1,,,
,,,,,,c2e6fdc7169c95e15a5ba55e,66a626ef09d4e21e1a8894ec,673649bc9d5b5d200dcd77da,2024-11-14_13h35.44.943,Tarea de género gramatical,2024.2.2,Win32,60.24096386,,,,,,,,,,,,,,,,,,,,,,402.0362,403.1494,a,1,[],[],[],[],[],[],[],0.4512,1,403.1496,403.6546,,,,,,531,FEM,AGR,150,cima,la,a,0.4512,,403.6547,403.6548,0.019444444,-0.418518575,0,0,0,,0,184,184,80,1,,,
,,,,,,c2e6fdc7169c95e15a5ba55e,66a626ef09d4e21e1a8894ec,673649bc9d5b5d200dcd77da,2024-11-14_13h35.44.943,Tarea de género gramatical,2024.2.2,Win32,60.24096386,,,,,,,,,,,,,,,,,,,,,,403.6565,405.0204,a,1,[],[],[],[],[],[],[],0.696,1,405.0205,405.5201,,,,,,740,FEM,DIS,150,cabra,el,a,0.696,,405.5202,405.5203,0.019444444,-0.418518575,0,0,0,,0,185,185,289,1,,,
,,,,,,c2e6fdc7169c95e15a5ba55e,66a626ef09d4e21e1a8894ec,673649bc9d5b5d200dcd77da,2024-11-14_13h35.44.943,Tarea de género gramatical,2024.2.2,Win32,60.24096386,,,,,,,,,,,,,,,,,,,,,,405.5219,406.7971,l,1,[],[],[],[],[],[],[],0.599,1,406.7972,407.302,,,,,,575,MAS,DIS,150,bate,la,l,0.599,,407.3037,407.3051,0.019444444,-0.418518575,0,0,0,,0,186,186,124,1,,,
,,,,,,c2e6fdc7169c95e15a5ba55e,66a626ef09d4e21e1a8894ec,673649bc9d5b5d200dcd77da,2024-11-14_13h35.44.943,Tarea de género gramatical,2024.2.2,Win32,60.24096386,,,,,,,,,,,,,,,,,,,,,,407.306,408.4338,a,1,[],[],[],[],[],[],[],0.4499,1,408.434,408.9285,,,,,,795,FEM,AGR,150,pierna,la,a,0.4499,,408.9286,408.9287,0.019444444,-0.418518575,0,0,0,,0,187,187,344,1,,,
,,,,,,c2e6fdc7169c95e15a5ba55e,66a626ef09d4e21e1a8894ec,673649bc9d5b5d200dcd77da,2024-11-14_13h35.44.943,Tarea de género gramatical,2024.2.2,Win32,60.24096386,,,,,,,,,,,,,,,,,,,,,,408.9305,410.127,a,1,[],[],[],[],[],[],[],0.5365,1,410.1272,410.6317,,,,,,752,FEM,DIS,150,cabeza,el,a,0.5365,,410.6319,410.632,0.019444444,-0.418518575,0,0,0,,0,188,188,301,1,,,
,,,,,,c2e6fdc7169c95e15a5ba55e,66a626ef09d4e21e1a8894ec,673649bc9d5b5d200dcd77da,2024-11-14_13h35.44.943,Tarea de género gramatical,2024.2.2,Win32,60.24096386,,,,,,,,,,,,,,,,,,,,,,410.6336,411.848,l,1,[],[],[],[],[],[],[],0.5462,1,411.8483,412.347,,,,,,587,MAS,DIS,150,coco,la,l,0.5462,,412.3471,412.3473,0.019444444,-0.418518575,0,0,0,,0,189,189,136,1,,,
,,,,,,c2e6fdc7169c95e15a5ba55e,66a626ef09d4e21e1a8894ec,673649bc9d5b5d200dcd77da,2024-11-14_13h35.44.943,Tarea de género gramatical,2024.2.2,Win32,60.24096386,,,,,,,,,,,,,,,,,,,,,,412.3496,413.4249,a,1,[],[],[],[],[],[],[],0.3904,1,413.425,413.9131,,,,,,523,FEM,CON,150,roca,,a,0.3904,,413.9132,413.9134,0.019444444,-0.418518575,0,0,0,,0,190,190,72,1,,,
,,,,,,c2e6fdc7169c95e15a5ba55e,66a626ef09d4e21e1a8894ec,673649bc9d5b5d200dcd77da,2024-11-14_13h35.44.943,Tarea de género gramatical,2024.2.2,Win32,60.24096386,,,,,,,,,,,,,,,,,,,,,,413.9149,415.3404,a,0,[],[],[],[],[],[],[],0.754,0,415.3416,415.8399,,,,,,467,MAS,DIS,150,modo,la,l,0.754,,415.842,415.8435,0.019444444,-0.418518575,0,0,0,,0,191,191,16,1,,,
,,,,,,c2e6fdc7169c95e15a5ba55e,66a626ef09d4e21e1a8894ec,673649bc9d5b5d200dcd77da,2024-11-14_13h35.44.943,Tarea de género gramatical,2024.2.2,Win32,60.24096386,,,,,,,,,,,,,,,,,,,,,,415.8447,416.9775,a,1,[],[],[],[],[],[],[],0.45,1,416.9785,417.4767,,,,,,541,FEM,CON,150,hoja,,a,0.45,,417.4768,417.477,0.019444444,-0.418518575,0,0,0,,0,192,192,90,1,,,
,,,,,,c2e6fdc7169c95e15a5ba55e,66a626ef09d4e21e1a8894ec,673649bc9d5b5d200dcd77da,2024-11-14_13h35.44.943,Tarea de género gramatical,2024.2.2,Win32,60.24096386,,,,,,,,,,,,,,,,,,,,,,417.4785,418.9701,a,1,[],[],[],[],[],[],[],0.8277,1,418.9702,419.4591,,,,,,758,FEM,DIS,150,semana,el,a,0.8277,,419.4593,419.4594,0.019444444,-0.418518575,0,0,0,,0,193,193,307,1,,,
,,,,,,c2e6fdc7169c95e15a5ba55e,66a626ef09d4e21e1a8894ec,673649bc9d5b5d200dcd77da,2024-11-14_13h35.44.943,Tarea de género gramatical,2024.2.2,Win32,60.24096386,,,,,,,,,,,,,,,,,,,,,,419.461,420.5575,a,1,[],[],[],[],[],[],[],0.4262,1,420.5576,421.052,,,,,,561,FEM,AGR,150,goma,la,a,0.4262,,421.0521,421.0522,0.019444444,-0.418518575,0,0,0,,0,194,194,110,1,,,
,,,,,,c2e6fdc7169c95e15a5ba55e,66a626ef09d4e21e1a8894ec,673649bc9d5b5d200dcd77da,2024-11-14_13h35.44.943,Tarea de género gramatical,2024.2.2,Win32,60.24096386,,,,,,,,,,,,,,,,,,,,,,421.0546,422.5559,a,1,[],[],[],[],[],[],[],0.8432,1,422.556,423.0552,,,,,,500,FEM,DIS,150,dama,el,a,0.8432,,423.0567,423.0585,0.019444444,-0.418518575,0,0,0,,0,195,195,49,1,,,
,,,,,,c2e6fdc7169c95e15a5ba55e,66a626ef09d4e21e1a8894ec,673649bc9d5b5d200dcd77da,2024-11-14_13h35.44.943,Tarea de género gramatical,2024.2.2,Win32,60.24096386,,,,,,,,,,,,,,,,,,,,,,423.0596,424.4214,a,1,[],[],[],[],[],[],[],0.6837,1,424.4215,424.9186,,,,,,812,FEM,DIS,150,fuente,el,a,0.6837,,424.9187,424.9189,0.019444444,-0.418518575,0,0,0,,0,196,196,361,1,,,
,,,,,,c2e6fdc7169c95e15a5ba55e,66a626ef09d4e21e1a8894ec,673649bc9d5b5d200dcd77da,2024-11-14_13h35.44.943,Tarea de género gramatical,2024.2.2,Win32,60.24096386,,,,,,,,,,,,,,,,,,,,,,424.9207,426.0483,l,1,[],[],[],[],[],[],[],0.4553,1,426.0484,426.5521,,,,,,492,MAS,AGR,150,show,el,l,0.4553,,426.5522,426.5523,0.019444444,-0.418518575,0,0,0,,0,197,197,41,1,,,
,,,,,,c2e6fdc7169c95e15a5ba55e,66a626ef09d4e21e1a8894ec,673649bc9d5b5d200dcd77da,2024-11-14_13h35.44.943,Tarea de género gramatical,2024.2.2,Win32,60.24096386,,,,,,,,,,,,,,,,,,,,,,426.5539,427.7675,l,1,[],[],[],[],[],[],[],0.5448,1,427.7676,428.267,,,,,,774,MAS,AGR,150,cuarto,el,l,0.5448,,428.267,428.2672,0.019444444,-0.418518575,0,0,0,,0,198,198,323,1,,,
,,,,,,c2e6fdc7169c95e15a5ba55e,66a626ef09d4e21e1a8894ec,673649bc9d5b5d200dcd77da,2024-11-14_13h35.44.943,Tarea de género gramatical,2024.2.2,Win32,60.24096386,,,,,,,,,,,,,,,,,,,,,,428.2683,429.2953,l,1,[],[],[],[],[],[],[],0.3587,1,429.2954,429.7991,,,,,,832,MAS,CON,150,teatro,,l,0.3587,,429.7992,429.7994,0.019444444,-0.418518575,0,0,0,,0,199,199,381,1,,,
,,,,,,c2e6fdc7169c95e15a5ba55e,66a626ef09d4e21e1a8894ec,673649bc9d5b5d200dcd77da,2024-11-14_13h35.44.943,Tarea de género gramatical,2024.2.2,Win32,60.24096386,,,,,,,,,,,,,,,,,,,,,,429.8006,430.9439,a,1,[],[],[],[],[],[],[],0.471,1,430.9439,431.4479,,,,,,895,FEM,CON,150,bondad,,a,0.471,,431.4491,431.4505,0.019444444,-0.418518575,0,0,0,,0,200,200,444,1,,,
,,,,,,c2e6fdc7169c95e15a5ba55e,66a626ef09d4e21e1a8894ec,673649bc9d5b5d200dcd77da,2024-11-14_13h35.44.943,Tarea de género gramatical,2024.2.2,Win32,60.24096386,,,,,,,,,,,,,,,,,,,,,,431.4513,432.7313,a,0,[],[],[],[],[],[],[],0.6129,0,432.7327,433.2257,,,,,,636,MAS,AGR,150,error,el,l,0.6129,,433.2258,433.2261,0.019444444,-0.418518575,0,0,0,,0,201,201,185,1,,,
,,,,,,c2e6fdc7169c95e15a5ba55e,66a626ef09d4e21e1a8894ec,673649bc9d5b5d200dcd77da,2024-11-14_13h35.44.943,Tarea de género gramatical,2024.2.2,Win32,60.24096386,,,,,,,,,,,,,,,,,,,,,,433.2277,434.3804,a,1,[],[],[],[],[],[],[],0.4827,1,434.3816,434.879,,,,,,583,FEM,CON,150,joya,,a,0.4827,,434.8791,434.8793,0.019444444,-0.418518575,0,0,0,,0,202,202,132,1,,,
,,,,,,c2e6fdc7169c95e15a5ba55e,66a626ef09d4e21e1a8894ec,673649bc9d5b5d200dcd77da,2024-11-14_13h35.44.943,Tarea de género gramatical,2024.2.2,Win32,60.24096386,,,,,,,,,,,,,,,,,,,,,,434.8809,436.0458,l,1,[],[],[],[],[],[],[],0.4835,1,436.0459,436.5398,,,,,,646,MAS,CON,150,barco,,l,0.4835,,436.5398,436.54,0.019444444,-0.418518575,0,0,0,,0,203,203,195,1,,,
,,,,,,c2e6fdc7169c95e15a5ba55e,66a626ef09d4e21e1a8894ec,673649bc9d5b5d200dcd77da,2024-11-14_13h35.44.943,Tarea de género gramatical,2024.2.2,Win32,60.24096386,,,,,,,,,,,,,,,,,,,,,,436.5426,437.6771,a,1,[],[],[],[],[],[],[],0.4593,1,437.6771,438.1721,,,,,,518,FEM,DIS,150,pata,el,a,0.4593,,438.174,438.1754,0.019444444,-0.418518575,0,0,0,,0,204,204,67,1,,,
,,,,,,c2e6fdc7169c95e15a5ba55e,66a626ef09d4e21e1a8894ec,673649bc9d5b5d200dcd77da,2024-11-14_13h35.44.943,Tarea de género gramatical,2024.2.2,Win32,60.24096386,,,,,,,,,,,,,,,,,,,,,,438.1763,439.4266,a,1,[],[],[],[],[],[],[],0.5663,1,439.4267,439.921,,,,,,476,FEM,DIS,150,pena,el,a,0.5663,,439.921,439.9212,0.019444444,-0.418518575,0,0,0,,0,205,205,25,1,,,
,,,,,,c2e6fdc7169c95e15a5ba55e,66a626ef09d4e21e1a8894ec,673649bc9d5b5d200dcd77da,2024-11-14_13h35.44.943,Tarea de género gramatical,2024.2.2,Win32,60.24096386,,,,,,,,,,,,,,,,,,,,,,439.9228,441.1083,a,1,[],[],[],[],[],[],[],0.5163,1,441.1085,441.6029,,,,,,753,FEM,AGR,150,maldad,la,a,0.5163,,441.603,441.6031,0.019444444,-0.418518575,0,0,0,,0,206,206,302,1,,,
,,,,,,c2e6fdc7169c95e15a5ba55e,66a626ef09d4e21e1a8894ec,673649bc9d5b5d200dcd77da,2024-11-14_13h35.44.943,Tarea de género gramatical,2024.2.2,Win32,60.24096386,,,,,,,,,,,,,,,,,,,,,,441.6052,442.7067,a,1,[],[],[],[],[],[],[],0.4324,1,442.7069,443.2062,,,,,,878,FEM,DIS,150,jugada,el,a,0.4324,,443.2063,443.2063,0.019444444,-0.418518575,0,0,0,,0,207,207,427,1,,,
,,,,,,c2e6fdc7169c95e15a5ba55e,66a626ef09d4e21e1a8894ec,673649bc9d5b5d200dcd77da,2024-11-14_13h35.44.943,Tarea de género gramatical,2024.2.2,Win32,60.24096386,,,,,,,,,,,,,,,,,,,,,,443.2078,444.9884,a,1,[],[],[],[],[],[],[],1.1009,1,444.9885,445.4873,,,,,,620,FEM,DIS,150,carta,el,a,1.1009,,445.4873,445.4875,0.019444444,-0.418518575,0,0,0,,0,208,208,169,1,,,
,,,,,,c2e6fdc7169c95e15a5ba55e,66a626ef09d4e21e1a8894ec,673649bc9d5b5d200dcd77da,2024-11-14_13h35.44.943,Tarea de género gramatical,2024.2.2,Win32,60.24096386,,,,,,,,,,,,,,,,,,,,,,445.489,446.5984,l,1,[],[],[],[],[],[],[],0.4339,1,446.5985,447.0982,,,,,,773,MAS,DIS,150,marido,la,l,0.4339,,447.1,447.1014,0.019444444,-0.418518575,0,0,0,,0,209,209,322,1,,,
,,,,,,c2e6fdc7169c95e15a5ba55e,66a626ef09d4e21e1a8894ec,673649bc9d5b5d200dcd77da,2024-11-14_13h35.44.943,Tarea de género gramatical,2024.2.2,Win32,60.24096386,,,,,,,,,,,,,,,,,,,,,,447.1023,448.1525,l,1,[],[],[],[],[],[],[],0.3771,1,448.1526,448.6467,,,,,,466,MAS,CON,150,baño,,l,0.3771,,448.6468,448.647,0.019444444,-0.418518575,0,0,0,,0,210,210,15,1,,,
,,,,,,c2e6fdc7169c95e15a5ba55e,66a626ef09d4e21e1a8894ec,673649bc9d5b5d200dcd77da,2024-11-14_13h35.44.943,Tarea de género gramatical,2024.2.2,Win32,60.24096386,,,,,,,,,,,,,,,,,,,,,,448.6492,449.6511,a,1,[],[],[],[],[],[],[],0.3162,1,449.6512,450.1498,,,,,,507,FEM,AGR,150,moda,la,a,0.3162,,450.1498,450.15,0.019444444,-0.418518575,0,0,0,,0,211,211,56,1,,,
,,,,,,c2e6fdc7169c95e15a5ba55e,66a626ef09d4e21e1a8894ec,673649bc9d5b5d200dcd77da,2024-11-14_13h35.44.943,Tarea de género gramatical,2024.2.2,Win32,60.24096386,,,,,,,,,,,,,,,,,,,,,,450.1516,451.2833,l,1,[],[],[],[],[],[],[],0.4604,1,451.2834,451.7825,,,,,,701,MAS,DIS,150,dueño,la,l,0.4604,,451.7826,451.7827,0.019444444,-0.418518575,0,0,0,,0,212,212,250,1,,,
,,,,,,c2e6fdc7169c95e15a5ba55e,66a626ef09d4e21e1a8894ec,673649bc9d5b5d200dcd77da,2024-11-14_13h35.44.943,Tarea de género gramatical,2024.2.2,Win32,60.24096386,,,,,,,,,,,,,,,,,,,,,,451.7842,452.8656,l,1,[],[],[],[],[],[],[],0.4124,1,452.8657,453.3603,,,,,,862,MAS,CON,150,espejo,,l,0.4124,,453.3624,453.3642,0.019444444,-0.418518575,0,0,0,,0,213,213,411,1,,,
,,,,,,c2e6fdc7169c95e15a5ba55e,66a626ef09d4e21e1a8894ec,673649bc9d5b5d200dcd77da,2024-11-14_13h35.44.943,Tarea de género gramatical,2024.2.2,Win32,60.24096386,,,,,,,,,,,,,,,,,,,,,,453.365,454.4976,a,1,[],[],[],[],[],[],[],0.4505,1,454.4977,454.9966,,,,,,637,FEM,CON,150,lista,,a,0.4505,,454.9966,454.9968,0.019444444,-0.418518575,0,0,0,,0,214,214,186,1,,,
,,,,,,c2e6fdc7169c95e15a5ba55e,66a626ef09d4e21e1a8894ec,673649bc9d5b5d200dcd77da,2024-11-14_13h35.44.943,Tarea de género gramatical,2024.2.2,Win32,60.24096386,,,,,,,,,,,,,,,,,,,,,,454.9982,456.3296,a,1,[],[],[],[],[],[],[],0.6608,1,456.3297,456.8291,,,,,,603,FEM,AGR,150,mujer,la,a,0.6608,,456.8291,456.8292,0.019444444,-0.418518575,0,0,0,,0,215,215,152,1,,,
,,,,,,c2e6fdc7169c95e15a5ba55e,66a626ef09d4e21e1a8894ec,673649bc9d5b5d200dcd77da,2024-11-14_13h35.44.943,Tarea de género gramatical,2024.2.2,Win32,60.24096386,,,,,,,,,,,,,,,,,,,,,,456.8308,458.2729,l,0,[],[],[],[],[],[],[],0.769,0,458.2745,458.7767,,,,,,830,FEM,DIS,150,madera,el,a,0.769,,458.7768,458.777,0.019444444,-0.418518575,0,0,0,,0,216,216,379,1,,,
,,,,,,c2e6fdc7169c95e15a5ba55e,66a626ef09d4e21e1a8894ec,673649bc9d5b5d200dcd77da,2024-11-14_13h35.44.943,Tarea de género gramatical,2024.2.2,Win32,60.24096386,,,,,,,,,,,,,,,,,,,,,,458.7784,460.2712,a,1,[],[],[],[],[],[],[],0.8166,1,460.2729,460.7753,,,,,,542,FEM,DIS,150,masa,el,a,0.8166,,460.7754,460.7755,0.019444444,-0.418518575,0,0,0,,0,217,217,91,1,,,
,,,,,,c2e6fdc7169c95e15a5ba55e,66a626ef09d4e21e1a8894ec,673649bc9d5b5d200dcd77da,2024-11-14_13h35.44.943,Tarea de género gramatical,2024.2.2,Win32,60.24096386,,,,,,,,,,,,,,,,,,,,,,460.777,461.8921,a,1,[],[],[],[],[],[],[],0.4342,1,461.8921,462.3905,,,,,,715,FEM,CON,150,rueda,,a,0.4342,,462.3921,462.3936,0.019444444,-0.418518575,0,0,0,,0,218,218,264,1,,,
,,,,,,c2e6fdc7169c95e15a5ba55e,66a626ef09d4e21e1a8894ec,673649bc9d5b5d200dcd77da,2024-11-14_13h35.44.943,Tarea de género gramatical,2024.2.2,Win32,60.24096386,,,,,,,,,,,,,,,,,,,,,,462.3945,463.7186,a,1,[],[],[],[],[],[],[],0.6414,1,463.7188,464.2178,,,,,,697,FEM,CON,150,frase,,a,0.6414,,464.2179,464.2181,0.019444444,-0.418518575,0,0,0,,0,219,219,246,1,,,
,,,,,,c2e6fdc7169c95e15a5ba55e,66a626ef09d4e21e1a8894ec,673649bc9d5b5d200dcd77da,2024-11-14_13h35.44.943,Tarea de género gramatical,2024.2.2,Win32,60.24096386,,,,,,,,,,,,,,,,,,,,,,464.2199,465.3888,l,1,[],[],[],[],[],[],[],0.5008,1,465.3889,465.8832,,,,,,514,MAS,CON,150,saco,,l,0.5008,,465.8834,465.8836,0.019444444,-0.418518575,0,0,0,,0,220,220,63,1,,,
,,,,,,c2e6fdc7169c95e15a5ba55e,66a626ef09d4e21e1a8894ec,673649bc9d5b5d200dcd77da,2024-11-14_13h35.44.943,Tarea de género gramatical,2024.2.2,Win32,60.24096386,,,,,,,,,,,,,,,,,,,,,,465.8853,467.054,a,1,[],[],[],[],[],[],[],0.4991,1,467.0541,467.5485,,,,,,698,FEM,DIS,150,letra,el,a,0.4991,,467.5486,467.5487,0.019444444,-0.418518575,0,0,0,,0,221,221,247,1,,,
,,,,,,c2e6fdc7169c95e15a5ba55e,66a626ef09d4e21e1a8894ec,673649bc9d5b5d200dcd77da,2024-11-14_13h35.44.943,Tarea de género gramatical,2024.2.2,Win32,60.24096386,,,,,,,,,,,,,,,,,,,,,,467.5507,468.7807,l,1,[],[],[],[],[],[],[],0.5512,1,468.7809,469.2858,,,,,,712,MAS,CON,150,video,,l,0.5512,,469.2873,469.2888,0.019444444,-0.418518575,0,0,0,,0,222,222,261,1,,,
,,,,,,c2e6fdc7169c95e15a5ba55e,66a626ef09d4e21e1a8894ec,673649bc9d5b5d200dcd77da,2024-11-14_13h35.44.943,Tarea de género gramatical,2024.2.2,Win32,60.24096386,,,,,,,,,,,,,,,,,,,,,,469.2897,470.4854,l,1,[],[],[],[],[],[],[],0.517,1,470.4856,470.9843,,,,,,754,MAS,CON,150,tiempo,,l,0.517,,470.9844,470.9845,0.019444444,-0.418518575,0,0,0,,0,223,223,303,1,,,
,,,,,,c2e6fdc7169c95e15a5ba55e,66a626ef09d4e21e1a8894ec,673649bc9d5b5d200dcd77da,2024-11-14_13h35.44.943,Tarea de género gramatical,2024.2.2,Win32,60.24096386,,,,,,,,,,,,,,,,,,,,,,470.9859,472.0997,a,1,[],[],[],[],[],[],[],0.4334,1,472.0999,472.5945,,,,,,560,FEM,DIS,150,rosa,el,a,0.4334,,472.5946,472.5947,0.019444444,-0.418518575,0,0,0,,0,224,224,109,1,,,
,,,,,,c2e6fdc7169c95e15a5ba55e,66a626ef09d4e21e1a8894ec,673649bc9d5b5d200dcd77da,2024-11-14_13h35.44.943,Tarea de género gramatical,2024.2.2,Win32,60.24096386,,,,,,,,,,,,,,,,,,,,,,472.5965,473.9663,a,1,[],[],[],[],[],[],[],0.7121,1,473.9665,474.4596,,,,,,633,FEM,AGR,150,llave,la,a,0.7121,,474.4597,474.4599,0.019444444,-0.418518575,0,0,0,,0,225,225,182,1,,,
,,,,,,c2e6fdc7169c95e15a5ba55e,66a626ef09d4e21e1a8894ec,673649bc9d5b5d200dcd77da,2024-11-14_13h35.44.943,Tarea de género gramatical,2024.2.2,Win32,60.24096386,,,,,,,,,,,,,,,,,,,,,,474.4619,475.5805,l,1,[],[],[],[],[],[],[],0.45,1,475.5807,476.0804,,,,,,850,MAS,CON,150,barrio,,l,0.45,,476.0805,476.0806,0.019444444,-0.418518575,0,0,0,,0,226,226,399,1,,,
,,,,,,c2e6fdc7169c95e15a5ba55e,66a626ef09d4e21e1a8894ec,673649bc9d5b5d200dcd77da,2024-11-14_13h35.44.943,Tarea de género gramatical,2024.2.2,Win32,60.24096386,,,,,,,,,,,,,,,,,,,,,,476.0822,477.2744,l,1,[],[],[],[],[],[],[],0.519,1,477.2746,477.7623,,,,,,552,MAS,AGR,150,coro,el,l,0.519,,477.7639,477.7653,0.019444444,-0.418518575,0,0,0,,0,227,227,101,1,,,
,,,,,,c2e6fdc7169c95e15a5ba55e,66a626ef09d4e21e1a8894ec,673649bc9d5b5d200dcd77da,2024-11-14_13h35.44.943,Tarea de género gramatical,2024.2.2,Win32,60.24096386,,,,,,,,,,,,,,,,,,,,,,477.7663,479.128,l,1,[],[],[],[],[],[],[],0.6836,1,479.1282,479.6228,,,,,,827,MAS,DIS,150,jardín,la,l,0.6836,,479.623,479.6231,0.019444444,-0.418518575,0,0,0,,0,228,228,376,1,,,
,,,,,,c2e6fdc7169c95e15a5ba55e,66a626ef09d4e21e1a8894ec,673649bc9d5b5d200dcd77da,2024-11-14_13h35.44.943,Tarea de género gramatical,2024.2.2,Win32,60.24096386,,,,,,,,,,,,,,,,,,,,,,479.6248,480.7764,l,1,[],[],[],[],[],[],[],0.4771,1,480.7765,481.2755,,,,,,642,MAS,AGR,150,grupo,el,l,0.4771,,481.2757,481.2758,0.019444444,-0.418518575,0,0,0,,0,229,229,191,1,,,
,,,,,,c2e6fdc7169c95e15a5ba55e,66a626ef09d4e21e1a8894ec,673649bc9d5b5d200dcd77da,2024-11-14_13h35.44.943,Tarea de género gramatical,2024.2.2,Win32,60.24096386,,,,,,,,,,,,,,,,,,,,,,481.2773,482.3088,a,1,[],[],[],[],[],[],[],0.3608,1,482.309,482.8037,,,,,,709,FEM,CON,150,prima,,a,0.3608,,482.8038,482.804,0.019444444,-0.418518575,0,0,0,,0,230,230,258,1,,,
,,,,,,c2e6fdc7169c95e15a5ba55e,66a626ef09d4e21e1a8894ec,673649bc9d5b5d200dcd77da,2024-11-14_13h35.44.943,Tarea de género gramatical,2024.2.2,Win32,60.24096386,,,,,,,,,,,,,,,,,,,,,,482.8058,484.2904,l,1,[],[],[],[],[],[],[],0.8104,1,484.2905,484.7896,,,,,,749,MAS,DIS,150,rumbo,la,l,0.8104,,484.7912,484.7926,0.019444444,-0.418518575,0,0,0,,0,231,231,298,1,,,
,,,,,,c2e6fdc7169c95e15a5ba55e,66a626ef09d4e21e1a8894ec,673649bc9d5b5d200dcd77da,2024-11-14_13h35.44.943,Tarea de género gramatical,2024.2.2,Win32,60.24096386,,,,,,,,,,,,,,,,,,,,,,484.7935,485.9726,l,1,[],[],[],[],[],[],[],0.5119,1,485.9727,486.4715,,,,,,731,MAS,DIS,150,actor,la,l,0.5119,,486.4716,486.4717,0.019444444,-0.418518575,0,0,0,,0,232,232,280,1,,,
,,,,,,c2e6fdc7169c95e15a5ba55e,66a626ef09d4e21e1a8894ec,673649bc9d5b5d200dcd77da,2024-11-14_13h35.44.943,Tarea de género gramatical,2024.2.2,Win32,60.24096386,,,,,,,,,,,,,,,,,,,,,,486.4732,487.7047,a,1,[],[],[],[],[],[],[],0.5621,1,487.7048,488.1989,,,,,,855,FEM,AGR,150,parada,la,a,0.5621,,488.1989,488.1991,0.019444444,-0.418518575,0,0,0,,0,233,233,404,1,,,
,,,,,,c2e6fdc7169c95e15a5ba55e,66a626ef09d4e21e1a8894ec,673649bc9d5b5d200dcd77da,2024-11-14_13h35.44.943,Tarea de género gramatical,2024.2.2,Win32,60.24096386,,,,,,,,,,,,,,,,,,,,,,488.2009,489.4312,l,1,[],[],[],[],[],[],[],0.5571,1,489.4313,489.9356,,,,,,659,MAS,DIS,150,banco,la,l,0.5571,,489.9358,489.9359,0.019444444,-0.418518575,0,0,0,,0,234,234,208,1,,,
,,,,,,c2e6fdc7169c95e15a5ba55e,66a626ef09d4e21e1a8894ec,673649bc9d5b5d200dcd77da,2024-11-14_13h35.44.943,Tarea de género gramatical,2024.2.2,Win32,60.24096386,,,,,,,,,,,,,,,,,,,,,,489.9377,491.0026,l,1,[],[],[],[],[],[],[],0.3849,1,491.0028,491.4966,,,,,,546,MAS,AGR,150,pato,el,l,0.3849,,491.4967,491.4969,0.019444444,-0.418518575,0,0,0,,0,235,235,95,1,,,
,,,,,,c2e6fdc7169c95e15a5ba55e,66a626ef09d4e21e1a8894ec,673649bc9d5b5d200dcd77da,2024-11-14_13h35.44.943,Tarea de género gramatical,2024.2.2,Win32,60.24096386,,,,,,,,,,,,,,,,,,,,,,491.4988,492.6005,l,1,[],[],[],[],[],[],[],0.4344,1,492.6006,493.0948,,,,,,509,MAS,DIS,150,lobo,la,l,0.4344,,493.0963,493.0979,0.019444444,-0.418518575,0,0,0,,0,236,236,58,1,,,
,,,,,,c2e6fdc7169c95e15a5ba55e,66a626ef09d4e21e1a8894ec,673649bc9d5b5d200dcd77da,2024-11-14_13h35.44.943,Tarea de género gramatical,2024.2.2,Win32,60.24096386,,,,,,,,,,,,,,,,,,,,,,493.099,494.278,a,1,[],[],[],[],[],[],[],0.5028,1,494.2781,494.777,,,,,,859,FEM,CON,150,moneda,,a,0.5028,,494.777,494.7773,0.019444444,-0.418518575,0,0,0,,0,237,237,408,1,,,
,,,,,,c2e6fdc7169c95e15a5ba55e,66a626ef09d4e21e1a8894ec,673649bc9d5b5d200dcd77da,2024-11-14_13h35.44.943,Tarea de género gramatical,2024.2.2,Win32,60.24096386,,,,,,,,,,,,,,,,,,,,,,494.7792,495.8314,l,1,[],[],[],[],[],[],[],0.3936,1,495.8315,496.3306,,,,,,564,MAS,AGR,150,menú,el,l,0.3936,,496.3306,496.3307,0.019444444,-0.418518575,0,0,0,,0,238,238,113,1,,,
,,,,,,c2e6fdc7169c95e15a5ba55e,66a626ef09d4e21e1a8894ec,673649bc9d5b5d200dcd77da,2024-11-14_13h35.44.943,Tarea de género gramatical,2024.2.2,Win32,60.24096386,,,,,,,,,,,,,,,,,,,,,,496.3323,497.4133,l,1,[],[],[],[],[],[],[],0.416,1,497.4134,497.9077,,,,,,858,MAS,AGR,150,cheque,el,l,0.416,,497.9078,497.908,0.019444444,-0.418518575,0,0,0,,0,239,239,407,1,,,
,,,,,,c2e6fdc7169c95e15a5ba55e,66a626ef09d4e21e1a8894ec,673649bc9d5b5d200dcd77da,2024-11-14_13h35.44.943,Tarea de género gramatical,2024.2.2,Win32,60.24096386,,,,,,,,,,,,,,,,,,,,,,497.9099,499.0455,l,1,[],[],[],[],[],[],[],0.4665,1,499.0457,499.5443,,,,,,624,MAS,AGR,150,perro,el,l,0.4665,,499.5457,499.5473,0.019444444,-0.418518575,0,0,0,,0,240,240,173,1,,,
,,,,,,c2e6fdc7169c95e15a5ba55e,66a626ef09d4e21e1a8894ec,673649bc9d5b5d200dcd77da,2024-11-14_13h35.44.943,Tarea de género gramatical,2024.2.2,Win32,60.24096386,,,,,,,,,,,,,,,,,,,,,,499.5484,500.6391,a,1,[],[],[],[],[],[],[],0.4164,1,500.6393,501.1272,,,,,,511,FEM,CON,150,ruta,,a,0.4164,,501.1272,501.1273,0.019444444,-0.418518575,0,0,0,,0,241,241,60,1,,,
,,,,,,c2e6fdc7169c95e15a5ba55e,66a626ef09d4e21e1a8894ec,673649bc9d5b5d200dcd77da,2024-11-14_13h35.44.943,Tarea de género gramatical,2024.2.2,Win32,60.24096386,,,,,,,,,,,,,,,,,,,,,,501.1288,502.2763,l,1,[],[],[],[],[],[],[],0.4671,1,502.2764,502.7756,,,,,,899,MAS,DIS,150,payaso,la,l,0.4671,,502.7756,502.7757,0.019444444,-0.418518575,0,0,0,,0,242,242,448,1,,,
,,,,,,c2e6fdc7169c95e15a5ba55e,66a626ef09d4e21e1a8894ec,673649bc9d5b5d200dcd77da,2024-11-14_13h35.44.943,Tarea de género gramatical,2024.2.2,Win32,60.24096386,,,,,,,,,,,,,,,,,,,,,,502.7772,504.4031,l,1,[],[],[],[],[],[],[],0.9416,1,504.4032,504.9077,,,,,,725,MAS,DIS,150,disco,la,l,0.9416,,504.9077,504.9079,0.019444444,-0.418518575,0,0,0,,0,243,243,274,1,,,
,,,,,,c2e6fdc7169c95e15a5ba55e,66a626ef09d4e21e1a8894ec,673649bc9d5b5d200dcd77da,2024-11-14_13h35.44.943,Tarea de género gramatical,2024.2.2,Win32,60.24096386,,,,,,,,,,,,,,,,,,,,,,504.9094,505.9396,l,1,[],[],[],[],[],[],[],0.3598,1,505.9398,506.4397,,,,,,760,MAS,CON,150,nombre,,l,0.3598,,506.4398,506.4399,0.019444444,-0.418518575,0,0,0,,0,244,244,309,1,,,
,,,,,,c2e6fdc7169c95e15a5ba55e,66a626ef09d4e21e1a8894ec,673649bc9d5b5d200dcd77da,2024-11-14_13h35.44.943,Tarea de género gramatical,2024.2.2,Win32,60.24096386,,,,,,,,,,,,,,,,,,,,,,506.4415,507.4887,l,1,[],[],[],[],[],[],[],0.3787,1,507.4888,507.9833,,,,,,671,MAS,DIS,150,brazo,la,l,0.3787,,507.9848,507.9863,0.019444444,-0.418518575,0,0,0,,0,245,245,220,1,,,
,,,,,,c2e6fdc7169c95e15a5ba55e,66a626ef09d4e21e1a8894ec,673649bc9d5b5d200dcd77da,2024-11-14_13h35.44.943,Tarea de género gramatical,2024.2.2,Win32,60.24096386,,,,,,,,,,,,,,,,,,,,,,507.9872,509.0871,a,1,[],[],[],[],[],[],[],0.4328,1,509.0872,509.5871,,,,,,589,FEM,CON,150,pipa,,a,0.4328,,509.5873,509.5874,0.019444444,-0.418518575,0,0,0,,0,246,246,138,1,,,
,,,,,,c2e6fdc7169c95e15a5ba55e,66a626ef09d4e21e1a8894ec,673649bc9d5b5d200dcd77da,2024-11-14_13h35.44.943,Tarea de género gramatical,2024.2.2,Win32,60.24096386,,,,,,,,,,,,,,,,,,,,,,509.5889,510.948,a,1,[],[],[],[],[],[],[],0.6738,1,510.9482,511.4476,,,,,,625,FEM,CON,150,señal,,a,0.6738,,511.4478,511.448,0.019444444,-0.418518575,0,0,0,,0,247,247,174,1,,,
,,,,,,c2e6fdc7169c95e15a5ba55e,66a626ef09d4e21e1a8894ec,673649bc9d5b5d200dcd77da,2024-11-14_13h35.44.943,Tarea de género gramatical,2024.2.2,Win32,60.24096386,,,,,,,,,,,,,,,,,,,,,,511.45,512.5183,a,1,[],[],[],[],[],[],[],0.4102,1,512.5184,513.0125,,,,,,639,FEM,AGR,150,pista,la,a,0.4102,,513.0126,513.0128,0.019444444,-0.418518575,0,0,0,,0,248,248,188,1,,,
,,,,,,c2e6fdc7169c95e15a5ba55e,66a626ef09d4e21e1a8894ec,673649bc9d5b5d200dcd77da,2024-11-14_13h35.44.943,Tarea de género gramatical,2024.2.2,Win32,60.24096386,,,,,,,,,,,,,,,,,,,,,,513.0147,514.1337,l,1,[],[],[],[],[],[],[],0.4338,1,514.1338,514.6336,,,,,,640,MAS,CON,150,campo,,l,0.4338,,514.6352,514.6366,0.019444444,-0.418518575,0,0,0,,0,249,249,189,1,,,
,,,,,,c2e6fdc7169c95e15a5ba55e,66a626ef09d4e21e1a8894ec,673649bc9d5b5d200dcd77da,2024-11-14_13h35.44.943,Tarea de género gramatical,2024.2.2,Win32,60.24096386,,,,,,,,,,,,,,,,,,,,,,514.6378,515.8491,a,1,[],[],[],[],[],[],[],0.5455,1,515.8493,516.3478,,,,,,645,FEM,AGR,150,pared,la,a,0.5455,,516.3479,516.348,0.019444444,-0.418518575,0,0,0,,0,250,250,194,1,,,
,,,,,,c2e6fdc7169c95e15a5ba55e,66a626ef09d4e21e1a8894ec,673649bc9d5b5d200dcd77da,2024-11-14_13h35.44.943,Tarea de género gramatical,2024.2.2,Win32,60.24096386,,,,,,,,,,,,,,,,,,,,,,516.3496,517.6594,l,1,[],[],[],[],[],[],[],0.6376,1,517.6595,518.1586,,,,,,880,MAS,CON,150,título,,l,0.6376,,518.1588,518.1589,0.019444444,-0.418518575,0,0,0,,0,251,251,429,1,,,
,,,,,,c2e6fdc7169c95e15a5ba55e,66a626ef09d4e21e1a8894ec,673649bc9d5b5d200dcd77da,2024-11-14_13h35.44.943,Tarea de género gramatical,2024.2.2,Win32,60.24096386,,,,,,,,,,,,,,,,,,,,,,518.1603,519.1796,l,1,[],[],[],[],[],[],[],0.3504,1,519.1797,519.6797,,,,,,766,MAS,CON,150,cuerpo,,l,0.3504,,519.6798,519.6801,0.019444444,-0.418518575,0,0,0,,0,252,252,315,1,,,
,,,,,,c2e6fdc7169c95e15a5ba55e,66a626ef09d4e21e1a8894ec,673649bc9d5b5d200dcd77da,2024-11-14_13h35.44.943,Tarea de género gramatical,2024.2.2,Win32,60.24096386,,,,,,,,,,,,,,,,,,,,,,519.6816,520.712,l,1,[],[],[],[],[],[],[],0.3502,1,520.7121,521.206,,,,,,700,MAS,CON,150,cerdo,,l,0.3502,,521.2062,521.2062,0.019444444,-0.418518575,0,0,0,,0,253,253,249,1,,,
