counterbalancing_condition,consent_prescreening.block_1/declare_consent,consent_prescreening.block_1/age_years,consent_prescreening.block_1/gender,consent_prescreening.block_1/language_disorder,consent_prescreening.block_1/first_language,PROLIFIC_PID,STUDY_ID,SESSION_ID,date,expName,psychopyVersion,OS,frameRate,check_prescreening_answers.started,check_prescreening_answers.stopped,Instructions.started,Instructions.stopped,instr_done_keyboard.keys,instr_done_touch.x,instr_done_touch.y,instr_done_touch.leftButton,instr_done_touch.midButton,instr_done_touch.rightButton,instr_done_touch.clicked_name,instruction_pages.thisRepN,instruction_pages.thisTrialN,instruction_pages.thisN,instruction_pages.thisIndex,instruction_pages.ran,pageN,phase,instruct_text,has_image,instruct_image,instr_done_keyboard.rt,instr_done_keyboard.duration,presentTrial.started,presentTrial.stopped,response.keys,response.corr,touch_resp.x,touch_resp.y,touch_resp.leftButton,touch_resp.midButton,touch_resp.rightButton,touch_resp.time,touch_resp.clicked_name,rt,corr,feedback.started,feedback.stopped,practice_trials.thisRepN,practice_trials.thisTrialN,practice_trials.thisN,practice_trials.thisIndex,practice_trials.ran,TrialID,StimulusType,Condition,PrimeDuration,Prime,Flanker,corrAns,response.rt,response.duration,Break.started,Break.stopped,break_done_touch.x,break_done_touch.y,break_done_touch.leftButton,break_done_touch.midButton,break_done_touch.rightButton,break_done_keyboard.keys,experiment_trials.thisRepN,experiment_trials.thisTrialN,experiment_trials.thisN,experiment_trials.thisIndex,experiment_trials.ran,break_done_keyboard.rt,break_done_keyboard.duration,End.started,End.stopped
1,"[""over_18"",""comfortable"",""read_info"",""consent_given""]",28,M,"[""none""]","[""spanish""]",ca35daa7c8f8563a75780379,66a626ef09d4e21e1a8894ec,6734d6a0347160dbb94b8b7f,2024-11-13_13h41.18.254,Tarea de género gramatical,2024.2.2,Win32,144.092219,,,,,,,,,,,,,,,,,,,,,,,,,,,,,,,,,,,,,,,,,,,,,,,,,,,,,,,,,,,,,,,,,,,,,
,,,,,,ca35daa7c8f8563a75780379,66a626ef09d4e21e1a8894ec,6734d6a0347160dbb94b8b7f,2024-11-13_13h41.18.254,Tarea de género gramatical,2024.2.2,Win32,144.092219,18.417,18.418,,,,,,,,,,,,,,,,,,,,,,,,,,,,,,,,,,,,,,,,,,,,,,,,,,,,,,,,,,,,,,,,,,,
,,,,,,ca35daa7c8f8563a75780379,66a626ef09d4e21e1a8894ec,6734d6a0347160dbb94b8b7f,2024-11-13_13h41.18.254,Tarea de género gramatical,2024.2.2,Win32,144.092219,,,18.432,30.685,,0.05,-0.401851852,1,0,0,instr_done_button,0,0,0,0,1,1,instructions,"INSTRUCCIONES
Va a realizar una prueba de selección gramatical. Desde el comienzo de la prueba mire siempre al centro de la pantalla. Al cabo de un momento, aparecerán palabras. La tarea consiste en determinar si la palabra del centro (siempre será un sustantivo), pertenece al género masculino o femenino.

Pulse la tecla ESPACIO o toque el botón de abajo para continuar.",0,keyboardresponseFM.png,,,,,,,,,,,,,,,,,,,,,,,,,,,,,,,,,,,,,,,,,,,,,,,,
,,,,,,ca35daa7c8f8563a75780379,66a626ef09d4e21e1a8894ec,6734d6a0347160dbb94b8b7f,2024-11-13_13h41.18.254,Tarea de género gramatical,2024.2.2,Win32,144.092219,,,30.689,46.088,,0.114814815,-0.388888889,1,0,0,instr_done_button,0,1,1,1,1,2,instructions,"Si su dispositivo tiene teclado, pulse la tecla ""A"" para las palabras en femenino (por ejemplo: ""mano"") y la tecla ""L"" para las palabras en masculino(por ejemplo: ""arroz"").
Pulse la tecla ESPACIO o toque el botón de abajo para continuar.",1,keyboardresponseFM.png,,,,,,,,,,,,,,,,,,,,,,,,,,,,,,,,,,,,,,,,,,,,,,,,
,,,,,,ca35daa7c8f8563a75780379,66a626ef09d4e21e1a8894ec,6734d6a0347160dbb94b8b7f,2024-11-13_13h41.18.254,Tarea de género gramatical,2024.2.2,Win32,144.092219,,,46.09,60.618,space,0.114814815,-0.388888889,0,0,0,,0,2,2,2,1,3,instructions,"Si utiliza un dispositivo sólo táctil, colóquelo en horizontal y utilice los botones de la pantalla. No utilice el ratón.
Pulse la tecla ESPACIO o toque el botón de abajo para continuar.",2,touchresponseFM.png,14.474,,,,,,,,,,,,,,,,,,,,,,,,,,,,,,,,,,,,,,,,,,,,,,,
,,,,,,ca35daa7c8f8563a75780379,66a626ef09d4e21e1a8894ec,6734d6a0347160dbb94b8b7f,2024-11-13_13h41.18.254,Tarea de género gramatical,2024.2.2,Win32,144.092219,,,60.62,78.823,space,0.157407407,0.011111111,0,0,0,,0,3,3,3,1,4,instructions,"Es muy importante que responda con la mayor rapidez y precisión posibles, ya que cada cadena de letras sólo estará en pantalla durante un instante. Si no responde en ese tiempo, aparecerá el mensaje ""Muy lento"" y el experimento pasará a la siguiente palabra. Los primeros 15 intentos serán de práctica y habrá dos descansos durante la prueba.
Pulse la tecla ESPACIO o toque el botón de abajo para iniciar la parte de práctica.",0,keyboardresponseFM.png,18.187,,,,,,,,,,,,,,,,,,,,,,,,,,,,,,,,,,,,,,,,,,,,,,,
,,,,,,ca35daa7c8f8563a75780379,66a626ef09d4e21e1a8894ec,6734d6a0347160dbb94b8b7f,2024-11-13_13h41.18.254,Tarea de género gramatical,2024.2.2,Win32,144.092219,,,,,,,,,,,,,,,,,,,,,,,,78.843,81.489,,0,[],[],[],[],[],[],[],,-1,81.489,81.988,0,0,0,7,1,2008,FEM,CON,150,siesta,,a,,,,,,,,,,,,,,,,,,,
,,,,,,ca35daa7c8f8563a75780379,66a626ef09d4e21e1a8894ec,6734d6a0347160dbb94b8b7f,2024-11-13_13h41.18.254,Tarea de género gramatical,2024.2.2,Win32,144.092219,,,,,,,,,,,,,,,,,,,,,,,,81.99,83.614,a,1,[],[],[],[],[],[],[],0.969,1,83.618,84.115,0,1,1,3,1,2004,FEM,AGR,150,venta,la,a,0.969,,,,,,,,,,,,,,,,,,
,,,,,,ca35daa7c8f8563a75780379,66a626ef09d4e21e1a8894ec,6734d6a0347160dbb94b8b7f,2024-11-13_13h41.18.254,Tarea de género gramatical,2024.2.2,Win32,144.092219,,,,,,,,,,,,,,,,,,,,,,,,84.116,85.308,a,1,[],[],[],[],[],[],[],0.535,1,85.309,85.809,0,2,2,1,1,2002,FEM,CON,150,pala,,a,0.535,,,,,,,,,,,,,,,,,,
,,,,,,ca35daa7c8f8563a75780379,66a626ef09d4e21e1a8894ec,6734d6a0347160dbb94b8b7f,2024-11-13_13h41.18.254,Tarea de género gramatical,2024.2.2,Win32,144.092219,,,,,,,,,,,,,,,,,,,,,,,,85.81,86.878,a,1,[],[],[],[],[],[],[],0.409,1,86.879,87.379,0,3,3,0,1,2001,FEM,AGR,150,nuca,la,a,0.409,,,,,,,,,,,,,,,,,,
,,,,,,ca35daa7c8f8563a75780379,66a626ef09d4e21e1a8894ec,6734d6a0347160dbb94b8b7f,2024-11-13_13h41.18.254,Tarea de género gramatical,2024.2.2,Win32,144.092219,,,,,,,,,,,,,,,,,,,,,,,,87.38,88.441,a,0,[],[],[],[],[],[],[],0.405,0,88.443,88.942,0,4,4,14,1,2015,MAS,DIS,150,robot,la,l,0.405,,,,,,,,,,,,,,,,,,
,,,,,,ca35daa7c8f8563a75780379,66a626ef09d4e21e1a8894ec,6734d6a0347160dbb94b8b7f,2024-11-13_13h41.18.254,Tarea de género gramatical,2024.2.2,Win32,144.092219,,,,,,,,,,,,,,,,,,,,,,,,88.943,90.455,a,1,[],[],[],[],[],[],[],0.858,1,90.457,90.955,0,5,5,5,1,2006,FEM,DIS,150,serie,el,a,0.858,,,,,,,,,,,,,,,,,,
,,,,,,ca35daa7c8f8563a75780379,66a626ef09d4e21e1a8894ec,6734d6a0347160dbb94b8b7f,2024-11-13_13h41.18.254,Tarea de género gramatical,2024.2.2,Win32,144.092219,,,,,,,,,,,,,,,,,,,,,,,,90.957,92.219,l,1,[],[],[],[],[],[],[],0.606,1,92.22,92.72,0,6,6,12,1,2013,MAS,AGR,150,acero,el,l,0.606,,,,,,,,,,,,,,,,,,
,,,,,,ca35daa7c8f8563a75780379,66a626ef09d4e21e1a8894ec,6734d6a0347160dbb94b8b7f,2024-11-13_13h41.18.254,Tarea de género gramatical,2024.2.2,Win32,144.092219,,,,,,,,,,,,,,,,,,,,,,,,92.721,93.962,l,1,[],[],[],[],[],[],[],0.586,1,93.962,94.463,0,7,7,13,1,2014,MAS,CON,150,siglo,,l,0.586,,,,,,,,,,,,,,,,,,
,,,,,,ca35daa7c8f8563a75780379,66a626ef09d4e21e1a8894ec,6734d6a0347160dbb94b8b7f,2024-11-13_13h41.18.254,Tarea de género gramatical,2024.2.2,Win32,144.092219,,,,,,,,,,,,,,,,,,,,,,,,94.464,95.769,l,1,[],[],[],[],[],[],[],0.646,1,95.771,96.268,0,8,8,11,1,2012,MAS,DIS,150,clima,la,l,0.646,,,,,,,,,,,,,,,,,,
,,,,,,ca35daa7c8f8563a75780379,66a626ef09d4e21e1a8894ec,6734d6a0347160dbb94b8b7f,2024-11-13_13h41.18.254,Tarea de género gramatical,2024.2.2,Win32,144.092219,,,,,,,,,,,,,,,,,,,,,,,,96.272,97.532,a,1,[],[],[],[],[],[],[],0.601,1,97.532,98.032,0,9,9,6,1,2007,FEM,AGR,150,navaja,la,a,0.601,,,,,,,,,,,,,,,,,,
,,,,,,ca35daa7c8f8563a75780379,66a626ef09d4e21e1a8894ec,6734d6a0347160dbb94b8b7f,2024-11-13_13h41.18.254,Tarea de género gramatical,2024.2.2,Win32,144.092219,,,,,,,,,,,,,,,,,,,,,,,,98.034,99.193,a,1,[],[],[],[],[],[],[],0.501,1,99.193,99.693,0,10,10,2,1,2003,FEM,DIS,150,daga,el,a,0.501,,,,,,,,,,,,,,,,,,
,,,,,,ca35daa7c8f8563a75780379,66a626ef09d4e21e1a8894ec,6734d6a0347160dbb94b8b7f,2024-11-13_13h41.18.254,Tarea de género gramatical,2024.2.2,Win32,144.092219,,,,,,,,,,,,,,,,,,,,,,,,99.695,100.853,l,1,[],[],[],[],[],[],[],0.501,1,100.853,101.352,0,11,11,9,1,2010,MAS,AGR,150,vecino,el,l,0.501,,,,,,,,,,,,,,,,,,
,,,,,,ca35daa7c8f8563a75780379,66a626ef09d4e21e1a8894ec,6734d6a0347160dbb94b8b7f,2024-11-13_13h41.18.254,Tarea de género gramatical,2024.2.2,Win32,144.092219,,,,,,,,,,,,,,,,,,,,,,,,101.354,102.526,a,1,[],[],[],[],[],[],[],0.514,1,102.526,103.026,0,12,12,4,1,2005,FEM,CON,150,placa,,a,0.514,,,,,,,,,,,,,,,,,,
,,,,,,ca35daa7c8f8563a75780379,66a626ef09d4e21e1a8894ec,6734d6a0347160dbb94b8b7f,2024-11-13_13h41.18.254,Tarea de género gramatical,2024.2.2,Win32,144.092219,,,,,,,,,,,,,,,,,,,,,,,,103.028,104.263,l,1,[],[],[],[],[],[],[],0.578,1,104.263,104.763,0,13,13,8,1,2009,MAS,DIS,150,puerto,la,l,0.578,,,,,,,,,,,,,,,,,,
,,,,,,ca35daa7c8f8563a75780379,66a626ef09d4e21e1a8894ec,6734d6a0347160dbb94b8b7f,2024-11-13_13h41.18.254,Tarea de género gramatical,2024.2.2,Win32,144.092219,,,,,,,,,,,,,,,,,,,,,,,,104.764,106.068,l,1,[],[],[],[],[],[],[],0.647,1,106.068,106.568,0,14,14,10,1,2011,MAS,CON,150,canal,,l,0.647,,,,,,,,,,,,,,,,,,
,,,,,,ca35daa7c8f8563a75780379,66a626ef09d4e21e1a8894ec,6734d6a0347160dbb94b8b7f,2024-11-13_13h41.18.254,Tarea de género gramatical,2024.2.2,Win32,144.092219,,,142.883,149.088,space,0.157407407,0.011111111,0,0,0,,,,,,,,,,,,6.19,,149.142,150.554,l,1,[],[],[],[],[],[],[],0.751,1,150.554,151.054,,,,,,594,MAS,AGR,150,amor,el,l,0.751,,151.054,151.058,0.157407407,0.011111111,0,0,0,,0,0,0,143,1,,,,
,,,,,,ca35daa7c8f8563a75780379,66a626ef09d4e21e1a8894ec,6734d6a0347160dbb94b8b7f,2024-11-13_13h41.18.254,Tarea de género gramatical,2024.2.2,Win32,144.092219,,,,,,,,,,,,,,,,,,,,,,,,151.06,152.2,l,1,[],[],[],[],[],[],[],0.484,1,152.2,152.7,,,,,,605,MAS,DIS,150,mundo,la,l,0.484,,152.7,152.7,0.157407407,0.011111111,0,0,0,,0,1,1,154,1,,,,
,,,,,,ca35daa7c8f8563a75780379,66a626ef09d4e21e1a8894ec,6734d6a0347160dbb94b8b7f,2024-11-13_13h41.18.254,Tarea de género gramatical,2024.2.2,Win32,144.092219,,,,,,,,,,,,,,,,,,,,,,,,152.701,153.867,l,1,[],[],[],[],[],[],[],0.512,1,153.867,154.367,,,,,,550,MAS,CON,150,nido,,l,0.512,,154.368,154.37,0.157407407,0.011111111,0,0,0,,0,2,2,99,1,,,,
,,,,,,ca35daa7c8f8563a75780379,66a626ef09d4e21e1a8894ec,6734d6a0347160dbb94b8b7f,2024-11-13_13h41.18.254,Tarea de género gramatical,2024.2.2,Win32,144.092219,,,,,,,,,,,,,,,,,,,,,,,,154.371,155.554,a,1,[],[],[],[],[],[],[],0.522,1,155.555,156.054,,,,,,685,FEM,CON,150,torre,,a,0.522,,156.055,156.055,0.157407407,0.011111111,0,0,0,,0,3,3,234,1,,,,
,,,,,,ca35daa7c8f8563a75780379,66a626ef09d4e21e1a8894ec,6734d6a0347160dbb94b8b7f,2024-11-13_13h41.18.254,Tarea de género gramatical,2024.2.2,Win32,144.092219,,,,,,,,,,,,,,,,,,,,,,,,156.056,157.443,l,1,[],[],[],[],[],[],[],0.733,1,157.443,157.944,,,,,,850,MAS,CON,150,barrio,,l,0.733,,157.944,157.944,0.157407407,0.011111111,0,0,0,,0,4,4,399,1,,,,
,,,,,,ca35daa7c8f8563a75780379,66a626ef09d4e21e1a8894ec,6734d6a0347160dbb94b8b7f,2024-11-13_13h41.18.254,Tarea de género gramatical,2024.2.2,Win32,144.092219,,,,,,,,,,,,,,,,,,,,,,,,157.945,159.006,l,1,[],[],[],[],[],[],[],0.404,1,159.007,159.506,,,,,,666,MAS,AGR,150,éxito,el,l,0.404,,159.506,159.506,0.157407407,0.011111111,0,0,0,,0,5,5,215,1,,,,
,,,,,,ca35daa7c8f8563a75780379,66a626ef09d4e21e1a8894ec,6734d6a0347160dbb94b8b7f,2024-11-13_13h41.18.254,Tarea de género gramatical,2024.2.2,Win32,144.092219,,,,,,,,,,,,,,,,,,,,,,,,159.509,160.575,a,1,[],[],[],[],[],[],[],0.412,1,160.576,161.076,,,,,,769,FEM,CON,150,sangre,,a,0.412,,161.077,161.079,0.157407407,0.011111111,0,0,0,,0,6,6,318,1,,,,
,,,,,,ca35daa7c8f8563a75780379,66a626ef09d4e21e1a8894ec,6734d6a0347160dbb94b8b7f,2024-11-13_13h41.18.254,Tarea de género gramatical,2024.2.2,Win32,144.092219,,,,,,,,,,,,,,,,,,,,,,,,161.08,162.319,l,1,[],[],[],[],[],[],[],0.576,1,162.319,162.821,,,,,,526,MAS,CON,150,lujo,,l,0.576,,162.821,162.821,0.157407407,0.011111111,0,0,0,,0,7,7,75,1,,,,
,,,,,,ca35daa7c8f8563a75780379,66a626ef09d4e21e1a8894ec,6734d6a0347160dbb94b8b7f,2024-11-13_13h41.18.254,Tarea de género gramatical,2024.2.2,Win32,144.092219,,,,,,,,,,,,,,,,,,,,,,,,162.824,163.951,a,1,[],[],[],[],[],[],[],0.465,1,163.953,164.451,,,,,,758,FEM,DIS,150,semana,el,a,0.465,,164.452,164.452,0.157407407,0.011111111,0,0,0,,0,8,8,307,1,,,,
,,,,,,ca35daa7c8f8563a75780379,66a626ef09d4e21e1a8894ec,6734d6a0347160dbb94b8b7f,2024-11-13_13h41.18.254,Tarea de género gramatical,2024.2.2,Win32,144.092219,,,,,,,,,,,,,,,,,,,,,,,,164.454,165.813,a,1,[],[],[],[],[],[],[],0.704,1,165.813,166.313,,,,,,865,FEM,CON,150,cabina,,a,0.704,,166.313,166.313,0.157407407,0.011111111,0,0,0,,0,9,9,414,1,,,,
,,,,,,ca35daa7c8f8563a75780379,66a626ef09d4e21e1a8894ec,6734d6a0347160dbb94b8b7f,2024-11-13_13h41.18.254,Tarea de género gramatical,2024.2.2,Win32,144.092219,,,,,,,,,,,,,,,,,,,,,,,,166.314,167.473,a,1,[],[],[],[],[],[],[],0.5,1,167.473,167.973,,,,,,583,FEM,CON,150,joya,,a,0.5,,167.973,167.973,0.157407407,0.011111111,0,0,0,,0,10,10,132,1,,,,
,,,,,,ca35daa7c8f8563a75780379,66a626ef09d4e21e1a8894ec,6734d6a0347160dbb94b8b7f,2024-11-13_13h41.18.254,Tarea de género gramatical,2024.2.2,Win32,144.092219,,,,,,,,,,,,,,,,,,,,,,,,167.975,169.362,a,1,[],[],[],[],[],[],[],0.73,1,169.362,169.861,,,,,,548,FEM,DIS,150,fuga,el,a,0.73,,169.862,169.865,0.158333333,0.011111111,0,0,0,,0,11,11,97,1,,,,
,,,,,,ca35daa7c8f8563a75780379,66a626ef09d4e21e1a8894ec,6734d6a0347160dbb94b8b7f,2024-11-13_13h41.18.254,Tarea de género gramatical,2024.2.2,Win32,144.092219,,,,,,,,,,,,,,,,,,,,,,,,169.866,171.036,l,1,[],[],[],[],[],[],[],0.509,1,171.036,171.536,,,,,,887,MAS,DIS,150,hombro,la,l,0.509,,171.536,171.536,0.158333333,0.011111111,0,0,0,,0,12,12,436,1,,,,
,,,,,,ca35daa7c8f8563a75780379,66a626ef09d4e21e1a8894ec,6734d6a0347160dbb94b8b7f,2024-11-13_13h41.18.254,Tarea de género gramatical,2024.2.2,Win32,144.092219,,,,,,,,,,,,,,,,,,,,,,,,171.537,172.661,l,1,[],[],[],[],[],[],[],0.47,1,172.661,173.161,,,,,,570,MAS,AGR,150,puño,el,l,0.47,,173.161,173.161,0.158333333,0.011111111,0,0,0,,0,13,13,119,1,,,,
,,,,,,ca35daa7c8f8563a75780379,66a626ef09d4e21e1a8894ec,6734d6a0347160dbb94b8b7f,2024-11-13_13h41.18.254,Tarea de género gramatical,2024.2.2,Win32,144.092219,,,,,,,,,,,,,,,,,,,,,,,,173.162,174.265,l,1,[],[],[],[],[],[],[],0.448,1,174.265,174.765,,,,,,622,MAS,CON,150,poder,,l,0.448,,174.765,174.765,0.158333333,0.011111111,0,0,0,,0,14,14,171,1,,,,
,,,,,,ca35daa7c8f8563a75780379,66a626ef09d4e21e1a8894ec,6734d6a0347160dbb94b8b7f,2024-11-13_13h41.18.254,Tarea de género gramatical,2024.2.2,Win32,144.092219,,,,,,,,,,,,,,,,,,,,,,,,174.767,175.856,l,1,[],[],[],[],[],[],[],0.433,1,175.857,176.355,,,,,,690,MAS,AGR,150,ruido,el,l,0.433,,176.357,176.358,0.158333333,0.011111111,0,0,0,,0,15,15,239,1,,,,
,,,,,,ca35daa7c8f8563a75780379,66a626ef09d4e21e1a8894ec,6734d6a0347160dbb94b8b7f,2024-11-13_13h41.18.254,Tarea de género gramatical,2024.2.2,Win32,144.092219,,,,,,,,,,,,,,,,,,,,,,,,176.359,177.62,l,1,[],[],[],[],[],[],[],0.609,1,177.62,178.12,,,,,,496,MAS,CON,150,odio,,l,0.609,,178.12,178.121,0.158333333,0.011111111,0,0,0,,0,16,16,45,1,,,,
,,,,,,ca35daa7c8f8563a75780379,66a626ef09d4e21e1a8894ec,6734d6a0347160dbb94b8b7f,2024-11-13_13h41.18.254,Tarea de género gramatical,2024.2.2,Win32,144.092219,,,,,,,,,,,,,,,,,,,,,,,,178.122,179.572,a,1,[],[],[],[],[],[],[],0.792,1,179.573,180.072,,,,,,488,FEM,DIS,150,obra,el,a,0.792,,180.072,180.072,0.158333333,0.011111111,0,0,0,,0,17,17,37,1,,,,
,,,,,,ca35daa7c8f8563a75780379,66a626ef09d4e21e1a8894ec,6734d6a0347160dbb94b8b7f,2024-11-13_13h41.18.254,Tarea de género gramatical,2024.2.2,Win32,144.092219,,,,,,,,,,,,,,,,,,,,,,,,180.073,181.586,l,0,[],[],[],[],[],[],[],0.859,0,181.587,182.085,,,,,,632,FEM,DIS,150,prisa,el,a,0.859,,182.085,182.085,0.158333333,0.011111111,0,0,0,,0,18,18,181,1,,,,
,,,,,,ca35daa7c8f8563a75780379,66a626ef09d4e21e1a8894ec,6734d6a0347160dbb94b8b7f,2024-11-13_13h41.18.254,Tarea de género gramatical,2024.2.2,Win32,144.092219,,,,,,,,,,,,,,,,,,,,,,,,182.087,183.384,a,1,[],[],[],[],[],[],[],0.643,1,183.386,183.884,,,,,,650,FEM,DIS,150,silla,el,a,0.643,,183.884,183.884,0.158333333,0.011111111,0,0,0,,0,19,19,199,1,,,,
,,,,,,ca35daa7c8f8563a75780379,66a626ef09d4e21e1a8894ec,6734d6a0347160dbb94b8b7f,2024-11-13_13h41.18.254,Tarea de género gramatical,2024.2.2,Win32,144.092219,,,,,,,,,,,,,,,,,,,,,,,,183.885,185.134,a,1,[],[],[],[],[],[],[],0.594,1,185.135,185.634,,,,,,543,FEM,AGR,150,lata,la,a,0.594,,185.636,185.638,0.158333333,0.011111111,0,0,0,,0,20,20,92,1,,,,
,,,,,,ca35daa7c8f8563a75780379,66a626ef09d4e21e1a8894ec,6734d6a0347160dbb94b8b7f,2024-11-13_13h41.18.254,Tarea de género gramatical,2024.2.2,Win32,144.092219,,,,,,,,,,,,,,,,,,,,,,,,185.638,187.038,l,1,[],[],[],[],[],[],[],0.739,1,187.038,187.538,,,,,,635,MAS,DIS,150,sueño,la,l,0.739,,187.538,187.538,0.158333333,0.011111111,0,0,0,,0,21,21,184,1,,,,
,,,,,,ca35daa7c8f8563a75780379,66a626ef09d4e21e1a8894ec,6734d6a0347160dbb94b8b7f,2024-11-13_13h41.18.254,Tarea de género gramatical,2024.2.2,Win32,144.092219,,,,,,,,,,,,,,,,,,,,,,,,187.539,188.912,a,1,[],[],[],[],[],[],[],0.717,1,188.913,189.413,,,,,,723,FEM,AGR,150,tarta,la,a,0.717,,189.413,189.413,0.158333333,0.011111111,0,0,0,,0,22,22,272,1,,,,
,,,,,,ca35daa7c8f8563a75780379,66a626ef09d4e21e1a8894ec,6734d6a0347160dbb94b8b7f,2024-11-13_13h41.18.254,Tarea de género gramatical,2024.2.2,Win32,144.092219,,,,,,,,,,,,,,,,,,,,,,,,189.415,191.073,l,1,[],[],[],[],[],[],[],1.003,1,191.073,191.573,,,,,,786,MAS,AGR,150,crimen,el,l,1.003,,191.573,191.573,0.158333333,0.011111111,0,0,0,,0,23,23,335,1,,,,
,,,,,,ca35daa7c8f8563a75780379,66a626ef09d4e21e1a8894ec,6734d6a0347160dbb94b8b7f,2024-11-13_13h41.18.254,Tarea de género gramatical,2024.2.2,Win32,144.092219,,,,,,,,,,,,,,,,,,,,,,,,191.574,192.761,l,1,[],[],[],[],[],[],[],0.529,1,192.762,193.26,,,,,,575,MAS,DIS,150,bate,la,l,0.529,,193.261,193.263,0.158333333,0.011111111,0,0,0,,0,24,24,124,1,,,,
,,,,,,ca35daa7c8f8563a75780379,66a626ef09d4e21e1a8894ec,6734d6a0347160dbb94b8b7f,2024-11-13_13h41.18.254,Tarea de género gramatical,2024.2.2,Win32,144.092219,,,,,,,,,,,,,,,,,,,,,,,,193.264,194.372,a,1,[],[],[],[],[],[],[],0.445,1,194.372,194.872,,,,,,638,FEM,DIS,150,bomba,el,a,0.445,,194.872,194.872,0.158333333,0.011111111,0,0,0,,0,25,25,187,1,,,,
,,,,,,ca35daa7c8f8563a75780379,66a626ef09d4e21e1a8894ec,6734d6a0347160dbb94b8b7f,2024-11-13_13h41.18.254,Tarea de género gramatical,2024.2.2,Win32,144.092219,,,,,,,,,,,,,,,,,,,,,,,,194.874,196.212,a,1,[],[],[],[],[],[],[],0.682,1,196.212,196.714,,,,,,757,FEM,CON,150,suerte,,a,0.682,,196.715,196.715,0.158333333,0.011111111,0,0,0,,0,26,26,306,1,,,,
,,,,,,ca35daa7c8f8563a75780379,66a626ef09d4e21e1a8894ec,6734d6a0347160dbb94b8b7f,2024-11-13_13h41.18.254,Tarea de género gramatical,2024.2.2,Win32,144.092219,,,,,,,,,,,,,,,,,,,,,,,,196.718,197.79,a,1,[],[],[],[],[],[],[],0.413,1,197.79,198.289,,,,,,734,FEM,DIS,150,fruta,el,a,0.413,,198.289,198.289,0.158333333,0.011111111,0,0,0,,0,27,27,283,1,,,,
,,,,,,ca35daa7c8f8563a75780379,66a626ef09d4e21e1a8894ec,6734d6a0347160dbb94b8b7f,2024-11-13_13h41.18.254,Tarea de género gramatical,2024.2.2,Win32,144.092219,,,,,,,,,,,,,,,,,,,,,,,,198.291,199.554,a,1,[],[],[],[],[],[],[],0.61,1,199.554,200.053,,,,,,619,FEM,CON,150,vista,,a,0.61,,200.053,200.053,0.158333333,0.011111111,0,0,0,,0,28,28,168,1,,,,
,,,,,,ca35daa7c8f8563a75780379,66a626ef09d4e21e1a8894ec,6734d6a0347160dbb94b8b7f,2024-11-13_13h41.18.254,Tarea de género gramatical,2024.2.2,Win32,144.092219,,,,,,,,,,,,,,,,,,,,,,,,200.055,201.22,l,1,[],[],[],[],[],[],[],0.509,1,201.22,201.72,,,,,,809,MAS,DIS,150,bosque,la,l,0.509,,201.723,201.725,0.158333333,0.011111111,0,0,0,,0,29,29,358,1,,,,
,,,,,,ca35daa7c8f8563a75780379,66a626ef09d4e21e1a8894ec,6734d6a0347160dbb94b8b7f,2024-11-13_13h41.18.254,Tarea de género gramatical,2024.2.2,Win32,144.092219,,,,,,,,,,,,,,,,,,,,,,,,201.725,202.866,l,1,[],[],[],[],[],[],[],0.482,1,202.866,203.366,,,,,,683,MAS,DIS,150,golpe,la,l,0.482,,203.366,203.366,0.158333333,0.011111111,0,0,0,,0,30,30,232,1,,,,
,,,,,,ca35daa7c8f8563a75780379,66a626ef09d4e21e1a8894ec,6734d6a0347160dbb94b8b7f,2024-11-13_13h41.18.254,Tarea de género gramatical,2024.2.2,Win32,144.092219,,,,,,,,,,,,,,,,,,,,,,,,203.368,204.429,l,1,[],[],[],[],[],[],[],0.405,1,204.429,204.929,,,,,,514,MAS,CON,150,saco,,l,0.405,,204.929,204.929,0.158333333,0.011111111,0,0,0,,0,31,31,63,1,,,,
,,,,,,ca35daa7c8f8563a75780379,66a626ef09d4e21e1a8894ec,6734d6a0347160dbb94b8b7f,2024-11-13_13h41.18.254,Tarea de género gramatical,2024.2.2,Win32,144.092219,,,,,,,,,,,,,,,,,,,,,,,,204.931,205.964,l,1,[],[],[],[],[],[],[],0.376,1,205.964,206.464,,,,,,616,MAS,CON,150,coche,,l,0.376,,206.464,206.464,0.158333333,0.011111111,0,0,0,,0,32,32,165,1,,,,
,,,,,,ca35daa7c8f8563a75780379,66a626ef09d4e21e1a8894ec,6734d6a0347160dbb94b8b7f,2024-11-13_13h41.18.254,Tarea de género gramatical,2024.2.2,Win32,144.092219,,,,,,,,,,,,,,,,,,,,,,,,206.465,207.547,a,1,[],[],[],[],[],[],[],0.424,1,207.547,208.047,,,,,,890,FEM,DIS,150,patada,el,a,0.424,,208.048,208.049,0.158333333,0.011111111,0,0,0,,0,33,33,439,1,,,,
,,,,,,ca35daa7c8f8563a75780379,66a626ef09d4e21e1a8894ec,6734d6a0347160dbb94b8b7f,2024-11-13_13h41.18.254,Tarea de género gramatical,2024.2.2,Win32,144.092219,,,,,,,,,,,,,,,,,,,,,,,,208.05,209.186,a,1,[],[],[],[],[],[],[],0.475,1,209.187,209.686,,,,,,830,FEM,DIS,150,madera,el,a,0.475,,209.686,209.686,0.158333333,0.011111111,0,0,0,,0,34,34,379,1,,,,
,,,,,,ca35daa7c8f8563a75780379,66a626ef09d4e21e1a8894ec,6734d6a0347160dbb94b8b7f,2024-11-13_13h41.18.254,Tarea de género gramatical,2024.2.2,Win32,144.092219,,,,,,,,,,,,,,,,,,,,,,,,209.689,211.055,l,1,[],[],[],[],[],[],[],0.712,1,211.055,211.555,,,,,,641,MAS,DIS,150,dolor,la,l,0.712,,211.555,211.556,0.158333333,0.011111111,0,0,0,,0,35,35,190,1,,,,
,,,,,,ca35daa7c8f8563a75780379,66a626ef09d4e21e1a8894ec,6734d6a0347160dbb94b8b7f,2024-11-13_13h41.18.254,Tarea de género gramatical,2024.2.2,Win32,144.092219,,,,,,,,,,,,,,,,,,,,,,,,211.558,212.798,l,1,[],[],[],[],[],[],[],0.587,1,212.798,213.298,,,,,,582,MAS,AGR,150,velo,el,l,0.587,,213.298,213.298,0.158333333,0.011111111,0,0,0,,0,36,36,131,1,,,,
,,,,,,ca35daa7c8f8563a75780379,66a626ef09d4e21e1a8894ec,6734d6a0347160dbb94b8b7f,2024-11-13_13h41.18.254,Tarea de género gramatical,2024.2.2,Win32,144.092219,,,,,,,,,,,,,,,,,,,,,,,,213.3,214.367,l,1,[],[],[],[],[],[],[],0.413,1,214.368,214.868,,,,,,486,MAS,AGR,150,dedo,el,l,0.413,,214.868,214.868,0.158333333,0.011111111,0,0,0,,0,37,37,35,1,,,,
,,,,,,ca35daa7c8f8563a75780379,66a626ef09d4e21e1a8894ec,6734d6a0347160dbb94b8b7f,2024-11-13_13h41.18.254,Tarea de género gramatical,2024.2.2,Win32,144.092219,,,,,,,,,,,,,,,,,,,,,,,,214.871,216.132,l,1,[],[],[],[],[],[],[],0.606,1,216.132,216.631,,,,,,574,MAS,CON,150,clan,,l,0.606,,216.634,216.635,0.158333333,0.011111111,0,0,0,,0,38,38,123,1,,,,
,,,,,,ca35daa7c8f8563a75780379,66a626ef09d4e21e1a8894ec,6734d6a0347160dbb94b8b7f,2024-11-13_13h41.18.254,Tarea de género gramatical,2024.2.2,Win32,144.092219,,,,,,,,,,,,,,,,,,,,,,,,216.636,217.743,l,1,[],[],[],[],[],[],[],0.451,1,217.744,218.243,,,,,,474,MAS,AGR,150,voto,el,l,0.451,,218.243,218.244,0.158333333,0.011111111,0,0,0,,0,39,39,23,1,,,,
,,,,,,ca35daa7c8f8563a75780379,66a626ef09d4e21e1a8894ec,6734d6a0347160dbb94b8b7f,2024-11-13_13h41.18.254,Tarea de género gramatical,2024.2.2,Win32,144.092219,,,,,,,,,,,,,,,,,,,,,,,,218.245,219.278,l,1,[],[],[],[],[],[],[],0.38,1,219.278,219.778,,,,,,876,MAS,AGR,150,pánico,el,l,0.38,,219.778,219.778,0.158333333,0.011111111,0,0,0,,0,40,40,425,1,,,,
,,,,,,ca35daa7c8f8563a75780379,66a626ef09d4e21e1a8894ec,6734d6a0347160dbb94b8b7f,2024-11-13_13h41.18.254,Tarea de género gramatical,2024.2.2,Win32,144.092219,,,,,,,,,,,,,,,,,,,,,,,,219.781,220.785,a,1,[],[],[],[],[],[],[],0.347,1,220.786,221.285,,,,,,669,FEM,AGR,150,costa,la,a,0.347,,221.285,221.285,0.158333333,0.011111111,0,0,0,,0,41,41,218,1,,,,
,,,,,,ca35daa7c8f8563a75780379,66a626ef09d4e21e1a8894ec,6734d6a0347160dbb94b8b7f,2024-11-13_13h41.18.254,Tarea de género gramatical,2024.2.2,Win32,144.092219,,,,,,,,,,,,,,,,,,,,,,,,221.286,222.411,a,0,[],[],[],[],[],[],[],0.469,0,222.411,222.91,,,,,,899,MAS,DIS,150,payaso,la,l,0.469,,222.912,222.913,0.158333333,0.011111111,0,0,0,,0,42,42,448,1,,,,
,,,,,,ca35daa7c8f8563a75780379,66a626ef09d4e21e1a8894ec,6734d6a0347160dbb94b8b7f,2024-11-13_13h41.18.254,Tarea de género gramatical,2024.2.2,Win32,144.092219,,,,,,,,,,,,,,,,,,,,,,,,222.914,224.064,a,1,[],[],[],[],[],[],[],0.49,1,224.064,224.564,,,,,,495,FEM,AGR,150,isla,la,a,0.49,,224.564,224.564,0.158333333,0.011111111,0,0,0,,0,43,43,44,1,,,,
,,,,,,ca35daa7c8f8563a75780379,66a626ef09d4e21e1a8894ec,6734d6a0347160dbb94b8b7f,2024-11-13_13h41.18.254,Tarea de género gramatical,2024.2.2,Win32,144.092219,,,,,,,,,,,,,,,,,,,,,,,,224.565,225.703,a,1,[],[],[],[],[],[],[],0.481,1,225.703,226.203,,,,,,513,FEM,AGR,150,fila,la,a,0.481,,226.203,226.203,0.158333333,0.011111111,0,0,0,,0,44,44,62,1,,,,
,,,,,,ca35daa7c8f8563a75780379,66a626ef09d4e21e1a8894ec,6734d6a0347160dbb94b8b7f,2024-11-13_13h41.18.254,Tarea de género gramatical,2024.2.2,Win32,144.092219,,,,,,,,,,,,,,,,,,,,,,,,226.204,227.348,l,1,[],[],[],[],[],[],[],0.487,1,227.348,227.848,,,,,,738,MAS,AGR,150,grado,el,l,0.487,,227.849,227.849,0.158333333,0.011111111,0,0,0,,0,45,45,287,1,,,,
,,,,,,ca35daa7c8f8563a75780379,66a626ef09d4e21e1a8894ec,6734d6a0347160dbb94b8b7f,2024-11-13_13h41.18.254,Tarea de género gramatical,2024.2.2,Win32,144.092219,,,,,,,,,,,,,,,,,,,,,,,,227.85,228.905,l,1,[],[],[],[],[],[],[],0.399,1,228.905,229.404,,,,,,730,MAS,CON,150,salón,,l,0.399,,229.404,229.404,0.158333333,0.011111111,0,0,0,,0,46,46,279,1,,,,
,,,,,,ca35daa7c8f8563a75780379,66a626ef09d4e21e1a8894ec,6734d6a0347160dbb94b8b7f,2024-11-13_13h41.18.254,Tarea de género gramatical,2024.2.2,Win32,144.092219,,,,,,,,,,,,,,,,,,,,,,,,229.406,230.726,l,1,[],[],[],[],[],[],[],0.661,1,230.727,231.224,,,,,,576,MAS,AGR,150,lazo,el,l,0.661,,231.228,231.23,0.158333333,0.011111111,0,0,0,,0,47,47,125,1,,,,
,,,,,,ca35daa7c8f8563a75780379,66a626ef09d4e21e1a8894ec,6734d6a0347160dbb94b8b7f,2024-11-13_13h41.18.254,Tarea de género gramatical,2024.2.2,Win32,144.092219,,,,,,,,,,,,,,,,,,,,,,,,231.232,232.495,a,1,[],[],[],[],[],[],[],0.605,1,232.495,232.996,,,,,,511,FEM,CON,150,ruta,,a,0.605,,232.996,232.996,0.158333333,0.011111111,0,0,0,,0,48,48,60,1,,,,
,,,,,,ca35daa7c8f8563a75780379,66a626ef09d4e21e1a8894ec,6734d6a0347160dbb94b8b7f,2024-11-13_13h41.18.254,Tarea de género gramatical,2024.2.2,Win32,144.092219,,,,,,,,,,,,,,,,,,,,,,,,232.998,234.072,l,1,[],[],[],[],[],[],[],0.417,1,234.072,234.572,,,,,,707,MAS,DIS,150,pecho,la,l,0.417,,234.572,234.573,0.158333333,0.011111111,0,0,0,,0,49,49,256,1,,,,
,,,,,,ca35daa7c8f8563a75780379,66a626ef09d4e21e1a8894ec,6734d6a0347160dbb94b8b7f,2024-11-13_13h41.18.254,Tarea de género gramatical,2024.2.2,Win32,144.092219,,,,,,,,,,,,,,,,,,,,,,,,234.575,235.781,a,1,[],[],[],[],[],[],[],0.548,1,235.781,236.281,,,,,,859,FEM,CON,150,moneda,,a,0.548,,236.281,236.281,0.158333333,0.011111111,0,0,0,,0,50,50,408,1,,,,
,,,,,,ca35daa7c8f8563a75780379,66a626ef09d4e21e1a8894ec,6734d6a0347160dbb94b8b7f,2024-11-13_13h41.18.254,Tarea de género gramatical,2024.2.2,Win32,144.092219,,,,,,,,,,,,,,,,,,,,,,,,236.282,237.426,a,1,[],[],[],[],[],[],[],0.488,1,237.427,237.926,,,,,,825,FEM,AGR,150,cadena,la,a,0.488,,237.927,237.93,0.158333333,0.011111111,0,0,0,,0,51,51,374,1,,,,
,,,,,,ca35daa7c8f8563a75780379,66a626ef09d4e21e1a8894ec,6734d6a0347160dbb94b8b7f,2024-11-13_13h41.18.254,Tarea de género gramatical,2024.2.2,Win32,144.092219,,,,,,,,,,,,,,,,,,,,,,,,237.931,238.975,l,1,[],[],[],[],[],[],[],0.382,1,238.976,239.475,,,,,,880,MAS,CON,150,título,,l,0.382,,239.475,239.475,0.158333333,0.011111111,0,0,0,,0,52,52,429,1,,,,
,,,,,,ca35daa7c8f8563a75780379,66a626ef09d4e21e1a8894ec,6734d6a0347160dbb94b8b7f,2024-11-13_13h41.18.254,Tarea de género gramatical,2024.2.2,Win32,144.092219,,,,,,,,,,,,,,,,,,,,,,,,239.476,240.524,a,1,[],[],[],[],[],[],[],0.388,1,240.524,241.023,,,,,,788,FEM,DIS,150,abuela,el,a,0.388,,241.024,241.024,0.158333333,0.011111111,0,0,0,,0,53,53,337,1,,,,
,,,,,,ca35daa7c8f8563a75780379,66a626ef09d4e21e1a8894ec,6734d6a0347160dbb94b8b7f,2024-11-13_13h41.18.254,Tarea de género gramatical,2024.2.2,Win32,144.092219,,,,,,,,,,,,,,,,,,,,,,,,241.025,242.191,a,1,[],[],[],[],[],[],[],0.509,1,242.191,242.691,,,,,,602,FEM,DIS,150,gente,el,a,0.509,,242.691,242.691,0.158333333,0.011111111,0,0,0,,0,54,54,151,1,,,,
,,,,,,ca35daa7c8f8563a75780379,66a626ef09d4e21e1a8894ec,6734d6a0347160dbb94b8b7f,2024-11-13_13h41.18.254,Tarea de género gramatical,2024.2.2,Win32,144.092219,,,,,,,,,,,,,,,,,,,,,,,,242.693,243.767,l,1,[],[],[],[],[],[],[],0.417,1,243.768,244.267,,,,,,684,MAS,AGR,150,héroe,el,l,0.417,,244.267,244.267,0.158333333,0.011111111,0,0,0,,0,55,55,233,1,,,,
,,,,,,ca35daa7c8f8563a75780379,66a626ef09d4e21e1a8894ec,6734d6a0347160dbb94b8b7f,2024-11-13_13h41.18.254,Tarea de género gramatical,2024.2.2,Win32,144.092219,,,,,,,,,,,,,,,,,,,,,,,,244.269,245.462,a,0,[],[],[],[],[],[],[],0.538,0,245.463,245.962,,,,,,502,MAS,CON,150,lago,,l,0.538,,245.963,245.964,0.158333333,0.011111111,0,0,0,,0,56,56,51,1,,,,
,,,,,,ca35daa7c8f8563a75780379,66a626ef09d4e21e1a8894ec,6734d6a0347160dbb94b8b7f,2024-11-13_13h41.18.254,Tarea de género gramatical,2024.2.2,Win32,144.092219,,,,,,,,,,,,,,,,,,,,,,,,245.965,247.074,l,1,[],[],[],[],[],[],[],0.455,1,247.075,247.574,,,,,,869,MAS,DIS,150,cuento,la,l,0.455,,247.574,247.574,0.158333333,0.011111111,0,0,0,,0,57,57,418,1,,,,
,,,,,,ca35daa7c8f8563a75780379,66a626ef09d4e21e1a8894ec,6734d6a0347160dbb94b8b7f,2024-11-13_13h41.18.254,Tarea de género gramatical,2024.2.2,Win32,144.092219,,,,,,,,,,,,,,,,,,,,,,,,247.576,248.671,l,1,[],[],[],[],[],[],[],0.441,1,248.672,249.171,,,,,,569,MAS,DIS,150,mito,la,l,0.441,,249.171,249.171,0.158333333,0.011111111,0,0,0,,0,58,58,118,1,,,,
,,,,,,ca35daa7c8f8563a75780379,66a626ef09d4e21e1a8894ec,6734d6a0347160dbb94b8b7f,2024-11-13_13h41.18.254,Tarea de género gramatical,2024.2.2,Win32,144.092219,,,,,,,,,,,,,,,,,,,,,,,,249.173,250.192,a,1,[],[],[],[],[],[],[],0.362,1,250.192,250.693,,,,,,657,FEM,AGR,150,playa,la,a,0.362,,250.693,250.693,0.158333333,0.011111111,0,0,0,,0,59,59,206,1,,,,
,,,,,,ca35daa7c8f8563a75780379,66a626ef09d4e21e1a8894ec,6734d6a0347160dbb94b8b7f,2024-11-13_13h41.18.254,Tarea de género gramatical,2024.2.2,Win32,144.092219,,,,,,,,,,,,,,,,,,,,,,,,250.694,251.921,l,1,[],[],[],[],[],[],[],0.569,1,251.921,252.421,,,,,,588,MAS,AGR,150,luto,el,l,0.569,,252.423,252.424,0.158333333,0.011111111,0,0,0,,0,60,60,137,1,,,,
,,,,,,ca35daa7c8f8563a75780379,66a626ef09d4e21e1a8894ec,6734d6a0347160dbb94b8b7f,2024-11-13_13h41.18.254,Tarea de género gramatical,2024.2.2,Win32,144.092219,,,,,,,,,,,,,,,,,,,,,,,,252.424,253.415,l,1,[],[],[],[],[],[],[],0.336,1,253.415,253.915,,,,,,676,MAS,CON,150,color,,l,0.336,,253.915,253.915,0.158333333,0.011111111,0,0,0,,0,61,61,225,1,,,,
,,,,,,ca35daa7c8f8563a75780379,66a626ef09d4e21e1a8894ec,6734d6a0347160dbb94b8b7f,2024-11-13_13h41.18.254,Tarea de género gramatical,2024.2.2,Win32,144.092219,,,,,,,,,,,,,,,,,,,,,,,,253.916,255.047,a,1,[],[],[],[],[],[],[],0.477,1,255.047,255.547,,,,,,848,FEM,DIS,150,hierba,el,a,0.477,,255.547,255.547,0.158333333,0.011111111,0,0,0,,0,62,62,397,1,,,,
,,,,,,ca35daa7c8f8563a75780379,66a626ef09d4e21e1a8894ec,6734d6a0347160dbb94b8b7f,2024-11-13_13h41.18.254,Tarea de género gramatical,2024.2.2,Win32,144.092219,,,,,,,,,,,,,,,,,,,,,,,,255.548,256.658,l,1,[],[],[],[],[],[],[],0.453,1,256.658,257.158,,,,,,647,MAS,DIS,150,avión,la,l,0.453,,257.158,257.158,0.158333333,0.011111111,0,0,0,,0,63,63,196,1,,,,
,,,,,,ca35daa7c8f8563a75780379,66a626ef09d4e21e1a8894ec,6734d6a0347160dbb94b8b7f,2024-11-13_13h41.18.254,Tarea de género gramatical,2024.2.2,Win32,144.092219,,,,,,,,,,,,,,,,,,,,,,,,257.159,258.36,a,1,[],[],[],[],[],[],[],0.541,1,258.36,258.859,,,,,,596,FEM,DIS,150,lana,el,a,0.541,,258.859,258.859,0.158333333,0.011111111,0,0,0,,0,64,64,145,1,,,,
,,,,,,ca35daa7c8f8563a75780379,66a626ef09d4e21e1a8894ec,6734d6a0347160dbb94b8b7f,2024-11-13_13h41.18.254,Tarea de género gramatical,2024.2.2,Win32,144.092219,,,,,,,,,,,,,,,,,,,,,,,,258.86,260.047,l,1,[],[],[],[],[],[],[],0.531,1,260.047,260.548,,,,,,552,MAS,AGR,150,coro,el,l,0.531,,260.549,260.55,0.158333333,0.011111111,0,0,0,,0,65,65,101,1,,,,
,,,,,,ca35daa7c8f8563a75780379,66a626ef09d4e21e1a8894ec,6734d6a0347160dbb94b8b7f,2024-11-13_13h41.18.254,Tarea de género gramatical,2024.2.2,Win32,144.092219,,,,,,,,,,,,,,,,,,,,,,,,260.551,261.596,l,1,[],[],[],[],[],[],[],0.39,1,261.596,262.096,,,,,,652,MAS,CON,150,honor,,l,0.39,,262.096,262.096,0.158333333,0.011111111,0,0,0,,0,66,66,201,1,,,,
,,,,,,ca35daa7c8f8563a75780379,66a626ef09d4e21e1a8894ec,6734d6a0347160dbb94b8b7f,2024-11-13_13h41.18.254,Tarea de género gramatical,2024.2.2,Win32,144.092219,,,,,,,,,,,,,,,,,,,,,,,,262.097,263.284,a,1,[],[],[],[],[],[],[],0.53,1,263.284,263.784,,,,,,722,FEM,DIS,150,oreja,el,a,0.53,,263.784,263.784,0.158333333,0.011111111,0,0,0,,0,67,67,271,1,,,,
,,,,,,ca35daa7c8f8563a75780379,66a626ef09d4e21e1a8894ec,6734d6a0347160dbb94b8b7f,2024-11-13_13h41.18.254,Tarea de género gramatical,2024.2.2,Win32,144.092219,,,,,,,,,,,,,,,,,,,,,,,,263.785,264.826,l,1,[],[],[],[],[],[],[],0.382,1,264.827,265.326,,,,,,658,MAS,CON,150,suelo,,l,0.382,,265.326,265.327,0.158333333,0.011111111,0,0,0,,0,68,68,207,1,,,,
,,,,,,ca35daa7c8f8563a75780379,66a626ef09d4e21e1a8894ec,6734d6a0347160dbb94b8b7f,2024-11-13_13h41.18.254,Tarea de género gramatical,2024.2.2,Win32,144.092219,,,,,,,,,,,,,,,,,,,,,,,,265.331,266.396,a,1,[],[],[],[],[],[],[],0.406,1,266.396,266.896,,,,,,807,FEM,AGR,150,lengua,la,a,0.406,,266.897,266.898,0.158333333,0.011111111,0,0,0,,0,69,69,356,1,,,,
,,,,,,ca35daa7c8f8563a75780379,66a626ef09d4e21e1a8894ec,6734d6a0347160dbb94b8b7f,2024-11-13_13h41.18.254,Tarea de género gramatical,2024.2.2,Win32,144.092219,,,,,,,,,,,,,,,,,,,,,,,,266.899,267.986,l,1,[],[],[],[],[],[],[],0.423,1,267.987,268.486,,,,,,455,MAS,DIS,150,tipo,la,l,0.423,,268.486,268.487,0.158333333,0.011111111,0,0,0,,0,70,70,4,1,,,,
,,,,,,ca35daa7c8f8563a75780379,66a626ef09d4e21e1a8894ec,6734d6a0347160dbb94b8b7f,2024-11-13_13h41.18.254,Tarea de género gramatical,2024.2.2,Win32,144.092219,,,,,,,,,,,,,,,,,,,,,,,,268.488,269.597,a,1,[],[],[],[],[],[],[],0.453,1,269.598,270.098,,,,,,884,FEM,DIS,150,corona,el,a,0.453,,270.098,270.098,0.158333333,0.011111111,0,0,0,,0,71,71,433,1,,,,
,,,,,,ca35daa7c8f8563a75780379,66a626ef09d4e21e1a8894ec,6734d6a0347160dbb94b8b7f,2024-11-13_13h41.18.254,Tarea de género gramatical,2024.2.2,Win32,144.092219,,,,,,,,,,,,,,,,,,,,,,,,270.099,271.244,a,1,[],[],[],[],[],[],[],0.491,1,271.244,271.743,,,,,,529,FEM,CON,150,mina,,a,0.491,,271.743,271.743,0.158333333,0.011111111,0,0,0,,0,72,72,78,1,,,,
,,,,,,ca35daa7c8f8563a75780379,66a626ef09d4e21e1a8894ec,6734d6a0347160dbb94b8b7f,2024-11-13_13h41.18.254,Tarea de género gramatical,2024.2.2,Win32,144.092219,,,,,,,,,,,,,,,,,,,,,,,,271.745,272.834,a,1,[],[],[],[],[],[],[],0.432,1,272.835,273.334,,,,,,465,FEM,AGR,150,cama,la,a,0.432,,273.334,273.334,0.158333333,0.011111111,0,0,0,,0,73,73,14,1,,,,
,,,,,,ca35daa7c8f8563a75780379,66a626ef09d4e21e1a8894ec,6734d6a0347160dbb94b8b7f,2024-11-13_13h41.18.254,Tarea de género gramatical,2024.2.2,Win32,144.092219,,,,,,,,,,,,,,,,,,,,,,,,273.337,274.688,l,0,[],[],[],[],[],[],[],0.694,0,274.69,275.188,,,,,,590,FEM,DIS,150,mula,el,a,0.694,,275.189,275.191,0.158333333,0.011111111,0,0,0,,0,74,74,139,1,,,,
,,,,,,ca35daa7c8f8563a75780379,66a626ef09d4e21e1a8894ec,6734d6a0347160dbb94b8b7f,2024-11-13_13h41.18.254,Tarea de género gramatical,2024.2.2,Win32,144.092219,,,,,,,,,,,,,,,,,,,,,,,,275.192,276.341,a,1,[],[],[],[],[],[],[],0.486,1,276.343,276.842,,,,,,578,FEM,DIS,150,leña,el,a,0.486,,276.842,276.842,0.158333333,0.011111111,0,0,0,,0,75,75,127,1,,,,
,,,,,,ca35daa7c8f8563a75780379,66a626ef09d4e21e1a8894ec,6734d6a0347160dbb94b8b7f,2024-11-13_13h41.18.254,Tarea de género gramatical,2024.2.2,Win32,144.092219,,,,,,,,,,,,,,,,,,,,,,,,276.843,278.07,l,1,[],[],[],[],[],[],[],0.572,1,278.071,278.571,,,,,,719,MAS,DIS,150,primo,la,l,0.572,,278.571,278.572,0.158333333,0.011111111,0,0,0,,0,76,76,268,1,,,,
,,,,,,ca35daa7c8f8563a75780379,66a626ef09d4e21e1a8894ec,6734d6a0347160dbb94b8b7f,2024-11-13_13h41.18.254,Tarea de género gramatical,2024.2.2,Win32,144.092219,,,,,,,,,,,,,,,,,,,,,,,,278.573,279.87,l,1,[],[],[],[],[],[],[],0.638,1,279.87,280.369,,,,,,557,MAS,DIS,150,cubo,la,l,0.638,,280.369,280.37,0.158333333,0.011111111,0,0,0,,0,77,77,106,1,,,,
,,,,,,ca35daa7c8f8563a75780379,66a626ef09d4e21e1a8894ec,6734d6a0347160dbb94b8b7f,2024-11-13_13h41.18.254,Tarea de género gramatical,2024.2.2,Win32,144.092219,,,,,,,,,,,,,,,,,,,,,,,,280.371,281.508,l,1,[],[],[],[],[],[],[],0.48,1,281.509,282.008,,,,,,504,MAS,AGR,150,humo,el,l,0.48,,282.01,282.011,0.158333333,0.011111111,0,0,0,,0,78,78,53,1,,,,
,,,,,,ca35daa7c8f8563a75780379,66a626ef09d4e21e1a8894ec,6734d6a0347160dbb94b8b7f,2024-11-13_13h41.18.254,Tarea de género gramatical,2024.2.2,Win32,144.092219,,,,,,,,,,,,,,,,,,,,,,,,282.012,283.433,a,1,[],[],[],[],[],[],[],0.758,1,283.433,283.933,,,,,,458,FEM,DIS,150,idea,el,a,0.758,,283.933,283.933,0.158333333,0.011111111,0,0,0,,0,79,79,7,1,,,,
,,,,,,ca35daa7c8f8563a75780379,66a626ef09d4e21e1a8894ec,6734d6a0347160dbb94b8b7f,2024-11-13_13h41.18.254,Tarea de género gramatical,2024.2.2,Win32,144.092219,,,,,,,,,,,,,,,,,,,,,,,,283.935,285.155,l,1,[],[],[],[],[],[],[],0.564,1,285.155,285.655,,,,,,894,MAS,AGR,150,límite,el,l,0.564,,285.655,285.655,0.158333333,0.011111111,0,0,0,,0,80,80,443,1,,,,
,,,,,,ca35daa7c8f8563a75780379,66a626ef09d4e21e1a8894ec,6734d6a0347160dbb94b8b7f,2024-11-13_13h41.18.254,Tarea de género gramatical,2024.2.2,Win32,144.092219,,,,,,,,,,,,,,,,,,,,,,,,285.656,286.787,l,1,[],[],[],[],[],[],[],0.472,1,286.788,287.287,,,,,,696,MAS,AGR,150,humor,el,l,0.472,,287.287,287.287,0.158333333,0.011111111,0,0,0,,0,81,81,245,1,,,,
,,,,,,ca35daa7c8f8563a75780379,66a626ef09d4e21e1a8894ec,6734d6a0347160dbb94b8b7f,2024-11-13_13h41.18.254,Tarea de género gramatical,2024.2.2,Win32,144.092219,,,,,,,,,,,,,,,,,,,,,,,,287.289,288.42,a,1,[],[],[],[],[],[],[],0.477,1,288.42,288.919,,,,,,879,FEM,AGR,150,fianza,la,a,0.477,,288.919,288.919,0.158333333,0.011111111,0,0,0,,0,82,82,428,1,,,,
,,,,,,ca35daa7c8f8563a75780379,66a626ef09d4e21e1a8894ec,6734d6a0347160dbb94b8b7f,2024-11-13_13h41.18.254,Tarea de género gramatical,2024.2.2,Win32,144.092219,,,,,,,,,,,,,,,,,,,,,,,,288.92,290.059,a,1,[],[],[],[],[],[],[],0.481,1,290.059,290.558,,,,,,861,FEM,AGR,150,actriz,la,a,0.481,,290.559,290.561,0.158333333,0.011111111,0,0,0,,0,83,83,410,1,,,,
,,,,,,ca35daa7c8f8563a75780379,66a626ef09d4e21e1a8894ec,6734d6a0347160dbb94b8b7f,2024-11-13_13h41.18.254,Tarea de género gramatical,2024.2.2,Win32,144.092219,,,,,,,,,,,,,,,,,,,,,,,,290.561,291.614,l,1,[],[],[],[],[],[],[],0.398,1,291.614,292.115,,,,,,714,MAS,AGR,150,pollo,el,l,0.398,,292.115,292.115,0.158333333,0.011111111,0,0,0,,0,84,84,263,1,,,,
,,,,,,ca35daa7c8f8563a75780379,66a626ef09d4e21e1a8894ec,6734d6a0347160dbb94b8b7f,2024-11-13_13h41.18.254,Tarea de género gramatical,2024.2.2,Win32,144.092219,,,,,,,,,,,,,,,,,,,,,,,,292.116,293.413,l,1,[],[],[],[],[],[],[],0.641,1,293.413,293.913,,,,,,790,MAS,CON,150,pasado,,l,0.641,,293.913,293.913,0.158333333,0.011111111,0,0,0,,0,85,85,339,1,,,,
,,,,,,ca35daa7c8f8563a75780379,66a626ef09d4e21e1a8894ec,6734d6a0347160dbb94b8b7f,2024-11-13_13h41.18.254,Tarea de género gramatical,2024.2.2,Win32,144.092219,,,,,,,,,,,,,,,,,,,,,,,,293.915,294.989,l,1,[],[],[],[],[],[],[],0.419,1,294.991,295.49,,,,,,516,MAS,AGR,150,muro,el,l,0.419,,295.49,295.49,0.158333333,0.011111111,0,0,0,,0,86,86,65,1,,,,
,,,,,,ca35daa7c8f8563a75780379,66a626ef09d4e21e1a8894ec,6734d6a0347160dbb94b8b7f,2024-11-13_13h41.18.254,Tarea de género gramatical,2024.2.2,Win32,144.092219,,,,,,,,,,,,,,,,,,,,,,,,295.492,296.573,a,1,[],[],[],[],[],[],[],0.425,1,296.573,297.073,,,,,,871,FEM,CON,150,novela,,a,0.425,,297.073,297.075,0.158333333,0.011111111,0,0,0,,0,87,87,420,1,,,,
,,,,,,ca35daa7c8f8563a75780379,66a626ef09d4e21e1a8894ec,6734d6a0347160dbb94b8b7f,2024-11-13_13h41.18.254,Tarea de género gramatical,2024.2.2,Win32,144.092219,,,,,,,,,,,,,,,,,,,,,,,,297.076,298.213,l,1,[],[],[],[],[],[],[],0.474,1,298.214,298.714,,,,,,798,MAS,AGR,150,anillo,el,l,0.474,,298.714,298.715,0.158333333,0.011111111,0,0,0,,0,88,88,347,1,,,,
,,,,,,ca35daa7c8f8563a75780379,66a626ef09d4e21e1a8894ec,6734d6a0347160dbb94b8b7f,2024-11-13_13h41.18.254,Tarea de género gramatical,2024.2.2,Win32,144.092219,,,,,,,,,,,,,,,,,,,,,,,,298.718,299.727,l,1,[],[],[],[],[],[],[],0.351,1,299.727,300.226,,,,,,779,MAS,DIS,150,futuro,la,l,0.351,,300.226,300.227,0.158333333,0.011111111,0,0,0,,0,89,89,328,1,,,,
,,,,,,ca35daa7c8f8563a75780379,66a626ef09d4e21e1a8894ec,6734d6a0347160dbb94b8b7f,2024-11-13_13h41.18.254,Tarea de género gramatical,2024.2.2,Win32,144.092219,,,,,,,,,,,,,,,,,,,,,,,,300.228,301.387,l,1,[],[],[],[],[],[],[],0.5,1,301.387,301.886,,,,,,593,MAS,DIS,150,faro,la,l,0.5,,301.886,301.887,0.158333333,0.011111111,0,0,0,,0,90,90,142,1,,,,
,,,,,,ca35daa7c8f8563a75780379,66a626ef09d4e21e1a8894ec,6734d6a0347160dbb94b8b7f,2024-11-13_13h41.18.254,Tarea de género gramatical,2024.2.2,Win32,144.092219,,,,,,,,,,,,,,,,,,,,,,,,301.888,303.074,a,1,[],[],[],[],[],[],[],0.529,1,303.076,303.574,,,,,,703,FEM,CON,150,aldea,,a,0.529,,303.574,303.574,0.158333333,0.011111111,0,0,0,,0,91,91,252,1,,,,
,,,,,,ca35daa7c8f8563a75780379,66a626ef09d4e21e1a8894ec,6734d6a0347160dbb94b8b7f,2024-11-13_13h41.18.254,Tarea de género gramatical,2024.2.2,Win32,144.092219,,,,,,,,,,,,,,,,,,,,,,,,303.576,304.65,a,1,[],[],[],[],[],[],[],0.42,1,304.651,305.151,,,,,,463,FEM,CON,150,hija,,a,0.42,,305.152,305.154,0.158333333,0.011111111,0,0,0,,0,92,92,12,1,,,,
,,,,,,ca35daa7c8f8563a75780379,66a626ef09d4e21e1a8894ec,6734d6a0347160dbb94b8b7f,2024-11-13_13h41.18.254,Tarea de género gramatical,2024.2.2,Win32,144.092219,,,,,,,,,,,,,,,,,,,,,,,,305.155,306.165,l,1,[],[],[],[],[],[],[],0.348,1,306.165,306.665,,,,,,528,MAS,AGR,150,oído,el,l,0.348,,306.665,306.665,0.158333333,0.011111111,0,0,0,,0,93,93,77,1,,,,
,,,,,,ca35daa7c8f8563a75780379,66a626ef09d4e21e1a8894ec,6734d6a0347160dbb94b8b7f,2024-11-13_13h41.18.254,Tarea de género gramatical,2024.2.2,Win32,144.092219,,,,,,,,,,,,,,,,,,,,,,,,306.667,307.762,a,1,[],[],[],[],[],[],[],0.438,1,307.763,308.262,,,,,,499,FEM,CON,150,piel,,a,0.438,,308.262,308.262,0.158333333,0.011111111,0,0,0,,0,94,94,48,1,,,,
,,,,,,ca35daa7c8f8563a75780379,66a626ef09d4e21e1a8894ec,6734d6a0347160dbb94b8b7f,2024-11-13_13h41.18.254,Tarea de género gramatical,2024.2.2,Win32,144.092219,,,,,,,,,,,,,,,,,,,,,,,,308.263,309.318,l,1,[],[],[],[],[],[],[],0.396,1,309.318,309.818,,,,,,497,MAS,DIS,150,olor,la,l,0.396,,309.818,309.818,0.158333333,0.011111111,0,0,0,,0,95,95,46,1,,,,
,,,,,,ca35daa7c8f8563a75780379,66a626ef09d4e21e1a8894ec,6734d6a0347160dbb94b8b7f,2024-11-13_13h41.18.254,Tarea de género gramatical,2024.2.2,Win32,144.092219,,,,,,,,,,,,,,,,,,,,,,,,309.82,311.062,l,1,[],[],[],[],[],[],[],0.583,1,311.063,311.561,,,,,,737,MAS,DIS,150,plato,la,l,0.583,,311.563,311.565,0.158333333,0.011111111,0,0,0,,0,96,96,286,1,,,,
,,,,,,ca35daa7c8f8563a75780379,66a626ef09d4e21e1a8894ec,6734d6a0347160dbb94b8b7f,2024-11-13_13h41.18.254,Tarea de género gramatical,2024.2.2,Win32,144.092219,,,,,,,,,,,,,,,,,,,,,,,,311.565,312.894,a,1,[],[],[],[],[],[],[],0.668,1,312.894,313.394,,,,,,793,FEM,CON,150,trampa,,a,0.668,,313.395,313.396,0.158333333,0.011111111,0,0,0,,0,97,97,342,1,,,,
,,,,,,ca35daa7c8f8563a75780379,66a626ef09d4e21e1a8894ec,6734d6a0347160dbb94b8b7f,2024-11-13_13h41.18.254,Tarea de género gramatical,2024.2.2,Win32,144.092219,,,,,,,,,,,,,,,,,,,,,,,,313.397,314.513,l,1,[],[],[],[],[],[],[],0.459,1,314.514,315.013,,,,,,803,MAS,DIS,150,verano,la,l,0.459,,315.014,315.014,0.158333333,0.011111111,0,0,0,,0,98,98,352,1,,,,
,,,,,,ca35daa7c8f8563a75780379,66a626ef09d4e21e1a8894ec,6734d6a0347160dbb94b8b7f,2024-11-13_13h41.18.254,Tarea de género gramatical,2024.2.2,Win32,144.092219,,,,,,,,,,,,,,,,,,,,,,,,315.014,316.041,l,1,[],[],[],[],[],[],[],0.369,1,316.042,316.541,,,,,,646,MAS,CON,150,barco,,l,0.369,,316.541,316.541,0.158333333,0.011111111,0,0,0,,0,99,99,195,1,,,,
,,,,,,ca35daa7c8f8563a75780379,66a626ef09d4e21e1a8894ec,6734d6a0347160dbb94b8b7f,2024-11-13_13h41.18.254,Tarea de género gramatical,2024.2.2,Win32,144.092219,,,,,,,,,,,,,,,,,,,,,,,,316.542,317.813,a,1,[],[],[],[],[],[],[],0.615,1,317.813,318.312,,,,,,560,FEM,DIS,150,rosa,el,a,0.615,,318.312,318.312,0.158333333,0.011111111,0,0,0,,0,100,100,109,1,,,,
,,,,,,ca35daa7c8f8563a75780379,66a626ef09d4e21e1a8894ec,6734d6a0347160dbb94b8b7f,2024-11-13_13h41.18.254,Tarea de género gramatical,2024.2.2,Win32,144.092219,,,,,,,,,,,,,,,,,,,,,,,,318.314,319.277,l,1,[],[],[],[],[],[],[],0.306,1,319.277,319.778,,,,,,468,MAS,AGR,150,tren,el,l,0.306,,319.779,319.78,0.158333333,0.011111111,0,0,0,,0,101,101,17,1,,,,
,,,,,,ca35daa7c8f8563a75780379,66a626ef09d4e21e1a8894ec,6734d6a0347160dbb94b8b7f,2024-11-13_13h41.18.254,Tarea de género gramatical,2024.2.2,Win32,144.092219,,,,,,,,,,,,,,,,,,,,,,,,319.781,320.931,a,1,[],[],[],[],[],[],[],0.495,1,320.931,321.431,,,,,,883,FEM,CON,150,huella,,a,0.495,,321.431,321.432,0.158333333,0.011111111,0,0,0,,0,102,102,432,1,,,,
,,,,,,ca35daa7c8f8563a75780379,66a626ef09d4e21e1a8894ec,6734d6a0347160dbb94b8b7f,2024-11-13_13h41.18.254,Tarea de género gramatical,2024.2.2,Win32,144.092219,,,,,,,,,,,,,,,,,,,,,,,,321.433,322.466,l,0,[],[],[],[],[],[],[],0.375,0,322.467,322.966,,,,,,795,FEM,AGR,150,pierna,la,a,0.375,,322.966,322.966,0.158333333,0.011111111,0,0,0,,0,103,103,344,1,,,,
,,,,,,ca35daa7c8f8563a75780379,66a626ef09d4e21e1a8894ec,6734d6a0347160dbb94b8b7f,2024-11-13_13h41.18.254,Tarea de género gramatical,2024.2.2,Win32,144.092219,,,,,,,,,,,,,,,,,,,,,,,,322.966,324.119,l,1,[],[],[],[],[],[],[],0.493,1,324.121,324.618,,,,,,762,MAS,AGR,150,equipo,el,l,0.493,,324.618,324.618,0.158333333,0.011111111,0,0,0,,0,104,104,311,1,,,,
,,,,,,ca35daa7c8f8563a75780379,66a626ef09d4e21e1a8894ec,6734d6a0347160dbb94b8b7f,2024-11-13_13h41.18.254,Tarea de género gramatical,2024.2.2,Win32,144.092219,,,,,,,,,,,,,,,,,,,,,,,,324.619,325.786,a,1,[],[],[],[],[],[],[],0.508,1,325.786,326.286,,,,,,566,FEM,DIS,150,nube,el,a,0.508,,326.287,326.289,0.158333333,0.011111111,0,0,0,,0,105,105,115,1,,,,
,,,,,,ca35daa7c8f8563a75780379,66a626ef09d4e21e1a8894ec,6734d6a0347160dbb94b8b7f,2024-11-13_13h41.18.254,Tarea de género gramatical,2024.2.2,Win32,144.092219,,,,,,,,,,,,,,,,,,,,,,,,326.289,327.446,l,1,[],[],[],[],[],[],[],0.496,1,327.446,327.946,,,,,,845,MAS,DIS,150,correo,la,l,0.496,,327.946,327.946,0.158333333,0.011111111,0,0,0,,0,106,106,394,1,,,,
,,,,,,ca35daa7c8f8563a75780379,66a626ef09d4e21e1a8894ec,6734d6a0347160dbb94b8b7f,2024-11-13_13h41.18.254,Tarea de género gramatical,2024.2.2,Win32,144.092219,,,,,,,,,,,,,,,,,,,,,,,,327.947,329.028,l,1,[],[],[],[],[],[],[],0.424,1,329.029,329.529,,,,,,754,MAS,CON,150,tiempo,,l,0.424,,329.529,329.529,0.158333333,0.011111111,0,0,0,,0,107,107,303,1,,,,
,,,,,,ca35daa7c8f8563a75780379,66a626ef09d4e21e1a8894ec,6734d6a0347160dbb94b8b7f,2024-11-13_13h41.18.254,Tarea de género gramatical,2024.2.2,Win32,144.092219,,,,,,,,,,,,,,,,,,,,,,,,329.53,330.585,l,1,[],[],[],[],[],[],[],0.397,1,330.585,331.085,,,,,,844,MAS,CON,150,examen,,l,0.397,,331.085,331.085,0.158333333,0.011111111,0,0,0,,0,108,108,393,1,,,,
,,,,,,ca35daa7c8f8563a75780379,66a626ef09d4e21e1a8894ec,6734d6a0347160dbb94b8b7f,2024-11-13_13h41.18.254,Tarea de género gramatical,2024.2.2,Win32,144.092219,,,,,,,,,,,,,,,,,,,,,,,,331.086,332.399,a,0,[],[],[],[],[],[],[],0.653,0,332.401,332.897,,,,,,467,MAS,DIS,150,modo,la,l,0.653,,332.899,332.899,0.158333333,0.011111111,0,0,0,,0,109,109,16,1,,,,
,,,,,,ca35daa7c8f8563a75780379,66a626ef09d4e21e1a8894ec,6734d6a0347160dbb94b8b7f,2024-11-13_13h41.18.254,Tarea de género gramatical,2024.2.2,Win32,144.092219,,,,,,,,,,,,,,,,,,,,,,,,332.902,333.946,l,1,[],[],[],[],[],[],[],0.384,1,333.947,334.447,,,,,,624,MAS,AGR,150,perro,el,l,0.384,,334.448,334.45,0.158333333,0.011111111,0,0,0,,0,110,110,173,1,,,,
,,,,,,ca35daa7c8f8563a75780379,66a626ef09d4e21e1a8894ec,6734d6a0347160dbb94b8b7f,2024-11-13_13h41.18.254,Tarea de género gramatical,2024.2.2,Win32,144.092219,,,,,,,,,,,,,,,,,,,,,,,,334.45,335.585,a,1,[],[],[],[],[],[],[],0.472,1,335.585,336.085,,,,,,691,FEM,CON,150,pasta,,a,0.472,,336.086,336.086,0.158333333,0.011111111,0,0,0,,0,111,111,240,1,,,,
,,,,,,ca35daa7c8f8563a75780379,66a626ef09d4e21e1a8894ec,6734d6a0347160dbb94b8b7f,2024-11-13_13h41.18.254,Tarea de género gramatical,2024.2.2,Win32,144.092219,,,,,,,,,,,,,,,,,,,,,,,,336.087,337.315,a,1,[],[],[],[],[],[],[],0.573,1,337.316,337.815,,,,,,789,FEM,AGR,150,salida,la,a,0.573,,337.815,337.815,0.158333333,0.011111111,0,0,0,,0,112,112,338,1,,,,
,,,,,,ca35daa7c8f8563a75780379,66a626ef09d4e21e1a8894ec,6734d6a0347160dbb94b8b7f,2024-11-13_13h41.18.254,Tarea de género gramatical,2024.2.2,Win32,144.092219,,,,,,,,,,,,,,,,,,,,,,,,337.817,339.079,a,1,[],[],[],[],[],[],[],0.604,1,339.079,339.579,,,,,,609,FEM,AGR,150,clase,la,a,0.604,,339.579,339.579,0.158333333,0.011111111,0,0,0,,0,113,113,158,1,,,,
,,,,,,ca35daa7c8f8563a75780379,66a626ef09d4e21e1a8894ec,6734d6a0347160dbb94b8b7f,2024-11-13_13h41.18.254,Tarea de género gramatical,2024.2.2,Win32,144.092219,,,,,,,,,,,,,,,,,,,,,,,,339.58,340.781,a,1,[],[],[],[],[],[],[],0.541,1,340.782,341.281,,,,,,553,FEM,CON,150,fama,,a,0.541,,341.282,341.283,0.158333333,0.011111111,0,0,0,,0,114,114,102,1,,,,
,,,,,,ca35daa7c8f8563a75780379,66a626ef09d4e21e1a8894ec,6734d6a0347160dbb94b8b7f,2024-11-13_13h41.18.254,Tarea de género gramatical,2024.2.2,Win32,144.092219,,,,,,,,,,,,,,,,,,,,,,,,341.284,342.301,a,1,[],[],[],[],[],[],[],0.356,1,342.301,342.801,,,,,,559,FEM,CON,150,gota,,a,0.356,,342.801,342.801,0.158333333,0.011111111,0,0,0,,0,115,115,108,1,,,,
,,,,,,ca35daa7c8f8563a75780379,66a626ef09d4e21e1a8894ec,6734d6a0347160dbb94b8b7f,2024-11-13_13h41.18.254,Tarea de género gramatical,2024.2.2,Win32,144.092219,,,,,,,,,,,,,,,,,,,,,,,,342.803,344.08,l,1,[],[],[],[],[],[],[],0.619,1,344.08,344.579,,,,,,598,MAS,CON,150,surf,,l,0.619,,344.579,344.58,0.158333333,0.011111111,0,0,0,,0,116,116,147,1,,,,
,,,,,,ca35daa7c8f8563a75780379,66a626ef09d4e21e1a8894ec,6734d6a0347160dbb94b8b7f,2024-11-13_13h41.18.254,Tarea de género gramatical,2024.2.2,Win32,144.092219,,,,,,,,,,,,,,,,,,,,,,,,344.581,345.802,l,1,[],[],[],[],[],[],[],0.565,1,345.802,346.302,,,,,,695,MAS,DIS,150,turno,la,l,0.565,,346.302,346.302,0.158333333,0.011111111,0,0,0,,0,117,117,244,1,,,,
,,,,,,ca35daa7c8f8563a75780379,66a626ef09d4e21e1a8894ec,6734d6a0347160dbb94b8b7f,2024-11-13_13h41.18.254,Tarea de género gramatical,2024.2.2,Win32,144.092219,,,,,,,,,,,,,,,,,,,,,,,,346.304,347.483,a,1,[],[],[],[],[],[],[],0.523,1,347.483,347.983,,,,,,751,FEM,CON,150,verdad,,a,0.523,,347.983,347.983,0.158333333,0.011111111,0,0,0,,0,118,118,300,1,,,,
,,,,,,ca35daa7c8f8563a75780379,66a626ef09d4e21e1a8894ec,6734d6a0347160dbb94b8b7f,2024-11-13_13h41.18.254,Tarea de género gramatical,2024.2.2,Win32,144.092219,,,,,,,,,,,,,,,,,,,,,,,,347.984,349.351,a,1,[],[],[],[],[],[],[],0.71,1,349.352,349.851,,,,,,854,FEM,DIS,150,gloria,el,a,0.71,,349.852,349.854,0.158333333,0.011111111,0,0,0,,0,119,119,403,1,,,,
,,,,,,ca35daa7c8f8563a75780379,66a626ef09d4e21e1a8894ec,6734d6a0347160dbb94b8b7f,2024-11-13_13h41.18.254,Tarea de género gramatical,2024.2.2,Win32,144.092219,,,,,,,,,,,,,,,,,,,,,,,,349.855,351.011,l,1,[],[],[],[],[],[],[],0.502,1,351.011,351.511,,,,,,653,MAS,DIS,150,novio,la,l,0.502,,351.511,351.511,0.158333333,0.011111111,0,0,0,,0,120,120,202,1,,,,
,,,,,,ca35daa7c8f8563a75780379,66a626ef09d4e21e1a8894ec,6734d6a0347160dbb94b8b7f,2024-11-13_13h41.18.254,Tarea de género gramatical,2024.2.2,Win32,144.092219,,,,,,,,,,,,,,,,,,,,,,,,351.512,352.712,a,1,[],[],[],[],[],[],[],0.543,1,352.712,353.212,,,,,,831,FEM,AGR,150,bebida,la,a,0.543,,353.212,353.212,0.158333333,0.011111111,0,0,0,,0,121,121,380,1,,,,
,,,,,,ca35daa7c8f8563a75780379,66a626ef09d4e21e1a8894ec,6734d6a0347160dbb94b8b7f,2024-11-13_13h41.18.254,Tarea de género gramatical,2024.2.2,Win32,144.092219,,,,,,,,,,,,,,,,,,,,,,,,353.214,354.275,a,1,[],[],[],[],[],[],[],0.406,1,354.275,354.776,,,,,,699,FEM,AGR,150,crema,la,a,0.406,,354.776,354.776,0.158333333,0.011111111,0,0,0,,0,122,122,248,1,,,,
,,,,,,ca35daa7c8f8563a75780379,66a626ef09d4e21e1a8894ec,6734d6a0347160dbb94b8b7f,2024-11-13_13h41.18.254,Tarea de género gramatical,2024.2.2,Win32,144.092219,,,,,,,,,,,,,,,,,,,,,,,,354.777,355.907,a,1,[],[],[],[],[],[],[],0.473,1,355.907,356.408,,,,,,891,FEM,AGR,150,medida,la,a,0.473,,356.408,356.41,0.158333333,0.011111111,0,0,0,,0,123,123,440,1,,,,
,,,,,,ca35daa7c8f8563a75780379,66a626ef09d4e21e1a8894ec,6734d6a0347160dbb94b8b7f,2024-11-13_13h41.18.254,Tarea de género gramatical,2024.2.2,Win32,144.092219,,,,,,,,,,,,,,,,,,,,,,,,356.411,357.484,a,0,[],[],[],[],[],[],[],0.416,0,357.486,357.984,,,,,,454,MAS,CON,150,hijo,,l,0.416,,357.984,357.984,0.158333333,0.011111111,0,0,0,,0,124,124,3,1,,,,
,,,,,,ca35daa7c8f8563a75780379,66a626ef09d4e21e1a8894ec,6734d6a0347160dbb94b8b7f,2024-11-13_13h41.18.254,Tarea de género gramatical,2024.2.2,Win32,144.092219,,,,,,,,,,,,,,,,,,,,,,,,357.986,359.214,a,1,[],[],[],[],[],[],[],0.571,1,359.215,359.714,,,,,,614,FEM,DIS,150,novia,el,a,0.571,,359.714,359.714,0.158333333,0.011111111,0,0,0,,0,125,125,163,1,,,,
,,,,,,ca35daa7c8f8563a75780379,66a626ef09d4e21e1a8894ec,6734d6a0347160dbb94b8b7f,2024-11-13_13h41.18.254,Tarea de género gramatical,2024.2.2,Win32,144.092219,,,,,,,,,,,,,,,,,,,,,,,,359.715,360.874,l,1,[],[],[],[],[],[],[],0.5,1,360.874,361.373,,,,,,492,MAS,AGR,150,show,el,l,0.5,,361.373,361.374,0.158333333,0.011111111,0,0,0,,0,126,126,41,1,,,,
,,,,,,ca35daa7c8f8563a75780379,66a626ef09d4e21e1a8894ec,6734d6a0347160dbb94b8b7f,2024-11-13_13h41.18.254,Tarea de género gramatical,2024.2.2,Win32,144.092219,,,,,,,,,,,,,,,,,,,,,,,,361.376,362.457,l,1,[],[],[],[],[],[],[],0.427,1,362.457,362.957,,,,,,804,MAS,AGR,150,camión,el,l,0.427,,362.957,362.957,0.158333333,0.011111111,0,0,0,,0,127,127,353,1,,,,
,,,,,,ca35daa7c8f8563a75780379,66a626ef09d4e21e1a8894ec,6734d6a0347160dbb94b8b7f,2024-11-13_13h41.18.254,Tarea de género gramatical,2024.2.2,Win32,144.092219,,,,,,,,,,,,,,,,,,,,,,,,362.959,363.998,a,1,[],[],[],[],[],[],[],0.383,1,363.998,364.499,,,,,,897,FEM,AGR,150,lógica,la,a,0.383,,364.5,364.501,0.158333333,0.011111111,0,0,0,,0,128,128,446,1,,,,
,,,,,,ca35daa7c8f8563a75780379,66a626ef09d4e21e1a8894ec,6734d6a0347160dbb94b8b7f,2024-11-13_13h41.18.254,Tarea de género gramatical,2024.2.2,Win32,144.092219,,,,,,,,,,,,,,,,,,,,,,,,364.502,365.659,l,1,[],[],[],[],[],[],[],0.504,1,365.659,366.16,,,,,,534,MAS,AGR,150,mago,el,l,0.504,,366.161,366.161,0.158333333,0.011111111,0,0,0,,0,129,129,83,1,,,,
,,,,,,ca35daa7c8f8563a75780379,66a626ef09d4e21e1a8894ec,6734d6a0347160dbb94b8b7f,2024-11-13_13h41.18.254,Tarea de género gramatical,2024.2.2,Win32,144.092219,,,,,,,,,,,,,,,,,,,,,,,,366.165,367.257,l,1,[],[],[],[],[],[],[],0.433,1,367.258,367.756,,,,,,636,MAS,AGR,150,error,el,l,0.433,,367.756,367.756,0.158333333,0.011111111,0,0,0,,0,130,130,185,1,,,,
,,,,,,ca35daa7c8f8563a75780379,66a626ef09d4e21e1a8894ec,6734d6a0347160dbb94b8b7f,2024-11-13_13h41.18.254,Tarea de género gramatical,2024.2.2,Win32,144.092219,,,,,,,,,,,,,,,,,,,,,,,,367.759,368.742,l,1,[],[],[],[],[],[],[],0.328,1,368.743,369.243,,,,,,562,MAS,CON,150,reto,,l,0.328,,369.243,369.243,0.158333333,0.011111111,0,0,0,,0,131,131,111,1,,,,
,,,,,,ca35daa7c8f8563a75780379,66a626ef09d4e21e1a8894ec,6734d6a0347160dbb94b8b7f,2024-11-13_13h41.18.254,Tarea de género gramatical,2024.2.2,Win32,144.092219,,,,,,,,,,,,,,,,,,,,,,,,369.244,370.597,a,0,[],[],[],[],[],[],[],0.695,0,370.6,371.097,,,,,,473,MAS,DIS,150,rato,la,l,0.695,,371.099,371.1,0.158333333,0.011111111,0,0,0,,0,132,132,22,1,,,,
,,,,,,ca35daa7c8f8563a75780379,66a626ef09d4e21e1a8894ec,6734d6a0347160dbb94b8b7f,2024-11-13_13h41.18.254,Tarea de género gramatical,2024.2.2,Win32,144.092219,,,,,,,,,,,,,,,,,,,,,,,,371.101,372.291,a,1,[],[],[],[],[],[],[],0.53,1,372.293,372.792,,,,,,877,FEM,CON,150,agenda,,a,0.53,,372.792,372.792,0.158333333,0.011111111,0,0,0,,0,133,133,426,1,,,,
,,,,,,ca35daa7c8f8563a75780379,66a626ef09d4e21e1a8894ec,6734d6a0347160dbb94b8b7f,2024-11-13_13h41.18.254,Tarea de género gramatical,2024.2.2,Win32,144.092219,,,,,,,,,,,,,,,,,,,,,,,,372.794,374.056,a,1,[],[],[],[],[],[],[],0.609,1,374.056,374.556,,,,,,765,FEM,AGR,150,manera,la,a,0.609,,374.556,374.556,0.158333333,0.011111111,0,0,0,,0,134,134,314,1,,,,
,,,,,,ca35daa7c8f8563a75780379,66a626ef09d4e21e1a8894ec,6734d6a0347160dbb94b8b7f,2024-11-13_13h41.18.254,Tarea de género gramatical,2024.2.2,Win32,144.092219,,,,,,,,,,,,,,,,,,,,,,,,374.557,375.715,l,1,[],[],[],[],[],[],[],0.504,1,375.716,376.215,,,,,,456,MAS,AGR,150,lado,el,l,0.504,,376.216,376.217,0.158333333,0.011111111,0,0,0,,0,135,135,5,1,,,,
,,,,,,ca35daa7c8f8563a75780379,66a626ef09d4e21e1a8894ec,6734d6a0347160dbb94b8b7f,2024-11-13_13h41.18.254,Tarea de género gramatical,2024.2.2,Win32,144.092219,,,,,,,,,,,,,,,,,,,,,,,,376.219,377.382,a,1,[],[],[],[],[],[],[],0.508,1,377.382,377.883,,,,,,717,FEM,AGR,150,barba,la,a,0.508,,377.883,377.883,0.158333333,0.011111111,0,0,0,,0,136,136,266,1,,,,
,,,,,,ca35daa7c8f8563a75780379,66a626ef09d4e21e1a8894ec,6734d6a0347160dbb94b8b7f,2024-11-13_13h41.18.254,Tarea de género gramatical,2024.2.2,Win32,144.092219,,,,,,,,,,,,,,,,,,,,,,,,377.884,379.077,a,1,[],[],[],[],[],[],[],0.537,1,379.077,379.578,,,,,,800,FEM,DIS,150,imagen,el,a,0.537,,379.579,379.58,0.158333333,0.011111111,0,0,0,,0,137,137,349,1,,,,
,,,,,,ca35daa7c8f8563a75780379,66a626ef09d4e21e1a8894ec,6734d6a0347160dbb94b8b7f,2024-11-13_13h41.18.254,Tarea de género gramatical,2024.2.2,Win32,144.092219,,,,,,,,,,,,,,,,,,,,,,,,379.581,380.744,a,1,[],[],[],[],[],[],[],0.502,1,380.745,381.244,,,,,,452,FEM,DIS,150,vida,el,a,0.502,,381.244,381.244,0.158333333,0.011111111,0,0,0,,0,138,138,1,1,,,,
,,,,,,ca35daa7c8f8563a75780379,66a626ef09d4e21e1a8894ec,6734d6a0347160dbb94b8b7f,2024-11-13_13h41.18.254,Tarea de género gramatical,2024.2.2,Win32,144.092219,,,,,,,,,,,,,,,,,,,,,,,,381.246,382.432,l,0,[],[],[],[],[],[],[],0.53,0,382.433,382.931,,,,,,776,FEM,DIS,150,música,el,a,0.53,,382.932,382.932,0.158333333,0.011111111,0,0,0,,0,139,139,325,1,,,,
,,,,,,ca35daa7c8f8563a75780379,66a626ef09d4e21e1a8894ec,6734d6a0347160dbb94b8b7f,2024-11-13_13h41.18.254,Tarea de género gramatical,2024.2.2,Win32,144.092219,,,,,,,,,,,,,,,,,,,,,,,,382.933,384.043,a,1,[],[],[],[],[],[],[],0.452,1,384.045,384.543,,,,,,759,FEM,AGR,150,esposa,la,a,0.452,,384.543,384.544,0.158333333,0.011111111,0,0,0,,0,140,140,308,1,,,,
,,,,,,ca35daa7c8f8563a75780379,66a626ef09d4e21e1a8894ec,6734d6a0347160dbb94b8b7f,2024-11-13_13h41.18.254,Tarea de género gramatical,2024.2.2,Win32,144.092219,,,,,,,,,,,,,,,,,,,,,,,,384.546,386.023,l,1,[],[],[],[],[],[],[],0.823,1,386.023,386.523,,,,,,611,MAS,DIS,150,chico,la,l,0.823,,386.524,386.525,0.158333333,0.011111111,0,0,0,,0,141,141,160,1,,,,
,,,,,,ca35daa7c8f8563a75780379,66a626ef09d4e21e1a8894ec,6734d6a0347160dbb94b8b7f,2024-11-13_13h41.18.254,Tarea de género gramatical,2024.2.2,Win32,144.092219,,,,,,,,,,,,,,,,,,,,,,,,386.526,387.877,a,1,[],[],[],[],[],[],[],0.691,1,387.878,388.378,,,,,,481,FEM,CON,150,edad,,a,0.691,,388.378,388.378,0.158333333,0.011111111,0,0,0,,0,142,142,30,1,,,,
,,,,,,ca35daa7c8f8563a75780379,66a626ef09d4e21e1a8894ec,6734d6a0347160dbb94b8b7f,2024-11-13_13h41.18.254,Tarea de género gramatical,2024.2.2,Win32,144.092219,,,,,,,,,,,,,,,,,,,,,,,,388.38,389.648,l,1,[],[],[],[],[],[],[],0.612,1,389.648,390.148,,,,,,852,MAS,AGR,150,ladrón,el,l,0.612,,390.148,390.148,0.158333333,0.011111111,0,0,0,,0,143,143,401,1,,,,
,,,,,,ca35daa7c8f8563a75780379,66a626ef09d4e21e1a8894ec,6734d6a0347160dbb94b8b7f,2024-11-13_13h41.18.254,Tarea de género gramatical,2024.2.2,Win32,144.092219,,,,,,,,,,,,,,,,,,,,,,,,390.149,391.238,l,1,[],[],[],[],[],[],[],0.432,1,391.238,391.738,,,,,,766,MAS,CON,150,cuerpo,,l,0.432,,391.738,391.738,0.158333333,0.011111111,0,0,0,,0,144,144,315,1,,,,
,,,,,,ca35daa7c8f8563a75780379,66a626ef09d4e21e1a8894ec,6734d6a0347160dbb94b8b7f,2024-11-13_13h41.18.254,Tarea de género gramatical,2024.2.2,Win32,144.092219,,,,,,,,,,,,,,,,,,,,,,,,391.739,392.885,l,1,[],[],[],[],[],[],[],0.489,1,392.885,393.384,,,,,,580,MAS,CON,150,yate,,l,0.489,,393.384,393.384,0.158333333,0.011111111,0,0,0,,0,145,145,129,1,,,,
,,,,,,ca35daa7c8f8563a75780379,66a626ef09d4e21e1a8894ec,6734d6a0347160dbb94b8b7f,2024-11-13_13h41.18.254,Tarea de género gramatical,2024.2.2,Win32,144.092219,,,,,,,,,,,,,,,,,,,,,,,,393.386,394.406,a,1,[],[],[],[],[],[],[],0.365,1,394.406,394.905,,,,,,799,FEM,CON,150,prensa,,a,0.365,,394.907,394.909,0.158333333,0.011111111,0,0,0,,0,146,146,348,1,,,,
,,,,,,ca35daa7c8f8563a75780379,66a626ef09d4e21e1a8894ec,6734d6a0347160dbb94b8b7f,2024-11-13_13h41.18.254,Tarea de género gramatical,2024.2.2,Win32,144.092219,,,,,,,,,,,,,,,,,,,,,,,,394.91,395.996,l,1,[],[],[],[],[],[],[],0.426,1,395.997,396.496,,,,,,772,MAS,CON,150,minuto,,l,0.426,,396.496,396.496,0.158333333,0.011111111,0,0,0,,0,147,147,321,1,,,,
,,,,,,ca35daa7c8f8563a75780379,66a626ef09d4e21e1a8894ec,6734d6a0347160dbb94b8b7f,2024-11-13_13h41.18.254,Tarea de género gramatical,2024.2.2,Win32,144.092219,,,,,,,,,,,,,,,,,,,,,,,,396.497,397.593,l,1,[],[],[],[],[],[],[],0.438,1,397.593,398.093,,,,,,833,MAS,DIS,150,parque,la,l,0.438,,398.093,398.093,0.158333333,0.011111111,0,0,0,,0,148,148,382,1,,,,
,,,,,,ca35daa7c8f8563a75780379,66a626ef09d4e21e1a8894ec,6734d6a0347160dbb94b8b7f,2024-11-13_13h41.18.254,Tarea de género gramatical,2024.2.2,Win32,144.092219,,,,,,,,,,,,,,,,,,,,,,,,398.095,399.177,a,1,[],[],[],[],[],[],[],0.425,1,399.177,399.677,,,,,,711,FEM,AGR,150,cueva,la,a,0.425,,399.677,399.677,0.158333333,0.011111111,0,0,0,,0,149,149,260,1,,,,
,,,,,,ca35daa7c8f8563a75780379,66a626ef09d4e21e1a8894ec,6734d6a0347160dbb94b8b7f,2024-11-13_13h41.18.254,Tarea de género gramatical,2024.2.2,Win32,144.092219,,,,,,,,,,,,,,,,,,,,,,,,399.678,401.303,a,1,[],[],[],[],[],[],[],0.965,1,401.305,401.803,,,,,,536,FEM,DIS,150,cruz,el,a,0.965,,401.804,518.207,0.158333333,0.011111111,0,0,0,space,0,150,150,85,1,116.387,,,
,,,,,,ca35daa7c8f8563a75780379,66a626ef09d4e21e1a8894ec,6734d6a0347160dbb94b8b7f,2024-11-13_13h41.18.254,Tarea de género gramatical,2024.2.2,Win32,144.092219,,,,,,,,,,,,,,,,,,,,,,,,518.212,519.458,a,1,[],[],[],[],[],[],[],0.591,1,519.459,519.957,,,,,,866,FEM,DIS,150,colina,el,a,0.591,,519.958,519.958,0.158333333,0.011111111,0,0,0,,0,151,151,415,1,,,,
,,,,,,ca35daa7c8f8563a75780379,66a626ef09d4e21e1a8894ec,6734d6a0347160dbb94b8b7f,2024-11-13_13h41.18.254,Tarea de género gramatical,2024.2.2,Win32,144.092219,,,,,,,,,,,,,,,,,,,,,,,,519.959,521.138,l,0,[],[],[],[],[],[],[],0.524,0,521.139,521.638,,,,,,584,FEM,DIS,150,rama,el,a,0.524,,521.638,521.638,0.158333333,0.011111111,0,0,0,,0,152,152,133,1,,,,
,,,,,,ca35daa7c8f8563a75780379,66a626ef09d4e21e1a8894ec,6734d6a0347160dbb94b8b7f,2024-11-13_13h41.18.254,Tarea de género gramatical,2024.2.2,Win32,144.092219,,,,,,,,,,,,,,,,,,,,,,,,521.639,522.93,a,1,[],[],[],[],[],[],[],0.632,1,522.931,523.43,,,,,,542,FEM,DIS,150,masa,el,a,0.632,,523.43,523.43,0.158333333,0.011111111,0,0,0,,0,153,153,91,1,,,,
,,,,,,ca35daa7c8f8563a75780379,66a626ef09d4e21e1a8894ec,6734d6a0347160dbb94b8b7f,2024-11-13_13h41.18.254,Tarea de género gramatical,2024.2.2,Win32,144.092219,,,,,,,,,,,,,,,,,,,,,,,,523.431,524.562,l,1,[],[],[],[],[],[],[],0.474,1,524.562,525.062,,,,,,718,MAS,CON,150,truco,,l,0.474,,525.062,525.062,0.158333333,0.011111111,0,0,0,,0,154,154,267,1,,,,
,,,,,,ca35daa7c8f8563a75780379,66a626ef09d4e21e1a8894ec,6734d6a0347160dbb94b8b7f,2024-11-13_13h41.18.254,Tarea de género gramatical,2024.2.2,Win32,144.092219,,,,,,,,,,,,,,,,,,,,,,,,525.063,526.208,a,0,[],[],[],[],[],[],[],0.489,0,526.208,526.708,,,,,,840,MAS,AGR,150,rostro,el,l,0.489,,526.71,526.711,0.158333333,0.011111111,0,0,0,,0,155,155,389,1,,,,
,,,,,,ca35daa7c8f8563a75780379,66a626ef09d4e21e1a8894ec,6734d6a0347160dbb94b8b7f,2024-11-13_13h41.18.254,Tarea de género gramatical,2024.2.2,Win32,144.092219,,,,,,,,,,,,,,,,,,,,,,,,526.712,527.812,a,1,[],[],[],[],[],[],[],0.44,1,527.814,528.312,,,,,,662,FEM,DIS,150,cinta,el,a,0.44,,528.313,528.313,0.158333333,0.011111111,0,0,0,,0,156,156,211,1,,,,
,,,,,,ca35daa7c8f8563a75780379,66a626ef09d4e21e1a8894ec,6734d6a0347160dbb94b8b7f,2024-11-13_13h41.18.254,Tarea de género gramatical,2024.2.2,Win32,144.092219,,,,,,,,,,,,,,,,,,,,,,,,528.315,529.757,l,1,[],[],[],[],[],[],[],0.786,1,529.757,530.257,,,,,,797,MAS,DIS,150,cuello,la,l,0.786,,530.258,530.258,0.158333333,0.011111111,0,0,0,,0,157,157,346,1,,,,
,,,,,,ca35daa7c8f8563a75780379,66a626ef09d4e21e1a8894ec,6734d6a0347160dbb94b8b7f,2024-11-13_13h41.18.254,Tarea de género gramatical,2024.2.2,Win32,144.092219,,,,,,,,,,,,,,,,,,,,,,,,530.259,531.285,l,1,[],[],[],[],[],[],[],0.371,1,531.286,531.785,,,,,,546,MAS,AGR,150,pato,el,l,0.371,,531.785,531.785,0.158333333,0.011111111,0,0,0,,0,158,158,95,1,,,,
,,,,,,ca35daa7c8f8563a75780379,66a626ef09d4e21e1a8894ec,6734d6a0347160dbb94b8b7f,2024-11-13_13h41.18.254,Tarea de género gramatical,2024.2.2,Win32,144.092219,,,,,,,,,,,,,,,,,,,,,,,,531.787,532.82,l,1,[],[],[],[],[],[],[],0.377,1,532.821,533.32,,,,,,654,MAS,AGR,150,papel,el,l,0.377,,533.322,533.323,0.158333333,0.011111111,0,0,0,,0,159,159,203,1,,,,
,,,,,,ca35daa7c8f8563a75780379,66a626ef09d4e21e1a8894ec,6734d6a0347160dbb94b8b7f,2024-11-13_13h41.18.254,Tarea de género gramatical,2024.2.2,Win32,144.092219,,,,,,,,,,,,,,,,,,,,,,,,533.323,534.328,l,1,[],[],[],[],[],[],[],0.345,1,534.328,534.829,,,,,,540,MAS,AGR,150,león,el,l,0.345,,534.83,534.831,0.158333333,0.011111111,0,0,0,,0,160,160,89,1,,,,
,,,,,,ca35daa7c8f8563a75780379,66a626ef09d4e21e1a8894ec,6734d6a0347160dbb94b8b7f,2024-11-13_13h41.18.254,Tarea de género gramatical,2024.2.2,Win32,144.092219,,,,,,,,,,,,,,,,,,,,,,,,534.834,535.862,l,1,[],[],[],[],[],[],[],0.367,1,535.863,536.362,,,,,,708,MAS,AGR,150,polvo,el,l,0.367,,536.362,536.362,0.158333333,0.011111111,0,0,0,,0,161,161,257,1,,,,
,,,,,,ca35daa7c8f8563a75780379,66a626ef09d4e21e1a8894ec,6734d6a0347160dbb94b8b7f,2024-11-13_13h41.18.254,Tarea de género gramatical,2024.2.2,Win32,144.092219,,,,,,,,,,,,,,,,,,,,,,,,536.364,537.481,l,1,[],[],[],[],[],[],[],0.459,1,537.481,537.981,,,,,,822,MAS,AGR,150,delito,el,l,0.459,,537.981,537.981,0.158333333,0.011111111,0,0,0,,0,162,162,371,1,,,,
,,,,,,ca35daa7c8f8563a75780379,66a626ef09d4e21e1a8894ec,6734d6a0347160dbb94b8b7f,2024-11-13_13h41.18.254,Tarea de género gramatical,2024.2.2,Win32,144.092219,,,,,,,,,,,,,,,,,,,,,,,,537.982,539.015,l,1,[],[],[],[],[],[],[],0.375,1,539.016,539.515,,,,,,792,MAS,AGR,150,abuelo,el,l,0.375,,539.515,539.516,0.158333333,0.011111111,0,0,0,,0,163,163,341,1,,,,
,,,,,,ca35daa7c8f8563a75780379,66a626ef09d4e21e1a8894ec,6734d6a0347160dbb94b8b7f,2024-11-13_13h41.18.254,Tarea de género gramatical,2024.2.2,Win32,144.092219,,,,,,,,,,,,,,,,,,,,,,,,539.518,540.724,a,1,[],[],[],[],[],[],[],0.549,1,540.724,541.223,,,,,,476,FEM,DIS,150,pena,el,a,0.549,,541.225,541.227,0.158333333,0.011111111,0,0,0,,0,164,164,25,1,,,,
,,,,,,ca35daa7c8f8563a75780379,66a626ef09d4e21e1a8894ec,6734d6a0347160dbb94b8b7f,2024-11-13_13h41.18.254,Tarea de género gramatical,2024.2.2,Win32,144.092219,,,,,,,,,,,,,,,,,,,,,,,,541.228,542.433,l,1,[],[],[],[],[],[],[],0.543,1,542.433,542.932,,,,,,664,MAS,CON,150,fondo,,l,0.543,,542.932,542.932,0.158333333,0.011111111,0,0,0,,0,165,165,213,1,,,,
,,,,,,ca35daa7c8f8563a75780379,66a626ef09d4e21e1a8894ec,6734d6a0347160dbb94b8b7f,2024-11-13_13h41.18.254,Tarea de género gramatical,2024.2.2,Win32,144.092219,,,,,,,,,,,,,,,,,,,,,,,,542.934,544.009,a,1,[],[],[],[],[],[],[],0.42,1,544.01,544.509,,,,,,547,FEM,CON,150,capa,,a,0.42,,544.509,544.509,0.158333333,0.011111111,0,0,0,,0,166,166,96,1,,,,
,,,,,,ca35daa7c8f8563a75780379,66a626ef09d4e21e1a8894ec,6734d6a0347160dbb94b8b7f,2024-11-13_13h41.18.254,Tarea de género gramatical,2024.2.2,Win32,144.092219,,,,,,,,,,,,,,,,,,,,,,,,544.511,545.732,a,1,[],[],[],[],[],[],[],0.564,1,545.732,546.231,,,,,,889,FEM,CON,150,toalla,,a,0.564,,546.231,546.231,0.158333333,0.011111111,0,0,0,,0,167,167,438,1,,,,
,,,,,,ca35daa7c8f8563a75780379,66a626ef09d4e21e1a8894ec,6734d6a0347160dbb94b8b7f,2024-11-13_13h41.18.254,Tarea de género gramatical,2024.2.2,Win32,144.092219,,,,,,,,,,,,,,,,,,,,,,,,546.233,547.281,l,1,[],[],[],[],[],[],[],0.389,1,547.281,547.78,,,,,,462,MAS,AGR,150,plan,el,l,0.389,,547.782,547.783,0.158333333,0.011111111,0,0,0,,0,168,168,11,1,,,,
,,,,,,ca35daa7c8f8563a75780379,66a626ef09d4e21e1a8894ec,6734d6a0347160dbb94b8b7f,2024-11-13_13h41.18.254,Tarea de género gramatical,2024.2.2,Win32,144.092219,,,,,,,,,,,,,,,,,,,,,,,,547.784,549.121,a,0,[],[],[],[],[],[],[],0.673,0,549.123,549.621,,,,,,533,MAS,DIS,150,nene,la,l,0.673,,549.621,549.621,0.158333333,0.011111111,0,0,0,,0,169,169,82,1,,,,
,,,,,,ca35daa7c8f8563a75780379,66a626ef09d4e21e1a8894ec,6734d6a0347160dbb94b8b7f,2024-11-13_13h41.18.254,Tarea de género gramatical,2024.2.2,Win32,144.092219,,,,,,,,,,,,,,,,,,,,,,,,549.623,550.947,a,1,[],[],[],[],[],[],[],0.667,1,550.949,551.447,,,,,,847,FEM,CON,150,cuerda,,a,0.667,,551.447,551.448,0.158333333,0.011111111,0,0,0,,0,170,170,396,1,,,,
,,,,,,ca35daa7c8f8563a75780379,66a626ef09d4e21e1a8894ec,6734d6a0347160dbb94b8b7f,2024-11-13_13h41.18.254,Tarea de género gramatical,2024.2.2,Win32,144.092219,,,,,,,,,,,,,,,,,,,,,,,,551.45,552.524,a,1,[],[],[],[],[],[],[],0.416,1,552.524,553.024,,,,,,483,FEM,AGR,150,boda,la,a,0.416,,553.024,553.024,0.158333333,0.011111111,0,0,0,,0,171,171,32,1,,,,
,,,,,,ca35daa7c8f8563a75780379,66a626ef09d4e21e1a8894ec,6734d6a0347160dbb94b8b7f,2024-11-13_13h41.18.254,Tarea de género gramatical,2024.2.2,Win32,144.092219,,,,,,,,,,,,,,,,,,,,,,,,553.026,554.066,l,1,[],[],[],[],[],[],[],0.381,1,554.066,554.566,,,,,,755,MAS,DIS,150,hombre,la,l,0.381,,554.566,554.566,0.158333333,0.011111111,0,0,0,,0,172,172,304,1,,,,
,,,,,,ca35daa7c8f8563a75780379,66a626ef09d4e21e1a8894ec,6734d6a0347160dbb94b8b7f,2024-11-13_13h41.18.254,Tarea de género gramatical,2024.2.2,Win32,144.092219,,,,,,,,,,,,,,,,,,,,,,,,554.567,555.684,a,1,[],[],[],[],[],[],[],0.458,1,555.684,556.184,,,,,,787,FEM,CON,150,escena,,a,0.458,,556.186,556.187,0.158333333,0.011111111,0,0,0,,0,173,173,336,1,,,,
,,,,,,ca35daa7c8f8563a75780379,66a626ef09d4e21e1a8894ec,6734d6a0347160dbb94b8b7f,2024-11-13_13h41.18.254,Tarea de género gramatical,2024.2.2,Win32,144.092219,,,,,,,,,,,,,,,,,,,,,,,,556.188,557.497,a,1,[],[],[],[],[],[],[],0.648,1,557.497,557.997,,,,,,651,FEM,AGR,150,leche,la,a,0.648,,557.997,557.997,0.158333333,0.011111111,0,0,0,,0,174,174,200,1,,,,
,,,,,,ca35daa7c8f8563a75780379,66a626ef09d4e21e1a8894ec,6734d6a0347160dbb94b8b7f,2024-11-13_13h41.18.254,Tarea de género gramatical,2024.2.2,Win32,144.092219,,,,,,,,,,,,,,,,,,,,,,,,557.999,559.101,a,1,[],[],[],[],[],[],[],0.445,1,559.101,559.601,,,,,,823,FEM,CON,150,lluvia,,a,0.445,,559.601,559.601,0.158333333,0.011111111,0,0,0,,0,175,175,372,1,,,,
,,,,,,ca35daa7c8f8563a75780379,66a626ef09d4e21e1a8894ec,6734d6a0347160dbb94b8b7f,2024-11-13_13h41.18.254,Tarea de género gramatical,2024.2.2,Win32,144.092219,,,,,,,,,,,,,,,,,,,,,,,,559.603,560.616,l,1,[],[],[],[],[],[],[],0.359,1,560.616,561.115,,,,,,761,MAS,DIS,150,camino,la,l,0.359,,561.115,561.115,0.158333333,0.011111111,0,0,0,,0,176,176,310,1,,,,
,,,,,,ca35daa7c8f8563a75780379,66a626ef09d4e21e1a8894ec,6734d6a0347160dbb94b8b7f,2024-11-13_13h41.18.254,Tarea de género gramatical,2024.2.2,Win32,144.092219,,,,,,,,,,,,,,,,,,,,,,,,561.116,562.025,a,1,[],[],[],[],[],[],[],0.251,1,562.025,562.525,,,,,,813,FEM,AGR,150,unidad,la,a,0.251,,562.526,562.528,0.158333333,0.011111111,0,0,0,,0,177,177,362,1,,,,
,,,,,,ca35daa7c8f8563a75780379,66a626ef09d4e21e1a8894ec,6734d6a0347160dbb94b8b7f,2024-11-13_13h41.18.254,Tarea de género gramatical,2024.2.2,Win32,144.092219,,,,,,,,,,,,,,,,,,,,,,,,562.528,563.782,a,1,[],[],[],[],[],[],[],0.594,1,563.782,564.282,,,,,,470,FEM,DIS,150,ropa,el,a,0.594,,564.282,564.282,0.158333333,0.011111111,0,0,0,,0,178,178,19,1,,,,
,,,,,,ca35daa7c8f8563a75780379,66a626ef09d4e21e1a8894ec,6734d6a0347160dbb94b8b7f,2024-11-13_13h41.18.254,Tarea de género gramatical,2024.2.2,Win32,144.092219,,,,,,,,,,,,,,,,,,,,,,,,564.283,565.38,a,1,[],[],[],[],[],[],[],0.44,1,565.381,565.88,,,,,,591,FEM,AGR,150,cera,la,a,0.44,,565.88,565.88,0.158333333,0.011111111,0,0,0,,0,179,179,140,1,,,,
,,,,,,ca35daa7c8f8563a75780379,66a626ef09d4e21e1a8894ec,6734d6a0347160dbb94b8b7f,2024-11-13_13h41.18.254,Tarea de género gramatical,2024.2.2,Win32,144.092219,,,,,,,,,,,,,,,,,,,,,,,,565.883,567.123,l,1,[],[],[],[],[],[],[],0.585,1,567.123,567.623,,,,,,623,MAS,DIS,150,libro,la,l,0.585,,567.623,567.623,0.158333333,0.011111111,0,0,0,,0,180,180,172,1,,,,
,,,,,,ca35daa7c8f8563a75780379,66a626ef09d4e21e1a8894ec,6734d6a0347160dbb94b8b7f,2024-11-13_13h41.18.254,Tarea de género gramatical,2024.2.2,Win32,144.092219,,,,,,,,,,,,,,,,,,,,,,,,567.626,569.111,a,1,[],[],[],[],[],[],[],0.829,1,569.112,569.609,,,,,,626,FEM,DIS,150,línea,el,a,0.829,,569.609,569.61,0.158333333,0.011111111,0,0,0,,0,181,181,175,1,,,,
,,,,,,ca35daa7c8f8563a75780379,66a626ef09d4e21e1a8894ec,6734d6a0347160dbb94b8b7f,2024-11-13_13h41.18.254,Tarea de género gramatical,2024.2.2,Win32,144.092219,,,,,,,,,,,,,,,,,,,,,,,,569.613,570.832,l,1,[],[],[],[],[],[],[],0.565,1,570.832,571.332,,,,,,599,MAS,DIS,150,nudo,la,l,0.565,,571.334,571.336,0.158333333,0.011111111,0,0,0,,0,182,182,148,1,,,,
,,,,,,ca35daa7c8f8563a75780379,66a626ef09d4e21e1a8894ec,6734d6a0347160dbb94b8b7f,2024-11-13_13h41.18.254,Tarea de género gramatical,2024.2.2,Win32,144.092219,,,,,,,,,,,,,,,,,,,,,,,,571.336,572.402,l,1,[],[],[],[],[],[],[],0.404,1,572.402,572.902,,,,,,610,MAS,CON,150,señor,,l,0.404,,572.902,572.902,0.158333333,0.011111111,0,0,0,,0,183,183,159,1,,,,
,,,,,,ca35daa7c8f8563a75780379,66a626ef09d4e21e1a8894ec,6734d6a0347160dbb94b8b7f,2024-11-13_13h41.18.254,Tarea de género gramatical,2024.2.2,Win32,144.092219,,,,,,,,,,,,,,,,,,,,,,,,572.904,573.909,a,1,[],[],[],[],[],[],[],0.348,1,573.91,574.409,,,,,,692,FEM,DIS,150,pizza,el,a,0.348,,574.409,574.409,0.158333333,0.011111111,0,0,0,,0,184,184,241,1,,,,
,,,,,,ca35daa7c8f8563a75780379,66a626ef09d4e21e1a8894ec,6734d6a0347160dbb94b8b7f,2024-11-13_13h41.18.254,Tarea de género gramatical,2024.2.2,Win32,144.092219,,,,,,,,,,,,,,,,,,,,,,,,574.41,575.52,l,1,[],[],[],[],[],[],[],0.452,1,575.52,576.02,,,,,,756,MAS,AGR,150,dinero,el,l,0.452,,576.02,576.02,0.158333333,0.011111111,0,0,0,,0,185,185,305,1,,,,
,,,,,,ca35daa7c8f8563a75780379,66a626ef09d4e21e1a8894ec,6734d6a0347160dbb94b8b7f,2024-11-13_13h41.18.254,Tarea de género gramatical,2024.2.2,Win32,144.092219,,,,,,,,,,,,,,,,,,,,,,,,576.022,577.131,a,1,[],[],[],[],[],[],[],0.453,1,577.132,577.632,,,,,,518,FEM,DIS,150,pata,el,a,0.453,,577.633,577.635,0.158333333,0.011111111,0,0,0,,0,186,186,67,1,,,,
,,,,,,ca35daa7c8f8563a75780379,66a626ef09d4e21e1a8894ec,6734d6a0347160dbb94b8b7f,2024-11-13_13h41.18.254,Tarea de género gramatical,2024.2.2,Win32,144.092219,,,,,,,,,,,,,,,,,,,,,,,,577.635,578.77,a,1,[],[],[],[],[],[],[],0.473,1,578.77,579.271,,,,,,709,FEM,CON,150,prima,,a,0.473,,579.271,579.271,0.158333333,0.011111111,0,0,0,,0,187,187,258,1,,,,
,,,,,,ca35daa7c8f8563a75780379,66a626ef09d4e21e1a8894ec,6734d6a0347160dbb94b8b7f,2024-11-13_13h41.18.254,Tarea de género gramatical,2024.2.2,Win32,144.092219,,,,,,,,,,,,,,,,,,,,,,,,579.272,580.306,a,1,[],[],[],[],[],[],[],0.376,1,580.306,580.805,,,,,,637,FEM,CON,150,lista,,a,0.376,,580.805,580.805,0.158333333,0.011111111,0,0,0,,0,188,188,186,1,,,,
,,,,,,ca35daa7c8f8563a75780379,66a626ef09d4e21e1a8894ec,6734d6a0347160dbb94b8b7f,2024-11-13_13h41.18.254,Tarea de género gramatical,2024.2.2,Win32,144.092219,,,,,,,,,,,,,,,,,,,,,,,,580.807,582.028,a,1,[],[],[],[],[],[],[],0.564,1,582.029,582.528,,,,,,572,FEM,DIS,150,loca,el,a,0.564,,582.528,582.529,0.158333333,0.011111111,0,0,0,,0,189,189,121,1,,,,
,,,,,,ca35daa7c8f8563a75780379,66a626ef09d4e21e1a8894ec,6734d6a0347160dbb94b8b7f,2024-11-13_13h41.18.254,Tarea de género gramatical,2024.2.2,Win32,144.092219,,,,,,,,,,,,,,,,,,,,,,,,582.53,583.695,l,1,[],[],[],[],[],[],[],0.507,1,583.695,584.194,,,,,,600,MAS,AGR,150,mozo,el,l,0.507,,584.195,584.196,0.158333333,0.011111111,0,0,0,,0,190,190,149,1,,,,
,,,,,,ca35daa7c8f8563a75780379,66a626ef09d4e21e1a8894ec,6734d6a0347160dbb94b8b7f,2024-11-13_13h41.18.254,Tarea de género gramatical,2024.2.2,Win32,144.092219,,,,,,,,,,,,,,,,,,,,,,,,584.197,585.383,l,1,[],[],[],[],[],[],[],0.532,1,585.383,585.882,,,,,,701,MAS,DIS,150,dueño,la,l,0.532,,585.883,585.885,0.158333333,0.011111111,0,0,0,,0,191,191,250,1,,,,
,,,,,,ca35daa7c8f8563a75780379,66a626ef09d4e21e1a8894ec,6734d6a0347160dbb94b8b7f,2024-11-13_13h41.18.254,Tarea de género gramatical,2024.2.2,Win32,144.092219,,,,,,,,,,,,,,,,,,,,,,,,585.886,587.07,a,1,[],[],[],[],[],[],[],0.521,1,587.07,587.571,,,,,,872,FEM,DIS,150,rutina,el,a,0.521,,587.571,587.571,0.158333333,0.011111111,0,0,0,,0,192,192,421,1,,,,
,,,,,,ca35daa7c8f8563a75780379,66a626ef09d4e21e1a8894ec,6734d6a0347160dbb94b8b7f,2024-11-13_13h41.18.254,Tarea de género gramatical,2024.2.2,Win32,144.092219,,,,,,,,,,,,,,,,,,,,,,,,587.572,588.626,l,1,[],[],[],[],[],[],[],0.397,1,588.626,589.126,,,,,,773,MAS,DIS,150,marido,la,l,0.397,,589.126,589.126,0.158333333,0.011111111,0,0,0,,0,193,193,322,1,,,,
,,,,,,ca35daa7c8f8563a75780379,66a626ef09d4e21e1a8894ec,6734d6a0347160dbb94b8b7f,2024-11-13_13h41.18.254,Tarea de género gramatical,2024.2.2,Win32,144.092219,,,,,,,,,,,,,,,,,,,,,,,,589.127,590.216,a,1,[],[],[],[],[],[],[],0.434,1,590.217,590.71,,,,,,811,FEM,CON,150,oferta,,a,0.434,,590.71,590.71,0.158333333,0.011111111,0,0,0,,0,194,194,360,1,,,,
,,,,,,ca35daa7c8f8563a75780379,66a626ef09d4e21e1a8894ec,6734d6a0347160dbb94b8b7f,2024-11-13_13h41.18.254,Tarea de género gramatical,2024.2.2,Win32,144.092219,,,,,,,,,,,,,,,,,,,,,,,,590.712,591.793,l,1,[],[],[],[],[],[],[],0.425,1,591.793,592.293,,,,,,808,MAS,CON,150,motivo,,l,0.425,,592.294,592.295,0.158333333,0.011111111,0,0,0,,0,195,195,357,1,,,,
,,,,,,ca35daa7c8f8563a75780379,66a626ef09d4e21e1a8894ec,6734d6a0347160dbb94b8b7f,2024-11-13_13h41.18.254,Tarea de género gramatical,2024.2.2,Win32,144.092219,,,,,,,,,,,,,,,,,,,,,,,,592.296,593.28,a,1,[],[],[],[],[],[],[],0.328,1,593.28,593.78,,,,,,668,FEM,DIS,150,nieve,el,a,0.328,,593.78,593.78,0.158333333,0.011111111,0,0,0,,0,196,196,217,1,,,,
,,,,,,ca35daa7c8f8563a75780379,66a626ef09d4e21e1a8894ec,6734d6a0347160dbb94b8b7f,2024-11-13_13h41.18.254,Tarea de género gramatical,2024.2.2,Win32,144.092219,,,,,,,,,,,,,,,,,,,,,,,,593.781,594.801,l,1,[],[],[],[],[],[],[],0.362,1,594.801,595.301,,,,,,640,MAS,CON,150,campo,,l,0.362,,595.301,595.301,0.158333333,0.011111111,0,0,0,,0,197,197,189,1,,,,
,,,,,,ca35daa7c8f8563a75780379,66a626ef09d4e21e1a8894ec,6734d6a0347160dbb94b8b7f,2024-11-13_13h41.18.254,Tarea de género gramatical,2024.2.2,Win32,144.092219,,,,,,,,,,,,,,,,,,,,,,,,595.303,596.342,a,1,[],[],[],[],[],[],[],0.385,1,596.342,596.843,,,,,,661,FEM,CON,150,salud,,a,0.385,,596.843,596.843,0.158333333,0.011111111,0,0,0,,0,198,198,210,1,,,,
,,,,,,ca35daa7c8f8563a75780379,66a626ef09d4e21e1a8894ec,6734d6a0347160dbb94b8b7f,2024-11-13_13h41.18.254,Tarea de género gramatical,2024.2.2,Win32,144.092219,,,,,,,,,,,,,,,,,,,,,,,,596.843,598.016,a,1,[],[],[],[],[],[],[],0.516,1,598.017,598.517,,,,,,633,FEM,AGR,150,llave,la,a,0.516,,598.517,598.517,0.158333333,0.011111111,0,0,0,,0,199,199,182,1,,,,
,,,,,,ca35daa7c8f8563a75780379,66a626ef09d4e21e1a8894ec,6734d6a0347160dbb94b8b7f,2024-11-13_13h41.18.254,Tarea de género gramatical,2024.2.2,Win32,144.092219,,,,,,,,,,,,,,,,,,,,,,,,598.518,599.745,a,1,[],[],[],[],[],[],[],0.571,1,599.745,600.245,,,,,,841,FEM,CON,150,altura,,a,0.571,,600.246,600.248,0.158333333,0.011111111,0,0,0,,0,200,200,390,1,,,,
,,,,,,ca35daa7c8f8563a75780379,66a626ef09d4e21e1a8894ec,6734d6a0347160dbb94b8b7f,2024-11-13_13h41.18.254,Tarea de género gramatical,2024.2.2,Win32,144.092219,,,,,,,,,,,,,,,,,,,,,,,,600.248,601.287,a,1,[],[],[],[],[],[],[],0.383,1,601.287,601.788,,,,,,829,FEM,CON,150,granja,,a,0.383,,601.788,601.788,0.158333333,0.011111111,0,0,0,,0,201,201,378,1,,,,
,,,,,,ca35daa7c8f8563a75780379,66a626ef09d4e21e1a8894ec,6734d6a0347160dbb94b8b7f,2024-11-13_13h41.18.254,Tarea de género gramatical,2024.2.2,Win32,144.092219,,,,,,,,,,,,,,,,,,,,,,,,601.789,602.885,l,1,[],[],[],[],[],[],[],0.438,1,602.887,603.386,,,,,,508,MAS,CON,150,mono,,l,0.438,,603.386,603.387,0.158333333,0.011111111,0,0,0,,0,202,202,57,1,,,,
,,,,,,ca35daa7c8f8563a75780379,66a626ef09d4e21e1a8894ec,6734d6a0347160dbb94b8b7f,2024-11-13_13h41.18.254,Tarea de género gramatical,2024.2.2,Win32,144.092219,,,,,,,,,,,,,,,,,,,,,,,,603.389,604.413,a,1,[],[],[],[],[],[],[],0.362,1,604.414,604.913,,,,,,747,FEM,AGR,150,manta,la,a,0.362,,604.913,604.913,0.158333333,0.011111111,0,0,0,,0,203,203,296,1,,,,
,,,,,,ca35daa7c8f8563a75780379,66a626ef09d4e21e1a8894ec,6734d6a0347160dbb94b8b7f,2024-11-13_13h41.18.254,Tarea de género gramatical,2024.2.2,Win32,144.092219,,,,,,,,,,,,,,,,,,,,,,,,604.915,606.177,l,1,[],[],[],[],[],[],[],0.604,1,606.177,606.677,,,,,,581,MAS,DIS,150,kilo,la,l,0.604,,606.679,606.682,0.158333333,0.011111111,0,0,0,,0,204,204,130,1,,,,
,,,,,,ca35daa7c8f8563a75780379,66a626ef09d4e21e1a8894ec,6734d6a0347160dbb94b8b7f,2024-11-13_13h41.18.254,Tarea de género gramatical,2024.2.2,Win32,144.092219,,,,,,,,,,,,,,,,,,,,,,,,606.682,607.788,a,1,[],[],[],[],[],[],[],0.444,1,607.789,608.288,,,,,,554,FEM,DIS,150,vela,el,a,0.444,,608.288,608.288,0.158333333,0.011111111,0,0,0,,0,205,205,103,1,,,,
,,,,,,ca35daa7c8f8563a75780379,66a626ef09d4e21e1a8894ec,6734d6a0347160dbb94b8b7f,2024-11-13_13h41.18.254,Tarea de género gramatical,2024.2.2,Win32,144.092219,,,,,,,,,,,,,,,,,,,,,,,,608.29,609.275,l,1,[],[],[],[],[],[],[],0.327,1,609.275,609.775,,,,,,780,MAS,AGR,150,estado,el,l,0.327,,609.775,609.775,0.158333333,0.011111111,0,0,0,,0,206,206,329,1,,,,
,,,,,,ca35daa7c8f8563a75780379,66a626ef09d4e21e1a8894ec,6734d6a0347160dbb94b8b7f,2024-11-13_13h41.18.254,Tarea de género gramatical,2024.2.2,Win32,144.092219,,,,,,,,,,,,,,,,,,,,,,,,609.776,610.886,a,1,[],[],[],[],[],[],[],0.456,1,610.886,611.386,,,,,,764,FEM,DIS,150,señora,el,a,0.456,,611.386,611.386,0.158333333,0.011111111,0,0,0,,0,207,207,313,1,,,,
,,,,,,ca35daa7c8f8563a75780379,66a626ef09d4e21e1a8894ec,6734d6a0347160dbb94b8b7f,2024-11-13_13h41.18.254,Tarea de género gramatical,2024.2.2,Win32,144.092219,,,,,,,,,,,,,,,,,,,,,,,,611.388,612.533,l,1,[],[],[],[],[],[],[],0.487,1,612.533,613.032,,,,,,862,MAS,CON,150,espejo,,l,0.487,,613.032,613.032,0.158333333,0.011111111,0,0,0,,0,208,208,411,1,,,,
,,,,,,ca35daa7c8f8563a75780379,66a626ef09d4e21e1a8894ec,6734d6a0347160dbb94b8b7f,2024-11-13_13h41.18.254,Tarea de género gramatical,2024.2.2,Win32,144.092219,,,,,,,,,,,,,,,,,,,,,,,,613.033,614.206,l,1,[],[],[],[],[],[],[],0.515,1,614.206,614.706,,,,,,478,MAS,CON,150,club,,l,0.515,,614.708,614.709,0.158333333,0.011111111,0,0,0,,0,209,209,27,1,,,,
,,,,,,ca35daa7c8f8563a75780379,66a626ef09d4e21e1a8894ec,6734d6a0347160dbb94b8b7f,2024-11-13_13h41.18.254,Tarea de género gramatical,2024.2.2,Win32,144.092219,,,,,,,,,,,,,,,,,,,,,,,,614.71,615.699,a,1,[],[],[],[],[],[],[],0.329,1,615.699,616.199,,,,,,535,FEM,CON,150,gira,,a,0.329,,616.199,616.199,0.158333333,0.011111111,0,0,0,,0,210,210,84,1,,,,
,,,,,,ca35daa7c8f8563a75780379,66a626ef09d4e21e1a8894ec,6734d6a0347160dbb94b8b7f,2024-11-13_13h41.18.254,Tarea de género gramatical,2024.2.2,Win32,144.092219,,,,,,,,,,,,,,,,,,,,,,,,616.201,617.262,l,1,[],[],[],[],[],[],[],0.403,1,617.262,617.762,,,,,,532,MAS,CON,150,tubo,,l,0.403,,617.762,617.762,0.158333333,0.011111111,0,0,0,,0,211,211,81,1,,,,
,,,,,,ca35daa7c8f8563a75780379,66a626ef09d4e21e1a8894ec,6734d6a0347160dbb94b8b7f,2024-11-13_13h41.18.254,Tarea de género gramatical,2024.2.2,Win32,144.092219,,,,,,,,,,,,,,,,,,,,,,,,617.763,618.845,a,1,[],[],[],[],[],[],[],0.425,1,618.845,619.345,,,,,,673,FEM,CON,150,plata,,a,0.425,,619.345,619.345,0.158333333,0.011111111,0,0,0,,0,212,212,222,1,,,,
,,,,,,ca35daa7c8f8563a75780379,66a626ef09d4e21e1a8894ec,6734d6a0347160dbb94b8b7f,2024-11-13_13h41.18.254,Tarea de género gramatical,2024.2.2,Win32,144.092219,,,,,,,,,,,,,,,,,,,,,,,,619.346,620.436,a,1,[],[],[],[],[],[],[],0.433,1,620.437,620.936,,,,,,615,FEM,AGR,150,amiga,la,a,0.433,,620.937,620.938,0.158333333,0.011111111,0,0,0,,0,213,213,164,1,,,,
,,,,,,ca35daa7c8f8563a75780379,66a626ef09d4e21e1a8894ec,6734d6a0347160dbb94b8b7f,2024-11-13_13h41.18.254,Tarea de género gramatical,2024.2.2,Win32,144.092219,,,,,,,,,,,,,,,,,,,,,,,,620.939,621.95,a,1,[],[],[],[],[],[],[],0.35,1,621.95,622.45,,,,,,477,FEM,AGR,150,mesa,la,a,0.35,,622.45,622.45,0.158333333,0.011111111,0,0,0,,0,214,214,26,1,,,,
,,,,,,ca35daa7c8f8563a75780379,66a626ef09d4e21e1a8894ec,6734d6a0347160dbb94b8b7f,2024-11-13_13h41.18.254,Tarea de género gramatical,2024.2.2,Win32,144.092219,,,,,,,,,,,,,,,,,,,,,,,,622.451,623.513,l,1,[],[],[],[],[],[],[],0.407,1,623.513,624.013,,,,,,522,MAS,AGR,150,hoyo,el,l,0.407,,624.013,624.013,0.158333333,0.011111111,0,0,0,,0,215,215,71,1,,,,
,,,,,,ca35daa7c8f8563a75780379,66a626ef09d4e21e1a8894ec,6734d6a0347160dbb94b8b7f,2024-11-13_13h41.18.254,Tarea de género gramatical,2024.2.2,Win32,144.092219,,,,,,,,,,,,,,,,,,,,,,,,624.014,625.117,a,0,[],[],[],[],[],[],[],0.449,0,625.118,625.617,,,,,,834,MAS,AGR,150,pedazo,el,l,0.449,,625.617,625.618,0.158333333,0.011111111,0,0,0,,0,216,216,383,1,,,,
,,,,,,ca35daa7c8f8563a75780379,66a626ef09d4e21e1a8894ec,6734d6a0347160dbb94b8b7f,2024-11-13_13h41.18.254,Tarea de género gramatical,2024.2.2,Win32,144.092219,,,,,,,,,,,,,,,,,,,,,,,,625.619,626.756,a,1,[],[],[],[],[],[],[],0.48,1,626.757,627.256,,,,,,836,FEM,DIS,150,sombra,el,a,0.48,,627.256,627.256,0.158333333,0.011111111,0,0,0,,0,217,217,385,1,,,,
,,,,,,ca35daa7c8f8563a75780379,66a626ef09d4e21e1a8894ec,6734d6a0347160dbb94b8b7f,2024-11-13_13h41.18.254,Tarea de género gramatical,2024.2.2,Win32,144.092219,,,,,,,,,,,,,,,,,,,,,,,,627.258,628.472,l,1,[],[],[],[],[],[],[],0.556,1,628.472,628.971,,,,,,863,MAS,DIS,150,diario,la,l,0.556,,628.972,628.974,0.158333333,0.011111111,0,0,0,,0,218,218,412,1,,,,
,,,,,,ca35daa7c8f8563a75780379,66a626ef09d4e21e1a8894ec,6734d6a0347160dbb94b8b7f,2024-11-13_13h41.18.254,Tarea de género gramatical,2024.2.2,Win32,144.092219,,,,,,,,,,,,,,,,,,,,,,,,628.976,630.048,l,1,[],[],[],[],[],[],[],0.41,1,630.048,630.548,,,,,,604,MAS,CON,150,padre,,l,0.41,,630.549,630.549,0.158333333,0.011111111,0,0,0,,0,219,219,153,1,,,,
,,,,,,ca35daa7c8f8563a75780379,66a626ef09d4e21e1a8894ec,6734d6a0347160dbb94b8b7f,2024-11-13_13h41.18.254,Tarea de género gramatical,2024.2.2,Win32,144.092219,,,,,,,,,,,,,,,,,,,,,,,,630.549,631.806,l,1,[],[],[],[],[],[],[],0.599,1,631.806,632.306,,,,,,618,MAS,AGR,150,sitio,el,l,0.599,,632.306,632.306,0.158333333,0.011111111,0,0,0,,0,220,220,167,1,,,,
,,,,,,ca35daa7c8f8563a75780379,66a626ef09d4e21e1a8894ec,6734d6a0347160dbb94b8b7f,2024-11-13_13h41.18.254,Tarea de género gramatical,2024.2.2,Win32,144.092219,,,,,,,,,,,,,,,,,,,,,,,,632.307,633.403,a,1,[],[],[],[],[],[],[],0.438,1,633.403,633.902,,,,,,705,FEM,AGR,150,tribu,la,a,0.438,,633.902,633.903,0.158333333,0.011111111,0,0,0,,0,221,221,254,1,,,,
,,,,,,ca35daa7c8f8563a75780379,66a626ef09d4e21e1a8894ec,6734d6a0347160dbb94b8b7f,2024-11-13_13h41.18.254,Tarea de género gramatical,2024.2.2,Win32,144.092219,,,,,,,,,,,,,,,,,,,,,,,,633.904,634.965,a,1,[],[],[],[],[],[],[],0.405,1,634.965,635.465,,,,,,655,FEM,CON,150,reina,,a,0.405,,635.466,635.468,0.158333333,0.011111111,0,0,0,,0,222,222,204,1,,,,
,,,,,,ca35daa7c8f8563a75780379,66a626ef09d4e21e1a8894ec,6734d6a0347160dbb94b8b7f,2024-11-13_13h41.18.254,Tarea de género gramatical,2024.2.2,Win32,144.092219,,,,,,,,,,,,,,,,,,,,,,,,635.469,636.549,l,1,[],[],[],[],[],[],[],0.418,1,636.55,637.05,,,,,,491,MAS,DIS,150,bote,la,l,0.418,,637.05,637.051,0.158333333,0.011111111,0,0,0,,0,223,223,40,1,,,,
,,,,,,ca35daa7c8f8563a75780379,66a626ef09d4e21e1a8894ec,6734d6a0347160dbb94b8b7f,2024-11-13_13h41.18.254,Tarea de género gramatical,2024.2.2,Win32,144.092219,,,,,,,,,,,,,,,,,,,,,,,,637.053,638.119,a,0,[],[],[],[],[],[],[],0.401,0,638.12,638.619,,,,,,744,MAS,AGR,150,cable,el,l,0.401,,638.619,638.619,0.158333333,0.011111111,0,0,0,,0,224,224,293,1,,,,
,,,,,,ca35daa7c8f8563a75780379,66a626ef09d4e21e1a8894ec,6734d6a0347160dbb94b8b7f,2024-11-13_13h41.18.254,Tarea de género gramatical,2024.2.2,Win32,144.092219,,,,,,,,,,,,,,,,,,,,,,,,638.62,639.717,l,1,[],[],[],[],[],[],[],0.44,1,639.717,640.217,,,,,,606,MAS,AGR,150,amigo,el,l,0.44,,640.217,640.217,0.158333333,0.011111111,0,0,0,,0,225,225,155,1,,,,
,,,,,,ca35daa7c8f8563a75780379,66a626ef09d4e21e1a8894ec,6734d6a0347160dbb94b8b7f,2024-11-13_13h41.18.254,Tarea de género gramatical,2024.2.2,Win32,144.092219,,,,,,,,,,,,,,,,,,,,,,,,640.219,641.349,l,1,[],[],[],[],[],[],[],0.474,1,641.349,641.849,,,,,,660,MAS,AGR,150,baile,el,l,0.474,,641.849,641.849,0.158333333,0.011111111,0,0,0,,0,226,226,209,1,,,,
,,,,,,ca35daa7c8f8563a75780379,66a626ef09d4e21e1a8894ec,6734d6a0347160dbb94b8b7f,2024-11-13_13h41.18.254,Tarea de género gramatical,2024.2.2,Win32,144.092219,,,,,,,,,,,,,,,,,,,,,,,,641.851,642.814,a,1,[],[],[],[],[],[],[],0.308,1,642.814,643.314,,,,,,506,FEM,DIS,150,bola,el,a,0.308,,643.314,643.317,0.158333333,0.011111111,0,0,0,,0,227,227,55,1,,,,
,,,,,,ca35daa7c8f8563a75780379,66a626ef09d4e21e1a8894ec,6734d6a0347160dbb94b8b7f,2024-11-13_13h41.18.254,Tarea de género gramatical,2024.2.2,Win32,144.092219,,,,,,,,,,,,,,,,,,,,,,,,643.317,644.411,a,1,[],[],[],[],[],[],[],0.432,1,644.411,644.912,,,,,,698,FEM,DIS,150,letra,el,a,0.432,,644.912,644.912,0.158333333,0.011111111,0,0,0,,0,228,228,247,1,,,,
,,,,,,ca35daa7c8f8563a75780379,66a626ef09d4e21e1a8894ec,6734d6a0347160dbb94b8b7f,2024-11-13_13h41.18.254,Tarea de género gramatical,2024.2.2,Win32,144.092219,,,,,,,,,,,,,,,,,,,,,,,,644.913,645.995,a,1,[],[],[],[],[],[],[],0.424,1,645.995,646.495,,,,,,597,FEM,AGR,150,grúa,la,a,0.424,,646.496,646.496,0.158333333,0.011111111,0,0,0,,0,229,229,146,1,,,,
,,,,,,ca35daa7c8f8563a75780379,66a626ef09d4e21e1a8894ec,6734d6a0347160dbb94b8b7f,2024-11-13_13h41.18.254,Tarea de género gramatical,2024.2.2,Win32,144.092219,,,,,,,,,,,,,,,,,,,,,,,,646.497,647.593,a,1,[],[],[],[],[],[],[],0.438,1,647.593,648.092,,,,,,817,FEM,CON,150,teoría,,a,0.438,,648.092,648.093,0.158333333,0.011111111,0,0,0,,0,230,230,366,1,,,,
,,,,,,ca35daa7c8f8563a75780379,66a626ef09d4e21e1a8894ec,6734d6a0347160dbb94b8b7f,2024-11-13_13h41.18.254,Tarea de género gramatical,2024.2.2,Win32,144.092219,,,,,,,,,,,,,,,,,,,,,,,,648.095,649.141,l,1,[],[],[],[],[],[],[],0.39,1,649.142,649.641,,,,,,568,MAS,CON,150,baúl,,l,0.39,,649.643,649.644,0.158333333,0.011111111,0,0,0,,0,231,231,117,1,,,,
,,,,,,ca35daa7c8f8563a75780379,66a626ef09d4e21e1a8894ec,6734d6a0347160dbb94b8b7f,2024-11-13_13h41.18.254,Tarea de género gramatical,2024.2.2,Win32,144.092219,,,,,,,,,,,,,,,,,,,,,,,,649.646,650.767,a,1,[],[],[],[],[],[],[],0.459,1,650.768,651.266,,,,,,603,FEM,AGR,150,mujer,la,a,0.459,,651.266,651.266,0.158333333,0.011111111,0,0,0,,0,232,232,152,1,,,,
,,,,,,ca35daa7c8f8563a75780379,66a626ef09d4e21e1a8894ec,6734d6a0347160dbb94b8b7f,2024-11-13_13h41.18.254,Tarea de género gramatical,2024.2.2,Win32,144.092219,,,,,,,,,,,,,,,,,,,,,,,,651.268,652.28,l,1,[],[],[],[],[],[],[],0.357,1,652.281,652.78,,,,,,882,MAS,AGR,150,océano,el,l,0.357,,652.781,652.781,0.158333333,0.011111111,0,0,0,,0,233,233,431,1,,,,
,,,,,,ca35daa7c8f8563a75780379,66a626ef09d4e21e1a8894ec,6734d6a0347160dbb94b8b7f,2024-11-13_13h41.18.254,Tarea de género gramatical,2024.2.2,Win32,144.092219,,,,,,,,,,,,,,,,,,,,,,,,652.783,653.85,a,1,[],[],[],[],[],[],[],0.405,1,653.85,654.35,,,,,,494,FEM,DIS,150,zona,el,a,0.405,,654.35,654.351,0.158333333,0.011111111,0,0,0,,0,234,234,43,1,,,,
,,,,,,ca35daa7c8f8563a75780379,66a626ef09d4e21e1a8894ec,6734d6a0347160dbb94b8b7f,2024-11-13_13h41.18.254,Tarea de género gramatical,2024.2.2,Win32,144.092219,,,,,,,,,,,,,,,,,,,,,,,,654.353,655.42,a,0,[],[],[],[],[],[],[],0.411,0,655.42,655.92,,,,,,556,MAS,CON,150,test,,l,0.411,,655.92,655.92,0.158333333,0.011111111,0,0,0,,0,235,235,105,1,,,,
,,,,,,ca35daa7c8f8563a75780379,66a626ef09d4e21e1a8894ec,6734d6a0347160dbb94b8b7f,2024-11-13_13h41.18.254,Tarea de género gramatical,2024.2.2,Win32,144.092219,,,,,,,,,,,,,,,,,,,,,,,,655.921,657.121,l,1,[],[],[],[],[],[],[],0.545,1,657.123,657.621,,,,,,743,MAS,DIS,150,patio,la,l,0.545,,657.622,657.623,0.158333333,0.011111111,0,0,0,,0,236,236,292,1,,,,
,,,,,,ca35daa7c8f8563a75780379,66a626ef09d4e21e1a8894ec,6734d6a0347160dbb94b8b7f,2024-11-13_13h41.18.254,Tarea de género gramatical,2024.2.2,Win32,144.092219,,,,,,,,,,,,,,,,,,,,,,,,657.625,658.656,l,1,[],[],[],[],[],[],[],0.369,1,658.656,659.157,,,,,,480,MAS,AGR,150,cine,el,l,0.369,,659.157,659.157,0.158333333,0.011111111,0,0,0,,0,237,237,29,1,,,,
,,,,,,ca35daa7c8f8563a75780379,66a626ef09d4e21e1a8894ec,6734d6a0347160dbb94b8b7f,2024-11-13_13h41.18.254,Tarea de género gramatical,2024.2.2,Win32,144.092219,,,,,,,,,,,,,,,,,,,,,,,,659.159,660.42,l,1,[],[],[],[],[],[],[],0.604,1,660.421,660.921,,,,,,893,MAS,DIS,150,templo,la,l,0.604,,660.921,660.921,0.158333333,0.011111111,0,0,0,,0,238,238,442,1,,,,
,,,,,,ca35daa7c8f8563a75780379,66a626ef09d4e21e1a8894ec,6734d6a0347160dbb94b8b7f,2024-11-13_13h41.18.254,Tarea de género gramatical,2024.2.2,Win32,144.092219,,,,,,,,,,,,,,,,,,,,,,,,660.923,662.212,l,1,[],[],[],[],[],[],[],0.633,1,662.213,662.713,,,,,,815,MAS,DIS,150,código,la,l,0.633,,662.713,662.713,0.158333333,0.011111111,0,0,0,,0,239,239,364,1,,,,
,,,,,,ca35daa7c8f8563a75780379,66a626ef09d4e21e1a8894ec,6734d6a0347160dbb94b8b7f,2024-11-13_13h41.18.254,Tarea de género gramatical,2024.2.2,Win32,144.092219,,,,,,,,,,,,,,,,,,,,,,,,662.715,663.844,a,0,[],[],[],[],[],[],[],0.474,0,663.845,664.345,,,,,,677,MAS,DIS,150,vuelo,la,l,0.474,,664.346,664.348,0.158333333,0.011111111,0,0,0,,0,240,240,226,1,,,,
,,,,,,ca35daa7c8f8563a75780379,66a626ef09d4e21e1a8894ec,6734d6a0347160dbb94b8b7f,2024-11-13_13h41.18.254,Tarea de género gramatical,2024.2.2,Win32,144.092219,,,,,,,,,,,,,,,,,,,,,,,,664.349,665.567,a,1,[],[],[],[],[],[],[],0.556,1,665.569,666.067,,,,,,740,FEM,DIS,150,cabra,el,a,0.556,,666.067,666.067,0.158333333,0.011111111,0,0,0,,0,241,241,289,1,,,,
,,,,,,ca35daa7c8f8563a75780379,66a626ef09d4e21e1a8894ec,6734d6a0347160dbb94b8b7f,2024-11-13_13h41.18.254,Tarea de género gramatical,2024.2.2,Win32,144.092219,,,,,,,,,,,,,,,,,,,,,,,,666.069,667.158,l,1,[],[],[],[],[],[],[],0.435,1,667.158,667.657,,,,,,515,MAS,DIS,150,rayo,la,l,0.435,,667.657,667.658,0.158333333,0.011111111,0,0,0,,0,242,242,64,1,,,,
,,,,,,ca35daa7c8f8563a75780379,66a626ef09d4e21e1a8894ec,6734d6a0347160dbb94b8b7f,2024-11-13_13h41.18.254,Tarea de género gramatical,2024.2.2,Win32,144.092219,,,,,,,,,,,,,,,,,,,,,,,,667.659,668.769,a,1,[],[],[],[],[],[],[],0.454,1,668.769,669.269,,,,,,489,FEM,AGR,150,luna,la,a,0.454,,669.269,669.269,0.158333333,0.011111111,0,0,0,,0,243,243,38,1,,,,
,,,,,,ca35daa7c8f8563a75780379,66a626ef09d4e21e1a8894ec,6734d6a0347160dbb94b8b7f,2024-11-13_13h41.18.254,Tarea de género gramatical,2024.2.2,Win32,144.092219,,,,,,,,,,,,,,,,,,,,,,,,669.271,670.269,l,1,[],[],[],[],[],[],[],0.344,1,670.27,670.769,,,,,,670,MAS,CON,150,huevo,,l,0.344,,670.77,670.77,0.158333333,0.011111111,0,0,0,,0,244,244,219,1,,,,
,,,,,,ca35daa7c8f8563a75780379,66a626ef09d4e21e1a8894ec,6734d6a0347160dbb94b8b7f,2024-11-13_13h41.18.254,Tarea de género gramatical,2024.2.2,Win32,144.092219,,,,,,,,,,,,,,,,,,,,,,,,670.772,671.825,a,1,[],[],[],[],[],[],[],0.397,1,671.825,672.325,,,,,,837,FEM,AGR,150,página,la,a,0.397,,672.326,672.328,0.158333333,0.011111111,0,0,0,,0,245,245,386,1,,,,
,,,,,,ca35daa7c8f8563a75780379,66a626ef09d4e21e1a8894ec,6734d6a0347160dbb94b8b7f,2024-11-13_13h41.18.254,Tarea de género gramatical,2024.2.2,Win32,144.092219,,,,,,,,,,,,,,,,,,,,,,,,672.329,673.394,a,1,[],[],[],[],[],[],[],0.402,1,673.394,673.894,,,,,,621,FEM,AGR,150,mitad,la,a,0.402,,673.894,673.894,0.158333333,0.011111111,0,0,0,,0,246,246,170,1,,,,
,,,,,,ca35daa7c8f8563a75780379,66a626ef09d4e21e1a8894ec,6734d6a0347160dbb94b8b7f,2024-11-13_13h41.18.254,Tarea de género gramatical,2024.2.2,Win32,144.092219,,,,,,,,,,,,,,,,,,,,,,,,673.897,675.277,a,1,[],[],[],[],[],[],[],0.725,1,675.277,675.777,,,,,,608,FEM,DIS,150,chica,el,a,0.725,,675.777,675.777,0.158333333,0.011111111,0,0,0,,0,247,247,157,1,,,,
,,,,,,ca35daa7c8f8563a75780379,66a626ef09d4e21e1a8894ec,6734d6a0347160dbb94b8b7f,2024-11-13_13h41.18.254,Tarea de género gramatical,2024.2.2,Win32,144.092219,,,,,,,,,,,,,,,,,,,,,,,,675.778,676.826,a,1,[],[],[],[],[],[],[],0.389,1,676.826,677.326,,,,,,537,FEM,AGR,150,risa,la,a,0.389,,677.326,677.326,0.158333333,0.011111111,0,0,0,,0,248,248,86,1,,,,
,,,,,,ca35daa7c8f8563a75780379,66a626ef09d4e21e1a8894ec,6734d6a0347160dbb94b8b7f,2024-11-13_13h41.18.254,Tarea de género gramatical,2024.2.2,Win32,144.092219,,,,,,,,,,,,,,,,,,,,,,,,677.327,678.416,l,1,[],[],[],[],[],[],[],0.433,1,678.416,678.916,,,,,,749,MAS,DIS,150,rumbo,la,l,0.433,,678.917,678.919,0.158333333,0.011111111,0,0,0,,0,249,249,298,1,,,,
,,,,,,ca35daa7c8f8563a75780379,66a626ef09d4e21e1a8894ec,6734d6a0347160dbb94b8b7f,2024-11-13_13h41.18.254,Tarea de género gramatical,2024.2.2,Win32,144.092219,,,,,,,,,,,,,,,,,,,,,,,,678.92,680.354,l,1,[],[],[],[],[],[],[],0.774,1,680.354,680.854,,,,,,587,MAS,DIS,150,coco,la,l,0.774,,680.854,680.854,0.158333333,0.011111111,0,0,0,,0,250,250,136,1,,,,
,,,,,,ca35daa7c8f8563a75780379,66a626ef09d4e21e1a8894ec,6734d6a0347160dbb94b8b7f,2024-11-13_13h41.18.254,Tarea de género gramatical,2024.2.2,Win32,144.092219,,,,,,,,,,,,,,,,,,,,,,,,680.855,682.042,l,1,[],[],[],[],[],[],[],0.529,1,682.042,682.541,,,,,,694,MAS,CON,150,hielo,,l,0.529,,682.541,682.542,0.158333333,0.011111111,0,0,0,,0,251,251,243,1,,,,
,,,,,,ca35daa7c8f8563a75780379,66a626ef09d4e21e1a8894ec,6734d6a0347160dbb94b8b7f,2024-11-13_13h41.18.254,Tarea de género gramatical,2024.2.2,Win32,144.092219,,,,,,,,,,,,,,,,,,,,,,,,682.544,683.583,a,1,[],[],[],[],[],[],[],0.383,1,683.584,684.083,,,,,,627,FEM,AGR,150,broma,la,a,0.383,,684.083,684.083,0.158333333,0.011111111,0,0,0,,0,252,252,176,1,,,,
,,,,,,ca35daa7c8f8563a75780379,66a626ef09d4e21e1a8894ec,6734d6a0347160dbb94b8b7f,2024-11-13_13h41.18.254,Tarea de género gramatical,2024.2.2,Win32,144.092219,,,,,,,,,,,,,,,,,,,,,,,,684.086,685.66,l,0,[],[],[],[],[],[],[],0.919,0,685.661,686.16,,,,,,860,FEM,DIS,150,piedad,el,a,0.919,,686.16,686.16,0.158333333,0.011111111,0,0,0,,0,253,253,409,1,,,,
,,,,,,ca35daa7c8f8563a75780379,66a626ef09d4e21e1a8894ec,6734d6a0347160dbb94b8b7f,2024-11-13_13h41.18.254,Tarea de género gramatical,2024.2.2,Win32,144.092219,,,,,,,,,,,,,,,,,,,,,,,,686.161,687.244,a,1,[],[],[],[],[],[],[],0.425,1,687.246,687.744,,,,,,855,FEM,AGR,150,parada,la,a,0.425,,687.746,687.746,0.158333333,0.011111111,0,0,0,,0,254,254,404,1,,,,
,,,,,,ca35daa7c8f8563a75780379,66a626ef09d4e21e1a8894ec,6734d6a0347160dbb94b8b7f,2024-11-13_13h41.18.254,Tarea de género gramatical,2024.2.2,Win32,144.092219,,,,,,,,,,,,,,,,,,,,,,,,687.748,688.799,l,1,[],[],[],[],[],[],[],0.398,1,688.799,689.299,,,,,,706,MAS,CON,150,techo,,l,0.398,,689.299,689.299,0.158333333,0.011111111,0,0,0,,0,255,255,255,1,,,,
,,,,,,ca35daa7c8f8563a75780379,66a626ef09d4e21e1a8894ec,6734d6a0347160dbb94b8b7f,2024-11-13_13h41.18.254,Tarea de género gramatical,2024.2.2,Win32,144.092219,,,,,,,,,,,,,,,,,,,,,,,,689.3,690.473,a,1,[],[],[],[],[],[],[],0.517,1,690.473,690.973,,,,,,739,FEM,CON,150,tabla,,a,0.517,,690.973,690.973,0.158333333,0.011111111,0,0,0,,0,256,256,288,1,,,,
,,,,,,ca35daa7c8f8563a75780379,66a626ef09d4e21e1a8894ec,6734d6a0347160dbb94b8b7f,2024-11-13_13h41.18.254,Tarea de género gramatical,2024.2.2,Win32,144.092219,,,,,,,,,,,,,,,,,,,,,,,,690.975,692.202,l,0,[],[],[],[],[],[],[],0.571,0,692.203,692.703,,,,,,843,FEM,AGR,150,alarma,la,a,0.571,,692.703,692.703,0.158333333,0.011111111,0,0,0,,0,257,257,392,1,,,,
,,,,,,ca35daa7c8f8563a75780379,66a626ef09d4e21e1a8894ec,6734d6a0347160dbb94b8b7f,2024-11-13_13h41.18.254,Tarea de género gramatical,2024.2.2,Win32,144.092219,,,,,,,,,,,,,,,,,,,,,,,,692.704,694.015,a,1,[],[],[],[],[],[],[],0.654,1,694.016,694.515,,,,,,771,FEM,AGR,150,comida,la,a,0.654,,694.517,694.519,0.158333333,0.011111111,0,0,0,,0,258,258,320,1,,,,
