counterbalancing_condition,consent_prescreening.block_1/declare_consent,consent_prescreening.block_1/age_years,consent_prescreening.block_1/gender,consent_prescreening.block_1/language_disorder,consent_prescreening.block_1/first_language,PROLIFIC_PID,STUDY_ID,SESSION_ID,date,expName,psychopyVersion,OS,frameRate,check_prescreening_answers.started,check_prescreening_answers.stopped,Instructions.started,Instructions.stopped,instr_done_keyboard.keys,instr_done_touch.x,instr_done_touch.y,instr_done_touch.leftButton,instr_done_touch.midButton,instr_done_touch.rightButton,instr_done_touch.clicked_name,instruction_pages.thisRepN,instruction_pages.thisTrialN,instruction_pages.thisN,instruction_pages.thisIndex,instruction_pages.ran,pageN,phase,instruct_text,has_image,instruct_image,presentTrial.started,presentTrial.stopped,response.keys,response.corr,touch_resp.x,touch_resp.y,touch_resp.leftButton,touch_resp.midButton,touch_resp.rightButton,touch_resp.time,touch_resp.clicked_name,rt,corr,feedback.started,feedback.stopped,practice_trials.thisRepN,practice_trials.thisTrialN,practice_trials.thisN,practice_trials.thisIndex,practice_trials.ran,TrialID,StimulusType,Condition,PrimeDuration,Prime,Flanker,corrAns,response.rt,response.duration,instr_done_keyboard.rt,instr_done_keyboard.duration,Break.started,Break.stopped,break_done_touch.x,break_done_touch.y,break_done_touch.leftButton,break_done_touch.midButton,break_done_touch.rightButton,break_done_keyboard.keys,experiment_trials.thisRepN,experiment_trials.thisTrialN,experiment_trials.thisN,experiment_trials.thisIndex,experiment_trials.ran,break_done_touch.clicked_name,break_done_keyboard.rt,break_done_keyboard.duration,End.started,End.stopped
0,"[""over_18"",""comfortable"",""read_info"",""consent_given""]",29,M,"[""none""]","[""spanish""]",cfa4797c122c5024e9c138c6,66a626ef09d4e21e1a8894ec,6734d68c82184f7f01d46fa0,2024-11-13_13h41.04.702,Tarea de género gramatical,2024.2.2,Win32,59.88023952,,,,,,,,,,,,,,,,,,,,,,,,,,,,,,,,,,,,,,,,,,,,,,,,,,,,,,,,,,,,,,,,,,,,,,
,,,,,,cfa4797c122c5024e9c138c6,66a626ef09d4e21e1a8894ec,6734d68c82184f7f01d46fa0,2024-11-13_13h41.04.702,Tarea de género gramatical,2024.2.2,Win32,59.88023952,17.9424,17.9428,,,,,,,,,,,,,,,,,,,,,,,,,,,,,,,,,,,,,,,,,,,,,,,,,,,,,,,,,,,,,,,,,,,,
,,,,,,cfa4797c122c5024e9c138c6,66a626ef09d4e21e1a8894ec,6734d68c82184f7f01d46fa0,2024-11-13_13h41.04.702,Tarea de género gramatical,2024.2.2,Win32,59.88023952,,,17.9597,25.1462,,-0.039814772,-0.411111125,1,0,0,,0,0,0,0,1,1,instructions,"INSTRUCCIONES
Va a realizar una prueba de selección gramatical. Desde el comienzo de la prueba mire siempre al centro de la pantalla. Al cabo de un momento, aparecerán palabras. La tarea consiste en determinar si la palabra del centro (siempre será un sustantivo), pertenece al género masculino o femenino.

Pulse la tecla ESPACIO o toque el botón de abajo para continuar.",0,keyboardresponseFM.png,,,,,,,,,,,,,,,,,,,,,,,,,,,,,,,,,,,,,,,,,,,,,,,,,
,,,,,,cfa4797c122c5024e9c138c6,66a626ef09d4e21e1a8894ec,6734d68c82184f7f01d46fa0,2024-11-13_13h41.04.702,Tarea de género gramatical,2024.2.2,Win32,59.88023952,,,25.1531,33.8282,,-0.076851809,-0.402777778,1,0,0,,0,1,1,1,1,2,instructions,"Si su dispositivo tiene teclado, pulse la tecla ""A"" para las palabras en femenino (por ejemplo: ""mano"") y la tecla ""L"" para las palabras en masculino(por ejemplo: ""arroz"").
Pulse la tecla ESPACIO o toque el botón de abajo para continuar.",1,keyboardresponseFM.png,,,,,,,,,,,,,,,,,,,,,,,,,,,,,,,,,,,,,,,,,,,,,,,,,
,,,,,,cfa4797c122c5024e9c138c6,66a626ef09d4e21e1a8894ec,6734d68c82184f7f01d46fa0,2024-11-13_13h41.04.702,Tarea de género gramatical,2024.2.2,Win32,59.88023952,,,33.8295,35.8123,,-0.047222208,-0.404629672,1,0,0,instr_done_button,0,2,2,2,1,3,instructions,"Si utiliza un dispositivo sólo táctil, colóquelo en horizontal y utilice los botones de la pantalla. No utilice el ratón.
Pulse la tecla ESPACIO o toque el botón de abajo para continuar.",2,touchresponseFM.png,,,,,,,,,,,,,,,,,,,,,,,,,,,,,,,,,,,,,,,,,,,,,,,,,
,,,,,,cfa4797c122c5024e9c138c6,66a626ef09d4e21e1a8894ec,6734d68c82184f7f01d46fa0,2024-11-13_13h41.04.702,Tarea de género gramatical,2024.2.2,Win32,59.88023952,,,35.8188,42.4824,,0.062962991,-0.412962949,1,0,0,instr_done_button,0,3,3,3,1,4,instructions,"Es muy importante que responda con la mayor rapidez y precisión posibles, ya que cada cadena de letras sólo estará en pantalla durante un instante. Si no responde en ese tiempo, aparecerá el mensaje ""Muy lento"" y el experimento pasará a la siguiente palabra. Los primeros 15 intentos serán de práctica y habrá dos descansos durante la prueba.
Pulse la tecla ESPACIO o toque el botón de abajo para iniciar la parte de práctica.",0,keyboardresponseFM.png,,,,,,,,,,,,,,,,,,,,,,,,,,,,,,,,,,,,,,,,,,,,,,,,,
,,,,,,cfa4797c122c5024e9c138c6,66a626ef09d4e21e1a8894ec,6734d68c82184f7f01d46fa0,2024-11-13_13h41.04.702,Tarea de género gramatical,2024.2.2,Win32,59.88023952,,,,,,,,,,,,,,,,,,,,,,42.4932,45.1455,,0,[],[],[],[],[],[],[],,-1,45.1459,45.6451,0,0,0,4,1,2005,FEM,CON,150,placa,,a,,,,,,,,,,,,,,,,,,,,,,
,,,,,,cfa4797c122c5024e9c138c6,66a626ef09d4e21e1a8894ec,6734d68c82184f7f01d46fa0,2024-11-13_13h41.04.702,Tarea de género gramatical,2024.2.2,Win32,59.88023952,,,,,,,,,,,,,,,,,,,,,,45.6472,46.9787,l,1,[],[],[],[],[],[],[],0.6527,1,46.9899,47.4783,0,1,1,9,1,2010,MAS,AGR,150,vecino,el,l,0.6527,,,,,,,,,,,,,,,,,,,,,
,,,,,,cfa4797c122c5024e9c138c6,66a626ef09d4e21e1a8894ec,6734d68c82184f7f01d46fa0,2024-11-13_13h41.04.702,Tarea de género gramatical,2024.2.2,Win32,59.88023952,,,,,,,,,,,,,,,,,,,,,,47.4802,48.595,a,0,[],[],[],[],[],[],[],0.4345,0,48.5964,49.0952,0,2,2,14,1,2015,MAS,DIS,150,robot,la,l,0.4345,,,,,,,,,,,,,,,,,,,,,
,,,,,,cfa4797c122c5024e9c138c6,66a626ef09d4e21e1a8894ec,6734d68c82184f7f01d46fa0,2024-11-13_13h41.04.702,Tarea de género gramatical,2024.2.2,Win32,59.88023952,,,,,,,,,,,,,,,,,,,,,,49.0979,50.2618,l,0,[],[],[],[],[],[],[],0.4907,0,50.262,50.7617,0,3,3,5,1,2006,FEM,DIS,150,serie,el,a,0.4907,,,,,,,,,,,,,,,,,,,,,
,,,,,,cfa4797c122c5024e9c138c6,66a626ef09d4e21e1a8894ec,6734d68c82184f7f01d46fa0,2024-11-13_13h41.04.702,Tarea de género gramatical,2024.2.2,Win32,59.88023952,,,,,,,,,,,,,,,,,,,,,,50.7625,52.2616,l,0,[],[],[],[],[],[],[],0.8242,0,52.2618,52.7616,0,4,4,7,1,2008,FEM,CON,150,siesta,,a,0.8242,,,,,,,,,,,,,,,,,,,,,
,,,,,,cfa4797c122c5024e9c138c6,66a626ef09d4e21e1a8894ec,6734d68c82184f7f01d46fa0,2024-11-13_13h41.04.702,Tarea de género gramatical,2024.2.2,Win32,59.88023952,,,,,,,,,,,,,,,,,,,,,,52.763,54.0951,l,1,[],[],[],[],[],[],[],0.651,1,54.0961,54.595,0,5,5,11,1,2012,MAS,DIS,150,clima,la,l,0.651,,,,,,,,,,,,,,,,,,,,,
,,,,,,cfa4797c122c5024e9c138c6,66a626ef09d4e21e1a8894ec,6734d68c82184f7f01d46fa0,2024-11-13_13h41.04.702,Tarea de género gramatical,2024.2.2,Win32,59.88023952,,,,,,,,,,,,,,,,,,,,,,54.5957,55.7785,l,0,[],[],[],[],[],[],[],0.5022,0,55.7795,56.2785,0,6,6,3,1,2004,FEM,AGR,150,venta,la,a,0.5022,,,,,,,,,,,,,,,,,,,,,
,,,,,,cfa4797c122c5024e9c138c6,66a626ef09d4e21e1a8894ec,6734d68c82184f7f01d46fa0,2024-11-13_13h41.04.702,Tarea de género gramatical,2024.2.2,Win32,59.88023952,,,,,,,,,,,,,,,,,,,,,,56.2797,57.7453,l,1,[],[],[],[],[],[],[],0.7945,1,57.7467,58.2451,0,7,7,10,1,2011,MAS,CON,150,canal,,l,0.7945,,,,,,,,,,,,,,,,,,,,,
,,,,,,cfa4797c122c5024e9c138c6,66a626ef09d4e21e1a8894ec,6734d68c82184f7f01d46fa0,2024-11-13_13h41.04.702,Tarea de género gramatical,2024.2.2,Win32,59.88023952,,,,,,,,,,,,,,,,,,,,,,58.2465,59.6284,a,1,[],[],[],[],[],[],[],0.7081,1,59.6284,60.1285,0,8,8,1,1,2002,FEM,CON,150,pala,,a,0.7081,,,,,,,,,,,,,,,,,,,,,
,,,,,,cfa4797c122c5024e9c138c6,66a626ef09d4e21e1a8894ec,6734d68c82184f7f01d46fa0,2024-11-13_13h41.04.702,Tarea de género gramatical,2024.2.2,Win32,59.88023952,,,,,,,,,,,,,,,,,,,,,,60.1308,61.6284,a,1,[],[],[],[],[],[],[],0.8242,1,61.6285,62.1286,0,9,9,2,1,2003,FEM,DIS,150,daga,el,a,0.8242,,,,,,,,,,,,,,,,,,,,,
,,,,,,cfa4797c122c5024e9c138c6,66a626ef09d4e21e1a8894ec,6734d68c82184f7f01d46fa0,2024-11-13_13h41.04.702,Tarea de género gramatical,2024.2.2,Win32,59.88023952,,,,,,,,,,,,,,,,,,,,,,62.1306,63.7283,a,1,[],[],[],[],[],[],[],0.9194,1,63.7283,64.2283,0,10,10,6,1,2007,FEM,AGR,150,navaja,la,a,0.9194,,,,,,,,,,,,,,,,,,,,,
,,,,,,cfa4797c122c5024e9c138c6,66a626ef09d4e21e1a8894ec,6734d68c82184f7f01d46fa0,2024-11-13_13h41.04.702,Tarea de género gramatical,2024.2.2,Win32,59.88023952,,,,,,,,,,,,,,,,,,,,,,64.2294,65.5449,l,1,[],[],[],[],[],[],[],0.6361,1,65.5449,66.0453,0,11,11,8,1,2009,MAS,DIS,150,puerto,la,l,0.6361,,,,,,,,,,,,,,,,,,,,,
,,,,,,cfa4797c122c5024e9c138c6,66a626ef09d4e21e1a8894ec,6734d68c82184f7f01d46fa0,2024-11-13_13h41.04.702,Tarea de género gramatical,2024.2.2,Win32,59.88023952,,,,,,,,,,,,,,,,,,,,,,66.0467,67.4615,l,1,[],[],[],[],[],[],[],0.7342,1,67.4616,67.962,0,12,12,12,1,2013,MAS,AGR,150,acero,el,l,0.7342,,,,,,,,,,,,,,,,,,,,,
,,,,,,cfa4797c122c5024e9c138c6,66a626ef09d4e21e1a8894ec,6734d68c82184f7f01d46fa0,2024-11-13_13h41.04.702,Tarea de género gramatical,2024.2.2,Win32,59.88023952,,,,,,,,,,,,,,,,,,,,,,67.9638,69.2286,a,1,[],[],[],[],[],[],[],0.5912,1,69.2287,69.7284,0,13,13,0,1,2001,FEM,AGR,150,nuca,la,a,0.5912,,,,,,,,,,,,,,,,,,,,,
,,,,,,cfa4797c122c5024e9c138c6,66a626ef09d4e21e1a8894ec,6734d68c82184f7f01d46fa0,2024-11-13_13h41.04.702,Tarea de género gramatical,2024.2.2,Win32,59.88023952,,,,,,,,,,,,,,,,,,,,,,69.7293,70.9119,l,1,[],[],[],[],[],[],[],0.5129,1,70.912,71.4114,0,14,14,13,1,2014,MAS,CON,150,siglo,,l,0.5129,,,,,,,,,,,,,,,,,,,,,
,,,,,,cfa4797c122c5024e9c138c6,66a626ef09d4e21e1a8894ec,6734d68c82184f7f01d46fa0,2024-11-13_13h41.04.702,Tarea de género gramatical,2024.2.2,Win32,59.88023952,,,75.9489,78.5617,space,0.071296339,-0.075000021,0,0,0,,,,,,,,,,,,78.5908,79.8829,l,1,[],[],[],[],[],[],[],0.617,1,79.883,80.3826,,,,,,131,MAS,CON,150,kilo,,l,0.617,,2.5938,,80.3828,80.3851,0.071296339,-0.075000021,0,0,0,,0,0,0,130,1,,,,,
,,,,,,cfa4797c122c5024e9c138c6,66a626ef09d4e21e1a8894ec,6734d68c82184f7f01d46fa0,2024-11-13_13h41.04.702,Tarea de género gramatical,2024.2.2,Win32,59.88023952,,,,,,,,,,,,,,,,,,,,,,80.3859,81.4828,a,1,[],[],[],[],[],[],[],0.4304,1,81.4829,81.9783,,,,,,440,FEM,CON,150,patada,,a,0.4304,,,,81.9784,81.9784,0.071296339,-0.075000021,0,0,0,,0,1,1,439,1,,,,,
,,,,,,cfa4797c122c5024e9c138c6,66a626ef09d4e21e1a8894ec,6734d68c82184f7f01d46fa0,2024-11-13_13h41.04.702,Tarea de género gramatical,2024.2.2,Win32,59.88023952,,,,,,,,,,,,,,,,,,,,,,81.9793,83.195,l,1,[],[],[],[],[],[],[],0.5341,1,83.1951,83.6992,,,,,,10,MAS,AGR,150,niño,el,l,0.5341,,,,83.7001,83.7005,0.071296339,-0.075000021,0,0,0,,0,2,2,9,1,,,,,
,,,,,,cfa4797c122c5024e9c138c6,66a626ef09d4e21e1a8894ec,6734d68c82184f7f01d46fa0,2024-11-13_13h41.04.702,Tarea de género gramatical,2024.2.2,Win32,59.88023952,,,,,,,,,,,,,,,,,,,,,,83.7008,84.8285,a,1,[],[],[],[],[],[],[],0.4466,1,84.8285,85.3327,,,,,,289,FEM,AGR,150,tabla,la,a,0.4466,,,,85.3328,85.3328,0.071296339,-0.075000021,0,0,0,,0,3,3,288,1,,,,,
,,,,,,cfa4797c122c5024e9c138c6,66a626ef09d4e21e1a8894ec,6734d68c82184f7f01d46fa0,2024-11-13_13h41.04.702,Tarea de género gramatical,2024.2.2,Win32,59.88023952,,,,,,,,,,,,,,,,,,,,,,85.3335,86.6665,a,1,[],[],[],[],[],[],[],0.6507,1,86.6666,87.1616,,,,,,229,FEM,AGR,150,celda,la,a,0.6507,,,,87.1617,87.1618,0.071296339,-0.075000021,0,0,0,,0,4,4,228,1,,,,,
,,,,,,cfa4797c122c5024e9c138c6,66a626ef09d4e21e1a8894ec,6734d68c82184f7f01d46fa0,2024-11-13_13h41.04.702,Tarea de género gramatical,2024.2.2,Win32,59.88023952,,,,,,,,,,,,,,,,,,,,,,87.1626,88.3328,l,0,[],[],[],[],[],[],[],0.5138,0,88.3333,88.8284,,,,,,201,FEM,DIS,150,leche,el,a,0.5138,,,,88.8284,88.8285,0.071296339,-0.075000021,0,0,0,,0,5,5,200,1,,,,,
,,,,,,cfa4797c122c5024e9c138c6,66a626ef09d4e21e1a8894ec,6734d68c82184f7f01d46fa0,2024-11-13_13h41.04.702,Tarea de género gramatical,2024.2.2,Win32,59.88023952,,,,,,,,,,,,,,,,,,,,,,88.8294,90.0995,l,1,[],[],[],[],[],[],[],0.5971,1,90.1005,90.5994,,,,,,114,MAS,DIS,150,menú,la,l,0.5971,,,,90.6002,90.6006,0.071296339,-0.075000021,0,0,0,,0,6,6,113,1,,,,,
,,,,,,cfa4797c122c5024e9c138c6,66a626ef09d4e21e1a8894ec,6734d68c82184f7f01d46fa0,2024-11-13_13h41.04.702,Tarea de género gramatical,2024.2.2,Win32,59.88023952,,,,,,,,,,,,,,,,,,,,,,90.6012,91.7287,a,1,[],[],[],[],[],[],[],0.4369,1,91.7288,92.2326,,,,,,99,FEM,DIS,150,fase,el,a,0.4369,,,,92.2327,92.2327,0.071296339,-0.075000021,0,0,0,,0,7,7,98,1,,,,,
,,,,,,cfa4797c122c5024e9c138c6,66a626ef09d4e21e1a8894ec,6734d68c82184f7f01d46fa0,2024-11-13_13h41.04.702,Tarea de género gramatical,2024.2.2,Win32,59.88023952,,,,,,,,,,,,,,,,,,,,,,92.2334,93.3162,l,1,[],[],[],[],[],[],[],0.4005,1,93.3162,93.8117,,,,,,132,MAS,DIS,150,velo,la,l,0.4005,,,,93.8117,93.8118,0.071296339,-0.075000021,0,0,0,,0,8,8,131,1,,,,,
,,,,,,cfa4797c122c5024e9c138c6,66a626ef09d4e21e1a8894ec,6734d68c82184f7f01d46fa0,2024-11-13_13h41.04.702,Tarea de género gramatical,2024.2.2,Win32,59.88023952,,,,,,,,,,,,,,,,,,,,,,93.8125,94.9329,a,1,[],[],[],[],[],[],[],0.4505,1,94.933,95.4282,,,,,,171,FEM,DIS,150,mitad,el,a,0.4505,,,,95.4283,95.4284,0.071296339,-0.075000021,0,0,0,,0,9,9,170,1,,,,,
,,,,,,cfa4797c122c5024e9c138c6,66a626ef09d4e21e1a8894ec,6734d68c82184f7f01d46fa0,2024-11-13_13h41.04.702,Tarea de género gramatical,2024.2.2,Win32,59.88023952,,,,,,,,,,,,,,,,,,,,,,95.4289,96.7327,l,1,[],[],[],[],[],[],[],0.6473,1,96.7328,97.2285,,,,,,202,MAS,AGR,150,honor,el,l,0.6473,,,,97.2285,97.2287,0.071296339,-0.075000021,0,0,0,,0,10,10,201,1,,,,,
,,,,,,cfa4797c122c5024e9c138c6,66a626ef09d4e21e1a8894ec,6734d68c82184f7f01d46fa0,2024-11-13_13h41.04.702,Tarea de género gramatical,2024.2.2,Win32,59.88023952,,,,,,,,,,,,,,,,,,,,,,97.2301,98.5783,l,0,[],[],[],[],[],[],[],0.6676,0,98.5788,99.066,,,,,,223,FEM,AGR,150,plata,la,a,0.6676,,,,99.0668,99.0672,0.071296339,-0.075000021,0,0,0,,0,11,11,222,1,,,,,
,,,,,,cfa4797c122c5024e9c138c6,66a626ef09d4e21e1a8894ec,6734d68c82184f7f01d46fa0,2024-11-13_13h41.04.702,Tarea de género gramatical,2024.2.2,Win32,59.88023952,,,,,,,,,,,,,,,,,,,,,,99.0675,100.3494,l,1,[],[],[],[],[],[],[],0.6004,1,100.35,100.8493,,,,,,438,MAS,DIS,150,tanque,la,l,0.6004,,,,100.8494,100.8494,0.071296339,-0.075000021,0,0,0,,0,12,12,437,1,,,,,
,,,,,,cfa4797c122c5024e9c138c6,66a626ef09d4e21e1a8894ec,6734d68c82184f7f01d46fa0,2024-11-13_13h41.04.702,Tarea de género gramatical,2024.2.2,Win32,59.88023952,,,,,,,,,,,,,,,,,,,,,,100.8501,101.9161,a,1,[],[],[],[],[],[],[],0.397,1,101.9161,102.4118,,,,,,163,FEM,AGR,150,calle,la,a,0.397,,,,102.4118,102.4118,0.071296339,-0.075000021,0,0,0,,0,13,13,162,1,,,,,
,,,,,,cfa4797c122c5024e9c138c6,66a626ef09d4e21e1a8894ec,6734d68c82184f7f01d46fa0,2024-11-13_13h41.04.702,Tarea de género gramatical,2024.2.2,Win32,59.88023952,,,,,,,,,,,,,,,,,,,,,,102.4124,103.4952,l,0,[],[],[],[],[],[],[],0.4001,0,103.4957,103.9993,,,,,,357,FEM,DIS,150,lengua,el,a,0.4001,,,,103.9994,103.9994,0.071296339,-0.075000021,0,0,0,,0,14,14,356,1,,,,,
,,,,,,cfa4797c122c5024e9c138c6,66a626ef09d4e21e1a8894ec,6734d68c82184f7f01d46fa0,2024-11-13_13h41.04.702,Tarea de género gramatical,2024.2.2,Win32,59.88023952,,,,,,,,,,,,,,,,,,,,,,103.9999,105.0949,l,1,[],[],[],[],[],[],[],0.4123,1,105.0953,105.5998,,,,,,30,MAS,DIS,150,cine,la,l,0.4123,,,,105.6006,105.6009,0.071296339,-0.075000021,0,0,0,,0,15,15,29,1,,,,,
,,,,,,cfa4797c122c5024e9c138c6,66a626ef09d4e21e1a8894ec,6734d68c82184f7f01d46fa0,2024-11-13_13h41.04.702,Tarea de género gramatical,2024.2.2,Win32,59.88023952,,,,,,,,,,,,,,,,,,,,,,105.6012,106.8453,l,1,[],[],[],[],[],[],[],0.5698,1,106.8455,107.3451,,,,,,311,MAS,CON,150,camino,,l,0.5698,,,,107.3452,107.3452,0.071296339,-0.075000021,0,0,0,,0,16,16,310,1,,,,,
,,,,,,cfa4797c122c5024e9c138c6,66a626ef09d4e21e1a8894ec,6734d68c82184f7f01d46fa0,2024-11-13_13h41.04.702,Tarea de género gramatical,2024.2.2,Win32,59.88023952,,,,,,,,,,,,,,,,,,,,,,107.3459,108.7116,l,1,[],[],[],[],[],[],[],0.6869,1,108.7117,109.1995,,,,,,46,MAS,AGR,150,odio,el,l,0.6869,,,,109.1995,109.1996,0.071296339,-0.075000021,0,0,0,,0,17,17,45,1,,,,,
,,,,,,cfa4797c122c5024e9c138c6,66a626ef09d4e21e1a8894ec,6734d68c82184f7f01d46fa0,2024-11-13_13h41.04.702,Tarea de género gramatical,2024.2.2,Win32,59.88023952,,,,,,,,,,,,,,,,,,,,,,109.2003,110.2832,a,1,[],[],[],[],[],[],[],0.4007,1,110.2833,110.7783,,,,,,13,FEM,AGR,150,hija,la,a,0.4007,,,,110.7783,110.7784,0.071296339,-0.075000021,0,0,0,,0,18,18,12,1,,,,,
,,,,,,cfa4797c122c5024e9c138c6,66a626ef09d4e21e1a8894ec,6734d68c82184f7f01d46fa0,2024-11-13_13h41.04.702,Tarea de género gramatical,2024.2.2,Win32,59.88023952,,,,,,,,,,,,,,,,,,,,,,110.7791,112.0645,l,1,[],[],[],[],[],[],[],0.6154,1,112.0645,112.566,,,,,,310,MAS,AGR,150,nombre,el,l,0.6154,,,,112.566,112.566,0.071296339,-0.075000021,0,0,0,,0,19,19,309,1,,,,,
,,,,,,cfa4797c122c5024e9c138c6,66a626ef09d4e21e1a8894ec,6734d68c82184f7f01d46fa0,2024-11-13_13h41.04.702,Tarea de género gramatical,2024.2.2,Win32,59.88023952,,,,,,,,,,,,,,,,,,,,,,112.5668,113.6662,a,1,[],[],[],[],[],[],[],0.4173,1,113.6663,114.166,,,,,,241,FEM,AGR,150,pasta,la,a,0.4173,,,,114.1667,114.1671,0.071296339,-0.075000021,0,0,0,,0,20,20,240,1,,,,,
,,,,,,cfa4797c122c5024e9c138c6,66a626ef09d4e21e1a8894ec,6734d68c82184f7f01d46fa0,2024-11-13_13h41.04.702,Tarea de género gramatical,2024.2.2,Win32,59.88023952,,,,,,,,,,,,,,,,,,,,,,114.1675,115.7783,l,1,[],[],[],[],[],[],[],0.9205,1,115.7784,116.266,,,,,,348,MAS,DIS,150,anillo,la,l,0.9205,,,,116.266,116.2661,0.071296339,-0.075000021,0,0,0,,0,21,21,347,1,,,,,
,,,,,,cfa4797c122c5024e9c138c6,66a626ef09d4e21e1a8894ec,6734d68c82184f7f01d46fa0,2024-11-13_13h41.04.702,Tarea de género gramatical,2024.2.2,Win32,59.88023952,,,,,,,,,,,,,,,,,,,,,,116.2669,117.6954,l,1,[],[],[],[],[],[],[],0.7525,1,117.6956,118.1992,,,,,,130,MAS,AGR,150,yate,el,l,0.7525,,,,118.1992,118.1993,0.071296339,-0.075000021,0,0,0,,0,22,22,129,1,,,,,
,,,,,,cfa4797c122c5024e9c138c6,66a626ef09d4e21e1a8894ec,6734d68c82184f7f01d46fa0,2024-11-13_13h41.04.702,Tarea de género gramatical,2024.2.2,Win32,59.88023952,,,,,,,,,,,,,,,,,,,,,,118.2,119.5117,l,0,[],[],[],[],[],[],[],0.6288,0,119.5123,120.016,,,,,,387,FEM,DIS,150,página,el,a,0.6288,,,,120.016,120.0161,0.071296339,-0.075000021,0,0,0,,0,23,23,386,1,,,,,
,,,,,,cfa4797c122c5024e9c138c6,66a626ef09d4e21e1a8894ec,6734d68c82184f7f01d46fa0,2024-11-13_13h41.04.702,Tarea de género gramatical,2024.2.2,Win32,59.88023952,,,,,,,,,,,,,,,,,,,,,,120.0166,121.3661,a,1,[],[],[],[],[],[],[],0.667,1,121.3665,121.8662,,,,,,91,FEM,AGR,150,hoja,la,a,0.667,,,,121.8671,121.8675,0.071296339,-0.075000021,0,0,0,,0,24,24,90,1,,,,,
,,,,,,cfa4797c122c5024e9c138c6,66a626ef09d4e21e1a8894ec,6734d68c82184f7f01d46fa0,2024-11-13_13h41.04.702,Tarea de género gramatical,2024.2.2,Win32,59.88023952,,,,,,,,,,,,,,,,,,,,,,121.8679,123.0451,a,1,[],[],[],[],[],[],[],0.4898,1,123.0451,123.545,,,,,,129,FEM,DIS,150,rana,el,a,0.4898,,,,123.5451,123.5451,0.071296339,-0.075000021,0,0,0,,0,25,25,128,1,,,,,
,,,,,,cfa4797c122c5024e9c138c6,66a626ef09d4e21e1a8894ec,6734d68c82184f7f01d46fa0,2024-11-13_13h41.04.702,Tarea de género gramatical,2024.2.2,Win32,59.88023952,,,,,,,,,,,,,,,,,,,,,,123.5456,124.5995,a,1,[],[],[],[],[],[],[],0.3836,1,124.5996,125.0994,,,,,,181,FEM,AGR,150,tarde,la,a,0.3836,,,,125.0994,125.0994,0.071296339,-0.075000021,0,0,0,,0,26,26,180,1,,,,,
,,,,,,cfa4797c122c5024e9c138c6,66a626ef09d4e21e1a8894ec,6734d68c82184f7f01d46fa0,2024-11-13_13h41.04.702,Tarea de género gramatical,2024.2.2,Win32,59.88023952,,,,,,,,,,,,,,,,,,,,,,125.1,126.5829,a,1,[],[],[],[],[],[],[],0.8003,1,126.5829,127.0784,,,,,,50,FEM,CON,150,dama,,a,0.8003,,,,127.0784,127.0784,0.071296339,-0.075000021,0,0,0,,0,27,27,49,1,,,,,
,,,,,,cfa4797c122c5024e9c138c6,66a626ef09d4e21e1a8894ec,6734d68c82184f7f01d46fa0,2024-11-13_13h41.04.702,Tarea de género gramatical,2024.2.2,Win32,59.88023952,,,,,,,,,,,,,,,,,,,,,,127.0791,128.4157,l,1,[],[],[],[],[],[],[],0.6665,1,128.4158,128.9117,,,,,,251,MAS,CON,150,dueño,,l,0.6665,,,,128.9117,128.9118,0.071296339,-0.075000021,0,0,0,,0,28,28,250,1,,,,,
,,,,,,cfa4797c122c5024e9c138c6,66a626ef09d4e21e1a8894ec,6734d68c82184f7f01d46fa0,2024-11-13_13h41.04.702,Tarea de género gramatical,2024.2.2,Win32,59.88023952,,,,,,,,,,,,,,,,,,,,,,128.9125,130.0495,a,1,[],[],[],[],[],[],[],0.4804,1,130.0495,130.545,,,,,,367,FEM,AGR,150,teoría,la,a,0.4804,,,,130.5458,130.5461,0.071296339,-0.075000021,0,0,0,,0,29,29,366,1,,,,,
,,,,,,cfa4797c122c5024e9c138c6,66a626ef09d4e21e1a8894ec,6734d68c82184f7f01d46fa0,2024-11-13_13h41.04.702,Tarea de género gramatical,2024.2.2,Win32,59.88023952,,,,,,,,,,,,,,,,,,,,,,130.5465,131.7996,a,1,[],[],[],[],[],[],[],0.5837,1,131.7997,132.2994,,,,,,379,FEM,AGR,150,granja,la,a,0.5837,,,,132.2995,132.2995,0.071296339,-0.075000021,0,0,0,,0,30,30,378,1,,,,,
,,,,,,cfa4797c122c5024e9c138c6,66a626ef09d4e21e1a8894ec,6734d68c82184f7f01d46fa0,2024-11-13_13h41.04.702,Tarea de género gramatical,2024.2.2,Win32,59.88023952,,,,,,,,,,,,,,,,,,,,,,132.3,133.3783,a,1,[],[],[],[],[],[],[],0.4003,1,133.3784,133.8662,,,,,,309,FEM,DIS,150,esposa,el,a,0.4003,,,,133.8663,133.8663,0.071296339,-0.075000021,0,0,0,,0,31,31,308,1,,,,,
,,,,,,cfa4797c122c5024e9c138c6,66a626ef09d4e21e1a8894ec,6734d68c82184f7f01d46fa0,2024-11-13_13h41.04.702,Tarea de género gramatical,2024.2.2,Win32,59.88023952,,,,,,,,,,,,,,,,,,,,,,133.8668,134.9783,a,1,[],[],[],[],[],[],[],0.4336,1,134.9784,135.4828,,,,,,273,FEM,DIS,150,tarta,el,a,0.4336,,,,135.4829,135.4829,0.071296339,-0.075000021,0,0,0,,0,32,32,272,1,,,,,
,,,,,,cfa4797c122c5024e9c138c6,66a626ef09d4e21e1a8894ec,6734d68c82184f7f01d46fa0,2024-11-13_13h41.04.702,Tarea de género gramatical,2024.2.2,Win32,59.88023952,,,,,,,,,,,,,,,,,,,,,,135.4835,136.583,a,1,[],[],[],[],[],[],[],0.4341,1,136.583,137.0828,,,,,,231,FEM,DIS,150,bruja,el,a,0.4341,,,,137.0837,137.0841,0.071296339,-0.075000021,0,0,0,,0,33,33,230,1,,,,,
,,,,,,cfa4797c122c5024e9c138c6,66a626ef09d4e21e1a8894ec,6734d68c82184f7f01d46fa0,2024-11-13_13h41.04.702,Tarea de género gramatical,2024.2.2,Win32,59.88023952,,,,,,,,,,,,,,,,,,,,,,137.0845,138.2162,l,1,[],[],[],[],[],[],[],0.4505,1,138.2163,138.7162,,,,,,88,MAS,AGR,150,pavo,el,l,0.4505,,,,138.7163,138.7164,0.071296339,-0.075000021,0,0,0,,0,34,34,87,1,,,,,
,,,,,,cfa4797c122c5024e9c138c6,66a626ef09d4e21e1a8894ec,6734d68c82184f7f01d46fa0,2024-11-13_13h41.04.702,Tarea de género gramatical,2024.2.2,Win32,59.88023952,,,,,,,,,,,,,,,,,,,,,,138.717,139.834,l,1,[],[],[],[],[],[],[],0.4344,1,139.8343,140.3284,,,,,,58,MAS,AGR,150,mono,el,l,0.4344,,,,140.3284,140.3285,0.071296339,-0.075000021,0,0,0,,0,35,35,57,1,,,,,
,,,,,,cfa4797c122c5024e9c138c6,66a626ef09d4e21e1a8894ec,6734d68c82184f7f01d46fa0,2024-11-13_13h41.04.702,Tarea de género gramatical,2024.2.2,Win32,59.88023952,,,,,,,,,,,,,,,,,,,,,,140.3292,141.4995,a,1,[],[],[],[],[],[],[],0.5004,1,141.4996,141.9995,,,,,,243,FEM,DIS,150,salsa,el,a,0.5004,,,,141.9995,141.9996,0.071296339,-0.075000021,0,0,0,,0,36,36,242,1,,,,,
,,,,,,cfa4797c122c5024e9c138c6,66a626ef09d4e21e1a8894ec,6734d68c82184f7f01d46fa0,2024-11-13_13h41.04.702,Tarea de género gramatical,2024.2.2,Win32,59.88023952,,,,,,,,,,,,,,,,,,,,,,142.0002,143.0996,a,1,[],[],[],[],[],[],[],0.4172,1,143.0997,143.5994,,,,,,15,FEM,DIS,150,cama,el,a,0.4172,,,,143.5995,143.5995,0.071296339,-0.075000021,0,0,0,,0,37,37,14,1,,,,,
,,,,,,cfa4797c122c5024e9c138c6,66a626ef09d4e21e1a8894ec,6734d68c82184f7f01d46fa0,2024-11-13_13h41.04.702,Tarea de género gramatical,2024.2.2,Win32,59.88023952,,,,,,,,,,,,,,,,,,,,,,143.6001,144.6951,l,1,[],[],[],[],[],[],[],0.4043,1,144.6952,145.1827,,,,,,214,MAS,AGR,150,fondo,el,l,0.4043,,,,145.1836,145.184,0.071296339,-0.075000021,0,0,0,,0,38,38,213,1,,,,,
,,,,,,cfa4797c122c5024e9c138c6,66a626ef09d4e21e1a8894ec,6734d68c82184f7f01d46fa0,2024-11-13_13h41.04.702,Tarea de género gramatical,2024.2.2,Win32,59.88023952,,,,,,,,,,,,,,,,,,,,,,145.1843,146.5285,l,1,[],[],[],[],[],[],[],0.6608,1,146.5285,147.0284,,,,,,293,MAS,CON,150,patio,,l,0.6608,,,,147.0284,147.0285,0.071296339,-0.075000021,0,0,0,,0,39,39,292,1,,,,,
,,,,,,cfa4797c122c5024e9c138c6,66a626ef09d4e21e1a8894ec,6734d68c82184f7f01d46fa0,2024-11-13_13h41.04.702,Tarea de género gramatical,2024.2.2,Win32,59.88023952,,,,,,,,,,,,,,,,,,,,,,147.0291,148.1451,l,1,[],[],[],[],[],[],[],0.4187,1,148.1452,148.6451,,,,,,420,MAS,DIS,150,helado,la,l,0.4187,,,,148.6451,148.6451,0.071296339,-0.075000021,0,0,0,,0,40,40,419,1,,,,,
,,,,,,cfa4797c122c5024e9c138c6,66a626ef09d4e21e1a8894ec,6734d68c82184f7f01d46fa0,2024-11-13_13h41.04.702,Tarea de género gramatical,2024.2.2,Win32,59.88023952,,,,,,,,,,,,,,,,,,,,,,148.6457,150.1509,a,1,[],[],[],[],[],[],[],0.8313,1,150.151,150.6495,,,,,,67,FEM,AGR,150,miel,la,a,0.8313,,,,150.6495,150.6496,0.071296339,-0.075000021,0,0,0,,0,41,41,66,1,,,,,
,,,,,,cfa4797c122c5024e9c138c6,66a626ef09d4e21e1a8894ec,6734d68c82184f7f01d46fa0,2024-11-13_13h41.04.702,Tarea de género gramatical,2024.2.2,Win32,59.88023952,,,,,,,,,,,,,,,,,,,,,,150.6502,151.8498,l,1,[],[],[],[],[],[],[],0.5336,1,151.8498,152.3494,,,,,,220,MAS,AGR,150,huevo,el,l,0.5336,,,,152.3501,152.3506,0.071296339,-0.075000021,0,0,0,,0,42,42,219,1,,,,,
,,,,,,cfa4797c122c5024e9c138c6,66a626ef09d4e21e1a8894ec,6734d68c82184f7f01d46fa0,2024-11-13_13h41.04.702,Tarea de género gramatical,2024.2.2,Win32,59.88023952,,,,,,,,,,,,,,,,,,,,,,152.351,153.5618,l,1,[],[],[],[],[],[],[],0.5398,1,153.5618,154.0661,,,,,,173,MAS,CON,150,libro,,l,0.5398,,,,154.0661,154.0662,0.071296339,-0.075000021,0,0,0,,0,43,43,172,1,,,,,
,,,,,,cfa4797c122c5024e9c138c6,66a626ef09d4e21e1a8894ec,6734d68c82184f7f01d46fa0,2024-11-13_13h41.04.702,Tarea de género gramatical,2024.2.2,Win32,59.88023952,,,,,,,,,,,,,,,,,,,,,,154.0667,155.7996,l,0,[],[],[],[],[],[],[],1.0502,0,155.7999,156.2995,,,,,,195,FEM,DIS,150,pared,el,a,1.0502,,,,156.2995,156.2996,0.071296339,-0.075000021,0,0,0,,0,44,44,194,1,,,,,
,,,,,,cfa4797c122c5024e9c138c6,66a626ef09d4e21e1a8894ec,6734d68c82184f7f01d46fa0,2024-11-13_13h41.04.702,Tarea de género gramatical,2024.2.2,Win32,59.88023952,,,,,,,,,,,,,,,,,,,,,,156.3002,157.5495,l,1,[],[],[],[],[],[],[],0.5842,1,157.5499,158.0494,,,,,,66,MAS,DIS,150,muro,la,l,0.5842,,,,158.0494,158.0495,0.071296339,-0.075000021,0,0,0,,0,45,45,65,1,,,,,
,,,,,,cfa4797c122c5024e9c138c6,66a626ef09d4e21e1a8894ec,6734d68c82184f7f01d46fa0,2024-11-13_13h41.04.702,Tarea de género gramatical,2024.2.2,Win32,59.88023952,,,,,,,,,,,,,,,,,,,,,,158.05,159.2829,a,1,[],[],[],[],[],[],[],0.564,1,159.2829,159.7784,,,,,,337,FEM,AGR,150,escena,la,a,0.564,,,,159.7785,159.7785,0.071296339,-0.075000021,0,0,0,,0,46,46,336,1,,,,,
,,,,,,cfa4797c122c5024e9c138c6,66a626ef09d4e21e1a8894ec,6734d68c82184f7f01d46fa0,2024-11-13_13h41.04.702,Tarea de género gramatical,2024.2.2,Win32,59.88023952,,,,,,,,,,,,,,,,,,,,,,159.7791,160.9997,l,1,[],[],[],[],[],[],[],0.5504,1,160.9997,161.495,,,,,,431,MAS,CON,150,veneno,,l,0.5504,,,,161.4958,161.4963,0.071296339,-0.075000021,0,0,0,,0,47,47,430,1,,,,,
,,,,,,cfa4797c122c5024e9c138c6,66a626ef09d4e21e1a8894ec,6734d68c82184f7f01d46fa0,2024-11-13_13h41.04.702,Tarea de género gramatical,2024.2.2,Win32,59.88023952,,,,,,,,,,,,,,,,,,,,,,161.4967,162.5329,l,1,[],[],[],[],[],[],[],0.3638,1,162.533,163.0285,,,,,,395,MAS,CON,150,correo,,l,0.3638,,,,163.0285,163.0286,0.071296339,-0.075000021,0,0,0,,0,48,48,394,1,,,,,
,,,,,,cfa4797c122c5024e9c138c6,66a626ef09d4e21e1a8894ec,6734d68c82184f7f01d46fa0,2024-11-13_13h41.04.702,Tarea de género gramatical,2024.2.2,Win32,59.88023952,,,,,,,,,,,,,,,,,,,,,,163.0293,164.1784,a,1,[],[],[],[],[],[],[],0.4589,1,164.1785,164.683,,,,,,44,FEM,CON,150,zona,,a,0.4589,,,,164.683,164.6831,0.071296339,-0.075000021,0,0,0,,0,49,49,43,1,,,,,
,,,,,,cfa4797c122c5024e9c138c6,66a626ef09d4e21e1a8894ec,6734d68c82184f7f01d46fa0,2024-11-13_13h41.04.702,Tarea de género gramatical,2024.2.2,Win32,59.88023952,,,,,,,,,,,,,,,,,,,,,,164.6837,166.3829,a,1,[],[],[],[],[],[],[],1.017,1,166.3829,166.881,,,,,,121,FEM,AGR,150,pila,la,a,1.017,,,,166.8811,166.8812,0.071296339,-0.075000021,0,0,0,,0,50,50,120,1,,,,,
,,,,,,cfa4797c122c5024e9c138c6,66a626ef09d4e21e1a8894ec,6734d68c82184f7f01d46fa0,2024-11-13_13h41.04.702,Tarea de género gramatical,2024.2.2,Win32,59.88023952,,,,,,,,,,,,,,,,,,,,,,166.8818,168.483,l,0,[],[],[],[],[],[],[],0.9338,0,168.4835,168.9784,,,,,,31,FEM,AGR,150,edad,la,a,0.9338,,,,168.979,168.9794,0.071296339,-0.075000021,0,0,0,,0,51,51,30,1,,,,,
,,,,,,cfa4797c122c5024e9c138c6,66a626ef09d4e21e1a8894ec,6734d68c82184f7f01d46fa0,2024-11-13_13h41.04.702,Tarea de género gramatical,2024.2.2,Win32,59.88023952,,,,,,,,,,,,,,,,,,,,,,168.9798,170.1784,a,1,[],[],[],[],[],[],[],0.5087,1,170.1789,170.6662,,,,,,303,FEM,DIS,150,maldad,el,a,0.5087,,,,170.6662,170.6663,0.071296339,-0.075000021,0,0,0,,0,52,52,302,1,,,,,
,,,,,,cfa4797c122c5024e9c138c6,66a626ef09d4e21e1a8894ec,6734d68c82184f7f01d46fa0,2024-11-13_13h41.04.702,Tarea de género gramatical,2024.2.2,Win32,59.88023952,,,,,,,,,,,,,,,,,,,,,,170.6669,171.9997,l,1,[],[],[],[],[],[],[],0.6505,1,171.9998,172.4952,,,,,,370,MAS,AGR,150,seguro,el,l,0.6505,,,,172.4952,172.4952,0.071296339,-0.075000021,0,0,0,,0,53,53,369,1,,,,,
,,,,,,cfa4797c122c5024e9c138c6,66a626ef09d4e21e1a8894ec,6734d68c82184f7f01d46fa0,2024-11-13_13h41.04.702,Tarea de género gramatical,2024.2.2,Win32,59.88023952,,,,,,,,,,,,,,,,,,,,,,172.4959,173.8662,l,1,[],[],[],[],[],[],[],0.6971,1,173.8662,174.3661,,,,,,384,MAS,DIS,150,pedazo,la,l,0.6971,,,,174.3661,174.3662,0.071296339,-0.075000021,0,0,0,,0,54,54,383,1,,,,,
,,,,,,cfa4797c122c5024e9c138c6,66a626ef09d4e21e1a8894ec,6734d68c82184f7f01d46fa0,2024-11-13_13h41.04.702,Tarea de género gramatical,2024.2.2,Win32,59.88023952,,,,,,,,,,,,,,,,,,,,,,174.3669,175.4953,l,1,[],[],[],[],[],[],[],0.4378,1,175.4954,175.9994,,,,,,221,MAS,CON,150,brazo,,l,0.4378,,,,175.9995,175.9995,0.071296339,-0.075000021,0,0,0,,0,55,55,220,1,,,,,
,,,,,,cfa4797c122c5024e9c138c6,66a626ef09d4e21e1a8894ec,6734d68c82184f7f01d46fa0,2024-11-13_13h41.04.702,Tarea de género gramatical,2024.2.2,Win32,59.88023952,,,,,,,,,,,,,,,,,,,,,,175.9999,177.1952,a,1,[],[],[],[],[],[],[],0.5082,1,177.1952,177.6951,,,,,,398,FEM,CON,150,hierba,,a,0.5082,,,,177.6958,177.6963,0.071296339,-0.075000021,0,0,0,,0,56,56,397,1,,,,,
,,,,,,cfa4797c122c5024e9c138c6,66a626ef09d4e21e1a8894ec,6734d68c82184f7f01d46fa0,2024-11-13_13h41.04.702,Tarea de género gramatical,2024.2.2,Win32,59.88023952,,,,,,,,,,,,,,,,,,,,,,177.6967,178.9663,l,1,[],[],[],[],[],[],[],0.597,1,178.9663,179.4617,,,,,,126,MAS,DIS,150,lazo,la,l,0.597,,,,179.4617,179.4618,0.071296339,-0.075000021,0,0,0,,0,57,57,125,1,,,,,
,,,,,,cfa4797c122c5024e9c138c6,66a626ef09d4e21e1a8894ec,6734d68c82184f7f01d46fa0,2024-11-13_13h41.04.702,Tarea de género gramatical,2024.2.2,Win32,59.88023952,,,,,,,,,,,,,,,,,,,,,,179.4624,180.583,l,1,[],[],[],[],[],[],[],0.4504,1,180.583,181.0828,,,,,,340,MAS,AGR,150,pasado,el,l,0.4504,,,,181.0828,181.0829,0.071296339,-0.075000021,0,0,0,,0,58,58,339,1,,,,,
,,,,,,cfa4797c122c5024e9c138c6,66a626ef09d4e21e1a8894ec,6734d68c82184f7f01d46fa0,2024-11-13_13h41.04.702,Tarea de género gramatical,2024.2.2,Win32,59.88023952,,,,,,,,,,,,,,,,,,,,,,181.0834,182.7829,l,0,[],[],[],[],[],[],[],1.0168,0,182.7833,183.2829,,,,,,307,FEM,AGR,150,suerte,la,a,1.0168,,,,183.2829,183.283,0.071296339,-0.075000021,0,0,0,,0,59,59,306,1,,,,,
,,,,,,cfa4797c122c5024e9c138c6,66a626ef09d4e21e1a8894ec,6734d68c82184f7f01d46fa0,2024-11-13_13h41.04.702,Tarea de género gramatical,2024.2.2,Win32,59.88023952,,,,,,,,,,,,,,,,,,,,,,183.2837,184.8331,a,1,[],[],[],[],[],[],[],0.8672,1,184.8335,185.3285,,,,,,261,FEM,DIS,150,cueva,el,a,0.8672,,,,185.3292,185.3296,0.071296339,-0.075000021,0,0,0,,0,60,60,260,1,,,,,
,,,,,,cfa4797c122c5024e9c138c6,66a626ef09d4e21e1a8894ec,6734d68c82184f7f01d46fa0,2024-11-13_13h41.04.702,Tarea de género gramatical,2024.2.2,Win32,59.88023952,,,,,,,,,,,,,,,,,,,,,,185.3302,186.5284,a,1,[],[],[],[],[],[],[],0.5275,1,186.5285,187.0163,,,,,,206,FEM,CON,150,época,,a,0.5275,,,,187.0164,187.0166,0.071296339,-0.075000021,0,0,0,,0,61,61,205,1,,,,,
,,,,,,cfa4797c122c5024e9c138c6,66a626ef09d4e21e1a8894ec,6734d68c82184f7f01d46fa0,2024-11-13_13h41.04.702,Tarea de género gramatical,2024.2.2,Win32,59.88023952,,,,,,,,,,,,,,,,,,,,,,187.0173,188.533,a,1,[],[],[],[],[],[],[],0.847,1,188.533,189.0327,,,,,,211,FEM,AGR,150,salud,la,a,0.847,,,,189.0328,189.0328,0.071296339,-0.075000021,0,0,0,,0,62,62,210,1,,,,,
,,,,,,cfa4797c122c5024e9c138c6,66a626ef09d4e21e1a8894ec,6734d68c82184f7f01d46fa0,2024-11-13_13h41.04.702,Tarea de género gramatical,2024.2.2,Win32,59.88023952,,,,,,,,,,,,,,,,,,,,,,189.0334,190.1117,a,1,[],[],[],[],[],[],[],0.3872,1,190.1118,190.5994,,,,,,9,FEM,DIS,150,mamá,el,a,0.3872,,,,190.5994,190.5995,0.071296339,-0.075000021,0,0,0,,0,63,63,8,1,,,,,
,,,,,,cfa4797c122c5024e9c138c6,66a626ef09d4e21e1a8894ec,6734d68c82184f7f01d46fa0,2024-11-13_13h41.04.702,Tarea de género gramatical,2024.2.2,Win32,59.88023952,,,,,,,,,,,,,,,,,,,,,,190.6002,191.7498,l,1,[],[],[],[],[],[],[],0.4672,1,191.7498,192.2455,,,,,,52,MAS,AGR,150,lago,el,l,0.4672,,,,192.2455,192.2457,0.071296339,-0.075000021,0,0,0,,0,64,64,51,1,,,,,
,,,,,,cfa4797c122c5024e9c138c6,66a626ef09d4e21e1a8894ec,6734d68c82184f7f01d46fa0,2024-11-13_13h41.04.702,Tarea de género gramatical,2024.2.2,Win32,59.88023952,,,,,,,,,,,,,,,,,,,,,,192.2474,193.6165,a,1,[],[],[],[],[],[],[],0.6973,1,193.6166,194.1122,,,,,,56,FEM,CON,150,bola,,a,0.6973,,,,194.1145,194.1159,0.071296339,-0.075000021,0,0,0,,0,65,65,55,1,,,,,
,,,,,,cfa4797c122c5024e9c138c6,66a626ef09d4e21e1a8894ec,6734d68c82184f7f01d46fa0,2024-11-13_13h41.04.702,Tarea de género gramatical,2024.2.2,Win32,59.88023952,,,,,,,,,,,,,,,,,,,,,,194.1171,195.1996,a,1,[],[],[],[],[],[],[],0.4004,1,195.1997,195.6952,,,,,,325,FEM,AGR,150,tierra,la,a,0.4004,,,,195.6952,195.6952,0.071296339,-0.075000021,0,0,0,,0,66,66,324,1,,,,,
,,,,,,cfa4797c122c5024e9c138c6,66a626ef09d4e21e1a8894ec,6734d68c82184f7f01d46fa0,2024-11-13_13h41.04.702,Tarea de género gramatical,2024.2.2,Win32,59.88023952,,,,,,,,,,,,,,,,,,,,,,195.6959,196.9125,l,1,[],[],[],[],[],[],[],0.5595,1,196.9127,197.4118,,,,,,400,MAS,AGR,150,barrio,el,l,0.5595,,,,197.4118,197.4119,0.071296339,-0.075000021,0,0,0,,0,67,67,399,1,,,,,
,,,,,,cfa4797c122c5024e9c138c6,66a626ef09d4e21e1a8894ec,6734d68c82184f7f01d46fa0,2024-11-13_13h41.04.702,Tarea de género gramatical,2024.2.2,Win32,59.88023952,,,,,,,,,,,,,,,,,,,,,,197.4126,198.5497,a,1,[],[],[],[],[],[],[],0.451,1,198.5498,199.0494,,,,,,242,FEM,CON,150,pizza,,a,0.451,,,,199.0494,199.0495,0.071296339,-0.075000021,0,0,0,,0,68,68,241,1,,,,,
,,,,,,cfa4797c122c5024e9c138c6,66a626ef09d4e21e1a8894ec,6734d68c82184f7f01d46fa0,2024-11-13_13h41.04.702,Tarea de género gramatical,2024.2.2,Win32,59.88023952,,,,,,,,,,,,,,,,,,,,,,199.05,200.2285,a,1,[],[],[],[],[],[],[],0.4903,1,200.2286,200.7328,,,,,,110,FEM,CON,150,rosa,,a,0.4903,,,,200.7335,200.7339,0.071296339,-0.075000021,0,0,0,,0,69,69,109,1,,,,,
,,,,,,cfa4797c122c5024e9c138c6,66a626ef09d4e21e1a8894ec,6734d68c82184f7f01d46fa0,2024-11-13_13h41.04.702,Tarea de género gramatical,2024.2.2,Win32,59.88023952,,,,,,,,,,,,,,,,,,,,,,200.7343,201.8785,l,1,[],[],[],[],[],[],[],0.4547,1,201.8786,202.3662,,,,,,203,MAS,CON,150,novio,,l,0.4547,,,,202.3662,202.3663,0.071296339,-0.075000021,0,0,0,,0,70,70,202,1,,,,,
,,,,,,cfa4797c122c5024e9c138c6,66a626ef09d4e21e1a8894ec,6734d68c82184f7f01d46fa0,2024-11-13_13h41.04.702,Tarea de género gramatical,2024.2.2,Win32,59.88023952,,,,,,,,,,,,,,,,,,,,,,202.3669,204.1338,a,0,[],[],[],[],[],[],[],1.0843,0,204.1348,204.6329,,,,,,125,MAS,CON,150,bate,,l,1.0843,,,,204.6329,204.6329,0.071296339,-0.075000021,0,0,0,,0,71,71,124,1,,,,,
,,,,,,cfa4797c122c5024e9c138c6,66a626ef09d4e21e1a8894ec,6734d68c82184f7f01d46fa0,2024-11-13_13h41.04.702,Tarea de género gramatical,2024.2.2,Win32,59.88023952,,,,,,,,,,,,,,,,,,,,,,204.6335,205.983,a,1,[],[],[],[],[],[],[],0.667,1,205.9834,206.4829,,,,,,61,FEM,AGR,150,ruta,la,a,0.667,,,,206.483,206.483,0.071296339,-0.075000021,0,0,0,,0,72,72,60,1,,,,,
,,,,,,cfa4797c122c5024e9c138c6,66a626ef09d4e21e1a8894ec,6734d68c82184f7f01d46fa0,2024-11-13_13h41.04.702,Tarea de género gramatical,2024.2.2,Win32,59.88023952,,,,,,,,,,,,,,,,,,,,,,206.4837,207.9285,l,1,[],[],[],[],[],[],[],0.7607,1,207.9286,208.4285,,,,,,317,MAS,CON,150,número,,l,0.7607,,,,208.4286,208.4286,0.071296339,-0.075000021,0,0,0,,0,73,73,316,1,,,,,
,,,,,,cfa4797c122c5024e9c138c6,66a626ef09d4e21e1a8894ec,6734d68c82184f7f01d46fa0,2024-11-13_13h41.04.702,Tarea de género gramatical,2024.2.2,Win32,59.88023952,,,,,,,,,,,,,,,,,,,,,,208.4293,209.6663,l,1,[],[],[],[],[],[],[],0.5825,1,209.6664,210.1619,,,,,,107,MAS,CON,150,cubo,,l,0.5825,,,,210.1626,210.163,0.071296339,-0.075000021,0,0,0,,0,74,74,106,1,,,,,
,,,,,,cfa4797c122c5024e9c138c6,66a626ef09d4e21e1a8894ec,6734d68c82184f7f01d46fa0,2024-11-13_13h41.04.702,Tarea de género gramatical,2024.2.2,Win32,59.88023952,,,,,,,,,,,,,,,,,,,,,,210.1633,211.3126,a,1,[],[],[],[],[],[],[],0.4796,1,211.3128,211.8118,,,,,,290,FEM,CON,150,cabra,,a,0.4796,,,,211.8119,211.8119,0.071296339,-0.075000021,0,0,0,,0,75,75,289,1,,,,,
,,,,,,cfa4797c122c5024e9c138c6,66a626ef09d4e21e1a8894ec,6734d68c82184f7f01d46fa0,2024-11-13_13h41.04.702,Tarea de género gramatical,2024.2.2,Win32,59.88023952,,,,,,,,,,,,,,,,,,,,,,211.8124,213.0618,l,1,[],[],[],[],[],[],[],0.572,1,213.0619,213.5495,,,,,,407,MAS,CON,150,jurado,,l,0.572,,,,213.5495,213.5495,0.071296339,-0.075000021,0,0,0,,0,76,76,406,1,,,,,
,,,,,,cfa4797c122c5024e9c138c6,66a626ef09d4e21e1a8894ec,6734d68c82184f7f01d46fa0,2024-11-13_13h41.04.702,Tarea de género gramatical,2024.2.2,Win32,59.88023952,,,,,,,,,,,,,,,,,,,,,,213.5501,214.7164,l,1,[],[],[],[],[],[],[],0.4839,1,214.7165,215.2163,,,,,,268,MAS,AGR,150,truco,el,l,0.4839,,,,215.2163,215.2163,0.071296339,-0.075000021,0,0,0,,0,77,77,267,1,,,,,
,,,,,,cfa4797c122c5024e9c138c6,66a626ef09d4e21e1a8894ec,6734d68c82184f7f01d46fa0,2024-11-13_13h41.04.702,Tarea de género gramatical,2024.2.2,Win32,59.88023952,,,,,,,,,,,,,,,,,,,,,,215.2169,216.2664,l,1,[],[],[],[],[],[],[],0.367,1,216.2664,216.7662,,,,,,77,MAS,CON,150,pico,,l,0.367,,,,216.7668,216.7672,0.071296339,-0.075000021,0,0,0,,0,78,78,76,1,,,,,
,,,,,,cfa4797c122c5024e9c138c6,66a626ef09d4e21e1a8894ec,6734d68c82184f7f01d46fa0,2024-11-13_13h41.04.702,Tarea de género gramatical,2024.2.2,Win32,59.88023952,,,,,,,,,,,,,,,,,,,,,,216.7676,217.8662,a,1,[],[],[],[],[],[],[],0.417,1,217.8663,218.3662,,,,,,333,FEM,DIS,150,locura,el,a,0.417,,,,218.3663,218.3664,0.071296339,-0.075000021,0,0,0,,0,79,79,332,1,,,,,
,,,,,,cfa4797c122c5024e9c138c6,66a626ef09d4e21e1a8894ec,6734d68c82184f7f01d46fa0,2024-11-13_13h41.04.702,Tarea de género gramatical,2024.2.2,Win32,59.88023952,,,,,,,,,,,,,,,,,,,,,,218.367,219.9952,a,1,[],[],[],[],[],[],[],0.9546,1,219.9953,220.4952,,,,,,153,FEM,DIS,150,mujer,el,a,0.9546,,,,220.4952,220.4953,0.071296339,-0.075000021,0,0,0,,0,80,80,152,1,,,,,
,,,,,,cfa4797c122c5024e9c138c6,66a626ef09d4e21e1a8894ec,6734d68c82184f7f01d46fa0,2024-11-13_13h41.04.702,Tarea de género gramatical,2024.2.2,Win32,59.88023952,,,,,,,,,,,,,,,,,,,,,,220.496,221.633,l,1,[],[],[],[],[],[],[],0.4805,1,221.6331,222.1329,,,,,,245,MAS,CON,150,turno,,l,0.4805,,,,222.1329,222.133,0.071296339,-0.075000021,0,0,0,,0,81,81,244,1,,,,,
,,,,,,cfa4797c122c5024e9c138c6,66a626ef09d4e21e1a8894ec,6734d68c82184f7f01d46fa0,2024-11-13_13h41.04.702,Tarea de género gramatical,2024.2.2,Win32,59.88023952,,,,,,,,,,,,,,,,,,,,,,222.1338,223.5831,a,0,[],[],[],[],[],[],[],0.7789,0,223.5836,224.0829,,,,,,124,MAS,AGR,150,clan,el,l,0.7789,,,,224.083,224.083,0.071296339,-0.075000021,0,0,0,,0,82,82,123,1,,,,,
,,,,,,cfa4797c122c5024e9c138c6,66a626ef09d4e21e1a8894ec,6734d68c82184f7f01d46fa0,2024-11-13_13h41.04.702,Tarea de género gramatical,2024.2.2,Win32,59.88023952,,,,,,,,,,,,,,,,,,,,,,224.0836,225.7664,l,0,[],[],[],[],[],[],[],1.0004,0,225.7665,226.2662,,,,,,199,FEM,AGR,150,nariz,la,a,1.0004,,,,226.2667,226.2672,0.071296339,-0.075000021,0,0,0,,0,83,83,198,1,,,,,
,,,,,,cfa4797c122c5024e9c138c6,66a626ef09d4e21e1a8894ec,6734d68c82184f7f01d46fa0,2024-11-13_13h41.04.702,Tarea de género gramatical,2024.2.2,Win32,59.88023952,,,,,,,,,,,,,,,,,,,,,,226.2676,227.3786,a,0,[],[],[],[],[],[],[],0.4339,0,227.3787,227.883,,,,,,442,MAS,AGR,150,cuadro,el,l,0.4339,,,,227.883,227.883,0.071296339,-0.075000021,0,0,0,,0,84,84,441,1,,,,,
,,,,,,cfa4797c122c5024e9c138c6,66a626ef09d4e21e1a8894ec,6734d68c82184f7f01d46fa0,2024-11-13_13h41.04.702,Tarea de género gramatical,2024.2.2,Win32,59.88023952,,,,,,,,,,,,,,,,,,,,,,227.8837,229.296,a,1,[],[],[],[],[],[],[],0.7298,1,229.2976,229.7952,,,,,,73,FEM,AGR,150,roca,la,a,0.7298,,,,229.7952,229.7954,0.071296339,-0.075000021,0,0,0,,0,85,85,72,1,,,,,
,,,,,,cfa4797c122c5024e9c138c6,66a626ef09d4e21e1a8894ec,6734d68c82184f7f01d46fa0,2024-11-13_13h41.04.702,Tarea de género gramatical,2024.2.2,Win32,59.88023952,,,,,,,,,,,,,,,,,,,,,,229.7966,230.9663,l,0,[],[],[],[],[],[],[],0.5138,0,230.9667,231.4622,,,,,,135,FEM,DIS,150,raíz,el,a,0.5138,,,,231.4623,231.4625,0.071296339,-0.075000021,0,0,0,,0,86,86,134,1,,,,,
,,,,,,cfa4797c122c5024e9c138c6,66a626ef09d4e21e1a8894ec,6734d68c82184f7f01d46fa0,2024-11-13_13h41.04.702,Tarea de género gramatical,2024.2.2,Win32,59.88023952,,,,,,,,,,,,,,,,,,,,,,231.4642,232.5119,a,1,[],[],[],[],[],[],[],0.3616,1,232.5125,233.0163,,,,,,69,FEM,DIS,150,rata,el,a,0.3616,,,,233.0169,233.0173,0.071296339,-0.075000021,0,0,0,,0,87,87,68,1,,,,,
,,,,,,cfa4797c122c5024e9c138c6,66a626ef09d4e21e1a8894ec,6734d68c82184f7f01d46fa0,2024-11-13_13h41.04.702,Tarea de género gramatical,2024.2.2,Win32,59.88023952,,,,,,,,,,,,,,,,,,,,,,233.0176,234.0832,a,1,[],[],[],[],[],[],[],0.3837,1,234.0832,234.5829,,,,,,278,FEM,CON,150,presa,,a,0.3837,,,,234.583,234.583,0.071296339,-0.075000021,0,0,0,,0,88,88,277,1,,,,,
,,,,,,cfa4797c122c5024e9c138c6,66a626ef09d4e21e1a8894ec,6734d68c82184f7f01d46fa0,2024-11-13_13h41.04.702,Tarea de género gramatical,2024.2.2,Win32,59.88023952,,,,,,,,,,,,,,,,,,,,,,234.5836,235.5997,a,1,[],[],[],[],[],[],[],0.3337,1,235.5998,236.0953,,,,,,405,FEM,DIS,150,parada,el,a,0.3337,,,,236.0953,236.0953,0.071296339,-0.075000021,0,0,0,,0,89,89,404,1,,,,,
,,,,,,cfa4797c122c5024e9c138c6,66a626ef09d4e21e1a8894ec,6734d68c82184f7f01d46fa0,2024-11-13_13h41.04.702,Tarea de género gramatical,2024.2.2,Win32,59.88023952,,,,,,,,,,,,,,,,,,,,,,236.0961,237.1786,l,1,[],[],[],[],[],[],[],0.3871,1,237.1787,237.6663,,,,,,70,MAS,AGR,150,palo,el,l,0.3871,,,,237.6663,237.6664,0.071296339,-0.075000021,0,0,0,,0,90,90,69,1,,,,,
,,,,,,cfa4797c122c5024e9c138c6,66a626ef09d4e21e1a8894ec,6734d68c82184f7f01d46fa0,2024-11-13_13h41.04.702,Tarea de género gramatical,2024.2.2,Win32,59.88023952,,,,,,,,,,,,,,,,,,,,,,237.6671,238.6839,l,1,[],[],[],[],[],[],[],0.3475,1,238.6839,239.183,,,,,,6,MAS,DIS,150,lado,la,l,0.3475,,,,239.183,239.1831,0.071296339,-0.075000021,0,0,0,,0,91,91,5,1,,,,,
,,,,,,cfa4797c122c5024e9c138c6,66a626ef09d4e21e1a8894ec,6734d68c82184f7f01d46fa0,2024-11-13_13h41.04.702,Tarea de género gramatical,2024.2.2,Win32,59.88023952,,,,,,,,,,,,,,,,,,,,,,239.1835,240.2165,l,1,[],[],[],[],[],[],[],0.3505,1,240.2165,240.7124,,,,,,196,MAS,AGR,150,barco,el,l,0.3505,,,,240.7145,240.7161,0.071296339,-0.075000021,0,0,0,,0,92,92,195,1,,,,,
,,,,,,cfa4797c122c5024e9c138c6,66a626ef09d4e21e1a8894ec,6734d68c82184f7f01d46fa0,2024-11-13_13h41.04.702,Tarea de género gramatical,2024.2.2,Win32,59.88023952,,,,,,,,,,,,,,,,,,,,,,240.7171,241.6664,l,1,[],[],[],[],[],[],[],0.2671,1,241.6665,242.1663,,,,,,185,MAS,CON,150,sueño,,l,0.2671,,,,242.1663,242.1663,0.071296339,-0.075000021,0,0,0,,0,93,93,184,1,,,,,
,,,,,,cfa4797c122c5024e9c138c6,66a626ef09d4e21e1a8894ec,6734d68c82184f7f01d46fa0,2024-11-13_13h41.04.702,Tarea de género gramatical,2024.2.2,Win32,59.88023952,,,,,,,,,,,,,,,,,,,,,,242.1669,244.0332,l,1,[],[],[],[],[],[],[],1.1837,1,244.0332,244.5285,,,,,,238,MAS,AGR,150,norte,el,l,1.1837,,,,244.5285,244.5285,0.071296339,-0.075000021,0,0,0,,0,94,94,237,1,,,,,
,,,,,,cfa4797c122c5024e9c138c6,66a626ef09d4e21e1a8894ec,6734d68c82184f7f01d46fa0,2024-11-13_13h41.04.702,Tarea de género gramatical,2024.2.2,Win32,59.88023952,,,,,,,,,,,,,,,,,,,,,,244.5291,245.783,l,1,[],[],[],[],[],[],[],0.5836,1,245.783,246.2786,,,,,,443,MAS,CON,150,templo,,l,0.5836,,,,246.2786,246.2787,0.071296339,-0.075000021,0,0,0,,0,95,95,442,1,,,,,
,,,,,,cfa4797c122c5024e9c138c6,66a626ef09d4e21e1a8894ec,6734d68c82184f7f01d46fa0,2024-11-13_13h41.04.702,Tarea de género gramatical,2024.2.2,Win32,59.88023952,,,,,,,,,,,,,,,,,,,,,,246.2793,247.3496,l,1,[],[],[],[],[],[],[],0.4132,1,247.3497,247.8453,,,,,,252,MAS,DIS,150,viejo,la,l,0.4132,,,,247.8459,247.8463,0.071296339,-0.075000021,0,0,0,,0,96,96,251,1,,,,,
,,,,,,cfa4797c122c5024e9c138c6,66a626ef09d4e21e1a8894ec,6734d68c82184f7f01d46fa0,2024-11-13_13h41.04.702,Tarea de género gramatical,2024.2.2,Win32,59.88023952,,,,,,,,,,,,,,,,,,,,,,247.8467,248.8453,l,1,[],[],[],[],[],[],[],0.3227,1,248.8454,249.3329,,,,,,82,MAS,AGR,150,tubo,el,l,0.3227,,,,249.333,249.333,0.071296339,-0.075000021,0,0,0,,0,97,97,81,1,,,,,
,,,,,,cfa4797c122c5024e9c138c6,66a626ef09d4e21e1a8894ec,6734d68c82184f7f01d46fa0,2024-11-13_13h41.04.702,Tarea de género gramatical,2024.2.2,Win32,59.88023952,,,,,,,,,,,,,,,,,,,,,,249.3339,250.3999,l,1,[],[],[],[],[],[],[],0.3972,1,250.3999,250.8996,,,,,,342,MAS,DIS,150,abuelo,la,l,0.3972,,,,250.8996,250.8997,0.071296339,-0.075000021,0,0,0,,0,98,98,341,1,,,,,
,,,,,,cfa4797c122c5024e9c138c6,66a626ef09d4e21e1a8894ec,6734d68c82184f7f01d46fa0,2024-11-13_13h41.04.702,Tarea de género gramatical,2024.2.2,Win32,59.88023952,,,,,,,,,,,,,,,,,,,,,,250.9003,251.85,l,1,[],[],[],[],[],[],[],0.2843,1,251.85,252.3496,,,,,,318,MAS,DIS,150,pueblo,la,l,0.2843,,,,252.3496,252.3497,0.071296339,-0.075000021,0,0,0,,0,99,99,317,1,,,,,
,,,,,,cfa4797c122c5024e9c138c6,66a626ef09d4e21e1a8894ec,6734d68c82184f7f01d46fa0,2024-11-13_13h41.04.702,Tarea de género gramatical,2024.2.2,Win32,59.88023952,,,,,,,,,,,,,,,,,,,,,,252.3503,253.3453,a,1,[],[],[],[],[],[],[],0.3037,1,253.3454,253.8497,,,,,,345,FEM,DIS,150,pierna,el,a,0.3037,,,,253.8499,253.8499,0.071296339,-0.075000021,0,0,0,,0,100,100,344,1,,,,,
,,,,,,cfa4797c122c5024e9c138c6,66a626ef09d4e21e1a8894ec,6734d68c82184f7f01d46fa0,2024-11-13_13h41.04.702,Tarea de género gramatical,2024.2.2,Win32,59.88023952,,,,,,,,,,,,,,,,,,,,,,253.8505,254.8331,a,1,[],[],[],[],[],[],[],0.3004,1,254.8332,255.3287,,,,,,356,FEM,CON,150,piedra,,a,0.3004,,,,255.3293,255.3298,0.071296339,-0.075000021,0,0,0,,0,101,101,355,1,,,,,
,,,,,,cfa4797c122c5024e9c138c6,66a626ef09d4e21e1a8894ec,6734d68c82184f7f01d46fa0,2024-11-13_13h41.04.702,Tarea de género gramatical,2024.2.2,Win32,59.88023952,,,,,,,,,,,,,,,,,,,,,,255.3301,256.4331,l,1,[],[],[],[],[],[],[],0.4342,1,256.4331,256.9287,,,,,,328,MAS,AGR,150,asunto,el,l,0.4342,,,,256.9287,256.9288,0.071296339,-0.075000021,0,0,0,,0,102,102,327,1,,,,,
,,,,,,cfa4797c122c5024e9c138c6,66a626ef09d4e21e1a8894ec,6734d68c82184f7f01d46fa0,2024-11-13_13h41.04.702,Tarea de género gramatical,2024.2.2,Win32,59.88023952,,,,,,,,,,,,,,,,,,,,,,256.9296,257.8999,l,1,[],[],[],[],[],[],[],0.3002,1,257.8999,258.3996,,,,,,414,MAS,DIS,150,sótano,la,l,0.3002,,,,258.3997,258.3997,0.071296339,-0.075000021,0,0,0,,0,103,103,413,1,,,,,
,,,,,,cfa4797c122c5024e9c138c6,66a626ef09d4e21e1a8894ec,6734d68c82184f7f01d46fa0,2024-11-13_13h41.04.702,Tarea de género gramatical,2024.2.2,Win32,59.88023952,,,,,,,,,,,,,,,,,,,,,,258.4004,259.3998,a,1,[],[],[],[],[],[],[],0.317,1,259.3998,259.8958,,,,,,422,FEM,CON,150,rutina,,a,0.317,,,,259.8958,259.896,0.071296339,-0.075000021,0,0,0,,0,104,104,421,1,,,,,
,,,,,,cfa4797c122c5024e9c138c6,66a626ef09d4e21e1a8894ec,6734d68c82184f7f01d46fa0,2024-11-13_13h41.04.702,Tarea de género gramatical,2024.2.2,Win32,59.88023952,,,,,,,,,,,,,,,,,,,,,,259.8978,261.4332,a,1,[],[],[],[],[],[],[],0.8805,1,261.4333,261.9328,,,,,,74,FEM,CON,150,flor,,a,0.8805,,,,261.9334,261.9338,0.071296339,-0.075000021,0,0,0,,0,105,105,73,1,,,,,
,,,,,,cfa4797c122c5024e9c138c6,66a626ef09d4e21e1a8894ec,6734d68c82184f7f01d46fa0,2024-11-13_13h41.04.702,Tarea de género gramatical,2024.2.2,Win32,59.88023952,,,,,,,,,,,,,,,,,,,,,,261.9342,263.2624,l,1,[],[],[],[],[],[],[],0.6346,1,263.2625,263.762,,,,,,215,MAS,CON,150,hueso,,l,0.6346,,,,263.7621,263.7621,0.071296339,-0.075000021,0,0,0,,0,106,106,214,1,,,,,
,,,,,,cfa4797c122c5024e9c138c6,66a626ef09d4e21e1a8894ec,6734d68c82184f7f01d46fa0,2024-11-13_13h41.04.702,Tarea de género gramatical,2024.2.2,Win32,59.88023952,,,,,,,,,,,,,,,,,,,,,,263.7625,264.8828,l,1,[],[],[],[],[],[],[],0.4466,1,264.8829,265.383,,,,,,65,MAS,CON,150,rayo,,l,0.4466,,,,265.3831,265.3831,0.071296339,-0.075000021,0,0,0,,0,107,107,64,1,,,,,
,,,,,,cfa4797c122c5024e9c138c6,66a626ef09d4e21e1a8894ec,6734d68c82184f7f01d46fa0,2024-11-13_13h41.04.702,Tarea de género gramatical,2024.2.2,Win32,59.88023952,,,,,,,,,,,,,,,,,,,,,,265.3837,266.362,l,1,[],[],[],[],[],[],[],0.2928,1,266.3621,266.8496,,,,,,424,MAS,AGR,150,rastro,el,l,0.2928,,,,266.8497,266.8497,0.071296339,-0.075000021,0,0,0,,0,108,108,423,1,,,,,
,,,,,,cfa4797c122c5024e9c138c6,66a626ef09d4e21e1a8894ec,6734d68c82184f7f01d46fa0,2024-11-13_13h41.04.702,Tarea de género gramatical,2024.2.2,Win32,59.88023952,,,,,,,,,,,,,,,,,,,,,,266.8504,268.3333,a,1,[],[],[],[],[],[],[],0.8175,1,268.3333,268.8336,,,,,,247,FEM,AGR,150,frase,la,a,0.8175,,,,268.8336,268.8337,0.071296339,-0.075000021,0,0,0,,0,109,109,246,1,,,,,
,,,,,,cfa4797c122c5024e9c138c6,66a626ef09d4e21e1a8894ec,6734d68c82184f7f01d46fa0,2024-11-13_13h41.04.702,Tarea de género gramatical,2024.2.2,Win32,59.88023952,,,,,,,,,,,,,,,,,,,,,,268.8349,269.8665,l,1,[],[],[],[],[],[],[],0.3504,1,269.8666,270.3621,,,,,,155,MAS,CON,150,mundo,,l,0.3504,,,,270.3627,270.3631,0.071296339,-0.075000021,0,0,0,,0,110,110,154,1,,,,,
,,,,,,cfa4797c122c5024e9c138c6,66a626ef09d4e21e1a8894ec,6734d68c82184f7f01d46fa0,2024-11-13_13h41.04.702,Tarea de género gramatical,2024.2.2,Win32,59.88023952,,,,,,,,,,,,,,,,,,,,,,270.3635,271.5331,a,1,[],[],[],[],[],[],[],0.5021,1,271.5332,272.033,,,,,,271,FEM,AGR,150,viuda,la,a,0.5021,,,,272.033,272.0331,0.071296339,-0.075000021,0,0,0,,0,111,111,270,1,,,,,
,,,,,,cfa4797c122c5024e9c138c6,66a626ef09d4e21e1a8894ec,6734d68c82184f7f01d46fa0,2024-11-13_13h41.04.702,Tarea de género gramatical,2024.2.2,Win32,59.88023952,,,,,,,,,,,,,,,,,,,,,,272.034,273.7164,l,1,[],[],[],[],[],[],[],1.0003,1,273.7164,274.2164,,,,,,136,MAS,AGR,150,vago,el,l,1.0003,,,,274.2164,274.2164,0.071296339,-0.075000021,0,0,0,,0,112,112,135,1,,,,,
,,,,,,cfa4797c122c5024e9c138c6,66a626ef09d4e21e1a8894ec,6734d68c82184f7f01d46fa0,2024-11-13_13h41.04.702,Tarea de género gramatical,2024.2.2,Win32,59.88023952,,,,,,,,,,,,,,,,,,,,,,274.2171,275.2665,l,1,[],[],[],[],[],[],[],0.3841,1,275.2665,275.762,,,,,,324,MAS,DIS,150,cuarto,la,l,0.3841,,,,275.762,275.7621,0.071296339,-0.075000021,0,0,0,,0,113,113,323,1,,,,,
,,,,,,cfa4797c122c5024e9c138c6,66a626ef09d4e21e1a8894ec,6734d68c82184f7f01d46fa0,2024-11-13_13h41.04.702,Tarea de género gramatical,2024.2.2,Win32,59.88023952,,,,,,,,,,,,,,,,,,,,,,275.7626,277.3333,l,1,[],[],[],[],[],[],[],0.9004,1,277.3333,277.8291,,,,,,118,MAS,AGR,150,baúl,el,l,0.9004,,,,277.8312,277.8329,0.071296339,-0.075000021,0,0,0,,0,114,114,117,1,,,,,
,,,,,,cfa4797c122c5024e9c138c6,66a626ef09d4e21e1a8894ec,6734d68c82184f7f01d46fa0,2024-11-13_13h41.04.702,Tarea de género gramatical,2024.2.2,Win32,59.88023952,,,,,,,,,,,,,,,,,,,,,,277.8341,279.1453,l,1,[],[],[],[],[],[],[],0.6204,1,279.1453,279.6337,,,,,,191,MAS,CON,150,dolor,,l,0.6204,,,,279.6337,279.6338,0.071296339,-0.075000021,0,0,0,,0,115,115,190,1,,,,,
,,,,,,cfa4797c122c5024e9c138c6,66a626ef09d4e21e1a8894ec,6734d68c82184f7f01d46fa0,2024-11-13_13h41.04.702,Tarea de género gramatical,2024.2.2,Win32,59.88023952,,,,,,,,,,,,,,,,,,,,,,279.6351,280.9787,l,1,[],[],[],[],[],[],[],0.6508,1,280.9787,281.4664,,,,,,436,MAS,AGR,150,objeto,el,l,0.6508,,,,281.4664,281.4665,0.071296339,-0.075000021,0,0,0,,0,116,116,435,1,,,,,
,,,,,,cfa4797c122c5024e9c138c6,66a626ef09d4e21e1a8894ec,6734d68c82184f7f01d46fa0,2024-11-13_13h41.04.702,Tarea de género gramatical,2024.2.2,Win32,59.88023952,,,,,,,,,,,,,,,,,,,,,,281.4671,282.6287,a,1,[],[],[],[],[],[],[],0.4866,1,282.6287,283.133,,,,,,87,FEM,DIS,150,risa,el,a,0.4866,,,,283.133,283.1331,0.071296339,-0.075000021,0,0,0,,0,117,117,86,1,,,,,
,,,,,,cfa4797c122c5024e9c138c6,66a626ef09d4e21e1a8894ec,6734d68c82184f7f01d46fa0,2024-11-13_13h41.04.702,Tarea de género gramatical,2024.2.2,Win32,59.88023952,,,,,,,,,,,,,,,,,,,,,,283.1336,284.434,l,1,[],[],[],[],[],[],[],0.6311,1,284.4341,284.9331,,,,,,60,MAS,DIS,150,tono,la,l,0.6311,,,,284.9331,284.9332,0.071296339,-0.075000021,0,0,0,,0,118,118,59,1,,,,,
,,,,,,cfa4797c122c5024e9c138c6,66a626ef09d4e21e1a8894ec,6734d68c82184f7f01d46fa0,2024-11-13_13h41.04.702,Tarea de género gramatical,2024.2.2,Win32,59.88023952,,,,,,,,,,,,,,,,,,,,,,284.9339,286.1832,l,1,[],[],[],[],[],[],[],0.5805,1,286.1832,286.683,,,,,,430,MAS,AGR,150,título,el,l,0.5805,,,,286.6835,286.684,0.071296339,-0.075000021,0,0,0,,0,119,119,429,1,,,,,
,,,,,,cfa4797c122c5024e9c138c6,66a626ef09d4e21e1a8894ec,6734d68c82184f7f01d46fa0,2024-11-13_13h41.04.702,Tarea de género gramatical,2024.2.2,Win32,59.88023952,,,,,,,,,,,,,,,,,,,,,,286.6844,287.9666,a,1,[],[],[],[],[],[],[],0.6136,1,287.9666,288.4619,,,,,,19,FEM,AGR,150,niña,la,a,0.6136,,,,288.462,288.462,0.071296339,-0.075000021,0,0,0,,0,120,120,18,1,,,,,
,,,,,,cfa4797c122c5024e9c138c6,66a626ef09d4e21e1a8894ec,6734d68c82184f7f01d46fa0,2024-11-13_13h41.04.702,Tarea de género gramatical,2024.2.2,Win32,59.88023952,,,,,,,,,,,,,,,,,,,,,,288.4624,289.5832,a,1,[],[],[],[],[],[],[],0.4637,1,289.5833,290.083,,,,,,338,FEM,CON,150,abuela,,a,0.4637,,,,290.083,290.0831,0.071296339,-0.075000021,0,0,0,,0,121,121,337,1,,,,,
,,,,,,cfa4797c122c5024e9c138c6,66a626ef09d4e21e1a8894ec,6734d68c82184f7f01d46fa0,2024-11-13_13h41.04.702,Tarea de género gramatical,2024.2.2,Win32,59.88023952,,,,,,,,,,,,,,,,,,,,,,290.0836,291.1453,a,1,[],[],[],[],[],[],[],0.3705,1,291.1453,291.6497,,,,,,164,FEM,CON,150,novia,,a,0.3705,,,,291.6497,291.6498,0.086111139,-0.036111125,0,0,0,,0,122,122,163,1,,,,,
,,,,,,cfa4797c122c5024e9c138c6,66a626ef09d4e21e1a8894ec,6734d68c82184f7f01d46fa0,2024-11-13_13h41.04.702,Tarea de género gramatical,2024.2.2,Win32,59.88023952,,,,,,,,,,,,,,,,,,,,,,291.6503,293.1831,l,1,[],[],[],[],[],[],[],0.8503,1,293.1832,293.683,,,,,,292,MAS,AGR,150,piano,el,l,0.8503,,,,293.6836,293.684,0.086111139,-0.036111125,0,0,0,,0,123,123,291,1,,,,,
,,,,,,cfa4797c122c5024e9c138c6,66a626ef09d4e21e1a8894ec,6734d68c82184f7f01d46fa0,2024-11-13_13h41.04.702,Tarea de género gramatical,2024.2.2,Win32,59.88023952,,,,,,,,,,,,,,,,,,,,,,293.6844,294.7499,l,1,[],[],[],[],[],[],[],0.3971,1,294.75,295.2453,,,,,,419,MAS,CON,150,cuento,,l,0.3971,,,,295.2454,295.2455,0.086111139,-0.036111125,0,0,0,,0,124,124,418,1,,,,,
,,,,,,cfa4797c122c5024e9c138c6,66a626ef09d4e21e1a8894ec,6734d68c82184f7f01d46fa0,2024-11-13_13h41.04.702,Tarea de género gramatical,2024.2.2,Win32,59.88023952,,,,,,,,,,,,,,,,,,,,,,295.2459,296.3167,a,1,[],[],[],[],[],[],[],0.3838,1,296.3167,296.8163,,,,,,111,FEM,DIS,150,goma,el,a,0.3838,,,,296.8163,296.8164,0.086111139,-0.036111125,0,0,0,,0,125,125,110,1,,,,,
,,,,,,cfa4797c122c5024e9c138c6,66a626ef09d4e21e1a8894ec,6734d68c82184f7f01d46fa0,2024-11-13_13h41.04.702,Tarea de género gramatical,2024.2.2,Win32,59.88023952,,,,,,,,,,,,,,,,,,,,,,296.817,297.9999,a,1,[],[],[],[],[],[],[],0.5136,1,298,298.4956,,,,,,205,FEM,AGR,150,reina,la,a,0.5136,,,,298.4957,298.4959,0.086111139,-0.036111125,0,0,0,,0,126,126,204,1,,,,,
,,,,,,cfa4797c122c5024e9c138c6,66a626ef09d4e21e1a8894ec,6734d68c82184f7f01d46fa0,2024-11-13_13h41.04.702,Tarea de género gramatical,2024.2.2,Win32,59.88023952,,,,,,,,,,,,,,,,,,,,,,298.4977,299.5331,l,1,[],[],[],[],[],[],[],0.3669,1,299.5331,300.0339,,,,,,396,MAS,DIS,150,tesoro,la,l,0.3669,,,,300.034,300.0342,0.086111139,-0.036111125,0,0,0,,0,127,127,395,1,,,,,
,,,,,,cfa4797c122c5024e9c138c6,66a626ef09d4e21e1a8894ec,6734d68c82184f7f01d46fa0,2024-11-13_13h41.04.702,Tarea de género gramatical,2024.2.2,Win32,59.88023952,,,,,,,,,,,,,,,,,,,,,,300.0359,301.0287,l,1,[],[],[],[],[],[],[],0.3065,1,301.0288,301.5164,,,,,,95,MAS,CON,150,tomo,,l,0.3065,,,,301.517,301.5173,0.086111139,-0.036111125,0,0,0,,0,128,128,94,1,,,,,
,,,,,,cfa4797c122c5024e9c138c6,66a626ef09d4e21e1a8894ec,6734d68c82184f7f01d46fa0,2024-11-13_13h41.04.702,Tarea de género gramatical,2024.2.2,Win32,59.88023952,,,,,,,,,,,,,,,,,,,,,,301.5177,303.2499,a,1,[],[],[],[],[],[],[],1.0504,1,303.2499,303.7454,,,,,,410,FEM,CON,150,piedad,,a,1.0504,,,,303.7454,303.7454,0.086111139,-0.036111125,0,0,0,,0,129,129,409,1,,,,,
,,,,,,cfa4797c122c5024e9c138c6,66a626ef09d4e21e1a8894ec,6734d68c82184f7f01d46fa0,2024-11-13_13h41.04.702,Tarea de género gramatical,2024.2.2,Win32,59.88023952,,,,,,,,,,,,,,,,,,,,,,303.7459,304.7787,l,1,[],[],[],[],[],[],[],0.3554,1,304.7788,305.2663,,,,,,353,MAS,CON,150,verano,,l,0.3554,,,,305.2664,305.2664,0.086111139,-0.036111125,0,0,0,,0,130,130,352,1,,,,,
,,,,,,cfa4797c122c5024e9c138c6,66a626ef09d4e21e1a8894ec,6734d68c82184f7f01d46fa0,2024-11-13_13h41.04.702,Tarea de género gramatical,2024.2.2,Win32,59.88023952,,,,,,,,,,,,,,,,,,,,,,305.267,306.3121,l,1,[],[],[],[],[],[],[],0.3533,1,306.3122,306.8163,,,,,,16,MAS,AGR,150,baño,el,l,0.3533,,,,306.8164,306.8164,0.086111139,-0.036111125,0,0,0,,0,131,131,15,1,,,,,
,,,,,,cfa4797c122c5024e9c138c6,66a626ef09d4e21e1a8894ec,6734d68c82184f7f01d46fa0,2024-11-13_13h41.04.702,Tarea de género gramatical,2024.2.2,Win32,59.88023952,,,,,,,,,,,,,,,,,,,,,,306.8169,307.85,a,1,[],[],[],[],[],[],[],0.3638,1,307.85,308.3454,,,,,,332,FEM,CON,150,basura,,a,0.3638,,,,308.3461,308.3465,0.086111139,-0.036111125,0,0,0,,0,132,132,331,1,,,,,
,,,,,,cfa4797c122c5024e9c138c6,66a626ef09d4e21e1a8894ec,6734d68c82184f7f01d46fa0,2024-11-13_13h41.04.702,Tarea de género gramatical,2024.2.2,Win32,59.88023952,,,,,,,,,,,,,,,,,,,,,,308.3468,309.5332,a,1,[],[],[],[],[],[],[],0.5304,1,309.5332,310.0336,,,,,,109,FEM,AGR,150,gota,la,a,0.5304,,,,310.0337,310.0338,0.086111139,-0.036111125,0,0,0,,0,133,133,108,1,,,,,
,,,,,,cfa4797c122c5024e9c138c6,66a626ef09d4e21e1a8894ec,6734d68c82184f7f01d46fa0,2024-11-13_13h41.04.702,Tarea de género gramatical,2024.2.2,Win32,59.88023952,,,,,,,,,,,,,,,,,,,,,,310.0351,311.112,a,1,[],[],[],[],[],[],[],0.4085,1,311.1121,311.6164,,,,,,319,FEM,AGR,150,sangre,la,a,0.4085,,,,311.6164,311.6165,0.086111139,-0.036111125,0,0,0,,0,134,134,318,1,,,,,
,,,,,,cfa4797c122c5024e9c138c6,66a626ef09d4e21e1a8894ec,6734d68c82184f7f01d46fa0,2024-11-13_13h41.04.702,Tarea de género gramatical,2024.2.2,Win32,59.88023952,,,,,,,,,,,,,,,,,,,,,,311.6169,312.9455,a,1,[],[],[],[],[],[],[],0.6503,1,312.9455,313.4497,,,,,,128,FEM,CON,150,leña,,a,0.6503,,,,313.4497,313.4497,0.086111139,-0.036111125,0,0,0,,0,135,135,127,1,,,,,
,,,,,,cfa4797c122c5024e9c138c6,66a626ef09d4e21e1a8894ec,6734d68c82184f7f01d46fa0,2024-11-13_13h41.04.702,Tarea de género gramatical,2024.2.2,Win32,59.88023952,,,,,,,,,,,,,,,,,,,,,,313.4505,314.5332,a,1,[],[],[],[],[],[],[],0.4005,1,314.5332,315.0287,,,,,,134,FEM,CON,150,rama,,a,0.4005,,,,315.0287,315.0287,0.086111139,-0.036111125,0,0,0,,0,136,136,133,1,,,,,
,,,,,,cfa4797c122c5024e9c138c6,66a626ef09d4e21e1a8894ec,6734d68c82184f7f01d46fa0,2024-11-13_13h41.04.702,Tarea de género gramatical,2024.2.2,Win32,59.88023952,,,,,,,,,,,,,,,,,,,,,,315.0292,316.0453,a,1,[],[],[],[],[],[],[],0.3225,1,316.0453,316.5331,,,,,,43,FEM,AGR,150,nena,la,a,0.3225,,,,316.5336,316.534,0.086111139,-0.036111125,0,0,0,,0,137,137,42,1,,,,,
,,,,,,cfa4797c122c5024e9c138c6,66a626ef09d4e21e1a8894ec,6734d68c82184f7f01d46fa0,2024-11-13_13h41.04.702,Tarea de género gramatical,2024.2.2,Win32,59.88023952,,,,,,,,,,,,,,,,,,,,,,316.5344,317.6333,a,0,[],[],[],[],[],[],[],0.4172,0,317.6336,318.1332,,,,,,305,MAS,CON,150,hombre,,l,0.4172,,,,318.1332,318.1333,0.086111139,-0.036111125,0,0,0,,0,138,138,304,1,,,,,
,,,,,,cfa4797c122c5024e9c138c6,66a626ef09d4e21e1a8894ec,6734d68c82184f7f01d46fa0,2024-11-13_13h41.04.702,Tarea de género gramatical,2024.2.2,Win32,59.88023952,,,,,,,,,,,,,,,,,,,,,,318.1339,319.513,l,1,[],[],[],[],[],[],[],0.6872,1,319.5136,320.0121,,,,,,250,MAS,AGR,150,cerdo,el,l,0.6872,,,,320.0121,320.0122,0.086111139,-0.036111125,0,0,0,,0,139,139,249,1,,,,,
,,,,,,cfa4797c122c5024e9c138c6,66a626ef09d4e21e1a8894ec,6734d68c82184f7f01d46fa0,2024-11-13_13h41.04.702,Tarea de género gramatical,2024.2.2,Win32,59.88023952,,,,,,,,,,,,,,,,,,,,,,320.0128,320.9957,l,1,[],[],[],[],[],[],[],0.3012,1,320.9958,321.4953,,,,,,299,MAS,CON,150,rumbo,,l,0.3012,,,,321.4954,321.4954,0.086111139,-0.036111125,0,0,0,,0,140,140,298,1,,,,,
,,,,,,cfa4797c122c5024e9c138c6,66a626ef09d4e21e1a8894ec,6734d68c82184f7f01d46fa0,2024-11-13_13h41.04.702,Tarea de género gramatical,2024.2.2,Win32,59.88023952,,,,,,,,,,,,,,,,,,,,,,321.496,322.5332,l,1,[],[],[],[],[],[],[],0.367,1,322.5332,323.0332,,,,,,287,MAS,CON,150,plato,,l,0.367,,,,323.0337,323.0342,0.086111139,-0.036111125,0,0,0,,0,141,141,286,1,,,,,
,,,,,,cfa4797c122c5024e9c138c6,66a626ef09d4e21e1a8894ec,6734d68c82184f7f01d46fa0,2024-11-13_13h41.04.702,Tarea de género gramatical,2024.2.2,Win32,59.88023952,,,,,,,,,,,,,,,,,,,,,,323.0345,324.1288,a,1,[],[],[],[],[],[],[],0.4037,1,324.1289,324.6165,,,,,,176,FEM,CON,150,línea,,a,0.4037,,,,324.6165,324.6165,0.086111139,-0.036111125,0,0,0,,0,142,142,175,1,,,,,
,,,,,,cfa4797c122c5024e9c138c6,66a626ef09d4e21e1a8894ec,6734d68c82184f7f01d46fa0,2024-11-13_13h41.04.702,Tarea de género gramatical,2024.2.2,Win32,59.88023952,,,,,,,,,,,,,,,,,,,,,,324.617,325.7332,a,1,[],[],[],[],[],[],[],0.4338,1,325.7332,326.2331,,,,,,315,FEM,DIS,150,manera,el,a,0.4338,,,,326.2331,326.2331,0.086111139,-0.036111125,0,0,0,,0,143,143,314,1,,,,,
,,,,,,cfa4797c122c5024e9c138c6,66a626ef09d4e21e1a8894ec,6734d68c82184f7f01d46fa0,2024-11-13_13h41.04.702,Tarea de género gramatical,2024.2.2,Win32,59.88023952,,,,,,,,,,,,,,,,,,,,,,326.2337,327.2955,a,1,[],[],[],[],[],[],[],0.3708,1,327.2955,327.7953,,,,,,266,FEM,CON,150,jaula,,a,0.3708,,,,327.7953,327.7955,0.086111139,-0.036111125,0,0,0,,0,144,144,265,1,,,,,
,,,,,,cfa4797c122c5024e9c138c6,66a626ef09d4e21e1a8894ec,6734d68c82184f7f01d46fa0,2024-11-13_13h41.04.702,Tarea de género gramatical,2024.2.2,Win32,59.88023952,,,,,,,,,,,,,,,,,,,,,,327.7959,328.9168,l,1,[],[],[],[],[],[],[],0.4337,1,328.9168,329.4164,,,,,,156,MAS,DIS,150,amigo,la,l,0.4337,,,,329.4164,329.4165,0.086111139,-0.036111125,0,0,0,,0,145,145,155,1,,,,,
,,,,,,cfa4797c122c5024e9c138c6,66a626ef09d4e21e1a8894ec,6734d68c82184f7f01d46fa0,2024-11-13_13h41.04.702,Tarea de género gramatical,2024.2.2,Win32,59.88023952,,,,,,,,,,,,,,,,,,,,,,329.4171,330.7332,a,1,[],[],[],[],[],[],[],0.6335,1,330.7332,331.2289,,,,,,381,FEM,DIS,150,bebida,el,a,0.6335,,,,331.2305,331.2316,0.086111139,-0.036111125,0,0,0,,0,146,146,380,1,,,,,
,,,,,,cfa4797c122c5024e9c138c6,66a626ef09d4e21e1a8894ec,6734d68c82184f7f01d46fa0,2024-11-13_13h41.04.702,Tarea de género gramatical,2024.2.2,Win32,59.88023952,,,,,,,,,,,,,,,,,,,,,,331.2327,332.3499,l,1,[],[],[],[],[],[],[],0.4504,1,332.35,332.8454,,,,,,352,MAS,AGR,150,estilo,el,l,0.4504,,,,332.8454,332.8455,0.086111139,-0.036111125,0,0,0,,0,147,147,351,1,,,,,
,,,,,,cfa4797c122c5024e9c138c6,66a626ef09d4e21e1a8894ec,6734d68c82184f7f01d46fa0,2024-11-13_13h41.04.702,Tarea de género gramatical,2024.2.2,Win32,59.88023952,,,,,,,,,,,,,,,,,,,,,,332.846,334.5832,l,1,[],[],[],[],[],[],[],1.067,1,334.5832,335.0832,,,,,,281,MAS,CON,150,actor,,l,1.067,,,,335.0832,335.0832,0.086111139,-0.036111125,0,0,0,,0,148,148,280,1,,,,,
,,,,,,cfa4797c122c5024e9c138c6,66a626ef09d4e21e1a8894ec,6734d68c82184f7f01d46fa0,2024-11-13_13h41.04.702,Tarea de género gramatical,2024.2.2,Win32,59.88023952,,,,,,,,,,,,,,,,,,,,,,335.0837,336.4167,a,1,[],[],[],[],[],[],[],0.6677,1,336.4167,336.9164,,,,,,445,FEM,AGR,150,bondad,la,a,0.6677,,,,336.9164,336.9165,0.086111139,-0.036111125,0,0,0,,0,149,149,444,1,,,,,
,,,,,,cfa4797c122c5024e9c138c6,66a626ef09d4e21e1a8894ec,6734d68c82184f7f01d46fa0,2024-11-13_13h41.04.702,Tarea de género gramatical,2024.2.2,Win32,59.88023952,,,,,,,,,,,,,,,,,,,,,,336.917,338.162,a,1,[],[],[],[],[],[],[],0.5592,1,338.1621,338.6497,,,,,,446,FEM,CON,150,bañera,,a,0.5592,,,,338.6504,352.0621,0.243518547,0.145370377,0,0,0,space,0,150,150,445,1,,13.3881,,,
,,,,,,cfa4797c122c5024e9c138c6,66a626ef09d4e21e1a8894ec,6734d68c82184f7f01d46fa0,2024-11-13_13h41.04.702,Tarea de género gramatical,2024.2.2,Win32,59.88023952,,,,,,,,,,,,,,,,,,,,,,352.0627,353.4289,a,1,[],[],[],[],[],[],[],0.6899,1,353.4289,353.9164,,,,,,291,FEM,DIS,150,aguja,el,a,0.6899,,,,353.9164,353.9164,0.243518547,0.145370377,0,0,0,,0,151,151,290,1,,,,,
,,,,,,cfa4797c122c5024e9c138c6,66a626ef09d4e21e1a8894ec,6734d68c82184f7f01d46fa0,2024-11-13_13h41.04.702,Tarea de género gramatical,2024.2.2,Win32,59.88023952,,,,,,,,,,,,,,,,,,,,,,353.917,355.0167,a,1,[],[],[],[],[],[],[],0.4171,1,355.0167,355.5166,,,,,,283,FEM,AGR,150,pluma,la,a,0.4171,,,,355.5166,355.5166,0.243518547,0.145370377,0,0,0,,0,152,152,282,1,,,,,
,,,,,,cfa4797c122c5024e9c138c6,66a626ef09d4e21e1a8894ec,6734d68c82184f7f01d46fa0,2024-11-13_13h41.04.702,Tarea de género gramatical,2024.2.2,Win32,59.88023952,,,,,,,,,,,,,,,,,,,,,,355.5172,356.5288,a,1,[],[],[],[],[],[],[],0.3272,1,356.5289,357.0332,,,,,,421,FEM,AGR,150,novela,la,a,0.3272,,,,357.0332,357.0333,0.243518547,0.145370377,0,0,0,,0,153,153,420,1,,,,,
,,,,,,cfa4797c122c5024e9c138c6,66a626ef09d4e21e1a8894ec,6734d68c82184f7f01d46fa0,2024-11-13_13h41.04.702,Tarea de género gramatical,2024.2.2,Win32,59.88023952,,,,,,,,,,,,,,,,,,,,,,357.0338,358.0332,a,1,[],[],[],[],[],[],[],0.3169,1,358.0333,358.5331,,,,,,57,FEM,DIS,150,moda,el,a,0.3169,,,,358.5331,358.5332,0.243518547,0.145370377,0,0,0,,0,154,154,56,1,,,,,
,,,,,,cfa4797c122c5024e9c138c6,66a626ef09d4e21e1a8894ec,6734d68c82184f7f01d46fa0,2024-11-13_13h41.04.702,Tarea de género gramatical,2024.2.2,Win32,59.88023952,,,,,,,,,,,,,,,,,,,,,,358.5337,359.7012,l,1,[],[],[],[],[],[],[],0.4844,1,359.7013,360.1998,,,,,,432,MAS,DIS,150,océano,la,l,0.4844,,,,360.2004,360.2008,0.243518547,0.145370377,0,0,0,,0,155,155,431,1,,,,,
,,,,,,cfa4797c122c5024e9c138c6,66a626ef09d4e21e1a8894ec,6734d68c82184f7f01d46fa0,2024-11-13_13h41.04.702,Tarea de género gramatical,2024.2.2,Win32,59.88023952,,,,,,,,,,,,,,,,,,,,,,360.2012,361.2125,a,1,[],[],[],[],[],[],[],0.3182,1,361.2126,361.7165,,,,,,193,FEM,AGR,150,bolsa,la,a,0.3182,,,,361.7165,361.7167,0.235185199,0.166666667,0,0,0,,0,156,156,192,1,,,,,
,,,,,,cfa4797c122c5024e9c138c6,66a626ef09d4e21e1a8894ec,6734d68c82184f7f01d46fa0,2024-11-13_13h41.04.702,Tarea de género gramatical,2024.2.2,Win32,59.88023952,,,,,,,,,,,,,,,,,,,,,,361.7171,363.879,a,0,[],[],[],[],[],[],[],1.4717,0,363.88,364.3833,,,,,,28,MAS,AGR,150,club,el,l,1.4717,,,,364.3833,364.3834,0.235185199,0.166666667,0,0,0,,0,157,157,27,1,,,,,
,,,,,,cfa4797c122c5024e9c138c6,66a626ef09d4e21e1a8894ec,6734d68c82184f7f01d46fa0,2024-11-13_13h41.04.702,Tarea de género gramatical,2024.2.2,Win32,59.88023952,,,,,,,,,,,,,,,,,,,,,,364.3839,365.5454,l,1,[],[],[],[],[],[],[],0.4703,1,365.5458,366.0333,,,,,,389,MAS,CON,150,tamaño,,l,0.4703,,,,366.0333,366.0334,0.235185199,0.166666667,0,0,0,,0,158,158,388,1,,,,,
,,,,,,cfa4797c122c5024e9c138c6,66a626ef09d4e21e1a8894ec,6734d68c82184f7f01d46fa0,2024-11-13_13h41.04.702,Tarea de género gramatical,2024.2.2,Win32,59.88023952,,,,,,,,,,,,,,,,,,,,,,366.034,367.1501,a,1,[],[],[],[],[],[],[],0.447,1,367.1501,367.6499,,,,,,139,FEM,AGR,150,pipa,la,a,0.447,,,,367.6506,367.651,0.235185199,0.166666667,0,0,0,,0,159,159,138,1,,,,,
,,,,,,cfa4797c122c5024e9c138c6,66a626ef09d4e21e1a8894ec,6734d68c82184f7f01d46fa0,2024-11-13_13h41.04.702,Tarea de género gramatical,2024.2.2,Win32,59.88023952,,,,,,,,,,,,,,,,,,,,,,367.6514,369.0959,l,1,[],[],[],[],[],[],[],0.7674,1,369.0961,369.5998,,,,,,178,MAS,AGR,150,punto,el,l,0.7674,,,,369.5998,369.5999,0.235185199,0.166666667,0,0,0,,0,160,160,177,1,,,,,
,,,,,,cfa4797c122c5024e9c138c6,66a626ef09d4e21e1a8894ec,6734d68c82184f7f01d46fa0,2024-11-13_13h41.04.702,Tarea de género gramatical,2024.2.2,Win32,59.88023952,,,,,,,,,,,,,,,,,,,,,,369.6006,370.7833,l,1,[],[],[],[],[],[],[],0.5003,1,370.7833,371.2842,,,,,,262,MAS,AGR,150,video,el,l,0.5003,,,,371.2842,371.2845,0.235185199,0.166666667,0,0,0,,0,161,161,261,1,,,,,
,,,,,,cfa4797c122c5024e9c138c6,66a626ef09d4e21e1a8894ec,6734d68c82184f7f01d46fa0,2024-11-13_13h41.04.702,Tarea de género gramatical,2024.2.2,Win32,59.88023952,,,,,,,,,,,,,,,,,,,,,,371.2861,372.3001,l,1,[],[],[],[],[],[],[],0.3471,1,372.3001,372.7999,,,,,,275,MAS,CON,150,disco,,l,0.3471,,,,372.7999,372.8,0.235185199,0.166666667,0,0,0,,0,162,162,274,1,,,,,
,,,,,,cfa4797c122c5024e9c138c6,66a626ef09d4e21e1a8894ec,6734d68c82184f7f01d46fa0,2024-11-13_13h41.04.702,Tarea de género gramatical,2024.2.2,Win32,59.88023952,,,,,,,,,,,,,,,,,,,,,,372.8006,373.8166,l,1,[],[],[],[],[],[],[],0.3336,1,373.8166,374.3165,,,,,,449,MAS,CON,150,payaso,,l,0.3336,,,,374.3165,374.3166,0.235185199,0.166666667,0,0,0,,0,163,163,448,1,,,,,
,,,,,,cfa4797c122c5024e9c138c6,66a626ef09d4e21e1a8894ec,6734d68c82184f7f01d46fa0,2024-11-13_13h41.04.702,Tarea de género gramatical,2024.2.2,Win32,59.88023952,,,,,,,,,,,,,,,,,,,,,,374.3172,375.4334,a,1,[],[],[],[],[],[],[],0.4338,1,375.4335,375.9289,,,,,,434,FEM,CON,150,corona,,a,0.4338,,,,375.9296,375.9301,0.235185199,0.166666667,0,0,0,,0,164,164,433,1,,,,,
,,,,,,cfa4797c122c5024e9c138c6,66a626ef09d4e21e1a8894ec,6734d68c82184f7f01d46fa0,2024-11-13_13h41.04.702,Tarea de género gramatical,2024.2.2,Win32,59.88023952,,,,,,,,,,,,,,,,,,,,,,375.9305,377.365,l,1,[],[],[],[],[],[],[],0.7647,1,377.3651,377.8665,,,,,,330,MAS,DIS,150,estado,la,l,0.7647,,,,377.8666,377.8667,0.235185199,0.166666667,0,0,0,,0,165,165,329,1,,,,,
,,,,,,cfa4797c122c5024e9c138c6,66a626ef09d4e21e1a8894ec,6734d68c82184f7f01d46fa0,2024-11-13_13h41.04.702,Tarea de género gramatical,2024.2.2,Win32,59.88023952,,,,,,,,,,,,,,,,,,,,,,377.8673,379.2667,a,1,[],[],[],[],[],[],[],0.7169,1,379.2667,379.7666,,,,,,331,FEM,AGR,150,cárcel,la,a,0.7169,,,,379.7667,379.7667,0.235185199,0.166666667,0,0,0,,0,166,166,330,1,,,,,
,,,,,,cfa4797c122c5024e9c138c6,66a626ef09d4e21e1a8894ec,6734d68c82184f7f01d46fa0,2024-11-13_13h41.04.702,Tarea de género gramatical,2024.2.2,Win32,59.88023952,,,,,,,,,,,,,,,,,,,,,,379.7673,380.8174,l,1,[],[],[],[],[],[],[],0.3676,1,380.8175,381.3165,,,,,,264,MAS,DIS,150,pollo,la,l,0.3676,,,,381.3165,381.3166,0.235185199,0.166666667,0,0,0,,0,167,167,263,1,,,,,
,,,,,,cfa4797c122c5024e9c138c6,66a626ef09d4e21e1a8894ec,6734d68c82184f7f01d46fa0,2024-11-13_13h41.04.702,Tarea de género gramatical,2024.2.2,Win32,59.88023952,,,,,,,,,,,,,,,,,,,,,,381.3171,382.4459,a,1,[],[],[],[],[],[],[],0.4526,1,382.4461,382.9498,,,,,,27,FEM,DIS,150,mesa,el,a,0.4526,,,,382.9503,382.9507,0.235185199,0.166666667,0,0,0,,0,168,168,26,1,,,,,
,,,,,,cfa4797c122c5024e9c138c6,66a626ef09d4e21e1a8894ec,6734d68c82184f7f01d46fa0,2024-11-13_13h41.04.702,Tarea de género gramatical,2024.2.2,Win32,59.88023952,,,,,,,,,,,,,,,,,,,,,,382.9512,384.0955,l,1,[],[],[],[],[],[],[],0.4537,1,384.0955,384.5999,,,,,,286,MAS,AGR,150,reino,el,l,0.4537,,,,384.6,384.6,0.235185199,0.166666667,0,0,0,,0,169,169,285,1,,,,,
,,,,,,cfa4797c122c5024e9c138c6,66a626ef09d4e21e1a8894ec,6734d68c82184f7f01d46fa0,2024-11-13_13h41.04.702,Tarea de género gramatical,2024.2.2,Win32,59.88023952,,,,,,,,,,,,,,,,,,,,,,384.6005,385.7502,a,1,[],[],[],[],[],[],[],0.4672,1,385.7503,386.2498,,,,,,351,FEM,DIS,150,espada,el,a,0.4672,,,,386.2498,386.2499,0.235185199,0.166666667,0,0,0,,0,170,170,350,1,,,,,
,,,,,,cfa4797c122c5024e9c138c6,66a626ef09d4e21e1a8894ec,6734d68c82184f7f01d46fa0,2024-11-13_13h41.04.702,Tarea de género gramatical,2024.2.2,Win32,59.88023952,,,,,,,,,,,,,,,,,,,,,,386.2504,387.2833,a,1,[],[],[],[],[],[],[],0.3502,1,387.2834,387.7832,,,,,,200,FEM,CON,150,silla,,a,0.3502,,,,387.7832,387.7832,0.235185199,0.166666667,0,0,0,,0,171,171,199,1,,,,,
,,,,,,cfa4797c122c5024e9c138c6,66a626ef09d4e21e1a8894ec,6734d68c82184f7f01d46fa0,2024-11-13_13h41.04.702,Tarea de género gramatical,2024.2.2,Win32,59.88023952,,,,,,,,,,,,,,,,,,,,,,387.7838,388.8122,a,1,[],[],[],[],[],[],[],0.3333,1,388.8123,389.2998,,,,,,302,FEM,CON,150,cabeza,,a,0.3333,,,,389.2998,389.3,0.235185199,0.166666667,0,0,0,,0,172,172,301,1,,,,,
,,,,,,cfa4797c122c5024e9c138c6,66a626ef09d4e21e1a8894ec,6734d68c82184f7f01d46fa0,2024-11-13_13h41.04.702,Tarea de género gramatical,2024.2.2,Win32,59.88023952,,,,,,,,,,,,,,,,,,,,,,389.3005,390.3788,l,1,[],[],[],[],[],[],[],0.3916,1,390.3788,390.8665,,,,,,120,MAS,DIS,150,puño,la,l,0.3916,,,,390.8671,390.8676,0.235185199,0.166666667,0,0,0,,0,173,173,119,1,,,,,
,,,,,,cfa4797c122c5024e9c138c6,66a626ef09d4e21e1a8894ec,6734d68c82184f7f01d46fa0,2024-11-13_13h41.04.702,Tarea de género gramatical,2024.2.2,Win32,59.88023952,,,,,,,,,,,,,,,,,,,,,,390.868,391.9815,l,1,[],[],[],[],[],[],[],0.4491,1,391.9816,392.4832,,,,,,4,MAS,AGR,150,hijo,el,l,0.4491,,,,392.4832,392.4832,0.235185199,0.166666667,0,0,0,,0,174,174,3,1,,,,,
,,,,,,cfa4797c122c5024e9c138c6,66a626ef09d4e21e1a8894ec,6734d68c82184f7f01d46fa0,2024-11-13_13h41.04.702,Tarea de género gramatical,2024.2.2,Win32,59.88023952,,,,,,,,,,,,,,,,,,,,,,392.4838,393.5833,a,1,[],[],[],[],[],[],[],0.4307,1,393.5833,394.0832,,,,,,363,FEM,DIS,150,unidad,el,a,0.4307,,,,394.0832,394.0832,0.235185199,0.166666667,0,0,0,,0,175,175,362,1,,,,,
,,,,,,cfa4797c122c5024e9c138c6,66a626ef09d4e21e1a8894ec,6734d68c82184f7f01d46fa0,2024-11-13_13h41.04.702,Tarea de género gramatical,2024.2.2,Win32,59.88023952,,,,,,,,,,,,,,,,,,,,,,394.0838,395.2,a,1,[],[],[],[],[],[],[],0.4337,1,395.2,395.6955,,,,,,81,FEM,DIS,150,cima,el,a,0.4337,,,,395.6955,395.6956,0.235185199,0.166666667,0,0,0,,0,176,176,80,1,,,,,
,,,,,,cfa4797c122c5024e9c138c6,66a626ef09d4e21e1a8894ec,6734d68c82184f7f01d46fa0,2024-11-13_13h41.04.702,Tarea de género gramatical,2024.2.2,Win32,59.88023952,,,,,,,,,,,,,,,,,,,,,,395.6961,397.5122,l,1,[],[],[],[],[],[],[],1.1428,1,397.5122,398.0166,,,,,,179,MAS,CON,150,viaje,,l,1.1428,,,,398.0172,398.0176,0.235185199,0.166666667,0,0,0,,0,177,177,178,1,,,,,
,,,,,,cfa4797c122c5024e9c138c6,66a626ef09d4e21e1a8894ec,6734d68c82184f7f01d46fa0,2024-11-13_13h41.04.702,Tarea de género gramatical,2024.2.2,Win32,59.88023952,,,,,,,,,,,,,,,,,,,,,,398.018,399.1001,a,1,[],[],[],[],[],[],[],0.4136,1,399.1001,399.5956,,,,,,295,FEM,AGR,150,grasa,la,a,0.4136,,,,399.5956,399.5957,0.235185199,0.166666667,0,0,0,,0,178,178,294,1,,,,,
,,,,,,cfa4797c122c5024e9c138c6,66a626ef09d4e21e1a8894ec,6734d68c82184f7f01d46fa0,2024-11-13_13h41.04.702,Tarea de género gramatical,2024.2.2,Win32,59.88023952,,,,,,,,,,,,,,,,,,,,,,399.5962,400.8,a,1,[],[],[],[],[],[],[],0.5304,1,400.8,401.3,,,,,,428,FEM,CON,150,jugada,,a,0.5304,,,,401.3,401.3001,0.235185199,0.166666667,0,0,0,,0,179,179,427,1,,,,,
,,,,,,cfa4797c122c5024e9c138c6,66a626ef09d4e21e1a8894ec,6734d68c82184f7f01d46fa0,2024-11-13_13h41.04.702,Tarea de género gramatical,2024.2.2,Win32,59.88023952,,,,,,,,,,,,,,,,,,,,,,401.3005,402.6832,a,1,[],[],[],[],[],[],[],0.7135,1,402.6832,403.1831,,,,,,374,FEM,CON,150,herida,,a,0.7135,,,,403.1832,403.1833,0.235185199,0.166666667,0,0,0,,0,180,180,373,1,,,,,
,,,,,,cfa4797c122c5024e9c138c6,66a626ef09d4e21e1a8894ec,6734d68c82184f7f01d46fa0,2024-11-13_13h41.04.702,Tarea de género gramatical,2024.2.2,Win32,59.88023952,,,,,,,,,,,,,,,,,,,,,,403.1838,404.3667,l,1,[],[],[],[],[],[],[],0.5005,1,404.3667,404.8664,,,,,,161,MAS,CON,150,chico,,l,0.5005,,,,404.8665,404.8666,0.235185199,0.166666667,0,0,0,,0,181,181,160,1,,,,,
,,,,,,cfa4797c122c5024e9c138c6,66a626ef09d4e21e1a8894ec,6734d68c82184f7f01d46fa0,2024-11-13_13h41.04.702,Tarea de género gramatical,2024.2.2,Win32,59.88023952,,,,,,,,,,,,,,,,,,,,,,404.8671,406.2289,l,1,[],[],[],[],[],[],[],0.6751,1,406.229,406.7166,,,,,,142,MAS,AGR,150,lodo,el,l,0.6751,0,,,406.7172,406.7176,0.235185199,0.166666667,0,0,0,,0,182,182,141,1,,,,,
,,,,,,cfa4797c122c5024e9c138c6,66a626ef09d4e21e1a8894ec,6734d68c82184f7f01d46fa0,2024-11-13_13h41.04.702,Tarea de género gramatical,2024.2.2,Win32,59.88023952,,,,,,,,,,,,,,,,,,,,,,406.718,407.7955,l,1,[],[],[],[],[],[],[],0.4017,1,407.7956,408.2956,,,,,,239,MAS,CON,150,reloj,,l,0.4017,,,,408.2956,408.2956,0.235185199,0.166666667,0,0,0,,0,183,183,238,1,,,,,
,,,,,,cfa4797c122c5024e9c138c6,66a626ef09d4e21e1a8894ec,6734d68c82184f7f01d46fa0,2024-11-13_13h41.04.702,Tarea de género gramatical,2024.2.2,Win32,59.88023952,,,,,,,,,,,,,,,,,,,,,,408.2962,409.3667,a,1,[],[],[],[],[],[],[],0.4137,1,409.3668,409.8666,,,,,,182,FEM,CON,150,prisa,,a,0.4137,,,,409.8667,409.8667,0.235185199,0.166666667,0,0,0,,0,184,184,181,1,,,,,
,,,,,,cfa4797c122c5024e9c138c6,66a626ef09d4e21e1a8894ec,6734d68c82184f7f01d46fa0,2024-11-13_13h41.04.702,Tarea de género gramatical,2024.2.2,Win32,59.88023952,,,,,,,,,,,,,,,,,,,,,,409.8672,410.9501,a,1,[],[],[],[],[],[],[],0.4004,1,410.9501,411.4499,,,,,,183,FEM,DIS,150,llave,el,a,0.4004,,,,411.4499,411.45,0.235185199,0.166666667,0,0,0,,0,185,185,182,1,,,,,
,,,,,,cfa4797c122c5024e9c138c6,66a626ef09d4e21e1a8894ec,6734d68c82184f7f01d46fa0,2024-11-13_13h41.04.702,Tarea de género gramatical,2024.2.2,Win32,59.88023952,,,,,,,,,,,,,,,,,,,,,,411.4506,412.6667,l,1,[],[],[],[],[],[],[],0.5469,1,412.6667,413.1666,,,,,,418,MAS,AGR,150,pájaro,el,l,0.5469,,,,413.1672,413.1676,0.235185199,0.166666667,0,0,0,,0,186,186,417,1,,,,,
,,,,,,cfa4797c122c5024e9c138c6,66a626ef09d4e21e1a8894ec,6734d68c82184f7f01d46fa0,2024-11-13_13h41.04.702,Tarea de género gramatical,2024.2.2,Win32,59.88023952,,,,,,,,,,,,,,,,,,,,,,413.168,414.6501,a,0,[],[],[],[],[],[],[],0.8136,0,414.6506,415.1499,,,,,,148,MAS,AGR,150,surf,el,l,0.8136,,,,415.1499,415.1499,0.235185199,0.166666667,0,0,0,,0,187,187,147,1,,,,,
,,,,,,cfa4797c122c5024e9c138c6,66a626ef09d4e21e1a8894ec,6734d68c82184f7f01d46fa0,2024-11-13_13h41.04.702,Tarea de género gramatical,2024.2.2,Win32,59.88023952,,,,,,,,,,,,,,,,,,,,,,415.1505,416.5004,l,1,[],[],[],[],[],[],[],0.6844,1,416.5007,416.9955,,,,,,401,MAS,CON,150,abrigo,,l,0.6844,0.0001,,,416.9955,416.9956,0.235185199,0.166666667,0,0,0,,0,188,188,400,1,,,,,
,,,,,,cfa4797c122c5024e9c138c6,66a626ef09d4e21e1a8894ec,6734d68c82184f7f01d46fa0,2024-11-13_13h41.04.702,Tarea de género gramatical,2024.2.2,Win32,59.88023952,,,,,,,,,,,,,,,,,,,,,,416.9961,418.2333,a,1,[],[],[],[],[],[],[],0.5669,1,418.2333,418.7289,,,,,,380,FEM,CON,150,madera,,a,0.5669,,,,418.729,418.729,0.235185199,0.166666667,0,0,0,,0,189,189,379,1,,,,,
,,,,,,cfa4797c122c5024e9c138c6,66a626ef09d4e21e1a8894ec,6734d68c82184f7f01d46fa0,2024-11-13_13h41.04.702,Tarea de género gramatical,2024.2.2,Win32,59.88023952,,,,,,,,,,,,,,,,,,,,,,418.7295,420.0335,a,1,[],[],[],[],[],[],[],0.6304,1,420.0335,420.5289,,,,,,339,FEM,DIS,150,salida,el,a,0.6304,,,,420.5289,420.529,0.235185199,0.166666667,0,0,0,,0,190,190,338,1,,,,,
,,,,,,cfa4797c122c5024e9c138c6,66a626ef09d4e21e1a8894ec,6734d68c82184f7f01d46fa0,2024-11-13_13h41.04.702,Tarea de género gramatical,2024.2.2,Win32,59.88023952,,,,,,,,,,,,,,,,,,,,,,420.5296,421.7956,l,1,[],[],[],[],[],[],[],0.5664,1,421.7956,422.2955,,,,,,186,MAS,DIS,150,error,la,l,0.5664,,,,422.2962,422.2965,0.235185199,0.166666667,0,0,0,,0,191,191,185,1,,,,,
,,,,,,cfa4797c122c5024e9c138c6,66a626ef09d4e21e1a8894ec,6734d68c82184f7f01d46fa0,2024-11-13_13h41.04.702,Tarea de género gramatical,2024.2.2,Win32,59.88023952,,,,,,,,,,,,,,,,,,,,,,422.2969,423.6622,l,1,[],[],[],[],[],[],[],0.6885,1,423.6623,424.1499,,,,,,270,MAS,DIS,150,queso,la,l,0.6885,,,,424.1499,424.15,0.235185199,0.166666667,0,0,0,,0,192,192,269,1,,,,,
,,,,,,cfa4797c122c5024e9c138c6,66a626ef09d4e21e1a8894ec,6734d68c82184f7f01d46fa0,2024-11-13_13h41.04.702,Tarea de género gramatical,2024.2.2,Win32,59.88023952,,,,,,,,,,,,,,,,,,,,,,424.1505,425.2501,a,1,[],[],[],[],[],[],[],0.4169,1,425.2501,425.75,,,,,,248,FEM,CON,150,letra,,a,0.4169,,,,425.75,425.7501,0.235185199,0.166666667,0,0,0,,0,193,193,247,1,,,,,
,,,,,,cfa4797c122c5024e9c138c6,66a626ef09d4e21e1a8894ec,6734d68c82184f7f01d46fa0,2024-11-13_13h41.04.702,Tarea de género gramatical,2024.2.2,Win32,59.88023952,,,,,,,,,,,,,,,,,,,,,,425.7506,426.9789,a,1,[],[],[],[],[],[],[],0.5336,1,426.9789,427.4667,,,,,,361,FEM,AGR,150,oferta,la,a,0.5336,,,,427.4667,427.4668,0.235185199,0.166666667,0,0,0,,0,194,194,360,1,,,,,
,,,,,,cfa4797c122c5024e9c138c6,66a626ef09d4e21e1a8894ec,6734d68c82184f7f01d46fa0,2024-11-13_13h41.04.702,Tarea de género gramatical,2024.2.2,Win32,59.88023952,,,,,,,,,,,,,,,,,,,,,,427.4674,428.5667,a,1,[],[],[],[],[],[],[],0.4302,1,428.5668,429.0665,,,,,,417,FEM,DIS,150,cabaña,el,a,0.4302,,,,429.0672,429.0677,0.235185199,0.166666667,0,0,0,,0,195,195,416,1,,,,,
,,,,,,cfa4797c122c5024e9c138c6,66a626ef09d4e21e1a8894ec,6734d68c82184f7f01d46fa0,2024-11-13_13h41.04.702,Tarea de género gramatical,2024.2.2,Win32,59.88023952,,,,,,,,,,,,,,,,,,,,,,429.068,430.1168,l,1,[],[],[],[],[],[],[],0.3806,1,430.1169,430.6166,,,,,,257,MAS,CON,150,pecho,,l,0.3806,,,,430.6167,430.6167,0.235185199,0.166666667,0,0,0,,0,196,196,256,1,,,,,
,,,,,,cfa4797c122c5024e9c138c6,66a626ef09d4e21e1a8894ec,6734d68c82184f7f01d46fa0,2024-11-13_13h41.04.702,Tarea de género gramatical,2024.2.2,Win32,59.88023952,,,,,,,,,,,,,,,,,,,,,,430.6171,431.95,l,0,[],[],[],[],[],[],[],0.6505,0,431.9505,432.45,,,,,,362,FEM,CON,150,fuente,,a,0.6505,,,,432.45,432.45,0.235185199,0.166666667,0,0,0,,0,197,197,361,1,,,,,
,,,,,,cfa4797c122c5024e9c138c6,66a626ef09d4e21e1a8894ec,6734d68c82184f7f01d46fa0,2024-11-13_13h41.04.702,Tarea de género gramatical,2024.2.2,Win32,59.88023952,,,,,,,,,,,,,,,,,,,,,,432.4506,433.5835,a,1,[],[],[],[],[],[],[],0.4505,1,433.5839,434.0834,,,,,,45,FEM,DIS,150,isla,el,a,0.4505,,,,434.0835,434.0835,0.235185199,0.166666667,0,0,0,,0,198,198,44,1,,,,,
,,,,,,cfa4797c122c5024e9c138c6,66a626ef09d4e21e1a8894ec,6734d68c82184f7f01d46fa0,2024-11-13_13h41.04.702,Tarea de género gramatical,2024.2.2,Win32,59.88023952,,,,,,,,,,,,,,,,,,,,,,434.0841,435.1335,a,1,[],[],[],[],[],[],[],0.367,1,435.1335,435.6289,,,,,,435,FEM,DIS,150,niebla,el,a,0.367,,,,435.629,435.629,0.235185199,0.166666667,0,0,0,,0,199,199,434,1,,,,,
,,,,,,cfa4797c122c5024e9c138c6,66a626ef09d4e21e1a8894ec,6734d68c82184f7f01d46fa0,2024-11-13_13h41.04.702,Tarea de género gramatical,2024.2.2,Win32,59.88023952,,,,,,,,,,,,,,,,,,,,,,435.6295,437.0834,l,1,[],[],[],[],[],[],[],0.7837,1,437.0835,437.579,,,,,,144,MAS,DIS,150,amor,la,l,0.7837,0.0001,,,437.5795,437.58,0.235185199,0.166666667,0,0,0,,0,200,200,143,1,,,,,
,,,,,,cfa4797c122c5024e9c138c6,66a626ef09d4e21e1a8894ec,6734d68c82184f7f01d46fa0,2024-11-13_13h41.04.702,Tarea de género gramatical,2024.2.2,Win32,59.88023952,,,,,,,,,,,,,,,,,,,,,,437.5803,438.6456,a,0,[],[],[],[],[],[],[],0.4067,0,438.646,439.1334,,,,,,12,MAS,DIS,150,plan,la,l,0.4067,,,,439.1334,439.1335,0.235185199,0.166666667,0,0,0,,0,201,201,11,1,,,,,
,,,,,,cfa4797c122c5024e9c138c6,66a626ef09d4e21e1a8894ec,6734d68c82184f7f01d46fa0,2024-11-13_13h41.04.702,Tarea de género gramatical,2024.2.2,Win32,59.88023952,,,,,,,,,,,,,,,,,,,,,,439.1341,440.3622,l,1,[],[],[],[],[],[],[],0.5421,1,440.3627,440.8667,,,,,,298,MAS,AGR,150,botón,el,l,0.5421,,,,440.8667,440.8668,0.235185199,0.166666667,0,0,0,,0,202,202,297,1,,,,,
,,,,,,cfa4797c122c5024e9c138c6,66a626ef09d4e21e1a8894ec,6734d68c82184f7f01d46fa0,2024-11-13_13h41.04.702,Tarea de género gramatical,2024.2.2,Win32,59.88023952,,,,,,,,,,,,,,,,,,,,,,440.8674,442.1455,a,1,[],[],[],[],[],[],[],0.6064,1,442.1455,442.6332,,,,,,117,FEM,DIS,150,raya,el,a,0.6064,,,,442.6332,442.6333,0.235185199,0.166666667,0,0,0,,0,203,203,116,1,,,,,
,,,,,,cfa4797c122c5024e9c138c6,66a626ef09d4e21e1a8894ec,6734d68c82184f7f01d46fa0,2024-11-13_13h41.04.702,Tarea de género gramatical,2024.2.2,Win32,59.88023952,,,,,,,,,,,,,,,,,,,,,,442.6339,443.7457,a,1,[],[],[],[],[],[],[],0.4202,1,443.7458,444.2499,,,,,,314,FEM,CON,150,señora,,a,0.4202,,,,444.2506,444.2509,0.235185199,0.166666667,0,0,0,,0,204,204,313,1,,,,,
,,,,,,cfa4797c122c5024e9c138c6,66a626ef09d4e21e1a8894ec,6734d68c82184f7f01d46fa0,2024-11-13_13h41.04.702,Tarea de género gramatical,2024.2.2,Win32,59.88023952,,,,,,,,,,,,,,,,,,,,,,444.2513,445.3836,l,1,[],[],[],[],[],[],[],0.4636,1,445.3836,445.879,,,,,,323,MAS,CON,150,marido,,l,0.4636,,,,445.879,445.879,0.235185199,0.166666667,0,0,0,,0,205,205,322,1,,,,,
,,,,,,cfa4797c122c5024e9c138c6,66a626ef09d4e21e1a8894ec,6734d68c82184f7f01d46fa0,2024-11-13_13h41.04.702,Tarea de género gramatical,2024.2.2,Win32,59.88023952,,,,,,,,,,,,,,,,,,,,,,445.8796,446.8965,a,1,[],[],[],[],[],[],[],0.3464,1,446.8966,447.396,,,,,,39,FEM,DIS,150,luna,el,a,0.3464,,,,447.396,447.3962,0.235185199,0.166666667,0,0,0,,0,206,206,38,1,,,,,
,,,,,,cfa4797c122c5024e9c138c6,66a626ef09d4e21e1a8894ec,6734d68c82184f7f01d46fa0,2024-11-13_13h41.04.702,Tarea de género gramatical,2024.2.2,Win32,59.88023952,,,,,,,,,,,,,,,,,,,,,,447.3986,448.4668,l,1,[],[],[],[],[],[],[],0.3837,1,448.467,448.9666,,,,,,59,MAS,CON,150,lobo,,l,0.3837,,,,448.9667,448.9668,0.235185199,0.166666667,0,0,0,,0,207,207,58,1,,,,,
,,,,,,cfa4797c122c5024e9c138c6,66a626ef09d4e21e1a8894ec,6734d68c82184f7f01d46fa0,2024-11-13_13h41.04.702,Tarea de género gramatical,2024.2.2,Win32,59.88023952,,,,,,,,,,,,,,,,,,,,,,448.9674,450.0123,a,1,[],[],[],[],[],[],[],0.3705,1,450.0123,450.5,,,,,,103,FEM,AGR,150,fama,la,a,0.3705,,,,450.5001,450.5001,0.235185199,0.166666667,0,0,0,,0,208,208,102,1,,,,,
,,,,,,cfa4797c122c5024e9c138c6,66a626ef09d4e21e1a8894ec,6734d68c82184f7f01d46fa0,2024-11-13_13h41.04.702,Tarea de género gramatical,2024.2.2,Win32,59.88023952,,,,,,,,,,,,,,,,,,,,,,450.5006,451.5841,l,1,[],[],[],[],[],[],[],0.4006,1,451.5842,452.0834,,,,,,108,MAS,DIS,150,hilo,la,l,0.4006,,,,452.0841,452.0846,0.235185199,0.166666667,0,0,0,,0,209,209,107,1,,,,,
,,,,,,cfa4797c122c5024e9c138c6,66a626ef09d4e21e1a8894ec,6734d68c82184f7f01d46fa0,2024-11-13_13h41.04.702,Tarea de género gramatical,2024.2.2,Win32,59.88023952,,,,,,,,,,,,,,,,,,,,,,452.0849,453.0291,a,1,[],[],[],[],[],[],[],0.2568,1,453.0292,453.5341,,,,,,37,FEM,AGR,150,sala,la,a,0.2568,,,,453.5341,453.5343,0.235185199,0.166666667,0,0,0,,0,210,210,36,1,,,,,
,,,,,,cfa4797c122c5024e9c138c6,66a626ef09d4e21e1a8894ec,6734d68c82184f7f01d46fa0,2024-11-13_13h41.04.702,Tarea de género gramatical,2024.2.2,Win32,59.88023952,,,,,,,,,,,,,,,,,,,,,,453.5356,455.029,a,1,[],[],[],[],[],[],[],0.8063,1,455.0291,455.5168,,,,,,25,FEM,AGR,150,nave,la,a,0.8063,,,,455.5168,455.5169,0.235185199,0.166666667,0,0,0,,0,211,211,24,1,,,,,
,,,,,,cfa4797c122c5024e9c138c6,66a626ef09d4e21e1a8894ec,6734d68c82184f7f01d46fa0,2024-11-13_13h41.04.702,Tarea de género gramatical,2024.2.2,Win32,59.88023952,,,,,,,,,,,,,,,,,,,,,,455.5175,456.6169,l,1,[],[],[],[],[],[],[],0.417,1,456.617,457.1167,,,,,,232,MAS,AGR,150,calor,el,l,0.417,,,,457.1168,457.1169,0.235185199,0.166666667,0,0,0,,0,212,212,231,1,,,,,
,,,,,,cfa4797c122c5024e9c138c6,66a626ef09d4e21e1a8894ec,6734d68c82184f7f01d46fa0,2024-11-13_13h41.04.702,Tarea de género gramatical,2024.2.2,Win32,59.88023952,,,,,,,,,,,,,,,,,,,,,,457.1175,458.2001,a,1,[],[],[],[],[],[],[],0.4003,1,458.2001,458.7001,,,,,,327,FEM,DIS,150,tienda,el,a,0.4003,,,,458.7008,458.7011,0.235185199,0.166666667,0,0,0,,0,213,213,326,1,,,,,
,,,,,,cfa4797c122c5024e9c138c6,66a626ef09d4e21e1a8894ec,6734d68c82184f7f01d46fa0,2024-11-13_13h41.04.702,Tarea de género gramatical,2024.2.2,Win32,59.88023952,,,,,,,,,,,,,,,,,,,,,,458.7015,459.7628,a,1,[],[],[],[],[],[],[],0.3768,1,459.7629,460.2668,,,,,,212,FEM,CON,150,cinta,,a,0.3768,,,,460.2668,460.2669,0.244444459,0.178703697,0,0,0,,0,214,214,211,1,,,,,
,,,,,,cfa4797c122c5024e9c138c6,66a626ef09d4e21e1a8894ec,6734d68c82184f7f01d46fa0,2024-11-13_13h41.04.702,Tarea de género gramatical,2024.2.2,Win32,59.88023952,,,,,,,,,,,,,,,,,,,,,,460.2674,461.7003,l,1,[],[],[],[],[],[],[],0.7505,1,461.7003,462.2001,,,,,,208,MAS,AGR,150,suelo,el,l,0.7505,,,,462.2001,462.2002,0.244444459,0.178703697,0,0,0,,0,215,215,207,1,,,,,
,,,,,,cfa4797c122c5024e9c138c6,66a626ef09d4e21e1a8894ec,6734d68c82184f7f01d46fa0,2024-11-13_13h41.04.702,Tarea de género gramatical,2024.2.2,Win32,59.88023952,,,,,,,,,,,,,,,,,,,,,,462.2006,463.1835,a,1,[],[],[],[],[],[],[],0.3002,1,463.1835,463.6842,,,,,,98,FEM,CON,150,fuga,,a,0.3002,,,,463.6843,463.6845,0.244444459,0.178703697,0,0,0,,0,216,216,97,1,,,,,
,,,,,,cfa4797c122c5024e9c138c6,66a626ef09d4e21e1a8894ec,6734d68c82184f7f01d46fa0,2024-11-13_13h41.04.702,Tarea de género gramatical,2024.2.2,Win32,59.88023952,,,,,,,,,,,,,,,,,,,,,,463.6862,465.2503,a,0,[],[],[],[],[],[],[],0.8957,0,465.2507,465.7458,,,,,,378,MAS,DIS,150,pastel,la,l,0.8957,,,,465.7458,465.7458,0.244444459,0.178703697,0,0,0,,0,217,217,377,1,,,,,
,,,,,,cfa4797c122c5024e9c138c6,66a626ef09d4e21e1a8894ec,6734d68c82184f7f01d46fa0,2024-11-13_13h41.04.702,Tarea de género gramatical,2024.2.2,Win32,59.88023952,,,,,,,,,,,,,,,,,,,,,,465.7465,466.717,a,1,[],[],[],[],[],[],[],0.2836,1,466.7173,467.217,,,,,,32,FEM,CON,150,caja,,a,0.2836,,,,467.2182,467.219,0.244444459,0.178703697,0,0,0,,0,218,218,31,1,,,,,
,,,,,,cfa4797c122c5024e9c138c6,66a626ef09d4e21e1a8894ec,6734d68c82184f7f01d46fa0,2024-11-13_13h41.04.702,Tarea de género gramatical,2024.2.2,Win32,59.88023952,,,,,,,,,,,,,,,,,,,,,,467.2198,468.3669,a,1,[],[],[],[],[],[],[],0.4671,1,468.3669,468.8667,,,,,,285,FEM,DIS,150,mafia,el,a,0.4671,,,,468.8668,468.8669,0.244444459,0.178703697,0,0,0,,0,219,219,284,1,,,,,
,,,,,,cfa4797c122c5024e9c138c6,66a626ef09d4e21e1a8894ec,6734d68c82184f7f01d46fa0,2024-11-13_13h41.04.702,Tarea de género gramatical,2024.2.2,Win32,59.88023952,,,,,,,,,,,,,,,,,,,,,,468.8674,470.0624,a,1,[],[],[],[],[],[],[],0.5052,1,470.0624,470.55,,,,,,392,FEM,CON,150,maleta,,a,0.5052,,,,470.55,470.55,0.244444459,0.178703697,0,0,0,,0,220,220,391,1,,,,,
,,,,,,cfa4797c122c5024e9c138c6,66a626ef09d4e21e1a8894ec,6734d68c82184f7f01d46fa0,2024-11-13_13h41.04.702,Tarea de género gramatical,2024.2.2,Win32,59.88023952,,,,,,,,,,,,,,,,,,,,,,470.5506,471.6336,a,1,[],[],[],[],[],[],[],0.4005,1,471.6336,472.1335,,,,,,427,FEM,AGR,150,agenda,la,a,0.4005,,,,472.1335,472.1335,0.244444459,0.178703697,0,0,0,,0,221,221,426,1,,,,,
,,,,,,cfa4797c122c5024e9c138c6,66a626ef09d4e21e1a8894ec,6734d68c82184f7f01d46fa0,2024-11-13_13h41.04.702,Tarea de género gramatical,2024.2.2,Win32,59.88023952,,,,,,,,,,,,,,,,,,,,,,472.134,473.2502,a,1,[],[],[],[],[],[],[],0.4337,1,473.2502,473.75,,,,,,433,FEM,AGR,150,huella,la,a,0.4337,,,,473.7506,473.751,0.244444459,0.178703697,0,0,0,,0,222,222,432,1,,,,,
,,,,,,cfa4797c122c5024e9c138c6,66a626ef09d4e21e1a8894ec,6734d68c82184f7f01d46fa0,2024-11-13_13h41.04.702,Tarea de género gramatical,2024.2.2,Win32,59.88023952,,,,,,,,,,,,,,,,,,,,,,473.7515,474.8168,a,1,[],[],[],[],[],[],[],0.3836,1,474.8169,475.3128,,,,,,369,FEM,DIS,150,camisa,el,a,0.3836,,,,475.3129,475.313,0.244444459,0.178703697,0,0,0,,0,223,223,368,1,,,,,
,,,,,,cfa4797c122c5024e9c138c6,66a626ef09d4e21e1a8894ec,6734d68c82184f7f01d46fa0,2024-11-13_13h41.04.702,Tarea de género gramatical,2024.2.2,Win32,59.88023952,,,,,,,,,,,,,,,,,,,,,,475.3148,476.3958,a,1,[],[],[],[],[],[],[],0.4189,1,476.3958,476.8999,,,,,,225,FEM,DIS,150,pieza,el,a,0.4189,,,,476.9,476.9001,0.244444459,0.178703697,0,0,0,,0,224,224,224,1,,,,,
,,,,,,cfa4797c122c5024e9c138c6,66a626ef09d4e21e1a8894ec,6734d68c82184f7f01d46fa0,2024-11-13_13h41.04.702,Tarea de género gramatical,2024.2.2,Win32,59.88023952,,,,,,,,,,,,,,,,,,,,,,476.9007,478.0503,a,1,[],[],[],[],[],[],[],0.4961,1,478.0504,478.5458,,,,,,3,FEM,DIS,150,cosa,el,a,0.4961,,,,478.5458,478.5459,0.244444459,0.178703697,0,0,0,,0,225,225,2,1,,,,,
,,,,,,cfa4797c122c5024e9c138c6,66a626ef09d4e21e1a8894ec,6734d68c82184f7f01d46fa0,2024-11-13_13h41.04.702,Tarea de género gramatical,2024.2.2,Win32,59.88023952,,,,,,,,,,,,,,,,,,,,,,478.5465,479.6124,l,1,[],[],[],[],[],[],[],0.3903,1,479.6124,480.1168,,,,,,246,MAS,DIS,150,humor,la,l,0.3903,,,,480.1169,480.1169,0.244444459,0.178703697,0,0,0,,0,226,226,245,1,,,,,
,,,,,,cfa4797c122c5024e9c138c6,66a626ef09d4e21e1a8894ec,6734d68c82184f7f01d46fa0,2024-11-13_13h41.04.702,Tarea de género gramatical,2024.2.2,Win32,59.88023952,,,,,,,,,,,,,,,,,,,,,,480.1174,481.2335,l,1,[],[],[],[],[],[],[],0.4467,1,481.2335,481.7334,,,,,,64,MAS,AGR,150,saco,el,l,0.4467,,,,481.734,481.7343,0.244444459,0.178703697,0,0,0,,0,227,227,63,1,,,,,
,,,,,,cfa4797c122c5024e9c138c6,66a626ef09d4e21e1a8894ec,6734d68c82184f7f01d46fa0,2024-11-13_13h41.04.702,Tarea de género gramatical,2024.2.2,Win32,59.88023952,,,,,,,,,,,,,,,,,,,,,,481.7348,483.0462,a,1,[],[],[],[],[],[],[],0.6363,1,483.0463,483.5502,,,,,,423,FEM,DIS,150,poesía,el,a,0.6363,,,,483.5502,483.5502,0.244444459,0.178703697,0,0,0,,0,228,228,422,1,,,,,
,,,,,,cfa4797c122c5024e9c138c6,66a626ef09d4e21e1a8894ec,6734d68c82184f7f01d46fa0,2024-11-13_13h41.04.702,Tarea de género gramatical,2024.2.2,Win32,59.88023952,,,,,,,,,,,,,,,,,,,,,,483.5508,484.6668,l,1,[],[],[],[],[],[],[],0.4335,1,484.6668,485.1667,,,,,,371,MAS,CON,150,sonido,,l,0.4335,,,,485.1668,485.1669,0.244444459,0.178703697,0,0,0,,0,229,229,370,1,,,,,
,,,,,,cfa4797c122c5024e9c138c6,66a626ef09d4e21e1a8894ec,6734d68c82184f7f01d46fa0,2024-11-13_13h41.04.702,Tarea de género gramatical,2024.2.2,Win32,59.88023952,,,,,,,,,,,,,,,,,,,,,,485.1674,486.1835,l,1,[],[],[],[],[],[],[],0.3336,1,486.1835,486.6792,,,,,,54,MAS,DIS,150,humo,la,l,0.3336,,,,486.6793,486.6794,0.244444459,0.178703697,0,0,0,,0,230,230,53,1,,,,,
,,,,,,cfa4797c122c5024e9c138c6,66a626ef09d4e21e1a8894ec,6734d68c82184f7f01d46fa0,2024-11-13_13h41.04.702,Tarea de género gramatical,2024.2.2,Win32,59.88023952,,,,,,,,,,,,,,,,,,,,,,486.6803,487.7457,a,0,[],[],[],[],[],[],[],0.3888,0,487.746,488.2336,,,,,,11,MAS,CON,150,país,,l,0.3888,,,,488.2345,488.2349,0.244444459,0.178703697,0,0,0,,0,231,231,10,1,,,,,
,,,,,,cfa4797c122c5024e9c138c6,66a626ef09d4e21e1a8894ec,6734d68c82184f7f01d46fa0,2024-11-13_13h41.04.702,Tarea de género gramatical,2024.2.2,Win32,59.88023952,,,,,,,,,,,,,,,,,,,,,,488.2352,489.4002,l,1,[],[],[],[],[],[],[],0.4837,1,489.4007,489.9002,,,,,,263,MAS,CON,150,carro,,l,0.4837,,,,489.9002,489.9003,0.244444459,0.178703697,0,0,0,,0,232,232,262,1,,,,,
,,,,,,cfa4797c122c5024e9c138c6,66a626ef09d4e21e1a8894ec,6734d68c82184f7f01d46fa0,2024-11-13_13h41.04.702,Tarea de género gramatical,2024.2.2,Win32,59.88023952,,,,,,,,,,,,,,,,,,,,,,489.9008,490.9668,a,1,[],[],[],[],[],[],[],0.3837,1,490.9669,491.4667,,,,,,62,FEM,CON,150,sopa,,a,0.3837,,,,491.4667,491.4667,0.244444459,0.178703697,0,0,0,,0,233,233,61,1,,,,,
,,,,,,cfa4797c122c5024e9c138c6,66a626ef09d4e21e1a8894ec,6734d68c82184f7f01d46fa0,2024-11-13_13h41.04.702,Tarea de género gramatical,2024.2.2,Win32,59.88023952,,,,,,,,,,,,,,,,,,,,,,491.4674,492.601,l,1,[],[],[],[],[],[],[],0.4509,1,492.6012,493.1,,,,,,335,MAS,CON,150,montón,,l,0.4509,,,,493.1,493.1001,0.244444459,0.178703697,0,0,0,,0,234,234,334,1,,,,,
,,,,,,cfa4797c122c5024e9c138c6,66a626ef09d4e21e1a8894ec,6734d68c82184f7f01d46fa0,2024-11-13_13h41.04.702,Tarea de género gramatical,2024.2.2,Win32,59.88023952,,,,,,,,,,,,,,,,,,,,,,493.1007,494.4124,l,1,[],[],[],[],[],[],[],0.6363,1,494.4124,494.9002,,,,,,364,MAS,AGR,150,viento,el,l,0.6363,,,,494.9002,494.9002,0.244444459,0.178703697,0,0,0,,0,235,235,363,1,,,,,
,,,,,,cfa4797c122c5024e9c138c6,66a626ef09d4e21e1a8894ec,6734d68c82184f7f01d46fa0,2024-11-13_13h41.04.702,Tarea de género gramatical,2024.2.2,Win32,59.88023952,,,,,,,,,,,,,,,,,,,,,,494.9009,495.9337,l,1,[],[],[],[],[],[],[],0.3504,1,495.9337,496.4291,,,,,,304,MAS,AGR,150,tiempo,el,l,0.3504,,,,496.4298,496.4302,0.244444459,0.178703697,0,0,0,,0,236,236,303,1,,,,,
,,,,,,cfa4797c122c5024e9c138c6,66a626ef09d4e21e1a8894ec,6734d68c82184f7f01d46fa0,2024-11-13_13h41.04.702,Tarea de género gramatical,2024.2.2,Win32,59.88023952,,,,,,,,,,,,,,,,,,,,,,496.4305,497.5835,a,1,[],[],[],[],[],[],[],0.467,1,497.5836,498.0841,,,,,,429,FEM,DIS,150,fianza,el,a,0.467,,,,498.0841,498.0842,0.244444459,0.178703697,0,0,0,,0,237,237,428,1,,,,,
,,,,,,cfa4797c122c5024e9c138c6,66a626ef09d4e21e1a8894ec,6734d68c82184f7f01d46fa0,2024-11-13_13h41.04.702,Tarea de género gramatical,2024.2.2,Win32,59.88023952,,,,,,,,,,,,,,,,,,,,,,498.0854,499.2002,l,1,[],[],[],[],[],[],[],0.4336,1,499.2003,499.6958,,,,,,29,MAS,CON,150,frío,,l,0.4336,,,,499.6958,499.6958,0.244444459,0.178703697,0,0,0,,0,238,238,28,1,,,,,
,,,,,,cfa4797c122c5024e9c138c6,66a626ef09d4e21e1a8894ec,6734d68c82184f7f01d46fa0,2024-11-13_13h41.04.702,Tarea de género gramatical,2024.2.2,Win32,59.88023952,,,,,,,,,,,,,,,,,,,,,,499.6963,500.8125,a,1,[],[],[],[],[],[],[],0.4526,1,500.8125,501.3001,,,,,,236,FEM,CON,150,deuda,,a,0.4526,,,,501.3002,501.3002,0.244444459,0.178703697,0,0,0,,0,239,239,235,1,,,,,
,,,,,,cfa4797c122c5024e9c138c6,66a626ef09d4e21e1a8894ec,6734d68c82184f7f01d46fa0,2024-11-13_13h41.04.702,Tarea de género gramatical,2024.2.2,Win32,59.88023952,,,,,,,,,,,,,,,,,,,,,,501.301,502.3669,a,1,[],[],[],[],[],[],[],0.4003,1,502.367,502.8624,,,,,,224,FEM,CON,150,arena,,a,0.4003,,,,502.8631,502.8635,0.244444459,0.178703697,0,0,0,,0,240,240,223,1,,,,,
,,,,,,cfa4797c122c5024e9c138c6,66a626ef09d4e21e1a8894ec,6734d68c82184f7f01d46fa0,2024-11-13_13h41.04.702,Tarea de género gramatical,2024.2.2,Win32,59.88023952,,,,,,,,,,,,,,,,,,,,,,502.8638,504.2337,l,1,[],[],[],[],[],[],[],0.7005,1,504.2337,504.7334,,,,,,89,MAS,CON,150,maíz,,l,0.7005,,,,504.7335,504.7335,0.244444459,0.178703697,0,0,0,,0,241,241,88,1,,,,,
,,,,,,cfa4797c122c5024e9c138c6,66a626ef09d4e21e1a8894ec,6734d68c82184f7f01d46fa0,2024-11-13_13h41.04.702,Tarea de género gramatical,2024.2.2,Win32,59.88023952,,,,,,,,,,,,,,,,,,,,,,504.7343,506.0503,l,1,[],[],[],[],[],[],[],0.6337,1,506.0503,506.55,,,,,,300,MAS,DIS,150,túnel,la,l,0.6337,,,,506.55,506.5501,0.244444459,0.178703697,0,0,0,,0,242,242,299,1,,,,,
,,,,,,cfa4797c122c5024e9c138c6,66a626ef09d4e21e1a8894ec,6734d68c82184f7f01d46fa0,2024-11-13_13h41.04.702,Tarea de género gramatical,2024.2.2,Win32,59.88023952,,,,,,,,,,,,,,,,,,,,,,506.5506,507.7169,a,1,[],[],[],[],[],[],[],0.4836,1,507.717,508.2124,,,,,,260,FEM,CON,150,barra,,a,0.4836,,,,508.2124,508.2125,0.244444459,0.178703697,0,0,0,,0,243,243,259,1,,,,,
,,,,,,cfa4797c122c5024e9c138c6,66a626ef09d4e21e1a8894ec,6734d68c82184f7f01d46fa0,2024-11-13_13h41.04.702,Tarea de género gramatical,2024.2.2,Win32,59.88023952,,,,,,,,,,,,,,,,,,,,,,508.2132,509.4344,l,1,[],[],[],[],[],[],[],0.5341,1,509.4345,509.9335,,,,,,94,MAS,AGR,150,cabo,el,l,0.5341,,,,509.9335,509.9336,0.244444459,0.178703697,0,0,0,,0,244,244,93,1,,,,,
,,,,,,cfa4797c122c5024e9c138c6,66a626ef09d4e21e1a8894ec,6734d68c82184f7f01d46fa0,2024-11-13_13h41.04.702,Tarea de género gramatical,2024.2.2,Win32,59.88023952,,,,,,,,,,,,,,,,,,,,,,509.9343,511.0838,a,1,[],[],[],[],[],[],[],0.4672,1,511.0839,511.5834,,,,,,296,FEM,CON,150,feria,,a,0.4672,,,,511.584,511.5844,0.244444459,0.178703697,0,0,0,,0,245,245,295,1,,,,,
,,,,,,cfa4797c122c5024e9c138c6,66a626ef09d4e21e1a8894ec,6734d68c82184f7f01d46fa0,2024-11-13_13h41.04.702,Tarea de género gramatical,2024.2.2,Win32,59.88023952,,,,,,,,,,,,,,,,,,,,,,511.5847,512.6624,a,1,[],[],[],[],[],[],[],0.3829,1,512.6624,513.1503,,,,,,80,FEM,CON,150,vaca,,a,0.3829,,,,513.1503,513.1504,0.244444459,0.178703697,0,0,0,,0,246,246,79,1,,,,,
,,,,,,cfa4797c122c5024e9c138c6,66a626ef09d4e21e1a8894ec,6734d68c82184f7f01d46fa0,2024-11-13_13h41.04.702,Tarea de género gramatical,2024.2.2,Win32,59.88023952,,,,,,,,,,,,,,,,,,,,,,513.1513,514.2336,a,1,[],[],[],[],[],[],[],0.4003,1,514.2337,514.7291,,,,,,267,FEM,DIS,150,barba,el,a,0.4003,,,,514.7291,514.7293,0.244444459,0.178703697,0,0,0,,0,247,247,266,1,,,,,
,,,,,,cfa4797c122c5024e9c138c6,66a626ef09d4e21e1a8894ec,6734d68c82184f7f01d46fa0,2024-11-13_13h41.04.702,Tarea de género gramatical,2024.2.2,Win32,59.88023952,,,,,,,,,,,,,,,,,,,,,,514.7298,515.767,a,1,[],[],[],[],[],[],[],0.3804,1,515.7671,516.2669,,,,,,249,FEM,DIS,150,crema,el,a,0.3804,,,,516.267,516.267,0.244444459,0.178703697,0,0,0,,0,248,248,248,1,,,,,
,,,,,,cfa4797c122c5024e9c138c6,66a626ef09d4e21e1a8894ec,6734d68c82184f7f01d46fa0,2024-11-13_13h41.04.702,Tarea de género gramatical,2024.2.2,Win32,59.88023952,,,,,,,,,,,,,,,,,,,,,,516.2676,517.4292,l,1,[],[],[],[],[],[],[],0.4733,1,517.4293,517.9169,,,,,,149,MAS,CON,150,nudo,,l,0.4733,,,,517.9176,517.9181,0.244444459,0.178703697,0,0,0,,0,249,249,148,1,,,,,
,,,,,,cfa4797c122c5024e9c138c6,66a626ef09d4e21e1a8894ec,6734d68c82184f7f01d46fa0,2024-11-13_13h41.04.702,Tarea de género gramatical,2024.2.2,Win32,59.88023952,,,,,,,,,,,,,,,,,,,,,,517.9184,519.1671,a,1,[],[],[],[],[],[],[],0.5795,1,519.1673,519.6668,,,,,,127,FEM,AGR,150,cuna,la,a,0.5795,,,,519.6668,519.6668,0.244444459,0.178703697,0,0,0,,0,250,250,126,1,,,,,
