counterbalancing_condition,consent_prescreening.block_1/declare_consent,consent_prescreening.block_1/age_years,consent_prescreening.block_1/gender,consent_prescreening.block_1/language_disorder,consent_prescreening.block_1/first_language,PROLIFIC_PID,STUDY_ID,SESSION_ID,date,expName,psychopyVersion,OS,frameRate,check_prescreening_answers.started,check_prescreening_answers.stopped,Instructions.started,Instructions.stopped,instr_done_keyboard.keys,instr_done_keyboard.rt,instr_done_keyboard.duration,instr_done_touch.x,instr_done_touch.y,instr_done_touch.leftButton,instr_done_touch.midButton,instr_done_touch.rightButton,instruction_pages.thisRepN,instruction_pages.thisTrialN,instruction_pages.thisN,instruction_pages.thisIndex,instruction_pages.ran,pageN,phase,instruct_text,has_image,instruct_image,presentTrial.started,presentTrial.stopped,response.keys,response.corr,touch_resp.x,touch_resp.y,touch_resp.leftButton,touch_resp.midButton,touch_resp.rightButton,touch_resp.time,touch_resp.clicked_name,rt,corr,feedback.started,feedback.stopped,practice_trials.thisRepN,practice_trials.thisTrialN,practice_trials.thisN,practice_trials.thisIndex,practice_trials.ran,TrialID,StimulusType,Condition,PrimeDuration,Prime,Flanker,corrAns,response.rt,response.duration,Break.started,Break.stopped,break_done_touch.x,break_done_touch.y,break_done_touch.leftButton,break_done_touch.midButton,break_done_touch.rightButton,break_done_keyboard.keys,experiment_trials.thisRepN,experiment_trials.thisTrialN,experiment_trials.thisN,experiment_trials.thisIndex,experiment_trials.ran,break_done_keyboard.rt,break_done_keyboard.duration,End.started,End.stopped
2,"[""over_18"",""comfortable"",""read_info"",""consent_given""]",35,M,"[""none""]","[""spanish""]",d06d70ff0280939457524cb6,66a626ef09d4e21e1a8894ec,6734d69d103e4e2336cde56f,2024-11-13_18h15.24.749,Tarea de género gramatical,2024.2.2,Win32,59.88023952,,,,,,,,,,,,,,,,,,,,,,,,,,,,,,,,,,,,,,,,,,,,,,,,,,,,,,,,,,,,,,,,,,,,
,,,,,,d06d70ff0280939457524cb6,66a626ef09d4e21e1a8894ec,6734d69d103e4e2336cde56f,2024-11-13_18h15.24.749,Tarea de género gramatical,2024.2.2,Win32,59.88023952,32.9078,32.9082,,,,,,,,,,,,,,,,,,,,,,,,,,,,,,,,,,,,,,,,,,,,,,,,,,,,,,,,,,,,,,,,,,
,,,,,,d06d70ff0280939457524cb6,66a626ef09d4e21e1a8894ec,6734d69d103e4e2336cde56f,2024-11-13_18h15.24.749,Tarea de género gramatical,2024.2.2,Win32,59.88023952,,,32.953,43.2424,space,10.2549,,0.287962963,-0.089814815,0,0,0,0,0,0,0,1,1,instructions,"INSTRUCCIONES
Va a realizar una prueba de selección gramatical. Desde el comienzo de la prueba mire siempre al centro de la pantalla. Al cabo de un momento, aparecerán palabras. La tarea consiste en determinar si la palabra del centro (siempre será un sustantivo), pertenece al género masculino o femenino.

Pulse la tecla ESPACIO o toque el botón de abajo para continuar.",0,keyboardresponseFM.png,,,,,,,,,,,,,,,,,,,,,,,,,,,,,,,,,,,,,,,,,,,,,,
,,,,,,d06d70ff0280939457524cb6,66a626ef09d4e21e1a8894ec,6734d69d103e4e2336cde56f,2024-11-13_18h15.24.749,Tarea de género gramatical,2024.2.2,Win32,59.88023952,,,43.249,52.058,space,8.6961,,0.560185185,0.153703704,0,0,0,0,1,1,1,1,2,instructions,"Si su dispositivo tiene teclado, pulse la tecla ""A"" para las palabras en femenino (por ejemplo: ""mano"") y la tecla ""L"" para las palabras en masculino(por ejemplo: ""arroz"").
Pulse la tecla ESPACIO o toque el botón de abajo para continuar.",1,keyboardresponseFM.png,,,,,,,,,,,,,,,,,,,,,,,,,,,,,,,,,,,,,,,,,,,,,,
,,,,,,d06d70ff0280939457524cb6,66a626ef09d4e21e1a8894ec,6734d69d103e4e2336cde56f,2024-11-13_18h15.24.749,Tarea de género gramatical,2024.2.2,Win32,59.88023952,,,52.0611,55.0754,space,2.9513,,0.560185185,0.153703704,0,0,0,0,2,2,2,1,3,instructions,"Si utiliza un dispositivo sólo táctil, colóquelo en horizontal y utilice los botones de la pantalla. No utilice el ratón.
Pulse la tecla ESPACIO o toque el botón de abajo para continuar.",2,touchresponseFM.png,,,,,,,,,,,,,,,,,,,,,,,,,,,,,,,,,,,,,,,,,,,,,,
,,,,,,d06d70ff0280939457524cb6,66a626ef09d4e21e1a8894ec,6734d69d103e4e2336cde56f,2024-11-13_18h15.24.749,Tarea de género gramatical,2024.2.2,Win32,59.88023952,,,55.0824,62.4255,space,7.317,,0.560185185,0.153703704,0,0,0,0,3,3,3,1,4,instructions,"Es muy importante que responda con la mayor rapidez y precisión posibles, ya que cada cadena de letras sólo estará en pantalla durante un instante. Si no responde en ese tiempo, aparecerá el mensaje ""Muy lento"" y el experimento pasará a la siguiente palabra. Los primeros 15 intentos serán de práctica y habrá dos descansos durante la prueba.
Pulse la tecla ESPACIO o toque el botón de abajo para iniciar la parte de práctica.",0,keyboardresponseFM.png,,,,,,,,,,,,,,,,,,,,,,,,,,,,,,,,,,,,,,,,,,,,,,
,,,,,,d06d70ff0280939457524cb6,66a626ef09d4e21e1a8894ec,6734d69d103e4e2336cde56f,2024-11-13_18h15.24.749,Tarea de género gramatical,2024.2.2,Win32,59.88023952,,,,,,,,,,,,,,,,,,,,,,,62.4605,65.1096,,0,[],[],[],[],[],[],[],,-1,65.1103,65.609,0,0,0,6,1,2007,FEM,AGR,150,navaja,la,a,,,,,,,,,,,,,,,,,,,
,,,,,,d06d70ff0280939457524cb6,66a626ef09d4e21e1a8894ec,6734d69d103e4e2336cde56f,2024-11-13_18h15.24.749,Tarea de género gramatical,2024.2.2,Win32,59.88023952,,,,,,,,,,,,,,,,,,,,,,,65.6151,67.109,a,0,[],[],[],[],[],[],[],0.8235,0,67.1244,67.6089,0,1,1,8,1,2009,MAS,DIS,150,puerto,la,l,0.8235,,,,,,,,,,,,,,,,,,
,,,,,,d06d70ff0280939457524cb6,66a626ef09d4e21e1a8894ec,6734d69d103e4e2336cde56f,2024-11-13_18h15.24.749,Tarea de género gramatical,2024.2.2,Win32,59.88023952,,,,,,,,,,,,,,,,,,,,,,,67.6117,68.8757,l,1,[],[],[],[],[],[],[],0.5841,1,68.8787,69.3758,0,2,2,12,1,2013,MAS,AGR,150,acero,el,l,0.5841,,,,,,,,,,,,,,,,,,
,,,,,,d06d70ff0280939457524cb6,66a626ef09d4e21e1a8894ec,6734d69d103e4e2336cde56f,2024-11-13_18h15.24.749,Tarea de género gramatical,2024.2.2,Win32,59.88023952,,,,,,,,,,,,,,,,,,,,,,,69.379,70.5921,a,0,[],[],[],[],[],[],[],0.5439,0,70.593,71.0922,0,3,3,14,1,2015,MAS,DIS,150,robot,la,l,0.5439,,,,,,,,,,,,,,,,,,
,,,,,,d06d70ff0280939457524cb6,66a626ef09d4e21e1a8894ec,6734d69d103e4e2336cde56f,2024-11-13_18h15.24.749,Tarea de género gramatical,2024.2.2,Win32,59.88023952,,,,,,,,,,,,,,,,,,,,,,,71.0935,72.2425,l,0,[],[],[],[],[],[],[],0.4659,0,72.2428,72.7425,0,4,4,1,1,2002,FEM,CON,150,pala,,a,0.4659,,,,,,,,,,,,,,,,,,
,,,,,,d06d70ff0280939457524cb6,66a626ef09d4e21e1a8894ec,6734d69d103e4e2336cde56f,2024-11-13_18h15.24.749,Tarea de género gramatical,2024.2.2,Win32,59.88023952,,,,,,,,,,,,,,,,,,,,,,,72.7447,74.0594,a,1,[],[],[],[],[],[],[],0.6416,1,74.0612,74.5594,0,5,5,0,1,2001,FEM,AGR,150,nuca,la,a,0.6416,,,,,,,,,,,,,,,,,,
,,,,,,d06d70ff0280939457524cb6,66a626ef09d4e21e1a8894ec,6734d69d103e4e2336cde56f,2024-11-13_18h15.24.749,Tarea de género gramatical,2024.2.2,Win32,59.88023952,,,,,,,,,,,,,,,,,,,,,,,74.5619,75.7428,l,1,[],[],[],[],[],[],[],0.5042,1,75.7431,76.2428,0,6,6,9,1,2010,MAS,AGR,150,vecino,el,l,0.5042,,,,,,,,,,,,,,,,,,
,,,,,,d06d70ff0280939457524cb6,66a626ef09d4e21e1a8894ec,6734d69d103e4e2336cde56f,2024-11-13_18h15.24.749,Tarea de género gramatical,2024.2.2,Win32,59.88023952,,,,,,,,,,,,,,,,,,,,,,,76.2447,77.6095,a,1,[],[],[],[],[],[],[],0.6853,1,77.6097,78.1095,0,7,7,4,1,2005,FEM,CON,150,placa,,a,0.6853,,,,,,,,,,,,,,,,,,
,,,,,,d06d70ff0280939457524cb6,66a626ef09d4e21e1a8894ec,6734d69d103e4e2336cde56f,2024-11-13_18h15.24.749,Tarea de género gramatical,2024.2.2,Win32,59.88023952,,,,,,,,,,,,,,,,,,,,,,,78.1116,79.5427,a,0,[],[],[],[],[],[],[],0.7508,0,79.5439,80.043,0,8,8,10,1,2011,MAS,CON,150,canal,,l,0.7508,,,,,,,,,,,,,,,,,,
,,,,,,d06d70ff0280939457524cb6,66a626ef09d4e21e1a8894ec,6734d69d103e4e2336cde56f,2024-11-13_18h15.24.749,Tarea de género gramatical,2024.2.2,Win32,59.88023952,,,,,,,,,,,,,,,,,,,,,,,80.0473,81.3606,l,0,[],[],[],[],[],[],[],0.6452,0,81.3608,81.8598,0,9,9,2,1,2003,FEM,DIS,150,daga,el,a,0.6452,,,,,,,,,,,,,,,,,,
,,,,,,d06d70ff0280939457524cb6,66a626ef09d4e21e1a8894ec,6734d69d103e4e2336cde56f,2024-11-13_18h15.24.749,Tarea de género gramatical,2024.2.2,Win32,59.88023952,,,,,,,,,,,,,,,,,,,,,,,81.8629,83.1598,l,0,[],[],[],[],[],[],[],0.6204,0,83.1599,83.6599,0,10,10,5,1,2006,FEM,DIS,150,serie,el,a,0.6204,,,,,,,,,,,,,,,,,,
,,,,,,d06d70ff0280939457524cb6,66a626ef09d4e21e1a8894ec,6734d69d103e4e2336cde56f,2024-11-13_18h15.24.749,Tarea de género gramatical,2024.2.2,Win32,59.88023952,,,,,,,,,,,,,,,,,,,,,,,83.6627,85.1265,a,0,[],[],[],[],[],[],[],0.7883,0,85.1267,85.6266,0,11,11,11,1,2012,MAS,DIS,150,clima,la,l,0.7883,,,,,,,,,,,,,,,,,,
,,,,,,d06d70ff0280939457524cb6,66a626ef09d4e21e1a8894ec,6734d69d103e4e2336cde56f,2024-11-13_18h15.24.749,Tarea de género gramatical,2024.2.2,Win32,59.88023952,,,,,,,,,,,,,,,,,,,,,,,85.6287,86.81,a,1,[],[],[],[],[],[],[],0.5033,1,86.8115,87.31,0,12,12,3,1,2004,FEM,AGR,150,venta,la,a,0.5033,,,,,,,,,,,,,,,,,,
,,,,,,d06d70ff0280939457524cb6,66a626ef09d4e21e1a8894ec,6734d69d103e4e2336cde56f,2024-11-13_18h15.24.749,Tarea de género gramatical,2024.2.2,Win32,59.88023952,,,,,,,,,,,,,,,,,,,,,,,87.312,88.5601,a,1,[],[],[],[],[],[],[],0.5743,1,88.5603,89.0598,0,13,13,7,1,2008,FEM,CON,150,siesta,,a,0.5743,,,,,,,,,,,,,,,,,,
,,,,,,d06d70ff0280939457524cb6,66a626ef09d4e21e1a8894ec,6734d69d103e4e2336cde56f,2024-11-13_18h15.24.749,Tarea de género gramatical,2024.2.2,Win32,59.88023952,,,,,,,,,,,,,,,,,,,,,,,89.0611,90.2936,l,1,[],[],[],[],[],[],[],0.5599,1,90.2937,90.7936,0,14,14,13,1,2014,MAS,CON,150,siglo,,l,0.5599,,,,,,,,,,,,,,,,,,
,,,,,,d06d70ff0280939457524cb6,66a626ef09d4e21e1a8894ec,6734d69d103e4e2336cde56f,2024-11-13_18h15.24.749,Tarea de género gramatical,2024.2.2,Win32,59.88023952,,,97.0886,104.511,space,7.4056,,0.57037037,0.148148148,0,0,0,,,,,,,,,,,104.5761,105.794,a,1,[],[],[],[],[],[],[],0.5504,1,105.7942,106.2943,,,,,,955,FEM,DIS,150,taza,el,a,0.5504,,106.2946,106.3007,0.57037037,0.148148148,0,0,0,,0,0,0,54,1,,,,
,,,,,,d06d70ff0280939457524cb6,66a626ef09d4e21e1a8894ec,6734d69d103e4e2336cde56f,2024-11-13_18h15.24.749,Tarea de género gramatical,2024.2.2,Win32,59.88023952,,,,,,,,,,,,,,,,,,,,,,,106.3018,107.5279,l,1,[],[],[],[],[],[],[],0.5514,1,107.5282,108.0279,,,,,,1290,MAS,CON,150,rostro,,l,0.5514,,108.028,108.0283,0.57037037,0.148148148,0,0,0,,0,1,1,389,1,,,,
,,,,,,d06d70ff0280939457524cb6,66a626ef09d4e21e1a8894ec,6734d69d103e4e2336cde56f,2024-11-13_18h15.24.749,Tarea de género gramatical,2024.2.2,Win32,59.88023952,,,,,,,,,,,,,,,,,,,,,,,108.0303,109.2447,l,0,[],[],[],[],[],[],[],0.5369,0,109.2464,109.7449,,,,,,1245,FEM,CON,150,pierna,,a,0.5369,,109.7477,109.7493,0.57037037,0.148148148,0,0,0,,0,2,2,344,1,,,,
,,,,,,d06d70ff0280939457524cb6,66a626ef09d4e21e1a8894ec,6734d69d103e4e2336cde56f,2024-11-13_18h15.24.749,Tarea de género gramatical,2024.2.2,Win32,59.88023952,,,,,,,,,,,,,,,,,,,,,,,109.7508,110.8446,l,1,[],[],[],[],[],[],[],0.4201,1,110.8463,111.3445,,,,,,924,MAS,CON,150,voto,,l,0.4201,,111.3446,111.3448,0.57037037,0.148148148,0,0,0,,0,3,3,23,1,,,,
,,,,,,d06d70ff0280939457524cb6,66a626ef09d4e21e1a8894ec,6734d69d103e4e2336cde56f,2024-11-13_18h15.24.749,Tarea de género gramatical,2024.2.2,Win32,59.88023952,,,,,,,,,,,,,,,,,,,,,,,111.3461,112.6111,a,1,[],[],[],[],[],[],[],0.5828,1,112.6112,113.1115,,,,,,908,FEM,AGR,150,idea,la,a,0.5828,,113.1117,113.1121,0.57037037,0.148148148,0,0,0,,0,4,4,7,1,,,,
,,,,,,d06d70ff0280939457524cb6,66a626ef09d4e21e1a8894ec,6734d69d103e4e2336cde56f,2024-11-13_18h15.24.749,Tarea de género gramatical,2024.2.2,Win32,59.88023952,,,,,,,,,,,,,,,,,,,,,,,113.1149,114.2112,l,1,[],[],[],[],[],[],[],0.4201,1,114.2114,114.7116,,,,,,904,MAS,DIS,150,hijo,la,l,0.4201,,114.7117,114.7142,0.57037037,0.148148148,0,0,0,,0,5,5,3,1,,,,
,,,,,,d06d70ff0280939457524cb6,66a626ef09d4e21e1a8894ec,6734d69d103e4e2336cde56f,2024-11-13_18h15.24.749,Tarea de género gramatical,2024.2.2,Win32,59.88023952,,,,,,,,,,,,,,,,,,,,,,,114.716,116.1783,a,1,[],[],[],[],[],[],[],0.7945,1,116.1786,116.6785,,,,,,1250,FEM,AGR,150,imagen,la,a,0.7945,,116.6816,116.6832,0.57037037,0.148148148,0,0,0,,0,6,6,349,1,,,,
,,,,,,d06d70ff0280939457524cb6,66a626ef09d4e21e1a8894ec,6734d69d103e4e2336cde56f,2024-11-13_18h15.24.749,Tarea de género gramatical,2024.2.2,Win32,59.88023952,,,,,,,,,,,,,,,,,,,,,,,116.6848,117.9952,a,1,[],[],[],[],[],[],[],0.6416,1,117.9954,118.4952,,,,,,962,FEM,AGR,150,sopa,la,a,0.6416,,118.4953,118.4956,0.57037037,0.148148148,0,0,0,,0,7,7,61,1,,,,
,,,,,,d06d70ff0280939457524cb6,66a626ef09d4e21e1a8894ec,6734d69d103e4e2336cde56f,2024-11-13_18h15.24.749,Tarea de género gramatical,2024.2.2,Win32,59.88023952,,,,,,,,,,,,,,,,,,,,,,,118.4975,119.5618,a,1,[],[],[],[],[],[],[],0.3938,1,119.5621,120.0618,,,,,,1143,FEM,CON,150,salsa,,a,0.3938,,120.062,120.0622,0.57037037,0.148148148,0,0,0,,0,8,8,242,1,,,,
,,,,,,d06d70ff0280939457524cb6,66a626ef09d4e21e1a8894ec,6734d69d103e4e2336cde56f,2024-11-13_18h15.24.749,Tarea de género gramatical,2024.2.2,Win32,59.88023952,,,,,,,,,,,,,,,,,,,,,,,120.0651,121.1453,l,1,[],[],[],[],[],[],[],0.4109,1,121.1456,121.6452,,,,,,1314,MAS,CON,150,sótano,,l,0.4109,,121.6454,121.6456,0.57037037,0.148148148,0,0,0,,0,9,9,413,1,,,,
,,,,,,d06d70ff0280939457524cb6,66a626ef09d4e21e1a8894ec,6734d69d103e4e2336cde56f,2024-11-13_18h15.24.749,Tarea de género gramatical,2024.2.2,Win32,59.88023952,,,,,,,,,,,,,,,,,,,,,,,121.6479,122.7117,l,1,[],[],[],[],[],[],[],0.3958,1,122.7117,123.2117,,,,,,1026,MAS,CON,150,lazo,,l,0.3958,,123.2117,123.2118,0.57037037,0.148148148,0,0,0,,0,10,10,125,1,,,,
,,,,,,d06d70ff0280939457524cb6,66a626ef09d4e21e1a8894ec,6734d69d103e4e2336cde56f,2024-11-13_18h15.24.749,Tarea de género gramatical,2024.2.2,Win32,59.88023952,,,,,,,,,,,,,,,,,,,,,,,123.2133,124.6956,a,1,[],[],[],[],[],[],[],0.8041,1,124.6958,125.1955,,,,,,1083,FEM,CON,150,llave,,a,0.8041,,125.1991,125.2008,0.57037037,0.148148148,0,0,0,,0,11,11,182,1,,,,
,,,,,,d06d70ff0280939457524cb6,66a626ef09d4e21e1a8894ec,6734d69d103e4e2336cde56f,2024-11-13_18h15.24.749,Tarea de género gramatical,2024.2.2,Win32,59.88023952,,,,,,,,,,,,,,,,,,,,,,,125.2023,126.3123,l,1,[],[],[],[],[],[],[],0.438,1,126.3124,126.8123,,,,,,976,MAS,DIS,150,lujo,la,l,0.438,,126.8124,126.8125,0.57037037,0.148148148,0,0,0,,0,12,12,75,1,,,,
,,,,,,d06d70ff0280939457524cb6,66a626ef09d4e21e1a8894ec,6734d69d103e4e2336cde56f,2024-11-13_18h15.24.749,Tarea de género gramatical,2024.2.2,Win32,59.88023952,,,,,,,,,,,,,,,,,,,,,,,126.8149,128.079,l,1,[],[],[],[],[],[],[],0.5848,1,128.0792,128.5792,,,,,,1109,MAS,AGR,150,banco,el,l,0.5848,,128.5792,128.5794,0.57037037,0.148148148,0,0,0,,0,13,13,208,1,,,,
,,,,,,d06d70ff0280939457524cb6,66a626ef09d4e21e1a8894ec,6734d69d103e4e2336cde56f,2024-11-13_18h15.24.749,Tarea de género gramatical,2024.2.2,Win32,59.88023952,,,,,,,,,,,,,,,,,,,,,,,128.5815,129.6791,l,1,[],[],[],[],[],[],[],0.4228,1,129.6793,130.1792,,,,,,1205,MAS,AGR,150,hombre,el,l,0.4228,,130.1793,130.1795,0.57037037,0.148148148,0,0,0,,0,14,14,304,1,,,,
,,,,,,d06d70ff0280939457524cb6,66a626ef09d4e21e1a8894ec,6734d69d103e4e2336cde56f,2024-11-13_18h15.24.749,Tarea de género gramatical,2024.2.2,Win32,59.88023952,,,,,,,,,,,,,,,,,,,,,,,130.1816,131.2792,a,1,[],[],[],[],[],[],[],0.4192,1,131.2794,131.7792,,,,,,1341,FEM,CON,150,medida,,a,0.4192,,131.7826,131.7842,0.57037037,0.148148148,0,0,0,,0,15,15,440,1,,,,
,,,,,,d06d70ff0280939457524cb6,66a626ef09d4e21e1a8894ec,6734d69d103e4e2336cde56f,2024-11-13_18h15.24.749,Tarea de género gramatical,2024.2.2,Win32,59.88023952,,,,,,,,,,,,,,,,,,,,,,,131.7865,132.9793,a,1,[],[],[],[],[],[],[],0.5172,1,132.9796,133.4792,,,,,,1047,FEM,CON,150,grúa,,a,0.5172,,133.4794,133.4795,0.57037037,0.148148148,0,0,0,,0,16,16,146,1,,,,
,,,,,,d06d70ff0280939457524cb6,66a626ef09d4e21e1a8894ec,6734d69d103e4e2336cde56f,2024-11-13_18h15.24.749,Tarea de género gramatical,2024.2.2,Win32,59.88023952,,,,,,,,,,,,,,,,,,,,,,,133.4822,134.5461,l,1,[],[],[],[],[],[],[],0.3863,1,134.5462,135.0461,,,,,,1301,MAS,AGR,150,abrigo,el,l,0.3863,,135.0463,135.0464,0.57037037,0.148148148,0,0,0,,0,17,17,400,1,,,,
,,,,,,d06d70ff0280939457524cb6,66a626ef09d4e21e1a8894ec,6734d69d103e4e2336cde56f,2024-11-13_18h15.24.749,Tarea de género gramatical,2024.2.2,Win32,59.88023952,,,,,,,,,,,,,,,,,,,,,,,135.0488,136.2128,a,1,[],[],[],[],[],[],[],0.4853,1,136.213,136.7129,,,,,,1165,FEM,DIS,150,rueda,el,a,0.4853,,136.713,136.7132,0.57037037,0.148148148,0,0,0,,0,18,18,264,1,,,,
,,,,,,d06d70ff0280939457524cb6,66a626ef09d4e21e1a8894ec,6734d69d103e4e2336cde56f,2024-11-13_18h15.24.749,Tarea de género gramatical,2024.2.2,Win32,59.88023952,,,,,,,,,,,,,,,,,,,,,,,136.7159,137.8126,l,0,[],[],[],[],[],[],[],0.4182,0,137.8135,138.3129,,,,,,1035,FEM,CON,150,raíz,,a,0.4182,,138.313,138.3132,0.57037037,0.148148148,0,0,0,,0,19,19,134,1,,,,
,,,,,,d06d70ff0280939457524cb6,66a626ef09d4e21e1a8894ec,6734d69d103e4e2336cde56f,2024-11-13_18h15.24.749,Tarea de género gramatical,2024.2.2,Win32,59.88023952,,,,,,,,,,,,,,,,,,,,,,,138.3153,139.5796,l,1,[],[],[],[],[],[],[],0.5879,1,139.5812,140.0797,,,,,,934,MAS,DIS,150,gato,la,l,0.5879,,140.0825,140.0842,0.57037037,0.148148148,0,0,0,,0,20,20,33,1,,,,
,,,,,,d06d70ff0280939457524cb6,66a626ef09d4e21e1a8894ec,6734d69d103e4e2336cde56f,2024-11-13_18h15.24.749,Tarea de género gramatical,2024.2.2,Win32,59.88023952,,,,,,,,,,,,,,,,,,,,,,,140.0856,141.1965,l,1,[],[],[],[],[],[],[],0.439,1,141.1966,141.6966,,,,,,1176,MAS,CON,150,ritmo,,l,0.439,,141.6968,141.6971,0.57037037,0.148148148,0,0,0,,0,21,21,275,1,,,,
,,,,,,d06d70ff0280939457524cb6,66a626ef09d4e21e1a8894ec,6734d69d103e4e2336cde56f,2024-11-13_18h15.24.749,Tarea de género gramatical,2024.2.2,Win32,59.88023952,,,,,,,,,,,,,,,,,,,,,,,141.6993,142.7798,l,1,[],[],[],[],[],[],[],0.4009,1,142.78,143.2798,,,,,,1000,MAS,DIS,150,nido,la,l,0.4009,,143.2799,143.2801,0.57037037,0.148148148,0,0,0,,0,22,22,99,1,,,,
,,,,,,d06d70ff0280939457524cb6,66a626ef09d4e21e1a8894ec,6734d69d103e4e2336cde56f,2024-11-13_18h15.24.749,Tarea de género gramatical,2024.2.2,Win32,59.88023952,,,,,,,,,,,,,,,,,,,,,,,143.2821,144.6633,a,1,[],[],[],[],[],[],[],0.7105,1,144.6634,145.1633,,,,,,1077,FEM,CON,150,broma,,a,0.7105,,145.1634,145.1635,0.655555556,0.20462963,0,0,0,,0,23,23,176,1,,,,
,,,,,,d06d70ff0280939457524cb6,66a626ef09d4e21e1a8894ec,6734d69d103e4e2336cde56f,2024-11-13_18h15.24.749,Tarea de género gramatical,2024.2.2,Win32,59.88023952,,,,,,,,,,,,,,,,,,,,,,,145.1658,146.2464,a,1,[],[],[],[],[],[],[],0.4018,1,146.2465,146.7468,,,,,,1304,FEM,AGR,150,gloria,la,a,0.4018,,146.7501,146.7516,0.655555556,0.20462963,0,0,0,,0,24,24,403,1,,,,
,,,,,,d06d70ff0280939457524cb6,66a626ef09d4e21e1a8894ec,6734d69d103e4e2336cde56f,2024-11-13_18h15.24.749,Tarea de género gramatical,2024.2.2,Win32,59.88023952,,,,,,,,,,,,,,,,,,,,,,,146.7531,147.8468,l,1,[],[],[],[],[],[],[],0.4173,1,147.847,148.3467,,,,,,1140,MAS,CON,150,ruido,,l,0.4173,,148.3469,148.347,0.655555556,0.20462963,0,0,0,,0,25,25,239,1,,,,
,,,,,,d06d70ff0280939457524cb6,66a626ef09d4e21e1a8894ec,6734d69d103e4e2336cde56f,2024-11-13_18h15.24.749,Tarea de género gramatical,2024.2.2,Win32,59.88023952,,,,,,,,,,,,,,,,,,,,,,,148.3491,149.4302,a,1,[],[],[],[],[],[],[],0.4102,1,149.4303,149.9303,,,,,,1315,FEM,DIS,150,cabina,el,a,0.4102,,149.9303,149.9305,0.655555556,0.20462963,0,0,0,,0,26,26,414,1,,,,
,,,,,,d06d70ff0280939457524cb6,66a626ef09d4e21e1a8894ec,6734d69d103e4e2336cde56f,2024-11-13_18h15.24.749,Tarea de género gramatical,2024.2.2,Win32,59.88023952,,,,,,,,,,,,,,,,,,,,,,,149.9326,151.4969,l,0,[],[],[],[],[],[],[],0.8855,0,151.4986,151.9969,,,,,,1021,FEM,DIS,150,pila,el,a,0.8855,,151.997,151.9972,0.655555556,0.20462963,0,0,0,,0,27,27,120,1,,,,
,,,,,,d06d70ff0280939457524cb6,66a626ef09d4e21e1a8894ec,6734d69d103e4e2336cde56f,2024-11-13_18h15.24.749,Tarea de género gramatical,2024.2.2,Win32,59.88023952,,,,,,,,,,,,,,,,,,,,,,,151.9999,153.1638,l,1,[],[],[],[],[],[],[],0.4833,1,153.1653,153.6639,,,,,,1241,MAS,AGR,150,precio,el,l,0.4833,,153.664,153.6641,0.655555556,0.20462963,0,0,0,,0,28,28,340,1,,,,
,,,,,,d06d70ff0280939457524cb6,66a626ef09d4e21e1a8894ec,6734d69d103e4e2336cde56f,2024-11-13_18h15.24.749,Tarea de género gramatical,2024.2.2,Win32,59.88023952,,,,,,,,,,,,,,,,,,,,,,,153.667,154.9306,a,1,[],[],[],[],[],[],[],0.5854,1,154.9308,155.4302,,,,,,1263,FEM,CON,150,unidad,,a,0.5854,,155.4322,155.4338,0.655555556,0.20462963,0,0,0,,0,29,29,362,1,,,,
,,,,,,d06d70ff0280939457524cb6,66a626ef09d4e21e1a8894ec,6734d69d103e4e2336cde56f,2024-11-13_18h15.24.749,Tarea de género gramatical,2024.2.2,Win32,59.88023952,,,,,,,,,,,,,,,,,,,,,,,155.4354,156.4807,l,1,[],[],[],[],[],[],[],0.3671,1,156.4808,156.9806,,,,,,1060,MAS,DIS,150,señor,la,l,0.3671,,156.9807,156.9809,0.655555556,0.20462963,0,0,0,,0,30,30,159,1,,,,
,,,,,,d06d70ff0280939457524cb6,66a626ef09d4e21e1a8894ec,6734d69d103e4e2336cde56f,2024-11-13_18h15.24.749,Tarea de género gramatical,2024.2.2,Win32,59.88023952,,,,,,,,,,,,,,,,,,,,,,,156.983,158.2308,a,1,[],[],[],[],[],[],[],0.5698,1,158.2309,158.7307,,,,,,1166,FEM,AGR,150,jaula,la,a,0.5698,,158.7308,158.7311,0.655555556,0.20462963,0,0,0,,0,31,31,265,1,,,,
,,,,,,d06d70ff0280939457524cb6,66a626ef09d4e21e1a8894ec,6734d69d103e4e2336cde56f,2024-11-13_18h15.24.749,Tarea de género gramatical,2024.2.2,Win32,59.88023952,,,,,,,,,,,,,,,,,,,,,,,158.7331,159.8475,a,1,[],[],[],[],[],[],[],0.4332,1,159.8476,160.3475,,,,,,1112,FEM,AGR,150,cinta,la,a,0.4332,,160.3476,160.3477,0.655555556,0.20462963,0,0,0,,0,32,32,211,1,,,,
,,,,,,d06d70ff0280939457524cb6,66a626ef09d4e21e1a8894ec,6734d69d103e4e2336cde56f,2024-11-13_18h15.24.749,Tarea de género gramatical,2024.2.2,Win32,59.88023952,,,,,,,,,,,,,,,,,,,,,,,160.3499,161.5142,a,1,[],[],[],[],[],[],[],0.4923,1,161.5145,162.0142,,,,,,1310,FEM,AGR,150,piedad,la,a,0.4923,,162.0175,162.0192,0.655555556,0.20462963,0,0,0,,0,33,33,409,1,,,,
,,,,,,d06d70ff0280939457524cb6,66a626ef09d4e21e1a8894ec,6734d69d103e4e2336cde56f,2024-11-13_18h15.24.749,Tarea de género gramatical,2024.2.2,Win32,59.88023952,,,,,,,,,,,,,,,,,,,,,,,162.0207,163.0477,l,1,[],[],[],[],[],[],[],0.3596,1,163.0478,163.5477,,,,,,1001,MAS,AGR,150,giro,el,l,0.3596,,163.5477,163.5478,0.655555556,0.20462963,0,0,0,,0,34,34,100,1,,,,
,,,,,,d06d70ff0280939457524cb6,66a626ef09d4e21e1a8894ec,6734d69d103e4e2336cde56f,2024-11-13_18h15.24.749,Tarea de género gramatical,2024.2.2,Win32,59.88023952,,,,,,,,,,,,,,,,,,,,,,,163.5499,164.7311,l,1,[],[],[],[],[],[],[],0.5048,1,164.7313,165.231,,,,,,1050,MAS,CON,150,mozo,,l,0.5048,,165.2311,165.2313,0.655555556,0.20462963,0,0,0,,0,35,35,149,1,,,,
,,,,,,d06d70ff0280939457524cb6,66a626ef09d4e21e1a8894ec,6734d69d103e4e2336cde56f,2024-11-13_18h15.24.749,Tarea de género gramatical,2024.2.2,Win32,59.88023952,,,,,,,,,,,,,,,,,,,,,,,165.2334,166.4145,a,1,[],[],[],[],[],[],[],0.5063,1,166.4147,166.9145,,,,,,1275,FEM,CON,150,cadena,,a,0.5063,,166.9146,166.9149,0.655555556,0.20462963,0,0,0,,0,36,36,374,1,,,,
,,,,,,d06d70ff0280939457524cb6,66a626ef09d4e21e1a8894ec,6734d69d103e4e2336cde56f,2024-11-13_18h15.24.749,Tarea de género gramatical,2024.2.2,Win32,59.88023952,,,,,,,,,,,,,,,,,,,,,,,166.917,167.9479,l,1,[],[],[],[],[],[],[],0.3507,1,167.9481,168.4479,,,,,,1133,MAS,AGR,150,golpe,el,l,0.3507,,168.4479,168.4481,0.655555556,0.20462963,0,0,0,,0,37,37,232,1,,,,
,,,,,,d06d70ff0280939457524cb6,66a626ef09d4e21e1a8894ec,6734d69d103e4e2336cde56f,2024-11-13_18h15.24.749,Tarea de género gramatical,2024.2.2,Win32,59.88023952,,,,,,,,,,,,,,,,,,,,,,,168.4501,169.6148,l,1,[],[],[],[],[],[],[],0.4883,1,169.615,170.1147,,,,,,990,MAS,CON,150,león,,l,0.4883,,170.1184,170.1199,0.655555556,0.20462963,0,0,0,,0,38,38,89,1,,,,
,,,,,,d06d70ff0280939457524cb6,66a626ef09d4e21e1a8894ec,6734d69d103e4e2336cde56f,2024-11-13_18h15.24.749,Tarea de género gramatical,2024.2.2,Win32,59.88023952,,,,,,,,,,,,,,,,,,,,,,,170.1214,171.1147,l,1,[],[],[],[],[],[],[],0.3178,1,171.1149,171.6148,,,,,,1102,MAS,DIS,150,honor,la,l,0.3178,,171.6148,171.615,0.655555556,0.20462963,0,0,0,,0,39,39,201,1,,,,
,,,,,,d06d70ff0280939457524cb6,66a626ef09d4e21e1a8894ec,6734d69d103e4e2336cde56f,2024-11-13_18h15.24.749,Tarea de género gramatical,2024.2.2,Win32,59.88023952,,,,,,,,,,,,,,,,,,,,,,,171.6173,172.6648,l,1,[],[],[],[],[],[],[],0.3709,1,172.6651,173.1648,,,,,,984,MAS,CON,150,mago,,l,0.3709,,173.1649,173.1652,0.655555556,0.20462963,0,0,0,,0,40,40,83,1,,,,
,,,,,,d06d70ff0280939457524cb6,66a626ef09d4e21e1a8894ec,6734d69d103e4e2336cde56f,2024-11-13_18h15.24.749,Tarea de género gramatical,2024.2.2,Win32,59.88023952,,,,,,,,,,,,,,,,,,,,,,,173.168,174.2323,l,1,[],[],[],[],[],[],[],0.3951,1,174.2325,174.7318,,,,,,1276,MAS,DIS,150,efecto,la,l,0.3951,,174.732,174.7322,0.655555556,0.20462963,0,0,0,,0,41,41,375,1,,,,
,,,,,,d06d70ff0280939457524cb6,66a626ef09d4e21e1a8894ec,6734d69d103e4e2336cde56f,2024-11-13_18h15.24.749,Tarea de género gramatical,2024.2.2,Win32,59.88023952,,,,,,,,,,,,,,,,,,,,,,,174.7346,175.9148,a,1,[],[],[],[],[],[],[],0.5076,1,175.9149,176.4148,,,,,,1237,FEM,DIS,150,escena,el,a,0.5076,,176.4163,176.4174,0.655555556,0.20462963,0,0,0,,0,42,42,336,1,,,,
,,,,,,d06d70ff0280939457524cb6,66a626ef09d4e21e1a8894ec,6734d69d103e4e2336cde56f,2024-11-13_18h15.24.749,Tarea de género gramatical,2024.2.2,Win32,59.88023952,,,,,,,,,,,,,,,,,,,,,,,176.4183,177.5818,l,1,[],[],[],[],[],[],[],0.4863,1,177.582,178.0819,,,,,,1324,MAS,DIS,150,rastro,la,l,0.4863,,178.082,178.0821,0.655555556,0.20462963,0,0,0,,0,43,43,423,1,,,,
,,,,,,d06d70ff0280939457524cb6,66a626ef09d4e21e1a8894ec,6734d69d103e4e2336cde56f,2024-11-13_18h15.24.749,Tarea de género gramatical,2024.2.2,Win32,59.88023952,,,,,,,,,,,,,,,,,,,,,,,178.0842,179.5153,l,1,[],[],[],[],[],[],[],0.7537,1,179.5154,180.0153,,,,,,1294,MAS,DIS,150,examen,la,l,0.7537,,180.0153,180.0155,0.655555556,0.20462963,0,0,0,,0,44,44,393,1,,,,
,,,,,,d06d70ff0280939457524cb6,66a626ef09d4e21e1a8894ec,6734d69d103e4e2336cde56f,2024-11-13_18h15.24.749,Tarea de género gramatical,2024.2.2,Win32,59.88023952,,,,,,,,,,,,,,,,,,,,,,,180.018,181.032,a,1,[],[],[],[],[],[],[],0.3386,1,181.0322,181.5316,,,,,,1238,FEM,AGR,150,abuela,la,a,0.3386,,181.5317,181.5317,0.655555556,0.20462963,0,0,0,,0,45,45,337,1,,,,
,,,,,,d06d70ff0280939457524cb6,66a626ef09d4e21e1a8894ec,6734d69d103e4e2336cde56f,2024-11-13_18h15.24.749,Tarea de género gramatical,2024.2.2,Win32,59.88023952,,,,,,,,,,,,,,,,,,,,,,,181.5325,182.6489,l,1,[],[],[],[],[],[],[],0.4358,1,182.6491,183.1488,,,,,,916,MAS,DIS,150,baño,la,l,0.4358,,183.1489,183.1491,0.655555556,0.20462963,0,0,0,,0,46,46,15,1,,,,
,,,,,,d06d70ff0280939457524cb6,66a626ef09d4e21e1a8894ec,6734d69d103e4e2336cde56f,2024-11-13_18h15.24.749,Tarea de género gramatical,2024.2.2,Win32,59.88023952,,,,,,,,,,,,,,,,,,,,,,,183.1511,184.4153,l,0,[],[],[],[],[],[],[],0.5876,0,184.4163,184.9155,,,,,,1016,FEM,AGR,150,nube,la,a,0.5876,,184.918,184.9196,0.655555556,0.20462963,0,0,0,,0,47,47,115,1,,,,
,,,,,,d06d70ff0280939457524cb6,66a626ef09d4e21e1a8894ec,6734d69d103e4e2336cde56f,2024-11-13_18h15.24.749,Tarea de género gramatical,2024.2.2,Win32,59.88023952,,,,,,,,,,,,,,,,,,,,,,,184.921,186.1323,a,0,[],[],[],[],[],[],[],0.5362,0,186.1325,186.6321,,,,,,911,MAS,AGR,150,país,el,l,0.5362,,186.6322,186.6323,0.655555556,0.20462963,0,0,0,,0,48,48,10,1,,,,
,,,,,,d06d70ff0280939457524cb6,66a626ef09d4e21e1a8894ec,6734d69d103e4e2336cde56f,2024-11-13_18h15.24.749,Tarea de género gramatical,2024.2.2,Win32,59.88023952,,,,,,,,,,,,,,,,,,,,,,,186.6338,188.0324,l,1,[],[],[],[],[],[],[],0.7206,1,188.0338,188.5325,,,,,,1097,MAS,AGR,150,avión,el,l,0.7206,,188.5325,188.5326,0.655555556,0.20462963,0,0,0,,0,49,49,196,1,,,,
,,,,,,d06d70ff0280939457524cb6,66a626ef09d4e21e1a8894ec,6734d69d103e4e2336cde56f,2024-11-13_18h15.24.749,Tarea de género gramatical,2024.2.2,Win32,59.88023952,,,,,,,,,,,,,,,,,,,,,,,188.5348,189.599,a,1,[],[],[],[],[],[],[],0.3842,1,189.5993,190.0991,,,,,,901,FEM,DIS,150,casa,el,a,0.3842,,190.0992,190.0994,0.655555556,0.20462963,0,0,0,,0,50,50,0,1,,,,
,,,,,,d06d70ff0280939457524cb6,66a626ef09d4e21e1a8894ec,6734d69d103e4e2336cde56f,2024-11-13_18h15.24.749,Tarea de género gramatical,2024.2.2,Win32,59.88023952,,,,,,,,,,,,,,,,,,,,,,,190.1014,191.1326,l,1,[],[],[],[],[],[],[],0.3528,1,191.1327,191.6326,,,,,,1259,MAS,AGR,150,bosque,el,l,0.3528,,191.6351,191.6369,0.655555556,0.20462963,0,0,0,,0,51,51,358,1,,,,
,,,,,,d06d70ff0280939457524cb6,66a626ef09d4e21e1a8894ec,6734d69d103e4e2336cde56f,2024-11-13_18h15.24.749,Tarea de género gramatical,2024.2.2,Win32,59.88023952,,,,,,,,,,,,,,,,,,,,,,,191.6384,192.816,l,1,[],[],[],[],[],[],[],0.5026,1,192.8161,193.316,,,,,,1043,MAS,AGR,150,faro,el,l,0.5026,,193.3161,193.3163,0.655555556,0.20462963,0,0,0,,0,52,52,142,1,,,,
,,,,,,d06d70ff0280939457524cb6,66a626ef09d4e21e1a8894ec,6734d69d103e4e2336cde56f,2024-11-13_18h15.24.749,Tarea de género gramatical,2024.2.2,Win32,59.88023952,,,,,,,,,,,,,,,,,,,,,,,193.3187,194.3994,l,1,[],[],[],[],[],[],[],0.4013,1,194.3995,194.8995,,,,,,1067,MAS,AGR,150,juego,el,l,0.4013,,194.8997,194.9,0.655555556,0.20462963,0,0,0,,0,53,53,166,1,,,,
,,,,,,d06d70ff0280939457524cb6,66a626ef09d4e21e1a8894ec,6734d69d103e4e2336cde56f,2024-11-13_18h15.24.749,Tarea de género gramatical,2024.2.2,Win32,59.88023952,,,,,,,,,,,,,,,,,,,,,,,194.902,196.0663,a,1,[],[],[],[],[],[],[],0.4904,1,196.0665,196.5661,,,,,,981,FEM,CON,150,cima,,a,0.4904,,196.5663,196.5664,0.655555556,0.20462963,0,0,0,,0,54,54,80,1,,,,
,,,,,,d06d70ff0280939457524cb6,66a626ef09d4e21e1a8894ec,6734d69d103e4e2336cde56f,2024-11-13_18h15.24.749,Tarea de género gramatical,2024.2.2,Win32,59.88023952,,,,,,,,,,,,,,,,,,,,,,,196.569,197.5993,a,1,[],[],[],[],[],[],[],0.3593,1,197.5995,198.0992,,,,,,1227,FEM,CON,150,tienda,,a,0.3593,,198.0993,198.0993,0.655555556,0.20462963,0,0,0,,0,55,55,326,1,,,,
,,,,,,d06d70ff0280939457524cb6,66a626ef09d4e21e1a8894ec,6734d69d103e4e2336cde56f,2024-11-13_18h15.24.749,Tarea de género gramatical,2024.2.2,Win32,59.88023952,,,,,,,,,,,,,,,,,,,,,,,198.1007,199.4496,l,1,[],[],[],[],[],[],[],0.6699,1,199.4498,199.9497,,,,,,1272,MAS,CON,150,delito,,l,0.6699,,199.9522,199.9541,0.759259259,0.243518519,0,0,0,,0,56,56,371,1,,,,
,,,,,,d06d70ff0280939457524cb6,66a626ef09d4e21e1a8894ec,6734d69d103e4e2336cde56f,2024-11-13_18h15.24.749,Tarea de género gramatical,2024.2.2,Win32,59.88023952,,,,,,,,,,,,,,,,,,,,,,,199.9561,200.9998,a,1,[],[],[],[],[],[],[],0.3673,1,201,201.4998,,,,,,1184,FEM,AGR,150,fruta,la,a,0.3673,,201.4999,201.5001,0.759259259,0.243518519,0,0,0,,0,57,57,283,1,,,,
,,,,,,d06d70ff0280939457524cb6,66a626ef09d4e21e1a8894ec,6734d69d103e4e2336cde56f,2024-11-13_18h15.24.749,Tarea de género gramatical,2024.2.2,Win32,59.88023952,,,,,,,,,,,,,,,,,,,,,,,201.502,202.6666,l,1,[],[],[],[],[],[],[],0.4843,1,202.6668,203.1666,,,,,,1074,MAS,CON,150,perro,,l,0.4843,,203.1666,203.1668,0.759259259,0.243518519,0,0,0,,0,58,58,173,1,,,,
,,,,,,d06d70ff0280939457524cb6,66a626ef09d4e21e1a8894ec,6734d69d103e4e2336cde56f,2024-11-13_18h15.24.749,Tarea de género gramatical,2024.2.2,Win32,59.88023952,,,,,,,,,,,,,,,,,,,,,,,203.1688,204.4167,l,0,[],[],[],[],[],[],[],0.5665,0,204.4182,204.9168,,,,,,999,FEM,CON,150,fase,,a,0.5665,,204.9169,204.9172,0.759259259,0.243518519,0,0,0,,0,59,59,98,1,,,,
,,,,,,d06d70ff0280939457524cb6,66a626ef09d4e21e1a8894ec,6734d69d103e4e2336cde56f,2024-11-13_18h15.24.749,Tarea de género gramatical,2024.2.2,Win32,59.88023952,,,,,,,,,,,,,,,,,,,,,,,204.919,206.4333,a,1,[],[],[],[],[],[],[],0.8392,1,206.4348,206.9335,,,,,,1113,FEM,CON,150,magia,,a,0.8392,,206.9359,206.9374,0.759259259,0.243518519,0,0,0,,0,60,60,212,1,,,,
,,,,,,d06d70ff0280939457524cb6,66a626ef09d4e21e1a8894ec,6734d69d103e4e2336cde56f,2024-11-13_18h15.24.749,Tarea de género gramatical,2024.2.2,Win32,59.88023952,,,,,,,,,,,,,,,,,,,,,,,206.9388,208.0835,l,1,[],[],[],[],[],[],[],0.4706,1,208.0837,208.5835,,,,,,1224,MAS,CON,150,cuarto,,l,0.4706,,208.5836,208.5838,0.759259259,0.243518519,0,0,0,,0,61,61,323,1,,,,
,,,,,,d06d70ff0280939457524cb6,66a626ef09d4e21e1a8894ec,6734d69d103e4e2336cde56f,2024-11-13_18h15.24.749,Tarea de género gramatical,2024.2.2,Win32,59.88023952,,,,,,,,,,,,,,,,,,,,,,,208.586,209.7837,a,1,[],[],[],[],[],[],[],0.5245,1,209.7839,210.2837,,,,,,1256,FEM,AGR,150,piedra,la,a,0.5245,,210.2837,210.2839,0.759259259,0.243518519,0,0,0,,0,62,62,355,1,,,,
,,,,,,d06d70ff0280939457524cb6,66a626ef09d4e21e1a8894ec,6734d69d103e4e2336cde56f,2024-11-13_18h15.24.749,Tarea de género gramatical,2024.2.2,Win32,59.88023952,,,,,,,,,,,,,,,,,,,,,,,210.2861,211.4171,l,1,[],[],[],[],[],[],[],0.4518,1,211.4172,211.917,,,,,,1048,MAS,DIS,150,surf,la,l,0.4518,,211.9171,211.9174,0.759259259,0.243518519,0,0,0,,0,63,63,147,1,,,,
,,,,,,d06d70ff0280939457524cb6,66a626ef09d4e21e1a8894ec,6734d69d103e4e2336cde56f,2024-11-13_18h15.24.749,Tarea de género gramatical,2024.2.2,Win32,59.88023952,,,,,,,,,,,,,,,,,,,,,,,211.9198,213.1169,l,0,[],[],[],[],[],[],[],0.5189,0,213.1178,213.6172,,,,,,1185,FEM,CON,150,mafia,,a,0.5189,,213.6173,213.6176,0.759259259,0.243518519,0,0,0,,0,64,64,284,1,,,,
,,,,,,d06d70ff0280939457524cb6,66a626ef09d4e21e1a8894ec,6734d69d103e4e2336cde56f,2024-11-13_18h15.24.749,Tarea de género gramatical,2024.2.2,Win32,59.88023952,,,,,,,,,,,,,,,,,,,,,,,213.6196,214.8839,a,1,[],[],[],[],[],[],[],0.5867,1,214.8854,215.3841,,,,,,1161,FEM,CON,150,cueva,,a,0.5867,,215.3865,215.3882,0.759259259,0.243518519,0,0,0,,0,65,65,260,1,,,,
,,,,,,d06d70ff0280939457524cb6,66a626ef09d4e21e1a8894ec,6734d69d103e4e2336cde56f,2024-11-13_18h15.24.749,Tarea de género gramatical,2024.2.2,Win32,59.88023952,,,,,,,,,,,,,,,,,,,,,,,215.3898,216.8507,a,0,[],[],[],[],[],[],[],0.7844,0,216.8521,217.3504,,,,,,1006,MAS,DIS,150,test,la,l,0.7844,,217.3505,217.3506,0.759259259,0.243518519,0,0,0,,0,66,66,105,1,,,,
,,,,,,d06d70ff0280939457524cb6,66a626ef09d4e21e1a8894ec,6734d69d103e4e2336cde56f,2024-11-13_18h15.24.749,Tarea de género gramatical,2024.2.2,Win32,59.88023952,,,,,,,,,,,,,,,,,,,,,,,217.352,218.5004,l,1,[],[],[],[],[],[],[],0.4713,1,218.5012,219.0003,,,,,,1284,MAS,CON,150,pedazo,,l,0.4713,,219.0003,219.0003,0.759259259,0.243518519,0,0,0,,0,67,67,383,1,,,,
,,,,,,d06d70ff0280939457524cb6,66a626ef09d4e21e1a8894ec,6734d69d103e4e2336cde56f,2024-11-13_18h15.24.749,Tarea de género gramatical,2024.2.2,Win32,59.88023952,,,,,,,,,,,,,,,,,,,,,,,219.0011,220.4338,l,1,[],[],[],[],[],[],[],0.7524,1,220.4339,220.934,,,,,,928,MAS,DIS,150,club,la,l,0.7524,,220.934,220.9342,0.759259259,0.243518519,0,0,0,,0,68,68,27,1,,,,
,,,,,,d06d70ff0280939457524cb6,66a626ef09d4e21e1a8894ec,6734d69d103e4e2336cde56f,2024-11-13_18h15.24.749,Tarea de género gramatical,2024.2.2,Win32,59.88023952,,,,,,,,,,,,,,,,,,,,,,,220.9353,222.3177,l,1,[],[],[],[],[],[],[],0.7027,1,222.3179,222.8177,,,,,,1145,MAS,AGR,150,turno,el,l,0.7027,,222.8201,222.8216,0.759259259,0.243518519,0,0,0,,0,69,69,244,1,,,,
,,,,,,d06d70ff0280939457524cb6,66a626ef09d4e21e1a8894ec,6734d69d103e4e2336cde56f,2024-11-13_18h15.24.749,Tarea de género gramatical,2024.2.2,Win32,59.88023952,,,,,,,,,,,,,,,,,,,,,,,222.8231,223.9178,a,1,[],[],[],[],[],[],[],0.4187,1,223.9179,224.4178,,,,,,1299,FEM,CON,150,charla,,a,0.4187,,224.4179,224.4181,0.759259259,0.243518519,0,0,0,,0,70,70,398,1,,,,
,,,,,,d06d70ff0280939457524cb6,66a626ef09d4e21e1a8894ec,6734d69d103e4e2336cde56f,2024-11-13_18h15.24.749,Tarea de género gramatical,2024.2.2,Win32,59.88023952,,,,,,,,,,,,,,,,,,,,,,,224.4201,225.4845,a,0,[],[],[],[],[],[],[],0.3844,0,225.4863,225.9842,,,,,,1036,MAS,DIS,150,vago,la,l,0.3844,,225.9843,225.9844,0.759259259,0.243518519,0,0,0,,0,71,71,135,1,,,,
,,,,,,d06d70ff0280939457524cb6,66a626ef09d4e21e1a8894ec,6734d69d103e4e2336cde56f,2024-11-13_18h15.24.749,Tarea de género gramatical,2024.2.2,Win32,59.88023952,,,,,,,,,,,,,,,,,,,,,,,225.9858,227.4682,l,1,[],[],[],[],[],[],[],0.8015,1,227.47,227.968,,,,,,1007,MAS,AGR,150,cubo,el,l,0.8015,,227.9681,227.9683,0.759259259,0.243518519,0,0,0,,0,72,72,106,1,,,,
,,,,,,d06d70ff0280939457524cb6,66a626ef09d4e21e1a8894ec,6734d69d103e4e2336cde56f,2024-11-13_18h15.24.749,Tarea de género gramatical,2024.2.2,Win32,59.88023952,,,,,,,,,,,,,,,,,,,,,,,227.9706,229.152,a,1,[],[],[],[],[],[],[],0.513,1,229.1521,229.6509,,,,,,1195,FEM,DIS,150,grasa,el,a,0.513,,229.651,229.6511,0.759259259,0.243518519,0,0,0,,0,73,73,294,1,,,,
,,,,,,d06d70ff0280939457524cb6,66a626ef09d4e21e1a8894ec,6734d69d103e4e2336cde56f,2024-11-13_18h15.24.749,Tarea de género gramatical,2024.2.2,Win32,59.88023952,,,,,,,,,,,,,,,,,,,,,,,229.6522,230.8681,l,1,[],[],[],[],[],[],[],0.536,1,230.8682,231.3682,,,,,,1013,MAS,AGR,150,toro,el,l,0.536,,231.3707,231.3722,0.759259259,0.243518519,0,0,0,,0,74,74,112,1,,,,
,,,,,,d06d70ff0280939457524cb6,66a626ef09d4e21e1a8894ec,6734d69d103e4e2336cde56f,2024-11-13_18h15.24.749,Tarea de género gramatical,2024.2.2,Win32,59.88023952,,,,,,,,,,,,,,,,,,,,,,,231.3738,232.5016,a,1,[],[],[],[],[],[],[],0.4523,1,232.5017,233.0016,,,,,,1298,FEM,AGR,150,hierba,la,a,0.4523,,233.0017,233.0019,0.759259259,0.243518519,0,0,0,,0,75,75,397,1,,,,
,,,,,,d06d70ff0280939457524cb6,66a626ef09d4e21e1a8894ec,6734d69d103e4e2336cde56f,2024-11-13_18h15.24.749,Tarea de género gramatical,2024.2.2,Win32,59.88023952,,,,,,,,,,,,,,,,,,,,,,,233.0044,234.435,l,0,[],[],[],[],[],[],[],0.7517,0,234.4365,234.9347,,,,,,1075,FEM,DIS,150,señal,el,a,0.7517,,234.9348,234.9349,0.759259259,0.243518519,0,0,0,,0,76,76,174,1,,,,
,,,,,,d06d70ff0280939457524cb6,66a626ef09d4e21e1a8894ec,6734d69d103e4e2336cde56f,2024-11-13_18h15.24.749,Tarea de género gramatical,2024.2.2,Win32,59.88023952,,,,,,,,,,,,,,,,,,,,,,,234.9357,236.1014,l,1,[],[],[],[],[],[],[],0.4832,1,236.1024,236.6015,,,,,,1121,MAS,AGR,150,brazo,el,l,0.4832,,236.6015,236.6017,0.759259259,0.243518519,0,0,0,,0,77,77,220,1,,,,
,,,,,,d06d70ff0280939457524cb6,66a626ef09d4e21e1a8894ec,6734d69d103e4e2336cde56f,2024-11-13_18h15.24.749,Tarea de género gramatical,2024.2.2,Win32,59.88023952,,,,,,,,,,,,,,,,,,,,,,,236.6029,238.2685,a,1,[],[],[],[],[],[],[],0.9845,1,238.2687,238.7685,,,,,,1274,FEM,AGR,150,herida,la,a,0.9845,,238.7718,238.7737,0.759259259,0.243518519,0,0,0,,0,78,78,373,1,,,,
,,,,,,d06d70ff0280939457524cb6,66a626ef09d4e21e1a8894ec,6734d69d103e4e2336cde56f,2024-11-13_18h15.24.749,Tarea de género gramatical,2024.2.2,Win32,59.88023952,,,,,,,,,,,,,,,,,,,,,,,238.7753,239.9183,a,1,[],[],[],[],[],[],[],0.4713,1,239.9184,240.4183,,,,,,1213,FEM,DIS,150,ciudad,el,a,0.4713,,240.4184,240.4184,0.759259259,0.243518519,0,0,0,,0,79,79,312,1,,,,
,,,,,,d06d70ff0280939457524cb6,66a626ef09d4e21e1a8894ec,6734d69d103e4e2336cde56f,2024-11-13_18h15.24.749,Tarea de género gramatical,2024.2.2,Win32,59.88023952,,,,,,,,,,,,,,,,,,,,,,,240.4197,241.485,l,1,[],[],[],[],[],[],[],0.3936,1,241.4851,241.9853,,,,,,1198,MAS,DIS,150,botón,la,l,0.3936,,241.9854,241.9856,0.759259259,0.243518519,0,0,0,,0,80,80,297,1,,,,
,,,,,,d06d70ff0280939457524cb6,66a626ef09d4e21e1a8894ec,6734d69d103e4e2336cde56f,2024-11-13_18h15.24.749,Tarea de género gramatical,2024.2.2,Win32,59.88023952,,,,,,,,,,,,,,,,,,,,,,,241.988,243.1855,a,1,[],[],[],[],[],[],[],0.5179,1,243.1856,243.6855,,,,,,1244,FEM,AGR,150,pareja,la,a,0.5179,,243.6857,243.6858,0.759259259,0.243518519,0,0,0,,0,81,81,343,1,,,,
,,,,,,d06d70ff0280939457524cb6,66a626ef09d4e21e1a8894ec,6734d69d103e4e2336cde56f,2024-11-13_18h15.24.749,Tarea de género gramatical,2024.2.2,Win32,59.88023952,,,,,,,,,,,,,,,,,,,,,,,243.6878,245.0523,l,1,[],[],[],[],[],[],[],0.6871,1,245.0525,245.5523,,,,,,1247,MAS,AGR,150,cuello,el,l,0.6871,,245.5525,245.5527,0.759259259,0.243518519,0,0,0,,0,82,82,346,1,,,,
,,,,,,d06d70ff0280939457524cb6,66a626ef09d4e21e1a8894ec,6734d69d103e4e2336cde56f,2024-11-13_18h15.24.749,Tarea de género gramatical,2024.2.2,Win32,59.88023952,,,,,,,,,,,,,,,,,,,,,,,245.5548,246.9024,a,1,[],[],[],[],[],[],[],0.6703,1,246.9026,247.4024,,,,,,973,FEM,DIS,150,roca,el,a,0.6703,,247.4049,247.4064,0.759259259,0.243518519,0,0,0,,0,83,83,72,1,,,,
,,,,,,d06d70ff0280939457524cb6,66a626ef09d4e21e1a8894ec,6734d69d103e4e2336cde56f,2024-11-13_18h15.24.749,Tarea de género gramatical,2024.2.2,Win32,59.88023952,,,,,,,,,,,,,,,,,,,,,,,247.4081,248.6191,l,0,[],[],[],[],[],[],[],0.5341,0,248.6233,249.1189,,,,,,1207,FEM,DIS,150,suerte,el,a,0.5341,,249.1189,249.119,0.759259259,0.243518519,0,0,0,,0,84,84,306,1,,,,
,,,,,,d06d70ff0280939457524cb6,66a626ef09d4e21e1a8894ec,6734d69d103e4e2336cde56f,2024-11-13_18h15.24.749,Tarea de género gramatical,2024.2.2,Win32,59.88023952,,,,,,,,,,,,,,,,,,,,,,,249.1204,250.786,a,1,[],[],[],[],[],[],[],0.9908,1,250.7874,251.286,,,,,,967,FEM,DIS,150,miel,el,a,0.9908,,251.2861,251.2862,0.759259259,0.243518519,0,0,0,,0,85,85,66,1,,,,
,,,,,,d06d70ff0280939457524cb6,66a626ef09d4e21e1a8894ec,6734d69d103e4e2336cde56f,2024-11-13_18h15.24.749,Tarea de género gramatical,2024.2.2,Win32,59.88023952,,,,,,,,,,,,,,,,,,,,,,,251.2897,252.5861,l,1,[],[],[],[],[],[],[],0.6197,1,252.5861,253.0862,,,,,,1349,MAS,AGR,150,payaso,el,l,0.6197,,253.0862,253.0864,0.759259259,0.243518519,0,0,0,,0,86,86,448,1,,,,
,,,,,,d06d70ff0280939457524cb6,66a626ef09d4e21e1a8894ec,6734d69d103e4e2336cde56f,2024-11-13_18h15.24.749,Tarea de género gramatical,2024.2.2,Win32,59.88023952,,,,,,,,,,,,,,,,,,,,,,,253.0884,254.2194,l,1,[],[],[],[],[],[],[],0.453,1,254.2197,254.7193,,,,,,960,MAS,CON,150,tono,,l,0.453,,254.7222,254.7237,0.759259259,0.243518519,0,0,0,,0,87,87,59,1,,,,
,,,,,,d06d70ff0280939457524cb6,66a626ef09d4e21e1a8894ec,6734d69d103e4e2336cde56f,2024-11-13_18h15.24.749,Tarea de género gramatical,2024.2.2,Win32,59.88023952,,,,,,,,,,,,,,,,,,,,,,,254.7252,255.7862,l,1,[],[],[],[],[],[],[],0.3904,1,255.7864,256.286,,,,,,1350,MAS,CON,150,conejo,,l,0.3904,,256.286,256.2862,0.759259259,0.243518519,0,0,0,,0,88,88,449,1,,,,
,,,,,,d06d70ff0280939457524cb6,66a626ef09d4e21e1a8894ec,6734d69d103e4e2336cde56f,2024-11-13_18h15.24.749,Tarea de género gramatical,2024.2.2,Win32,59.88023952,,,,,,,,,,,,,,,,,,,,,,,256.2877,257.3692,a,1,[],[],[],[],[],[],[],0.4012,1,257.3694,257.8693,,,,,,1046,FEM,AGR,150,lana,la,a,0.4012,,257.8693,257.8694,0.759259259,0.243518519,0,0,0,,0,89,89,145,1,,,,
,,,,,,d06d70ff0280939457524cb6,66a626ef09d4e21e1a8894ec,6734d69d103e4e2336cde56f,2024-11-13_18h15.24.749,Tarea de género gramatical,2024.2.2,Win32,59.88023952,,,,,,,,,,,,,,,,,,,,,,,257.8705,259.4863,a,1,[],[],[],[],[],[],[],0.9362,1,259.4866,259.9861,,,,,,1178,FEM,AGR,150,presa,la,a,0.9362,,259.9861,259.9862,0.652777778,0.241666667,0,0,0,,0,90,90,277,1,,,,
,,,,,,d06d70ff0280939457524cb6,66a626ef09d4e21e1a8894ec,6734d69d103e4e2336cde56f,2024-11-13_18h15.24.749,Tarea de género gramatical,2024.2.2,Win32,59.88023952,,,,,,,,,,,,,,,,,,,,,,,259.9872,261.3533,l,0,[],[],[],[],[],[],[],0.6907,0,261.3549,261.8532,,,,,,1111,FEM,DIS,150,salud,el,a,0.6907,,261.8533,261.8535,0.652777778,0.241666667,0,0,0,,0,91,91,210,1,,,,
,,,,,,d06d70ff0280939457524cb6,66a626ef09d4e21e1a8894ec,6734d69d103e4e2336cde56f,2024-11-13_18h15.24.749,Tarea de género gramatical,2024.2.2,Win32,59.88023952,,,,,,,,,,,,,,,,,,,,,,,261.8555,263.0034,a,1,[],[],[],[],[],[],[],0.4693,1,263.0047,263.5033,,,,,,1214,FEM,AGR,150,señora,la,a,0.4693,,263.5057,263.5072,0.652777778,0.241666667,0,0,0,,0,92,92,313,1,,,,
,,,,,,d06d70ff0280939457524cb6,66a626ef09d4e21e1a8894ec,6734d69d103e4e2336cde56f,2024-11-13_18h15.24.749,Tarea de género gramatical,2024.2.2,Win32,59.88023952,,,,,,,,,,,,,,,,,,,,,,,263.5086,264.6367,l,0,[],[],[],[],[],[],[],0.4617,0,264.638,265.1368,,,,,,1088,FEM,AGR,150,bomba,la,a,0.4617,,265.1369,265.137,0.652777778,0.241666667,0,0,0,,0,93,93,187,1,,,,
,,,,,,d06d70ff0280939457524cb6,66a626ef09d4e21e1a8894ec,6734d69d103e4e2336cde56f,2024-11-13_18h15.24.749,Tarea de género gramatical,2024.2.2,Win32,59.88023952,,,,,,,,,,,,,,,,,,,,,,,265.1392,266.5699,a,1,[],[],[],[],[],[],[],0.7576,1,266.5708,267.0699,,,,,,1009,FEM,DIS,150,gota,el,a,0.7576,,267.0699,267.0699,0.652777778,0.241666667,0,0,0,,0,94,94,108,1,,,,
,,,,,,d06d70ff0280939457524cb6,66a626ef09d4e21e1a8894ec,6734d69d103e4e2336cde56f,2024-11-13_18h15.24.749,Tarea de género gramatical,2024.2.2,Win32,59.88023952,,,,,,,,,,,,,,,,,,,,,,,267.071,268.2203,l,1,[],[],[],[],[],[],[],0.4739,1,268.2205,268.7203,,,,,,1008,MAS,CON,150,hilo,,l,0.4739,,268.7205,268.7207,0.652777778,0.241666667,0,0,0,,0,95,95,107,1,,,,
,,,,,,d06d70ff0280939457524cb6,66a626ef09d4e21e1a8894ec,6734d69d103e4e2336cde56f,2024-11-13_18h15.24.749,Tarea de género gramatical,2024.2.2,Win32,59.88023952,,,,,,,,,,,,,,,,,,,,,,,268.7225,269.8036,l,1,[],[],[],[],[],[],[],0.4095,1,269.8038,270.3036,,,,,,1156,MAS,DIS,150,techo,la,l,0.4095,,270.3062,270.3075,0.652777778,0.241666667,0,0,0,,0,96,96,255,1,,,,
,,,,,,d06d70ff0280939457524cb6,66a626ef09d4e21e1a8894ec,6734d69d103e4e2336cde56f,2024-11-13_18h15.24.749,Tarea de género gramatical,2024.2.2,Win32,59.88023952,,,,,,,,,,,,,,,,,,,,,,,270.3091,271.3538,l,1,[],[],[],[],[],[],[],0.3702,1,271.3539,271.8537,,,,,,1210,MAS,DIS,150,nombre,la,l,0.3702,,271.8539,271.854,0.652777778,0.241666667,0,0,0,,0,97,97,309,1,,,,
,,,,,,d06d70ff0280939457524cb6,66a626ef09d4e21e1a8894ec,6734d69d103e4e2336cde56f,2024-11-13_18h15.24.749,Tarea de género gramatical,2024.2.2,Win32,59.88023952,,,,,,,,,,,,,,,,,,,,,,,271.856,273.0039,l,1,[],[],[],[],[],[],[],0.474,1,273.0041,273.5039,,,,,,1277,MAS,AGR,150,jardín,el,l,0.474,,273.504,273.5041,0.652777778,0.241666667,0,0,0,,0,98,98,376,1,,,,
,,,,,,d06d70ff0280939457524cb6,66a626ef09d4e21e1a8894ec,6734d69d103e4e2336cde56f,2024-11-13_18h15.24.749,Tarea de género gramatical,2024.2.2,Win32,59.88023952,,,,,,,,,,,,,,,,,,,,,,,273.5061,274.6874,l,1,[],[],[],[],[],[],[],0.5012,1,274.6875,275.1872,,,,,,971,MAS,AGR,150,pozo,el,l,0.5012,,275.1874,275.1875,0.652777778,0.241666667,0,0,0,,0,99,99,70,1,,,,
,,,,,,d06d70ff0280939457524cb6,66a626ef09d4e21e1a8894ec,6734d69d103e4e2336cde56f,2024-11-13_18h15.24.749,Tarea de género gramatical,2024.2.2,Win32,59.88023952,,,,,,,,,,,,,,,,,,,,,,,275.1897,276.3706,a,1,[],[],[],[],[],[],[],0.502,1,276.3708,276.8706,,,,,,1286,FEM,AGR,150,sombra,la,a,0.502,,276.8708,276.8709,0.652777778,0.241666667,0,0,0,,0,100,100,385,1,,,,
,,,,,,d06d70ff0280939457524cb6,66a626ef09d4e21e1a8894ec,6734d69d103e4e2336cde56f,2024-11-13_18h15.24.749,Tarea de género gramatical,2024.2.2,Win32,59.88023952,,,,,,,,,,,,,,,,,,,,,,,276.8729,278.1207,l,1,[],[],[],[],[],[],[],0.5696,1,278.1209,278.6208,,,,,,1079,MAS,AGR,150,viaje,el,l,0.5696,,278.6232,278.6248,0.652777778,0.241666667,0,0,0,,0,101,101,178,1,,,,
,,,,,,d06d70ff0280939457524cb6,66a626ef09d4e21e1a8894ec,6734d69d103e4e2336cde56f,2024-11-13_18h15.24.749,Tarea de género gramatical,2024.2.2,Win32,59.88023952,,,,,,,,,,,,,,,,,,,,,,,278.6261,279.7873,a,1,[],[],[],[],[],[],[],0.482,1,279.7873,280.2876,,,,,,1191,FEM,CON,150,aguja,,a,0.482,,280.2877,280.2881,0.652777778,0.241666667,0,0,0,,0,102,102,290,1,,,,
,,,,,,d06d70ff0280939457524cb6,66a626ef09d4e21e1a8894ec,6734d69d103e4e2336cde56f,2024-11-13_18h15.24.749,Tarea de género gramatical,2024.2.2,Win32,59.88023952,,,,,,,,,,,,,,,,,,,,,,,280.2901,281.3709,l,1,[],[],[],[],[],[],[],0.4031,1,281.3711,281.871,,,,,,1055,MAS,AGR,150,mundo,el,l,0.4031,,281.8711,281.8713,0.652777778,0.241666667,0,0,0,,0,103,103,154,1,,,,
,,,,,,d06d70ff0280939457524cb6,66a626ef09d4e21e1a8894ec,6734d69d103e4e2336cde56f,2024-11-13_18h15.24.749,Tarea de género gramatical,2024.2.2,Win32,59.88023952,,,,,,,,,,,,,,,,,,,,,,,281.8732,283.2712,l,1,[],[],[],[],[],[],[],0.7188,1,283.2714,283.7712,,,,,,1312,MAS,DIS,150,espejo,la,l,0.7188,,283.7713,283.7714,0.652777778,0.241666667,0,0,0,,0,104,104,411,1,,,,
,,,,,,d06d70ff0280939457524cb6,66a626ef09d4e21e1a8894ec,6734d69d103e4e2336cde56f,2024-11-13_18h15.24.749,Tarea de género gramatical,2024.2.2,Win32,59.88023952,,,,,,,,,,,,,,,,,,,,,,,283.7734,285.3879,a,1,[],[],[],[],[],[],[],0.9334,1,285.3881,285.8879,,,,,,1257,FEM,CON,150,lengua,,a,0.9334,,285.8904,285.892,0.652777778,0.241666667,0,0,0,,0,105,105,356,1,,,,
,,,,,,d06d70ff0280939457524cb6,66a626ef09d4e21e1a8894ec,6734d69d103e4e2336cde56f,2024-11-13_18h15.24.749,Tarea de género gramatical,2024.2.2,Win32,59.88023952,,,,,,,,,,,,,,,,,,,,,,,285.8937,287.2209,l,0,[],[],[],[],[],[],[],0.6498,0,287.2216,287.7213,,,,,,1099,FEM,DIS,150,nariz,el,a,0.6498,,287.7214,287.7215,0.652777778,0.241666667,0,0,0,,0,106,106,198,1,,,,
,,,,,,d06d70ff0280939457524cb6,66a626ef09d4e21e1a8894ec,6734d69d103e4e2336cde56f,2024-11-13_18h15.24.749,Tarea de género gramatical,2024.2.2,Win32,59.88023952,,,,,,,,,,,,,,,,,,,,,,,287.7236,288.9213,a,1,[],[],[],[],[],[],[],0.529,1,288.9226,289.4214,,,,,,1171,FEM,DIS,150,viuda,el,a,0.529,,289.4215,289.4216,0.652777778,0.241666667,0,0,0,,0,107,107,270,1,,,,
,,,,,,d06d70ff0280939457524cb6,66a626ef09d4e21e1a8894ec,6734d69d103e4e2336cde56f,2024-11-13_18h15.24.749,Tarea de género gramatical,2024.2.2,Win32,59.88023952,,,,,,,,,,,,,,,,,,,,,,,289.4238,291.1048,a,0,[],[],[],[],[],[],[],1.0111,0,291.1062,291.6049,,,,,,1180,MAS,DIS,150,salón,la,l,1.0111,,291.605,291.6051,0.652777778,0.241666667,0,0,0,,0,108,108,279,1,,,,
,,,,,,d06d70ff0280939457524cb6,66a626ef09d4e21e1a8894ec,6734d69d103e4e2336cde56f,2024-11-13_18h15.24.749,Tarea de género gramatical,2024.2.2,Win32,59.88023952,,,,,,,,,,,,,,,,,,,,,,,291.6071,292.7216,a,1,[],[],[],[],[],[],[],0.4374,1,292.7229,293.2216,,,,,,1317,FEM,CON,150,cabaña,,a,0.4374,,293.2217,293.2218,0.652777778,0.241666667,0,0,0,,0,109,109,416,1,,,,
,,,,,,d06d70ff0280939457524cb6,66a626ef09d4e21e1a8894ec,6734d69d103e4e2336cde56f,2024-11-13_18h15.24.749,Tarea de género gramatical,2024.2.2,Win32,59.88023952,,,,,,,,,,,,,,,,,,,,,,,293.2239,294.8717,a,0,[],[],[],[],[],[],[],0.9707,0,294.873,295.3717,,,,,,989,MAS,AGR,150,maíz,el,l,0.9707,,295.3742,295.3758,0.652777778,0.241666667,0,0,0,,0,110,110,88,1,,,,
,,,,,,d06d70ff0280939457524cb6,66a626ef09d4e21e1a8894ec,6734d69d103e4e2336cde56f,2024-11-13_18h15.24.749,Tarea de género gramatical,2024.2.2,Win32,59.88023952,,,,,,,,,,,,,,,,,,,,,,,295.3773,296.8551,l,1,[],[],[],[],[],[],[],0.8101,1,296.8565,297.3551,,,,,,1307,MAS,AGR,150,jurado,el,l,0.8101,,297.3553,297.3553,0.652777778,0.241666667,0,0,0,,0,111,111,406,1,,,,
,,,,,,d06d70ff0280939457524cb6,66a626ef09d4e21e1a8894ec,6734d69d103e4e2336cde56f,2024-11-13_18h15.24.749,Tarea de género gramatical,2024.2.2,Win32,59.88023952,,,,,,,,,,,,,,,,,,,,,,,297.3575,299.0219,a,1,[],[],[],[],[],[],[],0.9935,1,299.0221,299.522,,,,,,1189,FEM,DIS,150,tabla,el,a,0.9935,,299.5221,299.5223,0.652777778,0.241666667,0,0,0,,0,112,112,288,1,,,,
,,,,,,d06d70ff0280939457524cb6,66a626ef09d4e21e1a8894ec,6734d69d103e4e2336cde56f,2024-11-13_18h15.24.749,Tarea de género gramatical,2024.2.2,Win32,59.88023952,,,,,,,,,,,,,,,,,,,,,,,299.5243,301.0054,l,1,[],[],[],[],[],[],[],0.8125,1,301.0058,301.5055,,,,,,1193,MAS,AGR,150,patio,el,l,0.8125,,301.5055,301.5057,0.652777778,0.312962963,0,0,0,,0,113,113,292,1,,,,
,,,,,,d06d70ff0280939457524cb6,66a626ef09d4e21e1a8894ec,6734d69d103e4e2336cde56f,2024-11-13_18h15.24.749,Tarea de género gramatical,2024.2.2,Win32,59.88023952,,,,,,,,,,,,,,,,,,,,,,,301.5076,302.7887,l,1,[],[],[],[],[],[],[],0.6042,1,302.7889,303.2889,,,,,,954,MAS,CON,150,humo,,l,0.6042,,303.2914,303.2931,0.652777778,0.312962963,0,0,0,,0,114,114,53,1,,,,
,,,,,,d06d70ff0280939457524cb6,66a626ef09d4e21e1a8894ec,6734d69d103e4e2336cde56f,2024-11-13_18h15.24.749,Tarea de género gramatical,2024.2.2,Win32,59.88023952,,,,,,,,,,,,,,,,,,,,,,,303.2946,304.4222,l,0,[],[],[],[],[],[],[],0.4609,0,304.4237,304.9222,,,,,,1051,FEM,DIS,150,noche,el,a,0.4609,,304.9223,304.9224,0.652777778,0.312962963,0,0,0,,0,115,115,150,1,,,,
,,,,,,d06d70ff0280939457524cb6,66a626ef09d4e21e1a8894ec,6734d69d103e4e2336cde56f,2024-11-13_18h15.24.749,Tarea de género gramatical,2024.2.2,Win32,59.88023952,,,,,,,,,,,,,,,,,,,,,,,304.9244,306.1392,l,1,[],[],[],[],[],[],[],0.5388,1,306.1408,306.6391,,,,,,1049,MAS,AGR,150,nudo,el,l,0.5388,,306.6392,306.6393,0.652777778,0.312962963,0,0,0,,0,116,116,148,1,,,,
,,,,,,d06d70ff0280939457524cb6,66a626ef09d4e21e1a8894ec,6734d69d103e4e2336cde56f,2024-11-13_18h15.24.749,Tarea de género gramatical,2024.2.2,Win32,59.88023952,,,,,,,,,,,,,,,,,,,,,,,306.6414,307.8724,a,1,[],[],[],[],[],[],[],0.5574,1,307.8726,308.3725,,,,,,1243,FEM,DIS,150,trampa,el,a,0.5574,,308.3726,308.3728,0.652777778,0.312962963,0,0,0,,0,117,117,342,1,,,,
,,,,,,d06d70ff0280939457524cb6,66a626ef09d4e21e1a8894ec,6734d69d103e4e2336cde56f,2024-11-13_18h15.24.749,Tarea de género gramatical,2024.2.2,Win32,59.88023952,,,,,,,,,,,,,,,,,,,,,,,308.3748,309.5565,a,1,[],[],[],[],[],[],[],0.514,1,309.5567,310.0559,,,,,,943,FEM,DIS,150,nena,el,a,0.514,,310.0559,310.0561,0.652777778,0.312962963,0,0,0,,0,118,118,42,1,,,,
,,,,,,d06d70ff0280939457524cb6,66a626ef09d4e21e1a8894ec,6734d69d103e4e2336cde56f,2024-11-13_18h15.24.749,Tarea de género gramatical,2024.2.2,Win32,59.88023952,,,,,,,,,,,,,,,,,,,,,,,310.0582,311.1559,l,1,[],[],[],[],[],[],[],0.419,1,311.156,311.6561,,,,,,948,MAS,CON,150,loco,,l,0.419,,311.6585,311.6599,0.652777778,0.312962963,0,0,0,,0,119,119,47,1,,,,
,,,,,,d06d70ff0280939457524cb6,66a626ef09d4e21e1a8894ec,6734d69d103e4e2336cde56f,2024-11-13_18h15.24.749,Tarea de género gramatical,2024.2.2,Win32,59.88023952,,,,,,,,,,,,,,,,,,,,,,,311.6614,312.7728,a,1,[],[],[],[],[],[],[],0.4378,1,312.773,313.2728,,,,,,1064,FEM,AGR,150,novia,la,a,0.4378,,313.2728,313.2731,0.652777778,0.312962963,0,0,0,,0,120,120,163,1,,,,
,,,,,,d06d70ff0280939457524cb6,66a626ef09d4e21e1a8894ec,6734d69d103e4e2336cde56f,2024-11-13_18h15.24.749,Tarea de género gramatical,2024.2.2,Win32,59.88023952,,,,,,,,,,,,,,,,,,,,,,,313.2751,314.3895,a,1,[],[],[],[],[],[],[],0.445,1,314.3899,314.8892,,,,,,1316,FEM,AGR,150,colina,la,a,0.445,,314.8892,314.8893,0.652777778,0.312962963,0,0,0,,0,121,121,415,1,,,,
,,,,,,d06d70ff0280939457524cb6,66a626ef09d4e21e1a8894ec,6734d69d103e4e2336cde56f,2024-11-13_18h15.24.749,Tarea de género gramatical,2024.2.2,Win32,59.88023952,,,,,,,,,,,,,,,,,,,,,,,314.8906,316.0228,a,1,[],[],[],[],[],[],[],0.4512,1,316.023,316.5229,,,,,,1346,FEM,AGR,150,bañera,la,a,0.4512,,316.523,316.5231,0.652777778,0.312962963,0,0,0,,0,122,122,445,1,,,,
,,,,,,d06d70ff0280939457524cb6,66a626ef09d4e21e1a8894ec,6734d69d103e4e2336cde56f,2024-11-13_18h15.24.749,Tarea de género gramatical,2024.2.2,Win32,59.88023952,,,,,,,,,,,,,,,,,,,,,,,316.5252,317.7064,a,1,[],[],[],[],[],[],[],0.5071,1,317.7066,318.2064,,,,,,1339,FEM,DIS,150,toalla,el,a,0.5071,,318.2088,318.2103,0.652777778,0.312962963,0,0,0,,0,123,123,438,1,,,,
,,,,,,d06d70ff0280939457524cb6,66a626ef09d4e21e1a8894ec,6734d69d103e4e2336cde56f,2024-11-13_18h15.24.749,Tarea de género gramatical,2024.2.2,Win32,59.88023952,,,,,,,,,,,,,,,,,,,,,,,318.2117,319.7898,l,0,[],[],[],[],[],[],[],0.9115,0,319.7913,320.2897,,,,,,1118,FEM,AGR,150,nieve,la,a,0.9115,,320.2898,320.29,0.652777778,0.312962963,0,0,0,,0,124,124,217,1,,,,
,,,,,,d06d70ff0280939457524cb6,66a626ef09d4e21e1a8894ec,6734d69d103e4e2336cde56f,2024-11-13_18h15.24.749,Tarea de género gramatical,2024.2.2,Win32,59.88023952,,,,,,,,,,,,,,,,,,,,,,,320.292,321.4066,a,1,[],[],[],[],[],[],[],0.4414,1,321.408,321.9066,,,,,,1053,FEM,CON,150,mujer,,a,0.4414,,321.9067,321.9068,0.652777778,0.312962963,0,0,0,,0,125,125,152,1,,,,
,,,,,,d06d70ff0280939457524cb6,66a626ef09d4e21e1a8894ec,6734d69d103e4e2336cde56f,2024-11-13_18h15.24.749,Tarea de género gramatical,2024.2.2,Win32,59.88023952,,,,,,,,,,,,,,,,,,,,,,,321.9089,322.9569,l,1,[],[],[],[],[],[],[],0.3733,1,322.957,323.4563,,,,,,1012,MAS,DIS,150,reto,la,l,0.3733,,323.4563,323.4564,0.652777778,0.312962963,0,0,0,,0,126,126,111,1,,,,
,,,,,,d06d70ff0280939457524cb6,66a626ef09d4e21e1a8894ec,6734d69d103e4e2336cde56f,2024-11-13_18h15.24.749,Tarea de género gramatical,2024.2.2,Win32,59.88023952,,,,,,,,,,,,,,,,,,,,,,,323.4571,324.5901,l,0,[],[],[],[],[],[],[],0.4554,0,324.5915,325.09,,,,,,938,FEM,AGR,150,obra,la,a,0.4554,,325.0902,325.0903,0.652777778,0.312962963,0,0,0,,0,127,127,37,1,,,,
,,,,,,d06d70ff0280939457524cb6,66a626ef09d4e21e1a8894ec,6734d69d103e4e2336cde56f,2024-11-13_18h15.24.749,Tarea de género gramatical,2024.2.2,Win32,59.88023952,,,,,,,,,,,,,,,,,,,,,,,325.0925,326.7069,l,1,[],[],[],[],[],[],[],0.9341,1,326.7082,327.2068,,,,,,1085,MAS,AGR,150,sueño,el,l,0.9341,,327.2092,327.2107,0.619444444,0.308333333,0,0,0,,0,128,128,184,1,,,,
,,,,,,d06d70ff0280939457524cb6,66a626ef09d4e21e1a8894ec,6734d69d103e4e2336cde56f,2024-11-13_18h15.24.749,Tarea de género gramatical,2024.2.2,Win32,59.88023952,,,,,,,,,,,,,,,,,,,,,,,327.2121,328.5902,l,1,[],[],[],[],[],[],[],0.7058,1,328.5904,329.09,,,,,,977,MAS,AGR,150,pico,el,l,0.7058,,329.0901,329.0903,0.619444444,0.308333333,0,0,0,,0,129,129,76,1,,,,
,,,,,,d06d70ff0280939457524cb6,66a626ef09d4e21e1a8894ec,6734d69d103e4e2336cde56f,2024-11-13_18h15.24.749,Tarea de género gramatical,2024.2.2,Win32,59.88023952,,,,,,,,,,,,,,,,,,,,,,,329.0916,330.5404,a,1,[],[],[],[],[],[],[],0.7753,1,330.5406,331.0404,,,,,,1225,FEM,DIS,150,tierra,el,a,0.7753,,331.0404,331.0406,0.619444444,0.308333333,0,0,0,,0,130,130,324,1,,,,
,,,,,,d06d70ff0280939457524cb6,66a626ef09d4e21e1a8894ec,6734d69d103e4e2336cde56f,2024-11-13_18h15.24.749,Tarea de género gramatical,2024.2.2,Win32,59.88023952,,,,,,,,,,,,,,,,,,,,,,,331.0429,332.2246,l,1,[],[],[],[],[],[],[],0.5121,1,332.2248,332.7241,,,,,,1114,MAS,DIS,150,fondo,la,l,0.5121,,332.7241,332.7244,0.619444444,0.308333333,0,0,0,,0,131,131,213,1,,,,
,,,,,,d06d70ff0280939457524cb6,66a626ef09d4e21e1a8894ec,6734d69d103e4e2336cde56f,2024-11-13_18h15.24.749,Tarea de género gramatical,2024.2.2,Win32,59.88023952,,,,,,,,,,,,,,,,,,,,,,,332.7265,334.1074,l,1,[],[],[],[],[],[],[],0.7089,1,334.1075,334.6072,,,,,,1080,MAS,CON,150,fuego,,l,0.7089,,334.6097,334.6111,0.619444444,0.308333333,0,0,0,,0,132,132,179,1,,,,
,,,,,,d06d70ff0280939457524cb6,66a626ef09d4e21e1a8894ec,6734d69d103e4e2336cde56f,2024-11-13_18h15.24.749,Tarea de género gramatical,2024.2.2,Win32,59.88023952,,,,,,,,,,,,,,,,,,,,,,,334.6125,335.8739,a,1,[],[],[],[],[],[],[],0.5866,1,335.8741,336.3735,,,,,,1345,FEM,DIS,150,bondad,el,a,0.5866,,336.3736,336.3736,0.619444444,0.308333333,0,0,0,,0,133,133,444,1,,,,
,,,,,,d06d70ff0280939457524cb6,66a626ef09d4e21e1a8894ec,6734d69d103e4e2336cde56f,2024-11-13_18h15.24.749,Tarea de género gramatical,2024.2.2,Win32,59.88023952,,,,,,,,,,,,,,,,,,,,,,,336.3746,337.5075,a,1,[],[],[],[],[],[],[],0.451,1,337.5076,338.0072,,,,,,913,FEM,DIS,150,hija,el,a,0.451,,338.0073,338.0074,0.619444444,0.308333333,0,0,0,,0,134,134,12,1,,,,
,,,,,,d06d70ff0280939457524cb6,66a626ef09d4e21e1a8894ec,6734d69d103e4e2336cde56f,2024-11-13_18h15.24.749,Tarea de género gramatical,2024.2.2,Win32,59.88023952,,,,,,,,,,,,,,,,,,,,,,,338.0087,339.1241,l,0,[],[],[],[],[],[],[],0.4335,0,339.1257,339.6243,,,,,,1059,FEM,CON,150,clase,,a,0.4335,,339.6244,339.6246,0.619444444,0.308333333,0,0,0,,0,135,135,158,1,,,,
,,,,,,d06d70ff0280939457524cb6,66a626ef09d4e21e1a8894ec,6734d69d103e4e2336cde56f,2024-11-13_18h15.24.749,Tarea de género gramatical,2024.2.2,Win32,59.88023952,,,,,,,,,,,,,,,,,,,,,,,339.6266,340.7077,a,1,[],[],[],[],[],[],[],0.4005,1,340.7089,341.2072,,,,,,1177,FEM,DIS,150,plaza,el,a,0.4005,,341.2072,341.2073,0.619444444,0.308333333,0,0,0,,0,136,136,276,1,,,,
,,,,,,d06d70ff0280939457524cb6,66a626ef09d4e21e1a8894ec,6734d69d103e4e2336cde56f,2024-11-13_18h15.24.749,Tarea de género gramatical,2024.2.2,Win32,59.88023952,,,,,,,,,,,,,,,,,,,,,,,341.2083,342.3077,a,1,[],[],[],[],[],[],[],0.4245,1,342.3079,342.8078,,,,,,1173,FEM,CON,150,tarta,,a,0.4245,,342.8103,342.8124,0.619444444,0.308333333,0,0,0,,0,137,137,272,1,,,,
,,,,,,d06d70ff0280939457524cb6,66a626ef09d4e21e1a8894ec,6734d69d103e4e2336cde56f,2024-11-13_18h15.24.749,Tarea de género gramatical,2024.2.2,Win32,59.88023952,,,,,,,,,,,,,,,,,,,,,,,342.814,343.8745,l,1,[],[],[],[],[],[],[],0.3852,1,343.8747,344.3744,,,,,,910,MAS,DIS,150,niño,la,l,0.3852,,344.3744,344.3747,0.619444444,0.308333333,0,0,0,,0,138,138,9,1,,,,
,,,,,,d06d70ff0280939457524cb6,66a626ef09d4e21e1a8894ec,6734d69d103e4e2336cde56f,2024-11-13_18h15.24.749,Tarea de género gramatical,2024.2.2,Win32,59.88023952,,,,,,,,,,,,,,,,,,,,,,,344.3768,345.5579,l,1,[],[],[],[],[],[],[],0.5004,1,345.558,346.0579,,,,,,1132,MAS,DIS,150,calor,la,l,0.5004,,346.058,346.0581,0.619444444,0.308333333,0,0,0,,0,139,139,231,1,,,,
,,,,,,d06d70ff0280939457524cb6,66a626ef09d4e21e1a8894ec,6734d69d103e4e2336cde56f,2024-11-13_18h15.24.749,Tarea de género gramatical,2024.2.2,Win32,59.88023952,,,,,,,,,,,,,,,,,,,,,,,346.0602,347.2913,l,1,[],[],[],[],[],[],[],0.5503,1,347.2915,347.7913,,,,,,1313,MAS,AGR,150,diario,el,l,0.5503,,347.7913,347.7916,0.619444444,0.308333333,0,0,0,,0,140,140,412,1,,,,
,,,,,,d06d70ff0280939457524cb6,66a626ef09d4e21e1a8894ec,6734d69d103e4e2336cde56f,2024-11-13_18h15.24.749,Tarea de género gramatical,2024.2.2,Win32,59.88023952,,,,,,,,,,,,,,,,,,,,,,,347.7936,348.8915,a,1,[],[],[],[],[],[],[],0.4227,1,348.8917,349.3914,,,,,,1022,FEM,AGR,150,loca,la,a,0.4227,,349.3938,349.3953,0.619444444,0.308333333,0,0,0,,0,141,141,121,1,,,,
,,,,,,d06d70ff0280939457524cb6,66a626ef09d4e21e1a8894ec,6734d69d103e4e2336cde56f,2024-11-13_18h15.24.749,Tarea de género gramatical,2024.2.2,Win32,59.88023952,,,,,,,,,,,,,,,,,,,,,,,349.3968,351.2582,a,1,[],[],[],[],[],[],[],1.1898,1,351.2584,351.758,,,,,,1045,FEM,DIS,150,bota,el,a,1.1898,,351.7581,351.7582,0.619444444,0.308333333,0,0,0,,0,142,142,144,1,,,,
,,,,,,d06d70ff0280939457524cb6,66a626ef09d4e21e1a8894ec,6734d69d103e4e2336cde56f,2024-11-13_18h15.24.749,Tarea de género gramatical,2024.2.2,Win32,59.88023952,,,,,,,,,,,,,,,,,,,,,,,351.7597,353.0923,a,1,[],[],[],[],[],[],[],0.6626,1,353.0925,353.5914,,,,,,1226,FEM,AGR,150,música,la,a,0.6626,,353.5914,353.5915,0.619444444,0.308333333,0,0,0,,0,143,143,325,1,,,,
,,,,,,d06d70ff0280939457524cb6,66a626ef09d4e21e1a8894ec,6734d69d103e4e2336cde56f,2024-11-13_18h15.24.749,Tarea de género gramatical,2024.2.2,Win32,59.88023952,,,,,,,,,,,,,,,,,,,,,,,353.5929,354.7251,a,1,[],[],[],[],[],[],[],0.4543,1,354.7252,355.2251,,,,,,932,FEM,AGR,150,caja,la,a,0.4543,,355.2252,355.2255,0.619444444,0.308333333,0,0,0,,0,144,144,31,1,,,,
,,,,,,d06d70ff0280939457524cb6,66a626ef09d4e21e1a8894ec,6734d69d103e4e2336cde56f,2024-11-13_18h15.24.749,Tarea de género gramatical,2024.2.2,Win32,59.88023952,,,,,,,,,,,,,,,,,,,,,,,355.2275,356.3252,a,1,[],[],[],[],[],[],[],0.4195,1,356.3253,356.8252,,,,,,1255,FEM,DIS,150,mirada,el,a,0.4195,,356.8253,356.8254,0.619444444,0.308333333,0,0,0,,0,145,145,354,1,,,,
,,,,,,d06d70ff0280939457524cb6,66a626ef09d4e21e1a8894ec,6734d69d103e4e2336cde56f,2024-11-13_18h15.24.749,Tarea de género gramatical,2024.2.2,Win32,59.88023952,,,,,,,,,,,,,,,,,,,,,,,356.8275,357.892,a,1,[],[],[],[],[],[],[],0.3888,1,357.8921,358.3919,,,,,,1105,FEM,DIS,150,reina,el,a,0.3888,,358.3945,358.3962,0.619444444,0.308333333,0,0,0,,0,146,146,204,1,,,,
,,,,,,d06d70ff0280939457524cb6,66a626ef09d4e21e1a8894ec,6734d69d103e4e2336cde56f,2024-11-13_18h15.24.749,Tarea de género gramatical,2024.2.2,Win32,59.88023952,,,,,,,,,,,,,,,,,,,,,,,358.3978,359.492,l,1,[],[],[],[],[],[],[],0.4168,1,359.4921,359.9917,,,,,,947,MAS,AGR,150,olor,el,l,0.4168,,359.9917,359.9918,0.619444444,0.308333333,0,0,0,,0,147,147,46,1,,,,
,,,,,,d06d70ff0280939457524cb6,66a626ef09d4e21e1a8894ec,6734d69d103e4e2336cde56f,2024-11-13_18h15.24.749,Tarea de género gramatical,2024.2.2,Win32,59.88023952,,,,,,,,,,,,,,,,,,,,,,,359.9931,361.0422,l,1,[],[],[],[],[],[],[],0.3689,1,361.0423,361.5421,,,,,,1103,MAS,AGR,150,novio,el,l,0.3689,,361.5422,361.5423,0.619444444,0.308333333,0,0,0,,0,148,148,202,1,,,,
,,,,,,d06d70ff0280939457524cb6,66a626ef09d4e21e1a8894ec,6734d69d103e4e2336cde56f,2024-11-13_18h15.24.749,Tarea de género gramatical,2024.2.2,Win32,59.88023952,,,,,,,,,,,,,,,,,,,,,,,361.5443,362.6589,a,1,[],[],[],[],[],[],[],0.4396,1,362.659,363.1589,,,,,,1153,FEM,DIS,150,aldea,el,a,0.4396,,363.1589,363.1591,0.619444444,0.308333333,0,0,0,,0,149,149,252,1,,,,
,,,,,,d06d70ff0280939457524cb6,66a626ef09d4e21e1a8894ec,6734d69d103e4e2336cde56f,2024-11-13_18h15.24.749,Tarea de género gramatical,2024.2.2,Win32,59.88023952,,,,,,,,,,,,,,,,,,,,,,,363.1612,364.259,a,1,[],[],[],[],[],[],[],0.4226,1,364.2592,364.7591,,,,,,1268,FEM,AGR,150,gracia,la,a,0.4226,,364.7617,389.2441,0.512962963,0.27037037,0,0,0,space,0,150,150,367,1,24.4593,,,
,,,,,,d06d70ff0280939457524cb6,66a626ef09d4e21e1a8894ec,6734d69d103e4e2336cde56f,2024-11-13_18h15.24.749,Tarea de género gramatical,2024.2.2,Win32,59.88023952,,,,,,,,,,,,,,,,,,,,,,,389.2461,390.3601,l,1,[],[],[],[],[],[],[],0.4357,1,390.3602,390.8607,,,,,,1120,MAS,DIS,150,huevo,la,l,0.4357,,390.8608,390.8611,0.512962963,0.27037037,0,0,0,,0,151,151,219,1,,,,
,,,,,,d06d70ff0280939457524cb6,66a626ef09d4e21e1a8894ec,6734d69d103e4e2336cde56f,2024-11-13_18h15.24.749,Tarea de género gramatical,2024.2.2,Win32,59.88023952,,,,,,,,,,,,,,,,,,,,,,,390.863,392.0439,l,1,[],[],[],[],[],[],[],0.5072,1,392.044,392.5439,,,,,,1162,MAS,DIS,150,video,la,l,0.5072,,392.5439,392.5442,0.512962963,0.27037037,0,0,0,,0,152,152,261,1,,,,
,,,,,,d06d70ff0280939457524cb6,66a626ef09d4e21e1a8894ec,6734d69d103e4e2336cde56f,2024-11-13_18h15.24.749,Tarea de género gramatical,2024.2.2,Win32,59.88023952,,,,,,,,,,,,,,,,,,,,,,,392.5462,393.7104,l,1,[],[],[],[],[],[],[],0.4833,1,393.7105,394.2108,,,,,,1343,MAS,AGR,150,templo,el,l,0.4833,,394.2109,394.211,0.512962963,0.27037037,0,0,0,,0,153,153,442,1,,,,
,,,,,,d06d70ff0280939457524cb6,66a626ef09d4e21e1a8894ec,6734d69d103e4e2336cde56f,2024-11-13_18h15.24.749,Tarea de género gramatical,2024.2.2,Win32,59.88023952,,,,,,,,,,,,,,,,,,,,,,,394.213,395.2607,a,1,[],[],[],[],[],[],[],0.3697,1,395.2609,395.7605,,,,,,939,FEM,CON,150,luna,,a,0.3697,,395.7605,395.7607,0.512962963,0.27037037,0,0,0,,0,154,154,38,1,,,,
,,,,,,d06d70ff0280939457524cb6,66a626ef09d4e21e1a8894ec,6734d69d103e4e2336cde56f,2024-11-13_18h15.24.749,Tarea de género gramatical,2024.2.2,Win32,59.88023952,,,,,,,,,,,,,,,,,,,,,,,395.762,397.2441,a,1,[],[],[],[],[],[],[],0.8093,1,397.2443,397.7442,,,,,,1267,FEM,DIS,150,teoría,el,a,0.8093,,397.7465,397.7483,0.512962963,0.27037037,0,0,0,,0,155,155,366,1,,,,
,,,,,,d06d70ff0280939457524cb6,66a626ef09d4e21e1a8894ec,6734d69d103e4e2336cde56f,2024-11-13_18h15.24.749,Tarea de género gramatical,2024.2.2,Win32,59.88023952,,,,,,,,,,,,,,,,,,,,,,,397.7499,398.8277,a,1,[],[],[],[],[],[],[],0.4002,1,398.8277,399.3276,,,,,,1179,FEM,CON,150,selva,,a,0.4002,,399.3277,399.3278,0.512962963,0.27037037,0,0,0,,0,156,156,278,1,,,,
,,,,,,d06d70ff0280939457524cb6,66a626ef09d4e21e1a8894ec,6734d69d103e4e2336cde56f,2024-11-13_18h15.24.749,Tarea de género gramatical,2024.2.2,Win32,59.88023952,,,,,,,,,,,,,,,,,,,,,,,399.3298,400.461,l,1,[],[],[],[],[],[],[],0.4533,1,400.4611,400.9609,,,,,,1302,MAS,CON,150,ladrón,,l,0.4533,,400.9611,400.9613,0.512962963,0.27037037,0,0,0,,0,157,157,401,1,,,,
,,,,,,d06d70ff0280939457524cb6,66a626ef09d4e21e1a8894ec,6734d69d103e4e2336cde56f,2024-11-13_18h15.24.749,Tarea de género gramatical,2024.2.2,Win32,59.88023952,,,,,,,,,,,,,,,,,,,,,,,400.9633,402.2111,a,1,[],[],[],[],[],[],[],0.5683,1,402.2112,402.7111,,,,,,1335,FEM,CON,150,niebla,,a,0.5683,,402.7112,402.7114,0.512962963,0.27037037,0,0,0,,0,158,158,434,1,,,,
,,,,,,d06d70ff0280939457524cb6,66a626ef09d4e21e1a8894ec,6734d69d103e4e2336cde56f,2024-11-13_18h15.24.749,Tarea de género gramatical,2024.2.2,Win32,59.88023952,,,,,,,,,,,,,,,,,,,,,,,402.7135,403.7778,a,1,[],[],[],[],[],[],[],0.3908,1,403.778,404.2779,,,,,,1323,FEM,CON,150,poesía,,a,0.3908,,404.2804,404.2819,0.512962963,0.27037037,0,0,0,,0,159,159,422,1,,,,
,,,,,,d06d70ff0280939457524cb6,66a626ef09d4e21e1a8894ec,6734d69d103e4e2336cde56f,2024-11-13_18h15.24.749,Tarea de género gramatical,2024.2.2,Win32,59.88023952,,,,,,,,,,,,,,,,,,,,,,,404.2834,405.5948,a,1,[],[],[],[],[],[],[],0.6344,1,405.5949,406.0946,,,,,,1040,FEM,AGR,150,mula,la,a,0.6344,,406.0947,406.0948,0.512962963,0.27037037,0,0,0,,0,160,160,139,1,,,,
,,,,,,d06d70ff0280939457524cb6,66a626ef09d4e21e1a8894ec,6734d69d103e4e2336cde56f,2024-11-13_18h15.24.749,Tarea de género gramatical,2024.2.2,Win32,59.88023952,,,,,,,,,,,,,,,,,,,,,,,406.097,407.2114,l,1,[],[],[],[],[],[],[],0.4372,1,407.2115,407.7114,,,,,,1061,MAS,AGR,150,chico,el,l,0.4372,,407.7114,407.7115,0.512962963,0.27037037,0,0,0,,0,161,161,160,1,,,,
,,,,,,d06d70ff0280939457524cb6,66a626ef09d4e21e1a8894ec,6734d69d103e4e2336cde56f,2024-11-13_18h15.24.749,Tarea de género gramatical,2024.2.2,Win32,59.88023952,,,,,,,,,,,,,,,,,,,,,,,407.7137,408.7781,a,1,[],[],[],[],[],[],[],0.3906,1,408.7783,409.2781,,,,,,1201,FEM,DIS,150,verdad,el,a,0.3906,,409.2782,409.2784,0.512962963,0.27037037,0,0,0,,0,162,162,300,1,,,,
,,,,,,d06d70ff0280939457524cb6,66a626ef09d4e21e1a8894ec,6734d69d103e4e2336cde56f,2024-11-13_18h15.24.749,Tarea de género gramatical,2024.2.2,Win32,59.88023952,,,,,,,,,,,,,,,,,,,,,,,409.2803,410.3117,l,1,[],[],[],[],[],[],[],0.3505,1,410.3119,410.8113,,,,,,1169,MAS,AGR,150,primo,el,l,0.3505,,410.8114,410.8115,0.512962963,0.27037037,0,0,0,,0,163,163,268,1,,,,
,,,,,,d06d70ff0280939457524cb6,66a626ef09d4e21e1a8894ec,6734d69d103e4e2336cde56f,2024-11-13_18h15.24.749,Tarea de género gramatical,2024.2.2,Win32,59.88023952,,,,,,,,,,,,,,,,,,,,,,,410.8129,411.9283,a,1,[],[],[],[],[],[],[],0.4408,1,411.9285,412.4283,,,,,,1172,FEM,AGR,150,oreja,la,a,0.4408,,412.4307,412.4322,0.512962963,0.27037037,0,0,0,,0,164,164,271,1,,,,
,,,,,,d06d70ff0280939457524cb6,66a626ef09d4e21e1a8894ec,6734d69d103e4e2336cde56f,2024-11-13_18h15.24.749,Tarea de género gramatical,2024.2.2,Win32,59.88023952,,,,,,,,,,,,,,,,,,,,,,,412.4337,413.8284,a,1,[],[],[],[],[],[],[],0.7279,1,413.8285,414.3286,,,,,,991,FEM,DIS,150,hoja,el,a,0.7279,,414.3287,414.329,0.512962963,0.27037037,0,0,0,,0,165,165,90,1,,,,
,,,,,,d06d70ff0280939457524cb6,66a626ef09d4e21e1a8894ec,6734d69d103e4e2336cde56f,2024-11-13_18h15.24.749,Tarea de género gramatical,2024.2.2,Win32,59.88023952,,,,,,,,,,,,,,,,,,,,,,,414.331,415.4952,l,1,[],[],[],[],[],[],[],0.4914,1,415.4953,415.9952,,,,,,1222,MAS,DIS,150,minuto,la,l,0.4914,,415.9953,415.9955,0.512962963,0.27037037,0,0,0,,0,166,166,321,1,,,,
,,,,,,d06d70ff0280939457524cb6,66a626ef09d4e21e1a8894ec,6734d69d103e4e2336cde56f,2024-11-13_18h15.24.749,Tarea de género gramatical,2024.2.2,Win32,59.88023952,,,,,,,,,,,,,,,,,,,,,,,415.9975,417.0285,l,1,[],[],[],[],[],[],[],0.3528,1,417.0287,417.5286,,,,,,1216,MAS,DIS,150,cuerpo,la,l,0.3528,,417.5286,417.5289,0.512962963,0.27037037,0,0,0,,0,167,167,315,1,,,,
,,,,,,d06d70ff0280939457524cb6,66a626ef09d4e21e1a8894ec,6734d69d103e4e2336cde56f,2024-11-13_18h15.24.749,Tarea de género gramatical,2024.2.2,Win32,59.88023952,,,,,,,,,,,,,,,,,,,,,,,417.531,418.562,a,1,[],[],[],[],[],[],[],0.3555,1,418.5621,419.0619,,,,,,1003,FEM,DIS,150,fama,el,a,0.3555,,419.0643,419.0657,0.512962963,0.27037037,0,0,0,,0,168,168,102,1,,,,
,,,,,,d06d70ff0280939457524cb6,66a626ef09d4e21e1a8894ec,6734d69d103e4e2336cde56f,2024-11-13_18h15.24.749,Tarea de género gramatical,2024.2.2,Win32,59.88023952,,,,,,,,,,,,,,,,,,,,,,,419.0671,420.1285,a,1,[],[],[],[],[],[],[],0.3898,1,420.1286,420.6285,,,,,,1004,FEM,AGR,150,vela,la,a,0.3898,,420.6285,420.6287,0.512962963,0.27037037,0,0,0,,0,169,169,103,1,,,,
,,,,,,d06d70ff0280939457524cb6,66a626ef09d4e21e1a8894ec,6734d69d103e4e2336cde56f,2024-11-13_18h15.24.749,Tarea de género gramatical,2024.2.2,Win32,59.88023952,,,,,,,,,,,,,,,,,,,,,,,420.63,421.7455,l,1,[],[],[],[],[],[],[],0.4346,1,421.7457,422.2455,,,,,,1258,MAS,DIS,150,motivo,la,l,0.4346,,422.2456,422.2457,0.512962963,0.27037037,0,0,0,,0,170,170,357,1,,,,
,,,,,,d06d70ff0280939457524cb6,66a626ef09d4e21e1a8894ec,6734d69d103e4e2336cde56f,2024-11-13_18h15.24.749,Tarea de género gramatical,2024.2.2,Win32,59.88023952,,,,,,,,,,,,,,,,,,,,,,,422.2478,423.2789,a,1,[],[],[],[],[],[],[],0.3586,1,423.2792,423.7786,,,,,,1107,FEM,CON,150,playa,,a,0.3586,,423.7786,423.7787,0.512962963,0.27037037,0,0,0,,0,171,171,206,1,,,,
,,,,,,d06d70ff0280939457524cb6,66a626ef09d4e21e1a8894ec,6734d69d103e4e2336cde56f,2024-11-13_18h15.24.749,Tarea de género gramatical,2024.2.2,Win32,59.88023952,,,,,,,,,,,,,,,,,,,,,,,423.78,424.8953,l,1,[],[],[],[],[],[],[],0.4333,1,424.8954,425.3957,,,,,,1264,MAS,DIS,150,viento,la,l,0.4333,,425.3958,425.396,0.512962963,0.27037037,0,0,0,,0,172,172,363,1,,,,
,,,,,,d06d70ff0280939457524cb6,66a626ef09d4e21e1a8894ec,6734d69d103e4e2336cde56f,2024-11-13_18h15.24.749,Tarea de género gramatical,2024.2.2,Win32,59.88023952,,,,,,,,,,,,,,,,,,,,,,,425.398,426.4965,a,0,[],[],[],[],[],[],[],0.4294,0,426.4978,426.9958,,,,,,1044,MAS,CON,150,amor,,l,0.4294,,426.9986,427,0.512962963,0.27037037,0,0,0,,0,173,173,143,1,,,,
,,,,,,d06d70ff0280939457524cb6,66a626ef09d4e21e1a8894ec,6734d69d103e4e2336cde56f,2024-11-13_18h15.24.749,Tarea de género gramatical,2024.2.2,Win32,59.88023952,,,,,,,,,,,,,,,,,,,,,,,427.0014,428.3292,a,1,[],[],[],[],[],[],[],0.6526,1,428.3306,428.8292,,,,,,1137,FEM,CON,150,ducha,,a,0.6526,,428.8293,428.8294,0.512962963,0.27037037,0,0,0,,0,174,174,236,1,,,,
,,,,,,d06d70ff0280939457524cb6,66a626ef09d4e21e1a8894ec,6734d69d103e4e2336cde56f,2024-11-13_18h15.24.749,Tarea de género gramatical,2024.2.2,Win32,59.88023952,,,,,,,,,,,,,,,,,,,,,,,428.8315,429.9293,a,1,[],[],[],[],[],[],[],0.4186,1,429.9294,430.4297,,,,,,1039,FEM,DIS,150,pipa,el,a,0.4186,,430.4298,430.4299,0.512962963,0.27037037,0,0,0,,0,175,175,138,1,,,,
,,,,,,d06d70ff0280939457524cb6,66a626ef09d4e21e1a8894ec,6734d69d103e4e2336cde56f,2024-11-13_18h15.24.749,Tarea de género gramatical,2024.2.2,Win32,59.88023952,,,,,,,,,,,,,,,,,,,,,,,430.4318,432.0295,l,0,[],[],[],[],[],[],[],0.9171,0,432.0308,432.5296,,,,,,1219,FEM,DIS,150,sangre,el,a,0.9171,,432.5296,432.5299,0.512962963,0.27037037,0,0,0,,0,176,176,318,1,,,,
,,,,,,d06d70ff0280939457524cb6,66a626ef09d4e21e1a8894ec,6734d69d103e4e2336cde56f,2024-11-13_18h15.24.749,Tarea de género gramatical,2024.2.2,Win32,59.88023952,,,,,,,,,,,,,,,,,,,,,,,432.532,433.8628,l,1,[],[],[],[],[],[],[],0.6507,1,433.8642,434.363,,,,,,978,MAS,CON,150,oído,,l,0.6507,,434.3655,434.3669,0.512962963,0.27037037,0,0,0,,0,177,177,77,1,,,,
,,,,,,d06d70ff0280939457524cb6,66a626ef09d4e21e1a8894ec,6734d69d103e4e2336cde56f,2024-11-13_18h15.24.749,Tarea de género gramatical,2024.2.2,Win32,59.88023952,,,,,,,,,,,,,,,,,,,,,,,434.3685,435.563,l,1,[],[],[],[],[],[],[],0.5171,1,435.5631,436.063,,,,,,1090,MAS,DIS,150,campo,la,l,0.5171,,436.063,436.0632,0.512962963,0.27037037,0,0,0,,0,178,178,189,1,,,,
,,,,,,d06d70ff0280939457524cb6,66a626ef09d4e21e1a8894ec,6734d69d103e4e2336cde56f,2024-11-13_18h15.24.749,Tarea de género gramatical,2024.2.2,Win32,59.88023952,,,,,,,,,,,,,,,,,,,,,,,436.065,437.113,l,1,[],[],[],[],[],[],[],0.3771,1,437.1132,437.613,,,,,,964,MAS,DIS,150,saco,la,l,0.3771,,437.6131,437.6134,0.512962963,0.27037037,0,0,0,,0,179,179,63,1,,,,
,,,,,,d06d70ff0280939457524cb6,66a626ef09d4e21e1a8894ec,6734d69d103e4e2336cde56f,2024-11-13_18h15.24.749,Tarea de género gramatical,2024.2.2,Win32,59.88023952,,,,,,,,,,,,,,,,,,,,,,,437.6152,438.6298,l,1,[],[],[],[],[],[],[],0.3385,1,438.6299,439.1298,,,,,,966,MAS,CON,150,muro,,l,0.3385,,439.13,439.1301,0.512962963,0.27037037,0,0,0,,0,180,180,65,1,,,,
,,,,,,d06d70ff0280939457524cb6,66a626ef09d4e21e1a8894ec,6734d69d103e4e2336cde56f,2024-11-13_18h15.24.749,Tarea de género gramatical,2024.2.2,Win32,59.88023952,,,,,,,,,,,,,,,,,,,,,,,439.132,440.2465,a,1,[],[],[],[],[],[],[],0.4355,1,440.2468,440.7466,,,,,,1148,FEM,AGR,150,letra,la,a,0.4355,,440.7467,440.7469,0.512962963,0.27037037,0,0,0,,0,181,181,247,1,,,,
,,,,,,d06d70ff0280939457524cb6,66a626ef09d4e21e1a8894ec,6734d69d103e4e2336cde56f,2024-11-13_18h15.24.749,Tarea de género gramatical,2024.2.2,Win32,59.88023952,,,,,,,,,,,,,,,,,,,,,,,440.7488,441.8969,a,1,[],[],[],[],[],[],[],0.4694,1,441.8971,442.3968,,,,,,1149,FEM,CON,150,crema,,a,0.4694,,442.3992,442.4012,0.512962963,0.27037037,0,0,0,,0,182,182,248,1,,,,
,,,,,,d06d70ff0280939457524cb6,66a626ef09d4e21e1a8894ec,6734d69d103e4e2336cde56f,2024-11-13_18h15.24.749,Tarea de género gramatical,2024.2.2,Win32,59.88023952,,,,,,,,,,,,,,,,,,,,,,,442.4027,443.4801,a,1,[],[],[],[],[],[],[],0.4008,1,443.4802,443.9801,,,,,,980,FEM,AGR,150,vaca,la,a,0.4008,,443.9802,443.9803,0.512962963,0.27037037,0,0,0,,0,183,183,79,1,,,,
,,,,,,d06d70ff0280939457524cb6,66a626ef09d4e21e1a8894ec,6734d69d103e4e2336cde56f,2024-11-13_18h15.24.749,Tarea de género gramatical,2024.2.2,Win32,59.88023952,,,,,,,,,,,,,,,,,,,,,,,443.9824,445.0469,l,1,[],[],[],[],[],[],[],0.386,1,445.047,445.5468,,,,,,1330,MAS,DIS,150,título,la,l,0.386,,445.547,445.5471,0.512962963,0.27037037,0,0,0,,0,184,184,429,1,,,,
,,,,,,d06d70ff0280939457524cb6,66a626ef09d4e21e1a8894ec,6734d69d103e4e2336cde56f,2024-11-13_18h15.24.749,Tarea de género gramatical,2024.2.2,Win32,59.88023952,,,,,,,,,,,,,,,,,,,,,,,445.5491,446.5804,l,1,[],[],[],[],[],[],[],0.3614,1,446.5806,447.0802,,,,,,1218,MAS,CON,150,pueblo,,l,0.3614,,447.0802,447.0805,0.512962963,0.27037037,0,0,0,,0,185,185,317,1,,,,
,,,,,,d06d70ff0280939457524cb6,66a626ef09d4e21e1a8894ec,6734d69d103e4e2336cde56f,2024-11-13_18h15.24.749,Tarea de género gramatical,2024.2.2,Win32,59.88023952,,,,,,,,,,,,,,,,,,,,,,,447.0832,448.1303,l,1,[],[],[],[],[],[],[],0.3768,1,448.1305,448.6304,,,,,,942,MAS,CON,150,show,,l,0.3768,,448.6327,448.6345,0.512962963,0.27037037,0,0,0,,0,186,186,41,1,,,,
,,,,,,d06d70ff0280939457524cb6,66a626ef09d4e21e1a8894ec,6734d69d103e4e2336cde56f,2024-11-13_18h15.24.749,Tarea de género gramatical,2024.2.2,Win32,59.88023952,,,,,,,,,,,,,,,,,,,,,,,448.6358,449.6638,a,1,[],[],[],[],[],[],[],0.3514,1,449.664,450.1638,,,,,,975,FEM,CON,150,caza,,a,0.3514,,450.1638,450.164,0.512962963,0.27037037,0,0,0,,0,187,187,74,1,,,,
,,,,,,d06d70ff0280939457524cb6,66a626ef09d4e21e1a8894ec,6734d69d103e4e2336cde56f,2024-11-13_18h15.24.749,Tarea de género gramatical,2024.2.2,Win32,59.88023952,,,,,,,,,,,,,,,,,,,,,,,450.166,451.2305,l,1,[],[],[],[],[],[],[],0.391,1,451.2308,451.7305,,,,,,1104,MAS,CON,150,papel,,l,0.391,,451.7306,451.7307,0.512962963,0.27037037,0,0,0,,0,188,188,203,1,,,,
,,,,,,d06d70ff0280939457524cb6,66a626ef09d4e21e1a8894ec,6734d69d103e4e2336cde56f,2024-11-13_18h15.24.749,Tarea de género gramatical,2024.2.2,Win32,59.88023952,,,,,,,,,,,,,,,,,,,,,,,451.7331,452.7803,a,0,[],[],[],[],[],[],[],0.378,0,452.7812,453.2803,,,,,,1157,MAS,AGR,150,pecho,el,l,0.378,,453.2803,453.2805,0.512962963,0.27037037,0,0,0,,0,189,189,256,1,,,,
,,,,,,d06d70ff0280939457524cb6,66a626ef09d4e21e1a8894ec,6734d69d103e4e2336cde56f,2024-11-13_18h15.24.749,Tarea de género gramatical,2024.2.2,Win32,59.88023952,,,,,,,,,,,,,,,,,,,,,,,453.2818,454.6141,l,1,[],[],[],[],[],[],[],0.6508,1,454.6154,455.114,,,,,,1337,MAS,AGR,150,hombro,el,l,0.6508,,455.1141,455.1146,0.512962963,0.27037037,0,0,0,,0,190,190,436,1,,,,
,,,,,,d06d70ff0280939457524cb6,66a626ef09d4e21e1a8894ec,6734d69d103e4e2336cde56f,2024-11-13_18h15.24.749,Tarea de género gramatical,2024.2.2,Win32,59.88023952,,,,,,,,,,,,,,,,,,,,,,,455.1164,456.2641,l,1,[],[],[],[],[],[],[],0.4744,1,456.2642,456.7638,,,,,,1056,MAS,CON,150,amigo,,l,0.4744,,456.7654,456.7664,0.512962963,0.27037037,0,0,0,,0,191,191,155,1,,,,
,,,,,,d06d70ff0280939457524cb6,66a626ef09d4e21e1a8894ec,6734d69d103e4e2336cde56f,2024-11-13_18h15.24.749,Tarea de género gramatical,2024.2.2,Win32,59.88023952,,,,,,,,,,,,,,,,,,,,,,,456.7673,457.8475,l,0,[],[],[],[],[],[],[],0.4079,0,457.8491,458.3472,,,,,,1081,FEM,DIS,150,tarde,el,a,0.4079,,458.3473,458.3474,0.512962963,0.27037037,0,0,0,,0,192,192,180,1,,,,
,,,,,,d06d70ff0280939457524cb6,66a626ef09d4e21e1a8894ec,6734d69d103e4e2336cde56f,2024-11-13_18h15.24.749,Tarea de género gramatical,2024.2.2,Win32,59.88023952,,,,,,,,,,,,,,,,,,,,,,,458.3486,459.4807,l,1,[],[],[],[],[],[],[],0.448,1,459.4814,459.981,,,,,,1308,MAS,CON,150,cheque,,l,0.448,,459.9811,459.9812,0.512962963,0.27037037,0,0,0,,0,193,193,407,1,,,,
,,,,,,d06d70ff0280939457524cb6,66a626ef09d4e21e1a8894ec,6734d69d103e4e2336cde56f,2024-11-13_18h15.24.749,Tarea de género gramatical,2024.2.2,Win32,59.88023952,,,,,,,,,,,,,,,,,,,,,,,459.9833,461.0641,l,1,[],[],[],[],[],[],[],0.3989,1,461.0641,461.5644,,,,,,1295,MAS,AGR,150,correo,el,l,0.3989,,461.5644,461.5648,0.512962963,0.27037037,0,0,0,,0,194,194,394,1,,,,
,,,,,,d06d70ff0280939457524cb6,66a626ef09d4e21e1a8894ec,6734d69d103e4e2336cde56f,2024-11-13_18h15.24.749,Tarea de género gramatical,2024.2.2,Win32,59.88023952,,,,,,,,,,,,,,,,,,,,,,,461.5667,462.6145,a,1,[],[],[],[],[],[],[],0.3687,1,462.6147,463.1145,,,,,,1311,FEM,CON,150,actriz,,a,0.3687,,463.1169,463.1188,0.512962963,0.27037037,0,0,0,,0,195,195,410,1,,,,
,,,,,,d06d70ff0280939457524cb6,66a626ef09d4e21e1a8894ec,6734d69d103e4e2336cde56f,2024-11-13_18h15.24.749,Tarea de género gramatical,2024.2.2,Win32,59.88023952,,,,,,,,,,,,,,,,,,,,,,,463.1202,464.331,a,1,[],[],[],[],[],[],[],0.5353,1,464.3311,464.8313,,,,,,951,FEM,CON,150,bala,,a,0.5353,,464.8314,464.8317,0.512962963,0.27037037,0,0,0,,0,196,196,50,1,,,,
,,,,,,d06d70ff0280939457524cb6,66a626ef09d4e21e1a8894ec,6734d69d103e4e2336cde56f,2024-11-13_18h15.24.749,Tarea de género gramatical,2024.2.2,Win32,59.88023952,,,,,,,,,,,,,,,,,,,,,,,464.8335,466.1482,a,1,[],[],[],[],[],[],[],0.6466,1,466.1484,466.6481,,,,,,1203,FEM,CON,150,maldad,,a,0.6466,,466.6481,466.6483,0.560185185,0.275,0,0,0,,0,197,197,302,1,,,,
,,,,,,d06d70ff0280939457524cb6,66a626ef09d4e21e1a8894ec,6734d69d103e4e2336cde56f,2024-11-13_18h15.24.749,Tarea de género gramatical,2024.2.2,Win32,59.88023952,,,,,,,,,,,,,,,,,,,,,,,466.6503,467.7314,l,0,[],[],[],[],[],[],[],0.4023,0,467.7328,468.2315,,,,,,949,FEM,DIS,150,piel,el,a,0.4023,,468.2316,468.2317,0.560185185,0.275,0,0,0,,0,198,198,48,1,,,,
,,,,,,d06d70ff0280939457524cb6,66a626ef09d4e21e1a8894ec,6734d69d103e4e2336cde56f,2024-11-13_18h15.24.749,Tarea de género gramatical,2024.2.2,Win32,59.88023952,,,,,,,,,,,,,,,,,,,,,,,468.2337,469.6981,l,0,[],[],[],[],[],[],[],0.7892,0,469.6984,470.1981,,,,,,933,FEM,CON,150,boda,,a,0.7892,,470.1982,470.1984,0.560185185,0.275,0,0,0,,0,199,199,32,1,,,,
,,,,,,d06d70ff0280939457524cb6,66a626ef09d4e21e1a8894ec,6734d69d103e4e2336cde56f,2024-11-13_18h15.24.749,Tarea de género gramatical,2024.2.2,Win32,59.88023952,,,,,,,,,,,,,,,,,,,,,,,470.2002,471.415,l,1,[],[],[],[],[],[],[],0.5357,1,471.4163,471.915,,,,,,1283,MAS,AGR,150,parque,el,l,0.5357,,471.9173,471.9188,0.560185185,0.275,0,0,0,,0,200,200,382,1,,,,
,,,,,,d06d70ff0280939457524cb6,66a626ef09d4e21e1a8894ec,6734d69d103e4e2336cde56f,2024-11-13_18h15.24.749,Tarea de género gramatical,2024.2.2,Win32,59.88023952,,,,,,,,,,,,,,,,,,,,,,,471.9203,473.0651,l,1,[],[],[],[],[],[],[],0.474,1,473.0653,473.5652,,,,,,959,MAS,AGR,150,lobo,el,l,0.474,,473.5653,473.5656,0.560185185,0.275,0,0,0,,0,201,201,58,1,,,,
,,,,,,d06d70ff0280939457524cb6,66a626ef09d4e21e1a8894ec,6734d69d103e4e2336cde56f,2024-11-13_18h15.24.749,Tarea de género gramatical,2024.2.2,Win32,59.88023952,,,,,,,,,,,,,,,,,,,,,,,473.5673,474.7818,a,1,[],[],[],[],[],[],[],0.5428,1,474.782,475.2814,,,,,,1221,FEM,CON,150,comida,,a,0.5428,,475.2815,475.2816,0.560185185,0.275,0,0,0,,0,202,202,320,1,,,,
,,,,,,d06d70ff0280939457524cb6,66a626ef09d4e21e1a8894ec,6734d69d103e4e2336cde56f,2024-11-13_18h15.24.749,Tarea de género gramatical,2024.2.2,Win32,59.88023952,,,,,,,,,,,,,,,,,,,,,,,475.2828,476.3149,a,1,[],[],[],[],[],[],[],0.3561,1,476.315,476.8152,,,,,,915,FEM,CON,150,cama,,a,0.3561,,476.8153,476.8156,0.560185185,0.275,0,0,0,,0,203,203,14,1,,,,
,,,,,,d06d70ff0280939457524cb6,66a626ef09d4e21e1a8894ec,6734d69d103e4e2336cde56f,2024-11-13_18h15.24.749,Tarea de género gramatical,2024.2.2,Win32,59.88023952,,,,,,,,,,,,,,,,,,,,,,,476.8177,478.1652,a,1,[],[],[],[],[],[],[],0.6791,1,478.1653,478.6653,,,,,,1136,FEM,AGR,150,deuda,la,a,0.6791,,478.6677,478.6692,0.560185185,0.275,0,0,0,,0,204,204,235,1,,,,
,,,,,,d06d70ff0280939457524cb6,66a626ef09d4e21e1a8894ec,6734d69d103e4e2336cde56f,2024-11-13_18h15.24.749,Tarea de género gramatical,2024.2.2,Win32,59.88023952,,,,,,,,,,,,,,,,,,,,,,,478.6707,480.2822,l,0,[],[],[],[],[],[],[],0.9444,0,480.2835,480.7822,,,,,,1262,FEM,AGR,150,fuente,la,a,0.9444,,480.7822,480.7824,0.560185185,0.275,0,0,0,,0,205,205,361,1,,,,
,,,,,,d06d70ff0280939457524cb6,66a626ef09d4e21e1a8894ec,6734d69d103e4e2336cde56f,2024-11-13_18h15.24.749,Tarea de género gramatical,2024.2.2,Win32,59.88023952,,,,,,,,,,,,,,,,,,,,,,,480.7844,482.0162,l,1,[],[],[],[],[],[],[],0.5619,1,482.0177,482.5156,,,,,,1072,MAS,DIS,150,poder,la,l,0.5619,,482.5156,482.5158,0.560185185,0.275,0,0,0,,0,206,206,171,1,,,,
,,,,,,d06d70ff0280939457524cb6,66a626ef09d4e21e1a8894ec,6734d69d103e4e2336cde56f,2024-11-13_18h15.24.749,Tarea de género gramatical,2024.2.2,Win32,59.88023952,,,,,,,,,,,,,,,,,,,,,,,482.518,484.382,l,1,[],[],[],[],[],[],[],1.1838,1,484.3822,484.8823,,,,,,1282,MAS,DIS,150,teatro,la,l,1.1838,,484.8825,484.8827,0.560185185,0.275,0,0,0,,0,207,207,381,1,,,,
,,,,,,d06d70ff0280939457524cb6,66a626ef09d4e21e1a8894ec,6734d69d103e4e2336cde56f,2024-11-13_18h15.24.749,Tarea de género gramatical,2024.2.2,Win32,59.88023952,,,,,,,,,,,,,,,,,,,,,,,484.8847,486.2165,a,1,[],[],[],[],[],[],[],0.6638,1,486.2166,486.7158,,,,,,1280,FEM,AGR,150,madera,la,a,0.6638,,486.7158,486.716,0.560185185,0.275,0,0,0,,0,208,208,379,1,,,,
,,,,,,d06d70ff0280939457524cb6,66a626ef09d4e21e1a8894ec,6734d69d103e4e2336cde56f,2024-11-13_18h15.24.749,Tarea de género gramatical,2024.2.2,Win32,59.88023952,,,,,,,,,,,,,,,,,,,,,,,486.718,487.7492,a,1,[],[],[],[],[],[],[],0.3525,1,487.7494,488.2493,,,,,,950,FEM,AGR,150,dama,la,a,0.3525,,488.2516,488.253,0.560185185,0.275,0,0,0,,0,209,209,49,1,,,,
,,,,,,d06d70ff0280939457524cb6,66a626ef09d4e21e1a8894ec,6734d69d103e4e2336cde56f,2024-11-13_18h15.24.749,Tarea de género gramatical,2024.2.2,Win32,59.88023952,,,,,,,,,,,,,,,,,,,,,,,488.2544,489.416,l,1,[],[],[],[],[],[],[],0.4841,1,489.4161,489.916,,,,,,1228,MAS,DIS,150,asunto,la,l,0.4841,,489.9161,489.9163,0.560185185,0.275,0,0,0,,0,210,210,327,1,,,,
,,,,,,d06d70ff0280939457524cb6,66a626ef09d4e21e1a8894ec,6734d69d103e4e2336cde56f,2024-11-13_18h15.24.749,Tarea de género gramatical,2024.2.2,Win32,59.88023952,,,,,,,,,,,,,,,,,,,,,,,489.9182,491.0167,l,1,[],[],[],[],[],[],[],0.4283,1,491.0169,491.5161,,,,,,983,MAS,AGR,150,nene,el,l,0.4283,,491.5162,491.5163,0.560185185,0.275,0,0,0,,0,211,211,82,1,,,,
,,,,,,d06d70ff0280939457524cb6,66a626ef09d4e21e1a8894ec,6734d69d103e4e2336cde56f,2024-11-13_18h15.24.749,Tarea de género gramatical,2024.2.2,Win32,59.88023952,,,,,,,,,,,,,,,,,,,,,,,491.5184,492.6327,l,1,[],[],[],[],[],[],[],0.4459,1,492.6329,493.1328,,,,,,1188,MAS,CON,150,grado,,l,0.4459,,493.1329,493.133,0.560185185,0.275,0,0,0,,0,212,212,287,1,,,,
,,,,,,d06d70ff0280939457524cb6,66a626ef09d4e21e1a8894ec,6734d69d103e4e2336cde56f,2024-11-13_18h15.24.749,Tarea de género gramatical,2024.2.2,Win32,59.88023952,,,,,,,,,,,,,,,,,,,,,,,493.1351,494.2829,l,1,[],[],[],[],[],[],[],0.4753,1,494.2831,494.7829,,,,,,1336,MAS,DIS,150,objeto,la,l,0.4753,,494.7853,494.7868,0.560185185,0.275,0,0,0,,0,213,213,435,1,,,,
,,,,,,d06d70ff0280939457524cb6,66a626ef09d4e21e1a8894ec,6734d69d103e4e2336cde56f,2024-11-13_18h15.24.749,Tarea de género gramatical,2024.2.2,Win32,59.88023952,,,,,,,,,,,,,,,,,,,,,,,494.7882,495.9164,l,1,[],[],[],[],[],[],[],0.4528,1,495.9165,496.4166,,,,,,995,MAS,AGR,150,tomo,el,l,0.4528,,496.4166,496.417,0.560185185,0.275,0,0,0,,0,214,214,94,1,,,,
,,,,,,d06d70ff0280939457524cb6,66a626ef09d4e21e1a8894ec,6734d69d103e4e2336cde56f,2024-11-13_18h15.24.749,Tarea de género gramatical,2024.2.2,Win32,59.88023952,,,,,,,,,,,,,,,,,,,,,,,496.419,497.3665,l,1,[],[],[],[],[],[],[],0.2724,1,497.3667,497.8664,,,,,,1254,MAS,CON,150,camión,,l,0.2724,,497.8665,497.8668,0.560185185,0.275,0,0,0,,0,215,215,353,1,,,,
,,,,,,d06d70ff0280939457524cb6,66a626ef09d4e21e1a8894ec,6734d69d103e4e2336cde56f,2024-11-13_18h15.24.749,Tarea de género gramatical,2024.2.2,Win32,59.88023952,,,,,,,,,,,,,,,,,,,,,,,497.8688,498.9662,a,1,[],[],[],[],[],[],[],0.4167,1,498.9662,499.4665,,,,,,1082,FEM,AGR,150,prisa,la,a,0.4167,,499.4667,499.4668,0.560185185,0.275,0,0,0,,0,216,216,181,1,,,,
,,,,,,d06d70ff0280939457524cb6,66a626ef09d4e21e1a8894ec,6734d69d103e4e2336cde56f,2024-11-13_18h15.24.749,Tarea de género gramatical,2024.2.2,Win32,59.88023952,,,,,,,,,,,,,,,,,,,,,,,499.4687,500.5334,a,1,[],[],[],[],[],[],[],0.3857,1,500.5335,501.0333,,,,,,1065,FEM,CON,150,amiga,,a,0.3857,,501.0333,501.0336,0.560185185,0.275,0,0,0,,0,217,217,164,1,,,,
,,,,,,d06d70ff0280939457524cb6,66a626ef09d4e21e1a8894ec,6734d69d103e4e2336cde56f,2024-11-13_18h15.24.749,Tarea de género gramatical,2024.2.2,Win32,59.88023952,,,,,,,,,,,,,,,,,,,,,,,501.0355,502.1006,a,1,[],[],[],[],[],[],[],0.3977,1,502.1007,502.6,,,,,,1281,FEM,CON,150,bebida,,a,0.3977,,502.6025,502.6042,0.560185185,0.275,0,0,0,,0,218,218,380,1,,,,
,,,,,,d06d70ff0280939457524cb6,66a626ef09d4e21e1a8894ec,6734d69d103e4e2336cde56f,2024-11-13_18h15.24.749,Tarea de género gramatical,2024.2.2,Win32,59.88023952,,,,,,,,,,,,,,,,,,,,,,,502.6066,503.8167,l,1,[],[],[],[],[],[],[],0.5438,1,503.8168,504.3168,,,,,,1318,MAS,DIS,150,pájaro,la,l,0.5438,,504.3168,504.317,0.560185185,0.275,0,0,0,,0,219,219,417,1,,,,
,,,,,,d06d70ff0280939457524cb6,66a626ef09d4e21e1a8894ec,6734d69d103e4e2336cde56f,2024-11-13_18h15.24.749,Tarea de género gramatical,2024.2.2,Win32,59.88023952,,,,,,,,,,,,,,,,,,,,,,,504.319,505.3502,a,1,[],[],[],[],[],[],[],0.3532,1,505.3503,505.8504,,,,,,909,FEM,CON,150,mamá,,a,0.3532,,505.8505,505.8508,0.560185185,0.275,0,0,0,,0,220,220,8,1,,,,
,,,,,,d06d70ff0280939457524cb6,66a626ef09d4e21e1a8894ec,6734d69d103e4e2336cde56f,2024-11-13_18h15.24.749,Tarea de género gramatical,2024.2.2,Win32,59.88023952,,,,,,,,,,,,,,,,,,,,,,,505.8526,507.0337,l,1,[],[],[],[],[],[],[],0.5002,1,507.0338,507.5336,,,,,,1122,MAS,CON,150,valor,,l,0.5002,,507.5337,507.5338,0.560185185,0.275,0,0,0,,0,221,221,221,1,,,,
,,,,,,d06d70ff0280939457524cb6,66a626ef09d4e21e1a8894ec,6734d69d103e4e2336cde56f,2024-11-13_18h15.24.749,Tarea de género gramatical,2024.2.2,Win32,59.88023952,,,,,,,,,,,,,,,,,,,,,,,507.5358,508.7005,a,1,[],[],[],[],[],[],[],0.4947,1,508.7008,509.2005,,,,,,1130,FEM,AGR,150,regla,la,a,0.4947,,509.203,509.2047,0.560185185,0.275,0,0,0,,0,222,222,229,1,,,,
,,,,,,d06d70ff0280939457524cb6,66a626ef09d4e21e1a8894ec,6734d69d103e4e2336cde56f,2024-11-13_18h15.24.749,Tarea de género gramatical,2024.2.2,Win32,59.88023952,,,,,,,,,,,,,,,,,,,,,,,509.2061,510.4339,a,1,[],[],[],[],[],[],[],0.551,1,510.4341,510.9337,,,,,,1087,FEM,DIS,150,lista,el,a,0.551,,510.9338,510.9339,0.560185185,0.275,0,0,0,,0,223,223,186,1,,,,
,,,,,,d06d70ff0280939457524cb6,66a626ef09d4e21e1a8894ec,6734d69d103e4e2336cde56f,2024-11-13_18h15.24.749,Tarea de género gramatical,2024.2.2,Win32,59.88023952,,,,,,,,,,,,,,,,,,,,,,,510.936,512.0006,l,1,[],[],[],[],[],[],[],0.3925,1,512.0007,512.5005,,,,,,1126,MAS,DIS,150,color,la,l,0.3925,,512.5005,512.5008,0.560185185,0.275,0,0,0,,0,224,224,225,1,,,,
,,,,,,d06d70ff0280939457524cb6,66a626ef09d4e21e1a8894ec,6734d69d103e4e2336cde56f,2024-11-13_18h15.24.749,Tarea de género gramatical,2024.2.2,Win32,59.88023952,,,,,,,,,,,,,,,,,,,,,,,512.5029,513.5174,l,1,[],[],[],[],[],[],[],0.336,1,513.5175,514.0172,,,,,,1091,MAS,AGR,150,dolor,el,l,0.336,,514.0174,514.0176,0.560185185,0.275,0,0,0,,0,225,225,190,1,,,,
,,,,,,d06d70ff0280939457524cb6,66a626ef09d4e21e1a8894ec,6734d69d103e4e2336cde56f,2024-11-13_18h15.24.749,Tarea de género gramatical,2024.2.2,Win32,59.88023952,,,,,,,,,,,,,,,,,,,,,,,514.0196,515.3672,a,1,[],[],[],[],[],[],[],0.6659,1,515.3672,515.8673,,,,,,1041,FEM,CON,150,cera,,a,0.6659,,515.8674,515.8676,0.560185185,0.275,0,0,0,,0,226,226,140,1,,,,
,,,,,,d06d70ff0280939457524cb6,66a626ef09d4e21e1a8894ec,6734d69d103e4e2336cde56f,2024-11-13_18h15.24.749,Tarea de género gramatical,2024.2.2,Win32,59.88023952,,,,,,,,,,,,,,,,,,,,,,,515.8696,517.251,l,1,[],[],[],[],[],[],[],0.7033,1,517.2511,517.7509,,,,,,1192,MAS,DIS,150,piano,la,l,0.7033,,517.7533,517.7547,0.560185185,0.275,0,0,0,,0,227,227,291,1,,,,
,,,,,,d06d70ff0280939457524cb6,66a626ef09d4e21e1a8894ec,6734d69d103e4e2336cde56f,2024-11-13_18h15.24.749,Tarea de género gramatical,2024.2.2,Win32,59.88023952,,,,,,,,,,,,,,,,,,,,,,,517.756,518.851,l,0,[],[],[],[],[],[],[],0.4176,0,518.8526,519.351,,,,,,1101,FEM,CON,150,leche,,a,0.4176,,519.351,519.3513,0.560185185,0.275,0,0,0,,0,228,228,200,1,,,,
,,,,,,d06d70ff0280939457524cb6,66a626ef09d4e21e1a8894ec,6734d69d103e4e2336cde56f,2024-11-13_18h15.24.749,Tarea de género gramatical,2024.2.2,Win32,59.88023952,,,,,,,,,,,,,,,,,,,,,,,519.354,520.8011,l,0,[],[],[],[],[],[],[],0.7727,0,520.8012,521.301,,,,,,1106,FEM,AGR,150,época,la,a,0.7727,,521.3011,521.3013,0.560185185,0.275,0,0,0,,0,229,229,205,1,,,,
,,,,,,d06d70ff0280939457524cb6,66a626ef09d4e21e1a8894ec,6734d69d103e4e2336cde56f,2024-11-13_18h15.24.749,Tarea de género gramatical,2024.2.2,Win32,59.88023952,,,,,,,,,,,,,,,,,,,,,,,521.3033,522.4012,a,1,[],[],[],[],[],[],[],0.4178,1,522.4025,522.9008,,,,,,1070,FEM,AGR,150,carta,la,a,0.4178,,522.901,522.901,0.560185185,0.275,0,0,0,,0,230,230,169,1,,,,
,,,,,,d06d70ff0280939457524cb6,66a626ef09d4e21e1a8894ec,6734d69d103e4e2336cde56f,2024-11-13_18h15.24.749,Tarea de género gramatical,2024.2.2,Win32,59.88023952,,,,,,,,,,,,,,,,,,,,,,,522.9022,524.1845,l,1,[],[],[],[],[],[],[],0.6001,1,524.1846,524.6846,,,,,,1236,MAS,CON,150,crimen,,l,0.6001,,524.687,524.6883,0.560185185,0.275,0,0,0,,0,231,231,335,1,,,,
,,,,,,d06d70ff0280939457524cb6,66a626ef09d4e21e1a8894ec,6734d69d103e4e2336cde56f,2024-11-13_18h15.24.749,Tarea de género gramatical,2024.2.2,Win32,59.88023952,,,,,,,,,,,,,,,,,,,,,,,524.6895,525.9347,a,1,[],[],[],[],[],[],[],0.5681,1,525.9348,526.4347,,,,,,1334,FEM,AGR,150,corona,la,a,0.5681,,526.4347,526.4349,0.560185185,0.275,0,0,0,,0,232,232,433,1,,,,
,,,,,,d06d70ff0280939457524cb6,66a626ef09d4e21e1a8894ec,6734d69d103e4e2336cde56f,2024-11-13_18h15.24.749,Tarea de género gramatical,2024.2.2,Win32,59.88023952,,,,,,,,,,,,,,,,,,,,,,,526.4368,527.6015,l,1,[],[],[],[],[],[],[],0.4843,1,527.6016,528.1014,,,,,,1266,MAS,CON,150,riesgo,,l,0.4843,,528.1015,528.1016,0.560185185,0.275,0,0,0,,0,233,233,365,1,,,,
,,,,,,d06d70ff0280939457524cb6,66a626ef09d4e21e1a8894ec,6734d69d103e4e2336cde56f,2024-11-13_18h15.24.749,Tarea de género gramatical,2024.2.2,Win32,59.88023952,,,,,,,,,,,,,,,,,,,,,,,528.1036,529.3849,a,1,[],[],[],[],[],[],[],0.6045,1,529.385,529.8849,,,,,,927,FEM,CON,150,mesa,,a,0.6045,,529.885,529.8852,0.59537037,0.246296296,0,0,0,,0,234,234,26,1,,,,
,,,,,,d06d70ff0280939457524cb6,66a626ef09d4e21e1a8894ec,6734d69d103e4e2336cde56f,2024-11-13_18h15.24.749,Tarea de género gramatical,2024.2.2,Win32,59.88023952,,,,,,,,,,,,,,,,,,,,,,,529.8872,531.0179,l,1,[],[],[],[],[],[],[],0.4587,1,531.018,531.5183,,,,,,1098,MAS,CON,150,hotel,,l,0.4587,,531.5184,531.5187,0.59537037,0.246296296,0,0,0,,0,235,235,197,1,,,,
,,,,,,d06d70ff0280939457524cb6,66a626ef09d4e21e1a8894ec,6734d69d103e4e2336cde56f,2024-11-13_18h15.24.749,Tarea de género gramatical,2024.2.2,Win32,59.88023952,,,,,,,,,,,,,,,,,,,,,,,531.5204,532.585,a,1,[],[],[],[],[],[],[],0.387,1,532.585,533.0851,,,,,,957,FEM,CON,150,moda,,a,0.387,,533.0877,533.0891,0.59537037,0.246296296,0,0,0,,0,236,236,56,1,,,,
,,,,,,d06d70ff0280939457524cb6,66a626ef09d4e21e1a8894ec,6734d69d103e4e2336cde56f,2024-11-13_18h15.24.749,Tarea de género gramatical,2024.2.2,Win32,59.88023952,,,,,,,,,,,,,,,,,,,,,,,533.0906,534.2517,l,1,[],[],[],[],[],[],[],0.4847,1,534.2519,534.7518,,,,,,1230,MAS,CON,150,estado,,l,0.4847,,534.7518,534.7521,0.59537037,0.246296296,0,0,0,,0,237,237,329,1,,,,
,,,,,,d06d70ff0280939457524cb6,66a626ef09d4e21e1a8894ec,6734d69d103e4e2336cde56f,2024-11-13_18h15.24.749,Tarea de género gramatical,2024.2.2,Win32,59.88023952,,,,,,,,,,,,,,,,,,,,,,,534.754,535.9019,l,1,[],[],[],[],[],[],[],0.4665,1,535.9021,536.4018,,,,,,1199,MAS,AGR,150,rumbo,el,l,0.4665,,536.402,536.4022,0.59537037,0.246296296,0,0,0,,0,238,238,298,1,,,,
,,,,,,d06d70ff0280939457524cb6,66a626ef09d4e21e1a8894ec,6734d69d103e4e2336cde56f,2024-11-13_18h15.24.749,Tarea de género gramatical,2024.2.2,Win32,59.88023952,,,,,,,,,,,,,,,,,,,,,,,536.4041,537.502,a,1,[],[],[],[],[],[],[],0.4223,1,537.5021,538.002,,,,,,963,FEM,CON,150,fila,,a,0.4223,,538.0022,538.0023,0.59537037,0.246296296,0,0,0,,0,239,239,62,1,,,,
,,,,,,d06d70ff0280939457524cb6,66a626ef09d4e21e1a8894ec,6734d69d103e4e2336cde56f,2024-11-13_18h15.24.749,Tarea de género gramatical,2024.2.2,Win32,59.88023952,,,,,,,,,,,,,,,,,,,,,,,538.0043,539.0522,l,1,[],[],[],[],[],[],[],0.3742,1,539.0523,539.5521,,,,,,970,MAS,DIS,150,palo,la,l,0.3742,,539.5545,539.5559,0.59537037,0.246296296,0,0,0,,0,240,240,69,1,,,,
,,,,,,d06d70ff0280939457524cb6,66a626ef09d4e21e1a8894ec,6734d69d103e4e2336cde56f,2024-11-13_18h15.24.749,Tarea de género gramatical,2024.2.2,Win32,59.88023952,,,,,,,,,,,,,,,,,,,,,,,539.5573,540.9189,l,1,[],[],[],[],[],[],[],0.6842,1,540.9191,541.4188,,,,,,1242,MAS,CON,150,abuelo,,l,0.6842,,541.4189,541.4191,0.59537037,0.246296296,0,0,0,,0,241,241,341,1,,,,
,,,,,,d06d70ff0280939457524cb6,66a626ef09d4e21e1a8894ec,6734d69d103e4e2336cde56f,2024-11-13_18h15.24.749,Tarea de género gramatical,2024.2.2,Win32,59.88023952,,,,,,,,,,,,,,,,,,,,,,,541.4214,542.5353,l,1,[],[],[],[],[],[],[],0.4329,1,542.5354,543.0353,,,,,,1320,MAS,CON,150,helado,,l,0.4329,,543.0354,543.0354,0.59537037,0.246296296,0,0,0,,0,242,242,419,1,,,,
,,,,,,d06d70ff0280939457524cb6,66a626ef09d4e21e1a8894ec,6734d69d103e4e2336cde56f,2024-11-13_18h15.24.749,Tarea de género gramatical,2024.2.2,Win32,59.88023952,,,,,,,,,,,,,,,,,,,,,,,543.0368,544.1858,a,1,[],[],[],[],[],[],[],0.4704,1,544.1859,544.6857,,,,,,926,FEM,AGR,150,pena,la,a,0.4704,,544.6859,544.686,0.59537037,0.246296296,0,0,0,,0,243,243,25,1,,,,
,,,,,,d06d70ff0280939457524cb6,66a626ef09d4e21e1a8894ec,6734d69d103e4e2336cde56f,2024-11-13_18h15.24.749,Tarea de género gramatical,2024.2.2,Win32,59.88023952,,,,,,,,,,,,,,,,,,,,,,,544.6881,546.1858,l,1,[],[],[],[],[],[],[],0.8182,1,546.1859,546.6858,,,,,,1253,MAS,AGR,150,verano,el,l,0.8182,,546.6858,546.6861,0.59537037,0.246296296,0,0,0,,0,244,244,352,1,,,,
,,,,,,d06d70ff0280939457524cb6,66a626ef09d4e21e1a8894ec,6734d69d103e4e2336cde56f,2024-11-13_18h15.24.749,Tarea de género gramatical,2024.2.2,Win32,59.88023952,,,,,,,,,,,,,,,,,,,,,,,546.688,547.8026,l,1,[],[],[],[],[],[],[],0.4423,1,547.8027,548.3026,,,,,,936,MAS,CON,150,dedo,,l,0.4423,,548.305,548.3063,0.59537037,0.246296296,0,0,0,,0,245,245,35,1,,,,
,,,,,,d06d70ff0280939457524cb6,66a626ef09d4e21e1a8894ec,6734d69d103e4e2336cde56f,2024-11-13_18h15.24.749,Tarea de género gramatical,2024.2.2,Win32,59.88023952,,,,,,,,,,,,,,,,,,,,,,,548.3078,549.3689,l,1,[],[],[],[],[],[],[],0.3928,1,549.3689,549.8693,,,,,,1152,MAS,CON,150,viejo,,l,0.3928,,549.8694,549.8696,0.59537037,0.246296296,0,0,0,,0,246,246,251,1,,,,
,,,,,,d06d70ff0280939457524cb6,66a626ef09d4e21e1a8894ec,6734d69d103e4e2336cde56f,2024-11-13_18h15.24.749,Tarea de género gramatical,2024.2.2,Win32,59.88023952,,,,,,,,,,,,,,,,,,,,,,,549.8715,551.0528,a,1,[],[],[],[],[],[],[],0.5075,1,551.0529,551.5527,,,,,,945,FEM,CON,150,isla,,a,0.5075,,551.5527,551.5529,0.59537037,0.246296296,0,0,0,,0,247,247,44,1,,,,
,,,,,,d06d70ff0280939457524cb6,66a626ef09d4e21e1a8894ec,6734d69d103e4e2336cde56f,2024-11-13_18h15.24.749,Tarea de género gramatical,2024.2.2,Win32,59.88023952,,,,,,,,,,,,,,,,,,,,,,,551.555,552.7363,l,1,[],[],[],[],[],[],[],0.5033,1,552.7365,553.2361,,,,,,965,MAS,AGR,150,rayo,el,l,0.5033,,553.2363,553.2364,0.59537037,0.246296296,0,0,0,,0,248,248,64,1,,,,
,,,,,,d06d70ff0280939457524cb6,66a626ef09d4e21e1a8894ec,6734d69d103e4e2336cde56f,2024-11-13_18h15.24.749,Tarea de género gramatical,2024.2.2,Win32,59.88023952,,,,,,,,,,,,,,,,,,,,,,,553.2386,554.3529,l,1,[],[],[],[],[],[],[],0.4364,1,554.353,554.8529,,,,,,1174,MAS,DIS,150,motor,la,l,0.4364,,554.8555,554.8572,0.59537037,0.246296296,0,0,0,,0,249,249,273,1,,,,
,,,,,,d06d70ff0280939457524cb6,66a626ef09d4e21e1a8894ec,6734d69d103e4e2336cde56f,2024-11-13_18h15.24.749,Tarea de género gramatical,2024.2.2,Win32,59.88023952,,,,,,,,,,,,,,,,,,,,,,,554.859,555.9364,a,1,[],[],[],[],[],[],[],0.4024,1,555.9365,556.4364,,,,,,1093,FEM,DIS,150,bolsa,el,a,0.4024,,556.4365,556.4366,0.59537037,0.246296296,0,0,0,,0,250,250,192,1,,,,
,,,,,,d06d70ff0280939457524cb6,66a626ef09d4e21e1a8894ec,6734d69d103e4e2336cde56f,2024-11-13_18h15.24.749,Tarea de género gramatical,2024.2.2,Win32,59.88023952,,,,,,,,,,,,,,,,,,,,,,,556.4387,557.6199,l,1,[],[],[],[],[],[],[],0.5021,1,557.62,558.1198,,,,,,1108,MAS,DIS,150,suelo,la,l,0.5021,,558.1199,558.1201,0.59537037,0.246296296,0,0,0,,0,251,251,207,1,,,,
,,,,,,d06d70ff0280939457524cb6,66a626ef09d4e21e1a8894ec,6734d69d103e4e2336cde56f,2024-11-13_18h15.24.749,Tarea de género gramatical,2024.2.2,Win32,59.88023952,,,,,,,,,,,,,,,,,,,,,,,558.1221,559.2365,l,1,[],[],[],[],[],[],[],0.4471,1,559.2366,559.7362,,,,,,1270,MAS,DIS,150,seguro,la,l,0.4471,,559.7363,559.7363,0.59537037,0.246296296,0,0,0,,0,252,252,369,1,,,,
