counterbalancing_condition,consent_prescreening.block_1/declare_consent,consent_prescreening.block_1/age_years,consent_prescreening.block_1/gender,consent_prescreening.block_1/language_disorder,consent_prescreening.block_1/first_language,PROLIFIC_PID,STUDY_ID,SESSION_ID,date,expName,psychopyVersion,OS,frameRate,check_prescreening_answers.started,check_prescreening_answers.stopped,Instructions.started,Instructions.stopped,instr_done_keyboard.keys,instr_done_touch.x,instr_done_touch.y,instr_done_touch.leftButton,instr_done_touch.midButton,instr_done_touch.rightButton,instr_done_touch.clicked_name,instruction_pages.thisRepN,instruction_pages.thisTrialN,instruction_pages.thisN,instruction_pages.thisIndex,instruction_pages.ran,pageN,phase,instruct_text,has_image,instruct_image,instr_done_keyboard.rt,instr_done_keyboard.duration,presentTrial.started,presentTrial.stopped,response.keys,response.corr,touch_resp.x,touch_resp.y,touch_resp.leftButton,touch_resp.midButton,touch_resp.rightButton,touch_resp.time,touch_resp.clicked_name,rt,corr,feedback.started,feedback.stopped,practice_trials.thisRepN,practice_trials.thisTrialN,practice_trials.thisN,practice_trials.thisIndex,practice_trials.ran,TrialID,StimulusType,Condition,PrimeDuration,Prime,Flanker,corrAns,response.rt,response.duration,Break.started,Break.stopped,break_done_touch.x,break_done_touch.y,break_done_touch.leftButton,break_done_touch.midButton,break_done_touch.rightButton,break_done_keyboard.keys,experiment_trials.thisRepN,experiment_trials.thisTrialN,experiment_trials.thisN,experiment_trials.thisIndex,experiment_trials.ran,break_done_keyboard.rt,break_done_keyboard.duration,End.started,End.stopped
0,"[""over_18"",""comfortable"",""read_info"",""consent_given""]",48,M,"[""none""]","[""spanish""]",d0857d073f61d696f240baab,66a626ef09d4e21e1a8894ec,67373fbca88640a6062be1ba,2024-11-15_13h36.37.253,Tarea de género gramatical,2024.2.2,Win32,59.88023952,,,,,,,,,,,,,,,,,,,,,,,,,,,,,,,,,,,,,,,,,,,,,,,,,,,,,,,,,,,,,,,,,,,,,
,,,,,,d0857d073f61d696f240baab,66a626ef09d4e21e1a8894ec,67373fbca88640a6062be1ba,2024-11-15_13h36.37.253,Tarea de género gramatical,2024.2.2,Win32,59.88023952,40.5302,40.5303,,,,,,,,,,,,,,,,,,,,,,,,,,,,,,,,,,,,,,,,,,,,,,,,,,,,,,,,,,,,,,,,,,,
,,,,,,d0857d073f61d696f240baab,66a626ef09d4e21e1a8894ec,67373fbca88640a6062be1ba,2024-11-15_13h36.37.253,Tarea de género gramatical,2024.2.2,Win32,59.88023952,,,40.5487,71.3366,,-0.002777778,-0.410185185,1,0,0,instr_done_button,0,0,0,0,1,1,instructions,"INSTRUCCIONES
Va a realizar una prueba de selección gramatical. Desde el comienzo de la prueba mire siempre al centro de la pantalla. Al cabo de un momento, aparecerán palabras. La tarea consiste en determinar si la palabra del centro (siempre será un sustantivo), pertenece al género masculino o femenino.

Pulse la tecla ESPACIO o toque el botón de abajo para continuar.",0,keyboardresponseFM.png,,,,,,,,,,,,,,,,,,,,,,,,,,,,,,,,,,,,,,,,,,,,,,,,
,,,,,,d0857d073f61d696f240baab,66a626ef09d4e21e1a8894ec,67373fbca88640a6062be1ba,2024-11-15_13h36.37.253,Tarea de género gramatical,2024.2.2,Win32,59.88023952,,,71.3389,80.0993,space,-0.002777778,-0.410185185,0,0,0,,0,1,1,1,1,2,instructions,"Si su dispositivo tiene teclado, pulse la tecla ""A"" para las palabras en femenino (por ejemplo: ""mano"") y la tecla ""L"" para las palabras en masculino(por ejemplo: ""arroz"").
Pulse la tecla ESPACIO o toque el botón de abajo para continuar.",1,keyboardresponseFM.png,8.7049,,,,,,,,,,,,,,,,,,,,,,,,,,,,,,,,,,,,,,,,,,,,,,,
,,,,,,d0857d073f61d696f240baab,66a626ef09d4e21e1a8894ec,67373fbca88640a6062be1ba,2024-11-15_13h36.37.253,Tarea de género gramatical,2024.2.2,Win32,59.88023952,,,80.101,83.6692,space,-0.002777778,-0.410185185,0,0,0,,0,2,2,2,1,3,instructions,"Si utiliza un dispositivo sólo táctil, colóquelo en horizontal y utilice los botones de la pantalla. No utilice el ratón.
Pulse la tecla ESPACIO o toque el botón de abajo para continuar.",2,touchresponseFM.png,3.5206,,,,,,,,,,,,,,,,,,,,,,,,,,,,,,,,,,,,,,,,,,,,,,,
,,,,,,d0857d073f61d696f240baab,66a626ef09d4e21e1a8894ec,67373fbca88640a6062be1ba,2024-11-15_13h36.37.253,Tarea de género gramatical,2024.2.2,Win32,59.88023952,,,83.6715,95.2024,space,-0.002777778,-0.410185185,0,0,0,,0,3,3,3,1,4,instructions,"Es muy importante que responda con la mayor rapidez y precisión posibles, ya que cada cadena de letras sólo estará en pantalla durante un instante. Si no responde en ese tiempo, aparecerá el mensaje ""Muy lento"" y el experimento pasará a la siguiente palabra. Los primeros 15 intentos serán de práctica y habrá dos descansos durante la prueba.
Pulse la tecla ESPACIO o toque el botón de abajo para iniciar la parte de práctica.",0,keyboardresponseFM.png,11.51,,,,,,,,,,,,,,,,,,,,,,,,,,,,,,,,,,,,,,,,,,,,,,,
,,,,,,d0857d073f61d696f240baab,66a626ef09d4e21e1a8894ec,67373fbca88640a6062be1ba,2024-11-15_13h36.37.253,Tarea de género gramatical,2024.2.2,Win32,59.88023952,,,,,,,,,,,,,,,,,,,,,,,,95.2235,97.8694,,0,[],[],[],[],[],[],[],,-1,97.8697,98.3692,0,0,0,10,1,2011,MAS,CON,150,canal,,l,,,,,,,,,,,,,,,,,,,
,,,,,,d0857d073f61d696f240baab,66a626ef09d4e21e1a8894ec,67373fbca88640a6062be1ba,2024-11-15_13h36.37.253,Tarea de género gramatical,2024.2.2,Win32,59.88023952,,,,,,,,,,,,,,,,,,,,,,,,98.3701,101.0311,,0,[],[],[],[],[],[],[],,-1,101.0313,101.5312,0,1,1,1,1,2002,FEM,CON,150,pala,,a,,,,,,,,,,,,,,,,,,,
,,,,,,d0857d073f61d696f240baab,66a626ef09d4e21e1a8894ec,67373fbca88640a6062be1ba,2024-11-15_13h36.37.253,Tarea de género gramatical,2024.2.2,Win32,59.88023952,,,,,,,,,,,,,,,,,,,,,,,,101.5325,103.1318,l,1,[],[],[],[],[],[],[],0.934,1,103.1394,103.6478,0,2,2,13,1,2014,MAS,CON,150,siglo,,l,0.934,,,,,,,,,,,,,,,,,,
,,,,,,d0857d073f61d696f240baab,66a626ef09d4e21e1a8894ec,67373fbca88640a6062be1ba,2024-11-15_13h36.37.253,Tarea de género gramatical,2024.2.2,Win32,59.88023952,,,,,,,,,,,,,,,,,,,,,,,,103.6498,105.5691,a,0,[],[],[],[],[],[],[],1.2417,0,105.5703,106.0815,0,3,3,8,1,2009,MAS,DIS,150,puerto,la,l,1.2417,,,,,,,,,,,,,,,,,,
,,,,,,d0857d073f61d696f240baab,66a626ef09d4e21e1a8894ec,67373fbca88640a6062be1ba,2024-11-15_13h36.37.253,Tarea de género gramatical,2024.2.2,Win32,59.88023952,,,,,,,,,,,,,,,,,,,,,,,,106.0825,108.6315,a,1,[],[],[],[],[],[],[],1.8752,1,108.6321,109.1315,0,4,4,6,1,2007,FEM,AGR,150,navaja,la,a,1.8752,,,,,,,,,,,,,,,,,,
,,,,,,d0857d073f61d696f240baab,66a626ef09d4e21e1a8894ec,67373fbca88640a6062be1ba,2024-11-15_13h36.37.253,Tarea de género gramatical,2024.2.2,Win32,59.88023952,,,,,,,,,,,,,,,,,,,,,,,,109.1323,110.4062,a,1,[],[],[],[],[],[],[],0.5917,1,110.4063,110.8978,0,5,5,3,1,2004,FEM,AGR,150,venta,la,a,0.5917,,,,,,,,,,,,,,,,,,
,,,,,,d0857d073f61d696f240baab,66a626ef09d4e21e1a8894ec,67373fbca88640a6062be1ba,2024-11-15_13h36.37.253,Tarea de género gramatical,2024.2.2,Win32,59.88023952,,,,,,,,,,,,,,,,,,,,,,,,110.8988,113.2485,l,1,[],[],[],[],[],[],[],1.6759,1,113.2486,113.7523,0,6,6,14,1,2015,MAS,DIS,150,robot,la,l,1.6759,,,,,,,,,,,,,,,,,,
,,,,,,d0857d073f61d696f240baab,66a626ef09d4e21e1a8894ec,67373fbca88640a6062be1ba,2024-11-15_13h36.37.253,Tarea de género gramatical,2024.2.2,Win32,59.88023952,,,,,,,,,,,,,,,,,,,,,,,,113.7531,115.3318,a,1,[],[],[],[],[],[],[],0.9139,1,115.3318,115.823,0,7,7,4,1,2005,FEM,CON,150,placa,,a,0.9139,,,,,,,,,,,,,,,,,,
,,,,,,d0857d073f61d696f240baab,66a626ef09d4e21e1a8894ec,67373fbca88640a6062be1ba,2024-11-15_13h36.37.253,Tarea de género gramatical,2024.2.2,Win32,59.88023952,,,,,,,,,,,,,,,,,,,,,,,,115.8238,117.2249,a,1,[],[],[],[],[],[],[],0.7187,1,117.225,117.7189,0,8,8,7,1,2008,FEM,CON,150,siesta,,a,0.7187,,,,,,,,,,,,,,,,,,
,,,,,,d0857d073f61d696f240baab,66a626ef09d4e21e1a8894ec,67373fbca88640a6062be1ba,2024-11-15_13h36.37.253,Tarea de género gramatical,2024.2.2,Win32,59.88023952,,,,,,,,,,,,,,,,,,,,,,,,117.7199,119.4483,l,1,[],[],[],[],[],[],[],1.0428,1,119.4484,119.9394,0,9,9,12,1,2013,MAS,AGR,150,acero,el,l,1.0428,,,,,,,,,,,,,,,,,,
,,,,,,d0857d073f61d696f240baab,66a626ef09d4e21e1a8894ec,67373fbca88640a6062be1ba,2024-11-15_13h36.37.253,Tarea de género gramatical,2024.2.2,Win32,59.88023952,,,,,,,,,,,,,,,,,,,,,,,,119.9403,121.5524,l,0,[],[],[],[],[],[],[],0.9294,0,121.553,122.0645,0,10,10,5,1,2006,FEM,DIS,150,serie,el,a,0.9294,,,,,,,,,,,,,,,,,,
,,,,,,d0857d073f61d696f240baab,66a626ef09d4e21e1a8894ec,67373fbca88640a6062be1ba,2024-11-15_13h36.37.253,Tarea de género gramatical,2024.2.2,Win32,59.88023952,,,,,,,,,,,,,,,,,,,,,,,,122.0654,123.6248,a,1,[],[],[],[],[],[],[],0.8852,1,123.6253,124.119,0,11,11,2,1,2003,FEM,DIS,150,daga,el,a,0.8852,,,,,,,,,,,,,,,,,,
,,,,,,d0857d073f61d696f240baab,66a626ef09d4e21e1a8894ec,67373fbca88640a6062be1ba,2024-11-15_13h36.37.253,Tarea de género gramatical,2024.2.2,Win32,59.88023952,,,,,,,,,,,,,,,,,,,,,,,,124.1198,126.2984,a,1,[],[],[],[],[],[],[],1.4837,1,126.2985,126.8145,0,12,12,0,1,2001,FEM,AGR,150,nuca,la,a,1.4837,,,,,,,,,,,,,,,,,,
,,,,,,d0857d073f61d696f240baab,66a626ef09d4e21e1a8894ec,67373fbca88640a6062be1ba,2024-11-15_13h36.37.253,Tarea de género gramatical,2024.2.2,Win32,59.88023952,,,,,,,,,,,,,,,,,,,,,,,,126.8155,128.7915,l,1,[],[],[],[],[],[],[],1.3027,1,128.7915,129.2979,0,13,13,11,1,2012,MAS,DIS,150,clima,la,l,1.3027,,,,,,,,,,,,,,,,,,
,,,,,,d0857d073f61d696f240baab,66a626ef09d4e21e1a8894ec,67373fbca88640a6062be1ba,2024-11-15_13h36.37.253,Tarea de género gramatical,2024.2.2,Win32,59.88023952,,,,,,,,,,,,,,,,,,,,,,,,129.2986,131.0482,l,1,[],[],[],[],[],[],[],1.0671,1,131.0483,131.565,0,14,14,9,1,2010,MAS,AGR,150,vecino,el,l,1.0671,,,,,,,,,,,,,,,,,,
,,,,,,d0857d073f61d696f240baab,66a626ef09d4e21e1a8894ec,67373fbca88640a6062be1ba,2024-11-15_13h36.37.253,Tarea de género gramatical,2024.2.2,Win32,59.88023952,,,138.3013,146.3917,space,-0.002777778,-0.410185185,0,0,0,,,,,,,,,,,,8.0758,,146.4475,147.9358,l,1,[],[],[],[],[],[],[],0.8221,1,147.9359,148.4357,,,,,,394,MAS,AGR,150,examen,el,l,0.8221,,148.436,148.4397,-0.002777778,-0.410185185,0,0,0,,0,0,0,393,1,,,,
,,,,,,d0857d073f61d696f240baab,66a626ef09d4e21e1a8894ec,67373fbca88640a6062be1ba,2024-11-15_13h36.37.253,Tarea de género gramatical,2024.2.2,Win32,59.88023952,,,,,,,,,,,,,,,,,,,,,,,,148.4405,149.7524,a,1,[],[],[],[],[],[],[],0.6341,1,149.7525,150.2524,,,,,,37,FEM,AGR,150,sala,la,a,0.6341,,150.2526,150.2526,-0.002777778,-0.410185185,0,0,0,,0,1,1,36,1,,,,
,,,,,,d0857d073f61d696f240baab,66a626ef09d4e21e1a8894ec,67373fbca88640a6062be1ba,2024-11-15_13h36.37.253,Tarea de género gramatical,2024.2.2,Win32,59.88023952,,,,,,,,,,,,,,,,,,,,,,,,150.2535,151.4525,l,1,[],[],[],[],[],[],[],0.5169,1,151.4526,151.9524,,,,,,161,MAS,CON,150,chico,,l,0.5169,,151.9535,151.9541,-0.002777778,-0.410185185,0,0,0,,0,2,2,160,1,,,,
,,,,,,d0857d073f61d696f240baab,66a626ef09d4e21e1a8894ec,67373fbca88640a6062be1ba,2024-11-15_13h36.37.253,Tarea de género gramatical,2024.2.2,Win32,59.88023952,,,,,,,,,,,,,,,,,,,,,,,,151.9547,153.2358,l,1,[],[],[],[],[],[],[],0.5957,1,153.2359,153.7357,,,,,,347,MAS,CON,150,cuello,,l,0.5957,,153.7357,153.7359,-0.002777778,-0.410185185,0,0,0,,0,3,3,346,1,,,,
,,,,,,d0857d073f61d696f240baab,66a626ef09d4e21e1a8894ec,67373fbca88640a6062be1ba,2024-11-15_13h36.37.253,Tarea de género gramatical,2024.2.2,Win32,59.88023952,,,,,,,,,,,,,,,,,,,,,,,,153.7367,154.9024,l,1,[],[],[],[],[],[],[],0.4888,1,154.9025,155.4024,,,,,,101,MAS,CON,150,giro,,l,0.4888,,155.4024,155.4025,-0.002777778,-0.410185185,0,0,0,,0,4,4,100,1,,,,
,,,,,,d0857d073f61d696f240baab,66a626ef09d4e21e1a8894ec,67373fbca88640a6062be1ba,2024-11-15_13h36.37.253,Tarea de género gramatical,2024.2.2,Win32,59.88023952,,,,,,,,,,,,,,,,,,,,,,,,155.4035,156.9025,l,1,[],[],[],[],[],[],[],0.8201,1,156.9025,157.4026,,,,,,234,MAS,DIS,150,héroe,la,l,0.8201,,157.4027,157.4027,-0.002777778,-0.410185185,0,0,0,,0,5,5,233,1,,,,
,,,,,,d0857d073f61d696f240baab,66a626ef09d4e21e1a8894ec,67373fbca88640a6062be1ba,2024-11-15_13h36.37.253,Tarea de género gramatical,2024.2.2,Win32,59.88023952,,,,,,,,,,,,,,,,,,,,,,,,157.404,158.6858,l,1,[],[],[],[],[],[],[],0.6001,1,158.6859,159.1857,,,,,,426,MAS,DIS,150,pánico,la,l,0.6001,,159.187,159.1876,-0.002777778,-0.410185185,0,0,0,,0,6,6,425,1,,,,
,,,,,,d0857d073f61d696f240baab,66a626ef09d4e21e1a8894ec,67373fbca88640a6062be1ba,2024-11-15_13h36.37.253,Tarea de género gramatical,2024.2.2,Win32,59.88023952,,,,,,,,,,,,,,,,,,,,,,,,159.1883,160.5524,a,1,[],[],[],[],[],[],[],0.6885,1,160.5524,161.0525,,,,,,69,FEM,DIS,150,rata,el,a,0.6885,,161.0525,161.0526,-0.002777778,-0.410185185,0,0,0,,0,7,7,68,1,,,,
,,,,,,d0857d073f61d696f240baab,66a626ef09d4e21e1a8894ec,67373fbca88640a6062be1ba,2024-11-15_13h36.37.253,Tarea de género gramatical,2024.2.2,Win32,59.88023952,,,,,,,,,,,,,,,,,,,,,,,,161.0533,162.4025,a,1,[],[],[],[],[],[],[],0.6671,1,162.4025,162.9024,,,,,,410,FEM,CON,150,piedad,,a,0.6671,,162.9024,162.9024,-0.002777778,-0.410185185,0,0,0,,0,8,8,409,1,,,,
,,,,,,d0857d073f61d696f240baab,66a626ef09d4e21e1a8894ec,67373fbca88640a6062be1ba,2024-11-15_13h36.37.253,Tarea de género gramatical,2024.2.2,Win32,59.88023952,,,,,,,,,,,,,,,,,,,,,,,,162.9033,164.1524,a,1,[],[],[],[],[],[],[],0.5721,1,164.1525,164.6524,,,,,,321,FEM,DIS,150,comida,el,a,0.5721,,164.6524,164.6526,-0.002777778,-0.410185185,0,0,0,,0,9,9,320,1,,,,
,,,,,,d0857d073f61d696f240baab,66a626ef09d4e21e1a8894ec,67373fbca88640a6062be1ba,2024-11-15_13h36.37.253,Tarea de género gramatical,2024.2.2,Win32,59.88023952,,,,,,,,,,,,,,,,,,,,,,,,164.6535,165.8524,l,1,[],[],[],[],[],[],[],0.5183,1,165.8525,166.3524,,,,,,414,MAS,DIS,150,sótano,la,l,0.5183,,166.3524,166.3526,-0.002777778,-0.410185185,0,0,0,,0,10,10,413,1,,,,
,,,,,,d0857d073f61d696f240baab,66a626ef09d4e21e1a8894ec,67373fbca88640a6062be1ba,2024-11-15_13h36.37.253,Tarea de género gramatical,2024.2.2,Win32,59.88023952,,,,,,,,,,,,,,,,,,,,,,,,166.3533,167.6357,a,1,[],[],[],[],[],[],[],0.5959,1,167.6358,168.1358,,,,,,13,FEM,AGR,150,hija,la,a,0.5959,,168.1371,168.1378,-0.002777778,-0.410185185,0,0,0,,0,11,11,12,1,,,,
,,,,,,d0857d073f61d696f240baab,66a626ef09d4e21e1a8894ec,67373fbca88640a6062be1ba,2024-11-15_13h36.37.253,Tarea de género gramatical,2024.2.2,Win32,59.88023952,,,,,,,,,,,,,,,,,,,,,,,,168.1388,169.569,l,0,[],[],[],[],[],[],[],0.7507,0,169.5697,170.069,,,,,,99,FEM,DIS,150,fase,el,a,0.7507,,170.0691,170.0692,-0.002777778,-0.410185185,0,0,0,,0,12,12,98,1,,,,
,,,,,,d0857d073f61d696f240baab,66a626ef09d4e21e1a8894ec,67373fbca88640a6062be1ba,2024-11-15_13h36.37.253,Tarea de género gramatical,2024.2.2,Win32,59.88023952,,,,,,,,,,,,,,,,,,,,,,,,170.07,171.4691,a,1,[],[],[],[],[],[],[],0.7124,1,171.4697,171.969,,,,,,115,FEM,AGR,150,seda,la,a,0.7124,,171.9691,171.9691,-0.002777778,-0.410185185,0,0,0,,0,13,13,114,1,,,,
,,,,,,d0857d073f61d696f240baab,66a626ef09d4e21e1a8894ec,67373fbca88640a6062be1ba,2024-11-15_13h36.37.253,Tarea de género gramatical,2024.2.2,Win32,59.88023952,,,,,,,,,,,,,,,,,,,,,,,,171.9698,173.2525,a,1,[],[],[],[],[],[],[],0.6054,1,173.2525,173.7525,,,,,,345,FEM,DIS,150,pierna,el,a,0.6054,,173.7525,173.7526,-0.002777778,-0.410185185,0,0,0,,0,14,14,344,1,,,,
,,,,,,d0857d073f61d696f240baab,66a626ef09d4e21e1a8894ec,67373fbca88640a6062be1ba,2024-11-15_13h36.37.253,Tarea de género gramatical,2024.2.2,Win32,59.88023952,,,,,,,,,,,,,,,,,,,,,,,,173.7533,174.9857,l,1,[],[],[],[],[],[],[],0.5499,1,174.9857,175.4858,,,,,,191,MAS,CON,150,dolor,,l,0.5499,,175.4867,175.4872,-0.002777778,-0.410185185,0,0,0,,0,15,15,190,1,,,,
,,,,,,d0857d073f61d696f240baab,66a626ef09d4e21e1a8894ec,67373fbca88640a6062be1ba,2024-11-15_13h36.37.253,Tarea de género gramatical,2024.2.2,Win32,59.88023952,,,,,,,,,,,,,,,,,,,,,,,,175.4879,176.7357,a,1,[],[],[],[],[],[],[],0.5671,1,176.7358,177.2358,,,,,,314,FEM,CON,150,señora,,a,0.5671,,177.2358,177.2358,-0.002777778,-0.410185185,0,0,0,,0,16,16,313,1,,,,
,,,,,,d0857d073f61d696f240baab,66a626ef09d4e21e1a8894ec,67373fbca88640a6062be1ba,2024-11-15_13h36.37.253,Tarea de género gramatical,2024.2.2,Win32,59.88023952,,,,,,,,,,,,,,,,,,,,,,,,177.2367,178.4357,l,1,[],[],[],[],[],[],[],0.5174,1,178.4358,178.9357,,,,,,82,MAS,AGR,150,tubo,el,l,0.5174,,178.9357,178.9358,-0.002777778,-0.410185185,0,0,0,,0,17,17,81,1,,,,
,,,,,,d0857d073f61d696f240baab,66a626ef09d4e21e1a8894ec,67373fbca88640a6062be1ba,2024-11-15_13h36.37.253,Tarea de género gramatical,2024.2.2,Win32,59.88023952,,,,,,,,,,,,,,,,,,,,,,,,178.9366,180.2191,a,1,[],[],[],[],[],[],[],0.6003,1,180.2191,180.7191,,,,,,33,FEM,DIS,150,boda,el,a,0.6003,,180.7192,180.7193,-0.002777778,-0.410185185,0,0,0,,0,18,18,32,1,,,,
,,,,,,d0857d073f61d696f240baab,66a626ef09d4e21e1a8894ec,67373fbca88640a6062be1ba,2024-11-15_13h36.37.253,Tarea de género gramatical,2024.2.2,Win32,59.88023952,,,,,,,,,,,,,,,,,,,,,,,,180.72,181.9192,l,1,[],[],[],[],[],[],[],0.5171,1,181.9193,182.4191,,,,,,251,MAS,CON,150,dueño,,l,0.5171,,182.4192,182.4192,-0.002777778,-0.410185185,0,0,0,,0,19,19,250,1,,,,
,,,,,,d0857d073f61d696f240baab,66a626ef09d4e21e1a8894ec,67373fbca88640a6062be1ba,2024-11-15_13h36.37.253,Tarea de género gramatical,2024.2.2,Win32,59.88023952,,,,,,,,,,,,,,,,,,,,,,,,182.42,183.6526,a,1,[],[],[],[],[],[],[],0.5543,1,183.6526,184.1523,,,,,,139,FEM,AGR,150,pipa,la,a,0.5543,,184.1534,184.1539,-0.002777778,-0.410185185,0,0,0,,0,20,20,138,1,,,,
,,,,,,d0857d073f61d696f240baab,66a626ef09d4e21e1a8894ec,67373fbca88640a6062be1ba,2024-11-15_13h36.37.253,Tarea de género gramatical,2024.2.2,Win32,59.88023952,,,,,,,,,,,,,,,,,,,,,,,,184.1545,185.4024,a,1,[],[],[],[],[],[],[],0.5681,1,185.4024,185.9024,,,,,,73,FEM,AGR,150,roca,la,a,0.5681,,185.9025,185.9025,-0.002777778,-0.410185185,0,0,0,,0,21,21,72,1,,,,
,,,,,,d0857d073f61d696f240baab,66a626ef09d4e21e1a8894ec,67373fbca88640a6062be1ba,2024-11-15_13h36.37.253,Tarea de género gramatical,2024.2.2,Win32,59.88023952,,,,,,,,,,,,,,,,,,,,,,,,185.9033,187.1524,l,1,[],[],[],[],[],[],[],0.5668,1,187.1524,187.6524,,,,,,108,MAS,DIS,150,hilo,la,l,0.5668,,187.6524,187.6525,-0.002777778,-0.410185185,0,0,0,,0,22,22,107,1,,,,
,,,,,,d0857d073f61d696f240baab,66a626ef09d4e21e1a8894ec,67373fbca88640a6062be1ba,2024-11-15_13h36.37.253,Tarea de género gramatical,2024.2.2,Win32,59.88023952,,,,,,,,,,,,,,,,,,,,,,,,187.6531,189.119,a,1,[],[],[],[],[],[],[],0.7887,1,189.1191,189.6191,,,,,,307,FEM,AGR,150,suerte,la,a,0.7887,,189.6191,189.6192,-0.002777778,-0.410185185,0,0,0,,0,23,23,306,1,,,,
,,,,,,d0857d073f61d696f240baab,66a626ef09d4e21e1a8894ec,67373fbca88640a6062be1ba,2024-11-15_13h36.37.253,Tarea de género gramatical,2024.2.2,Win32,59.88023952,,,,,,,,,,,,,,,,,,,,,,,,189.62,190.9024,l,1,[],[],[],[],[],[],[],0.5956,1,190.9025,191.4024,,,,,,35,MAS,CON,150,taxi,,l,0.5956,,191.4035,191.4039,-0.002777778,-0.410185185,0,0,0,,0,24,24,34,1,,,,
,,,,,,d0857d073f61d696f240baab,66a626ef09d4e21e1a8894ec,67373fbca88640a6062be1ba,2024-11-15_13h36.37.253,Tarea de género gramatical,2024.2.2,Win32,59.88023952,,,,,,,,,,,,,,,,,,,,,,,,191.4045,192.6857,l,1,[],[],[],[],[],[],[],0.5998,1,192.6857,193.1858,,,,,,40,MAS,AGR,150,dios,el,l,0.5998,,193.1858,193.1858,-0.002777778,-0.410185185,0,0,0,,0,25,25,39,1,,,,
,,,,,,d0857d073f61d696f240baab,66a626ef09d4e21e1a8894ec,67373fbca88640a6062be1ba,2024-11-15_13h36.37.253,Tarea de género gramatical,2024.2.2,Win32,59.88023952,,,,,,,,,,,,,,,,,,,,,,,,193.1865,194.3524,a,1,[],[],[],[],[],[],[],0.484,1,194.3524,194.8524,,,,,,427,FEM,AGR,150,agenda,la,a,0.484,,194.8525,194.8526,-0.002777778,-0.410185185,0,0,0,,0,26,26,426,1,,,,
,,,,,,d0857d073f61d696f240baab,66a626ef09d4e21e1a8894ec,67373fbca88640a6062be1ba,2024-11-15_13h36.37.253,Tarea de género gramatical,2024.2.2,Win32,59.88023952,,,,,,,,,,,,,,,,,,,,,,,,194.8533,196.0024,a,1,[],[],[],[],[],[],[],0.4756,1,196.0025,196.5023,,,,,,194,FEM,CON,150,banda,,a,0.4756,,196.5024,196.5025,-0.002777778,-0.410185185,0,0,0,,0,27,27,193,1,,,,
,,,,,,d0857d073f61d696f240baab,66a626ef09d4e21e1a8894ec,67373fbca88640a6062be1ba,2024-11-15_13h36.37.253,Tarea de género gramatical,2024.2.2,Win32,59.88023952,,,,,,,,,,,,,,,,,,,,,,,,196.5034,197.6024,a,1,[],[],[],[],[],[],[],0.4124,1,197.6025,198.1024,,,,,,290,FEM,CON,150,cabra,,a,0.4124,,198.1024,198.1025,-0.002777778,-0.410185185,0,0,0,,0,28,28,289,1,,,,
,,,,,,d0857d073f61d696f240baab,66a626ef09d4e21e1a8894ec,67373fbca88640a6062be1ba,2024-11-15_13h36.37.253,Tarea de género gramatical,2024.2.2,Win32,59.88023952,,,,,,,,,,,,,,,,,,,,,,,,198.1033,199.3857,l,1,[],[],[],[],[],[],[],0.6007,1,199.3858,199.8858,,,,,,137,MAS,CON,150,coco,,l,0.6007,,199.8867,199.8872,-0.002777778,-0.410185185,0,0,0,,0,29,29,136,1,,,,
,,,,,,d0857d073f61d696f240baab,66a626ef09d4e21e1a8894ec,67373fbca88640a6062be1ba,2024-11-15_13h36.37.253,Tarea de género gramatical,2024.2.2,Win32,59.88023952,,,,,,,,,,,,,,,,,,,,,,,,199.8877,201.6691,l,1,[],[],[],[],[],[],[],1.0956,1,201.6691,202.169,,,,,,294,MAS,DIS,150,cable,la,l,1.0956,,202.1691,202.1692,-0.002777778,-0.410185185,0,0,0,,0,30,30,293,1,,,,
,,,,,,d0857d073f61d696f240baab,66a626ef09d4e21e1a8894ec,67373fbca88640a6062be1ba,2024-11-15_13h36.37.253,Tarea de género gramatical,2024.2.2,Win32,59.88023952,,,,,,,,,,,,,,,,,,,,,,,,202.17,203.4023,a,1,[],[],[],[],[],[],[],0.5476,1,203.4025,203.9023,,,,,,368,FEM,CON,150,gracia,,a,0.5476,,203.9024,203.9024,-0.002777778,-0.410185185,0,0,0,,0,31,31,367,1,,,,
,,,,,,d0857d073f61d696f240baab,66a626ef09d4e21e1a8894ec,67373fbca88640a6062be1ba,2024-11-15_13h36.37.253,Tarea de género gramatical,2024.2.2,Win32,59.88023952,,,,,,,,,,,,,,,,,,,,,,,,203.9031,205.3357,a,1,[],[],[],[],[],[],[],0.7508,1,205.3358,205.8358,,,,,,313,FEM,AGR,150,ciudad,la,a,0.7508,,205.8358,205.8359,-0.002777778,-0.410185185,0,0,0,,0,32,32,312,1,,,,
,,,,,,d0857d073f61d696f240baab,66a626ef09d4e21e1a8894ec,67373fbca88640a6062be1ba,2024-11-15_13h36.37.253,Tarea de género gramatical,2024.2.2,Win32,59.88023952,,,,,,,,,,,,,,,,,,,,,,,,205.8366,207.0024,a,1,[],[],[],[],[],[],[],0.4834,1,207.0025,207.5024,,,,,,415,FEM,AGR,150,cabina,la,a,0.4834,,207.5034,207.5044,-0.002777778,-0.410185185,0,0,0,,0,33,33,414,1,,,,
,,,,,,d0857d073f61d696f240baab,66a626ef09d4e21e1a8894ec,67373fbca88640a6062be1ba,2024-11-15_13h36.37.253,Tarea de género gramatical,2024.2.2,Win32,59.88023952,,,,,,,,,,,,,,,,,,,,,,,,207.505,208.7524,l,1,[],[],[],[],[],[],[],0.5685,1,208.7525,209.2523,,,,,,12,MAS,DIS,150,plan,la,l,0.5685,,209.2525,209.2525,-0.002777778,-0.410185185,0,0,0,,0,34,34,11,1,,,,
,,,,,,d0857d073f61d696f240baab,66a626ef09d4e21e1a8894ec,67373fbca88640a6062be1ba,2024-11-15_13h36.37.253,Tarea de género gramatical,2024.2.2,Win32,59.88023952,,,,,,,,,,,,,,,,,,,,,,,,209.2532,210.5025,l,1,[],[],[],[],[],[],[],0.572,1,210.5025,211.0025,,,,,,419,MAS,CON,150,cuento,,l,0.572,,211.0025,211.0025,-0.002777778,-0.410185185,0,0,0,,0,35,35,418,1,,,,
,,,,,,d0857d073f61d696f240baab,66a626ef09d4e21e1a8894ec,67373fbca88640a6062be1ba,2024-11-15_13h36.37.253,Tarea de género gramatical,2024.2.2,Win32,59.88023952,,,,,,,,,,,,,,,,,,,,,,,,211.0032,212.4358,a,1,[],[],[],[],[],[],[],0.7498,1,212.4359,212.9357,,,,,,255,FEM,DIS,150,tribu,el,a,0.7498,,212.9358,212.9359,-0.002777778,-0.410185185,0,0,0,,0,36,36,254,1,,,,
,,,,,,d0857d073f61d696f240baab,66a626ef09d4e21e1a8894ec,67373fbca88640a6062be1ba,2024-11-15_13h36.37.253,Tarea de género gramatical,2024.2.2,Win32,59.88023952,,,,,,,,,,,,,,,,,,,,,,,,212.9366,214.1024,a,1,[],[],[],[],[],[],[],0.4791,1,214.1024,214.6024,,,,,,242,FEM,CON,150,pizza,,a,0.4791,,214.6025,214.6025,-0.002777778,-0.410185185,0,0,0,,0,37,37,241,1,,,,
,,,,,,d0857d073f61d696f240baab,66a626ef09d4e21e1a8894ec,67373fbca88640a6062be1ba,2024-11-15_13h36.37.253,Tarea de género gramatical,2024.2.2,Win32,59.88023952,,,,,,,,,,,,,,,,,,,,,,,,214.6034,215.7691,l,1,[],[],[],[],[],[],[],0.4787,1,215.7692,216.2691,,,,,,250,MAS,AGR,150,cerdo,el,l,0.4787,,216.2706,216.2711,-0.002777778,-0.410185185,0,0,0,,0,38,38,249,1,,,,
,,,,,,d0857d073f61d696f240baab,66a626ef09d4e21e1a8894ec,67373fbca88640a6062be1ba,2024-11-15_13h36.37.253,Tarea de género gramatical,2024.2.2,Win32,59.88023952,,,,,,,,,,,,,,,,,,,,,,,,216.2716,217.6191,a,1,[],[],[],[],[],[],[],0.6722,1,217.6192,218.119,,,,,,231,FEM,DIS,150,bruja,el,a,0.6722,,218.119,218.1191,-0.002777778,-0.410185185,0,0,0,,0,39,39,230,1,,,,
,,,,,,d0857d073f61d696f240baab,66a626ef09d4e21e1a8894ec,67373fbca88640a6062be1ba,2024-11-15_13h36.37.253,Tarea de género gramatical,2024.2.2,Win32,59.88023952,,,,,,,,,,,,,,,,,,,,,,,,218.1199,219.219,a,1,[],[],[],[],[],[],[],0.4173,1,219.2191,219.719,,,,,,217,FEM,AGR,150,tarea,la,a,0.4173,,219.7191,219.7191,-0.002777778,-0.410185185,0,0,0,,0,40,40,216,1,,,,
,,,,,,d0857d073f61d696f240baab,66a626ef09d4e21e1a8894ec,67373fbca88640a6062be1ba,2024-11-15_13h36.37.253,Tarea de género gramatical,2024.2.2,Win32,59.88023952,,,,,,,,,,,,,,,,,,,,,,,,219.72,221.0024,l,1,[],[],[],[],[],[],[],0.5967,1,221.0025,221.5024,,,,,,196,MAS,AGR,150,barco,el,l,0.5967,,221.5024,221.5025,-0.002777778,-0.410185185,0,0,0,,0,41,41,195,1,,,,
,,,,,,d0857d073f61d696f240baab,66a626ef09d4e21e1a8894ec,67373fbca88640a6062be1ba,2024-11-15_13h36.37.253,Tarea de género gramatical,2024.2.2,Win32,59.88023952,,,,,,,,,,,,,,,,,,,,,,,,221.5032,222.7025,l,1,[],[],[],[],[],[],[],0.5164,1,222.7026,223.2024,,,,,,323,MAS,CON,150,marido,,l,0.5164,,223.2034,223.204,-0.002777778,-0.410185185,0,0,0,,0,42,42,322,1,,,,
,,,,,,d0857d073f61d696f240baab,66a626ef09d4e21e1a8894ec,67373fbca88640a6062be1ba,2024-11-15_13h36.37.253,Tarea de género gramatical,2024.2.2,Win32,59.88023952,,,,,,,,,,,,,,,,,,,,,,,,223.2045,224.6858,a,1,[],[],[],[],[],[],[],0.8009,1,224.6859,225.1857,,,,,,253,FEM,AGR,150,aldea,la,a,0.8009,,225.1857,225.1859,-0.002777778,-0.410185185,0,0,0,,0,43,43,252,1,,,,
,,,,,,d0857d073f61d696f240baab,66a626ef09d4e21e1a8894ec,67373fbca88640a6062be1ba,2024-11-15_13h36.37.253,Tarea de género gramatical,2024.2.2,Win32,59.88023952,,,,,,,,,,,,,,,,,,,,,,,,225.1866,226.4191,l,1,[],[],[],[],[],[],[],0.5505,1,226.4191,226.919,,,,,,412,MAS,AGR,150,espejo,el,l,0.5505,,226.919,226.9191,-0.002777778,-0.410185185,0,0,0,,0,44,44,411,1,,,,
,,,,,,d0857d073f61d696f240baab,66a626ef09d4e21e1a8894ec,67373fbca88640a6062be1ba,2024-11-15_13h36.37.253,Tarea de género gramatical,2024.2.2,Win32,59.88023952,,,,,,,,,,,,,,,,,,,,,,,,226.9199,228.1191,l,1,[],[],[],[],[],[],[],0.5238,1,228.1191,228.6191,,,,,,246,MAS,DIS,150,humor,la,l,0.5238,,228.6191,228.6192,-0.002777778,-0.410185185,0,0,0,,0,45,45,245,1,,,,
,,,,,,d0857d073f61d696f240baab,66a626ef09d4e21e1a8894ec,67373fbca88640a6062be1ba,2024-11-15_13h36.37.253,Tarea de género gramatical,2024.2.2,Win32,59.88023952,,,,,,,,,,,,,,,,,,,,,,,,228.6199,229.7191,l,1,[],[],[],[],[],[],[],0.4122,1,229.7192,230.2191,,,,,,238,MAS,AGR,150,norte,el,l,0.4122,,230.2191,230.2192,-0.002777778,-0.410185185,0,0,0,,0,46,46,237,1,,,,
,,,,,,d0857d073f61d696f240baab,66a626ef09d4e21e1a8894ec,67373fbca88640a6062be1ba,2024-11-15_13h36.37.253,Tarea de género gramatical,2024.2.2,Win32,59.88023952,,,,,,,,,,,,,,,,,,,,,,,,230.2198,231.3023,l,1,[],[],[],[],[],[],[],0.4031,1,231.3024,231.8024,,,,,,334,MAS,AGR,150,ataque,el,l,0.4031,,231.8035,231.8042,-0.002777778,-0.410185185,0,0,0,,0,47,47,333,1,,,,
,,,,,,d0857d073f61d696f240baab,66a626ef09d4e21e1a8894ec,67373fbca88640a6062be1ba,2024-11-15_13h36.37.253,Tarea de género gramatical,2024.2.2,Win32,59.88023952,,,,,,,,,,,,,,,,,,,,,,,,231.8049,233.4358,l,1,[],[],[],[],[],[],[],0.9487,1,233.4358,233.9357,,,,,,228,MAS,DIS,150,nivel,la,l,0.9487,,233.9358,233.9358,-0.002777778,-0.410185185,0,0,0,,0,48,48,227,1,,,,
,,,,,,d0857d073f61d696f240baab,66a626ef09d4e21e1a8894ec,67373fbca88640a6062be1ba,2024-11-15_13h36.37.253,Tarea de género gramatical,2024.2.2,Win32,59.88023952,,,,,,,,,,,,,,,,,,,,,,,,233.9365,235.369,l,0,[],[],[],[],[],[],[],0.7547,0,235.3698,235.8691,,,,,,247,FEM,AGR,150,frase,la,a,0.7547,,235.8691,235.8692,-0.002777778,-0.410185185,0,0,0,,0,49,49,246,1,,,,
,,,,,,d0857d073f61d696f240baab,66a626ef09d4e21e1a8894ec,67373fbca88640a6062be1ba,2024-11-15_13h36.37.253,Tarea de género gramatical,2024.2.2,Win32,59.88023952,,,,,,,,,,,,,,,,,,,,,,,,235.8699,237.0691,a,1,[],[],[],[],[],[],[],0.5199,1,237.0696,237.569,,,,,,241,FEM,AGR,150,pasta,la,a,0.5199,,237.5691,237.5692,-0.002777778,-0.410185185,0,0,0,,0,50,50,240,1,,,,
,,,,,,d0857d073f61d696f240baab,66a626ef09d4e21e1a8894ec,67373fbca88640a6062be1ba,2024-11-15_13h36.37.253,Tarea de género gramatical,2024.2.2,Win32,59.88023952,,,,,,,,,,,,,,,,,,,,,,,,237.5698,238.7358,a,1,[],[],[],[],[],[],[],0.4846,1,238.7359,239.2357,,,,,,416,FEM,CON,150,colina,,a,0.4846,,239.2365,239.237,-0.002777778,-0.410185185,0,0,0,,0,51,51,415,1,,,,
,,,,,,d0857d073f61d696f240baab,66a626ef09d4e21e1a8894ec,67373fbca88640a6062be1ba,2024-11-15_13h36.37.253,Tarea de género gramatical,2024.2.2,Win32,59.88023952,,,,,,,,,,,,,,,,,,,,,,,,239.2375,240.519,l,0,[],[],[],[],[],[],[],0.6,0,240.5197,241.0192,,,,,,225,FEM,DIS,150,pieza,el,a,0.6,,241.0193,241.0194,-0.002777778,-0.410185185,0,0,0,,0,52,52,224,1,,,,
,,,,,,d0857d073f61d696f240baab,66a626ef09d4e21e1a8894ec,67373fbca88640a6062be1ba,2024-11-15_13h36.37.253,Tarea de género gramatical,2024.2.2,Win32,59.88023952,,,,,,,,,,,,,,,,,,,,,,,,241.02,242.6191,a,1,[],[],[],[],[],[],[],0.9119,1,242.6198,243.119,,,,,,127,FEM,AGR,150,cuna,la,a,0.9119,,243.119,243.1192,-0.002777778,-0.410185185,0,0,0,,0,53,53,126,1,,,,
,,,,,,d0857d073f61d696f240baab,66a626ef09d4e21e1a8894ec,67373fbca88640a6062be1ba,2024-11-15_13h36.37.253,Tarea de género gramatical,2024.2.2,Win32,59.88023952,,,,,,,,,,,,,,,,,,,,,,,,243.1198,244.1191,a,1,[],[],[],[],[],[],[],0.3171,1,244.1192,244.6191,,,,,,213,FEM,DIS,150,magia,el,a,0.3171,,244.6191,244.6192,-0.002777778,-0.410185185,0,0,0,,0,54,54,212,1,,,,
,,,,,,d0857d073f61d696f240baab,66a626ef09d4e21e1a8894ec,67373fbca88640a6062be1ba,2024-11-15_13h36.37.253,Tarea de género gramatical,2024.2.2,Win32,59.88023952,,,,,,,,,,,,,,,,,,,,,,,,244.62,245.7525,a,1,[],[],[],[],[],[],[],0.4502,1,245.7527,246.2524,,,,,,279,FEM,DIS,150,selva,el,a,0.4502,,246.2524,246.2526,-0.002777778,-0.410185185,0,0,0,,0,55,55,278,1,,,,
,,,,,,d0857d073f61d696f240baab,66a626ef09d4e21e1a8894ec,67373fbca88640a6062be1ba,2024-11-15_13h36.37.253,Tarea de género gramatical,2024.2.2,Win32,59.88023952,,,,,,,,,,,,,,,,,,,,,,,,246.2533,247.4524,l,1,[],[],[],[],[],[],[],0.5129,1,247.4525,247.9524,,,,,,424,MAS,AGR,150,rastro,el,l,0.5129,,247.9532,247.9537,-0.002777778,-0.410185185,0,0,0,,0,56,56,423,1,,,,
,,,,,,d0857d073f61d696f240baab,66a626ef09d4e21e1a8894ec,67373fbca88640a6062be1ba,2024-11-15_13h36.37.253,Tarea de género gramatical,2024.2.2,Win32,59.88023952,,,,,,,,,,,,,,,,,,,,,,,,247.9542,249.2024,a,1,[],[],[],[],[],[],[],0.5668,1,249.2024,249.7024,,,,,,123,FEM,DIS,150,tela,el,a,0.5668,,249.7024,249.7025,-0.002777778,-0.410185185,0,0,0,,0,57,57,122,1,,,,
,,,,,,d0857d073f61d696f240baab,66a626ef09d4e21e1a8894ec,67373fbca88640a6062be1ba,2024-11-15_13h36.37.253,Tarea de género gramatical,2024.2.2,Win32,59.88023952,,,,,,,,,,,,,,,,,,,,,,,,249.7033,250.9023,a,1,[],[],[],[],[],[],[],0.522,1,250.9024,251.4024,,,,,,351,FEM,DIS,150,espada,el,a,0.522,,251.4024,251.4025,-0.002777778,-0.410185185,0,0,0,,0,58,58,350,1,,,,
,,,,,,d0857d073f61d696f240baab,66a626ef09d4e21e1a8894ec,67373fbca88640a6062be1ba,2024-11-15_13h36.37.253,Tarea de género gramatical,2024.2.2,Win32,59.88023952,,,,,,,,,,,,,,,,,,,,,,,,251.4032,252.7524,a,1,[],[],[],[],[],[],[],0.6678,1,252.7524,253.2524,,,,,,87,FEM,DIS,150,risa,el,a,0.6678,,253.2524,253.2525,-0.002777778,-0.410185185,0,0,0,,0,59,59,86,1,,,,
,,,,,,d0857d073f61d696f240baab,66a626ef09d4e21e1a8894ec,67373fbca88640a6062be1ba,2024-11-15_13h36.37.253,Tarea de género gramatical,2024.2.2,Win32,59.88023952,,,,,,,,,,,,,,,,,,,,,,,,253.2531,254.6524,l,1,[],[],[],[],[],[],[],0.7216,1,254.6525,255.1524,,,,,,64,MAS,AGR,150,saco,el,l,0.7216,,255.1533,255.1538,-0.002777778,-0.410185185,0,0,0,,0,60,60,63,1,,,,
,,,,,,d0857d073f61d696f240baab,66a626ef09d4e21e1a8894ec,67373fbca88640a6062be1ba,2024-11-15_13h36.37.253,Tarea de género gramatical,2024.2.2,Win32,59.88023952,,,,,,,,,,,,,,,,,,,,,,,,255.1542,256.6357,a,1,[],[],[],[],[],[],[],0.8006,1,256.6358,257.1357,,,,,,272,FEM,CON,150,oreja,,a,0.8006,,257.1358,257.1359,-0.002777778,-0.410185185,0,0,0,,0,61,61,271,1,,,,
,,,,,,d0857d073f61d696f240baab,66a626ef09d4e21e1a8894ec,67373fbca88640a6062be1ba,2024-11-15_13h36.37.253,Tarea de género gramatical,2024.2.2,Win32,59.88023952,,,,,,,,,,,,,,,,,,,,,,,,257.1366,258.5692,l,1,[],[],[],[],[],[],[],0.75,1,258.5693,259.0691,,,,,,257,MAS,CON,150,pecho,,l,0.75,,259.0691,259.0693,-0.002777778,-0.410185185,0,0,0,,0,62,62,256,1,,,,
,,,,,,d0857d073f61d696f240baab,66a626ef09d4e21e1a8894ec,67373fbca88640a6062be1ba,2024-11-15_13h36.37.253,Tarea de género gramatical,2024.2.2,Win32,59.88023952,,,,,,,,,,,,,,,,,,,,,,,,259.0698,260.5023,a,1,[],[],[],[],[],[],[],0.7555,1,260.5025,261.0023,,,,,,265,FEM,AGR,150,rueda,la,a,0.7555,,261.0024,261.0025,-0.002777778,-0.410185185,0,0,0,,0,63,63,264,1,,,,
,,,,,,d0857d073f61d696f240baab,66a626ef09d4e21e1a8894ec,67373fbca88640a6062be1ba,2024-11-15_13h36.37.253,Tarea de género gramatical,2024.2.2,Win32,59.88023952,,,,,,,,,,,,,,,,,,,,,,,,261.0032,262.3524,a,1,[],[],[],[],[],[],[],0.6683,1,262.3524,262.8524,,,,,,79,FEM,AGR,150,mina,la,a,0.6683,,262.8524,262.8525,-0.002777778,-0.410185185,0,0,0,,0,64,64,78,1,,,,
,,,,,,d0857d073f61d696f240baab,66a626ef09d4e21e1a8894ec,67373fbca88640a6062be1ba,2024-11-15_13h36.37.253,Tarea de género gramatical,2024.2.2,Win32,59.88023952,,,,,,,,,,,,,,,,,,,,,,,,262.8533,264.4024,a,0,[],[],[],[],[],[],[],0.8753,0,264.403,264.9024,,,,,,6,MAS,DIS,150,lado,la,l,0.8753,,264.9032,264.9038,-0.002777778,-0.410185185,0,0,0,,0,65,65,5,1,,,,
,,,,,,d0857d073f61d696f240baab,66a626ef09d4e21e1a8894ec,67373fbca88640a6062be1ba,2024-11-15_13h36.37.253,Tarea de género gramatical,2024.2.2,Win32,59.88023952,,,,,,,,,,,,,,,,,,,,,,,,264.9043,266.3525,a,1,[],[],[],[],[],[],[],0.767,1,266.3532,266.8524,,,,,,393,FEM,DIS,150,alarma,el,a,0.767,,266.8524,266.8526,-0.002777778,-0.410185185,0,0,0,,0,66,66,392,1,,,,
,,,,,,d0857d073f61d696f240baab,66a626ef09d4e21e1a8894ec,67373fbca88640a6062be1ba,2024-11-15_13h36.37.253,Tarea de género gramatical,2024.2.2,Win32,59.88023952,,,,,,,,,,,,,,,,,,,,,,,,266.8532,268.3191,l,1,[],[],[],[],[],[],[],0.7887,1,268.3191,268.8191,,,,,,18,MAS,DIS,150,tren,la,l,0.7887,,268.8192,268.8192,-0.002777778,-0.410185185,0,0,0,,0,67,67,17,1,,,,
,,,,,,d0857d073f61d696f240baab,66a626ef09d4e21e1a8894ec,67373fbca88640a6062be1ba,2024-11-15_13h36.37.253,Tarea de género gramatical,2024.2.2,Win32,59.88023952,,,,,,,,,,,,,,,,,,,,,,,,268.8199,270.069,a,1,[],[],[],[],[],[],[],0.5666,1,270.069,270.5691,,,,,,237,FEM,DIS,150,ducha,el,a,0.5666,,270.5691,270.5692,-0.002777778,-0.410185185,0,0,0,,0,68,68,236,1,,,,
,,,,,,d0857d073f61d696f240baab,66a626ef09d4e21e1a8894ec,67373fbca88640a6062be1ba,2024-11-15_13h36.37.253,Tarea de género gramatical,2024.2.2,Win32,59.88023952,,,,,,,,,,,,,,,,,,,,,,,,270.5699,272.1524,a,1,[],[],[],[],[],[],[],0.9005,1,272.1525,272.6523,,,,,,159,FEM,DIS,150,clase,el,a,0.9005,,272.6536,272.6543,-0.002777778,-0.410185185,0,0,0,,0,69,69,158,1,,,,
,,,,,,d0857d073f61d696f240baab,66a626ef09d4e21e1a8894ec,67373fbca88640a6062be1ba,2024-11-15_13h36.37.253,Tarea de género gramatical,2024.2.2,Win32,59.88023952,,,,,,,,,,,,,,,,,,,,,,,,272.6549,273.9023,a,1,[],[],[],[],[],[],[],0.5718,1,273.9024,274.4025,,,,,,230,FEM,CON,150,regla,,a,0.5718,,274.4025,274.4026,-0.002777778,-0.410185185,0,0,0,,0,70,70,229,1,,,,
,,,,,,d0857d073f61d696f240baab,66a626ef09d4e21e1a8894ec,67373fbca88640a6062be1ba,2024-11-15_13h36.37.253,Tarea de género gramatical,2024.2.2,Win32,59.88023952,,,,,,,,,,,,,,,,,,,,,,,,274.4032,275.5527,l,1,[],[],[],[],[],[],[],0.4707,1,275.5527,276.0524,,,,,,305,MAS,CON,150,hombre,,l,0.4707,,276.0524,276.0525,-0.002777778,-0.410185185,0,0,0,,0,71,71,304,1,,,,
,,,,,,d0857d073f61d696f240baab,66a626ef09d4e21e1a8894ec,67373fbca88640a6062be1ba,2024-11-15_13h36.37.253,Tarea de género gramatical,2024.2.2,Win32,59.88023952,,,,,,,,,,,,,,,,,,,,,,,,276.0532,277.2691,a,1,[],[],[],[],[],[],[],0.5288,1,277.2691,277.7691,,,,,,8,FEM,CON,150,idea,,a,0.5288,,277.7691,277.7692,-0.002777778,-0.410185185,0,0,0,,0,72,72,7,1,,,,
,,,,,,d0857d073f61d696f240baab,66a626ef09d4e21e1a8894ec,67373fbca88640a6062be1ba,2024-11-15_13h36.37.253,Tarea de género gramatical,2024.2.2,Win32,59.88023952,,,,,,,,,,,,,,,,,,,,,,,,277.77,278.8524,a,1,[],[],[],[],[],[],[],0.3953,1,278.8524,279.3524,,,,,,200,FEM,CON,150,silla,,a,0.3953,,279.3525,279.3526,-0.002777778,-0.410185185,0,0,0,,0,73,73,199,1,,,,
,,,,,,d0857d073f61d696f240baab,66a626ef09d4e21e1a8894ec,67373fbca88640a6062be1ba,2024-11-15_13h36.37.253,Tarea de género gramatical,2024.2.2,Win32,59.88023952,,,,,,,,,,,,,,,,,,,,,,,,279.3532,280.5524,a,1,[],[],[],[],[],[],[],0.5154,1,280.5525,281.0525,,,,,,44,FEM,CON,150,zona,,a,0.5154,,281.0533,281.0538,-0.002777778,-0.410185185,0,0,0,,0,74,74,43,1,,,,
,,,,,,d0857d073f61d696f240baab,66a626ef09d4e21e1a8894ec,67373fbca88640a6062be1ba,2024-11-15_13h36.37.253,Tarea de género gramatical,2024.2.2,Win32,59.88023952,,,,,,,,,,,,,,,,,,,,,,,,281.0543,282.2192,a,1,[],[],[],[],[],[],[],0.4804,1,282.2192,282.7191,,,,,,428,FEM,CON,150,jugada,,a,0.4804,,282.7192,282.7192,-0.002777778,-0.410185185,0,0,0,,0,75,75,427,1,,,,
,,,,,,d0857d073f61d696f240baab,66a626ef09d4e21e1a8894ec,67373fbca88640a6062be1ba,2024-11-15_13h36.37.253,Tarea de género gramatical,2024.2.2,Win32,59.88023952,,,,,,,,,,,,,,,,,,,,,,,,282.7198,284.0857,l,1,[],[],[],[],[],[],[],0.6837,1,284.0858,284.5858,,,,,,353,MAS,CON,150,verano,,l,0.6837,,284.5858,284.5859,-0.002777778,-0.410185185,0,0,0,,0,76,76,352,1,,,,
,,,,,,d0857d073f61d696f240baab,66a626ef09d4e21e1a8894ec,67373fbca88640a6062be1ba,2024-11-15_13h36.37.253,Tarea de género gramatical,2024.2.2,Win32,59.88023952,,,,,,,,,,,,,,,,,,,,,,,,284.5865,285.819,l,1,[],[],[],[],[],[],[],0.5551,1,285.8191,286.3191,,,,,,354,MAS,DIS,150,camión,la,l,0.5551,,286.3191,286.3192,-0.002777778,-0.410185185,0,0,0,,0,77,77,353,1,,,,
,,,,,,d0857d073f61d696f240baab,66a626ef09d4e21e1a8894ec,67373fbca88640a6062be1ba,2024-11-15_13h36.37.253,Tarea de género gramatical,2024.2.2,Win32,59.88023952,,,,,,,,,,,,,,,,,,,,,,,,286.3201,287.4858,l,1,[],[],[],[],[],[],[],0.4884,1,287.4858,287.9857,,,,,,442,MAS,AGR,150,cuadro,el,l,0.4884,,287.9867,287.9873,-0.002777778,-0.410185185,0,0,0,,0,78,78,441,1,,,,
,,,,,,d0857d073f61d696f240baab,66a626ef09d4e21e1a8894ec,67373fbca88640a6062be1ba,2024-11-15_13h36.37.253,Tarea de género gramatical,2024.2.2,Win32,59.88023952,,,,,,,,,,,,,,,,,,,,,,,,287.988,289.2691,a,1,[],[],[],[],[],[],[],0.6051,1,289.2692,289.769,,,,,,111,FEM,DIS,150,goma,el,a,0.6051,,289.7691,289.7692,-0.002777778,-0.410185185,0,0,0,,0,79,79,110,1,,,,
,,,,,,d0857d073f61d696f240baab,66a626ef09d4e21e1a8894ec,67373fbca88640a6062be1ba,2024-11-15_13h36.37.253,Tarea de género gramatical,2024.2.2,Win32,59.88023952,,,,,,,,,,,,,,,,,,,,,,,,289.7698,291.2024,l,1,[],[],[],[],[],[],[],0.7507,1,291.2024,291.7025,,,,,,378,MAS,DIS,150,pastel,la,l,0.7507,,291.7026,291.7026,-0.002777778,-0.410185185,0,0,0,,0,80,80,377,1,,,,
,,,,,,d0857d073f61d696f240baab,66a626ef09d4e21e1a8894ec,67373fbca88640a6062be1ba,2024-11-15_13h36.37.253,Tarea de género gramatical,2024.2.2,Win32,59.88023952,,,,,,,,,,,,,,,,,,,,,,,,291.7034,292.7857,a,1,[],[],[],[],[],[],[],0.4,1,292.7858,293.2858,,,,,,243,FEM,DIS,150,salsa,el,a,0.4,,293.2858,293.2858,-0.002777778,-0.410185185,0,0,0,,0,81,81,242,1,,,,
,,,,,,d0857d073f61d696f240baab,66a626ef09d4e21e1a8894ec,67373fbca88640a6062be1ba,2024-11-15_13h36.37.253,Tarea de género gramatical,2024.2.2,Win32,59.88023952,,,,,,,,,,,,,,,,,,,,,,,,293.2866,294.4858,a,1,[],[],[],[],[],[],[],0.5182,1,294.4858,294.9858,,,,,,267,FEM,DIS,150,barba,el,a,0.5182,,294.9858,294.9859,-0.002777778,-0.410185185,0,0,0,,0,82,82,266,1,,,,
,,,,,,d0857d073f61d696f240baab,66a626ef09d4e21e1a8894ec,67373fbca88640a6062be1ba,2024-11-15_13h36.37.253,Tarea de género gramatical,2024.2.2,Win32,59.88023952,,,,,,,,,,,,,,,,,,,,,,,,294.9869,296.0357,a,1,[],[],[],[],[],[],[],0.3724,1,296.0359,296.5357,,,,,,207,FEM,DIS,150,playa,el,a,0.3724,,296.5369,296.5376,-0.002777778,-0.410185185,0,0,0,,0,83,83,206,1,,,,
,,,,,,d0857d073f61d696f240baab,66a626ef09d4e21e1a8894ec,67373fbca88640a6062be1ba,2024-11-15_13h36.37.253,Tarea de género gramatical,2024.2.2,Win32,59.88023952,,,,,,,,,,,,,,,,,,,,,,,,296.5382,297.9024,a,1,[],[],[],[],[],[],[],0.6791,1,297.9024,298.4025,,,,,,109,FEM,AGR,150,gota,la,a,0.6791,,298.4025,298.4026,-0.002777778,-0.410185185,0,0,0,,0,84,84,108,1,,,,
,,,,,,d0857d073f61d696f240baab,66a626ef09d4e21e1a8894ec,67373fbca88640a6062be1ba,2024-11-15_13h36.37.253,Tarea de género gramatical,2024.2.2,Win32,59.88023952,,,,,,,,,,,,,,,,,,,,,,,,298.4033,299.5191,a,1,[],[],[],[],[],[],[],0.4361,1,299.5192,300.0192,,,,,,399,FEM,DIS,150,charla,el,a,0.4361,,300.0192,300.0193,-0.002777778,-0.410185185,0,0,0,,0,85,85,398,1,,,,
,,,,,,d0857d073f61d696f240baab,66a626ef09d4e21e1a8894ec,67373fbca88640a6062be1ba,2024-11-15_13h36.37.253,Tarea de género gramatical,2024.2.2,Win32,59.88023952,,,,,,,,,,,,,,,,,,,,,,,,300.0202,301.1858,l,1,[],[],[],[],[],[],[],0.489,1,301.1858,301.6857,,,,,,360,MAS,DIS,150,puente,la,l,0.489,,301.6858,301.6858,-0.002777778,-0.410185185,0,0,0,,0,86,86,359,1,,,,
,,,,,,d0857d073f61d696f240baab,66a626ef09d4e21e1a8894ec,67373fbca88640a6062be1ba,2024-11-15_13h36.37.253,Tarea de género gramatical,2024.2.2,Win32,59.88023952,,,,,,,,,,,,,,,,,,,,,,,,301.6866,303.0858,l,1,[],[],[],[],[],[],[],0.7188,1,303.0859,303.5857,,,,,,125,MAS,CON,150,bate,,l,0.7188,,303.5865,303.5871,-0.002777778,-0.410185185,0,0,0,,0,87,87,124,1,,,,
,,,,,,d0857d073f61d696f240baab,66a626ef09d4e21e1a8894ec,67373fbca88640a6062be1ba,2024-11-15_13h36.37.253,Tarea de género gramatical,2024.2.2,Win32,59.88023952,,,,,,,,,,,,,,,,,,,,,,,,303.5875,304.7524,l,1,[],[],[],[],[],[],[],0.4887,1,304.7525,305.2524,,,,,,83,MAS,CON,150,nene,,l,0.4887,,305.2525,305.2526,-0.002777778,-0.410185185,0,0,0,,0,88,88,82,1,,,,
,,,,,,d0857d073f61d696f240baab,66a626ef09d4e21e1a8894ec,67373fbca88640a6062be1ba,2024-11-15_13h36.37.253,Tarea de género gramatical,2024.2.2,Win32,59.88023952,,,,,,,,,,,,,,,,,,,,,,,,305.2534,306.4191,l,1,[],[],[],[],[],[],[],0.4886,1,306.4192,306.919,,,,,,384,MAS,DIS,150,pedazo,la,l,0.4886,,306.919,306.9192,-0.002777778,-0.410185185,0,0,0,,0,89,89,383,1,,,,
,,,,,,d0857d073f61d696f240baab,66a626ef09d4e21e1a8894ec,67373fbca88640a6062be1ba,2024-11-15_13h36.37.253,Tarea de género gramatical,2024.2.2,Win32,59.88023952,,,,,,,,,,,,,,,,,,,,,,,,306.9199,308.0024,a,1,[],[],[],[],[],[],[],0.4007,1,308.0025,308.5024,,,,,,55,FEM,AGR,150,taza,la,a,0.4007,,308.5025,308.5025,-0.002777778,-0.410185185,0,0,0,,0,90,90,54,1,,,,
,,,,,,d0857d073f61d696f240baab,66a626ef09d4e21e1a8894ec,67373fbca88640a6062be1ba,2024-11-15_13h36.37.253,Tarea de género gramatical,2024.2.2,Win32,59.88023952,,,,,,,,,,,,,,,,,,,,,,,,308.5034,309.7024,l,0,[],[],[],[],[],[],[],0.5222,0,309.7029,310.2024,,,,,,218,FEM,CON,150,nieve,,a,0.5222,,310.2024,310.2026,-0.002777778,-0.410185185,0,0,0,,0,91,91,217,1,,,,
,,,,,,d0857d073f61d696f240baab,66a626ef09d4e21e1a8894ec,67373fbca88640a6062be1ba,2024-11-15_13h36.37.253,Tarea de género gramatical,2024.2.2,Win32,59.88023952,,,,,,,,,,,,,,,,,,,,,,,,310.2032,311.8024,l,1,[],[],[],[],[],[],[],0.9122,1,311.803,312.3024,,,,,,359,MAS,CON,150,bosque,,l,0.9122,,312.3034,312.3039,-0.002777778,-0.410185185,0,0,0,,0,92,92,358,1,,,,
,,,,,,d0857d073f61d696f240baab,66a626ef09d4e21e1a8894ec,67373fbca88640a6062be1ba,2024-11-15_13h36.37.253,Tarea de género gramatical,2024.2.2,Win32,59.88023952,,,,,,,,,,,,,,,,,,,,,,,,312.3043,313.6525,l,1,[],[],[],[],[],[],[],0.6669,1,313.6526,314.1525,,,,,,262,MAS,AGR,150,video,el,l,0.6669,,314.1525,314.1526,-0.002777778,-0.410185185,0,0,0,,0,93,93,261,1,,,,
,,,,,,d0857d073f61d696f240baab,66a626ef09d4e21e1a8894ec,67373fbca88640a6062be1ba,2024-11-15_13h36.37.253,Tarea de género gramatical,2024.2.2,Win32,59.88023952,,,,,,,,,,,,,,,,,,,,,,,,314.1532,315.4358,l,1,[],[],[],[],[],[],[],0.5953,1,315.4358,315.9358,,,,,,226,MAS,AGR,150,color,el,l,0.5953,,315.9358,315.9359,-0.002777778,-0.410185185,0,0,0,,0,94,94,225,1,,,,
,,,,,,d0857d073f61d696f240baab,66a626ef09d4e21e1a8894ec,67373fbca88640a6062be1ba,2024-11-15_13h36.37.253,Tarea de género gramatical,2024.2.2,Win32,59.88023952,,,,,,,,,,,,,,,,,,,,,,,,315.9375,317.0524,l,1,[],[],[],[],[],[],[],0.4364,1,317.0524,317.5524,,,,,,407,MAS,CON,150,jurado,,l,0.4364,,317.5524,317.5526,-0.002777778,-0.410185185,0,0,0,,0,95,95,406,1,,,,
,,,,,,d0857d073f61d696f240baab,66a626ef09d4e21e1a8894ec,67373fbca88640a6062be1ba,2024-11-15_13h36.37.253,Tarea de género gramatical,2024.2.2,Win32,59.88023952,,,,,,,,,,,,,,,,,,,,,,,,317.5532,318.7024,l,1,[],[],[],[],[],[],[],0.467,1,318.7024,319.2024,,,,,,22,MAS,AGR,150,pelo,el,l,0.467,,319.2032,319.2037,-0.002777778,-0.410185185,0,0,0,,0,96,96,21,1,,,,
,,,,,,d0857d073f61d696f240baab,66a626ef09d4e21e1a8894ec,67373fbca88640a6062be1ba,2024-11-15_13h36.37.253,Tarea de género gramatical,2024.2.2,Win32,59.88023952,,,,,,,,,,,,,,,,,,,,,,,,319.2042,320.4359,a,1,[],[],[],[],[],[],[],0.5478,1,320.4359,320.9357,,,,,,224,FEM,CON,150,arena,,a,0.5478,,320.9357,320.9358,-0.002777778,-0.410185185,0,0,0,,0,97,97,223,1,,,,
,,,,,,d0857d073f61d696f240baab,66a626ef09d4e21e1a8894ec,67373fbca88640a6062be1ba,2024-11-15_13h36.37.253,Tarea de género gramatical,2024.2.2,Win32,59.88023952,,,,,,,,,,,,,,,,,,,,,,,,320.9366,322.3025,l,1,[],[],[],[],[],[],[],0.6792,1,322.3026,322.8024,,,,,,408,MAS,DIS,150,cheque,la,l,0.6792,,322.8024,322.8025,-0.002777778,-0.410185185,0,0,0,,0,98,98,407,1,,,,
,,,,,,d0857d073f61d696f240baab,66a626ef09d4e21e1a8894ec,67373fbca88640a6062be1ba,2024-11-15_13h36.37.253,Tarea de género gramatical,2024.2.2,Win32,59.88023952,,,,,,,,,,,,,,,,,,,,,,,,322.8033,323.9691,a,1,[],[],[],[],[],[],[],0.4836,1,323.9692,324.4691,,,,,,309,FEM,DIS,150,esposa,el,a,0.4836,,324.4692,324.4692,-0.002777778,-0.410185185,0,0,0,,0,99,99,308,1,,,,
,,,,,,d0857d073f61d696f240baab,66a626ef09d4e21e1a8894ec,67373fbca88640a6062be1ba,2024-11-15_13h36.37.253,Tarea de género gramatical,2024.2.2,Win32,59.88023952,,,,,,,,,,,,,,,,,,,,,,,,324.47,325.5857,a,1,[],[],[],[],[],[],[],0.4307,1,325.5859,326.0857,,,,,,133,FEM,AGR,150,joya,la,a,0.4307,,326.0857,326.0858,-0.002777778,-0.410185185,0,0,0,,0,100,100,132,1,,,,
,,,,,,d0857d073f61d696f240baab,66a626ef09d4e21e1a8894ec,67373fbca88640a6062be1ba,2024-11-15_13h36.37.253,Tarea de género gramatical,2024.2.2,Win32,59.88023952,,,,,,,,,,,,,,,,,,,,,,,,326.0864,327.2524,l,1,[],[],[],[],[],[],[],0.4836,1,327.2525,327.7524,,,,,,395,MAS,CON,150,correo,,l,0.4836,,327.7534,327.754,-0.002777778,-0.410185185,0,0,0,,0,101,101,394,1,,,,
,,,,,,d0857d073f61d696f240baab,66a626ef09d4e21e1a8894ec,67373fbca88640a6062be1ba,2024-11-15_13h36.37.253,Tarea de género gramatical,2024.2.2,Win32,59.88023952,,,,,,,,,,,,,,,,,,,,,,,,327.7546,328.9524,l,1,[],[],[],[],[],[],[],0.522,1,328.9525,329.4524,,,,,,382,MAS,AGR,150,teatro,el,l,0.522,,329.4524,329.4525,-0.002777778,-0.410185185,0,0,0,,0,102,102,381,1,,,,
,,,,,,d0857d073f61d696f240baab,66a626ef09d4e21e1a8894ec,67373fbca88640a6062be1ba,2024-11-15_13h36.37.253,Tarea de género gramatical,2024.2.2,Win32,59.88023952,,,,,,,,,,,,,,,,,,,,,,,,329.4531,330.5357,l,1,[],[],[],[],[],[],[],0.4023,1,330.5358,331.0357,,,,,,358,MAS,AGR,150,motivo,el,l,0.4023,,331.0358,331.0358,-0.002777778,-0.410185185,0,0,0,,0,103,103,357,1,,,,
,,,,,,d0857d073f61d696f240baab,66a626ef09d4e21e1a8894ec,67373fbca88640a6062be1ba,2024-11-15_13h36.37.253,Tarea de género gramatical,2024.2.2,Win32,59.88023952,,,,,,,,,,,,,,,,,,,,,,,,331.0365,332.2524,a,1,[],[],[],[],[],[],[],0.5391,1,332.2524,332.7524,,,,,,103,FEM,AGR,150,fama,la,a,0.5391,,332.7525,332.7526,-0.002777778,-0.410185185,0,0,0,,0,104,104,102,1,,,,
,,,,,,d0857d073f61d696f240baab,66a626ef09d4e21e1a8894ec,67373fbca88640a6062be1ba,2024-11-15_13h36.37.253,Tarea de género gramatical,2024.2.2,Win32,59.88023952,,,,,,,,,,,,,,,,,,,,,,,,332.7533,333.9025,a,1,[],[],[],[],[],[],[],0.4747,1,333.9025,334.4023,,,,,,80,FEM,CON,150,vaca,,a,0.4747,,334.4034,334.4039,-0.002777778,-0.410185185,0,0,0,,0,105,105,79,1,,,,
,,,,,,d0857d073f61d696f240baab,66a626ef09d4e21e1a8894ec,67373fbca88640a6062be1ba,2024-11-15_13h36.37.253,Tarea de género gramatical,2024.2.2,Win32,59.88023952,,,,,,,,,,,,,,,,,,,,,,,,334.4043,335.5025,l,1,[],[],[],[],[],[],[],0.4122,1,335.5025,336.0024,,,,,,28,MAS,AGR,150,club,el,l,0.4122,,336.0025,336.0025,-0.002777778,-0.410185185,0,0,0,,0,106,106,27,1,,,,
,,,,,,d0857d073f61d696f240baab,66a626ef09d4e21e1a8894ec,67373fbca88640a6062be1ba,2024-11-15_13h36.37.253,Tarea de género gramatical,2024.2.2,Win32,59.88023952,,,,,,,,,,,,,,,,,,,,,,,,336.0032,337.2858,l,1,[],[],[],[],[],[],[],0.6,1,337.2858,337.7858,,,,,,178,MAS,AGR,150,punto,el,l,0.6,,337.7858,337.7858,-0.002777778,-0.410185185,0,0,0,,0,107,107,177,1,,,,
,,,,,,d0857d073f61d696f240baab,66a626ef09d4e21e1a8894ec,67373fbca88640a6062be1ba,2024-11-15_13h36.37.253,Tarea de género gramatical,2024.2.2,Win32,59.88023952,,,,,,,,,,,,,,,,,,,,,,,,337.7865,338.9357,a,1,[],[],[],[],[],[],[],0.4691,1,338.9357,339.4357,,,,,,27,FEM,DIS,150,mesa,el,a,0.4691,,339.4357,339.4359,-0.002777778,-0.410185185,0,0,0,,0,108,108,26,1,,,,
,,,,,,d0857d073f61d696f240baab,66a626ef09d4e21e1a8894ec,67373fbca88640a6062be1ba,2024-11-15_13h36.37.253,Tarea de género gramatical,2024.2.2,Win32,59.88023952,,,,,,,,,,,,,,,,,,,,,,,,339.4364,340.6858,l,1,[],[],[],[],[],[],[],0.567,1,340.6859,341.1858,,,,,,136,MAS,AGR,150,vago,el,l,0.567,,341.1858,341.1859,-0.002777778,-0.410185185,0,0,0,,0,109,109,135,1,,,,
,,,,,,d0857d073f61d696f240baab,66a626ef09d4e21e1a8894ec,67373fbca88640a6062be1ba,2024-11-15_13h36.37.253,Tarea de género gramatical,2024.2.2,Win32,59.88023952,,,,,,,,,,,,,,,,,,,,,,,,341.1867,342.5857,a,1,[],[],[],[],[],[],[],0.7124,1,342.5859,343.0858,,,,,,297,FEM,DIS,150,manta,el,a,0.7124,,343.0867,343.0872,-0.002777778,-0.410185185,0,0,0,,0,110,110,296,1,,,,
,,,,,,d0857d073f61d696f240baab,66a626ef09d4e21e1a8894ec,67373fbca88640a6062be1ba,2024-11-15_13h36.37.253,Tarea de género gramatical,2024.2.2,Win32,59.88023952,,,,,,,,,,,,,,,,,,,,,,,,343.0876,344.4858,l,1,[],[],[],[],[],[],[],0.7222,1,344.4858,344.9857,,,,,,312,MAS,DIS,150,equipo,la,l,0.7222,,344.9857,344.9858,-0.002777778,-0.410185185,0,0,0,,0,111,111,311,1,,,,
,,,,,,d0857d073f61d696f240baab,66a626ef09d4e21e1a8894ec,67373fbca88640a6062be1ba,2024-11-15_13h36.37.253,Tarea de género gramatical,2024.2.2,Win32,59.88023952,,,,,,,,,,,,,,,,,,,,,,,,344.9867,346.336,l,1,[],[],[],[],[],[],[],0.6669,1,346.3361,346.8357,,,,,,84,MAS,DIS,150,mago,la,l,0.6669,,346.8357,346.8358,-0.002777778,-0.410185185,0,0,0,,0,112,112,83,1,,,,
,,,,,,d0857d073f61d696f240baab,66a626ef09d4e21e1a8894ec,67373fbca88640a6062be1ba,2024-11-15_13h36.37.253,Tarea de género gramatical,2024.2.2,Win32,59.88023952,,,,,,,,,,,,,,,,,,,,,,,,346.8366,348.0024,l,1,[],[],[],[],[],[],[],0.4887,1,348.0024,348.5025,,,,,,30,MAS,DIS,150,cine,la,l,0.4887,,348.5025,348.5026,-0.002777778,-0.410185185,0,0,0,,0,113,113,29,1,,,,
,,,,,,d0857d073f61d696f240baab,66a626ef09d4e21e1a8894ec,67373fbca88640a6062be1ba,2024-11-15_13h36.37.253,Tarea de género gramatical,2024.2.2,Win32,59.88023952,,,,,,,,,,,,,,,,,,,,,,,,348.5033,349.9025,l,1,[],[],[],[],[],[],[],0.7172,1,349.9026,350.4023,,,,,,167,MAS,CON,150,juego,,l,0.7172,,350.4034,350.4039,-0.002777778,-0.410185185,0,0,0,,0,114,114,166,1,,,,
,,,,,,d0857d073f61d696f240baab,66a626ef09d4e21e1a8894ec,67373fbca88640a6062be1ba,2024-11-15_13h36.37.253,Tarea de género gramatical,2024.2.2,Win32,59.88023952,,,,,,,,,,,,,,,,,,,,,,,,350.4046,351.6857,l,1,[],[],[],[],[],[],[],0.598,1,351.6858,352.1858,,,,,,144,MAS,DIS,150,amor,la,l,0.598,,352.1858,352.1859,-0.002777778,-0.410185185,0,0,0,,0,115,115,143,1,,,,
,,,,,,d0857d073f61d696f240baab,66a626ef09d4e21e1a8894ec,67373fbca88640a6062be1ba,2024-11-15_13h36.37.253,Tarea de género gramatical,2024.2.2,Win32,59.88023952,,,,,,,,,,,,,,,,,,,,,,,,352.1867,353.319,l,1,[],[],[],[],[],[],[],0.4456,1,353.3191,353.8192,,,,,,138,MAS,DIS,150,luto,la,l,0.4456,,353.8192,353.8193,-0.002777778,-0.410185185,0,0,0,,0,116,116,137,1,,,,
,,,,,,d0857d073f61d696f240baab,66a626ef09d4e21e1a8894ec,67373fbca88640a6062be1ba,2024-11-15_13h36.37.253,Tarea de género gramatical,2024.2.2,Win32,59.88023952,,,,,,,,,,,,,,,,,,,,,,,,353.8199,355.0858,a,1,[],[],[],[],[],[],[],0.5872,1,355.0858,355.5857,,,,,,434,FEM,CON,150,corona,,a,0.5872,,355.5858,355.5858,-0.002777778,-0.410185185,0,0,0,,0,117,117,433,1,,,,
,,,,,,d0857d073f61d696f240baab,66a626ef09d4e21e1a8894ec,67373fbca88640a6062be1ba,2024-11-15_13h36.37.253,Tarea de género gramatical,2024.2.2,Win32,59.88023952,,,,,,,,,,,,,,,,,,,,,,,,355.5869,356.9191,l,1,[],[],[],[],[],[],[],0.651,1,356.9191,357.419,,,,,,78,MAS,DIS,150,oído,la,l,0.651,,357.4191,357.4192,-0.002777778,-0.410185185,0,0,0,,0,118,118,77,1,,,,
,,,,,,d0857d073f61d696f240baab,66a626ef09d4e21e1a8894ec,67373fbca88640a6062be1ba,2024-11-15_13h36.37.253,Tarea de género gramatical,2024.2.2,Win32,59.88023952,,,,,,,,,,,,,,,,,,,,,,,,357.42,358.669,a,1,[],[],[],[],[],[],[],0.5668,1,358.6691,359.1691,,,,,,375,FEM,DIS,150,cadena,el,a,0.5668,,359.1701,359.1706,-0.002777778,-0.410185185,0,0,0,,0,119,119,374,1,,,,
,,,,,,d0857d073f61d696f240baab,66a626ef09d4e21e1a8894ec,67373fbca88640a6062be1ba,2024-11-15_13h36.37.253,Tarea de género gramatical,2024.2.2,Win32,59.88023952,,,,,,,,,,,,,,,,,,,,,,,,359.1713,360.9524,a,1,[],[],[],[],[],[],[],1.1056,1,360.9525,361.4525,,,,,,189,FEM,DIS,150,pista,el,a,1.1056,,361.4525,361.4525,-0.002777778,-0.410185185,0,0,0,,0,120,120,188,1,,,,
,,,,,,d0857d073f61d696f240baab,66a626ef09d4e21e1a8894ec,67373fbca88640a6062be1ba,2024-11-15_13h36.37.253,Tarea de género gramatical,2024.2.2,Win32,59.88023952,,,,,,,,,,,,,,,,,,,,,,,,361.4533,362.7358,a,1,[],[],[],[],[],[],[],0.6008,1,362.7358,363.2357,,,,,,381,FEM,DIS,150,bebida,el,a,0.6008,,363.2357,363.2358,-0.002777778,-0.410185185,0,0,0,,0,121,121,380,1,,,,
,,,,,,d0857d073f61d696f240baab,66a626ef09d4e21e1a8894ec,67373fbca88640a6062be1ba,2024-11-15_13h36.37.253,Tarea de género gramatical,2024.2.2,Win32,59.88023952,,,,,,,,,,,,,,,,,,,,,,,,363.2364,364.5191,l,1,[],[],[],[],[],[],[],0.6008,1,364.5192,365.0191,,,,,,132,MAS,DIS,150,velo,la,l,0.6008,,365.0192,365.0192,-0.002777778,-0.410185185,0,0,0,,0,122,122,131,1,,,,
,,,,,,d0857d073f61d696f240baab,66a626ef09d4e21e1a8894ec,67373fbca88640a6062be1ba,2024-11-15_13h36.37.253,Tarea de género gramatical,2024.2.2,Win32,59.88023952,,,,,,,,,,,,,,,,,,,,,,,,365.0199,366.4023,a,1,[],[],[],[],[],[],[],0.7076,1,366.4024,366.9024,,,,,,363,FEM,DIS,150,unidad,el,a,0.7076,,366.9033,366.9039,-0.002777778,-0.410185185,0,0,0,,0,123,123,362,1,,,,
,,,,,,d0857d073f61d696f240baab,66a626ef09d4e21e1a8894ec,67373fbca88640a6062be1ba,2024-11-15_13h36.37.253,Tarea de género gramatical,2024.2.2,Win32,59.88023952,,,,,,,,,,,,,,,,,,,,,,,,366.9044,368.0691,a,1,[],[],[],[],[],[],[],0.4843,1,368.0691,368.5691,,,,,,446,FEM,CON,150,bañera,,a,0.4843,,368.5691,368.5692,-0.002777778,-0.410185185,0,0,0,,0,124,124,445,1,,,,
,,,,,,d0857d073f61d696f240baab,66a626ef09d4e21e1a8894ec,67373fbca88640a6062be1ba,2024-11-15_13h36.37.253,Tarea de género gramatical,2024.2.2,Win32,59.88023952,,,,,,,,,,,,,,,,,,,,,,,,368.5699,370.0525,a,1,[],[],[],[],[],[],[],0.8001,1,370.0525,370.5524,,,,,,128,FEM,CON,150,leña,,a,0.8001,,370.5525,370.5526,-0.002777778,-0.410185185,0,0,0,,0,125,125,127,1,,,,
,,,,,,d0857d073f61d696f240baab,66a626ef09d4e21e1a8894ec,67373fbca88640a6062be1ba,2024-11-15_13h36.37.253,Tarea de género gramatical,2024.2.2,Win32,59.88023952,,,,,,,,,,,,,,,,,,,,,,,,370.5532,372.3024,a,1,[],[],[],[],[],[],[],1.0671,1,372.3025,372.8024,,,,,,63,FEM,DIS,150,fila,el,a,1.0671,,372.8024,372.8025,-0.002777778,-0.410185185,0,0,0,,0,126,126,62,1,,,,
,,,,,,d0857d073f61d696f240baab,66a626ef09d4e21e1a8894ec,67373fbca88640a6062be1ba,2024-11-15_13h36.37.253,Tarea de género gramatical,2024.2.2,Win32,59.88023952,,,,,,,,,,,,,,,,,,,,,,,,372.8033,373.9524,a,1,[],[],[],[],[],[],[],0.4697,1,373.9524,374.4524,,,,,,98,FEM,CON,150,fuga,,a,0.4697,,374.4524,374.4524,-0.002777778,-0.410185185,0,0,0,,0,127,127,97,1,,,,
,,,,,,d0857d073f61d696f240baab,66a626ef09d4e21e1a8894ec,67373fbca88640a6062be1ba,2024-11-15_13h36.37.253,Tarea de género gramatical,2024.2.2,Win32,59.88023952,,,,,,,,,,,,,,,,,,,,,,,,374.4532,375.6691,l,1,[],[],[],[],[],[],[],0.534,1,375.6691,376.169,,,,,,372,MAS,DIS,150,delito,la,l,0.534,,376.1702,376.171,-0.002777778,-0.410185185,0,0,0,,0,128,128,371,1,,,,
,,,,,,d0857d073f61d696f240baab,66a626ef09d4e21e1a8894ec,67373fbca88640a6062be1ba,2024-11-15_13h36.37.253,Tarea de género gramatical,2024.2.2,Win32,59.88023952,,,,,,,,,,,,,,,,,,,,,,,,376.1717,377.3357,l,1,[],[],[],[],[],[],[],0.4841,1,377.3358,377.8357,,,,,,329,MAS,CON,150,futuro,,l,0.4841,,377.8357,377.8358,-0.002777778,-0.410185185,0,0,0,,0,129,129,328,1,,,,
,,,,,,d0857d073f61d696f240baab,66a626ef09d4e21e1a8894ec,67373fbca88640a6062be1ba,2024-11-15_13h36.37.253,Tarea de género gramatical,2024.2.2,Win32,59.88023952,,,,,,,,,,,,,,,,,,,,,,,,377.8366,378.9191,a,1,[],[],[],[],[],[],[],0.4004,1,378.9192,379.4191,,,,,,153,FEM,DIS,150,mujer,el,a,0.4004,,379.4191,379.4192,-0.002777778,-0.410185185,0,0,0,,0,130,130,152,1,,,,
,,,,,,d0857d073f61d696f240baab,66a626ef09d4e21e1a8894ec,67373fbca88640a6062be1ba,2024-11-15_13h36.37.253,Tarea de género gramatical,2024.2.2,Win32,59.88023952,,,,,,,,,,,,,,,,,,,,,,,,379.42,380.7357,l,1,[],[],[],[],[],[],[],0.6337,1,380.7359,381.2358,,,,,,388,MAS,AGR,150,empleo,el,l,0.6337,,381.2359,381.2359,-0.002777778,-0.410185185,0,0,0,,0,131,131,387,1,,,,
,,,,,,d0857d073f61d696f240baab,66a626ef09d4e21e1a8894ec,67373fbca88640a6062be1ba,2024-11-15_13h36.37.253,Tarea de género gramatical,2024.2.2,Win32,59.88023952,,,,,,,,,,,,,,,,,,,,,,,,381.2365,382.4024,a,1,[],[],[],[],[],[],[],0.4786,1,382.4025,382.9024,,,,,,61,FEM,AGR,150,ruta,la,a,0.4786,,382.9032,382.9037,-0.002777778,-0.410185185,0,0,0,,0,132,132,60,1,,,,
,,,,,,d0857d073f61d696f240baab,66a626ef09d4e21e1a8894ec,67373fbca88640a6062be1ba,2024-11-15_13h36.37.253,Tarea de género gramatical,2024.2.2,Win32,59.88023952,,,,,,,,,,,,,,,,,,,,,,,,382.9041,384.1358,a,1,[],[],[],[],[],[],[],0.5506,1,384.1358,384.6356,,,,,,117,FEM,DIS,150,raya,el,a,0.5506,,384.6357,384.6358,-0.002777778,-0.410185185,0,0,0,,0,133,133,116,1,,,,
,,,,,,d0857d073f61d696f240baab,66a626ef09d4e21e1a8894ec,67373fbca88640a6062be1ba,2024-11-15_13h36.37.253,Tarea de género gramatical,2024.2.2,Win32,59.88023952,,,,,,,,,,,,,,,,,,,,,,,,384.6365,385.6857,a,1,[],[],[],[],[],[],[],0.3663,1,385.6857,386.1858,,,,,,187,FEM,AGR,150,lista,la,a,0.3663,,386.1858,386.1858,-0.002777778,-0.410185185,0,0,0,,0,134,134,186,1,,,,
,,,,,,d0857d073f61d696f240baab,66a626ef09d4e21e1a8894ec,67373fbca88640a6062be1ba,2024-11-15_13h36.37.253,Tarea de género gramatical,2024.2.2,Win32,59.88023952,,,,,,,,,,,,,,,,,,,,,,,,386.1865,387.4691,l,0,[],[],[],[],[],[],[],0.6004,0,387.4697,387.969,,,,,,56,FEM,CON,150,bola,,a,0.6004,,387.9691,387.9691,-0.002777778,-0.410185185,0,0,0,,0,135,135,55,1,,,,
,,,,,,d0857d073f61d696f240baab,66a626ef09d4e21e1a8894ec,67373fbca88640a6062be1ba,2024-11-15_13h36.37.253,Tarea de género gramatical,2024.2.2,Win32,59.88023952,,,,,,,,,,,,,,,,,,,,,,,,387.9699,389.6024,l,1,[],[],[],[],[],[],[],0.9454,1,389.603,390.1024,,,,,,185,MAS,CON,150,sueño,,l,0.9454,,390.1025,390.1025,-0.002777778,-0.410185185,0,0,0,,0,136,136,184,1,,,,
,,,,,,d0857d073f61d696f240baab,66a626ef09d4e21e1a8894ec,67373fbca88640a6062be1ba,2024-11-15_13h36.37.253,Tarea de género gramatical,2024.2.2,Win32,59.88023952,,,,,,,,,,,,,,,,,,,,,,,,390.1032,391.7358,a,1,[],[],[],[],[],[],[],0.9505,1,391.7359,392.2357,,,,,,152,FEM,CON,150,gente,,a,0.9505,,392.2367,392.2372,-0.002777778,-0.410185185,0,0,0,,0,137,137,151,1,,,,
,,,,,,d0857d073f61d696f240baab,66a626ef09d4e21e1a8894ec,67373fbca88640a6062be1ba,2024-11-15_13h36.37.253,Tarea de género gramatical,2024.2.2,Win32,59.88023952,,,,,,,,,,,,,,,,,,,,,,,,392.2377,393.5857,l,1,[],[],[],[],[],[],[],0.6667,1,393.5858,394.0857,,,,,,215,MAS,CON,150,hueso,,l,0.6667,,394.0857,394.0858,-0.002777778,-0.410185185,0,0,0,,0,138,138,214,1,,,,
,,,,,,d0857d073f61d696f240baab,66a626ef09d4e21e1a8894ec,67373fbca88640a6062be1ba,2024-11-15_13h36.37.253,Tarea de género gramatical,2024.2.2,Win32,59.88023952,,,,,,,,,,,,,,,,,,,,,,,,394.0865,395.6357,a,1,[],[],[],[],[],[],[],0.8652,1,395.6358,396.1357,,,,,,283,FEM,AGR,150,pluma,la,a,0.8652,,396.1357,396.1359,-0.002777778,-0.410185185,0,0,0,,0,139,139,282,1,,,,
,,,,,,d0857d073f61d696f240baab,66a626ef09d4e21e1a8894ec,67373fbca88640a6062be1ba,2024-11-15_13h36.37.253,Tarea de género gramatical,2024.2.2,Win32,59.88023952,,,,,,,,,,,,,,,,,,,,,,,,396.1366,397.4524,a,1,[],[],[],[],[],[],[],0.6351,1,397.4525,397.9525,,,,,,62,FEM,CON,150,sopa,,a,0.6351,,397.9525,397.9526,-0.002777778,-0.410185185,0,0,0,,0,140,140,61,1,,,,
,,,,,,d0857d073f61d696f240baab,66a626ef09d4e21e1a8894ec,67373fbca88640a6062be1ba,2024-11-15_13h36.37.253,Tarea de género gramatical,2024.2.2,Win32,59.88023952,,,,,,,,,,,,,,,,,,,,,,,,397.9532,399.1191,a,1,[],[],[],[],[],[],[],0.4885,1,399.1192,399.6191,,,,,,140,FEM,CON,150,mula,,a,0.4885,,399.6198,399.6203,-0.002777778,-0.410185185,0,0,0,,0,141,141,139,1,,,,
,,,,,,d0857d073f61d696f240baab,66a626ef09d4e21e1a8894ec,67373fbca88640a6062be1ba,2024-11-15_13h36.37.253,Tarea de género gramatical,2024.2.2,Win32,59.88023952,,,,,,,,,,,,,,,,,,,,,,,,399.6208,400.8191,l,1,[],[],[],[],[],[],[],0.5204,1,400.8191,401.319,,,,,,5,MAS,CON,150,tipo,,l,0.5204,,401.319,401.3192,-0.002777778,-0.410185185,0,0,0,,0,142,142,4,1,,,,
,,,,,,d0857d073f61d696f240baab,66a626ef09d4e21e1a8894ec,67373fbca88640a6062be1ba,2024-11-15_13h36.37.253,Tarea de género gramatical,2024.2.2,Win32,59.88023952,,,,,,,,,,,,,,,,,,,,,,,,401.32,402.569,l,1,[],[],[],[],[],[],[],0.5676,1,402.5691,403.0691,,,,,,268,MAS,AGR,150,truco,el,l,0.5676,,403.0691,403.0692,-0.002777778,-0.410185185,0,0,0,,0,143,143,267,1,,,,
,,,,,,d0857d073f61d696f240baab,66a626ef09d4e21e1a8894ec,67373fbca88640a6062be1ba,2024-11-15_13h36.37.253,Tarea de género gramatical,2024.2.2,Win32,59.88023952,,,,,,,,,,,,,,,,,,,,,,,,403.0698,404.2024,a,1,[],[],[],[],[],[],[],0.4507,1,404.2025,404.7024,,,,,,439,FEM,AGR,150,toalla,la,a,0.4507,,404.7024,404.7024,-0.002777778,-0.410185185,0,0,0,,0,144,144,438,1,,,,
,,,,,,d0857d073f61d696f240baab,66a626ef09d4e21e1a8894ec,67373fbca88640a6062be1ba,2024-11-15_13h36.37.253,Tarea de género gramatical,2024.2.2,Win32,59.88023952,,,,,,,,,,,,,,,,,,,,,,,,404.7032,405.9691,a,1,[],[],[],[],[],[],[],0.5866,1,405.9692,406.4691,,,,,,278,FEM,CON,150,presa,,a,0.5866,,406.4691,406.4692,-0.002777778,-0.410185185,0,0,0,,0,145,145,277,1,,,,
,,,,,,d0857d073f61d696f240baab,66a626ef09d4e21e1a8894ec,67373fbca88640a6062be1ba,2024-11-15_13h36.37.253,Tarea de género gramatical,2024.2.2,Win32,59.88023952,,,,,,,,,,,,,,,,,,,,,,,,406.47,407.519,a,1,[],[],[],[],[],[],[],0.3691,1,407.519,408.0191,,,,,,356,FEM,CON,150,piedra,,a,0.3691,,408.0201,408.0206,-0.002777778,-0.410185185,0,0,0,,0,146,146,355,1,,,,
,,,,,,d0857d073f61d696f240baab,66a626ef09d4e21e1a8894ec,67373fbca88640a6062be1ba,2024-11-15_13h36.37.253,Tarea de género gramatical,2024.2.2,Win32,59.88023952,,,,,,,,,,,,,,,,,,,,,,,,408.0212,409.3025,l,1,[],[],[],[],[],[],[],0.6008,1,409.3025,409.8024,,,,,,156,MAS,DIS,150,amigo,la,l,0.6008,,409.8025,409.8025,-0.002777778,-0.410185185,0,0,0,,0,147,147,155,1,,,,
,,,,,,d0857d073f61d696f240baab,66a626ef09d4e21e1a8894ec,67373fbca88640a6062be1ba,2024-11-15_13h36.37.253,Tarea de género gramatical,2024.2.2,Win32,59.88023952,,,,,,,,,,,,,,,,,,,,,,,,409.8033,411.2358,l,1,[],[],[],[],[],[],[],0.752,1,411.2358,411.7358,,,,,,89,MAS,CON,150,maíz,,l,0.752,,411.7358,411.7359,-0.002777778,-0.410185185,0,0,0,,0,148,148,88,1,,,,
,,,,,,d0857d073f61d696f240baab,66a626ef09d4e21e1a8894ec,67373fbca88640a6062be1ba,2024-11-15_13h36.37.253,Tarea de género gramatical,2024.2.2,Win32,59.88023952,,,,,,,,,,,,,,,,,,,,,,,,411.7366,412.9857,l,1,[],[],[],[],[],[],[],0.5724,1,412.9858,413.4857,,,,,,240,MAS,DIS,150,ruido,la,l,0.5724,,413.4857,413.4859,-0.002777778,-0.410185185,0,0,0,,0,149,149,239,1,,,,
,,,,,,d0857d073f61d696f240baab,66a626ef09d4e21e1a8894ec,67373fbca88640a6062be1ba,2024-11-15_13h36.37.253,Tarea de género gramatical,2024.2.2,Win32,59.88023952,,,,,,,,,,,,,,,,,,,,,,,,413.4865,414.5691,l,1,[],[],[],[],[],[],[],0.3977,1,414.5692,415.0692,,,,,,276,MAS,DIS,150,ritmo,la,l,0.3977,,415.0702,425.0525,-0.002777778,-0.410185185,0,0,0,space,0,150,150,275,1,9.9676,,,
,,,,,,d0857d073f61d696f240baab,66a626ef09d4e21e1a8894ec,67373fbca88640a6062be1ba,2024-11-15_13h36.37.253,Tarea de género gramatical,2024.2.2,Win32,59.88023952,,,,,,,,,,,,,,,,,,,,,,,,425.0531,427.1191,a,1,[],[],[],[],[],[],[],1.3838,1,427.1192,427.6191,,,,,,308,FEM,CON,150,semana,,a,1.3838,,427.6191,427.6192,-0.002777778,-0.410185185,0,0,0,,0,151,151,307,1,,,,
,,,,,,d0857d073f61d696f240baab,66a626ef09d4e21e1a8894ec,67373fbca88640a6062be1ba,2024-11-15_13h36.37.253,Tarea de género gramatical,2024.2.2,Win32,59.88023952,,,,,,,,,,,,,,,,,,,,,,,,427.6199,429.0857,l,1,[],[],[],[],[],[],[],0.7837,1,429.0857,429.5858,,,,,,210,MAS,DIS,150,baile,la,l,0.7837,,429.5858,429.5859,-0.002777778,-0.410185185,0,0,0,,0,152,152,209,1,,,,
,,,,,,d0857d073f61d696f240baab,66a626ef09d4e21e1a8894ec,67373fbca88640a6062be1ba,2024-11-15_13h36.37.253,Tarea de género gramatical,2024.2.2,Win32,59.88023952,,,,,,,,,,,,,,,,,,,,,,,,429.5865,430.7524,a,1,[],[],[],[],[],[],[],0.4842,1,430.7524,431.2524,,,,,,344,FEM,CON,150,pareja,,a,0.4842,,431.2525,431.2526,-0.002777778,-0.410185185,0,0,0,,0,153,153,343,1,,,,
,,,,,,d0857d073f61d696f240baab,66a626ef09d4e21e1a8894ec,67373fbca88640a6062be1ba,2024-11-15_13h36.37.253,Tarea de género gramatical,2024.2.2,Win32,59.88023952,,,,,,,,,,,,,,,,,,,,,,,,431.2534,432.5691,l,0,[],[],[],[],[],[],[],0.6354,0,432.5698,433.0691,,,,,,411,FEM,DIS,150,actriz,el,a,0.6354,,433.0691,433.0692,-0.002777778,-0.410185185,0,0,0,,0,154,154,410,1,,,,
,,,,,,d0857d073f61d696f240baab,66a626ef09d4e21e1a8894ec,67373fbca88640a6062be1ba,2024-11-15_13h36.37.253,Tarea de género gramatical,2024.2.2,Win32,59.88023952,,,,,,,,,,,,,,,,,,,,,,,,433.0699,434.8191,a,1,[],[],[],[],[],[],[],1.0669,1,434.8196,435.3191,,,,,,285,FEM,DIS,150,mafia,el,a,1.0669,,435.3198,435.3204,-0.002777778,-0.410185185,0,0,0,,0,155,155,284,1,,,,
,,,,,,d0857d073f61d696f240baab,66a626ef09d4e21e1a8894ec,67373fbca88640a6062be1ba,2024-11-15_13h36.37.253,Tarea de género gramatical,2024.2.2,Win32,59.88023952,,,,,,,,,,,,,,,,,,,,,,,,435.3208,436.6858,l,1,[],[],[],[],[],[],[],0.6835,1,436.6859,437.1858,,,,,,448,MAS,AGR,150,aceite,el,l,0.6835,,437.1859,437.1859,-0.002777778,-0.410185185,0,0,0,,0,156,156,447,1,,,,
,,,,,,d0857d073f61d696f240baab,66a626ef09d4e21e1a8894ec,67373fbca88640a6062be1ba,2024-11-15_13h36.37.253,Tarea de género gramatical,2024.2.2,Win32,59.88023952,,,,,,,,,,,,,,,,,,,,,,,,437.1868,438.419,l,1,[],[],[],[],[],[],[],0.5535,1,438.4192,438.9191,,,,,,346,MAS,AGR,150,juicio,el,l,0.5535,,438.9192,438.9192,-0.002777778,-0.410185185,0,0,0,,0,157,157,345,1,,,,
,,,,,,d0857d073f61d696f240baab,66a626ef09d4e21e1a8894ec,67373fbca88640a6062be1ba,2024-11-15_13h36.37.253,Tarea de género gramatical,2024.2.2,Win32,59.88023952,,,,,,,,,,,,,,,,,,,,,,,,438.9198,440.3691,l,1,[],[],[],[],[],[],[],0.7673,1,440.3692,440.869,,,,,,233,MAS,CON,150,golpe,,l,0.7673,,440.8691,440.8692,-0.002777778,-0.410185185,0,0,0,,0,158,158,232,1,,,,
,,,,,,d0857d073f61d696f240baab,66a626ef09d4e21e1a8894ec,67373fbca88640a6062be1ba,2024-11-15_13h36.37.253,Tarea de género gramatical,2024.2.2,Win32,59.88023952,,,,,,,,,,,,,,,,,,,,,,,,440.8698,442.1357,a,1,[],[],[],[],[],[],[],0.5863,1,442.1358,442.6357,,,,,,315,FEM,DIS,150,manera,el,a,0.5863,,442.6365,442.6369,-0.002777778,-0.410185185,0,0,0,,0,159,159,314,1,,,,
,,,,,,d0857d073f61d696f240baab,66a626ef09d4e21e1a8894ec,67373fbca88640a6062be1ba,2024-11-15_13h36.37.253,Tarea de género gramatical,2024.2.2,Win32,59.88023952,,,,,,,,,,,,,,,,,,,,,,,,442.6374,443.9191,a,1,[],[],[],[],[],[],[],0.6053,1,443.9191,444.4192,,,,,,141,FEM,DIS,150,cera,el,a,0.6053,,444.4193,444.4193,-0.002777778,-0.410185185,0,0,0,,0,160,160,140,1,,,,
,,,,,,d0857d073f61d696f240baab,66a626ef09d4e21e1a8894ec,67373fbca88640a6062be1ba,2024-11-15_13h36.37.253,Tarea de género gramatical,2024.2.2,Win32,59.88023952,,,,,,,,,,,,,,,,,,,,,,,,444.4199,445.6691,a,1,[],[],[],[],[],[],[],0.5668,1,445.6691,446.1691,,,,,,284,FEM,CON,150,fruta,,a,0.5668,,446.1691,446.1692,-0.002777778,-0.410185185,0,0,0,,0,161,161,283,1,,,,
,,,,,,d0857d073f61d696f240baab,66a626ef09d4e21e1a8894ec,67373fbca88640a6062be1ba,2024-11-15_13h36.37.253,Tarea de género gramatical,2024.2.2,Win32,59.88023952,,,,,,,,,,,,,,,,,,,,,,,,446.1698,447.3357,a,1,[],[],[],[],[],[],[],0.4785,1,447.3357,447.8358,,,,,,289,FEM,AGR,150,tabla,la,a,0.4785,,447.8359,447.8359,-0.002777778,-0.410185185,0,0,0,,0,162,162,288,1,,,,
,,,,,,d0857d073f61d696f240baab,66a626ef09d4e21e1a8894ec,67373fbca88640a6062be1ba,2024-11-15_13h36.37.253,Tarea de género gramatical,2024.2.2,Win32,59.88023952,,,,,,,,,,,,,,,,,,,,,,,,447.8365,449.0024,a,1,[],[],[],[],[],[],[],0.4835,1,449.0025,449.5024,,,,,,303,FEM,DIS,150,maldad,el,a,0.4835,,449.5024,449.5025,-0.002777778,-0.410185185,0,0,0,,0,163,163,302,1,,,,
,,,,,,d0857d073f61d696f240baab,66a626ef09d4e21e1a8894ec,67373fbca88640a6062be1ba,2024-11-15_13h36.37.253,Tarea de género gramatical,2024.2.2,Win32,59.88023952,,,,,,,,,,,,,,,,,,,,,,,,449.5032,450.8857,a,1,[],[],[],[],[],[],[],0.7075,1,450.8857,451.3858,,,,,,373,FEM,AGR,150,lluvia,la,a,0.7075,,451.3865,451.3871,-0.002777778,-0.410185185,0,0,0,,0,164,164,372,1,,,,
,,,,,,d0857d073f61d696f240baab,66a626ef09d4e21e1a8894ec,67373fbca88640a6062be1ba,2024-11-15_13h36.37.253,Tarea de género gramatical,2024.2.2,Win32,59.88023952,,,,,,,,,,,,,,,,,,,,,,,,451.3876,452.6024,a,1,[],[],[],[],[],[],[],0.5338,1,452.6024,453.1024,,,,,,74,FEM,CON,150,flor,,a,0.5338,,453.1024,453.1025,-0.002777778,-0.410185185,0,0,0,,0,165,165,73,1,,,,
,,,,,,d0857d073f61d696f240baab,66a626ef09d4e21e1a8894ec,67373fbca88640a6062be1ba,2024-11-15_13h36.37.253,Tarea de género gramatical,2024.2.2,Win32,59.88023952,,,,,,,,,,,,,,,,,,,,,,,,453.1033,454.3357,l,1,[],[],[],[],[],[],[],0.5505,1,454.3358,454.8357,,,,,,342,MAS,DIS,150,abuelo,la,l,0.5505,,454.8357,454.8359,-0.002777778,-0.410185185,0,0,0,,0,166,166,341,1,,,,
,,,,,,d0857d073f61d696f240baab,66a626ef09d4e21e1a8894ec,67373fbca88640a6062be1ba,2024-11-15_13h36.37.253,Tarea de género gramatical,2024.2.2,Win32,59.88023952,,,,,,,,,,,,,,,,,,,,,,,,454.8365,455.9191,a,1,[],[],[],[],[],[],[],0.4026,1,455.9192,456.419,,,,,,176,FEM,CON,150,línea,,a,0.4026,,456.4191,456.4192,-0.002777778,-0.410185185,0,0,0,,0,167,167,175,1,,,,
,,,,,,d0857d073f61d696f240baab,66a626ef09d4e21e1a8894ec,67373fbca88640a6062be1ba,2024-11-15_13h36.37.253,Tarea de género gramatical,2024.2.2,Win32,59.88023952,,,,,,,,,,,,,,,,,,,,,,,,456.4198,457.9358,l,1,[],[],[],[],[],[],[],0.8342,1,457.9359,458.4358,,,,,,17,MAS,CON,150,modo,,l,0.8342,,458.4366,458.437,-0.002777778,-0.410185185,0,0,0,,0,168,168,16,1,,,,
,,,,,,d0857d073f61d696f240baab,66a626ef09d4e21e1a8894ec,67373fbca88640a6062be1ba,2024-11-15_13h36.37.253,Tarea de género gramatical,2024.2.2,Win32,59.88023952,,,,,,,,,,,,,,,,,,,,,,,,458.4374,459.6858,a,1,[],[],[],[],[],[],[],0.5667,1,459.6858,460.1858,,,,,,206,FEM,CON,150,época,,a,0.5667,,460.1858,460.1859,-0.002777778,-0.410185185,0,0,0,,0,169,169,205,1,,,,
,,,,,,d0857d073f61d696f240baab,66a626ef09d4e21e1a8894ec,67373fbca88640a6062be1ba,2024-11-15_13h36.37.253,Tarea de género gramatical,2024.2.2,Win32,59.88023952,,,,,,,,,,,,,,,,,,,,,,,,460.1866,461.7025,l,1,[],[],[],[],[],[],[],0.8289,1,461.7025,462.2024,,,,,,252,MAS,DIS,150,viejo,la,l,0.8289,,462.2024,462.2025,-0.002777778,-0.410185185,0,0,0,,0,170,170,251,1,,,,
,,,,,,d0857d073f61d696f240baab,66a626ef09d4e21e1a8894ec,67373fbca88640a6062be1ba,2024-11-15_13h36.37.253,Tarea de género gramatical,2024.2.2,Win32,59.88023952,,,,,,,,,,,,,,,,,,,,,,,,462.2033,463.5857,l,1,[],[],[],[],[],[],[],0.7008,1,463.5859,464.0858,,,,,,208,MAS,AGR,150,suelo,el,l,0.7008,,464.0858,464.0859,-0.002777778,-0.410185185,0,0,0,,0,171,171,207,1,,,,
,,,,,,d0857d073f61d696f240baab,66a626ef09d4e21e1a8894ec,67373fbca88640a6062be1ba,2024-11-15_13h36.37.253,Tarea de género gramatical,2024.2.2,Win32,59.88023952,,,,,,,,,,,,,,,,,,,,,,,,464.0865,465.2191,a,1,[],[],[],[],[],[],[],0.4554,1,465.2192,465.7192,,,,,,261,FEM,DIS,150,cueva,el,a,0.4554,,465.7192,465.7192,-0.002777778,-0.410185185,0,0,0,,0,172,172,260,1,,,,
,,,,,,d0857d073f61d696f240baab,66a626ef09d4e21e1a8894ec,67373fbca88640a6062be1ba,2024-11-15_13h36.37.253,Tarea de género gramatical,2024.2.2,Win32,59.88023952,,,,,,,,,,,,,,,,,,,,,,,,465.7198,466.8024,a,1,[],[],[],[],[],[],[],0.4007,1,466.8025,467.3024,,,,,,404,FEM,CON,150,gloria,,a,0.4007,,467.3032,467.3037,-0.002777778,-0.410185185,0,0,0,,0,173,173,403,1,,,,
,,,,,,d0857d073f61d696f240baab,66a626ef09d4e21e1a8894ec,67373fbca88640a6062be1ba,2024-11-15_13h36.37.253,Tarea de género gramatical,2024.2.2,Win32,59.88023952,,,,,,,,,,,,,,,,,,,,,,,,467.3041,468.819,l,1,[],[],[],[],[],[],[],0.8335,1,468.8191,469.3191,,,,,,402,MAS,DIS,150,ladrón,la,l,0.8335,,469.3191,469.3193,-0.002777778,-0.410185185,0,0,0,,0,174,174,401,1,,,,
,,,,,,d0857d073f61d696f240baab,66a626ef09d4e21e1a8894ec,67373fbca88640a6062be1ba,2024-11-15_13h36.37.253,Tarea de género gramatical,2024.2.2,Win32,59.88023952,,,,,,,,,,,,,,,,,,,,,,,,469.3198,470.3691,l,1,[],[],[],[],[],[],[],0.3622,1,470.3692,470.8692,,,,,,270,MAS,DIS,150,queso,la,l,0.3622,,470.8692,470.8693,-0.002777778,-0.410185185,0,0,0,,0,175,175,269,1,,,,
,,,,,,d0857d073f61d696f240baab,66a626ef09d4e21e1a8894ec,67373fbca88640a6062be1ba,2024-11-15_13h36.37.253,Tarea de género gramatical,2024.2.2,Win32,59.88023952,,,,,,,,,,,,,,,,,,,,,,,,470.8699,471.9858,a,1,[],[],[],[],[],[],[],0.4352,1,471.9859,472.4858,,,,,,57,FEM,DIS,150,moda,el,a,0.4352,,472.4859,472.4859,-0.002777778,-0.410185185,0,0,0,,0,176,176,56,1,,,,
,,,,,,d0857d073f61d696f240baab,66a626ef09d4e21e1a8894ec,67373fbca88640a6062be1ba,2024-11-15_13h36.37.253,Tarea de género gramatical,2024.2.2,Win32,59.88023952,,,,,,,,,,,,,,,,,,,,,,,,472.4866,473.6191,l,1,[],[],[],[],[],[],[],0.4503,1,473.6191,474.119,,,,,,113,MAS,CON,150,toro,,l,0.4503,,474.1198,474.1202,-0.002777778,-0.410185185,0,0,0,,0,177,177,112,1,,,,
,,,,,,d0857d073f61d696f240baab,66a626ef09d4e21e1a8894ec,67373fbca88640a6062be1ba,2024-11-15_13h36.37.253,Tarea de género gramatical,2024.2.2,Win32,59.88023952,,,,,,,,,,,,,,,,,,,,,,,,474.1207,475.1358,l,1,[],[],[],[],[],[],[],0.3336,1,475.1359,475.6358,,,,,,274,MAS,AGR,150,motor,el,l,0.3336,,475.6359,475.6359,-0.002777778,-0.410185185,0,0,0,,0,178,178,273,1,,,,
,,,,,,d0857d073f61d696f240baab,66a626ef09d4e21e1a8894ec,67373fbca88640a6062be1ba,2024-11-15_13h36.37.253,Tarea de género gramatical,2024.2.2,Win32,59.88023952,,,,,,,,,,,,,,,,,,,,,,,,475.6366,476.7191,l,1,[],[],[],[],[],[],[],0.4072,1,476.7192,477.2191,,,,,,11,MAS,CON,150,país,,l,0.4072,,477.2191,477.2192,-0.002777778,-0.410185185,0,0,0,,0,179,179,10,1,,,,
,,,,,,d0857d073f61d696f240baab,66a626ef09d4e21e1a8894ec,67373fbca88640a6062be1ba,2024-11-15_13h36.37.253,Tarea de género gramatical,2024.2.2,Win32,59.88023952,,,,,,,,,,,,,,,,,,,,,,,,477.22,478.2524,l,1,[],[],[],[],[],[],[],0.3503,1,478.2524,478.7525,,,,,,142,MAS,AGR,150,lodo,el,l,0.3503,,478.7525,478.7525,-0.002777778,-0.410185185,0,0,0,,0,180,180,141,1,,,,
,,,,,,d0857d073f61d696f240baab,66a626ef09d4e21e1a8894ec,67373fbca88640a6062be1ba,2024-11-15_13h36.37.253,Tarea de género gramatical,2024.2.2,Win32,59.88023952,,,,,,,,,,,,,,,,,,,,,,,,478.7532,479.8358,l,1,[],[],[],[],[],[],[],0.4003,1,479.8359,480.3357,,,,,,126,MAS,DIS,150,lazo,la,l,0.4003,,480.3358,480.3359,-0.002777778,-0.410185185,0,0,0,,0,181,181,125,1,,,,
,,,,,,d0857d073f61d696f240baab,66a626ef09d4e21e1a8894ec,67373fbca88640a6062be1ba,2024-11-15_13h36.37.253,Tarea de género gramatical,2024.2.2,Win32,59.88023952,,,,,,,,,,,,,,,,,,,,,,,,480.3364,481.4192,a,1,[],[],[],[],[],[],[],0.4003,1,481.4193,481.9191,,,,,,158,FEM,CON,150,chica,,a,0.4003,,481.9201,481.9206,-0.002777778,-0.410185185,0,0,0,,0,182,182,157,1,,,,
,,,,,,d0857d073f61d696f240baab,66a626ef09d4e21e1a8894ec,67373fbca88640a6062be1ba,2024-11-15_13h36.37.253,Tarea de género gramatical,2024.2.2,Win32,59.88023952,,,,,,,,,,,,,,,,,,,,,,,,481.9212,483.0025,l,1,[],[],[],[],[],[],[],0.4005,1,483.0026,483.5025,,,,,,222,MAS,DIS,150,valor,la,l,0.4005,,483.5025,483.5025,-0.002777778,-0.410185185,0,0,0,,0,183,183,221,1,,,,
,,,,,,d0857d073f61d696f240baab,66a626ef09d4e21e1a8894ec,67373fbca88640a6062be1ba,2024-11-15_13h36.37.253,Tarea de género gramatical,2024.2.2,Win32,59.88023952,,,,,,,,,,,,,,,,,,,,,,,,483.5033,484.5191,l,1,[],[],[],[],[],[],[],0.3386,1,484.5192,485.0191,,,,,,102,MAS,DIS,150,coro,la,l,0.3386,,485.0191,485.0192,-0.002777778,-0.410185185,0,0,0,,0,184,184,101,1,,,,
,,,,,,d0857d073f61d696f240baab,66a626ef09d4e21e1a8894ec,67373fbca88640a6062be1ba,2024-11-15_13h36.37.253,Tarea de género gramatical,2024.2.2,Win32,59.88023952,,,,,,,,,,,,,,,,,,,,,,,,485.0198,486.1024,a,1,[],[],[],[],[],[],[],0.4,1,486.1025,486.6025,,,,,,296,FEM,CON,150,feria,,a,0.4,,486.6025,486.6026,-0.002777778,-0.410185185,0,0,0,,0,185,185,295,1,,,,
,,,,,,d0857d073f61d696f240baab,66a626ef09d4e21e1a8894ec,67373fbca88640a6062be1ba,2024-11-15_13h36.37.253,Tarea de género gramatical,2024.2.2,Win32,59.88023952,,,,,,,,,,,,,,,,,,,,,,,,486.6031,487.6524,l,1,[],[],[],[],[],[],[],0.3672,1,487.6524,488.1525,,,,,,24,MAS,DIS,150,voto,la,l,0.3672,,488.1534,488.1539,-0.002777778,-0.410185185,0,0,0,,0,186,186,23,1,,,,
,,,,,,d0857d073f61d696f240baab,66a626ef09d4e21e1a8894ec,67373fbca88640a6062be1ba,2024-11-15_13h36.37.253,Tarea de género gramatical,2024.2.2,Win32,59.88023952,,,,,,,,,,,,,,,,,,,,,,,,488.1543,489.2858,l,1,[],[],[],[],[],[],[],0.4506,1,489.2858,489.7859,,,,,,180,MAS,DIS,150,fuego,la,l,0.4506,,489.7859,489.7859,-0.002777778,-0.410185185,0,0,0,,0,187,187,179,1,,,,
,,,,,,d0857d073f61d696f240baab,66a626ef09d4e21e1a8894ec,67373fbca88640a6062be1ba,2024-11-15_13h36.37.253,Tarea de género gramatical,2024.2.2,Win32,59.88023952,,,,,,,,,,,,,,,,,,,,,,,,489.7865,490.7858,l,0,[],[],[],[],[],[],[],0.3171,0,490.7864,491.2857,,,,,,188,FEM,CON,150,bomba,,a,0.3171,,491.2857,491.2858,-0.002777778,-0.410185185,0,0,0,,0,188,188,187,1,,,,
,,,,,,d0857d073f61d696f240baab,66a626ef09d4e21e1a8894ec,67373fbca88640a6062be1ba,2024-11-15_13h36.37.253,Tarea de género gramatical,2024.2.2,Win32,59.88023952,,,,,,,,,,,,,,,,,,,,,,,,491.2866,492.5358,a,1,[],[],[],[],[],[],[],0.5676,1,492.5363,493.0358,,,,,,121,FEM,AGR,150,pila,la,a,0.5676,,493.0358,493.0358,-0.002777778,-0.410185185,0,0,0,,0,189,189,120,1,,,,
,,,,,,d0857d073f61d696f240baab,66a626ef09d4e21e1a8894ec,67373fbca88640a6062be1ba,2024-11-15_13h36.37.253,Tarea de género gramatical,2024.2.2,Win32,59.88023952,,,,,,,,,,,,,,,,,,,,,,,,493.0365,494.1191,a,1,[],[],[],[],[],[],[],0.4052,1,494.1193,494.619,,,,,,433,FEM,AGR,150,huella,la,a,0.4052,,494.6191,494.6193,-0.002777778,-0.410185185,0,0,0,,0,190,190,432,1,,,,
,,,,,,d0857d073f61d696f240baab,66a626ef09d4e21e1a8894ec,67373fbca88640a6062be1ba,2024-11-15_13h36.37.253,Tarea de género gramatical,2024.2.2,Win32,59.88023952,,,,,,,,,,,,,,,,,,,,,,,,494.62,495.9691,l,1,[],[],[],[],[],[],[],0.6687,1,495.9691,496.4691,,,,,,318,MAS,DIS,150,pueblo,la,l,0.6687,,496.4701,496.4706,-0.002777778,-0.410185185,0,0,0,,0,191,191,317,1,,,,
,,,,,,d0857d073f61d696f240baab,66a626ef09d4e21e1a8894ec,67373fbca88640a6062be1ba,2024-11-15_13h36.37.253,Tarea de género gramatical,2024.2.2,Win32,59.88023952,,,,,,,,,,,,,,,,,,,,,,,,496.4712,497.7191,l,0,[],[],[],[],[],[],[],0.5667,0,497.7198,498.219,,,,,,67,FEM,AGR,150,miel,la,a,0.5667,,498.219,498.2191,-0.002777778,-0.410185185,0,0,0,,0,192,192,66,1,,,,
,,,,,,d0857d073f61d696f240baab,66a626ef09d4e21e1a8894ec,67373fbca88640a6062be1ba,2024-11-15_13h36.37.253,Tarea de género gramatical,2024.2.2,Win32,59.88023952,,,,,,,,,,,,,,,,,,,,,,,,498.2198,499.3358,l,1,[],[],[],[],[],[],[],0.4364,1,499.3363,499.8357,,,,,,383,MAS,CON,150,parque,,l,0.4364,,499.8358,499.8359,-0.002777778,-0.410185185,0,0,0,,0,193,193,382,1,,,,
,,,,,,d0857d073f61d696f240baab,66a626ef09d4e21e1a8894ec,67373fbca88640a6062be1ba,2024-11-15_13h36.37.253,Tarea de género gramatical,2024.2.2,Win32,59.88023952,,,,,,,,,,,,,,,,,,,,,,,,499.8366,501.0858,a,1,[],[],[],[],[],[],[],0.5671,1,501.0858,501.5858,,,,,,171,FEM,DIS,150,mitad,el,a,0.5671,,501.5858,501.5859,-0.002777778,-0.410185185,0,0,0,,0,194,194,170,1,,,,
,,,,,,d0857d073f61d696f240baab,66a626ef09d4e21e1a8894ec,67373fbca88640a6062be1ba,2024-11-15_13h36.37.253,Tarea de género gramatical,2024.2.2,Win32,59.88023952,,,,,,,,,,,,,,,,,,,,,,,,501.5865,502.7524,l,1,[],[],[],[],[],[],[],0.4787,1,502.7525,503.2525,,,,,,120,MAS,DIS,150,puño,la,l,0.4787,,503.2533,503.2537,-0.002777778,-0.410185185,0,0,0,,0,195,195,119,1,,,,
,,,,,,d0857d073f61d696f240baab,66a626ef09d4e21e1a8894ec,67373fbca88640a6062be1ba,2024-11-15_13h36.37.253,Tarea de género gramatical,2024.2.2,Win32,59.88023952,,,,,,,,,,,,,,,,,,,,,,,,503.2542,504.3358,a,1,[],[],[],[],[],[],[],0.4003,1,504.3358,504.8358,,,,,,273,FEM,DIS,150,tarta,el,a,0.4003,,504.8358,504.8359,-0.002777778,-0.410185185,0,0,0,,0,196,196,272,1,,,,
,,,,,,d0857d073f61d696f240baab,66a626ef09d4e21e1a8894ec,67373fbca88640a6062be1ba,2024-11-15_13h36.37.253,Tarea de género gramatical,2024.2.2,Win32,59.88023952,,,,,,,,,,,,,,,,,,,,,,,,504.8368,506.1524,l,1,[],[],[],[],[],[],[],0.6333,1,506.1525,506.6525,,,,,,131,MAS,CON,150,kilo,,l,0.6333,,506.6525,506.6526,-0.002777778,-0.410185185,0,0,0,,0,197,197,130,1,,,,
,,,,,,d0857d073f61d696f240baab,66a626ef09d4e21e1a8894ec,67373fbca88640a6062be1ba,2024-11-15_13h36.37.253,Tarea de género gramatical,2024.2.2,Win32,59.88023952,,,,,,,,,,,,,,,,,,,,,,,,506.6535,507.8191,a,1,[],[],[],[],[],[],[],0.4842,1,507.8192,508.3191,,,,,,39,FEM,DIS,150,luna,el,a,0.4842,,508.3191,508.3192,-0.002777778,-0.410185185,0,0,0,,0,198,198,38,1,,,,
,,,,,,d0857d073f61d696f240baab,66a626ef09d4e21e1a8894ec,67373fbca88640a6062be1ba,2024-11-15_13h36.37.253,Tarea de género gramatical,2024.2.2,Win32,59.88023952,,,,,,,,,,,,,,,,,,,,,,,,508.32,509.3358,a,1,[],[],[],[],[],[],[],0.3337,1,509.3358,509.8358,,,,,,397,FEM,AGR,150,cuerda,la,a,0.3337,,509.8358,509.8359,-0.002777778,-0.410185185,0,0,0,,0,199,199,396,1,,,,
,,,,,,d0857d073f61d696f240baab,66a626ef09d4e21e1a8894ec,67373fbca88640a6062be1ba,2024-11-15_13h36.37.253,Tarea de género gramatical,2024.2.2,Win32,59.88023952,,,,,,,,,,,,,,,,,,,,,,,,509.8368,510.9191,a,1,[],[],[],[],[],[],[],0.4,1,510.9192,511.4191,,,,,,147,FEM,DIS,150,grúa,el,a,0.4,,511.4199,511.4204,-0.002777778,-0.410185185,0,0,0,,0,200,200,146,1,,,,
,,,,,,d0857d073f61d696f240baab,66a626ef09d4e21e1a8894ec,67373fbca88640a6062be1ba,2024-11-15_13h36.37.253,Tarea de género gramatical,2024.2.2,Win32,59.88023952,,,,,,,,,,,,,,,,,,,,,,,,511.4209,512.619,l,1,[],[],[],[],[],[],[],0.5159,1,512.6192,513.119,,,,,,432,MAS,DIS,150,océano,la,l,0.5159,,513.1191,513.1192,-0.002777778,-0.410185185,0,0,0,,0,201,201,431,1,,,,
,,,,,,d0857d073f61d696f240baab,66a626ef09d4e21e1a8894ec,67373fbca88640a6062be1ba,2024-11-15_13h36.37.253,Tarea de género gramatical,2024.2.2,Win32,59.88023952,,,,,,,,,,,,,,,,,,,,,,,,513.1199,514.1691,l,1,[],[],[],[],[],[],[],0.3639,1,514.1691,514.6692,,,,,,59,MAS,CON,150,lobo,,l,0.3639,,514.6692,514.6694,-0.002777778,-0.410185185,0,0,0,,0,202,202,58,1,,,,
,,,,,,d0857d073f61d696f240baab,66a626ef09d4e21e1a8894ec,67373fbca88640a6062be1ba,2024-11-15_13h36.37.253,Tarea de género gramatical,2024.2.2,Win32,59.88023952,,,,,,,,,,,,,,,,,,,,,,,,514.67,516.0691,a,1,[],[],[],[],[],[],[],0.7171,1,516.0691,516.5691,,,,,,86,FEM,CON,150,cruz,,a,0.7171,,516.5691,516.5692,-0.002777778,-0.410185185,0,0,0,,0,203,203,85,1,,,,
,,,,,,d0857d073f61d696f240baab,66a626ef09d4e21e1a8894ec,67373fbca88640a6062be1ba,2024-11-15_13h36.37.253,Tarea de género gramatical,2024.2.2,Win32,59.88023952,,,,,,,,,,,,,,,,,,,,,,,,516.5698,517.9691,l,1,[],[],[],[],[],[],[],0.7175,1,517.9691,518.4691,,,,,,53,MAS,CON,150,vaso,,l,0.7175,,518.4702,518.4708,-0.002777778,-0.410185185,0,0,0,,0,204,204,52,1,,,,
,,,,,,d0857d073f61d696f240baab,66a626ef09d4e21e1a8894ec,67373fbca88640a6062be1ba,2024-11-15_13h36.37.253,Tarea de género gramatical,2024.2.2,Win32,59.88023952,,,,,,,,,,,,,,,,,,,,,,,,518.4714,519.7858,l,1,[],[],[],[],[],[],[],0.6287,1,519.7858,520.2858,,,,,,275,MAS,CON,150,disco,,l,0.6287,,520.2858,520.2859,-0.002777778,-0.410185185,0,0,0,,0,205,205,274,1,,,,
,,,,,,d0857d073f61d696f240baab,66a626ef09d4e21e1a8894ec,67373fbca88640a6062be1ba,2024-11-15_13h36.37.253,Tarea de género gramatical,2024.2.2,Win32,59.88023952,,,,,,,,,,,,,,,,,,,,,,,,520.2865,521.9524,l,1,[],[],[],[],[],[],[],0.9842,1,521.9525,522.4525,,,,,,304,MAS,AGR,150,tiempo,el,l,0.9842,,522.4525,522.4526,-0.002777778,-0.410185185,0,0,0,,0,206,206,303,1,,,,
,,,,,,d0857d073f61d696f240baab,66a626ef09d4e21e1a8894ec,67373fbca88640a6062be1ba,2024-11-15_13h36.37.253,Tarea de género gramatical,2024.2.2,Win32,59.88023952,,,,,,,,,,,,,,,,,,,,,,,,522.4531,523.6524,l,1,[],[],[],[],[],[],[],0.5139,1,523.6525,524.1524,,,,,,341,MAS,CON,150,precio,,l,0.5139,,524.1525,524.1526,-0.002777778,-0.410185185,0,0,0,,0,207,207,340,1,,,,
,,,,,,d0857d073f61d696f240baab,66a626ef09d4e21e1a8894ec,67373fbca88640a6062be1ba,2024-11-15_13h36.37.253,Tarea de género gramatical,2024.2.2,Win32,59.88023952,,,,,,,,,,,,,,,,,,,,,,,,524.1533,525.3191,l,0,[],[],[],[],[],[],[],0.4833,0,525.3196,525.8191,,,,,,129,FEM,DIS,150,rana,el,a,0.4833,,525.8192,525.8192,-0.002777778,-0.410185185,0,0,0,,0,208,208,128,1,,,,
,,,,,,d0857d073f61d696f240baab,66a626ef09d4e21e1a8894ec,67373fbca88640a6062be1ba,2024-11-15_13h36.37.253,Tarea de género gramatical,2024.2.2,Win32,59.88023952,,,,,,,,,,,,,,,,,,,,,,,,525.8199,527.6025,l,1,[],[],[],[],[],[],[],1.1002,1,527.603,528.1024,,,,,,190,MAS,AGR,150,campo,el,l,1.1002,,528.1031,528.1036,-0.002777778,-0.410185185,0,0,0,,0,209,209,189,1,,,,
,,,,,,d0857d073f61d696f240baab,66a626ef09d4e21e1a8894ec,67373fbca88640a6062be1ba,2024-11-15_13h36.37.253,Tarea de género gramatical,2024.2.2,Win32,59.88023952,,,,,,,,,,,,,,,,,,,,,,,,528.1041,529.3025,a,1,[],[],[],[],[],[],[],0.5166,1,529.3025,529.8025,,,,,,19,FEM,AGR,150,niña,la,a,0.5166,,529.8025,529.8026,-0.002777778,-0.410185185,0,0,0,,0,210,210,18,1,,,,
,,,,,,d0857d073f61d696f240baab,66a626ef09d4e21e1a8894ec,67373fbca88640a6062be1ba,2024-11-15_13h36.37.253,Tarea de género gramatical,2024.2.2,Win32,59.88023952,,,,,,,,,,,,,,,,,,,,,,,,529.8033,531.3524,a,1,[],[],[],[],[],[],[],0.8674,1,531.3525,531.8524,,,,,,302,FEM,CON,150,cabeza,,a,0.8674,,531.8525,531.8525,-0.002777778,-0.410185185,0,0,0,,0,211,211,301,1,,,,
,,,,,,d0857d073f61d696f240baab,66a626ef09d4e21e1a8894ec,67373fbca88640a6062be1ba,2024-11-15_13h36.37.253,Tarea de género gramatical,2024.2.2,Win32,59.88023952,,,,,,,,,,,,,,,,,,,,,,,,531.8533,533.1357,l,1,[],[],[],[],[],[],[],0.6002,1,533.1358,533.6357,,,,,,444,MAS,DIS,150,límite,la,l,0.6002,,533.6358,533.6358,-0.002777778,-0.410185185,0,0,0,,0,212,212,443,1,,,,
,,,,,,d0857d073f61d696f240baab,66a626ef09d4e21e1a8894ec,67373fbca88640a6062be1ba,2024-11-15_13h36.37.253,Tarea de género gramatical,2024.2.2,Win32,59.88023952,,,,,,,,,,,,,,,,,,,,,,,,533.6367,534.8358,a,1,[],[],[],[],[],[],[],0.5178,1,534.8358,535.3358,,,,,,441,FEM,DIS,150,medida,el,a,0.5178,,535.3365,535.337,-0.002777778,-0.410185185,0,0,0,,0,213,213,440,1,,,,
,,,,,,d0857d073f61d696f240baab,66a626ef09d4e21e1a8894ec,67373fbca88640a6062be1ba,2024-11-15_13h36.37.253,Tarea de género gramatical,2024.2.2,Win32,59.88023952,,,,,,,,,,,,,,,,,,,,,,,,535.3374,536.6191,l,1,[],[],[],[],[],[],[],0.6007,1,536.6192,537.1191,,,,,,306,MAS,DIS,150,dinero,la,l,0.6007,,537.1192,537.1192,-0.002777778,-0.410185185,0,0,0,,0,214,214,305,1,,,,
,,,,,,d0857d073f61d696f240baab,66a626ef09d4e21e1a8894ec,67373fbca88640a6062be1ba,2024-11-15_13h36.37.253,Tarea de género gramatical,2024.2.2,Win32,59.88023952,,,,,,,,,,,,,,,,,,,,,,,,537.1199,538.4358,a,1,[],[],[],[],[],[],[],0.6349,1,538.4358,538.9358,,,,,,110,FEM,CON,150,rosa,,a,0.6349,,538.9359,538.9359,-0.002777778,-0.410185185,0,0,0,,0,215,215,109,1,,,,
,,,,,,d0857d073f61d696f240baab,66a626ef09d4e21e1a8894ec,67373fbca88640a6062be1ba,2024-11-15_13h36.37.253,Tarea de género gramatical,2024.2.2,Win32,59.88023952,,,,,,,,,,,,,,,,,,,,,,,,538.9366,540.0692,a,1,[],[],[],[],[],[],[],0.4506,1,540.0692,540.5691,,,,,,92,FEM,CON,150,masa,,a,0.4506,,540.5691,540.5692,-0.002777778,-0.410185185,0,0,0,,0,216,216,91,1,,,,
,,,,,,d0857d073f61d696f240baab,66a626ef09d4e21e1a8894ec,67373fbca88640a6062be1ba,2024-11-15_13h36.37.253,Tarea de género gramatical,2024.2.2,Win32,59.88023952,,,,,,,,,,,,,,,,,,,,,,,,540.5699,541.7359,a,1,[],[],[],[],[],[],[],0.479,1,541.7359,542.2357,,,,,,398,FEM,CON,150,hierba,,a,0.479,,542.2358,542.2359,-0.002777778,-0.410185185,0,0,0,,0,217,217,397,1,,,,
,,,,,,d0857d073f61d696f240baab,66a626ef09d4e21e1a8894ec,67373fbca88640a6062be1ba,2024-11-15_13h36.37.253,Tarea de género gramatical,2024.2.2,Win32,59.88023952,,,,,,,,,,,,,,,,,,,,,,,,542.2366,543.4358,a,1,[],[],[],[],[],[],[],0.5172,1,543.4358,543.9358,,,,,,403,FEM,AGR,150,paliza,la,a,0.5172,,543.9368,543.9375,-0.002777778,-0.410185185,0,0,0,,0,218,218,402,1,,,,
,,,,,,d0857d073f61d696f240baab,66a626ef09d4e21e1a8894ec,67373fbca88640a6062be1ba,2024-11-15_13h36.37.253,Tarea de género gramatical,2024.2.2,Win32,59.88023952,,,,,,,,,,,,,,,,,,,,,,,,543.9381,545.0691,l,1,[],[],[],[],[],[],[],0.4509,1,545.0691,545.5691,,,,,,390,MAS,DIS,150,rostro,la,l,0.4509,,545.5692,545.5693,-0.002777778,-0.410185185,0,0,0,,0,219,219,389,1,,,,
,,,,,,d0857d073f61d696f240baab,66a626ef09d4e21e1a8894ec,67373fbca88640a6062be1ba,2024-11-15_13h36.37.253,Tarea de género gramatical,2024.2.2,Win32,59.88023952,,,,,,,,,,,,,,,,,,,,,,,,545.5699,546.6857,l,1,[],[],[],[],[],[],[],0.4338,1,546.6859,547.1858,,,,,,77,MAS,CON,150,pico,,l,0.4338,,547.1858,547.1859,-0.002777778,-0.410185185,0,0,0,,0,220,220,76,1,,,,
,,,,,,d0857d073f61d696f240baab,66a626ef09d4e21e1a8894ec,67373fbca88640a6062be1ba,2024-11-15_13h36.37.253,Tarea de género gramatical,2024.2.2,Win32,59.88023952,,,,,,,,,,,,,,,,,,,,,,,,547.1867,548.2357,a,1,[],[],[],[],[],[],[],0.3671,1,548.2358,548.7358,,,,,,369,FEM,DIS,150,camisa,el,a,0.3671,,548.7358,548.7359,-0.002777778,-0.410185185,0,0,0,,0,221,221,368,1,,,,
,,,,,,d0857d073f61d696f240baab,66a626ef09d4e21e1a8894ec,67373fbca88640a6062be1ba,2024-11-15_13h36.37.253,Tarea de género gramatical,2024.2.2,Win32,59.88023952,,,,,,,,,,,,,,,,,,,,,,,,548.7367,549.7858,a,1,[],[],[],[],[],[],[],0.3628,1,549.7858,550.2857,,,,,,440,FEM,CON,150,patada,,a,0.3628,,550.2868,550.2873,-0.002777778,-0.410185185,0,0,0,,0,222,222,439,1,,,,
,,,,,,d0857d073f61d696f240baab,66a626ef09d4e21e1a8894ec,67373fbca88640a6062be1ba,2024-11-15_13h36.37.253,Tarea de género gramatical,2024.2.2,Win32,59.88023952,,,,,,,,,,,,,,,,,,,,,,,,550.2879,551.4191,l,0,[],[],[],[],[],[],[],0.4501,0,551.4197,551.9191,,,,,,320,FEM,CON,150,fiesta,,a,0.4501,,551.9191,551.9192,-0.002777778,-0.410185185,0,0,0,,0,223,223,319,1,,,,
,,,,,,d0857d073f61d696f240baab,66a626ef09d4e21e1a8894ec,67373fbca88640a6062be1ba,2024-11-15_13h36.37.253,Tarea de género gramatical,2024.2.2,Win32,59.88023952,,,,,,,,,,,,,,,,,,,,,,,,551.92,553.0691,a,1,[],[],[],[],[],[],[],0.4697,1,553.0696,553.5692,,,,,,175,FEM,AGR,150,señal,la,a,0.4697,,553.5692,553.5693,-0.002777778,-0.410185185,0,0,0,,0,224,224,174,1,,,,
,,,,,,d0857d073f61d696f240baab,66a626ef09d4e21e1a8894ec,67373fbca88640a6062be1ba,2024-11-15_13h36.37.253,Tarea de género gramatical,2024.2.2,Win32,59.88023952,,,,,,,,,,,,,,,,,,,,,,,,553.5699,554.7024,l,1,[],[],[],[],[],[],[],0.45,1,554.7025,555.2024,,,,,,160,MAS,AGR,150,señor,el,l,0.45,,555.2024,555.2026,-0.002777778,-0.410185185,0,0,0,,0,225,225,159,1,,,,
,,,,,,d0857d073f61d696f240baab,66a626ef09d4e21e1a8894ec,67373fbca88640a6062be1ba,2024-11-15_13h36.37.253,Tarea de género gramatical,2024.2.2,Win32,59.88023952,,,,,,,,,,,,,,,,,,,,,,,,555.2032,556.4024,l,1,[],[],[],[],[],[],[],0.5171,1,556.4025,556.9025,,,,,,317,MAS,CON,150,número,,l,0.5171,,556.9025,556.9025,-0.002777778,-0.410185185,0,0,0,,0,226,226,316,1,,,,
,,,,,,d0857d073f61d696f240baab,66a626ef09d4e21e1a8894ec,67373fbca88640a6062be1ba,2024-11-15_13h36.37.253,Tarea de género gramatical,2024.2.2,Win32,59.88023952,,,,,,,,,,,,,,,,,,,,,,,,556.9034,558.1024,l,1,[],[],[],[],[],[],[],0.5193,1,558.1025,558.6023,,,,,,72,MAS,DIS,150,hoyo,la,l,0.5193,,558.6033,558.6039,-0.002777778,-0.410185185,0,0,0,,0,227,227,71,1,,,,
,,,,,,d0857d073f61d696f240baab,66a626ef09d4e21e1a8894ec,67373fbca88640a6062be1ba,2024-11-15_13h36.37.253,Tarea de género gramatical,2024.2.2,Win32,59.88023952,,,,,,,,,,,,,,,,,,,,,,,,558.6044,559.7357,l,1,[],[],[],[],[],[],[],0.4512,1,559.7358,560.2357,,,,,,365,MAS,CON,150,código,,l,0.4512,,560.2358,560.2359,-0.002777778,-0.410185185,0,0,0,,0,228,228,364,1,,,,
,,,,,,d0857d073f61d696f240baab,66a626ef09d4e21e1a8894ec,67373fbca88640a6062be1ba,2024-11-15_13h36.37.253,Tarea de género gramatical,2024.2.2,Win32,59.88023952,,,,,,,,,,,,,,,,,,,,,,,,560.2366,561.2857,l,1,[],[],[],[],[],[],[],0.3673,1,561.2858,561.7859,,,,,,214,MAS,AGR,150,fondo,el,l,0.3673,,561.7859,561.7859,-0.002777778,-0.410185185,0,0,0,,0,229,229,213,1,,,,
,,,,,,d0857d073f61d696f240baab,66a626ef09d4e21e1a8894ec,67373fbca88640a6062be1ba,2024-11-15_13h36.37.253,Tarea de género gramatical,2024.2.2,Win32,59.88023952,,,,,,,,,,,,,,,,,,,,,,,,561.7867,562.9024,a,1,[],[],[],[],[],[],[],0.4351,1,562.9025,563.4025,,,,,,122,FEM,CON,150,loca,,a,0.4351,,563.4025,563.4026,-0.002777778,-0.410185185,0,0,0,,0,230,230,121,1,,,,
,,,,,,d0857d073f61d696f240baab,66a626ef09d4e21e1a8894ec,67373fbca88640a6062be1ba,2024-11-15_13h36.37.253,Tarea de género gramatical,2024.2.2,Win32,59.88023952,,,,,,,,,,,,,,,,,,,,,,,,563.4032,564.6191,a,1,[],[],[],[],[],[],[],0.5342,1,564.6191,565.1191,,,,,,183,FEM,DIS,150,llave,el,a,0.5342,,565.12,565.1206,-0.002777778,-0.410185185,0,0,0,,0,231,231,182,1,,,,
,,,,,,d0857d073f61d696f240baab,66a626ef09d4e21e1a8894ec,67373fbca88640a6062be1ba,2024-11-15_13h36.37.253,Tarea de género gramatical,2024.2.2,Win32,59.88023952,,,,,,,,,,,,,,,,,,,,,,,,565.1211,566.2358,a,1,[],[],[],[],[],[],[],0.4338,1,566.2358,566.7358,,,,,,254,FEM,CON,150,caída,,a,0.4338,,566.7358,566.7358,-0.002777778,-0.410185185,0,0,0,,0,232,232,253,1,,,,
,,,,,,d0857d073f61d696f240baab,66a626ef09d4e21e1a8894ec,67373fbca88640a6062be1ba,2024-11-15_13h36.37.253,Tarea de género gramatical,2024.2.2,Win32,59.88023952,,,,,,,,,,,,,,,,,,,,,,,,566.7367,568.5191,l,1,[],[],[],[],[],[],[],1.1009,1,568.5191,569.0191,,,,,,310,MAS,AGR,150,nombre,el,l,1.1009,,569.0191,569.0192,-0.002777778,-0.410185185,0,0,0,,0,233,233,309,1,,,,
,,,,,,d0857d073f61d696f240baab,66a626ef09d4e21e1a8894ec,67373fbca88640a6062be1ba,2024-11-15_13h36.37.253,Tarea de género gramatical,2024.2.2,Win32,59.88023952,,,,,,,,,,,,,,,,,,,,,,,,569.02,570.1858,a,1,[],[],[],[],[],[],[],0.4841,1,570.1858,570.6857,,,,,,45,FEM,DIS,150,isla,el,a,0.4841,,570.6858,570.6859,-0.002777778,-0.410185185,0,0,0,,0,234,234,44,1,,,,
,,,,,,d0857d073f61d696f240baab,66a626ef09d4e21e1a8894ec,67373fbca88640a6062be1ba,2024-11-15_13h36.37.253,Tarea de género gramatical,2024.2.2,Win32,59.88023952,,,,,,,,,,,,,,,,,,,,,,,,570.6867,572.2025,l,0,[],[],[],[],[],[],[],0.834,0,572.2029,572.7024,,,,,,49,FEM,AGR,150,piel,la,a,0.834,,572.7025,572.7026,-0.002777778,-0.410185185,0,0,0,,0,235,235,48,1,,,,
,,,,,,d0857d073f61d696f240baab,66a626ef09d4e21e1a8894ec,67373fbca88640a6062be1ba,2024-11-15_13h36.37.253,Tarea de género gramatical,2024.2.2,Win32,59.88023952,,,,,,,,,,,,,,,,,,,,,,,,572.7032,574.1025,l,0,[],[],[],[],[],[],[],0.7223,0,574.1025,574.6024,,,,,,7,FEM,AGR,150,hora,la,a,0.7223,,574.6034,574.604,-0.002777778,-0.410185185,0,0,0,,0,236,236,6,1,,,,
,,,,,,d0857d073f61d696f240baab,66a626ef09d4e21e1a8894ec,67373fbca88640a6062be1ba,2024-11-15_13h36.37.253,Tarea de género gramatical,2024.2.2,Win32,59.88023952,,,,,,,,,,,,,,,,,,,,,,,,574.6046,575.7691,a,1,[],[],[],[],[],[],[],0.4838,1,575.7695,576.2692,,,,,,357,FEM,DIS,150,lengua,el,a,0.4838,,576.2692,576.2693,-0.002777778,-0.410185185,0,0,0,,0,237,237,356,1,,,,
,,,,,,d0857d073f61d696f240baab,66a626ef09d4e21e1a8894ec,67373fbca88640a6062be1ba,2024-11-15_13h36.37.253,Tarea de género gramatical,2024.2.2,Win32,59.88023952,,,,,,,,,,,,,,,,,,,,,,,,576.2699,577.3524,l,1,[],[],[],[],[],[],[],0.4054,1,577.3525,577.8525,,,,,,47,MAS,CON,150,olor,,l,0.4054,,577.8525,577.8526,-0.002777778,-0.410185185,0,0,0,,0,238,238,46,1,,,,
,,,,,,d0857d073f61d696f240baab,66a626ef09d4e21e1a8894ec,67373fbca88640a6062be1ba,2024-11-15_13h36.37.253,Tarea de género gramatical,2024.2.2,Win32,59.88023952,,,,,,,,,,,,,,,,,,,,,,,,577.8532,579.1691,l,1,[],[],[],[],[],[],[],0.6336,1,579.1692,579.6691,,,,,,377,MAS,CON,150,jardín,,l,0.6336,,579.6691,579.6693,-0.002777778,-0.410185185,0,0,0,,0,239,239,376,1,,,,
,,,,,,d0857d073f61d696f240baab,66a626ef09d4e21e1a8894ec,67373fbca88640a6062be1ba,2024-11-15_13h36.37.253,Tarea de género gramatical,2024.2.2,Win32,59.88023952,,,,,,,,,,,,,,,,,,,,,,,,579.6701,580.7524,a,1,[],[],[],[],[],[],[],0.4,1,580.7525,581.2525,,,,,,26,FEM,CON,150,pena,,a,0.4,,581.2532,581.2537,-0.002777778,-0.410185185,0,0,0,,0,240,240,25,1,,,,
,,,,,,d0857d073f61d696f240baab,66a626ef09d4e21e1a8894ec,67373fbca88640a6062be1ba,2024-11-15_13h36.37.253,Tarea de género gramatical,2024.2.2,Win32,59.88023952,,,,,,,,,,,,,,,,,,,,,,,,581.2541,582.4191,a,1,[],[],[],[],[],[],[],0.4833,1,582.4192,582.9191,,,,,,43,FEM,AGR,150,nena,la,a,0.4833,,582.9191,582.9192,-0.002777778,-0.410185185,0,0,0,,0,241,241,42,1,,,,
,,,,,,d0857d073f61d696f240baab,66a626ef09d4e21e1a8894ec,67373fbca88640a6062be1ba,2024-11-15_13h36.37.253,Tarea de género gramatical,2024.2.2,Win32,59.88023952,,,,,,,,,,,,,,,,,,,,,,,,582.9198,584.1192,a,1,[],[],[],[],[],[],[],0.517,1,584.1192,584.6191,,,,,,386,FEM,CON,150,sombra,,a,0.517,,584.6191,584.6192,-0.002777778,-0.410185185,0,0,0,,0,242,242,385,1,,,,
,,,,,,d0857d073f61d696f240baab,66a626ef09d4e21e1a8894ec,67373fbca88640a6062be1ba,2024-11-15_13h36.37.253,Tarea de género gramatical,2024.2.2,Win32,59.88023952,,,,,,,,,,,,,,,,,,,,,,,,584.6199,585.9357,l,1,[],[],[],[],[],[],[],0.6366,1,585.9358,586.4358,,,,,,282,MAS,DIS,150,bolso,la,l,0.6366,,586.4359,586.4359,-0.002777778,-0.410185185,0,0,0,,0,243,243,281,1,,,,
,,,,,,d0857d073f61d696f240baab,66a626ef09d4e21e1a8894ec,67373fbca88640a6062be1ba,2024-11-15_13h36.37.253,Tarea de género gramatical,2024.2.2,Win32,59.88023952,,,,,,,,,,,,,,,,,,,,,,,,586.4365,587.5691,a,1,[],[],[],[],[],[],[],0.4505,1,587.5692,588.0691,,,,,,32,FEM,CON,150,caja,,a,0.4505,,588.0691,588.0692,-0.002777778,-0.410185185,0,0,0,,0,244,244,31,1,,,,
,,,,,,d0857d073f61d696f240baab,66a626ef09d4e21e1a8894ec,67373fbca88640a6062be1ba,2024-11-15_13h36.37.253,Tarea de género gramatical,2024.2.2,Win32,59.88023952,,,,,,,,,,,,,,,,,,,,,,,,588.0699,589.3192,l,1,[],[],[],[],[],[],[],0.5669,1,589.3193,589.8191,,,,,,184,MAS,AGR,150,cielo,el,l,0.5669,,589.8199,589.8204,-0.002777778,-0.410185185,0,0,0,,0,245,245,183,1,,,,
,,,,,,d0857d073f61d696f240baab,66a626ef09d4e21e1a8894ec,67373fbca88640a6062be1ba,2024-11-15_13h36.37.253,Tarea de género gramatical,2024.2.2,Win32,59.88023952,,,,,,,,,,,,,,,,,,,,,,,,589.8208,591.0525,l,1,[],[],[],[],[],[],[],0.5505,1,591.0526,591.5525,,,,,,118,MAS,AGR,150,baúl,el,l,0.5505,,591.5525,591.5526,-0.002777778,-0.410185185,0,0,0,,0,246,246,117,1,,,,
,,,,,,d0857d073f61d696f240baab,66a626ef09d4e21e1a8894ec,67373fbca88640a6062be1ba,2024-11-15_13h36.37.253,Tarea de género gramatical,2024.2.2,Win32,59.88023952,,,,,,,,,,,,,,,,,,,,,,,,591.5533,592.7191,l,1,[],[],[],[],[],[],[],0.4841,1,592.7192,593.2191,,,,,,293,MAS,CON,150,patio,,l,0.4841,,593.2192,593.2193,-0.002777778,-0.410185185,0,0,0,,0,247,247,292,1,,,,
,,,,,,d0857d073f61d696f240baab,66a626ef09d4e21e1a8894ec,67373fbca88640a6062be1ba,2024-11-15_13h36.37.253,Tarea de género gramatical,2024.2.2,Win32,59.88023952,,,,,,,,,,,,,,,,,,,,,,,,593.2201,594.3357,l,1,[],[],[],[],[],[],[],0.4364,1,594.3358,594.8357,,,,,,418,MAS,AGR,150,pájaro,el,l,0.4364,,594.8358,594.8358,-0.002777778,-0.410185185,0,0,0,,0,248,248,417,1,,,,
,,,,,,d0857d073f61d696f240baab,66a626ef09d4e21e1a8894ec,67373fbca88640a6062be1ba,2024-11-15_13h36.37.253,Tarea de género gramatical,2024.2.2,Win32,59.88023952,,,,,,,,,,,,,,,,,,,,,,,,594.8366,595.9691,l,1,[],[],[],[],[],[],[],0.4508,1,595.9692,596.4692,,,,,,336,MAS,DIS,150,crimen,la,l,0.4508,,596.4702,596.4709,-0.002777778,-0.410185185,0,0,0,,0,249,249,335,1,,,,
,,,,,,d0857d073f61d696f240baab,66a626ef09d4e21e1a8894ec,67373fbca88640a6062be1ba,2024-11-15_13h36.37.253,Tarea de género gramatical,2024.2.2,Win32,59.88023952,,,,,,,,,,,,,,,,,,,,,,,,596.4717,597.6024,l,1,[],[],[],[],[],[],[],0.4511,1,597.6025,598.1024,,,,,,41,MAS,CON,150,bote,,l,0.4511,,598.1024,598.1025,-0.002777778,-0.410185185,0,0,0,,0,250,250,40,1,,,,
