counterbalancing_condition,consent_prescreening.block_1/declare_consent,consent_prescreening.block_1/age_years,consent_prescreening.block_1/gender,consent_prescreening.block_1/language_disorder,consent_prescreening.block_1/first_language,PROLIFIC_PID,STUDY_ID,SESSION_ID,date,expName,psychopyVersion,OS,frameRate,check_prescreening_answers.started,check_prescreening_answers.stopped,Instructions.started,Instructions.stopped,instr_done_keyboard.keys,instr_done_keyboard.rt,instr_done_keyboard.duration,instr_done_touch.x,instr_done_touch.y,instr_done_touch.leftButton,instr_done_touch.midButton,instr_done_touch.rightButton,instruction_pages.thisRepN,instruction_pages.thisTrialN,instruction_pages.thisN,instruction_pages.thisIndex,instruction_pages.ran,pageN,phase,instruct_text,has_image,instruct_image,instr_done_touch.clicked_name,presentTrial.started,presentTrial.stopped,response.keys,response.corr,response.rt,response.duration,touch_resp.x,touch_resp.y,touch_resp.leftButton,touch_resp.midButton,touch_resp.rightButton,touch_resp.time,touch_resp.clicked_name,rt,corr,feedback.started,feedback.stopped,practice_trials.thisRepN,practice_trials.thisTrialN,practice_trials.thisN,practice_trials.thisIndex,practice_trials.ran,TrialID,StimulusType,Condition,PrimeDuration,Prime,Flanker,corrAns,Break.started,Break.stopped,break_done_touch.x,break_done_touch.y,break_done_touch.leftButton,break_done_touch.midButton,break_done_touch.rightButton,break_done_keyboard.keys,experiment_trials.thisRepN,experiment_trials.thisTrialN,experiment_trials.thisN,experiment_trials.thisIndex,experiment_trials.ran,break_done_touch.clicked_name,break_done_keyboard.rt,break_done_keyboard.duration,End.started,End.stopped
0,"[""over_18"",""comfortable"",""read_info"",""consent_given""]",22,M,"[""none""]","[""spanish""]",d0d619c7b6b95536d90ccb97,66a626ef09d4e21e1a8894ec,6734a0362ae2d31764b30a62,2024-11-13_13h54.52.293,Tarea de género gramatical,2024.2.2,Win32,88.49557522,,,,,,,,,,,,,,,,,,,,,,,,,,,,,,,,,,,,,,,,,,,,,,,,,,,,,,,,,,,,,,,,,,,,,,
,,,,,,d0d619c7b6b95536d90ccb97,66a626ef09d4e21e1a8894ec,6734a0362ae2d31764b30a62,2024-11-13_13h54.52.293,Tarea de género gramatical,2024.2.2,Win32,88.49557522,14.8602,14.8605,,,,,,,,,,,,,,,,,,,,,,,,,,,,,,,,,,,,,,,,,,,,,,,,,,,,,,,,,,,,,,,,,,,,
,,,,,,d0d619c7b6b95536d90ccb97,66a626ef09d4e21e1a8894ec,6734a0362ae2d31764b30a62,2024-11-13_13h54.52.293,Tarea de género gramatical,2024.2.2,Win32,88.49557522,,,14.8977,427.3137,space,412.3507,,-0.079444444,-0.063333333,0,0,0,0,0,0,0,1,1,instructions,"INSTRUCCIONES
Va a realizar una prueba de selección gramatical. Desde el comienzo de la prueba mire siempre al centro de la pantalla. Al cabo de un momento, aparecerán palabras. La tarea consiste en determinar si la palabra del centro (siempre será un sustantivo), pertenece al género masculino o femenino.

Pulse la tecla ESPACIO o toque el botón de abajo para continuar.",0,keyboardresponseMF.png,,,,,,,,,,,,,,,,,,,,,,,,,,,,,,,,,,,,,,,,,,,,,,,,
,,,,,,d0d619c7b6b95536d90ccb97,66a626ef09d4e21e1a8894ec,6734a0362ae2d31764b30a62,2024-11-13_13h54.52.293,Tarea de género gramatical,2024.2.2,Win32,88.49557522,,,427.3198,433.0152,space,5.6424,,-0.079444444,-0.063333333,0,0,0,0,1,1,1,1,2,instructions,"Si su dispositivo tiene teclado, pulse la tecla ""A"" para las palabras en masculino (por ejemplo: ""arroz"") y la tecla ""L"" para las palabras en femenino (por ejemplo: ""mano"").
Pulse la tecla ESPACIO o toque el botón de abajo para continuar.",1,keyboardresponseMF.png,,,,,,,,,,,,,,,,,,,,,,,,,,,,,,,,,,,,,,,,,,,,,,,,
,,,,,,d0d619c7b6b95536d90ccb97,66a626ef09d4e21e1a8894ec,6734a0362ae2d31764b30a62,2024-11-13_13h54.52.293,Tarea de género gramatical,2024.2.2,Win32,88.49557522,,,433.0205,519.9815,,,,0.040555556,-0.376666667,1,0,0,0,2,2,2,1,3,instructions,"Si utiliza un dispositivo sólo táctil, colóquelo en horizontal y utilice los botones de la pantalla. No utilice el ratón.
Pulse la tecla ESPACIO o toque el botón de abajo para continuar.",2,touchresponseMF.png,instr_done_button,,,,,,,,,,,,,,,,,,,,,,,,,,,,,,,,,,,,,,,,,,,,,,,
,,,,,,d0d619c7b6b95536d90ccb97,66a626ef09d4e21e1a8894ec,6734a0362ae2d31764b30a62,2024-11-13_13h54.52.293,Tarea de género gramatical,2024.2.2,Win32,88.49557522,,,519.9891,527.7882,space,7.7785,,0.040555556,-0.376666667,0,0,0,0,3,3,3,1,4,instructions,"Es muy importante que responda con la mayor rapidez y precisión posibles, ya que cada cadena de letras sólo estará en pantalla durante un instante. Si no responde en ese tiempo, aparecerá el mensaje ""Muy lento"" y el experimento pasará a la siguiente palabra. Los primeros 15 intentos serán de práctica y habrá dos descansos durante la prueba.
Pulse la tecla ESPACIO o toque el botón de abajo para iniciar la parte de práctica.",0,keyboardresponseMF.png,,,,,,,,,,,,,,,,,,,,,,,,,,,,,,,,,,,,,,,,,,,,,,,,
,,,,,,d0d619c7b6b95536d90ccb97,66a626ef09d4e21e1a8894ec,6734a0362ae2d31764b30a62,2024-11-13_13h54.52.293,Tarea de género gramatical,2024.2.2,Win32,88.49557522,,,,,,,,,,,,,,,,,,,,,,,,527.8271,529.9681,a,0,1.4638,,[],[],[],[],[],[],[],1.4638,0,529.969,530.4695,0,0,0,6,1,2007,FEM,AGR,150,navaja,la,a,,,,,,,,,,,,,,,,,,
,,,,,,d0d619c7b6b95536d90ccb97,66a626ef09d4e21e1a8894ec,6734a0362ae2d31764b30a62,2024-11-13_13h54.52.293,Tarea de género gramatical,2024.2.2,Win32,88.49557522,,,,,,,,,,,,,,,,,,,,,,,,530.4717,531.8475,a,1,0.7114,,[],[],[],[],[],[],[],0.7114,1,531.8512,532.3399,0,1,1,9,1,2010,MAS,AGR,150,vecino,el,l,,,,,,,,,,,,,,,,,,
,,,,,,d0d619c7b6b95536d90ccb97,66a626ef09d4e21e1a8894ec,6734a0362ae2d31764b30a62,2024-11-13_13h54.52.293,Tarea de género gramatical,2024.2.2,Win32,88.49557522,,,,,,,,,,,,,,,,,,,,,,,,532.3441,533.5789,l,1,0.5751,,[],[],[],[],[],[],[],0.5751,1,533.5794,534.0771,0,2,2,4,1,2005,FEM,CON,150,placa,,a,,,,,,,,,,,,,,,,,,
,,,,,,d0d619c7b6b95536d90ccb97,66a626ef09d4e21e1a8894ec,6734a0362ae2d31764b30a62,2024-11-13_13h54.52.293,Tarea de género gramatical,2024.2.2,Win32,88.49557522,,,,,,,,,,,,,,,,,,,,,,,,534.0786,535.2365,a,1,0.4945,,[],[],[],[],[],[],[],0.4945,1,535.2366,535.7304,0,3,3,12,1,2013,MAS,AGR,150,acero,el,l,,,,,,,,,,,,,,,,,,
,,,,,,d0d619c7b6b95536d90ccb97,66a626ef09d4e21e1a8894ec,6734a0362ae2d31764b30a62,2024-11-13_13h54.52.293,Tarea de género gramatical,2024.2.2,Win32,88.49557522,,,,,,,,,,,,,,,,,,,,,,,,535.7348,536.9933,l,0,0.5968,,[],[],[],[],[],[],[],0.5968,0,536.995,537.4906,0,4,4,14,1,2015,MAS,DIS,150,robot,la,l,,,,,,,,,,,,,,,,,,
,,,,,,d0d619c7b6b95536d90ccb97,66a626ef09d4e21e1a8894ec,6734a0362ae2d31764b30a62,2024-11-13_13h54.52.293,Tarea de género gramatical,2024.2.2,Win32,88.49557522,,,,,,,,,,,,,,,,,,,,,,,,537.4922,538.7995,l,1,0.6406,,[],[],[],[],[],[],[],0.6406,1,538.8016,539.2923,0,5,5,3,1,2004,FEM,AGR,150,venta,la,a,,,,,,,,,,,,,,,,,,
,,,,,,d0d619c7b6b95536d90ccb97,66a626ef09d4e21e1a8894ec,6734a0362ae2d31764b30a62,2024-11-13_13h54.52.293,Tarea de género gramatical,2024.2.2,Win32,88.49557522,,,,,,,,,,,,,,,,,,,,,,,,539.295,540.4148,l,1,0.4461,,[],[],[],[],[],[],[],0.4461,1,540.4151,540.9078,0,6,6,1,1,2002,FEM,CON,150,pala,,a,,,,,,,,,,,,,,,,,,
,,,,,,d0d619c7b6b95536d90ccb97,66a626ef09d4e21e1a8894ec,6734a0362ae2d31764b30a62,2024-11-13_13h54.52.293,Tarea de género gramatical,2024.2.2,Win32,88.49557522,,,,,,,,,,,,,,,,,,,,,,,,540.9116,541.9791,a,0,0.4031,,[],[],[],[],[],[],[],0.4031,0,541.9804,542.4804,0,7,7,5,1,2006,FEM,DIS,150,serie,el,a,,,,,,,,,,,,,,,,,,
,,,,,,d0d619c7b6b95536d90ccb97,66a626ef09d4e21e1a8894ec,6734a0362ae2d31764b30a62,2024-11-13_13h54.52.293,Tarea de género gramatical,2024.2.2,Win32,88.49557522,,,,,,,,,,,,,,,,,,,,,,,,542.4817,544.4151,a,1,1.2681,,[],[],[],[],[],[],[],1.2681,1,544.4167,544.9094,0,8,8,8,1,2009,MAS,DIS,150,puerto,la,l,,,,,,,,,,,,,,,,,,
,,,,,,d0d619c7b6b95536d90ccb97,66a626ef09d4e21e1a8894ec,6734a0362ae2d31764b30a62,2024-11-13_13h54.52.293,Tarea de género gramatical,2024.2.2,Win32,88.49557522,,,,,,,,,,,,,,,,,,,,,,,,544.9133,546.1255,l,1,0.5454,,[],[],[],[],[],[],[],0.5454,1,546.1257,546.6245,0,9,9,2,1,2003,FEM,DIS,150,daga,el,a,,,,,,,,,,,,,,,,,,
,,,,,,d0d619c7b6b95536d90ccb97,66a626ef09d4e21e1a8894ec,6734a0362ae2d31764b30a62,2024-11-13_13h54.52.293,Tarea de género gramatical,2024.2.2,Win32,88.49557522,,,,,,,,,,,,,,,,,,,,,,,,546.6266,547.867,l,0,0.5677,,[],[],[],[],[],[],[],0.5677,0,547.8694,548.3616,0,10,10,11,1,2012,MAS,DIS,150,clima,la,l,,,,,,,,,,,,,,,,,,
,,,,,,d0d619c7b6b95536d90ccb97,66a626ef09d4e21e1a8894ec,6734a0362ae2d31764b30a62,2024-11-13_13h54.52.293,Tarea de género gramatical,2024.2.2,Win32,88.49557522,,,,,,,,,,,,,,,,,,,,,,,,548.3646,549.5457,a,1,0.5103,,[],[],[],[],[],[],[],0.5103,1,549.5467,550.043,0,11,11,10,1,2011,MAS,CON,150,canal,,l,,,,,,,,,,,,,,,,,,
,,,,,,d0d619c7b6b95536d90ccb97,66a626ef09d4e21e1a8894ec,6734a0362ae2d31764b30a62,2024-11-13_13h54.52.293,Tarea de género gramatical,2024.2.2,Win32,88.49557522,,,,,,,,,,,,,,,,,,,,,,,,550.0464,551.2144,a,1,0.501,,[],[],[],[],[],[],[],0.501,1,551.2145,551.7101,0,12,12,13,1,2014,MAS,CON,150,siglo,,l,,,,,,,,,,,,,,,,,,
,,,,,,d0d619c7b6b95536d90ccb97,66a626ef09d4e21e1a8894ec,6734a0362ae2d31764b30a62,2024-11-13_13h54.52.293,Tarea de género gramatical,2024.2.2,Win32,88.49557522,,,,,,,,,,,,,,,,,,,,,,,,551.7134,552.8455,l,1,0.4641,,[],[],[],[],[],[],[],0.4641,1,552.846,553.3439,0,13,13,7,1,2008,FEM,CON,150,siesta,,a,,,,,,,,,,,,,,,,,,
,,,,,,d0d619c7b6b95536d90ccb97,66a626ef09d4e21e1a8894ec,6734a0362ae2d31764b30a62,2024-11-13_13h54.52.293,Tarea de género gramatical,2024.2.2,Win32,88.49557522,,,,,,,,,,,,,,,,,,,,,,,,553.347,554.4476,l,1,0.4341,,[],[],[],[],[],[],[],0.4341,1,554.4477,554.942,0,14,14,0,1,2001,FEM,AGR,150,nuca,la,a,,,,,,,,,,,,,,,,,,
,,,,,,d0d619c7b6b95536d90ccb97,66a626ef09d4e21e1a8894ec,6734a0362ae2d31764b30a62,2024-11-13_13h54.52.293,Tarea de género gramatical,2024.2.2,Win32,88.49557522,,,585.8667,593.1592,space,7.274,,0.040555556,-0.376666667,0,0,0,,,,,,,,,,,,593.2239,594.5138,a,0,0.6224,,[],[],[],[],[],[],[],0.6224,0,594.5151,595.0113,,,,,,206,FEM,CON,150,época,,a,595.0117,595.0211,0.040555556,-0.376666667,0,0,0,,0,0,0,205,1,,,,,
,,,,,,d0d619c7b6b95536d90ccb97,66a626ef09d4e21e1a8894ec,6734a0362ae2d31764b30a62,2024-11-13_13h54.52.293,Tarea de género gramatical,2024.2.2,Win32,88.49557522,,,,,,,,,,,,,,,,,,,,,,,,595.0226,596.266,a,1,0.5801,,[],[],[],[],[],[],[],0.5801,1,596.2689,596.764,,,,,,372,MAS,DIS,150,delito,la,l,596.7643,596.7647,0.040555556,-0.376666667,0,0,0,,0,1,1,371,1,,,,,
,,,,,,d0d619c7b6b95536d90ccb97,66a626ef09d4e21e1a8894ec,6734a0362ae2d31764b30a62,2024-11-13_13h54.52.293,Tarea de género gramatical,2024.2.2,Win32,88.49557522,,,,,,,,,,,,,,,,,,,,,,,,596.7678,597.9145,a,1,0.4816,,[],[],[],[],[],[],[],0.4816,1,597.9146,598.4139,,,,,,190,MAS,AGR,150,campo,el,l,598.4174,598.42,0.040555556,-0.376666667,0,0,0,,0,2,2,189,1,,,,,
,,,,,,d0d619c7b6b95536d90ccb97,66a626ef09d4e21e1a8894ec,6734a0362ae2d31764b30a62,2024-11-13_13h54.52.293,Tarea de género gramatical,2024.2.2,Win32,88.49557522,,,,,,,,,,,,,,,,,,,,,,,,598.4212,599.4034,l,1,0.3145,,[],[],[],[],[],[],[],0.3145,1,599.4035,599.9036,,,,,,363,FEM,DIS,150,unidad,el,a,599.9036,599.9038,0.040555556,-0.376666667,0,0,0,,0,3,3,362,1,,,,,
,,,,,,d0d619c7b6b95536d90ccb97,66a626ef09d4e21e1a8894ec,6734a0362ae2d31764b30a62,2024-11-13_13h54.52.293,Tarea de género gramatical,2024.2.2,Win32,88.49557522,,,,,,,,,,,,,,,,,,,,,,,,599.9057,601.1368,l,1,0.5567,,[],[],[],[],[],[],[],0.5567,1,601.1371,601.6362,,,,,,219,FEM,DIS,150,costa,el,a,601.6363,601.6364,0.040555556,-0.376666667,0,0,0,,0,4,4,218,1,,,,,
,,,,,,d0d619c7b6b95536d90ccb97,66a626ef09d4e21e1a8894ec,6734a0362ae2d31764b30a62,2024-11-13_13h54.52.293,Tarea de género gramatical,2024.2.2,Win32,88.49557522,,,,,,,,,,,,,,,,,,,,,,,,601.6382,602.759,l,1,0.4602,,[],[],[],[],[],[],[],0.4602,1,602.7592,603.258,,,,,,303,FEM,DIS,150,maldad,el,a,603.258,603.2584,0.040555556,-0.376666667,0,0,0,,0,5,5,302,1,,,,,
,,,,,,d0d619c7b6b95536d90ccb97,66a626ef09d4e21e1a8894ec,6734a0362ae2d31764b30a62,2024-11-13_13h54.52.293,Tarea de género gramatical,2024.2.2,Win32,88.49557522,,,,,,,,,,,,,,,,,,,,,,,,603.2621,604.3148,l,1,0.3826,,[],[],[],[],[],[],[],0.3826,1,604.315,604.8252,,,,,,7,FEM,AGR,150,hora,la,a,604.8295,604.8312,0.040555556,-0.376666667,0,0,0,,0,6,6,6,1,,,,,
,,,,,,d0d619c7b6b95536d90ccb97,66a626ef09d4e21e1a8894ec,6734a0362ae2d31764b30a62,2024-11-13_13h54.52.293,Tarea de género gramatical,2024.2.2,Win32,88.49557522,,,,,,,,,,,,,,,,,,,,,,,,604.8326,606.0252,a,1,0.5232,,[],[],[],[],[],[],[],0.5232,1,606.0254,606.5219,,,,,,390,MAS,DIS,150,rostro,la,l,606.5223,606.5226,0.040555556,-0.376666667,0,0,0,,0,7,7,389,1,,,,,
,,,,,,d0d619c7b6b95536d90ccb97,66a626ef09d4e21e1a8894ec,6734a0362ae2d31764b30a62,2024-11-13_13h54.52.293,Tarea de género gramatical,2024.2.2,Win32,88.49557522,,,,,,,,,,,,,,,,,,,,,,,,606.5257,607.7035,a,1,0.5067,,[],[],[],[],[],[],[],0.5067,1,607.7038,608.203,,,,,,173,MAS,CON,150,libro,,l,608.2032,608.2033,0.040555556,-0.376666667,0,0,0,,0,8,8,172,1,,,,,
,,,,,,d0d619c7b6b95536d90ccb97,66a626ef09d4e21e1a8894ec,6734a0362ae2d31764b30a62,2024-11-13_13h54.52.293,Tarea de género gramatical,2024.2.2,Win32,88.49557522,,,,,,,,,,,,,,,,,,,,,,,,608.2055,609.3146,a,1,0.4457,,[],[],[],[],[],[],[],0.4457,1,609.3149,609.8103,,,,,,184,MAS,AGR,150,cielo,el,l,609.8106,609.8111,0.040555556,-0.376666667,0,0,0,,0,9,9,183,1,,,,,
,,,,,,d0d619c7b6b95536d90ccb97,66a626ef09d4e21e1a8894ec,6734a0362ae2d31764b30a62,2024-11-13_13h54.52.293,Tarea de género gramatical,2024.2.2,Win32,88.49557522,,,,,,,,,,,,,,,,,,,,,,,,609.8143,610.8256,l,1,0.3459,,[],[],[],[],[],[],[],0.3459,1,610.8258,611.3223,,,,,,194,FEM,CON,150,banda,,a,611.3224,611.3225,0.040555556,-0.376666667,0,0,0,,0,10,10,193,1,,,,,
,,,,,,d0d619c7b6b95536d90ccb97,66a626ef09d4e21e1a8894ec,6734a0362ae2d31764b30a62,2024-11-13_13h54.52.293,Tarea de género gramatical,2024.2.2,Win32,88.49557522,,,,,,,,,,,,,,,,,,,,,,,,611.3237,612.5262,a,1,0.5353,,[],[],[],[],[],[],[],0.5353,1,612.5264,613.0207,,,,,,221,MAS,CON,150,brazo,,l,613.0251,613.0263,0.040555556,-0.376666667,0,0,0,,0,11,11,220,1,,,,,
,,,,,,d0d619c7b6b95536d90ccb97,66a626ef09d4e21e1a8894ec,6734a0362ae2d31764b30a62,2024-11-13_13h54.52.293,Tarea de género gramatical,2024.2.2,Win32,88.49557522,,,,,,,,,,,,,,,,,,,,,,,,613.0288,614.2419,l,1,0.5389,,[],[],[],[],[],[],[],0.5389,1,614.2424,614.7416,,,,,,243,FEM,DIS,150,salsa,el,a,614.7418,614.742,0.040555556,-0.376666667,0,0,0,,0,12,12,242,1,,,,,
,,,,,,d0d619c7b6b95536d90ccb97,66a626ef09d4e21e1a8894ec,6734a0362ae2d31764b30a62,2024-11-13_13h54.52.293,Tarea de género gramatical,2024.2.2,Win32,88.49557522,,,,,,,,,,,,,,,,,,,,,,,,614.7453,615.9994,a,1,0.5855,,[],[],[],[],[],[],[],0.5855,1,615.9999,616.4919,,,,,,34,MAS,AGR,150,gato,el,l,616.492,616.4922,0.040555556,-0.376666667,0,0,0,,0,13,13,33,1,,,,,
,,,,,,d0d619c7b6b95536d90ccb97,66a626ef09d4e21e1a8894ec,6734a0362ae2d31764b30a62,2024-11-13_13h54.52.293,Tarea de género gramatical,2024.2.2,Win32,88.49557522,,,,,,,,,,,,,,,,,,,,,,,,616.4951,617.7588,a,1,0.5957,,[],[],[],[],[],[],[],0.5957,1,617.7589,618.2579,,,,,,280,MAS,AGR,150,salón,el,l,618.2579,618.2581,0.040555556,-0.376666667,0,0,0,,0,14,14,279,1,,,,,
,,,,,,d0d619c7b6b95536d90ccb97,66a626ef09d4e21e1a8894ec,6734a0362ae2d31764b30a62,2024-11-13_13h54.52.293,Tarea de género gramatical,2024.2.2,Win32,88.49557522,,,,,,,,,,,,,,,,,,,,,,,,618.2598,619.515,l,1,0.5907,,[],[],[],[],[],[],[],0.5907,1,619.5151,620.0085,,,,,,224,FEM,CON,150,arena,,a,620.0124,620.0136,0.040555556,-0.376666667,0,0,0,,0,15,15,223,1,,,,,
,,,,,,d0d619c7b6b95536d90ccb97,66a626ef09d4e21e1a8894ec,6734a0362ae2d31764b30a62,2024-11-13_13h54.52.293,Tarea de género gramatical,2024.2.2,Win32,88.49557522,,,,,,,,,,,,,,,,,,,,,,,,620.0148,621.244,l,1,0.5632,,[],[],[],[],[],[],[],0.5632,1,621.2443,621.7387,,,,,,91,FEM,AGR,150,hoja,la,a,621.7388,621.7392,0.040555556,-0.376666667,0,0,0,,0,16,16,90,1,,,,,
,,,,,,d0d619c7b6b95536d90ccb97,66a626ef09d4e21e1a8894ec,6734a0362ae2d31764b30a62,2024-11-13_13h54.52.293,Tarea de género gramatical,2024.2.2,Win32,88.49557522,,,,,,,,,,,,,,,,,,,,,,,,621.7421,623.1919,a,1,0.7829,,[],[],[],[],[],[],[],0.7829,1,623.1919,623.6894,,,,,,262,MAS,AGR,150,video,el,l,623.6896,623.6896,0.040555556,-0.376666667,0,0,0,,0,17,17,261,1,,,,,
,,,,,,d0d619c7b6b95536d90ccb97,66a626ef09d4e21e1a8894ec,6734a0362ae2d31764b30a62,2024-11-13_13h54.52.293,Tarea de género gramatical,2024.2.2,Win32,88.49557522,,,,,,,,,,,,,,,,,,,,,,,,623.6912,624.8806,l,1,0.5113,,[],[],[],[],[],[],[],0.5113,1,624.8807,625.3808,,,,,,97,FEM,AGR,150,capa,la,a,625.3809,625.381,0.040555556,-0.376666667,0,0,0,,0,18,18,96,1,,,,,
,,,,,,d0d619c7b6b95536d90ccb97,66a626ef09d4e21e1a8894ec,6734a0362ae2d31764b30a62,2024-11-13_13h54.52.293,Tarea de género gramatical,2024.2.2,Win32,88.49557522,,,,,,,,,,,,,,,,,,,,,,,,625.385,627.4255,a,1,1.3828,,[],[],[],[],[],[],[],1.3828,1,627.4257,627.9248,,,,,,317,MAS,CON,150,número,,l,627.9248,627.925,0.040555556,-0.376666667,0,0,0,,0,19,19,316,1,,,,,
,,,,,,d0d619c7b6b95536d90ccb97,66a626ef09d4e21e1a8894ec,6734a0362ae2d31764b30a62,2024-11-13_13h54.52.293,Tarea de género gramatical,2024.2.2,Win32,88.49557522,,,,,,,,,,,,,,,,,,,,,,,,627.9275,629.1255,l,1,0.5372,,[],[],[],[],[],[],[],0.5372,1,629.1257,629.6219,,,,,,397,FEM,AGR,150,cuerda,la,a,629.6261,629.6281,0.040555556,-0.376666667,0,0,0,,0,20,20,396,1,,,,,
,,,,,,d0d619c7b6b95536d90ccb97,66a626ef09d4e21e1a8894ec,6734a0362ae2d31764b30a62,2024-11-13_13h54.52.293,Tarea de género gramatical,2024.2.2,Win32,88.49557522,,,,,,,,,,,,,,,,,,,,,,,,629.6307,630.9335,l,1,0.6348,,[],[],[],[],[],[],[],0.6348,1,630.9338,631.4255,,,,,,375,FEM,DIS,150,cadena,el,a,631.4256,631.4258,0.040555556,-0.376666667,0,0,0,,0,21,21,374,1,,,,,
,,,,,,d0d619c7b6b95536d90ccb97,66a626ef09d4e21e1a8894ec,6734a0362ae2d31764b30a62,2024-11-13_13h54.52.293,Tarea de género gramatical,2024.2.2,Win32,88.49557522,,,,,,,,,,,,,,,,,,,,,,,,631.4279,632.5598,a,1,0.4687,,[],[],[],[],[],[],[],0.4687,1,632.5599,633.0612,,,,,,419,MAS,CON,150,cuento,,l,633.0613,633.0614,0.040555556,-0.376666667,0,0,0,,0,22,22,418,1,,,,,
,,,,,,d0d619c7b6b95536d90ccb97,66a626ef09d4e21e1a8894ec,6734a0362ae2d31764b30a62,2024-11-13_13h54.52.293,Tarea de género gramatical,2024.2.2,Win32,88.49557522,,,,,,,,,,,,,,,,,,,,,,,,633.0649,634.208,a,1,0.4863,,[],[],[],[],[],[],[],0.4863,1,634.2084,634.7024,,,,,,336,MAS,DIS,150,crimen,la,l,634.7025,634.7026,0.040555556,-0.376666667,0,0,0,,0,23,23,335,1,,,,,
,,,,,,d0d619c7b6b95536d90ccb97,66a626ef09d4e21e1a8894ec,6734a0362ae2d31764b30a62,2024-11-13_13h54.52.293,Tarea de género gramatical,2024.2.2,Win32,88.49557522,,,,,,,,,,,,,,,,,,,,,,,,634.7035,635.7367,l,1,0.3678,,[],[],[],[],[],[],[],0.3678,1,635.7368,636.2294,,,,,,441,FEM,DIS,150,medida,el,a,636.2339,636.235,0.040555556,-0.376666667,0,0,0,,0,24,24,440,1,,,,,
,,,,,,d0d619c7b6b95536d90ccb97,66a626ef09d4e21e1a8894ec,6734a0362ae2d31764b30a62,2024-11-13_13h54.52.293,Tarea de género gramatical,2024.2.2,Win32,88.49557522,,,,,,,,,,,,,,,,,,,,,,,,636.2361,637.2699,a,1,0.3704,,[],[],[],[],[],[],[],0.3704,1,637.2701,637.7692,,,,,,395,MAS,CON,150,correo,,l,637.7694,637.7694,0.040555556,-0.376666667,0,0,0,,0,25,25,394,1,,,,,
,,,,,,d0d619c7b6b95536d90ccb97,66a626ef09d4e21e1a8894ec,6734a0362ae2d31764b30a62,2024-11-13_13h54.52.293,Tarea de género gramatical,2024.2.2,Win32,88.49557522,,,,,,,,,,,,,,,,,,,,,,,,637.7709,638.8705,l,1,0.435,,[],[],[],[],[],[],[],0.435,1,638.8706,639.3696,,,,,,445,FEM,AGR,150,bondad,la,a,639.3697,639.3699,0.040555556,-0.376666667,0,0,0,,0,26,26,444,1,,,,,
,,,,,,d0d619c7b6b95536d90ccb97,66a626ef09d4e21e1a8894ec,6734a0362ae2d31764b30a62,2024-11-13_13h54.52.293,Tarea de género gramatical,2024.2.2,Win32,88.49557522,,,,,,,,,,,,,,,,,,,,,,,,639.3714,640.5486,a,1,0.5168,,[],[],[],[],[],[],[],0.5168,1,640.5489,641.0471,,,,,,256,MAS,AGR,150,techo,el,l,641.0472,641.0473,0.040555556,-0.376666667,0,0,0,,0,27,27,255,1,,,,,
,,,,,,d0d619c7b6b95536d90ccb97,66a626ef09d4e21e1a8894ec,6734a0362ae2d31764b30a62,2024-11-13_13h54.52.293,Tarea de género gramatical,2024.2.2,Win32,88.49557522,,,,,,,,,,,,,,,,,,,,,,,,641.0491,642.0193,l,0,0.3051,,[],[],[],[],[],[],[],0.3051,0,642.0219,642.5139,,,,,,383,MAS,CON,150,parque,,l,642.5139,642.5141,0.040555556,-0.376666667,0,0,0,,0,28,28,382,1,,,,,
,,,,,,d0d619c7b6b95536d90ccb97,66a626ef09d4e21e1a8894ec,6734a0362ae2d31764b30a62,2024-11-13_13h54.52.293,Tarea de género gramatical,2024.2.2,Win32,88.49557522,,,,,,,,,,,,,,,,,,,,,,,,642.516,643.6252,a,1,0.4454,,[],[],[],[],[],[],[],0.4454,1,643.6269,644.1259,,,,,,154,MAS,AGR,150,padre,el,l,644.1315,644.1328,0.040555556,-0.376666667,0,0,0,,0,29,29,153,1,,,,,
,,,,,,d0d619c7b6b95536d90ccb97,66a626ef09d4e21e1a8894ec,6734a0362ae2d31764b30a62,2024-11-13_13h54.52.293,Tarea de género gramatical,2024.2.2,Win32,88.49557522,,,,,,,,,,,,,,,,,,,,,,,,644.1341,645.3478,a,1,0.5451,,[],[],[],[],[],[],[],0.5451,1,645.3479,645.8472,,,,,,54,MAS,DIS,150,humo,la,l,645.8474,645.8476,0.040555556,-0.376666667,0,0,0,,0,30,30,53,1,,,,,
,,,,,,d0d619c7b6b95536d90ccb97,66a626ef09d4e21e1a8894ec,6734a0362ae2d31764b30a62,2024-11-13_13h54.52.293,Tarea de género gramatical,2024.2.2,Win32,88.49557522,,,,,,,,,,,,,,,,,,,,,,,,645.851,647.0586,l,1,0.5456,,[],[],[],[],[],[],[],0.5456,1,647.0588,647.5534,,,,,,207,FEM,DIS,150,playa,el,a,647.5535,647.5538,0.040555556,-0.376666667,0,0,0,,0,31,31,206,1,,,,,
,,,,,,d0d619c7b6b95536d90ccb97,66a626ef09d4e21e1a8894ec,6734a0362ae2d31764b30a62,2024-11-13_13h54.52.293,Tarea de género gramatical,2024.2.2,Win32,88.49557522,,,,,,,,,,,,,,,,,,,,,,,,647.5569,648.6251,a,1,0.4041,,[],[],[],[],[],[],[],0.4041,1,648.6252,649.1247,,,,,,246,MAS,DIS,150,humor,la,l,649.1247,649.125,0.040555556,-0.376666667,0,0,0,,0,32,32,245,1,,,,,
,,,,,,d0d619c7b6b95536d90ccb97,66a626ef09d4e21e1a8894ec,6734a0362ae2d31764b30a62,2024-11-13_13h54.52.293,Tarea de género gramatical,2024.2.2,Win32,88.49557522,,,,,,,,,,,,,,,,,,,,,,,,649.1282,650.2147,l,1,0.4123,,[],[],[],[],[],[],[],0.4123,1,650.2148,650.7135,,,,,,99,FEM,DIS,150,fase,el,a,650.7174,650.7199,0.040555556,-0.376666667,0,0,0,,0,33,33,98,1,,,,,
,,,,,,d0d619c7b6b95536d90ccb97,66a626ef09d4e21e1a8894ec,6734a0362ae2d31764b30a62,2024-11-13_13h54.52.293,Tarea de género gramatical,2024.2.2,Win32,88.49557522,,,,,,,,,,,,,,,,,,,,,,,,650.721,651.7141,a,1,0.3316,,[],[],[],[],[],[],[],0.3316,1,651.7142,652.2121,,,,,,449,MAS,CON,150,payaso,,l,652.2122,652.2124,0.040555556,-0.376666667,0,0,0,,0,34,34,448,1,,,,,
,,,,,,d0d619c7b6b95536d90ccb97,66a626ef09d4e21e1a8894ec,6734a0362ae2d31764b30a62,2024-11-13_13h54.52.293,Tarea de género gramatical,2024.2.2,Win32,88.49557522,,,,,,,,,,,,,,,,,,,,,,,,652.214,653.2259,a,1,0.345,,[],[],[],[],[],[],[],0.345,1,653.226,653.7254,,,,,,53,MAS,CON,150,vaso,,l,653.7256,653.7257,0.040555556,-0.376666667,0,0,0,,0,35,35,52,1,,,,,
,,,,,,d0d619c7b6b95536d90ccb97,66a626ef09d4e21e1a8894ec,6734a0362ae2d31764b30a62,2024-11-13_13h54.52.293,Tarea de género gramatical,2024.2.2,Win32,88.49557522,,,,,,,,,,,,,,,,,,,,,,,,653.7277,654.8304,a,1,0.4383,,[],[],[],[],[],[],[],0.4383,1,654.831,655.3341,,,,,,161,MAS,CON,150,chico,,l,655.3342,655.3344,0.040555556,-0.376666667,0,0,0,,0,36,36,160,1,,,,,
,,,,,,d0d619c7b6b95536d90ccb97,66a626ef09d4e21e1a8894ec,6734a0362ae2d31764b30a62,2024-11-13_13h54.52.293,Tarea de género gramatical,2024.2.2,Win32,88.49557522,,,,,,,,,,,,,,,,,,,,,,,,655.3368,656.3123,a,1,0.3065,,[],[],[],[],[],[],[],0.3065,1,656.3127,656.8123,,,,,,131,MAS,CON,150,kilo,,l,656.8124,656.8126,0.040555556,-0.376666667,0,0,0,,0,37,37,130,1,,,,,
,,,,,,d0d619c7b6b95536d90ccb97,66a626ef09d4e21e1a8894ec,6734a0362ae2d31764b30a62,2024-11-13_13h54.52.293,Tarea de género gramatical,2024.2.2,Win32,88.49557522,,,,,,,,,,,,,,,,,,,,,,,,656.8155,658.1682,a,0,0.688,,[],[],[],[],[],[],[],0.688,0,658.1696,658.6697,,,,,,297,FEM,DIS,150,manta,el,a,658.6742,658.6758,0.040555556,-0.376666667,0,0,0,,0,38,38,296,1,,,,,
,,,,,,d0d619c7b6b95536d90ccb97,66a626ef09d4e21e1a8894ec,6734a0362ae2d31764b30a62,2024-11-13_13h54.52.293,Tarea de género gramatical,2024.2.2,Win32,88.49557522,,,,,,,,,,,,,,,,,,,,,,,,658.677,659.8771,a,1,0.5296,,[],[],[],[],[],[],[],0.5296,1,659.88,660.3728,,,,,,443,MAS,CON,150,templo,,l,660.373,660.3732,0.040555556,-0.376666667,0,0,0,,0,39,39,442,1,,,,,
,,,,,,d0d619c7b6b95536d90ccb97,66a626ef09d4e21e1a8894ec,6734a0362ae2d31764b30a62,2024-11-13_13h54.52.293,Tarea de género gramatical,2024.2.2,Win32,88.49557522,,,,,,,,,,,,,,,,,,,,,,,,660.3772,661.9141,a,1,0.867,,[],[],[],[],[],[],[],0.867,1,661.9143,662.4122,,,,,,389,MAS,CON,150,tamaño,,l,662.4123,662.4125,0.040555556,-0.376666667,0,0,0,,0,40,40,388,1,,,,,
,,,,,,d0d619c7b6b95536d90ccb97,66a626ef09d4e21e1a8894ec,6734a0362ae2d31764b30a62,2024-11-13_13h54.52.293,Tarea de género gramatical,2024.2.2,Win32,88.49557522,,,,,,,,,,,,,,,,,,,,,,,,662.4141,663.6699,l,1,0.594,,[],[],[],[],[],[],[],0.594,1,663.6701,664.1805,,,,,,278,FEM,CON,150,presa,,a,664.1805,664.1807,0.040555556,-0.376666667,0,0,0,,0,41,41,277,1,,,,,
,,,,,,d0d619c7b6b95536d90ccb97,66a626ef09d4e21e1a8894ec,6734a0362ae2d31764b30a62,2024-11-13_13h54.52.293,Tarea de género gramatical,2024.2.2,Win32,88.49557522,,,,,,,,,,,,,,,,,,,,,,,,664.1822,665.4017,a,1,0.555,,[],[],[],[],[],[],[],0.555,1,665.4019,665.9019,,,,,,70,MAS,AGR,150,palo,el,l,665.9036,665.905,0.040555556,-0.376666667,0,0,0,,0,42,42,69,1,,,,,
,,,,,,d0d619c7b6b95536d90ccb97,66a626ef09d4e21e1a8894ec,6734a0362ae2d31764b30a62,2024-11-13_13h54.52.293,Tarea de género gramatical,2024.2.2,Win32,88.49557522,,,,,,,,,,,,,,,,,,,,,,,,665.9083,667.6593,l,1,1.083,,[],[],[],[],[],[],[],1.083,1,667.6595,668.1585,,,,,,423,FEM,DIS,150,poesía,el,a,668.1585,668.1587,0.040555556,-0.376666667,0,0,0,,0,43,43,422,1,,,,,
,,,,,,d0d619c7b6b95536d90ccb97,66a626ef09d4e21e1a8894ec,6734a0362ae2d31764b30a62,2024-11-13_13h54.52.293,Tarea de género gramatical,2024.2.2,Win32,88.49557522,,,,,,,,,,,,,,,,,,,,,,,,668.1602,670.0599,a,0,1.2389,,[],[],[],[],[],[],[],1.2389,0,670.0613,670.5446,,,,,,32,FEM,CON,150,caja,,a,670.5447,670.5449,0.040555556,-0.376666667,0,0,0,,0,44,44,31,1,,,,,
,,,,,,d0d619c7b6b95536d90ccb97,66a626ef09d4e21e1a8894ec,6734a0362ae2d31764b30a62,2024-11-13_13h54.52.293,Tarea de género gramatical,2024.2.2,Win32,88.49557522,,,,,,,,,,,,,,,,,,,,,,,,670.5479,671.6142,a,1,0.4004,,[],[],[],[],[],[],[],0.4004,1,671.6154,672.1094,,,,,,448,MAS,AGR,150,aceite,el,l,672.1095,672.1098,0.040555556,-0.376666667,0,0,0,,0,45,45,447,1,,,,,
,,,,,,d0d619c7b6b95536d90ccb97,66a626ef09d4e21e1a8894ec,6734a0362ae2d31764b30a62,2024-11-13_13h54.52.293,Tarea de género gramatical,2024.2.2,Win32,88.49557522,,,,,,,,,,,,,,,,,,,,,,,,672.1133,673.2145,a,1,0.4338,,[],[],[],[],[],[],[],0.4338,1,673.2146,673.7078,,,,,,366,MAS,DIS,150,riesgo,la,l,673.7079,673.7082,0.040555556,-0.376666667,0,0,0,,0,46,46,365,1,,,,,
,,,,,,d0d619c7b6b95536d90ccb97,66a626ef09d4e21e1a8894ec,6734a0362ae2d31764b30a62,2024-11-13_13h54.52.293,Tarea de género gramatical,2024.2.2,Win32,88.49557522,,,,,,,,,,,,,,,,,,,,,,,,673.7113,674.7864,a,1,0.4103,,[],[],[],[],[],[],[],0.4103,1,674.7867,675.2808,,,,,,192,MAS,DIS,150,grupo,la,l,675.2827,675.285,0.040555556,-0.376666667,0,0,0,,0,47,47,191,1,,,,,
,,,,,,d0d619c7b6b95536d90ccb97,66a626ef09d4e21e1a8894ec,6734a0362ae2d31764b30a62,2024-11-13_13h54.52.293,Tarea de género gramatical,2024.2.2,Win32,88.49557522,,,,,,,,,,,,,,,,,,,,,,,,675.2868,676.1925,l,1,0.243,,[],[],[],[],[],[],[],0.243,1,676.1927,676.6918,,,,,,92,FEM,CON,150,masa,,a,676.692,676.6921,0.040555556,-0.376666667,0,0,0,,0,48,48,91,1,,,,,
,,,,,,d0d619c7b6b95536d90ccb97,66a626ef09d4e21e1a8894ec,6734a0362ae2d31764b30a62,2024-11-13_13h54.52.293,Tarea de género gramatical,2024.2.2,Win32,88.49557522,,,,,,,,,,,,,,,,,,,,,,,,676.694,677.7075,a,1,0.3542,,[],[],[],[],[],[],[],0.3542,1,677.708,678.2062,,,,,,156,MAS,DIS,150,amigo,la,l,678.2066,678.2069,0.040555556,-0.376666667,0,0,0,,0,49,49,155,1,,,,,
,,,,,,d0d619c7b6b95536d90ccb97,66a626ef09d4e21e1a8894ec,6734a0362ae2d31764b30a62,2024-11-13_13h54.52.293,Tarea de género gramatical,2024.2.2,Win32,88.49557522,,,,,,,,,,,,,,,,,,,,,,,,678.2101,679.322,a,0,0.4444,,[],[],[],[],[],[],[],0.4444,0,679.3238,679.8249,,,,,,81,FEM,DIS,150,cima,el,a,679.825,679.8251,0.040555556,-0.376666667,0,0,0,,0,50,50,80,1,,,,,
,,,,,,d0d619c7b6b95536d90ccb97,66a626ef09d4e21e1a8894ec,6734a0362ae2d31764b30a62,2024-11-13_13h54.52.293,Tarea de género gramatical,2024.2.2,Win32,88.49557522,,,,,,,,,,,,,,,,,,,,,,,,679.8264,681.3258,a,1,0.8345,,[],[],[],[],[],[],[],0.8345,1,681.3272,681.8233,,,,,,210,MAS,DIS,150,baile,la,l,681.8253,681.8265,0.040555556,-0.376666667,0,0,0,,0,51,51,209,1,,,,,
,,,,,,d0d619c7b6b95536d90ccb97,66a626ef09d4e21e1a8894ec,6734a0362ae2d31764b30a62,2024-11-13_13h54.52.293,Tarea de género gramatical,2024.2.2,Win32,88.49557522,,,,,,,,,,,,,,,,,,,,,,,,681.8285,682.854,a,0,0.3554,,[],[],[],[],[],[],[],0.3554,0,682.8565,683.3506,,,,,,193,FEM,AGR,150,bolsa,la,a,683.3508,683.3511,0.040555556,-0.376666667,0,0,0,,0,52,52,192,1,,,,,
,,,,,,d0d619c7b6b95536d90ccb97,66a626ef09d4e21e1a8894ec,6734a0362ae2d31764b30a62,2024-11-13_13h54.52.293,Tarea de género gramatical,2024.2.2,Win32,88.49557522,,,,,,,,,,,,,,,,,,,,,,,,683.3544,684.3699,l,1,0.3563,,[],[],[],[],[],[],[],0.3563,1,684.3707,684.8654,,,,,,272,FEM,CON,150,oreja,,a,684.8656,684.8658,0.040555556,-0.376666667,0,0,0,,0,53,53,271,1,,,,,
,,,,,,d0d619c7b6b95536d90ccb97,66a626ef09d4e21e1a8894ec,6734a0362ae2d31764b30a62,2024-11-13_13h54.52.293,Tarea de género gramatical,2024.2.2,Win32,88.49557522,,,,,,,,,,,,,,,,,,,,,,,,684.8689,686.8813,l,1,1.3342,,[],[],[],[],[],[],[],1.3342,1,686.8815,687.3762,,,,,,21,FEM,DIS,150,boca,el,a,687.3765,687.3768,0.040555556,-0.376666667,0,0,0,,0,54,54,20,1,,,,,
,,,,,,d0d619c7b6b95536d90ccb97,66a626ef09d4e21e1a8894ec,6734a0362ae2d31764b30a62,2024-11-13_13h54.52.293,Tarea de género gramatical,2024.2.2,Win32,88.49557522,,,,,,,,,,,,,,,,,,,,,,,,687.3801,688.5475,a,1,0.5024,,[],[],[],[],[],[],[],0.5024,1,688.5478,689.0475,,,,,,160,MAS,AGR,150,señor,el,l,689.0477,689.0479,0.040555556,-0.376666667,0,0,0,,0,55,55,159,1,,,,,
,,,,,,d0d619c7b6b95536d90ccb97,66a626ef09d4e21e1a8894ec,6734a0362ae2d31764b30a62,2024-11-13_13h54.52.293,Tarea de género gramatical,2024.2.2,Win32,88.49557522,,,,,,,,,,,,,,,,,,,,,,,,689.0496,690.3368,a,1,0.6119,,[],[],[],[],[],[],[],0.6119,1,690.3369,690.8322,,,,,,450,MAS,DIS,150,conejo,la,l,690.8358,690.8369,0.040555556,-0.376666667,0,0,0,,0,56,56,449,1,,,,,
,,,,,,d0d619c7b6b95536d90ccb97,66a626ef09d4e21e1a8894ec,6734a0362ae2d31764b30a62,2024-11-13_13h54.52.293,Tarea de género gramatical,2024.2.2,Win32,88.49557522,,,,,,,,,,,,,,,,,,,,,,,,690.8387,692.0142,l,1,0.505,,[],[],[],[],[],[],[],0.505,1,692.0144,692.5139,,,,,,57,FEM,DIS,150,moda,el,a,692.514,692.5141,0.040555556,-0.376666667,0,0,0,,0,57,57,56,1,,,,,
,,,,,,d0d619c7b6b95536d90ccb97,66a626ef09d4e21e1a8894ec,6734a0362ae2d31764b30a62,2024-11-13_13h54.52.293,Tarea de género gramatical,2024.2.2,Win32,88.49557522,,,,,,,,,,,,,,,,,,,,,,,,692.515,693.6371,l,1,0.4604,,[],[],[],[],[],[],[],0.4604,1,693.6372,694.133,,,,,,177,FEM,DIS,150,broma,el,a,694.1333,694.1336,0.040555556,-0.376666667,0,0,0,,0,58,58,176,1,,,,,
,,,,,,d0d619c7b6b95536d90ccb97,66a626ef09d4e21e1a8894ec,6734a0362ae2d31764b30a62,2024-11-13_13h54.52.293,Tarea de género gramatical,2024.2.2,Win32,88.49557522,,,,,,,,,,,,,,,,,,,,,,,,694.1368,695.1645,a,1,0.3679,,[],[],[],[],[],[],[],0.3679,1,695.1651,695.6692,,,,,,10,MAS,AGR,150,niño,el,l,695.6694,695.6695,0.040555556,-0.376666667,0,0,0,,0,59,59,9,1,,,,,
,,,,,,d0d619c7b6b95536d90ccb97,66a626ef09d4e21e1a8894ec,6734a0362ae2d31764b30a62,2024-11-13_13h54.52.293,Tarea de género gramatical,2024.2.2,Win32,88.49557522,,,,,,,,,,,,,,,,,,,,,,,,695.671,696.7148,l,1,0.3767,,[],[],[],[],[],[],[],0.3767,1,696.715,697.2233,,,,,,129,FEM,DIS,150,rana,el,a,697.2256,697.227,0.040555556,-0.376666667,0,0,0,,0,60,60,128,1,,,,,
,,,,,,d0d619c7b6b95536d90ccb97,66a626ef09d4e21e1a8894ec,6734a0362ae2d31764b30a62,2024-11-13_13h54.52.293,Tarea de género gramatical,2024.2.2,Win32,88.49557522,,,,,,,,,,,,,,,,,,,,,,,,697.2294,698.4255,a,1,0.5275,,[],[],[],[],[],[],[],0.5275,1,698.4256,698.924,,,,,,228,MAS,DIS,150,nivel,la,l,698.9241,698.9243,0.040555556,-0.376666667,0,0,0,,0,61,61,227,1,,,,,
,,,,,,d0d619c7b6b95536d90ccb97,66a626ef09d4e21e1a8894ec,6734a0362ae2d31764b30a62,2024-11-13_13h54.52.293,Tarea de género gramatical,2024.2.2,Win32,88.49557522,,,,,,,,,,,,,,,,,,,,,,,,698.9259,700.1066,a,1,0.5146,,[],[],[],[],[],[],[],0.5146,1,700.1071,700.6037,,,,,,35,MAS,CON,150,taxi,,l,700.6038,700.604,0.040555556,-0.376666667,0,0,0,,0,62,62,34,1,,,,,
,,,,,,d0d619c7b6b95536d90ccb97,66a626ef09d4e21e1a8894ec,6734a0362ae2d31764b30a62,2024-11-13_13h54.52.293,Tarea de género gramatical,2024.2.2,Win32,88.49557522,,,,,,,,,,,,,,,,,,,,,,,,700.606,701.8145,l,1,0.5429,,[],[],[],[],[],[],[],0.5429,1,701.8147,702.3139,,,,,,399,FEM,DIS,150,charla,el,a,702.3139,702.3141,0.040555556,-0.376666667,0,0,0,,0,63,63,398,1,,,,,
,,,,,,d0d619c7b6b95536d90ccb97,66a626ef09d4e21e1a8894ec,6734a0362ae2d31764b30a62,2024-11-13_13h54.52.293,Tarea de género gramatical,2024.2.2,Win32,88.49557522,,,,,,,,,,,,,,,,,,,,,,,,702.316,703.4035,l,1,0.4279,,[],[],[],[],[],[],[],0.4279,1,703.4037,703.9025,,,,,,271,FEM,AGR,150,viuda,la,a,703.9025,703.9027,0.040555556,-0.376666667,0,0,0,,0,64,64,270,1,,,,,
,,,,,,d0d619c7b6b95536d90ccb97,66a626ef09d4e21e1a8894ec,6734a0362ae2d31764b30a62,2024-11-13_13h54.52.293,Tarea de género gramatical,2024.2.2,Win32,88.49557522,,,,,,,,,,,,,,,,,,,,,,,,703.9039,705.2474,l,1,0.6776,,[],[],[],[],[],[],[],0.6776,1,705.2474,705.7472,,,,,,357,FEM,DIS,150,lengua,el,a,705.7497,705.7523,0.040555556,-0.376666667,0,0,0,,0,65,65,356,1,,,,,
,,,,,,d0d619c7b6b95536d90ccb97,66a626ef09d4e21e1a8894ec,6734a0362ae2d31764b30a62,2024-11-13_13h54.52.293,Tarea de género gramatical,2024.2.2,Win32,88.49557522,,,,,,,,,,,,,,,,,,,,,,,,705.7538,706.9021,a,1,0.4817,,[],[],[],[],[],[],[],0.4817,1,706.9023,707.404,,,,,,282,MAS,DIS,150,bolso,la,l,707.404,707.4042,0.040555556,-0.376666667,0,0,0,,0,66,66,281,1,,,,,
,,,,,,d0d619c7b6b95536d90ccb97,66a626ef09d4e21e1a8894ec,6734a0362ae2d31764b30a62,2024-11-13_13h54.52.293,Tarea de género gramatical,2024.2.2,Win32,88.49557522,,,,,,,,,,,,,,,,,,,,,,,,707.407,708.9818,a,1,0.9013,,[],[],[],[],[],[],[],0.9013,1,708.982,709.4806,,,,,,384,MAS,DIS,150,pedazo,la,l,709.4807,709.4809,0.040555556,-0.376666667,0,0,0,,0,67,67,383,1,,,,,
,,,,,,d0d619c7b6b95536d90ccb97,66a626ef09d4e21e1a8894ec,6734a0362ae2d31764b30a62,2024-11-13_13h54.52.293,Tarea de género gramatical,2024.2.2,Win32,88.49557522,,,,,,,,,,,,,,,,,,,,,,,,709.4823,710.415,l,1,0.2683,,[],[],[],[],[],[],[],0.2683,1,710.4151,710.9141,,,,,,176,FEM,CON,150,línea,,a,710.9142,710.9142,0.040555556,-0.376666667,0,0,0,,0,68,68,175,1,,,,,
,,,,,,d0d619c7b6b95536d90ccb97,66a626ef09d4e21e1a8894ec,6734a0362ae2d31764b30a62,2024-11-13_13h54.52.293,Tarea de género gramatical,2024.2.2,Win32,88.49557522,,,,,,,,,,,,,,,,,,,,,,,,710.9157,711.9816,a,1,0.3992,,[],[],[],[],[],[],[],0.3992,1,711.9817,712.4774,,,,,,17,MAS,CON,150,modo,,l,712.4807,712.4818,0.040555556,-0.376666667,0,0,0,,0,69,69,16,1,,,,,
,,,,,,d0d619c7b6b95536d90ccb97,66a626ef09d4e21e1a8894ec,6734a0362ae2d31764b30a62,2024-11-13_13h54.52.293,Tarea de género gramatical,2024.2.2,Win32,88.49557522,,,,,,,,,,,,,,,,,,,,,,,,712.484,713.4816,l,1,0.3267,,[],[],[],[],[],[],[],0.3267,1,713.4816,713.9805,,,,,,411,FEM,DIS,150,actriz,el,a,713.9805,713.9807,0.040555556,-0.376666667,0,0,0,,0,70,70,410,1,,,,,
,,,,,,d0d619c7b6b95536d90ccb97,66a626ef09d4e21e1a8894ec,6734a0362ae2d31764b30a62,2024-11-13_13h54.52.293,Tarea de género gramatical,2024.2.2,Win32,88.49557522,,,,,,,,,,,,,,,,,,,,,,,,713.982,715.2812,a,1,0.6396,,[],[],[],[],[],[],[],0.6396,1,715.2813,715.7769,,,,,,138,MAS,DIS,150,luto,la,l,715.7771,715.7774,0.040555556,-0.376666667,0,0,0,,0,71,71,137,1,,,,,
,,,,,,d0d619c7b6b95536d90ccb97,66a626ef09d4e21e1a8894ec,6734a0362ae2d31764b30a62,2024-11-13_13h54.52.293,Tarea de género gramatical,2024.2.2,Win32,88.49557522,,,,,,,,,,,,,,,,,,,,,,,,715.7805,716.8792,a,1,0.4322,,[],[],[],[],[],[],[],0.4322,1,716.8794,717.3807,,,,,,330,MAS,DIS,150,estado,la,l,717.3807,717.3809,0.040555556,-0.376666667,0,0,0,,0,72,72,329,1,,,,,
,,,,,,d0d619c7b6b95536d90ccb97,66a626ef09d4e21e1a8894ec,6734a0362ae2d31764b30a62,2024-11-13_13h54.52.293,Tarea de género gramatical,2024.2.2,Win32,88.49557522,,,,,,,,,,,,,,,,,,,,,,,,717.3828,718.3228,l,1,0.2748,,[],[],[],[],[],[],[],0.2748,1,718.3232,718.8189,,,,,,285,FEM,DIS,150,mafia,el,a,718.819,718.8192,0.040555556,-0.376666667,0,0,0,,0,73,73,284,1,,,,,
,,,,,,d0d619c7b6b95536d90ccb97,66a626ef09d4e21e1a8894ec,6734a0362ae2d31764b30a62,2024-11-13_13h54.52.293,Tarea de género gramatical,2024.2.2,Win32,88.49557522,,,,,,,,,,,,,,,,,,,,,,,,718.8222,719.9478,a,1,0.4563,,[],[],[],[],[],[],[],0.4563,1,719.9479,720.4439,,,,,,329,MAS,CON,150,futuro,,l,720.4478,720.4491,0.040555556,-0.376666667,0,0,0,,0,74,74,328,1,,,,,
,,,,,,d0d619c7b6b95536d90ccb97,66a626ef09d4e21e1a8894ec,6734a0362ae2d31764b30a62,2024-11-13_13h54.52.293,Tarea de género gramatical,2024.2.2,Win32,88.49557522,,,,,,,,,,,,,,,,,,,,,,,,720.4516,721.4875,a,1,0.3733,,[],[],[],[],[],[],[],0.3733,1,721.4878,721.9887,,,,,,36,MAS,DIS,150,dedo,la,l,721.989,721.9893,0.040555556,-0.376666667,0,0,0,,0,75,75,35,1,,,,,
,,,,,,d0d619c7b6b95536d90ccb97,66a626ef09d4e21e1a8894ec,6734a0362ae2d31764b30a62,2024-11-13_13h54.52.293,Tarea de género gramatical,2024.2.2,Win32,88.49557522,,,,,,,,,,,,,,,,,,,,,,,,721.9925,723.0507,l,1,0.391,,[],[],[],[],[],[],[],0.391,1,723.051,723.5453,,,,,,50,FEM,CON,150,dama,,a,723.5455,723.5456,0.040555556,-0.376666667,0,0,0,,0,76,76,49,1,,,,,
,,,,,,d0d619c7b6b95536d90ccb97,66a626ef09d4e21e1a8894ec,6734a0362ae2d31764b30a62,2024-11-13_13h54.52.293,Tarea de género gramatical,2024.2.2,Win32,88.49557522,,,,,,,,,,,,,,,,,,,,,,,,723.5487,724.9928,a,1,0.7682,,[],[],[],[],[],[],[],0.7682,1,724.9929,725.4924,,,,,,288,MAS,DIS,150,grado,la,l,725.4926,725.4929,0.040555556,-0.376666667,0,0,0,,0,77,77,287,1,,,,,
,,,,,,d0d619c7b6b95536d90ccb97,66a626ef09d4e21e1a8894ec,6734a0362ae2d31764b30a62,2024-11-13_13h54.52.293,Tarea de género gramatical,2024.2.2,Win32,88.49557522,,,,,,,,,,,,,,,,,,,,,,,,725.4959,726.5707,l,1,0.4126,,[],[],[],[],[],[],[],0.4126,1,726.5708,727.0697,,,,,,381,FEM,DIS,150,bebida,el,a,727.072,727.074,0.040555556,-0.376666667,0,0,0,,0,78,78,380,1,,,,,
,,,,,,d0d619c7b6b95536d90ccb97,66a626ef09d4e21e1a8894ec,6734a0362ae2d31764b30a62,2024-11-13_13h54.52.293,Tarea de género gramatical,2024.2.2,Win32,88.49557522,,,,,,,,,,,,,,,,,,,,,,,,727.0755,728.1147,l,1,0.3784,,[],[],[],[],[],[],[],0.3784,1,728.1148,728.6168,,,,,,61,FEM,AGR,150,ruta,la,a,728.6169,728.6172,0.040555556,-0.376666667,0,0,0,,0,79,79,60,1,,,,,
,,,,,,d0d619c7b6b95536d90ccb97,66a626ef09d4e21e1a8894ec,6734a0362ae2d31764b30a62,2024-11-13_13h54.52.293,Tarea de género gramatical,2024.2.2,Win32,88.49557522,,,,,,,,,,,,,,,,,,,,,,,,728.6202,730.9376,l,0,1.6463,,[],[],[],[],[],[],[],1.6463,0,730.9389,731.4364,,,,,,125,MAS,CON,150,bate,,l,731.4364,731.4367,0.040555556,-0.376666667,0,0,0,,0,80,80,124,1,,,,,
,,,,,,d0d619c7b6b95536d90ccb97,66a626ef09d4e21e1a8894ec,6734a0362ae2d31764b30a62,2024-11-13_13h54.52.293,Tarea de género gramatical,2024.2.2,Win32,88.49557522,,,,,,,,,,,,,,,,,,,,,,,,731.4387,732.757,a,0,0.6523,,[],[],[],[],[],[],[],0.6523,0,732.7575,733.2532,,,,,,254,FEM,CON,150,caída,,a,733.2533,733.2536,0.040555556,-0.376666667,0,0,0,,0,81,81,253,1,,,,,
,,,,,,d0d619c7b6b95536d90ccb97,66a626ef09d4e21e1a8894ec,6734a0362ae2d31764b30a62,2024-11-13_13h54.52.293,Tarea de género gramatical,2024.2.2,Win32,88.49557522,,,,,,,,,,,,,,,,,,,,,,,,733.2577,734.4258,a,1,0.4996,,[],[],[],[],[],[],[],0.4996,1,734.4274,734.9192,,,,,,418,MAS,AGR,150,pájaro,el,l,734.9194,734.9197,0.040555556,-0.376666667,0,0,0,,0,82,82,417,1,,,,,
,,,,,,d0d619c7b6b95536d90ccb97,66a626ef09d4e21e1a8894ec,6734a0362ae2d31764b30a62,2024-11-13_13h54.52.293,Tarea de género gramatical,2024.2.2,Win32,88.49557522,,,,,,,,,,,,,,,,,,,,,,,,734.9228,736.4107,l,1,0.8222,,[],[],[],[],[],[],[],0.8222,1,736.4109,736.9085,,,,,,116,FEM,CON,150,nube,,a,736.9121,736.9132,0.040555556,-0.376666667,0,0,0,,0,83,83,115,1,,,,,
,,,,,,d0d619c7b6b95536d90ccb97,66a626ef09d4e21e1a8894ec,6734a0362ae2d31764b30a62,2024-11-13_13h54.52.293,Tarea de género gramatical,2024.2.2,Win32,88.49557522,,,,,,,,,,,,,,,,,,,,,,,,736.9143,738.3924,l,1,0.8048,,[],[],[],[],[],[],[],0.8048,1,738.3926,738.8917,,,,,,217,FEM,AGR,150,tarea,la,a,738.8918,738.8919,0.040555556,-0.376666667,0,0,0,,0,84,84,216,1,,,,,
,,,,,,d0d619c7b6b95536d90ccb97,66a626ef09d4e21e1a8894ec,6734a0362ae2d31764b30a62,2024-11-13_13h54.52.293,Tarea de género gramatical,2024.2.2,Win32,88.49557522,,,,,,,,,,,,,,,,,,,,,,,,738.8932,740.1369,a,1,0.5843,,[],[],[],[],[],[],[],0.5843,1,740.1371,740.636,,,,,,209,MAS,CON,150,banco,,l,740.6361,740.6363,0.040555556,-0.376666667,0,0,0,,0,85,85,208,1,,,,,
,,,,,,d0d619c7b6b95536d90ccb97,66a626ef09d4e21e1a8894ec,6734a0362ae2d31764b30a62,2024-11-13_13h54.52.293,Tarea de género gramatical,2024.2.2,Win32,88.49557522,,,,,,,,,,,,,,,,,,,,,,,,740.6381,741.8475,a,1,0.545,,[],[],[],[],[],[],[],0.545,1,741.8476,742.3479,,,,,,18,MAS,DIS,150,tren,la,l,742.348,742.348,0.040555556,-0.376666667,0,0,0,,0,86,86,17,1,,,,,
,,,,,,d0d619c7b6b95536d90ccb97,66a626ef09d4e21e1a8894ec,6734a0362ae2d31764b30a62,2024-11-13_13h54.52.293,Tarea de género gramatical,2024.2.2,Win32,88.49557522,,,,,,,,,,,,,,,,,,,,,,,,742.3488,743.5935,l,1,0.5878,,[],[],[],[],[],[],[],0.5878,1,743.5936,744.0919,,,,,,51,FEM,DIS,150,bala,el,a,744.0938,744.0965,0.040555556,-0.376666667,0,0,0,,0,87,87,50,1,,,,,
,,,,,,d0d619c7b6b95536d90ccb97,66a626ef09d4e21e1a8894ec,6734a0362ae2d31764b30a62,2024-11-13_13h54.52.293,Tarea de género gramatical,2024.2.2,Win32,88.49557522,,,,,,,,,,,,,,,,,,,,,,,,744.1002,745.591,a,0,0.832,,[],[],[],[],[],[],[],0.832,0,745.592,746.0888,,,,,,121,FEM,AGR,150,pila,la,a,746.0889,746.0893,0.040555556,-0.376666667,0,0,0,,0,88,88,120,1,,,,,
,,,,,,d0d619c7b6b95536d90ccb97,66a626ef09d4e21e1a8894ec,6734a0362ae2d31764b30a62,2024-11-13_13h54.52.293,Tarea de género gramatical,2024.2.2,Win32,88.49557522,,,,,,,,,,,,,,,,,,,,,,,,746.0924,747.2369,a,1,0.4811,,[],[],[],[],[],[],[],0.4811,1,747.2377,747.7326,,,,,,150,MAS,DIS,150,mozo,la,l,747.7328,747.7331,0.040555556,-0.376666667,0,0,0,,0,89,89,149,1,,,,,
,,,,,,d0d619c7b6b95536d90ccb97,66a626ef09d4e21e1a8894ec,6734a0362ae2d31764b30a62,2024-11-13_13h54.52.293,Tarea de género gramatical,2024.2.2,Win32,88.49557522,,,,,,,,,,,,,,,,,,,,,,,,747.7364,748.8451,a,1,0.4428,,[],[],[],[],[],[],[],0.4428,1,748.8452,749.3426,,,,,,352,MAS,AGR,150,estilo,el,l,749.3428,749.343,0.040555556,-0.376666667,0,0,0,,0,90,90,351,1,,,,,
,,,,,,d0d619c7b6b95536d90ccb97,66a626ef09d4e21e1a8894ec,6734a0362ae2d31764b30a62,2024-11-13_13h54.52.293,Tarea de género gramatical,2024.2.2,Win32,88.49557522,,,,,,,,,,,,,,,,,,,,,,,,749.3464,750.5125,l,1,0.4978,,[],[],[],[],[],[],[],0.4978,1,750.5127,751.0143,,,,,,387,FEM,DIS,150,página,el,a,751.0143,751.0144,0.040555556,-0.376666667,0,0,0,,0,91,91,386,1,,,,,
,,,,,,d0d619c7b6b95536d90ccb97,66a626ef09d4e21e1a8894ec,6734a0362ae2d31764b30a62,2024-11-13_13h54.52.293,Tarea de género gramatical,2024.2.2,Win32,88.49557522,,,,,,,,,,,,,,,,,,,,,,,,751.0166,752.5094,l,1,0.8208,,[],[],[],[],[],[],[],0.8208,1,752.5097,753.0086,,,,,,145,FEM,AGR,150,bota,la,a,753.0127,753.0138,0.040555556,-0.376666667,0,0,0,,0,92,92,144,1,,,,,
,,,,,,d0d619c7b6b95536d90ccb97,66a626ef09d4e21e1a8894ec,6734a0362ae2d31764b30a62,2024-11-13_13h54.52.293,Tarea de género gramatical,2024.2.2,Win32,88.49557522,,,,,,,,,,,,,,,,,,,,,,,,753.0147,754.0371,l,1,0.3568,,[],[],[],[],[],[],[],0.3568,1,754.0372,754.5364,,,,,,398,FEM,CON,150,hierba,,a,754.5365,754.5367,0.040555556,-0.376666667,0,0,0,,0,93,93,397,1,,,,,
,,,,,,d0d619c7b6b95536d90ccb97,66a626ef09d4e21e1a8894ec,6734a0362ae2d31764b30a62,2024-11-13_13h54.52.293,Tarea de género gramatical,2024.2.2,Win32,88.49557522,,,,,,,,,,,,,,,,,,,,,,,,754.5388,755.4366,a,1,0.2392,,[],[],[],[],[],[],[],0.2392,1,755.4367,755.9366,,,,,,22,MAS,AGR,150,pelo,el,l,755.9368,755.9369,0.040555556,-0.376666667,0,0,0,,0,94,94,21,1,,,,,
,,,,,,d0d619c7b6b95536d90ccb97,66a626ef09d4e21e1a8894ec,6734a0362ae2d31764b30a62,2024-11-13_13h54.52.293,Tarea de género gramatical,2024.2.2,Win32,88.49557522,,,,,,,,,,,,,,,,,,,,,,,,755.9389,756.9817,l,1,0.3833,,[],[],[],[],[],[],[],0.3833,1,756.9819,757.483,,,,,,139,FEM,AGR,150,pipa,la,a,757.4831,757.4834,0.040555556,-0.376666667,0,0,0,,0,95,95,138,1,,,,,
,,,,,,d0d619c7b6b95536d90ccb97,66a626ef09d4e21e1a8894ec,6734a0362ae2d31764b30a62,2024-11-13_13h54.52.293,Tarea de género gramatical,2024.2.2,Win32,88.49557522,,,,,,,,,,,,,,,,,,,,,,,,757.4869,758.5588,l,1,0.4003,,[],[],[],[],[],[],[],0.4003,1,758.559,759.0549,,,,,,86,FEM,CON,150,cruz,,a,759.0583,759.0593,0.040555556,-0.376666667,0,0,0,,0,96,96,85,1,,,,,
,,,,,,d0d619c7b6b95536d90ccb97,66a626ef09d4e21e1a8894ec,6734a0362ae2d31764b30a62,2024-11-13_13h54.52.293,Tarea de género gramatical,2024.2.2,Win32,88.49557522,,,,,,,,,,,,,,,,,,,,,,,,759.0607,760.136,l,1,0.3993,,[],[],[],[],[],[],[],0.3993,1,760.1364,760.6364,,,,,,195,FEM,DIS,150,pared,el,a,760.6366,760.6367,0.040555556,-0.376666667,0,0,0,,0,97,97,194,1,,,,,
,,,,,,d0d619c7b6b95536d90ccb97,66a626ef09d4e21e1a8894ec,6734a0362ae2d31764b30a62,2024-11-13_13h54.52.293,Tarea de género gramatical,2024.2.2,Win32,88.49557522,,,,,,,,,,,,,,,,,,,,,,,,760.6383,761.7704,a,1,0.4681,,[],[],[],[],[],[],[],0.4681,1,761.7705,762.27,,,,,,60,MAS,DIS,150,tono,la,l,762.2701,762.2702,0.040555556,-0.376666667,0,0,0,,0,98,98,59,1,,,,,
,,,,,,d0d619c7b6b95536d90ccb97,66a626ef09d4e21e1a8894ec,6734a0362ae2d31764b30a62,2024-11-13_13h54.52.293,Tarea de género gramatical,2024.2.2,Win32,88.49557522,,,,,,,,,,,,,,,,,,,,,,,,762.2724,763.2826,a,1,0.3487,,[],[],[],[],[],[],[],0.3487,1,763.2827,763.779,,,,,,48,MAS,DIS,150,loco,la,l,763.779,763.7793,0.040555556,-0.376666667,0,0,0,,0,99,99,47,1,,,,,
,,,,,,d0d619c7b6b95536d90ccb97,66a626ef09d4e21e1a8894ec,6734a0362ae2d31764b30a62,2024-11-13_13h54.52.293,Tarea de género gramatical,2024.2.2,Win32,88.49557522,,,,,,,,,,,,,,,,,,,,,,,,763.7809,764.7266,l,1,0.2796,,[],[],[],[],[],[],[],0.2796,1,764.7267,765.2197,,,,,,218,FEM,CON,150,nieve,,a,765.2199,765.2201,0.040555556,-0.376666667,0,0,0,,0,100,100,217,1,,,,,
,,,,,,d0d619c7b6b95536d90ccb97,66a626ef09d4e21e1a8894ec,6734a0362ae2d31764b30a62,2024-11-13_13h54.52.293,Tarea de género gramatical,2024.2.2,Win32,88.49557522,,,,,,,,,,,,,,,,,,,,,,,,765.2234,766.2256,a,1,0.3339,,[],[],[],[],[],[],[],0.3339,1,766.2258,766.7224,,,,,,89,MAS,CON,150,maíz,,l,766.7259,766.7272,0.040555556,-0.376666667,0,0,0,,0,101,101,88,1,,,,,
,,,,,,d0d619c7b6b95536d90ccb97,66a626ef09d4e21e1a8894ec,6734a0362ae2d31764b30a62,2024-11-13_13h54.52.293,Tarea de género gramatical,2024.2.2,Win32,88.49557522,,,,,,,,,,,,,,,,,,,,,,,,766.7303,767.7907,a,1,0.3914,,[],[],[],[],[],[],[],0.3914,1,767.7911,768.2903,,,,,,240,MAS,DIS,150,ruido,la,l,768.2903,768.2904,0.040555556,-0.376666667,0,0,0,,0,102,102,239,1,,,,,
,,,,,,d0d619c7b6b95536d90ccb97,66a626ef09d4e21e1a8894ec,6734a0362ae2d31764b30a62,2024-11-13_13h54.52.293,Tarea de género gramatical,2024.2.2,Win32,88.49557522,,,,,,,,,,,,,,,,,,,,,,,,768.2919,769.315,a,1,0.3622,,[],[],[],[],[],[],[],0.3622,1,769.3151,769.8089,,,,,,149,MAS,CON,150,nudo,,l,769.8091,769.8093,0.040555556,-0.376666667,0,0,0,,0,103,103,148,1,,,,,
,,,,,,d0d619c7b6b95536d90ccb97,66a626ef09d4e21e1a8894ec,6734a0362ae2d31764b30a62,2024-11-13_13h54.52.293,Tarea de género gramatical,2024.2.2,Win32,88.49557522,,,,,,,,,,,,,,,,,,,,,,,,769.8125,771.2155,l,1,0.735,,[],[],[],[],[],[],[],0.735,1,771.2155,771.7142,,,,,,87,FEM,DIS,150,risa,el,a,771.7143,771.7144,0.040555556,-0.376666667,0,0,0,,0,104,104,86,1,,,,,
,,,,,,d0d619c7b6b95536d90ccb97,66a626ef09d4e21e1a8894ec,6734a0362ae2d31764b30a62,2024-11-13_13h54.52.293,Tarea de género gramatical,2024.2.2,Win32,88.49557522,,,,,,,,,,,,,,,,,,,,,,,,771.7159,772.7479,l,0,0.3707,,[],[],[],[],[],[],[],0.3707,0,772.7491,773.2588,,,,,,300,MAS,DIS,150,túnel,la,l,773.2611,773.2637,0.040555556,-0.376666667,0,0,0,,0,105,105,299,1,,,,,
,,,,,,d0d619c7b6b95536d90ccb97,66a626ef09d4e21e1a8894ec,6734a0362ae2d31764b30a62,2024-11-13_13h54.52.293,Tarea de género gramatical,2024.2.2,Win32,88.49557522,,,,,,,,,,,,,,,,,,,,,,,,773.2648,774.5146,a,1,0.5833,,[],[],[],[],[],[],[],0.5833,1,774.5156,775.0153,,,,,,118,MAS,AGR,150,baúl,el,l,775.0153,775.0154,0.040555556,-0.376666667,0,0,0,,0,106,106,117,1,,,,,
,,,,,,d0d619c7b6b95536d90ccb97,66a626ef09d4e21e1a8894ec,6734a0362ae2d31764b30a62,2024-11-13_13h54.52.293,Tarea de género gramatical,2024.2.2,Win32,88.49557522,,,,,,,,,,,,,,,,,,,,,,,,775.0183,776.2585,l,1,0.5798,,[],[],[],[],[],[],[],0.5798,1,776.2587,776.7588,,,,,,314,FEM,CON,150,señora,,a,776.7589,776.7591,0.040555556,-0.376666667,0,0,0,,0,107,107,313,1,,,,,
,,,,,,d0d619c7b6b95536d90ccb97,66a626ef09d4e21e1a8894ec,6734a0362ae2d31764b30a62,2024-11-13_13h54.52.293,Tarea de género gramatical,2024.2.2,Win32,88.49557522,,,,,,,,,,,,,,,,,,,,,,,,776.7614,778.1341,a,1,0.699,,[],[],[],[],[],[],[],0.699,1,778.1345,778.6339,,,,,,360,MAS,DIS,150,puente,la,l,778.6341,778.6344,0.040555556,-0.376666667,0,0,0,,0,108,108,359,1,,,,,
,,,,,,d0d619c7b6b95536d90ccb97,66a626ef09d4e21e1a8894ec,6734a0362ae2d31764b30a62,2024-11-13_13h54.52.293,Tarea de género gramatical,2024.2.2,Win32,88.49557522,,,,,,,,,,,,,,,,,,,,,,,,778.6374,779.8628,a,1,0.56,,[],[],[],[],[],[],[],0.56,1,779.8631,780.3585,,,,,,78,MAS,DIS,150,oído,la,l,780.3585,780.3587,0.040555556,-0.376666667,0,0,0,,0,109,109,77,1,,,,,
,,,,,,d0d619c7b6b95536d90ccb97,66a626ef09d4e21e1a8894ec,6734a0362ae2d31764b30a62,2024-11-13_13h54.52.293,Tarea de género gramatical,2024.2.2,Win32,88.49557522,,,,,,,,,,,,,,,,,,,,,,,,780.36,781.4039,a,1,0.3788,,[],[],[],[],[],[],[],0.3788,1,781.4041,781.8987,,,,,,353,MAS,CON,150,verano,,l,781.9018,781.9027,0.040555556,-0.376666667,0,0,0,,0,110,110,352,1,,,,,
,,,,,,d0d619c7b6b95536d90ccb97,66a626ef09d4e21e1a8894ec,6734a0362ae2d31764b30a62,2024-11-13_13h54.52.293,Tarea de género gramatical,2024.2.2,Win32,88.49557522,,,,,,,,,,,,,,,,,,,,,,,,781.9036,783.0155,l,1,0.4458,,[],[],[],[],[],[],[],0.4458,1,783.0158,783.5109,,,,,,446,FEM,CON,150,bañera,,a,783.511,783.5112,0.040555556,-0.376666667,0,0,0,,0,111,111,445,1,,,,,
,,,,,,d0d619c7b6b95536d90ccb97,66a626ef09d4e21e1a8894ec,6734a0362ae2d31764b30a62,2024-11-13_13h54.52.293,Tarea de género gramatical,2024.2.2,Win32,88.49557522,,,,,,,,,,,,,,,,,,,,,,,,783.5125,784.7527,l,1,0.5756,,[],[],[],[],[],[],[],0.5756,1,784.7531,785.2517,,,,,,80,FEM,CON,150,vaca,,a,785.2519,785.2521,0.040555556,-0.376666667,0,0,0,,0,112,112,79,1,,,,,
,,,,,,d0d619c7b6b95536d90ccb97,66a626ef09d4e21e1a8894ec,6734a0362ae2d31764b30a62,2024-11-13_13h54.52.293,Tarea de género gramatical,2024.2.2,Win32,88.49557522,,,,,,,,,,,,,,,,,,,,,,,,785.2556,786.5033,a,1,0.5787,,[],[],[],[],[],[],[],0.5787,1,786.5035,786.9999,,,,,,276,MAS,DIS,150,ritmo,la,l,787.0003,787.0007,0.040555556,-0.376666667,0,0,0,,0,113,113,275,1,,,,,
,,,,,,d0d619c7b6b95536d90ccb97,66a626ef09d4e21e1a8894ec,6734a0362ae2d31764b30a62,2024-11-13_13h54.52.293,Tarea de género gramatical,2024.2.2,Win32,88.49557522,,,,,,,,,,,,,,,,,,,,,,,,787.0038,788.0809,l,1,0.4118,,[],[],[],[],[],[],[],0.4118,1,788.0811,788.5806,,,,,,188,FEM,CON,150,bomba,,a,788.5821,788.584,0.040555556,-0.376666667,0,0,0,,0,114,114,187,1,,,,,
,,,,,,d0d619c7b6b95536d90ccb97,66a626ef09d4e21e1a8894ec,6734a0362ae2d31764b30a62,2024-11-13_13h54.52.293,Tarea de género gramatical,2024.2.2,Win32,88.49557522,,,,,,,,,,,,,,,,,,,,,,,,788.5866,789.6707,l,1,0.4276,,[],[],[],[],[],[],[],0.4276,1,789.6709,790.1665,,,,,,386,FEM,CON,150,sombra,,a,790.1666,790.1668,0.040555556,-0.376666667,0,0,0,,0,115,115,385,1,,,,,
,,,,,,d0d619c7b6b95536d90ccb97,66a626ef09d4e21e1a8894ec,6734a0362ae2d31764b30a62,2024-11-13_13h54.52.293,Tarea de género gramatical,2024.2.2,Win32,88.49557522,,,,,,,,,,,,,,,,,,,,,,,,790.17,791.1834,a,1,0.346,,[],[],[],[],[],[],[],0.346,1,791.1837,791.6771,,,,,,426,MAS,DIS,150,pánico,la,l,791.6773,791.6775,0.040555556,-0.376666667,0,0,0,,0,116,116,425,1,,,,,
,,,,,,d0d619c7b6b95536d90ccb97,66a626ef09d4e21e1a8894ec,6734a0362ae2d31764b30a62,2024-11-13_13h54.52.293,Tarea de género gramatical,2024.2.2,Win32,88.49557522,,,,,,,,,,,,,,,,,,,,,,,,791.6806,792.8367,l,1,0.4939,,[],[],[],[],[],[],[],0.4939,1,792.8368,793.3365,,,,,,253,FEM,AGR,150,aldea,la,a,793.3366,793.3368,0.040555556,-0.376666667,0,0,0,,0,117,117,252,1,,,,,
,,,,,,d0d619c7b6b95536d90ccb97,66a626ef09d4e21e1a8894ec,6734a0362ae2d31764b30a62,2024-11-13_13h54.52.293,Tarea de género gramatical,2024.2.2,Win32,88.49557522,,,,,,,,,,,,,,,,,,,,,,,,793.3392,794.5369,l,1,0.534,,[],[],[],[],[],[],[],0.534,1,794.537,795.0362,,,,,,351,FEM,DIS,150,espada,el,a,795.0364,795.0364,0.040555556,-0.376666667,0,0,0,,0,118,118,350,1,,,,,
,,,,,,d0d619c7b6b95536d90ccb97,66a626ef09d4e21e1a8894ec,6734a0362ae2d31764b30a62,2024-11-13_13h54.52.293,Tarea de género gramatical,2024.2.2,Win32,88.49557522,,,,,,,,,,,,,,,,,,,,,,,,795.0376,796.1281,a,1,0.4248,,[],[],[],[],[],[],[],0.4248,1,796.1285,796.6361,,,,,,347,MAS,CON,150,cuello,,l,796.6384,796.6408,0.040555556,-0.376666667,0,0,0,,0,119,119,346,1,,,,,
,,,,,,d0d619c7b6b95536d90ccb97,66a626ef09d4e21e1a8894ec,6734a0362ae2d31764b30a62,2024-11-13_13h54.52.293,Tarea de género gramatical,2024.2.2,Win32,88.49557522,,,,,,,,,,,,,,,,,,,,,,,,796.6425,797.9263,a,1,0.6123,,[],[],[],[],[],[],[],0.6123,1,797.9264,798.4252,,,,,,293,MAS,CON,150,patio,,l,798.4253,798.4255,0.040555556,-0.376666667,0,0,0,,0,120,120,292,1,,,,,
,,,,,,d0d619c7b6b95536d90ccb97,66a626ef09d4e21e1a8894ec,6734a0362ae2d31764b30a62,2024-11-13_13h54.52.293,Tarea de género gramatical,2024.2.2,Win32,88.49557522,,,,,,,,,,,,,,,,,,,,,,,,798.4272,799.6148,l,1,0.5233,,[],[],[],[],[],[],[],0.5233,1,799.6149,800.1146,,,,,,152,FEM,CON,150,gente,,a,800.1147,800.1148,0.040555556,-0.376666667,0,0,0,,0,121,121,151,1,,,,,
,,,,,,d0d619c7b6b95536d90ccb97,66a626ef09d4e21e1a8894ec,6734a0362ae2d31764b30a62,2024-11-13_13h54.52.293,Tarea de género gramatical,2024.2.2,Win32,88.49557522,,,,,,,,,,,,,,,,,,,,,,,,800.1168,801.2224,a,1,0.4451,,[],[],[],[],[],[],[],0.4451,1,801.2227,801.7253,,,,,,204,MAS,DIS,150,papel,la,l,801.7254,801.7255,0.040555556,-0.376666667,0,0,0,,0,122,122,203,1,,,,,
,,,,,,d0d619c7b6b95536d90ccb97,66a626ef09d4e21e1a8894ec,6734a0362ae2d31764b30a62,2024-11-13_13h54.52.293,Tarea de género gramatical,2024.2.2,Win32,88.49557522,,,,,,,,,,,,,,,,,,,,,,,,801.7272,802.8478,a,1,0.4562,,[],[],[],[],[],[],[],0.4562,1,802.8478,803.3431,,,,,,4,MAS,AGR,150,hijo,el,l,803.3466,803.3476,0.040555556,-0.376666667,0,0,0,,0,123,123,3,1,,,,,
,,,,,,d0d619c7b6b95536d90ccb97,66a626ef09d4e21e1a8894ec,6734a0362ae2d31764b30a62,2024-11-13_13h54.52.293,Tarea de género gramatical,2024.2.2,Win32,88.49557522,,,,,,,,,,,,,,,,,,,,,,,,803.3487,804.3808,l,0,0.3558,,[],[],[],[],[],[],[],0.3558,0,804.3818,804.8806,,,,,,378,MAS,DIS,150,pastel,la,l,804.8806,804.8807,0.040555556,-0.376666667,0,0,0,,0,124,124,377,1,,,,,
,,,,,,d0d619c7b6b95536d90ccb97,66a626ef09d4e21e1a8894ec,6734a0362ae2d31764b30a62,2024-11-13_13h54.52.293,Tarea de género gramatical,2024.2.2,Win32,88.49557522,,,,,,,,,,,,,,,,,,,,,,,,804.8822,806.0237,l,1,0.4806,,[],[],[],[],[],[],[],0.4806,1,806.025,806.5252,,,,,,146,FEM,CON,150,lana,,a,806.5252,806.5254,0.040555556,-0.376666667,0,0,0,,0,125,125,145,1,,,,,
,,,,,,d0d619c7b6b95536d90ccb97,66a626ef09d4e21e1a8894ec,6734a0362ae2d31764b30a62,2024-11-13_13h54.52.293,Tarea de género gramatical,2024.2.2,Win32,88.49557522,,,,,,,,,,,,,,,,,,,,,,,,806.5266,807.689,l,1,0.498,,[],[],[],[],[],[],[],0.498,1,807.6895,808.1863,,,,,,355,FEM,AGR,150,mirada,la,a,808.1866,808.1868,0.040555556,-0.376666667,0,0,0,,0,126,126,354,1,,,,,
,,,,,,d0d619c7b6b95536d90ccb97,66a626ef09d4e21e1a8894ec,6734a0362ae2d31764b30a62,2024-11-13_13h54.52.293,Tarea de género gramatical,2024.2.2,Win32,88.49557522,,,,,,,,,,,,,,,,,,,,,,,,808.1901,809.3035,a,1,0.456,,[],[],[],[],[],[],[],0.456,1,809.3037,809.8031,,,,,,24,MAS,DIS,150,voto,la,l,809.8031,809.8032,0.040555556,-0.376666667,0,0,0,,0,127,127,23,1,,,,,
,,,,,,d0d619c7b6b95536d90ccb97,66a626ef09d4e21e1a8894ec,6734a0362ae2d31764b30a62,2024-11-13_13h54.52.293,Tarea de género gramatical,2024.2.2,Win32,88.49557522,,,,,,,,,,,,,,,,,,,,,,,,809.8049,810.8922,a,1,0.4119,,[],[],[],[],[],[],[],0.4119,1,810.8923,811.3929,,,,,,292,MAS,AGR,150,piano,el,l,811.3953,811.3977,0.040555556,-0.376666667,0,0,0,,0,128,128,291,1,,,,,
,,,,,,d0d619c7b6b95536d90ccb97,66a626ef09d4e21e1a8894ec,6734a0362ae2d31764b30a62,2024-11-13_13h54.52.293,Tarea de género gramatical,2024.2.2,Win32,88.49557522,,,,,,,,,,,,,,,,,,,,,,,,811.3991,812.6774,l,1,0.6076,,[],[],[],[],[],[],[],0.6076,1,812.6776,813.1802,,,,,,187,FEM,AGR,150,lista,la,a,813.1802,813.1804,0.040555556,-0.376666667,0,0,0,,0,129,129,186,1,,,,,
,,,,,,d0d619c7b6b95536d90ccb97,66a626ef09d4e21e1a8894ec,6734a0362ae2d31764b30a62,2024-11-13_13h54.52.293,Tarea de género gramatical,2024.2.2,Win32,88.49557522,,,,,,,,,,,,,,,,,,,,,,,,813.182,814.3037,l,1,0.4562,,[],[],[],[],[],[],[],0.4562,1,814.3039,814.8034,,,,,,273,FEM,DIS,150,tarta,el,a,814.8035,814.8036,0.040555556,-0.376666667,0,0,0,,0,130,130,272,1,,,,,
,,,,,,d0d619c7b6b95536d90ccb97,66a626ef09d4e21e1a8894ec,6734a0362ae2d31764b30a62,2024-11-13_13h54.52.293,Tarea de género gramatical,2024.2.2,Win32,88.49557522,,,,,,,,,,,,,,,,,,,,,,,,814.8051,815.9001,l,1,0.4331,,[],[],[],[],[],[],[],0.4331,1,815.9006,816.3992,,,,,,37,FEM,AGR,150,sala,la,a,816.3993,816.3995,0.040555556,-0.376666667,0,0,0,,0,131,131,36,1,,,,,
,,,,,,d0d619c7b6b95536d90ccb97,66a626ef09d4e21e1a8894ec,6734a0362ae2d31764b30a62,2024-11-13_13h54.52.293,Tarea de género gramatical,2024.2.2,Win32,88.49557522,,,,,,,,,,,,,,,,,,,,,,,,816.4027,817.4591,a,1,0.3788,,[],[],[],[],[],[],[],0.3788,1,817.4592,817.9568,,,,,,269,MAS,CON,150,primo,,l,817.9602,817.9625,0.040555556,-0.376666667,0,0,0,,0,132,132,268,1,,,,,
,,,,,,d0d619c7b6b95536d90ccb97,66a626ef09d4e21e1a8894ec,6734a0362ae2d31764b30a62,2024-11-13_13h54.52.293,Tarea de género gramatical,2024.2.2,Win32,88.49557522,,,,,,,,,,,,,,,,,,,,,,,,817.9646,819.3702,a,1,0.7449,,[],[],[],[],[],[],[],0.7449,1,819.3704,819.8639,,,,,,12,MAS,DIS,150,plan,la,l,819.864,819.8643,0.040555556,-0.376666667,0,0,0,,0,133,133,11,1,,,,,
,,,,,,d0d619c7b6b95536d90ccb97,66a626ef09d4e21e1a8894ec,6734a0362ae2d31764b30a62,2024-11-13_13h54.52.293,Tarea de género gramatical,2024.2.2,Win32,88.49557522,,,,,,,,,,,,,,,,,,,,,,,,819.8679,820.9056,l,1,0.3727,,[],[],[],[],[],[],[],0.3727,1,820.9058,821.4036,,,,,,333,FEM,DIS,150,locura,el,a,821.4036,821.4038,0.040555556,-0.376666667,0,0,0,,0,134,134,332,1,,,,,
,,,,,,d0d619c7b6b95536d90ccb97,66a626ef09d4e21e1a8894ec,6734a0362ae2d31764b30a62,2024-11-13_13h54.52.293,Tarea de género gramatical,2024.2.2,Win32,88.49557522,,,,,,,,,,,,,,,,,,,,,,,,821.4065,822.513,l,1,0.4437,,[],[],[],[],[],[],[],0.4437,1,822.5132,823.0105,,,,,,205,FEM,AGR,150,reina,la,a,823.0106,823.0109,0.040555556,-0.376666667,0,0,0,,0,135,135,204,1,,,,,
,,,,,,d0d619c7b6b95536d90ccb97,66a626ef09d4e21e1a8894ec,6734a0362ae2d31764b30a62,2024-11-13_13h54.52.293,Tarea de género gramatical,2024.2.2,Win32,88.49557522,,,,,,,,,,,,,,,,,,,,,,,,823.0139,824.2212,l,1,0.545,,[],[],[],[],[],[],[],0.545,1,824.2215,824.7146,,,,,,405,FEM,DIS,150,parada,el,a,824.7147,824.7148,0.040555556,-0.376666667,0,0,0,,0,136,136,404,1,,,,,
,,,,,,d0d619c7b6b95536d90ccb97,66a626ef09d4e21e1a8894ec,6734a0362ae2d31764b30a62,2024-11-13_13h54.52.293,Tarea de género gramatical,2024.2.2,Win32,88.49557522,,,,,,,,,,,,,,,,,,,,,,,,824.7163,825.7823,l,1,0.4067,,[],[],[],[],[],[],[],0.4067,1,825.7824,826.2903,,,,,,284,FEM,CON,150,fruta,,a,826.2923,826.2934,0.040555556,-0.376666667,0,0,0,,0,137,137,283,1,,,,,
,,,,,,d0d619c7b6b95536d90ccb97,66a626ef09d4e21e1a8894ec,6734a0362ae2d31764b30a62,2024-11-13_13h54.52.293,Tarea de género gramatical,2024.2.2,Win32,88.49557522,,,,,,,,,,,,,,,,,,,,,,,,826.2953,827.4375,l,1,0.4783,,[],[],[],[],[],[],[],0.4783,1,827.4375,827.9357,,,,,,326,FEM,CON,150,música,,a,827.9358,827.9359,0.040555556,-0.376666667,0,0,0,,0,138,138,325,1,,,,,
,,,,,,d0d619c7b6b95536d90ccb97,66a626ef09d4e21e1a8894ec,6734a0362ae2d31764b30a62,2024-11-13_13h54.52.293,Tarea de género gramatical,2024.2.2,Win32,88.49557522,,,,,,,,,,,,,,,,,,,,,,,,827.9374,828.9819,a,1,0.383,,[],[],[],[],[],[],[],0.383,1,828.9821,829.4806,,,,,,96,MAS,DIS,150,pato,la,l,829.4806,829.4808,0.040555556,-0.376666667,0,0,0,,0,139,139,95,1,,,,,
,,,,,,d0d619c7b6b95536d90ccb97,66a626ef09d4e21e1a8894ec,6734a0362ae2d31764b30a62,2024-11-13_13h54.52.293,Tarea de género gramatical,2024.2.2,Win32,88.49557522,,,,,,,,,,,,,,,,,,,,,,,,829.4823,830.5702,l,1,0.4263,,[],[],[],[],[],[],[],0.4263,1,830.5703,831.0657,,,,,,290,FEM,CON,150,cabra,,a,831.0658,831.066,0.040555556,-0.376666667,0,0,0,,0,140,140,289,1,,,,,
,,,,,,d0d619c7b6b95536d90ccb97,66a626ef09d4e21e1a8894ec,6734a0362ae2d31764b30a62,2024-11-13_13h54.52.293,Tarea de género gramatical,2024.2.2,Win32,88.49557522,,,,,,,,,,,,,,,,,,,,,,,,831.0676,832.0812,a,1,0.3435,,[],[],[],[],[],[],[],0.3435,1,832.0814,832.5752,,,,,,215,MAS,CON,150,hueso,,l,832.5786,832.5796,0.040555556,-0.376666667,0,0,0,,0,141,141,214,1,,,,,
,,,,,,d0d619c7b6b95536d90ccb97,66a626ef09d4e21e1a8894ec,6734a0362ae2d31764b30a62,2024-11-13_13h54.52.293,Tarea de género gramatical,2024.2.2,Win32,88.49557522,,,,,,,,,,,,,,,,,,,,,,,,832.5808,833.7105,l,1,0.463,,[],[],[],[],[],[],[],0.463,1,833.7109,834.2028,,,,,,417,FEM,DIS,150,cabaña,el,a,834.2029,834.203,0.040555556,-0.376666667,0,0,0,,0,142,142,416,1,,,,,
,,,,,,d0d619c7b6b95536d90ccb97,66a626ef09d4e21e1a8894ec,6734a0362ae2d31764b30a62,2024-11-13_13h54.52.293,Tarea de género gramatical,2024.2.2,Win32,88.49557522,,,,,,,,,,,,,,,,,,,,,,,,834.2048,835.4256,l,1,0.5567,,[],[],[],[],[],[],[],0.5567,1,835.4257,835.919,,,,,,327,FEM,DIS,150,tienda,el,a,835.9191,835.9193,0.040555556,-0.376666667,0,0,0,,0,143,143,326,1,,,,,
,,,,,,d0d619c7b6b95536d90ccb97,66a626ef09d4e21e1a8894ec,6734a0362ae2d31764b30a62,2024-11-13_13h54.52.293,Tarea de género gramatical,2024.2.2,Win32,88.49557522,,,,,,,,,,,,,,,,,,,,,,,,835.9224,836.982,a,1,0.3901,,[],[],[],[],[],[],[],0.3901,1,836.9821,837.481,,,,,,286,MAS,AGR,150,reino,el,l,837.481,837.4813,0.040555556,-0.376666667,0,0,0,,0,144,144,285,1,,,,,
,,,,,,d0d619c7b6b95536d90ccb97,66a626ef09d4e21e1a8894ec,6734a0362ae2d31764b30a62,2024-11-13_13h54.52.293,Tarea de género gramatical,2024.2.2,Win32,88.49557522,,,,,,,,,,,,,,,,,,,,,,,,837.4831,838.5673,l,1,0.4123,,[],[],[],[],[],[],[],0.4123,1,838.5676,839.0596,,,,,,111,FEM,DIS,150,goma,el,a,839.0596,839.0597,0.040555556,-0.376666667,0,0,0,,0,145,145,110,1,,,,,
,,,,,,d0d619c7b6b95536d90ccb97,66a626ef09d4e21e1a8894ec,6734a0362ae2d31764b30a62,2024-11-13_13h54.52.293,Tarea de género gramatical,2024.2.2,Win32,88.49557522,,,,,,,,,,,,,,,,,,,,,,,,839.0611,840.1925,l,0,0.4674,,[],[],[],[],[],[],[],0.4674,0,840.1933,840.6919,,,,,,431,MAS,CON,150,veneno,,l,840.6942,840.6971,0.040555556,-0.376666667,0,0,0,,0,146,146,430,1,,,,,
,,,,,,d0d619c7b6b95536d90ccb97,66a626ef09d4e21e1a8894ec,6734a0362ae2d31764b30a62,2024-11-13_13h54.52.293,Tarea de género gramatical,2024.2.2,Win32,88.49557522,,,,,,,,,,,,,,,,,,,,,,,,840.6983,841.7481,a,1,0.3929,,[],[],[],[],[],[],[],0.3929,1,841.7493,842.2409,,,,,,77,MAS,CON,150,pico,,l,842.241,842.2413,0.040555556,-0.376666667,0,0,0,,0,147,147,76,1,,,,,
,,,,,,d0d619c7b6b95536d90ccb97,66a626ef09d4e21e1a8894ec,6734a0362ae2d31764b30a62,2024-11-13_13h54.52.293,Tarea de género gramatical,2024.2.2,Win32,88.49557522,,,,,,,,,,,,,,,,,,,,,,,,842.2444,843.3484,l,1,0.4345,,[],[],[],[],[],[],[],0.4345,1,843.3485,843.8596,,,,,,26,FEM,CON,150,pena,,a,843.8596,843.8598,0.040555556,-0.376666667,0,0,0,,0,148,148,25,1,,,,,
,,,,,,d0d619c7b6b95536d90ccb97,66a626ef09d4e21e1a8894ec,6734a0362ae2d31764b30a62,2024-11-13_13h54.52.293,Tarea de género gramatical,2024.2.2,Win32,88.49557522,,,,,,,,,,,,,,,,,,,,,,,,843.8618,845.2043,l,1,0.6793,,[],[],[],[],[],[],[],0.6793,1,845.2045,845.7017,,,,,,9,FEM,DIS,150,mamá,el,a,845.7019,845.7021,0.040555556,-0.376666667,0,0,0,,0,149,149,8,1,,,,,
,,,,,,d0d619c7b6b95536d90ccb97,66a626ef09d4e21e1a8894ec,6734a0362ae2d31764b30a62,2024-11-13_13h54.52.293,Tarea de género gramatical,2024.2.2,Win32,88.49557522,,,,,,,,,,,,,,,,,,,,,,,,845.7051,846.7038,l,1,0.339,,[],[],[],[],[],[],[],0.339,1,846.7039,847.2156,,,,,,410,FEM,CON,150,piedad,,a,847.2188,994.062,0.11,-0.406666667,1,0,0,,0,150,150,409,1,break_done_button,,,,
,,,,,,d0d619c7b6b95536d90ccb97,66a626ef09d4e21e1a8894ec,6734a0362ae2d31764b30a62,2024-11-13_13h54.52.293,Tarea de género gramatical,2024.2.2,Win32,88.49557522,,,,,,,,,,,,,,,,,,,,,,,,994.0654,995.6044,l,0,0.8793,,[],[],[],[],[],[],[],0.8793,0,995.6061,996.1005,,,,,,107,MAS,CON,150,cubo,,l,996.1008,996.101,0.11,-0.406666667,0,0,0,,0,151,151,106,1,,,,,
,,,,,,d0d619c7b6b95536d90ccb97,66a626ef09d4e21e1a8894ec,6734a0362ae2d31764b30a62,2024-11-13_13h54.52.293,Tarea de género gramatical,2024.2.2,Win32,88.49557522,,,,,,,,,,,,,,,,,,,,,,,,996.1036,997.2044,l,1,0.4344,,[],[],[],[],[],[],[],0.4344,1,997.2055,997.7034,,,,,,223,FEM,AGR,150,plata,la,a,997.7035,997.7035,0.11,-0.406666667,0,0,0,,0,152,152,222,1,,,,,
,,,,,,d0d619c7b6b95536d90ccb97,66a626ef09d4e21e1a8894ec,6734a0362ae2d31764b30a62,2024-11-13_13h54.52.293,Tarea de género gramatical,2024.2.2,Win32,88.49557522,,,,,,,,,,,,,,,,,,,,,,,,997.7049,998.6814,a,1,0.3006,,[],[],[],[],[],[],[],0.3006,1,998.6815,999.1814,,,,,,232,MAS,AGR,150,calor,el,l,999.1815,999.1815,0.11,-0.406666667,0,0,0,,0,153,153,231,1,,,,,
,,,,,,d0d619c7b6b95536d90ccb97,66a626ef09d4e21e1a8894ec,6734a0362ae2d31764b30a62,2024-11-13_13h54.52.293,Tarea de género gramatical,2024.2.2,Win32,88.49557522,,,,,,,,,,,,,,,,,,,,,,,,999.1835,1000.3268,a,1,0.4794,,[],[],[],[],[],[],[],0.4794,1,1000.3269,1000.8204,,,,,,144,MAS,DIS,150,amor,la,l,1000.8206,1000.8209,0.11,-0.406666667,0,0,0,,0,154,154,143,1,,,,,
,,,,,,d0d619c7b6b95536d90ccb97,66a626ef09d4e21e1a8894ec,6734a0362ae2d31764b30a62,2024-11-13_13h54.52.293,Tarea de género gramatical,2024.2.2,Win32,88.49557522,,,,,,,,,,,,,,,,,,,,,,,,1000.8243,1002.2555,a,1,0.7629,,[],[],[],[],[],[],[],0.7629,1,1002.256,1002.7709,,,,,,132,MAS,DIS,150,velo,la,l,1002.7732,1002.7757,0.11,-0.406666667,0,0,0,,0,155,155,131,1,,,,,
,,,,,,d0d619c7b6b95536d90ccb97,66a626ef09d4e21e1a8894ec,6734a0362ae2d31764b30a62,2024-11-13_13h54.52.293,Tarea de género gramatical,2024.2.2,Win32,88.49557522,,,,,,,,,,,,,,,,,,,,,,,,1002.7773,1003.7479,l,1,0.304,,[],[],[],[],[],[],[],0.304,1,1003.7481,1004.2439,,,,,,373,FEM,AGR,150,lluvia,la,a,1004.2441,1004.2443,0.11,-0.406666667,0,0,0,,0,156,156,372,1,,,,,
,,,,,,d0d619c7b6b95536d90ccb97,66a626ef09d4e21e1a8894ec,6734a0362ae2d31764b30a62,2024-11-13_13h54.52.293,Tarea de género gramatical,2024.2.2,Win32,88.49557522,,,,,,,,,,,,,,,,,,,,,,,,1004.2474,1005.2265,a,1,0.312,,[],[],[],[],[],[],[],0.312,1,1005.2266,1005.7259,,,,,,437,MAS,CON,150,hombro,,l,1005.7259,1005.7262,0.11,-0.406666667,0,0,0,,0,157,157,436,1,,,,,
,,,,,,d0d619c7b6b95536d90ccb97,66a626ef09d4e21e1a8894ec,6734a0362ae2d31764b30a62,2024-11-13_13h54.52.293,Tarea de género gramatical,2024.2.2,Win32,88.49557522,,,,,,,,,,,,,,,,,,,,,,,,1005.7283,1006.8152,a,1,0.4226,,[],[],[],[],[],[],[],0.4226,1,1006.8153,1007.3146,,,,,,108,MAS,DIS,150,hilo,la,l,1007.3146,1007.3147,0.11,-0.406666667,0,0,0,,0,158,158,107,1,,,,,
,,,,,,d0d619c7b6b95536d90ccb97,66a626ef09d4e21e1a8894ec,6734a0362ae2d31764b30a62,2024-11-13_13h54.52.293,Tarea de género gramatical,2024.2.2,Win32,88.49557522,,,,,,,,,,,,,,,,,,,,,,,,1007.3161,1008.3261,l,1,0.3455,,[],[],[],[],[],[],[],0.3455,1,1008.3263,1008.8263,,,,,,249,FEM,DIS,150,crema,el,a,1008.828,1008.8294,0.11,-0.406666667,0,0,0,,0,159,159,248,1,,,,,
,,,,,,d0d619c7b6b95536d90ccb97,66a626ef09d4e21e1a8894ec,6734a0362ae2d31764b30a62,2024-11-13_13h54.52.293,Tarea de género gramatical,2024.2.2,Win32,88.49557522,,,,,,,,,,,,,,,,,,,,,,,,1008.8314,1009.8013,a,1,0.3088,,[],[],[],[],[],[],[],0.3088,1,1009.8018,1010.3002,,,,,,316,MAS,AGR,150,cuerpo,el,l,1010.3002,1010.3006,0.11,-0.406666667,0,0,0,,0,160,160,315,1,,,,,
,,,,,,d0d619c7b6b95536d90ccb97,66a626ef09d4e21e1a8894ec,6734a0362ae2d31764b30a62,2024-11-13_13h54.52.293,Tarea de género gramatical,2024.2.2,Win32,88.49557522,,,,,,,,,,,,,,,,,,,,,,,,1010.3038,1011.3914,a,1,0.4214,,[],[],[],[],[],[],[],0.4214,1,1011.3915,1011.8847,,,,,,130,MAS,AGR,150,yate,el,l,1011.8849,1011.8852,0.11,-0.406666667,0,0,0,,0,161,161,129,1,,,,,
,,,,,,d0d619c7b6b95536d90ccb97,66a626ef09d4e21e1a8894ec,6734a0362ae2d31764b30a62,2024-11-13_13h54.52.293,Tarea de género gramatical,2024.2.2,Win32,88.49557522,,,,,,,,,,,,,,,,,,,,,,,,1011.8879,1012.979,a,1,0.4195,,[],[],[],[],[],[],[],0.4195,1,1012.9794,1013.4784,,,,,,58,MAS,AGR,150,mono,el,l,1013.4785,1013.4786,0.11,-0.406666667,0,0,0,,0,162,162,57,1,,,,,
,,,,,,d0d619c7b6b95536d90ccb97,66a626ef09d4e21e1a8894ec,6734a0362ae2d31764b30a62,2024-11-13_13h54.52.293,Tarea de género gramatical,2024.2.2,Win32,88.49557522,,,,,,,,,,,,,,,,,,,,,,,,1013.4798,1014.4375,l,0,0.2934,,[],[],[],[],[],[],[],0.2934,0,1014.4388,1014.9324,,,,,,59,MAS,CON,150,lobo,,l,1014.9325,1014.9329,0.11,-0.406666667,0,0,0,,0,163,163,58,1,,,,,
,,,,,,d0d619c7b6b95536d90ccb97,66a626ef09d4e21e1a8894ec,6734a0362ae2d31764b30a62,2024-11-13_13h54.52.293,Tarea de género gramatical,2024.2.2,Win32,88.49557522,,,,,,,,,,,,,,,,,,,,,,,,1014.9359,1016.0432,a,1,0.4438,,[],[],[],[],[],[],[],0.4438,1,1016.0457,1016.5367,,,,,,66,MAS,DIS,150,muro,la,l,1016.5388,1016.5409,0.11,-0.406666667,0,0,0,,0,164,164,65,1,,,,,
,,,,,,d0d619c7b6b95536d90ccb97,66a626ef09d4e21e1a8894ec,6734a0362ae2d31764b30a62,2024-11-13_13h54.52.293,Tarea de género gramatical,2024.2.2,Win32,88.49557522,,,,,,,,,,,,,,,,,,,,,,,,1016.5428,1017.6595,l,0,0.4518,,[],[],[],[],[],[],[],0.4518,0,1017.6613,1018.1539,,,,,,28,MAS,AGR,150,club,el,l,1018.1541,1018.1542,0.11,-0.406666667,0,0,0,,0,165,165,27,1,,,,,
,,,,,,d0d619c7b6b95536d90ccb97,66a626ef09d4e21e1a8894ec,6734a0362ae2d31764b30a62,2024-11-13_13h54.52.293,Tarea de género gramatical,2024.2.2,Win32,88.49557522,,,,,,,,,,,,,,,,,,,,,,,,1018.1576,1019.2931,l,1,0.4676,,[],[],[],[],[],[],[],0.4676,1,1019.2943,1019.7922,,,,,,123,FEM,DIS,150,tela,el,a,1019.7923,1019.7924,0.11,-0.406666667,0,0,0,,0,166,166,122,1,,,,,
,,,,,,d0d619c7b6b95536d90ccb97,66a626ef09d4e21e1a8894ec,6734a0362ae2d31764b30a62,2024-11-13_13h54.52.293,Tarea de género gramatical,2024.2.2,Win32,88.49557522,,,,,,,,,,,,,,,,,,,,,,,,1019.7936,1021.038,a,1,0.568,,[],[],[],[],[],[],[],0.568,1,1021.038,1021.5321,,,,,,335,MAS,CON,150,montón,,l,1021.5323,1021.5325,0.11,-0.406666667,0,0,0,,0,167,167,334,1,,,,,
,,,,,,d0d619c7b6b95536d90ccb97,66a626ef09d4e21e1a8894ec,6734a0362ae2d31764b30a62,2024-11-13_13h54.52.293,Tarea de género gramatical,2024.2.2,Win32,88.49557522,,,,,,,,,,,,,,,,,,,,,,,,1021.5358,1022.6155,a,1,0.4123,,[],[],[],[],[],[],[],0.4123,1,1022.6157,1023.1144,,,,,,270,MAS,DIS,150,queso,la,l,1023.117,1023.1196,0.11,-0.406666667,0,0,0,,0,168,168,269,1,,,,,
,,,,,,d0d619c7b6b95536d90ccb97,66a626ef09d4e21e1a8894ec,6734a0362ae2d31764b30a62,2024-11-13_13h54.52.293,Tarea de género gramatical,2024.2.2,Win32,88.49557522,,,,,,,,,,,,,,,,,,,,,,,,1023.1209,1024.2151,l,1,0.4345,,[],[],[],[],[],[],[],0.4345,1,1024.2152,1024.7114,,,,,,67,FEM,AGR,150,miel,la,a,1024.7116,1024.7117,0.11,-0.406666667,0,0,0,,0,169,169,66,1,,,,,
,,,,,,d0d619c7b6b95536d90ccb97,66a626ef09d4e21e1a8894ec,6734a0362ae2d31764b30a62,2024-11-13_13h54.52.293,Tarea de género gramatical,2024.2.2,Win32,88.49557522,,,,,,,,,,,,,,,,,,,,,,,,1024.7146,1026.0333,l,1,0.6514,,[],[],[],[],[],[],[],0.6514,1,1026.0336,1026.5258,,,,,,189,FEM,DIS,150,pista,el,a,1026.5258,1026.526,0.11,-0.406666667,0,0,0,,0,170,170,188,1,,,,,
,,,,,,d0d619c7b6b95536d90ccb97,66a626ef09d4e21e1a8894ec,6734a0362ae2d31764b30a62,2024-11-13_13h54.52.293,Tarea de género gramatical,2024.2.2,Win32,88.49557522,,,,,,,,,,,,,,,,,,,,,,,,1026.5272,1027.693,l,1,0.4897,,[],[],[],[],[],[],[],0.4897,1,1027.6931,1028.1904,,,,,,416,FEM,CON,150,colina,,a,1028.1906,1028.1907,0.11,-0.406666667,0,0,0,,0,171,171,415,1,,,,,
,,,,,,d0d619c7b6b95536d90ccb97,66a626ef09d4e21e1a8894ec,6734a0362ae2d31764b30a62,2024-11-13_13h54.52.293,Tarea de género gramatical,2024.2.2,Win32,88.49557522,,,,,,,,,,,,,,,,,,,,,,,,1028.1927,1029.3487,l,1,0.49,,[],[],[],[],[],[],[],0.49,1,1029.3487,1029.8481,,,,,,237,FEM,DIS,150,ducha,el,a,1029.8482,1029.8484,0.11,-0.406666667,0,0,0,,0,172,172,236,1,,,,,
,,,,,,d0d619c7b6b95536d90ccb97,66a626ef09d4e21e1a8894ec,6734a0362ae2d31764b30a62,2024-11-13_13h54.52.293,Tarea de género gramatical,2024.2.2,Win32,88.49557522,,,,,,,,,,,,,,,,,,,,,,,,1029.8499,1030.8708,l,1,0.3564,,[],[],[],[],[],[],[],0.3564,1,1030.871,1031.3704,,,,,,427,FEM,AGR,150,agenda,la,a,1031.3719,1031.3745,0.11,-0.406666667,0,0,0,,0,173,173,426,1,,,,,
,,,,,,d0d619c7b6b95536d90ccb97,66a626ef09d4e21e1a8894ec,6734a0362ae2d31764b30a62,2024-11-13_13h54.52.293,Tarea de género gramatical,2024.2.2,Win32,88.49557522,,,,,,,,,,,,,,,,,,,,,,,,1031.3764,1032.382,a,1,0.3389,,[],[],[],[],[],[],[],0.3389,1,1032.3822,1032.8798,,,,,,23,MAS,CON,150,rato,,l,1032.8798,1032.8799,0.11,-0.406666667,0,0,0,,0,174,174,22,1,,,,,
,,,,,,d0d619c7b6b95536d90ccb97,66a626ef09d4e21e1a8894ec,6734a0362ae2d31764b30a62,2024-11-13_13h54.52.293,Tarea de género gramatical,2024.2.2,Win32,88.49557522,,,,,,,,,,,,,,,,,,,,,,,,1032.8816,1033.8931,l,1,0.3452,,[],[],[],[],[],[],[],0.3452,1,1033.8933,1034.3905,,,,,,183,FEM,DIS,150,llave,el,a,1034.3906,1034.3908,0.11,-0.406666667,0,0,0,,0,175,175,182,1,,,,,
,,,,,,d0d619c7b6b95536d90ccb97,66a626ef09d4e21e1a8894ec,6734a0362ae2d31764b30a62,2024-11-13_13h54.52.293,Tarea de género gramatical,2024.2.2,Win32,88.49557522,,,,,,,,,,,,,,,,,,,,,,,,1034.3925,1035.6153,l,1,0.5566,,[],[],[],[],[],[],[],0.5566,1,1035.6154,1036.1137,,,,,,447,FEM,DIS,150,lógica,el,a,1036.1138,1036.114,0.11,-0.406666667,0,0,0,,0,176,176,446,1,,,,,
,,,,,,d0d619c7b6b95536d90ccb97,66a626ef09d4e21e1a8894ec,6734a0362ae2d31764b30a62,2024-11-13_13h54.52.293,Tarea de género gramatical,2024.2.2,Win32,88.49557522,,,,,,,,,,,,,,,,,,,,,,,,1036.1157,1037.3261,l,1,0.5455,,[],[],[],[],[],[],[],0.5455,1,1037.3262,1037.8261,,,,,,409,FEM,AGR,150,moneda,la,a,1037.8279,1037.8299,0.11,-0.406666667,0,0,0,,0,177,177,408,1,,,,,
,,,,,,d0d619c7b6b95536d90ccb97,66a626ef09d4e21e1a8894ec,6734a0362ae2d31764b30a62,2024-11-13_13h54.52.293,Tarea de género gramatical,2024.2.2,Win32,88.49557522,,,,,,,,,,,,,,,,,,,,,,,,1037.8323,1039.2483,a,1,0.7466,,[],[],[],[],[],[],[],0.7466,1,1039.2484,1039.7435,,,,,,424,MAS,AGR,150,rastro,el,l,1039.7437,1039.744,0.11,-0.406666667,0,0,0,,0,178,178,423,1,,,,,
,,,,,,d0d619c7b6b95536d90ccb97,66a626ef09d4e21e1a8894ec,6734a0362ae2d31764b30a62,2024-11-13_13h54.52.293,Tarea de género gramatical,2024.2.2,Win32,88.49557522,,,,,,,,,,,,,,,,,,,,,,,,1039.7472,1041.0224,a,1,0.6064,,[],[],[],[],[],[],[],0.6064,1,1041.0227,1041.521,,,,,,348,MAS,DIS,150,anillo,la,l,1041.5211,1041.5214,0.11,-0.406666667,0,0,0,,0,179,179,347,1,,,,,
,,,,,,d0d619c7b6b95536d90ccb97,66a626ef09d4e21e1a8894ec,6734a0362ae2d31764b30a62,2024-11-13_13h54.52.293,Tarea de género gramatical,2024.2.2,Win32,88.49557522,,,,,,,,,,,,,,,,,,,,,,,,1041.5249,1042.9136,a,1,0.7247,,[],[],[],[],[],[],[],0.7247,1,1042.9139,1043.4144,,,,,,172,MAS,AGR,150,poder,el,l,1043.4145,1043.4147,0.11,-0.406666667,0,0,0,,0,180,180,171,1,,,,,
,,,,,,d0d619c7b6b95536d90ccb97,66a626ef09d4e21e1a8894ec,6734a0362ae2d31764b30a62,2024-11-13_13h54.52.293,Tarea de género gramatical,2024.2.2,Win32,88.49557522,,,,,,,,,,,,,,,,,,,,,,,,1043.4165,1045.8554,a,1,1.7635,,[],[],[],[],[],[],[],1.7635,1,1045.8556,1046.3557,,,,,,438,MAS,DIS,150,tanque,la,l,1046.3558,1046.356,0.11,-0.406666667,0,0,0,,0,181,181,437,1,,,,,
,,,,,,d0d619c7b6b95536d90ccb97,66a626ef09d4e21e1a8894ec,6734a0362ae2d31764b30a62,2024-11-13_13h54.52.293,Tarea de género gramatical,2024.2.2,Win32,88.49557522,,,,,,,,,,,,,,,,,,,,,,,,1046.3576,1047.8352,a,1,0.8087,,[],[],[],[],[],[],[],0.8087,1,1047.8356,1048.3375,,,,,,168,MAS,DIS,150,sitio,la,l,1048.3399,1048.3421,0.11,-0.406666667,0,0,0,,0,182,182,167,1,,,,,
,,,,,,d0d619c7b6b95536d90ccb97,66a626ef09d4e21e1a8894ec,6734a0362ae2d31764b30a62,2024-11-13_13h54.52.293,Tarea de género gramatical,2024.2.2,Win32,88.49557522,,,,,,,,,,,,,,,,,,,,,,,,1048.3433,1049.349,l,1,0.3341,,[],[],[],[],[],[],[],0.3341,1,1049.3491,1049.8482,,,,,,302,FEM,CON,150,cabeza,,a,1049.8482,1049.8484,0.11,-0.406666667,0,0,0,,0,183,183,301,1,,,,,
,,,,,,d0d619c7b6b95536d90ccb97,66a626ef09d4e21e1a8894ec,6734a0362ae2d31764b30a62,2024-11-13_13h54.52.293,Tarea de género gramatical,2024.2.2,Win32,88.49557522,,,,,,,,,,,,,,,,,,,,,,,,1049.85,1051.0139,l,1,0.4881,,[],[],[],[],[],[],[],0.4881,1,1051.014,1051.5149,,,,,,2,FEM,CON,150,vida,,a,1051.515,1051.5151,0.11,-0.406666667,0,0,0,,0,184,184,1,1,,,,,
,,,,,,d0d619c7b6b95536d90ccb97,66a626ef09d4e21e1a8894ec,6734a0362ae2d31764b30a62,2024-11-13_13h54.52.293,Tarea de género gramatical,2024.2.2,Win32,88.49557522,,,,,,,,,,,,,,,,,,,,,,,,1051.5165,1052.7595,l,1,0.5827,,[],[],[],[],[],[],[],0.5827,1,1052.7596,1053.2627,,,,,,169,FEM,AGR,150,vista,la,a,1053.2629,1053.2632,0.11,-0.406666667,0,0,0,,0,185,185,168,1,,,,,
,,,,,,d0d619c7b6b95536d90ccb97,66a626ef09d4e21e1a8894ec,6734a0362ae2d31764b30a62,2024-11-13_13h54.52.293,Tarea de género gramatical,2024.2.2,Win32,88.49557522,,,,,,,,,,,,,,,,,,,,,,,,1053.2656,1054.5041,l,1,0.5788,,[],[],[],[],[],[],[],0.5788,1,1054.5043,1055.0031,,,,,,45,FEM,DIS,150,isla,el,a,1055.0049,1055.0067,0.11,-0.406666667,0,0,0,,0,186,186,44,1,,,,,
,,,,,,d0d619c7b6b95536d90ccb97,66a626ef09d4e21e1a8894ec,6734a0362ae2d31764b30a62,2024-11-13_13h54.52.293,Tarea de género gramatical,2024.2.2,Win32,88.49557522,,,,,,,,,,,,,,,,,,,,,,,,1055.0091,1056.1486,a,1,0.4676,,[],[],[],[],[],[],[],0.4676,1,1056.1489,1056.6433,,,,,,106,MAS,AGR,150,test,el,l,1056.6437,1056.644,0.11,-0.406666667,0,0,0,,0,187,187,105,1,,,,,
,,,,,,d0d619c7b6b95536d90ccb97,66a626ef09d4e21e1a8894ec,6734a0362ae2d31764b30a62,2024-11-13_13h54.52.293,Tarea de género gramatical,2024.2.2,Win32,88.49557522,,,,,,,,,,,,,,,,,,,,,,,,1056.647,1057.7705,a,1,0.4594,,[],[],[],[],[],[],[],0.4594,1,1057.7707,1058.2707,,,,,,299,MAS,CON,150,rumbo,,l,1058.2709,1058.271,0.11,-0.406666667,0,0,0,,0,188,188,298,1,,,,,
,,,,,,d0d619c7b6b95536d90ccb97,66a626ef09d4e21e1a8894ec,6734a0362ae2d31764b30a62,2024-11-13_13h54.52.293,Tarea de género gramatical,2024.2.2,Win32,88.49557522,,,,,,,,,,,,,,,,,,,,,,,,1058.2731,1059.7712,l,1,0.8347,,[],[],[],[],[],[],[],0.8347,1,1059.7713,1060.2705,,,,,,153,FEM,DIS,150,mujer,el,a,1060.2706,1060.2707,0.11,-0.406666667,0,0,0,,0,189,189,152,1,,,,,
,,,,,,d0d619c7b6b95536d90ccb97,66a626ef09d4e21e1a8894ec,6734a0362ae2d31764b30a62,2024-11-13_13h54.52.293,Tarea de género gramatical,2024.2.2,Win32,88.49557522,,,,,,,,,,,,,,,,,,,,,,,,1060.272,1061.7804,a,1,0.8431,,[],[],[],[],[],[],[],0.8431,1,1061.7813,1062.2732,,,,,,197,MAS,CON,150,avión,,l,1062.2733,1062.2735,0.11,-0.406666667,0,0,0,,0,190,190,196,1,,,,,
,,,,,,d0d619c7b6b95536d90ccb97,66a626ef09d4e21e1a8894ec,6734a0362ae2d31764b30a62,2024-11-13_13h54.52.293,Tarea de género gramatical,2024.2.2,Win32,88.49557522,,,,,,,,,,,,,,,,,,,,,,,,1062.2762,1063.4229,a,1,0.4792,,[],[],[],[],[],[],[],0.4792,1,1063.4233,1063.9261,,,,,,413,MAS,CON,150,diario,,l,1063.9279,1063.9304,0.11,-0.406666667,0,0,0,,0,191,191,412,1,,,,,
,,,,,,d0d619c7b6b95536d90ccb97,66a626ef09d4e21e1a8894ec,6734a0362ae2d31764b30a62,2024-11-13_13h54.52.293,Tarea de género gramatical,2024.2.2,Win32,88.49557522,,,,,,,,,,,,,,,,,,,,,,,,1063.9321,1064.9897,l,1,0.3862,,[],[],[],[],[],[],[],0.3862,1,1064.99,1065.4877,,,,,,33,FEM,DIS,150,boda,el,a,1065.4879,1065.4881,0.11,-0.406666667,0,0,0,,0,192,192,32,1,,,,,
,,,,,,d0d619c7b6b95536d90ccb97,66a626ef09d4e21e1a8894ec,6734a0362ae2d31764b30a62,2024-11-13_13h54.52.293,Tarea de género gramatical,2024.2.2,Win32,88.49557522,,,,,,,,,,,,,,,,,,,,,,,,1065.4914,1066.5268,l,1,0.3599,,[],[],[],[],[],[],[],0.3599,1,1066.527,1067.0221,,,,,,103,FEM,AGR,150,fama,la,a,1067.0223,1067.0225,0.11,-0.406666667,0,0,0,,0,193,193,102,1,,,,,
,,,,,,d0d619c7b6b95536d90ccb97,66a626ef09d4e21e1a8894ec,6734a0362ae2d31764b30a62,2024-11-13_13h54.52.293,Tarea de género gramatical,2024.2.2,Win32,88.49557522,,,,,,,,,,,,,,,,,,,,,,,,1067.0258,1068.2148,l,1,0.5265,,[],[],[],[],[],[],[],0.5265,1,1068.215,1068.7069,,,,,,236,FEM,CON,150,deuda,,a,1068.7071,1068.7074,0.11,-0.406666667,0,0,0,,0,194,194,235,1,,,,,
,,,,,,d0d619c7b6b95536d90ccb97,66a626ef09d4e21e1a8894ec,6734a0362ae2d31764b30a62,2024-11-13_13h54.52.293,Tarea de género gramatical,2024.2.2,Win32,88.49557522,,,,,,,,,,,,,,,,,,,,,,,,1068.7107,1069.9007,l,0,0.5189,,[],[],[],[],[],[],[],0.5189,0,1069.903,1070.4019,,,,,,101,MAS,CON,150,giro,,l,1070.4039,1070.4049,0.11,-0.406666667,0,0,0,,0,195,195,100,1,,,,,
,,,,,,d0d619c7b6b95536d90ccb97,66a626ef09d4e21e1a8894ec,6734a0362ae2d31764b30a62,2024-11-13_13h54.52.293,Tarea de género gramatical,2024.2.2,Win32,88.49557522,,,,,,,,,,,,,,,,,,,,,,,,1070.4066,1071.7816,a,1,0.7122,,[],[],[],[],[],[],[],0.7122,1,1071.7826,1072.2814,,,,,,214,MAS,AGR,150,fondo,el,l,1072.2815,1072.2816,0.11,-0.406666667,0,0,0,,0,196,196,213,1,,,,,
,,,,,,d0d619c7b6b95536d90ccb97,66a626ef09d4e21e1a8894ec,6734a0362ae2d31764b30a62,2024-11-13_13h54.52.293,Tarea de género gramatical,2024.2.2,Win32,88.49557522,,,,,,,,,,,,,,,,,,,,,,,,1072.2831,1073.6809,a,1,0.7347,,[],[],[],[],[],[],[],0.7347,1,1073.681,1074.1766,,,,,,222,MAS,DIS,150,valor,la,l,1074.1768,1074.1771,0.11,-0.406666667,0,0,0,,0,197,197,221,1,,,,,
,,,,,,d0d619c7b6b95536d90ccb97,66a626ef09d4e21e1a8894ec,6734a0362ae2d31764b30a62,2024-11-13_13h54.52.293,Tarea de género gramatical,2024.2.2,Win32,88.49557522,,,,,,,,,,,,,,,,,,,,,,,,1074.1802,1075.256,a,1,0.4112,,[],[],[],[],[],[],[],0.4112,1,1075.2563,1075.7551,,,,,,71,MAS,CON,150,pozo,,l,1075.7552,1075.7554,0.11,-0.406666667,0,0,0,,0,198,198,70,1,,,,,
,,,,,,d0d619c7b6b95536d90ccb97,66a626ef09d4e21e1a8894ec,6734a0362ae2d31764b30a62,2024-11-13_13h54.52.293,Tarea de género gramatical,2024.2.2,Win32,88.49557522,,,,,,,,,,,,,,,,,,,,,,,,1075.7584,1076.8362,l,1,0.4034,,[],[],[],[],[],[],[],0.4034,1,1076.8363,1077.3367,,,,,,422,FEM,CON,150,rutina,,a,1077.3368,1077.3369,0.11,-0.406666667,0,0,0,,0,199,199,421,1,,,,,
,,,,,,d0d619c7b6b95536d90ccb97,66a626ef09d4e21e1a8894ec,6734a0362ae2d31764b30a62,2024-11-13_13h54.52.293,Tarea de género gramatical,2024.2.2,Win32,88.49557522,,,,,,,,,,,,,,,,,,,,,,,,1077.3379,1078.4599,a,1,0.458,,[],[],[],[],[],[],[],0.458,1,1078.46,1078.9706,,,,,,186,MAS,DIS,150,error,la,l,1078.9733,1078.9758,0.11,-0.406666667,0,0,0,,0,200,200,185,1,,,,,
,,,,,,d0d619c7b6b95536d90ccb97,66a626ef09d4e21e1a8894ec,6734a0362ae2d31764b30a62,2024-11-13_13h54.52.293,Tarea de género gramatical,2024.2.2,Win32,88.49557522,,,,,,,,,,,,,,,,,,,,,,,,1078.977,1080.1163,a,1,0.4685,,[],[],[],[],[],[],[],0.4685,1,1080.1165,1080.6147,,,,,,287,MAS,CON,150,plato,,l,1080.6149,1080.615,0.11,-0.406666667,0,0,0,,0,201,201,286,1,,,,,
,,,,,,d0d619c7b6b95536d90ccb97,66a626ef09d4e21e1a8894ec,6734a0362ae2d31764b30a62,2024-11-13_13h54.52.293,Tarea de género gramatical,2024.2.2,Win32,88.49557522,,,,,,,,,,,,,,,,,,,,,,,,1080.6166,1081.8949,a,1,0.6138,,[],[],[],[],[],[],[],0.6138,1,1081.8955,1082.3926,,,,,,365,MAS,CON,150,código,,l,1082.3927,1082.3927,0.11,-0.406666667,0,0,0,,0,202,202,364,1,,,,,
,,,,,,d0d619c7b6b95536d90ccb97,66a626ef09d4e21e1a8894ec,6734a0362ae2d31764b30a62,2024-11-13_13h54.52.293,Tarea de género gramatical,2024.2.2,Win32,88.49557522,,,,,,,,,,,,,,,,,,,,,,,,1082.3944,1083.4601,l,1,0.3996,,[],[],[],[],[],[],[],0.3996,1,1083.4603,1083.9591,,,,,,19,FEM,AGR,150,niña,la,a,1083.9592,1083.9593,0.11,-0.406666667,0,0,0,,0,203,203,18,1,,,,,
,,,,,,d0d619c7b6b95536d90ccb97,66a626ef09d4e21e1a8894ec,6734a0362ae2d31764b30a62,2024-11-13_13h54.52.293,Tarea de género gramatical,2024.2.2,Win32,88.49557522,,,,,,,,,,,,,,,,,,,,,,,,1083.9603,1085.1823,a,1,0.5568,,[],[],[],[],[],[],[],0.5568,1,1085.1824,1085.6778,,,,,,346,MAS,AGR,150,juicio,el,l,1085.6813,1085.6823,0.11,-0.406666667,0,0,0,,0,204,204,345,1,,,,,
,,,,,,d0d619c7b6b95536d90ccb97,66a626ef09d4e21e1a8894ec,6734a0362ae2d31764b30a62,2024-11-13_13h54.52.293,Tarea de género gramatical,2024.2.2,Win32,88.49557522,,,,,,,,,,,,,,,,,,,,,,,,1085.6835,1086.826,a,0,0.4782,,[],[],[],[],[],[],[],0.4782,0,1086.8272,1087.327,,,,,,8,FEM,CON,150,idea,,a,1087.3271,1087.3272,0.11,-0.406666667,0,0,0,,0,205,205,7,1,,,,,
,,,,,,d0d619c7b6b95536d90ccb97,66a626ef09d4e21e1a8894ec,6734a0362ae2d31764b30a62,2024-11-13_13h54.52.293,Tarea de género gramatical,2024.2.2,Win32,88.49557522,,,,,,,,,,,,,,,,,,,,,,,,1087.3295,1088.4318,l,1,0.4277,,[],[],[],[],[],[],[],0.4277,1,1088.4344,1088.9256,,,,,,55,FEM,AGR,150,taza,la,a,1088.9257,1088.9258,0.11,-0.406666667,0,0,0,,0,206,206,54,1,,,,,
,,,,,,d0d619c7b6b95536d90ccb97,66a626ef09d4e21e1a8894ec,6734a0362ae2d31764b30a62,2024-11-13_13h54.52.293,Tarea de género gramatical,2024.2.2,Win32,88.49557522,,,,,,,,,,,,,,,,,,,,,,,,1088.9275,1089.9801,l,1,0.3881,,[],[],[],[],[],[],[],0.3881,1,1089.9803,1090.4816,,,,,,157,FEM,AGR,150,madre,la,a,1090.4816,1090.4818,0.11,-0.406666667,0,0,0,,0,207,207,156,1,,,,,
,,,,,,d0d619c7b6b95536d90ccb97,66a626ef09d4e21e1a8894ec,6734a0362ae2d31764b30a62,2024-11-13_13h54.52.293,Tarea de género gramatical,2024.2.2,Win32,88.49557522,,,,,,,,,,,,,,,,,,,,,,,,1090.4834,1091.6139,a,1,0.4663,,[],[],[],[],[],[],[],0.4663,1,1091.614,1092.1073,,,,,,414,MAS,DIS,150,sótano,la,l,1092.1075,1092.1078,0.11,-0.406666667,0,0,0,,0,208,208,413,1,,,,,
,,,,,,d0d619c7b6b95536d90ccb97,66a626ef09d4e21e1a8894ec,6734a0362ae2d31764b30a62,2024-11-13_13h54.52.293,Tarea de género gramatical,2024.2.2,Win32,88.49557522,,,,,,,,,,,,,,,,,,,,,,,,1092.1113,1093.6593,l,1,0.8809,,[],[],[],[],[],[],[],0.8809,1,1093.6594,1094.1524,,,,,,385,FEM,AGR,150,muñeca,la,a,1094.1546,1094.1555,0.11,-0.406666667,0,0,0,,0,209,209,384,1,,,,,
,,,,,,d0d619c7b6b95536d90ccb97,66a626ef09d4e21e1a8894ec,6734a0362ae2d31764b30a62,2024-11-13_13h54.52.293,Tarea de género gramatical,2024.2.2,Win32,88.49557522,,,,,,,,,,,,,,,,,,,,,,,,1094.1565,1095.4606,a,1,0.6352,,[],[],[],[],[],[],[],0.6352,1,1095.4607,1095.9597,,,,,,388,MAS,AGR,150,empleo,el,l,1095.9598,1095.9599,0.11,-0.406666667,0,0,0,,0,210,210,387,1,,,,,
,,,,,,d0d619c7b6b95536d90ccb97,66a626ef09d4e21e1a8894ec,6734a0362ae2d31764b30a62,2024-11-13_13h54.52.293,Tarea de género gramatical,2024.2.2,Win32,88.49557522,,,,,,,,,,,,,,,,,,,,,,,,1095.962,1097.4483,l,0,0.8223,,[],[],[],[],[],[],[],0.8223,0,1097.4494,1097.9477,,,,,,6,MAS,DIS,150,lado,la,l,1097.9477,1097.948,0.11,-0.406666667,0,0,0,,0,211,211,5,1,,,,,
,,,,,,d0d619c7b6b95536d90ccb97,66a626ef09d4e21e1a8894ec,6734a0362ae2d31764b30a62,2024-11-13_13h54.52.293,Tarea de género gramatical,2024.2.2,Win32,88.49557522,,,,,,,,,,,,,,,,,,,,,,,,1097.9496,1099.0458,l,1,0.4307,,[],[],[],[],[],[],[],0.4307,1,1099.0484,1099.5493,,,,,,13,FEM,AGR,150,hija,la,a,1099.5494,1099.5497,0.11,-0.406666667,0,0,0,,0,212,212,12,1,,,,,
,,,,,,d0d619c7b6b95536d90ccb97,66a626ef09d4e21e1a8894ec,6734a0362ae2d31764b30a62,2024-11-13_13h54.52.293,Tarea de género gramatical,2024.2.2,Win32,88.49557522,,,,,,,,,,,,,,,,,,,,,,,,1099.5522,1100.6406,a,1,0.4228,,[],[],[],[],[],[],[],0.4228,1,1100.6406,1101.1476,,,,,,396,MAS,DIS,150,tesoro,la,l,1101.1501,1101.1523,0.11,-0.406666667,0,0,0,,0,213,213,395,1,,,,,
,,,,,,d0d619c7b6b95536d90ccb97,66a626ef09d4e21e1a8894ec,6734a0362ae2d31764b30a62,2024-11-13_13h54.52.293,Tarea de género gramatical,2024.2.2,Win32,88.49557522,,,,,,,,,,,,,,,,,,,,,,,,1101.154,1102.3045,a,1,0.4787,,[],[],[],[],[],[],[],0.4787,1,1102.3046,1102.8036,,,,,,311,MAS,CON,150,camino,,l,1102.8037,1102.804,0.11,-0.406666667,0,0,0,,0,214,214,310,1,,,,,
,,,,,,d0d619c7b6b95536d90ccb97,66a626ef09d4e21e1a8894ec,6734a0362ae2d31764b30a62,2024-11-13_13h54.52.293,Tarea de género gramatical,2024.2.2,Win32,88.49557522,,,,,,,,,,,,,,,,,,,,,,,,1102.8062,1103.9711,l,1,0.497,,[],[],[],[],[],[],[],0.497,1,1103.9712,1104.4699,,,,,,345,FEM,DIS,150,pierna,el,a,1104.47,1104.47,0.11,-0.406666667,0,0,0,,0,215,215,344,1,,,,,
,,,,,,d0d619c7b6b95536d90ccb97,66a626ef09d4e21e1a8894ec,6734a0362ae2d31764b30a62,2024-11-13_13h54.52.293,Tarea de género gramatical,2024.2.2,Win32,88.49557522,,,,,,,,,,,,,,,,,,,,,,,,1104.4717,1105.5708,a,1,0.4344,,[],[],[],[],[],[],[],0.4344,1,1105.5709,1106.071,,,,,,148,MAS,AGR,150,surf,el,l,1106.0711,1106.0712,0.11,-0.406666667,0,0,0,,0,216,216,147,1,,,,,
,,,,,,d0d619c7b6b95536d90ccb97,66a626ef09d4e21e1a8894ec,6734a0362ae2d31764b30a62,2024-11-13_13h54.52.293,Tarea de género gramatical,2024.2.2,Win32,88.49557522,,,,,,,,,,,,,,,,,,,,,,,,1106.0734,1107.171,l,1,0.4345,,[],[],[],[],[],[],[],0.4345,1,1107.1711,1107.6667,,,,,,266,FEM,CON,150,jaula,,a,1107.6668,1107.6672,0.11,-0.406666667,0,0,0,,0,217,217,265,1,,,,,
,,,,,,d0d619c7b6b95536d90ccb97,66a626ef09d4e21e1a8894ec,6734a0362ae2d31764b30a62,2024-11-13_13h54.52.293,Tarea de género gramatical,2024.2.2,Win32,88.49557522,,,,,,,,,,,,,,,,,,,,,,,,1107.6701,1108.8601,l,1,0.5236,,[],[],[],[],[],[],[],0.5236,1,1108.8602,1109.359,,,,,,230,FEM,CON,150,regla,,a,1109.3609,1109.3626,0.11,-0.406666667,0,0,0,,0,218,218,229,1,,,,,
,,,,,,d0d619c7b6b95536d90ccb97,66a626ef09d4e21e1a8894ec,6734a0362ae2d31764b30a62,2024-11-13_13h54.52.293,Tarea de género gramatical,2024.2.2,Win32,88.49557522,,,,,,,,,,,,,,,,,,,,,,,,1109.3652,1110.3578,l,1,0.3366,,[],[],[],[],[],[],[],0.3366,1,1110.3578,1110.8592,,,,,,241,FEM,AGR,150,pasta,la,a,1110.8593,1110.8596,0.11,-0.406666667,0,0,0,,0,219,219,240,1,,,,,
,,,,,,d0d619c7b6b95536d90ccb97,66a626ef09d4e21e1a8894ec,6734a0362ae2d31764b30a62,2024-11-13_13h54.52.293,Tarea de género gramatical,2024.2.2,Win32,88.49557522,,,,,,,,,,,,,,,,,,,,,,,,1110.8618,1111.8148,l,1,0.2818,,[],[],[],[],[],[],[],0.2818,1,1111.8149,1112.3144,,,,,,68,FEM,CON,150,pata,,a,1112.3144,1112.3146,0.11,-0.406666667,0,0,0,,0,220,220,67,1,,,,,
,,,,,,d0d619c7b6b95536d90ccb97,66a626ef09d4e21e1a8894ec,6734a0362ae2d31764b30a62,2024-11-13_13h54.52.293,Tarea de género gramatical,2024.2.2,Win32,88.49557522,,,,,,,,,,,,,,,,,,,,,,,,1112.3156,1113.4824,l,1,0.5014,,[],[],[],[],[],[],[],0.5014,1,1113.4824,1113.9813,,,,,,127,FEM,AGR,150,cuna,la,a,1113.9814,1113.9815,0.11,-0.406666667,0,0,0,,0,221,221,126,1,,,,,
,,,,,,d0d619c7b6b95536d90ccb97,66a626ef09d4e21e1a8894ec,6734a0362ae2d31764b30a62,2024-11-13_13h54.52.293,Tarea de género gramatical,2024.2.2,Win32,88.49557522,,,,,,,,,,,,,,,,,,,,,,,,1113.9828,1115.0234,a,1,0.3786,,[],[],[],[],[],[],[],0.3786,1,1115.0239,1115.5156,,,,,,275,MAS,CON,150,disco,,l,1115.5179,1115.5206,0.11,-0.406666667,0,0,0,,0,222,222,274,1,,,,,
,,,,,,d0d619c7b6b95536d90ccb97,66a626ef09d4e21e1a8894ec,6734a0362ae2d31764b30a62,2024-11-13_13h54.52.293,Tarea de género gramatical,2024.2.2,Win32,88.49557522,,,,,,,,,,,,,,,,,,,,,,,,1115.5218,1116.5822,l,1,0.3949,,[],[],[],[],[],[],[],0.3949,1,1116.5822,1117.0783,,,,,,171,FEM,DIS,150,mitad,el,a,1117.0785,1117.0788,0.11,-0.406666667,0,0,0,,0,223,223,170,1,,,,,
,,,,,,d0d619c7b6b95536d90ccb97,66a626ef09d4e21e1a8894ec,6734a0362ae2d31764b30a62,2024-11-13_13h54.52.293,Tarea de género gramatical,2024.2.2,Win32,88.49557522,,,,,,,,,,,,,,,,,,,,,,,,1117.0819,1118.1089,l,1,0.3597,,[],[],[],[],[],[],[],0.3597,1,1118.1093,1118.6034,,,,,,296,FEM,CON,150,feria,,a,1118.6034,1118.6036,0.11,-0.406666667,0,0,0,,0,224,224,295,1,,,,,
,,,,,,d0d619c7b6b95536d90ccb97,66a626ef09d4e21e1a8894ec,6734a0362ae2d31764b30a62,2024-11-13_13h54.52.293,Tarea de género gramatical,2024.2.2,Win32,88.49557522,,,,,,,,,,,,,,,,,,,,,,,,1118.605,1119.7929,a,1,0.526,,[],[],[],[],[],[],[],0.526,1,1119.793,1120.2923,,,,,,16,MAS,AGR,150,baño,el,l,1120.2923,1120.2925,0.11,-0.406666667,0,0,0,,0,225,225,15,1,,,,,
,,,,,,d0d619c7b6b95536d90ccb97,66a626ef09d4e21e1a8894ec,6734a0362ae2d31764b30a62,2024-11-13_13h54.52.293,Tarea de género gramatical,2024.2.2,Win32,88.49557522,,,,,,,,,,,,,,,,,,,,,,,,1120.2941,1121.7306,l,1,0.7703,,[],[],[],[],[],[],[],0.7703,1,1121.7311,1122.2315,,,,,,122,FEM,CON,150,loca,,a,1122.2317,1122.2322,0.11,-0.406666667,0,0,0,,0,226,226,121,1,,,,,
,,,,,,d0d619c7b6b95536d90ccb97,66a626ef09d4e21e1a8894ec,6734a0362ae2d31764b30a62,2024-11-13_13h54.52.293,Tarea de género gramatical,2024.2.2,Win32,88.49557522,,,,,,,,,,,,,,,,,,,,,,,,1122.2353,1123.3931,a,1,0.4899,,[],[],[],[],[],[],[],0.4899,1,1123.3932,1123.8925,,,,,,203,MAS,CON,150,novio,,l,1123.8941,1123.8963,0.11,-0.406666667,0,0,0,,0,227,227,202,1,,,,,
,,,,,,d0d619c7b6b95536d90ccb97,66a626ef09d4e21e1a8894ec,6734a0362ae2d31764b30a62,2024-11-13_13h54.52.293,Tarea de género gramatical,2024.2.2,Win32,88.49557522,,,,,,,,,,,,,,,,,,,,,,,,1123.8986,1125.0267,a,1,0.4672,,[],[],[],[],[],[],[],0.4672,1,1125.0268,1125.5261,,,,,,359,MAS,CON,150,bosque,,l,1125.5262,1125.5264,0.11,-0.406666667,0,0,0,,0,228,228,358,1,,,,,
,,,,,,d0d619c7b6b95536d90ccb97,66a626ef09d4e21e1a8894ec,6734a0362ae2d31764b30a62,2024-11-13_13h54.52.293,Tarea de género gramatical,2024.2.2,Win32,88.49557522,,,,,,,,,,,,,,,,,,,,,,,,1125.5283,1126.6938,l,1,0.5017,,[],[],[],[],[],[],[],0.5017,1,1126.6939,1127.1967,,,,,,255,FEM,DIS,150,tribu,el,a,1127.197,1127.1973,0.11,-0.406666667,0,0,0,,0,229,229,254,1,,,,,
,,,,,,d0d619c7b6b95536d90ccb97,66a626ef09d4e21e1a8894ec,6734a0362ae2d31764b30a62,2024-11-13_13h54.52.293,Tarea de género gramatical,2024.2.2,Win32,88.49557522,,,,,,,,,,,,,,,,,,,,,,,,1127.1994,1128.2599,l,1,0.3901,,[],[],[],[],[],[],[],0.3901,1,1128.26,1128.7557,,,,,,331,FEM,AGR,150,cárcel,la,a,1128.7559,1128.7562,0.11,-0.406666667,0,0,0,,0,230,230,330,1,,,,,
,,,,,,d0d619c7b6b95536d90ccb97,66a626ef09d4e21e1a8894ec,6734a0362ae2d31764b30a62,2024-11-13_13h54.52.293,Tarea de género gramatical,2024.2.2,Win32,88.49557522,,,,,,,,,,,,,,,,,,,,,,,,1128.7593,1130.1484,a,1,0.7231,,[],[],[],[],[],[],[],0.7231,1,1130.1485,1130.6476,,,,,,274,MAS,AGR,150,motor,el,l,1130.6496,1130.6513,0.11,-0.406666667,0,0,0,,0,231,231,273,1,,,,,
,,,,,,d0d619c7b6b95536d90ccb97,66a626ef09d4e21e1a8894ec,6734a0362ae2d31764b30a62,2024-11-13_13h54.52.293,Tarea de género gramatical,2024.2.2,Win32,88.49557522,,,,,,,,,,,,,,,,,,,,,,,,1130.6539,1131.8489,a,1,0.5345,,[],[],[],[],[],[],[],0.5345,1,1131.849,1132.3442,,,,,,11,MAS,CON,150,país,,l,1132.3444,1132.345,0.11,-0.406666667,0,0,0,,0,232,232,10,1,,,,,
,,,,,,d0d619c7b6b95536d90ccb97,66a626ef09d4e21e1a8894ec,6734a0362ae2d31764b30a62,2024-11-13_13h54.52.293,Tarea de género gramatical,2024.2.2,Win32,88.49557522,,,,,,,,,,,,,,,,,,,,,,,,1132.3479,1133.4266,a,1,0.4118,,[],[],[],[],[],[],[],0.4118,1,1133.4268,1133.9262,,,,,,430,MAS,AGR,150,título,el,l,1133.9263,1133.9264,0.11,-0.406666667,0,0,0,,0,233,233,429,1,,,,,
,,,,,,d0d619c7b6b95536d90ccb97,66a626ef09d4e21e1a8894ec,6734a0362ae2d31764b30a62,2024-11-13_13h54.52.293,Tarea de género gramatical,2024.2.2,Win32,88.49557522,,,,,,,,,,,,,,,,,,,,,,,,1133.9283,1135.0158,l,1,0.4161,,[],[],[],[],[],[],[],0.4161,1,1135.016,1135.521,,,,,,361,FEM,AGR,150,oferta,la,a,1135.5211,1135.5214,0.11,-0.406666667,0,0,0,,0,234,234,360,1,,,,,
,,,,,,d0d619c7b6b95536d90ccb97,66a626ef09d4e21e1a8894ec,6734a0362ae2d31764b30a62,2024-11-13_13h54.52.293,Tarea de género gramatical,2024.2.2,Win32,88.49557522,,,,,,,,,,,,,,,,,,,,,,,,1135.5244,1136.6664,a,1,0.4835,,[],[],[],[],[],[],[],0.4835,1,1136.6667,1137.159,,,,,,29,MAS,CON,150,frío,,l,1137.1592,1137.1593,0.11,-0.406666667,0,0,0,,0,235,235,28,1,,,,,
,,,,,,d0d619c7b6b95536d90ccb97,66a626ef09d4e21e1a8894ec,6734a0362ae2d31764b30a62,2024-11-13_13h54.52.293,Tarea de género gramatical,2024.2.2,Win32,88.49557522,,,,,,,,,,,,,,,,,,,,,,,,1137.1606,1138.3776,a,1,0.5513,,[],[],[],[],[],[],[],0.5513,1,1138.3781,1138.8705,,,,,,136,MAS,AGR,150,vago,el,l,1138.8724,1138.8745,0.11,-0.406666667,0,0,0,,0,236,236,135,1,,,,,
,,,,,,d0d619c7b6b95536d90ccb97,66a626ef09d4e21e1a8894ec,6734a0362ae2d31764b30a62,2024-11-13_13h54.52.293,Tarea de género gramatical,2024.2.2,Win32,88.49557522,,,,,,,,,,,,,,,,,,,,,,,,1138.8766,1139.9359,a,1,0.402,,[],[],[],[],[],[],[],0.402,1,1139.9363,1140.433,,,,,,341,MAS,CON,150,precio,,l,1140.4333,1140.4336,0.11,-0.406666667,0,0,0,,0,237,237,340,1,,,,,
,,,,,,d0d619c7b6b95536d90ccb97,66a626ef09d4e21e1a8894ec,6734a0362ae2d31764b30a62,2024-11-13_13h54.52.293,Tarea de género gramatical,2024.2.2,Win32,88.49557522,,,,,,,,,,,,,,,,,,,,,,,,1140.4367,1141.4785,l,1,0.3746,,[],[],[],[],[],[],[],0.3746,1,1141.479,1141.9796,,,,,,175,FEM,AGR,150,señal,la,a,1141.9796,1141.9797,0.11,-0.406666667,0,0,0,,0,238,238,174,1,,,,,
,,,,,,d0d619c7b6b95536d90ccb97,66a626ef09d4e21e1a8894ec,6734a0362ae2d31764b30a62,2024-11-13_13h54.52.293,Tarea de género gramatical,2024.2.2,Win32,88.49557522,,,,,,,,,,,,,,,,,,,,,,,,1141.9806,1142.9935,a,1,0.3494,,[],[],[],[],[],[],[],0.3494,1,1142.9935,1143.492,,,,,,442,MAS,AGR,150,cuadro,el,l,1143.4921,1143.4925,0.11,-0.406666667,0,0,0,,0,239,239,441,1,,,,,
,,,,,,d0d619c7b6b95536d90ccb97,66a626ef09d4e21e1a8894ec,6734a0362ae2d31764b30a62,2024-11-13_13h54.52.293,Tarea de género gramatical,2024.2.2,Win32,88.49557522,,,,,,,,,,,,,,,,,,,,,,,,1143.4957,1144.7177,a,1,0.5579,,[],[],[],[],[],[],[],0.5579,1,1144.7181,1145.2105,,,,,,238,MAS,AGR,150,norte,el,l,1145.2144,1145.2154,0.11,-0.406666667,0,0,0,,0,240,240,237,1,,,,,
,,,,,,d0d619c7b6b95536d90ccb97,66a626ef09d4e21e1a8894ec,6734a0362ae2d31764b30a62,2024-11-13_13h54.52.293,Tarea de género gramatical,2024.2.2,Win32,88.49557522,,,,,,,,,,,,,,,,,,,,,,,,1145.2173,1146.3607,l,1,0.4798,,[],[],[],[],[],[],[],0.4798,1,1146.361,1146.859,,,,,,367,FEM,AGR,150,teoría,la,a,1146.859,1146.8592,0.11,-0.406666667,0,0,0,,0,241,241,366,1,,,,,
,,,,,,d0d619c7b6b95536d90ccb97,66a626ef09d4e21e1a8894ec,6734a0362ae2d31764b30a62,2024-11-13_13h54.52.293,Tarea de género gramatical,2024.2.2,Win32,88.49557522,,,,,,,,,,,,,,,,,,,,,,,,1146.8613,1147.9819,a,0,0.4597,,[],[],[],[],[],[],[],0.4597,0,1147.983,1148.4812,,,,,,265,FEM,AGR,150,rueda,la,a,1148.4814,1148.4815,0.11,-0.406666667,0,0,0,,0,242,242,264,1,,,,,
,,,,,,d0d619c7b6b95536d90ccb97,66a626ef09d4e21e1a8894ec,6734a0362ae2d31764b30a62,2024-11-13_13h54.52.293,Tarea de género gramatical,2024.2.2,Win32,88.49557522,,,,,,,,,,,,,,,,,,,,,,,,1148.4832,1149.6935,a,1,0.5456,,[],[],[],[],[],[],[],0.5456,1,1149.695,1150.1922,,,,,,40,MAS,AGR,150,dios,el,l,1150.1923,1150.1925,0.11,-0.406666667,0,0,0,,0,243,243,39,1,,,,,
,,,,,,d0d619c7b6b95536d90ccb97,66a626ef09d4e21e1a8894ec,6734a0362ae2d31764b30a62,2024-11-13_13h54.52.293,Tarea de género gramatical,2024.2.2,Win32,88.49557522,,,,,,,,,,,,,,,,,,,,,,,,1150.1942,1151.4474,l,0,0.5944,,[],[],[],[],[],[],[],0.5944,0,1151.4486,1151.9463,,,,,,234,MAS,DIS,150,héroe,la,l,1151.9464,1151.9465,0.11,-0.406666667,0,0,0,,0,244,244,233,1,,,,,
,,,,,,d0d619c7b6b95536d90ccb97,66a626ef09d4e21e1a8894ec,6734a0362ae2d31764b30a62,2024-11-13_13h54.52.293,Tarea de género gramatical,2024.2.2,Win32,88.49557522,,,,,,,,,,,,,,,,,,,,,,,,1151.9479,1153.0699,a,1,0.4553,,[],[],[],[],[],[],[],0.4553,1,1153.0711,1153.5683,,,,,,179,MAS,CON,150,viaje,,l,1153.5704,1153.5714,0.11,-0.406666667,0,0,0,,0,245,245,178,1,,,,,
,,,,,,d0d619c7b6b95536d90ccb97,66a626ef09d4e21e1a8894ec,6734a0362ae2d31764b30a62,2024-11-13_13h54.52.293,Tarea de género gramatical,2024.2.2,Win32,88.49557522,,,,,,,,,,,,,,,,,,,,,,,,1153.5728,1154.6823,l,0,0.4345,,[],[],[],[],[],[],[],0.4345,0,1154.6837,1155.1815,,,,,,312,MAS,DIS,150,equipo,la,l,1155.1815,1155.1817,0.11,-0.406666667,0,0,0,,0,246,246,311,1,,,,,
,,,,,,d0d619c7b6b95536d90ccb97,66a626ef09d4e21e1a8894ec,6734a0362ae2d31764b30a62,2024-11-13_13h54.52.293,Tarea de género gramatical,2024.2.2,Win32,88.49557522,,,,,,,,,,,,,,,,,,,,,,,,1155.183,1156.3934,l,1,0.5456,,[],[],[],[],[],[],[],0.5456,1,1156.3944,1156.8921,,,,,,307,FEM,AGR,150,suerte,la,a,1156.8921,1156.8924,0.11,-0.406666667,0,0,0,,0,247,247,306,1,,,,,
,,,,,,d0d619c7b6b95536d90ccb97,66a626ef09d4e21e1a8894ec,6734a0362ae2d31764b30a62,2024-11-13_13h54.52.293,Tarea de género gramatical,2024.2.2,Win32,88.49557522,,,,,,,,,,,,,,,,,,,,,,,,1156.8938,1158.0278,a,1,0.4737,,[],[],[],[],[],[],[],0.4737,1,1158.0279,1158.523,,,,,,84,MAS,DIS,150,mago,la,l,1158.5232,1158.5235,0.11,-0.406666667,0,0,0,,0,248,248,83,1,,,,,
,,,,,,d0d619c7b6b95536d90ccb97,66a626ef09d4e21e1a8894ec,6734a0362ae2d31764b30a62,2024-11-13_13h54.52.293,Tarea de género gramatical,2024.2.2,Win32,88.49557522,,,,,,,,,,,,,,,,,,,,,,,,1158.5268,1159.7155,a,1,0.5215,,[],[],[],[],[],[],[],0.5215,1,1159.7156,1160.2152,,,,,,306,MAS,DIS,150,dinero,la,l,1160.2175,1160.2199,0.11,-0.406666667,0,0,0,,0,249,249,305,1,,,,,
,,,,,,d0d619c7b6b95536d90ccb97,66a626ef09d4e21e1a8894ec,6734a0362ae2d31764b30a62,2024-11-13_13h54.52.293,Tarea de género gramatical,2024.2.2,Win32,88.49557522,,,,,,,,,,,,,,,,,,,,,,,,1160.2217,1161.537,l,1,0.6448,,[],[],[],[],[],[],[],0.6448,1,1161.5372,1162.0374,,,,,,313,FEM,AGR,150,ciudad,la,a,1162.0375,1162.0377,0.11,-0.406666667,0,0,0,,0,250,250,312,1,,,,,
