counterbalancing_condition,consent_prescreening.block_1/declare_consent,consent_prescreening.block_1/age_years,consent_prescreening.block_1/gender,consent_prescreening.block_1/language_disorder,consent_prescreening.block_1/first_language,PROLIFIC_PID,STUDY_ID,SESSION_ID,date,expName,psychopyVersion,OS,frameRate,check_prescreening_answers.started,check_prescreening_answers.stopped,Instructions.started,Instructions.stopped,instr_done_keyboard.keys,instr_done_keyboard.rt,instr_done_keyboard.duration,instr_done_touch.x,instr_done_touch.y,instr_done_touch.leftButton,instr_done_touch.midButton,instr_done_touch.rightButton,instruction_pages.thisRepN,instruction_pages.thisTrialN,instruction_pages.thisN,instruction_pages.thisIndex,instruction_pages.ran,pageN,phase,instruct_text,has_image,instruct_image,presentTrial.started,presentTrial.stopped,response.keys,response.corr,touch_resp.x,touch_resp.y,touch_resp.leftButton,touch_resp.midButton,touch_resp.rightButton,touch_resp.time,touch_resp.clicked_name,rt,corr,feedback.started,feedback.stopped,practice_trials.thisRepN,practice_trials.thisTrialN,practice_trials.thisN,practice_trials.thisIndex,practice_trials.ran,TrialID,StimulusType,Condition,PrimeDuration,Prime,Flanker,corrAns,response.rt,response.duration,Break.started,Break.stopped,break_done_touch.x,break_done_touch.y,break_done_touch.leftButton,break_done_touch.midButton,break_done_touch.rightButton,break_done_keyboard.keys,experiment_trials.thisRepN,experiment_trials.thisTrialN,experiment_trials.thisN,experiment_trials.thisIndex,experiment_trials.ran,break_done_touch.clicked_name,break_done_keyboard.rt,break_done_keyboard.duration,End.started,End.stopped
2,"[""over_18"",""comfortable"",""read_info"",""consent_given""]",48,M,"[""none""]","[""spanish""]",d3c51f78bdd2b77f97ae4abd,66a626ef09d4e21e1a8894ec,6734a00c540c828f442d3a93,2024-11-13_13h48.40.960,Tarea de género gramatical,2024.2.2,Win32,59.88023952,,,,,,,,,,,,,,,,,,,,,,,,,,,,,,,,,,,,,,,,,,,,,,,,,,,,,,,,,,,,,,,,,,,,,
,,,,,,d3c51f78bdd2b77f97ae4abd,66a626ef09d4e21e1a8894ec,6734a00c540c828f442d3a93,2024-11-13_13h48.40.960,Tarea de género gramatical,2024.2.2,Win32,59.88023952,40.608,40.6082,,,,,,,,,,,,,,,,,,,,,,,,,,,,,,,,,,,,,,,,,,,,,,,,,,,,,,,,,,,,,,,,,,,
,,,,,,d3c51f78bdd2b77f97ae4abd,66a626ef09d4e21e1a8894ec,6734a00c540c828f442d3a93,2024-11-13_13h48.40.960,Tarea de género gramatical,2024.2.2,Win32,59.88023952,,,40.6308,55.4884,space,14.7537,,-0.018229167,-0.173177083,0,0,0,0,0,0,0,1,1,instructions,"INSTRUCCIONES
Va a realizar una prueba de selección gramatical. Desde el comienzo de la prueba mire siempre al centro de la pantalla. Al cabo de un momento, aparecerán palabras. La tarea consiste en determinar si la palabra del centro (siempre será un sustantivo), pertenece al género masculino o femenino.

Pulse la tecla ESPACIO o toque el botón de abajo para continuar.",0,keyboardresponseMF.png,,,,,,,,,,,,,,,,,,,,,,,,,,,,,,,,,,,,,,,,,,,,,,,
,,,,,,d3c51f78bdd2b77f97ae4abd,66a626ef09d4e21e1a8894ec,6734a00c540c828f442d3a93,2024-11-13_13h48.40.960,Tarea de género gramatical,2024.2.2,Win32,59.88023952,,,55.506,70.653,space,15.07,,-0.018229167,-0.173177083,0,0,0,0,1,1,1,1,2,instructions,"Si su dispositivo tiene teclado, pulse la tecla ""A"" para las palabras en masculino (por ejemplo: ""arroz"") y la tecla ""L"" para las palabras en femenino (por ejemplo: ""mano"").
Pulse la tecla ESPACIO o toque el botón de abajo para continuar.",1,keyboardresponseMF.png,,,,,,,,,,,,,,,,,,,,,,,,,,,,,,,,,,,,,,,,,,,,,,,
,,,,,,d3c51f78bdd2b77f97ae4abd,66a626ef09d4e21e1a8894ec,6734a00c540c828f442d3a93,2024-11-13_13h48.40.960,Tarea de género gramatical,2024.2.2,Win32,59.88023952,,,70.6554,77.9451,space,7.224,,-0.018229167,-0.173177083,0,0,0,0,2,2,2,1,3,instructions,"Si utiliza un dispositivo sólo táctil, colóquelo en horizontal y utilice los botones de la pantalla. No utilice el ratón.
Pulse la tecla ESPACIO o toque el botón de abajo para continuar.",2,touchresponseMF.png,,,,,,,,,,,,,,,,,,,,,,,,,,,,,,,,,,,,,,,,,,,,,,,
,,,,,,d3c51f78bdd2b77f97ae4abd,66a626ef09d4e21e1a8894ec,6734a00c540c828f442d3a93,2024-11-13_13h48.40.960,Tarea de género gramatical,2024.2.2,Win32,59.88023952,,,77.949,89.6698,space,11.6806,,-0.018229167,-0.173177083,0,0,0,0,3,3,3,1,4,instructions,"Es muy importante que responda con la mayor rapidez y precisión posibles, ya que cada cadena de letras sólo estará en pantalla durante un instante. Si no responde en ese tiempo, aparecerá el mensaje ""Muy lento"" y el experimento pasará a la siguiente palabra. Los primeros 15 intentos serán de práctica y habrá dos descansos durante la prueba.
Pulse la tecla ESPACIO o toque el botón de abajo para iniciar la parte de práctica.",0,keyboardresponseMF.png,,,,,,,,,,,,,,,,,,,,,,,,,,,,,,,,,,,,,,,,,,,,,,,
,,,,,,d3c51f78bdd2b77f97ae4abd,66a626ef09d4e21e1a8894ec,6734a00c540c828f442d3a93,2024-11-13_13h48.40.960,Tarea de género gramatical,2024.2.2,Win32,59.88023952,,,,,,,,,,,,,,,,,,,,,,,89.7021,92.3449,,0,[],[],[],[],[],[],[],,-1,92.3453,92.8343,0,0,0,2,1,2003,FEM,DIS,150,daga,el,a,,,,,,,,,,,,,,,,,,,,
,,,,,,d3c51f78bdd2b77f97ae4abd,66a626ef09d4e21e1a8894ec,6734a00c540c828f442d3a93,2024-11-13_13h48.40.960,Tarea de género gramatical,2024.2.2,Win32,59.88023952,,,,,,,,,,,,,,,,,,,,,,,92.8359,94.3862,a,1,[],[],[],[],[],[],[],0.8875,1,94.4271,94.874,0,1,1,10,1,2011,MAS,CON,150,canal,,l,0.8875,,,,,,,,,,,,,,,,,,,
,,,,,,d3c51f78bdd2b77f97ae4abd,66a626ef09d4e21e1a8894ec,6734a00c540c828f442d3a93,2024-11-13_13h48.40.960,Tarea de género gramatical,2024.2.2,Win32,59.88023952,,,,,,,,,,,,,,,,,,,,,,,94.8755,96.6299,l,0,[],[],[],[],[],[],[],1.0874,0,96.6314,97.1311,0,2,2,12,1,2013,MAS,AGR,150,acero,el,l,1.0874,,,,,,,,,,,,,,,,,,,
,,,,,,d3c51f78bdd2b77f97ae4abd,66a626ef09d4e21e1a8894ec,6734a00c540c828f442d3a93,2024-11-13_13h48.40.960,Tarea de género gramatical,2024.2.2,Win32,59.88023952,,,,,,,,,,,,,,,,,,,,,,,97.1332,99.1892,l,0,[],[],[],[],[],[],[],1.3885,0,99.1893,99.7065,0,3,3,8,1,2009,MAS,DIS,150,puerto,la,l,1.3885,,,,,,,,,,,,,,,,,,,
,,,,,,d3c51f78bdd2b77f97ae4abd,66a626ef09d4e21e1a8894ec,6734a00c540c828f442d3a93,2024-11-13_13h48.40.960,Tarea de género gramatical,2024.2.2,Win32,59.88023952,,,,,,,,,,,,,,,,,,,,,,,99.7078,101.4607,l,1,[],[],[],[],[],[],[],1.0703,1,101.4618,101.9613,0,4,4,1,1,2002,FEM,CON,150,pala,,a,1.0703,,,,,,,,,,,,,,,,,,,
,,,,,,d3c51f78bdd2b77f97ae4abd,66a626ef09d4e21e1a8894ec,6734a00c540c828f442d3a93,2024-11-13_13h48.40.960,Tarea de género gramatical,2024.2.2,Win32,59.88023952,,,,,,,,,,,,,,,,,,,,,,,101.9634,103.4674,l,1,[],[],[],[],[],[],[],0.8361,1,103.4676,103.9697,0,5,5,7,1,2008,FEM,CON,150,siesta,,a,0.8361,,,,,,,,,,,,,,,,,,,
,,,,,,d3c51f78bdd2b77f97ae4abd,66a626ef09d4e21e1a8894ec,6734a00c540c828f442d3a93,2024-11-13_13h48.40.960,Tarea de género gramatical,2024.2.2,Win32,59.88023952,,,,,,,,,,,,,,,,,,,,,,,103.9708,105.725,a,0,[],[],[],[],[],[],[],1.0873,0,105.7258,106.2273,0,6,6,5,1,2006,FEM,DIS,150,serie,el,a,1.0873,,,,,,,,,,,,,,,,,,,
,,,,,,d3c51f78bdd2b77f97ae4abd,66a626ef09d4e21e1a8894ec,6734a00c540c828f442d3a93,2024-11-13_13h48.40.960,Tarea de género gramatical,2024.2.2,Win32,59.88023952,,,,,,,,,,,,,,,,,,,,,,,106.2286,108.2009,a,0,[],[],[],[],[],[],[],1.3041,0,108.2011,108.7017,0,7,7,0,1,2001,FEM,AGR,150,nuca,la,a,1.3041,,,,,,,,,,,,,,,,,,,
,,,,,,d3c51f78bdd2b77f97ae4abd,66a626ef09d4e21e1a8894ec,6734a00c540c828f442d3a93,2024-11-13_13h48.40.960,Tarea de género gramatical,2024.2.2,Win32,59.88023952,,,,,,,,,,,,,,,,,,,,,,,108.7031,109.8234,l,1,[],[],[],[],[],[],[],0.4352,1,109.8242,110.3191,0,8,8,6,1,2007,FEM,AGR,150,navaja,la,a,0.4352,,,,,,,,,,,,,,,,,,,
,,,,,,d3c51f78bdd2b77f97ae4abd,66a626ef09d4e21e1a8894ec,6734a00c540c828f442d3a93,2024-11-13_13h48.40.960,Tarea de género gramatical,2024.2.2,Win32,59.88023952,,,,,,,,,,,,,,,,,,,,,,,110.3204,111.6006,a,1,[],[],[],[],[],[],[],0.607,1,111.6007,112.1007,0,9,9,9,1,2010,MAS,AGR,150,vecino,el,l,0.607,,,,,,,,,,,,,,,,,,,
,,,,,,d3c51f78bdd2b77f97ae4abd,66a626ef09d4e21e1a8894ec,6734a00c540c828f442d3a93,2024-11-13_13h48.40.960,Tarea de género gramatical,2024.2.2,Win32,59.88023952,,,,,,,,,,,,,,,,,,,,,,,112.1017,113.9995,a,1,[],[],[],[],[],[],[],1.2341,1,113.9996,114.5055,0,10,10,13,1,2014,MAS,CON,150,siglo,,l,1.2341,,,,,,,,,,,,,,,,,,,
,,,,,,d3c51f78bdd2b77f97ae4abd,66a626ef09d4e21e1a8894ec,6734a00c540c828f442d3a93,2024-11-13_13h48.40.960,Tarea de género gramatical,2024.2.2,Win32,59.88023952,,,,,,,,,,,,,,,,,,,,,,,114.5065,115.8366,l,1,[],[],[],[],[],[],[],0.6447,1,115.8368,116.3328,0,11,11,4,1,2005,FEM,CON,150,placa,,a,0.6447,,,,,,,,,,,,,,,,,,,
,,,,,,d3c51f78bdd2b77f97ae4abd,66a626ef09d4e21e1a8894ec,6734a00c540c828f442d3a93,2024-11-13_13h48.40.960,Tarea de género gramatical,2024.2.2,Win32,59.88023952,,,,,,,,,,,,,,,,,,,,,,,116.3337,117.7838,l,1,[],[],[],[],[],[],[],0.7848,1,117.7839,118.2867,0,12,12,3,1,2004,FEM,AGR,150,venta,la,a,0.7848,,,,,,,,,,,,,,,,,,,
,,,,,,d3c51f78bdd2b77f97ae4abd,66a626ef09d4e21e1a8894ec,6734a00c540c828f442d3a93,2024-11-13_13h48.40.960,Tarea de género gramatical,2024.2.2,Win32,59.88023952,,,,,,,,,,,,,,,,,,,,,,,118.2881,120.1455,l,0,[],[],[],[],[],[],[],1.1733,0,120.1464,120.6451,0,13,13,14,1,2015,MAS,DIS,150,robot,la,l,1.1733,,,,,,,,,,,,,,,,,,,
,,,,,,d3c51f78bdd2b77f97ae4abd,66a626ef09d4e21e1a8894ec,6734a00c540c828f442d3a93,2024-11-13_13h48.40.960,Tarea de género gramatical,2024.2.2,Win32,59.88023952,,,,,,,,,,,,,,,,,,,,,,,120.6476,122.2496,a,1,[],[],[],[],[],[],[],0.9208,1,122.2505,122.7512,0,14,14,11,1,2012,MAS,DIS,150,clima,la,l,0.9208,,,,,,,,,,,,,,,,,,,
,,,,,,d3c51f78bdd2b77f97ae4abd,66a626ef09d4e21e1a8894ec,6734a00c540c828f442d3a93,2024-11-13_13h48.40.960,Tarea de género gramatical,2024.2.2,Win32,59.88023952,,,127.2228,135.0644,space,7.8099,,-0.018229167,-0.173177083,0,0,0,,,,,,,,,,,135.1176,137.1174,a,1,[],[],[],[],[],[],[],1.3206,1,137.1175,137.6199,,,,,,1246,MAS,DIS,150,juicio,la,l,1.3206,,137.6203,137.625,-0.018229167,-0.173177083,0,0,0,,0,0,0,345,1,,,,,
,,,,,,d3c51f78bdd2b77f97ae4abd,66a626ef09d4e21e1a8894ec,6734a00c540c828f442d3a93,2024-11-13_13h48.40.960,Tarea de género gramatical,2024.2.2,Win32,59.88023952,,,,,,,,,,,,,,,,,,,,,,,137.6268,139.0883,l,1,[],[],[],[],[],[],[],0.7869,1,139.0885,139.5896,,,,,,944,FEM,AGR,150,zona,la,a,0.7869,,139.5898,139.5899,-0.018229167,-0.173177083,0,0,0,,0,1,1,43,1,,,,,
,,,,,,d3c51f78bdd2b77f97ae4abd,66a626ef09d4e21e1a8894ec,6734a00c540c828f442d3a93,2024-11-13_13h48.40.960,Tarea de género gramatical,2024.2.2,Win32,59.88023952,,,,,,,,,,,,,,,,,,,,,,,139.5918,141.0986,a,1,[],[],[],[],[],[],[],0.832,1,141.0987,141.5898,,,,,,1302,MAS,CON,150,ladrón,,l,0.832,,141.5917,141.5928,-0.018229167,-0.173177083,0,0,0,,0,2,2,401,1,,,,,
,,,,,,d3c51f78bdd2b77f97ae4abd,66a626ef09d4e21e1a8894ec,6734a00c540c828f442d3a93,2024-11-13_13h48.40.960,Tarea de género gramatical,2024.2.2,Win32,59.88023952,,,,,,,,,,,,,,,,,,,,,,,141.5947,143.0597,a,1,[],[],[],[],[],[],[],0.7897,1,143.0598,143.5483,,,,,,1229,MAS,AGR,150,futuro,el,l,0.7897,,143.5484,143.5485,-0.018229167,-0.173177083,0,0,0,,0,3,3,328,1,,,,,
,,,,,,d3c51f78bdd2b77f97ae4abd,66a626ef09d4e21e1a8894ec,6734a00c540c828f442d3a93,2024-11-13_13h48.40.960,Tarea de género gramatical,2024.2.2,Win32,59.88023952,,,,,,,,,,,,,,,,,,,,,,,143.55,144.7275,a,1,[],[],[],[],[],[],[],0.5027,1,144.7276,145.2293,,,,,,1217,MAS,AGR,150,número,el,l,0.5027,,145.2295,145.2295,-0.018229167,-0.173177083,0,0,0,,0,4,4,316,1,,,,,
,,,,,,d3c51f78bdd2b77f97ae4abd,66a626ef09d4e21e1a8894ec,6734a00c540c828f442d3a93,2024-11-13_13h48.40.960,Tarea de género gramatical,2024.2.2,Win32,59.88023952,,,,,,,,,,,,,,,,,,,,,,,145.2305,146.7194,l,1,[],[],[],[],[],[],[],0.82,1,146.7195,147.2205,,,,,,1215,FEM,CON,150,manera,,a,0.82,,147.2206,147.2209,-0.018229167,-0.173177083,0,0,0,,0,5,5,314,1,,,,,
,,,,,,d3c51f78bdd2b77f97ae4abd,66a626ef09d4e21e1a8894ec,6734a00c540c828f442d3a93,2024-11-13_13h48.40.960,Tarea de género gramatical,2024.2.2,Win32,59.88023952,,,,,,,,,,,,,,,,,,,,,,,147.2222,148.3923,a,1,[],[],[],[],[],[],[],0.5031,1,148.3924,148.8869,,,,,,1350,MAS,CON,150,conejo,,l,0.5031,,148.8886,148.8895,-0.018229167,-0.173177083,0,0,0,,0,6,6,449,1,,,,,
,,,,,,d3c51f78bdd2b77f97ae4abd,66a626ef09d4e21e1a8894ec,6734a00c540c828f442d3a93,2024-11-13_13h48.40.960,Tarea de género gramatical,2024.2.2,Win32,59.88023952,,,,,,,,,,,,,,,,,,,,,,,148.8906,150.1173,a,1,[],[],[],[],[],[],[],0.5363,1,150.1174,150.6194,,,,,,1259,MAS,AGR,150,bosque,el,l,0.5363,,150.6194,150.6196,-0.018229167,-0.173177083,0,0,0,,0,7,7,358,1,,,,,
,,,,,,d3c51f78bdd2b77f97ae4abd,66a626ef09d4e21e1a8894ec,6734a00c540c828f442d3a93,2024-11-13_13h48.40.960,Tarea de género gramatical,2024.2.2,Win32,59.88023952,,,,,,,,,,,,,,,,,,,,,,,150.6205,151.8252,a,1,[],[],[],[],[],[],[],0.5408,1,151.8255,152.3369,,,,,,1176,MAS,CON,150,ritmo,,l,0.5408,,152.337,152.337,-0.018229167,-0.173177083,0,0,0,,0,8,8,275,1,,,,,
,,,,,,d3c51f78bdd2b77f97ae4abd,66a626ef09d4e21e1a8894ec,6734a00c540c828f442d3a93,2024-11-13_13h48.40.960,Tarea de género gramatical,2024.2.2,Win32,59.88023952,,,,,,,,,,,,,,,,,,,,,,,152.3381,153.7806,l,1,[],[],[],[],[],[],[],0.7696,1,153.7808,154.2734,,,,,,1255,FEM,DIS,150,mirada,el,a,0.7696,,154.2736,154.2737,-0.018229167,-0.173177083,0,0,0,,0,9,9,354,1,,,,,
,,,,,,d3c51f78bdd2b77f97ae4abd,66a626ef09d4e21e1a8894ec,6734a00c540c828f442d3a93,2024-11-13_13h48.40.960,Tarea de género gramatical,2024.2.2,Win32,59.88023952,,,,,,,,,,,,,,,,,,,,,,,154.2756,155.4984,l,1,[],[],[],[],[],[],[],0.5407,1,155.4984,155.9878,,,,,,1058,FEM,AGR,150,chica,la,a,0.5407,,155.988,155.9882,-0.018229167,-0.173177083,0,0,0,,0,10,10,157,1,,,,,
,,,,,,d3c51f78bdd2b77f97ae4abd,66a626ef09d4e21e1a8894ec,6734a00c540c828f442d3a93,2024-11-13_13h48.40.960,Tarea de género gramatical,2024.2.2,Win32,59.88023952,,,,,,,,,,,,,,,,,,,,,,,155.989,157.2045,a,1,[],[],[],[],[],[],[],0.5429,1,157.2046,157.7073,,,,,,953,MAS,AGR,150,vaso,el,l,0.5429,,157.709,157.71,-0.018229167,-0.173177083,0,0,0,,0,11,11,52,1,,,,,
,,,,,,d3c51f78bdd2b77f97ae4abd,66a626ef09d4e21e1a8894ec,6734a00c540c828f442d3a93,2024-11-13_13h48.40.960,Tarea de género gramatical,2024.2.2,Win32,59.88023952,,,,,,,,,,,,,,,,,,,,,,,157.711,158.9734,l,1,[],[],[],[],[],[],[],0.5807,1,158.9736,159.4661,,,,,,1286,FEM,AGR,150,sombra,la,a,0.5807,,159.4662,159.4662,-0.018229167,-0.173177083,0,0,0,,0,12,12,385,1,,,,,
,,,,,,d3c51f78bdd2b77f97ae4abd,66a626ef09d4e21e1a8894ec,6734a00c540c828f442d3a93,2024-11-13_13h48.40.960,Tarea de género gramatical,2024.2.2,Win32,59.88023952,,,,,,,,,,,,,,,,,,,,,,,159.4673,160.6876,l,1,[],[],[],[],[],[],[],0.5404,1,160.6877,161.181,,,,,,1184,FEM,AGR,150,fruta,la,a,0.5404,,161.1811,161.1812,-0.018229167,-0.173177083,0,0,0,,0,13,13,283,1,,,,,
,,,,,,d3c51f78bdd2b77f97ae4abd,66a626ef09d4e21e1a8894ec,6734a00c540c828f442d3a93,2024-11-13_13h48.40.960,Tarea de género gramatical,2024.2.2,Win32,59.88023952,,,,,,,,,,,,,,,,,,,,,,,161.1829,162.277,a,1,[],[],[],[],[],[],[],0.4222,1,162.2771,162.7789,,,,,,1212,MAS,CON,150,equipo,,l,0.4222,,162.779,162.7792,-0.018229167,-0.173177083,0,0,0,,0,14,14,311,1,,,,,
,,,,,,d3c51f78bdd2b77f97ae4abd,66a626ef09d4e21e1a8894ec,6734a00c540c828f442d3a93,2024-11-13_13h48.40.960,Tarea de género gramatical,2024.2.2,Win32,59.88023952,,,,,,,,,,,,,,,,,,,,,,,162.7807,164.3339,a,1,[],[],[],[],[],[],[],0.8749,1,164.334,164.8308,,,,,,929,MAS,AGR,150,frío,el,l,0.8749,,164.8326,164.8336,-0.018229167,-0.173177083,0,0,0,,0,15,15,28,1,,,,,
,,,,,,d3c51f78bdd2b77f97ae4abd,66a626ef09d4e21e1a8894ec,6734a00c540c828f442d3a93,2024-11-13_13h48.40.960,Tarea de género gramatical,2024.2.2,Win32,59.88023952,,,,,,,,,,,,,,,,,,,,,,,164.8347,166.1868,a,1,[],[],[],[],[],[],[],0.6873,1,166.1869,166.6754,,,,,,1151,MAS,AGR,150,dueño,el,l,0.6873,,166.6755,166.6756,-0.018229167,-0.173177083,0,0,0,,0,16,16,250,1,,,,,
,,,,,,d3c51f78bdd2b77f97ae4abd,66a626ef09d4e21e1a8894ec,6734a00c540c828f442d3a93,2024-11-13_13h48.40.960,Tarea de género gramatical,2024.2.2,Win32,59.88023952,,,,,,,,,,,,,,,,,,,,,,,166.677,167.9122,a,1,[],[],[],[],[],[],[],0.5693,1,167.9123,168.4021,,,,,,1182,MAS,CON,150,bolso,,l,0.5693,,168.4023,168.4024,-0.018229167,-0.173177083,0,0,0,,0,17,17,281,1,,,,,
,,,,,,d3c51f78bdd2b77f97ae4abd,66a626ef09d4e21e1a8894ec,6734a00c540c828f442d3a93,2024-11-13_13h48.40.960,Tarea de género gramatical,2024.2.2,Win32,59.88023952,,,,,,,,,,,,,,,,,,,,,,,168.4036,169.6486,a,1,[],[],[],[],[],[],[],0.5676,1,169.6487,170.1502,,,,,,1194,MAS,CON,150,cable,,l,0.5676,,170.1502,170.1504,-0.018229167,-0.173177083,0,0,0,,0,18,18,293,1,,,,,
,,,,,,d3c51f78bdd2b77f97ae4abd,66a626ef09d4e21e1a8894ec,6734a00c540c828f442d3a93,2024-11-13_13h48.40.960,Tarea de género gramatical,2024.2.2,Win32,59.88023952,,,,,,,,,,,,,,,,,,,,,,,170.1515,171.2883,a,1,[],[],[],[],[],[],[],0.4696,1,171.2884,171.79,,,,,,1325,MAS,AGR,150,chiste,el,l,0.4696,,171.7901,171.7902,-0.018229167,-0.173177083,0,0,0,,0,19,19,424,1,,,,,
,,,,,,d3c51f78bdd2b77f97ae4abd,66a626ef09d4e21e1a8894ec,6734a00c540c828f442d3a93,2024-11-13_13h48.40.960,Tarea de género gramatical,2024.2.2,Win32,59.88023952,,,,,,,,,,,,,,,,,,,,,,,171.7914,172.9379,a,0,[],[],[],[],[],[],[],0.4769,0,172.9389,173.4451,,,,,,1219,FEM,DIS,150,sangre,el,a,0.4769,,173.4468,173.4478,-0.018229167,-0.173177083,0,0,0,,0,20,20,318,1,,,,,
,,,,,,d3c51f78bdd2b77f97ae4abd,66a626ef09d4e21e1a8894ec,6734a00c540c828f442d3a93,2024-11-13_13h48.40.960,Tarea de género gramatical,2024.2.2,Win32,59.88023952,,,,,,,,,,,,,,,,,,,,,,,173.4487,174.746,a,1,[],[],[],[],[],[],[],0.6314,1,174.7469,175.2447,,,,,,1122,MAS,CON,150,valor,,l,0.6314,,175.245,175.2451,-0.018229167,-0.173177083,0,0,0,,0,21,21,221,1,,,,,
,,,,,,d3c51f78bdd2b77f97ae4abd,66a626ef09d4e21e1a8894ec,6734a00c540c828f442d3a93,2024-11-13_13h48.40.960,Tarea de género gramatical,2024.2.2,Win32,59.88023952,,,,,,,,,,,,,,,,,,,,,,,175.2466,177.0721,l,1,[],[],[],[],[],[],[],1.1508,1,177.0722,177.5628,,,,,,985,FEM,DIS,150,gira,el,a,1.1508,,177.5629,177.5629,-0.018229167,-0.173177083,0,0,0,,0,22,22,84,1,,,,,
,,,,,,d3c51f78bdd2b77f97ae4abd,66a626ef09d4e21e1a8894ec,6734a00c540c828f442d3a93,2024-11-13_13h48.40.960,Tarea de género gramatical,2024.2.2,Win32,59.88023952,,,,,,,,,,,,,,,,,,,,,,,177.5641,178.83,l,1,[],[],[],[],[],[],[],0.602,1,178.8301,179.3198,,,,,,938,FEM,AGR,150,obra,la,a,0.602,,179.3198,179.32,-0.018229167,-0.173177083,0,0,0,,0,23,23,37,1,,,,,
,,,,,,d3c51f78bdd2b77f97ae4abd,66a626ef09d4e21e1a8894ec,6734a00c540c828f442d3a93,2024-11-13_13h48.40.960,Tarea de género gramatical,2024.2.2,Win32,59.88023952,,,,,,,,,,,,,,,,,,,,,,,179.3208,180.6079,l,1,[],[],[],[],[],[],[],0.6022,1,180.608,181.1041,,,,,,1203,FEM,CON,150,maldad,,a,0.6022,,181.1056,181.1066,-0.018229167,-0.173177083,0,0,0,,0,24,24,302,1,,,,,
,,,,,,d3c51f78bdd2b77f97ae4abd,66a626ef09d4e21e1a8894ec,6734a00c540c828f442d3a93,2024-11-13_13h48.40.960,Tarea de género gramatical,2024.2.2,Win32,59.88023952,,,,,,,,,,,,,,,,,,,,,,,181.1073,182.5202,l,1,[],[],[],[],[],[],[],0.7298,1,182.5203,183.0189,,,,,,907,FEM,DIS,150,hora,el,a,0.7298,,183.0189,183.0191,-0.018229167,-0.173177083,0,0,0,,0,25,25,6,1,,,,,
,,,,,,d3c51f78bdd2b77f97ae4abd,66a626ef09d4e21e1a8894ec,6734a00c540c828f442d3a93,2024-11-13_13h48.40.960,Tarea de género gramatical,2024.2.2,Win32,59.88023952,,,,,,,,,,,,,,,,,,,,,,,183.0202,184.2919,a,1,[],[],[],[],[],[],[],0.5785,1,184.292,184.7848,,,,,,960,MAS,CON,150,tono,,l,0.5785,,184.7849,184.785,-0.018229167,-0.173177083,0,0,0,,0,26,26,59,1,,,,,
,,,,,,d3c51f78bdd2b77f97ae4abd,66a626ef09d4e21e1a8894ec,6734a00c540c828f442d3a93,2024-11-13_13h48.40.960,Tarea de género gramatical,2024.2.2,Win32,59.88023952,,,,,,,,,,,,,,,,,,,,,,,184.7862,186.0424,l,1,[],[],[],[],[],[],[],0.586,1,186.0425,186.5451,,,,,,943,FEM,DIS,150,nena,el,a,0.586,,186.5452,186.5453,-0.018229167,-0.173177083,0,0,0,,0,27,27,42,1,,,,,
,,,,,,d3c51f78bdd2b77f97ae4abd,66a626ef09d4e21e1a8894ec,6734a00c540c828f442d3a93,2024-11-13_13h48.40.960,Tarea de género gramatical,2024.2.2,Win32,59.88023952,,,,,,,,,,,,,,,,,,,,,,,186.5464,187.6478,a,1,[],[],[],[],[],[],[],0.4366,1,187.6479,188.15,,,,,,1020,MAS,CON,150,puño,,l,0.4366,,188.15,188.1501,-0.018229167,-0.173177083,0,0,0,,0,28,28,119,1,,,,,
,,,,,,d3c51f78bdd2b77f97ae4abd,66a626ef09d4e21e1a8894ec,6734a00c540c828f442d3a93,2024-11-13_13h48.40.960,Tarea de género gramatical,2024.2.2,Win32,59.88023952,,,,,,,,,,,,,,,,,,,,,,,188.1511,189.4184,l,1,[],[],[],[],[],[],[],0.5958,1,189.4186,189.9232,,,,,,1173,FEM,CON,150,tarta,,a,0.5958,,189.9248,189.9264,-0.018229167,-0.173177083,0,0,0,,0,29,29,272,1,,,,,
,,,,,,d3c51f78bdd2b77f97ae4abd,66a626ef09d4e21e1a8894ec,6734a00c540c828f442d3a93,2024-11-13_13h48.40.960,Tarea de género gramatical,2024.2.2,Win32,59.88023952,,,,,,,,,,,,,,,,,,,,,,,189.9284,191.1555,a,1,[],[],[],[],[],[],[],0.5553,1,191.1556,191.6462,,,,,,1319,MAS,AGR,150,cuento,el,l,0.5553,,191.6464,191.6464,-0.018229167,-0.173177083,0,0,0,,0,30,30,418,1,,,,,
,,,,,,d3c51f78bdd2b77f97ae4abd,66a626ef09d4e21e1a8894ec,6734a00c540c828f442d3a93,2024-11-13_13h48.40.960,Tarea de género gramatical,2024.2.2,Win32,59.88023952,,,,,,,,,,,,,,,,,,,,,,,191.6473,192.8575,a,1,[],[],[],[],[],[],[],0.531,1,192.8577,193.346,,,,,,1230,MAS,CON,150,estado,,l,0.531,,193.3461,193.3461,-0.018229167,-0.173177083,0,0,0,,0,31,31,329,1,,,,,
,,,,,,d3c51f78bdd2b77f97ae4abd,66a626ef09d4e21e1a8894ec,6734a00c540c828f442d3a93,2024-11-13_13h48.40.960,Tarea de género gramatical,2024.2.2,Win32,59.88023952,,,,,,,,,,,,,,,,,,,,,,,193.3477,194.6773,a,1,[],[],[],[],[],[],[],0.6558,1,194.6775,195.1875,,,,,,1266,MAS,CON,150,riesgo,,l,0.6558,,195.1875,195.1876,-0.018229167,-0.173177083,0,0,0,,0,32,32,365,1,,,,,
,,,,,,d3c51f78bdd2b77f97ae4abd,66a626ef09d4e21e1a8894ec,6734a00c540c828f442d3a93,2024-11-13_13h48.40.960,Tarea de género gramatical,2024.2.2,Win32,59.88023952,,,,,,,,,,,,,,,,,,,,,,,195.1888,196.4081,a,1,[],[],[],[],[],[],[],0.5519,1,196.4082,196.898,,,,,,971,MAS,AGR,150,pozo,el,l,0.5519,,196.8994,196.9002,-0.018229167,-0.173177083,0,0,0,,0,33,33,70,1,,,,,
,,,,,,d3c51f78bdd2b77f97ae4abd,66a626ef09d4e21e1a8894ec,6734a00c540c828f442d3a93,2024-11-13_13h48.40.960,Tarea de género gramatical,2024.2.2,Win32,59.88023952,,,,,,,,,,,,,,,,,,,,,,,196.9012,198.0957,l,1,[],[],[],[],[],[],[],0.5264,1,198.0958,198.5952,,,,,,1202,FEM,AGR,150,cabeza,la,a,0.5264,,198.5952,198.5953,-0.018229167,-0.173177083,0,0,0,,0,34,34,301,1,,,,,
,,,,,,d3c51f78bdd2b77f97ae4abd,66a626ef09d4e21e1a8894ec,6734a00c540c828f442d3a93,2024-11-13_13h48.40.960,Tarea de género gramatical,2024.2.2,Win32,59.88023952,,,,,,,,,,,,,,,,,,,,,,,198.5965,199.8701,a,1,[],[],[],[],[],[],[],0.6025,1,199.8702,200.362,,,,,,1216,MAS,DIS,150,cuerpo,la,l,0.6025,,200.362,200.3622,-0.018229167,-0.173177083,0,0,0,,0,35,35,315,1,,,,,
,,,,,,d3c51f78bdd2b77f97ae4abd,66a626ef09d4e21e1a8894ec,6734a00c540c828f442d3a93,2024-11-13_13h48.40.960,Tarea de género gramatical,2024.2.2,Win32,59.88023952,,,,,,,,,,,,,,,,,,,,,,,200.3634,201.6752,l,1,[],[],[],[],[],[],[],0.6347,1,201.6753,202.1666,,,,,,1281,FEM,CON,150,bebida,,a,0.6347,,202.1667,202.1668,-0.018229167,-0.173177083,0,0,0,,0,36,36,380,1,,,,,
,,,,,,d3c51f78bdd2b77f97ae4abd,66a626ef09d4e21e1a8894ec,6734a00c540c828f442d3a93,2024-11-13_13h48.40.960,Tarea de género gramatical,2024.2.2,Win32,59.88023952,,,,,,,,,,,,,,,,,,,,,,,202.1678,203.3205,a,1,[],[],[],[],[],[],[],0.4883,1,203.3206,203.814,,,,,,1271,MAS,AGR,150,sonido,el,l,0.4883,,203.8142,203.8144,-0.018229167,-0.173177083,0,0,0,,0,37,37,370,1,,,,,
,,,,,,d3c51f78bdd2b77f97ae4abd,66a626ef09d4e21e1a8894ec,6734a00c540c828f442d3a93,2024-11-13_13h48.40.960,Tarea de género gramatical,2024.2.2,Win32,59.88023952,,,,,,,,,,,,,,,,,,,,,,,203.817,205.1381,l,0,[],[],[],[],[],[],[],0.6513,0,205.1394,205.6282,,,,,,1318,MAS,DIS,150,pájaro,la,l,0.6513,,205.6296,205.6305,-0.018229167,-0.173177083,0,0,0,,0,38,38,417,1,,,,,
,,,,,,d3c51f78bdd2b77f97ae4abd,66a626ef09d4e21e1a8894ec,6734a00c540c828f442d3a93,2024-11-13_13h48.40.960,Tarea de género gramatical,2024.2.2,Win32,59.88023952,,,,,,,,,,,,,,,,,,,,,,,205.6314,207.1498,a,1,[],[],[],[],[],[],[],0.8217,1,207.1506,207.6479,,,,,,1338,MAS,CON,150,tanque,,l,0.8217,,207.648,207.6481,-0.018229167,-0.173177083,0,0,0,,0,39,39,437,1,,,,,
,,,,,,d3c51f78bdd2b77f97ae4abd,66a626ef09d4e21e1a8894ec,6734a00c540c828f442d3a93,2024-11-13_13h48.40.960,Tarea de género gramatical,2024.2.2,Win32,59.88023952,,,,,,,,,,,,,,,,,,,,,,,207.6492,208.8734,l,1,[],[],[],[],[],[],[],0.5423,1,208.8735,209.3876,,,,,,1304,FEM,AGR,150,gloria,la,a,0.5423,,209.3877,209.3878,-0.018229167,-0.173177083,0,0,0,,0,40,40,403,1,,,,,
,,,,,,d3c51f78bdd2b77f97ae4abd,66a626ef09d4e21e1a8894ec,6734a00c540c828f442d3a93,2024-11-13_13h48.40.960,Tarea de género gramatical,2024.2.2,Win32,59.88023952,,,,,,,,,,,,,,,,,,,,,,,209.389,210.6738,a,1,[],[],[],[],[],[],[],0.6189,1,210.6739,211.1759,,,,,,959,MAS,AGR,150,lobo,el,l,0.6189,,211.176,211.176,-0.018229167,-0.173177083,0,0,0,,0,41,41,58,1,,,,,
,,,,,,d3c51f78bdd2b77f97ae4abd,66a626ef09d4e21e1a8894ec,6734a00c540c828f442d3a93,2024-11-13_13h48.40.960,Tarea de género gramatical,2024.2.2,Win32,59.88023952,,,,,,,,,,,,,,,,,,,,,,,211.1777,212.4687,a,1,[],[],[],[],[],[],[],0.6187,1,212.4687,212.9593,,,,,,1156,MAS,DIS,150,techo,la,l,0.6187,,212.9608,212.9615,-0.018229167,-0.173177083,0,0,0,,0,42,42,255,1,,,,,
,,,,,,d3c51f78bdd2b77f97ae4abd,66a626ef09d4e21e1a8894ec,6734a00c540c828f442d3a93,2024-11-13_13h48.40.960,Tarea de género gramatical,2024.2.2,Win32,59.88023952,,,,,,,,,,,,,,,,,,,,,,,212.9623,214.1754,l,1,[],[],[],[],[],[],[],0.5476,1,214.1755,214.6678,,,,,,1201,FEM,DIS,150,verdad,el,a,0.5476,,214.668,214.6681,-0.018229167,-0.173177083,0,0,0,,0,43,43,300,1,,,,,
,,,,,,d3c51f78bdd2b77f97ae4abd,66a626ef09d4e21e1a8894ec,6734a00c540c828f442d3a93,2024-11-13_13h48.40.960,Tarea de género gramatical,2024.2.2,Win32,59.88023952,,,,,,,,,,,,,,,,,,,,,,,214.6698,215.8882,l,1,[],[],[],[],[],[],[],0.548,1,215.8883,216.3947,,,,,,1214,FEM,AGR,150,señora,la,a,0.548,,216.3948,216.3949,-0.018229167,-0.173177083,0,0,0,,0,44,44,313,1,,,,,
,,,,,,d3c51f78bdd2b77f97ae4abd,66a626ef09d4e21e1a8894ec,6734a00c540c828f442d3a93,2024-11-13_13h48.40.960,Tarea de género gramatical,2024.2.2,Win32,59.88023952,,,,,,,,,,,,,,,,,,,,,,,216.396,217.9004,l,1,[],[],[],[],[],[],[],0.8358,1,217.9005,218.3969,,,,,,1117,FEM,DIS,150,tarea,el,a,0.8358,,218.3971,218.3971,-0.018229167,-0.173177083,0,0,0,,0,45,45,216,1,,,,,
,,,,,,d3c51f78bdd2b77f97ae4abd,66a626ef09d4e21e1a8894ec,6734a00c540c828f442d3a93,2024-11-13_13h48.40.960,Tarea de género gramatical,2024.2.2,Win32,59.88023952,,,,,,,,,,,,,,,,,,,,,,,218.3984,219.8612,l,1,[],[],[],[],[],[],[],0.7944,1,219.8614,220.3629,,,,,,1261,FEM,DIS,150,oferta,el,a,0.7944,,220.3629,220.3631,-0.018229167,-0.173177083,0,0,0,,0,46,46,360,1,,,,,
,,,,,,d3c51f78bdd2b77f97ae4abd,66a626ef09d4e21e1a8894ec,6734a00c540c828f442d3a93,2024-11-13_13h48.40.960,Tarea de género gramatical,2024.2.2,Win32,59.88023952,,,,,,,,,,,,,,,,,,,,,,,220.3639,221.5349,a,1,[],[],[],[],[],[],[],0.5002,1,221.5351,222.0301,,,,,,1002,MAS,CON,150,coro,,l,0.5002,,222.0314,222.0322,-0.018229167,-0.173177083,0,0,0,,0,47,47,101,1,,,,,
,,,,,,d3c51f78bdd2b77f97ae4abd,66a626ef09d4e21e1a8894ec,6734a00c540c828f442d3a93,2024-11-13_13h48.40.960,Tarea de género gramatical,2024.2.2,Win32,59.88023952,,,,,,,,,,,,,,,,,,,,,,,222.0329,223.2903,l,1,[],[],[],[],[],[],[],0.5783,1,223.2905,223.792,,,,,,1327,FEM,DIS,150,agenda,el,a,0.5783,,223.7921,223.7922,-0.018229167,-0.173177083,0,0,0,,0,48,48,426,1,,,,,
,,,,,,d3c51f78bdd2b77f97ae4abd,66a626ef09d4e21e1a8894ec,6734a00c540c828f442d3a93,2024-11-13_13h48.40.960,Tarea de género gramatical,2024.2.2,Win32,59.88023952,,,,,,,,,,,,,,,,,,,,,,,223.7931,224.9995,a,1,[],[],[],[],[],[],[],0.5274,1,224.9997,225.4882,,,,,,1008,MAS,CON,150,hilo,,l,0.5274,,225.4882,225.4884,-0.018229167,-0.173177083,0,0,0,,0,49,49,107,1,,,,,
,,,,,,d3c51f78bdd2b77f97ae4abd,66a626ef09d4e21e1a8894ec,6734a00c540c828f442d3a93,2024-11-13_13h48.40.960,Tarea de género gramatical,2024.2.2,Win32,59.88023952,,,,,,,,,,,,,,,,,,,,,,,225.4897,226.6975,l,1,[],[],[],[],[],[],[],0.5368,1,226.6976,227.1869,,,,,,1268,FEM,AGR,150,gracia,la,a,0.5368,,227.1869,227.187,-0.018229167,-0.173177083,0,0,0,,0,50,50,367,1,,,,,
,,,,,,d3c51f78bdd2b77f97ae4abd,66a626ef09d4e21e1a8894ec,6734a00c540c828f442d3a93,2024-11-13_13h48.40.960,Tarea de género gramatical,2024.2.2,Win32,59.88023952,,,,,,,,,,,,,,,,,,,,,,,227.1881,228.3078,l,1,[],[],[],[],[],[],[],0.449,1,228.308,228.8112,,,,,,939,FEM,CON,150,luna,,a,0.449,,228.8125,228.8134,-0.018229167,-0.173177083,0,0,0,,0,51,51,38,1,,,,,
,,,,,,d3c51f78bdd2b77f97ae4abd,66a626ef09d4e21e1a8894ec,6734a00c540c828f442d3a93,2024-11-13_13h48.40.960,Tarea de género gramatical,2024.2.2,Win32,59.88023952,,,,,,,,,,,,,,,,,,,,,,,228.8143,229.967,a,1,[],[],[],[],[],[],[],0.4757,1,229.9671,230.4654,,,,,,1138,MAS,DIS,150,norte,la,l,0.4757,,230.4655,230.4657,-0.018229167,-0.173177083,0,0,0,,0,52,52,237,1,,,,,
,,,,,,d3c51f78bdd2b77f97ae4abd,66a626ef09d4e21e1a8894ec,6734a00c540c828f442d3a93,2024-11-13_13h48.40.960,Tarea de género gramatical,2024.2.2,Win32,59.88023952,,,,,,,,,,,,,,,,,,,,,,,230.4665,231.6071,l,1,[],[],[],[],[],[],[],0.4619,1,231.6072,232.1056,,,,,,1087,FEM,DIS,150,lista,el,a,0.4619,,232.1057,232.1058,-0.018229167,-0.173177083,0,0,0,,0,53,53,186,1,,,,,
,,,,,,d3c51f78bdd2b77f97ae4abd,66a626ef09d4e21e1a8894ec,6734a00c540c828f442d3a93,2024-11-13_13h48.40.960,Tarea de género gramatical,2024.2.2,Win32,59.88023952,,,,,,,,,,,,,,,,,,,,,,,232.1074,233.489,l,1,[],[],[],[],[],[],[],0.7032,1,233.4891,233.9892,,,,,,1081,FEM,DIS,150,tarde,el,a,0.7032,,233.9892,233.9894,-0.018229167,-0.173177083,0,0,0,,0,54,54,180,1,,,,,
,,,,,,d3c51f78bdd2b77f97ae4abd,66a626ef09d4e21e1a8894ec,6734a00c540c828f442d3a93,2024-11-13_13h48.40.960,Tarea de género gramatical,2024.2.2,Win32,59.88023952,,,,,,,,,,,,,,,,,,,,,,,233.9906,235.1316,l,1,[],[],[],[],[],[],[],0.4517,1,235.1318,235.6246,,,,,,1317,FEM,CON,150,cabaña,,a,0.4517,,235.6247,235.6249,-0.018229167,-0.173177083,0,0,0,,0,55,55,416,1,,,,,
,,,,,,d3c51f78bdd2b77f97ae4abd,66a626ef09d4e21e1a8894ec,6734a00c540c828f442d3a93,2024-11-13_13h48.40.960,Tarea de género gramatical,2024.2.2,Win32,59.88023952,,,,,,,,,,,,,,,,,,,,,,,235.626,236.7204,a,1,[],[],[],[],[],[],[],0.4178,1,236.7205,237.2219,,,,,,1121,MAS,AGR,150,brazo,el,l,0.4178,,237.2235,237.2245,-0.018229167,-0.173177083,0,0,0,,0,56,56,220,1,,,,,
,,,,,,d3c51f78bdd2b77f97ae4abd,66a626ef09d4e21e1a8894ec,6734a00c540c828f442d3a93,2024-11-13_13h48.40.960,Tarea de género gramatical,2024.2.2,Win32,59.88023952,,,,,,,,,,,,,,,,,,,,,,,237.2262,238.5051,l,1,[],[],[],[],[],[],[],0.5862,1,238.5051,238.9978,,,,,,1323,FEM,CON,150,poesía,,a,0.5862,,238.998,238.9981,-0.018229167,-0.173177083,0,0,0,,0,57,57,422,1,,,,,
,,,,,,d3c51f78bdd2b77f97ae4abd,66a626ef09d4e21e1a8894ec,6734a00c540c828f442d3a93,2024-11-13_13h48.40.960,Tarea de género gramatical,2024.2.2,Win32,59.88023952,,,,,,,,,,,,,,,,,,,,,,,238.9993,240.1538,l,1,[],[],[],[],[],[],[],0.4776,1,240.1539,240.6508,,,,,,1077,FEM,CON,150,broma,,a,0.4776,,240.6508,240.6509,-0.018229167,-0.173177083,0,0,0,,0,58,58,176,1,,,,,
,,,,,,d3c51f78bdd2b77f97ae4abd,66a626ef09d4e21e1a8894ec,6734a00c540c828f442d3a93,2024-11-13_13h48.40.960,Tarea de género gramatical,2024.2.2,Win32,59.88023952,,,,,,,,,,,,,,,,,,,,,,,240.6519,242.2728,l,1,[],[],[],[],[],[],[],0.9529,1,242.2729,242.774,,,,,,955,FEM,DIS,150,taza,el,a,0.9529,,242.7741,242.7743,-0.018229167,-0.173177083,0,0,0,,0,59,59,54,1,,,,,
,,,,,,d3c51f78bdd2b77f97ae4abd,66a626ef09d4e21e1a8894ec,6734a00c540c828f442d3a93,2024-11-13_13h48.40.960,Tarea de género gramatical,2024.2.2,Win32,59.88023952,,,,,,,,,,,,,,,,,,,,,,,242.7755,244.0957,l,1,[],[],[],[],[],[],[],0.6549,1,244.0957,244.5978,,,,,,1149,FEM,CON,150,crema,,a,0.6549,,244.599,244.5999,-0.018229167,-0.173177083,0,0,0,,0,60,60,248,1,,,,,
,,,,,,d3c51f78bdd2b77f97ae4abd,66a626ef09d4e21e1a8894ec,6734a00c540c828f442d3a93,2024-11-13_13h48.40.960,Tarea de género gramatical,2024.2.2,Win32,59.88023952,,,,,,,,,,,,,,,,,,,,,,,244.6008,245.7516,l,1,[],[],[],[],[],[],[],0.4684,1,245.7517,246.2538,,,,,,1310,FEM,AGR,150,piedad,la,a,0.4684,,246.2538,246.254,-0.018229167,-0.173177083,0,0,0,,0,61,61,409,1,,,,,
,,,,,,d3c51f78bdd2b77f97ae4abd,66a626ef09d4e21e1a8894ec,6734a00c540c828f442d3a93,2024-11-13_13h48.40.960,Tarea de género gramatical,2024.2.2,Win32,59.88023952,,,,,,,,,,,,,,,,,,,,,,,246.255,247.3573,a,1,[],[],[],[],[],[],[],0.4348,1,247.3574,247.8589,,,,,,966,MAS,CON,150,muro,,l,0.4348,,247.8589,247.8591,-0.018229167,-0.173177083,0,0,0,,0,62,62,65,1,,,,,
,,,,,,d3c51f78bdd2b77f97ae4abd,66a626ef09d4e21e1a8894ec,6734a00c540c828f442d3a93,2024-11-13_13h48.40.960,Tarea de género gramatical,2024.2.2,Win32,59.88023952,,,,,,,,,,,,,,,,,,,,,,,247.8602,249.0301,a,1,[],[],[],[],[],[],[],0.502,1,249.0302,249.5323,,,,,,1061,MAS,AGR,150,chico,el,l,0.502,,249.5323,249.5324,-0.018229167,-0.173177083,0,0,0,,0,63,63,160,1,,,,,
,,,,,,d3c51f78bdd2b77f97ae4abd,66a626ef09d4e21e1a8894ec,6734a00c540c828f442d3a93,2024-11-13_13h48.40.960,Tarea de género gramatical,2024.2.2,Win32,59.88023952,,,,,,,,,,,,,,,,,,,,,,,249.5337,250.6358,a,1,[],[],[],[],[],[],[],0.4357,1,250.6359,251.1379,,,,,,977,MAS,AGR,150,pico,el,l,0.4357,,251.138,251.1381,-0.018229167,-0.173177083,0,0,0,,0,64,64,76,1,,,,,
,,,,,,d3c51f78bdd2b77f97ae4abd,66a626ef09d4e21e1a8894ec,6734a00c540c828f442d3a93,2024-11-13_13h48.40.960,Tarea de género gramatical,2024.2.2,Win32,59.88023952,,,,,,,,,,,,,,,,,,,,,,,251.1392,252.3078,l,1,[],[],[],[],[],[],[],0.502,1,252.308,252.8099,,,,,,1183,FEM,DIS,150,pluma,el,a,0.502,,252.8112,252.8126,-0.018229167,-0.173177083,0,0,0,,0,65,65,282,1,,,,,
,,,,,,d3c51f78bdd2b77f97ae4abd,66a626ef09d4e21e1a8894ec,6734a00c540c828f442d3a93,2024-11-13_13h48.40.960,Tarea de género gramatical,2024.2.2,Win32,59.88023952,,,,,,,,,,,,,,,,,,,,,,,252.8142,254.0981,a,1,[],[],[],[],[],[],[],0.6049,1,254.0982,254.5993,,,,,,946,MAS,DIS,150,odio,la,l,0.6049,,254.5993,254.5994,-0.018229167,-0.173177083,0,0,0,,0,66,66,45,1,,,,,
,,,,,,d3c51f78bdd2b77f97ae4abd,66a626ef09d4e21e1a8894ec,6734a00c540c828f442d3a93,2024-11-13_13h48.40.960,Tarea de género gramatical,2024.2.2,Win32,59.88023952,,,,,,,,,,,,,,,,,,,,,,,254.6004,255.8865,l,1,[],[],[],[],[],[],[],0.6195,1,255.8866,256.3859,,,,,,1347,FEM,CON,150,lógica,,a,0.6195,,256.386,256.3861,-0.018229167,-0.173177083,0,0,0,,0,67,67,446,1,,,,,
,,,,,,d3c51f78bdd2b77f97ae4abd,66a626ef09d4e21e1a8894ec,6734a00c540c828f442d3a93,2024-11-13_13h48.40.960,Tarea de género gramatical,2024.2.2,Win32,59.88023952,,,,,,,,,,,,,,,,,,,,,,,256.3875,257.6435,l,1,[],[],[],[],[],[],[],0.5858,1,257.6436,258.1333,,,,,,1298,FEM,AGR,150,hierba,la,a,0.5858,,258.1334,258.1335,-0.018229167,-0.173177083,0,0,0,,0,68,68,397,1,,,,,
,,,,,,d3c51f78bdd2b77f97ae4abd,66a626ef09d4e21e1a8894ec,6734a00c540c828f442d3a93,2024-11-13_13h48.40.960,Tarea de género gramatical,2024.2.2,Win32,59.88023952,,,,,,,,,,,,,,,,,,,,,,,258.1346,259.3793,a,0,[],[],[],[],[],[],[],0.5749,0,259.3804,259.8676,,,,,,1293,FEM,CON,150,alarma,,a,0.5749,,259.8689,259.87,-0.018229167,-0.173177083,0,0,0,,0,69,69,392,1,,,,,
,,,,,,d3c51f78bdd2b77f97ae4abd,66a626ef09d4e21e1a8894ec,6734a00c540c828f442d3a93,2024-11-13_13h48.40.960,Tarea de género gramatical,2024.2.2,Win32,59.88023952,,,,,,,,,,,,,,,,,,,,,,,259.8711,261.3064,a,1,[],[],[],[],[],[],[],0.7357,1,261.3075,261.7971,,,,,,924,MAS,CON,150,voto,,l,0.7357,,261.7972,261.7973,-0.018229167,-0.173177083,0,0,0,,0,70,70,23,1,,,,,
,,,,,,d3c51f78bdd2b77f97ae4abd,66a626ef09d4e21e1a8894ec,6734a00c540c828f442d3a93,2024-11-13_13h48.40.960,Tarea de género gramatical,2024.2.2,Win32,59.88023952,,,,,,,,,,,,,,,,,,,,,,,261.7987,263.0941,l,1,[],[],[],[],[],[],[],0.6218,1,263.0943,263.5938,,,,,,1250,FEM,AGR,150,imagen,la,a,0.6218,,263.5939,263.594,-0.018229167,-0.173177083,0,0,0,,0,71,71,349,1,,,,,
,,,,,,d3c51f78bdd2b77f97ae4abd,66a626ef09d4e21e1a8894ec,6734a00c540c828f442d3a93,2024-11-13_13h48.40.960,Tarea de género gramatical,2024.2.2,Win32,59.88023952,,,,,,,,,,,,,,,,,,,,,,,263.5951,264.9266,a,1,[],[],[],[],[],[],[],0.6644,1,264.9268,265.4252,,,,,,1145,MAS,AGR,150,turno,el,l,0.6644,,265.4253,265.4254,-0.018229167,-0.173177083,0,0,0,,0,72,72,244,1,,,,,
,,,,,,d3c51f78bdd2b77f97ae4abd,66a626ef09d4e21e1a8894ec,6734a00c540c828f442d3a93,2024-11-13_13h48.40.960,Tarea de género gramatical,2024.2.2,Win32,59.88023952,,,,,,,,,,,,,,,,,,,,,,,265.4269,266.7277,a,1,[],[],[],[],[],[],[],0.6243,1,266.7278,267.2268,,,,,,1019,MAS,AGR,150,mito,el,l,0.6243,,267.2269,267.2271,-0.018229167,-0.173177083,0,0,0,,0,73,73,118,1,,,,,
,,,,,,d3c51f78bdd2b77f97ae4abd,66a626ef09d4e21e1a8894ec,6734a00c540c828f442d3a93,2024-11-13_13h48.40.960,Tarea de género gramatical,2024.2.2,Win32,59.88023952,,,,,,,,,,,,,,,,,,,,,,,267.2284,268.8466,a,1,[],[],[],[],[],[],[],0.9375,1,268.8467,269.3471,,,,,,1306,MAS,DIS,150,premio,la,l,0.9375,,269.3484,269.349,-0.018229167,-0.173177083,0,0,0,,0,74,74,405,1,,,,,
,,,,,,d3c51f78bdd2b77f97ae4abd,66a626ef09d4e21e1a8894ec,6734a00c540c828f442d3a93,2024-11-13_13h48.40.960,Tarea de género gramatical,2024.2.2,Win32,59.88023952,,,,,,,,,,,,,,,,,,,,,,,269.3496,270.719,a,1,[],[],[],[],[],[],[],0.6864,1,270.719,271.2211,,,,,,1066,MAS,DIS,150,coche,la,l,0.6864,,271.2212,271.2214,-0.018229167,-0.173177083,0,0,0,,0,75,75,165,1,,,,,
,,,,,,d3c51f78bdd2b77f97ae4abd,66a626ef09d4e21e1a8894ec,6734a00c540c828f442d3a93,2024-11-13_13h48.40.960,Tarea de género gramatical,2024.2.2,Win32,59.88023952,,,,,,,,,,,,,,,,,,,,,,,271.2232,272.4926,a,1,[],[],[],[],[],[],[],0.587,1,272.4926,272.9808,,,,,,923,MAS,AGR,150,rato,el,l,0.587,,272.9808,272.9809,-0.018229167,-0.173177083,0,0,0,,0,76,76,22,1,,,,,
,,,,,,d3c51f78bdd2b77f97ae4abd,66a626ef09d4e21e1a8894ec,6734a00c540c828f442d3a93,2024-11-13_13h48.40.960,Tarea de género gramatical,2024.2.2,Win32,59.88023952,,,,,,,,,,,,,,,,,,,,,,,272.9818,274.3983,a,1,[],[],[],[],[],[],[],0.7442,1,274.3983,274.8872,,,,,,1120,MAS,DIS,150,huevo,la,l,0.7442,,274.8873,274.8874,-0.018229167,-0.173177083,0,0,0,,0,77,77,219,1,,,,,
,,,,,,d3c51f78bdd2b77f97ae4abd,66a626ef09d4e21e1a8894ec,6734a00c540c828f442d3a93,2024-11-13_13h48.40.960,Tarea de género gramatical,2024.2.2,Win32,59.88023952,,,,,,,,,,,,,,,,,,,,,,,274.8887,276.2084,a,1,[],[],[],[],[],[],[],0.6369,1,276.2084,276.707,,,,,,1037,MAS,AGR,150,coco,el,l,0.6369,,276.7083,276.7092,-0.018229167,-0.173177083,0,0,0,,0,78,78,136,1,,,,,
,,,,,,d3c51f78bdd2b77f97ae4abd,66a626ef09d4e21e1a8894ec,6734a00c540c828f442d3a93,2024-11-13_13h48.40.960,Tarea de género gramatical,2024.2.2,Win32,59.88023952,,,,,,,,,,,,,,,,,,,,,,,276.71,277.9106,a,1,[],[],[],[],[],[],[],0.5355,1,277.9106,278.4,,,,,,1128,MAS,CON,150,nivel,,l,0.5355,,278.4,278.4001,-0.018229167,-0.173177083,0,0,0,,0,79,79,227,1,,,,,
,,,,,,d3c51f78bdd2b77f97ae4abd,66a626ef09d4e21e1a8894ec,6734a00c540c828f442d3a93,2024-11-13_13h48.40.960,Tarea de género gramatical,2024.2.2,Win32,59.88023952,,,,,,,,,,,,,,,,,,,,,,,278.401,279.5198,l,1,[],[],[],[],[],[],[],0.4358,1,279.5199,280.0121,,,,,,945,FEM,CON,150,isla,,a,0.4358,,280.0123,280.0124,-0.018229167,-0.173177083,0,0,0,,0,80,80,44,1,,,,,
,,,,,,d3c51f78bdd2b77f97ae4abd,66a626ef09d4e21e1a8894ec,6734a00c540c828f442d3a93,2024-11-13_13h48.40.960,Tarea de género gramatical,2024.2.2,Win32,59.88023952,,,,,,,,,,,,,,,,,,,,,,,280.0139,281.3346,l,1,[],[],[],[],[],[],[],0.6356,1,281.3348,281.8238,,,,,,1057,FEM,DIS,150,madre,el,a,0.6356,,281.8239,281.824,-0.018229167,-0.173177083,0,0,0,,0,81,81,156,1,,,,,
,,,,,,d3c51f78bdd2b77f97ae4abd,66a626ef09d4e21e1a8894ec,6734a00c540c828f442d3a93,2024-11-13_13h48.40.960,Tarea de género gramatical,2024.2.2,Win32,59.88023952,,,,,,,,,,,,,,,,,,,,,,,281.8253,283.0077,l,1,[],[],[],[],[],[],[],0.5154,1,283.0079,283.5044,,,,,,986,FEM,AGR,150,cruz,la,a,0.5154,,283.5046,283.5047,-0.018229167,-0.173177083,0,0,0,,0,82,82,85,1,,,,,
,,,,,,d3c51f78bdd2b77f97ae4abd,66a626ef09d4e21e1a8894ec,6734a00c540c828f442d3a93,2024-11-13_13h48.40.960,Tarea de género gramatical,2024.2.2,Win32,59.88023952,,,,,,,,,,,,,,,,,,,,,,,283.5062,284.6012,l,1,[],[],[],[],[],[],[],0.4185,1,284.6013,285.101,,,,,,909,FEM,CON,150,mamá,,a,0.4185,,285.1024,285.1035,-0.018229167,-0.173177083,0,0,0,,0,83,83,8,1,,,,,
,,,,,,d3c51f78bdd2b77f97ae4abd,66a626ef09d4e21e1a8894ec,6734a00c540c828f442d3a93,2024-11-13_13h48.40.960,Tarea de género gramatical,2024.2.2,Win32,59.88023952,,,,,,,,,,,,,,,,,,,,,,,285.1042,286.5239,l,1,[],[],[],[],[],[],[],0.7521,1,286.524,287.0258,,,,,,1267,FEM,DIS,150,teoría,el,a,0.7521,,287.0259,287.026,-0.018229167,-0.173177083,0,0,0,,0,84,84,366,1,,,,,
,,,,,,d3c51f78bdd2b77f97ae4abd,66a626ef09d4e21e1a8894ec,6734a00c540c828f442d3a93,2024-11-13_13h48.40.960,Tarea de género gramatical,2024.2.2,Win32,59.88023952,,,,,,,,,,,,,,,,,,,,,,,287.0275,288.3192,l,1,[],[],[],[],[],[],[],0.6247,1,288.3194,288.8227,,,,,,1136,FEM,AGR,150,deuda,la,a,0.6247,,288.8228,288.8229,-0.018229167,-0.173177083,0,0,0,,0,85,85,235,1,,,,,
,,,,,,d3c51f78bdd2b77f97ae4abd,66a626ef09d4e21e1a8894ec,6734a00c540c828f442d3a93,2024-11-13_13h48.40.960,Tarea de género gramatical,2024.2.2,Win32,59.88023952,,,,,,,,,,,,,,,,,,,,,,,288.8244,290.1355,a,1,[],[],[],[],[],[],[],0.6231,1,290.1356,290.6268,,,,,,1109,MAS,AGR,150,banco,el,l,0.6231,,290.6269,290.627,-0.018229167,-0.173177083,0,0,0,,0,86,86,208,1,,,,,
,,,,,,d3c51f78bdd2b77f97ae4abd,66a626ef09d4e21e1a8894ec,6734a00c540c828f442d3a93,2024-11-13_13h48.40.960,Tarea de género gramatical,2024.2.2,Win32,59.88023952,,,,,,,,,,,,,,,,,,,,,,,290.6286,291.8356,l,1,[],[],[],[],[],[],[],0.535,1,291.8358,292.3322,,,,,,1245,FEM,CON,150,pierna,,a,0.535,,292.3333,292.3342,-0.018229167,-0.173177083,0,0,0,,0,87,87,344,1,,,,,
,,,,,,d3c51f78bdd2b77f97ae4abd,66a626ef09d4e21e1a8894ec,6734a00c540c828f442d3a93,2024-11-13_13h48.40.960,Tarea de género gramatical,2024.2.2,Win32,59.88023952,,,,,,,,,,,,,,,,,,,,,,,292.3353,293.6193,a,1,[],[],[],[],[],[],[],0.604,1,293.6194,294.1096,,,,,,1078,MAS,DIS,150,punto,la,l,0.604,,294.1097,294.1099,-0.018229167,-0.173177083,0,0,0,,0,88,88,177,1,,,,,
,,,,,,d3c51f78bdd2b77f97ae4abd,66a626ef09d4e21e1a8894ec,6734a00c540c828f442d3a93,2024-11-13_13h48.40.960,Tarea de género gramatical,2024.2.2,Win32,59.88023952,,,,,,,,,,,,,,,,,,,,,,,294.1111,295.4848,l,1,[],[],[],[],[],[],[],0.686,1,295.4851,295.974,,,,,,949,FEM,DIS,150,piel,el,a,0.686,,295.9741,295.9742,-0.018229167,-0.173177083,0,0,0,,0,89,89,48,1,,,,,
,,,,,,d3c51f78bdd2b77f97ae4abd,66a626ef09d4e21e1a8894ec,6734a00c540c828f442d3a93,2024-11-13_13h48.40.960,Tarea de género gramatical,2024.2.2,Win32,59.88023952,,,,,,,,,,,,,,,,,,,,,,,295.9754,297.1849,l,1,[],[],[],[],[],[],[],0.537,1,297.185,297.688,,,,,,1275,FEM,CON,150,cadena,,a,0.537,,297.6881,297.6882,-0.018229167,-0.173177083,0,0,0,,0,90,90,374,1,,,,,
,,,,,,d3c51f78bdd2b77f97ae4abd,66a626ef09d4e21e1a8894ec,6734a00c540c828f442d3a93,2024-11-13_13h48.40.960,Tarea de género gramatical,2024.2.2,Win32,59.88023952,,,,,,,,,,,,,,,,,,,,,,,297.6893,298.8883,l,1,[],[],[],[],[],[],[],0.5313,1,298.8884,299.3859,,,,,,1011,FEM,CON,150,goma,,a,0.5313,,299.3859,299.386,-0.018229167,-0.173177083,0,0,0,,0,91,91,110,1,,,,,
,,,,,,d3c51f78bdd2b77f97ae4abd,66a626ef09d4e21e1a8894ec,6734a00c540c828f442d3a93,2024-11-13_13h48.40.960,Tarea de género gramatical,2024.2.2,Win32,59.88023952,,,,,,,,,,,,,,,,,,,,,,,299.3873,300.9625,a,1,[],[],[],[],[],[],[],0.8891,1,300.9626,301.4636,,,,,,1048,MAS,DIS,150,surf,la,l,0.8891,,301.4648,301.4659,-0.018229167,-0.173177083,0,0,0,,0,92,92,147,1,,,,,
,,,,,,d3c51f78bdd2b77f97ae4abd,66a626ef09d4e21e1a8894ec,6734a00c540c828f442d3a93,2024-11-13_13h48.40.960,Tarea de género gramatical,2024.2.2,Win32,59.88023952,,,,,,,,,,,,,,,,,,,,,,,301.467,302.71,a,1,[],[],[],[],[],[],[],0.5643,1,302.7101,303.2033,,,,,,1013,MAS,AGR,150,toro,el,l,0.5643,,303.2033,303.2033,-0.018229167,-0.173177083,0,0,0,,0,93,93,112,1,,,,,
,,,,,,d3c51f78bdd2b77f97ae4abd,66a626ef09d4e21e1a8894ec,6734a00c540c828f442d3a93,2024-11-13_13h48.40.960,Tarea de género gramatical,2024.2.2,Win32,59.88023952,,,,,,,,,,,,,,,,,,,,,,,303.2043,304.3866,l,1,[],[],[],[],[],[],[],0.5138,1,304.3867,304.8823,,,,,,1197,FEM,CON,150,manta,,a,0.5138,,304.8824,304.8825,-0.018229167,-0.173177083,0,0,0,,0,94,94,296,1,,,,,
,,,,,,d3c51f78bdd2b77f97ae4abd,66a626ef09d4e21e1a8894ec,6734a00c540c828f442d3a93,2024-11-13_13h48.40.960,Tarea de género gramatical,2024.2.2,Win32,59.88023952,,,,,,,,,,,,,,,,,,,,,,,304.8839,306.0488,a,1,[],[],[],[],[],[],[],0.4895,1,306.0489,306.5481,,,,,,1254,MAS,CON,150,camión,,l,0.4895,,306.5482,306.5483,-0.018229167,-0.173177083,0,0,0,,0,95,95,353,1,,,,,
,,,,,,d3c51f78bdd2b77f97ae4abd,66a626ef09d4e21e1a8894ec,6734a00c540c828f442d3a93,2024-11-13_13h48.40.960,Tarea de género gramatical,2024.2.2,Win32,59.88023952,,,,,,,,,,,,,,,,,,,,,,,306.5495,307.9533,l,1,[],[],[],[],[],[],[],0.7386,1,307.9534,308.4551,,,,,,902,FEM,AGR,150,vida,la,a,0.7386,,308.4567,308.459,-0.018229167,-0.173177083,0,0,0,,0,96,96,1,1,,,,,
,,,,,,d3c51f78bdd2b77f97ae4abd,66a626ef09d4e21e1a8894ec,6734a00c540c828f442d3a93,2024-11-13_13h48.40.960,Tarea de género gramatical,2024.2.2,Win32,59.88023952,,,,,,,,,,,,,,,,,,,,,,,308.4604,309.6007,l,1,[],[],[],[],[],[],[],0.4699,1,309.6009,310.0981,,,,,,956,FEM,AGR,150,bola,la,a,0.4699,,310.0982,310.0983,-0.018229167,-0.173177083,0,0,0,,0,97,97,55,1,,,,,
,,,,,,d3c51f78bdd2b77f97ae4abd,66a626ef09d4e21e1a8894ec,6734a00c540c828f442d3a93,2024-11-13_13h48.40.960,Tarea de género gramatical,2024.2.2,Win32,59.88023952,,,,,,,,,,,,,,,,,,,,,,,310.0995,311.341,l,1,[],[],[],[],[],[],[],0.5753,1,311.3412,311.8292,,,,,,1119,FEM,CON,150,costa,,a,0.5753,,311.8293,311.8293,-0.018229167,-0.173177083,0,0,0,,0,98,98,218,1,,,,,
,,,,,,d3c51f78bdd2b77f97ae4abd,66a626ef09d4e21e1a8894ec,6734a00c540c828f442d3a93,2024-11-13_13h48.40.960,Tarea de género gramatical,2024.2.2,Win32,59.88023952,,,,,,,,,,,,,,,,,,,,,,,311.8304,312.9703,a,1,[],[],[],[],[],[],[],0.468,1,312.9705,313.4724,,,,,,995,MAS,AGR,150,tomo,el,l,0.468,,313.4724,313.4725,-0.018229167,-0.173177083,0,0,0,,0,99,99,94,1,,,,,
,,,,,,d3c51f78bdd2b77f97ae4abd,66a626ef09d4e21e1a8894ec,6734a00c540c828f442d3a93,2024-11-13_13h48.40.960,Tarea de género gramatical,2024.2.2,Win32,59.88023952,,,,,,,,,,,,,,,,,,,,,,,313.4737,314.8771,l,1,[],[],[],[],[],[],[],0.7211,1,314.8772,315.3788,,,,,,981,FEM,CON,150,cima,,a,0.7211,,315.3789,315.379,-0.018229167,-0.173177083,0,0,0,,0,100,100,80,1,,,,,
,,,,,,d3c51f78bdd2b77f97ae4abd,66a626ef09d4e21e1a8894ec,6734a00c540c828f442d3a93,2024-11-13_13h48.40.960,Tarea de género gramatical,2024.2.2,Win32,59.88023952,,,,,,,,,,,,,,,,,,,,,,,315.3802,316.7843,a,1,[],[],[],[],[],[],[],0.7235,1,316.7844,317.2855,,,,,,1042,MAS,DIS,150,lodo,la,l,0.7235,,317.2869,317.2883,-0.018229167,-0.173177083,0,0,0,,0,101,101,141,1,,,,,
,,,,,,d3c51f78bdd2b77f97ae4abd,66a626ef09d4e21e1a8894ec,6734a00c540c828f442d3a93,2024-11-13_13h48.40.960,Tarea de género gramatical,2024.2.2,Win32,59.88023952,,,,,,,,,,,,,,,,,,,,,,,317.2899,318.4225,l,1,[],[],[],[],[],[],[],0.4507,1,318.4226,318.9245,,,,,,1333,FEM,DIS,150,huella,el,a,0.4507,,318.9246,318.9247,-0.018229167,-0.173177083,0,0,0,,0,102,102,432,1,,,,,
,,,,,,d3c51f78bdd2b77f97ae4abd,66a626ef09d4e21e1a8894ec,6734a00c540c828f442d3a93,2024-11-13_13h48.40.960,Tarea de género gramatical,2024.2.2,Win32,59.88023952,,,,,,,,,,,,,,,,,,,,,,,318.9258,320.5805,l,1,[],[],[],[],[],[],[],0.9874,1,320.5806,321.0827,,,,,,1093,FEM,DIS,150,bolsa,el,a,0.9874,,321.0827,321.0828,-0.018229167,-0.173177083,0,0,0,,0,103,103,192,1,,,,,
,,,,,,d3c51f78bdd2b77f97ae4abd,66a626ef09d4e21e1a8894ec,6734a00c540c828f442d3a93,2024-11-13_13h48.40.960,Tarea de género gramatical,2024.2.2,Win32,59.88023952,,,,,,,,,,,,,,,,,,,,,,,321.0837,322.2361,a,1,[],[],[],[],[],[],[],0.4683,1,322.2362,322.7466,,,,,,1032,MAS,CON,150,velo,,l,0.4683,,322.7467,322.7469,-0.018229167,-0.173177083,0,0,0,,0,104,104,131,1,,,,,
,,,,,,d3c51f78bdd2b77f97ae4abd,66a626ef09d4e21e1a8894ec,6734a00c540c828f442d3a93,2024-11-13_13h48.40.960,Tarea de género gramatical,2024.2.2,Win32,59.88023952,,,,,,,,,,,,,,,,,,,,,,,322.7483,323.9422,a,1,[],[],[],[],[],[],[],0.5051,1,323.9422,324.4438,,,,,,972,MAS,CON,150,hoyo,,l,0.5051,,324.4449,324.4456,-0.018229167,-0.173177083,0,0,0,,0,105,105,71,1,,,,,
,,,,,,d3c51f78bdd2b77f97ae4abd,66a626ef09d4e21e1a8894ec,6734a00c540c828f442d3a93,2024-11-13_13h48.40.960,Tarea de género gramatical,2024.2.2,Win32,59.88023952,,,,,,,,,,,,,,,,,,,,,,,324.4464,325.6147,l,1,[],[],[],[],[],[],[],0.5041,1,325.6147,326.1167,,,,,,1232,FEM,AGR,150,basura,la,a,0.5041,,326.1168,326.1169,-0.018229167,-0.173177083,0,0,0,,0,106,106,331,1,,,,,
,,,,,,d3c51f78bdd2b77f97ae4abd,66a626ef09d4e21e1a8894ec,6734a00c540c828f442d3a93,2024-11-13_13h48.40.960,Tarea de género gramatical,2024.2.2,Win32,59.88023952,,,,,,,,,,,,,,,,,,,,,,,326.118,327.3201,a,1,[],[],[],[],[],[],[],0.5366,1,327.3202,327.8233,,,,,,906,MAS,CON,150,lado,,l,0.5366,,327.8233,327.8233,-0.018229167,-0.173177083,0,0,0,,0,107,107,5,1,,,,,
,,,,,,d3c51f78bdd2b77f97ae4abd,66a626ef09d4e21e1a8894ec,6734a00c540c828f442d3a93,2024-11-13_13h48.40.960,Tarea de género gramatical,2024.2.2,Win32,59.88023952,,,,,,,,,,,,,,,,,,,,,,,327.8243,328.9933,a,1,[],[],[],[],[],[],[],0.5026,1,328.9934,329.4952,,,,,,1290,MAS,CON,150,rostro,,l,0.5026,,329.4952,329.4953,-0.018229167,-0.173177083,0,0,0,,0,108,108,389,1,,,,,
,,,,,,d3c51f78bdd2b77f97ae4abd,66a626ef09d4e21e1a8894ec,6734a00c540c828f442d3a93,2024-11-13_13h48.40.960,Tarea de género gramatical,2024.2.2,Win32,59.88023952,,,,,,,,,,,,,,,,,,,,,,,329.4961,330.9339,a,1,[],[],[],[],[],[],[],0.7696,1,330.934,331.4351,,,,,,996,MAS,CON,150,pato,,l,0.7696,,331.4351,331.4353,-0.018229167,-0.173177083,0,0,0,,0,109,109,95,1,,,,,
,,,,,,d3c51f78bdd2b77f97ae4abd,66a626ef09d4e21e1a8894ec,6734a00c540c828f442d3a93,2024-11-13_13h48.40.960,Tarea de género gramatical,2024.2.2,Win32,59.88023952,,,,,,,,,,,,,,,,,,,,,,,331.4364,332.7403,a,1,[],[],[],[],[],[],[],0.6354,1,332.7403,333.2414,,,,,,1344,MAS,CON,150,límite,,l,0.6354,,333.2426,333.2434,-0.018229167,-0.173177083,0,0,0,,0,110,110,443,1,,,,,
,,,,,,d3c51f78bdd2b77f97ae4abd,66a626ef09d4e21e1a8894ec,6734a00c540c828f442d3a93,2024-11-13_13h48.40.960,Tarea de género gramatical,2024.2.2,Win32,59.88023952,,,,,,,,,,,,,,,,,,,,,,,333.2441,334.3623,l,1,[],[],[],[],[],[],[],0.4522,1,334.3623,334.8635,,,,,,925,FEM,DIS,150,nave,el,a,0.4522,,334.8635,334.8636,-0.018229167,-0.173177083,0,0,0,,0,111,111,24,1,,,,,
,,,,,,d3c51f78bdd2b77f97ae4abd,66a626ef09d4e21e1a8894ec,6734a00c540c828f442d3a93,2024-11-13_13h48.40.960,Tarea de género gramatical,2024.2.2,Win32,59.88023952,,,,,,,,,,,,,,,,,,,,,,,334.8646,336.0007,a,1,[],[],[],[],[],[],[],0.4694,1,336.0008,336.5023,,,,,,1313,MAS,AGR,150,diario,el,l,0.4694,,336.5023,336.5024,-0.018229167,-0.173177083,0,0,0,,0,112,112,412,1,,,,,
,,,,,,d3c51f78bdd2b77f97ae4abd,66a626ef09d4e21e1a8894ec,6734a00c540c828f442d3a93,2024-11-13_13h48.40.960,Tarea de género gramatical,2024.2.2,Win32,59.88023952,,,,,,,,,,,,,,,,,,,,,,,336.5036,337.7746,a,1,[],[],[],[],[],[],[],0.6024,1,337.7747,338.2759,,,,,,1234,MAS,DIS,150,ataque,la,l,0.6024,,338.2759,338.2759,-0.018229167,-0.173177083,0,0,0,,0,113,113,333,1,,,,,
,,,,,,d3c51f78bdd2b77f97ae4abd,66a626ef09d4e21e1a8894ec,6734a00c540c828f442d3a93,2024-11-13_13h48.40.960,Tarea de género gramatical,2024.2.2,Win32,59.88023952,,,,,,,,,,,,,,,,,,,,,,,338.2769,339.5131,a,1,[],[],[],[],[],[],[],0.5695,1,339.5132,340.0148,,,,,,1084,MAS,DIS,150,cielo,la,l,0.5695,,340.016,340.0172,-0.018229167,-0.173177083,0,0,0,,0,114,114,183,1,,,,,
,,,,,,d3c51f78bdd2b77f97ae4abd,66a626ef09d4e21e1a8894ec,6734a00c540c828f442d3a93,2024-11-13_13h48.40.960,Tarea de género gramatical,2024.2.2,Win32,59.88023952,,,,,,,,,,,,,,,,,,,,,,,340.0183,341.2528,a,1,[],[],[],[],[],[],[],0.5502,1,341.2529,341.756,,,,,,989,MAS,AGR,150,maíz,el,l,0.5502,,341.756,341.7561,-0.018229167,-0.173177083,0,0,0,,0,115,115,88,1,,,,,
,,,,,,d3c51f78bdd2b77f97ae4abd,66a626ef09d4e21e1a8894ec,6734a00c540c828f442d3a93,2024-11-13_13h48.40.960,Tarea de género gramatical,2024.2.2,Win32,59.88023952,,,,,,,,,,,,,,,,,,,,,,,341.7574,342.9087,a,1,[],[],[],[],[],[],[],0.4865,1,342.9088,343.4097,,,,,,1085,MAS,AGR,150,sueño,el,l,0.4865,,343.4098,343.4099,-0.018229167,-0.173177083,0,0,0,,0,116,116,184,1,,,,,
,,,,,,d3c51f78bdd2b77f97ae4abd,66a626ef09d4e21e1a8894ec,6734a00c540c828f442d3a93,2024-11-13_13h48.40.960,Tarea de género gramatical,2024.2.2,Win32,59.88023952,,,,,,,,,,,,,,,,,,,,,,,343.4109,344.548,l,1,[],[],[],[],[],[],[],0.4685,1,344.5481,345.0498,,,,,,1005,FEM,CON,150,jefa,,a,0.4685,,345.0498,345.0499,-0.018229167,-0.173177083,0,0,0,,0,117,117,104,1,,,,,
,,,,,,d3c51f78bdd2b77f97ae4abd,66a626ef09d4e21e1a8894ec,6734a00c540c828f442d3a93,2024-11-13_13h48.40.960,Tarea de género gramatical,2024.2.2,Win32,59.88023952,,,,,,,,,,,,,,,,,,,,,,,345.0508,346.3206,l,1,[],[],[],[],[],[],[],0.6004,1,346.3207,346.8222,,,,,,1089,FEM,CON,150,pista,,a,0.6004,,346.8223,346.8224,-0.018229167,-0.173177083,0,0,0,,0,118,118,188,1,,,,,
,,,,,,d3c51f78bdd2b77f97ae4abd,66a626ef09d4e21e1a8894ec,6734a00c540c828f442d3a93,2024-11-13_13h48.40.960,Tarea de género gramatical,2024.2.2,Win32,59.88023952,,,,,,,,,,,,,,,,,,,,,,,346.8237,347.926,a,1,[],[],[],[],[],[],[],0.4347,1,347.9261,348.4277,,,,,,1312,MAS,DIS,150,espejo,la,l,0.4347,,348.4288,348.4295,-0.018229167,-0.173177083,0,0,0,,0,119,119,411,1,,,,,
,,,,,,d3c51f78bdd2b77f97ae4abd,66a626ef09d4e21e1a8894ec,6734a00c540c828f442d3a93,2024-11-13_13h48.40.960,Tarea de género gramatical,2024.2.2,Win32,59.88023952,,,,,,,,,,,,,,,,,,,,,,,348.4302,349.5486,a,1,[],[],[],[],[],[],[],0.4356,1,349.5487,350.0509,,,,,,1343,MAS,AGR,150,templo,el,l,0.4356,,350.0509,350.0511,-0.018229167,-0.173177083,0,0,0,,0,120,120,442,1,,,,,
,,,,,,d3c51f78bdd2b77f97ae4abd,66a626ef09d4e21e1a8894ec,6734a00c540c828f442d3a93,2024-11-13_13h48.40.960,Tarea de género gramatical,2024.2.2,Win32,59.88023952,,,,,,,,,,,,,,,,,,,,,,,350.0524,351.2382,a,1,[],[],[],[],[],[],[],0.519,1,351.2382,351.7404,,,,,,1284,MAS,CON,150,pedazo,,l,0.519,,351.7404,351.7405,-0.018229167,-0.173177083,0,0,0,,0,121,121,383,1,,,,,
,,,,,,d3c51f78bdd2b77f97ae4abd,66a626ef09d4e21e1a8894ec,6734a00c540c828f442d3a93,2024-11-13_13h48.40.960,Tarea de género gramatical,2024.2.2,Win32,59.88023952,,,,,,,,,,,,,,,,,,,,,,,351.7417,353.0608,l,0,[],[],[],[],[],[],[],0.6357,0,353.0618,353.5632,,,,,,1294,MAS,DIS,150,examen,la,l,0.6357,,353.5632,353.5633,-0.018229167,-0.173177083,0,0,0,,0,122,122,393,1,,,,,
,,,,,,d3c51f78bdd2b77f97ae4abd,66a626ef09d4e21e1a8894ec,6734a00c540c828f442d3a93,2024-11-13_13h48.40.960,Tarea de género gramatical,2024.2.2,Win32,59.88023952,,,,,,,,,,,,,,,,,,,,,,,353.5643,354.9174,a,1,[],[],[],[],[],[],[],0.6884,1,354.9182,355.4188,,,,,,1170,MAS,CON,150,queso,,l,0.6884,,355.4201,355.4216,-0.018229167,-0.173177083,0,0,0,,0,123,123,269,1,,,,,
,,,,,,d3c51f78bdd2b77f97ae4abd,66a626ef09d4e21e1a8894ec,6734a00c540c828f442d3a93,2024-11-13_13h48.40.960,Tarea de género gramatical,2024.2.2,Win32,59.88023952,,,,,,,,,,,,,,,,,,,,,,,355.4231,356.5224,a,1,[],[],[],[],[],[],[],0.4194,1,356.5226,357.0245,,,,,,1140,MAS,CON,150,ruido,,l,0.4194,,357.0245,357.0246,-0.018229167,-0.173177083,0,0,0,,0,124,124,239,1,,,,,
,,,,,,d3c51f78bdd2b77f97ae4abd,66a626ef09d4e21e1a8894ec,6734a00c540c828f442d3a93,2024-11-13_13h48.40.960,Tarea de género gramatical,2024.2.2,Win32,59.88023952,,,,,,,,,,,,,,,,,,,,,,,357.0255,358.3298,l,1,[],[],[],[],[],[],[],0.6348,1,358.3299,358.8309,,,,,,1135,FEM,DIS,150,torre,el,a,0.6348,,358.831,358.8311,-0.018229167,-0.173177083,0,0,0,,0,125,125,234,1,,,,,
,,,,,,d3c51f78bdd2b77f97ae4abd,66a626ef09d4e21e1a8894ec,6734a00c540c828f442d3a93,2024-11-13_13h48.40.960,Tarea de género gramatical,2024.2.2,Win32,59.88023952,,,,,,,,,,,,,,,,,,,,,,,358.832,360.0014,a,1,[],[],[],[],[],[],[],0.5029,1,360.0015,360.5027,,,,,,1007,MAS,AGR,150,cubo,el,l,0.5029,,360.5027,360.5028,-0.018229167,-0.173177083,0,0,0,,0,126,126,106,1,,,,,
,,,,,,d3c51f78bdd2b77f97ae4abd,66a626ef09d4e21e1a8894ec,6734a00c540c828f442d3a93,2024-11-13_13h48.40.960,Tarea de género gramatical,2024.2.2,Win32,59.88023952,,,,,,,,,,,,,,,,,,,,,,,360.5045,361.6903,a,1,[],[],[],[],[],[],[],0.5197,1,361.6904,362.1935,,,,,,1331,MAS,AGR,150,veneno,el,l,0.5197,,362.1935,362.1936,-0.018229167,-0.173177083,0,0,0,,0,127,127,430,1,,,,,
,,,,,,d3c51f78bdd2b77f97ae4abd,66a626ef09d4e21e1a8894ec,6734a00c540c828f442d3a93,2024-11-13_13h48.40.960,Tarea de género gramatical,2024.2.2,Win32,59.88023952,,,,,,,,,,,,,,,,,,,,,,,362.1946,363.3963,l,1,[],[],[],[],[],[],[],0.5368,1,363.3963,363.8984,,,,,,1309,FEM,DIS,150,moneda,el,a,0.5368,,363.8997,363.9008,-0.018229167,-0.173177083,0,0,0,,0,128,128,408,1,,,,,
,,,,,,d3c51f78bdd2b77f97ae4abd,66a626ef09d4e21e1a8894ec,6734a00c540c828f442d3a93,2024-11-13_13h48.40.960,Tarea de género gramatical,2024.2.2,Win32,59.88023952,,,,,,,,,,,,,,,,,,,,,,,363.902,365.1033,l,1,[],[],[],[],[],[],[],0.5207,1,365.1034,365.6049,,,,,,1143,FEM,CON,150,salsa,,a,0.5207,,365.605,365.6051,-0.018229167,-0.173177083,0,0,0,,0,129,129,242,1,,,,,
,,,,,,d3c51f78bdd2b77f97ae4abd,66a626ef09d4e21e1a8894ec,6734a00c540c828f442d3a93,2024-11-13_13h48.40.960,Tarea de género gramatical,2024.2.2,Win32,59.88023952,,,,,,,,,,,,,,,,,,,,,,,365.6061,366.7088,l,1,[],[],[],[],[],[],[],0.4354,1,366.7089,367.21,,,,,,915,FEM,CON,150,cama,,a,0.4354,,367.21,367.2101,-0.018229167,-0.173177083,0,0,0,,0,130,130,14,1,,,,,
,,,,,,d3c51f78bdd2b77f97ae4abd,66a626ef09d4e21e1a8894ec,6734a00c540c828f442d3a93,2024-11-13_13h48.40.960,Tarea de género gramatical,2024.2.2,Win32,59.88023952,,,,,,,,,,,,,,,,,,,,,,,367.2111,368.4137,a,1,[],[],[],[],[],[],[],0.5365,1,368.4138,368.9169,,,,,,947,MAS,AGR,150,olor,el,l,0.5365,,368.9169,368.9171,-0.018229167,-0.173177083,0,0,0,,0,131,131,46,1,,,,,
,,,,,,d3c51f78bdd2b77f97ae4abd,66a626ef09d4e21e1a8894ec,6734a00c540c828f442d3a93,2024-11-13_13h48.40.960,Tarea de género gramatical,2024.2.2,Win32,59.88023952,,,,,,,,,,,,,,,,,,,,,,,368.9183,370.1373,a,1,[],[],[],[],[],[],[],0.5523,1,370.1373,370.639,,,,,,1228,MAS,DIS,150,asunto,la,l,0.5523,,370.6404,370.6419,-0.018229167,-0.173177083,0,0,0,,0,132,132,327,1,,,,,
,,,,,,d3c51f78bdd2b77f97ae4abd,66a626ef09d4e21e1a8894ec,6734a00c540c828f442d3a93,2024-11-13_13h48.40.960,Tarea de género gramatical,2024.2.2,Win32,59.88023952,,,,,,,,,,,,,,,,,,,,,,,370.6431,371.9271,l,1,[],[],[],[],[],[],[],0.6026,1,371.9272,372.4293,,,,,,1249,FEM,DIS,150,prensa,el,a,0.6026,,372.4293,372.4294,-0.018229167,-0.173177083,0,0,0,,0,133,133,348,1,,,,,
,,,,,,d3c51f78bdd2b77f97ae4abd,66a626ef09d4e21e1a8894ec,6734a00c540c828f442d3a93,2024-11-13_13h48.40.960,Tarea de género gramatical,2024.2.2,Win32,59.88023952,,,,,,,,,,,,,,,,,,,,,,,372.4304,373.7506,a,1,[],[],[],[],[],[],[],0.6538,1,373.7506,374.2514,,,,,,1253,MAS,AGR,150,verano,el,l,0.6538,,374.2514,374.2515,-0.018229167,-0.173177083,0,0,0,,0,134,134,352,1,,,,,
,,,,,,d3c51f78bdd2b77f97ae4abd,66a626ef09d4e21e1a8894ec,6734a00c540c828f442d3a93,2024-11-13_13h48.40.960,Tarea de género gramatical,2024.2.2,Win32,59.88023952,,,,,,,,,,,,,,,,,,,,,,,374.2527,375.5564,a,1,[],[],[],[],[],[],[],0.6367,1,375.5564,376.0576,,,,,,983,MAS,AGR,150,nene,el,l,0.6367,,376.0576,376.0577,-0.018229167,-0.173177083,0,0,0,,0,135,135,82,1,,,,,
,,,,,,d3c51f78bdd2b77f97ae4abd,66a626ef09d4e21e1a8894ec,6734a00c540c828f442d3a93,2024-11-13_13h48.40.960,Tarea de género gramatical,2024.2.2,Win32,59.88023952,,,,,,,,,,,,,,,,,,,,,,,376.0588,377.1958,l,1,[],[],[],[],[],[],[],0.4691,1,377.1959,377.6976,,,,,,1088,FEM,AGR,150,bomba,la,a,0.4691,,377.6976,377.6977,-0.018229167,-0.173177083,0,0,0,,0,136,136,187,1,,,,,
,,,,,,d3c51f78bdd2b77f97ae4abd,66a626ef09d4e21e1a8894ec,6734a00c540c828f442d3a93,2024-11-13_13h48.40.960,Tarea de género gramatical,2024.2.2,Win32,59.88023952,,,,,,,,,,,,,,,,,,,,,,,377.6992,379.1194,l,1,[],[],[],[],[],[],[],0.7541,1,379.1194,379.6209,,,,,,1063,FEM,DIS,150,calle,el,a,0.7541,,379.6221,379.6228,-0.018229167,-0.173177083,0,0,0,,0,137,137,162,1,,,,,
,,,,,,d3c51f78bdd2b77f97ae4abd,66a626ef09d4e21e1a8894ec,6734a00c540c828f442d3a93,2024-11-13_13h48.40.960,Tarea de género gramatical,2024.2.2,Win32,59.88023952,,,,,,,,,,,,,,,,,,,,,,,379.6237,380.8752,a,1,[],[],[],[],[],[],[],0.5677,1,380.8753,381.3763,,,,,,948,MAS,CON,150,loco,,l,0.5677,,381.3763,381.3764,-0.018229167,-0.173177083,0,0,0,,0,138,138,47,1,,,,,
,,,,,,d3c51f78bdd2b77f97ae4abd,66a626ef09d4e21e1a8894ec,6734a00c540c828f442d3a93,2024-11-13_13h48.40.960,Tarea de género gramatical,2024.2.2,Win32,59.88023952,,,,,,,,,,,,,,,,,,,,,,,381.3777,382.6646,a,1,[],[],[],[],[],[],[],0.6193,1,382.6647,383.1658,,,,,,942,MAS,CON,150,show,,l,0.6193,,383.1659,383.166,-0.018229167,-0.173177083,0,0,0,,0,139,139,41,1,,,,,
,,,,,,d3c51f78bdd2b77f97ae4abd,66a626ef09d4e21e1a8894ec,6734a00c540c828f442d3a93,2024-11-13_13h48.40.960,Tarea de género gramatical,2024.2.2,Win32,59.88023952,,,,,,,,,,,,,,,,,,,,,,,383.167,384.3536,a,1,[],[],[],[],[],[],[],0.518,1,384.3537,384.8548,,,,,,1235,MAS,AGR,150,montón,el,l,0.518,,384.8548,384.8549,-0.018229167,-0.173177083,0,0,0,,0,140,140,334,1,,,,,
,,,,,,d3c51f78bdd2b77f97ae4abd,66a626ef09d4e21e1a8894ec,6734a00c540c828f442d3a93,2024-11-13_13h48.40.960,Tarea de género gramatical,2024.2.2,Win32,59.88023952,,,,,,,,,,,,,,,,,,,,,,,384.8558,386.3275,a,1,[],[],[],[],[],[],[],0.8026,1,386.3276,386.8296,,,,,,1174,MAS,DIS,150,motor,la,l,0.8026,,386.831,386.8321,-0.018229167,-0.173177083,0,0,0,,0,141,141,273,1,,,,,
,,,,,,d3c51f78bdd2b77f97ae4abd,66a626ef09d4e21e1a8894ec,6734a00c540c828f442d3a93,2024-11-13_13h48.40.960,Tarea de género gramatical,2024.2.2,Win32,59.88023952,,,,,,,,,,,,,,,,,,,,,,,386.8333,388.1845,l,1,[],[],[],[],[],[],[],0.6696,1,388.1846,388.6852,,,,,,1111,FEM,DIS,150,salud,el,a,0.6696,,388.6852,388.6853,-0.018229167,-0.173177083,0,0,0,,0,142,142,210,1,,,,,
,,,,,,d3c51f78bdd2b77f97ae4abd,66a626ef09d4e21e1a8894ec,6734a00c540c828f442d3a93,2024-11-13_13h48.40.960,Tarea de género gramatical,2024.2.2,Win32,59.88023952,,,,,,,,,,,,,,,,,,,,,,,388.6863,390.1411,a,1,[],[],[],[],[],[],[],0.7862,1,390.1412,390.6423,,,,,,1180,MAS,DIS,150,salón,la,l,0.7862,,390.6424,390.6424,-0.018229167,-0.173177083,0,0,0,,0,143,143,279,1,,,,,
,,,,,,d3c51f78bdd2b77f97ae4abd,66a626ef09d4e21e1a8894ec,6734a00c540c828f442d3a93,2024-11-13_13h48.40.960,Tarea de género gramatical,2024.2.2,Win32,59.88023952,,,,,,,,,,,,,,,,,,,,,,,390.6433,391.9475,l,1,[],[],[],[],[],[],[],0.6361,1,391.9475,392.4488,,,,,,1273,FEM,DIS,150,lluvia,el,a,0.6361,,392.4489,392.449,-0.018229167,-0.173177083,0,0,0,,0,144,144,372,1,,,,,
,,,,,,d3c51f78bdd2b77f97ae4abd,66a626ef09d4e21e1a8894ec,6734a00c540c828f442d3a93,2024-11-13_13h48.40.960,Tarea de género gramatical,2024.2.2,Win32,59.88023952,,,,,,,,,,,,,,,,,,,,,,,392.4502,393.6694,a,1,[],[],[],[],[],[],[],0.5541,1,393.6695,394.1707,,,,,,1114,MAS,DIS,150,fondo,la,l,0.5541,,394.1708,394.1708,-0.018229167,-0.173177083,0,0,0,,0,145,145,213,1,,,,,
,,,,,,d3c51f78bdd2b77f97ae4abd,66a626ef09d4e21e1a8894ec,6734a00c540c828f442d3a93,2024-11-13_13h48.40.960,Tarea de género gramatical,2024.2.2,Win32,59.88023952,,,,,,,,,,,,,,,,,,,,,,,394.1717,395.3415,l,1,[],[],[],[],[],[],[],0.503,1,395.3416,395.8441,,,,,,987,FEM,CON,150,risa,,a,0.503,,395.8452,395.846,-0.018229167,-0.173177083,0,0,0,,0,146,146,86,1,,,,,
,,,,,,d3c51f78bdd2b77f97ae4abd,66a626ef09d4e21e1a8894ec,6734a00c540c828f442d3a93,2024-11-13_13h48.40.960,Tarea de género gramatical,2024.2.2,Win32,59.88023952,,,,,,,,,,,,,,,,,,,,,,,395.8468,397.0645,a,1,[],[],[],[],[],[],[],0.5369,1,397.0647,397.5668,,,,,,994,MAS,DIS,150,cabo,la,l,0.5369,,397.5668,397.5669,-0.018229167,-0.173177083,0,0,0,,0,147,147,93,1,,,,,
,,,,,,d3c51f78bdd2b77f97ae4abd,66a626ef09d4e21e1a8894ec,6734a00c540c828f442d3a93,2024-11-13_13h48.40.960,Tarea de género gramatical,2024.2.2,Win32,59.88023952,,,,,,,,,,,,,,,,,,,,,,,397.5681,398.7536,a,1,[],[],[],[],[],[],[],0.519,1,398.7537,399.2556,,,,,,1314,MAS,CON,150,sótano,,l,0.519,,399.2558,399.2558,-0.018229167,-0.173177083,0,0,0,,0,148,148,413,1,,,,,
,,,,,,d3c51f78bdd2b77f97ae4abd,66a626ef09d4e21e1a8894ec,6734a00c540c828f442d3a93,2024-11-13_13h48.40.960,Tarea de género gramatical,2024.2.2,Win32,59.88023952,,,,,,,,,,,,,,,,,,,,,,,399.2569,400.3594,a,1,[],[],[],[],[],[],[],0.4359,1,400.3594,400.8617,,,,,,1073,MAS,AGR,150,libro,el,l,0.4359,,400.8617,400.8618,-0.018229167,-0.173177083,0,0,0,,0,149,149,172,1,,,,,
,,,,,,d3c51f78bdd2b77f97ae4abd,66a626ef09d4e21e1a8894ec,6734a00c540c828f442d3a93,2024-11-13_13h48.40.960,Tarea de género gramatical,2024.2.2,Win32,59.88023952,,,,,,,,,,,,,,,,,,,,,,,400.8633,402.1156,a,1,[],[],[],[],[],[],[],0.5852,1,402.1156,402.6171,,,,,,1134,MAS,CON,150,héroe,,l,0.5852,,402.6185,408.8238,0.0546875,-0.40234375,1,0,0,,0,150,150,233,1,break_done_button,,,,
,,,,,,d3c51f78bdd2b77f97ae4abd,66a626ef09d4e21e1a8894ec,6734a00c540c828f442d3a93,2024-11-13_13h48.40.960,Tarea de género gramatical,2024.2.2,Win32,59.88023952,,,,,,,,,,,,,,,,,,,,,,,408.8248,411.4653,,0,[],[],[],[],[],[],[],0.5852,-1,411.4662,411.9675,,,,,,1022,FEM,AGR,150,loca,la,a,,,411.9676,411.9677,0.0546875,-0.40234375,0,0,0,,0,151,151,121,1,,,,,
,,,,,,d3c51f78bdd2b77f97ae4abd,66a626ef09d4e21e1a8894ec,6734a00c540c828f442d3a93,2024-11-13_13h48.40.960,Tarea de género gramatical,2024.2.2,Win32,59.88023952,,,,,,,,,,,,,,,,,,,,,,,411.9687,413.3045,l,1,[],[],[],[],[],[],[],0.6681,1,413.3052,413.8068,,,,,,1227,FEM,CON,150,tienda,,a,0.6681,,413.8068,413.8068,0.0546875,-0.40234375,0,0,0,,0,152,152,326,1,,,,,
,,,,,,d3c51f78bdd2b77f97ae4abd,66a626ef09d4e21e1a8894ec,6734a00c540c828f442d3a93,2024-11-13_13h48.40.960,Tarea de género gramatical,2024.2.2,Win32,59.88023952,,,,,,,,,,,,,,,,,,,,,,,413.8077,414.9605,a,1,[],[],[],[],[],[],[],0.4859,1,414.9607,415.4622,,,,,,1133,MAS,AGR,150,golpe,el,l,0.4859,,415.4623,415.4624,0.0546875,-0.40234375,0,0,0,,0,153,153,232,1,,,,,
,,,,,,d3c51f78bdd2b77f97ae4abd,66a626ef09d4e21e1a8894ec,6734a00c540c828f442d3a93,2024-11-13_13h48.40.960,Tarea de género gramatical,2024.2.2,Win32,59.88023952,,,,,,,,,,,,,,,,,,,,,,,415.4635,416.6495,l,1,[],[],[],[],[],[],[],0.5187,1,416.6497,417.1519,,,,,,1177,FEM,DIS,150,plaza,el,a,0.5187,,417.152,417.152,0.0546875,-0.40234375,0,0,0,,0,154,154,276,1,,,,,
,,,,,,d3c51f78bdd2b77f97ae4abd,66a626ef09d4e21e1a8894ec,6734a00c540c828f442d3a93,2024-11-13_13h48.40.960,Tarea de género gramatical,2024.2.2,Win32,59.88023952,,,,,,,,,,,,,,,,,,,,,,,417.1531,418.2892,l,1,[],[],[],[],[],[],[],0.4691,1,418.2893,418.7914,,,,,,1029,FEM,CON,150,rana,,a,0.4691,,418.7927,418.7938,0.0546875,-0.40234375,0,0,0,,0,155,155,128,1,,,,,
,,,,,,d3c51f78bdd2b77f97ae4abd,66a626ef09d4e21e1a8894ec,6734a00c540c828f442d3a93,2024-11-13_13h48.40.960,Tarea de género gramatical,2024.2.2,Win32,59.88023952,,,,,,,,,,,,,,,,,,,,,,,418.7947,419.8951,l,1,[],[],[],[],[],[],[],0.4197,1,419.8952,420.3968,,,,,,969,FEM,CON,150,rata,,a,0.4197,,420.3969,420.397,0.0546875,-0.40234375,0,0,0,,0,156,156,68,1,,,,,
,,,,,,d3c51f78bdd2b77f97ae4abd,66a626ef09d4e21e1a8894ec,6734a00c540c828f442d3a93,2024-11-13_13h48.40.960,Tarea de género gramatical,2024.2.2,Win32,59.88023952,,,,,,,,,,,,,,,,,,,,,,,420.3982,421.5009,a,1,[],[],[],[],[],[],[],0.437,1,421.501,422.0027,,,,,,1300,MAS,DIS,150,barrio,la,l,0.437,,422.0028,422.0029,0.0546875,-0.40234375,0,0,0,,0,157,157,399,1,,,,,
,,,,,,d3c51f78bdd2b77f97ae4abd,66a626ef09d4e21e1a8894ec,6734a00c540c828f442d3a93,2024-11-13_13h48.40.960,Tarea de género gramatical,2024.2.2,Win32,59.88023952,,,,,,,,,,,,,,,,,,,,,,,422.0037,423.0893,a,1,[],[],[],[],[],[],[],0.4181,1,423.0894,423.5914,,,,,,1026,MAS,CON,150,lazo,,l,0.4181,,423.5914,423.5915,0.0546875,-0.40234375,0,0,0,,0,158,158,125,1,,,,,
,,,,,,d3c51f78bdd2b77f97ae4abd,66a626ef09d4e21e1a8894ec,6734a00c540c828f442d3a93,2024-11-13_13h48.40.960,Tarea de género gramatical,2024.2.2,Win32,59.88023952,,,,,,,,,,,,,,,,,,,,,,,423.5925,424.7441,l,1,[],[],[],[],[],[],[],0.4866,1,424.7442,425.2465,,,,,,1243,FEM,DIS,150,trampa,el,a,0.4866,,425.2477,425.2491,0.0546875,-0.40234375,0,0,0,,0,159,159,342,1,,,,,
,,,,,,d3c51f78bdd2b77f97ae4abd,66a626ef09d4e21e1a8894ec,6734a00c540c828f442d3a93,2024-11-13_13h48.40.960,Tarea de género gramatical,2024.2.2,Win32,59.88023952,,,,,,,,,,,,,,,,,,,,,,,425.2509,426.4008,a,1,[],[],[],[],[],[],[],0.4711,1,426.401,426.902,,,,,,1282,MAS,DIS,150,teatro,la,l,0.4711,,426.902,426.9022,0.0546875,-0.40234375,0,0,0,,0,160,160,381,1,,,,,
,,,,,,d3c51f78bdd2b77f97ae4abd,66a626ef09d4e21e1a8894ec,6734a00c540c828f442d3a93,2024-11-13_13h48.40.960,Tarea de género gramatical,2024.2.2,Win32,59.88023952,,,,,,,,,,,,,,,,,,,,,,,426.9038,428.1736,a,1,[],[],[],[],[],[],[],0.6038,1,428.1736,428.6753,,,,,,976,MAS,DIS,150,lujo,la,l,0.6038,,428.6754,428.6755,0.0546875,-0.40234375,0,0,0,,0,161,161,75,1,,,,,
,,,,,,d3c51f78bdd2b77f97ae4abd,66a626ef09d4e21e1a8894ec,6734a00c540c828f442d3a93,2024-11-13_13h48.40.960,Tarea de género gramatical,2024.2.2,Win32,59.88023952,,,,,,,,,,,,,,,,,,,,,,,428.6764,429.7951,a,1,[],[],[],[],[],[],[],0.4533,1,429.7952,430.2979,,,,,,1277,MAS,AGR,150,jardín,el,l,0.4533,,430.2979,430.298,0.0546875,-0.40234375,0,0,0,,0,162,162,376,1,,,,,
,,,,,,d3c51f78bdd2b77f97ae4abd,66a626ef09d4e21e1a8894ec,6734a00c540c828f442d3a93,2024-11-13_13h48.40.960,Tarea de género gramatical,2024.2.2,Win32,59.88023952,,,,,,,,,,,,,,,,,,,,,,,430.299,431.4192,l,1,[],[],[],[],[],[],[],0.4514,1,431.4193,431.9204,,,,,,1070,FEM,AGR,150,carta,la,a,0.4514,,431.9205,431.9205,0.0546875,-0.40234375,0,0,0,,0,163,163,169,1,,,,,
,,,,,,d3c51f78bdd2b77f97ae4abd,66a626ef09d4e21e1a8894ec,6734a00c540c828f442d3a93,2024-11-13_13h48.40.960,Tarea de género gramatical,2024.2.2,Win32,59.88023952,,,,,,,,,,,,,,,,,,,,,,,431.9214,433.1576,l,1,[],[],[],[],[],[],[],0.5695,1,433.1578,433.6598,,,,,,1082,FEM,AGR,150,prisa,la,a,0.5695,,433.6609,433.6618,0.0546875,-0.40234375,0,0,0,,0,164,164,181,1,,,,,
,,,,,,d3c51f78bdd2b77f97ae4abd,66a626ef09d4e21e1a8894ec,6734a00c540c828f442d3a93,2024-11-13_13h48.40.960,Tarea de género gramatical,2024.2.2,Win32,59.88023952,,,,,,,,,,,,,,,,,,,,,,,433.6629,434.8641,l,1,[],[],[],[],[],[],[],0.5185,1,434.8642,435.3654,,,,,,967,FEM,DIS,150,miel,el,a,0.5185,,435.3655,435.3656,0.0546875,-0.40234375,0,0,0,,0,165,165,66,1,,,,,
,,,,,,d3c51f78bdd2b77f97ae4abd,66a626ef09d4e21e1a8894ec,6734a00c540c828f442d3a93,2024-11-13_13h48.40.960,Tarea de género gramatical,2024.2.2,Win32,59.88023952,,,,,,,,,,,,,,,,,,,,,,,435.3667,436.4531,l,1,[],[],[],[],[],[],[],0.4193,1,436.4532,436.9548,,,,,,1137,FEM,CON,150,ducha,,a,0.4193,,436.9548,436.9549,0.0546875,-0.40234375,0,0,0,,0,166,166,236,1,,,,,
,,,,,,d3c51f78bdd2b77f97ae4abd,66a626ef09d4e21e1a8894ec,6734a00c540c828f442d3a93,2024-11-13_13h48.40.960,Tarea de género gramatical,2024.2.2,Win32,59.88023952,,,,,,,,,,,,,,,,,,,,,,,436.9558,438.0416,a,0,[],[],[],[],[],[],[],0.4204,0,438.0423,438.5433,,,,,,1051,FEM,DIS,150,noche,el,a,0.4204,,438.5433,438.5434,0.0546875,-0.40234375,0,0,0,,0,167,167,150,1,,,,,
,,,,,,d3c51f78bdd2b77f97ae4abd,66a626ef09d4e21e1a8894ec,6734a00c540c828f442d3a93,2024-11-13_13h48.40.960,Tarea de género gramatical,2024.2.2,Win32,59.88023952,,,,,,,,,,,,,,,,,,,,,,,438.5443,439.9991,l,1,[],[],[],[],[],[],[],0.7898,1,440.0001,440.5003,,,,,,1251,FEM,CON,150,espada,,a,0.7898,,440.5016,440.5024,0.0546875,-0.40234375,0,0,0,,0,168,168,350,1,,,,,
,,,,,,d3c51f78bdd2b77f97ae4abd,66a626ef09d4e21e1a8894ec,6734a00c540c828f442d3a93,2024-11-13_13h48.40.960,Tarea de género gramatical,2024.2.2,Win32,59.88023952,,,,,,,,,,,,,,,,,,,,,,,440.5031,441.7042,a,1,[],[],[],[],[],[],[],0.5198,1,441.7044,442.2066,,,,,,904,MAS,DIS,150,hijo,la,l,0.5198,,442.2066,442.2067,0.0546875,-0.40234375,0,0,0,,0,169,169,3,1,,,,,
,,,,,,d3c51f78bdd2b77f97ae4abd,66a626ef09d4e21e1a8894ec,6734a00c540c828f442d3a93,2024-11-13_13h48.40.960,Tarea de género gramatical,2024.2.2,Win32,59.88023952,,,,,,,,,,,,,,,,,,,,,,,442.2076,443.3767,l,1,[],[],[],[],[],[],[],0.5025,1,443.3768,443.8792,,,,,,1069,FEM,DIS,150,vista,el,a,0.5025,,443.8792,443.8793,0.0546875,-0.40234375,0,0,0,,0,170,170,168,1,,,,,
,,,,,,d3c51f78bdd2b77f97ae4abd,66a626ef09d4e21e1a8894ec,6734a00c540c828f442d3a93,2024-11-13_13h48.40.960,Tarea de género gramatical,2024.2.2,Win32,59.88023952,,,,,,,,,,,,,,,,,,,,,,,443.8804,445.0832,a,1,[],[],[],[],[],[],[],0.5382,1,445.0833,445.585,,,,,,1074,MAS,CON,150,perro,,l,0.5382,,445.5851,445.5853,0.0546875,-0.40234375,0,0,0,,0,171,171,173,1,,,,,
,,,,,,d3c51f78bdd2b77f97ae4abd,66a626ef09d4e21e1a8894ec,6734a00c540c828f442d3a93,2024-11-13_13h48.40.960,Tarea de género gramatical,2024.2.2,Win32,59.88023952,,,,,,,,,,,,,,,,,,,,,,,445.5862,446.7889,l,1,[],[],[],[],[],[],[],0.5355,1,446.789,447.2904,,,,,,1105,FEM,DIS,150,reina,el,a,0.5355,,447.2904,447.2905,0.0546875,-0.40234375,0,0,0,,0,172,172,204,1,,,,,
,,,,,,d3c51f78bdd2b77f97ae4abd,66a626ef09d4e21e1a8894ec,6734a00c540c828f442d3a93,2024-11-13_13h48.40.960,Tarea de género gramatical,2024.2.2,Win32,59.88023952,,,,,,,,,,,,,,,,,,,,,,,447.2914,448.5788,a,1,[],[],[],[],[],[],[],0.6208,1,448.5789,449.08,,,,,,1247,MAS,AGR,150,cuello,el,l,0.6208,,449.0812,449.0826,0.0546875,-0.40234375,0,0,0,,0,173,173,346,1,,,,,
,,,,,,d3c51f78bdd2b77f97ae4abd,66a626ef09d4e21e1a8894ec,6734a00c540c828f442d3a93,2024-11-13_13h48.40.960,Tarea de género gramatical,2024.2.2,Win32,59.88023952,,,,,,,,,,,,,,,,,,,,,,,449.0841,450.284,a,1,[],[],[],[],[],[],[],0.5199,1,450.2843,450.786,,,,,,1014,MAS,CON,150,menú,,l,0.5199,,450.786,450.7862,0.0546875,-0.40234375,0,0,0,,0,174,174,113,1,,,,,
,,,,,,d3c51f78bdd2b77f97ae4abd,66a626ef09d4e21e1a8894ec,6734a00c540c828f442d3a93,2024-11-13_13h48.40.960,Tarea de género gramatical,2024.2.2,Win32,59.88023952,,,,,,,,,,,,,,,,,,,,,,,450.7873,451.9406,a,1,[],[],[],[],[],[],[],0.488,1,451.9407,452.4418,,,,,,905,MAS,AGR,150,tipo,el,l,0.488,,452.4419,452.442,0.0546875,-0.40234375,0,0,0,,0,175,175,4,1,,,,,
,,,,,,d3c51f78bdd2b77f97ae4abd,66a626ef09d4e21e1a8894ec,6734a00c540c828f442d3a93,2024-11-13_13h48.40.960,Tarea de género gramatical,2024.2.2,Win32,59.88023952,,,,,,,,,,,,,,,,,,,,,,,452.4428,453.5292,a,1,[],[],[],[],[],[],[],0.4198,1,453.5293,454.031,,,,,,1288,MAS,DIS,150,empleo,la,l,0.4198,,454.0311,454.0312,0.0546875,-0.40234375,0,0,0,,0,176,176,387,1,,,,,
,,,,,,d3c51f78bdd2b77f97ae4abd,66a626ef09d4e21e1a8894ec,6734a00c540c828f442d3a93,2024-11-13_13h48.40.960,Tarea de género gramatical,2024.2.2,Win32,59.88023952,,,,,,,,,,,,,,,,,,,,,,,454.0329,455.1513,a,1,[],[],[],[],[],[],[],0.4517,1,455.1514,455.6539,,,,,,1031,MAS,AGR,150,kilo,el,l,0.4517,,455.6552,455.6561,0.0546875,-0.40234375,0,0,0,,0,177,177,130,1,,,,,
,,,,,,d3c51f78bdd2b77f97ae4abd,66a626ef09d4e21e1a8894ec,6734a00c540c828f442d3a93,2024-11-13_13h48.40.960,Tarea de género gramatical,2024.2.2,Win32,59.88023952,,,,,,,,,,,,,,,,,,,,,,,455.657,456.8122,a,1,[],[],[],[],[],[],[],0.4689,1,456.8123,457.3085,,,,,,1092,MAS,CON,150,grupo,,l,0.4689,,457.3085,457.3087,0.0546875,-0.40234375,0,0,0,,0,178,178,191,1,,,,,
,,,,,,d3c51f78bdd2b77f97ae4abd,66a626ef09d4e21e1a8894ec,6734a00c540c828f442d3a93,2024-11-13_13h48.40.960,Tarea de género gramatical,2024.2.2,Win32,59.88023952,,,,,,,,,,,,,,,,,,,,,,,457.3095,458.4796,a,1,[],[],[],[],[],[],[],0.5041,1,458.4797,458.9815,,,,,,1349,MAS,AGR,150,payaso,el,l,0.5041,,458.9816,458.9817,0.0546875,-0.40234375,0,0,0,,0,179,179,448,1,,,,,
,,,,,,d3c51f78bdd2b77f97ae4abd,66a626ef09d4e21e1a8894ec,6734a00c540c828f442d3a93,2024-11-13_13h48.40.960,Tarea de género gramatical,2024.2.2,Win32,59.88023952,,,,,,,,,,,,,,,,,,,,,,,458.9829,460.0853,l,1,[],[],[],[],[],[],[],0.4358,1,460.0853,460.5872,,,,,,1141,FEM,DIS,150,pasta,el,a,0.4358,,460.5872,460.5873,0.0546875,-0.40234375,0,0,0,,0,180,180,240,1,,,,,
,,,,,,d3c51f78bdd2b77f97ae4abd,66a626ef09d4e21e1a8894ec,6734a00c540c828f442d3a93,2024-11-13_13h48.40.960,Tarea de género gramatical,2024.2.2,Win32,59.88023952,,,,,,,,,,,,,,,,,,,,,,,460.5885,461.6903,a,1,[],[],[],[],[],[],[],0.4369,1,461.6903,462.1929,,,,,,1079,MAS,AGR,150,viaje,el,l,0.4369,,462.193,462.193,0.0546875,-0.40234375,0,0,0,,0,181,181,178,1,,,,,
,,,,,,d3c51f78bdd2b77f97ae4abd,66a626ef09d4e21e1a8894ec,6734a00c540c828f442d3a93,2024-11-13_13h48.40.960,Tarea de género gramatical,2024.2.2,Win32,59.88023952,,,,,,,,,,,,,,,,,,,,,,,462.1939,463.296,a,1,[],[],[],[],[],[],[],0.4359,1,463.2962,463.7975,,,,,,1272,MAS,CON,150,delito,,l,0.4359,,463.7992,463.8005,0.0546875,-0.40234375,0,0,0,,0,182,182,371,1,,,,,
,,,,,,d3c51f78bdd2b77f97ae4abd,66a626ef09d4e21e1a8894ec,6734a00c540c828f442d3a93,2024-11-13_13h48.40.960,Tarea de género gramatical,2024.2.2,Win32,59.88023952,,,,,,,,,,,,,,,,,,,,,,,463.8016,464.9018,a,0,[],[],[],[],[],[],[],0.4202,0,464.9024,465.4032,,,,,,1167,FEM,CON,150,barba,,a,0.4202,,465.4033,465.4034,0.0546875,-0.40234375,0,0,0,,0,183,183,266,1,,,,,
,,,,,,d3c51f78bdd2b77f97ae4abd,66a626ef09d4e21e1a8894ec,6734a00c540c828f442d3a93,2024-11-13_13h48.40.960,Tarea de género gramatical,2024.2.2,Win32,59.88023952,,,,,,,,,,,,,,,,,,,,,,,465.4051,466.7251,a,1,[],[],[],[],[],[],[],0.6515,1,466.7258,467.2268,,,,,,965,MAS,AGR,150,rayo,el,l,0.6515,,467.2269,467.2269,0.0546875,-0.40234375,0,0,0,,0,184,184,64,1,,,,,
,,,,,,d3c51f78bdd2b77f97ae4abd,66a626ef09d4e21e1a8894ec,6734a00c540c828f442d3a93,2024-11-13_13h48.40.960,Tarea de género gramatical,2024.2.2,Win32,59.88023952,,,,,,,,,,,,,,,,,,,,,,,467.2279,468.3473,l,1,[],[],[],[],[],[],[],0.4503,1,468.3474,468.8361,,,,,,1004,FEM,AGR,150,vela,la,a,0.4503,,468.8362,468.8363,0.0546875,-0.40234375,0,0,0,,0,185,185,103,1,,,,,
,,,,,,d3c51f78bdd2b77f97ae4abd,66a626ef09d4e21e1a8894ec,6734a00c540c828f442d3a93,2024-11-13_13h48.40.960,Tarea de género gramatical,2024.2.2,Win32,59.88023952,,,,,,,,,,,,,,,,,,,,,,,468.838,470.2206,a,1,[],[],[],[],[],[],[],0.7032,1,470.2207,470.7222,,,,,,1242,MAS,CON,150,abuelo,,l,0.7032,,470.7234,470.7242,0.0546875,-0.40234375,0,0,0,,0,186,186,341,1,,,,,
,,,,,,d3c51f78bdd2b77f97ae4abd,66a626ef09d4e21e1a8894ec,6734a00c540c828f442d3a93,2024-11-13_13h48.40.960,Tarea de género gramatical,2024.2.2,Win32,59.88023952,,,,,,,,,,,,,,,,,,,,,,,470.725,472.4124,a,1,[],[],[],[],[],[],[],1.0045,1,472.4124,472.9135,,,,,,1295,MAS,AGR,150,correo,el,l,1.0045,,472.9136,472.9137,0.0546875,-0.40234375,0,0,0,,0,187,187,394,1,,,,,
,,,,,,d3c51f78bdd2b77f97ae4abd,66a626ef09d4e21e1a8894ec,6734a00c540c828f442d3a93,2024-11-13_13h48.40.960,Tarea de género gramatical,2024.2.2,Win32,59.88023952,,,,,,,,,,,,,,,,,,,,,,,472.9149,474.2685,a,1,[],[],[],[],[],[],[],0.6865,1,474.2686,474.7694,,,,,,928,MAS,DIS,150,club,la,l,0.6865,,474.7695,474.7696,0.0546875,-0.40234375,0,0,0,,0,188,188,27,1,,,,,
,,,,,,d3c51f78bdd2b77f97ae4abd,66a626ef09d4e21e1a8894ec,6734a00c540c828f442d3a93,2024-11-13_13h48.40.960,Tarea de género gramatical,2024.2.2,Win32,59.88023952,,,,,,,,,,,,,,,,,,,,,,,474.7708,476.3429,a,1,[],[],[],[],[],[],[],0.9045,1,476.3429,476.844,,,,,,1210,MAS,DIS,150,nombre,la,l,0.9045,,476.8441,476.8442,0.0546875,-0.40234375,0,0,0,,0,189,189,309,1,,,,,
,,,,,,d3c51f78bdd2b77f97ae4abd,66a626ef09d4e21e1a8894ec,6734a00c540c828f442d3a93,2024-11-13_13h48.40.960,Tarea de género gramatical,2024.2.2,Win32,59.88023952,,,,,,,,,,,,,,,,,,,,,,,476.8451,478.4666,a,1,[],[],[],[],[],[],[],0.9563,1,478.4667,478.9682,,,,,,1056,MAS,CON,150,amigo,,l,0.9563,,478.9683,478.9684,0.0546875,-0.40234375,0,0,0,,0,190,190,155,1,,,,,
,,,,,,d3c51f78bdd2b77f97ae4abd,66a626ef09d4e21e1a8894ec,6734a00c540c828f442d3a93,2024-11-13_13h48.40.960,Tarea de género gramatical,2024.2.2,Win32,59.88023952,,,,,,,,,,,,,,,,,,,,,,,478.9693,480.3065,a,1,[],[],[],[],[],[],[],0.6695,1,480.3066,480.8086,,,,,,1198,MAS,DIS,150,botón,la,l,0.6695,,480.8099,480.8107,0.0546875,-0.40234375,0,0,0,,0,191,191,297,1,,,,,
,,,,,,d3c51f78bdd2b77f97ae4abd,66a626ef09d4e21e1a8894ec,6734a00c540c828f442d3a93,2024-11-13_13h48.40.960,Tarea de género gramatical,2024.2.2,Win32,59.88023952,,,,,,,,,,,,,,,,,,,,,,,480.8119,482.095,a,1,[],[],[],[],[],[],[],0.602,1,482.0951,482.5977,,,,,,1072,MAS,DIS,150,poder,la,l,0.602,,482.5978,482.5979,0.0546875,-0.40234375,0,0,0,,0,192,192,171,1,,,,,
,,,,,,d3c51f78bdd2b77f97ae4abd,66a626ef09d4e21e1a8894ec,6734a00c540c828f442d3a93,2024-11-13_13h48.40.960,Tarea de género gramatical,2024.2.2,Win32,59.88023952,,,,,,,,,,,,,,,,,,,,,,,482.5991,483.7518,l,1,[],[],[],[],[],[],[],0.4857,1,483.7519,484.2536,,,,,,1291,FEM,DIS,150,altura,el,a,0.4857,,484.2536,484.2537,0.0546875,-0.40234375,0,0,0,,0,193,193,390,1,,,,,
,,,,,,d3c51f78bdd2b77f97ae4abd,66a626ef09d4e21e1a8894ec,6734a00c540c828f442d3a93,2024-11-13_13h48.40.960,Tarea de género gramatical,2024.2.2,Win32,59.88023952,,,,,,,,,,,,,,,,,,,,,,,484.2546,485.3903,a,1,[],[],[],[],[],[],[],0.4712,1,485.3904,485.8931,,,,,,1348,MAS,DIS,150,aceite,la,l,0.4712,,485.8931,485.8933,0.0546875,-0.40234375,0,0,0,,0,194,194,447,1,,,,,
,,,,,,d3c51f78bdd2b77f97ae4abd,66a626ef09d4e21e1a8894ec,6734a00c540c828f442d3a93,2024-11-13_13h48.40.960,Tarea de género gramatical,2024.2.2,Win32,59.88023952,,,,,,,,,,,,,,,,,,,,,,,485.8948,487.1461,a,1,[],[],[],[],[],[],[],0.5855,1,487.1461,487.6486,,,,,,970,MAS,DIS,150,palo,la,l,0.5855,,487.65,487.6514,0.0546875,-0.40234375,0,0,0,,0,195,195,69,1,,,,,
,,,,,,d3c51f78bdd2b77f97ae4abd,66a626ef09d4e21e1a8894ec,6734a00c540c828f442d3a93,2024-11-13_13h48.40.960,Tarea de género gramatical,2024.2.2,Win32,59.88023952,,,,,,,,,,,,,,,,,,,,,,,487.6525,488.8195,l,1,[],[],[],[],[],[],[],0.4852,1,488.8197,489.3206,,,,,,1071,FEM,CON,150,mitad,,a,0.4852,,489.3206,489.3207,0.0546875,-0.40234375,0,0,0,,0,196,196,170,1,,,,,
,,,,,,d3c51f78bdd2b77f97ae4abd,66a626ef09d4e21e1a8894ec,6734a00c540c828f442d3a93,2024-11-13_13h48.40.960,Tarea de género gramatical,2024.2.2,Win32,59.88023952,,,,,,,,,,,,,,,,,,,,,,,489.3218,490.4253,a,1,[],[],[],[],[],[],[],0.4356,1,490.4254,490.9266,,,,,,1091,MAS,AGR,150,dolor,el,l,0.4356,,490.9266,490.9268,0.0546875,-0.40234375,0,0,0,,0,197,197,190,1,,,,,
,,,,,,d3c51f78bdd2b77f97ae4abd,66a626ef09d4e21e1a8894ec,6734a00c540c828f442d3a93,2024-11-13_13h48.40.960,Tarea de género gramatical,2024.2.2,Win32,59.88023952,,,,,,,,,,,,,,,,,,,,,,,490.9278,492.1468,a,1,[],[],[],[],[],[],[],0.5521,1,492.1469,492.6492,,,,,,941,MAS,AGR,150,bote,el,l,0.5521,,492.6493,492.6494,0.0546875,-0.40234375,0,0,0,,0,198,198,40,1,,,,,
,,,,,,d3c51f78bdd2b77f97ae4abd,66a626ef09d4e21e1a8894ec,6734a00c540c828f442d3a93,2024-11-13_13h48.40.960,Tarea de género gramatical,2024.2.2,Win32,59.88023952,,,,,,,,,,,,,,,,,,,,,,,492.6503,493.8033,l,1,[],[],[],[],[],[],[],0.4852,1,493.8033,494.305,,,,,,1076,FEM,AGR,150,línea,la,a,0.4852,,494.305,494.3051,0.0546875,-0.40234375,0,0,0,,0,199,199,175,1,,,,,
,,,,,,d3c51f78bdd2b77f97ae4abd,66a626ef09d4e21e1a8894ec,6734a00c540c828f442d3a93,2024-11-13_13h48.40.960,Tarea de género gramatical,2024.2.2,Win32,59.88023952,,,,,,,,,,,,,,,,,,,,,,,494.3059,495.3918,a,1,[],[],[],[],[],[],[],0.4191,1,495.3919,495.8947,,,,,,1062,MAS,CON,150,miedo,,l,0.4191,,495.8964,495.8979,0.0546875,-0.40234375,0,0,0,,0,200,200,161,1,,,,,
,,,,,,d3c51f78bdd2b77f97ae4abd,66a626ef09d4e21e1a8894ec,6734a00c540c828f442d3a93,2024-11-13_13h48.40.960,Tarea de género gramatical,2024.2.2,Win32,59.88023952,,,,,,,,,,,,,,,,,,,,,,,495.8993,497.4996,a,1,[],[],[],[],[],[],[],0.9217,1,497.4997,498.0017,,,,,,910,MAS,DIS,150,niño,la,l,0.9217,,498.0017,498.0018,0.0546875,-0.40234375,0,0,0,,0,201,201,9,1,,,,,
,,,,,,d3c51f78bdd2b77f97ae4abd,66a626ef09d4e21e1a8894ec,6734a00c540c828f442d3a93,2024-11-13_13h48.40.960,Tarea de género gramatical,2024.2.2,Win32,59.88023952,,,,,,,,,,,,,,,,,,,,,,,498.0028,499.1725,a,1,[],[],[],[],[],[],[],0.5018,1,499.1725,499.6736,,,,,,1276,MAS,DIS,150,efecto,la,l,0.5018,,499.6737,499.6738,0.0546875,-0.40234375,0,0,0,,0,202,202,375,1,,,,,
,,,,,,d3c51f78bdd2b77f97ae4abd,66a626ef09d4e21e1a8894ec,6734a00c540c828f442d3a93,2024-11-13_13h48.40.960,Tarea de género gramatical,2024.2.2,Win32,59.88023952,,,,,,,,,,,,,,,,,,,,,,,499.6746,500.7937,a,1,[],[],[],[],[],[],[],0.4532,1,500.7937,501.2954,,,,,,1157,MAS,AGR,150,pecho,el,l,0.4532,,501.2955,501.2956,0.0546875,-0.40234375,0,0,0,,0,203,203,256,1,,,,,
,,,,,,d3c51f78bdd2b77f97ae4abd,66a626ef09d4e21e1a8894ec,6734a00c540c828f442d3a93,2024-11-13_13h48.40.960,Tarea de género gramatical,2024.2.2,Win32,59.88023952,,,,,,,,,,,,,,,,,,,,,,,501.2972,502.5003,l,1,[],[],[],[],[],[],[],0.5379,1,502.5005,503.0027,,,,,,1053,FEM,CON,150,mujer,,a,0.5379,,503.0039,503.0047,0.0546875,-0.40234375,0,0,0,,0,204,204,152,1,,,,,
,,,,,,d3c51f78bdd2b77f97ae4abd,66a626ef09d4e21e1a8894ec,6734a00c540c828f442d3a93,2024-11-13_13h48.40.960,Tarea de género gramatical,2024.2.2,Win32,59.88023952,,,,,,,,,,,,,,,,,,,,,,,503.0056,504.24,l,1,[],[],[],[],[],[],[],0.5521,1,504.2401,504.7416,,,,,,997,FEM,DIS,150,capa,el,a,0.5521,,504.7417,504.7418,0.0546875,-0.40234375,0,0,0,,0,205,205,96,1,,,,,
,,,,,,d3c51f78bdd2b77f97ae4abd,66a626ef09d4e21e1a8894ec,6734a00c540c828f442d3a93,2024-11-13_13h48.40.960,Tarea de género gramatical,2024.2.2,Win32,59.88023952,,,,,,,,,,,,,,,,,,,,,,,504.7427,506.1134,l,1,[],[],[],[],[],[],[],0.703,1,506.1135,506.615,,,,,,1220,FEM,AGR,150,fiesta,la,a,0.703,,506.6152,506.6152,0.0546875,-0.40234375,0,0,0,,0,206,206,319,1,,,,,
,,,,,,d3c51f78bdd2b77f97ae4abd,66a626ef09d4e21e1a8894ec,6734a00c540c828f442d3a93,2024-11-13_13h48.40.960,Tarea de género gramatical,2024.2.2,Win32,59.88023952,,,,,,,,,,,,,,,,,,,,,,,506.6164,507.802,l,1,[],[],[],[],[],[],[],0.5213,1,507.8022,508.3038,,,,,,1028,FEM,AGR,150,leña,la,a,0.5213,,508.3039,508.304,0.0546875,-0.40234375,0,0,0,,0,207,207,127,1,,,,,
,,,,,,d3c51f78bdd2b77f97ae4abd,66a626ef09d4e21e1a8894ec,6734a00c540c828f442d3a93,2024-11-13_13h48.40.960,Tarea de género gramatical,2024.2.2,Win32,59.88023952,,,,,,,,,,,,,,,,,,,,,,,508.3049,509.7424,l,1,[],[],[],[],[],[],[],0.7691,1,509.7425,510.2446,,,,,,993,FEM,CON,150,lata,,a,0.7691,,510.2447,510.2448,0.0546875,-0.40234375,0,0,0,,0,208,208,92,1,,,,,
,,,,,,d3c51f78bdd2b77f97ae4abd,66a626ef09d4e21e1a8894ec,6734a00c540c828f442d3a93,2024-11-13_13h48.40.960,Tarea de género gramatical,2024.2.2,Win32,59.88023952,,,,,,,,,,,,,,,,,,,,,,,510.2459,511.3986,l,1,[],[],[],[],[],[],[],0.4862,1,511.3987,511.9001,,,,,,1131,FEM,CON,150,bruja,,a,0.4862,,511.9012,511.9021,0.0546875,-0.40234375,0,0,0,,0,209,209,230,1,,,,,
,,,,,,d3c51f78bdd2b77f97ae4abd,66a626ef09d4e21e1a8894ec,6734a00c540c828f442d3a93,2024-11-13_13h48.40.960,Tarea de género gramatical,2024.2.2,Win32,59.88023952,,,,,,,,,,,,,,,,,,,,,,,511.9029,513.2872,l,1,[],[],[],[],[],[],[],0.7201,1,513.2873,513.7891,,,,,,991,FEM,DIS,150,hoja,el,a,0.7201,,513.7891,513.7892,0.0546875,-0.40234375,0,0,0,,0,210,210,90,1,,,,,
,,,,,,d3c51f78bdd2b77f97ae4abd,66a626ef09d4e21e1a8894ec,6734a00c540c828f442d3a93,2024-11-13_13h48.40.960,Tarea de género gramatical,2024.2.2,Win32,59.88023952,,,,,,,,,,,,,,,,,,,,,,,513.7904,515.0103,a,1,[],[],[],[],[],[],[],0.5523,1,515.0103,515.5122,,,,,,1086,MAS,CON,150,error,,l,0.5523,,515.5123,515.5123,0.0546875,-0.40234375,0,0,0,,0,211,211,185,1,,,,,
,,,,,,d3c51f78bdd2b77f97ae4abd,66a626ef09d4e21e1a8894ec,6734a00c540c828f442d3a93,2024-11-13_13h48.40.960,Tarea de género gramatical,2024.2.2,Win32,59.88023952,,,,,,,,,,,,,,,,,,,,,,,515.5135,516.8216,l,1,[],[],[],[],[],[],[],0.6419,1,516.8217,517.3188,,,,,,1274,FEM,AGR,150,herida,la,a,0.6419,,517.3189,517.3189,0.0546875,-0.40234375,0,0,0,,0,212,212,373,1,,,,,
,,,,,,d3c51f78bdd2b77f97ae4abd,66a626ef09d4e21e1a8894ec,6734a00c540c828f442d3a93,2024-11-13_13h48.40.960,Tarea de género gramatical,2024.2.2,Win32,59.88023952,,,,,,,,,,,,,,,,,,,,,,,517.3199,518.7742,a,1,[],[],[],[],[],[],[],0.7873,1,518.7743,519.2762,,,,,,1187,MAS,AGR,150,plato,el,l,0.7873,,519.2776,519.2789,0.0546875,-0.40234375,0,0,0,,0,213,213,286,1,,,,,
,,,,,,d3c51f78bdd2b77f97ae4abd,66a626ef09d4e21e1a8894ec,6734a00c540c828f442d3a93,2024-11-13_13h48.40.960,Tarea de género gramatical,2024.2.2,Win32,59.88023952,,,,,,,,,,,,,,,,,,,,,,,519.2805,520.7804,a,1,[],[],[],[],[],[],[],0.8189,1,520.7805,521.2829,,,,,,1222,MAS,DIS,150,minuto,la,l,0.8189,,521.2829,521.283,0.0546875,-0.40234375,0,0,0,,0,214,214,321,1,,,,,
,,,,,,d3c51f78bdd2b77f97ae4abd,66a626ef09d4e21e1a8894ec,6734a00c540c828f442d3a93,2024-11-13_13h48.40.960,Tarea de género gramatical,2024.2.2,Win32,59.88023952,,,,,,,,,,,,,,,,,,,,,,,521.2841,522.5035,a,1,[],[],[],[],[],[],[],0.553,1,522.5036,523.0056,,,,,,1193,MAS,AGR,150,patio,el,l,0.553,,523.0057,523.0058,0.0546875,-0.40234375,0,0,0,,0,215,215,292,1,,,,,
,,,,,,d3c51f78bdd2b77f97ae4abd,66a626ef09d4e21e1a8894ec,6734a00c540c828f442d3a93,2024-11-13_13h48.40.960,Tarea de género gramatical,2024.2.2,Win32,59.88023952,,,,,,,,,,,,,,,,,,,,,,,523.0066,524.2597,l,1,[],[],[],[],[],[],[],0.5857,1,524.2597,524.7617,,,,,,932,FEM,AGR,150,caja,la,a,0.5857,,524.7618,524.7619,0.0546875,-0.40234375,0,0,0,,0,216,216,31,1,,,,,
,,,,,,d3c51f78bdd2b77f97ae4abd,66a626ef09d4e21e1a8894ec,6734a00c540c828f442d3a93,2024-11-13_13h48.40.960,Tarea de género gramatical,2024.2.2,Win32,59.88023952,,,,,,,,,,,,,,,,,,,,,,,524.7631,525.9489,l,1,[],[],[],[],[],[],[],0.5196,1,525.949,526.4507,,,,,,1322,FEM,AGR,150,rutina,la,a,0.5196,,526.4507,526.4508,0.0546875,-0.40234375,0,0,0,,0,217,217,421,1,,,,,
,,,,,,d3c51f78bdd2b77f97ae4abd,66a626ef09d4e21e1a8894ec,6734a00c540c828f442d3a93,2024-11-13_13h48.40.960,Tarea de género gramatical,2024.2.2,Win32,59.88023952,,,,,,,,,,,,,,,,,,,,,,,526.4517,527.9732,l,1,[],[],[],[],[],[],[],0.854,1,527.9732,528.475,,,,,,1106,FEM,AGR,150,época,la,a,0.854,,528.4762,528.4773,0.0546875,-0.40234375,0,0,0,,0,218,218,205,1,,,,,
,,,,,,d3c51f78bdd2b77f97ae4abd,66a626ef09d4e21e1a8894ec,6734a00c540c828f442d3a93,2024-11-13_13h48.40.960,Tarea de género gramatical,2024.2.2,Win32,59.88023952,,,,,,,,,,,,,,,,,,,,,,,528.4786,529.6282,l,1,[],[],[],[],[],[],[],0.4703,1,529.6282,530.1315,,,,,,920,FEM,AGR,150,ropa,la,a,0.4703,,530.1316,530.1316,0.0546875,-0.40234375,0,0,0,,0,219,219,19,1,,,,,
,,,,,,d3c51f78bdd2b77f97ae4abd,66a626ef09d4e21e1a8894ec,6734a00c540c828f442d3a93,2024-11-13_13h48.40.960,Tarea de género gramatical,2024.2.2,Win32,59.88023952,,,,,,,,,,,,,,,,,,,,,,,530.1325,531.3853,l,1,[],[],[],[],[],[],[],0.5856,1,531.3854,531.8866,,,,,,1269,FEM,CON,150,camisa,,a,0.5856,,531.8866,531.8867,0.0546875,-0.40234375,0,0,0,,0,220,220,368,1,,,,,
,,,,,,d3c51f78bdd2b77f97ae4abd,66a626ef09d4e21e1a8894ec,6734a00c540c828f442d3a93,2024-11-13_13h48.40.960,Tarea de género gramatical,2024.2.2,Win32,59.88023952,,,,,,,,,,,,,,,,,,,,,,,531.8876,533.0247,a,1,[],[],[],[],[],[],[],0.4681,1,533.0248,533.5259,,,,,,1068,MAS,CON,150,sitio,,l,0.4681,,533.526,533.5261,0.0546875,-0.40234375,0,0,0,,0,221,221,167,1,,,,,
,,,,,,d3c51f78bdd2b77f97ae4abd,66a626ef09d4e21e1a8894ec,6734a00c540c828f442d3a93,2024-11-13_13h48.40.960,Tarea de género gramatical,2024.2.2,Win32,59.88023952,,,,,,,,,,,,,,,,,,,,,,,533.527,534.713,l,1,[],[],[],[],[],[],[],0.5181,1,534.7132,535.2148,,,,,,1065,FEM,CON,150,amiga,,a,0.5181,,535.2159,535.2166,0.0546875,-0.40234375,0,0,0,,0,222,222,164,1,,,,,
,,,,,,d3c51f78bdd2b77f97ae4abd,66a626ef09d4e21e1a8894ec,6734a00c540c828f442d3a93,2024-11-13_13h48.40.960,Tarea de género gramatical,2024.2.2,Win32,59.88023952,,,,,,,,,,,,,,,,,,,,,,,535.2174,536.4361,l,1,[],[],[],[],[],[],[],0.5346,1,536.4361,536.9378,,,,,,1340,FEM,AGR,150,patada,la,a,0.5346,,536.9379,536.9379,0.0546875,-0.40234375,0,0,0,,0,223,223,439,1,,,,,
,,,,,,d3c51f78bdd2b77f97ae4abd,66a626ef09d4e21e1a8894ec,6734a00c540c828f442d3a93,2024-11-13_13h48.40.960,Tarea de género gramatical,2024.2.2,Win32,59.88023952,,,,,,,,,,,,,,,,,,,,,,,536.9388,538.0412,l,1,[],[],[],[],[],[],[],0.4355,1,538.0413,538.5434,,,,,,901,FEM,DIS,150,casa,el,a,0.4355,,538.5434,538.5435,0.0546875,-0.40234375,0,0,0,,0,224,224,0,1,,,,,
,,,,,,d3c51f78bdd2b77f97ae4abd,66a626ef09d4e21e1a8894ec,6734a00c540c828f442d3a93,2024-11-13_13h48.40.960,Tarea de género gramatical,2024.2.2,Win32,59.88023952,,,,,,,,,,,,,,,,,,,,,,,538.5446,539.7481,l,1,[],[],[],[],[],[],[],0.5344,1,539.7483,540.2488,,,,,,973,FEM,DIS,150,roca,el,a,0.5344,,540.2488,540.249,0.0546875,-0.40234375,0,0,0,,0,225,225,72,1,,,,,
,,,,,,d3c51f78bdd2b77f97ae4abd,66a626ef09d4e21e1a8894ec,6734a00c540c828f442d3a93,2024-11-13_13h48.40.960,Tarea de género gramatical,2024.2.2,Win32,59.88023952,,,,,,,,,,,,,,,,,,,,,,,540.2499,541.57,l,1,[],[],[],[],[],[],[],0.6521,1,541.5702,542.0715,,,,,,1263,FEM,CON,150,unidad,,a,0.6521,,542.0716,542.0716,0.0546875,-0.40234375,0,0,0,,0,226,226,362,1,,,,,
,,,,,,d3c51f78bdd2b77f97ae4abd,66a626ef09d4e21e1a8894ec,6734a00c540c828f442d3a93,2024-11-13_13h48.40.960,Tarea de género gramatical,2024.2.2,Win32,59.88023952,,,,,,,,,,,,,,,,,,,,,,,542.0731,543.3596,l,1,[],[],[],[],[],[],[],0.6205,1,543.3599,543.8618,,,,,,1305,FEM,CON,150,parada,,a,0.6205,,543.8635,543.8647,0.0546875,-0.40234375,0,0,0,,0,227,227,404,1,,,,,
,,,,,,d3c51f78bdd2b77f97ae4abd,66a626ef09d4e21e1a8894ec,6734a00c540c828f442d3a93,2024-11-13_13h48.40.960,Tarea de género gramatical,2024.2.2,Win32,59.88023952,,,,,,,,,,,,,,,,,,,,,,,543.8654,545.0495,a,1,[],[],[],[],[],[],[],0.5021,1,545.0496,545.551,,,,,,958,MAS,DIS,150,mono,la,l,0.5021,,545.5511,545.5511,0.0546875,-0.40234375,0,0,0,,0,228,228,57,1,,,,,
,,,,,,d3c51f78bdd2b77f97ae4abd,66a626ef09d4e21e1a8894ec,6734a00c540c828f442d3a93,2024-11-13_13h48.40.960,Tarea de género gramatical,2024.2.2,Win32,59.88023952,,,,,,,,,,,,,,,,,,,,,,,545.552,546.6717,a,1,[],[],[],[],[],[],[],0.4529,1,546.6718,547.1735,,,,,,1158,MAS,CON,150,polvo,,l,0.4529,,547.1735,547.1736,0.0546875,-0.40234375,0,0,0,,0,229,229,257,1,,,,,
,,,,,,d3c51f78bdd2b77f97ae4abd,66a626ef09d4e21e1a8894ec,6734a00c540c828f442d3a93,2024-11-13_13h48.40.960,Tarea de género gramatical,2024.2.2,Win32,59.88023952,,,,,,,,,,,,,,,,,,,,,,,547.1745,548.4618,l,1,[],[],[],[],[],[],[],0.62,1,548.4619,548.9631,,,,,,1185,FEM,CON,150,mafia,,a,0.62,,548.9632,548.9633,0.0546875,-0.40234375,0,0,0,,0,230,230,284,1,,,,,
,,,,,,d3c51f78bdd2b77f97ae4abd,66a626ef09d4e21e1a8894ec,6734a00c540c828f442d3a93,2024-11-13_13h48.40.960,Tarea de género gramatical,2024.2.2,Win32,59.88023952,,,,,,,,,,,,,,,,,,,,,,,548.9645,550.1671,l,1,[],[],[],[],[],[],[],0.5356,1,550.1672,550.6693,,,,,,1178,FEM,AGR,150,presa,la,a,0.5356,,550.6707,550.6716,0.0546875,-0.40234375,0,0,0,,0,231,231,277,1,,,,,
,,,,,,d3c51f78bdd2b77f97ae4abd,66a626ef09d4e21e1a8894ec,6734a00c540c828f442d3a93,2024-11-13_13h48.40.960,Tarea de género gramatical,2024.2.2,Win32,59.88023952,,,,,,,,,,,,,,,,,,,,,,,550.6723,551.7726,a,1,[],[],[],[],[],[],[],0.4189,1,551.7727,552.2744,,,,,,1181,MAS,AGR,150,actor,el,l,0.4189,,552.2745,552.2745,0.0546875,-0.40234375,0,0,0,,0,232,232,280,1,,,,,
,,,,,,d3c51f78bdd2b77f97ae4abd,66a626ef09d4e21e1a8894ec,6734a00c540c828f442d3a93,2024-11-13_13h48.40.960,Tarea de género gramatical,2024.2.2,Win32,59.88023952,,,,,,,,,,,,,,,,,,,,,,,552.2756,553.6295,l,1,[],[],[],[],[],[],[],0.6864,1,553.6297,554.1317,,,,,,998,FEM,AGR,150,fuga,la,a,0.6864,,554.1317,554.1318,0.0546875,-0.40234375,0,0,0,,0,233,233,97,1,,,,,
,,,,,,d3c51f78bdd2b77f97ae4abd,66a626ef09d4e21e1a8894ec,6734a00c540c828f442d3a93,2024-11-13_13h48.40.960,Tarea de género gramatical,2024.2.2,Win32,59.88023952,,,,,,,,,,,,,,,,,,,,,,,554.1329,555.4357,l,1,[],[],[],[],[],[],[],0.6379,1,555.4358,555.9372,,,,,,1003,FEM,DIS,150,fama,el,a,0.6379,,555.9372,555.9373,0.0546875,-0.40234375,0,0,0,,0,234,234,102,1,,,,,
,,,,,,d3c51f78bdd2b77f97ae4abd,66a626ef09d4e21e1a8894ec,6734a00c540c828f442d3a93,2024-11-13_13h48.40.960,Tarea de género gramatical,2024.2.2,Win32,59.88023952,,,,,,,,,,,,,,,,,,,,,,,555.9383,557.076,a,1,[],[],[],[],[],[],[],0.472,1,557.0761,557.5759,,,,,,1218,MAS,CON,150,pueblo,,l,0.472,,557.576,557.5761,0.0546875,-0.40234375,0,0,0,,0,235,235,317,1,,,,,
,,,,,,d3c51f78bdd2b77f97ae4abd,66a626ef09d4e21e1a8894ec,6734a00c540c828f442d3a93,2024-11-13_13h48.40.960,Tarea de género gramatical,2024.2.2,Win32,59.88023952,,,,,,,,,,,,,,,,,,,,,,,557.5775,558.681,a,0,[],[],[],[],[],[],[],0.4357,0,558.6819,559.1823,,,,,,1155,FEM,CON,150,tribu,,a,0.4357,,559.1836,559.1851,0.0546875,-0.40234375,0,0,0,,0,236,236,254,1,,,,,
,,,,,,d3c51f78bdd2b77f97ae4abd,66a626ef09d4e21e1a8894ec,6734a00c540c828f442d3a93,2024-11-13_13h48.40.960,Tarea de género gramatical,2024.2.2,Win32,59.88023952,,,,,,,,,,,,,,,,,,,,,,,559.1862,560.6043,a,1,[],[],[],[],[],[],[],0.7389,1,560.6049,561.1049,,,,,,912,MAS,CON,150,plan,,l,0.7389,,561.105,561.1052,0.0546875,-0.40234375,0,0,0,,0,237,237,11,1,,,,,
,,,,,,d3c51f78bdd2b77f97ae4abd,66a626ef09d4e21e1a8894ec,6734a00c540c828f442d3a93,2024-11-13_13h48.40.960,Tarea de género gramatical,2024.2.2,Win32,59.88023952,,,,,,,,,,,,,,,,,,,,,,,561.1066,562.3763,l,1,[],[],[],[],[],[],[],0.6022,1,562.3764,562.8789,,,,,,980,FEM,AGR,150,vaca,la,a,0.6022,,562.879,562.8791,0.0546875,-0.40234375,0,0,0,,0,238,238,79,1,,,,,
,,,,,,d3c51f78bdd2b77f97ae4abd,66a626ef09d4e21e1a8894ec,6734a00c540c828f442d3a93,2024-11-13_13h48.40.960,Tarea de género gramatical,2024.2.2,Win32,59.88023952,,,,,,,,,,,,,,,,,,,,,,,562.8802,563.9496,l,1,[],[],[],[],[],[],[],0.405,1,563.9498,564.45,,,,,,1161,FEM,CON,150,cueva,,a,0.405,,564.4501,564.4501,0.0546875,-0.40234375,0,0,0,,0,239,239,260,1,,,,,
,,,,,,d3c51f78bdd2b77f97ae4abd,66a626ef09d4e21e1a8894ec,6734a00c540c828f442d3a93,2024-11-13_13h48.40.960,Tarea de género gramatical,2024.2.2,Win32,59.88023952,,,,,,,,,,,,,,,,,,,,,,,564.4512,565.6885,a,1,[],[],[],[],[],[],[],0.5706,1,565.6886,566.1898,,,,,,1018,MAS,DIS,150,baúl,la,l,0.5706,,566.1911,566.1922,0.0546875,-0.40234375,0,0,0,,0,240,240,117,1,,,,,
,,,,,,d3c51f78bdd2b77f97ae4abd,66a626ef09d4e21e1a8894ec,6734a00c540c828f442d3a93,2024-11-13_13h48.40.960,Tarea de género gramatical,2024.2.2,Win32,59.88023952,,,,,,,,,,,,,,,,,,,,,,,566.1933,567.3938,l,1,[],[],[],[],[],[],[],0.5199,1,567.3938,567.8959,,,,,,1233,FEM,CON,150,locura,,a,0.5199,,567.8959,567.896,0.0546875,-0.40234375,0,0,0,,0,241,241,332,1,,,,,
,,,,,,d3c51f78bdd2b77f97ae4abd,66a626ef09d4e21e1a8894ec,6734a00c540c828f442d3a93,2024-11-13_13h48.40.960,Tarea de género gramatical,2024.2.2,Win32,59.88023952,,,,,,,,,,,,,,,,,,,,,,,567.8971,569.1336,a,1,[],[],[],[],[],[],[],0.5687,1,569.1337,569.6348,,,,,,1132,MAS,DIS,150,calor,la,l,0.5687,,569.6349,569.6349,0.0546875,-0.40234375,0,0,0,,0,242,242,231,1,,,,,
,,,,,,d3c51f78bdd2b77f97ae4abd,66a626ef09d4e21e1a8894ec,6734a00c540c828f442d3a93,2024-11-13_13h48.40.960,Tarea de género gramatical,2024.2.2,Win32,59.88023952,,,,,,,,,,,,,,,,,,,,,,,569.6359,571.041,a,1,[],[],[],[],[],[],[],0.7368,1,571.0411,571.5423,,,,,,988,MAS,DIS,150,pavo,la,l,0.7368,,571.5423,571.5423,0.0546875,-0.40234375,0,0,0,,0,243,243,87,1,,,,,
,,,,,,d3c51f78bdd2b77f97ae4abd,66a626ef09d4e21e1a8894ec,6734a00c540c828f442d3a93,2024-11-13_13h48.40.960,Tarea de género gramatical,2024.2.2,Win32,59.88023952,,,,,,,,,,,,,,,,,,,,,,,571.5433,572.6625,l,1,[],[],[],[],[],[],[],0.4518,1,572.6626,573.1641,,,,,,1113,FEM,CON,150,magia,,a,0.4518,,573.1642,573.1643,0.0546875,-0.40234375,0,0,0,,0,244,244,212,1,,,,,
,,,,,,d3c51f78bdd2b77f97ae4abd,66a626ef09d4e21e1a8894ec,6734a00c540c828f442d3a93,2024-11-13_13h48.40.960,Tarea de género gramatical,2024.2.2,Win32,59.88023952,,,,,,,,,,,,,,,,,,,,,,,573.1652,574.3015,a,1,[],[],[],[],[],[],[],0.4704,1,574.3016,574.8037,,,,,,1012,MAS,DIS,150,reto,la,l,0.4704,,574.8048,574.8056,0.0546875,-0.40234375,0,0,0,,0,245,245,111,1,,,,,
,,,,,,d3c51f78bdd2b77f97ae4abd,66a626ef09d4e21e1a8894ec,6734a00c540c828f442d3a93,2024-11-13_13h48.40.960,Tarea de género gramatical,2024.2.2,Win32,59.88023952,,,,,,,,,,,,,,,,,,,,,,,574.8063,576.0249,l,1,[],[],[],[],[],[],[],0.5357,1,576.0251,576.5257,,,,,,1023,FEM,CON,150,tela,,a,0.5357,,576.5258,576.5258,0.0546875,-0.40234375,0,0,0,,0,246,246,122,1,,,,,
,,,,,,d3c51f78bdd2b77f97ae4abd,66a626ef09d4e21e1a8894ec,6734a00c540c828f442d3a93,2024-11-13_13h48.40.960,Tarea de género gramatical,2024.2.2,Win32,59.88023952,,,,,,,,,,,,,,,,,,,,,,,576.527,577.6974,a,1,[],[],[],[],[],[],[],0.5022,1,577.6975,578.1985,,,,,,1186,MAS,DIS,150,reino,la,l,0.5022,,578.1986,578.1987,0.0546875,-0.40234375,0,0,0,,0,247,247,285,1,,,,,
,,,,,,d3c51f78bdd2b77f97ae4abd,66a626ef09d4e21e1a8894ec,6734a00c540c828f442d3a93,2024-11-13_13h48.40.960,Tarea de género gramatical,2024.2.2,Win32,59.88023952,,,,,,,,,,,,,,,,,,,,,,,578.1997,579.3694,l,1,[],[],[],[],[],[],[],0.5028,1,579.3695,579.8704,,,,,,1100,FEM,AGR,150,silla,la,a,0.5028,,579.8704,579.8705,0.0546875,-0.40234375,0,0,0,,0,248,248,199,1,,,,,
,,,,,,d3c51f78bdd2b77f97ae4abd,66a626ef09d4e21e1a8894ec,6734a00c540c828f442d3a93,2024-11-13_13h48.40.960,Tarea de género gramatical,2024.2.2,Win32,59.88023952,,,,,,,,,,,,,,,,,,,,,,,579.8717,580.991,l,1,[],[],[],[],[],[],[],0.4526,1,580.9912,581.4933,,,,,,962,FEM,AGR,150,sopa,la,a,0.4526,,581.4947,581.4961,0.0546875,-0.40234375,0,0,0,,0,249,249,61,1,,,,,
,,,,,,d3c51f78bdd2b77f97ae4abd,66a626ef09d4e21e1a8894ec,6734a00c540c828f442d3a93,2024-11-13_13h48.40.960,Tarea de género gramatical,2024.2.2,Win32,59.88023952,,,,,,,,,,,,,,,,,,,,,,,581.4975,582.5807,a,1,[],[],[],[],[],[],[],0.4038,1,582.5808,583.0824,,,,,,1139,MAS,AGR,150,reloj,el,l,0.4038,,583.0825,583.0826,0.0546875,-0.40234375,0,0,0,,0,250,250,238,1,,,,,
