counterbalancing_condition,consent_prescreening.block_1/declare_consent,consent_prescreening.block_1/age_years,consent_prescreening.block_1/gender,consent_prescreening.block_1/language_disorder,consent_prescreening.block_1/first_language,PROLIFIC_PID,STUDY_ID,SESSION_ID,date,expName,psychopyVersion,OS,frameRate,check_prescreening_answers.started,check_prescreening_answers.stopped,Instructions.started,Instructions.stopped,instr_done_keyboard.keys,instr_done_keyboard.rt,instr_done_keyboard.duration,instr_done_touch.x,instr_done_touch.y,instr_done_touch.leftButton,instr_done_touch.midButton,instr_done_touch.rightButton,instruction_pages.thisRepN,instruction_pages.thisTrialN,instruction_pages.thisN,instruction_pages.thisIndex,instruction_pages.ran,pageN,phase,instruct_text,has_image,instruct_image,presentTrial.started,presentTrial.stopped,response.keys,response.corr,response.rt,response.duration,touch_resp.x,touch_resp.y,touch_resp.leftButton,touch_resp.midButton,touch_resp.rightButton,touch_resp.time,touch_resp.clicked_name,rt,corr,feedback.started,feedback.stopped,practice_trials.thisRepN,practice_trials.thisTrialN,practice_trials.thisN,practice_trials.thisIndex,practice_trials.ran,TrialID,StimulusType,Condition,PrimeDuration,Prime,Flanker,corrAns,Break.started,Break.stopped,break_done_touch.x,break_done_touch.y,break_done_touch.leftButton,break_done_touch.midButton,break_done_touch.rightButton,break_done_keyboard.keys,experiment_trials.thisRepN,experiment_trials.thisTrialN,experiment_trials.thisN,experiment_trials.thisIndex,experiment_trials.ran,break_done_keyboard.rt,break_done_keyboard.duration,End.started,End.stopped
2,"[""over_18"",""comfortable"",""read_info"",""consent_given""]",54,F,"[""none""]","[""spanish""]",d428d8595da7f5bc79b5cfc4,66a626ef09d4e21e1a8894ec,673767fd5aa7933bae200eb4,2024-11-15_09h42.16.017,Tarea de género gramatical,2024.2.2,Win32,59.88023952,,,,,,,,,,,,,,,,,,,,,,,,,,,,,,,,,,,,,,,,,,,,,,,,,,,,,,,,,,,,,,,,,,,,
,,,,,,d428d8595da7f5bc79b5cfc4,66a626ef09d4e21e1a8894ec,673767fd5aa7933bae200eb4,2024-11-15_09h42.16.017,Tarea de género gramatical,2024.2.2,Win32,59.88023952,14.4089,14.4092,,,,,,,,,,,,,,,,,,,,,,,,,,,,,,,,,,,,,,,,,,,,,,,,,,,,,,,,,,,,,,,,,,
,,,,,,d428d8595da7f5bc79b5cfc4,66a626ef09d4e21e1a8894ec,673767fd5aa7933bae200eb4,2024-11-15_09h42.16.017,Tarea de género gramatical,2024.2.2,Win32,59.88023952,,,14.4304,16.27,space,1.8038,,-0.026851852,-0.188888889,0,0,0,0,0,0,0,1,1,instructions,"INSTRUCCIONES
Va a realizar una prueba de selección gramatical. Desde el comienzo de la prueba mire siempre al centro de la pantalla. Al cabo de un momento, aparecerán palabras. La tarea consiste en determinar si la palabra del centro (siempre será un sustantivo), pertenece al género masculino o femenino.

Pulse la tecla ESPACIO o toque el botón de abajo para continuar.",0,keyboardresponseMF.png,,,,,,,,,,,,,,,,,,,,,,,,,,,,,,,,,,,,,,,,,,,,,,
,,,,,,d428d8595da7f5bc79b5cfc4,66a626ef09d4e21e1a8894ec,673767fd5aa7933bae200eb4,2024-11-15_09h42.16.017,Tarea de género gramatical,2024.2.2,Win32,59.88023952,,,16.2748,18.4345,space,2.1103,,-0.026851852,-0.188888889,0,0,0,0,1,1,1,1,2,instructions,"Si su dispositivo tiene teclado, pulse la tecla ""A"" para las palabras en masculino (por ejemplo: ""arroz"") y la tecla ""L"" para las palabras en femenino (por ejemplo: ""mano"").
Pulse la tecla ESPACIO o toque el botón de abajo para continuar.",1,keyboardresponseMF.png,,,,,,,,,,,,,,,,,,,,,,,,,,,,,,,,,,,,,,,,,,,,,,
,,,,,,d428d8595da7f5bc79b5cfc4,66a626ef09d4e21e1a8894ec,673767fd5aa7933bae200eb4,2024-11-15_09h42.16.017,Tarea de género gramatical,2024.2.2,Win32,59.88023952,,,18.4395,19.0339,space,0.5521,,-0.026851852,-0.188888889,0,0,0,0,2,2,2,1,3,instructions,"Si utiliza un dispositivo sólo táctil, colóquelo en horizontal y utilice los botones de la pantalla. No utilice el ratón.
Pulse la tecla ESPACIO o toque el botón de abajo para continuar.",2,touchresponseMF.png,,,,,,,,,,,,,,,,,,,,,,,,,,,,,,,,,,,,,,,,,,,,,,
,,,,,,d428d8595da7f5bc79b5cfc4,66a626ef09d4e21e1a8894ec,673767fd5aa7933bae200eb4,2024-11-15_09h42.16.017,Tarea de género gramatical,2024.2.2,Win32,59.88023952,,,19.039,19.5828,space,0.5287,,-0.026851852,-0.188888889,0,0,0,0,3,3,3,1,4,instructions,"Es muy importante que responda con la mayor rapidez y precisión posibles, ya que cada cadena de letras sólo estará en pantalla durante un instante. Si no responde en ese tiempo, aparecerá el mensaje ""Muy lento"" y el experimento pasará a la siguiente palabra. Los primeros 15 intentos serán de práctica y habrá dos descansos durante la prueba.
Pulse la tecla ESPACIO o toque el botón de abajo para iniciar la parte de práctica.",0,keyboardresponseMF.png,,,,,,,,,,,,,,,,,,,,,,,,,,,,,,,,,,,,,,,,,,,,,,
,,,,,,d428d8595da7f5bc79b5cfc4,66a626ef09d4e21e1a8894ec,673767fd5aa7933bae200eb4,2024-11-15_09h42.16.017,Tarea de género gramatical,2024.2.2,Win32,59.88023952,,,,,,,,,,,,,,,,,,,,,,,19.6009,22.1309,a,1,1.8471,,[],[],[],[],[],[],[],1.8471,1,22.1311,22.6307,0,0,0,9,1,2010,MAS,AGR,150,vecino,el,l,,,,,,,,,,,,,,,,,
,,,,,,d428d8595da7f5bc79b5cfc4,66a626ef09d4e21e1a8894ec,673767fd5aa7933bae200eb4,2024-11-15_09h42.16.017,Tarea de género gramatical,2024.2.2,Win32,59.88023952,,,,,,,,,,,,,,,,,,,,,,,22.6354,24.429,l,1,1.1194,,[],[],[],[],[],[],[],1.1194,1,24.4291,24.9294,0,1,1,3,1,2004,FEM,AGR,150,venta,la,a,,,,,,,,,,,,,,,,,
,,,,,,d428d8595da7f5bc79b5cfc4,66a626ef09d4e21e1a8894ec,673767fd5aa7933bae200eb4,2024-11-15_09h42.16.017,Tarea de género gramatical,2024.2.2,Win32,59.88023952,,,,,,,,,,,,,,,,,,,,,,,24.9316,26.4628,l,1,0.8572,,[],[],[],[],[],[],[],0.8572,1,26.4633,26.9691,0,2,2,1,1,2002,FEM,CON,150,pala,,a,,,,,,,,,,,,,,,,,
,,,,,,d428d8595da7f5bc79b5cfc4,66a626ef09d4e21e1a8894ec,673767fd5aa7933bae200eb4,2024-11-15_09h42.16.017,Tarea de género gramatical,2024.2.2,Win32,59.88023952,,,,,,,,,,,,,,,,,,,,,,,26.9711,28.3011,l,0,0.6496,,[],[],[],[],[],[],[],0.6496,0,28.302,28.7922,0,3,3,14,1,2015,MAS,DIS,150,robot,la,l,,,,,,,,,,,,,,,,,
,,,,,,d428d8595da7f5bc79b5cfc4,66a626ef09d4e21e1a8894ec,673767fd5aa7933bae200eb4,2024-11-15_09h42.16.017,Tarea de género gramatical,2024.2.2,Win32,59.88023952,,,,,,,,,,,,,,,,,,,,,,,28.7963,30.3071,l,1,0.8329,,[],[],[],[],[],[],[],0.8329,1,30.3081,30.8075,0,4,4,6,1,2007,FEM,AGR,150,navaja,la,a,,,,,,,,,,,,,,,,,
,,,,,,d428d8595da7f5bc79b5cfc4,66a626ef09d4e21e1a8894ec,673767fd5aa7933bae200eb4,2024-11-15_09h42.16.017,Tarea de género gramatical,2024.2.2,Win32,59.88023952,,,,,,,,,,,,,,,,,,,,,,,30.8095,32.056,a,1,0.5715,,[],[],[],[],[],[],[],0.5715,1,32.0561,32.556,0,5,5,13,1,2014,MAS,CON,150,siglo,,l,,,,,,,,,,,,,,,,,
,,,,,,d428d8595da7f5bc79b5cfc4,66a626ef09d4e21e1a8894ec,673767fd5aa7933bae200eb4,2024-11-15_09h42.16.017,Tarea de género gramatical,2024.2.2,Win32,59.88023952,,,,,,,,,,,,,,,,,,,,,,,32.5605,34.1208,a,0,0.8821,,[],[],[],[],[],[],[],0.8821,0,34.122,34.6204,0,6,6,2,1,2003,FEM,DIS,150,daga,el,a,,,,,,,,,,,,,,,,,
,,,,,,d428d8595da7f5bc79b5cfc4,66a626ef09d4e21e1a8894ec,673767fd5aa7933bae200eb4,2024-11-15_09h42.16.017,Tarea de género gramatical,2024.2.2,Win32,59.88023952,,,,,,,,,,,,,,,,,,,,,,,34.6229,35.853,a,1,0.5501,,[],[],[],[],[],[],[],0.5501,1,35.8541,36.3528,0,7,7,12,1,2013,MAS,AGR,150,acero,el,l,,,,,,,,,,,,,,,,,
,,,,,,d428d8595da7f5bc79b5cfc4,66a626ef09d4e21e1a8894ec,673767fd5aa7933bae200eb4,2024-11-15_09h42.16.017,Tarea de género gramatical,2024.2.2,Win32,59.88023952,,,,,,,,,,,,,,,,,,,,,,,36.3557,37.9509,a,1,0.9212,,[],[],[],[],[],[],[],0.9212,1,37.9511,38.4511,0,8,8,11,1,2012,MAS,DIS,150,clima,la,l,,,,,,,,,,,,,,,,,
,,,,,,d428d8595da7f5bc79b5cfc4,66a626ef09d4e21e1a8894ec,673767fd5aa7933bae200eb4,2024-11-15_09h42.16.017,Tarea de género gramatical,2024.2.2,Win32,59.88023952,,,,,,,,,,,,,,,,,,,,,,,38.4547,39.9832,a,1,0.8523,,[],[],[],[],[],[],[],0.8523,1,39.9832,40.4827,0,9,9,8,1,2009,MAS,DIS,150,puerto,la,l,,,,,,,,,,,,,,,,,
,,,,,,d428d8595da7f5bc79b5cfc4,66a626ef09d4e21e1a8894ec,673767fd5aa7933bae200eb4,2024-11-15_09h42.16.017,Tarea de género gramatical,2024.2.2,Win32,59.88023952,,,,,,,,,,,,,,,,,,,,,,,40.4843,41.9143,l,1,0.7493,,[],[],[],[],[],[],[],0.7493,1,41.9144,42.4145,0,10,10,7,1,2008,FEM,CON,150,siesta,,a,,,,,,,,,,,,,,,,,
,,,,,,d428d8595da7f5bc79b5cfc4,66a626ef09d4e21e1a8894ec,673767fd5aa7933bae200eb4,2024-11-15_09h42.16.017,Tarea de género gramatical,2024.2.2,Win32,59.88023952,,,,,,,,,,,,,,,,,,,,,,,42.4168,43.6795,l,1,0.5844,,[],[],[],[],[],[],[],0.5844,1,43.6797,44.1796,0,11,11,0,1,2001,FEM,AGR,150,nuca,la,a,,,,,,,,,,,,,,,,,
,,,,,,d428d8595da7f5bc79b5cfc4,66a626ef09d4e21e1a8894ec,673767fd5aa7933bae200eb4,2024-11-15_09h42.16.017,Tarea de género gramatical,2024.2.2,Win32,59.88023952,,,,,,,,,,,,,,,,,,,,,,,44.1822,45.4452,l,1,0.5854,,[],[],[],[],[],[],[],0.5854,1,45.4453,45.9451,0,12,12,4,1,2005,FEM,CON,150,placa,,a,,,,,,,,,,,,,,,,,
,,,,,,d428d8595da7f5bc79b5cfc4,66a626ef09d4e21e1a8894ec,673767fd5aa7933bae200eb4,2024-11-15_09h42.16.017,Tarea de género gramatical,2024.2.2,Win32,59.88023952,,,,,,,,,,,,,,,,,,,,,,,45.946,47.0936,a,1,0.4674,,[],[],[],[],[],[],[],0.4674,1,47.0938,47.593,0,13,13,10,1,2011,MAS,CON,150,canal,,l,,,,,,,,,,,,,,,,,
,,,,,,d428d8595da7f5bc79b5cfc4,66a626ef09d4e21e1a8894ec,673767fd5aa7933bae200eb4,2024-11-15_09h42.16.017,Tarea de género gramatical,2024.2.2,Win32,59.88023952,,,,,,,,,,,,,,,,,,,,,,,47.5946,48.76,a,0,0.4877,,[],[],[],[],[],[],[],0.4877,0,48.7619,49.2584,0,14,14,5,1,2006,FEM,DIS,150,serie,el,a,,,,,,,,,,,,,,,,,
,,,,,,d428d8595da7f5bc79b5cfc4,66a626ef09d4e21e1a8894ec,673767fd5aa7933bae200eb4,2024-11-15_09h42.16.017,Tarea de género gramatical,2024.2.2,Win32,59.88023952,,,70.0958,70.9072,space,0.797,,-0.026851852,-0.188888889,0,0,0,,,,,,,,,,,70.9485,72.3947,l,1,0.7629,,[],[],[],[],[],[],[],0.7629,1,72.3959,72.8981,,,,,,1214,FEM,AGR,150,señora,la,a,72.8986,72.9052,-0.026851852,-0.188888889,0,0,0,,0,0,0,313,1,,,,
,,,,,,d428d8595da7f5bc79b5cfc4,66a626ef09d4e21e1a8894ec,673767fd5aa7933bae200eb4,2024-11-15_09h42.16.017,Tarea de género gramatical,2024.2.2,Win32,59.88023952,,,,,,,,,,,,,,,,,,,,,,,72.9095,74.579,l,1,0.9983,,[],[],[],[],[],[],[],0.9983,1,74.5793,75.0712,,,,,,1327,FEM,DIS,150,agenda,el,a,75.0717,75.0727,-0.026851852,-0.188888889,0,0,0,,0,1,1,426,1,,,,
,,,,,,d428d8595da7f5bc79b5cfc4,66a626ef09d4e21e1a8894ec,673767fd5aa7933bae200eb4,2024-11-15_09h42.16.017,Tarea de género gramatical,2024.2.2,Win32,59.88023952,,,,,,,,,,,,,,,,,,,,,,,75.0751,76.1799,l,1,0.4186,,[],[],[],[],[],[],[],0.4186,1,76.18,76.6787,,,,,,1041,FEM,CON,150,cera,,a,76.6812,76.6823,-0.026851852,-0.188888889,0,0,0,,0,2,2,140,1,,,,
,,,,,,d428d8595da7f5bc79b5cfc4,66a626ef09d4e21e1a8894ec,673767fd5aa7933bae200eb4,2024-11-15_09h42.16.017,Tarea de género gramatical,2024.2.2,Win32,59.88023952,,,,,,,,,,,,,,,,,,,,,,,76.6835,77.9938,l,1,0.6333,,[],[],[],[],[],[],[],0.6333,1,77.9939,78.4869,,,,,,968,FEM,AGR,150,pata,la,a,78.4875,78.4885,-0.026851852,-0.188888889,0,0,0,,0,3,3,67,1,,,,
,,,,,,d428d8595da7f5bc79b5cfc4,66a626ef09d4e21e1a8894ec,673767fd5aa7933bae200eb4,2024-11-15_09h42.16.017,Tarea de género gramatical,2024.2.2,Win32,59.88023952,,,,,,,,,,,,,,,,,,,,,,,78.4907,79.6091,a,1,0.4498,,[],[],[],[],[],[],[],0.4498,1,79.6093,80.1086,,,,,,1061,MAS,AGR,150,chico,el,l,80.1087,80.1088,-0.026851852,-0.188888889,0,0,0,,0,4,4,160,1,,,,
,,,,,,d428d8595da7f5bc79b5cfc4,66a626ef09d4e21e1a8894ec,673767fd5aa7933bae200eb4,2024-11-15_09h42.16.017,Tarea de género gramatical,2024.2.2,Win32,59.88023952,,,,,,,,,,,,,,,,,,,,,,,80.1095,81.5819,a,1,0.8035,,[],[],[],[],[],[],[],0.8035,1,81.5824,82.0734,,,,,,1266,MAS,CON,150,riesgo,,l,82.0735,82.0737,-0.026851852,-0.188888889,0,0,0,,0,5,5,365,1,,,,
,,,,,,d428d8595da7f5bc79b5cfc4,66a626ef09d4e21e1a8894ec,673767fd5aa7933bae200eb4,2024-11-15_09h42.16.017,Tarea de género gramatical,2024.2.2,Win32,59.88023952,,,,,,,,,,,,,,,,,,,,,,,82.0748,83.2722,a,1,0.5256,,[],[],[],[],[],[],[],0.5256,1,83.2722,83.7631,,,,,,912,MAS,CON,150,plan,,l,83.7664,83.7674,-0.026851852,-0.188888889,0,0,0,,0,6,6,11,1,,,,
,,,,,,d428d8595da7f5bc79b5cfc4,66a626ef09d4e21e1a8894ec,673767fd5aa7933bae200eb4,2024-11-15_09h42.16.017,Tarea de género gramatical,2024.2.2,Win32,59.88023952,,,,,,,,,,,,,,,,,,,,,,,83.7681,84.9622,l,1,0.5173,,[],[],[],[],[],[],[],0.5173,1,84.9623,85.4619,,,,,,1310,FEM,AGR,150,piedad,la,a,85.4619,85.462,-0.026851852,-0.188888889,0,0,0,,0,7,7,409,1,,,,
,,,,,,d428d8595da7f5bc79b5cfc4,66a626ef09d4e21e1a8894ec,673767fd5aa7933bae200eb4,2024-11-15_09h42.16.017,Tarea de género gramatical,2024.2.2,Win32,59.88023952,,,,,,,,,,,,,,,,,,,,,,,85.4643,86.578,a,1,0.4352,,[],[],[],[],[],[],[],0.4352,1,86.5781,87.0772,,,,,,1002,MAS,CON,150,coro,,l,87.0773,87.0774,-0.026851852,-0.188888889,0,0,0,,0,8,8,101,1,,,,
,,,,,,d428d8595da7f5bc79b5cfc4,66a626ef09d4e21e1a8894ec,673767fd5aa7933bae200eb4,2024-11-15_09h42.16.017,Tarea de género gramatical,2024.2.2,Win32,59.88023952,,,,,,,,,,,,,,,,,,,,,,,87.0794,88.1435,l,1,0.3831,,[],[],[],[],[],[],[],0.3831,1,88.1437,88.6431,,,,,,908,FEM,AGR,150,idea,la,a,88.6432,88.6434,-0.026851852,-0.188888889,0,0,0,,0,9,9,7,1,,,,
,,,,,,d428d8595da7f5bc79b5cfc4,66a626ef09d4e21e1a8894ec,673767fd5aa7933bae200eb4,2024-11-15_09h42.16.017,Tarea de género gramatical,2024.2.2,Win32,59.88023952,,,,,,,,,,,,,,,,,,,,,,,88.6468,89.9919,a,1,0.6673,,[],[],[],[],[],[],[],0.6673,1,89.992,90.4919,,,,,,1146,MAS,CON,150,humor,,l,90.492,90.4922,-0.026851852,-0.188888889,0,0,0,,0,10,10,245,1,,,,
,,,,,,d428d8595da7f5bc79b5cfc4,66a626ef09d4e21e1a8894ec,673767fd5aa7933bae200eb4,2024-11-15_09h42.16.017,Tarea de género gramatical,2024.2.2,Win32,59.88023952,,,,,,,,,,,,,,,,,,,,,,,90.4958,91.657,l,1,0.4886,,[],[],[],[],[],[],[],0.4886,1,91.6572,92.1569,,,,,,1285,FEM,DIS,150,muñeca,el,a,92.161,92.1621,-0.026851852,-0.188888889,0,0,0,,0,11,11,384,1,,,,
,,,,,,d428d8595da7f5bc79b5cfc4,66a626ef09d4e21e1a8894ec,673767fd5aa7933bae200eb4,2024-11-15_09h42.16.017,Tarea de género gramatical,2024.2.2,Win32,59.88023952,,,,,,,,,,,,,,,,,,,,,,,92.1632,93.3723,a,1,0.5375,,[],[],[],[],[],[],[],0.5375,1,93.3726,93.8722,,,,,,935,MAS,AGR,150,taxi,el,l,93.8724,93.8724,-0.026851852,-0.188888889,0,0,0,,0,12,12,34,1,,,,
,,,,,,d428d8595da7f5bc79b5cfc4,66a626ef09d4e21e1a8894ec,673767fd5aa7933bae200eb4,2024-11-15_09h42.16.017,Tarea de género gramatical,2024.2.2,Win32,59.88023952,,,,,,,,,,,,,,,,,,,,,,,93.8753,95.1049,a,1,0.5507,,[],[],[],[],[],[],[],0.5507,1,95.1051,95.6049,,,,,,936,MAS,CON,150,dedo,,l,95.605,95.6053,-0.026851852,-0.188888889,0,0,0,,0,13,13,35,1,,,,
,,,,,,d428d8595da7f5bc79b5cfc4,66a626ef09d4e21e1a8894ec,673767fd5aa7933bae200eb4,2024-11-15_09h42.16.017,Tarea de género gramatical,2024.2.2,Win32,59.88023952,,,,,,,,,,,,,,,,,,,,,,,95.609,97.0198,l,1,0.7333,,[],[],[],[],[],[],[],0.7333,1,97.02,97.5195,,,,,,1341,FEM,CON,150,medida,,a,97.5195,97.5197,-0.026851852,-0.188888889,0,0,0,,0,14,14,440,1,,,,
,,,,,,d428d8595da7f5bc79b5cfc4,66a626ef09d4e21e1a8894ec,673767fd5aa7933bae200eb4,2024-11-15_09h42.16.017,Tarea de género gramatical,2024.2.2,Win32,59.88023952,,,,,,,,,,,,,,,,,,,,,,,97.5235,98.8848,l,1,0.6832,,[],[],[],[],[],[],[],0.6832,1,98.8849,99.3846,,,,,,1171,FEM,DIS,150,viuda,el,a,99.3882,99.3898,-0.026851852,-0.188888889,0,0,0,,0,15,15,270,1,,,,
,,,,,,d428d8595da7f5bc79b5cfc4,66a626ef09d4e21e1a8894ec,673767fd5aa7933bae200eb4,2024-11-15_09h42.16.017,Tarea de género gramatical,2024.2.2,Win32,59.88023952,,,,,,,,,,,,,,,,,,,,,,,99.3911,100.5497,l,1,0.4847,,[],[],[],[],[],[],[],0.4847,1,100.5499,101.0498,,,,,,1190,FEM,AGR,150,cabra,la,a,101.0499,101.05,-0.026851852,-0.188888889,0,0,0,,0,16,16,289,1,,,,
,,,,,,d428d8595da7f5bc79b5cfc4,66a626ef09d4e21e1a8894ec,673767fd5aa7933bae200eb4,2024-11-15_09h42.16.017,Tarea de género gramatical,2024.2.2,Win32,59.88023952,,,,,,,,,,,,,,,,,,,,,,,101.0535,102.3823,l,1,0.6561,,[],[],[],[],[],[],[],0.6561,1,102.3824,102.8817,,,,,,997,FEM,DIS,150,capa,el,a,102.8818,102.8819,-0.026851852,-0.188888889,0,0,0,,0,17,17,96,1,,,,
,,,,,,d428d8595da7f5bc79b5cfc4,66a626ef09d4e21e1a8894ec,673767fd5aa7933bae200eb4,2024-11-15_09h42.16.017,Tarea de género gramatical,2024.2.2,Win32,59.88023952,,,,,,,,,,,,,,,,,,,,,,,102.8841,103.9971,a,1,0.4337,,[],[],[],[],[],[],[],0.4337,1,103.9971,104.4965,,,,,,1248,MAS,CON,150,anillo,,l,104.4965,104.4966,-0.026851852,-0.188888889,0,0,0,,0,18,18,347,1,,,,
,,,,,,d428d8595da7f5bc79b5cfc4,66a626ef09d4e21e1a8894ec,673767fd5aa7933bae200eb4,2024-11-15_09h42.16.017,Tarea de género gramatical,2024.2.2,Win32,59.88023952,,,,,,,,,,,,,,,,,,,,,,,104.4996,106.1121,a,1,0.9357,,[],[],[],[],[],[],[],0.9357,1,106.1122,106.6114,,,,,,1348,MAS,DIS,150,aceite,la,l,106.6115,106.6117,-0.026851852,-0.188888889,0,0,0,,0,19,19,447,1,,,,
,,,,,,d428d8595da7f5bc79b5cfc4,66a626ef09d4e21e1a8894ec,673767fd5aa7933bae200eb4,2024-11-15_09h42.16.017,Tarea de género gramatical,2024.2.2,Win32,59.88023952,,,,,,,,,,,,,,,,,,,,,,,106.6155,107.877,l,1,0.5839,,[],[],[],[],[],[],[],0.5839,1,107.8771,108.377,,,,,,998,FEM,AGR,150,fuga,la,a,108.3816,108.3829,-0.026851852,-0.188888889,0,0,0,,0,20,20,97,1,,,,
,,,,,,d428d8595da7f5bc79b5cfc4,66a626ef09d4e21e1a8894ec,673767fd5aa7933bae200eb4,2024-11-15_09h42.16.017,Tarea de género gramatical,2024.2.2,Win32,59.88023952,,,,,,,,,,,,,,,,,,,,,,,108.384,109.8262,l,1,0.7704,,[],[],[],[],[],[],[],0.7704,1,109.8263,110.3255,,,,,,1219,FEM,DIS,150,sangre,el,a,110.3257,110.3258,-0.026851852,-0.188888889,0,0,0,,0,21,21,318,1,,,,
,,,,,,d428d8595da7f5bc79b5cfc4,66a626ef09d4e21e1a8894ec,673767fd5aa7933bae200eb4,2024-11-15_09h42.16.017,Tarea de género gramatical,2024.2.2,Win32,59.88023952,,,,,,,,,,,,,,,,,,,,,,,110.329,111.5245,a,1,0.5211,,[],[],[],[],[],[],[],0.5211,1,111.5247,112.0235,,,,,,1223,MAS,AGR,150,marido,el,l,112.0237,112.0237,-0.026851852,-0.188888889,0,0,0,,0,22,22,322,1,,,,
,,,,,,d428d8595da7f5bc79b5cfc4,66a626ef09d4e21e1a8894ec,673767fd5aa7933bae200eb4,2024-11-15_09h42.16.017,Tarea de género gramatical,2024.2.2,Win32,59.88023952,,,,,,,,,,,,,,,,,,,,,,,112.0264,113.2894,l,1,0.5843,,[],[],[],[],[],[],[],0.5843,1,113.2895,113.789,,,,,,1173,FEM,CON,150,tarta,,a,113.789,113.7892,-0.026851852,-0.188888889,0,0,0,,0,23,23,272,1,,,,
,,,,,,d428d8595da7f5bc79b5cfc4,66a626ef09d4e21e1a8894ec,673767fd5aa7933bae200eb4,2024-11-15_09h42.16.017,Tarea de género gramatical,2024.2.2,Win32,59.88023952,,,,,,,,,,,,,,,,,,,,,,,113.7929,115.005,l,1,0.5335,,[],[],[],[],[],[],[],0.5335,1,115.0052,115.5046,,,,,,1125,FEM,CON,150,pieza,,a,115.5087,115.5098,-0.026851852,-0.188888889,0,0,0,,0,24,24,224,1,,,,
,,,,,,d428d8595da7f5bc79b5cfc4,66a626ef09d4e21e1a8894ec,673767fd5aa7933bae200eb4,2024-11-15_09h42.16.017,Tarea de género gramatical,2024.2.2,Win32,59.88023952,,,,,,,,,,,,,,,,,,,,,,,115.511,116.6372,l,1,0.4563,,[],[],[],[],[],[],[],0.4563,1,116.6374,117.1365,,,,,,1281,FEM,CON,150,bebida,,a,117.1365,117.1367,-0.026851852,-0.188888889,0,0,0,,0,25,25,380,1,,,,
,,,,,,d428d8595da7f5bc79b5cfc4,66a626ef09d4e21e1a8894ec,673767fd5aa7933bae200eb4,2024-11-15_09h42.16.017,Tarea de género gramatical,2024.2.2,Win32,59.88023952,,,,,,,,,,,,,,,,,,,,,,,117.1392,118.3186,l,1,0.5013,,[],[],[],[],[],[],[],0.5013,1,118.3187,118.8187,,,,,,1137,FEM,CON,150,ducha,,a,118.8188,118.8189,-0.026851852,-0.188888889,0,0,0,,0,26,26,236,1,,,,
,,,,,,d428d8595da7f5bc79b5cfc4,66a626ef09d4e21e1a8894ec,673767fd5aa7933bae200eb4,2024-11-15_09h42.16.017,Tarea de género gramatical,2024.2.2,Win32,59.88023952,,,,,,,,,,,,,,,,,,,,,,,118.822,120.0668,a,1,0.5668,,[],[],[],[],[],[],[],0.5668,1,120.0669,120.5669,,,,,,1056,MAS,CON,150,amigo,,l,120.5671,120.5671,-0.026851852,-0.188888889,0,0,0,,0,27,27,155,1,,,,
,,,,,,d428d8595da7f5bc79b5cfc4,66a626ef09d4e21e1a8894ec,673767fd5aa7933bae200eb4,2024-11-15_09h42.16.017,Tarea de género gramatical,2024.2.2,Win32,59.88023952,,,,,,,,,,,,,,,,,,,,,,,120.5707,121.7824,l,1,0.5344,,[],[],[],[],[],[],[],0.5344,1,121.7826,122.2822,,,,,,1286,FEM,AGR,150,sombra,la,a,122.2823,122.2825,-0.026851852,-0.188888889,0,0,0,,0,28,28,385,1,,,,
,,,,,,d428d8595da7f5bc79b5cfc4,66a626ef09d4e21e1a8894ec,673767fd5aa7933bae200eb4,2024-11-15_09h42.16.017,Tarea de género gramatical,2024.2.2,Win32,59.88023952,,,,,,,,,,,,,,,,,,,,,,,122.2865,123.5316,a,1,0.5672,,[],[],[],[],[],[],[],0.5672,1,123.5316,124.0307,,,,,,930,MAS,CON,150,cine,,l,124.0349,124.0362,-0.026851852,-0.188888889,0,0,0,,0,29,29,29,1,,,,
,,,,,,d428d8595da7f5bc79b5cfc4,66a626ef09d4e21e1a8894ec,673767fd5aa7933bae200eb4,2024-11-15_09h42.16.017,Tarea de género gramatical,2024.2.2,Win32,59.88023952,,,,,,,,,,,,,,,,,,,,,,,124.0372,125.1625,l,1,0.4529,,[],[],[],[],[],[],[],0.4529,1,125.1625,125.6622,,,,,,986,FEM,AGR,150,cruz,la,a,125.6622,125.6623,-0.026851852,-0.188888889,0,0,0,,0,30,30,85,1,,,,
,,,,,,d428d8595da7f5bc79b5cfc4,66a626ef09d4e21e1a8894ec,673767fd5aa7933bae200eb4,2024-11-15_09h42.16.017,Tarea de género gramatical,2024.2.2,Win32,59.88023952,,,,,,,,,,,,,,,,,,,,,,,125.6654,126.8944,l,0,0.5512,,[],[],[],[],[],[],[],0.5512,0,126.896,127.394,,,,,,1182,MAS,CON,150,bolso,,l,127.3941,127.3942,-0.026851852,-0.188888889,0,0,0,,0,31,31,281,1,,,,
,,,,,,d428d8595da7f5bc79b5cfc4,66a626ef09d4e21e1a8894ec,673767fd5aa7933bae200eb4,2024-11-15_09h42.16.017,Tarea de género gramatical,2024.2.2,Win32,59.88023952,,,,,,,,,,,,,,,,,,,,,,,127.3968,128.6931,l,1,0.6172,,[],[],[],[],[],[],[],0.6172,1,128.6944,129.1926,,,,,,943,FEM,DIS,150,nena,el,a,129.1926,129.1927,-0.026851852,-0.188888889,0,0,0,,0,32,32,42,1,,,,
,,,,,,d428d8595da7f5bc79b5cfc4,66a626ef09d4e21e1a8894ec,673767fd5aa7933bae200eb4,2024-11-15_09h42.16.017,Tarea de género gramatical,2024.2.2,Win32,59.88023952,,,,,,,,,,,,,,,,,,,,,,,129.1965,130.4082,l,1,0.5349,,[],[],[],[],[],[],[],0.5349,1,130.4084,130.9082,,,,,,1027,FEM,DIS,150,cuna,el,a,130.9133,130.9152,-0.026851852,-0.188888889,0,0,0,,0,33,33,126,1,,,,
,,,,,,d428d8595da7f5bc79b5cfc4,66a626ef09d4e21e1a8894ec,673767fd5aa7933bae200eb4,2024-11-15_09h42.16.017,Tarea de género gramatical,2024.2.2,Win32,59.88023952,,,,,,,,,,,,,,,,,,,,,,,130.9166,132.0736,l,1,0.484,,[],[],[],[],[],[],[],0.484,1,132.0736,132.5733,,,,,,1119,FEM,CON,150,costa,,a,132.5734,132.5734,-0.026851852,-0.188888889,0,0,0,,0,34,34,218,1,,,,
,,,,,,d428d8595da7f5bc79b5cfc4,66a626ef09d4e21e1a8894ec,673767fd5aa7933bae200eb4,2024-11-15_09h42.16.017,Tarea de género gramatical,2024.2.2,Win32,59.88023952,,,,,,,,,,,,,,,,,,,,,,,132.5752,133.6894,a,1,0.4391,,[],[],[],[],[],[],[],0.4391,1,133.6897,134.1894,,,,,,1343,MAS,AGR,150,templo,el,l,134.1895,134.1896,-0.026851852,-0.188888889,0,0,0,,0,35,35,442,1,,,,
,,,,,,d428d8595da7f5bc79b5cfc4,66a626ef09d4e21e1a8894ec,673767fd5aa7933bae200eb4,2024-11-15_09h42.16.017,Tarea de género gramatical,2024.2.2,Win32,59.88023952,,,,,,,,,,,,,,,,,,,,,,,134.1934,135.5043,a,1,0.6342,,[],[],[],[],[],[],[],0.6342,1,135.5045,136.0039,,,,,,1300,MAS,DIS,150,barrio,la,l,136.004,136.004,-0.026851852,-0.188888889,0,0,0,,0,36,36,399,1,,,,
,,,,,,d428d8595da7f5bc79b5cfc4,66a626ef09d4e21e1a8894ec,673767fd5aa7933bae200eb4,2024-11-15_09h42.16.017,Tarea de género gramatical,2024.2.2,Win32,59.88023952,,,,,,,,,,,,,,,,,,,,,,,136.0076,137.2031,l,1,0.5234,,[],[],[],[],[],[],[],0.5234,1,137.2035,137.7029,,,,,,1172,FEM,AGR,150,oreja,la,a,137.7029,137.703,-0.026851852,-0.188888889,0,0,0,,0,37,37,271,1,,,,
,,,,,,d428d8595da7f5bc79b5cfc4,66a626ef09d4e21e1a8894ec,673767fd5aa7933bae200eb4,2024-11-15_09h42.16.017,Tarea de género gramatical,2024.2.2,Win32,59.88023952,,,,,,,,,,,,,,,,,,,,,,,137.7063,138.9182,l,1,0.5345,,[],[],[],[],[],[],[],0.5345,1,138.9184,139.4179,,,,,,1251,FEM,CON,150,espada,,a,139.4219,139.4227,-0.026851852,-0.188888889,0,0,0,,0,38,38,350,1,,,,
,,,,,,d428d8595da7f5bc79b5cfc4,66a626ef09d4e21e1a8894ec,673767fd5aa7933bae200eb4,2024-11-15_09h42.16.017,Tarea de género gramatical,2024.2.2,Win32,59.88023952,,,,,,,,,,,,,,,,,,,,,,,139.4234,140.567,l,1,0.4674,,[],[],[],[],[],[],[],0.4674,1,140.5671,141.0665,,,,,,1335,FEM,CON,150,niebla,,a,141.0666,141.0667,-0.026851852,-0.188888889,0,0,0,,0,39,39,434,1,,,,
,,,,,,d428d8595da7f5bc79b5cfc4,66a626ef09d4e21e1a8894ec,673767fd5aa7933bae200eb4,2024-11-15_09h42.16.017,Tarea de género gramatical,2024.2.2,Win32,59.88023952,,,,,,,,,,,,,,,,,,,,,,,141.069,142.1819,a,1,0.4329,,[],[],[],[],[],[],[],0.4329,1,142.182,142.6823,,,,,,1204,MAS,DIS,150,tiempo,la,l,142.6824,142.6829,-0.026851852,-0.188888889,0,0,0,,0,40,40,303,1,,,,
,,,,,,d428d8595da7f5bc79b5cfc4,66a626ef09d4e21e1a8894ec,673767fd5aa7933bae200eb4,2024-11-15_09h42.16.017,Tarea de género gramatical,2024.2.2,Win32,59.88023952,,,,,,,,,,,,,,,,,,,,,,,142.6863,143.9977,a,1,0.6342,,[],[],[],[],[],[],[],0.6342,1,143.9978,144.4973,,,,,,1085,MAS,AGR,150,sueño,el,l,144.4974,144.4975,-0.026851852,-0.188888889,0,0,0,,0,41,41,184,1,,,,
,,,,,,d428d8595da7f5bc79b5cfc4,66a626ef09d4e21e1a8894ec,673767fd5aa7933bae200eb4,2024-11-15_09h42.16.017,Tarea de género gramatical,2024.2.2,Win32,59.88023952,,,,,,,,,,,,,,,,,,,,,,,144.5013,145.5625,l,1,0.3823,,[],[],[],[],[],[],[],0.3823,1,145.5626,146.0629,,,,,,1123,FEM,DIS,150,plata,el,a,146.0662,146.0679,-0.026851852,-0.188888889,0,0,0,,0,42,42,222,1,,,,
,,,,,,d428d8595da7f5bc79b5cfc4,66a626ef09d4e21e1a8894ec,673767fd5aa7933bae200eb4,2024-11-15_09h42.16.017,Tarea de género gramatical,2024.2.2,Win32,59.88023952,,,,,,,,,,,,,,,,,,,,,,,146.0693,147.3284,l,1,0.5836,,[],[],[],[],[],[],[],0.5836,1,147.3284,147.8283,,,,,,1028,FEM,AGR,150,leña,la,a,147.8283,147.8285,-0.026851852,-0.188888889,0,0,0,,0,43,43,127,1,,,,
,,,,,,d428d8595da7f5bc79b5cfc4,66a626ef09d4e21e1a8894ec,673767fd5aa7933bae200eb4,2024-11-15_09h42.16.017,Tarea de género gramatical,2024.2.2,Win32,59.88023952,,,,,,,,,,,,,,,,,,,,,,,147.8318,149.1434,a,1,0.6336,,[],[],[],[],[],[],[],0.6336,1,149.1436,149.6431,,,,,,988,MAS,DIS,150,pavo,la,l,149.6431,149.6434,-0.026851852,-0.188888889,0,0,0,,0,44,44,87,1,,,,
,,,,,,d428d8595da7f5bc79b5cfc4,66a626ef09d4e21e1a8894ec,673767fd5aa7933bae200eb4,2024-11-15_09h42.16.017,Tarea de género gramatical,2024.2.2,Win32,59.88023952,,,,,,,,,,,,,,,,,,,,,,,149.647,150.808,l,1,0.4845,,[],[],[],[],[],[],[],0.4845,1,150.8081,151.308,,,,,,1196,FEM,AGR,150,feria,la,a,151.308,151.3081,-0.026851852,-0.188888889,0,0,0,,0,45,45,295,1,,,,
,,,,,,d428d8595da7f5bc79b5cfc4,66a626ef09d4e21e1a8894ec,673767fd5aa7933bae200eb4,2024-11-15_09h42.16.017,Tarea de género gramatical,2024.2.2,Win32,59.88023952,,,,,,,,,,,,,,,,,,,,,,,151.3111,152.6408,a,1,0.6509,,[],[],[],[],[],[],[],0.6509,1,152.6408,153.1397,,,,,,1338,MAS,CON,150,tanque,,l,153.1397,153.1398,-0.026851852,-0.188888889,0,0,0,,0,46,46,437,1,,,,
,,,,,,d428d8595da7f5bc79b5cfc4,66a626ef09d4e21e1a8894ec,673767fd5aa7933bae200eb4,2024-11-15_09h42.16.017,Tarea de género gramatical,2024.2.2,Win32,59.88023952,,,,,,,,,,,,,,,,,,,,,,,153.1421,154.4896,l,1,0.6686,,[],[],[],[],[],[],[],0.6686,1,154.4897,154.9886,,,,,,1081,FEM,DIS,150,tarde,el,a,154.9906,154.9925,-0.026851852,-0.188888889,0,0,0,,0,47,47,180,1,,,,
,,,,,,d428d8595da7f5bc79b5cfc4,66a626ef09d4e21e1a8894ec,673767fd5aa7933bae200eb4,2024-11-15_09h42.16.017,Tarea de género gramatical,2024.2.2,Win32,59.88023952,,,,,,,,,,,,,,,,,,,,,,,154.9934,156.3868,a,1,0.7153,,[],[],[],[],[],[],[],0.7153,1,156.387,156.887,,,,,,1162,MAS,DIS,150,video,la,l,156.887,156.8872,-0.026851852,-0.188888889,0,0,0,,0,48,48,261,1,,,,
,,,,,,d428d8595da7f5bc79b5cfc4,66a626ef09d4e21e1a8894ec,673767fd5aa7933bae200eb4,2024-11-15_09h42.16.017,Tarea de género gramatical,2024.2.2,Win32,59.88023952,,,,,,,,,,,,,,,,,,,,,,,156.8913,158.5358,a,1,0.9671,,[],[],[],[],[],[],[],0.9671,1,158.536,159.0354,,,,,,1326,MAS,CON,150,pánico,,l,159.0354,159.0356,-0.026851852,-0.188888889,0,0,0,,0,49,49,425,1,,,,
,,,,,,d428d8595da7f5bc79b5cfc4,66a626ef09d4e21e1a8894ec,673767fd5aa7933bae200eb4,2024-11-15_09h42.16.017,Tarea de género gramatical,2024.2.2,Win32,59.88023952,,,,,,,,,,,,,,,,,,,,,,,159.0387,160.1012,l,1,0.3838,,[],[],[],[],[],[],[],0.3838,1,160.1013,160.6005,,,,,,961,FEM,DIS,150,ruta,el,a,160.6006,160.6007,-0.026851852,-0.188888889,0,0,0,,0,50,50,60,1,,,,
,,,,,,d428d8595da7f5bc79b5cfc4,66a626ef09d4e21e1a8894ec,673767fd5aa7933bae200eb4,2024-11-15_09h42.16.017,Tarea de género gramatical,2024.2.2,Win32,59.88023952,,,,,,,,,,,,,,,,,,,,,,,160.6035,161.9491,a,1,0.666,,[],[],[],[],[],[],[],0.666,1,161.9493,162.4491,,,,,,1032,MAS,CON,150,velo,,l,162.4527,162.4541,-0.026851852,-0.188888889,0,0,0,,0,51,51,131,1,,,,
,,,,,,d428d8595da7f5bc79b5cfc4,66a626ef09d4e21e1a8894ec,673767fd5aa7933bae200eb4,2024-11-15_09h42.16.017,Tarea de género gramatical,2024.2.2,Win32,59.88023952,,,,,,,,,,,,,,,,,,,,,,,162.4553,163.5479,l,1,0.4201,,[],[],[],[],[],[],[],0.4201,1,163.5482,164.0478,,,,,,1299,FEM,CON,150,charla,,a,164.0479,164.048,-0.026851852,-0.188888889,0,0,0,,0,52,52,398,1,,,,
,,,,,,d428d8595da7f5bc79b5cfc4,66a626ef09d4e21e1a8894ec,673767fd5aa7933bae200eb4,2024-11-15_09h42.16.017,Tarea de género gramatical,2024.2.2,Win32,59.88023952,,,,,,,,,,,,,,,,,,,,,,,164.051,165.28,a,1,0.5498,,[],[],[],[],[],[],[],0.5498,1,165.2802,165.7795,,,,,,1289,MAS,AGR,150,tamaño,el,l,165.7797,165.7798,-0.026851852,-0.188888889,0,0,0,,0,53,53,388,1,,,,
,,,,,,d428d8595da7f5bc79b5cfc4,66a626ef09d4e21e1a8894ec,673767fd5aa7933bae200eb4,2024-11-15_09h42.16.017,Tarea de género gramatical,2024.2.2,Win32,59.88023952,,,,,,,,,,,,,,,,,,,,,,,165.7846,166.9285,a,1,0.4669,,[],[],[],[],[],[],[],0.4669,1,166.9287,167.428,,,,,,1031,MAS,AGR,150,kilo,el,l,167.4281,167.4281,-0.026851852,-0.188888889,0,0,0,,0,54,54,130,1,,,,
,,,,,,d428d8595da7f5bc79b5cfc4,66a626ef09d4e21e1a8894ec,673767fd5aa7933bae200eb4,2024-11-15_09h42.16.017,Tarea de género gramatical,2024.2.2,Win32,59.88023952,,,,,,,,,,,,,,,,,,,,,,,167.4301,168.5437,a,1,0.4345,,[],[],[],[],[],[],[],0.4345,1,168.5438,169.0435,,,,,,1181,MAS,AGR,150,actor,el,l,169.0436,169.0437,-0.026851852,-0.188888889,0,0,0,,0,55,55,280,1,,,,
,,,,,,d428d8595da7f5bc79b5cfc4,66a626ef09d4e21e1a8894ec,673767fd5aa7933bae200eb4,2024-11-15_09h42.16.017,Tarea de género gramatical,2024.2.2,Win32,59.88023952,,,,,,,,,,,,,,,,,,,,,,,169.0465,170.076,a,1,0.35,,[],[],[],[],[],[],[],0.35,1,170.0761,170.5757,,,,,,1284,MAS,CON,150,pedazo,,l,170.5774,170.5796,-0.026851852,-0.188888889,0,0,0,,0,56,56,383,1,,,,
,,,,,,d428d8595da7f5bc79b5cfc4,66a626ef09d4e21e1a8894ec,673767fd5aa7933bae200eb4,2024-11-15_09h42.16.017,Tarea de género gramatical,2024.2.2,Win32,59.88023952,,,,,,,,,,,,,,,,,,,,,,,170.5803,171.9241,a,1,0.6678,,[],[],[],[],[],[],[],0.6678,1,171.9242,172.424,,,,,,1044,MAS,CON,150,amor,,l,172.424,172.424,-0.026851852,-0.188888889,0,0,0,,0,57,57,143,1,,,,
,,,,,,d428d8595da7f5bc79b5cfc4,66a626ef09d4e21e1a8894ec,673767fd5aa7933bae200eb4,2024-11-15_09h42.16.017,Tarea de género gramatical,2024.2.2,Win32,59.88023952,,,,,,,,,,,,,,,,,,,,,,,172.4255,173.6234,a,0,0.5177,,[],[],[],[],[],[],[],0.5177,0,173.6255,174.1223,,,,,,1069,FEM,DIS,150,vista,el,a,174.1224,174.1226,-0.026851852,-0.188888889,0,0,0,,0,58,58,168,1,,,,
,,,,,,d428d8595da7f5bc79b5cfc4,66a626ef09d4e21e1a8894ec,673767fd5aa7933bae200eb4,2024-11-15_09h42.16.017,Tarea de género gramatical,2024.2.2,Win32,59.88023952,,,,,,,,,,,,,,,,,,,,,,,174.1245,175.322,l,1,0.5192,,[],[],[],[],[],[],[],0.5192,1,175.3236,175.8214,,,,,,913,FEM,DIS,150,hija,el,a,175.8215,175.8216,-0.026851852,-0.188888889,0,0,0,,0,59,59,12,1,,,,
,,,,,,d428d8595da7f5bc79b5cfc4,66a626ef09d4e21e1a8894ec,673767fd5aa7933bae200eb4,2024-11-15_09h42.16.017,Tarea de género gramatical,2024.2.2,Win32,59.88023952,,,,,,,,,,,,,,,,,,,,,,,175.8244,177.0244,a,1,0.5255,,[],[],[],[],[],[],[],0.5255,1,177.0248,177.5197,,,,,,1013,MAS,AGR,150,toro,el,l,177.5234,177.5247,-0.026851852,-0.188888889,0,0,0,,0,60,60,112,1,,,,
,,,,,,d428d8595da7f5bc79b5cfc4,66a626ef09d4e21e1a8894ec,673767fd5aa7933bae200eb4,2024-11-15_09h42.16.017,Tarea de género gramatical,2024.2.2,Win32,59.88023952,,,,,,,,,,,,,,,,,,,,,,,177.5256,179.2511,l,1,1.0483,,[],[],[],[],[],[],[],1.0483,1,179.2511,179.7516,,,,,,1089,FEM,CON,150,pista,,a,179.7518,179.7519,-0.026851852,-0.188888889,0,0,0,,0,61,61,188,1,,,,
,,,,,,d428d8595da7f5bc79b5cfc4,66a626ef09d4e21e1a8894ec,673767fd5aa7933bae200eb4,2024-11-15_09h42.16.017,Tarea de género gramatical,2024.2.2,Win32,59.88023952,,,,,,,,,,,,,,,,,,,,,,,179.7553,181.1335,a,1,0.7001,,[],[],[],[],[],[],[],0.7001,1,181.1335,181.6335,,,,,,994,MAS,DIS,150,cabo,la,l,181.6335,181.6337,-0.026851852,-0.188888889,0,0,0,,0,62,62,93,1,,,,
,,,,,,d428d8595da7f5bc79b5cfc4,66a626ef09d4e21e1a8894ec,673767fd5aa7933bae200eb4,2024-11-15_09h42.16.017,Tarea de género gramatical,2024.2.2,Win32,59.88023952,,,,,,,,,,,,,,,,,,,,,,,181.6365,182.732,a,1,0.4183,,[],[],[],[],[],[],[],0.4183,1,182.7321,183.2322,,,,,,1050,MAS,CON,150,mozo,,l,183.2323,183.2325,-0.026851852,-0.188888889,0,0,0,,0,63,63,149,1,,,,
,,,,,,d428d8595da7f5bc79b5cfc4,66a626ef09d4e21e1a8894ec,673767fd5aa7933bae200eb4,2024-11-15_09h42.16.017,Tarea de género gramatical,2024.2.2,Win32,59.88023952,,,,,,,,,,,,,,,,,,,,,,,183.2356,184.8469,a,1,0.9334,,[],[],[],[],[],[],[],0.9334,1,184.8471,185.3473,,,,,,1259,MAS,AGR,150,bosque,el,l,185.3474,185.3476,-0.026851852,-0.188888889,0,0,0,,0,64,64,358,1,,,,
,,,,,,d428d8595da7f5bc79b5cfc4,66a626ef09d4e21e1a8894ec,673767fd5aa7933bae200eb4,2024-11-15_09h42.16.017,Tarea de género gramatical,2024.2.2,Win32,59.88023952,,,,,,,,,,,,,,,,,,,,,,,185.3514,186.9619,l,1,0.9382,,[],[],[],[],[],[],[],0.9382,1,186.962,187.462,,,,,,1075,FEM,DIS,150,señal,el,a,187.4648,187.4669,-0.026851852,-0.188888889,0,0,0,,0,65,65,174,1,,,,
,,,,,,d428d8595da7f5bc79b5cfc4,66a626ef09d4e21e1a8894ec,673767fd5aa7933bae200eb4,2024-11-15_09h42.16.017,Tarea de género gramatical,2024.2.2,Win32,59.88023952,,,,,,,,,,,,,,,,,,,,,,,187.4681,188.8605,l,1,0.7172,,[],[],[],[],[],[],[],0.7172,1,188.8606,189.3602,,,,,,1202,FEM,AGR,150,cabeza,la,a,189.3602,189.3604,-0.026851852,-0.188888889,0,0,0,,0,66,66,301,1,,,,
,,,,,,d428d8595da7f5bc79b5cfc4,66a626ef09d4e21e1a8894ec,673767fd5aa7933bae200eb4,2024-11-15_09h42.16.017,Tarea de género gramatical,2024.2.2,Win32,59.88023952,,,,,,,,,,,,,,,,,,,,,,,189.3625,191.1086,a,0,1.0667,,[],[],[],[],[],[],[],1.0667,0,191.1117,191.6081,,,,,,1059,FEM,CON,150,clase,,a,191.6082,191.6082,-0.026851852,-0.188888889,0,0,0,,0,67,67,158,1,,,,
,,,,,,d428d8595da7f5bc79b5cfc4,66a626ef09d4e21e1a8894ec,673767fd5aa7933bae200eb4,2024-11-15_09h42.16.017,Tarea de género gramatical,2024.2.2,Win32,59.88023952,,,,,,,,,,,,,,,,,,,,,,,191.6119,192.8237,l,1,0.5335,,[],[],[],[],[],[],[],0.5335,1,192.8248,193.3236,,,,,,1058,FEM,AGR,150,chica,la,a,193.3236,193.3237,-0.026851852,-0.188888889,0,0,0,,0,68,68,157,1,,,,
,,,,,,d428d8595da7f5bc79b5cfc4,66a626ef09d4e21e1a8894ec,673767fd5aa7933bae200eb4,2024-11-15_09h42.16.017,Tarea de género gramatical,2024.2.2,Win32,59.88023952,,,,,,,,,,,,,,,,,,,,,,,193.3269,194.5059,l,1,0.5011,,[],[],[],[],[],[],[],0.5011,1,194.5061,195.0059,,,,,,1333,FEM,DIS,150,huella,el,a,195.0097,195.0109,-0.026851852,-0.188888889,0,0,0,,0,69,69,432,1,,,,
,,,,,,d428d8595da7f5bc79b5cfc4,66a626ef09d4e21e1a8894ec,673767fd5aa7933bae200eb4,2024-11-15_09h42.16.017,Tarea de género gramatical,2024.2.2,Win32,59.88023952,,,,,,,,,,,,,,,,,,,,,,,195.0118,196.6039,l,0,0.9163,,[],[],[],[],[],[],[],0.9163,0,196.6047,197.1035,,,,,,1062,MAS,CON,150,miedo,,l,197.1035,197.1036,-0.026851852,-0.188888889,0,0,0,,0,70,70,161,1,,,,
,,,,,,d428d8595da7f5bc79b5cfc4,66a626ef09d4e21e1a8894ec,673767fd5aa7933bae200eb4,2024-11-15_09h42.16.017,Tarea de género gramatical,2024.2.2,Win32,59.88023952,,,,,,,,,,,,,,,,,,,,,,,197.1055,198.5187,a,1,0.7363,,[],[],[],[],[],[],[],0.7363,1,198.5198,199.0188,,,,,,1060,MAS,DIS,150,señor,la,l,199.0188,199.0189,-0.026851852,-0.188888889,0,0,0,,0,71,71,159,1,,,,
,,,,,,d428d8595da7f5bc79b5cfc4,66a626ef09d4e21e1a8894ec,673767fd5aa7933bae200eb4,2024-11-15_09h42.16.017,Tarea de género gramatical,2024.2.2,Win32,59.88023952,,,,,,,,,,,,,,,,,,,,,,,199.0207,201.1835,a,0,1.4823,,[],[],[],[],[],[],[],1.4823,0,201.1843,201.6828,,,,,,1201,FEM,DIS,150,verdad,el,a,201.6828,201.683,-0.026851852,-0.188888889,0,0,0,,0,72,72,300,1,,,,
,,,,,,d428d8595da7f5bc79b5cfc4,66a626ef09d4e21e1a8894ec,673767fd5aa7933bae200eb4,2024-11-15_09h42.16.017,Tarea de género gramatical,2024.2.2,Win32,59.88023952,,,,,,,,,,,,,,,,,,,,,,,201.6852,203.5317,a,1,1.1712,,[],[],[],[],[],[],[],1.1712,1,203.5326,204.0313,,,,,,1234,MAS,DIS,150,ataque,la,l,204.0314,204.0315,-0.026851852,-0.188888889,0,0,0,,0,73,73,333,1,,,,
,,,,,,d428d8595da7f5bc79b5cfc4,66a626ef09d4e21e1a8894ec,673767fd5aa7933bae200eb4,2024-11-15_09h42.16.017,Tarea de género gramatical,2024.2.2,Win32,59.88023952,,,,,,,,,,,,,,,,,,,,,,,204.0339,205.4469,l,1,0.7366,,[],[],[],[],[],[],[],0.7366,1,205.447,205.9462,,,,,,944,FEM,AGR,150,zona,la,a,205.9473,205.9498,-0.026851852,-0.188888889,0,0,0,,0,74,74,43,1,,,,
,,,,,,d428d8595da7f5bc79b5cfc4,66a626ef09d4e21e1a8894ec,673767fd5aa7933bae200eb4,2024-11-15_09h42.16.017,Tarea de género gramatical,2024.2.2,Win32,59.88023952,,,,,,,,,,,,,,,,,,,,,,,205.9504,207.2617,a,1,0.6406,,[],[],[],[],[],[],[],0.6406,1,207.2618,207.7611,,,,,,1000,MAS,DIS,150,nido,la,l,207.7612,207.7612,-0.026851852,-0.188888889,0,0,0,,0,75,75,99,1,,,,
,,,,,,d428d8595da7f5bc79b5cfc4,66a626ef09d4e21e1a8894ec,673767fd5aa7933bae200eb4,2024-11-15_09h42.16.017,Tarea de género gramatical,2024.2.2,Win32,59.88023952,,,,,,,,,,,,,,,,,,,,,,,207.763,209.1436,l,1,0.7055,,[],[],[],[],[],[],[],0.7055,1,209.1437,209.6435,,,,,,974,FEM,AGR,150,flor,la,a,209.6436,209.6438,-0.026851852,-0.188888889,0,0,0,,0,76,76,73,1,,,,
,,,,,,d428d8595da7f5bc79b5cfc4,66a626ef09d4e21e1a8894ec,673767fd5aa7933bae200eb4,2024-11-15_09h42.16.017,Tarea de género gramatical,2024.2.2,Win32,59.88023952,,,,,,,,,,,,,,,,,,,,,,,209.6477,210.8589,l,1,0.5307,,[],[],[],[],[],[],[],0.5307,1,210.859,211.3585,,,,,,1143,FEM,CON,150,salsa,,a,211.3587,211.3588,-0.026851852,-0.188888889,0,0,0,,0,77,77,242,1,,,,
,,,,,,d428d8595da7f5bc79b5cfc4,66a626ef09d4e21e1a8894ec,673767fd5aa7933bae200eb4,2024-11-15_09h42.16.017,Tarea de género gramatical,2024.2.2,Win32,59.88023952,,,,,,,,,,,,,,,,,,,,,,,211.3627,212.4579,a,1,0.4182,,[],[],[],[],[],[],[],0.4182,1,212.4579,212.9574,,,,,,1116,MAS,CON,150,éxito,,l,212.96,212.9619,-0.026851852,-0.188888889,0,0,0,,0,78,78,215,1,,,,
,,,,,,d428d8595da7f5bc79b5cfc4,66a626ef09d4e21e1a8894ec,673767fd5aa7933bae200eb4,2024-11-15_09h42.16.017,Tarea de género gramatical,2024.2.2,Win32,59.88023952,,,,,,,,,,,,,,,,,,,,,,,212.9629,214.1732,l,1,0.5385,,[],[],[],[],[],[],[],0.5385,1,214.1734,214.6726,,,,,,1003,FEM,DIS,150,fama,el,a,214.6726,214.6727,-0.026851852,-0.188888889,0,0,0,,0,79,79,102,1,,,,
,,,,,,d428d8595da7f5bc79b5cfc4,66a626ef09d4e21e1a8894ec,673767fd5aa7933bae200eb4,2024-11-15_09h42.16.017,Tarea de género gramatical,2024.2.2,Win32,59.88023952,,,,,,,,,,,,,,,,,,,,,,,214.6754,215.8215,l,1,0.4665,,[],[],[],[],[],[],[],0.4665,1,215.8218,216.321,,,,,,1185,FEM,CON,150,mafia,,a,216.3211,216.3211,-0.026851852,-0.188888889,0,0,0,,0,80,80,284,1,,,,
,,,,,,d428d8595da7f5bc79b5cfc4,66a626ef09d4e21e1a8894ec,673767fd5aa7933bae200eb4,2024-11-15_09h42.16.017,Tarea de género gramatical,2024.2.2,Win32,59.88023952,,,,,,,,,,,,,,,,,,,,,,,216.3224,217.6531,a,1,0.6509,,[],[],[],[],[],[],[],0.6509,1,217.6531,218.1526,,,,,,1247,MAS,AGR,150,cuello,el,l,218.1527,218.1527,-0.026851852,-0.188888889,0,0,0,,0,81,81,346,1,,,,
,,,,,,d428d8595da7f5bc79b5cfc4,66a626ef09d4e21e1a8894ec,673767fd5aa7933bae200eb4,2024-11-15_09h42.16.017,Tarea de género gramatical,2024.2.2,Win32,59.88023952,,,,,,,,,,,,,,,,,,,,,,,218.1544,219.4352,l,1,0.6073,,[],[],[],[],[],[],[],0.6073,1,219.4354,219.9345,,,,,,1291,FEM,DIS,150,altura,el,a,219.9346,219.9346,-0.026851852,-0.188888889,0,0,0,,0,82,82,390,1,,,,
,,,,,,d428d8595da7f5bc79b5cfc4,66a626ef09d4e21e1a8894ec,673767fd5aa7933bae200eb4,2024-11-15_09h42.16.017,Tarea de género gramatical,2024.2.2,Win32,59.88023952,,,,,,,,,,,,,,,,,,,,,,,219.9377,221.0171,l,1,0.4004,,[],[],[],[],[],[],[],0.4004,1,221.0171,221.5169,,,,,,1010,FEM,AGR,150,rosa,la,a,221.5198,221.5216,-0.026851852,-0.188888889,0,0,0,,0,83,83,109,1,,,,
,,,,,,d428d8595da7f5bc79b5cfc4,66a626ef09d4e21e1a8894ec,673767fd5aa7933bae200eb4,2024-11-15_09h42.16.017,Tarea de género gramatical,2024.2.2,Win32,59.88023952,,,,,,,,,,,,,,,,,,,,,,,221.5227,222.882,a,1,0.6864,,[],[],[],[],[],[],[],0.6864,1,222.8821,223.3816,,,,,,1026,MAS,CON,150,lazo,,l,223.3816,223.3818,-0.026851852,-0.188888889,0,0,0,,0,84,84,125,1,,,,
,,,,,,d428d8595da7f5bc79b5cfc4,66a626ef09d4e21e1a8894ec,673767fd5aa7933bae200eb4,2024-11-15_09h42.16.017,Tarea de género gramatical,2024.2.2,Win32,59.88023952,,,,,,,,,,,,,,,,,,,,,,,223.3835,224.5814,l,1,0.5166,,[],[],[],[],[],[],[],0.5166,1,224.5815,225.0811,,,,,,1225,FEM,DIS,150,tierra,el,a,225.0813,225.0816,-0.026851852,-0.188888889,0,0,0,,0,85,85,324,1,,,,
,,,,,,d428d8595da7f5bc79b5cfc4,66a626ef09d4e21e1a8894ec,673767fd5aa7933bae200eb4,2024-11-15_09h42.16.017,Tarea de género gramatical,2024.2.2,Win32,59.88023952,,,,,,,,,,,,,,,,,,,,,,,225.0857,226.48,l,1,0.718,,[],[],[],[],[],[],[],0.718,1,226.4801,226.9791,,,,,,1155,FEM,CON,150,tribu,,a,226.9793,226.9794,-0.026851852,-0.188888889,0,0,0,,0,86,86,254,1,,,,
,,,,,,d428d8595da7f5bc79b5cfc4,66a626ef09d4e21e1a8894ec,673767fd5aa7933bae200eb4,2024-11-15_09h42.16.017,Tarea de género gramatical,2024.2.2,Win32,59.88023952,,,,,,,,,,,,,,,,,,,,,,,226.9826,228.0456,a,1,0.3845,,[],[],[],[],[],[],[],0.3845,1,228.0458,228.5448,,,,,,1187,MAS,AGR,150,plato,el,l,228.5477,228.5499,-0.026851852,-0.188888889,0,0,0,,0,87,87,286,1,,,,
,,,,,,d428d8595da7f5bc79b5cfc4,66a626ef09d4e21e1a8894ec,673767fd5aa7933bae200eb4,2024-11-15_09h42.16.017,Tarea de género gramatical,2024.2.2,Win32,59.88023952,,,,,,,,,,,,,,,,,,,,,,,228.5511,229.7776,a,1,0.5526,,[],[],[],[],[],[],[],0.5526,1,229.7777,230.2768,,,,,,1288,MAS,DIS,150,empleo,la,l,230.2769,230.2771,-0.026851852,-0.188888889,0,0,0,,0,88,88,387,1,,,,
,,,,,,d428d8595da7f5bc79b5cfc4,66a626ef09d4e21e1a8894ec,673767fd5aa7933bae200eb4,2024-11-15_09h42.16.017,Tarea de género gramatical,2024.2.2,Win32,59.88023952,,,,,,,,,,,,,,,,,,,,,,,230.2803,231.5258,a,1,0.5684,,[],[],[],[],[],[],[],0.5684,1,231.526,232.0256,,,,,,1133,MAS,AGR,150,golpe,el,l,232.0257,232.0259,-0.026851852,-0.188888889,0,0,0,,0,89,89,232,1,,,,
,,,,,,d428d8595da7f5bc79b5cfc4,66a626ef09d4e21e1a8894ec,673767fd5aa7933bae200eb4,2024-11-15_09h42.16.017,Tarea de género gramatical,2024.2.2,Win32,59.88023952,,,,,,,,,,,,,,,,,,,,,,,232.0297,233.2407,l,1,0.5345,,[],[],[],[],[],[],[],0.5345,1,233.2407,233.741,,,,,,1183,FEM,DIS,150,pluma,el,a,233.741,233.7412,-0.026851852,-0.188888889,0,0,0,,0,90,90,282,1,,,,
,,,,,,d428d8595da7f5bc79b5cfc4,66a626ef09d4e21e1a8894ec,673767fd5aa7933bae200eb4,2024-11-15_09h42.16.017,Tarea de género gramatical,2024.2.2,Win32,59.88023952,,,,,,,,,,,,,,,,,,,,,,,233.7441,235.089,l,1,0.6687,,[],[],[],[],[],[],[],0.6687,1,235.0892,235.589,,,,,,1165,FEM,DIS,150,rueda,el,a,235.5891,235.5892,-0.026851852,-0.188888889,0,0,0,,0,91,91,264,1,,,,
,,,,,,d428d8595da7f5bc79b5cfc4,66a626ef09d4e21e1a8894ec,673767fd5aa7933bae200eb4,2024-11-15_09h42.16.017,Tarea de género gramatical,2024.2.2,Win32,59.88023952,,,,,,,,,,,,,,,,,,,,,,,235.5925,236.7047,l,1,0.4325,,[],[],[],[],[],[],[],0.4325,1,236.7049,237.204,,,,,,1112,FEM,AGR,150,cinta,la,a,237.2068,237.2089,-0.026851852,-0.188888889,0,0,0,,0,92,92,211,1,,,,
,,,,,,d428d8595da7f5bc79b5cfc4,66a626ef09d4e21e1a8894ec,673767fd5aa7933bae200eb4,2024-11-15_09h42.16.017,Tarea de género gramatical,2024.2.2,Win32,59.88023952,,,,,,,,,,,,,,,,,,,,,,,237.2105,238.42,l,1,0.5344,,[],[],[],[],[],[],[],0.5344,1,238.4202,238.9191,,,,,,1141,FEM,DIS,150,pasta,el,a,238.9191,238.9192,-0.026851852,-0.188888889,0,0,0,,0,93,93,240,1,,,,
,,,,,,d428d8595da7f5bc79b5cfc4,66a626ef09d4e21e1a8894ec,673767fd5aa7933bae200eb4,2024-11-15_09h42.16.017,Tarea de género gramatical,2024.2.2,Win32,59.88023952,,,,,,,,,,,,,,,,,,,,,,,238.9206,240.252,l,1,0.6559,,[],[],[],[],[],[],[],0.6559,1,240.2521,240.7516,,,,,,1071,FEM,CON,150,mitad,,a,240.7517,240.7519,-0.026851852,-0.188888889,0,0,0,,0,94,94,170,1,,,,
,,,,,,d428d8595da7f5bc79b5cfc4,66a626ef09d4e21e1a8894ec,673767fd5aa7933bae200eb4,2024-11-15_09h42.16.017,Tarea de género gramatical,2024.2.2,Win32,59.88023952,,,,,,,,,,,,,,,,,,,,,,,240.7552,241.8169,l,1,0.384,,[],[],[],[],[],[],[],0.384,1,241.817,242.3163,,,,,,962,FEM,AGR,150,sopa,la,a,242.3163,242.3164,-0.026851852,-0.188888889,0,0,0,,0,95,95,61,1,,,,
,,,,,,d428d8595da7f5bc79b5cfc4,66a626ef09d4e21e1a8894ec,673767fd5aa7933bae200eb4,2024-11-15_09h42.16.017,Tarea de género gramatical,2024.2.2,Win32,59.88023952,,,,,,,,,,,,,,,,,,,,,,,242.3198,243.5996,a,1,0.6007,,[],[],[],[],[],[],[],0.6007,1,243.5998,244.0989,,,,,,1314,MAS,CON,150,sótano,,l,244.1027,244.1045,-0.026851852,-0.188888889,0,0,0,,0,96,96,413,1,,,,
,,,,,,d428d8595da7f5bc79b5cfc4,66a626ef09d4e21e1a8894ec,673767fd5aa7933bae200eb4,2024-11-15_09h42.16.017,Tarea de género gramatical,2024.2.2,Win32,59.88023952,,,,,,,,,,,,,,,,,,,,,,,244.1057,245.3309,a,0,0.5561,,[],[],[],[],[],[],[],0.5561,0,245.3329,245.8303,,,,,,1051,FEM,DIS,150,noche,el,a,245.8304,245.8305,-0.026851852,-0.188888889,0,0,0,,0,97,97,150,1,,,,
,,,,,,d428d8595da7f5bc79b5cfc4,66a626ef09d4e21e1a8894ec,673767fd5aa7933bae200eb4,2024-11-15_09h42.16.017,Tarea de género gramatical,2024.2.2,Win32,59.88023952,,,,,,,,,,,,,,,,,,,,,,,245.8325,247.1461,a,1,0.632,,[],[],[],[],[],[],[],0.632,1,247.1486,247.6456,,,,,,1024,MAS,DIS,150,clan,la,l,247.6457,247.6459,-0.026851852,-0.188888889,0,0,0,,0,98,98,123,1,,,,
,,,,,,d428d8595da7f5bc79b5cfc4,66a626ef09d4e21e1a8894ec,673767fd5aa7933bae200eb4,2024-11-15_09h42.16.017,Tarea de género gramatical,2024.2.2,Win32,59.88023952,,,,,,,,,,,,,,,,,,,,,,,247.6496,248.7612,a,1,0.4355,,[],[],[],[],[],[],[],0.4355,1,248.7613,249.2606,,,,,,1126,MAS,DIS,150,color,la,l,249.2607,249.2608,-0.026851852,-0.188888889,0,0,0,,0,99,99,225,1,,,,
,,,,,,d428d8595da7f5bc79b5cfc4,66a626ef09d4e21e1a8894ec,673767fd5aa7933bae200eb4,2024-11-15_09h42.16.017,Tarea de género gramatical,2024.2.2,Win32,59.88023952,,,,,,,,,,,,,,,,,,,,,,,249.2625,250.5272,a,1,0.5878,,[],[],[],[],[],[],[],0.5878,1,250.5273,251.0263,,,,,,1164,MAS,CON,150,pollo,,l,251.0264,251.0265,-0.026851852,-0.188888889,0,0,0,,0,100,100,263,1,,,,
,,,,,,d428d8595da7f5bc79b5cfc4,66a626ef09d4e21e1a8894ec,673767fd5aa7933bae200eb4,2024-11-15_09h42.16.017,Tarea de género gramatical,2024.2.2,Win32,59.88023952,,,,,,,,,,,,,,,,,,,,,,,251.0298,252.5747,a,1,0.8663,,[],[],[],[],[],[],[],0.8663,1,252.5748,253.074,,,,,,970,MAS,DIS,150,palo,la,l,253.0754,253.0777,-0.026851852,-0.188888889,0,0,0,,0,101,101,69,1,,,,
,,,,,,d428d8595da7f5bc79b5cfc4,66a626ef09d4e21e1a8894ec,673767fd5aa7933bae200eb4,2024-11-15_09h42.16.017,Tarea de género gramatical,2024.2.2,Win32,59.88023952,,,,,,,,,,,,,,,,,,,,,,,253.0785,254.2566,l,1,0.5019,,[],[],[],[],[],[],[],0.5019,1,254.2567,254.7561,,,,,,1279,FEM,DIS,150,granja,el,a,254.7561,254.7564,-0.026851852,-0.188888889,0,0,0,,0,102,102,378,1,,,,
,,,,,,d428d8595da7f5bc79b5cfc4,66a626ef09d4e21e1a8894ec,673767fd5aa7933bae200eb4,2024-11-15_09h42.16.017,Tarea de género gramatical,2024.2.2,Win32,59.88023952,,,,,,,,,,,,,,,,,,,,,,,254.758,256.0561,l,1,0.6175,,[],[],[],[],[],[],[],0.6175,1,256.0562,256.5548,,,,,,1106,FEM,AGR,150,época,la,a,256.5549,256.5549,-0.026851852,-0.188888889,0,0,0,,0,103,103,205,1,,,,
,,,,,,d428d8595da7f5bc79b5cfc4,66a626ef09d4e21e1a8894ec,673767fd5aa7933bae200eb4,2024-11-15_09h42.16.017,Tarea de género gramatical,2024.2.2,Win32,59.88023952,,,,,,,,,,,,,,,,,,,,,,,256.5585,257.6537,l,1,0.417,,[],[],[],[],[],[],[],0.417,1,257.6537,258.154,,,,,,1226,FEM,AGR,150,música,la,a,258.1542,258.1543,-0.026851852,-0.188888889,0,0,0,,0,104,104,325,1,,,,
,,,,,,d428d8595da7f5bc79b5cfc4,66a626ef09d4e21e1a8894ec,673767fd5aa7933bae200eb4,2024-11-15_09h42.16.017,Tarea de género gramatical,2024.2.2,Win32,59.88023952,,,,,,,,,,,,,,,,,,,,,,,258.1574,259.3025,l,1,0.4704,,[],[],[],[],[],[],[],0.4704,1,259.3026,259.8031,,,,,,1087,FEM,DIS,150,lista,el,a,259.8068,259.808,-0.026851852,-0.188888889,0,0,0,,0,105,105,186,1,,,,
,,,,,,d428d8595da7f5bc79b5cfc4,66a626ef09d4e21e1a8894ec,673767fd5aa7933bae200eb4,2024-11-15_09h42.16.017,Tarea de género gramatical,2024.2.2,Win32,59.88023952,,,,,,,,,,,,,,,,,,,,,,,259.8092,261.2174,l,1,0.7361,,[],[],[],[],[],[],[],0.7361,1,261.2175,261.7106,,,,,,1111,FEM,DIS,150,salud,el,a,261.7107,261.7107,-0.026851852,-0.188888889,0,0,0,,0,106,106,210,1,,,,
,,,,,,d428d8595da7f5bc79b5cfc4,66a626ef09d4e21e1a8894ec,673767fd5aa7933bae200eb4,2024-11-15_09h42.16.017,Tarea de género gramatical,2024.2.2,Win32,59.88023952,,,,,,,,,,,,,,,,,,,,,,,261.7119,263.2105,a,1,0.8177,,[],[],[],[],[],[],[],0.8177,1,263.2105,263.7105,,,,,,1260,MAS,CON,150,puente,,l,263.7105,263.7106,-0.026851852,-0.188888889,0,0,0,,0,107,107,359,1,,,,
,,,,,,d428d8595da7f5bc79b5cfc4,66a626ef09d4e21e1a8894ec,673767fd5aa7933bae200eb4,2024-11-15_09h42.16.017,Tarea de género gramatical,2024.2.2,Win32,59.88023952,,,,,,,,,,,,,,,,,,,,,,,263.7114,265.107,l,1,0.7172,,[],[],[],[],[],[],[],0.7172,1,265.1071,265.6053,,,,,,1321,FEM,DIS,150,novela,el,a,265.6054,265.6055,-0.026851852,-0.188888889,0,0,0,,0,108,108,420,1,,,,
,,,,,,d428d8595da7f5bc79b5cfc4,66a626ef09d4e21e1a8894ec,673767fd5aa7933bae200eb4,2024-11-15_09h42.16.017,Tarea de género gramatical,2024.2.2,Win32,59.88023952,,,,,,,,,,,,,,,,,,,,,,,265.6062,266.8222,l,1,0.5505,,[],[],[],[],[],[],[],0.5505,1,266.8224,267.3213,,,,,,1094,FEM,AGR,150,banda,la,a,267.3214,267.3215,-0.026851852,-0.188888889,0,0,0,,0,109,109,193,1,,,,
,,,,,,d428d8595da7f5bc79b5cfc4,66a626ef09d4e21e1a8894ec,673767fd5aa7933bae200eb4,2024-11-15_09h42.16.017,Tarea de género gramatical,2024.2.2,Win32,59.88023952,,,,,,,,,,,,,,,,,,,,,,,267.3227,268.3874,l,1,0.3831,,[],[],[],[],[],[],[],0.3831,1,268.3875,268.8866,,,,,,1238,FEM,AGR,150,abuela,la,a,268.8884,268.8894,-0.026851852,-0.188888889,0,0,0,,0,110,110,337,1,,,,
,,,,,,d428d8595da7f5bc79b5cfc4,66a626ef09d4e21e1a8894ec,673767fd5aa7933bae200eb4,2024-11-15_09h42.16.017,Tarea de género gramatical,2024.2.2,Win32,59.88023952,,,,,,,,,,,,,,,,,,,,,,,268.8906,269.9867,a,1,0.4181,,[],[],[],[],[],[],[],0.4181,1,269.9868,270.4858,,,,,,948,MAS,CON,150,loco,,l,270.4859,270.486,-0.026851852,-0.188888889,0,0,0,,0,111,111,47,1,,,,
,,,,,,d428d8595da7f5bc79b5cfc4,66a626ef09d4e21e1a8894ec,673767fd5aa7933bae200eb4,2024-11-15_09h42.16.017,Tarea de género gramatical,2024.2.2,Win32,59.88023952,,,,,,,,,,,,,,,,,,,,,,,270.4876,271.4858,l,1,0.3173,,[],[],[],[],[],[],[],0.3173,1,271.4859,271.984,,,,,,951,FEM,CON,150,bala,,a,271.9841,271.9842,-0.026851852,-0.188888889,0,0,0,,0,112,112,50,1,,,,
,,,,,,d428d8595da7f5bc79b5cfc4,66a626ef09d4e21e1a8894ec,673767fd5aa7933bae200eb4,2024-11-15_09h42.16.017,Tarea de género gramatical,2024.2.2,Win32,59.88023952,,,,,,,,,,,,,,,,,,,,,,,271.9859,273.2673,a,1,0.601,,[],[],[],[],[],[],[],0.601,1,273.2674,273.7662,,,,,,1236,MAS,CON,150,crimen,,l,273.7662,273.7664,-0.026851852,-0.188888889,0,0,0,,0,113,113,335,1,,,,
,,,,,,d428d8595da7f5bc79b5cfc4,66a626ef09d4e21e1a8894ec,673767fd5aa7933bae200eb4,2024-11-15_09h42.16.017,Tarea de género gramatical,2024.2.2,Win32,59.88023952,,,,,,,,,,,,,,,,,,,,,,,273.7677,274.9321,a,1,0.484,,[],[],[],[],[],[],[],0.484,1,274.9323,275.4317,,,,,,1325,MAS,AGR,150,chiste,el,l,275.4338,275.4351,-0.026851852,-0.188888889,0,0,0,,0,114,114,424,1,,,,
,,,,,,d428d8595da7f5bc79b5cfc4,66a626ef09d4e21e1a8894ec,673767fd5aa7933bae200eb4,2024-11-15_09h42.16.017,Tarea de género gramatical,2024.2.2,Win32,59.88023952,,,,,,,,,,,,,,,,,,,,,,,275.4365,276.4311,l,1,0.317,,[],[],[],[],[],[],[],0.317,1,276.4312,276.9294,,,,,,1130,FEM,AGR,150,regla,la,a,276.9295,276.9296,-0.026851852,-0.188888889,0,0,0,,0,115,115,229,1,,,,
,,,,,,d428d8595da7f5bc79b5cfc4,66a626ef09d4e21e1a8894ec,673767fd5aa7933bae200eb4,2024-11-15_09h42.16.017,Tarea de género gramatical,2024.2.2,Win32,59.88023952,,,,,,,,,,,,,,,,,,,,,,,276.9304,278.0133,a,1,0.401,,[],[],[],[],[],[],[],0.401,1,278.0135,278.5122,,,,,,1332,MAS,CON,150,océano,,l,278.5122,278.5123,-0.026851852,-0.188888889,0,0,0,,0,116,116,431,1,,,,
,,,,,,d428d8595da7f5bc79b5cfc4,66a626ef09d4e21e1a8894ec,673767fd5aa7933bae200eb4,2024-11-15_09h42.16.017,Tarea de género gramatical,2024.2.2,Win32,59.88023952,,,,,,,,,,,,,,,,,,,,,,,278.5132,279.6453,a,1,0.4507,,[],[],[],[],[],[],[],0.4507,1,279.6456,280.1442,,,,,,1295,MAS,AGR,150,correo,el,l,280.1442,280.1444,-0.026851852,-0.188888889,0,0,0,,0,117,117,394,1,,,,
,,,,,,d428d8595da7f5bc79b5cfc4,66a626ef09d4e21e1a8894ec,673767fd5aa7933bae200eb4,2024-11-15_09h42.16.017,Tarea de género gramatical,2024.2.2,Win32,59.88023952,,,,,,,,,,,,,,,,,,,,,,,280.1464,281.2437,l,0,0.4169,,[],[],[],[],[],[],[],0.4169,0,281.2449,281.743,,,,,,1344,MAS,CON,150,límite,,l,281.743,281.7431,-0.026851852,-0.188888889,0,0,0,,0,118,118,443,1,,,,
,,,,,,d428d8595da7f5bc79b5cfc4,66a626ef09d4e21e1a8894ec,673767fd5aa7933bae200eb4,2024-11-15_09h42.16.017,Tarea de género gramatical,2024.2.2,Win32,59.88023952,,,,,,,,,,,,,,,,,,,,,,,281.7448,282.9086,a,1,0.4836,,[],[],[],[],[],[],[],0.4836,1,282.9092,283.4083,,,,,,1121,MAS,AGR,150,brazo,el,l,283.41,283.4109,-0.026851852,-0.188888889,0,0,0,,0,119,119,220,1,,,,
,,,,,,d428d8595da7f5bc79b5cfc4,66a626ef09d4e21e1a8894ec,673767fd5aa7933bae200eb4,2024-11-15_09h42.16.017,Tarea de género gramatical,2024.2.2,Win32,59.88023952,,,,,,,,,,,,,,,,,,,,,,,283.4119,284.4407,a,1,0.3507,,[],[],[],[],[],[],[],0.3507,1,284.4407,284.944,,,,,,1302,MAS,CON,150,ladrón,,l,284.944,284.9441,-0.026851852,-0.188888889,0,0,0,,0,120,120,401,1,,,,
,,,,,,d428d8595da7f5bc79b5cfc4,66a626ef09d4e21e1a8894ec,673767fd5aa7933bae200eb4,2024-11-15_09h42.16.017,Tarea de género gramatical,2024.2.2,Win32,59.88023952,,,,,,,,,,,,,,,,,,,,,,,284.9452,285.9233,a,1,0.3009,,[],[],[],[],[],[],[],0.3009,1,285.9234,286.4222,,,,,,1080,MAS,CON,150,fuego,,l,286.4222,286.4223,-0.026851852,-0.188888889,0,0,0,,0,121,121,179,1,,,,
,,,,,,d428d8595da7f5bc79b5cfc4,66a626ef09d4e21e1a8894ec,673767fd5aa7933bae200eb4,2024-11-15_09h42.16.017,Tarea de género gramatical,2024.2.2,Win32,59.88023952,,,,,,,,,,,,,,,,,,,,,,,286.4239,287.4723,a,1,0.3675,,[],[],[],[],[],[],[],0.3675,1,287.4724,287.9708,,,,,,1188,MAS,CON,150,grado,,l,287.971,287.971,-0.026851852,-0.188888889,0,0,0,,0,122,122,287,1,,,,
,,,,,,d428d8595da7f5bc79b5cfc4,66a626ef09d4e21e1a8894ec,673767fd5aa7933bae200eb4,2024-11-15_09h42.16.017,Tarea de género gramatical,2024.2.2,Win32,59.88023952,,,,,,,,,,,,,,,,,,,,,,,287.9724,288.9371,a,0,0.2847,,[],[],[],[],[],[],[],0.2847,0,288.9378,289.4299,,,,,,1077,FEM,CON,150,broma,,a,289.4321,289.433,-0.026851852,-0.188888889,0,0,0,,0,123,123,176,1,,,,
,,,,,,d428d8595da7f5bc79b5cfc4,66a626ef09d4e21e1a8894ec,673767fd5aa7933bae200eb4,2024-11-15_09h42.16.017,Tarea de género gramatical,2024.2.2,Win32,59.88023952,,,,,,,,,,,,,,,,,,,,,,,289.4339,290.5536,a,1,0.4608,,[],[],[],[],[],[],[],0.4608,1,290.5551,291.0526,,,,,,1205,MAS,AGR,150,hombre,el,l,291.0527,291.0529,-0.026851852,-0.188888889,0,0,0,,0,124,124,304,1,,,,
,,,,,,d428d8595da7f5bc79b5cfc4,66a626ef09d4e21e1a8894ec,673767fd5aa7933bae200eb4,2024-11-15_09h42.16.017,Tarea de género gramatical,2024.2.2,Win32,59.88023952,,,,,,,,,,,,,,,,,,,,,,,291.0547,292.0834,a,1,0.3485,,[],[],[],[],[],[],[],0.3485,1,292.0835,292.5848,,,,,,1218,MAS,CON,150,pueblo,,l,292.5849,292.585,-0.026851852,-0.188888889,0,0,0,,0,125,125,317,1,,,,
,,,,,,d428d8595da7f5bc79b5cfc4,66a626ef09d4e21e1a8894ec,673767fd5aa7933bae200eb4,2024-11-15_09h42.16.017,Tarea de género gramatical,2024.2.2,Win32,59.88023952,,,,,,,,,,,,,,,,,,,,,,,292.5867,293.7014,l,1,0.4377,,[],[],[],[],[],[],[],0.4377,1,293.7016,294.2,,,,,,933,FEM,CON,150,boda,,a,294.2002,294.2003,-0.026851852,-0.188888889,0,0,0,,0,126,126,32,1,,,,
,,,,,,d428d8595da7f5bc79b5cfc4,66a626ef09d4e21e1a8894ec,673767fd5aa7933bae200eb4,2024-11-15_09h42.16.017,Tarea de género gramatical,2024.2.2,Win32,59.88023952,,,,,,,,,,,,,,,,,,,,,,,294.2019,295.3313,l,1,0.4499,,[],[],[],[],[],[],[],0.4499,1,295.3314,295.8233,,,,,,1070,FEM,AGR,150,carta,la,a,295.8236,295.8238,-0.026851852,-0.188888889,0,0,0,,0,127,127,169,1,,,,
,,,,,,d428d8595da7f5bc79b5cfc4,66a626ef09d4e21e1a8894ec,673767fd5aa7933bae200eb4,2024-11-15_09h42.16.017,Tarea de género gramatical,2024.2.2,Win32,59.88023952,,,,,,,,,,,,,,,,,,,,,,,295.8269,296.9078,a,1,0.4087,,[],[],[],[],[],[],[],0.4087,1,296.9083,297.3965,,,,,,952,MAS,DIS,150,lago,la,l,297.3988,297.3999,-0.026851852,-0.188888889,0,0,0,,0,128,128,51,1,,,,
,,,,,,d428d8595da7f5bc79b5cfc4,66a626ef09d4e21e1a8894ec,673767fd5aa7933bae200eb4,2024-11-15_09h42.16.017,Tarea de género gramatical,2024.2.2,Win32,59.88023952,,,,,,,,,,,,,,,,,,,,,,,297.401,298.9288,l,1,0.8545,,[],[],[],[],[],[],[],0.8545,1,298.9289,299.429,,,,,,1117,FEM,DIS,150,tarea,el,a,299.429,299.4292,-0.026851852,-0.188888889,0,0,0,,0,129,129,216,1,,,,
,,,,,,d428d8595da7f5bc79b5cfc4,66a626ef09d4e21e1a8894ec,673767fd5aa7933bae200eb4,2024-11-15_09h42.16.017,Tarea de género gramatical,2024.2.2,Win32,59.88023952,,,,,,,,,,,,,,,,,,,,,,,299.431,300.7942,a,1,0.6836,,[],[],[],[],[],[],[],0.6836,1,300.7943,301.2938,,,,,,1194,MAS,CON,150,cable,,l,301.2939,301.2941,-0.026851852,-0.188888889,0,0,0,,0,130,130,293,1,,,,
,,,,,,d428d8595da7f5bc79b5cfc4,66a626ef09d4e21e1a8894ec,673767fd5aa7933bae200eb4,2024-11-15_09h42.16.017,Tarea de género gramatical,2024.2.2,Win32,59.88023952,,,,,,,,,,,,,,,,,,,,,,,301.2953,302.6254,l,1,0.6577,,[],[],[],[],[],[],[],0.6577,1,302.6256,303.1179,,,,,,1345,FEM,DIS,150,bondad,el,a,303.1181,303.1186,-0.026851852,-0.188888889,0,0,0,,0,131,131,444,1,,,,
,,,,,,d428d8595da7f5bc79b5cfc4,66a626ef09d4e21e1a8894ec,673767fd5aa7933bae200eb4,2024-11-15_09h42.16.017,Tarea de género gramatical,2024.2.2,Win32,59.88023952,,,,,,,,,,,,,,,,,,,,,,,303.1209,304.5569,l,1,0.7662,,[],[],[],[],[],[],[],0.7662,1,304.557,305.0489,,,,,,956,FEM,AGR,150,bola,la,a,305.0528,305.0539,-0.026851852,-0.188888889,0,0,0,,0,132,132,55,1,,,,
,,,,,,d428d8595da7f5bc79b5cfc4,66a626ef09d4e21e1a8894ec,673767fd5aa7933bae200eb4,2024-11-15_09h42.16.017,Tarea de género gramatical,2024.2.2,Win32,59.88023952,,,,,,,,,,,,,,,,,,,,,,,305.0555,306.5917,a,1,0.8627,0.0002,[],[],[],[],[],[],[],0.8627,1,306.5918,307.0899,,,,,,1320,MAS,CON,150,helado,,l,307.09,307.0901,-0.026851852,-0.188888889,0,0,0,,0,133,133,419,1,,,,
,,,,,,d428d8595da7f5bc79b5cfc4,66a626ef09d4e21e1a8894ec,673767fd5aa7933bae200eb4,2024-11-15_09h42.16.017,Tarea de género gramatical,2024.2.2,Win32,59.88023952,,,,,,,,,,,,,,,,,,,,,,,307.0916,308.4046,a,1,0.6441,,[],[],[],[],[],[],[],0.6441,1,308.4046,308.903,,,,,,1096,MAS,DIS,150,barco,la,l,308.9031,308.9031,-0.026851852,-0.188888889,0,0,0,,0,134,134,195,1,,,,
,,,,,,d428d8595da7f5bc79b5cfc4,66a626ef09d4e21e1a8894ec,673767fd5aa7933bae200eb4,2024-11-15_09h42.16.017,Tarea de género gramatical,2024.2.2,Win32,59.88023952,,,,,,,,,,,,,,,,,,,,,,,308.9039,310.4034,a,1,0.8281,,[],[],[],[],[],[],[],0.8281,1,310.4035,310.9027,,,,,,1086,MAS,CON,150,error,,l,310.9028,310.903,-0.026851852,-0.188888889,0,0,0,,0,135,135,185,1,,,,
,,,,,,d428d8595da7f5bc79b5cfc4,66a626ef09d4e21e1a8894ec,673767fd5aa7933bae200eb4,2024-11-15_09h42.16.017,Tarea de género gramatical,2024.2.2,Win32,59.88023952,,,,,,,,,,,,,,,,,,,,,,,310.9046,311.9928,a,1,0.4081,,[],[],[],[],[],[],[],0.4081,1,311.9931,312.501,,,,,,1054,MAS,DIS,150,padre,la,l,312.5011,312.5011,-0.026851852,-0.188888889,0,0,0,,0,136,136,153,1,,,,
,,,,,,d428d8595da7f5bc79b5cfc4,66a626ef09d4e21e1a8894ec,673767fd5aa7933bae200eb4,2024-11-15_09h42.16.017,Tarea de género gramatical,2024.2.2,Win32,59.88023952,,,,,,,,,,,,,,,,,,,,,,,312.5021,313.5281,a,0,0.3468,,[],[],[],[],[],[],[],0.3468,0,313.5288,314.0163,,,,,,1105,FEM,DIS,150,reina,el,a,314.0184,314.0194,-0.026851852,-0.188888889,0,0,0,,0,137,137,204,1,,,,
,,,,,,d428d8595da7f5bc79b5cfc4,66a626ef09d4e21e1a8894ec,673767fd5aa7933bae200eb4,2024-11-15_09h42.16.017,Tarea de género gramatical,2024.2.2,Win32,59.88023952,,,,,,,,,,,,,,,,,,,,,,,314.0207,315.2849,l,1,0.5955,,[],[],[],[],[],[],[],0.5955,1,315.2859,315.7815,,,,,,1159,FEM,DIS,150,prima,el,a,315.7815,315.7816,-0.026851852,-0.188888889,0,0,0,,0,138,138,258,1,,,,
,,,,,,d428d8595da7f5bc79b5cfc4,66a626ef09d4e21e1a8894ec,673767fd5aa7933bae200eb4,2024-11-15_09h42.16.017,Tarea de género gramatical,2024.2.2,Win32,59.88023952,,,,,,,,,,,,,,,,,,,,,,,315.7829,317.0967,l,1,0.633,,[],[],[],[],[],[],[],0.633,1,317.0968,317.5961,,,,,,1016,FEM,AGR,150,nube,la,a,317.5962,317.5964,-0.026851852,-0.188888889,0,0,0,,0,139,139,115,1,,,,
,,,,,,d428d8595da7f5bc79b5cfc4,66a626ef09d4e21e1a8894ec,673767fd5aa7933bae200eb4,2024-11-15_09h42.16.017,Tarea de género gramatical,2024.2.2,Win32,59.88023952,,,,,,,,,,,,,,,,,,,,,,,317.5975,318.9636,a,1,0.6836,,[],[],[],[],[],[],[],0.6836,1,318.9637,319.4624,,,,,,928,MAS,DIS,150,club,la,l,319.4626,319.4626,-0.026851852,-0.188888889,0,0,0,,0,140,140,27,1,,,,
,,,,,,d428d8595da7f5bc79b5cfc4,66a626ef09d4e21e1a8894ec,673767fd5aa7933bae200eb4,2024-11-15_09h42.16.017,Tarea de género gramatical,2024.2.2,Win32,59.88023952,,,,,,,,,,,,,,,,,,,,,,,319.4634,320.5453,a,1,0.4088,,[],[],[],[],[],[],[],0.4088,1,320.5453,321.0446,,,,,,911,MAS,AGR,150,país,el,l,321.0466,321.0474,-0.026851852,-0.188888889,0,0,0,,0,141,141,10,1,,,,
,,,,,,d428d8595da7f5bc79b5cfc4,66a626ef09d4e21e1a8894ec,673767fd5aa7933bae200eb4,2024-11-15_09h42.16.017,Tarea de género gramatical,2024.2.2,Win32,59.88023952,,,,,,,,,,,,,,,,,,,,,,,321.0484,322.1948,l,1,0.4679,,[],[],[],[],[],[],[],0.4679,1,322.1949,322.6944,,,,,,932,FEM,AGR,150,caja,la,a,322.6944,322.6948,-0.026851852,-0.188888889,0,0,0,,0,142,142,31,1,,,,
,,,,,,d428d8595da7f5bc79b5cfc4,66a626ef09d4e21e1a8894ec,673767fd5aa7933bae200eb4,2024-11-15_09h42.16.017,Tarea de género gramatical,2024.2.2,Win32,59.88023952,,,,,,,,,,,,,,,,,,,,,,,322.6962,323.8842,a,1,0.5101,,[],[],[],[],[],[],[],0.5101,1,323.8847,324.375,,,,,,1156,MAS,DIS,150,techo,la,l,324.3751,324.3752,-0.026851852,-0.188888889,0,0,0,,0,143,143,255,1,,,,
,,,,,,d428d8595da7f5bc79b5cfc4,66a626ef09d4e21e1a8894ec,673767fd5aa7933bae200eb4,2024-11-15_09h42.16.017,Tarea de género gramatical,2024.2.2,Win32,59.88023952,,,,,,,,,,,,,,,,,,,,,,,324.3764,325.6037,a,1,0.5554,,[],[],[],[],[],[],[],0.5554,1,325.6038,326.1078,,,,,,1271,MAS,AGR,150,sonido,el,l,326.1079,326.1081,-0.026851852,-0.188888889,0,0,0,,0,144,144,370,1,,,,
,,,,,,d428d8595da7f5bc79b5cfc4,66a626ef09d4e21e1a8894ec,673767fd5aa7933bae200eb4,2024-11-15_09h42.16.017,Tarea de género gramatical,2024.2.2,Win32,59.88023952,,,,,,,,,,,,,,,,,,,,,,,326.1095,327.2577,a,1,0.4679,,[],[],[],[],[],[],[],0.4679,1,327.2578,327.7552,,,,,,1176,MAS,CON,150,ritmo,,l,327.7552,327.7554,-0.026851852,-0.188888889,0,0,0,,0,145,145,275,1,,,,
,,,,,,d428d8595da7f5bc79b5cfc4,66a626ef09d4e21e1a8894ec,673767fd5aa7933bae200eb4,2024-11-15_09h42.16.017,Tarea de género gramatical,2024.2.2,Win32,59.88023952,,,,,,,,,,,,,,,,,,,,,,,327.7581,328.872,a,1,0.4349,,[],[],[],[],[],[],[],0.4349,1,328.8723,329.3669,,,,,,972,MAS,CON,150,hoyo,,l,329.3686,329.3696,-0.026851852,-0.188888889,0,0,0,,0,146,146,71,1,,,,
,,,,,,d428d8595da7f5bc79b5cfc4,66a626ef09d4e21e1a8894ec,673767fd5aa7933bae200eb4,2024-11-15_09h42.16.017,Tarea de género gramatical,2024.2.2,Win32,59.88023952,,,,,,,,,,,,,,,,,,,,,,,329.3708,330.8199,l,1,0.7672,,[],[],[],[],[],[],[],0.7672,1,330.82,331.3173,,,,,,1160,FEM,AGR,150,barra,la,a,331.3173,331.3175,-0.026851852,-0.188888889,0,0,0,,0,147,147,259,1,,,,
,,,,,,d428d8595da7f5bc79b5cfc4,66a626ef09d4e21e1a8894ec,673767fd5aa7933bae200eb4,2024-11-15_09h42.16.017,Tarea de género gramatical,2024.2.2,Win32,59.88023952,,,,,,,,,,,,,,,,,,,,,,,331.3194,332.928,l,1,0.9251,,[],[],[],[],[],[],[],0.9251,1,332.9285,333.417,,,,,,1161,FEM,CON,150,cueva,,a,333.4171,333.4173,-0.026851852,-0.188888889,0,0,0,,0,148,148,260,1,,,,
,,,,,,d428d8595da7f5bc79b5cfc4,66a626ef09d4e21e1a8894ec,673767fd5aa7933bae200eb4,2024-11-15_09h42.16.017,Tarea de género gramatical,2024.2.2,Win32,59.88023952,,,,,,,,,,,,,,,,,,,,,,,333.4192,334.8329,a,0,0.7334,,[],[],[],[],[],[],[],0.7334,0,334.8343,335.3241,,,,,,1178,FEM,AGR,150,presa,la,a,335.3243,335.3245,-0.026851852,-0.188888889,0,0,0,,0,149,149,277,1,,,,
,,,,,,d428d8595da7f5bc79b5cfc4,66a626ef09d4e21e1a8894ec,673767fd5aa7933bae200eb4,2024-11-15_09h42.16.017,Tarea de género gramatical,2024.2.2,Win32,59.88023952,,,,,,,,,,,,,,,,,,,,,,,335.3276,337.9801,,0,,,[],[],[],[],[],[],[],0.7334,-1,337.9818,338.4708,,,,,,1110,MAS,CON,150,baile,,l,338.4743,653.9623,-0.026851852,-0.188888889,0,0,0,space,0,150,150,209,1,315.4598,,,
,,,,,,d428d8595da7f5bc79b5cfc4,66a626ef09d4e21e1a8894ec,673767fd5aa7933bae200eb4,2024-11-15_09h42.16.017,Tarea de género gramatical,2024.2.2,Win32,59.88023952,,,,,,,,,,,,,,,,,,,,,,,653.9661,655.7429,a,1,1.1005,,[],[],[],[],[],[],[],1.1005,1,655.7441,656.2435,,,,,,1018,MAS,DIS,150,baúl,la,l,656.2436,656.2437,-0.026851852,-0.188888889,0,0,0,,0,151,151,117,1,,,,
,,,,,,d428d8595da7f5bc79b5cfc4,66a626ef09d4e21e1a8894ec,673767fd5aa7933bae200eb4,2024-11-15_09h42.16.017,Tarea de género gramatical,2024.2.2,Win32,59.88023952,,,,,,,,,,,,,,,,,,,,,,,656.2472,657.7419,a,1,0.8171,,[],[],[],[],[],[],[],0.8171,1,657.742,658.2412,,,,,,1132,MAS,DIS,150,calor,la,l,658.2413,658.2415,-0.026851852,-0.188888889,0,0,0,,0,152,152,231,1,,,,
,,,,,,d428d8595da7f5bc79b5cfc4,66a626ef09d4e21e1a8894ec,673767fd5aa7933bae200eb4,2024-11-15_09h42.16.017,Tarea de género gramatical,2024.2.2,Win32,59.88023952,,,,,,,,,,,,,,,,,,,,,,,658.2442,659.3235,a,1,0.3993,,[],[],[],[],[],[],[],0.3993,1,659.3236,659.8235,,,,,,905,MAS,AGR,150,tipo,el,l,659.8236,659.8238,-0.026851852,-0.188888889,0,0,0,,0,153,153,4,1,,,,
,,,,,,d428d8595da7f5bc79b5cfc4,66a626ef09d4e21e1a8894ec,673767fd5aa7933bae200eb4,2024-11-15_09h42.16.017,Tarea de género gramatical,2024.2.2,Win32,59.88023952,,,,,,,,,,,,,,,,,,,,,,,659.8268,660.8728,l,1,0.3664,,[],[],[],[],[],[],[],0.3664,1,660.873,661.3717,,,,,,1245,FEM,CON,150,pierna,,a,661.3718,661.3719,-0.026851852,-0.188888889,0,0,0,,0,154,154,344,1,,,,
,,,,,,d428d8595da7f5bc79b5cfc4,66a626ef09d4e21e1a8894ec,673767fd5aa7933bae200eb4,2024-11-15_09h42.16.017,Tarea de género gramatical,2024.2.2,Win32,59.88023952,,,,,,,,,,,,,,,,,,,,,,,661.3743,662.4877,a,1,0.4326,,[],[],[],[],[],[],[],0.4326,1,662.4878,662.9871,,,,,,1290,MAS,CON,150,rostro,,l,662.9901,662.9916,-0.026851852,-0.188888889,0,0,0,,0,155,155,389,1,,,,
,,,,,,d428d8595da7f5bc79b5cfc4,66a626ef09d4e21e1a8894ec,673767fd5aa7933bae200eb4,2024-11-15_09h42.16.017,Tarea de género gramatical,2024.2.2,Win32,59.88023952,,,,,,,,,,,,,,,,,,,,,,,662.9922,664.1533,l,1,0.4889,,[],[],[],[],[],[],[],0.4889,1,664.1534,664.6524,,,,,,1346,FEM,AGR,150,bañera,la,a,664.6527,664.6528,-0.026851852,-0.188888889,0,0,0,,0,156,156,445,1,,,,
,,,,,,d428d8595da7f5bc79b5cfc4,66a626ef09d4e21e1a8894ec,673767fd5aa7933bae200eb4,2024-11-15_09h42.16.017,Tarea de género gramatical,2024.2.2,Win32,59.88023952,,,,,,,,,,,,,,,,,,,,,,,664.6572,665.8348,l,1,0.501,,[],[],[],[],[],[],[],0.501,1,665.8349,666.334,,,,,,1022,FEM,AGR,150,loca,la,a,666.3341,666.3343,-0.026851852,-0.188888889,0,0,0,,0,157,157,121,1,,,,
,,,,,,d428d8595da7f5bc79b5cfc4,66a626ef09d4e21e1a8894ec,673767fd5aa7933bae200eb4,2024-11-15_09h42.16.017,Tarea de género gramatical,2024.2.2,Win32,59.88023952,,,,,,,,,,,,,,,,,,,,,,,666.3378,667.408,l,1,0.3998,,[],[],[],[],[],[],[],0.3998,1,667.4082,667.909,,,,,,1274,FEM,AGR,150,herida,la,a,667.909,667.9091,-0.026851852,-0.188888889,0,0,0,,0,158,158,373,1,,,,
,,,,,,d428d8595da7f5bc79b5cfc4,66a626ef09d4e21e1a8894ec,673767fd5aa7933bae200eb4,2024-11-15_09h42.16.017,Tarea de género gramatical,2024.2.2,Win32,59.88023952,,,,,,,,,,,,,,,,,,,,,,,667.91,669.3573,l,1,0.7805,,[],[],[],[],[],[],[],0.7805,1,669.3574,669.8568,,,,,,981,FEM,CON,150,cima,,a,669.8578,669.8587,-0.026851852,-0.188888889,0,0,0,,0,159,159,80,1,,,,
,,,,,,d428d8595da7f5bc79b5cfc4,66a626ef09d4e21e1a8894ec,673767fd5aa7933bae200eb4,2024-11-15_09h42.16.017,Tarea de género gramatical,2024.2.2,Win32,59.88023952,,,,,,,,,,,,,,,,,,,,,,,669.8594,671.0231,a,1,0.4838,,[],[],[],[],[],[],[],0.4838,1,671.0231,671.5214,,,,,,1072,MAS,DIS,150,poder,la,l,671.5215,671.5216,-0.026851852,-0.188888889,0,0,0,,0,160,160,171,1,,,,
,,,,,,d428d8595da7f5bc79b5cfc4,66a626ef09d4e21e1a8894ec,673767fd5aa7933bae200eb4,2024-11-15_09h42.16.017,Tarea de género gramatical,2024.2.2,Win32,59.88023952,,,,,,,,,,,,,,,,,,,,,,,671.5222,672.5545,a,1,0.3502,,[],[],[],[],[],[],[],0.3502,1,672.5546,673.055,,,,,,1199,MAS,AGR,150,rumbo,el,l,673.0551,673.0552,-0.026851852,-0.188888889,0,0,0,,0,161,161,298,1,,,,
,,,,,,d428d8595da7f5bc79b5cfc4,66a626ef09d4e21e1a8894ec,673767fd5aa7933bae200eb4,2024-11-15_09h42.16.017,Tarea de género gramatical,2024.2.2,Win32,59.88023952,,,,,,,,,,,,,,,,,,,,,,,673.0569,674.0703,a,1,0.3337,,[],[],[],[],[],[],[],0.3337,1,674.0704,674.5696,,,,,,1331,MAS,AGR,150,veneno,el,l,674.5696,674.5696,-0.026851852,-0.188888889,0,0,0,,0,162,162,430,1,,,,
,,,,,,d428d8595da7f5bc79b5cfc4,66a626ef09d4e21e1a8894ec,673767fd5aa7933bae200eb4,2024-11-15_09h42.16.017,Tarea de género gramatical,2024.2.2,Win32,59.88023952,,,,,,,,,,,,,,,,,,,,,,,674.5705,675.6205,a,1,0.3689,,[],[],[],[],[],[],[],0.3689,1,675.6206,676.119,,,,,,1330,MAS,DIS,150,título,la,l,676.1191,676.1192,-0.026851852,-0.188888889,0,0,0,,0,163,163,429,1,,,,
,,,,,,d428d8595da7f5bc79b5cfc4,66a626ef09d4e21e1a8894ec,673767fd5aa7933bae200eb4,2024-11-15_09h42.16.017,Tarea de género gramatical,2024.2.2,Win32,59.88023952,,,,,,,,,,,,,,,,,,,,,,,676.1207,677.1358,a,1,0.3351,,[],[],[],[],[],[],[],0.3351,1,677.1358,677.6356,,,,,,1212,MAS,CON,150,equipo,,l,677.6373,677.6383,-0.026851852,-0.188888889,0,0,0,,0,164,164,311,1,,,,
,,,,,,d428d8595da7f5bc79b5cfc4,66a626ef09d4e21e1a8894ec,673767fd5aa7933bae200eb4,2024-11-15_09h42.16.017,Tarea de género gramatical,2024.2.2,Win32,59.88023952,,,,,,,,,,,,,,,,,,,,,,,677.6395,678.9288,l,1,0.6136,,[],[],[],[],[],[],[],0.6136,1,678.9289,679.4244,,,,,,1135,FEM,DIS,150,torre,el,a,679.4246,679.4251,-0.026851852,-0.188888889,0,0,0,,0,165,165,234,1,,,,
,,,,,,d428d8595da7f5bc79b5cfc4,66a626ef09d4e21e1a8894ec,673767fd5aa7933bae200eb4,2024-11-15_09h42.16.017,Tarea de género gramatical,2024.2.2,Win32,59.88023952,,,,,,,,,,,,,,,,,,,,,,,679.4278,680.7088,a,1,0.609,,[],[],[],[],[],[],[],0.609,1,680.7089,681.215,,,,,,1324,MAS,DIS,150,rastro,la,l,681.2151,681.2151,-0.026851852,-0.188888889,0,0,0,,0,166,166,423,1,,,,
,,,,,,d428d8595da7f5bc79b5cfc4,66a626ef09d4e21e1a8894ec,673767fd5aa7933bae200eb4,2024-11-15_09h42.16.017,Tarea de género gramatical,2024.2.2,Win32,59.88023952,,,,,,,,,,,,,,,,,,,,,,,681.2167,682.6643,l,1,0.7673,,[],[],[],[],[],[],[],0.7673,1,682.6644,683.162,,,,,,1118,FEM,AGR,150,nieve,la,a,683.1621,683.1623,-0.026851852,-0.188888889,0,0,0,,0,167,167,217,1,,,,
,,,,,,d428d8595da7f5bc79b5cfc4,66a626ef09d4e21e1a8894ec,673767fd5aa7933bae200eb4,2024-11-15_09h42.16.017,Tarea de género gramatical,2024.2.2,Win32,59.88023952,,,,,,,,,,,,,,,,,,,,,,,683.1645,684.4624,a,1,0.6176,,[],[],[],[],[],[],[],0.6176,1,684.4625,684.9528,,,,,,1042,MAS,DIS,150,lodo,la,l,684.9562,684.9573,-0.026851852,-0.188888889,0,0,0,,0,168,168,141,1,,,,
,,,,,,d428d8595da7f5bc79b5cfc4,66a626ef09d4e21e1a8894ec,673767fd5aa7933bae200eb4,2024-11-15_09h42.16.017,Tarea de género gramatical,2024.2.2,Win32,59.88023952,,,,,,,,,,,,,,,,,,,,,,,684.9583,686.1938,a,1,0.5659,,[],[],[],[],[],[],[],0.5659,1,686.194,686.6849,,,,,,1092,MAS,CON,150,grupo,,l,686.6852,686.6858,-0.026851852,-0.188888889,0,0,0,,0,169,169,191,1,,,,
,,,,,,d428d8595da7f5bc79b5cfc4,66a626ef09d4e21e1a8894ec,673767fd5aa7933bae200eb4,2024-11-15_09h42.16.017,Tarea de género gramatical,2024.2.2,Win32,59.88023952,,,,,,,,,,,,,,,,,,,,,,,686.6882,687.8761,a,1,0.5104,,[],[],[],[],[],[],[],0.5104,1,687.8762,688.3758,,,,,,1270,MAS,DIS,150,seguro,la,l,688.3759,688.376,-0.026851852,-0.188888889,0,0,0,,0,170,170,369,1,,,,
,,,,,,d428d8595da7f5bc79b5cfc4,66a626ef09d4e21e1a8894ec,673767fd5aa7933bae200eb4,2024-11-15_09h42.16.017,Tarea de género gramatical,2024.2.2,Win32,59.88023952,,,,,,,,,,,,,,,,,,,,,,,688.3779,689.5253,a,1,0.4838,,[],[],[],[],[],[],[],0.4838,1,689.5255,690.0196,,,,,,1318,MAS,DIS,150,pájaro,la,l,690.0196,690.0198,-0.026851852,-0.188888889,0,0,0,,0,171,171,417,1,,,,
,,,,,,d428d8595da7f5bc79b5cfc4,66a626ef09d4e21e1a8894ec,673767fd5aa7933bae200eb4,2024-11-15_09h42.16.017,Tarea de género gramatical,2024.2.2,Win32,59.88023952,,,,,,,,,,,,,,,,,,,,,,,690.0216,691.1239,a,1,0.418,,[],[],[],[],[],[],[],0.418,1,691.124,691.6228,,,,,,1222,MAS,DIS,150,minuto,la,l,691.6229,691.6232,-0.026851852,-0.188888889,0,0,0,,0,172,172,321,1,,,,
,,,,,,d428d8595da7f5bc79b5cfc4,66a626ef09d4e21e1a8894ec,673767fd5aa7933bae200eb4,2024-11-15_09h42.16.017,Tarea de género gramatical,2024.2.2,Win32,59.88023952,,,,,,,,,,,,,,,,,,,,,,,691.625,692.7054,a,1,0.401,,[],[],[],[],[],[],[],0.401,1,692.7055,693.1966,,,,,,1217,MAS,AGR,150,número,el,l,693.1993,693.2001,-0.026851852,-0.188888889,0,0,0,,0,173,173,316,1,,,,
,,,,,,d428d8595da7f5bc79b5cfc4,66a626ef09d4e21e1a8894ec,673767fd5aa7933bae200eb4,2024-11-15_09h42.16.017,Tarea de género gramatical,2024.2.2,Win32,59.88023952,,,,,,,,,,,,,,,,,,,,,,,693.2008,694.4879,a,1,0.6183,,[],[],[],[],[],[],[],0.6183,1,694.488,694.9847,,,,,,1138,MAS,DIS,150,norte,la,l,694.9848,694.9849,-0.026851852,-0.188888889,0,0,0,,0,174,174,237,1,,,,
,,,,,,d428d8595da7f5bc79b5cfc4,66a626ef09d4e21e1a8894ec,673767fd5aa7933bae200eb4,2024-11-15_09h42.16.017,Tarea de género gramatical,2024.2.2,Win32,59.88023952,,,,,,,,,,,,,,,,,,,,,,,694.9868,696.0025,a,1,0.3428,,[],[],[],[],[],[],[],0.3428,1,696.0026,696.502,,,,,,978,MAS,CON,150,oído,,l,696.5021,696.5023,-0.026851852,-0.188888889,0,0,0,,0,175,175,77,1,,,,
,,,,,,d428d8595da7f5bc79b5cfc4,66a626ef09d4e21e1a8894ec,673767fd5aa7933bae200eb4,2024-11-15_09h42.16.017,Tarea de género gramatical,2024.2.2,Win32,59.88023952,,,,,,,,,,,,,,,,,,,,,,,696.5041,697.6757,a,1,0.4993,,[],[],[],[],[],[],[],0.4993,1,697.6761,698.1672,,,,,,1151,MAS,AGR,150,dueño,el,l,698.1673,698.1674,-0.026851852,-0.188888889,0,0,0,,0,176,176,250,1,,,,
,,,,,,d428d8595da7f5bc79b5cfc4,66a626ef09d4e21e1a8894ec,673767fd5aa7933bae200eb4,2024-11-15_09h42.16.017,Tarea de género gramatical,2024.2.2,Win32,59.88023952,,,,,,,,,,,,,,,,,,,,,,,698.1683,699.282,a,1,0.4325,,[],[],[],[],[],[],[],0.4325,1,699.2821,699.7745,,,,,,1108,MAS,DIS,150,suelo,la,l,699.7774,699.7779,-0.026851852,-0.188888889,0,0,0,,0,177,177,207,1,,,,
,,,,,,d428d8595da7f5bc79b5cfc4,66a626ef09d4e21e1a8894ec,673767fd5aa7933bae200eb4,2024-11-15_09h42.16.017,Tarea de género gramatical,2024.2.2,Win32,59.88023952,,,,,,,,,,,,,,,,,,,,,,,699.7784,701.0003,l,1,0.5506,,[],[],[],[],[],[],[],0.5506,1,701.0005,701.4967,,,,,,987,FEM,CON,150,risa,,a,701.4967,701.4968,-0.026851852,-0.188888889,0,0,0,,0,178,178,86,1,,,,
,,,,,,d428d8595da7f5bc79b5cfc4,66a626ef09d4e21e1a8894ec,673767fd5aa7933bae200eb4,2024-11-15_09h42.16.017,Tarea de género gramatical,2024.2.2,Win32,59.88023952,,,,,,,,,,,,,,,,,,,,,,,701.4977,702.6382,l,1,0.4739,,[],[],[],[],[],[],[],0.4739,1,702.6384,703.1295,,,,,,920,FEM,AGR,150,ropa,la,a,703.1295,703.1296,-0.026851852,-0.188888889,0,0,0,,0,179,179,19,1,,,,
,,,,,,d428d8595da7f5bc79b5cfc4,66a626ef09d4e21e1a8894ec,673767fd5aa7933bae200eb4,2024-11-15_09h42.16.017,Tarea de género gramatical,2024.2.2,Win32,59.88023952,,,,,,,,,,,,,,,,,,,,,,,703.1308,704.1898,l,1,0.3937,,[],[],[],[],[],[],[],0.3937,1,704.1902,704.6785,,,,,,903,FEM,CON,150,cosa,,a,704.6785,704.6785,-0.026851852,-0.188888889,0,0,0,,0,180,180,2,1,,,,
,,,,,,d428d8595da7f5bc79b5cfc4,66a626ef09d4e21e1a8894ec,673767fd5aa7933bae200eb4,2024-11-15_09h42.16.017,Tarea de género gramatical,2024.2.2,Win32,59.88023952,,,,,,,,,,,,,,,,,,,,,,,704.6798,705.7613,l,1,0.401,,[],[],[],[],[],[],[],0.401,1,705.7614,706.2591,,,,,,1269,FEM,CON,150,camisa,,a,706.2591,706.2592,-0.026851852,-0.188888889,0,0,0,,0,181,181,368,1,,,,
,,,,,,d428d8595da7f5bc79b5cfc4,66a626ef09d4e21e1a8894ec,673767fd5aa7933bae200eb4,2024-11-15_09h42.16.017,Tarea de género gramatical,2024.2.2,Win32,59.88023952,,,,,,,,,,,,,,,,,,,,,,,706.2608,707.4043,a,1,0.4596,,[],[],[],[],[],[],[],0.4596,1,707.4048,707.8933,,,,,,1301,MAS,AGR,150,abrigo,el,l,707.8952,707.8962,-0.026851852,-0.188888889,0,0,0,,0,182,182,400,1,,,,
,,,,,,d428d8595da7f5bc79b5cfc4,66a626ef09d4e21e1a8894ec,673767fd5aa7933bae200eb4,2024-11-15_09h42.16.017,Tarea de género gramatical,2024.2.2,Win32,59.88023952,,,,,,,,,,,,,,,,,,,,,,,707.8972,709.0094,l,1,0.4347,,[],[],[],[],[],[],[],0.4347,1,709.0095,709.5066,,,,,,1136,FEM,AGR,150,deuda,la,a,709.5066,709.5067,-0.026851852,-0.188888889,0,0,0,,0,183,183,235,1,,,,
,,,,,,d428d8595da7f5bc79b5cfc4,66a626ef09d4e21e1a8894ec,673767fd5aa7933bae200eb4,2024-11-15_09h42.16.017,Tarea de género gramatical,2024.2.2,Win32,59.88023952,,,,,,,,,,,,,,,,,,,,,,,709.5086,711.0082,a,1,0.8181,,[],[],[],[],[],[],[],0.8181,1,711.0083,711.5102,,,,,,1014,MAS,CON,150,menú,,l,711.5103,711.5104,-0.026851852,-0.188888889,0,0,0,,0,184,184,113,1,,,,
,,,,,,d428d8595da7f5bc79b5cfc4,66a626ef09d4e21e1a8894ec,673767fd5aa7933bae200eb4,2024-11-15_09h42.16.017,Tarea de género gramatical,2024.2.2,Win32,59.88023952,,,,,,,,,,,,,,,,,,,,,,,711.5116,712.5128,a,1,0.3396,,[],[],[],[],[],[],[],0.3396,1,712.5129,713.0124,,,,,,971,MAS,AGR,150,pozo,el,l,713.0124,713.0126,-0.026851852,-0.188888889,0,0,0,,0,185,185,70,1,,,,
,,,,,,d428d8595da7f5bc79b5cfc4,66a626ef09d4e21e1a8894ec,673767fd5aa7933bae200eb4,2024-11-15_09h42.16.017,Tarea de género gramatical,2024.2.2,Win32,59.88023952,,,,,,,,,,,,,,,,,,,,,,,713.0136,714.0947,a,1,0.4034,,[],[],[],[],[],[],[],0.4034,1,714.0948,714.5944,,,,,,1264,MAS,DIS,150,viento,la,l,714.5954,714.5976,-0.026851852,-0.188888889,0,0,0,,0,186,186,363,1,,,,
,,,,,,d428d8595da7f5bc79b5cfc4,66a626ef09d4e21e1a8894ec,673767fd5aa7933bae200eb4,2024-11-15_09h42.16.017,Tarea de género gramatical,2024.2.2,Win32,59.88023952,,,,,,,,,,,,,,,,,,,,,,,714.5989,715.7269,a,1,0.4515,,[],[],[],[],[],[],[],0.4515,1,715.7269,716.2264,,,,,,1206,MAS,CON,150,dinero,,l,716.2265,716.2266,-0.026851852,-0.188888889,0,0,0,,0,187,187,305,1,,,,
,,,,,,d428d8595da7f5bc79b5cfc4,66a626ef09d4e21e1a8894ec,673767fd5aa7933bae200eb4,2024-11-15_09h42.16.017,Tarea de género gramatical,2024.2.2,Win32,59.88023952,,,,,,,,,,,,,,,,,,,,,,,716.2285,717.5496,l,1,0.6482,,[],[],[],[],[],[],[],0.6482,1,717.5496,718.0496,,,,,,1040,FEM,AGR,150,mula,la,a,718.0497,718.0497,-0.026851852,-0.188888889,0,0,0,,0,188,188,139,1,,,,
,,,,,,d428d8595da7f5bc79b5cfc4,66a626ef09d4e21e1a8894ec,673767fd5aa7933bae200eb4,2024-11-15_09h42.16.017,Tarea de género gramatical,2024.2.2,Win32,59.88023952,,,,,,,,,,,,,,,,,,,,,,,718.0509,719.3505,a,1,0.6341,,[],[],[],[],[],[],[],0.6341,1,719.3506,719.8482,,,,,,1127,MAS,AGR,150,vuelo,el,l,719.8482,719.8484,-0.026851852,-0.188888889,0,0,0,,0,189,189,226,1,,,,
,,,,,,d428d8595da7f5bc79b5cfc4,66a626ef09d4e21e1a8894ec,673767fd5aa7933bae200eb4,2024-11-15_09h42.16.017,Tarea de género gramatical,2024.2.2,Win32,59.88023952,,,,,,,,,,,,,,,,,,,,,,,719.8504,720.966,a,1,0.4438,,[],[],[],[],[],[],[],0.4438,1,720.9662,721.4641,,,,,,1242,MAS,CON,150,abuelo,,l,721.4642,721.4644,-0.026851852,-0.188888889,0,0,0,,0,190,190,341,1,,,,
,,,,,,d428d8595da7f5bc79b5cfc4,66a626ef09d4e21e1a8894ec,673767fd5aa7933bae200eb4,2024-11-15_09h42.16.017,Tarea de género gramatical,2024.2.2,Win32,59.88023952,,,,,,,,,,,,,,,,,,,,,,,721.4661,722.5649,a,1,0.4176,,[],[],[],[],[],[],[],0.4176,1,722.565,723.0615,,,,,,1186,MAS,DIS,150,reino,la,l,723.0632,723.0643,-0.026851852,-0.188888889,0,0,0,,0,191,191,285,1,,,,
,,,,,,d428d8595da7f5bc79b5cfc4,66a626ef09d4e21e1a8894ec,673767fd5aa7933bae200eb4,2024-11-15_09h42.16.017,Tarea de género gramatical,2024.2.2,Win32,59.88023952,,,,,,,,,,,,,,,,,,,,,,,723.0654,724.5786,l,1,0.8417,,[],[],[],[],[],[],[],0.8417,1,724.5787,725.0779,,,,,,967,FEM,DIS,150,miel,el,a,725.078,725.0783,-0.026851852,-0.188888889,0,0,0,,0,192,192,66,1,,,,
,,,,,,d428d8595da7f5bc79b5cfc4,66a626ef09d4e21e1a8894ec,673767fd5aa7933bae200eb4,2024-11-15_09h42.16.017,Tarea de género gramatical,2024.2.2,Win32,59.88023952,,,,,,,,,,,,,,,,,,,,,,,725.0799,726.3109,l,1,0.5516,,[],[],[],[],[],[],[],0.5516,1,726.311,726.8099,,,,,,1257,FEM,CON,150,lengua,,a,726.8099,726.81,-0.026851852,-0.188888889,0,0,0,,0,193,193,356,1,,,,
,,,,,,d428d8595da7f5bc79b5cfc4,66a626ef09d4e21e1a8894ec,673767fd5aa7933bae200eb4,2024-11-15_09h42.16.017,Tarea de género gramatical,2024.2.2,Win32,59.88023952,,,,,,,,,,,,,,,,,,,,,,,726.8121,727.9096,a,1,0.4175,,[],[],[],[],[],[],[],0.4175,1,727.9096,728.4094,,,,,,1152,MAS,CON,150,viejo,,l,728.4095,728.4096,-0.026851852,-0.188888889,0,0,0,,0,194,194,251,1,,,,
,,,,,,d428d8595da7f5bc79b5cfc4,66a626ef09d4e21e1a8894ec,673767fd5aa7933bae200eb4,2024-11-15_09h42.16.017,Tarea de género gramatical,2024.2.2,Win32,59.88023952,,,,,,,,,,,,,,,,,,,,,,,728.4111,729.6758,l,1,0.5851,,[],[],[],[],[],[],[],0.5851,1,729.6758,730.1749,,,,,,950,FEM,AGR,150,dama,la,a,730.1771,730.1783,-0.026851852,-0.188888889,0,0,0,,0,195,195,49,1,,,,
,,,,,,d428d8595da7f5bc79b5cfc4,66a626ef09d4e21e1a8894ec,673767fd5aa7933bae200eb4,2024-11-15_09h42.16.017,Tarea de género gramatical,2024.2.2,Win32,59.88023952,,,,,,,,,,,,,,,,,,,,,,,730.1794,731.224,a,1,0.3676,,[],[],[],[],[],[],[],0.3676,1,731.2241,731.7229,,,,,,996,MAS,CON,150,pato,,l,731.723,731.7233,-0.026851852,-0.188888889,0,0,0,,0,196,196,95,1,,,,
,,,,,,d428d8595da7f5bc79b5cfc4,66a626ef09d4e21e1a8894ec,673767fd5aa7933bae200eb4,2024-11-15_09h42.16.017,Tarea de género gramatical,2024.2.2,Win32,59.88023952,,,,,,,,,,,,,,,,,,,,,,,731.725,733.1384,l,1,0.7351,,[],[],[],[],[],[],[],0.7351,1,733.1386,733.6366,,,,,,1052,FEM,AGR,150,gente,la,a,733.6366,733.6367,-0.026851852,-0.188888889,0,0,0,,0,197,197,151,1,,,,
,,,,,,d428d8595da7f5bc79b5cfc4,66a626ef09d4e21e1a8894ec,673767fd5aa7933bae200eb4,2024-11-15_09h42.16.017,Tarea de género gramatical,2024.2.2,Win32,59.88023952,,,,,,,,,,,,,,,,,,,,,,,733.6389,734.9364,a,1,0.6167,,[],[],[],[],[],[],[],0.6167,1,734.9365,735.4286,,,,,,940,MAS,DIS,150,dios,la,l,735.4287,735.429,-0.026851852,-0.188888889,0,0,0,,0,198,198,39,1,,,,
,,,,,,d428d8595da7f5bc79b5cfc4,66a626ef09d4e21e1a8894ec,673767fd5aa7933bae200eb4,2024-11-15_09h42.16.017,Tarea de género gramatical,2024.2.2,Win32,59.88023952,,,,,,,,,,,,,,,,,,,,,,,735.4317,736.7275,l,1,0.6207,,[],[],[],[],[],[],[],0.6207,1,736.7278,737.2181,,,,,,1239,FEM,CON,150,salida,,a,737.2182,737.2184,-0.026851852,-0.188888889,0,0,0,,0,199,199,338,1,,,,
,,,,,,d428d8595da7f5bc79b5cfc4,66a626ef09d4e21e1a8894ec,673767fd5aa7933bae200eb4,2024-11-15_09h42.16.017,Tarea de género gramatical,2024.2.2,Win32,59.88023952,,,,,,,,,,,,,,,,,,,,,,,737.2203,738.684,a,1,0.7833,,[],[],[],[],[],[],[],0.7833,1,738.684,739.183,,,,,,1019,MAS,AGR,150,mito,el,l,739.1853,739.1869,-0.026851852,-0.188888889,0,0,0,,0,200,200,118,1,,,,
,,,,,,d428d8595da7f5bc79b5cfc4,66a626ef09d4e21e1a8894ec,673767fd5aa7933bae200eb4,2024-11-15_09h42.16.017,Tarea de género gramatical,2024.2.2,Win32,59.88023952,,,,,,,,,,,,,,,,,,,,,,,739.1881,740.382,a,1,0.5168,,[],[],[],[],[],[],[],0.5168,1,740.3822,740.8834,,,,,,1313,MAS,AGR,150,diario,el,l,740.8835,740.8836,-0.026851852,-0.188888889,0,0,0,,0,201,201,412,1,,,,
,,,,,,d428d8595da7f5bc79b5cfc4,66a626ef09d4e21e1a8894ec,673767fd5aa7933bae200eb4,2024-11-15_09h42.16.017,Tarea de género gramatical,2024.2.2,Win32,59.88023952,,,,,,,,,,,,,,,,,,,,,,,740.8846,742.3398,l,1,0.7758,,[],[],[],[],[],[],[],0.7758,1,742.3401,742.8325,,,,,,1179,FEM,CON,150,selva,,a,742.8327,742.8329,-0.026851852,-0.188888889,0,0,0,,0,202,202,278,1,,,,
,,,,,,d428d8595da7f5bc79b5cfc4,66a626ef09d4e21e1a8894ec,673767fd5aa7933bae200eb4,2024-11-15_09h42.16.017,Tarea de género gramatical,2024.2.2,Win32,59.88023952,,,,,,,,,,,,,,,,,,,,,,,742.8346,744.2451,l,1,0.7326,,[],[],[],[],[],[],[],0.7326,1,744.2453,744.7457,,,,,,1149,FEM,CON,150,crema,,a,744.7457,744.7459,-0.026851852,-0.188888889,0,0,0,,0,203,203,248,1,,,,
,,,,,,d428d8595da7f5bc79b5cfc4,66a626ef09d4e21e1a8894ec,673767fd5aa7933bae200eb4,2024-11-15_09h42.16.017,Tarea de género gramatical,2024.2.2,Win32,59.88023952,,,,,,,,,,,,,,,,,,,,,,,744.7479,746.4058,a,1,0.9762,,[],[],[],[],[],[],[],0.9762,1,746.4058,746.9024,,,,,,983,MAS,AGR,150,nene,el,l,746.9053,746.9064,-0.026851852,-0.188888889,0,0,0,,0,204,204,82,1,,,,
,,,,,,d428d8595da7f5bc79b5cfc4,66a626ef09d4e21e1a8894ec,673767fd5aa7933bae200eb4,2024-11-15_09h42.16.017,Tarea de género gramatical,2024.2.2,Win32,59.88023952,,,,,,,,,,,,,,,,,,,,,,,746.9075,748.4598,a,1,0.8842,,[],[],[],[],[],[],[],0.8842,1,748.4599,748.9545,,,,,,1319,MAS,AGR,150,cuento,el,l,748.9546,748.9547,-0.026851852,-0.188888889,0,0,0,,0,205,205,418,1,,,,
,,,,,,d428d8595da7f5bc79b5cfc4,66a626ef09d4e21e1a8894ec,673767fd5aa7933bae200eb4,2024-11-15_09h42.16.017,Tarea de género gramatical,2024.2.2,Win32,59.88023952,,,,,,,,,,,,,,,,,,,,,,,748.9566,750.2756,l,1,0.6506,,[],[],[],[],[],[],[],0.6506,1,750.2758,750.7745,,,,,,1268,FEM,AGR,150,gracia,la,a,750.7746,750.7748,-0.026851852,-0.188888889,0,0,0,,0,206,206,367,1,,,,
,,,,,,d428d8595da7f5bc79b5cfc4,66a626ef09d4e21e1a8894ec,673767fd5aa7933bae200eb4,2024-11-15_09h42.16.017,Tarea de género gramatical,2024.2.2,Win32,59.88023952,,,,,,,,,,,,,,,,,,,,,,,750.7764,752.3895,a,1,0.9333,,[],[],[],[],[],[],[],0.9333,1,752.3895,752.8821,,,,,,960,MAS,CON,150,tono,,l,752.8823,752.8827,-0.026851852,-0.188888889,0,0,0,,0,207,207,59,1,,,,
,,,,,,d428d8595da7f5bc79b5cfc4,66a626ef09d4e21e1a8894ec,673767fd5aa7933bae200eb4,2024-11-15_09h42.16.017,Tarea de género gramatical,2024.2.2,Win32,59.88023952,,,,,,,,,,,,,,,,,,,,,,,752.8857,754.6044,a,1,1.0427,,[],[],[],[],[],[],[],1.0427,1,754.6047,755.0989,,,,,,1235,MAS,AGR,150,montón,el,l,755.0989,755.099,-0.026851852,-0.188888889,0,0,0,,0,208,208,334,1,,,,
,,,,,,d428d8595da7f5bc79b5cfc4,66a626ef09d4e21e1a8894ec,673767fd5aa7933bae200eb4,2024-11-15_09h42.16.017,Tarea de género gramatical,2024.2.2,Win32,59.88023952,,,,,,,,,,,,,,,,,,,,,,,755.1001,756.2699,l,1,0.5007,,[],[],[],[],[],[],[],0.5007,1,756.2701,756.7687,,,,,,957,FEM,CON,150,moda,,a,756.771,756.772,-0.026851852,-0.188888889,0,0,0,,0,209,209,56,1,,,,
,,,,,,d428d8595da7f5bc79b5cfc4,66a626ef09d4e21e1a8894ec,673767fd5aa7933bae200eb4,2024-11-15_09h42.16.017,Tarea de género gramatical,2024.2.2,Win32,59.88023952,,,,,,,,,,,,,,,,,,,,,,,756.7734,758.451,a,1,0.9989,,[],[],[],[],[],[],[],0.9989,1,758.4511,758.9491,,,,,,1277,MAS,AGR,150,jardín,el,l,758.9492,758.9492,-0.026851852,-0.188888889,0,0,0,,0,210,210,376,1,,,,
,,,,,,d428d8595da7f5bc79b5cfc4,66a626ef09d4e21e1a8894ec,673767fd5aa7933bae200eb4,2024-11-15_09h42.16.017,Tarea de género gramatical,2024.2.2,Win32,59.88023952,,,,,,,,,,,,,,,,,,,,,,,758.9503,760.1163,l,1,0.5085,,[],[],[],[],[],[],[],0.5085,1,760.1163,760.6164,,,,,,1249,FEM,DIS,150,prensa,el,a,760.6165,760.6166,-0.026851852,-0.188888889,0,0,0,,0,211,211,348,1,,,,
,,,,,,d428d8595da7f5bc79b5cfc4,66a626ef09d4e21e1a8894ec,673767fd5aa7933bae200eb4,2024-11-15_09h42.16.017,Tarea de género gramatical,2024.2.2,Win32,59.88023952,,,,,,,,,,,,,,,,,,,,,,,760.6183,761.8988,a,1,0.5998,,[],[],[],[],[],[],[],0.5998,1,761.899,762.3973,,,,,,1109,MAS,AGR,150,banco,el,l,762.3974,762.3975,-0.026851852,-0.188888889,0,0,0,,0,212,212,208,1,,,,
,,,,,,d428d8595da7f5bc79b5cfc4,66a626ef09d4e21e1a8894ec,673767fd5aa7933bae200eb4,2024-11-15_09h42.16.017,Tarea de género gramatical,2024.2.2,Win32,59.88023952,,,,,,,,,,,,,,,,,,,,,,,762.3993,763.5143,l,1,0.4342,,[],[],[],[],[],[],[],0.4342,1,763.5144,764.0043,,,,,,1255,FEM,DIS,150,mirada,el,a,764.008,764.009,-0.026851852,-0.188888889,0,0,0,,0,213,213,354,1,,,,
,,,,,,d428d8595da7f5bc79b5cfc4,66a626ef09d4e21e1a8894ec,673767fd5aa7933bae200eb4,2024-11-15_09h42.16.017,Tarea de género gramatical,2024.2.2,Win32,59.88023952,,,,,,,,,,,,,,,,,,,,,,,764.0102,765.5452,a,1,0.8668,,[],[],[],[],[],[],[],0.8668,1,765.5453,766.0433,,,,,,964,MAS,DIS,150,saco,la,l,766.0435,766.044,-0.026851852,-0.188888889,0,0,0,,0,214,214,63,1,,,,
,,,,,,d428d8595da7f5bc79b5cfc4,66a626ef09d4e21e1a8894ec,673767fd5aa7933bae200eb4,2024-11-15_09h42.16.017,Tarea de género gramatical,2024.2.2,Win32,59.88023952,,,,,,,,,,,,,,,,,,,,,,,766.0463,767.3608,l,1,0.6343,,[],[],[],[],[],[],[],0.6343,1,767.3609,767.86,,,,,,955,FEM,DIS,150,taza,el,a,767.8601,767.8604,-0.026851852,-0.188888889,0,0,0,,0,215,215,54,1,,,,
,,,,,,d428d8595da7f5bc79b5cfc4,66a626ef09d4e21e1a8894ec,673767fd5aa7933bae200eb4,2024-11-15_09h42.16.017,Tarea de género gramatical,2024.2.2,Win32,59.88023952,,,,,,,,,,,,,,,,,,,,,,,767.862,769.5089,l,1,0.9672,,[],[],[],[],[],[],[],0.9672,1,769.5091,770.0088,,,,,,1023,FEM,CON,150,tela,,a,770.0089,770.0093,-0.026851852,-0.188888889,0,0,0,,0,216,216,122,1,,,,
,,,,,,d428d8595da7f5bc79b5cfc4,66a626ef09d4e21e1a8894ec,673767fd5aa7933bae200eb4,2024-11-15_09h42.16.017,Tarea de género gramatical,2024.2.2,Win32,59.88023952,,,,,,,,,,,,,,,,,,,,,,,770.0116,771.9403,l,1,1.2502,,[],[],[],[],[],[],[],1.2502,1,771.9404,772.4316,,,,,,1076,FEM,AGR,150,línea,la,a,772.4318,772.4321,-0.026851852,-0.188888889,0,0,0,,0,217,217,175,1,,,,
,,,,,,d428d8595da7f5bc79b5cfc4,66a626ef09d4e21e1a8894ec,673767fd5aa7933bae200eb4,2024-11-15_09h42.16.017,Tarea de género gramatical,2024.2.2,Win32,59.88023952,,,,,,,,,,,,,,,,,,,,,,,772.4353,773.5394,a,1,0.4163,,[],[],[],[],[],[],[],0.4163,1,773.5394,774.0379,,,,,,923,MAS,AGR,150,rato,el,l,774.0394,774.0401,-0.026851852,-0.188888889,0,0,0,,0,218,218,22,1,,,,
,,,,,,d428d8595da7f5bc79b5cfc4,66a626ef09d4e21e1a8894ec,673767fd5aa7933bae200eb4,2024-11-15_09h42.16.017,Tarea de género gramatical,2024.2.2,Win32,59.88023952,,,,,,,,,,,,,,,,,,,,,,,774.0409,775.3553,a,1,0.6347,,[],[],[],[],[],[],[],0.6347,1,775.3554,775.8534,,,,,,990,MAS,CON,150,león,,l,775.8534,775.8536,-0.026851852,-0.188888889,0,0,0,,0,219,219,89,1,,,,
,,,,,,d428d8595da7f5bc79b5cfc4,66a626ef09d4e21e1a8894ec,673767fd5aa7933bae200eb4,2024-11-15_09h42.16.017,Tarea de género gramatical,2024.2.2,Win32,59.88023952,,,,,,,,,,,,,,,,,,,,,,,775.8546,777.1024,l,1,0.5669,,[],[],[],[],[],[],[],0.5669,1,777.1025,777.5968,,,,,,1311,FEM,CON,150,actriz,,a,777.5971,777.5973,-0.026851852,-0.188888889,0,0,0,,0,220,220,410,1,,,,
,,,,,,d428d8595da7f5bc79b5cfc4,66a626ef09d4e21e1a8894ec,673767fd5aa7933bae200eb4,2024-11-15_09h42.16.017,Tarea de género gramatical,2024.2.2,Win32,59.88023952,,,,,,,,,,,,,,,,,,,,,,,777.6004,778.7181,a,1,0.451,,[],[],[],[],[],[],[],0.451,1,778.7182,779.2169,,,,,,922,MAS,DIS,150,pelo,la,l,779.217,779.2175,-0.026851852,-0.188888889,0,0,0,,0,221,221,21,1,,,,
,,,,,,d428d8595da7f5bc79b5cfc4,66a626ef09d4e21e1a8894ec,673767fd5aa7933bae200eb4,2024-11-15_09h42.16.017,Tarea de género gramatical,2024.2.2,Win32,59.88023952,,,,,,,,,,,,,,,,,,,,,,,779.2193,780.6175,a,1,0.7197,,[],[],[],[],[],[],[],0.7197,1,780.6176,781.1167,,,,,,959,MAS,AGR,150,lobo,el,l,781.1193,781.1202,-0.026851852,-0.188888889,0,0,0,,0,222,222,58,1,,,,
,,,,,,d428d8595da7f5bc79b5cfc4,66a626ef09d4e21e1a8894ec,673767fd5aa7933bae200eb4,2024-11-15_09h42.16.017,Tarea de género gramatical,2024.2.2,Win32,59.88023952,,,,,,,,,,,,,,,,,,,,,,,781.1214,782.6823,a,1,0.886,,[],[],[],[],[],[],[],0.886,1,782.6825,783.1802,,,,,,1140,MAS,CON,150,ruido,,l,783.1803,783.1803,-0.026851852,-0.188888889,0,0,0,,0,223,223,239,1,,,,
,,,,,,d428d8595da7f5bc79b5cfc4,66a626ef09d4e21e1a8894ec,673767fd5aa7933bae200eb4,2024-11-15_09h42.16.017,Tarea de género gramatical,2024.2.2,Win32,59.88023952,,,,,,,,,,,,,,,,,,,,,,,783.1814,785.0963,a,1,1.2336,,[],[],[],[],[],[],[],1.2336,1,785.0963,785.5965,,,,,,916,MAS,DIS,150,baño,la,l,785.5965,785.5968,-0.026851852,-0.188888889,0,0,0,,0,224,224,15,1,,,,
,,,,,,d428d8595da7f5bc79b5cfc4,66a626ef09d4e21e1a8894ec,673767fd5aa7933bae200eb4,2024-11-15_09h42.16.017,Tarea de género gramatical,2024.2.2,Win32,59.88023952,,,,,,,,,,,,,,,,,,,,,,,785.599,786.7959,l,1,0.5204,,[],[],[],[],[],[],[],0.5204,1,786.7961,787.2902,,,,,,1209,FEM,CON,150,esposa,,a,787.2903,787.2905,-0.026851852,-0.188888889,0,0,0,,0,225,225,308,1,,,,
,,,,,,d428d8595da7f5bc79b5cfc4,66a626ef09d4e21e1a8894ec,673767fd5aa7933bae200eb4,2024-11-15_09h42.16.017,Tarea de género gramatical,2024.2.2,Win32,59.88023952,,,,,,,,,,,,,,,,,,,,,,,787.2926,788.5441,l,1,0.5846,,[],[],[],[],[],[],[],0.5846,1,788.5442,789.0407,,,,,,1093,FEM,DIS,150,bolsa,el,a,789.0407,789.0411,-0.026851852,-0.188888889,0,0,0,,0,226,226,192,1,,,,
,,,,,,d428d8595da7f5bc79b5cfc4,66a626ef09d4e21e1a8894ec,673767fd5aa7933bae200eb4,2024-11-15_09h42.16.017,Tarea de género gramatical,2024.2.2,Win32,59.88023952,,,,,,,,,,,,,,,,,,,,,,,789.0426,790.4085,l,1,0.6836,,[],[],[],[],[],[],[],0.6836,1,790.4086,790.8991,,,,,,1064,FEM,AGR,150,novia,la,a,790.9019,790.9024,-0.026851852,-0.188888889,0,0,0,,0,227,227,163,1,,,,
,,,,,,d428d8595da7f5bc79b5cfc4,66a626ef09d4e21e1a8894ec,673767fd5aa7933bae200eb4,2024-11-15_09h42.16.017,Tarea de género gramatical,2024.2.2,Win32,59.88023952,,,,,,,,,,,,,,,,,,,,,,,790.9032,792.4563,a,1,0.8828,,[],[],[],[],[],[],[],0.8828,1,792.4565,792.9555,,,,,,1145,MAS,AGR,150,turno,el,l,792.9556,792.9557,-0.026851852,-0.188888889,0,0,0,,0,228,228,244,1,,,,
,,,,,,d428d8595da7f5bc79b5cfc4,66a626ef09d4e21e1a8894ec,673767fd5aa7933bae200eb4,2024-11-15_09h42.16.017,Tarea de género gramatical,2024.2.2,Win32,59.88023952,,,,,,,,,,,,,,,,,,,,,,,792.9577,794.1388,l,1,0.501,,[],[],[],[],[],[],[],0.501,1,794.1389,794.6377,,,,,,1131,FEM,CON,150,bruja,,a,794.6377,794.638,-0.026851852,-0.188888889,0,0,0,,0,229,229,230,1,,,,
,,,,,,d428d8595da7f5bc79b5cfc4,66a626ef09d4e21e1a8894ec,673767fd5aa7933bae200eb4,2024-11-15_09h42.16.017,Tarea de género gramatical,2024.2.2,Win32,59.88023952,,,,,,,,,,,,,,,,,,,,,,,794.6398,796.0371,l,1,0.7272,,[],[],[],[],[],[],[],0.7272,1,796.0373,796.536,,,,,,979,FEM,DIS,150,mina,el,a,796.536,796.5362,-0.026851852,-0.188888889,0,0,0,,0,230,230,78,1,,,,
,,,,,,d428d8595da7f5bc79b5cfc4,66a626ef09d4e21e1a8894ec,673767fd5aa7933bae200eb4,2024-11-15_09h42.16.017,Tarea de género gramatical,2024.2.2,Win32,59.88023952,,,,,,,,,,,,,,,,,,,,,,,796.5368,797.9864,a,1,0.7777,,[],[],[],[],[],[],[],0.7777,1,797.9864,798.4829,,,,,,1198,MAS,DIS,150,botón,la,l,798.484,798.4847,-0.026851852,-0.188888889,0,0,0,,0,231,231,297,1,,,,
,,,,,,d428d8595da7f5bc79b5cfc4,66a626ef09d4e21e1a8894ec,673767fd5aa7933bae200eb4,2024-11-15_09h42.16.017,Tarea de género gramatical,2024.2.2,Win32,59.88023952,,,,,,,,,,,,,,,,,,,,,,,798.4853,800.3358,a,1,1.1793,,[],[],[],[],[],[],[],1.1793,1,800.3359,800.8238,,,,,,1294,MAS,DIS,150,examen,la,l,800.824,800.8244,-0.026851852,-0.188888889,0,0,0,,0,232,232,393,1,,,,
,,,,,,d428d8595da7f5bc79b5cfc4,66a626ef09d4e21e1a8894ec,673767fd5aa7933bae200eb4,2024-11-15_09h42.16.017,Tarea de género gramatical,2024.2.2,Win32,59.88023952,,,,,,,,,,,,,,,,,,,,,,,800.8271,802.4643,a,1,0.966,,[],[],[],[],[],[],[],0.966,1,802.4644,802.9619,,,,,,966,MAS,CON,150,muro,,l,802.9619,802.962,-0.026851852,-0.188888889,0,0,0,,0,233,233,65,1,,,,
,,,,,,d428d8595da7f5bc79b5cfc4,66a626ef09d4e21e1a8894ec,673767fd5aa7933bae200eb4,2024-11-15_09h42.16.017,Tarea de género gramatical,2024.2.2,Win32,59.88023952,,,,,,,,,,,,,,,,,,,,,,,802.9629,804.3965,a,1,0.7673,,[],[],[],[],[],[],[],0.7673,1,804.3966,804.8945,,,,,,1008,MAS,CON,150,hilo,,l,804.8946,804.8947,-0.026851852,-0.188888889,0,0,0,,0,234,234,107,1,,,,
,,,,,,d428d8595da7f5bc79b5cfc4,66a626ef09d4e21e1a8894ec,673767fd5aa7933bae200eb4,2024-11-15_09h42.16.017,Tarea de género gramatical,2024.2.2,Win32,59.88023952,,,,,,,,,,,,,,,,,,,,,,,804.8962,806.1781,a,1,0.6002,,[],[],[],[],[],[],[],0.6002,1,806.1782,806.678,,,,,,1240,MAS,DIS,150,pasado,la,l,806.6782,806.6785,-0.026851852,-0.188888889,0,0,0,,0,235,235,339,1,,,,
,,,,,,d428d8595da7f5bc79b5cfc4,66a626ef09d4e21e1a8894ec,673767fd5aa7933bae200eb4,2024-11-15_09h42.16.017,Tarea de género gramatical,2024.2.2,Win32,59.88023952,,,,,,,,,,,,,,,,,,,,,,,806.6803,807.7616,a,1,0.4177,,[],[],[],[],[],[],[],0.4177,1,807.7618,808.2532,,,,,,1342,MAS,DIS,150,cuadro,la,l,808.2561,808.257,-0.026851852,-0.188888889,0,0,0,,0,236,236,441,1,,,,
,,,,,,d428d8595da7f5bc79b5cfc4,66a626ef09d4e21e1a8894ec,673767fd5aa7933bae200eb4,2024-11-15_09h42.16.017,Tarea de género gramatical,2024.2.2,Win32,59.88023952,,,,,,,,,,,,,,,,,,,,,,,808.2578,809.5096,l,1,0.5673,,[],[],[],[],[],[],[],0.5673,1,809.5096,810.0084,,,,,,1113,FEM,CON,150,magia,,a,810.0085,810.0087,-0.026851852,-0.188888889,0,0,0,,0,237,237,212,1,,,,
,,,,,,d428d8595da7f5bc79b5cfc4,66a626ef09d4e21e1a8894ec,673767fd5aa7933bae200eb4,2024-11-15_09h42.16.017,Tarea de género gramatical,2024.2.2,Win32,59.88023952,,,,,,,,,,,,,,,,,,,,,,,810.0107,811.2578,l,1,0.5767,,[],[],[],[],[],[],[],0.5767,1,811.2579,811.7574,,,,,,1148,FEM,AGR,150,letra,la,a,811.7575,811.7577,-0.026851852,-0.188888889,0,0,0,,0,238,238,247,1,,,,
,,,,,,d428d8595da7f5bc79b5cfc4,66a626ef09d4e21e1a8894ec,673767fd5aa7933bae200eb4,2024-11-15_09h42.16.017,Tarea de género gramatical,2024.2.2,Win32,59.88023952,,,,,,,,,,,,,,,,,,,,,,,811.7596,812.8565,l,1,0.4174,,[],[],[],[],[],[],[],0.4174,1,812.8565,813.3563,,,,,,1029,FEM,CON,150,rana,,a,813.3564,813.3566,-0.026851852,-0.188888889,0,0,0,,0,239,239,128,1,,,,
,,,,,,d428d8595da7f5bc79b5cfc4,66a626ef09d4e21e1a8894ec,673767fd5aa7933bae200eb4,2024-11-15_09h42.16.017,Tarea de género gramatical,2024.2.2,Win32,59.88023952,,,,,,,,,,,,,,,,,,,,,,,813.3581,814.6059,l,1,0.5769,,[],[],[],[],[],[],[],0.5769,1,814.6061,815.1048,,,,,,1088,FEM,AGR,150,bomba,la,a,815.107,815.1083,-0.026851852,-0.188888889,0,0,0,,0,240,240,187,1,,,,
,,,,,,d428d8595da7f5bc79b5cfc4,66a626ef09d4e21e1a8894ec,673767fd5aa7933bae200eb4,2024-11-15_09h42.16.017,Tarea de género gramatical,2024.2.2,Win32,59.88023952,,,,,,,,,,,,,,,,,,,,,,,815.1093,816.3541,a,1,0.5676,,[],[],[],[],[],[],[],0.5676,1,816.3542,816.8526,,,,,,1272,MAS,CON,150,delito,,l,816.8526,816.8528,-0.026851852,-0.188888889,0,0,0,,0,241,241,371,1,,,,
,,,,,,d428d8595da7f5bc79b5cfc4,66a626ef09d4e21e1a8894ec,673767fd5aa7933bae200eb4,2024-11-15_09h42.16.017,Tarea de género gramatical,2024.2.2,Win32,59.88023952,,,,,,,,,,,,,,,,,,,,,,,816.8545,818.0685,a,1,0.5335,,[],[],[],[],[],[],[],0.5335,1,818.0686,818.5676,,,,,,984,MAS,CON,150,mago,,l,818.5677,818.5678,-0.026851852,-0.188888889,0,0,0,,0,242,242,83,1,,,,
,,,,,,d428d8595da7f5bc79b5cfc4,66a626ef09d4e21e1a8894ec,673767fd5aa7933bae200eb4,2024-11-15_09h42.16.017,Tarea de género gramatical,2024.2.2,Win32,59.88023952,,,,,,,,,,,,,,,,,,,,,,,818.57,819.7498,l,1,0.5,,[],[],[],[],[],[],[],0.5,1,819.7499,820.2497,,,,,,1297,FEM,DIS,150,cuerda,el,a,820.2498,820.25,-0.026851852,-0.188888889,0,0,0,,0,243,243,396,1,,,,
,,,,,,d428d8595da7f5bc79b5cfc4,66a626ef09d4e21e1a8894ec,673767fd5aa7933bae200eb4,2024-11-15_09h42.16.017,Tarea de género gramatical,2024.2.2,Win32,59.88023952,,,,,,,,,,,,,,,,,,,,,,,820.2517,821.3665,a,1,0.4345,,[],[],[],[],[],[],[],0.4345,1,821.3667,821.8657,,,,,,1254,MAS,CON,150,camión,,l,821.8658,821.8661,-0.026851852,-0.188888889,0,0,0,,0,244,244,353,1,,,,
,,,,,,d428d8595da7f5bc79b5cfc4,66a626ef09d4e21e1a8894ec,673767fd5aa7933bae200eb4,2024-11-15_09h42.16.017,Tarea de género gramatical,2024.2.2,Win32,59.88023952,,,,,,,,,,,,,,,,,,,,,,,821.8678,823.0967,a,1,0.5493,,[],[],[],[],[],[],[],0.5493,1,823.0969,823.5969,,,,,,1074,MAS,CON,150,perro,,l,823.599,823.6004,-0.026851852,-0.188888889,0,0,0,,0,245,245,173,1,,,,
,,,,,,d428d8595da7f5bc79b5cfc4,66a626ef09d4e21e1a8894ec,673767fd5aa7933bae200eb4,2024-11-15_09h42.16.017,Tarea de género gramatical,2024.2.2,Win32,59.88023952,,,,,,,,,,,,,,,,,,,,,,,823.6016,824.7974,l,1,0.5181,,[],[],[],[],[],[],[],0.5181,1,824.7976,825.2957,,,,,,1005,FEM,CON,150,jefa,,a,825.2958,825.296,-0.026851852,-0.188888889,0,0,0,,0,246,246,104,1,,,,
,,,,,,d428d8595da7f5bc79b5cfc4,66a626ef09d4e21e1a8894ec,673767fd5aa7933bae200eb4,2024-11-15_09h42.16.017,Tarea de género gramatical,2024.2.2,Win32,59.88023952,,,,,,,,,,,,,,,,,,,,,,,825.2981,826.9123,a,1,0.9425,,[],[],[],[],[],[],[],0.9425,1,826.9126,827.4118,,,,,,1139,MAS,AGR,150,reloj,el,l,827.4119,827.412,-0.026851852,-0.188888889,0,0,0,,0,247,247,238,1,,,,
,,,,,,d428d8595da7f5bc79b5cfc4,66a626ef09d4e21e1a8894ec,673767fd5aa7933bae200eb4,2024-11-15_09h42.16.017,Tarea de género gramatical,2024.2.2,Win32,59.88023952,,,,,,,,,,,,,,,,,,,,,,,827.4134,828.8511,a,1,0.7576,,[],[],[],[],[],[],[],0.7576,1,828.8516,829.3428,,,,,,1283,MAS,AGR,150,parque,el,l,829.3429,829.3432,-0.026851852,-0.188888889,0,0,0,,0,248,248,382,1,,,,
,,,,,,d428d8595da7f5bc79b5cfc4,66a626ef09d4e21e1a8894ec,673767fd5aa7933bae200eb4,2024-11-15_09h42.16.017,Tarea de género gramatical,2024.2.2,Win32,59.88023952,,,,,,,,,,,,,,,,,,,,,,,829.3448,830.542,a,1,0.5173,,[],[],[],[],[],[],[],0.5173,1,830.5422,831.0413,,,,,,1128,MAS,CON,150,nivel,,l,831.0432,831.0442,-0.026851852,-0.188888889,0,0,0,,0,249,249,227,1,,,,
,,,,,,d428d8595da7f5bc79b5cfc4,66a626ef09d4e21e1a8894ec,673767fd5aa7933bae200eb4,2024-11-15_09h42.16.017,Tarea de género gramatical,2024.2.2,Win32,59.88023952,,,,,,,,,,,,,,,,,,,,,,,831.0455,832.2413,l,1,0.5177,,[],[],[],[],[],[],[],0.5177,1,832.2414,832.7311,,,,,,1129,FEM,DIS,150,celda,el,a,832.7314,832.7319,-0.026851852,-0.188888889,0,0,0,,0,250,250,228,1,,,,
