counterbalancing_condition,consent_prescreening.block_1/declare_consent,consent_prescreening.block_1/age_years,consent_prescreening.block_1/gender,consent_prescreening.block_1/language_disorder,consent_prescreening.block_1/first_language,PROLIFIC_PID,STUDY_ID,SESSION_ID,date,expName,psychopyVersion,OS,frameRate,check_prescreening_answers.started,check_prescreening_answers.stopped,Instructions.started,Instructions.stopped,instr_done_keyboard.keys,instr_done_touch.x,instr_done_touch.y,instr_done_touch.leftButton,instr_done_touch.midButton,instr_done_touch.rightButton,instr_done_touch.clicked_name,instruction_pages.thisRepN,instruction_pages.thisTrialN,instruction_pages.thisN,instruction_pages.thisIndex,instruction_pages.ran,pageN,phase,instruct_text,has_image,instruct_image,presentTrial.started,presentTrial.stopped,response.keys,response.corr,response.rt,response.duration,touch_resp.x,touch_resp.y,touch_resp.leftButton,touch_resp.midButton,touch_resp.rightButton,touch_resp.time,touch_resp.clicked_name,rt,corr,feedback.started,feedback.stopped,practice_trials.thisRepN,practice_trials.thisTrialN,practice_trials.thisN,practice_trials.thisIndex,practice_trials.ran,TrialID,StimulusType,Condition,PrimeDuration,Prime,Flanker,corrAns,Break.started,Break.stopped,break_done_touch.x,break_done_touch.y,break_done_touch.leftButton,break_done_touch.midButton,break_done_touch.rightButton,break_done_keyboard.keys,experiment_trials.thisRepN,experiment_trials.thisTrialN,experiment_trials.thisN,experiment_trials.thisIndex,experiment_trials.ran,break_done_touch.clicked_name,End.started,End.stopped
2,"[""over_18"",""comfortable"",""read_info"",""consent_given""]",33,M,"[""none""]","[""spanish""]",d4eb462ad63464517b37b0cc,66a626ef09d4e21e1a8894ec,67371d766c6050f8e53e81f8,2024-11-15_11h07.57.818,Tarea de género gramatical,2024.2.2,MacIntel,60.24096386,,,,,,,,,,,,,,,,,,,,,,,,,,,,,,,,,,,,,,,,,,,,,,,,,,,,,,,,,,,,,,,,,,
,,,,,,d4eb462ad63464517b37b0cc,66a626ef09d4e21e1a8894ec,67371d766c6050f8e53e81f8,2024-11-15_11h07.57.818,Tarea de género gramatical,2024.2.2,MacIntel,60.24096386,12.5646,12.5648,,,,,,,,,,,,,,,,,,,,,,,,,,,,,,,,,,,,,,,,,,,,,,,,,,,,,,,,,,,,,,,,
,,,,,,d4eb462ad63464517b37b0cc,66a626ef09d4e21e1a8894ec,67371d766c6050f8e53e81f8,2024-11-15_11h07.57.818,Tarea de género gramatical,2024.2.2,MacIntel,60.24096386,,,12.581,51.4624,,-0.041956923,-0.412150065,1,0,0,instr_done_button,0,0,0,0,1,1,instructions,"INSTRUCCIONES
Va a realizar una prueba de selección gramatical. Desde el comienzo de la prueba mire siempre al centro de la pantalla. Al cabo de un momento, aparecerán palabras. La tarea consiste en determinar si la palabra del centro (siempre será un sustantivo), pertenece al género masculino o femenino.

Pulse la tecla ESPACIO o toque el botón de abajo para continuar.",0,keyboardresponseFM.png,,,,,,,,,,,,,,,,,,,,,,,,,,,,,,,,,,,,,,,,,,,,,
,,,,,,d4eb462ad63464517b37b0cc,66a626ef09d4e21e1a8894ec,67371d766c6050f8e53e81f8,2024-11-15_11h07.57.818,Tarea de género gramatical,2024.2.2,MacIntel,60.24096386,,,51.4635,69.6947,,-0.092979601,-0.409358724,1,0,0,instr_done_button,0,1,1,1,1,2,instructions,"Si su dispositivo tiene teclado, pulse la tecla ""A"" para las palabras en femenino (por ejemplo: ""mano"") y la tecla ""L"" para las palabras en masculino(por ejemplo: ""arroz"").
Pulse la tecla ESPACIO o toque el botón de abajo para continuar.",1,keyboardresponseFM.png,,,,,,,,,,,,,,,,,,,,,,,,,,,,,,,,,,,,,,,,,,,,,
,,,,,,d4eb462ad63464517b37b0cc,66a626ef09d4e21e1a8894ec,67371d766c6050f8e53e81f8,2024-11-15_11h07.57.818,Tarea de género gramatical,2024.2.2,MacIntel,60.24096386,,,69.6965,73.9444,,-0.09258355,-0.409705946,1,0,0,instr_done_button,0,2,2,2,1,3,instructions,"Si utiliza un dispositivo sólo táctil, colóquelo en horizontal y utilice los botones de la pantalla. No utilice el ratón.
Pulse la tecla ESPACIO o toque el botón de abajo para continuar.",2,touchresponseFM.png,,,,,,,,,,,,,,,,,,,,,,,,,,,,,,,,,,,,,,,,,,,,,
,,,,,,d4eb462ad63464517b37b0cc,66a626ef09d4e21e1a8894ec,67371d766c6050f8e53e81f8,2024-11-15_11h07.57.818,Tarea de género gramatical,2024.2.2,MacIntel,60.24096386,,,73.9468,94.4279,,0.034819878,-0.406827799,1,0,0,instr_done_button,0,3,3,3,1,4,instructions,"Es muy importante que responda con la mayor rapidez y precisión posibles, ya que cada cadena de letras sólo estará en pantalla durante un instante. Si no responde en ese tiempo, aparecerá el mensaje ""Muy lento"" y el experimento pasará a la siguiente palabra. Los primeros 15 intentos serán de práctica y habrá dos descansos durante la prueba.
Pulse la tecla ESPACIO o toque el botón de abajo para iniciar la parte de práctica.",0,keyboardresponseFM.png,,,,,,,,,,,,,,,,,,,,,,,,,,,,,,,,,,,,,,,,,,,,,
,,,,,,d4eb462ad63464517b37b0cc,66a626ef09d4e21e1a8894ec,67371d766c6050f8e53e81f8,2024-11-15_11h07.57.818,Tarea de género gramatical,2024.2.2,MacIntel,60.24096386,,,,,,,,,,,,,,,,,,,,,,94.4448,96.1784,l,1,1.0715,,[],[],[],[],[],[],[],1.0715,1,96.1788,96.6791,0,0,0,9,1,2010,MAS,AGR,150,vecino,el,l,,,,,,,,,,,,,,,,
,,,,,,d4eb462ad63464517b37b0cc,66a626ef09d4e21e1a8894ec,67371d766c6050f8e53e81f8,2024-11-15_11h07.57.818,Tarea de género gramatical,2024.2.2,MacIntel,60.24096386,,,,,,,,,,,,,,,,,,,,,,96.6823,98.0786,a,1,0.7209,,[],[],[],[],[],[],[],0.7209,1,98.0789,98.5771,0,1,1,1,1,2002,FEM,CON,150,pala,,a,,,,,,,,,,,,,,,,
,,,,,,d4eb462ad63464517b37b0cc,66a626ef09d4e21e1a8894ec,67371d766c6050f8e53e81f8,2024-11-15_11h07.57.818,Tarea de género gramatical,2024.2.2,MacIntel,60.24096386,,,,,,,,,,,,,,,,,,,,,,98.5782,99.7771,a,1,0.5203,,[],[],[],[],[],[],[],0.5203,1,99.7773,100.2789,0,2,2,6,1,2007,FEM,AGR,150,navaja,la,a,,,,,,,,,,,,,,,,
,,,,,,d4eb462ad63464517b37b0cc,66a626ef09d4e21e1a8894ec,67371d766c6050f8e53e81f8,2024-11-15_11h07.57.818,Tarea de género gramatical,2024.2.2,MacIntel,60.24096386,,,,,,,,,,,,,,,,,,,,,,100.2819,101.3946,l,0,0.4416,,[],[],[],[],[],[],[],0.4416,0,101.3955,101.8946,0,3,3,5,1,2006,FEM,DIS,150,serie,el,a,,,,,,,,,,,,,,,,
,,,,,,d4eb462ad63464517b37b0cc,66a626ef09d4e21e1a8894ec,67371d766c6050f8e53e81f8,2024-11-15_11h07.57.818,Tarea de género gramatical,2024.2.2,MacIntel,60.24096386,,,,,,,,,,,,,,,,,,,,,,101.8963,103.1612,a,0,0.5842,,[],[],[],[],[],[],[],0.5842,0,103.1614,103.6615,0,4,4,10,1,2011,MAS,CON,150,canal,,l,,,,,,,,,,,,,,,,
,,,,,,d4eb462ad63464517b37b0cc,66a626ef09d4e21e1a8894ec,67371d766c6050f8e53e81f8,2024-11-15_11h07.57.818,Tarea de género gramatical,2024.2.2,MacIntel,60.24096386,,,,,,,,,,,,,,,,,,,,,,103.6641,106.3122,,0,,,[],[],[],[],[],[],[],0.5842,-1,106.3144,106.812,0,5,5,2,1,2003,FEM,DIS,150,daga,el,a,,,,,,,,,,,,,,,,
,,,,,,d4eb462ad63464517b37b0cc,66a626ef09d4e21e1a8894ec,67371d766c6050f8e53e81f8,2024-11-15_11h07.57.818,Tarea de género gramatical,2024.2.2,MacIntel,60.24096386,,,,,,,,,,,,,,,,,,,,,,106.8143,108.3288,a,0,0.8403,,[],[],[],[],[],[],[],0.8403,0,108.3307,108.8287,0,6,6,8,1,2009,MAS,DIS,150,puerto,la,l,,,,,,,,,,,,,,,,
,,,,,,d4eb462ad63464517b37b0cc,66a626ef09d4e21e1a8894ec,67371d766c6050f8e53e81f8,2024-11-15_11h07.57.818,Tarea de género gramatical,2024.2.2,MacIntel,60.24096386,,,,,,,,,,,,,,,,,,,,,,108.8313,109.7445,l,1,0.2347,,[],[],[],[],[],[],[],0.2347,1,109.7453,110.2448,0,7,7,14,1,2015,MAS,DIS,150,robot,la,l,,,,,,,,,,,,,,,,
,,,,,,d4eb462ad63464517b37b0cc,66a626ef09d4e21e1a8894ec,67371d766c6050f8e53e81f8,2024-11-15_11h07.57.818,Tarea de género gramatical,2024.2.2,MacIntel,60.24096386,,,,,,,,,,,,,,,,,,,,,,110.2476,111.5949,a,0,0.6652,,[],[],[],[],[],[],[],0.6652,0,111.5959,112.0951,0,8,8,12,1,2013,MAS,AGR,150,acero,el,l,,,,,,,,,,,,,,,,
,,,,,,d4eb462ad63464517b37b0cc,66a626ef09d4e21e1a8894ec,67371d766c6050f8e53e81f8,2024-11-15_11h07.57.818,Tarea de género gramatical,2024.2.2,MacIntel,60.24096386,,,,,,,,,,,,,,,,,,,,,,112.0974,112.9794,l,0,0.2121,,[],[],[],[],[],[],[],0.2121,0,112.9795,113.4781,0,9,9,0,1,2001,FEM,AGR,150,nuca,la,a,,,,,,,,,,,,,,,,
,,,,,,d4eb462ad63464517b37b0cc,66a626ef09d4e21e1a8894ec,67371d766c6050f8e53e81f8,2024-11-15_11h07.57.818,Tarea de género gramatical,2024.2.2,MacIntel,60.24096386,,,,,,,,,,,,,,,,,,,,,,113.4793,114.7793,l,1,0.6286,,[],[],[],[],[],[],[],0.6286,1,114.7804,115.278,0,10,10,13,1,2014,MAS,CON,150,siglo,,l,,,,,,,,,,,,,,,,
,,,,,,d4eb462ad63464517b37b0cc,66a626ef09d4e21e1a8894ec,67371d766c6050f8e53e81f8,2024-11-15_11h07.57.818,Tarea de género gramatical,2024.2.2,MacIntel,60.24096386,,,,,,,,,,,,,,,,,,,,,,115.2792,116.4447,a,0,0.5062,,[],[],[],[],[],[],[],0.5062,0,116.4456,116.9452,0,11,11,11,1,2012,MAS,DIS,150,clima,la,l,,,,,,,,,,,,,,,,
,,,,,,d4eb462ad63464517b37b0cc,66a626ef09d4e21e1a8894ec,67371d766c6050f8e53e81f8,2024-11-15_11h07.57.818,Tarea de género gramatical,2024.2.2,MacIntel,60.24096386,,,,,,,,,,,,,,,,,,,,,,116.9482,117.8945,l,0,0.2646,,[],[],[],[],[],[],[],0.2646,0,117.8946,118.3956,0,12,12,7,1,2008,FEM,CON,150,siesta,,a,,,,,,,,,,,,,,,,
,,,,,,d4eb462ad63464517b37b0cc,66a626ef09d4e21e1a8894ec,67371d766c6050f8e53e81f8,2024-11-15_11h07.57.818,Tarea de género gramatical,2024.2.2,MacIntel,60.24096386,,,,,,,,,,,,,,,,,,,,,,118.3976,119.2444,a,1,0.1648,,[],[],[],[],[],[],[],0.1648,1,119.2447,119.7444,0,13,13,4,1,2005,FEM,CON,150,placa,,a,,,,,,,,,,,,,,,,
,,,,,,d4eb462ad63464517b37b0cc,66a626ef09d4e21e1a8894ec,67371d766c6050f8e53e81f8,2024-11-15_11h07.57.818,Tarea de género gramatical,2024.2.2,MacIntel,60.24096386,,,,,,,,,,,,,,,,,,,,,,119.745,120.8444,a,1,0.4351,,[],[],[],[],[],[],[],0.4351,1,120.8444,121.3451,0,14,14,3,1,2004,FEM,AGR,150,venta,la,a,,,,,,,,,,,,,,,,
,,,,,,d4eb462ad63464517b37b0cc,66a626ef09d4e21e1a8894ec,67371d766c6050f8e53e81f8,2024-11-15_11h07.57.818,Tarea de género gramatical,2024.2.2,MacIntel,60.24096386,,,126.0293,127.328,,0.051901584,-0.388487413,1,0,0,instr_done_button,,,,,,,,,,,127.3595,128.3613,l,1,0.3331,,[],[],[],[],[],[],[],0.3331,1,128.3614,128.8617,,,,,,922,MAS,DIS,150,pelo,la,l,128.8625,128.8688,0.051901584,-0.388487413,0,0,0,,0,0,0,21,1,,,
,,,,,,d4eb462ad63464517b37b0cc,66a626ef09d4e21e1a8894ec,67371d766c6050f8e53e81f8,2024-11-15_11h07.57.818,Tarea de género gramatical,2024.2.2,MacIntel,60.24096386,,,,,,,,,,,,,,,,,,,,,,128.8702,129.8113,a,1,0.2748,,[],[],[],[],[],[],[],0.2748,1,129.8114,130.3117,,,,,,1136,FEM,AGR,150,deuda,la,a,130.312,130.3121,0.051901584,-0.388487413,0,0,0,,0,1,1,235,1,,,
,,,,,,d4eb462ad63464517b37b0cc,66a626ef09d4e21e1a8894ec,67371d766c6050f8e53e81f8,2024-11-15_11h07.57.818,Tarea de género gramatical,2024.2.2,MacIntel,60.24096386,,,,,,,,,,,,,,,,,,,,,,130.3141,131.2287,l,0,0.2417,,[],[],[],[],[],[],[],0.2417,0,131.2309,131.7285,,,,,,1297,FEM,DIS,150,cuerda,el,a,131.731,131.7323,0.051901584,-0.388487413,0,0,0,,0,2,2,396,1,,,
,,,,,,d4eb462ad63464517b37b0cc,66a626ef09d4e21e1a8894ec,67371d766c6050f8e53e81f8,2024-11-15_11h07.57.818,Tarea de género gramatical,2024.2.2,MacIntel,60.24096386,,,,,,,,,,,,,,,,,,,,,,131.7333,132.7114,a,1,0.3079,,[],[],[],[],[],[],[],0.3079,1,132.7121,133.2118,,,,,,1333,FEM,DIS,150,huella,el,a,133.2121,133.2123,0.051901584,-0.388487413,0,0,0,,0,3,3,432,1,,,
,,,,,,d4eb462ad63464517b37b0cc,66a626ef09d4e21e1a8894ec,67371d766c6050f8e53e81f8,2024-11-15_11h07.57.818,Tarea de género gramatical,2024.2.2,MacIntel,60.24096386,,,,,,,,,,,,,,,,,,,,,,133.2146,134.1946,l,0,0.3092,,[],[],[],[],[],[],[],0.3092,0,134.1956,134.6951,,,,,,1305,FEM,CON,150,parada,,a,134.6953,134.6957,0.051901584,-0.388487413,0,0,0,,0,4,4,404,1,,,
,,,,,,d4eb462ad63464517b37b0cc,66a626ef09d4e21e1a8894ec,67371d766c6050f8e53e81f8,2024-11-15_11h07.57.818,Tarea de género gramatical,2024.2.2,MacIntel,60.24096386,,,,,,,,,,,,,,,,,,,,,,134.6979,135.7612,a,1,0.3842,,[],[],[],[],[],[],[],0.3842,1,135.762,136.2609,,,,,,963,FEM,CON,150,fila,,a,136.261,136.2614,0.051901584,-0.388487413,0,0,0,,0,5,5,62,1,,,
,,,,,,d4eb462ad63464517b37b0cc,66a626ef09d4e21e1a8894ec,67371d766c6050f8e53e81f8,2024-11-15_11h07.57.818,Tarea de género gramatical,2024.2.2,MacIntel,60.24096386,,,,,,,,,,,,,,,,,,,,,,136.2631,137.3947,a,1,0.4569,,[],[],[],[],[],[],[],0.4569,1,137.3948,137.8952,,,,,,1316,FEM,AGR,150,colina,la,a,137.8977,137.8992,0.051901584,-0.388487413,0,0,0,,0,6,6,415,1,,,
,,,,,,d4eb462ad63464517b37b0cc,66a626ef09d4e21e1a8894ec,67371d766c6050f8e53e81f8,2024-11-15_11h07.57.818,Tarea de género gramatical,2024.2.2,MacIntel,60.24096386,,,,,,,,,,,,,,,,,,,,,,137.9001,138.9945,a,1,0.424,,[],[],[],[],[],[],[],0.424,1,138.9948,139.4944,,,,,,1107,FEM,CON,150,playa,,a,139.4944,139.4945,0.051901584,-0.388487413,0,0,0,,0,7,7,206,1,,,
,,,,,,d4eb462ad63464517b37b0cc,66a626ef09d4e21e1a8894ec,67371d766c6050f8e53e81f8,2024-11-15_11h07.57.818,Tarea de género gramatical,2024.2.2,MacIntel,60.24096386,,,,,,,,,,,,,,,,,,,,,,139.495,140.528,a,1,0.3562,,[],[],[],[],[],[],[],0.3562,1,140.5281,141.0286,,,,,,1327,FEM,DIS,150,agenda,el,a,141.0289,141.0292,0.051901584,-0.388487413,0,0,0,,0,8,8,426,1,,,
,,,,,,d4eb462ad63464517b37b0cc,66a626ef09d4e21e1a8894ec,67371d766c6050f8e53e81f8,2024-11-15_11h07.57.818,Tarea de género gramatical,2024.2.2,MacIntel,60.24096386,,,,,,,,,,,,,,,,,,,,,,141.0312,142.0114,a,1,0.3048,,[],[],[],[],[],[],[],0.3048,1,142.0116,142.5111,,,,,,1153,FEM,DIS,150,aldea,el,a,142.5113,142.5114,0.051901584,-0.388487413,0,0,0,,0,9,9,252,1,,,
,,,,,,d4eb462ad63464517b37b0cc,66a626ef09d4e21e1a8894ec,67371d766c6050f8e53e81f8,2024-11-15_11h07.57.818,Tarea de género gramatical,2024.2.2,MacIntel,60.24096386,,,,,,,,,,,,,,,,,,,,,,142.5125,144.0279,a,0,0.8421,,[],[],[],[],[],[],[],0.8421,0,144.0287,144.5286,,,,,,1180,MAS,DIS,150,salón,la,l,144.5287,144.529,0.051901584,-0.388487413,0,0,0,,0,10,10,279,1,,,
,,,,,,d4eb462ad63464517b37b0cc,66a626ef09d4e21e1a8894ec,67371d766c6050f8e53e81f8,2024-11-15_11h07.57.818,Tarea de género gramatical,2024.2.2,MacIntel,60.24096386,,,,,,,,,,,,,,,,,,,,,,144.5319,145.628,l,1,0.4242,,[],[],[],[],[],[],[],0.4242,1,145.629,146.1285,,,,,,1170,MAS,CON,150,queso,,l,146.131,146.1324,0.051901584,-0.388487413,0,0,0,,0,11,11,269,1,,,
,,,,,,d4eb462ad63464517b37b0cc,66a626ef09d4e21e1a8894ec,67371d766c6050f8e53e81f8,2024-11-15_11h07.57.818,Tarea de género gramatical,2024.2.2,MacIntel,60.24096386,,,,,,,,,,,,,,,,,,,,,,146.1333,147.1618,a,1,0.3556,,[],[],[],[],[],[],[],0.3556,1,147.1622,147.6617,,,,,,1177,FEM,DIS,150,plaza,el,a,147.662,147.6621,0.051901584,-0.388487413,0,0,0,,0,12,12,276,1,,,
,,,,,,d4eb462ad63464517b37b0cc,66a626ef09d4e21e1a8894ec,67371d766c6050f8e53e81f8,2024-11-15_11h07.57.818,Tarea de género gramatical,2024.2.2,MacIntel,60.24096386,,,,,,,,,,,,,,,,,,,,,,147.6645,149.1283,a,0,0.7839,,[],[],[],[],[],[],[],0.7839,0,149.1301,149.6278,,,,,,1278,MAS,CON,150,pastel,,l,149.6278,149.6279,0.051901584,-0.388487413,0,0,0,,0,13,13,377,1,,,
,,,,,,d4eb462ad63464517b37b0cc,66a626ef09d4e21e1a8894ec,67371d766c6050f8e53e81f8,2024-11-15_11h07.57.818,Tarea de género gramatical,2024.2.2,MacIntel,60.24096386,,,,,,,,,,,,,,,,,,,,,,149.6291,150.9114,a,1,0.6006,,[],[],[],[],[],[],[],0.6006,1,150.9123,151.412,,,,,,962,FEM,AGR,150,sopa,la,a,151.4122,151.4123,0.051901584,-0.388487413,0,0,0,,0,14,14,61,1,,,
,,,,,,d4eb462ad63464517b37b0cc,66a626ef09d4e21e1a8894ec,67371d766c6050f8e53e81f8,2024-11-15_11h07.57.818,Tarea de género gramatical,2024.2.2,MacIntel,60.24096386,,,,,,,,,,,,,,,,,,,,,,151.4152,152.3446,l,1,0.2509,,[],[],[],[],[],[],[],0.2509,1,152.3447,152.8443,,,,,,1192,MAS,DIS,150,piano,la,l,152.8464,152.8478,0.051901584,-0.388487413,0,0,0,,0,15,15,291,1,,,
,,,,,,d4eb462ad63464517b37b0cc,66a626ef09d4e21e1a8894ec,67371d766c6050f8e53e81f8,2024-11-15_11h07.57.818,Tarea de género gramatical,2024.2.2,MacIntel,60.24096386,,,,,,,,,,,,,,,,,,,,,,152.8486,153.8452,a,0,0.3218,,[],[],[],[],[],[],[],0.3218,0,153.8478,154.3453,,,,,,1002,MAS,CON,150,coro,,l,154.3455,154.3458,0.051901584,-0.388487413,0,0,0,,0,16,16,101,1,,,
,,,,,,d4eb462ad63464517b37b0cc,66a626ef09d4e21e1a8894ec,67371d766c6050f8e53e81f8,2024-11-15_11h07.57.818,Tarea de género gramatical,2024.2.2,MacIntel,60.24096386,,,,,,,,,,,,,,,,,,,,,,154.3484,155.3954,l,1,0.374,,[],[],[],[],[],[],[],0.374,1,155.3971,155.8951,,,,,,1096,MAS,DIS,150,barco,la,l,155.8953,155.8954,0.051901584,-0.388487413,0,0,0,,0,17,17,195,1,,,
,,,,,,d4eb462ad63464517b37b0cc,66a626ef09d4e21e1a8894ec,67371d766c6050f8e53e81f8,2024-11-15_11h07.57.818,Tarea de género gramatical,2024.2.2,MacIntel,60.24096386,,,,,,,,,,,,,,,,,,,,,,155.8979,156.9279,a,1,0.3539,,[],[],[],[],[],[],[],0.3539,1,156.928,157.4277,,,,,,1208,FEM,AGR,150,semana,la,a,157.4278,157.428,0.051901584,-0.388487413,0,0,0,,0,18,18,307,1,,,
,,,,,,d4eb462ad63464517b37b0cc,66a626ef09d4e21e1a8894ec,67371d766c6050f8e53e81f8,2024-11-15_11h07.57.818,Tarea de género gramatical,2024.2.2,MacIntel,60.24096386,,,,,,,,,,,,,,,,,,,,,,157.4299,158.5946,l,0,0.4875,,[],[],[],[],[],[],[],0.4875,0,158.5954,159.0951,,,,,,1099,FEM,DIS,150,nariz,el,a,159.0952,159.0954,0.051901584,-0.388487413,0,0,0,,0,19,19,198,1,,,
,,,,,,d4eb462ad63464517b37b0cc,66a626ef09d4e21e1a8894ec,67371d766c6050f8e53e81f8,2024-11-15_11h07.57.818,Tarea de género gramatical,2024.2.2,MacIntel,60.24096386,,,,,,,,,,,,,,,,,,,,,,159.0975,160.1949,a,0,0.4236,,[],[],[],[],[],[],[],0.4236,0,160.1952,160.695,,,,,,984,MAS,CON,150,mago,,l,160.6972,160.6999,0.051901584,-0.388487413,0,0,0,,0,20,20,83,1,,,
,,,,,,d4eb462ad63464517b37b0cc,66a626ef09d4e21e1a8894ec,67371d766c6050f8e53e81f8,2024-11-15_11h07.57.818,Tarea de género gramatical,2024.2.2,MacIntel,60.24096386,,,,,,,,,,,,,,,,,,,,,,160.7014,161.8118,a,0,0.4391,,[],[],[],[],[],[],[],0.4391,0,161.8121,162.3116,,,,,,1306,MAS,DIS,150,premio,la,l,162.3117,162.3118,0.051901584,-0.388487413,0,0,0,,0,21,21,405,1,,,
,,,,,,d4eb462ad63464517b37b0cc,66a626ef09d4e21e1a8894ec,67371d766c6050f8e53e81f8,2024-11-15_11h07.57.818,Tarea de género gramatical,2024.2.2,MacIntel,60.24096386,,,,,,,,,,,,,,,,,,,,,,162.3137,163.4454,l,1,0.4599,,[],[],[],[],[],[],[],0.4599,1,163.4472,163.9443,,,,,,905,MAS,AGR,150,tipo,el,l,163.9445,163.9447,0.051901584,-0.388487413,0,0,0,,0,22,22,4,1,,,
,,,,,,d4eb462ad63464517b37b0cc,66a626ef09d4e21e1a8894ec,67371d766c6050f8e53e81f8,2024-11-15_11h07.57.818,Tarea de género gramatical,2024.2.2,MacIntel,60.24096386,,,,,,,,,,,,,,,,,,,,,,163.9467,165.2108,l,1,0.5887,,[],[],[],[],[],[],[],0.5887,1,165.2109,165.7117,,,,,,1126,MAS,DIS,150,color,la,l,165.7118,165.7121,0.051901584,-0.388487413,0,0,0,,0,23,23,225,1,,,
,,,,,,d4eb462ad63464517b37b0cc,66a626ef09d4e21e1a8894ec,67371d766c6050f8e53e81f8,2024-11-15_11h07.57.818,Tarea de género gramatical,2024.2.2,MacIntel,60.24096386,,,,,,,,,,,,,,,,,,,,,,165.7143,166.8109,l,0,0.4192,,[],[],[],[],[],[],[],0.4192,0,166.8114,167.312,,,,,,1345,FEM,DIS,150,bondad,el,a,167.314,167.3154,0.051901584,-0.388487413,0,0,0,,0,24,24,444,1,,,
,,,,,,d4eb462ad63464517b37b0cc,66a626ef09d4e21e1a8894ec,67371d766c6050f8e53e81f8,2024-11-15_11h07.57.818,Tarea de género gramatical,2024.2.2,MacIntel,60.24096386,,,,,,,,,,,,,,,,,,,,,,167.3161,168.8447,l,0,0.8588,,[],[],[],[],[],[],[],0.8588,0,168.8448,169.3444,,,,,,1340,FEM,AGR,150,patada,la,a,169.3446,169.3449,0.051901584,-0.388487413,0,0,0,,0,25,25,439,1,,,
,,,,,,d4eb462ad63464517b37b0cc,66a626ef09d4e21e1a8894ec,67371d766c6050f8e53e81f8,2024-11-15_11h07.57.818,Tarea de género gramatical,2024.2.2,MacIntel,60.24096386,,,,,,,,,,,,,,,,,,,,,,169.3475,170.4451,a,1,0.4249,,[],[],[],[],[],[],[],0.4249,1,170.447,170.9454,,,,,,985,FEM,DIS,150,gira,el,a,170.9455,170.9458,0.051901584,-0.388487413,0,0,0,,0,26,26,84,1,,,
,,,,,,d4eb462ad63464517b37b0cc,66a626ef09d4e21e1a8894ec,67371d766c6050f8e53e81f8,2024-11-15_11h07.57.818,Tarea de género gramatical,2024.2.2,MacIntel,60.24096386,,,,,,,,,,,,,,,,,,,,,,170.9477,172.0939,l,1,0.4679,,[],[],[],[],[],[],[],0.4679,1,172.094,172.5946,,,,,,1008,MAS,CON,150,hilo,,l,172.5947,172.5949,0.051901584,-0.388487413,0,0,0,,0,27,27,107,1,,,
,,,,,,d4eb462ad63464517b37b0cc,66a626ef09d4e21e1a8894ec,67371d766c6050f8e53e81f8,2024-11-15_11h07.57.818,Tarea de género gramatical,2024.2.2,MacIntel,60.24096386,,,,,,,,,,,,,,,,,,,,,,172.5973,173.8275,l,1,0.5506,,[],[],[],[],[],[],[],0.5506,1,173.8276,174.3285,,,,,,1139,MAS,AGR,150,reloj,el,l,174.3287,174.3289,0.051901584,-0.388487413,0,0,0,,0,28,28,238,1,,,
,,,,,,d4eb462ad63464517b37b0cc,66a626ef09d4e21e1a8894ec,67371d766c6050f8e53e81f8,2024-11-15_11h07.57.818,Tarea de género gramatical,2024.2.2,MacIntel,60.24096386,,,,,,,,,,,,,,,,,,,,,,174.331,175.5782,a,1,0.5702,,[],[],[],[],[],[],[],0.5702,1,175.5784,176.0785,,,,,,1287,FEM,CON,150,página,,a,176.0818,176.0831,0.051901584,-0.388487413,0,0,0,,0,29,29,386,1,,,
,,,,,,d4eb462ad63464517b37b0cc,66a626ef09d4e21e1a8894ec,67371d766c6050f8e53e81f8,2024-11-15_11h07.57.818,Tarea de género gramatical,2024.2.2,MacIntel,60.24096386,,,,,,,,,,,,,,,,,,,,,,176.0839,177.3613,l,1,0.5994,,[],[],[],[],[],[],[],0.5994,1,177.3615,177.8622,,,,,,1019,MAS,AGR,150,mito,el,l,177.8624,177.8625,0.051901584,-0.388487413,0,0,0,,0,30,30,118,1,,,
,,,,,,d4eb462ad63464517b37b0cc,66a626ef09d4e21e1a8894ec,67371d766c6050f8e53e81f8,2024-11-15_11h07.57.818,Tarea de género gramatical,2024.2.2,MacIntel,60.24096386,,,,,,,,,,,,,,,,,,,,,,177.8649,178.8448,l,0,0.3085,,[],[],[],[],[],[],[],0.3085,0,178.8476,179.3454,,,,,,1207,FEM,DIS,150,suerte,el,a,179.3455,179.3458,0.051901584,-0.388487413,0,0,0,,0,31,31,306,1,,,
,,,,,,d4eb462ad63464517b37b0cc,66a626ef09d4e21e1a8894ec,67371d766c6050f8e53e81f8,2024-11-15_11h07.57.818,Tarea de género gramatical,2024.2.2,MacIntel,60.24096386,,,,,,,,,,,,,,,,,,,,,,179.3483,180.5282,l,1,0.5061,,[],[],[],[],[],[],[],0.5061,1,180.5299,181.0277,,,,,,911,MAS,AGR,150,país,el,l,181.0279,181.028,0.051901584,-0.388487413,0,0,0,,0,32,32,10,1,,,
,,,,,,d4eb462ad63464517b37b0cc,66a626ef09d4e21e1a8894ec,67371d766c6050f8e53e81f8,2024-11-15_11h07.57.818,Tarea de género gramatical,2024.2.2,MacIntel,60.24096386,,,,,,,,,,,,,,,,,,,,,,181.0305,182.3272,l,1,0.6217,,[],[],[],[],[],[],[],0.6217,1,182.3274,182.8281,,,,,,994,MAS,DIS,150,cabo,la,l,182.8305,182.8316,0.051901584,-0.388487413,0,0,0,,0,33,33,93,1,,,
,,,,,,d4eb462ad63464517b37b0cc,66a626ef09d4e21e1a8894ec,67371d766c6050f8e53e81f8,2024-11-15_11h07.57.818,Tarea de género gramatical,2024.2.2,MacIntel,60.24096386,,,,,,,,,,,,,,,,,,,,,,182.8324,183.8447,l,0,0.3344,,[],[],[],[],[],[],[],0.3344,0,183.8456,184.3453,,,,,,1059,FEM,CON,150,clase,,a,184.3454,184.3457,0.051901584,-0.388487413,0,0,0,,0,34,34,158,1,,,
,,,,,,d4eb462ad63464517b37b0cc,66a626ef09d4e21e1a8894ec,67371d766c6050f8e53e81f8,2024-11-15_11h07.57.818,Tarea de género gramatical,2024.2.2,MacIntel,60.24096386,,,,,,,,,,,,,,,,,,,,,,184.3479,185.6784,a,1,0.659,,[],[],[],[],[],[],[],0.659,1,185.6801,186.1786,,,,,,907,FEM,DIS,150,hora,el,a,186.1787,186.179,0.051901584,-0.388487413,0,0,0,,0,35,35,6,1,,,
,,,,,,d4eb462ad63464517b37b0cc,66a626ef09d4e21e1a8894ec,67371d766c6050f8e53e81f8,2024-11-15_11h07.57.818,Tarea de género gramatical,2024.2.2,MacIntel,60.24096386,,,,,,,,,,,,,,,,,,,,,,186.1812,187.4447,l,0,0.5855,,[],[],[],[],[],[],[],0.5855,0,187.4455,187.9443,,,,,,1291,FEM,DIS,150,altura,el,a,187.9444,187.9446,0.051901584,-0.388487413,0,0,0,,0,36,36,390,1,,,
,,,,,,d4eb462ad63464517b37b0cc,66a626ef09d4e21e1a8894ec,67371d766c6050f8e53e81f8,2024-11-15_11h07.57.818,Tarea de género gramatical,2024.2.2,MacIntel,60.24096386,,,,,,,,,,,,,,,,,,,,,,187.9467,188.7946,a,1,0.168,,[],[],[],[],[],[],[],0.168,1,188.7954,189.2954,,,,,,1219,FEM,DIS,150,sangre,el,a,189.2955,189.2956,0.051901584,-0.388487413,0,0,0,,0,37,37,318,1,,,
,,,,,,d4eb462ad63464517b37b0cc,66a626ef09d4e21e1a8894ec,67371d766c6050f8e53e81f8,2024-11-15_11h07.57.818,Tarea de género gramatical,2024.2.2,MacIntel,60.24096386,,,,,,,,,,,,,,,,,,,,,,189.2976,190.1615,l,1,0.19,,[],[],[],[],[],[],[],0.19,1,190.1616,190.662,,,,,,1283,MAS,AGR,150,parque,el,l,190.6643,190.6653,0.051901584,-0.388487413,0,0,0,,0,38,38,382,1,,,
,,,,,,d4eb462ad63464517b37b0cc,66a626ef09d4e21e1a8894ec,67371d766c6050f8e53e81f8,2024-11-15_11h07.57.818,Tarea de género gramatical,2024.2.2,MacIntel,60.24096386,,,,,,,,,,,,,,,,,,,,,,190.666,192.0619,a,1,0.7193,,[],[],[],[],[],[],[],0.7193,1,192.0622,192.5602,,,,,,1118,FEM,AGR,150,nieve,la,a,192.5602,192.5604,0.051901584,-0.388487413,0,0,0,,0,39,39,217,1,,,
,,,,,,d4eb462ad63464517b37b0cc,66a626ef09d4e21e1a8894ec,67371d766c6050f8e53e81f8,2024-11-15_11h07.57.818,Tarea de género gramatical,2024.2.2,MacIntel,60.24096386,,,,,,,,,,,,,,,,,,,,,,192.5608,193.878,l,1,0.6513,,[],[],[],[],[],[],[],0.6513,1,193.8781,194.3787,,,,,,1270,MAS,DIS,150,seguro,la,l,194.3788,194.379,0.051901584,-0.388487413,0,0,0,,0,40,40,369,1,,,
,,,,,,d4eb462ad63464517b37b0cc,66a626ef09d4e21e1a8894ec,67371d766c6050f8e53e81f8,2024-11-15_11h07.57.818,Tarea de género gramatical,2024.2.2,MacIntel,60.24096386,,,,,,,,,,,,,,,,,,,,,,194.381,195.4119,a,1,0.3546,,[],[],[],[],[],[],[],0.3546,1,195.4122,195.9122,,,,,,1154,FEM,AGR,150,caída,la,a,195.9124,195.9126,0.051901584,-0.388487413,0,0,0,,0,41,41,253,1,,,
,,,,,,d4eb462ad63464517b37b0cc,66a626ef09d4e21e1a8894ec,67371d766c6050f8e53e81f8,2024-11-15_11h07.57.818,Tarea de género gramatical,2024.2.2,MacIntel,60.24096386,,,,,,,,,,,,,,,,,,,,,,195.9149,196.7282,l,0,0.1404,,[],[],[],[],[],[],[],0.1404,0,196.7292,197.2288,,,,,,1039,FEM,DIS,150,pipa,el,a,197.2313,197.233,0.051901584,-0.388487413,0,0,0,,0,42,42,138,1,,,
,,,,,,d4eb462ad63464517b37b0cc,66a626ef09d4e21e1a8894ec,67371d766c6050f8e53e81f8,2024-11-15_11h07.57.818,Tarea de género gramatical,2024.2.2,MacIntel,60.24096386,,,,,,,,,,,,,,,,,,,,,,197.234,198.3784,l,1,0.4699,,[],[],[],[],[],[],[],0.4699,1,198.3792,198.8784,,,,,,977,MAS,AGR,150,pico,el,l,198.8785,198.8787,0.051901584,-0.388487413,0,0,0,,0,43,43,76,1,,,
,,,,,,d4eb462ad63464517b37b0cc,66a626ef09d4e21e1a8894ec,67371d766c6050f8e53e81f8,2024-11-15_11h07.57.818,Tarea de género gramatical,2024.2.2,MacIntel,60.24096386,,,,,,,,,,,,,,,,,,,,,,198.8809,200.0785,a,0,0.5288,,[],[],[],[],[],[],[],0.5288,0,200.0798,200.5791,,,,,,1055,MAS,AGR,150,mundo,el,l,200.5793,200.5795,0.051901584,-0.388487413,0,0,0,,0,44,44,154,1,,,
,,,,,,d4eb462ad63464517b37b0cc,66a626ef09d4e21e1a8894ec,67371d766c6050f8e53e81f8,2024-11-15_11h07.57.818,Tarea de género gramatical,2024.2.2,MacIntel,60.24096386,,,,,,,,,,,,,,,,,,,,,,200.5825,201.6613,a,1,0.4018,,[],[],[],[],[],[],[],0.4018,1,201.6622,202.1622,,,,,,1299,FEM,CON,150,charla,,a,202.1624,202.1627,0.051901584,-0.388487413,0,0,0,,0,45,45,398,1,,,
,,,,,,d4eb462ad63464517b37b0cc,66a626ef09d4e21e1a8894ec,67371d766c6050f8e53e81f8,2024-11-15_11h07.57.818,Tarea de género gramatical,2024.2.2,MacIntel,60.24096386,,,,,,,,,,,,,,,,,,,,,,202.1661,203.3286,a,0,0.4808,,[],[],[],[],[],[],[],0.4808,0,203.3302,203.8285,,,,,,941,MAS,AGR,150,bote,el,l,203.8287,203.8288,0.051901584,-0.388487413,0,0,0,,0,46,46,40,1,,,
,,,,,,d4eb462ad63464517b37b0cc,66a626ef09d4e21e1a8894ec,67371d766c6050f8e53e81f8,2024-11-15_11h07.57.818,Tarea de género gramatical,2024.2.2,MacIntel,60.24096386,,,,,,,,,,,,,,,,,,,,,,203.8317,204.8618,l,0,0.3495,,[],[],[],[],[],[],[],0.3495,0,204.8621,205.3615,,,,,,975,FEM,CON,150,caza,,a,205.3624,205.363,0.051901584,-0.388487413,0,0,0,,0,47,47,74,1,,,
,,,,,,d4eb462ad63464517b37b0cc,66a626ef09d4e21e1a8894ec,67371d766c6050f8e53e81f8,2024-11-15_11h07.57.818,Tarea de género gramatical,2024.2.2,MacIntel,60.24096386,,,,,,,,,,,,,,,,,,,,,,205.3645,206.7618,l,0,0.7265,,[],[],[],[],[],[],[],0.7265,0,206.762,207.2627,,,,,,937,FEM,DIS,150,sala,el,a,207.2628,207.2631,0.051901584,-0.388487413,0,0,0,,0,48,48,36,1,,,
,,,,,,d4eb462ad63464517b37b0cc,66a626ef09d4e21e1a8894ec,67371d766c6050f8e53e81f8,2024-11-15_11h07.57.818,Tarea de género gramatical,2024.2.2,MacIntel,60.24096386,,,,,,,,,,,,,,,,,,,,,,207.2654,208.4615,l,1,0.5156,,[],[],[],[],[],[],[],0.5156,1,208.4626,208.9622,,,,,,1260,MAS,CON,150,puente,,l,208.9624,208.9626,0.051901584,-0.388487413,0,0,0,,0,49,49,359,1,,,
,,,,,,d4eb462ad63464517b37b0cc,66a626ef09d4e21e1a8894ec,67371d766c6050f8e53e81f8,2024-11-15_11h07.57.818,Tarea de género gramatical,2024.2.2,MacIntel,60.24096386,,,,,,,,,,,,,,,,,,,,,,208.9653,210.0954,l,1,0.457,,[],[],[],[],[],[],[],0.457,1,210.0957,210.5954,,,,,,1174,MAS,DIS,150,motor,la,l,210.5955,210.5958,0.051901584,-0.388487413,0,0,0,,0,50,50,273,1,,,
,,,,,,d4eb462ad63464517b37b0cc,66a626ef09d4e21e1a8894ec,67371d766c6050f8e53e81f8,2024-11-15_11h07.57.818,Tarea de género gramatical,2024.2.2,MacIntel,60.24096386,,,,,,,,,,,,,,,,,,,,,,210.5979,211.6614,l,0,0.3922,,[],[],[],[],[],[],[],0.3922,0,211.6622,212.1622,,,,,,950,FEM,AGR,150,dama,la,a,212.1641,212.1656,0.051901584,-0.388487413,0,0,0,,0,51,51,49,1,,,
,,,,,,d4eb462ad63464517b37b0cc,66a626ef09d4e21e1a8894ec,67371d766c6050f8e53e81f8,2024-11-15_11h07.57.818,Tarea de género gramatical,2024.2.2,MacIntel,60.24096386,,,,,,,,,,,,,,,,,,,,,,212.1664,213.3281,a,1,0.4931,,[],[],[],[],[],[],[],0.4931,1,213.3291,213.8282,,,,,,1112,FEM,AGR,150,cinta,la,a,213.8283,213.8285,0.051901584,-0.388487413,0,0,0,,0,52,52,211,1,,,
,,,,,,d4eb462ad63464517b37b0cc,66a626ef09d4e21e1a8894ec,67371d766c6050f8e53e81f8,2024-11-15_11h07.57.818,Tarea de género gramatical,2024.2.2,MacIntel,60.24096386,,,,,,,,,,,,,,,,,,,,,,213.8308,215.0784,l,1,0.5684,,[],[],[],[],[],[],[],0.5684,1,215.0787,215.5782,,,,,,1264,MAS,DIS,150,viento,la,l,215.5782,215.5783,0.051901584,-0.388487413,0,0,0,,0,53,53,363,1,,,
,,,,,,d4eb462ad63464517b37b0cc,66a626ef09d4e21e1a8894ec,67371d766c6050f8e53e81f8,2024-11-15_11h07.57.818,Tarea de género gramatical,2024.2.2,MacIntel,60.24096386,,,,,,,,,,,,,,,,,,,,,,215.5792,216.6276,l,0,0.3679,,[],[],[],[],[],[],[],0.3679,0,216.6283,217.1289,,,,,,945,FEM,CON,150,isla,,a,217.1291,217.1293,0.051901584,-0.388487413,0,0,0,,0,54,54,44,1,,,
,,,,,,d4eb462ad63464517b37b0cc,66a626ef09d4e21e1a8894ec,67371d766c6050f8e53e81f8,2024-11-15_11h07.57.818,Tarea de género gramatical,2024.2.2,MacIntel,60.24096386,,,,,,,,,,,,,,,,,,,,,,217.1322,217.9797,a,1,0.1645,,[],[],[],[],[],[],[],0.1645,1,217.9817,218.478,,,,,,1322,FEM,AGR,150,rutina,la,a,218.4781,218.4781,0.051901584,-0.388487413,0,0,0,,0,55,55,421,1,,,
,,,,,,d4eb462ad63464517b37b0cc,66a626ef09d4e21e1a8894ec,67371d766c6050f8e53e81f8,2024-11-15_11h07.57.818,Tarea de género gramatical,2024.2.2,MacIntel,60.24096386,,,,,,,,,,,,,,,,,,,,,,218.479,219.6782,l,1,0.5412,,[],[],[],[],[],[],[],0.5412,1,219.6783,220.1787,,,,,,1284,MAS,CON,150,pedazo,,l,220.1808,220.1824,0.051901584,-0.388487413,0,0,0,,0,56,56,383,1,,,
,,,,,,d4eb462ad63464517b37b0cc,66a626ef09d4e21e1a8894ec,67371d766c6050f8e53e81f8,2024-11-15_11h07.57.818,Tarea de género gramatical,2024.2.2,MacIntel,60.24096386,,,,,,,,,,,,,,,,,,,,,,220.1843,221.2782,a,1,0.4183,,[],[],[],[],[],[],[],0.4183,1,221.2783,221.7788,,,,,,1166,FEM,AGR,150,jaula,la,a,221.779,221.7792,0.051901584,-0.388487413,0,0,0,,0,57,57,265,1,,,
,,,,,,d4eb462ad63464517b37b0cc,66a626ef09d4e21e1a8894ec,67371d766c6050f8e53e81f8,2024-11-15_11h07.57.818,Tarea de género gramatical,2024.2.2,MacIntel,60.24096386,,,,,,,,,,,,,,,,,,,,,,221.7815,222.7954,l,0,0.3333,,[],[],[],[],[],[],[],0.3333,0,222.7977,223.2951,,,,,,1051,FEM,DIS,150,noche,el,a,223.2952,223.2955,0.051901584,-0.388487413,0,0,0,,0,58,58,150,1,,,
,,,,,,d4eb462ad63464517b37b0cc,66a626ef09d4e21e1a8894ec,67371d766c6050f8e53e81f8,2024-11-15_11h07.57.818,Tarea de género gramatical,2024.2.2,MacIntel,60.24096386,,,,,,,,,,,,,,,,,,,,,,223.2976,224.7126,a,0,0.7436,,[],[],[],[],[],[],[],0.7436,0,224.7128,225.2116,,,,,,1114,MAS,DIS,150,fondo,la,l,225.2118,225.212,0.051901584,-0.388487413,0,0,0,,0,59,59,213,1,,,
,,,,,,d4eb462ad63464517b37b0cc,66a626ef09d4e21e1a8894ec,67371d766c6050f8e53e81f8,2024-11-15_11h07.57.818,Tarea de género gramatical,2024.2.2,MacIntel,60.24096386,,,,,,,,,,,,,,,,,,,,,,225.214,226.6448,a,0,0.7561,,[],[],[],[],[],[],[],0.7561,0,226.645,227.1448,,,,,,976,MAS,DIS,150,lujo,la,l,227.1469,227.1484,0.051901584,-0.388487413,0,0,0,,0,60,60,75,1,,,
,,,,,,d4eb462ad63464517b37b0cc,66a626ef09d4e21e1a8894ec,67371d766c6050f8e53e81f8,2024-11-15_11h07.57.818,Tarea de género gramatical,2024.2.2,MacIntel,60.24096386,,,,,,,,,,,,,,,,,,,,,,227.1491,228.2949,l,1,0.4739,,[],[],[],[],[],[],[],0.4739,1,228.2956,228.7943,,,,,,947,MAS,AGR,150,olor,el,l,228.7945,228.7947,0.051901584,-0.388487413,0,0,0,,0,61,61,46,1,,,
,,,,,,d4eb462ad63464517b37b0cc,66a626ef09d4e21e1a8894ec,67371d766c6050f8e53e81f8,2024-11-15_11h07.57.818,Tarea de género gramatical,2024.2.2,MacIntel,60.24096386,,,,,,,,,,,,,,,,,,,,,,228.7966,229.9448,a,1,0.4738,,[],[],[],[],[],[],[],0.4738,1,229.9449,230.4454,,,,,,980,FEM,AGR,150,vaca,la,a,230.4456,230.4458,0.051901584,-0.388487413,0,0,0,,0,62,62,79,1,,,
,,,,,,d4eb462ad63464517b37b0cc,66a626ef09d4e21e1a8894ec,67371d766c6050f8e53e81f8,2024-11-15_11h07.57.818,Tarea de género gramatical,2024.2.2,MacIntel,60.24096386,,,,,,,,,,,,,,,,,,,,,,230.4483,231.6446,l,1,0.5257,,[],[],[],[],[],[],[],0.5257,1,231.6447,232.1458,,,,,,995,MAS,AGR,150,tomo,el,l,232.1459,232.1462,0.051901584,-0.388487413,0,0,0,,0,63,63,94,1,,,
,,,,,,d4eb462ad63464517b37b0cc,66a626ef09d4e21e1a8894ec,67371d766c6050f8e53e81f8,2024-11-15_11h07.57.818,Tarea de género gramatical,2024.2.2,MacIntel,60.24096386,,,,,,,,,,,,,,,,,,,,,,232.1483,233.3453,l,1,0.527,,[],[],[],[],[],[],[],0.527,1,233.3456,233.8455,,,,,,1343,MAS,AGR,150,templo,el,l,233.8457,233.8458,0.051901584,-0.388487413,0,0,0,,0,64,64,442,1,,,
,,,,,,d4eb462ad63464517b37b0cc,66a626ef09d4e21e1a8894ec,67371d766c6050f8e53e81f8,2024-11-15_11h07.57.818,Tarea de género gramatical,2024.2.2,MacIntel,60.24096386,,,,,,,,,,,,,,,,,,,,,,233.848,235.0449,l,1,0.5234,,[],[],[],[],[],[],[],0.5234,1,235.045,235.545,,,,,,1110,MAS,CON,150,baile,,l,235.5478,235.5493,0.051901584,-0.388487413,0,0,0,,0,65,65,209,1,,,
,,,,,,d4eb462ad63464517b37b0cc,66a626ef09d4e21e1a8894ec,67371d766c6050f8e53e81f8,2024-11-15_11h07.57.818,Tarea de género gramatical,2024.2.2,MacIntel,60.24096386,,,,,,,,,,,,,,,,,,,,,,235.5501,236.5783,a,1,0.3554,,[],[],[],[],[],[],[],0.3554,1,236.5785,237.079,,,,,,1239,FEM,CON,150,salida,,a,237.0792,237.0793,0.051901584,-0.388487413,0,0,0,,0,66,66,338,1,,,
,,,,,,d4eb462ad63464517b37b0cc,66a626ef09d4e21e1a8894ec,67371d766c6050f8e53e81f8,2024-11-15_11h07.57.818,Tarea de género gramatical,2024.2.2,MacIntel,60.24096386,,,,,,,,,,,,,,,,,,,,,,237.0815,238.3116,l,0,0.5585,,[],[],[],[],[],[],[],0.5585,0,238.3123,238.8122,,,,,,925,FEM,DIS,150,nave,el,a,238.8124,238.8126,0.051901584,-0.388487413,0,0,0,,0,67,67,24,1,,,
,,,,,,d4eb462ad63464517b37b0cc,66a626ef09d4e21e1a8894ec,67371d766c6050f8e53e81f8,2024-11-15_11h07.57.818,Tarea de género gramatical,2024.2.2,MacIntel,60.24096386,,,,,,,,,,,,,,,,,,,,,,238.8151,240.1287,a,1,0.6425,,[],[],[],[],[],[],[],0.6425,1,240.1297,240.6281,,,,,,1183,FEM,DIS,150,pluma,el,a,240.6283,240.6283,0.051901584,-0.388487413,0,0,0,,0,68,68,282,1,,,
,,,,,,d4eb462ad63464517b37b0cc,66a626ef09d4e21e1a8894ec,67371d766c6050f8e53e81f8,2024-11-15_11h07.57.818,Tarea de género gramatical,2024.2.2,MacIntel,60.24096386,,,,,,,,,,,,,,,,,,,,,,240.6291,242.5459,a,1,1.2473,,[],[],[],[],[],[],[],1.2473,1,242.5463,243.0465,,,,,,1087,FEM,DIS,150,lista,el,a,243.0487,243.05,0.051901584,-0.388487413,0,0,0,,0,69,69,186,1,,,
,,,,,,d4eb462ad63464517b37b0cc,66a626ef09d4e21e1a8894ec,67371d766c6050f8e53e81f8,2024-11-15_11h07.57.818,Tarea de género gramatical,2024.2.2,MacIntel,60.24096386,,,,,,,,,,,,,,,,,,,,,,243.0509,244.4116,l,0,0.6856,,[],[],[],[],[],[],[],0.6856,0,244.4125,244.9122,,,,,,914,FEM,AGR,150,cara,la,a,244.9124,244.9127,0.051901584,-0.388487413,0,0,0,,0,70,70,13,1,,,
,,,,,,d4eb462ad63464517b37b0cc,66a626ef09d4e21e1a8894ec,67371d766c6050f8e53e81f8,2024-11-15_11h07.57.818,Tarea de género gramatical,2024.2.2,MacIntel,60.24096386,,,,,,,,,,,,,,,,,,,,,,244.915,245.9111,a,1,0.3255,,[],[],[],[],[],[],[],0.3255,1,245.9119,246.4121,,,,,,1275,FEM,CON,150,cadena,,a,246.4123,246.4125,0.051901584,-0.388487413,0,0,0,,0,71,71,374,1,,,
,,,,,,d4eb462ad63464517b37b0cc,66a626ef09d4e21e1a8894ec,67371d766c6050f8e53e81f8,2024-11-15_11h07.57.818,Tarea de género gramatical,2024.2.2,MacIntel,60.24096386,,,,,,,,,,,,,,,,,,,,,,246.4155,247.6281,l,1,0.535,,[],[],[],[],[],[],[],0.535,1,247.6282,248.1303,,,,,,924,MAS,CON,150,voto,,l,248.1305,248.1306,0.051901584,-0.388487413,0,0,0,,0,72,72,23,1,,,
,,,,,,d4eb462ad63464517b37b0cc,66a626ef09d4e21e1a8894ec,67371d766c6050f8e53e81f8,2024-11-15_11h07.57.818,Tarea de género gramatical,2024.2.2,MacIntel,60.24096386,,,,,,,,,,,,,,,,,,,,,,248.1329,249.3448,a,1,0.5342,,[],[],[],[],[],[],[],0.5342,1,249.3449,249.8454,,,,,,1005,FEM,CON,150,jefa,,a,249.8456,249.8458,0.051901584,-0.388487413,0,0,0,,0,73,73,104,1,,,
,,,,,,d4eb462ad63464517b37b0cc,66a626ef09d4e21e1a8894ec,67371d766c6050f8e53e81f8,2024-11-15_11h07.57.818,Tarea de género gramatical,2024.2.2,MacIntel,60.24096386,,,,,,,,,,,,,,,,,,,,,,249.8484,251.1449,l,1,0.6161,,[],[],[],[],[],[],[],0.6161,1,251.1449,251.6439,,,,,,1092,MAS,CON,150,grupo,,l,251.6447,251.6453,0.051901584,-0.388487413,0,0,0,,0,74,74,191,1,,,
,,,,,,d4eb462ad63464517b37b0cc,66a626ef09d4e21e1a8894ec,67371d766c6050f8e53e81f8,2024-11-15_11h07.57.818,Tarea de género gramatical,2024.2.2,MacIntel,60.24096386,,,,,,,,,,,,,,,,,,,,,,251.6467,252.7615,l,0,0.4335,,[],[],[],[],[],[],[],0.4335,0,252.7625,253.2614,,,,,,1123,FEM,DIS,150,plata,el,a,253.2616,253.2617,0.051901584,-0.388487413,0,0,0,,0,75,75,222,1,,,
,,,,,,d4eb462ad63464517b37b0cc,66a626ef09d4e21e1a8894ec,67371d766c6050f8e53e81f8,2024-11-15_11h07.57.818,Tarea de género gramatical,2024.2.2,MacIntel,60.24096386,,,,,,,,,,,,,,,,,,,,,,253.2641,253.9949,a,1,0.0539,,[],[],[],[],[],[],[],0.0539,1,253.9956,254.4955,,,,,,1221,FEM,CON,150,comida,,a,254.4956,254.4958,0.051901584,-0.388487413,0,0,0,,0,76,76,320,1,,,
,,,,,,d4eb462ad63464517b37b0cc,66a626ef09d4e21e1a8894ec,67371d766c6050f8e53e81f8,2024-11-15_11h07.57.818,Tarea de género gramatical,2024.2.2,MacIntel,60.24096386,,,,,,,,,,,,,,,,,,,,,,254.4978,255.8117,l,1,0.6348,,[],[],[],[],[],[],[],0.6348,1,255.8118,256.3121,,,,,,904,MAS,DIS,150,hijo,la,l,256.3121,256.3122,0.051901584,-0.388487413,0,0,0,,0,77,77,3,1,,,
,,,,,,d4eb462ad63464517b37b0cc,66a626ef09d4e21e1a8894ec,67371d766c6050f8e53e81f8,2024-11-15_11h07.57.818,Tarea de género gramatical,2024.2.2,MacIntel,60.24096386,,,,,,,,,,,,,,,,,,,,,,256.3132,257.5783,l,1,0.5849,,[],[],[],[],[],[],[],0.5849,1,257.5784,258.0797,,,,,,959,MAS,AGR,150,lobo,el,l,258.0818,258.0831,0.051901584,-0.388487413,0,0,0,,0,78,78,58,1,,,
,,,,,,d4eb462ad63464517b37b0cc,66a626ef09d4e21e1a8894ec,67371d766c6050f8e53e81f8,2024-11-15_11h07.57.818,Tarea de género gramatical,2024.2.2,MacIntel,60.24096386,,,,,,,,,,,,,,,,,,,,,,258.084,259.1949,a,1,0.4338,,[],[],[],[],[],[],[],0.4338,1,259.195,259.6949,,,,,,1214,FEM,AGR,150,señora,la,a,259.6949,259.695,0.051901584,-0.388487413,0,0,0,,0,79,79,313,1,,,
,,,,,,d4eb462ad63464517b37b0cc,66a626ef09d4e21e1a8894ec,67371d766c6050f8e53e81f8,2024-11-15_11h07.57.818,Tarea de género gramatical,2024.2.2,MacIntel,60.24096386,,,,,,,,,,,,,,,,,,,,,,259.6958,260.6951,l,1,0.3265,,[],[],[],[],[],[],[],0.3265,1,260.6953,261.1957,,,,,,936,MAS,CON,150,dedo,,l,261.1959,261.1962,0.051901584,-0.388487413,0,0,0,,0,80,80,35,1,,,
,,,,,,d4eb462ad63464517b37b0cc,66a626ef09d4e21e1a8894ec,67371d766c6050f8e53e81f8,2024-11-15_11h07.57.818,Tarea de género gramatical,2024.2.2,MacIntel,60.24096386,,,,,,,,,,,,,,,,,,,,,,261.1993,262.2449,l,0,0.3777,,[],[],[],[],[],[],[],0.3777,0,262.2458,262.7454,,,,,,1053,FEM,CON,150,mujer,,a,262.7456,262.7458,0.051901584,-0.388487413,0,0,0,,0,81,81,152,1,,,
,,,,,,d4eb462ad63464517b37b0cc,66a626ef09d4e21e1a8894ec,67371d766c6050f8e53e81f8,2024-11-15_11h07.57.818,Tarea de género gramatical,2024.2.2,MacIntel,60.24096386,,,,,,,,,,,,,,,,,,,,,,262.7482,264.0117,l,1,0.5814,,[],[],[],[],[],[],[],0.5814,1,264.0126,264.512,,,,,,1020,MAS,CON,150,puño,,l,264.5122,264.5123,0.051901584,-0.388487413,0,0,0,,0,82,82,119,1,,,
,,,,,,d4eb462ad63464517b37b0cc,66a626ef09d4e21e1a8894ec,67371d766c6050f8e53e81f8,2024-11-15_11h07.57.818,Tarea de género gramatical,2024.2.2,MacIntel,60.24096386,,,,,,,,,,,,,,,,,,,,,,264.5151,265.5787,a,1,0.3897,,[],[],[],[],[],[],[],0.3897,1,265.5789,266.0782,,,,,,1069,FEM,DIS,150,vista,el,a,266.079,266.0796,0.051901584,-0.388487413,0,0,0,,0,83,83,168,1,,,
,,,,,,d4eb462ad63464517b37b0cc,66a626ef09d4e21e1a8894ec,67371d766c6050f8e53e81f8,2024-11-15_11h07.57.818,Tarea de género gramatical,2024.2.2,MacIntel,60.24096386,,,,,,,,,,,,,,,,,,,,,,266.0801,267.1616,l,1,0.4029,,[],[],[],[],[],[],[],0.4029,1,267.1617,267.6611,,,,,,1120,MAS,DIS,150,huevo,la,l,267.6613,267.6615,0.051901584,-0.388487413,0,0,0,,0,84,84,219,1,,,
,,,,,,d4eb462ad63464517b37b0cc,66a626ef09d4e21e1a8894ec,67371d766c6050f8e53e81f8,2024-11-15_11h07.57.818,Tarea de género gramatical,2024.2.2,MacIntel,60.24096386,,,,,,,,,,,,,,,,,,,,,,267.6636,268.8284,a,1,0.4816,,[],[],[],[],[],[],[],0.4816,1,268.8285,269.3284,,,,,,1335,FEM,CON,150,niebla,,a,269.3286,269.3288,0.051901584,-0.388487413,0,0,0,,0,85,85,434,1,,,
,,,,,,d4eb462ad63464517b37b0cc,66a626ef09d4e21e1a8894ec,67371d766c6050f8e53e81f8,2024-11-15_11h07.57.818,Tarea de género gramatical,2024.2.2,MacIntel,60.24096386,,,,,,,,,,,,,,,,,,,,,,269.3314,270.445,a,1,0.4352,,[],[],[],[],[],[],[],0.4352,1,270.4451,270.9446,,,,,,1155,FEM,CON,150,tribu,,a,270.9448,270.945,0.051901584,-0.388487413,0,0,0,,0,86,86,254,1,,,
,,,,,,d4eb462ad63464517b37b0cc,66a626ef09d4e21e1a8894ec,67371d766c6050f8e53e81f8,2024-11-15_11h07.57.818,Tarea de género gramatical,2024.2.2,MacIntel,60.24096386,,,,,,,,,,,,,,,,,,,,,,270.9471,272.0788,l,1,0.4593,,[],[],[],[],[],[],[],0.4593,1,272.079,272.578,,,,,,1187,MAS,AGR,150,plato,el,l,272.5791,272.5796,0.051901584,-0.388487413,0,0,0,,0,87,87,286,1,,,
,,,,,,d4eb462ad63464517b37b0cc,66a626ef09d4e21e1a8894ec,67371d766c6050f8e53e81f8,2024-11-15_11h07.57.818,Tarea de género gramatical,2024.2.2,MacIntel,60.24096386,,,,,,,,,,,,,,,,,,,,,,272.5803,273.7454,l,1,0.4892,,[],[],[],[],[],[],[],0.4892,1,273.7456,274.2445,,,,,,1217,MAS,AGR,150,número,el,l,274.2447,274.245,0.051901584,-0.388487413,0,0,0,,0,88,88,316,1,,,
,,,,,,d4eb462ad63464517b37b0cc,66a626ef09d4e21e1a8894ec,67371d766c6050f8e53e81f8,2024-11-15_11h07.57.818,Tarea de género gramatical,2024.2.2,MacIntel,60.24096386,,,,,,,,,,,,,,,,,,,,,,274.2471,275.5445,a,1,0.618,,[],[],[],[],[],[],[],0.618,1,275.545,276.0456,,,,,,1285,FEM,DIS,150,muñeca,el,a,276.0457,276.0459,0.051901584,-0.388487413,0,0,0,,0,89,89,384,1,,,
,,,,,,d4eb462ad63464517b37b0cc,66a626ef09d4e21e1a8894ec,67371d766c6050f8e53e81f8,2024-11-15_11h07.57.818,Tarea de género gramatical,2024.2.2,MacIntel,60.24096386,,,,,,,,,,,,,,,,,,,,,,276.0482,277.1774,l,1,0.4514,,[],[],[],[],[],[],[],0.4514,1,277.1775,277.678,,,,,,1115,MAS,AGR,150,hueso,el,l,277.6782,277.6785,0.051901584,-0.388487413,0,0,0,,0,90,90,214,1,,,
,,,,,,d4eb462ad63464517b37b0cc,66a626ef09d4e21e1a8894ec,67371d766c6050f8e53e81f8,2024-11-15_11h07.57.818,Tarea de género gramatical,2024.2.2,MacIntel,60.24096386,,,,,,,,,,,,,,,,,,,,,,277.6805,278.8616,l,1,0.5,,[],[],[],[],[],[],[],0.5,1,278.8618,279.3621,,,,,,1152,MAS,CON,150,viejo,,l,279.3623,279.3626,0.051901584,-0.388487413,0,0,0,,0,91,91,251,1,,,
,,,,,,d4eb462ad63464517b37b0cc,66a626ef09d4e21e1a8894ec,67371d766c6050f8e53e81f8,2024-11-15_11h07.57.818,Tarea de género gramatical,2024.2.2,MacIntel,60.24096386,,,,,,,,,,,,,,,,,,,,,,279.3654,280.5284,l,1,0.4836,,[],[],[],[],[],[],[],0.4836,1,280.5285,281.0291,,,,,,1061,MAS,AGR,150,chico,el,l,281.0316,281.033,0.051901584,-0.388487413,0,0,0,,0,92,92,160,1,,,
,,,,,,d4eb462ad63464517b37b0cc,66a626ef09d4e21e1a8894ec,67371d766c6050f8e53e81f8,2024-11-15_11h07.57.818,Tarea de género gramatical,2024.2.2,MacIntel,60.24096386,,,,,,,,,,,,,,,,,,,,,,281.0342,281.9793,l,1,0.2763,,[],[],[],[],[],[],[],0.2763,1,281.9797,282.4782,,,,,,1247,MAS,AGR,150,cuello,el,l,282.4783,282.4784,0.051901584,-0.388487413,0,0,0,,0,93,93,346,1,,,
,,,,,,d4eb462ad63464517b37b0cc,66a626ef09d4e21e1a8894ec,67371d766c6050f8e53e81f8,2024-11-15_11h07.57.818,Tarea de género gramatical,2024.2.2,MacIntel,60.24096386,,,,,,,,,,,,,,,,,,,,,,282.4794,283.4117,l,0,0.2514,,[],[],[],[],[],[],[],0.2514,0,283.4135,283.9114,,,,,,1147,FEM,DIS,150,frase,el,a,283.9117,283.9118,0.051901584,-0.388487413,0,0,0,,0,94,94,246,1,,,
,,,,,,d4eb462ad63464517b37b0cc,66a626ef09d4e21e1a8894ec,67371d766c6050f8e53e81f8,2024-11-15_11h07.57.818,Tarea de género gramatical,2024.2.2,MacIntel,60.24096386,,,,,,,,,,,,,,,,,,,,,,283.9156,285.2458,l,1,0.6568,,[],[],[],[],[],[],[],0.6568,1,285.2472,285.7449,,,,,,1031,MAS,AGR,150,kilo,el,l,285.7449,285.745,0.051901584,-0.388487413,0,0,0,,0,95,95,130,1,,,
,,,,,,d4eb462ad63464517b37b0cc,66a626ef09d4e21e1a8894ec,67371d766c6050f8e53e81f8,2024-11-15_11h07.57.818,Tarea de género gramatical,2024.2.2,MacIntel,60.24096386,,,,,,,,,,,,,,,,,,,,,,285.746,286.7283,a,0,0.3076,,[],[],[],[],[],[],[],0.3076,0,286.7294,287.2289,,,,,,1109,MAS,AGR,150,banco,el,l,287.2317,287.2325,0.051901584,-0.388487413,0,0,0,,0,96,96,208,1,,,
,,,,,,d4eb462ad63464517b37b0cc,66a626ef09d4e21e1a8894ec,67371d766c6050f8e53e81f8,2024-11-15_11h07.57.818,Tarea de género gramatical,2024.2.2,MacIntel,60.24096386,,,,,,,,,,,,,,,,,,,,,,287.2332,288.4283,a,1,0.5179,,[],[],[],[],[],[],[],0.5179,1,288.429,288.9287,,,,,,1267,FEM,DIS,150,teoría,el,a,288.9289,288.929,0.051901584,-0.388487413,0,0,0,,0,97,97,366,1,,,
,,,,,,d4eb462ad63464517b37b0cc,66a626ef09d4e21e1a8894ec,67371d766c6050f8e53e81f8,2024-11-15_11h07.57.818,Tarea de género gramatical,2024.2.2,MacIntel,60.24096386,,,,,,,,,,,,,,,,,,,,,,288.9323,290.1117,a,0,0.5109,,[],[],[],[],[],[],[],0.5109,0,290.1124,290.6114,,,,,,983,MAS,AGR,150,nene,el,l,290.6115,290.6116,0.051901584,-0.388487413,0,0,0,,0,98,98,82,1,,,
,,,,,,d4eb462ad63464517b37b0cc,66a626ef09d4e21e1a8894ec,67371d766c6050f8e53e81f8,2024-11-15_11h07.57.818,Tarea de género gramatical,2024.2.2,MacIntel,60.24096386,,,,,,,,,,,,,,,,,,,,,,290.6127,291.9449,l,1,0.6732,,[],[],[],[],[],[],[],0.6732,1,291.9458,292.4454,,,,,,923,MAS,AGR,150,rato,el,l,292.4455,292.4457,0.051901584,-0.388487413,0,0,0,,0,99,99,22,1,,,
,,,,,,d4eb462ad63464517b37b0cc,66a626ef09d4e21e1a8894ec,67371d766c6050f8e53e81f8,2024-11-15_11h07.57.818,Tarea de género gramatical,2024.2.2,MacIntel,60.24096386,,,,,,,,,,,,,,,,,,,,,,292.448,293.7289,l,1,0.608,,[],[],[],[],[],[],[],0.608,1,293.7291,294.229,,,,,,1060,MAS,DIS,150,señor,la,l,294.2291,294.2293,0.051901584,-0.388487413,0,0,0,,0,100,100,159,1,,,
,,,,,,d4eb462ad63464517b37b0cc,66a626ef09d4e21e1a8894ec,67371d766c6050f8e53e81f8,2024-11-15_11h07.57.818,Tarea de género gramatical,2024.2.2,MacIntel,60.24096386,,,,,,,,,,,,,,,,,,,,,,294.2318,295.6283,l,1,0.7203,,[],[],[],[],[],[],[],0.7203,1,295.6285,296.1285,,,,,,1205,MAS,AGR,150,hombre,el,l,296.1312,296.1326,0.051901584,-0.388487413,0,0,0,,0,101,101,304,1,,,
,,,,,,d4eb462ad63464517b37b0cc,66a626ef09d4e21e1a8894ec,67371d766c6050f8e53e81f8,2024-11-15_11h07.57.818,Tarea de género gramatical,2024.2.2,MacIntel,60.24096386,,,,,,,,,,,,,,,,,,,,,,296.1333,297.195,l,0,0.3845,,[],[],[],[],[],[],[],0.3845,0,297.1958,297.696,,,,,,1341,FEM,CON,150,medida,,a,297.6962,297.6964,0.051901584,-0.388487413,0,0,0,,0,102,102,440,1,,,
,,,,,,d4eb462ad63464517b37b0cc,66a626ef09d4e21e1a8894ec,67371d766c6050f8e53e81f8,2024-11-15_11h07.57.818,Tarea de género gramatical,2024.2.2,MacIntel,60.24096386,,,,,,,,,,,,,,,,,,,,,,297.6991,298.6951,a,0,0.3257,,[],[],[],[],[],[],[],0.3257,0,298.6952,299.1957,,,,,,1332,MAS,CON,150,océano,,l,299.1958,299.196,0.051901584,-0.388487413,0,0,0,,0,103,103,431,1,,,
,,,,,,d4eb462ad63464517b37b0cc,66a626ef09d4e21e1a8894ec,67371d766c6050f8e53e81f8,2024-11-15_11h07.57.818,Tarea de género gramatical,2024.2.2,MacIntel,60.24096386,,,,,,,,,,,,,,,,,,,,,,299.1981,300.4119,l,1,0.5417,,[],[],[],[],[],[],[],0.5417,1,300.4128,300.9125,,,,,,1241,MAS,AGR,150,precio,el,l,300.9126,300.9128,0.051901584,-0.388487413,0,0,0,,0,104,104,340,1,,,
,,,,,,d4eb462ad63464517b37b0cc,66a626ef09d4e21e1a8894ec,67371d766c6050f8e53e81f8,2024-11-15_11h07.57.818,Tarea de género gramatical,2024.2.2,MacIntel,60.24096386,,,,,,,,,,,,,,,,,,,,,,300.9153,302.0286,a,1,0.4416,,[],[],[],[],[],[],[],0.4416,1,302.0288,302.5288,,,,,,1100,FEM,AGR,150,silla,la,a,302.5307,302.5323,0.051901584,-0.388487413,0,0,0,,0,105,105,199,1,,,
,,,,,,d4eb462ad63464517b37b0cc,66a626ef09d4e21e1a8894ec,67371d766c6050f8e53e81f8,2024-11-15_11h07.57.818,Tarea de género gramatical,2024.2.2,MacIntel,60.24096386,,,,,,,,,,,,,,,,,,,,,,302.5332,304.1951,l,1,0.9918,,[],[],[],[],[],[],[],0.9918,1,304.1953,304.695,,,,,,1156,MAS,DIS,150,techo,la,l,304.6954,304.6957,0.051901584,-0.388487413,0,0,0,,0,106,106,255,1,,,
,,,,,,d4eb462ad63464517b37b0cc,66a626ef09d4e21e1a8894ec,67371d766c6050f8e53e81f8,2024-11-15_11h07.57.818,Tarea de género gramatical,2024.2.2,MacIntel,60.24096386,,,,,,,,,,,,,,,,,,,,,,304.698,305.8122,l,1,0.4417,,[],[],[],[],[],[],[],0.4417,1,305.8124,306.3127,,,,,,1018,MAS,DIS,150,baúl,la,l,306.3129,306.3131,0.051901584,-0.388487413,0,0,0,,0,107,107,117,1,,,
,,,,,,d4eb462ad63464517b37b0cc,66a626ef09d4e21e1a8894ec,67371d766c6050f8e53e81f8,2024-11-15_11h07.57.818,Tarea de género gramatical,2024.2.2,MacIntel,60.24096386,,,,,,,,,,,,,,,,,,,,,,306.3157,307.4616,a,1,0.4679,,[],[],[],[],[],[],[],0.4679,1,307.4617,307.962,,,,,,1017,FEM,CON,150,raya,,a,307.9621,307.9623,0.051901584,-0.388487413,0,0,0,,0,108,108,116,1,,,
,,,,,,d4eb462ad63464517b37b0cc,66a626ef09d4e21e1a8894ec,67371d766c6050f8e53e81f8,2024-11-15_11h07.57.818,Tarea de género gramatical,2024.2.2,MacIntel,60.24096386,,,,,,,,,,,,,,,,,,,,,,307.9647,309.0289,a,1,0.3901,,[],[],[],[],[],[],[],0.3901,1,309.0292,309.5283,,,,,,961,FEM,DIS,150,ruta,el,a,309.5284,309.5285,0.051901584,-0.388487413,0,0,0,,0,109,109,60,1,,,
,,,,,,d4eb462ad63464517b37b0cc,66a626ef09d4e21e1a8894ec,67371d766c6050f8e53e81f8,2024-11-15_11h07.57.818,Tarea de género gramatical,2024.2.2,MacIntel,60.24096386,,,,,,,,,,,,,,,,,,,,,,309.5293,310.5617,l,1,0.3519,,[],[],[],[],[],[],[],0.3519,1,310.5617,311.0618,,,,,,1140,MAS,CON,150,ruido,,l,311.0627,311.0632,0.051901584,-0.388487413,0,0,0,,0,110,110,239,1,,,
,,,,,,d4eb462ad63464517b37b0cc,66a626ef09d4e21e1a8894ec,67371d766c6050f8e53e81f8,2024-11-15_11h07.57.818,Tarea de género gramatical,2024.2.2,MacIntel,60.24096386,,,,,,,,,,,,,,,,,,,,,,311.0637,312.2781,l,1,0.5362,,[],[],[],[],[],[],[],0.5362,1,312.2782,312.7781,,,,,,1290,MAS,CON,150,rostro,,l,312.7783,312.7785,0.051901584,-0.388487413,0,0,0,,0,111,111,389,1,,,
,,,,,,d4eb462ad63464517b37b0cc,66a626ef09d4e21e1a8894ec,67371d766c6050f8e53e81f8,2024-11-15_11h07.57.818,Tarea de género gramatical,2024.2.2,MacIntel,60.24096386,,,,,,,,,,,,,,,,,,,,,,312.7814,313.8626,a,1,0.4109,,[],[],[],[],[],[],[],0.4109,1,313.8629,314.3622,,,,,,949,FEM,DIS,150,piel,el,a,314.3624,314.3626,0.051901584,-0.388487413,0,0,0,,0,112,112,48,1,,,
,,,,,,d4eb462ad63464517b37b0cc,66a626ef09d4e21e1a8894ec,67371d766c6050f8e53e81f8,2024-11-15_11h07.57.818,Tarea de género gramatical,2024.2.2,MacIntel,60.24096386,,,,,,,,,,,,,,,,,,,,,,314.3651,315.5455,l,0,0.5055,,[],[],[],[],[],[],[],0.5055,0,315.5478,316.0455,,,,,,1010,FEM,AGR,150,rosa,la,a,316.0456,316.0458,0.051901584,-0.388487413,0,0,0,,0,113,113,109,1,,,
,,,,,,d4eb462ad63464517b37b0cc,66a626ef09d4e21e1a8894ec,67371d766c6050f8e53e81f8,2024-11-15_11h07.57.818,Tarea de género gramatical,2024.2.2,MacIntel,60.24096386,,,,,,,,,,,,,,,,,,,,,,316.0484,317.2943,l,1,0.5676,,[],[],[],[],[],[],[],0.5676,1,317.295,317.7955,,,,,,1349,MAS,AGR,150,payaso,el,l,317.7981,317.7994,0.051901584,-0.388487413,0,0,0,,0,114,114,448,1,,,
,,,,,,d4eb462ad63464517b37b0cc,66a626ef09d4e21e1a8894ec,67371d766c6050f8e53e81f8,2024-11-15_11h07.57.818,Tarea de género gramatical,2024.2.2,MacIntel,60.24096386,,,,,,,,,,,,,,,,,,,,,,317.8001,319.0148,l,0,0.5491,,[],[],[],[],[],[],[],0.5491,0,319.0156,319.5117,,,,,,955,FEM,DIS,150,taza,el,a,319.5117,319.5118,0.051901584,-0.388487413,0,0,0,,0,115,115,54,1,,,
,,,,,,d4eb462ad63464517b37b0cc,66a626ef09d4e21e1a8894ec,67371d766c6050f8e53e81f8,2024-11-15_11h07.57.818,Tarea de género gramatical,2024.2.2,MacIntel,60.24096386,,,,,,,,,,,,,,,,,,,,,,319.5123,320.8289,a,1,0.6404,,[],[],[],[],[],[],[],0.6404,1,320.8313,321.3285,,,,,,1309,FEM,DIS,150,moneda,el,a,321.3285,321.3286,0.051901584,-0.388487413,0,0,0,,0,116,116,408,1,,,
,,,,,,d4eb462ad63464517b37b0cc,66a626ef09d4e21e1a8894ec,67371d766c6050f8e53e81f8,2024-11-15_11h07.57.818,Tarea de género gramatical,2024.2.2,MacIntel,60.24096386,,,,,,,,,,,,,,,,,,,,,,321.3297,322.4786,l,1,0.4772,,[],[],[],[],[],[],[],0.4772,1,322.4789,322.9782,,,,,,1259,MAS,AGR,150,bosque,el,l,322.9782,322.9783,0.051901584,-0.388487413,0,0,0,,0,117,117,358,1,,,
,,,,,,d4eb462ad63464517b37b0cc,66a626ef09d4e21e1a8894ec,67371d766c6050f8e53e81f8,2024-11-15_11h07.57.818,Tarea de género gramatical,2024.2.2,MacIntel,60.24096386,,,,,,,,,,,,,,,,,,,,,,322.979,324.1118,a,1,0.4509,,[],[],[],[],[],[],[],0.4509,1,324.1119,324.6118,,,,,,938,FEM,AGR,150,obra,la,a,324.6119,324.612,0.051901584,-0.388487413,0,0,0,,0,118,118,37,1,,,
,,,,,,d4eb462ad63464517b37b0cc,66a626ef09d4e21e1a8894ec,67371d766c6050f8e53e81f8,2024-11-15_11h07.57.818,Tarea de género gramatical,2024.2.2,MacIntel,60.24096386,,,,,,,,,,,,,,,,,,,,,,324.6129,325.7947,l,1,0.5076,,[],[],[],[],[],[],[],0.5076,1,325.7948,326.2958,,,,,,1122,MAS,CON,150,valor,,l,326.2983,326.2994,0.051901584,-0.388487413,0,0,0,,0,119,119,221,1,,,
,,,,,,d4eb462ad63464517b37b0cc,66a626ef09d4e21e1a8894ec,67371d766c6050f8e53e81f8,2024-11-15_11h07.57.818,Tarea de género gramatical,2024.2.2,MacIntel,60.24096386,,,,,,,,,,,,,,,,,,,,,,326.2999,327.2618,a,0,0.288,,[],[],[],[],[],[],[],0.288,0,327.2627,327.7622,,,,,,1157,MAS,AGR,150,pecho,el,l,327.7624,327.7627,0.051901584,-0.388487413,0,0,0,,0,120,120,256,1,,,
,,,,,,d4eb462ad63464517b37b0cc,66a626ef09d4e21e1a8894ec,67371d766c6050f8e53e81f8,2024-11-15_11h07.57.818,Tarea de género gramatical,2024.2.2,MacIntel,60.24096386,,,,,,,,,,,,,,,,,,,,,,327.7651,328.8785,a,1,0.4364,,[],[],[],[],[],[],[],0.4364,1,328.8792,329.3787,,,,,,1197,FEM,CON,150,manta,,a,329.3789,329.3791,0.051901584,-0.388487413,0,0,0,,0,121,121,296,1,,,
,,,,,,d4eb462ad63464517b37b0cc,66a626ef09d4e21e1a8894ec,67371d766c6050f8e53e81f8,2024-11-15_11h07.57.818,Tarea de género gramatical,2024.2.2,MacIntel,60.24096386,,,,,,,,,,,,,,,,,,,,,,329.3813,330.4785,a,1,0.4237,,[],[],[],[],[],[],[],0.4237,1,330.4786,330.979,,,,,,1185,FEM,CON,150,mafia,,a,330.9791,330.9793,0.051901584,-0.388487413,0,0,0,,0,122,122,284,1,,,
,,,,,,d4eb462ad63464517b37b0cc,66a626ef09d4e21e1a8894ec,67371d766c6050f8e53e81f8,2024-11-15_11h07.57.818,Tarea de género gramatical,2024.2.2,MacIntel,60.24096386,,,,,,,,,,,,,,,,,,,,,,330.9817,332.145,a,1,0.4802,,[],[],[],[],[],[],[],0.4802,1,332.1451,332.6449,,,,,,1011,FEM,CON,150,goma,,a,332.6463,332.6472,0.051901584,-0.388487413,0,0,0,,0,123,123,110,1,,,
,,,,,,d4eb462ad63464517b37b0cc,66a626ef09d4e21e1a8894ec,67371d766c6050f8e53e81f8,2024-11-15_11h07.57.818,Tarea de género gramatical,2024.2.2,MacIntel,60.24096386,,,,,,,,,,,,,,,,,,,,,,332.6478,333.6952,a,1,0.379,,[],[],[],[],[],[],[],0.379,1,333.6953,334.1956,,,,,,1304,FEM,AGR,150,gloria,la,a,334.1957,334.1967,0.051901584,-0.388487413,0,0,0,,0,124,124,403,1,,,
,,,,,,d4eb462ad63464517b37b0cc,66a626ef09d4e21e1a8894ec,67371d766c6050f8e53e81f8,2024-11-15_11h07.57.818,Tarea de género gramatical,2024.2.2,MacIntel,60.24096386,,,,,,,,,,,,,,,,,,,,,,334.199,335.2955,a,1,0.4179,,[],[],[],[],[],[],[],0.4179,1,335.2957,335.7955,,,,,,1167,FEM,CON,150,barba,,a,335.7958,335.7959,0.051901584,-0.388487413,0,0,0,,0,125,125,266,1,,,
,,,,,,d4eb462ad63464517b37b0cc,66a626ef09d4e21e1a8894ec,67371d766c6050f8e53e81f8,2024-11-15_11h07.57.818,Tarea de género gramatical,2024.2.2,MacIntel,60.24096386,,,,,,,,,,,,,,,,,,,,,,335.7993,336.9783,a,1,0.5033,,[],[],[],[],[],[],[],0.5033,1,336.9784,337.4786,,,,,,1269,FEM,CON,150,camisa,,a,337.4787,337.4789,0.051901584,-0.388487413,0,0,0,,0,126,126,368,1,,,
,,,,,,d4eb462ad63464517b37b0cc,66a626ef09d4e21e1a8894ec,67371d766c6050f8e53e81f8,2024-11-15_11h07.57.818,Tarea de género gramatical,2024.2.2,MacIntel,60.24096386,,,,,,,,,,,,,,,,,,,,,,337.4808,338.4618,l,1,0.3052,,[],[],[],[],[],[],[],0.3052,1,338.462,338.9623,,,,,,1044,MAS,CON,150,amor,,l,338.9625,338.9627,0.051901584,-0.388487413,0,0,0,,0,127,127,143,1,,,
,,,,,,d4eb462ad63464517b37b0cc,66a626ef09d4e21e1a8894ec,67371d766c6050f8e53e81f8,2024-11-15_11h07.57.818,Tarea de género gramatical,2024.2.2,MacIntel,60.24096386,,,,,,,,,,,,,,,,,,,,,,338.9661,340.0288,a,0,0.3929,,[],[],[],[],[],[],[],0.3929,0,340.0301,340.5283,,,,,,1121,MAS,AGR,150,brazo,el,l,340.5293,340.5299,0.051901584,-0.388487413,0,0,0,,0,128,128,220,1,,,
,,,,,,d4eb462ad63464517b37b0cc,66a626ef09d4e21e1a8894ec,67371d766c6050f8e53e81f8,2024-11-15_11h07.57.818,Tarea de género gramatical,2024.2.2,MacIntel,60.24096386,,,,,,,,,,,,,,,,,,,,,,340.5313,341.7626,l,1,0.559,,[],[],[],[],[],[],[],0.559,1,341.7638,342.2618,,,,,,912,MAS,CON,150,plan,,l,342.2619,342.2619,0.051901584,-0.388487413,0,0,0,,0,129,129,11,1,,,
,,,,,,d4eb462ad63464517b37b0cc,66a626ef09d4e21e1a8894ec,67371d766c6050f8e53e81f8,2024-11-15_11h07.57.818,Tarea de género gramatical,2024.2.2,MacIntel,60.24096386,,,,,,,,,,,,,,,,,,,,,,342.2629,343.3951,a,1,0.452,,[],[],[],[],[],[],[],0.452,1,343.3952,343.8958,,,,,,1256,FEM,AGR,150,piedra,la,a,343.8959,343.8961,0.051901584,-0.388487413,0,0,0,,0,130,130,355,1,,,
,,,,,,d4eb462ad63464517b37b0cc,66a626ef09d4e21e1a8894ec,67371d766c6050f8e53e81f8,2024-11-15_11h07.57.818,Tarea de género gramatical,2024.2.2,MacIntel,60.24096386,,,,,,,,,,,,,,,,,,,,,,343.8987,345.1952,l,1,0.62,,[],[],[],[],[],[],[],0.62,1,345.1952,345.6955,,,,,,1289,MAS,AGR,150,tamaño,el,l,345.6957,345.6959,0.051901584,-0.388487413,0,0,0,,0,131,131,388,1,,,
,,,,,,d4eb462ad63464517b37b0cc,66a626ef09d4e21e1a8894ec,67371d766c6050f8e53e81f8,2024-11-15_11h07.57.818,Tarea de género gramatical,2024.2.2,MacIntel,60.24096386,,,,,,,,,,,,,,,,,,,,,,345.6987,346.6785,a,1,0.301,,[],[],[],[],[],[],[],0.301,1,346.6786,347.1791,,,,,,926,FEM,AGR,150,pena,la,a,347.1827,347.1833,0.051901584,-0.388487413,0,0,0,,0,132,132,25,1,,,
,,,,,,d4eb462ad63464517b37b0cc,66a626ef09d4e21e1a8894ec,67371d766c6050f8e53e81f8,2024-11-15_11h07.57.818,Tarea de género gramatical,2024.2.2,MacIntel,60.24096386,,,,,,,,,,,,,,,,,,,,,,347.1838,348.1785,l,0,0.3224,,[],[],[],[],[],[],[],0.3224,0,348.1794,348.6787,,,,,,1273,FEM,DIS,150,lluvia,el,a,348.6789,348.6791,0.051901584,-0.388487413,0,0,0,,0,133,133,372,1,,,
,,,,,,d4eb462ad63464517b37b0cc,66a626ef09d4e21e1a8894ec,67371d766c6050f8e53e81f8,2024-11-15_11h07.57.818,Tarea de género gramatical,2024.2.2,MacIntel,60.24096386,,,,,,,,,,,,,,,,,,,,,,348.6825,349.762,a,0,0.4091,,[],[],[],[],[],[],[],0.4091,0,349.7621,350.2626,,,,,,1150,MAS,DIS,150,cerdo,la,l,350.2628,350.263,0.051901584,-0.388487413,0,0,0,,0,134,134,249,1,,,
,,,,,,d4eb462ad63464517b37b0cc,66a626ef09d4e21e1a8894ec,67371d766c6050f8e53e81f8,2024-11-15_11h07.57.818,Tarea de género gramatical,2024.2.2,MacIntel,60.24096386,,,,,,,,,,,,,,,,,,,,,,350.2655,351.329,a,1,0.3902,,[],[],[],[],[],[],[],0.3902,1,351.3321,351.829,,,,,,1280,FEM,AGR,150,madera,la,a,351.8291,351.8294,0.051901584,-0.388487413,0,0,0,,0,135,135,379,1,,,
,,,,,,d4eb462ad63464517b37b0cc,66a626ef09d4e21e1a8894ec,67371d766c6050f8e53e81f8,2024-11-15_11h07.57.818,Tarea de género gramatical,2024.2.2,MacIntel,60.24096386,,,,,,,,,,,,,,,,,,,,,,351.8322,353.1789,a,0,0.6724,,[],[],[],[],[],[],[],0.6724,0,353.1813,353.6777,,,,,,1266,MAS,CON,150,riesgo,,l,353.6778,353.6779,0.051901584,-0.388487413,0,0,0,,0,136,136,365,1,,,
,,,,,,d4eb462ad63464517b37b0cc,66a626ef09d4e21e1a8894ec,67371d766c6050f8e53e81f8,2024-11-15_11h07.57.818,Tarea de género gramatical,2024.2.2,MacIntel,60.24096386,,,,,,,,,,,,,,,,,,,,,,353.6797,354.8618,a,1,0.5092,,[],[],[],[],[],[],[],0.5092,1,354.8625,355.3623,,,,,,1196,FEM,AGR,150,feria,la,a,355.3647,355.3661,0.051901584,-0.388487413,0,0,0,,0,137,137,295,1,,,
,,,,,,d4eb462ad63464517b37b0cc,66a626ef09d4e21e1a8894ec,67371d766c6050f8e53e81f8,2024-11-15_11h07.57.818,Tarea de género gramatical,2024.2.2,MacIntel,60.24096386,,,,,,,,,,,,,,,,,,,,,,355.3669,356.4786,l,0,0.4456,,[],[],[],[],[],[],[],0.4456,0,356.4795,356.9797,,,,,,1125,FEM,CON,150,pieza,,a,356.98,356.9802,0.051901584,-0.388487413,0,0,0,,0,138,138,224,1,,,
,,,,,,d4eb462ad63464517b37b0cc,66a626ef09d4e21e1a8894ec,67371d766c6050f8e53e81f8,2024-11-15_11h07.57.818,Tarea de género gramatical,2024.2.2,MacIntel,60.24096386,,,,,,,,,,,,,,,,,,,,,,356.9822,358.0615,a,1,0.4013,,[],[],[],[],[],[],[],0.4013,1,358.0624,358.562,,,,,,1171,FEM,DIS,150,viuda,el,a,358.5621,358.5622,0.051901584,-0.388487413,0,0,0,,0,139,139,270,1,,,
,,,,,,d4eb462ad63464517b37b0cc,66a626ef09d4e21e1a8894ec,67371d766c6050f8e53e81f8,2024-11-15_11h07.57.818,Tarea de género gramatical,2024.2.2,MacIntel,60.24096386,,,,,,,,,,,,,,,,,,,,,,358.5635,359.6963,a,1,0.4629,,[],[],[],[],[],[],[],0.4629,1,359.6964,360.1948,,,,,,981,FEM,CON,150,cima,,a,360.195,360.1951,0.051901584,-0.388487413,0,0,0,,0,140,140,80,1,,,
,,,,,,d4eb462ad63464517b37b0cc,66a626ef09d4e21e1a8894ec,67371d766c6050f8e53e81f8,2024-11-15_11h07.57.818,Tarea de género gramatical,2024.2.2,MacIntel,60.24096386,,,,,,,,,,,,,,,,,,,,,,360.1972,361.2625,a,1,0.3837,,[],[],[],[],[],[],[],0.3837,1,361.2627,361.7619,,,,,,1227,FEM,CON,150,tienda,,a,361.7641,361.7656,0.051901584,-0.388487413,0,0,0,,0,141,141,326,1,,,
,,,,,,d4eb462ad63464517b37b0cc,66a626ef09d4e21e1a8894ec,67371d766c6050f8e53e81f8,2024-11-15_11h07.57.818,Tarea de género gramatical,2024.2.2,MacIntel,60.24096386,,,,,,,,,,,,,,,,,,,,,,361.7666,362.7782,a,1,0.3406,,[],[],[],[],[],[],[],0.3406,1,362.7784,363.2786,,,,,,997,FEM,DIS,150,capa,el,a,363.2788,363.279,0.051901584,-0.388487413,0,0,0,,0,142,142,96,1,,,
,,,,,,d4eb462ad63464517b37b0cc,66a626ef09d4e21e1a8894ec,67371d766c6050f8e53e81f8,2024-11-15_11h07.57.818,Tarea de género gramatical,2024.2.2,MacIntel,60.24096386,,,,,,,,,,,,,,,,,,,,,,363.2813,364.6285,l,1,0.6699,,[],[],[],[],[],[],[],0.6699,1,364.6287,365.1288,,,,,,1294,MAS,DIS,150,examen,la,l,365.1289,365.1292,0.051901584,-0.388487413,0,0,0,,0,143,143,393,1,,,
,,,,,,d4eb462ad63464517b37b0cc,66a626ef09d4e21e1a8894ec,67371d766c6050f8e53e81f8,2024-11-15_11h07.57.818,Tarea de género gramatical,2024.2.2,MacIntel,60.24096386,,,,,,,,,,,,,,,,,,,,,,365.132,366.429,a,1,0.6179,,[],[],[],[],[],[],[],0.6179,1,366.4292,366.9285,,,,,,1082,FEM,AGR,150,prisa,la,a,366.9286,366.9287,0.051901584,-0.388487413,0,0,0,,0,144,144,181,1,,,
,,,,,,d4eb462ad63464517b37b0cc,66a626ef09d4e21e1a8894ec,67371d766c6050f8e53e81f8,2024-11-15_11h07.57.818,Tarea de género gramatical,2024.2.2,MacIntel,60.24096386,,,,,,,,,,,,,,,,,,,,,,366.9298,368.0448,a,1,0.4352,,[],[],[],[],[],[],[],0.4352,1,368.0449,368.5458,,,,,,1088,FEM,AGR,150,bomba,la,a,368.5459,368.5461,0.051901584,-0.388487413,0,0,0,,0,145,145,187,1,,,
,,,,,,d4eb462ad63464517b37b0cc,66a626ef09d4e21e1a8894ec,67371d766c6050f8e53e81f8,2024-11-15_11h07.57.818,Tarea de género gramatical,2024.2.2,MacIntel,60.24096386,,,,,,,,,,,,,,,,,,,,,,368.5485,369.7445,a,1,0.5169,,[],[],[],[],[],[],[],0.5169,1,369.7445,370.2458,,,,,,908,FEM,AGR,150,idea,la,a,370.2483,370.2495,0.051901584,-0.388487413,0,0,0,,0,146,146,7,1,,,
,,,,,,d4eb462ad63464517b37b0cc,66a626ef09d4e21e1a8894ec,67371d766c6050f8e53e81f8,2024-11-15_11h07.57.818,Tarea de género gramatical,2024.2.2,MacIntel,60.24096386,,,,,,,,,,,,,,,,,,,,,,370.2504,371.2802,a,1,0.3528,,[],[],[],[],[],[],[],0.3528,1,371.2805,371.7782,,,,,,1058,FEM,AGR,150,chica,la,a,371.7784,371.7785,0.051901584,-0.388487413,0,0,0,,0,147,147,157,1,,,
,,,,,,d4eb462ad63464517b37b0cc,66a626ef09d4e21e1a8894ec,67371d766c6050f8e53e81f8,2024-11-15_11h07.57.818,Tarea de género gramatical,2024.2.2,MacIntel,60.24096386,,,,,,,,,,,,,,,,,,,,,,371.782,372.8452,a,1,0.3854,,[],[],[],[],[],[],[],0.3854,1,372.8454,373.3457,,,,,,1004,FEM,AGR,150,vela,la,a,373.3459,373.346,0.051901584,-0.388487413,0,0,0,,0,148,148,103,1,,,
,,,,,,d4eb462ad63464517b37b0cc,66a626ef09d4e21e1a8894ec,67371d766c6050f8e53e81f8,2024-11-15_11h07.57.818,Tarea de género gramatical,2024.2.2,MacIntel,60.24096386,,,,,,,,,,,,,,,,,,,,,,373.3482,374.4785,l,1,0.4585,,[],[],[],[],[],[],[],0.4585,1,374.4787,374.9792,,,,,,1024,MAS,DIS,150,clan,la,l,374.9794,374.9797,0.051901584,-0.388487413,0,0,0,,0,149,149,123,1,,,
,,,,,,d4eb462ad63464517b37b0cc,66a626ef09d4e21e1a8894ec,67371d766c6050f8e53e81f8,2024-11-15_11h07.57.818,Tarea de género gramatical,2024.2.2,MacIntel,60.24096386,,,,,,,,,,,,,,,,,,,,,,374.9825,376.1452,l,1,0.4905,,[],[],[],[],[],[],[],0.4905,1,376.1454,376.6458,,,,,,1272,MAS,CON,150,delito,,l,376.6482,437.829,-0.069495985,-0.431722005,1,0,0,,0,150,150,371,1,break_done_button,,
,,,,,,d4eb462ad63464517b37b0cc,66a626ef09d4e21e1a8894ec,67371d766c6050f8e53e81f8,2024-11-15_11h07.57.818,Tarea de género gramatical,2024.2.2,MacIntel,60.24096386,,,,,,,,,,,,,,,,,,,,,,437.8303,440.4788,,0,,,[],[],[],[],[],[],[],0.4905,-1,440.4807,440.9785,,,,,,1116,MAS,CON,150,éxito,,l,440.9786,440.9786,-0.069495985,-0.431722005,0,0,0,,0,151,151,215,1,,,
,,,,,,d4eb462ad63464517b37b0cc,66a626ef09d4e21e1a8894ec,67371d766c6050f8e53e81f8,2024-11-15_11h07.57.818,Tarea de género gramatical,2024.2.2,MacIntel,60.24096386,,,,,,,,,,,,,,,,,,,,,,440.979,443.6285,,0,,,[],[],[],[],[],[],[],0.4905,-1,443.6286,444.1281,,,,,,1286,FEM,AGR,150,sombra,la,a,444.1281,444.1282,-0.069495985,-0.431722005,0,0,0,,0,152,152,385,1,,,
,,,,,,d4eb462ad63464517b37b0cc,66a626ef09d4e21e1a8894ec,67371d766c6050f8e53e81f8,2024-11-15_11h07.57.818,Tarea de género gramatical,2024.2.2,MacIntel,60.24096386,,,,,,,,,,,,,,,,,,,,,,444.1288,446.3284,a,1,1.5355,,[],[],[],[],[],[],[],1.5355,1,446.3288,446.8285,,,,,,1106,FEM,AGR,150,época,la,a,446.8286,446.8287,-0.069495985,-0.431722005,0,0,0,,0,153,153,205,1,,,
,,,,,,d4eb462ad63464517b37b0cc,66a626ef09d4e21e1a8894ec,67371d766c6050f8e53e81f8,2024-11-15_11h07.57.818,Tarea de género gramatical,2024.2.2,MacIntel,60.24096386,,,,,,,,,,,,,,,,,,,,,,446.8293,447.6445,a,0,0.1432,,[],[],[],[],[],[],[],0.1432,0,447.6456,448.1446,,,,,,1042,MAS,DIS,150,lodo,la,l,448.1446,448.1448,-0.069495985,-0.431722005,0,0,0,,0,154,154,141,1,,,
,,,,,,d4eb462ad63464517b37b0cc,66a626ef09d4e21e1a8894ec,67371d766c6050f8e53e81f8,2024-11-15_11h07.57.818,Tarea de género gramatical,2024.2.2,MacIntel,60.24096386,,,,,,,,,,,,,,,,,,,,,,448.1457,449.2118,a,0,0.3845,,[],[],[],[],[],[],[],0.3845,0,449.2118,449.7121,,,,,,1229,MAS,AGR,150,futuro,el,l,449.7135,449.7145,-0.069495985,-0.431722005,0,0,0,,0,155,155,328,1,,,
,,,,,,d4eb462ad63464517b37b0cc,66a626ef09d4e21e1a8894ec,67371d766c6050f8e53e81f8,2024-11-15_11h07.57.818,Tarea de género gramatical,2024.2.2,MacIntel,60.24096386,,,,,,,,,,,,,,,,,,,,,,449.7151,452.3621,,0,,,[],[],[],[],[],[],[],0.3845,-1,452.3637,452.862,,,,,,1168,MAS,DIS,150,truco,la,l,452.862,452.8622,-0.069495985,-0.431722005,0,0,0,,0,156,156,267,1,,,
,,,,,,d4eb462ad63464517b37b0cc,66a626ef09d4e21e1a8894ec,67371d766c6050f8e53e81f8,2024-11-15_11h07.57.818,Tarea de género gramatical,2024.2.2,MacIntel,60.24096386,,,,,,,,,,,,,,,,,,,,,,452.8635,454.1955,a,1,0.6601,,[],[],[],[],[],[],[],0.6601,1,454.1962,454.6953,,,,,,1237,FEM,DIS,150,escena,el,a,454.6954,454.6955,-0.069495985,-0.431722005,0,0,0,,0,157,157,336,1,,,
,,,,,,d4eb462ad63464517b37b0cc,66a626ef09d4e21e1a8894ec,67371d766c6050f8e53e81f8,2024-11-15_11h07.57.818,Tarea de género gramatical,2024.2.2,MacIntel,60.24096386,,,,,,,,,,,,,,,,,,,,,,454.6968,455.9787,a,1,0.6012,,[],[],[],[],[],[],[],0.6012,1,455.9788,456.4786,,,,,,1065,FEM,CON,150,amiga,,a,456.4786,456.4786,-0.069495985,-0.431722005,0,0,0,,0,158,158,164,1,,,
,,,,,,d4eb462ad63464517b37b0cc,66a626ef09d4e21e1a8894ec,67371d766c6050f8e53e81f8,2024-11-15_11h07.57.818,Tarea de género gramatical,2024.2.2,MacIntel,60.24096386,,,,,,,,,,,,,,,,,,,,,,456.4791,457.7954,a,0,0.6428,,[],[],[],[],[],[],[],0.6428,0,457.7962,458.2953,,,,,,1246,MAS,DIS,150,juicio,la,l,458.2961,458.2966,-0.069495985,-0.431722005,0,0,0,,0,159,159,345,1,,,
,,,,,,d4eb462ad63464517b37b0cc,66a626ef09d4e21e1a8894ec,67371d766c6050f8e53e81f8,2024-11-15_11h07.57.818,Tarea de género gramatical,2024.2.2,MacIntel,60.24096386,,,,,,,,,,,,,,,,,,,,,,458.2971,459.3953,a,1,0.424,,[],[],[],[],[],[],[],0.424,1,459.3958,459.8956,,,,,,1064,FEM,AGR,150,novia,la,a,459.8957,459.8958,-0.069495985,-0.431722005,0,0,0,,0,160,160,163,1,,,
,,,,,,d4eb462ad63464517b37b0cc,66a626ef09d4e21e1a8894ec,67371d766c6050f8e53e81f8,2024-11-15_11h07.57.818,Tarea de género gramatical,2024.2.2,MacIntel,60.24096386,,,,,,,,,,,,,,,,,,,,,,459.8977,460.6121,l,1,0.0418,,[],[],[],[],[],[],[],0.0418,1,460.6122,461.1123,,,,,,1326,MAS,CON,150,pánico,,l,461.1123,461.1125,-0.069495985,-0.431722005,0,0,0,,0,161,161,425,1,,,
,,,,,,d4eb462ad63464517b37b0cc,66a626ef09d4e21e1a8894ec,67371d766c6050f8e53e81f8,2024-11-15_11h07.57.818,Tarea de género gramatical,2024.2.2,MacIntel,60.24096386,,,,,,,,,,,,,,,,,,,,,,461.1141,461.9119,a,0,0.1273,,[],[],[],[],[],[],[],0.1273,0,461.9124,462.4113,,,,,,996,MAS,CON,150,pato,,l,462.4114,462.4115,-0.069495985,-0.431722005,0,0,0,,0,162,162,95,1,,,
,,,,,,d4eb462ad63464517b37b0cc,66a626ef09d4e21e1a8894ec,67371d766c6050f8e53e81f8,2024-11-15_11h07.57.818,Tarea de género gramatical,2024.2.2,MacIntel,60.24096386,,,,,,,,,,,,,,,,,,,,,,462.4122,463.213,l,1,0.1463,,[],[],[],[],[],[],[],0.1463,1,463.2138,463.712,,,,,,1025,MAS,AGR,150,bate,el,l,463.7123,463.7124,-0.069495985,-0.431722005,0,0,0,,0,163,163,124,1,,,
,,,,,,d4eb462ad63464517b37b0cc,66a626ef09d4e21e1a8894ec,67371d766c6050f8e53e81f8,2024-11-15_11h07.57.818,Tarea de género gramatical,2024.2.2,MacIntel,60.24096386,,,,,,,,,,,,,,,,,,,,,,463.7131,465.062,a,1,0.676,,[],[],[],[],[],[],[],0.676,1,465.0622,465.5618,,,,,,1298,FEM,AGR,150,hierba,la,a,465.5625,465.563,-0.069495985,-0.431722005,0,0,0,,0,164,164,397,1,,,
,,,,,,d4eb462ad63464517b37b0cc,66a626ef09d4e21e1a8894ec,67371d766c6050f8e53e81f8,2024-11-15_11h07.57.818,Tarea de género gramatical,2024.2.2,MacIntel,60.24096386,,,,,,,,,,,,,,,,,,,,,,465.5635,466.6786,a,1,0.4462,,[],[],[],[],[],[],[],0.4462,1,466.6788,467.1785,,,,,,1346,FEM,AGR,150,bañera,la,a,467.1786,467.1786,-0.069495985,-0.431722005,0,0,0,,0,165,165,445,1,,,
,,,,,,d4eb462ad63464517b37b0cc,66a626ef09d4e21e1a8894ec,67371d766c6050f8e53e81f8,2024-11-15_11h07.57.818,Tarea de género gramatical,2024.2.2,MacIntel,60.24096386,,,,,,,,,,,,,,,,,,,,,,467.1791,468.3285,l,1,0.4734,,[],[],[],[],[],[],[],0.4734,1,468.3285,468.8285,,,,,,971,MAS,AGR,150,pozo,el,l,468.8285,468.8286,-0.069495985,-0.431722005,0,0,0,,0,166,166,70,1,,,
,,,,,,d4eb462ad63464517b37b0cc,66a626ef09d4e21e1a8894ec,67371d766c6050f8e53e81f8,2024-11-15_11h07.57.818,Tarea de género gramatical,2024.2.2,MacIntel,60.24096386,,,,,,,,,,,,,,,,,,,,,,468.8291,469.8121,a,1,0.3093,,[],[],[],[],[],[],[],0.3093,1,469.8123,470.312,,,,,,1311,FEM,CON,150,actriz,,a,470.3121,470.3121,-0.069495985,-0.431722005,0,0,0,,0,167,167,410,1,,,
,,,,,,d4eb462ad63464517b37b0cc,66a626ef09d4e21e1a8894ec,67371d766c6050f8e53e81f8,2024-11-15_11h07.57.818,Tarea de género gramatical,2024.2.2,MacIntel,60.24096386,,,,,,,,,,,,,,,,,,,,,,470.3129,471.4953,a,1,0.5091,,[],[],[],[],[],[],[],0.5091,1,471.4953,471.9953,,,,,,1213,FEM,DIS,150,ciudad,el,a,471.9968,471.9983,-0.069495985,-0.431722005,0,0,0,,0,168,168,312,1,,,
,,,,,,d4eb462ad63464517b37b0cc,66a626ef09d4e21e1a8894ec,67371d766c6050f8e53e81f8,2024-11-15_11h07.57.818,Tarea de género gramatical,2024.2.2,MacIntel,60.24096386,,,,,,,,,,,,,,,,,,,,,,471.999,473.2953,l,0,0.6268,,[],[],[],[],[],[],[],0.6268,0,473.2965,473.7953,,,,,,901,FEM,DIS,150,casa,el,a,473.7953,473.7955,-0.069495985,-0.431722005,0,0,0,,0,169,169,0,1,,,
,,,,,,d4eb462ad63464517b37b0cc,66a626ef09d4e21e1a8894ec,67371d766c6050f8e53e81f8,2024-11-15_11h07.57.818,Tarea de género gramatical,2024.2.2,MacIntel,60.24096386,,,,,,,,,,,,,,,,,,,,,,473.7968,474.8954,a,1,0.4248,,[],[],[],[],[],[],[],0.4248,1,474.8968,475.3953,,,,,,1262,FEM,AGR,150,fuente,la,a,475.3953,475.3953,-0.069495985,-0.431722005,0,0,0,,0,170,170,361,1,,,
,,,,,,d4eb462ad63464517b37b0cc,66a626ef09d4e21e1a8894ec,67371d766c6050f8e53e81f8,2024-11-15_11h07.57.818,Tarea de género gramatical,2024.2.2,MacIntel,60.24096386,,,,,,,,,,,,,,,,,,,,,,475.3958,476.8452,l,1,0.7666,,[],[],[],[],[],[],[],0.7666,1,476.8453,477.3455,,,,,,1204,MAS,DIS,150,tiempo,la,l,477.3456,477.3456,-0.069495985,-0.431722005,0,0,0,,0,171,171,303,1,,,
,,,,,,d4eb462ad63464517b37b0cc,66a626ef09d4e21e1a8894ec,67371d766c6050f8e53e81f8,2024-11-15_11h07.57.818,Tarea de género gramatical,2024.2.2,MacIntel,60.24096386,,,,,,,,,,,,,,,,,,,,,,477.3466,478.8622,a,1,0.8346,,[],[],[],[],[],[],[],0.8346,1,478.8624,479.3619,,,,,,1119,FEM,CON,150,costa,,a,479.3619,479.362,-0.069495985,-0.431722005,0,0,0,,0,172,172,218,1,,,
,,,,,,d4eb462ad63464517b37b0cc,66a626ef09d4e21e1a8894ec,67371d766c6050f8e53e81f8,2024-11-15_11h07.57.818,Tarea de género gramatical,2024.2.2,MacIntel,60.24096386,,,,,,,,,,,,,,,,,,,,,,479.3626,480.4112,a,0,0.3707,,[],[],[],[],[],[],[],0.3707,0,480.4118,480.9121,,,,,,1049,MAS,AGR,150,nudo,el,l,480.9134,480.9146,-0.069495985,-0.431722005,0,0,0,,0,173,173,148,1,,,
,,,,,,d4eb462ad63464517b37b0cc,66a626ef09d4e21e1a8894ec,67371d766c6050f8e53e81f8,2024-11-15_11h07.57.818,Tarea de género gramatical,2024.2.2,MacIntel,60.24096386,,,,,,,,,,,,,,,,,,,,,,480.9154,482.1443,l,1,0.5538,,[],[],[],[],[],[],[],0.5538,1,482.1448,482.6457,,,,,,1186,MAS,DIS,150,reino,la,l,482.6459,482.646,-0.069495985,-0.431722005,0,0,0,,0,174,174,285,1,,,
,,,,,,d4eb462ad63464517b37b0cc,66a626ef09d4e21e1a8894ec,67371d766c6050f8e53e81f8,2024-11-15_11h07.57.818,Tarea de género gramatical,2024.2.2,MacIntel,60.24096386,,,,,,,,,,,,,,,,,,,,,,482.6473,484.1285,a,0,0.8052,,[],[],[],[],[],[],[],0.8052,0,484.1289,484.6286,,,,,,1146,MAS,CON,150,humor,,l,484.6286,484.6286,-0.069495985,-0.431722005,0,0,0,,0,175,175,245,1,,,
,,,,,,d4eb462ad63464517b37b0cc,66a626ef09d4e21e1a8894ec,67371d766c6050f8e53e81f8,2024-11-15_11h07.57.818,Tarea de género gramatical,2024.2.2,MacIntel,60.24096386,,,,,,,,,,,,,,,,,,,,,,484.6291,486.3286,l,1,1.02,,[],[],[],[],[],[],[],1.02,1,486.3288,486.8286,,,,,,1030,MAS,DIS,150,yate,la,l,486.8286,486.8286,-0.069495985,-0.431722005,0,0,0,,0,176,176,129,1,,,
,,,,,,d4eb462ad63464517b37b0cc,66a626ef09d4e21e1a8894ec,67371d766c6050f8e53e81f8,2024-11-15_11h07.57.818,Tarea de género gramatical,2024.2.2,MacIntel,60.24096386,,,,,,,,,,,,,,,,,,,,,,486.8292,488.0454,a,1,0.5313,,[],[],[],[],[],[],[],0.5313,1,488.0454,488.5449,,,,,,1172,FEM,AGR,150,oreja,la,a,488.5466,488.5472,-0.069495985,-0.431722005,0,0,0,,0,177,177,271,1,,,
,,,,,,d4eb462ad63464517b37b0cc,66a626ef09d4e21e1a8894ec,67371d766c6050f8e53e81f8,2024-11-15_11h07.57.818,Tarea de género gramatical,2024.2.2,MacIntel,60.24096386,,,,,,,,,,,,,,,,,,,,,,488.5476,489.6957,l,1,0.48,,[],[],[],[],[],[],[],0.48,1,489.6958,490.1955,,,,,,1013,MAS,AGR,150,toro,el,l,490.1955,490.1956,-0.069495985,-0.431722005,0,0,0,,0,178,178,112,1,,,
,,,,,,d4eb462ad63464517b37b0cc,66a626ef09d4e21e1a8894ec,67371d766c6050f8e53e81f8,2024-11-15_11h07.57.818,Tarea de género gramatical,2024.2.2,MacIntel,60.24096386,,,,,,,,,,,,,,,,,,,,,,490.1968,491.4959,l,1,0.6301,,[],[],[],[],[],[],[],0.6301,1,491.496,491.9954,,,,,,1344,MAS,CON,150,límite,,l,491.9955,491.9955,-0.069495985,-0.431722005,0,0,0,,0,179,179,443,1,,,
,,,,,,d4eb462ad63464517b37b0cc,66a626ef09d4e21e1a8894ec,67371d766c6050f8e53e81f8,2024-11-15_11h07.57.818,Tarea de género gramatical,2024.2.2,MacIntel,60.24096386,,,,,,,,,,,,,,,,,,,,,,491.9968,493.2965,a,1,0.6291,,[],[],[],[],[],[],[],0.6291,1,493.2965,493.7955,,,,,,927,FEM,CON,150,mesa,,a,493.7955,493.7956,-0.069495985,-0.431722005,0,0,0,,0,180,180,26,1,,,
,,,,,,d4eb462ad63464517b37b0cc,66a626ef09d4e21e1a8894ec,67371d766c6050f8e53e81f8,2024-11-15_11h07.57.818,Tarea de género gramatical,2024.2.2,MacIntel,60.24096386,,,,,,,,,,,,,,,,,,,,,,493.7971,495.2114,a,1,0.7428,,[],[],[],[],[],[],[],0.7428,1,495.2115,495.7129,,,,,,932,FEM,AGR,150,caja,la,a,495.7131,495.7131,-0.069495985,-0.431722005,0,0,0,,0,181,181,31,1,,,
,,,,,,d4eb462ad63464517b37b0cc,66a626ef09d4e21e1a8894ec,67371d766c6050f8e53e81f8,2024-11-15_11h07.57.818,Tarea de género gramatical,2024.2.2,MacIntel,60.24096386,,,,,,,,,,,,,,,,,,,,,,495.7144,496.9788,l,1,0.5839,,[],[],[],[],[],[],[],0.5839,1,496.9788,497.4779,,,,,,1254,MAS,CON,150,camión,,l,497.4789,497.4798,-0.069495985,-0.431722005,0,0,0,,0,182,182,353,1,,,
,,,,,,d4eb462ad63464517b37b0cc,66a626ef09d4e21e1a8894ec,67371d766c6050f8e53e81f8,2024-11-15_11h07.57.818,Tarea de género gramatical,2024.2.2,MacIntel,60.24096386,,,,,,,,,,,,,,,,,,,,,,497.4804,498.8621,a,1,0.7049,,[],[],[],[],[],[],[],0.7049,1,498.8622,499.362,,,,,,1321,FEM,DIS,150,novela,el,a,499.362,499.362,-0.069495985,-0.431722005,0,0,0,,0,183,183,420,1,,,
,,,,,,d4eb462ad63464517b37b0cc,66a626ef09d4e21e1a8894ec,67371d766c6050f8e53e81f8,2024-11-15_11h07.57.818,Tarea de género gramatical,2024.2.2,MacIntel,60.24096386,,,,,,,,,,,,,,,,,,,,,,499.3626,500.5955,a,1,0.5553,,[],[],[],[],[],[],[],0.5553,1,500.5956,501.0954,,,,,,1045,FEM,DIS,150,bota,el,a,501.0954,501.0956,-0.069495985,-0.431722005,0,0,0,,0,184,184,144,1,,,
,,,,,,d4eb462ad63464517b37b0cc,66a626ef09d4e21e1a8894ec,67371d766c6050f8e53e81f8,2024-11-15_11h07.57.818,Tarea de género gramatical,2024.2.2,MacIntel,60.24096386,,,,,,,,,,,,,,,,,,,,,,501.097,502.3286,l,1,0.5544,,[],[],[],[],[],[],[],0.5544,1,502.3287,502.8287,,,,,,1056,MAS,CON,150,amigo,,l,502.8287,502.8287,-0.069495985,-0.431722005,0,0,0,,0,185,185,155,1,,,
,,,,,,d4eb462ad63464517b37b0cc,66a626ef09d4e21e1a8894ec,67371d766c6050f8e53e81f8,2024-11-15_11h07.57.818,Tarea de género gramatical,2024.2.2,MacIntel,60.24096386,,,,,,,,,,,,,,,,,,,,,,502.8291,504.0452,l,1,0.5382,,[],[],[],[],[],[],[],0.5382,1,504.0452,504.5443,,,,,,1295,MAS,AGR,150,correo,el,l,504.5448,504.545,-0.069495985,-0.431722005,0,0,0,,0,186,186,394,1,,,
,,,,,,d4eb462ad63464517b37b0cc,66a626ef09d4e21e1a8894ec,67371d766c6050f8e53e81f8,2024-11-15_11h07.57.818,Tarea de género gramatical,2024.2.2,MacIntel,60.24096386,,,,,,,,,,,,,,,,,,,,,,504.5453,505.6954,l,1,0.4786,,[],[],[],[],[],[],[],0.4786,1,505.6956,506.1955,,,,,,972,MAS,CON,150,hoyo,,l,506.1956,506.1957,-0.069495985,-0.431722005,0,0,0,,0,187,187,71,1,,,
,,,,,,d4eb462ad63464517b37b0cc,66a626ef09d4e21e1a8894ec,67371d766c6050f8e53e81f8,2024-11-15_11h07.57.818,Tarea de género gramatical,2024.2.2,MacIntel,60.24096386,,,,,,,,,,,,,,,,,,,,,,506.1992,507.2121,a,0,0.3402,,[],[],[],[],[],[],[],0.3402,0,507.2128,507.7123,,,,,,1169,MAS,AGR,150,primo,el,l,507.7126,507.7127,-0.069495985,-0.431722005,0,0,0,,0,188,188,268,1,,,
,,,,,,d4eb462ad63464517b37b0cc,66a626ef09d4e21e1a8894ec,67371d766c6050f8e53e81f8,2024-11-15_11h07.57.818,Tarea de género gramatical,2024.2.2,MacIntel,60.24096386,,,,,,,,,,,,,,,,,,,,,,507.7134,508.9119,a,0,0.528,,[],[],[],[],[],[],[],0.528,0,508.912,509.412,,,,,,1312,MAS,DIS,150,espejo,la,l,509.412,509.412,-0.069495985,-0.431722005,0,0,0,,0,189,189,411,1,,,
,,,,,,d4eb462ad63464517b37b0cc,66a626ef09d4e21e1a8894ec,67371d766c6050f8e53e81f8,2024-11-15_11h07.57.818,Tarea de género gramatical,2024.2.2,MacIntel,60.24096386,,,,,,,,,,,,,,,,,,,,,,509.4127,510.6789,a,0,0.5849,,[],[],[],[],[],[],[],0.5849,0,510.6789,511.1793,,,,,,1032,MAS,CON,150,velo,,l,511.1794,511.1794,-0.069495985,-0.431722005,0,0,0,,0,190,190,131,1,,,
,,,,,,d4eb462ad63464517b37b0cc,66a626ef09d4e21e1a8894ec,67371d766c6050f8e53e81f8,2024-11-15_11h07.57.818,Tarea de género gramatical,2024.2.2,MacIntel,60.24096386,,,,,,,,,,,,,,,,,,,,,,511.1802,512.2453,l,1,0.3915,,[],[],[],[],[],[],[],0.3915,1,512.2456,512.7449,,,,,,948,MAS,CON,150,loco,,l,512.7463,512.7469,-0.069495985,-0.431722005,0,0,0,,0,191,191,47,1,,,
,,,,,,d4eb462ad63464517b37b0cc,66a626ef09d4e21e1a8894ec,67371d766c6050f8e53e81f8,2024-11-15_11h07.57.818,Tarea de género gramatical,2024.2.2,MacIntel,60.24096386,,,,,,,,,,,,,,,,,,,,,,512.7477,514.0119,a,1,0.5845,,[],[],[],[],[],[],[],0.5845,1,514.012,514.5122,,,,,,1203,FEM,CON,150,maldad,,a,514.5123,514.5124,-0.069495985,-0.431722005,0,0,0,,0,192,192,302,1,,,
,,,,,,d4eb462ad63464517b37b0cc,66a626ef09d4e21e1a8894ec,67371d766c6050f8e53e81f8,2024-11-15_11h07.57.818,Tarea de género gramatical,2024.2.2,MacIntel,60.24096386,,,,,,,,,,,,,,,,,,,,,,514.5133,515.5788,l,1,0.3864,,[],[],[],[],[],[],[],0.3864,1,515.5788,516.0788,,,,,,1236,MAS,CON,150,crimen,,l,516.0789,516.0789,-0.069495985,-0.431722005,0,0,0,,0,193,193,335,1,,,
,,,,,,d4eb462ad63464517b37b0cc,66a626ef09d4e21e1a8894ec,67371d766c6050f8e53e81f8,2024-11-15_11h07.57.818,Tarea de género gramatical,2024.2.2,MacIntel,60.24096386,,,,,,,,,,,,,,,,,,,,,,516.0803,517.1954,a,0,0.4414,,[],[],[],[],[],[],[],0.4414,0,517.1959,517.6956,,,,,,946,MAS,DIS,150,odio,la,l,517.6957,517.696,-0.069495985,-0.431722005,0,0,0,,0,194,194,45,1,,,
,,,,,,d4eb462ad63464517b37b0cc,66a626ef09d4e21e1a8894ec,67371d766c6050f8e53e81f8,2024-11-15_11h07.57.818,Tarea de género gramatical,2024.2.2,MacIntel,60.24096386,,,,,,,,,,,,,,,,,,,,,,517.6974,518.9622,l,1,0.5836,,[],[],[],[],[],[],[],0.5836,1,518.9634,519.462,,,,,,1163,MAS,AGR,150,carro,el,l,519.4628,519.4633,-0.069495985,-0.431722005,0,0,0,,0,195,195,262,1,,,
,,,,,,d4eb462ad63464517b37b0cc,66a626ef09d4e21e1a8894ec,67371d766c6050f8e53e81f8,2024-11-15_11h07.57.818,Tarea de género gramatical,2024.2.2,MacIntel,60.24096386,,,,,,,,,,,,,,,,,,,,,,519.4638,520.6619,a,1,0.5229,,[],[],[],[],[],[],[],0.5229,1,520.662,521.1614,,,,,,987,FEM,CON,150,risa,,a,521.1615,521.1615,-0.069495985,-0.431722005,0,0,0,,0,196,196,86,1,,,
,,,,,,d4eb462ad63464517b37b0cc,66a626ef09d4e21e1a8894ec,67371d766c6050f8e53e81f8,2024-11-15_11h07.57.818,Tarea de género gramatical,2024.2.2,MacIntel,60.24096386,,,,,,,,,,,,,,,,,,,,,,521.1621,522.3124,l,1,0.4825,,[],[],[],[],[],[],[],0.4825,1,522.3125,522.8122,,,,,,1224,MAS,CON,150,cuarto,,l,522.8123,522.8123,-0.069495985,-0.431722005,0,0,0,,0,197,197,323,1,,,
,,,,,,d4eb462ad63464517b37b0cc,66a626ef09d4e21e1a8894ec,67371d766c6050f8e53e81f8,2024-11-15_11h07.57.818,Tarea de género gramatical,2024.2.2,MacIntel,60.24096386,,,,,,,,,,,,,,,,,,,,,,522.8132,524.112,a,1,0.6226,,[],[],[],[],[],[],[],0.6226,1,524.112,524.6125,,,,,,1202,FEM,AGR,150,cabeza,la,a,524.6125,524.6126,-0.069495985,-0.431722005,0,0,0,,0,198,198,301,1,,,
,,,,,,d4eb462ad63464517b37b0cc,66a626ef09d4e21e1a8894ec,67371d766c6050f8e53e81f8,2024-11-15_11h07.57.818,Tarea de género gramatical,2024.2.2,MacIntel,60.24096386,,,,,,,,,,,,,,,,,,,,,,524.6131,525.8788,a,1,0.5922,,[],[],[],[],[],[],[],0.5922,1,525.879,526.3788,,,,,,1173,FEM,CON,150,tarta,,a,526.3789,526.3793,-0.069495985,-0.431722005,0,0,0,,0,199,199,272,1,,,
,,,,,,d4eb462ad63464517b37b0cc,66a626ef09d4e21e1a8894ec,67371d766c6050f8e53e81f8,2024-11-15_11h07.57.818,Tarea de género gramatical,2024.2.2,MacIntel,60.24096386,,,,,,,,,,,,,,,,,,,,,,526.3801,527.5952,a,1,0.5394,,[],[],[],[],[],[],[],0.5394,1,527.5952,528.0953,,,,,,1244,FEM,AGR,150,pareja,la,a,528.0959,528.0961,-0.069495985,-0.431722005,0,0,0,,0,200,200,343,1,,,
,,,,,,d4eb462ad63464517b37b0cc,66a626ef09d4e21e1a8894ec,67371d766c6050f8e53e81f8,2024-11-15_11h07.57.818,Tarea de género gramatical,2024.2.2,MacIntel,60.24096386,,,,,,,,,,,,,,,,,,,,,,528.0971,529.1953,l,1,0.4188,,[],[],[],[],[],[],[],0.4188,1,529.1954,529.6955,,,,,,1158,MAS,CON,150,polvo,,l,529.6956,529.6957,-0.069495985,-0.431722005,0,0,0,,0,201,201,257,1,,,
,,,,,,d4eb462ad63464517b37b0cc,66a626ef09d4e21e1a8894ec,67371d766c6050f8e53e81f8,2024-11-15_11h07.57.818,Tarea de género gramatical,2024.2.2,MacIntel,60.24096386,,,,,,,,,,,,,,,,,,,,,,529.6975,531.0788,l,1,0.7087,,[],[],[],[],[],[],[],0.7087,1,531.0789,531.5794,,,,,,1026,MAS,CON,150,lazo,,l,531.5795,531.5797,-0.069495985,-0.431722005,0,0,0,,0,202,202,125,1,,,
,,,,,,d4eb462ad63464517b37b0cc,66a626ef09d4e21e1a8894ec,67371d766c6050f8e53e81f8,2024-11-15_11h07.57.818,Tarea de género gramatical,2024.2.2,MacIntel,60.24096386,,,,,,,,,,,,,,,,,,,,,,531.5809,532.7954,a,0,0.5374,,[],[],[],[],[],[],[],0.5374,0,532.7959,533.2956,,,,,,1091,MAS,AGR,150,dolor,el,l,533.2956,533.2956,-0.069495985,-0.431722005,0,0,0,,0,203,203,190,1,,,
,,,,,,d4eb462ad63464517b37b0cc,66a626ef09d4e21e1a8894ec,67371d766c6050f8e53e81f8,2024-11-15_11h07.57.818,Tarea de género gramatical,2024.2.2,MacIntel,60.24096386,,,,,,,,,,,,,,,,,,,,,,533.298,534.662,a,1,0.689,,[],[],[],[],[],[],[],0.689,1,534.6625,535.1624,,,,,,1201,FEM,DIS,150,verdad,el,a,535.1642,535.1648,-0.069495985,-0.431722005,0,0,0,,0,204,204,300,1,,,
,,,,,,d4eb462ad63464517b37b0cc,66a626ef09d4e21e1a8894ec,67371d766c6050f8e53e81f8,2024-11-15_11h07.57.818,Tarea de género gramatical,2024.2.2,MacIntel,60.24096386,,,,,,,,,,,,,,,,,,,,,,535.1654,536.2289,a,1,0.3959,,[],[],[],[],[],[],[],0.3959,1,536.2293,536.7289,,,,,,903,FEM,CON,150,cosa,,a,536.729,536.7291,-0.069495985,-0.431722005,0,0,0,,0,205,205,2,1,,,
,,,,,,d4eb462ad63464517b37b0cc,66a626ef09d4e21e1a8894ec,67371d766c6050f8e53e81f8,2024-11-15_11h07.57.818,Tarea de género gramatical,2024.2.2,MacIntel,60.24096386,,,,,,,,,,,,,,,,,,,,,,536.73,538.0289,l,1,0.6274,,[],[],[],[],[],[],[],0.6274,1,538.029,538.5287,,,,,,928,MAS,DIS,150,club,la,l,538.5287,538.5287,-0.069495985,-0.431722005,0,0,0,,0,206,206,27,1,,,
,,,,,,d4eb462ad63464517b37b0cc,66a626ef09d4e21e1a8894ec,67371d766c6050f8e53e81f8,2024-11-15_11h07.57.818,Tarea de género gramatical,2024.2.2,MacIntel,60.24096386,,,,,,,,,,,,,,,,,,,,,,538.5292,539.7955,a,1,0.5893,,[],[],[],[],[],[],[],0.5893,1,539.7956,540.296,,,,,,986,FEM,AGR,150,cruz,la,a,540.2961,540.2963,-0.069495985,-0.431722005,0,0,0,,0,207,207,85,1,,,
,,,,,,d4eb462ad63464517b37b0cc,66a626ef09d4e21e1a8894ec,67371d766c6050f8e53e81f8,2024-11-15_11h07.57.818,Tarea de género gramatical,2024.2.2,MacIntel,60.24096386,,,,,,,,,,,,,,,,,,,,,,540.2977,541.5288,l,1,0.5508,,[],[],[],[],[],[],[],0.5508,1,541.5288,542.029,,,,,,952,MAS,DIS,150,lago,la,l,542.0291,542.0292,-0.069495985,-0.431722005,0,0,0,,0,208,208,51,1,,,
,,,,,,d4eb462ad63464517b37b0cc,66a626ef09d4e21e1a8894ec,67371d766c6050f8e53e81f8,2024-11-15_11h07.57.818,Tarea de género gramatical,2024.2.2,MacIntel,60.24096386,,,,,,,,,,,,,,,,,,,,,,542.0304,543.1623,l,1,0.4591,,[],[],[],[],[],[],[],0.4591,1,543.1624,543.6622,,,,,,1200,MAS,CON,150,túnel,,l,543.6638,543.6649,-0.069495985,-0.431722005,0,0,0,,0,209,209,299,1,,,
,,,,,,d4eb462ad63464517b37b0cc,66a626ef09d4e21e1a8894ec,67371d766c6050f8e53e81f8,2024-11-15_11h07.57.818,Tarea de género gramatical,2024.2.2,MacIntel,60.24096386,,,,,,,,,,,,,,,,,,,,,,543.6655,544.7787,l,1,0.4422,,[],[],[],[],[],[],[],0.4422,1,544.7788,545.2787,,,,,,1036,MAS,DIS,150,vago,la,l,545.2787,545.2787,-0.069495985,-0.431722005,0,0,0,,0,210,210,135,1,,,
,,,,,,d4eb462ad63464517b37b0cc,66a626ef09d4e21e1a8894ec,67371d766c6050f8e53e81f8,2024-11-15_11h07.57.818,Tarea de género gramatical,2024.2.2,MacIntel,60.24096386,,,,,,,,,,,,,,,,,,,,,,545.2793,546.3123,l,1,0.3572,,[],[],[],[],[],[],[],0.3572,1,546.3126,546.8123,,,,,,935,MAS,AGR,150,taxi,el,l,546.8123,546.8126,-0.069495985,-0.431722005,0,0,0,,0,211,211,34,1,,,
,,,,,,d4eb462ad63464517b37b0cc,66a626ef09d4e21e1a8894ec,67371d766c6050f8e53e81f8,2024-11-15_11h07.57.818,Tarea de género gramatical,2024.2.2,MacIntel,60.24096386,,,,,,,,,,,,,,,,,,,,,,546.8144,547.9123,l,1,0.4206,,[],[],[],[],[],[],[],0.4206,1,547.9124,548.4123,,,,,,1037,MAS,AGR,150,coco,el,l,548.4123,548.4124,-0.069495985,-0.431722005,0,0,0,,0,212,212,136,1,,,
,,,,,,d4eb462ad63464517b37b0cc,66a626ef09d4e21e1a8894ec,67371d766c6050f8e53e81f8,2024-11-15_11h07.57.818,Tarea de género gramatical,2024.2.2,MacIntel,60.24096386,,,,,,,,,,,,,,,,,,,,,,548.4134,549.8949,a,0,0.8061,,[],[],[],[],[],[],[],0.8061,0,549.8956,550.3955,,,,,,1090,MAS,DIS,150,campo,la,l,550.3965,550.3974,-0.069495985,-0.431722005,0,0,0,,0,213,213,189,1,,,
,,,,,,d4eb462ad63464517b37b0cc,66a626ef09d4e21e1a8894ec,67371d766c6050f8e53e81f8,2024-11-15_11h07.57.818,Tarea de género gramatical,2024.2.2,MacIntel,60.24096386,,,,,,,,,,,,,,,,,,,,,,550.3983,551.6286,a,1,0.5498,,[],[],[],[],[],[],[],0.5498,1,551.6291,552.1288,,,,,,1075,FEM,DIS,150,señal,el,a,552.1289,552.1289,-0.069495985,-0.431722005,0,0,0,,0,214,214,174,1,,,
,,,,,,d4eb462ad63464517b37b0cc,66a626ef09d4e21e1a8894ec,67371d766c6050f8e53e81f8,2024-11-15_11h07.57.818,Tarea de género gramatical,2024.2.2,MacIntel,60.24096386,,,,,,,,,,,,,,,,,,,,,,552.13,553.2621,l,0,0.4536,,[],[],[],[],[],[],[],0.4536,0,553.2625,553.762,,,,,,1040,FEM,AGR,150,mula,la,a,553.762,553.7621,-0.069495985,-0.431722005,0,0,0,,0,215,215,139,1,,,
,,,,,,d4eb462ad63464517b37b0cc,66a626ef09d4e21e1a8894ec,67371d766c6050f8e53e81f8,2024-11-15_11h07.57.818,Tarea de género gramatical,2024.2.2,MacIntel,60.24096386,,,,,,,,,,,,,,,,,,,,,,553.7626,554.8455,a,1,0.4051,,[],[],[],[],[],[],[],0.4051,1,554.846,555.3456,,,,,,951,FEM,CON,150,bala,,a,555.3457,555.346,-0.069495985,-0.431722005,0,0,0,,0,216,216,50,1,,,
,,,,,,d4eb462ad63464517b37b0cc,66a626ef09d4e21e1a8894ec,67371d766c6050f8e53e81f8,2024-11-15_11h07.57.818,Tarea de género gramatical,2024.2.2,MacIntel,60.24096386,,,,,,,,,,,,,,,,,,,,,,555.347,556.4623,a,1,0.4416,,[],[],[],[],[],[],[],0.4416,1,556.4624,556.9623,,,,,,998,FEM,AGR,150,fuga,la,a,556.9623,556.9626,-0.069495985,-0.431722005,0,0,0,,0,217,217,97,1,,,
,,,,,,d4eb462ad63464517b37b0cc,66a626ef09d4e21e1a8894ec,67371d766c6050f8e53e81f8,2024-11-15_11h07.57.818,Tarea de género gramatical,2024.2.2,MacIntel,60.24096386,,,,,,,,,,,,,,,,,,,,,,556.9643,557.9948,a,1,0.3558,,[],[],[],[],[],[],[],0.3558,1,557.9949,558.4953,,,,,,993,FEM,CON,150,lata,,a,558.4958,558.4961,-0.069495985,-0.431722005,0,0,0,,0,218,218,92,1,,,
,,,,,,d4eb462ad63464517b37b0cc,66a626ef09d4e21e1a8894ec,67371d766c6050f8e53e81f8,2024-11-15_11h07.57.818,Tarea de género gramatical,2024.2.2,MacIntel,60.24096386,,,,,,,,,,,,,,,,,,,,,,558.4964,559.6124,a,1,0.4372,,[],[],[],[],[],[],[],0.4372,1,559.6125,560.1122,,,,,,1021,FEM,DIS,150,pila,el,a,560.1123,560.1126,-0.069495985,-0.431722005,0,0,0,,0,219,219,120,1,,,
,,,,,,d4eb462ad63464517b37b0cc,66a626ef09d4e21e1a8894ec,67371d766c6050f8e53e81f8,2024-11-15_11h07.57.818,Tarea de género gramatical,2024.2.2,MacIntel,60.24096386,,,,,,,,,,,,,,,,,,,,,,560.1133,561.2625,a,1,0.4656,,[],[],[],[],[],[],[],0.4656,1,561.2626,561.7626,,,,,,957,FEM,CON,150,moda,,a,561.7627,561.7628,-0.069495985,-0.431722005,0,0,0,,0,220,220,56,1,,,
,,,,,,d4eb462ad63464517b37b0cc,66a626ef09d4e21e1a8894ec,67371d766c6050f8e53e81f8,2024-11-15_11h07.57.818,Tarea de género gramatical,2024.2.2,MacIntel,60.24096386,,,,,,,,,,,,,,,,,,,,,,561.7646,562.8956,a,1,0.4574,,[],[],[],[],[],[],[],0.4574,1,562.8958,563.3956,,,,,,1117,FEM,DIS,150,tarea,el,a,563.3958,563.3959,-0.069495985,-0.431722005,0,0,0,,0,221,221,216,1,,,
,,,,,,d4eb462ad63464517b37b0cc,66a626ef09d4e21e1a8894ec,67371d766c6050f8e53e81f8,2024-11-15_11h07.57.818,Tarea de género gramatical,2024.2.2,MacIntel,60.24096386,,,,,,,,,,,,,,,,,,,,,,563.3972,564.4287,a,1,0.3556,,[],[],[],[],[],[],[],0.3556,1,564.4287,564.9292,,,,,,1303,FEM,DIS,150,paliza,el,a,564.9305,564.9314,-0.069495985,-0.431722005,0,0,0,,0,222,222,402,1,,,
,,,,,,d4eb462ad63464517b37b0cc,66a626ef09d4e21e1a8894ec,67371d766c6050f8e53e81f8,2024-11-15_11h07.57.818,Tarea de género gramatical,2024.2.2,MacIntel,60.24096386,,,,,,,,,,,,,,,,,,,,,,564.9327,566.1623,l,1,0.5586,,[],[],[],[],[],[],[],0.5586,1,566.1625,566.6623,,,,,,1248,MAS,CON,150,anillo,,l,566.6624,566.6626,-0.069495985,-0.431722005,0,0,0,,0,223,223,347,1,,,
,,,,,,d4eb462ad63464517b37b0cc,66a626ef09d4e21e1a8894ec,67371d766c6050f8e53e81f8,2024-11-15_11h07.57.818,Tarea de género gramatical,2024.2.2,MacIntel,60.24096386,,,,,,,,,,,,,,,,,,,,,,566.6643,567.9625,a,1,0.6248,,[],[],[],[],[],[],[],0.6248,1,567.9626,568.4625,,,,,,1189,FEM,DIS,150,tabla,el,a,568.4625,568.4626,-0.069495985,-0.431722005,0,0,0,,0,224,224,288,1,,,
,,,,,,d4eb462ad63464517b37b0cc,66a626ef09d4e21e1a8894ec,67371d766c6050f8e53e81f8,2024-11-15_11h07.57.818,Tarea de género gramatical,2024.2.2,MacIntel,60.24096386,,,,,,,,,,,,,,,,,,,,,,568.4644,569.762,l,1,0.6243,,[],[],[],[],[],[],[],0.6243,1,569.7621,570.262,,,,,,1084,MAS,DIS,150,cielo,la,l,570.262,570.2622,-0.069495985,-0.431722005,0,0,0,,0,225,225,183,1,,,
,,,,,,d4eb462ad63464517b37b0cc,66a626ef09d4e21e1a8894ec,67371d766c6050f8e53e81f8,2024-11-15_11h07.57.818,Tarea de género gramatical,2024.2.2,MacIntel,60.24096386,,,,,,,,,,,,,,,,,,,,,,570.2625,571.6788,l,1,0.7398,,[],[],[],[],[],[],[],0.7398,1,571.6788,572.1789,,,,,,1001,MAS,AGR,150,giro,el,l,572.1789,572.179,-0.069495985,-0.431722005,0,0,0,,0,226,226,100,1,,,
,,,,,,d4eb462ad63464517b37b0cc,66a626ef09d4e21e1a8894ec,67371d766c6050f8e53e81f8,2024-11-15_11h07.57.818,Tarea de género gramatical,2024.2.2,MacIntel,60.24096386,,,,,,,,,,,,,,,,,,,,,,572.1796,573.3788,a,1,0.526,,[],[],[],[],[],[],[],0.526,1,573.3788,573.8781,,,,,,913,FEM,DIS,150,hija,el,a,573.8785,573.8788,-0.069495985,-0.431722005,0,0,0,,0,227,227,12,1,,,
,,,,,,d4eb462ad63464517b37b0cc,66a626ef09d4e21e1a8894ec,67371d766c6050f8e53e81f8,2024-11-15_11h07.57.818,Tarea de género gramatical,2024.2.2,MacIntel,60.24096386,,,,,,,,,,,,,,,,,,,,,,573.8791,575.1126,a,1,0.5594,,[],[],[],[],[],[],[],0.5594,1,575.1127,575.6124,,,,,,974,FEM,AGR,150,flor,la,a,575.6125,575.6126,-0.069495985,-0.431722005,0,0,0,,0,228,228,73,1,,,
,,,,,,d4eb462ad63464517b37b0cc,66a626ef09d4e21e1a8894ec,67371d766c6050f8e53e81f8,2024-11-15_11h07.57.818,Tarea de género gramatical,2024.2.2,MacIntel,60.24096386,,,,,,,,,,,,,,,,,,,,,,575.6147,576.8455,l,1,0.5597,,[],[],[],[],[],[],[],0.5597,1,576.8455,577.3458,,,,,,1050,MAS,CON,150,mozo,,l,577.3458,577.3458,-0.069495985,-0.431722005,0,0,0,,0,229,229,149,1,,,
,,,,,,d4eb462ad63464517b37b0cc,66a626ef09d4e21e1a8894ec,67371d766c6050f8e53e81f8,2024-11-15_11h07.57.818,Tarea de género gramatical,2024.2.2,MacIntel,60.24096386,,,,,,,,,,,,,,,,,,,,,,577.3473,578.395,l,1,0.3754,,[],[],[],[],[],[],[],0.3754,1,578.3951,578.8954,,,,,,954,MAS,CON,150,humo,,l,578.8954,578.8955,-0.069495985,-0.431722005,0,0,0,,0,230,230,53,1,,,
,,,,,,d4eb462ad63464517b37b0cc,66a626ef09d4e21e1a8894ec,67371d766c6050f8e53e81f8,2024-11-15_11h07.57.818,Tarea de género gramatical,2024.2.2,MacIntel,60.24096386,,,,,,,,,,,,,,,,,,,,,,578.8965,580.0625,a,1,0.4913,,[],[],[],[],[],[],[],0.4913,1,580.0626,580.5622,,,,,,1003,FEM,DIS,150,fama,el,a,580.5628,580.5631,-0.069495985,-0.431722005,0,0,0,,0,231,231,102,1,,,
,,,,,,d4eb462ad63464517b37b0cc,66a626ef09d4e21e1a8894ec,67371d766c6050f8e53e81f8,2024-11-15_11h07.57.818,Tarea de género gramatical,2024.2.2,MacIntel,60.24096386,,,,,,,,,,,,,,,,,,,,,,580.5634,581.6782,l,1,0.4459,,[],[],[],[],[],[],[],0.4459,1,581.6784,582.1788,,,,,,1134,MAS,CON,150,héroe,,l,582.1789,582.1789,-0.069495985,-0.431722005,0,0,0,,0,232,232,233,1,,,
,,,,,,d4eb462ad63464517b37b0cc,66a626ef09d4e21e1a8894ec,67371d766c6050f8e53e81f8,2024-11-15_11h07.57.818,Tarea de género gramatical,2024.2.2,MacIntel,60.24096386,,,,,,,,,,,,,,,,,,,,,,582.1795,583.2295,a,1,0.3789,,[],[],[],[],[],[],[],0.3789,1,583.2295,583.7287,,,,,,956,FEM,AGR,150,bola,la,a,583.7288,583.7288,-0.069495985,-0.431722005,0,0,0,,0,233,233,55,1,,,
,,,,,,d4eb462ad63464517b37b0cc,66a626ef09d4e21e1a8894ec,67371d766c6050f8e53e81f8,2024-11-15_11h07.57.818,Tarea de género gramatical,2024.2.2,MacIntel,60.24096386,,,,,,,,,,,,,,,,,,,,,,583.7292,584.8622,l,0,0.4528,,[],[],[],[],[],[],[],0.4528,0,584.8626,585.3626,,,,,,1111,FEM,DIS,150,salud,el,a,585.3626,585.3627,-0.069495985,-0.431722005,0,0,0,,0,234,234,210,1,,,
,,,,,,d4eb462ad63464517b37b0cc,66a626ef09d4e21e1a8894ec,67371d766c6050f8e53e81f8,2024-11-15_11h07.57.818,Tarea de género gramatical,2024.2.2,MacIntel,60.24096386,,,,,,,,,,,,,,,,,,,,,,585.3646,586.3789,a,1,0.3451,,[],[],[],[],[],[],[],0.3451,1,586.3794,586.8781,,,,,,1226,FEM,AGR,150,música,la,a,586.8782,586.8782,-0.069495985,-0.431722005,0,0,0,,0,235,235,325,1,,,
,,,,,,d4eb462ad63464517b37b0cc,66a626ef09d4e21e1a8894ec,67371d766c6050f8e53e81f8,2024-11-15_11h07.57.818,Tarea de género gramatical,2024.2.2,MacIntel,60.24096386,,,,,,,,,,,,,,,,,,,,,,586.8789,588.0954,a,1,0.5578,,[],[],[],[],[],[],[],0.5578,1,588.0955,588.5958,,,,,,1190,FEM,AGR,150,cabra,la,a,588.5967,588.5985,-0.069495985,-0.431722005,0,0,0,,0,236,236,289,1,,,
,,,,,,d4eb462ad63464517b37b0cc,66a626ef09d4e21e1a8894ec,67371d766c6050f8e53e81f8,2024-11-15_11h07.57.818,Tarea de género gramatical,2024.2.2,MacIntel,60.24096386,,,,,,,,,,,,,,,,,,,,,,588.5992,589.6289,l,1,0.3514,,[],[],[],[],[],[],[],0.3514,1,589.629,590.1283,,,,,,978,MAS,CON,150,oído,,l,590.1284,590.1285,-0.069495985,-0.431722005,0,0,0,,0,237,237,77,1,,,
,,,,,,d4eb462ad63464517b37b0cc,66a626ef09d4e21e1a8894ec,67371d766c6050f8e53e81f8,2024-11-15_11h07.57.818,Tarea de género gramatical,2024.2.2,MacIntel,60.24096386,,,,,,,,,,,,,,,,,,,,,,590.1292,591.3123,a,1,0.5119,,[],[],[],[],[],[],[],0.5119,1,591.3125,591.8122,,,,,,909,FEM,CON,150,mamá,,a,591.8122,591.8122,-0.069495985,-0.431722005,0,0,0,,0,238,238,8,1,,,
,,,,,,d4eb462ad63464517b37b0cc,66a626ef09d4e21e1a8894ec,67371d766c6050f8e53e81f8,2024-11-15_11h07.57.818,Tarea de género gramatical,2024.2.2,MacIntel,60.24096386,,,,,,,,,,,,,,,,,,,,,,591.8127,592.9293,l,1,0.4438,,[],[],[],[],[],[],[],0.4438,1,592.9295,593.4283,,,,,,1080,MAS,CON,150,fuego,,l,593.4284,593.4284,-0.069495985,-0.431722005,0,0,0,,0,239,239,179,1,,,
,,,,,,d4eb462ad63464517b37b0cc,66a626ef09d4e21e1a8894ec,67371d766c6050f8e53e81f8,2024-11-15_11h07.57.818,Tarea de género gramatical,2024.2.2,MacIntel,60.24096386,,,,,,,,,,,,,,,,,,,,,,593.4298,594.5957,a,1,0.4949,,[],[],[],[],[],[],[],0.4949,1,594.5958,595.0955,,,,,,944,FEM,AGR,150,zona,la,a,595.096,595.0964,-0.069495985,-0.431722005,0,0,0,,0,240,240,43,1,,,
,,,,,,d4eb462ad63464517b37b0cc,66a626ef09d4e21e1a8894ec,67371d766c6050f8e53e81f8,2024-11-15_11h07.57.818,Tarea de género gramatical,2024.2.2,MacIntel,60.24096386,,,,,,,,,,,,,,,,,,,,,,595.0968,596.2625,l,0,0.4912,,[],[],[],[],[],[],[],0.4912,0,596.2631,596.7621,,,,,,1105,FEM,DIS,150,reina,el,a,596.7622,596.7623,-0.069495985,-0.431722005,0,0,0,,0,241,241,204,1,,,
,,,,,,d4eb462ad63464517b37b0cc,66a626ef09d4e21e1a8894ec,67371d766c6050f8e53e81f8,2024-11-15_11h07.57.818,Tarea de género gramatical,2024.2.2,MacIntel,60.24096386,,,,,,,,,,,,,,,,,,,,,,596.7629,598.0622,a,1,0.6258,,[],[],[],[],[],[],[],0.6258,1,598.0627,598.562,,,,,,968,FEM,AGR,150,pata,la,a,598.562,598.5621,-0.069495985,-0.431722005,0,0,0,,0,242,242,67,1,,,
,,,,,,d4eb462ad63464517b37b0cc,66a626ef09d4e21e1a8894ec,67371d766c6050f8e53e81f8,2024-11-15_11h07.57.818,Tarea de género gramatical,2024.2.2,MacIntel,60.24096386,,,,,,,,,,,,,,,,,,,,,,598.5626,599.7122,l,0,0.4852,,[],[],[],[],[],[],[],0.4852,0,599.7126,600.2125,,,,,,1251,FEM,CON,150,espada,,a,600.2126,600.2126,-0.069495985,-0.431722005,0,0,0,,0,243,243,350,1,,,
,,,,,,d4eb462ad63464517b37b0cc,66a626ef09d4e21e1a8894ec,67371d766c6050f8e53e81f8,2024-11-15_11h07.57.818,Tarea de género gramatical,2024.2.2,MacIntel,60.24096386,,,,,,,,,,,,,,,,,,,,,,600.2144,601.4461,l,1,0.5561,,[],[],[],[],[],[],[],0.5561,1,601.4472,601.9462,,,,,,960,MAS,CON,150,tono,,l,601.9462,601.9463,-0.069495985,-0.431722005,0,0,0,,0,244,244,59,1,,,
,,,,,,d4eb462ad63464517b37b0cc,66a626ef09d4e21e1a8894ec,67371d766c6050f8e53e81f8,2024-11-15_11h07.57.818,Tarea de género gramatical,2024.2.2,MacIntel,60.24096386,,,,,,,,,,,,,,,,,,,,,,601.9479,603.2456,a,1,0.6177,,[],[],[],[],[],[],[],0.6177,1,603.2456,603.7455,,,,,,1179,FEM,CON,150,selva,,a,603.7461,603.7465,-0.069495985,-0.431722005,0,0,0,,0,245,245,278,1,,,
,,,,,,d4eb462ad63464517b37b0cc,66a626ef09d4e21e1a8894ec,67371d766c6050f8e53e81f8,2024-11-15_11h07.57.818,Tarea de género gramatical,2024.2.2,MacIntel,60.24096386,,,,,,,,,,,,,,,,,,,,,,603.7468,604.8125,a,1,0.3908,,[],[],[],[],[],[],[],0.3908,1,604.8126,605.3126,,,,,,1184,FEM,AGR,150,fruta,la,a,605.3127,605.313,-0.069495985,-0.431722005,0,0,0,,0,246,246,283,1,,,
,,,,,,d4eb462ad63464517b37b0cc,66a626ef09d4e21e1a8894ec,67371d766c6050f8e53e81f8,2024-11-15_11h07.57.818,Tarea de género gramatical,2024.2.2,MacIntel,60.24096386,,,,,,,,,,,,,,,,,,,,,,605.3145,606.4789,l,1,0.4885,,[],[],[],[],[],[],[],0.4885,1,606.479,606.9792,,,,,,1194,MAS,CON,150,cable,,l,606.9792,606.9792,-0.069495985,-0.431722005,0,0,0,,0,247,247,293,1,,,
,,,,,,d4eb462ad63464517b37b0cc,66a626ef09d4e21e1a8894ec,67371d766c6050f8e53e81f8,2024-11-15_11h07.57.818,Tarea de género gramatical,2024.2.2,MacIntel,60.24096386,,,,,,,,,,,,,,,,,,,,,,606.9811,608.1295,a,1,0.4681,,[],[],[],[],[],[],[],0.4681,1,608.1296,608.6292,,,,,,1149,FEM,CON,150,crema,,a,608.6292,608.6293,-0.069495985,-0.431722005,0,0,0,,0,248,248,248,1,,,
,,,,,,d4eb462ad63464517b37b0cc,66a626ef09d4e21e1a8894ec,67371d766c6050f8e53e81f8,2024-11-15_11h07.57.818,Tarea de género gramatical,2024.2.2,MacIntel,60.24096386,,,,,,,,,,,,,,,,,,,,,,608.6306,609.9626,a,1,0.6585,,[],[],[],[],[],[],[],0.6585,1,609.9627,610.4625,,,,,,1249,FEM,DIS,150,prensa,el,a,610.4639,610.4648,-0.069495985,-0.431722005,0,0,0,,0,249,249,348,1,,,
,,,,,,d4eb462ad63464517b37b0cc,66a626ef09d4e21e1a8894ec,67371d766c6050f8e53e81f8,2024-11-15_11h07.57.818,Tarea de género gramatical,2024.2.2,MacIntel,60.24096386,,,,,,,,,,,,,,,,,,,,,,610.466,612.1296,l,1,0.9884,,[],[],[],[],[],[],[],0.9884,1,612.1296,612.6289,,,,,,1145,MAS,AGR,150,turno,el,l,612.6289,612.629,-0.069495985,-0.431722005,0,0,0,,0,250,250,244,1,,,
