counterbalancing_condition,consent_prescreening.block_1/declare_consent,consent_prescreening.block_1/age_years,consent_prescreening.block_1/gender,consent_prescreening.block_1/language_disorder,consent_prescreening.block_1/first_language,PROLIFIC_PID,STUDY_ID,SESSION_ID,date,expName,psychopyVersion,OS,frameRate,check_prescreening_answers.started,check_prescreening_answers.stopped,Instructions.started,Instructions.stopped,instr_done_keyboard.keys,instr_done_keyboard.rt,instr_done_keyboard.duration,instr_done_touch.x,instr_done_touch.y,instr_done_touch.leftButton,instr_done_touch.midButton,instr_done_touch.rightButton,instruction_pages.thisRepN,instruction_pages.thisTrialN,instruction_pages.thisN,instruction_pages.thisIndex,instruction_pages.ran,pageN,phase,instruct_text,has_image,instruct_image,presentTrial.started,presentTrial.stopped,response.keys,response.corr,touch_resp.x,touch_resp.y,touch_resp.leftButton,touch_resp.midButton,touch_resp.rightButton,touch_resp.time,touch_resp.clicked_name,rt,corr,feedback.started,feedback.stopped,practice_trials.thisRepN,practice_trials.thisTrialN,practice_trials.thisN,practice_trials.thisIndex,practice_trials.ran,TrialID,StimulusType,Condition,PrimeDuration,Prime,Flanker,corrAns,response.rt,response.duration,Break.started,Break.stopped,break_done_touch.x,break_done_touch.y,break_done_touch.leftButton,break_done_touch.midButton,break_done_touch.rightButton,break_done_keyboard.keys,experiment_trials.thisRepN,experiment_trials.thisTrialN,experiment_trials.thisN,experiment_trials.thisIndex,experiment_trials.ran,break_done_keyboard.rt,break_done_keyboard.duration,End.started,End.stopped
0,"[""over_18"",""comfortable"",""read_info"",""consent_given""]",36,M,"[""none""]","[""spanish""]",d7631d00cc5115fb615d6126,66a626ef09d4e21e1a8894ec,6735ed0884142f7d4eb19d91,2024-11-14_13h30.39.767,Tarea de género gramatical,2024.2.2,Win32,60.24096386,,,,,,,,,,,,,,,,,,,,,,,,,,,,,,,,,,,,,,,,,,,,,,,,,,,,,,,,,,,,,,,,,,,,
,,,,,,d7631d00cc5115fb615d6126,66a626ef09d4e21e1a8894ec,6735ed0884142f7d4eb19d91,2024-11-14_13h30.39.767,Tarea de género gramatical,2024.2.2,Win32,60.24096386,28.4288,28.4291,,,,,,,,,,,,,,,,,,,,,,,,,,,,,,,,,,,,,,,,,,,,,,,,,,,,,,,,,,,,,,,,,,
,,,,,,d7631d00cc5115fb615d6126,66a626ef09d4e21e1a8894ec,6735ed0884142f7d4eb19d91,2024-11-14_13h30.39.767,Tarea de género gramatical,2024.2.2,Win32,60.24096386,,,28.4438,41.7032,space,13.2383,,-0.025925926,-0.10462963,0,0,0,0,0,0,0,1,1,instructions,"INSTRUCCIONES
Va a realizar una prueba de selección gramatical. Desde el comienzo de la prueba mire siempre al centro de la pantalla. Al cabo de un momento, aparecerán palabras. La tarea consiste en determinar si la palabra del centro (siempre será un sustantivo), pertenece al género masculino o femenino.

Pulse la tecla ESPACIO o toque el botón de abajo para continuar.",0,keyboardresponseMF.png,,,,,,,,,,,,,,,,,,,,,,,,,,,,,,,,,,,,,,,,,,,,,,
,,,,,,d7631d00cc5115fb615d6126,66a626ef09d4e21e1a8894ec,6735ed0884142f7d4eb19d91,2024-11-14_13h30.39.767,Tarea de género gramatical,2024.2.2,Win32,60.24096386,,,41.7052,54.7723,space,13.0372,,-0.025925926,-0.10462963,0,0,0,0,1,1,1,1,2,instructions,"Si su dispositivo tiene teclado, pulse la tecla ""A"" para las palabras en masculino (por ejemplo: ""arroz"") y la tecla ""L"" para las palabras en femenino (por ejemplo: ""mano"").
Pulse la tecla ESPACIO o toque el botón de abajo para continuar.",1,keyboardresponseMF.png,,,,,,,,,,,,,,,,,,,,,,,,,,,,,,,,,,,,,,,,,,,,,,
,,,,,,d7631d00cc5115fb615d6126,66a626ef09d4e21e1a8894ec,6735ed0884142f7d4eb19d91,2024-11-14_13h30.39.767,Tarea de género gramatical,2024.2.2,Win32,60.24096386,,,54.7731,58.9699,space,4.1783,,-0.025925926,-0.10462963,0,0,0,0,2,2,2,1,3,instructions,"Si utiliza un dispositivo sólo táctil, colóquelo en horizontal y utilice los botones de la pantalla. No utilice el ratón.
Pulse la tecla ESPACIO o toque el botón de abajo para continuar.",2,touchresponseMF.png,,,,,,,,,,,,,,,,,,,,,,,,,,,,,,,,,,,,,,,,,,,,,,
,,,,,,d7631d00cc5115fb615d6126,66a626ef09d4e21e1a8894ec,6735ed0884142f7d4eb19d91,2024-11-14_13h30.39.767,Tarea de género gramatical,2024.2.2,Win32,60.24096386,,,58.9709,61.8056,space,2.8189,,-0.025925926,-0.10462963,0,0,0,0,3,3,3,1,4,instructions,"Es muy importante que responda con la mayor rapidez y precisión posibles, ya que cada cadena de letras sólo estará en pantalla durante un instante. Si no responde en ese tiempo, aparecerá el mensaje ""Muy lento"" y el experimento pasará a la siguiente palabra. Los primeros 15 intentos serán de práctica y habrá dos descansos durante la prueba.
Pulse la tecla ESPACIO o toque el botón de abajo para iniciar la parte de práctica.",0,keyboardresponseMF.png,,,,,,,,,,,,,,,,,,,,,,,,,,,,,,,,,,,,,,,,,,,,,,
,,,,,,d7631d00cc5115fb615d6126,66a626ef09d4e21e1a8894ec,6735ed0884142f7d4eb19d91,2024-11-14_13h30.39.767,Tarea de género gramatical,2024.2.2,Win32,60.24096386,,,,,,,,,,,,,,,,,,,,,,,61.8114,64.4531,,0,[],[],[],[],[],[],[],,-1,64.4532,64.953,0,0,0,1,1,2002,FEM,CON,150,pala,,a,,,,,,,,,,,,,,,,,,,
,,,,,,d7631d00cc5115fb615d6126,66a626ef09d4e21e1a8894ec,6735ed0884142f7d4eb19d91,2024-11-14_13h30.39.767,Tarea de género gramatical,2024.2.2,Win32,60.24096386,,,,,,,,,,,,,,,,,,,,,,,64.9543,66.6026,a,0,[],[],[],[],[],[],[],0.9874,0,66.6135,67.0922,0,1,1,5,1,2006,FEM,DIS,150,serie,el,a,0.9874,,,,,,,,,,,,,,,,,,
,,,,,,d7631d00cc5115fb615d6126,66a626ef09d4e21e1a8894ec,6735ed0884142f7d4eb19d91,2024-11-14_13h30.39.767,Tarea de género gramatical,2024.2.2,Win32,60.24096386,,,,,,,,,,,,,,,,,,,,,,,67.0929,69.7359,,0,[],[],[],[],[],[],[],0.9874,-1,69.7362,70.2252,0,2,2,8,1,2009,MAS,DIS,150,puerto,la,l,,,,,,,,,,,,,,,,,,,
,,,,,,d7631d00cc5115fb615d6126,66a626ef09d4e21e1a8894ec,6735ed0884142f7d4eb19d91,2024-11-14_13h30.39.767,Tarea de género gramatical,2024.2.2,Win32,60.24096386,,,,,,,,,,,,,,,,,,,,,,,70.2258,71.0588,a,1,[],[],[],[],[],[],[],0.1502,1,71.0593,71.5586,0,3,3,14,1,2015,MAS,DIS,150,robot,la,l,0.1502,,,,,,,,,,,,,,,,,,
,,,,,,d7631d00cc5115fb615d6126,66a626ef09d4e21e1a8894ec,6735ed0884142f7d4eb19d91,2024-11-14_13h30.39.767,Tarea de género gramatical,2024.2.2,Win32,60.24096386,,,,,,,,,,,,,,,,,,,,,,,71.5592,73.0523,a,0,[],[],[],[],[],[],[],0.8071,0,73.0528,73.5586,0,4,4,0,1,2001,FEM,AGR,150,nuca,la,a,0.8071,,,,,,,,,,,,,,,,,,
,,,,,,d7631d00cc5115fb615d6126,66a626ef09d4e21e1a8894ec,6735ed0884142f7d4eb19d91,2024-11-14_13h30.39.767,Tarea de género gramatical,2024.2.2,Win32,60.24096386,,,,,,,,,,,,,,,,,,,,,,,73.5592,74.9691,a,1,[],[],[],[],[],[],[],0.7414,1,74.9697,75.4754,0,5,5,13,1,2014,MAS,CON,150,siglo,,l,0.7414,,,,,,,,,,,,,,,,,,
,,,,,,d7631d00cc5115fb615d6126,66a626ef09d4e21e1a8894ec,6735ed0884142f7d4eb19d91,2024-11-14_13h30.39.767,Tarea de género gramatical,2024.2.2,Win32,60.24096386,,,,,,,,,,,,,,,,,,,,,,,75.4758,76.7921,l,1,[],[],[],[],[],[],[],0.6505,1,76.7921,77.2919,0,6,6,4,1,2005,FEM,CON,150,placa,,a,0.6505,,,,,,,,,,,,,,,,,,
,,,,,,d7631d00cc5115fb615d6126,66a626ef09d4e21e1a8894ec,6735ed0884142f7d4eb19d91,2024-11-14_13h30.39.767,Tarea de género gramatical,2024.2.2,Win32,60.24096386,,,,,,,,,,,,,,,,,,,,,,,77.2925,78.6586,l,1,[],[],[],[],[],[],[],0.6989,1,78.6586,79.1584,0,7,7,2,1,2003,FEM,DIS,150,daga,el,a,0.6989,,,,,,,,,,,,,,,,,,
,,,,,,d7631d00cc5115fb615d6126,66a626ef09d4e21e1a8894ec,6735ed0884142f7d4eb19d91,2024-11-14_13h30.39.767,Tarea de género gramatical,2024.2.2,Win32,60.24096386,,,,,,,,,,,,,,,,,,,,,,,79.1589,80.6023,a,1,[],[],[],[],[],[],[],0.7582,1,80.6023,81.1086,0,8,8,9,1,2010,MAS,AGR,150,vecino,el,l,0.7582,,,,,,,,,,,,,,,,,,
,,,,,,d7631d00cc5115fb615d6126,66a626ef09d4e21e1a8894ec,6735ed0884142f7d4eb19d91,2024-11-14_13h30.39.767,Tarea de género gramatical,2024.2.2,Win32,60.24096386,,,,,,,,,,,,,,,,,,,,,,,81.109,82.6419,a,0,[],[],[],[],[],[],[],0.867,0,82.6423,83.1415,0,9,9,3,1,2004,FEM,AGR,150,venta,la,a,0.867,,,,,,,,,,,,,,,,,,
,,,,,,d7631d00cc5115fb615d6126,66a626ef09d4e21e1a8894ec,6735ed0884142f7d4eb19d91,2024-11-14_13h30.39.767,Tarea de género gramatical,2024.2.2,Win32,60.24096386,,,,,,,,,,,,,,,,,,,,,,,83.1419,84.619,a,1,[],[],[],[],[],[],[],0.8084,1,84.6193,85.1189,0,10,10,10,1,2011,MAS,CON,150,canal,,l,0.8084,,,,,,,,,,,,,,,,,,
,,,,,,d7631d00cc5115fb615d6126,66a626ef09d4e21e1a8894ec,6735ed0884142f7d4eb19d91,2024-11-14_13h30.39.767,Tarea de género gramatical,2024.2.2,Win32,60.24096386,,,,,,,,,,,,,,,,,,,,,,,85.1194,86.5082,a,1,[],[],[],[],[],[],[],0.7165,1,86.5083,87.0086,0,11,11,11,1,2012,MAS,DIS,150,clima,la,l,0.7165,,,,,,,,,,,,,,,,,,
,,,,,,d7631d00cc5115fb615d6126,66a626ef09d4e21e1a8894ec,6735ed0884142f7d4eb19d91,2024-11-14_13h30.39.767,Tarea de género gramatical,2024.2.2,Win32,60.24096386,,,,,,,,,,,,,,,,,,,,,,,87.0091,88.3188,l,1,[],[],[],[],[],[],[],0.6384,1,88.3188,88.8081,0,12,12,7,1,2008,FEM,CON,150,siesta,,a,0.6384,,,,,,,,,,,,,,,,,,
,,,,,,d7631d00cc5115fb615d6126,66a626ef09d4e21e1a8894ec,6735ed0884142f7d4eb19d91,2024-11-14_13h30.39.767,Tarea de género gramatical,2024.2.2,Win32,60.24096386,,,,,,,,,,,,,,,,,,,,,,,88.8087,90.1855,l,1,[],[],[],[],[],[],[],0.7103,1,90.1855,90.6753,0,13,13,6,1,2007,FEM,AGR,150,navaja,la,a,0.7103,,,,,,,,,,,,,,,,,,
,,,,,,d7631d00cc5115fb615d6126,66a626ef09d4e21e1a8894ec,6735ed0884142f7d4eb19d91,2024-11-14_13h30.39.767,Tarea de género gramatical,2024.2.2,Win32,60.24096386,,,,,,,,,,,,,,,,,,,,,,,90.6758,91.9087,a,1,[],[],[],[],[],[],[],0.5503,1,91.9088,92.4081,0,14,14,12,1,2013,MAS,AGR,150,acero,el,l,0.5503,,,,,,,,,,,,,,,,,,
,,,,,,d7631d00cc5115fb615d6126,66a626ef09d4e21e1a8894ec,6735ed0884142f7d4eb19d91,2024-11-14_13h30.39.767,Tarea de género gramatical,2024.2.2,Win32,60.24096386,,,101.7761,105.5251,space,3.7333,,-0.025925926,-0.10462963,0,0,0,,,,,,,,,,,105.5409,106.8187,a,1,[],[],[],[],[],[],[],0.5929,1,106.8188,107.3191,,,,,,425,MAS,CON,150,chiste,,l,0.5929,,107.3196,107.3248,-0.025925926,-0.10462963,0,0,0,,0,0,0,424,1,,,,
,,,,,,d7631d00cc5115fb615d6126,66a626ef09d4e21e1a8894ec,6735ed0884142f7d4eb19d91,2024-11-14_13h30.39.767,Tarea de género gramatical,2024.2.2,Win32,60.24096386,,,,,,,,,,,,,,,,,,,,,,,107.3265,108.5355,a,1,[],[],[],[],[],[],[],0.5242,1,108.5355,109.0354,,,,,,335,MAS,CON,150,montón,,l,0.5242,,109.0354,109.0355,-0.025925926,-0.10462963,0,0,0,,0,1,1,334,1,,,,
,,,,,,d7631d00cc5115fb615d6126,66a626ef09d4e21e1a8894ec,6735ed0884142f7d4eb19d91,2024-11-14_13h30.39.767,Tarea de género gramatical,2024.2.2,Win32,60.24096386,,,,,,,,,,,,,,,,,,,,,,,109.036,110.3186,a,1,[],[],[],[],[],[],[],0.6147,1,110.3187,110.8187,,,,,,96,MAS,DIS,150,pato,la,l,0.6147,,110.8193,110.8196,-0.025925926,-0.10462963,0,0,0,,0,2,2,95,1,,,,
,,,,,,d7631d00cc5115fb615d6126,66a626ef09d4e21e1a8894ec,6735ed0884142f7d4eb19d91,2024-11-14_13h30.39.767,Tarea de género gramatical,2024.2.2,Win32,60.24096386,,,,,,,,,,,,,,,,,,,,,,,110.82,111.9084,l,1,[],[],[],[],[],[],[],0.4173,1,111.9085,112.4021,,,,,,296,FEM,CON,150,feria,,a,0.4173,,112.4021,112.4022,-0.025925926,-0.10462963,0,0,0,,0,3,3,295,1,,,,
,,,,,,d7631d00cc5115fb615d6126,66a626ef09d4e21e1a8894ec,6735ed0884142f7d4eb19d91,2024-11-14_13h30.39.767,Tarea de género gramatical,2024.2.2,Win32,60.24096386,,,,,,,,,,,,,,,,,,,,,,,112.4028,113.5913,a,1,[],[],[],[],[],[],[],0.4999,1,113.5914,114.0852,,,,,,396,MAS,DIS,150,tesoro,la,l,0.4999,,114.0853,114.0853,-0.025925926,-0.10462963,0,0,0,,0,4,4,395,1,,,,
,,,,,,d7631d00cc5115fb615d6126,66a626ef09d4e21e1a8894ec,6735ed0884142f7d4eb19d91,2024-11-14_13h30.39.767,Tarea de género gramatical,2024.2.2,Win32,60.24096386,,,,,,,,,,,,,,,,,,,,,,,114.0857,115.252,a,1,[],[],[],[],[],[],[],0.4751,1,115.2521,115.7582,,,,,,311,MAS,CON,150,camino,,l,0.4751,,115.7582,115.7583,-0.025925926,-0.10462963,0,0,0,,0,5,5,310,1,,,,
,,,,,,d7631d00cc5115fb615d6126,66a626ef09d4e21e1a8894ec,6735ed0884142f7d4eb19d91,2024-11-14_13h30.39.767,Tarea de género gramatical,2024.2.2,Win32,60.24096386,,,,,,,,,,,,,,,,,,,,,,,115.7588,116.8589,l,1,[],[],[],[],[],[],[],0.4176,1,116.8589,117.3581,,,,,,309,FEM,DIS,150,esposa,el,a,0.4176,,117.3587,117.3589,-0.025925926,-0.10462963,0,0,0,,0,6,6,308,1,,,,
,,,,,,d7631d00cc5115fb615d6126,66a626ef09d4e21e1a8894ec,6735ed0884142f7d4eb19d91,2024-11-14_13h30.39.767,Tarea de género gramatical,2024.2.2,Win32,60.24096386,,,,,,,,,,,,,,,,,,,,,,,117.3592,118.4905,a,1,[],[],[],[],[],[],[],0.449,1,118.4906,118.9854,,,,,,149,MAS,CON,150,nudo,,l,0.449,,118.9854,118.9855,-0.025925926,-0.10462963,0,0,0,,0,7,7,148,1,,,,
,,,,,,d7631d00cc5115fb615d6126,66a626ef09d4e21e1a8894ec,6735ed0884142f7d4eb19d91,2024-11-14_13h30.39.767,Tarea de género gramatical,2024.2.2,Win32,60.24096386,,,,,,,,,,,,,,,,,,,,,,,118.9859,120.2019,a,1,[],[],[],[],[],[],[],0.5554,1,120.202,120.702,,,,,,328,MAS,AGR,150,asunto,el,l,0.5554,,120.702,120.702,-0.025925926,-0.10462963,0,0,0,,0,8,8,327,1,,,,
,,,,,,d7631d00cc5115fb615d6126,66a626ef09d4e21e1a8894ec,6735ed0884142f7d4eb19d91,2024-11-14_13h30.39.767,Tarea de género gramatical,2024.2.2,Win32,60.24096386,,,,,,,,,,,,,,,,,,,,,,,120.7025,122.4853,a,0,[],[],[],[],[],[],[],1.1085,0,122.4858,122.9852,,,,,,105,FEM,DIS,150,jefa,el,a,1.1085,,122.9852,122.9853,-0.025925926,-0.10462963,0,0,0,,0,9,9,104,1,,,,
,,,,,,d7631d00cc5115fb615d6126,66a626ef09d4e21e1a8894ec,6735ed0884142f7d4eb19d91,2024-11-14_13h30.39.767,Tarea de género gramatical,2024.2.2,Win32,60.24096386,,,,,,,,,,,,,,,,,,,,,,,122.9859,124.7239,a,1,[],[],[],[],[],[],[],1.0639,1,124.7242,125.2246,,,,,,209,MAS,CON,150,banco,,l,1.0639,,125.2246,125.2247,-0.025925926,-0.10462963,0,0,0,,0,10,10,208,1,,,,
,,,,,,d7631d00cc5115fb615d6126,66a626ef09d4e21e1a8894ec,6735ed0884142f7d4eb19d91,2024-11-14_13h30.39.767,Tarea de género gramatical,2024.2.2,Win32,60.24096386,,,,,,,,,,,,,,,,,,,,,,,125.2251,126.7519,a,1,[],[],[],[],[],[],[],0.8486,1,126.7519,127.2414,,,,,,281,MAS,CON,150,actor,,l,0.8486,,127.242,127.2422,-0.025925926,-0.10462963,0,0,0,,0,11,11,280,1,,,,
,,,,,,d7631d00cc5115fb615d6126,66a626ef09d4e21e1a8894ec,6735ed0884142f7d4eb19d91,2024-11-14_13h30.39.767,Tarea de género gramatical,2024.2.2,Win32,60.24096386,,,,,,,,,,,,,,,,,,,,,,,127.2424,128.4583,a,1,[],[],[],[],[],[],[],0.5504,1,128.4584,128.9517,,,,,,173,MAS,CON,150,libro,,l,0.5504,,128.9517,128.9518,-0.025925926,-0.10462963,0,0,0,,0,12,12,172,1,,,,
,,,,,,d7631d00cc5115fb615d6126,66a626ef09d4e21e1a8894ec,6735ed0884142f7d4eb19d91,2024-11-14_13h30.39.767,Tarea de género gramatical,2024.2.2,Win32,60.24096386,,,,,,,,,,,,,,,,,,,,,,,128.9522,130.4017,l,1,[],[],[],[],[],[],[],0.7683,1,130.4017,130.9018,,,,,,277,FEM,AGR,150,plaza,la,a,0.7683,,130.9019,130.9019,-0.025925926,-0.10462963,0,0,0,,0,13,13,276,1,,,,
,,,,,,d7631d00cc5115fb615d6126,66a626ef09d4e21e1a8894ec,6735ed0884142f7d4eb19d91,2024-11-14_13h30.39.767,Tarea de género gramatical,2024.2.2,Win32,60.24096386,,,,,,,,,,,,,,,,,,,,,,,130.9023,132.1246,a,1,[],[],[],[],[],[],[],0.5653,1,132.1247,132.6189,,,,,,34,MAS,AGR,150,gato,el,l,0.5653,,132.6189,132.619,-0.025925926,-0.10462963,0,0,0,,0,14,14,33,1,,,,
,,,,,,d7631d00cc5115fb615d6126,66a626ef09d4e21e1a8894ec,6735ed0884142f7d4eb19d91,2024-11-14_13h30.39.767,Tarea de género gramatical,2024.2.2,Win32,60.24096386,,,,,,,,,,,,,,,,,,,,,,,132.6203,133.7747,a,1,[],[],[],[],[],[],[],0.4983,1,133.7748,134.2683,,,,,,214,MAS,AGR,150,fondo,el,l,0.4983,,134.2689,134.2691,-0.025925926,-0.10462963,0,0,0,,0,15,15,213,1,,,,
,,,,,,d7631d00cc5115fb615d6126,66a626ef09d4e21e1a8894ec,6735ed0884142f7d4eb19d91,2024-11-14_13h30.39.767,Tarea de género gramatical,2024.2.2,Win32,60.24096386,,,,,,,,,,,,,,,,,,,,,,,134.2693,135.4745,l,1,[],[],[],[],[],[],[],0.5166,1,135.4745,135.9684,,,,,,392,FEM,CON,150,maleta,,a,0.5166,,135.9684,135.9684,-0.025925926,-0.10462963,0,0,0,,0,16,16,391,1,,,,
,,,,,,d7631d00cc5115fb615d6126,66a626ef09d4e21e1a8894ec,6735ed0884142f7d4eb19d91,2024-11-14_13h30.39.767,Tarea de género gramatical,2024.2.2,Win32,60.24096386,,,,,,,,,,,,,,,,,,,,,,,135.9689,137.0851,a,1,[],[],[],[],[],[],[],0.4488,1,137.0852,137.5909,,,,,,269,MAS,CON,150,primo,,l,0.4488,,137.5909,137.5909,-0.025925926,-0.10462963,0,0,0,,0,17,17,268,1,,,,
,,,,,,d7631d00cc5115fb615d6126,66a626ef09d4e21e1a8894ec,6735ed0884142f7d4eb19d91,2024-11-14_13h30.39.767,Tarea de género gramatical,2024.2.2,Win32,60.24096386,,,,,,,,,,,,,,,,,,,,,,,137.5915,138.6414,a,1,[],[],[],[],[],[],[],0.367,1,138.6415,139.135,,,,,,10,MAS,AGR,150,niño,el,l,0.367,,139.1351,139.1351,-0.025925926,-0.10462963,0,0,0,,0,18,18,9,1,,,,
,,,,,,d7631d00cc5115fb615d6126,66a626ef09d4e21e1a8894ec,6735ed0884142f7d4eb19d91,2024-11-14_13h30.39.767,Tarea de género gramatical,2024.2.2,Win32,60.24096386,,,,,,,,,,,,,,,,,,,,,,,139.1355,140.3744,l,1,[],[],[],[],[],[],[],0.5654,1,140.3745,140.8747,,,,,,332,FEM,CON,150,basura,,a,0.5654,,140.8747,140.8748,-0.025925926,-0.10462963,0,0,0,,0,19,19,331,1,,,,
,,,,,,d7631d00cc5115fb615d6126,66a626ef09d4e21e1a8894ec,6735ed0884142f7d4eb19d91,2024-11-14_13h30.39.767,Tarea de género gramatical,2024.2.2,Win32,60.24096386,,,,,,,,,,,,,,,,,,,,,,,140.8751,142.0516,a,1,[],[],[],[],[],[],[],0.505,1,142.0517,142.5411,,,,,,431,MAS,CON,150,veneno,,l,0.505,,142.5416,142.5421,-0.025925926,-0.10462963,0,0,0,,0,20,20,430,1,,,,
,,,,,,d7631d00cc5115fb615d6126,66a626ef09d4e21e1a8894ec,6735ed0884142f7d4eb19d91,2024-11-14_13h30.39.767,Tarea de género gramatical,2024.2.2,Win32,60.24096386,,,,,,,,,,,,,,,,,,,,,,,142.5424,143.7016,a,0,[],[],[],[],[],[],[],0.4922,0,143.702,144.208,,,,,,75,FEM,DIS,150,caza,el,a,0.4922,,144.208,144.208,-0.025925926,-0.10462963,0,0,0,,0,21,21,74,1,,,,
,,,,,,d7631d00cc5115fb615d6126,66a626ef09d4e21e1a8894ec,6735ed0884142f7d4eb19d91,2024-11-14_13h30.39.767,Tarea de género gramatical,2024.2.2,Win32,60.24096386,,,,,,,,,,,,,,,,,,,,,,,144.2083,145.4746,a,1,[],[],[],[],[],[],[],0.6126,1,145.4749,145.9745,,,,,,358,MAS,AGR,150,motivo,el,l,0.6126,,145.9745,145.9745,-0.025925926,-0.10462963,0,0,0,,0,22,22,357,1,,,,
,,,,,,d7631d00cc5115fb615d6126,66a626ef09d4e21e1a8894ec,6735ed0884142f7d4eb19d91,2024-11-14_13h30.39.767,Tarea de género gramatical,2024.2.2,Win32,60.24096386,,,,,,,,,,,,,,,,,,,,,,,145.9751,147.2413,l,1,[],[],[],[],[],[],[],0.6004,1,147.2413,147.7349,,,,,,206,FEM,CON,150,época,,a,0.6004,,147.7349,147.7349,-0.025925926,-0.10462963,0,0,0,,0,23,23,205,1,,,,
,,,,,,d7631d00cc5115fb615d6126,66a626ef09d4e21e1a8894ec,6735ed0884142f7d4eb19d91,2024-11-14_13h30.39.767,Tarea de género gramatical,2024.2.2,Win32,60.24096386,,,,,,,,,,,,,,,,,,,,,,,147.7354,149.035,a,1,[],[],[],[],[],[],[],0.6053,1,149.035,149.5412,,,,,,180,MAS,DIS,150,fuego,la,l,0.6053,,149.5417,149.542,-0.025925926,-0.10462963,0,0,0,,0,24,24,179,1,,,,
,,,,,,d7631d00cc5115fb615d6126,66a626ef09d4e21e1a8894ec,6735ed0884142f7d4eb19d91,2024-11-14_13h30.39.767,Tarea de género gramatical,2024.2.2,Win32,60.24096386,,,,,,,,,,,,,,,,,,,,,,,149.5422,150.6182,a,1,[],[],[],[],[],[],[],0.4012,1,150.6183,151.1183,,,,,,191,MAS,CON,150,dolor,,l,0.4012,,151.1183,151.1183,-0.025925926,-0.10462963,0,0,0,,0,25,25,190,1,,,,
,,,,,,d7631d00cc5115fb615d6126,66a626ef09d4e21e1a8894ec,6735ed0884142f7d4eb19d91,2024-11-14_13h30.39.767,Tarea de género gramatical,2024.2.2,Win32,60.24096386,,,,,,,,,,,,,,,,,,,,,,,151.1189,152.2914,a,1,[],[],[],[],[],[],[],0.5153,1,152.2914,152.7849,,,,,,148,MAS,AGR,150,surf,el,l,0.5153,,152.7849,152.785,-0.025925926,-0.10462963,0,0,0,,0,26,26,147,1,,,,
,,,,,,d7631d00cc5115fb615d6126,66a626ef09d4e21e1a8894ec,6735ed0884142f7d4eb19d91,2024-11-14_13h30.39.767,Tarea de género gramatical,2024.2.2,Win32,60.24096386,,,,,,,,,,,,,,,,,,,,,,,152.7855,153.9015,l,1,[],[],[],[],[],[],[],0.4385,1,153.9016,154.4079,,,,,,349,FEM,AGR,150,prensa,la,a,0.4385,,154.4079,154.4079,-0.025925926,-0.10462963,0,0,0,,0,27,27,348,1,,,,
,,,,,,d7631d00cc5115fb615d6126,66a626ef09d4e21e1a8894ec,6735ed0884142f7d4eb19d91,2024-11-14_13h30.39.767,Tarea de género gramatical,2024.2.2,Win32,60.24096386,,,,,,,,,,,,,,,,,,,,,,,154.4084,155.6578,a,1,[],[],[],[],[],[],[],0.5673,1,155.6578,156.1577,,,,,,245,MAS,CON,150,turno,,l,0.5673,,156.1578,156.1578,-0.025925926,-0.10462963,0,0,0,,0,28,28,244,1,,,,
,,,,,,d7631d00cc5115fb615d6126,66a626ef09d4e21e1a8894ec,6735ed0884142f7d4eb19d91,2024-11-14_13h30.39.767,Tarea de género gramatical,2024.2.2,Win32,60.24096386,,,,,,,,,,,,,,,,,,,,,,,156.1583,157.2912,a,1,[],[],[],[],[],[],[],0.4652,1,157.2913,157.7909,,,,,,196,MAS,AGR,150,barco,el,l,0.4652,,157.7916,157.792,-0.025925926,-0.10462963,0,0,0,,0,29,29,195,1,,,,
,,,,,,d7631d00cc5115fb615d6126,66a626ef09d4e21e1a8894ec,6735ed0884142f7d4eb19d91,2024-11-14_13h30.39.767,Tarea de género gramatical,2024.2.2,Win32,60.24096386,,,,,,,,,,,,,,,,,,,,,,,157.7922,159.2244,l,1,[],[],[],[],[],[],[],0.7501,1,159.2244,159.7182,,,,,,243,FEM,DIS,150,salsa,el,a,0.7501,,159.7182,159.7183,-0.025925926,-0.10462963,0,0,0,,0,30,30,242,1,,,,
,,,,,,d7631d00cc5115fb615d6126,66a626ef09d4e21e1a8894ec,6735ed0884142f7d4eb19d91,2024-11-14_13h30.39.767,Tarea de género gramatical,2024.2.2,Win32,60.24096386,,,,,,,,,,,,,,,,,,,,,,,159.7187,160.7681,a,0,[],[],[],[],[],[],[],0.3718,0,160.7685,161.2576,,,,,,32,FEM,CON,150,caja,,a,0.3718,,161.2577,161.2577,-0.025925926,-0.10462963,0,0,0,,0,31,31,31,1,,,,
,,,,,,d7631d00cc5115fb615d6126,66a626ef09d4e21e1a8894ec,6735ed0884142f7d4eb19d91,2024-11-14_13h30.39.767,Tarea de género gramatical,2024.2.2,Win32,60.24096386,,,,,,,,,,,,,,,,,,,,,,,161.2581,162.5182,a,1,[],[],[],[],[],[],[],0.5832,1,162.5186,163.0066,,,,,,174,MAS,DIS,150,perro,la,l,0.5832,,163.0066,163.0066,-0.025925926,-0.10462963,0,0,0,,0,32,32,173,1,,,,
,,,,,,d7631d00cc5115fb615d6126,66a626ef09d4e21e1a8894ec,6735ed0884142f7d4eb19d91,2024-11-14_13h30.39.767,Tarea de género gramatical,2024.2.2,Win32,60.24096386,,,,,,,,,,,,,,,,,,,,,,,163.0069,164.2249,a,1,[],[],[],[],[],[],[],0.5339,1,164.225,164.7181,,,,,,150,MAS,DIS,150,mozo,la,l,0.5339,,164.7189,164.7193,-0.025925926,-0.10462963,0,0,0,,0,33,33,149,1,,,,
,,,,,,d7631d00cc5115fb615d6126,66a626ef09d4e21e1a8894ec,6735ed0884142f7d4eb19d91,2024-11-14_13h30.39.767,Tarea de género gramatical,2024.2.2,Win32,60.24096386,,,,,,,,,,,,,,,,,,,,,,,164.7197,165.868,l,1,[],[],[],[],[],[],[],0.4749,1,165.8681,166.3682,,,,,,368,FEM,CON,150,gracia,,a,0.4749,,166.3682,166.3683,-0.025925926,-0.10462963,0,0,0,,0,34,34,367,1,,,,
,,,,,,d7631d00cc5115fb615d6126,66a626ef09d4e21e1a8894ec,6735ed0884142f7d4eb19d91,2024-11-14_13h30.39.767,Tarea de género gramatical,2024.2.2,Win32,60.24096386,,,,,,,,,,,,,,,,,,,,,,,166.3689,168.0514,l,1,[],[],[],[],[],[],[],0.9981,1,168.0515,168.5572,,,,,,357,FEM,DIS,150,lengua,el,a,0.9981,,168.5572,168.5572,-0.025925926,-0.10462963,0,0,0,,0,35,35,356,1,,,,
,,,,,,d7631d00cc5115fb615d6126,66a626ef09d4e21e1a8894ec,6735ed0884142f7d4eb19d91,2024-11-14_13h30.39.767,Tarea de género gramatical,2024.2.2,Win32,60.24096386,,,,,,,,,,,,,,,,,,,,,,,168.5578,169.6078,a,1,[],[],[],[],[],[],[],0.3669,1,169.6078,170.1015,,,,,,29,MAS,CON,150,frío,,l,0.3669,,170.1015,170.1015,-0.025925926,-0.10462963,0,0,0,,0,36,36,28,1,,,,
,,,,,,d7631d00cc5115fb615d6126,66a626ef09d4e21e1a8894ec,6735ed0884142f7d4eb19d91,2024-11-14_13h30.39.767,Tarea de género gramatical,2024.2.2,Win32,60.24096386,,,,,,,,,,,,,,,,,,,,,,,170.1019,171.2348,a,1,[],[],[],[],[],[],[],0.4485,1,171.2348,171.7236,,,,,,18,MAS,DIS,150,tren,la,l,0.4485,,171.7236,171.7237,-0.025925926,-0.10462963,0,0,0,,0,37,37,17,1,,,,
,,,,,,d7631d00cc5115fb615d6126,66a626ef09d4e21e1a8894ec,6735ed0884142f7d4eb19d91,2024-11-14_13h30.39.767,Tarea de género gramatical,2024.2.2,Win32,60.24096386,,,,,,,,,,,,,,,,,,,,,,,171.7241,172.9181,a,1,[],[],[],[],[],[],[],0.5147,1,172.9181,173.4179,,,,,,394,MAS,AGR,150,examen,el,l,0.5147,,173.4185,173.4188,-0.025925926,-0.10462963,0,0,0,,0,38,38,393,1,,,,
,,,,,,d7631d00cc5115fb615d6126,66a626ef09d4e21e1a8894ec,6735ed0884142f7d4eb19d91,2024-11-14_13h30.39.767,Tarea de género gramatical,2024.2.2,Win32,60.24096386,,,,,,,,,,,,,,,,,,,,,,,173.419,174.6179,a,1,[],[],[],[],[],[],[],0.5262,1,174.618,175.124,,,,,,275,MAS,CON,150,disco,,l,0.5262,,175.1241,175.1241,-0.025925926,-0.10462963,0,0,0,,0,39,39,274,1,,,,
,,,,,,d7631d00cc5115fb615d6126,66a626ef09d4e21e1a8894ec,6735ed0884142f7d4eb19d91,2024-11-14_13h30.39.767,Tarea de género gramatical,2024.2.2,Win32,60.24096386,,,,,,,,,,,,,,,,,,,,,,,175.1246,176.3682,a,1,[],[],[],[],[],[],[],0.5672,1,176.3683,176.8575,,,,,,365,MAS,CON,150,código,,l,0.5672,,176.8576,176.8576,-0.025925926,-0.10462963,0,0,0,,0,40,40,364,1,,,,
,,,,,,d7631d00cc5115fb615d6126,66a626ef09d4e21e1a8894ec,6735ed0884142f7d4eb19d91,2024-11-14_13h30.39.767,Tarea de género gramatical,2024.2.2,Win32,60.24096386,,,,,,,,,,,,,,,,,,,,,,,176.8579,178.1182,l,1,[],[],[],[],[],[],[],0.5851,1,178.1182,178.6243,,,,,,199,FEM,AGR,150,nariz,la,a,0.5851,,178.6243,178.6243,-0.025925926,-0.10462963,0,0,0,,0,41,41,198,1,,,,
,,,,,,d7631d00cc5115fb615d6126,66a626ef09d4e21e1a8894ec,6735ed0884142f7d4eb19d91,2024-11-14_13h30.39.767,Tarea de género gramatical,2024.2.2,Win32,60.24096386,,,,,,,,,,,,,,,,,,,,,,,178.6247,179.7513,a,1,[],[],[],[],[],[],[],0.4536,1,179.7513,180.2515,,,,,,306,MAS,DIS,150,dinero,la,l,0.4536,,180.252,180.2524,-0.025925926,-0.10462963,0,0,0,,0,42,42,305,1,,,,
,,,,,,d7631d00cc5115fb615d6126,66a626ef09d4e21e1a8894ec,6735ed0884142f7d4eb19d91,2024-11-14_13h30.39.767,Tarea de género gramatical,2024.2.2,Win32,60.24096386,,,,,,,,,,,,,,,,,,,,,,,180.2526,181.3183,l,1,[],[],[],[],[],[],[],0.3986,1,181.3183,181.8183,,,,,,1,FEM,AGR,150,casa,la,a,0.3986,,181.8184,181.8184,-0.025925926,-0.10462963,0,0,0,,0,43,43,0,1,,,,
,,,,,,d7631d00cc5115fb615d6126,66a626ef09d4e21e1a8894ec,6735ed0884142f7d4eb19d91,2024-11-14_13h30.39.767,Tarea de género gramatical,2024.2.2,Win32,60.24096386,,,,,,,,,,,,,,,,,,,,,,,181.8188,182.8849,a,1,[],[],[],[],[],[],[],0.3835,1,182.885,183.3845,,,,,,222,MAS,DIS,150,valor,la,l,0.3835,,183.3845,183.3845,-0.025925926,-0.10462963,0,0,0,,0,44,44,221,1,,,,
,,,,,,d7631d00cc5115fb615d6126,66a626ef09d4e21e1a8894ec,6735ed0884142f7d4eb19d91,2024-11-14_13h30.39.767,Tarea de género gramatical,2024.2.2,Win32,60.24096386,,,,,,,,,,,,,,,,,,,,,,,183.3851,184.5203,a,1,[],[],[],[],[],[],[],0.4652,1,184.5204,185.0208,,,,,,65,MAS,CON,150,rayo,,l,0.4652,,185.0208,185.0208,-0.025925926,-0.10462963,0,0,0,,0,45,45,64,1,,,,
,,,,,,d7631d00cc5115fb615d6126,66a626ef09d4e21e1a8894ec,6735ed0884142f7d4eb19d91,2024-11-14_13h30.39.767,Tarea de género gramatical,2024.2.2,Win32,60.24096386,,,,,,,,,,,,,,,,,,,,,,,185.0212,186.0572,a,1,[],[],[],[],[],[],[],0.3656,1,186.0573,186.5513,,,,,,305,MAS,CON,150,hombre,,l,0.3656,,186.5513,186.5513,-0.025925926,-0.10462963,0,0,0,,0,46,46,304,1,,,,
,,,,,,d7631d00cc5115fb615d6126,66a626ef09d4e21e1a8894ec,6735ed0884142f7d4eb19d91,2024-11-14_13h30.39.767,Tarea de género gramatical,2024.2.2,Win32,60.24096386,,,,,,,,,,,,,,,,,,,,,,,186.5518,187.6406,l,1,[],[],[],[],[],[],[],0.4313,1,187.6406,188.1343,,,,,,409,FEM,AGR,150,moneda,la,a,0.4313,,188.1348,188.1351,-0.025925926,-0.10462963,0,0,0,,0,47,47,408,1,,,,
,,,,,,d7631d00cc5115fb615d6126,66a626ef09d4e21e1a8894ec,6735ed0884142f7d4eb19d91,2024-11-14_13h30.39.767,Tarea de género gramatical,2024.2.2,Win32,60.24096386,,,,,,,,,,,,,,,,,,,,,,,188.1353,189.3572,l,1,[],[],[],[],[],[],[],0.5656,1,189.3573,189.8574,,,,,,7,FEM,AGR,150,hora,la,a,0.5656,,189.8574,189.8575,-0.025925926,-0.10462963,0,0,0,,0,48,48,6,1,,,,
,,,,,,d7631d00cc5115fb615d6126,66a626ef09d4e21e1a8894ec,6735ed0884142f7d4eb19d91,2024-11-14_13h30.39.767,Tarea de género gramatical,2024.2.2,Win32,60.24096386,,,,,,,,,,,,,,,,,,,,,,,189.8578,191.0677,a,1,[],[],[],[],[],[],[],0.5264,1,191.0678,191.5677,,,,,,228,MAS,DIS,150,nivel,la,l,0.5264,,191.5678,191.5678,-0.025925926,-0.10462963,0,0,0,,0,49,49,227,1,,,,
,,,,,,d7631d00cc5115fb615d6126,66a626ef09d4e21e1a8894ec,6735ed0884142f7d4eb19d91,2024-11-14_13h30.39.767,Tarea de género gramatical,2024.2.2,Win32,60.24096386,,,,,,,,,,,,,,,,,,,,,,,191.5682,193.3407,l,1,[],[],[],[],[],[],[],1.1151,1,193.3408,193.8344,,,,,,374,FEM,CON,150,herida,,a,1.1151,,193.8344,193.8344,-0.025925926,-0.10462963,0,0,0,,0,50,50,373,1,,,,
,,,,,,d7631d00cc5115fb615d6126,66a626ef09d4e21e1a8894ec,6735ed0884142f7d4eb19d91,2024-11-14_13h30.39.767,Tarea de género gramatical,2024.2.2,Win32,60.24096386,,,,,,,,,,,,,,,,,,,,,,,193.8348,195.0676,l,1,[],[],[],[],[],[],[],0.5483,1,195.0676,195.5574,,,,,,343,FEM,AGR,150,trampa,la,a,0.5483,,195.5578,195.5582,-0.025925926,-0.10462963,0,0,0,,0,51,51,342,1,,,,
,,,,,,d7631d00cc5115fb615d6126,66a626ef09d4e21e1a8894ec,6735ed0884142f7d4eb19d91,2024-11-14_13h30.39.767,Tarea de género gramatical,2024.2.2,Win32,60.24096386,,,,,,,,,,,,,,,,,,,,,,,195.5584,196.8012,l,1,[],[],[],[],[],[],[],0.5654,1,196.8012,197.301,,,,,,21,FEM,DIS,150,boca,el,a,0.5654,,197.301,197.3011,-0.025925926,-0.10462963,0,0,0,,0,52,52,20,1,,,,
,,,,,,d7631d00cc5115fb615d6126,66a626ef09d4e21e1a8894ec,6735ed0884142f7d4eb19d91,2024-11-14_13h30.39.767,Tarea de género gramatical,2024.2.2,Win32,60.24096386,,,,,,,,,,,,,,,,,,,,,,,197.3017,198.4844,l,1,[],[],[],[],[],[],[],0.4981,1,198.4845,198.9743,,,,,,333,FEM,DIS,150,locura,el,a,0.4981,,198.9743,198.9744,-0.025925926,-0.10462963,0,0,0,,0,53,53,332,1,,,,
,,,,,,d7631d00cc5115fb615d6126,66a626ef09d4e21e1a8894ec,6735ed0884142f7d4eb19d91,2024-11-14_13h30.39.767,Tarea de género gramatical,2024.2.2,Win32,60.24096386,,,,,,,,,,,,,,,,,,,,,,,198.9748,200.0344,a,1,[],[],[],[],[],[],[],0.3687,1,200.0344,200.5239,,,,,,220,MAS,AGR,150,huevo,el,l,0.3687,,200.5239,200.524,-0.025925926,-0.10462963,0,0,0,,0,54,54,219,1,,,,
,,,,,,d7631d00cc5115fb615d6126,66a626ef09d4e21e1a8894ec,6735ed0884142f7d4eb19d91,2024-11-14_13h30.39.767,Tarea de género gramatical,2024.2.2,Win32,60.24096386,,,,,,,,,,,,,,,,,,,,,,,200.5244,201.9843,a,1,[],[],[],[],[],[],[],0.7813,1,201.9843,202.4845,,,,,,418,MAS,AGR,150,pájaro,el,l,0.7813,,202.4845,202.4846,-0.025925926,-0.10462963,0,0,0,,0,55,55,417,1,,,,
,,,,,,d7631d00cc5115fb615d6126,66a626ef09d4e21e1a8894ec,6735ed0884142f7d4eb19d91,2024-11-14_13h30.39.767,Tarea de género gramatical,2024.2.2,Win32,60.24096386,,,,,,,,,,,,,,,,,,,,,,,202.4851,204.1074,a,1,[],[],[],[],[],[],[],0.9501,1,204.1075,204.6008,,,,,,59,MAS,CON,150,lobo,,l,0.9501,,204.6013,204.6015,-0.025925926,-0.10462963,0,0,0,,0,56,56,58,1,,,,
,,,,,,d7631d00cc5115fb615d6126,66a626ef09d4e21e1a8894ec,6735ed0884142f7d4eb19d91,2024-11-14_13h30.39.767,Tarea de género gramatical,2024.2.2,Win32,60.24096386,,,,,,,,,,,,,,,,,,,,,,,204.6019,205.9842,a,1,[],[],[],[],[],[],[],0.707,1,205.9843,206.474,,,,,,42,MAS,DIS,150,show,la,l,0.707,,206.474,206.474,-0.025925926,-0.10462963,0,0,0,,0,57,57,41,1,,,,
,,,,,,d7631d00cc5115fb615d6126,66a626ef09d4e21e1a8894ec,6735ed0884142f7d4eb19d91,2024-11-14_13h30.39.767,Tarea de género gramatical,2024.2.2,Win32,60.24096386,,,,,,,,,,,,,,,,,,,,,,,206.4744,207.5842,a,1,[],[],[],[],[],[],[],0.4229,1,207.5843,208.0843,,,,,,186,MAS,DIS,150,error,la,l,0.4229,,208.0844,208.0844,-0.025925926,-0.10462963,0,0,0,,0,58,58,185,1,,,,
,,,,,,d7631d00cc5115fb615d6126,66a626ef09d4e21e1a8894ec,6735ed0884142f7d4eb19d91,2024-11-14_13h30.39.767,Tarea de género gramatical,2024.2.2,Win32,60.24096386,,,,,,,,,,,,,,,,,,,,,,,208.0851,209.3342,l,1,[],[],[],[],[],[],[],0.5542,1,209.3343,209.8235,,,,,,3,FEM,DIS,150,cosa,el,a,0.5542,,209.8235,209.8235,-0.025925926,-0.10462963,0,0,0,,0,59,59,2,1,,,,
,,,,,,d7631d00cc5115fb615d6126,66a626ef09d4e21e1a8894ec,6735ed0884142f7d4eb19d91,2024-11-14_13h30.39.767,Tarea de género gramatical,2024.2.2,Win32,60.24096386,,,,,,,,,,,,,,,,,,,,,,,209.8239,211.1738,l,1,[],[],[],[],[],[],[],0.6817,1,211.1738,211.673,,,,,,297,FEM,DIS,150,manta,el,a,0.6817,,211.6733,211.6736,-0.025925926,-0.10462963,0,0,0,,0,60,60,296,1,,,,
,,,,,,d7631d00cc5115fb615d6126,66a626ef09d4e21e1a8894ec,6735ed0884142f7d4eb19d91,2024-11-14_13h30.39.767,Tarea de género gramatical,2024.2.2,Win32,60.24096386,,,,,,,,,,,,,,,,,,,,,,,211.6739,213.0239,l,1,[],[],[],[],[],[],[],0.6669,1,213.024,213.5227,,,,,,63,FEM,DIS,150,fila,el,a,0.6669,,213.5227,213.5227,-0.025925926,-0.10462963,0,0,0,,0,61,61,62,1,,,,
,,,,,,d7631d00cc5115fb615d6126,66a626ef09d4e21e1a8894ec,6735ed0884142f7d4eb19d91,2024-11-14_13h30.39.767,Tarea de género gramatical,2024.2.2,Win32,60.24096386,,,,,,,,,,,,,,,,,,,,,,,213.523,214.6508,a,1,[],[],[],[],[],[],[],0.4503,1,214.6508,215.1571,,,,,,46,MAS,AGR,150,odio,el,l,0.4503,,215.1572,215.1572,-0.025925926,-0.10462963,0,0,0,,0,62,62,45,1,,,,
,,,,,,d7631d00cc5115fb615d6126,66a626ef09d4e21e1a8894ec,6735ed0884142f7d4eb19d91,2024-11-14_13h30.39.767,Tarea de género gramatical,2024.2.2,Win32,60.24096386,,,,,,,,,,,,,,,,,,,,,,,215.1576,216.3176,l,1,[],[],[],[],[],[],[],0.4921,1,216.3177,216.8068,,,,,,55,FEM,AGR,150,taza,la,a,0.4921,,216.8068,216.8068,-0.025925926,-0.10462963,0,0,0,,0,63,63,54,1,,,,
,,,,,,d7631d00cc5115fb615d6126,66a626ef09d4e21e1a8894ec,6735ed0884142f7d4eb19d91,2024-11-14_13h30.39.767,Tarea de género gramatical,2024.2.2,Win32,60.24096386,,,,,,,,,,,,,,,,,,,,,,,216.8072,218.0405,l,1,[],[],[],[],[],[],[],0.5672,1,218.0405,218.5399,,,,,,13,FEM,AGR,150,hija,la,a,0.5672,,218.54,218.54,-0.025925926,-0.10462963,0,0,0,,0,64,64,12,1,,,,
,,,,,,d7631d00cc5115fb615d6126,66a626ef09d4e21e1a8894ec,6735ed0884142f7d4eb19d91,2024-11-14_13h30.39.767,Tarea de género gramatical,2024.2.2,Win32,60.24096386,,,,,,,,,,,,,,,,,,,,,,,218.5404,220.4073,l,1,[],[],[],[],[],[],[],1.2154,1,220.4073,220.9071,,,,,,141,FEM,DIS,150,cera,el,a,1.2154,,220.9075,220.9076,-0.025925926,-0.10462963,0,0,0,,0,65,65,140,1,,,,
,,,,,,d7631d00cc5115fb615d6126,66a626ef09d4e21e1a8894ec,6735ed0884142f7d4eb19d91,2024-11-14_13h30.39.767,Tarea de género gramatical,2024.2.2,Win32,60.24096386,,,,,,,,,,,,,,,,,,,,,,,220.908,222.2174,l,1,[],[],[],[],[],[],[],0.6168,1,222.2175,222.7238,,,,,,423,FEM,DIS,150,poesía,el,a,0.6168,,222.7238,222.7238,-0.025925926,-0.10462963,0,0,0,,0,66,66,422,1,,,,
,,,,,,d7631d00cc5115fb615d6126,66a626ef09d4e21e1a8894ec,6735ed0884142f7d4eb19d91,2024-11-14_13h30.39.767,Tarea de género gramatical,2024.2.2,Win32,60.24096386,,,,,,,,,,,,,,,,,,,,,,,222.7242,224.0174,l,1,[],[],[],[],[],[],[],0.6218,1,224.0174,224.5236,,,,,,69,FEM,DIS,150,rata,el,a,0.6218,,224.5236,224.5237,-0.025925926,-0.10462963,0,0,0,,0,67,67,68,1,,,,
,,,,,,d7631d00cc5115fb615d6126,66a626ef09d4e21e1a8894ec,6735ed0884142f7d4eb19d91,2024-11-14_13h30.39.767,Tarea de género gramatical,2024.2.2,Win32,60.24096386,,,,,,,,,,,,,,,,,,,,,,,224.5242,225.7567,l,1,[],[],[],[],[],[],[],0.5501,1,225.7567,226.2509,,,,,,375,FEM,DIS,150,cadena,el,a,0.5501,,226.251,226.2511,-0.025925926,-0.10462963,0,0,0,,0,68,68,374,1,,,,
,,,,,,d7631d00cc5115fb615d6126,66a626ef09d4e21e1a8894ec,6735ed0884142f7d4eb19d91,2024-11-14_13h30.39.767,Tarea de género gramatical,2024.2.2,Win32,60.24096386,,,,,,,,,,,,,,,,,,,,,,,226.2522,227.4342,l,1,[],[],[],[],[],[],[],0.5051,1,227.4342,227.9403,,,,,,200,FEM,CON,150,silla,,a,0.5051,,227.9408,227.9411,-0.025925926,-0.10462963,0,0,0,,0,69,69,199,1,,,,
,,,,,,d7631d00cc5115fb615d6126,66a626ef09d4e21e1a8894ec,6735ed0884142f7d4eb19d91,2024-11-14_13h30.39.767,Tarea de género gramatical,2024.2.2,Win32,60.24096386,,,,,,,,,,,,,,,,,,,,,,,227.9414,229.234,l,1,[],[],[],[],[],[],[],0.5997,1,229.2341,229.734,,,,,,331,FEM,AGR,150,cárcel,la,a,0.5997,,229.734,229.7341,-0.025925926,-0.10462963,0,0,0,,0,70,70,330,1,,,,
,,,,,,d7631d00cc5115fb615d6126,66a626ef09d4e21e1a8894ec,6735ed0884142f7d4eb19d91,2024-11-14_13h30.39.767,Tarea de género gramatical,2024.2.2,Win32,60.24096386,,,,,,,,,,,,,,,,,,,,,,,229.7344,231.0507,l,1,[],[],[],[],[],[],[],0.6346,1,231.0508,231.5403,,,,,,159,FEM,DIS,150,clase,el,a,0.6346,,231.5403,231.5403,-0.025925926,-0.10462963,0,0,0,,0,71,71,158,1,,,,
,,,,,,d7631d00cc5115fb615d6126,66a626ef09d4e21e1a8894ec,6735ed0884142f7d4eb19d91,2024-11-14_13h30.39.767,Tarea de género gramatical,2024.2.2,Win32,60.24096386,,,,,,,,,,,,,,,,,,,,,,,231.5408,232.6737,l,1,[],[],[],[],[],[],[],0.4652,1,232.6738,233.1674,,,,,,314,FEM,CON,150,señora,,a,0.4652,,233.1674,233.1674,-0.025925926,-0.10462963,0,0,0,,0,72,72,313,1,,,,
,,,,,,d7631d00cc5115fb615d6126,66a626ef09d4e21e1a8894ec,6735ed0884142f7d4eb19d91,2024-11-14_13h30.39.767,Tarea de género gramatical,2024.2.2,Win32,60.24096386,,,,,,,,,,,,,,,,,,,,,,,233.1679,234.6235,a,1,[],[],[],[],[],[],[],0.7983,1,234.6235,235.1172,,,,,,299,MAS,CON,150,rumbo,,l,0.7983,,235.1172,235.1172,-0.025925926,-0.10462963,0,0,0,,0,73,73,298,1,,,,
,,,,,,d7631d00cc5115fb615d6126,66a626ef09d4e21e1a8894ec,6735ed0884142f7d4eb19d91,2024-11-14_13h30.39.767,Tarea de género gramatical,2024.2.2,Win32,60.24096386,,,,,,,,,,,,,,,,,,,,,,,235.1176,236.2672,a,1,[],[],[],[],[],[],[],0.4859,1,236.2672,236.7733,,,,,,450,MAS,DIS,150,conejo,la,l,0.4859,,236.7738,236.774,-0.025925926,-0.10462963,0,0,0,,0,74,74,449,1,,,,
,,,,,,d7631d00cc5115fb615d6126,66a626ef09d4e21e1a8894ec,6735ed0884142f7d4eb19d91,2024-11-14_13h30.39.767,Tarea de género gramatical,2024.2.2,Win32,60.24096386,,,,,,,,,,,,,,,,,,,,,,,236.7743,237.8736,a,1,[],[],[],[],[],[],[],0.4335,1,237.8736,238.3735,,,,,,204,MAS,DIS,150,papel,la,l,0.4335,,238.3735,238.3735,-0.025925926,-0.10462963,0,0,0,,0,75,75,203,1,,,,
,,,,,,d7631d00cc5115fb615d6126,66a626ef09d4e21e1a8894ec,6735ed0884142f7d4eb19d91,2024-11-14_13h30.39.767,Tarea de género gramatical,2024.2.2,Win32,60.24096386,,,,,,,,,,,,,,,,,,,,,,,238.374,239.4843,a,1,[],[],[],[],[],[],[],0.422,1,239.4845,239.9734,,,,,,316,MAS,AGR,150,cuerpo,el,l,0.422,,239.9735,239.9735,-0.025925926,-0.10462963,0,0,0,,0,76,76,315,1,,,,
,,,,,,d7631d00cc5115fb615d6126,66a626ef09d4e21e1a8894ec,6735ed0884142f7d4eb19d91,2024-11-14_13h30.39.767,Tarea de género gramatical,2024.2.2,Win32,60.24096386,,,,,,,,,,,,,,,,,,,,,,,239.9739,241.2005,l,1,[],[],[],[],[],[],[],0.5653,1,241.2005,241.7004,,,,,,151,FEM,AGR,150,noche,la,a,0.5653,,241.7006,241.7006,-0.025925926,-0.10462963,0,0,0,,0,77,77,150,1,,,,
,,,,,,d7631d00cc5115fb615d6126,66a626ef09d4e21e1a8894ec,6735ed0884142f7d4eb19d91,2024-11-14_13h30.39.767,Tarea de género gramatical,2024.2.2,Win32,60.24096386,,,,,,,,,,,,,,,,,,,,,,,241.701,242.9346,l,1,[],[],[],[],[],[],[],0.5659,1,242.9346,243.434,,,,,,351,FEM,DIS,150,espada,el,a,0.5659,,243.4352,243.4359,-0.025925926,-0.10462963,0,0,0,,0,78,78,350,1,,,,
,,,,,,d7631d00cc5115fb615d6126,66a626ef09d4e21e1a8894ec,6735ed0884142f7d4eb19d91,2024-11-14_13h30.39.767,Tarea de género gramatical,2024.2.2,Win32,60.24096386,,,,,,,,,,,,,,,,,,,,,,,243.4365,244.8504,a,1,[],[],[],[],[],[],[],0.7357,1,244.8506,245.3533,,,,,,107,MAS,CON,150,cubo,,l,0.7357,,245.3533,245.3534,-0.025925926,-0.10462963,0,0,0,,0,79,79,106,1,,,,
,,,,,,d7631d00cc5115fb615d6126,66a626ef09d4e21e1a8894ec,6735ed0884142f7d4eb19d91,2024-11-14_13h30.39.767,Tarea de género gramatical,2024.2.2,Win32,60.24096386,,,,,,,,,,,,,,,,,,,,,,,245.3537,246.5205,l,1,[],[],[],[],[],[],[],0.4838,1,246.5205,247.0231,,,,,,171,FEM,DIS,150,mitad,el,a,0.4838,,247.0231,247.0232,-0.025925926,-0.10462963,0,0,0,,0,80,80,170,1,,,,
,,,,,,d7631d00cc5115fb615d6126,66a626ef09d4e21e1a8894ec,6735ed0884142f7d4eb19d91,2024-11-14_13h30.39.767,Tarea de género gramatical,2024.2.2,Win32,60.24096386,,,,,,,,,,,,,,,,,,,,,,,247.0235,248.2229,l,1,[],[],[],[],[],[],[],0.5316,1,248.223,248.7232,,,,,,31,FEM,AGR,150,edad,la,a,0.5316,,248.7232,248.7232,-0.025925926,-0.10462963,0,0,0,,0,81,81,30,1,,,,
,,,,,,d7631d00cc5115fb615d6126,66a626ef09d4e21e1a8894ec,6735ed0884142f7d4eb19d91,2024-11-14_13h30.39.767,Tarea de género gramatical,2024.2.2,Win32,60.24096386,,,,,,,,,,,,,,,,,,,,,,,248.7236,249.9337,l,1,[],[],[],[],[],[],[],0.5182,1,249.9337,250.4231,,,,,,387,FEM,DIS,150,página,el,a,0.5182,,250.4231,250.4232,-0.025925926,-0.10462963,0,0,0,,0,82,82,386,1,,,,
,,,,,,d7631d00cc5115fb615d6126,66a626ef09d4e21e1a8894ec,6735ed0884142f7d4eb19d91,2024-11-14_13h30.39.767,Tarea de género gramatical,2024.2.2,Win32,60.24096386,,,,,,,,,,,,,,,,,,,,,,,250.4236,251.6068,l,1,[],[],[],[],[],[],[],0.5155,1,251.6068,252.1006,,,,,,291,FEM,DIS,150,aguja,el,a,0.5155,,252.1012,252.1015,-0.025925926,-0.10462963,0,0,0,,0,83,83,290,1,,,,
,,,,,,d7631d00cc5115fb615d6126,66a626ef09d4e21e1a8894ec,6735ed0884142f7d4eb19d91,2024-11-14_13h30.39.767,Tarea de género gramatical,2024.2.2,Win32,60.24096386,,,,,,,,,,,,,,,,,,,,,,,252.1019,253.4006,l,1,[],[],[],[],[],[],[],0.6197,1,253.4007,253.89,,,,,,117,FEM,DIS,150,raya,el,a,0.6197,,253.89,253.8901,-0.025925926,-0.10462963,0,0,0,,0,84,84,116,1,,,,
,,,,,,d7631d00cc5115fb615d6126,66a626ef09d4e21e1a8894ec,6735ed0884142f7d4eb19d91,2024-11-14_13h30.39.767,Tarea de género gramatical,2024.2.2,Win32,60.24096386,,,,,,,,,,,,,,,,,,,,,,,253.8904,254.9733,l,1,[],[],[],[],[],[],[],0.4148,1,254.9733,255.4671,,,,,,289,FEM,AGR,150,tabla,la,a,0.4148,,255.4671,255.4671,-0.025925926,-0.10462963,0,0,0,,0,85,85,288,1,,,,
,,,,,,d7631d00cc5115fb615d6126,66a626ef09d4e21e1a8894ec,6735ed0884142f7d4eb19d91,2024-11-14_13h30.39.767,Tarea de género gramatical,2024.2.2,Win32,60.24096386,,,,,,,,,,,,,,,,,,,,,,,255.4677,256.5503,a,1,[],[],[],[],[],[],[],0.3933,1,256.5504,257.0565,,,,,,172,MAS,AGR,150,poder,el,l,0.3933,,257.0565,257.0565,-0.025925926,-0.10462963,0,0,0,,0,86,86,171,1,,,,
,,,,,,d7631d00cc5115fb615d6126,66a626ef09d4e21e1a8894ec,6735ed0884142f7d4eb19d91,2024-11-14_13h30.39.767,Tarea de género gramatical,2024.2.2,Win32,60.24096386,,,,,,,,,,,,,,,,,,,,,,,257.057,258.3837,a,1,[],[],[],[],[],[],[],0.6507,1,258.3837,258.8898,,,,,,324,MAS,DIS,150,cuarto,la,l,0.6507,,258.8902,258.8905,-0.025925926,-0.10462963,0,0,0,,0,87,87,323,1,,,,
,,,,,,d7631d00cc5115fb615d6126,66a626ef09d4e21e1a8894ec,6735ed0884142f7d4eb19d91,2024-11-14_13h30.39.767,Tarea de género gramatical,2024.2.2,Win32,60.24096386,,,,,,,,,,,,,,,,,,,,,,,258.8907,260.2068,a,1,[],[],[],[],[],[],[],0.6336,1,260.2069,260.7004,,,,,,287,MAS,CON,150,plato,,l,0.6336,,260.7004,260.7005,-0.025925926,-0.10462963,0,0,0,,0,88,88,286,1,,,,
,,,,,,d7631d00cc5115fb615d6126,66a626ef09d4e21e1a8894ec,6735ed0884142f7d4eb19d91,2024-11-14_13h30.39.767,Tarea de género gramatical,2024.2.2,Win32,60.24096386,,,,,,,,,,,,,,,,,,,,,,,260.7009,262.0337,l,1,[],[],[],[],[],[],[],0.65,1,262.0338,262.5398,,,,,,201,FEM,DIS,150,leche,el,a,0.65,,262.5399,262.5399,-0.025925926,-0.10462963,0,0,0,,0,89,89,200,1,,,,
,,,,,,d7631d00cc5115fb615d6126,66a626ef09d4e21e1a8894ec,6735ed0884142f7d4eb19d91,2024-11-14_13h30.39.767,Tarea de género gramatical,2024.2.2,Win32,60.24096386,,,,,,,,,,,,,,,,,,,,,,,262.5403,263.8398,l,1,[],[],[],[],[],[],[],0.6337,1,263.8399,264.3334,,,,,,302,FEM,CON,150,cabeza,,a,0.6337,,264.3335,264.3336,-0.025925926,-0.10462963,0,0,0,,0,90,90,301,1,,,,
,,,,,,d7631d00cc5115fb615d6126,66a626ef09d4e21e1a8894ec,6735ed0884142f7d4eb19d91,2024-11-14_13h30.39.767,Tarea de género gramatical,2024.2.2,Win32,60.24096386,,,,,,,,,,,,,,,,,,,,,,,264.334,265.6168,a,1,[],[],[],[],[],[],[],0.6075,1,265.6168,266.1063,,,,,,334,MAS,AGR,150,ataque,el,l,0.6075,,266.1063,266.1064,-0.025925926,-0.10462963,0,0,0,,0,91,91,333,1,,,,
,,,,,,d7631d00cc5115fb615d6126,66a626ef09d4e21e1a8894ec,6735ed0884142f7d4eb19d91,2024-11-14_13h30.39.767,Tarea de género gramatical,2024.2.2,Win32,60.24096386,,,,,,,,,,,,,,,,,,,,,,,266.1069,267.2566,l,1,[],[],[],[],[],[],[],0.4818,1,267.2567,267.7503,,,,,,339,FEM,DIS,150,salida,el,a,0.4818,,267.7508,267.7512,-0.025925926,-0.10462963,0,0,0,,0,92,92,338,1,,,,
,,,,,,d7631d00cc5115fb615d6126,66a626ef09d4e21e1a8894ec,6735ed0884142f7d4eb19d91,2024-11-14_13h30.39.767,Tarea de género gramatical,2024.2.2,Win32,60.24096386,,,,,,,,,,,,,,,,,,,,,,,267.7515,269.0003,a,1,[],[],[],[],[],[],[],0.582,1,269.0003,269.4897,,,,,,377,MAS,CON,150,jardín,,l,0.582,,269.4898,269.4898,-0.025925926,-0.10462963,0,0,0,,0,93,93,376,1,,,,
,,,,,,d7631d00cc5115fb615d6126,66a626ef09d4e21e1a8894ec,6735ed0884142f7d4eb19d91,2024-11-14_13h30.39.767,Tarea de género gramatical,2024.2.2,Win32,60.24096386,,,,,,,,,,,,,,,,,,,,,,,269.4902,270.7229,l,1,[],[],[],[],[],[],[],0.567,1,270.723,271.2171,,,,,,85,FEM,AGR,150,gira,la,a,0.567,,271.2171,271.2172,-0.025925926,-0.10462963,0,0,0,,0,94,94,84,1,,,,
,,,,,,d7631d00cc5115fb615d6126,66a626ef09d4e21e1a8894ec,6735ed0884142f7d4eb19d91,2024-11-14_13h30.39.767,Tarea de género gramatical,2024.2.2,Win32,60.24096386,,,,,,,,,,,,,,,,,,,,,,,271.2178,272.5715,a,1,[],[],[],[],[],[],[],0.6652,1,272.5716,273.0668,,,,,,288,MAS,DIS,150,grado,la,l,0.6652,,273.0668,273.0668,-0.025925926,-0.10462963,0,0,0,,0,95,95,287,1,,,,
,,,,,,d7631d00cc5115fb615d6126,66a626ef09d4e21e1a8894ec,6735ed0884142f7d4eb19d91,2024-11-14_13h30.39.767,Tarea de género gramatical,2024.2.2,Win32,60.24096386,,,,,,,,,,,,,,,,,,,,,,,273.0673,274.2004,l,1,[],[],[],[],[],[],[],0.4541,1,274.2004,274.7002,,,,,,27,FEM,DIS,150,mesa,el,a,0.4541,,274.7007,274.7015,-0.025925926,-0.10462963,0,0,0,,0,96,96,26,1,,,,
,,,,,,d7631d00cc5115fb615d6126,66a626ef09d4e21e1a8894ec,6735ed0884142f7d4eb19d91,2024-11-14_13h30.39.767,Tarea de género gramatical,2024.2.2,Win32,60.24096386,,,,,,,,,,,,,,,,,,,,,,,274.7017,275.9899,a,1,[],[],[],[],[],[],[],0.6003,1,275.9899,276.4834,,,,,,198,MAS,DIS,150,hotel,la,l,0.6003,,276.4834,276.4834,-0.025925926,-0.10462963,0,0,0,,0,97,97,197,1,,,,
,,,,,,d7631d00cc5115fb615d6126,66a626ef09d4e21e1a8894ec,6735ed0884142f7d4eb19d91,2024-11-14_13h30.39.767,Tarea de género gramatical,2024.2.2,Win32,60.24096386,,,,,,,,,,,,,,,,,,,,,,,276.484,277.873,a,1,[],[],[],[],[],[],[],0.7148,1,277.8731,278.3728,,,,,,317,MAS,CON,150,número,,l,0.7148,,278.3728,278.3729,-0.025925926,-0.10462963,0,0,0,,0,98,98,316,1,,,,
,,,,,,d7631d00cc5115fb615d6126,66a626ef09d4e21e1a8894ec,6735ed0884142f7d4eb19d91,2024-11-14_13h30.39.767,Tarea de género gramatical,2024.2.2,Win32,60.24096386,,,,,,,,,,,,,,,,,,,,,,,278.3733,279.5564,l,1,[],[],[],[],[],[],[],0.5169,1,279.5564,280.0503,,,,,,260,FEM,CON,150,barra,,a,0.5169,,280.0503,280.0503,-0.025925926,-0.10462963,0,0,0,,0,99,99,259,1,,,,
,,,,,,d7631d00cc5115fb615d6126,66a626ef09d4e21e1a8894ec,6735ed0884142f7d4eb19d91,2024-11-14_13h30.39.767,Tarea de género gramatical,2024.2.2,Win32,60.24096386,,,,,,,,,,,,,,,,,,,,,,,280.0508,281.3499,l,1,[],[],[],[],[],[],[],0.6228,1,281.3501,281.8564,,,,,,307,FEM,AGR,150,suerte,la,a,0.6228,,281.8565,281.8566,-0.025925926,-0.10462963,0,0,0,,0,100,100,306,1,,,,
,,,,,,d7631d00cc5115fb615d6126,66a626ef09d4e21e1a8894ec,6735ed0884142f7d4eb19d91,2024-11-14_13h30.39.767,Tarea de género gramatical,2024.2.2,Win32,60.24096386,,,,,,,,,,,,,,,,,,,,,,,281.857,283.3166,a,1,[],[],[],[],[],[],[],0.77,1,283.3167,283.8062,,,,,,341,MAS,CON,150,precio,,l,0.77,,283.8066,283.8069,-0.025925926,-0.10462963,0,0,0,,0,101,101,340,1,,,,
,,,,,,d7631d00cc5115fb615d6126,66a626ef09d4e21e1a8894ec,6735ed0884142f7d4eb19d91,2024-11-14_13h30.39.767,Tarea de género gramatical,2024.2.2,Win32,60.24096386,,,,,,,,,,,,,,,,,,,,,,,283.8072,284.9063,l,1,[],[],[],[],[],[],[],0.4337,1,284.9064,285.4,,,,,,290,FEM,CON,150,cabra,,a,0.4337,,285.4,285.4001,-0.025925926,-0.10462963,0,0,0,,0,102,102,289,1,,,,
,,,,,,d7631d00cc5115fb615d6126,66a626ef09d4e21e1a8894ec,6735ed0884142f7d4eb19d91,2024-11-14_13h30.39.767,Tarea de género gramatical,2024.2.2,Win32,60.24096386,,,,,,,,,,,,,,,,,,,,,,,285.4006,286.5896,a,1,[],[],[],[],[],[],[],0.5001,1,286.5896,287.0834,,,,,,154,MAS,AGR,150,padre,el,l,0.5001,,287.0834,287.0834,-0.025925926,-0.10462963,0,0,0,,0,103,103,153,1,,,,
,,,,,,d7631d00cc5115fb615d6126,66a626ef09d4e21e1a8894ec,6735ed0884142f7d4eb19d91,2024-11-14_13h30.39.767,Tarea de género gramatical,2024.2.2,Win32,60.24096386,,,,,,,,,,,,,,,,,,,,,,,287.0839,288.4731,a,1,[],[],[],[],[],[],[],0.7168,1,288.4731,288.9729,,,,,,66,MAS,DIS,150,muro,la,l,0.7168,,288.9729,288.973,-0.025925926,-0.10462963,0,0,0,,0,104,104,65,1,,,,
,,,,,,d7631d00cc5115fb615d6126,66a626ef09d4e21e1a8894ec,6735ed0884142f7d4eb19d91,2024-11-14_13h30.39.767,Tarea de género gramatical,2024.2.2,Win32,60.24096386,,,,,,,,,,,,,,,,,,,,,,,288.9734,290.5063,a,1,[],[],[],[],[],[],[],0.8671,1,290.5063,291.0061,,,,,,340,MAS,AGR,150,pasado,el,l,0.8671,,291.0065,291.0067,-0.025925926,-0.10462963,0,0,0,,0,105,105,339,1,,,,
,,,,,,d7631d00cc5115fb615d6126,66a626ef09d4e21e1a8894ec,6735ed0884142f7d4eb19d91,2024-11-14_13h30.39.767,Tarea de género gramatical,2024.2.2,Win32,60.24096386,,,,,,,,,,,,,,,,,,,,,,,291.007,292.3001,a,1,[],[],[],[],[],[],[],0.6001,1,292.3001,292.8062,,,,,,185,MAS,CON,150,sueño,,l,0.6001,,292.8062,292.8063,-0.025925926,-0.10462963,0,0,0,,0,106,106,184,1,,,,
,,,,,,d7631d00cc5115fb615d6126,66a626ef09d4e21e1a8894ec,6735ed0884142f7d4eb19d91,2024-11-14_13h30.39.767,Tarea de género gramatical,2024.2.2,Win32,60.24096386,,,,,,,,,,,,,,,,,,,,,,,292.8067,293.9665,a,1,[],[],[],[],[],[],[],0.4816,1,293.9666,294.4561,,,,,,155,MAS,CON,150,mundo,,l,0.4816,,294.4561,294.4561,-0.025925926,-0.10462963,0,0,0,,0,107,107,154,1,,,,
,,,,,,d7631d00cc5115fb615d6126,66a626ef09d4e21e1a8894ec,6735ed0884142f7d4eb19d91,2024-11-14_13h30.39.767,Tarea de género gramatical,2024.2.2,Win32,60.24096386,,,,,,,,,,,,,,,,,,,,,,,294.4565,295.573,a,1,[],[],[],[],[],[],[],0.4336,1,295.573,296.0728,,,,,,383,MAS,CON,150,parque,,l,0.4336,,296.0729,296.073,-0.025925926,-0.10462963,0,0,0,,0,108,108,382,1,,,,
,,,,,,d7631d00cc5115fb615d6126,66a626ef09d4e21e1a8894ec,6735ed0884142f7d4eb19d91,2024-11-14_13h30.39.767,Tarea de género gramatical,2024.2.2,Win32,60.24096386,,,,,,,,,,,,,,,,,,,,,,,296.0733,297.2728,a,1,[],[],[],[],[],[],[],0.5168,1,297.2729,297.7666,,,,,,108,MAS,DIS,150,hilo,la,l,0.5168,,297.7667,297.7668,-0.025925926,-0.10462963,0,0,0,,0,109,109,107,1,,,,
,,,,,,d7631d00cc5115fb615d6126,66a626ef09d4e21e1a8894ec,6735ed0884142f7d4eb19d91,2024-11-14_13h30.39.767,Tarea de género gramatical,2024.2.2,Win32,60.24096386,,,,,,,,,,,,,,,,,,,,,,,297.7674,298.9832,l,1,[],[],[],[],[],[],[],0.541,1,298.9832,299.4718,,,,,,61,FEM,AGR,150,ruta,la,a,0.541,,299.4722,299.4724,-0.025925926,-0.10462963,0,0,0,,0,110,110,60,1,,,,
,,,,,,d7631d00cc5115fb615d6126,66a626ef09d4e21e1a8894ec,6735ed0884142f7d4eb19d91,2024-11-14_13h30.39.767,Tarea de género gramatical,2024.2.2,Win32,60.24096386,,,,,,,,,,,,,,,,,,,,,,,299.4726,300.4831,a,0,[],[],[],[],[],[],[],0.3268,0,300.4835,300.9836,,,,,,223,FEM,AGR,150,plata,la,a,0.3268,,300.9836,300.9837,-0.025925926,-0.10462963,0,0,0,,0,111,111,222,1,,,,
,,,,,,d7631d00cc5115fb615d6126,66a626ef09d4e21e1a8894ec,6735ed0884142f7d4eb19d91,2024-11-14_13h30.39.767,Tarea de género gramatical,2024.2.2,Win32,60.24096386,,,,,,,,,,,,,,,,,,,,,,,300.9841,302.3,a,1,[],[],[],[],[],[],[],0.6356,1,302.3007,302.8003,,,,,,24,MAS,DIS,150,voto,la,l,0.6356,,302.8003,302.8003,-0.025925926,-0.10462963,0,0,0,,0,112,112,23,1,,,,
,,,,,,d7631d00cc5115fb615d6126,66a626ef09d4e21e1a8894ec,6735ed0884142f7d4eb19d91,2024-11-14_13h30.39.767,Tarea de género gramatical,2024.2.2,Win32,60.24096386,,,,,,,,,,,,,,,,,,,,,,,302.8007,304.0191,a,1,[],[],[],[],[],[],[],0.5357,1,304.0192,304.5167,,,,,,208,MAS,AGR,150,suelo,el,l,0.5357,,304.5168,304.5169,-0.025925926,-0.10462963,0,0,0,,0,113,113,207,1,,,,
,,,,,,d7631d00cc5115fb615d6126,66a626ef09d4e21e1a8894ec,6735ed0884142f7d4eb19d91,2024-11-14_13h30.39.767,Tarea de género gramatical,2024.2.2,Win32,60.24096386,,,,,,,,,,,,,,,,,,,,,,,304.5179,305.85,l,1,[],[],[],[],[],[],[],0.653,1,305.8501,306.3392,,,,,,417,FEM,DIS,150,cabaña,el,a,0.653,,306.3397,306.3399,-0.025925926,-0.10462963,0,0,0,,0,114,114,416,1,,,,
,,,,,,d7631d00cc5115fb615d6126,66a626ef09d4e21e1a8894ec,6735ed0884142f7d4eb19d91,2024-11-14_13h30.39.767,Tarea de género gramatical,2024.2.2,Win32,60.24096386,,,,,,,,,,,,,,,,,,,,,,,306.3402,307.5333,l,1,[],[],[],[],[],[],[],0.5071,1,307.5334,308.0226,,,,,,110,FEM,CON,150,rosa,,a,0.5071,,308.0226,308.0226,-0.025925926,-0.10462963,0,0,0,,0,115,115,109,1,,,,
,,,,,,d7631d00cc5115fb615d6126,66a626ef09d4e21e1a8894ec,6735ed0884142f7d4eb19d91,2024-11-14_13h30.39.767,Tarea de género gramatical,2024.2.2,Win32,60.24096386,,,,,,,,,,,,,,,,,,,,,,,308.023,309.7498,a,1,[],[],[],[],[],[],[],1.0692,1,309.7498,310.2394,,,,,,114,MAS,DIS,150,menú,la,l,1.0692,,310.2394,310.2394,-0.025925926,-0.10462963,0,0,0,,0,116,116,113,1,,,,
,,,,,,d7631d00cc5115fb615d6126,66a626ef09d4e21e1a8894ec,6735ed0884142f7d4eb19d91,2024-11-14_13h30.39.767,Tarea de género gramatical,2024.2.2,Win32,60.24096386,,,,,,,,,,,,,,,,,,,,,,,310.2399,311.5225,l,1,[],[],[],[],[],[],[],0.6153,1,311.5226,312.0227,,,,,,25,FEM,AGR,150,nave,la,a,0.6153,,312.0227,312.0227,-0.025925926,-0.10462963,0,0,0,,0,117,117,24,1,,,,
,,,,,,d7631d00cc5115fb615d6126,66a626ef09d4e21e1a8894ec,6735ed0884142f7d4eb19d91,2024-11-14_13h30.39.767,Tarea de género gramatical,2024.2.2,Win32,60.24096386,,,,,,,,,,,,,,,,,,,,,,,312.0231,313.2996,a,1,[],[],[],[],[],[],[],0.5898,1,313.2996,313.7891,,,,,,448,MAS,AGR,150,aceite,el,l,0.5898,,313.7891,313.7891,-0.025925926,-0.10462963,0,0,0,,0,118,118,447,1,,,,
,,,,,,d7631d00cc5115fb615d6126,66a626ef09d4e21e1a8894ec,6735ed0884142f7d4eb19d91,2024-11-14_13h30.39.767,Tarea de género gramatical,2024.2.2,Win32,60.24096386,,,,,,,,,,,,,,,,,,,,,,,313.7897,315.1893,a,1,[],[],[],[],[],[],[],0.7317,1,315.1893,315.6892,,,,,,280,MAS,AGR,150,salón,el,l,0.7317,,315.6896,315.6899,-0.025925926,-0.10462963,0,0,0,,0,119,119,279,1,,,,
,,,,,,d7631d00cc5115fb615d6126,66a626ef09d4e21e1a8894ec,6735ed0884142f7d4eb19d91,2024-11-14_13h30.39.767,Tarea de género gramatical,2024.2.2,Win32,60.24096386,,,,,,,,,,,,,,,,,,,,,,,315.6901,316.9498,a,1,[],[],[],[],[],[],[],0.5903,1,316.9498,317.4388,,,,,,256,MAS,AGR,150,techo,el,l,0.5903,,317.4388,317.4389,-0.025925926,-0.10462963,0,0,0,,0,120,120,255,1,,,,
,,,,,,d7631d00cc5115fb615d6126,66a626ef09d4e21e1a8894ec,6735ed0884142f7d4eb19d91,2024-11-14_13h30.39.767,Tarea de género gramatical,2024.2.2,Win32,60.24096386,,,,,,,,,,,,,,,,,,,,,,,317.4399,318.6894,a,1,[],[],[],[],[],[],[],0.5836,1,318.6894,319.183,,,,,,226,MAS,AGR,150,color,el,l,0.5836,,319.183,319.183,-0.025925926,-0.10462963,0,0,0,,0,121,121,225,1,,,,
,,,,,,d7631d00cc5115fb615d6126,66a626ef09d4e21e1a8894ec,6735ed0884142f7d4eb19d91,2024-11-14_13h30.39.767,Tarea de género gramatical,2024.2.2,Win32,60.24096386,,,,,,,,,,,,,,,,,,,,,,,319.1834,320.4393,l,1,[],[],[],[],[],[],[],0.5984,1,320.4393,320.9391,,,,,,350,FEM,CON,150,imagen,,a,0.5984,,320.9391,320.9392,-0.025925926,-0.10462963,0,0,0,,0,122,122,349,1,,,,
,,,,,,d7631d00cc5115fb615d6126,66a626ef09d4e21e1a8894ec,6735ed0884142f7d4eb19d91,2024-11-14_13h30.39.767,Tarea de género gramatical,2024.2.2,Win32,60.24096386,,,,,,,,,,,,,,,,,,,,,,,320.9395,322.1329,a,1,[],[],[],[],[],[],[],0.5182,1,322.1329,322.6225,,,,,,120,MAS,DIS,150,puño,la,l,0.5182,,322.623,322.6233,-0.025925926,-0.10462963,0,0,0,,0,123,123,119,1,,,,
,,,,,,d7631d00cc5115fb615d6126,66a626ef09d4e21e1a8894ec,6735ed0884142f7d4eb19d91,2024-11-14_13h30.39.767,Tarea de género gramatical,2024.2.2,Win32,60.24096386,,,,,,,,,,,,,,,,,,,,,,,322.6234,323.8162,l,1,[],[],[],[],[],[],[],0.5077,1,323.8162,324.3225,,,,,,301,FEM,AGR,150,verdad,la,a,0.5077,,324.3226,324.3227,-0.025925926,-0.10462963,0,0,0,,0,124,124,300,1,,,,
,,,,,,d7631d00cc5115fb615d6126,66a626ef09d4e21e1a8894ec,6735ed0884142f7d4eb19d91,2024-11-14_13h30.39.767,Tarea de género gramatical,2024.2.2,Win32,60.24096386,,,,,,,,,,,,,,,,,,,,,,,324.3229,325.6225,a,1,[],[],[],[],[],[],[],0.6314,1,325.6225,326.1224,,,,,,286,MAS,AGR,150,reino,el,l,0.6314,,326.1224,326.1224,-0.025925926,-0.10462963,0,0,0,,0,125,125,285,1,,,,
,,,,,,d7631d00cc5115fb615d6126,66a626ef09d4e21e1a8894ec,6735ed0884142f7d4eb19d91,2024-11-14_13h30.39.767,Tarea de género gramatical,2024.2.2,Win32,60.24096386,,,,,,,,,,,,,,,,,,,,,,,326.1228,327.3829,a,1,[],[],[],[],[],[],[],0.575,1,327.3829,327.883,,,,,,36,MAS,DIS,150,dedo,la,l,0.575,,327.883,327.8831,-0.025925926,-0.10462963,0,0,0,,0,126,126,35,1,,,,
,,,,,,d7631d00cc5115fb615d6126,66a626ef09d4e21e1a8894ec,6735ed0884142f7d4eb19d91,2024-11-14_13h30.39.767,Tarea de género gramatical,2024.2.2,Win32,60.24096386,,,,,,,,,,,,,,,,,,,,,,,327.8835,329.0559,a,1,[],[],[],[],[],[],[],0.5002,1,329.0559,329.5494,,,,,,437,MAS,CON,150,hombro,,l,0.5002,,329.5495,329.5495,-0.025925926,-0.10462963,0,0,0,,0,127,127,436,1,,,,
,,,,,,d7631d00cc5115fb615d6126,66a626ef09d4e21e1a8894ec,6735ed0884142f7d4eb19d91,2024-11-14_13h30.39.767,Tarea de género gramatical,2024.2.2,Win32,60.24096386,,,,,,,,,,,,,,,,,,,,,,,329.5499,330.6893,l,1,[],[],[],[],[],[],[],0.4823,1,330.6893,331.189,,,,,,73,FEM,AGR,150,roca,la,a,0.4823,,331.1894,331.1897,-0.025925926,-0.10462963,0,0,0,,0,128,128,72,1,,,,
,,,,,,d7631d00cc5115fb615d6126,66a626ef09d4e21e1a8894ec,6735ed0884142f7d4eb19d91,2024-11-14_13h30.39.767,Tarea de género gramatical,2024.2.2,Win32,60.24096386,,,,,,,,,,,,,,,,,,,,,,,331.1899,332.3392,l,1,[],[],[],[],[],[],[],0.467,1,332.3392,332.8328,,,,,,380,FEM,CON,150,madera,,a,0.467,,332.8328,332.8329,-0.025925926,-0.10462963,0,0,0,,0,129,129,379,1,,,,
,,,,,,d7631d00cc5115fb615d6126,66a626ef09d4e21e1a8894ec,6735ed0884142f7d4eb19d91,2024-11-14_13h30.39.767,Tarea de género gramatical,2024.2.2,Win32,60.24096386,,,,,,,,,,,,,,,,,,,,,,,332.8333,334.1329,l,1,[],[],[],[],[],[],[],0.6316,1,334.1329,334.6392,,,,,,439,FEM,AGR,150,toalla,la,a,0.6316,,334.6392,334.6392,-0.025925926,-0.10462963,0,0,0,,0,130,130,438,1,,,,
,,,,,,d7631d00cc5115fb615d6126,66a626ef09d4e21e1a8894ec,6735ed0884142f7d4eb19d91,2024-11-14_13h30.39.767,Tarea de género gramatical,2024.2.2,Win32,60.24096386,,,,,,,,,,,,,,,,,,,,,,,334.6397,335.9725,a,1,[],[],[],[],[],[],[],0.6651,1,335.9726,336.4725,,,,,,336,MAS,DIS,150,crimen,la,l,0.6651,,336.4725,336.4725,-0.025925926,-0.10462963,0,0,0,,0,131,131,335,1,,,,
,,,,,,d7631d00cc5115fb615d6126,66a626ef09d4e21e1a8894ec,6735ed0884142f7d4eb19d91,2024-11-14_13h30.39.767,Tarea de género gramatical,2024.2.2,Win32,60.24096386,,,,,,,,,,,,,,,,,,,,,,,336.4729,337.6056,l,1,[],[],[],[],[],[],[],0.4502,1,337.6056,338.0994,,,,,,361,FEM,AGR,150,oferta,la,a,0.4502,,338.0998,338.1001,-0.025925926,-0.10462963,0,0,0,,0,132,132,360,1,,,,
,,,,,,d7631d00cc5115fb615d6126,66a626ef09d4e21e1a8894ec,6735ed0884142f7d4eb19d91,2024-11-14_13h30.39.767,Tarea de género gramatical,2024.2.2,Win32,60.24096386,,,,,,,,,,,,,,,,,,,,,,,338.1003,339.2723,l,1,[],[],[],[],[],[],[],0.5152,1,339.2724,339.7725,,,,,,283,FEM,AGR,150,pluma,la,a,0.5152,,339.7725,339.7725,-0.025925926,-0.10462963,0,0,0,,0,133,133,282,1,,,,
,,,,,,d7631d00cc5115fb615d6126,66a626ef09d4e21e1a8894ec,6735ed0884142f7d4eb19d91,2024-11-14_13h30.39.767,Tarea de género gramatical,2024.2.2,Win32,60.24096386,,,,,,,,,,,,,,,,,,,,,,,339.7729,340.9829,l,1,[],[],[],[],[],[],[],0.5331,1,340.9829,341.4723,,,,,,445,FEM,AGR,150,bondad,la,a,0.5331,,341.4723,341.4723,-0.025925926,-0.10462963,0,0,0,,0,134,134,444,1,,,,
,,,,,,d7631d00cc5115fb615d6126,66a626ef09d4e21e1a8894ec,6735ed0884142f7d4eb19d91,2024-11-14_13h30.39.767,Tarea de género gramatical,2024.2.2,Win32,60.24096386,,,,,,,,,,,,,,,,,,,,,,,341.4727,342.689,l,1,[],[],[],[],[],[],[],0.5336,1,342.6891,343.189,,,,,,109,FEM,AGR,150,gota,la,a,0.5336,,343.189,343.189,-0.025925926,-0.10462963,0,0,0,,0,135,135,108,1,,,,
,,,,,,d7631d00cc5115fb615d6126,66a626ef09d4e21e1a8894ec,6735ed0884142f7d4eb19d91,2024-11-14_13h30.39.767,Tarea de género gramatical,2024.2.2,Win32,60.24096386,,,,,,,,,,,,,,,,,,,,,,,343.1894,344.3554,a,1,[],[],[],[],[],[],[],0.497,1,344.3555,344.8559,,,,,,323,MAS,CON,150,marido,,l,0.497,,344.8559,344.8559,-0.025925926,-0.10462963,0,0,0,,0,136,136,322,1,,,,
,,,,,,d7631d00cc5115fb615d6126,66a626ef09d4e21e1a8894ec,6735ed0884142f7d4eb19d91,2024-11-14_13h30.39.767,Tarea de género gramatical,2024.2.2,Win32,60.24096386,,,,,,,,,,,,,,,,,,,,,,,344.8563,346.716,a,1,[],[],[],[],[],[],[],1.1877,1,346.716,347.2224,,,,,,184,MAS,AGR,150,cielo,el,l,1.1877,,347.2228,347.2231,-0.025925926,-0.10462963,0,0,0,,0,137,137,183,1,,,,
,,,,,,d7631d00cc5115fb615d6126,66a626ef09d4e21e1a8894ec,6735ed0884142f7d4eb19d91,2024-11-14_13h30.39.767,Tarea de género gramatical,2024.2.2,Win32,60.24096386,,,,,,,,,,,,,,,,,,,,,,,347.2232,348.4326,l,1,[],[],[],[],[],[],[],0.5399,1,348.4326,348.9223,,,,,,255,FEM,DIS,150,tribu,el,a,0.5399,,348.9223,348.9223,-0.025925926,-0.10462963,0,0,0,,0,138,138,254,1,,,,
,,,,,,d7631d00cc5115fb615d6126,66a626ef09d4e21e1a8894ec,6735ed0884142f7d4eb19d91,2024-11-14_13h30.39.767,Tarea de género gramatical,2024.2.2,Win32,60.24096386,,,,,,,,,,,,,,,,,,,,,,,348.9227,350.1992,l,1,[],[],[],[],[],[],[],0.5913,1,350.1993,350.6889,,,,,,381,FEM,DIS,150,bebida,el,a,0.5913,,350.689,350.689,-0.025925926,-0.10462963,0,0,0,,0,139,139,380,1,,,,
,,,,,,d7631d00cc5115fb615d6126,66a626ef09d4e21e1a8894ec,6735ed0884142f7d4eb19d91,2024-11-14_13h30.39.767,Tarea de género gramatical,2024.2.2,Win32,60.24096386,,,,,,,,,,,,,,,,,,,,,,,350.6893,351.8391,a,1,[],[],[],[],[],[],[],0.4836,1,351.8391,352.3388,,,,,,40,MAS,AGR,150,dios,el,l,0.4836,,352.3389,352.3389,-0.025925926,-0.10462963,0,0,0,,0,140,140,39,1,,,,
,,,,,,d7631d00cc5115fb615d6126,66a626ef09d4e21e1a8894ec,6735ed0884142f7d4eb19d91,2024-11-14_13h30.39.767,Tarea de género gramatical,2024.2.2,Win32,60.24096386,,,,,,,,,,,,,,,,,,,,,,,352.3393,353.6057,a,1,[],[],[],[],[],[],[],0.6003,1,353.6057,354.1053,,,,,,262,MAS,AGR,150,video,el,l,0.6003,,354.1057,354.106,-0.025925926,-0.10462963,0,0,0,,0,141,141,261,1,,,,
,,,,,,d7631d00cc5115fb615d6126,66a626ef09d4e21e1a8894ec,6735ed0884142f7d4eb19d91,2024-11-14_13h30.39.767,Tarea de género gramatical,2024.2.2,Win32,60.24096386,,,,,,,,,,,,,,,,,,,,,,,354.1062,355.3888,a,1,[],[],[],[],[],[],[],0.6,1,355.3888,355.889,,,,,,102,MAS,DIS,150,coro,la,l,0.6,,355.889,355.8891,-0.025925926,-0.10462963,0,0,0,,0,142,142,101,1,,,,
,,,,,,d7631d00cc5115fb615d6126,66a626ef09d4e21e1a8894ec,6735ed0884142f7d4eb19d91,2024-11-14_13h30.39.767,Tarea de género gramatical,2024.2.2,Win32,60.24096386,,,,,,,,,,,,,,,,,,,,,,,355.8895,357.1492,a,1,[],[],[],[],[],[],[],0.5705,1,357.1493,357.6497,,,,,,293,MAS,CON,150,patio,,l,0.5705,,357.6497,357.6497,-0.025925926,-0.10462963,0,0,0,,0,143,143,292,1,,,,
,,,,,,d7631d00cc5115fb615d6126,66a626ef09d4e21e1a8894ec,6735ed0884142f7d4eb19d91,2024-11-14_13h30.39.767,Tarea de género gramatical,2024.2.2,Win32,60.24096386,,,,,,,,,,,,,,,,,,,,,,,357.6501,358.8831,l,1,[],[],[],[],[],[],[],0.5504,1,358.8832,359.3832,,,,,,308,FEM,CON,150,semana,,a,0.5504,,359.3832,359.3832,-0.025925926,-0.10462963,0,0,0,,0,144,144,307,1,,,,
,,,,,,d7631d00cc5115fb615d6126,66a626ef09d4e21e1a8894ec,6735ed0884142f7d4eb19d91,2024-11-14_13h30.39.767,Tarea de género gramatical,2024.2.2,Win32,60.24096386,,,,,,,,,,,,,,,,,,,,,,,359.3837,361.3825,a,1,[],[],[],[],[],[],[],1.3205,1,361.3825,361.8829,,,,,,52,MAS,AGR,150,lago,el,l,1.3205,,361.8829,361.883,-0.025925926,-0.10462963,0,0,0,,0,145,145,51,1,,,,
,,,,,,d7631d00cc5115fb615d6126,66a626ef09d4e21e1a8894ec,6735ed0884142f7d4eb19d91,2024-11-14_13h30.39.767,Tarea de género gramatical,2024.2.2,Win32,60.24096386,,,,,,,,,,,,,,,,,,,,,,,361.8839,363.3657,l,1,[],[],[],[],[],[],[],0.8101,1,363.3658,363.8657,,,,,,230,FEM,CON,150,regla,,a,0.8101,,363.8662,363.8665,-0.025925926,-0.10462963,0,0,0,,0,146,146,229,1,,,,
,,,,,,d7631d00cc5115fb615d6126,66a626ef09d4e21e1a8894ec,6735ed0884142f7d4eb19d91,2024-11-14_13h30.39.767,Tarea de género gramatical,2024.2.2,Win32,60.24096386,,,,,,,,,,,,,,,,,,,,,,,363.8668,365.216,l,1,[],[],[],[],[],[],[],0.6933,1,365.2161,365.705,,,,,,253,FEM,AGR,150,aldea,la,a,0.6933,,365.705,365.705,-0.025925926,-0.10462963,0,0,0,,0,147,147,252,1,,,,
,,,,,,d7631d00cc5115fb615d6126,66a626ef09d4e21e1a8894ec,6735ed0884142f7d4eb19d91,2024-11-14_13h30.39.767,Tarea de género gramatical,2024.2.2,Win32,60.24096386,,,,,,,,,,,,,,,,,,,,,,,365.7055,366.9562,l,1,[],[],[],[],[],[],[],0.5677,1,366.9562,367.4553,,,,,,87,FEM,DIS,150,risa,el,a,0.5677,,367.4553,367.4554,-0.025925926,-0.10462963,0,0,0,,0,148,148,86,1,,,,
,,,,,,d7631d00cc5115fb615d6126,66a626ef09d4e21e1a8894ec,6735ed0884142f7d4eb19d91,2024-11-14_13h30.39.767,Tarea de género gramatical,2024.2.2,Win32,60.24096386,,,,,,,,,,,,,,,,,,,,,,,367.4558,368.7211,a,1,[],[],[],[],[],[],[],0.5977,1,368.7211,369.2159,,,,,,64,MAS,AGR,150,saco,el,l,0.5977,,369.2159,369.2159,-0.025925926,-0.10462963,0,0,0,,0,149,149,63,1,,,,
,,,,,,d7631d00cc5115fb615d6126,66a626ef09d4e21e1a8894ec,6735ed0884142f7d4eb19d91,2024-11-14_13h30.39.767,Tarea de género gramatical,2024.2.2,Win32,60.24096386,,,,,,,,,,,,,,,,,,,,,,,369.2164,370.4659,l,1,[],[],[],[],[],[],[],0.5566,1,370.4659,370.973,,,,,,195,FEM,DIS,150,pared,el,a,0.5566,,370.9733,426.6545,-0.025925926,-0.10462963,0,0,0,space,0,150,150,194,1,55.6657,,,
,,,,,,d7631d00cc5115fb615d6126,66a626ef09d4e21e1a8894ec,6735ed0884142f7d4eb19d91,2024-11-14_13h30.39.767,Tarea de género gramatical,2024.2.2,Win32,60.24096386,,,,,,,,,,,,,,,,,,,,,,,426.6549,427.8378,l,1,[],[],[],[],[],[],[],0.4992,1,427.8379,428.3388,,,,,,104,FEM,CON,150,vela,,a,0.4992,,428.3388,428.3388,-0.025925926,-0.10462963,0,0,0,,0,151,151,103,1,,,,
,,,,,,d7631d00cc5115fb615d6126,66a626ef09d4e21e1a8894ec,6735ed0884142f7d4eb19d91,2024-11-14_13h30.39.767,Tarea de género gramatical,2024.2.2,Win32,60.24096386,,,,,,,,,,,,,,,,,,,,,,,428.3392,429.9878,a,1,[],[],[],[],[],[],[],0.967,1,429.9878,430.4881,,,,,,54,MAS,DIS,150,humo,la,l,0.967,,430.4881,430.4881,-0.025925926,-0.10462963,0,0,0,,0,152,152,53,1,,,,
,,,,,,d7631d00cc5115fb615d6126,66a626ef09d4e21e1a8894ec,6735ed0884142f7d4eb19d91,2024-11-14_13h30.39.767,Tarea de género gramatical,2024.2.2,Win32,60.24096386,,,,,,,,,,,,,,,,,,,,,,,430.4885,431.6544,a,1,[],[],[],[],[],[],[],0.4835,1,431.6545,432.1543,,,,,,100,MAS,AGR,150,nido,el,l,0.4835,,432.1544,432.1544,-0.025925926,-0.10462963,0,0,0,,0,153,153,99,1,,,,
,,,,,,d7631d00cc5115fb615d6126,66a626ef09d4e21e1a8894ec,6735ed0884142f7d4eb19d91,2024-11-14_13h30.39.767,Tarea de género gramatical,2024.2.2,Win32,60.24096386,,,,,,,,,,,,,,,,,,,,,,,432.1548,433.3211,l,1,[],[],[],[],[],[],[],0.4834,1,433.3211,433.821,,,,,,435,FEM,DIS,150,niebla,el,a,0.4834,,433.8211,433.8211,-0.025925926,-0.10462963,0,0,0,,0,154,154,434,1,,,,
,,,,,,d7631d00cc5115fb615d6126,66a626ef09d4e21e1a8894ec,6735ed0884142f7d4eb19d91,2024-11-14_13h30.39.767,Tarea de género gramatical,2024.2.2,Win32,60.24096386,,,,,,,,,,,,,,,,,,,,,,,433.8214,435.0545,a,1,[],[],[],[],[],[],[],0.5501,1,435.0546,435.5544,,,,,,47,MAS,CON,150,olor,,l,0.5501,,435.5544,435.5548,-0.025925926,-0.10462963,0,0,0,,0,155,155,46,1,,,,
,,,,,,d7631d00cc5115fb615d6126,66a626ef09d4e21e1a8894ec,6735ed0884142f7d4eb19d91,2024-11-14_13h30.39.767,Tarea de género gramatical,2024.2.2,Win32,60.24096386,,,,,,,,,,,,,,,,,,,,,,,435.5551,436.6378,l,1,[],[],[],[],[],[],[],0.4,1,436.6379,437.1377,,,,,,62,FEM,CON,150,sopa,,a,0.4,,437.1377,437.1377,-0.025925926,-0.10462963,0,0,0,,0,156,156,61,1,,,,
,,,,,,d7631d00cc5115fb615d6126,66a626ef09d4e21e1a8894ec,6735ed0884142f7d4eb19d91,2024-11-14_13h30.39.767,Tarea de género gramatical,2024.2.2,Win32,60.24096386,,,,,,,,,,,,,,,,,,,,,,,437.1381,438.4544,a,1,[],[],[],[],[],[],[],0.6336,1,438.4544,438.9544,,,,,,382,MAS,AGR,150,teatro,el,l,0.6336,,438.9544,438.9544,-0.025925926,-0.10462963,0,0,0,,0,157,157,381,1,,,,
,,,,,,d7631d00cc5115fb615d6126,66a626ef09d4e21e1a8894ec,6735ed0884142f7d4eb19d91,2024-11-14_13h30.39.767,Tarea de género gramatical,2024.2.2,Win32,60.24096386,,,,,,,,,,,,,,,,,,,,,,,438.9548,440.0879,a,1,[],[],[],[],[],[],[],0.4504,1,440.0879,440.5875,,,,,,347,MAS,CON,150,cuello,,l,0.4504,,440.5875,440.5876,-0.025925926,-0.10462963,0,0,0,,0,158,158,346,1,,,,
,,,,,,d7631d00cc5115fb615d6126,66a626ef09d4e21e1a8894ec,6735ed0884142f7d4eb19d91,2024-11-14_13h30.39.767,Tarea de género gramatical,2024.2.2,Win32,60.24096386,,,,,,,,,,,,,,,,,,,,,,,440.5879,441.8043,a,1,[],[],[],[],[],[],[],0.5334,1,441.8043,442.3041,,,,,,264,MAS,DIS,150,pollo,la,l,0.5334,,442.3045,442.3047,-0.025925926,-0.10462963,0,0,0,,0,159,159,263,1,,,,
,,,,,,d7631d00cc5115fb615d6126,66a626ef09d4e21e1a8894ec,6735ed0884142f7d4eb19d91,2024-11-14_13h30.39.767,Tarea de género gramatical,2024.2.2,Win32,60.24096386,,,,,,,,,,,,,,,,,,,,,,,442.305,443.6877,l,1,[],[],[],[],[],[],[],0.7002,1,443.6877,444.1876,,,,,,422,FEM,CON,150,rutina,,a,0.7002,,444.1877,444.1877,-0.025925926,-0.10462963,0,0,0,,0,160,160,421,1,,,,
,,,,,,d7631d00cc5115fb615d6126,66a626ef09d4e21e1a8894ec,6735ed0884142f7d4eb19d91,2024-11-14_13h30.39.767,Tarea de género gramatical,2024.2.2,Win32,60.24096386,,,,,,,,,,,,,,,,,,,,,,,444.188,445.4552,a,1,[],[],[],[],[],[],[],0.6006,1,445.4553,445.9542,,,,,,359,MAS,CON,150,bosque,,l,0.6006,,445.9542,445.9543,-0.025925926,-0.10462963,0,0,0,,0,161,161,358,1,,,,
,,,,,,d7631d00cc5115fb615d6126,66a626ef09d4e21e1a8894ec,6735ed0884142f7d4eb19d91,2024-11-14_13h30.39.767,Tarea de género gramatical,2024.2.2,Win32,60.24096386,,,,,,,,,,,,,,,,,,,,,,,445.9545,447.2041,l,1,[],[],[],[],[],[],[],0.5667,1,447.2042,447.7041,,,,,,231,FEM,DIS,150,bruja,el,a,0.5667,,447.7041,447.7042,-0.025925926,-0.10462963,0,0,0,,0,162,162,230,1,,,,
,,,,,,d7631d00cc5115fb615d6126,66a626ef09d4e21e1a8894ec,6735ed0884142f7d4eb19d91,2024-11-14_13h30.39.767,Tarea de género gramatical,2024.2.2,Win32,60.24096386,,,,,,,,,,,,,,,,,,,,,,,447.7045,448.821,a,1,[],[],[],[],[],[],[],0.4335,1,448.821,449.321,,,,,,144,MAS,DIS,150,amor,la,l,0.4335,,449.321,449.3211,-0.025925926,-0.10462963,0,0,0,,0,163,163,143,1,,,,
,,,,,,d7631d00cc5115fb615d6126,66a626ef09d4e21e1a8894ec,6735ed0884142f7d4eb19d91,2024-11-14_13h30.39.767,Tarea de género gramatical,2024.2.2,Win32,60.24096386,,,,,,,,,,,,,,,,,,,,,,,449.3215,450.4208,l,1,[],[],[],[],[],[],[],0.4166,1,450.4209,450.9208,,,,,,427,FEM,AGR,150,agenda,la,a,0.4166,,450.9212,450.9215,-0.025925926,-0.10462963,0,0,0,,0,164,164,426,1,,,,
,,,,,,d7631d00cc5115fb615d6126,66a626ef09d4e21e1a8894ec,6735ed0884142f7d4eb19d91,2024-11-14_13h30.39.767,Tarea de género gramatical,2024.2.2,Win32,60.24096386,,,,,,,,,,,,,,,,,,,,,,,450.9218,452.0376,a,1,[],[],[],[],[],[],[],0.4335,1,452.0376,452.5376,,,,,,257,MAS,CON,150,pecho,,l,0.4335,,452.5376,452.5377,-0.025925926,-0.10462963,0,0,0,,0,165,165,256,1,,,,
,,,,,,d7631d00cc5115fb615d6126,66a626ef09d4e21e1a8894ec,6735ed0884142f7d4eb19d91,2024-11-14_13h30.39.767,Tarea de género gramatical,2024.2.2,Win32,60.24096386,,,,,,,,,,,,,,,,,,,,,,,452.538,453.6377,l,1,[],[],[],[],[],[],[],0.4169,1,453.6378,454.1375,,,,,,122,FEM,CON,150,loca,,a,0.4169,,454.1375,454.1376,-0.025925926,-0.10462963,0,0,0,,0,166,166,121,1,,,,
,,,,,,d7631d00cc5115fb615d6126,66a626ef09d4e21e1a8894ec,6735ed0884142f7d4eb19d91,2024-11-14_13h30.39.767,Tarea de género gramatical,2024.2.2,Win32,60.24096386,,,,,,,,,,,,,,,,,,,,,,,454.1379,455.3374,l,1,[],[],[],[],[],[],[],0.5166,1,455.3375,455.8375,,,,,,93,FEM,DIS,150,lata,el,a,0.5166,,455.8375,455.8375,-0.025925926,-0.10462963,0,0,0,,0,167,167,92,1,,,,
,,,,,,d7631d00cc5115fb615d6126,66a626ef09d4e21e1a8894ec,6735ed0884142f7d4eb19d91,2024-11-14_13h30.39.767,Tarea de género gramatical,2024.2.2,Win32,60.24096386,,,,,,,,,,,,,,,,,,,,,,,455.8379,457.0878,a,1,[],[],[],[],[],[],[],0.5672,1,457.0878,457.5873,,,,,,76,MAS,AGR,150,lujo,el,l,0.5672,,457.5877,457.588,-0.025925926,-0.10462963,0,0,0,,0,168,168,75,1,,,,
,,,,,,d7631d00cc5115fb615d6126,66a626ef09d4e21e1a8894ec,6735ed0884142f7d4eb19d91,2024-11-14_13h30.39.767,Tarea de género gramatical,2024.2.2,Win32,60.24096386,,,,,,,,,,,,,,,,,,,,,,,457.5882,458.9376,a,1,[],[],[],[],[],[],[],0.6669,1,458.9376,459.4374,,,,,,125,MAS,CON,150,bate,,l,0.6669,,459.4374,459.4374,-0.025925926,-0.10462963,0,0,0,,0,169,169,124,1,,,,
,,,,,,d7631d00cc5115fb615d6126,66a626ef09d4e21e1a8894ec,6735ed0884142f7d4eb19d91,2024-11-14_13h30.39.767,Tarea de género gramatical,2024.2.2,Win32,60.24096386,,,,,,,,,,,,,,,,,,,,,,,459.4378,460.6876,l,1,[],[],[],[],[],[],[],0.567,1,460.6876,461.1873,,,,,,49,FEM,AGR,150,piel,la,a,0.567,,461.1873,461.1874,-0.025925926,-0.10462963,0,0,0,,0,170,170,48,1,,,,
,,,,,,d7631d00cc5115fb615d6126,66a626ef09d4e21e1a8894ec,6735ed0884142f7d4eb19d91,2024-11-14_13h30.39.767,Tarea de género gramatical,2024.2.2,Win32,60.24096386,,,,,,,,,,,,,,,,,,,,,,,461.1878,462.3375,a,1,[],[],[],[],[],[],[],0.4668,1,462.3375,462.8374,,,,,,395,MAS,CON,150,correo,,l,0.4668,,462.8374,462.8374,-0.025925926,-0.10462963,0,0,0,,0,171,171,394,1,,,,
,,,,,,d7631d00cc5115fb615d6126,66a626ef09d4e21e1a8894ec,6735ed0884142f7d4eb19d91,2024-11-14_13h30.39.767,Tarea de género gramatical,2024.2.2,Win32,60.24096386,,,,,,,,,,,,,,,,,,,,,,,462.8378,464.1207,a,1,[],[],[],[],[],[],[],0.6001,1,464.1207,464.6206,,,,,,132,MAS,DIS,150,velo,la,l,0.6001,,464.6207,464.6207,-0.025925926,-0.10462963,0,0,0,,0,172,172,131,1,,,,
,,,,,,d7631d00cc5115fb615d6126,66a626ef09d4e21e1a8894ec,6735ed0884142f7d4eb19d91,2024-11-14_13h30.39.767,Tarea de género gramatical,2024.2.2,Win32,60.24096386,,,,,,,,,,,,,,,,,,,,,,,464.621,466.0541,l,1,[],[],[],[],[],[],[],0.7502,1,466.0542,466.5544,,,,,,261,FEM,DIS,150,cueva,el,a,0.7502,,466.5548,466.5551,-0.025925926,-0.10462963,0,0,0,,0,173,173,260,1,,,,
,,,,,,d7631d00cc5115fb615d6126,66a626ef09d4e21e1a8894ec,6735ed0884142f7d4eb19d91,2024-11-14_13h30.39.767,Tarea de género gramatical,2024.2.2,Win32,60.24096386,,,,,,,,,,,,,,,,,,,,,,,466.5553,467.7875,a,1,[],[],[],[],[],[],[],0.5503,1,467.7876,468.2873,,,,,,238,MAS,AGR,150,norte,el,l,0.5503,,468.2874,468.2874,-0.025925926,-0.10462963,0,0,0,,0,174,174,237,1,,,,
,,,,,,d7631d00cc5115fb615d6126,66a626ef09d4e21e1a8894ec,6735ed0884142f7d4eb19d91,2024-11-14_13h30.39.767,Tarea de género gramatical,2024.2.2,Win32,60.24096386,,,,,,,,,,,,,,,,,,,,,,,468.2877,469.3873,a,0,[],[],[],[],[],[],[],0.4167,0,469.3876,469.8877,,,,,,362,FEM,CON,150,fuente,,a,0.4167,,469.8877,469.8878,-0.025925926,-0.10462963,0,0,0,,0,175,175,361,1,,,,
,,,,,,d7631d00cc5115fb615d6126,66a626ef09d4e21e1a8894ec,6735ed0884142f7d4eb19d91,2024-11-14_13h30.39.767,Tarea de género gramatical,2024.2.2,Win32,60.24096386,,,,,,,,,,,,,,,,,,,,,,,469.8882,471.7372,a,1,[],[],[],[],[],[],[],1.1665,1,471.7375,472.2374,,,,,,118,MAS,AGR,150,baúl,el,l,1.1665,,472.2374,472.2374,-0.025925926,-0.10462963,0,0,0,,0,176,176,117,1,,,,
,,,,,,d7631d00cc5115fb615d6126,66a626ef09d4e21e1a8894ec,6735ed0884142f7d4eb19d91,2024-11-14_13h30.39.767,Tarea de género gramatical,2024.2.2,Win32,60.24096386,,,,,,,,,,,,,,,,,,,,,,,472.2377,473.6539,l,1,[],[],[],[],[],[],[],0.7334,1,473.654,474.1541,,,,,,415,FEM,AGR,150,cabina,la,a,0.7334,,474.1546,474.1548,-0.025925926,-0.10462963,0,0,0,,0,177,177,414,1,,,,
,,,,,,d7631d00cc5115fb615d6126,66a626ef09d4e21e1a8894ec,6735ed0884142f7d4eb19d91,2024-11-14_13h30.39.767,Tarea de género gramatical,2024.2.2,Win32,60.24096386,,,,,,,,,,,,,,,,,,,,,,,474.1551,475.3039,l,1,[],[],[],[],[],[],[],0.4668,1,475.3039,475.8038,,,,,,33,FEM,DIS,150,boda,el,a,0.4668,,475.8038,475.8038,-0.025925926,-0.10462963,0,0,0,,0,178,178,32,1,,,,
,,,,,,d7631d00cc5115fb615d6126,66a626ef09d4e21e1a8894ec,6735ed0884142f7d4eb19d91,2024-11-14_13h30.39.767,Tarea de género gramatical,2024.2.2,Win32,60.24096386,,,,,,,,,,,,,,,,,,,,,,,475.8042,476.9372,l,1,[],[],[],[],[],[],[],0.4501,1,476.9372,477.4374,,,,,,182,FEM,CON,150,prisa,,a,0.4501,,477.4374,477.4374,-0.025925926,-0.10462963,0,0,0,,0,179,179,181,1,,,,
,,,,,,d7631d00cc5115fb615d6126,66a626ef09d4e21e1a8894ec,6735ed0884142f7d4eb19d91,2024-11-14_13h30.39.767,Tarea de género gramatical,2024.2.2,Win32,60.24096386,,,,,,,,,,,,,,,,,,,,,,,477.4378,478.7871,a,1,[],[],[],[],[],[],[],0.6668,1,478.7872,479.2871,,,,,,179,MAS,CON,150,viaje,,l,0.6668,,479.2872,479.2872,-0.025925926,-0.10462963,0,0,0,,0,180,180,178,1,,,,
,,,,,,d7631d00cc5115fb615d6126,66a626ef09d4e21e1a8894ec,6735ed0884142f7d4eb19d91,2024-11-14_13h30.39.767,Tarea de género gramatical,2024.2.2,Win32,60.24096386,,,,,,,,,,,,,,,,,,,,,,,479.2875,480.4872,a,1,[],[],[],[],[],[],[],0.5169,1,480.4873,480.9873,,,,,,12,MAS,DIS,150,plan,la,l,0.5169,,480.9873,480.9873,-0.025925926,-0.10462963,0,0,0,,0,181,181,11,1,,,,
,,,,,,d7631d00cc5115fb615d6126,66a626ef09d4e21e1a8894ec,6735ed0884142f7d4eb19d91,2024-11-14_13h30.39.767,Tarea de género gramatical,2024.2.2,Win32,60.24096386,,,,,,,,,,,,,,,,,,,,,,,480.9877,482.1871,a,1,[],[],[],[],[],[],[],0.5342,1,482.1871,482.6871,,,,,,136,MAS,AGR,150,vago,el,l,0.5342,,482.6875,482.6878,-0.025925926,-0.10462963,0,0,0,,0,182,182,135,1,,,,
,,,,,,d7631d00cc5115fb615d6126,66a626ef09d4e21e1a8894ec,6735ed0884142f7d4eb19d91,2024-11-14_13h30.39.767,Tarea de género gramatical,2024.2.2,Win32,60.24096386,,,,,,,,,,,,,,,,,,,,,,,482.688,483.7382,a,1,[],[],[],[],[],[],[],0.3679,1,483.7382,484.2374,,,,,,419,MAS,CON,150,cuento,,l,0.3679,,484.2374,484.2375,-0.025925926,-0.10462963,0,0,0,,0,183,183,418,1,,,,
,,,,,,d7631d00cc5115fb615d6126,66a626ef09d4e21e1a8894ec,6735ed0884142f7d4eb19d91,2024-11-14_13h30.39.767,Tarea de género gramatical,2024.2.2,Win32,60.24096386,,,,,,,,,,,,,,,,,,,,,,,484.2378,485.454,l,1,[],[],[],[],[],[],[],0.5336,1,485.4541,485.9538,,,,,,147,FEM,DIS,150,grúa,el,a,0.5336,,485.9538,485.9539,-0.025925926,-0.10462963,0,0,0,,0,184,184,146,1,,,,
,,,,,,d7631d00cc5115fb615d6126,66a626ef09d4e21e1a8894ec,6735ed0884142f7d4eb19d91,2024-11-14_13h30.39.767,Tarea de género gramatical,2024.2.2,Win32,60.24096386,,,,,,,,,,,,,,,,,,,,,,,485.9542,487.2038,a,1,[],[],[],[],[],[],[],0.5662,1,487.2039,487.7037,,,,,,137,MAS,CON,150,coco,,l,0.5662,,487.7037,487.7038,-0.025925926,-0.10462963,0,0,0,,0,185,185,136,1,,,,
,,,,,,d7631d00cc5115fb615d6126,66a626ef09d4e21e1a8894ec,6735ed0884142f7d4eb19d91,2024-11-14_13h30.39.767,Tarea de género gramatical,2024.2.2,Win32,60.24096386,,,,,,,,,,,,,,,,,,,,,,,487.7041,488.9205,a,1,[],[],[],[],[],[],[],0.5336,1,488.9206,489.4205,,,,,,210,MAS,DIS,150,baile,la,l,0.5336,,489.4208,489.4211,-0.025925926,-0.10462963,0,0,0,,0,186,186,209,1,,,,
,,,,,,d7631d00cc5115fb615d6126,66a626ef09d4e21e1a8894ec,6735ed0884142f7d4eb19d91,2024-11-14_13h30.39.767,Tarea de género gramatical,2024.2.2,Win32,60.24096386,,,,,,,,,,,,,,,,,,,,,,,489.4213,490.5872,a,1,[],[],[],[],[],[],[],0.4836,1,490.5872,491.087,,,,,,449,MAS,CON,150,payaso,,l,0.4836,,491.0871,491.0872,-0.025925926,-0.10462963,0,0,0,,0,187,187,448,1,,,,
,,,,,,d7631d00cc5115fb615d6126,66a626ef09d4e21e1a8894ec,6735ed0884142f7d4eb19d91,2024-11-14_13h30.39.767,Tarea de género gramatical,2024.2.2,Win32,60.24096386,,,,,,,,,,,,,,,,,,,,,,,491.0875,492.3536,a,1,[],[],[],[],[],[],[],0.5835,1,492.3537,492.8537,,,,,,300,MAS,DIS,150,túnel,la,l,0.5835,,492.8537,492.8537,-0.025925926,-0.10462963,0,0,0,,0,188,188,299,1,,,,
,,,,,,d7631d00cc5115fb615d6126,66a626ef09d4e21e1a8894ec,6735ed0884142f7d4eb19d91,2024-11-14_13h30.39.767,Tarea de género gramatical,2024.2.2,Win32,60.24096386,,,,,,,,,,,,,,,,,,,,,,,492.8541,494.0873,l,1,[],[],[],[],[],[],[],0.5504,1,494.0873,494.5871,,,,,,80,FEM,CON,150,vaca,,a,0.5504,,494.5871,494.5872,-0.025925926,-0.10462963,0,0,0,,0,189,189,79,1,,,,
,,,,,,d7631d00cc5115fb615d6126,66a626ef09d4e21e1a8894ec,6735ed0884142f7d4eb19d91,2024-11-14_13h30.39.767,Tarea de género gramatical,2024.2.2,Win32,60.24096386,,,,,,,,,,,,,,,,,,,,,,,494.5875,495.7869,l,1,[],[],[],[],[],[],[],0.5168,1,495.787,496.2869,,,,,,229,FEM,AGR,150,celda,la,a,0.5168,,496.287,496.287,-0.025925926,-0.10462963,0,0,0,,0,190,190,228,1,,,,
,,,,,,d7631d00cc5115fb615d6126,66a626ef09d4e21e1a8894ec,6735ed0884142f7d4eb19d91,2024-11-14_13h30.39.767,Tarea de género gramatical,2024.2.2,Win32,60.24096386,,,,,,,,,,,,,,,,,,,,,,,496.2874,497.637,l,1,[],[],[],[],[],[],[],0.6667,1,497.637,498.137,,,,,,134,FEM,CON,150,rama,,a,0.6667,,498.1373,498.1376,-0.025925926,-0.10462963,0,0,0,,0,191,191,133,1,,,,
,,,,,,d7631d00cc5115fb615d6126,66a626ef09d4e21e1a8894ec,6735ed0884142f7d4eb19d91,2024-11-14_13h30.39.767,Tarea de género gramatical,2024.2.2,Win32,60.24096386,,,,,,,,,,,,,,,,,,,,,,,498.1379,499.9704,a,1,[],[],[],[],[],[],[],1.1502,1,499.9704,500.4702,,,,,,190,MAS,AGR,150,campo,el,l,1.1502,,500.4702,500.4702,-0.025925926,-0.10462963,0,0,0,,0,192,192,189,1,,,,
,,,,,,d7631d00cc5115fb615d6126,66a626ef09d4e21e1a8894ec,6735ed0884142f7d4eb19d91,2024-11-14_13h30.39.767,Tarea de género gramatical,2024.2.2,Win32,60.24096386,,,,,,,,,,,,,,,,,,,,,,,500.4705,501.6036,a,1,[],[],[],[],[],[],[],0.4666,1,501.6036,502.1037,,,,,,167,MAS,CON,150,juego,,l,0.4666,,502.1037,502.1037,-0.025925926,-0.10462963,0,0,0,,0,193,193,166,1,,,,
,,,,,,d7631d00cc5115fb615d6126,66a626ef09d4e21e1a8894ec,6735ed0884142f7d4eb19d91,2024-11-14_13h30.39.767,Tarea de género gramatical,2024.2.2,Win32,60.24096386,,,,,,,,,,,,,,,,,,,,,,,502.1041,503.3369,l,1,[],[],[],[],[],[],[],0.5501,1,503.3369,503.8368,,,,,,391,FEM,AGR,150,altura,la,a,0.5501,,503.8368,503.8369,-0.025925926,-0.10462963,0,0,0,,0,194,194,390,1,,,,
,,,,,,d7631d00cc5115fb615d6126,66a626ef09d4e21e1a8894ec,6735ed0884142f7d4eb19d91,2024-11-14_13h30.39.767,Tarea de género gramatical,2024.2.2,Win32,60.24096386,,,,,,,,,,,,,,,,,,,,,,,503.8372,505.0369,l,1,[],[],[],[],[],[],[],0.5169,1,505.037,505.5371,,,,,,267,FEM,DIS,150,barba,el,a,0.5169,,505.5375,505.5377,-0.025925926,-0.10462963,0,0,0,,0,195,195,266,1,,,,
,,,,,,d7631d00cc5115fb615d6126,66a626ef09d4e21e1a8894ec,6735ed0884142f7d4eb19d91,2024-11-14_13h30.39.767,Tarea de género gramatical,2024.2.2,Win32,60.24096386,,,,,,,,,,,,,,,,,,,,,,,505.538,506.6036,a,1,[],[],[],[],[],[],[],0.3835,1,506.6037,507.1036,,,,,,352,MAS,AGR,150,estilo,el,l,0.3835,,507.1036,507.1036,-0.025925926,-0.10462963,0,0,0,,0,196,196,351,1,,,,
,,,,,,d7631d00cc5115fb615d6126,66a626ef09d4e21e1a8894ec,6735ed0884142f7d4eb19d91,2024-11-14_13h30.39.767,Tarea de género gramatical,2024.2.2,Win32,60.24096386,,,,,,,,,,,,,,,,,,,,,,,507.104,508.2369,a,1,[],[],[],[],[],[],[],0.4491,1,508.2369,508.7369,,,,,,11,MAS,CON,150,país,,l,0.4491,,508.7369,508.7369,-0.025925926,-0.10462963,0,0,0,,0,197,197,10,1,,,,
,,,,,,d7631d00cc5115fb615d6126,66a626ef09d4e21e1a8894ec,6735ed0884142f7d4eb19d91,2024-11-14_13h30.39.767,Tarea de género gramatical,2024.2.2,Win32,60.24096386,,,,,,,,,,,,,,,,,,,,,,,508.7373,509.9369,l,1,[],[],[],[],[],[],[],0.5165,1,509.937,510.4368,,,,,,14,FEM,CON,150,cara,,a,0.5165,,510.4368,510.4368,-0.025925926,-0.10462963,0,0,0,,0,198,198,13,1,,,,
,,,,,,d7631d00cc5115fb615d6126,66a626ef09d4e21e1a8894ec,6735ed0884142f7d4eb19d91,2024-11-14_13h30.39.767,Tarea de género gramatical,2024.2.2,Win32,60.24096386,,,,,,,,,,,,,,,,,,,,,,,510.4372,511.5035,l,1,[],[],[],[],[],[],[],0.3835,1,511.5035,512.0035,,,,,,369,FEM,DIS,150,camisa,el,a,0.3835,,512.0035,512.0036,-0.025925926,-0.10462963,0,0,0,,0,199,199,368,1,,,,
,,,,,,d7631d00cc5115fb615d6126,66a626ef09d4e21e1a8894ec,6735ed0884142f7d4eb19d91,2024-11-14_13h30.39.767,Tarea de género gramatical,2024.2.2,Win32,60.24096386,,,,,,,,,,,,,,,,,,,,,,,512.0039,513.2368,l,1,[],[],[],[],[],[],[],0.55,1,513.2368,513.7368,,,,,,421,FEM,AGR,150,novela,la,a,0.55,,513.7372,513.7375,-0.025925926,-0.10462963,0,0,0,,0,200,200,420,1,,,,
,,,,,,d7631d00cc5115fb615d6126,66a626ef09d4e21e1a8894ec,6735ed0884142f7d4eb19d91,2024-11-14_13h30.39.767,Tarea de género gramatical,2024.2.2,Win32,60.24096386,,,,,,,,,,,,,,,,,,,,,,,513.7377,515.2036,a,1,[],[],[],[],[],[],[],0.7834,1,515.2036,515.7036,,,,,,263,MAS,CON,150,carro,,l,0.7834,,515.7036,515.7037,-0.025925926,-0.10462963,0,0,0,,0,201,201,262,1,,,,
,,,,,,d7631d00cc5115fb615d6126,66a626ef09d4e21e1a8894ec,6735ed0884142f7d4eb19d91,2024-11-14_13h30.39.767,Tarea de género gramatical,2024.2.2,Win32,60.24096386,,,,,,,,,,,,,,,,,,,,,,,515.7041,516.9702,a,1,[],[],[],[],[],[],[],0.5836,1,516.9702,517.47,,,,,,77,MAS,CON,150,pico,,l,0.5836,,517.47,517.47,-0.025925926,-0.10462963,0,0,0,,0,202,202,76,1,,,,
,,,,,,d7631d00cc5115fb615d6126,66a626ef09d4e21e1a8894ec,6735ed0884142f7d4eb19d91,2024-11-14_13h30.39.767,Tarea de género gramatical,2024.2.2,Win32,60.24096386,,,,,,,,,,,,,,,,,,,,,,,517.4704,518.7702,a,1,[],[],[],[],[],[],[],0.6168,1,518.7702,519.27,,,,,,138,MAS,DIS,150,luto,la,l,0.6168,,519.27,519.2701,-0.025925926,-0.10462963,0,0,0,,0,203,203,137,1,,,,
,,,,,,d7631d00cc5115fb615d6126,66a626ef09d4e21e1a8894ec,6735ed0884142f7d4eb19d91,2024-11-14_13h30.39.767,Tarea de género gramatical,2024.2.2,Win32,60.24096386,,,,,,,,,,,,,,,,,,,,,,,519.2705,520.5033,l,1,[],[],[],[],[],[],[],0.55,1,520.5035,521.0033,,,,,,212,FEM,CON,150,cinta,,a,0.55,,521.0036,521.0039,-0.025925926,-0.10462963,0,0,0,,0,204,204,211,1,,,,
,,,,,,d7631d00cc5115fb615d6126,66a626ef09d4e21e1a8894ec,6735ed0884142f7d4eb19d91,2024-11-14_13h30.39.767,Tarea de género gramatical,2024.2.2,Win32,60.24096386,,,,,,,,,,,,,,,,,,,,,,,521.0042,522.1867,l,1,[],[],[],[],[],[],[],0.5,1,522.1868,522.6868,,,,,,207,FEM,DIS,150,playa,el,a,0.5,,522.6868,522.6868,-0.025925926,-0.10462963,0,0,0,,0,205,205,206,1,,,,
,,,,,,d7631d00cc5115fb615d6126,66a626ef09d4e21e1a8894ec,6735ed0884142f7d4eb19d91,2024-11-14_13h30.39.767,Tarea de género gramatical,2024.2.2,Win32,60.24096386,,,,,,,,,,,,,,,,,,,,,,,522.6872,523.8713,a,1,[],[],[],[],[],[],[],0.5014,1,523.8713,524.3701,,,,,,156,MAS,DIS,150,amigo,la,l,0.5014,,524.3701,524.3702,-0.025925926,-0.10462963,0,0,0,,0,206,206,155,1,,,,
,,,,,,d7631d00cc5115fb615d6126,66a626ef09d4e21e1a8894ec,6735ed0884142f7d4eb19d91,2024-11-14_13h30.39.767,Tarea de género gramatical,2024.2.2,Win32,60.24096386,,,,,,,,,,,,,,,,,,,,,,,524.3706,525.5535,a,1,[],[],[],[],[],[],[],0.5003,1,525.5535,526.0535,,,,,,101,MAS,CON,150,giro,,l,0.5003,,526.0535,526.0535,-0.025925926,-0.10462963,0,0,0,,0,207,207,100,1,,,,
,,,,,,d7631d00cc5115fb615d6126,66a626ef09d4e21e1a8894ec,6735ed0884142f7d4eb19d91,2024-11-14_13h30.39.767,Tarea de género gramatical,2024.2.2,Win32,60.24096386,,,,,,,,,,,,,,,,,,,,,,,526.0539,527.1876,l,1,[],[],[],[],[],[],[],0.451,1,527.1877,527.6867,,,,,,9,FEM,DIS,150,mamá,el,a,0.451,,527.6867,527.6868,-0.025925926,-0.10462963,0,0,0,,0,208,208,8,1,,,,
,,,,,,d7631d00cc5115fb615d6126,66a626ef09d4e21e1a8894ec,6735ed0884142f7d4eb19d91,2024-11-14_13h30.39.767,Tarea de género gramatical,2024.2.2,Win32,60.24096386,,,,,,,,,,,,,,,,,,,,,,,527.6871,528.7701,a,1,[],[],[],[],[],[],[],0.4003,1,528.7701,529.27,,,,,,215,MAS,CON,150,hueso,,l,0.4003,,529.2704,529.2706,-0.025925926,-0.10462963,0,0,0,,0,209,209,214,1,,,,
,,,,,,d7631d00cc5115fb615d6126,66a626ef09d4e21e1a8894ec,6735ed0884142f7d4eb19d91,2024-11-14_13h30.39.767,Tarea de género gramatical,2024.2.2,Win32,60.24096386,,,,,,,,,,,,,,,,,,,,,,,529.2709,530.3701,l,1,[],[],[],[],[],[],[],0.417,1,530.3702,530.87,,,,,,145,FEM,AGR,150,bota,la,a,0.417,,530.8701,530.8701,-0.025925926,-0.10462963,0,0,0,,0,210,210,144,1,,,,
,,,,,,d7631d00cc5115fb615d6126,66a626ef09d4e21e1a8894ec,6735ed0884142f7d4eb19d91,2024-11-14_13h30.39.767,Tarea de género gramatical,2024.2.2,Win32,60.24096386,,,,,,,,,,,,,,,,,,,,,,,530.8704,532.0029,a,1,[],[],[],[],[],[],[],0.4495,1,532.0029,532.5034,,,,,,370,MAS,AGR,150,seguro,el,l,0.4495,,532.5034,532.5034,-0.025925926,-0.10462963,0,0,0,,0,211,211,369,1,,,,
,,,,,,d7631d00cc5115fb615d6126,66a626ef09d4e21e1a8894ec,6735ed0884142f7d4eb19d91,2024-11-14_13h30.39.767,Tarea de género gramatical,2024.2.2,Win32,60.24096386,,,,,,,,,,,,,,,,,,,,,,,532.5038,533.6367,l,1,[],[],[],[],[],[],[],0.4503,1,533.6367,534.1366,,,,,,219,FEM,DIS,150,costa,el,a,0.4503,,534.1366,534.1366,-0.025925926,-0.10462963,0,0,0,,0,212,212,218,1,,,,
,,,,,,d7631d00cc5115fb615d6126,66a626ef09d4e21e1a8894ec,6735ed0884142f7d4eb19d91,2024-11-14_13h30.39.767,Tarea de género gramatical,2024.2.2,Win32,60.24096386,,,,,,,,,,,,,,,,,,,,,,,534.1371,535.3032,a,1,[],[],[],[],[],[],[],0.4834,1,535.3032,535.8033,,,,,,71,MAS,CON,150,pozo,,l,0.4834,,535.8037,535.8039,-0.025925926,-0.10462963,0,0,0,,0,213,213,70,1,,,,
,,,,,,d7631d00cc5115fb615d6126,66a626ef09d4e21e1a8894ec,6735ed0884142f7d4eb19d91,2024-11-14_13h30.39.767,Tarea de género gramatical,2024.2.2,Win32,60.24096386,,,,,,,,,,,,,,,,,,,,,,,535.8042,536.9533,l,1,[],[],[],[],[],[],[],0.4669,1,536.9534,537.4532,,,,,,313,FEM,AGR,150,ciudad,la,a,0.4669,,537.4532,537.4532,-0.025925926,-0.10462963,0,0,0,,0,214,214,312,1,,,,
,,,,,,d7631d00cc5115fb615d6126,66a626ef09d4e21e1a8894ec,6735ed0884142f7d4eb19d91,2024-11-14_13h30.39.767,Tarea de género gramatical,2024.2.2,Win32,60.24096386,,,,,,,,,,,,,,,,,,,,,,,537.4536,538.8201,l,1,[],[],[],[],[],[],[],0.6838,1,538.8201,539.3201,,,,,,193,FEM,AGR,150,bolsa,la,a,0.6838,,539.3201,539.3202,-0.025925926,-0.10462963,0,0,0,,0,215,215,192,1,,,,
,,,,,,d7631d00cc5115fb615d6126,66a626ef09d4e21e1a8894ec,6735ed0884142f7d4eb19d91,2024-11-14_13h30.39.767,Tarea de género gramatical,2024.2.2,Win32,60.24096386,,,,,,,,,,,,,,,,,,,,,,,539.3207,540.4032,a,1,[],[],[],[],[],[],[],0.4002,1,540.4033,540.9032,,,,,,82,MAS,AGR,150,tubo,el,l,0.4002,,540.9032,540.9032,-0.025925926,-0.10462963,0,0,0,,0,216,216,81,1,,,,
,,,,,,d7631d00cc5115fb615d6126,66a626ef09d4e21e1a8894ec,6735ed0884142f7d4eb19d91,2024-11-14_13h30.39.767,Tarea de género gramatical,2024.2.2,Win32,60.24096386,,,,,,,,,,,,,,,,,,,,,,,540.9037,542.3532,l,1,[],[],[],[],[],[],[],0.7669,1,542.3532,542.8531,,,,,,363,FEM,DIS,150,unidad,el,a,0.7669,,542.8531,542.8532,-0.025925926,-0.10462963,0,0,0,,0,217,217,362,1,,,,
,,,,,,d7631d00cc5115fb615d6126,66a626ef09d4e21e1a8894ec,6735ed0884142f7d4eb19d91,2024-11-14_13h30.39.767,Tarea de género gramatical,2024.2.2,Win32,60.24096386,,,,,,,,,,,,,,,,,,,,,,,542.8536,544.1031,l,1,[],[],[],[],[],[],[],0.5667,1,544.1031,544.6031,,,,,,116,FEM,CON,150,nube,,a,0.5667,,544.6034,544.6036,-0.025925926,-0.10462963,0,0,0,,0,218,218,115,1,,,,
,,,,,,d7631d00cc5115fb615d6126,66a626ef09d4e21e1a8894ec,6735ed0884142f7d4eb19d91,2024-11-14_13h30.39.767,Tarea de género gramatical,2024.2.2,Win32,60.24096386,,,,,,,,,,,,,,,,,,,,,,,544.6039,545.7865,l,1,[],[],[],[],[],[],[],0.5002,1,545.7865,546.2863,,,,,,19,FEM,AGR,150,niña,la,a,0.5002,,546.2863,546.2864,-0.025925926,-0.10462963,0,0,0,,0,219,219,18,1,,,,
,,,,,,d7631d00cc5115fb615d6126,66a626ef09d4e21e1a8894ec,6735ed0884142f7d4eb19d91,2024-11-14_13h30.39.767,Tarea de género gramatical,2024.2.2,Win32,60.24096386,,,,,,,,,,,,,,,,,,,,,,,546.2868,547.6199,a,0,[],[],[],[],[],[],[],0.6495,0,547.6201,548.1197,,,,,,441,FEM,DIS,150,medida,el,a,0.6495,,548.1197,548.1198,-0.025925926,-0.10462963,0,0,0,,0,220,220,440,1,,,,
,,,,,,d7631d00cc5115fb615d6126,66a626ef09d4e21e1a8894ec,6735ed0884142f7d4eb19d91,2024-11-14_13h30.39.767,Tarea de género gramatical,2024.2.2,Win32,60.24096386,,,,,,,,,,,,,,,,,,,,,,,548.1201,549.2867,l,1,[],[],[],[],[],[],[],0.4838,1,549.287,549.7863,,,,,,103,FEM,AGR,150,fama,la,a,0.4838,,549.7863,549.7863,-0.025925926,-0.10462963,0,0,0,,0,221,221,102,1,,,,
,,,,,,d7631d00cc5115fb615d6126,66a626ef09d4e21e1a8894ec,6735ed0884142f7d4eb19d91,2024-11-14_13h30.39.767,Tarea de género gramatical,2024.2.2,Win32,60.24096386,,,,,,,,,,,,,,,,,,,,,,,549.7867,550.9197,l,1,[],[],[],[],[],[],[],0.4501,1,550.9197,551.4197,,,,,,164,FEM,CON,150,novia,,a,0.4501,,551.4201,551.4204,-0.025925926,-0.10462963,0,0,0,,0,222,222,163,1,,,,
,,,,,,d7631d00cc5115fb615d6126,66a626ef09d4e21e1a8894ec,6735ed0884142f7d4eb19d91,2024-11-14_13h30.39.767,Tarea de género gramatical,2024.2.2,Win32,60.24096386,,,,,,,,,,,,,,,,,,,,,,,551.4206,552.5363,a,1,[],[],[],[],[],[],[],0.4336,1,552.5365,553.0362,,,,,,430,MAS,AGR,150,título,el,l,0.4336,,553.0363,553.0363,-0.025925926,-0.10462963,0,0,0,,0,223,223,429,1,,,,
,,,,,,d7631d00cc5115fb615d6126,66a626ef09d4e21e1a8894ec,6735ed0884142f7d4eb19d91,2024-11-14_13h30.39.767,Tarea de género gramatical,2024.2.2,Win32,60.24096386,,,,,,,,,,,,,,,,,,,,,,,553.0367,554.303,a,1,[],[],[],[],[],[],[],0.5835,1,554.303,554.8028,,,,,,143,MAS,CON,150,faro,,l,0.5835,,554.8028,554.8028,-0.025925926,-0.10462963,0,0,0,,0,224,224,142,1,,,,
,,,,,,d7631d00cc5115fb615d6126,66a626ef09d4e21e1a8894ec,6735ed0884142f7d4eb19d91,2024-11-14_13h30.39.767,Tarea de género gramatical,2024.2.2,Win32,60.24096386,,,,,,,,,,,,,,,,,,,,,,,554.8032,556.3363,a,1,[],[],[],[],[],[],[],0.8667,1,556.3363,556.8361,,,,,,233,MAS,CON,150,golpe,,l,0.8667,,556.8361,556.8362,-0.025925926,-0.10462963,0,0,0,,0,225,225,232,1,,,,
,,,,,,d7631d00cc5115fb615d6126,66a626ef09d4e21e1a8894ec,6735ed0884142f7d4eb19d91,2024-11-14_13h30.39.767,Tarea de género gramatical,2024.2.2,Win32,60.24096386,,,,,,,,,,,,,,,,,,,,,,,556.8366,557.9529,a,1,[],[],[],[],[],[],[],0.4335,1,557.9529,558.4529,,,,,,240,MAS,DIS,150,ruido,la,l,0.4335,,558.4529,558.4529,-0.025925926,-0.10462963,0,0,0,,0,226,226,239,1,,,,
,,,,,,d7631d00cc5115fb615d6126,66a626ef09d4e21e1a8894ec,6735ed0884142f7d4eb19d91,2024-11-14_13h30.39.767,Tarea de género gramatical,2024.2.2,Win32,60.24096386,,,,,,,,,,,,,,,,,,,,,,,558.4533,559.5696,a,1,[],[],[],[],[],[],[],0.4501,1,559.5696,560.0696,,,,,,318,MAS,DIS,150,pueblo,la,l,0.4501,,560.07,560.0703,-0.025925926,-0.10462963,0,0,0,,0,227,227,317,1,,,,
,,,,,,d7631d00cc5115fb615d6126,66a626ef09d4e21e1a8894ec,6735ed0884142f7d4eb19d91,2024-11-14_13h30.39.767,Tarea de género gramatical,2024.2.2,Win32,60.24096386,,,,,,,,,,,,,,,,,,,,,,,560.0705,561.3195,l,1,[],[],[],[],[],[],[],0.5666,1,561.3196,561.8196,,,,,,91,FEM,AGR,150,hoja,la,a,0.5666,,561.8196,561.8197,-0.025925926,-0.10462963,0,0,0,,0,228,228,90,1,,,,
,,,,,,d7631d00cc5115fb615d6126,66a626ef09d4e21e1a8894ec,6735ed0884142f7d4eb19d91,2024-11-14_13h30.39.767,Tarea de género gramatical,2024.2.2,Win32,60.24096386,,,,,,,,,,,,,,,,,,,,,,,561.8199,563.0695,l,1,[],[],[],[],[],[],[],0.5667,1,563.0695,563.5695,,,,,,97,FEM,AGR,150,capa,la,a,0.5667,,563.5695,563.5695,-0.025925926,-0.10462963,0,0,0,,0,229,229,96,1,,,,
,,,,,,d7631d00cc5115fb615d6126,66a626ef09d4e21e1a8894ec,6735ed0884142f7d4eb19d91,2024-11-14_13h30.39.767,Tarea de género gramatical,2024.2.2,Win32,60.24096386,,,,,,,,,,,,,,,,,,,,,,,563.5698,564.7532,l,1,[],[],[],[],[],[],[],0.5002,1,564.7532,565.2531,,,,,,205,FEM,AGR,150,reina,la,a,0.5002,,565.2531,565.2531,-0.025925926,-0.10462963,0,0,0,,0,230,230,204,1,,,,
,,,,,,d7631d00cc5115fb615d6126,66a626ef09d4e21e1a8894ec,6735ed0884142f7d4eb19d91,2024-11-14_13h30.39.767,Tarea de género gramatical,2024.2.2,Win32,60.24096386,,,,,,,,,,,,,,,,,,,,,,,565.2536,566.453,l,1,[],[],[],[],[],[],[],0.5168,1,566.453,566.9528,,,,,,405,FEM,DIS,150,parada,el,a,0.5168,,566.9532,566.9535,-0.025925926,-0.10462963,0,0,0,,0,231,231,404,1,,,,
,,,,,,d7631d00cc5115fb615d6126,66a626ef09d4e21e1a8894ec,6735ed0884142f7d4eb19d91,2024-11-14_13h30.39.767,Tarea de género gramatical,2024.2.2,Win32,60.24096386,,,,,,,,,,,,,,,,,,,,,,,566.9537,568.2365,l,1,[],[],[],[],[],[],[],0.6006,1,568.2365,568.7365,,,,,,38,FEM,CON,150,obra,,a,0.6006,,568.7365,568.7365,-0.025925926,-0.10462963,0,0,0,,0,232,232,37,1,,,,
,,,,,,d7631d00cc5115fb615d6126,66a626ef09d4e21e1a8894ec,6735ed0884142f7d4eb19d91,2024-11-14_13h30.39.767,Tarea de género gramatical,2024.2.2,Win32,60.24096386,,,,,,,,,,,,,,,,,,,,,,,568.7369,569.9529,a,1,[],[],[],[],[],[],[],0.5335,1,569.9529,570.4529,,,,,,130,MAS,AGR,150,yate,el,l,0.5335,,570.453,570.453,-0.025925926,-0.10462963,0,0,0,,0,233,233,129,1,,,,
,,,,,,d7631d00cc5115fb615d6126,66a626ef09d4e21e1a8894ec,6735ed0884142f7d4eb19d91,2024-11-14_13h30.39.767,Tarea de género gramatical,2024.2.2,Win32,60.24096386,,,,,,,,,,,,,,,,,,,,,,,570.4534,571.7361,a,1,[],[],[],[],[],[],[],0.6167,1,571.7361,572.236,,,,,,58,MAS,AGR,150,mono,el,l,0.6167,,572.236,572.236,-0.025925926,-0.10462963,0,0,0,,0,234,234,57,1,,,,
,,,,,,d7631d00cc5115fb615d6126,66a626ef09d4e21e1a8894ec,6735ed0884142f7d4eb19d91,2024-11-14_13h30.39.767,Tarea de género gramatical,2024.2.2,Win32,60.24096386,,,,,,,,,,,,,,,,,,,,,,,572.2364,573.5528,l,1,[],[],[],[],[],[],[],0.6501,1,573.5529,574.0529,,,,,,411,FEM,DIS,150,actriz,el,a,0.6501,,574.053,574.053,-0.025925926,-0.10462963,0,0,0,,0,235,235,410,1,,,,
,,,,,,d7631d00cc5115fb615d6126,66a626ef09d4e21e1a8894ec,6735ed0884142f7d4eb19d91,2024-11-14_13h30.39.767,Tarea de género gramatical,2024.2.2,Win32,60.24096386,,,,,,,,,,,,,,,,,,,,,,,574.0534,575.3195,l,1,[],[],[],[],[],[],[],0.5836,1,575.3195,575.8195,,,,,,165,FEM,DIS,150,amiga,el,a,0.5836,,575.8199,575.8201,-0.025925926,-0.10462963,0,0,0,,0,236,236,164,1,,,,
,,,,,,d7631d00cc5115fb615d6126,66a626ef09d4e21e1a8894ec,6735ed0884142f7d4eb19d91,2024-11-14_13h30.39.767,Tarea de género gramatical,2024.2.2,Win32,60.24096386,,,,,,,,,,,,,,,,,,,,,,,575.8204,577.0194,l,0,[],[],[],[],[],[],[],0.5168,0,577.0196,577.5194,,,,,,414,MAS,DIS,150,sótano,la,l,0.5168,,577.5194,577.5195,-0.025925926,-0.10462963,0,0,0,,0,237,237,413,1,,,,
,,,,,,d7631d00cc5115fb615d6126,66a626ef09d4e21e1a8894ec,6735ed0884142f7d4eb19d91,2024-11-14_13h30.39.767,Tarea de género gramatical,2024.2.2,Win32,60.24096386,,,,,,,,,,,,,,,,,,,,,,,577.5198,578.6195,a,1,[],[],[],[],[],[],[],0.4169,1,578.6197,579.1194,,,,,,353,MAS,CON,150,verano,,l,0.4169,,579.1195,579.1195,-0.025925926,-0.10462963,0,0,0,,0,238,238,352,1,,,,
,,,,,,d7631d00cc5115fb615d6126,66a626ef09d4e21e1a8894ec,6735ed0884142f7d4eb19d91,2024-11-14_13h30.39.767,Tarea de género gramatical,2024.2.2,Win32,60.24096386,,,,,,,,,,,,,,,,,,,,,,,579.1198,580.336,l,1,[],[],[],[],[],[],[],0.5334,1,580.336,580.8359,,,,,,225,FEM,DIS,150,pieza,el,a,0.5334,,580.836,580.8361,-0.025925926,-0.10462963,0,0,0,,0,239,239,224,1,,,,
,,,,,,d7631d00cc5115fb615d6126,66a626ef09d4e21e1a8894ec,6735ed0884142f7d4eb19d91,2024-11-14_13h30.39.767,Tarea de género gramatical,2024.2.2,Win32,60.24096386,,,,,,,,,,,,,,,,,,,,,,,580.8365,582.7029,l,1,[],[],[],[],[],[],[],1.1836,1,582.703,583.2034,,,,,,278,FEM,CON,150,presa,,a,1.1836,,583.2038,583.2041,-0.025925926,-0.10462963,0,0,0,,0,240,240,277,1,,,,
,,,,,,d7631d00cc5115fb615d6126,66a626ef09d4e21e1a8894ec,6735ed0884142f7d4eb19d91,2024-11-14_13h30.39.767,Tarea de género gramatical,2024.2.2,Win32,60.24096386,,,,,,,,,,,,,,,,,,,,,,,583.2043,584.836,l,1,[],[],[],[],[],[],[],0.95,1,584.8361,585.336,,,,,,315,FEM,DIS,150,manera,el,a,0.95,,585.336,585.3361,-0.025925926,-0.10462963,0,0,0,,0,241,241,314,1,,,,
,,,,,,d7631d00cc5115fb615d6126,66a626ef09d4e21e1a8894ec,6735ed0884142f7d4eb19d91,2024-11-14_13h30.39.767,Tarea de género gramatical,2024.2.2,Win32,60.24096386,,,,,,,,,,,,,,,,,,,,,,,585.3364,586.4861,l,1,[],[],[],[],[],[],[],0.4669,1,586.4861,586.986,,,,,,189,FEM,DIS,150,pista,el,a,0.4669,,586.986,586.9861,-0.025925926,-0.10462963,0,0,0,,0,242,242,188,1,,,,
,,,,,,d7631d00cc5115fb615d6126,66a626ef09d4e21e1a8894ec,6735ed0884142f7d4eb19d91,2024-11-14_13h30.39.767,Tarea de género gramatical,2024.2.2,Win32,60.24096386,,,,,,,,,,,,,,,,,,,,,,,586.9864,588.2028,l,1,[],[],[],[],[],[],[],0.5334,1,588.2028,588.703,,,,,,163,FEM,AGR,150,calle,la,a,0.5334,,588.703,588.7031,-0.025925926,-0.10462963,0,0,0,,0,243,243,162,1,,,,
,,,,,,d7631d00cc5115fb615d6126,66a626ef09d4e21e1a8894ec,6735ed0884142f7d4eb19d91,2024-11-14_13h30.39.767,Tarea de género gramatical,2024.2.2,Win32,60.24096386,,,,,,,,,,,,,,,,,,,,,,,588.7035,589.8194,l,1,[],[],[],[],[],[],[],0.4335,1,589.8194,590.3194,,,,,,356,FEM,CON,150,piedra,,a,0.4335,,590.3194,590.3194,-0.025925926,-0.10462963,0,0,0,,0,244,244,355,1,,,,
,,,,,,d7631d00cc5115fb615d6126,66a626ef09d4e21e1a8894ec,6735ed0884142f7d4eb19d91,2024-11-14_13h30.39.767,Tarea de género gramatical,2024.2.2,Win32,60.24096386,,,,,,,,,,,,,,,,,,,,,,,590.3198,591.4027,l,0,[],[],[],[],[],[],[],0.4002,0,591.4029,591.9026,,,,,,274,MAS,AGR,150,motor,el,l,0.4002,,591.9029,591.9032,-0.025925926,-0.10462963,0,0,0,,0,245,245,273,1,,,,
,,,,,,d7631d00cc5115fb615d6126,66a626ef09d4e21e1a8894ec,6735ed0884142f7d4eb19d91,2024-11-14_13h30.39.767,Tarea de género gramatical,2024.2.2,Win32,60.24096386,,,,,,,,,,,,,,,,,,,,,,,591.9034,593.0359,a,1,[],[],[],[],[],[],[],0.4501,1,593.0363,593.5361,,,,,,258,MAS,DIS,150,polvo,la,l,0.4501,,593.5361,593.5361,-0.025925926,-0.10462963,0,0,0,,0,246,246,257,1,,,,
,,,,,,d7631d00cc5115fb615d6126,66a626ef09d4e21e1a8894ec,6735ed0884142f7d4eb19d91,2024-11-14_13h30.39.767,Tarea de género gramatical,2024.2.2,Win32,60.24096386,,,,,,,,,,,,,,,,,,,,,,,593.5365,594.6526,a,1,[],[],[],[],[],[],[],0.4335,1,594.6526,595.1525,,,,,,216,MAS,DIS,150,éxito,la,l,0.4335,,595.1525,595.1525,-0.025925926,-0.10462963,0,0,0,,0,247,247,215,1,,,,
,,,,,,d7631d00cc5115fb615d6126,66a626ef09d4e21e1a8894ec,6735ed0884142f7d4eb19d91,2024-11-14_13h30.39.767,Tarea de género gramatical,2024.2.2,Win32,60.24096386,,,,,,,,,,,,,,,,,,,,,,,595.1529,596.3526,l,1,[],[],[],[],[],[],[],0.5168,1,596.3526,596.8526,,,,,,266,FEM,CON,150,jaula,,a,0.5168,,596.8526,596.8526,-0.025925926,-0.10462963,0,0,0,,0,248,248,265,1,,,,
,,,,,,d7631d00cc5115fb615d6126,66a626ef09d4e21e1a8894ec,6735ed0884142f7d4eb19d91,2024-11-14_13h30.39.767,Tarea de género gramatical,2024.2.2,Win32,60.24096386,,,,,,,,,,,,,,,,,,,,,,,596.853,598.0524,a,1,[],[],[],[],[],[],[],0.5167,1,598.0524,598.5524,,,,,,342,MAS,DIS,150,abuelo,la,l,0.5167,,598.5529,598.5531,-0.025925926,-0.10462963,0,0,0,,0,249,249,341,1,,,,
,,,,,,d7631d00cc5115fb615d6126,66a626ef09d4e21e1a8894ec,6735ed0884142f7d4eb19d91,2024-11-14_13h30.39.767,Tarea de género gramatical,2024.2.2,Win32,60.24096386,,,,,,,,,,,,,,,,,,,,,,,598.5534,599.7858,l,1,[],[],[],[],[],[],[],0.5501,1,599.7858,600.2858,,,,,,139,FEM,AGR,150,pipa,la,a,0.5501,,600.2859,600.2859,-0.025925926,-0.10462963,0,0,0,,0,250,250,138,1,,,,
,,,,,,d7631d00cc5115fb615d6126,66a626ef09d4e21e1a8894ec,6735ed0884142f7d4eb19d91,2024-11-14_13h30.39.767,Tarea de género gramatical,2024.2.2,Win32,60.24096386,,,,,,,,,,,,,,,,,,,,,,,600.2862,601.4695,a,1,[],[],[],[],[],[],[],0.5167,1,601.4695,601.9692,,,,,,436,MAS,AGR,150,objeto,el,l,0.5167,,601.9693,601.9693,-0.025925926,-0.10462963,0,0,0,,0,251,251,435,1,,,,
