counterbalancing_condition,consent_prescreening.block_1/declare_consent,consent_prescreening.block_1/age_years,consent_prescreening.block_1/gender,consent_prescreening.block_1/language_disorder,consent_prescreening.block_1/first_language,PROLIFIC_PID,STUDY_ID,SESSION_ID,date,expName,psychopyVersion,OS,frameRate,check_prescreening_answers.started,check_prescreening_answers.stopped,Instructions.started,Instructions.stopped,instr_done_keyboard.keys,instr_done_keyboard.rt,instr_done_keyboard.duration,instr_done_touch.x,instr_done_touch.y,instr_done_touch.leftButton,instr_done_touch.midButton,instr_done_touch.rightButton,instruction_pages.thisRepN,instruction_pages.thisTrialN,instruction_pages.thisN,instruction_pages.thisIndex,instruction_pages.ran,pageN,phase,instruct_text,has_image,instruct_image,presentTrial.started,presentTrial.stopped,response.keys,response.corr,touch_resp.x,touch_resp.y,touch_resp.leftButton,touch_resp.midButton,touch_resp.rightButton,touch_resp.time,touch_resp.clicked_name,rt,corr,feedback.started,feedback.stopped,practice_trials.thisRepN,practice_trials.thisTrialN,practice_trials.thisN,practice_trials.thisIndex,practice_trials.ran,TrialID,StimulusType,Condition,PrimeDuration,Prime,Flanker,corrAns,response.rt,response.duration,Break.started,Break.stopped,break_done_touch.x,break_done_touch.y,break_done_touch.leftButton,break_done_touch.midButton,break_done_touch.rightButton,break_done_keyboard.keys,experiment_trials.thisRepN,experiment_trials.thisTrialN,experiment_trials.thisN,experiment_trials.thisIndex,experiment_trials.ran,break_done_keyboard.rt,break_done_keyboard.duration,End.started,End.stopped
0,"[""over_18"",""comfortable"",""read_info"",""consent_given""]",27,F,"[""none""]","[""spanish""]",d7f7dfee34b63f8366a488a6,66a626ef09d4e21e1a8894ec,6735ecfd314aa68701327ddd,2024-11-14_09h36.53.809,Tarea de género gramatical,2024.2.2,Win32,163.9344262,,,,,,,,,,,,,,,,,,,,,,,,,,,,,,,,,,,,,,,,,,,,,,,,,,,,,,,,,,,,,,,,,,,,
,,,,,,d7f7dfee34b63f8366a488a6,66a626ef09d4e21e1a8894ec,6735ecfd314aa68701327ddd,2024-11-14_09h36.53.809,Tarea de género gramatical,2024.2.2,Win32,163.9344262,15.2861,15.2862,,,,,,,,,,,,,,,,,,,,,,,,,,,,,,,,,,,,,,,,,,,,,,,,,,,,,,,,,,,,,,,,,,
,,,,,,d7f7dfee34b63f8366a488a6,66a626ef09d4e21e1a8894ec,6735ecfd314aa68701327ddd,2024-11-14_09h36.53.809,Tarea de género gramatical,2024.2.2,Win32,163.9344262,,,15.2998,25.941,space,10.6173,,-0.010185185,-0.298148148,0,0,0,0,0,0,0,1,1,instructions,"INSTRUCCIONES
Va a realizar una prueba de selección gramatical. Desde el comienzo de la prueba mire siempre al centro de la pantalla. Al cabo de un momento, aparecerán palabras. La tarea consiste en determinar si la palabra del centro (siempre será un sustantivo), pertenece al género masculino o femenino.

Pulse la tecla ESPACIO o toque el botón de abajo para continuar.",0,keyboardresponseMF.png,,,,,,,,,,,,,,,,,,,,,,,,,,,,,,,,,,,,,,,,,,,,,,
,,,,,,d7f7dfee34b63f8366a488a6,66a626ef09d4e21e1a8894ec,6735ecfd314aa68701327ddd,2024-11-14_09h36.53.809,Tarea de género gramatical,2024.2.2,Win32,163.9344262,,,25.9425,35.677,space,9.7005,,0.077777778,-0.298148148,0,0,0,0,1,1,1,1,2,instructions,"Si su dispositivo tiene teclado, pulse la tecla ""A"" para las palabras en masculino (por ejemplo: ""arroz"") y la tecla ""L"" para las palabras en femenino (por ejemplo: ""mano"").
Pulse la tecla ESPACIO o toque el botón de abajo para continuar.",1,keyboardresponseMF.png,,,,,,,,,,,,,,,,,,,,,,,,,,,,,,,,,,,,,,,,,,,,,,
,,,,,,d7f7dfee34b63f8366a488a6,66a626ef09d4e21e1a8894ec,6735ecfd314aa68701327ddd,2024-11-14_09h36.53.809,Tarea de género gramatical,2024.2.2,Win32,163.9344262,,,35.6782,39.5135,space,3.8084,,0.077777778,-0.298148148,0,0,0,0,2,2,2,1,3,instructions,"Si utiliza un dispositivo sólo táctil, colóquelo en horizontal y utilice los botones de la pantalla. No utilice el ratón.
Pulse la tecla ESPACIO o toque el botón de abajo para continuar.",2,touchresponseMF.png,,,,,,,,,,,,,,,,,,,,,,,,,,,,,,,,,,,,,,,,,,,,,,
,,,,,,d7f7dfee34b63f8366a488a6,66a626ef09d4e21e1a8894ec,6735ecfd314aa68701327ddd,2024-11-14_09h36.53.809,Tarea de género gramatical,2024.2.2,Win32,163.9344262,,,39.5151,45.5951,space,6.0749,,0.077777778,-0.298148148,0,0,0,0,3,3,3,1,4,instructions,"Es muy importante que responda con la mayor rapidez y precisión posibles, ya que cada cadena de letras sólo estará en pantalla durante un instante. Si no responde en ese tiempo, aparecerá el mensaje ""Muy lento"" y el experimento pasará a la siguiente palabra. Los primeros 15 intentos serán de práctica y habrá dos descansos durante la prueba.
Pulse la tecla ESPACIO o toque el botón de abajo para iniciar la parte de práctica.",0,keyboardresponseMF.png,,,,,,,,,,,,,,,,,,,,,,,,,,,,,,,,,,,,,,,,,,,,,,
,,,,,,d7f7dfee34b63f8366a488a6,66a626ef09d4e21e1a8894ec,6735ecfd314aa68701327ddd,2024-11-14_09h36.53.809,Tarea de género gramatical,2024.2.2,Win32,163.9344262,,,,,,,,,,,,,,,,,,,,,,,45.6051,48.253,,0,[],[],[],[],[],[],[],,-1,48.2531,48.7526,0,0,0,3,1,2004,FEM,AGR,150,venta,la,a,,,,,,,,,,,,,,,,,,,
,,,,,,d7f7dfee34b63f8366a488a6,66a626ef09d4e21e1a8894ec,6735ecfd314aa68701327ddd,2024-11-14_09h36.53.809,Tarea de género gramatical,2024.2.2,Win32,163.9344262,,,,,,,,,,,,,,,,,,,,,,,48.7535,50.2618,l,0,[],[],[],[],[],[],[],0.8484,0,50.2649,50.762,0,1,1,14,1,2015,MAS,DIS,150,robot,la,l,0.8484,,,,,,,,,,,,,,,,,,
,,,,,,d7f7dfee34b63f8366a488a6,66a626ef09d4e21e1a8894ec,6735ecfd314aa68701327ddd,2024-11-14_09h36.53.809,Tarea de género gramatical,2024.2.2,Win32,163.9344262,,,,,,,,,,,,,,,,,,,,,,,50.7628,51.9863,l,1,[],[],[],[],[],[],[],0.5698,1,51.9869,52.4832,0,2,2,0,1,2001,FEM,AGR,150,nuca,la,a,0.5698,,,,,,,,,,,,,,,,,,
,,,,,,d7f7dfee34b63f8366a488a6,66a626ef09d4e21e1a8894ec,6735ecfd314aa68701327ddd,2024-11-14_09h36.53.809,Tarea de género gramatical,2024.2.2,Win32,163.9344262,,,,,,,,,,,,,,,,,,,,,,,52.4839,53.8739,a,0,[],[],[],[],[],[],[],0.7336,0,53.8744,54.3709,0,3,3,5,1,2006,FEM,DIS,150,serie,el,a,0.7336,,,,,,,,,,,,,,,,,,
,,,,,,d7f7dfee34b63f8366a488a6,66a626ef09d4e21e1a8894ec,6735ecfd314aa68701327ddd,2024-11-14_09h36.53.809,Tarea de género gramatical,2024.2.2,Win32,163.9344262,,,,,,,,,,,,,,,,,,,,,,,54.3716,55.7742,a,1,[],[],[],[],[],[],[],0.7442,1,55.7745,56.2739,0,4,4,13,1,2014,MAS,CON,150,siglo,,l,0.7442,,,,,,,,,,,,,,,,,,
,,,,,,d7f7dfee34b63f8366a488a6,66a626ef09d4e21e1a8894ec,6735ecfd314aa68701327ddd,2024-11-14_09h36.53.809,Tarea de género gramatical,2024.2.2,Win32,163.9344262,,,,,,,,,,,,,,,,,,,,,,,56.2746,57.3953,l,1,[],[],[],[],[],[],[],0.4609,1,57.3953,57.8983,0,5,5,4,1,2005,FEM,CON,150,placa,,a,0.4609,,,,,,,,,,,,,,,,,,
,,,,,,d7f7dfee34b63f8366a488a6,66a626ef09d4e21e1a8894ec,6735ecfd314aa68701327ddd,2024-11-14_09h36.53.809,Tarea de género gramatical,2024.2.2,Win32,163.9344262,,,,,,,,,,,,,,,,,,,,,,,57.8987,58.8073,a,1,[],[],[],[],[],[],[],0.2488,1,58.8074,59.3043,0,6,6,8,1,2009,MAS,DIS,150,puerto,la,l,0.2488,,,,,,,,,,,,,,,,,,
,,,,,,d7f7dfee34b63f8366a488a6,66a626ef09d4e21e1a8894ec,6735ecfd314aa68701327ddd,2024-11-14_09h36.53.809,Tarea de género gramatical,2024.2.2,Win32,163.9344262,,,,,,,,,,,,,,,,,,,,,,,59.3048,60.35,l,0,[],[],[],[],[],[],[],0.3817,0,60.3504,60.847,0,7,7,12,1,2013,MAS,AGR,150,acero,el,l,0.3817,,,,,,,,,,,,,,,,,,
,,,,,,d7f7dfee34b63f8366a488a6,66a626ef09d4e21e1a8894ec,6735ecfd314aa68701327ddd,2024-11-14_09h36.53.809,Tarea de género gramatical,2024.2.2,Win32,163.9344262,,,,,,,,,,,,,,,,,,,,,,,60.8474,61.7892,l,1,[],[],[],[],[],[],[],0.2851,1,61.7896,62.2862,0,8,8,1,1,2002,FEM,CON,150,pala,,a,0.2851,,,,,,,,,,,,,,,,,,
,,,,,,d7f7dfee34b63f8366a488a6,66a626ef09d4e21e1a8894ec,6735ecfd314aa68701327ddd,2024-11-14_09h36.53.809,Tarea de género gramatical,2024.2.2,Win32,163.9344262,,,,,,,,,,,,,,,,,,,,,,,62.2866,63.3044,l,1,[],[],[],[],[],[],[],0.3577,1,63.3044,63.8001,0,9,9,7,1,2008,FEM,CON,150,siesta,,a,0.3577,,,,,,,,,,,,,,,,,,
,,,,,,d7f7dfee34b63f8366a488a6,66a626ef09d4e21e1a8894ec,6735ecfd314aa68701327ddd,2024-11-14_09h36.53.809,Tarea de género gramatical,2024.2.2,Win32,163.9344262,,,,,,,,,,,,,,,,,,,,,,,63.8009,64.6531,l,1,[],[],[],[],[],[],[],0.1941,1,64.6531,65.1529,0,10,10,2,1,2003,FEM,DIS,150,daga,el,a,0.1941,,,,,,,,,,,,,,,,,,
,,,,,,d7f7dfee34b63f8366a488a6,66a626ef09d4e21e1a8894ec,6735ecfd314aa68701327ddd,2024-11-14_09h36.53.809,Tarea de género gramatical,2024.2.2,Win32,163.9344262,,,,,,,,,,,,,,,,,,,,,,,65.1533,66.1167,l,0,[],[],[],[],[],[],[],0.3085,0,66.1171,66.6135,0,11,11,10,1,2011,MAS,CON,150,canal,,l,0.3085,,,,,,,,,,,,,,,,,,
,,,,,,d7f7dfee34b63f8366a488a6,66a626ef09d4e21e1a8894ec,6735ecfd314aa68701327ddd,2024-11-14_09h36.53.809,Tarea de género gramatical,2024.2.2,Win32,163.9344262,,,,,,,,,,,,,,,,,,,,,,,66.6142,67.6803,a,1,[],[],[],[],[],[],[],0.4063,1,67.6807,68.1832,0,12,12,11,1,2012,MAS,DIS,150,clima,la,l,0.4063,,,,,,,,,,,,,,,,,,
,,,,,,d7f7dfee34b63f8366a488a6,66a626ef09d4e21e1a8894ec,6735ecfd314aa68701327ddd,2024-11-14_09h36.53.809,Tarea de género gramatical,2024.2.2,Win32,163.9344262,,,,,,,,,,,,,,,,,,,,,,,68.1839,69.3926,l,1,[],[],[],[],[],[],[],0.5489,1,69.3926,69.8923,0,13,13,6,1,2007,FEM,AGR,150,navaja,la,a,0.5489,,,,,,,,,,,,,,,,,,
,,,,,,d7f7dfee34b63f8366a488a6,66a626ef09d4e21e1a8894ec,6735ecfd314aa68701327ddd,2024-11-14_09h36.53.809,Tarea de género gramatical,2024.2.2,Win32,163.9344262,,,,,,,,,,,,,,,,,,,,,,,69.8928,71.1107,a,1,[],[],[],[],[],[],[],0.5579,1,71.1108,71.6075,0,14,14,9,1,2010,MAS,AGR,150,vecino,el,l,0.5579,,,,,,,,,,,,,,,,,,
,,,,,,d7f7dfee34b63f8366a488a6,66a626ef09d4e21e1a8894ec,6735ecfd314aa68701327ddd,2024-11-14_09h36.53.809,Tarea de género gramatical,2024.2.2,Win32,163.9344262,,,76.3032,82.4958,space,6.1851,,0.077777778,-0.298148148,0,0,0,,,,,,,,,,,82.523,83.6655,l,1,[],[],[],[],[],[],[],0.4851,1,83.6656,84.1624,,,,,,109,FEM,AGR,150,gota,la,a,0.4851,,84.1627,84.1649,0.077777778,-0.298148148,0,0,0,,0,0,0,108,1,,,,
,,,,,,d7f7dfee34b63f8366a488a6,66a626ef09d4e21e1a8894ec,6735ecfd314aa68701327ddd,2024-11-14_09h36.53.809,Tarea de género gramatical,2024.2.2,Win32,163.9344262,,,,,,,,,,,,,,,,,,,,,,,84.1654,85.7321,l,1,[],[],[],[],[],[],[],0.9094,1,85.7323,86.2291,,,,,,171,FEM,DIS,150,mitad,el,a,0.9094,,86.2291,86.2292,0.077777778,-0.298148148,0,0,0,,0,1,1,170,1,,,,
,,,,,,d7f7dfee34b63f8366a488a6,66a626ef09d4e21e1a8894ec,6735ecfd314aa68701327ddd,2024-11-14_09h36.53.809,Tarea de género gramatical,2024.2.2,Win32,163.9344262,,,,,,,,,,,,,,,,,,,,,,,86.2297,87.5019,a,1,[],[],[],[],[],[],[],0.613,1,87.502,87.9988,,,,,,136,MAS,AGR,150,vago,el,l,0.613,,87.9995,87.9999,0.077777778,-0.298148148,0,0,0,,0,2,2,135,1,,,,
,,,,,,d7f7dfee34b63f8366a488a6,66a626ef09d4e21e1a8894ec,6735ecfd314aa68701327ddd,2024-11-14_09h36.53.809,Tarea de género gramatical,2024.2.2,Win32,163.9344262,,,,,,,,,,,,,,,,,,,,,,,88.0002,89.1019,a,1,[],[],[],[],[],[],[],0.4452,1,89.102,89.5989,,,,,,70,MAS,AGR,150,palo,el,l,0.4452,,89.599,89.599,0.077777778,-0.298148148,0,0,0,,0,3,3,69,1,,,,
,,,,,,d7f7dfee34b63f8366a488a6,66a626ef09d4e21e1a8894ec,6735ecfd314aa68701327ddd,2024-11-14_09h36.53.809,Tarea de género gramatical,2024.2.2,Win32,163.9344262,,,,,,,,,,,,,,,,,,,,,,,89.5997,90.6232,a,1,[],[],[],[],[],[],[],0.3638,1,90.6232,91.1201,,,,,,160,MAS,AGR,150,señor,el,l,0.3638,,91.1201,91.1201,0.077777778,-0.298148148,0,0,0,,0,4,4,159,1,,,,
,,,,,,d7f7dfee34b63f8366a488a6,66a626ef09d4e21e1a8894ec,6735ecfd314aa68701327ddd,2024-11-14_09h36.53.809,Tarea de género gramatical,2024.2.2,Win32,163.9344262,,,,,,,,,,,,,,,,,,,,,,,91.1208,92.2533,l,1,[],[],[],[],[],[],[],0.4727,1,92.2534,92.7505,,,,,,326,FEM,CON,150,música,,a,0.4727,,92.7505,92.7506,0.077777778,-0.298148148,0,0,0,,0,5,5,325,1,,,,
,,,,,,d7f7dfee34b63f8366a488a6,66a626ef09d4e21e1a8894ec,6735ecfd314aa68701327ddd,2024-11-14_09h36.53.809,Tarea de género gramatical,2024.2.2,Win32,163.9344262,,,,,,,,,,,,,,,,,,,,,,,92.7512,93.9322,a,1,[],[],[],[],[],[],[],0.5212,1,93.9323,94.4292,,,,,,329,MAS,CON,150,futuro,,l,0.5212,,94.43,94.4304,0.077777778,-0.298148148,0,0,0,,0,6,6,328,1,,,,
,,,,,,d7f7dfee34b63f8366a488a6,66a626ef09d4e21e1a8894ec,6735ecfd314aa68701327ddd,2024-11-14_09h36.53.809,Tarea de género gramatical,2024.2.2,Win32,163.9344262,,,,,,,,,,,,,,,,,,,,,,,94.4308,95.4413,a,1,[],[],[],[],[],[],[],0.3523,1,95.4414,95.9383,,,,,,310,MAS,AGR,150,nombre,el,l,0.3523,,95.9383,95.9384,0.077777778,-0.298148148,0,0,0,,0,7,7,309,1,,,,
,,,,,,d7f7dfee34b63f8366a488a6,66a626ef09d4e21e1a8894ec,6735ecfd314aa68701327ddd,2024-11-14_09h36.53.809,Tarea de género gramatical,2024.2.2,Win32,163.9344262,,,,,,,,,,,,,,,,,,,,,,,95.9389,96.9867,a,1,[],[],[],[],[],[],[],0.3881,1,96.9868,97.4838,,,,,,274,MAS,AGR,150,motor,el,l,0.3881,,97.4839,97.4839,0.077777778,-0.298148148,0,0,0,,0,8,8,273,1,,,,
,,,,,,d7f7dfee34b63f8366a488a6,66a626ef09d4e21e1a8894ec,6735ecfd314aa68701327ddd,2024-11-14_09h36.53.809,Tarea de género gramatical,2024.2.2,Win32,163.9344262,,,,,,,,,,,,,,,,,,,,,,,97.4843,98.6475,a,1,[],[],[],[],[],[],[],0.5052,1,98.6476,99.1445,,,,,,233,MAS,CON,150,golpe,,l,0.5052,,99.1445,99.1445,0.077777778,-0.298148148,0,0,0,,0,9,9,232,1,,,,
,,,,,,d7f7dfee34b63f8366a488a6,66a626ef09d4e21e1a8894ec,6735ecfd314aa68701327ddd,2024-11-14_09h36.53.809,Tarea de género gramatical,2024.2.2,Win32,163.9344262,,,,,,,,,,,,,,,,,,,,,,,99.145,100.2293,a,1,[],[],[],[],[],[],[],0.4248,1,100.2294,100.7264,,,,,,118,MAS,AGR,150,baúl,el,l,0.4248,,100.7264,100.7264,0.077777778,-0.298148148,0,0,0,,0,10,10,117,1,,,,
,,,,,,d7f7dfee34b63f8366a488a6,66a626ef09d4e21e1a8894ec,6735ecfd314aa68701327ddd,2024-11-14_09h36.53.809,Tarea de género gramatical,2024.2.2,Win32,163.9344262,,,,,,,,,,,,,,,,,,,,,,,100.7272,101.9808,a,1,[],[],[],[],[],[],[],0.5941,1,101.9808,102.4778,,,,,,402,MAS,DIS,150,ladrón,la,l,0.5941,,102.4785,102.4789,0.077777778,-0.298148148,0,0,0,,0,11,11,401,1,,,,
,,,,,,d7f7dfee34b63f8366a488a6,66a626ef09d4e21e1a8894ec,6735ecfd314aa68701327ddd,2024-11-14_09h36.53.809,Tarea de género gramatical,2024.2.2,Win32,163.9344262,,,,,,,,,,,,,,,,,,,,,,,102.4793,103.6052,l,1,[],[],[],[],[],[],[],0.4671,1,103.6052,104.102,,,,,,213,FEM,DIS,150,magia,el,a,0.4671,,104.1021,104.1021,0.077777778,-0.298148148,0,0,0,,0,12,12,212,1,,,,
,,,,,,d7f7dfee34b63f8366a488a6,66a626ef09d4e21e1a8894ec,6735ecfd314aa68701327ddd,2024-11-14_09h36.53.809,Tarea de género gramatical,2024.2.2,Win32,163.9344262,,,,,,,,,,,,,,,,,,,,,,,104.1026,105.2838,a,1,[],[],[],[],[],[],[],0.5243,1,105.2838,105.7809,,,,,,335,MAS,CON,150,montón,,l,0.5243,,105.7809,105.7809,0.077777778,-0.298148148,0,0,0,,0,13,13,334,1,,,,
,,,,,,d7f7dfee34b63f8366a488a6,66a626ef09d4e21e1a8894ec,6735ecfd314aa68701327ddd,2024-11-14_09h36.53.809,Tarea de género gramatical,2024.2.2,Win32,163.9344262,,,,,,,,,,,,,,,,,,,,,,,105.7814,106.8718,a,1,[],[],[],[],[],[],[],0.4334,1,106.8718,107.3689,,,,,,28,MAS,AGR,150,club,el,l,0.4334,,107.3689,107.3689,0.077777778,-0.298148148,0,0,0,,0,14,14,27,1,,,,
,,,,,,d7f7dfee34b63f8366a488a6,66a626ef09d4e21e1a8894ec,6735ecfd314aa68701327ddd,2024-11-14_09h36.53.809,Tarea de género gramatical,2024.2.2,Win32,163.9344262,,,,,,,,,,,,,,,,,,,,,,,107.3694,108.5628,l,1,[],[],[],[],[],[],[],0.5336,1,108.5628,109.0597,,,,,,31,FEM,AGR,150,edad,la,a,0.5336,,109.0604,109.0608,0.077777778,-0.298148148,0,0,0,,0,15,15,30,1,,,,
,,,,,,d7f7dfee34b63f8366a488a6,66a626ef09d4e21e1a8894ec,6735ecfd314aa68701327ddd,2024-11-14_09h36.53.809,Tarea de género gramatical,2024.2.2,Win32,163.9344262,,,,,,,,,,,,,,,,,,,,,,,109.0613,110.1324,a,1,[],[],[],[],[],[],[],0.4125,1,110.1324,110.6294,,,,,,256,MAS,AGR,150,techo,el,l,0.4125,,110.6294,110.6294,0.077777778,-0.298148148,0,0,0,,0,16,16,255,1,,,,
,,,,,,d7f7dfee34b63f8366a488a6,66a626ef09d4e21e1a8894ec,6735ecfd314aa68701327ddd,2024-11-14_09h36.53.809,Tarea de género gramatical,2024.2.2,Win32,163.9344262,,,,,,,,,,,,,,,,,,,,,,,110.6302,111.8355,a,0,[],[],[],[],[],[],[],0.5458,0,111.8359,112.3324,,,,,,225,FEM,DIS,150,pieza,el,a,0.5458,,112.3325,112.3325,0.077777778,-0.298148148,0,0,0,,0,17,17,224,1,,,,
,,,,,,d7f7dfee34b63f8366a488a6,66a626ef09d4e21e1a8894ec,6735ecfd314aa68701327ddd,2024-11-14_09h36.53.809,Tarea de género gramatical,2024.2.2,Win32,163.9344262,,,,,,,,,,,,,,,,,,,,,,,112.3329,113.7143,l,1,[],[],[],[],[],[],[],0.7222,1,113.7148,114.2113,,,,,,445,FEM,AGR,150,bondad,la,a,0.7222,,114.2113,114.2114,0.077777778,-0.298148148,0,0,0,,0,18,18,444,1,,,,
,,,,,,d7f7dfee34b63f8366a488a6,66a626ef09d4e21e1a8894ec,6735ecfd314aa68701327ddd,2024-11-14_09h36.53.809,Tarea de género gramatical,2024.2.2,Win32,163.9344262,,,,,,,,,,,,,,,,,,,,,,,114.2118,115.2839,a,0,[],[],[],[],[],[],[],0.4123,0,115.2843,115.781,,,,,,163,FEM,AGR,150,calle,la,a,0.4123,,115.7811,115.7811,0.077777778,-0.298148148,0,0,0,,0,19,19,162,1,,,,
,,,,,,d7f7dfee34b63f8366a488a6,66a626ef09d4e21e1a8894ec,6735ecfd314aa68701327ddd,2024-11-14_09h36.53.809,Tarea de género gramatical,2024.2.2,Win32,163.9344262,,,,,,,,,,,,,,,,,,,,,,,115.7816,116.8053,l,1,[],[],[],[],[],[],[],0.3638,1,116.8057,117.3023,,,,,,1,FEM,AGR,150,casa,la,a,0.3638,,117.303,117.3033,0.077777778,-0.298148148,0,0,0,,0,20,20,0,1,,,,
,,,,,,d7f7dfee34b63f8366a488a6,66a626ef09d4e21e1a8894ec,6735ecfd314aa68701327ddd,2024-11-14_09h36.53.809,Tarea de género gramatical,2024.2.2,Win32,163.9344262,,,,,,,,,,,,,,,,,,,,,,,117.3037,118.3446,l,1,[],[],[],[],[],[],[],0.3826,1,118.3446,118.8416,,,,,,314,FEM,CON,150,señora,,a,0.3826,,118.8416,118.8417,0.077777778,-0.298148148,0,0,0,,0,21,21,313,1,,,,
,,,,,,d7f7dfee34b63f8366a488a6,66a626ef09d4e21e1a8894ec,6735ecfd314aa68701327ddd,2024-11-14_09h36.53.809,Tarea de género gramatical,2024.2.2,Win32,163.9344262,,,,,,,,,,,,,,,,,,,,,,,118.8422,119.9082,l,1,[],[],[],[],[],[],[],0.4082,1,119.9084,120.4052,,,,,,103,FEM,AGR,150,fama,la,a,0.4082,,120.4053,120.4054,0.077777778,-0.298148148,0,0,0,,0,22,22,102,1,,,,
,,,,,,d7f7dfee34b63f8366a488a6,66a626ef09d4e21e1a8894ec,6735ecfd314aa68701327ddd,2024-11-14_09h36.53.809,Tarea de género gramatical,2024.2.2,Win32,163.9344262,,,,,,,,,,,,,,,,,,,,,,,120.4058,121.5387,a,1,[],[],[],[],[],[],[],0.4739,1,121.5387,122.0357,,,,,,287,MAS,CON,150,plato,,l,0.4739,,122.0357,122.0357,0.077777778,-0.298148148,0,0,0,,0,23,23,286,1,,,,
,,,,,,d7f7dfee34b63f8366a488a6,66a626ef09d4e21e1a8894ec,6735ecfd314aa68701327ddd,2024-11-14_09h36.53.809,Tarea de género gramatical,2024.2.2,Win32,163.9344262,,,,,,,,,,,,,,,,,,,,,,,122.0362,123.0963,a,1,[],[],[],[],[],[],[],0.4011,1,123.0964,123.5932,,,,,,59,MAS,CON,150,lobo,,l,0.4011,,123.594,123.5943,0.077777778,-0.298148148,0,0,0,,0,24,24,58,1,,,,
,,,,,,d7f7dfee34b63f8366a488a6,66a626ef09d4e21e1a8894ec,6735ecfd314aa68701327ddd,2024-11-14_09h36.53.809,Tarea de género gramatical,2024.2.2,Win32,163.9344262,,,,,,,,,,,,,,,,,,,,,,,123.5947,124.8235,l,1,[],[],[],[],[],[],[],0.5715,1,124.8235,125.3206,,,,,,63,FEM,DIS,150,fila,el,a,0.5715,,125.3206,125.3206,0.077777778,-0.298148148,0,0,0,,0,25,25,62,1,,,,
,,,,,,d7f7dfee34b63f8366a488a6,66a626ef09d4e21e1a8894ec,6735ecfd314aa68701327ddd,2024-11-14_09h36.53.809,Tarea de género gramatical,2024.2.2,Win32,163.9344262,,,,,,,,,,,,,,,,,,,,,,,125.3211,126.7386,l,1,[],[],[],[],[],[],[],0.7578,1,126.7386,127.2356,,,,,,379,FEM,AGR,150,granja,la,a,0.7578,,127.2356,127.2357,0.077777778,-0.298148148,0,0,0,,0,26,26,378,1,,,,
,,,,,,d7f7dfee34b63f8366a488a6,66a626ef09d4e21e1a8894ec,6735ecfd314aa68701327ddd,2024-11-14_09h36.53.809,Tarea de género gramatical,2024.2.2,Win32,163.9344262,,,,,,,,,,,,,,,,,,,,,,,127.2361,128.4114,a,1,[],[],[],[],[],[],[],0.5152,1,128.4114,128.9083,,,,,,17,MAS,CON,150,modo,,l,0.5152,,128.9084,128.9084,0.077777778,-0.298148148,0,0,0,,0,27,27,16,1,,,,
,,,,,,d7f7dfee34b63f8366a488a6,66a626ef09d4e21e1a8894ec,6735ecfd314aa68701327ddd,2024-11-14_09h36.53.809,Tarea de género gramatical,2024.2.2,Win32,163.9344262,,,,,,,,,,,,,,,,,,,,,,,128.909,130.3629,l,1,[],[],[],[],[],[],[],0.7967,1,130.363,130.8599,,,,,,369,FEM,DIS,150,camisa,el,a,0.7967,,130.8599,130.8599,0.077777778,-0.298148148,0,0,0,,0,28,28,368,1,,,,
,,,,,,d7f7dfee34b63f8366a488a6,66a626ef09d4e21e1a8894ec,6735ecfd314aa68701327ddd,2024-11-14_09h36.53.809,Tarea de género gramatical,2024.2.2,Win32,163.9344262,,,,,,,,,,,,,,,,,,,,,,,130.8605,132.0478,a,1,[],[],[],[],[],[],[],0.5279,1,132.0479,132.5448,,,,,,245,MAS,CON,150,turno,,l,0.5279,,132.5455,132.546,0.077777778,-0.298148148,0,0,0,,0,29,29,244,1,,,,
,,,,,,d7f7dfee34b63f8366a488a6,66a626ef09d4e21e1a8894ec,6735ecfd314aa68701327ddd,2024-11-14_09h36.53.809,Tarea de género gramatical,2024.2.2,Win32,163.9344262,,,,,,,,,,,,,,,,,,,,,,,132.5463,133.7144,l,1,[],[],[],[],[],[],[],0.5111,1,133.7145,134.2115,,,,,,105,FEM,DIS,150,jefa,el,a,0.5111,,134.2115,134.2115,0.077777778,-0.298148148,0,0,0,,0,30,30,104,1,,,,
,,,,,,d7f7dfee34b63f8366a488a6,66a626ef09d4e21e1a8894ec,6735ecfd314aa68701327ddd,2024-11-14_09h36.53.809,Tarea de género gramatical,2024.2.2,Win32,163.9344262,,,,,,,,,,,,,,,,,,,,,,,134.212,135.4721,a,1,[],[],[],[],[],[],[],0.6026,1,135.4721,135.9691,,,,,,185,MAS,CON,150,sueño,,l,0.6026,,135.9692,135.9692,0.077777778,-0.298148148,0,0,0,,0,31,31,184,1,,,,
,,,,,,d7f7dfee34b63f8366a488a6,66a626ef09d4e21e1a8894ec,6735ecfd314aa68701327ddd,2024-11-14_09h36.53.809,Tarea de género gramatical,2024.2.2,Win32,163.9344262,,,,,,,,,,,,,,,,,,,,,,,135.9696,137.2538,a,0,[],[],[],[],[],[],[],0.6252,0,137.2543,137.7509,,,,,,177,FEM,DIS,150,broma,el,a,0.6252,,137.7509,137.751,0.077777778,-0.298148148,0,0,0,,0,32,32,176,1,,,,
,,,,,,d7f7dfee34b63f8366a488a6,66a626ef09d4e21e1a8894ec,6735ecfd314aa68701327ddd,2024-11-14_09h36.53.809,Tarea de género gramatical,2024.2.2,Win32,163.9344262,,,,,,,,,,,,,,,,,,,,,,,137.7515,139.1995,l,1,[],[],[],[],[],[],[],0.7891,1,139.1999,139.6965,,,,,,285,FEM,DIS,150,mafia,el,a,0.7891,,139.6973,139.6976,0.077777778,-0.298148148,0,0,0,,0,33,33,284,1,,,,
,,,,,,d7f7dfee34b63f8366a488a6,66a626ef09d4e21e1a8894ec,6735ecfd314aa68701327ddd,2024-11-14_09h36.53.809,Tarea de género gramatical,2024.2.2,Win32,163.9344262,,,,,,,,,,,,,,,,,,,,,,,139.698,140.8964,a,1,[],[],[],[],[],[],[],0.5417,1,140.8964,141.3934,,,,,,202,MAS,AGR,150,honor,el,l,0.5417,,141.3934,141.3934,0.077777778,-0.298148148,0,0,0,,0,34,34,201,1,,,,
,,,,,,d7f7dfee34b63f8366a488a6,66a626ef09d4e21e1a8894ec,6735ecfd314aa68701327ddd,2024-11-14_09h36.53.809,Tarea de género gramatical,2024.2.2,Win32,163.9344262,,,,,,,,,,,,,,,,,,,,,,,141.394,142.6479,l,1,[],[],[],[],[],[],[],0.5965,1,142.6479,143.1451,,,,,,272,FEM,CON,150,oreja,,a,0.5965,,143.1451,143.1451,0.077777778,-0.298148148,0,0,0,,0,35,35,271,1,,,,
,,,,,,d7f7dfee34b63f8366a488a6,66a626ef09d4e21e1a8894ec,6735ecfd314aa68701327ddd,2024-11-14_09h36.53.809,Tarea de género gramatical,2024.2.2,Win32,163.9344262,,,,,,,,,,,,,,,,,,,,,,,143.1459,144.3389,a,1,[],[],[],[],[],[],[],0.5335,1,144.3389,144.8358,,,,,,130,MAS,AGR,150,yate,el,l,0.5335,,144.8359,144.8359,0.077777778,-0.298148148,0,0,0,,0,36,36,129,1,,,,
,,,,,,d7f7dfee34b63f8366a488a6,66a626ef09d4e21e1a8894ec,6735ecfd314aa68701327ddd,2024-11-14_09h36.53.809,Tarea de género gramatical,2024.2.2,Win32,163.9344262,,,,,,,,,,,,,,,,,,,,,,,144.8364,145.951,l,1,[],[],[],[],[],[],[],0.4573,1,145.951,146.448,,,,,,403,FEM,AGR,150,paliza,la,a,0.4573,,146.4481,146.4481,0.077777778,-0.298148148,0,0,0,,0,37,37,402,1,,,,
,,,,,,d7f7dfee34b63f8366a488a6,66a626ef09d4e21e1a8894ec,6735ecfd314aa68701327ddd,2024-11-14_09h36.53.809,Tarea de género gramatical,2024.2.2,Win32,163.9344262,,,,,,,,,,,,,,,,,,,,,,,146.4485,147.5812,l,1,[],[],[],[],[],[],[],0.4756,1,147.5813,148.0784,,,,,,146,FEM,CON,150,lana,,a,0.4756,,148.0791,148.0795,0.077777778,-0.298148148,0,0,0,,0,38,38,145,1,,,,
,,,,,,d7f7dfee34b63f8366a488a6,66a626ef09d4e21e1a8894ec,6735ecfd314aa68701327ddd,2024-11-14_09h36.53.809,Tarea de género gramatical,2024.2.2,Win32,163.9344262,,,,,,,,,,,,,,,,,,,,,,,148.0799,149.2237,a,1,[],[],[],[],[],[],[],0.485,1,149.2237,149.7208,,,,,,382,MAS,AGR,150,teatro,el,l,0.485,,149.7208,149.7208,0.077777778,-0.298148148,0,0,0,,0,39,39,381,1,,,,
,,,,,,d7f7dfee34b63f8366a488a6,66a626ef09d4e21e1a8894ec,6735ecfd314aa68701327ddd,2024-11-14_09h36.53.809,Tarea de género gramatical,2024.2.2,Win32,163.9344262,,,,,,,,,,,,,,,,,,,,,,,149.7213,150.7692,l,0,[],[],[],[],[],[],[],0.3891,0,150.7696,151.2663,,,,,,210,MAS,DIS,150,baile,la,l,0.3891,,151.2663,151.2663,0.077777778,-0.298148148,0,0,0,,0,40,40,209,1,,,,
,,,,,,d7f7dfee34b63f8366a488a6,66a626ef09d4e21e1a8894ec,6735ecfd314aa68701327ddd,2024-11-14_09h36.53.809,Tarea de género gramatical,2024.2.2,Win32,163.9344262,,,,,,,,,,,,,,,,,,,,,,,151.2668,152.339,l,1,[],[],[],[],[],[],[],0.4121,1,152.3395,152.8359,,,,,,349,FEM,AGR,150,prensa,la,a,0.4121,,152.8359,152.8359,0.077777778,-0.298148148,0,0,0,,0,41,41,348,1,,,,
,,,,,,d7f7dfee34b63f8366a488a6,66a626ef09d4e21e1a8894ec,6735ecfd314aa68701327ddd,2024-11-14_09h36.53.809,Tarea de género gramatical,2024.2.2,Win32,163.9344262,,,,,,,,,,,,,,,,,,,,,,,152.8364,153.9087,l,1,[],[],[],[],[],[],[],0.4128,1,153.9088,154.4056,,,,,,392,FEM,CON,150,maleta,,a,0.4128,,154.4062,154.4065,0.077777778,-0.298148148,0,0,0,,0,42,42,391,1,,,,
,,,,,,d7f7dfee34b63f8366a488a6,66a626ef09d4e21e1a8894ec,6735ecfd314aa68701327ddd,2024-11-14_09h36.53.809,Tarea de género gramatical,2024.2.2,Win32,163.9344262,,,,,,,,,,,,,,,,,,,,,,,154.4069,155.4907,a,1,[],[],[],[],[],[],[],0.4247,1,155.4908,155.9876,,,,,,180,MAS,DIS,150,fuego,la,l,0.4247,,155.9876,155.9877,0.077777778,-0.298148148,0,0,0,,0,43,43,179,1,,,,
,,,,,,d7f7dfee34b63f8366a488a6,66a626ef09d4e21e1a8894ec,6735ecfd314aa68701327ddd,2024-11-14_09h36.53.809,Tarea de género gramatical,2024.2.2,Win32,163.9344262,,,,,,,,,,,,,,,,,,,,,,,155.9882,157.0056,l,1,[],[],[],[],[],[],[],0.3581,1,157.0057,157.5028,,,,,,242,FEM,CON,150,pizza,,a,0.3581,,157.5028,157.5028,0.077777778,-0.298148148,0,0,0,,0,44,44,241,1,,,,
,,,,,,d7f7dfee34b63f8366a488a6,66a626ef09d4e21e1a8894ec,6735ecfd314aa68701327ddd,2024-11-14_09h36.53.809,Tarea de género gramatical,2024.2.2,Win32,163.9344262,,,,,,,,,,,,,,,,,,,,,,,157.5033,158.5391,l,1,[],[],[],[],[],[],[],0.3765,1,158.5392,159.036,,,,,,355,FEM,AGR,150,mirada,la,a,0.3765,,159.036,159.0361,0.077777778,-0.298148148,0,0,0,,0,45,45,354,1,,,,
,,,,,,d7f7dfee34b63f8366a488a6,66a626ef09d4e21e1a8894ec,6735ecfd314aa68701327ddd,2024-11-14_09h36.53.809,Tarea de género gramatical,2024.2.2,Win32,163.9344262,,,,,,,,,,,,,,,,,,,,,,,159.0365,160.1087,a,1,[],[],[],[],[],[],[],0.4124,1,160.1088,160.6057,,,,,,30,MAS,DIS,150,cine,la,l,0.4124,,160.6057,160.6058,0.077777778,-0.298148148,0,0,0,,0,46,46,29,1,,,,
,,,,,,d7f7dfee34b63f8366a488a6,66a626ef09d4e21e1a8894ec,6735ecfd314aa68701327ddd,2024-11-14_09h36.53.809,Tarea de género gramatical,2024.2.2,Win32,163.9344262,,,,,,,,,,,,,,,,,,,,,,,160.6062,161.7149,l,1,[],[],[],[],[],[],[],0.4485,1,161.7149,162.2118,,,,,,415,FEM,AGR,150,cabina,la,a,0.4485,,162.2124,162.2128,0.077777778,-0.298148148,0,0,0,,0,47,47,414,1,,,,
,,,,,,d7f7dfee34b63f8366a488a6,66a626ef09d4e21e1a8894ec,6735ecfd314aa68701327ddd,2024-11-14_09h36.53.809,Tarea de género gramatical,2024.2.2,Win32,163.9344262,,,,,,,,,,,,,,,,,,,,,,,162.2131,163.2481,a,1,[],[],[],[],[],[],[],0.3782,1,163.2481,163.7452,,,,,,60,MAS,DIS,150,tono,la,l,0.3782,,163.7452,163.7452,0.077777778,-0.298148148,0,0,0,,0,48,48,59,1,,,,
,,,,,,d7f7dfee34b63f8366a488a6,66a626ef09d4e21e1a8894ec,6735ecfd314aa68701327ddd,2024-11-14_09h36.53.809,Tarea de género gramatical,2024.2.2,Win32,163.9344262,,,,,,,,,,,,,,,,,,,,,,,163.7457,164.8239,a,1,[],[],[],[],[],[],[],0.4182,1,164.8239,165.321,,,,,,420,MAS,DIS,150,helado,la,l,0.4182,,165.321,165.321,0.077777778,-0.298148148,0,0,0,,0,49,49,419,1,,,,
,,,,,,d7f7dfee34b63f8366a488a6,66a626ef09d4e21e1a8894ec,6735ecfd314aa68701327ddd,2024-11-14_09h36.53.809,Tarea de género gramatical,2024.2.2,Win32,163.9344262,,,,,,,,,,,,,,,,,,,,,,,165.3215,166.3331,a,1,[],[],[],[],[],[],[],0.3539,1,166.3331,166.8301,,,,,,406,MAS,AGR,150,premio,el,l,0.3539,,166.8301,166.8301,0.077777778,-0.298148148,0,0,0,,0,50,50,405,1,,,,
,,,,,,d7f7dfee34b63f8366a488a6,66a626ef09d4e21e1a8894ec,6735ecfd314aa68701327ddd,2024-11-14_09h36.53.809,Tarea de género gramatical,2024.2.2,Win32,163.9344262,,,,,,,,,,,,,,,,,,,,,,,166.8306,167.8361,l,0,[],[],[],[],[],[],[],0.3454,0,167.8365,168.3332,,,,,,414,MAS,DIS,150,sótano,la,l,0.3454,,168.3338,168.3342,0.077777778,-0.298148148,0,0,0,,0,51,51,413,1,,,,
,,,,,,d7f7dfee34b63f8366a488a6,66a626ef09d4e21e1a8894ec,6735ecfd314aa68701327ddd,2024-11-14_09h36.53.809,Tarea de género gramatical,2024.2.2,Win32,163.9344262,,,,,,,,,,,,,,,,,,,,,,,168.3345,169.3453,a,1,[],[],[],[],[],[],[],0.3519,1,169.3456,169.8422,,,,,,318,MAS,DIS,150,pueblo,la,l,0.3519,,169.8422,169.8423,0.077777778,-0.298148148,0,0,0,,0,52,52,317,1,,,,
,,,,,,d7f7dfee34b63f8366a488a6,66a626ef09d4e21e1a8894ec,6735ecfd314aa68701327ddd,2024-11-14_09h36.53.809,Tarea de género gramatical,2024.2.2,Win32,163.9344262,,,,,,,,,,,,,,,,,,,,,,,169.8428,170.9149,a,0,[],[],[],[],[],[],[],0.4153,0,170.9153,171.4119,,,,,,151,FEM,AGR,150,noche,la,a,0.4153,,171.4119,171.4119,0.077777778,-0.298148148,0,0,0,,0,53,53,150,1,,,,
,,,,,,d7f7dfee34b63f8366a488a6,66a626ef09d4e21e1a8894ec,6735ecfd314aa68701327ddd,2024-11-14_09h36.53.809,Tarea de género gramatical,2024.2.2,Win32,163.9344262,,,,,,,,,,,,,,,,,,,,,,,171.4124,172.5513,l,1,[],[],[],[],[],[],[],0.4812,1,172.5516,173.0484,,,,,,38,FEM,CON,150,obra,,a,0.4812,,173.0484,173.0484,0.077777778,-0.298148148,0,0,0,,0,54,54,37,1,,,,
,,,,,,d7f7dfee34b63f8366a488a6,66a626ef09d4e21e1a8894ec,6735ecfd314aa68701327ddd,2024-11-14_09h36.53.809,Tarea de género gramatical,2024.2.2,Win32,163.9344262,,,,,,,,,,,,,,,,,,,,,,,173.049,174.1271,l,1,[],[],[],[],[],[],[],0.4194,1,174.1271,174.6241,,,,,,14,FEM,CON,150,cara,,a,0.4194,,174.6242,174.6242,0.077777778,-0.298148148,0,0,0,,0,55,55,13,1,,,,
,,,,,,d7f7dfee34b63f8366a488a6,66a626ef09d4e21e1a8894ec,6735ecfd314aa68701327ddd,2024-11-14_09h36.53.809,Tarea de género gramatical,2024.2.2,Win32,163.9344262,,,,,,,,,,,,,,,,,,,,,,,174.6246,175.7574,l,1,[],[],[],[],[],[],[],0.4728,1,175.7574,176.2545,,,,,,200,FEM,CON,150,silla,,a,0.4728,,176.255,176.2554,0.077777778,-0.298148148,0,0,0,,0,56,56,199,1,,,,
,,,,,,d7f7dfee34b63f8366a488a6,66a626ef09d4e21e1a8894ec,6735ecfd314aa68701327ddd,2024-11-14_09h36.53.809,Tarea de género gramatical,2024.2.2,Win32,163.9344262,,,,,,,,,,,,,,,,,,,,,,,176.2557,177.5331,a,1,[],[],[],[],[],[],[],0.6185,1,177.5331,178.0303,,,,,,389,MAS,CON,150,tamaño,,l,0.6185,,178.0303,178.0303,0.077777778,-0.298148148,0,0,0,,0,57,57,388,1,,,,
,,,,,,d7f7dfee34b63f8366a488a6,66a626ef09d4e21e1a8894ec,6735ecfd314aa68701327ddd,2024-11-14_09h36.53.809,Tarea de género gramatical,2024.2.2,Win32,163.9344262,,,,,,,,,,,,,,,,,,,,,,,178.0308,179.1211,l,1,[],[],[],[],[],[],[],0.4323,1,179.1211,179.618,,,,,,140,FEM,CON,150,mula,,a,0.4323,,179.618,179.6181,0.077777778,-0.298148148,0,0,0,,0,58,58,139,1,,,,
,,,,,,d7f7dfee34b63f8366a488a6,66a626ef09d4e21e1a8894ec,6735ecfd314aa68701327ddd,2024-11-14_09h36.53.809,Tarea de género gramatical,2024.2.2,Win32,163.9344262,,,,,,,,,,,,,,,,,,,,,,,179.6187,180.7938,a,1,[],[],[],[],[],[],[],0.5183,1,180.7939,181.2909,,,,,,384,MAS,DIS,150,pedazo,la,l,0.5183,,181.291,181.291,0.077777778,-0.298148148,0,0,0,,0,59,59,383,1,,,,
,,,,,,d7f7dfee34b63f8366a488a6,66a626ef09d4e21e1a8894ec,6735ecfd314aa68701327ddd,2024-11-14_09h36.53.809,Tarea de género gramatical,2024.2.2,Win32,163.9344262,,,,,,,,,,,,,,,,,,,,,,,181.2915,182.6302,a,1,[],[],[],[],[],[],[],0.6789,1,182.6303,183.1272,,,,,,246,MAS,DIS,150,humor,la,l,0.6789,,183.1279,183.1282,0.077777778,-0.298148148,0,0,0,,0,60,60,245,1,,,,
,,,,,,d7f7dfee34b63f8366a488a6,66a626ef09d4e21e1a8894ec,6735ecfd314aa68701327ddd,2024-11-14_09h36.53.809,Tarea de género gramatical,2024.2.2,Win32,163.9344262,,,,,,,,,,,,,,,,,,,,,,,183.1287,184.1999,a,1,[],[],[],[],[],[],[],0.4141,1,184.2,184.6969,,,,,,340,MAS,AGR,150,pasado,el,l,0.4141,,184.6969,184.697,0.077777778,-0.298148148,0,0,0,,0,61,61,339,1,,,,
,,,,,,d7f7dfee34b63f8366a488a6,66a626ef09d4e21e1a8894ec,6735ecfd314aa68701327ddd,2024-11-14_09h36.53.809,Tarea de género gramatical,2024.2.2,Win32,163.9344262,,,,,,,,,,,,,,,,,,,,,,,184.6975,185.9998,a,1,[],[],[],[],[],[],[],0.6438,1,185.9999,186.497,,,,,,72,MAS,DIS,150,hoyo,la,l,0.6438,,186.4971,186.4972,0.077777778,-0.298148148,0,0,0,,0,62,62,71,1,,,,
,,,,,,d7f7dfee34b63f8366a488a6,66a626ef09d4e21e1a8894ec,6735ecfd314aa68701327ddd,2024-11-14_09h36.53.809,Tarea de género gramatical,2024.2.2,Win32,163.9344262,,,,,,,,,,,,,,,,,,,,,,,186.4976,187.5758,a,1,[],[],[],[],[],[],[],0.4188,1,187.5758,188.0727,,,,,,252,MAS,DIS,150,viejo,la,l,0.4188,,188.0727,188.0728,0.077777778,-0.298148148,0,0,0,,0,63,63,251,1,,,,
,,,,,,d7f7dfee34b63f8366a488a6,66a626ef09d4e21e1a8894ec,6735ecfd314aa68701327ddd,2024-11-14_09h36.53.809,Tarea de género gramatical,2024.2.2,Win32,163.9344262,,,,,,,,,,,,,,,,,,,,,,,188.0733,189.1091,a,1,[],[],[],[],[],[],[],0.3761,1,189.1092,189.6061,,,,,,54,MAS,DIS,150,humo,la,l,0.3761,,189.6061,189.6062,0.077777778,-0.298148148,0,0,0,,0,64,64,53,1,,,,
,,,,,,d7f7dfee34b63f8366a488a6,66a626ef09d4e21e1a8894ec,6735ecfd314aa68701327ddd,2024-11-14_09h36.53.809,Tarea de género gramatical,2024.2.2,Win32,163.9344262,,,,,,,,,,,,,,,,,,,,,,,189.6066,190.7091,l,1,[],[],[],[],[],[],[],0.4427,1,190.7091,191.206,,,,,,43,FEM,AGR,150,nena,la,a,0.4427,,191.2066,191.207,0.077777778,-0.298148148,0,0,0,,0,65,65,42,1,,,,
,,,,,,d7f7dfee34b63f8366a488a6,66a626ef09d4e21e1a8894ec,6735ecfd314aa68701327ddd,2024-11-14_09h36.53.809,Tarea de género gramatical,2024.2.2,Win32,163.9344262,,,,,,,,,,,,,,,,,,,,,,,191.2073,192.6424,a,1,[],[],[],[],[],[],[],0.776,1,192.6424,193.1395,,,,,,257,MAS,CON,150,pecho,,l,0.776,,193.1395,193.1395,0.077777778,-0.298148148,0,0,0,,0,66,66,256,1,,,,
,,,,,,d7f7dfee34b63f8366a488a6,66a626ef09d4e21e1a8894ec,6735ecfd314aa68701327ddd,2024-11-14_09h36.53.809,Tarea de género gramatical,2024.2.2,Win32,163.9344262,,,,,,,,,,,,,,,,,,,,,,,193.14,194.7879,l,1,[],[],[],[],[],[],[],0.9899,1,194.788,195.285,,,,,,291,FEM,DIS,150,aguja,el,a,0.9899,,195.285,195.2851,0.077777778,-0.298148148,0,0,0,,0,67,67,290,1,,,,
,,,,,,d7f7dfee34b63f8366a488a6,66a626ef09d4e21e1a8894ec,6735ecfd314aa68701327ddd,2024-11-14_09h36.53.809,Tarea de género gramatical,2024.2.2,Win32,163.9344262,,,,,,,,,,,,,,,,,,,,,,,195.2856,196.5395,l,1,[],[],[],[],[],[],[],0.594,1,196.5396,197.0365,,,,,,428,FEM,CON,150,jugada,,a,0.594,,197.0365,197.0365,0.077777778,-0.298148148,0,0,0,,0,68,68,427,1,,,,
,,,,,,d7f7dfee34b63f8366a488a6,66a626ef09d4e21e1a8894ec,6735ecfd314aa68701327ddd,2024-11-14_09h36.53.809,Tarea de género gramatical,2024.2.2,Win32,163.9344262,,,,,,,,,,,,,,,,,,,,,,,197.037,198.7516,a,0,[],[],[],[],[],[],[],1.0573,0,198.752,199.2485,,,,,,152,FEM,CON,150,gente,,a,1.0573,,199.2492,199.2495,0.077777778,-0.298148148,0,0,0,,0,69,69,151,1,,,,
,,,,,,d7f7dfee34b63f8366a488a6,66a626ef09d4e21e1a8894ec,6735ecfd314aa68701327ddd,2024-11-14_09h36.53.809,Tarea de género gramatical,2024.2.2,Win32,163.9344262,,,,,,,,,,,,,,,,,,,,,,,199.25,201.8183,l,0,[],[],[],[],[],[],[],1.9096,0,201.8184,202.3154,,,,,,444,MAS,DIS,150,límite,la,l,1.9096,,202.3154,202.3155,0.077777778,-0.298148148,0,0,0,,0,70,70,443,1,,,,
,,,,,,d7f7dfee34b63f8366a488a6,66a626ef09d4e21e1a8894ec,6735ecfd314aa68701327ddd,2024-11-14_09h36.53.809,Tarea de género gramatical,2024.2.2,Win32,163.9344262,,,,,,,,,,,,,,,,,,,,,,,202.316,203.7699,l,1,[],[],[],[],[],[],[],0.7957,1,203.7703,204.2669,,,,,,259,FEM,AGR,150,prima,la,a,0.7957,,204.2669,204.267,0.077777778,-0.298148148,0,0,0,,0,71,71,258,1,,,,
,,,,,,d7f7dfee34b63f8366a488a6,66a626ef09d4e21e1a8894ec,6735ecfd314aa68701327ddd,2024-11-14_09h36.53.809,Tarea de género gramatical,2024.2.2,Win32,163.9344262,,,,,,,,,,,,,,,,,,,,,,,204.2676,205.4548,l,1,[],[],[],[],[],[],[],0.528,1,205.455,205.9519,,,,,,206,FEM,CON,150,época,,a,0.528,,205.9519,205.9519,0.077777778,-0.298148148,0,0,0,,0,72,72,205,1,,,,
,,,,,,d7f7dfee34b63f8366a488a6,66a626ef09d4e21e1a8894ec,6735ecfd314aa68701327ddd,2024-11-14_09h36.53.809,Tarea de género gramatical,2024.2.2,Win32,163.9344262,,,,,,,,,,,,,,,,,,,,,,,205.9524,206.9274,l,1,[],[],[],[],[],[],[],0.3166,1,206.9274,207.4244,,,,,,212,FEM,CON,150,cinta,,a,0.3166,,207.4245,207.4245,0.077777778,-0.298148148,0,0,0,,0,73,73,211,1,,,,
,,,,,,d7f7dfee34b63f8366a488a6,66a626ef09d4e21e1a8894ec,6735ecfd314aa68701327ddd,2024-11-14_09h36.53.809,Tarea de género gramatical,2024.2.2,Win32,163.9344262,,,,,,,,,,,,,,,,,,,,,,,207.425,208.6729,a,1,[],[],[],[],[],[],[],0.5886,1,208.673,209.1699,,,,,,270,MAS,DIS,150,queso,la,l,0.5886,,209.1704,209.1709,0.077777778,-0.298148148,0,0,0,,0,74,74,269,1,,,,
,,,,,,d7f7dfee34b63f8366a488a6,66a626ef09d4e21e1a8894ec,6735ecfd314aa68701327ddd,2024-11-14_09h36.53.809,Tarea de género gramatical,2024.2.2,Win32,163.9344262,,,,,,,,,,,,,,,,,,,,,,,209.1713,210.2669,a,1,[],[],[],[],[],[],[],0.4366,1,210.2669,210.764,,,,,,304,MAS,AGR,150,tiempo,el,l,0.4366,,210.764,210.764,0.077777778,-0.298148148,0,0,0,,0,75,75,303,1,,,,
,,,,,,d7f7dfee34b63f8366a488a6,66a626ef09d4e21e1a8894ec,6735ecfd314aa68701327ddd,2024-11-14_09h36.53.809,Tarea de género gramatical,2024.2.2,Win32,163.9344262,,,,,,,,,,,,,,,,,,,,,,,210.7644,211.8912,l,1,[],[],[],[],[],[],[],0.4668,1,211.8912,212.3881,,,,,,194,FEM,CON,150,banda,,a,0.4668,,212.3881,212.3882,0.077777778,-0.298148148,0,0,0,,0,76,76,193,1,,,,
,,,,,,d7f7dfee34b63f8366a488a6,66a626ef09d4e21e1a8894ec,6735ecfd314aa68701327ddd,2024-11-14_09h36.53.809,Tarea de género gramatical,2024.2.2,Win32,163.9344262,,,,,,,,,,,,,,,,,,,,,,,212.3887,213.57,a,0,[],[],[],[],[],[],[],0.5214,0,213.5704,214.067,,,,,,307,FEM,AGR,150,suerte,la,a,0.5214,,214.067,214.067,0.077777778,-0.298148148,0,0,0,,0,77,77,306,1,,,,
,,,,,,d7f7dfee34b63f8366a488a6,66a626ef09d4e21e1a8894ec,6735ecfd314aa68701327ddd,2024-11-14_09h36.53.809,Tarea de género gramatical,2024.2.2,Win32,163.9344262,,,,,,,,,,,,,,,,,,,,,,,214.0675,215.2609,a,1,[],[],[],[],[],[],[],0.5336,1,215.2613,215.758,,,,,,77,MAS,CON,150,pico,,l,0.5336,,215.7585,215.759,0.077777778,-0.298148148,0,0,0,,0,78,78,76,1,,,,
,,,,,,d7f7dfee34b63f8366a488a6,66a626ef09d4e21e1a8894ec,6735ecfd314aa68701327ddd,2024-11-14_09h36.53.809,Tarea de género gramatical,2024.2.2,Win32,163.9344262,,,,,,,,,,,,,,,,,,,,,,,215.7593,216.8852,a,1,[],[],[],[],[],[],[],0.467,1,216.8852,217.3822,,,,,,71,MAS,CON,150,pozo,,l,0.467,,217.3822,217.3822,0.077777778,-0.298148148,0,0,0,,0,79,79,70,1,,,,
,,,,,,d7f7dfee34b63f8366a488a6,66a626ef09d4e21e1a8894ec,6735ecfd314aa68701327ddd,2024-11-14_09h36.53.809,Tarea de género gramatical,2024.2.2,Win32,163.9344262,,,,,,,,,,,,,,,,,,,,,,,217.3828,218.4732,a,1,[],[],[],[],[],[],[],0.4317,1,218.4732,218.9701,,,,,,269,MAS,CON,150,primo,,l,0.4317,,218.9701,218.9701,0.077777778,-0.298148148,0,0,0,,0,80,80,268,1,,,,
,,,,,,d7f7dfee34b63f8366a488a6,66a626ef09d4e21e1a8894ec,6735ecfd314aa68701327ddd,2024-11-14_09h36.53.809,Tarea de género gramatical,2024.2.2,Win32,163.9344262,,,,,,,,,,,,,,,,,,,,,,,218.9707,220.1761,a,1,[],[],[],[],[],[],[],0.5478,1,220.1761,220.6732,,,,,,125,MAS,CON,150,bate,,l,0.5478,,220.6732,220.6732,0.077777778,-0.298148148,0,0,0,,0,81,81,124,1,,,,
,,,,,,d7f7dfee34b63f8366a488a6,66a626ef09d4e21e1a8894ec,6735ecfd314aa68701327ddd,2024-11-14_09h36.53.809,Tarea de género gramatical,2024.2.2,Win32,163.9344262,,,,,,,,,,,,,,,,,,,,,,,220.6737,221.8972,a,1,[],[],[],[],[],[],[],0.5637,1,221.8973,222.3943,,,,,,264,MAS,DIS,150,pollo,la,l,0.5637,,222.3943,222.3944,0.077777778,-0.298148148,0,0,0,,0,82,82,263,1,,,,
,,,,,,d7f7dfee34b63f8366a488a6,66a626ef09d4e21e1a8894ec,6735ecfd314aa68701327ddd,2024-11-14_09h36.53.809,Tarea de género gramatical,2024.2.2,Win32,163.9344262,,,,,,,,,,,,,,,,,,,,,,,222.3948,223.6126,a,1,[],[],[],[],[],[],[],0.5595,1,223.6126,224.1095,,,,,,419,MAS,CON,150,cuento,,l,0.5595,,224.1101,224.1105,0.077777778,-0.298148148,0,0,0,,0,83,83,418,1,,,,
,,,,,,d7f7dfee34b63f8366a488a6,66a626ef09d4e21e1a8894ec,6735ecfd314aa68701327ddd,2024-11-14_09h36.53.809,Tarea de género gramatical,2024.2.2,Win32,163.9344262,,,,,,,,,,,,,,,,,,,,,,,224.1109,225.2368,a,1,[],[],[],[],[],[],[],0.4668,1,225.2368,225.7337,,,,,,149,MAS,CON,150,nudo,,l,0.4668,,225.7337,225.7339,0.077777778,-0.298148148,0,0,0,,0,84,84,148,1,,,,
,,,,,,d7f7dfee34b63f8366a488a6,66a626ef09d4e21e1a8894ec,6735ecfd314aa68701327ddd,2024-11-14_09h36.53.809,Tarea de género gramatical,2024.2.2,Win32,163.9344262,,,,,,,,,,,,,,,,,,,,,,,225.7347,227.0489,l,1,[],[],[],[],[],[],[],0.6546,1,227.049,227.5459,,,,,,391,FEM,AGR,150,altura,la,a,0.6546,,227.5459,227.5459,0.077777778,-0.298148148,0,0,0,,0,85,85,390,1,,,,
,,,,,,d7f7dfee34b63f8366a488a6,66a626ef09d4e21e1a8894ec,6735ecfd314aa68701327ddd,2024-11-14_09h36.53.809,Tarea de género gramatical,2024.2.2,Win32,163.9344262,,,,,,,,,,,,,,,,,,,,,,,227.5465,228.7156,a,1,[],[],[],[],[],[],[],0.5114,1,228.7156,229.2126,,,,,,371,MAS,CON,150,sonido,,l,0.5114,,229.2126,229.2127,0.077777778,-0.298148148,0,0,0,,0,86,86,370,1,,,,
,,,,,,d7f7dfee34b63f8366a488a6,66a626ef09d4e21e1a8894ec,6735ecfd314aa68701327ddd,2024-11-14_09h36.53.809,Tarea de género gramatical,2024.2.2,Win32,163.9344262,,,,,,,,,,,,,,,,,,,,,,,229.2131,230.9277,l,1,[],[],[],[],[],[],[],1.057,1,230.9277,231.4247,,,,,,15,FEM,DIS,150,cama,el,a,1.057,,231.4253,231.4257,0.077777778,-0.298148148,0,0,0,,0,87,87,14,1,,,,
,,,,,,d7f7dfee34b63f8366a488a6,66a626ef09d4e21e1a8894ec,6735ecfd314aa68701327ddd,2024-11-14_09h36.53.809,Tarea de género gramatical,2024.2.2,Win32,163.9344262,,,,,,,,,,,,,,,,,,,,,,,231.4261,232.5581,l,1,[],[],[],[],[],[],[],0.4731,1,232.5581,233.0552,,,,,,158,FEM,CON,150,chica,,a,0.4731,,233.0552,233.0553,0.077777778,-0.298148148,0,0,0,,0,88,88,157,1,,,,
,,,,,,d7f7dfee34b63f8366a488a6,66a626ef09d4e21e1a8894ec,6735ecfd314aa68701327ddd,2024-11-14_09h36.53.809,Tarea de género gramatical,2024.2.2,Win32,163.9344262,,,,,,,,,,,,,,,,,,,,,,,233.0557,234.2492,l,1,[],[],[],[],[],[],[],0.5335,1,234.2493,234.7461,,,,,,116,FEM,CON,150,nube,,a,0.5335,,234.7461,234.7461,0.077777778,-0.298148148,0,0,0,,0,89,89,115,1,,,,
,,,,,,d7f7dfee34b63f8366a488a6,66a626ef09d4e21e1a8894ec,6735ecfd314aa68701327ddd,2024-11-14_09h36.53.809,Tarea de género gramatical,2024.2.2,Win32,163.9344262,,,,,,,,,,,,,,,,,,,,,,,234.7467,235.946,a,0,[],[],[],[],[],[],[],0.541,0,235.9464,236.443,,,,,,3,FEM,DIS,150,cosa,el,a,0.541,,236.443,236.443,0.077777778,-0.298148148,0,0,0,,0,90,90,2,1,,,,
,,,,,,d7f7dfee34b63f8366a488a6,66a626ef09d4e21e1a8894ec,6735ecfd314aa68701327ddd,2024-11-14_09h36.53.809,Tarea de género gramatical,2024.2.2,Win32,163.9344262,,,,,,,,,,,,,,,,,,,,,,,236.4435,237.5885,l,1,[],[],[],[],[],[],[],0.4852,1,237.5888,238.0855,,,,,,73,FEM,AGR,150,roca,la,a,0.4852,,238.0856,238.0856,0.077777778,-0.298148148,0,0,0,,0,91,91,72,1,,,,
,,,,,,d7f7dfee34b63f8366a488a6,66a626ef09d4e21e1a8894ec,6735ecfd314aa68701327ddd,2024-11-14_09h36.53.809,Tarea de género gramatical,2024.2.2,Win32,163.9344262,,,,,,,,,,,,,,,,,,,,,,,238.086,239.8126,a,1,[],[],[],[],[],[],[],1.0673,1,239.8126,240.3099,,,,,,155,MAS,CON,150,mundo,,l,1.0673,,240.3104,240.3108,0.077777778,-0.298148148,0,0,0,,0,92,92,154,1,,,,
,,,,,,d7f7dfee34b63f8366a488a6,66a626ef09d4e21e1a8894ec,6735ecfd314aa68701327ddd,2024-11-14_09h36.53.809,Tarea de género gramatical,2024.2.2,Win32,163.9344262,,,,,,,,,,,,,,,,,,,,,,,240.3111,241.4006,a,1,[],[],[],[],[],[],[],0.431,1,241.4007,241.8976,,,,,,52,MAS,AGR,150,lago,el,l,0.431,,241.8977,241.8977,0.077777778,-0.298148148,0,0,0,,0,93,93,51,1,,,,
,,,,,,d7f7dfee34b63f8366a488a6,66a626ef09d4e21e1a8894ec,6735ecfd314aa68701327ddd,2024-11-14_09h36.53.809,Tarea de género gramatical,2024.2.2,Win32,163.9344262,,,,,,,,,,,,,,,,,,,,,,,241.8982,243.1825,l,0,[],[],[],[],[],[],[],0.6246,0,243.1829,243.6795,,,,,,186,MAS,DIS,150,error,la,l,0.6246,,243.6795,243.6795,0.077777778,-0.298148148,0,0,0,,0,94,94,185,1,,,,
,,,,,,d7f7dfee34b63f8366a488a6,66a626ef09d4e21e1a8894ec,6735ecfd314aa68701327ddd,2024-11-14_09h36.53.809,Tarea de género gramatical,2024.2.2,Win32,163.9344262,,,,,,,,,,,,,,,,,,,,,,,243.6801,244.843,l,1,[],[],[],[],[],[],[],0.5032,1,244.8435,245.34,,,,,,309,FEM,DIS,150,esposa,el,a,0.5032,,245.3401,245.3401,0.077777778,-0.298148148,0,0,0,,0,95,95,308,1,,,,
,,,,,,d7f7dfee34b63f8366a488a6,66a626ef09d4e21e1a8894ec,6735ecfd314aa68701327ddd,2024-11-14_09h36.53.809,Tarea de género gramatical,2024.2.2,Win32,163.9344262,,,,,,,,,,,,,,,,,,,,,,,245.3405,246.6795,a,1,[],[],[],[],[],[],[],0.6791,1,246.6796,247.1765,,,,,,29,MAS,CON,150,frío,,l,0.6791,,247.177,247.1774,0.077777778,-0.298148148,0,0,0,,0,96,96,28,1,,,,
,,,,,,d7f7dfee34b63f8366a488a6,66a626ef09d4e21e1a8894ec,6735ecfd314aa68701327ddd,2024-11-14_09h36.53.809,Tarea de género gramatical,2024.2.2,Win32,163.9344262,,,,,,,,,,,,,,,,,,,,,,,247.1777,248.4311,l,1,[],[],[],[],[],[],[],0.5942,1,248.4311,248.9279,,,,,,115,FEM,AGR,150,seda,la,a,0.5942,,248.9279,248.9279,0.077777778,-0.298148148,0,0,0,,0,97,97,114,1,,,,
,,,,,,d7f7dfee34b63f8366a488a6,66a626ef09d4e21e1a8894ec,6735ecfd314aa68701327ddd,2024-11-14_09h36.53.809,Tarea de género gramatical,2024.2.2,Win32,163.9344262,,,,,,,,,,,,,,,,,,,,,,,248.9284,250.1279,a,1,[],[],[],[],[],[],[],0.5395,1,250.128,250.6251,,,,,,209,MAS,CON,150,banco,,l,0.5395,,250.6251,250.6252,0.077777778,-0.298148148,0,0,0,,0,98,98,208,1,,,,
,,,,,,d7f7dfee34b63f8366a488a6,66a626ef09d4e21e1a8894ec,6735ecfd314aa68701327ddd,2024-11-14_09h36.53.809,Tarea de género gramatical,2024.2.2,Win32,163.9344262,,,,,,,,,,,,,,,,,,,,,,,250.6256,251.9645,l,1,[],[],[],[],[],[],[],0.6789,1,251.9645,252.4613,,,,,,75,FEM,DIS,150,caza,el,a,0.6789,,252.4613,252.4614,0.077777778,-0.298148148,0,0,0,,0,99,99,74,1,,,,
,,,,,,d7f7dfee34b63f8366a488a6,66a626ef09d4e21e1a8894ec,6735ecfd314aa68701327ddd,2024-11-14_09h36.53.809,Tarea de género gramatical,2024.2.2,Win32,163.9344262,,,,,,,,,,,,,,,,,,,,,,,252.4619,253.6856,a,1,[],[],[],[],[],[],[],0.5654,1,253.6856,254.1828,,,,,,366,MAS,DIS,150,riesgo,la,l,0.5654,,254.1828,254.1828,0.077777778,-0.298148148,0,0,0,,0,100,100,365,1,,,,
,,,,,,d7f7dfee34b63f8366a488a6,66a626ef09d4e21e1a8894ec,6735ecfd314aa68701327ddd,2024-11-14_09h36.53.809,Tarea de género gramatical,2024.2.2,Win32,163.9344262,,,,,,,,,,,,,,,,,,,,,,,254.1832,255.3947,l,1,[],[],[],[],[],[],[],0.5516,1,255.3947,255.8916,,,,,,440,FEM,CON,150,patada,,a,0.5516,,255.8922,255.8926,0.077777778,-0.298148148,0,0,0,,0,101,101,439,1,,,,
,,,,,,d7f7dfee34b63f8366a488a6,66a626ef09d4e21e1a8894ec,6735ecfd314aa68701327ddd,2024-11-14_09h36.53.809,Tarea de género gramatical,2024.2.2,Win32,163.9344262,,,,,,,,,,,,,,,,,,,,,,,255.8929,256.9888,a,1,[],[],[],[],[],[],[],0.4365,1,256.9888,257.4856,,,,,,114,MAS,DIS,150,menú,la,l,0.4365,,257.4856,257.4856,0.077777778,-0.298148148,0,0,0,,0,102,102,113,1,,,,
,,,,,,d7f7dfee34b63f8366a488a6,66a626ef09d4e21e1a8894ec,6735ecfd314aa68701327ddd,2024-11-14_09h36.53.809,Tarea de género gramatical,2024.2.2,Win32,163.9344262,,,,,,,,,,,,,,,,,,,,,,,257.4861,258.8191,l,1,[],[],[],[],[],[],[],0.6757,1,258.8191,259.3159,,,,,,195,FEM,DIS,150,pared,el,a,0.6757,,259.3159,259.316,0.077777778,-0.298148148,0,0,0,,0,103,103,194,1,,,,
,,,,,,d7f7dfee34b63f8366a488a6,66a626ef09d4e21e1a8894ec,6735ecfd314aa68701327ddd,2024-11-14_09h36.53.809,Tarea de género gramatical,2024.2.2,Win32,163.9344262,,,,,,,,,,,,,,,,,,,,,,,259.3165,260.5281,a,0,[],[],[],[],[],[],[],0.5521,0,260.5284,261.0252,,,,,,79,FEM,AGR,150,mina,la,a,0.5521,,261.0252,261.0252,0.077777778,-0.298148148,0,0,0,,0,104,104,78,1,,,,
,,,,,,d7f7dfee34b63f8366a488a6,66a626ef09d4e21e1a8894ec,6735ecfd314aa68701327ddd,2024-11-14_09h36.53.809,Tarea de género gramatical,2024.2.2,Win32,163.9344262,,,,,,,,,,,,,,,,,,,,,,,261.0257,262.1281,a,1,[],[],[],[],[],[],[],0.4425,1,262.1284,262.6252,,,,,,101,MAS,CON,150,giro,,l,0.4425,,262.6257,262.6262,0.077777778,-0.298148148,0,0,0,,0,105,105,100,1,,,,
,,,,,,d7f7dfee34b63f8366a488a6,66a626ef09d4e21e1a8894ec,6735ecfd314aa68701327ddd,2024-11-14_09h36.53.809,Tarea de género gramatical,2024.2.2,Win32,163.9344262,,,,,,,,,,,,,,,,,,,,,,,262.6265,263.6553,l,1,[],[],[],[],[],[],[],0.3699,1,263.6554,264.1525,,,,,,145,FEM,AGR,150,bota,la,a,0.3699,,264.1525,264.1525,0.077777778,-0.298148148,0,0,0,,0,106,106,144,1,,,,
,,,,,,d7f7dfee34b63f8366a488a6,66a626ef09d4e21e1a8894ec,6735ecfd314aa68701327ddd,2024-11-14_09h36.53.809,Tarea de género gramatical,2024.2.2,Win32,163.9344262,,,,,,,,,,,,,,,,,,,,,,,264.153,265.2797,a,1,[],[],[],[],[],[],[],0.4672,1,265.2797,265.7767,,,,,,65,MAS,CON,150,rayo,,l,0.4672,,265.7767,265.7767,0.077777778,-0.298148148,0,0,0,,0,107,107,64,1,,,,
,,,,,,d7f7dfee34b63f8366a488a6,66a626ef09d4e21e1a8894ec,6735ecfd314aa68701327ddd,2024-11-14_09h36.53.809,Tarea de género gramatical,2024.2.2,Win32,163.9344262,,,,,,,,,,,,,,,,,,,,,,,265.7772,267.1887,l,1,[],[],[],[],[],[],[],0.7526,1,267.1888,267.6858,,,,,,441,FEM,DIS,150,medida,el,a,0.7526,,267.6859,267.6859,0.077777778,-0.298148148,0,0,0,,0,108,108,440,1,,,,
,,,,,,d7f7dfee34b63f8366a488a6,66a626ef09d4e21e1a8894ec,6735ecfd314aa68701327ddd,2024-11-14_09h36.53.809,Tarea de género gramatical,2024.2.2,Win32,163.9344262,,,,,,,,,,,,,,,,,,,,,,,267.6864,268.8192,a,1,[],[],[],[],[],[],[],0.476,1,268.8192,269.3161,,,,,,58,MAS,AGR,150,mono,el,l,0.476,,269.3161,269.3162,0.077777778,-0.298148148,0,0,0,,0,109,109,57,1,,,,
,,,,,,d7f7dfee34b63f8366a488a6,66a626ef09d4e21e1a8894ec,6735ecfd314aa68701327ddd,2024-11-14_09h36.53.809,Tarea de género gramatical,2024.2.2,Win32,163.9344262,,,,,,,,,,,,,,,,,,,,,,,269.3167,270.6372,a,1,[],[],[],[],[],[],[],0.6634,1,270.6373,271.1344,,,,,,96,MAS,DIS,150,pato,la,l,0.6634,,271.135,271.1353,0.077777778,-0.298148148,0,0,0,,0,110,110,95,1,,,,
,,,,,,d7f7dfee34b63f8366a488a6,66a626ef09d4e21e1a8894ec,6735ecfd314aa68701327ddd,2024-11-14_09h36.53.809,Tarea de género gramatical,2024.2.2,Win32,163.9344262,,,,,,,,,,,,,,,,,,,,,,,271.1356,272.2252,l,1,[],[],[],[],[],[],[],0.4307,1,272.2253,272.7222,,,,,,111,FEM,DIS,150,goma,el,a,0.4307,,272.7222,272.7223,0.077777778,-0.298148148,0,0,0,,0,111,111,110,1,,,,
,,,,,,d7f7dfee34b63f8366a488a6,66a626ef09d4e21e1a8894ec,6735ecfd314aa68701327ddd,2024-11-14_09h36.53.809,Tarea de género gramatical,2024.2.2,Win32,163.9344262,,,,,,,,,,,,,,,,,,,,,,,272.7228,273.8799,a,1,[],[],[],[],[],[],[],0.4981,1,273.8799,274.3768,,,,,,214,MAS,AGR,150,fondo,el,l,0.4981,,274.3768,274.3769,0.077777778,-0.298148148,0,0,0,,0,112,112,213,1,,,,
,,,,,,d7f7dfee34b63f8366a488a6,66a626ef09d4e21e1a8894ec,6735ecfd314aa68701327ddd,2024-11-14_09h36.53.809,Tarea de género gramatical,2024.2.2,Win32,163.9344262,,,,,,,,,,,,,,,,,,,,,,,274.3773,275.4434,l,1,[],[],[],[],[],[],[],0.4087,1,275.4435,275.9404,,,,,,32,FEM,CON,150,caja,,a,0.4087,,275.9404,275.9404,0.077777778,-0.298148148,0,0,0,,0,113,113,31,1,,,,
,,,,,,d7f7dfee34b63f8366a488a6,66a626ef09d4e21e1a8894ec,6735ecfd314aa68701327ddd,2024-11-14_09h36.53.809,Tarea de género gramatical,2024.2.2,Win32,163.9344262,,,,,,,,,,,,,,,,,,,,,,,275.9408,277.0495,l,1,[],[],[],[],[],[],[],0.4491,1,277.0495,277.5465,,,,,,273,FEM,DIS,150,tarta,el,a,0.4491,,277.547,277.5474,0.077777778,-0.298148148,0,0,0,,0,114,114,272,1,,,,
,,,,,,d7f7dfee34b63f8366a488a6,66a626ef09d4e21e1a8894ec,6735ecfd314aa68701327ddd,2024-11-14_09h36.53.809,Tarea de género gramatical,2024.2.2,Win32,163.9344262,,,,,,,,,,,,,,,,,,,,,,,277.5477,278.6253,l,1,[],[],[],[],[],[],[],0.4184,1,278.6254,279.1224,,,,,,433,FEM,AGR,150,huella,la,a,0.4184,,279.1224,279.1224,0.077777778,-0.298148148,0,0,0,,0,115,115,432,1,,,,
,,,,,,d7f7dfee34b63f8366a488a6,66a626ef09d4e21e1a8894ec,6735ecfd314aa68701327ddd,2024-11-14_09h36.53.809,Tarea de género gramatical,2024.2.2,Win32,163.9344262,,,,,,,,,,,,,,,,,,,,,,,279.1228,280.2012,l,1,[],[],[],[],[],[],[],0.4183,1,280.2012,280.6982,,,,,,261,FEM,DIS,150,cueva,el,a,0.4183,,280.6982,280.6982,0.077777778,-0.298148148,0,0,0,,0,116,116,260,1,,,,
,,,,,,d7f7dfee34b63f8366a488a6,66a626ef09d4e21e1a8894ec,6735ecfd314aa68701327ddd,2024-11-14_09h36.53.809,Tarea de género gramatical,2024.2.2,Win32,163.9344262,,,,,,,,,,,,,,,,,,,,,,,280.6989,281.9768,a,1,[],[],[],[],[],[],[],0.6186,1,281.9769,282.4739,,,,,,418,MAS,AGR,150,pájaro,el,l,0.6186,,282.4739,282.474,0.077777778,-0.298148148,0,0,0,,0,117,117,417,1,,,,
,,,,,,d7f7dfee34b63f8366a488a6,66a626ef09d4e21e1a8894ec,6735ecfd314aa68701327ddd,2024-11-14_09h36.53.809,Tarea de género gramatical,2024.2.2,Win32,163.9344262,,,,,,,,,,,,,,,,,,,,,,,282.4744,283.6253,a,1,[],[],[],[],[],[],[],0.4921,1,283.6254,284.1223,,,,,,322,MAS,AGR,150,minuto,el,l,0.4921,,284.1224,284.1224,0.077777778,-0.298148148,0,0,0,,0,118,118,321,1,,,,
,,,,,,d7f7dfee34b63f8366a488a6,66a626ef09d4e21e1a8894ec,6735ecfd314aa68701327ddd,2024-11-14_09h36.53.809,Tarea de género gramatical,2024.2.2,Win32,163.9344262,,,,,,,,,,,,,,,,,,,,,,,284.123,285.6193,a,1,[],[],[],[],[],[],[],0.8365,1,285.6193,286.1163,,,,,,172,MAS,AGR,150,poder,el,l,0.8365,,286.1169,286.1172,0.077777778,-0.298148148,0,0,0,,0,119,119,171,1,,,,
,,,,,,d7f7dfee34b63f8366a488a6,66a626ef09d4e21e1a8894ec,6735ecfd314aa68701327ddd,2024-11-14_09h36.53.809,Tarea de género gramatical,2024.2.2,Win32,163.9344262,,,,,,,,,,,,,,,,,,,,,,,286.1176,287.2133,l,1,[],[],[],[],[],[],[],0.4391,1,287.2133,287.7102,,,,,,325,FEM,AGR,150,tierra,la,a,0.4391,,287.7103,287.7104,0.077777778,-0.298148148,0,0,0,,0,120,120,324,1,,,,
,,,,,,d7f7dfee34b63f8366a488a6,66a626ef09d4e21e1a8894ec,6735ecfd314aa68701327ddd,2024-11-14_09h36.53.809,Tarea de género gramatical,2024.2.2,Win32,163.9344262,,,,,,,,,,,,,,,,,,,,,,,287.7109,288.8436,a,1,[],[],[],[],[],[],[],0.4752,1,288.8437,289.3406,,,,,,204,MAS,DIS,150,papel,la,l,0.4752,,289.3406,289.3406,0.077777778,-0.298148148,0,0,0,,0,121,121,203,1,,,,
,,,,,,d7f7dfee34b63f8366a488a6,66a626ef09d4e21e1a8894ec,6735ecfd314aa68701327ddd,2024-11-14_09h36.53.809,Tarea de género gramatical,2024.2.2,Win32,163.9344262,,,,,,,,,,,,,,,,,,,,,,,289.3411,290.4497,a,1,[],[],[],[],[],[],[],0.4498,1,290.4498,290.9466,,,,,,190,MAS,AGR,150,campo,el,l,0.4498,,290.9467,290.9468,0.077777778,-0.298148148,0,0,0,,0,122,122,189,1,,,,
,,,,,,d7f7dfee34b63f8366a488a6,66a626ef09d4e21e1a8894ec,6735ecfd314aa68701327ddd,2024-11-14_09h36.53.809,Tarea de género gramatical,2024.2.2,Win32,163.9344262,,,,,,,,,,,,,,,,,,,,,,,290.9472,292.0982,a,1,[],[],[],[],[],[],[],0.4912,1,292.0982,292.5952,,,,,,94,MAS,AGR,150,cabo,el,l,0.4912,,292.5958,292.596,0.077777778,-0.298148148,0,0,0,,0,123,123,93,1,,,,
,,,,,,d7f7dfee34b63f8366a488a6,66a626ef09d4e21e1a8894ec,6735ecfd314aa68701327ddd,2024-11-14_09h36.53.809,Tarea de género gramatical,2024.2.2,Win32,163.9344262,,,,,,,,,,,,,,,,,,,,,,,292.5964,293.7103,l,1,[],[],[],[],[],[],[],0.4547,1,293.7104,294.2072,,,,,,410,FEM,CON,150,piedad,,a,0.4547,,294.2073,294.2073,0.077777778,-0.298148148,0,0,0,,0,124,124,409,1,,,,
,,,,,,d7f7dfee34b63f8366a488a6,66a626ef09d4e21e1a8894ec,6735ecfd314aa68701327ddd,2024-11-14_09h36.53.809,Tarea de género gramatical,2024.2.2,Win32,163.9344262,,,,,,,,,,,,,,,,,,,,,,,294.2078,295.3952,l,1,[],[],[],[],[],[],[],0.5276,1,295.3953,295.8921,,,,,,61,FEM,AGR,150,ruta,la,a,0.5276,,295.8921,295.8922,0.077777778,-0.298148148,0,0,0,,0,125,125,60,1,,,,
,,,,,,d7f7dfee34b63f8366a488a6,66a626ef09d4e21e1a8894ec,6735ecfd314aa68701327ddd,2024-11-14_09h36.53.809,Tarea de género gramatical,2024.2.2,Win32,163.9344262,,,,,,,,,,,,,,,,,,,,,,,295.8927,297.0377,a,1,[],[],[],[],[],[],[],0.4849,1,297.0377,297.5345,,,,,,437,MAS,CON,150,hombro,,l,0.4849,,297.5346,297.5346,0.077777778,-0.298148148,0,0,0,,0,126,126,436,1,,,,
,,,,,,d7f7dfee34b63f8366a488a6,66a626ef09d4e21e1a8894ec,6735ecfd314aa68701327ddd,2024-11-14_09h36.53.809,Tarea de género gramatical,2024.2.2,Win32,163.9344262,,,,,,,,,,,,,,,,,,,,,,,297.5351,298.6013,l,1,[],[],[],[],[],[],[],0.4062,1,298.6014,299.0983,,,,,,182,FEM,CON,150,prisa,,a,0.4062,,299.0984,299.0984,0.077777778,-0.298148148,0,0,0,,0,127,127,181,1,,,,
,,,,,,d7f7dfee34b63f8366a488a6,66a626ef09d4e21e1a8894ec,6735ecfd314aa68701327ddd,2024-11-14_09h36.53.809,Tarea de género gramatical,2024.2.2,Win32,163.9344262,,,,,,,,,,,,,,,,,,,,,,,299.0989,300.1467,l,1,[],[],[],[],[],[],[],0.3879,1,300.1467,300.6437,,,,,,375,FEM,DIS,150,cadena,el,a,0.3879,,300.6442,300.6446,0.077777778,-0.298148148,0,0,0,,0,128,128,374,1,,,,
,,,,,,d7f7dfee34b63f8366a488a6,66a626ef09d4e21e1a8894ec,6735ecfd314aa68701327ddd,2024-11-14_09h36.53.809,Tarea de género gramatical,2024.2.2,Win32,163.9344262,,,,,,,,,,,,,,,,,,,,,,,300.6449,301.6679,l,1,[],[],[],[],[],[],[],0.3648,1,301.668,302.165,,,,,,187,FEM,AGR,150,lista,la,a,0.3648,,302.165,302.1651,0.077777778,-0.298148148,0,0,0,,0,129,129,186,1,,,,
,,,,,,d7f7dfee34b63f8366a488a6,66a626ef09d4e21e1a8894ec,6735ecfd314aa68701327ddd,2024-11-14_09h36.53.809,Tarea de género gramatical,2024.2.2,Win32,163.9344262,,,,,,,,,,,,,,,,,,,,,,,302.1655,303.2074,a,1,[],[],[],[],[],[],[],0.382,1,303.2074,303.7044,,,,,,347,MAS,CON,150,cuello,,l,0.382,,303.7044,303.7044,0.077777778,-0.298148148,0,0,0,,0,130,130,346,1,,,,
,,,,,,d7f7dfee34b63f8366a488a6,66a626ef09d4e21e1a8894ec,6735ecfd314aa68701327ddd,2024-11-14_09h36.53.809,Tarea de género gramatical,2024.2.2,Win32,163.9344262,,,,,,,,,,,,,,,,,,,,,,,303.7049,304.8439,a,1,[],[],[],[],[],[],[],0.4807,1,304.844,305.3408,,,,,,342,MAS,DIS,150,abuelo,la,l,0.4807,,305.3408,305.3408,0.077777778,-0.298148148,0,0,0,,0,131,131,341,1,,,,
,,,,,,d7f7dfee34b63f8366a488a6,66a626ef09d4e21e1a8894ec,6735ecfd314aa68701327ddd,2024-11-14_09h36.53.809,Tarea de género gramatical,2024.2.2,Win32,163.9344262,,,,,,,,,,,,,,,,,,,,,,,305.3413,306.4439,a,1,[],[],[],[],[],[],[],0.4427,1,306.4439,306.9408,,,,,,275,MAS,CON,150,disco,,l,0.4427,,306.9414,306.9417,0.077777778,-0.298148148,0,0,0,,0,132,132,274,1,,,,
,,,,,,d7f7dfee34b63f8366a488a6,66a626ef09d4e21e1a8894ec,6735ecfd314aa68701327ddd,2024-11-14_09h36.53.809,Tarea de género gramatical,2024.2.2,Win32,163.9344262,,,,,,,,,,,,,,,,,,,,,,,306.9421,308.2134,l,1,[],[],[],[],[],[],[],0.6123,1,308.2135,308.7106,,,,,,117,FEM,DIS,150,raya,el,a,0.6123,,308.7106,308.7107,0.077777778,-0.298148148,0,0,0,,0,133,133,116,1,,,,
,,,,,,d7f7dfee34b63f8366a488a6,66a626ef09d4e21e1a8894ec,6735ecfd314aa68701327ddd,2024-11-14_09h36.53.809,Tarea de género gramatical,2024.2.2,Win32,163.9344262,,,,,,,,,,,,,,,,,,,,,,,308.7111,309.7227,l,1,[],[],[],[],[],[],[],0.3519,1,309.7227,310.2196,,,,,,39,FEM,DIS,150,luna,el,a,0.3519,,310.2196,310.2196,0.077777778,-0.298148148,0,0,0,,0,134,134,38,1,,,,
,,,,,,d7f7dfee34b63f8366a488a6,66a626ef09d4e21e1a8894ec,6735ecfd314aa68701327ddd,2024-11-14_09h36.53.809,Tarea de género gramatical,2024.2.2,Win32,163.9344262,,,,,,,,,,,,,,,,,,,,,,,310.2202,311.2862,l,1,[],[],[],[],[],[],[],0.4062,1,311.2863,311.7833,,,,,,253,FEM,AGR,150,aldea,la,a,0.4062,,311.7833,311.7833,0.077777778,-0.298148148,0,0,0,,0,135,135,252,1,,,,
,,,,,,d7f7dfee34b63f8366a488a6,66a626ef09d4e21e1a8894ec,6735ecfd314aa68701327ddd,2024-11-14_09h36.53.809,Tarea de género gramatical,2024.2.2,Win32,163.9344262,,,,,,,,,,,,,,,,,,,,,,,311.7838,312.9045,l,1,[],[],[],[],[],[],[],0.4608,1,312.9046,313.4015,,,,,,319,FEM,AGR,150,sangre,la,a,0.4608,,313.4016,313.4016,0.077777778,-0.298148148,0,0,0,,0,136,136,318,1,,,,
,,,,,,d7f7dfee34b63f8366a488a6,66a626ef09d4e21e1a8894ec,6735ecfd314aa68701327ddd,2024-11-14_09h36.53.809,Tarea de género gramatical,2024.2.2,Win32,163.9344262,,,,,,,,,,,,,,,,,,,,,,,313.4021,314.4682,l,1,[],[],[],[],[],[],[],0.4071,1,314.4682,314.9651,,,,,,385,FEM,AGR,150,muñeca,la,a,0.4071,,314.9657,314.9661,0.077777778,-0.298148148,0,0,0,,0,137,137,384,1,,,,
,,,,,,d7f7dfee34b63f8366a488a6,66a626ef09d4e21e1a8894ec,6735ecfd314aa68701327ddd,2024-11-14_09h36.53.809,Tarea de género gramatical,2024.2.2,Win32,163.9344262,,,,,,,,,,,,,,,,,,,,,,,314.9664,316.1349,a,0,[],[],[],[],[],[],[],0.5099,0,316.1354,316.6319,,,,,,267,FEM,DIS,150,barba,el,a,0.5099,,316.6319,316.6319,0.077777778,-0.298148148,0,0,0,,0,138,138,266,1,,,,
,,,,,,d7f7dfee34b63f8366a488a6,66a626ef09d4e21e1a8894ec,6735ecfd314aa68701327ddd,2024-11-14_09h36.53.809,Tarea de género gramatical,2024.2.2,Win32,163.9344262,,,,,,,,,,,,,,,,,,,,,,,316.6323,317.7469,l,1,[],[],[],[],[],[],[],0.4551,1,317.7473,318.2439,,,,,,92,FEM,CON,150,masa,,a,0.4551,,318.2439,318.244,0.077777778,-0.298148148,0,0,0,,0,139,139,91,1,,,,
,,,,,,d7f7dfee34b63f8366a488a6,66a626ef09d4e21e1a8894ec,6735ecfd314aa68701327ddd,2024-11-14_09h36.53.809,Tarea de género gramatical,2024.2.2,Win32,163.9344262,,,,,,,,,,,,,,,,,,,,,,,318.2445,319.2742,l,0,[],[],[],[],[],[],[],0.3698,0,319.2746,319.7713,,,,,,281,MAS,CON,150,actor,,l,0.3698,,319.7713,319.7714,0.077777778,-0.298148148,0,0,0,,0,140,140,280,1,,,,
,,,,,,d7f7dfee34b63f8366a488a6,66a626ef09d4e21e1a8894ec,6735ecfd314aa68701327ddd,2024-11-14_09h36.53.809,Tarea de género gramatical,2024.2.2,Win32,163.9344262,,,,,,,,,,,,,,,,,,,,,,,319.7718,321.2198,a,1,[],[],[],[],[],[],[],0.7904,1,321.2201,321.7168,,,,,,316,MAS,AGR,150,cuerpo,el,l,0.7904,,321.7173,321.7177,0.077777778,-0.298148148,0,0,0,,0,141,141,315,1,,,,
,,,,,,d7f7dfee34b63f8366a488a6,66a626ef09d4e21e1a8894ec,6735ecfd314aa68701327ddd,2024-11-14_09h36.53.809,Tarea de género gramatical,2024.2.2,Win32,163.9344262,,,,,,,,,,,,,,,,,,,,,,,321.718,322.9835,a,1,[],[],[],[],[],[],[],0.6061,1,322.9835,323.4804,,,,,,35,MAS,CON,150,taxi,,l,0.6061,,323.4804,323.4804,0.077777778,-0.298148148,0,0,0,,0,142,142,34,1,,,,
,,,,,,d7f7dfee34b63f8366a488a6,66a626ef09d4e21e1a8894ec,6735ecfd314aa68701327ddd,2024-11-14_09h36.53.809,Tarea de género gramatical,2024.2.2,Win32,163.9344262,,,,,,,,,,,,,,,,,,,,,,,323.4809,324.5955,a,1,[],[],[],[],[],[],[],0.4548,1,324.5957,325.0926,,,,,,431,MAS,CON,150,veneno,,l,0.4548,,325.0926,325.0927,0.077777778,-0.298148148,0,0,0,,0,143,143,430,1,,,,
,,,,,,d7f7dfee34b63f8366a488a6,66a626ef09d4e21e1a8894ec,6735ecfd314aa68701327ddd,2024-11-14_09h36.53.809,Tarea de género gramatical,2024.2.2,Win32,163.9344262,,,,,,,,,,,,,,,,,,,,,,,325.0931,326.1834,l,1,[],[],[],[],[],[],[],0.4306,1,326.1835,326.6804,,,,,,87,FEM,DIS,150,risa,el,a,0.4306,,326.6805,326.6806,0.077777778,-0.298148148,0,0,0,,0,144,144,86,1,,,,
,,,,,,d7f7dfee34b63f8366a488a6,66a626ef09d4e21e1a8894ec,6735ecfd314aa68701327ddd,2024-11-14_09h36.53.809,Tarea de género gramatical,2024.2.2,Win32,163.9344262,,,,,,,,,,,,,,,,,,,,,,,326.681,328.1047,a,1,[],[],[],[],[],[],[],0.764,1,328.1047,328.6017,,,,,,413,MAS,CON,150,diario,,l,0.764,,328.6017,328.6018,0.077777778,-0.298148148,0,0,0,,0,145,145,412,1,,,,
,,,,,,d7f7dfee34b63f8366a488a6,66a626ef09d4e21e1a8894ec,6735ecfd314aa68701327ddd,2024-11-14_09h36.53.809,Tarea de género gramatical,2024.2.2,Win32,163.9344262,,,,,,,,,,,,,,,,,,,,,,,328.6023,329.7411,a,1,[],[],[],[],[],[],[],0.4789,1,329.7411,330.238,,,,,,196,MAS,AGR,150,barco,el,l,0.4789,,330.2385,330.2389,0.077777778,-0.298148148,0,0,0,,0,146,146,195,1,,,,
,,,,,,d7f7dfee34b63f8366a488a6,66a626ef09d4e21e1a8894ec,6735ecfd314aa68701327ddd,2024-11-14_09h36.53.809,Tarea de género gramatical,2024.2.2,Win32,163.9344262,,,,,,,,,,,,,,,,,,,,,,,330.2392,331.329,a,1,[],[],[],[],[],[],[],0.4303,1,331.329,331.8259,,,,,,203,MAS,CON,150,novio,,l,0.4303,,331.826,331.8261,0.077777778,-0.298148148,0,0,0,,0,147,147,202,1,,,,
,,,,,,d7f7dfee34b63f8366a488a6,66a626ef09d4e21e1a8894ec,6735ecfd314aa68701327ddd,2024-11-14_09h36.53.809,Tarea de género gramatical,2024.2.2,Win32,163.9344262,,,,,,,,,,,,,,,,,,,,,,,331.8265,332.8986,a,1,[],[],[],[],[],[],[],0.4128,1,332.8986,333.3956,,,,,,299,MAS,CON,150,rumbo,,l,0.4128,,333.3956,333.3956,0.077777778,-0.298148148,0,0,0,,0,148,148,298,1,,,,
,,,,,,d7f7dfee34b63f8366a488a6,66a626ef09d4e21e1a8894ec,6735ecfd314aa68701327ddd,2024-11-14_09h36.53.809,Tarea de género gramatical,2024.2.2,Win32,163.9344262,,,,,,,,,,,,,,,,,,,,,,,333.3962,334.5411,a,1,[],[],[],[],[],[],[],0.4878,1,334.5411,335.0381,,,,,,377,MAS,CON,150,jardín,,l,0.4878,,335.0381,335.0381,0.077777778,-0.298148148,0,0,0,,0,149,149,376,1,,,,
,,,,,,d7f7dfee34b63f8366a488a6,66a626ef09d4e21e1a8894ec,6735ecfd314aa68701327ddd,2024-11-14_09h36.53.809,Tarea de género gramatical,2024.2.2,Win32,163.9344262,,,,,,,,,,,,,,,,,,,,,,,335.0386,336.1047,l,1,[],[],[],[],[],[],[],0.4062,1,336.1048,336.6018,,,,,,231,FEM,DIS,150,bruja,el,a,0.4062,,336.6023,543.1498,0.077777778,-0.298148148,0,0,0,space,0,150,150,230,1,206.5413,,,
,,,,,,d7f7dfee34b63f8366a488a6,66a626ef09d4e21e1a8894ec,6735ecfd314aa68701327ddd,2024-11-14_09h36.53.809,Tarea de género gramatical,2024.2.2,Win32,163.9344262,,,,,,,,,,,,,,,,,,,,,,,543.1503,544.6102,a,1,[],[],[],[],[],[],[],0.8002,1,544.6102,545.1072,,,,,,305,MAS,CON,150,hombre,,l,0.8002,,545.1073,545.1074,0.077777778,-0.298148148,0,0,0,,0,151,151,304,1,,,,
,,,,,,d7f7dfee34b63f8366a488a6,66a626ef09d4e21e1a8894ec,6735ecfd314aa68701327ddd,2024-11-14_09h36.53.809,Tarea de género gramatical,2024.2.2,Win32,163.9344262,,,,,,,,,,,,,,,,,,,,,,,545.1078,547.0467,l,1,[],[],[],[],[],[],[],1.2803,1,547.0467,547.5436,,,,,,331,FEM,AGR,150,cárcel,la,a,1.2803,,547.5437,547.5437,0.077777778,-0.298148148,0,0,0,,0,152,152,330,1,,,,
,,,,,,d7f7dfee34b63f8366a488a6,66a626ef09d4e21e1a8894ec,6735ecfd314aa68701327ddd,2024-11-14_09h36.53.809,Tarea de género gramatical,2024.2.2,Win32,163.9344262,,,,,,,,,,,,,,,,,,,,,,,547.5441,548.6527,l,1,[],[],[],[],[],[],[],0.4488,1,548.6527,549.1498,,,,,,25,FEM,AGR,150,nave,la,a,0.4488,,549.1498,549.1499,0.077777778,-0.298148148,0,0,0,,0,153,153,24,1,,,,
,,,,,,d7f7dfee34b63f8366a488a6,66a626ef09d4e21e1a8894ec,6735ecfd314aa68701327ddd,2024-11-14_09h36.53.809,Tarea de género gramatical,2024.2.2,Win32,163.9344262,,,,,,,,,,,,,,,,,,,,,,,549.1503,550.2951,a,0,[],[],[],[],[],[],[],0.4862,0,550.2955,550.7922,,,,,,135,FEM,DIS,150,raíz,el,a,0.4862,,550.7922,550.7922,0.077777778,-0.298148148,0,0,0,,0,154,154,134,1,,,,
,,,,,,d7f7dfee34b63f8366a488a6,66a626ef09d4e21e1a8894ec,6735ecfd314aa68701327ddd,2024-11-14_09h36.53.809,Tarea de género gramatical,2024.2.2,Win32,163.9344262,,,,,,,,,,,,,,,,,,,,,,,550.7927,552.3195,a,1,[],[],[],[],[],[],[],0.8681,1,552.3199,552.8165,,,,,,288,MAS,DIS,150,grado,la,l,0.8681,,552.8171,552.8175,0.077777778,-0.298148148,0,0,0,,0,155,155,287,1,,,,
,,,,,,d7f7dfee34b63f8366a488a6,66a626ef09d4e21e1a8894ec,6735ecfd314aa68701327ddd,2024-11-14_09h36.53.809,Tarea de género gramatical,2024.2.2,Win32,163.9344262,,,,,,,,,,,,,,,,,,,,,,,552.8178,554.0163,l,1,[],[],[],[],[],[],[],0.5396,1,554.0164,554.5134,,,,,,439,FEM,AGR,150,toalla,la,a,0.5396,,554.5134,554.5135,0.077777778,-0.298148148,0,0,0,,0,156,156,438,1,,,,
,,,,,,d7f7dfee34b63f8366a488a6,66a626ef09d4e21e1a8894ec,6735ecfd314aa68701327ddd,2024-11-14_09h36.53.809,Tarea de género gramatical,2024.2.2,Win32,163.9344262,,,,,,,,,,,,,,,,,,,,,,,554.5139,555.6043,a,1,[],[],[],[],[],[],[],0.4335,1,555.6043,556.1014,,,,,,137,MAS,CON,150,coco,,l,0.4335,,556.1014,556.1014,0.077777778,-0.298148148,0,0,0,,0,157,157,136,1,,,,
,,,,,,d7f7dfee34b63f8366a488a6,66a626ef09d4e21e1a8894ec,6735ecfd314aa68701327ddd,2024-11-14_09h36.53.809,Tarea de género gramatical,2024.2.2,Win32,163.9344262,,,,,,,,,,,,,,,,,,,,,,,556.1019,557.3982,a,1,[],[],[],[],[],[],[],0.6382,1,557.3982,557.8952,,,,,,238,MAS,AGR,150,norte,el,l,0.6382,,557.8952,557.8952,0.077777778,-0.298148148,0,0,0,,0,158,158,237,1,,,,
,,,,,,d7f7dfee34b63f8366a488a6,66a626ef09d4e21e1a8894ec,6735ecfd314aa68701327ddd,2024-11-14_09h36.53.809,Tarea de género gramatical,2024.2.2,Win32,163.9344262,,,,,,,,,,,,,,,,,,,,,,,557.8958,559.0104,l,1,[],[],[],[],[],[],[],0.4562,1,559.0104,559.5074,,,,,,327,FEM,DIS,150,tienda,el,a,0.4562,,559.5079,559.5083,0.077777778,-0.298148148,0,0,0,,0,159,159,326,1,,,,
,,,,,,d7f7dfee34b63f8366a488a6,66a626ef09d4e21e1a8894ec,6735ecfd314aa68701327ddd,2024-11-14_09h36.53.809,Tarea de género gramatical,2024.2.2,Win32,163.9344262,,,,,,,,,,,,,,,,,,,,,,,559.5086,560.7134,a,1,[],[],[],[],[],[],[],0.5457,1,560.7135,561.2105,,,,,,294,MAS,DIS,150,cable,la,l,0.5457,,561.2105,561.2105,0.077777778,-0.298148148,0,0,0,,0,160,160,293,1,,,,
,,,,,,d7f7dfee34b63f8366a488a6,66a626ef09d4e21e1a8894ec,6735ecfd314aa68701327ddd,2024-11-14_09h36.53.809,Tarea de género gramatical,2024.2.2,Win32,163.9344262,,,,,,,,,,,,,,,,,,,,,,,561.211,562.5499,a,1,[],[],[],[],[],[],[],0.6789,1,562.5499,563.0468,,,,,,312,MAS,DIS,150,equipo,la,l,0.6789,,563.0469,563.0469,0.077777778,-0.298148148,0,0,0,,0,161,161,311,1,,,,
,,,,,,d7f7dfee34b63f8366a488a6,66a626ef09d4e21e1a8894ec,6735ecfd314aa68701327ddd,2024-11-14_09h36.53.809,Tarea de género gramatical,2024.2.2,Win32,163.9344262,,,,,,,,,,,,,,,,,,,,,,,563.0473,564.2712,l,1,[],[],[],[],[],[],[],0.5644,1,564.2712,564.768,,,,,,2,FEM,CON,150,vida,,a,0.5644,,564.768,564.7681,0.077777778,-0.298148148,0,0,0,,0,162,162,1,1,,,,
,,,,,,d7f7dfee34b63f8366a488a6,66a626ef09d4e21e1a8894ec,6735ecfd314aa68701327ddd,2024-11-14_09h36.53.809,Tarea de género gramatical,2024.2.2,Win32,163.9344262,,,,,,,,,,,,,,,,,,,,,,,564.7686,566.4347,l,0,[],[],[],[],[],[],[],1.006,0,566.4351,566.9317,,,,,,263,MAS,CON,150,carro,,l,1.006,,566.9317,566.9318,0.077777778,-0.298148148,0,0,0,,0,163,163,262,1,,,,
,,,,,,d7f7dfee34b63f8366a488a6,66a626ef09d4e21e1a8894ec,6735ecfd314aa68701327ddd,2024-11-14_09h36.53.809,Tarea de género gramatical,2024.2.2,Win32,163.9344262,,,,,,,,,,,,,,,,,,,,,,,566.9322,568.2166,a,1,[],[],[],[],[],[],[],0.6243,1,568.217,568.7136,,,,,,311,MAS,CON,150,camino,,l,0.6243,,568.7141,568.7145,0.077777778,-0.298148148,0,0,0,,0,164,164,310,1,,,,
,,,,,,d7f7dfee34b63f8366a488a6,66a626ef09d4e21e1a8894ec,6735ecfd314aa68701327ddd,2024-11-14_09h36.53.809,Tarea de género gramatical,2024.2.2,Win32,163.9344262,,,,,,,,,,,,,,,,,,,,,,,568.7148,569.8652,a,1,[],[],[],[],[],[],[],0.4918,1,569.8652,570.3621,,,,,,148,MAS,AGR,150,surf,el,l,0.4918,,570.3621,570.3622,0.077777778,-0.298148148,0,0,0,,0,165,165,147,1,,,,
,,,,,,d7f7dfee34b63f8366a488a6,66a626ef09d4e21e1a8894ec,6735ecfd314aa68701327ddd,2024-11-14_09h36.53.809,Tarea de género gramatical,2024.2.2,Win32,163.9344262,,,,,,,,,,,,,,,,,,,,,,,570.3626,571.7378,a,1,[],[],[],[],[],[],[],0.7185,1,571.738,572.2349,,,,,,48,MAS,DIS,150,loco,la,l,0.7185,,572.2349,572.2349,0.077777778,-0.298148148,0,0,0,,0,166,166,47,1,,,,
,,,,,,d7f7dfee34b63f8366a488a6,66a626ef09d4e21e1a8894ec,6735ecfd314aa68701327ddd,2024-11-14_09h36.53.809,Tarea de género gramatical,2024.2.2,Win32,163.9344262,,,,,,,,,,,,,,,,,,,,,,,572.2353,573.6469,l,1,[],[],[],[],[],[],[],0.7516,1,573.6469,574.144,,,,,,33,FEM,DIS,150,boda,el,a,0.7516,,574.144,574.144,0.077777778,-0.298148148,0,0,0,,0,167,167,32,1,,,,
,,,,,,d7f7dfee34b63f8366a488a6,66a626ef09d4e21e1a8894ec,6735ecfd314aa68701327ddd,2024-11-14_09h36.53.809,Tarea de género gramatical,2024.2.2,Win32,163.9344262,,,,,,,,,,,,,,,,,,,,,,,574.1445,575.5682,a,1,[],[],[],[],[],[],[],0.7648,1,575.5682,576.0651,,,,,,222,MAS,DIS,150,valor,la,l,0.7648,,576.0657,576.0661,0.077777778,-0.298148148,0,0,0,,0,168,168,221,1,,,,
,,,,,,d7f7dfee34b63f8366a488a6,66a626ef09d4e21e1a8894ec,6735ecfd314aa68701327ddd,2024-11-14_09h36.53.809,Tarea de género gramatical,2024.2.2,Win32,163.9344262,,,,,,,,,,,,,,,,,,,,,,,576.0664,577.4773,a,1,[],[],[],[],[],[],[],0.7521,1,577.4773,577.9743,,,,,,150,MAS,DIS,150,mozo,la,l,0.7521,,577.9743,577.9744,0.077777778,-0.298148148,0,0,0,,0,169,169,149,1,,,,
,,,,,,d7f7dfee34b63f8366a488a6,66a626ef09d4e21e1a8894ec,6735ecfd314aa68701327ddd,2024-11-14_09h36.53.809,Tarea de género gramatical,2024.2.2,Win32,163.9344262,,,,,,,,,,,,,,,,,,,,,,,577.9748,580.0713,a,1,[],[],[],[],[],[],[],1.4372,1,580.0713,580.5682,,,,,,449,MAS,CON,150,payaso,,l,1.4372,,580.5682,580.5683,0.077777778,-0.298148148,0,0,0,,0,170,170,448,1,,,,
,,,,,,d7f7dfee34b63f8366a488a6,66a626ef09d4e21e1a8894ec,6735ecfd314aa68701327ddd,2024-11-14_09h36.53.809,Tarea de género gramatical,2024.2.2,Win32,163.9344262,,,,,,,,,,,,,,,,,,,,,,,580.5688,581.744,l,1,[],[],[],[],[],[],[],0.5154,1,581.744,582.241,,,,,,409,FEM,AGR,150,moneda,la,a,0.5154,,582.241,582.241,0.077777778,-0.298148148,0,0,0,,0,171,171,408,1,,,,
,,,,,,d7f7dfee34b63f8366a488a6,66a626ef09d4e21e1a8894ec,6735ecfd314aa68701327ddd,2024-11-14_09h36.53.809,Tarea de género gramatical,2024.2.2,Win32,163.9344262,,,,,,,,,,,,,,,,,,,,,,,582.2415,583.5562,l,1,[],[],[],[],[],[],[],0.6549,1,583.5562,584.0532,,,,,,387,FEM,DIS,150,página,el,a,0.6549,,584.0532,584.0533,0.077777778,-0.298148148,0,0,0,,0,172,172,386,1,,,,
,,,,,,d7f7dfee34b63f8366a488a6,66a626ef09d4e21e1a8894ec,6735ecfd314aa68701327ddd,2024-11-14_09h36.53.809,Tarea de género gramatical,2024.2.2,Win32,163.9344262,,,,,,,,,,,,,,,,,,,,,,,584.0537,585.2107,a,1,[],[],[],[],[],[],[],0.497,1,585.2107,585.7077,,,,,,346,MAS,AGR,150,juicio,el,l,0.497,,585.7082,585.7086,0.077777778,-0.298148148,0,0,0,,0,173,173,345,1,,,,
,,,,,,d7f7dfee34b63f8366a488a6,66a626ef09d4e21e1a8894ec,6735ecfd314aa68701327ddd,2024-11-14_09h36.53.809,Tarea de género gramatical,2024.2.2,Win32,163.9344262,,,,,,,,,,,,,,,,,,,,,,,585.7089,586.8592,a,1,[],[],[],[],[],[],[],0.4912,1,586.8592,587.3562,,,,,,106,MAS,AGR,150,test,el,l,0.4912,,587.3563,587.3563,0.077777778,-0.298148148,0,0,0,,0,174,174,105,1,,,,
,,,,,,d7f7dfee34b63f8366a488a6,66a626ef09d4e21e1a8894ec,6735ecfd314aa68701327ddd,2024-11-14_09h36.53.809,Tarea de género gramatical,2024.2.2,Win32,163.9344262,,,,,,,,,,,,,,,,,,,,,,,587.3567,588.3986,l,1,[],[],[],[],[],[],[],0.3838,1,588.3986,588.8956,,,,,,122,FEM,CON,150,loca,,a,0.3838,,588.8956,588.8956,0.077777778,-0.298148148,0,0,0,,0,175,175,121,1,,,,
,,,,,,d7f7dfee34b63f8366a488a6,66a626ef09d4e21e1a8894ec,6735ecfd314aa68701327ddd,2024-11-14_09h36.53.809,Tarea de género gramatical,2024.2.2,Win32,163.9344262,,,,,,,,,,,,,,,,,,,,,,,588.8961,590.1501,l,1,[],[],[],[],[],[],[],0.5942,1,590.1501,590.6472,,,,,,181,FEM,AGR,150,tarde,la,a,0.5942,,590.6473,590.6473,0.077777778,-0.298148148,0,0,0,,0,176,176,180,1,,,,
,,,,,,d7f7dfee34b63f8366a488a6,66a626ef09d4e21e1a8894ec,6735ecfd314aa68701327ddd,2024-11-14_09h36.53.809,Tarea de género gramatical,2024.2.2,Win32,163.9344262,,,,,,,,,,,,,,,,,,,,,,,590.6478,591.7259,a,1,[],[],[],[],[],[],[],0.4198,1,591.726,592.2228,,,,,,268,MAS,AGR,150,truco,el,l,0.4198,,592.2235,592.2238,0.077777778,-0.298148148,0,0,0,,0,177,177,267,1,,,,
,,,,,,d7f7dfee34b63f8366a488a6,66a626ef09d4e21e1a8894ec,6735ecfd314aa68701327ddd,2024-11-14_09h36.53.809,Tarea de género gramatical,2024.2.2,Win32,163.9344262,,,,,,,,,,,,,,,,,,,,,,,592.2241,593.6594,l,1,[],[],[],[],[],[],[],0.7764,1,593.6594,594.1562,,,,,,363,FEM,DIS,150,unidad,el,a,0.7764,,594.1562,594.1562,0.077777778,-0.298148148,0,0,0,,0,178,178,362,1,,,,
,,,,,,d7f7dfee34b63f8366a488a6,66a626ef09d4e21e1a8894ec,6735ecfd314aa68701327ddd,2024-11-14_09h36.53.809,Tarea de género gramatical,2024.2.2,Win32,163.9344262,,,,,,,,,,,,,,,,,,,,,,,594.1567,595.3138,l,1,[],[],[],[],[],[],[],0.4997,1,595.3138,595.8108,,,,,,7,FEM,AGR,150,hora,la,a,0.4997,,595.8109,595.8109,0.077777778,-0.298148148,0,0,0,,0,179,179,6,1,,,,
,,,,,,d7f7dfee34b63f8366a488a6,66a626ef09d4e21e1a8894ec,6735ecfd314aa68701327ddd,2024-11-14_09h36.53.809,Tarea de género gramatical,2024.2.2,Win32,163.9344262,,,,,,,,,,,,,,,,,,,,,,,595.8114,596.9321,l,1,[],[],[],[],[],[],[],0.4607,1,596.9321,597.429,,,,,,386,FEM,CON,150,sombra,,a,0.4607,,597.4291,597.4291,0.077777778,-0.298148148,0,0,0,,0,180,180,385,1,,,,
,,,,,,d7f7dfee34b63f8366a488a6,66a626ef09d4e21e1a8894ec,6735ecfd314aa68701327ddd,2024-11-14_09h36.53.809,Tarea de género gramatical,2024.2.2,Win32,163.9344262,,,,,,,,,,,,,,,,,,,,,,,597.4297,599.3926,a,0,[],[],[],[],[],[],[],1.3031,0,599.3931,599.8897,,,,,,399,FEM,DIS,150,charla,el,a,1.3031,,599.8897,599.8898,0.077777778,-0.298148148,0,0,0,,0,181,181,398,1,,,,
,,,,,,d7f7dfee34b63f8366a488a6,66a626ef09d4e21e1a8894ec,6735ecfd314aa68701327ddd,2024-11-14_09h36.53.809,Tarea de género gramatical,2024.2.2,Win32,163.9344262,,,,,,,,,,,,,,,,,,,,,,,599.8904,601.0412,l,1,[],[],[],[],[],[],[],0.4912,1,601.0415,601.5382,,,,,,81,FEM,DIS,150,cima,el,a,0.4912,,601.5387,601.5391,0.077777778,-0.298148148,0,0,0,,0,182,182,80,1,,,,
,,,,,,d7f7dfee34b63f8366a488a6,66a626ef09d4e21e1a8894ec,6735ecfd314aa68701327ddd,2024-11-14_09h36.53.809,Tarea de género gramatical,2024.2.2,Win32,163.9344262,,,,,,,,,,,,,,,,,,,,,,,601.5394,602.6594,a,1,[],[],[],[],[],[],[],0.4632,1,602.6594,603.1564,,,,,,197,MAS,CON,150,avión,,l,0.4632,,603.1564,603.1565,0.077777778,-0.298148148,0,0,0,,0,183,183,196,1,,,,
,,,,,,d7f7dfee34b63f8366a488a6,66a626ef09d4e21e1a8894ec,6735ecfd314aa68701327ddd,2024-11-14_09h36.53.809,Tarea de género gramatical,2024.2.2,Win32,163.9344262,,,,,,,,,,,,,,,,,,,,,,,603.1569,604.3806,l,1,[],[],[],[],[],[],[],0.5638,1,604.3807,604.8776,,,,,,159,FEM,DIS,150,clase,el,a,0.5638,,604.8776,604.8776,0.077777778,-0.298148148,0,0,0,,0,184,184,158,1,,,,
,,,,,,d7f7dfee34b63f8366a488a6,66a626ef09d4e21e1a8894ec,6735ecfd314aa68701327ddd,2024-11-14_09h36.53.809,Tarea de género gramatical,2024.2.2,Win32,163.9344262,,,,,,,,,,,,,,,,,,,,,,,604.878,606.0716,a,1,[],[],[],[],[],[],[],0.5356,1,606.0716,606.5686,,,,,,400,MAS,AGR,150,barrio,el,l,0.5356,,606.5686,606.5686,0.077777778,-0.298148148,0,0,0,,0,185,185,399,1,,,,
,,,,,,d7f7dfee34b63f8366a488a6,66a626ef09d4e21e1a8894ec,6735ecfd314aa68701327ddd,2024-11-14_09h36.53.809,Tarea de género gramatical,2024.2.2,Win32,163.9344262,,,,,,,,,,,,,,,,,,,,,,,606.5691,607.6958,a,1,[],[],[],[],[],[],[],0.4671,1,607.6958,608.1928,,,,,,358,MAS,AGR,150,motivo,el,l,0.4671,,608.1933,608.1937,0.077777778,-0.298148148,0,0,0,,0,186,186,357,1,,,,
,,,,,,d7f7dfee34b63f8366a488a6,66a626ef09d4e21e1a8894ec,6735ecfd314aa68701327ddd,2024-11-14_09h36.53.809,Tarea de género gramatical,2024.2.2,Win32,163.9344262,,,,,,,,,,,,,,,,,,,,,,,608.194,609.6595,a,1,[],[],[],[],[],[],[],0.8065,1,609.6595,610.1565,,,,,,336,MAS,DIS,150,crimen,la,l,0.8065,,610.1565,610.1566,0.077777778,-0.298148148,0,0,0,,0,187,187,335,1,,,,
,,,,,,d7f7dfee34b63f8366a488a6,66a626ef09d4e21e1a8894ec,6735ecfd314aa68701327ddd,2024-11-14_09h36.53.809,Tarea de género gramatical,2024.2.2,Win32,163.9344262,,,,,,,,,,,,,,,,,,,,,,,610.157,611.5202,l,1,[],[],[],[],[],[],[],0.7037,1,611.5202,612.0171,,,,,,303,FEM,DIS,150,maldad,el,a,0.7037,,612.0171,612.0171,0.077777778,-0.298148148,0,0,0,,0,188,188,302,1,,,,
,,,,,,d7f7dfee34b63f8366a488a6,66a626ef09d4e21e1a8894ec,6735ecfd314aa68701327ddd,2024-11-14_09h36.53.809,Tarea de género gramatical,2024.2.2,Win32,163.9344262,,,,,,,,,,,,,,,,,,,,,,,612.0176,613.5322,l,1,[],[],[],[],[],[],[],0.8552,1,613.5322,614.0292,,,,,,55,FEM,AGR,150,taza,la,a,0.8552,,614.0293,614.0293,0.077777778,-0.298148148,0,0,0,,0,189,189,54,1,,,,
,,,,,,d7f7dfee34b63f8366a488a6,66a626ef09d4e21e1a8894ec,6735ecfd314aa68701327ddd,2024-11-14_09h36.53.809,Tarea de género gramatical,2024.2.2,Win32,163.9344262,,,,,,,,,,,,,,,,,,,,,,,614.0298,615.1505,a,1,[],[],[],[],[],[],[],0.4627,1,615.1505,615.6474,,,,,,293,MAS,CON,150,patio,,l,0.4627,,615.6475,615.6475,0.077777778,-0.298148148,0,0,0,,0,190,190,292,1,,,,
,,,,,,d7f7dfee34b63f8366a488a6,66a626ef09d4e21e1a8894ec,6735ecfd314aa68701327ddd,2024-11-14_09h36.53.809,Tarea de género gramatical,2024.2.2,Win32,163.9344262,,,,,,,,,,,,,,,,,,,,,,,615.648,616.9929,l,0,[],[],[],[],[],[],[],0.6854,0,616.9933,617.49,,,,,,138,MAS,DIS,150,luto,la,l,0.6854,,617.4906,617.4909,0.077777778,-0.298148148,0,0,0,,0,191,191,137,1,,,,
,,,,,,d7f7dfee34b63f8366a488a6,66a626ef09d4e21e1a8894ec,6735ecfd314aa68701327ddd,2024-11-14_09h36.53.809,Tarea de género gramatical,2024.2.2,Win32,163.9344262,,,,,,,,,,,,,,,,,,,,,,,617.4912,618.9747,l,1,[],[],[],[],[],[],[],0.8245,1,618.9751,619.4718,,,,,,290,FEM,CON,150,cabra,,a,0.8245,,619.4718,619.4719,0.077777778,-0.298148148,0,0,0,,0,192,192,289,1,,,,
,,,,,,d7f7dfee34b63f8366a488a6,66a626ef09d4e21e1a8894ec,6735ecfd314aa68701327ddd,2024-11-14_09h36.53.809,Tarea de género gramatical,2024.2.2,Win32,163.9344262,,,,,,,,,,,,,,,,,,,,,,,619.4723,620.799,l,1,[],[],[],[],[],[],[],0.6691,1,620.7991,621.296,,,,,,169,FEM,AGR,150,vista,la,a,0.6691,,621.296,621.2961,0.077777778,-0.298148148,0,0,0,,0,193,193,168,1,,,,
,,,,,,d7f7dfee34b63f8366a488a6,66a626ef09d4e21e1a8894ec,6735ecfd314aa68701327ddd,2024-11-14_09h36.53.809,Tarea de género gramatical,2024.2.2,Win32,163.9344262,,,,,,,,,,,,,,,,,,,,,,,621.2966,622.393,a,1,[],[],[],[],[],[],[],0.4369,1,622.3931,622.89,,,,,,324,MAS,DIS,150,cuarto,la,l,0.4369,,622.8901,622.8901,0.077777778,-0.298148148,0,0,0,,0,194,194,323,1,,,,
,,,,,,d7f7dfee34b63f8366a488a6,66a626ef09d4e21e1a8894ec,6735ecfd314aa68701327ddd,2024-11-14_09h36.53.809,Tarea de género gramatical,2024.2.2,Win32,163.9344262,,,,,,,,,,,,,,,,,,,,,,,622.8906,624.1021,l,1,[],[],[],[],[],[],[],0.5521,1,624.1021,624.5991,,,,,,289,FEM,AGR,150,tabla,la,a,0.5521,,624.5996,624.5999,0.077777778,-0.298148148,0,0,0,,0,195,195,288,1,,,,
,,,,,,d7f7dfee34b63f8366a488a6,66a626ef09d4e21e1a8894ec,6735ecfd314aa68701327ddd,2024-11-14_09h36.53.809,Tarea de género gramatical,2024.2.2,Win32,163.9344262,,,,,,,,,,,,,,,,,,,,,,,624.6003,626.2838,l,0,[],[],[],[],[],[],[],1.0267,0,626.2842,626.781,,,,,,228,MAS,DIS,150,nivel,la,l,1.0267,,626.781,626.781,0.077777778,-0.298148148,0,0,0,,0,196,196,227,1,,,,
,,,,,,d7f7dfee34b63f8366a488a6,66a626ef09d4e21e1a8894ec,6735ecfd314aa68701327ddd,2024-11-14_09h36.53.809,Tarea de género gramatical,2024.2.2,Win32,163.9344262,,,,,,,,,,,,,,,,,,,,,,,626.7815,627.9991,l,1,[],[],[],[],[],[],[],0.5584,1,627.9994,628.4961,,,,,,37,FEM,AGR,150,sala,la,a,0.5584,,628.4962,628.4962,0.077777778,-0.298148148,0,0,0,,0,197,197,36,1,,,,
,,,,,,d7f7dfee34b63f8366a488a6,66a626ef09d4e21e1a8894ec,6735ecfd314aa68701327ddd,2024-11-14_09h36.53.809,Tarea de género gramatical,2024.2.2,Win32,163.9344262,,,,,,,,,,,,,,,,,,,,,,,628.4967,629.7929,l,0,[],[],[],[],[],[],[],0.6363,0,629.7934,630.29,,,,,,359,MAS,CON,150,bosque,,l,0.6363,,630.2901,630.2901,0.077777778,-0.298148148,0,0,0,,0,198,198,358,1,,,,
,,,,,,d7f7dfee34b63f8366a488a6,66a626ef09d4e21e1a8894ec,6735ecfd314aa68701327ddd,2024-11-14_09h36.53.809,Tarea de género gramatical,2024.2.2,Win32,163.9344262,,,,,,,,,,,,,,,,,,,,,,,630.2906,631.7628,a,1,[],[],[],[],[],[],[],0.8122,1,631.7631,632.2598,,,,,,239,MAS,CON,150,reloj,,l,0.8122,,632.2598,632.2598,0.077777778,-0.298148148,0,0,0,,0,199,199,238,1,,,,
,,,,,,d7f7dfee34b63f8366a488a6,66a626ef09d4e21e1a8894ec,6735ecfd314aa68701327ddd,2024-11-14_09h36.53.809,Tarea de género gramatical,2024.2.2,Win32,163.9344262,,,,,,,,,,,,,,,,,,,,,,,632.2604,633.4537,a,1,[],[],[],[],[],[],[],0.534,1,633.4538,633.9508,,,,,,244,MAS,AGR,150,hielo,el,l,0.534,,633.9513,633.9517,0.077777778,-0.298148148,0,0,0,,0,200,200,243,1,,,,
,,,,,,d7f7dfee34b63f8366a488a6,66a626ef09d4e21e1a8894ec,6735ecfd314aa68701327ddd,2024-11-14_09h36.53.809,Tarea de género gramatical,2024.2.2,Win32,163.9344262,,,,,,,,,,,,,,,,,,,,,,,633.952,635.0538,a,1,[],[],[],[],[],[],[],0.4426,1,635.0538,635.5508,,,,,,16,MAS,AGR,150,baño,el,l,0.4426,,635.5508,635.5508,0.077777778,-0.298148148,0,0,0,,0,201,201,15,1,,,,
,,,,,,d7f7dfee34b63f8366a488a6,66a626ef09d4e21e1a8894ec,6735ecfd314aa68701327ddd,2024-11-14_09h36.53.809,Tarea de género gramatical,2024.2.2,Win32,163.9344262,,,,,,,,,,,,,,,,,,,,,,,635.5512,636.6598,a,1,[],[],[],[],[],[],[],0.451,1,636.6598,637.1569,,,,,,113,MAS,CON,150,toro,,l,0.451,,637.1569,637.1569,0.077777778,-0.298148148,0,0,0,,0,202,202,112,1,,,,
,,,,,,d7f7dfee34b63f8366a488a6,66a626ef09d4e21e1a8894ec,6735ecfd314aa68701327ddd,2024-11-14_09h36.53.809,Tarea de género gramatical,2024.2.2,Win32,163.9344262,,,,,,,,,,,,,,,,,,,,,,,637.1574,638.472,l,1,[],[],[],[],[],[],[],0.6547,1,638.472,638.969,,,,,,344,FEM,CON,150,pareja,,a,0.6547,,638.969,638.969,0.077777778,-0.298148148,0,0,0,,0,203,203,343,1,,,,
,,,,,,d7f7dfee34b63f8366a488a6,66a626ef09d4e21e1a8894ec,6735ecfd314aa68701327ddd,2024-11-14_09h36.53.809,Tarea de género gramatical,2024.2.2,Win32,163.9344262,,,,,,,,,,,,,,,,,,,,,,,638.9695,640.0174,l,1,[],[],[],[],[],[],[],0.388,1,640.0174,640.5144,,,,,,68,FEM,CON,150,pata,,a,0.388,,640.515,640.5153,0.077777778,-0.298148148,0,0,0,,0,204,204,67,1,,,,
,,,,,,d7f7dfee34b63f8366a488a6,66a626ef09d4e21e1a8894ec,6735ecfd314aa68701327ddd,2024-11-14_09h36.53.809,Tarea de género gramatical,2024.2.2,Win32,163.9344262,,,,,,,,,,,,,,,,,,,,,,,640.5157,641.5992,a,1,[],[],[],[],[],[],[],0.4244,1,641.5993,642.0962,,,,,,198,MAS,DIS,150,hotel,la,l,0.4244,,642.0963,642.0963,0.077777778,-0.298148148,0,0,0,,0,205,205,197,1,,,,
,,,,,,d7f7dfee34b63f8366a488a6,66a626ef09d4e21e1a8894ec,6735ecfd314aa68701327ddd,2024-11-14_09h36.53.809,Tarea de género gramatical,2024.2.2,Win32,163.9344262,,,,,,,,,,,,,,,,,,,,,,,642.0968,643.2599,a,0,[],[],[],[],[],[],[],0.5034,0,643.2603,643.7569,,,,,,91,FEM,AGR,150,hoja,la,a,0.5034,,643.7569,643.7569,0.077777778,-0.298148148,0,0,0,,0,206,206,90,1,,,,
,,,,,,d7f7dfee34b63f8366a488a6,66a626ef09d4e21e1a8894ec,6735ecfd314aa68701327ddd,2024-11-14_09h36.53.809,Tarea de género gramatical,2024.2.2,Win32,163.9344262,,,,,,,,,,,,,,,,,,,,,,,643.7574,645.0295,l,1,[],[],[],[],[],[],[],0.6138,1,645.0299,645.5266,,,,,,313,FEM,AGR,150,ciudad,la,a,0.6138,,645.5266,645.5267,0.077777778,-0.298148148,0,0,0,,0,207,207,312,1,,,,
,,,,,,d7f7dfee34b63f8366a488a6,66a626ef09d4e21e1a8894ec,6735ecfd314aa68701327ddd,2024-11-14_09h36.53.809,Tarea de género gramatical,2024.2.2,Win32,163.9344262,,,,,,,,,,,,,,,,,,,,,,,645.5271,646.6174,l,1,[],[],[],[],[],[],[],0.4328,1,646.6175,647.1146,,,,,,356,FEM,CON,150,piedra,,a,0.4328,,647.1146,647.1146,0.077777778,-0.298148148,0,0,0,,0,208,208,355,1,,,,
,,,,,,d7f7dfee34b63f8366a488a6,66a626ef09d4e21e1a8894ec,6735ecfd314aa68701327ddd,2024-11-14_09h36.53.809,Tarea de género gramatical,2024.2.2,Win32,163.9344262,,,,,,,,,,,,,,,,,,,,,,,647.1152,648.3326,a,1,[],[],[],[],[],[],[],0.5593,1,648.3328,648.8297,,,,,,131,MAS,CON,150,kilo,,l,0.5593,,648.8303,648.8307,0.077777778,-0.298148148,0,0,0,,0,209,209,130,1,,,,
,,,,,,d7f7dfee34b63f8366a488a6,66a626ef09d4e21e1a8894ec,6735ecfd314aa68701327ddd,2024-11-14_09h36.53.809,Tarea de género gramatical,2024.2.2,Win32,163.9344262,,,,,,,,,,,,,,,,,,,,,,,648.831,650.0295,a,1,[],[],[],[],[],[],[],0.5422,1,650.0296,650.5267,,,,,,168,MAS,DIS,150,sitio,la,l,0.5422,,650.5267,650.5268,0.077777778,-0.298148148,0,0,0,,0,210,210,167,1,,,,
,,,,,,d7f7dfee34b63f8366a488a6,66a626ef09d4e21e1a8894ec,6735ecfd314aa68701327ddd,2024-11-14_09h36.53.809,Tarea de género gramatical,2024.2.2,Win32,163.9344262,,,,,,,,,,,,,,,,,,,,,,,650.5273,651.6659,a,1,[],[],[],[],[],[],[],0.4787,1,651.666,652.1629,,,,,,112,MAS,AGR,150,reto,el,l,0.4787,,652.1629,652.163,0.077777778,-0.298148148,0,0,0,,0,211,211,111,1,,,,
,,,,,,d7f7dfee34b63f8366a488a6,66a626ef09d4e21e1a8894ec,6735ecfd314aa68701327ddd,2024-11-14_09h36.53.809,Tarea de género gramatical,2024.2.2,Win32,163.9344262,,,,,,,,,,,,,,,,,,,,,,,652.1635,653.2418,l,1,[],[],[],[],[],[],[],0.4198,1,653.2419,653.7388,,,,,,423,FEM,DIS,150,poesía,el,a,0.4198,,653.7388,653.7389,0.077777778,-0.298148148,0,0,0,,0,212,212,422,1,,,,
,,,,,,d7f7dfee34b63f8366a488a6,66a626ef09d4e21e1a8894ec,6735ecfd314aa68701327ddd,2024-11-14_09h36.53.809,Tarea de género gramatical,2024.2.2,Win32,163.9344262,,,,,,,,,,,,,,,,,,,,,,,653.7394,654.9873,l,1,[],[],[],[],[],[],[],0.5886,1,654.9874,655.4843,,,,,,57,FEM,DIS,150,moda,el,a,0.5886,,655.4849,655.4852,0.077777778,-0.298148148,0,0,0,,0,213,213,56,1,,,,
,,,,,,d7f7dfee34b63f8366a488a6,66a626ef09d4e21e1a8894ec,6735ecfd314aa68701327ddd,2024-11-14_09h36.53.809,Tarea de género gramatical,2024.2.2,Win32,163.9344262,,,,,,,,,,,,,,,,,,,,,,,655.4855,656.5267,l,1,[],[],[],[],[],[],[],0.3821,1,656.5268,657.0237,,,,,,248,FEM,CON,150,letra,,a,0.3821,,657.0237,657.0238,0.077777778,-0.298148148,0,0,0,,0,214,214,247,1,,,,
,,,,,,d7f7dfee34b63f8366a488a6,66a626ef09d4e21e1a8894ec,6735ecfd314aa68701327ddd,2024-11-14_09h36.53.809,Tarea de género gramatical,2024.2.2,Win32,163.9344262,,,,,,,,,,,,,,,,,,,,,,,657.0243,658.151,a,1,[],[],[],[],[],[],[],0.4669,1,658.1511,658.6479,,,,,,227,MAS,CON,150,vuelo,,l,0.4669,,658.6479,658.648,0.077777778,-0.298148148,0,0,0,,0,215,215,226,1,,,,
,,,,,,d7f7dfee34b63f8366a488a6,66a626ef09d4e21e1a8894ec,6735ecfd314aa68701327ddd,2024-11-14_09h36.53.809,Tarea de género gramatical,2024.2.2,Win32,163.9344262,,,,,,,,,,,,,,,,,,,,,,,658.6485,659.8783,a,1,[],[],[],[],[],[],[],0.5699,1,659.8784,660.3752,,,,,,258,MAS,DIS,150,polvo,la,l,0.5699,,660.3753,660.3753,0.077777778,-0.298148148,0,0,0,,0,216,216,257,1,,,,
,,,,,,d7f7dfee34b63f8366a488a6,66a626ef09d4e21e1a8894ec,6735ecfd314aa68701327ddd,2024-11-14_09h36.53.809,Tarea de género gramatical,2024.2.2,Win32,163.9344262,,,,,,,,,,,,,,,,,,,,,,,660.3758,661.6964,a,1,[],[],[],[],[],[],[],0.661,1,661.6964,662.1936,,,,,,354,MAS,DIS,150,camión,la,l,0.661,,662.1936,662.1936,0.077777778,-0.298148148,0,0,0,,0,217,217,353,1,,,,
,,,,,,d7f7dfee34b63f8366a488a6,66a626ef09d4e21e1a8894ec,6735ecfd314aa68701327ddd,2024-11-14_09h36.53.809,Tarea de género gramatical,2024.2.2,Win32,163.9344262,,,,,,,,,,,,,,,,,,,,,,,662.1941,663.2782,l,1,[],[],[],[],[],[],[],0.4251,1,663.2782,663.7753,,,,,,237,FEM,DIS,150,ducha,el,a,0.4251,,663.7759,663.7762,0.077777778,-0.298148148,0,0,0,,0,218,218,236,1,,,,
,,,,,,d7f7dfee34b63f8366a488a6,66a626ef09d4e21e1a8894ec,6735ecfd314aa68701327ddd,2024-11-14_09h36.53.809,Tarea de género gramatical,2024.2.2,Win32,163.9344262,,,,,,,,,,,,,,,,,,,,,,,663.7765,664.7752,a,1,[],[],[],[],[],[],[],0.3404,1,664.7753,665.2724,,,,,,107,MAS,CON,150,cubo,,l,0.3404,,665.2724,665.2725,0.077777778,-0.298148148,0,0,0,,0,219,219,106,1,,,,
,,,,,,d7f7dfee34b63f8366a488a6,66a626ef09d4e21e1a8894ec,6735ecfd314aa68701327ddd,2024-11-14_09h36.53.809,Tarea de género gramatical,2024.2.2,Win32,163.9344262,,,,,,,,,,,,,,,,,,,,,,,665.2729,666.4117,l,1,[],[],[],[],[],[],[],0.4789,1,666.4117,666.9088,,,,,,295,FEM,AGR,150,grasa,la,a,0.4789,,666.9088,666.9089,0.077777778,-0.298148148,0,0,0,,0,220,220,294,1,,,,
,,,,,,d7f7dfee34b63f8366a488a6,66a626ef09d4e21e1a8894ec,6735ecfd314aa68701327ddd,2024-11-14_09h36.53.809,Tarea de género gramatical,2024.2.2,Win32,163.9344262,,,,,,,,,,,,,,,,,,,,,,,666.9093,668.0724,l,1,[],[],[],[],[],[],[],0.5044,1,668.0724,668.5692,,,,,,429,FEM,DIS,150,fianza,el,a,0.5044,,668.5693,668.5694,0.077777778,-0.298148148,0,0,0,,0,221,221,428,1,,,,
,,,,,,d7f7dfee34b63f8366a488a6,66a626ef09d4e21e1a8894ec,6735ecfd314aa68701327ddd,2024-11-14_09h36.53.809,Tarea de género gramatical,2024.2.2,Win32,163.9344262,,,,,,,,,,,,,,,,,,,,,,,668.5698,669.6541,l,1,[],[],[],[],[],[],[],0.4246,1,669.6541,670.1512,,,,,,86,FEM,CON,150,cruz,,a,0.4246,,670.1517,670.152,0.077777778,-0.298148148,0,0,0,,0,222,222,85,1,,,,
,,,,,,d7f7dfee34b63f8366a488a6,66a626ef09d4e21e1a8894ec,6735ecfd314aa68701327ddd,2024-11-14_09h36.53.809,Tarea de género gramatical,2024.2.2,Win32,163.9344262,,,,,,,,,,,,,,,,,,,,,,,670.1523,671.1875,a,1,[],[],[],[],[],[],[],0.3766,1,671.1876,671.6846,,,,,,162,MAS,DIS,150,miedo,la,l,0.3766,,671.6846,671.6847,0.077777778,-0.298148148,0,0,0,,0,223,223,161,1,,,,
,,,,,,d7f7dfee34b63f8366a488a6,66a626ef09d4e21e1a8894ec,6735ecfd314aa68701327ddd,2024-11-14_09h36.53.809,Tarea de género gramatical,2024.2.2,Win32,163.9344262,,,,,,,,,,,,,,,,,,,,,,,671.6852,672.9269,a,1,[],[],[],[],[],[],[],0.582,1,672.9269,673.4239,,,,,,4,MAS,AGR,150,hijo,el,l,0.582,,673.424,673.424,0.077777778,-0.298148148,0,0,0,,0,224,224,3,1,,,,
,,,,,,d7f7dfee34b63f8366a488a6,66a626ef09d4e21e1a8894ec,6735ecfd314aa68701327ddd,2024-11-14_09h36.53.809,Tarea de género gramatical,2024.2.2,Win32,163.9344262,,,,,,,,,,,,,,,,,,,,,,,673.4244,674.5027,a,1,[],[],[],[],[],[],[],0.4211,1,674.5027,674.9996,,,,,,323,MAS,CON,150,marido,,l,0.4211,,674.9996,674.9997,0.077777778,-0.298148148,0,0,0,,0,225,225,322,1,,,,
,,,,,,d7f7dfee34b63f8366a488a6,66a626ef09d4e21e1a8894ec,6735ecfd314aa68701327ddd,2024-11-14_09h36.53.809,Tarea de género gramatical,2024.2.2,Win32,163.9344262,,,,,,,,,,,,,,,,,,,,,,,675.0001,676.0724,l,1,[],[],[],[],[],[],[],0.4132,1,676.0725,676.5694,,,,,,380,FEM,CON,150,madera,,a,0.4132,,676.5694,676.5694,0.077777778,-0.298148148,0,0,0,,0,226,226,379,1,,,,
,,,,,,d7f7dfee34b63f8366a488a6,66a626ef09d4e21e1a8894ec,6735ecfd314aa68701327ddd,2024-11-14_09h36.53.809,Tarea de género gramatical,2024.2.2,Win32,163.9344262,,,,,,,,,,,,,,,,,,,,,,,676.5699,677.5996,a,1,[],[],[],[],[],[],[],0.37,1,677.5997,678.0966,,,,,,364,MAS,AGR,150,viento,el,l,0.37,,678.0972,678.0975,0.077777778,-0.298148148,0,0,0,,0,227,227,363,1,,,,
,,,,,,d7f7dfee34b63f8366a488a6,66a626ef09d4e21e1a8894ec,6735ecfd314aa68701327ddd,2024-11-14_09h36.53.809,Tarea de género gramatical,2024.2.2,Win32,163.9344262,,,,,,,,,,,,,,,,,,,,,,,678.0978,679.1755,a,1,[],[],[],[],[],[],[],0.4186,1,679.1755,679.6725,,,,,,442,MAS,AGR,150,cuadro,el,l,0.4186,,679.6726,679.6726,0.077777778,-0.298148148,0,0,0,,0,228,228,441,1,,,,
,,,,,,d7f7dfee34b63f8366a488a6,66a626ef09d4e21e1a8894ec,6735ecfd314aa68701327ddd,2024-11-14_09h36.53.809,Tarea de género gramatical,2024.2.2,Win32,163.9344262,,,,,,,,,,,,,,,,,,,,,,,679.673,680.8542,a,1,[],[],[],[],[],[],[],0.5241,1,680.8543,681.3512,,,,,,360,MAS,DIS,150,puente,la,l,0.5241,,681.3512,681.3512,0.077777778,-0.298148148,0,0,0,,0,229,229,359,1,,,,
,,,,,,d7f7dfee34b63f8366a488a6,66a626ef09d4e21e1a8894ec,6735ecfd314aa68701327ddd,2024-11-14_09h36.53.809,Tarea de género gramatical,2024.2.2,Win32,163.9344262,,,,,,,,,,,,,,,,,,,,,,,681.3518,682.7088,l,1,[],[],[],[],[],[],[],0.6972,1,682.7088,683.2058,,,,,,223,FEM,AGR,150,plata,la,a,0.6972,,683.2058,683.2058,0.077777778,-0.298148148,0,0,0,,0,230,230,222,1,,,,
,,,,,,d7f7dfee34b63f8366a488a6,66a626ef09d4e21e1a8894ec,6735ecfd314aa68701327ddd,2024-11-14_09h36.53.809,Tarea de género gramatical,2024.2.2,Win32,163.9344262,,,,,,,,,,,,,,,,,,,,,,,683.2063,684.2785,a,1,[],[],[],[],[],[],[],0.4133,1,684.2785,684.7756,,,,,,154,MAS,AGR,150,padre,el,l,0.4133,,684.7761,684.7764,0.077777778,-0.298148148,0,0,0,,0,231,231,153,1,,,,
,,,,,,d7f7dfee34b63f8366a488a6,66a626ef09d4e21e1a8894ec,6735ecfd314aa68701327ddd,2024-11-14_09h36.53.809,Tarea de género gramatical,2024.2.2,Win32,163.9344262,,,,,,,,,,,,,,,,,,,,,,,684.7768,685.8179,a,1,[],[],[],[],[],[],[],0.3846,1,685.8179,686.3148,,,,,,216,MAS,DIS,150,éxito,la,l,0.3846,,686.3149,686.3149,0.077777778,-0.298148148,0,0,0,,0,232,232,215,1,,,,
,,,,,,d7f7dfee34b63f8366a488a6,66a626ef09d4e21e1a8894ec,6735ecfd314aa68701327ddd,2024-11-14_09h36.53.809,Tarea de género gramatical,2024.2.2,Win32,163.9344262,,,,,,,,,,,,,,,,,,,,,,,686.3154,687.3514,l,1,[],[],[],[],[],[],[],0.3759,1,687.3514,687.8483,,,,,,235,FEM,AGR,150,torre,la,a,0.3759,,687.8483,687.8484,0.077777778,-0.298148148,0,0,0,,0,233,233,234,1,,,,
,,,,,,d7f7dfee34b63f8366a488a6,66a626ef09d4e21e1a8894ec,6735ecfd314aa68701327ddd,2024-11-14_09h36.53.809,Tarea de género gramatical,2024.2.2,Win32,163.9344262,,,,,,,,,,,,,,,,,,,,,,,687.8489,688.9392,a,1,[],[],[],[],[],[],[],0.4304,1,688.9393,689.4361,,,,,,448,MAS,AGR,150,aceite,el,l,0.4304,,689.4361,689.4362,0.077777778,-0.298148148,0,0,0,,0,234,234,447,1,,,,
,,,,,,d7f7dfee34b63f8366a488a6,66a626ef09d4e21e1a8894ec,6735ecfd314aa68701327ddd,2024-11-14_09h36.53.809,Tarea de género gramatical,2024.2.2,Win32,163.9344262,,,,,,,,,,,,,,,,,,,,,,,689.4367,690.5634,l,1,[],[],[],[],[],[],[],0.4667,1,690.5634,691.0605,,,,,,128,FEM,CON,150,leña,,a,0.4667,,691.0605,691.0605,0.077777778,-0.298148148,0,0,0,,0,235,235,127,1,,,,
,,,,,,d7f7dfee34b63f8366a488a6,66a626ef09d4e21e1a8894ec,6735ecfd314aa68701327ddd,2024-11-14_09h36.53.809,Tarea de género gramatical,2024.2.2,Win32,163.9344262,,,,,,,,,,,,,,,,,,,,,,,691.061,692.1089,a,1,[],[],[],[],[],[],[],0.3898,1,692.109,692.6059,,,,,,174,MAS,DIS,150,perro,la,l,0.3898,,692.6064,692.6068,0.077777778,-0.298148148,0,0,0,,0,236,236,173,1,,,,
,,,,,,d7f7dfee34b63f8366a488a6,66a626ef09d4e21e1a8894ec,6735ecfd314aa68701327ddd,2024-11-14_09h36.53.809,Tarea de género gramatical,2024.2.2,Win32,163.9344262,,,,,,,,,,,,,,,,,,,,,,,692.6071,693.6787,l,1,[],[],[],[],[],[],[],0.4124,1,693.6787,694.1756,,,,,,343,FEM,AGR,150,trampa,la,a,0.4124,,694.1756,694.1757,0.077777778,-0.298148148,0,0,0,,0,237,237,342,1,,,,
,,,,,,d7f7dfee34b63f8366a488a6,66a626ef09d4e21e1a8894ec,6735ecfd314aa68701327ddd,2024-11-14_09h36.53.809,Tarea de género gramatical,2024.2.2,Win32,163.9344262,,,,,,,,,,,,,,,,,,,,,,,694.1761,695.2423,a,1,[],[],[],[],[],[],[],0.4073,1,695.2424,695.7398,,,,,,5,MAS,CON,150,tipo,,l,0.4073,,695.7398,695.7398,0.077777778,-0.298148148,0,0,0,,0,238,238,4,1,,,,
,,,,,,d7f7dfee34b63f8366a488a6,66a626ef09d4e21e1a8894ec,6735ecfd314aa68701327ddd,2024-11-14_09h36.53.809,Tarea de género gramatical,2024.2.2,Win32,163.9344262,,,,,,,,,,,,,,,,,,,,,,,695.7403,696.8058,l,1,[],[],[],[],[],[],[],0.4071,1,696.8059,697.303,,,,,,332,FEM,CON,150,basura,,a,0.4071,,697.303,697.3032,0.077777778,-0.298148148,0,0,0,,0,239,239,331,1,,,,
,,,,,,d7f7dfee34b63f8366a488a6,66a626ef09d4e21e1a8894ec,6735ecfd314aa68701327ddd,2024-11-14_09h36.53.809,Tarea de género gramatical,2024.2.2,Win32,163.9344262,,,,,,,,,,,,,,,,,,,,,,,697.3036,698.3818,a,0,[],[],[],[],[],[],[],0.4186,0,698.3822,698.8787,,,,,,44,FEM,CON,150,zona,,a,0.4186,,698.8792,698.8796,0.077777778,-0.298148148,0,0,0,,0,240,240,43,1,,,,
,,,,,,d7f7dfee34b63f8366a488a6,66a626ef09d4e21e1a8894ec,6735ecfd314aa68701327ddd,2024-11-14_09h36.53.809,Tarea de género gramatical,2024.2.2,Win32,163.9344262,,,,,,,,,,,,,,,,,,,,,,,698.88,699.8787,a,1,[],[],[],[],[],[],[],0.3398,1,699.879,700.3757,,,,,,66,MAS,DIS,150,muro,la,l,0.3398,,700.3757,700.3757,0.077777778,-0.298148148,0,0,0,,0,241,241,65,1,,,,
,,,,,,d7f7dfee34b63f8366a488a6,66a626ef09d4e21e1a8894ec,6735ecfd314aa68701327ddd,2024-11-14_09h36.53.809,Tarea de género gramatical,2024.2.2,Win32,163.9344262,,,,,,,,,,,,,,,,,,,,,,,700.3763,701.4181,a,0,[],[],[],[],[],[],[],0.382,0,701.4185,701.9152,,,,,,362,FEM,CON,150,fuente,,a,0.382,,701.9152,701.9152,0.077777778,-0.298148148,0,0,0,,0,242,242,361,1,,,,
,,,,,,d7f7dfee34b63f8366a488a6,66a626ef09d4e21e1a8894ec,6735ecfd314aa68701327ddd,2024-11-14_09h36.53.809,Tarea de género gramatical,2024.2.2,Win32,163.9344262,,,,,,,,,,,,,,,,,,,,,,,701.9157,702.9454,l,1,[],[],[],[],[],[],[],0.3698,1,702.9457,703.4424,,,,,,435,FEM,DIS,150,niebla,el,a,0.3698,,703.4425,703.4425,0.077777778,-0.298148148,0,0,0,,0,243,243,434,1,,,,
,,,,,,d7f7dfee34b63f8366a488a6,66a626ef09d4e21e1a8894ec,6735ecfd314aa68701327ddd,2024-11-14_09h36.53.809,Tarea de género gramatical,2024.2.2,Win32,163.9344262,,,,,,,,,,,,,,,,,,,,,,,703.443,704.4969,a,1,[],[],[],[],[],[],[],0.396,1,704.4969,704.9939,,,,,,330,MAS,DIS,150,estado,la,l,0.396,,704.9939,704.994,0.077777778,-0.298148148,0,0,0,,0,244,244,329,1,,,,
,,,,,,d7f7dfee34b63f8366a488a6,66a626ef09d4e21e1a8894ec,6735ecfd314aa68701327ddd,2024-11-14_09h36.53.809,Tarea de género gramatical,2024.2.2,Win32,163.9344262,,,,,,,,,,,,,,,,,,,,,,,704.9945,706.3214,a,1,[],[],[],[],[],[],[],0.6692,1,706.3214,706.8182,,,,,,276,MAS,DIS,150,ritmo,la,l,0.6692,,706.8189,706.8192,0.077777778,-0.298148148,0,0,0,,0,245,245,275,1,,,,
,,,,,,d7f7dfee34b63f8366a488a6,66a626ef09d4e21e1a8894ec,6735ecfd314aa68701327ddd,2024-11-14_09h36.53.809,Tarea de género gramatical,2024.2.2,Win32,163.9344262,,,,,,,,,,,,,,,,,,,,,,,706.8195,707.9819,l,1,[],[],[],[],[],[],[],0.5033,1,707.982,708.4789,,,,,,393,FEM,DIS,150,alarma,el,a,0.5033,,708.4789,708.4789,0.077777778,-0.298148148,0,0,0,,0,246,246,392,1,,,,
,,,,,,d7f7dfee34b63f8366a488a6,66a626ef09d4e21e1a8894ec,6735ecfd314aa68701327ddd,2024-11-14_09h36.53.809,Tarea de género gramatical,2024.2.2,Win32,163.9344262,,,,,,,,,,,,,,,,,,,,,,,708.4794,709.6486,a,1,[],[],[],[],[],[],[],0.5107,1,709.6487,710.1455,,,,,,298,MAS,AGR,150,botón,el,l,0.5107,,710.1456,710.1456,0.077777778,-0.298148148,0,0,0,,0,247,247,297,1,,,,
,,,,,,d7f7dfee34b63f8366a488a6,66a626ef09d4e21e1a8894ec,6735ecfd314aa68701327ddd,2024-11-14_09h36.53.809,Tarea de género gramatical,2024.2.2,Win32,163.9344262,,,,,,,,,,,,,,,,,,,,,,,710.146,711.4484,l,1,[],[],[],[],[],[],[],0.644,1,711.4485,711.9456,,,,,,411,FEM,DIS,150,actriz,el,a,0.644,,711.9456,711.9456,0.077777778,-0.298148148,0,0,0,,0,248,248,410,1,,,,
,,,,,,d7f7dfee34b63f8366a488a6,66a626ef09d4e21e1a8894ec,6735ecfd314aa68701327ddd,2024-11-14_09h36.53.809,Tarea de género gramatical,2024.2.2,Win32,163.9344262,,,,,,,,,,,,,,,,,,,,,,,711.946,713.1455,l,1,[],[],[],[],[],[],[],0.5426,1,713.1456,713.6425,,,,,,301,FEM,AGR,150,verdad,la,a,0.5426,,713.643,713.6434,0.077777778,-0.298148148,0,0,0,,0,249,249,300,1,,,,
,,,,,,d7f7dfee34b63f8366a488a6,66a626ef09d4e21e1a8894ec,6735ecfd314aa68701327ddd,2024-11-14_09h36.53.809,Tarea de género gramatical,2024.2.2,Win32,163.9344262,,,,,,,,,,,,,,,,,,,,,,,713.6438,714.8061,a,1,[],[],[],[],[],[],[],0.5052,1,714.8062,715.3032,,,,,,144,MAS,DIS,150,amor,la,l,0.5052,,715.3032,715.3032,0.077777778,-0.298148148,0,0,0,,0,250,250,143,1,,,,
,,,,,,d7f7dfee34b63f8366a488a6,66a626ef09d4e21e1a8894ec,6735ecfd314aa68701327ddd,2024-11-14_09h36.53.809,Tarea de género gramatical,2024.2.2,Win32,163.9344262,,,,,,,,,,,,,,,,,,,,,,,715.3037,716.594,l,1,[],[],[],[],[],[],[],0.6306,1,716.5941,717.091,,,,,,397,FEM,AGR,150,cuerda,la,a,0.6306,,717.0911,717.0911,0.077777778,-0.298148148,0,0,0,,0,251,251,396,1,,,,
